date	time	script.currenttime	script.elapsedtime	build	script.currentexpt	subject	expressions.LRpleas_acq	expressions.conditionCS_A	expressions.CSpleas_1	expressions.CSpleas_2	expressions.CSunple_1	expressions.CSunple_2	expressions.distractor_1	expressions.distractor_2	expressions.US_pleas1	expressions.US_pleas2	expressions.US_pleas3	expressions.US_pleas4	expressions.US_pleas5	expressions.US_pleas6	expressions.US_unple1	expressions.US_unple2	expressions.US_unple3	expressions.US_unple4	expressions.US_unple5	expressions.US_unple6	counter.positions_noRW	trialcode	blockcode	blocknum	trialnum	windowcenter	inwindow	pretrialpause	posttrialpause	latency	response	expressions.correctedscore	correct	stimulusnumber1	stimulusitem1	stimulusonset1	stimulusnumber2	stimulusitem2	stimulusonset2	stimulusnumber3	stimulusitem3	stimulusonset3	stimulusnumber4	stimulusitem4	stimulusonset4	stimulusnumber5	stimulusitem5	stimulusonset5	stimulusnumber6	stimulusitem6	stimulusonset6	stimulusnumber7	stimulusitem7	stimulusonset7	stimulusnumber8	stimulusitem8	stimulusonset8	stimulusnumber9	stimulusitem9	stimulusonset9	stimulusnumber10	stimulusitem10	stimulusonset10	stimulusnumber11	stimulusitem11	stimulusonset11	stimulusnumber12	stimulusitem12	stimulusonset12	stimulusnumber13	stimulusitem13	stimulusonset13	stimulusnumber14	stimulusitem14	stimulusonset14	stimulusnumber15	stimulusitem15	stimulusonset15	stimulusnumber16	stimulusitem16	stimulusonset16	stimulusnumber17	stimulusitem17	stimulusonset17	stimulusnumber18	stimulusitem18	stimulusonset18
071719	15:19:58	15:21:23	84765	5.0.10.0	5_exp_RW	65	Rpleas_acq	CS_A	ZHHZ	YFFY	DXXD	JQQJ	CPPC	LWWL	genießen	gütig	küssen	träumen	sonnig	vertrauen	gemein	gierig	krank	töten	sterben	versagen	1	acq_USunple_CSunple1_RW	acq1_RW	1	1	0	0	300	300	2300	46	0	1	1	blank2r.bmp	0	1	+	0	1	blank2r.bmp	492	1	DXXD	492	1	blank2r.bmp	572	3	krank	866	0	0	0	0	0	0	0	0	0	0	0	0	0	0	0	0	0	0	0	0	0	0	0	0	0	0	0	0	0	0	0	0	0	0	0	0
071719	15:19:58	15:21:26	87177	5.0.10.0	5_exp_RW	65	Rpleas_acq	CS_A	ZHHZ	YFFY	DXXD	JQQJ	CPPC	LWWL	genießen	gütig	küssen	träumen	sonnig	vertrauen	gemein	gierig	krank	töten	sterben	versagen	1	acq_USunple_CSunple2_RW	acq1_RW	1	2	0	0	300	300	940	46	0	1	1	blank2r.bmp	0	1	+	0	1	blank2r.bmp	492	1	JQQJ	492	1	blank2r.bmp	572	2	sterben	866	0	0	0	0	0	0	0	0	0	0	0	0	0	0	0	0	0	0	0	0	0	0	0	0	0	0	0	0	0	0	0	0	0	0	0	0
071719	15:19:58	15:21:28	89789	5.0.10.0	5_exp_RW	65	Rpleas_acq	CS_A	ZHHZ	YFFY	DXXD	JQQJ	CPPC	LWWL	genießen	gütig	küssen	träumen	sonnig	vertrauen	gemein	gierig	krank	töten	sterben	versagen	1	acq_USpleas_CSpleas2_RW	acq1_RW	1	3	0	0	300	300	1127	50	0	1	1	blank2r.bmp	0	1	+	0	1	blank2r.bmp	492	1	YFFY	492	1	blank2r.bmp	572	3	vertrauen	866	0	0	0	0	0	0	0	0	0	0	0	0	0	0	0	0	0	0	0	0	0	0	0	0	0	0	0	0	0	0	0	0	0	0	0	0
071719	15:19:58	15:21:31	92935	5.0.10.0	5_exp_RW	65	Rpleas_acq	CS_A	ZHHZ	YFFY	DXXD	JQQJ	CPPC	LWWL	genießen	gütig	küssen	träumen	sonnig	vertrauen	gemein	gierig	krank	töten	sterben	versagen	1	acq_USunple_CSunple2_RW	acq1_RW	1	4	0	0	300	300	1675	46	0	1	1	blank2r.bmp	0	1	+	0	1	blank2r.bmp	492	1	JQQJ	492	1	blank2r.bmp	572	3	versagen	866	0	0	0	0	0	0	0	0	0	0	0	0	0	0	0	0	0	0	0	0	0	0	0	0	0	0	0	0	0	0	0	0	0	0	0	0
071719	15:19:58	15:21:34	95360	5.0.10.0	5_exp_RW	65	Rpleas_acq	CS_A	ZHHZ	YFFY	DXXD	JQQJ	CPPC	LWWL	genießen	gütig	küssen	träumen	sonnig	vertrauen	gemein	gierig	krank	töten	sterben	versagen	1	acq_USpleas_CSpleas2_RW	acq1_RW	1	5	0	0	300	300	934	50	0	1	1	blank2r.bmp	0	1	+	0	1	blank2r.bmp	492	1	YFFY	492	1	blank2r.bmp	572	2	sonnig	866	0	0	0	0	0	0	0	0	0	0	0	0	0	0	0	0	0	0	0	0	0	0	0	0	0	0	0	0	0	0	0	0	0	0	0	0
071719	15:19:58	15:21:36	97533	5.0.10.0	5_exp_RW	65	Rpleas_acq	CS_A	ZHHZ	YFFY	DXXD	JQQJ	CPPC	LWWL	genießen	gütig	küssen	träumen	sonnig	vertrauen	gemein	gierig	krank	töten	sterben	versagen	1	acq_USpleas_CSpleas2_RW	acq1_RW	1	6	0	0	300	300	692	50	0	1	1	blank2r.bmp	0	1	+	0	1	blank2r.bmp	492	1	YFFY	492	1	blank2r.bmp	572	1	träumen	866	0	0	0	0	0	0	0	0	0	0	0	0	0	0	0	0	0	0	0	0	0	0	0	0	0	0	0	0	0	0	0	0	0	0	0	0
071719	15:19:58	15:21:38	99865	5.0.10.0	5_exp_RW	65	Rpleas_acq	CS_A	ZHHZ	YFFY	DXXD	JQQJ	CPPC	LWWL	genießen	gütig	küssen	träumen	sonnig	vertrauen	gemein	gierig	krank	töten	sterben	versagen	1	acq_USunple_CSunple2_RW	acq1_RW	1	7	0	0	300	300	852	46	0	1	1	blank2r.bmp	0	1	+	0	1	blank2r.bmp	492	1	JQQJ	492	1	blank2r.bmp	572	1	töten	866	0	0	0	0	0	0	0	0	0	0	0	0	0	0	0	0	0	0	0	0	0	0	0	0	0	0	0	0	0	0	0	0	0	0	0	0
071719	15:19:58	15:21:42	103210	5.0.10.0	5_exp_RW	65	Rpleas_acq	CS_A	ZHHZ	YFFY	DXXD	JQQJ	CPPC	LWWL	genießen	gütig	küssen	träumen	sonnig	vertrauen	gemein	gierig	krank	töten	sterben	versagen	1	acq_USpleas_CSpleas2_RW	acq1_RW	1	8	0	0	300	300	1865	50	0	1	1	blank2r.bmp	0	1	+	0	1	blank2r.bmp	492	1	YFFY	492	1	blank2r.bmp	572	3	vertrauen	866	0	0	0	0	0	0	0	0	0	0	0	0	0	0	0	0	0	0	0	0	0	0	0	0	0	0	0	0	0	0	0	0	0	0	0	0
071719	15:19:58	15:21:44	105476	5.0.10.0	5_exp_RW	65	Rpleas_acq	CS_A	ZHHZ	YFFY	DXXD	JQQJ	CPPC	LWWL	genießen	gütig	küssen	träumen	sonnig	vertrauen	gemein	gierig	krank	töten	sterben	versagen	1	acq_USunple_CSunple1_RW	acq1_RW	1	9	0	0	300	300	794	46	0	1	1	blank2r.bmp	0	1	+	0	1	blank2r.bmp	492	1	DXXD	492	1	blank2r.bmp	572	2	gierig	866	0	0	0	0	0	0	0	0	0	0	0	0	0	0	0	0	0	0	0	0	0	0	0	0	0	0	0	0	0	0	0	0	0	0	0	0
071719	15:19:58	15:21:46	107888	5.0.10.0	5_exp_RW	65	Rpleas_acq	CS_A	ZHHZ	YFFY	DXXD	JQQJ	CPPC	LWWL	genießen	gütig	küssen	träumen	sonnig	vertrauen	gemein	gierig	krank	töten	sterben	versagen	1	acq_USpleas_CSpleas1_RW	acq1_RW	1	10	0	0	300	300	924	50	0	1	1	blank2r.bmp	0	1	+	0	1	blank2r.bmp	492	1	ZHHZ	492	1	blank2r.bmp	572	2	gütig	866	0	0	0	0	0	0	0	0	0	0	0	0	0	0	0	0	0	0	0	0	0	0	0	0	0	0	0	0	0	0	0	0	0	0	0	0
071719	15:19:58	15:21:49	110234	5.0.10.0	5_exp_RW	65	Rpleas_acq	CS_A	ZHHZ	YFFY	DXXD	JQQJ	CPPC	LWWL	genießen	gütig	küssen	träumen	sonnig	vertrauen	gemein	gierig	krank	töten	sterben	versagen	1	acq_USpleas_CSpleas1_RW	acq1_RW	1	11	0	0	300	300	870	50	0	1	1	blank2r.bmp	0	1	+	0	1	blank2r.bmp	492	1	ZHHZ	492	1	blank2r.bmp	572	1	genießen	866	0	0	0	0	0	0	0	0	0	0	0	0	0	0	0	0	0	0	0	0	0	0	0	0	0	0	0	0	0	0	0	0	0	0	0	0
071719	15:19:58	15:21:51	112287	5.0.10.0	5_exp_RW	65	Rpleas_acq	CS_A	ZHHZ	YFFY	DXXD	JQQJ	CPPC	LWWL	genießen	gütig	küssen	träumen	sonnig	vertrauen	gemein	gierig	krank	töten	sterben	versagen	1	acq_USunple_CSunple1_RW	acq1_RW	1	12	0	0	300	300	566	46	0	1	1	blank2r.bmp	0	1	+	0	1	blank2r.bmp	492	1	DXXD	492	1	blank2r.bmp	572	1	gemein	866	0	0	0	0	0	0	0	0	0	0	0	0	0	0	0	0	0	0	0	0	0	0	0	0	0	0	0	0	0	0	0	0	0	0	0	0
071719	15:19:58	15:21:53	114832	5.0.10.0	5_exp_RW	65	Rpleas_acq	CS_A	ZHHZ	YFFY	DXXD	JQQJ	CPPC	LWWL	genießen	gütig	küssen	träumen	sonnig	vertrauen	gemein	gierig	krank	töten	sterben	versagen	1	acq_USpleas_CSpleas1_RW	acq1_RW	1	13	0	0	300	300	1065	50	0	1	1	blank2r.bmp	0	1	+	0	1	blank2r.bmp	492	1	ZHHZ	492	1	blank2r.bmp	572	3	küssen	866	0	0	0	0	0	0	0	0	0	0	0	0	0	0	0	0	0	0	0	0	0	0	0	0	0	0	0	0	0	0	0	0	0	0	0	0
071719	15:19:58	15:21:55	116898	5.0.10.0	5_exp_RW	65	Rpleas_acq	CS_A	ZHHZ	YFFY	DXXD	JQQJ	CPPC	LWWL	genießen	gütig	küssen	träumen	sonnig	vertrauen	gemein	gierig	krank	töten	sterben	versagen	1	acq_USunple_CSunple1_RW	acq1_RW	1	14	0	0	300	300	594	46	0	1	1	blank2r.bmp	0	1	+	0	1	blank2r.bmp	492	1	DXXD	492	1	blank2r.bmp	572	1	gemein	866	0	0	0	0	0	0	0	0	0	0	0	0	0	0	0	0	0	0	0	0	0	0	0	0	0	0	0	0	0	0	0	0	0	0	0	0
071719	15:19:58	15:21:58	119390	5.0.10.0	5_exp_RW	65	Rpleas_acq	CS_A	ZHHZ	YFFY	DXXD	JQQJ	CPPC	LWWL	genießen	gütig	küssen	träumen	sonnig	vertrauen	gemein	gierig	krank	töten	sterben	versagen	1	acq_USpleas_CSpleas1_RW	acq1_RW	1	15	0	0	300	300	1002	50	0	1	1	blank2r.bmp	0	1	+	0	1	blank2r.bmp	492	1	ZHHZ	492	1	blank2r.bmp	572	3	küssen	866	0	0	0	0	0	0	0	0	0	0	0	0	0	0	0	0	0	0	0	0	0	0	0	0	0	0	0	0	0	0	0	0	0	0	0	0
071719	15:19:58	15:22:00	121616	5.0.10.0	5_exp_RW	65	Rpleas_acq	CS_A	ZHHZ	YFFY	DXXD	JQQJ	CPPC	LWWL	genießen	gütig	küssen	träumen	sonnig	vertrauen	gemein	gierig	krank	töten	sterben	versagen	1	acq_USunple_CSunple2_RW	acq1_RW	1	16	0	0	300	300	744	46	0	1	1	blank2r.bmp	0	1	+	0	1	blank2r.bmp	492	1	JQQJ	492	1	blank2r.bmp	572	3	versagen	866	0	0	0	0	0	0	0	0	0	0	0	0	0	0	0	0	0	0	0	0	0	0	0	0	0	0	0	0	0	0	0	0	0	0	0	0
071719	15:19:58	15:22:43	164332	5.0.10.0	5_exp_RW	65	Rpleas_acq	CS_A	ZHHZ	YFFY	DXXD	JQQJ	CPPC	LWWL	genießen	gütig	küssen	träumen	sonnig	vertrauen	gemein	gierig	krank	töten	sterben	versagen	1	acq_USunple_CSunple2_RW	acq2_RW	2	1	480	0	300	300	939	46	0	1	1	blank2r.bmp	0	1	+	0	1	blank2r.bmp	492	1	JQQJ	492	1	blank2r.bmp	572	1	töten	866	1	!	1319	1	!	-1	0	0	0	0	0	0	0	0	0	0	0	0	0	0	0	0	0	0	0	0	0	0	0	0	0	0	0	0	0	0
071719	15:19:58	15:22:45	166798	5.0.10.0	5_exp_RW	65	Rpleas_acq	CS_A	ZHHZ	YFFY	DXXD	JQQJ	CPPC	LWWL	genießen	gütig	küssen	träumen	sonnig	vertrauen	gemein	gierig	krank	töten	sterben	versagen	1	acq_USunple_CSunple2_RW	acq2_RW	2	2	480	0	300	300	682	46	0	1	1	blank2r.bmp	0	1	+	0	1	blank2r.bmp	492	1	JQQJ	492	1	blank2r.bmp	572	2	sterben	866	1	!	1319	1	!	-1	0	0	0	0	0	0	0	0	0	0	0	0	0	0	0	0	0	0	0	0	0	0	0	0	0	0	0	0	0	0
071719	15:19:58	15:22:48	169343	5.0.10.0	5_exp_RW	65	Rpleas_acq	CS_A	ZHHZ	YFFY	DXXD	JQQJ	CPPC	LWWL	genießen	gütig	küssen	träumen	sonnig	vertrauen	gemein	gierig	krank	töten	sterben	versagen	1	acq_USunple_CSunple1_RW	acq2_RW	2	3	480	1	300	300	527	50	0	0	1	blank2r.bmp	0	1	+	0	1	blank2r.bmp	492	1	DXXD	492	1	blank2r.bmp	572	2	gierig	866	1	FEHLER	1745	1	!	1319	1	!	1426	0	0	0	0	0	0	0	0	0	0	0	0	0	0	0	0	0	0	0	0	0	0	0	0	0	0	0
071719	15:19:58	15:22:54	175261	5.0.10.0	5_exp_RW	65	Rpleas_acq	CS_A	ZHHZ	YFFY	DXXD	JQQJ	CPPC	LWWL	genießen	gütig	küssen	träumen	sonnig	vertrauen	gemein	gierig	krank	töten	sterben	versagen	1	acq_USunple_CSunple2_RW	acq2_RW	2	4	480	0	300	300	4365	46	0	1	1	blank2r.bmp	0	1	+	0	1	blank2r.bmp	492	1	JQQJ	492	1	blank2r.bmp	572	1	töten	866	1	!	1319	1	!	-1	0	0	0	0	0	0	0	0	0	0	0	0	0	0	0	0	0	0	0	0	0	0	0	0	0	0	0	0	0	0
071719	15:19:58	15:22:56	177806	5.0.10.0	5_exp_RW	65	Rpleas_acq	CS_A	ZHHZ	YFFY	DXXD	JQQJ	CPPC	LWWL	genießen	gütig	küssen	träumen	sonnig	vertrauen	gemein	gierig	krank	töten	sterben	versagen	1	acq_USunple_CSunple2_RW	acq2_RW	2	5	480	0	300	300	770	46	0	1	1	blank2r.bmp	0	1	+	0	1	blank2r.bmp	492	1	JQQJ	492	1	blank2r.bmp	572	3	versagen	866	1	!	1319	1	!	-1	0	0	0	0	0	0	0	0	0	0	0	0	0	0	0	0	0	0	0	0	0	0	0	0	0	0	0	0	0	0
071719	15:19:58	15:22:59	180085	5.0.10.0	5_exp_RW	65	Rpleas_acq	CS_A	ZHHZ	YFFY	DXXD	JQQJ	CPPC	LWWL	genießen	gütig	küssen	träumen	sonnig	vertrauen	gemein	gierig	krank	töten	sterben	versagen	1	acq_USunple_CSunple1_RW	acq2_RW	2	6	480	1	300	300	474	46	0	1	1	blank2r.bmp	0	1	+	0	1	blank2r.bmp	492	1	DXXD	492	1	blank2r.bmp	572	3	krank	866	1	!	1319	1	!	1372	0	0	0	0	0	0	0	0	0	0	0	0	0	0	0	0	0	0	0	0	0	0	0	0	0	0	0	0	0	0
071719	15:19:58	15:23:01	182365	5.0.10.0	5_exp_RW	65	Rpleas_acq	CS_A	ZHHZ	YFFY	DXXD	JQQJ	CPPC	LWWL	genießen	gütig	küssen	träumen	sonnig	vertrauen	gemein	gierig	krank	töten	sterben	versagen	1	acq_USpleas_CSpleas2_RW	acq2_RW	2	7	480	1	300	300	491	50	0	1	1	blank2r.bmp	0	1	+	0	1	blank2r.bmp	492	1	YFFY	492	1	blank2r.bmp	572	2	sonnig	866	1	!	1319	1	!	1386	0	0	0	0	0	0	0	0	0	0	0	0	0	0	0	0	0	0	0	0	0	0	0	0	0	0	0	0	0	0
071719	15:19:58	15:23:03	184697	5.0.10.0	5_exp_RW	65	Rpleas_acq	CS_A	ZHHZ	YFFY	DXXD	JQQJ	CPPC	LWWL	genießen	gütig	küssen	träumen	sonnig	vertrauen	gemein	gierig	krank	töten	sterben	versagen	1	acq_USpleas_CSpleas2_RW	acq2_RW	2	8	480	0	300	300	559	50	0	1	1	blank2r.bmp	0	1	+	0	1	blank2r.bmp	492	1	YFFY	492	1	blank2r.bmp	572	1	träumen	866	1	!	1319	1	!	-1	0	0	0	0	0	0	0	0	0	0	0	0	0	0	0	0	0	0	0	0	0	0	0	0	0	0	0	0	0	0
071719	15:19:58	15:23:06	187096	5.0.10.0	5_exp_RW	65	Rpleas_acq	CS_A	ZHHZ	YFFY	DXXD	JQQJ	CPPC	LWWL	genießen	gütig	küssen	träumen	sonnig	vertrauen	gemein	gierig	krank	töten	sterben	versagen	1	acq_USpleas_CSpleas1_RW	acq2_RW	2	9	480	0	300	300	371	46	0	0	1	blank2r.bmp	0	1	+	0	1	blank2r.bmp	492	1	ZHHZ	492	1	blank2r.bmp	572	2	gütig	866	1	FEHLER	1586	1	!	-1	1	!	-1	0	0	0	0	0	0	0	0	0	0	0	0	0	0	0	0	0	0	0	0	0	0	0	0	0	0	0
071719	15:19:58	15:23:08	189322	5.0.10.0	5_exp_RW	65	Rpleas_acq	CS_A	ZHHZ	YFFY	DXXD	JQQJ	CPPC	LWWL	genießen	gütig	küssen	träumen	sonnig	vertrauen	gemein	gierig	krank	töten	sterben	versagen	1	acq_USpleas_CSpleas1_RW	acq2_RW	2	10	480	0	300	300	674	50	0	1	1	blank2r.bmp	0	1	+	0	1	blank2r.bmp	492	1	ZHHZ	492	1	blank2r.bmp	572	1	genießen	866	1	!	1319	1	!	-1	0	0	0	0	0	0	0	0	0	0	0	0	0	0	0	0	0	0	0	0	0	0	0	0	0	0	0	0	0	0
071719	15:19:58	15:23:10	191627	5.0.10.0	5_exp_RW	65	Rpleas_acq	CS_A	ZHHZ	YFFY	DXXD	JQQJ	CPPC	LWWL	genießen	gütig	küssen	träumen	sonnig	vertrauen	gemein	gierig	krank	töten	sterben	versagen	1	acq_USpleas_CSpleas2_RW	acq2_RW	2	11	480	1	300	300	494	50	0	1	1	blank2r.bmp	0	1	+	0	1	blank2r.bmp	492	1	YFFY	492	1	blank2r.bmp	572	2	sonnig	866	1	!	1319	1	!	1399	0	0	0	0	0	0	0	0	0	0	0	0	0	0	0	0	0	0	0	0	0	0	0	0	0	0	0	0	0	0
071719	15:19:58	15:23:12	193880	5.0.10.0	5_exp_RW	65	Rpleas_acq	CS_A	ZHHZ	YFFY	DXXD	JQQJ	CPPC	LWWL	genießen	gütig	küssen	träumen	sonnig	vertrauen	gemein	gierig	krank	töten	sterben	versagen	1	acq_USunple_CSunple2_RW	acq2_RW	2	12	480	1	300	300	464	46	0	1	1	blank2r.bmp	0	1	+	0	1	blank2r.bmp	492	1	JQQJ	492	1	blank2r.bmp	572	2	sterben	866	1	!	1319	1	!	1359	0	0	0	0	0	0	0	0	0	0	0	0	0	0	0	0	0	0	0	0	0	0	0	0	0	0	0	0	0	0
071719	15:19:58	15:23:15	196186	5.0.10.0	5_exp_RW	65	Rpleas_acq	CS_A	ZHHZ	YFFY	DXXD	JQQJ	CPPC	LWWL	genießen	gütig	küssen	träumen	sonnig	vertrauen	gemein	gierig	krank	töten	sterben	versagen	1	acq_USunple_CSunple2_RW	acq2_RW	2	13	480	1	300	300	512	46	0	1	1	blank2r.bmp	0	1	+	0	1	blank2r.bmp	492	1	JQQJ	492	1	blank2r.bmp	572	1	töten	866	1	!	1319	1	!	1412	0	0	0	0	0	0	0	0	0	0	0	0	0	0	0	0	0	0	0	0	0	0	0	0	0	0	0	0	0	0
071719	15:19:58	15:23:17	198331	5.0.10.0	5_exp_RW	65	Rpleas_acq	CS_A	ZHHZ	YFFY	DXXD	JQQJ	CPPC	LWWL	genießen	gütig	küssen	träumen	sonnig	vertrauen	gemein	gierig	krank	töten	sterben	versagen	1	acq_USpleas_CSpleas2_RW	acq2_RW	2	14	480	0	300	300	377	50	0	1	1	blank2r.bmp	0	1	+	0	1	blank2r.bmp	492	1	YFFY	492	1	blank2r.bmp	572	1	träumen	866	1	!	-1	1	!	-1	0	0	0	0	0	0	0	0	0	0	0	0	0	0	0	0	0	0	0	0	0	0	0	0	0	0	0	0	0	0
071719	15:19:58	15:23:20	201237	5.0.10.0	5_exp_RW	65	Rpleas_acq	CS_A	ZHHZ	YFFY	DXXD	JQQJ	CPPC	LWWL	genießen	gütig	küssen	träumen	sonnig	vertrauen	gemein	gierig	krank	töten	sterben	versagen	1	acq_USpleas_CSpleas2_RW	acq2_RW	2	15	480	0	300	300	1109	50	0	1	1	blank2r.bmp	0	1	+	0	1	blank2r.bmp	492	1	YFFY	492	1	blank2r.bmp	572	3	vertrauen	866	1	!	1319	1	!	-1	0	0	0	0	0	0	0	0	0	0	0	0	0	0	0	0	0	0	0	0	0	0	0	0	0	0	0	0	0	0
071719	15:19:58	15:23:22	203729	5.0.10.0	5_exp_RW	65	Rpleas_acq	CS_A	ZHHZ	YFFY	DXXD	JQQJ	CPPC	LWWL	genießen	gütig	küssen	träumen	sonnig	vertrauen	gemein	gierig	krank	töten	sterben	versagen	1	acq_USpleas_CSpleas1_RW	acq2_RW	2	16	480	0	300	300	713	50	0	1	1	blank2r.bmp	0	1	+	0	1	blank2r.bmp	492	1	ZHHZ	492	1	blank2r.bmp	572	1	genießen	866	1	!	1319	1	!	-1	0	0	0	0	0	0	0	0	0	0	0	0	0	0	0	0	0	0	0	0	0	0	0	0	0	0	0	0	0	0
071719	15:19:58	15:23:24	206048	5.0.10.0	5_exp_RW	65	Rpleas_acq	CS_A	ZHHZ	YFFY	DXXD	JQQJ	CPPC	LWWL	genießen	gütig	küssen	träumen	sonnig	vertrauen	gemein	gierig	krank	töten	sterben	versagen	1	acq_USpleas_CSpleas1_RW	acq2_RW	2	17	480	0	300	300	301	46	0	0	1	blank2r.bmp	0	1	+	0	1	blank2r.bmp	492	1	ZHHZ	492	1	blank2r.bmp	572	2	gütig	866	1	FEHLER	1506	1	!	-1	1	!	-1	0	0	0	0	0	0	0	0	0	0	0	0	0	0	0	0	0	0	0	0	0	0	0	0	0	0	0
071719	15:19:58	15:23:27	208674	5.0.10.0	5_exp_RW	65	Rpleas_acq	CS_A	ZHHZ	YFFY	DXXD	JQQJ	CPPC	LWWL	genießen	gütig	küssen	träumen	sonnig	vertrauen	gemein	gierig	krank	töten	sterben	versagen	1	acq_USunple_CSunple1_RW	acq2_RW	2	18	480	0	300	300	1075	46	0	1	1	blank2r.bmp	0	1	+	0	1	blank2r.bmp	492	1	DXXD	492	1	blank2r.bmp	572	1	gemein	866	1	!	1319	1	!	-1	0	0	0	0	0	0	0	0	0	0	0	0	0	0	0	0	0	0	0	0	0	0	0	0	0	0	0	0	0	0
071719	15:19:58	15:23:30	211286	5.0.10.0	5_exp_RW	65	Rpleas_acq	CS_A	ZHHZ	YFFY	DXXD	JQQJ	CPPC	LWWL	genießen	gütig	küssen	träumen	sonnig	vertrauen	gemein	gierig	krank	töten	sterben	versagen	1	acq_USunple_CSunple1_RW	acq2_RW	2	19	480	0	300	300	825	46	0	1	1	blank2r.bmp	0	1	+	0	1	blank2r.bmp	492	1	DXXD	492	1	blank2r.bmp	572	2	gierig	866	1	!	1319	1	!	-1	0	0	0	0	0	0	0	0	0	0	0	0	0	0	0	0	0	0	0	0	0	0	0	0	0	0	0	0	0	0
071719	15:19:58	15:23:32	213632	5.0.10.0	5_exp_RW	65	Rpleas_acq	CS_A	ZHHZ	YFFY	DXXD	JQQJ	CPPC	LWWL	genießen	gütig	küssen	träumen	sonnig	vertrauen	gemein	gierig	krank	töten	sterben	versagen	1	acq_USunple_CSunple1_RW	acq2_RW	2	20	480	0	300	300	566	46	0	1	1	blank2r.bmp	0	1	+	0	1	blank2r.bmp	492	1	DXXD	492	1	blank2r.bmp	572	3	krank	866	1	!	1319	1	!	-1	0	0	0	0	0	0	0	0	0	0	0	0	0	0	0	0	0	0	0	0	0	0	0	0	0	0	0	0	0	0
071719	15:19:58	15:23:34	215804	5.0.10.0	5_exp_RW	65	Rpleas_acq	CS_A	ZHHZ	YFFY	DXXD	JQQJ	CPPC	LWWL	genießen	gütig	küssen	träumen	sonnig	vertrauen	gemein	gierig	krank	töten	sterben	versagen	1	acq_USpleas_CSpleas1_RW	acq2_RW	2	21	480	0	300	300	386	50	0	1	1	blank2r.bmp	0	1	+	0	1	blank2r.bmp	492	1	ZHHZ	492	1	blank2r.bmp	572	3	küssen	866	1	!	-1	1	!	-1	0	0	0	0	0	0	0	0	0	0	0	0	0	0	0	0	0	0	0	0	0	0	0	0	0	0	0	0	0	0
071719	15:19:58	15:23:37	218336	5.0.10.0	5_exp_RW	65	Rpleas_acq	CS_A	ZHHZ	YFFY	DXXD	JQQJ	CPPC	LWWL	genießen	gütig	küssen	träumen	sonnig	vertrauen	gemein	gierig	krank	töten	sterben	versagen	1	acq_USpleas_CSpleas1_RW	acq2_RW	2	22	480	0	300	300	734	50	0	1	1	blank2r.bmp	0	1	+	0	1	blank2r.bmp	492	1	ZHHZ	492	1	blank2r.bmp	572	2	gütig	866	1	!	1319	1	!	-1	0	0	0	0	0	0	0	0	0	0	0	0	0	0	0	0	0	0	0	0	0	0	0	0	0	0	0	0	0	0
071719	15:19:58	15:23:39	220469	5.0.10.0	5_exp_RW	65	Rpleas_acq	CS_A	ZHHZ	YFFY	DXXD	JQQJ	CPPC	LWWL	genießen	gütig	küssen	träumen	sonnig	vertrauen	gemein	gierig	krank	töten	sterben	versagen	1	acq_USpleas_CSpleas2_RW	acq2_RW	2	23	480	0	300	300	352	50	0	1	1	blank2r.bmp	0	1	+	0	1	blank2r.bmp	492	1	YFFY	492	1	blank2r.bmp	572	2	sonnig	866	1	!	-1	1	!	-1	0	0	0	0	0	0	0	0	0	0	0	0	0	0	0	0	0	0	0	0	0	0	0	0	0	0	0	0	0	0
071719	15:19:58	15:23:41	222921	5.0.10.0	5_exp_RW	65	Rpleas_acq	CS_A	ZHHZ	YFFY	DXXD	JQQJ	CPPC	LWWL	genießen	gütig	küssen	träumen	sonnig	vertrauen	gemein	gierig	krank	töten	sterben	versagen	1	acq_USunple_CSunple1_RW	acq2_RW	2	24	480	0	300	300	652	46	0	1	1	blank2r.bmp	0	1	+	0	1	blank2r.bmp	492	1	DXXD	492	1	blank2r.bmp	572	2	gierig	866	1	!	1319	1	!	-1	0	0	0	0	0	0	0	0	0	0	0	0	0	0	0	0	0	0	0	0	0	0	0	0	0	0	0	0	0	0
071719	15:19:58	15:23:58	239075	5.0.10.0	5_exp_RW	65	Rpleas_acq	CS_A	ZHHZ	YFFY	DXXD	JQQJ	CPPC	LWWL	genießen	gütig	küssen	träumen	sonnig	vertrauen	gemein	gierig	krank	töten	sterben	versagen	1	acq_USpleas_CSpleas2_RW	acq3_RW	3	1	453	0	300	300	656	50	0	1	1	blank2r.bmp	0	1	+	0	1	blank2r.bmp	492	1	YFFY	492	1	blank2r.bmp	572	1	träumen	866	1	!	1292	1	!	-1	0	0	0	0	0	0	0	0	0	0	0	0	0	0	0	0	0	0	0	0	0	0	0	0	0	0	0	0	0	0
071719	15:19:58	15:24:00	241247	5.0.10.0	5_exp_RW	65	Rpleas_acq	CS_A	ZHHZ	YFFY	DXXD	JQQJ	CPPC	LWWL	genießen	gütig	küssen	träumen	sonnig	vertrauen	gemein	gierig	krank	töten	sterben	versagen	1	acq_USunple_CSunple2_RW	acq3_RW	3	2	453	0	300	300	386	46	0	1	1	blank2r.bmp	0	1	+	0	1	blank2r.bmp	492	1	JQQJ	492	1	blank2r.bmp	572	2	sterben	866	1	!	-1	1	!	-1	0	0	0	0	0	0	0	0	0	0	0	0	0	0	0	0	0	0	0	0	0	0	0	0	0	0	0	0	0	0
071719	15:19:58	15:24:02	243793	5.0.10.0	5_exp_RW	65	Rpleas_acq	CS_A	ZHHZ	YFFY	DXXD	JQQJ	CPPC	LWWL	genießen	gütig	küssen	träumen	sonnig	vertrauen	gemein	gierig	krank	töten	sterben	versagen	1	acq_USpleas_CSpleas2_RW	acq3_RW	3	3	453	0	300	300	756	50	0	1	1	blank2r.bmp	0	1	+	0	1	blank2r.bmp	492	1	YFFY	492	1	blank2r.bmp	572	3	vertrauen	866	1	!	1292	1	!	-1	0	0	0	0	0	0	0	0	0	0	0	0	0	0	0	0	0	0	0	0	0	0	0	0	0	0	0	0	0	0
071719	15:19:58	15:24:05	246112	5.0.10.0	5_exp_RW	65	Rpleas_acq	CS_A	ZHHZ	YFFY	DXXD	JQQJ	CPPC	LWWL	genießen	gütig	küssen	träumen	sonnig	vertrauen	gemein	gierig	krank	töten	sterben	versagen	1	acq_USunple_CSunple1_RW	acq3_RW	3	4	453	0	300	300	544	46	0	1	1	blank2r.bmp	0	1	+	0	1	blank2r.bmp	492	1	DXXD	492	1	blank2r.bmp	572	1	gemein	866	1	!	1292	1	!	-1	0	0	0	0	0	0	0	0	0	0	0	0	0	0	0	0	0	0	0	0	0	0	0	0	0	0	0	0	0	0
071719	15:19:58	15:24:07	248604	5.0.10.0	5_exp_RW	65	Rpleas_acq	CS_A	ZHHZ	YFFY	DXXD	JQQJ	CPPC	LWWL	genießen	gütig	küssen	träumen	sonnig	vertrauen	gemein	gierig	krank	töten	sterben	versagen	1	acq_USpleas_CSpleas1_RW	acq3_RW	3	5	453	0	300	300	715	50	0	1	1	blank2r.bmp	0	1	+	0	1	blank2r.bmp	492	1	ZHHZ	492	1	blank2r.bmp	572	1	genießen	866	1	!	1292	1	!	-1	0	0	0	0	0	0	0	0	0	0	0	0	0	0	0	0	0	0	0	0	0	0	0	0	0	0	0	0	0	0
071719	15:19:58	15:24:10	251110	5.0.10.0	5_exp_RW	65	Rpleas_acq	CS_A	ZHHZ	YFFY	DXXD	JQQJ	CPPC	LWWL	genießen	gütig	küssen	träumen	sonnig	vertrauen	gemein	gierig	krank	töten	sterben	versagen	1	acq_USpleas_CSpleas2_RW	acq3_RW	3	6	453	1	300	300	484	46	0	0	1	blank2r.bmp	0	1	+	0	1	blank2r.bmp	492	1	YFFY	492	1	blank2r.bmp	572	3	vertrauen	866	1	FEHLER	1705	1	!	1292	1	!	1386	0	0	0	0	0	0	0	0	0	0	0	0	0	0	0	0	0	0	0	0	0	0	0	0	0	0	0
071719	15:19:58	15:24:15	256827	5.0.10.0	5_exp_RW	65	Rpleas_acq	CS_A	ZHHZ	YFFY	DXXD	JQQJ	CPPC	LWWL	genießen	gütig	küssen	träumen	sonnig	vertrauen	gemein	gierig	krank	töten	sterben	versagen	1	acq_USunple_CSunple1_RW	acq3_RW	3	7	453	0	300	300	3936	50	0	0	1	blank2r.bmp	0	1	+	0	1	blank2r.bmp	492	1	DXXD	492	1	blank2r.bmp	572	3	krank	866	1	FEHLER	5144	1	!	1292	1	!	-1	0	0	0	0	0	0	0	0	0	0	0	0	0	0	0	0	0	0	0	0	0	0	0	0	0	0	0
071719	15:19:58	15:24:17	258946	5.0.10.0	5_exp_RW	65	Rpleas_acq	CS_A	ZHHZ	YFFY	DXXD	JQQJ	CPPC	LWWL	genießen	gütig	küssen	träumen	sonnig	vertrauen	gemein	gierig	krank	töten	sterben	versagen	1	acq_USunple_CSunple1_RW	acq3_RW	3	8	453	0	300	300	571	46	0	1	1	blank2r.bmp	0	1	+	0	1	blank2r.bmp	492	1	DXXD	492	1	blank2r.bmp	572	3	krank	866	1	!	1292	1	!	-1	0	0	0	0	0	0	0	0	0	0	0	0	0	0	0	0	0	0	0	0	0	0	0	0	0	0	0	0	0	0
071719	15:19:58	15:24:20	261359	5.0.10.0	5_exp_RW	65	Rpleas_acq	CS_A	ZHHZ	YFFY	DXXD	JQQJ	CPPC	LWWL	genießen	gütig	küssen	träumen	sonnig	vertrauen	gemein	gierig	krank	töten	sterben	versagen	1	acq_USpleas_CSpleas1_RW	acq3_RW	3	9	453	0	300	300	630	50	0	1	1	blank2r.bmp	0	1	+	0	1	blank2r.bmp	492	1	ZHHZ	492	1	blank2r.bmp	572	3	küssen	866	1	!	1292	1	!	-1	0	0	0	0	0	0	0	0	0	0	0	0	0	0	0	0	0	0	0	0	0	0	0	0	0	0	0	0	0	0
071719	15:19:58	15:24:22	263611	5.0.10.0	5_exp_RW	65	Rpleas_acq	CS_A	ZHHZ	YFFY	DXXD	JQQJ	CPPC	LWWL	genießen	gütig	küssen	träumen	sonnig	vertrauen	gemein	gierig	krank	töten	sterben	versagen	1	acq_USunple_CSunple1_RW	acq3_RW	3	10	453	1	300	300	445	46	0	1	1	blank2r.bmp	0	1	+	0	1	blank2r.bmp	492	1	DXXD	492	1	blank2r.bmp	572	2	gierig	866	1	!	1292	1	!	1346	0	0	0	0	0	0	0	0	0	0	0	0	0	0	0	0	0	0	0	0	0	0	0	0	0	0	0	0	0	0
071719	15:19:58	15:24:24	265810	5.0.10.0	5_exp_RW	65	Rpleas_acq	CS_A	ZHHZ	YFFY	DXXD	JQQJ	CPPC	LWWL	genießen	gütig	küssen	träumen	sonnig	vertrauen	gemein	gierig	krank	töten	sterben	versagen	1	acq_USpleas_CSpleas1_RW	acq3_RW	3	11	453	1	300	300	410	50	0	1	1	blank2r.bmp	0	1	+	0	1	blank2r.bmp	492	1	ZHHZ	492	1	blank2r.bmp	572	3	küssen	866	1	!	1292	1	!	1306	0	0	0	0	0	0	0	0	0	0	0	0	0	0	0	0	0	0	0	0	0	0	0	0	0	0	0	0	0	0
071719	15:19:58	15:24:27	268183	5.0.10.0	5_exp_RW	65	Rpleas_acq	CS_A	ZHHZ	YFFY	DXXD	JQQJ	CPPC	LWWL	genießen	gütig	küssen	träumen	sonnig	vertrauen	gemein	gierig	krank	töten	sterben	versagen	1	acq_USpleas_CSpleas1_RW	acq3_RW	3	12	453	0	300	300	379	46	0	0	1	blank2r.bmp	0	1	+	0	1	blank2r.bmp	492	1	ZHHZ	492	1	blank2r.bmp	572	1	genießen	866	1	FEHLER	1586	1	!	-1	1	!	-1	0	0	0	0	0	0	0	0	0	0	0	0	0	0	0	0	0	0	0	0	0	0	0	0	0	0	0
071719	15:19:58	15:24:29	270262	5.0.10.0	5_exp_RW	65	Rpleas_acq	CS_A	ZHHZ	YFFY	DXXD	JQQJ	CPPC	LWWL	genießen	gütig	küssen	träumen	sonnig	vertrauen	gemein	gierig	krank	töten	sterben	versagen	1	acq_USunple_CSunple2_RW	acq3_RW	3	13	453	1	300	300	495	46	0	1	1	blank2r.bmp	0	1	+	0	1	blank2r.bmp	492	1	JQQJ	492	1	blank2r.bmp	572	3	versagen	866	1	!	1292	1	!	1399	0	0	0	0	0	0	0	0	0	0	0	0	0	0	0	0	0	0	0	0	0	0	0	0	0	0	0	0	0	0
071719	15:19:58	15:24:31	272461	5.0.10.0	5_exp_RW	65	Rpleas_acq	CS_A	ZHHZ	YFFY	DXXD	JQQJ	CPPC	LWWL	genießen	gütig	küssen	träumen	sonnig	vertrauen	gemein	gierig	krank	töten	sterben	versagen	1	acq_USpleas_CSpleas2_RW	acq3_RW	3	14	453	1	300	300	399	50	0	1	1	blank2r.bmp	0	1	+	0	1	blank2r.bmp	492	1	YFFY	492	1	blank2r.bmp	572	1	träumen	866	1	!	1292	1	!	1306	0	0	0	0	0	0	0	0	0	0	0	0	0	0	0	0	0	0	0	0	0	0	0	0	0	0	0	0	0	0
071719	15:19:58	15:24:33	274673	5.0.10.0	5_exp_RW	65	Rpleas_acq	CS_A	ZHHZ	YFFY	DXXD	JQQJ	CPPC	LWWL	genießen	gütig	küssen	träumen	sonnig	vertrauen	gemein	gierig	krank	töten	sterben	versagen	1	acq_USpleas_CSpleas2_RW	acq3_RW	3	15	453	1	300	300	399	50	0	1	1	blank2r.bmp	0	1	+	0	1	blank2r.bmp	492	1	YFFY	492	1	blank2r.bmp	572	2	sonnig	866	1	!	1292	1	!	1306	0	0	0	0	0	0	0	0	0	0	0	0	0	0	0	0	0	0	0	0	0	0	0	0	0	0	0	0	0	0
071719	15:19:58	15:24:36	277219	5.0.10.0	5_exp_RW	65	Rpleas_acq	CS_A	ZHHZ	YFFY	DXXD	JQQJ	CPPC	LWWL	genießen	gütig	küssen	träumen	sonnig	vertrauen	gemein	gierig	krank	töten	sterben	versagen	1	acq_USpleas_CSpleas2_RW	acq3_RW	3	16	453	0	300	300	547	46	0	0	1	blank2r.bmp	0	1	+	0	1	blank2r.bmp	492	1	YFFY	492	1	blank2r.bmp	572	3	vertrauen	866	1	FEHLER	1759	1	!	1292	1	!	-1	0	0	0	0	0	0	0	0	0	0	0	0	0	0	0	0	0	0	0	0	0	0	0	0	0	0	0
071719	15:19:58	15:24:38	279311	5.0.10.0	5_exp_RW	65	Rpleas_acq	CS_A	ZHHZ	YFFY	DXXD	JQQJ	CPPC	LWWL	genießen	gütig	küssen	träumen	sonnig	vertrauen	gemein	gierig	krank	töten	sterben	versagen	1	acq_USunple_CSunple1_RW	acq3_RW	3	17	453	0	300	300	539	46	0	1	1	blank2r.bmp	0	1	+	0	1	blank2r.bmp	492	1	DXXD	492	1	blank2r.bmp	572	1	gemein	866	1	!	1292	1	!	-1	0	0	0	0	0	0	0	0	0	0	0	0	0	0	0	0	0	0	0	0	0	0	0	0	0	0	0	0	0	0
071719	15:19:58	15:24:40	281444	5.0.10.0	5_exp_RW	65	Rpleas_acq	CS_A	ZHHZ	YFFY	DXXD	JQQJ	CPPC	LWWL	genießen	gütig	küssen	träumen	sonnig	vertrauen	gemein	gierig	krank	töten	sterben	versagen	1	acq_USunple_CSunple2_RW	acq3_RW	3	18	453	0	300	300	337	46	0	1	1	blank2r.bmp	0	1	+	0	1	blank2r.bmp	492	1	JQQJ	492	1	blank2r.bmp	572	1	töten	866	1	!	-1	1	!	-1	0	0	0	0	0	0	0	0	0	0	0	0	0	0	0	0	0	0	0	0	0	0	0	0	0	0	0	0	0	0
071719	15:19:58	15:24:42	283736	5.0.10.0	5_exp_RW	65	Rpleas_acq	CS_A	ZHHZ	YFFY	DXXD	JQQJ	CPPC	LWWL	genießen	gütig	küssen	träumen	sonnig	vertrauen	gemein	gierig	krank	töten	sterben	versagen	1	acq_USunple_CSunple2_RW	acq3_RW	3	19	453	1	300	300	485	46	0	1	1	blank2r.bmp	0	1	+	0	1	blank2r.bmp	492	1	JQQJ	492	1	blank2r.bmp	572	3	versagen	866	1	!	1292	1	!	1386	0	0	0	0	0	0	0	0	0	0	0	0	0	0	0	0	0	0	0	0	0	0	0	0	0	0	0	0	0	0
071719	15:19:58	15:24:45	286095	5.0.10.0	5_exp_RW	65	Rpleas_acq	CS_A	ZHHZ	YFFY	DXXD	JQQJ	CPPC	LWWL	genießen	gütig	küssen	träumen	sonnig	vertrauen	gemein	gierig	krank	töten	sterben	versagen	1	acq_USunple_CSunple2_RW	acq3_RW	3	20	453	0	300	300	587	46	0	1	1	blank2r.bmp	0	1	+	0	1	blank2r.bmp	492	1	JQQJ	492	1	blank2r.bmp	572	2	sterben	866	1	!	1292	1	!	-1	0	0	0	0	0	0	0	0	0	0	0	0	0	0	0	0	0	0	0	0	0	0	0	0	0	0	0	0	0	0
071719	15:19:58	15:24:47	288348	5.0.10.0	5_exp_RW	65	Rpleas_acq	CS_A	ZHHZ	YFFY	DXXD	JQQJ	CPPC	LWWL	genießen	gütig	küssen	träumen	sonnig	vertrauen	gemein	gierig	krank	töten	sterben	versagen	1	acq_USpleas_CSpleas1_RW	acq3_RW	3	21	453	1	300	300	445	50	0	1	1	blank2r.bmp	0	1	+	0	1	blank2r.bmp	492	1	ZHHZ	492	1	blank2r.bmp	572	2	gütig	866	1	!	1292	1	!	1346	0	0	0	0	0	0	0	0	0	0	0	0	0	0	0	0	0	0	0	0	0	0	0	0	0	0	0	0	0	0
071719	15:19:58	15:24:49	290720	5.0.10.0	5_exp_RW	65	Rpleas_acq	CS_A	ZHHZ	YFFY	DXXD	JQQJ	CPPC	LWWL	genießen	gütig	küssen	träumen	sonnig	vertrauen	gemein	gierig	krank	töten	sterben	versagen	1	acq_USpleas_CSpleas1_RW	acq3_RW	3	22	453	0	300	300	602	50	0	1	1	blank2r.bmp	0	1	+	0	1	blank2r.bmp	492	1	ZHHZ	492	1	blank2r.bmp	572	3	küssen	866	1	!	1292	1	!	-1	0	0	0	0	0	0	0	0	0	0	0	0	0	0	0	0	0	0	0	0	0	0	0	0	0	0	0	0	0	0
071719	15:19:58	15:24:51	293039	5.0.10.0	5_exp_RW	65	Rpleas_acq	CS_A	ZHHZ	YFFY	DXXD	JQQJ	CPPC	LWWL	genießen	gütig	küssen	träumen	sonnig	vertrauen	gemein	gierig	krank	töten	sterben	versagen	1	acq_USunple_CSunple1_RW	acq3_RW	3	23	453	0	300	300	311	50	0	0	1	blank2r.bmp	0	1	+	0	1	blank2r.bmp	492	1	DXXD	492	1	blank2r.bmp	572	3	krank	866	1	FEHLER	1519	1	!	-1	1	!	-1	0	0	0	0	0	0	0	0	0	0	0	0	0	0	0	0	0	0	0	0	0	0	0	0	0	0	0
071719	15:19:58	15:24:54	295105	5.0.10.0	5_exp_RW	65	Rpleas_acq	CS_A	ZHHZ	YFFY	DXXD	JQQJ	CPPC	LWWL	genießen	gütig	küssen	träumen	sonnig	vertrauen	gemein	gierig	krank	töten	sterben	versagen	1	acq_USunple_CSunple2_RW	acq3_RW	3	24	453	1	300	300	483	46	0	1	1	blank2r.bmp	0	1	+	0	1	blank2r.bmp	492	1	JQQJ	492	1	blank2r.bmp	572	1	töten	866	1	!	1292	1	!	1386	0	0	0	0	0	0	0	0	0	0	0	0	0	0	0	0	0	0	0	0	0	0	0	0	0	0	0	0	0	0
071719	15:19:58	15:25:13	314924	5.0.10.0	5_exp_RW	65	Rpleas_acq	CS_A	ZHHZ	YFFY	DXXD	JQQJ	CPPC	LWWL	genießen	gütig	küssen	träumen	sonnig	vertrauen	gemein	gierig	krank	töten	sterben	versagen	1	acq_USunple_CSunple2_RW	acq4567_RW	4	1	400	0	300	300	496	50	0	0	1	blank2r.bmp	0	1	+	0	1	blank2r.bmp	492	1	JQQJ	492	1	blank2r.bmp	572	3	versagen	866	1	!	1239	1	!	-1	0	0	0	0	0	0	0	0	0	0	0	0	0	0	0	0	0	0	0	0	0	0	0	0	0	0	0	0	0	0
071719	15:19:58	15:25:16	317149	5.0.10.0	5_exp_RW	65	Rpleas_acq	CS_A	ZHHZ	YFFY	DXXD	JQQJ	CPPC	LWWL	genießen	gütig	küssen	träumen	sonnig	vertrauen	gemein	gierig	krank	töten	sterben	versagen	1	acq_USpleas_CSpleas2_RW	acq4567_RW	4	2	400	1	300	300	415	50	0	1	1	blank2r.bmp	0	1	+	0	1	blank2r.bmp	492	1	YFFY	492	1	blank2r.bmp	572	2	sonnig	866	1	!	1239	1	!	1319	0	0	0	0	0	0	0	0	0	0	0	0	0	0	0	0	0	0	0	0	0	0	0	0	0	0	0	0	0	0
071719	15:19:58	15:25:18	319388	5.0.10.0	5_exp_RW	65	Rpleas_acq	CS_A	ZHHZ	YFFY	DXXD	JQQJ	CPPC	LWWL	genießen	gütig	küssen	träumen	sonnig	vertrauen	gemein	gierig	krank	töten	sterben	versagen	1	acq_USunple_CSunple1_RW	acq4567_RW	4	3	400	1	300	300	445	46	0	1	1	blank2r.bmp	0	1	+	0	1	blank2r.bmp	492	1	DXXD	492	1	blank2r.bmp	572	1	gemein	866	1	!	1239	1	!	1346	0	0	0	0	0	0	0	0	0	0	0	0	0	0	0	0	0	0	0	0	0	0	0	0	0	0	0	0	0	0
071719	15:19:58	15:25:20	321667	5.0.10.0	5_exp_RW	65	Rpleas_acq	CS_A	ZHHZ	YFFY	DXXD	JQQJ	CPPC	LWWL	genießen	gütig	küssen	träumen	sonnig	vertrauen	gemein	gierig	krank	töten	sterben	versagen	1	acq_USunple_CSunple2_RW	acq4567_RW	4	4	400	0	300	300	516	46	0	1	1	blank2r.bmp	0	1	+	0	1	blank2r.bmp	492	1	JQQJ	492	1	blank2r.bmp	572	2	sterben	866	1	!	1239	1	!	-1	0	0	0	0	0	0	0	0	0	0	0	0	0	0	0	0	0	0	0	0	0	0	0	0	0	0	0	0	0	0
071719	15:19:58	15:25:22	324040	5.0.10.0	5_exp_RW	65	Rpleas_acq	CS_A	ZHHZ	YFFY	DXXD	JQQJ	CPPC	LWWL	genießen	gütig	küssen	träumen	sonnig	vertrauen	gemein	gierig	krank	töten	sterben	versagen	1	acq_USpleas_CSpleas1_RW	acq4567_RW	4	5	400	0	300	300	587	50	0	1	1	blank2r.bmp	0	1	+	0	1	blank2r.bmp	492	1	ZHHZ	492	1	blank2r.bmp	572	2	gütig	866	1	!	1239	1	!	-1	0	0	0	0	0	0	0	0	0	0	0	0	0	0	0	0	0	0	0	0	0	0	0	0	0	0	0	0	0	0
071719	15:19:58	15:25:25	326252	5.0.10.0	5_exp_RW	65	Rpleas_acq	CS_A	ZHHZ	YFFY	DXXD	JQQJ	CPPC	LWWL	genießen	gütig	küssen	träumen	sonnig	vertrauen	gemein	gierig	krank	töten	sterben	versagen	1	acq_USpleas_CSpleas1_RW	acq4567_RW	4	6	400	1	300	300	401	50	0	1	1	blank2r.bmp	0	1	+	0	1	blank2r.bmp	492	1	ZHHZ	492	1	blank2r.bmp	572	1	genießen	866	1	!	1239	1	!	1306	0	0	0	0	0	0	0	0	0	0	0	0	0	0	0	0	0	0	0	0	0	0	0	0	0	0	0	0	0	0
071719	15:19:58	15:25:27	328398	5.0.10.0	5_exp_RW	65	Rpleas_acq	CS_A	ZHHZ	YFFY	DXXD	JQQJ	CPPC	LWWL	genießen	gütig	küssen	träumen	sonnig	vertrauen	gemein	gierig	krank	töten	sterben	versagen	1	acq_USunple_CSunple1_RW	acq4567_RW	4	7	400	1	300	300	346	46	0	1	1	blank2r.bmp	0	1	+	0	1	blank2r.bmp	492	1	DXXD	492	1	blank2r.bmp	572	2	gierig	866	1	!	1239	1	!	1252	0	0	0	0	0	0	0	0	0	0	0	0	0	0	0	0	0	0	0	0	0	0	0	0	0	0	0	0	0	0
071719	15:19:58	15:25:29	330597	5.0.10.0	5_exp_RW	65	Rpleas_acq	CS_A	ZHHZ	YFFY	DXXD	JQQJ	CPPC	LWWL	genießen	gütig	küssen	träumen	sonnig	vertrauen	gemein	gierig	krank	töten	sterben	versagen	1	acq_USpleas_CSpleas2_RW	acq4567_RW	4	8	400	1	300	300	406	50	0	1	1	blank2r.bmp	0	1	+	0	1	blank2r.bmp	492	1	YFFY	492	1	blank2r.bmp	572	1	träumen	866	1	!	1239	1	!	1306	0	0	0	0	0	0	0	0	0	0	0	0	0	0	0	0	0	0	0	0	0	0	0	0	0	0	0	0	0	0
071719	15:19:58	15:25:31	332783	5.0.10.0	5_exp_RW	65	Rpleas_acq	CS_A	ZHHZ	YFFY	DXXD	JQQJ	CPPC	LWWL	genießen	gütig	küssen	träumen	sonnig	vertrauen	gemein	gierig	krank	töten	sterben	versagen	1	acq_USpleas_CSpleas1_RW	acq4567_RW	4	9	400	1	300	300	390	50	0	1	1	blank2r.bmp	0	1	+	0	1	blank2r.bmp	492	1	ZHHZ	492	1	blank2r.bmp	572	3	küssen	866	1	!	1239	1	!	1292	0	0	0	0	0	0	0	0	0	0	0	0	0	0	0	0	0	0	0	0	0	0	0	0	0	0	0	0	0	0
071719	15:19:58	15:25:33	335049	5.0.10.0	5_exp_RW	65	Rpleas_acq	CS_A	ZHHZ	YFFY	DXXD	JQQJ	CPPC	LWWL	genießen	gütig	küssen	träumen	sonnig	vertrauen	gemein	gierig	krank	töten	sterben	versagen	1	acq_USunple_CSunple2_RW	acq4567_RW	4	10	400	1	300	300	465	50	0	0	1	blank2r.bmp	0	1	+	0	1	blank2r.bmp	492	1	JQQJ	492	1	blank2r.bmp	572	3	versagen	866	1	!	1239	1	!	1359	0	0	0	0	0	0	0	0	0	0	0	0	0	0	0	0	0	0	0	0	0	0	0	0	0	0	0	0	0	0
071719	15:19:58	15:25:36	337341	5.0.10.0	5_exp_RW	65	Rpleas_acq	CS_A	ZHHZ	YFFY	DXXD	JQQJ	CPPC	LWWL	genießen	gütig	küssen	träumen	sonnig	vertrauen	gemein	gierig	krank	töten	sterben	versagen	1	acq_USpleas_CSpleas2_RW	acq4567_RW	4	11	400	0	300	300	529	50	0	1	1	blank2r.bmp	0	1	+	0	1	blank2r.bmp	492	1	YFFY	492	1	blank2r.bmp	572	1	träumen	866	1	!	1239	1	!	-1	0	0	0	0	0	0	0	0	0	0	0	0	0	0	0	0	0	0	0	0	0	0	0	0	0	0	0	0	0	0
071719	15:19:58	15:25:38	339753	5.0.10.0	5_exp_RW	65	Rpleas_acq	CS_A	ZHHZ	YFFY	DXXD	JQQJ	CPPC	LWWL	genießen	gütig	küssen	träumen	sonnig	vertrauen	gemein	gierig	krank	töten	sterben	versagen	1	acq_USpleas_CSpleas2_RW	acq4567_RW	4	12	400	0	300	300	618	50	0	1	1	blank2r.bmp	0	1	+	0	1	blank2r.bmp	492	1	YFFY	492	1	blank2r.bmp	572	3	vertrauen	866	1	!	1239	1	!	-1	0	0	0	0	0	0	0	0	0	0	0	0	0	0	0	0	0	0	0	0	0	0	0	0	0	0	0	0	0	0
071719	15:19:58	15:25:41	342206	5.0.10.0	5_exp_RW	65	Rpleas_acq	CS_A	ZHHZ	YFFY	DXXD	JQQJ	CPPC	LWWL	genießen	gütig	küssen	träumen	sonnig	vertrauen	gemein	gierig	krank	töten	sterben	versagen	1	acq_USunple_CSunple1_RW	acq4567_RW	4	13	400	0	300	300	673	46	0	1	1	blank2r.bmp	0	1	+	0	1	blank2r.bmp	492	1	DXXD	492	1	blank2r.bmp	572	1	gemein	866	1	!	1239	1	!	-1	0	0	0	0	0	0	0	0	0	0	0	0	0	0	0	0	0	0	0	0	0	0	0	0	0	0	0	0	0	0
071719	15:19:58	15:25:43	344365	5.0.10.0	5_exp_RW	65	Rpleas_acq	CS_A	ZHHZ	YFFY	DXXD	JQQJ	CPPC	LWWL	genießen	gütig	küssen	träumen	sonnig	vertrauen	gemein	gierig	krank	töten	sterben	versagen	1	acq_USpleas_CSpleas2_RW	acq4567_RW	4	14	400	1	300	300	358	50	0	1	1	blank2r.bmp	0	1	+	0	1	blank2r.bmp	492	1	YFFY	492	1	blank2r.bmp	572	2	sonnig	866	1	!	1239	1	!	1252	0	0	0	0	0	0	0	0	0	0	0	0	0	0	0	0	0	0	0	0	0	0	0	0	0	0	0	0	0	0
071719	15:19:58	15:25:45	346617	5.0.10.0	5_exp_RW	65	Rpleas_acq	CS_A	ZHHZ	YFFY	DXXD	JQQJ	CPPC	LWWL	genießen	gütig	küssen	träumen	sonnig	vertrauen	gemein	gierig	krank	töten	sterben	versagen	1	acq_USunple_CSunple2_RW	acq4567_RW	4	15	400	1	300	300	457	46	0	1	1	blank2r.bmp	0	1	+	0	1	blank2r.bmp	492	1	JQQJ	492	1	blank2r.bmp	572	2	sterben	866	1	!	1239	1	!	1359	0	0	0	0	0	0	0	0	0	0	0	0	0	0	0	0	0	0	0	0	0	0	0	0	0	0	0	0	0	0
071719	15:19:58	15:25:47	348910	5.0.10.0	5_exp_RW	65	Rpleas_acq	CS_A	ZHHZ	YFFY	DXXD	JQQJ	CPPC	LWWL	genießen	gütig	küssen	träumen	sonnig	vertrauen	gemein	gierig	krank	töten	sterben	versagen	1	acq_USunple_CSunple1_RW	acq4567_RW	4	16	400	0	300	300	531	46	0	1	1	blank2r.bmp	0	1	+	0	1	blank2r.bmp	492	1	DXXD	492	1	blank2r.bmp	572	2	gierig	866	1	!	1239	1	!	-1	0	0	0	0	0	0	0	0	0	0	0	0	0	0	0	0	0	0	0	0	0	0	0	0	0	0	0	0	0	0
071719	15:19:58	15:25:50	351149	5.0.10.0	5_exp_RW	65	Rpleas_acq	CS_A	ZHHZ	YFFY	DXXD	JQQJ	CPPC	LWWL	genießen	gütig	küssen	träumen	sonnig	vertrauen	gemein	gierig	krank	töten	sterben	versagen	1	acq_USpleas_CSpleas1_RW	acq4567_RW	4	17	400	1	300	300	438	50	0	1	1	blank2r.bmp	0	1	+	0	1	blank2r.bmp	492	1	ZHHZ	492	1	blank2r.bmp	572	2	gütig	866	1	!	1239	1	!	1332	0	0	0	0	0	0	0	0	0	0	0	0	0	0	0	0	0	0	0	0	0	0	0	0	0	0	0	0	0	0
071719	15:19:58	15:25:52	353361	5.0.10.0	5_exp_RW	65	Rpleas_acq	CS_A	ZHHZ	YFFY	DXXD	JQQJ	CPPC	LWWL	genießen	gütig	küssen	träumen	sonnig	vertrauen	gemein	gierig	krank	töten	sterben	versagen	1	acq_USunple_CSunple2_RW	acq4567_RW	4	18	400	1	300	300	415	46	0	1	1	blank2r.bmp	0	1	+	0	1	blank2r.bmp	492	1	JQQJ	492	1	blank2r.bmp	572	1	töten	866	1	!	1239	1	!	1319	0	0	0	0	0	0	0	0	0	0	0	0	0	0	0	0	0	0	0	0	0	0	0	0	0	0	0	0	0	0
071719	15:19:58	15:25:54	355440	5.0.10.0	5_exp_RW	65	Rpleas_acq	CS_A	ZHHZ	YFFY	DXXD	JQQJ	CPPC	LWWL	genießen	gütig	küssen	träumen	sonnig	vertrauen	gemein	gierig	krank	töten	sterben	versagen	1	acq_USunple_CSunple1_RW	acq4567_RW	4	19	400	0	300	300	299	50	0	0	1	blank2r.bmp	0	1	+	0	1	blank2r.bmp	492	1	DXXD	492	1	blank2r.bmp	572	3	krank	866	1	!	-1	1	!	-1	0	0	0	0	0	0	0	0	0	0	0	0	0	0	0	0	0	0	0	0	0	0	0	0	0	0	0	0	0	0
071719	15:19:58	15:25:56	357653	5.0.10.0	5_exp_RW	65	Rpleas_acq	CS_A	ZHHZ	YFFY	DXXD	JQQJ	CPPC	LWWL	genießen	gütig	küssen	träumen	sonnig	vertrauen	gemein	gierig	krank	töten	sterben	versagen	1	acq_USpleas_CSpleas1_RW	acq4567_RW	4	20	400	1	300	300	407	50	0	1	1	blank2r.bmp	0	1	+	0	1	blank2r.bmp	492	1	ZHHZ	492	1	blank2r.bmp	572	1	genießen	866	1	!	1239	1	!	1306	0	0	0	0	0	0	0	0	0	0	0	0	0	0	0	0	0	0	0	0	0	0	0	0	0	0	0	0	0	0
071719	15:19:58	15:25:58	359905	5.0.10.0	5_exp_RW	65	Rpleas_acq	CS_A	ZHHZ	YFFY	DXXD	JQQJ	CPPC	LWWL	genießen	gütig	küssen	träumen	sonnig	vertrauen	gemein	gierig	krank	töten	sterben	versagen	1	acq_USpleas_CSpleas1_RW	acq4567_RW	4	21	400	0	300	300	479	50	0	1	1	blank2r.bmp	0	1	+	0	1	blank2r.bmp	492	1	ZHHZ	492	1	blank2r.bmp	572	3	küssen	866	1	!	1239	1	!	-1	0	0	0	0	0	0	0	0	0	0	0	0	0	0	0	0	0	0	0	0	0	0	0	0	0	0	0	0	0	0
071719	15:19:58	15:26:01	362091	5.0.10.0	5_exp_RW	65	Rpleas_acq	CS_A	ZHHZ	YFFY	DXXD	JQQJ	CPPC	LWWL	genießen	gütig	küssen	träumen	sonnig	vertrauen	gemein	gierig	krank	töten	sterben	versagen	1	acq_USpleas_CSpleas2_RW	acq4567_RW	4	22	400	1	300	300	376	50	0	1	1	blank2r.bmp	0	1	+	0	1	blank2r.bmp	492	1	YFFY	492	1	blank2r.bmp	572	2	sonnig	866	1	!	1239	1	!	1279	0	0	0	0	0	0	0	0	0	0	0	0	0	0	0	0	0	0	0	0	0	0	0	0	0	0	0	0	0	0
071719	15:19:58	15:26:03	364183	5.0.10.0	5_exp_RW	65	Rpleas_acq	CS_A	ZHHZ	YFFY	DXXD	JQQJ	CPPC	LWWL	genießen	gütig	küssen	träumen	sonnig	vertrauen	gemein	gierig	krank	töten	sterben	versagen	1	acq_USpleas_CSpleas1_RW	acq4567_RW	4	23	400	0	300	300	328	50	0	1	1	blank2r.bmp	0	1	+	0	1	blank2r.bmp	492	1	ZHHZ	492	1	blank2r.bmp	572	2	gütig	866	1	!	-1	1	!	-1	0	0	0	0	0	0	0	0	0	0	0	0	0	0	0	0	0	0	0	0	0	0	0	0	0	0	0	0	0	0
071719	15:19:58	15:26:05	366369	5.0.10.0	5_exp_RW	65	Rpleas_acq	CS_A	ZHHZ	YFFY	DXXD	JQQJ	CPPC	LWWL	genießen	gütig	küssen	träumen	sonnig	vertrauen	gemein	gierig	krank	töten	sterben	versagen	1	acq_USunple_CSunple1_RW	acq4567_RW	4	24	400	1	300	300	378	46	0	1	1	blank2r.bmp	0	1	+	0	1	blank2r.bmp	492	1	DXXD	492	1	blank2r.bmp	572	2	gierig	866	1	!	1239	1	!	1279	0	0	0	0	0	0	0	0	0	0	0	0	0	0	0	0	0	0	0	0	0	0	0	0	0	0	0	0	0	0
071719	15:19:58	15:26:07	368595	5.0.10.0	5_exp_RW	65	Rpleas_acq	CS_A	ZHHZ	YFFY	DXXD	JQQJ	CPPC	LWWL	genießen	gütig	küssen	träumen	sonnig	vertrauen	gemein	gierig	krank	töten	sterben	versagen	1	acq_USunple_CSunple2_RW	acq4567_RW	4	25	400	1	300	300	425	46	0	1	1	blank2r.bmp	0	1	+	0	1	blank2r.bmp	492	1	JQQJ	492	1	blank2r.bmp	572	3	versagen	866	1	!	1239	1	!	1332	0	0	0	0	0	0	0	0	0	0	0	0	0	0	0	0	0	0	0	0	0	0	0	0	0	0	0	0	0	0
071719	15:19:58	15:26:09	370754	5.0.10.0	5_exp_RW	65	Rpleas_acq	CS_A	ZHHZ	YFFY	DXXD	JQQJ	CPPC	LWWL	genießen	gütig	küssen	träumen	sonnig	vertrauen	gemein	gierig	krank	töten	sterben	versagen	1	acq_USunple_CSunple1_RW	acq4567_RW	4	26	400	1	300	300	365	46	0	1	1	blank2r.bmp	0	1	+	0	1	blank2r.bmp	492	1	DXXD	492	1	blank2r.bmp	572	3	krank	866	1	!	1239	1	!	1266	0	0	0	0	0	0	0	0	0	0	0	0	0	0	0	0	0	0	0	0	0	0	0	0	0	0	0	0	0	0
071719	15:19:58	15:26:11	372913	5.0.10.0	5_exp_RW	65	Rpleas_acq	CS_A	ZHHZ	YFFY	DXXD	JQQJ	CPPC	LWWL	genießen	gütig	küssen	träumen	sonnig	vertrauen	gemein	gierig	krank	töten	sterben	versagen	1	acq_USunple_CSunple2_RW	acq4567_RW	4	27	400	1	300	300	346	46	0	1	1	blank2r.bmp	0	1	+	0	1	blank2r.bmp	492	1	JQQJ	492	1	blank2r.bmp	572	1	töten	866	1	!	1239	1	!	1252	0	0	0	0	0	0	0	0	0	0	0	0	0	0	0	0	0	0	0	0	0	0	0	0	0	0	0	0	0	0
071719	15:19:58	15:26:14	375099	5.0.10.0	5_exp_RW	65	Rpleas_acq	CS_A	ZHHZ	YFFY	DXXD	JQQJ	CPPC	LWWL	genießen	gütig	küssen	träumen	sonnig	vertrauen	gemein	gierig	krank	töten	sterben	versagen	1	acq_USunple_CSunple2_RW	acq4567_RW	4	28	400	1	300	300	398	46	0	1	1	blank2r.bmp	0	1	+	0	1	blank2r.bmp	492	1	JQQJ	492	1	blank2r.bmp	572	2	sterben	866	1	!	1239	1	!	1292	0	0	0	0	0	0	0	0	0	0	0	0	0	0	0	0	0	0	0	0	0	0	0	0	0	0	0	0	0	0
071719	15:19:58	15:26:16	377351	5.0.10.0	5_exp_RW	65	Rpleas_acq	CS_A	ZHHZ	YFFY	DXXD	JQQJ	CPPC	LWWL	genießen	gütig	küssen	träumen	sonnig	vertrauen	gemein	gierig	krank	töten	sterben	versagen	1	acq_USunple_CSunple1_RW	acq4567_RW	4	29	400	0	300	300	487	46	0	1	1	blank2r.bmp	0	1	+	0	1	blank2r.bmp	492	1	DXXD	492	1	blank2r.bmp	572	1	gemein	866	1	!	1239	1	!	-1	0	0	0	0	0	0	0	0	0	0	0	0	0	0	0	0	0	0	0	0	0	0	0	0	0	0	0	0	0	0
071719	15:19:58	15:26:18	379537	5.0.10.0	5_exp_RW	65	Rpleas_acq	CS_A	ZHHZ	YFFY	DXXD	JQQJ	CPPC	LWWL	genießen	gütig	küssen	träumen	sonnig	vertrauen	gemein	gierig	krank	töten	sterben	versagen	1	acq_USpleas_CSpleas2_RW	acq4567_RW	4	30	400	1	300	300	381	46	0	0	1	blank2r.bmp	0	1	+	0	1	blank2r.bmp	492	1	YFFY	492	1	blank2r.bmp	572	3	vertrauen	866	1	!	1239	1	!	1279	0	0	0	0	0	0	0	0	0	0	0	0	0	0	0	0	0	0	0	0	0	0	0	0	0	0	0	0	0	0
071719	15:19:58	15:26:20	381763	5.0.10.0	5_exp_RW	65	Rpleas_acq	CS_A	ZHHZ	YFFY	DXXD	JQQJ	CPPC	LWWL	genießen	gütig	küssen	träumen	sonnig	vertrauen	gemein	gierig	krank	töten	sterben	versagen	1	acq_USpleas_CSpleas2_RW	acq4567_RW	4	31	400	1	300	300	417	50	0	1	1	blank2r.bmp	0	1	+	0	1	blank2r.bmp	492	1	YFFY	492	1	blank2r.bmp	572	1	träumen	866	1	!	1239	1	!	1319	0	0	0	0	0	0	0	0	0	0	0	0	0	0	0	0	0	0	0	0	0	0	0	0	0	0	0	0	0	0
071719	15:19:58	15:26:23	384135	5.0.10.0	5_exp_RW	65	Rpleas_acq	CS_A	ZHHZ	YFFY	DXXD	JQQJ	CPPC	LWWL	genießen	gütig	küssen	träumen	sonnig	vertrauen	gemein	gierig	krank	töten	sterben	versagen	1	acq_USpleas_CSpleas1_RW	acq4567_RW	4	32	400	0	300	300	606	50	0	1	1	blank2r.bmp	0	1	+	0	1	blank2r.bmp	492	1	ZHHZ	492	1	blank2r.bmp	572	1	genießen	866	1	!	1239	1	!	-1	0	0	0	0	0	0	0	0	0	0	0	0	0	0	0	0	0	0	0	0	0	0	0	0	0	0	0	0	0	0
071719	15:19:58	15:26:25	386388	5.0.10.0	5_exp_RW	65	Rpleas_acq	CS_A	ZHHZ	YFFY	DXXD	JQQJ	CPPC	LWWL	genießen	gütig	küssen	träumen	sonnig	vertrauen	gemein	gierig	krank	töten	sterben	versagen	1	acq_USpleas_CSpleas1_RW	acq4567_RW	4	33	400	1	300	300	446	50	0	1	1	blank2r.bmp	0	1	+	0	1	blank2r.bmp	492	1	ZHHZ	492	1	blank2r.bmp	572	1	genießen	866	1	!	1239	1	!	1346	0	0	0	0	0	0	0	0	0	0	0	0	0	0	0	0	0	0	0	0	0	0	0	0	0	0	0	0	0	0
071719	15:19:58	15:26:27	388640	5.0.10.0	5_exp_RW	65	Rpleas_acq	CS_A	ZHHZ	YFFY	DXXD	JQQJ	CPPC	LWWL	genießen	gütig	küssen	träumen	sonnig	vertrauen	gemein	gierig	krank	töten	sterben	versagen	1	acq_USunple_CSunple1_RW	acq4567_RW	4	34	400	1	300	300	458	50	0	0	1	blank2r.bmp	0	1	+	0	1	blank2r.bmp	492	1	DXXD	492	1	blank2r.bmp	572	3	krank	866	1	!	1239	1	!	1359	0	0	0	0	0	0	0	0	0	0	0	0	0	0	0	0	0	0	0	0	0	0	0	0	0	0	0	0	0	0
071719	15:19:58	15:26:29	391012	5.0.10.0	5_exp_RW	65	Rpleas_acq	CS_A	ZHHZ	YFFY	DXXD	JQQJ	CPPC	LWWL	genießen	gütig	küssen	träumen	sonnig	vertrauen	gemein	gierig	krank	töten	sterben	versagen	1	acq_USunple_CSunple2_RW	acq4567_RW	4	35	400	0	300	300	600	46	0	1	1	blank2r.bmp	0	1	+	0	1	blank2r.bmp	492	1	JQQJ	492	1	blank2r.bmp	572	3	versagen	866	1	!	1239	1	!	-1	0	0	0	0	0	0	0	0	0	0	0	0	0	0	0	0	0	0	0	0	0	0	0	0	0	0	0	0	0	0
071719	15:19:58	15:26:32	393118	5.0.10.0	5_exp_RW	65	Rpleas_acq	CS_A	ZHHZ	YFFY	DXXD	JQQJ	CPPC	LWWL	genießen	gütig	küssen	träumen	sonnig	vertrauen	gemein	gierig	krank	töten	sterben	versagen	1	acq_USpleas_CSpleas2_RW	acq4567_RW	4	36	400	0	300	300	321	50	0	1	1	blank2r.bmp	0	1	+	0	1	blank2r.bmp	492	1	YFFY	492	1	blank2r.bmp	572	1	träumen	866	1	!	-1	1	!	-1	0	0	0	0	0	0	0	0	0	0	0	0	0	0	0	0	0	0	0	0	0	0	0	0	0	0	0	0	0	0
071719	15:19:58	15:26:34	395437	5.0.10.0	5_exp_RW	65	Rpleas_acq	CS_A	ZHHZ	YFFY	DXXD	JQQJ	CPPC	LWWL	genießen	gütig	küssen	träumen	sonnig	vertrauen	gemein	gierig	krank	töten	sterben	versagen	1	acq_USunple_CSunple1_RW	acq4567_RW	4	37	400	0	300	300	544	46	0	1	1	blank2r.bmp	0	1	+	0	1	blank2r.bmp	492	1	DXXD	492	1	blank2r.bmp	572	2	gierig	866	1	!	1239	1	!	-1	0	0	0	0	0	0	0	0	0	0	0	0	0	0	0	0	0	0	0	0	0	0	0	0	0	0	0	0	0	0
071719	15:19:58	15:26:36	397636	5.0.10.0	5_exp_RW	65	Rpleas_acq	CS_A	ZHHZ	YFFY	DXXD	JQQJ	CPPC	LWWL	genießen	gütig	küssen	träumen	sonnig	vertrauen	gemein	gierig	krank	töten	sterben	versagen	1	acq_USpleas_CSpleas1_RW	acq4567_RW	4	38	400	1	300	300	382	50	0	1	1	blank2r.bmp	0	1	+	0	1	blank2r.bmp	492	1	ZHHZ	492	1	blank2r.bmp	572	2	gütig	866	1	!	1239	1	!	1279	0	0	0	0	0	0	0	0	0	0	0	0	0	0	0	0	0	0	0	0	0	0	0	0	0	0	0	0	0	0
071719	15:19:58	15:26:38	399729	5.0.10.0	5_exp_RW	65	Rpleas_acq	CS_A	ZHHZ	YFFY	DXXD	JQQJ	CPPC	LWWL	genießen	gütig	küssen	träumen	sonnig	vertrauen	gemein	gierig	krank	töten	sterben	versagen	1	acq_USunple_CSunple2_RW	acq4567_RW	4	39	400	0	300	300	322	50	0	0	1	blank2r.bmp	0	1	+	0	1	blank2r.bmp	492	1	JQQJ	492	1	blank2r.bmp	572	2	sterben	866	1	!	-1	1	!	-1	0	0	0	0	0	0	0	0	0	0	0	0	0	0	0	0	0	0	0	0	0	0	0	0	0	0	0	0	0	0
071719	15:19:58	15:26:40	401968	5.0.10.0	5_exp_RW	65	Rpleas_acq	CS_A	ZHHZ	YFFY	DXXD	JQQJ	CPPC	LWWL	genießen	gütig	küssen	träumen	sonnig	vertrauen	gemein	gierig	krank	töten	sterben	versagen	1	acq_USpleas_CSpleas2_RW	acq4567_RW	4	40	400	1	300	300	430	46	0	0	1	blank2r.bmp	0	1	+	0	1	blank2r.bmp	492	1	YFFY	492	1	blank2r.bmp	572	3	vertrauen	866	1	!	1239	1	!	1332	0	0	0	0	0	0	0	0	0	0	0	0	0	0	0	0	0	0	0	0	0	0	0	0	0	0	0	0	0	0
071719	15:19:58	15:26:45	406753	5.0.10.0	5_exp_RW	65	Rpleas_acq	CS_A	ZHHZ	YFFY	DXXD	JQQJ	CPPC	LWWL	genießen	gütig	küssen	träumen	sonnig	vertrauen	gemein	gierig	krank	töten	sterben	versagen	1	acq_USpleas_CSpleas2_RW	acq4567_RW	4	41	400	0	300	300	3011	50	0	1	1	blank2r.bmp	0	1	+	0	1	blank2r.bmp	492	1	YFFY	492	1	blank2r.bmp	572	2	sonnig	866	1	!	1239	1	!	-1	0	0	0	0	0	0	0	0	0	0	0	0	0	0	0	0	0	0	0	0	0	0	0	0	0	0	0	0	0	0
071719	15:19:58	15:26:47	409005	5.0.10.0	5_exp_RW	65	Rpleas_acq	CS_A	ZHHZ	YFFY	DXXD	JQQJ	CPPC	LWWL	genießen	gütig	küssen	träumen	sonnig	vertrauen	gemein	gierig	krank	töten	sterben	versagen	1	acq_USpleas_CSpleas1_RW	acq4567_RW	4	42	400	1	300	300	440	50	0	1	1	blank2r.bmp	0	1	+	0	1	blank2r.bmp	492	1	ZHHZ	492	1	blank2r.bmp	572	3	küssen	866	1	!	1239	1	!	1346	0	0	0	0	0	0	0	0	0	0	0	0	0	0	0	0	0	0	0	0	0	0	0	0	0	0	0	0	0	0
071719	15:19:58	15:26:50	411271	5.0.10.0	5_exp_RW	65	Rpleas_acq	CS_A	ZHHZ	YFFY	DXXD	JQQJ	CPPC	LWWL	genießen	gütig	küssen	träumen	sonnig	vertrauen	gemein	gierig	krank	töten	sterben	versagen	1	acq_USunple_CSunple2_RW	acq4567_RW	4	43	400	1	300	300	463	46	0	1	1	blank2r.bmp	0	1	+	0	1	blank2r.bmp	492	1	JQQJ	492	1	blank2r.bmp	572	1	töten	866	1	!	1239	1	!	1359	0	0	0	0	0	0	0	0	0	0	0	0	0	0	0	0	0	0	0	0	0	0	0	0	0	0	0	0	0	0
071719	15:19:58	15:26:52	413523	5.0.10.0	5_exp_RW	65	Rpleas_acq	CS_A	ZHHZ	YFFY	DXXD	JQQJ	CPPC	LWWL	genießen	gütig	küssen	träumen	sonnig	vertrauen	gemein	gierig	krank	töten	sterben	versagen	1	acq_USpleas_CSpleas2_RW	acq4567_RW	4	44	400	0	300	300	479	50	0	1	1	blank2r.bmp	0	1	+	0	1	blank2r.bmp	492	1	YFFY	492	1	blank2r.bmp	572	3	vertrauen	866	1	!	1239	1	!	-1	0	0	0	0	0	0	0	0	0	0	0	0	0	0	0	0	0	0	0	0	0	0	0	0	0	0	0	0	0	0
071719	15:19:58	15:26:54	415802	5.0.10.0	5_exp_RW	65	Rpleas_acq	CS_A	ZHHZ	YFFY	DXXD	JQQJ	CPPC	LWWL	genießen	gütig	küssen	träumen	sonnig	vertrauen	gemein	gierig	krank	töten	sterben	versagen	1	acq_USunple_CSunple2_RW	acq4567_RW	4	45	400	0	300	300	499	46	0	1	1	blank2r.bmp	0	1	+	0	1	blank2r.bmp	492	1	JQQJ	492	1	blank2r.bmp	572	1	töten	866	1	!	1239	1	!	-1	0	0	0	0	0	0	0	0	0	0	0	0	0	0	0	0	0	0	0	0	0	0	0	0	0	0	0	0	0	0
071719	15:19:58	15:26:57	418068	5.0.10.0	5_exp_RW	65	Rpleas_acq	CS_A	ZHHZ	YFFY	DXXD	JQQJ	CPPC	LWWL	genießen	gütig	küssen	träumen	sonnig	vertrauen	gemein	gierig	krank	töten	sterben	versagen	1	acq_USpleas_CSpleas1_RW	acq4567_RW	4	46	400	0	300	300	488	50	0	1	1	blank2r.bmp	0	1	+	0	1	blank2r.bmp	492	1	ZHHZ	492	1	blank2r.bmp	572	3	küssen	866	1	!	1239	1	!	-1	0	0	0	0	0	0	0	0	0	0	0	0	0	0	0	0	0	0	0	0	0	0	0	0	0	0	0	0	0	0
071719	15:19:58	15:26:59	420227	5.0.10.0	5_exp_RW	65	Rpleas_acq	CS_A	ZHHZ	YFFY	DXXD	JQQJ	CPPC	LWWL	genießen	gütig	küssen	träumen	sonnig	vertrauen	gemein	gierig	krank	töten	sterben	versagen	1	acq_USpleas_CSpleas1_RW	acq4567_RW	4	47	400	1	300	300	356	50	0	1	1	blank2r.bmp	0	1	+	0	1	blank2r.bmp	492	1	ZHHZ	492	1	blank2r.bmp	572	2	gütig	866	1	!	1239	1	!	1252	0	0	0	0	0	0	0	0	0	0	0	0	0	0	0	0	0	0	0	0	0	0	0	0	0	0	0	0	0	0
071719	15:19:58	15:27:01	422520	5.0.10.0	5_exp_RW	65	Rpleas_acq	CS_A	ZHHZ	YFFY	DXXD	JQQJ	CPPC	LWWL	genießen	gütig	küssen	träumen	sonnig	vertrauen	gemein	gierig	krank	töten	sterben	versagen	1	acq_USunple_CSunple2_RW	acq4567_RW	4	48	400	0	300	300	522	46	0	1	1	blank2r.bmp	0	1	+	0	1	blank2r.bmp	492	1	JQQJ	492	1	blank2r.bmp	572	3	versagen	866	1	!	1239	1	!	-1	0	0	0	0	0	0	0	0	0	0	0	0	0	0	0	0	0	0	0	0	0	0	0	0	0	0	0	0	0	0
071719	15:19:58	15:27:03	424785	5.0.10.0	5_exp_RW	65	Rpleas_acq	CS_A	ZHHZ	YFFY	DXXD	JQQJ	CPPC	LWWL	genießen	gütig	küssen	träumen	sonnig	vertrauen	gemein	gierig	krank	töten	sterben	versagen	1	acq_USunple_CSunple2_RW	acq4567_RW	4	49	400	1	300	300	462	50	0	0	1	blank2r.bmp	0	1	+	0	1	blank2r.bmp	492	1	JQQJ	492	1	blank2r.bmp	572	2	sterben	866	1	!	1239	1	!	1359	0	0	0	0	0	0	0	0	0	0	0	0	0	0	0	0	0	0	0	0	0	0	0	0	0	0	0	0	0	0
071719	15:19:58	15:27:07	428717	5.0.10.0	5_exp_RW	65	Rpleas_acq	CS_A	ZHHZ	YFFY	DXXD	JQQJ	CPPC	LWWL	genießen	gütig	küssen	träumen	sonnig	vertrauen	gemein	gierig	krank	töten	sterben	versagen	1	acq_USunple_CSunple1_RW	acq4567_RW	4	50	400	0	300	300	2162	46	0	1	1	blank2r.bmp	0	1	+	0	1	blank2r.bmp	492	1	DXXD	492	1	blank2r.bmp	572	1	gemein	866	1	!	1239	1	!	-1	0	0	0	0	0	0	0	0	0	0	0	0	0	0	0	0	0	0	0	0	0	0	0	0	0	0	0	0	0	0
071719	15:19:58	15:27:09	431076	5.0.10.0	5_exp_RW	65	Rpleas_acq	CS_A	ZHHZ	YFFY	DXXD	JQQJ	CPPC	LWWL	genießen	gütig	küssen	träumen	sonnig	vertrauen	gemein	gierig	krank	töten	sterben	versagen	1	acq_USunple_CSunple2_RW	acq4567_RW	4	51	400	0	300	300	584	46	0	1	1	blank2r.bmp	0	1	+	0	1	blank2r.bmp	492	1	JQQJ	492	1	blank2r.bmp	572	1	töten	866	1	!	1239	1	!	-1	0	0	0	0	0	0	0	0	0	0	0	0	0	0	0	0	0	0	0	0	0	0	0	0	0	0	0	0	0	0
071719	15:19:58	15:27:12	433342	5.0.10.0	5_exp_RW	65	Rpleas_acq	CS_A	ZHHZ	YFFY	DXXD	JQQJ	CPPC	LWWL	genießen	gütig	küssen	träumen	sonnig	vertrauen	gemein	gierig	krank	töten	sterben	versagen	1	acq_USpleas_CSpleas1_RW	acq4567_RW	4	52	400	1	300	300	463	50	0	1	1	blank2r.bmp	0	1	+	0	1	blank2r.bmp	492	1	ZHHZ	492	1	blank2r.bmp	572	1	genießen	866	1	!	1239	1	!	1359	0	0	0	0	0	0	0	0	0	0	0	0	0	0	0	0	0	0	0	0	0	0	0	0	0	0	0	0	0	0
071719	15:19:58	15:27:14	435541	5.0.10.0	5_exp_RW	65	Rpleas_acq	CS_A	ZHHZ	YFFY	DXXD	JQQJ	CPPC	LWWL	genießen	gütig	küssen	träumen	sonnig	vertrauen	gemein	gierig	krank	töten	sterben	versagen	1	acq_USunple_CSunple1_RW	acq4567_RW	4	53	400	1	300	300	392	46	0	1	1	blank2r.bmp	0	1	+	0	1	blank2r.bmp	492	1	DXXD	492	1	blank2r.bmp	572	1	gemein	866	1	!	1239	1	!	1292	0	0	0	0	0	0	0	0	0	0	0	0	0	0	0	0	0	0	0	0	0	0	0	0	0	0	0	0	0	0
071719	15:19:58	15:27:16	437807	5.0.10.0	5_exp_RW	65	Rpleas_acq	CS_A	ZHHZ	YFFY	DXXD	JQQJ	CPPC	LWWL	genießen	gütig	küssen	träumen	sonnig	vertrauen	gemein	gierig	krank	töten	sterben	versagen	1	acq_USunple_CSunple1_RW	acq4567_RW	4	54	400	0	300	300	479	46	0	1	1	blank2r.bmp	0	1	+	0	1	blank2r.bmp	492	1	DXXD	492	1	blank2r.bmp	572	3	krank	866	1	!	1239	1	!	-1	0	0	0	0	0	0	0	0	0	0	0	0	0	0	0	0	0	0	0	0	0	0	0	0	0	0	0	0	0	0
071719	15:19:58	15:27:18	440046	5.0.10.0	5_exp_RW	65	Rpleas_acq	CS_A	ZHHZ	YFFY	DXXD	JQQJ	CPPC	LWWL	genießen	gütig	küssen	träumen	sonnig	vertrauen	gemein	gierig	krank	töten	sterben	versagen	1	acq_USpleas_CSpleas2_RW	acq4567_RW	4	55	400	1	300	300	412	50	0	1	1	blank2r.bmp	0	1	+	0	1	blank2r.bmp	492	1	YFFY	492	1	blank2r.bmp	572	1	träumen	866	1	!	1239	1	!	1319	0	0	0	0	0	0	0	0	0	0	0	0	0	0	0	0	0	0	0	0	0	0	0	0	0	0	0	0	0	0
071719	15:19:58	15:27:21	442258	5.0.10.0	5_exp_RW	65	Rpleas_acq	CS_A	ZHHZ	YFFY	DXXD	JQQJ	CPPC	LWWL	genießen	gütig	küssen	träumen	sonnig	vertrauen	gemein	gierig	krank	töten	sterben	versagen	1	acq_USunple_CSunple1_RW	acq4567_RW	4	56	400	1	300	300	418	46	0	1	1	blank2r.bmp	0	1	+	0	1	blank2r.bmp	492	1	DXXD	492	1	blank2r.bmp	572	2	gierig	866	1	!	1239	1	!	1319	0	0	0	0	0	0	0	0	0	0	0	0	0	0	0	0	0	0	0	0	0	0	0	0	0	0	0	0	0	0
071719	15:19:58	15:27:25	446363	5.0.10.0	5_exp_RW	65	Rpleas_acq	CS_A	ZHHZ	YFFY	DXXD	JQQJ	CPPC	LWWL	genießen	gütig	küssen	träumen	sonnig	vertrauen	gemein	gierig	krank	töten	sterben	versagen	1	acq_USpleas_CSpleas1_RW	acq4567_RW	4	57	400	0	300	300	2336	50	0	1	1	blank2r.bmp	0	1	+	0	1	blank2r.bmp	492	1	ZHHZ	492	1	blank2r.bmp	572	2	gütig	866	1	!	1239	1	!	-1	0	0	0	0	0	0	0	0	0	0	0	0	0	0	0	0	0	0	0	0	0	0	0	0	0	0	0	0	0	0
071719	15:19:58	15:27:27	448722	5.0.10.0	5_exp_RW	65	Rpleas_acq	CS_A	ZHHZ	YFFY	DXXD	JQQJ	CPPC	LWWL	genießen	gütig	küssen	träumen	sonnig	vertrauen	gemein	gierig	krank	töten	sterben	versagen	1	acq_USunple_CSunple1_RW	acq4567_RW	4	58	400	0	300	300	582	46	0	1	1	blank2r.bmp	0	1	+	0	1	blank2r.bmp	492	1	DXXD	492	1	blank2r.bmp	572	3	krank	866	1	!	1239	1	!	-1	0	0	0	0	0	0	0	0	0	0	0	0	0	0	0	0	0	0	0	0	0	0	0	0	0	0	0	0	0	0
071719	15:19:58	15:27:29	450921	5.0.10.0	5_exp_RW	65	Rpleas_acq	CS_A	ZHHZ	YFFY	DXXD	JQQJ	CPPC	LWWL	genießen	gütig	küssen	träumen	sonnig	vertrauen	gemein	gierig	krank	töten	sterben	versagen	1	acq_USpleas_CSpleas2_RW	acq4567_RW	4	59	400	1	300	300	395	50	0	1	1	blank2r.bmp	0	1	+	0	1	blank2r.bmp	492	1	YFFY	492	1	blank2r.bmp	572	2	sonnig	866	1	!	1239	1	!	1292	0	0	0	0	0	0	0	0	0	0	0	0	0	0	0	0	0	0	0	0	0	0	0	0	0	0	0	0	0	0
071719	15:19:58	15:27:32	453200	5.0.10.0	5_exp_RW	65	Rpleas_acq	CS_A	ZHHZ	YFFY	DXXD	JQQJ	CPPC	LWWL	genießen	gütig	küssen	träumen	sonnig	vertrauen	gemein	gierig	krank	töten	sterben	versagen	1	acq_USpleas_CSpleas2_RW	acq4567_RW	4	60	400	0	300	300	495	46	0	0	1	blank2r.bmp	0	1	+	0	1	blank2r.bmp	492	1	YFFY	492	1	blank2r.bmp	572	1	träumen	866	1	!	1239	1	!	-1	0	0	0	0	0	0	0	0	0	0	0	0	0	0	0	0	0	0	0	0	0	0	0	0	0	0	0	0	0	0
071719	15:19:58	15:27:34	455439	5.0.10.0	5_exp_RW	65	Rpleas_acq	CS_A	ZHHZ	YFFY	DXXD	JQQJ	CPPC	LWWL	genießen	gütig	küssen	träumen	sonnig	vertrauen	gemein	gierig	krank	töten	sterben	versagen	1	acq_USpleas_CSpleas1_RW	acq4567_RW	4	61	400	1	300	300	438	50	0	1	1	blank2r.bmp	0	1	+	0	1	blank2r.bmp	492	1	ZHHZ	492	1	blank2r.bmp	572	1	genießen	866	1	!	1239	1	!	1332	0	0	0	0	0	0	0	0	0	0	0	0	0	0	0	0	0	0	0	0	0	0	0	0	0	0	0	0	0	0
071719	15:19:58	15:27:36	457692	5.0.10.0	5_exp_RW	65	Rpleas_acq	CS_A	ZHHZ	YFFY	DXXD	JQQJ	CPPC	LWWL	genießen	gütig	küssen	träumen	sonnig	vertrauen	gemein	gierig	krank	töten	sterben	versagen	1	acq_USunple_CSunple2_RW	acq4567_RW	4	62	400	0	300	300	479	46	0	1	1	blank2r.bmp	0	1	+	0	1	blank2r.bmp	492	1	JQQJ	492	1	blank2r.bmp	572	3	versagen	866	1	!	1239	1	!	-1	0	0	0	0	0	0	0	0	0	0	0	0	0	0	0	0	0	0	0	0	0	0	0	0	0	0	0	0	0	0
071719	15:19:58	15:27:38	459864	5.0.10.0	5_exp_RW	65	Rpleas_acq	CS_A	ZHHZ	YFFY	DXXD	JQQJ	CPPC	LWWL	genießen	gütig	küssen	träumen	sonnig	vertrauen	gemein	gierig	krank	töten	sterben	versagen	1	acq_USunple_CSunple2_RW	acq4567_RW	4	63	400	1	300	300	366	46	0	1	1	blank2r.bmp	0	1	+	0	1	blank2r.bmp	492	1	JQQJ	492	1	blank2r.bmp	572	2	sterben	866	1	!	1239	1	!	1266	0	0	0	0	0	0	0	0	0	0	0	0	0	0	0	0	0	0	0	0	0	0	0	0	0	0	0	0	0	0
071719	15:19:58	15:27:41	462077	5.0.10.0	5_exp_RW	65	Rpleas_acq	CS_A	ZHHZ	YFFY	DXXD	JQQJ	CPPC	LWWL	genießen	gütig	küssen	träumen	sonnig	vertrauen	gemein	gierig	krank	töten	sterben	versagen	1	acq_USpleas_CSpleas2_RW	acq4567_RW	4	64	400	1	300	300	419	50	0	1	1	blank2r.bmp	0	1	+	0	1	blank2r.bmp	492	1	YFFY	492	1	blank2r.bmp	572	3	vertrauen	866	1	!	1239	1	!	1319	0	0	0	0	0	0	0	0	0	0	0	0	0	0	0	0	0	0	0	0	0	0	0	0	0	0	0	0	0	0
071719	15:19:58	15:27:43	464422	5.0.10.0	5_exp_RW	65	Rpleas_acq	CS_A	ZHHZ	YFFY	DXXD	JQQJ	CPPC	LWWL	genießen	gütig	küssen	träumen	sonnig	vertrauen	gemein	gierig	krank	töten	sterben	versagen	1	acq_USpleas_CSpleas2_RW	acq4567_RW	4	65	400	0	300	300	563	50	0	1	1	blank2r.bmp	0	1	+	0	1	blank2r.bmp	492	1	YFFY	492	1	blank2r.bmp	572	2	sonnig	866	1	!	1239	1	!	-1	0	0	0	0	0	0	0	0	0	0	0	0	0	0	0	0	0	0	0	0	0	0	0	0	0	0	0	0	0	0
071719	15:19:58	15:27:45	466595	5.0.10.0	5_exp_RW	65	Rpleas_acq	CS_A	ZHHZ	YFFY	DXXD	JQQJ	CPPC	LWWL	genießen	gütig	küssen	träumen	sonnig	vertrauen	gemein	gierig	krank	töten	sterben	versagen	1	acq_USunple_CSunple2_RW	acq4567_RW	4	66	400	1	300	300	367	46	0	1	1	blank2r.bmp	0	1	+	0	1	blank2r.bmp	492	1	JQQJ	492	1	blank2r.bmp	572	2	sterben	866	1	!	1239	1	!	1266	0	0	0	0	0	0	0	0	0	0	0	0	0	0	0	0	0	0	0	0	0	0	0	0	0	0	0	0	0	0
071719	15:19:58	15:27:47	468741	5.0.10.0	5_exp_RW	65	Rpleas_acq	CS_A	ZHHZ	YFFY	DXXD	JQQJ	CPPC	LWWL	genießen	gütig	küssen	träumen	sonnig	vertrauen	gemein	gierig	krank	töten	sterben	versagen	1	acq_USpleas_CSpleas1_RW	acq4567_RW	4	67	400	1	300	300	346	50	0	1	1	blank2r.bmp	0	1	+	0	1	blank2r.bmp	492	1	ZHHZ	492	1	blank2r.bmp	572	3	küssen	866	1	!	1239	1	!	1252	0	0	0	0	0	0	0	0	0	0	0	0	0	0	0	0	0	0	0	0	0	0	0	0	0	0	0	0	0	0
071719	15:19:58	15:27:49	470953	5.0.10.0	5_exp_RW	65	Rpleas_acq	CS_A	ZHHZ	YFFY	DXXD	JQQJ	CPPC	LWWL	genießen	gütig	küssen	träumen	sonnig	vertrauen	gemein	gierig	krank	töten	sterben	versagen	1	acq_USpleas_CSpleas1_RW	acq4567_RW	4	68	400	1	300	300	421	50	0	1	1	blank2r.bmp	0	1	+	0	1	blank2r.bmp	492	1	ZHHZ	492	1	blank2r.bmp	572	2	gütig	866	1	!	1239	1	!	1319	0	0	0	0	0	0	0	0	0	0	0	0	0	0	0	0	0	0	0	0	0	0	0	0	0	0	0	0	0	0
071719	15:19:58	15:27:52	473165	5.0.10.0	5_exp_RW	65	Rpleas_acq	CS_A	ZHHZ	YFFY	DXXD	JQQJ	CPPC	LWWL	genießen	gütig	küssen	träumen	sonnig	vertrauen	gemein	gierig	krank	töten	sterben	versagen	1	acq_USpleas_CSpleas2_RW	acq4567_RW	4	69	400	1	300	300	400	50	0	1	1	blank2r.bmp	0	1	+	0	1	blank2r.bmp	492	1	YFFY	492	1	blank2r.bmp	572	1	träumen	866	1	!	1239	1	!	1306	0	0	0	0	0	0	0	0	0	0	0	0	0	0	0	0	0	0	0	0	0	0	0	0	0	0	0	0	0	0
071719	15:19:58	15:27:54	475391	5.0.10.0	5_exp_RW	65	Rpleas_acq	CS_A	ZHHZ	YFFY	DXXD	JQQJ	CPPC	LWWL	genießen	gütig	küssen	träumen	sonnig	vertrauen	gemein	gierig	krank	töten	sterben	versagen	1	acq_USunple_CSunple1_RW	acq4567_RW	4	70	400	1	300	300	433	46	0	1	1	blank2r.bmp	0	1	+	0	1	blank2r.bmp	492	1	DXXD	492	1	blank2r.bmp	572	2	gierig	866	1	!	1239	1	!	1332	0	0	0	0	0	0	0	0	0	0	0	0	0	0	0	0	0	0	0	0	0	0	0	0	0	0	0	0	0	0
071719	15:19:58	15:27:57	478430	5.0.10.0	5_exp_RW	65	Rpleas_acq	CS_A	ZHHZ	YFFY	DXXD	JQQJ	CPPC	LWWL	genießen	gütig	küssen	träumen	sonnig	vertrauen	gemein	gierig	krank	töten	sterben	versagen	1	acq_USpleas_CSpleas2_RW	acq4567_RW	4	71	400	0	300	300	1266	46	0	0	1	blank2r.bmp	0	1	+	0	1	blank2r.bmp	492	1	YFFY	492	1	blank2r.bmp	572	3	vertrauen	866	1	!	1239	1	!	-1	0	0	0	0	0	0	0	0	0	0	0	0	0	0	0	0	0	0	0	0	0	0	0	0	0	0	0	0	0	0
071719	15:19:58	15:27:59	480749	5.0.10.0	5_exp_RW	65	Rpleas_acq	CS_A	ZHHZ	YFFY	DXXD	JQQJ	CPPC	LWWL	genießen	gütig	küssen	träumen	sonnig	vertrauen	gemein	gierig	krank	töten	sterben	versagen	1	acq_USunple_CSunple2_RW	acq4567_RW	4	72	400	0	300	300	537	50	0	0	1	blank2r.bmp	0	1	+	0	1	blank2r.bmp	492	1	JQQJ	492	1	blank2r.bmp	572	1	töten	866	1	!	1239	1	!	-1	0	0	0	0	0	0	0	0	0	0	0	0	0	0	0	0	0	0	0	0	0	0	0	0	0	0	0	0	0	0
071719	15:19:58	15:28:01	483068	5.0.10.0	5_exp_RW	65	Rpleas_acq	CS_A	ZHHZ	YFFY	DXXD	JQQJ	CPPC	LWWL	genießen	gütig	küssen	träumen	sonnig	vertrauen	gemein	gierig	krank	töten	sterben	versagen	1	acq_USpleas_CSpleas2_RW	acq4567_RW	4	73	400	0	300	300	535	50	0	1	1	blank2r.bmp	0	1	+	0	1	blank2r.bmp	492	1	YFFY	492	1	blank2r.bmp	572	2	sonnig	866	1	!	1239	1	!	-1	0	0	0	0	0	0	0	0	0	0	0	0	0	0	0	0	0	0	0	0	0	0	0	0	0	0	0	0	0	0
071719	15:19:58	15:28:04	485507	5.0.10.0	5_exp_RW	65	Rpleas_acq	CS_A	ZHHZ	YFFY	DXXD	JQQJ	CPPC	LWWL	genießen	gütig	küssen	träumen	sonnig	vertrauen	gemein	gierig	krank	töten	sterben	versagen	1	acq_USunple_CSunple1_RW	acq4567_RW	4	74	400	0	300	300	662	46	0	1	1	blank2r.bmp	0	1	+	0	1	blank2r.bmp	492	1	DXXD	492	1	blank2r.bmp	573	1	gemein	866	1	!	1239	1	!	-1	0	0	0	0	0	0	0	0	0	0	0	0	0	0	0	0	0	0	0	0	0	0	0	0	0	0	0	0	0	0
071719	15:19:58	15:28:06	487680	5.0.10.0	5_exp_RW	65	Rpleas_acq	CS_A	ZHHZ	YFFY	DXXD	JQQJ	CPPC	LWWL	genießen	gütig	küssen	träumen	sonnig	vertrauen	gemein	gierig	krank	töten	sterben	versagen	1	acq_USunple_CSunple1_RW	acq4567_RW	4	75	400	1	300	300	364	46	0	1	1	blank2r.bmp	0	1	+	0	1	blank2r.bmp	492	1	DXXD	492	1	blank2r.bmp	572	1	gemein	866	1	!	1239	1	!	1266	0	0	0	0	0	0	0	0	0	0	0	0	0	0	0	0	0	0	0	0	0	0	0	0	0	0	0	0	0	0
071719	15:19:58	15:28:08	489865	5.0.10.0	5_exp_RW	65	Rpleas_acq	CS_A	ZHHZ	YFFY	DXXD	JQQJ	CPPC	LWWL	genießen	gütig	küssen	träumen	sonnig	vertrauen	gemein	gierig	krank	töten	sterben	versagen	1	acq_USunple_CSunple2_RW	acq4567_RW	4	76	400	1	300	300	396	46	0	1	1	blank2r.bmp	0	1	+	0	1	blank2r.bmp	492	1	JQQJ	492	1	blank2r.bmp	572	3	versagen	866	1	!	1239	1	!	1292	0	0	0	0	0	0	0	0	0	0	0	0	0	0	0	0	0	0	0	0	0	0	0	0	0	0	0	0	0	0
071719	15:19:58	15:28:11	492091	5.0.10.0	5_exp_RW	65	Rpleas_acq	CS_A	ZHHZ	YFFY	DXXD	JQQJ	CPPC	LWWL	genießen	gütig	küssen	träumen	sonnig	vertrauen	gemein	gierig	krank	töten	sterben	versagen	1	acq_USpleas_CSpleas1_RW	acq4567_RW	4	77	400	1	300	300	425	50	0	1	1	blank2r.bmp	0	1	+	0	1	blank2r.bmp	492	1	ZHHZ	492	1	blank2r.bmp	572	1	genießen	866	1	!	1239	1	!	1332	0	0	0	0	0	0	0	0	0	0	0	0	0	0	0	0	0	0	0	0	0	0	0	0	0	0	0	0	0	0
071719	15:19:58	15:28:14	495076	5.0.10.0	5_exp_RW	65	Rpleas_acq	CS_A	ZHHZ	YFFY	DXXD	JQQJ	CPPC	LWWL	genießen	gütig	küssen	träumen	sonnig	vertrauen	gemein	gierig	krank	töten	sterben	versagen	1	acq_USunple_CSunple1_RW	acq4567_RW	4	78	400	0	300	300	1202	46	0	1	1	blank2r.bmp	0	1	+	0	1	blank2r.bmp	492	1	DXXD	492	1	blank2r.bmp	572	2	gierig	866	1	!	1239	1	!	-1	0	0	0	0	0	0	0	0	0	0	0	0	0	0	0	0	0	0	0	0	0	0	0	0	0	0	0	0	0	0
071719	15:19:58	15:28:16	497409	5.0.10.0	5_exp_RW	65	Rpleas_acq	CS_A	ZHHZ	YFFY	DXXD	JQQJ	CPPC	LWWL	genießen	gütig	küssen	träumen	sonnig	vertrauen	gemein	gierig	krank	töten	sterben	versagen	1	acq_USunple_CSunple1_RW	acq4567_RW	4	79	400	0	300	300	551	46	0	1	1	blank2r.bmp	0	1	+	0	1	blank2r.bmp	492	1	DXXD	492	1	blank2r.bmp	572	3	krank	866	1	!	1239	1	!	-1	0	0	0	0	0	0	0	0	0	0	0	0	0	0	0	0	0	0	0	0	0	0	0	0	0	0	0	0	0	0
071719	15:19:58	15:28:18	499595	5.0.10.0	5_exp_RW	65	Rpleas_acq	CS_A	ZHHZ	YFFY	DXXD	JQQJ	CPPC	LWWL	genießen	gütig	küssen	träumen	sonnig	vertrauen	gemein	gierig	krank	töten	sterben	versagen	1	acq_USpleas_CSpleas1_RW	acq4567_RW	4	80	400	1	300	300	376	50	0	1	1	blank2r.bmp	0	1	+	0	1	blank2r.bmp	492	1	ZHHZ	492	1	blank2r.bmp	572	3	küssen	866	1	!	1239	1	!	1279	0	0	0	0	0	0	0	0	0	0	0	0	0	0	0	0	0	0	0	0	0	0	0	0	0	0	0	0	0	0
071719	15:19:58	15:28:35	516148	5.0.10.0	5_exp_RW	65	Rpleas_acq	CS_A	ZHHZ	YFFY	DXXD	JQQJ	CPPC	LWWL	genießen	gütig	küssen	träumen	sonnig	vertrauen	gemein	gierig	krank	töten	sterben	versagen	1	acq_USpleas_CSpleas2_RW	acq4567_RW	5	1	400	0	300	300	479	50	0	1	1	blank2r.bmp	0	1	+	0	1	blank2r.bmp	492	1	YFFY	492	1	blank2r.bmp	572	2	sonnig	866	1	!	1239	1	!	-1	0	0	0	0	0	0	0	0	0	0	0	0	0	0	0	0	0	0	0	0	0	0	0	0	0	0	0	0	0	0
071719	15:19:58	15:28:37	518414	5.0.10.0	5_exp_RW	65	Rpleas_acq	CS_A	ZHHZ	YFFY	DXXD	JQQJ	CPPC	LWWL	genießen	gütig	küssen	träumen	sonnig	vertrauen	gemein	gierig	krank	töten	sterben	versagen	1	acq_USunple_CSunple1_RW	acq4567_RW	5	2	400	1	300	300	439	46	0	1	1	blank2r.bmp	0	1	+	0	1	blank2r.bmp	492	1	DXXD	492	1	blank2r.bmp	572	1	gemein	866	1	!	1239	1	!	1346	0	0	0	0	0	0	0	0	0	0	0	0	0	0	0	0	0	0	0	0	0	0	0	0	0	0	0	0	0	0
071719	15:19:58	15:28:39	520493	5.0.10.0	5_exp_RW	65	Rpleas_acq	CS_A	ZHHZ	YFFY	DXXD	JQQJ	CPPC	LWWL	genießen	gütig	küssen	träumen	sonnig	vertrauen	gemein	gierig	krank	töten	sterben	versagen	1	acq_USunple_CSunple2_RW	acq4567_RW	5	3	400	0	300	300	310	50	0	0	1	blank2r.bmp	0	1	+	0	1	blank2r.bmp	492	1	JQQJ	492	1	blank2r.bmp	572	1	töten	866	1	!	-1	1	!	-1	0	0	0	0	0	0	0	0	0	0	0	0	0	0	0	0	0	0	0	0	0	0	0	0	0	0	0	0	0	0
071719	15:19:58	15:28:41	522758	5.0.10.0	5_exp_RW	65	Rpleas_acq	CS_A	ZHHZ	YFFY	DXXD	JQQJ	CPPC	LWWL	genießen	gütig	küssen	träumen	sonnig	vertrauen	gemein	gierig	krank	töten	sterben	versagen	1	acq_USpleas_CSpleas1_RW	acq4567_RW	5	4	400	0	300	300	479	50	0	1	1	blank2r.bmp	0	1	+	0	1	blank2r.bmp	492	1	ZHHZ	492	1	blank2r.bmp	572	2	gütig	866	1	!	1239	1	!	-1	0	0	0	0	0	0	0	0	0	0	0	0	0	0	0	0	0	0	0	0	0	0	0	0	0	0	0	0	0	0
071719	15:19:58	15:28:43	525024	5.0.10.0	5_exp_RW	65	Rpleas_acq	CS_A	ZHHZ	YFFY	DXXD	JQQJ	CPPC	LWWL	genießen	gütig	küssen	träumen	sonnig	vertrauen	gemein	gierig	krank	töten	sterben	versagen	1	acq_USunple_CSunple2_RW	acq4567_RW	5	5	400	0	300	300	479	46	0	1	1	blank2r.bmp	0	1	+	0	1	blank2r.bmp	492	1	JQQJ	492	1	blank2r.bmp	572	3	versagen	866	1	!	1239	1	!	-1	0	0	0	0	0	0	0	0	0	0	0	0	0	0	0	0	0	0	0	0	0	0	0	0	0	0	0	0	0	0
071719	15:19:58	15:28:46	527863	5.0.10.0	5_exp_RW	65	Rpleas_acq	CS_A	ZHHZ	YFFY	DXXD	JQQJ	CPPC	LWWL	genießen	gütig	küssen	träumen	sonnig	vertrauen	gemein	gierig	krank	töten	sterben	versagen	1	acq_USunple_CSunple1_RW	acq4567_RW	5	6	400	0	300	300	1040	46	0	1	1	blank2r.bmp	0	1	+	0	1	blank2r.bmp	492	1	DXXD	492	1	blank2r.bmp	572	3	krank	866	1	!	1239	1	!	-1	0	0	0	0	0	0	0	0	0	0	0	0	0	0	0	0	0	0	0	0	0	0	0	0	0	0	0	0	0	0
071719	15:19:58	15:28:48	530049	5.0.10.0	5_exp_RW	65	Rpleas_acq	CS_A	ZHHZ	YFFY	DXXD	JQQJ	CPPC	LWWL	genießen	gütig	küssen	träumen	sonnig	vertrauen	gemein	gierig	krank	töten	sterben	versagen	1	acq_USpleas_CSpleas1_RW	acq4567_RW	5	7	400	1	300	300	368	50	0	1	1	blank2r.bmp	0	1	+	0	1	blank2r.bmp	492	1	ZHHZ	492	1	blank2r.bmp	572	3	küssen	866	1	!	1239	1	!	1266	0	0	0	0	0	0	0	0	0	0	0	0	0	0	0	0	0	0	0	0	0	0	0	0	0	0	0	0	0	0
071719	15:19:58	15:28:51	532261	5.0.10.0	5_exp_RW	65	Rpleas_acq	CS_A	ZHHZ	YFFY	DXXD	JQQJ	CPPC	LWWL	genießen	gütig	küssen	träumen	sonnig	vertrauen	gemein	gierig	krank	töten	sterben	versagen	1	acq_USpleas_CSpleas2_RW	acq4567_RW	5	8	400	1	300	300	415	50	0	1	1	blank2r.bmp	0	1	+	0	1	blank2r.bmp	492	1	YFFY	492	1	blank2r.bmp	572	1	träumen	866	1	!	1239	1	!	1319	0	0	0	0	0	0	0	0	0	0	0	0	0	0	0	0	0	0	0	0	0	0	0	0	0	0	0	0	0	0
071719	15:19:58	15:28:53	534554	5.0.10.0	5_exp_RW	65	Rpleas_acq	CS_A	ZHHZ	YFFY	DXXD	JQQJ	CPPC	LWWL	genießen	gütig	küssen	träumen	sonnig	vertrauen	gemein	gierig	krank	töten	sterben	versagen	1	acq_USunple_CSunple1_RW	acq4567_RW	5	9	400	0	300	300	507	46	0	1	1	blank2r.bmp	0	1	+	0	1	blank2r.bmp	492	1	DXXD	492	1	blank2r.bmp	572	2	gierig	866	1	!	1239	1	!	-1	0	0	0	0	0	0	0	0	0	0	0	0	0	0	0	0	0	0	0	0	0	0	0	0	0	0	0	0	0	0
071719	15:19:58	15:28:55	536806	5.0.10.0	5_exp_RW	65	Rpleas_acq	CS_A	ZHHZ	YFFY	DXXD	JQQJ	CPPC	LWWL	genießen	gütig	küssen	träumen	sonnig	vertrauen	gemein	gierig	krank	töten	sterben	versagen	1	acq_USunple_CSunple2_RW	acq4567_RW	5	10	400	1	300	300	439	46	0	1	1	blank2r.bmp	0	1	+	0	1	blank2r.bmp	492	1	JQQJ	492	1	blank2r.bmp	572	2	sterben	866	1	!	1239	1	!	1346	0	0	0	0	0	0	0	0	0	0	0	0	0	0	0	0	0	0	0	0	0	0	0	0	0	0	0	0	0	0
071719	15:19:58	15:28:57	539045	5.0.10.0	5_exp_RW	65	Rpleas_acq	CS_A	ZHHZ	YFFY	DXXD	JQQJ	CPPC	LWWL	genießen	gütig	küssen	träumen	sonnig	vertrauen	gemein	gierig	krank	töten	sterben	versagen	1	acq_USunple_CSunple1_RW	acq4567_RW	5	11	400	1	300	300	440	46	0	1	1	blank2r.bmp	0	1	+	0	1	blank2r.bmp	492	1	DXXD	492	1	blank2r.bmp	572	3	krank	866	1	!	1239	1	!	1346	0	0	0	0	0	0	0	0	0	0	0	0	0	0	0	0	0	0	0	0	0	0	0	0	0	0	0	0	0	0
071719	15:19:58	15:29:00	541391	5.0.10.0	5_exp_RW	65	Rpleas_acq	CS_A	ZHHZ	YFFY	DXXD	JQQJ	CPPC	LWWL	genießen	gütig	küssen	träumen	sonnig	vertrauen	gemein	gierig	krank	töten	sterben	versagen	1	acq_USpleas_CSpleas2_RW	acq4567_RW	5	12	400	0	300	300	563	50	0	1	1	blank2r.bmp	0	1	+	0	1	blank2r.bmp	492	1	YFFY	492	1	blank2r.bmp	572	3	vertrauen	866	1	!	1239	1	!	-1	0	0	0	0	0	0	0	0	0	0	0	0	0	0	0	0	0	0	0	0	0	0	0	0	0	0	0	0	0	0
071719	15:19:58	15:29:02	543590	5.0.10.0	5_exp_RW	65	Rpleas_acq	CS_A	ZHHZ	YFFY	DXXD	JQQJ	CPPC	LWWL	genießen	gütig	küssen	träumen	sonnig	vertrauen	gemein	gierig	krank	töten	sterben	versagen	1	acq_USpleas_CSpleas2_RW	acq4567_RW	5	13	400	1	300	300	393	50	0	1	1	blank2r.bmp	0	1	+	0	1	blank2r.bmp	492	1	YFFY	492	1	blank2r.bmp	572	1	träumen	866	1	!	1239	1	!	1292	0	0	0	0	0	0	0	0	0	0	0	0	0	0	0	0	0	0	0	0	0	0	0	0	0	0	0	0	0	0
071719	15:19:58	15:29:04	545842	5.0.10.0	5_exp_RW	65	Rpleas_acq	CS_A	ZHHZ	YFFY	DXXD	JQQJ	CPPC	LWWL	genießen	gütig	küssen	träumen	sonnig	vertrauen	gemein	gierig	krank	töten	sterben	versagen	1	acq_USunple_CSunple2_RW	acq4567_RW	5	14	400	1	300	300	459	46	0	1	1	blank2r.bmp	0	1	+	0	1	blank2r.bmp	492	1	JQQJ	492	1	blank2r.bmp	572	3	versagen	866	1	!	1239	1	!	1359	0	0	0	0	0	0	0	0	0	0	0	0	0	0	0	0	0	0	0	0	0	0	0	0	0	0	0	0	0	0
071719	15:19:58	15:29:07	548095	5.0.10.0	5_exp_RW	65	Rpleas_acq	CS_A	ZHHZ	YFFY	DXXD	JQQJ	CPPC	LWWL	genießen	gütig	küssen	träumen	sonnig	vertrauen	gemein	gierig	krank	töten	sterben	versagen	1	acq_USpleas_CSpleas1_RW	acq4567_RW	5	15	400	0	300	300	480	50	0	1	1	blank2r.bmp	0	1	+	0	1	blank2r.bmp	492	1	ZHHZ	492	1	blank2r.bmp	572	1	genießen	866	1	!	1239	1	!	-1	0	0	0	0	0	0	0	0	0	0	0	0	0	0	0	0	0	0	0	0	0	0	0	0	0	0	0	0	0	0
071719	15:19:58	15:29:09	550307	5.0.10.0	5_exp_RW	65	Rpleas_acq	CS_A	ZHHZ	YFFY	DXXD	JQQJ	CPPC	LWWL	genießen	gütig	küssen	träumen	sonnig	vertrauen	gemein	gierig	krank	töten	sterben	versagen	1	acq_USpleas_CSpleas1_RW	acq4567_RW	5	16	400	1	300	300	410	50	0	1	1	blank2r.bmp	0	1	+	0	1	blank2r.bmp	492	1	ZHHZ	492	1	blank2r.bmp	572	3	küssen	866	1	!	1239	1	!	1306	0	0	0	0	0	0	0	0	0	0	0	0	0	0	0	0	0	0	0	0	0	0	0	0	0	0	0	0	0	0
071719	15:19:58	15:29:11	552560	5.0.10.0	5_exp_RW	65	Rpleas_acq	CS_A	ZHHZ	YFFY	DXXD	JQQJ	CPPC	LWWL	genießen	gütig	küssen	träumen	sonnig	vertrauen	gemein	gierig	krank	töten	sterben	versagen	1	acq_USunple_CSunple2_RW	acq4567_RW	5	17	400	0	300	300	479	46	0	1	1	blank2r.bmp	0	1	+	0	1	blank2r.bmp	492	1	JQQJ	492	1	blank2r.bmp	572	1	töten	866	1	!	1239	1	!	-1	0	0	0	0	0	0	0	0	0	0	0	0	0	0	0	0	0	0	0	0	0	0	0	0	0	0	0	0	0	0
071719	15:19:58	15:29:13	554799	5.0.10.0	5_exp_RW	65	Rpleas_acq	CS_A	ZHHZ	YFFY	DXXD	JQQJ	CPPC	LWWL	genießen	gütig	küssen	träumen	sonnig	vertrauen	gemein	gierig	krank	töten	sterben	versagen	1	acq_USunple_CSunple1_RW	acq4567_RW	5	18	400	1	300	300	428	46	0	1	1	blank2r.bmp	0	1	+	0	1	blank2r.bmp	492	1	DXXD	492	1	blank2r.bmp	572	2	gierig	866	1	!	1239	1	!	1332	0	0	0	0	0	0	0	0	0	0	0	0	0	0	0	0	0	0	0	0	0	0	0	0	0	0	0	0	0	0
071719	15:19:58	15:29:15	556971	5.0.10.0	5_exp_RW	65	Rpleas_acq	CS_A	ZHHZ	YFFY	DXXD	JQQJ	CPPC	LWWL	genießen	gütig	küssen	träumen	sonnig	vertrauen	gemein	gierig	krank	töten	sterben	versagen	1	acq_USpleas_CSpleas2_RW	acq4567_RW	5	19	400	1	300	300	373	50	0	1	1	blank2r.bmp	0	1	+	0	1	blank2r.bmp	492	1	YFFY	492	1	blank2r.bmp	572	2	sonnig	866	1	!	1239	1	!	1279	0	0	0	0	0	0	0	0	0	0	0	0	0	0	0	0	0	0	0	0	0	0	0	0	0	0	0	0	0	0
071719	15:19:58	15:29:18	559210	5.0.10.0	5_exp_RW	65	Rpleas_acq	CS_A	ZHHZ	YFFY	DXXD	JQQJ	CPPC	LWWL	genießen	gütig	küssen	träumen	sonnig	vertrauen	gemein	gierig	krank	töten	sterben	versagen	1	acq_USpleas_CSpleas1_RW	acq4567_RW	5	20	400	1	300	300	430	50	0	1	1	blank2r.bmp	0	1	+	0	1	blank2r.bmp	492	1	ZHHZ	492	1	blank2r.bmp	572	1	genießen	866	1	!	1239	1	!	1332	0	0	0	0	0	0	0	0	0	0	0	0	0	0	0	0	0	0	0	0	0	0	0	0	0	0	0	0	0	0
071719	15:19:58	15:29:20	561463	5.0.10.0	5_exp_RW	65	Rpleas_acq	CS_A	ZHHZ	YFFY	DXXD	JQQJ	CPPC	LWWL	genießen	gütig	küssen	träumen	sonnig	vertrauen	gemein	gierig	krank	töten	sterben	versagen	1	acq_USpleas_CSpleas1_RW	acq4567_RW	5	21	400	1	300	300	453	50	0	1	1	blank2r.bmp	0	1	+	0	1	blank2r.bmp	492	1	ZHHZ	492	1	blank2r.bmp	572	2	gütig	866	1	!	1239	1	!	1359	0	0	0	0	0	0	0	0	0	0	0	0	0	0	0	0	0	0	0	0	0	0	0	0	0	0	0	0	0	0
071719	15:19:58	15:29:22	563702	5.0.10.0	5_exp_RW	65	Rpleas_acq	CS_A	ZHHZ	YFFY	DXXD	JQQJ	CPPC	LWWL	genießen	gütig	küssen	träumen	sonnig	vertrauen	gemein	gierig	krank	töten	sterben	versagen	1	acq_USunple_CSunple2_RW	acq4567_RW	5	22	400	1	300	300	431	46	0	1	1	blank2r.bmp	0	1	+	0	1	blank2r.bmp	492	1	JQQJ	492	1	blank2r.bmp	572	2	sterben	866	1	!	1239	1	!	1332	0	0	0	0	0	0	0	0	0	0	0	0	0	0	0	0	0	0	0	0	0	0	0	0	0	0	0	0	0	0
071719	15:19:58	15:29:24	566007	5.0.10.0	5_exp_RW	65	Rpleas_acq	CS_A	ZHHZ	YFFY	DXXD	JQQJ	CPPC	LWWL	genießen	gütig	küssen	träumen	sonnig	vertrauen	gemein	gierig	krank	töten	sterben	versagen	1	acq_USpleas_CSpleas2_RW	acq4567_RW	5	23	400	0	300	300	540	50	0	1	1	blank2r.bmp	0	1	+	0	1	blank2r.bmp	492	1	YFFY	492	1	blank2r.bmp	572	3	vertrauen	866	1	!	1239	1	!	-1	0	0	0	0	0	0	0	0	0	0	0	0	0	0	0	0	0	0	0	0	0	0	0	0	0	0	0	0	0	0
071719	15:19:58	15:29:27	568233	5.0.10.0	5_exp_RW	65	Rpleas_acq	CS_A	ZHHZ	YFFY	DXXD	JQQJ	CPPC	LWWL	genießen	gütig	küssen	träumen	sonnig	vertrauen	gemein	gierig	krank	töten	sterben	versagen	1	acq_USpleas_CSpleas2_RW	acq4567_RW	5	24	400	1	300	300	424	50	0	1	1	blank2r.bmp	0	1	+	0	1	blank2r.bmp	492	1	YFFY	492	1	blank2r.bmp	572	3	vertrauen	866	1	!	1239	1	!	1319	0	0	0	0	0	0	0	0	0	0	0	0	0	0	0	0	0	0	0	0	0	0	0	0	0	0	0	0	0	0
071719	15:19:58	15:29:29	570499	5.0.10.0	5_exp_RW	65	Rpleas_acq	CS_A	ZHHZ	YFFY	DXXD	JQQJ	CPPC	LWWL	genießen	gütig	küssen	träumen	sonnig	vertrauen	gemein	gierig	krank	töten	sterben	versagen	1	acq_USpleas_CSpleas1_RW	acq4567_RW	5	25	400	1	300	300	462	50	0	1	1	blank2r.bmp	0	1	+	0	1	blank2r.bmp	492	1	ZHHZ	492	1	blank2r.bmp	572	3	küssen	866	1	!	1239	1	!	1359	0	0	0	0	0	0	0	0	0	0	0	0	0	0	0	0	0	0	0	0	0	0	0	0	0	0	0	0	0	0
071719	15:19:58	15:29:31	572671	5.0.10.0	5_exp_RW	65	Rpleas_acq	CS_A	ZHHZ	YFFY	DXXD	JQQJ	CPPC	LWWL	genießen	gütig	küssen	träumen	sonnig	vertrauen	gemein	gierig	krank	töten	sterben	versagen	1	acq_USunple_CSunple1_RW	acq4567_RW	5	26	400	1	300	300	378	46	0	1	1	blank2r.bmp	0	1	+	0	1	blank2r.bmp	492	1	DXXD	492	1	blank2r.bmp	572	1	gemein	866	1	!	1239	1	!	1279	0	0	0	0	0	0	0	0	0	0	0	0	0	0	0	0	0	0	0	0	0	0	0	0	0	0	0	0	0	0
071719	15:19:58	15:29:33	574764	5.0.10.0	5_exp_RW	65	Rpleas_acq	CS_A	ZHHZ	YFFY	DXXD	JQQJ	CPPC	LWWL	genießen	gütig	küssen	träumen	sonnig	vertrauen	gemein	gierig	krank	töten	sterben	versagen	1	acq_USpleas_CSpleas2_RW	acq4567_RW	5	27	400	0	300	300	323	50	0	1	1	blank2r.bmp	0	1	+	0	1	blank2r.bmp	492	1	YFFY	492	1	blank2r.bmp	572	2	sonnig	866	1	!	-1	1	!	-1	0	0	0	0	0	0	0	0	0	0	0	0	0	0	0	0	0	0	0	0	0	0	0	0	0	0	0	0	0	0
071719	15:19:58	15:29:35	576923	5.0.10.0	5_exp_RW	65	Rpleas_acq	CS_A	ZHHZ	YFFY	DXXD	JQQJ	CPPC	LWWL	genießen	gütig	küssen	träumen	sonnig	vertrauen	gemein	gierig	krank	töten	sterben	versagen	1	acq_USunple_CSunple1_RW	acq4567_RW	5	28	400	1	300	300	346	46	0	1	1	blank2r.bmp	0	1	+	0	1	blank2r.bmp	492	1	DXXD	492	1	blank2r.bmp	572	2	gierig	866	1	!	1239	1	!	1252	0	0	0	0	0	0	0	0	0	0	0	0	0	0	0	0	0	0	0	0	0	0	0	0	0	0	0	0	0	0
071719	15:19:58	15:29:38	579109	5.0.10.0	5_exp_RW	65	Rpleas_acq	CS_A	ZHHZ	YFFY	DXXD	JQQJ	CPPC	LWWL	genießen	gütig	küssen	träumen	sonnig	vertrauen	gemein	gierig	krank	töten	sterben	versagen	1	acq_USpleas_CSpleas2_RW	acq4567_RW	5	29	400	1	300	300	382	50	0	1	1	blank2r.bmp	0	1	+	0	1	blank2r.bmp	492	1	YFFY	492	1	blank2r.bmp	572	1	träumen	866	1	!	1239	1	!	1279	0	0	0	0	0	0	0	0	0	0	0	0	0	0	0	0	0	0	0	0	0	0	0	0	0	0	0	0	0	0
071719	15:19:58	15:29:40	581334	5.0.10.0	5_exp_RW	65	Rpleas_acq	CS_A	ZHHZ	YFFY	DXXD	JQQJ	CPPC	LWWL	genießen	gütig	küssen	träumen	sonnig	vertrauen	gemein	gierig	krank	töten	sterben	versagen	1	acq_USunple_CSunple2_RW	acq4567_RW	5	30	400	1	300	300	427	50	0	0	1	blank2r.bmp	0	1	+	0	1	blank2r.bmp	492	1	JQQJ	492	1	blank2r.bmp	572	2	sterben	866	1	!	1239	1	!	1332	0	0	0	0	0	0	0	0	0	0	0	0	0	0	0	0	0	0	0	0	0	0	0	0	0	0	0	0	0	0
071719	15:19:58	15:29:42	583627	5.0.10.0	5_exp_RW	65	Rpleas_acq	CS_A	ZHHZ	YFFY	DXXD	JQQJ	CPPC	LWWL	genießen	gütig	küssen	träumen	sonnig	vertrauen	gemein	gierig	krank	töten	sterben	versagen	1	acq_USunple_CSunple1_RW	acq4567_RW	5	31	400	0	300	300	519	46	0	1	1	blank2r.bmp	0	1	+	0	1	blank2r.bmp	492	1	DXXD	492	1	blank2r.bmp	572	1	gemein	866	1	!	1239	1	!	-1	0	0	0	0	0	0	0	0	0	0	0	0	0	0	0	0	0	0	0	0	0	0	0	0	0	0	0	0	0	0
071719	15:19:58	15:29:44	585906	5.0.10.0	5_exp_RW	65	Rpleas_acq	CS_A	ZHHZ	YFFY	DXXD	JQQJ	CPPC	LWWL	genießen	gütig	küssen	träumen	sonnig	vertrauen	gemein	gierig	krank	töten	sterben	versagen	1	acq_USunple_CSunple2_RW	acq4567_RW	5	32	400	0	300	300	493	46	0	1	1	blank2r.bmp	0	1	+	0	1	blank2r.bmp	492	1	JQQJ	492	1	blank2r.bmp	572	3	versagen	866	1	!	1239	1	!	-1	0	0	0	0	0	0	0	0	0	0	0	0	0	0	0	0	0	0	0	0	0	0	0	0	0	0	0	0	0	0
071719	15:19:58	15:29:47	588172	5.0.10.0	5_exp_RW	65	Rpleas_acq	CS_A	ZHHZ	YFFY	DXXD	JQQJ	CPPC	LWWL	genießen	gütig	küssen	träumen	sonnig	vertrauen	gemein	gierig	krank	töten	sterben	versagen	1	acq_USunple_CSunple1_RW	acq4567_RW	5	33	400	0	300	300	488	46	0	1	1	blank2r.bmp	0	1	+	0	1	blank2r.bmp	492	1	DXXD	492	1	blank2r.bmp	572	3	krank	866	1	!	1239	1	!	-1	0	0	0	0	0	0	0	0	0	0	0	0	0	0	0	0	0	0	0	0	0	0	0	0	0	0	0	0	0	0
071719	15:19:58	15:29:49	590278	5.0.10.0	5_exp_RW	65	Rpleas_acq	CS_A	ZHHZ	YFFY	DXXD	JQQJ	CPPC	LWWL	genießen	gütig	küssen	träumen	sonnig	vertrauen	gemein	gierig	krank	töten	sterben	versagen	1	acq_USpleas_CSpleas1_RW	acq4567_RW	5	34	400	0	300	300	330	50	0	1	1	blank2r.bmp	0	1	+	0	1	blank2r.bmp	492	1	ZHHZ	492	1	blank2r.bmp	572	1	genießen	866	1	!	-1	1	!	-1	0	0	0	0	0	0	0	0	0	0	0	0	0	0	0	0	0	0	0	0	0	0	0	0	0	0	0	0	0	0
071719	15:19:58	15:29:51	592383	5.0.10.0	5_exp_RW	65	Rpleas_acq	CS_A	ZHHZ	YFFY	DXXD	JQQJ	CPPC	LWWL	genießen	gütig	küssen	träumen	sonnig	vertrauen	gemein	gierig	krank	töten	sterben	versagen	1	acq_USpleas_CSpleas1_RW	acq4567_RW	5	35	400	0	300	300	325	50	0	1	1	blank2r.bmp	0	1	+	0	1	blank2r.bmp	492	1	ZHHZ	492	1	blank2r.bmp	572	2	gütig	866	1	!	-1	1	!	-1	0	0	0	0	0	0	0	0	0	0	0	0	0	0	0	0	0	0	0	0	0	0	0	0	0	0	0	0	0	0
071719	15:19:58	15:29:53	594636	5.0.10.0	5_exp_RW	65	Rpleas_acq	CS_A	ZHHZ	YFFY	DXXD	JQQJ	CPPC	LWWL	genießen	gütig	küssen	träumen	sonnig	vertrauen	gemein	gierig	krank	töten	sterben	versagen	1	acq_USunple_CSunple2_RW	acq4567_RW	5	36	400	1	300	300	443	46	0	1	1	blank2r.bmp	0	1	+	0	1	blank2r.bmp	492	1	JQQJ	492	1	blank2r.bmp	572	1	töten	866	1	!	1239	1	!	1346	0	0	0	0	0	0	0	0	0	0	0	0	0	0	0	0	0	0	0	0	0	0	0	0	0	0	0	0	0	0
071719	15:19:58	15:29:56	597981	5.0.10.0	5_exp_RW	65	Rpleas_acq	CS_A	ZHHZ	YFFY	DXXD	JQQJ	CPPC	LWWL	genießen	gütig	küssen	träumen	sonnig	vertrauen	gemein	gierig	krank	töten	sterben	versagen	1	acq_USpleas_CSpleas1_RW	acq4567_RW	5	37	400	0	300	300	1579	50	0	1	1	blank2r.bmp	0	1	+	0	1	blank2r.bmp	492	1	ZHHZ	492	1	blank2r.bmp	572	3	küssen	866	1	!	1239	1	!	-1	0	0	0	0	0	0	0	0	0	0	0	0	0	0	0	0	0	0	0	0	0	0	0	0	0	0	0	0	0	0
071719	15:19:58	15:29:59	600700	5.0.10.0	5_exp_RW	65	Rpleas_acq	CS_A	ZHHZ	YFFY	DXXD	JQQJ	CPPC	LWWL	genießen	gütig	küssen	träumen	sonnig	vertrauen	gemein	gierig	krank	töten	sterben	versagen	1	acq_USunple_CSunple2_RW	acq4567_RW	5	38	400	0	300	300	944	46	0	1	1	blank2r.bmp	0	1	+	0	1	blank2r.bmp	492	1	JQQJ	492	1	blank2r.bmp	572	2	sterben	866	1	!	1239	1	!	-1	0	0	0	0	0	0	0	0	0	0	0	0	0	0	0	0	0	0	0	0	0	0	0	0	0	0	0	0	0	0
071719	15:19:58	15:30:01	602806	5.0.10.0	5_exp_RW	65	Rpleas_acq	CS_A	ZHHZ	YFFY	DXXD	JQQJ	CPPC	LWWL	genießen	gütig	küssen	träumen	sonnig	vertrauen	gemein	gierig	krank	töten	sterben	versagen	1	acq_USunple_CSunple1_RW	acq4567_RW	5	39	400	0	300	300	314	50	0	0	1	blank2r.bmp	0	1	+	0	1	blank2r.bmp	492	1	DXXD	492	1	blank2r.bmp	572	3	krank	866	1	!	-1	1	!	-1	0	0	0	0	0	0	0	0	0	0	0	0	0	0	0	0	0	0	0	0	0	0	0	0	0	0	0	0	0	0
071719	15:19:58	15:30:04	605151	5.0.10.0	5_exp_RW	65	Rpleas_acq	CS_A	ZHHZ	YFFY	DXXD	JQQJ	CPPC	LWWL	genießen	gütig	küssen	träumen	sonnig	vertrauen	gemein	gierig	krank	töten	sterben	versagen	1	acq_USpleas_CSpleas2_RW	acq4567_RW	5	40	400	0	300	300	548	46	0	0	1	blank2r.bmp	0	1	+	0	1	blank2r.bmp	492	1	YFFY	492	1	blank2r.bmp	572	3	vertrauen	866	1	!	1239	1	!	-1	0	0	0	0	0	0	0	0	0	0	0	0	0	0	0	0	0	0	0	0	0	0	0	0	0	0	0	0	0	0
071719	15:19:58	15:30:06	607604	5.0.10.0	5_exp_RW	65	Rpleas_acq	CS_A	ZHHZ	YFFY	DXXD	JQQJ	CPPC	LWWL	genießen	gütig	küssen	träumen	sonnig	vertrauen	gemein	gierig	krank	töten	sterben	versagen	1	acq_USunple_CSunple1_RW	acq4567_RW	5	41	400	0	300	300	674	46	0	1	1	blank2r.bmp	0	1	+	0	1	blank2r.bmp	492	1	DXXD	492	1	blank2r.bmp	572	2	gierig	866	1	!	1239	1	!	-1	0	0	0	0	0	0	0	0	0	0	0	0	0	0	0	0	0	0	0	0	0	0	0	0	0	0	0	0	0	0
071719	15:19:58	15:30:08	609936	5.0.10.0	5_exp_RW	65	Rpleas_acq	CS_A	ZHHZ	YFFY	DXXD	JQQJ	CPPC	LWWL	genießen	gütig	küssen	träumen	sonnig	vertrauen	gemein	gierig	krank	töten	sterben	versagen	1	acq_USunple_CSunple2_RW	acq4567_RW	5	42	400	0	300	300	550	46	0	1	1	blank2r.bmp	0	1	+	0	1	blank2r.bmp	492	1	JQQJ	492	1	blank2r.bmp	572	3	versagen	866	1	!	1239	1	!	-1	0	0	0	0	0	0	0	0	0	0	0	0	0	0	0	0	0	0	0	0	0	0	0	0	0	0	0	0	0	0
071719	15:19:58	15:30:11	612202	5.0.10.0	5_exp_RW	65	Rpleas_acq	CS_A	ZHHZ	YFFY	DXXD	JQQJ	CPPC	LWWL	genießen	gütig	küssen	träumen	sonnig	vertrauen	gemein	gierig	krank	töten	sterben	versagen	1	acq_USpleas_CSpleas1_RW	acq4567_RW	5	43	400	0	300	300	491	50	0	1	1	blank2r.bmp	0	1	+	0	1	blank2r.bmp	492	1	ZHHZ	492	1	blank2r.bmp	572	1	genießen	866	1	!	1239	1	!	-1	0	0	0	0	0	0	0	0	0	0	0	0	0	0	0	0	0	0	0	0	0	0	0	0	0	0	0	0	0	0
071719	15:19:58	15:30:13	614561	5.0.10.0	5_exp_RW	65	Rpleas_acq	CS_A	ZHHZ	YFFY	DXXD	JQQJ	CPPC	LWWL	genießen	gütig	küssen	träumen	sonnig	vertrauen	gemein	gierig	krank	töten	sterben	versagen	1	acq_USunple_CSunple1_RW	acq4567_RW	5	44	400	0	300	300	578	46	0	1	1	blank2r.bmp	0	1	+	0	1	blank2r.bmp	492	1	DXXD	492	1	blank2r.bmp	572	1	gemein	866	1	!	1239	1	!	-1	0	0	0	0	0	0	0	0	0	0	0	0	0	0	0	0	0	0	0	0	0	0	0	0	0	0	0	0	0	0
071719	15:19:58	15:30:15	616840	5.0.10.0	5_exp_RW	65	Rpleas_acq	CS_A	ZHHZ	YFFY	DXXD	JQQJ	CPPC	LWWL	genießen	gütig	küssen	träumen	sonnig	vertrauen	gemein	gierig	krank	töten	sterben	versagen	1	acq_USpleas_CSpleas2_RW	acq4567_RW	5	45	400	0	300	300	499	50	0	1	1	blank2r.bmp	0	1	+	0	1	blank2r.bmp	492	1	YFFY	492	1	blank2r.bmp	572	1	träumen	866	1	!	1239	1	!	-1	0	0	0	0	0	0	0	0	0	0	0	0	0	0	0	0	0	0	0	0	0	0	0	0	0	0	0	0	0	0
071719	15:19:58	15:30:17	619012	5.0.10.0	5_exp_RW	65	Rpleas_acq	CS_A	ZHHZ	YFFY	DXXD	JQQJ	CPPC	LWWL	genießen	gütig	küssen	träumen	sonnig	vertrauen	gemein	gierig	krank	töten	sterben	versagen	1	acq_USunple_CSunple2_RW	acq4567_RW	5	46	400	1	300	300	359	46	0	1	1	blank2r.bmp	0	1	+	0	1	blank2r.bmp	492	1	JQQJ	492	1	blank2r.bmp	572	1	töten	866	1	!	1239	1	!	1266	0	0	0	0	0	0	0	0	0	0	0	0	0	0	0	0	0	0	0	0	0	0	0	0	0	0	0	0	0	0
071719	15:19:58	15:30:20	621185	5.0.10.0	5_exp_RW	65	Rpleas_acq	CS_A	ZHHZ	YFFY	DXXD	JQQJ	CPPC	LWWL	genießen	gütig	küssen	träumen	sonnig	vertrauen	gemein	gierig	krank	töten	sterben	versagen	1	acq_USpleas_CSpleas2_RW	acq4567_RW	5	47	400	1	300	300	368	50	0	1	1	blank2r.bmp	0	1	+	0	1	blank2r.bmp	492	1	YFFY	492	1	blank2r.bmp	572	2	sonnig	866	1	!	1239	1	!	1266	0	0	0	0	0	0	0	0	0	0	0	0	0	0	0	0	0	0	0	0	0	0	0	0	0	0	0	0	0	0
071719	15:19:58	15:30:22	623384	5.0.10.0	5_exp_RW	65	Rpleas_acq	CS_A	ZHHZ	YFFY	DXXD	JQQJ	CPPC	LWWL	genießen	gütig	küssen	träumen	sonnig	vertrauen	gemein	gierig	krank	töten	sterben	versagen	1	acq_USunple_CSunple1_RW	acq4567_RW	5	48	400	1	300	300	409	46	0	1	1	blank2r.bmp	0	1	+	0	1	blank2r.bmp	492	1	DXXD	492	1	blank2r.bmp	572	3	krank	866	1	!	1239	1	!	1306	0	0	0	0	0	0	0	0	0	0	0	0	0	0	0	0	0	0	0	0	0	0	0	0	0	0	0	0	0	0
071719	15:19:58	15:30:24	625570	5.0.10.0	5_exp_RW	65	Rpleas_acq	CS_A	ZHHZ	YFFY	DXXD	JQQJ	CPPC	LWWL	genießen	gütig	küssen	träumen	sonnig	vertrauen	gemein	gierig	krank	töten	sterben	versagen	1	acq_USunple_CSunple2_RW	acq4567_RW	5	49	400	1	300	300	391	46	0	1	1	blank2r.bmp	0	1	+	0	1	blank2r.bmp	492	1	JQQJ	492	1	blank2r.bmp	572	3	versagen	866	1	!	1239	1	!	1292	0	0	0	0	0	0	0	0	0	0	0	0	0	0	0	0	0	0	0	0	0	0	0	0	0	0	0	0	0	0
071719	15:19:58	15:30:26	627769	5.0.10.0	5_exp_RW	65	Rpleas_acq	CS_A	ZHHZ	YFFY	DXXD	JQQJ	CPPC	LWWL	genießen	gütig	küssen	träumen	sonnig	vertrauen	gemein	gierig	krank	töten	sterben	versagen	1	acq_USpleas_CSpleas1_RW	acq4567_RW	5	50	400	1	300	300	404	50	0	1	1	blank2r.bmp	0	1	+	0	1	blank2r.bmp	492	1	ZHHZ	492	1	blank2r.bmp	572	2	gütig	866	1	!	1239	1	!	1306	0	0	0	0	0	0	0	0	0	0	0	0	0	0	0	0	0	0	0	0	0	0	0	0	0	0	0	0	0	0
071719	15:19:58	15:30:28	629968	5.0.10.0	5_exp_RW	65	Rpleas_acq	CS_A	ZHHZ	YFFY	DXXD	JQQJ	CPPC	LWWL	genießen	gütig	küssen	träumen	sonnig	vertrauen	gemein	gierig	krank	töten	sterben	versagen	1	acq_USunple_CSunple1_RW	acq4567_RW	5	51	400	1	300	300	403	46	0	1	1	blank2r.bmp	0	1	+	0	1	blank2r.bmp	492	1	DXXD	492	1	blank2r.bmp	572	1	gemein	866	1	!	1239	1	!	1306	0	0	0	0	0	0	0	0	0	0	0	0	0	0	0	0	0	0	0	0	0	0	0	0	0	0	0	0	0	0
071719	15:19:58	15:30:31	632140	5.0.10.0	5_exp_RW	65	Rpleas_acq	CS_A	ZHHZ	YFFY	DXXD	JQQJ	CPPC	LWWL	genießen	gütig	küssen	träumen	sonnig	vertrauen	gemein	gierig	krank	töten	sterben	versagen	1	acq_USpleas_CSpleas2_RW	acq4567_RW	5	52	400	1	300	300	374	50	0	1	1	blank2r.bmp	0	1	+	0	1	blank2r.bmp	492	1	YFFY	492	1	blank2r.bmp	572	2	sonnig	866	1	!	1239	1	!	1279	0	0	0	0	0	0	0	0	0	0	0	0	0	0	0	0	0	0	0	0	0	0	0	0	0	0	0	0	0	0
071719	15:19:58	15:30:33	634313	5.0.10.0	5_exp_RW	65	Rpleas_acq	CS_A	ZHHZ	YFFY	DXXD	JQQJ	CPPC	LWWL	genießen	gütig	küssen	träumen	sonnig	vertrauen	gemein	gierig	krank	töten	sterben	versagen	1	acq_USunple_CSunple2_RW	acq4567_RW	5	53	400	1	300	300	381	46	0	1	1	blank2r.bmp	0	1	+	0	1	blank2r.bmp	492	1	JQQJ	492	1	blank2r.bmp	572	2	sterben	866	1	!	1239	1	!	1279	0	0	0	0	0	0	0	0	0	0	0	0	0	0	0	0	0	0	0	0	0	0	0	0	0	0	0	0	0	0
071719	15:19:58	15:30:35	636605	5.0.10.0	5_exp_RW	65	Rpleas_acq	CS_A	ZHHZ	YFFY	DXXD	JQQJ	CPPC	LWWL	genießen	gütig	küssen	träumen	sonnig	vertrauen	gemein	gierig	krank	töten	sterben	versagen	1	acq_USpleas_CSpleas2_RW	acq4567_RW	5	54	400	0	300	300	520	46	0	0	1	blank2r.bmp	0	1	+	0	1	blank2r.bmp	492	1	YFFY	492	1	blank2r.bmp	572	3	vertrauen	866	1	!	1239	1	!	-1	0	0	0	0	0	0	0	0	0	0	0	0	0	0	0	0	0	0	0	0	0	0	0	0	0	0	0	0	0	0
071719	15:19:58	15:30:37	638831	5.0.10.0	5_exp_RW	65	Rpleas_acq	CS_A	ZHHZ	YFFY	DXXD	JQQJ	CPPC	LWWL	genießen	gütig	küssen	träumen	sonnig	vertrauen	gemein	gierig	krank	töten	sterben	versagen	1	acq_USpleas_CSpleas2_RW	acq4567_RW	5	55	400	1	300	300	420	50	0	1	1	blank2r.bmp	0	1	+	0	1	blank2r.bmp	492	1	YFFY	492	1	blank2r.bmp	572	1	träumen	866	1	!	1239	1	!	1319	0	0	0	0	0	0	0	0	0	0	0	0	0	0	0	0	0	0	0	0	0	0	0	0	0	0	0	0	0	0
071719	15:19:58	15:30:39	641043	5.0.10.0	5_exp_RW	65	Rpleas_acq	CS_A	ZHHZ	YFFY	DXXD	JQQJ	CPPC	LWWL	genießen	gütig	küssen	träumen	sonnig	vertrauen	gemein	gierig	krank	töten	sterben	versagen	1	acq_USpleas_CSpleas1_RW	acq4567_RW	5	56	400	1	300	300	418	50	0	1	1	blank2r.bmp	0	1	+	0	1	blank2r.bmp	492	1	ZHHZ	492	1	blank2r.bmp	572	1	genießen	866	1	!	1239	1	!	1319	0	0	0	0	0	0	0	0	0	0	0	0	0	0	0	0	0	0	0	0	0	0	0	0	0	0	0	0	0	0
071719	15:19:58	15:30:42	643242	5.0.10.0	5_exp_RW	65	Rpleas_acq	CS_A	ZHHZ	YFFY	DXXD	JQQJ	CPPC	LWWL	genießen	gütig	küssen	träumen	sonnig	vertrauen	gemein	gierig	krank	töten	sterben	versagen	1	acq_USunple_CSunple1_RW	acq4567_RW	5	57	400	1	300	300	400	46	0	1	1	blank2r.bmp	0	1	+	0	1	blank2r.bmp	492	1	DXXD	492	1	blank2r.bmp	572	2	gierig	866	1	!	1239	1	!	1306	0	0	0	0	0	0	0	0	0	0	0	0	0	0	0	0	0	0	0	0	0	0	0	0	0	0	0	0	0	0
071719	15:19:58	15:30:44	645322	5.0.10.0	5_exp_RW	65	Rpleas_acq	CS_A	ZHHZ	YFFY	DXXD	JQQJ	CPPC	LWWL	genießen	gütig	küssen	träumen	sonnig	vertrauen	gemein	gierig	krank	töten	sterben	versagen	1	acq_USpleas_CSpleas1_RW	acq4567_RW	5	58	400	0	300	300	311	50	0	1	1	blank2r.bmp	0	1	+	0	1	blank2r.bmp	492	1	ZHHZ	492	1	blank2r.bmp	572	3	küssen	866	1	!	-1	1	!	-1	0	0	0	0	0	0	0	0	0	0	0	0	0	0	0	0	0	0	0	0	0	0	0	0	0	0	0	0	0	0
071719	15:19:58	15:30:46	647534	5.0.10.0	5_exp_RW	65	Rpleas_acq	CS_A	ZHHZ	YFFY	DXXD	JQQJ	CPPC	LWWL	genießen	gütig	küssen	träumen	sonnig	vertrauen	gemein	gierig	krank	töten	sterben	versagen	1	acq_USpleas_CSpleas1_RW	acq4567_RW	5	59	400	1	300	300	401	50	0	1	1	blank2r.bmp	0	1	+	0	1	blank2r.bmp	492	1	ZHHZ	492	1	blank2r.bmp	572	2	gütig	866	1	!	1239	1	!	1306	0	0	0	0	0	0	0	0	0	0	0	0	0	0	0	0	0	0	0	0	0	0	0	0	0	0	0	0	0	0
071719	15:19:58	15:30:48	649760	5.0.10.0	5_exp_RW	65	Rpleas_acq	CS_A	ZHHZ	YFFY	DXXD	JQQJ	CPPC	LWWL	genießen	gütig	küssen	träumen	sonnig	vertrauen	gemein	gierig	krank	töten	sterben	versagen	1	acq_USunple_CSunple2_RW	acq4567_RW	5	60	400	1	300	300	436	46	0	1	1	blank2r.bmp	0	1	+	0	1	blank2r.bmp	492	1	JQQJ	492	1	blank2r.bmp	572	1	töten	866	1	!	1239	1	!	1332	0	0	0	0	0	0	0	0	0	0	0	0	0	0	0	0	0	0	0	0	0	0	0	0	0	0	0	0	0	0
071719	15:19:58	15:30:50	651932	5.0.10.0	5_exp_RW	65	Rpleas_acq	CS_A	ZHHZ	YFFY	DXXD	JQQJ	CPPC	LWWL	genießen	gütig	küssen	träumen	sonnig	vertrauen	gemein	gierig	krank	töten	sterben	versagen	1	acq_USpleas_CSpleas2_RW	acq4567_RW	5	61	400	1	300	300	363	50	0	1	1	blank2r.bmp	0	1	+	0	1	blank2r.bmp	492	1	YFFY	492	1	blank2r.bmp	572	1	träumen	866	1	!	1239	1	!	1266	0	0	0	0	0	0	0	0	0	0	0	0	0	0	0	0	0	0	0	0	0	0	0	0	0	0	0	0	0	0
071719	15:19:58	15:30:53	654091	5.0.10.0	5_exp_RW	65	Rpleas_acq	CS_A	ZHHZ	YFFY	DXXD	JQQJ	CPPC	LWWL	genießen	gütig	küssen	träumen	sonnig	vertrauen	gemein	gierig	krank	töten	sterben	versagen	1	acq_USunple_CSunple2_RW	acq4567_RW	5	62	400	1	300	300	359	50	0	0	1	blank2r.bmp	0	1	+	0	1	blank2r.bmp	492	1	JQQJ	492	1	blank2r.bmp	572	3	versagen	866	1	!	1239	1	!	1266	0	0	0	0	0	0	0	0	0	0	0	0	0	0	0	0	0	0	0	0	0	0	0	0	0	0	0	0	0	0
071719	15:19:58	15:30:55	656384	5.0.10.0	5_exp_RW	65	Rpleas_acq	CS_A	ZHHZ	YFFY	DXXD	JQQJ	CPPC	LWWL	genießen	gütig	küssen	träumen	sonnig	vertrauen	gemein	gierig	krank	töten	sterben	versagen	1	acq_USunple_CSunple1_RW	acq4567_RW	5	63	400	0	300	300	523	46	0	1	1	blank2r.bmp	0	1	+	0	1	blank2r.bmp	492	1	DXXD	492	1	blank2r.bmp	572	2	gierig	866	1	!	1239	1	!	-1	0	0	0	0	0	0	0	0	0	0	0	0	0	0	0	0	0	0	0	0	0	0	0	0	0	0	0	0	0	0
071719	15:19:58	15:30:57	658783	5.0.10.0	5_exp_RW	65	Rpleas_acq	CS_A	ZHHZ	YFFY	DXXD	JQQJ	CPPC	LWWL	genießen	gütig	küssen	träumen	sonnig	vertrauen	gemein	gierig	krank	töten	sterben	versagen	1	acq_USunple_CSunple1_RW	acq4567_RW	5	64	400	0	300	300	624	46	0	1	1	blank2r.bmp	0	1	+	0	1	blank2r.bmp	492	1	DXXD	492	1	blank2r.bmp	572	3	krank	866	1	!	1239	1	!	-1	0	0	0	0	0	0	0	0	0	0	0	0	0	0	0	0	0	0	0	0	0	0	0	0	0	0	0	0	0	0
071719	15:19:58	15:31:00	661102	5.0.10.0	5_exp_RW	65	Rpleas_acq	CS_A	ZHHZ	YFFY	DXXD	JQQJ	CPPC	LWWL	genießen	gütig	küssen	träumen	sonnig	vertrauen	gemein	gierig	krank	töten	sterben	versagen	1	acq_USunple_CSunple2_RW	acq4567_RW	5	65	400	0	300	300	536	46	0	1	1	blank2r.bmp	0	1	+	0	1	blank2r.bmp	492	1	JQQJ	492	1	blank2r.bmp	572	1	töten	866	1	!	1239	1	!	-1	0	0	0	0	0	0	0	0	0	0	0	0	0	0	0	0	0	0	0	0	0	0	0	0	0	0	0	0	0	0
071719	15:19:58	15:31:02	663274	5.0.10.0	5_exp_RW	65	Rpleas_acq	CS_A	ZHHZ	YFFY	DXXD	JQQJ	CPPC	LWWL	genießen	gütig	küssen	träumen	sonnig	vertrauen	gemein	gierig	krank	töten	sterben	versagen	1	acq_USpleas_CSpleas1_RW	acq4567_RW	5	66	400	1	300	300	346	46	0	0	1	blank2r.bmp	0	1	+	0	1	blank2r.bmp	492	1	ZHHZ	492	1	blank2r.bmp	572	1	genießen	866	1	!	1239	1	!	1252	0	0	0	0	0	0	0	0	0	0	0	0	0	0	0	0	0	0	0	0	0	0	0	0	0	0	0	0	0	0
071719	15:19:58	15:31:04	665633	5.0.10.0	5_exp_RW	65	Rpleas_acq	CS_A	ZHHZ	YFFY	DXXD	JQQJ	CPPC	LWWL	genießen	gütig	küssen	träumen	sonnig	vertrauen	gemein	gierig	krank	töten	sterben	versagen	1	acq_USunple_CSunple1_RW	acq4567_RW	5	67	400	0	300	300	593	46	0	1	1	blank2r.bmp	0	1	+	0	1	blank2r.bmp	492	1	DXXD	492	1	blank2r.bmp	572	1	gemein	866	1	!	1239	1	!	-1	0	0	0	0	0	0	0	0	0	0	0	0	0	0	0	0	0	0	0	0	0	0	0	0	0	0	0	0	0	0
071719	15:19:58	15:31:06	667912	5.0.10.0	5_exp_RW	65	Rpleas_acq	CS_A	ZHHZ	YFFY	DXXD	JQQJ	CPPC	LWWL	genießen	gütig	küssen	träumen	sonnig	vertrauen	gemein	gierig	krank	töten	sterben	versagen	1	acq_USunple_CSunple2_RW	acq4567_RW	5	68	400	0	300	300	505	46	0	1	1	blank2r.bmp	0	1	+	0	1	blank2r.bmp	492	1	JQQJ	492	1	blank2r.bmp	572	2	sterben	866	1	!	1239	1	!	-1	0	0	0	0	0	0	0	0	0	0	0	0	0	0	0	0	0	0	0	0	0	0	0	0	0	0	0	0	0	0
071719	15:19:58	15:31:09	670578	5.0.10.0	5_exp_RW	65	Rpleas_acq	CS_A	ZHHZ	YFFY	DXXD	JQQJ	CPPC	LWWL	genießen	gütig	küssen	träumen	sonnig	vertrauen	gemein	gierig	krank	töten	sterben	versagen	1	acq_USpleas_CSpleas1_RW	acq4567_RW	5	69	400	0	300	300	883	50	0	1	1	blank2r.bmp	0	1	+	0	1	blank2r.bmp	492	1	ZHHZ	492	1	blank2r.bmp	572	2	gütig	866	1	!	1239	1	!	-1	0	0	0	0	0	0	0	0	0	0	0	0	0	0	0	0	0	0	0	0	0	0	0	0	0	0	0	0	0	0
071719	15:19:58	15:31:11	672857	5.0.10.0	5_exp_RW	65	Rpleas_acq	CS_A	ZHHZ	YFFY	DXXD	JQQJ	CPPC	LWWL	genießen	gütig	küssen	träumen	sonnig	vertrauen	gemein	gierig	krank	töten	sterben	versagen	1	acq_USpleas_CSpleas2_RW	acq4567_RW	5	70	400	0	300	300	493	50	0	1	1	blank2r.bmp	0	1	+	0	1	blank2r.bmp	492	1	YFFY	492	1	blank2r.bmp	572	3	vertrauen	866	1	!	1239	1	!	-1	0	0	0	0	0	0	0	0	0	0	0	0	0	0	0	0	0	0	0	0	0	0	0	0	0	0	0	0	0	0
071719	15:19:58	15:31:13	675029	5.0.10.0	5_exp_RW	65	Rpleas_acq	CS_A	ZHHZ	YFFY	DXXD	JQQJ	CPPC	LWWL	genießen	gütig	küssen	träumen	sonnig	vertrauen	gemein	gierig	krank	töten	sterben	versagen	1	acq_USpleas_CSpleas1_RW	acq4567_RW	5	71	400	1	300	300	371	50	0	1	1	blank2r.bmp	0	1	+	0	1	blank2r.bmp	492	1	ZHHZ	492	1	blank2r.bmp	572	3	küssen	866	1	!	1239	1	!	1266	0	0	0	0	0	0	0	0	0	0	0	0	0	0	0	0	0	0	0	0	0	0	0	0	0	0	0	0	0	0
071719	15:19:58	15:31:16	677282	5.0.10.0	5_exp_RW	65	Rpleas_acq	CS_A	ZHHZ	YFFY	DXXD	JQQJ	CPPC	LWWL	genießen	gütig	küssen	träumen	sonnig	vertrauen	gemein	gierig	krank	töten	sterben	versagen	1	acq_USunple_CSunple1_RW	acq4567_RW	5	72	400	1	300	300	441	46	0	1	1	blank2r.bmp	0	1	+	0	1	blank2r.bmp	492	1	DXXD	492	1	blank2r.bmp	572	1	gemein	866	1	!	1239	1	!	1346	0	0	0	0	0	0	0	0	0	0	0	0	0	0	0	0	0	0	0	0	0	0	0	0	0	0	0	0	0	0
071719	15:19:58	15:31:18	679601	5.0.10.0	5_exp_RW	65	Rpleas_acq	CS_A	ZHHZ	YFFY	DXXD	JQQJ	CPPC	LWWL	genießen	gütig	küssen	träumen	sonnig	vertrauen	gemein	gierig	krank	töten	sterben	versagen	1	acq_USpleas_CSpleas1_RW	acq4567_RW	5	73	400	0	300	300	556	50	0	1	1	blank2r.bmp	0	1	+	0	1	blank2r.bmp	492	1	ZHHZ	492	1	blank2r.bmp	572	2	gütig	866	1	!	1239	1	!	-1	0	0	0	0	0	0	0	0	0	0	0	0	0	0	0	0	0	0	0	0	0	0	0	0	0	0	0	0	0	0
071719	15:19:58	15:31:20	681893	5.0.10.0	5_exp_RW	65	Rpleas_acq	CS_A	ZHHZ	YFFY	DXXD	JQQJ	CPPC	LWWL	genießen	gütig	küssen	träumen	sonnig	vertrauen	gemein	gierig	krank	töten	sterben	versagen	1	acq_USunple_CSunple1_RW	acq4567_RW	5	74	400	0	300	300	508	46	0	1	1	blank2r.bmp	0	1	+	0	1	blank2r.bmp	492	1	DXXD	492	1	blank2r.bmp	572	3	krank	866	1	!	1239	1	!	-1	0	0	0	0	0	0	0	0	0	0	0	0	0	0	0	0	0	0	0	0	0	0	0	0	0	0	0	0	0	0
071719	15:19:58	15:31:23	684079	5.0.10.0	5_exp_RW	65	Rpleas_acq	CS_A	ZHHZ	YFFY	DXXD	JQQJ	CPPC	LWWL	genießen	gütig	küssen	träumen	sonnig	vertrauen	gemein	gierig	krank	töten	sterben	versagen	1	acq_USpleas_CSpleas2_RW	acq4567_RW	5	75	400	1	300	300	383	50	0	1	1	blank2r.bmp	0	1	+	0	1	blank2r.bmp	492	1	YFFY	492	1	blank2r.bmp	572	2	sonnig	866	1	!	1239	1	!	1279	0	0	0	0	0	0	0	0	0	0	0	0	0	0	0	0	0	0	0	0	0	0	0	0	0	0	0	0	0	0
071719	15:19:58	15:31:25	686252	5.0.10.0	5_exp_RW	65	Rpleas_acq	CS_A	ZHHZ	YFFY	DXXD	JQQJ	CPPC	LWWL	genießen	gütig	küssen	träumen	sonnig	vertrauen	gemein	gierig	krank	töten	sterben	versagen	1	acq_USpleas_CSpleas1_RW	acq4567_RW	5	76	400	1	300	300	372	50	0	1	1	blank2r.bmp	0	1	+	0	1	blank2r.bmp	492	1	ZHHZ	492	1	blank2r.bmp	572	3	küssen	866	1	!	1239	1	!	1266	0	0	0	0	0	0	0	0	0	0	0	0	0	0	0	0	0	0	0	0	0	0	0	0	0	0	0	0	0	0
071719	15:19:58	15:31:27	688491	5.0.10.0	5_exp_RW	65	Rpleas_acq	CS_A	ZHHZ	YFFY	DXXD	JQQJ	CPPC	LWWL	genießen	gütig	küssen	träumen	sonnig	vertrauen	gemein	gierig	krank	töten	sterben	versagen	1	acq_USpleas_CSpleas2_RW	acq4567_RW	5	77	400	1	300	300	443	50	0	1	1	blank2r.bmp	0	1	+	0	1	blank2r.bmp	492	1	YFFY	492	1	blank2r.bmp	572	2	sonnig	866	1	!	1239	1	!	1346	0	0	0	0	0	0	0	0	0	0	0	0	0	0	0	0	0	0	0	0	0	0	0	0	0	0	0	0	0	0
071719	15:19:58	15:31:29	690783	5.0.10.0	5_exp_RW	65	Rpleas_acq	CS_A	ZHHZ	YFFY	DXXD	JQQJ	CPPC	LWWL	genießen	gütig	küssen	träumen	sonnig	vertrauen	gemein	gierig	krank	töten	sterben	versagen	1	acq_USpleas_CSpleas2_RW	acq4567_RW	5	78	400	0	300	300	530	50	0	1	1	blank2r.bmp	0	1	+	0	1	blank2r.bmp	492	1	YFFY	492	1	blank2r.bmp	572	3	vertrauen	866	1	!	1239	1	!	-1	0	0	0	0	0	0	0	0	0	0	0	0	0	0	0	0	0	0	0	0	0	0	0	0	0	0	0	0	0	0
071719	15:19:58	15:31:31	692982	5.0.10.0	5_exp_RW	65	Rpleas_acq	CS_A	ZHHZ	YFFY	DXXD	JQQJ	CPPC	LWWL	genießen	gütig	küssen	träumen	sonnig	vertrauen	gemein	gierig	krank	töten	sterben	versagen	1	acq_USunple_CSunple2_RW	acq4567_RW	5	79	400	1	300	300	395	46	0	1	1	blank2r.bmp	0	1	+	0	1	blank2r.bmp	492	1	JQQJ	492	1	blank2r.bmp	572	3	versagen	866	1	!	1239	1	!	1292	0	0	0	0	0	0	0	0	0	0	0	0	0	0	0	0	0	0	0	0	0	0	0	0	0	0	0	0	0	0
071719	15:19:58	15:31:34	695128	5.0.10.0	5_exp_RW	65	Rpleas_acq	CS_A	ZHHZ	YFFY	DXXD	JQQJ	CPPC	LWWL	genießen	gütig	küssen	träumen	sonnig	vertrauen	gemein	gierig	krank	töten	sterben	versagen	1	acq_USunple_CSunple2_RW	acq4567_RW	5	80	400	1	300	300	350	46	0	1	1	blank2r.bmp	0	1	+	0	1	blank2r.bmp	492	1	JQQJ	492	1	blank2r.bmp	572	1	töten	866	1	!	1239	1	!	1252	0	0	0	0	0	0	0	0	0	0	0	0	0	0	0	0	0	0	0	0	0	0	0	0	0	0	0	0	0	0
071719	15:19:58	15:31:53	714467	5.0.10.0	5_exp_RW	65	Rpleas_acq	CS_A	ZHHZ	YFFY	DXXD	JQQJ	CPPC	LWWL	genießen	gütig	küssen	träumen	sonnig	vertrauen	gemein	gierig	krank	töten	sterben	versagen	1	acq_USpleas_CSpleas1_RW	acq4567_RW	6	1	400	0	300	300	1877	50	0	1	1	blank2r.bmp	0	1	+	0	1	blank2r.bmp	492	1	ZHHZ	492	1	blank2r.bmp	572	1	genießen	866	1	!	1239	1	!	-1	0	0	0	0	0	0	0	0	0	0	0	0	0	0	0	0	0	0	0	0	0	0	0	0	0	0	0	0	0	0
071719	15:19:58	15:31:55	716706	5.0.10.0	5_exp_RW	65	Rpleas_acq	CS_A	ZHHZ	YFFY	DXXD	JQQJ	CPPC	LWWL	genießen	gütig	küssen	träumen	sonnig	vertrauen	gemein	gierig	krank	töten	sterben	versagen	1	acq_USpleas_CSpleas2_RW	acq4567_RW	6	2	400	1	300	300	426	50	0	1	1	blank2r.bmp	0	1	+	0	1	blank2r.bmp	492	1	YFFY	492	1	blank2r.bmp	572	1	träumen	866	1	!	1239	1	!	1332	0	0	0	0	0	0	0	0	0	0	0	0	0	0	0	0	0	0	0	0	0	0	0	0	0	0	0	0	0	0
071719	15:19:58	15:31:57	718878	5.0.10.0	5_exp_RW	65	Rpleas_acq	CS_A	ZHHZ	YFFY	DXXD	JQQJ	CPPC	LWWL	genießen	gütig	küssen	träumen	sonnig	vertrauen	gemein	gierig	krank	töten	sterben	versagen	1	acq_USunple_CSunple1_RW	acq4567_RW	6	3	400	1	300	300	382	46	0	1	1	blank2r.bmp	0	1	+	0	1	blank2r.bmp	492	1	DXXD	492	1	blank2r.bmp	572	2	gierig	866	1	!	1239	1	!	1279	0	0	0	0	0	0	0	0	0	0	0	0	0	0	0	0	0	0	0	0	0	0	0	0	0	0	0	0	0	0
071719	15:19:58	15:32:00	721224	5.0.10.0	5_exp_RW	65	Rpleas_acq	CS_A	ZHHZ	YFFY	DXXD	JQQJ	CPPC	LWWL	genießen	gütig	küssen	träumen	sonnig	vertrauen	gemein	gierig	krank	töten	sterben	versagen	1	acq_USunple_CSunple2_RW	acq4567_RW	6	4	400	0	300	300	574	46	0	1	1	blank2r.bmp	0	1	+	0	1	blank2r.bmp	492	1	JQQJ	492	1	blank2r.bmp	572	2	sterben	866	1	!	1239	1	!	-1	0	0	0	0	0	0	0	0	0	0	0	0	0	0	0	0	0	0	0	0	0	0	0	0	0	0	0	0	0	0
071719	15:19:58	15:32:02	723290	5.0.10.0	5_exp_RW	65	Rpleas_acq	CS_A	ZHHZ	YFFY	DXXD	JQQJ	CPPC	LWWL	genießen	gütig	küssen	träumen	sonnig	vertrauen	gemein	gierig	krank	töten	sterben	versagen	1	acq_USpleas_CSpleas2_RW	acq4567_RW	6	5	400	0	300	300	269	50	0	1	1	blank2r.bmp	0	1	+	0	1	blank2r.bmp	492	1	YFFY	492	1	blank2r.bmp	572	2	sonnig	866	1	!	-1	1	!	-1	0	0	0	0	0	0	0	0	0	0	0	0	0	0	0	0	0	0	0	0	0	0	0	0	0	0	0	0	0	0
071719	15:19:58	15:32:04	725449	5.0.10.0	5_exp_RW	65	Rpleas_acq	CS_A	ZHHZ	YFFY	DXXD	JQQJ	CPPC	LWWL	genießen	gütig	küssen	träumen	sonnig	vertrauen	gemein	gierig	krank	töten	sterben	versagen	1	acq_USpleas_CSpleas1_RW	acq4567_RW	6	6	400	1	300	300	355	50	0	1	1	blank2r.bmp	0	1	+	0	1	blank2r.bmp	492	1	ZHHZ	492	1	blank2r.bmp	572	2	gütig	866	1	!	1239	1	!	1252	0	0	0	0	0	0	0	0	0	0	0	0	0	0	0	0	0	0	0	0	0	0	0	0	0	0	0	0	0	0
071719	15:19:58	15:32:06	727501	5.0.10.0	5_exp_RW	65	Rpleas_acq	CS_A	ZHHZ	YFFY	DXXD	JQQJ	CPPC	LWWL	genießen	gütig	küssen	träumen	sonnig	vertrauen	gemein	gierig	krank	töten	sterben	versagen	1	acq_USpleas_CSpleas1_RW	acq4567_RW	6	7	400	0	300	300	278	50	0	1	1	blank2r.bmp	0	1	+	0	1	blank2r.bmp	492	1	ZHHZ	492	1	blank2r.bmp	572	3	küssen	866	1	!	-1	1	!	-1	0	0	0	0	0	0	0	0	0	0	0	0	0	0	0	0	0	0	0	0	0	0	0	0	0	0	0	0	0	0
071719	15:19:58	15:32:08	729660	5.0.10.0	5_exp_RW	65	Rpleas_acq	CS_A	ZHHZ	YFFY	DXXD	JQQJ	CPPC	LWWL	genießen	gütig	küssen	träumen	sonnig	vertrauen	gemein	gierig	krank	töten	sterben	versagen	1	acq_USpleas_CSpleas2_RW	acq4567_RW	6	8	400	1	300	300	349	50	0	1	1	blank2r.bmp	0	1	+	0	1	blank2r.bmp	492	1	YFFY	492	1	blank2r.bmp	572	1	träumen	866	1	!	1239	1	!	1252	0	0	0	0	0	0	0	0	0	0	0	0	0	0	0	0	0	0	0	0	0	0	0	0	0	0	0	0	0	0
071719	15:19:58	15:32:10	731820	5.0.10.0	5_exp_RW	65	Rpleas_acq	CS_A	ZHHZ	YFFY	DXXD	JQQJ	CPPC	LWWL	genießen	gütig	küssen	träumen	sonnig	vertrauen	gemein	gierig	krank	töten	sterben	versagen	1	acq_USunple_CSunple2_RW	acq4567_RW	6	9	400	1	300	300	356	50	0	0	1	blank2r.bmp	0	1	+	0	1	blank2r.bmp	492	1	JQQJ	492	1	blank2r.bmp	572	3	versagen	866	1	!	1239	1	!	1252	0	0	0	0	0	0	0	0	0	0	0	0	0	0	0	0	0	0	0	0	0	0	0	0	0	0	0	0	0	0
071719	15:19:58	15:32:12	734032	5.0.10.0	5_exp_RW	65	Rpleas_acq	CS_A	ZHHZ	YFFY	DXXD	JQQJ	CPPC	LWWL	genießen	gütig	küssen	träumen	sonnig	vertrauen	gemein	gierig	krank	töten	sterben	versagen	1	acq_USunple_CSunple1_RW	acq4567_RW	6	10	400	1	300	300	412	46	0	1	1	blank2r.bmp	0	1	+	0	1	blank2r.bmp	492	1	DXXD	492	1	blank2r.bmp	572	1	gemein	866	1	!	1239	1	!	1319	0	0	0	0	0	0	0	0	0	0	0	0	0	0	0	0	0	0	0	0	0	0	0	0	0	0	0	0	0	0
071719	15:19:58	15:32:15	736204	5.0.10.0	5_exp_RW	65	Rpleas_acq	CS_A	ZHHZ	YFFY	DXXD	JQQJ	CPPC	LWWL	genießen	gütig	küssen	träumen	sonnig	vertrauen	gemein	gierig	krank	töten	sterben	versagen	1	acq_USunple_CSunple2_RW	acq4567_RW	6	11	400	1	300	300	376	46	0	1	1	blank2r.bmp	0	1	+	0	1	blank2r.bmp	492	1	JQQJ	492	1	blank2r.bmp	572	2	sterben	866	1	!	1239	1	!	1279	0	0	0	0	0	0	0	0	0	0	0	0	0	0	0	0	0	0	0	0	0	0	0	0	0	0	0	0	0	0
071719	15:19:58	15:32:17	738350	5.0.10.0	5_exp_RW	65	Rpleas_acq	CS_A	ZHHZ	YFFY	DXXD	JQQJ	CPPC	LWWL	genießen	gütig	küssen	träumen	sonnig	vertrauen	gemein	gierig	krank	töten	sterben	versagen	1	acq_USunple_CSunple2_RW	acq4567_RW	6	12	400	1	300	300	355	46	0	1	1	blank2r.bmp	0	1	+	0	1	blank2r.bmp	492	1	JQQJ	492	1	blank2r.bmp	572	1	töten	866	1	!	1239	1	!	1252	0	0	0	0	0	0	0	0	0	0	0	0	0	0	0	0	0	0	0	0	0	0	0	0	0	0	0	0	0	0
071719	15:19:58	15:32:19	740429	5.0.10.0	5_exp_RW	65	Rpleas_acq	CS_A	ZHHZ	YFFY	DXXD	JQQJ	CPPC	LWWL	genießen	gütig	küssen	träumen	sonnig	vertrauen	gemein	gierig	krank	töten	sterben	versagen	1	acq_USunple_CSunple1_RW	acq4567_RW	6	13	400	0	300	300	297	46	0	1	1	blank2r.bmp	0	1	+	0	1	blank2r.bmp	492	1	DXXD	492	1	blank2r.bmp	572	2	gierig	866	1	!	-1	1	!	-1	0	0	0	0	0	0	0	0	0	0	0	0	0	0	0	0	0	0	0	0	0	0	0	0	0	0	0	0	0	0
