date	time	script.currenttime	script.elapsedtime	build	script.currentexpt	subject	expressions.LRpleas_acq	expressions.conditionCS_A	expressions.CSpleas_1	expressions.CSpleas_2	expressions.CSunple_1	expressions.CSunple_2	expressions.distractor_1	expressions.distractor_2	expressions.US_pleas1	expressions.US_pleas2	expressions.US_pleas3	expressions.US_pleas4	expressions.US_pleas5	expressions.US_pleas6	expressions.US_unple1	expressions.US_unple2	expressions.US_unple3	expressions.US_unple4	expressions.US_unple5	expressions.US_unple6	counter.positions_noRW	trialcode	blockcode	blocknum	trialnum	windowcenter	inwindow	pretrialpause	posttrialpause	latency	response	expressions.correctedscore	correct	stimulusnumber1	stimulusitem1	stimulusonset1	stimulusnumber2	stimulusitem2	stimulusonset2	stimulusnumber3	stimulusitem3	stimulusonset3	stimulusnumber4	stimulusitem4	stimulusonset4	stimulusnumber5	stimulusitem5	stimulusonset5	stimulusnumber6	stimulusitem6	stimulusonset6	stimulusnumber7	stimulusitem7	stimulusonset7	stimulusnumber8	stimulusitem8	stimulusonset8	stimulusnumber9	stimulusitem9	stimulusonset9	stimulusnumber10	stimulusitem10	stimulusonset10	stimulusnumber11	stimulusitem11	stimulusonset11	stimulusnumber12	stimulusitem12	stimulusonset12	stimulusnumber13	stimulusitem13	stimulusonset13	stimulusnumber14	stimulusitem14	stimulusonset14	stimulusnumber15	stimulusitem15	stimulusonset15	stimulusnumber16	stimulusitem16	stimulusonset16	stimulusnumber17	stimulusitem17	stimulusonset17	stimulusnumber18	stimulusitem18	stimulusonset18
071719	11:55:15	11:56:34	78807	5.0.10.0	5_exp_RW	61	Rpleas_acq	CS_A	JQQJ	YFFY	DXXD	CPPC	ZHHZ	LWWL	vertrauen	sonnig	gütig	genießen	träumen	küssen	versagen	sterben	gierig	gemein	töten	krank	1	acq_USunple_CSunple2_RW	acq1_RW	1	1	0	0	300	300	643	46	0	1	1	blank2r.bmp	0	1	+	0	1	blank2r.bmp	492	1	CPPC	492	1	blank2r.bmp	572	2	töten	866	0	0	0	0	0	0	0	0	0	0	0	0	0	0	0	0	0	0	0	0	0	0	0	0	0	0	0	0	0	0	0	0	0	0	0	0
071719	11:55:15	11:56:37	80859	5.0.10.0	5_exp_RW	61	Rpleas_acq	CS_A	JQQJ	YFFY	DXXD	CPPC	ZHHZ	LWWL	vertrauen	sonnig	gütig	genießen	träumen	küssen	versagen	sterben	gierig	gemein	töten	krank	1	acq_USunple_CSunple1_RW	acq1_RW	1	2	0	0	300	300	578	46	0	1	1	blank2r.bmp	0	1	+	0	1	blank2r.bmp	492	1	DXXD	492	1	blank2r.bmp	572	2	sterben	866	0	0	0	0	0	0	0	0	0	0	0	0	0	0	0	0	0	0	0	0	0	0	0	0	0	0	0	0	0	0	0	0	0	0	0	0
071719	11:55:15	11:56:39	82899	5.0.10.0	5_exp_RW	61	Rpleas_acq	CS_A	JQQJ	YFFY	DXXD	CPPC	ZHHZ	LWWL	vertrauen	sonnig	gütig	genießen	träumen	küssen	versagen	sterben	gierig	gemein	töten	krank	1	acq_USpleas_CSpleas2_RW	acq1_RW	1	3	0	0	300	300	550	50	0	1	1	blank2r.bmp	0	1	+	0	1	blank2r.bmp	492	1	YFFY	492	1	blank2r.bmp	572	1	genießen	866	0	0	0	0	0	0	0	0	0	0	0	0	0	0	0	0	0	0	0	0	0	0	0	0	0	0	0	0	0	0	0	0	0	0	0	0
071719	11:55:15	11:56:41	85084	5.0.10.0	5_exp_RW	61	Rpleas_acq	CS_A	JQQJ	YFFY	DXXD	CPPC	ZHHZ	LWWL	vertrauen	sonnig	gütig	genießen	träumen	küssen	versagen	sterben	gierig	gemein	töten	krank	1	acq_USpleas_CSpleas1_RW	acq1_RW	1	4	0	0	300	300	711	50	0	1	1	blank2r.bmp	0	1	+	0	1	blank2r.bmp	492	1	JQQJ	492	1	blank2r.bmp	572	3	gütig	866	0	0	0	0	0	0	0	0	0	0	0	0	0	0	0	0	0	0	0	0	0	0	0	0	0	0	0	0	0	0	0	0	0	0	0	0
071719	11:55:15	11:56:43	87283	5.0.10.0	5_exp_RW	61	Rpleas_acq	CS_A	JQQJ	YFFY	DXXD	CPPC	ZHHZ	LWWL	vertrauen	sonnig	gütig	genießen	träumen	küssen	versagen	sterben	gierig	gemein	töten	krank	1	acq_USpleas_CSpleas1_RW	acq1_RW	1	5	0	0	300	300	706	50	0	1	1	blank2r.bmp	0	1	+	0	1	blank2r.bmp	492	1	JQQJ	492	1	blank2r.bmp	572	2	sonnig	866	0	0	0	0	0	0	0	0	0	0	0	0	0	0	0	0	0	0	0	0	0	0	0	0	0	0	0	0	0	0	0	0	0	0	0	0
071719	11:55:15	11:56:45	89363	5.0.10.0	5_exp_RW	61	Rpleas_acq	CS_A	JQQJ	YFFY	DXXD	CPPC	ZHHZ	LWWL	vertrauen	sonnig	gütig	genießen	träumen	küssen	versagen	sterben	gierig	gemein	töten	krank	1	acq_USunple_CSunple2_RW	acq1_RW	1	6	0	0	300	300	598	46	0	1	1	blank2r.bmp	0	1	+	0	1	blank2r.bmp	492	1	CPPC	492	1	blank2r.bmp	572	1	gemein	866	0	0	0	0	0	0	0	0	0	0	0	0	0	0	0	0	0	0	0	0	0	0	0	0	0	0	0	0	0	0	0	0	0	0	0	0
071719	11:55:15	11:56:47	91322	5.0.10.0	5_exp_RW	61	Rpleas_acq	CS_A	JQQJ	YFFY	DXXD	CPPC	ZHHZ	LWWL	vertrauen	sonnig	gütig	genießen	träumen	küssen	versagen	sterben	gierig	gemein	töten	krank	1	acq_USpleas_CSpleas2_RW	acq1_RW	1	7	0	0	300	300	481	50	0	1	1	blank2r.bmp	0	1	+	0	1	blank2r.bmp	492	1	YFFY	492	1	blank2r.bmp	572	3	küssen	866	0	0	0	0	0	0	0	0	0	0	0	0	0	0	0	0	0	0	0	0	0	0	0	0	0	0	0	0	0	0	0	0	0	0	0	0
071719	11:55:15	11:56:49	93374	5.0.10.0	5_exp_RW	61	Rpleas_acq	CS_A	JQQJ	YFFY	DXXD	CPPC	ZHHZ	LWWL	vertrauen	sonnig	gütig	genießen	träumen	küssen	versagen	sterben	gierig	gemein	töten	krank	1	acq_USunple_CSunple1_RW	acq1_RW	1	8	0	0	300	300	583	46	0	1	1	blank2r.bmp	0	1	+	0	1	blank2r.bmp	492	1	DXXD	492	1	blank2r.bmp	572	1	versagen	866	0	0	0	0	0	0	0	0	0	0	0	0	0	0	0	0	0	0	0	0	0	0	0	0	0	0	0	0	0	0	0	0	0	0	0	0
071719	11:55:15	11:56:51	95400	5.0.10.0	5_exp_RW	61	Rpleas_acq	CS_A	JQQJ	YFFY	DXXD	CPPC	ZHHZ	LWWL	vertrauen	sonnig	gütig	genießen	träumen	küssen	versagen	sterben	gierig	gemein	töten	krank	1	acq_USunple_CSunple1_RW	acq1_RW	1	9	0	0	300	300	531	46	0	1	1	blank2r.bmp	0	1	+	0	1	blank2r.bmp	492	1	DXXD	492	1	blank2r.bmp	572	3	gierig	866	0	0	0	0	0	0	0	0	0	0	0	0	0	0	0	0	0	0	0	0	0	0	0	0	0	0	0	0	0	0	0	0	0	0	0	0
071719	11:55:15	11:56:53	97346	5.0.10.0	5_exp_RW	61	Rpleas_acq	CS_A	JQQJ	YFFY	DXXD	CPPC	ZHHZ	LWWL	vertrauen	sonnig	gütig	genießen	träumen	küssen	versagen	sterben	gierig	gemein	töten	krank	1	acq_USunple_CSunple2_RW	acq1_RW	1	10	0	0	300	300	471	46	0	1	1	blank2r.bmp	0	1	+	0	1	blank2r.bmp	492	1	CPPC	492	1	blank2r.bmp	572	3	krank	866	0	0	0	0	0	0	0	0	0	0	0	0	0	0	0	0	0	0	0	0	0	0	0	0	0	0	0	0	0	0	0	0	0	0	0	0
071719	11:55:15	11:56:55	99305	5.0.10.0	5_exp_RW	61	Rpleas_acq	CS_A	JQQJ	YFFY	DXXD	CPPC	ZHHZ	LWWL	vertrauen	sonnig	gütig	genießen	träumen	küssen	versagen	sterben	gierig	gemein	töten	krank	1	acq_USpleas_CSpleas1_RW	acq1_RW	1	11	0	0	300	300	472	50	0	1	1	blank2r.bmp	0	1	+	0	1	blank2r.bmp	492	1	JQQJ	492	1	blank2r.bmp	572	1	vertrauen	866	0	0	0	0	0	0	0	0	0	0	0	0	0	0	0	0	0	0	0	0	0	0	0	0	0	0	0	0	0	0	0	0	0	0	0	0
071719	11:55:15	11:56:57	101251	5.0.10.0	5_exp_RW	61	Rpleas_acq	CS_A	JQQJ	YFFY	DXXD	CPPC	ZHHZ	LWWL	vertrauen	sonnig	gütig	genießen	träumen	küssen	versagen	sterben	gierig	gemein	töten	krank	1	acq_USunple_CSunple2_RW	acq1_RW	1	12	0	0	300	300	475	46	0	1	1	blank2r.bmp	0	1	+	0	1	blank2r.bmp	492	1	CPPC	492	1	blank2r.bmp	572	2	töten	866	0	0	0	0	0	0	0	0	0	0	0	0	0	0	0	0	0	0	0	0	0	0	0	0	0	0	0	0	0	0	0	0	0	0	0	0
071719	11:55:15	11:56:59	103237	5.0.10.0	5_exp_RW	61	Rpleas_acq	CS_A	JQQJ	YFFY	DXXD	CPPC	ZHHZ	LWWL	vertrauen	sonnig	gütig	genießen	träumen	küssen	versagen	sterben	gierig	gemein	töten	krank	1	acq_USpleas_CSpleas2_RW	acq1_RW	1	13	0	0	300	300	498	50	0	1	1	blank2r.bmp	0	1	+	0	1	blank2r.bmp	492	1	YFFY	492	1	blank2r.bmp	572	2	träumen	866	0	0	0	0	0	0	0	0	0	0	0	0	0	0	0	0	0	0	0	0	0	0	0	0	0	0	0	0	0	0	0	0	0	0	0	0
071719	11:55:15	11:57:01	105169	5.0.10.0	5_exp_RW	61	Rpleas_acq	CS_A	JQQJ	YFFY	DXXD	CPPC	ZHHZ	LWWL	vertrauen	sonnig	gütig	genießen	träumen	küssen	versagen	sterben	gierig	gemein	töten	krank	1	acq_USpleas_CSpleas2_RW	acq1_RW	1	14	0	0	300	300	455	50	0	1	1	blank2r.bmp	0	1	+	0	1	blank2r.bmp	492	1	YFFY	492	1	blank2r.bmp	572	1	genießen	866	0	0	0	0	0	0	0	0	0	0	0	0	0	0	0	0	0	0	0	0	0	0	0	0	0	0	0	0	0	0	0	0	0	0	0	0
071719	11:55:15	11:57:03	107102	5.0.10.0	5_exp_RW	61	Rpleas_acq	CS_A	JQQJ	YFFY	DXXD	CPPC	ZHHZ	LWWL	vertrauen	sonnig	gütig	genießen	träumen	küssen	versagen	sterben	gierig	gemein	töten	krank	1	acq_USunple_CSunple1_RW	acq1_RW	1	15	0	0	300	300	464	46	0	1	1	blank2r.bmp	0	1	+	0	1	blank2r.bmp	492	1	DXXD	492	1	blank2r.bmp	572	3	gierig	866	0	0	0	0	0	0	0	0	0	0	0	0	0	0	0	0	0	0	0	0	0	0	0	0	0	0	0	0	0	0	0	0	0	0	0	0
071719	11:55:15	11:57:05	109101	5.0.10.0	5_exp_RW	61	Rpleas_acq	CS_A	JQQJ	YFFY	DXXD	CPPC	ZHHZ	LWWL	vertrauen	sonnig	gütig	genießen	träumen	küssen	versagen	sterben	gierig	gemein	töten	krank	1	acq_USpleas_CSpleas1_RW	acq1_RW	1	16	0	0	300	300	512	50	0	1	1	blank2r.bmp	0	1	+	0	1	blank2r.bmp	492	1	JQQJ	492	1	blank2r.bmp	572	3	gütig	866	0	0	0	0	0	0	0	0	0	0	0	0	0	0	0	0	0	0	0	0	0	0	0	0	0	0	0	0	0	0	0	0	0	0	0	0
071719	11:55:15	11:57:43	147219	5.0.10.0	5_exp_RW	61	Rpleas_acq	CS_A	JQQJ	YFFY	DXXD	CPPC	ZHHZ	LWWL	vertrauen	sonnig	gütig	genießen	träumen	küssen	versagen	sterben	gierig	gemein	töten	krank	1	acq_USunple_CSunple1_RW	acq2_RW	2	1	480	0	300	300	365	46	0	1	1	blank2r.bmp	0	1	+	0	1	blank2r.bmp	492	1	DXXD	492	1	blank2r.bmp	572	2	sterben	866	1	!	-1	1	!	-1	0	0	0	0	0	0	0	0	0	0	0	0	0	0	0	0	0	0	0	0	0	0	0	0	0	0	0	0	0	0
071719	11:55:15	11:57:45	149711	5.0.10.0	5_exp_RW	61	Rpleas_acq	CS_A	JQQJ	YFFY	DXXD	CPPC	ZHHZ	LWWL	vertrauen	sonnig	gütig	genießen	träumen	küssen	versagen	sterben	gierig	gemein	töten	krank	1	acq_USunple_CSunple2_RW	acq2_RW	2	2	480	0	300	300	711	46	0	1	1	blank2r.bmp	0	1	+	0	1	blank2r.bmp	492	1	CPPC	492	1	blank2r.bmp	572	1	gemein	866	1	!	1319	1	!	-1	0	0	0	0	0	0	0	0	0	0	0	0	0	0	0	0	0	0	0	0	0	0	0	0	0	0	0	0	0	0
071719	11:55:15	11:57:47	151804	5.0.10.0	5_exp_RW	61	Rpleas_acq	CS_A	JQQJ	YFFY	DXXD	CPPC	ZHHZ	LWWL	vertrauen	sonnig	gütig	genießen	träumen	küssen	versagen	sterben	gierig	gemein	töten	krank	1	acq_USpleas_CSpleas2_RW	acq2_RW	2	3	480	0	300	300	314	50	0	1	1	blank2r.bmp	0	1	+	0	1	blank2r.bmp	492	1	YFFY	492	1	blank2r.bmp	572	3	küssen	866	1	!	-1	1	!	-1	0	0	0	0	0	0	0	0	0	0	0	0	0	0	0	0	0	0	0	0	0	0	0	0	0	0	0	0	0	0
071719	11:55:15	11:57:50	154149	5.0.10.0	5_exp_RW	61	Rpleas_acq	CS_A	JQQJ	YFFY	DXXD	CPPC	ZHHZ	LWWL	vertrauen	sonnig	gütig	genießen	träumen	küssen	versagen	sterben	gierig	gemein	töten	krank	1	acq_USpleas_CSpleas1_RW	acq2_RW	2	4	480	1	300	300	541	50	0	1	1	blank2r.bmp	0	1	+	0	1	blank2r.bmp	492	1	JQQJ	492	1	blank2r.bmp	572	1	vertrauen	866	1	!	1319	1	!	1439	0	0	0	0	0	0	0	0	0	0	0	0	0	0	0	0	0	0	0	0	0	0	0	0	0	0	0	0	0	0
071719	11:55:15	11:57:52	156375	5.0.10.0	5_exp_RW	61	Rpleas_acq	CS_A	JQQJ	YFFY	DXXD	CPPC	ZHHZ	LWWL	vertrauen	sonnig	gütig	genießen	träumen	küssen	versagen	sterben	gierig	gemein	töten	krank	1	acq_USpleas_CSpleas2_RW	acq2_RW	2	5	480	1	300	300	426	50	0	1	1	blank2r.bmp	0	1	+	0	1	blank2r.bmp	492	1	YFFY	492	1	blank2r.bmp	572	2	träumen	866	1	!	1319	1	!	1332	0	0	0	0	0	0	0	0	0	0	0	0	0	0	0	0	0	0	0	0	0	0	0	0	0	0	0	0	0	0
071719	11:55:15	11:57:54	158694	5.0.10.0	5_exp_RW	61	Rpleas_acq	CS_A	JQQJ	YFFY	DXXD	CPPC	ZHHZ	LWWL	vertrauen	sonnig	gütig	genießen	träumen	küssen	versagen	sterben	gierig	gemein	töten	krank	1	acq_USunple_CSunple1_RW	acq2_RW	2	6	480	1	300	300	525	46	0	1	1	blank2r.bmp	0	1	+	0	1	blank2r.bmp	492	1	DXXD	492	1	blank2r.bmp	572	1	versagen	866	1	!	1319	1	!	1426	0	0	0	0	0	0	0	0	0	0	0	0	0	0	0	0	0	0	0	0	0	0	0	0	0	0	0	0	0	0
071719	11:55:15	11:57:57	161000	5.0.10.0	5_exp_RW	61	Rpleas_acq	CS_A	JQQJ	YFFY	DXXD	CPPC	ZHHZ	LWWL	vertrauen	sonnig	gütig	genießen	träumen	küssen	versagen	sterben	gierig	gemein	töten	krank	1	acq_USunple_CSunple2_RW	acq2_RW	2	7	480	0	300	300	307	50	0	0	1	blank2r.bmp	0	1	+	0	1	blank2r.bmp	492	1	CPPC	492	1	blank2r.bmp	572	3	krank	866	1	FEHLER	1519	1	!	-1	1	!	-1	0	0	0	0	0	0	0	0	0	0	0	0	0	0	0	0	0	0	0	0	0	0	0	0	0	0	0
071719	11:55:15	11:57:59	163052	5.0.10.0	5_exp_RW	61	Rpleas_acq	CS_A	JQQJ	YFFY	DXXD	CPPC	ZHHZ	LWWL	vertrauen	sonnig	gütig	genießen	träumen	küssen	versagen	sterben	gierig	gemein	töten	krank	1	acq_USpleas_CSpleas2_RW	acq2_RW	2	8	480	1	300	300	473	50	0	1	1	blank2r.bmp	0	1	+	0	1	blank2r.bmp	492	1	YFFY	492	1	blank2r.bmp	572	2	träumen	866	1	!	1319	1	!	1372	0	0	0	0	0	0	0	0	0	0	0	0	0	0	0	0	0	0	0	0	0	0	0	0	0	0	0	0	0	0
071719	11:55:15	11:58:01	165278	5.0.10.0	5_exp_RW	61	Rpleas_acq	CS_A	JQQJ	YFFY	DXXD	CPPC	ZHHZ	LWWL	vertrauen	sonnig	gütig	genießen	träumen	küssen	versagen	sterben	gierig	gemein	töten	krank	1	acq_USpleas_CSpleas2_RW	acq2_RW	2	9	480	1	300	300	434	50	0	1	1	blank2r.bmp	0	1	+	0	1	blank2r.bmp	492	1	YFFY	492	1	blank2r.bmp	572	1	genießen	866	1	!	1319	1	!	1332	0	0	0	0	0	0	0	0	0	0	0	0	0	0	0	0	0	0	0	0	0	0	0	0	0	0	0	0	0	0
071719	11:55:15	11:58:03	167517	5.0.10.0	5_exp_RW	61	Rpleas_acq	CS_A	JQQJ	YFFY	DXXD	CPPC	ZHHZ	LWWL	vertrauen	sonnig	gütig	genießen	träumen	küssen	versagen	sterben	gierig	gemein	töten	krank	1	acq_USpleas_CSpleas1_RW	acq2_RW	2	10	480	1	300	300	447	50	0	1	1	blank2r.bmp	0	1	+	0	1	blank2r.bmp	492	1	JQQJ	492	1	blank2r.bmp	572	2	sonnig	866	1	!	1319	1	!	1346	0	0	0	0	0	0	0	0	0	0	0	0	0	0	0	0	0	0	0	0	0	0	0	0	0	0	0	0	0	0
071719	11:55:15	11:58:05	169583	5.0.10.0	5_exp_RW	61	Rpleas_acq	CS_A	JQQJ	YFFY	DXXD	CPPC	ZHHZ	LWWL	vertrauen	sonnig	gütig	genießen	träumen	küssen	versagen	sterben	gierig	gemein	töten	krank	1	acq_USunple_CSunple1_RW	acq2_RW	2	11	480	0	300	300	298	46	0	1	1	blank2r.bmp	0	1	+	0	1	blank2r.bmp	492	1	DXXD	492	1	blank2r.bmp	572	2	sterben	866	1	!	-1	1	!	-1	0	0	0	0	0	0	0	0	0	0	0	0	0	0	0	0	0	0	0	0	0	0	0	0	0	0	0	0	0	0
071719	11:55:15	11:58:07	171782	5.0.10.0	5_exp_RW	61	Rpleas_acq	CS_A	JQQJ	YFFY	DXXD	CPPC	ZHHZ	LWWL	vertrauen	sonnig	gütig	genießen	träumen	küssen	versagen	sterben	gierig	gemein	töten	krank	1	acq_USunple_CSunple1_RW	acq2_RW	2	12	480	0	300	300	406	46	0	1	1	blank2r.bmp	0	1	+	0	1	blank2r.bmp	492	1	DXXD	492	1	blank2r.bmp	572	1	versagen	866	1	!	-1	1	!	-1	0	0	0	0	0	0	0	0	0	0	0	0	0	0	0	0	0	0	0	0	0	0	0	0	0	0	0	0	0	0
071719	11:55:15	11:58:10	174035	5.0.10.0	5_exp_RW	61	Rpleas_acq	CS_A	JQQJ	YFFY	DXXD	CPPC	ZHHZ	LWWL	vertrauen	sonnig	gütig	genießen	träumen	küssen	versagen	sterben	gierig	gemein	töten	krank	1	acq_USpleas_CSpleas2_RW	acq2_RW	2	13	480	1	300	300	426	50	0	1	1	blank2r.bmp	0	1	+	0	1	blank2r.bmp	492	1	YFFY	492	1	blank2r.bmp	572	3	küssen	866	1	!	1319	1	!	1332	0	0	0	0	0	0	0	0	0	0	0	0	0	0	0	0	0	0	0	0	0	0	0	0	0	0	0	0	0	0
071719	11:55:15	11:58:12	176420	5.0.10.0	5_exp_RW	61	Rpleas_acq	CS_A	JQQJ	YFFY	DXXD	CPPC	ZHHZ	LWWL	vertrauen	sonnig	gütig	genießen	träumen	küssen	versagen	sterben	gierig	gemein	töten	krank	1	acq_USpleas_CSpleas1_RW	acq2_RW	2	14	480	0	300	300	619	50	0	1	1	blank2r.bmp	0	1	+	0	1	blank2r.bmp	492	1	JQQJ	492	1	blank2r.bmp	572	3	gütig	866	1	!	1319	1	!	-1	0	0	0	0	0	0	0	0	0	0	0	0	0	0	0	0	0	0	0	0	0	0	0	0	0	0	0	0	0	0
071719	11:55:15	11:58:14	178566	5.0.10.0	5_exp_RW	61	Rpleas_acq	CS_A	JQQJ	YFFY	DXXD	CPPC	ZHHZ	LWWL	vertrauen	sonnig	gütig	genießen	träumen	küssen	versagen	sterben	gierig	gemein	töten	krank	1	acq_USunple_CSunple2_RW	acq2_RW	2	15	480	0	300	300	370	46	0	1	1	blank2r.bmp	0	1	+	0	1	blank2r.bmp	492	1	CPPC	492	1	blank2r.bmp	572	3	krank	866	1	!	-1	1	!	-1	0	0	0	0	0	0	0	0	0	0	0	0	0	0	0	0	0	0	0	0	0	0	0	0	0	0	0	0	0	0
071719	11:55:15	11:58:16	180738	5.0.10.0	5_exp_RW	61	Rpleas_acq	CS_A	JQQJ	YFFY	DXXD	CPPC	ZHHZ	LWWL	vertrauen	sonnig	gütig	genießen	träumen	küssen	versagen	sterben	gierig	gemein	töten	krank	1	acq_USunple_CSunple1_RW	acq2_RW	2	16	480	0	300	300	393	46	0	1	1	blank2r.bmp	0	1	+	0	1	blank2r.bmp	492	1	DXXD	492	1	blank2r.bmp	572	3	gierig	866	1	!	-1	1	!	-1	0	0	0	0	0	0	0	0	0	0	0	0	0	0	0	0	0	0	0	0	0	0	0	0	0	0	0	0	0	0
071719	11:55:15	11:58:19	182978	5.0.10.0	5_exp_RW	61	Rpleas_acq	CS_A	JQQJ	YFFY	DXXD	CPPC	ZHHZ	LWWL	vertrauen	sonnig	gütig	genießen	träumen	küssen	versagen	sterben	gierig	gemein	töten	krank	1	acq_USunple_CSunple2_RW	acq2_RW	2	17	480	1	300	300	426	46	0	1	1	blank2r.bmp	0	1	+	0	1	blank2r.bmp	492	1	CPPC	492	1	blank2r.bmp	572	1	gemein	866	1	!	1319	1	!	1332	0	0	0	0	0	0	0	0	0	0	0	0	0	0	0	0	0	0	0	0	0	0	0	0	0	0	0	0	0	0
071719	11:55:15	11:58:21	185203	5.0.10.0	5_exp_RW	61	Rpleas_acq	CS_A	JQQJ	YFFY	DXXD	CPPC	ZHHZ	LWWL	vertrauen	sonnig	gütig	genießen	träumen	küssen	versagen	sterben	gierig	gemein	töten	krank	1	acq_USpleas_CSpleas1_RW	acq2_RW	2	18	480	1	300	300	426	50	0	1	1	blank2r.bmp	0	1	+	0	1	blank2r.bmp	492	1	JQQJ	492	1	blank2r.bmp	572	2	sonnig	866	1	!	1319	1	!	1332	0	0	0	0	0	0	0	0	0	0	0	0	0	0	0	0	0	0	0	0	0	0	0	0	0	0	0	0	0	0
071719	11:55:15	11:58:23	187642	5.0.10.0	5_exp_RW	61	Rpleas_acq	CS_A	JQQJ	YFFY	DXXD	CPPC	ZHHZ	LWWL	vertrauen	sonnig	gütig	genießen	träumen	küssen	versagen	sterben	gierig	gemein	töten	krank	1	acq_USunple_CSunple1_RW	acq2_RW	2	19	480	1	300	300	426	50	0	0	1	blank2r.bmp	0	1	+	0	1	blank2r.bmp	492	1	DXXD	492	1	blank2r.bmp	572	3	gierig	866	1	FEHLER	1652	1	!	1319	1	!	1332	0	0	0	0	0	0	0	0	0	0	0	0	0	0	0	0	0	0	0	0	0	0	0	0	0	0	0
071719	11:55:15	11:58:25	189748	5.0.10.0	5_exp_RW	61	Rpleas_acq	CS_A	JQQJ	YFFY	DXXD	CPPC	ZHHZ	LWWL	vertrauen	sonnig	gütig	genießen	träumen	küssen	versagen	sterben	gierig	gemein	töten	krank	1	acq_USpleas_CSpleas1_RW	acq2_RW	2	20	480	1	300	300	524	50	0	1	1	blank2r.bmp	0	1	+	0	1	blank2r.bmp	492	1	JQQJ	492	1	blank2r.bmp	572	1	vertrauen	866	1	!	1319	1	!	1426	0	0	0	0	0	0	0	0	0	0	0	0	0	0	0	0	0	0	0	0	0	0	0	0	0	0	0	0	0	0
071719	11:55:15	11:58:27	191827	5.0.10.0	5_exp_RW	61	Rpleas_acq	CS_A	JQQJ	YFFY	DXXD	CPPC	ZHHZ	LWWL	vertrauen	sonnig	gütig	genießen	träumen	küssen	versagen	sterben	gierig	gemein	töten	krank	1	acq_USunple_CSunple2_RW	acq2_RW	2	21	480	0	300	300	313	46	0	1	1	blank2r.bmp	0	1	+	0	1	blank2r.bmp	492	1	CPPC	492	1	blank2r.bmp	572	2	töten	866	1	!	-1	1	!	-1	0	0	0	0	0	0	0	0	0	0	0	0	0	0	0	0	0	0	0	0	0	0	0	0	0	0	0	0	0	0
071719	11:55:15	11:58:30	194026	5.0.10.0	5_exp_RW	61	Rpleas_acq	CS_A	JQQJ	YFFY	DXXD	CPPC	ZHHZ	LWWL	vertrauen	sonnig	gütig	genießen	träumen	küssen	versagen	sterben	gierig	gemein	töten	krank	1	acq_USpleas_CSpleas2_RW	acq2_RW	2	22	480	0	300	300	410	50	0	1	1	blank2r.bmp	0	1	+	0	1	blank2r.bmp	492	1	YFFY	492	1	blank2r.bmp	572	2	träumen	866	1	!	-1	1	!	-1	0	0	0	0	0	0	0	0	0	0	0	0	0	0	0	0	0	0	0	0	0	0	0	0	0	0	0	0	0	0
071719	11:55:15	11:58:32	196225	5.0.10.0	5_exp_RW	61	Rpleas_acq	CS_A	JQQJ	YFFY	DXXD	CPPC	ZHHZ	LWWL	vertrauen	sonnig	gütig	genießen	träumen	küssen	versagen	sterben	gierig	gemein	töten	krank	1	acq_USunple_CSunple2_RW	acq2_RW	2	23	480	0	300	300	406	46	0	1	1	blank2r.bmp	0	1	+	0	1	blank2r.bmp	492	1	CPPC	492	1	blank2r.bmp	572	2	töten	866	1	!	-1	1	!	-1	0	0	0	0	0	0	0	0	0	0	0	0	0	0	0	0	0	0	0	0	0	0	0	0	0	0	0	0	0	0
071719	11:55:15	11:58:34	198465	5.0.10.0	5_exp_RW	61	Rpleas_acq	CS_A	JQQJ	YFFY	DXXD	CPPC	ZHHZ	LWWL	vertrauen	sonnig	gütig	genießen	träumen	küssen	versagen	sterben	gierig	gemein	töten	krank	1	acq_USpleas_CSpleas1_RW	acq2_RW	2	24	480	1	300	300	426	50	0	1	1	blank2r.bmp	0	1	+	0	1	blank2r.bmp	492	1	JQQJ	492	1	blank2r.bmp	572	1	vertrauen	866	1	!	1319	1	!	1332	0	0	0	0	0	0	0	0	0	0	0	0	0	0	0	0	0	0	0	0	0	0	0	0	0	0	0	0	0	0
071719	11:55:15	11:59:03	227026	5.0.10.0	5_exp_RW	61	Rpleas_acq	CS_A	JQQJ	YFFY	DXXD	CPPC	ZHHZ	LWWL	vertrauen	sonnig	gütig	genießen	träumen	küssen	versagen	sterben	gierig	gemein	töten	krank	1	acq_USpleas_CSpleas1_RW	acq3_RW	3	1	453	1	300	300	404	50	0	1	1	blank2r.bmp	0	1	+	0	1	blank2r.bmp	492	1	JQQJ	492	1	blank2r.bmp	572	3	gütig	866	1	!	1292	1	!	1306	0	0	0	0	0	0	0	0	0	0	0	0	0	0	0	0	0	0	0	0	0	0	0	0	0	0	0	0	0	0
071719	11:55:15	11:59:05	229145	5.0.10.0	5_exp_RW	61	Rpleas_acq	CS_A	JQQJ	YFFY	DXXD	CPPC	ZHHZ	LWWL	vertrauen	sonnig	gütig	genießen	träumen	küssen	versagen	sterben	gierig	gemein	töten	krank	1	acq_USpleas_CSpleas1_RW	acq3_RW	3	2	453	0	300	300	355	50	0	1	1	blank2r.bmp	0	1	+	0	1	blank2r.bmp	492	1	JQQJ	492	1	blank2r.bmp	572	2	sonnig	866	1	!	-1	1	!	-1	0	0	0	0	0	0	0	0	0	0	0	0	0	0	0	0	0	0	0	0	0	0	0	0	0	0	0	0	0	0
071719	11:55:15	11:59:07	231504	5.0.10.0	5_exp_RW	61	Rpleas_acq	CS_A	JQQJ	YFFY	DXXD	CPPC	ZHHZ	LWWL	vertrauen	sonnig	gütig	genießen	träumen	küssen	versagen	sterben	gierig	gemein	töten	krank	1	acq_USpleas_CSpleas1_RW	acq3_RW	3	3	453	0	300	300	574	50	0	1	1	blank2r.bmp	0	1	+	0	1	blank2r.bmp	492	1	JQQJ	492	1	blank2r.bmp	572	1	vertrauen	866	1	!	1292	1	!	-1	0	0	0	0	0	0	0	0	0	0	0	0	0	0	0	0	0	0	0	0	0	0	0	0	0	0	0	0	0	0
071719	11:55:15	11:59:09	233584	5.0.10.0	5_exp_RW	61	Rpleas_acq	CS_A	JQQJ	YFFY	DXXD	CPPC	ZHHZ	LWWL	vertrauen	sonnig	gütig	genießen	träumen	küssen	versagen	sterben	gierig	gemein	töten	krank	1	acq_USpleas_CSpleas1_RW	acq3_RW	3	4	453	0	300	300	292	50	0	1	1	blank2r.bmp	0	1	+	0	1	blank2r.bmp	492	1	JQQJ	492	1	blank2r.bmp	572	2	sonnig	866	1	!	-1	1	!	-1	0	0	0	0	0	0	0	0	0	0	0	0	0	0	0	0	0	0	0	0	0	0	0	0	0	0	0	0	0	0
071719	11:55:15	11:59:12	235876	5.0.10.0	5_exp_RW	61	Rpleas_acq	CS_A	JQQJ	YFFY	DXXD	CPPC	ZHHZ	LWWL	vertrauen	sonnig	gütig	genießen	träumen	küssen	versagen	sterben	gierig	gemein	töten	krank	1	acq_USunple_CSunple2_RW	acq3_RW	3	5	453	1	300	300	484	46	0	1	1	blank2r.bmp	0	1	+	0	1	blank2r.bmp	492	1	CPPC	492	1	blank2r.bmp	572	3	krank	866	1	!	1292	1	!	1386	0	0	0	0	0	0	0	0	0	0	0	0	0	0	0	0	0	0	0	0	0	0	0	0	0	0	0	0	0	0
071719	11:55:15	11:59:14	238262	5.0.10.0	5_exp_RW	61	Rpleas_acq	CS_A	JQQJ	YFFY	DXXD	CPPC	ZHHZ	LWWL	vertrauen	sonnig	gütig	genießen	träumen	küssen	versagen	sterben	gierig	gemein	töten	krank	1	acq_USpleas_CSpleas2_RW	acq3_RW	3	6	453	0	300	300	620	50	0	1	1	blank2r.bmp	0	1	+	0	1	blank2r.bmp	492	1	YFFY	492	1	blank2r.bmp	572	3	küssen	866	1	!	1292	1	!	-1	0	0	0	0	0	0	0	0	0	0	0	0	0	0	0	0	0	0	0	0	0	0	0	0	0	0	0	0	0	0
071719	11:55:15	11:59:16	240474	5.0.10.0	5_exp_RW	61	Rpleas_acq	CS_A	JQQJ	YFFY	DXXD	CPPC	ZHHZ	LWWL	vertrauen	sonnig	gütig	genießen	träumen	küssen	versagen	sterben	gierig	gemein	töten	krank	1	acq_USunple_CSunple1_RW	acq3_RW	3	7	453	1	300	300	410	46	0	1	1	blank2r.bmp	0	1	+	0	1	blank2r.bmp	492	1	DXXD	492	1	blank2r.bmp	572	2	sterben	866	1	!	1292	1	!	1306	0	0	0	0	0	0	0	0	0	0	0	0	0	0	0	0	0	0	0	0	0	0	0	0	0	0	0	0	0	0
071719	11:55:15	11:59:18	242513	5.0.10.0	5_exp_RW	61	Rpleas_acq	CS_A	JQQJ	YFFY	DXXD	CPPC	ZHHZ	LWWL	vertrauen	sonnig	gütig	genießen	träumen	küssen	versagen	sterben	gierig	gemein	töten	krank	1	acq_USpleas_CSpleas2_RW	acq3_RW	3	8	453	0	300	300	270	50	0	1	1	blank2r.bmp	0	1	+	0	1	blank2r.bmp	492	1	YFFY	492	1	blank2r.bmp	572	1	genießen	866	1	!	-1	1	!	-1	0	0	0	0	0	0	0	0	0	0	0	0	0	0	0	0	0	0	0	0	0	0	0	0	0	0	0	0	0	0
071719	11:55:15	11:59:20	244739	5.0.10.0	5_exp_RW	61	Rpleas_acq	CS_A	JQQJ	YFFY	DXXD	CPPC	ZHHZ	LWWL	vertrauen	sonnig	gütig	genießen	träumen	küssen	versagen	sterben	gierig	gemein	töten	krank	1	acq_USunple_CSunple2_RW	acq3_RW	3	9	453	1	300	300	417	46	0	1	1	blank2r.bmp	0	1	+	0	1	blank2r.bmp	492	1	CPPC	492	1	blank2r.bmp	572	1	gemein	866	1	!	1292	1	!	1319	0	0	0	0	0	0	0	0	0	0	0	0	0	0	0	0	0	0	0	0	0	0	0	0	0	0	0	0	0	0
071719	11:55:15	11:59:23	246951	5.0.10.0	5_exp_RW	61	Rpleas_acq	CS_A	JQQJ	YFFY	DXXD	CPPC	ZHHZ	LWWL	vertrauen	sonnig	gütig	genießen	träumen	küssen	versagen	sterben	gierig	gemein	töten	krank	1	acq_USpleas_CSpleas1_RW	acq3_RW	3	10	453	1	300	300	403	50	0	1	1	blank2r.bmp	0	1	+	0	1	blank2r.bmp	492	1	JQQJ	492	1	blank2r.bmp	572	3	gütig	866	1	!	1292	1	!	1306	0	0	0	0	0	0	0	0	0	0	0	0	0	0	0	0	0	0	0	0	0	0	0	0	0	0	0	0	0	0
071719	11:55:15	11:59:25	249230	5.0.10.0	5_exp_RW	61	Rpleas_acq	CS_A	JQQJ	YFFY	DXXD	CPPC	ZHHZ	LWWL	vertrauen	sonnig	gütig	genießen	träumen	küssen	versagen	sterben	gierig	gemein	töten	krank	1	acq_USpleas_CSpleas2_RW	acq3_RW	3	11	453	1	300	300	489	50	0	1	1	blank2r.bmp	0	1	+	0	1	blank2r.bmp	492	1	YFFY	492	1	blank2r.bmp	572	2	träumen	866	1	!	1292	1	!	1386	0	0	0	0	0	0	0	0	0	0	0	0	0	0	0	0	0	0	0	0	0	0	0	0	0	0	0	0	0	0
071719	11:55:15	11:59:27	251509	5.0.10.0	5_exp_RW	61	Rpleas_acq	CS_A	JQQJ	YFFY	DXXD	CPPC	ZHHZ	LWWL	vertrauen	sonnig	gütig	genießen	träumen	küssen	versagen	sterben	gierig	gemein	töten	krank	1	acq_USunple_CSunple1_RW	acq3_RW	3	12	453	1	300	300	479	46	0	1	1	blank2r.bmp	0	1	+	0	1	blank2r.bmp	492	1	DXXD	492	1	blank2r.bmp	572	1	versagen	866	1	!	1292	1	!	1386	0	0	0	0	0	0	0	0	0	0	0	0	0	0	0	0	0	0	0	0	0	0	0	0	0	0	0	0	0	0
071719	11:55:15	11:59:29	253562	5.0.10.0	5_exp_RW	61	Rpleas_acq	CS_A	JQQJ	YFFY	DXXD	CPPC	ZHHZ	LWWL	vertrauen	sonnig	gütig	genießen	träumen	küssen	versagen	sterben	gierig	gemein	töten	krank	1	acq_USunple_CSunple1_RW	acq3_RW	3	13	453	0	300	300	271	46	0	1	1	blank2r.bmp	0	1	+	0	1	blank2r.bmp	492	1	DXXD	492	1	blank2r.bmp	572	1	versagen	866	1	!	-1	1	!	-1	0	0	0	0	0	0	0	0	0	0	0	0	0	0	0	0	0	0	0	0	0	0	0	0	0	0	0	0	0	0
071719	11:55:15	11:59:31	255694	5.0.10.0	5_exp_RW	61	Rpleas_acq	CS_A	JQQJ	YFFY	DXXD	CPPC	ZHHZ	LWWL	vertrauen	sonnig	gütig	genießen	träumen	küssen	versagen	sterben	gierig	gemein	töten	krank	1	acq_USpleas_CSpleas2_RW	acq3_RW	3	14	453	0	300	300	349	50	0	1	1	blank2r.bmp	0	1	+	0	1	blank2r.bmp	492	1	YFFY	492	1	blank2r.bmp	572	1	genießen	866	1	!	-1	1	!	-1	0	0	0	0	0	0	0	0	0	0	0	0	0	0	0	0	0	0	0	0	0	0	0	0	0	0	0	0	0	0
071719	11:55:15	11:59:34	258080	5.0.10.0	5_exp_RW	61	Rpleas_acq	CS_A	JQQJ	YFFY	DXXD	CPPC	ZHHZ	LWWL	vertrauen	sonnig	gütig	genießen	träumen	küssen	versagen	sterben	gierig	gemein	töten	krank	1	acq_USpleas_CSpleas2_RW	acq3_RW	3	15	453	0	300	300	585	50	0	1	1	blank2r.bmp	0	1	+	0	1	blank2r.bmp	492	1	YFFY	492	1	blank2r.bmp	572	3	küssen	866	1	!	1292	1	!	-1	0	0	0	0	0	0	0	0	0	0	0	0	0	0	0	0	0	0	0	0	0	0	0	0	0	0	0	0	0	0
071719	11:55:15	11:59:36	260173	5.0.10.0	5_exp_RW	61	Rpleas_acq	CS_A	JQQJ	YFFY	DXXD	CPPC	ZHHZ	LWWL	vertrauen	sonnig	gütig	genießen	träumen	küssen	versagen	sterben	gierig	gemein	töten	krank	1	acq_USunple_CSunple1_RW	acq3_RW	3	16	453	0	300	300	300	46	0	1	1	blank2r.bmp	0	1	+	0	1	blank2r.bmp	492	1	DXXD	492	1	blank2r.bmp	572	3	gierig	866	1	!	-1	1	!	-1	0	0	0	0	0	0	0	0	0	0	0	0	0	0	0	0	0	0	0	0	0	0	0	0	0	0	0	0	0	0
071719	11:55:15	11:59:38	262278	5.0.10.0	5_exp_RW	61	Rpleas_acq	CS_A	JQQJ	YFFY	DXXD	CPPC	ZHHZ	LWWL	vertrauen	sonnig	gütig	genießen	träumen	küssen	versagen	sterben	gierig	gemein	töten	krank	1	acq_USunple_CSunple2_RW	acq3_RW	3	17	453	0	300	300	322	46	0	1	1	blank2r.bmp	0	1	+	0	1	blank2r.bmp	492	1	CPPC	492	1	blank2r.bmp	572	2	töten	866	1	!	-1	1	!	-1	0	0	0	0	0	0	0	0	0	0	0	0	0	0	0	0	0	0	0	0	0	0	0	0	0	0	0	0	0	0
071719	11:55:15	11:59:40	264557	5.0.10.0	5_exp_RW	61	Rpleas_acq	CS_A	JQQJ	YFFY	DXXD	CPPC	ZHHZ	LWWL	vertrauen	sonnig	gütig	genießen	träumen	küssen	versagen	sterben	gierig	gemein	töten	krank	1	acq_USunple_CSunple1_RW	acq3_RW	3	18	453	1	300	300	467	46	0	1	1	blank2r.bmp	0	1	+	0	1	blank2r.bmp	492	1	DXXD	492	1	blank2r.bmp	572	2	sterben	866	1	!	1292	1	!	1372	0	0	0	0	0	0	0	0	0	0	0	0	0	0	0	0	0	0	0	0	0	0	0	0	0	0	0	0	0	0
071719	11:55:15	11:59:43	266890	5.0.10.0	5_exp_RW	61	Rpleas_acq	CS_A	JQQJ	YFFY	DXXD	CPPC	ZHHZ	LWWL	vertrauen	sonnig	gütig	genießen	träumen	küssen	versagen	sterben	gierig	gemein	töten	krank	1	acq_USpleas_CSpleas1_RW	acq3_RW	3	19	453	0	300	300	344	46	0	0	1	blank2r.bmp	0	1	+	0	1	blank2r.bmp	492	1	JQQJ	492	1	blank2r.bmp	572	3	gütig	866	1	FEHLER	1546	1	!	-1	1	!	-1	0	0	0	0	0	0	0	0	0	0	0	0	0	0	0	0	0	0	0	0	0	0	0	0	0	0	0
071719	11:55:15	11:59:45	268876	5.0.10.0	5_exp_RW	61	Rpleas_acq	CS_A	JQQJ	YFFY	DXXD	CPPC	ZHHZ	LWWL	vertrauen	sonnig	gütig	genießen	träumen	küssen	versagen	sterben	gierig	gemein	töten	krank	1	acq_USunple_CSunple1_RW	acq3_RW	3	20	453	1	300	300	399	46	0	1	1	blank2r.bmp	0	1	+	0	1	blank2r.bmp	492	1	DXXD	492	1	blank2r.bmp	572	1	versagen	866	1	!	1292	1	!	1306	0	0	0	0	0	0	0	0	0	0	0	0	0	0	0	0	0	0	0	0	0	0	0	0	0	0	0	0	0	0
071719	11:55:15	11:59:47	270955	5.0.10.0	5_exp_RW	61	Rpleas_acq	CS_A	JQQJ	YFFY	DXXD	CPPC	ZHHZ	LWWL	vertrauen	sonnig	gütig	genießen	träumen	küssen	versagen	sterben	gierig	gemein	töten	krank	1	acq_USunple_CSunple2_RW	acq3_RW	3	21	453	0	300	300	311	46	0	1	1	blank2r.bmp	0	1	+	0	1	blank2r.bmp	492	1	CPPC	492	1	blank2r.bmp	572	3	krank	866	1	!	-1	1	!	-1	0	0	0	0	0	0	0	0	0	0	0	0	0	0	0	0	0	0	0	0	0	0	0	0	0	0	0	0	0	0
071719	11:55:15	11:59:49	273221	5.0.10.0	5_exp_RW	61	Rpleas_acq	CS_A	JQQJ	YFFY	DXXD	CPPC	ZHHZ	LWWL	vertrauen	sonnig	gütig	genießen	träumen	küssen	versagen	sterben	gierig	gemein	töten	krank	1	acq_USunple_CSunple2_RW	acq3_RW	3	22	453	1	300	300	454	46	0	1	1	blank2r.bmp	0	1	+	0	1	blank2r.bmp	492	1	CPPC	492	1	blank2r.bmp	572	1	gemein	866	1	!	1292	1	!	1359	0	0	0	0	0	0	0	0	0	0	0	0	0	0	0	0	0	0	0	0	0	0	0	0	0	0	0	0	0	0
071719	11:55:15	11:59:51	275273	5.0.10.0	5_exp_RW	61	Rpleas_acq	CS_A	JQQJ	YFFY	DXXD	CPPC	ZHHZ	LWWL	vertrauen	sonnig	gütig	genießen	träumen	küssen	versagen	sterben	gierig	gemein	töten	krank	1	acq_USunple_CSunple2_RW	acq3_RW	3	23	453	0	300	300	282	46	0	1	1	blank2r.bmp	0	1	+	0	1	blank2r.bmp	492	1	CPPC	492	1	blank2r.bmp	572	1	gemein	866	1	!	-1	1	!	-1	0	0	0	0	0	0	0	0	0	0	0	0	0	0	0	0	0	0	0	0	0	0	0	0	0	0	0	0	0	0
071719	11:55:15	11:59:53	277499	5.0.10.0	5_exp_RW	61	Rpleas_acq	CS_A	JQQJ	YFFY	DXXD	CPPC	ZHHZ	LWWL	vertrauen	sonnig	gütig	genießen	träumen	küssen	versagen	sterben	gierig	gemein	töten	krank	1	acq_USpleas_CSpleas2_RW	acq3_RW	3	24	453	1	300	300	417	50	0	1	1	blank2r.bmp	0	1	+	0	1	blank2r.bmp	492	1	YFFY	492	1	blank2r.bmp	572	2	träumen	866	1	!	1292	1	!	1319	0	0	0	0	0	0	0	0	0	0	0	0	0	0	0	0	0	0	0	0	0	0	0	0	0	0	0	0	0	0
071719	11:55:15	12:00:12	296038	5.0.10.0	5_exp_RW	61	Rpleas_acq	CS_A	JQQJ	YFFY	DXXD	CPPC	ZHHZ	LWWL	vertrauen	sonnig	gütig	genießen	träumen	küssen	versagen	sterben	gierig	gemein	töten	krank	1	acq_USpleas_CSpleas2_RW	acq4567_RW	4	1	400	1	300	300	354	50	0	1	1	blank2r.bmp	0	1	+	0	1	blank2r.bmp	492	1	YFFY	492	1	blank2r.bmp	572	1	genießen	866	1	!	1239	1	!	1252	0	0	0	0	0	0	0	0	0	0	0	0	0	0	0	0	0	0	0	0	0	0	0	0	0	0	0	0	0	0
071719	11:55:15	12:00:14	298197	5.0.10.0	5_exp_RW	61	Rpleas_acq	CS_A	JQQJ	YFFY	DXXD	CPPC	ZHHZ	LWWL	vertrauen	sonnig	gütig	genießen	träumen	küssen	versagen	sterben	gierig	gemein	töten	krank	1	acq_USunple_CSunple1_RW	acq4567_RW	4	2	400	1	300	300	361	46	0	1	1	blank2r.bmp	0	1	+	0	1	blank2r.bmp	492	1	DXXD	492	1	blank2r.bmp	572	3	gierig	866	1	!	1239	1	!	1266	0	0	0	0	0	0	0	0	0	0	0	0	0	0	0	0	0	0	0	0	0	0	0	0	0	0	0	0	0	0
071719	11:55:15	12:00:16	300423	5.0.10.0	5_exp_RW	61	Rpleas_acq	CS_A	JQQJ	YFFY	DXXD	CPPC	ZHHZ	LWWL	vertrauen	sonnig	gütig	genießen	träumen	küssen	versagen	sterben	gierig	gemein	töten	krank	1	acq_USpleas_CSpleas2_RW	acq4567_RW	4	3	400	1	300	300	438	50	0	1	1	blank2r.bmp	0	1	+	0	1	blank2r.bmp	492	1	YFFY	492	1	blank2r.bmp	572	3	küssen	866	1	!	1239	1	!	1332	0	0	0	0	0	0	0	0	0	0	0	0	0	0	0	0	0	0	0	0	0	0	0	0	0	0	0	0	0	0
071719	11:55:15	12:00:18	302662	5.0.10.0	5_exp_RW	61	Rpleas_acq	CS_A	JQQJ	YFFY	DXXD	CPPC	ZHHZ	LWWL	vertrauen	sonnig	gütig	genießen	träumen	küssen	versagen	sterben	gierig	gemein	töten	krank	1	acq_USpleas_CSpleas1_RW	acq4567_RW	4	4	400	1	300	300	443	50	0	1	1	blank2r.bmp	0	1	+	0	1	blank2r.bmp	492	1	JQQJ	492	1	blank2r.bmp	572	1	vertrauen	866	1	!	1239	1	!	1346	0	0	0	0	0	0	0	0	0	0	0	0	0	0	0	0	0	0	0	0	0	0	0	0	0	0	0	0	0	0
071719	11:55:15	12:00:20	304834	5.0.10.0	5_exp_RW	61	Rpleas_acq	CS_A	JQQJ	YFFY	DXXD	CPPC	ZHHZ	LWWL	vertrauen	sonnig	gütig	genießen	träumen	küssen	versagen	sterben	gierig	gemein	töten	krank	1	acq_USpleas_CSpleas2_RW	acq4567_RW	4	5	400	1	300	300	359	50	0	1	1	blank2r.bmp	0	1	+	0	1	blank2r.bmp	492	1	YFFY	492	1	blank2r.bmp	572	2	träumen	866	1	!	1239	1	!	1266	0	0	0	0	0	0	0	0	0	0	0	0	0	0	0	0	0	0	0	0	0	0	0	0	0	0	0	0	0	0
071719	11:55:15	12:00:23	306873	5.0.10.0	5_exp_RW	61	Rpleas_acq	CS_A	JQQJ	YFFY	DXXD	CPPC	ZHHZ	LWWL	vertrauen	sonnig	gütig	genießen	träumen	küssen	versagen	sterben	gierig	gemein	töten	krank	1	acq_USunple_CSunple2_RW	acq4567_RW	4	6	400	0	300	300	272	46	0	1	1	blank2r.bmp	0	1	+	0	1	blank2r.bmp	492	1	CPPC	492	1	blank2r.bmp	572	3	krank	866	1	!	-1	1	!	-1	0	0	0	0	0	0	0	0	0	0	0	0	0	0	0	0	0	0	0	0	0	0	0	0	0	0	0	0	0	0
071719	11:55:15	12:00:25	309113	5.0.10.0	5_exp_RW	61	Rpleas_acq	CS_A	JQQJ	YFFY	DXXD	CPPC	ZHHZ	LWWL	vertrauen	sonnig	gütig	genießen	träumen	küssen	versagen	sterben	gierig	gemein	töten	krank	1	acq_USpleas_CSpleas2_RW	acq4567_RW	4	7	400	1	300	300	433	50	0	1	1	blank2r.bmp	0	1	+	0	1	blank2r.bmp	492	1	YFFY	492	1	blank2r.bmp	572	3	küssen	866	1	!	1239	1	!	1332	0	0	0	0	0	0	0	0	0	0	0	0	0	0	0	0	0	0	0	0	0	0	0	0	0	0	0	0	0	0
071719	11:55:15	12:00:27	311365	5.0.10.0	5_exp_RW	61	Rpleas_acq	CS_A	JQQJ	YFFY	DXXD	CPPC	ZHHZ	LWWL	vertrauen	sonnig	gütig	genießen	träumen	küssen	versagen	sterben	gierig	gemein	töten	krank	1	acq_USunple_CSunple1_RW	acq4567_RW	4	8	400	0	300	300	479	46	0	1	1	blank2r.bmp	0	1	+	0	1	blank2r.bmp	492	1	DXXD	492	1	blank2r.bmp	572	2	sterben	866	1	!	1239	1	!	-1	0	0	0	0	0	0	0	0	0	0	0	0	0	0	0	0	0	0	0	0	0	0	0	0	0	0	0	0	0	0
071719	11:55:15	12:00:29	313457	5.0.10.0	5_exp_RW	61	Rpleas_acq	CS_A	JQQJ	YFFY	DXXD	CPPC	ZHHZ	LWWL	vertrauen	sonnig	gütig	genießen	träumen	küssen	versagen	sterben	gierig	gemein	töten	krank	1	acq_USpleas_CSpleas1_RW	acq4567_RW	4	9	400	0	300	300	305	50	0	1	1	blank2r.bmp	0	1	+	0	1	blank2r.bmp	492	1	JQQJ	492	1	blank2r.bmp	572	2	sonnig	866	1	!	-1	1	!	-1	0	0	0	0	0	0	0	0	0	0	0	0	0	0	0	0	0	0	0	0	0	0	0	0	0	0	0	0	0	0
071719	11:55:15	12:00:31	315696	5.0.10.0	5_exp_RW	61	Rpleas_acq	CS_A	JQQJ	YFFY	DXXD	CPPC	ZHHZ	LWWL	vertrauen	sonnig	gütig	genießen	träumen	küssen	versagen	sterben	gierig	gemein	töten	krank	1	acq_USpleas_CSpleas1_RW	acq4567_RW	4	10	400	1	300	300	428	50	0	1	1	blank2r.bmp	0	1	+	0	1	blank2r.bmp	492	1	JQQJ	492	1	blank2r.bmp	572	1	vertrauen	866	1	!	1239	1	!	1332	0	0	0	0	0	0	0	0	0	0	0	0	0	0	0	0	0	0	0	0	0	0	0	0	0	0	0	0	0	0
071719	11:55:15	12:00:33	317736	5.0.10.0	5_exp_RW	61	Rpleas_acq	CS_A	JQQJ	YFFY	DXXD	CPPC	ZHHZ	LWWL	vertrauen	sonnig	gütig	genießen	träumen	küssen	versagen	sterben	gierig	gemein	töten	krank	1	acq_USunple_CSunple1_RW	acq4567_RW	4	11	400	0	300	300	267	50	0	0	1	blank2r.bmp	0	1	+	0	1	blank2r.bmp	492	1	DXXD	492	1	blank2r.bmp	572	2	sterben	866	1	!	-1	1	!	-1	0	0	0	0	0	0	0	0	0	0	0	0	0	0	0	0	0	0	0	0	0	0	0	0	0	0	0	0	0	0
071719	11:55:15	12:00:36	319935	5.0.10.0	5_exp_RW	61	Rpleas_acq	CS_A	JQQJ	YFFY	DXXD	CPPC	ZHHZ	LWWL	vertrauen	sonnig	gütig	genießen	träumen	küssen	versagen	sterben	gierig	gemein	töten	krank	1	acq_USunple_CSunple2_RW	acq4567_RW	4	12	400	1	300	300	384	46	0	1	1	blank2r.bmp	0	1	+	0	1	blank2r.bmp	492	1	CPPC	492	1	blank2r.bmp	572	2	töten	866	1	!	1239	1	!	1279	0	0	0	0	0	0	0	0	0	0	0	0	0	0	0	0	0	0	0	0	0	0	0	0	0	0	0	0	0	0
071719	11:55:15	12:00:38	322201	5.0.10.0	5_exp_RW	61	Rpleas_acq	CS_A	JQQJ	YFFY	DXXD	CPPC	ZHHZ	LWWL	vertrauen	sonnig	gütig	genießen	träumen	küssen	versagen	sterben	gierig	gemein	töten	krank	1	acq_USpleas_CSpleas1_RW	acq4567_RW	4	13	400	0	300	300	497	50	0	1	1	blank2r.bmp	0	1	+	0	1	blank2r.bmp	492	1	JQQJ	492	1	blank2r.bmp	572	2	sonnig	866	1	!	1239	1	!	-1	0	0	0	0	0	0	0	0	0	0	0	0	0	0	0	0	0	0	0	0	0	0	0	0	0	0	0	0	0	0
071719	11:55:15	12:00:40	324413	5.0.10.0	5_exp_RW	61	Rpleas_acq	CS_A	JQQJ	YFFY	DXXD	CPPC	ZHHZ	LWWL	vertrauen	sonnig	gütig	genießen	träumen	küssen	versagen	sterben	gierig	gemein	töten	krank	1	acq_USpleas_CSpleas1_RW	acq4567_RW	4	14	400	1	300	300	408	50	0	1	1	blank2r.bmp	0	1	+	0	1	blank2r.bmp	492	1	JQQJ	492	1	blank2r.bmp	572	3	gütig	866	1	!	1239	1	!	1306	0	0	0	0	0	0	0	0	0	0	0	0	0	0	0	0	0	0	0	0	0	0	0	0	0	0	0	0	0	0
071719	11:55:15	12:00:42	326505	5.0.10.0	5_exp_RW	61	Rpleas_acq	CS_A	JQQJ	YFFY	DXXD	CPPC	ZHHZ	LWWL	vertrauen	sonnig	gütig	genießen	träumen	küssen	versagen	sterben	gierig	gemein	töten	krank	1	acq_USunple_CSunple2_RW	acq4567_RW	4	15	400	0	300	300	324	46	0	1	1	blank2r.bmp	0	1	+	0	1	blank2r.bmp	492	1	CPPC	492	1	blank2r.bmp	572	2	töten	866	1	!	-1	1	!	-1	0	0	0	0	0	0	0	0	0	0	0	0	0	0	0	0	0	0	0	0	0	0	0	0	0	0	0	0	0	0
071719	11:55:15	12:00:44	328598	5.0.10.0	5_exp_RW	61	Rpleas_acq	CS_A	JQQJ	YFFY	DXXD	CPPC	ZHHZ	LWWL	vertrauen	sonnig	gütig	genießen	träumen	küssen	versagen	sterben	gierig	gemein	töten	krank	1	acq_USunple_CSunple2_RW	acq4567_RW	4	16	400	0	300	300	317	50	0	0	1	blank2r.bmp	0	1	+	0	1	blank2r.bmp	492	1	CPPC	492	1	blank2r.bmp	572	1	gemein	866	1	!	-1	1	!	-1	0	0	0	0	0	0	0	0	0	0	0	0	0	0	0	0	0	0	0	0	0	0	0	0	0	0	0	0	0	0
071719	11:55:15	12:00:47	330877	5.0.10.0	5_exp_RW	61	Rpleas_acq	CS_A	JQQJ	YFFY	DXXD	CPPC	ZHHZ	LWWL	vertrauen	sonnig	gütig	genießen	träumen	küssen	versagen	sterben	gierig	gemein	töten	krank	1	acq_USunple_CSunple1_RW	acq4567_RW	4	17	400	0	300	300	493	46	0	1	1	blank2r.bmp	0	1	+	0	1	blank2r.bmp	492	1	DXXD	492	1	blank2r.bmp	572	3	gierig	866	1	!	1239	1	!	-1	0	0	0	0	0	0	0	0	0	0	0	0	0	0	0	0	0	0	0	0	0	0	0	0	0	0	0	0	0	0
071719	11:55:15	12:00:49	333076	5.0.10.0	5_exp_RW	61	Rpleas_acq	CS_A	JQQJ	YFFY	DXXD	CPPC	ZHHZ	LWWL	vertrauen	sonnig	gütig	genießen	träumen	küssen	versagen	sterben	gierig	gemein	töten	krank	1	acq_USunple_CSunple1_RW	acq4567_RW	4	18	400	1	300	300	386	50	0	0	1	blank2r.bmp	0	1	+	0	1	blank2r.bmp	492	1	DXXD	492	1	blank2r.bmp	572	1	versagen	866	1	!	1239	1	!	1292	0	0	0	0	0	0	0	0	0	0	0	0	0	0	0	0	0	0	0	0	0	0	0	0	0	0	0	0	0	0
071719	11:55:15	12:00:51	335302	5.0.10.0	5_exp_RW	61	Rpleas_acq	CS_A	JQQJ	YFFY	DXXD	CPPC	ZHHZ	LWWL	vertrauen	sonnig	gütig	genießen	träumen	küssen	versagen	sterben	gierig	gemein	töten	krank	1	acq_USpleas_CSpleas2_RW	acq4567_RW	4	19	400	1	300	300	434	46	0	0	1	blank2r.bmp	0	1	+	0	1	blank2r.bmp	492	1	YFFY	492	1	blank2r.bmp	572	1	genießen	866	1	!	1239	1	!	1332	0	0	0	0	0	0	0	0	0	0	0	0	0	0	0	0	0	0	0	0	0	0	0	0	0	0	0	0	0	0
071719	11:55:15	12:00:53	337368	5.0.10.0	5_exp_RW	61	Rpleas_acq	CS_A	JQQJ	YFFY	DXXD	CPPC	ZHHZ	LWWL	vertrauen	sonnig	gütig	genießen	träumen	küssen	versagen	sterben	gierig	gemein	töten	krank	1	acq_USunple_CSunple2_RW	acq4567_RW	4	20	400	0	300	300	293	46	0	1	1	blank2r.bmp	0	1	+	0	1	blank2r.bmp	492	1	CPPC	492	1	blank2r.bmp	572	3	krank	866	1	!	-1	1	!	-1	0	0	0	0	0	0	0	0	0	0	0	0	0	0	0	0	0	0	0	0	0	0	0	0	0	0	0	0	0	0
071719	11:55:15	12:00:55	339633	5.0.10.0	5_exp_RW	61	Rpleas_acq	CS_A	JQQJ	YFFY	DXXD	CPPC	ZHHZ	LWWL	vertrauen	sonnig	gütig	genießen	träumen	küssen	versagen	sterben	gierig	gemein	töten	krank	1	acq_USpleas_CSpleas1_RW	acq4567_RW	4	21	400	1	300	300	453	50	0	1	1	blank2r.bmp	0	1	+	0	1	blank2r.bmp	492	1	JQQJ	492	1	blank2r.bmp	572	2	sonnig	866	1	!	1239	1	!	1359	0	0	0	0	0	0	0	0	0	0	0	0	0	0	0	0	0	0	0	0	0	0	0	0	0	0	0	0	0	0
071719	11:55:15	12:00:58	341886	5.0.10.0	5_exp_RW	61	Rpleas_acq	CS_A	JQQJ	YFFY	DXXD	CPPC	ZHHZ	LWWL	vertrauen	sonnig	gütig	genießen	träumen	küssen	versagen	sterben	gierig	gemein	töten	krank	1	acq_USpleas_CSpleas1_RW	acq4567_RW	4	22	400	1	300	300	451	50	0	1	1	blank2r.bmp	0	1	+	0	1	blank2r.bmp	492	1	JQQJ	492	1	blank2r.bmp	572	1	vertrauen	866	1	!	1239	1	!	1346	0	0	0	0	0	0	0	0	0	0	0	0	0	0	0	0	0	0	0	0	0	0	0	0	0	0	0	0	0	0
071719	11:55:15	12:01:00	344072	5.0.10.0	5_exp_RW	61	Rpleas_acq	CS_A	JQQJ	YFFY	DXXD	CPPC	ZHHZ	LWWL	vertrauen	sonnig	gütig	genießen	träumen	küssen	versagen	sterben	gierig	gemein	töten	krank	1	acq_USpleas_CSpleas2_RW	acq4567_RW	4	23	400	1	300	300	386	50	0	1	1	blank2r.bmp	0	1	+	0	1	blank2r.bmp	492	1	YFFY	492	1	blank2r.bmp	572	1	genießen	866	1	!	1239	1	!	1292	0	0	0	0	0	0	0	0	0	0	0	0	0	0	0	0	0	0	0	0	0	0	0	0	0	0	0	0	0	0
071719	11:55:15	12:01:02	346231	5.0.10.0	5_exp_RW	61	Rpleas_acq	CS_A	JQQJ	YFFY	DXXD	CPPC	ZHHZ	LWWL	vertrauen	sonnig	gütig	genießen	träumen	küssen	versagen	sterben	gierig	gemein	töten	krank	1	acq_USunple_CSunple2_RW	acq4567_RW	4	24	400	1	300	300	361	50	0	0	1	blank2r.bmp	0	1	+	0	1	blank2r.bmp	492	1	CPPC	492	1	blank2r.bmp	572	1	gemein	866	1	!	1239	1	!	1266	0	0	0	0	0	0	0	0	0	0	0	0	0	0	0	0	0	0	0	0	0	0	0	0	0	0	0	0	0	0
071719	11:55:15	12:01:04	348390	5.0.10.0	5_exp_RW	61	Rpleas_acq	CS_A	JQQJ	YFFY	DXXD	CPPC	ZHHZ	LWWL	vertrauen	sonnig	gütig	genießen	träumen	küssen	versagen	sterben	gierig	gemein	töten	krank	1	acq_USpleas_CSpleas2_RW	acq4567_RW	4	25	400	1	300	300	371	50	0	1	1	blank2r.bmp	0	1	+	0	1	blank2r.bmp	492	1	YFFY	492	1	blank2r.bmp	572	2	träumen	866	1	!	1239	1	!	1266	0	0	0	0	0	0	0	0	0	0	0	0	0	0	0	0	0	0	0	0	0	0	0	0	0	0	0	0	0	0
071719	11:55:15	12:01:06	350642	5.0.10.0	5_exp_RW	61	Rpleas_acq	CS_A	JQQJ	YFFY	DXXD	CPPC	ZHHZ	LWWL	vertrauen	sonnig	gütig	genießen	träumen	küssen	versagen	sterben	gierig	gemein	töten	krank	1	acq_USpleas_CSpleas1_RW	acq4567_RW	4	26	400	1	300	300	461	50	0	1	1	blank2r.bmp	0	1	+	0	1	blank2r.bmp	492	1	JQQJ	492	1	blank2r.bmp	572	3	gütig	866	1	!	1239	1	!	1359	0	0	0	0	0	0	0	0	0	0	0	0	0	0	0	0	0	0	0	0	0	0	0	0	0	0	0	0	0	0
071719	11:55:15	12:01:08	352681	5.0.10.0	5_exp_RW	61	Rpleas_acq	CS_A	JQQJ	YFFY	DXXD	CPPC	ZHHZ	LWWL	vertrauen	sonnig	gütig	genießen	träumen	küssen	versagen	sterben	gierig	gemein	töten	krank	1	acq_USunple_CSunple1_RW	acq4567_RW	4	27	400	0	300	300	271	46	0	1	1	blank2r.bmp	0	1	+	0	1	blank2r.bmp	492	1	DXXD	492	1	blank2r.bmp	572	3	gierig	866	1	!	-1	1	!	-1	0	0	0	0	0	0	0	0	0	0	0	0	0	0	0	0	0	0	0	0	0	0	0	0	0	0	0	0	0	0
071719	11:55:15	12:01:11	354934	5.0.10.0	5_exp_RW	61	Rpleas_acq	CS_A	JQQJ	YFFY	DXXD	CPPC	ZHHZ	LWWL	vertrauen	sonnig	gütig	genießen	träumen	küssen	versagen	sterben	gierig	gemein	töten	krank	1	acq_USpleas_CSpleas2_RW	acq4567_RW	4	28	400	1	300	300	441	50	0	1	1	blank2r.bmp	0	1	+	0	1	blank2r.bmp	492	1	YFFY	492	1	blank2r.bmp	572	3	küssen	866	1	!	1239	1	!	1346	0	0	0	0	0	0	0	0	0	0	0	0	0	0	0	0	0	0	0	0	0	0	0	0	0	0	0	0	0	0
071719	11:55:15	12:01:13	357026	5.0.10.0	5_exp_RW	61	Rpleas_acq	CS_A	JQQJ	YFFY	DXXD	CPPC	ZHHZ	LWWL	vertrauen	sonnig	gütig	genießen	träumen	küssen	versagen	sterben	gierig	gemein	töten	krank	1	acq_USunple_CSunple1_RW	acq4567_RW	4	29	400	0	300	300	318	46	0	1	1	blank2r.bmp	0	1	+	0	1	blank2r.bmp	492	1	DXXD	492	1	blank2r.bmp	572	2	sterben	866	1	!	-1	1	!	-1	0	0	0	0	0	0	0	0	0	0	0	0	0	0	0	0	0	0	0	0	0	0	0	0	0	0	0	0	0	0
071719	11:55:15	12:01:15	359185	5.0.10.0	5_exp_RW	61	Rpleas_acq	CS_A	JQQJ	YFFY	DXXD	CPPC	ZHHZ	LWWL	vertrauen	sonnig	gütig	genießen	träumen	küssen	versagen	sterben	gierig	gemein	töten	krank	1	acq_USpleas_CSpleas1_RW	acq4567_RW	4	30	400	1	300	300	348	50	0	1	1	blank2r.bmp	0	1	+	0	1	blank2r.bmp	492	1	JQQJ	492	1	blank2r.bmp	572	2	sonnig	866	1	!	1239	1	!	1252	0	0	0	0	0	0	0	0	0	0	0	0	0	0	0	0	0	0	0	0	0	0	0	0	0	0	0	0	0	0
071719	11:55:15	12:01:17	361491	5.0.10.0	5_exp_RW	61	Rpleas_acq	CS_A	JQQJ	YFFY	DXXD	CPPC	ZHHZ	LWWL	vertrauen	sonnig	gütig	genießen	träumen	küssen	versagen	sterben	gierig	gemein	töten	krank	1	acq_USunple_CSunple1_RW	acq4567_RW	4	31	400	0	300	300	539	46	0	1	1	blank2r.bmp	0	1	+	0	1	blank2r.bmp	492	1	DXXD	492	1	blank2r.bmp	572	1	versagen	866	1	!	1239	1	!	-1	0	0	0	0	0	0	0	0	0	0	0	0	0	0	0	0	0	0	0	0	0	0	0	0	0	0	0	0	0	0
071719	11:55:15	12:01:19	363703	5.0.10.0	5_exp_RW	61	Rpleas_acq	CS_A	JQQJ	YFFY	DXXD	CPPC	ZHHZ	LWWL	vertrauen	sonnig	gütig	genießen	träumen	küssen	versagen	sterben	gierig	gemein	töten	krank	1	acq_USunple_CSunple1_RW	acq4567_RW	4	32	400	1	300	300	390	46	0	1	1	blank2r.bmp	0	1	+	0	1	blank2r.bmp	492	1	DXXD	492	1	blank2r.bmp	572	3	gierig	866	1	!	1239	1	!	1292	0	0	0	0	0	0	0	0	0	0	0	0	0	0	0	0	0	0	0	0	0	0	0	0	0	0	0	0	0	0
071719	11:55:15	12:01:22	365916	5.0.10.0	5_exp_RW	61	Rpleas_acq	CS_A	JQQJ	YFFY	DXXD	CPPC	ZHHZ	LWWL	vertrauen	sonnig	gütig	genießen	träumen	küssen	versagen	sterben	gierig	gemein	töten	krank	1	acq_USunple_CSunple2_RW	acq4567_RW	4	33	400	1	300	300	418	46	0	1	1	blank2r.bmp	0	1	+	0	1	blank2r.bmp	492	1	CPPC	492	1	blank2r.bmp	572	3	krank	866	1	!	1239	1	!	1319	0	0	0	0	0	0	0	0	0	0	0	0	0	0	0	0	0	0	0	0	0	0	0	0	0	0	0	0	0	0
071719	11:55:15	12:01:24	368115	5.0.10.0	5_exp_RW	61	Rpleas_acq	CS_A	JQQJ	YFFY	DXXD	CPPC	ZHHZ	LWWL	vertrauen	sonnig	gütig	genießen	träumen	küssen	versagen	sterben	gierig	gemein	töten	krank	1	acq_USpleas_CSpleas2_RW	acq4567_RW	4	34	400	1	300	300	410	50	0	1	1	blank2r.bmp	0	1	+	0	1	blank2r.bmp	492	1	YFFY	492	1	blank2r.bmp	572	1	genießen	866	1	!	1239	1	!	1306	0	0	0	0	0	0	0	0	0	0	0	0	0	0	0	0	0	0	0	0	0	0	0	0	0	0	0	0	0	0
071719	11:55:15	12:01:26	370354	5.0.10.0	5_exp_RW	61	Rpleas_acq	CS_A	JQQJ	YFFY	DXXD	CPPC	ZHHZ	LWWL	vertrauen	sonnig	gütig	genießen	träumen	küssen	versagen	sterben	gierig	gemein	töten	krank	1	acq_USpleas_CSpleas2_RW	acq4567_RW	4	35	400	1	300	300	448	50	0	1	1	blank2r.bmp	0	1	+	0	1	blank2r.bmp	492	1	YFFY	492	1	blank2r.bmp	572	3	küssen	866	1	!	1239	1	!	1346	0	0	0	0	0	0	0	0	0	0	0	0	0	0	0	0	0	0	0	0	0	0	0	0	0	0	0	0	0	0
071719	11:55:15	12:01:28	372513	5.0.10.0	5_exp_RW	61	Rpleas_acq	CS_A	JQQJ	YFFY	DXXD	CPPC	ZHHZ	LWWL	vertrauen	sonnig	gütig	genießen	träumen	küssen	versagen	sterben	gierig	gemein	töten	krank	1	acq_USunple_CSunple1_RW	acq4567_RW	4	36	400	1	300	300	359	46	0	1	1	blank2r.bmp	0	1	+	0	1	blank2r.bmp	492	1	DXXD	492	1	blank2r.bmp	572	1	versagen	866	1	!	1239	1	!	1266	0	0	0	0	0	0	0	0	0	0	0	0	0	0	0	0	0	0	0	0	0	0	0	0	0	0	0	0	0	0
071719	11:55:15	12:01:30	374579	5.0.10.0	5_exp_RW	61	Rpleas_acq	CS_A	JQQJ	YFFY	DXXD	CPPC	ZHHZ	LWWL	vertrauen	sonnig	gütig	genießen	träumen	küssen	versagen	sterben	gierig	gemein	töten	krank	1	acq_USunple_CSunple2_RW	acq4567_RW	4	37	400	0	300	300	294	46	0	1	1	blank2r.bmp	0	1	+	0	1	blank2r.bmp	492	1	CPPC	492	1	blank2r.bmp	572	2	töten	866	1	!	-1	1	!	-1	0	0	0	0	0	0	0	0	0	0	0	0	0	0	0	0	0	0	0	0	0	0	0	0	0	0	0	0	0	0
071719	11:55:15	12:01:32	376751	5.0.10.0	5_exp_RW	61	Rpleas_acq	CS_A	JQQJ	YFFY	DXXD	CPPC	ZHHZ	LWWL	vertrauen	sonnig	gütig	genießen	träumen	küssen	versagen	sterben	gierig	gemein	töten	krank	1	acq_USunple_CSunple2_RW	acq4567_RW	4	38	400	1	300	300	353	46	0	1	1	blank2r.bmp	0	1	+	0	1	blank2r.bmp	492	1	CPPC	492	1	blank2r.bmp	572	3	krank	866	1	!	1239	1	!	1252	0	0	0	0	0	0	0	0	0	0	0	0	0	0	0	0	0	0	0	0	0	0	0	0	0	0	0	0	0	0
071719	11:55:15	12:01:35	378924	5.0.10.0	5_exp_RW	61	Rpleas_acq	CS_A	JQQJ	YFFY	DXXD	CPPC	ZHHZ	LWWL	vertrauen	sonnig	gütig	genießen	träumen	küssen	versagen	sterben	gierig	gemein	töten	krank	1	acq_USunple_CSunple2_RW	acq4567_RW	4	39	400	1	300	300	374	50	0	0	1	blank2r.bmp	0	1	+	0	1	blank2r.bmp	492	1	CPPC	492	1	blank2r.bmp	572	1	gemein	866	1	!	1239	1	!	1279	0	0	0	0	0	0	0	0	0	0	0	0	0	0	0	0	0	0	0	0	0	0	0	0	0	0	0	0	0	0
071719	11:55:15	12:01:37	381150	5.0.10.0	5_exp_RW	61	Rpleas_acq	CS_A	JQQJ	YFFY	DXXD	CPPC	ZHHZ	LWWL	vertrauen	sonnig	gütig	genießen	träumen	küssen	versagen	sterben	gierig	gemein	töten	krank	1	acq_USpleas_CSpleas1_RW	acq4567_RW	4	40	400	1	300	300	432	50	0	1	1	blank2r.bmp	0	1	+	0	1	blank2r.bmp	492	1	JQQJ	492	1	blank2r.bmp	572	1	vertrauen	866	1	!	1239	1	!	1332	0	0	0	0	0	0	0	0	0	0	0	0	0	0	0	0	0	0	0	0	0	0	0	0	0	0	0	0	0	0
071719	11:55:15	12:01:39	383229	5.0.10.0	5_exp_RW	61	Rpleas_acq	CS_A	JQQJ	YFFY	DXXD	CPPC	ZHHZ	LWWL	vertrauen	sonnig	gütig	genießen	träumen	küssen	versagen	sterben	gierig	gemein	töten	krank	1	acq_USunple_CSunple2_RW	acq4567_RW	4	41	400	0	300	300	314	46	0	1	1	blank2r.bmp	0	1	+	0	1	blank2r.bmp	492	1	CPPC	492	1	blank2r.bmp	572	2	töten	866	1	!	-1	1	!	-1	0	0	0	0	0	0	0	0	0	0	0	0	0	0	0	0	0	0	0	0	0	0	0	0	0	0	0	0	0	0
071719	11:55:15	12:01:41	385281	5.0.10.0	5_exp_RW	61	Rpleas_acq	CS_A	JQQJ	YFFY	DXXD	CPPC	ZHHZ	LWWL	vertrauen	sonnig	gütig	genießen	träumen	küssen	versagen	sterben	gierig	gemein	töten	krank	1	acq_USunple_CSunple1_RW	acq4567_RW	4	42	400	0	300	300	272	46	0	1	1	blank2r.bmp	0	1	+	0	1	blank2r.bmp	492	1	DXXD	492	1	blank2r.bmp	572	2	sterben	866	1	!	-1	1	!	-1	0	0	0	0	0	0	0	0	0	0	0	0	0	0	0	0	0	0	0	0	0	0	0	0	0	0	0	0	0	0
071719	11:55:15	12:01:43	387520	5.0.10.0	5_exp_RW	61	Rpleas_acq	CS_A	JQQJ	YFFY	DXXD	CPPC	ZHHZ	LWWL	vertrauen	sonnig	gütig	genießen	träumen	küssen	versagen	sterben	gierig	gemein	töten	krank	1	acq_USpleas_CSpleas1_RW	acq4567_RW	4	43	400	1	300	300	415	50	0	1	1	blank2r.bmp	0	1	+	0	1	blank2r.bmp	492	1	JQQJ	492	1	blank2r.bmp	572	3	gütig	866	1	!	1239	1	!	1319	0	0	0	0	0	0	0	0	0	0	0	0	0	0	0	0	0	0	0	0	0	0	0	0	0	0	0	0	0	0
071719	11:55:15	12:01:45	389759	5.0.10.0	5_exp_RW	61	Rpleas_acq	CS_A	JQQJ	YFFY	DXXD	CPPC	ZHHZ	LWWL	vertrauen	sonnig	gütig	genießen	träumen	küssen	versagen	sterben	gierig	gemein	töten	krank	1	acq_USpleas_CSpleas1_RW	acq4567_RW	4	44	400	1	300	300	449	50	0	1	1	blank2r.bmp	0	1	+	0	1	blank2r.bmp	492	1	JQQJ	492	1	blank2r.bmp	572	3	gütig	866	1	!	1239	1	!	1346	0	0	0	0	0	0	0	0	0	0	0	0	0	0	0	0	0	0	0	0	0	0	0	0	0	0	0	0	0	0
071719	11:55:15	12:01:48	391999	5.0.10.0	5_exp_RW	61	Rpleas_acq	CS_A	JQQJ	YFFY	DXXD	CPPC	ZHHZ	LWWL	vertrauen	sonnig	gütig	genießen	träumen	küssen	versagen	sterben	gierig	gemein	töten	krank	1	acq_USpleas_CSpleas1_RW	acq4567_RW	4	45	400	1	300	300	439	50	0	1	1	blank2r.bmp	0	1	+	0	1	blank2r.bmp	492	1	JQQJ	492	1	blank2r.bmp	572	2	sonnig	866	1	!	1239	1	!	1346	0	0	0	0	0	0	0	0	0	0	0	0	0	0	0	0	0	0	0	0	0	0	0	0	0	0	0	0	0	0
071719	11:55:15	12:01:50	393998	5.0.10.0	5_exp_RW	61	Rpleas_acq	CS_A	JQQJ	YFFY	DXXD	CPPC	ZHHZ	LWWL	vertrauen	sonnig	gütig	genießen	träumen	küssen	versagen	sterben	gierig	gemein	töten	krank	1	acq_USpleas_CSpleas2_RW	acq4567_RW	4	46	400	0	300	300	233	46	0	0	1	blank2r.bmp	0	1	+	0	1	blank2r.bmp	492	1	YFFY	492	1	blank2r.bmp	572	2	träumen	866	1	!	-1	1	!	-1	0	0	0	0	0	0	0	0	0	0	0	0	0	0	0	0	0	0	0	0	0	0	0	0	0	0	0	0	0	0
071719	11:55:15	12:01:52	396170	5.0.10.0	5_exp_RW	61	Rpleas_acq	CS_A	JQQJ	YFFY	DXXD	CPPC	ZHHZ	LWWL	vertrauen	sonnig	gütig	genießen	träumen	küssen	versagen	sterben	gierig	gemein	töten	krank	1	acq_USpleas_CSpleas2_RW	acq4567_RW	4	47	400	1	300	300	371	50	0	1	1	blank2r.bmp	0	1	+	0	1	blank2r.bmp	492	1	YFFY	492	1	blank2r.bmp	572	3	küssen	866	1	!	1239	1	!	1266	0	0	0	0	0	0	0	0	0	0	0	0	0	0	0	0	0	0	0	0	0	0	0	0	0	0	0	0	0	0
071719	11:55:15	12:01:54	398356	5.0.10.0	5_exp_RW	61	Rpleas_acq	CS_A	JQQJ	YFFY	DXXD	CPPC	ZHHZ	LWWL	vertrauen	sonnig	gütig	genießen	träumen	küssen	versagen	sterben	gierig	gemein	töten	krank	1	acq_USpleas_CSpleas2_RW	acq4567_RW	4	48	400	1	300	300	393	50	0	1	1	blank2r.bmp	0	1	+	0	1	blank2r.bmp	492	1	YFFY	492	1	blank2r.bmp	572	1	genießen	866	1	!	1239	1	!	1292	0	0	0	0	0	0	0	0	0	0	0	0	0	0	0	0	0	0	0	0	0	0	0	0	0	0	0	0	0	0
071719	11:55:15	12:01:56	400408	5.0.10.0	5_exp_RW	61	Rpleas_acq	CS_A	JQQJ	YFFY	DXXD	CPPC	ZHHZ	LWWL	vertrauen	sonnig	gütig	genießen	träumen	küssen	versagen	sterben	gierig	gemein	töten	krank	1	acq_USpleas_CSpleas2_RW	acq4567_RW	4	49	400	0	300	300	288	50	0	1	1	blank2r.bmp	0	1	+	0	1	blank2r.bmp	492	1	YFFY	492	1	blank2r.bmp	572	2	träumen	866	1	!	-1	1	!	-1	0	0	0	0	0	0	0	0	0	0	0	0	0	0	0	0	0	0	0	0	0	0	0	0	0	0	0	0	0	0
071719	11:55:15	12:01:58	402501	5.0.10.0	5_exp_RW	61	Rpleas_acq	CS_A	JQQJ	YFFY	DXXD	CPPC	ZHHZ	LWWL	vertrauen	sonnig	gütig	genießen	träumen	küssen	versagen	sterben	gierig	gemein	töten	krank	1	acq_USunple_CSunple2_RW	acq4567_RW	4	50	400	0	300	300	314	46	0	1	1	blank2r.bmp	0	1	+	0	1	blank2r.bmp	492	1	CPPC	492	1	blank2r.bmp	572	2	töten	866	1	!	-1	1	!	-1	0	0	0	0	0	0	0	0	0	0	0	0	0	0	0	0	0	0	0	0	0	0	0	0	0	0	0	0	0	0
071719	11:55:15	12:02:00	404713	5.0.10.0	5_exp_RW	61	Rpleas_acq	CS_A	JQQJ	YFFY	DXXD	CPPC	ZHHZ	LWWL	vertrauen	sonnig	gütig	genießen	träumen	küssen	versagen	sterben	gierig	gemein	töten	krank	1	acq_USunple_CSunple2_RW	acq4567_RW	4	51	400	1	300	300	407	46	0	1	1	blank2r.bmp	0	1	+	0	1	blank2r.bmp	492	1	CPPC	492	1	blank2r.bmp	572	1	gemein	866	1	!	1239	1	!	1306	0	0	0	0	0	0	0	0	0	0	0	0	0	0	0	0	0	0	0	0	0	0	0	0	0	0	0	0	0	0
071719	11:55:15	12:02:03	406952	5.0.10.0	5_exp_RW	61	Rpleas_acq	CS_A	JQQJ	YFFY	DXXD	CPPC	ZHHZ	LWWL	vertrauen	sonnig	gütig	genießen	träumen	küssen	versagen	sterben	gierig	gemein	töten	krank	1	acq_USpleas_CSpleas2_RW	acq4567_RW	4	52	400	1	300	300	450	50	0	1	1	blank2r.bmp	0	1	+	0	1	blank2r.bmp	492	1	YFFY	492	1	blank2r.bmp	572	1	genießen	866	1	!	1239	1	!	1346	0	0	0	0	0	0	0	0	0	0	0	0	0	0	0	0	0	0	0	0	0	0	0	0	0	0	0	0	0	0
071719	11:55:15	12:02:05	409205	5.0.10.0	5_exp_RW	61	Rpleas_acq	CS_A	JQQJ	YFFY	DXXD	CPPC	ZHHZ	LWWL	vertrauen	sonnig	gütig	genießen	träumen	küssen	versagen	sterben	gierig	gemein	töten	krank	1	acq_USunple_CSunple1_RW	acq4567_RW	4	53	400	1	300	300	457	46	0	1	1	blank2r.bmp	0	1	+	0	1	blank2r.bmp	492	1	DXXD	492	1	blank2r.bmp	572	2	sterben	866	1	!	1239	1	!	1359	0	0	0	0	0	0	0	0	0	0	0	0	0	0	0	0	0	0	0	0	0	0	0	0	0	0	0	0	0	0
071719	11:55:15	12:02:07	411404	5.0.10.0	5_exp_RW	61	Rpleas_acq	CS_A	JQQJ	YFFY	DXXD	CPPC	ZHHZ	LWWL	vertrauen	sonnig	gütig	genießen	träumen	küssen	versagen	sterben	gierig	gemein	töten	krank	1	acq_USunple_CSunple1_RW	acq4567_RW	4	54	400	1	300	300	405	46	0	1	1	blank2r.bmp	0	1	+	0	1	blank2r.bmp	492	1	DXXD	492	1	blank2r.bmp	572	1	versagen	866	1	!	1239	1	!	1306	0	0	0	0	0	0	0	0	0	0	0	0	0	0	0	0	0	0	0	0	0	0	0	0	0	0	0	0	0	0
071719	11:55:15	12:02:09	413483	5.0.10.0	5_exp_RW	61	Rpleas_acq	CS_A	JQQJ	YFFY	DXXD	CPPC	ZHHZ	LWWL	vertrauen	sonnig	gütig	genießen	träumen	küssen	versagen	sterben	gierig	gemein	töten	krank	1	acq_USunple_CSunple1_RW	acq4567_RW	4	55	400	0	300	300	312	50	0	0	1	blank2r.bmp	0	1	+	0	1	blank2r.bmp	492	1	DXXD	492	1	blank2r.bmp	572	3	gierig	866	1	!	-1	1	!	-1	0	0	0	0	0	0	0	0	0	0	0	0	0	0	0	0	0	0	0	0	0	0	0	0	0	0	0	0	0	0
071719	11:55:15	12:02:11	415656	5.0.10.0	5_exp_RW	61	Rpleas_acq	CS_A	JQQJ	YFFY	DXXD	CPPC	ZHHZ	LWWL	vertrauen	sonnig	gütig	genießen	träumen	küssen	versagen	sterben	gierig	gemein	töten	krank	1	acq_USpleas_CSpleas1_RW	acq4567_RW	4	56	400	1	300	300	369	50	0	1	1	blank2r.bmp	0	1	+	0	1	blank2r.bmp	492	1	JQQJ	492	1	blank2r.bmp	572	1	vertrauen	866	1	!	1239	1	!	1266	0	0	0	0	0	0	0	0	0	0	0	0	0	0	0	0	0	0	0	0	0	0	0	0	0	0	0	0	0	0
071719	11:55:15	12:02:13	417841	5.0.10.0	5_exp_RW	61	Rpleas_acq	CS_A	JQQJ	YFFY	DXXD	CPPC	ZHHZ	LWWL	vertrauen	sonnig	gütig	genießen	träumen	küssen	versagen	sterben	gierig	gemein	töten	krank	1	acq_USunple_CSunple2_RW	acq4567_RW	4	57	400	1	300	300	388	46	0	1	1	blank2r.bmp	0	1	+	0	1	blank2r.bmp	492	1	CPPC	492	1	blank2r.bmp	572	3	krank	866	1	!	1239	1	!	1292	0	0	0	0	0	0	0	0	0	0	0	0	0	0	0	0	0	0	0	0	0	0	0	0	0	0	0	0	0	0
071719	11:55:15	12:02:16	419987	5.0.10.0	5_exp_RW	61	Rpleas_acq	CS_A	JQQJ	YFFY	DXXD	CPPC	ZHHZ	LWWL	vertrauen	sonnig	gütig	genießen	träumen	küssen	versagen	sterben	gierig	gemein	töten	krank	1	acq_USunple_CSunple2_RW	acq4567_RW	4	58	400	1	300	300	346	46	0	1	1	blank2r.bmp	0	1	+	0	1	blank2r.bmp	492	1	CPPC	492	1	blank2r.bmp	572	2	töten	866	1	!	1239	1	!	1252	0	0	0	0	0	0	0	0	0	0	0	0	0	0	0	0	0	0	0	0	0	0	0	0	0	0	0	0	0	0
071719	11:55:15	12:02:18	422133	5.0.10.0	5_exp_RW	61	Rpleas_acq	CS_A	JQQJ	YFFY	DXXD	CPPC	ZHHZ	LWWL	vertrauen	sonnig	gütig	genießen	träumen	küssen	versagen	sterben	gierig	gemein	töten	krank	1	acq_USunple_CSunple1_RW	acq4567_RW	4	59	400	1	300	300	346	46	0	1	1	blank2r.bmp	0	1	+	0	1	blank2r.bmp	492	1	DXXD	492	1	blank2r.bmp	572	2	sterben	866	1	!	1239	1	!	1252	0	0	0	0	0	0	0	0	0	0	0	0	0	0	0	0	0	0	0	0	0	0	0	0	0	0	0	0	0	0
071719	11:55:15	12:02:20	424279	5.0.10.0	5_exp_RW	61	Rpleas_acq	CS_A	JQQJ	YFFY	DXXD	CPPC	ZHHZ	LWWL	vertrauen	sonnig	gütig	genießen	träumen	küssen	versagen	sterben	gierig	gemein	töten	krank	1	acq_USpleas_CSpleas1_RW	acq4567_RW	4	60	400	1	300	300	349	50	0	1	1	blank2r.bmp	0	1	+	0	1	blank2r.bmp	492	1	JQQJ	492	1	blank2r.bmp	572	2	sonnig	866	1	!	1239	1	!	1252	0	0	0	0	0	0	0	0	0	0	0	0	0	0	0	0	0	0	0	0	0	0	0	0	0	0	0	0	0	0
071719	11:55:15	12:02:22	426491	5.0.10.0	5_exp_RW	61	Rpleas_acq	CS_A	JQQJ	YFFY	DXXD	CPPC	ZHHZ	LWWL	vertrauen	sonnig	gütig	genießen	träumen	küssen	versagen	sterben	gierig	gemein	töten	krank	1	acq_USunple_CSunple1_RW	acq4567_RW	4	61	400	1	300	300	402	46	0	1	1	blank2r.bmp	0	1	+	0	1	blank2r.bmp	492	1	DXXD	492	1	blank2r.bmp	572	1	versagen	866	1	!	1239	1	!	1306	0	0	0	0	0	0	0	0	0	0	0	0	0	0	0	0	0	0	0	0	0	0	0	0	0	0	0	0	0	0
071719	11:55:15	12:02:24	428704	5.0.10.0	5_exp_RW	61	Rpleas_acq	CS_A	JQQJ	YFFY	DXXD	CPPC	ZHHZ	LWWL	vertrauen	sonnig	gütig	genießen	träumen	küssen	versagen	sterben	gierig	gemein	töten	krank	1	acq_USpleas_CSpleas1_RW	acq4567_RW	4	62	400	1	300	300	424	50	0	1	1	blank2r.bmp	0	1	+	0	1	blank2r.bmp	492	1	JQQJ	492	1	blank2r.bmp	572	3	gütig	866	1	!	1239	1	!	1319	0	0	0	0	0	0	0	0	0	0	0	0	0	0	0	0	0	0	0	0	0	0	0	0	0	0	0	0	0	0
071719	11:55:15	12:02:27	430916	5.0.10.0	5_exp_RW	61	Rpleas_acq	CS_A	JQQJ	YFFY	DXXD	CPPC	ZHHZ	LWWL	vertrauen	sonnig	gütig	genießen	träumen	küssen	versagen	sterben	gierig	gemein	töten	krank	1	acq_USpleas_CSpleas2_RW	acq4567_RW	4	63	400	1	300	300	412	50	0	1	1	blank2r.bmp	0	1	+	0	1	blank2r.bmp	492	1	YFFY	492	1	blank2r.bmp	572	2	träumen	866	1	!	1239	1	!	1319	0	0	0	0	0	0	0	0	0	0	0	0	0	0	0	0	0	0	0	0	0	0	0	0	0	0	0	0	0	0
071719	11:55:15	12:02:29	433075	5.0.10.0	5_exp_RW	61	Rpleas_acq	CS_A	JQQJ	YFFY	DXXD	CPPC	ZHHZ	LWWL	vertrauen	sonnig	gütig	genießen	träumen	küssen	versagen	sterben	gierig	gemein	töten	krank	1	acq_USunple_CSunple1_RW	acq4567_RW	4	64	400	1	300	300	363	50	0	0	1	blank2r.bmp	0	1	+	0	1	blank2r.bmp	492	1	DXXD	492	1	blank2r.bmp	572	3	gierig	866	1	!	1239	1	!	1266	0	0	0	0	0	0	0	0	0	0	0	0	0	0	0	0	0	0	0	0	0	0	0	0	0	0	0	0	0	0
071719	11:55:15	12:02:31	435287	5.0.10.0	5_exp_RW	61	Rpleas_acq	CS_A	JQQJ	YFFY	DXXD	CPPC	ZHHZ	LWWL	vertrauen	sonnig	gütig	genießen	träumen	küssen	versagen	sterben	gierig	gemein	töten	krank	1	acq_USpleas_CSpleas2_RW	acq4567_RW	4	65	400	1	300	300	416	50	0	1	1	blank2r.bmp	0	1	+	0	1	blank2r.bmp	492	1	YFFY	492	1	blank2r.bmp	572	3	küssen	866	1	!	1239	1	!	1319	0	0	0	0	0	0	0	0	0	0	0	0	0	0	0	0	0	0	0	0	0	0	0	0	0	0	0	0	0	0
071719	11:55:15	12:02:33	437380	5.0.10.0	5_exp_RW	61	Rpleas_acq	CS_A	JQQJ	YFFY	DXXD	CPPC	ZHHZ	LWWL	vertrauen	sonnig	gütig	genießen	träumen	küssen	versagen	sterben	gierig	gemein	töten	krank	1	acq_USunple_CSunple2_RW	acq4567_RW	4	66	400	0	300	300	323	46	0	1	1	blank2r.bmp	0	1	+	0	1	blank2r.bmp	492	1	CPPC	492	1	blank2r.bmp	572	1	gemein	866	1	!	-1	1	!	-1	0	0	0	0	0	0	0	0	0	0	0	0	0	0	0	0	0	0	0	0	0	0	0	0	0	0	0	0	0	0
071719	11:55:15	12:02:35	439539	5.0.10.0	5_exp_RW	61	Rpleas_acq	CS_A	JQQJ	YFFY	DXXD	CPPC	ZHHZ	LWWL	vertrauen	sonnig	gütig	genießen	träumen	küssen	versagen	sterben	gierig	gemein	töten	krank	1	acq_USunple_CSunple2_RW	acq4567_RW	4	67	400	1	300	300	346	46	0	1	1	blank2r.bmp	0	1	+	0	1	blank2r.bmp	492	1	CPPC	492	1	blank2r.bmp	572	3	krank	866	1	!	1239	1	!	1252	0	0	0	0	0	0	0	0	0	0	0	0	0	0	0	0	0	0	0	0	0	0	0	0	0	0	0	0	0	0
071719	11:55:15	12:02:37	441765	5.0.10.0	5_exp_RW	61	Rpleas_acq	CS_A	JQQJ	YFFY	DXXD	CPPC	ZHHZ	LWWL	vertrauen	sonnig	gütig	genießen	träumen	küssen	versagen	sterben	gierig	gemein	töten	krank	1	acq_USpleas_CSpleas2_RW	acq4567_RW	4	68	400	1	300	300	431	50	0	1	1	blank2r.bmp	0	1	+	0	1	blank2r.bmp	492	1	YFFY	492	1	blank2r.bmp	572	3	küssen	866	1	!	1239	1	!	1332	0	0	0	0	0	0	0	0	0	0	0	0	0	0	0	0	0	0	0	0	0	0	0	0	0	0	0	0	0	0
071719	11:55:15	12:02:40	443871	5.0.10.0	5_exp_RW	61	Rpleas_acq	CS_A	JQQJ	YFFY	DXXD	CPPC	ZHHZ	LWWL	vertrauen	sonnig	gütig	genießen	träumen	küssen	versagen	sterben	gierig	gemein	töten	krank	1	acq_USunple_CSunple2_RW	acq4567_RW	4	69	400	0	300	300	333	46	0	1	1	blank2r.bmp	0	1	+	0	1	blank2r.bmp	492	1	CPPC	492	1	blank2r.bmp	572	1	gemein	866	1	!	-1	1	!	-1	0	0	0	0	0	0	0	0	0	0	0	0	0	0	0	0	0	0	0	0	0	0	0	0	0	0	0	0	0	0
071719	11:55:15	12:02:42	446110	5.0.10.0	5_exp_RW	61	Rpleas_acq	CS_A	JQQJ	YFFY	DXXD	CPPC	ZHHZ	LWWL	vertrauen	sonnig	gütig	genießen	träumen	küssen	versagen	sterben	gierig	gemein	töten	krank	1	acq_USpleas_CSpleas2_RW	acq4567_RW	4	70	400	1	300	300	430	50	0	1	1	blank2r.bmp	0	1	+	0	1	blank2r.bmp	492	1	YFFY	492	1	blank2r.bmp	572	2	träumen	866	1	!	1239	1	!	1332	0	0	0	0	0	0	0	0	0	0	0	0	0	0	0	0	0	0	0	0	0	0	0	0	0	0	0	0	0	0
071719	11:55:15	12:02:44	448615	5.0.10.0	5_exp_RW	61	Rpleas_acq	CS_A	JQQJ	YFFY	DXXD	CPPC	ZHHZ	LWWL	vertrauen	sonnig	gütig	genießen	träumen	küssen	versagen	sterben	gierig	gemein	töten	krank	1	acq_USpleas_CSpleas1_RW	acq4567_RW	4	71	400	0	300	300	733	50	0	1	1	blank2r.bmp	0	1	+	0	1	blank2r.bmp	492	1	JQQJ	492	1	blank2r.bmp	572	1	vertrauen	866	1	!	1239	1	!	-1	0	0	0	0	0	0	0	0	0	0	0	0	0	0	0	0	0	0	0	0	0	0	0	0	0	0	0	0	0	0
071719	11:55:15	12:02:46	450841	5.0.10.0	5_exp_RW	61	Rpleas_acq	CS_A	JQQJ	YFFY	DXXD	CPPC	ZHHZ	LWWL	vertrauen	sonnig	gütig	genießen	träumen	küssen	versagen	sterben	gierig	gemein	töten	krank	1	acq_USpleas_CSpleas1_RW	acq4567_RW	4	72	400	1	300	300	424	50	0	1	1	blank2r.bmp	0	1	+	0	1	blank2r.bmp	492	1	JQQJ	492	1	blank2r.bmp	572	1	vertrauen	866	1	!	1239	1	!	1319	0	0	0	0	0	0	0	0	0	0	0	0	0	0	0	0	0	0	0	0	0	0	0	0	0	0	0	0	0	0
071719	11:55:15	12:02:49	453000	5.0.10.0	5_exp_RW	61	Rpleas_acq	CS_A	JQQJ	YFFY	DXXD	CPPC	ZHHZ	LWWL	vertrauen	sonnig	gütig	genießen	träumen	küssen	versagen	sterben	gierig	gemein	töten	krank	1	acq_USunple_CSunple2_RW	acq4567_RW	4	73	400	1	300	300	369	46	0	1	1	blank2r.bmp	0	1	+	0	1	blank2r.bmp	492	1	CPPC	492	1	blank2r.bmp	572	3	krank	866	1	!	1239	1	!	1266	0	0	0	0	0	0	0	0	0	0	0	0	0	0	0	0	0	0	0	0	0	0	0	0	0	0	0	0	0	0
071719	11:55:15	12:02:51	455213	5.0.10.0	5_exp_RW	61	Rpleas_acq	CS_A	JQQJ	YFFY	DXXD	CPPC	ZHHZ	LWWL	vertrauen	sonnig	gütig	genießen	träumen	küssen	versagen	sterben	gierig	gemein	töten	krank	1	acq_USpleas_CSpleas1_RW	acq4567_RW	4	74	400	1	300	300	412	50	0	1	1	blank2r.bmp	0	1	+	0	1	blank2r.bmp	492	1	JQQJ	492	1	blank2r.bmp	572	2	sonnig	866	1	!	1239	1	!	1319	0	0	0	0	0	0	0	0	0	0	0	0	0	0	0	0	0	0	0	0	0	0	0	0	0	0	0	0	0	0
071719	11:55:15	12:02:53	457465	5.0.10.0	5_exp_RW	61	Rpleas_acq	CS_A	JQQJ	YFFY	DXXD	CPPC	ZHHZ	LWWL	vertrauen	sonnig	gütig	genießen	träumen	küssen	versagen	sterben	gierig	gemein	töten	krank	1	acq_USpleas_CSpleas1_RW	acq4567_RW	4	75	400	0	300	300	479	50	0	1	1	blank2r.bmp	0	1	+	0	1	blank2r.bmp	492	1	JQQJ	492	1	blank2r.bmp	572	3	gütig	866	1	!	1239	1	!	-1	0	0	0	0	0	0	0	0	0	0	0	0	0	0	0	0	0	0	0	0	0	0	0	0	0	0	0	0	0	0
071719	11:55:15	12:02:55	459518	5.0.10.0	5_exp_RW	61	Rpleas_acq	CS_A	JQQJ	YFFY	DXXD	CPPC	ZHHZ	LWWL	vertrauen	sonnig	gütig	genießen	träumen	küssen	versagen	sterben	gierig	gemein	töten	krank	1	acq_USunple_CSunple1_RW	acq4567_RW	4	76	400	0	300	300	275	46	0	1	1	blank2r.bmp	0	1	+	0	1	blank2r.bmp	492	1	DXXD	492	1	blank2r.bmp	572	2	sterben	866	1	!	-1	1	!	-1	0	0	0	0	0	0	0	0	0	0	0	0	0	0	0	0	0	0	0	0	0	0	0	0	0	0	0	0	0	0
071719	11:55:15	12:02:57	461623	5.0.10.0	5_exp_RW	61	Rpleas_acq	CS_A	JQQJ	YFFY	DXXD	CPPC	ZHHZ	LWWL	vertrauen	sonnig	gütig	genießen	träumen	küssen	versagen	sterben	gierig	gemein	töten	krank	1	acq_USunple_CSunple2_RW	acq4567_RW	4	77	400	0	300	300	328	46	0	1	1	blank2r.bmp	0	1	+	0	1	blank2r.bmp	492	1	CPPC	492	1	blank2r.bmp	572	2	töten	866	1	!	-1	1	!	-1	0	0	0	0	0	0	0	0	0	0	0	0	0	0	0	0	0	0	0	0	0	0	0	0	0	0	0	0	0	0
071719	11:55:15	12:03:00	463929	5.0.10.0	5_exp_RW	61	Rpleas_acq	CS_A	JQQJ	YFFY	DXXD	CPPC	ZHHZ	LWWL	vertrauen	sonnig	gütig	genießen	träumen	küssen	versagen	sterben	gierig	gemein	töten	krank	1	acq_USunple_CSunple1_RW	acq4567_RW	4	78	400	0	300	300	520	46	0	1	1	blank2r.bmp	0	1	+	0	1	blank2r.bmp	492	1	DXXD	492	1	blank2r.bmp	572	1	versagen	866	1	!	1239	1	!	-1	0	0	0	0	0	0	0	0	0	0	0	0	0	0	0	0	0	0	0	0	0	0	0	0	0	0	0	0	0	0
071719	11:55:15	12:03:02	466128	5.0.10.0	5_exp_RW	61	Rpleas_acq	CS_A	JQQJ	YFFY	DXXD	CPPC	ZHHZ	LWWL	vertrauen	sonnig	gütig	genießen	träumen	küssen	versagen	sterben	gierig	gemein	töten	krank	1	acq_USpleas_CSpleas2_RW	acq4567_RW	4	79	400	1	300	300	390	50	0	1	1	blank2r.bmp	0	1	+	0	1	blank2r.bmp	492	1	YFFY	492	1	blank2r.bmp	572	1	genießen	866	1	!	1239	1	!	1292	0	0	0	0	0	0	0	0	0	0	0	0	0	0	0	0	0	0	0	0	0	0	0	0	0	0	0	0	0	0
071719	11:55:15	12:03:04	468181	5.0.10.0	5_exp_RW	61	Rpleas_acq	CS_A	JQQJ	YFFY	DXXD	CPPC	ZHHZ	LWWL	vertrauen	sonnig	gütig	genießen	träumen	küssen	versagen	sterben	gierig	gemein	töten	krank	1	acq_USunple_CSunple1_RW	acq4567_RW	4	80	400	0	300	300	282	46	0	1	1	blank2r.bmp	0	1	+	0	1	blank2r.bmp	492	1	DXXD	492	1	blank2r.bmp	572	3	gierig	866	1	!	-1	1	!	-1	0	0	0	0	0	0	0	0	0	0	0	0	0	0	0	0	0	0	0	0	0	0	0	0	0	0	0	0	0	0
071719	11:55:15	12:03:25	489772	5.0.10.0	5_exp_RW	61	Rpleas_acq	CS_A	JQQJ	YFFY	DXXD	CPPC	ZHHZ	LWWL	vertrauen	sonnig	gütig	genießen	träumen	küssen	versagen	sterben	gierig	gemein	töten	krank	1	acq_USunple_CSunple1_RW	acq4567_RW	5	1	400	1	300	300	347	46	0	1	1	blank2r.bmp	0	1	+	0	1	blank2r.bmp	492	1	DXXD	492	1	blank2r.bmp	572	2	sterben	866	1	!	1239	1	!	1252	0	0	0	0	0	0	0	0	0	0	0	0	0	0	0	0	0	0	0	0	0	0	0	0	0	0	0	0	0	0
071719	11:55:15	12:03:27	491851	5.0.10.0	5_exp_RW	61	Rpleas_acq	CS_A	JQQJ	YFFY	DXXD	CPPC	ZHHZ	LWWL	vertrauen	sonnig	gütig	genießen	träumen	küssen	versagen	sterben	gierig	gemein	töten	krank	1	acq_USpleas_CSpleas1_RW	acq4567_RW	5	2	400	0	300	300	306	50	0	1	1	blank2r.bmp	0	1	+	0	1	blank2r.bmp	492	1	JQQJ	492	1	blank2r.bmp	572	1	vertrauen	866	1	!	-1	1	!	-1	0	0	0	0	0	0	0	0	0	0	0	0	0	0	0	0	0	0	0	0	0	0	0	0	0	0	0	0	0	0
071719	11:55:15	12:03:30	494010	5.0.10.0	5_exp_RW	61	Rpleas_acq	CS_A	JQQJ	YFFY	DXXD	CPPC	ZHHZ	LWWL	vertrauen	sonnig	gütig	genießen	träumen	küssen	versagen	sterben	gierig	gemein	töten	krank	1	acq_USunple_CSunple2_RW	acq4567_RW	5	3	400	1	300	300	346	46	0	1	1	blank2r.bmp	0	1	+	0	1	blank2r.bmp	492	1	CPPC	492	1	blank2r.bmp	572	1	gemein	866	1	!	1239	1	!	1252	0	0	0	0	0	0	0	0	0	0	0	0	0	0	0	0	0	0	0	0	0	0	0	0	0	0	0	0	0	0
071719	11:55:15	12:03:32	496103	5.0.10.0	5_exp_RW	61	Rpleas_acq	CS_A	JQQJ	YFFY	DXXD	CPPC	ZHHZ	LWWL	vertrauen	sonnig	gütig	genießen	träumen	küssen	versagen	sterben	gierig	gemein	töten	krank	1	acq_USpleas_CSpleas2_RW	acq4567_RW	5	4	400	0	300	300	307	50	0	1	1	blank2r.bmp	0	1	+	0	1	blank2r.bmp	492	1	YFFY	492	1	blank2r.bmp	572	1	genießen	866	1	!	-1	1	!	-1	0	0	0	0	0	0	0	0	0	0	0	0	0	0	0	0	0	0	0	0	0	0	0	0	0	0	0	0	0	0
071719	11:55:15	12:03:34	498342	5.0.10.0	5_exp_RW	61	Rpleas_acq	CS_A	JQQJ	YFFY	DXXD	CPPC	ZHHZ	LWWL	vertrauen	sonnig	gütig	genießen	träumen	küssen	versagen	sterben	gierig	gemein	töten	krank	1	acq_USpleas_CSpleas2_RW	acq4567_RW	5	5	400	1	300	300	414	50	0	1	1	blank2r.bmp	0	1	+	0	1	blank2r.bmp	492	1	YFFY	492	1	blank2r.bmp	572	3	küssen	866	1	!	1239	1	!	1319	0	0	0	0	0	0	0	0	0	0	0	0	0	0	0	0	0	0	0	0	0	0	0	0	0	0	0	0	0	0
071719	11:55:15	12:03:36	500594	5.0.10.0	5_exp_RW	61	Rpleas_acq	CS_A	JQQJ	YFFY	DXXD	CPPC	ZHHZ	LWWL	vertrauen	sonnig	gütig	genießen	träumen	küssen	versagen	sterben	gierig	gemein	töten	krank	1	acq_USpleas_CSpleas1_RW	acq4567_RW	5	6	400	1	300	300	452	50	0	1	1	blank2r.bmp	0	1	+	0	1	blank2r.bmp	492	1	JQQJ	492	1	blank2r.bmp	572	3	gütig	866	1	!	1239	1	!	1359	0	0	0	0	0	0	0	0	0	0	0	0	0	0	0	0	0	0	0	0	0	0	0	0	0	0	0	0	0	0
071719	11:55:15	12:03:38	502793	5.0.10.0	5_exp_RW	61	Rpleas_acq	CS_A	JQQJ	YFFY	DXXD	CPPC	ZHHZ	LWWL	vertrauen	sonnig	gütig	genießen	träumen	küssen	versagen	sterben	gierig	gemein	töten	krank	1	acq_USunple_CSunple2_RW	acq4567_RW	5	7	400	1	300	300	389	46	0	1	1	blank2r.bmp	0	1	+	0	1	blank2r.bmp	492	1	CPPC	492	1	blank2r.bmp	572	3	krank	866	1	!	1239	1	!	1292	0	0	0	0	0	0	0	0	0	0	0	0	0	0	0	0	0	0	0	0	0	0	0	0	0	0	0	0	0	0
071719	11:55:15	12:03:41	505019	5.0.10.0	5_exp_RW	61	Rpleas_acq	CS_A	JQQJ	YFFY	DXXD	CPPC	ZHHZ	LWWL	vertrauen	sonnig	gütig	genießen	träumen	küssen	versagen	sterben	gierig	gemein	töten	krank	1	acq_USpleas_CSpleas1_RW	acq4567_RW	5	8	400	1	300	300	416	50	0	1	1	blank2r.bmp	0	1	+	0	1	blank2r.bmp	492	1	JQQJ	492	1	blank2r.bmp	572	2	sonnig	866	1	!	1239	1	!	1319	0	0	0	0	0	0	0	0	0	0	0	0	0	0	0	0	0	0	0	0	0	0	0	0	0	0	0	0	0	0
071719	11:55:15	12:03:43	507205	5.0.10.0	5_exp_RW	61	Rpleas_acq	CS_A	JQQJ	YFFY	DXXD	CPPC	ZHHZ	LWWL	vertrauen	sonnig	gütig	genießen	träumen	küssen	versagen	sterben	gierig	gemein	töten	krank	1	acq_USpleas_CSpleas1_RW	acq4567_RW	5	9	400	1	300	300	389	50	0	1	1	blank2r.bmp	0	1	+	0	1	blank2r.bmp	492	1	JQQJ	492	1	blank2r.bmp	572	2	sonnig	866	1	!	1239	1	!	1292	0	0	0	0	0	0	0	0	0	0	0	0	0	0	0	0	0	0	0	0	0	0	0	0	0	0	0	0	0	0
071719	11:55:15	12:03:45	509404	5.0.10.0	5_exp_RW	61	Rpleas_acq	CS_A	JQQJ	YFFY	DXXD	CPPC	ZHHZ	LWWL	vertrauen	sonnig	gütig	genießen	träumen	küssen	versagen	sterben	gierig	gemein	töten	krank	1	acq_USpleas_CSpleas2_RW	acq4567_RW	5	10	400	1	300	300	406	50	0	1	1	blank2r.bmp	0	1	+	0	1	blank2r.bmp	492	1	YFFY	492	1	blank2r.bmp	572	2	träumen	866	1	!	1239	1	!	1306	0	0	0	0	0	0	0	0	0	0	0	0	0	0	0	0	0	0	0	0	0	0	0	0	0	0	0	0	0	0
071719	11:55:15	12:03:47	511603	5.0.10.0	5_exp_RW	61	Rpleas_acq	CS_A	JQQJ	YFFY	DXXD	CPPC	ZHHZ	LWWL	vertrauen	sonnig	gütig	genießen	träumen	küssen	versagen	sterben	gierig	gemein	töten	krank	1	acq_USpleas_CSpleas2_RW	acq4567_RW	5	11	400	1	300	300	403	50	0	1	1	blank2r.bmp	0	1	+	0	1	blank2r.bmp	492	1	YFFY	492	1	blank2r.bmp	572	1	genießen	866	1	!	1239	1	!	1306	0	0	0	0	0	0	0	0	0	0	0	0	0	0	0	0	0	0	0	0	0	0	0	0	0	0	0	0	0	0
071719	11:55:15	12:03:50	513855	5.0.10.0	5_exp_RW	61	Rpleas_acq	CS_A	JQQJ	YFFY	DXXD	CPPC	ZHHZ	LWWL	vertrauen	sonnig	gütig	genießen	träumen	küssen	versagen	sterben	gierig	gemein	töten	krank	1	acq_USunple_CSunple2_RW	acq4567_RW	5	12	400	1	300	300	455	46	0	1	1	blank2r.bmp	0	1	+	0	1	blank2r.bmp	492	1	CPPC	492	1	blank2r.bmp	572	2	töten	866	1	!	1239	1	!	1359	0	0	0	0	0	0	0	0	0	0	0	0	0	0	0	0	0	0	0	0	0	0	0	0	0	0	0	0	0	0
071719	11:55:15	12:03:52	515948	5.0.10.0	5_exp_RW	61	Rpleas_acq	CS_A	JQQJ	YFFY	DXXD	CPPC	ZHHZ	LWWL	vertrauen	sonnig	gütig	genießen	träumen	küssen	versagen	sterben	gierig	gemein	töten	krank	1	acq_USunple_CSunple2_RW	acq4567_RW	5	13	400	0	300	300	311	50	0	0	1	blank2r.bmp	0	1	+	0	1	blank2r.bmp	492	1	CPPC	492	1	blank2r.bmp	572	3	krank	866	1	!	-1	1	!	-1	0	0	0	0	0	0	0	0	0	0	0	0	0	0	0	0	0	0	0	0	0	0	0	0	0	0	0	0	0	0
071719	11:55:15	12:03:54	518174	5.0.10.0	5_exp_RW	61	Rpleas_acq	CS_A	JQQJ	YFFY	DXXD	CPPC	ZHHZ	LWWL	vertrauen	sonnig	gütig	genießen	träumen	küssen	versagen	sterben	gierig	gemein	töten	krank	1	acq_USpleas_CSpleas2_RW	acq4567_RW	5	14	400	1	300	300	407	50	0	1	1	blank2r.bmp	0	1	+	0	1	blank2r.bmp	492	1	YFFY	492	1	blank2r.bmp	572	3	küssen	866	1	!	1239	1	!	1306	0	0	0	0	0	0	0	0	0	0	0	0	0	0	0	0	0	0	0	0	0	0	0	0	0	0	0	0	0	0
071719	11:55:15	12:03:56	520333	5.0.10.0	5_exp_RW	61	Rpleas_acq	CS_A	JQQJ	YFFY	DXXD	CPPC	ZHHZ	LWWL	vertrauen	sonnig	gütig	genießen	träumen	küssen	versagen	sterben	gierig	gemein	töten	krank	1	acq_USunple_CSunple1_RW	acq4567_RW	5	15	400	1	300	300	371	50	0	0	1	blank2r.bmp	0	1	+	0	1	blank2r.bmp	492	1	DXXD	492	1	blank2r.bmp	572	1	versagen	866	1	!	1239	1	!	1266	0	0	0	0	0	0	0	0	0	0	0	0	0	0	0	0	0	0	0	0	0	0	0	0	0	0	0	0	0	0
071719	11:55:15	12:03:58	522492	5.0.10.0	5_exp_RW	61	Rpleas_acq	CS_A	JQQJ	YFFY	DXXD	CPPC	ZHHZ	LWWL	vertrauen	sonnig	gütig	genießen	träumen	küssen	versagen	sterben	gierig	gemein	töten	krank	1	acq_USunple_CSunple1_RW	acq4567_RW	5	16	400	1	300	300	369	46	0	1	1	blank2r.bmp	0	1	+	0	1	blank2r.bmp	492	1	DXXD	492	1	blank2r.bmp	572	3	gierig	866	1	!	1239	1	!	1266	0	0	0	0	0	0	0	0	0	0	0	0	0	0	0	0	0	0	0	0	0	0	0	0	0	0	0	0	0	0
071719	11:55:15	12:04:00	524731	5.0.10.0	5_exp_RW	61	Rpleas_acq	CS_A	JQQJ	YFFY	DXXD	CPPC	ZHHZ	LWWL	vertrauen	sonnig	gütig	genießen	träumen	küssen	versagen	sterben	gierig	gemein	töten	krank	1	acq_USunple_CSunple1_RW	acq4567_RW	5	17	400	1	300	300	444	46	0	1	1	blank2r.bmp	0	1	+	0	1	blank2r.bmp	492	1	DXXD	492	1	blank2r.bmp	572	3	gierig	866	1	!	1239	1	!	1346	0	0	0	0	0	0	0	0	0	0	0	0	0	0	0	0	0	0	0	0	0	0	0	0	0	0	0	0	0	0
071719	11:55:15	12:04:03	526917	5.0.10.0	5_exp_RW	61	Rpleas_acq	CS_A	JQQJ	YFFY	DXXD	CPPC	ZHHZ	LWWL	vertrauen	sonnig	gütig	genießen	träumen	küssen	versagen	sterben	gierig	gemein	töten	krank	1	acq_USpleas_CSpleas1_RW	acq4567_RW	5	18	400	1	300	300	394	50	0	1	1	blank2r.bmp	0	1	+	0	1	blank2r.bmp	492	1	JQQJ	492	1	blank2r.bmp	572	1	vertrauen	866	1	!	1239	1	!	1292	0	0	0	0	0	0	0	0	0	0	0	0	0	0	0	0	0	0	0	0	0	0	0	0	0	0	0	0	0	0
071719	11:55:15	12:04:05	529142	5.0.10.0	5_exp_RW	61	Rpleas_acq	CS_A	JQQJ	YFFY	DXXD	CPPC	ZHHZ	LWWL	vertrauen	sonnig	gütig	genießen	träumen	küssen	versagen	sterben	gierig	gemein	töten	krank	1	acq_USunple_CSunple1_RW	acq4567_RW	5	19	400	1	300	300	435	46	0	1	1	blank2r.bmp	0	1	+	0	1	blank2r.bmp	492	1	DXXD	492	1	blank2r.bmp	572	2	sterben	866	1	!	1239	1	!	1332	0	0	0	0	0	0	0	0	0	0	0	0	0	0	0	0	0	0	0	0	0	0	0	0	0	0	0	0	0	0
071719	11:55:15	12:04:07	531208	5.0.10.0	5_exp_RW	61	Rpleas_acq	CS_A	JQQJ	YFFY	DXXD	CPPC	ZHHZ	LWWL	vertrauen	sonnig	gütig	genießen	träumen	küssen	versagen	sterben	gierig	gemein	töten	krank	1	acq_USunple_CSunple2_RW	acq4567_RW	5	20	400	0	300	300	284	46	0	1	1	blank2r.bmp	0	1	+	0	1	blank2r.bmp	492	1	CPPC	492	1	blank2r.bmp	572	2	töten	866	1	!	-1	1	!	-1	0	0	0	0	0	0	0	0	0	0	0	0	0	0	0	0	0	0	0	0	0	0	0	0	0	0	0	0	0	0
071719	11:55:15	12:04:09	533434	5.0.10.0	5_exp_RW	61	Rpleas_acq	CS_A	JQQJ	YFFY	DXXD	CPPC	ZHHZ	LWWL	vertrauen	sonnig	gütig	genießen	träumen	küssen	versagen	sterben	gierig	gemein	töten	krank	1	acq_USpleas_CSpleas2_RW	acq4567_RW	5	21	400	1	300	300	419	50	0	1	1	blank2r.bmp	0	1	+	0	1	blank2r.bmp	492	1	YFFY	492	1	blank2r.bmp	572	2	träumen	866	1	!	1239	1	!	1319	0	0	0	0	0	0	0	0	0	0	0	0	0	0	0	0	0	0	0	0	0	0	0	0	0	0	0	0	0	0
071719	11:55:15	12:04:11	535740	5.0.10.0	5_exp_RW	61	Rpleas_acq	CS_A	JQQJ	YFFY	DXXD	CPPC	ZHHZ	LWWL	vertrauen	sonnig	gütig	genießen	träumen	küssen	versagen	sterben	gierig	gemein	töten	krank	1	acq_USpleas_CSpleas1_RW	acq4567_RW	5	22	400	0	300	300	545	50	0	1	1	blank2r.bmp	0	1	+	0	1	blank2r.bmp	492	1	JQQJ	492	1	blank2r.bmp	572	3	gütig	866	1	!	1239	1	!	-1	0	0	0	0	0	0	0	0	0	0	0	0	0	0	0	0	0	0	0	0	0	0	0	0	0	0	0	0	0	0
071719	11:55:15	12:04:14	537952	5.0.10.0	5_exp_RW	61	Rpleas_acq	CS_A	JQQJ	YFFY	DXXD	CPPC	ZHHZ	LWWL	vertrauen	sonnig	gütig	genießen	träumen	küssen	versagen	sterben	gierig	gemein	töten	krank	1	acq_USunple_CSunple2_RW	acq4567_RW	5	23	400	1	300	300	408	46	0	1	1	blank2r.bmp	0	1	+	0	1	blank2r.bmp	492	1	CPPC	492	1	blank2r.bmp	572	1	gemein	866	1	!	1239	1	!	1306	0	0	0	0	0	0	0	0	0	0	0	0	0	0	0	0	0	0	0	0	0	0	0	0	0	0	0	0	0	0
071719	11:55:15	12:04:16	540205	5.0.10.0	5_exp_RW	61	Rpleas_acq	CS_A	JQQJ	YFFY	DXXD	CPPC	ZHHZ	LWWL	vertrauen	sonnig	gütig	genießen	träumen	küssen	versagen	sterben	gierig	gemein	töten	krank	1	acq_USpleas_CSpleas1_RW	acq4567_RW	5	24	400	1	300	300	465	50	0	1	1	blank2r.bmp	0	1	+	0	1	blank2r.bmp	492	1	JQQJ	492	1	blank2r.bmp	572	1	vertrauen	866	1	!	1239	1	!	1359	0	0	0	0	0	0	0	0	0	0	0	0	0	0	0	0	0	0	0	0	0	0	0	0	0	0	0	0	0	0
071719	11:55:15	12:04:18	542404	5.0.10.0	5_exp_RW	61	Rpleas_acq	CS_A	JQQJ	YFFY	DXXD	CPPC	ZHHZ	LWWL	vertrauen	sonnig	gütig	genießen	träumen	küssen	versagen	sterben	gierig	gemein	töten	krank	1	acq_USpleas_CSpleas2_RW	acq4567_RW	5	25	400	1	300	300	411	50	0	1	1	blank2r.bmp	0	1	+	0	1	blank2r.bmp	492	1	YFFY	492	1	blank2r.bmp	572	2	träumen	866	1	!	1239	1	!	1306	0	0	0	0	0	0	0	0	0	0	0	0	0	0	0	0	0	0	0	0	0	0	0	0	0	0	0	0	0	0
071719	11:55:15	12:04:20	544589	5.0.10.0	5_exp_RW	61	Rpleas_acq	CS_A	JQQJ	YFFY	DXXD	CPPC	ZHHZ	LWWL	vertrauen	sonnig	gütig	genießen	träumen	küssen	versagen	sterben	gierig	gemein	töten	krank	1	acq_USunple_CSunple1_RW	acq4567_RW	5	26	400	1	300	300	398	46	0	1	1	blank2r.bmp	0	1	+	0	1	blank2r.bmp	492	1	DXXD	492	1	blank2r.bmp	572	1	versagen	866	1	!	1239	1	!	1292	0	0	0	0	0	0	0	0	0	0	0	0	0	0	0	0	0	0	0	0	0	0	0	0	0	0	0	0	0	0
071719	11:55:15	12:04:23	546855	5.0.10.0	5_exp_RW	61	Rpleas_acq	CS_A	JQQJ	YFFY	DXXD	CPPC	ZHHZ	LWWL	vertrauen	sonnig	gütig	genießen	träumen	küssen	versagen	sterben	gierig	gemein	töten	krank	1	acq_USpleas_CSpleas1_RW	acq4567_RW	5	27	400	1	300	300	466	50	0	1	1	blank2r.bmp	0	1	+	0	1	blank2r.bmp	492	1	JQQJ	492	1	blank2r.bmp	572	3	gütig	866	1	!	1239	1	!	1372	0	0	0	0	0	0	0	0	0	0	0	0	0	0	0	0	0	0	0	0	0	0	0	0	0	0	0	0	0	0
071719	11:55:15	12:04:25	548961	5.0.10.0	5_exp_RW	61	Rpleas_acq	CS_A	JQQJ	YFFY	DXXD	CPPC	ZHHZ	LWWL	vertrauen	sonnig	gütig	genießen	träumen	küssen	versagen	sterben	gierig	gemein	töten	krank	1	acq_USunple_CSunple2_RW	acq4567_RW	5	28	400	0	300	300	328	46	0	1	1	blank2r.bmp	0	1	+	0	1	blank2r.bmp	492	1	CPPC	492	1	blank2r.bmp	572	2	töten	866	1	!	-1	1	!	-1	0	0	0	0	0	0	0	0	0	0	0	0	0	0	0	0	0	0	0	0	0	0	0	0	0	0	0	0	0	0
071719	11:55:15	12:04:27	551187	5.0.10.0	5_exp_RW	61	Rpleas_acq	CS_A	JQQJ	YFFY	DXXD	CPPC	ZHHZ	LWWL	vertrauen	sonnig	gütig	genießen	träumen	küssen	versagen	sterben	gierig	gemein	töten	krank	1	acq_USunple_CSunple1_RW	acq4567_RW	5	29	400	1	300	300	434	46	0	1	1	blank2r.bmp	0	1	+	0	1	blank2r.bmp	492	1	DXXD	492	1	blank2r.bmp	572	3	gierig	866	1	!	1239	1	!	1332	0	0	0	0	0	0	0	0	0	0	0	0	0	0	0	0	0	0	0	0	0	0	0	0	0	0	0	0	0	0
071719	11:55:15	12:04:29	553439	5.0.10.0	5_exp_RW	61	Rpleas_acq	CS_A	JQQJ	YFFY	DXXD	CPPC	ZHHZ	LWWL	vertrauen	sonnig	gütig	genießen	träumen	küssen	versagen	sterben	gierig	gemein	töten	krank	1	acq_USunple_CSunple1_RW	acq4567_RW	5	30	400	0	300	300	479	46	0	1	1	blank2r.bmp	0	1	+	0	1	blank2r.bmp	492	1	DXXD	492	1	blank2r.bmp	572	2	sterben	866	1	!	1239	1	!	-1	0	0	0	0	0	0	0	0	0	0	0	0	0	0	0	0	0	0	0	0	0	0	0	0	0	0	0	0	0	0
071719	11:55:15	12:04:31	555638	5.0.10.0	5_exp_RW	61	Rpleas_acq	CS_A	JQQJ	YFFY	DXXD	CPPC	ZHHZ	LWWL	vertrauen	sonnig	gütig	genießen	träumen	küssen	versagen	sterben	gierig	gemein	töten	krank	1	acq_USunple_CSunple2_RW	acq4567_RW	5	31	400	1	300	300	386	46	0	1	1	blank2r.bmp	0	1	+	0	1	blank2r.bmp	492	1	CPPC	492	1	blank2r.bmp	572	3	krank	866	1	!	1239	1	!	1292	0	0	0	0	0	0	0	0	0	0	0	0	0	0	0	0	0	0	0	0	0	0	0	0	0	0	0	0	0	0
071719	11:55:15	12:04:34	557864	5.0.10.0	5_exp_RW	61	Rpleas_acq	CS_A	JQQJ	YFFY	DXXD	CPPC	ZHHZ	LWWL	vertrauen	sonnig	gütig	genießen	träumen	küssen	versagen	sterben	gierig	gemein	töten	krank	1	acq_USpleas_CSpleas2_RW	acq4567_RW	5	32	400	1	300	300	429	50	0	1	1	blank2r.bmp	0	1	+	0	1	blank2r.bmp	492	1	YFFY	492	1	blank2r.bmp	572	3	küssen	866	1	!	1239	1	!	1332	0	0	0	0	0	0	0	0	0	0	0	0	0	0	0	0	0	0	0	0	0	0	0	0	0	0	0	0	0	0
071719	11:55:15	12:04:36	560036	5.0.10.0	5_exp_RW	61	Rpleas_acq	CS_A	JQQJ	YFFY	DXXD	CPPC	ZHHZ	LWWL	vertrauen	sonnig	gütig	genießen	träumen	küssen	versagen	sterben	gierig	gemein	töten	krank	1	acq_USunple_CSunple2_RW	acq4567_RW	5	33	400	1	300	300	382	46	0	1	1	blank2r.bmp	0	1	+	0	1	blank2r.bmp	492	1	CPPC	492	1	blank2r.bmp	572	1	gemein	866	1	!	1239	1	!	1279	0	0	0	0	0	0	0	0	0	0	0	0	0	0	0	0	0	0	0	0	0	0	0	0	0	0	0	0	0	0
071719	11:55:15	12:04:38	562249	5.0.10.0	5_exp_RW	61	Rpleas_acq	CS_A	JQQJ	YFFY	DXXD	CPPC	ZHHZ	LWWL	vertrauen	sonnig	gütig	genießen	träumen	küssen	versagen	sterben	gierig	gemein	töten	krank	1	acq_USunple_CSunple2_RW	acq4567_RW	5	34	400	1	300	300	419	46	0	1	1	blank2r.bmp	0	1	+	0	1	blank2r.bmp	492	1	CPPC	492	1	blank2r.bmp	572	3	krank	866	1	!	1239	1	!	1319	0	0	0	0	0	0	0	0	0	0	0	0	0	0	0	0	0	0	0	0	0	0	0	0	0	0	0	0	0	0
071719	11:55:15	12:04:40	564448	5.0.10.0	5_exp_RW	61	Rpleas_acq	CS_A	JQQJ	YFFY	DXXD	CPPC	ZHHZ	LWWL	vertrauen	sonnig	gütig	genießen	träumen	küssen	versagen	sterben	gierig	gemein	töten	krank	1	acq_USunple_CSunple1_RW	acq4567_RW	5	35	400	1	300	300	406	46	0	1	1	blank2r.bmp	0	1	+	0	1	blank2r.bmp	492	1	DXXD	492	1	blank2r.bmp	572	1	versagen	866	1	!	1239	1	!	1306	0	0	0	0	0	0	0	0	0	0	0	0	0	0	0	0	0	0	0	0	0	0	0	0	0	0	0	0	0	0
071719	11:55:15	12:04:42	566647	5.0.10.0	5_exp_RW	61	Rpleas_acq	CS_A	JQQJ	YFFY	DXXD	CPPC	ZHHZ	LWWL	vertrauen	sonnig	gütig	genießen	träumen	küssen	versagen	sterben	gierig	gemein	töten	krank	1	acq_USpleas_CSpleas1_RW	acq4567_RW	5	36	400	1	300	300	409	50	0	1	1	blank2r.bmp	0	1	+	0	1	blank2r.bmp	492	1	JQQJ	492	1	blank2r.bmp	572	2	sonnig	866	1	!	1239	1	!	1306	0	0	0	0	0	0	0	0	0	0	0	0	0	0	0	0	0	0	0	0	0	0	0	0	0	0	0	0	0	0
071719	11:55:15	12:04:44	568673	5.0.10.0	5_exp_RW	61	Rpleas_acq	CS_A	JQQJ	YFFY	DXXD	CPPC	ZHHZ	LWWL	vertrauen	sonnig	gütig	genießen	träumen	küssen	versagen	sterben	gierig	gemein	töten	krank	1	acq_USpleas_CSpleas1_RW	acq4567_RW	5	37	400	0	300	300	256	46	0	0	1	blank2r.bmp	0	1	+	0	1	blank2r.bmp	492	1	JQQJ	492	1	blank2r.bmp	572	2	sonnig	866	1	!	-1	1	!	-1	0	0	0	0	0	0	0	0	0	0	0	0	0	0	0	0	0	0	0	0	0	0	0	0	0	0	0	0	0	0
071719	11:55:15	12:04:46	570779	5.0.10.0	5_exp_RW	61	Rpleas_acq	CS_A	JQQJ	YFFY	DXXD	CPPC	ZHHZ	LWWL	vertrauen	sonnig	gütig	genießen	träumen	küssen	versagen	sterben	gierig	gemein	töten	krank	1	acq_USunple_CSunple1_RW	acq4567_RW	5	38	400	0	300	300	309	46	0	1	1	blank2r.bmp	0	1	+	0	1	blank2r.bmp	492	1	DXXD	492	1	blank2r.bmp	572	1	versagen	866	1	!	-1	1	!	-1	0	0	0	0	0	0	0	0	0	0	0	0	0	0	0	0	0	0	0	0	0	0	0	0	0	0	0	0	0	0
071719	11:55:15	12:04:49	572951	5.0.10.0	5_exp_RW	61	Rpleas_acq	CS_A	JQQJ	YFFY	DXXD	CPPC	ZHHZ	LWWL	vertrauen	sonnig	gütig	genießen	träumen	küssen	versagen	sterben	gierig	gemein	töten	krank	1	acq_USpleas_CSpleas2_RW	acq4567_RW	5	39	400	1	300	300	362	50	0	1	1	blank2r.bmp	0	1	+	0	1	blank2r.bmp	492	1	YFFY	492	1	blank2r.bmp	572	1	genießen	866	1	!	1239	1	!	1266	0	0	0	0	0	0	0	0	0	0	0	0	0	0	0	0	0	0	0	0	0	0	0	0	0	0	0	0	0	0
071719	11:55:15	12:04:51	575044	5.0.10.0	5_exp_RW	61	Rpleas_acq	CS_A	JQQJ	YFFY	DXXD	CPPC	ZHHZ	LWWL	vertrauen	sonnig	gütig	genießen	träumen	küssen	versagen	sterben	gierig	gemein	töten	krank	1	acq_USpleas_CSpleas2_RW	acq4567_RW	5	40	400	0	300	300	324	50	0	1	1	blank2r.bmp	0	1	+	0	1	blank2r.bmp	492	1	YFFY	492	1	blank2r.bmp	572	3	küssen	866	1	!	-1	1	!	-1	0	0	0	0	0	0	0	0	0	0	0	0	0	0	0	0	0	0	0	0	0	0	0	0	0	0	0	0	0	0
071719	11:55:15	12:04:53	577296	5.0.10.0	5_exp_RW	61	Rpleas_acq	CS_A	JQQJ	YFFY	DXXD	CPPC	ZHHZ	LWWL	vertrauen	sonnig	gütig	genießen	träumen	küssen	versagen	sterben	gierig	gemein	töten	krank	1	acq_USpleas_CSpleas1_RW	acq4567_RW	5	41	400	1	300	300	441	50	0	1	1	blank2r.bmp	0	1	+	0	1	blank2r.bmp	492	1	JQQJ	492	1	blank2r.bmp	572	1	vertrauen	866	1	!	1239	1	!	1346	0	0	0	0	0	0	0	0	0	0	0	0	0	0	0	0	0	0	0	0	0	0	0	0	0	0	0	0	0	0
071719	11:55:15	12:04:55	579442	5.0.10.0	5_exp_RW	61	Rpleas_acq	CS_A	JQQJ	YFFY	DXXD	CPPC	ZHHZ	LWWL	vertrauen	sonnig	gütig	genießen	träumen	küssen	versagen	sterben	gierig	gemein	töten	krank	1	acq_USunple_CSunple2_RW	acq4567_RW	5	42	400	1	300	300	357	46	0	1	1	blank2r.bmp	0	1	+	0	1	blank2r.bmp	492	1	CPPC	492	1	blank2r.bmp	572	2	töten	866	1	!	1239	1	!	1252	0	0	0	0	0	0	0	0	0	0	0	0	0	0	0	0	0	0	0	0	0	0	0	0	0	0	0	0	0	0
071719	11:55:15	12:04:57	581534	5.0.10.0	5_exp_RW	61	Rpleas_acq	CS_A	JQQJ	YFFY	DXXD	CPPC	ZHHZ	LWWL	vertrauen	sonnig	gütig	genießen	träumen	küssen	versagen	sterben	gierig	gemein	töten	krank	1	acq_USunple_CSunple2_RW	acq4567_RW	5	43	400	0	300	300	322	46	0	1	1	blank2r.bmp	0	1	+	0	1	blank2r.bmp	492	1	CPPC	492	1	blank2r.bmp	572	1	gemein	866	1	!	-1	1	!	-1	0	0	0	0	0	0	0	0	0	0	0	0	0	0	0	0	0	0	0	0	0	0	0	0	0	0	0	0	0	0
071719	11:55:15	12:04:59	583613	5.0.10.0	5_exp_RW	61	Rpleas_acq	CS_A	JQQJ	YFFY	DXXD	CPPC	ZHHZ	LWWL	vertrauen	sonnig	gütig	genießen	träumen	küssen	versagen	sterben	gierig	gemein	töten	krank	1	acq_USunple_CSunple2_RW	acq4567_RW	5	44	400	0	300	300	294	46	0	1	1	blank2r.bmp	0	1	+	0	1	blank2r.bmp	492	1	CPPC	492	1	blank2r.bmp	572	1	gemein	866	1	!	-1	1	!	-1	0	0	0	0	0	0	0	0	0	0	0	0	0	0	0	0	0	0	0	0	0	0	0	0	0	0	0	0	0	0
071719	11:55:15	12:05:02	585879	5.0.10.0	5_exp_RW	61	Rpleas_acq	CS_A	JQQJ	YFFY	DXXD	CPPC	ZHHZ	LWWL	vertrauen	sonnig	gütig	genießen	träumen	küssen	versagen	sterben	gierig	gemein	töten	krank	1	acq_USpleas_CSpleas1_RW	acq4567_RW	5	45	400	0	300	300	479	50	0	1	1	blank2r.bmp	0	1	+	0	1	blank2r.bmp	492	1	JQQJ	492	1	blank2r.bmp	572	3	gütig	866	1	!	1239	1	!	-1	0	0	0	0	0	0	0	0	0	0	0	0	0	0	0	0	0	0	0	0	0	0	0	0	0	0	0	0	0	0
071719	11:55:15	12:05:04	587958	5.0.10.0	5_exp_RW	61	Rpleas_acq	CS_A	JQQJ	YFFY	DXXD	CPPC	ZHHZ	LWWL	vertrauen	sonnig	gütig	genießen	träumen	küssen	versagen	sterben	gierig	gemein	töten	krank	1	acq_USunple_CSunple2_RW	acq4567_RW	5	46	400	0	300	300	304	46	0	1	1	blank2r.bmp	0	1	+	0	1	blank2r.bmp	492	1	CPPC	492	1	blank2r.bmp	572	2	töten	866	1	!	-1	1	!	-1	0	0	0	0	0	0	0	0	0	0	0	0	0	0	0	0	0	0	0	0	0	0	0	0	0	0	0	0	0	0
071719	11:55:15	12:05:06	590197	5.0.10.0	5_exp_RW	61	Rpleas_acq	CS_A	JQQJ	YFFY	DXXD	CPPC	ZHHZ	LWWL	vertrauen	sonnig	gütig	genießen	träumen	küssen	versagen	sterben	gierig	gemein	töten	krank	1	acq_USpleas_CSpleas1_RW	acq4567_RW	5	47	400	1	300	300	432	50	0	1	1	blank2r.bmp	0	1	+	0	1	blank2r.bmp	492	1	JQQJ	492	1	blank2r.bmp	572	1	vertrauen	866	1	!	1239	1	!	1332	0	0	0	0	0	0	0	0	0	0	0	0	0	0	0	0	0	0	0	0	0	0	0	0	0	0	0	0	0	0
071719	11:55:15	12:05:08	592303	5.0.10.0	5_exp_RW	61	Rpleas_acq	CS_A	JQQJ	YFFY	DXXD	CPPC	ZHHZ	LWWL	vertrauen	sonnig	gütig	genießen	träumen	küssen	versagen	sterben	gierig	gemein	töten	krank	1	acq_USunple_CSunple2_RW	acq4567_RW	5	48	400	0	300	300	332	46	0	1	1	blank2r.bmp	0	1	+	0	1	blank2r.bmp	492	1	CPPC	492	1	blank2r.bmp	572	3	krank	866	1	!	-1	1	!	-1	0	0	0	0	0	0	0	0	0	0	0	0	0	0	0	0	0	0	0	0	0	0	0	0	0	0	0	0	0	0
071719	11:55:15	12:05:10	594462	5.0.10.0	5_exp_RW	61	Rpleas_acq	CS_A	JQQJ	YFFY	DXXD	CPPC	ZHHZ	LWWL	vertrauen	sonnig	gütig	genießen	träumen	küssen	versagen	sterben	gierig	gemein	töten	krank	1	acq_USunple_CSunple1_RW	acq4567_RW	5	49	400	1	300	300	356	46	0	1	1	blank2r.bmp	0	1	+	0	1	blank2r.bmp	492	1	DXXD	492	1	blank2r.bmp	572	3	gierig	866	1	!	1239	1	!	1252	0	0	0	0	0	0	0	0	0	0	0	0	0	0	0	0	0	0	0	0	0	0	0	0	0	0	0	0	0	0
071719	11:55:15	12:05:12	596661	5.0.10.0	5_exp_RW	61	Rpleas_acq	CS_A	JQQJ	YFFY	DXXD	CPPC	ZHHZ	LWWL	vertrauen	sonnig	gütig	genießen	träumen	küssen	versagen	sterben	gierig	gemein	töten	krank	1	acq_USpleas_CSpleas2_RW	acq4567_RW	5	50	400	1	300	300	402	50	0	1	1	blank2r.bmp	0	1	+	0	1	blank2r.bmp	492	1	YFFY	492	1	blank2r.bmp	572	1	genießen	866	1	!	1239	1	!	1306	0	0	0	0	0	0	0	0	0	0	0	0	0	0	0	0	0	0	0	0	0	0	0	0	0	0	0	0	0	0
071719	11:55:15	12:05:14	598754	5.0.10.0	5_exp_RW	61	Rpleas_acq	CS_A	JQQJ	YFFY	DXXD	CPPC	ZHHZ	LWWL	vertrauen	sonnig	gütig	genießen	träumen	küssen	versagen	sterben	gierig	gemein	töten	krank	1	acq_USunple_CSunple1_RW	acq4567_RW	5	51	400	0	300	300	330	46	0	1	1	blank2r.bmp	0	1	+	0	1	blank2r.bmp	492	1	DXXD	492	1	blank2r.bmp	572	2	sterben	866	1	!	-1	1	!	-1	0	0	0	0	0	0	0	0	0	0	0	0	0	0	0	0	0	0	0	0	0	0	0	0	0	0	0	0	0	0
071719	11:55:15	12:05:17	600966	5.0.10.0	5_exp_RW	61	Rpleas_acq	CS_A	JQQJ	YFFY	DXXD	CPPC	ZHHZ	LWWL	vertrauen	sonnig	gütig	genießen	träumen	küssen	versagen	sterben	gierig	gemein	töten	krank	1	acq_USpleas_CSpleas2_RW	acq4567_RW	5	52	400	1	300	300	406	50	0	1	1	blank2r.bmp	0	1	+	0	1	blank2r.bmp	492	1	YFFY	492	1	blank2r.bmp	572	2	träumen	866	1	!	1239	1	!	1306	0	0	0	0	0	0	0	0	0	0	0	0	0	0	0	0	0	0	0	0	0	0	0	0	0	0	0	0	0	0
071719	11:55:15	12:05:19	603165	5.0.10.0	5_exp_RW	61	Rpleas_acq	CS_A	JQQJ	YFFY	DXXD	CPPC	ZHHZ	LWWL	vertrauen	sonnig	gütig	genießen	träumen	küssen	versagen	sterben	gierig	gemein	töten	krank	1	acq_USpleas_CSpleas1_RW	acq4567_RW	5	53	400	1	300	300	412	50	0	1	1	blank2r.bmp	0	1	+	0	1	blank2r.bmp	492	1	JQQJ	492	1	blank2r.bmp	572	3	gütig	866	1	!	1239	1	!	1306	0	0	0	0	0	0	0	0	0	0	0	0	0	0	0	0	0	0	0	0	0	0	0	0	0	0	0	0	0	0
071719	11:55:15	12:05:21	605324	5.0.10.0	5_exp_RW	61	Rpleas_acq	CS_A	JQQJ	YFFY	DXXD	CPPC	ZHHZ	LWWL	vertrauen	sonnig	gütig	genießen	träumen	küssen	versagen	sterben	gierig	gemein	töten	krank	1	acq_USpleas_CSpleas2_RW	acq4567_RW	5	54	400	1	300	300	366	50	0	1	1	blank2r.bmp	0	1	+	0	1	blank2r.bmp	492	1	YFFY	492	1	blank2r.bmp	572	1	genießen	866	1	!	1239	1	!	1266	0	0	0	0	0	0	0	0	0	0	0	0	0	0	0	0	0	0	0	0	0	0	0	0	0	0	0	0	0	0
071719	11:55:15	12:05:23	607470	5.0.10.0	5_exp_RW	61	Rpleas_acq	CS_A	JQQJ	YFFY	DXXD	CPPC	ZHHZ	LWWL	vertrauen	sonnig	gütig	genießen	träumen	küssen	versagen	sterben	gierig	gemein	töten	krank	1	acq_USunple_CSunple1_RW	acq4567_RW	5	55	400	1	300	300	348	46	0	1	1	blank2r.bmp	0	1	+	0	1	blank2r.bmp	492	1	DXXD	492	1	blank2r.bmp	572	1	versagen	866	1	!	1239	1	!	1252	0	0	0	0	0	0	0	0	0	0	0	0	0	0	0	0	0	0	0	0	0	0	0	0	0	0	0	0	0	0
071719	11:55:15	12:05:25	609616	5.0.10.0	5_exp_RW	61	Rpleas_acq	CS_A	JQQJ	YFFY	DXXD	CPPC	ZHHZ	LWWL	vertrauen	sonnig	gütig	genießen	träumen	küssen	versagen	sterben	gierig	gemein	töten	krank	1	acq_USpleas_CSpleas1_RW	acq4567_RW	5	56	400	1	300	300	348	50	0	1	1	blank2r.bmp	0	1	+	0	1	blank2r.bmp	492	1	JQQJ	492	1	blank2r.bmp	572	2	sonnig	866	1	!	1239	1	!	1252	0	0	0	0	0	0	0	0	0	0	0	0	0	0	0	0	0	0	0	0	0	0	0	0	0	0	0	0	0	0
071719	11:55:15	12:05:27	611682	5.0.10.0	5_exp_RW	61	Rpleas_acq	CS_A	JQQJ	YFFY	DXXD	CPPC	ZHHZ	LWWL	vertrauen	sonnig	gütig	genießen	träumen	küssen	versagen	sterben	gierig	gemein	töten	krank	1	acq_USunple_CSunple1_RW	acq4567_RW	5	57	400	0	300	300	304	50	0	0	1	blank2r.bmp	0	1	+	0	1	blank2r.bmp	492	1	DXXD	492	1	blank2r.bmp	572	2	sterben	866	1	!	-1	1	!	-1	0	0	0	0	0	0	0	0	0	0	0	0	0	0	0	0	0	0	0	0	0	0	0	0	0	0	0	0	0	0
071719	11:55:15	12:05:30	613881	5.0.10.0	5_exp_RW	61	Rpleas_acq	CS_A	JQQJ	YFFY	DXXD	CPPC	ZHHZ	LWWL	vertrauen	sonnig	gütig	genießen	träumen	küssen	versagen	sterben	gierig	gemein	töten	krank	1	acq_USpleas_CSpleas2_RW	acq4567_RW	5	58	400	1	300	300	382	50	0	1	1	blank2r.bmp	0	1	+	0	1	blank2r.bmp	492	1	YFFY	492	1	blank2r.bmp	572	3	küssen	866	1	!	1239	1	!	1279	0	0	0	0	0	0	0	0	0	0	0	0	0	0	0	0	0	0	0	0	0	0	0	0	0	0	0	0	0	0
071719	11:55:15	12:05:32	615960	5.0.10.0	5_exp_RW	61	Rpleas_acq	CS_A	JQQJ	YFFY	DXXD	CPPC	ZHHZ	LWWL	vertrauen	sonnig	gütig	genießen	träumen	küssen	versagen	sterben	gierig	gemein	töten	krank	1	acq_USunple_CSunple1_RW	acq4567_RW	5	59	400	0	300	300	303	46	0	1	1	blank2r.bmp	0	1	+	0	1	blank2r.bmp	492	1	DXXD	492	1	blank2r.bmp	572	3	gierig	866	1	!	-1	1	!	-1	0	0	0	0	0	0	0	0	0	0	0	0	0	0	0	0	0	0	0	0	0	0	0	0	0	0	0	0	0	0
071719	11:55:15	12:05:34	618146	5.0.10.0	5_exp_RW	61	Rpleas_acq	CS_A	JQQJ	YFFY	DXXD	CPPC	ZHHZ	LWWL	vertrauen	sonnig	gütig	genießen	träumen	küssen	versagen	sterben	gierig	gemein	töten	krank	1	acq_USpleas_CSpleas2_RW	acq4567_RW	5	60	400	1	300	300	378	50	0	1	1	blank2r.bmp	0	1	+	0	1	blank2r.bmp	492	1	YFFY	492	1	blank2r.bmp	572	2	träumen	866	1	!	1239	1	!	1279	0	0	0	0	0	0	0	0	0	0	0	0	0	0	0	0	0	0	0	0	0	0	0	0	0	0	0	0	0	0
071719	11:55:15	12:05:36	620292	5.0.10.0	5_exp_RW	61	Rpleas_acq	CS_A	JQQJ	YFFY	DXXD	CPPC	ZHHZ	LWWL	vertrauen	sonnig	gütig	genießen	träumen	küssen	versagen	sterben	gierig	gemein	töten	krank	1	acq_USpleas_CSpleas2_RW	acq4567_RW	5	61	400	1	300	300	346	50	0	1	1	blank2r.bmp	0	1	+	0	1	blank2r.bmp	492	1	YFFY	492	1	blank2r.bmp	572	3	küssen	866	1	!	1239	1	!	1252	0	0	0	0	0	0	0	0	0	0	0	0	0	0	0	0	0	0	0	0	0	0	0	0	0	0	0	0	0	0
071719	11:55:15	12:05:38	622331	5.0.10.0	5_exp_RW	61	Rpleas_acq	CS_A	JQQJ	YFFY	DXXD	CPPC	ZHHZ	LWWL	vertrauen	sonnig	gütig	genießen	träumen	küssen	versagen	sterben	gierig	gemein	töten	krank	1	acq_USunple_CSunple1_RW	acq4567_RW	5	62	400	0	300	300	254	46	0	1	1	blank2r.bmp	0	1	+	0	1	blank2r.bmp	492	1	DXXD	492	1	blank2r.bmp	572	2	sterben	866	1	!	-1	1	!	-1	0	0	0	0	0	0	0	0	0	0	0	0	0	0	0	0	0	0	0	0	0	0	0	0	0	0	0	0	0	0
071719	11:55:15	12:05:40	624490	5.0.10.0	5_exp_RW	61	Rpleas_acq	CS_A	JQQJ	YFFY	DXXD	CPPC	ZHHZ	LWWL	vertrauen	sonnig	gütig	genießen	träumen	küssen	versagen	sterben	gierig	gemein	töten	krank	1	acq_USpleas_CSpleas2_RW	acq4567_RW	5	63	400	1	300	300	351	50	0	1	1	blank2r.bmp	0	1	+	0	1	blank2r.bmp	492	1	YFFY	492	1	blank2r.bmp	572	1	genießen	866	1	!	1239	1	!	1252	0	0	0	0	0	0	0	0	0	0	0	0	0	0	0	0	0	0	0	0	0	0	0	0	0	0	0	0	0	0
071719	11:55:15	12:05:42	626676	5.0.10.0	5_exp_RW	61	Rpleas_acq	CS_A	JQQJ	YFFY	DXXD	CPPC	ZHHZ	LWWL	vertrauen	sonnig	gütig	genießen	träumen	küssen	versagen	sterben	gierig	gemein	töten	krank	1	acq_USpleas_CSpleas1_RW	acq4567_RW	5	64	400	1	300	300	386	50	0	1	1	blank2r.bmp	0	1	+	0	1	blank2r.bmp	492	1	JQQJ	492	1	blank2r.bmp	572	3	gütig	866	1	!	1239	1	!	1292	0	0	0	0	0	0	0	0	0	0	0	0	0	0	0	0	0	0	0	0	0	0	0	0	0	0	0	0	0	0
071719	11:55:15	12:05:45	628888	5.0.10.0	5_exp_RW	61	Rpleas_acq	CS_A	JQQJ	YFFY	DXXD	CPPC	ZHHZ	LWWL	vertrauen	sonnig	gütig	genießen	träumen	küssen	versagen	sterben	gierig	gemein	töten	krank	1	acq_USpleas_CSpleas2_RW	acq4567_RW	5	65	400	1	300	300	424	50	0	1	1	blank2r.bmp	0	1	+	0	1	blank2r.bmp	492	1	YFFY	492	1	blank2r.bmp	572	2	träumen	866	1	!	1239	1	!	1319	0	0	0	0	0	0	0	0	0	0	0	0	0	0	0	0	0	0	0	0	0	0	0	0	0	0	0	0	0	0
071719	11:55:15	12:05:47	630981	5.0.10.0	5_exp_RW	61	Rpleas_acq	CS_A	JQQJ	YFFY	DXXD	CPPC	ZHHZ	LWWL	vertrauen	sonnig	gütig	genießen	träumen	küssen	versagen	sterben	gierig	gemein	töten	krank	1	acq_USunple_CSunple2_RW	acq4567_RW	5	66	400	0	300	300	306	46	0	1	1	blank2r.bmp	0	1	+	0	1	blank2r.bmp	492	1	CPPC	492	1	blank2r.bmp	572	2	töten	866	1	!	-1	1	!	-1	0	0	0	0	0	0	0	0	0	0	0	0	0	0	0	0	0	0	0	0	0	0	0	0	0	0	0	0	0	0
071719	11:55:15	12:05:49	633100	5.0.10.0	5_exp_RW	61	Rpleas_acq	CS_A	JQQJ	YFFY	DXXD	CPPC	ZHHZ	LWWL	vertrauen	sonnig	gütig	genießen	träumen	küssen	versagen	sterben	gierig	gemein	töten	krank	1	acq_USpleas_CSpleas1_RW	acq4567_RW	5	67	400	0	300	300	330	50	0	1	1	blank2r.bmp	0	1	+	0	1	blank2r.bmp	492	1	JQQJ	492	1	blank2r.bmp	572	2	sonnig	866	1	!	-1	1	!	-1	0	0	0	0	0	0	0	0	0	0	0	0	0	0	0	0	0	0	0	0	0	0	0	0	0	0	0	0	0	0
071719	11:55:15	12:05:51	635286	5.0.10.0	5_exp_RW	61	Rpleas_acq	CS_A	JQQJ	YFFY	DXXD	CPPC	ZHHZ	LWWL	vertrauen	sonnig	gütig	genießen	träumen	küssen	versagen	sterben	gierig	gemein	töten	krank	1	acq_USpleas_CSpleas1_RW	acq4567_RW	5	68	400	1	300	300	376	50	0	1	1	blank2r.bmp	0	1	+	0	1	blank2r.bmp	492	1	JQQJ	492	1	blank2r.bmp	572	1	vertrauen	866	1	!	1239	1	!	1279	0	0	0	0	0	0	0	0	0	0	0	0	0	0	0	0	0	0	0	0	0	0	0	0	0	0	0	0	0	0
071719	11:55:15	12:05:53	637431	5.0.10.0	5_exp_RW	61	Rpleas_acq	CS_A	JQQJ	YFFY	DXXD	CPPC	ZHHZ	LWWL	vertrauen	sonnig	gütig	genießen	träumen	küssen	versagen	sterben	gierig	gemein	töten	krank	1	acq_USpleas_CSpleas1_RW	acq4567_RW	5	69	400	1	300	300	346	46	0	0	1	blank2r.bmp	0	1	+	0	1	blank2r.bmp	492	1	JQQJ	492	1	blank2r.bmp	572	3	gütig	866	1	!	1239	1	!	1252	0	0	0	0	0	0	0	0	0	0	0	0	0	0	0	0	0	0	0	0	0	0	0	0	0	0	0	0	0	0
071719	11:55:15	12:05:55	639604	5.0.10.0	5_exp_RW	61	Rpleas_acq	CS_A	JQQJ	YFFY	DXXD	CPPC	ZHHZ	LWWL	vertrauen	sonnig	gütig	genießen	träumen	küssen	versagen	sterben	gierig	gemein	töten	krank	1	acq_USpleas_CSpleas2_RW	acq4567_RW	5	70	400	1	300	300	376	50	0	1	1	blank2r.bmp	0	1	+	0	1	blank2r.bmp	492	1	YFFY	492	1	blank2r.bmp	572	2	träumen	866	1	!	1239	1	!	1279	0	0	0	0	0	0	0	0	0	0	0	0	0	0	0	0	0	0	0	0	0	0	0	0	0	0	0	0	0	0
071719	11:55:15	12:05:57	641790	5.0.10.0	5_exp_RW	61	Rpleas_acq	CS_A	JQQJ	YFFY	DXXD	CPPC	ZHHZ	LWWL	vertrauen	sonnig	gütig	genießen	träumen	küssen	versagen	sterben	gierig	gemein	töten	krank	1	acq_USpleas_CSpleas2_RW	acq4567_RW	5	71	400	1	300	300	374	50	0	1	1	blank2r.bmp	0	1	+	0	1	blank2r.bmp	492	1	YFFY	492	1	blank2r.bmp	572	1	genießen	866	1	!	1239	1	!	1279	0	0	0	0	0	0	0	0	0	0	0	0	0	0	0	0	0	0	0	0	0	0	0	0	0	0	0	0	0	0
071719	11:55:15	12:06:00	644015	5.0.10.0	5_exp_RW	61	Rpleas_acq	CS_A	JQQJ	YFFY	DXXD	CPPC	ZHHZ	LWWL	vertrauen	sonnig	gütig	genießen	träumen	küssen	versagen	sterben	gierig	gemein	töten	krank	1	acq_USunple_CSunple2_RW	acq4567_RW	5	72	400	1	300	300	413	46	0	1	1	blank2r.bmp	0	1	+	0	1	blank2r.bmp	492	1	CPPC	492	1	blank2r.bmp	572	3	krank	866	1	!	1239	1	!	1319	0	0	0	0	0	0	0	0	0	0	0	0	0	0	0	0	0	0	0	0	0	0	0	0	0	0	0	0	0	0
071719	11:55:15	12:06:02	646201	5.0.10.0	5_exp_RW	61	Rpleas_acq	CS_A	JQQJ	YFFY	DXXD	CPPC	ZHHZ	LWWL	vertrauen	sonnig	gütig	genießen	träumen	küssen	versagen	sterben	gierig	gemein	töten	krank	1	acq_USunple_CSunple1_RW	acq4567_RW	5	73	400	1	300	300	394	46	0	1	1	blank2r.bmp	0	1	+	0	1	blank2r.bmp	492	1	DXXD	492	1	blank2r.bmp	572	3	gierig	866	1	!	1239	1	!	1292	0	0	0	0	0	0	0	0	0	0	0	0	0	0	0	0	0	0	0	0	0	0	0	0	0	0	0	0	0	0
071719	11:55:15	12:06:04	648440	5.0.10.0	5_exp_RW	61	Rpleas_acq	CS_A	JQQJ	YFFY	DXXD	CPPC	ZHHZ	LWWL	vertrauen	sonnig	gütig	genießen	träumen	küssen	versagen	sterben	gierig	gemein	töten	krank	1	acq_USunple_CSunple1_RW	acq4567_RW	5	74	400	1	300	300	451	46	0	1	1	blank2r.bmp	0	1	+	0	1	blank2r.bmp	492	1	DXXD	492	1	blank2r.bmp	572	1	versagen	866	1	!	1239	1	!	1346	0	0	0	0	0	0	0	0	0	0	0	0	0	0	0	0	0	0	0	0	0	0	0	0	0	0	0	0	0	0
071719	11:55:15	12:06:06	650613	5.0.10.0	5_exp_RW	61	Rpleas_acq	CS_A	JQQJ	YFFY	DXXD	CPPC	ZHHZ	LWWL	vertrauen	sonnig	gütig	genießen	träumen	küssen	versagen	sterben	gierig	gemein	töten	krank	1	acq_USunple_CSunple2_RW	acq4567_RW	5	75	400	1	300	300	376	46	0	1	1	blank2r.bmp	0	1	+	0	1	blank2r.bmp	492	1	CPPC	492	1	blank2r.bmp	572	1	gemein	866	1	!	1239	1	!	1279	0	0	0	0	0	0	0	0	0	0	0	0	0	0	0	0	0	0	0	0	0	0	0	0	0	0	0	0	0	0
071719	11:55:15	12:06:08	652798	5.0.10.0	5_exp_RW	61	Rpleas_acq	CS_A	JQQJ	YFFY	DXXD	CPPC	ZHHZ	LWWL	vertrauen	sonnig	gütig	genießen	träumen	küssen	versagen	sterben	gierig	gemein	töten	krank	1	acq_USpleas_CSpleas1_RW	acq4567_RW	5	76	400	1	300	300	388	50	0	1	1	blank2r.bmp	0	1	+	0	1	blank2r.bmp	492	1	JQQJ	492	1	blank2r.bmp	572	1	vertrauen	866	1	!	1239	1	!	1292	0	0	0	0	0	0	0	0	0	0	0	0	0	0	0	0	0	0	0	0	0	0	0	0	0	0	0	0	0	0
071719	11:55:15	12:06:11	654958	5.0.10.0	5_exp_RW	61	Rpleas_acq	CS_A	JQQJ	YFFY	DXXD	CPPC	ZHHZ	LWWL	vertrauen	sonnig	gütig	genießen	träumen	küssen	versagen	sterben	gierig	gemein	töten	krank	1	acq_USunple_CSunple1_RW	acq4567_RW	5	77	400	1	300	300	359	46	0	1	1	blank2r.bmp	0	1	+	0	1	blank2r.bmp	492	1	DXXD	492	1	blank2r.bmp	572	1	versagen	866	1	!	1239	1	!	1266	0	0	0	0	0	0	0	0	0	0	0	0	0	0	0	0	0	0	0	0	0	0	0	0	0	0	0	0	0	0
071719	11:55:15	12:06:13	657023	5.0.10.0	5_exp_RW	61	Rpleas_acq	CS_A	JQQJ	YFFY	DXXD	CPPC	ZHHZ	LWWL	vertrauen	sonnig	gütig	genießen	träumen	küssen	versagen	sterben	gierig	gemein	töten	krank	1	acq_USunple_CSunple2_RW	acq4567_RW	5	78	400	0	300	300	297	46	0	1	1	blank2r.bmp	0	1	+	0	1	blank2r.bmp	492	1	CPPC	492	1	blank2r.bmp	572	1	gemein	866	1	!	-1	1	!	-1	0	0	0	0	0	0	0	0	0	0	0	0	0	0	0	0	0	0	0	0	0	0	0	0	0	0	0	0	0	0
071719	11:55:15	12:06:15	659129	5.0.10.0	5_exp_RW	61	Rpleas_acq	CS_A	JQQJ	YFFY	DXXD	CPPC	ZHHZ	LWWL	vertrauen	sonnig	gütig	genießen	träumen	küssen	versagen	sterben	gierig	gemein	töten	krank	1	acq_USunple_CSunple1_RW	acq4567_RW	5	79	400	0	300	300	320	50	0	0	1	blank2r.bmp	0	1	+	0	1	blank2r.bmp	492	1	DXXD	492	1	blank2r.bmp	572	3	gierig	866	1	!	-1	1	!	-1	0	0	0	0	0	0	0	0	0	0	0	0	0	0	0	0	0	0	0	0	0	0	0	0	0	0	0	0	0	0
071719	11:55:15	12:06:17	661288	5.0.10.0	5_exp_RW	61	Rpleas_acq	CS_A	JQQJ	YFFY	DXXD	CPPC	ZHHZ	LWWL	vertrauen	sonnig	gütig	genießen	träumen	küssen	versagen	sterben	gierig	gemein	töten	krank	1	acq_USunple_CSunple2_RW	acq4567_RW	5	80	400	1	300	300	346	46	0	1	1	blank2r.bmp	0	1	+	0	1	blank2r.bmp	492	1	CPPC	492	1	blank2r.bmp	572	3	krank	866	1	!	1239	1	!	1252	0	0	0	0	0	0	0	0	0	0	0	0	0	0	0	0	0	0	0	0	0	0	0	0	0	0	0	0	0	0
071719	11:55:15	12:06:44	687971	5.0.10.0	5_exp_RW	61	Rpleas_acq	CS_A	JQQJ	YFFY	DXXD	CPPC	ZHHZ	LWWL	vertrauen	sonnig	gütig	genießen	träumen	küssen	versagen	sterben	gierig	gemein	töten	krank	1	acq_USunple_CSunple1_RW	acq4567_RW	6	1	400	1	300	300	353	46	0	1	1	blank2r.bmp	0	1	+	0	1	blank2r.bmp	492	1	DXXD	492	1	blank2r.bmp	572	2	sterben	866	1	!	1239	1	!	1252	0	0	0	0	0	0	0	0	0	0	0	0	0	0	0	0	0	0	0	0	0	0	0	0	0	0	0	0	0	0
071719	11:55:15	12:06:46	690130	5.0.10.0	5_exp_RW	61	Rpleas_acq	CS_A	JQQJ	YFFY	DXXD	CPPC	ZHHZ	LWWL	vertrauen	sonnig	gütig	genießen	träumen	küssen	versagen	sterben	gierig	gemein	töten	krank	1	acq_USunple_CSunple2_RW	acq4567_RW	6	2	400	1	300	300	367	46	0	1	1	blank2r.bmp	0	1	+	0	1	blank2r.bmp	492	1	CPPC	492	1	blank2r.bmp	572	2	töten	866	1	!	1239	1	!	1266	0	0	0	0	0	0	0	0	0	0	0	0	0	0	0	0	0	0	0	0	0	0	0	0	0	0	0	0	0	0
071719	11:55:15	12:06:48	692342	5.0.10.0	5_exp_RW	61	Rpleas_acq	CS_A	JQQJ	YFFY	DXXD	CPPC	ZHHZ	LWWL	vertrauen	sonnig	gütig	genießen	träumen	küssen	versagen	sterben	gierig	gemein	töten	krank	1	acq_USpleas_CSpleas2_RW	acq4567_RW	6	3	400	1	300	300	415	50	0	1	1	blank2r.bmp	0	1	+	0	1	blank2r.bmp	492	1	YFFY	492	1	blank2r.bmp	572	3	küssen	866	1	!	1239	1	!	1319	0	0	0	0	0	0	0	0	0	0	0	0	0	0	0	0	0	0	0	0	0	0	0	0	0	0	0	0	0	0
071719	11:55:15	12:06:50	694555	5.0.10.0	5_exp_RW	61	Rpleas_acq	CS_A	JQQJ	YFFY	DXXD	CPPC	ZHHZ	LWWL	vertrauen	sonnig	gütig	genießen	träumen	küssen	versagen	sterben	gierig	gemein	töten	krank	1	acq_USpleas_CSpleas2_RW	acq4567_RW	6	4	400	1	300	300	419	50	0	1	1	blank2r.bmp	0	1	+	0	1	blank2r.bmp	492	1	YFFY	492	1	blank2r.bmp	572	3	küssen	866	1	!	1239	1	!	1319	0	0	0	0	0	0	0	0	0	0	0	0	0	0	0	0	0	0	0	0	0	0	0	0	0	0	0	0	0	0
071719	11:55:15	12:06:52	696647	5.0.10.0	5_exp_RW	61	Rpleas_acq	CS_A	JQQJ	YFFY	DXXD	CPPC	ZHHZ	LWWL	vertrauen	sonnig	gütig	genießen	träumen	küssen	versagen	sterben	gierig	gemein	töten	krank	1	acq_USpleas_CSpleas2_RW	acq4567_RW	6	5	400	0	300	300	326	46	0	0	1	blank2r.bmp	0	1	+	0	1	blank2r.bmp	492	1	YFFY	492	1	blank2r.bmp	572	2	träumen	866	1	!	-1	1	!	-1	0	0	0	0	0	0	0	0	0	0	0	0	0	0	0	0	0	0	0	0	0	0	0	0	0	0	0	0	0	0
071719	11:55:15	12:06:54	698806	5.0.10.0	5_exp_RW	61	Rpleas_acq	CS_A	JQQJ	YFFY	DXXD	CPPC	ZHHZ	LWWL	vertrauen	sonnig	gütig	genießen	träumen	küssen	versagen	sterben	gierig	gemein	töten	krank	1	acq_USpleas_CSpleas1_RW	acq4567_RW	6	6	400	1	300	300	346	50	0	1	1	blank2r.bmp	0	1	+	0	1	blank2r.bmp	492	1	JQQJ	492	1	blank2r.bmp	572	2	sonnig	866	1	!	1239	1	!	1252	0	0	0	0	0	0	0	0	0	0	0	0	0	0	0	0	0	0	0	0	0	0	0	0	0	0	0	0	0	0
071719	11:55:15	12:06:57	700965	5.0.10.0	5_exp_RW	61	Rpleas_acq	CS_A	JQQJ	YFFY	DXXD	CPPC	ZHHZ	LWWL	vertrauen	sonnig	gütig	genießen	träumen	küssen	versagen	sterben	gierig	gemein	töten	krank	1	acq_USpleas_CSpleas1_RW	acq4567_RW	6	7	400	1	300	300	351	50	0	1	1	blank2r.bmp	0	1	+	0	1	blank2r.bmp	492	1	JQQJ	492	1	blank2r.bmp	572	3	gütig	866	1	!	1239	1	!	1252	0	0	0	0	0	0	0	0	0	0	0	0	0	0	0	0	0	0	0	0	0	0	0	0	0	0	0	0	0	0
071719	11:55:15	12:06:59	703178	5.0.10.0	5_exp_RW	61	Rpleas_acq	CS_A	JQQJ	YFFY	DXXD	CPPC	ZHHZ	LWWL	vertrauen	sonnig	gütig	genießen	träumen	küssen	versagen	sterben	gierig	gemein	töten	krank	1	acq_USunple_CSunple2_RW	acq4567_RW	6	8	400	1	300	300	418	46	0	1	1	blank2r.bmp	0	1	+	0	1	blank2r.bmp	492	1	CPPC	492	1	blank2r.bmp	572	3	krank	866	1	!	1239	1	!	1319	0	0	0	0	0	0	0	0	0	0	0	0	0	0	0	0	0	0	0	0	0	0	0	0	0	0	0	0	0	0
071719	11:55:15	12:07:01	705244	5.0.10.0	5_exp_RW	61	Rpleas_acq	CS_A	JQQJ	YFFY	DXXD	CPPC	ZHHZ	LWWL	vertrauen	sonnig	gütig	genießen	träumen	küssen	versagen	sterben	gierig	gemein	töten	krank	1	acq_USunple_CSunple2_RW	acq4567_RW	6	9	400	0	300	300	302	46	0	1	1	blank2r.bmp	0	1	+	0	1	blank2r.bmp	492	1	CPPC	492	1	blank2r.bmp	572	2	töten	866	1	!	-1	1	!	-1	0	0	0	0	0	0	0	0	0	0	0	0	0	0	0	0	0	0	0	0	0	0	0	0	0	0	0	0	0	0
071719	11:55:15	12:07:03	707443	5.0.10.0	5_exp_RW	61	Rpleas_acq	CS_A	JQQJ	YFFY	DXXD	CPPC	ZHHZ	LWWL	vertrauen	sonnig	gütig	genießen	träumen	küssen	versagen	sterben	gierig	gemein	töten	krank	1	acq_USpleas_CSpleas2_RW	acq4567_RW	6	10	400	1	300	300	392	50	0	1	1	blank2r.bmp	0	1	+	0	1	blank2r.bmp	492	1	YFFY	492	1	blank2r.bmp	572	1	genießen	866	1	!	1239	1	!	1292	0	0	0	0	0	0	0	0	0	0	0	0	0	0	0	0	0	0	0	0	0	0	0	0	0	0	0	0	0	0
071719	11:55:15	12:07:05	709588	5.0.10.0	5_exp_RW	61	Rpleas_acq	CS_A	JQQJ	YFFY	DXXD	CPPC	ZHHZ	LWWL	vertrauen	sonnig	gütig	genießen	träumen	küssen	versagen	sterben	gierig	gemein	töten	krank	1	acq_USpleas_CSpleas2_RW	acq4567_RW	6	11	400	1	300	300	350	50	0	1	1	blank2r.bmp	0	1	+	0	1	blank2r.bmp	492	1	YFFY	492	1	blank2r.bmp	572	2	träumen	866	1	!	1239	1	!	1252	0	0	0	0	0	0	0	0	0	0	0	0	0	0	0	0	0	0	0	0	0	0	0	0	0	0	0	0	0	0
071719	11:55:15	12:07:07	711774	5.0.10.0	5_exp_RW	61	Rpleas_acq	CS_A	JQQJ	YFFY	DXXD	CPPC	ZHHZ	LWWL	vertrauen	sonnig	gütig	genießen	träumen	küssen	versagen	sterben	gierig	gemein	töten	krank	1	acq_USpleas_CSpleas1_RW	acq4567_RW	6	12	400	1	300	300	392	50	0	1	1	blank2r.bmp	0	1	+	0	1	blank2r.bmp	492	1	JQQJ	492	1	blank2r.bmp	572	2	sonnig	866	1	!	1239	1	!	1292	0	0	0	0	0	0	0	0	0	0	0	0	0	0	0	0	0	0	0	0	0	0	0	0	0	0	0	0	0	0
071719	11:55:15	12:07:10	713920	5.0.10.0	5_exp_RW	61	Rpleas_acq	CS_A	JQQJ	YFFY	DXXD	CPPC	ZHHZ	LWWL	vertrauen	sonnig	gütig	genießen	träumen	küssen	versagen	sterben	gierig	gemein	töten	krank	1	acq_USpleas_CSpleas1_RW	acq4567_RW	6	13	400	1	300	300	346	50	0	1	1	blank2r.bmp	0	1	+	0	1	blank2r.bmp	492	1	JQQJ	492	1	blank2r.bmp	572	1	vertrauen	866	1	!	1239	1	!	1252	0	0	0	0	0	0	0	0	0	0	0	0	0	0	0	0	0	0	0	0	0	0	0	0	0	0	0	0	0	0
