date	time	script.currenttime	script.elapsedtime	build	script.currentexpt	subject	expressions.LRpleas_acq	expressions.conditionCS_A	expressions.CSpleas_1	expressions.CSpleas_2	expressions.CSunple_1	expressions.CSunple_2	expressions.distractor_1	expressions.distractor_2	expressions.US_pleas1	expressions.US_pleas2	expressions.US_pleas3	expressions.US_pleas4	expressions.US_pleas5	expressions.US_pleas6	expressions.US_unple1	expressions.US_unple2	expressions.US_unple3	expressions.US_unple4	expressions.US_unple5	expressions.US_unple6	counter.positions_noRW	trialcode	blockcode	blocknum	trialnum	windowcenter	inwindow	pretrialpause	posttrialpause	latency	response	expressions.correctedscore	correct	stimulusnumber1	stimulusitem1	stimulusonset1	stimulusnumber2	stimulusitem2	stimulusonset2	stimulusnumber3	stimulusitem3	stimulusonset3	stimulusnumber4	stimulusitem4	stimulusonset4	stimulusnumber5	stimulusitem5	stimulusonset5	stimulusnumber6	stimulusitem6	stimulusonset6	stimulusnumber7	stimulusitem7	stimulusonset7	stimulusnumber8	stimulusitem8	stimulusonset8	stimulusnumber9	stimulusitem9	stimulusonset9	stimulusnumber10	stimulusitem10	stimulusonset10	stimulusnumber11	stimulusitem11	stimulusonset11	stimulusnumber12	stimulusitem12	stimulusonset12	stimulusnumber13	stimulusitem13	stimulusonset13	stimulusnumber14	stimulusitem14	stimulusonset14	stimulusnumber15	stimulusitem15	stimulusonset15	stimulusnumber16	stimulusitem16	stimulusonset16	stimulusnumber17	stimulusitem17	stimulusonset17	stimulusnumber18	stimulusitem18	stimulusonset18
082019	13:57:00	13:58:56	114926	5.0.10.0	5_exp_RW	107	Rpleas_acq	CS_A	JQQJ	YFFY	ZHHZ	DXXD	CPPC	LWWL	sonnig	genießen	träumen	gütig	vertrauen	küssen	sterben	gemein	töten	gierig	versagen	krank	1	acq_USunple_CSunple1_RW	acq1_RW	1	1	0	0	300	300	1251	46	0	1	1	blank2r.bmp	0	1	+	0	1	blank2r.bmp	492	1	ZHHZ	492	1	blank2r.bmp	572	3	töten	866	0	0	0	0	0	0	0	0	0	0	0	0	0	0	0	0	0	0	0	0	0	0	0	0	0	0	0	0	0	0	0	0	0	0	0	0
082019	13:57:00	13:58:58	117191	5.0.10.0	5_exp_RW	107	Rpleas_acq	CS_A	JQQJ	YFFY	ZHHZ	DXXD	CPPC	LWWL	sonnig	genießen	träumen	gütig	vertrauen	küssen	sterben	gemein	töten	gierig	versagen	krank	1	acq_USpleas_CSpleas2_RW	acq1_RW	1	2	0	0	300	300	776	50	0	1	1	blank2r.bmp	0	1	+	0	1	blank2r.bmp	492	1	YFFY	492	1	blank2r.bmp	572	2	vertrauen	866	0	0	0	0	0	0	0	0	0	0	0	0	0	0	0	0	0	0	0	0	0	0	0	0	0	0	0	0	0	0	0	0	0	0	0	0
082019	13:57:00	13:59:00	119217	5.0.10.0	5_exp_RW	107	Rpleas_acq	CS_A	JQQJ	YFFY	ZHHZ	DXXD	CPPC	LWWL	sonnig	genießen	träumen	gütig	vertrauen	küssen	sterben	gemein	töten	gierig	versagen	krank	1	acq_USpleas_CSpleas2_RW	acq1_RW	1	3	0	0	300	300	540	50	0	1	1	blank2r.bmp	0	1	+	0	1	blank2r.bmp	492	1	YFFY	492	1	blank2r.bmp	572	3	küssen	866	0	0	0	0	0	0	0	0	0	0	0	0	0	0	0	0	0	0	0	0	0	0	0	0	0	0	0	0	0	0	0	0	0	0	0	0
082019	13:57:00	13:59:02	121363	5.0.10.0	5_exp_RW	107	Rpleas_acq	CS_A	JQQJ	YFFY	ZHHZ	DXXD	CPPC	LWWL	sonnig	genießen	träumen	gütig	vertrauen	küssen	sterben	gemein	töten	gierig	versagen	krank	1	acq_USunple_CSunple2_RW	acq1_RW	1	4	0	0	300	300	652	46	0	1	1	blank2r.bmp	0	1	+	0	1	blank2r.bmp	492	1	DXXD	492	1	blank2r.bmp	572	2	versagen	866	0	0	0	0	0	0	0	0	0	0	0	0	0	0	0	0	0	0	0	0	0	0	0	0	0	0	0	0	0	0	0	0	0	0	0	0
082019	13:57:00	13:59:04	123389	5.0.10.0	5_exp_RW	107	Rpleas_acq	CS_A	JQQJ	YFFY	ZHHZ	DXXD	CPPC	LWWL	sonnig	genießen	träumen	gütig	vertrauen	küssen	sterben	gemein	töten	gierig	versagen	krank	1	acq_USpleas_CSpleas1_RW	acq1_RW	1	5	0	0	300	300	545	50	0	1	1	blank2r.bmp	0	1	+	0	1	blank2r.bmp	492	1	JQQJ	492	1	blank2r.bmp	572	3	träumen	866	0	0	0	0	0	0	0	0	0	0	0	0	0	0	0	0	0	0	0	0	0	0	0	0	0	0	0	0	0	0	0	0	0	0	0	0
082019	13:57:00	13:59:06	125441	5.0.10.0	5_exp_RW	107	Rpleas_acq	CS_A	JQQJ	YFFY	ZHHZ	DXXD	CPPC	LWWL	sonnig	genießen	träumen	gütig	vertrauen	küssen	sterben	gemein	töten	gierig	versagen	krank	1	acq_USunple_CSunple1_RW	acq1_RW	1	6	0	0	300	300	572	46	0	1	1	blank2r.bmp	0	1	+	0	1	blank2r.bmp	492	1	ZHHZ	492	1	blank2r.bmp	572	2	gemein	866	0	0	0	0	0	0	0	0	0	0	0	0	0	0	0	0	0	0	0	0	0	0	0	0	0	0	0	0	0	0	0	0	0	0	0	0
082019	13:57:00	13:59:08	127400	5.0.10.0	5_exp_RW	107	Rpleas_acq	CS_A	JQQJ	YFFY	ZHHZ	DXXD	CPPC	LWWL	sonnig	genießen	träumen	gütig	vertrauen	küssen	sterben	gemein	töten	gierig	versagen	krank	1	acq_USunple_CSunple2_RW	acq1_RW	1	7	0	0	300	300	490	46	0	1	1	blank2r.bmp	0	1	+	0	1	blank2r.bmp	492	1	DXXD	492	1	blank2r.bmp	572	1	gierig	866	0	0	0	0	0	0	0	0	0	0	0	0	0	0	0	0	0	0	0	0	0	0	0	0	0	0	0	0	0	0	0	0	0	0	0	0
082019	13:57:00	13:59:10	129400	5.0.10.0	5_exp_RW	107	Rpleas_acq	CS_A	JQQJ	YFFY	ZHHZ	DXXD	CPPC	LWWL	sonnig	genießen	träumen	gütig	vertrauen	küssen	sterben	gemein	töten	gierig	versagen	krank	1	acq_USunple_CSunple1_RW	acq1_RW	1	8	0	0	300	300	517	46	0	1	1	blank2r.bmp	0	1	+	0	1	blank2r.bmp	492	1	ZHHZ	492	1	blank2r.bmp	572	1	sterben	866	0	0	0	0	0	0	0	0	0	0	0	0	0	0	0	0	0	0	0	0	0	0	0	0	0	0	0	0	0	0	0	0	0	0	0	0
082019	13:57:00	13:59:12	131399	5.0.10.0	5_exp_RW	107	Rpleas_acq	CS_A	JQQJ	YFFY	ZHHZ	DXXD	CPPC	LWWL	sonnig	genießen	träumen	gütig	vertrauen	küssen	sterben	gemein	töten	gierig	versagen	krank	1	acq_USpleas_CSpleas1_RW	acq1_RW	1	9	0	0	300	300	513	50	0	1	1	blank2r.bmp	0	1	+	0	1	blank2r.bmp	492	1	JQQJ	492	1	blank2r.bmp	572	1	sonnig	866	0	0	0	0	0	0	0	0	0	0	0	0	0	0	0	0	0	0	0	0	0	0	0	0	0	0	0	0	0	0	0	0	0	0	0	0
082019	13:57:00	13:59:14	133385	5.0.10.0	5_exp_RW	107	Rpleas_acq	CS_A	JQQJ	YFFY	ZHHZ	DXXD	CPPC	LWWL	sonnig	genießen	träumen	gütig	vertrauen	küssen	sterben	gemein	töten	gierig	versagen	krank	1	acq_USunple_CSunple2_RW	acq1_RW	1	10	0	0	300	300	492	46	0	1	1	blank2r.bmp	0	1	+	0	1	blank2r.bmp	492	1	DXXD	492	1	blank2r.bmp	572	3	krank	866	0	0	0	0	0	0	0	0	0	0	0	0	0	0	0	0	0	0	0	0	0	0	0	0	0	0	0	0	0	0	0	0	0	0	0	0
082019	13:57:00	13:59:16	135357	5.0.10.0	5_exp_RW	107	Rpleas_acq	CS_A	JQQJ	YFFY	ZHHZ	DXXD	CPPC	LWWL	sonnig	genießen	träumen	gütig	vertrauen	küssen	sterben	gemein	töten	gierig	versagen	krank	1	acq_USpleas_CSpleas1_RW	acq1_RW	1	11	0	0	300	300	481	50	0	1	1	blank2r.bmp	0	1	+	0	1	blank2r.bmp	492	1	JQQJ	492	1	blank2r.bmp	572	2	genießen	866	0	0	0	0	0	0	0	0	0	0	0	0	0	0	0	0	0	0	0	0	0	0	0	0	0	0	0	0	0	0	0	0	0	0	0	0
082019	13:57:00	13:59:18	137290	5.0.10.0	5_exp_RW	107	Rpleas_acq	CS_A	JQQJ	YFFY	ZHHZ	DXXD	CPPC	LWWL	sonnig	genießen	träumen	gütig	vertrauen	küssen	sterben	gemein	töten	gierig	versagen	krank	1	acq_USpleas_CSpleas2_RW	acq1_RW	1	12	0	0	300	300	452	50	0	1	1	blank2r.bmp	0	1	+	0	1	blank2r.bmp	492	1	YFFY	492	1	blank2r.bmp	572	1	gütig	866	0	0	0	0	0	0	0	0	0	0	0	0	0	0	0	0	0	0	0	0	0	0	0	0	0	0	0	0	0	0	0	0	0	0	0	0
082019	13:57:00	13:59:20	139142	5.0.10.0	5_exp_RW	107	Rpleas_acq	CS_A	JQQJ	YFFY	ZHHZ	DXXD	CPPC	LWWL	sonnig	genießen	träumen	gütig	vertrauen	küssen	sterben	gemein	töten	gierig	versagen	krank	1	acq_USunple_CSunple1_RW	acq1_RW	1	13	0	0	300	300	382	46	0	1	1	blank2r.bmp	0	1	+	0	1	blank2r.bmp	492	1	ZHHZ	492	1	blank2r.bmp	572	3	töten	866	0	0	0	0	0	0	0	0	0	0	0	0	0	0	0	0	0	0	0	0	0	0	0	0	0	0	0	0	0	0	0	0	0	0	0	0
082019	13:57:00	13:59:22	141075	5.0.10.0	5_exp_RW	107	Rpleas_acq	CS_A	JQQJ	YFFY	ZHHZ	DXXD	CPPC	LWWL	sonnig	genießen	träumen	gütig	vertrauen	küssen	sterben	gemein	töten	gierig	versagen	krank	1	acq_USpleas_CSpleas1_RW	acq1_RW	1	14	0	0	300	300	439	50	0	1	1	blank2r.bmp	0	1	+	0	1	blank2r.bmp	492	1	JQQJ	492	1	blank2r.bmp	572	1	sonnig	866	0	0	0	0	0	0	0	0	0	0	0	0	0	0	0	0	0	0	0	0	0	0	0	0	0	0	0	0	0	0	0	0	0	0	0	0
082019	13:57:00	13:59:24	143021	5.0.10.0	5_exp_RW	107	Rpleas_acq	CS_A	JQQJ	YFFY	ZHHZ	DXXD	CPPC	LWWL	sonnig	genießen	träumen	gütig	vertrauen	küssen	sterben	gemein	töten	gierig	versagen	krank	1	acq_USpleas_CSpleas2_RW	acq1_RW	1	15	0	0	300	300	457	50	0	1	1	blank2r.bmp	0	1	+	0	1	blank2r.bmp	492	1	YFFY	492	1	blank2r.bmp	572	3	küssen	866	0	0	0	0	0	0	0	0	0	0	0	0	0	0	0	0	0	0	0	0	0	0	0	0	0	0	0	0	0	0	0	0	0	0	0	0
082019	13:57:00	13:59:26	144953	5.0.10.0	5_exp_RW	107	Rpleas_acq	CS_A	JQQJ	YFFY	ZHHZ	DXXD	CPPC	LWWL	sonnig	genießen	träumen	gütig	vertrauen	küssen	sterben	gemein	töten	gierig	versagen	krank	1	acq_USunple_CSunple2_RW	acq1_RW	1	16	0	0	300	300	446	46	0	1	1	blank2r.bmp	0	1	+	0	1	blank2r.bmp	492	1	DXXD	492	1	blank2r.bmp	572	1	gierig	866	0	0	0	0	0	0	0	0	0	0	0	0	0	0	0	0	0	0	0	0	0	0	0	0	0	0	0	0	0	0	0	0	0	0	0	0
082019	13:57:00	14:00:08	187109	5.0.10.0	5_exp_RW	107	Rpleas_acq	CS_A	JQQJ	YFFY	ZHHZ	DXXD	CPPC	LWWL	sonnig	genießen	träumen	gütig	vertrauen	küssen	sterben	gemein	töten	gierig	versagen	krank	1	acq_USpleas_CSpleas1_RW	acq2_RW	2	1	480	0	300	300	2099	50	0	1	1	blank2r.bmp	0	1	+	0	1	blank2r.bmp	492	1	JQQJ	492	1	blank2r.bmp	572	3	träumen	866	1	!	1319	1	!	-1	0	0	0	0	0	0	0	0	0	0	0	0	0	0	0	0	0	0	0	0	0	0	0	0	0	0	0	0	0	0
082019	13:57:00	14:00:11	189682	5.0.10.0	5_exp_RW	107	Rpleas_acq	CS_A	JQQJ	YFFY	ZHHZ	DXXD	CPPC	LWWL	sonnig	genießen	träumen	gütig	vertrauen	küssen	sterben	gemein	töten	gierig	versagen	krank	1	acq_USunple_CSunple1_RW	acq2_RW	2	2	480	0	300	300	786	46	0	1	1	blank2r.bmp	0	1	+	0	1	blank2r.bmp	492	1	ZHHZ	492	1	blank2r.bmp	572	2	gemein	866	1	!	1319	1	!	-1	0	0	0	0	0	0	0	0	0	0	0	0	0	0	0	0	0	0	0	0	0	0	0	0	0	0	0	0	0	0
082019	13:57:00	14:00:13	192094	5.0.10.0	5_exp_RW	107	Rpleas_acq	CS_A	JQQJ	YFFY	ZHHZ	DXXD	CPPC	LWWL	sonnig	genießen	träumen	gütig	vertrauen	küssen	sterben	gemein	töten	gierig	versagen	krank	1	acq_USunple_CSunple1_RW	acq2_RW	2	3	480	0	300	300	634	46	0	1	1	blank2r.bmp	0	1	+	0	1	blank2r.bmp	492	1	ZHHZ	492	1	blank2r.bmp	572	1	sterben	866	1	!	1319	1	!	-1	0	0	0	0	0	0	0	0	0	0	0	0	0	0	0	0	0	0	0	0	0	0	0	0	0	0	0	0	0	0
082019	13:57:00	14:00:16	194679	5.0.10.0	5_exp_RW	107	Rpleas_acq	CS_A	JQQJ	YFFY	ZHHZ	DXXD	CPPC	LWWL	sonnig	genießen	träumen	gütig	vertrauen	küssen	sterben	gemein	töten	gierig	versagen	krank	1	acq_USpleas_CSpleas2_RW	acq2_RW	2	4	480	0	300	300	809	50	0	1	1	blank2r.bmp	0	1	+	0	1	blank2r.bmp	492	1	YFFY	492	1	blank2r.bmp	572	2	vertrauen	866	1	!	1319	1	!	-1	0	0	0	0	0	0	0	0	0	0	0	0	0	0	0	0	0	0	0	0	0	0	0	0	0	0	0	0	0	0
082019	13:57:00	14:00:18	196972	5.0.10.0	5_exp_RW	107	Rpleas_acq	CS_A	JQQJ	YFFY	ZHHZ	DXXD	CPPC	LWWL	sonnig	genießen	träumen	gütig	vertrauen	küssen	sterben	gemein	töten	gierig	versagen	krank	1	acq_USpleas_CSpleas1_RW	acq2_RW	2	5	480	1	300	300	472	50	0	1	1	blank2r.bmp	0	1	+	0	1	blank2r.bmp	492	1	JQQJ	492	1	blank2r.bmp	572	2	genießen	866	1	!	1319	1	!	1372	0	0	0	0	0	0	0	0	0	0	0	0	0	0	0	0	0	0	0	0	0	0	0	0	0	0	0	0	0	0
082019	13:57:00	14:00:20	199424	5.0.10.0	5_exp_RW	107	Rpleas_acq	CS_A	JQQJ	YFFY	ZHHZ	DXXD	CPPC	LWWL	sonnig	genießen	träumen	gütig	vertrauen	küssen	sterben	gemein	töten	gierig	versagen	krank	1	acq_USunple_CSunple2_RW	acq2_RW	2	6	480	0	300	300	681	46	0	1	1	blank2r.bmp	0	1	+	0	1	blank2r.bmp	492	1	DXXD	492	1	blank2r.bmp	572	2	versagen	866	1	!	1319	1	!	-1	0	0	0	0	0	0	0	0	0	0	0	0	0	0	0	0	0	0	0	0	0	0	0	0	0	0	0	0	0	0
082019	13:57:00	14:00:23	201810	5.0.10.0	5_exp_RW	107	Rpleas_acq	CS_A	JQQJ	YFFY	ZHHZ	DXXD	CPPC	LWWL	sonnig	genießen	träumen	gütig	vertrauen	küssen	sterben	gemein	töten	gierig	versagen	krank	1	acq_USunple_CSunple2_RW	acq2_RW	2	7	480	0	300	300	604	46	0	1	1	blank2r.bmp	0	1	+	0	1	blank2r.bmp	492	1	DXXD	492	1	blank2r.bmp	572	3	krank	866	1	!	1319	1	!	-1	0	0	0	0	0	0	0	0	0	0	0	0	0	0	0	0	0	0	0	0	0	0	0	0	0	0	0	0	0	0
082019	13:57:00	14:00:25	204249	5.0.10.0	5_exp_RW	107	Rpleas_acq	CS_A	JQQJ	YFFY	ZHHZ	DXXD	CPPC	LWWL	sonnig	genießen	träumen	gütig	vertrauen	küssen	sterben	gemein	töten	gierig	versagen	krank	1	acq_USunple_CSunple2_RW	acq2_RW	2	8	480	0	300	300	662	46	0	1	1	blank2r.bmp	0	1	+	0	1	blank2r.bmp	492	1	DXXD	492	1	blank2r.bmp	572	2	versagen	866	1	!	1319	1	!	-1	0	0	0	0	0	0	0	0	0	0	0	0	0	0	0	0	0	0	0	0	0	0	0	0	0	0	0	0	0	0
082019	13:57:00	14:00:27	206488	5.0.10.0	5_exp_RW	107	Rpleas_acq	CS_A	JQQJ	YFFY	ZHHZ	DXXD	CPPC	LWWL	sonnig	genießen	träumen	gütig	vertrauen	küssen	sterben	gemein	töten	gierig	versagen	krank	1	acq_USunple_CSunple2_RW	acq2_RW	2	9	480	1	300	300	426	46	0	1	1	blank2r.bmp	0	1	+	0	1	blank2r.bmp	492	1	DXXD	492	1	blank2r.bmp	572	1	gierig	866	1	!	1319	1	!	1332	0	0	0	0	0	0	0	0	0	0	0	0	0	0	0	0	0	0	0	0	0	0	0	0	0	0	0	0	0	0
082019	13:57:00	14:00:30	208767	5.0.10.0	5_exp_RW	107	Rpleas_acq	CS_A	JQQJ	YFFY	ZHHZ	DXXD	CPPC	LWWL	sonnig	genießen	träumen	gütig	vertrauen	küssen	sterben	gemein	töten	gierig	versagen	krank	1	acq_USpleas_CSpleas2_RW	acq2_RW	2	10	480	1	300	300	483	50	0	1	1	blank2r.bmp	0	1	+	0	1	blank2r.bmp	492	1	YFFY	492	1	blank2r.bmp	572	1	gütig	866	1	!	1319	1	!	1386	0	0	0	0	0	0	0	0	0	0	0	0	0	0	0	0	0	0	0	0	0	0	0	0	0	0	0	0	0	0
082019	13:57:00	14:00:32	211113	5.0.10.0	5_exp_RW	107	Rpleas_acq	CS_A	JQQJ	YFFY	ZHHZ	DXXD	CPPC	LWWL	sonnig	genießen	träumen	gütig	vertrauen	küssen	sterben	gemein	töten	gierig	versagen	krank	1	acq_USpleas_CSpleas1_RW	acq2_RW	2	11	480	0	300	300	582	50	0	1	1	blank2r.bmp	0	1	+	0	1	blank2r.bmp	492	1	JQQJ	492	1	blank2r.bmp	572	2	genießen	866	1	!	1319	1	!	-1	0	0	0	0	0	0	0	0	0	0	0	0	0	0	0	0	0	0	0	0	0	0	0	0	0	0	0	0	0	0
082019	13:57:00	14:00:34	213299	5.0.10.0	5_exp_RW	107	Rpleas_acq	CS_A	JQQJ	YFFY	ZHHZ	DXXD	CPPC	LWWL	sonnig	genießen	träumen	gütig	vertrauen	küssen	sterben	gemein	töten	gierig	versagen	krank	1	acq_USpleas_CSpleas2_RW	acq2_RW	2	12	480	0	300	300	406	50	0	1	1	blank2r.bmp	0	1	+	0	1	blank2r.bmp	492	1	YFFY	492	1	blank2r.bmp	572	3	küssen	866	1	!	-1	1	!	-1	0	0	0	0	0	0	0	0	0	0	0	0	0	0	0	0	0	0	0	0	0	0	0	0	0	0	0	0	0	0
082019	13:57:00	14:00:37	215764	5.0.10.0	5_exp_RW	107	Rpleas_acq	CS_A	JQQJ	YFFY	ZHHZ	DXXD	CPPC	LWWL	sonnig	genießen	träumen	gütig	vertrauen	küssen	sterben	gemein	töten	gierig	versagen	krank	1	acq_USpleas_CSpleas2_RW	acq2_RW	2	13	480	0	300	300	683	50	0	1	1	blank2r.bmp	0	1	+	0	1	blank2r.bmp	492	1	YFFY	492	1	blank2r.bmp	572	1	gütig	866	1	!	1319	1	!	-1	0	0	0	0	0	0	0	0	0	0	0	0	0	0	0	0	0	0	0	0	0	0	0	0	0	0	0	0	0	0
082019	13:57:00	14:00:39	217870	5.0.10.0	5_exp_RW	107	Rpleas_acq	CS_A	JQQJ	YFFY	ZHHZ	DXXD	CPPC	LWWL	sonnig	genießen	träumen	gütig	vertrauen	küssen	sterben	gemein	töten	gierig	versagen	krank	1	acq_USpleas_CSpleas1_RW	acq2_RW	2	14	480	0	300	300	323	50	0	1	1	blank2r.bmp	0	1	+	0	1	blank2r.bmp	492	1	JQQJ	492	1	blank2r.bmp	572	3	träumen	866	1	!	-1	1	!	-1	0	0	0	0	0	0	0	0	0	0	0	0	0	0	0	0	0	0	0	0	0	0	0	0	0	0	0	0	0	0
082019	13:57:00	14:00:41	220242	5.0.10.0	5_exp_RW	107	Rpleas_acq	CS_A	JQQJ	YFFY	ZHHZ	DXXD	CPPC	LWWL	sonnig	genießen	träumen	gütig	vertrauen	küssen	sterben	gemein	töten	gierig	versagen	krank	1	acq_USunple_CSunple1_RW	acq2_RW	2	15	480	0	300	300	592	46	0	1	1	blank2r.bmp	0	1	+	0	1	blank2r.bmp	492	1	ZHHZ	492	1	blank2r.bmp	572	1	sterben	866	1	!	1319	1	!	-1	0	0	0	0	0	0	0	0	0	0	0	0	0	0	0	0	0	0	0	0	0	0	0	0	0	0	0	0	0	0
082019	13:57:00	14:00:43	222588	5.0.10.0	5_exp_RW	107	Rpleas_acq	CS_A	JQQJ	YFFY	ZHHZ	DXXD	CPPC	LWWL	sonnig	genießen	träumen	gütig	vertrauen	küssen	sterben	gemein	töten	gierig	versagen	krank	1	acq_USunple_CSunple1_RW	acq2_RW	2	16	480	0	300	300	559	46	0	1	1	blank2r.bmp	0	1	+	0	1	blank2r.bmp	492	1	ZHHZ	492	1	blank2r.bmp	572	2	gemein	866	1	!	1319	1	!	-1	0	0	0	0	0	0	0	0	0	0	0	0	0	0	0	0	0	0	0	0	0	0	0	0	0	0	0	0	0	0
082019	13:57:00	14:00:46	224880	5.0.10.0	5_exp_RW	107	Rpleas_acq	CS_A	JQQJ	YFFY	ZHHZ	DXXD	CPPC	LWWL	sonnig	genießen	träumen	gütig	vertrauen	küssen	sterben	gemein	töten	gierig	versagen	krank	1	acq_USpleas_CSpleas1_RW	acq2_RW	2	17	480	1	300	300	471	50	0	1	1	blank2r.bmp	0	1	+	0	1	blank2r.bmp	492	1	JQQJ	492	1	blank2r.bmp	572	1	sonnig	866	1	!	1319	1	!	1372	0	0	0	0	0	0	0	0	0	0	0	0	0	0	0	0	0	0	0	0	0	0	0	0	0	0	0	0	0	0
082019	13:57:00	14:00:48	227173	5.0.10.0	5_exp_RW	107	Rpleas_acq	CS_A	JQQJ	YFFY	ZHHZ	DXXD	CPPC	LWWL	sonnig	genießen	träumen	gütig	vertrauen	küssen	sterben	gemein	töten	gierig	versagen	krank	1	acq_USunple_CSunple1_RW	acq2_RW	2	18	480	1	300	300	497	46	0	1	1	blank2r.bmp	0	1	+	0	1	blank2r.bmp	492	1	ZHHZ	492	1	blank2r.bmp	572	3	töten	866	1	!	1319	1	!	1399	0	0	0	0	0	0	0	0	0	0	0	0	0	0	0	0	0	0	0	0	0	0	0	0	0	0	0	0	0	0
082019	13:57:00	14:00:50	229332	5.0.10.0	5_exp_RW	107	Rpleas_acq	CS_A	JQQJ	YFFY	ZHHZ	DXXD	CPPC	LWWL	sonnig	genießen	träumen	gütig	vertrauen	küssen	sterben	gemein	töten	gierig	versagen	krank	1	acq_USpleas_CSpleas1_RW	acq2_RW	2	19	480	0	300	300	386	50	0	1	1	blank2r.bmp	0	1	+	0	1	blank2r.bmp	492	1	JQQJ	492	1	blank2r.bmp	572	1	sonnig	866	1	!	-1	1	!	-1	0	0	0	0	0	0	0	0	0	0	0	0	0	0	0	0	0	0	0	0	0	0	0	0	0	0	0	0	0	0
082019	13:57:00	14:00:53	231704	5.0.10.0	5_exp_RW	107	Rpleas_acq	CS_A	JQQJ	YFFY	ZHHZ	DXXD	CPPC	LWWL	sonnig	genießen	träumen	gütig	vertrauen	küssen	sterben	gemein	töten	gierig	versagen	krank	1	acq_USpleas_CSpleas2_RW	acq2_RW	2	20	480	0	300	300	594	50	0	1	1	blank2r.bmp	0	1	+	0	1	blank2r.bmp	492	1	YFFY	492	1	blank2r.bmp	572	2	vertrauen	866	1	!	1319	1	!	-1	0	0	0	0	0	0	0	0	0	0	0	0	0	0	0	0	0	0	0	0	0	0	0	0	0	0	0	0	0	0
082019	13:57:00	14:00:55	233823	5.0.10.0	5_exp_RW	107	Rpleas_acq	CS_A	JQQJ	YFFY	ZHHZ	DXXD	CPPC	LWWL	sonnig	genießen	träumen	gütig	vertrauen	küssen	sterben	gemein	töten	gierig	versagen	krank	1	acq_USunple_CSunple2_RW	acq2_RW	2	21	480	0	300	300	338	46	0	1	1	blank2r.bmp	0	1	+	0	1	blank2r.bmp	492	1	DXXD	492	1	blank2r.bmp	572	3	krank	866	1	!	-1	1	!	-1	0	0	0	0	0	0	0	0	0	0	0	0	0	0	0	0	0	0	0	0	0	0	0	0	0	0	0	0	0	0
082019	13:57:00	14:00:57	236156	5.0.10.0	5_exp_RW	107	Rpleas_acq	CS_A	JQQJ	YFFY	ZHHZ	DXXD	CPPC	LWWL	sonnig	genießen	träumen	gütig	vertrauen	küssen	sterben	gemein	töten	gierig	versagen	krank	1	acq_USunple_CSunple2_RW	acq2_RW	2	22	480	1	300	300	527	46	0	1	1	blank2r.bmp	0	1	+	0	1	blank2r.bmp	492	1	DXXD	492	1	blank2r.bmp	572	1	gierig	866	1	!	1319	1	!	1426	0	0	0	0	0	0	0	0	0	0	0	0	0	0	0	0	0	0	0	0	0	0	0	0	0	0	0	0	0	0
082019	13:57:00	14:01:00	238768	5.0.10.0	5_exp_RW	107	Rpleas_acq	CS_A	JQQJ	YFFY	ZHHZ	DXXD	CPPC	LWWL	sonnig	genießen	träumen	gütig	vertrauen	küssen	sterben	gemein	töten	gierig	versagen	krank	1	acq_USunple_CSunple1_RW	acq2_RW	2	23	480	0	300	300	618	50	0	0	1	blank2r.bmp	0	1	+	0	1	blank2r.bmp	492	1	ZHHZ	492	1	blank2r.bmp	572	1	sterben	866	1	FEHLER	1825	1	!	1319	1	!	-1	0	0	0	0	0	0	0	0	0	0	0	0	0	0	0	0	0	0	0	0	0	0	0	0	0	0	0
082019	13:57:00	14:01:02	240687	5.0.10.0	5_exp_RW	107	Rpleas_acq	CS_A	JQQJ	YFFY	ZHHZ	DXXD	CPPC	LWWL	sonnig	genießen	träumen	gütig	vertrauen	küssen	sterben	gemein	töten	gierig	versagen	krank	1	acq_USpleas_CSpleas2_RW	acq2_RW	2	24	480	0	300	300	367	50	0	1	1	blank2r.bmp	0	1	+	0	1	blank2r.bmp	492	1	YFFY	492	1	blank2r.bmp	572	3	küssen	866	1	!	-1	1	!	-1	0	0	0	0	0	0	0	0	0	0	0	0	0	0	0	0	0	0	0	0	0	0	0	0	0	0	0	0	0	0
082019	13:57:00	14:01:21	260359	5.0.10.0	5_exp_RW	107	Rpleas_acq	CS_A	JQQJ	YFFY	ZHHZ	DXXD	CPPC	LWWL	sonnig	genießen	träumen	gütig	vertrauen	küssen	sterben	gemein	töten	gierig	versagen	krank	1	acq_USunple_CSunple2_RW	acq3_RW	3	1	453	1	300	300	508	46	0	1	1	blank2r.bmp	0	1	+	0	1	blank2r.bmp	492	1	DXXD	492	1	blank2r.bmp	572	2	versagen	866	1	!	1292	1	!	1412	0	0	0	0	0	0	0	0	0	0	0	0	0	0	0	0	0	0	0	0	0	0	0	0	0	0	0	0	0	0
082019	13:57:00	14:01:24	262705	5.0.10.0	5_exp_RW	107	Rpleas_acq	CS_A	JQQJ	YFFY	ZHHZ	DXXD	CPPC	LWWL	sonnig	genießen	träumen	gütig	vertrauen	küssen	sterben	gemein	töten	gierig	versagen	krank	1	acq_USunple_CSunple1_RW	acq3_RW	3	2	453	0	300	300	578	46	0	1	1	blank2r.bmp	0	1	+	0	1	blank2r.bmp	492	1	ZHHZ	492	1	blank2r.bmp	572	3	töten	866	1	!	1292	1	!	-1	0	0	0	0	0	0	0	0	0	0	0	0	0	0	0	0	0	0	0	0	0	0	0	0	0	0	0	0	0	0
082019	13:57:00	14:01:26	265024	5.0.10.0	5_exp_RW	107	Rpleas_acq	CS_A	JQQJ	YFFY	ZHHZ	DXXD	CPPC	LWWL	sonnig	genießen	träumen	gütig	vertrauen	küssen	sterben	gemein	töten	gierig	versagen	krank	1	acq_USpleas_CSpleas1_RW	acq3_RW	3	3	453	0	300	300	542	50	0	1	1	blank2r.bmp	0	1	+	0	1	blank2r.bmp	492	1	JQQJ	492	1	blank2r.bmp	572	2	genießen	866	1	!	1292	1	!	-1	0	0	0	0	0	0	0	0	0	0	0	0	0	0	0	0	0	0	0	0	0	0	0	0	0	0	0	0	0	0
082019	13:57:00	14:01:28	267316	5.0.10.0	5_exp_RW	107	Rpleas_acq	CS_A	JQQJ	YFFY	ZHHZ	DXXD	CPPC	LWWL	sonnig	genießen	träumen	gütig	vertrauen	küssen	sterben	gemein	töten	gierig	versagen	krank	1	acq_USpleas_CSpleas1_RW	acq3_RW	3	4	453	1	300	300	481	50	0	1	1	blank2r.bmp	0	1	+	0	1	blank2r.bmp	492	1	JQQJ	492	1	blank2r.bmp	572	3	träumen	866	1	!	1292	1	!	1386	0	0	0	0	0	0	0	0	0	0	0	0	0	0	0	0	0	0	0	0	0	0	0	0	0	0	0	0	0	0
082019	13:57:00	14:01:30	269515	5.0.10.0	5_exp_RW	107	Rpleas_acq	CS_A	JQQJ	YFFY	ZHHZ	DXXD	CPPC	LWWL	sonnig	genießen	träumen	gütig	vertrauen	küssen	sterben	gemein	töten	gierig	versagen	krank	1	acq_USunple_CSunple1_RW	acq3_RW	3	5	453	1	300	300	399	46	0	1	1	blank2r.bmp	0	1	+	0	1	blank2r.bmp	492	1	ZHHZ	492	1	blank2r.bmp	572	2	gemein	866	1	!	1292	1	!	1306	0	0	0	0	0	0	0	0	0	0	0	0	0	0	0	0	0	0	0	0	0	0	0	0	0	0	0	0	0	0
082019	13:57:00	14:01:33	271821	5.0.10.0	5_exp_RW	107	Rpleas_acq	CS_A	JQQJ	YFFY	ZHHZ	DXXD	CPPC	LWWL	sonnig	genießen	träumen	gütig	vertrauen	küssen	sterben	gemein	töten	gierig	versagen	krank	1	acq_USpleas_CSpleas2_RW	acq3_RW	3	6	453	0	300	300	532	50	0	1	1	blank2r.bmp	0	1	+	0	1	blank2r.bmp	492	1	YFFY	492	1	blank2r.bmp	572	1	gütig	866	1	!	1292	1	!	-1	0	0	0	0	0	0	0	0	0	0	0	0	0	0	0	0	0	0	0	0	0	0	0	0	0	0	0	0	0	0
082019	13:57:00	14:01:35	273940	5.0.10.0	5_exp_RW	107	Rpleas_acq	CS_A	JQQJ	YFFY	ZHHZ	DXXD	CPPC	LWWL	sonnig	genießen	träumen	gütig	vertrauen	küssen	sterben	gemein	töten	gierig	versagen	krank	1	acq_USunple_CSunple2_RW	acq3_RW	3	7	453	0	300	300	325	46	0	1	1	blank2r.bmp	0	1	+	0	1	blank2r.bmp	492	1	DXXD	492	1	blank2r.bmp	572	3	krank	866	1	!	-1	1	!	-1	0	0	0	0	0	0	0	0	0	0	0	0	0	0	0	0	0	0	0	0	0	0	0	0	0	0	0	0	0	0
082019	13:57:00	14:01:37	276299	5.0.10.0	5_exp_RW	107	Rpleas_acq	CS_A	JQQJ	YFFY	ZHHZ	DXXD	CPPC	LWWL	sonnig	genießen	träumen	gütig	vertrauen	küssen	sterben	gemein	töten	gierig	versagen	krank	1	acq_USunple_CSunple1_RW	acq3_RW	3	8	453	0	300	300	582	46	0	1	1	blank2r.bmp	0	1	+	0	1	blank2r.bmp	492	1	ZHHZ	492	1	blank2r.bmp	572	2	gemein	866	1	!	1292	1	!	-1	0	0	0	0	0	0	0	0	0	0	0	0	0	0	0	0	0	0	0	0	0	0	0	0	0	0	0	0	0	0
082019	13:57:00	14:01:39	278525	5.0.10.0	5_exp_RW	107	Rpleas_acq	CS_A	JQQJ	YFFY	ZHHZ	DXXD	CPPC	LWWL	sonnig	genießen	träumen	gütig	vertrauen	küssen	sterben	gemein	töten	gierig	versagen	krank	1	acq_USunple_CSunple1_RW	acq3_RW	3	9	453	1	300	300	421	46	0	1	1	blank2r.bmp	0	1	+	0	1	blank2r.bmp	492	1	ZHHZ	492	1	blank2r.bmp	572	3	töten	866	1	!	1292	1	!	1319	0	0	0	0	0	0	0	0	0	0	0	0	0	0	0	0	0	0	0	0	0	0	0	0	0	0	0	0	0	0
082019	13:57:00	14:01:42	280804	5.0.10.0	5_exp_RW	107	Rpleas_acq	CS_A	JQQJ	YFFY	ZHHZ	DXXD	CPPC	LWWL	sonnig	genießen	träumen	gütig	vertrauen	küssen	sterben	gemein	töten	gierig	versagen	krank	1	acq_USpleas_CSpleas1_RW	acq3_RW	3	10	453	1	300	300	476	50	0	1	1	blank2r.bmp	0	1	+	0	1	blank2r.bmp	492	1	JQQJ	492	1	blank2r.bmp	572	1	sonnig	866	1	!	1292	1	!	1372	0	0	0	0	0	0	0	0	0	0	0	0	0	0	0	0	0	0	0	0	0	0	0	0	0	0	0	0	0	0
082019	13:57:00	14:01:44	282937	5.0.10.0	5_exp_RW	107	Rpleas_acq	CS_A	JQQJ	YFFY	ZHHZ	DXXD	CPPC	LWWL	sonnig	genießen	träumen	gütig	vertrauen	küssen	sterben	gemein	töten	gierig	versagen	krank	1	acq_USunple_CSunple2_RW	acq3_RW	3	11	453	0	300	300	348	46	0	1	1	blank2r.bmp	0	1	+	0	1	blank2r.bmp	492	1	DXXD	492	1	blank2r.bmp	572	1	gierig	866	1	!	-1	1	!	-1	0	0	0	0	0	0	0	0	0	0	0	0	0	0	0	0	0	0	0	0	0	0	0	0	0	0	0	0	0	0
082019	13:57:00	14:01:46	285269	5.0.10.0	5_exp_RW	107	Rpleas_acq	CS_A	JQQJ	YFFY	ZHHZ	DXXD	CPPC	LWWL	sonnig	genießen	träumen	gütig	vertrauen	küssen	sterben	gemein	töten	gierig	versagen	krank	1	acq_USpleas_CSpleas2_RW	acq3_RW	3	12	453	0	300	300	546	50	0	1	1	blank2r.bmp	0	1	+	0	1	blank2r.bmp	492	1	YFFY	492	1	blank2r.bmp	572	2	vertrauen	866	1	!	1292	1	!	-1	0	0	0	0	0	0	0	0	0	0	0	0	0	0	0	0	0	0	0	0	0	0	0	0	0	0	0	0	0	0
082019	13:57:00	14:01:48	287521	5.0.10.0	5_exp_RW	107	Rpleas_acq	CS_A	JQQJ	YFFY	ZHHZ	DXXD	CPPC	LWWL	sonnig	genießen	träumen	gütig	vertrauen	küssen	sterben	gemein	töten	gierig	versagen	krank	1	acq_USpleas_CSpleas2_RW	acq3_RW	3	13	453	0	300	300	253	46	0	0	1	blank2r.bmp	0	1	+	0	1	blank2r.bmp	492	1	YFFY	492	1	blank2r.bmp	572	1	gütig	866	1	FEHLER	1466	1	!	-1	1	!	-1	0	0	0	0	0	0	0	0	0	0	0	0	0	0	0	0	0	0	0	0	0	0	0	0	0	0	0
082019	13:57:00	14:01:51	289654	5.0.10.0	5_exp_RW	107	Rpleas_acq	CS_A	JQQJ	YFFY	ZHHZ	DXXD	CPPC	LWWL	sonnig	genießen	träumen	gütig	vertrauen	küssen	sterben	gemein	töten	gierig	versagen	krank	1	acq_USunple_CSunple1_RW	acq3_RW	3	14	453	0	300	300	561	46	0	1	1	blank2r.bmp	0	1	+	0	1	blank2r.bmp	492	1	ZHHZ	492	1	blank2r.bmp	572	1	sterben	866	1	!	1292	1	!	-1	0	0	0	0	0	0	0	0	0	0	0	0	0	0	0	0	0	0	0	0	0	0	0	0	0	0	0	0	0	0
082019	13:57:00	14:01:53	291933	5.0.10.0	5_exp_RW	107	Rpleas_acq	CS_A	JQQJ	YFFY	ZHHZ	DXXD	CPPC	LWWL	sonnig	genießen	träumen	gütig	vertrauen	küssen	sterben	gemein	töten	gierig	versagen	krank	1	acq_USunple_CSunple2_RW	acq3_RW	3	15	453	1	300	300	476	46	0	1	1	blank2r.bmp	0	1	+	0	1	blank2r.bmp	492	1	DXXD	492	1	blank2r.bmp	572	2	versagen	866	1	!	1292	1	!	1372	0	0	0	0	0	0	0	0	0	0	0	0	0	0	0	0	0	0	0	0	0	0	0	0	0	0	0	0	0	0
082019	13:57:00	14:01:55	294132	5.0.10.0	5_exp_RW	107	Rpleas_acq	CS_A	JQQJ	YFFY	ZHHZ	DXXD	CPPC	LWWL	sonnig	genießen	träumen	gütig	vertrauen	küssen	sterben	gemein	töten	gierig	versagen	krank	1	acq_USpleas_CSpleas2_RW	acq3_RW	3	16	453	1	300	300	403	50	0	1	1	blank2r.bmp	0	1	+	0	1	blank2r.bmp	492	1	YFFY	492	1	blank2r.bmp	572	3	küssen	866	1	!	1292	1	!	1306	0	0	0	0	0	0	0	0	0	0	0	0	0	0	0	0	0	0	0	0	0	0	0	0	0	0	0	0	0	0
082019	13:57:00	14:01:57	296398	5.0.10.0	5_exp_RW	107	Rpleas_acq	CS_A	JQQJ	YFFY	ZHHZ	DXXD	CPPC	LWWL	sonnig	genießen	träumen	gütig	vertrauen	küssen	sterben	gemein	töten	gierig	versagen	krank	1	acq_USpleas_CSpleas1_RW	acq3_RW	3	17	453	1	300	300	472	50	0	1	1	blank2r.bmp	0	1	+	0	1	blank2r.bmp	492	1	JQQJ	492	1	blank2r.bmp	572	2	genießen	866	1	!	1292	1	!	1372	0	0	0	0	0	0	0	0	0	0	0	0	0	0	0	0	0	0	0	0	0	0	0	0	0	0	0	0	0	0
082019	13:57:00	14:02:00	298690	5.0.10.0	5_exp_RW	107	Rpleas_acq	CS_A	JQQJ	YFFY	ZHHZ	DXXD	CPPC	LWWL	sonnig	genießen	träumen	gütig	vertrauen	küssen	sterben	gemein	töten	gierig	versagen	krank	1	acq_USpleas_CSpleas2_RW	acq3_RW	3	18	453	1	300	300	495	50	0	1	1	blank2r.bmp	0	1	+	0	1	blank2r.bmp	492	1	YFFY	492	1	blank2r.bmp	572	2	vertrauen	866	1	!	1292	1	!	1399	0	0	0	0	0	0	0	0	0	0	0	0	0	0	0	0	0	0	0	0	0	0	0	0	0	0	0	0	0	0
082019	13:57:00	14:02:02	300969	5.0.10.0	5_exp_RW	107	Rpleas_acq	CS_A	JQQJ	YFFY	ZHHZ	DXXD	CPPC	LWWL	sonnig	genießen	träumen	gütig	vertrauen	küssen	sterben	gemein	töten	gierig	versagen	krank	1	acq_USpleas_CSpleas1_RW	acq3_RW	3	19	453	1	300	300	484	50	0	1	1	blank2r.bmp	0	1	+	0	1	blank2r.bmp	492	1	JQQJ	492	1	blank2r.bmp	572	3	träumen	866	1	!	1292	1	!	1386	0	0	0	0	0	0	0	0	0	0	0	0	0	0	0	0	0	0	0	0	0	0	0	0	0	0	0	0	0	0
082019	13:57:00	14:02:04	303235	5.0.10.0	5_exp_RW	107	Rpleas_acq	CS_A	JQQJ	YFFY	ZHHZ	DXXD	CPPC	LWWL	sonnig	genießen	träumen	gütig	vertrauen	küssen	sterben	gemein	töten	gierig	versagen	krank	1	acq_USunple_CSunple1_RW	acq3_RW	3	20	453	1	300	300	470	46	0	1	1	blank2r.bmp	0	1	+	0	1	blank2r.bmp	492	1	ZHHZ	492	1	blank2r.bmp	572	1	sterben	866	1	!	1292	1	!	1372	0	0	0	0	0	0	0	0	0	0	0	0	0	0	0	0	0	0	0	0	0	0	0	0	0	0	0	0	0	0
082019	13:57:00	14:02:06	305527	5.0.10.0	5_exp_RW	107	Rpleas_acq	CS_A	JQQJ	YFFY	ZHHZ	DXXD	CPPC	LWWL	sonnig	genießen	träumen	gütig	vertrauen	küssen	sterben	gemein	töten	gierig	versagen	krank	1	acq_USunple_CSunple2_RW	acq3_RW	3	21	453	1	300	300	478	46	0	1	1	blank2r.bmp	0	1	+	0	1	blank2r.bmp	492	1	DXXD	492	1	blank2r.bmp	572	3	krank	866	1	!	1292	1	!	1386	0	0	0	0	0	0	0	0	0	0	0	0	0	0	0	0	0	0	0	0	0	0	0	0	0	0	0	0	0	0
082019	13:57:00	14:02:09	307820	5.0.10.0	5_exp_RW	107	Rpleas_acq	CS_A	JQQJ	YFFY	ZHHZ	DXXD	CPPC	LWWL	sonnig	genießen	träumen	gütig	vertrauen	küssen	sterben	gemein	töten	gierig	versagen	krank	1	acq_USpleas_CSpleas1_RW	acq3_RW	3	22	453	1	300	300	505	50	0	1	1	blank2r.bmp	0	1	+	0	1	blank2r.bmp	492	1	JQQJ	492	1	blank2r.bmp	572	2	genießen	866	1	!	1292	1	!	1399	0	0	0	0	0	0	0	0	0	0	0	0	0	0	0	0	0	0	0	0	0	0	0	0	0	0	0	0	0	0
082019	13:57:00	14:02:11	310126	5.0.10.0	5_exp_RW	107	Rpleas_acq	CS_A	JQQJ	YFFY	ZHHZ	DXXD	CPPC	LWWL	sonnig	genießen	träumen	gütig	vertrauen	küssen	sterben	gemein	töten	gierig	versagen	krank	1	acq_USunple_CSunple2_RW	acq3_RW	3	23	453	0	300	300	535	46	0	1	1	blank2r.bmp	0	1	+	0	1	blank2r.bmp	492	1	DXXD	492	1	blank2r.bmp	572	2	versagen	866	1	!	1292	1	!	-1	0	0	0	0	0	0	0	0	0	0	0	0	0	0	0	0	0	0	0	0	0	0	0	0	0	0	0	0	0	0
082019	13:57:00	14:02:14	312671	5.0.10.0	5_exp_RW	107	Rpleas_acq	CS_A	JQQJ	YFFY	ZHHZ	DXXD	CPPC	LWWL	sonnig	genießen	träumen	gütig	vertrauen	küssen	sterben	gemein	töten	gierig	versagen	krank	1	acq_USpleas_CSpleas2_RW	acq3_RW	3	24	453	0	300	300	543	46	0	0	1	blank2r.bmp	0	1	+	0	1	blank2r.bmp	492	1	YFFY	492	1	blank2r.bmp	572	1	gütig	866	1	FEHLER	1745	1	!	1292	1	!	-1	0	0	0	0	0	0	0	0	0	0	0	0	0	0	0	0	0	0	0	0	0	0	0	0	0	0	0
082019	13:57:00	14:02:26	324653	5.0.10.0	5_exp_RW	107	Rpleas_acq	CS_A	JQQJ	YFFY	ZHHZ	DXXD	CPPC	LWWL	sonnig	genießen	träumen	gütig	vertrauen	küssen	sterben	gemein	töten	gierig	versagen	krank	1	acq_USpleas_CSpleas1_RW	acq4567_RW	4	1	400	0	300	300	500	50	0	1	1	blank2r.bmp	0	1	+	0	1	blank2r.bmp	492	1	JQQJ	492	1	blank2r.bmp	572	1	sonnig	866	1	!	1239	1	!	-1	0	0	0	0	0	0	0	0	0	0	0	0	0	0	0	0	0	0	0	0	0	0	0	0	0	0	0	0	0	0
082019	13:57:00	14:02:28	326892	5.0.10.0	5_exp_RW	107	Rpleas_acq	CS_A	JQQJ	YFFY	ZHHZ	DXXD	CPPC	LWWL	sonnig	genießen	träumen	gütig	vertrauen	küssen	sterben	gemein	töten	gierig	versagen	krank	1	acq_USunple_CSunple2_RW	acq4567_RW	4	2	400	1	300	300	432	46	0	1	1	blank2r.bmp	0	1	+	0	1	blank2r.bmp	492	1	DXXD	492	1	blank2r.bmp	572	1	gierig	866	1	!	1239	1	!	1332	0	0	0	0	0	0	0	0	0	0	0	0	0	0	0	0	0	0	0	0	0	0	0	0	0	0	0	0	0	0
082019	13:57:00	14:02:30	329144	5.0.10.0	5_exp_RW	107	Rpleas_acq	CS_A	JQQJ	YFFY	ZHHZ	DXXD	CPPC	LWWL	sonnig	genießen	träumen	gütig	vertrauen	küssen	sterben	gemein	töten	gierig	versagen	krank	1	acq_USunple_CSunple2_RW	acq4567_RW	4	3	400	0	300	300	486	46	0	1	1	blank2r.bmp	0	1	+	0	1	blank2r.bmp	492	1	DXXD	492	1	blank2r.bmp	572	3	krank	866	1	!	1239	1	!	-1	0	0	0	0	0	0	0	0	0	0	0	0	0	0	0	0	0	0	0	0	0	0	0	0	0	0	0	0	0	0
082019	13:57:00	14:02:32	331344	5.0.10.0	5_exp_RW	107	Rpleas_acq	CS_A	JQQJ	YFFY	ZHHZ	DXXD	CPPC	LWWL	sonnig	genießen	träumen	gütig	vertrauen	küssen	sterben	gemein	töten	gierig	versagen	krank	1	acq_USpleas_CSpleas1_RW	acq4567_RW	4	4	400	1	300	300	393	50	0	1	1	blank2r.bmp	0	1	+	0	1	blank2r.bmp	492	1	JQQJ	492	1	blank2r.bmp	572	3	träumen	866	1	!	1239	1	!	1292	0	0	0	0	0	0	0	0	0	0	0	0	0	0	0	0	0	0	0	0	0	0	0	0	0	0	0	0	0	0
082019	13:57:00	14:02:34	333396	5.0.10.0	5_exp_RW	107	Rpleas_acq	CS_A	JQQJ	YFFY	ZHHZ	DXXD	CPPC	LWWL	sonnig	genießen	träumen	gütig	vertrauen	küssen	sterben	gemein	töten	gierig	versagen	krank	1	acq_USunple_CSunple1_RW	acq4567_RW	4	5	400	0	300	300	286	46	0	1	1	blank2r.bmp	0	1	+	0	1	blank2r.bmp	492	1	ZHHZ	492	1	blank2r.bmp	572	2	gemein	866	1	!	-1	1	!	-1	0	0	0	0	0	0	0	0	0	0	0	0	0	0	0	0	0	0	0	0	0	0	0	0	0	0	0	0	0	0
082019	13:57:00	14:02:36	335502	5.0.10.0	5_exp_RW	107	Rpleas_acq	CS_A	JQQJ	YFFY	ZHHZ	DXXD	CPPC	LWWL	sonnig	genießen	träumen	gütig	vertrauen	küssen	sterben	gemein	töten	gierig	versagen	krank	1	acq_USunple_CSunple1_RW	acq4567_RW	4	6	400	0	300	300	320	50	0	0	1	blank2r.bmp	0	1	+	0	1	blank2r.bmp	492	1	ZHHZ	492	1	blank2r.bmp	572	3	töten	866	1	!	-1	1	!	-1	0	0	0	0	0	0	0	0	0	0	0	0	0	0	0	0	0	0	0	0	0	0	0	0	0	0	0	0	0	0
082019	13:57:00	14:02:39	337714	5.0.10.0	5_exp_RW	107	Rpleas_acq	CS_A	JQQJ	YFFY	ZHHZ	DXXD	CPPC	LWWL	sonnig	genießen	träumen	gütig	vertrauen	küssen	sterben	gemein	töten	gierig	versagen	krank	1	acq_USpleas_CSpleas1_RW	acq4567_RW	4	7	400	1	300	300	404	50	0	1	1	blank2r.bmp	0	1	+	0	1	blank2r.bmp	492	1	JQQJ	492	1	blank2r.bmp	572	2	genießen	866	1	!	1239	1	!	1306	0	0	0	0	0	0	0	0	0	0	0	0	0	0	0	0	0	0	0	0	0	0	0	0	0	0	0	0	0	0
082019	13:57:00	14:02:41	339780	5.0.10.0	5_exp_RW	107	Rpleas_acq	CS_A	JQQJ	YFFY	ZHHZ	DXXD	CPPC	LWWL	sonnig	genießen	träumen	gütig	vertrauen	küssen	sterben	gemein	töten	gierig	versagen	krank	1	acq_USpleas_CSpleas2_RW	acq4567_RW	4	8	400	0	300	300	296	46	0	0	1	blank2r.bmp	0	1	+	0	1	blank2r.bmp	492	1	YFFY	492	1	blank2r.bmp	572	3	küssen	866	1	!	-1	1	!	-1	0	0	0	0	0	0	0	0	0	0	0	0	0	0	0	0	0	0	0	0	0	0	0	0	0	0	0	0	0	0
082019	13:57:00	14:02:43	341939	5.0.10.0	5_exp_RW	107	Rpleas_acq	CS_A	JQQJ	YFFY	ZHHZ	DXXD	CPPC	LWWL	sonnig	genießen	träumen	gütig	vertrauen	küssen	sterben	gemein	töten	gierig	versagen	krank	1	acq_USunple_CSunple1_RW	acq4567_RW	4	9	400	1	300	300	352	46	0	1	1	blank2r.bmp	0	1	+	0	1	blank2r.bmp	492	1	ZHHZ	492	1	blank2r.bmp	572	3	töten	866	1	!	1239	1	!	1252	0	0	0	0	0	0	0	0	0	0	0	0	0	0	0	0	0	0	0	0	0	0	0	0	0	0	0	0	0	0
082019	13:57:00	14:02:45	344018	5.0.10.0	5_exp_RW	107	Rpleas_acq	CS_A	JQQJ	YFFY	ZHHZ	DXXD	CPPC	LWWL	sonnig	genießen	träumen	gütig	vertrauen	küssen	sterben	gemein	töten	gierig	versagen	krank	1	acq_USpleas_CSpleas2_RW	acq4567_RW	4	10	400	0	300	300	302	50	0	1	1	blank2r.bmp	0	1	+	0	1	blank2r.bmp	492	1	YFFY	492	1	blank2r.bmp	572	2	vertrauen	866	1	!	-1	1	!	-1	0	0	0	0	0	0	0	0	0	0	0	0	0	0	0	0	0	0	0	0	0	0	0	0	0	0	0	0	0	0
082019	13:57:00	14:02:47	346124	5.0.10.0	5_exp_RW	107	Rpleas_acq	CS_A	JQQJ	YFFY	ZHHZ	DXXD	CPPC	LWWL	sonnig	genießen	träumen	gütig	vertrauen	küssen	sterben	gemein	töten	gierig	versagen	krank	1	acq_USunple_CSunple2_RW	acq4567_RW	4	11	400	0	300	300	321	50	0	0	1	blank2r.bmp	0	1	+	0	1	blank2r.bmp	492	1	DXXD	492	1	blank2r.bmp	572	2	versagen	866	1	!	-1	1	!	-1	0	0	0	0	0	0	0	0	0	0	0	0	0	0	0	0	0	0	0	0	0	0	0	0	0	0	0	0	0	0
082019	13:57:00	14:02:49	348403	5.0.10.0	5_exp_RW	107	Rpleas_acq	CS_A	JQQJ	YFFY	ZHHZ	DXXD	CPPC	LWWL	sonnig	genießen	träumen	gütig	vertrauen	küssen	sterben	gemein	töten	gierig	versagen	krank	1	acq_USpleas_CSpleas2_RW	acq4567_RW	4	12	400	1	300	300	454	50	0	1	1	blank2r.bmp	0	1	+	0	1	blank2r.bmp	492	1	YFFY	492	1	blank2r.bmp	572	1	gütig	866	1	!	1239	1	!	1359	0	0	0	0	0	0	0	0	0	0	0	0	0	0	0	0	0	0	0	0	0	0	0	0	0	0	0	0	0	0
082019	13:57:00	14:02:51	350482	5.0.10.0	5_exp_RW	107	Rpleas_acq	CS_A	JQQJ	YFFY	ZHHZ	DXXD	CPPC	LWWL	sonnig	genießen	träumen	gütig	vertrauen	küssen	sterben	gemein	töten	gierig	versagen	krank	1	acq_USpleas_CSpleas1_RW	acq4567_RW	4	13	400	0	300	300	308	46	0	0	1	blank2r.bmp	0	1	+	0	1	blank2r.bmp	492	1	JQQJ	492	1	blank2r.bmp	572	3	träumen	866	1	!	-1	1	!	-1	0	0	0	0	0	0	0	0	0	0	0	0	0	0	0	0	0	0	0	0	0	0	0	0	0	0	0	0	0	0
082019	13:57:00	14:02:54	352761	5.0.10.0	5_exp_RW	107	Rpleas_acq	CS_A	JQQJ	YFFY	ZHHZ	DXXD	CPPC	LWWL	sonnig	genießen	träumen	gütig	vertrauen	küssen	sterben	gemein	töten	gierig	versagen	krank	1	acq_USunple_CSunple2_RW	acq4567_RW	4	14	400	0	300	300	497	50	0	0	1	blank2r.bmp	0	1	+	0	1	blank2r.bmp	492	1	DXXD	492	1	blank2r.bmp	572	1	gierig	866	1	!	1239	1	!	-1	0	0	0	0	0	0	0	0	0	0	0	0	0	0	0	0	0	0	0	0	0	0	0	0	0	0	0	0	0	0
082019	13:57:00	14:02:56	354947	5.0.10.0	5_exp_RW	107	Rpleas_acq	CS_A	JQQJ	YFFY	ZHHZ	DXXD	CPPC	LWWL	sonnig	genießen	träumen	gütig	vertrauen	küssen	sterben	gemein	töten	gierig	versagen	krank	1	acq_USpleas_CSpleas1_RW	acq4567_RW	4	15	400	1	300	300	373	50	0	1	1	blank2r.bmp	0	1	+	0	1	blank2r.bmp	492	1	JQQJ	492	1	blank2r.bmp	572	1	sonnig	866	1	!	1239	1	!	1279	0	0	0	0	0	0	0	0	0	0	0	0	0	0	0	0	0	0	0	0	0	0	0	0	0	0	0	0	0	0
082019	13:57:00	14:02:58	357160	5.0.10.0	5_exp_RW	107	Rpleas_acq	CS_A	JQQJ	YFFY	ZHHZ	DXXD	CPPC	LWWL	sonnig	genießen	träumen	gütig	vertrauen	küssen	sterben	gemein	töten	gierig	versagen	krank	1	acq_USpleas_CSpleas2_RW	acq4567_RW	4	16	400	1	300	300	423	50	0	1	1	blank2r.bmp	0	1	+	0	1	blank2r.bmp	492	1	YFFY	492	1	blank2r.bmp	572	3	küssen	866	1	!	1239	1	!	1319	0	0	0	0	0	0	0	0	0	0	0	0	0	0	0	0	0	0	0	0	0	0	0	0	0	0	0	0	0	0
082019	13:57:00	14:03:00	359305	5.0.10.0	5_exp_RW	107	Rpleas_acq	CS_A	JQQJ	YFFY	ZHHZ	DXXD	CPPC	LWWL	sonnig	genießen	träumen	gütig	vertrauen	küssen	sterben	gemein	töten	gierig	versagen	krank	1	acq_USunple_CSunple1_RW	acq4567_RW	4	17	400	1	300	300	346	46	0	1	1	blank2r.bmp	0	1	+	0	1	blank2r.bmp	492	1	ZHHZ	492	1	blank2r.bmp	572	2	gemein	866	1	!	1239	1	!	1252	0	0	0	0	0	0	0	0	0	0	0	0	0	0	0	0	0	0	0	0	0	0	0	0	0	0	0	0	0	0
082019	13:57:00	14:03:02	361504	5.0.10.0	5_exp_RW	107	Rpleas_acq	CS_A	JQQJ	YFFY	ZHHZ	DXXD	CPPC	LWWL	sonnig	genießen	träumen	gütig	vertrauen	küssen	sterben	gemein	töten	gierig	versagen	krank	1	acq_USunple_CSunple1_RW	acq4567_RW	4	18	400	1	300	300	409	46	0	1	1	blank2r.bmp	0	1	+	0	1	blank2r.bmp	492	1	ZHHZ	492	1	blank2r.bmp	572	1	sterben	866	1	!	1239	1	!	1306	0	0	0	0	0	0	0	0	0	0	0	0	0	0	0	0	0	0	0	0	0	0	0	0	0	0	0	0	0	0
082019	13:57:00	14:03:05	363704	5.0.10.0	5_exp_RW	107	Rpleas_acq	CS_A	JQQJ	YFFY	ZHHZ	DXXD	CPPC	LWWL	sonnig	genießen	träumen	gütig	vertrauen	küssen	sterben	gemein	töten	gierig	versagen	krank	1	acq_USunple_CSunple2_RW	acq4567_RW	4	19	400	1	300	300	407	46	0	1	1	blank2r.bmp	0	1	+	0	1	blank2r.bmp	492	1	DXXD	492	1	blank2r.bmp	572	3	krank	866	1	!	1239	1	!	1306	0	0	0	0	0	0	0	0	0	0	0	0	0	0	0	0	0	0	0	0	0	0	0	0	0	0	0	0	0	0
082019	13:57:00	14:03:07	365849	5.0.10.0	5_exp_RW	107	Rpleas_acq	CS_A	JQQJ	YFFY	ZHHZ	DXXD	CPPC	LWWL	sonnig	genießen	träumen	gütig	vertrauen	küssen	sterben	gemein	töten	gierig	versagen	krank	1	acq_USpleas_CSpleas2_RW	acq4567_RW	4	20	400	1	300	300	347	50	0	1	1	blank2r.bmp	0	1	+	0	1	blank2r.bmp	492	1	YFFY	492	1	blank2r.bmp	572	2	vertrauen	866	1	!	1239	1	!	1252	0	0	0	0	0	0	0	0	0	0	0	0	0	0	0	0	0	0	0	0	0	0	0	0	0	0	0	0	0	0
082019	13:57:00	14:03:09	368115	5.0.10.0	5_exp_RW	107	Rpleas_acq	CS_A	JQQJ	YFFY	ZHHZ	DXXD	CPPC	LWWL	sonnig	genießen	träumen	gütig	vertrauen	küssen	sterben	gemein	töten	gierig	versagen	krank	1	acq_USpleas_CSpleas2_RW	acq4567_RW	4	21	400	0	300	300	498	50	0	1	1	blank2r.bmp	0	1	+	0	1	blank2r.bmp	492	1	YFFY	492	1	blank2r.bmp	572	2	vertrauen	866	1	!	1239	1	!	-1	0	0	0	0	0	0	0	0	0	0	0	0	0	0	0	0	0	0	0	0	0	0	0	0	0	0	0	0	0	0
082019	13:57:00	14:03:11	370221	5.0.10.0	5_exp_RW	107	Rpleas_acq	CS_A	JQQJ	YFFY	ZHHZ	DXXD	CPPC	LWWL	sonnig	genießen	träumen	gütig	vertrauen	küssen	sterben	gemein	töten	gierig	versagen	krank	1	acq_USpleas_CSpleas1_RW	acq4567_RW	4	22	400	0	300	300	327	46	0	0	1	blank2r.bmp	0	1	+	0	1	blank2r.bmp	492	1	JQQJ	492	1	blank2r.bmp	572	1	sonnig	866	1	!	-1	1	!	-1	0	0	0	0	0	0	0	0	0	0	0	0	0	0	0	0	0	0	0	0	0	0	0	0	0	0	0	0	0	0
082019	13:57:00	14:03:13	372500	5.0.10.0	5_exp_RW	107	Rpleas_acq	CS_A	JQQJ	YFFY	ZHHZ	DXXD	CPPC	LWWL	sonnig	genießen	träumen	gütig	vertrauen	küssen	sterben	gemein	töten	gierig	versagen	krank	1	acq_USunple_CSunple1_RW	acq4567_RW	4	23	400	0	300	300	500	46	0	1	1	blank2r.bmp	0	1	+	0	1	blank2r.bmp	492	1	ZHHZ	492	1	blank2r.bmp	572	1	sterben	866	1	!	1239	1	!	-1	0	0	0	0	0	0	0	0	0	0	0	0	0	0	0	0	0	0	0	0	0	0	0	0	0	0	0	0	0	0
082019	13:57:00	14:03:15	374579	5.0.10.0	5_exp_RW	107	Rpleas_acq	CS_A	JQQJ	YFFY	ZHHZ	DXXD	CPPC	LWWL	sonnig	genießen	träumen	gütig	vertrauen	küssen	sterben	gemein	töten	gierig	versagen	krank	1	acq_USunple_CSunple2_RW	acq4567_RW	4	24	400	0	300	300	300	50	0	0	1	blank2r.bmp	0	1	+	0	1	blank2r.bmp	492	1	DXXD	492	1	blank2r.bmp	572	2	versagen	866	1	!	-1	1	!	-1	0	0	0	0	0	0	0	0	0	0	0	0	0	0	0	0	0	0	0	0	0	0	0	0	0	0	0	0	0	0
082019	13:57:00	14:03:18	376738	5.0.10.0	5_exp_RW	107	Rpleas_acq	CS_A	JQQJ	YFFY	ZHHZ	DXXD	CPPC	LWWL	sonnig	genießen	träumen	gütig	vertrauen	küssen	sterben	gemein	töten	gierig	versagen	krank	1	acq_USunple_CSunple1_RW	acq4567_RW	4	25	400	1	300	300	346	50	0	0	1	blank2r.bmp	0	1	+	0	1	blank2r.bmp	492	1	ZHHZ	492	1	blank2r.bmp	572	3	töten	866	1	!	1239	1	!	1252	0	0	0	0	0	0	0	0	0	0	0	0	0	0	0	0	0	0	0	0	0	0	0	0	0	0	0	0	0	0
082019	13:57:00	14:03:20	379071	5.0.10.0	5_exp_RW	107	Rpleas_acq	CS_A	JQQJ	YFFY	ZHHZ	DXXD	CPPC	LWWL	sonnig	genießen	träumen	gütig	vertrauen	küssen	sterben	gemein	töten	gierig	versagen	krank	1	acq_USpleas_CSpleas2_RW	acq4567_RW	4	26	400	0	300	300	567	50	0	1	1	blank2r.bmp	0	1	+	0	1	blank2r.bmp	492	1	YFFY	492	1	blank2r.bmp	572	1	gütig	866	1	!	1239	1	!	-1	0	0	0	0	0	0	0	0	0	0	0	0	0	0	0	0	0	0	0	0	0	0	0	0	0	0	0	0	0	0
082019	13:57:00	14:03:22	381350	5.0.10.0	5_exp_RW	107	Rpleas_acq	CS_A	JQQJ	YFFY	ZHHZ	DXXD	CPPC	LWWL	sonnig	genießen	träumen	gütig	vertrauen	küssen	sterben	gemein	töten	gierig	versagen	krank	1	acq_USpleas_CSpleas1_RW	acq4567_RW	4	27	400	1	300	300	461	50	0	1	1	blank2r.bmp	0	1	+	0	1	blank2r.bmp	492	1	JQQJ	492	1	blank2r.bmp	572	3	träumen	866	1	!	1239	1	!	1359	0	0	0	0	0	0	0	0	0	0	0	0	0	0	0	0	0	0	0	0	0	0	0	0	0	0	0	0	0	0
082019	13:57:00	14:03:24	383562	5.0.10.0	5_exp_RW	107	Rpleas_acq	CS_A	JQQJ	YFFY	ZHHZ	DXXD	CPPC	LWWL	sonnig	genießen	träumen	gütig	vertrauen	küssen	sterben	gemein	töten	gierig	versagen	krank	1	acq_USunple_CSunple2_RW	acq4567_RW	4	28	400	1	300	300	415	46	0	1	1	blank2r.bmp	0	1	+	0	1	blank2r.bmp	492	1	DXXD	492	1	blank2r.bmp	572	1	gierig	866	1	!	1239	1	!	1319	0	0	0	0	0	0	0	0	0	0	0	0	0	0	0	0	0	0	0	0	0	0	0	0	0	0	0	0	0	0
082019	13:57:00	14:03:27	385708	5.0.10.0	5_exp_RW	107	Rpleas_acq	CS_A	JQQJ	YFFY	ZHHZ	DXXD	CPPC	LWWL	sonnig	genießen	träumen	gütig	vertrauen	küssen	sterben	gemein	töten	gierig	versagen	krank	1	acq_USunple_CSunple1_RW	acq4567_RW	4	29	400	1	300	300	347	46	0	1	1	blank2r.bmp	0	1	+	0	1	blank2r.bmp	492	1	ZHHZ	492	1	blank2r.bmp	572	2	gemein	866	1	!	1239	1	!	1252	0	0	0	0	0	0	0	0	0	0	0	0	0	0	0	0	0	0	0	0	0	0	0	0	0	0	0	0	0	0
082019	13:57:00	14:03:29	387867	5.0.10.0	5_exp_RW	107	Rpleas_acq	CS_A	JQQJ	YFFY	ZHHZ	DXXD	CPPC	LWWL	sonnig	genießen	träumen	gütig	vertrauen	küssen	sterben	gemein	töten	gierig	versagen	krank	1	acq_USpleas_CSpleas2_RW	acq4567_RW	4	30	400	1	300	300	369	50	0	1	1	blank2r.bmp	0	1	+	0	1	blank2r.bmp	492	1	YFFY	492	1	blank2r.bmp	572	3	küssen	866	1	!	1239	1	!	1266	0	0	0	0	0	0	0	0	0	0	0	0	0	0	0	0	0	0	0	0	0	0	0	0	0	0	0	0	0	0
082019	13:57:00	14:03:31	390026	5.0.10.0	5_exp_RW	107	Rpleas_acq	CS_A	JQQJ	YFFY	ZHHZ	DXXD	CPPC	LWWL	sonnig	genießen	träumen	gütig	vertrauen	küssen	sterben	gemein	töten	gierig	versagen	krank	1	acq_USunple_CSunple2_RW	acq4567_RW	4	31	400	1	300	300	355	46	0	1	1	blank2r.bmp	0	1	+	0	1	blank2r.bmp	492	1	DXXD	492	1	blank2r.bmp	572	3	krank	866	1	!	1239	1	!	1252	0	0	0	0	0	0	0	0	0	0	0	0	0	0	0	0	0	0	0	0	0	0	0	0	0	0	0	0	0	0
082019	13:57:00	14:03:33	392212	5.0.10.0	5_exp_RW	107	Rpleas_acq	CS_A	JQQJ	YFFY	ZHHZ	DXXD	CPPC	LWWL	sonnig	genießen	träumen	gütig	vertrauen	küssen	sterben	gemein	töten	gierig	versagen	krank	1	acq_USunple_CSunple2_RW	acq4567_RW	4	32	400	1	300	300	393	50	0	0	1	blank2r.bmp	0	1	+	0	1	blank2r.bmp	492	1	DXXD	492	1	blank2r.bmp	572	1	gierig	866	1	!	1239	1	!	1292	0	0	0	0	0	0	0	0	0	0	0	0	0	0	0	0	0	0	0	0	0	0	0	0	0	0	0	0	0	0
082019	13:57:00	14:03:35	394371	5.0.10.0	5_exp_RW	107	Rpleas_acq	CS_A	JQQJ	YFFY	ZHHZ	DXXD	CPPC	LWWL	sonnig	genießen	träumen	gütig	vertrauen	küssen	sterben	gemein	töten	gierig	versagen	krank	1	acq_USunple_CSunple2_RW	acq4567_RW	4	33	400	1	300	300	365	50	0	0	1	blank2r.bmp	0	1	+	0	1	blank2r.bmp	492	1	DXXD	492	1	blank2r.bmp	572	2	versagen	866	1	!	1239	1	!	1266	0	0	0	0	0	0	0	0	0	0	0	0	0	0	0	0	0	0	0	0	0	0	0	0	0	0	0	0	0	0
082019	13:57:00	14:03:37	396410	5.0.10.0	5_exp_RW	107	Rpleas_acq	CS_A	JQQJ	YFFY	ZHHZ	DXXD	CPPC	LWWL	sonnig	genießen	träumen	gütig	vertrauen	küssen	sterben	gemein	töten	gierig	versagen	krank	1	acq_USpleas_CSpleas1_RW	acq4567_RW	4	34	400	0	300	300	257	50	0	1	1	blank2r.bmp	0	1	+	0	1	blank2r.bmp	492	1	JQQJ	492	1	blank2r.bmp	572	2	genießen	866	1	!	-1	1	!	-1	0	0	0	0	0	0	0	0	0	0	0	0	0	0	0	0	0	0	0	0	0	0	0	0	0	0	0	0	0	0
082019	13:57:00	14:03:39	398569	5.0.10.0	5_exp_RW	107	Rpleas_acq	CS_A	JQQJ	YFFY	ZHHZ	DXXD	CPPC	LWWL	sonnig	genießen	träumen	gütig	vertrauen	küssen	sterben	gemein	töten	gierig	versagen	krank	1	acq_USpleas_CSpleas1_RW	acq4567_RW	4	35	400	1	300	300	350	50	0	1	1	blank2r.bmp	0	1	+	0	1	blank2r.bmp	492	1	JQQJ	492	1	blank2r.bmp	572	1	sonnig	866	1	!	1239	1	!	1252	0	0	0	0	0	0	0	0	0	0	0	0	0	0	0	0	0	0	0	0	0	0	0	0	0	0	0	0	0	0
082019	13:57:00	14:03:42	400742	5.0.10.0	5_exp_RW	107	Rpleas_acq	CS_A	JQQJ	YFFY	ZHHZ	DXXD	CPPC	LWWL	sonnig	genießen	träumen	gütig	vertrauen	küssen	sterben	gemein	töten	gierig	versagen	krank	1	acq_USpleas_CSpleas1_RW	acq4567_RW	4	36	400	1	300	300	383	46	0	0	1	blank2r.bmp	0	1	+	0	1	blank2r.bmp	492	1	JQQJ	492	1	blank2r.bmp	572	2	genießen	866	1	!	1239	1	!	1279	0	0	0	0	0	0	0	0	0	0	0	0	0	0	0	0	0	0	0	0	0	0	0	0	0	0	0	0	0	0
082019	13:57:00	14:03:44	402661	5.0.10.0	5_exp_RW	107	Rpleas_acq	CS_A	JQQJ	YFFY	ZHHZ	DXXD	CPPC	LWWL	sonnig	genießen	träumen	gütig	vertrauen	küssen	sterben	gemein	töten	gierig	versagen	krank	1	acq_USpleas_CSpleas2_RW	acq4567_RW	4	37	400	0	300	300	155	50	0	1	1	blank2r.bmp	0	1	+	0	1	blank2r.bmp	492	1	YFFY	492	1	blank2r.bmp	572	3	küssen	866	1	!	-1	1	!	-1	0	0	0	0	0	0	0	0	0	0	0	0	0	0	0	0	0	0	0	0	0	0	0	0	0	0	0	0	0	0
082019	13:57:00	14:03:46	404660	5.0.10.0	5_exp_RW	107	Rpleas_acq	CS_A	JQQJ	YFFY	ZHHZ	DXXD	CPPC	LWWL	sonnig	genießen	träumen	gütig	vertrauen	küssen	sterben	gemein	töten	gierig	versagen	krank	1	acq_USunple_CSunple1_RW	acq4567_RW	4	38	400	0	300	300	215	50	0	0	1	blank2r.bmp	0	1	+	0	1	blank2r.bmp	492	1	ZHHZ	492	1	blank2r.bmp	572	3	töten	866	1	!	-1	1	!	-1	0	0	0	0	0	0	0	0	0	0	0	0	0	0	0	0	0	0	0	0	0	0	0	0	0	0	0	0	0	0
082019	13:57:00	14:03:48	406833	5.0.10.0	5_exp_RW	107	Rpleas_acq	CS_A	JQQJ	YFFY	ZHHZ	DXXD	CPPC	LWWL	sonnig	genießen	träumen	gütig	vertrauen	küssen	sterben	gemein	töten	gierig	versagen	krank	1	acq_USpleas_CSpleas2_RW	acq4567_RW	4	39	400	1	300	300	362	50	0	1	1	blank2r.bmp	0	1	+	0	1	blank2r.bmp	492	1	YFFY	492	1	blank2r.bmp	572	2	vertrauen	866	1	!	1239	1	!	1266	0	0	0	0	0	0	0	0	0	0	0	0	0	0	0	0	0	0	0	0	0	0	0	0	0	0	0	0	0	0
082019	13:57:00	14:03:50	408992	5.0.10.0	5_exp_RW	107	Rpleas_acq	CS_A	JQQJ	YFFY	ZHHZ	DXXD	CPPC	LWWL	sonnig	genießen	träumen	gütig	vertrauen	küssen	sterben	gemein	töten	gierig	versagen	krank	1	acq_USunple_CSunple1_RW	acq4567_RW	4	40	400	1	300	300	360	50	0	0	1	blank2r.bmp	0	1	+	0	1	blank2r.bmp	492	1	ZHHZ	492	1	blank2r.bmp	572	2	gemein	866	1	!	1239	1	!	1266	0	0	0	0	0	0	0	0	0	0	0	0	0	0	0	0	0	0	0	0	0	0	0	0	0	0	0	0	0	0
082019	13:57:00	14:03:52	410938	5.0.10.0	5_exp_RW	107	Rpleas_acq	CS_A	JQQJ	YFFY	ZHHZ	DXXD	CPPC	LWWL	sonnig	genießen	träumen	gütig	vertrauen	küssen	sterben	gemein	töten	gierig	versagen	krank	1	acq_USpleas_CSpleas1_RW	acq4567_RW	4	41	400	0	300	300	184	46	0	0	1	blank2r.bmp	0	1	+	0	1	blank2r.bmp	492	1	JQQJ	492	1	blank2r.bmp	572	3	träumen	866	1	!	-1	1	!	-1	0	0	0	0	0	0	0	0	0	0	0	0	0	0	0	0	0	0	0	0	0	0	0	0	0	0	0	0	0	0
082019	13:57:00	14:03:54	412963	5.0.10.0	5_exp_RW	107	Rpleas_acq	CS_A	JQQJ	YFFY	ZHHZ	DXXD	CPPC	LWWL	sonnig	genießen	träumen	gütig	vertrauen	küssen	sterben	gemein	töten	gierig	versagen	krank	1	acq_USpleas_CSpleas1_RW	acq4567_RW	4	42	400	0	300	300	247	50	0	1	1	blank2r.bmp	0	1	+	0	1	blank2r.bmp	492	1	JQQJ	492	1	blank2r.bmp	572	2	genießen	866	1	!	-1	1	!	-1	0	0	0	0	0	0	0	0	0	0	0	0	0	0	0	0	0	0	0	0	0	0	0	0	0	0	0	0	0	0
082019	13:57:00	14:03:56	415149	5.0.10.0	5_exp_RW	107	Rpleas_acq	CS_A	JQQJ	YFFY	ZHHZ	DXXD	CPPC	LWWL	sonnig	genießen	träumen	gütig	vertrauen	küssen	sterben	gemein	töten	gierig	versagen	krank	1	acq_USpleas_CSpleas1_RW	acq4567_RW	4	43	400	1	300	300	381	50	0	1	1	blank2r.bmp	0	1	+	0	1	blank2r.bmp	492	1	JQQJ	492	1	blank2r.bmp	572	3	träumen	866	1	!	1239	1	!	1279	0	0	0	0	0	0	0	0	0	0	0	0	0	0	0	0	0	0	0	0	0	0	0	0	0	0	0	0	0	0
082019	13:57:00	14:03:58	417242	5.0.10.0	5_exp_RW	107	Rpleas_acq	CS_A	JQQJ	YFFY	ZHHZ	DXXD	CPPC	LWWL	sonnig	genießen	träumen	gütig	vertrauen	küssen	sterben	gemein	töten	gierig	versagen	krank	1	acq_USunple_CSunple1_RW	acq4567_RW	4	44	400	0	300	300	313	50	0	0	1	blank2r.bmp	0	1	+	0	1	blank2r.bmp	492	1	ZHHZ	492	1	blank2r.bmp	572	1	sterben	866	1	!	-1	1	!	-1	0	0	0	0	0	0	0	0	0	0	0	0	0	0	0	0	0	0	0	0	0	0	0	0	0	0	0	0	0	0
082019	13:57:00	14:04:00	419281	5.0.10.0	5_exp_RW	107	Rpleas_acq	CS_A	JQQJ	YFFY	ZHHZ	DXXD	CPPC	LWWL	sonnig	genießen	träumen	gütig	vertrauen	küssen	sterben	gemein	töten	gierig	versagen	krank	1	acq_USunple_CSunple2_RW	acq4567_RW	4	45	400	0	300	300	264	46	0	1	1	blank2r.bmp	0	1	+	0	1	blank2r.bmp	492	1	DXXD	492	1	blank2r.bmp	572	3	krank	866	1	!	-1	1	!	-1	0	0	0	0	0	0	0	0	0	0	0	0	0	0	0	0	0	0	0	0	0	0	0	0	0	0	0	0	0	0
082019	13:57:00	14:04:02	421347	5.0.10.0	5_exp_RW	107	Rpleas_acq	CS_A	JQQJ	YFFY	ZHHZ	DXXD	CPPC	LWWL	sonnig	genießen	träumen	gütig	vertrauen	küssen	sterben	gemein	töten	gierig	versagen	krank	1	acq_USunple_CSunple2_RW	acq4567_RW	4	46	400	0	300	300	290	50	0	0	1	blank2r.bmp	0	1	+	0	1	blank2r.bmp	492	1	DXXD	492	1	blank2r.bmp	572	3	krank	866	1	!	-1	1	!	-1	0	0	0	0	0	0	0	0	0	0	0	0	0	0	0	0	0	0	0	0	0	0	0	0	0	0	0	0	0	0
082019	13:57:00	14:04:04	423639	5.0.10.0	5_exp_RW	107	Rpleas_acq	CS_A	JQQJ	YFFY	ZHHZ	DXXD	CPPC	LWWL	sonnig	genießen	träumen	gütig	vertrauen	küssen	sterben	gemein	töten	gierig	versagen	krank	1	acq_USunple_CSunple1_RW	acq4567_RW	4	47	400	0	300	300	493	46	0	1	1	blank2r.bmp	0	1	+	0	1	blank2r.bmp	492	1	ZHHZ	492	1	blank2r.bmp	572	2	gemein	866	1	!	1239	1	!	-1	0	0	0	0	0	0	0	0	0	0	0	0	0	0	0	0	0	0	0	0	0	0	0	0	0	0	0	0	0	0
082019	13:57:00	14:04:07	425678	5.0.10.0	5_exp_RW	107	Rpleas_acq	CS_A	JQQJ	YFFY	ZHHZ	DXXD	CPPC	LWWL	sonnig	genießen	träumen	gütig	vertrauen	küssen	sterben	gemein	töten	gierig	versagen	krank	1	acq_USpleas_CSpleas2_RW	acq4567_RW	4	48	400	0	300	300	238	50	0	1	1	blank2r.bmp	0	1	+	0	1	blank2r.bmp	492	1	YFFY	492	1	blank2r.bmp	572	1	gütig	866	1	!	-1	1	!	-1	0	0	0	0	0	0	0	0	0	0	0	0	0	0	0	0	0	0	0	0	0	0	0	0	0	0	0	0	0	0
082019	13:57:00	14:04:09	427864	5.0.10.0	5_exp_RW	107	Rpleas_acq	CS_A	JQQJ	YFFY	ZHHZ	DXXD	CPPC	LWWL	sonnig	genießen	träumen	gütig	vertrauen	küssen	sterben	gemein	töten	gierig	versagen	krank	1	acq_USpleas_CSpleas1_RW	acq4567_RW	4	49	400	1	300	300	380	50	0	1	1	blank2r.bmp	0	1	+	0	1	blank2r.bmp	492	1	JQQJ	492	1	blank2r.bmp	572	1	sonnig	866	1	!	1239	1	!	1279	0	0	0	0	0	0	0	0	0	0	0	0	0	0	0	0	0	0	0	0	0	0	0	0	0	0	0	0	0	0
082019	13:57:00	14:04:11	430023	5.0.10.0	5_exp_RW	107	Rpleas_acq	CS_A	JQQJ	YFFY	ZHHZ	DXXD	CPPC	LWWL	sonnig	genießen	träumen	gütig	vertrauen	küssen	sterben	gemein	töten	gierig	versagen	krank	1	acq_USpleas_CSpleas2_RW	acq4567_RW	4	50	400	1	300	300	346	50	0	1	1	blank2r.bmp	0	1	+	0	1	blank2r.bmp	492	1	YFFY	492	1	blank2r.bmp	572	1	gütig	866	1	!	1239	1	!	1252	0	0	0	0	0	0	0	0	0	0	0	0	0	0	0	0	0	0	0	0	0	0	0	0	0	0	0	0	0	0
082019	13:57:00	14:04:13	432169	5.0.10.0	5_exp_RW	107	Rpleas_acq	CS_A	JQQJ	YFFY	ZHHZ	DXXD	CPPC	LWWL	sonnig	genießen	träumen	gütig	vertrauen	küssen	sterben	gemein	töten	gierig	versagen	krank	1	acq_USunple_CSunple2_RW	acq4567_RW	4	51	400	1	300	300	346	50	0	0	1	blank2r.bmp	0	1	+	0	1	blank2r.bmp	492	1	DXXD	492	1	blank2r.bmp	572	1	gierig	866	1	!	1239	1	!	1252	0	0	0	0	0	0	0	0	0	0	0	0	0	0	0	0	0	0	0	0	0	0	0	0	0	0	0	0	0	0
082019	13:57:00	14:04:15	434275	5.0.10.0	5_exp_RW	107	Rpleas_acq	CS_A	JQQJ	YFFY	ZHHZ	DXXD	CPPC	LWWL	sonnig	genießen	träumen	gütig	vertrauen	küssen	sterben	gemein	töten	gierig	versagen	krank	1	acq_USunple_CSunple1_RW	acq4567_RW	4	52	400	0	300	300	331	50	0	0	1	blank2r.bmp	0	1	+	0	1	blank2r.bmp	492	1	ZHHZ	492	1	blank2r.bmp	572	3	töten	866	1	!	-1	1	!	-1	0	0	0	0	0	0	0	0	0	0	0	0	0	0	0	0	0	0	0	0	0	0	0	0	0	0	0	0	0	0
082019	13:57:00	14:04:17	436500	5.0.10.0	5_exp_RW	107	Rpleas_acq	CS_A	JQQJ	YFFY	ZHHZ	DXXD	CPPC	LWWL	sonnig	genießen	träumen	gütig	vertrauen	küssen	sterben	gemein	töten	gierig	versagen	krank	1	acq_USpleas_CSpleas2_RW	acq4567_RW	4	53	400	1	300	300	413	50	0	1	1	blank2r.bmp	0	1	+	0	1	blank2r.bmp	492	1	YFFY	492	1	blank2r.bmp	572	3	küssen	866	1	!	1239	1	!	1319	0	0	0	0	0	0	0	0	0	0	0	0	0	0	0	0	0	0	0	0	0	0	0	0	0	0	0	0	0	0
082019	13:57:00	14:04:20	438646	5.0.10.0	5_exp_RW	107	Rpleas_acq	CS_A	JQQJ	YFFY	ZHHZ	DXXD	CPPC	LWWL	sonnig	genießen	träumen	gütig	vertrauen	küssen	sterben	gemein	töten	gierig	versagen	krank	1	acq_USpleas_CSpleas2_RW	acq4567_RW	4	54	400	1	300	300	346	50	0	1	1	blank2r.bmp	0	1	+	0	1	blank2r.bmp	492	1	YFFY	492	1	blank2r.bmp	572	2	vertrauen	866	1	!	1239	1	!	1252	0	0	0	0	0	0	0	0	0	0	0	0	0	0	0	0	0	0	0	0	0	0	0	0	0	0	0	0	0	0
082019	13:57:00	14:04:22	440845	5.0.10.0	5_exp_RW	107	Rpleas_acq	CS_A	JQQJ	YFFY	ZHHZ	DXXD	CPPC	LWWL	sonnig	genießen	träumen	gütig	vertrauen	küssen	sterben	gemein	töten	gierig	versagen	krank	1	acq_USunple_CSunple1_RW	acq4567_RW	4	55	400	1	300	300	410	46	0	1	1	blank2r.bmp	0	1	+	0	1	blank2r.bmp	492	1	ZHHZ	492	1	blank2r.bmp	572	1	sterben	866	1	!	1239	1	!	1306	0	0	0	0	0	0	0	0	0	0	0	0	0	0	0	0	0	0	0	0	0	0	0	0	0	0	0	0	0	0
082019	13:57:00	14:04:24	442911	5.0.10.0	5_exp_RW	107	Rpleas_acq	CS_A	JQQJ	YFFY	ZHHZ	DXXD	CPPC	LWWL	sonnig	genießen	träumen	gütig	vertrauen	küssen	sterben	gemein	töten	gierig	versagen	krank	1	acq_USpleas_CSpleas1_RW	acq4567_RW	4	56	400	0	300	300	304	50	0	1	1	blank2r.bmp	0	1	+	0	1	blank2r.bmp	492	1	JQQJ	492	1	blank2r.bmp	572	1	sonnig	866	1	!	-1	1	!	-1	0	0	0	0	0	0	0	0	0	0	0	0	0	0	0	0	0	0	0	0	0	0	0	0	0	0	0	0	0	0
082019	13:57:00	14:04:26	445124	5.0.10.0	5_exp_RW	107	Rpleas_acq	CS_A	JQQJ	YFFY	ZHHZ	DXXD	CPPC	LWWL	sonnig	genießen	träumen	gütig	vertrauen	küssen	sterben	gemein	töten	gierig	versagen	krank	1	acq_USpleas_CSpleas2_RW	acq4567_RW	4	57	400	1	300	300	402	50	0	1	1	blank2r.bmp	0	1	+	0	1	blank2r.bmp	492	1	YFFY	492	1	blank2r.bmp	572	2	vertrauen	866	1	!	1239	1	!	1306	0	0	0	0	0	0	0	0	0	0	0	0	0	0	0	0	0	0	0	0	0	0	0	0	0	0	0	0	0	0
082019	13:57:00	14:04:28	447416	5.0.10.0	5_exp_RW	107	Rpleas_acq	CS_A	JQQJ	YFFY	ZHHZ	DXXD	CPPC	LWWL	sonnig	genießen	träumen	gütig	vertrauen	küssen	sterben	gemein	töten	gierig	versagen	krank	1	acq_USunple_CSunple2_RW	acq4567_RW	4	58	400	0	300	300	527	50	0	0	1	blank2r.bmp	0	1	+	0	1	blank2r.bmp	492	1	DXXD	492	1	blank2r.bmp	572	2	versagen	866	1	!	1239	1	!	-1	0	0	0	0	0	0	0	0	0	0	0	0	0	0	0	0	0	0	0	0	0	0	0	0	0	0	0	0	0	0
082019	13:57:00	14:04:31	449735	5.0.10.0	5_exp_RW	107	Rpleas_acq	CS_A	JQQJ	YFFY	ZHHZ	DXXD	CPPC	LWWL	sonnig	genießen	träumen	gütig	vertrauen	küssen	sterben	gemein	töten	gierig	versagen	krank	1	acq_USunple_CSunple1_RW	acq4567_RW	4	59	400	0	300	300	535	46	0	1	1	blank2r.bmp	0	1	+	0	1	blank2r.bmp	492	1	ZHHZ	492	1	blank2r.bmp	572	2	gemein	866	1	!	1239	1	!	-1	0	0	0	0	0	0	0	0	0	0	0	0	0	0	0	0	0	0	0	0	0	0	0	0	0	0	0	0	0	0
082019	13:57:00	14:04:33	451921	5.0.10.0	5_exp_RW	107	Rpleas_acq	CS_A	JQQJ	YFFY	ZHHZ	DXXD	CPPC	LWWL	sonnig	genießen	träumen	gütig	vertrauen	küssen	sterben	gemein	töten	gierig	versagen	krank	1	acq_USunple_CSunple2_RW	acq4567_RW	4	60	400	1	300	300	382	46	0	1	1	blank2r.bmp	0	1	+	0	1	blank2r.bmp	492	1	DXXD	492	1	blank2r.bmp	572	1	gierig	866	1	!	1239	1	!	1279	0	0	0	0	0	0	0	0	0	0	0	0	0	0	0	0	0	0	0	0	0	0	0	0	0	0	0	0	0	0
082019	13:57:00	14:04:35	454120	5.0.10.0	5_exp_RW	107	Rpleas_acq	CS_A	JQQJ	YFFY	ZHHZ	DXXD	CPPC	LWWL	sonnig	genießen	träumen	gütig	vertrauen	küssen	sterben	gemein	töten	gierig	versagen	krank	1	acq_USpleas_CSpleas2_RW	acq4567_RW	4	61	400	1	300	300	409	46	0	0	1	blank2r.bmp	0	1	+	0	1	blank2r.bmp	492	1	YFFY	492	1	blank2r.bmp	572	1	gütig	866	1	!	1239	1	!	1306	0	0	0	0	0	0	0	0	0	0	0	0	0	0	0	0	0	0	0	0	0	0	0	0	0	0	0	0	0	0
082019	13:57:00	14:04:37	456226	5.0.10.0	5_exp_RW	107	Rpleas_acq	CS_A	JQQJ	YFFY	ZHHZ	DXXD	CPPC	LWWL	sonnig	genießen	träumen	gütig	vertrauen	küssen	sterben	gemein	töten	gierig	versagen	krank	1	acq_USpleas_CSpleas1_RW	acq4567_RW	4	62	400	0	300	300	332	50	0	1	1	blank2r.bmp	0	1	+	0	1	blank2r.bmp	492	1	JQQJ	492	1	blank2r.bmp	572	3	träumen	866	1	!	-1	1	!	-1	0	0	0	0	0	0	0	0	0	0	0	0	0	0	0	0	0	0	0	0	0	0	0	0	0	0	0	0	0	0
082019	13:57:00	14:04:39	458385	5.0.10.0	5_exp_RW	107	Rpleas_acq	CS_A	JQQJ	YFFY	ZHHZ	DXXD	CPPC	LWWL	sonnig	genießen	träumen	gütig	vertrauen	küssen	sterben	gemein	töten	gierig	versagen	krank	1	acq_USunple_CSunple2_RW	acq4567_RW	4	63	400	1	300	300	358	46	0	1	1	blank2r.bmp	0	1	+	0	1	blank2r.bmp	492	1	DXXD	492	1	blank2r.bmp	572	3	krank	866	1	!	1239	1	!	1252	0	0	0	0	0	0	0	0	0	0	0	0	0	0	0	0	0	0	0	0	0	0	0	0	0	0	0	0	0	0
082019	13:57:00	14:04:41	460637	5.0.10.0	5_exp_RW	107	Rpleas_acq	CS_A	JQQJ	YFFY	ZHHZ	DXXD	CPPC	LWWL	sonnig	genießen	träumen	gütig	vertrauen	küssen	sterben	gemein	töten	gierig	versagen	krank	1	acq_USunple_CSunple1_RW	acq4567_RW	4	64	400	1	300	300	461	50	0	0	1	blank2r.bmp	0	1	+	0	1	blank2r.bmp	492	1	ZHHZ	492	1	blank2r.bmp	572	3	töten	866	1	!	1239	1	!	1359	0	0	0	0	0	0	0	0	0	0	0	0	0	0	0	0	0	0	0	0	0	0	0	0	0	0	0	0	0	0
082019	13:57:00	14:04:44	462703	5.0.10.0	5_exp_RW	107	Rpleas_acq	CS_A	JQQJ	YFFY	ZHHZ	DXXD	CPPC	LWWL	sonnig	genießen	träumen	gütig	vertrauen	küssen	sterben	gemein	töten	gierig	versagen	krank	1	acq_USpleas_CSpleas2_RW	acq4567_RW	4	65	400	0	300	300	304	50	0	1	1	blank2r.bmp	0	1	+	0	1	blank2r.bmp	492	1	YFFY	492	1	blank2r.bmp	572	3	küssen	866	1	!	-1	1	!	-1	0	0	0	0	0	0	0	0	0	0	0	0	0	0	0	0	0	0	0	0	0	0	0	0	0	0	0	0	0	0
082019	13:57:00	14:04:46	464902	5.0.10.0	5_exp_RW	107	Rpleas_acq	CS_A	JQQJ	YFFY	ZHHZ	DXXD	CPPC	LWWL	sonnig	genießen	träumen	gütig	vertrauen	küssen	sterben	gemein	töten	gierig	versagen	krank	1	acq_USpleas_CSpleas1_RW	acq4567_RW	4	66	400	1	300	300	396	50	0	1	1	blank2r.bmp	0	1	+	0	1	blank2r.bmp	492	1	JQQJ	492	1	blank2r.bmp	572	2	genießen	866	1	!	1239	1	!	1292	0	0	0	0	0	0	0	0	0	0	0	0	0	0	0	0	0	0	0	0	0	0	0	0	0	0	0	0	0	0
082019	13:57:00	14:04:48	466995	5.0.10.0	5_exp_RW	107	Rpleas_acq	CS_A	JQQJ	YFFY	ZHHZ	DXXD	CPPC	LWWL	sonnig	genießen	träumen	gütig	vertrauen	küssen	sterben	gemein	töten	gierig	versagen	krank	1	acq_USunple_CSunple1_RW	acq4567_RW	4	67	400	0	300	300	331	46	0	1	1	blank2r.bmp	0	1	+	0	1	blank2r.bmp	492	1	ZHHZ	492	1	blank2r.bmp	572	1	sterben	866	1	!	-1	1	!	-1	0	0	0	0	0	0	0	0	0	0	0	0	0	0	0	0	0	0	0	0	0	0	0	0	0	0	0	0	0	0
082019	13:57:00	14:04:50	469167	5.0.10.0	5_exp_RW	107	Rpleas_acq	CS_A	JQQJ	YFFY	ZHHZ	DXXD	CPPC	LWWL	sonnig	genießen	träumen	gütig	vertrauen	küssen	sterben	gemein	töten	gierig	versagen	krank	1	acq_USpleas_CSpleas1_RW	acq4567_RW	4	68	400	1	300	300	360	46	0	0	1	blank2r.bmp	0	1	+	0	1	blank2r.bmp	492	1	JQQJ	492	1	blank2r.bmp	572	2	genießen	866	1	!	1239	1	!	1266	0	0	0	0	0	0	0	0	0	0	0	0	0	0	0	0	0	0	0	0	0	0	0	0	0	0	0	0	0	0
082019	13:57:00	14:04:52	471246	5.0.10.0	5_exp_RW	107	Rpleas_acq	CS_A	JQQJ	YFFY	ZHHZ	DXXD	CPPC	LWWL	sonnig	genießen	träumen	gütig	vertrauen	küssen	sterben	gemein	töten	gierig	versagen	krank	1	acq_USpleas_CSpleas2_RW	acq4567_RW	4	69	400	0	300	300	316	50	0	1	1	blank2r.bmp	0	1	+	0	1	blank2r.bmp	492	1	YFFY	492	1	blank2r.bmp	572	3	küssen	866	1	!	-1	1	!	-1	0	0	0	0	0	0	0	0	0	0	0	0	0	0	0	0	0	0	0	0	0	0	0	0	0	0	0	0	0	0
082019	13:57:00	14:04:55	473712	5.0.10.0	5_exp_RW	107	Rpleas_acq	CS_A	JQQJ	YFFY	ZHHZ	DXXD	CPPC	LWWL	sonnig	genießen	träumen	gütig	vertrauen	küssen	sterben	gemein	töten	gierig	versagen	krank	1	acq_USunple_CSunple2_RW	acq4567_RW	4	70	400	0	300	300	688	50	0	0	1	blank2r.bmp	0	1	+	0	1	blank2r.bmp	492	1	DXXD	492	1	blank2r.bmp	572	2	versagen	866	1	!	1239	1	!	-1	0	0	0	0	0	0	0	0	0	0	0	0	0	0	0	0	0	0	0	0	0	0	0	0	0	0	0	0	0	0
082019	13:57:00	14:04:57	475991	5.0.10.0	5_exp_RW	107	Rpleas_acq	CS_A	JQQJ	YFFY	ZHHZ	DXXD	CPPC	LWWL	sonnig	genießen	träumen	gütig	vertrauen	küssen	sterben	gemein	töten	gierig	versagen	krank	1	acq_USunple_CSunple1_RW	acq4567_RW	4	71	400	1	300	300	466	46	0	1	1	blank2r.bmp	0	1	+	0	1	blank2r.bmp	492	1	ZHHZ	492	1	blank2r.bmp	572	2	gemein	866	1	!	1239	1	!	1372	0	0	0	0	0	0	0	0	0	0	0	0	0	0	0	0	0	0	0	0	0	0	0	0	0	0	0	0	0	0
082019	13:57:00	14:04:59	478163	5.0.10.0	5_exp_RW	107	Rpleas_acq	CS_A	JQQJ	YFFY	ZHHZ	DXXD	CPPC	LWWL	sonnig	genießen	träumen	gütig	vertrauen	küssen	sterben	gemein	töten	gierig	versagen	krank	1	acq_USpleas_CSpleas1_RW	acq4567_RW	4	72	400	1	300	300	385	50	0	1	1	blank2r.bmp	0	1	+	0	1	blank2r.bmp	492	1	JQQJ	492	1	blank2r.bmp	572	1	sonnig	866	1	!	1239	1	!	1279	0	0	0	0	0	0	0	0	0	0	0	0	0	0	0	0	0	0	0	0	0	0	0	0	0	0	0	0	0	0
082019	13:57:00	14:05:01	480416	5.0.10.0	5_exp_RW	107	Rpleas_acq	CS_A	JQQJ	YFFY	ZHHZ	DXXD	CPPC	LWWL	sonnig	genießen	träumen	gütig	vertrauen	küssen	sterben	gemein	töten	gierig	versagen	krank	1	acq_USunple_CSunple2_RW	acq4567_RW	4	73	400	0	300	300	481	46	0	1	1	blank2r.bmp	0	1	+	0	1	blank2r.bmp	492	1	DXXD	492	1	blank2r.bmp	572	3	krank	866	1	!	1239	1	!	-1	0	0	0	0	0	0	0	0	0	0	0	0	0	0	0	0	0	0	0	0	0	0	0	0	0	0	0	0	0	0
082019	13:57:00	14:05:03	482508	5.0.10.0	5_exp_RW	107	Rpleas_acq	CS_A	JQQJ	YFFY	ZHHZ	DXXD	CPPC	LWWL	sonnig	genießen	träumen	gütig	vertrauen	küssen	sterben	gemein	töten	gierig	versagen	krank	1	acq_USunple_CSunple1_RW	acq4567_RW	4	74	400	0	300	300	316	50	0	0	1	blank2r.bmp	0	1	+	0	1	blank2r.bmp	492	1	ZHHZ	492	1	blank2r.bmp	572	1	sterben	866	1	!	-1	1	!	-1	0	0	0	0	0	0	0	0	0	0	0	0	0	0	0	0	0	0	0	0	0	0	0	0	0	0	0	0	0	0
082019	13:57:00	14:05:06	484774	5.0.10.0	5_exp_RW	107	Rpleas_acq	CS_A	JQQJ	YFFY	ZHHZ	DXXD	CPPC	LWWL	sonnig	genießen	träumen	gütig	vertrauen	küssen	sterben	gemein	töten	gierig	versagen	krank	1	acq_USunple_CSunple2_RW	acq4567_RW	4	75	400	1	300	300	464	50	0	0	1	blank2r.bmp	0	1	+	0	1	blank2r.bmp	492	1	DXXD	492	1	blank2r.bmp	572	2	versagen	866	1	!	1239	1	!	1359	0	0	0	0	0	0	0	0	0	0	0	0	0	0	0	0	0	0	0	0	0	0	0	0	0	0	0	0	0	0
082019	13:57:00	14:05:08	486920	5.0.10.0	5_exp_RW	107	Rpleas_acq	CS_A	JQQJ	YFFY	ZHHZ	DXXD	CPPC	LWWL	sonnig	genießen	träumen	gütig	vertrauen	küssen	sterben	gemein	töten	gierig	versagen	krank	1	acq_USunple_CSunple2_RW	acq4567_RW	4	76	400	1	300	300	351	50	0	0	1	blank2r.bmp	0	1	+	0	1	blank2r.bmp	492	1	DXXD	492	1	blank2r.bmp	572	1	gierig	866	1	!	1239	1	!	1252	0	0	0	0	0	0	0	0	0	0	0	0	0	0	0	0	0	0	0	0	0	0	0	0	0	0	0	0	0	0
082019	13:57:00	14:05:10	488919	5.0.10.0	5_exp_RW	107	Rpleas_acq	CS_A	JQQJ	YFFY	ZHHZ	DXXD	CPPC	LWWL	sonnig	genießen	träumen	gütig	vertrauen	küssen	sterben	gemein	töten	gierig	versagen	krank	1	acq_USpleas_CSpleas2_RW	acq4567_RW	4	77	400	0	300	300	232	50	0	1	1	blank2r.bmp	0	1	+	0	1	blank2r.bmp	492	1	YFFY	492	1	blank2r.bmp	572	2	vertrauen	866	1	!	-1	1	!	-1	0	0	0	0	0	0	0	0	0	0	0	0	0	0	0	0	0	0	0	0	0	0	0	0	0	0	0	0	0	0
082019	13:57:00	14:05:12	491118	5.0.10.0	5_exp_RW	107	Rpleas_acq	CS_A	JQQJ	YFFY	ZHHZ	DXXD	CPPC	LWWL	sonnig	genießen	träumen	gütig	vertrauen	küssen	sterben	gemein	töten	gierig	versagen	krank	1	acq_USpleas_CSpleas1_RW	acq4567_RW	4	78	400	1	300	300	388	46	0	0	1	blank2r.bmp	0	1	+	0	1	blank2r.bmp	492	1	JQQJ	492	1	blank2r.bmp	572	3	träumen	866	1	!	1239	1	!	1292	0	0	0	0	0	0	0	0	0	0	0	0	0	0	0	0	0	0	0	0	0	0	0	0	0	0	0	0	0	0
082019	13:57:00	14:05:14	493171	5.0.10.0	5_exp_RW	107	Rpleas_acq	CS_A	JQQJ	YFFY	ZHHZ	DXXD	CPPC	LWWL	sonnig	genießen	träumen	gütig	vertrauen	küssen	sterben	gemein	töten	gierig	versagen	krank	1	acq_USpleas_CSpleas2_RW	acq4567_RW	4	79	400	0	300	300	284	50	0	1	1	blank2r.bmp	0	1	+	0	1	blank2r.bmp	492	1	YFFY	492	1	blank2r.bmp	572	1	gütig	866	1	!	-1	1	!	-1	0	0	0	0	0	0	0	0	0	0	0	0	0	0	0	0	0	0	0	0	0	0	0	0	0	0	0	0	0	0
082019	13:57:00	14:05:16	495183	5.0.10.0	5_exp_RW	107	Rpleas_acq	CS_A	JQQJ	YFFY	ZHHZ	DXXD	CPPC	LWWL	sonnig	genießen	träumen	gütig	vertrauen	küssen	sterben	gemein	töten	gierig	versagen	krank	1	acq_USunple_CSunple1_RW	acq4567_RW	4	80	400	0	300	300	227	50	0	0	1	blank2r.bmp	0	1	+	0	1	blank2r.bmp	492	1	ZHHZ	492	1	blank2r.bmp	572	3	töten	866	1	!	-1	1	!	-1	0	0	0	0	0	0	0	0	0	0	0	0	0	0	0	0	0	0	0	0	0	0	0	0	0	0	0	0	0	0
082019	13:57:00	14:05:37	516214	5.0.10.0	5_exp_RW	107	Rpleas_acq	CS_A	JQQJ	YFFY	ZHHZ	DXXD	CPPC	LWWL	sonnig	genießen	träumen	gütig	vertrauen	küssen	sterben	gemein	töten	gierig	versagen	krank	1	acq_USunple_CSunple2_RW	acq4567_RW	5	1	400	0	300	300	598	46	0	1	1	blank2r.bmp	0	1	+	0	1	blank2r.bmp	492	1	DXXD	492	1	blank2r.bmp	572	2	versagen	866	1	!	1239	1	!	-1	0	0	0	0	0	0	0	0	0	0	0	0	0	0	0	0	0	0	0	0	0	0	0	0	0	0	0	0	0	0
082019	13:57:00	14:05:39	518494	5.0.10.0	5_exp_RW	107	Rpleas_acq	CS_A	JQQJ	YFFY	ZHHZ	DXXD	CPPC	LWWL	sonnig	genießen	träumen	gütig	vertrauen	küssen	sterben	gemein	töten	gierig	versagen	krank	1	acq_USpleas_CSpleas2_RW	acq4567_RW	5	2	400	1	300	300	467	50	0	1	1	blank2r.bmp	0	1	+	0	1	blank2r.bmp	492	1	YFFY	492	1	blank2r.bmp	572	2	vertrauen	866	1	!	1239	1	!	1372	0	0	0	0	0	0	0	0	0	0	0	0	0	0	0	0	0	0	0	0	0	0	0	0	0	0	0	0	0	0
082019	13:57:00	14:05:42	520746	5.0.10.0	5_exp_RW	107	Rpleas_acq	CS_A	JQQJ	YFFY	ZHHZ	DXXD	CPPC	LWWL	sonnig	genießen	träumen	gütig	vertrauen	küssen	sterben	gemein	töten	gierig	versagen	krank	1	acq_USunple_CSunple1_RW	acq4567_RW	5	3	400	0	300	300	491	46	0	1	1	blank2r.bmp	0	1	+	0	1	blank2r.bmp	492	1	ZHHZ	492	1	blank2r.bmp	572	1	sterben	866	1	!	1239	1	!	-1	0	0	0	0	0	0	0	0	0	0	0	0	0	0	0	0	0	0	0	0	0	0	0	0	0	0	0	0	0	0
082019	13:57:00	14:05:44	522905	5.0.10.0	5_exp_RW	107	Rpleas_acq	CS_A	JQQJ	YFFY	ZHHZ	DXXD	CPPC	LWWL	sonnig	genießen	träumen	gütig	vertrauen	küssen	sterben	gemein	töten	gierig	versagen	krank	1	acq_USpleas_CSpleas2_RW	acq4567_RW	5	4	400	1	300	300	348	50	0	1	1	blank2r.bmp	0	1	+	0	1	blank2r.bmp	492	1	YFFY	492	1	blank2r.bmp	572	3	küssen	866	1	!	1239	1	!	1252	0	0	0	0	0	0	0	0	0	0	0	0	0	0	0	0	0	0	0	0	0	0	0	0	0	0	0	0	0	0
082019	13:57:00	14:05:46	525091	5.0.10.0	5_exp_RW	107	Rpleas_acq	CS_A	JQQJ	YFFY	ZHHZ	DXXD	CPPC	LWWL	sonnig	genießen	träumen	gütig	vertrauen	küssen	sterben	gemein	töten	gierig	versagen	krank	1	acq_USunple_CSunple2_RW	acq4567_RW	5	5	400	1	300	300	398	46	0	1	1	blank2r.bmp	0	1	+	0	1	blank2r.bmp	492	1	DXXD	492	1	blank2r.bmp	572	3	krank	866	1	!	1239	1	!	1292	0	0	0	0	0	0	0	0	0	0	0	0	0	0	0	0	0	0	0	0	0	0	0	0	0	0	0	0	0	0
082019	13:57:00	14:05:48	527237	5.0.10.0	5_exp_RW	107	Rpleas_acq	CS_A	JQQJ	YFFY	ZHHZ	DXXD	CPPC	LWWL	sonnig	genießen	träumen	gütig	vertrauen	küssen	sterben	gemein	töten	gierig	versagen	krank	1	acq_USunple_CSunple1_RW	acq4567_RW	5	6	400	1	300	300	346	50	0	0	1	blank2r.bmp	0	1	+	0	1	blank2r.bmp	492	1	ZHHZ	492	1	blank2r.bmp	572	2	gemein	866	1	!	1239	1	!	1252	0	0	0	0	0	0	0	0	0	0	0	0	0	0	0	0	0	0	0	0	0	0	0	0	0	0	0	0	0	0
082019	13:57:00	14:05:50	529409	5.0.10.0	5_exp_RW	107	Rpleas_acq	CS_A	JQQJ	YFFY	ZHHZ	DXXD	CPPC	LWWL	sonnig	genießen	träumen	gütig	vertrauen	küssen	sterben	gemein	töten	gierig	versagen	krank	1	acq_USunple_CSunple1_RW	acq4567_RW	5	7	400	1	300	300	383	46	0	1	1	blank2r.bmp	0	1	+	0	1	blank2r.bmp	492	1	ZHHZ	492	1	blank2r.bmp	572	3	töten	866	1	!	1239	1	!	1279	0	0	0	0	0	0	0	0	0	0	0	0	0	0	0	0	0	0	0	0	0	0	0	0	0	0	0	0	0	0
082019	13:57:00	14:05:52	531502	5.0.10.0	5_exp_RW	107	Rpleas_acq	CS_A	JQQJ	YFFY	ZHHZ	DXXD	CPPC	LWWL	sonnig	genießen	träumen	gütig	vertrauen	küssen	sterben	gemein	töten	gierig	versagen	krank	1	acq_USpleas_CSpleas1_RW	acq4567_RW	5	8	400	0	300	300	331	50	0	1	1	blank2r.bmp	0	1	+	0	1	blank2r.bmp	492	1	JQQJ	492	1	blank2r.bmp	572	1	sonnig	866	1	!	-1	1	!	-1	0	0	0	0	0	0	0	0	0	0	0	0	0	0	0	0	0	0	0	0	0	0	0	0	0	0	0	0	0	0
082019	13:57:00	14:05:55	533754	5.0.10.0	5_exp_RW	107	Rpleas_acq	CS_A	JQQJ	YFFY	ZHHZ	DXXD	CPPC	LWWL	sonnig	genießen	träumen	gütig	vertrauen	küssen	sterben	gemein	töten	gierig	versagen	krank	1	acq_USpleas_CSpleas1_RW	acq4567_RW	5	9	400	1	300	300	450	50	0	1	1	blank2r.bmp	0	1	+	0	1	blank2r.bmp	492	1	JQQJ	492	1	blank2r.bmp	572	3	träumen	866	1	!	1239	1	!	1346	0	0	0	0	0	0	0	0	0	0	0	0	0	0	0	0	0	0	0	0	0	0	0	0	0	0	0	0	0	0
082019	13:57:00	14:05:57	535980	5.0.10.0	5_exp_RW	107	Rpleas_acq	CS_A	JQQJ	YFFY	ZHHZ	DXXD	CPPC	LWWL	sonnig	genießen	träumen	gütig	vertrauen	küssen	sterben	gemein	töten	gierig	versagen	krank	1	acq_USpleas_CSpleas1_RW	acq4567_RW	5	10	400	1	300	300	434	46	0	0	1	blank2r.bmp	0	1	+	0	1	blank2r.bmp	492	1	JQQJ	492	1	blank2r.bmp	572	2	genießen	866	1	!	1239	1	!	1332	0	0	0	0	0	0	0	0	0	0	0	0	0	0	0	0	0	0	0	0	0	0	0	0	0	0	0	0	0	0
082019	13:57:00	14:05:59	538179	5.0.10.0	5_exp_RW	107	Rpleas_acq	CS_A	JQQJ	YFFY	ZHHZ	DXXD	CPPC	LWWL	sonnig	genießen	träumen	gütig	vertrauen	küssen	sterben	gemein	töten	gierig	versagen	krank	1	acq_USpleas_CSpleas2_RW	acq4567_RW	5	11	400	1	300	300	404	46	0	0	1	blank2r.bmp	0	1	+	0	1	blank2r.bmp	492	1	YFFY	492	1	blank2r.bmp	572	1	gütig	866	1	!	1239	1	!	1306	0	0	0	0	0	0	0	0	0	0	0	0	0	0	0	0	0	0	0	0	0	0	0	0	0	0	0	0	0	0
082019	13:57:00	14:06:01	540391	5.0.10.0	5_exp_RW	107	Rpleas_acq	CS_A	JQQJ	YFFY	ZHHZ	DXXD	CPPC	LWWL	sonnig	genießen	träumen	gütig	vertrauen	küssen	sterben	gemein	töten	gierig	versagen	krank	1	acq_USunple_CSunple1_RW	acq4567_RW	5	12	400	1	300	300	415	46	0	1	1	blank2r.bmp	0	1	+	0	1	blank2r.bmp	492	1	ZHHZ	492	1	blank2r.bmp	572	3	töten	866	1	!	1239	1	!	1319	0	0	0	0	0	0	0	0	0	0	0	0	0	0	0	0	0	0	0	0	0	0	0	0	0	0	0	0	0	0
082019	13:57:00	14:06:03	542404	5.0.10.0	5_exp_RW	107	Rpleas_acq	CS_A	JQQJ	YFFY	ZHHZ	DXXD	CPPC	LWWL	sonnig	genießen	träumen	gütig	vertrauen	küssen	sterben	gemein	töten	gierig	versagen	krank	1	acq_USpleas_CSpleas1_RW	acq4567_RW	5	13	400	0	300	300	251	50	0	1	1	blank2r.bmp	0	1	+	0	1	blank2r.bmp	492	1	JQQJ	492	1	blank2r.bmp	572	1	sonnig	866	1	!	-1	1	!	-1	0	0	0	0	0	0	0	0	0	0	0	0	0	0	0	0	0	0	0	0	0	0	0	0	0	0	0	0	0	0
082019	13:57:00	14:06:06	544643	5.0.10.0	5_exp_RW	107	Rpleas_acq	CS_A	JQQJ	YFFY	ZHHZ	DXXD	CPPC	LWWL	sonnig	genießen	träumen	gütig	vertrauen	küssen	sterben	gemein	töten	gierig	versagen	krank	1	acq_USunple_CSunple2_RW	acq4567_RW	5	14	400	1	300	300	431	46	0	1	1	blank2r.bmp	0	1	+	0	1	blank2r.bmp	492	1	DXXD	492	1	blank2r.bmp	572	1	gierig	866	1	!	1239	1	!	1332	0	0	0	0	0	0	0	0	0	0	0	0	0	0	0	0	0	0	0	0	0	0	0	0	0	0	0	0	0	0
082019	13:57:00	14:06:08	546922	5.0.10.0	5_exp_RW	107	Rpleas_acq	CS_A	JQQJ	YFFY	ZHHZ	DXXD	CPPC	LWWL	sonnig	genießen	träumen	gütig	vertrauen	küssen	sterben	gemein	töten	gierig	versagen	krank	1	acq_USpleas_CSpleas2_RW	acq4567_RW	5	15	400	0	300	300	506	50	0	1	1	blank2r.bmp	0	1	+	0	1	blank2r.bmp	492	1	YFFY	492	1	blank2r.bmp	572	2	vertrauen	866	1	!	1239	1	!	-1	0	0	0	0	0	0	0	0	0	0	0	0	0	0	0	0	0	0	0	0	0	0	0	0	0	0	0	0	0	0
082019	13:57:00	14:06:10	549094	5.0.10.0	5_exp_RW	107	Rpleas_acq	CS_A	JQQJ	YFFY	ZHHZ	DXXD	CPPC	LWWL	sonnig	genießen	träumen	gütig	vertrauen	küssen	sterben	gemein	töten	gierig	versagen	krank	1	acq_USpleas_CSpleas2_RW	acq4567_RW	5	16	400	1	300	300	369	50	0	1	1	blank2r.bmp	0	1	+	0	1	blank2r.bmp	492	1	YFFY	492	1	blank2r.bmp	572	3	küssen	866	1	!	1239	1	!	1266	0	0	0	0	0	0	0	0	0	0	0	0	0	0	0	0	0	0	0	0	0	0	0	0	0	0	0	0	0	0
082019	13:57:00	14:06:12	551307	5.0.10.0	5_exp_RW	107	Rpleas_acq	CS_A	JQQJ	YFFY	ZHHZ	DXXD	CPPC	LWWL	sonnig	genießen	träumen	gütig	vertrauen	küssen	sterben	gemein	töten	gierig	versagen	krank	1	acq_USunple_CSunple2_RW	acq4567_RW	5	17	400	1	300	300	424	46	0	1	1	blank2r.bmp	0	1	+	0	1	blank2r.bmp	492	1	DXXD	492	1	blank2r.bmp	572	2	versagen	866	1	!	1239	1	!	1319	0	0	0	0	0	0	0	0	0	0	0	0	0	0	0	0	0	0	0	0	0	0	0	0	0	0	0	0	0	0
082019	13:57:00	14:06:14	553533	5.0.10.0	5_exp_RW	107	Rpleas_acq	CS_A	JQQJ	YFFY	ZHHZ	DXXD	CPPC	LWWL	sonnig	genießen	träumen	gütig	vertrauen	küssen	sterben	gemein	töten	gierig	versagen	krank	1	acq_USunple_CSunple2_RW	acq4567_RW	5	18	400	1	300	300	421	46	0	1	1	blank2r.bmp	0	1	+	0	1	blank2r.bmp	492	1	DXXD	492	1	blank2r.bmp	572	1	gierig	866	1	!	1239	1	!	1319	0	0	0	0	0	0	0	0	0	0	0	0	0	0	0	0	0	0	0	0	0	0	0	0	0	0	0	0	0	0
082019	13:57:00	14:06:17	555705	5.0.10.0	5_exp_RW	107	Rpleas_acq	CS_A	JQQJ	YFFY	ZHHZ	DXXD	CPPC	LWWL	sonnig	genießen	träumen	gütig	vertrauen	küssen	sterben	gemein	töten	gierig	versagen	krank	1	acq_USpleas_CSpleas1_RW	acq4567_RW	5	19	400	1	300	300	377	50	0	1	1	blank2r.bmp	0	1	+	0	1	blank2r.bmp	492	1	JQQJ	492	1	blank2r.bmp	572	3	träumen	866	1	!	1239	1	!	1279	0	0	0	0	0	0	0	0	0	0	0	0	0	0	0	0	0	0	0	0	0	0	0	0	0	0	0	0	0	0
082019	13:57:00	14:06:19	557917	5.0.10.0	5_exp_RW	107	Rpleas_acq	CS_A	JQQJ	YFFY	ZHHZ	DXXD	CPPC	LWWL	sonnig	genießen	träumen	gütig	vertrauen	küssen	sterben	gemein	töten	gierig	versagen	krank	1	acq_USunple_CSunple1_RW	acq4567_RW	5	20	400	1	300	300	399	46	0	1	1	blank2r.bmp	0	1	+	0	1	blank2r.bmp	492	1	ZHHZ	492	1	blank2r.bmp	572	2	gemein	866	1	!	1239	1	!	1306	0	0	0	0	0	0	0	0	0	0	0	0	0	0	0	0	0	0	0	0	0	0	0	0	0	0	0	0	0	0
082019	13:57:00	14:06:21	560156	5.0.10.0	5_exp_RW	107	Rpleas_acq	CS_A	JQQJ	YFFY	ZHHZ	DXXD	CPPC	LWWL	sonnig	genießen	träumen	gütig	vertrauen	küssen	sterben	gemein	töten	gierig	versagen	krank	1	acq_USunple_CSunple1_RW	acq4567_RW	5	21	400	1	300	300	438	46	0	1	1	blank2r.bmp	0	1	+	0	1	blank2r.bmp	492	1	ZHHZ	492	1	blank2r.bmp	572	1	sterben	866	1	!	1239	1	!	1346	0	0	0	0	0	0	0	0	0	0	0	0	0	0	0	0	0	0	0	0	0	0	0	0	0	0	0	0	0	0
082019	13:57:00	14:06:23	562382	5.0.10.0	5_exp_RW	107	Rpleas_acq	CS_A	JQQJ	YFFY	ZHHZ	DXXD	CPPC	LWWL	sonnig	genießen	träumen	gütig	vertrauen	küssen	sterben	gemein	töten	gierig	versagen	krank	1	acq_USunple_CSunple2_RW	acq4567_RW	5	22	400	1	300	300	431	46	0	1	1	blank2r.bmp	0	1	+	0	1	blank2r.bmp	492	1	DXXD	492	1	blank2r.bmp	572	3	krank	866	1	!	1239	1	!	1332	0	0	0	0	0	0	0	0	0	0	0	0	0	0	0	0	0	0	0	0	0	0	0	0	0	0	0	0	0	0
082019	13:57:00	14:06:26	564648	5.0.10.0	5_exp_RW	107	Rpleas_acq	CS_A	JQQJ	YFFY	ZHHZ	DXXD	CPPC	LWWL	sonnig	genießen	träumen	gütig	vertrauen	küssen	sterben	gemein	töten	gierig	versagen	krank	1	acq_USpleas_CSpleas1_RW	acq4567_RW	5	23	400	0	300	300	490	50	0	1	1	blank2r.bmp	0	1	+	0	1	blank2r.bmp	492	1	JQQJ	492	1	blank2r.bmp	572	2	genießen	866	1	!	1239	1	!	-1	0	0	0	0	0	0	0	0	0	0	0	0	0	0	0	0	0	0	0	0	0	0	0	0	0	0	0	0	0	0
082019	13:57:00	14:06:28	566927	5.0.10.0	5_exp_RW	107	Rpleas_acq	CS_A	JQQJ	YFFY	ZHHZ	DXXD	CPPC	LWWL	sonnig	genießen	träumen	gütig	vertrauen	küssen	sterben	gemein	töten	gierig	versagen	krank	1	acq_USpleas_CSpleas1_RW	acq4567_RW	5	24	400	0	300	300	492	50	0	1	1	blank2r.bmp	0	1	+	0	1	blank2r.bmp	492	1	JQQJ	492	1	blank2r.bmp	572	1	sonnig	866	1	!	1239	1	!	-1	0	0	0	0	0	0	0	0	0	0	0	0	0	0	0	0	0	0	0	0	0	0	0	0	0	0	0	0	0	0
082019	13:57:00	14:06:30	569153	5.0.10.0	5_exp_RW	107	Rpleas_acq	CS_A	JQQJ	YFFY	ZHHZ	DXXD	CPPC	LWWL	sonnig	genießen	träumen	gütig	vertrauen	küssen	sterben	gemein	töten	gierig	versagen	krank	1	acq_USunple_CSunple2_RW	acq4567_RW	5	25	400	1	300	300	413	46	0	1	1	blank2r.bmp	0	1	+	0	1	blank2r.bmp	492	1	DXXD	492	1	blank2r.bmp	572	2	versagen	866	1	!	1239	1	!	1319	0	0	0	0	0	0	0	0	0	0	0	0	0	0	0	0	0	0	0	0	0	0	0	0	0	0	0	0	0	0
082019	13:57:00	14:06:32	571419	5.0.10.0	5_exp_RW	107	Rpleas_acq	CS_A	JQQJ	YFFY	ZHHZ	DXXD	CPPC	LWWL	sonnig	genießen	träumen	gütig	vertrauen	küssen	sterben	gemein	töten	gierig	versagen	krank	1	acq_USunple_CSunple2_RW	acq4567_RW	5	26	400	1	300	300	454	50	0	0	1	blank2r.bmp	0	1	+	0	1	blank2r.bmp	492	1	DXXD	492	1	blank2r.bmp	572	1	gierig	866	1	!	1239	1	!	1359	0	0	0	0	0	0	0	0	0	0	0	0	0	0	0	0	0	0	0	0	0	0	0	0	0	0	0	0	0	0
082019	13:57:00	14:06:34	573618	5.0.10.0	5_exp_RW	107	Rpleas_acq	CS_A	JQQJ	YFFY	ZHHZ	DXXD	CPPC	LWWL	sonnig	genießen	träumen	gütig	vertrauen	küssen	sterben	gemein	töten	gierig	versagen	krank	1	acq_USpleas_CSpleas2_RW	acq4567_RW	5	27	400	1	300	300	405	50	0	1	1	blank2r.bmp	0	1	+	0	1	blank2r.bmp	492	1	YFFY	492	1	blank2r.bmp	572	1	gütig	866	1	!	1239	1	!	1306	0	0	0	0	0	0	0	0	0	0	0	0	0	0	0	0	0	0	0	0	0	0	0	0	0	0	0	0	0	0
082019	13:57:00	14:06:37	575710	5.0.10.0	5_exp_RW	107	Rpleas_acq	CS_A	JQQJ	YFFY	ZHHZ	DXXD	CPPC	LWWL	sonnig	genießen	träumen	gütig	vertrauen	küssen	sterben	gemein	töten	gierig	versagen	krank	1	acq_USunple_CSunple2_RW	acq4567_RW	5	28	400	0	300	300	326	46	0	1	1	blank2r.bmp	0	1	+	0	1	blank2r.bmp	492	1	DXXD	492	1	blank2r.bmp	572	3	krank	866	1	!	-1	1	!	-1	0	0	0	0	0	0	0	0	0	0	0	0	0	0	0	0	0	0	0	0	0	0	0	0	0	0	0	0	0	0
082019	13:57:00	14:06:39	578003	5.0.10.0	5_exp_RW	107	Rpleas_acq	CS_A	JQQJ	YFFY	ZHHZ	DXXD	CPPC	LWWL	sonnig	genießen	träumen	gütig	vertrauen	küssen	sterben	gemein	töten	gierig	versagen	krank	1	acq_USpleas_CSpleas1_RW	acq4567_RW	5	29	400	0	300	300	509	50	0	1	1	blank2r.bmp	0	1	+	0	1	blank2r.bmp	492	1	JQQJ	492	1	blank2r.bmp	572	3	träumen	866	1	!	1239	1	!	-1	0	0	0	0	0	0	0	0	0	0	0	0	0	0	0	0	0	0	0	0	0	0	0	0	0	0	0	0	0	0
082019	13:57:00	14:06:41	580388	5.0.10.0	5_exp_RW	107	Rpleas_acq	CS_A	JQQJ	YFFY	ZHHZ	DXXD	CPPC	LWWL	sonnig	genießen	träumen	gütig	vertrauen	küssen	sterben	gemein	töten	gierig	versagen	krank	1	acq_USpleas_CSpleas2_RW	acq4567_RW	5	30	400	0	300	300	600	46	0	0	1	blank2r.bmp	0	1	+	0	1	blank2r.bmp	492	1	YFFY	492	1	blank2r.bmp	572	1	gütig	866	1	!	1239	1	!	-1	0	0	0	0	0	0	0	0	0	0	0	0	0	0	0	0	0	0	0	0	0	0	0	0	0	0	0	0	0	0
082019	13:57:00	14:06:43	582614	5.0.10.0	5_exp_RW	107	Rpleas_acq	CS_A	JQQJ	YFFY	ZHHZ	DXXD	CPPC	LWWL	sonnig	genießen	träumen	gütig	vertrauen	küssen	sterben	gemein	töten	gierig	versagen	krank	1	acq_USunple_CSunple1_RW	acq4567_RW	5	31	400	1	300	300	423	50	0	0	1	blank2r.bmp	0	1	+	0	1	blank2r.bmp	492	1	ZHHZ	492	1	blank2r.bmp	572	3	töten	866	1	!	1239	1	!	1319	0	0	0	0	0	0	0	0	0	0	0	0	0	0	0	0	0	0	0	0	0	0	0	0	0	0	0	0	0	0
082019	13:57:00	14:06:46	584880	5.0.10.0	5_exp_RW	107	Rpleas_acq	CS_A	JQQJ	YFFY	ZHHZ	DXXD	CPPC	LWWL	sonnig	genießen	träumen	gütig	vertrauen	küssen	sterben	gemein	töten	gierig	versagen	krank	1	acq_USpleas_CSpleas1_RW	acq4567_RW	5	32	400	1	300	300	459	50	0	1	1	blank2r.bmp	0	1	+	0	1	blank2r.bmp	492	1	JQQJ	492	1	blank2r.bmp	572	2	genießen	866	1	!	1239	1	!	1359	0	0	0	0	0	0	0	0	0	0	0	0	0	0	0	0	0	0	0	0	0	0	0	0	0	0	0	0	0	0
082019	13:57:00	14:06:48	587065	5.0.10.0	5_exp_RW	107	Rpleas_acq	CS_A	JQQJ	YFFY	ZHHZ	DXXD	CPPC	LWWL	sonnig	genießen	träumen	gütig	vertrauen	küssen	sterben	gemein	töten	gierig	versagen	krank	1	acq_USpleas_CSpleas1_RW	acq4567_RW	5	33	400	1	300	300	394	50	0	1	1	blank2r.bmp	0	1	+	0	1	blank2r.bmp	492	1	JQQJ	492	1	blank2r.bmp	572	2	genießen	866	1	!	1239	1	!	1292	0	0	0	0	0	0	0	0	0	0	0	0	0	0	0	0	0	0	0	0	0	0	0	0	0	0	0	0	0	0
082019	13:57:00	14:06:50	589225	5.0.10.0	5_exp_RW	107	Rpleas_acq	CS_A	JQQJ	YFFY	ZHHZ	DXXD	CPPC	LWWL	sonnig	genießen	träumen	gütig	vertrauen	küssen	sterben	gemein	töten	gierig	versagen	krank	1	acq_USpleas_CSpleas2_RW	acq4567_RW	5	34	400	1	300	300	372	50	0	1	1	blank2r.bmp	0	1	+	0	1	blank2r.bmp	492	1	YFFY	492	1	blank2r.bmp	572	3	küssen	866	1	!	1239	1	!	1266	0	0	0	0	0	0	0	0	0	0	0	0	0	0	0	0	0	0	0	0	0	0	0	0	0	0	0	0	0	0
082019	13:57:00	14:06:52	591370	5.0.10.0	5_exp_RW	107	Rpleas_acq	CS_A	JQQJ	YFFY	ZHHZ	DXXD	CPPC	LWWL	sonnig	genießen	träumen	gütig	vertrauen	küssen	sterben	gemein	töten	gierig	versagen	krank	1	acq_USpleas_CSpleas2_RW	acq4567_RW	5	35	400	1	300	300	346	50	0	1	1	blank2r.bmp	0	1	+	0	1	blank2r.bmp	492	1	YFFY	492	1	blank2r.bmp	572	2	vertrauen	866	1	!	1239	1	!	1252	0	0	0	0	0	0	0	0	0	0	0	0	0	0	0	0	0	0	0	0	0	0	0	0	0	0	0	0	0	0
082019	13:57:00	14:06:54	593516	5.0.10.0	5_exp_RW	107	Rpleas_acq	CS_A	JQQJ	YFFY	ZHHZ	DXXD	CPPC	LWWL	sonnig	genießen	träumen	gütig	vertrauen	küssen	sterben	gemein	töten	gierig	versagen	krank	1	acq_USunple_CSunple1_RW	acq4567_RW	5	36	400	1	300	300	346	46	0	1	1	blank2r.bmp	0	1	+	0	1	blank2r.bmp	492	1	ZHHZ	492	1	blank2r.bmp	572	1	sterben	866	1	!	1239	1	!	1252	0	0	0	0	0	0	0	0	0	0	0	0	0	0	0	0	0	0	0	0	0	0	0	0	0	0	0	0	0	0
082019	13:57:00	14:06:57	595689	5.0.10.0	5_exp_RW	107	Rpleas_acq	CS_A	JQQJ	YFFY	ZHHZ	DXXD	CPPC	LWWL	sonnig	genießen	träumen	gütig	vertrauen	küssen	sterben	gemein	töten	gierig	versagen	krank	1	acq_USpleas_CSpleas2_RW	acq4567_RW	5	37	400	1	300	300	380	50	0	1	1	blank2r.bmp	0	1	+	0	1	blank2r.bmp	492	1	YFFY	492	1	blank2r.bmp	572	2	vertrauen	866	1	!	1239	1	!	1279	0	0	0	0	0	0	0	0	0	0	0	0	0	0	0	0	0	0	0	0	0	0	0	0	0	0	0	0	0	0
082019	13:57:00	14:06:59	597874	5.0.10.0	5_exp_RW	107	Rpleas_acq	CS_A	JQQJ	YFFY	ZHHZ	DXXD	CPPC	LWWL	sonnig	genießen	träumen	gütig	vertrauen	küssen	sterben	gemein	töten	gierig	versagen	krank	1	acq_USunple_CSunple2_RW	acq4567_RW	5	38	400	1	300	300	376	46	0	1	1	blank2r.bmp	0	1	+	0	1	blank2r.bmp	492	1	DXXD	492	1	blank2r.bmp	572	3	krank	866	1	!	1239	1	!	1279	0	0	0	0	0	0	0	0	0	0	0	0	0	0	0	0	0	0	0	0	0	0	0	0	0	0	0	0	0	0
082019	13:57:00	14:07:01	599860	5.0.10.0	5_exp_RW	107	Rpleas_acq	CS_A	JQQJ	YFFY	ZHHZ	DXXD	CPPC	LWWL	sonnig	genießen	träumen	gütig	vertrauen	küssen	sterben	gemein	töten	gierig	versagen	krank	1	acq_USunple_CSunple1_RW	acq4567_RW	5	39	400	0	300	300	217	50	0	0	1	blank2r.bmp	0	1	+	0	1	blank2r.bmp	492	1	ZHHZ	492	1	blank2r.bmp	572	2	gemein	866	1	!	-1	1	!	-1	0	0	0	0	0	0	0	0	0	0	0	0	0	0	0	0	0	0	0	0	0	0	0	0	0	0	0	0	0	0
082019	13:57:00	14:07:03	602019	5.0.10.0	5_exp_RW	107	Rpleas_acq	CS_A	JQQJ	YFFY	ZHHZ	DXXD	CPPC	LWWL	sonnig	genießen	träumen	gütig	vertrauen	küssen	sterben	gemein	töten	gierig	versagen	krank	1	acq_USunple_CSunple1_RW	acq4567_RW	5	40	400	1	300	300	353	50	0	0	1	blank2r.bmp	0	1	+	0	1	blank2r.bmp	492	1	ZHHZ	492	1	blank2r.bmp	572	3	töten	866	1	!	1239	1	!	1252	0	0	0	0	0	0	0	0	0	0	0	0	0	0	0	0	0	0	0	0	0	0	0	0	0	0	0	0	0	0
082019	13:57:00	14:07:05	604245	5.0.10.0	5_exp_RW	107	Rpleas_acq	CS_A	JQQJ	YFFY	ZHHZ	DXXD	CPPC	LWWL	sonnig	genießen	träumen	gütig	vertrauen	küssen	sterben	gemein	töten	gierig	versagen	krank	1	acq_USunple_CSunple2_RW	acq4567_RW	5	41	400	1	300	300	426	46	0	1	1	blank2r.bmp	0	1	+	0	1	blank2r.bmp	492	1	DXXD	492	1	blank2r.bmp	572	1	gierig	866	1	!	1239	1	!	1332	0	0	0	0	0	0	0	0	0	0	0	0	0	0	0	0	0	0	0	0	0	0	0	0	0	0	0	0	0	0
082019	13:57:00	14:07:07	606444	5.0.10.0	5_exp_RW	107	Rpleas_acq	CS_A	JQQJ	YFFY	ZHHZ	DXXD	CPPC	LWWL	sonnig	genießen	träumen	gütig	vertrauen	küssen	sterben	gemein	töten	gierig	versagen	krank	1	acq_USpleas_CSpleas1_RW	acq4567_RW	5	42	400	1	300	300	404	50	0	1	1	blank2r.bmp	0	1	+	0	1	blank2r.bmp	492	1	JQQJ	492	1	blank2r.bmp	572	1	sonnig	866	1	!	1239	1	!	1306	0	0	0	0	0	0	0	0	0	0	0	0	0	0	0	0	0	0	0	0	0	0	0	0	0	0	0	0	0	0
082019	13:57:00	14:07:09	608603	5.0.10.0	5_exp_RW	107	Rpleas_acq	CS_A	JQQJ	YFFY	ZHHZ	DXXD	CPPC	LWWL	sonnig	genießen	träumen	gütig	vertrauen	küssen	sterben	gemein	töten	gierig	versagen	krank	1	acq_USunple_CSunple1_RW	acq4567_RW	5	43	400	1	300	300	370	46	0	1	1	blank2r.bmp	0	1	+	0	1	blank2r.bmp	492	1	ZHHZ	492	1	blank2r.bmp	572	1	sterben	866	1	!	1239	1	!	1266	0	0	0	0	0	0	0	0	0	0	0	0	0	0	0	0	0	0	0	0	0	0	0	0	0	0	0	0	0	0
082019	13:57:00	14:07:12	610882	5.0.10.0	5_exp_RW	107	Rpleas_acq	CS_A	JQQJ	YFFY	ZHHZ	DXXD	CPPC	LWWL	sonnig	genießen	träumen	gütig	vertrauen	küssen	sterben	gemein	töten	gierig	versagen	krank	1	acq_USunple_CSunple1_RW	acq4567_RW	5	44	400	0	300	300	502	46	0	1	1	blank2r.bmp	0	1	+	0	1	blank2r.bmp	492	1	ZHHZ	492	1	blank2r.bmp	572	2	gemein	866	1	!	1239	1	!	-1	0	0	0	0	0	0	0	0	0	0	0	0	0	0	0	0	0	0	0	0	0	0	0	0	0	0	0	0	0	0
082019	13:57:00	14:07:14	613041	5.0.10.0	5_exp_RW	107	Rpleas_acq	CS_A	JQQJ	YFFY	ZHHZ	DXXD	CPPC	LWWL	sonnig	genießen	träumen	gütig	vertrauen	küssen	sterben	gemein	töten	gierig	versagen	krank	1	acq_USpleas_CSpleas2_RW	acq4567_RW	5	45	400	1	300	300	348	50	0	1	1	blank2r.bmp	0	1	+	0	1	blank2r.bmp	492	1	YFFY	492	1	blank2r.bmp	572	1	gütig	866	1	!	1239	1	!	1252	0	0	0	0	0	0	0	0	0	0	0	0	0	0	0	0	0	0	0	0	0	0	0	0	0	0	0	0	0	0
082019	13:57:00	14:07:16	615281	5.0.10.0	5_exp_RW	107	Rpleas_acq	CS_A	JQQJ	YFFY	ZHHZ	DXXD	CPPC	LWWL	sonnig	genießen	träumen	gütig	vertrauen	küssen	sterben	gemein	töten	gierig	versagen	krank	1	acq_USunple_CSunple2_RW	acq4567_RW	5	46	400	1	300	300	440	46	0	1	1	blank2r.bmp	0	1	+	0	1	blank2r.bmp	492	1	DXXD	492	1	blank2r.bmp	572	2	versagen	866	1	!	1239	1	!	1346	0	0	0	0	0	0	0	0	0	0	0	0	0	0	0	0	0	0	0	0	0	0	0	0	0	0	0	0	0	0
082019	13:57:00	14:07:18	617533	5.0.10.0	5_exp_RW	107	Rpleas_acq	CS_A	JQQJ	YFFY	ZHHZ	DXXD	CPPC	LWWL	sonnig	genießen	träumen	gütig	vertrauen	küssen	sterben	gemein	töten	gierig	versagen	krank	1	acq_USunple_CSunple1_RW	acq4567_RW	5	47	400	1	300	300	447	46	0	1	1	blank2r.bmp	0	1	+	0	1	blank2r.bmp	492	1	ZHHZ	492	1	blank2r.bmp	572	1	sterben	866	1	!	1239	1	!	1346	0	0	0	0	0	0	0	0	0	0	0	0	0	0	0	0	0	0	0	0	0	0	0	0	0	0	0	0	0	0
082019	13:57:00	14:07:21	619679	5.0.10.0	5_exp_RW	107	Rpleas_acq	CS_A	JQQJ	YFFY	ZHHZ	DXXD	CPPC	LWWL	sonnig	genießen	träumen	gütig	vertrauen	küssen	sterben	gemein	töten	gierig	versagen	krank	1	acq_USunple_CSunple2_RW	acq4567_RW	5	48	400	1	300	300	347	46	0	1	1	blank2r.bmp	0	1	+	0	1	blank2r.bmp	492	1	DXXD	492	1	blank2r.bmp	572	2	versagen	866	1	!	1239	1	!	1252	0	0	0	0	0	0	0	0	0	0	0	0	0	0	0	0	0	0	0	0	0	0	0	0	0	0	0	0	0	0
082019	13:57:00	14:07:23	621865	5.0.10.0	5_exp_RW	107	Rpleas_acq	CS_A	JQQJ	YFFY	ZHHZ	DXXD	CPPC	LWWL	sonnig	genießen	träumen	gütig	vertrauen	küssen	sterben	gemein	töten	gierig	versagen	krank	1	acq_USpleas_CSpleas1_RW	acq4567_RW	5	49	400	1	300	300	388	50	0	1	1	blank2r.bmp	0	1	+	0	1	blank2r.bmp	492	1	JQQJ	492	1	blank2r.bmp	572	3	träumen	866	1	!	1239	1	!	1292	0	0	0	0	0	0	0	0	0	0	0	0	0	0	0	0	0	0	0	0	0	0	0	0	0	0	0	0	0	0
082019	13:57:00	14:07:25	624064	5.0.10.0	5_exp_RW	107	Rpleas_acq	CS_A	JQQJ	YFFY	ZHHZ	DXXD	CPPC	LWWL	sonnig	genießen	träumen	gütig	vertrauen	küssen	sterben	gemein	töten	gierig	versagen	krank	1	acq_USunple_CSunple2_RW	acq4567_RW	5	50	400	1	300	300	391	46	0	1	1	blank2r.bmp	0	1	+	0	1	blank2r.bmp	492	1	DXXD	492	1	blank2r.bmp	572	1	gierig	866	1	!	1239	1	!	1292	0	0	0	0	0	0	0	0	0	0	0	0	0	0	0	0	0	0	0	0	0	0	0	0	0	0	0	0	0	0
082019	13:57:00	14:07:27	626276	5.0.10.0	5_exp_RW	107	Rpleas_acq	CS_A	JQQJ	YFFY	ZHHZ	DXXD	CPPC	LWWL	sonnig	genießen	träumen	gütig	vertrauen	küssen	sterben	gemein	töten	gierig	versagen	krank	1	acq_USpleas_CSpleas1_RW	acq4567_RW	5	51	400	1	300	300	402	50	0	1	1	blank2r.bmp	0	1	+	0	1	blank2r.bmp	492	1	JQQJ	492	1	blank2r.bmp	572	1	sonnig	866	1	!	1239	1	!	1306	0	0	0	0	0	0	0	0	0	0	0	0	0	0	0	0	0	0	0	0	0	0	0	0	0	0	0	0	0	0
082019	13:57:00	14:07:29	628369	5.0.10.0	5_exp_RW	107	Rpleas_acq	CS_A	JQQJ	YFFY	ZHHZ	DXXD	CPPC	LWWL	sonnig	genießen	träumen	gütig	vertrauen	küssen	sterben	gemein	töten	gierig	versagen	krank	1	acq_USpleas_CSpleas2_RW	acq4567_RW	5	52	400	0	300	300	330	46	0	0	1	blank2r.bmp	0	1	+	0	1	blank2r.bmp	492	1	YFFY	492	1	blank2r.bmp	572	3	küssen	866	1	!	-1	1	!	-1	0	0	0	0	0	0	0	0	0	0	0	0	0	0	0	0	0	0	0	0	0	0	0	0	0	0	0	0	0	0
082019	13:57:00	14:07:31	630528	5.0.10.0	5_exp_RW	107	Rpleas_acq	CS_A	JQQJ	YFFY	ZHHZ	DXXD	CPPC	LWWL	sonnig	genießen	träumen	gütig	vertrauen	küssen	sterben	gemein	töten	gierig	versagen	krank	1	acq_USunple_CSunple2_RW	acq4567_RW	5	53	400	1	300	300	346	46	0	1	1	blank2r.bmp	0	1	+	0	1	blank2r.bmp	492	1	DXXD	492	1	blank2r.bmp	572	3	krank	866	1	!	1239	1	!	1252	0	0	0	0	0	0	0	0	0	0	0	0	0	0	0	0	0	0	0	0	0	0	0	0	0	0	0	0	0	0
082019	13:57:00	14:07:33	632593	5.0.10.0	5_exp_RW	107	Rpleas_acq	CS_A	JQQJ	YFFY	ZHHZ	DXXD	CPPC	LWWL	sonnig	genießen	träumen	gütig	vertrauen	küssen	sterben	gemein	töten	gierig	versagen	krank	1	acq_USpleas_CSpleas2_RW	acq4567_RW	5	54	400	0	300	300	292	50	0	1	1	blank2r.bmp	0	1	+	0	1	blank2r.bmp	492	1	YFFY	492	1	blank2r.bmp	572	1	gütig	866	1	!	-1	1	!	-1	0	0	0	0	0	0	0	0	0	0	0	0	0	0	0	0	0	0	0	0	0	0	0	0	0	0	0	0	0	0
082019	13:57:00	14:07:36	634766	5.0.10.0	5_exp_RW	107	Rpleas_acq	CS_A	JQQJ	YFFY	ZHHZ	DXXD	CPPC	LWWL	sonnig	genießen	träumen	gütig	vertrauen	küssen	sterben	gemein	töten	gierig	versagen	krank	1	acq_USpleas_CSpleas2_RW	acq4567_RW	5	55	400	1	300	300	371	46	0	0	1	blank2r.bmp	0	1	+	0	1	blank2r.bmp	492	1	YFFY	492	1	blank2r.bmp	572	3	küssen	866	1	!	1239	1	!	1266	0	0	0	0	0	0	0	0	0	0	0	0	0	0	0	0	0	0	0	0	0	0	0	0	0	0	0	0	0	0
082019	13:57:00	14:07:38	637018	5.0.10.0	5_exp_RW	107	Rpleas_acq	CS_A	JQQJ	YFFY	ZHHZ	DXXD	CPPC	LWWL	sonnig	genießen	träumen	gütig	vertrauen	küssen	sterben	gemein	töten	gierig	versagen	krank	1	acq_USunple_CSunple1_RW	acq4567_RW	5	56	400	1	300	300	444	46	0	1	1	blank2r.bmp	0	1	+	0	1	blank2r.bmp	492	1	ZHHZ	492	1	blank2r.bmp	572	3	töten	866	1	!	1239	1	!	1346	0	0	0	0	0	0	0	0	0	0	0	0	0	0	0	0	0	0	0	0	0	0	0	0	0	0	0	0	0	0
082019	13:57:00	14:07:40	639004	5.0.10.0	5_exp_RW	107	Rpleas_acq	CS_A	JQQJ	YFFY	ZHHZ	DXXD	CPPC	LWWL	sonnig	genießen	träumen	gütig	vertrauen	küssen	sterben	gemein	töten	gierig	versagen	krank	1	acq_USpleas_CSpleas2_RW	acq4567_RW	5	57	400	0	300	300	217	50	0	1	1	blank2r.bmp	0	1	+	0	1	blank2r.bmp	492	1	YFFY	492	1	blank2r.bmp	572	2	vertrauen	866	1	!	-1	1	!	-1	0	0	0	0	0	0	0	0	0	0	0	0	0	0	0	0	0	0	0	0	0	0	0	0	0	0	0	0	0	0
082019	13:57:00	14:07:42	641230	5.0.10.0	5_exp_RW	107	Rpleas_acq	CS_A	JQQJ	YFFY	ZHHZ	DXXD	CPPC	LWWL	sonnig	genießen	träumen	gütig	vertrauen	küssen	sterben	gemein	töten	gierig	versagen	krank	1	acq_USunple_CSunple1_RW	acq4567_RW	5	58	400	1	300	300	415	46	0	1	1	blank2r.bmp	0	1	+	0	1	blank2r.bmp	492	1	ZHHZ	492	1	blank2r.bmp	572	2	gemein	866	1	!	1239	1	!	1319	0	0	0	0	0	0	0	0	0	0	0	0	0	0	0	0	0	0	0	0	0	0	0	0	0	0	0	0	0	0
082019	13:57:00	14:07:44	643416	5.0.10.0	5_exp_RW	107	Rpleas_acq	CS_A	JQQJ	YFFY	ZHHZ	DXXD	CPPC	LWWL	sonnig	genießen	träumen	gütig	vertrauen	küssen	sterben	gemein	töten	gierig	versagen	krank	1	acq_USpleas_CSpleas1_RW	acq4567_RW	5	59	400	1	300	300	394	46	0	0	1	blank2r.bmp	0	1	+	0	1	blank2r.bmp	492	1	JQQJ	492	1	blank2r.bmp	572	2	genießen	866	1	!	1239	1	!	1292	0	0	0	0	0	0	0	0	0	0	0	0	0	0	0	0	0	0	0	0	0	0	0	0	0	0	0	0	0	0
082019	13:57:00	14:07:46	645388	5.0.10.0	5_exp_RW	107	Rpleas_acq	CS_A	JQQJ	YFFY	ZHHZ	DXXD	CPPC	LWWL	sonnig	genießen	träumen	gütig	vertrauen	küssen	sterben	gemein	töten	gierig	versagen	krank	1	acq_USpleas_CSpleas1_RW	acq4567_RW	5	60	400	0	300	300	204	46	0	0	1	blank2r.bmp	0	1	+	0	1	blank2r.bmp	492	1	JQQJ	492	1	blank2r.bmp	572	3	träumen	866	1	!	-1	1	!	-1	0	0	0	0	0	0	0	0	0	0	0	0	0	0	0	0	0	0	0	0	0	0	0	0	0	0	0	0	0	0
082019	13:57:00	14:07:48	647574	5.0.10.0	5_exp_RW	107	Rpleas_acq	CS_A	JQQJ	YFFY	ZHHZ	DXXD	CPPC	LWWL	sonnig	genießen	träumen	gütig	vertrauen	küssen	sterben	gemein	töten	gierig	versagen	krank	1	acq_USpleas_CSpleas1_RW	acq4567_RW	5	61	400	1	300	300	375	46	0	0	1	blank2r.bmp	0	1	+	0	1	blank2r.bmp	492	1	JQQJ	492	1	blank2r.bmp	572	3	träumen	866	1	!	1239	1	!	1279	0	0	0	0	0	0	0	0	0	0	0	0	0	0	0	0	0	0	0	0	0	0	0	0	0	0	0	0	0	0
082019	13:57:00	14:07:51	649733	5.0.10.0	5_exp_RW	107	Rpleas_acq	CS_A	JQQJ	YFFY	ZHHZ	DXXD	CPPC	LWWL	sonnig	genießen	träumen	gütig	vertrauen	küssen	sterben	gemein	töten	gierig	versagen	krank	1	acq_USpleas_CSpleas2_RW	acq4567_RW	5	62	400	1	300	300	346	50	0	1	1	blank2r.bmp	0	1	+	0	1	blank2r.bmp	492	1	YFFY	492	1	blank2r.bmp	572	1	gütig	866	1	!	1239	1	!	1252	0	0	0	0	0	0	0	0	0	0	0	0	0	0	0	0	0	0	0	0	0	0	0	0	0	0	0	0	0	0
082019	13:57:00	14:07:53	651799	5.0.10.0	5_exp_RW	107	Rpleas_acq	CS_A	JQQJ	YFFY	ZHHZ	DXXD	CPPC	LWWL	sonnig	genießen	träumen	gütig	vertrauen	küssen	sterben	gemein	töten	gierig	versagen	krank	1	acq_USpleas_CSpleas1_RW	acq4567_RW	5	63	400	0	300	300	303	50	0	1	1	blank2r.bmp	0	1	+	0	1	blank2r.bmp	492	1	JQQJ	492	1	blank2r.bmp	572	2	genießen	866	1	!	-1	1	!	-1	0	0	0	0	0	0	0	0	0	0	0	0	0	0	0	0	0	0	0	0	0	0	0	0	0	0	0	0	0	0
082019	13:57:00	14:07:55	653998	5.0.10.0	5_exp_RW	107	Rpleas_acq	CS_A	JQQJ	YFFY	ZHHZ	DXXD	CPPC	LWWL	sonnig	genießen	träumen	gütig	vertrauen	küssen	sterben	gemein	töten	gierig	versagen	krank	1	acq_USunple_CSunple2_RW	acq4567_RW	5	64	400	1	300	300	393	46	0	1	1	blank2r.bmp	0	1	+	0	1	blank2r.bmp	492	1	DXXD	492	1	blank2r.bmp	572	3	krank	866	1	!	1239	1	!	1292	0	0	0	0	0	0	0	0	0	0	0	0	0	0	0	0	0	0	0	0	0	0	0	0	0	0	0	0	0	0
082019	13:57:00	14:07:57	656304	5.0.10.0	5_exp_RW	107	Rpleas_acq	CS_A	JQQJ	YFFY	ZHHZ	DXXD	CPPC	LWWL	sonnig	genießen	träumen	gütig	vertrauen	küssen	sterben	gemein	töten	gierig	versagen	krank	1	acq_USunple_CSunple2_RW	acq4567_RW	5	65	400	0	300	300	537	46	0	1	1	blank2r.bmp	0	1	+	0	1	blank2r.bmp	492	1	DXXD	492	1	blank2r.bmp	572	1	gierig	866	1	!	1239	1	!	-1	0	0	0	0	0	0	0	0	0	0	0	0	0	0	0	0	0	0	0	0	0	0	0	0	0	0	0	0	0	0
082019	13:57:00	14:07:59	658370	5.0.10.0	5_exp_RW	107	Rpleas_acq	CS_A	JQQJ	YFFY	ZHHZ	DXXD	CPPC	LWWL	sonnig	genießen	träumen	gütig	vertrauen	küssen	sterben	gemein	töten	gierig	versagen	krank	1	acq_USpleas_CSpleas2_RW	acq4567_RW	5	66	400	0	300	300	288	50	0	1	1	blank2r.bmp	0	1	+	0	1	blank2r.bmp	492	1	YFFY	492	1	blank2r.bmp	572	3	küssen	866	1	!	-1	1	!	-1	0	0	0	0	0	0	0	0	0	0	0	0	0	0	0	0	0	0	0	0	0	0	0	0	0	0	0	0	0	0
082019	13:57:00	14:08:01	660635	5.0.10.0	5_exp_RW	107	Rpleas_acq	CS_A	JQQJ	YFFY	ZHHZ	DXXD	CPPC	LWWL	sonnig	genießen	träumen	gütig	vertrauen	küssen	sterben	gemein	töten	gierig	versagen	krank	1	acq_USunple_CSunple1_RW	acq4567_RW	5	67	400	1	300	300	450	50	0	0	1	blank2r.bmp	0	1	+	0	1	blank2r.bmp	492	1	ZHHZ	492	1	blank2r.bmp	572	2	gemein	866	1	!	1239	1	!	1346	0	0	0	0	0	0	0	0	0	0	0	0	0	0	0	0	0	0	0	0	0	0	0	0	0	0	0	0	0	0
082019	13:57:00	14:08:04	662821	5.0.10.0	5_exp_RW	107	Rpleas_acq	CS_A	JQQJ	YFFY	ZHHZ	DXXD	CPPC	LWWL	sonnig	genießen	träumen	gütig	vertrauen	küssen	sterben	gemein	töten	gierig	versagen	krank	1	acq_USunple_CSunple1_RW	acq4567_RW	5	68	400	1	300	300	397	50	0	0	1	blank2r.bmp	0	1	+	0	1	blank2r.bmp	492	1	ZHHZ	492	1	blank2r.bmp	572	1	sterben	866	1	!	1239	1	!	1292	0	0	0	0	0	0	0	0	0	0	0	0	0	0	0	0	0	0	0	0	0	0	0	0	0	0	0	0	0	0
082019	13:57:00	14:08:06	665074	5.0.10.0	5_exp_RW	107	Rpleas_acq	CS_A	JQQJ	YFFY	ZHHZ	DXXD	CPPC	LWWL	sonnig	genießen	träumen	gütig	vertrauen	küssen	sterben	gemein	töten	gierig	versagen	krank	1	acq_USunple_CSunple1_RW	acq4567_RW	5	69	400	0	300	300	479	46	0	1	1	blank2r.bmp	0	1	+	0	1	blank2r.bmp	492	1	ZHHZ	492	1	blank2r.bmp	572	3	töten	866	1	!	1239	1	!	-1	0	0	0	0	0	0	0	0	0	0	0	0	0	0	0	0	0	0	0	0	0	0	0	0	0	0	0	0	0	0
082019	13:57:00	14:08:08	667179	5.0.10.0	5_exp_RW	107	Rpleas_acq	CS_A	JQQJ	YFFY	ZHHZ	DXXD	CPPC	LWWL	sonnig	genießen	träumen	gütig	vertrauen	küssen	sterben	gemein	töten	gierig	versagen	krank	1	acq_USpleas_CSpleas2_RW	acq4567_RW	5	70	400	0	300	300	328	50	0	1	1	blank2r.bmp	0	1	+	0	1	blank2r.bmp	492	1	YFFY	492	1	blank2r.bmp	572	2	vertrauen	866	1	!	-1	1	!	-1	0	0	0	0	0	0	0	0	0	0	0	0	0	0	0	0	0	0	0	0	0	0	0	0	0	0	0	0	0	0
082019	13:57:00	14:08:10	669432	5.0.10.0	5_exp_RW	107	Rpleas_acq	CS_A	JQQJ	YFFY	ZHHZ	DXXD	CPPC	LWWL	sonnig	genießen	träumen	gütig	vertrauen	küssen	sterben	gemein	töten	gierig	versagen	krank	1	acq_USpleas_CSpleas2_RW	acq4567_RW	5	71	400	1	300	300	440	50	0	1	1	blank2r.bmp	0	1	+	0	1	blank2r.bmp	492	1	YFFY	492	1	blank2r.bmp	572	3	küssen	866	1	!	1239	1	!	1346	0	0	0	0	0	0	0	0	0	0	0	0	0	0	0	0	0	0	0	0	0	0	0	0	0	0	0	0	0	0
082019	13:57:00	14:08:12	671404	5.0.10.0	5_exp_RW	107	Rpleas_acq	CS_A	JQQJ	YFFY	ZHHZ	DXXD	CPPC	LWWL	sonnig	genießen	träumen	gütig	vertrauen	küssen	sterben	gemein	töten	gierig	versagen	krank	1	acq_USunple_CSunple2_RW	acq4567_RW	5	72	400	0	300	300	210	46	0	1	1	blank2r.bmp	0	1	+	0	1	blank2r.bmp	492	1	DXXD	492	1	blank2r.bmp	572	2	versagen	866	1	!	-1	1	!	-1	0	0	0	0	0	0	0	0	0	0	0	0	0	0	0	0	0	0	0	0	0	0	0	0	0	0	0	0	0	0
082019	13:57:00	14:08:14	673563	5.0.10.0	5_exp_RW	107	Rpleas_acq	CS_A	JQQJ	YFFY	ZHHZ	DXXD	CPPC	LWWL	sonnig	genießen	träumen	gütig	vertrauen	küssen	sterben	gemein	töten	gierig	versagen	krank	1	acq_USunple_CSunple1_RW	acq4567_RW	5	73	400	1	300	300	350	50	0	0	1	blank2r.bmp	0	1	+	0	1	blank2r.bmp	492	1	ZHHZ	492	1	blank2r.bmp	572	2	gemein	866	1	!	1239	1	!	1252	0	0	0	0	0	0	0	0	0	0	0	0	0	0	0	0	0	0	0	0	0	0	0	0	0	0	0	0	0	0
082019	13:57:00	14:08:17	675789	5.0.10.0	5_exp_RW	107	Rpleas_acq	CS_A	JQQJ	YFFY	ZHHZ	DXXD	CPPC	LWWL	sonnig	genießen	träumen	gütig	vertrauen	küssen	sterben	gemein	töten	gierig	versagen	krank	1	acq_USunple_CSunple1_RW	acq4567_RW	5	74	400	1	300	300	424	46	0	1	1	blank2r.bmp	0	1	+	0	1	blank2r.bmp	492	1	ZHHZ	492	1	blank2r.bmp	572	1	sterben	866	1	!	1239	1	!	1319	0	0	0	0	0	0	0	0	0	0	0	0	0	0	0	0	0	0	0	0	0	0	0	0	0	0	0	0	0	0
082019	13:57:00	14:08:19	677948	5.0.10.0	5_exp_RW	107	Rpleas_acq	CS_A	JQQJ	YFFY	ZHHZ	DXXD	CPPC	LWWL	sonnig	genießen	träumen	gütig	vertrauen	küssen	sterben	gemein	töten	gierig	versagen	krank	1	acq_USunple_CSunple2_RW	acq4567_RW	5	75	400	1	300	300	366	46	0	1	1	blank2r.bmp	0	1	+	0	1	blank2r.bmp	492	1	DXXD	492	1	blank2r.bmp	572	3	krank	866	1	!	1239	1	!	1266	0	0	0	0	0	0	0	0	0	0	0	0	0	0	0	0	0	0	0	0	0	0	0	0	0	0	0	0	0	0
082019	13:57:00	14:08:21	680107	5.0.10.0	5_exp_RW	107	Rpleas_acq	CS_A	JQQJ	YFFY	ZHHZ	DXXD	CPPC	LWWL	sonnig	genießen	träumen	gütig	vertrauen	küssen	sterben	gemein	töten	gierig	versagen	krank	1	acq_USpleas_CSpleas1_RW	acq4567_RW	5	76	400	1	300	300	365	50	0	1	1	blank2r.bmp	0	1	+	0	1	blank2r.bmp	492	1	JQQJ	492	1	blank2r.bmp	572	1	sonnig	866	1	!	1239	1	!	1266	0	0	0	0	0	0	0	0	0	0	0	0	0	0	0	0	0	0	0	0	0	0	0	0	0	0	0	0	0	0
082019	13:57:00	14:08:23	682253	5.0.10.0	5_exp_RW	107	Rpleas_acq	CS_A	JQQJ	YFFY	ZHHZ	DXXD	CPPC	LWWL	sonnig	genießen	träumen	gütig	vertrauen	küssen	sterben	gemein	töten	gierig	versagen	krank	1	acq_USunple_CSunple2_RW	acq4567_RW	5	77	400	1	300	300	357	46	0	1	1	blank2r.bmp	0	1	+	0	1	blank2r.bmp	492	1	DXXD	492	1	blank2r.bmp	572	1	gierig	866	1	!	1239	1	!	1252	0	0	0	0	0	0	0	0	0	0	0	0	0	0	0	0	0	0	0	0	0	0	0	0	0	0	0	0	0	0
082019	13:57:00	14:08:25	684426	5.0.10.0	5_exp_RW	107	Rpleas_acq	CS_A	JQQJ	YFFY	ZHHZ	DXXD	CPPC	LWWL	sonnig	genießen	träumen	gütig	vertrauen	küssen	sterben	gemein	töten	gierig	versagen	krank	1	acq_USpleas_CSpleas1_RW	acq4567_RW	5	78	400	1	300	300	384	46	0	0	1	blank2r.bmp	0	1	+	0	1	blank2r.bmp	492	1	JQQJ	492	1	blank2r.bmp	572	1	sonnig	866	1	!	1239	1	!	1279	0	0	0	0	0	0	0	0	0	0	0	0	0	0	0	0	0	0	0	0	0	0	0	0	0	0	0	0	0	0
082019	13:57:00	14:08:27	686638	5.0.10.0	5_exp_RW	107	Rpleas_acq	CS_A	JQQJ	YFFY	ZHHZ	DXXD	CPPC	LWWL	sonnig	genießen	träumen	gütig	vertrauen	küssen	sterben	gemein	töten	gierig	versagen	krank	1	acq_USpleas_CSpleas1_RW	acq4567_RW	5	79	400	1	300	300	414	50	0	1	1	blank2r.bmp	0	1	+	0	1	blank2r.bmp	492	1	JQQJ	492	1	blank2r.bmp	572	2	genießen	866	1	!	1239	1	!	1319	0	0	0	0	0	0	0	0	0	0	0	0	0	0	0	0	0	0	0	0	0	0	0	0	0	0	0	0	0	0
082019	13:57:00	14:08:30	688731	5.0.10.0	5_exp_RW	107	Rpleas_acq	CS_A	JQQJ	YFFY	ZHHZ	DXXD	CPPC	LWWL	sonnig	genießen	träumen	gütig	vertrauen	küssen	sterben	gemein	töten	gierig	versagen	krank	1	acq_USpleas_CSpleas2_RW	acq4567_RW	5	80	400	0	300	300	322	50	0	1	1	blank2r.bmp	0	1	+	0	1	blank2r.bmp	492	1	YFFY	492	1	blank2r.bmp	572	1	gütig	866	1	!	-1	1	!	-1	0	0	0	0	0	0	0	0	0	0	0	0	0	0	0	0	0	0	0	0	0	0	0	0	0	0	0	0	0	0
082019	13:57:00	14:08:46	705084	5.0.10.0	5_exp_RW	107	Rpleas_acq	CS_A	JQQJ	YFFY	ZHHZ	DXXD	CPPC	LWWL	sonnig	genießen	träumen	gütig	vertrauen	küssen	sterben	gemein	töten	gierig	versagen	krank	1	acq_USunple_CSunple2_RW	acq4567_RW	6	1	400	1	300	300	442	50	0	0	1	blank2r.bmp	0	1	+	0	1	blank2r.bmp	492	1	DXXD	492	1	blank2r.bmp	572	2	versagen	866	1	!	1239	1	!	1346	0	0	0	0	0	0	0	0	0	0	0	0	0	0	0	0	0	0	0	0	0	0	0	0	0	0	0	0	0	0
082019	13:57:00	14:08:48	707310	5.0.10.0	5_exp_RW	107	Rpleas_acq	CS_A	JQQJ	YFFY	ZHHZ	DXXD	CPPC	LWWL	sonnig	genießen	träumen	gütig	vertrauen	küssen	sterben	gemein	töten	gierig	versagen	krank	1	acq_USunple_CSunple1_RW	acq4567_RW	6	2	400	1	300	300	438	46	0	1	1	blank2r.bmp	0	1	+	0	1	blank2r.bmp	492	1	ZHHZ	492	1	blank2r.bmp	572	3	töten	866	1	!	1239	1	!	1332	0	0	0	0	0	0	0	0	0	0	0	0	0	0	0	0	0	0	0	0	0	0	0	0	0	0	0	0	0	0
082019	13:57:00	14:08:50	709549	5.0.10.0	5_exp_RW	107	Rpleas_acq	CS_A	JQQJ	YFFY	ZHHZ	DXXD	CPPC	LWWL	sonnig	genießen	träumen	gütig	vertrauen	küssen	sterben	gemein	töten	gierig	versagen	krank	1	acq_USpleas_CSpleas1_RW	acq4567_RW	6	3	400	1	300	300	441	46	0	0	1	blank2r.bmp	0	1	+	0	1	blank2r.bmp	492	1	JQQJ	492	1	blank2r.bmp	572	3	träumen	866	1	!	1239	1	!	1346	0	0	0	0	0	0	0	0	0	0	0	0	0	0	0	0	0	0	0	0	0	0	0	0	0	0	0	0	0	0
082019	13:57:00	14:08:53	711748	5.0.10.0	5_exp_RW	107	Rpleas_acq	CS_A	JQQJ	YFFY	ZHHZ	DXXD	CPPC	LWWL	sonnig	genießen	träumen	gütig	vertrauen	küssen	sterben	gemein	töten	gierig	versagen	krank	1	acq_USpleas_CSpleas1_RW	acq4567_RW	6	4	400	1	300	300	406	50	0	1	1	blank2r.bmp	0	1	+	0	1	blank2r.bmp	492	1	JQQJ	492	1	blank2r.bmp	572	3	träumen	866	1	!	1239	1	!	1306	0	0	0	0	0	0	0	0	0	0	0	0	0	0	0	0	0	0	0	0	0	0	0	0	0	0	0	0	0	0
082019	13:57:00	14:08:55	714080	5.0.10.0	5_exp_RW	107	Rpleas_acq	CS_A	JQQJ	YFFY	ZHHZ	DXXD	CPPC	LWWL	sonnig	genießen	träumen	gütig	vertrauen	küssen	sterben	gemein	töten	gierig	versagen	krank	1	acq_USunple_CSunple1_RW	acq4567_RW	6	5	400	0	300	300	559	46	0	1	1	blank2r.bmp	0	1	+	0	1	blank2r.bmp	492	1	ZHHZ	492	1	blank2r.bmp	572	1	sterben	866	1	!	1239	1	!	-1	0	0	0	0	0	0	0	0	0	0	0	0	0	0	0	0	0	0	0	0	0	0	0	0	0	0	0	0	0	0
082019	13:57:00	14:08:57	716373	5.0.10.0	5_exp_RW	107	Rpleas_acq	CS_A	JQQJ	YFFY	ZHHZ	DXXD	CPPC	LWWL	sonnig	genießen	träumen	gütig	vertrauen	küssen	sterben	gemein	töten	gierig	versagen	krank	1	acq_USunple_CSunple2_RW	acq4567_RW	6	6	400	0	300	300	517	46	0	1	1	blank2r.bmp	0	1	+	0	1	blank2r.bmp	492	1	DXXD	492	1	blank2r.bmp	572	3	krank	866	1	!	1239	1	!	-1	0	0	0	0	0	0	0	0	0	0	0	0	0	0	0	0	0	0	0	0	0	0	0	0	0	0	0	0	0	0
082019	13:57:00	14:08:59	718532	5.0.10.0	5_exp_RW	107	Rpleas_acq	CS_A	JQQJ	YFFY	ZHHZ	DXXD	CPPC	LWWL	sonnig	genießen	träumen	gütig	vertrauen	küssen	sterben	gemein	töten	gierig	versagen	krank	1	acq_USpleas_CSpleas2_RW	acq4567_RW	6	7	400	1	300	300	346	46	0	0	1	blank2r.bmp	0	1	+	0	1	blank2r.bmp	492	1	YFFY	492	1	blank2r.bmp	572	2	vertrauen	866	1	!	1239	1	!	1252	0	0	0	0	0	0	0	0	0	0	0	0	0	0	0	0	0	0	0	0	0	0	0	0	0	0	0	0	0	0
082019	13:57:00	14:09:02	720704	5.0.10.0	5_exp_RW	107	Rpleas_acq	CS_A	JQQJ	YFFY	ZHHZ	DXXD	CPPC	LWWL	sonnig	genießen	träumen	gütig	vertrauen	küssen	sterben	gemein	töten	gierig	versagen	krank	1	acq_USpleas_CSpleas2_RW	acq4567_RW	6	8	400	1	300	300	379	50	0	1	1	blank2r.bmp	0	1	+	0	1	blank2r.bmp	492	1	YFFY	492	1	blank2r.bmp	572	1	gütig	866	1	!	1239	1	!	1279	0	0	0	0	0	0	0	0	0	0	0	0	0	0	0	0	0	0	0	0	0	0	0	0	0	0	0	0	0	0
082019	13:57:00	14:09:04	722863	5.0.10.0	5_exp_RW	107	Rpleas_acq	CS_A	JQQJ	YFFY	ZHHZ	DXXD	CPPC	LWWL	sonnig	genießen	träumen	gütig	vertrauen	küssen	sterben	gemein	töten	gierig	versagen	krank	1	acq_USpleas_CSpleas2_RW	acq4567_RW	6	9	400	1	300	300	346	50	0	1	1	blank2r.bmp	0	1	+	0	1	blank2r.bmp	492	1	YFFY	492	1	blank2r.bmp	572	3	küssen	866	1	!	1239	1	!	1252	0	0	0	0	0	0	0	0	0	0	0	0	0	0	0	0	0	0	0	0	0	0	0	0	0	0	0	0	0	0
082019	13:57:00	14:09:06	725049	5.0.10.0	5_exp_RW	107	Rpleas_acq	CS_A	JQQJ	YFFY	ZHHZ	DXXD	CPPC	LWWL	sonnig	genießen	träumen	gütig	vertrauen	küssen	sterben	gemein	töten	gierig	versagen	krank	1	acq_USunple_CSunple2_RW	acq4567_RW	6	10	400	1	300	300	397	46	0	1	1	blank2r.bmp	0	1	+	0	1	blank2r.bmp	492	1	DXXD	492	1	blank2r.bmp	572	1	gierig	866	1	!	1239	1	!	1292	0	0	0	0	0	0	0	0	0	0	0	0	0	0	0	0	0	0	0	0	0	0	0	0	0	0	0	0	0	0
082019	13:57:00	14:09:08	727301	5.0.10.0	5_exp_RW	107	Rpleas_acq	CS_A	JQQJ	YFFY	ZHHZ	DXXD	CPPC	LWWL	sonnig	genießen	träumen	gütig	vertrauen	küssen	sterben	gemein	töten	gierig	versagen	krank	1	acq_USunple_CSunple1_RW	acq4567_RW	6	11	400	1	300	300	458	46	0	1	1	blank2r.bmp	0	1	+	0	1	blank2r.bmp	492	1	ZHHZ	492	1	blank2r.bmp	572	3	töten	866	1	!	1239	1	!	1359	0	0	0	0	0	0	0	0	0	0	0	0	0	0	0	0	0	0	0	0	0	0	0	0	0	0	0	0	0	0
082019	13:57:00	14:09:10	729554	5.0.10.0	5_exp_RW	107	Rpleas_acq	CS_A	JQQJ	YFFY	ZHHZ	DXXD	CPPC	LWWL	sonnig	genießen	träumen	gütig	vertrauen	küssen	sterben	gemein	töten	gierig	versagen	krank	1	acq_USunple_CSunple1_RW	acq4567_RW	6	12	400	0	300	300	483	46	0	1	1	blank2r.bmp	0	1	+	0	1	blank2r.bmp	492	1	ZHHZ	492	1	blank2r.bmp	572	2	gemein	866	1	!	1239	1	!	-1	0	0	0	0	0	0	0	0	0	0	0	0	0	0	0	0	0	0	0	0	0	0	0	0	0	0	0	0	0	0
