date	time	script.currenttime	script.elapsedtime	build	script.currentexpt	subject	expressions.LRpleas_acq	expressions.conditionCS_A	expressions.CSpleas_1	expressions.CSpleas_2	expressions.CSunple_1	expressions.CSunple_2	expressions.distractor_1	expressions.distractor_2	expressions.US_pleas1	expressions.US_pleas2	expressions.US_pleas3	expressions.US_pleas4	expressions.US_pleas5	expressions.US_pleas6	expressions.US_unple1	expressions.US_unple2	expressions.US_unple3	expressions.US_unple4	expressions.US_unple5	expressions.US_unple6	counter.positions_noRW	trialcode	blockcode	blocknum	trialnum	windowcenter	inwindow	pretrialpause	posttrialpause	latency	response	expressions.correctedscore	correct	stimulusnumber1	stimulusitem1	stimulusonset1	stimulusnumber2	stimulusitem2	stimulusonset2	stimulusnumber3	stimulusitem3	stimulusonset3	stimulusnumber4	stimulusitem4	stimulusonset4	stimulusnumber5	stimulusitem5	stimulusonset5	stimulusnumber6	stimulusitem6	stimulusonset6	stimulusnumber7	stimulusitem7	stimulusonset7	stimulusnumber8	stimulusitem8	stimulusonset8	stimulusnumber9	stimulusitem9	stimulusonset9	stimulusnumber10	stimulusitem10	stimulusonset10	stimulusnumber11	stimulusitem11	stimulusonset11	stimulusnumber12	stimulusitem12	stimulusonset12	stimulusnumber13	stimulusitem13	stimulusonset13	stimulusnumber14	stimulusitem14	stimulusonset14	stimulusnumber15	stimulusitem15	stimulusonset15	stimulusnumber16	stimulusitem16	stimulusonset16	stimulusnumber17	stimulusitem17	stimulusonset17	stimulusnumber18	stimulusitem18	stimulusonset18
071519	11:30:02	11:31:12	69358	5.0.10.0	5_exp_RW	47	Rpleas_acq	CS_A	JQQJ	ZHHZ	DXXD	CPPC	YFFY	LWWL	küssen	genießen	sonnig	träumen	vertrauen	gütig	krank	gemein	sterben	töten	versagen	gierig	1	acq_USunple_CSunple2_RW	acq1_RW	1	1	0	0	300	300	2902	46	0	1	1	blank2r.bmp	0	1	+	0	1	blank2r.bmp	492	1	CPPC	492	1	blank2r.bmp	572	3	gierig	866	0	0	0	0	0	0	0	0	0	0	0	0	0	0	0	0	0	0	0	0	0	0	0	0	0	0	0	0	0	0	0	0	0	0	0	0
071519	11:30:02	11:31:15	72023	5.0.10.0	5_exp_RW	47	Rpleas_acq	CS_A	JQQJ	ZHHZ	DXXD	CPPC	YFFY	LWWL	küssen	genießen	sonnig	träumen	vertrauen	gütig	krank	gemein	sterben	töten	versagen	gierig	1	acq_USunple_CSunple1_RW	acq1_RW	1	2	0	0	300	300	1178	46	0	1	1	blank2r.bmp	0	1	+	0	1	blank2r.bmp	492	1	DXXD	492	1	blank2r.bmp	572	2	gemein	866	0	0	0	0	0	0	0	0	0	0	0	0	0	0	0	0	0	0	0	0	0	0	0	0	0	0	0	0	0	0	0	0	0	0	0	0
071519	11:30:02	11:31:17	74076	5.0.10.0	5_exp_RW	47	Rpleas_acq	CS_A	JQQJ	ZHHZ	DXXD	CPPC	YFFY	LWWL	küssen	genießen	sonnig	träumen	vertrauen	gütig	krank	gemein	sterben	töten	versagen	gierig	1	acq_USpleas_CSpleas1_RW	acq1_RW	1	3	0	0	300	300	567	50	0	1	1	blank2r.bmp	0	1	+	0	1	blank2r.bmp	492	1	JQQJ	492	1	blank2r.bmp	572	1	küssen	866	0	0	0	0	0	0	0	0	0	0	0	0	0	0	0	0	0	0	0	0	0	0	0	0	0	0	0	0	0	0	0	0	0	0	0	0
071519	11:30:02	11:31:19	76328	5.0.10.0	5_exp_RW	47	Rpleas_acq	CS_A	JQQJ	ZHHZ	DXXD	CPPC	YFFY	LWWL	küssen	genießen	sonnig	träumen	vertrauen	gütig	krank	gemein	sterben	töten	versagen	gierig	1	acq_USunple_CSunple2_RW	acq1_RW	1	4	0	0	300	300	775	46	0	1	1	blank2r.bmp	0	1	+	0	1	blank2r.bmp	492	1	CPPC	492	1	blank2r.bmp	572	2	versagen	866	0	0	0	0	0	0	0	0	0	0	0	0	0	0	0	0	0	0	0	0	0	0	0	0	0	0	0	0	0	0	0	0	0	0	0	0
071519	11:30:02	11:31:22	78514	5.0.10.0	5_exp_RW	47	Rpleas_acq	CS_A	JQQJ	ZHHZ	DXXD	CPPC	YFFY	LWWL	küssen	genießen	sonnig	träumen	vertrauen	gütig	krank	gemein	sterben	töten	versagen	gierig	1	acq_USpleas_CSpleas1_RW	acq1_RW	1	5	0	0	300	300	710	50	0	1	1	blank2r.bmp	0	1	+	0	1	blank2r.bmp	492	1	JQQJ	492	1	blank2r.bmp	572	2	genießen	866	0	0	0	0	0	0	0	0	0	0	0	0	0	0	0	0	0	0	0	0	0	0	0	0	0	0	0	0	0	0	0	0	0	0	0	0
071519	11:30:02	11:31:24	80806	5.0.10.0	5_exp_RW	47	Rpleas_acq	CS_A	JQQJ	ZHHZ	DXXD	CPPC	YFFY	LWWL	küssen	genießen	sonnig	träumen	vertrauen	gütig	krank	gemein	sterben	töten	versagen	gierig	1	acq_USpleas_CSpleas2_RW	acq1_RW	1	6	0	0	300	300	805	50	0	1	1	blank2r.bmp	0	1	+	0	1	blank2r.bmp	492	1	ZHHZ	492	1	blank2r.bmp	572	3	gütig	866	0	0	0	0	0	0	0	0	0	0	0	0	0	0	0	0	0	0	0	0	0	0	0	0	0	0	0	0	0	0	0	0	0	0	0	0
071519	11:30:02	11:31:27	83738	5.0.10.0	5_exp_RW	47	Rpleas_acq	CS_A	JQQJ	ZHHZ	DXXD	CPPC	YFFY	LWWL	küssen	genießen	sonnig	träumen	vertrauen	gütig	krank	gemein	sterben	töten	versagen	gierig	1	acq_USpleas_CSpleas2_RW	acq1_RW	1	7	0	0	300	300	1450	50	0	1	1	blank2r.bmp	0	1	+	0	1	blank2r.bmp	492	1	ZHHZ	492	1	blank2r.bmp	572	1	träumen	866	0	0	0	0	0	0	0	0	0	0	0	0	0	0	0	0	0	0	0	0	0	0	0	0	0	0	0	0	0	0	0	0	0	0	0	0
071519	11:30:02	11:31:29	85964	5.0.10.0	5_exp_RW	47	Rpleas_acq	CS_A	JQQJ	ZHHZ	DXXD	CPPC	YFFY	LWWL	küssen	genießen	sonnig	träumen	vertrauen	gütig	krank	gemein	sterben	töten	versagen	gierig	1	acq_USunple_CSunple2_RW	acq1_RW	1	8	0	0	300	300	732	46	0	1	1	blank2r.bmp	0	1	+	0	1	blank2r.bmp	492	1	CPPC	492	1	blank2r.bmp	572	1	töten	866	0	0	0	0	0	0	0	0	0	0	0	0	0	0	0	0	0	0	0	0	0	0	0	0	0	0	0	0	0	0	0	0	0	0	0	0
071519	11:30:02	11:31:31	88110	5.0.10.0	5_exp_RW	47	Rpleas_acq	CS_A	JQQJ	ZHHZ	DXXD	CPPC	YFFY	LWWL	küssen	genießen	sonnig	träumen	vertrauen	gütig	krank	gemein	sterben	töten	versagen	gierig	1	acq_USunple_CSunple1_RW	acq1_RW	1	9	0	0	300	300	669	46	0	1	1	blank2r.bmp	0	1	+	0	1	blank2r.bmp	492	1	DXXD	492	1	blank2r.bmp	572	1	krank	866	0	0	0	0	0	0	0	0	0	0	0	0	0	0	0	0	0	0	0	0	0	0	0	0	0	0	0	0	0	0	0	0	0	0	0	0
071519	11:30:02	11:31:33	90202	5.0.10.0	5_exp_RW	47	Rpleas_acq	CS_A	JQQJ	ZHHZ	DXXD	CPPC	YFFY	LWWL	küssen	genießen	sonnig	träumen	vertrauen	gütig	krank	gemein	sterben	töten	versagen	gierig	1	acq_USpleas_CSpleas1_RW	acq1_RW	1	10	0	0	300	300	607	50	0	1	1	blank2r.bmp	0	1	+	0	1	blank2r.bmp	492	1	JQQJ	492	1	blank2r.bmp	572	3	sonnig	866	0	0	0	0	0	0	0	0	0	0	0	0	0	0	0	0	0	0	0	0	0	0	0	0	0	0	0	0	0	0	0	0	0	0	0	0
071519	11:30:02	11:31:36	93094	5.0.10.0	5_exp_RW	47	Rpleas_acq	CS_A	JQQJ	ZHHZ	DXXD	CPPC	YFFY	LWWL	küssen	genießen	sonnig	träumen	vertrauen	gütig	krank	gemein	sterben	töten	versagen	gierig	1	acq_USunple_CSunple2_RW	acq1_RW	1	11	0	0	300	300	1406	46	0	1	1	blank2r.bmp	0	1	+	0	1	blank2r.bmp	492	1	CPPC	492	1	blank2r.bmp	572	1	töten	866	0	0	0	0	0	0	0	0	0	0	0	0	0	0	0	0	0	0	0	0	0	0	0	0	0	0	0	0	0	0	0	0	0	0	0	0
071519	11:30:02	11:31:38	95267	5.0.10.0	5_exp_RW	47	Rpleas_acq	CS_A	JQQJ	ZHHZ	DXXD	CPPC	YFFY	LWWL	küssen	genießen	sonnig	träumen	vertrauen	gütig	krank	gemein	sterben	töten	versagen	gierig	1	acq_USunple_CSunple1_RW	acq1_RW	1	12	0	0	300	300	691	46	0	1	1	blank2r.bmp	0	1	+	0	1	blank2r.bmp	492	1	DXXD	492	1	blank2r.bmp	572	3	sterben	866	0	0	0	0	0	0	0	0	0	0	0	0	0	0	0	0	0	0	0	0	0	0	0	0	0	0	0	0	0	0	0	0	0	0	0	0
071519	11:30:02	11:31:40	97333	5.0.10.0	5_exp_RW	47	Rpleas_acq	CS_A	JQQJ	ZHHZ	DXXD	CPPC	YFFY	LWWL	küssen	genießen	sonnig	träumen	vertrauen	gütig	krank	gemein	sterben	töten	versagen	gierig	1	acq_USpleas_CSpleas2_RW	acq1_RW	1	13	0	0	300	300	594	50	0	1	1	blank2r.bmp	0	1	+	0	1	blank2r.bmp	492	1	ZHHZ	492	1	blank2r.bmp	572	2	vertrauen	866	0	0	0	0	0	0	0	0	0	0	0	0	0	0	0	0	0	0	0	0	0	0	0	0	0	0	0	0	0	0	0	0	0	0	0	0
071519	11:30:02	11:31:43	99478	5.0.10.0	5_exp_RW	47	Rpleas_acq	CS_A	JQQJ	ZHHZ	DXXD	CPPC	YFFY	LWWL	küssen	genießen	sonnig	träumen	vertrauen	gütig	krank	gemein	sterben	töten	versagen	gierig	1	acq_USpleas_CSpleas2_RW	acq1_RW	1	14	0	0	300	300	677	50	0	1	1	blank2r.bmp	0	1	+	0	1	blank2r.bmp	492	1	ZHHZ	492	1	blank2r.bmp	572	1	träumen	866	0	0	0	0	0	0	0	0	0	0	0	0	0	0	0	0	0	0	0	0	0	0	0	0	0	0	0	0	0	0	0	0	0	0	0	0
071519	11:30:02	11:31:45	101571	5.0.10.0	5_exp_RW	47	Rpleas_acq	CS_A	JQQJ	ZHHZ	DXXD	CPPC	YFFY	LWWL	küssen	genießen	sonnig	träumen	vertrauen	gütig	krank	gemein	sterben	töten	versagen	gierig	1	acq_USpleas_CSpleas1_RW	acq1_RW	1	15	0	0	300	300	599	50	0	1	1	blank2r.bmp	0	1	+	0	1	blank2r.bmp	492	1	JQQJ	492	1	blank2r.bmp	572	3	sonnig	866	0	0	0	0	0	0	0	0	0	0	0	0	0	0	0	0	0	0	0	0	0	0	0	0	0	0	0	0	0	0	0	0	0	0	0	0
071519	11:30:02	11:31:47	104063	5.0.10.0	5_exp_RW	47	Rpleas_acq	CS_A	JQQJ	ZHHZ	DXXD	CPPC	YFFY	LWWL	küssen	genießen	sonnig	träumen	vertrauen	gütig	krank	gemein	sterben	töten	versagen	gierig	1	acq_USunple_CSunple1_RW	acq1_RW	1	16	0	0	300	300	1016	46	0	1	1	blank2r.bmp	0	1	+	0	1	blank2r.bmp	492	1	DXXD	492	1	blank2r.bmp	572	3	sterben	866	0	0	0	0	0	0	0	0	0	0	0	0	0	0	0	0	0	0	0	0	0	0	0	0	0	0	0	0	0	0	0	0	0	0	0	0
071519	11:30:02	11:32:43	159627	5.0.10.0	5_exp_RW	47	Rpleas_acq	CS_A	JQQJ	ZHHZ	DXXD	CPPC	YFFY	LWWL	küssen	genießen	sonnig	träumen	vertrauen	gütig	krank	gemein	sterben	töten	versagen	gierig	1	acq_USunple_CSunple2_RW	acq2_RW	2	1	480	0	300	300	6372	46	0	1	1	blank2r.bmp	0	1	+	0	1	blank2r.bmp	492	1	CPPC	492	1	blank2r.bmp	572	3	gierig	866	1	!	1319	1	!	-1	0	0	0	0	0	0	0	0	0	0	0	0	0	0	0	0	0	0	0	0	0	0	0	0	0	0	0	0	0	0
071519	11:30:02	11:32:49	165945	5.0.10.0	5_exp_RW	47	Rpleas_acq	CS_A	JQQJ	ZHHZ	DXXD	CPPC	YFFY	LWWL	küssen	genießen	sonnig	träumen	vertrauen	gütig	krank	gemein	sterben	töten	versagen	gierig	1	acq_USunple_CSunple2_RW	acq2_RW	2	2	480	0	300	300	4531	46	0	1	1	blank2r.bmp	0	1	+	0	1	blank2r.bmp	492	1	CPPC	492	1	blank2r.bmp	572	2	versagen	866	1	!	1319	1	!	-1	0	0	0	0	0	0	0	0	0	0	0	0	0	0	0	0	0	0	0	0	0	0	0	0	0	0	0	0	0	0
071519	11:30:02	11:32:52	168450	5.0.10.0	5_exp_RW	47	Rpleas_acq	CS_A	JQQJ	ZHHZ	DXXD	CPPC	YFFY	LWWL	küssen	genießen	sonnig	träumen	vertrauen	gütig	krank	gemein	sterben	töten	versagen	gierig	1	acq_USunple_CSunple1_RW	acq2_RW	2	3	480	0	300	300	724	46	0	1	1	blank2r.bmp	0	1	+	0	1	blank2r.bmp	492	1	DXXD	492	1	blank2r.bmp	572	2	gemein	866	1	!	1319	1	!	-1	0	0	0	0	0	0	0	0	0	0	0	0	0	0	0	0	0	0	0	0	0	0	0	0	0	0	0	0	0	0
071519	11:30:02	11:32:54	170596	5.0.10.0	5_exp_RW	47	Rpleas_acq	CS_A	JQQJ	ZHHZ	DXXD	CPPC	YFFY	LWWL	küssen	genießen	sonnig	träumen	vertrauen	gütig	krank	gemein	sterben	töten	versagen	gierig	1	acq_USpleas_CSpleas2_RW	acq2_RW	2	4	480	0	300	300	366	50	0	1	1	blank2r.bmp	0	1	+	0	1	blank2r.bmp	492	1	ZHHZ	492	1	blank2r.bmp	572	3	gütig	866	1	!	-1	1	!	-1	0	0	0	0	0	0	0	0	0	0	0	0	0	0	0	0	0	0	0	0	0	0	0	0	0	0	0	0	0	0
071519	11:30:02	11:32:56	172982	5.0.10.0	5_exp_RW	47	Rpleas_acq	CS_A	JQQJ	ZHHZ	DXXD	CPPC	YFFY	LWWL	küssen	genießen	sonnig	träumen	vertrauen	gütig	krank	gemein	sterben	töten	versagen	gierig	1	acq_USunple_CSunple1_RW	acq2_RW	2	5	480	0	300	300	604	46	0	1	1	blank2r.bmp	0	1	+	0	1	blank2r.bmp	492	1	DXXD	492	1	blank2r.bmp	572	1	krank	866	1	!	1319	1	!	-1	0	0	0	0	0	0	0	0	0	0	0	0	0	0	0	0	0	0	0	0	0	0	0	0	0	0	0	0	0	0
071519	11:30:02	11:32:58	175221	5.0.10.0	5_exp_RW	47	Rpleas_acq	CS_A	JQQJ	ZHHZ	DXXD	CPPC	YFFY	LWWL	küssen	genießen	sonnig	träumen	vertrauen	gütig	krank	gemein	sterben	töten	versagen	gierig	1	acq_USpleas_CSpleas1_RW	acq2_RW	2	6	480	1	300	300	426	50	0	1	1	blank2r.bmp	0	1	+	0	1	blank2r.bmp	492	1	JQQJ	492	1	blank2r.bmp	572	1	küssen	866	1	!	1319	1	!	1332	0	0	0	0	0	0	0	0	0	0	0	0	0	0	0	0	0	0	0	0	0	0	0	0	0	0	0	0	0	0
071519	11:30:02	11:33:01	177580	5.0.10.0	5_exp_RW	47	Rpleas_acq	CS_A	JQQJ	ZHHZ	DXXD	CPPC	YFFY	LWWL	küssen	genießen	sonnig	träumen	vertrauen	gütig	krank	gemein	sterben	töten	versagen	gierig	1	acq_USunple_CSunple1_RW	acq2_RW	2	7	480	0	300	300	583	46	0	1	1	blank2r.bmp	0	1	+	0	1	blank2r.bmp	492	1	DXXD	492	1	blank2r.bmp	572	1	krank	866	1	!	1319	1	!	-1	0	0	0	0	0	0	0	0	0	0	0	0	0	0	0	0	0	0	0	0	0	0	0	0	0	0	0	0	0	0
071519	11:30:02	11:33:03	179832	5.0.10.0	5_exp_RW	47	Rpleas_acq	CS_A	JQQJ	ZHHZ	DXXD	CPPC	YFFY	LWWL	küssen	genießen	sonnig	träumen	vertrauen	gütig	krank	gemein	sterben	töten	versagen	gierig	1	acq_USunple_CSunple1_RW	acq2_RW	2	8	480	1	300	300	428	46	0	1	1	blank2r.bmp	0	1	+	0	1	blank2r.bmp	492	1	DXXD	492	1	blank2r.bmp	572	3	sterben	866	1	!	1319	1	!	1332	0	0	0	0	0	0	0	0	0	0	0	0	0	0	0	0	0	0	0	0	0	0	0	0	0	0	0	0	0	0
071519	11:30:02	11:33:05	181991	5.0.10.0	5_exp_RW	47	Rpleas_acq	CS_A	JQQJ	ZHHZ	DXXD	CPPC	YFFY	LWWL	küssen	genießen	sonnig	träumen	vertrauen	gütig	krank	gemein	sterben	töten	versagen	gierig	1	acq_USpleas_CSpleas2_RW	acq2_RW	2	9	480	0	300	300	394	50	0	1	1	blank2r.bmp	0	1	+	0	1	blank2r.bmp	492	1	ZHHZ	492	1	blank2r.bmp	572	2	vertrauen	866	1	!	-1	1	!	-1	0	0	0	0	0	0	0	0	0	0	0	0	0	0	0	0	0	0	0	0	0	0	0	0	0	0	0	0	0	0
071519	11:30:02	11:33:07	184364	5.0.10.0	5_exp_RW	47	Rpleas_acq	CS_A	JQQJ	ZHHZ	DXXD	CPPC	YFFY	LWWL	küssen	genießen	sonnig	träumen	vertrauen	gütig	krank	gemein	sterben	töten	versagen	gierig	1	acq_USunple_CSunple2_RW	acq2_RW	2	10	480	0	300	300	588	46	0	1	1	blank2r.bmp	0	1	+	0	1	blank2r.bmp	492	1	CPPC	492	1	blank2r.bmp	572	1	töten	866	1	!	1319	1	!	-1	0	0	0	0	0	0	0	0	0	0	0	0	0	0	0	0	0	0	0	0	0	0	0	0	0	0	0	0	0	0
071519	11:30:02	11:33:10	186616	5.0.10.0	5_exp_RW	47	Rpleas_acq	CS_A	JQQJ	ZHHZ	DXXD	CPPC	YFFY	LWWL	küssen	genießen	sonnig	träumen	vertrauen	gütig	krank	gemein	sterben	töten	versagen	gierig	1	acq_USpleas_CSpleas1_RW	acq2_RW	2	11	480	1	300	300	441	50	0	1	1	blank2r.bmp	0	1	+	0	1	blank2r.bmp	492	1	JQQJ	492	1	blank2r.bmp	572	2	genießen	866	1	!	1319	1	!	1346	0	0	0	0	0	0	0	0	0	0	0	0	0	0	0	0	0	0	0	0	0	0	0	0	0	0	0	0	0	0
071519	11:30:02	11:33:12	188775	5.0.10.0	5_exp_RW	47	Rpleas_acq	CS_A	JQQJ	ZHHZ	DXXD	CPPC	YFFY	LWWL	küssen	genießen	sonnig	träumen	vertrauen	gütig	krank	gemein	sterben	töten	versagen	gierig	1	acq_USpleas_CSpleas1_RW	acq2_RW	2	12	480	0	300	300	394	50	0	1	1	blank2r.bmp	0	1	+	0	1	blank2r.bmp	492	1	JQQJ	492	1	blank2r.bmp	572	1	küssen	866	1	!	-1	1	!	-1	0	0	0	0	0	0	0	0	0	0	0	0	0	0	0	0	0	0	0	0	0	0	0	0	0	0	0	0	0	0
071519	11:30:02	11:33:14	191148	5.0.10.0	5_exp_RW	47	Rpleas_acq	CS_A	JQQJ	ZHHZ	DXXD	CPPC	YFFY	LWWL	küssen	genießen	sonnig	träumen	vertrauen	gütig	krank	gemein	sterben	töten	versagen	gierig	1	acq_USunple_CSunple2_RW	acq2_RW	2	13	480	0	300	300	596	46	0	1	1	blank2r.bmp	0	1	+	0	1	blank2r.bmp	492	1	CPPC	492	1	blank2r.bmp	572	3	gierig	866	1	!	1319	1	!	-1	0	0	0	0	0	0	0	0	0	0	0	0	0	0	0	0	0	0	0	0	0	0	0	0	0	0	0	0	0	0
071519	11:30:02	11:33:16	193413	5.0.10.0	5_exp_RW	47	Rpleas_acq	CS_A	JQQJ	ZHHZ	DXXD	CPPC	YFFY	LWWL	küssen	genießen	sonnig	träumen	vertrauen	gütig	krank	gemein	sterben	töten	versagen	gierig	1	acq_USunple_CSunple2_RW	acq2_RW	2	14	480	1	300	300	455	46	0	1	1	blank2r.bmp	0	1	+	0	1	blank2r.bmp	492	1	CPPC	492	1	blank2r.bmp	572	2	versagen	866	1	!	1319	1	!	1359	0	0	0	0	0	0	0	0	0	0	0	0	0	0	0	0	0	0	0	0	0	0	0	0	0	0	0	0	0	0
071519	11:30:02	11:33:19	195759	5.0.10.0	5_exp_RW	47	Rpleas_acq	CS_A	JQQJ	ZHHZ	DXXD	CPPC	YFFY	LWWL	küssen	genießen	sonnig	träumen	vertrauen	gütig	krank	gemein	sterben	töten	versagen	gierig	1	acq_USunple_CSunple1_RW	acq2_RW	2	15	480	0	300	300	579	46	0	1	1	blank2r.bmp	0	1	+	0	1	blank2r.bmp	492	1	DXXD	492	1	blank2r.bmp	572	2	gemein	866	1	!	1319	1	!	-1	0	0	0	0	0	0	0	0	0	0	0	0	0	0	0	0	0	0	0	0	0	0	0	0	0	0	0	0	0	0
071519	11:30:02	11:33:21	197838	5.0.10.0	5_exp_RW	47	Rpleas_acq	CS_A	JQQJ	ZHHZ	DXXD	CPPC	YFFY	LWWL	küssen	genießen	sonnig	träumen	vertrauen	gütig	krank	gemein	sterben	töten	versagen	gierig	1	acq_USunple_CSunple1_RW	acq2_RW	2	16	480	0	300	300	297	46	0	1	1	blank2r.bmp	0	1	+	0	1	blank2r.bmp	492	1	DXXD	492	1	blank2r.bmp	572	2	gemein	866	1	!	-1	1	!	-1	0	0	0	0	0	0	0	0	0	0	0	0	0	0	0	0	0	0	0	0	0	0	0	0	0	0	0	0	0	0
071519	11:30:02	11:33:23	200237	5.0.10.0	5_exp_RW	47	Rpleas_acq	CS_A	JQQJ	ZHHZ	DXXD	CPPC	YFFY	LWWL	küssen	genießen	sonnig	träumen	vertrauen	gütig	krank	gemein	sterben	töten	versagen	gierig	1	acq_USpleas_CSpleas1_RW	acq2_RW	2	17	480	0	300	300	613	50	0	1	1	blank2r.bmp	0	1	+	0	1	blank2r.bmp	492	1	JQQJ	492	1	blank2r.bmp	572	2	genießen	866	1	!	1319	1	!	-1	0	0	0	0	0	0	0	0	0	0	0	0	0	0	0	0	0	0	0	0	0	0	0	0	0	0	0	0	0	0
071519	11:30:02	11:33:26	202610	5.0.10.0	5_exp_RW	47	Rpleas_acq	CS_A	JQQJ	ZHHZ	DXXD	CPPC	YFFY	LWWL	küssen	genießen	sonnig	träumen	vertrauen	gütig	krank	gemein	sterben	töten	versagen	gierig	1	acq_USunple_CSunple2_RW	acq2_RW	2	18	480	0	300	300	586	46	0	1	1	blank2r.bmp	0	1	+	0	1	blank2r.bmp	492	1	CPPC	492	1	blank2r.bmp	572	3	gierig	866	1	!	1319	1	!	-1	0	0	0	0	0	0	0	0	0	0	0	0	0	0	0	0	0	0	0	0	0	0	0	0	0	0	0	0	0	0
071519	11:30:02	11:33:28	204875	5.0.10.0	5_exp_RW	47	Rpleas_acq	CS_A	JQQJ	ZHHZ	DXXD	CPPC	YFFY	LWWL	küssen	genießen	sonnig	träumen	vertrauen	gütig	krank	gemein	sterben	töten	versagen	gierig	1	acq_USpleas_CSpleas1_RW	acq2_RW	2	19	480	1	300	300	461	50	0	1	1	blank2r.bmp	0	1	+	0	1	blank2r.bmp	492	1	JQQJ	492	1	blank2r.bmp	572	3	sonnig	866	1	!	1319	1	!	1359	0	0	0	0	0	0	0	0	0	0	0	0	0	0	0	0	0	0	0	0	0	0	0	0	0	0	0	0	0	0
071519	11:30:02	11:33:30	207141	5.0.10.0	5_exp_RW	47	Rpleas_acq	CS_A	JQQJ	ZHHZ	DXXD	CPPC	YFFY	LWWL	küssen	genießen	sonnig	träumen	vertrauen	gütig	krank	gemein	sterben	töten	versagen	gierig	1	acq_USpleas_CSpleas1_RW	acq2_RW	2	20	480	0	300	300	270	46	0	0	1	blank2r.bmp	0	1	+	0	1	blank2r.bmp	492	1	JQQJ	492	1	blank2r.bmp	572	1	küssen	866	1	FEHLER	1479	1	!	-1	1	!	-1	0	0	0	0	0	0	0	0	0	0	0	0	0	0	0	0	0	0	0	0	0	0	0	0	0	0	0
071519	11:30:02	11:33:33	209540	5.0.10.0	5_exp_RW	47	Rpleas_acq	CS_A	JQQJ	ZHHZ	DXXD	CPPC	YFFY	LWWL	küssen	genießen	sonnig	träumen	vertrauen	gütig	krank	gemein	sterben	töten	versagen	gierig	1	acq_USpleas_CSpleas2_RW	acq2_RW	2	21	480	0	300	300	614	46	0	0	1	blank2r.bmp	0	1	+	0	1	blank2r.bmp	492	1	ZHHZ	492	1	blank2r.bmp	572	3	gütig	866	1	FEHLER	1825	1	!	1319	1	!	-1	0	0	0	0	0	0	0	0	0	0	0	0	0	0	0	0	0	0	0	0	0	0	0	0	0	0	0
071519	11:30:02	11:33:35	211699	5.0.10.0	5_exp_RW	47	Rpleas_acq	CS_A	JQQJ	ZHHZ	DXXD	CPPC	YFFY	LWWL	küssen	genießen	sonnig	träumen	vertrauen	gütig	krank	gemein	sterben	töten	versagen	gierig	1	acq_USpleas_CSpleas2_RW	acq2_RW	2	22	480	0	300	300	611	50	0	1	1	blank2r.bmp	0	1	+	0	1	blank2r.bmp	492	1	ZHHZ	492	1	blank2r.bmp	572	1	träumen	866	1	!	1319	1	!	-1	0	0	0	0	0	0	0	0	0	0	0	0	0	0	0	0	0	0	0	0	0	0	0	0	0	0	0	0	0	0
071519	11:30:02	11:33:37	214365	5.0.10.0	5_exp_RW	47	Rpleas_acq	CS_A	JQQJ	ZHHZ	DXXD	CPPC	YFFY	LWWL	küssen	genießen	sonnig	träumen	vertrauen	gütig	krank	gemein	sterben	töten	versagen	gierig	1	acq_USpleas_CSpleas2_RW	acq2_RW	2	23	480	0	300	300	656	46	0	0	1	blank2r.bmp	0	1	+	0	1	blank2r.bmp	492	1	ZHHZ	492	1	blank2r.bmp	572	2	vertrauen	866	1	FEHLER	1865	1	!	1319	1	!	-1	0	0	0	0	0	0	0	0	0	0	0	0	0	0	0	0	0	0	0	0	0	0	0	0	0	0	0
071519	11:30:02	11:33:40	216511	5.0.10.0	5_exp_RW	47	Rpleas_acq	CS_A	JQQJ	ZHHZ	DXXD	CPPC	YFFY	LWWL	küssen	genießen	sonnig	träumen	vertrauen	gütig	krank	gemein	sterben	töten	versagen	gierig	1	acq_USpleas_CSpleas2_RW	acq2_RW	2	24	480	0	300	300	597	50	0	1	1	blank2r.bmp	0	1	+	0	1	blank2r.bmp	492	1	ZHHZ	492	1	blank2r.bmp	572	2	vertrauen	866	1	!	1319	1	!	-1	0	0	0	0	0	0	0	0	0	0	0	0	0	0	0	0	0	0	0	0	0	0	0	0	0	0	0	0	0	0
071519	11:30:02	11:33:58	234570	5.0.10.0	5_exp_RW	47	Rpleas_acq	CS_A	JQQJ	ZHHZ	DXXD	CPPC	YFFY	LWWL	küssen	genießen	sonnig	träumen	vertrauen	gütig	krank	gemein	sterben	töten	versagen	gierig	1	acq_USpleas_CSpleas2_RW	acq3_RW	3	1	453	0	300	300	598	50	0	1	1	blank2r.bmp	0	1	+	0	1	blank2r.bmp	492	1	ZHHZ	492	1	blank2r.bmp	572	1	träumen	866	1	!	1292	1	!	-1	0	0	0	0	0	0	0	0	0	0	0	0	0	0	0	0	0	0	0	0	0	0	0	0	0	0	0	0	0	0
071519	11:30:02	11:34:00	236756	5.0.10.0	5_exp_RW	47	Rpleas_acq	CS_A	JQQJ	ZHHZ	DXXD	CPPC	YFFY	LWWL	küssen	genießen	sonnig	träumen	vertrauen	gütig	krank	gemein	sterben	töten	versagen	gierig	1	acq_USpleas_CSpleas2_RW	acq3_RW	3	2	453	0	300	300	194	46	0	0	1	blank2r.bmp	0	1	+	0	1	blank2r.bmp	492	1	ZHHZ	492	1	blank2r.bmp	572	3	gütig	866	1	FEHLER	1399	1	!	-1	1	!	-1	0	0	0	0	0	0	0	0	0	0	0	0	0	0	0	0	0	0	0	0	0	0	0	0	0	0	0
071519	11:30:02	11:34:02	238808	5.0.10.0	5_exp_RW	47	Rpleas_acq	CS_A	JQQJ	ZHHZ	DXXD	CPPC	YFFY	LWWL	küssen	genießen	sonnig	träumen	vertrauen	gütig	krank	gemein	sterben	töten	versagen	gierig	1	acq_USpleas_CSpleas2_RW	acq3_RW	3	3	453	1	300	300	473	50	0	1	1	blank2r.bmp	0	1	+	0	1	blank2r.bmp	492	1	ZHHZ	492	1	blank2r.bmp	572	2	vertrauen	866	1	!	1292	1	!	1372	0	0	0	0	0	0	0	0	0	0	0	0	0	0	0	0	0	0	0	0	0	0	0	0	0	0	0	0	0	0
071519	11:30:02	11:34:04	241087	5.0.10.0	5_exp_RW	47	Rpleas_acq	CS_A	JQQJ	ZHHZ	DXXD	CPPC	YFFY	LWWL	küssen	genießen	sonnig	träumen	vertrauen	gütig	krank	gemein	sterben	töten	versagen	gierig	1	acq_USpleas_CSpleas1_RW	acq3_RW	3	4	453	1	300	300	486	50	0	1	1	blank2r.bmp	0	1	+	0	1	blank2r.bmp	492	1	JQQJ	492	1	blank2r.bmp	572	2	genießen	866	1	!	1292	1	!	1386	0	0	0	0	0	0	0	0	0	0	0	0	0	0	0	0	0	0	0	0	0	0	0	0	0	0	0	0	0	0
071519	11:30:02	11:34:06	243419	5.0.10.0	5_exp_RW	47	Rpleas_acq	CS_A	JQQJ	ZHHZ	DXXD	CPPC	YFFY	LWWL	küssen	genießen	sonnig	träumen	vertrauen	gütig	krank	gemein	sterben	töten	versagen	gierig	1	acq_USunple_CSunple2_RW	acq3_RW	3	5	453	0	300	300	571	46	0	1	1	blank2r.bmp	0	1	+	0	1	blank2r.bmp	492	1	CPPC	492	1	blank2r.bmp	572	1	töten	866	1	!	1292	1	!	-1	0	0	0	0	0	0	0	0	0	0	0	0	0	0	0	0	0	0	0	0	0	0	0	0	0	0	0	0	0	0
071519	11:30:02	11:34:09	245512	5.0.10.0	5_exp_RW	47	Rpleas_acq	CS_A	JQQJ	ZHHZ	DXXD	CPPC	YFFY	LWWL	küssen	genießen	sonnig	träumen	vertrauen	gütig	krank	gemein	sterben	töten	versagen	gierig	1	acq_USunple_CSunple1_RW	acq3_RW	3	6	453	0	300	300	308	46	0	1	1	blank2r.bmp	0	1	+	0	1	blank2r.bmp	492	1	DXXD	492	1	blank2r.bmp	572	1	krank	866	1	!	-1	1	!	-1	0	0	0	0	0	0	0	0	0	0	0	0	0	0	0	0	0	0	0	0	0	0	0	0	0	0	0	0	0	0
071519	11:30:02	11:34:11	247778	5.0.10.0	5_exp_RW	47	Rpleas_acq	CS_A	JQQJ	ZHHZ	DXXD	CPPC	YFFY	LWWL	küssen	genießen	sonnig	träumen	vertrauen	gütig	krank	gemein	sterben	töten	versagen	gierig	1	acq_USpleas_CSpleas1_RW	acq3_RW	3	7	453	1	300	300	457	50	0	1	1	blank2r.bmp	0	1	+	0	1	blank2r.bmp	492	1	JQQJ	492	1	blank2r.bmp	572	3	sonnig	866	1	!	1292	1	!	1359	0	0	0	0	0	0	0	0	0	0	0	0	0	0	0	0	0	0	0	0	0	0	0	0	0	0	0	0	0	0
071519	11:30:02	11:34:13	250217	5.0.10.0	5_exp_RW	47	Rpleas_acq	CS_A	JQQJ	ZHHZ	DXXD	CPPC	YFFY	LWWL	küssen	genießen	sonnig	träumen	vertrauen	gütig	krank	gemein	sterben	töten	versagen	gierig	1	acq_USpleas_CSpleas2_RW	acq3_RW	3	8	453	1	300	300	414	46	0	0	1	blank2r.bmp	0	1	+	0	1	blank2r.bmp	492	1	ZHHZ	492	1	blank2r.bmp	572	3	gütig	866	1	FEHLER	1639	1	!	1292	1	!	1319	0	0	0	0	0	0	0	0	0	0	0	0	0	0	0	0	0	0	0	0	0	0	0	0	0	0	0
071519	11:30:02	11:34:15	252389	5.0.10.0	5_exp_RW	47	Rpleas_acq	CS_A	JQQJ	ZHHZ	DXXD	CPPC	YFFY	LWWL	küssen	genießen	sonnig	träumen	vertrauen	gütig	krank	gemein	sterben	töten	versagen	gierig	1	acq_USunple_CSunple2_RW	acq3_RW	3	9	453	0	300	300	386	50	0	0	1	blank2r.bmp	0	1	+	0	1	blank2r.bmp	492	1	CPPC	492	1	blank2r.bmp	572	2	versagen	866	1	FEHLER	1599	1	!	-1	1	!	-1	0	0	0	0	0	0	0	0	0	0	0	0	0	0	0	0	0	0	0	0	0	0	0	0	0	0	0
071519	11:30:02	11:34:18	254535	5.0.10.0	5_exp_RW	47	Rpleas_acq	CS_A	JQQJ	ZHHZ	DXXD	CPPC	YFFY	LWWL	küssen	genießen	sonnig	träumen	vertrauen	gütig	krank	gemein	sterben	töten	versagen	gierig	1	acq_USunple_CSunple2_RW	acq3_RW	3	10	453	0	300	300	579	46	0	1	1	blank2r.bmp	0	1	+	0	1	blank2r.bmp	492	1	CPPC	492	1	blank2r.bmp	572	3	gierig	866	1	!	1292	1	!	-1	0	0	0	0	0	0	0	0	0	0	0	0	0	0	0	0	0	0	0	0	0	0	0	0	0	0	0	0	0	0
071519	11:30:02	11:34:20	256681	5.0.10.0	5_exp_RW	47	Rpleas_acq	CS_A	JQQJ	ZHHZ	DXXD	CPPC	YFFY	LWWL	küssen	genießen	sonnig	träumen	vertrauen	gütig	krank	gemein	sterben	töten	versagen	gierig	1	acq_USpleas_CSpleas1_RW	acq3_RW	3	11	453	0	300	300	367	50	0	1	1	blank2r.bmp	0	1	+	0	1	blank2r.bmp	492	1	JQQJ	492	1	blank2r.bmp	572	1	küssen	866	1	!	-1	1	!	-1	0	0	0	0	0	0	0	0	0	0	0	0	0	0	0	0	0	0	0	0	0	0	0	0	0	0	0	0	0	0
071519	11:30:02	11:34:22	259013	5.0.10.0	5_exp_RW	47	Rpleas_acq	CS_A	JQQJ	ZHHZ	DXXD	CPPC	YFFY	LWWL	küssen	genießen	sonnig	träumen	vertrauen	gütig	krank	gemein	sterben	töten	versagen	gierig	1	acq_USunple_CSunple1_RW	acq3_RW	3	12	453	0	300	300	553	46	0	1	1	blank2r.bmp	0	1	+	0	1	blank2r.bmp	492	1	DXXD	492	1	blank2r.bmp	572	3	sterben	866	1	!	1292	1	!	-1	0	0	0	0	0	0	0	0	0	0	0	0	0	0	0	0	0	0	0	0	0	0	0	0	0	0	0	0	0	0
071519	11:30:02	11:34:24	261159	5.0.10.0	5_exp_RW	47	Rpleas_acq	CS_A	JQQJ	ZHHZ	DXXD	CPPC	YFFY	LWWL	küssen	genießen	sonnig	träumen	vertrauen	gütig	krank	gemein	sterben	töten	versagen	gierig	1	acq_USunple_CSunple2_RW	acq3_RW	3	13	453	0	300	300	363	46	0	1	1	blank2r.bmp	0	1	+	0	1	blank2r.bmp	492	1	CPPC	492	1	blank2r.bmp	572	1	töten	866	1	!	-1	1	!	-1	0	0	0	0	0	0	0	0	0	0	0	0	0	0	0	0	0	0	0	0	0	0	0	0	0	0	0	0	0	0
071519	11:30:02	11:34:26	263425	5.0.10.0	5_exp_RW	47	Rpleas_acq	CS_A	JQQJ	ZHHZ	DXXD	CPPC	YFFY	LWWL	küssen	genießen	sonnig	träumen	vertrauen	gütig	krank	gemein	sterben	töten	versagen	gierig	1	acq_USpleas_CSpleas2_RW	acq3_RW	3	14	453	1	300	300	461	50	0	1	1	blank2r.bmp	0	1	+	0	1	blank2r.bmp	492	1	ZHHZ	492	1	blank2r.bmp	572	1	träumen	866	1	!	1292	1	!	1359	0	0	0	0	0	0	0	0	0	0	0	0	0	0	0	0	0	0	0	0	0	0	0	0	0	0	0	0	0	0
071519	11:30:02	11:34:29	265704	5.0.10.0	5_exp_RW	47	Rpleas_acq	CS_A	JQQJ	ZHHZ	DXXD	CPPC	YFFY	LWWL	küssen	genießen	sonnig	träumen	vertrauen	gütig	krank	gemein	sterben	töten	versagen	gierig	1	acq_USpleas_CSpleas1_RW	acq3_RW	3	15	453	1	300	300	482	50	0	1	1	blank2r.bmp	0	1	+	0	1	blank2r.bmp	492	1	JQQJ	492	1	blank2r.bmp	572	3	sonnig	866	1	!	1292	1	!	1386	0	0	0	0	0	0	0	0	0	0	0	0	0	0	0	0	0	0	0	0	0	0	0	0	0	0	0	0	0	0
071519	11:30:02	11:34:31	267796	5.0.10.0	5_exp_RW	47	Rpleas_acq	CS_A	JQQJ	ZHHZ	DXXD	CPPC	YFFY	LWWL	küssen	genießen	sonnig	träumen	vertrauen	gütig	krank	gemein	sterben	töten	versagen	gierig	1	acq_USunple_CSunple2_RW	acq3_RW	3	16	453	0	300	300	319	46	0	1	1	blank2r.bmp	0	1	+	0	1	blank2r.bmp	492	1	CPPC	492	1	blank2r.bmp	572	2	versagen	866	1	!	-1	1	!	-1	0	0	0	0	0	0	0	0	0	0	0	0	0	0	0	0	0	0	0	0	0	0	0	0	0	0	0	0	0	0
071519	11:30:02	11:34:33	270262	5.0.10.0	5_exp_RW	47	Rpleas_acq	CS_A	JQQJ	ZHHZ	DXXD	CPPC	YFFY	LWWL	küssen	genießen	sonnig	träumen	vertrauen	gütig	krank	gemein	sterben	töten	versagen	gierig	1	acq_USunple_CSunple1_RW	acq3_RW	3	17	453	0	300	300	688	46	0	1	1	blank2r.bmp	0	1	+	0	1	blank2r.bmp	492	1	DXXD	492	1	blank2r.bmp	572	2	gemein	866	1	!	1292	1	!	-1	0	0	0	0	0	0	0	0	0	0	0	0	0	0	0	0	0	0	0	0	0	0	0	0	0	0	0	0	0	0
071519	11:30:02	11:34:36	272528	5.0.10.0	5_exp_RW	47	Rpleas_acq	CS_A	JQQJ	ZHHZ	DXXD	CPPC	YFFY	LWWL	küssen	genießen	sonnig	träumen	vertrauen	gütig	krank	gemein	sterben	töten	versagen	gierig	1	acq_USpleas_CSpleas2_RW	acq3_RW	3	18	453	1	300	300	455	50	0	1	1	blank2r.bmp	0	1	+	0	1	blank2r.bmp	492	1	ZHHZ	492	1	blank2r.bmp	572	1	träumen	866	1	!	1292	1	!	1359	0	0	0	0	0	0	0	0	0	0	0	0	0	0	0	0	0	0	0	0	0	0	0	0	0	0	0	0	0	0
071519	11:30:02	11:34:38	274660	5.0.10.0	5_exp_RW	47	Rpleas_acq	CS_A	JQQJ	ZHHZ	DXXD	CPPC	YFFY	LWWL	küssen	genießen	sonnig	träumen	vertrauen	gütig	krank	gemein	sterben	töten	versagen	gierig	1	acq_USunple_CSunple2_RW	acq3_RW	3	19	453	0	300	300	365	46	0	1	1	blank2r.bmp	0	1	+	0	1	blank2r.bmp	492	1	CPPC	492	1	blank2r.bmp	572	1	töten	866	1	!	-1	1	!	-1	0	0	0	0	0	0	0	0	0	0	0	0	0	0	0	0	0	0	0	0	0	0	0	0	0	0	0	0	0	0
071519	11:30:02	11:34:40	276979	5.0.10.0	5_exp_RW	47	Rpleas_acq	CS_A	JQQJ	ZHHZ	DXXD	CPPC	YFFY	LWWL	küssen	genießen	sonnig	träumen	vertrauen	gütig	krank	gemein	sterben	töten	versagen	gierig	1	acq_USunple_CSunple1_RW	acq3_RW	3	20	453	0	300	300	532	46	0	1	1	blank2r.bmp	0	1	+	0	1	blank2r.bmp	492	1	DXXD	492	1	blank2r.bmp	572	1	krank	866	1	!	1292	1	!	-1	0	0	0	0	0	0	0	0	0	0	0	0	0	0	0	0	0	0	0	0	0	0	0	0	0	0	0	0	0	0
071519	11:30:02	11:34:42	279325	5.0.10.0	5_exp_RW	47	Rpleas_acq	CS_A	JQQJ	ZHHZ	DXXD	CPPC	YFFY	LWWL	küssen	genießen	sonnig	träumen	vertrauen	gütig	krank	gemein	sterben	töten	versagen	gierig	1	acq_USpleas_CSpleas1_RW	acq3_RW	3	21	453	0	300	300	566	50	0	1	1	blank2r.bmp	0	1	+	0	1	blank2r.bmp	492	1	JQQJ	492	1	blank2r.bmp	572	2	genießen	866	1	!	1292	1	!	-1	0	0	0	0	0	0	0	0	0	0	0	0	0	0	0	0	0	0	0	0	0	0	0	0	0	0	0	0	0	0
071519	11:30:02	11:34:45	281644	5.0.10.0	5_exp_RW	47	Rpleas_acq	CS_A	JQQJ	ZHHZ	DXXD	CPPC	YFFY	LWWL	küssen	genießen	sonnig	träumen	vertrauen	gütig	krank	gemein	sterben	töten	versagen	gierig	1	acq_USunple_CSunple1_RW	acq3_RW	3	22	453	0	300	300	535	46	0	1	1	blank2r.bmp	0	1	+	0	1	blank2r.bmp	492	1	DXXD	492	1	blank2r.bmp	572	3	sterben	866	1	!	1292	1	!	-1	0	0	0	0	0	0	0	0	0	0	0	0	0	0	0	0	0	0	0	0	0	0	0	0	0	0	0	0	0	0
071519	11:30:02	11:34:47	283923	5.0.10.0	5_exp_RW	47	Rpleas_acq	CS_A	JQQJ	ZHHZ	DXXD	CPPC	YFFY	LWWL	küssen	genießen	sonnig	träumen	vertrauen	gütig	krank	gemein	sterben	töten	versagen	gierig	1	acq_USunple_CSunple1_RW	acq3_RW	3	23	453	1	300	300	475	46	0	1	1	blank2r.bmp	0	1	+	0	1	blank2r.bmp	492	1	DXXD	492	1	blank2r.bmp	572	3	sterben	866	1	!	1292	1	!	1372	0	0	0	0	0	0	0	0	0	0	0	0	0	0	0	0	0	0	0	0	0	0	0	0	0	0	0	0	0	0
071519	11:30:02	11:34:49	286135	5.0.10.0	5_exp_RW	47	Rpleas_acq	CS_A	JQQJ	ZHHZ	DXXD	CPPC	YFFY	LWWL	küssen	genießen	sonnig	träumen	vertrauen	gütig	krank	gemein	sterben	töten	versagen	gierig	1	acq_USpleas_CSpleas1_RW	acq3_RW	3	24	453	1	300	300	424	50	0	1	1	blank2r.bmp	0	1	+	0	1	blank2r.bmp	492	1	JQQJ	492	1	blank2r.bmp	572	1	küssen	866	1	!	1292	1	!	1319	0	0	0	0	0	0	0	0	0	0	0	0	0	0	0	0	0	0	0	0	0	0	0	0	0	0	0	0	0	0
071519	11:30:02	11:34:59	295678	5.0.10.0	5_exp_RW	47	Rpleas_acq	CS_A	JQQJ	ZHHZ	DXXD	CPPC	YFFY	LWWL	küssen	genießen	sonnig	träumen	vertrauen	gütig	krank	gemein	sterben	töten	versagen	gierig	1	acq_USunple_CSunple1_RW	acq4567_RW	4	1	400	0	300	300	497	46	0	1	1	blank2r.bmp	0	1	+	0	1	blank2r.bmp	492	1	DXXD	492	1	blank2r.bmp	572	1	krank	866	1	!	1239	1	!	-1	0	0	0	0	0	0	0	0	0	0	0	0	0	0	0	0	0	0	0	0	0	0	0	0	0	0	0	0	0	0
071519	11:30:02	11:35:01	297877	5.0.10.0	5_exp_RW	47	Rpleas_acq	CS_A	JQQJ	ZHHZ	DXXD	CPPC	YFFY	LWWL	küssen	genießen	sonnig	träumen	vertrauen	gütig	krank	gemein	sterben	töten	versagen	gierig	1	acq_USunple_CSunple2_RW	acq4567_RW	4	2	400	1	300	300	395	46	0	1	1	blank2r.bmp	0	1	+	0	1	blank2r.bmp	492	1	CPPC	492	1	blank2r.bmp	572	3	gierig	866	1	!	1239	1	!	1292	0	0	0	0	0	0	0	0	0	0	0	0	0	0	0	0	0	0	0	0	0	0	0	0	0	0	0	0	0	0
071519	11:30:02	11:35:03	300143	5.0.10.0	5_exp_RW	47	Rpleas_acq	CS_A	JQQJ	ZHHZ	DXXD	CPPC	YFFY	LWWL	küssen	genießen	sonnig	träumen	vertrauen	gütig	krank	gemein	sterben	töten	versagen	gierig	1	acq_USunple_CSunple1_RW	acq4567_RW	4	3	400	0	300	300	499	46	0	1	1	blank2r.bmp	0	1	+	0	1	blank2r.bmp	492	1	DXXD	492	1	blank2r.bmp	572	2	gemein	866	1	!	1239	1	!	-1	0	0	0	0	0	0	0	0	0	0	0	0	0	0	0	0	0	0	0	0	0	0	0	0	0	0	0	0	0	0
071519	11:30:02	11:35:05	302395	5.0.10.0	5_exp_RW	47	Rpleas_acq	CS_A	JQQJ	ZHHZ	DXXD	CPPC	YFFY	LWWL	küssen	genießen	sonnig	träumen	vertrauen	gütig	krank	gemein	sterben	töten	versagen	gierig	1	acq_USunple_CSunple2_RW	acq4567_RW	4	4	400	1	300	300	445	46	0	1	1	blank2r.bmp	0	1	+	0	1	blank2r.bmp	492	1	CPPC	492	1	blank2r.bmp	572	2	versagen	866	1	!	1239	1	!	1346	0	0	0	0	0	0	0	0	0	0	0	0	0	0	0	0	0	0	0	0	0	0	0	0	0	0	0	0	0	0
071519	11:30:02	11:35:08	304674	5.0.10.0	5_exp_RW	47	Rpleas_acq	CS_A	JQQJ	ZHHZ	DXXD	CPPC	YFFY	LWWL	küssen	genießen	sonnig	träumen	vertrauen	gütig	krank	gemein	sterben	töten	versagen	gierig	1	acq_USpleas_CSpleas2_RW	acq4567_RW	4	5	400	0	300	300	505	46	0	0	1	blank2r.bmp	0	1	+	0	1	blank2r.bmp	492	1	ZHHZ	492	1	blank2r.bmp	572	2	vertrauen	866	1	!	1239	1	!	-1	0	0	0	0	0	0	0	0	0	0	0	0	0	0	0	0	0	0	0	0	0	0	0	0	0	0	0	0	0	0
071519	11:30:02	11:35:10	306847	5.0.10.0	5_exp_RW	47	Rpleas_acq	CS_A	JQQJ	ZHHZ	DXXD	CPPC	YFFY	LWWL	küssen	genießen	sonnig	träumen	vertrauen	gütig	krank	gemein	sterben	töten	versagen	gierig	1	acq_USunple_CSunple2_RW	acq4567_RW	4	6	400	1	300	300	372	46	0	1	1	blank2r.bmp	0	1	+	0	1	blank2r.bmp	492	1	CPPC	492	1	blank2r.bmp	572	3	gierig	866	1	!	1239	1	!	1266	0	0	0	0	0	0	0	0	0	0	0	0	0	0	0	0	0	0	0	0	0	0	0	0	0	0	0	0	0	0
071519	11:30:02	11:35:12	309206	5.0.10.0	5_exp_RW	47	Rpleas_acq	CS_A	JQQJ	ZHHZ	DXXD	CPPC	YFFY	LWWL	küssen	genießen	sonnig	träumen	vertrauen	gütig	krank	gemein	sterben	töten	versagen	gierig	1	acq_USpleas_CSpleas2_RW	acq4567_RW	4	7	400	0	300	300	587	50	0	1	1	blank2r.bmp	0	1	+	0	1	blank2r.bmp	492	1	ZHHZ	492	1	blank2r.bmp	572	3	gütig	866	1	!	1239	1	!	-1	0	0	0	0	0	0	0	0	0	0	0	0	0	0	0	0	0	0	0	0	0	0	0	0	0	0	0	0	0	0
071519	11:30:02	11:35:14	311392	5.0.10.0	5_exp_RW	47	Rpleas_acq	CS_A	JQQJ	ZHHZ	DXXD	CPPC	YFFY	LWWL	küssen	genießen	sonnig	träumen	vertrauen	gütig	krank	gemein	sterben	töten	versagen	gierig	1	acq_USpleas_CSpleas2_RW	acq4567_RW	4	8	400	1	300	300	380	50	0	1	1	blank2r.bmp	0	1	+	0	1	blank2r.bmp	492	1	ZHHZ	492	1	blank2r.bmp	572	1	träumen	866	1	!	1239	1	!	1279	0	0	0	0	0	0	0	0	0	0	0	0	0	0	0	0	0	0	0	0	0	0	0	0	0	0	0	0	0	0
071519	11:30:02	11:35:17	313591	5.0.10.0	5_exp_RW	47	Rpleas_acq	CS_A	JQQJ	ZHHZ	DXXD	CPPC	YFFY	LWWL	küssen	genießen	sonnig	träumen	vertrauen	gütig	krank	gemein	sterben	töten	versagen	gierig	1	acq_USpleas_CSpleas2_RW	acq4567_RW	4	9	400	1	300	300	387	46	0	0	1	blank2r.bmp	0	1	+	0	1	blank2r.bmp	492	1	ZHHZ	492	1	blank2r.bmp	572	2	vertrauen	866	1	!	1239	1	!	1292	0	0	0	0	0	0	0	0	0	0	0	0	0	0	0	0	0	0	0	0	0	0	0	0	0	0	0	0	0	0
071519	11:30:02	11:35:19	315896	5.0.10.0	5_exp_RW	47	Rpleas_acq	CS_A	JQQJ	ZHHZ	DXXD	CPPC	YFFY	LWWL	küssen	genießen	sonnig	träumen	vertrauen	gütig	krank	gemein	sterben	töten	versagen	gierig	1	acq_USunple_CSunple2_RW	acq4567_RW	4	10	400	0	300	300	534	46	0	1	1	blank2r.bmp	0	1	+	0	1	blank2r.bmp	492	1	CPPC	492	1	blank2r.bmp	572	1	töten	866	1	!	1239	1	!	-1	0	0	0	0	0	0	0	0	0	0	0	0	0	0	0	0	0	0	0	0	0	0	0	0	0	0	0	0	0	0
071519	11:30:02	11:35:21	318136	5.0.10.0	5_exp_RW	47	Rpleas_acq	CS_A	JQQJ	ZHHZ	DXXD	CPPC	YFFY	LWWL	küssen	genießen	sonnig	träumen	vertrauen	gütig	krank	gemein	sterben	töten	versagen	gierig	1	acq_USpleas_CSpleas1_RW	acq4567_RW	4	11	400	1	300	300	428	50	0	1	1	blank2r.bmp	0	1	+	0	1	blank2r.bmp	492	1	JQQJ	492	1	blank2r.bmp	572	2	genießen	866	1	!	1239	1	!	1332	0	0	0	0	0	0	0	0	0	0	0	0	0	0	0	0	0	0	0	0	0	0	0	0	0	0	0	0	0	0
071519	11:30:02	11:35:24	320468	5.0.10.0	5_exp_RW	47	Rpleas_acq	CS_A	JQQJ	ZHHZ	DXXD	CPPC	YFFY	LWWL	küssen	genießen	sonnig	träumen	vertrauen	gütig	krank	gemein	sterben	töten	versagen	gierig	1	acq_USunple_CSunple2_RW	acq4567_RW	4	12	400	0	300	300	567	46	0	1	1	blank2r.bmp	0	1	+	0	1	blank2r.bmp	492	1	CPPC	492	1	blank2r.bmp	572	2	versagen	866	1	!	1239	1	!	-1	0	0	0	0	0	0	0	0	0	0	0	0	0	0	0	0	0	0	0	0	0	0	0	0	0	0	0	0	0	0
071519	11:30:02	11:35:26	322734	5.0.10.0	5_exp_RW	47	Rpleas_acq	CS_A	JQQJ	ZHHZ	DXXD	CPPC	YFFY	LWWL	küssen	genießen	sonnig	träumen	vertrauen	gütig	krank	gemein	sterben	töten	versagen	gierig	1	acq_USunple_CSunple1_RW	acq4567_RW	4	13	400	1	300	300	457	46	0	1	1	blank2r.bmp	0	1	+	0	1	blank2r.bmp	492	1	DXXD	492	1	blank2r.bmp	572	3	sterben	866	1	!	1239	1	!	1359	0	0	0	0	0	0	0	0	0	0	0	0	0	0	0	0	0	0	0	0	0	0	0	0	0	0	0	0	0	0
071519	11:30:02	11:35:28	324973	5.0.10.0	5_exp_RW	47	Rpleas_acq	CS_A	JQQJ	ZHHZ	DXXD	CPPC	YFFY	LWWL	küssen	genießen	sonnig	träumen	vertrauen	gütig	krank	gemein	sterben	töten	versagen	gierig	1	acq_USunple_CSunple1_RW	acq4567_RW	4	14	400	1	300	300	425	46	0	1	1	blank2r.bmp	0	1	+	0	1	blank2r.bmp	492	1	DXXD	492	1	blank2r.bmp	572	1	krank	866	1	!	1239	1	!	1332	0	0	0	0	0	0	0	0	0	0	0	0	0	0	0	0	0	0	0	0	0	0	0	0	0	0	0	0	0	0
071519	11:30:02	11:35:30	327185	5.0.10.0	5_exp_RW	47	Rpleas_acq	CS_A	JQQJ	ZHHZ	DXXD	CPPC	YFFY	LWWL	küssen	genießen	sonnig	träumen	vertrauen	gütig	krank	gemein	sterben	töten	versagen	gierig	1	acq_USpleas_CSpleas2_RW	acq4567_RW	4	15	400	1	300	300	422	50	0	1	1	blank2r.bmp	0	1	+	0	1	blank2r.bmp	492	1	ZHHZ	492	1	blank2r.bmp	572	3	gütig	866	1	!	1239	1	!	1319	0	0	0	0	0	0	0	0	0	0	0	0	0	0	0	0	0	0	0	0	0	0	0	0	0	0	0	0	0	0
071519	11:30:02	11:35:33	329451	5.0.10.0	5_exp_RW	47	Rpleas_acq	CS_A	JQQJ	ZHHZ	DXXD	CPPC	YFFY	LWWL	küssen	genießen	sonnig	träumen	vertrauen	gütig	krank	gemein	sterben	töten	versagen	gierig	1	acq_USpleas_CSpleas1_RW	acq4567_RW	4	16	400	0	300	300	501	50	0	1	1	blank2r.bmp	0	1	+	0	1	blank2r.bmp	492	1	JQQJ	492	1	blank2r.bmp	572	3	sonnig	866	1	!	1239	1	!	-1	0	0	0	0	0	0	0	0	0	0	0	0	0	0	0	0	0	0	0	0	0	0	0	0	0	0	0	0	0	0
071519	11:30:02	11:35:35	331703	5.0.10.0	5_exp_RW	47	Rpleas_acq	CS_A	JQQJ	ZHHZ	DXXD	CPPC	YFFY	LWWL	küssen	genießen	sonnig	träumen	vertrauen	gütig	krank	gemein	sterben	töten	versagen	gierig	1	acq_USpleas_CSpleas1_RW	acq4567_RW	4	17	400	1	300	300	443	50	0	1	1	blank2r.bmp	0	1	+	0	1	blank2r.bmp	492	1	JQQJ	492	1	blank2r.bmp	572	1	küssen	866	1	!	1239	1	!	1346	0	0	0	0	0	0	0	0	0	0	0	0	0	0	0	0	0	0	0	0	0	0	0	0	0	0	0	0	0	0
071519	11:30:02	11:35:37	333916	5.0.10.0	5_exp_RW	47	Rpleas_acq	CS_A	JQQJ	ZHHZ	DXXD	CPPC	YFFY	LWWL	küssen	genießen	sonnig	träumen	vertrauen	gütig	krank	gemein	sterben	töten	versagen	gierig	1	acq_USpleas_CSpleas1_RW	acq4567_RW	4	18	400	1	300	300	410	50	0	1	1	blank2r.bmp	0	1	+	0	1	blank2r.bmp	492	1	JQQJ	492	1	blank2r.bmp	572	3	sonnig	866	1	!	1239	1	!	1306	0	0	0	0	0	0	0	0	0	0	0	0	0	0	0	0	0	0	0	0	0	0	0	0	0	0	0	0	0	0
071519	11:30:02	11:35:39	336075	5.0.10.0	5_exp_RW	47	Rpleas_acq	CS_A	JQQJ	ZHHZ	DXXD	CPPC	YFFY	LWWL	küssen	genießen	sonnig	träumen	vertrauen	gütig	krank	gemein	sterben	töten	versagen	gierig	1	acq_USunple_CSunple1_RW	acq4567_RW	4	19	400	1	300	300	362	46	0	1	1	blank2r.bmp	0	1	+	0	1	blank2r.bmp	492	1	DXXD	492	1	blank2r.bmp	572	2	gemein	866	1	!	1239	1	!	1266	0	0	0	0	0	0	0	0	0	0	0	0	0	0	0	0	0	0	0	0	0	0	0	0	0	0	0	0	0	0
071519	11:30:02	11:35:41	338341	5.0.10.0	5_exp_RW	47	Rpleas_acq	CS_A	JQQJ	ZHHZ	DXXD	CPPC	YFFY	LWWL	küssen	genießen	sonnig	träumen	vertrauen	gütig	krank	gemein	sterben	töten	versagen	gierig	1	acq_USpleas_CSpleas1_RW	acq4567_RW	4	20	400	0	300	300	499	50	0	1	1	blank2r.bmp	0	1	+	0	1	blank2r.bmp	492	1	JQQJ	492	1	blank2r.bmp	572	2	genießen	866	1	!	1239	1	!	-1	0	0	0	0	0	0	0	0	0	0	0	0	0	0	0	0	0	0	0	0	0	0	0	0	0	0	0	0	0	0
071519	11:30:02	11:35:44	340580	5.0.10.0	5_exp_RW	47	Rpleas_acq	CS_A	JQQJ	ZHHZ	DXXD	CPPC	YFFY	LWWL	küssen	genießen	sonnig	träumen	vertrauen	gütig	krank	gemein	sterben	töten	versagen	gierig	1	acq_USpleas_CSpleas1_RW	acq4567_RW	4	21	400	1	300	300	436	50	0	1	1	blank2r.bmp	0	1	+	0	1	blank2r.bmp	492	1	JQQJ	492	1	blank2r.bmp	572	2	genießen	866	1	!	1239	1	!	1332	0	0	0	0	0	0	0	0	0	0	0	0	0	0	0	0	0	0	0	0	0	0	0	0	0	0	0	0	0	0
071519	11:30:02	11:35:46	342819	5.0.10.0	5_exp_RW	47	Rpleas_acq	CS_A	JQQJ	ZHHZ	DXXD	CPPC	YFFY	LWWL	küssen	genießen	sonnig	träumen	vertrauen	gütig	krank	gemein	sterben	töten	versagen	gierig	1	acq_USunple_CSunple2_RW	acq4567_RW	4	22	400	1	300	300	426	46	0	1	1	blank2r.bmp	0	1	+	0	1	blank2r.bmp	492	1	CPPC	492	1	blank2r.bmp	572	3	gierig	866	1	!	1239	1	!	1332	0	0	0	0	0	0	0	0	0	0	0	0	0	0	0	0	0	0	0	0	0	0	0	0	0	0	0	0	0	0
071519	11:30:02	11:35:48	345018	5.0.10.0	5_exp_RW	47	Rpleas_acq	CS_A	JQQJ	ZHHZ	DXXD	CPPC	YFFY	LWWL	küssen	genießen	sonnig	träumen	vertrauen	gütig	krank	gemein	sterben	töten	versagen	gierig	1	acq_USpleas_CSpleas1_RW	acq4567_RW	4	23	400	1	300	300	407	50	0	1	1	blank2r.bmp	0	1	+	0	1	blank2r.bmp	492	1	JQQJ	492	1	blank2r.bmp	572	1	küssen	866	1	!	1239	1	!	1306	0	0	0	0	0	0	0	0	0	0	0	0	0	0	0	0	0	0	0	0	0	0	0	0	0	0	0	0	0	0
071519	11:30:02	11:35:50	347204	5.0.10.0	5_exp_RW	47	Rpleas_acq	CS_A	JQQJ	ZHHZ	DXXD	CPPC	YFFY	LWWL	küssen	genießen	sonnig	träumen	vertrauen	gütig	krank	gemein	sterben	töten	versagen	gierig	1	acq_USunple_CSunple2_RW	acq4567_RW	4	24	400	1	300	300	396	46	0	1	1	blank2r.bmp	0	1	+	0	1	blank2r.bmp	492	1	CPPC	492	1	blank2r.bmp	572	1	töten	866	1	!	1239	1	!	1292	0	0	0	0	0	0	0	0	0	0	0	0	0	0	0	0	0	0	0	0	0	0	0	0	0	0	0	0	0	0
071519	11:30:02	11:35:52	349363	5.0.10.0	5_exp_RW	47	Rpleas_acq	CS_A	JQQJ	ZHHZ	DXXD	CPPC	YFFY	LWWL	küssen	genießen	sonnig	träumen	vertrauen	gütig	krank	gemein	sterben	töten	versagen	gierig	1	acq_USpleas_CSpleas1_RW	acq4567_RW	4	25	400	1	300	300	366	50	0	1	1	blank2r.bmp	0	1	+	0	1	blank2r.bmp	492	1	JQQJ	492	1	blank2r.bmp	572	3	sonnig	866	1	!	1239	1	!	1266	0	0	0	0	0	0	0	0	0	0	0	0	0	0	0	0	0	0	0	0	0	0	0	0	0	0	0	0	0	0
071519	11:30:02	11:35:55	351615	5.0.10.0	5_exp_RW	47	Rpleas_acq	CS_A	JQQJ	ZHHZ	DXXD	CPPC	YFFY	LWWL	küssen	genießen	sonnig	träumen	vertrauen	gütig	krank	gemein	sterben	töten	versagen	gierig	1	acq_USunple_CSunple1_RW	acq4567_RW	4	26	400	1	300	300	452	46	0	1	1	blank2r.bmp	0	1	+	0	1	blank2r.bmp	492	1	DXXD	492	1	blank2r.bmp	572	1	krank	866	1	!	1239	1	!	1346	0	0	0	0	0	0	0	0	0	0	0	0	0	0	0	0	0	0	0	0	0	0	0	0	0	0	0	0	0	0
071519	11:30:02	11:35:57	353854	5.0.10.0	5_exp_RW	47	Rpleas_acq	CS_A	JQQJ	ZHHZ	DXXD	CPPC	YFFY	LWWL	küssen	genießen	sonnig	träumen	vertrauen	gütig	krank	gemein	sterben	töten	versagen	gierig	1	acq_USunple_CSunple1_RW	acq4567_RW	4	27	400	1	300	300	440	46	0	1	1	blank2r.bmp	0	1	+	0	1	blank2r.bmp	492	1	DXXD	492	1	blank2r.bmp	572	2	gemein	866	1	!	1239	1	!	1346	0	0	0	0	0	0	0	0	0	0	0	0	0	0	0	0	0	0	0	0	0	0	0	0	0	0	0	0	0	0
071519	11:30:02	11:35:59	356120	5.0.10.0	5_exp_RW	47	Rpleas_acq	CS_A	JQQJ	ZHHZ	DXXD	CPPC	YFFY	LWWL	küssen	genießen	sonnig	träumen	vertrauen	gütig	krank	gemein	sterben	töten	versagen	gierig	1	acq_USpleas_CSpleas2_RW	acq4567_RW	4	28	400	0	300	300	479	50	0	1	1	blank2r.bmp	0	1	+	0	1	blank2r.bmp	492	1	ZHHZ	492	1	blank2r.bmp	572	1	träumen	866	1	!	1239	1	!	-1	0	0	0	0	0	0	0	0	0	0	0	0	0	0	0	0	0	0	0	0	0	0	0	0	0	0	0	0	0	0
071519	11:30:02	11:36:01	358399	5.0.10.0	5_exp_RW	47	Rpleas_acq	CS_A	JQQJ	ZHHZ	DXXD	CPPC	YFFY	LWWL	küssen	genießen	sonnig	träumen	vertrauen	gütig	krank	gemein	sterben	töten	versagen	gierig	1	acq_USpleas_CSpleas1_RW	acq4567_RW	4	29	400	0	300	300	479	50	0	1	1	blank2r.bmp	0	1	+	0	1	blank2r.bmp	492	1	JQQJ	492	1	blank2r.bmp	572	3	sonnig	866	1	!	1239	1	!	-1	0	0	0	0	0	0	0	0	0	0	0	0	0	0	0	0	0	0	0	0	0	0	0	0	0	0	0	0	0	0
071519	11:30:02	11:36:04	360745	5.0.10.0	5_exp_RW	47	Rpleas_acq	CS_A	JQQJ	ZHHZ	DXXD	CPPC	YFFY	LWWL	küssen	genießen	sonnig	träumen	vertrauen	gütig	krank	gemein	sterben	töten	versagen	gierig	1	acq_USpleas_CSpleas1_RW	acq4567_RW	4	30	400	0	300	300	560	50	0	1	1	blank2r.bmp	0	1	+	0	1	blank2r.bmp	492	1	JQQJ	492	1	blank2r.bmp	572	2	genießen	866	1	!	1239	1	!	-1	0	0	0	0	0	0	0	0	0	0	0	0	0	0	0	0	0	0	0	0	0	0	0	0	0	0	0	0	0	0
071519	11:30:02	11:36:06	362970	5.0.10.0	5_exp_RW	47	Rpleas_acq	CS_A	JQQJ	ZHHZ	DXXD	CPPC	YFFY	LWWL	küssen	genießen	sonnig	träumen	vertrauen	gütig	krank	gemein	sterben	töten	versagen	gierig	1	acq_USunple_CSunple1_RW	acq4567_RW	4	31	400	1	300	300	418	46	0	1	1	blank2r.bmp	0	1	+	0	1	blank2r.bmp	492	1	DXXD	492	1	blank2r.bmp	572	3	sterben	866	1	!	1239	1	!	1319	0	0	0	0	0	0	0	0	0	0	0	0	0	0	0	0	0	0	0	0	0	0	0	0	0	0	0	0	0	0
071519	11:30:02	11:36:08	365316	5.0.10.0	5_exp_RW	47	Rpleas_acq	CS_A	JQQJ	ZHHZ	DXXD	CPPC	YFFY	LWWL	küssen	genießen	sonnig	träumen	vertrauen	gütig	krank	gemein	sterben	töten	versagen	gierig	1	acq_USunple_CSunple1_RW	acq4567_RW	4	32	400	0	300	300	582	46	0	1	1	blank2r.bmp	0	1	+	0	1	blank2r.bmp	492	1	DXXD	492	1	blank2r.bmp	572	1	krank	866	1	!	1239	1	!	-1	0	0	0	0	0	0	0	0	0	0	0	0	0	0	0	0	0	0	0	0	0	0	0	0	0	0	0	0	0	0
071519	11:30:02	11:36:11	367515	5.0.10.0	5_exp_RW	47	Rpleas_acq	CS_A	JQQJ	ZHHZ	DXXD	CPPC	YFFY	LWWL	küssen	genießen	sonnig	träumen	vertrauen	gütig	krank	gemein	sterben	töten	versagen	gierig	1	acq_USpleas_CSpleas2_RW	acq4567_RW	4	33	400	1	300	300	388	50	0	1	1	blank2r.bmp	0	1	+	0	1	blank2r.bmp	492	1	ZHHZ	492	1	blank2r.bmp	572	3	gütig	866	1	!	1239	1	!	1292	0	0	0	0	0	0	0	0	0	0	0	0	0	0	0	0	0	0	0	0	0	0	0	0	0	0	0	0	0	0
071519	11:30:02	11:36:13	369608	5.0.10.0	5_exp_RW	47	Rpleas_acq	CS_A	JQQJ	ZHHZ	DXXD	CPPC	YFFY	LWWL	küssen	genießen	sonnig	träumen	vertrauen	gütig	krank	gemein	sterben	töten	versagen	gierig	1	acq_USpleas_CSpleas2_RW	acq4567_RW	4	34	400	0	300	300	330	50	0	1	1	blank2r.bmp	0	1	+	0	1	blank2r.bmp	492	1	ZHHZ	492	1	blank2r.bmp	572	2	vertrauen	866	1	!	-1	1	!	-1	0	0	0	0	0	0	0	0	0	0	0	0	0	0	0	0	0	0	0	0	0	0	0	0	0	0	0	0	0	0
071519	11:30:02	11:36:15	371807	5.0.10.0	5_exp_RW	47	Rpleas_acq	CS_A	JQQJ	ZHHZ	DXXD	CPPC	YFFY	LWWL	küssen	genießen	sonnig	träumen	vertrauen	gütig	krank	gemein	sterben	töten	versagen	gierig	1	acq_USunple_CSunple2_RW	acq4567_RW	4	35	400	1	300	300	394	50	0	0	1	blank2r.bmp	0	1	+	0	1	blank2r.bmp	492	1	CPPC	492	1	blank2r.bmp	572	2	versagen	866	1	!	1239	1	!	1292	0	0	0	0	0	0	0	0	0	0	0	0	0	0	0	0	0	0	0	0	0	0	0	0	0	0	0	0	0	0
071519	11:30:02	11:36:17	373993	5.0.10.0	5_exp_RW	47	Rpleas_acq	CS_A	JQQJ	ZHHZ	DXXD	CPPC	YFFY	LWWL	küssen	genießen	sonnig	träumen	vertrauen	gütig	krank	gemein	sterben	töten	versagen	gierig	1	acq_USunple_CSunple2_RW	acq4567_RW	4	36	400	1	300	300	398	50	0	0	1	blank2r.bmp	0	1	+	0	1	blank2r.bmp	492	1	CPPC	492	1	blank2r.bmp	572	2	versagen	866	1	!	1239	1	!	1292	0	0	0	0	0	0	0	0	0	0	0	0	0	0	0	0	0	0	0	0	0	0	0	0	0	0	0	0	0	0
071519	11:30:02	11:36:19	376325	5.0.10.0	5_exp_RW	47	Rpleas_acq	CS_A	JQQJ	ZHHZ	DXXD	CPPC	YFFY	LWWL	küssen	genießen	sonnig	träumen	vertrauen	gütig	krank	gemein	sterben	töten	versagen	gierig	1	acq_USpleas_CSpleas2_RW	acq4567_RW	4	37	400	0	300	300	569	50	0	1	1	blank2r.bmp	0	1	+	0	1	blank2r.bmp	492	1	ZHHZ	492	1	blank2r.bmp	572	3	gütig	866	1	!	1239	1	!	-1	0	0	0	0	0	0	0	0	0	0	0	0	0	0	0	0	0	0	0	0	0	0	0	0	0	0	0	0	0	0
071519	11:30:02	11:36:22	378604	5.0.10.0	5_exp_RW	47	Rpleas_acq	CS_A	JQQJ	ZHHZ	DXXD	CPPC	YFFY	LWWL	küssen	genießen	sonnig	träumen	vertrauen	gütig	krank	gemein	sterben	töten	versagen	gierig	1	acq_USpleas_CSpleas2_RW	acq4567_RW	4	38	400	0	300	300	505	50	0	1	1	blank2r.bmp	0	1	+	0	1	blank2r.bmp	492	1	ZHHZ	492	1	blank2r.bmp	572	1	träumen	866	1	!	1239	1	!	-1	0	0	0	0	0	0	0	0	0	0	0	0	0	0	0	0	0	0	0	0	0	0	0	0	0	0	0	0	0	0
071519	11:30:02	11:36:24	380790	5.0.10.0	5_exp_RW	47	Rpleas_acq	CS_A	JQQJ	ZHHZ	DXXD	CPPC	YFFY	LWWL	küssen	genießen	sonnig	träumen	vertrauen	gütig	krank	gemein	sterben	töten	versagen	gierig	1	acq_USunple_CSunple1_RW	acq4567_RW	4	39	400	1	300	300	382	46	0	1	1	blank2r.bmp	0	1	+	0	1	blank2r.bmp	492	1	DXXD	492	1	blank2r.bmp	572	2	gemein	866	1	!	1239	1	!	1279	0	0	0	0	0	0	0	0	0	0	0	0	0	0	0	0	0	0	0	0	0	0	0	0	0	0	0	0	0	0
071519	11:30:02	11:36:26	383016	5.0.10.0	5_exp_RW	47	Rpleas_acq	CS_A	JQQJ	ZHHZ	DXXD	CPPC	YFFY	LWWL	küssen	genießen	sonnig	träumen	vertrauen	gütig	krank	gemein	sterben	töten	versagen	gierig	1	acq_USunple_CSunple2_RW	acq4567_RW	4	40	400	1	300	300	427	46	0	1	1	blank2r.bmp	0	1	+	0	1	blank2r.bmp	492	1	CPPC	492	1	blank2r.bmp	572	3	gierig	866	1	!	1239	1	!	1332	0	0	0	0	0	0	0	0	0	0	0	0	0	0	0	0	0	0	0	0	0	0	0	0	0	0	0	0	0	0
071519	11:30:02	11:36:28	385268	5.0.10.0	5_exp_RW	47	Rpleas_acq	CS_A	JQQJ	ZHHZ	DXXD	CPPC	YFFY	LWWL	küssen	genießen	sonnig	träumen	vertrauen	gütig	krank	gemein	sterben	töten	versagen	gierig	1	acq_USunple_CSunple1_RW	acq4567_RW	4	41	400	0	300	300	483	46	0	1	1	blank2r.bmp	0	1	+	0	1	blank2r.bmp	492	1	DXXD	492	1	blank2r.bmp	572	3	sterben	866	1	!	1239	1	!	-1	0	0	0	0	0	0	0	0	0	0	0	0	0	0	0	0	0	0	0	0	0	0	0	0	0	0	0	0	0	0
071519	11:30:02	11:36:31	387494	5.0.10.0	5_exp_RW	47	Rpleas_acq	CS_A	JQQJ	ZHHZ	DXXD	CPPC	YFFY	LWWL	küssen	genießen	sonnig	träumen	vertrauen	gütig	krank	gemein	sterben	töten	versagen	gierig	1	acq_USunple_CSunple1_RW	acq4567_RW	4	42	400	1	300	300	420	46	0	1	1	blank2r.bmp	0	1	+	0	1	blank2r.bmp	492	1	DXXD	492	1	blank2r.bmp	572	3	sterben	866	1	!	1239	1	!	1319	0	0	0	0	0	0	0	0	0	0	0	0	0	0	0	0	0	0	0	0	0	0	0	0	0	0	0	0	0	0
071519	11:30:02	11:36:33	389680	5.0.10.0	5_exp_RW	47	Rpleas_acq	CS_A	JQQJ	ZHHZ	DXXD	CPPC	YFFY	LWWL	küssen	genießen	sonnig	träumen	vertrauen	gütig	krank	gemein	sterben	töten	versagen	gierig	1	acq_USpleas_CSpleas2_RW	acq4567_RW	4	43	400	1	300	300	390	50	0	1	1	blank2r.bmp	0	1	+	0	1	blank2r.bmp	492	1	ZHHZ	492	1	blank2r.bmp	572	2	vertrauen	866	1	!	1239	1	!	1292	0	0	0	0	0	0	0	0	0	0	0	0	0	0	0	0	0	0	0	0	0	0	0	0	0	0	0	0	0	0
071519	11:30:02	11:36:35	391852	5.0.10.0	5_exp_RW	47	Rpleas_acq	CS_A	JQQJ	ZHHZ	DXXD	CPPC	YFFY	LWWL	küssen	genießen	sonnig	träumen	vertrauen	gütig	krank	gemein	sterben	töten	versagen	gierig	1	acq_USpleas_CSpleas2_RW	acq4567_RW	4	44	400	1	300	300	380	50	0	1	1	blank2r.bmp	0	1	+	0	1	blank2r.bmp	492	1	ZHHZ	492	1	blank2r.bmp	572	2	vertrauen	866	1	!	1239	1	!	1279	0	0	0	0	0	0	0	0	0	0	0	0	0	0	0	0	0	0	0	0	0	0	0	0	0	0	0	0	0	0
071519	11:30:02	11:36:37	394091	5.0.10.0	5_exp_RW	47	Rpleas_acq	CS_A	JQQJ	ZHHZ	DXXD	CPPC	YFFY	LWWL	küssen	genießen	sonnig	träumen	vertrauen	gütig	krank	gemein	sterben	töten	versagen	gierig	1	acq_USpleas_CSpleas1_RW	acq4567_RW	4	45	400	1	300	300	450	50	0	1	1	blank2r.bmp	0	1	+	0	1	blank2r.bmp	492	1	JQQJ	492	1	blank2r.bmp	572	1	küssen	866	1	!	1239	1	!	1346	0	0	0	0	0	0	0	0	0	0	0	0	0	0	0	0	0	0	0	0	0	0	0	0	0	0	0	0	0	0
071519	11:30:02	11:36:39	396330	5.0.10.0	5_exp_RW	47	Rpleas_acq	CS_A	JQQJ	ZHHZ	DXXD	CPPC	YFFY	LWWL	küssen	genießen	sonnig	träumen	vertrauen	gütig	krank	gemein	sterben	töten	versagen	gierig	1	acq_USpleas_CSpleas1_RW	acq4567_RW	4	46	400	1	300	300	446	50	0	1	1	blank2r.bmp	0	1	+	0	1	blank2r.bmp	492	1	JQQJ	492	1	blank2r.bmp	572	1	küssen	866	1	!	1239	1	!	1346	0	0	0	0	0	0	0	0	0	0	0	0	0	0	0	0	0	0	0	0	0	0	0	0	0	0	0	0	0	0
071519	11:30:02	11:36:42	398476	5.0.10.0	5_exp_RW	47	Rpleas_acq	CS_A	JQQJ	ZHHZ	DXXD	CPPC	YFFY	LWWL	küssen	genießen	sonnig	träumen	vertrauen	gütig	krank	gemein	sterben	töten	versagen	gierig	1	acq_USpleas_CSpleas1_RW	acq4567_RW	4	47	400	1	300	300	346	50	0	1	1	blank2r.bmp	0	1	+	0	1	blank2r.bmp	492	1	JQQJ	492	1	blank2r.bmp	572	3	sonnig	866	1	!	1239	1	!	1252	0	0	0	0	0	0	0	0	0	0	0	0	0	0	0	0	0	0	0	0	0	0	0	0	0	0	0	0	0	0
071519	11:30:02	11:36:44	400715	5.0.10.0	5_exp_RW	47	Rpleas_acq	CS_A	JQQJ	ZHHZ	DXXD	CPPC	YFFY	LWWL	küssen	genießen	sonnig	träumen	vertrauen	gütig	krank	gemein	sterben	töten	versagen	gierig	1	acq_USunple_CSunple2_RW	acq4567_RW	4	48	400	1	300	300	450	46	0	1	1	blank2r.bmp	0	1	+	0	1	blank2r.bmp	492	1	CPPC	492	1	blank2r.bmp	572	1	töten	866	1	!	1239	1	!	1346	0	0	0	0	0	0	0	0	0	0	0	0	0	0	0	0	0	0	0	0	0	0	0	0	0	0	0	0	0	0
071519	11:30:02	11:36:46	403101	5.0.10.0	5_exp_RW	47	Rpleas_acq	CS_A	JQQJ	ZHHZ	DXXD	CPPC	YFFY	LWWL	küssen	genießen	sonnig	träumen	vertrauen	gütig	krank	gemein	sterben	töten	versagen	gierig	1	acq_USunple_CSunple2_RW	acq4567_RW	4	49	400	0	300	300	613	46	0	1	1	blank2r.bmp	0	1	+	0	1	blank2r.bmp	492	1	CPPC	492	1	blank2r.bmp	572	3	gierig	866	1	!	1239	1	!	-1	0	0	0	0	0	0	0	0	0	0	0	0	0	0	0	0	0	0	0	0	0	0	0	0	0	0	0	0	0	0
071519	11:30:02	11:36:48	405366	5.0.10.0	5_exp_RW	47	Rpleas_acq	CS_A	JQQJ	ZHHZ	DXXD	CPPC	YFFY	LWWL	küssen	genießen	sonnig	träumen	vertrauen	gütig	krank	gemein	sterben	töten	versagen	gierig	1	acq_USunple_CSunple2_RW	acq4567_RW	4	50	400	0	300	300	480	46	0	1	1	blank2r.bmp	0	1	+	0	1	blank2r.bmp	492	1	CPPC	492	1	blank2r.bmp	572	2	versagen	866	1	!	1239	1	!	-1	0	0	0	0	0	0	0	0	0	0	0	0	0	0	0	0	0	0	0	0	0	0	0	0	0	0	0	0	0	0
071519	11:30:02	11:36:51	407606	5.0.10.0	5_exp_RW	47	Rpleas_acq	CS_A	JQQJ	ZHHZ	DXXD	CPPC	YFFY	LWWL	küssen	genießen	sonnig	träumen	vertrauen	gütig	krank	gemein	sterben	töten	versagen	gierig	1	acq_USpleas_CSpleas1_RW	acq4567_RW	4	51	400	1	300	300	436	50	0	1	1	blank2r.bmp	0	1	+	0	1	blank2r.bmp	492	1	JQQJ	492	1	blank2r.bmp	572	2	genießen	866	1	!	1239	1	!	1332	0	0	0	0	0	0	0	0	0	0	0	0	0	0	0	0	0	0	0	0	0	0	0	0	0	0	0	0	0	0
071519	11:30:02	11:36:53	409858	5.0.10.0	5_exp_RW	47	Rpleas_acq	CS_A	JQQJ	ZHHZ	DXXD	CPPC	YFFY	LWWL	küssen	genießen	sonnig	träumen	vertrauen	gütig	krank	gemein	sterben	töten	versagen	gierig	1	acq_USunple_CSunple1_RW	acq4567_RW	4	52	400	0	300	300	479	46	0	1	1	blank2r.bmp	0	1	+	0	1	blank2r.bmp	492	1	DXXD	492	1	blank2r.bmp	572	2	gemein	866	1	!	1239	1	!	-1	0	0	0	0	0	0	0	0	0	0	0	0	0	0	0	0	0	0	0	0	0	0	0	0	0	0	0	0	0	0
071519	11:30:02	11:36:55	412124	5.0.10.0	5_exp_RW	47	Rpleas_acq	CS_A	JQQJ	ZHHZ	DXXD	CPPC	YFFY	LWWL	küssen	genießen	sonnig	träumen	vertrauen	gütig	krank	gemein	sterben	töten	versagen	gierig	1	acq_USpleas_CSpleas2_RW	acq4567_RW	4	53	400	0	300	300	480	50	0	1	1	blank2r.bmp	0	1	+	0	1	blank2r.bmp	492	1	ZHHZ	492	1	blank2r.bmp	572	1	träumen	866	1	!	1239	1	!	-1	0	0	0	0	0	0	0	0	0	0	0	0	0	0	0	0	0	0	0	0	0	0	0	0	0	0	0	0	0	0
071519	11:30:02	11:36:57	414403	5.0.10.0	5_exp_RW	47	Rpleas_acq	CS_A	JQQJ	ZHHZ	DXXD	CPPC	YFFY	LWWL	küssen	genießen	sonnig	träumen	vertrauen	gütig	krank	gemein	sterben	töten	versagen	gierig	1	acq_USpleas_CSpleas2_RW	acq4567_RW	4	54	400	1	300	300	462	50	0	1	1	blank2r.bmp	0	1	+	0	1	blank2r.bmp	492	1	ZHHZ	492	1	blank2r.bmp	572	3	gütig	866	1	!	1239	1	!	1359	0	0	0	0	0	0	0	0	0	0	0	0	0	0	0	0	0	0	0	0	0	0	0	0	0	0	0	0	0	0
071519	11:30:02	11:37:00	416589	5.0.10.0	5_exp_RW	47	Rpleas_acq	CS_A	JQQJ	ZHHZ	DXXD	CPPC	YFFY	LWWL	küssen	genießen	sonnig	träumen	vertrauen	gütig	krank	gemein	sterben	töten	versagen	gierig	1	acq_USpleas_CSpleas1_RW	acq4567_RW	4	55	400	1	300	300	389	50	0	1	1	blank2r.bmp	0	1	+	0	1	blank2r.bmp	492	1	JQQJ	492	1	blank2r.bmp	572	1	küssen	866	1	!	1239	1	!	1292	0	0	0	0	0	0	0	0	0	0	0	0	0	0	0	0	0	0	0	0	0	0	0	0	0	0	0	0	0	0
071519	11:30:02	11:37:02	418881	5.0.10.0	5_exp_RW	47	Rpleas_acq	CS_A	JQQJ	ZHHZ	DXXD	CPPC	YFFY	LWWL	küssen	genießen	sonnig	träumen	vertrauen	gütig	krank	gemein	sterben	töten	versagen	gierig	1	acq_USunple_CSunple1_RW	acq4567_RW	4	56	400	0	300	300	529	46	0	1	1	blank2r.bmp	0	1	+	0	1	blank2r.bmp	492	1	DXXD	492	1	blank2r.bmp	572	1	krank	866	1	!	1239	1	!	-1	0	0	0	0	0	0	0	0	0	0	0	0	0	0	0	0	0	0	0	0	0	0	0	0	0	0	0	0	0	0
071519	11:30:02	11:37:04	421173	5.0.10.0	5_exp_RW	47	Rpleas_acq	CS_A	JQQJ	ZHHZ	DXXD	CPPC	YFFY	LWWL	küssen	genießen	sonnig	träumen	vertrauen	gütig	krank	gemein	sterben	töten	versagen	gierig	1	acq_USunple_CSunple1_RW	acq4567_RW	4	57	400	0	300	300	511	46	0	1	1	blank2r.bmp	0	1	+	0	1	blank2r.bmp	492	1	DXXD	492	1	blank2r.bmp	572	1	krank	866	1	!	1239	1	!	-1	0	0	0	0	0	0	0	0	0	0	0	0	0	0	0	0	0	0	0	0	0	0	0	0	0	0	0	0	0	0
071519	11:30:02	11:37:06	423372	5.0.10.0	5_exp_RW	47	Rpleas_acq	CS_A	JQQJ	ZHHZ	DXXD	CPPC	YFFY	LWWL	küssen	genießen	sonnig	träumen	vertrauen	gütig	krank	gemein	sterben	töten	versagen	gierig	1	acq_USunple_CSunple2_RW	acq4567_RW	4	58	400	1	300	300	390	46	0	1	1	blank2r.bmp	0	1	+	0	1	blank2r.bmp	492	1	CPPC	492	1	blank2r.bmp	572	1	töten	866	1	!	1239	1	!	1292	0	0	0	0	0	0	0	0	0	0	0	0	0	0	0	0	0	0	0	0	0	0	0	0	0	0	0	0	0	0
071519	11:30:02	11:37:09	425638	5.0.10.0	5_exp_RW	47	Rpleas_acq	CS_A	JQQJ	ZHHZ	DXXD	CPPC	YFFY	LWWL	küssen	genießen	sonnig	träumen	vertrauen	gütig	krank	gemein	sterben	töten	versagen	gierig	1	acq_USunple_CSunple2_RW	acq4567_RW	4	59	400	0	300	300	498	46	0	1	1	blank2r.bmp	0	1	+	0	1	blank2r.bmp	492	1	CPPC	492	1	blank2r.bmp	572	2	versagen	866	1	!	1239	1	!	-1	0	0	0	0	0	0	0	0	0	0	0	0	0	0	0	0	0	0	0	0	0	0	0	0	0	0	0	0	0	0
071519	11:30:02	11:37:11	427811	5.0.10.0	5_exp_RW	47	Rpleas_acq	CS_A	JQQJ	ZHHZ	DXXD	CPPC	YFFY	LWWL	küssen	genießen	sonnig	träumen	vertrauen	gütig	krank	gemein	sterben	töten	versagen	gierig	1	acq_USpleas_CSpleas2_RW	acq4567_RW	4	60	400	1	300	300	371	46	0	0	1	blank2r.bmp	0	1	+	0	1	blank2r.bmp	492	1	ZHHZ	492	1	blank2r.bmp	572	3	gütig	866	1	!	1239	1	!	1266	0	0	0	0	0	0	0	0	0	0	0	0	0	0	0	0	0	0	0	0	0	0	0	0	0	0	0	0	0	0
071519	11:30:02	11:37:13	429903	5.0.10.0	5_exp_RW	47	Rpleas_acq	CS_A	JQQJ	ZHHZ	DXXD	CPPC	YFFY	LWWL	küssen	genießen	sonnig	träumen	vertrauen	gütig	krank	gemein	sterben	töten	versagen	gierig	1	acq_USpleas_CSpleas2_RW	acq4567_RW	4	61	400	0	300	300	328	46	0	0	1	blank2r.bmp	0	1	+	0	1	blank2r.bmp	492	1	ZHHZ	492	1	blank2r.bmp	572	2	vertrauen	866	1	!	-1	1	!	-1	0	0	0	0	0	0	0	0	0	0	0	0	0	0	0	0	0	0	0	0	0	0	0	0	0	0	0	0	0	0
071519	11:30:02	11:37:15	432169	5.0.10.0	5_exp_RW	47	Rpleas_acq	CS_A	JQQJ	ZHHZ	DXXD	CPPC	YFFY	LWWL	küssen	genießen	sonnig	träumen	vertrauen	gütig	krank	gemein	sterben	töten	versagen	gierig	1	acq_USpleas_CSpleas1_RW	acq4567_RW	4	62	400	0	300	300	479	50	0	1	1	blank2r.bmp	0	1	+	0	1	blank2r.bmp	492	1	JQQJ	492	1	blank2r.bmp	572	3	sonnig	866	1	!	1239	1	!	-1	0	0	0	0	0	0	0	0	0	0	0	0	0	0	0	0	0	0	0	0	0	0	0	0	0	0	0	0	0	0
071519	11:30:02	11:37:17	434408	5.0.10.0	5_exp_RW	47	Rpleas_acq	CS_A	JQQJ	ZHHZ	DXXD	CPPC	YFFY	LWWL	küssen	genießen	sonnig	träumen	vertrauen	gütig	krank	gemein	sterben	töten	versagen	gierig	1	acq_USpleas_CSpleas2_RW	acq4567_RW	4	63	400	1	300	300	423	50	0	1	1	blank2r.bmp	0	1	+	0	1	blank2r.bmp	492	1	ZHHZ	492	1	blank2r.bmp	572	1	träumen	866	1	!	1239	1	!	1319	0	0	0	0	0	0	0	0	0	0	0	0	0	0	0	0	0	0	0	0	0	0	0	0	0	0	0	0	0	0
071519	11:30:02	11:37:20	436674	5.0.10.0	5_exp_RW	47	Rpleas_acq	CS_A	JQQJ	ZHHZ	DXXD	CPPC	YFFY	LWWL	küssen	genießen	sonnig	träumen	vertrauen	gütig	krank	gemein	sterben	töten	versagen	gierig	1	acq_USunple_CSunple2_RW	acq4567_RW	4	64	400	0	300	300	503	46	0	1	1	blank2r.bmp	0	1	+	0	1	blank2r.bmp	492	1	CPPC	492	1	blank2r.bmp	572	3	gierig	866	1	!	1239	1	!	-1	0	0	0	0	0	0	0	0	0	0	0	0	0	0	0	0	0	0	0	0	0	0	0	0	0	0	0	0	0	0
071519	11:30:02	11:37:22	439006	5.0.10.0	5_exp_RW	47	Rpleas_acq	CS_A	JQQJ	ZHHZ	DXXD	CPPC	YFFY	LWWL	küssen	genießen	sonnig	träumen	vertrauen	gütig	krank	gemein	sterben	töten	versagen	gierig	1	acq_USunple_CSunple2_RW	acq4567_RW	4	65	400	0	300	300	550	46	0	1	1	blank2r.bmp	0	1	+	0	1	blank2r.bmp	492	1	CPPC	492	1	blank2r.bmp	572	1	töten	866	1	!	1239	1	!	-1	0	0	0	0	0	0	0	0	0	0	0	0	0	0	0	0	0	0	0	0	0	0	0	0	0	0	0	0	0	0
071519	11:30:02	11:37:24	441032	5.0.10.0	5_exp_RW	47	Rpleas_acq	CS_A	JQQJ	ZHHZ	DXXD	CPPC	YFFY	LWWL	küssen	genießen	sonnig	träumen	vertrauen	gütig	krank	gemein	sterben	töten	versagen	gierig	1	acq_USunple_CSunple2_RW	acq4567_RW	4	66	400	0	300	300	242	50	0	0	1	blank2r.bmp	0	1	+	0	1	blank2r.bmp	492	1	CPPC	492	1	blank2r.bmp	572	1	töten	866	1	!	-1	1	!	-1	0	0	0	0	0	0	0	0	0	0	0	0	0	0	0	0	0	0	0	0	0	0	0	0	0	0	0	0	0	0
071519	11:30:02	11:37:26	443191	5.0.10.0	5_exp_RW	47	Rpleas_acq	CS_A	JQQJ	ZHHZ	DXXD	CPPC	YFFY	LWWL	küssen	genießen	sonnig	träumen	vertrauen	gütig	krank	gemein	sterben	töten	versagen	gierig	1	acq_USunple_CSunple1_RW	acq4567_RW	4	67	400	1	300	300	355	46	0	1	1	blank2r.bmp	0	1	+	0	1	blank2r.bmp	492	1	DXXD	492	1	blank2r.bmp	572	2	gemein	866	1	!	1239	1	!	1252	0	0	0	0	0	0	0	0	0	0	0	0	0	0	0	0	0	0	0	0	0	0	0	0	0	0	0	0	0	0
071519	11:30:02	11:37:28	445337	5.0.10.0	5_exp_RW	47	Rpleas_acq	CS_A	JQQJ	ZHHZ	DXXD	CPPC	YFFY	LWWL	küssen	genießen	sonnig	träumen	vertrauen	gütig	krank	gemein	sterben	töten	versagen	gierig	1	acq_USpleas_CSpleas1_RW	acq4567_RW	4	68	400	1	300	300	357	46	0	0	1	blank2r.bmp	0	1	+	0	1	blank2r.bmp	492	1	JQQJ	492	1	blank2r.bmp	572	2	genießen	866	1	!	1239	1	!	1252	0	0	0	0	0	0	0	0	0	0	0	0	0	0	0	0	0	0	0	0	0	0	0	0	0	0	0	0	0	0
071519	11:30:02	11:37:31	447563	5.0.10.0	5_exp_RW	47	Rpleas_acq	CS_A	JQQJ	ZHHZ	DXXD	CPPC	YFFY	LWWL	küssen	genießen	sonnig	träumen	vertrauen	gütig	krank	gemein	sterben	töten	versagen	gierig	1	acq_USunple_CSunple1_RW	acq4567_RW	4	69	400	1	300	300	434	50	0	0	1	blank2r.bmp	0	1	+	0	1	blank2r.bmp	492	1	DXXD	492	1	blank2r.bmp	572	3	sterben	866	1	!	1239	1	!	1332	0	0	0	0	0	0	0	0	0	0	0	0	0	0	0	0	0	0	0	0	0	0	0	0	0	0	0	0	0	0
071519	11:30:02	11:37:33	449868	5.0.10.0	5_exp_RW	47	Rpleas_acq	CS_A	JQQJ	ZHHZ	DXXD	CPPC	YFFY	LWWL	küssen	genießen	sonnig	träumen	vertrauen	gütig	krank	gemein	sterben	töten	versagen	gierig	1	acq_USunple_CSunple2_RW	acq4567_RW	4	70	400	0	300	300	541	46	0	1	1	blank2r.bmp	0	1	+	0	1	blank2r.bmp	492	1	CPPC	492	1	blank2r.bmp	572	3	gierig	866	1	!	1239	1	!	-1	0	0	0	0	0	0	0	0	0	0	0	0	0	0	0	0	0	0	0	0	0	0	0	0	0	0	0	0	0	0
071519	11:30:02	11:37:35	452067	5.0.10.0	5_exp_RW	47	Rpleas_acq	CS_A	JQQJ	ZHHZ	DXXD	CPPC	YFFY	LWWL	küssen	genießen	sonnig	träumen	vertrauen	gütig	krank	gemein	sterben	töten	versagen	gierig	1	acq_USunple_CSunple1_RW	acq4567_RW	4	71	400	1	300	300	397	46	0	1	1	blank2r.bmp	0	1	+	0	1	blank2r.bmp	492	1	DXXD	492	1	blank2r.bmp	572	2	gemein	866	1	!	1239	1	!	1292	0	0	0	0	0	0	0	0	0	0	0	0	0	0	0	0	0	0	0	0	0	0	0	0	0	0	0	0	0	0
071519	11:30:02	11:37:39	456052	5.0.10.0	5_exp_RW	47	Rpleas_acq	CS_A	JQQJ	ZHHZ	DXXD	CPPC	YFFY	LWWL	küssen	genießen	sonnig	träumen	vertrauen	gütig	krank	gemein	sterben	töten	versagen	gierig	1	acq_USpleas_CSpleas2_RW	acq4567_RW	4	72	400	0	300	300	2220	50	0	1	1	blank2r.bmp	0	1	+	0	1	blank2r.bmp	492	1	ZHHZ	492	1	blank2r.bmp	572	1	träumen	866	1	!	1239	1	!	-1	0	0	0	0	0	0	0	0	0	0	0	0	0	0	0	0	0	0	0	0	0	0	0	0	0	0	0	0	0	0
071519	11:30:02	11:37:41	458318	5.0.10.0	5_exp_RW	47	Rpleas_acq	CS_A	JQQJ	ZHHZ	DXXD	CPPC	YFFY	LWWL	küssen	genießen	sonnig	träumen	vertrauen	gütig	krank	gemein	sterben	töten	versagen	gierig	1	acq_USpleas_CSpleas1_RW	acq4567_RW	4	73	400	1	300	300	443	50	0	1	1	blank2r.bmp	0	1	+	0	1	blank2r.bmp	492	1	JQQJ	492	1	blank2r.bmp	572	3	sonnig	866	1	!	1239	1	!	1346	0	0	0	0	0	0	0	0	0	0	0	0	0	0	0	0	0	0	0	0	0	0	0	0	0	0	0	0	0	0
071519	11:30:02	11:37:43	460411	5.0.10.0	5_exp_RW	47	Rpleas_acq	CS_A	JQQJ	ZHHZ	DXXD	CPPC	YFFY	LWWL	küssen	genießen	sonnig	träumen	vertrauen	gütig	krank	gemein	sterben	töten	versagen	gierig	1	acq_USunple_CSunple2_RW	acq4567_RW	4	74	400	0	300	300	321	46	0	1	1	blank2r.bmp	0	1	+	0	1	blank2r.bmp	492	1	CPPC	492	1	blank2r.bmp	572	2	versagen	866	1	!	-1	1	!	-1	0	0	0	0	0	0	0	0	0	0	0	0	0	0	0	0	0	0	0	0	0	0	0	0	0	0	0	0	0	0
071519	11:30:02	11:37:46	462663	5.0.10.0	5_exp_RW	47	Rpleas_acq	CS_A	JQQJ	ZHHZ	DXXD	CPPC	YFFY	LWWL	küssen	genießen	sonnig	träumen	vertrauen	gütig	krank	gemein	sterben	töten	versagen	gierig	1	acq_USpleas_CSpleas1_RW	acq4567_RW	4	75	400	1	300	300	444	50	0	1	1	blank2r.bmp	0	1	+	0	1	blank2r.bmp	492	1	JQQJ	492	1	blank2r.bmp	572	1	küssen	866	1	!	1239	1	!	1346	0	0	0	0	0	0	0	0	0	0	0	0	0	0	0	0	0	0	0	0	0	0	0	0	0	0	0	0	0	0
071519	11:30:02	11:37:48	464929	5.0.10.0	5_exp_RW	47	Rpleas_acq	CS_A	JQQJ	ZHHZ	DXXD	CPPC	YFFY	LWWL	küssen	genießen	sonnig	träumen	vertrauen	gütig	krank	gemein	sterben	töten	versagen	gierig	1	acq_USunple_CSunple1_RW	acq4567_RW	4	76	400	0	300	300	479	46	0	1	1	blank2r.bmp	0	1	+	0	1	blank2r.bmp	492	1	DXXD	492	1	blank2r.bmp	572	3	sterben	866	1	!	1239	1	!	-1	0	0	0	0	0	0	0	0	0	0	0	0	0	0	0	0	0	0	0	0	0	0	0	0	0	0	0	0	0	0
071519	11:30:02	11:37:50	467168	5.0.10.0	5_exp_RW	47	Rpleas_acq	CS_A	JQQJ	ZHHZ	DXXD	CPPC	YFFY	LWWL	küssen	genießen	sonnig	träumen	vertrauen	gütig	krank	gemein	sterben	töten	versagen	gierig	1	acq_USpleas_CSpleas2_RW	acq4567_RW	4	77	400	1	300	300	425	46	0	0	1	blank2r.bmp	0	1	+	0	1	blank2r.bmp	492	1	ZHHZ	492	1	blank2r.bmp	572	3	gütig	866	1	!	1239	1	!	1319	0	0	0	0	0	0	0	0	0	0	0	0	0	0	0	0	0	0	0	0	0	0	0	0	0	0	0	0	0	0
071519	11:30:02	11:37:52	469394	5.0.10.0	5_exp_RW	47	Rpleas_acq	CS_A	JQQJ	ZHHZ	DXXD	CPPC	YFFY	LWWL	küssen	genießen	sonnig	träumen	vertrauen	gütig	krank	gemein	sterben	töten	versagen	gierig	1	acq_USpleas_CSpleas1_RW	acq4567_RW	4	78	400	1	300	300	431	50	0	1	1	blank2r.bmp	0	1	+	0	1	blank2r.bmp	492	1	JQQJ	492	1	blank2r.bmp	572	2	genießen	866	1	!	1239	1	!	1332	0	0	0	0	0	0	0	0	0	0	0	0	0	0	0	0	0	0	0	0	0	0	0	0	0	0	0	0	0	0
071519	11:30:02	11:37:55	471739	5.0.10.0	5_exp_RW	47	Rpleas_acq	CS_A	JQQJ	ZHHZ	DXXD	CPPC	YFFY	LWWL	küssen	genießen	sonnig	träumen	vertrauen	gütig	krank	gemein	sterben	töten	versagen	gierig	1	acq_USpleas_CSpleas2_RW	acq4567_RW	4	79	400	0	300	300	584	46	0	0	1	blank2r.bmp	0	1	+	0	1	blank2r.bmp	492	1	ZHHZ	492	1	blank2r.bmp	572	2	vertrauen	866	1	!	1239	1	!	-1	0	0	0	0	0	0	0	0	0	0	0	0	0	0	0	0	0	0	0	0	0	0	0	0	0	0	0	0	0	0
071519	11:30:02	11:37:57	474058	5.0.10.0	5_exp_RW	47	Rpleas_acq	CS_A	JQQJ	ZHHZ	DXXD	CPPC	YFFY	LWWL	küssen	genießen	sonnig	träumen	vertrauen	gütig	krank	gemein	sterben	töten	versagen	gierig	1	acq_USunple_CSunple1_RW	acq4567_RW	4	80	400	0	300	300	534	50	0	0	1	blank2r.bmp	0	1	+	0	1	blank2r.bmp	492	1	DXXD	492	1	blank2r.bmp	572	1	krank	866	1	!	1239	1	!	-1	0	0	0	0	0	0	0	0	0	0	0	0	0	0	0	0	0	0	0	0	0	0	0	0	0	0	0	0	0	0
071519	11:30:02	11:38:10	486826	5.0.10.0	5_exp_RW	47	Rpleas_acq	CS_A	JQQJ	ZHHZ	DXXD	CPPC	YFFY	LWWL	küssen	genießen	sonnig	träumen	vertrauen	gütig	krank	gemein	sterben	töten	versagen	gierig	1	acq_USunple_CSunple1_RW	acq4567_RW	5	1	400	0	300	300	497	46	0	1	1	blank2r.bmp	0	1	+	0	1	blank2r.bmp	492	1	DXXD	492	1	blank2r.bmp	572	2	gemein	866	1	!	1239	1	!	-1	0	0	0	0	0	0	0	0	0	0	0	0	0	0	0	0	0	0	0	0	0	0	0	0	0	0	0	0	0	0
071519	11:30:02	11:38:12	489092	5.0.10.0	5_exp_RW	47	Rpleas_acq	CS_A	JQQJ	ZHHZ	DXXD	CPPC	YFFY	LWWL	küssen	genießen	sonnig	träumen	vertrauen	gütig	krank	gemein	sterben	töten	versagen	gierig	1	acq_USunple_CSunple2_RW	acq4567_RW	5	2	400	1	300	300	460	46	0	1	1	blank2r.bmp	0	1	+	0	1	blank2r.bmp	492	1	CPPC	492	1	blank2r.bmp	572	2	versagen	866	1	!	1239	1	!	1359	0	0	0	0	0	0	0	0	0	0	0	0	0	0	0	0	0	0	0	0	0	0	0	0	0	0	0	0	0	0
071519	11:30:02	11:38:14	491265	5.0.10.0	5_exp_RW	47	Rpleas_acq	CS_A	JQQJ	ZHHZ	DXXD	CPPC	YFFY	LWWL	küssen	genießen	sonnig	träumen	vertrauen	gütig	krank	gemein	sterben	töten	versagen	gierig	1	acq_USunple_CSunple2_RW	acq4567_RW	5	3	400	1	300	300	364	46	0	1	1	blank2r.bmp	0	1	+	0	1	blank2r.bmp	492	1	CPPC	492	1	blank2r.bmp	572	1	töten	866	1	!	1239	1	!	1266	0	0	0	0	0	0	0	0	0	0	0	0	0	0	0	0	0	0	0	0	0	0	0	0	0	0	0	0	0	0
071519	11:30:02	11:38:17	493650	5.0.10.0	5_exp_RW	47	Rpleas_acq	CS_A	JQQJ	ZHHZ	DXXD	CPPC	YFFY	LWWL	küssen	genießen	sonnig	träumen	vertrauen	gütig	krank	gemein	sterben	töten	versagen	gierig	1	acq_USunple_CSunple1_RW	acq4567_RW	5	4	400	0	300	300	621	46	0	1	1	blank2r.bmp	0	1	+	0	1	blank2r.bmp	492	1	DXXD	492	1	blank2r.bmp	572	1	krank	866	1	!	1239	1	!	-1	0	0	0	0	0	0	0	0	0	0	0	0	0	0	0	0	0	0	0	0	0	0	0	0	0	0	0	0	0	0
071519	11:30:02	11:38:19	495903	5.0.10.0	5_exp_RW	47	Rpleas_acq	CS_A	JQQJ	ZHHZ	DXXD	CPPC	YFFY	LWWL	küssen	genießen	sonnig	träumen	vertrauen	gütig	krank	gemein	sterben	töten	versagen	gierig	1	acq_USpleas_CSpleas1_RW	acq4567_RW	5	5	400	1	300	300	447	50	0	1	1	blank2r.bmp	0	1	+	0	1	blank2r.bmp	492	1	JQQJ	492	1	blank2r.bmp	572	3	sonnig	866	1	!	1239	1	!	1346	0	0	0	0	0	0	0	0	0	0	0	0	0	0	0	0	0	0	0	0	0	0	0	0	0	0	0	0	0	0
071519	11:30:02	11:38:21	498128	5.0.10.0	5_exp_RW	47	Rpleas_acq	CS_A	JQQJ	ZHHZ	DXXD	CPPC	YFFY	LWWL	küssen	genießen	sonnig	träumen	vertrauen	gütig	krank	gemein	sterben	töten	versagen	gierig	1	acq_USpleas_CSpleas1_RW	acq4567_RW	5	6	400	1	300	300	429	50	0	1	1	blank2r.bmp	0	1	+	0	1	blank2r.bmp	492	1	JQQJ	492	1	blank2r.bmp	572	2	genießen	866	1	!	1239	1	!	1332	0	0	0	0	0	0	0	0	0	0	0	0	0	0	0	0	0	0	0	0	0	0	0	0	0	0	0	0	0	0
071519	11:30:02	11:38:23	500368	5.0.10.0	5_exp_RW	47	Rpleas_acq	CS_A	JQQJ	ZHHZ	DXXD	CPPC	YFFY	LWWL	küssen	genießen	sonnig	träumen	vertrauen	gütig	krank	gemein	sterben	töten	versagen	gierig	1	acq_USunple_CSunple2_RW	acq4567_RW	5	7	400	1	300	300	444	46	0	1	1	blank2r.bmp	0	1	+	0	1	blank2r.bmp	492	1	CPPC	492	1	blank2r.bmp	572	3	gierig	866	1	!	1239	1	!	1346	0	0	0	0	0	0	0	0	0	0	0	0	0	0	0	0	0	0	0	0	0	0	0	0	0	0	0	0	0	0
071519	11:30:02	11:38:26	502460	5.0.10.0	5_exp_RW	47	Rpleas_acq	CS_A	JQQJ	ZHHZ	DXXD	CPPC	YFFY	LWWL	küssen	genießen	sonnig	träumen	vertrauen	gütig	krank	gemein	sterben	töten	versagen	gierig	1	acq_USpleas_CSpleas1_RW	acq4567_RW	5	8	400	0	300	300	323	50	0	1	1	blank2r.bmp	0	1	+	0	1	blank2r.bmp	492	1	JQQJ	492	1	blank2r.bmp	572	1	küssen	866	1	!	-1	1	!	-1	0	0	0	0	0	0	0	0	0	0	0	0	0	0	0	0	0	0	0	0	0	0	0	0	0	0	0	0	0	0
071519	11:30:02	11:38:28	504686	5.0.10.0	5_exp_RW	47	Rpleas_acq	CS_A	JQQJ	ZHHZ	DXXD	CPPC	YFFY	LWWL	küssen	genießen	sonnig	träumen	vertrauen	gütig	krank	gemein	sterben	töten	versagen	gierig	1	acq_USunple_CSunple2_RW	acq4567_RW	5	9	400	1	300	300	418	46	0	1	1	blank2r.bmp	0	1	+	0	1	blank2r.bmp	492	1	CPPC	492	1	blank2r.bmp	572	2	versagen	866	1	!	1239	1	!	1319	0	0	0	0	0	0	0	0	0	0	0	0	0	0	0	0	0	0	0	0	0	0	0	0	0	0	0	0	0	0
071519	11:30:02	11:38:30	507031	5.0.10.0	5_exp_RW	47	Rpleas_acq	CS_A	JQQJ	ZHHZ	DXXD	CPPC	YFFY	LWWL	küssen	genießen	sonnig	träumen	vertrauen	gütig	krank	gemein	sterben	töten	versagen	gierig	1	acq_USpleas_CSpleas1_RW	acq4567_RW	5	10	400	0	300	300	575	50	0	1	1	blank2r.bmp	0	1	+	0	1	blank2r.bmp	492	1	JQQJ	492	1	blank2r.bmp	572	2	genießen	866	1	!	1239	1	!	-1	0	0	0	0	0	0	0	0	0	0	0	0	0	0	0	0	0	0	0	0	0	0	0	0	0	0	0	0	0	0
071519	11:30:02	11:38:32	509297	5.0.10.0	5_exp_RW	47	Rpleas_acq	CS_A	JQQJ	ZHHZ	DXXD	CPPC	YFFY	LWWL	küssen	genießen	sonnig	träumen	vertrauen	gütig	krank	gemein	sterben	töten	versagen	gierig	1	acq_USpleas_CSpleas1_RW	acq4567_RW	5	11	400	1	300	300	465	50	0	1	1	blank2r.bmp	0	1	+	0	1	blank2r.bmp	492	1	JQQJ	492	1	blank2r.bmp	572	3	sonnig	866	1	!	1239	1	!	1359	0	0	0	0	0	0	0	0	0	0	0	0	0	0	0	0	0	0	0	0	0	0	0	0	0	0	0	0	0	0
071519	11:30:02	11:38:35	511536	5.0.10.0	5_exp_RW	47	Rpleas_acq	CS_A	JQQJ	ZHHZ	DXXD	CPPC	YFFY	LWWL	küssen	genießen	sonnig	träumen	vertrauen	gütig	krank	gemein	sterben	töten	versagen	gierig	1	acq_USpleas_CSpleas2_RW	acq4567_RW	5	12	400	1	300	300	446	50	0	1	1	blank2r.bmp	0	1	+	0	1	blank2r.bmp	492	1	ZHHZ	492	1	blank2r.bmp	572	1	träumen	866	1	!	1239	1	!	1346	0	0	0	0	0	0	0	0	0	0	0	0	0	0	0	0	0	0	0	0	0	0	0	0	0	0	0	0	0	0
071519	11:30:02	11:38:37	513789	5.0.10.0	5_exp_RW	47	Rpleas_acq	CS_A	JQQJ	ZHHZ	DXXD	CPPC	YFFY	LWWL	küssen	genießen	sonnig	träumen	vertrauen	gütig	krank	gemein	sterben	töten	versagen	gierig	1	acq_USpleas_CSpleas2_RW	acq4567_RW	5	13	400	0	300	300	479	50	0	1	1	blank2r.bmp	0	1	+	0	1	blank2r.bmp	492	1	ZHHZ	492	1	blank2r.bmp	572	2	vertrauen	866	1	!	1239	1	!	-1	0	0	0	0	0	0	0	0	0	0	0	0	0	0	0	0	0	0	0	0	0	0	0	0	0	0	0	0	0	0
071519	11:30:02	11:38:39	516068	5.0.10.0	5_exp_RW	47	Rpleas_acq	CS_A	JQQJ	ZHHZ	DXXD	CPPC	YFFY	LWWL	küssen	genießen	sonnig	träumen	vertrauen	gütig	krank	gemein	sterben	töten	versagen	gierig	1	acq_USpleas_CSpleas2_RW	acq4567_RW	5	14	400	0	300	300	479	46	0	0	1	blank2r.bmp	0	1	+	0	1	blank2r.bmp	492	1	ZHHZ	492	1	blank2r.bmp	572	3	gütig	866	1	!	1239	1	!	-1	0	0	0	0	0	0	0	0	0	0	0	0	0	0	0	0	0	0	0	0	0	0	0	0	0	0	0	0	0	0
071519	11:30:02	11:38:41	518334	5.0.10.0	5_exp_RW	47	Rpleas_acq	CS_A	JQQJ	ZHHZ	DXXD	CPPC	YFFY	LWWL	küssen	genießen	sonnig	träumen	vertrauen	gütig	krank	gemein	sterben	töten	versagen	gierig	1	acq_USunple_CSunple1_RW	acq4567_RW	5	15	400	1	300	300	455	46	0	1	1	blank2r.bmp	0	1	+	0	1	blank2r.bmp	492	1	DXXD	492	1	blank2r.bmp	572	3	sterben	866	1	!	1239	1	!	1359	0	0	0	0	0	0	0	0	0	0	0	0	0	0	0	0	0	0	0	0	0	0	0	0	0	0	0	0	0	0
071519	11:30:02	11:38:44	520506	5.0.10.0	5_exp_RW	47	Rpleas_acq	CS_A	JQQJ	ZHHZ	DXXD	CPPC	YFFY	LWWL	küssen	genießen	sonnig	träumen	vertrauen	gütig	krank	gemein	sterben	töten	versagen	gierig	1	acq_USpleas_CSpleas2_RW	acq4567_RW	5	16	400	1	300	300	382	50	0	1	1	blank2r.bmp	0	1	+	0	1	blank2r.bmp	492	1	ZHHZ	492	1	blank2r.bmp	572	1	träumen	866	1	!	1239	1	!	1279	0	0	0	0	0	0	0	0	0	0	0	0	0	0	0	0	0	0	0	0	0	0	0	0	0	0	0	0	0	0
071519	11:30:02	11:38:46	522758	5.0.10.0	5_exp_RW	47	Rpleas_acq	CS_A	JQQJ	ZHHZ	DXXD	CPPC	YFFY	LWWL	küssen	genießen	sonnig	träumen	vertrauen	gütig	krank	gemein	sterben	töten	versagen	gierig	1	acq_USunple_CSunple2_RW	acq4567_RW	5	17	400	0	300	300	479	46	0	1	1	blank2r.bmp	0	1	+	0	1	blank2r.bmp	492	1	CPPC	492	1	blank2r.bmp	572	1	töten	866	1	!	1239	1	!	-1	0	0	0	0	0	0	0	0	0	0	0	0	0	0	0	0	0	0	0	0	0	0	0	0	0	0	0	0	0	0
071519	11:30:02	11:38:48	525037	5.0.10.0	5_exp_RW	47	Rpleas_acq	CS_A	JQQJ	ZHHZ	DXXD	CPPC	YFFY	LWWL	küssen	genießen	sonnig	träumen	vertrauen	gütig	krank	gemein	sterben	töten	versagen	gierig	1	acq_USunple_CSunple1_RW	acq4567_RW	5	18	400	0	300	300	479	46	0	1	1	blank2r.bmp	0	1	+	0	1	blank2r.bmp	492	1	DXXD	492	1	blank2r.bmp	572	3	sterben	866	1	!	1239	1	!	-1	0	0	0	0	0	0	0	0	0	0	0	0	0	0	0	0	0	0	0	0	0	0	0	0	0	0	0	0	0	0
071519	11:30:02	11:38:50	527303	5.0.10.0	5_exp_RW	47	Rpleas_acq	CS_A	JQQJ	ZHHZ	DXXD	CPPC	YFFY	LWWL	küssen	genießen	sonnig	träumen	vertrauen	gütig	krank	gemein	sterben	töten	versagen	gierig	1	acq_USpleas_CSpleas2_RW	acq4567_RW	5	19	400	1	300	300	454	50	0	1	1	blank2r.bmp	0	1	+	0	1	blank2r.bmp	492	1	ZHHZ	492	1	blank2r.bmp	572	2	vertrauen	866	1	!	1239	1	!	1359	0	0	0	0	0	0	0	0	0	0	0	0	0	0	0	0	0	0	0	0	0	0	0	0	0	0	0	0	0	0
071519	11:30:02	11:38:54	530955	5.0.10.0	5_exp_RW	47	Rpleas_acq	CS_A	JQQJ	ZHHZ	DXXD	CPPC	YFFY	LWWL	küssen	genießen	sonnig	träumen	vertrauen	gütig	krank	gemein	sterben	töten	versagen	gierig	1	acq_USunple_CSunple1_RW	acq4567_RW	5	20	400	0	300	300	1889	46	0	1	1	blank2r.bmp	0	1	+	0	1	blank2r.bmp	492	1	DXXD	492	1	blank2r.bmp	572	2	gemein	866	1	!	1239	1	!	-1	0	0	0	0	0	0	0	0	0	0	0	0	0	0	0	0	0	0	0	0	0	0	0	0	0	0	0	0	0	0
071519	11:30:02	11:38:56	533141	5.0.10.0	5_exp_RW	47	Rpleas_acq	CS_A	JQQJ	ZHHZ	DXXD	CPPC	YFFY	LWWL	küssen	genießen	sonnig	träumen	vertrauen	gütig	krank	gemein	sterben	töten	versagen	gierig	1	acq_USpleas_CSpleas2_RW	acq4567_RW	5	21	400	1	300	300	380	46	0	0	1	blank2r.bmp	0	1	+	0	1	blank2r.bmp	492	1	ZHHZ	492	1	blank2r.bmp	572	3	gütig	866	1	!	1239	1	!	1279	0	0	0	0	0	0	0	0	0	0	0	0	0	0	0	0	0	0	0	0	0	0	0	0	0	0	0	0	0	0
071519	11:30:02	11:38:58	535393	5.0.10.0	5_exp_RW	47	Rpleas_acq	CS_A	JQQJ	ZHHZ	DXXD	CPPC	YFFY	LWWL	küssen	genießen	sonnig	träumen	vertrauen	gütig	krank	gemein	sterben	töten	versagen	gierig	1	acq_USpleas_CSpleas2_RW	acq4567_RW	5	22	400	0	300	300	481	50	0	1	1	blank2r.bmp	0	1	+	0	1	blank2r.bmp	492	1	ZHHZ	492	1	blank2r.bmp	572	1	träumen	866	1	!	1239	1	!	-1	0	0	0	0	0	0	0	0	0	0	0	0	0	0	0	0	0	0	0	0	0	0	0	0	0	0	0	0	0	0
071519	11:30:02	11:39:01	537672	5.0.10.0	5_exp_RW	47	Rpleas_acq	CS_A	JQQJ	ZHHZ	DXXD	CPPC	YFFY	LWWL	küssen	genießen	sonnig	träumen	vertrauen	gütig	krank	gemein	sterben	töten	versagen	gierig	1	acq_USunple_CSunple2_RW	acq4567_RW	5	23	400	1	300	300	460	50	0	0	1	blank2r.bmp	0	1	+	0	1	blank2r.bmp	492	1	CPPC	492	1	blank2r.bmp	572	3	gierig	866	1	!	1239	1	!	1359	0	0	0	0	0	0	0	0	0	0	0	0	0	0	0	0	0	0	0	0	0	0	0	0	0	0	0	0	0	0
071519	11:30:02	11:39:03	539925	5.0.10.0	5_exp_RW	47	Rpleas_acq	CS_A	JQQJ	ZHHZ	DXXD	CPPC	YFFY	LWWL	küssen	genießen	sonnig	träumen	vertrauen	gütig	krank	gemein	sterben	töten	versagen	gierig	1	acq_USunple_CSunple2_RW	acq4567_RW	5	24	400	0	300	300	482	46	0	1	1	blank2r.bmp	0	1	+	0	1	blank2r.bmp	492	1	CPPC	492	1	blank2r.bmp	572	2	versagen	866	1	!	1239	1	!	-1	0	0	0	0	0	0	0	0	0	0	0	0	0	0	0	0	0	0	0	0	0	0	0	0	0	0	0	0	0	0
071519	11:30:02	11:39:05	542124	5.0.10.0	5_exp_RW	47	Rpleas_acq	CS_A	JQQJ	ZHHZ	DXXD	CPPC	YFFY	LWWL	küssen	genießen	sonnig	träumen	vertrauen	gütig	krank	gemein	sterben	töten	versagen	gierig	1	acq_USpleas_CSpleas1_RW	acq4567_RW	5	25	400	1	300	300	392	50	0	1	1	blank2r.bmp	0	1	+	0	1	blank2r.bmp	492	1	JQQJ	492	1	blank2r.bmp	572	1	küssen	866	1	!	1239	1	!	1292	0	0	0	0	0	0	0	0	0	0	0	0	0	0	0	0	0	0	0	0	0	0	0	0	0	0	0	0	0	0
071519	11:30:02	11:39:07	544363	5.0.10.0	5_exp_RW	47	Rpleas_acq	CS_A	JQQJ	ZHHZ	DXXD	CPPC	YFFY	LWWL	küssen	genießen	sonnig	träumen	vertrauen	gütig	krank	gemein	sterben	töten	versagen	gierig	1	acq_USunple_CSunple1_RW	acq4567_RW	5	26	400	1	300	300	440	46	0	1	1	blank2r.bmp	0	1	+	0	1	blank2r.bmp	492	1	DXXD	492	1	blank2r.bmp	572	1	krank	866	1	!	1239	1	!	1346	0	0	0	0	0	0	0	0	0	0	0	0	0	0	0	0	0	0	0	0	0	0	0	0	0	0	0	0	0	0
071519	11:30:02	11:39:10	546575	5.0.10.0	5_exp_RW	47	Rpleas_acq	CS_A	JQQJ	ZHHZ	DXXD	CPPC	YFFY	LWWL	küssen	genießen	sonnig	träumen	vertrauen	gütig	krank	gemein	sterben	töten	versagen	gierig	1	acq_USunple_CSunple1_RW	acq4567_RW	5	27	400	1	300	300	418	46	0	1	1	blank2r.bmp	0	1	+	0	1	blank2r.bmp	492	1	DXXD	492	1	blank2r.bmp	572	2	gemein	866	1	!	1239	1	!	1319	0	0	0	0	0	0	0	0	0	0	0	0	0	0	0	0	0	0	0	0	0	0	0	0	0	0	0	0	0	0
071519	11:30:02	11:39:12	548654	5.0.10.0	5_exp_RW	47	Rpleas_acq	CS_A	JQQJ	ZHHZ	DXXD	CPPC	YFFY	LWWL	küssen	genießen	sonnig	träumen	vertrauen	gütig	krank	gemein	sterben	töten	versagen	gierig	1	acq_USpleas_CSpleas1_RW	acq4567_RW	5	28	400	0	300	300	298	50	0	1	1	blank2r.bmp	0	1	+	0	1	blank2r.bmp	492	1	JQQJ	492	1	blank2r.bmp	572	3	sonnig	866	1	!	-1	1	!	-1	0	0	0	0	0	0	0	0	0	0	0	0	0	0	0	0	0	0	0	0	0	0	0	0	0	0	0	0	0	0
071519	11:30:02	11:39:14	550774	5.0.10.0	5_exp_RW	47	Rpleas_acq	CS_A	JQQJ	ZHHZ	DXXD	CPPC	YFFY	LWWL	küssen	genießen	sonnig	träumen	vertrauen	gütig	krank	gemein	sterben	töten	versagen	gierig	1	acq_USpleas_CSpleas1_RW	acq4567_RW	5	29	400	0	300	300	330	50	0	1	1	blank2r.bmp	0	1	+	0	1	blank2r.bmp	492	1	JQQJ	492	1	blank2r.bmp	572	1	küssen	866	1	!	-1	1	!	-1	0	0	0	0	0	0	0	0	0	0	0	0	0	0	0	0	0	0	0	0	0	0	0	0	0	0	0	0	0	0
071519	11:30:02	11:39:16	553013	5.0.10.0	5_exp_RW	47	Rpleas_acq	CS_A	JQQJ	ZHHZ	DXXD	CPPC	YFFY	LWWL	küssen	genießen	sonnig	träumen	vertrauen	gütig	krank	gemein	sterben	töten	versagen	gierig	1	acq_USpleas_CSpleas1_RW	acq4567_RW	5	30	400	1	300	300	436	50	0	1	1	blank2r.bmp	0	1	+	0	1	blank2r.bmp	492	1	JQQJ	492	1	blank2r.bmp	572	2	genießen	866	1	!	1239	1	!	1332	0	0	0	0	0	0	0	0	0	0	0	0	0	0	0	0	0	0	0	0	0	0	0	0	0	0	0	0	0	0
071519	11:30:02	11:39:18	555278	5.0.10.0	5_exp_RW	47	Rpleas_acq	CS_A	JQQJ	ZHHZ	DXXD	CPPC	YFFY	LWWL	küssen	genießen	sonnig	träumen	vertrauen	gütig	krank	gemein	sterben	töten	versagen	gierig	1	acq_USunple_CSunple2_RW	acq4567_RW	5	31	400	0	300	300	497	46	0	1	1	blank2r.bmp	0	1	+	0	1	blank2r.bmp	492	1	CPPC	492	1	blank2r.bmp	572	3	gierig	866	1	!	1239	1	!	-1	0	0	0	0	0	0	0	0	0	0	0	0	0	0	0	0	0	0	0	0	0	0	0	0	0	0	0	0	0	0
071519	11:30:02	11:39:20	557344	5.0.10.0	5_exp_RW	47	Rpleas_acq	CS_A	JQQJ	ZHHZ	DXXD	CPPC	YFFY	LWWL	küssen	genießen	sonnig	träumen	vertrauen	gütig	krank	gemein	sterben	töten	versagen	gierig	1	acq_USunple_CSunple1_RW	acq4567_RW	5	32	400	0	300	300	288	46	0	1	1	blank2r.bmp	0	1	+	0	1	blank2r.bmp	492	1	DXXD	492	1	blank2r.bmp	572	3	sterben	866	1	!	-1	1	!	-1	0	0	0	0	0	0	0	0	0	0	0	0	0	0	0	0	0	0	0	0	0	0	0	0	0	0	0	0	0	0
071519	11:30:02	11:39:23	559610	5.0.10.0	5_exp_RW	47	Rpleas_acq	CS_A	JQQJ	ZHHZ	DXXD	CPPC	YFFY	LWWL	küssen	genießen	sonnig	träumen	vertrauen	gütig	krank	gemein	sterben	töten	versagen	gierig	1	acq_USunple_CSunple1_RW	acq4567_RW	5	33	400	0	300	300	479	46	0	1	1	blank2r.bmp	0	1	+	0	1	blank2r.bmp	492	1	DXXD	492	1	blank2r.bmp	572	1	krank	866	1	!	1239	1	!	-1	0	0	0	0	0	0	0	0	0	0	0	0	0	0	0	0	0	0	0	0	0	0	0	0	0	0	0	0	0	0
071519	11:30:02	11:39:25	561876	5.0.10.0	5_exp_RW	47	Rpleas_acq	CS_A	JQQJ	ZHHZ	DXXD	CPPC	YFFY	LWWL	küssen	genießen	sonnig	träumen	vertrauen	gütig	krank	gemein	sterben	töten	versagen	gierig	1	acq_USpleas_CSpleas2_RW	acq4567_RW	5	34	400	0	300	300	479	46	0	0	1	blank2r.bmp	0	1	+	0	1	blank2r.bmp	492	1	ZHHZ	492	1	blank2r.bmp	572	2	vertrauen	866	1	!	1239	1	!	-1	0	0	0	0	0	0	0	0	0	0	0	0	0	0	0	0	0	0	0	0	0	0	0	0	0	0	0	0	0	0
071519	11:30:02	11:39:27	564128	5.0.10.0	5_exp_RW	47	Rpleas_acq	CS_A	JQQJ	ZHHZ	DXXD	CPPC	YFFY	LWWL	küssen	genießen	sonnig	träumen	vertrauen	gütig	krank	gemein	sterben	töten	versagen	gierig	1	acq_USunple_CSunple2_RW	acq4567_RW	5	35	400	1	300	300	446	50	0	0	1	blank2r.bmp	0	1	+	0	1	blank2r.bmp	492	1	CPPC	492	1	blank2r.bmp	572	1	töten	866	1	!	1239	1	!	1346	0	0	0	0	0	0	0	0	0	0	0	0	0	0	0	0	0	0	0	0	0	0	0	0	0	0	0	0	0	0
071519	11:30:02	11:39:29	566367	5.0.10.0	5_exp_RW	47	Rpleas_acq	CS_A	JQQJ	ZHHZ	DXXD	CPPC	YFFY	LWWL	küssen	genießen	sonnig	träumen	vertrauen	gütig	krank	gemein	sterben	töten	versagen	gierig	1	acq_USunple_CSunple2_RW	acq4567_RW	5	36	400	1	300	300	449	46	0	1	1	blank2r.bmp	0	1	+	0	1	blank2r.bmp	492	1	CPPC	492	1	blank2r.bmp	572	1	töten	866	1	!	1239	1	!	1346	0	0	0	0	0	0	0	0	0	0	0	0	0	0	0	0	0	0	0	0	0	0	0	0	0	0	0	0	0	0
071519	11:30:02	11:39:32	568620	5.0.10.0	5_exp_RW	47	Rpleas_acq	CS_A	JQQJ	ZHHZ	DXXD	CPPC	YFFY	LWWL	küssen	genießen	sonnig	träumen	vertrauen	gütig	krank	gemein	sterben	töten	versagen	gierig	1	acq_USpleas_CSpleas2_RW	acq4567_RW	5	37	400	1	300	300	460	50	0	1	1	blank2r.bmp	0	1	+	0	1	blank2r.bmp	492	1	ZHHZ	492	1	blank2r.bmp	572	3	gütig	866	1	!	1239	1	!	1359	0	0	0	0	0	0	0	0	0	0	0	0	0	0	0	0	0	0	0	0	0	0	0	0	0	0	0	0	0	0
071519	11:30:02	11:39:34	570832	5.0.10.0	5_exp_RW	47	Rpleas_acq	CS_A	JQQJ	ZHHZ	DXXD	CPPC	YFFY	LWWL	küssen	genießen	sonnig	träumen	vertrauen	gütig	krank	gemein	sterben	töten	versagen	gierig	1	acq_USpleas_CSpleas2_RW	acq4567_RW	5	38	400	1	300	300	401	46	0	0	1	blank2r.bmp	0	1	+	0	1	blank2r.bmp	492	1	ZHHZ	492	1	blank2r.bmp	572	1	träumen	866	1	!	1239	1	!	1306	0	0	0	0	0	0	0	0	0	0	0	0	0	0	0	0	0	0	0	0	0	0	0	0	0	0	0	0	0	0
071519	11:30:02	11:39:36	573178	5.0.10.0	5_exp_RW	47	Rpleas_acq	CS_A	JQQJ	ZHHZ	DXXD	CPPC	YFFY	LWWL	küssen	genießen	sonnig	träumen	vertrauen	gütig	krank	gemein	sterben	töten	versagen	gierig	1	acq_USunple_CSunple1_RW	acq4567_RW	5	39	400	0	300	300	579	46	0	1	1	blank2r.bmp	0	1	+	0	1	blank2r.bmp	492	1	DXXD	492	1	blank2r.bmp	572	2	gemein	866	1	!	1239	1	!	-1	0	0	0	0	0	0	0	0	0	0	0	0	0	0	0	0	0	0	0	0	0	0	0	0	0	0	0	0	0	0
071519	11:30:02	11:39:38	575417	5.0.10.0	5_exp_RW	47	Rpleas_acq	CS_A	JQQJ	ZHHZ	DXXD	CPPC	YFFY	LWWL	küssen	genießen	sonnig	träumen	vertrauen	gütig	krank	gemein	sterben	töten	versagen	gierig	1	acq_USpleas_CSpleas1_RW	acq4567_RW	5	40	400	1	300	300	414	50	0	1	1	blank2r.bmp	0	1	+	0	1	blank2r.bmp	492	1	JQQJ	492	1	blank2r.bmp	572	1	küssen	866	1	!	1239	1	!	1319	0	0	0	0	0	0	0	0	0	0	0	0	0	0	0	0	0	0	0	0	0	0	0	0	0	0	0	0	0	0
071519	11:30:02	11:39:42	579215	5.0.10.0	5_exp_RW	47	Rpleas_acq	CS_A	JQQJ	ZHHZ	DXXD	CPPC	YFFY	LWWL	küssen	genießen	sonnig	träumen	vertrauen	gütig	krank	gemein	sterben	töten	versagen	gierig	1	acq_USpleas_CSpleas2_RW	acq4567_RW	5	41	400	0	300	300	2030	50	0	1	1	blank2r.bmp	0	1	+	0	1	blank2r.bmp	492	1	ZHHZ	492	1	blank2r.bmp	572	3	gütig	866	1	!	1239	1	!	-1	0	0	0	0	0	0	0	0	0	0	0	0	0	0	0	0	0	0	0	0	0	0	0	0	0	0	0	0	0	0
071519	11:30:02	11:39:45	581494	5.0.10.0	5_exp_RW	47	Rpleas_acq	CS_A	JQQJ	ZHHZ	DXXD	CPPC	YFFY	LWWL	küssen	genießen	sonnig	träumen	vertrauen	gütig	krank	gemein	sterben	töten	versagen	gierig	1	acq_USpleas_CSpleas1_RW	acq4567_RW	5	42	400	1	300	300	467	50	0	1	1	blank2r.bmp	0	1	+	0	1	blank2r.bmp	492	1	JQQJ	492	1	blank2r.bmp	572	2	genießen	866	1	!	1239	1	!	1372	0	0	0	0	0	0	0	0	0	0	0	0	0	0	0	0	0	0	0	0	0	0	0	0	0	0	0	0	0	0
071519	11:30:02	11:39:47	583947	5.0.10.0	5_exp_RW	47	Rpleas_acq	CS_A	JQQJ	ZHHZ	DXXD	CPPC	YFFY	LWWL	küssen	genießen	sonnig	träumen	vertrauen	gütig	krank	gemein	sterben	töten	versagen	gierig	1	acq_USpleas_CSpleas1_RW	acq4567_RW	5	43	400	0	300	300	688	50	0	1	1	blank2r.bmp	0	1	+	0	1	blank2r.bmp	492	1	JQQJ	492	1	blank2r.bmp	572	3	sonnig	866	1	!	1239	1	!	-1	0	0	0	0	0	0	0	0	0	0	0	0	0	0	0	0	0	0	0	0	0	0	0	0	0	0	0	0	0	0
071519	11:30:02	11:39:49	586226	5.0.10.0	5_exp_RW	47	Rpleas_acq	CS_A	JQQJ	ZHHZ	DXXD	CPPC	YFFY	LWWL	küssen	genießen	sonnig	träumen	vertrauen	gütig	krank	gemein	sterben	töten	versagen	gierig	1	acq_USunple_CSunple1_RW	acq4567_RW	5	44	400	0	300	300	498	46	0	1	1	blank2r.bmp	0	1	+	0	1	blank2r.bmp	492	1	DXXD	492	1	blank2r.bmp	572	1	krank	866	1	!	1239	1	!	-1	0	0	0	0	0	0	0	0	0	0	0	0	0	0	0	0	0	0	0	0	0	0	0	0	0	0	0	0	0	0
071519	11:30:02	11:39:52	588585	5.0.10.0	5_exp_RW	47	Rpleas_acq	CS_A	JQQJ	ZHHZ	DXXD	CPPC	YFFY	LWWL	küssen	genießen	sonnig	träumen	vertrauen	gütig	krank	gemein	sterben	töten	versagen	gierig	1	acq_USpleas_CSpleas2_RW	acq4567_RW	5	45	400	0	300	300	584	50	0	1	1	blank2r.bmp	0	1	+	0	1	blank2r.bmp	492	1	ZHHZ	492	1	blank2r.bmp	572	2	vertrauen	866	1	!	1239	1	!	-1	0	0	0	0	0	0	0	0	0	0	0	0	0	0	0	0	0	0	0	0	0	0	0	0	0	0	0	0	0	0
071519	11:30:02	11:39:54	590811	5.0.10.0	5_exp_RW	47	Rpleas_acq	CS_A	JQQJ	ZHHZ	DXXD	CPPC	YFFY	LWWL	küssen	genießen	sonnig	träumen	vertrauen	gütig	krank	gemein	sterben	töten	versagen	gierig	1	acq_USpleas_CSpleas1_RW	acq4567_RW	5	46	400	1	300	300	412	50	0	1	1	blank2r.bmp	0	1	+	0	1	blank2r.bmp	492	1	JQQJ	492	1	blank2r.bmp	572	1	küssen	866	1	!	1239	1	!	1319	0	0	0	0	0	0	0	0	0	0	0	0	0	0	0	0	0	0	0	0	0	0	0	0	0	0	0	0	0	0
071519	11:30:02	11:39:56	593063	5.0.10.0	5_exp_RW	47	Rpleas_acq	CS_A	JQQJ	ZHHZ	DXXD	CPPC	YFFY	LWWL	küssen	genießen	sonnig	träumen	vertrauen	gütig	krank	gemein	sterben	töten	versagen	gierig	1	acq_USpleas_CSpleas2_RW	acq4567_RW	5	47	400	0	300	300	479	50	0	1	1	blank2r.bmp	0	1	+	0	1	blank2r.bmp	492	1	ZHHZ	492	1	blank2r.bmp	572	2	vertrauen	866	1	!	1239	1	!	-1	0	0	0	0	0	0	0	0	0	0	0	0	0	0	0	0	0	0	0	0	0	0	0	0	0	0	0	0	0	0
071519	11:30:02	11:39:58	595222	5.0.10.0	5_exp_RW	47	Rpleas_acq	CS_A	JQQJ	ZHHZ	DXXD	CPPC	YFFY	LWWL	küssen	genießen	sonnig	träumen	vertrauen	gütig	krank	gemein	sterben	töten	versagen	gierig	1	acq_USunple_CSunple2_RW	acq4567_RW	5	48	400	1	300	300	357	46	0	1	1	blank2r.bmp	0	1	+	0	1	blank2r.bmp	492	1	CPPC	492	1	blank2r.bmp	572	3	gierig	866	1	!	1239	1	!	1252	0	0	0	0	0	0	0	0	0	0	0	0	0	0	0	0	0	0	0	0	0	0	0	0	0	0	0	0	0	0
071519	11:30:02	11:40:01	597434	5.0.10.0	5_exp_RW	47	Rpleas_acq	CS_A	JQQJ	ZHHZ	DXXD	CPPC	YFFY	LWWL	küssen	genießen	sonnig	träumen	vertrauen	gütig	krank	gemein	sterben	töten	versagen	gierig	1	acq_USpleas_CSpleas2_RW	acq4567_RW	5	49	400	1	300	300	417	50	0	1	1	blank2r.bmp	0	1	+	0	1	blank2r.bmp	492	1	ZHHZ	492	1	blank2r.bmp	572	1	träumen	866	1	!	1239	1	!	1319	0	0	0	0	0	0	0	0	0	0	0	0	0	0	0	0	0	0	0	0	0	0	0	0	0	0	0	0	0	0
071519	11:30:02	11:40:03	599647	5.0.10.0	5_exp_RW	47	Rpleas_acq	CS_A	JQQJ	ZHHZ	DXXD	CPPC	YFFY	LWWL	küssen	genießen	sonnig	träumen	vertrauen	gütig	krank	gemein	sterben	töten	versagen	gierig	1	acq_USunple_CSunple2_RW	acq4567_RW	5	50	400	1	300	300	421	46	0	1	1	blank2r.bmp	0	1	+	0	1	blank2r.bmp	492	1	CPPC	492	1	blank2r.bmp	572	2	versagen	866	1	!	1239	1	!	1319	0	0	0	0	0	0	0	0	0	0	0	0	0	0	0	0	0	0	0	0	0	0	0	0	0	0	0	0	0	0
071519	11:30:02	11:40:05	601806	5.0.10.0	5_exp_RW	47	Rpleas_acq	CS_A	JQQJ	ZHHZ	DXXD	CPPC	YFFY	LWWL	küssen	genießen	sonnig	träumen	vertrauen	gütig	krank	gemein	sterben	töten	versagen	gierig	1	acq_USunple_CSunple1_RW	acq4567_RW	5	51	400	1	300	300	346	50	0	0	1	blank2r.bmp	0	1	+	0	1	blank2r.bmp	492	1	DXXD	492	1	blank2r.bmp	572	3	sterben	866	1	!	1239	1	!	1252	0	0	0	0	0	0	0	0	0	0	0	0	0	0	0	0	0	0	0	0	0	0	0	0	0	0	0	0	0	0
071519	11:30:02	11:40:07	604058	5.0.10.0	5_exp_RW	47	Rpleas_acq	CS_A	JQQJ	ZHHZ	DXXD	CPPC	YFFY	LWWL	küssen	genießen	sonnig	träumen	vertrauen	gütig	krank	gemein	sterben	töten	versagen	gierig	1	acq_USunple_CSunple1_RW	acq4567_RW	5	52	400	0	300	300	479	50	0	0	1	blank2r.bmp	0	1	+	0	1	blank2r.bmp	492	1	DXXD	492	1	blank2r.bmp	572	3	sterben	866	1	!	1239	1	!	-1	0	0	0	0	0	0	0	0	0	0	0	0	0	0	0	0	0	0	0	0	0	0	0	0	0	0	0	0	0	0
071519	11:30:02	11:40:09	606311	5.0.10.0	5_exp_RW	47	Rpleas_acq	CS_A	JQQJ	ZHHZ	DXXD	CPPC	YFFY	LWWL	küssen	genießen	sonnig	träumen	vertrauen	gütig	krank	gemein	sterben	töten	versagen	gierig	1	acq_USunple_CSunple2_RW	acq4567_RW	5	53	400	1	300	300	450	46	0	1	1	blank2r.bmp	0	1	+	0	1	blank2r.bmp	492	1	CPPC	492	1	blank2r.bmp	572	3	gierig	866	1	!	1239	1	!	1346	0	0	0	0	0	0	0	0	0	0	0	0	0	0	0	0	0	0	0	0	0	0	0	0	0	0	0	0	0	0
071519	11:30:02	11:40:12	608457	5.0.10.0	5_exp_RW	47	Rpleas_acq	CS_A	JQQJ	ZHHZ	DXXD	CPPC	YFFY	LWWL	küssen	genießen	sonnig	träumen	vertrauen	gütig	krank	gemein	sterben	töten	versagen	gierig	1	acq_USpleas_CSpleas1_RW	acq4567_RW	5	54	400	1	300	300	354	50	0	1	1	blank2r.bmp	0	1	+	0	1	blank2r.bmp	492	1	JQQJ	492	1	blank2r.bmp	572	3	sonnig	866	1	!	1239	1	!	1252	0	0	0	0	0	0	0	0	0	0	0	0	0	0	0	0	0	0	0	0	0	0	0	0	0	0	0	0	0	0
071519	11:30:02	11:40:14	610709	5.0.10.0	5_exp_RW	47	Rpleas_acq	CS_A	JQQJ	ZHHZ	DXXD	CPPC	YFFY	LWWL	küssen	genießen	sonnig	träumen	vertrauen	gütig	krank	gemein	sterben	töten	versagen	gierig	1	acq_USunple_CSunple1_RW	acq4567_RW	5	55	400	0	300	300	479	50	0	0	1	blank2r.bmp	0	1	+	0	1	blank2r.bmp	492	1	DXXD	492	1	blank2r.bmp	572	1	krank	866	1	!	1239	1	!	-1	0	0	0	0	0	0	0	0	0	0	0	0	0	0	0	0	0	0	0	0	0	0	0	0	0	0	0	0	0	0
071519	11:30:02	11:40:16	612988	5.0.10.0	5_exp_RW	47	Rpleas_acq	CS_A	JQQJ	ZHHZ	DXXD	CPPC	YFFY	LWWL	küssen	genießen	sonnig	träumen	vertrauen	gütig	krank	gemein	sterben	töten	versagen	gierig	1	acq_USunple_CSunple2_RW	acq4567_RW	5	56	400	0	300	300	489	46	0	1	1	blank2r.bmp	0	1	+	0	1	blank2r.bmp	492	1	CPPC	492	1	blank2r.bmp	572	1	töten	866	1	!	1239	1	!	-1	0	0	0	0	0	0	0	0	0	0	0	0	0	0	0	0	0	0	0	0	0	0	0	0	0	0	0	0	0	0
071519	11:30:02	11:40:18	615334	5.0.10.0	5_exp_RW	47	Rpleas_acq	CS_A	JQQJ	ZHHZ	DXXD	CPPC	YFFY	LWWL	küssen	genießen	sonnig	träumen	vertrauen	gütig	krank	gemein	sterben	töten	versagen	gierig	1	acq_USunple_CSunple1_RW	acq4567_RW	5	57	400	0	300	300	558	46	0	1	1	blank2r.bmp	0	1	+	0	1	blank2r.bmp	492	1	DXXD	492	1	blank2r.bmp	572	2	gemein	866	1	!	1239	1	!	-1	0	0	0	0	0	0	0	0	0	0	0	0	0	0	0	0	0	0	0	0	0	0	0	0	0	0	0	0	0	0
071519	11:30:02	11:40:21	617600	5.0.10.0	5_exp_RW	47	Rpleas_acq	CS_A	JQQJ	ZHHZ	DXXD	CPPC	YFFY	LWWL	küssen	genießen	sonnig	träumen	vertrauen	gütig	krank	gemein	sterben	töten	versagen	gierig	1	acq_USpleas_CSpleas1_RW	acq4567_RW	5	58	400	1	300	300	453	50	0	1	1	blank2r.bmp	0	1	+	0	1	blank2r.bmp	492	1	JQQJ	492	1	blank2r.bmp	572	2	genießen	866	1	!	1239	1	!	1359	0	0	0	0	0	0	0	0	0	0	0	0	0	0	0	0	0	0	0	0	0	0	0	0	0	0	0	0	0	0
071519	11:30:02	11:40:23	619985	5.0.10.0	5_exp_RW	47	Rpleas_acq	CS_A	JQQJ	ZHHZ	DXXD	CPPC	YFFY	LWWL	küssen	genießen	sonnig	träumen	vertrauen	gütig	krank	gemein	sterben	töten	versagen	gierig	1	acq_USpleas_CSpleas2_RW	acq4567_RW	5	59	400	0	300	300	612	46	0	0	1	blank2r.bmp	0	1	+	0	1	blank2r.bmp	492	1	ZHHZ	492	1	blank2r.bmp	572	3	gütig	866	1	!	1239	1	!	-1	0	0	0	0	0	0	0	0	0	0	0	0	0	0	0	0	0	0	0	0	0	0	0	0	0	0	0	0	0	0
071519	11:30:02	11:40:25	622318	5.0.10.0	5_exp_RW	47	Rpleas_acq	CS_A	JQQJ	ZHHZ	DXXD	CPPC	YFFY	LWWL	küssen	genießen	sonnig	träumen	vertrauen	gütig	krank	gemein	sterben	töten	versagen	gierig	1	acq_USunple_CSunple2_RW	acq4567_RW	5	60	400	0	300	300	546	46	0	1	1	blank2r.bmp	0	1	+	0	1	blank2r.bmp	492	1	CPPC	492	1	blank2r.bmp	572	2	versagen	866	1	!	1239	1	!	-1	0	0	0	0	0	0	0	0	0	0	0	0	0	0	0	0	0	0	0	0	0	0	0	0	0	0	0	0	0	0
071519	11:30:02	11:40:28	624570	5.0.10.0	5_exp_RW	47	Rpleas_acq	CS_A	JQQJ	ZHHZ	DXXD	CPPC	YFFY	LWWL	küssen	genießen	sonnig	träumen	vertrauen	gütig	krank	gemein	sterben	töten	versagen	gierig	1	acq_USpleas_CSpleas1_RW	acq4567_RW	5	61	400	1	300	300	434	50	0	1	1	blank2r.bmp	0	1	+	0	1	blank2r.bmp	492	1	JQQJ	492	1	blank2r.bmp	572	2	genießen	866	1	!	1239	1	!	1332	0	0	0	0	0	0	0	0	0	0	0	0	0	0	0	0	0	0	0	0	0	0	0	0	0	0	0	0	0	0
071519	11:30:02	11:40:30	626809	5.0.10.0	5_exp_RW	47	Rpleas_acq	CS_A	JQQJ	ZHHZ	DXXD	CPPC	YFFY	LWWL	küssen	genießen	sonnig	träumen	vertrauen	gütig	krank	gemein	sterben	töten	versagen	gierig	1	acq_USunple_CSunple1_RW	acq4567_RW	5	62	400	1	300	300	443	50	0	0	1	blank2r.bmp	0	1	+	0	1	blank2r.bmp	492	1	DXXD	492	1	blank2r.bmp	572	3	sterben	866	1	!	1239	1	!	1346	0	0	0	0	0	0	0	0	0	0	0	0	0	0	0	0	0	0	0	0	0	0	0	0	0	0	0	0	0	0
071519	11:30:02	11:40:32	628995	5.0.10.0	5_exp_RW	47	Rpleas_acq	CS_A	JQQJ	ZHHZ	DXXD	CPPC	YFFY	LWWL	küssen	genießen	sonnig	träumen	vertrauen	gütig	krank	gemein	sterben	töten	versagen	gierig	1	acq_USpleas_CSpleas2_RW	acq4567_RW	5	63	400	1	300	300	394	50	0	1	1	blank2r.bmp	0	1	+	0	1	blank2r.bmp	492	1	ZHHZ	492	1	blank2r.bmp	572	3	gütig	866	1	!	1239	1	!	1292	0	0	0	0	0	0	0	0	0	0	0	0	0	0	0	0	0	0	0	0	0	0	0	0	0	0	0	0	0	0
071519	11:30:02	11:40:34	631087	5.0.10.0	5_exp_RW	47	Rpleas_acq	CS_A	JQQJ	ZHHZ	DXXD	CPPC	YFFY	LWWL	küssen	genießen	sonnig	träumen	vertrauen	gütig	krank	gemein	sterben	töten	versagen	gierig	1	acq_USpleas_CSpleas2_RW	acq4567_RW	5	64	400	0	300	300	325	46	0	0	1	blank2r.bmp	0	1	+	0	1	blank2r.bmp	492	1	ZHHZ	492	1	blank2r.bmp	572	1	träumen	866	1	!	-1	1	!	-1	0	0	0	0	0	0	0	0	0	0	0	0	0	0	0	0	0	0	0	0	0	0	0	0	0	0	0	0	0	0
071519	11:30:02	11:40:36	633300	5.0.10.0	5_exp_RW	47	Rpleas_acq	CS_A	JQQJ	ZHHZ	DXXD	CPPC	YFFY	LWWL	küssen	genießen	sonnig	träumen	vertrauen	gütig	krank	gemein	sterben	töten	versagen	gierig	1	acq_USunple_CSunple2_RW	acq4567_RW	5	65	400	1	300	300	401	46	0	1	1	blank2r.bmp	0	1	+	0	1	blank2r.bmp	492	1	CPPC	492	1	blank2r.bmp	572	2	versagen	866	1	!	1239	1	!	1306	0	0	0	0	0	0	0	0	0	0	0	0	0	0	0	0	0	0	0	0	0	0	0	0	0	0	0	0	0	0
071519	11:30:02	11:40:39	635499	5.0.10.0	5_exp_RW	47	Rpleas_acq	CS_A	JQQJ	ZHHZ	DXXD	CPPC	YFFY	LWWL	küssen	genießen	sonnig	träumen	vertrauen	gütig	krank	gemein	sterben	töten	versagen	gierig	1	acq_USpleas_CSpleas2_RW	acq4567_RW	5	66	400	1	300	300	401	46	0	0	1	blank2r.bmp	0	1	+	0	1	blank2r.bmp	492	1	ZHHZ	492	1	blank2r.bmp	572	2	vertrauen	866	1	!	1239	1	!	1306	0	0	0	0	0	0	0	0	0	0	0	0	0	0	0	0	0	0	0	0	0	0	0	0	0	0	0	0	0	0
071519	11:30:02	11:40:41	637831	5.0.10.0	5_exp_RW	47	Rpleas_acq	CS_A	JQQJ	ZHHZ	DXXD	CPPC	YFFY	LWWL	küssen	genießen	sonnig	träumen	vertrauen	gütig	krank	gemein	sterben	töten	versagen	gierig	1	acq_USunple_CSunple1_RW	acq4567_RW	5	67	400	0	300	300	561	50	0	0	1	blank2r.bmp	0	1	+	0	1	blank2r.bmp	492	1	DXXD	492	1	blank2r.bmp	572	1	krank	866	1	!	1239	1	!	-1	0	0	0	0	0	0	0	0	0	0	0	0	0	0	0	0	0	0	0	0	0	0	0	0	0	0	0	0	0	0
071519	11:30:02	11:40:45	641483	5.0.10.0	5_exp_RW	47	Rpleas_acq	CS_A	JQQJ	ZHHZ	DXXD	CPPC	YFFY	LWWL	küssen	genießen	sonnig	träumen	vertrauen	gütig	krank	gemein	sterben	töten	versagen	gierig	1	acq_USunple_CSunple1_RW	acq4567_RW	5	68	400	0	300	300	1870	46	0	1	1	blank2r.bmp	0	1	+	0	1	blank2r.bmp	492	1	DXXD	492	1	blank2r.bmp	572	2	gemein	866	1	!	1239	1	!	-1	0	0	0	0	0	0	0	0	0	0	0	0	0	0	0	0	0	0	0	0	0	0	0	0	0	0	0	0	0	0
071519	11:30:02	11:40:47	643749	5.0.10.0	5_exp_RW	47	Rpleas_acq	CS_A	JQQJ	ZHHZ	DXXD	CPPC	YFFY	LWWL	küssen	genießen	sonnig	träumen	vertrauen	gütig	krank	gemein	sterben	töten	versagen	gierig	1	acq_USunple_CSunple2_RW	acq4567_RW	5	69	400	1	300	300	453	46	0	1	1	blank2r.bmp	0	1	+	0	1	blank2r.bmp	492	1	CPPC	492	1	blank2r.bmp	572	3	gierig	866	1	!	1239	1	!	1359	0	0	0	0	0	0	0	0	0	0	0	0	0	0	0	0	0	0	0	0	0	0	0	0	0	0	0	0	0	0
071519	11:30:02	11:40:49	645948	5.0.10.0	5_exp_RW	47	Rpleas_acq	CS_A	JQQJ	ZHHZ	DXXD	CPPC	YFFY	LWWL	küssen	genießen	sonnig	träumen	vertrauen	gütig	krank	gemein	sterben	töten	versagen	gierig	1	acq_USpleas_CSpleas1_RW	acq4567_RW	5	70	400	1	300	300	396	50	0	1	1	blank2r.bmp	0	1	+	0	1	blank2r.bmp	492	1	JQQJ	492	1	blank2r.bmp	572	1	küssen	866	1	!	1239	1	!	1292	0	0	0	0	0	0	0	0	0	0	0	0	0	0	0	0	0	0	0	0	0	0	0	0	0	0	0	0	0	0
071519	11:30:02	11:40:51	648214	5.0.10.0	5_exp_RW	47	Rpleas_acq	CS_A	JQQJ	ZHHZ	DXXD	CPPC	YFFY	LWWL	küssen	genießen	sonnig	träumen	vertrauen	gütig	krank	gemein	sterben	töten	versagen	gierig	1	acq_USpleas_CSpleas2_RW	acq4567_RW	5	71	400	1	300	300	452	50	0	1	1	blank2r.bmp	0	1	+	0	1	blank2r.bmp	492	1	ZHHZ	492	1	blank2r.bmp	572	2	vertrauen	866	1	!	1239	1	!	1359	0	0	0	0	0	0	0	0	0	0	0	0	0	0	0	0	0	0	0	0	0	0	0	0	0	0	0	0	0	0
071519	11:30:02	11:40:53	650399	5.0.10.0	5_exp_RW	47	Rpleas_acq	CS_A	JQQJ	ZHHZ	DXXD	CPPC	YFFY	LWWL	küssen	genießen	sonnig	träumen	vertrauen	gütig	krank	gemein	sterben	töten	versagen	gierig	1	acq_USunple_CSunple1_RW	acq4567_RW	5	72	400	1	300	300	391	46	0	1	1	blank2r.bmp	0	1	+	0	1	blank2r.bmp	492	1	DXXD	492	1	blank2r.bmp	572	3	sterben	866	1	!	1239	1	!	1292	0	0	0	0	0	0	0	0	0	0	0	0	0	0	0	0	0	0	0	0	0	0	0	0	0	0	0	0	0	0
071519	11:30:02	11:40:56	652585	5.0.10.0	5_exp_RW	47	Rpleas_acq	CS_A	JQQJ	ZHHZ	DXXD	CPPC	YFFY	LWWL	küssen	genießen	sonnig	träumen	vertrauen	gütig	krank	gemein	sterben	töten	versagen	gierig	1	acq_USpleas_CSpleas1_RW	acq4567_RW	5	73	400	1	300	300	388	50	0	1	1	blank2r.bmp	0	1	+	0	1	blank2r.bmp	492	1	JQQJ	492	1	blank2r.bmp	572	3	sonnig	866	1	!	1239	1	!	1292	0	0	0	0	0	0	0	0	0	0	0	0	0	0	0	0	0	0	0	0	0	0	0	0	0	0	0	0	0	0
071519	11:30:02	11:40:58	654731	5.0.10.0	5_exp_RW	47	Rpleas_acq	CS_A	JQQJ	ZHHZ	DXXD	CPPC	YFFY	LWWL	küssen	genießen	sonnig	träumen	vertrauen	gütig	krank	gemein	sterben	töten	versagen	gierig	1	acq_USunple_CSunple1_RW	acq4567_RW	5	74	400	1	300	300	346	46	0	1	1	blank2r.bmp	0	1	+	0	1	blank2r.bmp	492	1	DXXD	492	1	blank2r.bmp	572	2	gemein	866	1	!	1239	1	!	1252	0	0	0	0	0	0	0	0	0	0	0	0	0	0	0	0	0	0	0	0	0	0	0	0	0	0	0	0	0	0
071519	11:30:02	11:41:00	657010	5.0.10.0	5_exp_RW	47	Rpleas_acq	CS_A	JQQJ	ZHHZ	DXXD	CPPC	YFFY	LWWL	küssen	genießen	sonnig	träumen	vertrauen	gütig	krank	gemein	sterben	töten	versagen	gierig	1	acq_USunple_CSunple2_RW	acq4567_RW	5	75	400	0	300	300	497	46	0	1	1	blank2r.bmp	0	1	+	0	1	blank2r.bmp	492	1	CPPC	492	1	blank2r.bmp	572	1	töten	866	1	!	1239	1	!	-1	0	0	0	0	0	0	0	0	0	0	0	0	0	0	0	0	0	0	0	0	0	0	0	0	0	0	0	0	0	0
071519	11:30:02	11:41:02	659183	5.0.10.0	5_exp_RW	47	Rpleas_acq	CS_A	JQQJ	ZHHZ	DXXD	CPPC	YFFY	LWWL	küssen	genießen	sonnig	träumen	vertrauen	gütig	krank	gemein	sterben	töten	versagen	gierig	1	acq_USpleas_CSpleas1_RW	acq4567_RW	5	76	400	1	300	300	346	50	0	1	1	blank2r.bmp	0	1	+	0	1	blank2r.bmp	492	1	JQQJ	492	1	blank2r.bmp	572	1	küssen	866	1	!	1239	1	!	1252	0	0	0	0	0	0	0	0	0	0	0	0	0	0	0	0	0	0	0	0	0	0	0	0	0	0	0	0	0	0
071519	11:30:02	11:41:04	661262	5.0.10.0	5_exp_RW	47	Rpleas_acq	CS_A	JQQJ	ZHHZ	DXXD	CPPC	YFFY	LWWL	küssen	genießen	sonnig	träumen	vertrauen	gütig	krank	gemein	sterben	töten	versagen	gierig	1	acq_USpleas_CSpleas1_RW	acq4567_RW	5	77	400	0	300	300	316	50	0	1	1	blank2r.bmp	0	1	+	0	1	blank2r.bmp	492	1	JQQJ	492	1	blank2r.bmp	572	3	sonnig	866	1	!	-1	1	!	-1	0	0	0	0	0	0	0	0	0	0	0	0	0	0	0	0	0	0	0	0	0	0	0	0	0	0	0	0	0	0
071519	11:30:02	11:41:06	663421	5.0.10.0	5_exp_RW	47	Rpleas_acq	CS_A	JQQJ	ZHHZ	DXXD	CPPC	YFFY	LWWL	küssen	genießen	sonnig	träumen	vertrauen	gütig	krank	gemein	sterben	töten	versagen	gierig	1	acq_USpleas_CSpleas2_RW	acq4567_RW	5	78	400	1	300	300	355	46	0	0	1	blank2r.bmp	0	1	+	0	1	blank2r.bmp	492	1	ZHHZ	492	1	blank2r.bmp	572	1	träumen	866	1	!	1239	1	!	1252	0	0	0	0	0	0	0	0	0	0	0	0	0	0	0	0	0	0	0	0	0	0	0	0	0	0	0	0	0	0
071519	11:30:02	11:41:09	665687	5.0.10.0	5_exp_RW	47	Rpleas_acq	CS_A	JQQJ	ZHHZ	DXXD	CPPC	YFFY	LWWL	küssen	genießen	sonnig	träumen	vertrauen	gütig	krank	gemein	sterben	töten	versagen	gierig	1	acq_USunple_CSunple2_RW	acq4567_RW	5	79	400	1	300	300	457	46	0	1	1	blank2r.bmp	0	1	+	0	1	blank2r.bmp	492	1	CPPC	492	1	blank2r.bmp	572	1	töten	866	1	!	1239	1	!	1359	0	0	0	0	0	0	0	0	0	0	0	0	0	0	0	0	0	0	0	0	0	0	0	0	0	0	0	0	0	0
071519	11:30:02	11:41:11	668152	5.0.10.0	5_exp_RW	47	Rpleas_acq	CS_A	JQQJ	ZHHZ	DXXD	CPPC	YFFY	LWWL	küssen	genießen	sonnig	träumen	vertrauen	gütig	krank	gemein	sterben	töten	versagen	gierig	1	acq_USunple_CSunple2_RW	acq4567_RW	5	80	400	0	300	300	701	46	0	1	1	blank2r.bmp	0	1	+	0	1	blank2r.bmp	492	1	CPPC	492	1	blank2r.bmp	572	3	gierig	866	1	!	1239	1	!	-1	0	0	0	0	0	0	0	0	0	0	0	0	0	0	0	0	0	0	0	0	0	0	0	0	0	0	0	0	0	0
071519	11:30:02	11:41:30	686918	5.0.10.0	5_exp_RW	47	Rpleas_acq	CS_A	JQQJ	ZHHZ	DXXD	CPPC	YFFY	LWWL	küssen	genießen	sonnig	träumen	vertrauen	gütig	krank	gemein	sterben	töten	versagen	gierig	1	acq_USpleas_CSpleas1_RW	acq4567_RW	6	1	400	0	300	300	533	50	0	1	1	blank2r.bmp	0	1	+	0	1	blank2r.bmp	492	1	JQQJ	492	1	blank2r.bmp	572	2	genießen	866	1	!	1239	1	!	-1	0	0	0	0	0	0	0	0	0	0	0	0	0	0	0	0	0	0	0	0	0	0	0	0	0	0	0	0	0	0
071519	11:30:02	11:41:32	689184	5.0.10.0	5_exp_RW	47	Rpleas_acq	CS_A	JQQJ	ZHHZ	DXXD	CPPC	YFFY	LWWL	küssen	genießen	sonnig	träumen	vertrauen	gütig	krank	gemein	sterben	töten	versagen	gierig	1	acq_USpleas_CSpleas2_RW	acq4567_RW	6	2	400	0	300	300	479	50	0	1	1	blank2r.bmp	0	1	+	0	1	blank2r.bmp	492	1	ZHHZ	492	1	blank2r.bmp	572	3	gütig	866	1	!	1239	1	!	-1	0	0	0	0	0	0	0	0	0	0	0	0	0	0	0	0	0	0	0	0	0	0	0	0	0	0	0	0	0	0
071519	11:30:02	11:41:35	691489	5.0.10.0	5_exp_RW	47	Rpleas_acq	CS_A	JQQJ	ZHHZ	DXXD	CPPC	YFFY	LWWL	küssen	genießen	sonnig	träumen	vertrauen	gütig	krank	gemein	sterben	töten	versagen	gierig	1	acq_USunple_CSunple2_RW	acq4567_RW	6	3	400	0	300	300	526	46	0	1	1	blank2r.bmp	0	1	+	0	1	blank2r.bmp	492	1	CPPC	492	1	blank2r.bmp	572	2	versagen	866	1	!	1239	1	!	-1	0	0	0	0	0	0	0	0	0	0	0	0	0	0	0	0	0	0	0	0	0	0	0	0	0	0	0	0	0	0
071519	11:30:02	11:41:37	693648	5.0.10.0	5_exp_RW	47	Rpleas_acq	CS_A	JQQJ	ZHHZ	DXXD	CPPC	YFFY	LWWL	küssen	genießen	sonnig	träumen	vertrauen	gütig	krank	gemein	sterben	töten	versagen	gierig	1	acq_USpleas_CSpleas2_RW	acq4567_RW	6	4	400	1	300	300	357	50	0	1	1	blank2r.bmp	0	1	+	0	1	blank2r.bmp	492	1	ZHHZ	492	1	blank2r.bmp	572	3	gütig	866	1	!	1239	1	!	1252	0	0	0	0	0	0	0	0	0	0	0	0	0	0	0	0	0	0	0	0	0	0	0	0	0	0	0	0	0	0
071519	11:30:02	11:41:39	695834	5.0.10.0	5_exp_RW	47	Rpleas_acq	CS_A	JQQJ	ZHHZ	DXXD	CPPC	YFFY	LWWL	küssen	genießen	sonnig	träumen	vertrauen	gütig	krank	gemein	sterben	töten	versagen	gierig	1	acq_USpleas_CSpleas1_RW	acq4567_RW	6	5	400	1	300	300	392	50	0	1	1	blank2r.bmp	0	1	+	0	1	blank2r.bmp	492	1	JQQJ	492	1	blank2r.bmp	572	1	küssen	866	1	!	1239	1	!	1292	0	0	0	0	0	0	0	0	0	0	0	0	0	0	0	0	0	0	0	0	0	0	0	0	0	0	0	0	0	0
071519	11:30:02	11:41:41	698020	5.0.10.0	5_exp_RW	47	Rpleas_acq	CS_A	JQQJ	ZHHZ	DXXD	CPPC	YFFY	LWWL	küssen	genießen	sonnig	träumen	vertrauen	gütig	krank	gemein	sterben	töten	versagen	gierig	1	acq_USpleas_CSpleas1_RW	acq4567_RW	6	6	400	1	300	300	386	50	0	1	1	blank2r.bmp	0	1	+	0	1	blank2r.bmp	492	1	JQQJ	492	1	blank2r.bmp	572	2	genießen	866	1	!	1239	1	!	1292	0	0	0	0	0	0	0	0	0	0	0	0	0	0	0	0	0	0	0	0	0	0	0	0	0	0	0	0	0	0
071519	11:30:02	11:41:43	700139	5.0.10.0	5_exp_RW	47	Rpleas_acq	CS_A	JQQJ	ZHHZ	DXXD	CPPC	YFFY	LWWL	küssen	genießen	sonnig	träumen	vertrauen	gütig	krank	gemein	sterben	töten	versagen	gierig	1	acq_USunple_CSunple2_RW	acq4567_RW	6	7	400	0	300	300	333	46	0	1	1	blank2r.bmp	0	1	+	0	1	blank2r.bmp	492	1	CPPC	492	1	blank2r.bmp	572	1	töten	866	1	!	-1	1	!	-1	0	0	0	0	0	0	0	0	0	0	0	0	0	0	0	0	0	0	0	0	0	0	0	0	0	0	0	0	0	0
071519	11:30:02	11:41:45	702298	5.0.10.0	5_exp_RW	47	Rpleas_acq	CS_A	JQQJ	ZHHZ	DXXD	CPPC	YFFY	LWWL	küssen	genießen	sonnig	träumen	vertrauen	gütig	krank	gemein	sterben	töten	versagen	gierig	1	acq_USunple_CSunple2_RW	acq4567_RW	6	8	400	1	300	300	346	50	0	0	1	blank2r.bmp	0	1	+	0	1	blank2r.bmp	492	1	CPPC	492	1	blank2r.bmp	572	2	versagen	866	1	!	1239	1	!	1252	0	0	0	0	0	0	0	0	0	0	0	0	0	0	0	0	0	0	0	0	0	0	0	0	0	0	0	0	0	0
071519	11:30:02	11:41:48	705404	5.0.10.0	5_exp_RW	47	Rpleas_acq	CS_A	JQQJ	ZHHZ	DXXD	CPPC	YFFY	LWWL	küssen	genießen	sonnig	träumen	vertrauen	gütig	krank	gemein	sterben	töten	versagen	gierig	1	acq_USpleas_CSpleas2_RW	acq4567_RW	6	9	400	0	300	300	1335	50	0	1	1	blank2r.bmp	0	1	+	0	1	blank2r.bmp	492	1	ZHHZ	492	1	blank2r.bmp	572	2	vertrauen	866	1	!	1239	1	!	-1	0	0	0	0	0	0	0	0	0	0	0	0	0	0	0	0	0	0	0	0	0	0	0	0	0	0	0	0	0	0
071519	11:30:02	11:41:51	707616	5.0.10.0	5_exp_RW	47	Rpleas_acq	CS_A	JQQJ	ZHHZ	DXXD	CPPC	YFFY	LWWL	küssen	genießen	sonnig	träumen	vertrauen	gütig	krank	gemein	sterben	töten	versagen	gierig	1	acq_USpleas_CSpleas2_RW	acq4567_RW	6	10	400	1	300	300	406	50	0	1	1	blank2r.bmp	0	1	+	0	1	blank2r.bmp	492	1	ZHHZ	492	1	blank2r.bmp	572	1	träumen	866	1	!	1239	1	!	1306	0	0	0	0	0	0	0	0	0	0	0	0	0	0	0	0	0	0	0	0	0	0	0	0	0	0	0	0	0	0
071519	11:30:02	11:41:53	709842	5.0.10.0	5_exp_RW	47	Rpleas_acq	CS_A	JQQJ	ZHHZ	DXXD	CPPC	YFFY	LWWL	küssen	genießen	sonnig	träumen	vertrauen	gütig	krank	gemein	sterben	töten	versagen	gierig	1	acq_USunple_CSunple2_RW	acq4567_RW	6	11	400	1	300	300	431	50	0	0	1	blank2r.bmp	0	1	+	0	1	blank2r.bmp	492	1	CPPC	492	1	blank2r.bmp	572	3	gierig	866	1	!	1239	1	!	1332	0	0	0	0	0	0	0	0	0	0	0	0	0	0	0	0	0	0	0	0	0	0	0	0	0	0	0	0	0	0
071519	11:30:02	11:41:55	712147	5.0.10.0	5_exp_RW	47	Rpleas_acq	CS_A	JQQJ	ZHHZ	DXXD	CPPC	YFFY	LWWL	küssen	genießen	sonnig	träumen	vertrauen	gütig	krank	gemein	sterben	töten	versagen	gierig	1	acq_USunple_CSunple1_RW	acq4567_RW	6	12	400	0	300	300	539	50	0	0	1	blank2r.bmp	0	1	+	0	1	blank2r.bmp	492	1	DXXD	492	1	blank2r.bmp	572	1	krank	866	1	!	1239	1	!	-1	0	0	0	0	0	0	0	0	0	0	0	0	0	0	0	0	0	0	0	0	0	0	0	0	0	0	0	0	0	0
071519	11:30:02	11:41:57	714373	5.0.10.0	5_exp_RW	47	Rpleas_acq	CS_A	JQQJ	ZHHZ	DXXD	CPPC	YFFY	LWWL	küssen	genießen	sonnig	träumen	vertrauen	gütig	krank	gemein	sterben	töten	versagen	gierig	1	acq_USunple_CSunple1_RW	acq4567_RW	6	13	400	1	300	300	420	46	0	1	1	blank2r.bmp	0	1	+	0	1	blank2r.bmp	492	1	DXXD	492	1	blank2r.bmp	572	1	krank	866	1	!	1239	1	!	1319	0	0	0	0	0	0	0	0	0	0	0	0	0	0	0	0	0	0	0	0	0	0	0	0	0	0	0	0	0	0
