date	time	script.currenttime	script.elapsedtime	build	script.currentexpt	subject	expressions.LRpleas_acq	expressions.conditionCS_A	expressions.CSpleas_1	expressions.CSpleas_2	expressions.CSunple_1	expressions.CSunple_2	expressions.distractor_1	expressions.distractor_2	expressions.US_pleas1	expressions.US_pleas2	expressions.US_pleas3	expressions.US_pleas4	expressions.US_pleas5	expressions.US_pleas6	expressions.US_unple1	expressions.US_unple2	expressions.US_unple3	expressions.US_unple4	expressions.US_unple5	expressions.US_unple6	counter.positions_noRW	trialcode	blockcode	blocknum	trialnum	windowcenter	inwindow	pretrialpause	posttrialpause	latency	response	expressions.correctedscore	correct	stimulusnumber1	stimulusitem1	stimulusonset1	stimulusnumber2	stimulusitem2	stimulusonset2	stimulusnumber3	stimulusitem3	stimulusonset3	stimulusnumber4	stimulusitem4	stimulusonset4	stimulusnumber5	stimulusitem5	stimulusonset5	stimulusnumber6	stimulusitem6	stimulusonset6	stimulusnumber7	stimulusitem7	stimulusonset7	stimulusnumber8	stimulusitem8	stimulusonset8	stimulusnumber9	stimulusitem9	stimulusonset9	stimulusnumber10	stimulusitem10	stimulusonset10	stimulusnumber11	stimulusitem11	stimulusonset11	stimulusnumber12	stimulusitem12	stimulusonset12	stimulusnumber13	stimulusitem13	stimulusonset13	stimulusnumber14	stimulusitem14	stimulusonset14	stimulusnumber15	stimulusitem15	stimulusonset15	stimulusnumber16	stimulusitem16	stimulusonset16	stimulusnumber17	stimulusitem17	stimulusonset17	stimulusnumber18	stimulusitem18	stimulusonset18
071719	10:00:41	10:01:26	43968	5.0.10.0	5_exp_noRW	60	Rpleas_acq	CS_B	VKKV	JXXJ	MQQM	BZZB	YDDY	GWWG	schön	ehrlich	retten	spielen	treu	fair	schlecht	eitel	rächen	strafen	tot	faul	47pct	acq_USpleas_CSunple2_noRW	acq1_noRW	1	1	0	0	300	300	1862	50	0	1	1	blank2r.bmp	0	1	+	0	1	blank2r.bmp	252	1	BZZB	306	2	treu	559	0	0	0	0	0	0	0	0	0	0	0	0	0	0	0	0	0	0	0	0	0	0	0	0	0	0	0	0	0	0	0	0	0	0	0	0	0	0	0
071719	10:00:41	10:01:27	45794	5.0.10.0	5_exp_noRW	60	Rpleas_acq	CS_B	VKKV	JXXJ	MQQM	BZZB	YDDY	GWWG	schön	ehrlich	retten	spielen	treu	fair	schlecht	eitel	rächen	strafen	tot	faul	53pct	acq_USpleas_CSpleas1_noRW	acq1_noRW	1	2	0	0	300	300	641	50	0	1	1	blank2r.bmp	0	1	+	0	1	blank2r.bmp	252	1	VKKV	306	3	retten	559	0	0	0	0	0	0	0	0	0	0	0	0	0	0	0	0	0	0	0	0	0	0	0	0	0	0	0	0	0	0	0	0	0	0	0	0	0	0	0
071719	10:00:41	10:01:29	47660	5.0.10.0	5_exp_noRW	60	Rpleas_acq	CS_B	VKKV	JXXJ	MQQM	BZZB	YDDY	GWWG	schön	ehrlich	retten	spielen	treu	fair	schlecht	eitel	rächen	strafen	tot	faul	47pct	acq_USpleas_CSpleas1_noRW	acq1_noRW	1	3	0	0	300	300	695	50	0	1	1	blank2r.bmp	0	1	+	0	1	blank2r.bmp	252	1	VKKV	306	2	ehrlich	559	0	0	0	0	0	0	0	0	0	0	0	0	0	0	0	0	0	0	0	0	0	0	0	0	0	0	0	0	0	0	0	0	0	0	0	0	0	0	0
071719	10:00:41	10:01:31	49272	5.0.10.0	5_exp_noRW	60	Rpleas_acq	CS_B	VKKV	JXXJ	MQQM	BZZB	YDDY	GWWG	schön	ehrlich	retten	spielen	treu	fair	schlecht	eitel	rächen	strafen	tot	faul	47pct	acq_USunple_CSunple2_noRW	acq1_noRW	1	4	0	0	300	300	426	46	0	1	1	blank2r.bmp	0	1	+	0	1	blank2r.bmp	252	1	BZZB	306	3	faul	559	0	0	0	0	0	0	0	0	0	0	0	0	0	0	0	0	0	0	0	0	0	0	0	0	0	0	0	0	0	0	0	0	0	0	0	0	0	0	0
071719	10:00:41	10:01:32	50818	5.0.10.0	5_exp_noRW	60	Rpleas_acq	CS_B	VKKV	JXXJ	MQQM	BZZB	YDDY	GWWG	schön	ehrlich	retten	spielen	treu	fair	schlecht	eitel	rächen	strafen	tot	faul	53pct	acq_USpleas_CSpleas1_noRW	acq1_noRW	1	5	0	0	300	300	374	50	0	1	1	blank2r.bmp	0	1	+	0	1	blank2r.bmp	252	1	VKKV	306	1	schön	559	0	0	0	0	0	0	0	0	0	0	0	0	0	0	0	0	0	0	0	0	0	0	0	0	0	0	0	0	0	0	0	0	0	0	0	0	0	0	0
071719	10:00:41	10:01:34	52458	5.0.10.0	5_exp_noRW	60	Rpleas_acq	CS_B	VKKV	JXXJ	MQQM	BZZB	YDDY	GWWG	schön	ehrlich	retten	spielen	treu	fair	schlecht	eitel	rächen	strafen	tot	faul	47pct	acq_USunple_CSunple2_noRW	acq1_noRW	1	6	0	0	300	300	476	46	0	1	1	blank2r.bmp	0	1	+	0	1	blank2r.bmp	252	1	BZZB	306	1	strafen	559	0	0	0	0	0	0	0	0	0	0	0	0	0	0	0	0	0	0	0	0	0	0	0	0	0	0	0	0	0	0	0	0	0	0	0	0	0	0	0
071719	10:00:41	10:01:36	54097	5.0.10.0	5_exp_noRW	60	Rpleas_acq	CS_B	VKKV	JXXJ	MQQM	BZZB	YDDY	GWWG	schön	ehrlich	retten	spielen	treu	fair	schlecht	eitel	rächen	strafen	tot	faul	47pct	acq_USpleas_CSpleas2_noRW	acq1_noRW	1	7	0	0	300	300	463	50	0	1	1	blank2r.bmp	0	1	+	0	1	blank2r.bmp	252	1	JXXJ	306	1	spielen	559	0	0	0	0	0	0	0	0	0	0	0	0	0	0	0	0	0	0	0	0	0	0	0	0	0	0	0	0	0	0	0	0	0	0	0	0	0	0	0
071719	10:00:41	10:01:37	55816	5.0.10.0	5_exp_noRW	60	Rpleas_acq	CS_B	VKKV	JXXJ	MQQM	BZZB	YDDY	GWWG	schön	ehrlich	retten	spielen	treu	fair	schlecht	eitel	rächen	strafen	tot	faul	53pct	acq_USunple_CSunple2_noRW	acq1_noRW	1	8	0	0	300	300	534	46	0	1	1	blank2r.bmp	0	1	+	0	1	blank2r.bmp	252	1	BZZB	306	2	tot	559	0	0	0	0	0	0	0	0	0	0	0	0	0	0	0	0	0	0	0	0	0	0	0	0	0	0	0	0	0	0	0	0	0	0	0	0	0	0	0
071719	10:00:41	10:01:39	57482	5.0.10.0	5_exp_noRW	60	Rpleas_acq	CS_B	VKKV	JXXJ	MQQM	BZZB	YDDY	GWWG	schön	ehrlich	retten	spielen	treu	fair	schlecht	eitel	rächen	strafen	tot	faul	53pct	acq_USunple_CSunple1_noRW	acq1_noRW	1	9	0	0	300	300	491	46	0	1	1	blank2r.bmp	0	1	+	0	1	blank2r.bmp	252	1	MQQM	306	1	schlecht	559	0	0	0	0	0	0	0	0	0	0	0	0	0	0	0	0	0	0	0	0	0	0	0	0	0	0	0	0	0	0	0	0	0	0	0	0	0	0	0
071719	10:00:41	10:01:41	59388	5.0.10.0	5_exp_noRW	60	Rpleas_acq	CS_B	VKKV	JXXJ	MQQM	BZZB	YDDY	GWWG	schön	ehrlich	retten	spielen	treu	fair	schlecht	eitel	rächen	strafen	tot	faul	47pct	acq_USunple_CSunple1_noRW	acq1_noRW	1	10	0	0	300	300	724	46	0	1	1	blank2r.bmp	0	1	+	0	1	blank2r.bmp	252	1	MQQM	306	2	eitel	559	0	0	0	0	0	0	0	0	0	0	0	0	0	0	0	0	0	0	0	0	0	0	0	0	0	0	0	0	0	0	0	0	0	0	0	0	0	0	0
071719	10:00:41	10:01:43	61121	5.0.10.0	5_exp_noRW	60	Rpleas_acq	CS_B	VKKV	JXXJ	MQQM	BZZB	YDDY	GWWG	schön	ehrlich	retten	spielen	treu	fair	schlecht	eitel	rächen	strafen	tot	faul	53pct	acq_USunple_CSunple1_noRW	acq1_noRW	1	11	0	0	300	300	550	46	0	1	1	blank2r.bmp	0	1	+	0	1	blank2r.bmp	252	1	MQQM	306	3	rächen	559	0	0	0	0	0	0	0	0	0	0	0	0	0	0	0	0	0	0	0	0	0	0	0	0	0	0	0	0	0	0	0	0	0	0	0	0	0	0	0
071719	10:00:41	10:01:44	62827	5.0.10.0	5_exp_noRW	60	Rpleas_acq	CS_B	VKKV	JXXJ	MQQM	BZZB	YDDY	GWWG	schön	ehrlich	retten	spielen	treu	fair	schlecht	eitel	rächen	strafen	tot	faul	47pct	acq_USpleas_CSpleas1_noRW	acq1_noRW	1	12	0	0	300	300	524	50	0	1	1	blank2r.bmp	0	1	+	0	1	blank2r.bmp	252	1	VKKV	306	1	schön	559	0	0	0	0	0	0	0	0	0	0	0	0	0	0	0	0	0	0	0	0	0	0	0	0	0	0	0	0	0	0	0	0	0	0	0	0	0	0	0
071719	10:00:41	10:01:46	64546	5.0.10.0	5_exp_noRW	60	Rpleas_acq	CS_B	VKKV	JXXJ	MQQM	BZZB	YDDY	GWWG	schön	ehrlich	retten	spielen	treu	fair	schlecht	eitel	rächen	strafen	tot	faul	47pct	acq_USpleas_CSunple1_noRW	acq1_noRW	1	13	0	0	300	300	339	46	0	0	1	blank2r.bmp	0	1	+	0	1	blank2r.bmp	252	1	MQQM	306	2	ehrlich	559	1	FEHLER	932	0	0	0	0	0	0	0	0	0	0	0	0	0	0	0	0	0	0	0	0	0	0	0	0	0	0	0	0	0	0	0	0	0	0	0	0
071719	10:00:41	10:01:48	66332	5.0.10.0	5_exp_noRW	60	Rpleas_acq	CS_B	VKKV	JXXJ	MQQM	BZZB	YDDY	GWWG	schön	ehrlich	retten	spielen	treu	fair	schlecht	eitel	rächen	strafen	tot	faul	47pct	acq_USunple_CSunple2_noRW	acq1_noRW	1	14	0	0	300	300	818	46	0	1	1	blank2r.bmp	0	1	+	0	1	blank2r.bmp	252	1	BZZB	306	2	tot	559	0	0	0	0	0	0	0	0	0	0	0	0	0	0	0	0	0	0	0	0	0	0	0	0	0	0	0	0	0	0	0	0	0	0	0	0	0	0	0
071719	10:00:41	10:01:50	68158	5.0.10.0	5_exp_noRW	60	Rpleas_acq	CS_B	VKKV	JXXJ	MQQM	BZZB	YDDY	GWWG	schön	ehrlich	retten	spielen	treu	fair	schlecht	eitel	rächen	strafen	tot	faul	53pct	acq_USpleas_CSpleas2_noRW	acq1_noRW	1	15	0	0	300	300	645	50	0	1	1	blank2r.bmp	0	1	+	0	1	blank2r.bmp	252	1	JXXJ	306	3	fair	559	0	0	0	0	0	0	0	0	0	0	0	0	0	0	0	0	0	0	0	0	0	0	0	0	0	0	0	0	0	0	0	0	0	0	0	0	0	0	0
071719	10:00:41	10:01:52	69931	5.0.10.0	5_exp_noRW	60	Rpleas_acq	CS_B	VKKV	JXXJ	MQQM	BZZB	YDDY	GWWG	schön	ehrlich	retten	spielen	treu	fair	schlecht	eitel	rächen	strafen	tot	faul	47pct	acq_USpleas_CSpleas2_noRW	acq1_noRW	1	16	0	0	300	300	588	50	0	1	1	blank2r.bmp	0	1	+	0	1	blank2r.bmp	252	1	JXXJ	306	2	treu	559	0	0	0	0	0	0	0	0	0	0	0	0	0	0	0	0	0	0	0	0	0	0	0	0	0	0	0	0	0	0	0	0	0	0	0	0	0	0	0
071719	10:00:41	10:01:53	71650	5.0.10.0	5_exp_noRW	60	Rpleas_acq	CS_B	VKKV	JXXJ	MQQM	BZZB	YDDY	GWWG	schön	ehrlich	retten	spielen	treu	fair	schlecht	eitel	rächen	strafen	tot	faul	47pct	acq_USunple_CSpleas2_noRW	acq1_noRW	1	17	0	0	300	300	548	46	0	1	1	blank2r.bmp	0	1	+	0	1	blank2r.bmp	252	1	JXXJ	306	2	tot	559	0	0	0	0	0	0	0	0	0	0	0	0	0	0	0	0	0	0	0	0	0	0	0	0	0	0	0	0	0	0	0	0	0	0	0	0	0	0	0
071719	10:00:41	10:01:55	73342	5.0.10.0	5_exp_noRW	60	Rpleas_acq	CS_B	VKKV	JXXJ	MQQM	BZZB	YDDY	GWWG	schön	ehrlich	retten	spielen	treu	fair	schlecht	eitel	rächen	strafen	tot	faul	47pct	acq_USunple_CSpleas1_noRW	acq1_noRW	1	18	0	0	300	300	516	46	0	1	1	blank2r.bmp	0	1	+	0	1	blank2r.bmp	252	1	VKKV	306	3	rächen	559	0	0	0	0	0	0	0	0	0	0	0	0	0	0	0	0	0	0	0	0	0	0	0	0	0	0	0	0	0	0	0	0	0	0	0	0	0	0	0
071719	10:00:41	10:01:57	75035	5.0.10.0	5_exp_noRW	60	Rpleas_acq	CS_B	VKKV	JXXJ	MQQM	BZZB	YDDY	GWWG	schön	ehrlich	retten	spielen	treu	fair	schlecht	eitel	rächen	strafen	tot	faul	53pct	acq_USpleas_CSpleas2_noRW	acq1_noRW	1	19	0	0	300	300	507	50	0	1	1	blank2r.bmp	0	1	+	0	1	blank2r.bmp	252	1	JXXJ	306	2	treu	559	0	0	0	0	0	0	0	0	0	0	0	0	0	0	0	0	0	0	0	0	0	0	0	0	0	0	0	0	0	0	0	0	0	0	0	0	0	0	0
071719	10:00:41	10:01:59	77061	5.0.10.0	5_exp_noRW	60	Rpleas_acq	CS_B	VKKV	JXXJ	MQQM	BZZB	YDDY	GWWG	schön	ehrlich	retten	spielen	treu	fair	schlecht	eitel	rächen	strafen	tot	faul	53pct	acq_USunple_CSunple1_noRW	acq1_noRW	1	20	0	0	300	300	840	46	0	1	1	blank2r.bmp	0	1	+	0	1	blank2r.bmp	252	1	MQQM	306	2	eitel	559	0	0	0	0	0	0	0	0	0	0	0	0	0	0	0	0	0	0	0	0	0	0	0	0	0	0	0	0	0	0	0	0	0	0	0	0	0	0	0
071719	10:00:41	10:02:00	78740	5.0.10.0	5_exp_noRW	60	Rpleas_acq	CS_B	VKKV	JXXJ	MQQM	BZZB	YDDY	GWWG	schön	ehrlich	retten	spielen	treu	fair	schlecht	eitel	rächen	strafen	tot	faul	53pct	acq_USpleas_CSunple1_noRW	acq1_noRW	1	21	0	0	300	300	511	50	0	1	1	blank2r.bmp	0	1	+	0	1	blank2r.bmp	252	1	MQQM	306	1	schön	559	0	0	0	0	0	0	0	0	0	0	0	0	0	0	0	0	0	0	0	0	0	0	0	0	0	0	0	0	0	0	0	0	0	0	0	0	0	0	0
071719	10:00:41	10:02:02	80579	5.0.10.0	5_exp_noRW	60	Rpleas_acq	CS_B	VKKV	JXXJ	MQQM	BZZB	YDDY	GWWG	schön	ehrlich	retten	spielen	treu	fair	schlecht	eitel	rächen	strafen	tot	faul	53pct	acq_USpleas_CSpleas2_noRW	acq1_noRW	1	22	0	0	300	300	676	50	0	1	1	blank2r.bmp	0	1	+	0	1	blank2r.bmp	252	1	JXXJ	306	1	spielen	559	0	0	0	0	0	0	0	0	0	0	0	0	0	0	0	0	0	0	0	0	0	0	0	0	0	0	0	0	0	0	0	0	0	0	0	0	0	0	0
071719	10:00:41	10:02:04	82245	5.0.10.0	5_exp_noRW	60	Rpleas_acq	CS_B	VKKV	JXXJ	MQQM	BZZB	YDDY	GWWG	schön	ehrlich	retten	spielen	treu	fair	schlecht	eitel	rächen	strafen	tot	faul	47pct	acq_USunple_CSunple1_noRW	acq1_noRW	1	23	0	0	300	300	481	46	0	1	1	blank2r.bmp	0	1	+	0	1	blank2r.bmp	252	1	MQQM	306	3	rächen	559	0	0	0	0	0	0	0	0	0	0	0	0	0	0	0	0	0	0	0	0	0	0	0	0	0	0	0	0	0	0	0	0	0	0	0	0	0	0	0
071719	10:00:41	10:02:06	84005	5.0.10.0	5_exp_noRW	60	Rpleas_acq	CS_B	VKKV	JXXJ	MQQM	BZZB	YDDY	GWWG	schön	ehrlich	retten	spielen	treu	fair	schlecht	eitel	rächen	strafen	tot	faul	53pct	acq_USpleas_CSpleas2_noRW	acq1_noRW	1	24	0	0	300	300	584	50	0	1	1	blank2r.bmp	0	1	+	0	1	blank2r.bmp	252	1	JXXJ	306	3	fair	559	0	0	0	0	0	0	0	0	0	0	0	0	0	0	0	0	0	0	0	0	0	0	0	0	0	0	0	0	0	0	0	0	0	0	0	0	0	0	0
071719	10:00:41	10:02:07	85817	5.0.10.0	5_exp_noRW	60	Rpleas_acq	CS_B	VKKV	JXXJ	MQQM	BZZB	YDDY	GWWG	schön	ehrlich	retten	spielen	treu	fair	schlecht	eitel	rächen	strafen	tot	faul	47pct	acq_USunple_CSunple1_noRW	acq1_noRW	1	25	0	0	300	300	633	46	0	1	1	blank2r.bmp	0	1	+	0	1	blank2r.bmp	252	1	MQQM	306	1	schlecht	559	0	0	0	0	0	0	0	0	0	0	0	0	0	0	0	0	0	0	0	0	0	0	0	0	0	0	0	0	0	0	0	0	0	0	0	0	0	0	0
071719	10:00:41	10:02:09	87750	5.0.10.0	5_exp_noRW	60	Rpleas_acq	CS_B	VKKV	JXXJ	MQQM	BZZB	YDDY	GWWG	schön	ehrlich	retten	spielen	treu	fair	schlecht	eitel	rächen	strafen	tot	faul	47pct	acq_USpleas_CSpleas1_noRW	acq1_noRW	1	26	0	0	300	300	747	50	0	1	1	blank2r.bmp	0	1	+	0	1	blank2r.bmp	252	1	VKKV	306	3	retten	559	0	0	0	0	0	0	0	0	0	0	0	0	0	0	0	0	0	0	0	0	0	0	0	0	0	0	0	0	0	0	0	0	0	0	0	0	0	0	0
071719	10:00:41	10:02:11	89416	5.0.10.0	5_exp_noRW	60	Rpleas_acq	CS_B	VKKV	JXXJ	MQQM	BZZB	YDDY	GWWG	schön	ehrlich	retten	spielen	treu	fair	schlecht	eitel	rächen	strafen	tot	faul	53pct	acq_USpleas_CSpleas1_noRW	acq1_noRW	1	27	0	0	300	300	481	50	0	1	1	blank2r.bmp	0	1	+	0	1	blank2r.bmp	252	1	VKKV	306	2	ehrlich	559	0	0	0	0	0	0	0	0	0	0	0	0	0	0	0	0	0	0	0	0	0	0	0	0	0	0	0	0	0	0	0	0	0	0	0	0	0	0	0
071719	10:00:41	10:02:13	91015	5.0.10.0	5_exp_noRW	60	Rpleas_acq	CS_B	VKKV	JXXJ	MQQM	BZZB	YDDY	GWWG	schön	ehrlich	retten	spielen	treu	fair	schlecht	eitel	rächen	strafen	tot	faul	47pct	acq_USpleas_CSunple2_noRW	acq1_noRW	1	28	0	0	300	300	431	50	0	1	1	blank2r.bmp	0	1	+	0	1	blank2r.bmp	252	1	BZZB	306	3	fair	559	0	0	0	0	0	0	0	0	0	0	0	0	0	0	0	0	0	0	0	0	0	0	0	0	0	0	0	0	0	0	0	0	0	0	0	0	0	0	0
071719	10:00:41	10:02:14	92628	5.0.10.0	5_exp_noRW	60	Rpleas_acq	CS_B	VKKV	JXXJ	MQQM	BZZB	YDDY	GWWG	schön	ehrlich	retten	spielen	treu	fair	schlecht	eitel	rächen	strafen	tot	faul	47pct	acq_USunple_CSunple2_noRW	acq1_noRW	1	29	0	0	300	300	450	46	0	1	1	blank2r.bmp	0	1	+	0	1	blank2r.bmp	252	1	BZZB	306	1	strafen	559	0	0	0	0	0	0	0	0	0	0	0	0	0	0	0	0	0	0	0	0	0	0	0	0	0	0	0	0	0	0	0	0	0	0	0	0	0	0	0
071719	10:00:41	10:02:16	94400	5.0.10.0	5_exp_noRW	60	Rpleas_acq	CS_B	VKKV	JXXJ	MQQM	BZZB	YDDY	GWWG	schön	ehrlich	retten	spielen	treu	fair	schlecht	eitel	rächen	strafen	tot	faul	53pct	acq_USunple_CSunple2_noRW	acq1_noRW	1	30	0	0	300	300	587	46	0	1	1	blank2r.bmp	0	1	+	0	1	blank2r.bmp	252	1	BZZB	306	3	faul	559	0	0	0	0	0	0	0	0	0	0	0	0	0	0	0	0	0	0	0	0	0	0	0	0	0	0	0	0	0	0	0	0	0	0	0	0	0	0	0
071719	10:00:41	10:02:18	96253	5.0.10.0	5_exp_noRW	60	Rpleas_acq	CS_B	VKKV	JXXJ	MQQM	BZZB	YDDY	GWWG	schön	ehrlich	retten	spielen	treu	fair	schlecht	eitel	rächen	strafen	tot	faul	53pct	acq_USpleas_CSpleas2_noRW	acq1_noRW	1	31	0	0	300	300	680	50	0	1	1	blank2r.bmp	0	1	+	0	1	blank2r.bmp	252	1	JXXJ	306	1	spielen	559	0	0	0	0	0	0	0	0	0	0	0	0	0	0	0	0	0	0	0	0	0	0	0	0	0	0	0	0	0	0	0	0	0	0	0	0	0	0	0
071719	10:00:41	10:02:20	97919	5.0.10.0	5_exp_noRW	60	Rpleas_acq	CS_B	VKKV	JXXJ	MQQM	BZZB	YDDY	GWWG	schön	ehrlich	retten	spielen	treu	fair	schlecht	eitel	rächen	strafen	tot	faul	47pct	acq_USunple_CSunple2_noRW	acq1_noRW	1	32	0	0	300	300	490	46	0	1	1	blank2r.bmp	0	1	+	0	1	blank2r.bmp	252	1	BZZB	306	1	strafen	559	0	0	0	0	0	0	0	0	0	0	0	0	0	0	0	0	0	0	0	0	0	0	0	0	0	0	0	0	0	0	0	0	0	0	0	0	0	0	0
071719	10:00:41	10:02:21	99572	5.0.10.0	5_exp_noRW	60	Rpleas_acq	CS_B	VKKV	JXXJ	MQQM	BZZB	YDDY	GWWG	schön	ehrlich	retten	spielen	treu	fair	schlecht	eitel	rächen	strafen	tot	faul	53pct	acq_USpleas_CSpleas1_noRW	acq1_noRW	1	33	0	0	300	300	469	50	0	1	1	blank2r.bmp	0	1	+	0	1	blank2r.bmp	252	1	VKKV	306	3	retten	559	0	0	0	0	0	0	0	0	0	0	0	0	0	0	0	0	0	0	0	0	0	0	0	0	0	0	0	0	0	0	0	0	0	0	0	0	0	0	0
071719	10:00:41	10:02:23	101491	5.0.10.0	5_exp_noRW	60	Rpleas_acq	CS_B	VKKV	JXXJ	MQQM	BZZB	YDDY	GWWG	schön	ehrlich	retten	spielen	treu	fair	schlecht	eitel	rächen	strafen	tot	faul	47pct	acq_USpleas_CSpleas1_noRW	acq1_noRW	1	34	0	0	300	300	534	46	0	0	1	blank2r.bmp	0	1	+	0	1	blank2r.bmp	252	1	VKKV	306	1	schön	559	1	FEHLER	1132	0	0	0	0	0	0	0	0	0	0	0	0	0	0	0	0	0	0	0	0	0	0	0	0	0	0	0	0	0	0	0	0	0	0	0	0
071719	10:00:41	10:02:25	103024	5.0.10.0	5_exp_noRW	60	Rpleas_acq	CS_B	VKKV	JXXJ	MQQM	BZZB	YDDY	GWWG	schön	ehrlich	retten	spielen	treu	fair	schlecht	eitel	rächen	strafen	tot	faul	47pct	acq_USunple_CSunple1_noRW	acq1_noRW	1	35	0	0	300	300	565	46	0	1	1	blank2r.bmp	0	1	+	0	1	blank2r.bmp	252	1	MQQM	306	3	rächen	559	0	0	0	0	0	0	0	0	0	0	0	0	0	0	0	0	0	0	0	0	0	0	0	0	0	0	0	0	0	0	0	0	0	0	0	0	0	0	0
071719	10:00:41	10:02:26	104676	5.0.10.0	5_exp_noRW	60	Rpleas_acq	CS_B	VKKV	JXXJ	MQQM	BZZB	YDDY	GWWG	schön	ehrlich	retten	spielen	treu	fair	schlecht	eitel	rächen	strafen	tot	faul	47pct	acq_USunple_CSunple2_noRW	acq1_noRW	1	36	0	0	300	300	472	46	0	1	1	blank2r.bmp	0	1	+	0	1	blank2r.bmp	252	1	BZZB	306	3	faul	559	0	0	0	0	0	0	0	0	0	0	0	0	0	0	0	0	0	0	0	0	0	0	0	0	0	0	0	0	0	0	0	0	0	0	0	0	0	0	0
071719	10:00:41	10:02:28	106409	5.0.10.0	5_exp_noRW	60	Rpleas_acq	CS_B	VKKV	JXXJ	MQQM	BZZB	YDDY	GWWG	schön	ehrlich	retten	spielen	treu	fair	schlecht	eitel	rächen	strafen	tot	faul	47pct	acq_USunple_CSpleas1_noRW	acq1_noRW	1	37	0	0	300	300	549	46	0	1	1	blank2r.bmp	0	1	+	0	1	blank2r.bmp	252	1	VKKV	306	2	eitel	559	0	0	0	0	0	0	0	0	0	0	0	0	0	0	0	0	0	0	0	0	0	0	0	0	0	0	0	0	0	0	0	0	0	0	0	0	0	0	0
071719	10:00:41	10:02:30	108062	5.0.10.0	5_exp_noRW	60	Rpleas_acq	CS_B	VKKV	JXXJ	MQQM	BZZB	YDDY	GWWG	schön	ehrlich	retten	spielen	treu	fair	schlecht	eitel	rächen	strafen	tot	faul	47pct	acq_USunple_CSpleas2_noRW	acq1_noRW	1	38	0	0	300	300	476	46	0	1	1	blank2r.bmp	0	1	+	0	1	blank2r.bmp	252	1	JXXJ	306	3	faul	559	0	0	0	0	0	0	0	0	0	0	0	0	0	0	0	0	0	0	0	0	0	0	0	0	0	0	0	0	0	0	0	0	0	0	0	0	0	0	0
071719	10:00:41	10:02:31	109701	5.0.10.0	5_exp_noRW	60	Rpleas_acq	CS_B	VKKV	JXXJ	MQQM	BZZB	YDDY	GWWG	schön	ehrlich	retten	spielen	treu	fair	schlecht	eitel	rächen	strafen	tot	faul	47pct	acq_USunple_CSunple1_noRW	acq1_noRW	1	39	0	0	300	300	461	46	0	1	1	blank2r.bmp	0	1	+	0	1	blank2r.bmp	252	1	MQQM	306	2	eitel	559	0	0	0	0	0	0	0	0	0	0	0	0	0	0	0	0	0	0	0	0	0	0	0	0	0	0	0	0	0	0	0	0	0	0	0	0	0	0	0
071719	10:00:41	10:02:33	111354	5.0.10.0	5_exp_noRW	60	Rpleas_acq	CS_B	VKKV	JXXJ	MQQM	BZZB	YDDY	GWWG	schön	ehrlich	retten	spielen	treu	fair	schlecht	eitel	rächen	strafen	tot	faul	53pct	acq_USpleas_CSpleas2_noRW	acq1_noRW	1	40	0	0	300	300	467	50	0	1	1	blank2r.bmp	0	1	+	0	1	blank2r.bmp	252	1	JXXJ	306	2	treu	559	0	0	0	0	0	0	0	0	0	0	0	0	0	0	0	0	0	0	0	0	0	0	0	0	0	0	0	0	0	0	0	0	0	0	0	0	0	0	0
071719	10:00:41	10:02:35	113273	5.0.10.0	5_exp_noRW	60	Rpleas_acq	CS_B	VKKV	JXXJ	MQQM	BZZB	YDDY	GWWG	schön	ehrlich	retten	spielen	treu	fair	schlecht	eitel	rächen	strafen	tot	faul	47pct	acq_USpleas_CSunple2_noRW	acq1_noRW	1	41	0	0	300	300	743	50	0	1	1	blank2r.bmp	0	1	+	0	1	blank2r.bmp	252	1	BZZB	306	1	spielen	559	0	0	0	0	0	0	0	0	0	0	0	0	0	0	0	0	0	0	0	0	0	0	0	0	0	0	0	0	0	0	0	0	0	0	0	0	0	0	0
071719	10:00:41	10:02:37	115045	5.0.10.0	5_exp_noRW	60	Rpleas_acq	CS_B	VKKV	JXXJ	MQQM	BZZB	YDDY	GWWG	schön	ehrlich	retten	spielen	treu	fair	schlecht	eitel	rächen	strafen	tot	faul	53pct	acq_USpleas_CSpleas1_noRW	acq1_noRW	1	42	0	0	300	300	595	50	0	1	1	blank2r.bmp	0	1	+	0	1	blank2r.bmp	252	1	VKKV	306	2	ehrlich	559	0	0	0	0	0	0	0	0	0	0	0	0	0	0	0	0	0	0	0	0	0	0	0	0	0	0	0	0	0	0	0	0	0	0	0	0	0	0	0
071719	10:00:41	10:02:38	116738	5.0.10.0	5_exp_noRW	60	Rpleas_acq	CS_B	VKKV	JXXJ	MQQM	BZZB	YDDY	GWWG	schön	ehrlich	retten	spielen	treu	fair	schlecht	eitel	rächen	strafen	tot	faul	47pct	acq_USunple_CSunple2_noRW	acq1_noRW	1	43	0	0	300	300	516	46	0	1	1	blank2r.bmp	0	1	+	0	1	blank2r.bmp	252	1	BZZB	306	2	tot	559	0	0	0	0	0	0	0	0	0	0	0	0	0	0	0	0	0	0	0	0	0	0	0	0	0	0	0	0	0	0	0	0	0	0	0	0	0	0	0
071719	10:00:41	10:02:40	118524	5.0.10.0	5_exp_noRW	60	Rpleas_acq	CS_B	VKKV	JXXJ	MQQM	BZZB	YDDY	GWWG	schön	ehrlich	retten	spielen	treu	fair	schlecht	eitel	rächen	strafen	tot	faul	53pct	acq_USunple_CSunple2_noRW	acq1_noRW	1	44	0	0	300	300	614	46	0	1	1	blank2r.bmp	0	1	+	0	1	blank2r.bmp	252	1	BZZB	306	3	faul	559	0	0	0	0	0	0	0	0	0	0	0	0	0	0	0	0	0	0	0	0	0	0	0	0	0	0	0	0	0	0	0	0	0	0	0	0	0	0	0
071719	10:00:41	10:02:42	120057	5.0.10.0	5_exp_noRW	60	Rpleas_acq	CS_B	VKKV	JXXJ	MQQM	BZZB	YDDY	GWWG	schön	ehrlich	retten	spielen	treu	fair	schlecht	eitel	rächen	strafen	tot	faul	47pct	acq_USpleas_CSpleas1_noRW	acq1_noRW	1	45	0	0	300	300	361	50	0	1	1	blank2r.bmp	0	1	+	0	1	blank2r.bmp	252	1	VKKV	306	2	ehrlich	559	0	0	0	0	0	0	0	0	0	0	0	0	0	0	0	0	0	0	0	0	0	0	0	0	0	0	0	0	0	0	0	0	0	0	0	0	0	0	0
071719	10:00:41	10:02:43	121723	5.0.10.0	5_exp_noRW	60	Rpleas_acq	CS_B	VKKV	JXXJ	MQQM	BZZB	YDDY	GWWG	schön	ehrlich	retten	spielen	treu	fair	schlecht	eitel	rächen	strafen	tot	faul	47pct	acq_USunple_CSunple1_noRW	acq1_noRW	1	46	0	0	300	300	491	46	0	1	1	blank2r.bmp	0	1	+	0	1	blank2r.bmp	252	1	MQQM	306	1	schlecht	559	0	0	0	0	0	0	0	0	0	0	0	0	0	0	0	0	0	0	0	0	0	0	0	0	0	0	0	0	0	0	0	0	0	0	0	0	0	0	0
071719	10:00:41	10:02:45	123415	5.0.10.0	5_exp_noRW	60	Rpleas_acq	CS_B	VKKV	JXXJ	MQQM	BZZB	YDDY	GWWG	schön	ehrlich	retten	spielen	treu	fair	schlecht	eitel	rächen	strafen	tot	faul	53pct	acq_USpleas_CSpleas2_noRW	acq1_noRW	1	47	0	0	300	300	508	50	0	1	1	blank2r.bmp	0	1	+	0	1	blank2r.bmp	252	1	JXXJ	306	3	fair	559	0	0	0	0	0	0	0	0	0	0	0	0	0	0	0	0	0	0	0	0	0	0	0	0	0	0	0	0	0	0	0	0	0	0	0	0	0	0	0
071719	10:00:41	10:02:47	125135	5.0.10.0	5_exp_noRW	60	Rpleas_acq	CS_B	VKKV	JXXJ	MQQM	BZZB	YDDY	GWWG	schön	ehrlich	retten	spielen	treu	fair	schlecht	eitel	rächen	strafen	tot	faul	47pct	acq_USpleas_CSpleas2_noRW	acq1_noRW	1	48	0	0	300	300	547	50	0	1	1	blank2r.bmp	0	1	+	0	1	blank2r.bmp	252	1	JXXJ	306	3	fair	559	0	0	0	0	0	0	0	0	0	0	0	0	0	0	0	0	0	0	0	0	0	0	0	0	0	0	0	0	0	0	0	0	0	0	0	0	0	0	0
071719	10:00:41	10:02:48	126721	5.0.10.0	5_exp_noRW	60	Rpleas_acq	CS_B	VKKV	JXXJ	MQQM	BZZB	YDDY	GWWG	schön	ehrlich	retten	spielen	treu	fair	schlecht	eitel	rächen	strafen	tot	faul	47pct	acq_USunple_CSunple2_noRW	acq1_noRW	1	49	0	0	300	300	418	46	0	1	1	blank2r.bmp	0	1	+	0	1	blank2r.bmp	252	1	BZZB	306	2	tot	559	0	0	0	0	0	0	0	0	0	0	0	0	0	0	0	0	0	0	0	0	0	0	0	0	0	0	0	0	0	0	0	0	0	0	0	0	0	0	0
071719	10:00:41	10:02:50	128786	5.0.10.0	5_exp_noRW	60	Rpleas_acq	CS_B	VKKV	JXXJ	MQQM	BZZB	YDDY	GWWG	schön	ehrlich	retten	spielen	treu	fair	schlecht	eitel	rächen	strafen	tot	faul	53pct	acq_USpleas_CSpleas1_noRW	acq1_noRW	1	50	0	0	300	300	673	46	0	0	1	blank2r.bmp	0	1	+	0	1	blank2r.bmp	252	1	VKKV	306	1	schön	559	1	FEHLER	1266	0	0	0	0	0	0	0	0	0	0	0	0	0	0	0	0	0	0	0	0	0	0	0	0	0	0	0	0	0	0	0	0	0	0	0	0
071719	10:00:41	10:02:52	130306	5.0.10.0	5_exp_noRW	60	Rpleas_acq	CS_B	VKKV	JXXJ	MQQM	BZZB	YDDY	GWWG	schön	ehrlich	retten	spielen	treu	fair	schlecht	eitel	rächen	strafen	tot	faul	47pct	acq_USunple_CSpleas2_noRW	acq1_noRW	1	51	0	0	300	300	552	46	0	1	1	blank2r.bmp	0	1	+	0	1	blank2r.bmp	252	1	JXXJ	306	1	strafen	559	0	0	0	0	0	0	0	0	0	0	0	0	0	0	0	0	0	0	0	0	0	0	0	0	0	0	0	0	0	0	0	0	0	0	0	0	0	0	0
071719	10:00:41	10:02:54	131878	5.0.10.0	5_exp_noRW	60	Rpleas_acq	CS_B	VKKV	JXXJ	MQQM	BZZB	YDDY	GWWG	schön	ehrlich	retten	spielen	treu	fair	schlecht	eitel	rächen	strafen	tot	faul	53pct	acq_USpleas_CSpleas2_noRW	acq1_noRW	1	52	0	0	300	300	389	50	0	1	1	blank2r.bmp	0	1	+	0	1	blank2r.bmp	252	1	JXXJ	306	1	spielen	559	0	0	0	0	0	0	0	0	0	0	0	0	0	0	0	0	0	0	0	0	0	0	0	0	0	0	0	0	0	0	0	0	0	0	0	0	0	0	0
071719	10:00:41	10:02:55	133811	5.0.10.0	5_exp_noRW	60	Rpleas_acq	CS_B	VKKV	JXXJ	MQQM	BZZB	YDDY	GWWG	schön	ehrlich	retten	spielen	treu	fair	schlecht	eitel	rächen	strafen	tot	faul	53pct	acq_USpleas_CSpleas2_noRW	acq1_noRW	1	53	0	0	300	300	754	50	0	1	1	blank2r.bmp	0	1	+	0	1	blank2r.bmp	252	1	JXXJ	306	2	treu	559	0	0	0	0	0	0	0	0	0	0	0	0	0	0	0	0	0	0	0	0	0	0	0	0	0	0	0	0	0	0	0	0	0	0	0	0	0	0	0
071719	10:00:41	10:02:57	135530	5.0.10.0	5_exp_noRW	60	Rpleas_acq	CS_B	VKKV	JXXJ	MQQM	BZZB	YDDY	GWWG	schön	ehrlich	retten	spielen	treu	fair	schlecht	eitel	rächen	strafen	tot	faul	53pct	acq_USunple_CSunple2_noRW	acq1_noRW	1	54	0	0	300	300	540	46	0	1	1	blank2r.bmp	0	1	+	0	1	blank2r.bmp	252	1	BZZB	306	1	strafen	559	0	0	0	0	0	0	0	0	0	0	0	0	0	0	0	0	0	0	0	0	0	0	0	0	0	0	0	0	0	0	0	0	0	0	0	0	0	0	0
071719	10:00:41	10:02:59	137476	5.0.10.0	5_exp_noRW	60	Rpleas_acq	CS_B	VKKV	JXXJ	MQQM	BZZB	YDDY	GWWG	schön	ehrlich	retten	spielen	treu	fair	schlecht	eitel	rächen	strafen	tot	faul	53pct	acq_USpleas_CSunple1_noRW	acq1_noRW	1	55	0	0	300	300	556	46	0	0	1	blank2r.bmp	0	1	+	0	1	blank2r.bmp	252	1	MQQM	306	3	retten	559	1	FEHLER	1146	0	0	0	0	0	0	0	0	0	0	0	0	0	0	0	0	0	0	0	0	0	0	0	0	0	0	0	0	0	0	0	0	0	0	0	0
071719	10:00:41	10:03:01	139036	5.0.10.0	5_exp_noRW	60	Rpleas_acq	CS_B	VKKV	JXXJ	MQQM	BZZB	YDDY	GWWG	schön	ehrlich	retten	spielen	treu	fair	schlecht	eitel	rächen	strafen	tot	faul	47pct	acq_USunple_CSunple1_noRW	acq1_noRW	1	56	0	0	300	300	585	46	0	1	1	blank2r.bmp	0	1	+	0	1	blank2r.bmp	252	1	MQQM	306	1	schlecht	559	0	0	0	0	0	0	0	0	0	0	0	0	0	0	0	0	0	0	0	0	0	0	0	0	0	0	0	0	0	0	0	0	0	0	0	0	0	0	0
071719	10:00:41	10:03:03	140888	5.0.10.0	5_exp_noRW	60	Rpleas_acq	CS_B	VKKV	JXXJ	MQQM	BZZB	YDDY	GWWG	schön	ehrlich	retten	spielen	treu	fair	schlecht	eitel	rächen	strafen	tot	faul	53pct	acq_USunple_CSpleas1_noRW	acq1_noRW	1	57	0	0	300	300	689	46	0	1	1	blank2r.bmp	0	1	+	0	1	blank2r.bmp	252	1	VKKV	306	1	schlecht	559	0	0	0	0	0	0	0	0	0	0	0	0	0	0	0	0	0	0	0	0	0	0	0	0	0	0	0	0	0	0	0	0	0	0	0	0	0	0	0
071719	10:00:41	10:03:04	142794	5.0.10.0	5_exp_noRW	60	Rpleas_acq	CS_B	VKKV	JXXJ	MQQM	BZZB	YDDY	GWWG	schön	ehrlich	retten	spielen	treu	fair	schlecht	eitel	rächen	strafen	tot	faul	47pct	acq_USunple_CSunple1_noRW	acq1_noRW	1	58	0	0	300	300	526	50	0	0	1	blank2r.bmp	0	1	+	0	1	blank2r.bmp	252	1	MQQM	306	2	eitel	559	1	FEHLER	1119	0	0	0	0	0	0	0	0	0	0	0	0	0	0	0	0	0	0	0	0	0	0	0	0	0	0	0	0	0	0	0	0	0	0	0	0
071719	10:00:41	10:03:06	144300	5.0.10.0	5_exp_noRW	60	Rpleas_acq	CS_B	VKKV	JXXJ	MQQM	BZZB	YDDY	GWWG	schön	ehrlich	retten	spielen	treu	fair	schlecht	eitel	rächen	strafen	tot	faul	53pct	acq_USpleas_CSpleas1_noRW	acq1_noRW	1	59	0	0	300	300	544	50	0	1	1	blank2r.bmp	0	1	+	0	1	blank2r.bmp	252	1	VKKV	306	3	retten	559	0	0	0	0	0	0	0	0	0	0	0	0	0	0	0	0	0	0	0	0	0	0	0	0	0	0	0	0	0	0	0	0	0	0	0	0	0	0	0
071719	10:00:41	10:03:08	146193	5.0.10.0	5_exp_noRW	60	Rpleas_acq	CS_B	VKKV	JXXJ	MQQM	BZZB	YDDY	GWWG	schön	ehrlich	retten	spielen	treu	fair	schlecht	eitel	rächen	strafen	tot	faul	47pct	acq_USunple_CSunple1_noRW	acq1_noRW	1	60	0	0	300	300	707	46	0	1	1	blank2r.bmp	0	1	+	0	1	blank2r.bmp	252	1	MQQM	306	3	rächen	559	0	0	0	0	0	0	0	0	0	0	0	0	0	0	0	0	0	0	0	0	0	0	0	0	0	0	0	0	0	0	0	0	0	0	0	0	0	0	0
071719	10:00:41	10:03:10	148032	5.0.10.0	5_exp_noRW	60	Rpleas_acq	CS_B	VKKV	JXXJ	MQQM	BZZB	YDDY	GWWG	schön	ehrlich	retten	spielen	treu	fair	schlecht	eitel	rächen	strafen	tot	faul	47pct	acq_USpleas_CSpleas2_noRW	acq1_noRW	1	61	0	0	300	300	666	50	0	1	1	blank2r.bmp	0	1	+	0	1	blank2r.bmp	252	1	JXXJ	306	1	spielen	559	0	0	0	0	0	0	0	0	0	0	0	0	0	0	0	0	0	0	0	0	0	0	0	0	0	0	0	0	0	0	0	0	0	0	0	0	0	0	0
071719	10:00:41	10:03:12	149898	5.0.10.0	5_exp_noRW	60	Rpleas_acq	CS_B	VKKV	JXXJ	MQQM	BZZB	YDDY	GWWG	schön	ehrlich	retten	spielen	treu	fair	schlecht	eitel	rächen	strafen	tot	faul	53pct	acq_USpleas_CSpleas1_noRW	acq1_noRW	1	62	0	0	300	300	693	50	0	1	1	blank2r.bmp	0	1	+	0	1	blank2r.bmp	252	1	VKKV	306	3	retten	559	0	0	0	0	0	0	0	0	0	0	0	0	0	0	0	0	0	0	0	0	0	0	0	0	0	0	0	0	0	0	0	0	0	0	0	0	0	0	0
071719	10:00:41	10:03:13	151657	5.0.10.0	5_exp_noRW	60	Rpleas_acq	CS_B	VKKV	JXXJ	MQQM	BZZB	YDDY	GWWG	schön	ehrlich	retten	spielen	treu	fair	schlecht	eitel	rächen	strafen	tot	faul	53pct	acq_USunple_CSunple1_noRW	acq1_noRW	1	63	0	0	300	300	591	46	0	1	1	blank2r.bmp	0	1	+	0	1	blank2r.bmp	252	1	MQQM	306	2	eitel	559	0	0	0	0	0	0	0	0	0	0	0	0	0	0	0	0	0	0	0	0	0	0	0	0	0	0	0	0	0	0	0	0	0	0	0	0	0	0	0
071719	10:00:41	10:03:15	153630	5.0.10.0	5_exp_noRW	60	Rpleas_acq	CS_B	VKKV	JXXJ	MQQM	BZZB	YDDY	GWWG	schön	ehrlich	retten	spielen	treu	fair	schlecht	eitel	rächen	strafen	tot	faul	47pct	acq_USunple_CSunple2_noRW	acq1_noRW	1	64	0	0	300	300	811	46	0	1	1	blank2r.bmp	0	1	+	0	1	blank2r.bmp	252	1	BZZB	306	1	strafen	559	0	0	0	0	0	0	0	0	0	0	0	0	0	0	0	0	0	0	0	0	0	0	0	0	0	0	0	0	0	0	0	0	0	0	0	0	0	0	0
071719	10:00:41	10:03:17	155362	5.0.10.0	5_exp_noRW	60	Rpleas_acq	CS_B	VKKV	JXXJ	MQQM	BZZB	YDDY	GWWG	schön	ehrlich	retten	spielen	treu	fair	schlecht	eitel	rächen	strafen	tot	faul	53pct	acq_USpleas_CSunple1_noRW	acq1_noRW	1	65	0	0	300	300	552	50	0	1	1	blank2r.bmp	0	1	+	0	1	blank2r.bmp	252	1	MQQM	306	3	retten	559	0	0	0	0	0	0	0	0	0	0	0	0	0	0	0	0	0	0	0	0	0	0	0	0	0	0	0	0	0	0	0	0	0	0	0	0	0	0	0
071719	10:00:41	10:03:19	157095	5.0.10.0	5_exp_noRW	60	Rpleas_acq	CS_B	VKKV	JXXJ	MQQM	BZZB	YDDY	GWWG	schön	ehrlich	retten	spielen	treu	fair	schlecht	eitel	rächen	strafen	tot	faul	47pct	acq_USunple_CSpleas1_noRW	acq1_noRW	1	66	0	0	300	300	546	46	0	1	1	blank2r.bmp	0	1	+	0	1	blank2r.bmp	252	1	VKKV	306	1	schlecht	559	0	0	0	0	0	0	0	0	0	0	0	0	0	0	0	0	0	0	0	0	0	0	0	0	0	0	0	0	0	0	0	0	0	0	0	0	0	0	0
071719	10:00:41	10:03:21	158867	5.0.10.0	5_exp_noRW	60	Rpleas_acq	CS_B	VKKV	JXXJ	MQQM	BZZB	YDDY	GWWG	schön	ehrlich	retten	spielen	treu	fair	schlecht	eitel	rächen	strafen	tot	faul	53pct	acq_USunple_CSunple2_noRW	acq1_noRW	1	67	0	0	300	300	603	46	0	1	1	blank2r.bmp	0	1	+	0	1	blank2r.bmp	252	1	BZZB	306	2	tot	559	0	0	0	0	0	0	0	0	0	0	0	0	0	0	0	0	0	0	0	0	0	0	0	0	0	0	0	0	0	0	0	0	0	0	0	0	0	0	0
071719	10:00:41	10:03:22	160520	5.0.10.0	5_exp_noRW	60	Rpleas_acq	CS_B	VKKV	JXXJ	MQQM	BZZB	YDDY	GWWG	schön	ehrlich	retten	spielen	treu	fair	schlecht	eitel	rächen	strafen	tot	faul	47pct	acq_USpleas_CSpleas1_noRW	acq1_noRW	1	68	0	0	300	300	477	50	0	1	1	blank2r.bmp	0	1	+	0	1	blank2r.bmp	252	1	VKKV	306	1	schön	559	0	0	0	0	0	0	0	0	0	0	0	0	0	0	0	0	0	0	0	0	0	0	0	0	0	0	0	0	0	0	0	0	0	0	0	0	0	0	0
071719	10:00:41	10:03:24	162213	5.0.10.0	5_exp_noRW	60	Rpleas_acq	CS_B	VKKV	JXXJ	MQQM	BZZB	YDDY	GWWG	schön	ehrlich	retten	spielen	treu	fair	schlecht	eitel	rächen	strafen	tot	faul	47pct	acq_USpleas_CSpleas1_noRW	acq1_noRW	1	69	0	0	300	300	514	50	0	1	1	blank2r.bmp	0	1	+	0	1	blank2r.bmp	252	1	VKKV	306	2	ehrlich	559	0	0	0	0	0	0	0	0	0	0	0	0	0	0	0	0	0	0	0	0	0	0	0	0	0	0	0	0	0	0	0	0	0	0	0	0	0	0	0
071719	10:00:41	10:03:26	163932	5.0.10.0	5_exp_noRW	60	Rpleas_acq	CS_B	VKKV	JXXJ	MQQM	BZZB	YDDY	GWWG	schön	ehrlich	retten	spielen	treu	fair	schlecht	eitel	rächen	strafen	tot	faul	47pct	acq_USpleas_CSunple2_noRW	acq1_noRW	1	70	0	0	300	300	556	50	0	1	1	blank2r.bmp	0	1	+	0	1	blank2r.bmp	252	1	BZZB	306	3	fair	559	0	0	0	0	0	0	0	0	0	0	0	0	0	0	0	0	0	0	0	0	0	0	0	0	0	0	0	0	0	0	0	0	0	0	0	0	0	0	0
071719	10:00:41	10:03:27	165505	5.0.10.0	5_exp_noRW	60	Rpleas_acq	CS_B	VKKV	JXXJ	MQQM	BZZB	YDDY	GWWG	schön	ehrlich	retten	spielen	treu	fair	schlecht	eitel	rächen	strafen	tot	faul	53pct	acq_USpleas_CSpleas2_noRW	acq1_noRW	1	71	0	0	300	300	395	50	0	1	1	blank2r.bmp	0	1	+	0	1	blank2r.bmp	252	1	JXXJ	306	3	fair	559	0	0	0	0	0	0	0	0	0	0	0	0	0	0	0	0	0	0	0	0	0	0	0	0	0	0	0	0	0	0	0	0	0	0	0	0	0	0	0
071719	10:00:41	10:03:29	167357	5.0.10.0	5_exp_noRW	60	Rpleas_acq	CS_B	VKKV	JXXJ	MQQM	BZZB	YDDY	GWWG	schön	ehrlich	retten	spielen	treu	fair	schlecht	eitel	rächen	strafen	tot	faul	47pct	acq_USpleas_CSpleas1_noRW	acq1_noRW	1	72	0	0	300	300	678	50	0	1	1	blank2r.bmp	0	1	+	0	1	blank2r.bmp	252	1	VKKV	306	3	retten	559	0	0	0	0	0	0	0	0	0	0	0	0	0	0	0	0	0	0	0	0	0	0	0	0	0	0	0	0	0	0	0	0	0	0	0	0	0	0	0
071719	10:00:41	10:03:31	168983	5.0.10.0	5_exp_noRW	60	Rpleas_acq	CS_B	VKKV	JXXJ	MQQM	BZZB	YDDY	GWWG	schön	ehrlich	retten	spielen	treu	fair	schlecht	eitel	rächen	strafen	tot	faul	53pct	acq_USunple_CSunple1_noRW	acq1_noRW	1	73	0	0	300	300	443	46	0	1	1	blank2r.bmp	0	1	+	0	1	blank2r.bmp	252	1	MQQM	306	3	rächen	559	0	0	0	0	0	0	0	0	0	0	0	0	0	0	0	0	0	0	0	0	0	0	0	0	0	0	0	0	0	0	0	0	0	0	0	0	0	0	0
071719	10:00:41	10:03:32	170796	5.0.10.0	5_exp_noRW	60	Rpleas_acq	CS_B	VKKV	JXXJ	MQQM	BZZB	YDDY	GWWG	schön	ehrlich	retten	spielen	treu	fair	schlecht	eitel	rächen	strafen	tot	faul	47pct	acq_USunple_CSpleas2_noRW	acq1_noRW	1	74	0	0	300	300	640	46	0	1	1	blank2r.bmp	0	1	+	0	1	blank2r.bmp	252	1	JXXJ	306	3	faul	559	0	0	0	0	0	0	0	0	0	0	0	0	0	0	0	0	0	0	0	0	0	0	0	0	0	0	0	0	0	0	0	0	0	0	0	0	0	0	0
071719	10:00:41	10:03:35	172888	5.0.10.0	5_exp_noRW	60	Rpleas_acq	CS_B	VKKV	JXXJ	MQQM	BZZB	YDDY	GWWG	schön	ehrlich	retten	spielen	treu	fair	schlecht	eitel	rächen	strafen	tot	faul	53pct	acq_USunple_CSunple1_noRW	acq1_noRW	1	75	0	0	300	300	707	50	0	0	1	blank2r.bmp	0	1	+	0	1	blank2r.bmp	252	1	MQQM	306	1	schlecht	559	1	FEHLER	1306	0	0	0	0	0	0	0	0	0	0	0	0	0	0	0	0	0	0	0	0	0	0	0	0	0	0	0	0	0	0	0	0	0	0	0	0
071719	10:00:41	10:03:37	174874	5.0.10.0	5_exp_noRW	60	Rpleas_acq	CS_B	VKKV	JXXJ	MQQM	BZZB	YDDY	GWWG	schön	ehrlich	retten	spielen	treu	fair	schlecht	eitel	rächen	strafen	tot	faul	53pct	acq_USpleas_CSpleas2_noRW	acq1_noRW	1	76	0	0	300	300	1012	50	0	1	1	blank2r.bmp	0	1	+	0	1	blank2r.bmp	252	1	JXXJ	306	2	treu	559	0	0	0	0	0	0	0	0	0	0	0	0	0	0	0	0	0	0	0	0	0	0	0	0	0	0	0	0	0	0	0	0	0	0	0	0	0	0	0
071719	10:00:41	10:03:38	176607	5.0.10.0	5_exp_noRW	60	Rpleas_acq	CS_B	VKKV	JXXJ	MQQM	BZZB	YDDY	GWWG	schön	ehrlich	retten	spielen	treu	fair	schlecht	eitel	rächen	strafen	tot	faul	53pct	acq_USunple_CSunple2_noRW	acq1_noRW	1	77	0	0	300	300	562	46	0	1	1	blank2r.bmp	0	1	+	0	1	blank2r.bmp	252	1	BZZB	306	3	faul	559	0	0	0	0	0	0	0	0	0	0	0	0	0	0	0	0	0	0	0	0	0	0	0	0	0	0	0	0	0	0	0	0	0	0	0	0	0	0	0
071719	10:00:41	10:03:40	178366	5.0.10.0	5_exp_noRW	60	Rpleas_acq	CS_B	VKKV	JXXJ	MQQM	BZZB	YDDY	GWWG	schön	ehrlich	retten	spielen	treu	fair	schlecht	eitel	rächen	strafen	tot	faul	53pct	acq_USpleas_CSpleas2_noRW	acq1_noRW	1	78	0	0	300	300	574	50	0	1	1	blank2r.bmp	0	1	+	0	1	blank2r.bmp	252	1	JXXJ	306	3	fair	559	0	0	0	0	0	0	0	0	0	0	0	0	0	0	0	0	0	0	0	0	0	0	0	0	0	0	0	0	0	0	0	0	0	0	0	0	0	0	0
071719	10:00:41	10:03:42	180072	5.0.10.0	5_exp_noRW	60	Rpleas_acq	CS_B	VKKV	JXXJ	MQQM	BZZB	YDDY	GWWG	schön	ehrlich	retten	spielen	treu	fair	schlecht	eitel	rächen	strafen	tot	faul	47pct	acq_USunple_CSunple1_noRW	acq1_noRW	1	79	0	0	300	300	540	46	0	1	1	blank2r.bmp	0	1	+	0	1	blank2r.bmp	252	1	MQQM	306	2	eitel	559	0	0	0	0	0	0	0	0	0	0	0	0	0	0	0	0	0	0	0	0	0	0	0	0	0	0	0	0	0	0	0	0	0	0	0	0	0	0	0
071719	10:00:41	10:03:44	182138	5.0.10.0	5_exp_noRW	60	Rpleas_acq	CS_B	VKKV	JXXJ	MQQM	BZZB	YDDY	GWWG	schön	ehrlich	retten	spielen	treu	fair	schlecht	eitel	rächen	strafen	tot	faul	53pct	acq_USunple_CSunple2_noRW	acq1_noRW	1	80	0	0	300	300	883	46	0	1	1	blank2r.bmp	0	1	+	0	1	blank2r.bmp	252	1	BZZB	306	3	faul	559	0	0	0	0	0	0	0	0	0	0	0	0	0	0	0	0	0	0	0	0	0	0	0	0	0	0	0	0	0	0	0	0	0	0	0	0	0	0	0
071719	10:00:41	10:03:54	192547	5.0.10.0	5_exp_noRW	60	Rpleas_acq	CS_B	VKKV	JXXJ	MQQM	BZZB	YDDY	GWWG	schön	ehrlich	retten	spielen	treu	fair	schlecht	eitel	rächen	strafen	tot	faul	53pct	acq_USpleas_CSpleas2_noRW	acq23456_noRW	2	1	0	0	300	300	1040	50	0	1	1	blank2r.bmp	0	1	+	0	1	blank2r.bmp	252	1	JXXJ	306	2	treu	559	0	0	0	0	0	0	0	0	0	0	0	0	0	0	0	0	0	0	0	0	0	0	0	0	0	0	0	0	0	0	0	0	0	0	0	0	0	0	0
071719	10:00:41	10:03:56	194213	5.0.10.0	5_exp_noRW	60	Rpleas_acq	CS_B	VKKV	JXXJ	MQQM	BZZB	YDDY	GWWG	schön	ehrlich	retten	spielen	treu	fair	schlecht	eitel	rächen	strafen	tot	faul	47pct	acq_USunple_CSpleas1_noRW	acq23456_noRW	2	2	0	0	300	300	504	46	0	1	1	blank2r.bmp	0	1	+	0	1	blank2r.bmp	252	1	VKKV	306	3	rächen	559	0	0	0	0	0	0	0	0	0	0	0	0	0	0	0	0	0	0	0	0	0	0	0	0	0	0	0	0	0	0	0	0	0	0	0	0	0	0	0
071719	10:00:41	10:03:57	195852	5.0.10.0	5_exp_noRW	60	Rpleas_acq	CS_B	VKKV	JXXJ	MQQM	BZZB	YDDY	GWWG	schön	ehrlich	retten	spielen	treu	fair	schlecht	eitel	rächen	strafen	tot	faul	53pct	acq_USpleas_CSpleas2_noRW	acq23456_noRW	2	3	0	0	300	300	455	50	0	1	1	blank2r.bmp	0	1	+	0	1	blank2r.bmp	252	1	JXXJ	306	1	spielen	559	0	0	0	0	0	0	0	0	0	0	0	0	0	0	0	0	0	0	0	0	0	0	0	0	0	0	0	0	0	0	0	0	0	0	0	0	0	0	0
071719	10:00:41	10:04:00	197958	5.0.10.0	5_exp_noRW	60	Rpleas_acq	CS_B	VKKV	JXXJ	MQQM	BZZB	YDDY	GWWG	schön	ehrlich	retten	spielen	treu	fair	schlecht	eitel	rächen	strafen	tot	faul	47pct	acq_USpleas_CSpleas2_noRW	acq23456_noRW	2	4	0	0	300	300	727	46	0	0	1	blank2r.bmp	0	1	+	0	1	blank2r.bmp	252	1	JXXJ	306	3	fair	559	1	FEHLER	1319	0	0	0	0	0	0	0	0	0	0	0	0	0	0	0	0	0	0	0	0	0	0	0	0	0	0	0	0	0	0	0	0	0	0	0	0
071719	10:00:41	10:04:01	199771	5.0.10.0	5_exp_noRW	60	Rpleas_acq	CS_B	VKKV	JXXJ	MQQM	BZZB	YDDY	GWWG	schön	ehrlich	retten	spielen	treu	fair	schlecht	eitel	rächen	strafen	tot	faul	53pct	acq_USpleas_CSpleas1_noRW	acq23456_noRW	2	5	0	0	300	300	842	50	0	1	1	blank2r.bmp	0	1	+	0	1	blank2r.bmp	252	1	VKKV	306	2	ehrlich	559	0	0	0	0	0	0	0	0	0	0	0	0	0	0	0	0	0	0	0	0	0	0	0	0	0	0	0	0	0	0	0	0	0	0	0	0	0	0	0
071719	10:00:41	10:04:03	201450	5.0.10.0	5_exp_noRW	60	Rpleas_acq	CS_B	VKKV	JXXJ	MQQM	BZZB	YDDY	GWWG	schön	ehrlich	retten	spielen	treu	fair	schlecht	eitel	rächen	strafen	tot	faul	53pct	acq_USunple_CSunple1_noRW	acq23456_noRW	2	6	0	0	300	300	500	46	0	1	1	blank2r.bmp	0	1	+	0	1	blank2r.bmp	252	1	MQQM	306	1	schlecht	559	0	0	0	0	0	0	0	0	0	0	0	0	0	0	0	0	0	0	0	0	0	0	0	0	0	0	0	0	0	0	0	0	0	0	0	0	0	0	0
071719	10:00:41	10:04:05	203196	5.0.10.0	5_exp_noRW	60	Rpleas_acq	CS_B	VKKV	JXXJ	MQQM	BZZB	YDDY	GWWG	schön	ehrlich	retten	spielen	treu	fair	schlecht	eitel	rächen	strafen	tot	faul	53pct	acq_USunple_CSunple1_noRW	acq23456_noRW	2	7	0	0	300	300	584	46	0	1	1	blank2r.bmp	0	1	+	0	1	blank2r.bmp	252	1	MQQM	306	3	rächen	559	0	0	0	0	0	0	0	0	0	0	0	0	0	0	0	0	0	0	0	0	0	0	0	0	0	0	0	0	0	0	0	0	0	0	0	0	0	0	0
071719	10:00:41	10:04:07	205049	5.0.10.0	5_exp_noRW	60	Rpleas_acq	CS_B	VKKV	JXXJ	MQQM	BZZB	YDDY	GWWG	schön	ehrlich	retten	spielen	treu	fair	schlecht	eitel	rächen	strafen	tot	faul	53pct	acq_USpleas_CSpleas1_noRW	acq23456_noRW	2	8	0	0	300	300	667	50	0	1	1	blank2r.bmp	0	1	+	0	1	blank2r.bmp	252	1	VKKV	306	1	schön	559	0	0	0	0	0	0	0	0	0	0	0	0	0	0	0	0	0	0	0	0	0	0	0	0	0	0	0	0	0	0	0	0	0	0	0	0	0	0	0
071719	10:00:41	10:04:08	206741	5.0.10.0	5_exp_noRW	60	Rpleas_acq	CS_B	VKKV	JXXJ	MQQM	BZZB	YDDY	GWWG	schön	ehrlich	retten	spielen	treu	fair	schlecht	eitel	rächen	strafen	tot	faul	53pct	acq_USunple_CSunple2_noRW	acq23456_noRW	2	9	0	0	300	300	524	46	0	1	1	blank2r.bmp	0	1	+	0	1	blank2r.bmp	252	1	BZZB	306	2	tot	559	0	0	0	0	0	0	0	0	0	0	0	0	0	0	0	0	0	0	0	0	0	0	0	0	0	0	0	0	0	0	0	0	0	0	0	0	0	0	0
071719	10:00:41	10:04:10	208567	5.0.10.0	5_exp_noRW	60	Rpleas_acq	CS_B	VKKV	JXXJ	MQQM	BZZB	YDDY	GWWG	schön	ehrlich	retten	spielen	treu	fair	schlecht	eitel	rächen	strafen	tot	faul	53pct	acq_USpleas_CSunple2_noRW	acq23456_noRW	2	10	0	0	300	300	657	50	0	1	1	blank2r.bmp	0	1	+	0	1	blank2r.bmp	252	1	BZZB	306	2	treu	559	0	0	0	0	0	0	0	0	0	0	0	0	0	0	0	0	0	0	0	0	0	0	0	0	0	0	0	0	0	0	0	0	0	0	0	0	0	0	0
071719	10:00:41	10:04:12	210700	5.0.10.0	5_exp_noRW	60	Rpleas_acq	CS_B	VKKV	JXXJ	MQQM	BZZB	YDDY	GWWG	schön	ehrlich	retten	spielen	treu	fair	schlecht	eitel	rächen	strafen	tot	faul	53pct	acq_USpleas_CSpleas1_noRW	acq23456_noRW	2	11	0	0	300	300	952	50	0	1	1	blank2r.bmp	0	1	+	0	1	blank2r.bmp	252	1	VKKV	306	2	ehrlich	559	0	0	0	0	0	0	0	0	0	0	0	0	0	0	0	0	0	0	0	0	0	0	0	0	0	0	0	0	0	0	0	0	0	0	0	0	0	0	0
071719	10:00:41	10:04:14	212405	5.0.10.0	5_exp_noRW	60	Rpleas_acq	CS_B	VKKV	JXXJ	MQQM	BZZB	YDDY	GWWG	schön	ehrlich	retten	spielen	treu	fair	schlecht	eitel	rächen	strafen	tot	faul	53pct	acq_USpleas_CSpleas1_noRW	acq23456_noRW	2	12	0	0	300	300	539	50	0	1	1	blank2r.bmp	0	1	+	0	1	blank2r.bmp	252	1	VKKV	306	1	schön	559	0	0	0	0	0	0	0	0	0	0	0	0	0	0	0	0	0	0	0	0	0	0	0	0	0	0	0	0	0	0	0	0	0	0	0	0	0	0	0
071719	10:00:41	10:04:16	214071	5.0.10.0	5_exp_noRW	60	Rpleas_acq	CS_B	VKKV	JXXJ	MQQM	BZZB	YDDY	GWWG	schön	ehrlich	retten	spielen	treu	fair	schlecht	eitel	rächen	strafen	tot	faul	47pct	acq_USpleas_CSpleas2_noRW	acq23456_noRW	2	13	0	0	300	300	486	50	0	1	1	blank2r.bmp	0	1	+	0	1	blank2r.bmp	252	1	JXXJ	306	1	spielen	559	0	0	0	0	0	0	0	0	0	0	0	0	0	0	0	0	0	0	0	0	0	0	0	0	0	0	0	0	0	0	0	0	0	0	0	0	0	0	0
071719	10:00:41	10:04:18	215977	5.0.10.0	5_exp_noRW	60	Rpleas_acq	CS_B	VKKV	JXXJ	MQQM	BZZB	YDDY	GWWG	schön	ehrlich	retten	spielen	treu	fair	schlecht	eitel	rächen	strafen	tot	faul	53pct	acq_USunple_CSunple2_noRW	acq23456_noRW	2	14	0	0	300	300	722	46	0	1	1	blank2r.bmp	0	1	+	0	1	blank2r.bmp	252	1	BZZB	306	1	strafen	559	0	0	0	0	0	0	0	0	0	0	0	0	0	0	0	0	0	0	0	0	0	0	0	0	0	0	0	0	0	0	0	0	0	0	0	0	0	0	0
071719	10:00:41	10:04:20	217857	5.0.10.0	5_exp_noRW	60	Rpleas_acq	CS_B	VKKV	JXXJ	MQQM	BZZB	YDDY	GWWG	schön	ehrlich	retten	spielen	treu	fair	schlecht	eitel	rächen	strafen	tot	faul	53pct	acq_USunple_CSunple1_noRW	acq23456_noRW	2	15	0	0	300	300	716	46	0	1	1	blank2r.bmp	0	1	+	0	1	blank2r.bmp	252	1	MQQM	306	1	schlecht	559	0	0	0	0	0	0	0	0	0	0	0	0	0	0	0	0	0	0	0	0	0	0	0	0	0	0	0	0	0	0	0	0	0	0	0	0	0	0	0
071719	10:00:41	10:04:21	219496	5.0.10.0	5_exp_noRW	60	Rpleas_acq	CS_B	VKKV	JXXJ	MQQM	BZZB	YDDY	GWWG	schön	ehrlich	retten	spielen	treu	fair	schlecht	eitel	rächen	strafen	tot	faul	47pct	acq_USunple_CSpleas2_noRW	acq23456_noRW	2	16	0	0	300	300	475	46	0	1	1	blank2r.bmp	0	1	+	0	1	blank2r.bmp	252	1	JXXJ	306	2	tot	559	0	0	0	0	0	0	0	0	0	0	0	0	0	0	0	0	0	0	0	0	0	0	0	0	0	0	0	0	0	0	0	0	0	0	0	0	0	0	0
071719	10:00:41	10:04:23	221162	5.0.10.0	5_exp_noRW	60	Rpleas_acq	CS_B	VKKV	JXXJ	MQQM	BZZB	YDDY	GWWG	schön	ehrlich	retten	spielen	treu	fair	schlecht	eitel	rächen	strafen	tot	faul	53pct	acq_USpleas_CSunple1_noRW	acq23456_noRW	2	17	0	0	300	300	501	50	0	1	1	blank2r.bmp	0	1	+	0	1	blank2r.bmp	252	1	MQQM	306	1	schön	559	0	0	0	0	0	0	0	0	0	0	0	0	0	0	0	0	0	0	0	0	0	0	0	0	0	0	0	0	0	0	0	0	0	0	0	0	0	0	0
071719	10:00:41	10:04:25	222908	5.0.10.0	5_exp_noRW	60	Rpleas_acq	CS_B	VKKV	JXXJ	MQQM	BZZB	YDDY	GWWG	schön	ehrlich	retten	spielen	treu	fair	schlecht	eitel	rächen	strafen	tot	faul	47pct	acq_USunple_CSunple2_noRW	acq23456_noRW	2	18	0	0	300	300	559	46	0	1	1	blank2r.bmp	0	1	+	0	1	blank2r.bmp	252	1	BZZB	306	2	tot	559	0	0	0	0	0	0	0	0	0	0	0	0	0	0	0	0	0	0	0	0	0	0	0	0	0	0	0	0	0	0	0	0	0	0	0	0	0	0	0
071719	10:00:41	10:04:26	224734	5.0.10.0	5_exp_noRW	60	Rpleas_acq	CS_B	VKKV	JXXJ	MQQM	BZZB	YDDY	GWWG	schön	ehrlich	retten	spielen	treu	fair	schlecht	eitel	rächen	strafen	tot	faul	53pct	acq_USunple_CSunple2_noRW	acq23456_noRW	2	19	0	0	300	300	663	46	0	1	1	blank2r.bmp	0	1	+	0	1	blank2r.bmp	252	1	BZZB	306	3	faul	559	0	0	0	0	0	0	0	0	0	0	0	0	0	0	0	0	0	0	0	0	0	0	0	0	0	0	0	0	0	0	0	0	0	0	0	0	0	0	0
071719	10:00:41	10:04:28	226600	5.0.10.0	5_exp_noRW	60	Rpleas_acq	CS_B	VKKV	JXXJ	MQQM	BZZB	YDDY	GWWG	schön	ehrlich	retten	spielen	treu	fair	schlecht	eitel	rächen	strafen	tot	faul	53pct	acq_USunple_CSunple1_noRW	acq23456_noRW	2	20	0	0	300	300	679	46	0	1	1	blank2r.bmp	0	1	+	0	1	blank2r.bmp	252	1	MQQM	306	2	eitel	559	0	0	0	0	0	0	0	0	0	0	0	0	0	0	0	0	0	0	0	0	0	0	0	0	0	0	0	0	0	0	0	0	0	0	0	0	0	0	0
071719	10:00:41	10:04:30	228359	5.0.10.0	5_exp_noRW	60	Rpleas_acq	CS_B	VKKV	JXXJ	MQQM	BZZB	YDDY	GWWG	schön	ehrlich	retten	spielen	treu	fair	schlecht	eitel	rächen	strafen	tot	faul	47pct	acq_USunple_CSunple2_noRW	acq23456_noRW	2	21	0	0	300	300	586	46	0	1	1	blank2r.bmp	0	1	+	0	1	blank2r.bmp	252	1	BZZB	306	1	strafen	559	0	0	0	0	0	0	0	0	0	0	0	0	0	0	0	0	0	0	0	0	0	0	0	0	0	0	0	0	0	0	0	0	0	0	0	0	0	0	0
071719	10:00:41	10:04:32	230012	5.0.10.0	5_exp_noRW	60	Rpleas_acq	CS_B	VKKV	JXXJ	MQQM	BZZB	YDDY	GWWG	schön	ehrlich	retten	spielen	treu	fair	schlecht	eitel	rächen	strafen	tot	faul	53pct	acq_USunple_CSunple2_noRW	acq23456_noRW	2	22	0	0	300	300	488	46	0	1	1	blank2r.bmp	0	1	+	0	1	blank2r.bmp	252	1	BZZB	306	2	tot	559	0	0	0	0	0	0	0	0	0	0	0	0	0	0	0	0	0	0	0	0	0	0	0	0	0	0	0	0	0	0	0	0	0	0	0	0	0	0	0
071719	10:00:41	10:04:33	231624	5.0.10.0	5_exp_noRW	60	Rpleas_acq	CS_B	VKKV	JXXJ	MQQM	BZZB	YDDY	GWWG	schön	ehrlich	retten	spielen	treu	fair	schlecht	eitel	rächen	strafen	tot	faul	53pct	acq_USpleas_CSunple1_noRW	acq23456_noRW	2	23	0	0	300	300	450	50	0	1	1	blank2r.bmp	0	1	+	0	1	blank2r.bmp	252	1	MQQM	306	2	ehrlich	559	0	0	0	0	0	0	0	0	0	0	0	0	0	0	0	0	0	0	0	0	0	0	0	0	0	0	0	0	0	0	0	0	0	0	0	0	0	0	0
071719	10:00:41	10:04:35	233530	5.0.10.0	5_exp_noRW	60	Rpleas_acq	CS_B	VKKV	JXXJ	MQQM	BZZB	YDDY	GWWG	schön	ehrlich	retten	spielen	treu	fair	schlecht	eitel	rächen	strafen	tot	faul	53pct	acq_USpleas_CSpleas2_noRW	acq23456_noRW	2	24	0	0	300	300	511	46	0	0	1	blank2r.bmp	0	1	+	0	1	blank2r.bmp	252	1	JXXJ	306	2	treu	559	1	FEHLER	1106	0	0	0	0	0	0	0	0	0	0	0	0	0	0	0	0	0	0	0	0	0	0	0	0	0	0	0	0	0	0	0	0	0	0	0	0
071719	10:00:41	10:04:37	235316	5.0.10.0	5_exp_noRW	60	Rpleas_acq	CS_B	VKKV	JXXJ	MQQM	BZZB	YDDY	GWWG	schön	ehrlich	retten	spielen	treu	fair	schlecht	eitel	rächen	strafen	tot	faul	47pct	acq_USpleas_CSpleas2_noRW	acq23456_noRW	2	25	0	0	300	300	826	50	0	1	1	blank2r.bmp	0	1	+	0	1	blank2r.bmp	252	1	JXXJ	306	1	spielen	559	0	0	0	0	0	0	0	0	0	0	0	0	0	0	0	0	0	0	0	0	0	0	0	0	0	0	0	0	0	0	0	0	0	0	0	0	0	0	0
071719	10:00:41	10:04:39	237009	5.0.10.0	5_exp_noRW	60	Rpleas_acq	CS_B	VKKV	JXXJ	MQQM	BZZB	YDDY	GWWG	schön	ehrlich	retten	spielen	treu	fair	schlecht	eitel	rächen	strafen	tot	faul	47pct	acq_USpleas_CSpleas2_noRW	acq23456_noRW	2	26	0	0	300	300	522	50	0	1	1	blank2r.bmp	0	1	+	0	1	blank2r.bmp	252	1	JXXJ	306	3	fair	559	0	0	0	0	0	0	0	0	0	0	0	0	0	0	0	0	0	0	0	0	0	0	0	0	0	0	0	0	0	0	0	0	0	0	0	0	0	0	0
071719	10:00:41	10:04:40	238648	5.0.10.0	5_exp_noRW	60	Rpleas_acq	CS_B	VKKV	JXXJ	MQQM	BZZB	YDDY	GWWG	schön	ehrlich	retten	spielen	treu	fair	schlecht	eitel	rächen	strafen	tot	faul	53pct	acq_USpleas_CSunple2_noRW	acq23456_noRW	2	27	0	0	300	300	455	50	0	1	1	blank2r.bmp	0	1	+	0	1	blank2r.bmp	252	1	BZZB	306	1	spielen	559	0	0	0	0	0	0	0	0	0	0	0	0	0	0	0	0	0	0	0	0	0	0	0	0	0	0	0	0	0	0	0	0	0	0	0	0	0	0	0
071719	10:00:41	10:04:42	240447	5.0.10.0	5_exp_noRW	60	Rpleas_acq	CS_B	VKKV	JXXJ	MQQM	BZZB	YDDY	GWWG	schön	ehrlich	retten	spielen	treu	fair	schlecht	eitel	rächen	strafen	tot	faul	53pct	acq_USpleas_CSpleas1_noRW	acq23456_noRW	2	28	0	0	300	300	617	50	0	1	1	blank2r.bmp	0	1	+	0	1	blank2r.bmp	252	1	VKKV	306	3	retten	559	0	0	0	0	0	0	0	0	0	0	0	0	0	0	0	0	0	0	0	0	0	0	0	0	0	0	0	0	0	0	0	0	0	0	0	0	0	0	0
071719	10:00:41	10:04:44	242073	5.0.10.0	5_exp_noRW	60	Rpleas_acq	CS_B	VKKV	JXXJ	MQQM	BZZB	YDDY	GWWG	schön	ehrlich	retten	spielen	treu	fair	schlecht	eitel	rächen	strafen	tot	faul	53pct	acq_USunple_CSunple2_noRW	acq23456_noRW	2	29	0	0	300	300	463	46	0	1	1	blank2r.bmp	0	1	+	0	1	blank2r.bmp	252	1	BZZB	306	3	faul	559	0	0	0	0	0	0	0	0	0	0	0	0	0	0	0	0	0	0	0	0	0	0	0	0	0	0	0	0	0	0	0	0	0	0	0	0	0	0	0
071719	10:00:41	10:04:45	243819	5.0.10.0	5_exp_noRW	60	Rpleas_acq	CS_B	VKKV	JXXJ	MQQM	BZZB	YDDY	GWWG	schön	ehrlich	retten	spielen	treu	fair	schlecht	eitel	rächen	strafen	tot	faul	53pct	acq_USunple_CSpleas2_noRW	acq23456_noRW	2	30	0	0	300	300	568	46	0	1	1	blank2r.bmp	0	1	+	0	1	blank2r.bmp	252	1	JXXJ	306	1	strafen	559	0	0	0	0	0	0	0	0	0	0	0	0	0	0	0	0	0	0	0	0	0	0	0	0	0	0	0	0	0	0	0	0	0	0	0	0	0	0	0
071719	10:00:41	10:04:47	245592	5.0.10.0	5_exp_noRW	60	Rpleas_acq	CS_B	VKKV	JXXJ	MQQM	BZZB	YDDY	GWWG	schön	ehrlich	retten	spielen	treu	fair	schlecht	eitel	rächen	strafen	tot	faul	53pct	acq_USpleas_CSpleas1_noRW	acq23456_noRW	2	31	0	0	300	300	588	50	0	1	1	blank2r.bmp	0	1	+	0	1	blank2r.bmp	252	1	VKKV	306	2	ehrlich	559	0	0	0	0	0	0	0	0	0	0	0	0	0	0	0	0	0	0	0	0	0	0	0	0	0	0	0	0	0	0	0	0	0	0	0	0	0	0	0
071719	10:00:41	10:04:49	247604	5.0.10.0	5_exp_noRW	60	Rpleas_acq	CS_B	VKKV	JXXJ	MQQM	BZZB	YDDY	GWWG	schön	ehrlich	retten	spielen	treu	fair	schlecht	eitel	rächen	strafen	tot	faul	47pct	acq_USpleas_CSpleas2_noRW	acq23456_noRW	2	32	0	0	300	300	828	50	0	1	1	blank2r.bmp	0	1	+	0	1	blank2r.bmp	252	1	JXXJ	306	2	treu	559	0	0	0	0	0	0	0	0	0	0	0	0	0	0	0	0	0	0	0	0	0	0	0	0	0	0	0	0	0	0	0	0	0	0	0	0	0	0	0
071719	10:00:41	10:04:51	249457	5.0.10.0	5_exp_noRW	60	Rpleas_acq	CS_B	VKKV	JXXJ	MQQM	BZZB	YDDY	GWWG	schön	ehrlich	retten	spielen	treu	fair	schlecht	eitel	rächen	strafen	tot	faul	53pct	acq_USunple_CSunple1_noRW	acq23456_noRW	2	33	0	0	300	300	676	46	0	1	1	blank2r.bmp	0	1	+	0	1	blank2r.bmp	252	1	MQQM	306	3	rächen	559	0	0	0	0	0	0	0	0	0	0	0	0	0	0	0	0	0	0	0	0	0	0	0	0	0	0	0	0	0	0	0	0	0	0	0	0	0	0	0
071719	10:00:41	10:04:53	251416	5.0.10.0	5_exp_noRW	60	Rpleas_acq	CS_B	VKKV	JXXJ	MQQM	BZZB	YDDY	GWWG	schön	ehrlich	retten	spielen	treu	fair	schlecht	eitel	rächen	strafen	tot	faul	47pct	acq_USpleas_CSpleas1_noRW	acq23456_noRW	2	34	0	0	300	300	772	50	0	1	1	blank2r.bmp	0	1	+	0	1	blank2r.bmp	252	1	VKKV	306	3	retten	559	0	0	0	0	0	0	0	0	0	0	0	0	0	0	0	0	0	0	0	0	0	0	0	0	0	0	0	0	0	0	0	0	0	0	0	0	0	0	0
071719	10:00:41	10:04:55	253229	5.0.10.0	5_exp_noRW	60	Rpleas_acq	CS_B	VKKV	JXXJ	MQQM	BZZB	YDDY	GWWG	schön	ehrlich	retten	spielen	treu	fair	schlecht	eitel	rächen	strafen	tot	faul	47pct	acq_USunple_CSunple1_noRW	acq23456_noRW	2	35	0	0	300	300	640	46	0	1	1	blank2r.bmp	0	1	+	0	1	blank2r.bmp	252	1	MQQM	306	1	schlecht	559	0	0	0	0	0	0	0	0	0	0	0	0	0	0	0	0	0	0	0	0	0	0	0	0	0	0	0	0	0	0	0	0	0	0	0	0	0	0	0
071719	10:00:41	10:04:57	255081	5.0.10.0	5_exp_noRW	60	Rpleas_acq	CS_B	VKKV	JXXJ	MQQM	BZZB	YDDY	GWWG	schön	ehrlich	retten	spielen	treu	fair	schlecht	eitel	rächen	strafen	tot	faul	53pct	acq_USunple_CSpleas1_noRW	acq23456_noRW	2	36	0	0	300	300	686	46	0	1	1	blank2r.bmp	0	1	+	0	1	blank2r.bmp	252	1	VKKV	306	2	eitel	559	0	0	0	0	0	0	0	0	0	0	0	0	0	0	0	0	0	0	0	0	0	0	0	0	0	0	0	0	0	0	0	0	0	0	0	0	0	0	0
071719	10:00:41	10:04:59	256987	5.0.10.0	5_exp_noRW	60	Rpleas_acq	CS_B	VKKV	JXXJ	MQQM	BZZB	YDDY	GWWG	schön	ehrlich	retten	spielen	treu	fair	schlecht	eitel	rächen	strafen	tot	faul	53pct	acq_USpleas_CSpleas1_noRW	acq23456_noRW	2	37	0	0	300	300	735	50	0	1	1	blank2r.bmp	0	1	+	0	1	blank2r.bmp	252	1	VKKV	306	1	schön	559	0	0	0	0	0	0	0	0	0	0	0	0	0	0	0	0	0	0	0	0	0	0	0	0	0	0	0	0	0	0	0	0	0	0	0	0	0	0	0
071719	10:00:41	10:05:01	258973	5.0.10.0	5_exp_noRW	60	Rpleas_acq	CS_B	VKKV	JXXJ	MQQM	BZZB	YDDY	GWWG	schön	ehrlich	retten	spielen	treu	fair	schlecht	eitel	rächen	strafen	tot	faul	53pct	acq_USunple_CSunple2_noRW	acq23456_noRW	2	38	0	0	300	300	816	46	0	1	1	blank2r.bmp	0	1	+	0	1	blank2r.bmp	252	1	BZZB	306	1	strafen	559	0	0	0	0	0	0	0	0	0	0	0	0	0	0	0	0	0	0	0	0	0	0	0	0	0	0	0	0	0	0	0	0	0	0	0	0	0	0	0
071719	10:00:41	10:05:02	260772	5.0.10.0	5_exp_noRW	60	Rpleas_acq	CS_B	VKKV	JXXJ	MQQM	BZZB	YDDY	GWWG	schön	ehrlich	retten	spielen	treu	fair	schlecht	eitel	rächen	strafen	tot	faul	47pct	acq_USunple_CSunple1_noRW	acq23456_noRW	2	39	0	0	300	300	614	46	0	1	1	blank2r.bmp	0	1	+	0	1	blank2r.bmp	252	1	MQQM	306	2	eitel	559	0	0	0	0	0	0	0	0	0	0	0	0	0	0	0	0	0	0	0	0	0	0	0	0	0	0	0	0	0	0	0	0	0	0	0	0	0	0	0
071719	10:00:41	10:05:04	262532	5.0.10.0	5_exp_noRW	60	Rpleas_acq	CS_B	VKKV	JXXJ	MQQM	BZZB	YDDY	GWWG	schön	ehrlich	retten	spielen	treu	fair	schlecht	eitel	rächen	strafen	tot	faul	47pct	acq_USunple_CSunple1_noRW	acq23456_noRW	2	40	0	0	300	300	597	46	0	1	1	blank2r.bmp	0	1	+	0	1	blank2r.bmp	252	1	MQQM	306	3	rächen	559	0	0	0	0	0	0	0	0	0	0	0	0	0	0	0	0	0	0	0	0	0	0	0	0	0	0	0	0	0	0	0	0	0	0	0	0	0	0	0
071719	10:00:41	10:05:06	264171	5.0.10.0	5_exp_noRW	60	Rpleas_acq	CS_B	VKKV	JXXJ	MQQM	BZZB	YDDY	GWWG	schön	ehrlich	retten	spielen	treu	fair	schlecht	eitel	rächen	strafen	tot	faul	47pct	acq_USpleas_CSpleas1_noRW	acq23456_noRW	2	41	0	0	300	300	454	50	0	1	1	blank2r.bmp	0	1	+	0	1	blank2r.bmp	252	1	VKKV	306	1	schön	559	0	0	0	0	0	0	0	0	0	0	0	0	0	0	0	0	0	0	0	0	0	0	0	0	0	0	0	0	0	0	0	0	0	0	0	0	0	0	0
071719	10:00:41	10:05:08	266037	5.0.10.0	5_exp_noRW	60	Rpleas_acq	CS_B	VKKV	JXXJ	MQQM	BZZB	YDDY	GWWG	schön	ehrlich	retten	spielen	treu	fair	schlecht	eitel	rächen	strafen	tot	faul	47pct	acq_USunple_CSunple1_noRW	acq23456_noRW	2	42	0	0	300	300	686	46	0	1	1	blank2r.bmp	0	1	+	0	1	blank2r.bmp	252	1	MQQM	306	3	rächen	559	0	0	0	0	0	0	0	0	0	0	0	0	0	0	0	0	0	0	0	0	0	0	0	0	0	0	0	0	0	0	0	0	0	0	0	0	0	0	0
071719	10:00:41	10:05:10	268209	5.0.10.0	5_exp_noRW	60	Rpleas_acq	CS_B	VKKV	JXXJ	MQQM	BZZB	YDDY	GWWG	schön	ehrlich	retten	spielen	treu	fair	schlecht	eitel	rächen	strafen	tot	faul	47pct	acq_USunple_CSunple1_noRW	acq23456_noRW	2	43	0	0	300	300	994	46	0	1	1	blank2r.bmp	0	1	+	0	1	blank2r.bmp	252	1	MQQM	306	2	eitel	559	0	0	0	0	0	0	0	0	0	0	0	0	0	0	0	0	0	0	0	0	0	0	0	0	0	0	0	0	0	0	0	0	0	0	0	0	0	0	0
071719	10:00:41	10:05:12	270368	5.0.10.0	5_exp_noRW	60	Rpleas_acq	CS_B	VKKV	JXXJ	MQQM	BZZB	YDDY	GWWG	schön	ehrlich	retten	spielen	treu	fair	schlecht	eitel	rächen	strafen	tot	faul	53pct	acq_USunple_CSunple2_noRW	acq23456_noRW	2	44	0	0	300	300	976	46	0	1	1	blank2r.bmp	0	1	+	0	1	blank2r.bmp	252	1	BZZB	306	2	tot	559	0	0	0	0	0	0	0	0	0	0	0	0	0	0	0	0	0	0	0	0	0	0	0	0	0	0	0	0	0	0	0	0	0	0	0	0	0	0	0
071719	10:00:41	10:05:14	271968	5.0.10.0	5_exp_noRW	60	Rpleas_acq	CS_B	VKKV	JXXJ	MQQM	BZZB	YDDY	GWWG	schön	ehrlich	retten	spielen	treu	fair	schlecht	eitel	rächen	strafen	tot	faul	53pct	acq_USpleas_CSpleas1_noRW	acq23456_noRW	2	45	0	0	300	300	428	50	0	1	1	blank2r.bmp	0	1	+	0	1	blank2r.bmp	252	1	VKKV	306	2	ehrlich	559	0	0	0	0	0	0	0	0	0	0	0	0	0	0	0	0	0	0	0	0	0	0	0	0	0	0	0	0	0	0	0	0	0	0	0	0	0	0	0
071719	10:00:41	10:05:15	273700	5.0.10.0	5_exp_noRW	60	Rpleas_acq	CS_B	VKKV	JXXJ	MQQM	BZZB	YDDY	GWWG	schön	ehrlich	retten	spielen	treu	fair	schlecht	eitel	rächen	strafen	tot	faul	47pct	acq_USunple_CSpleas2_noRW	acq23456_noRW	2	46	0	0	300	300	548	46	0	1	1	blank2r.bmp	0	1	+	0	1	blank2r.bmp	252	1	JXXJ	306	1	strafen	559	0	0	0	0	0	0	0	0	0	0	0	0	0	0	0	0	0	0	0	0	0	0	0	0	0	0	0	0	0	0	0	0	0	0	0	0	0	0	0
071719	10:00:41	10:05:17	275580	5.0.10.0	5_exp_noRW	60	Rpleas_acq	CS_B	VKKV	JXXJ	MQQM	BZZB	YDDY	GWWG	schön	ehrlich	retten	spielen	treu	fair	schlecht	eitel	rächen	strafen	tot	faul	47pct	acq_USpleas_CSpleas2_noRW	acq23456_noRW	2	47	0	0	300	300	693	50	0	1	1	blank2r.bmp	0	1	+	0	1	blank2r.bmp	252	1	JXXJ	306	3	fair	559	0	0	0	0	0	0	0	0	0	0	0	0	0	0	0	0	0	0	0	0	0	0	0	0	0	0	0	0	0	0	0	0	0	0	0	0	0	0	0
071719	10:00:41	10:05:19	277299	5.0.10.0	5_exp_noRW	60	Rpleas_acq	CS_B	VKKV	JXXJ	MQQM	BZZB	YDDY	GWWG	schön	ehrlich	retten	spielen	treu	fair	schlecht	eitel	rächen	strafen	tot	faul	53pct	acq_USpleas_CSpleas2_noRW	acq23456_noRW	2	48	0	0	300	300	549	50	0	1	1	blank2r.bmp	0	1	+	0	1	blank2r.bmp	252	1	JXXJ	306	1	spielen	559	0	0	0	0	0	0	0	0	0	0	0	0	0	0	0	0	0	0	0	0	0	0	0	0	0	0	0	0	0	0	0	0	0	0	0	0	0	0	0
071719	10:00:41	10:05:21	278938	5.0.10.0	5_exp_noRW	60	Rpleas_acq	CS_B	VKKV	JXXJ	MQQM	BZZB	YDDY	GWWG	schön	ehrlich	retten	spielen	treu	fair	schlecht	eitel	rächen	strafen	tot	faul	53pct	acq_USunple_CSunple2_noRW	acq23456_noRW	2	49	0	0	300	300	468	46	0	1	1	blank2r.bmp	0	1	+	0	1	blank2r.bmp	252	1	BZZB	306	1	strafen	559	0	0	0	0	0	0	0	0	0	0	0	0	0	0	0	0	0	0	0	0	0	0	0	0	0	0	0	0	0	0	0	0	0	0	0	0	0	0	0
071719	10:00:41	10:05:22	280711	5.0.10.0	5_exp_noRW	60	Rpleas_acq	CS_B	VKKV	JXXJ	MQQM	BZZB	YDDY	GWWG	schön	ehrlich	retten	spielen	treu	fair	schlecht	eitel	rächen	strafen	tot	faul	53pct	acq_USunple_CSunple1_noRW	acq23456_noRW	2	50	0	0	300	300	600	46	0	1	1	blank2r.bmp	0	1	+	0	1	blank2r.bmp	252	1	MQQM	306	1	schlecht	559	0	0	0	0	0	0	0	0	0	0	0	0	0	0	0	0	0	0	0	0	0	0	0	0	0	0	0	0	0	0	0	0	0	0	0	0	0	0	0
071719	10:00:41	10:05:25	283137	5.0.10.0	5_exp_noRW	60	Rpleas_acq	CS_B	VKKV	JXXJ	MQQM	BZZB	YDDY	GWWG	schön	ehrlich	retten	spielen	treu	fair	schlecht	eitel	rächen	strafen	tot	faul	47pct	acq_USunple_CSunple1_noRW	acq23456_noRW	2	51	0	0	300	300	1255	46	0	1	1	blank2r.bmp	0	1	+	0	1	blank2r.bmp	252	1	MQQM	306	2	eitel	559	0	0	0	0	0	0	0	0	0	0	0	0	0	0	0	0	0	0	0	0	0	0	0	0	0	0	0	0	0	0	0	0	0	0	0	0	0	0	0
071719	10:00:41	10:05:27	284856	5.0.10.0	5_exp_noRW	60	Rpleas_acq	CS_B	VKKV	JXXJ	MQQM	BZZB	YDDY	GWWG	schön	ehrlich	retten	spielen	treu	fair	schlecht	eitel	rächen	strafen	tot	faul	53pct	acq_USpleas_CSpleas1_noRW	acq23456_noRW	2	52	0	0	300	300	536	50	0	1	1	blank2r.bmp	0	1	+	0	1	blank2r.bmp	252	1	VKKV	306	3	retten	559	0	0	0	0	0	0	0	0	0	0	0	0	0	0	0	0	0	0	0	0	0	0	0	0	0	0	0	0	0	0	0	0	0	0	0	0	0	0	0
071719	10:00:41	10:05:28	286722	5.0.10.0	5_exp_noRW	60	Rpleas_acq	CS_B	VKKV	JXXJ	MQQM	BZZB	YDDY	GWWG	schön	ehrlich	retten	spielen	treu	fair	schlecht	eitel	rächen	strafen	tot	faul	47pct	acq_USunple_CSunple2_noRW	acq23456_noRW	2	53	0	0	300	300	680	46	0	1	1	blank2r.bmp	0	1	+	0	1	blank2r.bmp	252	1	BZZB	306	3	faul	559	0	0	0	0	0	0	0	0	0	0	0	0	0	0	0	0	0	0	0	0	0	0	0	0	0	0	0	0	0	0	0	0	0	0	0	0	0	0	0
071719	10:00:41	10:05:30	288601	5.0.10.0	5_exp_noRW	60	Rpleas_acq	CS_B	VKKV	JXXJ	MQQM	BZZB	YDDY	GWWG	schön	ehrlich	retten	spielen	treu	fair	schlecht	eitel	rächen	strafen	tot	faul	47pct	acq_USunple_CSpleas1_noRW	acq23456_noRW	2	54	0	0	300	300	713	46	0	1	1	blank2r.bmp	0	1	+	0	1	blank2r.bmp	252	1	VKKV	306	1	schlecht	559	0	0	0	0	0	0	0	0	0	0	0	0	0	0	0	0	0	0	0	0	0	0	0	0	0	0	0	0	0	0	0	0	0	0	0	0	0	0	0
071719	10:00:41	10:05:32	290294	5.0.10.0	5_exp_noRW	60	Rpleas_acq	CS_B	VKKV	JXXJ	MQQM	BZZB	YDDY	GWWG	schön	ehrlich	retten	spielen	treu	fair	schlecht	eitel	rächen	strafen	tot	faul	53pct	acq_USunple_CSunple2_noRW	acq23456_noRW	2	55	0	0	300	300	506	46	0	1	1	blank2r.bmp	0	1	+	0	1	blank2r.bmp	252	1	BZZB	306	3	faul	559	0	0	0	0	0	0	0	0	0	0	0	0	0	0	0	0	0	0	0	0	0	0	0	0	0	0	0	0	0	0	0	0	0	0	0	0	0	0	0
071719	10:00:41	10:05:34	291986	5.0.10.0	5_exp_noRW	60	Rpleas_acq	CS_B	VKKV	JXXJ	MQQM	BZZB	YDDY	GWWG	schön	ehrlich	retten	spielen	treu	fair	schlecht	eitel	rächen	strafen	tot	faul	53pct	acq_USpleas_CSpleas2_noRW	acq23456_noRW	2	56	0	0	300	300	526	50	0	1	1	blank2r.bmp	0	1	+	0	1	blank2r.bmp	252	1	JXXJ	306	2	treu	559	0	0	0	0	0	0	0	0	0	0	0	0	0	0	0	0	0	0	0	0	0	0	0	0	0	0	0	0	0	0	0	0	0	0	0	0	0	0	0
071719	10:00:41	10:05:36	294039	5.0.10.0	5_exp_noRW	60	Rpleas_acq	CS_B	VKKV	JXXJ	MQQM	BZZB	YDDY	GWWG	schön	ehrlich	retten	spielen	treu	fair	schlecht	eitel	rächen	strafen	tot	faul	53pct	acq_USpleas_CSunple1_noRW	acq23456_noRW	2	57	0	0	300	300	653	46	0	0	1	blank2r.bmp	0	1	+	0	1	blank2r.bmp	252	1	MQQM	306	2	ehrlich	559	1	FEHLER	1252	0	0	0	0	0	0	0	0	0	0	0	0	0	0	0	0	0	0	0	0	0	0	0	0	0	0	0	0	0	0	0	0	0	0	0	0
071719	10:00:41	10:05:37	295478	5.0.10.0	5_exp_noRW	60	Rpleas_acq	CS_B	VKKV	JXXJ	MQQM	BZZB	YDDY	GWWG	schön	ehrlich	retten	spielen	treu	fair	schlecht	eitel	rächen	strafen	tot	faul	47pct	acq_USpleas_CSunple2_noRW	acq23456_noRW	2	58	0	0	300	300	469	50	0	1	1	blank2r.bmp	0	1	+	0	1	blank2r.bmp	252	1	BZZB	306	1	spielen	559	0	0	0	0	0	0	0	0	0	0	0	0	0	0	0	0	0	0	0	0	0	0	0	0	0	0	0	0	0	0	0	0	0	0	0	0	0	0	0
071719	10:00:41	10:05:40	298037	5.0.10.0	5_exp_noRW	60	Rpleas_acq	CS_B	VKKV	JXXJ	MQQM	BZZB	YDDY	GWWG	schön	ehrlich	retten	spielen	treu	fair	schlecht	eitel	rächen	strafen	tot	faul	47pct	acq_USpleas_CSpleas2_noRW	acq23456_noRW	2	59	0	0	300	300	1377	50	0	1	1	blank2r.bmp	0	1	+	0	1	blank2r.bmp	252	1	JXXJ	306	1	spielen	559	0	0	0	0	0	0	0	0	0	0	0	0	0	0	0	0	0	0	0	0	0	0	0	0	0	0	0	0	0	0	0	0	0	0	0	0	0	0	0
071719	10:00:41	10:05:41	299783	5.0.10.0	5_exp_noRW	60	Rpleas_acq	CS_B	VKKV	JXXJ	MQQM	BZZB	YDDY	GWWG	schön	ehrlich	retten	spielen	treu	fair	schlecht	eitel	rächen	strafen	tot	faul	47pct	acq_USpleas_CSpleas1_noRW	acq23456_noRW	2	60	0	0	300	300	563	50	0	1	1	blank2r.bmp	0	1	+	0	1	blank2r.bmp	252	1	VKKV	306	2	ehrlich	559	0	0	0	0	0	0	0	0	0	0	0	0	0	0	0	0	0	0	0	0	0	0	0	0	0	0	0	0	0	0	0	0	0	0	0	0	0	0	0
071719	10:00:41	10:05:43	301489	5.0.10.0	5_exp_noRW	60	Rpleas_acq	CS_B	VKKV	JXXJ	MQQM	BZZB	YDDY	GWWG	schön	ehrlich	retten	spielen	treu	fair	schlecht	eitel	rächen	strafen	tot	faul	53pct	acq_USpleas_CSunple1_noRW	acq23456_noRW	2	61	0	0	300	300	531	50	0	1	1	blank2r.bmp	0	1	+	0	1	blank2r.bmp	252	1	MQQM	306	1	schön	559	0	0	0	0	0	0	0	0	0	0	0	0	0	0	0	0	0	0	0	0	0	0	0	0	0	0	0	0	0	0	0	0	0	0	0	0	0	0	0
071719	10:00:41	10:05:45	303581	5.0.10.0	5_exp_noRW	60	Rpleas_acq	CS_B	VKKV	JXXJ	MQQM	BZZB	YDDY	GWWG	schön	ehrlich	retten	spielen	treu	fair	schlecht	eitel	rächen	strafen	tot	faul	47pct	acq_USpleas_CSpleas2_noRW	acq23456_noRW	2	62	0	0	300	300	892	50	0	1	1	blank2r.bmp	0	1	+	0	1	blank2r.bmp	252	1	JXXJ	306	2	treu	559	0	0	0	0	0	0	0	0	0	0	0	0	0	0	0	0	0	0	0	0	0	0	0	0	0	0	0	0	0	0	0	0	0	0	0	0	0	0	0
071719	10:00:41	10:05:47	305261	5.0.10.0	5_exp_noRW	60	Rpleas_acq	CS_B	VKKV	JXXJ	MQQM	BZZB	YDDY	GWWG	schön	ehrlich	retten	spielen	treu	fair	schlecht	eitel	rächen	strafen	tot	faul	47pct	acq_USpleas_CSpleas2_noRW	acq23456_noRW	2	63	0	0	300	300	513	50	0	1	1	blank2r.bmp	0	1	+	0	1	blank2r.bmp	252	1	JXXJ	306	3	fair	559	0	0	0	0	0	0	0	0	0	0	0	0	0	0	0	0	0	0	0	0	0	0	0	0	0	0	0	0	0	0	0	0	0	0	0	0	0	0	0
071719	10:00:41	10:05:49	306900	5.0.10.0	5_exp_noRW	60	Rpleas_acq	CS_B	VKKV	JXXJ	MQQM	BZZB	YDDY	GWWG	schön	ehrlich	retten	spielen	treu	fair	schlecht	eitel	rächen	strafen	tot	faul	47pct	acq_USpleas_CSpleas1_noRW	acq23456_noRW	2	64	0	0	300	300	458	50	0	1	1	blank2r.bmp	0	1	+	0	1	blank2r.bmp	252	1	VKKV	306	3	retten	559	0	0	0	0	0	0	0	0	0	0	0	0	0	0	0	0	0	0	0	0	0	0	0	0	0	0	0	0	0	0	0	0	0	0	0	0	0	0	0
071719	10:00:41	10:05:50	308793	5.0.10.0	5_exp_noRW	60	Rpleas_acq	CS_B	VKKV	JXXJ	MQQM	BZZB	YDDY	GWWG	schön	ehrlich	retten	spielen	treu	fair	schlecht	eitel	rächen	strafen	tot	faul	47pct	acq_USunple_CSunple1_noRW	acq23456_noRW	2	65	0	0	300	300	706	46	0	1	1	blank2r.bmp	0	1	+	0	1	blank2r.bmp	252	1	MQQM	306	3	rächen	559	0	0	0	0	0	0	0	0	0	0	0	0	0	0	0	0	0	0	0	0	0	0	0	0	0	0	0	0	0	0	0	0	0	0	0	0	0	0	0
071719	10:00:41	10:05:52	310725	5.0.10.0	5_exp_noRW	60	Rpleas_acq	CS_B	VKKV	JXXJ	MQQM	BZZB	YDDY	GWWG	schön	ehrlich	retten	spielen	treu	fair	schlecht	eitel	rächen	strafen	tot	faul	47pct	acq_USunple_CSunple2_noRW	acq23456_noRW	2	66	0	0	300	300	768	46	0	1	1	blank2r.bmp	0	1	+	0	1	blank2r.bmp	252	1	BZZB	306	2	tot	559	0	0	0	0	0	0	0	0	0	0	0	0	0	0	0	0	0	0	0	0	0	0	0	0	0	0	0	0	0	0	0	0	0	0	0	0	0	0	0
071719	10:00:41	10:05:54	312325	5.0.10.0	5_exp_noRW	60	Rpleas_acq	CS_B	VKKV	JXXJ	MQQM	BZZB	YDDY	GWWG	schön	ehrlich	retten	spielen	treu	fair	schlecht	eitel	rächen	strafen	tot	faul	47pct	acq_USunple_CSpleas2_noRW	acq23456_noRW	2	67	0	0	300	300	432	46	0	1	1	blank2r.bmp	0	1	+	0	1	blank2r.bmp	252	1	JXXJ	306	2	tot	559	0	0	0	0	0	0	0	0	0	0	0	0	0	0	0	0	0	0	0	0	0	0	0	0	0	0	0	0	0	0	0	0	0	0	0	0	0	0	0
071719	10:00:41	10:05:56	313951	5.0.10.0	5_exp_noRW	60	Rpleas_acq	CS_B	VKKV	JXXJ	MQQM	BZZB	YDDY	GWWG	schön	ehrlich	retten	spielen	treu	fair	schlecht	eitel	rächen	strafen	tot	faul	47pct	acq_USpleas_CSpleas2_noRW	acq23456_noRW	2	68	0	0	300	300	440	50	0	1	1	blank2r.bmp	0	1	+	0	1	blank2r.bmp	252	1	JXXJ	306	3	fair	559	0	0	0	0	0	0	0	0	0	0	0	0	0	0	0	0	0	0	0	0	0	0	0	0	0	0	0	0	0	0	0	0	0	0	0	0	0	0	0
071719	10:00:41	10:05:57	315830	5.0.10.0	5_exp_noRW	60	Rpleas_acq	CS_B	VKKV	JXXJ	MQQM	BZZB	YDDY	GWWG	schön	ehrlich	retten	spielen	treu	fair	schlecht	eitel	rächen	strafen	tot	faul	47pct	acq_USpleas_CSunple2_noRW	acq23456_noRW	2	69	0	0	300	300	695	50	0	1	1	blank2r.bmp	0	1	+	0	1	blank2r.bmp	252	1	BZZB	306	2	treu	559	0	0	0	0	0	0	0	0	0	0	0	0	0	0	0	0	0	0	0	0	0	0	0	0	0	0	0	0	0	0	0	0	0	0	0	0	0	0	0
071719	10:00:41	10:05:59	317549	5.0.10.0	5_exp_noRW	60	Rpleas_acq	CS_B	VKKV	JXXJ	MQQM	BZZB	YDDY	GWWG	schön	ehrlich	retten	spielen	treu	fair	schlecht	eitel	rächen	strafen	tot	faul	53pct	acq_USunple_CSunple2_noRW	acq23456_noRW	2	70	0	0	300	300	547	46	0	1	1	blank2r.bmp	0	1	+	0	1	blank2r.bmp	252	1	BZZB	306	1	strafen	559	0	0	0	0	0	0	0	0	0	0	0	0	0	0	0	0	0	0	0	0	0	0	0	0	0	0	0	0	0	0	0	0	0	0	0	0	0	0	0
071719	10:00:41	10:06:01	319722	5.0.10.0	5_exp_noRW	60	Rpleas_acq	CS_B	VKKV	JXXJ	MQQM	BZZB	YDDY	GWWG	schön	ehrlich	retten	spielen	treu	fair	schlecht	eitel	rächen	strafen	tot	faul	53pct	acq_USunple_CSpleas1_noRW	acq23456_noRW	2	71	0	0	300	300	1008	46	0	1	1	blank2r.bmp	0	1	+	0	1	blank2r.bmp	252	1	VKKV	306	2	eitel	559	0	0	0	0	0	0	0	0	0	0	0	0	0	0	0	0	0	0	0	0	0	0	0	0	0	0	0	0	0	0	0	0	0	0	0	0	0	0	0
071719	10:00:41	10:06:03	321681	5.0.10.0	5_exp_noRW	60	Rpleas_acq	CS_B	VKKV	JXXJ	MQQM	BZZB	YDDY	GWWG	schön	ehrlich	retten	spielen	treu	fair	schlecht	eitel	rächen	strafen	tot	faul	53pct	acq_USunple_CSunple1_noRW	acq23456_noRW	2	72	0	0	300	300	780	46	0	1	1	blank2r.bmp	0	1	+	0	1	blank2r.bmp	252	1	MQQM	306	1	schlecht	559	0	0	0	0	0	0	0	0	0	0	0	0	0	0	0	0	0	0	0	0	0	0	0	0	0	0	0	0	0	0	0	0	0	0	0	0	0	0	0
071719	10:00:41	10:06:05	323360	5.0.10.0	5_exp_noRW	60	Rpleas_acq	CS_B	VKKV	JXXJ	MQQM	BZZB	YDDY	GWWG	schön	ehrlich	retten	spielen	treu	fair	schlecht	eitel	rächen	strafen	tot	faul	53pct	acq_USunple_CSunple1_noRW	acq23456_noRW	2	73	0	0	300	300	504	46	0	1	1	blank2r.bmp	0	1	+	0	1	blank2r.bmp	252	1	MQQM	306	1	schlecht	559	0	0	0	0	0	0	0	0	0	0	0	0	0	0	0	0	0	0	0	0	0	0	0	0	0	0	0	0	0	0	0	0	0	0	0	0	0	0	0
071719	10:00:41	10:06:07	325266	5.0.10.0	5_exp_noRW	60	Rpleas_acq	CS_B	VKKV	JXXJ	MQQM	BZZB	YDDY	GWWG	schön	ehrlich	retten	spielen	treu	fair	schlecht	eitel	rächen	strafen	tot	faul	53pct	acq_USpleas_CSpleas1_noRW	acq23456_noRW	2	74	0	0	300	300	714	50	0	1	1	blank2r.bmp	0	1	+	0	1	blank2r.bmp	252	1	VKKV	306	1	schön	559	0	0	0	0	0	0	0	0	0	0	0	0	0	0	0	0	0	0	0	0	0	0	0	0	0	0	0	0	0	0	0	0	0	0	0	0	0	0	0
071719	10:00:41	10:06:09	327452	5.0.10.0	5_exp_noRW	60	Rpleas_acq	CS_B	VKKV	JXXJ	MQQM	BZZB	YDDY	GWWG	schön	ehrlich	retten	spielen	treu	fair	schlecht	eitel	rächen	strafen	tot	faul	47pct	acq_USunple_CSunple2_noRW	acq23456_noRW	2	75	0	0	300	300	1000	46	0	1	1	blank2r.bmp	0	1	+	0	1	blank2r.bmp	252	1	BZZB	306	3	faul	559	0	0	0	0	0	0	0	0	0	0	0	0	0	0	0	0	0	0	0	0	0	0	0	0	0	0	0	0	0	0	0	0	0	0	0	0	0	0	0
071719	10:00:41	10:06:11	329411	5.0.10.0	5_exp_noRW	60	Rpleas_acq	CS_B	VKKV	JXXJ	MQQM	BZZB	YDDY	GWWG	schön	ehrlich	retten	spielen	treu	fair	schlecht	eitel	rächen	strafen	tot	faul	47pct	acq_USpleas_CSpleas1_noRW	acq23456_noRW	2	76	0	0	300	300	790	50	0	1	1	blank2r.bmp	0	1	+	0	1	blank2r.bmp	252	1	VKKV	306	3	retten	559	0	0	0	0	0	0	0	0	0	0	0	0	0	0	0	0	0	0	0	0	0	0	0	0	0	0	0	0	0	0	0	0	0	0	0	0	0	0	0
071719	10:00:41	10:06:13	331237	5.0.10.0	5_exp_noRW	60	Rpleas_acq	CS_B	VKKV	JXXJ	MQQM	BZZB	YDDY	GWWG	schön	ehrlich	retten	spielen	treu	fair	schlecht	eitel	rächen	strafen	tot	faul	47pct	acq_USunple_CSunple1_noRW	acq23456_noRW	2	77	0	0	300	300	665	46	0	1	1	blank2r.bmp	0	1	+	0	1	blank2r.bmp	252	1	MQQM	306	2	eitel	559	0	0	0	0	0	0	0	0	0	0	0	0	0	0	0	0	0	0	0	0	0	0	0	0	0	0	0	0	0	0	0	0	0	0	0	0	0	0	0
071719	10:00:41	10:06:15	333369	5.0.10.0	5_exp_noRW	60	Rpleas_acq	CS_B	VKKV	JXXJ	MQQM	BZZB	YDDY	GWWG	schön	ehrlich	retten	spielen	treu	fair	schlecht	eitel	rächen	strafen	tot	faul	47pct	acq_USunple_CSunple2_noRW	acq23456_noRW	2	78	0	0	300	300	934	46	0	1	1	blank2r.bmp	0	1	+	0	1	blank2r.bmp	252	1	BZZB	306	1	strafen	559	0	0	0	0	0	0	0	0	0	0	0	0	0	0	0	0	0	0	0	0	0	0	0	0	0	0	0	0	0	0	0	0	0	0	0	0	0	0	0
071719	10:00:41	10:06:17	335368	5.0.10.0	5_exp_noRW	60	Rpleas_acq	CS_B	VKKV	JXXJ	MQQM	BZZB	YDDY	GWWG	schön	ehrlich	retten	spielen	treu	fair	schlecht	eitel	rächen	strafen	tot	faul	53pct	acq_USpleas_CSpleas1_noRW	acq23456_noRW	2	79	0	0	300	300	818	50	0	1	1	blank2r.bmp	0	1	+	0	1	blank2r.bmp	252	1	VKKV	306	2	ehrlich	559	0	0	0	0	0	0	0	0	0	0	0	0	0	0	0	0	0	0	0	0	0	0	0	0	0	0	0	0	0	0	0	0	0	0	0	0	0	0	0
071719	10:00:41	10:06:19	337714	5.0.10.0	5_exp_noRW	60	Rpleas_acq	CS_B	VKKV	JXXJ	MQQM	BZZB	YDDY	GWWG	schön	ehrlich	retten	spielen	treu	fair	schlecht	eitel	rächen	strafen	tot	faul	47pct	acq_USpleas_CSpleas2_noRW	acq23456_noRW	2	80	0	0	300	300	1167	50	0	1	1	blank2r.bmp	0	1	+	0	1	blank2r.bmp	252	1	JXXJ	306	1	spielen	559	0	0	0	0	0	0	0	0	0	0	0	0	0	0	0	0	0	0	0	0	0	0	0	0	0	0	0	0	0	0	0	0	0	0	0	0	0	0	0
071719	10:00:41	10:06:35	353214	5.0.10.0	5_exp_noRW	60	Rpleas_acq	CS_B	VKKV	JXXJ	MQQM	BZZB	YDDY	GWWG	schön	ehrlich	retten	spielen	treu	fair	schlecht	eitel	rächen	strafen	tot	faul	53pct	acq_USpleas_CSpleas1_noRW	acq23456_noRW	3	1	0	0	300	300	650	50	0	1	1	blank2r.bmp	0	1	+	0	1	blank2r.bmp	252	1	VKKV	306	1	schön	559	0	0	0	0	0	0	0	0	0	0	0	0	0	0	0	0	0	0	0	0	0	0	0	0	0	0	0	0	0	0	0	0	0	0	0	0	0	0	0
071719	10:00:41	10:06:39	356920	5.0.10.0	5_exp_noRW	60	Rpleas_acq	CS_B	VKKV	JXXJ	MQQM	BZZB	YDDY	GWWG	schön	ehrlich	retten	spielen	treu	fair	schlecht	eitel	rächen	strafen	tot	faul	47pct	acq_USunple_CSunple2_noRW	acq23456_noRW	3	2	0	0	300	300	2000	0	0	0	1	blank2r.bmp	0	1	+	0	1	blank2r.bmp	252	1	BZZB	306	2	tot	559	1	FEHLER	2598	1	Schneller!	2598	0	0	0	0	0	0	0	0	0	0	0	0	0	0	0	0	0	0	0	0	0	0	0	0	0	0	0	0	0	0	0	0	0
071719	10:00:41	10:06:41	359159	5.0.10.0	5_exp_noRW	60	Rpleas_acq	CS_B	VKKV	JXXJ	MQQM	BZZB	YDDY	GWWG	schön	ehrlich	retten	spielen	treu	fair	schlecht	eitel	rächen	strafen	tot	faul	53pct	acq_USpleas_CSunple1_noRW	acq23456_noRW	3	3	0	0	300	300	1130	46	0	0	1	blank2r.bmp	0	1	+	0	1	blank2r.bmp	252	1	MQQM	306	3	retten	559	1	FEHLER	1719	0	0	0	0	0	0	0	0	0	0	0	0	0	0	0	0	0	0	0	0	0	0	0	0	0	0	0	0	0	0	0	0	0	0	0	0
071719	10:00:41	10:06:43	361091	5.0.10.0	5_exp_noRW	60	Rpleas_acq	CS_B	VKKV	JXXJ	MQQM	BZZB	YDDY	GWWG	schön	ehrlich	retten	spielen	treu	fair	schlecht	eitel	rächen	strafen	tot	faul	47pct	acq_USpleas_CSpleas2_noRW	acq23456_noRW	3	4	0	0	300	300	969	50	0	1	1	blank2r.bmp	0	1	+	0	1	blank2r.bmp	252	1	JXXJ	306	2	treu	559	0	0	0	0	0	0	0	0	0	0	0	0	0	0	0	0	0	0	0	0	0	0	0	0	0	0	0	0	0	0	0	0	0	0	0	0	0	0	0
071719	10:00:41	10:06:44	362811	5.0.10.0	5_exp_noRW	60	Rpleas_acq	CS_B	VKKV	JXXJ	MQQM	BZZB	YDDY	GWWG	schön	ehrlich	retten	spielen	treu	fair	schlecht	eitel	rächen	strafen	tot	faul	47pct	acq_USpleas_CSpleas2_noRW	acq23456_noRW	3	5	0	0	300	300	542	50	0	1	1	blank2r.bmp	0	1	+	0	1	blank2r.bmp	252	1	JXXJ	306	3	fair	559	0	0	0	0	0	0	0	0	0	0	0	0	0	0	0	0	0	0	0	0	0	0	0	0	0	0	0	0	0	0	0	0	0	0	0	0	0	0	0
071719	10:00:41	10:06:46	364517	5.0.10.0	5_exp_noRW	60	Rpleas_acq	CS_B	VKKV	JXXJ	MQQM	BZZB	YDDY	GWWG	schön	ehrlich	retten	spielen	treu	fair	schlecht	eitel	rächen	strafen	tot	faul	53pct	acq_USpleas_CSpleas1_noRW	acq23456_noRW	3	6	0	0	300	300	537	50	0	1	1	blank2r.bmp	0	1	+	0	1	blank2r.bmp	252	1	VKKV	306	1	schön	559	0	0	0	0	0	0	0	0	0	0	0	0	0	0	0	0	0	0	0	0	0	0	0	0	0	0	0	0	0	0	0	0	0	0	0	0	0	0	0
071719	10:00:41	10:06:48	366476	5.0.10.0	5_exp_noRW	60	Rpleas_acq	CS_B	VKKV	JXXJ	MQQM	BZZB	YDDY	GWWG	schön	ehrlich	retten	spielen	treu	fair	schlecht	eitel	rächen	strafen	tot	faul	47pct	acq_USunple_CSpleas2_noRW	acq23456_noRW	3	7	0	0	300	300	794	46	0	1	1	blank2r.bmp	0	1	+	0	1	blank2r.bmp	252	1	JXXJ	306	3	faul	559	0	0	0	0	0	0	0	0	0	0	0	0	0	0	0	0	0	0	0	0	0	0	0	0	0	0	0	0	0	0	0	0	0	0	0	0	0	0	0
071719	10:00:41	10:06:50	368315	5.0.10.0	5_exp_noRW	60	Rpleas_acq	CS_B	VKKV	JXXJ	MQQM	BZZB	YDDY	GWWG	schön	ehrlich	retten	spielen	treu	fair	schlecht	eitel	rächen	strafen	tot	faul	53pct	acq_USunple_CSunple2_noRW	acq23456_noRW	3	8	0	0	300	300	663	46	0	1	1	blank2r.bmp	0	1	+	0	1	blank2r.bmp	252	1	BZZB	306	2	tot	559	0	0	0	0	0	0	0	0	0	0	0	0	0	0	0	0	0	0	0	0	0	0	0	0	0	0	0	0	0	0	0	0	0	0	0	0	0	0	0
071719	10:00:41	10:06:52	370008	5.0.10.0	5_exp_noRW	60	Rpleas_acq	CS_B	VKKV	JXXJ	MQQM	BZZB	YDDY	GWWG	schön	ehrlich	retten	spielen	treu	fair	schlecht	eitel	rächen	strafen	tot	faul	53pct	acq_USunple_CSpleas1_noRW	acq23456_noRW	3	9	0	0	300	300	515	46	0	1	1	blank2r.bmp	0	1	+	0	1	blank2r.bmp	252	1	VKKV	306	3	rächen	559	0	0	0	0	0	0	0	0	0	0	0	0	0	0	0	0	0	0	0	0	0	0	0	0	0	0	0	0	0	0	0	0	0	0	0	0	0	0	0
071719	10:00:41	10:06:53	371727	5.0.10.0	5_exp_noRW	60	Rpleas_acq	CS_B	VKKV	JXXJ	MQQM	BZZB	YDDY	GWWG	schön	ehrlich	retten	spielen	treu	fair	schlecht	eitel	rächen	strafen	tot	faul	47pct	acq_USpleas_CSpleas2_noRW	acq23456_noRW	3	10	0	0	300	300	536	50	0	1	1	blank2r.bmp	0	1	+	0	1	blank2r.bmp	252	1	JXXJ	306	1	spielen	559	0	0	0	0	0	0	0	0	0	0	0	0	0	0	0	0	0	0	0	0	0	0	0	0	0	0	0	0	0	0	0	0	0	0	0	0	0	0	0
071719	10:00:41	10:06:55	373553	5.0.10.0	5_exp_noRW	60	Rpleas_acq	CS_B	VKKV	JXXJ	MQQM	BZZB	YDDY	GWWG	schön	ehrlich	retten	spielen	treu	fair	schlecht	eitel	rächen	strafen	tot	faul	53pct	acq_USpleas_CSunple2_noRW	acq23456_noRW	3	11	0	0	300	300	640	50	0	1	1	blank2r.bmp	0	1	+	0	1	blank2r.bmp	252	1	BZZB	306	3	fair	559	0	0	0	0	0	0	0	0	0	0	0	0	0	0	0	0	0	0	0	0	0	0	0	0	0	0	0	0	0	0	0	0	0	0	0	0	0	0	0
071719	10:00:41	10:06:57	375179	5.0.10.0	5_exp_noRW	60	Rpleas_acq	CS_B	VKKV	JXXJ	MQQM	BZZB	YDDY	GWWG	schön	ehrlich	retten	spielen	treu	fair	schlecht	eitel	rächen	strafen	tot	faul	47pct	acq_USpleas_CSpleas2_noRW	acq23456_noRW	3	12	0	0	300	300	453	50	0	1	1	blank2r.bmp	0	1	+	0	1	blank2r.bmp	252	1	JXXJ	306	2	treu	559	0	0	0	0	0	0	0	0	0	0	0	0	0	0	0	0	0	0	0	0	0	0	0	0	0	0	0	0	0	0	0	0	0	0	0	0	0	0	0
071719	10:00:41	10:06:59	376925	5.0.10.0	5_exp_noRW	60	Rpleas_acq	CS_B	VKKV	JXXJ	MQQM	BZZB	YDDY	GWWG	schön	ehrlich	retten	spielen	treu	fair	schlecht	eitel	rächen	strafen	tot	faul	53pct	acq_USunple_CSunple1_noRW	acq23456_noRW	3	13	0	0	300	300	567	46	0	1	1	blank2r.bmp	0	1	+	0	1	blank2r.bmp	252	1	MQQM	306	3	rächen	559	0	0	0	0	0	0	0	0	0	0	0	0	0	0	0	0	0	0	0	0	0	0	0	0	0	0	0	0	0	0	0	0	0	0	0	0	0	0	0
071719	10:00:41	10:07:00	378804	5.0.10.0	5_exp_noRW	60	Rpleas_acq	CS_B	VKKV	JXXJ	MQQM	BZZB	YDDY	GWWG	schön	ehrlich	retten	spielen	treu	fair	schlecht	eitel	rächen	strafen	tot	faul	47pct	acq_USpleas_CSpleas1_noRW	acq23456_noRW	3	14	0	0	300	300	693	50	0	1	1	blank2r.bmp	0	1	+	0	1	blank2r.bmp	252	1	VKKV	306	3	retten	559	0	0	0	0	0	0	0	0	0	0	0	0	0	0	0	0	0	0	0	0	0	0	0	0	0	0	0	0	0	0	0	0	0	0	0	0	0	0	0
071719	10:00:41	10:07:02	380790	5.0.10.0	5_exp_noRW	60	Rpleas_acq	CS_B	VKKV	JXXJ	MQQM	BZZB	YDDY	GWWG	schön	ehrlich	retten	spielen	treu	fair	schlecht	eitel	rächen	strafen	tot	faul	47pct	acq_USpleas_CSpleas1_noRW	acq23456_noRW	3	15	0	0	300	300	823	50	0	1	1	blank2r.bmp	0	1	+	0	1	blank2r.bmp	252	1	VKKV	306	2	ehrlich	559	0	0	0	0	0	0	0	0	0	0	0	0	0	0	0	0	0	0	0	0	0	0	0	0	0	0	0	0	0	0	0	0	0	0	0	0	0	0	0
071719	10:00:41	10:07:04	382642	5.0.10.0	5_exp_noRW	60	Rpleas_acq	CS_B	VKKV	JXXJ	MQQM	BZZB	YDDY	GWWG	schön	ehrlich	retten	spielen	treu	fair	schlecht	eitel	rächen	strafen	tot	faul	53pct	acq_USunple_CSunple2_noRW	acq23456_noRW	3	16	0	0	300	300	678	46	0	1	1	blank2r.bmp	0	1	+	0	1	blank2r.bmp	252	1	BZZB	306	3	faul	559	0	0	0	0	0	0	0	0	0	0	0	0	0	0	0	0	0	0	0	0	0	0	0	0	0	0	0	0	0	0	0	0	0	0	0	0	0	0	0
071719	10:00:41	10:07:06	384375	5.0.10.0	5_exp_noRW	60	Rpleas_acq	CS_B	VKKV	JXXJ	MQQM	BZZB	YDDY	GWWG	schön	ehrlich	retten	spielen	treu	fair	schlecht	eitel	rächen	strafen	tot	faul	47pct	acq_USunple_CSunple1_noRW	acq23456_noRW	3	17	0	0	300	300	555	46	0	1	1	blank2r.bmp	0	1	+	0	1	blank2r.bmp	252	1	MQQM	306	3	rächen	559	0	0	0	0	0	0	0	0	0	0	0	0	0	0	0	0	0	0	0	0	0	0	0	0	0	0	0	0	0	0	0	0	0	0	0	0	0	0	0
071719	10:00:41	10:07:08	386214	5.0.10.0	5_exp_noRW	60	Rpleas_acq	CS_B	VKKV	JXXJ	MQQM	BZZB	YDDY	GWWG	schön	ehrlich	retten	spielen	treu	fair	schlecht	eitel	rächen	strafen	tot	faul	53pct	acq_USunple_CSunple1_noRW	acq23456_noRW	3	18	0	0	300	300	659	46	0	1	1	blank2r.bmp	0	1	+	0	1	blank2r.bmp	252	1	MQQM	306	2	eitel	559	0	0	0	0	0	0	0	0	0	0	0	0	0	0	0	0	0	0	0	0	0	0	0	0	0	0	0	0	0	0	0	0	0	0	0	0	0	0	0
071719	10:00:41	10:07:10	388174	5.0.10.0	5_exp_noRW	60	Rpleas_acq	CS_B	VKKV	JXXJ	MQQM	BZZB	YDDY	GWWG	schön	ehrlich	retten	spielen	treu	fair	schlecht	eitel	rächen	strafen	tot	faul	47pct	acq_USunple_CSunple1_noRW	acq23456_noRW	3	19	0	0	300	300	786	46	0	1	1	blank2r.bmp	0	1	+	0	1	blank2r.bmp	252	1	MQQM	306	1	schlecht	559	0	0	0	0	0	0	0	0	0	0	0	0	0	0	0	0	0	0	0	0	0	0	0	0	0	0	0	0	0	0	0	0	0	0	0	0	0	0	0
071719	10:00:41	10:07:12	389879	5.0.10.0	5_exp_noRW	60	Rpleas_acq	CS_B	VKKV	JXXJ	MQQM	BZZB	YDDY	GWWG	schön	ehrlich	retten	spielen	treu	fair	schlecht	eitel	rächen	strafen	tot	faul	47pct	acq_USunple_CSunple2_noRW	acq23456_noRW	3	20	0	0	300	300	527	46	0	1	1	blank2r.bmp	0	1	+	0	1	blank2r.bmp	252	1	BZZB	306	1	strafen	559	0	0	0	0	0	0	0	0	0	0	0	0	0	0	0	0	0	0	0	0	0	0	0	0	0	0	0	0	0	0	0	0	0	0	0	0	0	0	0
071719	10:00:41	10:07:13	391599	5.0.10.0	5_exp_noRW	60	Rpleas_acq	CS_B	VKKV	JXXJ	MQQM	BZZB	YDDY	GWWG	schön	ehrlich	retten	spielen	treu	fair	schlecht	eitel	rächen	strafen	tot	faul	47pct	acq_USpleas_CSpleas2_noRW	acq23456_noRW	3	21	0	0	300	300	558	50	0	1	1	blank2r.bmp	0	1	+	0	1	blank2r.bmp	252	1	JXXJ	306	3	fair	559	0	0	0	0	0	0	0	0	0	0	0	0	0	0	0	0	0	0	0	0	0	0	0	0	0	0	0	0	0	0	0	0	0	0	0	0	0	0	0
071719	10:00:41	10:07:15	393331	5.0.10.0	5_exp_noRW	60	Rpleas_acq	CS_B	VKKV	JXXJ	MQQM	BZZB	YDDY	GWWG	schön	ehrlich	retten	spielen	treu	fair	schlecht	eitel	rächen	strafen	tot	faul	53pct	acq_USunple_CSpleas2_noRW	acq23456_noRW	3	22	0	0	300	300	545	46	0	1	1	blank2r.bmp	0	1	+	0	1	blank2r.bmp	252	1	JXXJ	306	1	strafen	559	0	0	0	0	0	0	0	0	0	0	0	0	0	0	0	0	0	0	0	0	0	0	0	0	0	0	0	0	0	0	0	0	0	0	0	0	0	0	0
071719	10:00:41	10:07:17	395371	5.0.10.0	5_exp_noRW	60	Rpleas_acq	CS_B	VKKV	JXXJ	MQQM	BZZB	YDDY	GWWG	schön	ehrlich	retten	spielen	treu	fair	schlecht	eitel	rächen	strafen	tot	faul	53pct	acq_USpleas_CSpleas2_noRW	acq23456_noRW	3	23	0	0	300	300	659	46	0	0	1	blank2r.bmp	0	1	+	0	1	blank2r.bmp	252	1	JXXJ	306	2	treu	559	1	FEHLER	1252	0	0	0	0	0	0	0	0	0	0	0	0	0	0	0	0	0	0	0	0	0	0	0	0	0	0	0	0	0	0	0	0	0	0	0	0
071719	10:00:41	10:07:19	396970	5.0.10.0	5_exp_noRW	60	Rpleas_acq	CS_B	VKKV	JXXJ	MQQM	BZZB	YDDY	GWWG	schön	ehrlich	retten	spielen	treu	fair	schlecht	eitel	rächen	strafen	tot	faul	53pct	acq_USpleas_CSpleas1_noRW	acq23456_noRW	3	24	0	0	300	300	630	50	0	1	1	blank2r.bmp	0	1	+	0	1	blank2r.bmp	252	1	VKKV	306	1	schön	559	0	0	0	0	0	0	0	0	0	0	0	0	0	0	0	0	0	0	0	0	0	0	0	0	0	0	0	0	0	0	0	0	0	0	0	0	0	0	0
071719	10:00:41	10:07:20	398663	5.0.10.0	5_exp_noRW	60	Rpleas_acq	CS_B	VKKV	JXXJ	MQQM	BZZB	YDDY	GWWG	schön	ehrlich	retten	spielen	treu	fair	schlecht	eitel	rächen	strafen	tot	faul	47pct	acq_USunple_CSunple1_noRW	acq23456_noRW	3	25	0	0	300	300	514	46	0	1	1	blank2r.bmp	0	1	+	0	1	blank2r.bmp	252	1	MQQM	306	1	schlecht	559	0	0	0	0	0	0	0	0	0	0	0	0	0	0	0	0	0	0	0	0	0	0	0	0	0	0	0	0	0	0	0	0	0	0	0	0	0	0	0
071719	10:00:41	10:07:23	400902	5.0.10.0	5_exp_noRW	60	Rpleas_acq	CS_B	VKKV	JXXJ	MQQM	BZZB	YDDY	GWWG	schön	ehrlich	retten	spielen	treu	fair	schlecht	eitel	rächen	strafen	tot	faul	53pct	acq_USpleas_CSpleas1_noRW	acq23456_noRW	3	26	0	0	300	300	1052	50	0	1	1	blank2r.bmp	0	1	+	0	1	blank2r.bmp	252	1	VKKV	306	3	retten	559	0	0	0	0	0	0	0	0	0	0	0	0	0	0	0	0	0	0	0	0	0	0	0	0	0	0	0	0	0	0	0	0	0	0	0	0	0	0	0
071719	10:00:41	10:07:25	403061	5.0.10.0	5_exp_noRW	60	Rpleas_acq	CS_B	VKKV	JXXJ	MQQM	BZZB	YDDY	GWWG	schön	ehrlich	retten	spielen	treu	fair	schlecht	eitel	rächen	strafen	tot	faul	53pct	acq_USpleas_CSpleas2_noRW	acq23456_noRW	3	27	0	0	300	300	994	50	0	1	1	blank2r.bmp	0	1	+	0	1	blank2r.bmp	252	1	JXXJ	306	1	spielen	559	0	0	0	0	0	0	0	0	0	0	0	0	0	0	0	0	0	0	0	0	0	0	0	0	0	0	0	0	0	0	0	0	0	0	0	0	0	0	0
071719	10:00:41	10:07:27	405140	5.0.10.0	5_exp_noRW	60	Rpleas_acq	CS_B	VKKV	JXXJ	MQQM	BZZB	YDDY	GWWG	schön	ehrlich	retten	spielen	treu	fair	schlecht	eitel	rächen	strafen	tot	faul	53pct	acq_USunple_CSunple1_noRW	acq23456_noRW	3	28	0	0	300	300	702	50	0	0	1	blank2r.bmp	0	1	+	0	1	blank2r.bmp	252	1	MQQM	306	2	eitel	559	1	FEHLER	1292	0	0	0	0	0	0	0	0	0	0	0	0	0	0	0	0	0	0	0	0	0	0	0	0	0	0	0	0	0	0	0	0	0	0	0	0
071719	10:00:41	10:07:28	406806	5.0.10.0	5_exp_noRW	60	Rpleas_acq	CS_B	VKKV	JXXJ	MQQM	BZZB	YDDY	GWWG	schön	ehrlich	retten	spielen	treu	fair	schlecht	eitel	rächen	strafen	tot	faul	53pct	acq_USpleas_CSpleas2_noRW	acq23456_noRW	3	29	0	0	300	300	697	50	0	1	1	blank2r.bmp	0	1	+	0	1	blank2r.bmp	252	1	JXXJ	306	2	treu	559	0	0	0	0	0	0	0	0	0	0	0	0	0	0	0	0	0	0	0	0	0	0	0	0	0	0	0	0	0	0	0	0	0	0	0	0	0	0	0
071719	10:00:41	10:07:31	408938	5.0.10.0	5_exp_noRW	60	Rpleas_acq	CS_B	VKKV	JXXJ	MQQM	BZZB	YDDY	GWWG	schön	ehrlich	retten	spielen	treu	fair	schlecht	eitel	rächen	strafen	tot	faul	53pct	acq_USpleas_CSunple1_noRW	acq23456_noRW	3	30	0	0	300	300	754	46	0	0	1	blank2r.bmp	0	1	+	0	1	blank2r.bmp	252	1	MQQM	306	2	ehrlich	559	1	FEHLER	1346	0	0	0	0	0	0	0	0	0	0	0	0	0	0	0	0	0	0	0	0	0	0	0	0	0	0	0	0	0	0	0	0	0	0	0	0
071719	10:00:41	10:07:32	410644	5.0.10.0	5_exp_noRW	60	Rpleas_acq	CS_B	VKKV	JXXJ	MQQM	BZZB	YDDY	GWWG	schön	ehrlich	retten	spielen	treu	fair	schlecht	eitel	rächen	strafen	tot	faul	47pct	acq_USunple_CSunple1_noRW	acq23456_noRW	3	31	0	0	300	300	733	46	0	1	1	blank2r.bmp	0	1	+	0	1	blank2r.bmp	252	1	MQQM	306	3	rächen	559	0	0	0	0	0	0	0	0	0	0	0	0	0	0	0	0	0	0	0	0	0	0	0	0	0	0	0	0	0	0	0	0	0	0	0	0	0	0	0
071719	10:00:41	10:07:35	412937	5.0.10.0	5_exp_noRW	60	Rpleas_acq	CS_B	VKKV	JXXJ	MQQM	BZZB	YDDY	GWWG	schön	ehrlich	retten	spielen	treu	fair	schlecht	eitel	rächen	strafen	tot	faul	53pct	acq_USunple_CSunple2_noRW	acq23456_noRW	3	32	0	0	300	300	1124	46	0	1	1	blank2r.bmp	0	1	+	0	1	blank2r.bmp	252	1	BZZB	306	2	tot	559	0	0	0	0	0	0	0	0	0	0	0	0	0	0	0	0	0	0	0	0	0	0	0	0	0	0	0	0	0	0	0	0	0	0	0	0	0	0	0
071719	10:00:41	10:07:36	414603	5.0.10.0	5_exp_noRW	60	Rpleas_acq	CS_B	VKKV	JXXJ	MQQM	BZZB	YDDY	GWWG	schön	ehrlich	retten	spielen	treu	fair	schlecht	eitel	rächen	strafen	tot	faul	53pct	acq_USunple_CSunple2_noRW	acq23456_noRW	3	33	0	0	300	300	494	46	0	1	1	blank2r.bmp	0	1	+	0	1	blank2r.bmp	252	1	BZZB	306	3	faul	559	0	0	0	0	0	0	0	0	0	0	0	0	0	0	0	0	0	0	0	0	0	0	0	0	0	0	0	0	0	0	0	0	0	0	0	0	0	0	0
071719	10:00:41	10:07:38	416255	5.0.10.0	5_exp_noRW	60	Rpleas_acq	CS_B	VKKV	JXXJ	MQQM	BZZB	YDDY	GWWG	schön	ehrlich	retten	spielen	treu	fair	schlecht	eitel	rächen	strafen	tot	faul	53pct	acq_USunple_CSpleas1_noRW	acq23456_noRW	3	34	0	0	300	300	491	46	0	1	1	blank2r.bmp	0	1	+	0	1	blank2r.bmp	252	1	VKKV	306	2	eitel	559	0	0	0	0	0	0	0	0	0	0	0	0	0	0	0	0	0	0	0	0	0	0	0	0	0	0	0	0	0	0	0	0	0	0	0	0	0	0	0
071719	10:00:41	10:07:40	417895	5.0.10.0	5_exp_noRW	60	Rpleas_acq	CS_B	VKKV	JXXJ	MQQM	BZZB	YDDY	GWWG	schön	ehrlich	retten	spielen	treu	fair	schlecht	eitel	rächen	strafen	tot	faul	47pct	acq_USunple_CSunple1_noRW	acq23456_noRW	3	35	0	0	300	300	474	46	0	1	1	blank2r.bmp	0	1	+	0	1	blank2r.bmp	252	1	MQQM	306	2	eitel	559	0	0	0	0	0	0	0	0	0	0	0	0	0	0	0	0	0	0	0	0	0	0	0	0	0	0	0	0	0	0	0	0	0	0	0	0	0	0	0
071719	10:00:41	10:07:41	419614	5.0.10.0	5_exp_noRW	60	Rpleas_acq	CS_B	VKKV	JXXJ	MQQM	BZZB	YDDY	GWWG	schön	ehrlich	retten	spielen	treu	fair	schlecht	eitel	rächen	strafen	tot	faul	47pct	acq_USunple_CSunple2_noRW	acq23456_noRW	3	36	0	0	300	300	552	46	0	1	1	blank2r.bmp	0	1	+	0	1	blank2r.bmp	252	1	BZZB	306	1	strafen	559	0	0	0	0	0	0	0	0	0	0	0	0	0	0	0	0	0	0	0	0	0	0	0	0	0	0	0	0	0	0	0	0	0	0	0	0	0	0	0
071719	10:00:41	10:07:43	421213	5.0.10.0	5_exp_noRW	60	Rpleas_acq	CS_B	VKKV	JXXJ	MQQM	BZZB	YDDY	GWWG	schön	ehrlich	retten	spielen	treu	fair	schlecht	eitel	rächen	strafen	tot	faul	53pct	acq_USunple_CSunple2_noRW	acq23456_noRW	3	37	0	0	300	300	435	46	0	1	1	blank2r.bmp	0	1	+	0	1	blank2r.bmp	252	1	BZZB	306	3	faul	559	0	0	0	0	0	0	0	0	0	0	0	0	0	0	0	0	0	0	0	0	0	0	0	0	0	0	0	0	0	0	0	0	0	0	0	0	0	0	0
071719	10:00:41	10:07:45	423092	5.0.10.0	5_exp_noRW	60	Rpleas_acq	CS_B	VKKV	JXXJ	MQQM	BZZB	YDDY	GWWG	schön	ehrlich	retten	spielen	treu	fair	schlecht	eitel	rächen	strafen	tot	faul	47pct	acq_USpleas_CSpleas1_noRW	acq23456_noRW	3	38	0	0	300	300	698	50	0	1	1	blank2r.bmp	0	1	+	0	1	blank2r.bmp	252	1	VKKV	306	2	ehrlich	559	0	0	0	0	0	0	0	0	0	0	0	0	0	0	0	0	0	0	0	0	0	0	0	0	0	0	0	0	0	0	0	0	0	0	0	0	0	0	0
071719	10:00:41	10:07:47	425012	5.0.10.0	5_exp_noRW	60	Rpleas_acq	CS_B	VKKV	JXXJ	MQQM	BZZB	YDDY	GWWG	schön	ehrlich	retten	spielen	treu	fair	schlecht	eitel	rächen	strafen	tot	faul	47pct	acq_USpleas_CSpleas1_noRW	acq23456_noRW	3	39	0	0	300	300	746	50	0	1	1	blank2r.bmp	0	1	+	0	1	blank2r.bmp	252	1	VKKV	306	1	schön	559	0	0	0	0	0	0	0	0	0	0	0	0	0	0	0	0	0	0	0	0	0	0	0	0	0	0	0	0	0	0	0	0	0	0	0	0	0	0	0
071719	10:00:41	10:07:48	426731	5.0.10.0	5_exp_noRW	60	Rpleas_acq	CS_B	VKKV	JXXJ	MQQM	BZZB	YDDY	GWWG	schön	ehrlich	retten	spielen	treu	fair	schlecht	eitel	rächen	strafen	tot	faul	47pct	acq_USpleas_CSunple2_noRW	acq23456_noRW	3	40	0	0	300	300	545	50	0	1	1	blank2r.bmp	0	1	+	0	1	blank2r.bmp	252	1	BZZB	306	2	treu	559	0	0	0	0	0	0	0	0	0	0	0	0	0	0	0	0	0	0	0	0	0	0	0	0	0	0	0	0	0	0	0	0	0	0	0	0	0	0	0
071719	10:00:41	10:07:50	428357	5.0.10.0	5_exp_noRW	60	Rpleas_acq	CS_B	VKKV	JXXJ	MQQM	BZZB	YDDY	GWWG	schön	ehrlich	retten	spielen	treu	fair	schlecht	eitel	rächen	strafen	tot	faul	53pct	acq_USpleas_CSpleas2_noRW	acq23456_noRW	3	41	0	0	300	300	454	50	0	1	1	blank2r.bmp	0	1	+	0	1	blank2r.bmp	252	1	JXXJ	306	3	fair	559	0	0	0	0	0	0	0	0	0	0	0	0	0	0	0	0	0	0	0	0	0	0	0	0	0	0	0	0	0	0	0	0	0	0	0	0	0	0	0
071719	10:00:41	10:07:52	430076	5.0.10.0	5_exp_noRW	60	Rpleas_acq	CS_B	VKKV	JXXJ	MQQM	BZZB	YDDY	GWWG	schön	ehrlich	retten	spielen	treu	fair	schlecht	eitel	rächen	strafen	tot	faul	53pct	acq_USpleas_CSpleas2_noRW	acq23456_noRW	3	42	0	0	300	300	541	50	0	1	1	blank2r.bmp	0	1	+	0	1	blank2r.bmp	252	1	JXXJ	306	1	spielen	559	0	0	0	0	0	0	0	0	0	0	0	0	0	0	0	0	0	0	0	0	0	0	0	0	0	0	0	0	0	0	0	0	0	0	0	0	0	0	0
071719	10:00:41	10:07:53	431782	5.0.10.0	5_exp_noRW	60	Rpleas_acq	CS_B	VKKV	JXXJ	MQQM	BZZB	YDDY	GWWG	schön	ehrlich	retten	spielen	treu	fair	schlecht	eitel	rächen	strafen	tot	faul	47pct	acq_USunple_CSpleas2_noRW	acq23456_noRW	3	43	0	0	300	300	525	46	0	1	1	blank2r.bmp	0	1	+	0	1	blank2r.bmp	252	1	JXXJ	306	2	tot	559	0	0	0	0	0	0	0	0	0	0	0	0	0	0	0	0	0	0	0	0	0	0	0	0	0	0	0	0	0	0	0	0	0	0	0	0	0	0	0
071719	10:00:41	10:07:55	433608	5.0.10.0	5_exp_noRW	60	Rpleas_acq	CS_B	VKKV	JXXJ	MQQM	BZZB	YDDY	GWWG	schön	ehrlich	retten	spielen	treu	fair	schlecht	eitel	rächen	strafen	tot	faul	53pct	acq_USpleas_CSpleas2_noRW	acq23456_noRW	3	44	0	0	300	300	655	50	0	1	1	blank2r.bmp	0	1	+	0	1	blank2r.bmp	252	1	JXXJ	306	3	fair	559	0	0	0	0	0	0	0	0	0	0	0	0	0	0	0	0	0	0	0	0	0	0	0	0	0	0	0	0	0	0	0	0	0	0	0	0	0	0	0
071719	10:00:41	10:07:57	435714	5.0.10.0	5_exp_noRW	60	Rpleas_acq	CS_B	VKKV	JXXJ	MQQM	BZZB	YDDY	GWWG	schön	ehrlich	retten	spielen	treu	fair	schlecht	eitel	rächen	strafen	tot	faul	53pct	acq_USunple_CSunple1_noRW	acq23456_noRW	3	45	0	0	300	300	941	46	0	1	1	blank2r.bmp	0	1	+	0	1	blank2r.bmp	252	1	MQQM	306	1	schlecht	559	0	0	0	0	0	0	0	0	0	0	0	0	0	0	0	0	0	0	0	0	0	0	0	0	0	0	0	0	0	0	0	0	0	0	0	0	0	0	0
071719	10:00:41	10:07:59	437513	5.0.10.0	5_exp_noRW	60	Rpleas_acq	CS_B	VKKV	JXXJ	MQQM	BZZB	YDDY	GWWG	schön	ehrlich	retten	spielen	treu	fair	schlecht	eitel	rächen	strafen	tot	faul	47pct	acq_USpleas_CSpleas1_noRW	acq23456_noRW	3	46	0	0	300	300	615	50	0	1	1	blank2r.bmp	0	1	+	0	1	blank2r.bmp	252	1	VKKV	306	2	ehrlich	559	0	0	0	0	0	0	0	0	0	0	0	0	0	0	0	0	0	0	0	0	0	0	0	0	0	0	0	0	0	0	0	0	0	0	0	0	0	0	0
071719	10:00:41	10:08:01	439273	5.0.10.0	5_exp_noRW	60	Rpleas_acq	CS_B	VKKV	JXXJ	MQQM	BZZB	YDDY	GWWG	schön	ehrlich	retten	spielen	treu	fair	schlecht	eitel	rächen	strafen	tot	faul	47pct	acq_USunple_CSpleas1_noRW	acq23456_noRW	3	47	0	0	300	300	580	46	0	1	1	blank2r.bmp	0	1	+	0	1	blank2r.bmp	252	1	VKKV	306	3	rächen	559	0	0	0	0	0	0	0	0	0	0	0	0	0	0	0	0	0	0	0	0	0	0	0	0	0	0	0	0	0	0	0	0	0	0	0	0	0	0	0
071719	10:00:41	10:08:03	441005	5.0.10.0	5_exp_noRW	60	Rpleas_acq	CS_B	VKKV	JXXJ	MQQM	BZZB	YDDY	GWWG	schön	ehrlich	retten	spielen	treu	fair	schlecht	eitel	rächen	strafen	tot	faul	53pct	acq_USpleas_CSpleas1_noRW	acq23456_noRW	3	48	0	0	300	300	556	50	0	1	1	blank2r.bmp	0	1	+	0	1	blank2r.bmp	252	1	VKKV	306	3	retten	559	0	0	0	0	0	0	0	0	0	0	0	0	0	0	0	0	0	0	0	0	0	0	0	0	0	0	0	0	0	0	0	0	0	0	0	0	0	0	0
071719	10:00:41	10:08:05	443338	5.0.10.0	5_exp_noRW	60	Rpleas_acq	CS_B	VKKV	JXXJ	MQQM	BZZB	YDDY	GWWG	schön	ehrlich	retten	spielen	treu	fair	schlecht	eitel	rächen	strafen	tot	faul	53pct	acq_USpleas_CSpleas1_noRW	acq23456_noRW	3	49	0	0	300	300	1152	50	0	1	1	blank2r.bmp	0	1	+	0	1	blank2r.bmp	252	1	VKKV	306	1	schön	559	0	0	0	0	0	0	0	0	0	0	0	0	0	0	0	0	0	0	0	0	0	0	0	0	0	0	0	0	0	0	0	0	0	0	0	0	0	0	0
071719	10:00:41	10:08:07	444977	5.0.10.0	5_exp_noRW	60	Rpleas_acq	CS_B	VKKV	JXXJ	MQQM	BZZB	YDDY	GWWG	schön	ehrlich	retten	spielen	treu	fair	schlecht	eitel	rächen	strafen	tot	faul	47pct	acq_USunple_CSunple1_noRW	acq23456_noRW	3	50	0	0	300	300	475	46	0	1	1	blank2r.bmp	0	1	+	0	1	blank2r.bmp	252	1	MQQM	306	3	rächen	559	0	0	0	0	0	0	0	0	0	0	0	0	0	0	0	0	0	0	0	0	0	0	0	0	0	0	0	0	0	0	0	0	0	0	0	0	0	0	0
071719	10:00:41	10:08:08	446710	5.0.10.0	5_exp_noRW	60	Rpleas_acq	CS_B	VKKV	JXXJ	MQQM	BZZB	YDDY	GWWG	schön	ehrlich	retten	spielen	treu	fair	schlecht	eitel	rächen	strafen	tot	faul	47pct	acq_USpleas_CSpleas1_noRW	acq23456_noRW	3	51	0	0	300	300	567	50	0	1	1	blank2r.bmp	0	1	+	0	1	blank2r.bmp	252	1	VKKV	306	2	ehrlich	559	0	0	0	0	0	0	0	0	0	0	0	0	0	0	0	0	0	0	0	0	0	0	0	0	0	0	0	0	0	0	0	0	0	0	0	0	0	0	0
071719	10:00:41	10:08:10	448575	5.0.10.0	5_exp_noRW	60	Rpleas_acq	CS_B	VKKV	JXXJ	MQQM	BZZB	YDDY	GWWG	schön	ehrlich	retten	spielen	treu	fair	schlecht	eitel	rächen	strafen	tot	faul	53pct	acq_USunple_CSunple2_noRW	acq23456_noRW	3	52	0	0	300	300	697	46	0	1	1	blank2r.bmp	0	1	+	0	1	blank2r.bmp	252	1	BZZB	306	1	strafen	559	0	0	0	0	0	0	0	0	0	0	0	0	0	0	0	0	0	0	0	0	0	0	0	0	0	0	0	0	0	0	0	0	0	0	0	0	0	0	0
071719	10:00:41	10:08:12	450201	5.0.10.0	5_exp_noRW	60	Rpleas_acq	CS_B	VKKV	JXXJ	MQQM	BZZB	YDDY	GWWG	schön	ehrlich	retten	spielen	treu	fair	schlecht	eitel	rächen	strafen	tot	faul	47pct	acq_USunple_CSunple2_noRW	acq23456_noRW	3	53	0	0	300	300	441	46	0	1	1	blank2r.bmp	0	1	+	0	1	blank2r.bmp	252	1	BZZB	306	2	tot	559	0	0	0	0	0	0	0	0	0	0	0	0	0	0	0	0	0	0	0	0	0	0	0	0	0	0	0	0	0	0	0	0	0	0	0	0	0	0	0
071719	10:00:41	10:08:14	452241	5.0.10.0	5_exp_noRW	60	Rpleas_acq	CS_B	VKKV	JXXJ	MQQM	BZZB	YDDY	GWWG	schön	ehrlich	retten	spielen	treu	fair	schlecht	eitel	rächen	strafen	tot	faul	53pct	acq_USunple_CSunple1_noRW	acq23456_noRW	3	54	0	0	300	300	872	46	0	1	1	blank2r.bmp	0	1	+	0	1	blank2r.bmp	252	1	MQQM	306	1	schlecht	559	0	0	0	0	0	0	0	0	0	0	0	0	0	0	0	0	0	0	0	0	0	0	0	0	0	0	0	0	0	0	0	0	0	0	0	0	0	0	0
071719	10:00:41	10:08:16	454253	5.0.10.0	5_exp_noRW	60	Rpleas_acq	CS_B	VKKV	JXXJ	MQQM	BZZB	YDDY	GWWG	schön	ehrlich	retten	spielen	treu	fair	schlecht	eitel	rächen	strafen	tot	faul	47pct	acq_USpleas_CSpleas2_noRW	acq23456_noRW	3	55	0	0	300	300	825	50	0	1	1	blank2r.bmp	0	1	+	0	1	blank2r.bmp	252	1	JXXJ	306	2	treu	559	0	0	0	0	0	0	0	0	0	0	0	0	0	0	0	0	0	0	0	0	0	0	0	0	0	0	0	0	0	0	0	0	0	0	0	0	0	0	0
071719	10:00:41	10:08:18	456466	5.0.10.0	5_exp_noRW	60	Rpleas_acq	CS_B	VKKV	JXXJ	MQQM	BZZB	YDDY	GWWG	schön	ehrlich	retten	spielen	treu	fair	schlecht	eitel	rächen	strafen	tot	faul	47pct	acq_USunple_CSunple2_noRW	acq23456_noRW	3	56	0	0	300	300	1044	46	0	1	1	blank2r.bmp	0	1	+	0	1	blank2r.bmp	252	1	BZZB	306	3	faul	559	0	0	0	0	0	0	0	0	0	0	0	0	0	0	0	0	0	0	0	0	0	0	0	0	0	0	0	0	0	0	0	0	0	0	0	0	0	0	0
071719	10:00:41	10:08:20	458385	5.0.10.0	5_exp_noRW	60	Rpleas_acq	CS_B	VKKV	JXXJ	MQQM	BZZB	YDDY	GWWG	schön	ehrlich	retten	spielen	treu	fair	schlecht	eitel	rächen	strafen	tot	faul	47pct	acq_USpleas_CSunple1_noRW	acq23456_noRW	3	57	0	0	300	300	520	46	0	0	1	blank2r.bmp	0	1	+	0	1	blank2r.bmp	252	1	MQQM	306	3	retten	559	1	FEHLER	1119	0	0	0	0	0	0	0	0	0	0	0	0	0	0	0	0	0	0	0	0	0	0	0	0	0	0	0	0	0	0	0	0	0	0	0	0
071719	10:00:41	10:08:22	459891	5.0.10.0	5_exp_noRW	60	Rpleas_acq	CS_B	VKKV	JXXJ	MQQM	BZZB	YDDY	GWWG	schön	ehrlich	retten	spielen	treu	fair	schlecht	eitel	rächen	strafen	tot	faul	47pct	acq_USpleas_CSunple2_noRW	acq23456_noRW	3	58	0	0	300	300	542	50	0	1	1	blank2r.bmp	0	1	+	0	1	blank2r.bmp	252	1	BZZB	306	3	fair	559	0	0	0	0	0	0	0	0	0	0	0	0	0	0	0	0	0	0	0	0	0	0	0	0	0	0	0	0	0	0	0	0	0	0	0	0	0	0	0
071719	10:00:41	10:08:23	461637	5.0.10.0	5_exp_noRW	60	Rpleas_acq	CS_B	VKKV	JXXJ	MQQM	BZZB	YDDY	GWWG	schön	ehrlich	retten	spielen	treu	fair	schlecht	eitel	rächen	strafen	tot	faul	47pct	acq_USunple_CSunple1_noRW	acq23456_noRW	3	59	0	0	300	300	579	46	0	1	1	blank2r.bmp	0	1	+	0	1	blank2r.bmp	252	1	MQQM	306	3	rächen	559	0	0	0	0	0	0	0	0	0	0	0	0	0	0	0	0	0	0	0	0	0	0	0	0	0	0	0	0	0	0	0	0	0	0	0	0	0	0	0
071719	10:00:41	10:08:25	463463	5.0.10.0	5_exp_noRW	60	Rpleas_acq	CS_B	VKKV	JXXJ	MQQM	BZZB	YDDY	GWWG	schön	ehrlich	retten	spielen	treu	fair	schlecht	eitel	rächen	strafen	tot	faul	53pct	acq_USunple_CSunple2_noRW	acq23456_noRW	3	60	0	0	300	300	662	46	0	1	1	blank2r.bmp	0	1	+	0	1	blank2r.bmp	252	1	BZZB	306	2	tot	559	0	0	0	0	0	0	0	0	0	0	0	0	0	0	0	0	0	0	0	0	0	0	0	0	0	0	0	0	0	0	0	0	0	0	0	0	0	0	0
071719	10:00:41	10:08:27	465315	5.0.10.0	5_exp_noRW	60	Rpleas_acq	CS_B	VKKV	JXXJ	MQQM	BZZB	YDDY	GWWG	schön	ehrlich	retten	spielen	treu	fair	schlecht	eitel	rächen	strafen	tot	faul	47pct	acq_USunple_CSunple2_noRW	acq23456_noRW	3	61	0	0	300	300	661	46	0	1	1	blank2r.bmp	0	1	+	0	1	blank2r.bmp	252	1	BZZB	306	1	strafen	559	0	0	0	0	0	0	0	0	0	0	0	0	0	0	0	0	0	0	0	0	0	0	0	0	0	0	0	0	0	0	0	0	0	0	0	0	0	0	0
071719	10:00:41	10:08:29	467155	5.0.10.0	5_exp_noRW	60	Rpleas_acq	CS_B	VKKV	JXXJ	MQQM	BZZB	YDDY	GWWG	schön	ehrlich	retten	spielen	treu	fair	schlecht	eitel	rächen	strafen	tot	faul	53pct	acq_USpleas_CSpleas2_noRW	acq23456_noRW	3	62	0	0	300	300	662	50	0	1	1	blank2r.bmp	0	1	+	0	1	blank2r.bmp	252	1	JXXJ	306	1	spielen	559	0	0	0	0	0	0	0	0	0	0	0	0	0	0	0	0	0	0	0	0	0	0	0	0	0	0	0	0	0	0	0	0	0	0	0	0	0	0	0
071719	10:00:41	10:08:31	469060	5.0.10.0	5_exp_noRW	60	Rpleas_acq	CS_B	VKKV	JXXJ	MQQM	BZZB	YDDY	GWWG	schön	ehrlich	retten	spielen	treu	fair	schlecht	eitel	rächen	strafen	tot	faul	53pct	acq_USpleas_CSpleas1_noRW	acq23456_noRW	3	63	0	0	300	300	725	50	0	1	1	blank2r.bmp	0	1	+	0	1	blank2r.bmp	252	1	VKKV	306	3	retten	559	0	0	0	0	0	0	0	0	0	0	0	0	0	0	0	0	0	0	0	0	0	0	0	0	0	0	0	0	0	0	0	0	0	0	0	0	0	0	0
071719	10:00:41	10:08:32	470793	5.0.10.0	5_exp_noRW	60	Rpleas_acq	CS_B	VKKV	JXXJ	MQQM	BZZB	YDDY	GWWG	schön	ehrlich	retten	spielen	treu	fair	schlecht	eitel	rächen	strafen	tot	faul	47pct	acq_USpleas_CSpleas1_noRW	acq23456_noRW	3	64	0	0	300	300	555	50	0	1	1	blank2r.bmp	0	1	+	0	1	blank2r.bmp	252	1	VKKV	306	1	schön	559	0	0	0	0	0	0	0	0	0	0	0	0	0	0	0	0	0	0	0	0	0	0	0	0	0	0	0	0	0	0	0	0	0	0	0	0	0	0	0
071719	10:00:41	10:08:34	472566	5.0.10.0	5_exp_noRW	60	Rpleas_acq	CS_B	VKKV	JXXJ	MQQM	BZZB	YDDY	GWWG	schön	ehrlich	retten	spielen	treu	fair	schlecht	eitel	rächen	strafen	tot	faul	53pct	acq_USpleas_CSpleas2_noRW	acq23456_noRW	3	65	0	0	300	300	600	50	0	1	1	blank2r.bmp	0	1	+	0	1	blank2r.bmp	252	1	JXXJ	306	1	spielen	559	0	0	0	0	0	0	0	0	0	0	0	0	0	0	0	0	0	0	0	0	0	0	0	0	0	0	0	0	0	0	0	0	0	0	0	0	0	0	0
071719	10:00:41	10:08:36	474152	5.0.10.0	5_exp_noRW	60	Rpleas_acq	CS_B	VKKV	JXXJ	MQQM	BZZB	YDDY	GWWG	schön	ehrlich	retten	spielen	treu	fair	schlecht	eitel	rächen	strafen	tot	faul	47pct	acq_USpleas_CSunple2_noRW	acq23456_noRW	3	66	0	0	300	300	414	50	0	1	1	blank2r.bmp	0	1	+	0	1	blank2r.bmp	252	1	BZZB	306	1	spielen	559	0	0	0	0	0	0	0	0	0	0	0	0	0	0	0	0	0	0	0	0	0	0	0	0	0	0	0	0	0	0	0	0	0	0	0	0	0	0	0
071719	10:00:41	10:08:37	475858	5.0.10.0	5_exp_noRW	60	Rpleas_acq	CS_B	VKKV	JXXJ	MQQM	BZZB	YDDY	GWWG	schön	ehrlich	retten	spielen	treu	fair	schlecht	eitel	rächen	strafen	tot	faul	53pct	acq_USunple_CSpleas2_noRW	acq23456_noRW	3	67	0	0	300	300	536	46	0	1	1	blank2r.bmp	0	1	+	0	1	blank2r.bmp	252	1	JXXJ	306	3	faul	559	0	0	0	0	0	0	0	0	0	0	0	0	0	0	0	0	0	0	0	0	0	0	0	0	0	0	0	0	0	0	0	0	0	0	0	0	0	0	0
071719	10:00:41	10:08:39	477604	5.0.10.0	5_exp_noRW	60	Rpleas_acq	CS_B	VKKV	JXXJ	MQQM	BZZB	YDDY	GWWG	schön	ehrlich	retten	spielen	treu	fair	schlecht	eitel	rächen	strafen	tot	faul	47pct	acq_USpleas_CSunple1_noRW	acq23456_noRW	3	68	0	0	300	300	569	50	0	1	1	blank2r.bmp	0	1	+	0	1	blank2r.bmp	252	1	MQQM	306	1	schön	559	0	0	0	0	0	0	0	0	0	0	0	0	0	0	0	0	0	0	0	0	0	0	0	0	0	0	0	0	0	0	0	0	0	0	0	0	0	0	0
071719	10:00:41	10:08:41	479323	5.0.10.0	5_exp_noRW	60	Rpleas_acq	CS_B	VKKV	JXXJ	MQQM	BZZB	YDDY	GWWG	schön	ehrlich	retten	spielen	treu	fair	schlecht	eitel	rächen	strafen	tot	faul	47pct	acq_USunple_CSpleas1_noRW	acq23456_noRW	3	69	0	0	300	300	540	46	0	1	1	blank2r.bmp	0	1	+	0	1	blank2r.bmp	252	1	VKKV	306	1	schlecht	559	0	0	0	0	0	0	0	0	0	0	0	0	0	0	0	0	0	0	0	0	0	0	0	0	0	0	0	0	0	0	0	0	0	0	0	0	0	0	0
071719	10:00:41	10:08:43	481042	5.0.10.0	5_exp_noRW	60	Rpleas_acq	CS_B	VKKV	JXXJ	MQQM	BZZB	YDDY	GWWG	schön	ehrlich	retten	spielen	treu	fair	schlecht	eitel	rächen	strafen	tot	faul	47pct	acq_USpleas_CSpleas2_noRW	acq23456_noRW	3	70	0	0	300	300	543	50	0	1	1	blank2r.bmp	0	1	+	0	1	blank2r.bmp	252	1	JXXJ	306	3	fair	559	0	0	0	0	0	0	0	0	0	0	0	0	0	0	0	0	0	0	0	0	0	0	0	0	0	0	0	0	0	0	0	0	0	0	0	0	0	0	0
071719	10:00:41	10:08:44	482735	5.0.10.0	5_exp_noRW	60	Rpleas_acq	CS_B	VKKV	JXXJ	MQQM	BZZB	YDDY	GWWG	schön	ehrlich	retten	spielen	treu	fair	schlecht	eitel	rächen	strafen	tot	faul	53pct	acq_USpleas_CSpleas1_noRW	acq23456_noRW	3	71	0	0	300	300	530	50	0	1	1	blank2r.bmp	0	1	+	0	1	blank2r.bmp	252	1	VKKV	306	3	retten	559	0	0	0	0	0	0	0	0	0	0	0	0	0	0	0	0	0	0	0	0	0	0	0	0	0	0	0	0	0	0	0	0	0	0	0	0	0	0	0
071719	10:00:41	10:08:46	484467	5.0.10.0	5_exp_noRW	60	Rpleas_acq	CS_B	VKKV	JXXJ	MQQM	BZZB	YDDY	GWWG	schön	ehrlich	retten	spielen	treu	fair	schlecht	eitel	rächen	strafen	tot	faul	53pct	acq_USunple_CSunple2_noRW	acq23456_noRW	3	72	0	0	300	300	549	46	0	1	1	blank2r.bmp	0	1	+	0	1	blank2r.bmp	252	1	BZZB	306	2	tot	559	0	0	0	0	0	0	0	0	0	0	0	0	0	0	0	0	0	0	0	0	0	0	0	0	0	0	0	0	0	0	0	0	0	0	0	0	0	0	0
071719	10:00:41	10:08:48	486786	5.0.10.0	5_exp_noRW	60	Rpleas_acq	CS_B	VKKV	JXXJ	MQQM	BZZB	YDDY	GWWG	schön	ehrlich	retten	spielen	treu	fair	schlecht	eitel	rächen	strafen	tot	faul	47pct	acq_USunple_CSunple1_noRW	acq23456_noRW	3	73	0	0	300	300	1140	46	0	1	1	blank2r.bmp	0	1	+	0	1	blank2r.bmp	252	1	MQQM	306	2	eitel	559	0	0	0	0	0	0	0	0	0	0	0	0	0	0	0	0	0	0	0	0	0	0	0	0	0	0	0	0	0	0	0	0	0	0	0	0	0	0	0
071719	10:00:41	10:08:50	488626	5.0.10.0	5_exp_noRW	60	Rpleas_acq	CS_B	VKKV	JXXJ	MQQM	BZZB	YDDY	GWWG	schön	ehrlich	retten	spielen	treu	fair	schlecht	eitel	rächen	strafen	tot	faul	53pct	acq_USunple_CSunple2_noRW	acq23456_noRW	3	74	0	0	300	300	669	46	0	1	1	blank2r.bmp	0	1	+	0	1	blank2r.bmp	252	1	BZZB	306	1	strafen	559	0	0	0	0	0	0	0	0	0	0	0	0	0	0	0	0	0	0	0	0	0	0	0	0	0	0	0	0	0	0	0	0	0	0	0	0	0	0	0
071719	10:00:41	10:08:52	490345	5.0.10.0	5_exp_noRW	60	Rpleas_acq	CS_B	VKKV	JXXJ	MQQM	BZZB	YDDY	GWWG	schön	ehrlich	retten	spielen	treu	fair	schlecht	eitel	rächen	strafen	tot	faul	47pct	acq_USunple_CSunple2_noRW	acq23456_noRW	3	75	0	0	300	300	552	46	0	1	1	blank2r.bmp	0	1	+	0	1	blank2r.bmp	252	1	BZZB	306	3	faul	559	0	0	0	0	0	0	0	0	0	0	0	0	0	0	0	0	0	0	0	0	0	0	0	0	0	0	0	0	0	0	0	0	0	0	0	0	0	0	0
071719	10:00:41	10:08:54	492078	5.0.10.0	5_exp_noRW	60	Rpleas_acq	CS_B	VKKV	JXXJ	MQQM	BZZB	YDDY	GWWG	schön	ehrlich	retten	spielen	treu	fair	schlecht	eitel	rächen	strafen	tot	faul	53pct	acq_USpleas_CSpleas2_noRW	acq23456_noRW	3	76	0	0	300	300	569	50	0	1	1	blank2r.bmp	0	1	+	0	1	blank2r.bmp	252	1	JXXJ	306	2	treu	559	0	0	0	0	0	0	0	0	0	0	0	0	0	0	0	0	0	0	0	0	0	0	0	0	0	0	0	0	0	0	0	0	0	0	0	0	0	0	0
071719	10:00:41	10:08:56	493997	5.0.10.0	5_exp_noRW	60	Rpleas_acq	CS_B	VKKV	JXXJ	MQQM	BZZB	YDDY	GWWG	schön	ehrlich	retten	spielen	treu	fair	schlecht	eitel	rächen	strafen	tot	faul	53pct	acq_USunple_CSunple1_noRW	acq23456_noRW	3	77	0	0	300	300	740	46	0	1	1	blank2r.bmp	0	1	+	0	1	blank2r.bmp	252	1	MQQM	306	2	eitel	559	0	0	0	0	0	0	0	0	0	0	0	0	0	0	0	0	0	0	0	0	0	0	0	0	0	0	0	0	0	0	0	0	0	0	0	0	0	0	0
071719	10:00:41	10:08:57	495649	5.0.10.0	5_exp_noRW	60	Rpleas_acq	CS_B	VKKV	JXXJ	MQQM	BZZB	YDDY	GWWG	schön	ehrlich	retten	spielen	treu	fair	schlecht	eitel	rächen	strafen	tot	faul	47pct	acq_USunple_CSunple1_noRW	acq23456_noRW	3	78	0	0	300	300	470	46	0	1	1	blank2r.bmp	0	1	+	0	1	blank2r.bmp	252	1	MQQM	306	3	rächen	559	0	0	0	0	0	0	0	0	0	0	0	0	0	0	0	0	0	0	0	0	0	0	0	0	0	0	0	0	0	0	0	0	0	0	0	0	0	0	0
071719	10:00:41	10:08:59	497422	5.0.10.0	5_exp_noRW	60	Rpleas_acq	CS_B	VKKV	JXXJ	MQQM	BZZB	YDDY	GWWG	schön	ehrlich	retten	spielen	treu	fair	schlecht	eitel	rächen	strafen	tot	faul	53pct	acq_USpleas_CSpleas1_noRW	acq23456_noRW	3	79	0	0	300	300	598	50	0	1	1	blank2r.bmp	0	1	+	0	1	blank2r.bmp	252	1	VKKV	306	2	ehrlich	559	0	0	0	0	0	0	0	0	0	0	0	0	0	0	0	0	0	0	0	0	0	0	0	0	0	0	0	0	0	0	0	0	0	0	0	0	0	0	0
071719	10:00:41	10:09:01	499448	5.0.10.0	5_exp_noRW	60	Rpleas_acq	CS_B	VKKV	JXXJ	MQQM	BZZB	YDDY	GWWG	schön	ehrlich	retten	spielen	treu	fair	schlecht	eitel	rächen	strafen	tot	faul	47pct	acq_USunple_CSunple1_noRW	acq23456_noRW	3	80	0	0	300	300	852	46	0	1	1	blank2r.bmp	0	1	+	0	1	blank2r.bmp	252	1	MQQM	306	1	schlecht	559	0	0	0	0	0	0	0	0	0	0	0	0	0	0	0	0	0	0	0	0	0	0	0	0	0	0	0	0	0	0	0	0	0	0	0	0	0	0	0
071719	10:00:41	10:09:28	526024	5.0.10.0	5_exp_noRW	60	Rpleas_acq	CS_B	VKKV	JXXJ	MQQM	BZZB	YDDY	GWWG	schön	ehrlich	retten	spielen	treu	fair	schlecht	eitel	rächen	strafen	tot	faul	53pct	acq_USunple_CSunple2_noRW	acq23456_noRW	4	1	0	0	300	300	1186	46	0	1	1	blank2r.bmp	0	1	+	0	1	blank2r.bmp	252	1	BZZB	306	1	strafen	559	0	0	0	0	0	0	0	0	0	0	0	0	0	0	0	0	0	0	0	0	0	0	0	0	0	0	0	0	0	0	0	0	0	0	0	0	0	0	0
071719	10:00:41	10:09:29	527623	5.0.10.0	5_exp_noRW	60	Rpleas_acq	CS_B	VKKV	JXXJ	MQQM	BZZB	YDDY	GWWG	schön	ehrlich	retten	spielen	treu	fair	schlecht	eitel	rächen	strafen	tot	faul	47pct	acq_USunple_CSunple1_noRW	acq23456_noRW	4	2	0	0	300	300	436	46	0	1	1	blank2r.bmp	0	1	+	0	1	blank2r.bmp	252	1	MQQM	306	2	eitel	559	0	0	0	0	0	0	0	0	0	0	0	0	0	0	0	0	0	0	0	0	0	0	0	0	0	0	0	0	0	0	0	0	0	0	0	0	0	0	0
071719	10:00:41	10:09:31	529289	5.0.10.0	5_exp_noRW	60	Rpleas_acq	CS_B	VKKV	JXXJ	MQQM	BZZB	YDDY	GWWG	schön	ehrlich	retten	spielen	treu	fair	schlecht	eitel	rächen	strafen	tot	faul	53pct	acq_USunple_CSpleas2_noRW	acq23456_noRW	4	3	0	0	300	300	495	46	0	1	1	blank2r.bmp	0	1	+	0	1	blank2r.bmp	252	1	JXXJ	306	1	strafen	559	0	0	0	0	0	0	0	0	0	0	0	0	0	0	0	0	0	0	0	0	0	0	0	0	0	0	0	0	0	0	0	0	0	0	0	0	0	0	0
071719	10:00:41	10:09:33	531235	5.0.10.0	5_exp_noRW	60	Rpleas_acq	CS_B	VKKV	JXXJ	MQQM	BZZB	YDDY	GWWG	schön	ehrlich	retten	spielen	treu	fair	schlecht	eitel	rächen	strafen	tot	faul	47pct	acq_USpleas_CSunple1_noRW	acq23456_noRW	4	4	0	0	300	300	762	50	0	1	1	blank2r.bmp	0	1	+	0	1	blank2r.bmp	252	1	MQQM	306	3	retten	559	0	0	0	0	0	0	0	0	0	0	0	0	0	0	0	0	0	0	0	0	0	0	0	0	0	0	0	0	0	0	0	0	0	0	0	0	0	0	0
071719	10:00:41	10:09:35	532968	5.0.10.0	5_exp_noRW	60	Rpleas_acq	CS_B	VKKV	JXXJ	MQQM	BZZB	YDDY	GWWG	schön	ehrlich	retten	spielen	treu	fair	schlecht	eitel	rächen	strafen	tot	faul	47pct	acq_USunple_CSpleas1_noRW	acq23456_noRW	4	5	0	0	300	300	560	46	0	1	1	blank2r.bmp	0	1	+	0	1	blank2r.bmp	252	1	VKKV	306	3	rächen	559	0	0	0	0	0	0	0	0	0	0	0	0	0	0	0	0	0	0	0	0	0	0	0	0	0	0	0	0	0	0	0	0	0	0	0	0	0	0	0
071719	10:00:41	10:09:36	534727	5.0.10.0	5_exp_noRW	60	Rpleas_acq	CS_B	VKKV	JXXJ	MQQM	BZZB	YDDY	GWWG	schön	ehrlich	retten	spielen	treu	fair	schlecht	eitel	rächen	strafen	tot	faul	53pct	acq_USpleas_CSpleas1_noRW	acq23456_noRW	4	6	0	0	300	300	593	50	0	1	1	blank2r.bmp	0	1	+	0	1	blank2r.bmp	252	1	VKKV	306	2	ehrlich	559	0	0	0	0	0	0	0	0	0	0	0	0	0	0	0	0	0	0	0	0	0	0	0	0	0	0	0	0	0	0	0	0	0	0	0	0	0	0	0
071719	10:00:41	10:09:38	536539	5.0.10.0	5_exp_noRW	60	Rpleas_acq	CS_B	VKKV	JXXJ	MQQM	BZZB	YDDY	GWWG	schön	ehrlich	retten	spielen	treu	fair	schlecht	eitel	rächen	strafen	tot	faul	47pct	acq_USpleas_CSunple2_noRW	acq23456_noRW	4	7	0	0	300	300	631	50	0	1	1	blank2r.bmp	0	1	+	0	1	blank2r.bmp	252	1	BZZB	306	3	fair	559	0	0	0	0	0	0	0	0	0	0	0	0	0	0	0	0	0	0	0	0	0	0	0	0	0	0	0	0	0	0	0	0	0	0	0	0	0	0	0
071719	10:00:41	10:09:40	538165	5.0.10.0	5_exp_noRW	60	Rpleas_acq	CS_B	VKKV	JXXJ	MQQM	BZZB	YDDY	GWWG	schön	ehrlich	retten	spielen	treu	fair	schlecht	eitel	rächen	strafen	tot	faul	53pct	acq_USunple_CSunple2_noRW	acq23456_noRW	4	8	0	0	300	300	450	46	0	1	1	blank2r.bmp	0	1	+	0	1	blank2r.bmp	252	1	BZZB	306	2	tot	559	0	0	0	0	0	0	0	0	0	0	0	0	0	0	0	0	0	0	0	0	0	0	0	0	0	0	0	0	0	0	0	0	0	0	0	0	0	0	0
071719	10:00:41	10:09:41	539778	5.0.10.0	5_exp_noRW	60	Rpleas_acq	CS_B	VKKV	JXXJ	MQQM	BZZB	YDDY	GWWG	schön	ehrlich	retten	spielen	treu	fair	schlecht	eitel	rächen	strafen	tot	faul	53pct	acq_USunple_CSunple2_noRW	acq23456_noRW	4	9	0	0	300	300	434	46	0	1	1	blank2r.bmp	0	1	+	0	1	blank2r.bmp	252	1	BZZB	306	3	faul	559	0	0	0	0	0	0	0	0	0	0	0	0	0	0	0	0	0	0	0	0	0	0	0	0	0	0	0	0	0	0	0	0	0	0	0	0	0	0	0
