date	time	script.currenttime	script.elapsedtime	build	script.currentexpt	subject	expressions.LRpleas_acq	expressions.conditionCS_A	expressions.CSpleas_1	expressions.CSpleas_2	expressions.CSunple_1	expressions.CSunple_2	expressions.distractor_1	expressions.distractor_2	expressions.US_pleas1	expressions.US_pleas2	expressions.US_pleas3	expressions.US_pleas4	expressions.US_pleas5	expressions.US_pleas6	expressions.US_unple1	expressions.US_unple2	expressions.US_unple3	expressions.US_unple4	expressions.US_unple5	expressions.US_unple6	counter.positions_noRW	trialcode	blockcode	blocknum	trialnum	windowcenter	inwindow	pretrialpause	posttrialpause	latency	response	expressions.correctedscore	correct	stimulusnumber1	stimulusitem1	stimulusonset1	stimulusnumber2	stimulusitem2	stimulusonset2	stimulusnumber3	stimulusitem3	stimulusonset3	stimulusnumber4	stimulusitem4	stimulusonset4	stimulusnumber5	stimulusitem5	stimulusonset5	stimulusnumber6	stimulusitem6	stimulusonset6	stimulusnumber7	stimulusitem7	stimulusonset7	stimulusnumber8	stimulusitem8	stimulusonset8	stimulusnumber9	stimulusitem9	stimulusonset9	stimulusnumber10	stimulusitem10	stimulusonset10	stimulusnumber11	stimulusitem11	stimulusonset11	stimulusnumber12	stimulusitem12	stimulusonset12	stimulusnumber13	stimulusitem13	stimulusonset13	stimulusnumber14	stimulusitem14	stimulusonset14	stimulusnumber15	stimulusitem15	stimulusonset15	stimulusnumber16	stimulusitem16	stimulusonset16	stimulusnumber17	stimulusitem17	stimulusonset17	stimulusnumber18	stimulusitem18	stimulusonset18
070319	14:53:51	14:55:07	75768	5.0.10.0	5_exp_RW	15	Rpleas_acq	CS_B	VKKV	BZZB	GWWG	MQQM	YDDY	JXXJ	retten	treu	fair	schön	spielen	ehrlich	rächen	tot	faul	schlecht	strafen	eitel	1	acq_USpleas_CSpleas1_RW	acq1_RW	1	1	0	0	300	300	1356	50	0	1	1	blank2r.bmp	0	1	+	0	1	blank2r.bmp	492	1	VKKV	492	1	blank2r.bmp	572	1	retten	866	0	0	0	0	0	0	0	0	0	0	0	0	0	0	0	0	0	0	0	0	0	0	0	0	0	0	0	0	0	0	0	0	0	0	0	0
070319	14:53:51	14:55:10	78020	5.0.10.0	5_exp_RW	15	Rpleas_acq	CS_B	VKKV	BZZB	GWWG	MQQM	YDDY	JXXJ	retten	treu	fair	schön	spielen	ehrlich	rächen	tot	faul	schlecht	strafen	eitel	1	acq_USunple_CSunple2_RW	acq1_RW	1	2	0	0	300	300	761	46	0	1	1	blank2r.bmp	0	1	+	0	1	blank2r.bmp	492	1	MQQM	492	1	blank2r.bmp	572	2	strafen	866	0	0	0	0	0	0	0	0	0	0	0	0	0	0	0	0	0	0	0	0	0	0	0	0	0	0	0	0	0	0	0	0	0	0	0	0
070319	14:53:51	14:55:12	80272	5.0.10.0	5_exp_RW	15	Rpleas_acq	CS_B	VKKV	BZZB	GWWG	MQQM	YDDY	JXXJ	retten	treu	fair	schön	spielen	ehrlich	rächen	tot	faul	schlecht	strafen	eitel	1	acq_USunple_CSunple2_RW	acq1_RW	1	3	0	0	300	300	767	46	0	1	1	blank2r.bmp	0	1	+	0	1	blank2r.bmp	492	1	MQQM	492	1	blank2r.bmp	572	3	eitel	866	0	0	0	0	0	0	0	0	0	0	0	0	0	0	0	0	0	0	0	0	0	0	0	0	0	0	0	0	0	0	0	0	0	0	0	0
070319	14:53:51	14:55:14	82192	5.0.10.0	5_exp_RW	15	Rpleas_acq	CS_B	VKKV	BZZB	GWWG	MQQM	YDDY	JXXJ	retten	treu	fair	schön	spielen	ehrlich	rächen	tot	faul	schlecht	strafen	eitel	1	acq_USunple_CSunple1_RW	acq1_RW	1	4	0	0	300	300	427	46	0	1	1	blank2r.bmp	0	1	+	0	1	blank2r.bmp	492	1	GWWG	492	1	blank2r.bmp	572	2	tot	866	0	0	0	0	0	0	0	0	0	0	0	0	0	0	0	0	0	0	0	0	0	0	0	0	0	0	0	0	0	0	0	0	0	0	0	0
070319	14:53:51	14:55:16	84204	5.0.10.0	5_exp_RW	15	Rpleas_acq	CS_B	VKKV	BZZB	GWWG	MQQM	YDDY	JXXJ	retten	treu	fair	schön	spielen	ehrlich	rächen	tot	faul	schlecht	strafen	eitel	1	acq_USpleas_CSpleas2_RW	acq1_RW	1	5	0	0	300	300	531	50	0	1	1	blank2r.bmp	0	1	+	0	1	blank2r.bmp	492	1	BZZB	492	1	blank2r.bmp	572	3	ehrlich	866	0	0	0	0	0	0	0	0	0	0	0	0	0	0	0	0	0	0	0	0	0	0	0	0	0	0	0	0	0	0	0	0	0	0	0	0
070319	14:53:51	14:55:18	86137	5.0.10.0	5_exp_RW	15	Rpleas_acq	CS_B	VKKV	BZZB	GWWG	MQQM	YDDY	JXXJ	retten	treu	fair	schön	spielen	ehrlich	rächen	tot	faul	schlecht	strafen	eitel	1	acq_USunple_CSunple2_RW	acq1_RW	1	6	0	0	300	300	462	46	0	1	1	blank2r.bmp	0	1	+	0	1	blank2r.bmp	492	1	MQQM	492	1	blank2r.bmp	572	1	schlecht	866	0	0	0	0	0	0	0	0	0	0	0	0	0	0	0	0	0	0	0	0	0	0	0	0	0	0	0	0	0	0	0	0	0	0	0	0
070319	14:53:51	14:55:20	88042	5.0.10.0	5_exp_RW	15	Rpleas_acq	CS_B	VKKV	BZZB	GWWG	MQQM	YDDY	JXXJ	retten	treu	fair	schön	spielen	ehrlich	rächen	tot	faul	schlecht	strafen	eitel	1	acq_USpleas_CSpleas1_RW	acq1_RW	1	7	0	0	300	300	417	50	0	1	1	blank2r.bmp	0	1	+	0	1	blank2r.bmp	492	1	VKKV	492	1	blank2r.bmp	572	2	treu	866	0	0	0	0	0	0	0	0	0	0	0	0	0	0	0	0	0	0	0	0	0	0	0	0	0	0	0	0	0	0	0	0	0	0	0	0
070319	14:53:51	14:55:22	89908	5.0.10.0	5_exp_RW	15	Rpleas_acq	CS_B	VKKV	BZZB	GWWG	MQQM	YDDY	JXXJ	retten	treu	fair	schön	spielen	ehrlich	rächen	tot	faul	schlecht	strafen	eitel	1	acq_USpleas_CSpleas1_RW	acq1_RW	1	8	0	0	300	300	396	50	0	1	1	blank2r.bmp	0	1	+	0	1	blank2r.bmp	492	1	VKKV	492	1	blank2r.bmp	572	3	fair	866	0	0	0	0	0	0	0	0	0	0	0	0	0	0	0	0	0	0	0	0	0	0	0	0	0	0	0	0	0	0	0	0	0	0	0	0
070319	14:53:51	14:55:23	91734	5.0.10.0	5_exp_RW	15	Rpleas_acq	CS_B	VKKV	BZZB	GWWG	MQQM	YDDY	JXXJ	retten	treu	fair	schön	spielen	ehrlich	rächen	tot	faul	schlecht	strafen	eitel	1	acq_USpleas_CSpleas2_RW	acq1_RW	1	9	0	0	300	300	353	50	0	1	1	blank2r.bmp	0	1	+	0	1	blank2r.bmp	492	1	BZZB	492	1	blank2r.bmp	572	1	schön	866	0	0	0	0	0	0	0	0	0	0	0	0	0	0	0	0	0	0	0	0	0	0	0	0	0	0	0	0	0	0	0	0	0	0	0	0
070319	14:53:51	14:55:25	93667	5.0.10.0	5_exp_RW	15	Rpleas_acq	CS_B	VKKV	BZZB	GWWG	MQQM	YDDY	JXXJ	retten	treu	fair	schön	spielen	ehrlich	rächen	tot	faul	schlecht	strafen	eitel	1	acq_USpleas_CSpleas1_RW	acq1_RW	1	10	0	0	300	300	460	50	0	1	1	blank2r.bmp	0	1	+	0	1	blank2r.bmp	492	1	VKKV	492	1	blank2r.bmp	572	1	retten	866	0	0	0	0	0	0	0	0	0	0	0	0	0	0	0	0	0	0	0	0	0	0	0	0	0	0	0	0	0	0	0	0	0	0	0	0
070319	14:53:51	14:55:27	95653	5.0.10.0	5_exp_RW	15	Rpleas_acq	CS_B	VKKV	BZZB	GWWG	MQQM	YDDY	JXXJ	retten	treu	fair	schön	spielen	ehrlich	rächen	tot	faul	schlecht	strafen	eitel	1	acq_USunple_CSunple1_RW	acq1_RW	1	11	0	0	300	300	492	46	0	1	1	blank2r.bmp	0	1	+	0	1	blank2r.bmp	492	1	GWWG	492	1	blank2r.bmp	572	1	rächen	866	0	0	0	0	0	0	0	0	0	0	0	0	0	0	0	0	0	0	0	0	0	0	0	0	0	0	0	0	0	0	0	0	0	0	0	0
070319	14:53:51	14:55:29	97492	5.0.10.0	5_exp_RW	15	Rpleas_acq	CS_B	VKKV	BZZB	GWWG	MQQM	YDDY	JXXJ	retten	treu	fair	schön	spielen	ehrlich	rächen	tot	faul	schlecht	strafen	eitel	1	acq_USunple_CSunple2_RW	acq1_RW	1	12	0	0	300	300	371	46	0	1	1	blank2r.bmp	0	1	+	0	1	blank2r.bmp	492	1	MQQM	492	1	blank2r.bmp	572	1	schlecht	866	0	0	0	0	0	0	0	0	0	0	0	0	0	0	0	0	0	0	0	0	0	0	0	0	0	0	0	0	0	0	0	0	0	0	0	0
070319	14:53:51	14:55:31	99451	5.0.10.0	5_exp_RW	15	Rpleas_acq	CS_B	VKKV	BZZB	GWWG	MQQM	YDDY	JXXJ	retten	treu	fair	schön	spielen	ehrlich	rächen	tot	faul	schlecht	strafen	eitel	1	acq_USpleas_CSpleas2_RW	acq1_RW	1	13	0	0	300	300	473	50	0	1	1	blank2r.bmp	0	1	+	0	1	blank2r.bmp	492	1	BZZB	492	1	blank2r.bmp	572	2	spielen	866	0	0	0	0	0	0	0	0	0	0	0	0	0	0	0	0	0	0	0	0	0	0	0	0	0	0	0	0	0	0	0	0	0	0	0	0
070319	14:53:51	14:55:33	101290	5.0.10.0	5_exp_RW	15	Rpleas_acq	CS_B	VKKV	BZZB	GWWG	MQQM	YDDY	JXXJ	retten	treu	fair	schön	spielen	ehrlich	rächen	tot	faul	schlecht	strafen	eitel	1	acq_USpleas_CSpleas2_RW	acq1_RW	1	14	0	0	300	300	351	50	0	1	1	blank2r.bmp	0	1	+	0	1	blank2r.bmp	492	1	BZZB	492	1	blank2r.bmp	572	1	schön	866	0	0	0	0	0	0	0	0	0	0	0	0	0	0	0	0	0	0	0	0	0	0	0	0	0	0	0	0	0	0	0	0	0	0	0	0
070319	14:53:51	14:55:35	103316	5.0.10.0	5_exp_RW	15	Rpleas_acq	CS_B	VKKV	BZZB	GWWG	MQQM	YDDY	JXXJ	retten	treu	fair	schön	spielen	ehrlich	rächen	tot	faul	schlecht	strafen	eitel	1	acq_USunple_CSunple1_RW	acq1_RW	1	15	0	0	300	300	534	46	0	1	1	blank2r.bmp	0	1	+	0	1	blank2r.bmp	492	1	GWWG	492	1	blank2r.bmp	572	3	faul	866	0	0	0	0	0	0	0	0	0	0	0	0	0	0	0	0	0	0	0	0	0	0	0	0	0	0	0	0	0	0	0	0	0	0	0	0
070319	14:53:51	14:55:37	105182	5.0.10.0	5_exp_RW	15	Rpleas_acq	CS_B	VKKV	BZZB	GWWG	MQQM	YDDY	JXXJ	retten	treu	fair	schön	spielen	ehrlich	rächen	tot	faul	schlecht	strafen	eitel	1	acq_USunple_CSunple1_RW	acq1_RW	1	16	0	0	300	300	398	46	0	1	1	blank2r.bmp	0	1	+	0	1	blank2r.bmp	492	1	GWWG	492	1	blank2r.bmp	572	3	faul	866	0	0	0	0	0	0	0	0	0	0	0	0	0	0	0	0	0	0	0	0	0	0	0	0	0	0	0	0	0	0	0	0	0	0	0	0
070319	14:53:51	14:56:09	137608	5.0.10.0	5_exp_RW	15	Rpleas_acq	CS_B	VKKV	BZZB	GWWG	MQQM	YDDY	JXXJ	retten	treu	fair	schön	spielen	ehrlich	rächen	tot	faul	schlecht	strafen	eitel	1	acq_USpleas_CSpleas1_RW	acq2_RW	2	1	480	0	300	300	859	50	0	1	1	blank2r.bmp	0	1	+	0	1	blank2r.bmp	492	1	VKKV	492	1	blank2r.bmp	572	3	fair	866	1	!	1319	1	!	-1	0	0	0	0	0	0	0	0	0	0	0	0	0	0	0	0	0	0	0	0	0	0	0	0	0	0	0	0	0	0
070319	14:53:51	14:56:12	139954	5.0.10.0	5_exp_RW	15	Rpleas_acq	CS_B	VKKV	BZZB	GWWG	MQQM	YDDY	JXXJ	retten	treu	fair	schön	spielen	ehrlich	rächen	tot	faul	schlecht	strafen	eitel	1	acq_USpleas_CSpleas1_RW	acq2_RW	2	2	480	0	300	300	338	46	0	0	1	blank2r.bmp	0	1	+	0	1	blank2r.bmp	492	1	VKKV	492	1	blank2r.bmp	572	2	treu	866	1	FEHLER	1546	1	!	-1	1	!	-1	0	0	0	0	0	0	0	0	0	0	0	0	0	0	0	0	0	0	0	0	0	0	0	0	0	0	0
070319	14:53:51	14:56:14	141913	5.0.10.0	5_exp_RW	15	Rpleas_acq	CS_B	VKKV	BZZB	GWWG	MQQM	YDDY	JXXJ	retten	treu	fair	schön	spielen	ehrlich	rächen	tot	faul	schlecht	strafen	eitel	1	acq_USpleas_CSpleas2_RW	acq2_RW	2	3	480	0	300	300	401	50	0	1	1	blank2r.bmp	0	1	+	0	1	blank2r.bmp	492	1	BZZB	492	1	blank2r.bmp	572	3	ehrlich	866	1	!	-1	1	!	-1	0	0	0	0	0	0	0	0	0	0	0	0	0	0	0	0	0	0	0	0	0	0	0	0	0	0	0	0	0	0
070319	14:53:51	14:56:16	144326	5.0.10.0	5_exp_RW	15	Rpleas_acq	CS_B	VKKV	BZZB	GWWG	MQQM	YDDY	JXXJ	retten	treu	fair	schön	spielen	ehrlich	rächen	tot	faul	schlecht	strafen	eitel	1	acq_USunple_CSunple2_RW	acq2_RW	2	4	480	0	300	300	632	46	0	1	1	blank2r.bmp	0	1	+	0	1	blank2r.bmp	492	1	MQQM	492	1	blank2r.bmp	572	3	eitel	866	1	!	1319	1	!	-1	0	0	0	0	0	0	0	0	0	0	0	0	0	0	0	0	0	0	0	0	0	0	0	0	0	0	0	0	0	0
070319	14:53:51	14:56:18	146591	5.0.10.0	5_exp_RW	15	Rpleas_acq	CS_B	VKKV	BZZB	GWWG	MQQM	YDDY	JXXJ	retten	treu	fair	schön	spielen	ehrlich	rächen	tot	faul	schlecht	strafen	eitel	1	acq_USpleas_CSpleas2_RW	acq2_RW	2	5	480	1	300	300	460	50	0	1	1	blank2r.bmp	0	1	+	0	1	blank2r.bmp	492	1	BZZB	492	1	blank2r.bmp	572	2	spielen	866	1	!	1319	1	!	1359	0	0	0	0	0	0	0	0	0	0	0	0	0	0	0	0	0	0	0	0	0	0	0	0	0	0	0	0	0	0
070319	14:53:51	14:56:20	148724	5.0.10.0	5_exp_RW	15	Rpleas_acq	CS_B	VKKV	BZZB	GWWG	MQQM	YDDY	JXXJ	retten	treu	fair	schön	spielen	ehrlich	rächen	tot	faul	schlecht	strafen	eitel	1	acq_USpleas_CSpleas2_RW	acq2_RW	2	6	480	0	300	300	362	50	0	1	1	blank2r.bmp	0	1	+	0	1	blank2r.bmp	492	1	BZZB	492	1	blank2r.bmp	572	3	ehrlich	866	1	!	-1	1	!	-1	0	0	0	0	0	0	0	0	0	0	0	0	0	0	0	0	0	0	0	0	0	0	0	0	0	0	0	0	0	0
070319	14:53:51	14:56:23	151069	5.0.10.0	5_exp_RW	15	Rpleas_acq	CS_B	VKKV	BZZB	GWWG	MQQM	YDDY	JXXJ	retten	treu	fair	schön	spielen	ehrlich	rächen	tot	faul	schlecht	strafen	eitel	1	acq_USpleas_CSpleas1_RW	acq2_RW	2	7	480	0	300	300	569	50	0	1	1	blank2r.bmp	0	1	+	0	1	blank2r.bmp	492	1	VKKV	492	1	blank2r.bmp	572	2	treu	866	1	!	1319	1	!	-1	0	0	0	0	0	0	0	0	0	0	0	0	0	0	0	0	0	0	0	0	0	0	0	0	0	0	0	0	0	0
070319	14:53:51	14:56:25	153202	5.0.10.0	5_exp_RW	15	Rpleas_acq	CS_B	VKKV	BZZB	GWWG	MQQM	YDDY	JXXJ	retten	treu	fair	schön	spielen	ehrlich	rächen	tot	faul	schlecht	strafen	eitel	1	acq_USunple_CSunple2_RW	acq2_RW	2	8	480	0	300	300	347	46	0	1	1	blank2r.bmp	0	1	+	0	1	blank2r.bmp	492	1	MQQM	492	1	blank2r.bmp	572	2	strafen	866	1	!	-1	1	!	-1	0	0	0	0	0	0	0	0	0	0	0	0	0	0	0	0	0	0	0	0	0	0	0	0	0	0	0	0	0	0
070319	14:53:51	14:56:27	155588	5.0.10.0	5_exp_RW	15	Rpleas_acq	CS_B	VKKV	BZZB	GWWG	MQQM	YDDY	JXXJ	retten	treu	fair	schön	spielen	ehrlich	rächen	tot	faul	schlecht	strafen	eitel	1	acq_USpleas_CSpleas2_RW	acq2_RW	2	9	480	0	300	300	611	50	0	1	1	blank2r.bmp	0	1	+	0	1	blank2r.bmp	492	1	BZZB	492	1	blank2r.bmp	572	2	spielen	866	1	!	1319	1	!	-1	0	0	0	0	0	0	0	0	0	0	0	0	0	0	0	0	0	0	0	0	0	0	0	0	0	0	0	0	0	0
070319	14:53:51	14:56:29	157707	5.0.10.0	5_exp_RW	15	Rpleas_acq	CS_B	VKKV	BZZB	GWWG	MQQM	YDDY	JXXJ	retten	treu	fair	schön	spielen	ehrlich	rächen	tot	faul	schlecht	strafen	eitel	1	acq_USpleas_CSpleas2_RW	acq2_RW	2	10	480	0	300	300	334	50	0	1	1	blank2r.bmp	0	1	+	0	1	blank2r.bmp	492	1	BZZB	492	1	blank2r.bmp	572	1	schön	866	1	!	-1	1	!	-1	0	0	0	0	0	0	0	0	0	0	0	0	0	0	0	0	0	0	0	0	0	0	0	0	0	0	0	0	0	0
070319	14:53:51	14:56:32	159892	5.0.10.0	5_exp_RW	15	Rpleas_acq	CS_B	VKKV	BZZB	GWWG	MQQM	YDDY	JXXJ	retten	treu	fair	schön	spielen	ehrlich	rächen	tot	faul	schlecht	strafen	eitel	1	acq_USunple_CSunple1_RW	acq2_RW	2	11	480	0	300	300	386	46	0	1	1	blank2r.bmp	0	1	+	0	1	blank2r.bmp	492	1	GWWG	492	1	blank2r.bmp	572	2	tot	866	1	!	-1	1	!	-1	0	0	0	0	0	0	0	0	0	0	0	0	0	0	0	0	0	0	0	0	0	0	0	0	0	0	0	0	0	0
070319	14:53:51	14:56:34	162371	5.0.10.0	5_exp_RW	15	Rpleas_acq	CS_B	VKKV	BZZB	GWWG	MQQM	YDDY	JXXJ	retten	treu	fair	schön	spielen	ehrlich	rächen	tot	faul	schlecht	strafen	eitel	1	acq_USpleas_CSpleas1_RW	acq2_RW	2	12	480	0	300	300	697	50	0	1	1	blank2r.bmp	0	1	+	0	1	blank2r.bmp	492	1	VKKV	492	1	blank2r.bmp	572	1	retten	866	1	!	1319	1	!	-1	0	0	0	0	0	0	0	0	0	0	0	0	0	0	0	0	0	0	0	0	0	0	0	0	0	0	0	0	0	0
070319	14:53:51	14:56:36	164677	5.0.10.0	5_exp_RW	15	Rpleas_acq	CS_B	VKKV	BZZB	GWWG	MQQM	YDDY	JXXJ	retten	treu	fair	schön	spielen	ehrlich	rächen	tot	faul	schlecht	strafen	eitel	1	acq_USunple_CSunple2_RW	acq2_RW	2	13	480	0	300	300	292	50	0	0	1	blank2r.bmp	0	1	+	0	1	blank2r.bmp	492	1	MQQM	492	1	blank2r.bmp	572	3	eitel	866	1	FEHLER	1506	1	!	-1	1	!	-1	0	0	0	0	0	0	0	0	0	0	0	0	0	0	0	0	0	0	0	0	0	0	0	0	0	0	0
070319	14:53:51	14:56:38	166610	5.0.10.0	5_exp_RW	15	Rpleas_acq	CS_B	VKKV	BZZB	GWWG	MQQM	YDDY	JXXJ	retten	treu	fair	schön	spielen	ehrlich	rächen	tot	faul	schlecht	strafen	eitel	1	acq_USunple_CSunple2_RW	acq2_RW	2	14	480	0	300	300	379	46	0	1	1	blank2r.bmp	0	1	+	0	1	blank2r.bmp	492	1	MQQM	492	1	blank2r.bmp	572	2	strafen	866	1	!	-1	1	!	-1	0	0	0	0	0	0	0	0	0	0	0	0	0	0	0	0	0	0	0	0	0	0	0	0	0	0	0	0	0	0
070319	14:53:51	14:56:41	168889	5.0.10.0	5_exp_RW	15	Rpleas_acq	CS_B	VKKV	BZZB	GWWG	MQQM	YDDY	JXXJ	retten	treu	fair	schön	spielen	ehrlich	rächen	tot	faul	schlecht	strafen	eitel	1	acq_USpleas_CSpleas2_RW	acq2_RW	2	15	480	1	300	300	469	50	0	1	1	blank2r.bmp	0	1	+	0	1	blank2r.bmp	492	1	BZZB	492	1	blank2r.bmp	572	1	schön	866	1	!	1319	1	!	1372	0	0	0	0	0	0	0	0	0	0	0	0	0	0	0	0	0	0	0	0	0	0	0	0	0	0	0	0	0	0
070319	14:53:51	14:56:43	171261	5.0.10.0	5_exp_RW	15	Rpleas_acq	CS_B	VKKV	BZZB	GWWG	MQQM	YDDY	JXXJ	retten	treu	fair	schön	spielen	ehrlich	rächen	tot	faul	schlecht	strafen	eitel	1	acq_USpleas_CSpleas1_RW	acq2_RW	2	16	480	0	300	300	368	46	0	0	1	blank2r.bmp	0	1	+	0	1	blank2r.bmp	492	1	VKKV	492	1	blank2r.bmp	572	3	fair	866	1	FEHLER	1572	1	!	-1	1	!	-1	0	0	0	0	0	0	0	0	0	0	0	0	0	0	0	0	0	0	0	0	0	0	0	0	0	0	0
070319	14:53:51	14:56:45	173313	5.0.10.0	5_exp_RW	15	Rpleas_acq	CS_B	VKKV	BZZB	GWWG	MQQM	YDDY	JXXJ	retten	treu	fair	schön	spielen	ehrlich	rächen	tot	faul	schlecht	strafen	eitel	1	acq_USunple_CSunple1_RW	acq2_RW	2	17	480	1	300	300	473	46	0	1	1	blank2r.bmp	0	1	+	0	1	blank2r.bmp	492	1	GWWG	492	1	blank2r.bmp	572	1	rächen	866	1	!	1319	1	!	1372	0	0	0	0	0	0	0	0	0	0	0	0	0	0	0	0	0	0	0	0	0	0	0	0	0	0	0	0	0	0
070319	14:53:51	14:56:47	175393	5.0.10.0	5_exp_RW	15	Rpleas_acq	CS_B	VKKV	BZZB	GWWG	MQQM	YDDY	JXXJ	retten	treu	fair	schön	spielen	ehrlich	rächen	tot	faul	schlecht	strafen	eitel	1	acq_USunple_CSunple2_RW	acq2_RW	2	18	480	0	300	300	315	46	0	1	1	blank2r.bmp	0	1	+	0	1	blank2r.bmp	492	1	MQQM	492	1	blank2r.bmp	572	1	schlecht	866	1	!	-1	1	!	-1	0	0	0	0	0	0	0	0	0	0	0	0	0	0	0	0	0	0	0	0	0	0	0	0	0	0	0	0	0	0
070319	14:53:51	14:56:49	177738	5.0.10.0	5_exp_RW	15	Rpleas_acq	CS_B	VKKV	BZZB	GWWG	MQQM	YDDY	JXXJ	retten	treu	fair	schön	spielen	ehrlich	rächen	tot	faul	schlecht	strafen	eitel	1	acq_USunple_CSunple1_RW	acq2_RW	2	19	480	1	300	300	541	46	0	1	1	blank2r.bmp	0	1	+	0	1	blank2r.bmp	492	1	GWWG	492	1	blank2r.bmp	572	3	faul	866	1	!	1319	1	!	1439	0	0	0	0	0	0	0	0	0	0	0	0	0	0	0	0	0	0	0	0	0	0	0	0	0	0	0	0	0	0
070319	14:53:51	14:56:52	179777	5.0.10.0	5_exp_RW	15	Rpleas_acq	CS_B	VKKV	BZZB	GWWG	MQQM	YDDY	JXXJ	retten	treu	fair	schön	spielen	ehrlich	rächen	tot	faul	schlecht	strafen	eitel	1	acq_USunple_CSunple1_RW	acq2_RW	2	20	480	0	300	300	267	46	0	1	1	blank2r.bmp	0	1	+	0	1	blank2r.bmp	492	1	GWWG	492	1	blank2r.bmp	572	1	rächen	866	1	!	-1	1	!	-1	0	0	0	0	0	0	0	0	0	0	0	0	0	0	0	0	0	0	0	0	0	0	0	0	0	0	0	0	0	0
070319	14:53:51	14:56:54	182150	5.0.10.0	5_exp_RW	15	Rpleas_acq	CS_B	VKKV	BZZB	GWWG	MQQM	YDDY	JXXJ	retten	treu	fair	schön	spielen	ehrlich	rächen	tot	faul	schlecht	strafen	eitel	1	acq_USpleas_CSpleas1_RW	acq2_RW	2	21	480	0	300	300	594	50	0	1	1	blank2r.bmp	0	1	+	0	1	blank2r.bmp	492	1	VKKV	492	1	blank2r.bmp	572	3	fair	866	1	!	1319	1	!	-1	0	0	0	0	0	0	0	0	0	0	0	0	0	0	0	0	0	0	0	0	0	0	0	0	0	0	0	0	0	0
070319	14:53:51	14:56:56	184256	5.0.10.0	5_exp_RW	15	Rpleas_acq	CS_B	VKKV	BZZB	GWWG	MQQM	YDDY	JXXJ	retten	treu	fair	schön	spielen	ehrlich	rächen	tot	faul	schlecht	strafen	eitel	1	acq_USunple_CSunple1_RW	acq2_RW	2	22	480	0	300	300	310	46	0	1	1	blank2r.bmp	0	1	+	0	1	blank2r.bmp	492	1	GWWG	492	1	blank2r.bmp	572	2	tot	866	1	!	-1	1	!	-1	0	0	0	0	0	0	0	0	0	0	0	0	0	0	0	0	0	0	0	0	0	0	0	0	0	0	0	0	0	0
070319	14:53:51	14:56:58	186615	5.0.10.0	5_exp_RW	15	Rpleas_acq	CS_B	VKKV	BZZB	GWWG	MQQM	YDDY	JXXJ	retten	treu	fair	schön	spielen	ehrlich	rächen	tot	faul	schlecht	strafen	eitel	1	acq_USunple_CSunple2_RW	acq2_RW	2	23	480	0	300	300	559	46	0	1	1	blank2r.bmp	0	1	+	0	1	blank2r.bmp	492	1	MQQM	492	1	blank2r.bmp	572	1	schlecht	866	1	!	1319	1	!	-1	0	0	0	0	0	0	0	0	0	0	0	0	0	0	0	0	0	0	0	0	0	0	0	0	0	0	0	0	0	0
070319	14:53:51	14:57:00	188694	5.0.10.0	5_exp_RW	15	Rpleas_acq	CS_B	VKKV	BZZB	GWWG	MQQM	YDDY	JXXJ	retten	treu	fair	schön	spielen	ehrlich	rächen	tot	faul	schlecht	strafen	eitel	1	acq_USunple_CSunple1_RW	acq2_RW	2	24	480	0	300	300	292	46	0	1	1	blank2r.bmp	0	1	+	0	1	blank2r.bmp	492	1	GWWG	492	1	blank2r.bmp	572	2	tot	866	1	!	-1	1	!	-1	0	0	0	0	0	0	0	0	0	0	0	0	0	0	0	0	0	0	0	0	0	0	0	0	0	0	0	0	0	0
070319	14:53:51	14:58:22	269846	5.0.10.0	5_exp_RW	15	Rpleas_acq	CS_B	VKKV	BZZB	GWWG	MQQM	YDDY	JXXJ	retten	treu	fair	schön	spielen	ehrlich	rächen	tot	faul	schlecht	strafen	eitel	1	acq_USunple_CSunple2_RW	acq3_RW	3	1	453	0	300	300	61475	50	0	0	1	blank2r.bmp	0	1	+	0	1	blank2r.bmp	492	1	MQQM	492	1	blank2r.bmp	572	3	eitel	866	1	FEHLER	62680	1	!	1292	1	!	-1	0	0	0	0	0	0	0	0	0	0	0	0	0	0	0	0	0	0	0	0	0	0	0	0	0	0	0
070319	14:53:51	14:58:33	281468	5.0.10.0	5_exp_RW	15	Rpleas_acq	CS_B	VKKV	BZZB	GWWG	MQQM	YDDY	JXXJ	retten	treu	fair	schön	spielen	ehrlich	rächen	tot	faul	schlecht	strafen	eitel	1	acq_USunple_CSunple2_RW	acq3_RW	3	2	453	0	300	300	9825	50	0	0	1	blank2r.bmp	0	1	+	0	1	blank2r.bmp	492	1	MQQM	492	1	blank2r.bmp	572	2	strafen	866	1	FEHLER	11035	1	!	1292	1	!	-1	0	0	0	0	0	0	0	0	0	0	0	0	0	0	0	0	0	0	0	0	0	0	0	0	0	0	0
070319	14:53:51	14:58:35	283521	5.0.10.0	5_exp_RW	15	Rpleas_acq	CS_B	VKKV	BZZB	GWWG	MQQM	YDDY	JXXJ	retten	treu	fair	schön	spielen	ehrlich	rächen	tot	faul	schlecht	strafen	eitel	1	acq_USunple_CSunple1_RW	acq3_RW	3	3	453	0	300	300	261	50	0	0	1	blank2r.bmp	0	1	+	0	1	blank2r.bmp	492	1	GWWG	492	1	blank2r.bmp	572	1	rächen	866	1	FEHLER	1466	1	!	-1	1	!	-1	0	0	0	0	0	0	0	0	0	0	0	0	0	0	0	0	0	0	0	0	0	0	0	0	0	0	0
070319	14:53:51	14:58:37	285720	5.0.10.0	5_exp_RW	15	Rpleas_acq	CS_B	VKKV	BZZB	GWWG	MQQM	YDDY	JXXJ	retten	treu	fair	schön	spielen	ehrlich	rächen	tot	faul	schlecht	strafen	eitel	1	acq_USpleas_CSpleas1_RW	acq3_RW	3	4	453	0	300	300	649	50	0	1	1	blank2r.bmp	0	1	+	0	1	blank2r.bmp	492	1	VKKV	492	1	blank2r.bmp	572	1	retten	866	1	!	1292	1	!	-1	0	0	0	0	0	0	0	0	0	0	0	0	0	0	0	0	0	0	0	0	0	0	0	0	0	0	0	0	0	0
070319	14:53:51	14:58:40	288079	5.0.10.0	5_exp_RW	15	Rpleas_acq	CS_B	VKKV	BZZB	GWWG	MQQM	YDDY	JXXJ	retten	treu	fair	schön	spielen	ehrlich	rächen	tot	faul	schlecht	strafen	eitel	1	acq_USpleas_CSpleas2_RW	acq3_RW	3	5	453	0	300	300	574	50	0	1	1	blank2r.bmp	0	1	+	0	1	blank2r.bmp	492	1	BZZB	492	1	blank2r.bmp	572	2	spielen	866	1	!	1292	1	!	-1	0	0	0	0	0	0	0	0	0	0	0	0	0	0	0	0	0	0	0	0	0	0	0	0	0	0	0	0	0	0
070319	14:53:51	14:58:42	290291	5.0.10.0	5_exp_RW	15	Rpleas_acq	CS_B	VKKV	BZZB	GWWG	MQQM	YDDY	JXXJ	retten	treu	fair	schön	spielen	ehrlich	rächen	tot	faul	schlecht	strafen	eitel	1	acq_USpleas_CSpleas1_RW	acq3_RW	3	6	453	1	300	300	409	50	0	1	1	blank2r.bmp	0	1	+	0	1	blank2r.bmp	492	1	VKKV	492	1	blank2r.bmp	572	2	treu	866	1	!	1292	1	!	1306	0	0	0	0	0	0	0	0	0	0	0	0	0	0	0	0	0	0	0	0	0	0	0	0	0	0	0	0	0	0
070319	14:53:51	14:58:44	292624	5.0.10.0	5_exp_RW	15	Rpleas_acq	CS_B	VKKV	BZZB	GWWG	MQQM	YDDY	JXXJ	retten	treu	fair	schön	spielen	ehrlich	rächen	tot	faul	schlecht	strafen	eitel	1	acq_USpleas_CSpleas1_RW	acq3_RW	3	7	453	0	300	300	559	50	0	1	1	blank2r.bmp	0	1	+	0	1	blank2r.bmp	492	1	VKKV	492	1	blank2r.bmp	572	2	treu	866	1	!	1292	1	!	-1	0	0	0	0	0	0	0	0	0	0	0	0	0	0	0	0	0	0	0	0	0	0	0	0	0	0	0	0	0	0
070319	14:53:51	14:58:54	302566	5.0.10.0	5_exp_RW	15	Rpleas_acq	CS_B	VKKV	BZZB	GWWG	MQQM	YDDY	JXXJ	retten	treu	fair	schön	spielen	ehrlich	rächen	tot	faul	schlecht	strafen	eitel	1	acq_USunple_CSunple1_RW	acq3_RW	3	8	453	0	300	300	7935	50	0	0	1	blank2r.bmp	0	1	+	0	1	blank2r.bmp	492	1	GWWG	492	1	blank2r.bmp	572	3	faul	866	1	FEHLER	9142	1	!	1292	1	!	-1	0	0	0	0	0	0	0	0	0	0	0	0	0	0	0	0	0	0	0	0	0	0	0	0	0	0	0
070319	14:53:51	14:58:59	307191	5.0.10.0	5_exp_RW	15	Rpleas_acq	CS_B	VKKV	BZZB	GWWG	MQQM	YDDY	JXXJ	retten	treu	fair	schön	spielen	ehrlich	rächen	tot	faul	schlecht	strafen	eitel	1	acq_USunple_CSunple1_RW	acq3_RW	3	9	453	0	300	300	2841	50	0	0	1	blank2r.bmp	0	1	+	0	1	blank2r.bmp	492	1	GWWG	492	1	blank2r.bmp	572	3	faul	866	1	FEHLER	4051	1	!	1292	1	!	-1	0	0	0	0	0	0	0	0	0	0	0	0	0	0	0	0	0	0	0	0	0	0	0	0	0	0	0
070319	14:53:51	14:59:01	309017	5.0.10.0	5_exp_RW	15	Rpleas_acq	CS_B	VKKV	BZZB	GWWG	MQQM	YDDY	JXXJ	retten	treu	fair	schön	spielen	ehrlich	rächen	tot	faul	schlecht	strafen	eitel	1	acq_USpleas_CSpleas2_RW	acq3_RW	3	10	453	0	300	300	262	50	0	1	1	blank2r.bmp	0	1	+	0	1	blank2r.bmp	492	1	BZZB	492	1	blank2r.bmp	572	3	ehrlich	866	1	!	-1	1	!	-1	0	0	0	0	0	0	0	0	0	0	0	0	0	0	0	0	0	0	0	0	0	0	0	0	0	0	0	0	0	0
070319	14:53:51	14:59:05	313748	5.0.10.0	5_exp_RW	15	Rpleas_acq	CS_B	VKKV	BZZB	GWWG	MQQM	YDDY	JXXJ	retten	treu	fair	schön	spielen	ehrlich	rächen	tot	faul	schlecht	strafen	eitel	1	acq_USunple_CSunple2_RW	acq3_RW	3	11	453	0	300	300	2726	50	0	0	1	blank2r.bmp	0	1	+	0	1	blank2r.bmp	492	1	MQQM	492	1	blank2r.bmp	572	1	schlecht	866	1	FEHLER	3931	1	!	1292	1	!	-1	0	0	0	0	0	0	0	0	0	0	0	0	0	0	0	0	0	0	0	0	0	0	0	0	0	0	0
070319	14:53:51	14:59:08	315867	5.0.10.0	5_exp_RW	15	Rpleas_acq	CS_B	VKKV	BZZB	GWWG	MQQM	YDDY	JXXJ	retten	treu	fair	schön	spielen	ehrlich	rächen	tot	faul	schlecht	strafen	eitel	1	acq_USpleas_CSpleas2_RW	acq3_RW	3	12	453	0	300	300	562	50	0	1	1	blank2r.bmp	0	1	+	0	1	blank2r.bmp	492	1	BZZB	492	1	blank2r.bmp	572	3	ehrlich	866	1	!	1292	1	!	-1	0	0	0	0	0	0	0	0	0	0	0	0	0	0	0	0	0	0	0	0	0	0	0	0	0	0	0	0	0	0
070319	14:53:51	14:59:10	317946	5.0.10.0	5_exp_RW	15	Rpleas_acq	CS_B	VKKV	BZZB	GWWG	MQQM	YDDY	JXXJ	retten	treu	fair	schön	spielen	ehrlich	rächen	tot	faul	schlecht	strafen	eitel	1	acq_USpleas_CSpleas2_RW	acq3_RW	3	13	453	0	300	300	299	50	0	1	1	blank2r.bmp	0	1	+	0	1	blank2r.bmp	492	1	BZZB	492	1	blank2r.bmp	572	2	spielen	866	1	!	-1	1	!	-1	0	0	0	0	0	0	0	0	0	0	0	0	0	0	0	0	0	0	0	0	0	0	0	0	0	0	0	0	0	0
070319	14:53:51	14:59:12	320199	5.0.10.0	5_exp_RW	15	Rpleas_acq	CS_B	VKKV	BZZB	GWWG	MQQM	YDDY	JXXJ	retten	treu	fair	schön	spielen	ehrlich	rächen	tot	faul	schlecht	strafen	eitel	1	acq_USpleas_CSpleas2_RW	acq3_RW	3	14	453	1	300	300	430	50	0	1	1	blank2r.bmp	0	1	+	0	1	blank2r.bmp	492	1	BZZB	492	1	blank2r.bmp	572	1	schön	866	1	!	1292	1	!	1332	0	0	0	0	0	0	0	0	0	0	0	0	0	0	0	0	0	0	0	0	0	0	0	0	0	0	0	0	0	0
070319	14:53:51	14:59:14	322478	5.0.10.0	5_exp_RW	15	Rpleas_acq	CS_B	VKKV	BZZB	GWWG	MQQM	YDDY	JXXJ	retten	treu	fair	schön	spielen	ehrlich	rächen	tot	faul	schlecht	strafen	eitel	1	acq_USpleas_CSpleas1_RW	acq3_RW	3	15	453	1	300	300	481	50	0	1	1	blank2r.bmp	0	1	+	0	1	blank2r.bmp	492	1	VKKV	492	1	blank2r.bmp	572	3	fair	866	1	!	1292	1	!	1386	0	0	0	0	0	0	0	0	0	0	0	0	0	0	0	0	0	0	0	0	0	0	0	0	0	0	0	0	0	0
070319	14:53:51	14:59:20	327942	5.0.10.0	5_exp_RW	15	Rpleas_acq	CS_B	VKKV	BZZB	GWWG	MQQM	YDDY	JXXJ	retten	treu	fair	schön	spielen	ehrlich	rächen	tot	faul	schlecht	strafen	eitel	1	acq_USunple_CSunple2_RW	acq3_RW	3	16	453	0	300	300	3474	50	0	0	1	blank2r.bmp	0	1	+	0	1	blank2r.bmp	492	1	MQQM	492	1	blank2r.bmp	572	2	strafen	866	1	FEHLER	4678	1	!	1292	1	!	-1	0	0	0	0	0	0	0	0	0	0	0	0	0	0	0	0	0	0	0	0	0	0	0	0	0	0	0
070319	14:53:51	14:59:22	330354	5.0.10.0	5_exp_RW	15	Rpleas_acq	CS_B	VKKV	BZZB	GWWG	MQQM	YDDY	JXXJ	retten	treu	fair	schön	spielen	ehrlich	rächen	tot	faul	schlecht	strafen	eitel	1	acq_USunple_CSunple2_RW	acq3_RW	3	17	453	0	300	300	628	50	0	0	1	blank2r.bmp	0	1	+	0	1	blank2r.bmp	492	1	MQQM	492	1	blank2r.bmp	572	3	eitel	866	1	FEHLER	1839	1	!	1292	1	!	-1	0	0	0	0	0	0	0	0	0	0	0	0	0	0	0	0	0	0	0	0	0	0	0	0	0	0	0
070319	14:53:51	14:59:26	334659	5.0.10.0	5_exp_RW	15	Rpleas_acq	CS_B	VKKV	BZZB	GWWG	MQQM	YDDY	JXXJ	retten	treu	fair	schön	spielen	ehrlich	rächen	tot	faul	schlecht	strafen	eitel	1	acq_USunple_CSunple2_RW	acq3_RW	3	18	453	0	300	300	2527	50	0	0	1	blank2r.bmp	0	1	+	0	1	blank2r.bmp	492	1	MQQM	492	1	blank2r.bmp	572	1	schlecht	866	1	FEHLER	3731	1	!	1292	1	!	-1	0	0	0	0	0	0	0	0	0	0	0	0	0	0	0	0	0	0	0	0	0	0	0	0	0	0	0
070319	14:53:51	14:59:29	336778	5.0.10.0	5_exp_RW	15	Rpleas_acq	CS_B	VKKV	BZZB	GWWG	MQQM	YDDY	JXXJ	retten	treu	fair	schön	spielen	ehrlich	rächen	tot	faul	schlecht	strafen	eitel	1	acq_USpleas_CSpleas1_RW	acq3_RW	3	19	453	0	300	300	565	50	0	1	1	blank2r.bmp	0	1	+	0	1	blank2r.bmp	492	1	VKKV	492	1	blank2r.bmp	572	1	retten	866	1	!	1292	1	!	-1	0	0	0	0	0	0	0	0	0	0	0	0	0	0	0	0	0	0	0	0	0	0	0	0	0	0	0	0	0	0
070319	14:53:51	14:59:34	342070	5.0.10.0	5_exp_RW	15	Rpleas_acq	CS_B	VKKV	BZZB	GWWG	MQQM	YDDY	JXXJ	retten	treu	fair	schön	spielen	ehrlich	rächen	tot	faul	schlecht	strafen	eitel	1	acq_USunple_CSunple1_RW	acq3_RW	3	20	453	0	300	300	3283	50	0	0	1	blank2r.bmp	0	1	+	0	1	blank2r.bmp	492	1	GWWG	492	1	blank2r.bmp	572	2	tot	866	1	FEHLER	4491	1	!	1292	1	!	-1	0	0	0	0	0	0	0	0	0	0	0	0	0	0	0	0	0	0	0	0	0	0	0	0	0	0	0
070319	14:53:51	14:59:36	344055	5.0.10.0	5_exp_RW	15	Rpleas_acq	CS_B	VKKV	BZZB	GWWG	MQQM	YDDY	JXXJ	retten	treu	fair	schön	spielen	ehrlich	rächen	tot	faul	schlecht	strafen	eitel	1	acq_USpleas_CSpleas2_RW	acq3_RW	3	21	453	1	300	300	399	50	0	1	1	blank2r.bmp	0	1	+	0	1	blank2r.bmp	492	1	BZZB	492	1	blank2r.bmp	572	1	schön	866	1	!	1292	1	!	1306	0	0	0	0	0	0	0	0	0	0	0	0	0	0	0	0	0	0	0	0	0	0	0	0	0	0	0	0	0	0
070319	14:53:51	14:59:40	348214	5.0.10.0	5_exp_RW	15	Rpleas_acq	CS_B	VKKV	BZZB	GWWG	MQQM	YDDY	JXXJ	retten	treu	fair	schön	spielen	ehrlich	rächen	tot	faul	schlecht	strafen	eitel	1	acq_USunple_CSunple1_RW	acq3_RW	3	22	453	0	300	300	2158	50	0	0	1	blank2r.bmp	0	1	+	0	1	blank2r.bmp	492	1	GWWG	492	1	blank2r.bmp	572	1	rächen	866	1	FEHLER	3371	1	!	1292	1	!	-1	0	0	0	0	0	0	0	0	0	0	0	0	0	0	0	0	0	0	0	0	0	0	0	0	0	0	0
070319	14:53:51	14:59:44	352132	5.0.10.0	5_exp_RW	15	Rpleas_acq	CS_B	VKKV	BZZB	GWWG	MQQM	YDDY	JXXJ	retten	treu	fair	schön	spielen	ehrlich	rächen	tot	faul	schlecht	strafen	eitel	1	acq_USunple_CSunple1_RW	acq3_RW	3	23	453	0	300	300	2143	50	0	0	1	blank2r.bmp	0	1	+	0	1	blank2r.bmp	492	1	GWWG	492	1	blank2r.bmp	572	2	tot	866	1	FEHLER	3345	1	!	1292	1	!	-1	0	0	0	0	0	0	0	0	0	0	0	0	0	0	0	0	0	0	0	0	0	0	0	0	0	0	0
070319	14:53:51	14:59:46	354118	5.0.10.0	5_exp_RW	15	Rpleas_acq	CS_B	VKKV	BZZB	GWWG	MQQM	YDDY	JXXJ	retten	treu	fair	schön	spielen	ehrlich	rächen	tot	faul	schlecht	strafen	eitel	1	acq_USpleas_CSpleas1_RW	acq3_RW	3	24	453	1	300	300	407	50	0	1	1	blank2r.bmp	0	1	+	0	1	blank2r.bmp	492	1	VKKV	492	1	blank2r.bmp	572	1	retten	866	1	!	1292	1	!	1306	0	0	0	0	0	0	0	0	0	0	0	0	0	0	0	0	0	0	0	0	0	0	0	0	0	0	0	0	0	0
070319	14:53:51	15:00:03	370804	5.0.10.0	5_exp_RW	15	Rpleas_acq	CS_B	VKKV	BZZB	GWWG	MQQM	YDDY	JXXJ	retten	treu	fair	schön	spielen	ehrlich	rächen	tot	faul	schlecht	strafen	eitel	1	acq_USunple_CSunple1_RW	acq4567_RW	4	1	400	0	300	300	606	46	0	1	1	blank2r.bmp	0	1	+	0	1	blank2r.bmp	492	1	GWWG	492	1	blank2r.bmp	572	1	rächen	866	1	!	1239	1	!	-1	0	0	0	0	0	0	0	0	0	0	0	0	0	0	0	0	0	0	0	0	0	0	0	0	0	0	0	0	0	0
070319	14:53:51	15:00:05	372963	5.0.10.0	5_exp_RW	15	Rpleas_acq	CS_B	VKKV	BZZB	GWWG	MQQM	YDDY	JXXJ	retten	treu	fair	schön	spielen	ehrlich	rächen	tot	faul	schlecht	strafen	eitel	1	acq_USpleas_CSpleas2_RW	acq4567_RW	4	2	400	1	300	300	356	50	0	1	1	blank2r.bmp	0	1	+	0	1	blank2r.bmp	492	1	BZZB	492	1	blank2r.bmp	572	2	spielen	866	1	!	1239	1	!	1252	0	0	0	0	0	0	0	0	0	0	0	0	0	0	0	0	0	0	0	0	0	0	0	0	0	0	0	0	0	0
070319	14:53:51	15:00:07	374962	5.0.10.0	5_exp_RW	15	Rpleas_acq	CS_B	VKKV	BZZB	GWWG	MQQM	YDDY	JXXJ	retten	treu	fair	schön	spielen	ehrlich	rächen	tot	faul	schlecht	strafen	eitel	1	acq_USpleas_CSpleas2_RW	acq4567_RW	4	3	400	0	300	300	232	50	0	1	1	blank2r.bmp	0	1	+	0	1	blank2r.bmp	492	1	BZZB	492	1	blank2r.bmp	572	3	ehrlich	866	1	!	-1	1	!	-1	0	0	0	0	0	0	0	0	0	0	0	0	0	0	0	0	0	0	0	0	0	0	0	0	0	0	0	0	0	0
070319	14:53:51	15:00:09	377002	5.0.10.0	5_exp_RW	15	Rpleas_acq	CS_B	VKKV	BZZB	GWWG	MQQM	YDDY	JXXJ	retten	treu	fair	schön	spielen	ehrlich	rächen	tot	faul	schlecht	strafen	eitel	1	acq_USpleas_CSpleas2_RW	acq4567_RW	4	4	400	0	300	300	254	46	0	0	1	blank2r.bmp	0	1	+	0	1	blank2r.bmp	492	1	BZZB	492	1	blank2r.bmp	572	2	spielen	866	1	!	-1	1	!	-1	0	0	0	0	0	0	0	0	0	0	0	0	0	0	0	0	0	0	0	0	0	0	0	0	0	0	0	0	0	0
070319	14:53:51	15:00:11	379081	5.0.10.0	5_exp_RW	15	Rpleas_acq	CS_B	VKKV	BZZB	GWWG	MQQM	YDDY	JXXJ	retten	treu	fair	schön	spielen	ehrlich	rächen	tot	faul	schlecht	strafen	eitel	1	acq_USpleas_CSpleas1_RW	acq4567_RW	4	5	400	0	300	300	291	46	0	0	1	blank2r.bmp	0	1	+	0	1	blank2r.bmp	492	1	VKKV	492	1	blank2r.bmp	572	2	treu	866	1	!	-1	1	!	-1	0	0	0	0	0	0	0	0	0	0	0	0	0	0	0	0	0	0	0	0	0	0	0	0	0	0	0	0	0	0
070319	14:53:51	15:00:13	381067	5.0.10.0	5_exp_RW	15	Rpleas_acq	CS_B	VKKV	BZZB	GWWG	MQQM	YDDY	JXXJ	retten	treu	fair	schön	spielen	ehrlich	rächen	tot	faul	schlecht	strafen	eitel	1	acq_USunple_CSunple1_RW	acq4567_RW	4	6	400	0	300	300	211	50	0	0	1	blank2r.bmp	0	1	+	0	1	blank2r.bmp	492	1	GWWG	492	1	blank2r.bmp	572	3	faul	866	1	!	-1	1	!	-1	0	0	0	0	0	0	0	0	0	0	0	0	0	0	0	0	0	0	0	0	0	0	0	0	0	0	0	0	0	0
070319	14:53:51	15:00:15	383159	5.0.10.0	5_exp_RW	15	Rpleas_acq	CS_B	VKKV	BZZB	GWWG	MQQM	YDDY	JXXJ	retten	treu	fair	schön	spielen	ehrlich	rächen	tot	faul	schlecht	strafen	eitel	1	acq_USpleas_CSpleas2_RW	acq4567_RW	4	7	400	0	300	300	312	50	0	1	1	blank2r.bmp	0	1	+	0	1	blank2r.bmp	492	1	BZZB	492	1	blank2r.bmp	572	1	schön	866	1	!	-1	1	!	-1	0	0	0	0	0	0	0	0	0	0	0	0	0	0	0	0	0	0	0	0	0	0	0	0	0	0	0	0	0	0
070319	14:53:51	15:00:17	385238	5.0.10.0	5_exp_RW	15	Rpleas_acq	CS_B	VKKV	BZZB	GWWG	MQQM	YDDY	JXXJ	retten	treu	fair	schön	spielen	ehrlich	rächen	tot	faul	schlecht	strafen	eitel	1	acq_USunple_CSunple2_RW	acq4567_RW	4	8	400	0	300	300	298	50	0	0	1	blank2r.bmp	0	1	+	0	1	blank2r.bmp	492	1	MQQM	492	1	blank2r.bmp	572	3	eitel	866	1	!	-1	1	!	-1	0	0	0	0	0	0	0	0	0	0	0	0	0	0	0	0	0	0	0	0	0	0	0	0	0	0	0	0	0	0
070319	14:53:51	15:00:19	387397	5.0.10.0	5_exp_RW	15	Rpleas_acq	CS_B	VKKV	BZZB	GWWG	MQQM	YDDY	JXXJ	retten	treu	fair	schön	spielen	ehrlich	rächen	tot	faul	schlecht	strafen	eitel	1	acq_USunple_CSunple2_RW	acq4567_RW	4	9	400	1	300	300	346	46	0	1	1	blank2r.bmp	0	1	+	0	1	blank2r.bmp	492	1	MQQM	492	1	blank2r.bmp	572	2	strafen	866	1	!	1239	1	!	1252	0	0	0	0	0	0	0	0	0	0	0	0	0	0	0	0	0	0	0	0	0	0	0	0	0	0	0	0	0	0
070319	14:53:51	15:00:21	389636	5.0.10.0	5_exp_RW	15	Rpleas_acq	CS_B	VKKV	BZZB	GWWG	MQQM	YDDY	JXXJ	retten	treu	fair	schön	spielen	ehrlich	rächen	tot	faul	schlecht	strafen	eitel	1	acq_USpleas_CSpleas1_RW	acq4567_RW	4	10	400	1	300	300	446	50	0	1	1	blank2r.bmp	0	1	+	0	1	blank2r.bmp	492	1	VKKV	492	1	blank2r.bmp	572	3	fair	866	1	!	1239	1	!	1346	0	0	0	0	0	0	0	0	0	0	0	0	0	0	0	0	0	0	0	0	0	0	0	0	0	0	0	0	0	0
070319	14:53:51	15:00:24	391902	5.0.10.0	5_exp_RW	15	Rpleas_acq	CS_B	VKKV	BZZB	GWWG	MQQM	YDDY	JXXJ	retten	treu	fair	schön	spielen	ehrlich	rächen	tot	faul	schlecht	strafen	eitel	1	acq_USpleas_CSpleas1_RW	acq4567_RW	4	11	400	1	300	300	465	50	0	1	1	blank2r.bmp	0	1	+	0	1	blank2r.bmp	492	1	VKKV	492	1	blank2r.bmp	572	1	retten	866	1	!	1239	1	!	1372	0	0	0	0	0	0	0	0	0	0	0	0	0	0	0	0	0	0	0	0	0	0	0	0	0	0	0	0	0	0
070319	14:53:51	15:00:26	394088	5.0.10.0	5_exp_RW	15	Rpleas_acq	CS_B	VKKV	BZZB	GWWG	MQQM	YDDY	JXXJ	retten	treu	fair	schön	spielen	ehrlich	rächen	tot	faul	schlecht	strafen	eitel	1	acq_USunple_CSunple2_RW	acq4567_RW	4	12	400	1	300	300	394	46	0	1	1	blank2r.bmp	0	1	+	0	1	blank2r.bmp	492	1	MQQM	492	1	blank2r.bmp	572	2	strafen	866	1	!	1239	1	!	1292	0	0	0	0	0	0	0	0	0	0	0	0	0	0	0	0	0	0	0	0	0	0	0	0	0	0	0	0	0	0
070319	14:53:51	15:00:28	396140	5.0.10.0	5_exp_RW	15	Rpleas_acq	CS_B	VKKV	BZZB	GWWG	MQQM	YDDY	JXXJ	retten	treu	fair	schön	spielen	ehrlich	rächen	tot	faul	schlecht	strafen	eitel	1	acq_USunple_CSunple1_RW	acq4567_RW	4	13	400	0	300	300	266	50	0	0	1	blank2r.bmp	0	1	+	0	1	blank2r.bmp	492	1	GWWG	492	1	blank2r.bmp	572	1	rächen	866	1	!	-1	1	!	-1	0	0	0	0	0	0	0	0	0	0	0	0	0	0	0	0	0	0	0	0	0	0	0	0	0	0	0	0	0	0
070319	14:53:51	15:00:30	398299	5.0.10.0	5_exp_RW	15	Rpleas_acq	CS_B	VKKV	BZZB	GWWG	MQQM	YDDY	JXXJ	retten	treu	fair	schön	spielen	ehrlich	rächen	tot	faul	schlecht	strafen	eitel	1	acq_USunple_CSunple1_RW	acq4567_RW	4	14	400	1	300	300	354	46	0	1	1	blank2r.bmp	0	1	+	0	1	blank2r.bmp	492	1	GWWG	492	1	blank2r.bmp	572	3	faul	866	1	!	1239	1	!	1252	0	0	0	0	0	0	0	0	0	0	0	0	0	0	0	0	0	0	0	0	0	0	0	0	0	0	0	0	0	0
070319	14:53:51	15:00:32	400498	5.0.10.0	5_exp_RW	15	Rpleas_acq	CS_B	VKKV	BZZB	GWWG	MQQM	YDDY	JXXJ	retten	treu	fair	schön	spielen	ehrlich	rächen	tot	faul	schlecht	strafen	eitel	1	acq_USunple_CSunple2_RW	acq4567_RW	4	15	400	1	300	300	387	46	0	1	1	blank2r.bmp	0	1	+	0	1	blank2r.bmp	492	1	MQQM	492	1	blank2r.bmp	572	1	schlecht	866	1	!	1239	1	!	1292	0	0	0	0	0	0	0	0	0	0	0	0	0	0	0	0	0	0	0	0	0	0	0	0	0	0	0	0	0	0
070319	14:53:51	15:00:34	402551	5.0.10.0	5_exp_RW	15	Rpleas_acq	CS_B	VKKV	BZZB	GWWG	MQQM	YDDY	JXXJ	retten	treu	fair	schön	spielen	ehrlich	rächen	tot	faul	schlecht	strafen	eitel	1	acq_USpleas_CSpleas1_RW	acq4567_RW	4	16	400	0	300	300	274	50	0	1	1	blank2r.bmp	0	1	+	0	1	blank2r.bmp	492	1	VKKV	492	1	blank2r.bmp	572	2	treu	866	1	!	-1	1	!	-1	0	0	0	0	0	0	0	0	0	0	0	0	0	0	0	0	0	0	0	0	0	0	0	0	0	0	0	0	0	0
070319	14:53:51	15:00:36	404590	5.0.10.0	5_exp_RW	15	Rpleas_acq	CS_B	VKKV	BZZB	GWWG	MQQM	YDDY	JXXJ	retten	treu	fair	schön	spielen	ehrlich	rächen	tot	faul	schlecht	strafen	eitel	1	acq_USpleas_CSpleas2_RW	acq4567_RW	4	17	400	0	300	300	252	50	0	1	1	blank2r.bmp	0	1	+	0	1	blank2r.bmp	492	1	BZZB	492	1	blank2r.bmp	572	3	ehrlich	866	1	!	-1	1	!	-1	0	0	0	0	0	0	0	0	0	0	0	0	0	0	0	0	0	0	0	0	0	0	0	0	0	0	0	0	0	0
070319	14:53:51	15:00:38	406709	5.0.10.0	5_exp_RW	15	Rpleas_acq	CS_B	VKKV	BZZB	GWWG	MQQM	YDDY	JXXJ	retten	treu	fair	schön	spielen	ehrlich	rächen	tot	faul	schlecht	strafen	eitel	1	acq_USpleas_CSpleas1_RW	acq4567_RW	4	18	400	0	300	300	320	50	0	1	1	blank2r.bmp	0	1	+	0	1	blank2r.bmp	492	1	VKKV	492	1	blank2r.bmp	572	3	fair	866	1	!	-1	1	!	-1	0	0	0	0	0	0	0	0	0	0	0	0	0	0	0	0	0	0	0	0	0	0	0	0	0	0	0	0	0	0
070319	14:53:51	15:00:40	408735	5.0.10.0	5_exp_RW	15	Rpleas_acq	CS_B	VKKV	BZZB	GWWG	MQQM	YDDY	JXXJ	retten	treu	fair	schön	spielen	ehrlich	rächen	tot	faul	schlecht	strafen	eitel	1	acq_USunple_CSunple2_RW	acq4567_RW	4	19	400	0	300	300	245	50	0	0	1	blank2r.bmp	0	1	+	0	1	blank2r.bmp	492	1	MQQM	492	1	blank2r.bmp	572	3	eitel	866	1	!	-1	1	!	-1	0	0	0	0	0	0	0	0	0	0	0	0	0	0	0	0	0	0	0	0	0	0	0	0	0	0	0	0	0	0
070319	14:53:51	15:00:43	410894	5.0.10.0	5_exp_RW	15	Rpleas_acq	CS_B	VKKV	BZZB	GWWG	MQQM	YDDY	JXXJ	retten	treu	fair	schön	spielen	ehrlich	rächen	tot	faul	schlecht	strafen	eitel	1	acq_USunple_CSunple1_RW	acq4567_RW	4	20	400	1	300	300	350	46	0	1	1	blank2r.bmp	0	1	+	0	1	blank2r.bmp	492	1	GWWG	492	1	blank2r.bmp	572	2	tot	866	1	!	1239	1	!	1252	0	0	0	0	0	0	0	0	0	0	0	0	0	0	0	0	0	0	0	0	0	0	0	0	0	0	0	0	0	0
070319	14:53:51	15:00:45	412960	5.0.10.0	5_exp_RW	15	Rpleas_acq	CS_B	VKKV	BZZB	GWWG	MQQM	YDDY	JXXJ	retten	treu	fair	schön	spielen	ehrlich	rächen	tot	faul	schlecht	strafen	eitel	1	acq_USpleas_CSpleas1_RW	acq4567_RW	4	21	400	0	300	300	300	50	0	1	1	blank2r.bmp	0	1	+	0	1	blank2r.bmp	492	1	VKKV	492	1	blank2r.bmp	572	3	fair	866	1	!	-1	1	!	-1	0	0	0	0	0	0	0	0	0	0	0	0	0	0	0	0	0	0	0	0	0	0	0	0	0	0	0	0	0	0
070319	14:53:51	15:00:47	415026	5.0.10.0	5_exp_RW	15	Rpleas_acq	CS_B	VKKV	BZZB	GWWG	MQQM	YDDY	JXXJ	retten	treu	fair	schön	spielen	ehrlich	rächen	tot	faul	schlecht	strafen	eitel	1	acq_USunple_CSunple2_RW	acq4567_RW	4	22	400	0	300	300	279	50	0	0	1	blank2r.bmp	0	1	+	0	1	blank2r.bmp	492	1	MQQM	492	1	blank2r.bmp	572	2	strafen	866	1	!	-1	1	!	-1	0	0	0	0	0	0	0	0	0	0	0	0	0	0	0	0	0	0	0	0	0	0	0	0	0	0	0	0	0	0
070319	14:53:51	15:00:49	417225	5.0.10.0	5_exp_RW	15	Rpleas_acq	CS_B	VKKV	BZZB	GWWG	MQQM	YDDY	JXXJ	retten	treu	fair	schön	spielen	ehrlich	rächen	tot	faul	schlecht	strafen	eitel	1	acq_USunple_CSunple1_RW	acq4567_RW	4	23	400	1	300	300	381	46	0	1	1	blank2r.bmp	0	1	+	0	1	blank2r.bmp	492	1	GWWG	492	1	blank2r.bmp	572	1	rächen	866	1	!	1239	1	!	1279	0	0	0	0	0	0	0	0	0	0	0	0	0	0	0	0	0	0	0	0	0	0	0	0	0	0	0	0	0	0
070319	14:53:51	15:00:51	419251	5.0.10.0	5_exp_RW	15	Rpleas_acq	CS_B	VKKV	BZZB	GWWG	MQQM	YDDY	JXXJ	retten	treu	fair	schön	spielen	ehrlich	rächen	tot	faul	schlecht	strafen	eitel	1	acq_USunple_CSunple1_RW	acq4567_RW	4	24	400	0	300	300	259	50	0	0	1	blank2r.bmp	0	1	+	0	1	blank2r.bmp	492	1	GWWG	492	1	blank2r.bmp	572	3	faul	866	1	!	-1	1	!	-1	0	0	0	0	0	0	0	0	0	0	0	0	0	0	0	0	0	0	0	0	0	0	0	0	0	0	0	0	0	0
070319	14:53:51	15:00:53	421303	5.0.10.0	5_exp_RW	15	Rpleas_acq	CS_B	VKKV	BZZB	GWWG	MQQM	YDDY	JXXJ	retten	treu	fair	schön	spielen	ehrlich	rächen	tot	faul	schlecht	strafen	eitel	1	acq_USunple_CSunple2_RW	acq4567_RW	4	25	400	0	300	300	270	46	0	1	1	blank2r.bmp	0	1	+	0	1	blank2r.bmp	492	1	MQQM	492	1	blank2r.bmp	572	1	schlecht	866	1	!	-1	1	!	-1	0	0	0	0	0	0	0	0	0	0	0	0	0	0	0	0	0	0	0	0	0	0	0	0	0	0	0	0	0	0
070319	14:53:51	15:00:55	423356	5.0.10.0	5_exp_RW	15	Rpleas_acq	CS_B	VKKV	BZZB	GWWG	MQQM	YDDY	JXXJ	retten	treu	fair	schön	spielen	ehrlich	rächen	tot	faul	schlecht	strafen	eitel	1	acq_USpleas_CSpleas1_RW	acq4567_RW	4	26	400	0	300	300	271	50	0	1	1	blank2r.bmp	0	1	+	0	1	blank2r.bmp	492	1	VKKV	492	1	blank2r.bmp	572	1	retten	866	1	!	-1	1	!	-1	0	0	0	0	0	0	0	0	0	0	0	0	0	0	0	0	0	0	0	0	0	0	0	0	0	0	0	0	0	0
070319	14:53:51	15:00:57	425555	5.0.10.0	5_exp_RW	15	Rpleas_acq	CS_B	VKKV	BZZB	GWWG	MQQM	YDDY	JXXJ	retten	treu	fair	schön	spielen	ehrlich	rächen	tot	faul	schlecht	strafen	eitel	1	acq_USunple_CSunple1_RW	acq4567_RW	4	27	400	1	300	300	380	46	0	1	1	blank2r.bmp	0	1	+	0	1	blank2r.bmp	492	1	GWWG	492	1	blank2r.bmp	572	2	tot	866	1	!	1239	1	!	1279	0	0	0	0	0	0	0	0	0	0	0	0	0	0	0	0	0	0	0	0	0	0	0	0	0	0	0	0	0	0
070319	14:53:51	15:00:59	427700	5.0.10.0	5_exp_RW	15	Rpleas_acq	CS_B	VKKV	BZZB	GWWG	MQQM	YDDY	JXXJ	retten	treu	fair	schön	spielen	ehrlich	rächen	tot	faul	schlecht	strafen	eitel	1	acq_USpleas_CSpleas2_RW	acq4567_RW	4	28	400	1	300	300	346	50	0	1	1	blank2r.bmp	0	1	+	0	1	blank2r.bmp	492	1	BZZB	492	1	blank2r.bmp	572	3	ehrlich	866	1	!	1239	1	!	1252	0	0	0	0	0	0	0	0	0	0	0	0	0	0	0	0	0	0	0	0	0	0	0	0	0	0	0	0	0	0
070319	14:53:51	15:01:02	429846	5.0.10.0	5_exp_RW	15	Rpleas_acq	CS_B	VKKV	BZZB	GWWG	MQQM	YDDY	JXXJ	retten	treu	fair	schön	spielen	ehrlich	rächen	tot	faul	schlecht	strafen	eitel	1	acq_USpleas_CSpleas1_RW	acq4567_RW	4	29	400	1	300	300	357	50	0	1	1	blank2r.bmp	0	1	+	0	1	blank2r.bmp	492	1	VKKV	492	1	blank2r.bmp	572	2	treu	866	1	!	1239	1	!	1252	0	0	0	0	0	0	0	0	0	0	0	0	0	0	0	0	0	0	0	0	0	0	0	0	0	0	0	0	0	0
070319	14:53:51	15:01:04	431885	5.0.10.0	5_exp_RW	15	Rpleas_acq	CS_B	VKKV	BZZB	GWWG	MQQM	YDDY	JXXJ	retten	treu	fair	schön	spielen	ehrlich	rächen	tot	faul	schlecht	strafen	eitel	1	acq_USpleas_CSpleas2_RW	acq4567_RW	4	30	400	0	300	300	276	50	0	1	1	blank2r.bmp	0	1	+	0	1	blank2r.bmp	492	1	BZZB	492	1	blank2r.bmp	572	1	schön	866	1	!	-1	1	!	-1	0	0	0	0	0	0	0	0	0	0	0	0	0	0	0	0	0	0	0	0	0	0	0	0	0	0	0	0	0	0
070319	14:53:51	15:01:06	434098	5.0.10.0	5_exp_RW	15	Rpleas_acq	CS_B	VKKV	BZZB	GWWG	MQQM	YDDY	JXXJ	retten	treu	fair	schön	spielen	ehrlich	rächen	tot	faul	schlecht	strafen	eitel	1	acq_USunple_CSunple2_RW	acq4567_RW	4	31	400	1	300	300	407	50	0	0	1	blank2r.bmp	0	1	+	0	1	blank2r.bmp	492	1	MQQM	492	1	blank2r.bmp	572	3	eitel	866	1	!	1239	1	!	1306	0	0	0	0	0	0	0	0	0	0	0	0	0	0	0	0	0	0	0	0	0	0	0	0	0	0	0	0	0	0
070319	14:53:51	15:01:08	436270	5.0.10.0	5_exp_RW	15	Rpleas_acq	CS_B	VKKV	BZZB	GWWG	MQQM	YDDY	JXXJ	retten	treu	fair	schön	spielen	ehrlich	rächen	tot	faul	schlecht	strafen	eitel	1	acq_USpleas_CSpleas1_RW	acq4567_RW	4	32	400	1	300	300	383	50	0	1	1	blank2r.bmp	0	1	+	0	1	blank2r.bmp	492	1	VKKV	492	1	blank2r.bmp	572	1	retten	866	1	!	1239	1	!	1279	0	0	0	0	0	0	0	0	0	0	0	0	0	0	0	0	0	0	0	0	0	0	0	0	0	0	0	0	0	0
070319	14:53:51	15:01:10	438376	5.0.10.0	5_exp_RW	15	Rpleas_acq	CS_B	VKKV	BZZB	GWWG	MQQM	YDDY	JXXJ	retten	treu	fair	schön	spielen	ehrlich	rächen	tot	faul	schlecht	strafen	eitel	1	acq_USpleas_CSpleas2_RW	acq4567_RW	4	33	400	0	300	300	324	50	0	1	1	blank2r.bmp	0	1	+	0	1	blank2r.bmp	492	1	BZZB	492	1	blank2r.bmp	572	2	spielen	866	1	!	-1	1	!	-1	0	0	0	0	0	0	0	0	0	0	0	0	0	0	0	0	0	0	0	0	0	0	0	0	0	0	0	0	0	0
070319	14:53:51	15:01:12	440468	5.0.10.0	5_exp_RW	15	Rpleas_acq	CS_B	VKKV	BZZB	GWWG	MQQM	YDDY	JXXJ	retten	treu	fair	schön	spielen	ehrlich	rächen	tot	faul	schlecht	strafen	eitel	1	acq_USunple_CSunple2_RW	acq4567_RW	4	34	400	0	300	300	306	50	0	0	1	blank2r.bmp	0	1	+	0	1	blank2r.bmp	492	1	MQQM	492	1	blank2r.bmp	572	3	eitel	866	1	!	-1	1	!	-1	0	0	0	0	0	0	0	0	0	0	0	0	0	0	0	0	0	0	0	0	0	0	0	0	0	0	0	0	0	0
070319	14:53:51	15:01:14	442641	5.0.10.0	5_exp_RW	15	Rpleas_acq	CS_B	VKKV	BZZB	GWWG	MQQM	YDDY	JXXJ	retten	treu	fair	schön	spielen	ehrlich	rächen	tot	faul	schlecht	strafen	eitel	1	acq_USunple_CSunple2_RW	acq4567_RW	4	35	400	1	300	300	354	46	0	1	1	blank2r.bmp	0	1	+	0	1	blank2r.bmp	492	1	MQQM	492	1	blank2r.bmp	572	1	schlecht	866	1	!	1239	1	!	1252	0	0	0	0	0	0	0	0	0	0	0	0	0	0	0	0	0	0	0	0	0	0	0	0	0	0	0	0	0	0
070319	14:53:51	15:01:16	444733	5.0.10.0	5_exp_RW	15	Rpleas_acq	CS_B	VKKV	BZZB	GWWG	MQQM	YDDY	JXXJ	retten	treu	fair	schön	spielen	ehrlich	rächen	tot	faul	schlecht	strafen	eitel	1	acq_USpleas_CSpleas1_RW	acq4567_RW	4	36	400	0	300	300	329	50	0	1	1	blank2r.bmp	0	1	+	0	1	blank2r.bmp	492	1	VKKV	492	1	blank2r.bmp	572	3	fair	866	1	!	-1	1	!	-1	0	0	0	0	0	0	0	0	0	0	0	0	0	0	0	0	0	0	0	0	0	0	0	0	0	0	0	0	0	0
070319	14:53:51	15:01:19	446906	5.0.10.0	5_exp_RW	15	Rpleas_acq	CS_B	VKKV	BZZB	GWWG	MQQM	YDDY	JXXJ	retten	treu	fair	schön	spielen	ehrlich	rächen	tot	faul	schlecht	strafen	eitel	1	acq_USunple_CSunple1_RW	acq4567_RW	4	37	400	1	300	300	363	46	0	1	1	blank2r.bmp	0	1	+	0	1	blank2r.bmp	492	1	GWWG	492	1	blank2r.bmp	572	2	tot	866	1	!	1239	1	!	1266	0	0	0	0	0	0	0	0	0	0	0	0	0	0	0	0	0	0	0	0	0	0	0	0	0	0	0	0	0	0
070319	14:53:51	15:01:21	449051	5.0.10.0	5_exp_RW	15	Rpleas_acq	CS_B	VKKV	BZZB	GWWG	MQQM	YDDY	JXXJ	retten	treu	fair	schön	spielen	ehrlich	rächen	tot	faul	schlecht	strafen	eitel	1	acq_USunple_CSunple1_RW	acq4567_RW	4	38	400	1	300	300	346	46	0	1	1	blank2r.bmp	0	1	+	0	1	blank2r.bmp	492	1	GWWG	492	1	blank2r.bmp	572	1	rächen	866	1	!	1239	1	!	1252	0	0	0	0	0	0	0	0	0	0	0	0	0	0	0	0	0	0	0	0	0	0	0	0	0	0	0	0	0	0
070319	14:53:51	15:01:23	451077	5.0.10.0	5_exp_RW	15	Rpleas_acq	CS_B	VKKV	BZZB	GWWG	MQQM	YDDY	JXXJ	retten	treu	fair	schön	spielen	ehrlich	rächen	tot	faul	schlecht	strafen	eitel	1	acq_USpleas_CSpleas2_RW	acq4567_RW	4	39	400	0	300	300	260	50	0	1	1	blank2r.bmp	0	1	+	0	1	blank2r.bmp	492	1	BZZB	492	1	blank2r.bmp	572	3	ehrlich	866	1	!	-1	1	!	-1	0	0	0	0	0	0	0	0	0	0	0	0	0	0	0	0	0	0	0	0	0	0	0	0	0	0	0	0	0	0
070319	14:53:51	15:01:25	453130	5.0.10.0	5_exp_RW	15	Rpleas_acq	CS_B	VKKV	BZZB	GWWG	MQQM	YDDY	JXXJ	retten	treu	fair	schön	spielen	ehrlich	rächen	tot	faul	schlecht	strafen	eitel	1	acq_USpleas_CSpleas2_RW	acq4567_RW	4	40	400	0	300	300	265	50	0	1	1	blank2r.bmp	0	1	+	0	1	blank2r.bmp	492	1	BZZB	492	1	blank2r.bmp	572	2	spielen	866	1	!	-1	1	!	-1	0	0	0	0	0	0	0	0	0	0	0	0	0	0	0	0	0	0	0	0	0	0	0	0	0	0	0	0	0	0
070319	14:53:51	15:01:27	455142	5.0.10.0	5_exp_RW	15	Rpleas_acq	CS_B	VKKV	BZZB	GWWG	MQQM	YDDY	JXXJ	retten	treu	fair	schön	spielen	ehrlich	rächen	tot	faul	schlecht	strafen	eitel	1	acq_USpleas_CSpleas1_RW	acq4567_RW	4	41	400	0	300	300	235	50	0	1	1	blank2r.bmp	0	1	+	0	1	blank2r.bmp	492	1	VKKV	492	1	blank2r.bmp	572	2	treu	866	1	!	-1	1	!	-1	0	0	0	0	0	0	0	0	0	0	0	0	0	0	0	0	0	0	0	0	0	0	0	0	0	0	0	0	0	0
070319	14:53:51	15:01:29	457315	5.0.10.0	5_exp_RW	15	Rpleas_acq	CS_B	VKKV	BZZB	GWWG	MQQM	YDDY	JXXJ	retten	treu	fair	schön	spielen	ehrlich	rächen	tot	faul	schlecht	strafen	eitel	1	acq_USpleas_CSpleas1_RW	acq4567_RW	4	42	400	1	300	300	367	50	0	1	1	blank2r.bmp	0	1	+	0	1	blank2r.bmp	492	1	VKKV	492	1	blank2r.bmp	572	3	fair	866	1	!	1239	1	!	1266	0	0	0	0	0	0	0	0	0	0	0	0	0	0	0	0	0	0	0	0	0	0	0	0	0	0	0	0	0	0
070319	14:53:51	15:01:31	459407	5.0.10.0	5_exp_RW	15	Rpleas_acq	CS_B	VKKV	BZZB	GWWG	MQQM	YDDY	JXXJ	retten	treu	fair	schön	spielen	ehrlich	rächen	tot	faul	schlecht	strafen	eitel	1	acq_USpleas_CSpleas1_RW	acq4567_RW	4	43	400	0	300	300	312	50	0	1	1	blank2r.bmp	0	1	+	0	1	blank2r.bmp	492	1	VKKV	492	1	blank2r.bmp	572	1	retten	866	1	!	-1	1	!	-1	0	0	0	0	0	0	0	0	0	0	0	0	0	0	0	0	0	0	0	0	0	0	0	0	0	0	0	0	0	0
070319	14:53:51	15:01:33	461646	5.0.10.0	5_exp_RW	15	Rpleas_acq	CS_B	VKKV	BZZB	GWWG	MQQM	YDDY	JXXJ	retten	treu	fair	schön	spielen	ehrlich	rächen	tot	faul	schlecht	strafen	eitel	1	acq_USunple_CSunple1_RW	acq4567_RW	4	44	400	1	300	300	422	46	0	1	1	blank2r.bmp	0	1	+	0	1	blank2r.bmp	492	1	GWWG	492	1	blank2r.bmp	572	3	faul	866	1	!	1239	1	!	1319	0	0	0	0	0	0	0	0	0	0	0	0	0	0	0	0	0	0	0	0	0	0	0	0	0	0	0	0	0	0
070319	14:53:51	15:01:35	463685	5.0.10.0	5_exp_RW	15	Rpleas_acq	CS_B	VKKV	BZZB	GWWG	MQQM	YDDY	JXXJ	retten	treu	fair	schön	spielen	ehrlich	rächen	tot	faul	schlecht	strafen	eitel	1	acq_USunple_CSunple1_RW	acq4567_RW	4	45	400	0	300	300	275	46	0	1	1	blank2r.bmp	0	1	+	0	1	blank2r.bmp	492	1	GWWG	492	1	blank2r.bmp	572	3	faul	866	1	!	-1	1	!	-1	0	0	0	0	0	0	0	0	0	0	0	0	0	0	0	0	0	0	0	0	0	0	0	0	0	0	0	0	0	0
070319	14:53:51	15:01:37	465738	5.0.10.0	5_exp_RW	15	Rpleas_acq	CS_B	VKKV	BZZB	GWWG	MQQM	YDDY	JXXJ	retten	treu	fair	schön	spielen	ehrlich	rächen	tot	faul	schlecht	strafen	eitel	1	acq_USpleas_CSpleas1_RW	acq4567_RW	4	46	400	0	300	300	268	50	0	1	1	blank2r.bmp	0	1	+	0	1	blank2r.bmp	492	1	VKKV	492	1	blank2r.bmp	572	2	treu	866	1	!	-1	1	!	-1	0	0	0	0	0	0	0	0	0	0	0	0	0	0	0	0	0	0	0	0	0	0	0	0	0	0	0	0	0	0
070319	14:53:51	15:01:40	467910	5.0.10.0	5_exp_RW	15	Rpleas_acq	CS_B	VKKV	BZZB	GWWG	MQQM	YDDY	JXXJ	retten	treu	fair	schön	spielen	ehrlich	rächen	tot	faul	schlecht	strafen	eitel	1	acq_USunple_CSunple2_RW	acq4567_RW	4	47	400	1	300	300	368	46	0	1	1	blank2r.bmp	0	1	+	0	1	blank2r.bmp	492	1	MQQM	492	1	blank2r.bmp	572	2	strafen	866	1	!	1239	1	!	1266	0	0	0	0	0	0	0	0	0	0	0	0	0	0	0	0	0	0	0	0	0	0	0	0	0	0	0	0	0	0
070319	14:53:51	15:01:42	470003	5.0.10.0	5_exp_RW	15	Rpleas_acq	CS_B	VKKV	BZZB	GWWG	MQQM	YDDY	JXXJ	retten	treu	fair	schön	spielen	ehrlich	rächen	tot	faul	schlecht	strafen	eitel	1	acq_USpleas_CSpleas2_RW	acq4567_RW	4	48	400	0	300	300	319	50	0	1	1	blank2r.bmp	0	1	+	0	1	blank2r.bmp	492	1	BZZB	492	1	blank2r.bmp	572	1	schön	866	1	!	-1	1	!	-1	0	0	0	0	0	0	0	0	0	0	0	0	0	0	0	0	0	0	0	0	0	0	0	0	0	0	0	0	0	0
070319	14:53:51	15:01:44	472162	5.0.10.0	5_exp_RW	15	Rpleas_acq	CS_B	VKKV	BZZB	GWWG	MQQM	YDDY	JXXJ	retten	treu	fair	schön	spielen	ehrlich	rächen	tot	faul	schlecht	strafen	eitel	1	acq_USpleas_CSpleas1_RW	acq4567_RW	4	49	400	1	300	300	346	50	0	1	1	blank2r.bmp	0	1	+	0	1	blank2r.bmp	492	1	VKKV	492	1	blank2r.bmp	572	3	fair	866	1	!	1239	1	!	1252	0	0	0	0	0	0	0	0	0	0	0	0	0	0	0	0	0	0	0	0	0	0	0	0	0	0	0	0	0	0
070319	14:53:51	15:01:46	474388	5.0.10.0	5_exp_RW	15	Rpleas_acq	CS_B	VKKV	BZZB	GWWG	MQQM	YDDY	JXXJ	retten	treu	fair	schön	spielen	ehrlich	rächen	tot	faul	schlecht	strafen	eitel	1	acq_USpleas_CSpleas2_RW	acq4567_RW	4	50	400	1	300	300	428	50	0	1	1	blank2r.bmp	0	1	+	0	1	blank2r.bmp	492	1	BZZB	492	1	blank2r.bmp	572	3	ehrlich	866	1	!	1239	1	!	1332	0	0	0	0	0	0	0	0	0	0	0	0	0	0	0	0	0	0	0	0	0	0	0	0	0	0	0	0	0	0
070319	14:53:51	15:01:48	476427	5.0.10.0	5_exp_RW	15	Rpleas_acq	CS_B	VKKV	BZZB	GWWG	MQQM	YDDY	JXXJ	retten	treu	fair	schön	spielen	ehrlich	rächen	tot	faul	schlecht	strafen	eitel	1	acq_USpleas_CSpleas2_RW	acq4567_RW	4	51	400	0	300	300	268	50	0	1	1	blank2r.bmp	0	1	+	0	1	blank2r.bmp	492	1	BZZB	492	1	blank2r.bmp	572	2	spielen	866	1	!	-1	1	!	-1	0	0	0	0	0	0	0	0	0	0	0	0	0	0	0	0	0	0	0	0	0	0	0	0	0	0	0	0	0	0
070319	14:53:51	15:01:50	478532	5.0.10.0	5_exp_RW	15	Rpleas_acq	CS_B	VKKV	BZZB	GWWG	MQQM	YDDY	JXXJ	retten	treu	fair	schön	spielen	ehrlich	rächen	tot	faul	schlecht	strafen	eitel	1	acq_USpleas_CSpleas2_RW	acq4567_RW	4	52	400	0	300	300	315	50	0	1	1	blank2r.bmp	0	1	+	0	1	blank2r.bmp	492	1	BZZB	492	1	blank2r.bmp	572	1	schön	866	1	!	-1	1	!	-1	0	0	0	0	0	0	0	0	0	0	0	0	0	0	0	0	0	0	0	0	0	0	0	0	0	0	0	0	0	0
070319	14:53:51	15:01:52	480745	5.0.10.0	5_exp_RW	15	Rpleas_acq	CS_B	VKKV	BZZB	GWWG	MQQM	YDDY	JXXJ	retten	treu	fair	schön	spielen	ehrlich	rächen	tot	faul	schlecht	strafen	eitel	1	acq_USunple_CSunple1_RW	acq4567_RW	4	53	400	1	300	300	391	46	0	1	1	blank2r.bmp	0	1	+	0	1	blank2r.bmp	492	1	GWWG	492	1	blank2r.bmp	572	1	rächen	866	1	!	1239	1	!	1292	0	0	0	0	0	0	0	0	0	0	0	0	0	0	0	0	0	0	0	0	0	0	0	0	0	0	0	0	0	0
070319	14:53:51	15:01:55	482824	5.0.10.0	5_exp_RW	15	Rpleas_acq	CS_B	VKKV	BZZB	GWWG	MQQM	YDDY	JXXJ	retten	treu	fair	schön	spielen	ehrlich	rächen	tot	faul	schlecht	strafen	eitel	1	acq_USunple_CSunple1_RW	acq4567_RW	4	54	400	0	300	300	300	46	0	1	1	blank2r.bmp	0	1	+	0	1	blank2r.bmp	492	1	GWWG	492	1	blank2r.bmp	572	2	tot	866	1	!	-1	1	!	-1	0	0	0	0	0	0	0	0	0	0	0	0	0	0	0	0	0	0	0	0	0	0	0	0	0	0	0	0	0	0
070319	14:53:51	15:01:57	485023	5.0.10.0	5_exp_RW	15	Rpleas_acq	CS_B	VKKV	BZZB	GWWG	MQQM	YDDY	JXXJ	retten	treu	fair	schön	spielen	ehrlich	rächen	tot	faul	schlecht	strafen	eitel	1	acq_USpleas_CSpleas2_RW	acq4567_RW	4	55	400	1	300	300	390	50	0	1	1	blank2r.bmp	0	1	+	0	1	blank2r.bmp	492	1	BZZB	492	1	blank2r.bmp	572	3	ehrlich	866	1	!	1239	1	!	1292	0	0	0	0	0	0	0	0	0	0	0	0	0	0	0	0	0	0	0	0	0	0	0	0	0	0	0	0	0	0
070319	14:53:51	15:01:59	487195	5.0.10.0	5_exp_RW	15	Rpleas_acq	CS_B	VKKV	BZZB	GWWG	MQQM	YDDY	JXXJ	retten	treu	fair	schön	spielen	ehrlich	rächen	tot	faul	schlecht	strafen	eitel	1	acq_USunple_CSunple2_RW	acq4567_RW	4	56	400	1	300	300	381	46	0	1	1	blank2r.bmp	0	1	+	0	1	blank2r.bmp	492	1	MQQM	492	1	blank2r.bmp	572	2	strafen	866	1	!	1239	1	!	1279	0	0	0	0	0	0	0	0	0	0	0	0	0	0	0	0	0	0	0	0	0	0	0	0	0	0	0	0	0	0
070319	14:53:51	15:02:01	489221	5.0.10.0	5_exp_RW	15	Rpleas_acq	CS_B	VKKV	BZZB	GWWG	MQQM	YDDY	JXXJ	retten	treu	fair	schön	spielen	ehrlich	rächen	tot	faul	schlecht	strafen	eitel	1	acq_USunple_CSunple2_RW	acq4567_RW	4	57	400	0	300	300	256	46	0	1	1	blank2r.bmp	0	1	+	0	1	blank2r.bmp	492	1	MQQM	492	1	blank2r.bmp	572	3	eitel	866	1	!	-1	1	!	-1	0	0	0	0	0	0	0	0	0	0	0	0	0	0	0	0	0	0	0	0	0	0	0	0	0	0	0	0	0	0
070319	14:53:51	15:02:03	491380	5.0.10.0	5_exp_RW	15	Rpleas_acq	CS_B	VKKV	BZZB	GWWG	MQQM	YDDY	JXXJ	retten	treu	fair	schön	spielen	ehrlich	rächen	tot	faul	schlecht	strafen	eitel	1	acq_USunple_CSunple2_RW	acq4567_RW	4	58	400	1	300	300	346	46	0	1	1	blank2r.bmp	0	1	+	0	1	blank2r.bmp	492	1	MQQM	492	1	blank2r.bmp	572	1	schlecht	866	1	!	1239	1	!	1252	0	0	0	0	0	0	0	0	0	0	0	0	0	0	0	0	0	0	0	0	0	0	0	0	0	0	0	0	0	0
070319	14:53:51	15:02:05	493553	5.0.10.0	5_exp_RW	15	Rpleas_acq	CS_B	VKKV	BZZB	GWWG	MQQM	YDDY	JXXJ	retten	treu	fair	schön	spielen	ehrlich	rächen	tot	faul	schlecht	strafen	eitel	1	acq_USunple_CSunple1_RW	acq4567_RW	4	59	400	1	300	300	381	46	0	1	1	blank2r.bmp	0	1	+	0	1	blank2r.bmp	492	1	GWWG	492	1	blank2r.bmp	572	1	rächen	866	1	!	1239	1	!	1279	0	0	0	0	0	0	0	0	0	0	0	0	0	0	0	0	0	0	0	0	0	0	0	0	0	0	0	0	0	0
070319	14:53:51	15:02:07	495605	5.0.10.0	5_exp_RW	15	Rpleas_acq	CS_B	VKKV	BZZB	GWWG	MQQM	YDDY	JXXJ	retten	treu	fair	schön	spielen	ehrlich	rächen	tot	faul	schlecht	strafen	eitel	1	acq_USunple_CSunple2_RW	acq4567_RW	4	60	400	0	300	300	267	50	0	0	1	blank2r.bmp	0	1	+	0	1	blank2r.bmp	492	1	MQQM	492	1	blank2r.bmp	572	3	eitel	866	1	!	-1	1	!	-1	0	0	0	0	0	0	0	0	0	0	0	0	0	0	0	0	0	0	0	0	0	0	0	0	0	0	0	0	0	0
070319	14:53:51	15:02:09	497684	5.0.10.0	5_exp_RW	15	Rpleas_acq	CS_B	VKKV	BZZB	GWWG	MQQM	YDDY	JXXJ	retten	treu	fair	schön	spielen	ehrlich	rächen	tot	faul	schlecht	strafen	eitel	1	acq_USunple_CSunple2_RW	acq4567_RW	4	61	400	0	300	300	297	46	0	1	1	blank2r.bmp	0	1	+	0	1	blank2r.bmp	492	1	MQQM	492	1	blank2r.bmp	572	2	strafen	866	1	!	-1	1	!	-1	0	0	0	0	0	0	0	0	0	0	0	0	0	0	0	0	0	0	0	0	0	0	0	0	0	0	0	0	0	0
070319	14:53:51	15:02:12	499790	5.0.10.0	5_exp_RW	15	Rpleas_acq	CS_B	VKKV	BZZB	GWWG	MQQM	YDDY	JXXJ	retten	treu	fair	schön	spielen	ehrlich	rächen	tot	faul	schlecht	strafen	eitel	1	acq_USunple_CSunple2_RW	acq4567_RW	4	62	400	0	300	300	327	46	0	1	1	blank2r.bmp	0	1	+	0	1	blank2r.bmp	492	1	MQQM	492	1	blank2r.bmp	572	1	schlecht	866	1	!	-1	1	!	-1	0	0	0	0	0	0	0	0	0	0	0	0	0	0	0	0	0	0	0	0	0	0	0	0	0	0	0	0	0	0
070319	14:53:51	15:02:14	501949	5.0.10.0	5_exp_RW	15	Rpleas_acq	CS_B	VKKV	BZZB	GWWG	MQQM	YDDY	JXXJ	retten	treu	fair	schön	spielen	ehrlich	rächen	tot	faul	schlecht	strafen	eitel	1	acq_USunple_CSunple1_RW	acq4567_RW	4	63	400	1	300	300	346	46	0	1	1	blank2r.bmp	0	1	+	0	1	blank2r.bmp	492	1	GWWG	492	1	blank2r.bmp	572	2	tot	866	1	!	1239	1	!	1252	0	0	0	0	0	0	0	0	0	0	0	0	0	0	0	0	0	0	0	0	0	0	0	0	0	0	0	0	0	0
070319	14:53:51	15:02:16	504015	5.0.10.0	5_exp_RW	15	Rpleas_acq	CS_B	VKKV	BZZB	GWWG	MQQM	YDDY	JXXJ	retten	treu	fair	schön	spielen	ehrlich	rächen	tot	faul	schlecht	strafen	eitel	1	acq_USunple_CSunple1_RW	acq4567_RW	4	64	400	0	300	300	292	46	0	1	1	blank2r.bmp	0	1	+	0	1	blank2r.bmp	492	1	GWWG	492	1	blank2r.bmp	572	3	faul	866	1	!	-1	1	!	-1	0	0	0	0	0	0	0	0	0	0	0	0	0	0	0	0	0	0	0	0	0	0	0	0	0	0	0	0	0	0
070319	14:53:51	15:02:18	506054	5.0.10.0	5_exp_RW	15	Rpleas_acq	CS_B	VKKV	BZZB	GWWG	MQQM	YDDY	JXXJ	retten	treu	fair	schön	spielen	ehrlich	rächen	tot	faul	schlecht	strafen	eitel	1	acq_USunple_CSunple1_RW	acq4567_RW	4	65	400	0	300	300	262	46	0	1	1	blank2r.bmp	0	1	+	0	1	blank2r.bmp	492	1	GWWG	492	1	blank2r.bmp	572	1	rächen	866	1	!	-1	1	!	-1	0	0	0	0	0	0	0	0	0	0	0	0	0	0	0	0	0	0	0	0	0	0	0	0	0	0	0	0	0	0
070319	14:53:51	15:02:20	508227	5.0.10.0	5_exp_RW	15	Rpleas_acq	CS_B	VKKV	BZZB	GWWG	MQQM	YDDY	JXXJ	retten	treu	fair	schön	spielen	ehrlich	rächen	tot	faul	schlecht	strafen	eitel	1	acq_USunple_CSunple1_RW	acq4567_RW	4	66	400	1	300	300	365	46	0	1	1	blank2r.bmp	0	1	+	0	1	blank2r.bmp	492	1	GWWG	492	1	blank2r.bmp	572	3	faul	866	1	!	1239	1	!	1266	0	0	0	0	0	0	0	0	0	0	0	0	0	0	0	0	0	0	0	0	0	0	0	0	0	0	0	0	0	0
070319	14:53:51	15:02:22	510412	5.0.10.0	5_exp_RW	15	Rpleas_acq	CS_B	VKKV	BZZB	GWWG	MQQM	YDDY	JXXJ	retten	treu	fair	schön	spielen	ehrlich	rächen	tot	faul	schlecht	strafen	eitel	1	acq_USpleas_CSpleas2_RW	acq4567_RW	4	67	400	1	300	300	386	50	0	1	1	blank2r.bmp	0	1	+	0	1	blank2r.bmp	492	1	BZZB	492	1	blank2r.bmp	572	2	spielen	866	1	!	1239	1	!	1292	0	0	0	0	0	0	0	0	0	0	0	0	0	0	0	0	0	0	0	0	0	0	0	0	0	0	0	0	0	0
070319	14:53:51	15:02:24	512585	5.0.10.0	5_exp_RW	15	Rpleas_acq	CS_B	VKKV	BZZB	GWWG	MQQM	YDDY	JXXJ	retten	treu	fair	schön	spielen	ehrlich	rächen	tot	faul	schlecht	strafen	eitel	1	acq_USunple_CSunple2_RW	acq4567_RW	4	68	400	1	300	300	381	46	0	1	1	blank2r.bmp	0	1	+	0	1	blank2r.bmp	492	1	MQQM	492	1	blank2r.bmp	572	3	eitel	866	1	!	1239	1	!	1279	0	0	0	0	0	0	0	0	0	0	0	0	0	0	0	0	0	0	0	0	0	0	0	0	0	0	0	0	0	0
070319	14:53:51	15:02:26	514651	5.0.10.0	5_exp_RW	15	Rpleas_acq	CS_B	VKKV	BZZB	GWWG	MQQM	YDDY	JXXJ	retten	treu	fair	schön	spielen	ehrlich	rächen	tot	faul	schlecht	strafen	eitel	1	acq_USunple_CSunple2_RW	acq4567_RW	4	69	400	0	300	300	289	46	0	1	1	blank2r.bmp	0	1	+	0	1	blank2r.bmp	492	1	MQQM	492	1	blank2r.bmp	572	1	schlecht	866	1	!	-1	1	!	-1	0	0	0	0	0	0	0	0	0	0	0	0	0	0	0	0	0	0	0	0	0	0	0	0	0	0	0	0	0	0
070319	14:53:51	15:02:29	516850	5.0.10.0	5_exp_RW	15	Rpleas_acq	CS_B	VKKV	BZZB	GWWG	MQQM	YDDY	JXXJ	retten	treu	fair	schön	spielen	ehrlich	rächen	tot	faul	schlecht	strafen	eitel	1	acq_USpleas_CSpleas2_RW	acq4567_RW	4	70	400	1	300	300	392	50	0	1	1	blank2r.bmp	0	1	+	0	1	blank2r.bmp	492	1	BZZB	492	1	blank2r.bmp	572	1	schön	866	1	!	1239	1	!	1292	0	0	0	0	0	0	0	0	0	0	0	0	0	0	0	0	0	0	0	0	0	0	0	0	0	0	0	0	0	0
070319	14:53:51	15:02:31	518916	5.0.10.0	5_exp_RW	15	Rpleas_acq	CS_B	VKKV	BZZB	GWWG	MQQM	YDDY	JXXJ	retten	treu	fair	schön	spielen	ehrlich	rächen	tot	faul	schlecht	strafen	eitel	1	acq_USunple_CSunple2_RW	acq4567_RW	4	71	400	0	300	300	300	46	0	1	1	blank2r.bmp	0	1	+	0	1	blank2r.bmp	492	1	MQQM	492	1	blank2r.bmp	572	2	strafen	866	1	!	-1	1	!	-1	0	0	0	0	0	0	0	0	0	0	0	0	0	0	0	0	0	0	0	0	0	0	0	0	0	0	0	0	0	0
070319	14:53:51	15:02:33	521088	5.0.10.0	5_exp_RW	15	Rpleas_acq	CS_B	VKKV	BZZB	GWWG	MQQM	YDDY	JXXJ	retten	treu	fair	schön	spielen	ehrlich	rächen	tot	faul	schlecht	strafen	eitel	1	acq_USpleas_CSpleas2_RW	acq4567_RW	4	72	400	1	300	300	371	50	0	1	1	blank2r.bmp	0	1	+	0	1	blank2r.bmp	492	1	BZZB	492	1	blank2r.bmp	572	3	ehrlich	866	1	!	1239	1	!	1266	0	0	0	0	0	0	0	0	0	0	0	0	0	0	0	0	0	0	0	0	0	0	0	0	0	0	0	0	0	0
070319	14:53:51	15:02:35	523247	5.0.10.0	5_exp_RW	15	Rpleas_acq	CS_B	VKKV	BZZB	GWWG	MQQM	YDDY	JXXJ	retten	treu	fair	schön	spielen	ehrlich	rächen	tot	faul	schlecht	strafen	eitel	1	acq_USpleas_CSpleas1_RW	acq4567_RW	4	73	400	1	300	300	346	50	0	1	1	blank2r.bmp	0	1	+	0	1	blank2r.bmp	492	1	VKKV	492	1	blank2r.bmp	572	2	treu	866	1	!	1239	1	!	1252	0	0	0	0	0	0	0	0	0	0	0	0	0	0	0	0	0	0	0	0	0	0	0	0	0	0	0	0	0	0
070319	14:53:51	15:02:37	525353	5.0.10.0	5_exp_RW	15	Rpleas_acq	CS_B	VKKV	BZZB	GWWG	MQQM	YDDY	JXXJ	retten	treu	fair	schön	spielen	ehrlich	rächen	tot	faul	schlecht	strafen	eitel	1	acq_USpleas_CSpleas2_RW	acq4567_RW	4	74	400	0	300	300	324	50	0	1	1	blank2r.bmp	0	1	+	0	1	blank2r.bmp	492	1	BZZB	492	1	blank2r.bmp	572	1	schön	866	1	!	-1	1	!	-1	0	0	0	0	0	0	0	0	0	0	0	0	0	0	0	0	0	0	0	0	0	0	0	0	0	0	0	0	0	0
070319	14:53:51	15:02:39	527405	5.0.10.0	5_exp_RW	15	Rpleas_acq	CS_B	VKKV	BZZB	GWWG	MQQM	YDDY	JXXJ	retten	treu	fair	schön	spielen	ehrlich	rächen	tot	faul	schlecht	strafen	eitel	1	acq_USpleas_CSpleas1_RW	acq4567_RW	4	75	400	0	300	300	278	46	0	0	1	blank2r.bmp	0	1	+	0	1	blank2r.bmp	492	1	VKKV	492	1	blank2r.bmp	572	1	retten	866	1	!	-1	1	!	-1	0	0	0	0	0	0	0	0	0	0	0	0	0	0	0	0	0	0	0	0	0	0	0	0	0	0	0	0	0	0
070319	14:53:51	15:02:41	529511	5.0.10.0	5_exp_RW	15	Rpleas_acq	CS_B	VKKV	BZZB	GWWG	MQQM	YDDY	JXXJ	retten	treu	fair	schön	spielen	ehrlich	rächen	tot	faul	schlecht	strafen	eitel	1	acq_USunple_CSunple1_RW	acq4567_RW	4	76	400	0	300	300	323	46	0	1	1	blank2r.bmp	0	1	+	0	1	blank2r.bmp	492	1	GWWG	492	1	blank2r.bmp	572	2	tot	866	1	!	-1	1	!	-1	0	0	0	0	0	0	0	0	0	0	0	0	0	0	0	0	0	0	0	0	0	0	0	0	0	0	0	0	0	0
070319	14:53:51	15:02:43	531670	5.0.10.0	5_exp_RW	15	Rpleas_acq	CS_B	VKKV	BZZB	GWWG	MQQM	YDDY	JXXJ	retten	treu	fair	schön	spielen	ehrlich	rächen	tot	faul	schlecht	strafen	eitel	1	acq_USpleas_CSpleas2_RW	acq4567_RW	4	77	400	1	300	300	346	50	0	1	1	blank2r.bmp	0	1	+	0	1	blank2r.bmp	492	1	BZZB	492	1	blank2r.bmp	572	2	spielen	866	1	!	1239	1	!	1252	0	0	0	0	0	0	0	0	0	0	0	0	0	0	0	0	0	0	0	0	0	0	0	0	0	0	0	0	0	0
070319	14:53:51	15:02:45	533736	5.0.10.0	5_exp_RW	15	Rpleas_acq	CS_B	VKKV	BZZB	GWWG	MQQM	YDDY	JXXJ	retten	treu	fair	schön	spielen	ehrlich	rächen	tot	faul	schlecht	strafen	eitel	1	acq_USpleas_CSpleas1_RW	acq4567_RW	4	78	400	0	300	300	302	50	0	1	1	blank2r.bmp	0	1	+	0	1	blank2r.bmp	492	1	VKKV	492	1	blank2r.bmp	572	1	retten	866	1	!	-1	1	!	-1	0	0	0	0	0	0	0	0	0	0	0	0	0	0	0	0	0	0	0	0	0	0	0	0	0	0	0	0	0	0
070319	14:53:51	15:02:48	535829	5.0.10.0	5_exp_RW	15	Rpleas_acq	CS_B	VKKV	BZZB	GWWG	MQQM	YDDY	JXXJ	retten	treu	fair	schön	spielen	ehrlich	rächen	tot	faul	schlecht	strafen	eitel	1	acq_USpleas_CSpleas1_RW	acq4567_RW	4	79	400	0	300	300	308	50	0	1	1	blank2r.bmp	0	1	+	0	1	blank2r.bmp	492	1	VKKV	492	1	blank2r.bmp	572	3	fair	866	1	!	-1	1	!	-1	0	0	0	0	0	0	0	0	0	0	0	0	0	0	0	0	0	0	0	0	0	0	0	0	0	0	0	0	0	0
070319	14:53:51	15:02:50	537894	5.0.10.0	5_exp_RW	15	Rpleas_acq	CS_B	VKKV	BZZB	GWWG	MQQM	YDDY	JXXJ	retten	treu	fair	schön	spielen	ehrlich	rächen	tot	faul	schlecht	strafen	eitel	1	acq_USpleas_CSpleas1_RW	acq4567_RW	4	80	400	0	300	300	288	50	0	1	1	blank2r.bmp	0	1	+	0	1	blank2r.bmp	492	1	VKKV	492	1	blank2r.bmp	572	2	treu	866	1	!	-1	1	!	-1	0	0	0	0	0	0	0	0	0	0	0	0	0	0	0	0	0	0	0	0	0	0	0	0	0	0	0	0	0	0
070319	14:53:51	15:03:05	553714	5.0.10.0	5_exp_RW	15	Rpleas_acq	CS_B	VKKV	BZZB	GWWG	MQQM	YDDY	JXXJ	retten	treu	fair	schön	spielen	ehrlich	rächen	tot	faul	schlecht	strafen	eitel	1	acq_USunple_CSunple1_RW	acq4567_RW	5	1	400	1	300	300	390	46	0	1	1	blank2r.bmp	0	1	+	0	1	blank2r.bmp	492	1	GWWG	492	1	blank2r.bmp	572	1	rächen	866	1	!	1239	1	!	1292	0	0	0	0	0	0	0	0	0	0	0	0	0	0	0	0	0	0	0	0	0	0	0	0	0	0	0	0	0	0
070319	14:53:51	15:03:07	555700	5.0.10.0	5_exp_RW	15	Rpleas_acq	CS_B	VKKV	BZZB	GWWG	MQQM	YDDY	JXXJ	retten	treu	fair	schön	spielen	ehrlich	rächen	tot	faul	schlecht	strafen	eitel	1	acq_USpleas_CSpleas1_RW	acq4567_RW	5	2	400	0	300	300	214	50	0	1	1	blank2r.bmp	0	1	+	0	1	blank2r.bmp	492	1	VKKV	492	1	blank2r.bmp	572	2	treu	866	1	!	-1	1	!	-1	0	0	0	0	0	0	0	0	0	0	0	0	0	0	0	0	0	0	0	0	0	0	0	0	0	0	0	0	0	0
070319	14:53:51	15:03:10	557979	5.0.10.0	5_exp_RW	15	Rpleas_acq	CS_B	VKKV	BZZB	GWWG	MQQM	YDDY	JXXJ	retten	treu	fair	schön	spielen	ehrlich	rächen	tot	faul	schlecht	strafen	eitel	1	acq_USpleas_CSpleas2_RW	acq4567_RW	5	3	400	1	300	300	465	50	0	1	1	blank2r.bmp	0	1	+	0	1	blank2r.bmp	492	1	BZZB	492	1	blank2r.bmp	572	3	ehrlich	866	1	!	1239	1	!	1372	0	0	0	0	0	0	0	0	0	0	0	0	0	0	0	0	0	0	0	0	0	0	0	0	0	0	0	0	0	0
070319	14:53:51	15:03:12	560285	5.0.10.0	5_exp_RW	15	Rpleas_acq	CS_B	VKKV	BZZB	GWWG	MQQM	YDDY	JXXJ	retten	treu	fair	schön	spielen	ehrlich	rächen	tot	faul	schlecht	strafen	eitel	1	acq_USpleas_CSpleas1_RW	acq4567_RW	5	4	400	0	300	300	521	50	0	1	1	blank2r.bmp	0	1	+	0	1	blank2r.bmp	492	1	VKKV	492	1	blank2r.bmp	572	1	retten	866	1	!	1239	1	!	-1	0	0	0	0	0	0	0	0	0	0	0	0	0	0	0	0	0	0	0	0	0	0	0	0	0	0	0	0	0	0
070319	14:53:51	15:03:14	562551	5.0.10.0	5_exp_RW	15	Rpleas_acq	CS_B	VKKV	BZZB	GWWG	MQQM	YDDY	JXXJ	retten	treu	fair	schön	spielen	ehrlich	rächen	tot	faul	schlecht	strafen	eitel	1	acq_USunple_CSunple1_RW	acq4567_RW	5	5	400	0	300	300	479	46	0	1	1	blank2r.bmp	0	1	+	0	1	blank2r.bmp	492	1	GWWG	492	1	blank2r.bmp	572	3	faul	866	1	!	1239	1	!	-1	0	0	0	0	0	0	0	0	0	0	0	0	0	0	0	0	0	0	0	0	0	0	0	0	0	0	0	0	0	0
070319	14:53:51	15:03:16	564723	5.0.10.0	5_exp_RW	15	Rpleas_acq	CS_B	VKKV	BZZB	GWWG	MQQM	YDDY	JXXJ	retten	treu	fair	schön	spielen	ehrlich	rächen	tot	faul	schlecht	strafen	eitel	1	acq_USpleas_CSpleas2_RW	acq4567_RW	5	6	400	1	300	300	367	50	0	1	1	blank2r.bmp	0	1	+	0	1	blank2r.bmp	492	1	BZZB	492	1	blank2r.bmp	572	1	schön	866	1	!	1239	1	!	1266	0	0	0	0	0	0	0	0	0	0	0	0	0	0	0	0	0	0	0	0	0	0	0	0	0	0	0	0	0	0
070319	14:53:51	15:03:19	566816	5.0.10.0	5_exp_RW	15	Rpleas_acq	CS_B	VKKV	BZZB	GWWG	MQQM	YDDY	JXXJ	retten	treu	fair	schön	spielen	ehrlich	rächen	tot	faul	schlecht	strafen	eitel	1	acq_USunple_CSunple1_RW	acq4567_RW	5	7	400	0	300	300	326	46	0	1	1	blank2r.bmp	0	1	+	0	1	blank2r.bmp	492	1	GWWG	492	1	blank2r.bmp	572	2	tot	866	1	!	-1	1	!	-1	0	0	0	0	0	0	0	0	0	0	0	0	0	0	0	0	0	0	0	0	0	0	0	0	0	0	0	0	0	0
070319	14:53:51	15:03:21	568921	5.0.10.0	5_exp_RW	15	Rpleas_acq	CS_B	VKKV	BZZB	GWWG	MQQM	YDDY	JXXJ	retten	treu	fair	schön	spielen	ehrlich	rächen	tot	faul	schlecht	strafen	eitel	1	acq_USunple_CSunple2_RW	acq4567_RW	5	8	400	0	300	300	329	46	0	1	1	blank2r.bmp	0	1	+	0	1	blank2r.bmp	492	1	MQQM	492	1	blank2r.bmp	572	1	schlecht	866	1	!	-1	1	!	-1	0	0	0	0	0	0	0	0	0	0	0	0	0	0	0	0	0	0	0	0	0	0	0	0	0	0	0	0	0	0
070319	14:53:51	15:03:23	571174	5.0.10.0	5_exp_RW	15	Rpleas_acq	CS_B	VKKV	BZZB	GWWG	MQQM	YDDY	JXXJ	retten	treu	fair	schön	spielen	ehrlich	rächen	tot	faul	schlecht	strafen	eitel	1	acq_USpleas_CSpleas1_RW	acq4567_RW	5	9	400	1	300	300	446	50	0	1	1	blank2r.bmp	0	1	+	0	1	blank2r.bmp	492	1	VKKV	492	1	blank2r.bmp	572	3	fair	866	1	!	1239	1	!	1346	0	0	0	0	0	0	0	0	0	0	0	0	0	0	0	0	0	0	0	0	0	0	0	0	0	0	0	0	0	0
070319	14:53:51	15:03:25	573439	5.0.10.0	5_exp_RW	15	Rpleas_acq	CS_B	VKKV	BZZB	GWWG	MQQM	YDDY	JXXJ	retten	treu	fair	schön	spielen	ehrlich	rächen	tot	faul	schlecht	strafen	eitel	1	acq_USpleas_CSpleas2_RW	acq4567_RW	5	10	400	0	300	300	499	50	0	1	1	blank2r.bmp	0	1	+	0	1	blank2r.bmp	492	1	BZZB	492	1	blank2r.bmp	572	2	spielen	866	1	!	1239	1	!	-1	0	0	0	0	0	0	0	0	0	0	0	0	0	0	0	0	0	0	0	0	0	0	0	0	0	0	0	0	0	0
070319	14:53:51	15:03:27	575519	5.0.10.0	5_exp_RW	15	Rpleas_acq	CS_B	VKKV	BZZB	GWWG	MQQM	YDDY	JXXJ	retten	treu	fair	schön	spielen	ehrlich	rächen	tot	faul	schlecht	strafen	eitel	1	acq_USunple_CSunple1_RW	acq4567_RW	5	11	400	0	300	300	296	50	0	0	1	blank2r.bmp	0	1	+	0	1	blank2r.bmp	492	1	GWWG	492	1	blank2r.bmp	572	3	faul	866	1	!	-1	1	!	-1	0	0	0	0	0	0	0	0	0	0	0	0	0	0	0	0	0	0	0	0	0	0	0	0	0	0	0	0	0	0
070319	14:53:51	15:03:30	577784	5.0.10.0	5_exp_RW	15	Rpleas_acq	CS_B	VKKV	BZZB	GWWG	MQQM	YDDY	JXXJ	retten	treu	fair	schön	spielen	ehrlich	rächen	tot	faul	schlecht	strafen	eitel	1	acq_USpleas_CSpleas2_RW	acq4567_RW	5	12	400	0	300	300	480	50	0	1	1	blank2r.bmp	0	1	+	0	1	blank2r.bmp	492	1	BZZB	492	1	blank2r.bmp	572	1	schön	866	1	!	1239	1	!	-1	0	0	0	0	0	0	0	0	0	0	0	0	0	0	0	0	0	0	0	0	0	0	0	0	0	0	0	0	0	0
070319	14:53:51	15:03:32	580050	5.0.10.0	5_exp_RW	15	Rpleas_acq	CS_B	VKKV	BZZB	GWWG	MQQM	YDDY	JXXJ	retten	treu	fair	schön	spielen	ehrlich	rächen	tot	faul	schlecht	strafen	eitel	1	acq_USunple_CSunple1_RW	acq4567_RW	5	13	400	1	300	300	461	46	0	1	1	blank2r.bmp	0	1	+	0	1	blank2r.bmp	492	1	GWWG	492	1	blank2r.bmp	572	2	tot	866	1	!	1239	1	!	1359	0	0	0	0	0	0	0	0	0	0	0	0	0	0	0	0	0	0	0	0	0	0	0	0	0	0	0	0	0	0
070319	14:53:51	15:03:34	582236	5.0.10.0	5_exp_RW	15	Rpleas_acq	CS_B	VKKV	BZZB	GWWG	MQQM	YDDY	JXXJ	retten	treu	fair	schön	spielen	ehrlich	rächen	tot	faul	schlecht	strafen	eitel	1	acq_USunple_CSunple2_RW	acq4567_RW	5	14	400	1	300	300	397	46	0	1	1	blank2r.bmp	0	1	+	0	1	blank2r.bmp	492	1	MQQM	492	1	blank2r.bmp	572	2	strafen	866	1	!	1239	1	!	1292	0	0	0	0	0	0	0	0	0	0	0	0	0	0	0	0	0	0	0	0	0	0	0	0	0	0	0	0	0	0
070319	14:53:51	15:03:36	584328	5.0.10.0	5_exp_RW	15	Rpleas_acq	CS_B	VKKV	BZZB	GWWG	MQQM	YDDY	JXXJ	retten	treu	fair	schön	spielen	ehrlich	rächen	tot	faul	schlecht	strafen	eitel	1	acq_USunple_CSunple2_RW	acq4567_RW	5	15	400	0	300	300	323	50	0	0	1	blank2r.bmp	0	1	+	0	1	blank2r.bmp	492	1	MQQM	492	1	blank2r.bmp	572	3	eitel	866	1	!	-1	1	!	-1	0	0	0	0	0	0	0	0	0	0	0	0	0	0	0	0	0	0	0	0	0	0	0	0	0	0	0	0	0	0
070319	14:53:51	15:03:38	586501	5.0.10.0	5_exp_RW	15	Rpleas_acq	CS_B	VKKV	BZZB	GWWG	MQQM	YDDY	JXXJ	retten	treu	fair	schön	spielen	ehrlich	rächen	tot	faul	schlecht	strafen	eitel	1	acq_USpleas_CSpleas1_RW	acq4567_RW	5	16	400	1	300	300	363	50	0	1	1	blank2r.bmp	0	1	+	0	1	blank2r.bmp	492	1	VKKV	492	1	blank2r.bmp	572	3	fair	866	1	!	1239	1	!	1266	0	0	0	0	0	0	0	0	0	0	0	0	0	0	0	0	0	0	0	0	0	0	0	0	0	0	0	0	0	0
070319	14:53:51	15:03:40	588593	5.0.10.0	5_exp_RW	15	Rpleas_acq	CS_B	VKKV	BZZB	GWWG	MQQM	YDDY	JXXJ	retten	treu	fair	schön	spielen	ehrlich	rächen	tot	faul	schlecht	strafen	eitel	1	acq_USpleas_CSpleas2_RW	acq4567_RW	5	17	400	0	300	300	330	50	0	1	1	blank2r.bmp	0	1	+	0	1	blank2r.bmp	492	1	BZZB	492	1	blank2r.bmp	572	2	spielen	866	1	!	-1	1	!	-1	0	0	0	0	0	0	0	0	0	0	0	0	0	0	0	0	0	0	0	0	0	0	0	0	0	0	0	0	0	0
070319	14:53:51	15:03:43	590779	5.0.10.0	5_exp_RW	15	Rpleas_acq	CS_B	VKKV	BZZB	GWWG	MQQM	YDDY	JXXJ	retten	treu	fair	schön	spielen	ehrlich	rächen	tot	faul	schlecht	strafen	eitel	1	acq_USpleas_CSpleas1_RW	acq4567_RW	5	18	400	1	300	300	378	50	0	1	1	blank2r.bmp	0	1	+	0	1	blank2r.bmp	492	1	VKKV	492	1	blank2r.bmp	572	2	treu	866	1	!	1239	1	!	1279	0	0	0	0	0	0	0	0	0	0	0	0	0	0	0	0	0	0	0	0	0	0	0	0	0	0	0	0	0	0
070319	14:53:51	15:03:45	593005	5.0.10.0	5_exp_RW	15	Rpleas_acq	CS_B	VKKV	BZZB	GWWG	MQQM	YDDY	JXXJ	retten	treu	fair	schön	spielen	ehrlich	rächen	tot	faul	schlecht	strafen	eitel	1	acq_USunple_CSunple2_RW	acq4567_RW	5	19	400	1	300	300	437	46	0	1	1	blank2r.bmp	0	1	+	0	1	blank2r.bmp	492	1	MQQM	492	1	blank2r.bmp	573	1	schlecht	866	1	!	1239	1	!	1332	0	0	0	0	0	0	0	0	0	0	0	0	0	0	0	0	0	0	0	0	0	0	0	0	0	0	0	0	0	0
070319	14:53:51	15:03:47	595217	5.0.10.0	5_exp_RW	15	Rpleas_acq	CS_B	VKKV	BZZB	GWWG	MQQM	YDDY	JXXJ	retten	treu	fair	schön	spielen	ehrlich	rächen	tot	faul	schlecht	strafen	eitel	1	acq_USunple_CSunple2_RW	acq4567_RW	5	20	400	1	300	300	419	46	0	1	1	blank2r.bmp	0	1	+	0	1	blank2r.bmp	492	1	MQQM	492	1	blank2r.bmp	572	2	strafen	866	1	!	1239	1	!	1319	0	0	0	0	0	0	0	0	0	0	0	0	0	0	0	0	0	0	0	0	0	0	0	0	0	0	0	0	0	0
070319	14:53:51	15:03:49	597323	5.0.10.0	5_exp_RW	15	Rpleas_acq	CS_B	VKKV	BZZB	GWWG	MQQM	YDDY	JXXJ	retten	treu	fair	schön	spielen	ehrlich	rächen	tot	faul	schlecht	strafen	eitel	1	acq_USpleas_CSpleas1_RW	acq4567_RW	5	21	400	0	300	300	320	50	0	1	1	blank2r.bmp	0	1	+	0	1	blank2r.bmp	492	1	VKKV	492	1	blank2r.bmp	572	1	retten	866	1	!	-1	1	!	-1	0	0	0	0	0	0	0	0	0	0	0	0	0	0	0	0	0	0	0	0	0	0	0	0	0	0	0	0	0	0
070319	14:53:51	15:03:51	599429	5.0.10.0	5_exp_RW	15	Rpleas_acq	CS_B	VKKV	BZZB	GWWG	MQQM	YDDY	JXXJ	retten	treu	fair	schön	spielen	ehrlich	rächen	tot	faul	schlecht	strafen	eitel	1	acq_USpleas_CSpleas1_RW	acq4567_RW	5	22	400	0	300	300	330	50	0	1	1	blank2r.bmp	0	1	+	0	1	blank2r.bmp	492	1	VKKV	492	1	blank2r.bmp	572	3	fair	866	1	!	-1	1	!	-1	0	0	0	0	0	0	0	0	0	0	0	0	0	0	0	0	0	0	0	0	0	0	0	0	0	0	0	0	0	0
070319	14:53:51	15:03:53	601681	5.0.10.0	5_exp_RW	15	Rpleas_acq	CS_B	VKKV	BZZB	GWWG	MQQM	YDDY	JXXJ	retten	treu	fair	schön	spielen	ehrlich	rächen	tot	faul	schlecht	strafen	eitel	1	acq_USpleas_CSpleas1_RW	acq4567_RW	5	23	400	1	300	300	445	50	0	1	1	blank2r.bmp	0	1	+	0	1	blank2r.bmp	492	1	VKKV	492	1	blank2r.bmp	572	1	retten	866	1	!	1239	1	!	1346	0	0	0	0	0	0	0	0	0	0	0	0	0	0	0	0	0	0	0	0	0	0	0	0	0	0	0	0	0	0
070319	14:53:51	15:03:56	603920	5.0.10.0	5_exp_RW	15	Rpleas_acq	CS_B	VKKV	BZZB	GWWG	MQQM	YDDY	JXXJ	retten	treu	fair	schön	spielen	ehrlich	rächen	tot	faul	schlecht	strafen	eitel	1	acq_USunple_CSunple2_RW	acq4567_RW	5	24	400	1	300	300	445	46	0	1	1	blank2r.bmp	0	1	+	0	1	blank2r.bmp	492	1	MQQM	492	1	blank2r.bmp	572	3	eitel	866	1	!	1239	1	!	1346	0	0	0	0	0	0	0	0	0	0	0	0	0	0	0	0	0	0	0	0	0	0	0	0	0	0	0	0	0	0
070319	14:53:51	15:03:58	606199	5.0.10.0	5_exp_RW	15	Rpleas_acq	CS_B	VKKV	BZZB	GWWG	MQQM	YDDY	JXXJ	retten	treu	fair	schön	spielen	ehrlich	rächen	tot	faul	schlecht	strafen	eitel	1	acq_USpleas_CSpleas2_RW	acq4567_RW	5	25	400	0	300	300	509	50	0	1	1	blank2r.bmp	0	1	+	0	1	blank2r.bmp	492	1	BZZB	492	1	blank2r.bmp	572	3	ehrlich	866	1	!	1239	1	!	-1	0	0	0	0	0	0	0	0	0	0	0	0	0	0	0	0	0	0	0	0	0	0	0	0	0	0	0	0	0	0
070319	14:53:51	15:04:00	608465	5.0.10.0	5_exp_RW	15	Rpleas_acq	CS_B	VKKV	BZZB	GWWG	MQQM	YDDY	JXXJ	retten	treu	fair	schön	spielen	ehrlich	rächen	tot	faul	schlecht	strafen	eitel	1	acq_USunple_CSunple2_RW	acq4567_RW	5	26	400	1	300	300	463	46	0	1	1	blank2r.bmp	0	1	+	0	1	blank2r.bmp	492	1	MQQM	492	1	blank2r.bmp	572	3	eitel	866	1	!	1239	1	!	1359	0	0	0	0	0	0	0	0	0	0	0	0	0	0	0	0	0	0	0	0	0	0	0	0	0	0	0	0	0	0
070319	14:53:51	15:04:02	610651	5.0.10.0	5_exp_RW	15	Rpleas_acq	CS_B	VKKV	BZZB	GWWG	MQQM	YDDY	JXXJ	retten	treu	fair	schön	spielen	ehrlich	rächen	tot	faul	schlecht	strafen	eitel	1	acq_USunple_CSunple1_RW	acq4567_RW	5	27	400	1	300	300	390	46	0	1	1	blank2r.bmp	0	1	+	0	1	blank2r.bmp	492	1	GWWG	492	1	blank2r.bmp	572	1	rächen	866	1	!	1239	1	!	1292	0	0	0	0	0	0	0	0	0	0	0	0	0	0	0	0	0	0	0	0	0	0	0	0	0	0	0	0	0	0
070319	14:53:51	15:04:05	612796	5.0.10.0	5_exp_RW	15	Rpleas_acq	CS_B	VKKV	BZZB	GWWG	MQQM	YDDY	JXXJ	retten	treu	fair	schön	spielen	ehrlich	rächen	tot	faul	schlecht	strafen	eitel	1	acq_USpleas_CSpleas2_RW	acq4567_RW	5	28	400	1	300	300	346	50	0	1	1	blank2r.bmp	0	1	+	0	1	blank2r.bmp	492	1	BZZB	492	1	blank2r.bmp	572	3	ehrlich	866	1	!	1239	1	!	1252	0	0	0	0	0	0	0	0	0	0	0	0	0	0	0	0	0	0	0	0	0	0	0	0	0	0	0	0	0	0
070319	14:53:51	15:04:07	614969	5.0.10.0	5_exp_RW	15	Rpleas_acq	CS_B	VKKV	BZZB	GWWG	MQQM	YDDY	JXXJ	retten	treu	fair	schön	spielen	ehrlich	rächen	tot	faul	schlecht	strafen	eitel	1	acq_USunple_CSunple2_RW	acq4567_RW	5	29	400	1	300	300	385	46	0	1	1	blank2r.bmp	0	1	+	0	1	blank2r.bmp	492	1	MQQM	492	1	blank2r.bmp	572	1	schlecht	866	1	!	1239	1	!	1279	0	0	0	0	0	0	0	0	0	0	0	0	0	0	0	0	0	0	0	0	0	0	0	0	0	0	0	0	0	0
070319	14:53:51	15:04:09	617128	5.0.10.0	5_exp_RW	15	Rpleas_acq	CS_B	VKKV	BZZB	GWWG	MQQM	YDDY	JXXJ	retten	treu	fair	schön	spielen	ehrlich	rächen	tot	faul	schlecht	strafen	eitel	1	acq_USunple_CSunple1_RW	acq4567_RW	5	30	400	1	300	300	365	46	0	1	1	blank2r.bmp	0	1	+	0	1	blank2r.bmp	492	1	GWWG	492	1	blank2r.bmp	572	2	tot	866	1	!	1239	1	!	1266	0	0	0	0	0	0	0	0	0	0	0	0	0	0	0	0	0	0	0	0	0	0	0	0	0	0	0	0	0	0
070319	14:53:51	15:04:11	619380	5.0.10.0	5_exp_RW	15	Rpleas_acq	CS_B	VKKV	BZZB	GWWG	MQQM	YDDY	JXXJ	retten	treu	fair	schön	spielen	ehrlich	rächen	tot	faul	schlecht	strafen	eitel	1	acq_USunple_CSunple1_RW	acq4567_RW	5	31	400	1	300	300	454	46	0	1	1	blank2r.bmp	0	1	+	0	1	blank2r.bmp	492	1	GWWG	492	1	blank2r.bmp	572	3	faul	866	1	!	1239	1	!	1359	0	0	0	0	0	0	0	0	0	0	0	0	0	0	0	0	0	0	0	0	0	0	0	0	0	0	0	0	0	0
070319	14:53:51	15:04:13	621539	5.0.10.0	5_exp_RW	15	Rpleas_acq	CS_B	VKKV	BZZB	GWWG	MQQM	YDDY	JXXJ	retten	treu	fair	schön	spielen	ehrlich	rächen	tot	faul	schlecht	strafen	eitel	1	acq_USpleas_CSpleas2_RW	acq4567_RW	5	32	400	1	300	300	355	50	0	1	1	blank2r.bmp	0	1	+	0	1	blank2r.bmp	492	1	BZZB	492	1	blank2r.bmp	572	2	spielen	866	1	!	1239	1	!	1252	0	0	0	0	0	0	0	0	0	0	0	0	0	0	0	0	0	0	0	0	0	0	0	0	0	0	0	0	0	0
070319	14:53:51	15:04:15	623738	5.0.10.0	5_exp_RW	15	Rpleas_acq	CS_B	VKKV	BZZB	GWWG	MQQM	YDDY	JXXJ	retten	treu	fair	schön	spielen	ehrlich	rächen	tot	faul	schlecht	strafen	eitel	1	acq_USunple_CSunple1_RW	acq4567_RW	5	33	400	1	300	300	403	46	0	1	1	blank2r.bmp	0	1	+	0	1	blank2r.bmp	492	1	GWWG	492	1	blank2r.bmp	572	1	rächen	866	1	!	1239	1	!	1306	0	0	0	0	0	0	0	0	0	0	0	0	0	0	0	0	0	0	0	0	0	0	0	0	0	0	0	0	0	0
070319	14:53:51	15:04:18	625897	5.0.10.0	5_exp_RW	15	Rpleas_acq	CS_B	VKKV	BZZB	GWWG	MQQM	YDDY	JXXJ	retten	treu	fair	schön	spielen	ehrlich	rächen	tot	faul	schlecht	strafen	eitel	1	acq_USpleas_CSpleas1_RW	acq4567_RW	5	34	400	1	300	300	366	50	0	1	1	blank2r.bmp	0	1	+	0	1	blank2r.bmp	492	1	VKKV	492	1	blank2r.bmp	572	2	treu	866	1	!	1239	1	!	1266	0	0	0	0	0	0	0	0	0	0	0	0	0	0	0	0	0	0	0	0	0	0	0	0	0	0	0	0	0	0
070319	14:53:51	15:04:20	628123	5.0.10.0	5_exp_RW	15	Rpleas_acq	CS_B	VKKV	BZZB	GWWG	MQQM	YDDY	JXXJ	retten	treu	fair	schön	spielen	ehrlich	rächen	tot	faul	schlecht	strafen	eitel	1	acq_USunple_CSunple2_RW	acq4567_RW	5	35	400	1	300	300	435	46	0	1	1	blank2r.bmp	0	1	+	0	1	blank2r.bmp	492	1	MQQM	492	1	blank2r.bmp	572	2	strafen	866	1	!	1239	1	!	1332	0	0	0	0	0	0	0	0	0	0	0	0	0	0	0	0	0	0	0	0	0	0	0	0	0	0	0	0	0	0
070319	14:53:51	15:04:22	630189	5.0.10.0	5_exp_RW	15	Rpleas_acq	CS_B	VKKV	BZZB	GWWG	MQQM	YDDY	JXXJ	retten	treu	fair	schön	spielen	ehrlich	rächen	tot	faul	schlecht	strafen	eitel	1	acq_USpleas_CSpleas2_RW	acq4567_RW	5	36	400	0	300	300	301	50	0	1	1	blank2r.bmp	0	1	+	0	1	blank2r.bmp	492	1	BZZB	492	1	blank2r.bmp	572	1	schön	866	1	!	-1	1	!	-1	0	0	0	0	0	0	0	0	0	0	0	0	0	0	0	0	0	0	0	0	0	0	0	0	0	0	0	0	0	0
070319	14:53:51	15:04:24	632415	5.0.10.0	5_exp_RW	15	Rpleas_acq	CS_B	VKKV	BZZB	GWWG	MQQM	YDDY	JXXJ	retten	treu	fair	schön	spielen	ehrlich	rächen	tot	faul	schlecht	strafen	eitel	1	acq_USunple_CSunple2_RW	acq4567_RW	5	37	400	1	300	300	412	46	0	1	1	blank2r.bmp	0	1	+	0	1	blank2r.bmp	492	1	MQQM	492	1	blank2r.bmp	572	1	schlecht	866	1	!	1239	1	!	1319	0	0	0	0	0	0	0	0	0	0	0	0	0	0	0	0	0	0	0	0	0	0	0	0	0	0	0	0	0	0
070319	14:53:51	15:04:26	634521	5.0.10.0	5_exp_RW	15	Rpleas_acq	CS_B	VKKV	BZZB	GWWG	MQQM	YDDY	JXXJ	retten	treu	fair	schön	spielen	ehrlich	rächen	tot	faul	schlecht	strafen	eitel	1	acq_USpleas_CSpleas1_RW	acq4567_RW	5	38	400	0	300	300	332	50	0	1	1	blank2r.bmp	0	1	+	0	1	blank2r.bmp	492	1	VKKV	492	1	blank2r.bmp	572	1	retten	866	1	!	-1	1	!	-1	0	0	0	0	0	0	0	0	0	0	0	0	0	0	0	0	0	0	0	0	0	0	0	0	0	0	0	0	0	0
070319	14:53:51	15:04:29	636786	5.0.10.0	5_exp_RW	15	Rpleas_acq	CS_B	VKKV	BZZB	GWWG	MQQM	YDDY	JXXJ	retten	treu	fair	schön	spielen	ehrlich	rächen	tot	faul	schlecht	strafen	eitel	1	acq_USunple_CSunple1_RW	acq4567_RW	5	39	400	1	300	300	464	46	0	1	1	blank2r.bmp	0	1	+	0	1	blank2r.bmp	492	1	GWWG	492	1	blank2r.bmp	572	1	rächen	866	1	!	1239	1	!	1359	0	0	0	0	0	0	0	0	0	0	0	0	0	0	0	0	0	0	0	0	0	0	0	0	0	0	0	0	0	0
070319	14:53:51	15:04:31	639039	5.0.10.0	5_exp_RW	15	Rpleas_acq	CS_B	VKKV	BZZB	GWWG	MQQM	YDDY	JXXJ	retten	treu	fair	schön	spielen	ehrlich	rächen	tot	faul	schlecht	strafen	eitel	1	acq_USpleas_CSpleas2_RW	acq4567_RW	5	40	400	0	300	300	483	50	0	1	1	blank2r.bmp	0	1	+	0	1	blank2r.bmp	492	1	BZZB	492	1	blank2r.bmp	572	3	ehrlich	866	1	!	1239	1	!	-1	0	0	0	0	0	0	0	0	0	0	0	0	0	0	0	0	0	0	0	0	0	0	0	0	0	0	0	0	0	0
070319	14:53:51	15:04:33	641318	5.0.10.0	5_exp_RW	15	Rpleas_acq	CS_B	VKKV	BZZB	GWWG	MQQM	YDDY	JXXJ	retten	treu	fair	schön	spielen	ehrlich	rächen	tot	faul	schlecht	strafen	eitel	1	acq_USpleas_CSpleas1_RW	acq4567_RW	5	41	400	0	300	300	485	50	0	1	1	blank2r.bmp	0	1	+	0	1	blank2r.bmp	492	1	VKKV	492	1	blank2r.bmp	572	3	fair	866	1	!	1239	1	!	-1	0	0	0	0	0	0	0	0	0	0	0	0	0	0	0	0	0	0	0	0	0	0	0	0	0	0	0	0	0	0
070319	14:53:51	15:04:35	643517	5.0.10.0	5_exp_RW	15	Rpleas_acq	CS_B	VKKV	BZZB	GWWG	MQQM	YDDY	JXXJ	retten	treu	fair	schön	spielen	ehrlich	rächen	tot	faul	schlecht	strafen	eitel	1	acq_USpleas_CSpleas1_RW	acq4567_RW	5	42	400	1	300	300	377	46	0	0	1	blank2r.bmp	0	1	+	0	1	blank2r.bmp	492	1	VKKV	492	1	blank2r.bmp	572	2	treu	866	1	!	1239	1	!	1279	0	0	0	0	0	0	0	0	0	0	0	0	0	0	0	0	0	0	0	0	0	0	0	0	0	0	0	0	0	0
070319	14:53:51	15:04:38	645796	5.0.10.0	5_exp_RW	15	Rpleas_acq	CS_B	VKKV	BZZB	GWWG	MQQM	YDDY	JXXJ	retten	treu	fair	schön	spielen	ehrlich	rächen	tot	faul	schlecht	strafen	eitel	1	acq_USunple_CSunple2_RW	acq4567_RW	5	43	400	0	300	300	512	46	0	1	1	blank2r.bmp	0	1	+	0	1	blank2r.bmp	492	1	MQQM	492	1	blank2r.bmp	572	2	strafen	866	1	!	1239	1	!	-1	0	0	0	0	0	0	0	0	0	0	0	0	0	0	0	0	0	0	0	0	0	0	0	0	0	0	0	0	0	0
070319	14:53:51	15:04:40	647915	5.0.10.0	5_exp_RW	15	Rpleas_acq	CS_B	VKKV	BZZB	GWWG	MQQM	YDDY	JXXJ	retten	treu	fair	schön	spielen	ehrlich	rächen	tot	faul	schlecht	strafen	eitel	1	acq_USpleas_CSpleas1_RW	acq4567_RW	5	44	400	0	300	300	331	50	0	1	1	blank2r.bmp	0	1	+	0	1	blank2r.bmp	492	1	VKKV	492	1	blank2r.bmp	572	2	treu	866	1	!	-1	1	!	-1	0	0	0	0	0	0	0	0	0	0	0	0	0	0	0	0	0	0	0	0	0	0	0	0	0	0	0	0	0	0
070319	14:53:51	15:04:42	650194	5.0.10.0	5_exp_RW	15	Rpleas_acq	CS_B	VKKV	BZZB	GWWG	MQQM	YDDY	JXXJ	retten	treu	fair	schön	spielen	ehrlich	rächen	tot	faul	schlecht	strafen	eitel	1	acq_USunple_CSunple2_RW	acq4567_RW	5	45	400	0	300	300	479	46	0	1	1	blank2r.bmp	0	1	+	0	1	blank2r.bmp	492	1	MQQM	492	1	blank2r.bmp	572	3	eitel	866	1	!	1239	1	!	-1	0	0	0	0	0	0	0	0	0	0	0	0	0	0	0	0	0	0	0	0	0	0	0	0	0	0	0	0	0	0
070319	14:53:51	15:04:44	652220	5.0.10.0	5_exp_RW	15	Rpleas_acq	CS_B	VKKV	BZZB	GWWG	MQQM	YDDY	JXXJ	retten	treu	fair	schön	spielen	ehrlich	rächen	tot	faul	schlecht	strafen	eitel	1	acq_USpleas_CSpleas1_RW	acq4567_RW	5	46	400	0	300	300	235	46	0	0	1	blank2r.bmp	0	1	+	0	1	blank2r.bmp	492	1	VKKV	492	1	blank2r.bmp	572	3	fair	866	1	!	-1	1	!	-1	0	0	0	0	0	0	0	0	0	0	0	0	0	0	0	0	0	0	0	0	0	0	0	0	0	0	0	0	0	0
070319	14:53:51	15:04:46	654419	5.0.10.0	5_exp_RW	15	Rpleas_acq	CS_B	VKKV	BZZB	GWWG	MQQM	YDDY	JXXJ	retten	treu	fair	schön	spielen	ehrlich	rächen	tot	faul	schlecht	strafen	eitel	1	acq_USunple_CSunple1_RW	acq4567_RW	5	47	400	1	300	300	391	46	0	1	1	blank2r.bmp	0	1	+	0	1	blank2r.bmp	492	1	GWWG	492	1	blank2r.bmp	572	2	tot	866	1	!	1239	1	!	1292	0	0	0	0	0	0	0	0	0	0	0	0	0	0	0	0	0	0	0	0	0	0	0	0	0	0	0	0	0	0
070319	14:53:51	15:04:48	656525	5.0.10.0	5_exp_RW	15	Rpleas_acq	CS_B	VKKV	BZZB	GWWG	MQQM	YDDY	JXXJ	retten	treu	fair	schön	spielen	ehrlich	rächen	tot	faul	schlecht	strafen	eitel	1	acq_USunple_CSunple1_RW	acq4567_RW	5	48	400	0	300	300	321	46	0	1	1	blank2r.bmp	0	1	+	0	1	blank2r.bmp	492	1	GWWG	492	1	blank2r.bmp	572	3	faul	866	1	!	-1	1	!	-1	0	0	0	0	0	0	0	0	0	0	0	0	0	0	0	0	0	0	0	0	0	0	0	0	0	0	0	0	0	0
070319	14:53:51	15:04:50	658577	5.0.10.0	5_exp_RW	15	Rpleas_acq	CS_B	VKKV	BZZB	GWWG	MQQM	YDDY	JXXJ	retten	treu	fair	schön	spielen	ehrlich	rächen	tot	faul	schlecht	strafen	eitel	1	acq_USunple_CSunple2_RW	acq4567_RW	5	49	400	0	300	300	265	50	0	0	1	blank2r.bmp	0	1	+	0	1	blank2r.bmp	492	1	MQQM	492	1	blank2r.bmp	572	3	eitel	866	1	!	-1	1	!	-1	0	0	0	0	0	0	0	0	0	0	0	0	0	0	0	0	0	0	0	0	0	0	0	0	0	0	0	0	0	0
070319	14:53:51	15:04:52	660670	5.0.10.0	5_exp_RW	15	Rpleas_acq	CS_B	VKKV	BZZB	GWWG	MQQM	YDDY	JXXJ	retten	treu	fair	schön	spielen	ehrlich	rächen	tot	faul	schlecht	strafen	eitel	1	acq_USunple_CSunple2_RW	acq4567_RW	5	50	400	0	300	300	313	46	0	1	1	blank2r.bmp	0	1	+	0	1	blank2r.bmp	492	1	MQQM	492	1	blank2r.bmp	572	2	strafen	866	1	!	-1	1	!	-1	0	0	0	0	0	0	0	0	0	0	0	0	0	0	0	0	0	0	0	0	0	0	0	0	0	0	0	0	0	0
070319	14:53:51	15:04:54	662762	5.0.10.0	5_exp_RW	15	Rpleas_acq	CS_B	VKKV	BZZB	GWWG	MQQM	YDDY	JXXJ	retten	treu	fair	schön	spielen	ehrlich	rächen	tot	faul	schlecht	strafen	eitel	1	acq_USunple_CSunple1_RW	acq4567_RW	5	51	400	0	300	300	306	46	0	1	1	blank2r.bmp	0	1	+	0	1	blank2r.bmp	492	1	GWWG	492	1	blank2r.bmp	572	3	faul	866	1	!	-1	1	!	-1	0	0	0	0	0	0	0	0	0	0	0	0	0	0	0	0	0	0	0	0	0	0	0	0	0	0	0	0	0	0
070319	14:53:51	15:04:57	664788	5.0.10.0	5_exp_RW	15	Rpleas_acq	CS_B	VKKV	BZZB	GWWG	MQQM	YDDY	JXXJ	retten	treu	fair	schön	spielen	ehrlich	rächen	tot	faul	schlecht	strafen	eitel	1	acq_USpleas_CSpleas2_RW	acq4567_RW	5	52	400	0	300	300	246	46	0	0	1	blank2r.bmp	0	1	+	0	1	blank2r.bmp	492	1	BZZB	492	1	blank2r.bmp	572	1	schön	866	1	!	-1	1	!	-1	0	0	0	0	0	0	0	0	0	0	0	0	0	0	0	0	0	0	0	0	0	0	0	0	0	0	0	0	0	0
070319	14:53:51	15:04:59	666947	5.0.10.0	5_exp_RW	15	Rpleas_acq	CS_B	VKKV	BZZB	GWWG	MQQM	YDDY	JXXJ	retten	treu	fair	schön	spielen	ehrlich	rächen	tot	faul	schlecht	strafen	eitel	1	acq_USunple_CSunple1_RW	acq4567_RW	5	53	400	1	300	300	353	46	0	1	1	blank2r.bmp	0	1	+	0	1	blank2r.bmp	492	1	GWWG	492	1	blank2r.bmp	572	1	rächen	866	1	!	1239	1	!	1252	0	0	0	0	0	0	0	0	0	0	0	0	0	0	0	0	0	0	0	0	0	0	0	0	0	0	0	0	0	0
070319	14:53:51	15:05:01	669039	5.0.10.0	5_exp_RW	15	Rpleas_acq	CS_B	VKKV	BZZB	GWWG	MQQM	YDDY	JXXJ	retten	treu	fair	schön	spielen	ehrlich	rächen	tot	faul	schlecht	strafen	eitel	1	acq_USunple_CSunple1_RW	acq4567_RW	5	54	400	0	300	300	309	46	0	1	1	blank2r.bmp	0	1	+	0	1	blank2r.bmp	492	1	GWWG	492	1	blank2r.bmp	572	2	tot	866	1	!	-1	1	!	-1	0	0	0	0	0	0	0	0	0	0	0	0	0	0	0	0	0	0	0	0	0	0	0	0	0	0	0	0	0	0
070319	14:53:51	15:05:03	671212	5.0.10.0	5_exp_RW	15	Rpleas_acq	CS_B	VKKV	BZZB	GWWG	MQQM	YDDY	JXXJ	retten	treu	fair	schön	spielen	ehrlich	rächen	tot	faul	schlecht	strafen	eitel	1	acq_USpleas_CSpleas2_RW	acq4567_RW	5	55	400	1	300	300	346	50	0	1	1	blank2r.bmp	0	1	+	0	1	blank2r.bmp	492	1	BZZB	492	1	blank2r.bmp	572	2	spielen	866	1	!	1239	1	!	1252	0	0	0	0	0	0	0	0	0	0	0	0	0	0	0	0	0	0	0	0	0	0	0	0	0	0	0	0	0	0
070319	14:53:51	15:05:05	673304	5.0.10.0	5_exp_RW	15	Rpleas_acq	CS_B	VKKV	BZZB	GWWG	MQQM	YDDY	JXXJ	retten	treu	fair	schön	spielen	ehrlich	rächen	tot	faul	schlecht	strafen	eitel	1	acq_USpleas_CSpleas2_RW	acq4567_RW	5	56	400	0	300	300	329	50	0	1	1	blank2r.bmp	0	1	+	0	1	blank2r.bmp	492	1	BZZB	492	1	blank2r.bmp	572	1	schön	866	1	!	-1	1	!	-1	0	0	0	0	0	0	0	0	0	0	0	0	0	0	0	0	0	0	0	0	0	0	0	0	0	0	0	0	0	0
070319	14:53:51	15:05:07	675503	5.0.10.0	5_exp_RW	15	Rpleas_acq	CS_B	VKKV	BZZB	GWWG	MQQM	YDDY	JXXJ	retten	treu	fair	schön	spielen	ehrlich	rächen	tot	faul	schlecht	strafen	eitel	1	acq_USunple_CSunple2_RW	acq4567_RW	5	57	400	1	300	300	392	46	0	1	1	blank2r.bmp	0	1	+	0	1	blank2r.bmp	492	1	MQQM	492	1	blank2r.bmp	572	1	schlecht	866	1	!	1239	1	!	1292	0	0	0	0	0	0	0	0	0	0	0	0	0	0	0	0	0	0	0	0	0	0	0	0	0	0	0	0	0	0
070319	14:53:51	15:05:09	677756	5.0.10.0	5_exp_RW	15	Rpleas_acq	CS_B	VKKV	BZZB	GWWG	MQQM	YDDY	JXXJ	retten	treu	fair	schön	spielen	ehrlich	rächen	tot	faul	schlecht	strafen	eitel	1	acq_USpleas_CSpleas1_RW	acq4567_RW	5	58	400	0	300	300	479	50	0	1	1	blank2r.bmp	0	1	+	0	1	blank2r.bmp	492	1	VKKV	492	1	blank2r.bmp	572	1	retten	866	1	!	1239	1	!	-1	0	0	0	0	0	0	0	0	0	0	0	0	0	0	0	0	0	0	0	0	0	0	0	0	0	0	0	0	0	0
070319	14:53:51	15:05:12	680022	5.0.10.0	5_exp_RW	15	Rpleas_acq	CS_B	VKKV	BZZB	GWWG	MQQM	YDDY	JXXJ	retten	treu	fair	schön	spielen	ehrlich	rächen	tot	faul	schlecht	strafen	eitel	1	acq_USpleas_CSpleas2_RW	acq4567_RW	5	59	400	0	300	300	479	50	0	1	1	blank2r.bmp	0	1	+	0	1	blank2r.bmp	492	1	BZZB	492	1	blank2r.bmp	572	3	ehrlich	866	1	!	1239	1	!	-1	0	0	0	0	0	0	0	0	0	0	0	0	0	0	0	0	0	0	0	0	0	0	0	0	0	0	0	0	0	0
070319	14:53:51	15:05:14	682141	5.0.10.0	5_exp_RW	15	Rpleas_acq	CS_B	VKKV	BZZB	GWWG	MQQM	YDDY	JXXJ	retten	treu	fair	schön	spielen	ehrlich	rächen	tot	faul	schlecht	strafen	eitel	1	acq_USpleas_CSpleas2_RW	acq4567_RW	5	60	400	0	300	300	324	50	0	1	1	blank2r.bmp	0	1	+	0	1	blank2r.bmp	492	1	BZZB	492	1	blank2r.bmp	572	2	spielen	866	1	!	-1	1	!	-1	0	0	0	0	0	0	0	0	0	0	0	0	0	0	0	0	0	0	0	0	0	0	0	0	0	0	0	0	0	0
070319	14:53:51	15:05:16	684353	5.0.10.0	5_exp_RW	15	Rpleas_acq	CS_B	VKKV	BZZB	GWWG	MQQM	YDDY	JXXJ	retten	treu	fair	schön	spielen	ehrlich	rächen	tot	faul	schlecht	strafen	eitel	1	acq_USunple_CSunple2_RW	acq4567_RW	5	61	400	1	300	300	398	46	0	1	1	blank2r.bmp	0	1	+	0	1	blank2r.bmp	492	1	MQQM	492	1	blank2r.bmp	572	3	eitel	866	1	!	1239	1	!	1292	0	0	0	0	0	0	0	0	0	0	0	0	0	0	0	0	0	0	0	0	0	0	0	0	0	0	0	0	0	0
070319	14:53:51	15:05:18	686446	5.0.10.0	5_exp_RW	15	Rpleas_acq	CS_B	VKKV	BZZB	GWWG	MQQM	YDDY	JXXJ	retten	treu	fair	schön	spielen	ehrlich	rächen	tot	faul	schlecht	strafen	eitel	1	acq_USpleas_CSpleas1_RW	acq4567_RW	5	62	400	0	300	300	318	46	0	0	1	blank2r.bmp	0	1	+	0	1	blank2r.bmp	492	1	VKKV	492	1	blank2r.bmp	572	1	retten	866	1	!	-1	1	!	-1	0	0	0	0	0	0	0	0	0	0	0	0	0	0	0	0	0	0	0	0	0	0	0	0	0	0	0	0	0	0
070319	14:53:51	15:05:20	688658	5.0.10.0	5_exp_RW	15	Rpleas_acq	CS_B	VKKV	BZZB	GWWG	MQQM	YDDY	JXXJ	retten	treu	fair	schön	spielen	ehrlich	rächen	tot	faul	schlecht	strafen	eitel	1	acq_USunple_CSunple2_RW	acq4567_RW	5	63	400	1	300	300	401	46	0	1	1	blank2r.bmp	0	1	+	0	1	blank2r.bmp	492	1	MQQM	492	1	blank2r.bmp	572	2	strafen	866	1	!	1239	1	!	1306	0	0	0	0	0	0	0	0	0	0	0	0	0	0	0	0	0	0	0	0	0	0	0	0	0	0	0	0	0	0
070319	14:53:51	15:05:23	690830	5.0.10.0	5_exp_RW	15	Rpleas_acq	CS_B	VKKV	BZZB	GWWG	MQQM	YDDY	JXXJ	retten	treu	fair	schön	spielen	ehrlich	rächen	tot	faul	schlecht	strafen	eitel	1	acq_USunple_CSunple1_RW	acq4567_RW	5	64	400	1	300	300	384	46	0	1	1	blank2r.bmp	0	1	+	0	1	blank2r.bmp	492	1	GWWG	492	1	blank2r.bmp	572	3	faul	866	1	!	1239	1	!	1279	0	0	0	0	0	0	0	0	0	0	0	0	0	0	0	0	0	0	0	0	0	0	0	0	0	0	0	0	0	0
070319	14:53:51	15:05:25	693056	5.0.10.0	5_exp_RW	15	Rpleas_acq	CS_B	VKKV	BZZB	GWWG	MQQM	YDDY	JXXJ	retten	treu	fair	schön	spielen	ehrlich	rächen	tot	faul	schlecht	strafen	eitel	1	acq_USunple_CSunple1_RW	acq4567_RW	5	65	400	1	300	300	418	46	0	1	1	blank2r.bmp	0	1	+	0	1	blank2r.bmp	492	1	GWWG	492	1	blank2r.bmp	572	1	rächen	866	1	!	1239	1	!	1319	0	0	0	0	0	0	0	0	0	0	0	0	0	0	0	0	0	0	0	0	0	0	0	0	0	0	0	0	0	0
070319	14:53:51	15:05:27	695255	5.0.10.0	5_exp_RW	15	Rpleas_acq	CS_B	VKKV	BZZB	GWWG	MQQM	YDDY	JXXJ	retten	treu	fair	schön	spielen	ehrlich	rächen	tot	faul	schlecht	strafen	eitel	1	acq_USpleas_CSpleas1_RW	acq4567_RW	5	66	400	1	300	300	410	50	0	1	1	blank2r.bmp	0	1	+	0	1	blank2r.bmp	492	1	VKKV	492	1	blank2r.bmp	572	3	fair	866	1	!	1239	1	!	1306	0	0	0	0	0	0	0	0	0	0	0	0	0	0	0	0	0	0	0	0	0	0	0	0	0	0	0	0	0	0
070319	14:53:51	15:05:29	697308	5.0.10.0	5_exp_RW	15	Rpleas_acq	CS_B	VKKV	BZZB	GWWG	MQQM	YDDY	JXXJ	retten	treu	fair	schön	spielen	ehrlich	rächen	tot	faul	schlecht	strafen	eitel	1	acq_USpleas_CSpleas2_RW	acq4567_RW	5	67	400	0	300	300	291	50	0	1	1	blank2r.bmp	0	1	+	0	1	blank2r.bmp	492	1	BZZB	492	1	blank2r.bmp	572	2	spielen	866	1	!	-1	1	!	-1	0	0	0	0	0	0	0	0	0	0	0	0	0	0	0	0	0	0	0	0	0	0	0	0	0	0	0	0	0	0
070319	14:53:51	15:05:31	699467	5.0.10.0	5_exp_RW	15	Rpleas_acq	CS_B	VKKV	BZZB	GWWG	MQQM	YDDY	JXXJ	retten	treu	fair	schön	spielen	ehrlich	rächen	tot	faul	schlecht	strafen	eitel	1	acq_USpleas_CSpleas1_RW	acq4567_RW	5	68	400	1	300	300	346	50	0	1	1	blank2r.bmp	0	1	+	0	1	blank2r.bmp	492	1	VKKV	492	1	blank2r.bmp	572	2	treu	866	1	!	1239	1	!	1252	0	0	0	0	0	0	0	0	0	0	0	0	0	0	0	0	0	0	0	0	0	0	0	0	0	0	0	0	0	0
070319	14:53:51	15:05:33	701679	5.0.10.0	5_exp_RW	15	Rpleas_acq	CS_B	VKKV	BZZB	GWWG	MQQM	YDDY	JXXJ	retten	treu	fair	schön	spielen	ehrlich	rächen	tot	faul	schlecht	strafen	eitel	1	acq_USpleas_CSpleas2_RW	acq4567_RW	5	69	400	1	300	300	416	50	0	1	1	blank2r.bmp	0	1	+	0	1	blank2r.bmp	492	1	BZZB	492	1	blank2r.bmp	572	1	schön	866	1	!	1239	1	!	1319	0	0	0	0	0	0	0	0	0	0	0	0	0	0	0	0	0	0	0	0	0	0	0	0	0	0	0	0	0	0
070319	14:53:51	15:05:35	703718	5.0.10.0	5_exp_RW	15	Rpleas_acq	CS_B	VKKV	BZZB	GWWG	MQQM	YDDY	JXXJ	retten	treu	fair	schön	spielen	ehrlich	rächen	tot	faul	schlecht	strafen	eitel	1	acq_USpleas_CSpleas2_RW	acq4567_RW	5	70	400	0	300	300	275	50	0	1	1	blank2r.bmp	0	1	+	0	1	blank2r.bmp	492	1	BZZB	492	1	blank2r.bmp	572	3	ehrlich	866	1	!	-1	1	!	-1	0	0	0	0	0	0	0	0	0	0	0	0	0	0	0	0	0	0	0	0	0	0	0	0	0	0	0	0	0	0
070319	14:53:51	15:05:38	705891	5.0.10.0	5_exp_RW	15	Rpleas_acq	CS_B	VKKV	BZZB	GWWG	MQQM	YDDY	JXXJ	retten	treu	fair	schön	spielen	ehrlich	rächen	tot	faul	schlecht	strafen	eitel	1	acq_USpleas_CSpleas1_RW	acq4567_RW	5	71	400	1	300	300	363	50	0	1	1	blank2r.bmp	0	1	+	0	1	blank2r.bmp	492	1	VKKV	492	1	blank2r.bmp	572	1	retten	866	1	!	1239	1	!	1266	0	0	0	0	0	0	0	0	0	0	0	0	0	0	0	0	0	0	0	0	0	0	0	0	0	0	0	0	0	0
070319	14:53:51	15:05:40	708050	5.0.10.0	5_exp_RW	15	Rpleas_acq	CS_B	VKKV	BZZB	GWWG	MQQM	YDDY	JXXJ	retten	treu	fair	schön	spielen	ehrlich	rächen	tot	faul	schlecht	strafen	eitel	1	acq_USunple_CSunple2_RW	acq4567_RW	5	72	400	1	300	300	369	46	0	1	1	blank2r.bmp	0	1	+	0	1	blank2r.bmp	492	1	MQQM	492	1	blank2r.bmp	572	1	schlecht	866	1	!	1239	1	!	1266	0	0	0	0	0	0	0	0	0	0	0	0	0	0	0	0	0	0	0	0	0	0	0	0	0	0	0	0	0	0
070319	14:53:51	15:05:42	710249	5.0.10.0	5_exp_RW	15	Rpleas_acq	CS_B	VKKV	BZZB	GWWG	MQQM	YDDY	JXXJ	retten	treu	fair	schön	spielen	ehrlich	rächen	tot	faul	schlecht	strafen	eitel	1	acq_USpleas_CSpleas1_RW	acq4567_RW	5	73	400	1	300	300	409	50	0	1	1	blank2r.bmp	0	1	+	0	1	blank2r.bmp	492	1	VKKV	492	1	blank2r.bmp	572	3	fair	866	1	!	1239	1	!	1306	0	0	0	0	0	0	0	0	0	0	0	0	0	0	0	0	0	0	0	0	0	0	0	0	0	0	0	0	0	0
070319	14:53:51	15:05:44	712408	5.0.10.0	5_exp_RW	15	Rpleas_acq	CS_B	VKKV	BZZB	GWWG	MQQM	YDDY	JXXJ	retten	treu	fair	schön	spielen	ehrlich	rächen	tot	faul	schlecht	strafen	eitel	1	acq_USunple_CSunple1_RW	acq4567_RW	5	74	400	1	300	300	371	46	0	1	1	blank2r.bmp	0	1	+	0	1	blank2r.bmp	492	1	GWWG	492	1	blank2r.bmp	572	2	tot	866	1	!	1239	1	!	1266	0	0	0	0	0	0	0	0	0	0	0	0	0	0	0	0	0	0	0	0	0	0	0	0	0	0	0	0	0	0
070319	14:53:51	15:05:46	714474	5.0.10.0	5_exp_RW	15	Rpleas_acq	CS_B	VKKV	BZZB	GWWG	MQQM	YDDY	JXXJ	retten	treu	fair	schön	spielen	ehrlich	rächen	tot	faul	schlecht	strafen	eitel	1	acq_USpleas_CSpleas2_RW	acq4567_RW	5	75	400	0	300	300	291	50	0	1	1	blank2r.bmp	0	1	+	0	1	blank2r.bmp	492	1	BZZB	492	1	blank2r.bmp	572	1	schön	866	1	!	-1	1	!	-1	0	0	0	0	0	0	0	0	0	0	0	0	0	0	0	0	0	0	0	0	0	0	0	0	0	0	0	0	0	0
070319	14:53:51	15:05:48	716593	5.0.10.0	5_exp_RW	15	Rpleas_acq	CS_B	VKKV	BZZB	GWWG	MQQM	YDDY	JXXJ	retten	treu	fair	schön	spielen	ehrlich	rächen	tot	faul	schlecht	strafen	eitel	1	acq_USunple_CSunple1_RW	acq4567_RW	5	76	400	0	300	300	332	46	0	1	1	blank2r.bmp	0	1	+	0	1	blank2r.bmp	492	1	GWWG	492	1	blank2r.bmp	572	2	tot	866	1	!	-1	1	!	-1	0	0	0	0	0	0	0	0	0	0	0	0	0	0	0	0	0	0	0	0	0	0	0	0	0	0	0	0	0	0
070319	14:53:51	15:05:50	718645	5.0.10.0	5_exp_RW	15	Rpleas_acq	CS_B	VKKV	BZZB	GWWG	MQQM	YDDY	JXXJ	retten	treu	fair	schön	spielen	ehrlich	rächen	tot	faul	schlecht	strafen	eitel	1	acq_USunple_CSunple2_RW	acq4567_RW	5	77	400	0	300	300	276	50	0	0	1	blank2r.bmp	0	1	+	0	1	blank2r.bmp	492	1	MQQM	492	1	blank2r.bmp	572	3	eitel	866	1	!	-1	1	!	-1	0	0	0	0	0	0	0	0	0	0	0	0	0	0	0	0	0	0	0	0	0	0	0	0	0	0	0	0	0	0
070319	14:53:51	15:05:53	720858	5.0.10.0	5_exp_RW	15	Rpleas_acq	CS_B	VKKV	BZZB	GWWG	MQQM	YDDY	JXXJ	retten	treu	fair	schön	spielen	ehrlich	rächen	tot	faul	schlecht	strafen	eitel	1	acq_USunple_CSunple2_RW	acq4567_RW	5	78	400	1	300	300	391	46	0	1	1	blank2r.bmp	0	1	+	0	1	blank2r.bmp	492	1	MQQM	492	1	blank2r.bmp	572	1	schlecht	866	1	!	1239	1	!	1292	0	0	0	0	0	0	0	0	0	0	0	0	0	0	0	0	0	0	0	0	0	0	0	0	0	0	0	0	0	0
070319	14:53:51	15:05:55	722910	5.0.10.0	5_exp_RW	15	Rpleas_acq	CS_B	VKKV	BZZB	GWWG	MQQM	YDDY	JXXJ	retten	treu	fair	schön	spielen	ehrlich	rächen	tot	faul	schlecht	strafen	eitel	1	acq_USpleas_CSpleas2_RW	acq4567_RW	5	79	400	0	300	300	281	50	0	1	1	blank2r.bmp	0	1	+	0	1	blank2r.bmp	492	1	BZZB	492	1	blank2r.bmp	572	2	spielen	866	1	!	-1	1	!	-1	0	0	0	0	0	0	0	0	0	0	0	0	0	0	0	0	0	0	0	0	0	0	0	0	0	0	0	0	0	0
070319	14:53:51	15:05:57	724989	5.0.10.0	5_exp_RW	15	Rpleas_acq	CS_B	VKKV	BZZB	GWWG	MQQM	YDDY	JXXJ	retten	treu	fair	schön	spielen	ehrlich	rächen	tot	faul	schlecht	strafen	eitel	1	acq_USunple_CSunple1_RW	acq4567_RW	5	80	400	0	300	300	302	46	0	1	1	blank2r.bmp	0	1	+	0	1	blank2r.bmp	492	1	GWWG	492	1	blank2r.bmp	572	1	rächen	866	1	!	-1	1	!	-1	0	0	0	0	0	0	0	0	0	0	0	0	0	0	0	0	0	0	0	0	0	0	0	0	0	0	0	0	0	0
070319	14:53:51	15:06:10	738690	5.0.10.0	5_exp_RW	15	Rpleas_acq	CS_B	VKKV	BZZB	GWWG	MQQM	YDDY	JXXJ	retten	treu	fair	schön	spielen	ehrlich	rächen	tot	faul	schlecht	strafen	eitel	1	acq_USunple_CSunple2_RW	acq4567_RW	6	1	400	1	300	300	346	46	0	1	1	blank2r.bmp	0	1	+	0	1	blank2r.bmp	492	1	MQQM	492	1	blank2r.bmp	572	2	strafen	866	1	!	1239	1	!	1252	0	0	0	0	0	0	0	0	0	0	0	0	0	0	0	0	0	0	0	0	0	0	0	0	0	0	0	0	0	0
070319	14:53:51	15:06:12	740743	5.0.10.0	5_exp_RW	15	Rpleas_acq	CS_B	VKKV	BZZB	GWWG	MQQM	YDDY	JXXJ	retten	treu	fair	schön	spielen	ehrlich	rächen	tot	faul	schlecht	strafen	eitel	1	acq_USpleas_CSpleas1_RW	acq4567_RW	6	2	400	0	300	300	275	46	0	0	1	blank2r.bmp	0	1	+	0	1	blank2r.bmp	492	1	VKKV	492	1	blank2r.bmp	572	2	treu	866	1	!	-1	1	!	-1	0	0	0	0	0	0	0	0	0	0	0	0	0	0	0	0	0	0	0	0	0	0	0	0	0	0	0	0	0	0
070319	14:53:51	15:06:15	742955	5.0.10.0	5_exp_RW	15	Rpleas_acq	CS_B	VKKV	BZZB	GWWG	MQQM	YDDY	JXXJ	retten	treu	fair	schön	spielen	ehrlich	rächen	tot	faul	schlecht	strafen	eitel	1	acq_USpleas_CSpleas1_RW	acq4567_RW	6	3	400	1	300	300	399	50	0	1	1	blank2r.bmp	0	1	+	0	1	blank2r.bmp	492	1	VKKV	492	1	blank2r.bmp	572	3	fair	866	1	!	1239	1	!	1306	0	0	0	0	0	0	0	0	0	0	0	0	0	0	0	0	0	0	0	0	0	0	0	0	0	0	0	0	0	0
070319	14:53:51	15:06:17	745154	5.0.10.0	5_exp_RW	15	Rpleas_acq	CS_B	VKKV	BZZB	GWWG	MQQM	YDDY	JXXJ	retten	treu	fair	schön	spielen	ehrlich	rächen	tot	faul	schlecht	strafen	eitel	1	acq_USunple_CSunple1_RW	acq4567_RW	6	4	400	1	300	300	408	46	0	1	1	blank2r.bmp	0	1	+	0	1	blank2r.bmp	492	1	GWWG	492	1	blank2r.bmp	572	3	faul	866	1	!	1239	1	!	1306	0	0	0	0	0	0	0	0	0	0	0	0	0	0	0	0	0	0	0	0	0	0	0	0	0	0	0	0	0	0
070319	14:53:51	15:06:19	747247	5.0.10.0	5_exp_RW	15	Rpleas_acq	CS_B	VKKV	BZZB	GWWG	MQQM	YDDY	JXXJ	retten	treu	fair	schön	spielen	ehrlich	rächen	tot	faul	schlecht	strafen	eitel	1	acq_USunple_CSunple2_RW	acq4567_RW	6	5	400	0	300	300	328	46	0	1	1	blank2r.bmp	0	1	+	0	1	blank2r.bmp	492	1	MQQM	492	1	blank2r.bmp	572	1	schlecht	866	1	!	-1	1	!	-1	0	0	0	0	0	0	0	0	0	0	0	0	0	0	0	0	0	0	0	0	0	0	0	0	0	0	0	0	0	0
070319	14:53:51	15:06:21	749406	5.0.10.0	5_exp_RW	15	Rpleas_acq	CS_B	VKKV	BZZB	GWWG	MQQM	YDDY	JXXJ	retten	treu	fair	schön	spielen	ehrlich	rächen	tot	faul	schlecht	strafen	eitel	1	acq_USunple_CSunple1_RW	acq4567_RW	6	6	400	1	300	300	356	46	0	1	1	blank2r.bmp	0	1	+	0	1	blank2r.bmp	492	1	GWWG	492	1	blank2r.bmp	572	1	rächen	866	1	!	1239	1	!	1252	0	0	0	0	0	0	0	0	0	0	0	0	0	0	0	0	0	0	0	0	0	0	0	0	0	0	0	0	0	0
070319	14:53:51	15:06:23	751512	5.0.10.0	5_exp_RW	15	Rpleas_acq	CS_B	VKKV	BZZB	GWWG	MQQM	YDDY	JXXJ	retten	treu	fair	schön	spielen	ehrlich	rächen	tot	faul	schlecht	strafen	eitel	1	acq_USunple_CSunple1_RW	acq4567_RW	6	7	400	0	300	300	319	46	0	1	1	blank2r.bmp	0	1	+	0	1	blank2r.bmp	492	1	GWWG	492	1	blank2r.bmp	572	2	tot	866	1	!	-1	1	!	-1	0	0	0	0	0	0	0	0	0	0	0	0	0	0	0	0	0	0	0	0	0	0	0	0	0	0	0	0	0	0
070319	14:53:51	15:06:25	753671	5.0.10.0	5_exp_RW	15	Rpleas_acq	CS_B	VKKV	BZZB	GWWG	MQQM	YDDY	JXXJ	retten	treu	fair	schön	spielen	ehrlich	rächen	tot	faul	schlecht	strafen	eitel	1	acq_USpleas_CSpleas2_RW	acq4567_RW	6	8	400	1	300	300	358	50	0	1	1	blank2r.bmp	0	1	+	0	1	blank2r.bmp	492	1	BZZB	492	1	blank2r.bmp	572	3	ehrlich	866	1	!	1239	1	!	1253	0	0	0	0	0	0	0	0	0	0	0	0	0	0	0	0	0	0	0	0	0	0	0	0	0	0	0	0	0	0
070319	14:53:51	15:06:28	755816	5.0.10.0	5_exp_RW	15	Rpleas_acq	CS_B	VKKV	BZZB	GWWG	MQQM	YDDY	JXXJ	retten	treu	fair	schön	spielen	ehrlich	rächen	tot	faul	schlecht	strafen	eitel	1	acq_USpleas_CSpleas1_RW	acq4567_RW	6	9	400	1	300	300	346	50	0	1	1	blank2r.bmp	0	1	+	0	1	blank2r.bmp	492	1	VKKV	492	1	blank2r.bmp	572	2	treu	866	1	!	1239	1	!	1252	0	0	0	0	0	0	0	0	0	0	0	0	0	0	0	0	0	0	0	0	0	0	0	0	0	0	0	0	0	0
070319	14:53:51	15:06:30	758069	5.0.10.0	5_exp_RW	15	Rpleas_acq	CS_B	VKKV	BZZB	GWWG	MQQM	YDDY	JXXJ	retten	treu	fair	schön	spielen	ehrlich	rächen	tot	faul	schlecht	strafen	eitel	1	acq_USpleas_CSpleas2_RW	acq4567_RW	6	10	400	0	300	300	479	50	0	1	1	blank2r.bmp	0	1	+	0	1	blank2r.bmp	492	1	BZZB	492	1	blank2r.bmp	572	3	ehrlich	866	1	!	1239	1	!	-1	0	0	0	0	0	0	0	0	0	0	0	0	0	0	0	0	0	0	0	0	0	0	0	0	0	0	0	0	0	0
070319	14:53:51	15:06:32	760108	5.0.10.0	5_exp_RW	15	Rpleas_acq	CS_B	VKKV	BZZB	GWWG	MQQM	YDDY	JXXJ	retten	treu	fair	schön	spielen	ehrlich	rächen	tot	faul	schlecht	strafen	eitel	1	acq_USpleas_CSpleas2_RW	acq4567_RW	6	11	400	0	300	300	264	50	0	1	1	blank2r.bmp	0	1	+	0	1	blank2r.bmp	492	1	BZZB	492	1	blank2r.bmp	572	2	spielen	866	1	!	-1	1	!	-1	0	0	0	0	0	0	0	0	0	0	0	0	0	0	0	0	0	0	0	0	0	0	0	0	0	0	0	0	0	0
070319	14:53:51	15:06:34	762214	5.0.10.0	5_exp_RW	15	Rpleas_acq	CS_B	VKKV	BZZB	GWWG	MQQM	YDDY	JXXJ	retten	treu	fair	schön	spielen	ehrlich	rächen	tot	faul	schlecht	strafen	eitel	1	acq_USpleas_CSpleas1_RW	acq4567_RW	6	12	400	0	300	300	331	46	0	0	1	blank2r.bmp	0	1	+	0	1	blank2r.bmp	492	1	VKKV	492	1	blank2r.bmp	572	1	retten	866	1	!	-1	1	!	-1	0	0	0	0	0	0	0	0	0	0	0	0	0	0	0	0	0	0	0	0	0	0	0	0	0	0	0	0	0	0
070319	14:53:51	15:06:36	764440	5.0.10.0	5_exp_RW	15	Rpleas_acq	CS_B	VKKV	BZZB	GWWG	MQQM	YDDY	JXXJ	retten	treu	fair	schön	spielen	ehrlich	rächen	tot	faul	schlecht	strafen	eitel	1	acq_USunple_CSunple2_RW	acq4567_RW	6	13	400	1	300	300	423	46	0	1	1	blank2r.bmp	0	1	+	0	1	blank2r.bmp	492	1	MQQM	492	1	blank2r.bmp	572	2	strafen	866	1	!	1239	1	!	1319	0	0	0	0	0	0	0	0	0	0	0	0	0	0	0	0	0	0	0	0	0	0	0	0	0	0	0	0	0	0
070319	14:53:51	15:06:38	766599	5.0.10.0	5_exp_RW	15	Rpleas_acq	CS_B	VKKV	BZZB	GWWG	MQQM	YDDY	JXXJ	retten	treu	fair	schön	spielen	ehrlich	rächen	tot	faul	schlecht	strafen	eitel	1	acq_USunple_CSunple1_RW	acq4567_RW	6	14	400	1	300	300	363	50	0	0	1	blank2r.bmp	0	1	+	0	1	blank2r.bmp	492	1	GWWG	492	1	blank2r.bmp	572	3	faul	866	1	!	1239	1	!	1266	0	0	0	0	0	0	0	0	0	0	0	0	0	0	0	0	0	0	0	0	0	0	0	0	0	0	0	0	0	0
070319	14:53:51	15:06:40	768758	5.0.10.0	5_exp_RW	15	Rpleas_acq	CS_B	VKKV	BZZB	GWWG	MQQM	YDDY	JXXJ	retten	treu	fair	schön	spielen	ehrlich	rächen	tot	faul	schlecht	strafen	eitel	1	acq_USpleas_CSpleas2_RW	acq4567_RW	6	15	400	1	300	300	346	50	0	1	1	blank2r.bmp	0	1	+	0	1	blank2r.bmp	492	1	BZZB	492	1	blank2r.bmp	572	1	schön	866	1	!	1239	1	!	1252	0	0	0	0	0	0	0	0	0	0	0	0	0	0	0	0	0	0	0	0	0	0	0	0	0	0	0	0	0	0
070319	14:53:51	15:06:43	770837	5.0.10.0	5_exp_RW	15	Rpleas_acq	CS_B	VKKV	BZZB	GWWG	MQQM	YDDY	JXXJ	retten	treu	fair	schön	spielen	ehrlich	rächen	tot	faul	schlecht	strafen	eitel	1	acq_USpleas_CSpleas1_RW	acq4567_RW	6	16	400	0	300	300	314	50	0	1	1	blank2r.bmp	0	1	+	0	1	blank2r.bmp	492	1	VKKV	492	1	blank2r.bmp	572	3	fair	866	1	!	-1	1	!	-1	0	0	0	0	0	0	0	0	0	0	0	0	0	0	0	0	0	0	0	0	0	0	0	0	0	0	0	0	0	0
070319	14:53:51	15:06:45	772889	5.0.10.0	5_exp_RW	15	Rpleas_acq	CS_B	VKKV	BZZB	GWWG	MQQM	YDDY	JXXJ	retten	treu	fair	schön	spielen	ehrlich	rächen	tot	faul	schlecht	strafen	eitel	1	acq_USunple_CSunple2_RW	acq4567_RW	6	17	400	0	300	300	267	50	0	0	1	blank2r.bmp	0	1	+	0	1	blank2r.bmp	492	1	MQQM	492	1	blank2r.bmp	572	3	eitel	866	1	!	-1	1	!	-1	0	0	0	0	0	0	0	0	0	0	0	0	0	0	0	0	0	0	0	0	0	0	0	0	0	0	0	0	0	0
070319	14:53:51	15:06:47	775075	5.0.10.0	5_exp_RW	15	Rpleas_acq	CS_B	VKKV	BZZB	GWWG	MQQM	YDDY	JXXJ	retten	treu	fair	schön	spielen	ehrlich	rächen	tot	faul	schlecht	strafen	eitel	1	acq_USunple_CSunple1_RW	acq4567_RW	6	18	400	1	300	300	376	46	0	1	1	blank2r.bmp	0	1	+	0	1	blank2r.bmp	492	1	GWWG	492	1	blank2r.bmp	572	1	rächen	866	1	!	1239	1	!	1279	0	0	0	0	0	0	0	0	0	0	0	0	0	0	0	0	0	0	0	0	0	0	0	0	0	0	0	0	0	0
070319	14:53:51	15:06:49	777101	5.0.10.0	5_exp_RW	15	Rpleas_acq	CS_B	VKKV	BZZB	GWWG	MQQM	YDDY	JXXJ	retten	treu	fair	schön	spielen	ehrlich	rächen	tot	faul	schlecht	strafen	eitel	1	acq_USpleas_CSpleas2_RW	acq4567_RW	6	19	400	0	300	300	255	50	0	1	1	blank2r.bmp	0	1	+	0	1	blank2r.bmp	492	1	BZZB	492	1	blank2r.bmp	572	1	schön	866	1	!	-1	1	!	-1	0	0	0	0	0	0	0	0	0	0	0	0	0	0	0	0	0	0	0	0	0	0	0	0	0	0	0	0	0	0
070319	14:53:51	15:06:51	779287	5.0.10.0	5_exp_RW	15	Rpleas_acq	CS_B	VKKV	BZZB	GWWG	MQQM	YDDY	JXXJ	retten	treu	fair	schön	spielen	ehrlich	rächen	tot	faul	schlecht	strafen	eitel	1	acq_USunple_CSunple2_RW	acq4567_RW	6	20	400	1	300	300	373	46	0	1	1	blank2r.bmp	0	1	+	0	1	blank2r.bmp	492	1	MQQM	492	1	blank2r.bmp	572	3	eitel	866	1	!	1239	1	!	1279	0	0	0	0	0	0	0	0	0	0	0	0	0	0	0	0	0	0	0	0	0	0	0	0	0	0	0	0	0	0
070319	14:53:51	15:06:53	781366	5.0.10.0	5_exp_RW	15	Rpleas_acq	CS_B	VKKV	BZZB	GWWG	MQQM	YDDY	JXXJ	retten	treu	fair	schön	spielen	ehrlich	rächen	tot	faul	schlecht	strafen	eitel	1	acq_USpleas_CSpleas2_RW	acq4567_RW	6	21	400	0	300	300	314	50	0	1	1	blank2r.bmp	0	1	+	0	1	blank2r.bmp	492	1	BZZB	492	1	blank2r.bmp	572	2	spielen	866	1	!	-1	1	!	-1	0	0	0	0	0	0	0	0	0	0	0	0	0	0	0	0	0	0	0	0	0	0	0	0	0	0	0	0	0	0
