date	time	script.currenttime	script.elapsedtime	build	script.currentexpt	subject	expressions.LRpleas_acq	expressions.conditionCS_A	expressions.CSpleas_1	expressions.CSpleas_2	expressions.CSunple_1	expressions.CSunple_2	expressions.distractor_1	expressions.distractor_2	expressions.US_pleas1	expressions.US_pleas2	expressions.US_pleas3	expressions.US_pleas4	expressions.US_pleas5	expressions.US_pleas6	expressions.US_unple1	expressions.US_unple2	expressions.US_unple3	expressions.US_unple4	expressions.US_unple5	expressions.US_unple6	counter.positions_noRW	trialcode	blockcode	blocknum	trialnum	windowcenter	inwindow	pretrialpause	posttrialpause	latency	response	expressions.correctedscore	correct	stimulusnumber1	stimulusitem1	stimulusonset1	stimulusnumber2	stimulusitem2	stimulusonset2	stimulusnumber3	stimulusitem3	stimulusonset3	stimulusnumber4	stimulusitem4	stimulusonset4	stimulusnumber5	stimulusitem5	stimulusonset5	stimulusnumber6	stimulusitem6	stimulusonset6	stimulusnumber7	stimulusitem7	stimulusonset7	stimulusnumber8	stimulusitem8	stimulusonset8	stimulusnumber9	stimulusitem9	stimulusonset9	stimulusnumber10	stimulusitem10	stimulusonset10	stimulusnumber11	stimulusitem11	stimulusonset11	stimulusnumber12	stimulusitem12	stimulusonset12	stimulusnumber13	stimulusitem13	stimulusonset13	stimulusnumber14	stimulusitem14	stimulusonset14	stimulusnumber15	stimulusitem15	stimulusonset15	stimulusnumber16	stimulusitem16	stimulusonset16	stimulusnumber17	stimulusitem17	stimulusonset17	stimulusnumber18	stimulusitem18	stimulusonset18
071719	16:10:41	16:12:05	83259	5.0.10.0	5_exp_RW	67	Rpleas_acq	CS_B	JXXJ	YDDY	BZZB	VKKV	GWWG	MQQM	fair	spielen	ehrlich	schön	treu	retten	faul	strafen	eitel	schlecht	tot	rächen	1	acq_USunple_CSunple1_RW	acq1_RW	1	1	0	0	300	300	1681	46	0	1	1	blank2r.bmp	0	1	+	0	1	blank2r.bmp	492	1	BZZB	492	1	blank2r.bmp	572	2	strafen	866	0	0	0	0	0	0	0	0	0	0	0	0	0	0	0	0	0	0	0	0	0	0	0	0	0	0	0	0	0	0	0	0	0	0	0	0
071719	16:10:41	16:12:07	85764	5.0.10.0	5_exp_RW	67	Rpleas_acq	CS_B	JXXJ	YDDY	BZZB	VKKV	GWWG	MQQM	fair	spielen	ehrlich	schön	treu	retten	faul	strafen	eitel	schlecht	tot	rächen	1	acq_USunple_CSunple2_RW	acq1_RW	1	2	0	0	300	300	1029	46	0	1	1	blank2r.bmp	0	1	+	0	1	blank2r.bmp	492	1	VKKV	492	1	blank2r.bmp	572	2	tot	866	0	0	0	0	0	0	0	0	0	0	0	0	0	0	0	0	0	0	0	0	0	0	0	0	0	0	0	0	0	0	0	0	0	0	0	0
071719	16:10:41	16:12:11	89323	5.0.10.0	5_exp_RW	67	Rpleas_acq	CS_B	JXXJ	YDDY	BZZB	VKKV	GWWG	MQQM	fair	spielen	ehrlich	schön	treu	retten	faul	strafen	eitel	schlecht	tot	rächen	1	acq_USunple_CSunple1_RW	acq1_RW	1	3	0	0	300	300	1852	50	0	0	1	blank2r.bmp	0	1	+	0	1	blank2r.bmp	492	1	BZZB	492	1	blank2r.bmp	572	3	eitel	866	1	FEHLER	2758	0	0	0	0	0	0	0	0	0	0	0	0	0	0	0	0	0	0	0	0	0	0	0	0	0	0	0	0	0	0	0	0	0
071719	16:10:41	16:12:13	91482	5.0.10.0	5_exp_RW	67	Rpleas_acq	CS_B	JXXJ	YDDY	BZZB	VKKV	GWWG	MQQM	fair	spielen	ehrlich	schön	treu	retten	faul	strafen	eitel	schlecht	tot	rächen	1	acq_USpleas_CSpleas1_RW	acq1_RW	1	4	0	0	300	300	892	50	0	1	1	blank2r.bmp	0	1	+	0	1	blank2r.bmp	492	1	JXXJ	492	1	blank2r.bmp	572	1	fair	866	0	0	0	0	0	0	0	0	0	0	0	0	0	0	0	0	0	0	0	0	0	0	0	0	0	0	0	0	0	0	0	0	0	0	0	0
071719	16:10:41	16:12:15	93655	5.0.10.0	5_exp_RW	67	Rpleas_acq	CS_B	JXXJ	YDDY	BZZB	VKKV	GWWG	MQQM	fair	spielen	ehrlich	schön	treu	retten	faul	strafen	eitel	schlecht	tot	rächen	1	acq_USunple_CSunple1_RW	acq1_RW	1	5	0	0	300	300	698	46	0	1	1	blank2r.bmp	0	1	+	0	1	blank2r.bmp	492	1	BZZB	492	1	blank2r.bmp	572	1	faul	866	0	0	0	0	0	0	0	0	0	0	0	0	0	0	0	0	0	0	0	0	0	0	0	0	0	0	0	0	0	0	0	0	0	0	0	0
071719	16:10:41	16:12:18	95987	5.0.10.0	5_exp_RW	67	Rpleas_acq	CS_B	JXXJ	YDDY	BZZB	VKKV	GWWG	MQQM	fair	spielen	ehrlich	schön	treu	retten	faul	strafen	eitel	schlecht	tot	rächen	1	acq_USpleas_CSpleas1_RW	acq1_RW	1	6	0	0	300	300	842	50	0	1	1	blank2r.bmp	0	1	+	0	1	blank2r.bmp	492	1	JXXJ	492	1	blank2r.bmp	572	2	spielen	866	0	0	0	0	0	0	0	0	0	0	0	0	0	0	0	0	0	0	0	0	0	0	0	0	0	0	0	0	0	0	0	0	0	0	0	0
071719	16:10:41	16:12:20	98546	5.0.10.0	5_exp_RW	67	Rpleas_acq	CS_B	JXXJ	YDDY	BZZB	VKKV	GWWG	MQQM	fair	spielen	ehrlich	schön	treu	retten	faul	strafen	eitel	schlecht	tot	rächen	1	acq_USunple_CSunple2_RW	acq1_RW	1	7	0	0	300	300	1090	46	0	1	1	blank2r.bmp	0	1	+	0	1	blank2r.bmp	492	1	VKKV	492	1	blank2r.bmp	572	1	schlecht	866	0	0	0	0	0	0	0	0	0	0	0	0	0	0	0	0	0	0	0	0	0	0	0	0	0	0	0	0	0	0	0	0	0	0	0	0
071719	16:10:41	16:12:23	101212	5.0.10.0	5_exp_RW	67	Rpleas_acq	CS_B	JXXJ	YDDY	BZZB	VKKV	GWWG	MQQM	fair	spielen	ehrlich	schön	treu	retten	faul	strafen	eitel	schlecht	tot	rächen	1	acq_USpleas_CSpleas2_RW	acq1_RW	1	8	0	0	300	300	1184	50	0	1	1	blank2r.bmp	0	1	+	0	1	blank2r.bmp	492	1	YDDY	492	1	blank2r.bmp	572	3	retten	866	0	0	0	0	0	0	0	0	0	0	0	0	0	0	0	0	0	0	0	0	0	0	0	0	0	0	0	0	0	0	0	0	0	0	0	0
071719	16:10:41	16:12:25	103357	5.0.10.0	5_exp_RW	67	Rpleas_acq	CS_B	JXXJ	YDDY	BZZB	VKKV	GWWG	MQQM	fair	spielen	ehrlich	schön	treu	retten	faul	strafen	eitel	schlecht	tot	rächen	1	acq_USpleas_CSpleas2_RW	acq1_RW	1	9	0	0	300	300	638	50	0	1	1	blank2r.bmp	0	1	+	0	1	blank2r.bmp	492	1	YDDY	492	1	blank2r.bmp	572	2	treu	866	0	0	0	0	0	0	0	0	0	0	0	0	0	0	0	0	0	0	0	0	0	0	0	0	0	0	0	0	0	0	0	0	0	0	0	0
071719	16:10:41	16:12:27	105450	5.0.10.0	5_exp_RW	67	Rpleas_acq	CS_B	JXXJ	YDDY	BZZB	VKKV	GWWG	MQQM	fair	spielen	ehrlich	schön	treu	retten	faul	strafen	eitel	schlecht	tot	rächen	1	acq_USpleas_CSpleas1_RW	acq1_RW	1	10	0	0	300	300	617	50	0	1	1	blank2r.bmp	0	1	+	0	1	blank2r.bmp	492	1	JXXJ	492	1	blank2r.bmp	572	3	ehrlich	866	0	0	0	0	0	0	0	0	0	0	0	0	0	0	0	0	0	0	0	0	0	0	0	0	0	0	0	0	0	0	0	0	0	0	0	0
071719	16:10:41	16:12:29	107756	5.0.10.0	5_exp_RW	67	Rpleas_acq	CS_B	JXXJ	YDDY	BZZB	VKKV	GWWG	MQQM	fair	spielen	ehrlich	schön	treu	retten	faul	strafen	eitel	schlecht	tot	rächen	1	acq_USunple_CSunple2_RW	acq1_RW	1	11	0	0	300	300	824	46	0	1	1	blank2r.bmp	0	1	+	0	1	blank2r.bmp	492	1	VKKV	492	1	blank2r.bmp	572	3	rächen	866	0	0	0	0	0	0	0	0	0	0	0	0	0	0	0	0	0	0	0	0	0	0	0	0	0	0	0	0	0	0	0	0	0	0	0	0
071719	16:10:41	16:12:31	109821	5.0.10.0	5_exp_RW	67	Rpleas_acq	CS_B	JXXJ	YDDY	BZZB	VKKV	GWWG	MQQM	fair	spielen	ehrlich	schön	treu	retten	faul	strafen	eitel	schlecht	tot	rächen	1	acq_USpleas_CSpleas2_RW	acq1_RW	1	12	0	0	300	300	580	50	0	1	1	blank2r.bmp	0	1	+	0	1	blank2r.bmp	492	1	YDDY	492	1	blank2r.bmp	572	1	schön	866	0	0	0	0	0	0	0	0	0	0	0	0	0	0	0	0	0	0	0	0	0	0	0	0	0	0	0	0	0	0	0	0	0	0	0	0
071719	16:10:41	16:12:34	112140	5.0.10.0	5_exp_RW	67	Rpleas_acq	CS_B	JXXJ	YDDY	BZZB	VKKV	GWWG	MQQM	fair	spielen	ehrlich	schön	treu	retten	faul	strafen	eitel	schlecht	tot	rächen	1	acq_USunple_CSunple1_RW	acq1_RW	1	13	0	0	300	300	612	50	0	0	1	blank2r.bmp	0	1	+	0	1	blank2r.bmp	492	1	BZZB	492	1	blank2r.bmp	572	3	eitel	866	1	FEHLER	1519	0	0	0	0	0	0	0	0	0	0	0	0	0	0	0	0	0	0	0	0	0	0	0	0	0	0	0	0	0	0	0	0	0
071719	16:10:41	16:12:36	113993	5.0.10.0	5_exp_RW	67	Rpleas_acq	CS_B	JXXJ	YDDY	BZZB	VKKV	GWWG	MQQM	fair	spielen	ehrlich	schön	treu	retten	faul	strafen	eitel	schlecht	tot	rächen	1	acq_USpleas_CSpleas2_RW	acq1_RW	1	14	0	0	300	300	581	50	0	1	1	blank2r.bmp	0	1	+	0	1	blank2r.bmp	492	1	YDDY	492	1	blank2r.bmp	572	2	treu	866	0	0	0	0	0	0	0	0	0	0	0	0	0	0	0	0	0	0	0	0	0	0	0	0	0	0	0	0	0	0	0	0	0	0	0	0
071719	16:10:41	16:12:38	116059	5.0.10.0	5_exp_RW	67	Rpleas_acq	CS_B	JXXJ	YDDY	BZZB	VKKV	GWWG	MQQM	fair	spielen	ehrlich	schön	treu	retten	faul	strafen	eitel	schlecht	tot	rächen	1	acq_USunple_CSunple2_RW	acq1_RW	1	15	0	0	300	300	573	46	0	1	1	blank2r.bmp	0	1	+	0	1	blank2r.bmp	492	1	VKKV	492	1	blank2r.bmp	572	2	tot	866	0	0	0	0	0	0	0	0	0	0	0	0	0	0	0	0	0	0	0	0	0	0	0	0	0	0	0	0	0	0	0	0	0	0	0	0
071719	16:10:41	16:12:40	118351	5.0.10.0	5_exp_RW	67	Rpleas_acq	CS_B	JXXJ	YDDY	BZZB	VKKV	GWWG	MQQM	fair	spielen	ehrlich	schön	treu	retten	faul	strafen	eitel	schlecht	tot	rächen	1	acq_USpleas_CSpleas1_RW	acq1_RW	1	16	0	0	300	300	806	50	0	1	1	blank2r.bmp	0	1	+	0	1	blank2r.bmp	492	1	JXXJ	492	1	blank2r.bmp	572	3	ehrlich	866	0	0	0	0	0	0	0	0	0	0	0	0	0	0	0	0	0	0	0	0	0	0	0	0	0	0	0	0	0	0	0	0	0	0	0	0
071719	16:10:41	16:13:25	163253	5.0.10.0	5_exp_RW	67	Rpleas_acq	CS_B	JXXJ	YDDY	BZZB	VKKV	GWWG	MQQM	fair	spielen	ehrlich	schön	treu	retten	faul	strafen	eitel	schlecht	tot	rächen	1	acq_USunple_CSunple1_RW	acq2_RW	2	1	480	0	300	300	3398	50	0	0	1	blank2r.bmp	0	1	+	0	1	blank2r.bmp	492	1	BZZB	492	1	blank2r.bmp	572	1	faul	866	1	FEHLER	4611	1	!	1319	1	!	-1	0	0	0	0	0	0	0	0	0	0	0	0	0	0	0	0	0	0	0	0	0	0	0	0	0	0	0
071719	16:10:41	16:13:27	165625	5.0.10.0	5_exp_RW	67	Rpleas_acq	CS_B	JXXJ	YDDY	BZZB	VKKV	GWWG	MQQM	fair	spielen	ehrlich	schön	treu	retten	faul	strafen	eitel	schlecht	tot	rächen	1	acq_USpleas_CSpleas1_RW	acq2_RW	2	2	480	0	300	300	817	50	0	1	1	blank2r.bmp	0	1	+	0	1	blank2r.bmp	492	1	JXXJ	492	1	blank2r.bmp	572	2	spielen	866	1	!	1319	1	!	-1	0	0	0	0	0	0	0	0	0	0	0	0	0	0	0	0	0	0	0	0	0	0	0	0	0	0	0	0	0	0
071719	16:10:41	16:13:29	167878	5.0.10.0	5_exp_RW	67	Rpleas_acq	CS_B	JXXJ	YDDY	BZZB	VKKV	GWWG	MQQM	fair	spielen	ehrlich	schön	treu	retten	faul	strafen	eitel	schlecht	tot	rächen	1	acq_USpleas_CSpleas2_RW	acq2_RW	2	3	480	1	300	300	441	50	0	1	1	blank2r.bmp	0	1	+	0	1	blank2r.bmp	492	1	YDDY	492	1	blank2r.bmp	572	1	schön	866	1	!	1319	1	!	1346	0	0	0	0	0	0	0	0	0	0	0	0	0	0	0	0	0	0	0	0	0	0	0	0	0	0	0	0	0	0
071719	16:10:41	16:13:32	170224	5.0.10.0	5_exp_RW	67	Rpleas_acq	CS_B	JXXJ	YDDY	BZZB	VKKV	GWWG	MQQM	fair	spielen	ehrlich	schön	treu	retten	faul	strafen	eitel	schlecht	tot	rächen	1	acq_USpleas_CSpleas1_RW	acq2_RW	2	4	480	0	300	300	583	50	0	1	1	blank2r.bmp	0	1	+	0	1	blank2r.bmp	492	1	JXXJ	492	1	blank2r.bmp	572	1	fair	866	1	!	1319	1	!	-1	0	0	0	0	0	0	0	0	0	0	0	0	0	0	0	0	0	0	0	0	0	0	0	0	0	0	0	0	0	0
071719	16:10:41	16:13:41	179500	5.0.10.0	5_exp_RW	67	Rpleas_acq	CS_B	JXXJ	YDDY	BZZB	VKKV	GWWG	MQQM	fair	spielen	ehrlich	schön	treu	retten	faul	strafen	eitel	schlecht	tot	rächen	1	acq_USunple_CSunple2_RW	acq2_RW	2	5	480	0	300	300	7268	50	0	0	1	blank2r.bmp	0	1	+	0	1	blank2r.bmp	492	1	VKKV	492	1	blank2r.bmp	572	3	rächen	866	1	FEHLER	8476	1	!	1319	1	!	-1	0	0	0	0	0	0	0	0	0	0	0	0	0	0	0	0	0	0	0	0	0	0	0	0	0	0	0
071719	16:10:41	16:13:43	181686	5.0.10.0	5_exp_RW	67	Rpleas_acq	CS_B	JXXJ	YDDY	BZZB	VKKV	GWWG	MQQM	fair	spielen	ehrlich	schön	treu	retten	faul	strafen	eitel	schlecht	tot	rächen	1	acq_USpleas_CSpleas2_RW	acq2_RW	2	6	480	0	300	300	623	50	0	1	1	blank2r.bmp	0	1	+	0	1	blank2r.bmp	492	1	YDDY	492	1	blank2r.bmp	572	3	retten	866	1	!	1319	1	!	-1	0	0	0	0	0	0	0	0	0	0	0	0	0	0	0	0	0	0	0	0	0	0	0	0	0	0	0	0	0	0
071719	16:10:41	16:14:00	198839	5.0.10.0	5_exp_RW	67	Rpleas_acq	CS_B	JXXJ	YDDY	BZZB	VKKV	GWWG	MQQM	fair	spielen	ehrlich	schön	treu	retten	faul	strafen	eitel	schlecht	tot	rächen	1	acq_USunple_CSunple2_RW	acq2_RW	2	7	480	0	300	300	15146	50	0	0	1	blank2r.bmp	0	1	+	0	1	blank2r.bmp	492	1	VKKV	492	1	blank2r.bmp	572	1	schlecht	866	1	FEHLER	16353	1	!	1319	1	!	-1	0	0	0	0	0	0	0	0	0	0	0	0	0	0	0	0	0	0	0	0	0	0	0	0	0	0	0
071719	16:10:41	16:14:18	216032	5.0.10.0	5_exp_RW	67	Rpleas_acq	CS_B	JXXJ	YDDY	BZZB	VKKV	GWWG	MQQM	fair	spielen	ehrlich	schön	treu	retten	faul	strafen	eitel	schlecht	tot	rächen	1	acq_USunple_CSunple2_RW	acq2_RW	2	8	480	0	300	300	15416	50	0	0	1	blank2r.bmp	0	1	+	0	1	blank2r.bmp	492	1	VKKV	492	1	blank2r.bmp	572	3	rächen	866	1	FEHLER	16619	1	!	1319	1	!	-1	0	0	0	0	0	0	0	0	0	0	0	0	0	0	0	0	0	0	0	0	0	0	0	0	0	0	0
071719	16:10:41	16:14:20	218084	5.0.10.0	5_exp_RW	67	Rpleas_acq	CS_B	JXXJ	YDDY	BZZB	VKKV	GWWG	MQQM	fair	spielen	ehrlich	schön	treu	retten	faul	strafen	eitel	schlecht	tot	rächen	1	acq_USpleas_CSpleas1_RW	acq2_RW	2	9	480	1	300	300	476	50	0	1	1	blank2r.bmp	0	1	+	0	1	blank2r.bmp	492	1	JXXJ	492	1	blank2r.bmp	572	2	spielen	866	1	!	1319	1	!	1372	0	0	0	0	0	0	0	0	0	0	0	0	0	0	0	0	0	0	0	0	0	0	0	0	0	0	0	0	0	0
071719	16:10:41	16:14:25	223895	5.0.10.0	5_exp_RW	67	Rpleas_acq	CS_B	JXXJ	YDDY	BZZB	VKKV	GWWG	MQQM	fair	spielen	ehrlich	schön	treu	retten	faul	strafen	eitel	schlecht	tot	rächen	1	acq_USpleas_CSpleas1_RW	acq2_RW	2	10	480	0	300	300	4026	50	0	1	1	blank2r.bmp	0	1	+	0	1	blank2r.bmp	492	1	JXXJ	492	1	blank2r.bmp	572	3	ehrlich	866	1	!	1319	1	!	-1	0	0	0	0	0	0	0	0	0	0	0	0	0	0	0	0	0	0	0	0	0	0	0	0	0	0	0	0	0	0
071719	16:10:41	16:14:28	226148	5.0.10.0	5_exp_RW	67	Rpleas_acq	CS_B	JXXJ	YDDY	BZZB	VKKV	GWWG	MQQM	fair	spielen	ehrlich	schön	treu	retten	faul	strafen	eitel	schlecht	tot	rächen	1	acq_USpleas_CSpleas2_RW	acq2_RW	2	11	480	1	300	300	443	50	0	1	1	blank2r.bmp	0	1	+	0	1	blank2r.bmp	492	1	YDDY	492	1	blank2r.bmp	572	2	treu	866	1	!	1319	1	!	1346	0	0	0	0	0	0	0	0	0	0	0	0	0	0	0	0	0	0	0	0	0	0	0	0	0	0	0	0	0	0
071719	16:10:41	16:14:30	228293	5.0.10.0	5_exp_RW	67	Rpleas_acq	CS_B	JXXJ	YDDY	BZZB	VKKV	GWWG	MQQM	fair	spielen	ehrlich	schön	treu	retten	faul	strafen	eitel	schlecht	tot	rächen	1	acq_USpleas_CSpleas1_RW	acq2_RW	2	12	480	0	300	300	365	50	0	1	1	blank2r.bmp	0	1	+	0	1	blank2r.bmp	492	1	JXXJ	492	1	blank2r.bmp	572	1	fair	866	1	!	-1	1	!	-1	0	0	0	0	0	0	0	0	0	0	0	0	0	0	0	0	0	0	0	0	0	0	0	0	0	0	0	0	0	0
071719	16:10:41	16:14:42	240529	5.0.10.0	5_exp_RW	67	Rpleas_acq	CS_B	JXXJ	YDDY	BZZB	VKKV	GWWG	MQQM	fair	spielen	ehrlich	schön	treu	retten	faul	strafen	eitel	schlecht	tot	rächen	1	acq_USunple_CSunple2_RW	acq2_RW	2	13	480	0	300	300	10231	50	0	0	1	blank2r.bmp	0	1	+	0	1	blank2r.bmp	492	1	VKKV	492	1	blank2r.bmp	572	1	schlecht	866	1	FEHLER	11435	1	!	1319	1	!	-1	0	0	0	0	0	0	0	0	0	0	0	0	0	0	0	0	0	0	0	0	0	0	0	0	0	0	0
071719	16:10:41	16:14:57	255469	5.0.10.0	5_exp_RW	67	Rpleas_acq	CS_B	JXXJ	YDDY	BZZB	VKKV	GWWG	MQQM	fair	spielen	ehrlich	schön	treu	retten	faul	strafen	eitel	schlecht	tot	rächen	1	acq_USunple_CSunple1_RW	acq2_RW	2	14	480	0	300	300	13158	50	0	0	1	blank2r.bmp	0	1	+	0	1	blank2r.bmp	492	1	BZZB	492	1	blank2r.bmp	572	2	strafen	866	1	FEHLER	14367	1	!	1319	1	!	-1	0	0	0	0	0	0	0	0	0	0	0	0	0	0	0	0	0	0	0	0	0	0	0	0	0	0	0
071719	16:10:41	16:14:59	257415	5.0.10.0	5_exp_RW	67	Rpleas_acq	CS_B	JXXJ	YDDY	BZZB	VKKV	GWWG	MQQM	fair	spielen	ehrlich	schön	treu	retten	faul	strafen	eitel	schlecht	tot	rächen	1	acq_USpleas_CSpleas1_RW	acq2_RW	2	15	480	0	300	300	393	50	0	1	1	blank2r.bmp	0	1	+	0	1	blank2r.bmp	492	1	JXXJ	492	1	blank2r.bmp	572	2	spielen	866	1	!	-1	1	!	-1	0	0	0	0	0	0	0	0	0	0	0	0	0	0	0	0	0	0	0	0	0	0	0	0	0	0	0	0	0	0
071719	16:10:41	16:15:01	259801	5.0.10.0	5_exp_RW	67	Rpleas_acq	CS_B	JXXJ	YDDY	BZZB	VKKV	GWWG	MQQM	fair	spielen	ehrlich	schön	treu	retten	faul	strafen	eitel	schlecht	tot	rächen	1	acq_USunple_CSunple1_RW	acq2_RW	2	16	480	0	300	300	383	50	0	0	1	blank2r.bmp	0	1	+	0	1	blank2r.bmp	492	1	BZZB	492	1	blank2r.bmp	572	2	strafen	866	1	FEHLER	1586	1	!	-1	1	!	-1	0	0	0	0	0	0	0	0	0	0	0	0	0	0	0	0	0	0	0	0	0	0	0	0	0	0	0
071719	16:10:41	16:15:14	272769	5.0.10.0	5_exp_RW	67	Rpleas_acq	CS_B	JXXJ	YDDY	BZZB	VKKV	GWWG	MQQM	fair	spielen	ehrlich	schön	treu	retten	faul	strafen	eitel	schlecht	tot	rächen	1	acq_USunple_CSunple2_RW	acq2_RW	2	17	480	0	300	300	11190	50	0	0	1	blank2r.bmp	0	1	+	0	1	blank2r.bmp	492	1	VKKV	492	1	blank2r.bmp	572	2	tot	866	1	FEHLER	12394	1	!	1319	1	!	-1	0	0	0	0	0	0	0	0	0	0	0	0	0	0	0	0	0	0	0	0	0	0	0	0	0	0	0
071719	16:10:41	16:15:26	284884	5.0.10.0	5_exp_RW	67	Rpleas_acq	CS_B	JXXJ	YDDY	BZZB	VKKV	GWWG	MQQM	fair	spielen	ehrlich	schön	treu	retten	faul	strafen	eitel	schlecht	tot	rächen	1	acq_USunple_CSunple1_RW	acq2_RW	2	18	480	0	300	300	10329	50	0	0	1	blank2r.bmp	0	1	+	0	1	blank2r.bmp	492	1	BZZB	492	1	blank2r.bmp	572	3	eitel	866	1	FEHLER	11541	1	!	1319	1	!	-1	0	0	0	0	0	0	0	0	0	0	0	0	0	0	0	0	0	0	0	0	0	0	0	0	0	0	0
071719	16:10:41	16:15:35	293734	5.0.10.0	5_exp_RW	67	Rpleas_acq	CS_B	JXXJ	YDDY	BZZB	VKKV	GWWG	MQQM	fair	spielen	ehrlich	schön	treu	retten	faul	strafen	eitel	schlecht	tot	rächen	1	acq_USunple_CSunple1_RW	acq2_RW	2	19	480	0	300	300	7066	50	0	0	1	blank2r.bmp	0	1	+	0	1	blank2r.bmp	492	1	BZZB	492	1	blank2r.bmp	572	1	faul	866	1	FEHLER	8276	1	!	1319	1	!	-1	0	0	0	0	0	0	0	0	0	0	0	0	0	0	0	0	0	0	0	0	0	0	0	0	0	0	0
071719	16:10:41	16:15:37	295853	5.0.10.0	5_exp_RW	67	Rpleas_acq	CS_B	JXXJ	YDDY	BZZB	VKKV	GWWG	MQQM	fair	spielen	ehrlich	schön	treu	retten	faul	strafen	eitel	schlecht	tot	rächen	1	acq_USpleas_CSpleas2_RW	acq2_RW	2	20	480	0	300	300	559	50	0	1	1	blank2r.bmp	0	1	+	0	1	blank2r.bmp	492	1	YDDY	492	1	blank2r.bmp	572	3	retten	866	1	!	1319	1	!	-1	0	0	0	0	0	0	0	0	0	0	0	0	0	0	0	0	0	0	0	0	0	0	0	0	0	0	0	0	0	0
071719	16:10:41	16:15:53	311060	5.0.10.0	5_exp_RW	67	Rpleas_acq	CS_B	JXXJ	YDDY	BZZB	VKKV	GWWG	MQQM	fair	spielen	ehrlich	schön	treu	retten	faul	strafen	eitel	schlecht	tot	rächen	1	acq_USunple_CSunple2_RW	acq2_RW	2	21	480	0	300	300	13199	50	0	0	1	blank2r.bmp	0	1	+	0	1	blank2r.bmp	492	1	VKKV	492	1	blank2r.bmp	572	3	rächen	866	1	FEHLER	14407	1	!	1319	1	!	-1	0	0	0	0	0	0	0	0	0	0	0	0	0	0	0	0	0	0	0	0	0	0	0	0	0	0	0
071719	16:10:41	16:15:55	313206	5.0.10.0	5_exp_RW	67	Rpleas_acq	CS_B	JXXJ	YDDY	BZZB	VKKV	GWWG	MQQM	fair	spielen	ehrlich	schön	treu	retten	faul	strafen	eitel	schlecht	tot	rächen	1	acq_USunple_CSunple1_RW	acq2_RW	2	22	480	0	300	300	365	50	0	0	1	blank2r.bmp	0	1	+	0	1	blank2r.bmp	492	1	BZZB	492	1	blank2r.bmp	572	3	eitel	866	1	FEHLER	1572	1	!	-1	1	!	-1	0	0	0	0	0	0	0	0	0	0	0	0	0	0	0	0	0	0	0	0	0	0	0	0	0	0	0
071719	16:10:41	16:15:57	315045	5.0.10.0	5_exp_RW	67	Rpleas_acq	CS_B	JXXJ	YDDY	BZZB	VKKV	GWWG	MQQM	fair	spielen	ehrlich	schön	treu	retten	faul	strafen	eitel	schlecht	tot	rächen	1	acq_USpleas_CSpleas2_RW	acq2_RW	2	23	480	0	300	300	274	50	0	1	1	blank2r.bmp	0	1	+	0	1	blank2r.bmp	492	1	YDDY	492	1	blank2r.bmp	572	1	schön	866	1	!	-1	1	!	-1	0	0	0	0	0	0	0	0	0	0	0	0	0	0	0	0	0	0	0	0	0	0	0	0	0	0	0	0	0	0
071719	16:10:41	16:15:59	317497	5.0.10.0	5_exp_RW	67	Rpleas_acq	CS_B	JXXJ	YDDY	BZZB	VKKV	GWWG	MQQM	fair	spielen	ehrlich	schön	treu	retten	faul	strafen	eitel	schlecht	tot	rächen	1	acq_USpleas_CSpleas2_RW	acq2_RW	2	24	480	0	300	300	666	50	0	1	1	blank2r.bmp	0	1	+	0	1	blank2r.bmp	492	1	YDDY	492	1	blank2r.bmp	572	3	retten	866	1	!	1319	1	!	-1	0	0	0	0	0	0	0	0	0	0	0	0	0	0	0	0	0	0	0	0	0	0	0	0	0	0	0	0	0	0
071719	16:10:41	16:16:25	342954	5.0.10.0	5_exp_RW	67	Rpleas_acq	CS_B	JXXJ	YDDY	BZZB	VKKV	GWWG	MQQM	fair	spielen	ehrlich	schön	treu	retten	faul	strafen	eitel	schlecht	tot	rächen	1	acq_USunple_CSunple2_RW	acq3_RW	3	1	453	0	300	300	6344	50	0	0	1	blank2r.bmp	0	1	+	0	1	blank2r.bmp	492	1	VKKV	492	1	blank2r.bmp	572	1	schlecht	866	1	FEHLER	7556	1	!	1292	1	!	-1	0	0	0	0	0	0	0	0	0	0	0	0	0	0	0	0	0	0	0	0	0	0	0	0	0	0	0
071719	16:10:41	16:16:27	344913	5.0.10.0	5_exp_RW	67	Rpleas_acq	CS_B	JXXJ	YDDY	BZZB	VKKV	GWWG	MQQM	fair	spielen	ehrlich	schön	treu	retten	faul	strafen	eitel	schlecht	tot	rächen	1	acq_USpleas_CSpleas1_RW	acq3_RW	3	2	453	0	300	300	386	50	0	1	1	blank2r.bmp	0	1	+	0	1	blank2r.bmp	492	1	JXXJ	492	1	blank2r.bmp	572	3	ehrlich	866	1	!	-1	1	!	-1	0	0	0	0	0	0	0	0	0	0	0	0	0	0	0	0	0	0	0	0	0	0	0	0	0	0	0	0	0	0
071719	16:10:41	16:16:29	347152	5.0.10.0	5_exp_RW	67	Rpleas_acq	CS_B	JXXJ	YDDY	BZZB	VKKV	GWWG	MQQM	fair	spielen	ehrlich	schön	treu	retten	faul	strafen	eitel	schlecht	tot	rächen	1	acq_USpleas_CSpleas2_RW	acq3_RW	3	3	453	1	300	300	424	50	0	1	1	blank2r.bmp	0	1	+	0	1	blank2r.bmp	492	1	YDDY	492	1	blank2r.bmp	572	2	treu	866	1	!	1292	1	!	1319	0	0	0	0	0	0	0	0	0	0	0	0	0	0	0	0	0	0	0	0	0	0	0	0	0	0	0	0	0	0
071719	16:10:41	16:16:31	349351	5.0.10.0	5_exp_RW	67	Rpleas_acq	CS_B	JXXJ	YDDY	BZZB	VKKV	GWWG	MQQM	fair	spielen	ehrlich	schön	treu	retten	faul	strafen	eitel	schlecht	tot	rächen	1	acq_USpleas_CSpleas1_RW	acq3_RW	3	4	453	1	300	300	411	50	0	1	1	blank2r.bmp	0	1	+	0	1	blank2r.bmp	492	1	JXXJ	492	1	blank2r.bmp	572	1	fair	866	1	!	1292	1	!	1306	0	0	0	0	0	0	0	0	0	0	0	0	0	0	0	0	0	0	0	0	0	0	0	0	0	0	0	0	0	0
071719	16:10:41	16:16:33	351430	5.0.10.0	5_exp_RW	67	Rpleas_acq	CS_B	JXXJ	YDDY	BZZB	VKKV	GWWG	MQQM	fair	spielen	ehrlich	schön	treu	retten	faul	strafen	eitel	schlecht	tot	rächen	1	acq_USpleas_CSpleas2_RW	acq3_RW	3	5	453	0	300	300	308	50	0	1	1	blank2r.bmp	0	1	+	0	1	blank2r.bmp	492	1	YDDY	492	1	blank2r.bmp	572	1	schön	866	1	!	-1	1	!	-1	0	0	0	0	0	0	0	0	0	0	0	0	0	0	0	0	0	0	0	0	0	0	0	0	0	0	0	0	0	0
071719	16:10:41	16:16:39	357841	5.0.10.0	5_exp_RW	67	Rpleas_acq	CS_B	JXXJ	YDDY	BZZB	VKKV	GWWG	MQQM	fair	spielen	ehrlich	schön	treu	retten	faul	strafen	eitel	schlecht	tot	rächen	1	acq_USunple_CSunple1_RW	acq3_RW	3	6	453	0	300	300	4405	50	0	0	1	blank2r.bmp	0	1	+	0	1	blank2r.bmp	492	1	BZZB	492	1	blank2r.bmp	572	2	strafen	866	1	FEHLER	5611	1	!	1292	1	!	-1	0	0	0	0	0	0	0	0	0	0	0	0	0	0	0	0	0	0	0	0	0	0	0	0	0	0	0
071719	16:10:41	16:16:41	359760	5.0.10.0	5_exp_RW	67	Rpleas_acq	CS_B	JXXJ	YDDY	BZZB	VKKV	GWWG	MQQM	fair	spielen	ehrlich	schön	treu	retten	faul	strafen	eitel	schlecht	tot	rächen	1	acq_USpleas_CSpleas1_RW	acq3_RW	3	7	453	0	300	300	364	50	0	1	1	blank2r.bmp	0	1	+	0	1	blank2r.bmp	492	1	JXXJ	492	1	blank2r.bmp	572	2	spielen	866	1	!	-1	1	!	-1	0	0	0	0	0	0	0	0	0	0	0	0	0	0	0	0	0	0	0	0	0	0	0	0	0	0	0	0	0	0
071719	16:10:41	16:16:47	365278	5.0.10.0	5_exp_RW	67	Rpleas_acq	CS_B	JXXJ	YDDY	BZZB	VKKV	GWWG	MQQM	fair	spielen	ehrlich	schön	treu	retten	faul	strafen	eitel	schlecht	tot	rächen	1	acq_USunple_CSunple1_RW	acq3_RW	3	8	453	0	300	300	3512	50	0	0	1	blank2r.bmp	0	1	+	0	1	blank2r.bmp	492	1	BZZB	492	1	blank2r.bmp	572	1	faul	866	1	FEHLER	4718	1	!	1292	1	!	-1	0	0	0	0	0	0	0	0	0	0	0	0	0	0	0	0	0	0	0	0	0	0	0	0	0	0	0
071719	16:10:41	16:16:51	369650	5.0.10.0	5_exp_RW	67	Rpleas_acq	CS_B	JXXJ	YDDY	BZZB	VKKV	GWWG	MQQM	fair	spielen	ehrlich	schön	treu	retten	faul	strafen	eitel	schlecht	tot	rächen	1	acq_USunple_CSunple2_RW	acq3_RW	3	9	453	0	300	300	2577	50	0	0	1	blank2r.bmp	0	1	+	0	1	blank2r.bmp	492	1	VKKV	492	1	blank2r.bmp	572	2	tot	866	1	FEHLER	3785	1	!	1292	1	!	-1	0	0	0	0	0	0	0	0	0	0	0	0	0	0	0	0	0	0	0	0	0	0	0	0	0	0	0
071719	16:10:41	16:16:53	371662	5.0.10.0	5_exp_RW	67	Rpleas_acq	CS_B	JXXJ	YDDY	BZZB	VKKV	GWWG	MQQM	fair	spielen	ehrlich	schön	treu	retten	faul	strafen	eitel	schlecht	tot	rächen	1	acq_USpleas_CSpleas1_RW	acq3_RW	3	10	453	1	300	300	434	50	0	1	1	blank2r.bmp	0	1	+	0	1	blank2r.bmp	492	1	JXXJ	492	1	blank2r.bmp	572	1	fair	866	1	!	1292	1	!	1332	0	0	0	0	0	0	0	0	0	0	0	0	0	0	0	0	0	0	0	0	0	0	0	0	0	0	0	0	0	0
071719	16:10:41	16:16:59	377486	5.0.10.0	5_exp_RW	67	Rpleas_acq	CS_B	JXXJ	YDDY	BZZB	VKKV	GWWG	MQQM	fair	spielen	ehrlich	schön	treu	retten	faul	strafen	eitel	schlecht	tot	rächen	1	acq_USunple_CSunple1_RW	acq3_RW	3	11	453	0	300	300	3825	50	0	0	1	blank2r.bmp	0	1	+	0	1	blank2r.bmp	492	1	BZZB	492	1	blank2r.bmp	572	2	strafen	866	1	FEHLER	5037	1	!	1292	1	!	-1	0	0	0	0	0	0	0	0	0	0	0	0	0	0	0	0	0	0	0	0	0	0	0	0	0	0	0
071719	16:10:41	16:17:01	379632	5.0.10.0	5_exp_RW	67	Rpleas_acq	CS_B	JXXJ	YDDY	BZZB	VKKV	GWWG	MQQM	fair	spielen	ehrlich	schön	treu	retten	faul	strafen	eitel	schlecht	tot	rächen	1	acq_USunple_CSunple2_RW	acq3_RW	3	12	453	0	300	300	358	50	0	0	1	blank2r.bmp	0	1	+	0	1	blank2r.bmp	492	1	VKKV	492	1	blank2r.bmp	572	2	tot	866	1	FEHLER	1572	1	!	-1	1	!	-1	0	0	0	0	0	0	0	0	0	0	0	0	0	0	0	0	0	0	0	0	0	0	0	0	0	0	0
071719	16:10:41	16:17:05	383737	5.0.10.0	5_exp_RW	67	Rpleas_acq	CS_B	JXXJ	YDDY	BZZB	VKKV	GWWG	MQQM	fair	spielen	ehrlich	schön	treu	retten	faul	strafen	eitel	schlecht	tot	rächen	1	acq_USpleas_CSpleas1_RW	acq3_RW	3	13	453	0	300	300	2547	50	0	1	1	blank2r.bmp	0	1	+	0	1	blank2r.bmp	492	1	JXXJ	492	1	blank2r.bmp	572	3	ehrlich	866	1	!	1292	1	!	-1	0	0	0	0	0	0	0	0	0	0	0	0	0	0	0	0	0	0	0	0	0	0	0	0	0	0	0	0	0	0
071719	16:10:41	16:17:08	385990	5.0.10.0	5_exp_RW	67	Rpleas_acq	CS_B	JXXJ	YDDY	BZZB	VKKV	GWWG	MQQM	fair	spielen	ehrlich	schön	treu	retten	faul	strafen	eitel	schlecht	tot	rächen	1	acq_USpleas_CSpleas2_RW	acq3_RW	3	14	453	1	300	300	441	50	0	1	1	blank2r.bmp	0	1	+	0	1	blank2r.bmp	492	1	YDDY	492	1	blank2r.bmp	572	3	retten	866	1	!	1292	1	!	1346	0	0	0	0	0	0	0	0	0	0	0	0	0	0	0	0	0	0	0	0	0	0	0	0	0	0	0	0	0	0
071719	16:10:41	16:17:10	388429	5.0.10.0	5_exp_RW	67	Rpleas_acq	CS_B	JXXJ	YDDY	BZZB	VKKV	GWWG	MQQM	fair	spielen	ehrlich	schön	treu	retten	faul	strafen	eitel	schlecht	tot	rächen	1	acq_USunple_CSunple1_RW	acq3_RW	3	15	453	1	300	300	426	50	0	0	1	blank2r.bmp	0	1	+	0	1	blank2r.bmp	492	1	BZZB	492	1	blank2r.bmp	572	3	eitel	866	1	FEHLER	1652	1	!	1292	1	!	1332	0	0	0	0	0	0	0	0	0	0	0	0	0	0	0	0	0	0	0	0	0	0	0	0	0	0	0
071719	16:10:41	16:17:12	390521	5.0.10.0	5_exp_RW	67	Rpleas_acq	CS_B	JXXJ	YDDY	BZZB	VKKV	GWWG	MQQM	fair	spielen	ehrlich	schön	treu	retten	faul	strafen	eitel	schlecht	tot	rächen	1	acq_USunple_CSunple2_RW	acq3_RW	3	16	453	0	300	300	299	50	0	0	1	blank2r.bmp	0	1	+	0	1	blank2r.bmp	492	1	VKKV	492	1	blank2r.bmp	572	3	rächen	866	1	FEHLER	1506	1	!	-1	1	!	-1	0	0	0	0	0	0	0	0	0	0	0	0	0	0	0	0	0	0	0	0	0	0	0	0	0	0	0
071719	16:10:41	16:17:17	395599	5.0.10.0	5_exp_RW	67	Rpleas_acq	CS_B	JXXJ	YDDY	BZZB	VKKV	GWWG	MQQM	fair	spielen	ehrlich	schön	treu	retten	faul	strafen	eitel	schlecht	tot	rächen	1	acq_USpleas_CSpleas2_RW	acq3_RW	3	17	453	0	300	300	3520	50	0	1	1	blank2r.bmp	0	1	+	0	1	blank2r.bmp	492	1	YDDY	492	1	blank2r.bmp	572	2	treu	866	1	!	1292	1	!	-1	0	0	0	0	0	0	0	0	0	0	0	0	0	0	0	0	0	0	0	0	0	0	0	0	0	0	0	0	0	0
071719	16:10:41	16:17:19	397731	5.0.10.0	5_exp_RW	67	Rpleas_acq	CS_B	JXXJ	YDDY	BZZB	VKKV	GWWG	MQQM	fair	spielen	ehrlich	schön	treu	retten	faul	strafen	eitel	schlecht	tot	rächen	1	acq_USpleas_CSpleas2_RW	acq3_RW	3	18	453	0	300	300	352	50	0	1	1	blank2r.bmp	0	1	+	0	1	blank2r.bmp	492	1	YDDY	492	1	blank2r.bmp	572	1	schön	866	1	!	-1	1	!	-1	0	0	0	0	0	0	0	0	0	0	0	0	0	0	0	0	0	0	0	0	0	0	0	0	0	0	0	0	0	0
071719	16:10:41	16:17:30	408407	5.0.10.0	5_exp_RW	67	Rpleas_acq	CS_B	JXXJ	YDDY	BZZB	VKKV	GWWG	MQQM	fair	spielen	ehrlich	schön	treu	retten	faul	strafen	eitel	schlecht	tot	rächen	1	acq_USunple_CSunple2_RW	acq3_RW	3	19	453	0	300	300	8673	50	0	0	1	blank2r.bmp	0	1	+	0	1	blank2r.bmp	492	1	VKKV	492	1	blank2r.bmp	572	1	schlecht	866	1	FEHLER	9875	1	!	1292	1	!	-1	0	0	0	0	0	0	0	0	0	0	0	0	0	0	0	0	0	0	0	0	0	0	0	0	0	0	0
071719	16:10:41	16:17:36	414351	5.0.10.0	5_exp_RW	67	Rpleas_acq	CS_B	JXXJ	YDDY	BZZB	VKKV	GWWG	MQQM	fair	spielen	ehrlich	schön	treu	retten	faul	strafen	eitel	schlecht	tot	rächen	1	acq_USunple_CSunple1_RW	acq3_RW	3	20	453	0	300	300	4165	50	0	0	1	blank2r.bmp	0	1	+	0	1	blank2r.bmp	492	1	BZZB	492	1	blank2r.bmp	572	1	faul	866	1	FEHLER	5371	1	!	1292	1	!	-1	0	0	0	0	0	0	0	0	0	0	0	0	0	0	0	0	0	0	0	0	0	0	0	0	0	0	0
071719	16:10:41	16:17:42	420842	5.0.10.0	5_exp_RW	67	Rpleas_acq	CS_B	JXXJ	YDDY	BZZB	VKKV	GWWG	MQQM	fair	spielen	ehrlich	schön	treu	retten	faul	strafen	eitel	schlecht	tot	rächen	1	acq_USunple_CSunple2_RW	acq3_RW	3	21	453	0	300	300	4716	50	0	0	1	blank2r.bmp	0	1	+	0	1	blank2r.bmp	492	1	VKKV	492	1	blank2r.bmp	572	1	schlecht	866	1	FEHLER	5917	1	!	1292	1	!	-1	0	0	0	0	0	0	0	0	0	0	0	0	0	0	0	0	0	0	0	0	0	0	0	0	0	0	0
071719	16:10:41	16:17:49	427413	5.0.10.0	5_exp_RW	67	Rpleas_acq	CS_B	JXXJ	YDDY	BZZB	VKKV	GWWG	MQQM	fair	spielen	ehrlich	schön	treu	retten	faul	strafen	eitel	schlecht	tot	rächen	1	acq_USunple_CSunple1_RW	acq3_RW	3	22	453	0	300	300	4785	50	0	0	1	blank2r.bmp	0	1	+	0	1	blank2r.bmp	492	1	BZZB	492	1	blank2r.bmp	572	1	faul	866	1	FEHLER	5997	1	!	1292	1	!	-1	0	0	0	0	0	0	0	0	0	0	0	0	0	0	0	0	0	0	0	0	0	0	0	0	0	0	0
071719	16:10:41	16:17:53	430918	5.0.10.0	5_exp_RW	67	Rpleas_acq	CS_B	JXXJ	YDDY	BZZB	VKKV	GWWG	MQQM	fair	spielen	ehrlich	schön	treu	retten	faul	strafen	eitel	schlecht	tot	rächen	1	acq_USpleas_CSpleas1_RW	acq3_RW	3	23	453	0	300	300	1932	50	0	1	1	blank2r.bmp	0	1	+	0	1	blank2r.bmp	492	1	JXXJ	492	1	blank2r.bmp	572	3	ehrlich	866	1	!	1292	1	!	-1	0	0	0	0	0	0	0	0	0	0	0	0	0	0	0	0	0	0	0	0	0	0	0	0	0	0	0	0	0	0
071719	16:10:41	16:17:55	433184	5.0.10.0	5_exp_RW	67	Rpleas_acq	CS_B	JXXJ	YDDY	BZZB	VKKV	GWWG	MQQM	fair	spielen	ehrlich	schön	treu	retten	faul	strafen	eitel	schlecht	tot	rächen	1	acq_USpleas_CSpleas2_RW	acq3_RW	3	24	453	1	300	300	454	50	0	1	1	blank2r.bmp	0	1	+	0	1	blank2r.bmp	492	1	YDDY	492	1	blank2r.bmp	572	2	treu	866	1	!	1292	1	!	1359	0	0	0	0	0	0	0	0	0	0	0	0	0	0	0	0	0	0	0	0	0	0	0	0	0	0	0	0	0	0
071719	16:10:41	16:18:14	452136	5.0.10.0	5_exp_RW	67	Rpleas_acq	CS_B	JXXJ	YDDY	BZZB	VKKV	GWWG	MQQM	fair	spielen	ehrlich	schön	treu	retten	faul	strafen	eitel	schlecht	tot	rächen	1	acq_USpleas_CSpleas2_RW	acq4567_RW	4	1	400	0	300	300	517	50	0	1	1	blank2r.bmp	0	1	+	0	1	blank2r.bmp	492	1	YDDY	492	1	blank2r.bmp	572	3	retten	866	1	!	1239	1	!	-1	0	0	0	0	0	0	0	0	0	0	0	0	0	0	0	0	0	0	0	0	0	0	0	0	0	0	0	0	0	0
071719	16:10:41	16:18:16	454322	5.0.10.0	5_exp_RW	67	Rpleas_acq	CS_B	JXXJ	YDDY	BZZB	VKKV	GWWG	MQQM	fair	spielen	ehrlich	schön	treu	retten	faul	strafen	eitel	schlecht	tot	rächen	1	acq_USunple_CSunple1_RW	acq4567_RW	4	2	400	1	300	300	380	50	0	0	1	blank2r.bmp	0	1	+	0	1	blank2r.bmp	492	1	BZZB	492	1	blank2r.bmp	572	3	eitel	866	1	!	1239	1	!	1279	0	0	0	0	0	0	0	0	0	0	0	0	0	0	0	0	0	0	0	0	0	0	0	0	0	0	0	0	0	0
071719	16:10:41	16:18:18	456494	5.0.10.0	5_exp_RW	67	Rpleas_acq	CS_B	JXXJ	YDDY	BZZB	VKKV	GWWG	MQQM	fair	spielen	ehrlich	schön	treu	retten	faul	strafen	eitel	schlecht	tot	rächen	1	acq_USpleas_CSpleas1_RW	acq4567_RW	4	3	400	1	300	300	383	50	0	1	1	blank2r.bmp	0	1	+	0	1	blank2r.bmp	492	1	JXXJ	492	1	blank2r.bmp	572	2	spielen	866	1	!	1239	1	!	1279	0	0	0	0	0	0	0	0	0	0	0	0	0	0	0	0	0	0	0	0	0	0	0	0	0	0	0	0	0	0
071719	16:10:41	16:18:24	462718	5.0.10.0	5_exp_RW	67	Rpleas_acq	CS_B	JXXJ	YDDY	BZZB	VKKV	GWWG	MQQM	fair	spielen	ehrlich	schön	treu	retten	faul	strafen	eitel	schlecht	tot	rächen	1	acq_USunple_CSunple1_RW	acq4567_RW	4	4	400	0	300	300	4460	50	0	0	1	blank2r.bmp	0	1	+	0	1	blank2r.bmp	492	1	BZZB	492	1	blank2r.bmp	572	2	strafen	866	1	!	1239	1	!	-1	0	0	0	0	0	0	0	0	0	0	0	0	0	0	0	0	0	0	0	0	0	0	0	0	0	0	0	0	0	0
071719	16:10:41	16:18:30	468463	5.0.10.0	5_exp_RW	67	Rpleas_acq	CS_B	JXXJ	YDDY	BZZB	VKKV	GWWG	MQQM	fair	spielen	ehrlich	schön	treu	retten	faul	strafen	eitel	schlecht	tot	rächen	1	acq_USunple_CSunple1_RW	acq4567_RW	4	5	400	0	300	300	3966	50	0	0	1	blank2r.bmp	0	1	+	0	1	blank2r.bmp	492	1	BZZB	492	1	blank2r.bmp	572	2	strafen	866	1	!	1239	1	!	-1	0	0	0	0	0	0	0	0	0	0	0	0	0	0	0	0	0	0	0	0	0	0	0	0	0	0	0	0	0	0
071719	16:10:41	16:18:32	470529	5.0.10.0	5_exp_RW	67	Rpleas_acq	CS_B	JXXJ	YDDY	BZZB	VKKV	GWWG	MQQM	fair	spielen	ehrlich	schön	treu	retten	faul	strafen	eitel	schlecht	tot	rächen	1	acq_USpleas_CSpleas2_RW	acq4567_RW	4	6	400	0	300	300	267	50	0	1	1	blank2r.bmp	0	1	+	0	1	blank2r.bmp	492	1	YDDY	492	1	blank2r.bmp	572	1	schön	866	1	!	-1	1	!	-1	0	0	0	0	0	0	0	0	0	0	0	0	0	0	0	0	0	0	0	0	0	0	0	0	0	0	0	0	0	0
071719	16:10:41	16:18:35	472981	5.0.10.0	5_exp_RW	67	Rpleas_acq	CS_B	JXXJ	YDDY	BZZB	VKKV	GWWG	MQQM	fair	spielen	ehrlich	schön	treu	retten	faul	strafen	eitel	schlecht	tot	rächen	1	acq_USpleas_CSpleas1_RW	acq4567_RW	4	7	400	0	300	300	670	50	0	1	1	blank2r.bmp	0	1	+	0	1	blank2r.bmp	492	1	JXXJ	492	1	blank2r.bmp	572	1	fair	866	1	!	1239	1	!	-1	0	0	0	0	0	0	0	0	0	0	0	0	0	0	0	0	0	0	0	0	0	0	0	0	0	0	0	0	0	0
071719	16:10:41	16:18:37	475020	5.0.10.0	5_exp_RW	67	Rpleas_acq	CS_B	JXXJ	YDDY	BZZB	VKKV	GWWG	MQQM	fair	spielen	ehrlich	schön	treu	retten	faul	strafen	eitel	schlecht	tot	rächen	1	acq_USpleas_CSpleas2_RW	acq4567_RW	4	8	400	0	300	300	252	50	0	1	1	blank2r.bmp	0	1	+	0	1	blank2r.bmp	492	1	YDDY	492	1	blank2r.bmp	572	2	treu	866	1	!	-1	1	!	-1	0	0	0	0	0	0	0	0	0	0	0	0	0	0	0	0	0	0	0	0	0	0	0	0	0	0	0	0	0	0
071719	16:10:41	16:18:42	480298	5.0.10.0	5_exp_RW	67	Rpleas_acq	CS_B	JXXJ	YDDY	BZZB	VKKV	GWWG	MQQM	fair	spielen	ehrlich	schön	treu	retten	faul	strafen	eitel	schlecht	tot	rächen	1	acq_USunple_CSunple2_RW	acq4567_RW	4	9	400	0	300	300	3500	50	0	0	1	blank2r.bmp	0	1	+	0	1	blank2r.bmp	492	1	VKKV	492	1	blank2r.bmp	572	2	tot	866	1	!	1239	1	!	-1	0	0	0	0	0	0	0	0	0	0	0	0	0	0	0	0	0	0	0	0	0	0	0	0	0	0	0	0	0	0
071719	16:10:41	16:18:44	482324	5.0.10.0	5_exp_RW	67	Rpleas_acq	CS_B	JXXJ	YDDY	BZZB	VKKV	GWWG	MQQM	fair	spielen	ehrlich	schön	treu	retten	faul	strafen	eitel	schlecht	tot	rächen	1	acq_USpleas_CSpleas1_RW	acq4567_RW	4	10	400	0	300	300	239	50	0	1	1	blank2r.bmp	0	1	+	0	1	blank2r.bmp	492	1	JXXJ	492	1	blank2r.bmp	572	1	fair	866	1	!	-1	1	!	-1	0	0	0	0	0	0	0	0	0	0	0	0	0	0	0	0	0	0	0	0	0	0	0	0	0	0	0	0	0	0
071719	16:10:41	16:18:46	484496	5.0.10.0	5_exp_RW	67	Rpleas_acq	CS_B	JXXJ	YDDY	BZZB	VKKV	GWWG	MQQM	fair	spielen	ehrlich	schön	treu	retten	faul	strafen	eitel	schlecht	tot	rächen	1	acq_USpleas_CSpleas2_RW	acq4567_RW	4	11	400	1	300	300	372	50	0	1	1	blank2r.bmp	0	1	+	0	1	blank2r.bmp	492	1	YDDY	492	1	blank2r.bmp	572	3	retten	866	1	!	1239	1	!	1266	0	0	0	0	0	0	0	0	0	0	0	0	0	0	0	0	0	0	0	0	0	0	0	0	0	0	0	0	0	0
071719	16:10:41	16:18:48	486522	5.0.10.0	5_exp_RW	67	Rpleas_acq	CS_B	JXXJ	YDDY	BZZB	VKKV	GWWG	MQQM	fair	spielen	ehrlich	schön	treu	retten	faul	strafen	eitel	schlecht	tot	rächen	1	acq_USpleas_CSpleas2_RW	acq4567_RW	4	12	400	0	300	300	260	50	0	1	1	blank2r.bmp	0	1	+	0	1	blank2r.bmp	492	1	YDDY	492	1	blank2r.bmp	572	1	schön	866	1	!	-1	1	!	-1	0	0	0	0	0	0	0	0	0	0	0	0	0	0	0	0	0	0	0	0	0	0	0	0	0	0	0	0	0	0
071719	16:10:41	16:18:55	493026	5.0.10.0	5_exp_RW	67	Rpleas_acq	CS_B	JXXJ	YDDY	BZZB	VKKV	GWWG	MQQM	fair	spielen	ehrlich	schön	treu	retten	faul	strafen	eitel	schlecht	tot	rächen	1	acq_USunple_CSunple2_RW	acq4567_RW	4	13	400	0	300	300	4724	50	0	0	1	blank2r.bmp	0	1	+	0	1	blank2r.bmp	492	1	VKKV	492	1	blank2r.bmp	572	3	rächen	866	1	!	1239	1	!	-1	0	0	0	0	0	0	0	0	0	0	0	0	0	0	0	0	0	0	0	0	0	0	0	0	0	0	0	0	0	0
071719	16:10:41	16:18:57	495079	5.0.10.0	5_exp_RW	67	Rpleas_acq	CS_B	JXXJ	YDDY	BZZB	VKKV	GWWG	MQQM	fair	spielen	ehrlich	schön	treu	retten	faul	strafen	eitel	schlecht	tot	rächen	1	acq_USunple_CSunple2_RW	acq4567_RW	4	14	400	0	300	300	273	50	0	0	1	blank2r.bmp	0	1	+	0	1	blank2r.bmp	492	1	VKKV	492	1	blank2r.bmp	572	3	rächen	866	1	!	-1	1	!	-1	0	0	0	0	0	0	0	0	0	0	0	0	0	0	0	0	0	0	0	0	0	0	0	0	0	0	0	0	0	0
071719	16:10:41	16:19:06	504195	5.0.10.0	5_exp_RW	67	Rpleas_acq	CS_B	JXXJ	YDDY	BZZB	VKKV	GWWG	MQQM	fair	spielen	ehrlich	schön	treu	retten	faul	strafen	eitel	schlecht	tot	rächen	1	acq_USunple_CSunple2_RW	acq4567_RW	4	15	400	0	300	300	7329	50	0	0	1	blank2r.bmp	0	1	+	0	1	blank2r.bmp	492	1	VKKV	492	1	blank2r.bmp	572	2	tot	866	1	!	1239	1	!	-1	0	0	0	0	0	0	0	0	0	0	0	0	0	0	0	0	0	0	0	0	0	0	0	0	0	0	0	0	0	0
071719	16:10:41	16:19:16	513938	5.0.10.0	5_exp_RW	67	Rpleas_acq	CS_B	JXXJ	YDDY	BZZB	VKKV	GWWG	MQQM	fair	spielen	ehrlich	schön	treu	retten	faul	strafen	eitel	schlecht	tot	rächen	1	acq_USunple_CSunple1_RW	acq4567_RW	4	16	400	0	300	300	7958	50	0	0	1	blank2r.bmp	0	1	+	0	1	blank2r.bmp	492	1	BZZB	492	1	blank2r.bmp	572	3	eitel	866	1	!	1239	1	!	-1	0	0	0	0	0	0	0	0	0	0	0	0	0	0	0	0	0	0	0	0	0	0	0	0	0	0	0	0	0	0
071719	16:10:41	16:19:18	516164	5.0.10.0	5_exp_RW	67	Rpleas_acq	CS_B	JXXJ	YDDY	BZZB	VKKV	GWWG	MQQM	fair	spielen	ehrlich	schön	treu	retten	faul	strafen	eitel	schlecht	tot	rächen	1	acq_USunple_CSunple2_RW	acq4567_RW	4	17	400	1	300	300	400	50	0	0	1	blank2r.bmp	0	1	+	0	1	blank2r.bmp	492	1	VKKV	492	1	blank2r.bmp	572	1	schlecht	866	1	!	1239	1	!	1306	0	0	0	0	0	0	0	0	0	0	0	0	0	0	0	0	0	0	0	0	0	0	0	0	0	0	0	0	0	0
071719	16:10:41	16:19:20	518403	5.0.10.0	5_exp_RW	67	Rpleas_acq	CS_B	JXXJ	YDDY	BZZB	VKKV	GWWG	MQQM	fair	spielen	ehrlich	schön	treu	retten	faul	strafen	eitel	schlecht	tot	rächen	1	acq_USpleas_CSpleas1_RW	acq4567_RW	4	18	400	1	300	300	443	50	0	1	1	blank2r.bmp	0	1	+	0	1	blank2r.bmp	492	1	JXXJ	492	1	blank2r.bmp	572	2	spielen	866	1	!	1239	1	!	1346	0	0	0	0	0	0	0	0	0	0	0	0	0	0	0	0	0	0	0	0	0	0	0	0	0	0	0	0	0	0
071719	16:10:41	16:19:22	520428	5.0.10.0	5_exp_RW	67	Rpleas_acq	CS_B	JXXJ	YDDY	BZZB	VKKV	GWWG	MQQM	fair	spielen	ehrlich	schön	treu	retten	faul	strafen	eitel	schlecht	tot	rächen	1	acq_USunple_CSunple1_RW	acq4567_RW	4	19	400	0	300	300	264	50	0	0	1	blank2r.bmp	0	1	+	0	1	blank2r.bmp	492	1	BZZB	492	1	blank2r.bmp	572	1	faul	866	1	!	-1	1	!	-1	0	0	0	0	0	0	0	0	0	0	0	0	0	0	0	0	0	0	0	0	0	0	0	0	0	0	0	0	0	0
071719	16:10:41	16:19:24	522521	5.0.10.0	5_exp_RW	67	Rpleas_acq	CS_B	JXXJ	YDDY	BZZB	VKKV	GWWG	MQQM	fair	spielen	ehrlich	schön	treu	retten	faul	strafen	eitel	schlecht	tot	rächen	1	acq_USpleas_CSpleas1_RW	acq4567_RW	4	20	400	0	300	300	317	50	0	1	1	blank2r.bmp	0	1	+	0	1	blank2r.bmp	492	1	JXXJ	492	1	blank2r.bmp	572	3	ehrlich	866	1	!	-1	1	!	-1	0	0	0	0	0	0	0	0	0	0	0	0	0	0	0	0	0	0	0	0	0	0	0	0	0	0	0	0	0	0
071719	16:10:41	16:19:26	524587	5.0.10.0	5_exp_RW	67	Rpleas_acq	CS_B	JXXJ	YDDY	BZZB	VKKV	GWWG	MQQM	fair	spielen	ehrlich	schön	treu	retten	faul	strafen	eitel	schlecht	tot	rächen	1	acq_USpleas_CSpleas2_RW	acq4567_RW	4	21	400	0	300	300	291	50	0	1	1	blank2r.bmp	0	1	+	0	1	blank2r.bmp	492	1	YDDY	492	1	blank2r.bmp	572	2	treu	866	1	!	-1	1	!	-1	0	0	0	0	0	0	0	0	0	0	0	0	0	0	0	0	0	0	0	0	0	0	0	0	0	0	0	0	0	0
071719	16:10:41	16:19:32	530438	5.0.10.0	5_exp_RW	67	Rpleas_acq	CS_B	JXXJ	YDDY	BZZB	VKKV	GWWG	MQQM	fair	spielen	ehrlich	schön	treu	retten	faul	strafen	eitel	schlecht	tot	rächen	1	acq_USpleas_CSpleas2_RW	acq4567_RW	4	22	400	0	300	300	4071	50	0	1	1	blank2r.bmp	0	1	+	0	1	blank2r.bmp	492	1	YDDY	492	1	blank2r.bmp	572	1	schön	866	1	!	1239	1	!	-1	0	0	0	0	0	0	0	0	0	0	0	0	0	0	0	0	0	0	0	0	0	0	0	0	0	0	0	0	0	0
071719	16:10:41	16:19:34	532637	5.0.10.0	5_exp_RW	67	Rpleas_acq	CS_B	JXXJ	YDDY	BZZB	VKKV	GWWG	MQQM	fair	spielen	ehrlich	schön	treu	retten	faul	strafen	eitel	schlecht	tot	rächen	1	acq_USpleas_CSpleas1_RW	acq4567_RW	4	23	400	1	300	300	396	50	0	1	1	blank2r.bmp	0	1	+	0	1	blank2r.bmp	492	1	JXXJ	492	1	blank2r.bmp	572	3	ehrlich	866	1	!	1239	1	!	1292	0	0	0	0	0	0	0	0	0	0	0	0	0	0	0	0	0	0	0	0	0	0	0	0	0	0	0	0	0	0
071719	16:10:41	16:19:36	534823	5.0.10.0	5_exp_RW	67	Rpleas_acq	CS_B	JXXJ	YDDY	BZZB	VKKV	GWWG	MQQM	fair	spielen	ehrlich	schön	treu	retten	faul	strafen	eitel	schlecht	tot	rächen	1	acq_USpleas_CSpleas2_RW	acq4567_RW	4	24	400	1	300	300	394	50	0	1	1	blank2r.bmp	0	1	+	0	1	blank2r.bmp	492	1	YDDY	492	1	blank2r.bmp	572	3	retten	866	1	!	1239	1	!	1292	0	0	0	0	0	0	0	0	0	0	0	0	0	0	0	0	0	0	0	0	0	0	0	0	0	0	0	0	0	0
071719	16:10:41	16:19:39	536982	5.0.10.0	5_exp_RW	67	Rpleas_acq	CS_B	JXXJ	YDDY	BZZB	VKKV	GWWG	MQQM	fair	spielen	ehrlich	schön	treu	retten	faul	strafen	eitel	schlecht	tot	rächen	1	acq_USpleas_CSpleas1_RW	acq4567_RW	4	25	400	1	300	300	346	50	0	1	1	blank2r.bmp	0	1	+	0	1	blank2r.bmp	492	1	JXXJ	492	1	blank2r.bmp	572	1	fair	866	1	!	1239	1	!	1252	0	0	0	0	0	0	0	0	0	0	0	0	0	0	0	0	0	0	0	0	0	0	0	0	0	0	0	0	0	0
071719	16:10:41	16:19:41	539128	5.0.10.0	5_exp_RW	67	Rpleas_acq	CS_B	JXXJ	YDDY	BZZB	VKKV	GWWG	MQQM	fair	spielen	ehrlich	schön	treu	retten	faul	strafen	eitel	schlecht	tot	rächen	1	acq_USpleas_CSpleas2_RW	acq4567_RW	4	26	400	1	300	300	346	50	0	1	1	blank2r.bmp	0	1	+	0	1	blank2r.bmp	492	1	YDDY	492	1	blank2r.bmp	572	2	treu	866	1	!	1239	1	!	1252	0	0	0	0	0	0	0	0	0	0	0	0	0	0	0	0	0	0	0	0	0	0	0	0	0	0	0	0	0	0
071719	16:10:41	16:19:43	541220	5.0.10.0	5_exp_RW	67	Rpleas_acq	CS_B	JXXJ	YDDY	BZZB	VKKV	GWWG	MQQM	fair	spielen	ehrlich	schön	treu	retten	faul	strafen	eitel	schlecht	tot	rächen	1	acq_USpleas_CSpleas1_RW	acq4567_RW	4	27	400	0	300	300	315	50	0	1	1	blank2r.bmp	0	1	+	0	1	blank2r.bmp	492	1	JXXJ	492	1	blank2r.bmp	572	2	spielen	866	1	!	-1	1	!	-1	0	0	0	0	0	0	0	0	0	0	0	0	0	0	0	0	0	0	0	0	0	0	0	0	0	0	0	0	0	0
071719	16:10:41	16:19:45	543432	5.0.10.0	5_exp_RW	67	Rpleas_acq	CS_B	JXXJ	YDDY	BZZB	VKKV	GWWG	MQQM	fair	spielen	ehrlich	schön	treu	retten	faul	strafen	eitel	schlecht	tot	rächen	1	acq_USpleas_CSpleas2_RW	acq4567_RW	4	28	400	1	300	300	391	50	0	1	1	blank2r.bmp	0	1	+	0	1	blank2r.bmp	492	1	YDDY	492	1	blank2r.bmp	572	1	schön	866	1	!	1239	1	!	1292	0	0	0	0	0	0	0	0	0	0	0	0	0	0	0	0	0	0	0	0	0	0	0	0	0	0	0	0	0	0
071719	16:10:41	16:19:51	549563	5.0.10.0	5_exp_RW	67	Rpleas_acq	CS_B	JXXJ	YDDY	BZZB	VKKV	GWWG	MQQM	fair	spielen	ehrlich	schön	treu	retten	faul	strafen	eitel	schlecht	tot	rächen	1	acq_USunple_CSunple1_RW	acq4567_RW	4	29	400	0	300	300	4361	50	0	0	1	blank2r.bmp	0	1	+	0	1	blank2r.bmp	492	1	BZZB	492	1	blank2r.bmp	572	1	faul	866	1	!	1239	1	!	-1	0	0	0	0	0	0	0	0	0	0	0	0	0	0	0	0	0	0	0	0	0	0	0	0	0	0	0	0	0	0
071719	16:10:41	16:20:00	558666	5.0.10.0	5_exp_RW	67	Rpleas_acq	CS_B	JXXJ	YDDY	BZZB	VKKV	GWWG	MQQM	fair	spielen	ehrlich	schön	treu	retten	faul	strafen	eitel	schlecht	tot	rächen	1	acq_USunple_CSunple1_RW	acq4567_RW	4	30	400	0	300	300	7323	50	0	0	1	blank2r.bmp	0	1	+	0	1	blank2r.bmp	492	1	BZZB	492	1	blank2r.bmp	572	2	strafen	866	1	!	1239	1	!	-1	0	0	0	0	0	0	0	0	0	0	0	0	0	0	0	0	0	0	0	0	0	0	0	0	0	0	0	0	0	0
071719	16:10:41	16:20:06	564864	5.0.10.0	5_exp_RW	67	Rpleas_acq	CS_B	JXXJ	YDDY	BZZB	VKKV	GWWG	MQQM	fair	spielen	ehrlich	schön	treu	retten	faul	strafen	eitel	schlecht	tot	rächen	1	acq_USunple_CSunple2_RW	acq4567_RW	4	31	400	0	300	300	4413	50	0	0	1	blank2r.bmp	0	1	+	0	1	blank2r.bmp	492	1	VKKV	492	1	blank2r.bmp	572	3	rächen	866	1	!	1239	1	!	-1	0	0	0	0	0	0	0	0	0	0	0	0	0	0	0	0	0	0	0	0	0	0	0	0	0	0	0	0	0	0
071719	16:10:41	16:20:09	567236	5.0.10.0	5_exp_RW	67	Rpleas_acq	CS_B	JXXJ	YDDY	BZZB	VKKV	GWWG	MQQM	fair	spielen	ehrlich	schön	treu	retten	faul	strafen	eitel	schlecht	tot	rächen	1	acq_USunple_CSunple1_RW	acq4567_RW	4	32	400	0	300	300	597	50	0	0	1	blank2r.bmp	0	1	+	0	1	blank2r.bmp	492	1	BZZB	492	1	blank2r.bmp	572	3	eitel	866	1	!	1239	1	!	-1	0	0	0	0	0	0	0	0	0	0	0	0	0	0	0	0	0	0	0	0	0	0	0	0	0	0	0	0	0	0
071719	16:10:41	16:20:16	574500	5.0.10.0	5_exp_RW	67	Rpleas_acq	CS_B	JXXJ	YDDY	BZZB	VKKV	GWWG	MQQM	fair	spielen	ehrlich	schön	treu	retten	faul	strafen	eitel	schlecht	tot	rächen	1	acq_USunple_CSunple1_RW	acq4567_RW	4	33	400	0	300	300	5486	50	0	0	1	blank2r.bmp	0	1	+	0	1	blank2r.bmp	492	1	BZZB	492	1	blank2r.bmp	572	3	eitel	866	1	!	1239	1	!	-1	0	0	0	0	0	0	0	0	0	0	0	0	0	0	0	0	0	0	0	0	0	0	0	0	0	0	0	0	0	0
071719	16:10:41	16:20:26	584882	5.0.10.0	5_exp_RW	67	Rpleas_acq	CS_B	JXXJ	YDDY	BZZB	VKKV	GWWG	MQQM	fair	spielen	ehrlich	schön	treu	retten	faul	strafen	eitel	schlecht	tot	rächen	1	acq_USunple_CSunple2_RW	acq4567_RW	4	34	400	0	300	300	8607	50	0	0	1	blank2r.bmp	0	1	+	0	1	blank2r.bmp	492	1	VKKV	492	1	blank2r.bmp	572	2	tot	866	1	!	1239	1	!	-1	0	0	0	0	0	0	0	0	0	0	0	0	0	0	0	0	0	0	0	0	0	0	0	0	0	0	0	0	0	0
071719	16:10:41	16:20:29	587041	5.0.10.0	5_exp_RW	67	Rpleas_acq	CS_B	JXXJ	YDDY	BZZB	VKKV	GWWG	MQQM	fair	spielen	ehrlich	schön	treu	retten	faul	strafen	eitel	schlecht	tot	rächen	1	acq_USpleas_CSpleas1_RW	acq4567_RW	4	35	400	1	300	300	346	50	0	1	1	blank2r.bmp	0	1	+	0	1	blank2r.bmp	492	1	JXXJ	492	1	blank2r.bmp	572	3	ehrlich	866	1	!	1239	1	!	1252	0	0	0	0	0	0	0	0	0	0	0	0	0	0	0	0	0	0	0	0	0	0	0	0	0	0	0	0	0	0
071719	16:10:41	16:20:31	589027	5.0.10.0	5_exp_RW	67	Rpleas_acq	CS_B	JXXJ	YDDY	BZZB	VKKV	GWWG	MQQM	fair	spielen	ehrlich	schön	treu	retten	faul	strafen	eitel	schlecht	tot	rächen	1	acq_USunple_CSunple2_RW	acq4567_RW	4	36	400	0	300	300	216	50	0	0	1	blank2r.bmp	0	1	+	0	1	blank2r.bmp	492	1	VKKV	492	1	blank2r.bmp	572	1	schlecht	866	1	!	-1	1	!	-1	0	0	0	0	0	0	0	0	0	0	0	0	0	0	0	0	0	0	0	0	0	0	0	0	0	0	0	0	0	0
071719	16:10:41	16:20:37	595545	5.0.10.0	5_exp_RW	67	Rpleas_acq	CS_B	JXXJ	YDDY	BZZB	VKKV	GWWG	MQQM	fair	spielen	ehrlich	schön	treu	retten	faul	strafen	eitel	schlecht	tot	rächen	1	acq_USunple_CSunple1_RW	acq4567_RW	4	37	400	0	300	300	4737	50	0	0	1	blank2r.bmp	0	1	+	0	1	blank2r.bmp	492	1	BZZB	492	1	blank2r.bmp	572	1	faul	866	1	!	1239	1	!	-1	0	0	0	0	0	0	0	0	0	0	0	0	0	0	0	0	0	0	0	0	0	0	0	0	0	0	0	0	0	0
071719	16:10:41	16:20:45	603608	5.0.10.0	5_exp_RW	67	Rpleas_acq	CS_B	JXXJ	YDDY	BZZB	VKKV	GWWG	MQQM	fair	spielen	ehrlich	schön	treu	retten	faul	strafen	eitel	schlecht	tot	rächen	1	acq_USpleas_CSpleas1_RW	acq4567_RW	4	38	400	0	300	300	6280	50	0	1	1	blank2r.bmp	0	1	+	0	1	blank2r.bmp	492	1	JXXJ	492	1	blank2r.bmp	572	1	fair	866	1	!	1239	1	!	-1	0	0	0	0	0	0	0	0	0	0	0	0	0	0	0	0	0	0	0	0	0	0	0	0	0	0	0	0	0	0
071719	16:10:41	16:20:58	616256	5.0.10.0	5_exp_RW	67	Rpleas_acq	CS_B	JXXJ	YDDY	BZZB	VKKV	GWWG	MQQM	fair	spielen	ehrlich	schön	treu	retten	faul	strafen	eitel	schlecht	tot	rächen	1	acq_USunple_CSunple2_RW	acq4567_RW	4	39	400	0	300	300	10872	50	0	0	1	blank2r.bmp	0	1	+	0	1	blank2r.bmp	492	1	VKKV	492	1	blank2r.bmp	572	2	tot	866	1	!	1239	1	!	-1	0	0	0	0	0	0	0	0	0	0	0	0	0	0	0	0	0	0	0	0	0	0	0	0	0	0	0	0	0	0
071719	16:10:41	16:21:03	621214	5.0.10.0	5_exp_RW	67	Rpleas_acq	CS_B	JXXJ	YDDY	BZZB	VKKV	GWWG	MQQM	fair	spielen	ehrlich	schön	treu	retten	faul	strafen	eitel	schlecht	tot	rächen	1	acq_USunple_CSunple2_RW	acq4567_RW	4	40	400	0	300	300	3165	50	0	0	1	blank2r.bmp	0	1	+	0	1	blank2r.bmp	492	1	VKKV	492	1	blank2r.bmp	572	3	rächen	866	1	!	1239	1	!	-1	0	0	0	0	0	0	0	0	0	0	0	0	0	0	0	0	0	0	0	0	0	0	0	0	0	0	0	0	0	0
071719	16:10:41	16:21:10	628718	5.0.10.0	5_exp_RW	67	Rpleas_acq	CS_B	JXXJ	YDDY	BZZB	VKKV	GWWG	MQQM	fair	spielen	ehrlich	schön	treu	retten	faul	strafen	eitel	schlecht	tot	rächen	1	acq_USunple_CSunple1_RW	acq4567_RW	4	41	400	0	300	300	5717	50	0	0	1	blank2r.bmp	0	1	+	0	1	blank2r.bmp	492	1	BZZB	492	1	blank2r.bmp	572	2	strafen	866	1	!	1239	1	!	-1	0	0	0	0	0	0	0	0	0	0	0	0	0	0	0	0	0	0	0	0	0	0	0	0	0	0	0	0	0	0
071719	16:10:41	16:21:22	640140	5.0.10.0	5_exp_RW	67	Rpleas_acq	CS_B	JXXJ	YDDY	BZZB	VKKV	GWWG	MQQM	fair	spielen	ehrlich	schön	treu	retten	faul	strafen	eitel	schlecht	tot	rächen	1	acq_USpleas_CSpleas2_RW	acq4567_RW	4	42	400	0	300	300	9644	50	0	1	1	blank2r.bmp	0	1	+	0	1	blank2r.bmp	492	1	YDDY	492	1	blank2r.bmp	572	3	retten	866	1	!	1239	1	!	-1	0	0	0	0	0	0	0	0	0	0	0	0	0	0	0	0	0	0	0	0	0	0	0	0	0	0	0	0	0	0
071719	16:10:41	16:21:24	642192	5.0.10.0	5_exp_RW	67	Rpleas_acq	CS_B	JXXJ	YDDY	BZZB	VKKV	GWWG	MQQM	fair	spielen	ehrlich	schön	treu	retten	faul	strafen	eitel	schlecht	tot	rächen	1	acq_USpleas_CSpleas1_RW	acq4567_RW	4	43	400	0	300	300	262	50	0	1	1	blank2r.bmp	0	1	+	0	1	blank2r.bmp	492	1	JXXJ	492	1	blank2r.bmp	572	2	spielen	866	1	!	-1	1	!	-1	0	0	0	0	0	0	0	0	0	0	0	0	0	0	0	0	0	0	0	0	0	0	0	0	0	0	0	0	0	0
071719	16:10:41	16:21:26	644378	5.0.10.0	5_exp_RW	67	Rpleas_acq	CS_B	JXXJ	YDDY	BZZB	VKKV	GWWG	MQQM	fair	spielen	ehrlich	schön	treu	retten	faul	strafen	eitel	schlecht	tot	rächen	1	acq_USpleas_CSpleas2_RW	acq4567_RW	4	44	400	1	300	300	376	50	0	1	1	blank2r.bmp	0	1	+	0	1	blank2r.bmp	492	1	YDDY	492	1	blank2r.bmp	572	3	retten	866	1	!	1239	1	!	1279	0	0	0	0	0	0	0	0	0	0	0	0	0	0	0	0	0	0	0	0	0	0	0	0	0	0	0	0	0	0
071719	16:10:41	16:21:28	646417	5.0.10.0	5_exp_RW	67	Rpleas_acq	CS_B	JXXJ	YDDY	BZZB	VKKV	GWWG	MQQM	fair	spielen	ehrlich	schön	treu	retten	faul	strafen	eitel	schlecht	tot	rächen	1	acq_USunple_CSunple2_RW	acq4567_RW	4	45	400	0	300	300	266	50	0	0	1	blank2r.bmp	0	1	+	0	1	blank2r.bmp	492	1	VKKV	492	1	blank2r.bmp	572	1	schlecht	866	1	!	-1	1	!	-1	0	0	0	0	0	0	0	0	0	0	0	0	0	0	0	0	0	0	0	0	0	0	0	0	0	0	0	0	0	0
071719	16:10:41	16:21:30	648510	5.0.10.0	5_exp_RW	67	Rpleas_acq	CS_B	JXXJ	YDDY	BZZB	VKKV	GWWG	MQQM	fair	spielen	ehrlich	schön	treu	retten	faul	strafen	eitel	schlecht	tot	rächen	1	acq_USunple_CSunple1_RW	acq4567_RW	4	46	400	0	300	300	312	50	0	0	1	blank2r.bmp	0	1	+	0	1	blank2r.bmp	492	1	BZZB	492	1	blank2r.bmp	572	2	strafen	866	1	!	-1	1	!	-1	0	0	0	0	0	0	0	0	0	0	0	0	0	0	0	0	0	0	0	0	0	0	0	0	0	0	0	0	0	0
071719	16:10:41	16:21:32	650589	5.0.10.0	5_exp_RW	67	Rpleas_acq	CS_B	JXXJ	YDDY	BZZB	VKKV	GWWG	MQQM	fair	spielen	ehrlich	schön	treu	retten	faul	strafen	eitel	schlecht	tot	rächen	1	acq_USunple_CSunple1_RW	acq4567_RW	4	47	400	0	300	300	296	50	0	0	1	blank2r.bmp	0	1	+	0	1	blank2r.bmp	492	1	BZZB	492	1	blank2r.bmp	572	3	eitel	866	1	!	-1	1	!	-1	0	0	0	0	0	0	0	0	0	0	0	0	0	0	0	0	0	0	0	0	0	0	0	0	0	0	0	0	0	0
071719	16:10:41	16:21:34	652841	5.0.10.0	5_exp_RW	67	Rpleas_acq	CS_B	JXXJ	YDDY	BZZB	VKKV	GWWG	MQQM	fair	spielen	ehrlich	schön	treu	retten	faul	strafen	eitel	schlecht	tot	rächen	1	acq_USpleas_CSpleas1_RW	acq4567_RW	4	48	400	1	300	300	443	50	0	1	1	blank2r.bmp	0	1	+	0	1	blank2r.bmp	492	1	JXXJ	492	1	blank2r.bmp	572	1	fair	866	1	!	1239	1	!	1346	0	0	0	0	0	0	0	0	0	0	0	0	0	0	0	0	0	0	0	0	0	0	0	0	0	0	0	0	0	0
071719	16:10:41	16:21:39	656973	5.0.10.0	5_exp_RW	67	Rpleas_acq	CS_B	JXXJ	YDDY	BZZB	VKKV	GWWG	MQQM	fair	spielen	ehrlich	schön	treu	retten	faul	strafen	eitel	schlecht	tot	rächen	1	acq_USpleas_CSpleas2_RW	acq4567_RW	4	49	400	0	300	300	2365	50	0	1	1	blank2r.bmp	0	1	+	0	1	blank2r.bmp	492	1	YDDY	492	1	blank2r.bmp	572	2	treu	866	1	!	1239	1	!	-1	0	0	0	0	0	0	0	0	0	0	0	0	0	0	0	0	0	0	0	0	0	0	0	0	0	0	0	0	0	0
071719	16:10:41	16:21:42	660278	5.0.10.0	5_exp_RW	67	Rpleas_acq	CS_B	JXXJ	YDDY	BZZB	VKKV	GWWG	MQQM	fair	spielen	ehrlich	schön	treu	retten	faul	strafen	eitel	schlecht	tot	rächen	1	acq_USunple_CSunple2_RW	acq4567_RW	4	50	400	0	300	300	1513	50	0	0	1	blank2r.bmp	0	1	+	0	1	blank2r.bmp	492	1	VKKV	492	1	blank2r.bmp	572	2	tot	866	1	!	1239	1	!	-1	0	0	0	0	0	0	0	0	0	0	0	0	0	0	0	0	0	0	0	0	0	0	0	0	0	0	0	0	0	0
071719	16:10:41	16:21:50	668115	5.0.10.0	5_exp_RW	67	Rpleas_acq	CS_B	JXXJ	YDDY	BZZB	VKKV	GWWG	MQQM	fair	spielen	ehrlich	schön	treu	retten	faul	strafen	eitel	schlecht	tot	rächen	1	acq_USunple_CSunple2_RW	acq4567_RW	4	51	400	0	300	300	6059	50	0	0	1	blank2r.bmp	0	1	+	0	1	blank2r.bmp	492	1	VKKV	492	1	blank2r.bmp	572	1	schlecht	866	1	!	1239	1	!	-1	0	0	0	0	0	0	0	0	0	0	0	0	0	0	0	0	0	0	0	0	0	0	0	0	0	0	0	0	0	0
071719	16:10:41	16:21:58	676205	5.0.10.0	5_exp_RW	67	Rpleas_acq	CS_B	JXXJ	YDDY	BZZB	VKKV	GWWG	MQQM	fair	spielen	ehrlich	schön	treu	retten	faul	strafen	eitel	schlecht	tot	rächen	1	acq_USunple_CSunple2_RW	acq4567_RW	4	52	400	0	300	300	6302	50	0	0	1	blank2r.bmp	0	1	+	0	1	blank2r.bmp	492	1	VKKV	492	1	blank2r.bmp	572	3	rächen	866	1	!	1239	1	!	-1	0	0	0	0	0	0	0	0	0	0	0	0	0	0	0	0	0	0	0	0	0	0	0	0	0	0	0	0	0	0
071719	16:10:41	16:22:01	679564	5.0.10.0	5_exp_RW	67	Rpleas_acq	CS_B	JXXJ	YDDY	BZZB	VKKV	GWWG	MQQM	fair	spielen	ehrlich	schön	treu	retten	faul	strafen	eitel	schlecht	tot	rächen	1	acq_USpleas_CSpleas1_RW	acq4567_RW	4	53	400	0	300	300	1577	50	0	1	1	blank2r.bmp	0	1	+	0	1	blank2r.bmp	492	1	JXXJ	492	1	blank2r.bmp	572	3	ehrlich	866	1	!	1239	1	!	-1	0	0	0	0	0	0	0	0	0	0	0	0	0	0	0	0	0	0	0	0	0	0	0	0	0	0	0	0	0	0
071719	16:10:41	16:22:03	681816	5.0.10.0	5_exp_RW	67	Rpleas_acq	CS_B	JXXJ	YDDY	BZZB	VKKV	GWWG	MQQM	fair	spielen	ehrlich	schön	treu	retten	faul	strafen	eitel	schlecht	tot	rächen	1	acq_USunple_CSunple1_RW	acq4567_RW	4	54	400	1	300	300	440	50	0	0	1	blank2r.bmp	0	1	+	0	1	blank2r.bmp	492	1	BZZB	492	1	blank2r.bmp	572	1	faul	866	1	!	1239	1	!	1346	0	0	0	0	0	0	0	0	0	0	0	0	0	0	0	0	0	0	0	0	0	0	0	0	0	0	0	0	0	0
071719	16:10:41	16:22:06	684175	5.0.10.0	5_exp_RW	67	Rpleas_acq	CS_B	JXXJ	YDDY	BZZB	VKKV	GWWG	MQQM	fair	spielen	ehrlich	schön	treu	retten	faul	strafen	eitel	schlecht	tot	rächen	1	acq_USpleas_CSpleas2_RW	acq4567_RW	4	55	400	0	300	300	589	50	0	1	1	blank2r.bmp	0	1	+	0	1	blank2r.bmp	492	1	YDDY	492	1	blank2r.bmp	572	1	schön	866	1	!	1239	1	!	-1	0	0	0	0	0	0	0	0	0	0	0	0	0	0	0	0	0	0	0	0	0	0	0	0	0	0	0	0	0	0
071719	16:10:41	16:22:08	686335	5.0.10.0	5_exp_RW	67	Rpleas_acq	CS_B	JXXJ	YDDY	BZZB	VKKV	GWWG	MQQM	fair	spielen	ehrlich	schön	treu	retten	faul	strafen	eitel	schlecht	tot	rächen	1	acq_USunple_CSunple1_RW	acq4567_RW	4	56	400	1	300	300	346	50	0	0	1	blank2r.bmp	0	1	+	0	1	blank2r.bmp	492	1	BZZB	492	1	blank2r.bmp	572	3	eitel	866	1	!	1239	1	!	1252	0	0	0	0	0	0	0	0	0	0	0	0	0	0	0	0	0	0	0	0	0	0	0	0	0	0	0	0	0	0
071719	16:10:41	16:22:10	688400	5.0.10.0	5_exp_RW	67	Rpleas_acq	CS_B	JXXJ	YDDY	BZZB	VKKV	GWWG	MQQM	fair	spielen	ehrlich	schön	treu	retten	faul	strafen	eitel	schlecht	tot	rächen	1	acq_USpleas_CSpleas1_RW	acq4567_RW	4	57	400	0	300	300	297	50	0	1	1	blank2r.bmp	0	1	+	0	1	blank2r.bmp	492	1	JXXJ	492	1	blank2r.bmp	572	2	spielen	866	1	!	-1	1	!	-1	0	0	0	0	0	0	0	0	0	0	0	0	0	0	0	0	0	0	0	0	0	0	0	0	0	0	0	0	0	0
071719	16:10:41	16:22:12	690600	5.0.10.0	5_exp_RW	67	Rpleas_acq	CS_B	JXXJ	YDDY	BZZB	VKKV	GWWG	MQQM	fair	spielen	ehrlich	schön	treu	retten	faul	strafen	eitel	schlecht	tot	rächen	1	acq_USpleas_CSpleas2_RW	acq4567_RW	4	58	400	1	300	300	392	50	0	1	1	blank2r.bmp	0	1	+	0	1	blank2r.bmp	492	1	YDDY	492	1	blank2r.bmp	572	1	schön	866	1	!	1239	1	!	1292	0	0	0	0	0	0	0	0	0	0	0	0	0	0	0	0	0	0	0	0	0	0	0	0	0	0	0	0	0	0
071719	16:10:41	16:22:14	692665	5.0.10.0	5_exp_RW	67	Rpleas_acq	CS_B	JXXJ	YDDY	BZZB	VKKV	GWWG	MQQM	fair	spielen	ehrlich	schön	treu	retten	faul	strafen	eitel	schlecht	tot	rächen	1	acq_USpleas_CSpleas1_RW	acq4567_RW	4	59	400	0	300	300	296	50	0	1	1	blank2r.bmp	0	1	+	0	1	blank2r.bmp	492	1	JXXJ	492	1	blank2r.bmp	572	2	spielen	866	1	!	-1	1	!	-1	0	0	0	0	0	0	0	0	0	0	0	0	0	0	0	0	0	0	0	0	0	0	0	0	0	0	0	0	0	0
071719	16:10:41	16:22:21	699383	5.0.10.0	5_exp_RW	67	Rpleas_acq	CS_B	JXXJ	YDDY	BZZB	VKKV	GWWG	MQQM	fair	spielen	ehrlich	schön	treu	retten	faul	strafen	eitel	schlecht	tot	rächen	1	acq_USunple_CSunple2_RW	acq4567_RW	4	60	400	0	300	300	4922	50	0	0	1	blank2r.bmp	0	1	+	0	1	blank2r.bmp	492	1	VKKV	492	1	blank2r.bmp	572	3	rächen	866	1	!	1239	1	!	-1	0	0	0	0	0	0	0	0	0	0	0	0	0	0	0	0	0	0	0	0	0	0	0	0	0	0	0	0	0	0
071719	16:10:41	16:22:27	705567	5.0.10.0	5_exp_RW	67	Rpleas_acq	CS_B	JXXJ	YDDY	BZZB	VKKV	GWWG	MQQM	fair	spielen	ehrlich	schön	treu	retten	faul	strafen	eitel	schlecht	tot	rächen	1	acq_USunple_CSunple1_RW	acq4567_RW	4	61	400	0	300	300	4407	50	0	0	1	blank2r.bmp	0	1	+	0	1	blank2r.bmp	492	1	BZZB	492	1	blank2r.bmp	572	2	strafen	866	1	!	1239	1	!	-1	0	0	0	0	0	0	0	0	0	0	0	0	0	0	0	0	0	0	0	0	0	0	0	0	0	0	0	0	0	0
071719	16:10:41	16:22:31	708979	5.0.10.0	5_exp_RW	67	Rpleas_acq	CS_B	JXXJ	YDDY	BZZB	VKKV	GWWG	MQQM	fair	spielen	ehrlich	schön	treu	retten	faul	strafen	eitel	schlecht	tot	rächen	1	acq_USpleas_CSpleas1_RW	acq4567_RW	4	62	400	0	300	300	1618	50	0	1	1	blank2r.bmp	0	1	+	0	1	blank2r.bmp	492	1	JXXJ	492	1	blank2r.bmp	572	1	fair	866	1	!	1239	1	!	-1	0	0	0	0	0	0	0	0	0	0	0	0	0	0	0	0	0	0	0	0	0	0	0	0	0	0	0	0	0	0
071719	16:10:41	16:22:33	711045	5.0.10.0	5_exp_RW	67	Rpleas_acq	CS_B	JXXJ	YDDY	BZZB	VKKV	GWWG	MQQM	fair	spielen	ehrlich	schön	treu	retten	faul	strafen	eitel	schlecht	tot	rächen	1	acq_USunple_CSunple1_RW	acq4567_RW	4	63	400	0	300	300	282	50	0	0	1	blank2r.bmp	0	1	+	0	1	blank2r.bmp	492	1	BZZB	492	1	blank2r.bmp	572	1	faul	866	1	!	-1	1	!	-1	0	0	0	0	0	0	0	0	0	0	0	0	0	0	0	0	0	0	0	0	0	0	0	0	0	0	0	0	0	0
071719	16:10:41	16:22:40	718575	5.0.10.0	5_exp_RW	67	Rpleas_acq	CS_B	JXXJ	YDDY	BZZB	VKKV	GWWG	MQQM	fair	spielen	ehrlich	schön	treu	retten	faul	strafen	eitel	schlecht	tot	rächen	1	acq_USunple_CSunple1_RW	acq4567_RW	4	64	400	0	300	300	5743	50	0	0	1	blank2r.bmp	0	1	+	0	1	blank2r.bmp	492	1	BZZB	492	1	blank2r.bmp	572	1	faul	866	1	!	1239	1	!	-1	0	0	0	0	0	0	0	0	0	0	0	0	0	0	0	0	0	0	0	0	0	0	0	0	0	0	0	0	0	0
071719	16:10:41	16:22:50	728238	5.0.10.0	5_exp_RW	67	Rpleas_acq	CS_B	JXXJ	YDDY	BZZB	VKKV	GWWG	MQQM	fair	spielen	ehrlich	schön	treu	retten	faul	strafen	eitel	schlecht	tot	rächen	1	acq_USpleas_CSpleas1_RW	acq4567_RW	4	65	400	0	300	300	7888	50	0	1	1	blank2r.bmp	0	1	+	0	1	blank2r.bmp	492	1	JXXJ	492	1	blank2r.bmp	572	3	ehrlich	866	1	!	1239	1	!	-1	0	0	0	0	0	0	0	0	0	0	0	0	0	0	0	0	0	0	0	0	0	0	0	0	0	0	0	0	0	0
071719	16:10:41	16:22:52	730423	5.0.10.0	5_exp_RW	67	Rpleas_acq	CS_B	JXXJ	YDDY	BZZB	VKKV	GWWG	MQQM	fair	spielen	ehrlich	schön	treu	retten	faul	strafen	eitel	schlecht	tot	rächen	1	acq_USunple_CSunple2_RW	acq4567_RW	4	66	400	1	300	300	381	50	0	0	1	blank2r.bmp	0	1	+	0	1	blank2r.bmp	492	1	VKKV	492	1	blank2r.bmp	572	1	schlecht	866	1	!	1239	1	!	1279	0	0	0	0	0	0	0	0	0	0	0	0	0	0	0	0	0	0	0	0	0	0	0	0	0	0	0	0	0	0
071719	16:10:41	16:22:54	732569	5.0.10.0	5_exp_RW	67	Rpleas_acq	CS_B	JXXJ	YDDY	BZZB	VKKV	GWWG	MQQM	fair	spielen	ehrlich	schön	treu	retten	faul	strafen	eitel	schlecht	tot	rächen	1	acq_USpleas_CSpleas1_RW	acq4567_RW	4	67	400	1	300	300	346	50	0	1	1	blank2r.bmp	0	1	+	0	1	blank2r.bmp	492	1	JXXJ	492	1	blank2r.bmp	572	2	spielen	866	1	!	1239	1	!	1252	0	0	0	0	0	0	0	0	0	0	0	0	0	0	0	0	0	0	0	0	0	0	0	0	0	0	0	0	0	0
071719	16:10:41	16:22:56	734622	5.0.10.0	5_exp_RW	67	Rpleas_acq	CS_B	JXXJ	YDDY	BZZB	VKKV	GWWG	MQQM	fair	spielen	ehrlich	schön	treu	retten	faul	strafen	eitel	schlecht	tot	rächen	1	acq_USpleas_CSpleas2_RW	acq4567_RW	4	68	400	0	300	300	285	50	0	1	1	blank2r.bmp	0	1	+	0	1	blank2r.bmp	492	1	YDDY	492	1	blank2r.bmp	572	3	retten	866	1	!	-1	1	!	-1	0	0	0	0	0	0	0	0	0	0	0	0	0	0	0	0	0	0	0	0	0	0	0	0	0	0	0	0	0	0
071719	16:10:41	16:22:58	736847	5.0.10.0	5_exp_RW	67	Rpleas_acq	CS_B	JXXJ	YDDY	BZZB	VKKV	GWWG	MQQM	fair	spielen	ehrlich	schön	treu	retten	faul	strafen	eitel	schlecht	tot	rächen	1	acq_USpleas_CSpleas2_RW	acq4567_RW	4	69	400	1	300	300	423	50	0	1	1	blank2r.bmp	0	1	+	0	1	blank2r.bmp	492	1	YDDY	492	1	blank2r.bmp	572	2	treu	866	1	!	1239	1	!	1319	0	0	0	0	0	0	0	0	0	0	0	0	0	0	0	0	0	0	0	0	0	0	0	0	0	0	0	0	0	0
071719	16:10:41	16:23:01	738993	5.0.10.0	5_exp_RW	67	Rpleas_acq	CS_B	JXXJ	YDDY	BZZB	VKKV	GWWG	MQQM	fair	spielen	ehrlich	schön	treu	retten	faul	strafen	eitel	schlecht	tot	rächen	1	acq_USpleas_CSpleas1_RW	acq4567_RW	4	70	400	1	300	300	346	50	0	1	1	blank2r.bmp	0	1	+	0	1	blank2r.bmp	492	1	JXXJ	492	1	blank2r.bmp	572	3	ehrlich	866	1	!	1239	1	!	1252	0	0	0	0	0	0	0	0	0	0	0	0	0	0	0	0	0	0	0	0	0	0	0	0	0	0	0	0	0	0
071719	16:10:41	16:23:03	741086	5.0.10.0	5_exp_RW	67	Rpleas_acq	CS_B	JXXJ	YDDY	BZZB	VKKV	GWWG	MQQM	fair	spielen	ehrlich	schön	treu	retten	faul	strafen	eitel	schlecht	tot	rächen	1	acq_USunple_CSunple2_RW	acq4567_RW	4	71	400	0	300	300	311	50	0	0	1	blank2r.bmp	0	1	+	0	1	blank2r.bmp	492	1	VKKV	492	1	blank2r.bmp	572	2	tot	866	1	!	-1	1	!	-1	0	0	0	0	0	0	0	0	0	0	0	0	0	0	0	0	0	0	0	0	0	0	0	0	0	0	0	0	0	0
071719	16:10:41	16:23:07	745324	5.0.10.0	5_exp_RW	67	Rpleas_acq	CS_B	JXXJ	YDDY	BZZB	VKKV	GWWG	MQQM	fair	spielen	ehrlich	schön	treu	retten	faul	strafen	eitel	schlecht	tot	rächen	1	acq_USunple_CSunple1_RW	acq4567_RW	4	72	400	0	300	300	2458	50	0	0	1	blank2r.bmp	0	1	+	0	1	blank2r.bmp	492	1	BZZB	492	1	blank2r.bmp	572	2	strafen	866	1	!	1239	1	!	-1	0	0	0	0	0	0	0	0	0	0	0	0	0	0	0	0	0	0	0	0	0	0	0	0	0	0	0	0	0	0
071719	16:10:41	16:23:09	747710	5.0.10.0	5_exp_RW	67	Rpleas_acq	CS_B	JXXJ	YDDY	BZZB	VKKV	GWWG	MQQM	fair	spielen	ehrlich	schön	treu	retten	faul	strafen	eitel	schlecht	tot	rächen	1	acq_USpleas_CSpleas1_RW	acq4567_RW	4	73	400	0	300	300	601	50	0	1	1	blank2r.bmp	0	1	+	0	1	blank2r.bmp	492	1	JXXJ	492	1	blank2r.bmp	572	1	fair	866	1	!	1239	1	!	-1	0	0	0	0	0	0	0	0	0	0	0	0	0	0	0	0	0	0	0	0	0	0	0	0	0	0	0	0	0	0
071719	16:10:41	16:23:11	749802	5.0.10.0	5_exp_RW	67	Rpleas_acq	CS_B	JXXJ	YDDY	BZZB	VKKV	GWWG	MQQM	fair	spielen	ehrlich	schön	treu	retten	faul	strafen	eitel	schlecht	tot	rächen	1	acq_USpleas_CSpleas2_RW	acq4567_RW	4	74	400	0	300	300	315	50	0	1	1	blank2r.bmp	0	1	+	0	1	blank2r.bmp	492	1	YDDY	492	1	blank2r.bmp	572	1	schön	866	1	!	-1	1	!	-1	0	0	0	0	0	0	0	0	0	0	0	0	0	0	0	0	0	0	0	0	0	0	0	0	0	0	0	0	0	0
071719	16:10:41	16:23:14	751975	5.0.10.0	5_exp_RW	67	Rpleas_acq	CS_B	JXXJ	YDDY	BZZB	VKKV	GWWG	MQQM	fair	spielen	ehrlich	schön	treu	retten	faul	strafen	eitel	schlecht	tot	rächen	1	acq_USpleas_CSpleas2_RW	acq4567_RW	4	75	400	1	300	300	366	50	0	1	1	blank2r.bmp	0	1	+	0	1	blank2r.bmp	492	1	YDDY	492	1	blank2r.bmp	572	2	treu	866	1	!	1239	1	!	1266	0	0	0	0	0	0	0	0	0	0	0	0	0	0	0	0	0	0	0	0	0	0	0	0	0	0	0	0	0	0
071719	16:10:41	16:23:16	754134	5.0.10.0	5_exp_RW	67	Rpleas_acq	CS_B	JXXJ	YDDY	BZZB	VKKV	GWWG	MQQM	fair	spielen	ehrlich	schön	treu	retten	faul	strafen	eitel	schlecht	tot	rächen	1	acq_USpleas_CSpleas2_RW	acq4567_RW	4	76	400	1	300	300	346	50	0	1	1	blank2r.bmp	0	1	+	0	1	blank2r.bmp	492	1	YDDY	492	1	blank2r.bmp	572	3	retten	866	1	!	1239	1	!	1252	0	0	0	0	0	0	0	0	0	0	0	0	0	0	0	0	0	0	0	0	0	0	0	0	0	0	0	0	0	0
071719	16:10:41	16:23:20	758772	5.0.10.0	5_exp_RW	67	Rpleas_acq	CS_B	JXXJ	YDDY	BZZB	VKKV	GWWG	MQQM	fair	spielen	ehrlich	schön	treu	retten	faul	strafen	eitel	schlecht	tot	rächen	1	acq_USunple_CSunple2_RW	acq4567_RW	4	77	400	0	300	300	2866	50	0	0	1	blank2r.bmp	0	1	+	0	1	blank2r.bmp	492	1	VKKV	492	1	blank2r.bmp	572	1	schlecht	866	1	!	1239	1	!	-1	0	0	0	0	0	0	0	0	0	0	0	0	0	0	0	0	0	0	0	0	0	0	0	0	0	0	0	0	0	0
071719	16:10:41	16:23:22	760784	5.0.10.0	5_exp_RW	67	Rpleas_acq	CS_B	JXXJ	YDDY	BZZB	VKKV	GWWG	MQQM	fair	spielen	ehrlich	schön	treu	retten	faul	strafen	eitel	schlecht	tot	rächen	1	acq_USunple_CSunple1_RW	acq4567_RW	4	78	400	0	300	300	232	50	0	0	1	blank2r.bmp	0	1	+	0	1	blank2r.bmp	492	1	BZZB	492	1	blank2r.bmp	572	3	eitel	866	1	!	-1	1	!	-1	0	0	0	0	0	0	0	0	0	0	0	0	0	0	0	0	0	0	0	0	0	0	0	0	0	0	0	0	0	0
071719	16:10:41	16:23:28	766529	5.0.10.0	5_exp_RW	67	Rpleas_acq	CS_B	JXXJ	YDDY	BZZB	VKKV	GWWG	MQQM	fair	spielen	ehrlich	schön	treu	retten	faul	strafen	eitel	schlecht	tot	rächen	1	acq_USunple_CSunple2_RW	acq4567_RW	4	79	400	0	300	300	3962	50	0	0	1	blank2r.bmp	0	1	+	0	1	blank2r.bmp	492	1	VKKV	492	1	blank2r.bmp	572	2	tot	866	1	!	1239	1	!	-1	0	0	0	0	0	0	0	0	0	0	0	0	0	0	0	0	0	0	0	0	0	0	0	0	0	0	0	0	0	0
071719	16:10:41	16:23:32	770807	5.0.10.0	5_exp_RW	67	Rpleas_acq	CS_B	JXXJ	YDDY	BZZB	VKKV	GWWG	MQQM	fair	spielen	ehrlich	schön	treu	retten	faul	strafen	eitel	schlecht	tot	rächen	1	acq_USunple_CSunple2_RW	acq4567_RW	4	80	400	0	300	300	2496	50	0	0	1	blank2r.bmp	0	1	+	0	1	blank2r.bmp	492	1	VKKV	492	1	blank2r.bmp	572	3	rächen	866	1	!	1239	1	!	-1	0	0	0	0	0	0	0	0	0	0	0	0	0	0	0	0	0	0	0	0	0	0	0	0	0	0	0	0	0	0
071719	16:10:41	16:23:52	790332	5.0.10.0	5_exp_RW	67	Rpleas_acq	CS_B	JXXJ	YDDY	BZZB	VKKV	GWWG	MQQM	fair	spielen	ehrlich	schön	treu	retten	faul	strafen	eitel	schlecht	tot	rächen	1	acq_USunple_CSunple1_RW	acq4567_RW	5	1	400	0	300	300	4211	50	0	0	1	blank2r.bmp	0	1	+	0	1	blank2r.bmp	492	1	BZZB	492	1	blank2r.bmp	572	3	eitel	866	1	!	1239	1	!	-1	0	0	0	0	0	0	0	0	0	0	0	0	0	0	0	0	0	0	0	0	0	0	0	0	0	0	0	0	0	0
071719	16:10:41	16:23:54	792558	5.0.10.0	5_exp_RW	67	Rpleas_acq	CS_B	JXXJ	YDDY	BZZB	VKKV	GWWG	MQQM	fair	spielen	ehrlich	schön	treu	retten	faul	strafen	eitel	schlecht	tot	rächen	1	acq_USunple_CSunple1_RW	acq4567_RW	5	2	400	1	300	300	422	46	0	1	1	blank2r.bmp	0	1	+	0	1	blank2r.bmp	492	1	BZZB	492	1	blank2r.bmp	572	1	faul	866	1	!	1239	1	!	1319	0	0	0	0	0	0	0	0	0	0	0	0	0	0	0	0	0	0	0	0	0	0	0	0	0	0	0	0	0	0
071719	16:10:41	16:23:56	794651	5.0.10.0	5_exp_RW	67	Rpleas_acq	CS_B	JXXJ	YDDY	BZZB	VKKV	GWWG	MQQM	fair	spielen	ehrlich	schön	treu	retten	faul	strafen	eitel	schlecht	tot	rächen	1	acq_USunple_CSunple2_RW	acq4567_RW	5	3	400	0	300	300	327	46	0	1	1	blank2r.bmp	0	1	+	0	1	blank2r.bmp	492	1	VKKV	492	1	blank2r.bmp	572	1	schlecht	866	1	!	-1	1	!	-1	0	0	0	0	0	0	0	0	0	0	0	0	0	0	0	0	0	0	0	0	0	0	0	0	0	0	0	0	0	0
071719	16:10:41	16:23:59	797569	5.0.10.0	5_exp_RW	67	Rpleas_acq	CS_B	JXXJ	YDDY	BZZB	VKKV	GWWG	MQQM	fair	spielen	ehrlich	schön	treu	retten	faul	strafen	eitel	schlecht	tot	rächen	1	acq_USpleas_CSpleas2_RW	acq4567_RW	5	4	400	0	300	300	1132	50	0	1	1	blank2r.bmp	0	1	+	0	1	blank2r.bmp	492	1	YDDY	492	1	blank2r.bmp	572	2	treu	866	1	!	1239	1	!	-1	0	0	0	0	0	0	0	0	0	0	0	0	0	0	0	0	0	0	0	0	0	0	0	0	0	0	0	0	0	0
071719	16:10:41	16:24:01	799809	5.0.10.0	5_exp_RW	67	Rpleas_acq	CS_B	JXXJ	YDDY	BZZB	VKKV	GWWG	MQQM	fair	spielen	ehrlich	schön	treu	retten	faul	strafen	eitel	schlecht	tot	rächen	1	acq_USpleas_CSpleas2_RW	acq4567_RW	5	5	400	1	300	300	432	46	0	0	1	blank2r.bmp	0	1	+	0	1	blank2r.bmp	492	1	YDDY	492	1	blank2r.bmp	572	3	retten	866	1	!	1239	1	!	1332	0	0	0	0	0	0	0	0	0	0	0	0	0	0	0	0	0	0	0	0	0	0	0	0	0	0	0	0	0	0
071719	16:10:41	16:24:04	801994	5.0.10.0	5_exp_RW	67	Rpleas_acq	CS_B	JXXJ	YDDY	BZZB	VKKV	GWWG	MQQM	fair	spielen	ehrlich	schön	treu	retten	faul	strafen	eitel	schlecht	tot	rächen	1	acq_USpleas_CSpleas1_RW	acq4567_RW	5	6	400	1	300	300	391	50	0	1	1	blank2r.bmp	0	1	+	0	1	blank2r.bmp	492	1	JXXJ	492	1	blank2r.bmp	572	1	fair	866	1	!	1239	1	!	1292	0	0	0	0	0	0	0	0	0	0	0	0	0	0	0	0	0	0	0	0	0	0	0	0	0	0	0	0	0	0
071719	16:10:41	16:24:06	804180	5.0.10.0	5_exp_RW	67	Rpleas_acq	CS_B	JXXJ	YDDY	BZZB	VKKV	GWWG	MQQM	fair	spielen	ehrlich	schön	treu	retten	faul	strafen	eitel	schlecht	tot	rächen	1	acq_USpleas_CSpleas1_RW	acq4567_RW	5	7	400	1	300	300	395	50	0	1	1	blank2r.bmp	0	1	+	0	1	blank2r.bmp	492	1	JXXJ	492	1	blank2r.bmp	572	3	ehrlich	866	1	!	1239	1	!	1292	0	0	0	0	0	0	0	0	0	0	0	0	0	0	0	0	0	0	0	0	0	0	0	0	0	0	0	0	0	0
071719	16:10:41	16:24:08	806473	5.0.10.0	5_exp_RW	67	Rpleas_acq	CS_B	JXXJ	YDDY	BZZB	VKKV	GWWG	MQQM	fair	spielen	ehrlich	schön	treu	retten	faul	strafen	eitel	schlecht	tot	rächen	1	acq_USunple_CSunple2_RW	acq4567_RW	5	8	400	0	300	300	529	46	0	1	1	blank2r.bmp	0	1	+	0	1	blank2r.bmp	492	1	VKKV	492	1	blank2r.bmp	572	2	tot	866	1	!	1239	1	!	-1	0	0	0	0	0	0	0	0	0	0	0	0	0	0	0	0	0	0	0	0	0	0	0	0	0	0	0	0	0	0
071719	16:10:41	16:24:10	808725	5.0.10.0	5_exp_RW	67	Rpleas_acq	CS_B	JXXJ	YDDY	BZZB	VKKV	GWWG	MQQM	fair	spielen	ehrlich	schön	treu	retten	faul	strafen	eitel	schlecht	tot	rächen	1	acq_USunple_CSunple1_RW	acq4567_RW	5	9	400	1	300	300	439	46	0	1	1	blank2r.bmp	0	1	+	0	1	blank2r.bmp	492	1	BZZB	492	1	blank2r.bmp	572	2	strafen	866	1	!	1239	1	!	1346	0	0	0	0	0	0	0	0	0	0	0	0	0	0	0	0	0	0	0	0	0	0	0	0	0	0	0	0	0	0
071719	16:10:41	16:24:13	810964	5.0.10.0	5_exp_RW	67	Rpleas_acq	CS_B	JXXJ	YDDY	BZZB	VKKV	GWWG	MQQM	fair	spielen	ehrlich	schön	treu	retten	faul	strafen	eitel	schlecht	tot	rächen	1	acq_USpleas_CSpleas2_RW	acq4567_RW	5	10	400	1	300	300	426	50	0	1	1	blank2r.bmp	0	1	+	0	1	blank2r.bmp	492	1	YDDY	492	1	blank2r.bmp	572	1	schön	866	1	!	1239	1	!	1332	0	0	0	0	0	0	0	0	0	0	0	0	0	0	0	0	0	0	0	0	0	0	0	0	0	0	0	0	0	0
071719	16:10:41	16:24:15	813230	5.0.10.0	5_exp_RW	67	Rpleas_acq	CS_B	JXXJ	YDDY	BZZB	VKKV	GWWG	MQQM	fair	spielen	ehrlich	schön	treu	retten	faul	strafen	eitel	schlecht	tot	rächen	1	acq_USpleas_CSpleas2_RW	acq4567_RW	5	11	400	0	300	300	494	50	0	1	1	blank2r.bmp	0	1	+	0	1	blank2r.bmp	492	1	YDDY	492	1	blank2r.bmp	572	2	treu	866	1	!	1239	1	!	-1	0	0	0	0	0	0	0	0	0	0	0	0	0	0	0	0	0	0	0	0	0	0	0	0	0	0	0	0	0	0
071719	16:10:41	16:24:17	815202	5.0.10.0	5_exp_RW	67	Rpleas_acq	CS_B	JXXJ	YDDY	BZZB	VKKV	GWWG	MQQM	fair	spielen	ehrlich	schön	treu	retten	faul	strafen	eitel	schlecht	tot	rächen	1	acq_USunple_CSunple1_RW	acq4567_RW	5	12	400	0	300	300	190	50	0	0	1	blank2r.bmp	0	1	+	0	1	blank2r.bmp	492	1	BZZB	492	1	blank2r.bmp	572	1	faul	866	1	!	-1	1	!	-1	0	0	0	0	0	0	0	0	0	0	0	0	0	0	0	0	0	0	0	0	0	0	0	0	0	0	0	0	0	0
071719	16:10:41	16:24:19	817481	5.0.10.0	5_exp_RW	67	Rpleas_acq	CS_B	JXXJ	YDDY	BZZB	VKKV	GWWG	MQQM	fair	spielen	ehrlich	schön	treu	retten	faul	strafen	eitel	schlecht	tot	rächen	1	acq_USunple_CSunple2_RW	acq4567_RW	5	13	400	1	300	300	458	50	0	0	1	blank2r.bmp	0	1	+	0	1	blank2r.bmp	492	1	VKKV	492	1	blank2r.bmp	572	3	rächen	866	1	!	1239	1	!	1359	0	0	0	0	0	0	0	0	0	0	0	0	0	0	0	0	0	0	0	0	0	0	0	0	0	0	0	0	0	0
071719	16:10:41	16:24:21	819801	5.0.10.0	5_exp_RW	67	Rpleas_acq	CS_B	JXXJ	YDDY	BZZB	VKKV	GWWG	MQQM	fair	spielen	ehrlich	schön	treu	retten	faul	strafen	eitel	schlecht	tot	rächen	1	acq_USunple_CSunple2_RW	acq4567_RW	5	14	400	0	300	300	553	46	0	1	1	blank2r.bmp	0	1	+	0	1	blank2r.bmp	492	1	VKKV	492	1	blank2r.bmp	572	2	tot	866	1	!	1239	1	!	-1	0	0	0	0	0	0	0	0	0	0	0	0	0	0	0	0	0	0	0	0	0	0	0	0	0	0	0	0	0	0
071719	16:10:41	16:24:23	821826	5.0.10.0	5_exp_RW	67	Rpleas_acq	CS_B	JXXJ	YDDY	BZZB	VKKV	GWWG	MQQM	fair	spielen	ehrlich	schön	treu	retten	faul	strafen	eitel	schlecht	tot	rächen	1	acq_USpleas_CSpleas1_RW	acq4567_RW	5	15	400	0	300	300	249	46	0	0	1	blank2r.bmp	0	1	+	0	1	blank2r.bmp	492	1	JXXJ	492	1	blank2r.bmp	572	2	spielen	866	1	!	-1	1	!	-1	0	0	0	0	0	0	0	0	0	0	0	0	0	0	0	0	0	0	0	0	0	0	0	0	0	0	0	0	0	0
071719	16:10:41	16:24:26	824039	5.0.10.0	5_exp_RW	67	Rpleas_acq	CS_B	JXXJ	YDDY	BZZB	VKKV	GWWG	MQQM	fair	spielen	ehrlich	schön	treu	retten	faul	strafen	eitel	schlecht	tot	rächen	1	acq_USunple_CSunple1_RW	acq4567_RW	5	16	400	1	300	300	400	50	0	0	1	blank2r.bmp	0	1	+	0	1	blank2r.bmp	492	1	BZZB	492	1	blank2r.bmp	572	3	eitel	866	1	!	1239	1	!	1306	0	0	0	0	0	0	0	0	0	0	0	0	0	0	0	0	0	0	0	0	0	0	0	0	0	0	0	0	0	0
071719	16:10:41	16:24:28	826051	5.0.10.0	5_exp_RW	67	Rpleas_acq	CS_B	JXXJ	YDDY	BZZB	VKKV	GWWG	MQQM	fair	spielen	ehrlich	schön	treu	retten	faul	strafen	eitel	schlecht	tot	rächen	1	acq_USpleas_CSpleas1_RW	acq4567_RW	5	17	400	0	300	300	248	50	0	1	1	blank2r.bmp	0	1	+	0	1	blank2r.bmp	492	1	JXXJ	492	1	blank2r.bmp	572	2	spielen	866	1	!	-1	1	!	-1	0	0	0	0	0	0	0	0	0	0	0	0	0	0	0	0	0	0	0	0	0	0	0	0	0	0	0	0	0	0
071719	16:10:41	16:24:30	828224	5.0.10.0	5_exp_RW	67	Rpleas_acq	CS_B	JXXJ	YDDY	BZZB	VKKV	GWWG	MQQM	fair	spielen	ehrlich	schön	treu	retten	faul	strafen	eitel	schlecht	tot	rächen	1	acq_USpleas_CSpleas1_RW	acq4567_RW	5	18	400	1	300	300	364	50	0	1	1	blank2r.bmp	0	1	+	0	1	blank2r.bmp	492	1	JXXJ	492	1	blank2r.bmp	572	1	fair	866	1	!	1239	1	!	1266	0	0	0	0	0	0	0	0	0	0	0	0	0	0	0	0	0	0	0	0	0	0	0	0	0	0	0	0	0	0
071719	16:10:41	16:24:32	830263	5.0.10.0	5_exp_RW	67	Rpleas_acq	CS_B	JXXJ	YDDY	BZZB	VKKV	GWWG	MQQM	fair	spielen	ehrlich	schön	treu	retten	faul	strafen	eitel	schlecht	tot	rächen	1	acq_USpleas_CSpleas2_RW	acq4567_RW	5	19	400	0	300	300	265	50	0	1	1	blank2r.bmp	0	1	+	0	1	blank2r.bmp	492	1	YDDY	492	1	blank2r.bmp	572	1	schön	866	1	!	-1	1	!	-1	0	0	0	0	0	0	0	0	0	0	0	0	0	0	0	0	0	0	0	0	0	0	0	0	0	0	0	0	0	0
071719	16:10:41	16:24:34	832289	5.0.10.0	5_exp_RW	67	Rpleas_acq	CS_B	JXXJ	YDDY	BZZB	VKKV	GWWG	MQQM	fair	spielen	ehrlich	schön	treu	retten	faul	strafen	eitel	schlecht	tot	rächen	1	acq_USunple_CSunple2_RW	acq4567_RW	5	20	400	0	300	300	240	50	0	0	1	blank2r.bmp	0	1	+	0	1	blank2r.bmp	492	1	VKKV	492	1	blank2r.bmp	572	3	rächen	866	1	!	-1	1	!	-1	0	0	0	0	0	0	0	0	0	0	0	0	0	0	0	0	0	0	0	0	0	0	0	0	0	0	0	0	0	0
071719	16:10:41	16:24:45	843204	5.0.10.0	5_exp_RW	67	Rpleas_acq	CS_B	JXXJ	YDDY	BZZB	VKKV	GWWG	MQQM	fair	spielen	ehrlich	schön	treu	retten	faul	strafen	eitel	schlecht	tot	rächen	1	acq_USpleas_CSpleas2_RW	acq4567_RW	5	21	400	0	300	300	9134	50	0	1	1	blank2r.bmp	0	1	+	0	1	blank2r.bmp	492	1	YDDY	492	1	blank2r.bmp	572	3	retten	866	1	!	1239	1	!	-1	0	0	0	0	0	0	0	0	0	0	0	0	0	0	0	0	0	0	0	0	0	0	0	0	0	0	0	0	0	0
071719	16:10:41	16:24:47	845483	5.0.10.0	5_exp_RW	67	Rpleas_acq	CS_B	JXXJ	YDDY	BZZB	VKKV	GWWG	MQQM	fair	spielen	ehrlich	schön	treu	retten	faul	strafen	eitel	schlecht	tot	rächen	1	acq_USunple_CSunple1_RW	acq4567_RW	5	22	400	0	300	300	479	50	0	0	1	blank2r.bmp	0	1	+	0	1	blank2r.bmp	492	1	BZZB	492	1	blank2r.bmp	572	2	strafen	866	1	!	1239	1	!	-1	0	0	0	0	0	0	0	0	0	0	0	0	0	0	0	0	0	0	0	0	0	0	0	0	0	0	0	0	0	0
071719	16:10:41	16:24:49	847536	5.0.10.0	5_exp_RW	67	Rpleas_acq	CS_B	JXXJ	YDDY	BZZB	VKKV	GWWG	MQQM	fair	spielen	ehrlich	schön	treu	retten	faul	strafen	eitel	schlecht	tot	rächen	1	acq_USunple_CSunple1_RW	acq4567_RW	5	23	400	0	300	300	274	46	0	1	1	blank2r.bmp	0	1	+	0	1	blank2r.bmp	492	1	BZZB	492	1	blank2r.bmp	572	1	faul	866	1	!	-1	1	!	-1	0	0	0	0	0	0	0	0	0	0	0	0	0	0	0	0	0	0	0	0	0	0	0	0	0	0	0	0	0	0
071719	16:10:41	16:24:51	849695	5.0.10.0	5_exp_RW	67	Rpleas_acq	CS_B	JXXJ	YDDY	BZZB	VKKV	GWWG	MQQM	fair	spielen	ehrlich	schön	treu	retten	faul	strafen	eitel	schlecht	tot	rächen	1	acq_USpleas_CSpleas1_RW	acq4567_RW	5	24	400	1	300	300	346	46	0	0	1	blank2r.bmp	0	1	+	0	1	blank2r.bmp	492	1	JXXJ	492	1	blank2r.bmp	572	3	ehrlich	866	1	!	1239	1	!	1252	0	0	0	0	0	0	0	0	0	0	0	0	0	0	0	0	0	0	0	0	0	0	0	0	0	0	0	0	0	0
071719	16:10:41	16:24:53	851721	5.0.10.0	5_exp_RW	67	Rpleas_acq	CS_B	JXXJ	YDDY	BZZB	VKKV	GWWG	MQQM	fair	spielen	ehrlich	schön	treu	retten	faul	strafen	eitel	schlecht	tot	rächen	1	acq_USunple_CSunple2_RW	acq4567_RW	5	25	400	0	300	300	252	50	0	0	1	blank2r.bmp	0	1	+	0	1	blank2r.bmp	492	1	VKKV	492	1	blank2r.bmp	572	1	schlecht	866	1	!	-1	1	!	-1	0	0	0	0	0	0	0	0	0	0	0	0	0	0	0	0	0	0	0	0	0	0	0	0	0	0	0	0	0	0
071719	16:10:41	16:24:56	854000	5.0.10.0	5_exp_RW	67	Rpleas_acq	CS_B	JXXJ	YDDY	BZZB	VKKV	GWWG	MQQM	fair	spielen	ehrlich	schön	treu	retten	faul	strafen	eitel	schlecht	tot	rächen	1	acq_USpleas_CSpleas1_RW	acq4567_RW	5	26	400	0	300	300	484	50	0	1	1	blank2r.bmp	0	1	+	0	1	blank2r.bmp	492	1	JXXJ	492	1	blank2r.bmp	572	1	fair	866	1	!	1239	1	!	-1	0	0	0	0	0	0	0	0	0	0	0	0	0	0	0	0	0	0	0	0	0	0	0	0	0	0	0	0	0	0
071719	16:10:41	16:24:58	856172	5.0.10.0	5_exp_RW	67	Rpleas_acq	CS_B	JXXJ	YDDY	BZZB	VKKV	GWWG	MQQM	fair	spielen	ehrlich	schön	treu	retten	faul	strafen	eitel	schlecht	tot	rächen	1	acq_USpleas_CSpleas2_RW	acq4567_RW	5	27	400	1	300	300	346	50	0	1	1	blank2r.bmp	0	1	+	0	1	blank2r.bmp	492	1	YDDY	492	1	blank2r.bmp	572	1	schön	866	1	!	1239	1	!	1252	0	0	0	0	0	0	0	0	0	0	0	0	0	0	0	0	0	0	0	0	0	0	0	0	0	0	0	0	0	0
071719	16:10:41	16:25:00	858345	5.0.10.0	5_exp_RW	67	Rpleas_acq	CS_B	JXXJ	YDDY	BZZB	VKKV	GWWG	MQQM	fair	spielen	ehrlich	schön	treu	retten	faul	strafen	eitel	schlecht	tot	rächen	1	acq_USpleas_CSpleas2_RW	acq4567_RW	5	28	400	1	300	300	379	50	0	1	1	blank2r.bmp	0	1	+	0	1	blank2r.bmp	492	1	YDDY	492	1	blank2r.bmp	572	3	retten	866	1	!	1239	1	!	1279	0	0	0	0	0	0	0	0	0	0	0	0	0	0	0	0	0	0	0	0	0	0	0	0	0	0	0	0	0	0
071719	16:10:41	16:25:02	860437	5.0.10.0	5_exp_RW	67	Rpleas_acq	CS_B	JXXJ	YDDY	BZZB	VKKV	GWWG	MQQM	fair	spielen	ehrlich	schön	treu	retten	faul	strafen	eitel	schlecht	tot	rächen	1	acq_USunple_CSunple1_RW	acq4567_RW	5	29	400	0	300	300	328	50	0	0	1	blank2r.bmp	0	1	+	0	1	blank2r.bmp	492	1	BZZB	492	1	blank2r.bmp	572	2	strafen	866	1	!	-1	1	!	-1	0	0	0	0	0	0	0	0	0	0	0	0	0	0	0	0	0	0	0	0	0	0	0	0	0	0	0	0	0	0
071719	16:10:41	16:25:04	862610	5.0.10.0	5_exp_RW	67	Rpleas_acq	CS_B	JXXJ	YDDY	BZZB	VKKV	GWWG	MQQM	fair	spielen	ehrlich	schön	treu	retten	faul	strafen	eitel	schlecht	tot	rächen	1	acq_USunple_CSunple2_RW	acq4567_RW	5	30	400	1	300	300	361	46	0	1	1	blank2r.bmp	0	1	+	0	1	blank2r.bmp	492	1	VKKV	492	1	blank2r.bmp	572	2	tot	866	1	!	1239	1	!	1266	0	0	0	0	0	0	0	0	0	0	0	0	0	0	0	0	0	0	0	0	0	0	0	0	0	0	0	0	0	0
071719	16:10:41	16:25:06	864662	5.0.10.0	5_exp_RW	67	Rpleas_acq	CS_B	JXXJ	YDDY	BZZB	VKKV	GWWG	MQQM	fair	spielen	ehrlich	schön	treu	retten	faul	strafen	eitel	schlecht	tot	rächen	1	acq_USpleas_CSpleas2_RW	acq4567_RW	5	31	400	0	300	300	287	46	0	0	1	blank2r.bmp	0	1	+	0	1	blank2r.bmp	492	1	YDDY	492	1	blank2r.bmp	572	2	treu	866	1	!	-1	1	!	-1	0	0	0	0	0	0	0	0	0	0	0	0	0	0	0	0	0	0	0	0	0	0	0	0	0	0	0	0	0	0
071719	16:10:41	16:25:11	869620	5.0.10.0	5_exp_RW	67	Rpleas_acq	CS_B	JXXJ	YDDY	BZZB	VKKV	GWWG	MQQM	fair	spielen	ehrlich	schön	treu	retten	faul	strafen	eitel	schlecht	tot	rächen	1	acq_USunple_CSunple2_RW	acq4567_RW	5	32	400	0	300	300	3172	50	0	0	1	blank2r.bmp	0	1	+	0	1	blank2r.bmp	492	1	VKKV	492	1	blank2r.bmp	572	3	rächen	866	1	!	1239	1	!	-1	0	0	0	0	0	0	0	0	0	0	0	0	0	0	0	0	0	0	0	0	0	0	0	0	0	0	0	0	0	0
071719	16:10:41	16:25:13	871713	5.0.10.0	5_exp_RW	67	Rpleas_acq	CS_B	JXXJ	YDDY	BZZB	VKKV	GWWG	MQQM	fair	spielen	ehrlich	schön	treu	retten	faul	strafen	eitel	schlecht	tot	rächen	1	acq_USpleas_CSpleas2_RW	acq4567_RW	5	33	400	0	300	300	313	46	0	0	1	blank2r.bmp	0	1	+	0	1	blank2r.bmp	492	1	YDDY	492	1	blank2r.bmp	572	1	schön	866	1	!	-1	1	!	-1	0	0	0	0	0	0	0	0	0	0	0	0	0	0	0	0	0	0	0	0	0	0	0	0	0	0	0	0	0	0
071719	16:10:41	16:25:16	873912	5.0.10.0	5_exp_RW	67	Rpleas_acq	CS_B	JXXJ	YDDY	BZZB	VKKV	GWWG	MQQM	fair	spielen	ehrlich	schön	treu	retten	faul	strafen	eitel	schlecht	tot	rächen	1	acq_USpleas_CSpleas1_RW	acq4567_RW	5	34	400	1	300	300	387	50	0	1	1	blank2r.bmp	0	1	+	0	1	blank2r.bmp	492	1	JXXJ	492	1	blank2r.bmp	572	3	ehrlich	866	1	!	1239	1	!	1292	0	0	0	0	0	0	0	0	0	0	0	0	0	0	0	0	0	0	0	0	0	0	0	0	0	0	0	0	0	0
071719	16:10:41	16:25:18	876218	5.0.10.0	5_exp_RW	67	Rpleas_acq	CS_B	JXXJ	YDDY	BZZB	VKKV	GWWG	MQQM	fair	spielen	ehrlich	schön	treu	retten	faul	strafen	eitel	schlecht	tot	rächen	1	acq_USunple_CSunple2_RW	acq4567_RW	5	35	400	0	300	300	538	46	0	1	1	blank2r.bmp	0	1	+	0	1	blank2r.bmp	492	1	VKKV	492	1	blank2r.bmp	572	1	schlecht	866	1	!	1239	1	!	-1	0	0	0	0	0	0	0	0	0	0	0	0	0	0	0	0	0	0	0	0	0	0	0	0	0	0	0	0	0	0
071719	16:10:41	16:25:20	878403	5.0.10.0	5_exp_RW	67	Rpleas_acq	CS_B	JXXJ	YDDY	BZZB	VKKV	GWWG	MQQM	fair	spielen	ehrlich	schön	treu	retten	faul	strafen	eitel	schlecht	tot	rächen	1	acq_USunple_CSunple2_RW	acq4567_RW	5	36	400	1	300	300	381	46	0	1	1	blank2r.bmp	0	1	+	0	1	blank2r.bmp	492	1	VKKV	492	1	blank2r.bmp	572	2	tot	866	1	!	1239	1	!	1279	0	0	0	0	0	0	0	0	0	0	0	0	0	0	0	0	0	0	0	0	0	0	0	0	0	0	0	0	0	0
071719	16:10:41	16:25:22	880603	5.0.10.0	5_exp_RW	67	Rpleas_acq	CS_B	JXXJ	YDDY	BZZB	VKKV	GWWG	MQQM	fair	spielen	ehrlich	schön	treu	retten	faul	strafen	eitel	schlecht	tot	rächen	1	acq_USpleas_CSpleas1_RW	acq4567_RW	5	37	400	1	300	300	401	50	0	1	1	blank2r.bmp	0	1	+	0	1	blank2r.bmp	492	1	JXXJ	492	1	blank2r.bmp	572	2	spielen	866	1	!	1239	1	!	1306	0	0	0	0	0	0	0	0	0	0	0	0	0	0	0	0	0	0	0	0	0	0	0	0	0	0	0	0	0	0
071719	16:10:41	16:25:24	882708	5.0.10.0	5_exp_RW	67	Rpleas_acq	CS_B	JXXJ	YDDY	BZZB	VKKV	GWWG	MQQM	fair	spielen	ehrlich	schön	treu	retten	faul	strafen	eitel	schlecht	tot	rächen	1	acq_USpleas_CSpleas1_RW	acq4567_RW	5	38	400	0	300	300	331	50	0	1	1	blank2r.bmp	0	1	+	0	1	blank2r.bmp	492	1	JXXJ	492	1	blank2r.bmp	572	2	spielen	866	1	!	-1	1	!	-1	0	0	0	0	0	0	0	0	0	0	0	0	0	0	0	0	0	0	0	0	0	0	0	0	0	0	0	0	0	0
071719	16:10:41	16:25:26	884748	5.0.10.0	5_exp_RW	67	Rpleas_acq	CS_B	JXXJ	YDDY	BZZB	VKKV	GWWG	MQQM	fair	spielen	ehrlich	schön	treu	retten	faul	strafen	eitel	schlecht	tot	rächen	1	acq_USunple_CSunple1_RW	acq4567_RW	5	39	400	0	300	300	254	50	0	0	1	blank2r.bmp	0	1	+	0	1	blank2r.bmp	492	1	BZZB	492	1	blank2r.bmp	572	3	eitel	866	1	!	-1	1	!	-1	0	0	0	0	0	0	0	0	0	0	0	0	0	0	0	0	0	0	0	0	0	0	0	0	0	0	0	0	0	0
071719	16:10:41	16:25:29	886920	5.0.10.0	5_exp_RW	67	Rpleas_acq	CS_B	JXXJ	YDDY	BZZB	VKKV	GWWG	MQQM	fair	spielen	ehrlich	schön	treu	retten	faul	strafen	eitel	schlecht	tot	rächen	1	acq_USunple_CSunple1_RW	acq4567_RW	5	40	400	1	300	300	356	50	0	0	1	blank2r.bmp	0	1	+	0	1	blank2r.bmp	492	1	BZZB	492	1	blank2r.bmp	572	3	eitel	866	1	!	1239	1	!	1252	0	0	0	0	0	0	0	0	0	0	0	0	0	0	0	0	0	0	0	0	0	0	0	0	0	0	0	0	0	0
071719	16:10:41	16:25:31	889106	5.0.10.0	5_exp_RW	67	Rpleas_acq	CS_B	JXXJ	YDDY	BZZB	VKKV	GWWG	MQQM	fair	spielen	ehrlich	schön	treu	retten	faul	strafen	eitel	schlecht	tot	rächen	1	acq_USunple_CSunple1_RW	acq4567_RW	5	41	400	1	300	300	394	46	0	1	1	blank2r.bmp	0	1	+	0	1	blank2r.bmp	492	1	BZZB	492	1	blank2r.bmp	572	2	strafen	866	1	!	1239	1	!	1292	0	0	0	0	0	0	0	0	0	0	0	0	0	0	0	0	0	0	0	0	0	0	0	0	0	0	0	0	0	0
071719	16:10:41	16:25:33	891412	5.0.10.0	5_exp_RW	67	Rpleas_acq	CS_B	JXXJ	YDDY	BZZB	VKKV	GWWG	MQQM	fair	spielen	ehrlich	schön	treu	retten	faul	strafen	eitel	schlecht	tot	rächen	1	acq_USpleas_CSpleas2_RW	acq4567_RW	5	42	400	0	300	300	544	50	0	1	1	blank2r.bmp	0	1	+	0	1	blank2r.bmp	492	1	YDDY	492	1	blank2r.bmp	572	2	treu	866	1	!	1239	1	!	-1	0	0	0	0	0	0	0	0	0	0	0	0	0	0	0	0	0	0	0	0	0	0	0	0	0	0	0	0	0	0
071719	16:10:41	16:25:35	893637	5.0.10.0	5_exp_RW	67	Rpleas_acq	CS_B	JXXJ	YDDY	BZZB	VKKV	GWWG	MQQM	fair	spielen	ehrlich	schön	treu	retten	faul	strafen	eitel	schlecht	tot	rächen	1	acq_USpleas_CSpleas2_RW	acq4567_RW	5	43	400	1	300	300	417	50	0	1	1	blank2r.bmp	0	1	+	0	1	blank2r.bmp	492	1	YDDY	492	1	blank2r.bmp	572	3	retten	866	1	!	1239	1	!	1319	0	0	0	0	0	0	0	0	0	0	0	0	0	0	0	0	0	0	0	0	0	0	0	0	0	0	0	0	0	0
071719	16:10:41	16:25:37	895796	5.0.10.0	5_exp_RW	67	Rpleas_acq	CS_B	JXXJ	YDDY	BZZB	VKKV	GWWG	MQQM	fair	spielen	ehrlich	schön	treu	retten	faul	strafen	eitel	schlecht	tot	rächen	1	acq_USunple_CSunple2_RW	acq4567_RW	5	44	400	1	300	300	346	46	0	1	1	blank2r.bmp	0	1	+	0	1	blank2r.bmp	492	1	VKKV	492	1	blank2r.bmp	572	1	schlecht	866	1	!	1239	1	!	1252	0	0	0	0	0	0	0	0	0	0	0	0	0	0	0	0	0	0	0	0	0	0	0	0	0	0	0	0	0	0
071719	16:10:41	16:25:40	897956	5.0.10.0	5_exp_RW	67	Rpleas_acq	CS_B	JXXJ	YDDY	BZZB	VKKV	GWWG	MQQM	fair	spielen	ehrlich	schön	treu	retten	faul	strafen	eitel	schlecht	tot	rächen	1	acq_USpleas_CSpleas1_RW	acq4567_RW	5	45	400	1	300	300	366	46	0	0	1	blank2r.bmp	0	1	+	0	1	blank2r.bmp	492	1	JXXJ	492	1	blank2r.bmp	572	3	ehrlich	866	1	!	1239	1	!	1266	0	0	0	0	0	0	0	0	0	0	0	0	0	0	0	0	0	0	0	0	0	0	0	0	0	0	0	0	0	0
071719	16:10:41	16:25:42	900155	5.0.10.0	5_exp_RW	67	Rpleas_acq	CS_B	JXXJ	YDDY	BZZB	VKKV	GWWG	MQQM	fair	spielen	ehrlich	schön	treu	retten	faul	strafen	eitel	schlecht	tot	rächen	1	acq_USunple_CSunple1_RW	acq4567_RW	5	46	400	1	300	300	399	50	0	0	1	blank2r.bmp	0	1	+	0	1	blank2r.bmp	492	1	BZZB	492	1	blank2r.bmp	572	1	faul	866	1	!	1239	1	!	1306	0	0	0	0	0	0	0	0	0	0	0	0	0	0	0	0	0	0	0	0	0	0	0	0	0	0	0	0	0	0
071719	16:10:41	16:25:44	902407	5.0.10.0	5_exp_RW	67	Rpleas_acq	CS_B	JXXJ	YDDY	BZZB	VKKV	GWWG	MQQM	fair	spielen	ehrlich	schön	treu	retten	faul	strafen	eitel	schlecht	tot	rächen	1	acq_USpleas_CSpleas1_RW	acq4567_RW	5	47	400	0	300	300	479	50	0	1	1	blank2r.bmp	0	1	+	0	1	blank2r.bmp	492	1	JXXJ	492	1	blank2r.bmp	572	1	fair	866	1	!	1239	1	!	-1	0	0	0	0	0	0	0	0	0	0	0	0	0	0	0	0	0	0	0	0	0	0	0	0	0	0	0	0	0	0
071719	16:10:41	16:25:46	904500	5.0.10.0	5_exp_RW	67	Rpleas_acq	CS_B	JXXJ	YDDY	BZZB	VKKV	GWWG	MQQM	fair	spielen	ehrlich	schön	treu	retten	faul	strafen	eitel	schlecht	tot	rächen	1	acq_USunple_CSunple1_RW	acq4567_RW	5	48	400	0	300	300	307	50	0	0	1	blank2r.bmp	0	1	+	0	1	blank2r.bmp	492	1	BZZB	492	1	blank2r.bmp	572	2	strafen	866	1	!	-1	1	!	-1	0	0	0	0	0	0	0	0	0	0	0	0	0	0	0	0	0	0	0	0	0	0	0	0	0	0	0	0	0	0
071719	16:10:41	16:25:48	906752	5.0.10.0	5_exp_RW	67	Rpleas_acq	CS_B	JXXJ	YDDY	BZZB	VKKV	GWWG	MQQM	fair	spielen	ehrlich	schön	treu	retten	faul	strafen	eitel	schlecht	tot	rächen	1	acq_USunple_CSunple2_RW	acq4567_RW	5	49	400	1	300	300	440	50	0	0	1	blank2r.bmp	0	1	+	0	1	blank2r.bmp	492	1	VKKV	492	1	blank2r.bmp	572	3	rächen	866	1	!	1239	1	!	1346	0	0	0	0	0	0	0	0	0	0	0	0	0	0	0	0	0	0	0	0	0	0	0	0	0	0	0	0	0	0
071719	16:10:41	16:25:50	908844	5.0.10.0	5_exp_RW	67	Rpleas_acq	CS_B	JXXJ	YDDY	BZZB	VKKV	GWWG	MQQM	fair	spielen	ehrlich	schön	treu	retten	faul	strafen	eitel	schlecht	tot	rächen	1	acq_USunple_CSunple1_RW	acq4567_RW	5	50	400	0	300	300	322	46	0	1	1	blank2r.bmp	0	1	+	0	1	blank2r.bmp	492	1	BZZB	492	1	blank2r.bmp	572	1	faul	866	1	!	-1	1	!	-1	0	0	0	0	0	0	0	0	0	0	0	0	0	0	0	0	0	0	0	0	0	0	0	0	0	0	0	0	0	0
071719	16:10:41	16:25:53	911124	5.0.10.0	5_exp_RW	67	Rpleas_acq	CS_B	JXXJ	YDDY	BZZB	VKKV	GWWG	MQQM	fair	spielen	ehrlich	schön	treu	retten	faul	strafen	eitel	schlecht	tot	rächen	1	acq_USpleas_CSpleas2_RW	acq4567_RW	5	51	400	0	300	300	504	50	0	1	1	blank2r.bmp	0	1	+	0	1	blank2r.bmp	492	1	YDDY	492	1	blank2r.bmp	572	3	retten	866	1	!	1239	1	!	-1	0	0	0	0	0	0	0	0	0	0	0	0	0	0	0	0	0	0	0	0	0	0	0	0	0	0	0	0	0	0
071719	16:10:41	16:25:55	913563	5.0.10.0	5_exp_RW	67	Rpleas_acq	CS_B	JXXJ	YDDY	BZZB	VKKV	GWWG	MQQM	fair	spielen	ehrlich	schön	treu	retten	faul	strafen	eitel	schlecht	tot	rächen	1	acq_USpleas_CSpleas1_RW	acq4567_RW	5	52	400	0	300	300	658	50	0	1	1	blank2r.bmp	0	1	+	0	1	blank2r.bmp	492	1	JXXJ	492	1	blank2r.bmp	572	1	fair	866	1	!	1239	1	!	-1	0	0	0	0	0	0	0	0	0	0	0	0	0	0	0	0	0	0	0	0	0	0	0	0	0	0	0	0	0	0
071719	16:10:41	16:25:57	915748	5.0.10.0	5_exp_RW	67	Rpleas_acq	CS_B	JXXJ	YDDY	BZZB	VKKV	GWWG	MQQM	fair	spielen	ehrlich	schön	treu	retten	faul	strafen	eitel	schlecht	tot	rächen	1	acq_USpleas_CSpleas2_RW	acq4567_RW	5	53	400	1	300	300	372	50	0	1	1	blank2r.bmp	0	1	+	0	1	blank2r.bmp	492	1	YDDY	492	1	blank2r.bmp	572	2	treu	866	1	!	1239	1	!	1279	0	0	0	0	0	0	0	0	0	0	0	0	0	0	0	0	0	0	0	0	0	0	0	0	0	0	0	0	0	0
071719	16:10:41	16:26:00	918001	5.0.10.0	5_exp_RW	67	Rpleas_acq	CS_B	JXXJ	YDDY	BZZB	VKKV	GWWG	MQQM	fair	spielen	ehrlich	schön	treu	retten	faul	strafen	eitel	schlecht	tot	rächen	1	acq_USpleas_CSpleas2_RW	acq4567_RW	5	54	400	0	300	300	482	50	0	1	1	blank2r.bmp	0	1	+	0	1	blank2r.bmp	492	1	YDDY	492	1	blank2r.bmp	572	1	schön	866	1	!	1239	1	!	-1	0	0	0	0	0	0	0	0	0	0	0	0	0	0	0	0	0	0	0	0	0	0	0	0	0	0	0	0	0	0
071719	16:10:41	16:26:02	920080	5.0.10.0	5_exp_RW	67	Rpleas_acq	CS_B	JXXJ	YDDY	BZZB	VKKV	GWWG	MQQM	fair	spielen	ehrlich	schön	treu	retten	faul	strafen	eitel	schlecht	tot	rächen	1	acq_USpleas_CSpleas1_RW	acq4567_RW	5	55	400	0	300	300	303	50	0	1	1	blank2r.bmp	0	1	+	0	1	blank2r.bmp	492	1	JXXJ	492	1	blank2r.bmp	572	3	ehrlich	866	1	!	-1	1	!	-1	0	0	0	0	0	0	0	0	0	0	0	0	0	0	0	0	0	0	0	0	0	0	0	0	0	0	0	0	0	0
071719	16:10:41	16:26:04	922159	5.0.10.0	5_exp_RW	67	Rpleas_acq	CS_B	JXXJ	YDDY	BZZB	VKKV	GWWG	MQQM	fair	spielen	ehrlich	schön	treu	retten	faul	strafen	eitel	schlecht	tot	rächen	1	acq_USunple_CSunple2_RW	acq4567_RW	5	56	400	0	300	300	281	50	0	0	1	blank2r.bmp	0	1	+	0	1	blank2r.bmp	492	1	VKKV	492	1	blank2r.bmp	572	3	rächen	866	1	!	-1	1	!	-1	0	0	0	0	0	0	0	0	0	0	0	0	0	0	0	0	0	0	0	0	0	0	0	0	0	0	0	0	0	0
071719	16:10:41	16:26:06	924345	5.0.10.0	5_exp_RW	67	Rpleas_acq	CS_B	JXXJ	YDDY	BZZB	VKKV	GWWG	MQQM	fair	spielen	ehrlich	schön	treu	retten	faul	strafen	eitel	schlecht	tot	rächen	1	acq_USpleas_CSpleas1_RW	acq4567_RW	5	57	400	1	300	300	382	46	0	0	1	blank2r.bmp	0	1	+	0	1	blank2r.bmp	492	1	JXXJ	492	1	blank2r.bmp	572	2	spielen	866	1	!	1239	1	!	1279	0	0	0	0	0	0	0	0	0	0	0	0	0	0	0	0	0	0	0	0	0	0	0	0	0	0	0	0	0	0
071719	16:10:41	16:26:08	926517	5.0.10.0	5_exp_RW	67	Rpleas_acq	CS_B	JXXJ	YDDY	BZZB	VKKV	GWWG	MQQM	fair	spielen	ehrlich	schön	treu	retten	faul	strafen	eitel	schlecht	tot	rächen	1	acq_USunple_CSunple2_RW	acq4567_RW	5	58	400	1	300	300	372	50	0	0	1	blank2r.bmp	0	1	+	0	1	blank2r.bmp	492	1	VKKV	492	1	blank2r.bmp	572	2	tot	866	1	!	1239	1	!	1279	0	0	0	0	0	0	0	0	0	0	0	0	0	0	0	0	0	0	0	0	0	0	0	0	0	0	0	0	0	0
071719	16:10:41	16:26:18	936113	5.0.10.0	5_exp_RW	67	Rpleas_acq	CS_B	JXXJ	YDDY	BZZB	VKKV	GWWG	MQQM	fair	spielen	ehrlich	schön	treu	retten	faul	strafen	eitel	schlecht	tot	rächen	1	acq_USunple_CSunple2_RW	acq4567_RW	5	59	400	0	300	300	7826	50	0	0	1	blank2r.bmp	0	1	+	0	1	blank2r.bmp	492	1	VKKV	492	1	blank2r.bmp	572	1	schlecht	866	1	!	1239	1	!	-1	0	0	0	0	0	0	0	0	0	0	0	0	0	0	0	0	0	0	0	0	0	0	0	0	0	0	0	0	0	0
071719	16:10:41	16:26:20	938326	5.0.10.0	5_exp_RW	67	Rpleas_acq	CS_B	JXXJ	YDDY	BZZB	VKKV	GWWG	MQQM	fair	spielen	ehrlich	schön	treu	retten	faul	strafen	eitel	schlecht	tot	rächen	1	acq_USunple_CSunple1_RW	acq4567_RW	5	60	400	1	300	300	401	50	0	0	1	blank2r.bmp	0	1	+	0	1	blank2r.bmp	492	1	BZZB	492	1	blank2r.bmp	572	3	eitel	866	1	!	1239	1	!	1306	0	0	0	0	0	0	0	0	0	0	0	0	0	0	0	0	0	0	0	0	0	0	0	0	0	0	0	0	0	0
071719	16:10:41	16:26:25	943830	5.0.10.0	5_exp_RW	67	Rpleas_acq	CS_B	JXXJ	YDDY	BZZB	VKKV	GWWG	MQQM	fair	spielen	ehrlich	schön	treu	retten	faul	strafen	eitel	schlecht	tot	rächen	1	acq_USunple_CSunple2_RW	acq4567_RW	5	61	400	0	300	300	3732	50	0	0	1	blank2r.bmp	0	1	+	0	1	blank2r.bmp	492	1	VKKV	492	1	blank2r.bmp	572	2	tot	866	1	!	1239	1	!	-1	0	0	0	0	0	0	0	0	0	0	0	0	0	0	0	0	0	0	0	0	0	0	0	0	0	0	0	0	0	0
071719	16:10:41	16:26:28	945909	5.0.10.0	5_exp_RW	67	Rpleas_acq	CS_B	JXXJ	YDDY	BZZB	VKKV	GWWG	MQQM	fair	spielen	ehrlich	schön	treu	retten	faul	strafen	eitel	schlecht	tot	rächen	1	acq_USunple_CSunple1_RW	acq4567_RW	5	62	400	0	300	300	294	46	0	1	1	blank2r.bmp	0	1	+	0	1	blank2r.bmp	492	1	BZZB	492	1	blank2r.bmp	572	1	faul	866	1	!	-1	1	!	-1	0	0	0	0	0	0	0	0	0	0	0	0	0	0	0	0	0	0	0	0	0	0	0	0	0	0	0	0	0	0
071719	16:10:41	16:26:30	948069	5.0.10.0	5_exp_RW	67	Rpleas_acq	CS_B	JXXJ	YDDY	BZZB	VKKV	GWWG	MQQM	fair	spielen	ehrlich	schön	treu	retten	faul	strafen	eitel	schlecht	tot	rächen	1	acq_USunple_CSunple2_RW	acq4567_RW	5	63	400	1	300	300	346	46	0	1	1	blank2r.bmp	0	1	+	0	1	blank2r.bmp	492	1	VKKV	492	1	blank2r.bmp	572	1	schlecht	866	1	!	1239	1	!	1252	0	0	0	0	0	0	0	0	0	0	0	0	0	0	0	0	0	0	0	0	0	0	0	0	0	0	0	0	0	0
071719	16:10:41	16:26:32	950134	5.0.10.0	5_exp_RW	67	Rpleas_acq	CS_B	JXXJ	YDDY	BZZB	VKKV	GWWG	MQQM	fair	spielen	ehrlich	schön	treu	retten	faul	strafen	eitel	schlecht	tot	rächen	1	acq_USunple_CSunple1_RW	acq4567_RW	5	64	400	0	300	300	294	46	0	1	1	blank2r.bmp	0	1	+	0	1	blank2r.bmp	492	1	BZZB	492	1	blank2r.bmp	572	3	eitel	866	1	!	-1	1	!	-1	0	0	0	0	0	0	0	0	0	0	0	0	0	0	0	0	0	0	0	0	0	0	0	0	0	0	0	0	0	0
071719	16:10:41	16:26:37	955386	5.0.10.0	5_exp_RW	67	Rpleas_acq	CS_B	JXXJ	YDDY	BZZB	VKKV	GWWG	MQQM	fair	spielen	ehrlich	schön	treu	retten	faul	strafen	eitel	schlecht	tot	rächen	1	acq_USpleas_CSpleas2_RW	acq4567_RW	5	65	400	0	300	300	3472	50	0	1	1	blank2r.bmp	0	1	+	0	1	blank2r.bmp	492	1	YDDY	492	1	blank2r.bmp	572	1	schön	866	1	!	1239	1	!	-1	0	0	0	0	0	0	0	0	0	0	0	0	0	0	0	0	0	0	0	0	0	0	0	0	0	0	0	0	0	0
071719	16:10:41	16:26:39	957385	5.0.10.0	5_exp_RW	67	Rpleas_acq	CS_B	JXXJ	YDDY	BZZB	VKKV	GWWG	MQQM	fair	spielen	ehrlich	schön	treu	retten	faul	strafen	eitel	schlecht	tot	rächen	1	acq_USpleas_CSpleas2_RW	acq4567_RW	5	66	400	0	300	300	220	50	0	1	1	blank2r.bmp	0	1	+	0	1	blank2r.bmp	492	1	YDDY	492	1	blank2r.bmp	572	3	retten	866	1	!	-1	1	!	-1	0	0	0	0	0	0	0	0	0	0	0	0	0	0	0	0	0	0	0	0	0	0	0	0	0	0	0	0	0	0
071719	16:10:41	16:26:41	959544	5.0.10.0	5_exp_RW	67	Rpleas_acq	CS_B	JXXJ	YDDY	BZZB	VKKV	GWWG	MQQM	fair	spielen	ehrlich	schön	treu	retten	faul	strafen	eitel	schlecht	tot	rächen	1	acq_USpleas_CSpleas1_RW	acq4567_RW	5	67	400	1	300	300	350	50	0	1	1	blank2r.bmp	0	1	+	0	1	blank2r.bmp	492	1	JXXJ	492	1	blank2r.bmp	572	2	spielen	866	1	!	1239	1	!	1252	0	0	0	0	0	0	0	0	0	0	0	0	0	0	0	0	0	0	0	0	0	0	0	0	0	0	0	0	0	0
071719	16:10:41	16:26:43	961623	5.0.10.0	5_exp_RW	67	Rpleas_acq	CS_B	JXXJ	YDDY	BZZB	VKKV	GWWG	MQQM	fair	spielen	ehrlich	schön	treu	retten	faul	strafen	eitel	schlecht	tot	rächen	1	acq_USpleas_CSpleas1_RW	acq4567_RW	5	68	400	0	300	300	300	50	0	1	1	blank2r.bmp	0	1	+	0	1	blank2r.bmp	492	1	JXXJ	492	1	blank2r.bmp	572	3	ehrlich	866	1	!	-1	1	!	-1	0	0	0	0	0	0	0	0	0	0	0	0	0	0	0	0	0	0	0	0	0	0	0	0	0	0	0	0	0	0
071719	16:10:41	16:26:45	963676	5.0.10.0	5_exp_RW	67	Rpleas_acq	CS_B	JXXJ	YDDY	BZZB	VKKV	GWWG	MQQM	fair	spielen	ehrlich	schön	treu	retten	faul	strafen	eitel	schlecht	tot	rächen	1	acq_USunple_CSunple1_RW	acq4567_RW	5	69	400	0	300	300	260	50	0	0	1	blank2r.bmp	0	1	+	0	1	blank2r.bmp	492	1	BZZB	492	1	blank2r.bmp	572	2	strafen	866	1	!	-1	1	!	-1	0	0	0	0	0	0	0	0	0	0	0	0	0	0	0	0	0	0	0	0	0	0	0	0	0	0	0	0	0	0
071719	16:10:41	16:26:50	968087	5.0.10.0	5_exp_RW	67	Rpleas_acq	CS_B	JXXJ	YDDY	BZZB	VKKV	GWWG	MQQM	fair	spielen	ehrlich	schön	treu	retten	faul	strafen	eitel	schlecht	tot	rächen	1	acq_USpleas_CSpleas2_RW	acq4567_RW	5	70	400	0	300	300	2634	50	0	1	1	blank2r.bmp	0	1	+	0	1	blank2r.bmp	492	1	YDDY	492	1	blank2r.bmp	572	2	treu	866	1	!	1239	1	!	-1	0	0	0	0	0	0	0	0	0	0	0	0	0	0	0	0	0	0	0	0	0	0	0	0	0	0	0	0	0	0
071719	16:10:41	16:26:52	970126	5.0.10.0	5_exp_RW	67	Rpleas_acq	CS_B	JXXJ	YDDY	BZZB	VKKV	GWWG	MQQM	fair	spielen	ehrlich	schön	treu	retten	faul	strafen	eitel	schlecht	tot	rächen	1	acq_USpleas_CSpleas1_RW	acq4567_RW	5	71	400	0	300	300	257	46	0	0	1	blank2r.bmp	0	1	+	0	1	blank2r.bmp	492	1	JXXJ	492	1	blank2r.bmp	572	1	fair	866	1	!	-1	1	!	-1	0	0	0	0	0	0	0	0	0	0	0	0	0	0	0	0	0	0	0	0	0	0	0	0	0	0	0	0	0	0
071719	16:10:41	16:26:54	972205	5.0.10.0	5_exp_RW	67	Rpleas_acq	CS_B	JXXJ	YDDY	BZZB	VKKV	GWWG	MQQM	fair	spielen	ehrlich	schön	treu	retten	faul	strafen	eitel	schlecht	tot	rächen	1	acq_USunple_CSunple1_RW	acq4567_RW	5	72	400	0	300	300	302	50	0	0	1	blank2r.bmp	0	1	+	0	1	blank2r.bmp	492	1	BZZB	492	1	blank2r.bmp	572	3	eitel	866	1	!	-1	1	!	-1	0	0	0	0	0	0	0	0	0	0	0	0	0	0	0	0	0	0	0	0	0	0	0	0	0	0	0	0	0	0
071719	16:10:41	16:26:56	974405	5.0.10.0	5_exp_RW	67	Rpleas_acq	CS_B	JXXJ	YDDY	BZZB	VKKV	GWWG	MQQM	fair	spielen	ehrlich	schön	treu	retten	faul	strafen	eitel	schlecht	tot	rächen	1	acq_USunple_CSunple2_RW	acq4567_RW	5	73	400	1	300	300	392	50	0	0	1	blank2r.bmp	0	1	+	0	1	blank2r.bmp	492	1	VKKV	492	1	blank2r.bmp	572	3	rächen	866	1	!	1239	1	!	1292	0	0	0	0	0	0	0	0	0	0	0	0	0	0	0	0	0	0	0	0	0	0	0	0	0	0	0	0	0	0
071719	16:10:41	16:26:58	976550	5.0.10.0	5_exp_RW	67	Rpleas_acq	CS_B	JXXJ	YDDY	BZZB	VKKV	GWWG	MQQM	fair	spielen	ehrlich	schön	treu	retten	faul	strafen	eitel	schlecht	tot	rächen	1	acq_USunple_CSunple2_RW	acq4567_RW	5	74	400	1	300	300	346	46	0	1	1	blank2r.bmp	0	1	+	0	1	blank2r.bmp	492	1	VKKV	492	1	blank2r.bmp	572	3	rächen	866	1	!	1239	1	!	1252	0	0	0	0	0	0	0	0	0	0	0	0	0	0	0	0	0	0	0	0	0	0	0	0	0	0	0	0	0	0
071719	16:10:41	16:27:00	978723	5.0.10.0	5_exp_RW	67	Rpleas_acq	CS_B	JXXJ	YDDY	BZZB	VKKV	GWWG	MQQM	fair	spielen	ehrlich	schön	treu	retten	faul	strafen	eitel	schlecht	tot	rächen	1	acq_USunple_CSunple2_RW	acq4567_RW	5	75	400	1	300	300	366	46	0	1	1	blank2r.bmp	0	1	+	0	1	blank2r.bmp	492	1	VKKV	492	1	blank2r.bmp	572	2	tot	866	1	!	1239	1	!	1266	0	0	0	0	0	0	0	0	0	0	0	0	0	0	0	0	0	0	0	0	0	0	0	0	0	0	0	0	0	0
071719	16:10:41	16:27:02	980789	5.0.10.0	5_exp_RW	67	Rpleas_acq	CS_B	JXXJ	YDDY	BZZB	VKKV	GWWG	MQQM	fair	spielen	ehrlich	schön	treu	retten	faul	strafen	eitel	schlecht	tot	rächen	1	acq_USunple_CSunple1_RW	acq4567_RW	5	76	400	0	300	300	302	46	0	1	1	blank2r.bmp	0	1	+	0	1	blank2r.bmp	492	1	BZZB	492	1	blank2r.bmp	572	1	faul	866	1	!	-1	1	!	-1	0	0	0	0	0	0	0	0	0	0	0	0	0	0	0	0	0	0	0	0	0	0	0	0	0	0	0	0	0	0
071719	16:10:41	16:27:04	982881	5.0.10.0	5_exp_RW	67	Rpleas_acq	CS_B	JXXJ	YDDY	BZZB	VKKV	GWWG	MQQM	fair	spielen	ehrlich	schön	treu	retten	faul	strafen	eitel	schlecht	tot	rächen	1	acq_USpleas_CSpleas2_RW	acq4567_RW	5	77	400	0	300	300	306	46	0	0	1	blank2r.bmp	0	1	+	0	1	blank2r.bmp	492	1	YDDY	492	1	blank2r.bmp	572	1	schön	866	1	!	-1	1	!	-1	0	0	0	0	0	0	0	0	0	0	0	0	0	0	0	0	0	0	0	0	0	0	0	0	0	0	0	0	0	0
071719	16:10:41	16:27:07	985147	5.0.10.0	5_exp_RW	67	Rpleas_acq	CS_B	JXXJ	YDDY	BZZB	VKKV	GWWG	MQQM	fair	spielen	ehrlich	schön	treu	retten	faul	strafen	eitel	schlecht	tot	rächen	1	acq_USpleas_CSpleas1_RW	acq4567_RW	5	78	400	0	300	300	481	50	0	1	1	blank2r.bmp	0	1	+	0	1	blank2r.bmp	492	1	JXXJ	492	1	blank2r.bmp	572	1	fair	866	1	!	1239	1	!	-1	0	0	0	0	0	0	0	0	0	0	0	0	0	0	0	0	0	0	0	0	0	0	0	0	0	0	0	0	0	0
071719	16:10:41	16:27:09	987239	5.0.10.0	5_exp_RW	67	Rpleas_acq	CS_B	JXXJ	YDDY	BZZB	VKKV	GWWG	MQQM	fair	spielen	ehrlich	schön	treu	retten	faul	strafen	eitel	schlecht	tot	rächen	1	acq_USpleas_CSpleas1_RW	acq4567_RW	5	79	400	0	300	300	295	50	0	1	1	blank2r.bmp	0	1	+	0	1	blank2r.bmp	492	1	JXXJ	492	1	blank2r.bmp	572	2	spielen	866	1	!	-1	1	!	-1	0	0	0	0	0	0	0	0	0	0	0	0	0	0	0	0	0	0	0	0	0	0	0	0	0	0	0	0	0	0
071719	16:10:41	16:27:11	989305	5.0.10.0	5_exp_RW	67	Rpleas_acq	CS_B	JXXJ	YDDY	BZZB	VKKV	GWWG	MQQM	fair	spielen	ehrlich	schön	treu	retten	faul	strafen	eitel	schlecht	tot	rächen	1	acq_USpleas_CSpleas2_RW	acq4567_RW	5	80	400	0	300	300	268	50	0	1	1	blank2r.bmp	0	1	+	0	1	blank2r.bmp	492	1	YDDY	492	1	blank2r.bmp	572	3	retten	866	1	!	-1	1	!	-1	0	0	0	0	0	0	0	0	0	0	0	0	0	0	0	0	0	0	0	0	0	0	0	0	0	0	0	0	0	0
071719	16:10:41	16:27:28	1006552	5.0.10.0	5_exp_RW	67	Rpleas_acq	CS_B	JXXJ	YDDY	BZZB	VKKV	GWWG	MQQM	fair	spielen	ehrlich	schön	treu	retten	faul	strafen	eitel	schlecht	tot	rächen	1	acq_USunple_CSunple2_RW	acq4567_RW	6	1	400	0	300	300	3644	50	0	0	1	blank2r.bmp	0	1	+	0	1	blank2r.bmp	492	1	VKKV	492	1	blank2r.bmp	572	1	schlecht	866	1	!	1239	1	!	-1	0	0	0	0	0	0	0	0	0	0	0	0	0	0	0	0	0	0	0	0	0	0	0	0	0	0	0	0	0	0
071719	16:10:41	16:27:30	1008764	5.0.10.0	5_exp_RW	67	Rpleas_acq	CS_B	JXXJ	YDDY	BZZB	VKKV	GWWG	MQQM	fair	spielen	ehrlich	schön	treu	retten	faul	strafen	eitel	schlecht	tot	rächen	1	acq_USunple_CSunple1_RW	acq4567_RW	6	2	400	1	300	300	387	46	0	1	1	blank2r.bmp	0	1	+	0	1	blank2r.bmp	492	1	BZZB	492	1	blank2r.bmp	572	2	strafen	866	1	!	1239	1	!	1292	0	0	0	0	0	0	0	0	0	0	0	0	0	0	0	0	0	0	0	0	0	0	0	0	0	0	0	0	0	0
071719	16:10:41	16:27:32	1010856	5.0.10.0	5_exp_RW	67	Rpleas_acq	CS_B	JXXJ	YDDY	BZZB	VKKV	GWWG	MQQM	fair	spielen	ehrlich	schön	treu	retten	faul	strafen	eitel	schlecht	tot	rächen	1	acq_USunple_CSunple2_RW	acq4567_RW	6	3	400	0	300	300	315	46	0	1	1	blank2r.bmp	0	1	+	0	1	blank2r.bmp	492	1	VKKV	492	1	blank2r.bmp	572	3	rächen	866	1	!	-1	1	!	-1	0	0	0	0	0	0	0	0	0	0	0	0	0	0	0	0	0	0	0	0	0	0	0	0	0	0	0	0	0	0
071719	16:10:41	16:27:35	1013136	5.0.10.0	5_exp_RW	67	Rpleas_acq	CS_B	JXXJ	YDDY	BZZB	VKKV	GWWG	MQQM	fair	spielen	ehrlich	schön	treu	retten	faul	strafen	eitel	schlecht	tot	rächen	1	acq_USpleas_CSpleas1_RW	acq4567_RW	6	4	400	1	300	300	452	50	0	1	1	blank2r.bmp	0	1	+	0	1	blank2r.bmp	492	1	JXXJ	492	1	blank2r.bmp	572	3	ehrlich	866	1	!	1239	1	!	1359	0	0	0	0	0	0	0	0	0	0	0	0	0	0	0	0	0	0	0	0	0	0	0	0	0	0	0	0	0	0
071719	16:10:41	16:27:37	1015375	5.0.10.0	5_exp_RW	67	Rpleas_acq	CS_B	JXXJ	YDDY	BZZB	VKKV	GWWG	MQQM	fair	spielen	ehrlich	schön	treu	retten	faul	strafen	eitel	schlecht	tot	rächen	1	acq_USpleas_CSpleas1_RW	acq4567_RW	6	5	400	1	300	300	446	50	0	1	1	blank2r.bmp	0	1	+	0	1	blank2r.bmp	492	1	JXXJ	492	1	blank2r.bmp	572	1	fair	866	1	!	1239	1	!	1346	0	0	0	0	0	0	0	0	0	0	0	0	0	0	0	0	0	0	0	0	0	0	0	0	0	0	0	0	0	0
071719	16:10:41	16:27:39	1017520	5.0.10.0	5_exp_RW	67	Rpleas_acq	CS_B	JXXJ	YDDY	BZZB	VKKV	GWWG	MQQM	fair	spielen	ehrlich	schön	treu	retten	faul	strafen	eitel	schlecht	tot	rächen	1	acq_USpleas_CSpleas2_RW	acq4567_RW	6	6	400	1	300	300	346	50	0	1	1	blank2r.bmp	0	1	+	0	1	blank2r.bmp	492	1	YDDY	492	1	blank2r.bmp	572	2	treu	866	1	!	1239	1	!	1252	0	0	0	0	0	0	0	0	0	0	0	0	0	0	0	0	0	0	0	0	0	0	0	0	0	0	0	0	0	0
071719	16:10:41	16:27:41	1019680	5.0.10.0	5_exp_RW	67	Rpleas_acq	CS_B	JXXJ	YDDY	BZZB	VKKV	GWWG	MQQM	fair	spielen	ehrlich	schön	treu	retten	faul	strafen	eitel	schlecht	tot	rächen	1	acq_USunple_CSunple1_RW	acq4567_RW	6	7	400	1	300	300	369	46	0	1	1	blank2r.bmp	0	1	+	0	1	blank2r.bmp	492	1	BZZB	492	1	blank2r.bmp	572	2	strafen	866	1	!	1239	1	!	1266	0	0	0	0	0	0	0	0	0	0	0	0	0	0	0	0	0	0	0	0	0	0	0	0	0	0	0	0	0	0
071719	16:10:41	16:27:44	1021905	5.0.10.0	5_exp_RW	67	Rpleas_acq	CS_B	JXXJ	YDDY	BZZB	VKKV	GWWG	MQQM	fair	spielen	ehrlich	schön	treu	retten	faul	strafen	eitel	schlecht	tot	rächen	1	acq_USpleas_CSpleas1_RW	acq4567_RW	6	8	400	1	300	300	428	50	0	1	1	blank2r.bmp	0	1	+	0	1	blank2r.bmp	492	1	JXXJ	492	1	blank2r.bmp	572	3	ehrlich	866	1	!	1239	1	!	1332	0	0	0	0	0	0	0	0	0	0	0	0	0	0	0	0	0	0	0	0	0	0	0	0	0	0	0	0	0	0
071719	16:10:41	16:27:46	1024091	5.0.10.0	5_exp_RW	67	Rpleas_acq	CS_B	JXXJ	YDDY	BZZB	VKKV	GWWG	MQQM	fair	spielen	ehrlich	schön	treu	retten	faul	strafen	eitel	schlecht	tot	rächen	1	acq_USunple_CSunple1_RW	acq4567_RW	6	9	400	1	300	300	389	46	0	1	1	blank2r.bmp	0	1	+	0	1	blank2r.bmp	492	1	BZZB	492	1	blank2r.bmp	572	1	faul	866	1	!	1239	1	!	1292	0	0	0	0	0	0	0	0	0	0	0	0	0	0	0	0	0	0	0	0	0	0	0	0	0	0	0	0	0	0
071719	16:10:41	16:27:48	1026064	5.0.10.0	5_exp_RW	67	Rpleas_acq	CS_B	JXXJ	YDDY	BZZB	VKKV	GWWG	MQQM	fair	spielen	ehrlich	schön	treu	retten	faul	strafen	eitel	schlecht	tot	rächen	1	acq_USunple_CSunple2_RW	acq4567_RW	6	10	400	0	300	300	208	50	0	0	1	blank2r.bmp	0	1	+	0	1	blank2r.bmp	492	1	VKKV	492	1	blank2r.bmp	572	1	schlecht	866	1	!	-1	1	!	-1	0	0	0	0	0	0	0	0	0	0	0	0	0	0	0	0	0	0	0	0	0	0	0	0	0	0	0	0	0	0
071719	16:10:41	16:27:50	1028329	5.0.10.0	5_exp_RW	67	Rpleas_acq	CS_B	JXXJ	YDDY	BZZB	VKKV	GWWG	MQQM	fair	spielen	ehrlich	schön	treu	retten	faul	strafen	eitel	schlecht	tot	rächen	1	acq_USpleas_CSpleas2_RW	acq4567_RW	6	11	400	1	300	300	463	50	0	1	1	blank2r.bmp	0	1	+	0	1	blank2r.bmp	492	1	YDDY	492	1	blank2r.bmp	572	1	schön	866	1	!	1239	1	!	1359	0	0	0	0	0	0	0	0	0	0	0	0	0	0	0	0	0	0	0	0	0	0	0	0	0	0	0	0	0	0
071719	16:10:41	16:27:52	1030555	5.0.10.0	5_exp_RW	67	Rpleas_acq	CS_B	JXXJ	YDDY	BZZB	VKKV	GWWG	MQQM	fair	spielen	ehrlich	schön	treu	retten	faul	strafen	eitel	schlecht	tot	rächen	1	acq_USpleas_CSpleas1_RW	acq4567_RW	6	12	400	1	300	300	433	50	0	1	1	blank2r.bmp	0	1	+	0	1	blank2r.bmp	492	1	JXXJ	492	1	blank2r.bmp	572	2	spielen	866	1	!	1239	1	!	1332	0	0	0	0	0	0	0	0	0	0	0	0	0	0	0	0	0	0	0	0	0	0	0	0	0	0	0	0	0	0
071719	16:10:41	16:27:54	1032714	5.0.10.0	5_exp_RW	67	Rpleas_acq	CS_B	JXXJ	YDDY	BZZB	VKKV	GWWG	MQQM	fair	spielen	ehrlich	schön	treu	retten	faul	strafen	eitel	schlecht	tot	rächen	1	acq_USunple_CSunple1_RW	acq4567_RW	6	13	400	1	300	300	346	50	0	0	1	blank2r.bmp	0	1	+	0	1	blank2r.bmp	492	1	BZZB	492	1	blank2r.bmp	572	3	eitel	866	1	!	1239	1	!	1252	0	0	0	0	0	0	0	0	0	0	0	0	0	0	0	0	0	0	0	0	0	0	0	0	0	0	0	0	0	0
071719	16:10:41	16:27:57	1034953	5.0.10.0	5_exp_RW	67	Rpleas_acq	CS_B	JXXJ	YDDY	BZZB	VKKV	GWWG	MQQM	fair	spielen	ehrlich	schön	treu	retten	faul	strafen	eitel	schlecht	tot	rächen	1	acq_USpleas_CSpleas1_RW	acq4567_RW	6	14	400	1	300	300	442	50	0	1	1	blank2r.bmp	0	1	+	0	1	blank2r.bmp	492	1	JXXJ	492	1	blank2r.bmp	572	2	spielen	866	1	!	1239	1	!	1346	0	0	0	0	0	0	0	0	0	0	0	0	0	0	0	0	0	0	0	0	0	0	0	0	0	0	0	0	0	0
071719	16:10:41	16:27:59	1037166	5.0.10.0	5_exp_RW	67	Rpleas_acq	CS_B	JXXJ	YDDY	BZZB	VKKV	GWWG	MQQM	fair	spielen	ehrlich	schön	treu	retten	faul	strafen	eitel	schlecht	tot	rächen	1	acq_USpleas_CSpleas2_RW	acq4567_RW	6	15	400	1	300	300	414	50	0	1	1	blank2r.bmp	0	1	+	0	1	blank2r.bmp	492	1	YDDY	492	1	blank2r.bmp	572	2	treu	866	1	!	1239	1	!	1319	0	0	0	0	0	0	0	0	0	0	0	0	0	0	0	0	0	0	0	0	0	0	0	0	0	0	0	0	0	0
071719	16:10:41	16:28:01	1039245	5.0.10.0	5_exp_RW	67	Rpleas_acq	CS_B	JXXJ	YDDY	BZZB	VKKV	GWWG	MQQM	fair	spielen	ehrlich	schön	treu	retten	faul	strafen	eitel	schlecht	tot	rächen	1	acq_USpleas_CSpleas2_RW	acq4567_RW	6	16	400	0	300	300	314	50	0	1	1	blank2r.bmp	0	1	+	0	1	blank2r.bmp	492	1	YDDY	492	1	blank2r.bmp	572	3	retten	866	1	!	-1	1	!	-1	0	0	0	0	0	0	0	0	0	0	0	0	0	0	0	0	0	0	0	0	0	0	0	0	0	0	0	0	0	0
071719	16:10:41	16:28:03	1041337	5.0.10.0	5_exp_RW	67	Rpleas_acq	CS_B	JXXJ	YDDY	BZZB	VKKV	GWWG	MQQM	fair	spielen	ehrlich	schön	treu	retten	faul	strafen	eitel	schlecht	tot	rächen	1	acq_USunple_CSunple2_RW	acq4567_RW	6	17	400	0	300	300	317	50	0	0	1	blank2r.bmp	0	1	+	0	1	blank2r.bmp	492	1	VKKV	492	1	blank2r.bmp	572	2	tot	866	1	!	-1	1	!	-1	0	0	0	0	0	0	0	0	0	0	0	0	0	0	0	0	0	0	0	0	0	0	0	0	0	0	0	0	0	0
071719	16:10:41	16:28:07	1045669	5.0.10.0	5_exp_RW	67	Rpleas_acq	CS_B	JXXJ	YDDY	BZZB	VKKV	GWWG	MQQM	fair	spielen	ehrlich	schön	treu	retten	faul	strafen	eitel	schlecht	tot	rächen	1	acq_USpleas_CSpleas2_RW	acq4567_RW	6	18	400	0	300	300	2542	50	0	1	1	blank2r.bmp	0	1	+	0	1	blank2r.bmp	492	1	YDDY	492	1	blank2r.bmp	572	3	retten	866	1	!	1239	1	!	-1	0	0	0	0	0	0	0	0	0	0	0	0	0	0	0	0	0	0	0	0	0	0	0	0	0	0	0	0	0	0
071719	16:10:41	16:28:09	1047762	5.0.10.0	5_exp_RW	67	Rpleas_acq	CS_B	JXXJ	YDDY	BZZB	VKKV	GWWG	MQQM	fair	spielen	ehrlich	schön	treu	retten	faul	strafen	eitel	schlecht	tot	rächen	1	acq_USunple_CSunple1_RW	acq4567_RW	6	19	400	0	300	300	316	46	0	1	1	blank2r.bmp	0	1	+	0	1	blank2r.bmp	492	1	BZZB	492	1	blank2r.bmp	572	2	strafen	866	1	!	-1	1	!	-1	0	0	0	0	0	0	0	0	0	0	0	0	0	0	0	0	0	0	0	0	0	0	0	0	0	0	0	0	0	0
071719	16:10:41	16:28:11	1049854	5.0.10.0	5_exp_RW	67	Rpleas_acq	CS_B	JXXJ	YDDY	BZZB	VKKV	GWWG	MQQM	fair	spielen	ehrlich	schön	treu	retten	faul	strafen	eitel	schlecht	tot	rächen	1	acq_USunple_CSunple2_RW	acq4567_RW	6	20	400	0	300	300	316	46	0	1	1	blank2r.bmp	0	1	+	0	1	blank2r.bmp	492	1	VKKV	492	1	blank2r.bmp	572	2	tot	866	1	!	-1	1	!	-1	0	0	0	0	0	0	0	0	0	0	0	0	0	0	0	0	0	0	0	0	0	0	0	0	0	0	0	0	0	0
