date	time	script.currenttime	script.elapsedtime	build	script.currentexpt	subject	expressions.LRpleas_acq	expressions.conditionCS_A	expressions.CSpleas_1	expressions.CSpleas_2	expressions.CSunple_1	expressions.CSunple_2	expressions.distractor_1	expressions.distractor_2	expressions.US_pleas1	expressions.US_pleas2	expressions.US_pleas3	expressions.US_pleas4	expressions.US_pleas5	expressions.US_pleas6	expressions.US_unple1	expressions.US_unple2	expressions.US_unple3	expressions.US_unple4	expressions.US_unple5	expressions.US_unple6	counter.positions_noRW	trialcode	blockcode	blocknum	trialnum	windowcenter	inwindow	pretrialpause	posttrialpause	latency	response	expressions.correctedscore	correct	stimulusnumber1	stimulusitem1	stimulusonset1	stimulusnumber2	stimulusitem2	stimulusonset2	stimulusnumber3	stimulusitem3	stimulusonset3	stimulusnumber4	stimulusitem4	stimulusonset4	stimulusnumber5	stimulusitem5	stimulusonset5	stimulusnumber6	stimulusitem6	stimulusonset6	stimulusnumber7	stimulusitem7	stimulusonset7	stimulusnumber8	stimulusitem8	stimulusonset8	stimulusnumber9	stimulusitem9	stimulusonset9	stimulusnumber10	stimulusitem10	stimulusonset10	stimulusnumber11	stimulusitem11	stimulusonset11	stimulusnumber12	stimulusitem12	stimulusonset12	stimulusnumber13	stimulusitem13	stimulusonset13	stimulusnumber14	stimulusitem14	stimulusonset14	stimulusnumber15	stimulusitem15	stimulusonset15	stimulusnumber16	stimulusitem16	stimulusonset16	stimulusnumber17	stimulusitem17	stimulusonset17	stimulusnumber18	stimulusitem18	stimulusonset18
070319	11:00:52	11:02:17	84911	5.0.10.0	5_exp_RW	5	Rpleas_acq	CS_B	GWWG	YDDY	JXXJ	MQQM	VKKV	BZZB	spielen	fair	treu	ehrlich	retten	schön	strafen	faul	tot	eitel	rächen	schlecht	1	acq_USunple_CSunple2_RW	acq1_RW	1	1	0	0	300	300	1389	50	0	0	1	blank2r.bmp	0	1	+	0	1	blank2r.bmp	492	1	MQQM	492	1	blank2r.bmp	572	2	rächen	866	1	FEHLER	2292	0	0	0	0	0	0	0	0	0	0	0	0	0	0	0	0	0	0	0	0	0	0	0	0	0	0	0	0	0	0	0	0	0
070319	11:00:52	11:02:20	87483	5.0.10.0	5_exp_RW	5	Rpleas_acq	CS_B	GWWG	YDDY	JXXJ	MQQM	VKKV	BZZB	spielen	fair	treu	ehrlich	retten	schön	strafen	faul	tot	eitel	rächen	schlecht	1	acq_USpleas_CSpleas1_RW	acq1_RW	1	2	0	0	300	300	1317	50	0	1	1	blank2r.bmp	0	1	+	0	1	blank2r.bmp	492	1	GWWG	492	1	blank2r.bmp	572	3	treu	866	0	0	0	0	0	0	0	0	0	0	0	0	0	0	0	0	0	0	0	0	0	0	0	0	0	0	0	0	0	0	0	0	0	0	0	0
070319	11:00:52	11:02:22	89936	5.0.10.0	5_exp_RW	5	Rpleas_acq	CS_B	GWWG	YDDY	JXXJ	MQQM	VKKV	BZZB	spielen	fair	treu	ehrlich	retten	schön	strafen	faul	tot	eitel	rächen	schlecht	1	acq_USunple_CSunple2_RW	acq1_RW	1	3	0	0	300	300	963	46	0	1	1	blank2r.bmp	0	1	+	0	1	blank2r.bmp	492	1	MQQM	492	1	blank2r.bmp	572	1	eitel	866	0	0	0	0	0	0	0	0	0	0	0	0	0	0	0	0	0	0	0	0	0	0	0	0	0	0	0	0	0	0	0	0	0	0	0	0
070319	11:00:52	11:02:25	92188	5.0.10.0	5_exp_RW	5	Rpleas_acq	CS_B	GWWG	YDDY	JXXJ	MQQM	VKKV	BZZB	spielen	fair	treu	ehrlich	retten	schön	strafen	faul	tot	eitel	rächen	schlecht	1	acq_USpleas_CSpleas2_RW	acq1_RW	1	4	0	0	300	300	759	50	0	1	1	blank2r.bmp	0	1	+	0	1	blank2r.bmp	492	1	YDDY	492	1	blank2r.bmp	572	2	retten	866	0	0	0	0	0	0	0	0	0	0	0	0	0	0	0	0	0	0	0	0	0	0	0	0	0	0	0	0	0	0	0	0	0	0	0	0
070319	11:00:52	11:02:27	94321	5.0.10.0	5_exp_RW	5	Rpleas_acq	CS_B	GWWG	YDDY	JXXJ	MQQM	VKKV	BZZB	spielen	fair	treu	ehrlich	retten	schön	strafen	faul	tot	eitel	rächen	schlecht	1	acq_USpleas_CSpleas2_RW	acq1_RW	1	5	0	0	300	300	653	50	0	1	1	blank2r.bmp	0	1	+	0	1	blank2r.bmp	492	1	YDDY	492	1	blank2r.bmp	572	3	schön	866	0	0	0	0	0	0	0	0	0	0	0	0	0	0	0	0	0	0	0	0	0	0	0	0	0	0	0	0	0	0	0	0	0	0	0	0
070319	11:00:52	11:02:29	96253	5.0.10.0	5_exp_RW	5	Rpleas_acq	CS_B	GWWG	YDDY	JXXJ	MQQM	VKKV	BZZB	spielen	fair	treu	ehrlich	retten	schön	strafen	faul	tot	eitel	rächen	schlecht	1	acq_USunple_CSunple1_RW	acq1_RW	1	6	0	0	300	300	462	46	0	1	1	blank2r.bmp	0	1	+	0	1	blank2r.bmp	492	1	JXXJ	492	1	blank2r.bmp	572	1	strafen	866	0	0	0	0	0	0	0	0	0	0	0	0	0	0	0	0	0	0	0	0	0	0	0	0	0	0	0	0	0	0	0	0	0	0	0	0
070319	11:00:52	11:02:31	98239	5.0.10.0	5_exp_RW	5	Rpleas_acq	CS_B	GWWG	YDDY	JXXJ	MQQM	VKKV	BZZB	spielen	fair	treu	ehrlich	retten	schön	strafen	faul	tot	eitel	rächen	schlecht	1	acq_USpleas_CSpleas1_RW	acq1_RW	1	7	0	0	300	300	497	50	0	1	1	blank2r.bmp	0	1	+	0	1	blank2r.bmp	492	1	GWWG	492	1	blank2r.bmp	572	1	spielen	866	0	0	0	0	0	0	0	0	0	0	0	0	0	0	0	0	0	0	0	0	0	0	0	0	0	0	0	0	0	0	0	0	0	0	0	0
070319	11:00:52	11:02:33	100212	5.0.10.0	5_exp_RW	5	Rpleas_acq	CS_B	GWWG	YDDY	JXXJ	MQQM	VKKV	BZZB	spielen	fair	treu	ehrlich	retten	schön	strafen	faul	tot	eitel	rächen	schlecht	1	acq_USpleas_CSpleas1_RW	acq1_RW	1	8	0	0	300	300	495	50	0	1	1	blank2r.bmp	0	1	+	0	1	blank2r.bmp	492	1	GWWG	492	1	blank2r.bmp	572	2	fair	866	0	0	0	0	0	0	0	0	0	0	0	0	0	0	0	0	0	0	0	0	0	0	0	0	0	0	0	0	0	0	0	0	0	0	0	0
070319	11:00:52	11:02:35	102211	5.0.10.0	5_exp_RW	5	Rpleas_acq	CS_B	GWWG	YDDY	JXXJ	MQQM	VKKV	BZZB	spielen	fair	treu	ehrlich	retten	schön	strafen	faul	tot	eitel	rächen	schlecht	1	acq_USunple_CSunple2_RW	acq1_RW	1	9	0	0	300	300	513	46	0	1	1	blank2r.bmp	0	1	+	0	1	blank2r.bmp	492	1	MQQM	492	1	blank2r.bmp	572	3	schlecht	866	0	0	0	0	0	0	0	0	0	0	0	0	0	0	0	0	0	0	0	0	0	0	0	0	0	0	0	0	0	0	0	0	0	0	0	0
070319	11:00:52	11:02:37	104330	5.0.10.0	5_exp_RW	5	Rpleas_acq	CS_B	GWWG	YDDY	JXXJ	MQQM	VKKV	BZZB	spielen	fair	treu	ehrlich	retten	schön	strafen	faul	tot	eitel	rächen	schlecht	1	acq_USunple_CSunple1_RW	acq1_RW	1	10	0	0	300	300	631	46	0	1	1	blank2r.bmp	0	1	+	0	1	blank2r.bmp	492	1	JXXJ	492	1	blank2r.bmp	572	3	tot	866	0	0	0	0	0	0	0	0	0	0	0	0	0	0	0	0	0	0	0	0	0	0	0	0	0	0	0	0	0	0	0	0	0	0	0	0
070319	11:00:52	11:02:39	106356	5.0.10.0	5_exp_RW	5	Rpleas_acq	CS_B	GWWG	YDDY	JXXJ	MQQM	VKKV	BZZB	spielen	fair	treu	ehrlich	retten	schön	strafen	faul	tot	eitel	rächen	schlecht	1	acq_USpleas_CSpleas2_RW	acq1_RW	1	11	0	0	300	300	543	50	0	1	1	blank2r.bmp	0	1	+	0	1	blank2r.bmp	492	1	YDDY	492	1	blank2r.bmp	572	1	ehrlich	866	0	0	0	0	0	0	0	0	0	0	0	0	0	0	0	0	0	0	0	0	0	0	0	0	0	0	0	0	0	0	0	0	0	0	0	0
070319	11:00:52	11:02:41	108368	5.0.10.0	5_exp_RW	5	Rpleas_acq	CS_B	GWWG	YDDY	JXXJ	MQQM	VKKV	BZZB	spielen	fair	treu	ehrlich	retten	schön	strafen	faul	tot	eitel	rächen	schlecht	1	acq_USunple_CSunple2_RW	acq1_RW	1	12	0	0	300	300	521	46	0	1	1	blank2r.bmp	0	1	+	0	1	blank2r.bmp	492	1	MQQM	492	1	blank2r.bmp	572	1	eitel	866	0	0	0	0	0	0	0	0	0	0	0	0	0	0	0	0	0	0	0	0	0	0	0	0	0	0	0	0	0	0	0	0	0	0	0	0
070319	11:00:52	11:02:43	110514	5.0.10.0	5_exp_RW	5	Rpleas_acq	CS_B	GWWG	YDDY	JXXJ	MQQM	VKKV	BZZB	spielen	fair	treu	ehrlich	retten	schön	strafen	faul	tot	eitel	rächen	schlecht	1	acq_USpleas_CSpleas2_RW	acq1_RW	1	13	0	0	300	300	665	50	0	1	1	blank2r.bmp	0	1	+	0	1	blank2r.bmp	492	1	YDDY	492	1	blank2r.bmp	572	1	ehrlich	866	0	0	0	0	0	0	0	0	0	0	0	0	0	0	0	0	0	0	0	0	0	0	0	0	0	0	0	0	0	0	0	0	0	0	0	0
070319	11:00:52	11:02:45	112540	5.0.10.0	5_exp_RW	5	Rpleas_acq	CS_B	GWWG	YDDY	JXXJ	MQQM	VKKV	BZZB	spielen	fair	treu	ehrlich	retten	schön	strafen	faul	tot	eitel	rächen	schlecht	1	acq_USunple_CSunple1_RW	acq1_RW	1	14	0	0	300	300	551	46	0	1	1	blank2r.bmp	0	1	+	0	1	blank2r.bmp	492	1	JXXJ	492	1	blank2r.bmp	572	2	faul	866	0	0	0	0	0	0	0	0	0	0	0	0	0	0	0	0	0	0	0	0	0	0	0	0	0	0	0	0	0	0	0	0	0	0	0	0
070319	11:00:52	11:02:47	114712	5.0.10.0	5_exp_RW	5	Rpleas_acq	CS_B	GWWG	YDDY	JXXJ	MQQM	VKKV	BZZB	spielen	fair	treu	ehrlich	retten	schön	strafen	faul	tot	eitel	rächen	schlecht	1	acq_USunple_CSunple1_RW	acq1_RW	1	15	0	0	300	300	690	46	0	1	1	blank2r.bmp	0	1	+	0	1	blank2r.bmp	492	1	JXXJ	492	1	blank2r.bmp	572	1	strafen	866	0	0	0	0	0	0	0	0	0	0	0	0	0	0	0	0	0	0	0	0	0	0	0	0	0	0	0	0	0	0	0	0	0	0	0	0
070319	11:00:52	11:02:49	116818	5.0.10.0	5_exp_RW	5	Rpleas_acq	CS_B	GWWG	YDDY	JXXJ	MQQM	VKKV	BZZB	spielen	fair	treu	ehrlich	retten	schön	strafen	faul	tot	eitel	rächen	schlecht	1	acq_USpleas_CSpleas1_RW	acq1_RW	1	16	0	0	300	300	614	50	0	1	1	blank2r.bmp	0	1	+	0	1	blank2r.bmp	492	1	GWWG	492	1	blank2r.bmp	572	2	fair	866	0	0	0	0	0	0	0	0	0	0	0	0	0	0	0	0	0	0	0	0	0	0	0	0	0	0	0	0	0	0	0	0	0	0	0	0
070319	11:00:52	11:03:28	155696	5.0.10.0	5_exp_RW	5	Rpleas_acq	CS_B	GWWG	YDDY	JXXJ	MQQM	VKKV	BZZB	spielen	fair	treu	ehrlich	retten	schön	strafen	faul	tot	eitel	rächen	schlecht	1	acq_USunple_CSunple2_RW	acq2_RW	2	1	480	0	300	300	873	46	0	1	1	blank2r.bmp	0	1	+	0	1	blank2r.bmp	492	1	MQQM	492	1	blank2r.bmp	572	3	schlecht	866	1	!	1319	1	!	-1	0	0	0	0	0	0	0	0	0	0	0	0	0	0	0	0	0	0	0	0	0	0	0	0	0	0	0	0	0	0
070319	11:00:52	11:03:31	158135	5.0.10.0	5_exp_RW	5	Rpleas_acq	CS_B	GWWG	YDDY	JXXJ	MQQM	VKKV	BZZB	spielen	fair	treu	ehrlich	retten	schön	strafen	faul	tot	eitel	rächen	schlecht	1	acq_USpleas_CSpleas2_RW	acq2_RW	2	2	480	0	300	300	678	50	0	1	1	blank2r.bmp	0	1	+	0	1	blank2r.bmp	492	1	YDDY	492	1	blank2r.bmp	572	2	retten	866	1	!	1319	1	!	-1	0	0	0	0	0	0	0	0	0	0	0	0	0	0	0	0	0	0	0	0	0	0	0	0	0	0	0	0	0	0
070319	11:00:52	11:03:33	160254	5.0.10.0	5_exp_RW	5	Rpleas_acq	CS_B	GWWG	YDDY	JXXJ	MQQM	VKKV	BZZB	spielen	fair	treu	ehrlich	retten	schön	strafen	faul	tot	eitel	rächen	schlecht	1	acq_USpleas_CSpleas1_RW	acq2_RW	2	3	480	0	300	300	332	50	0	1	1	blank2r.bmp	0	1	+	0	1	blank2r.bmp	492	1	GWWG	492	1	blank2r.bmp	572	3	treu	866	1	!	-1	1	!	-1	0	0	0	0	0	0	0	0	0	0	0	0	0	0	0	0	0	0	0	0	0	0	0	0	0	0	0	0	0	0
070319	11:00:52	11:03:35	162559	5.0.10.0	5_exp_RW	5	Rpleas_acq	CS_B	GWWG	YDDY	JXXJ	MQQM	VKKV	BZZB	spielen	fair	treu	ehrlich	retten	schön	strafen	faul	tot	eitel	rächen	schlecht	1	acq_USunple_CSunple2_RW	acq2_RW	2	4	480	1	300	300	495	46	0	1	1	blank2r.bmp	0	1	+	0	1	blank2r.bmp	492	1	MQQM	492	1	blank2r.bmp	572	2	rächen	866	1	!	1319	1	!	1399	0	0	0	0	0	0	0	0	0	0	0	0	0	0	0	0	0	0	0	0	0	0	0	0	0	0	0	0	0	0
070319	11:00:52	11:03:37	164785	5.0.10.0	5_exp_RW	5	Rpleas_acq	CS_B	GWWG	YDDY	JXXJ	MQQM	VKKV	BZZB	spielen	fair	treu	ehrlich	retten	schön	strafen	faul	tot	eitel	rächen	schlecht	1	acq_USunple_CSunple1_RW	acq2_RW	2	5	480	1	300	300	433	46	0	1	1	blank2r.bmp	0	1	+	0	1	blank2r.bmp	492	1	JXXJ	492	1	blank2r.bmp	572	3	tot	866	1	!	1319	1	!	1332	0	0	0	0	0	0	0	0	0	0	0	0	0	0	0	0	0	0	0	0	0	0	0	0	0	0	0	0	0	0
070319	11:00:52	11:03:40	167144	5.0.10.0	5_exp_RW	5	Rpleas_acq	CS_B	GWWG	YDDY	JXXJ	MQQM	VKKV	BZZB	spielen	fair	treu	ehrlich	retten	schön	strafen	faul	tot	eitel	rächen	schlecht	1	acq_USpleas_CSpleas2_RW	acq2_RW	2	6	480	0	300	300	589	50	0	1	1	blank2r.bmp	0	1	+	0	1	blank2r.bmp	492	1	YDDY	492	1	blank2r.bmp	572	3	schön	866	1	!	1319	1	!	-1	0	0	0	0	0	0	0	0	0	0	0	0	0	0	0	0	0	0	0	0	0	0	0	0	0	0	0	0	0	0
070319	11:00:52	11:03:42	169437	5.0.10.0	5_exp_RW	5	Rpleas_acq	CS_B	GWWG	YDDY	JXXJ	MQQM	VKKV	BZZB	spielen	fair	treu	ehrlich	retten	schön	strafen	faul	tot	eitel	rächen	schlecht	1	acq_USpleas_CSpleas1_RW	acq2_RW	2	7	480	1	300	300	483	50	0	1	1	blank2r.bmp	0	1	+	0	1	blank2r.bmp	492	1	GWWG	492	1	blank2r.bmp	572	1	spielen	866	1	!	1319	1	!	1386	0	0	0	0	0	0	0	0	0	0	0	0	0	0	0	0	0	0	0	0	0	0	0	0	0	0	0	0	0	0
070319	11:00:52	11:03:44	171716	5.0.10.0	5_exp_RW	5	Rpleas_acq	CS_B	GWWG	YDDY	JXXJ	MQQM	VKKV	BZZB	spielen	fair	treu	ehrlich	retten	schön	strafen	faul	tot	eitel	rächen	schlecht	1	acq_USpleas_CSpleas1_RW	acq2_RW	2	8	480	1	300	300	487	50	0	1	1	blank2r.bmp	0	1	+	0	1	blank2r.bmp	492	1	GWWG	492	1	blank2r.bmp	572	3	treu	866	1	!	1319	1	!	1386	0	0	0	0	0	0	0	0	0	0	0	0	0	0	0	0	0	0	0	0	0	0	0	0	0	0	0	0	0	0
070319	11:00:52	11:03:46	173941	5.0.10.0	5_exp_RW	5	Rpleas_acq	CS_B	GWWG	YDDY	JXXJ	MQQM	VKKV	BZZB	spielen	fair	treu	ehrlich	retten	schön	strafen	faul	tot	eitel	rächen	schlecht	1	acq_USunple_CSunple2_RW	acq2_RW	2	9	480	1	300	300	428	46	0	1	1	blank2r.bmp	0	1	+	0	1	blank2r.bmp	492	1	MQQM	492	1	blank2r.bmp	572	1	eitel	866	1	!	1319	1	!	1332	0	0	0	0	0	0	0	0	0	0	0	0	0	0	0	0	0	0	0	0	0	0	0	0	0	0	0	0	0	0
070319	11:00:52	11:03:49	176087	5.0.10.0	5_exp_RW	5	Rpleas_acq	CS_B	GWWG	YDDY	JXXJ	MQQM	VKKV	BZZB	spielen	fair	treu	ehrlich	retten	schön	strafen	faul	tot	eitel	rächen	schlecht	1	acq_USpleas_CSpleas1_RW	acq2_RW	2	10	480	0	300	300	363	50	0	1	1	blank2r.bmp	0	1	+	0	1	blank2r.bmp	492	1	GWWG	492	1	blank2r.bmp	572	2	fair	866	1	!	-1	1	!	-1	0	0	0	0	0	0	0	0	0	0	0	0	0	0	0	0	0	0	0	0	0	0	0	0	0	0	0	0	0	0
070319	11:00:52	11:03:51	178446	5.0.10.0	5_exp_RW	5	Rpleas_acq	CS_B	GWWG	YDDY	JXXJ	MQQM	VKKV	BZZB	spielen	fair	treu	ehrlich	retten	schön	strafen	faul	tot	eitel	rächen	schlecht	1	acq_USpleas_CSpleas2_RW	acq2_RW	2	11	480	0	300	300	576	50	0	1	1	blank2r.bmp	0	1	+	0	1	blank2r.bmp	492	1	YDDY	492	1	blank2r.bmp	572	2	retten	866	1	!	1319	1	!	-1	0	0	0	0	0	0	0	0	0	0	0	0	0	0	0	0	0	0	0	0	0	0	0	0	0	0	0	0	0	0
070319	11:00:52	11:03:53	180592	5.0.10.0	5_exp_RW	5	Rpleas_acq	CS_B	GWWG	YDDY	JXXJ	MQQM	VKKV	BZZB	spielen	fair	treu	ehrlich	retten	schön	strafen	faul	tot	eitel	rächen	schlecht	1	acq_USunple_CSunple2_RW	acq2_RW	2	12	480	0	300	300	360	46	0	1	1	blank2r.bmp	0	1	+	0	1	blank2r.bmp	492	1	MQQM	492	1	blank2r.bmp	572	3	schlecht	866	1	!	-1	1	!	-1	0	0	0	0	0	0	0	0	0	0	0	0	0	0	0	0	0	0	0	0	0	0	0	0	0	0	0	0	0	0
070319	11:00:52	11:03:55	182898	5.0.10.0	5_exp_RW	5	Rpleas_acq	CS_B	GWWG	YDDY	JXXJ	MQQM	VKKV	BZZB	spielen	fair	treu	ehrlich	retten	schön	strafen	faul	tot	eitel	rächen	schlecht	1	acq_USunple_CSunple1_RW	acq2_RW	2	13	480	1	300	300	499	46	0	1	1	blank2r.bmp	0	1	+	0	1	blank2r.bmp	492	1	JXXJ	492	1	blank2r.bmp	572	2	faul	866	1	!	1319	1	!	1399	0	0	0	0	0	0	0	0	0	0	0	0	0	0	0	0	0	0	0	0	0	0	0	0	0	0	0	0	0	0
070319	11:00:52	11:03:58	185230	5.0.10.0	5_exp_RW	5	Rpleas_acq	CS_B	GWWG	YDDY	JXXJ	MQQM	VKKV	BZZB	spielen	fair	treu	ehrlich	retten	schön	strafen	faul	tot	eitel	rächen	schlecht	1	acq_USpleas_CSpleas2_RW	acq2_RW	2	14	480	0	300	300	559	50	0	1	1	blank2r.bmp	0	1	+	0	1	blank2r.bmp	492	1	YDDY	492	1	blank2r.bmp	572	3	schön	866	1	!	1319	1	!	-1	0	0	0	0	0	0	0	0	0	0	0	0	0	0	0	0	0	0	0	0	0	0	0	0	0	0	0	0	0	0
070319	11:00:52	11:04:00	187576	5.0.10.0	5_exp_RW	5	Rpleas_acq	CS_B	GWWG	YDDY	JXXJ	MQQM	VKKV	BZZB	spielen	fair	treu	ehrlich	retten	schön	strafen	faul	tot	eitel	rächen	schlecht	1	acq_USpleas_CSpleas2_RW	acq2_RW	2	15	480	0	300	300	340	46	0	0	1	blank2r.bmp	0	1	+	0	1	blank2r.bmp	492	1	YDDY	492	1	blank2r.bmp	572	1	ehrlich	866	1	FEHLER	1546	1	!	-1	1	!	-1	0	0	0	0	0	0	0	0	0	0	0	0	0	0	0	0	0	0	0	0	0	0	0	0	0	0	0
070319	11:00:52	11:04:02	189588	5.0.10.0	5_exp_RW	5	Rpleas_acq	CS_B	GWWG	YDDY	JXXJ	MQQM	VKKV	BZZB	spielen	fair	treu	ehrlich	retten	schön	strafen	faul	tot	eitel	rächen	schlecht	1	acq_USpleas_CSpleas2_RW	acq2_RW	2	16	480	1	300	300	426	50	0	1	1	blank2r.bmp	0	1	+	0	1	blank2r.bmp	492	1	YDDY	492	1	blank2r.bmp	572	1	ehrlich	866	1	!	1319	1	!	1332	0	0	0	0	0	0	0	0	0	0	0	0	0	0	0	0	0	0	0	0	0	0	0	0	0	0	0	0	0	0
070319	11:00:52	11:04:04	191827	5.0.10.0	5_exp_RW	5	Rpleas_acq	CS_B	GWWG	YDDY	JXXJ	MQQM	VKKV	BZZB	spielen	fair	treu	ehrlich	retten	schön	strafen	faul	tot	eitel	rächen	schlecht	1	acq_USunple_CSunple1_RW	acq2_RW	2	17	480	1	300	300	430	46	0	1	1	blank2r.bmp	0	1	+	0	1	blank2r.bmp	492	1	JXXJ	492	1	blank2r.bmp	572	3	tot	866	1	!	1319	1	!	1332	0	0	0	0	0	0	0	0	0	0	0	0	0	0	0	0	0	0	0	0	0	0	0	0	0	0	0	0	0	0
070319	11:00:52	11:04:07	194080	5.0.10.0	5_exp_RW	5	Rpleas_acq	CS_B	GWWG	YDDY	JXXJ	MQQM	VKKV	BZZB	spielen	fair	treu	ehrlich	retten	schön	strafen	faul	tot	eitel	rächen	schlecht	1	acq_USunple_CSunple1_RW	acq2_RW	2	18	480	1	300	300	457	46	0	1	1	blank2r.bmp	0	1	+	0	1	blank2r.bmp	492	1	JXXJ	492	1	blank2r.bmp	572	1	strafen	866	1	!	1319	1	!	1359	0	0	0	0	0	0	0	0	0	0	0	0	0	0	0	0	0	0	0	0	0	0	0	0	0	0	0	0	0	0
070319	11:00:52	11:04:09	196332	5.0.10.0	5_exp_RW	5	Rpleas_acq	CS_B	GWWG	YDDY	JXXJ	MQQM	VKKV	BZZB	spielen	fair	treu	ehrlich	retten	schön	strafen	faul	tot	eitel	rächen	schlecht	1	acq_USunple_CSunple2_RW	acq2_RW	2	19	480	1	300	300	443	46	0	1	1	blank2r.bmp	0	1	+	0	1	blank2r.bmp	492	1	MQQM	492	1	blank2r.bmp	572	2	rächen	866	1	!	1319	1	!	1346	0	0	0	0	0	0	0	0	0	0	0	0	0	0	0	0	0	0	0	0	0	0	0	0	0	0	0	0	0	0
070319	11:00:52	11:04:11	198571	5.0.10.0	5_exp_RW	5	Rpleas_acq	CS_B	GWWG	YDDY	JXXJ	MQQM	VKKV	BZZB	spielen	fair	treu	ehrlich	retten	schön	strafen	faul	tot	eitel	rächen	schlecht	1	acq_USunple_CSunple1_RW	acq2_RW	2	20	480	1	300	300	442	46	0	1	1	blank2r.bmp	0	1	+	0	1	blank2r.bmp	492	1	JXXJ	492	1	blank2r.bmp	572	2	faul	866	1	!	1319	1	!	1346	0	0	0	0	0	0	0	0	0	0	0	0	0	0	0	0	0	0	0	0	0	0	0	0	0	0	0	0	0	0
070319	11:00:52	11:04:13	200890	5.0.10.0	5_exp_RW	5	Rpleas_acq	CS_B	GWWG	YDDY	JXXJ	MQQM	VKKV	BZZB	spielen	fair	treu	ehrlich	retten	schön	strafen	faul	tot	eitel	rächen	schlecht	1	acq_USpleas_CSpleas1_RW	acq2_RW	2	21	480	1	300	300	510	50	0	1	1	blank2r.bmp	0	1	+	0	1	blank2r.bmp	492	1	GWWG	492	1	blank2r.bmp	572	1	spielen	866	1	!	1319	1	!	1412	0	0	0	0	0	0	0	0	0	0	0	0	0	0	0	0	0	0	0	0	0	0	0	0	0	0	0	0	0	0
070319	11:00:52	11:04:16	203143	5.0.10.0	5_exp_RW	5	Rpleas_acq	CS_B	GWWG	YDDY	JXXJ	MQQM	VKKV	BZZB	spielen	fair	treu	ehrlich	retten	schön	strafen	faul	tot	eitel	rächen	schlecht	1	acq_USpleas_CSpleas1_RW	acq2_RW	2	22	480	1	300	300	458	50	0	1	1	blank2r.bmp	0	1	+	0	1	blank2r.bmp	492	1	GWWG	492	1	blank2r.bmp	572	3	treu	866	1	!	1319	1	!	1359	0	0	0	0	0	0	0	0	0	0	0	0	0	0	0	0	0	0	0	0	0	0	0	0	0	0	0	0	0	0
070319	11:00:52	11:04:18	205395	5.0.10.0	5_exp_RW	5	Rpleas_acq	CS_B	GWWG	YDDY	JXXJ	MQQM	VKKV	BZZB	spielen	fair	treu	ehrlich	retten	schön	strafen	faul	tot	eitel	rächen	schlecht	1	acq_USunple_CSunple2_RW	acq2_RW	2	23	480	1	300	300	448	46	0	1	1	blank2r.bmp	0	1	+	0	1	blank2r.bmp	492	1	MQQM	492	1	blank2r.bmp	572	2	rächen	866	1	!	1319	1	!	1346	0	0	0	0	0	0	0	0	0	0	0	0	0	0	0	0	0	0	0	0	0	0	0	0	0	0	0	0	0	0
070319	11:00:52	11:04:20	207661	5.0.10.0	5_exp_RW	5	Rpleas_acq	CS_B	GWWG	YDDY	JXXJ	MQQM	VKKV	BZZB	spielen	fair	treu	ehrlich	retten	schön	strafen	faul	tot	eitel	rächen	schlecht	1	acq_USunple_CSunple1_RW	acq2_RW	2	24	480	1	300	300	472	46	0	1	1	blank2r.bmp	0	1	+	0	1	blank2r.bmp	492	1	JXXJ	492	1	blank2r.bmp	572	2	faul	866	1	!	1319	1	!	1372	0	0	0	0	0	0	0	0	0	0	0	0	0	0	0	0	0	0	0	0	0	0	0	0	0	0	0	0	0	0
070319	11:00:52	11:04:35	222881	5.0.10.0	5_exp_RW	5	Rpleas_acq	CS_B	GWWG	YDDY	JXXJ	MQQM	VKKV	BZZB	spielen	fair	treu	ehrlich	retten	schön	strafen	faul	tot	eitel	rächen	schlecht	1	acq_USpleas_CSpleas2_RW	acq3_RW	3	1	453	0	300	300	574	50	0	1	1	blank2r.bmp	0	1	+	0	1	blank2r.bmp	492	1	YDDY	492	1	blank2r.bmp	572	2	retten	866	1	!	1292	1	!	-1	0	0	0	0	0	0	0	0	0	0	0	0	0	0	0	0	0	0	0	0	0	0	0	0	0	0	0	0	0	0
070319	11:00:52	11:04:38	225160	5.0.10.0	5_exp_RW	5	Rpleas_acq	CS_B	GWWG	YDDY	JXXJ	MQQM	VKKV	BZZB	spielen	fair	treu	ehrlich	retten	schön	strafen	faul	tot	eitel	rächen	schlecht	1	acq_USunple_CSunple2_RW	acq3_RW	3	2	453	1	300	300	470	46	0	1	1	blank2r.bmp	0	1	+	0	1	blank2r.bmp	492	1	MQQM	492	1	blank2r.bmp	572	3	schlecht	866	1	!	1292	1	!	1372	0	0	0	0	0	0	0	0	0	0	0	0	0	0	0	0	0	0	0	0	0	0	0	0	0	0	0	0	0	0
070319	11:00:52	11:04:40	227413	5.0.10.0	5_exp_RW	5	Rpleas_acq	CS_B	GWWG	YDDY	JXXJ	MQQM	VKKV	BZZB	spielen	fair	treu	ehrlich	retten	schön	strafen	faul	tot	eitel	rächen	schlecht	1	acq_USpleas_CSpleas1_RW	acq3_RW	3	3	453	1	300	300	462	50	0	1	1	blank2r.bmp	0	1	+	0	1	blank2r.bmp	492	1	GWWG	492	1	blank2r.bmp	572	1	spielen	866	1	!	1292	1	!	1359	0	0	0	0	0	0	0	0	0	0	0	0	0	0	0	0	0	0	0	0	0	0	0	0	0	0	0	0	0	0
070319	11:00:52	11:04:42	229559	5.0.10.0	5_exp_RW	5	Rpleas_acq	CS_B	GWWG	YDDY	JXXJ	MQQM	VKKV	BZZB	spielen	fair	treu	ehrlich	retten	schön	strafen	faul	tot	eitel	rächen	schlecht	1	acq_USunple_CSunple2_RW	acq3_RW	3	4	453	0	300	300	380	46	0	1	1	blank2r.bmp	0	1	+	0	1	blank2r.bmp	492	1	MQQM	492	1	blank2r.bmp	572	1	eitel	866	1	!	-1	1	!	-1	0	0	0	0	0	0	0	0	0	0	0	0	0	0	0	0	0	0	0	0	0	0	0	0	0	0	0	0	0	0
070319	11:00:52	11:04:44	231878	5.0.10.0	5_exp_RW	5	Rpleas_acq	CS_B	GWWG	YDDY	JXXJ	MQQM	VKKV	BZZB	spielen	fair	treu	ehrlich	retten	schön	strafen	faul	tot	eitel	rächen	schlecht	1	acq_USunple_CSunple1_RW	acq3_RW	3	5	453	0	300	300	532	46	0	1	1	blank2r.bmp	0	1	+	0	1	blank2r.bmp	492	1	JXXJ	492	1	blank2r.bmp	572	3	tot	866	1	!	1292	1	!	-1	0	0	0	0	0	0	0	0	0	0	0	0	0	0	0	0	0	0	0	0	0	0	0	0	0	0	0	0	0	0
070319	11:00:52	11:04:47	234090	5.0.10.0	5_exp_RW	5	Rpleas_acq	CS_B	GWWG	YDDY	JXXJ	MQQM	VKKV	BZZB	spielen	fair	treu	ehrlich	retten	schön	strafen	faul	tot	eitel	rächen	schlecht	1	acq_USunple_CSunple1_RW	acq3_RW	3	6	453	1	300	300	404	46	0	1	1	blank2r.bmp	0	1	+	0	1	blank2r.bmp	492	1	JXXJ	492	1	blank2r.bmp	572	1	strafen	866	1	!	1292	1	!	1306	0	0	0	0	0	0	0	0	0	0	0	0	0	0	0	0	0	0	0	0	0	0	0	0	0	0	0	0	0	0
070319	11:00:52	11:04:49	236396	5.0.10.0	5_exp_RW	5	Rpleas_acq	CS_B	GWWG	YDDY	JXXJ	MQQM	VKKV	BZZB	spielen	fair	treu	ehrlich	retten	schön	strafen	faul	tot	eitel	rächen	schlecht	1	acq_USunple_CSunple2_RW	acq3_RW	3	7	453	1	300	300	511	46	0	1	1	blank2r.bmp	0	1	+	0	1	blank2r.bmp	492	1	MQQM	492	1	blank2r.bmp	572	2	rächen	866	1	!	1292	1	!	1412	0	0	0	0	0	0	0	0	0	0	0	0	0	0	0	0	0	0	0	0	0	0	0	0	0	0	0	0	0	0
070319	11:00:52	11:04:51	238608	5.0.10.0	5_exp_RW	5	Rpleas_acq	CS_B	GWWG	YDDY	JXXJ	MQQM	VKKV	BZZB	spielen	fair	treu	ehrlich	retten	schön	strafen	faul	tot	eitel	rächen	schlecht	1	acq_USpleas_CSpleas2_RW	acq3_RW	3	8	453	1	300	300	425	50	0	1	1	blank2r.bmp	0	1	+	0	1	blank2r.bmp	492	1	YDDY	492	1	blank2r.bmp	572	3	schön	866	1	!	1292	1	!	1319	0	0	0	0	0	0	0	0	0	0	0	0	0	0	0	0	0	0	0	0	0	0	0	0	0	0	0	0	0	0
070319	11:00:52	11:04:53	240901	5.0.10.0	5_exp_RW	5	Rpleas_acq	CS_B	GWWG	YDDY	JXXJ	MQQM	VKKV	BZZB	spielen	fair	treu	ehrlich	retten	schön	strafen	faul	tot	eitel	rächen	schlecht	1	acq_USpleas_CSpleas1_RW	acq3_RW	3	9	453	1	300	300	503	50	0	1	1	blank2r.bmp	0	1	+	0	1	blank2r.bmp	492	1	GWWG	492	1	blank2r.bmp	572	2	fair	866	1	!	1292	1	!	1399	0	0	0	0	0	0	0	0	0	0	0	0	0	0	0	0	0	0	0	0	0	0	0	0	0	0	0	0	0	0
070319	11:00:52	11:04:56	243126	5.0.10.0	5_exp_RW	5	Rpleas_acq	CS_B	GWWG	YDDY	JXXJ	MQQM	VKKV	BZZB	spielen	fair	treu	ehrlich	retten	schön	strafen	faul	tot	eitel	rächen	schlecht	1	acq_USunple_CSunple2_RW	acq3_RW	3	10	453	1	300	300	431	46	0	1	1	blank2r.bmp	0	1	+	0	1	blank2r.bmp	492	1	MQQM	492	1	blank2r.bmp	572	1	eitel	866	1	!	1292	1	!	1332	0	0	0	0	0	0	0	0	0	0	0	0	0	0	0	0	0	0	0	0	0	0	0	0	0	0	0	0	0	0
070319	11:00:52	11:04:58	245392	5.0.10.0	5_exp_RW	5	Rpleas_acq	CS_B	GWWG	YDDY	JXXJ	MQQM	VKKV	BZZB	spielen	fair	treu	ehrlich	retten	schön	strafen	faul	tot	eitel	rächen	schlecht	1	acq_USpleas_CSpleas2_RW	acq3_RW	3	11	453	1	300	300	459	50	0	1	1	blank2r.bmp	0	1	+	0	1	blank2r.bmp	492	1	YDDY	492	1	blank2r.bmp	572	1	ehrlich	866	1	!	1292	1	!	1359	0	0	0	0	0	0	0	0	0	0	0	0	0	0	0	0	0	0	0	0	0	0	0	0	0	0	0	0	0	0
070319	11:00:52	11:05:00	247911	5.0.10.0	5_exp_RW	5	Rpleas_acq	CS_B	GWWG	YDDY	JXXJ	MQQM	VKKV	BZZB	spielen	fair	treu	ehrlich	retten	schön	strafen	faul	tot	eitel	rächen	schlecht	1	acq_USpleas_CSpleas2_RW	acq3_RW	3	12	453	0	300	300	747	50	0	1	1	blank2r.bmp	0	1	+	0	1	blank2r.bmp	492	1	YDDY	492	1	blank2r.bmp	572	2	retten	866	1	!	1292	1	!	-1	0	0	0	0	0	0	0	0	0	0	0	0	0	0	0	0	0	0	0	0	0	0	0	0	0	0	0	0	0	0
070319	11:00:52	11:05:03	250497	5.0.10.0	5_exp_RW	5	Rpleas_acq	CS_B	GWWG	YDDY	JXXJ	MQQM	VKKV	BZZB	spielen	fair	treu	ehrlich	retten	schön	strafen	faul	tot	eitel	rächen	schlecht	1	acq_USunple_CSunple1_RW	acq3_RW	3	13	453	0	300	300	584	50	0	0	1	blank2r.bmp	0	1	+	0	1	blank2r.bmp	492	1	JXXJ	492	1	blank2r.bmp	572	2	faul	866	1	FEHLER	1785	1	!	1292	1	!	-1	0	0	0	0	0	0	0	0	0	0	0	0	0	0	0	0	0	0	0	0	0	0	0	0	0	0	0
070319	11:00:52	11:05:05	252616	5.0.10.0	5_exp_RW	5	Rpleas_acq	CS_B	GWWG	YDDY	JXXJ	MQQM	VKKV	BZZB	spielen	fair	treu	ehrlich	retten	schön	strafen	faul	tot	eitel	rächen	schlecht	1	acq_USpleas_CSpleas1_RW	acq3_RW	3	14	453	0	300	300	568	50	0	1	1	blank2r.bmp	0	1	+	0	1	blank2r.bmp	492	1	GWWG	492	1	blank2r.bmp	572	3	treu	866	1	!	1292	1	!	-1	0	0	0	0	0	0	0	0	0	0	0	0	0	0	0	0	0	0	0	0	0	0	0	0	0	0	0	0	0	0
070319	11:00:52	11:05:08	255082	5.0.10.0	5_exp_RW	5	Rpleas_acq	CS_B	GWWG	YDDY	JXXJ	MQQM	VKKV	BZZB	spielen	fair	treu	ehrlich	retten	schön	strafen	faul	tot	eitel	rächen	schlecht	1	acq_USpleas_CSpleas1_RW	acq3_RW	3	15	453	1	300	300	440	46	0	0	1	blank2r.bmp	0	1	+	0	1	blank2r.bmp	492	1	GWWG	492	1	blank2r.bmp	572	2	fair	866	1	FEHLER	1665	1	!	1292	1	!	1346	0	0	0	0	0	0	0	0	0	0	0	0	0	0	0	0	0	0	0	0	0	0	0	0	0	0	0
070319	11:00:52	11:05:10	257134	5.0.10.0	5_exp_RW	5	Rpleas_acq	CS_B	GWWG	YDDY	JXXJ	MQQM	VKKV	BZZB	spielen	fair	treu	ehrlich	retten	schön	strafen	faul	tot	eitel	rächen	schlecht	1	acq_USunple_CSunple1_RW	acq3_RW	3	16	453	1	300	300	476	46	0	1	1	blank2r.bmp	0	1	+	0	1	blank2r.bmp	492	1	JXXJ	492	1	blank2r.bmp	572	1	strafen	866	1	!	1292	1	!	1372	0	0	0	0	0	0	0	0	0	0	0	0	0	0	0	0	0	0	0	0	0	0	0	0	0	0	0	0	0	0
070319	11:00:52	11:05:12	259346	5.0.10.0	5_exp_RW	5	Rpleas_acq	CS_B	GWWG	YDDY	JXXJ	MQQM	VKKV	BZZB	spielen	fair	treu	ehrlich	retten	schön	strafen	faul	tot	eitel	rächen	schlecht	1	acq_USunple_CSunple1_RW	acq3_RW	3	17	453	1	300	300	399	46	0	1	1	blank2r.bmp	0	1	+	0	1	blank2r.bmp	492	1	JXXJ	492	1	blank2r.bmp	572	3	tot	866	1	!	1292	1	!	1306	0	0	0	0	0	0	0	0	0	0	0	0	0	0	0	0	0	0	0	0	0	0	0	0	0	0	0	0	0	0
070319	11:00:52	11:05:14	261586	5.0.10.0	5_exp_RW	5	Rpleas_acq	CS_B	GWWG	YDDY	JXXJ	MQQM	VKKV	BZZB	spielen	fair	treu	ehrlich	retten	schön	strafen	faul	tot	eitel	rächen	schlecht	1	acq_USpleas_CSpleas1_RW	acq3_RW	3	18	453	1	300	300	451	50	0	1	1	blank2r.bmp	0	1	+	0	1	blank2r.bmp	492	1	GWWG	492	1	blank2r.bmp	572	1	spielen	866	1	!	1292	1	!	1346	0	0	0	0	0	0	0	0	0	0	0	0	0	0	0	0	0	0	0	0	0	0	0	0	0	0	0	0	0	0
070319	11:00:52	11:05:16	263811	5.0.10.0	5_exp_RW	5	Rpleas_acq	CS_B	GWWG	YDDY	JXXJ	MQQM	VKKV	BZZB	spielen	fair	treu	ehrlich	retten	schön	strafen	faul	tot	eitel	rächen	schlecht	1	acq_USunple_CSunple1_RW	acq3_RW	3	19	453	1	300	300	428	46	0	1	1	blank2r.bmp	0	1	+	0	1	blank2r.bmp	492	1	JXXJ	492	1	blank2r.bmp	572	2	faul	866	1	!	1292	1	!	1332	0	0	0	0	0	0	0	0	0	0	0	0	0	0	0	0	0	0	0	0	0	0	0	0	0	0	0	0	0	0
070319	11:00:52	11:05:19	266157	5.0.10.0	5_exp_RW	5	Rpleas_acq	CS_B	GWWG	YDDY	JXXJ	MQQM	VKKV	BZZB	spielen	fair	treu	ehrlich	retten	schön	strafen	faul	tot	eitel	rächen	schlecht	1	acq_USpleas_CSpleas2_RW	acq3_RW	3	20	453	0	300	300	563	50	0	1	1	blank2r.bmp	0	1	+	0	1	blank2r.bmp	492	1	YDDY	492	1	blank2r.bmp	572	3	schön	866	1	!	1292	1	!	-1	0	0	0	0	0	0	0	0	0	0	0	0	0	0	0	0	0	0	0	0	0	0	0	0	0	0	0	0	0	0
070319	11:00:52	11:05:21	268409	5.0.10.0	5_exp_RW	5	Rpleas_acq	CS_B	GWWG	YDDY	JXXJ	MQQM	VKKV	BZZB	spielen	fair	treu	ehrlich	retten	schön	strafen	faul	tot	eitel	rächen	schlecht	1	acq_USunple_CSunple2_RW	acq3_RW	3	21	453	1	300	300	445	46	0	1	1	blank2r.bmp	0	1	+	0	1	blank2r.bmp	492	1	MQQM	492	1	blank2r.bmp	572	3	schlecht	866	1	!	1292	1	!	1346	0	0	0	0	0	0	0	0	0	0	0	0	0	0	0	0	0	0	0	0	0	0	0	0	0	0	0	0	0	0
070319	11:00:52	11:05:23	270675	5.0.10.0	5_exp_RW	5	Rpleas_acq	CS_B	GWWG	YDDY	JXXJ	MQQM	VKKV	BZZB	spielen	fair	treu	ehrlich	retten	schön	strafen	faul	tot	eitel	rächen	schlecht	1	acq_USpleas_CSpleas2_RW	acq3_RW	3	22	453	1	300	300	466	50	0	1	1	blank2r.bmp	0	1	+	0	1	blank2r.bmp	492	1	YDDY	492	1	blank2r.bmp	572	1	ehrlich	866	1	!	1292	1	!	1372	0	0	0	0	0	0	0	0	0	0	0	0	0	0	0	0	0	0	0	0	0	0	0	0	0	0	0	0	0	0
070319	11:00:52	11:05:25	272914	5.0.10.0	5_exp_RW	5	Rpleas_acq	CS_B	GWWG	YDDY	JXXJ	MQQM	VKKV	BZZB	spielen	fair	treu	ehrlich	retten	schön	strafen	faul	tot	eitel	rächen	schlecht	1	acq_USpleas_CSpleas1_RW	acq3_RW	3	23	453	1	300	300	432	50	0	1	1	blank2r.bmp	0	1	+	0	1	blank2r.bmp	492	1	GWWG	492	1	blank2r.bmp	572	3	treu	866	1	!	1292	1	!	1332	0	0	0	0	0	0	0	0	0	0	0	0	0	0	0	0	0	0	0	0	0	0	0	0	0	0	0	0	0	0
070319	11:00:52	11:05:28	275127	5.0.10.0	5_exp_RW	5	Rpleas_acq	CS_B	GWWG	YDDY	JXXJ	MQQM	VKKV	BZZB	spielen	fair	treu	ehrlich	retten	schön	strafen	faul	tot	eitel	rächen	schlecht	1	acq_USunple_CSunple2_RW	acq3_RW	3	24	453	1	300	300	419	46	0	1	1	blank2r.bmp	0	1	+	0	1	blank2r.bmp	492	1	MQQM	492	1	blank2r.bmp	572	1	eitel	866	1	!	1292	1	!	1319	0	0	0	0	0	0	0	0	0	0	0	0	0	0	0	0	0	0	0	0	0	0	0	0	0	0	0	0	0	0
070319	11:00:52	11:05:40	287175	5.0.10.0	5_exp_RW	5	Rpleas_acq	CS_B	GWWG	YDDY	JXXJ	MQQM	VKKV	BZZB	spielen	fair	treu	ehrlich	retten	schön	strafen	faul	tot	eitel	rächen	schlecht	1	acq_USpleas_CSpleas1_RW	acq4567_RW	4	1	400	0	300	300	489	50	0	1	1	blank2r.bmp	0	1	+	0	1	blank2r.bmp	492	1	GWWG	492	1	blank2r.bmp	572	2	fair	866	1	!	1239	1	!	-1	0	0	0	0	0	0	0	0	0	0	0	0	0	0	0	0	0	0	0	0	0	0	0	0	0	0	0	0	0	0
070319	11:00:52	11:05:42	289401	5.0.10.0	5_exp_RW	5	Rpleas_acq	CS_B	GWWG	YDDY	JXXJ	MQQM	VKKV	BZZB	spielen	fair	treu	ehrlich	retten	schön	strafen	faul	tot	eitel	rächen	schlecht	1	acq_USpleas_CSpleas1_RW	acq4567_RW	4	2	400	1	300	300	414	50	0	1	1	blank2r.bmp	0	1	+	0	1	blank2r.bmp	492	1	GWWG	492	1	blank2r.bmp	572	1	spielen	866	1	!	1239	1	!	1319	0	0	0	0	0	0	0	0	0	0	0	0	0	0	0	0	0	0	0	0	0	0	0	0	0	0	0	0	0	0
070319	11:00:52	11:05:44	291613	5.0.10.0	5_exp_RW	5	Rpleas_acq	CS_B	GWWG	YDDY	JXXJ	MQQM	VKKV	BZZB	spielen	fair	treu	ehrlich	retten	schön	strafen	faul	tot	eitel	rächen	schlecht	1	acq_USunple_CSunple1_RW	acq4567_RW	4	3	400	1	300	300	418	46	0	1	1	blank2r.bmp	0	1	+	0	1	blank2r.bmp	492	1	JXXJ	492	1	blank2r.bmp	572	3	tot	866	1	!	1239	1	!	1319	0	0	0	0	0	0	0	0	0	0	0	0	0	0	0	0	0	0	0	0	0	0	0	0	0	0	0	0	0	0
070319	11:00:52	11:05:46	293799	5.0.10.0	5_exp_RW	5	Rpleas_acq	CS_B	GWWG	YDDY	JXXJ	MQQM	VKKV	BZZB	spielen	fair	treu	ehrlich	retten	schön	strafen	faul	tot	eitel	rächen	schlecht	1	acq_USunple_CSunple1_RW	acq4567_RW	4	4	400	1	300	300	393	46	0	1	1	blank2r.bmp	0	1	+	0	1	blank2r.bmp	492	1	JXXJ	492	1	blank2r.bmp	572	1	strafen	866	1	!	1239	1	!	1292	0	0	0	0	0	0	0	0	0	0	0	0	0	0	0	0	0	0	0	0	0	0	0	0	0	0	0	0	0	0
070319	11:00:52	11:05:48	295985	5.0.10.0	5_exp_RW	5	Rpleas_acq	CS_B	GWWG	YDDY	JXXJ	MQQM	VKKV	BZZB	spielen	fair	treu	ehrlich	retten	schön	strafen	faul	tot	eitel	rächen	schlecht	1	acq_USpleas_CSpleas2_RW	acq4567_RW	4	5	400	1	300	300	398	50	0	1	1	blank2r.bmp	0	1	+	0	1	blank2r.bmp	492	1	YDDY	492	1	blank2r.bmp	572	2	retten	866	1	!	1239	1	!	1292	0	0	0	0	0	0	0	0	0	0	0	0	0	0	0	0	0	0	0	0	0	0	0	0	0	0	0	0	0	0
070319	11:00:52	11:05:51	298251	5.0.10.0	5_exp_RW	5	Rpleas_acq	CS_B	GWWG	YDDY	JXXJ	MQQM	VKKV	BZZB	spielen	fair	treu	ehrlich	retten	schön	strafen	faul	tot	eitel	rächen	schlecht	1	acq_USunple_CSunple2_RW	acq4567_RW	4	6	400	0	300	300	492	46	0	1	1	blank2r.bmp	0	1	+	0	1	blank2r.bmp	492	1	MQQM	492	1	blank2r.bmp	572	2	rächen	866	1	!	1239	1	!	-1	0	0	0	0	0	0	0	0	0	0	0	0	0	0	0	0	0	0	0	0	0	0	0	0	0	0	0	0	0	0
070319	11:00:52	11:05:53	300330	5.0.10.0	5_exp_RW	5	Rpleas_acq	CS_B	GWWG	YDDY	JXXJ	MQQM	VKKV	BZZB	spielen	fair	treu	ehrlich	retten	schön	strafen	faul	tot	eitel	rächen	schlecht	1	acq_USpleas_CSpleas2_RW	acq4567_RW	4	7	400	0	300	300	296	50	0	1	1	blank2r.bmp	0	1	+	0	1	blank2r.bmp	492	1	YDDY	492	1	blank2r.bmp	572	3	schön	866	1	!	-1	1	!	-1	0	0	0	0	0	0	0	0	0	0	0	0	0	0	0	0	0	0	0	0	0	0	0	0	0	0	0	0	0	0
070319	11:00:52	11:05:55	302595	5.0.10.0	5_exp_RW	5	Rpleas_acq	CS_B	GWWG	YDDY	JXXJ	MQQM	VKKV	BZZB	spielen	fair	treu	ehrlich	retten	schön	strafen	faul	tot	eitel	rächen	schlecht	1	acq_USunple_CSunple2_RW	acq4567_RW	4	8	400	0	300	300	479	46	0	1	1	blank2r.bmp	0	1	+	0	1	blank2r.bmp	492	1	MQQM	492	1	blank2r.bmp	572	3	schlecht	866	1	!	1239	1	!	-1	0	0	0	0	0	0	0	0	0	0	0	0	0	0	0	0	0	0	0	0	0	0	0	0	0	0	0	0	0	0
070319	11:00:52	11:05:57	304861	5.0.10.0	5_exp_RW	5	Rpleas_acq	CS_B	GWWG	YDDY	JXXJ	MQQM	VKKV	BZZB	spielen	fair	treu	ehrlich	retten	schön	strafen	faul	tot	eitel	rächen	schlecht	1	acq_USpleas_CSpleas2_RW	acq4567_RW	4	9	400	1	300	300	449	50	0	1	1	blank2r.bmp	0	1	+	0	1	blank2r.bmp	492	1	YDDY	492	1	blank2r.bmp	572	2	retten	866	1	!	1239	1	!	1346	0	0	0	0	0	0	0	0	0	0	0	0	0	0	0	0	0	0	0	0	0	0	0	0	0	0	0	0	0	0
070319	11:00:52	11:06:00	307087	5.0.10.0	5_exp_RW	5	Rpleas_acq	CS_B	GWWG	YDDY	JXXJ	MQQM	VKKV	BZZB	spielen	fair	treu	ehrlich	retten	schön	strafen	faul	tot	eitel	rächen	schlecht	1	acq_USunple_CSunple2_RW	acq4567_RW	4	10	400	1	300	300	428	46	0	1	1	blank2r.bmp	0	1	+	0	1	blank2r.bmp	492	1	MQQM	492	1	blank2r.bmp	572	2	rächen	866	1	!	1239	1	!	1332	0	0	0	0	0	0	0	0	0	0	0	0	0	0	0	0	0	0	0	0	0	0	0	0	0	0	0	0	0	0
070319	11:00:52	11:06:02	309286	5.0.10.0	5_exp_RW	5	Rpleas_acq	CS_B	GWWG	YDDY	JXXJ	MQQM	VKKV	BZZB	spielen	fair	treu	ehrlich	retten	schön	strafen	faul	tot	eitel	rächen	schlecht	1	acq_USpleas_CSpleas2_RW	acq4567_RW	4	11	400	1	300	300	412	50	0	1	1	blank2r.bmp	0	1	+	0	1	blank2r.bmp	492	1	YDDY	492	1	blank2r.bmp	572	1	ehrlich	866	1	!	1239	1	!	1306	0	0	0	0	0	0	0	0	0	0	0	0	0	0	0	0	0	0	0	0	0	0	0	0	0	0	0	0	0	0
070319	11:00:52	11:06:04	311512	5.0.10.0	5_exp_RW	5	Rpleas_acq	CS_B	GWWG	YDDY	JXXJ	MQQM	VKKV	BZZB	spielen	fair	treu	ehrlich	retten	schön	strafen	faul	tot	eitel	rächen	schlecht	1	acq_USunple_CSunple1_RW	acq4567_RW	4	12	400	1	300	300	419	46	0	1	1	blank2r.bmp	0	1	+	0	1	blank2r.bmp	492	1	JXXJ	492	1	blank2r.bmp	572	1	strafen	866	1	!	1239	1	!	1319	0	0	0	0	0	0	0	0	0	0	0	0	0	0	0	0	0	0	0	0	0	0	0	0	0	0	0	0	0	0
070319	11:00:52	11:06:06	313711	5.0.10.0	5_exp_RW	5	Rpleas_acq	CS_B	GWWG	YDDY	JXXJ	MQQM	VKKV	BZZB	spielen	fair	treu	ehrlich	retten	schön	strafen	faul	tot	eitel	rächen	schlecht	1	acq_USpleas_CSpleas1_RW	acq4567_RW	4	13	400	1	300	300	404	50	0	1	1	blank2r.bmp	0	1	+	0	1	blank2r.bmp	492	1	GWWG	492	1	blank2r.bmp	572	3	treu	866	1	!	1239	1	!	1306	0	0	0	0	0	0	0	0	0	0	0	0	0	0	0	0	0	0	0	0	0	0	0	0	0	0	0	0	0	0
070319	11:00:52	11:06:08	315963	5.0.10.0	5_exp_RW	5	Rpleas_acq	CS_B	GWWG	YDDY	JXXJ	MQQM	VKKV	BZZB	spielen	fair	treu	ehrlich	retten	schön	strafen	faul	tot	eitel	rächen	schlecht	1	acq_USunple_CSunple2_RW	acq4567_RW	4	14	400	1	300	300	463	46	0	1	1	blank2r.bmp	0	1	+	0	1	blank2r.bmp	492	1	MQQM	492	1	blank2r.bmp	572	1	eitel	866	1	!	1239	1	!	1359	0	0	0	0	0	0	0	0	0	0	0	0	0	0	0	0	0	0	0	0	0	0	0	0	0	0	0	0	0	0
070319	11:00:52	11:06:10	318002	5.0.10.0	5_exp_RW	5	Rpleas_acq	CS_B	GWWG	YDDY	JXXJ	MQQM	VKKV	BZZB	spielen	fair	treu	ehrlich	retten	schön	strafen	faul	tot	eitel	rächen	schlecht	1	acq_USpleas_CSpleas2_RW	acq4567_RW	4	15	400	0	300	300	273	50	0	1	1	blank2r.bmp	0	1	+	0	1	blank2r.bmp	492	1	YDDY	492	1	blank2r.bmp	572	3	schön	866	1	!	-1	1	!	-1	0	0	0	0	0	0	0	0	0	0	0	0	0	0	0	0	0	0	0	0	0	0	0	0	0	0	0	0	0	0
070319	11:00:52	11:06:13	320268	5.0.10.0	5_exp_RW	5	Rpleas_acq	CS_B	GWWG	YDDY	JXXJ	MQQM	VKKV	BZZB	spielen	fair	treu	ehrlich	retten	schön	strafen	faul	tot	eitel	rächen	schlecht	1	acq_USpleas_CSpleas1_RW	acq4567_RW	4	16	400	1	300	300	452	50	0	1	1	blank2r.bmp	0	1	+	0	1	blank2r.bmp	492	1	GWWG	492	1	blank2r.bmp	572	2	fair	866	1	!	1239	1	!	1359	0	0	0	0	0	0	0	0	0	0	0	0	0	0	0	0	0	0	0	0	0	0	0	0	0	0	0	0	0	0
070319	11:00:52	11:06:15	322521	5.0.10.0	5_exp_RW	5	Rpleas_acq	CS_B	GWWG	YDDY	JXXJ	MQQM	VKKV	BZZB	spielen	fair	treu	ehrlich	retten	schön	strafen	faul	tot	eitel	rächen	schlecht	1	acq_USpleas_CSpleas1_RW	acq4567_RW	4	17	400	1	300	300	448	50	0	1	1	blank2r.bmp	0	1	+	0	1	blank2r.bmp	492	1	GWWG	492	1	blank2r.bmp	572	1	spielen	866	1	!	1239	1	!	1346	0	0	0	0	0	0	0	0	0	0	0	0	0	0	0	0	0	0	0	0	0	0	0	0	0	0	0	0	0	0
070319	11:00:52	11:06:17	324720	5.0.10.0	5_exp_RW	5	Rpleas_acq	CS_B	GWWG	YDDY	JXXJ	MQQM	VKKV	BZZB	spielen	fair	treu	ehrlich	retten	schön	strafen	faul	tot	eitel	rächen	schlecht	1	acq_USunple_CSunple2_RW	acq4567_RW	4	18	400	1	300	300	404	46	0	1	1	blank2r.bmp	0	1	+	0	1	blank2r.bmp	492	1	MQQM	492	1	blank2r.bmp	572	3	schlecht	866	1	!	1239	1	!	1306	0	0	0	0	0	0	0	0	0	0	0	0	0	0	0	0	0	0	0	0	0	0	0	0	0	0	0	0	0	0
070319	11:00:52	11:06:19	326866	5.0.10.0	5_exp_RW	5	Rpleas_acq	CS_B	GWWG	YDDY	JXXJ	MQQM	VKKV	BZZB	spielen	fair	treu	ehrlich	retten	schön	strafen	faul	tot	eitel	rächen	schlecht	1	acq_USunple_CSunple1_RW	acq4567_RW	4	19	400	1	300	300	359	46	0	1	1	blank2r.bmp	0	1	+	0	1	blank2r.bmp	492	1	JXXJ	492	1	blank2r.bmp	572	3	tot	866	1	!	1239	1	!	1252	0	0	0	0	0	0	0	0	0	0	0	0	0	0	0	0	0	0	0	0	0	0	0	0	0	0	0	0	0	0
070319	11:00:52	11:06:22	329078	5.0.10.0	5_exp_RW	5	Rpleas_acq	CS_B	GWWG	YDDY	JXXJ	MQQM	VKKV	BZZB	spielen	fair	treu	ehrlich	retten	schön	strafen	faul	tot	eitel	rächen	schlecht	1	acq_USunple_CSunple1_RW	acq4567_RW	4	20	400	1	300	300	404	46	0	1	1	blank2r.bmp	0	1	+	0	1	blank2r.bmp	492	1	JXXJ	492	1	blank2r.bmp	572	2	faul	866	1	!	1239	1	!	1306	0	0	0	0	0	0	0	0	0	0	0	0	0	0	0	0	0	0	0	0	0	0	0	0	0	0	0	0	0	0
070319	11:00:52	11:06:24	331330	5.0.10.0	5_exp_RW	5	Rpleas_acq	CS_B	GWWG	YDDY	JXXJ	MQQM	VKKV	BZZB	spielen	fair	treu	ehrlich	retten	schön	strafen	faul	tot	eitel	rächen	schlecht	1	acq_USpleas_CSpleas1_RW	acq4567_RW	4	21	400	0	300	300	485	50	0	1	1	blank2r.bmp	0	1	+	0	1	blank2r.bmp	492	1	GWWG	492	1	blank2r.bmp	572	3	treu	866	1	!	1239	1	!	-1	0	0	0	0	0	0	0	0	0	0	0	0	0	0	0	0	0	0	0	0	0	0	0	0	0	0	0	0	0	0
070319	11:00:52	11:06:26	333556	5.0.10.0	5_exp_RW	5	Rpleas_acq	CS_B	GWWG	YDDY	JXXJ	MQQM	VKKV	BZZB	spielen	fair	treu	ehrlich	retten	schön	strafen	faul	tot	eitel	rächen	schlecht	1	acq_USpleas_CSpleas1_RW	acq4567_RW	4	22	400	1	300	300	405	50	0	1	1	blank2r.bmp	0	1	+	0	1	blank2r.bmp	492	1	GWWG	492	1	blank2r.bmp	572	1	spielen	866	1	!	1239	1	!	1306	0	0	0	0	0	0	0	0	0	0	0	0	0	0	0	0	0	0	0	0	0	0	0	0	0	0	0	0	0	0
070319	11:00:52	11:06:28	335729	5.0.10.0	5_exp_RW	5	Rpleas_acq	CS_B	GWWG	YDDY	JXXJ	MQQM	VKKV	BZZB	spielen	fair	treu	ehrlich	retten	schön	strafen	faul	tot	eitel	rächen	schlecht	1	acq_USunple_CSunple2_RW	acq4567_RW	4	23	400	1	300	300	377	46	0	1	1	blank2r.bmp	0	1	+	0	1	blank2r.bmp	492	1	MQQM	492	1	blank2r.bmp	572	3	schlecht	866	1	!	1239	1	!	1279	0	0	0	0	0	0	0	0	0	0	0	0	0	0	0	0	0	0	0	0	0	0	0	0	0	0	0	0	0	0
070319	11:00:52	11:06:30	337968	5.0.10.0	5_exp_RW	5	Rpleas_acq	CS_B	GWWG	YDDY	JXXJ	MQQM	VKKV	BZZB	spielen	fair	treu	ehrlich	retten	schön	strafen	faul	tot	eitel	rächen	schlecht	1	acq_USunple_CSunple2_RW	acq4567_RW	4	24	400	1	300	300	447	50	0	0	1	blank2r.bmp	0	1	+	0	1	blank2r.bmp	492	1	MQQM	492	1	blank2r.bmp	572	1	eitel	866	1	!	1239	1	!	1346	0	0	0	0	0	0	0	0	0	0	0	0	0	0	0	0	0	0	0	0	0	0	0	0	0	0	0	0	0	0
070319	11:00:52	11:06:33	340220	5.0.10.0	5_exp_RW	5	Rpleas_acq	CS_B	GWWG	YDDY	JXXJ	MQQM	VKKV	BZZB	spielen	fair	treu	ehrlich	retten	schön	strafen	faul	tot	eitel	rächen	schlecht	1	acq_USunple_CSunple2_RW	acq4567_RW	4	25	400	0	300	300	479	46	0	1	1	blank2r.bmp	0	1	+	0	1	blank2r.bmp	492	1	MQQM	492	1	blank2r.bmp	572	2	rächen	866	1	!	1239	1	!	-1	0	0	0	0	0	0	0	0	0	0	0	0	0	0	0	0	0	0	0	0	0	0	0	0	0	0	0	0	0	0
070319	11:00:52	11:06:35	342472	5.0.10.0	5_exp_RW	5	Rpleas_acq	CS_B	GWWG	YDDY	JXXJ	MQQM	VKKV	BZZB	spielen	fair	treu	ehrlich	retten	schön	strafen	faul	tot	eitel	rächen	schlecht	1	acq_USpleas_CSpleas1_RW	acq4567_RW	4	26	400	1	300	300	442	50	0	1	1	blank2r.bmp	0	1	+	0	1	blank2r.bmp	492	1	GWWG	492	1	blank2r.bmp	572	2	fair	866	1	!	1239	1	!	1346	0	0	0	0	0	0	0	0	0	0	0	0	0	0	0	0	0	0	0	0	0	0	0	0	0	0	0	0	0	0
070319	11:00:52	11:06:37	344832	5.0.10.0	5_exp_RW	5	Rpleas_acq	CS_B	GWWG	YDDY	JXXJ	MQQM	VKKV	BZZB	spielen	fair	treu	ehrlich	retten	schön	strafen	faul	tot	eitel	rächen	schlecht	1	acq_USpleas_CSpleas2_RW	acq4567_RW	4	27	400	0	300	300	593	50	0	1	1	blank2r.bmp	0	1	+	0	1	blank2r.bmp	492	1	YDDY	492	1	blank2r.bmp	572	1	ehrlich	866	1	!	1239	1	!	-1	0	0	0	0	0	0	0	0	0	0	0	0	0	0	0	0	0	0	0	0	0	0	0	0	0	0	0	0	0	0
070319	11:00:52	11:06:39	346991	5.0.10.0	5_exp_RW	5	Rpleas_acq	CS_B	GWWG	YDDY	JXXJ	MQQM	VKKV	BZZB	spielen	fair	treu	ehrlich	retten	schön	strafen	faul	tot	eitel	rächen	schlecht	1	acq_USpleas_CSpleas2_RW	acq4567_RW	4	28	400	1	300	300	355	50	0	1	1	blank2r.bmp	0	1	+	0	1	blank2r.bmp	492	1	YDDY	492	1	blank2r.bmp	572	2	retten	866	1	!	1239	1	!	1252	0	0	0	0	0	0	0	0	0	0	0	0	0	0	0	0	0	0	0	0	0	0	0	0	0	0	0	0	0	0
070319	11:00:52	11:06:42	349230	5.0.10.0	5_exp_RW	5	Rpleas_acq	CS_B	GWWG	YDDY	JXXJ	MQQM	VKKV	BZZB	spielen	fair	treu	ehrlich	retten	schön	strafen	faul	tot	eitel	rächen	schlecht	1	acq_USunple_CSunple1_RW	acq4567_RW	4	29	400	1	300	300	429	46	0	1	1	blank2r.bmp	0	1	+	0	1	blank2r.bmp	492	1	JXXJ	492	1	blank2r.bmp	572	1	strafen	866	1	!	1239	1	!	1332	0	0	0	0	0	0	0	0	0	0	0	0	0	0	0	0	0	0	0	0	0	0	0	0	0	0	0	0	0	0
070319	11:00:52	11:06:44	351469	5.0.10.0	5_exp_RW	5	Rpleas_acq	CS_B	GWWG	YDDY	JXXJ	MQQM	VKKV	BZZB	spielen	fair	treu	ehrlich	retten	schön	strafen	faul	tot	eitel	rächen	schlecht	1	acq_USpleas_CSpleas2_RW	acq4567_RW	4	30	400	1	300	300	449	50	0	1	1	blank2r.bmp	0	1	+	0	1	blank2r.bmp	492	1	YDDY	492	1	blank2r.bmp	572	3	schön	866	1	!	1239	1	!	1346	0	0	0	0	0	0	0	0	0	0	0	0	0	0	0	0	0	0	0	0	0	0	0	0	0	0	0	0	0	0
070319	11:00:52	11:06:46	353628	5.0.10.0	5_exp_RW	5	Rpleas_acq	CS_B	GWWG	YDDY	JXXJ	MQQM	VKKV	BZZB	spielen	fair	treu	ehrlich	retten	schön	strafen	faul	tot	eitel	rächen	schlecht	1	acq_USunple_CSunple2_RW	acq4567_RW	4	31	400	1	300	300	366	50	0	0	1	blank2r.bmp	0	1	+	0	1	blank2r.bmp	492	1	MQQM	492	1	blank2r.bmp	572	2	rächen	866	1	!	1239	1	!	1266	0	0	0	0	0	0	0	0	0	0	0	0	0	0	0	0	0	0	0	0	0	0	0	0	0	0	0	0	0	0
070319	11:00:52	11:06:48	355880	5.0.10.0	5_exp_RW	5	Rpleas_acq	CS_B	GWWG	YDDY	JXXJ	MQQM	VKKV	BZZB	spielen	fair	treu	ehrlich	retten	schön	strafen	faul	tot	eitel	rächen	schlecht	1	acq_USpleas_CSpleas1_RW	acq4567_RW	4	32	400	0	300	300	479	50	0	1	1	blank2r.bmp	0	1	+	0	1	blank2r.bmp	492	1	GWWG	492	1	blank2r.bmp	572	2	fair	866	1	!	1239	1	!	-1	0	0	0	0	0	0	0	0	0	0	0	0	0	0	0	0	0	0	0	0	0	0	0	0	0	0	0	0	0	0
070319	11:00:52	11:06:51	358133	5.0.10.0	5_exp_RW	5	Rpleas_acq	CS_B	GWWG	YDDY	JXXJ	MQQM	VKKV	BZZB	spielen	fair	treu	ehrlich	retten	schön	strafen	faul	tot	eitel	rächen	schlecht	1	acq_USunple_CSunple1_RW	acq4567_RW	4	33	400	1	300	300	446	46	0	1	1	blank2r.bmp	0	1	+	0	1	blank2r.bmp	492	1	JXXJ	492	1	blank2r.bmp	572	3	tot	866	1	!	1239	1	!	1346	0	0	0	0	0	0	0	0	0	0	0	0	0	0	0	0	0	0	0	0	0	0	0	0	0	0	0	0	0	0
070319	11:00:52	11:06:53	360332	5.0.10.0	5_exp_RW	5	Rpleas_acq	CS_B	GWWG	YDDY	JXXJ	MQQM	VKKV	BZZB	spielen	fair	treu	ehrlich	retten	schön	strafen	faul	tot	eitel	rächen	schlecht	1	acq_USpleas_CSpleas1_RW	acq4567_RW	4	34	400	1	300	300	408	50	0	1	1	blank2r.bmp	0	1	+	0	1	blank2r.bmp	492	1	GWWG	492	1	blank2r.bmp	572	3	treu	866	1	!	1239	1	!	1306	0	0	0	0	0	0	0	0	0	0	0	0	0	0	0	0	0	0	0	0	0	0	0	0	0	0	0	0	0	0
070319	11:00:52	11:06:55	362544	5.0.10.0	5_exp_RW	5	Rpleas_acq	CS_B	GWWG	YDDY	JXXJ	MQQM	VKKV	BZZB	spielen	fair	treu	ehrlich	retten	schön	strafen	faul	tot	eitel	rächen	schlecht	1	acq_USunple_CSunple1_RW	acq4567_RW	4	35	400	1	300	300	421	46	0	1	1	blank2r.bmp	0	1	+	0	1	blank2r.bmp	492	1	JXXJ	492	1	blank2r.bmp	572	2	faul	866	1	!	1239	1	!	1319	0	0	0	0	0	0	0	0	0	0	0	0	0	0	0	0	0	0	0	0	0	0	0	0	0	0	0	0	0	0
070319	11:00:52	11:06:57	364770	5.0.10.0	5_exp_RW	5	Rpleas_acq	CS_B	GWWG	YDDY	JXXJ	MQQM	VKKV	BZZB	spielen	fair	treu	ehrlich	retten	schön	strafen	faul	tot	eitel	rächen	schlecht	1	acq_USpleas_CSpleas2_RW	acq4567_RW	4	36	400	1	300	300	432	50	0	1	1	blank2r.bmp	0	1	+	0	1	blank2r.bmp	492	1	YDDY	492	1	blank2r.bmp	572	2	retten	866	1	!	1239	1	!	1332	0	0	0	0	0	0	0	0	0	0	0	0	0	0	0	0	0	0	0	0	0	0	0	0	0	0	0	0	0	0
070319	11:00:52	11:07:00	367022	5.0.10.0	5_exp_RW	5	Rpleas_acq	CS_B	GWWG	YDDY	JXXJ	MQQM	VKKV	BZZB	spielen	fair	treu	ehrlich	retten	schön	strafen	faul	tot	eitel	rächen	schlecht	1	acq_USpleas_CSpleas2_RW	acq4567_RW	4	37	400	1	300	300	459	50	0	1	1	blank2r.bmp	0	1	+	0	1	blank2r.bmp	492	1	YDDY	492	1	blank2r.bmp	572	1	ehrlich	866	1	!	1239	1	!	1359	0	0	0	0	0	0	0	0	0	0	0	0	0	0	0	0	0	0	0	0	0	0	0	0	0	0	0	0	0	0
070319	11:00:52	11:07:02	369195	5.0.10.0	5_exp_RW	5	Rpleas_acq	CS_B	GWWG	YDDY	JXXJ	MQQM	VKKV	BZZB	spielen	fair	treu	ehrlich	retten	schön	strafen	faul	tot	eitel	rächen	schlecht	1	acq_USunple_CSunple2_RW	acq4567_RW	4	38	400	1	300	300	382	46	0	1	1	blank2r.bmp	0	1	+	0	1	blank2r.bmp	492	1	MQQM	492	1	blank2r.bmp	572	1	eitel	866	1	!	1239	1	!	1279	0	0	0	0	0	0	0	0	0	0	0	0	0	0	0	0	0	0	0	0	0	0	0	0	0	0	0	0	0	0
070319	11:00:52	11:07:04	371421	5.0.10.0	5_exp_RW	5	Rpleas_acq	CS_B	GWWG	YDDY	JXXJ	MQQM	VKKV	BZZB	spielen	fair	treu	ehrlich	retten	schön	strafen	faul	tot	eitel	rächen	schlecht	1	acq_USunple_CSunple1_RW	acq4567_RW	4	39	400	1	300	300	432	46	0	1	1	blank2r.bmp	0	1	+	0	1	blank2r.bmp	492	1	JXXJ	492	1	blank2r.bmp	572	2	faul	866	1	!	1239	1	!	1332	0	0	0	0	0	0	0	0	0	0	0	0	0	0	0	0	0	0	0	0	0	0	0	0	0	0	0	0	0	0
070319	11:00:52	11:07:06	373633	5.0.10.0	5_exp_RW	5	Rpleas_acq	CS_B	GWWG	YDDY	JXXJ	MQQM	VKKV	BZZB	spielen	fair	treu	ehrlich	retten	schön	strafen	faul	tot	eitel	rächen	schlecht	1	acq_USunple_CSunple1_RW	acq4567_RW	4	40	400	1	300	300	419	46	0	1	1	blank2r.bmp	0	1	+	0	1	blank2r.bmp	492	1	JXXJ	492	1	blank2r.bmp	572	1	strafen	866	1	!	1239	1	!	1319	0	0	0	0	0	0	0	0	0	0	0	0	0	0	0	0	0	0	0	0	0	0	0	0	0	0	0	0	0	0
070319	11:00:52	11:07:08	375859	5.0.10.0	5_exp_RW	5	Rpleas_acq	CS_B	GWWG	YDDY	JXXJ	MQQM	VKKV	BZZB	spielen	fair	treu	ehrlich	retten	schön	strafen	faul	tot	eitel	rächen	schlecht	1	acq_USunple_CSunple1_RW	acq4567_RW	4	41	400	1	300	300	418	46	0	1	1	blank2r.bmp	0	1	+	0	1	blank2r.bmp	492	1	JXXJ	492	1	blank2r.bmp	572	3	tot	866	1	!	1239	1	!	1319	0	0	0	0	0	0	0	0	0	0	0	0	0	0	0	0	0	0	0	0	0	0	0	0	0	0	0	0	0	0
070319	11:00:52	11:07:10	378005	5.0.10.0	5_exp_RW	5	Rpleas_acq	CS_B	GWWG	YDDY	JXXJ	MQQM	VKKV	BZZB	spielen	fair	treu	ehrlich	retten	schön	strafen	faul	tot	eitel	rächen	schlecht	1	acq_USpleas_CSpleas2_RW	acq4567_RW	4	42	400	1	300	300	346	50	0	1	1	blank2r.bmp	0	1	+	0	1	blank2r.bmp	492	1	YDDY	492	1	blank2r.bmp	572	3	schön	866	1	!	1239	1	!	1252	0	0	0	0	0	0	0	0	0	0	0	0	0	0	0	0	0	0	0	0	0	0	0	0	0	0	0	0	0	0
070319	11:00:52	11:07:13	380204	5.0.10.0	5_exp_RW	5	Rpleas_acq	CS_B	GWWG	YDDY	JXXJ	MQQM	VKKV	BZZB	spielen	fair	treu	ehrlich	retten	schön	strafen	faul	tot	eitel	rächen	schlecht	1	acq_USpleas_CSpleas1_RW	acq4567_RW	4	43	400	1	300	300	407	50	0	1	1	blank2r.bmp	0	1	+	0	1	blank2r.bmp	492	1	GWWG	492	1	blank2r.bmp	572	1	spielen	866	1	!	1239	1	!	1306	0	0	0	0	0	0	0	0	0	0	0	0	0	0	0	0	0	0	0	0	0	0	0	0	0	0	0	0	0	0
070319	11:00:52	11:07:15	382389	5.0.10.0	5_exp_RW	5	Rpleas_acq	CS_B	GWWG	YDDY	JXXJ	MQQM	VKKV	BZZB	spielen	fair	treu	ehrlich	retten	schön	strafen	faul	tot	eitel	rächen	schlecht	1	acq_USunple_CSunple2_RW	acq4567_RW	4	44	400	1	300	300	395	46	0	1	1	blank2r.bmp	0	1	+	0	1	blank2r.bmp	492	1	MQQM	492	1	blank2r.bmp	572	3	schlecht	866	1	!	1239	1	!	1292	0	0	0	0	0	0	0	0	0	0	0	0	0	0	0	0	0	0	0	0	0	0	0	0	0	0	0	0	0	0
070319	11:00:52	11:07:17	384562	5.0.10.0	5_exp_RW	5	Rpleas_acq	CS_B	GWWG	YDDY	JXXJ	MQQM	VKKV	BZZB	spielen	fair	treu	ehrlich	retten	schön	strafen	faul	tot	eitel	rächen	schlecht	1	acq_USunple_CSunple1_RW	acq4567_RW	4	45	400	1	300	300	379	46	0	1	1	blank2r.bmp	0	1	+	0	1	blank2r.bmp	492	1	JXXJ	492	1	blank2r.bmp	572	2	faul	866	1	!	1239	1	!	1279	0	0	0	0	0	0	0	0	0	0	0	0	0	0	0	0	0	0	0	0	0	0	0	0	0	0	0	0	0	0
070319	11:00:52	11:07:19	386788	5.0.10.0	5_exp_RW	5	Rpleas_acq	CS_B	GWWG	YDDY	JXXJ	MQQM	VKKV	BZZB	spielen	fair	treu	ehrlich	retten	schön	strafen	faul	tot	eitel	rächen	schlecht	1	acq_USunple_CSunple2_RW	acq4567_RW	4	46	400	1	300	300	438	46	0	1	1	blank2r.bmp	0	1	+	0	1	blank2r.bmp	492	1	MQQM	492	1	blank2r.bmp	572	3	schlecht	866	1	!	1239	1	!	1332	0	0	0	0	0	0	0	0	0	0	0	0	0	0	0	0	0	0	0	0	0	0	0	0	0	0	0	0	0	0
070319	11:00:52	11:07:22	389040	5.0.10.0	5_exp_RW	5	Rpleas_acq	CS_B	GWWG	YDDY	JXXJ	MQQM	VKKV	BZZB	spielen	fair	treu	ehrlich	retten	schön	strafen	faul	tot	eitel	rächen	schlecht	1	acq_USunple_CSunple2_RW	acq4567_RW	4	47	400	0	300	300	487	46	0	1	1	blank2r.bmp	0	1	+	0	1	blank2r.bmp	492	1	MQQM	492	1	blank2r.bmp	572	2	rächen	866	1	!	1239	1	!	-1	0	0	0	0	0	0	0	0	0	0	0	0	0	0	0	0	0	0	0	0	0	0	0	0	0	0	0	0	0	0
070319	11:00:52	11:07:24	391239	5.0.10.0	5_exp_RW	5	Rpleas_acq	CS_B	GWWG	YDDY	JXXJ	MQQM	VKKV	BZZB	spielen	fair	treu	ehrlich	retten	schön	strafen	faul	tot	eitel	rächen	schlecht	1	acq_USpleas_CSpleas2_RW	acq4567_RW	4	48	400	1	300	300	391	50	0	1	1	blank2r.bmp	0	1	+	0	1	blank2r.bmp	492	1	YDDY	492	1	blank2r.bmp	572	2	retten	866	1	!	1239	1	!	1292	0	0	0	0	0	0	0	0	0	0	0	0	0	0	0	0	0	0	0	0	0	0	0	0	0	0	0	0	0	0
070319	11:00:52	11:07:26	393465	5.0.10.0	5_exp_RW	5	Rpleas_acq	CS_B	GWWG	YDDY	JXXJ	MQQM	VKKV	BZZB	spielen	fair	treu	ehrlich	retten	schön	strafen	faul	tot	eitel	rächen	schlecht	1	acq_USpleas_CSpleas2_RW	acq4567_RW	4	49	400	1	300	300	437	50	0	1	1	blank2r.bmp	0	1	+	0	1	blank2r.bmp	492	1	YDDY	492	1	blank2r.bmp	572	1	ehrlich	866	1	!	1239	1	!	1332	0	0	0	0	0	0	0	0	0	0	0	0	0	0	0	0	0	0	0	0	0	0	0	0	0	0	0	0	0	0
070319	11:00:52	11:07:28	395677	5.0.10.0	5_exp_RW	5	Rpleas_acq	CS_B	GWWG	YDDY	JXXJ	MQQM	VKKV	BZZB	spielen	fair	treu	ehrlich	retten	schön	strafen	faul	tot	eitel	rächen	schlecht	1	acq_USunple_CSunple1_RW	acq4567_RW	4	50	400	1	300	300	421	46	0	1	1	blank2r.bmp	0	1	+	0	1	blank2r.bmp	492	1	JXXJ	492	1	blank2r.bmp	572	1	strafen	866	1	!	1239	1	!	1319	0	0	0	0	0	0	0	0	0	0	0	0	0	0	0	0	0	0	0	0	0	0	0	0	0	0	0	0	0	0
070319	11:00:52	11:07:30	397863	5.0.10.0	5_exp_RW	5	Rpleas_acq	CS_B	GWWG	YDDY	JXXJ	MQQM	VKKV	BZZB	spielen	fair	treu	ehrlich	retten	schön	strafen	faul	tot	eitel	rächen	schlecht	1	acq_USpleas_CSpleas1_RW	acq4567_RW	4	51	400	1	300	300	375	50	0	1	1	blank2r.bmp	0	1	+	0	1	blank2r.bmp	492	1	GWWG	492	1	blank2r.bmp	572	1	spielen	866	1	!	1239	1	!	1279	0	0	0	0	0	0	0	0	0	0	0	0	0	0	0	0	0	0	0	0	0	0	0	0	0	0	0	0	0	0
070319	11:00:52	11:07:33	400036	5.0.10.0	5_exp_RW	5	Rpleas_acq	CS_B	GWWG	YDDY	JXXJ	MQQM	VKKV	BZZB	spielen	fair	treu	ehrlich	retten	schön	strafen	faul	tot	eitel	rächen	schlecht	1	acq_USunple_CSunple1_RW	acq4567_RW	4	52	400	1	300	300	379	46	0	1	1	blank2r.bmp	0	1	+	0	1	blank2r.bmp	492	1	JXXJ	492	1	blank2r.bmp	572	3	tot	866	1	!	1239	1	!	1279	0	0	0	0	0	0	0	0	0	0	0	0	0	0	0	0	0	0	0	0	0	0	0	0	0	0	0	0	0	0
070319	11:00:52	11:07:35	402208	5.0.10.0	5_exp_RW	5	Rpleas_acq	CS_B	GWWG	YDDY	JXXJ	MQQM	VKKV	BZZB	spielen	fair	treu	ehrlich	retten	schön	strafen	faul	tot	eitel	rächen	schlecht	1	acq_USpleas_CSpleas2_RW	acq4567_RW	4	53	400	1	300	300	375	50	0	1	1	blank2r.bmp	0	1	+	0	1	blank2r.bmp	492	1	YDDY	492	1	blank2r.bmp	572	3	schön	866	1	!	1239	1	!	1279	0	0	0	0	0	0	0	0	0	0	0	0	0	0	0	0	0	0	0	0	0	0	0	0	0	0	0	0	0	0
070319	11:00:52	11:07:37	404420	5.0.10.0	5_exp_RW	5	Rpleas_acq	CS_B	GWWG	YDDY	JXXJ	MQQM	VKKV	BZZB	spielen	fair	treu	ehrlich	retten	schön	strafen	faul	tot	eitel	rächen	schlecht	1	acq_USunple_CSunple2_RW	acq4567_RW	4	54	400	1	300	300	414	46	0	1	1	blank2r.bmp	0	1	+	0	1	blank2r.bmp	492	1	MQQM	492	1	blank2r.bmp	572	1	eitel	866	1	!	1239	1	!	1319	0	0	0	0	0	0	0	0	0	0	0	0	0	0	0	0	0	0	0	0	0	0	0	0	0	0	0	0	0	0
070319	11:00:52	11:07:39	406633	5.0.10.0	5_exp_RW	5	Rpleas_acq	CS_B	GWWG	YDDY	JXXJ	MQQM	VKKV	BZZB	spielen	fair	treu	ehrlich	retten	schön	strafen	faul	tot	eitel	rächen	schlecht	1	acq_USunple_CSunple1_RW	acq4567_RW	4	55	400	1	300	300	416	46	0	1	1	blank2r.bmp	0	1	+	0	1	blank2r.bmp	492	1	JXXJ	492	1	blank2r.bmp	572	1	strafen	866	1	!	1239	1	!	1319	0	0	0	0	0	0	0	0	0	0	0	0	0	0	0	0	0	0	0	0	0	0	0	0	0	0	0	0	0	0
070319	11:00:52	11:07:41	408845	5.0.10.0	5_exp_RW	5	Rpleas_acq	CS_B	GWWG	YDDY	JXXJ	MQQM	VKKV	BZZB	spielen	fair	treu	ehrlich	retten	schön	strafen	faul	tot	eitel	rächen	schlecht	1	acq_USpleas_CSpleas1_RW	acq4567_RW	4	56	400	1	300	300	413	50	0	1	1	blank2r.bmp	0	1	+	0	1	blank2r.bmp	492	1	GWWG	492	1	blank2r.bmp	572	3	treu	866	1	!	1239	1	!	1319	0	0	0	0	0	0	0	0	0	0	0	0	0	0	0	0	0	0	0	0	0	0	0	0	0	0	0	0	0	0
070319	11:00:52	11:07:43	410938	5.0.10.0	5_exp_RW	5	Rpleas_acq	CS_B	GWWG	YDDY	JXXJ	MQQM	VKKV	BZZB	spielen	fair	treu	ehrlich	retten	schön	strafen	faul	tot	eitel	rächen	schlecht	1	acq_USpleas_CSpleas2_RW	acq4567_RW	4	57	400	0	300	300	321	50	0	1	1	blank2r.bmp	0	1	+	0	1	blank2r.bmp	492	1	YDDY	492	1	blank2r.bmp	572	3	schön	866	1	!	-1	1	!	-1	0	0	0	0	0	0	0	0	0	0	0	0	0	0	0	0	0	0	0	0	0	0	0	0	0	0	0	0	0	0
070319	11:00:52	11:07:46	413177	5.0.10.0	5_exp_RW	5	Rpleas_acq	CS_B	GWWG	YDDY	JXXJ	MQQM	VKKV	BZZB	spielen	fair	treu	ehrlich	retten	schön	strafen	faul	tot	eitel	rächen	schlecht	1	acq_USpleas_CSpleas1_RW	acq4567_RW	4	58	400	1	300	300	437	50	0	1	1	blank2r.bmp	0	1	+	0	1	blank2r.bmp	492	1	GWWG	492	1	blank2r.bmp	572	2	fair	866	1	!	1239	1	!	1332	0	0	0	0	0	0	0	0	0	0	0	0	0	0	0	0	0	0	0	0	0	0	0	0	0	0	0	0	0	0
070319	11:00:52	11:07:48	415429	5.0.10.0	5_exp_RW	5	Rpleas_acq	CS_B	GWWG	YDDY	JXXJ	MQQM	VKKV	BZZB	spielen	fair	treu	ehrlich	retten	schön	strafen	faul	tot	eitel	rächen	schlecht	1	acq_USunple_CSunple2_RW	acq4567_RW	4	59	400	1	300	300	455	46	0	1	1	blank2r.bmp	0	1	+	0	1	blank2r.bmp	492	1	MQQM	492	1	blank2r.bmp	572	2	rächen	866	1	!	1239	1	!	1359	0	0	0	0	0	0	0	0	0	0	0	0	0	0	0	0	0	0	0	0	0	0	0	0	0	0	0	0	0	0
070319	11:00:52	11:07:50	417628	5.0.10.0	5_exp_RW	5	Rpleas_acq	CS_B	GWWG	YDDY	JXXJ	MQQM	VKKV	BZZB	spielen	fair	treu	ehrlich	retten	schön	strafen	faul	tot	eitel	rächen	schlecht	1	acq_USpleas_CSpleas1_RW	acq4567_RW	4	60	400	1	300	300	399	50	0	1	1	blank2r.bmp	0	1	+	0	1	blank2r.bmp	492	1	GWWG	492	1	blank2r.bmp	572	2	fair	866	1	!	1239	1	!	1306	0	0	0	0	0	0	0	0	0	0	0	0	0	0	0	0	0	0	0	0	0	0	0	0	0	0	0	0	0	0
070319	11:00:52	11:07:52	419841	5.0.10.0	5_exp_RW	5	Rpleas_acq	CS_B	GWWG	YDDY	JXXJ	MQQM	VKKV	BZZB	spielen	fair	treu	ehrlich	retten	schön	strafen	faul	tot	eitel	rächen	schlecht	1	acq_USpleas_CSpleas2_RW	acq4567_RW	4	61	400	1	300	300	418	50	0	1	1	blank2r.bmp	0	1	+	0	1	blank2r.bmp	492	1	YDDY	492	1	blank2r.bmp	572	1	ehrlich	866	1	!	1239	1	!	1319	0	0	0	0	0	0	0	0	0	0	0	0	0	0	0	0	0	0	0	0	0	0	0	0	0	0	0	0	0	0
070319	11:00:52	11:07:55	422107	5.0.10.0	5_exp_RW	5	Rpleas_acq	CS_B	GWWG	YDDY	JXXJ	MQQM	VKKV	BZZB	spielen	fair	treu	ehrlich	retten	schön	strafen	faul	tot	eitel	rächen	schlecht	1	acq_USunple_CSunple1_RW	acq4567_RW	4	62	400	0	300	300	490	50	0	0	1	blank2r.bmp	0	1	+	0	1	blank2r.bmp	492	1	JXXJ	492	1	blank2r.bmp	572	2	faul	866	1	!	1239	1	!	-1	0	0	0	0	0	0	0	0	0	0	0	0	0	0	0	0	0	0	0	0	0	0	0	0	0	0	0	0	0	0
070319	11:00:52	11:07:57	424292	5.0.10.0	5_exp_RW	5	Rpleas_acq	CS_B	GWWG	YDDY	JXXJ	MQQM	VKKV	BZZB	spielen	fair	treu	ehrlich	retten	schön	strafen	faul	tot	eitel	rächen	schlecht	1	acq_USpleas_CSpleas2_RW	acq4567_RW	4	63	400	1	300	300	372	50	0	1	1	blank2r.bmp	0	1	+	0	1	blank2r.bmp	492	1	YDDY	492	1	blank2r.bmp	572	2	retten	866	1	!	1239	1	!	1266	0	0	0	0	0	0	0	0	0	0	0	0	0	0	0	0	0	0	0	0	0	0	0	0	0	0	0	0	0	0
070319	11:00:52	11:07:59	426465	5.0.10.0	5_exp_RW	5	Rpleas_acq	CS_B	GWWG	YDDY	JXXJ	MQQM	VKKV	BZZB	spielen	fair	treu	ehrlich	retten	schön	strafen	faul	tot	eitel	rächen	schlecht	1	acq_USunple_CSunple1_RW	acq4567_RW	4	64	400	1	300	300	385	46	0	1	1	blank2r.bmp	0	1	+	0	1	blank2r.bmp	492	1	JXXJ	492	1	blank2r.bmp	572	3	tot	866	1	!	1239	1	!	1279	0	0	0	0	0	0	0	0	0	0	0	0	0	0	0	0	0	0	0	0	0	0	0	0	0	0	0	0	0	0
070319	11:00:52	11:08:01	428651	5.0.10.0	5_exp_RW	5	Rpleas_acq	CS_B	GWWG	YDDY	JXXJ	MQQM	VKKV	BZZB	spielen	fair	treu	ehrlich	retten	schön	strafen	faul	tot	eitel	rächen	schlecht	1	acq_USunple_CSunple1_RW	acq4567_RW	4	65	400	1	300	300	388	46	0	1	1	blank2r.bmp	0	1	+	0	1	blank2r.bmp	492	1	JXXJ	492	1	blank2r.bmp	572	1	strafen	866	1	!	1239	1	!	1292	0	0	0	0	0	0	0	0	0	0	0	0	0	0	0	0	0	0	0	0	0	0	0	0	0	0	0	0	0	0
070319	11:00:52	11:08:03	430836	5.0.10.0	5_exp_RW	5	Rpleas_acq	CS_B	GWWG	YDDY	JXXJ	MQQM	VKKV	BZZB	spielen	fair	treu	ehrlich	retten	schön	strafen	faul	tot	eitel	rächen	schlecht	1	acq_USpleas_CSpleas2_RW	acq4567_RW	4	66	400	1	300	300	396	50	0	1	1	blank2r.bmp	0	1	+	0	1	blank2r.bmp	492	1	YDDY	492	1	blank2r.bmp	572	1	ehrlich	866	1	!	1239	1	!	1292	0	0	0	0	0	0	0	0	0	0	0	0	0	0	0	0	0	0	0	0	0	0	0	0	0	0	0	0	0	0
070319	11:00:52	11:08:05	432982	5.0.10.0	5_exp_RW	5	Rpleas_acq	CS_B	GWWG	YDDY	JXXJ	MQQM	VKKV	BZZB	spielen	fair	treu	ehrlich	retten	schön	strafen	faul	tot	eitel	rächen	schlecht	1	acq_USunple_CSunple2_RW	acq4567_RW	4	67	400	1	300	300	358	46	0	1	1	blank2r.bmp	0	1	+	0	1	blank2r.bmp	492	1	MQQM	492	1	blank2r.bmp	572	3	schlecht	866	1	!	1239	1	!	1252	0	0	0	0	0	0	0	0	0	0	0	0	0	0	0	0	0	0	0	0	0	0	0	0	0	0	0	0	0	0
070319	11:00:52	11:08:08	435021	5.0.10.0	5_exp_RW	5	Rpleas_acq	CS_B	GWWG	YDDY	JXXJ	MQQM	VKKV	BZZB	spielen	fair	treu	ehrlich	retten	schön	strafen	faul	tot	eitel	rächen	schlecht	1	acq_USpleas_CSpleas1_RW	acq4567_RW	4	68	400	0	300	300	271	50	0	1	1	blank2r.bmp	0	1	+	0	1	blank2r.bmp	492	1	GWWG	492	1	blank2r.bmp	572	1	spielen	866	1	!	-1	1	!	-1	0	0	0	0	0	0	0	0	0	0	0	0	0	0	0	0	0	0	0	0	0	0	0	0	0	0	0	0	0	0
070319	11:00:52	11:08:10	437300	5.0.10.0	5_exp_RW	5	Rpleas_acq	CS_B	GWWG	YDDY	JXXJ	MQQM	VKKV	BZZB	spielen	fair	treu	ehrlich	retten	schön	strafen	faul	tot	eitel	rächen	schlecht	1	acq_USpleas_CSpleas2_RW	acq4567_RW	4	69	400	0	300	300	482	50	0	1	1	blank2r.bmp	0	1	+	0	1	blank2r.bmp	492	1	YDDY	492	1	blank2r.bmp	572	3	schön	866	1	!	1239	1	!	-1	0	0	0	0	0	0	0	0	0	0	0	0	0	0	0	0	0	0	0	0	0	0	0	0	0	0	0	0	0	0
070319	11:00:52	11:08:12	439393	5.0.10.0	5_exp_RW	5	Rpleas_acq	CS_B	GWWG	YDDY	JXXJ	MQQM	VKKV	BZZB	spielen	fair	treu	ehrlich	retten	schön	strafen	faul	tot	eitel	rächen	schlecht	1	acq_USunple_CSunple2_RW	acq4567_RW	4	70	400	0	300	300	297	46	0	1	1	blank2r.bmp	0	1	+	0	1	blank2r.bmp	492	1	MQQM	492	1	blank2r.bmp	572	1	eitel	866	1	!	-1	1	!	-1	0	0	0	0	0	0	0	0	0	0	0	0	0	0	0	0	0	0	0	0	0	0	0	0	0	0	0	0	0	0
070319	11:00:52	11:08:14	441565	5.0.10.0	5_exp_RW	5	Rpleas_acq	CS_B	GWWG	YDDY	JXXJ	MQQM	VKKV	BZZB	spielen	fair	treu	ehrlich	retten	schön	strafen	faul	tot	eitel	rächen	schlecht	1	acq_USunple_CSunple2_RW	acq4567_RW	4	71	400	1	300	300	359	46	0	1	1	blank2r.bmp	0	1	+	0	1	blank2r.bmp	492	1	MQQM	492	1	blank2r.bmp	572	1	eitel	866	1	!	1239	1	!	1266	0	0	0	0	0	0	0	0	0	0	0	0	0	0	0	0	0	0	0	0	0	0	0	0	0	0	0	0	0	0
070319	11:00:52	11:08:16	443778	5.0.10.0	5_exp_RW	5	Rpleas_acq	CS_B	GWWG	YDDY	JXXJ	MQQM	VKKV	BZZB	spielen	fair	treu	ehrlich	retten	schön	strafen	faul	tot	eitel	rächen	schlecht	1	acq_USunple_CSunple2_RW	acq4567_RW	4	72	400	1	300	300	414	46	0	1	1	blank2r.bmp	0	1	+	0	1	blank2r.bmp	492	1	MQQM	492	1	blank2r.bmp	572	3	schlecht	866	1	!	1239	1	!	1319	0	0	0	0	0	0	0	0	0	0	0	0	0	0	0	0	0	0	0	0	0	0	0	0	0	0	0	0	0	0
070319	11:00:52	11:08:18	445950	5.0.10.0	5_exp_RW	5	Rpleas_acq	CS_B	GWWG	YDDY	JXXJ	MQQM	VKKV	BZZB	spielen	fair	treu	ehrlich	retten	schön	strafen	faul	tot	eitel	rächen	schlecht	1	acq_USunple_CSunple1_RW	acq4567_RW	4	73	400	1	300	300	377	46	0	1	1	blank2r.bmp	0	1	+	0	1	blank2r.bmp	492	1	JXXJ	492	1	blank2r.bmp	572	3	tot	866	1	!	1239	1	!	1279	0	0	0	0	0	0	0	0	0	0	0	0	0	0	0	0	0	0	0	0	0	0	0	0	0	0	0	0	0	0
070319	11:00:52	11:08:21	448163	5.0.10.0	5_exp_RW	5	Rpleas_acq	CS_B	GWWG	YDDY	JXXJ	MQQM	VKKV	BZZB	spielen	fair	treu	ehrlich	retten	schön	strafen	faul	tot	eitel	rächen	schlecht	1	acq_USunple_CSunple2_RW	acq4567_RW	4	74	400	1	300	300	413	46	0	1	1	blank2r.bmp	0	1	+	0	1	blank2r.bmp	492	1	MQQM	492	1	blank2r.bmp	572	2	rächen	866	1	!	1239	1	!	1319	0	0	0	0	0	0	0	0	0	0	0	0	0	0	0	0	0	0	0	0	0	0	0	0	0	0	0	0	0	0
070319	11:00:52	11:08:23	450215	5.0.10.0	5_exp_RW	5	Rpleas_acq	CS_B	GWWG	YDDY	JXXJ	MQQM	VKKV	BZZB	spielen	fair	treu	ehrlich	retten	schön	strafen	faul	tot	eitel	rächen	schlecht	1	acq_USpleas_CSpleas1_RW	acq4567_RW	4	75	400	0	300	300	290	50	0	1	1	blank2r.bmp	0	1	+	0	1	blank2r.bmp	492	1	GWWG	492	1	blank2r.bmp	572	3	treu	866	1	!	-1	1	!	-1	0	0	0	0	0	0	0	0	0	0	0	0	0	0	0	0	0	0	0	0	0	0	0	0	0	0	0	0	0	0
070319	11:00:52	11:08:25	452454	5.0.10.0	5_exp_RW	5	Rpleas_acq	CS_B	GWWG	YDDY	JXXJ	MQQM	VKKV	BZZB	spielen	fair	treu	ehrlich	retten	schön	strafen	faul	tot	eitel	rächen	schlecht	1	acq_USpleas_CSpleas1_RW	acq4567_RW	4	76	400	1	300	300	421	50	0	1	1	blank2r.bmp	0	1	+	0	1	blank2r.bmp	492	1	GWWG	492	1	blank2r.bmp	572	1	spielen	866	1	!	1239	1	!	1319	0	0	0	0	0	0	0	0	0	0	0	0	0	0	0	0	0	0	0	0	0	0	0	0	0	0	0	0	0	0
070319	11:00:52	11:08:27	454600	5.0.10.0	5_exp_RW	5	Rpleas_acq	CS_B	GWWG	YDDY	JXXJ	MQQM	VKKV	BZZB	spielen	fair	treu	ehrlich	retten	schön	strafen	faul	tot	eitel	rächen	schlecht	1	acq_USunple_CSunple1_RW	acq4567_RW	4	77	400	1	300	300	346	46	0	1	1	blank2r.bmp	0	1	+	0	1	blank2r.bmp	492	1	JXXJ	492	1	blank2r.bmp	572	2	faul	866	1	!	1239	1	!	1252	0	0	0	0	0	0	0	0	0	0	0	0	0	0	0	0	0	0	0	0	0	0	0	0	0	0	0	0	0	0
070319	11:00:52	11:08:29	456812	5.0.10.0	5_exp_RW	5	Rpleas_acq	CS_B	GWWG	YDDY	JXXJ	MQQM	VKKV	BZZB	spielen	fair	treu	ehrlich	retten	schön	strafen	faul	tot	eitel	rächen	schlecht	1	acq_USpleas_CSpleas1_RW	acq4567_RW	4	78	400	1	300	300	421	46	0	0	1	blank2r.bmp	0	1	+	0	1	blank2r.bmp	492	1	GWWG	492	1	blank2r.bmp	572	2	fair	866	1	!	1239	1	!	1319	0	0	0	0	0	0	0	0	0	0	0	0	0	0	0	0	0	0	0	0	0	0	0	0	0	0	0	0	0	0
070319	11:00:52	11:08:32	459065	5.0.10.0	5_exp_RW	5	Rpleas_acq	CS_B	GWWG	YDDY	JXXJ	MQQM	VKKV	BZZB	spielen	fair	treu	ehrlich	retten	schön	strafen	faul	tot	eitel	rächen	schlecht	1	acq_USpleas_CSpleas2_RW	acq4567_RW	4	79	400	1	300	300	448	50	0	1	1	blank2r.bmp	0	1	+	0	1	blank2r.bmp	492	1	YDDY	492	1	blank2r.bmp	572	2	retten	866	1	!	1239	1	!	1346	0	0	0	0	0	0	0	0	0	0	0	0	0	0	0	0	0	0	0	0	0	0	0	0	0	0	0	0	0	0
070319	11:00:52	11:08:34	461317	5.0.10.0	5_exp_RW	5	Rpleas_acq	CS_B	GWWG	YDDY	JXXJ	MQQM	VKKV	BZZB	spielen	fair	treu	ehrlich	retten	schön	strafen	faul	tot	eitel	rächen	schlecht	1	acq_USpleas_CSpleas1_RW	acq4567_RW	4	80	400	0	300	300	490	50	0	1	1	blank2r.bmp	0	1	+	0	1	blank2r.bmp	492	1	GWWG	492	1	blank2r.bmp	572	3	treu	866	1	!	1239	1	!	-1	0	0	0	0	0	0	0	0	0	0	0	0	0	0	0	0	0	0	0	0	0	0	0	0	0	0	0	0	0	0
070319	11:00:52	11:08:42	469034	5.0.10.0	5_exp_RW	5	Rpleas_acq	CS_B	GWWG	YDDY	JXXJ	MQQM	VKKV	BZZB	spielen	fair	treu	ehrlich	retten	schön	strafen	faul	tot	eitel	rächen	schlecht	1	acq_USunple_CSunple1_RW	acq4567_RW	5	1	400	1	300	300	403	46	0	1	1	blank2r.bmp	0	1	+	0	1	blank2r.bmp	492	1	JXXJ	492	1	blank2r.bmp	572	3	tot	866	1	!	1239	1	!	1306	0	0	0	0	0	0	0	0	0	0	0	0	0	0	0	0	0	0	0	0	0	0	0	0	0	0	0	0	0	0
070319	11:00:52	11:08:44	471180	5.0.10.0	5_exp_RW	5	Rpleas_acq	CS_B	GWWG	YDDY	JXXJ	MQQM	VKKV	BZZB	spielen	fair	treu	ehrlich	retten	schön	strafen	faul	tot	eitel	rächen	schlecht	1	acq_USunple_CSunple2_RW	acq4567_RW	5	2	400	1	300	300	346	50	0	0	1	blank2r.bmp	0	1	+	0	1	blank2r.bmp	492	1	MQQM	492	1	blank2r.bmp	572	2	rächen	866	1	!	1239	1	!	1252	0	0	0	0	0	0	0	0	0	0	0	0	0	0	0	0	0	0	0	0	0	0	0	0	0	0	0	0	0	0
070319	11:00:52	11:08:46	473379	5.0.10.0	5_exp_RW	5	Rpleas_acq	CS_B	GWWG	YDDY	JXXJ	MQQM	VKKV	BZZB	spielen	fair	treu	ehrlich	retten	schön	strafen	faul	tot	eitel	rächen	schlecht	1	acq_USpleas_CSpleas1_RW	acq4567_RW	5	3	400	1	300	300	388	50	0	1	1	blank2r.bmp	0	1	+	0	1	blank2r.bmp	492	1	GWWG	492	1	blank2r.bmp	572	3	treu	866	1	!	1239	1	!	1292	0	0	0	0	0	0	0	0	0	0	0	0	0	0	0	0	0	0	0	0	0	0	0	0	0	0	0	0	0	0
070319	11:00:52	11:08:48	475538	5.0.10.0	5_exp_RW	5	Rpleas_acq	CS_B	GWWG	YDDY	JXXJ	MQQM	VKKV	BZZB	spielen	fair	treu	ehrlich	retten	schön	strafen	faul	tot	eitel	rächen	schlecht	1	acq_USunple_CSunple2_RW	acq4567_RW	5	4	400	1	300	300	355	46	0	1	1	blank2r.bmp	0	1	+	0	1	blank2r.bmp	492	1	MQQM	492	1	blank2r.bmp	572	3	schlecht	866	1	!	1239	1	!	1252	0	0	0	0	0	0	0	0	0	0	0	0	0	0	0	0	0	0	0	0	0	0	0	0	0	0	0	0	0	0
070319	11:00:52	11:08:50	477724	5.0.10.0	5_exp_RW	5	Rpleas_acq	CS_B	GWWG	YDDY	JXXJ	MQQM	VKKV	BZZB	spielen	fair	treu	ehrlich	retten	schön	strafen	faul	tot	eitel	rächen	schlecht	1	acq_USpleas_CSpleas2_RW	acq4567_RW	5	5	400	1	300	300	388	50	0	1	1	blank2r.bmp	0	1	+	0	1	blank2r.bmp	492	1	YDDY	492	1	blank2r.bmp	572	3	schön	866	1	!	1239	1	!	1292	0	0	0	0	0	0	0	0	0	0	0	0	0	0	0	0	0	0	0	0	0	0	0	0	0	0	0	0	0	0
070319	11:00:52	11:08:52	479883	5.0.10.0	5_exp_RW	5	Rpleas_acq	CS_B	GWWG	YDDY	JXXJ	MQQM	VKKV	BZZB	spielen	fair	treu	ehrlich	retten	schön	strafen	faul	tot	eitel	rächen	schlecht	1	acq_USunple_CSunple1_RW	acq4567_RW	5	6	400	1	300	300	359	46	0	1	1	blank2r.bmp	0	1	+	0	1	blank2r.bmp	492	1	JXXJ	492	1	blank2r.bmp	572	1	strafen	866	1	!	1239	1	!	1266	0	0	0	0	0	0	0	0	0	0	0	0	0	0	0	0	0	0	0	0	0	0	0	0	0	0	0	0	0	0
070319	11:00:52	11:08:55	482029	5.0.10.0	5_exp_RW	5	Rpleas_acq	CS_B	GWWG	YDDY	JXXJ	MQQM	VKKV	BZZB	spielen	fair	treu	ehrlich	retten	schön	strafen	faul	tot	eitel	rächen	schlecht	1	acq_USpleas_CSpleas1_RW	acq4567_RW	5	7	400	1	300	300	346	46	0	0	1	blank2r.bmp	0	1	+	0	1	blank2r.bmp	492	1	GWWG	492	1	blank2r.bmp	572	2	fair	866	1	!	1239	1	!	1252	0	0	0	0	0	0	0	0	0	0	0	0	0	0	0	0	0	0	0	0	0	0	0	0	0	0	0	0	0	0
070319	11:00:52	11:08:57	484188	5.0.10.0	5_exp_RW	5	Rpleas_acq	CS_B	GWWG	YDDY	JXXJ	MQQM	VKKV	BZZB	spielen	fair	treu	ehrlich	retten	schön	strafen	faul	tot	eitel	rächen	schlecht	1	acq_USunple_CSunple1_RW	acq4567_RW	5	8	400	1	300	300	359	46	0	1	1	blank2r.bmp	0	1	+	0	1	blank2r.bmp	492	1	JXXJ	492	1	blank2r.bmp	572	2	faul	866	1	!	1239	1	!	1266	0	0	0	0	0	0	0	0	0	0	0	0	0	0	0	0	0	0	0	0	0	0	0	0	0	0	0	0	0	0
070319	11:00:52	11:08:59	486400	5.0.10.0	5_exp_RW	5	Rpleas_acq	CS_B	GWWG	YDDY	JXXJ	MQQM	VKKV	BZZB	spielen	fair	treu	ehrlich	retten	schön	strafen	faul	tot	eitel	rächen	schlecht	1	acq_USpleas_CSpleas2_RW	acq4567_RW	5	9	400	1	300	300	419	50	0	1	1	blank2r.bmp	0	1	+	0	1	blank2r.bmp	492	1	YDDY	492	1	blank2r.bmp	572	2	retten	866	1	!	1239	1	!	1319	0	0	0	0	0	0	0	0	0	0	0	0	0	0	0	0	0	0	0	0	0	0	0	0	0	0	0	0	0	0
070319	11:00:52	11:09:01	488586	5.0.10.0	5_exp_RW	5	Rpleas_acq	CS_B	GWWG	YDDY	JXXJ	MQQM	VKKV	BZZB	spielen	fair	treu	ehrlich	retten	schön	strafen	faul	tot	eitel	rächen	schlecht	1	acq_USunple_CSunple1_RW	acq4567_RW	5	10	400	1	300	300	391	46	0	1	1	blank2r.bmp	0	1	+	0	1	blank2r.bmp	492	1	JXXJ	492	1	blank2r.bmp	572	3	tot	866	1	!	1239	1	!	1292	0	0	0	0	0	0	0	0	0	0	0	0	0	0	0	0	0	0	0	0	0	0	0	0	0	0	0	0	0	0
070319	11:00:52	11:09:03	490785	5.0.10.0	5_exp_RW	5	Rpleas_acq	CS_B	GWWG	YDDY	JXXJ	MQQM	VKKV	BZZB	spielen	fair	treu	ehrlich	retten	schön	strafen	faul	tot	eitel	rächen	schlecht	1	acq_USpleas_CSpleas1_RW	acq4567_RW	5	11	400	1	300	300	403	50	0	1	1	blank2r.bmp	0	1	+	0	1	blank2r.bmp	492	1	GWWG	492	1	blank2r.bmp	572	1	spielen	866	1	!	1239	1	!	1306	0	0	0	0	0	0	0	0	0	0	0	0	0	0	0	0	0	0	0	0	0	0	0	0	0	0	0	0	0	0
070319	11:00:52	11:09:05	492971	5.0.10.0	5_exp_RW	5	Rpleas_acq	CS_B	GWWG	YDDY	JXXJ	MQQM	VKKV	BZZB	spielen	fair	treu	ehrlich	retten	schön	strafen	faul	tot	eitel	rächen	schlecht	1	acq_USunple_CSunple1_RW	acq4567_RW	5	12	400	1	300	300	394	46	0	1	1	blank2r.bmp	0	1	+	0	1	blank2r.bmp	492	1	JXXJ	492	1	blank2r.bmp	572	2	faul	866	1	!	1239	1	!	1292	0	0	0	0	0	0	0	0	0	0	0	0	0	0	0	0	0	0	0	0	0	0	0	0	0	0	0	0	0	0
070319	11:00:52	11:09:08	495183	5.0.10.0	5_exp_RW	5	Rpleas_acq	CS_B	GWWG	YDDY	JXXJ	MQQM	VKKV	BZZB	spielen	fair	treu	ehrlich	retten	schön	strafen	faul	tot	eitel	rächen	schlecht	1	acq_USunple_CSunple2_RW	acq4567_RW	5	13	400	1	300	300	415	46	0	1	1	blank2r.bmp	0	1	+	0	1	blank2r.bmp	492	1	MQQM	492	1	blank2r.bmp	572	1	eitel	866	1	!	1239	1	!	1319	0	0	0	0	0	0	0	0	0	0	0	0	0	0	0	0	0	0	0	0	0	0	0	0	0	0	0	0	0	0
070319	11:00:52	11:09:10	497396	5.0.10.0	5_exp_RW	5	Rpleas_acq	CS_B	GWWG	YDDY	JXXJ	MQQM	VKKV	BZZB	spielen	fair	treu	ehrlich	retten	schön	strafen	faul	tot	eitel	rächen	schlecht	1	acq_USpleas_CSpleas2_RW	acq4567_RW	5	14	400	1	300	300	423	50	0	1	1	blank2r.bmp	0	1	+	0	1	blank2r.bmp	492	1	YDDY	492	1	blank2r.bmp	572	1	ehrlich	866	1	!	1239	1	!	1319	0	0	0	0	0	0	0	0	0	0	0	0	0	0	0	0	0	0	0	0	0	0	0	0	0	0	0	0	0	0
070319	11:00:52	11:09:12	499448	5.0.10.0	5_exp_RW	5	Rpleas_acq	CS_B	GWWG	YDDY	JXXJ	MQQM	VKKV	BZZB	spielen	fair	treu	ehrlich	retten	schön	strafen	faul	tot	eitel	rächen	schlecht	1	acq_USpleas_CSpleas2_RW	acq4567_RW	5	15	400	0	300	300	283	50	0	1	1	blank2r.bmp	0	1	+	0	1	blank2r.bmp	492	1	YDDY	492	1	blank2r.bmp	572	3	schön	866	1	!	-1	1	!	-1	0	0	0	0	0	0	0	0	0	0	0	0	0	0	0	0	0	0	0	0	0	0	0	0	0	0	0	0	0	0
070319	11:00:52	11:09:14	501674	5.0.10.0	5_exp_RW	5	Rpleas_acq	CS_B	GWWG	YDDY	JXXJ	MQQM	VKKV	BZZB	spielen	fair	treu	ehrlich	retten	schön	strafen	faul	tot	eitel	rächen	schlecht	1	acq_USunple_CSunple2_RW	acq4567_RW	5	16	400	1	300	300	420	46	0	1	1	blank2r.bmp	0	1	+	0	1	blank2r.bmp	492	1	MQQM	492	1	blank2r.bmp	572	1	eitel	866	1	!	1239	1	!	1319	0	0	0	0	0	0	0	0	0	0	0	0	0	0	0	0	0	0	0	0	0	0	0	0	0	0	0	0	0	0
070319	11:00:52	11:09:16	503900	5.0.10.0	5_exp_RW	5	Rpleas_acq	CS_B	GWWG	YDDY	JXXJ	MQQM	VKKV	BZZB	spielen	fair	treu	ehrlich	retten	schön	strafen	faul	tot	eitel	rächen	schlecht	1	acq_USunple_CSunple2_RW	acq4567_RW	5	17	400	1	300	300	430	46	0	1	1	blank2r.bmp	0	1	+	0	1	blank2r.bmp	492	1	MQQM	492	1	blank2r.bmp	572	2	rächen	866	1	!	1239	1	!	1332	0	0	0	0	0	0	0	0	0	0	0	0	0	0	0	0	0	0	0	0	0	0	0	0	0	0	0	0	0	0
070319	11:00:52	11:09:19	506139	5.0.10.0	5_exp_RW	5	Rpleas_acq	CS_B	GWWG	YDDY	JXXJ	MQQM	VKKV	BZZB	spielen	fair	treu	ehrlich	retten	schön	strafen	faul	tot	eitel	rächen	schlecht	1	acq_USpleas_CSpleas1_RW	acq4567_RW	5	18	400	1	300	300	445	50	0	1	1	blank2r.bmp	0	1	+	0	1	blank2r.bmp	492	1	GWWG	492	1	blank2r.bmp	572	1	spielen	866	1	!	1239	1	!	1346	0	0	0	0	0	0	0	0	0	0	0	0	0	0	0	0	0	0	0	0	0	0	0	0	0	0	0	0	0	0
070319	11:00:52	11:09:21	508391	5.0.10.0	5_exp_RW	5	Rpleas_acq	CS_B	GWWG	YDDY	JXXJ	MQQM	VKKV	BZZB	spielen	fair	treu	ehrlich	retten	schön	strafen	faul	tot	eitel	rächen	schlecht	1	acq_USpleas_CSpleas1_RW	acq4567_RW	5	19	400	1	300	300	448	50	0	1	1	blank2r.bmp	0	1	+	0	1	blank2r.bmp	492	1	GWWG	492	1	blank2r.bmp	572	3	treu	866	1	!	1239	1	!	1346	0	0	0	0	0	0	0	0	0	0	0	0	0	0	0	0	0	0	0	0	0	0	0	0	0	0	0	0	0	0
070319	11:00:52	11:09:23	510644	5.0.10.0	5_exp_RW	5	Rpleas_acq	CS_B	GWWG	YDDY	JXXJ	MQQM	VKKV	BZZB	spielen	fair	treu	ehrlich	retten	schön	strafen	faul	tot	eitel	rächen	schlecht	1	acq_USpleas_CSpleas2_RW	acq4567_RW	5	20	400	1	300	300	457	50	0	1	1	blank2r.bmp	0	1	+	0	1	blank2r.bmp	492	1	YDDY	492	1	blank2r.bmp	572	1	ehrlich	866	1	!	1239	1	!	1359	0	0	0	0	0	0	0	0	0	0	0	0	0	0	0	0	0	0	0	0	0	0	0	0	0	0	0	0	0	0
070319	11:00:52	11:09:25	512856	5.0.10.0	5_exp_RW	5	Rpleas_acq	CS_B	GWWG	YDDY	JXXJ	MQQM	VKKV	BZZB	spielen	fair	treu	ehrlich	retten	schön	strafen	faul	tot	eitel	rächen	schlecht	1	acq_USpleas_CSpleas2_RW	acq4567_RW	5	21	400	1	300	300	418	50	0	1	1	blank2r.bmp	0	1	+	0	1	blank2r.bmp	492	1	YDDY	492	1	blank2r.bmp	572	2	retten	866	1	!	1239	1	!	1319	0	0	0	0	0	0	0	0	0	0	0	0	0	0	0	0	0	0	0	0	0	0	0	0	0	0	0	0	0	0
070319	11:00:52	11:09:28	515082	5.0.10.0	5_exp_RW	5	Rpleas_acq	CS_B	GWWG	YDDY	JXXJ	MQQM	VKKV	BZZB	spielen	fair	treu	ehrlich	retten	schön	strafen	faul	tot	eitel	rächen	schlecht	1	acq_USunple_CSunple1_RW	acq4567_RW	5	22	400	1	300	300	426	46	0	1	1	blank2r.bmp	0	1	+	0	1	blank2r.bmp	492	1	JXXJ	492	1	blank2r.bmp	572	1	strafen	866	1	!	1239	1	!	1332	0	0	0	0	0	0	0	0	0	0	0	0	0	0	0	0	0	0	0	0	0	0	0	0	0	0	0	0	0	0
070319	11:00:52	11:09:30	517281	5.0.10.0	5_exp_RW	5	Rpleas_acq	CS_B	GWWG	YDDY	JXXJ	MQQM	VKKV	BZZB	spielen	fair	treu	ehrlich	retten	schön	strafen	faul	tot	eitel	rächen	schlecht	1	acq_USunple_CSunple1_RW	acq4567_RW	5	23	400	1	300	300	400	46	0	1	1	blank2r.bmp	0	1	+	0	1	blank2r.bmp	492	1	JXXJ	492	1	blank2r.bmp	572	3	tot	866	1	!	1239	1	!	1306	0	0	0	0	0	0	0	0	0	0	0	0	0	0	0	0	0	0	0	0	0	0	0	0	0	0	0	0	0	0
070319	11:00:52	11:09:32	519560	5.0.10.0	5_exp_RW	5	Rpleas_acq	CS_B	GWWG	YDDY	JXXJ	MQQM	VKKV	BZZB	spielen	fair	treu	ehrlich	retten	schön	strafen	faul	tot	eitel	rächen	schlecht	1	acq_USpleas_CSpleas2_RW	acq4567_RW	5	24	400	0	300	300	511	50	0	1	1	blank2r.bmp	0	1	+	0	1	blank2r.bmp	492	1	YDDY	492	1	blank2r.bmp	572	1	ehrlich	866	1	!	1239	1	!	-1	0	0	0	0	0	0	0	0	0	0	0	0	0	0	0	0	0	0	0	0	0	0	0	0	0	0	0	0	0	0
070319	11:00:52	11:09:34	521812	5.0.10.0	5_exp_RW	5	Rpleas_acq	CS_B	GWWG	YDDY	JXXJ	MQQM	VKKV	BZZB	spielen	fair	treu	ehrlich	retten	schön	strafen	faul	tot	eitel	rächen	schlecht	1	acq_USpleas_CSpleas1_RW	acq4567_RW	5	25	400	1	300	300	439	50	0	1	1	blank2r.bmp	0	1	+	0	1	blank2r.bmp	492	1	GWWG	492	1	blank2r.bmp	572	2	fair	866	1	!	1239	1	!	1346	0	0	0	0	0	0	0	0	0	0	0	0	0	0	0	0	0	0	0	0	0	0	0	0	0	0	0	0	0	0
070319	11:00:52	11:09:37	524025	5.0.10.0	5_exp_RW	5	Rpleas_acq	CS_B	GWWG	YDDY	JXXJ	MQQM	VKKV	BZZB	spielen	fair	treu	ehrlich	retten	schön	strafen	faul	tot	eitel	rächen	schlecht	1	acq_USunple_CSunple2_RW	acq4567_RW	5	26	400	1	300	300	425	46	0	1	1	blank2r.bmp	0	1	+	0	1	blank2r.bmp	492	1	MQQM	492	1	blank2r.bmp	572	3	schlecht	866	1	!	1239	1	!	1319	0	0	0	0	0	0	0	0	0	0	0	0	0	0	0	0	0	0	0	0	0	0	0	0	0	0	0	0	0	0
070319	11:00:52	11:09:39	526264	5.0.10.0	5_exp_RW	5	Rpleas_acq	CS_B	GWWG	YDDY	JXXJ	MQQM	VKKV	BZZB	spielen	fair	treu	ehrlich	retten	schön	strafen	faul	tot	eitel	rächen	schlecht	1	acq_USunple_CSunple2_RW	acq4567_RW	5	27	400	1	300	300	440	50	0	0	1	blank2r.bmp	0	1	+	0	1	blank2r.bmp	492	1	MQQM	492	1	blank2r.bmp	572	2	rächen	866	1	!	1239	1	!	1346	0	0	0	0	0	0	0	0	0	0	0	0	0	0	0	0	0	0	0	0	0	0	0	0	0	0	0	0	0	0
070319	11:00:52	11:09:41	528530	5.0.10.0	5_exp_RW	5	Rpleas_acq	CS_B	GWWG	YDDY	JXXJ	MQQM	VKKV	BZZB	spielen	fair	treu	ehrlich	retten	schön	strafen	faul	tot	eitel	rächen	schlecht	1	acq_USpleas_CSpleas2_RW	acq4567_RW	5	28	400	0	300	300	481	50	0	1	1	blank2r.bmp	0	1	+	0	1	blank2r.bmp	492	1	YDDY	492	1	blank2r.bmp	572	2	retten	866	1	!	1239	1	!	-1	0	0	0	0	0	0	0	0	0	0	0	0	0	0	0	0	0	0	0	0	0	0	0	0	0	0	0	0	0	0
070319	11:00:52	11:09:43	530795	5.0.10.0	5_exp_RW	5	Rpleas_acq	CS_B	GWWG	YDDY	JXXJ	MQQM	VKKV	BZZB	spielen	fair	treu	ehrlich	retten	schön	strafen	faul	tot	eitel	rächen	schlecht	1	acq_USunple_CSunple1_RW	acq4567_RW	5	29	400	1	300	300	453	46	0	1	1	blank2r.bmp	0	1	+	0	1	blank2r.bmp	492	1	JXXJ	492	1	blank2r.bmp	572	2	faul	866	1	!	1239	1	!	1359	0	0	0	0	0	0	0	0	0	0	0	0	0	0	0	0	0	0	0	0	0	0	0	0	0	0	0	0	0	0
070319	11:00:52	11:09:45	532995	5.0.10.0	5_exp_RW	5	Rpleas_acq	CS_B	GWWG	YDDY	JXXJ	MQQM	VKKV	BZZB	spielen	fair	treu	ehrlich	retten	schön	strafen	faul	tot	eitel	rächen	schlecht	1	acq_USunple_CSunple1_RW	acq4567_RW	5	30	400	1	300	300	406	46	0	1	1	blank2r.bmp	0	1	+	0	1	blank2r.bmp	492	1	JXXJ	492	1	blank2r.bmp	572	1	strafen	866	1	!	1239	1	!	1306	0	0	0	0	0	0	0	0	0	0	0	0	0	0	0	0	0	0	0	0	0	0	0	0	0	0	0	0	0	0
070319	11:00:52	11:09:48	535234	5.0.10.0	5_exp_RW	5	Rpleas_acq	CS_B	GWWG	YDDY	JXXJ	MQQM	VKKV	BZZB	spielen	fair	treu	ehrlich	retten	schön	strafen	faul	tot	eitel	rächen	schlecht	1	acq_USpleas_CSpleas2_RW	acq4567_RW	5	31	400	1	300	300	447	50	0	1	1	blank2r.bmp	0	1	+	0	1	blank2r.bmp	492	1	YDDY	492	1	blank2r.bmp	572	3	schön	866	1	!	1239	1	!	1346	0	0	0	0	0	0	0	0	0	0	0	0	0	0	0	0	0	0	0	0	0	0	0	0	0	0	0	0	0	0
070319	11:00:52	11:09:50	537459	5.0.10.0	5_exp_RW	5	Rpleas_acq	CS_B	GWWG	YDDY	JXXJ	MQQM	VKKV	BZZB	spielen	fair	treu	ehrlich	retten	schön	strafen	faul	tot	eitel	rächen	schlecht	1	acq_USpleas_CSpleas2_RW	acq4567_RW	5	32	400	1	300	300	423	50	0	1	1	blank2r.bmp	0	1	+	0	1	blank2r.bmp	492	1	YDDY	492	1	blank2r.bmp	572	2	retten	866	1	!	1239	1	!	1319	0	0	0	0	0	0	0	0	0	0	0	0	0	0	0	0	0	0	0	0	0	0	0	0	0	0	0	0	0	0
070319	11:00:52	11:09:52	539699	5.0.10.0	5_exp_RW	5	Rpleas_acq	CS_B	GWWG	YDDY	JXXJ	MQQM	VKKV	BZZB	spielen	fair	treu	ehrlich	retten	schön	strafen	faul	tot	eitel	rächen	schlecht	1	acq_USunple_CSunple2_RW	acq4567_RW	5	33	400	1	300	300	447	46	0	1	1	blank2r.bmp	0	1	+	0	1	blank2r.bmp	492	1	MQQM	492	1	blank2r.bmp	572	1	eitel	866	1	!	1239	1	!	1346	0	0	0	0	0	0	0	0	0	0	0	0	0	0	0	0	0	0	0	0	0	0	0	0	0	0	0	0	0	0
070319	11:00:52	11:09:54	541911	5.0.10.0	5_exp_RW	5	Rpleas_acq	CS_B	GWWG	YDDY	JXXJ	MQQM	VKKV	BZZB	spielen	fair	treu	ehrlich	retten	schön	strafen	faul	tot	eitel	rächen	schlecht	1	acq_USpleas_CSpleas1_RW	acq4567_RW	5	34	400	1	300	300	413	50	0	1	1	blank2r.bmp	0	1	+	0	1	blank2r.bmp	492	1	GWWG	492	1	blank2r.bmp	572	1	spielen	866	1	!	1239	1	!	1319	0	0	0	0	0	0	0	0	0	0	0	0	0	0	0	0	0	0	0	0	0	0	0	0	0	0	0	0	0	0
070319	11:00:52	11:09:57	544150	5.0.10.0	5_exp_RW	5	Rpleas_acq	CS_B	GWWG	YDDY	JXXJ	MQQM	VKKV	BZZB	spielen	fair	treu	ehrlich	retten	schön	strafen	faul	tot	eitel	rächen	schlecht	1	acq_USpleas_CSpleas1_RW	acq4567_RW	5	35	400	1	300	300	429	46	0	0	1	blank2r.bmp	0	1	+	0	1	blank2r.bmp	492	1	GWWG	492	1	blank2r.bmp	572	2	fair	866	1	!	1239	1	!	1332	0	0	0	0	0	0	0	0	0	0	0	0	0	0	0	0	0	0	0	0	0	0	0	0	0	0	0	0	0	0
070319	11:00:52	11:09:59	546389	5.0.10.0	5_exp_RW	5	Rpleas_acq	CS_B	GWWG	YDDY	JXXJ	MQQM	VKKV	BZZB	spielen	fair	treu	ehrlich	retten	schön	strafen	faul	tot	eitel	rächen	schlecht	1	acq_USunple_CSunple2_RW	acq4567_RW	5	36	400	1	300	300	451	46	0	1	1	blank2r.bmp	0	1	+	0	1	blank2r.bmp	492	1	MQQM	492	1	blank2r.bmp	572	3	schlecht	866	1	!	1239	1	!	1346	0	0	0	0	0	0	0	0	0	0	0	0	0	0	0	0	0	0	0	0	0	0	0	0	0	0	0	0	0	0
070319	11:00:52	11:10:01	548588	5.0.10.0	5_exp_RW	5	Rpleas_acq	CS_B	GWWG	YDDY	JXXJ	MQQM	VKKV	BZZB	spielen	fair	treu	ehrlich	retten	schön	strafen	faul	tot	eitel	rächen	schlecht	1	acq_USunple_CSunple1_RW	acq4567_RW	5	37	400	1	300	300	400	46	0	1	1	blank2r.bmp	0	1	+	0	1	blank2r.bmp	492	1	JXXJ	492	1	blank2r.bmp	572	3	tot	866	1	!	1239	1	!	1306	0	0	0	0	0	0	0	0	0	0	0	0	0	0	0	0	0	0	0	0	0	0	0	0	0	0	0	0	0	0
070319	11:00:52	11:10:03	550747	5.0.10.0	5_exp_RW	5	Rpleas_acq	CS_B	GWWG	YDDY	JXXJ	MQQM	VKKV	BZZB	spielen	fair	treu	ehrlich	retten	schön	strafen	faul	tot	eitel	rächen	schlecht	1	acq_USpleas_CSpleas1_RW	acq4567_RW	5	38	400	1	300	300	346	50	0	1	1	blank2r.bmp	0	1	+	0	1	blank2r.bmp	492	1	GWWG	492	1	blank2r.bmp	572	3	treu	866	1	!	1239	1	!	1252	0	0	0	0	0	0	0	0	0	0	0	0	0	0	0	0	0	0	0	0	0	0	0	0	0	0	0	0	0	0
070319	11:00:52	11:10:05	552960	5.0.10.0	5_exp_RW	5	Rpleas_acq	CS_B	GWWG	YDDY	JXXJ	MQQM	VKKV	BZZB	spielen	fair	treu	ehrlich	retten	schön	strafen	faul	tot	eitel	rächen	schlecht	1	acq_USunple_CSunple2_RW	acq4567_RW	5	39	400	1	300	300	425	46	0	1	1	blank2r.bmp	0	1	+	0	1	blank2r.bmp	492	1	MQQM	492	1	blank2r.bmp	572	2	rächen	866	1	!	1239	1	!	1319	0	0	0	0	0	0	0	0	0	0	0	0	0	0	0	0	0	0	0	0	0	0	0	0	0	0	0	0	0	0
070319	11:00:52	11:10:08	555026	5.0.10.0	5_exp_RW	5	Rpleas_acq	CS_B	GWWG	YDDY	JXXJ	MQQM	VKKV	BZZB	spielen	fair	treu	ehrlich	retten	schön	strafen	faul	tot	eitel	rächen	schlecht	1	acq_USpleas_CSpleas1_RW	acq4567_RW	5	40	400	0	300	300	301	50	0	1	1	blank2r.bmp	0	1	+	0	1	blank2r.bmp	492	1	GWWG	492	1	blank2r.bmp	572	1	spielen	866	1	!	-1	1	!	-1	0	0	0	0	0	0	0	0	0	0	0	0	0	0	0	0	0	0	0	0	0	0	0	0	0	0	0	0	0	0
070319	11:00:52	11:10:10	557265	5.0.10.0	5_exp_RW	5	Rpleas_acq	CS_B	GWWG	YDDY	JXXJ	MQQM	VKKV	BZZB	spielen	fair	treu	ehrlich	retten	schön	strafen	faul	tot	eitel	rächen	schlecht	1	acq_USpleas_CSpleas2_RW	acq4567_RW	5	41	400	1	300	300	425	50	0	1	1	blank2r.bmp	0	1	+	0	1	blank2r.bmp	492	1	YDDY	492	1	blank2r.bmp	572	3	schön	866	1	!	1239	1	!	1332	0	0	0	0	0	0	0	0	0	0	0	0	0	0	0	0	0	0	0	0	0	0	0	0	0	0	0	0	0	0
070319	11:00:52	11:10:12	559437	5.0.10.0	5_exp_RW	5	Rpleas_acq	CS_B	GWWG	YDDY	JXXJ	MQQM	VKKV	BZZB	spielen	fair	treu	ehrlich	retten	schön	strafen	faul	tot	eitel	rächen	schlecht	1	acq_USunple_CSunple2_RW	acq4567_RW	5	42	400	1	300	300	382	46	0	1	1	blank2r.bmp	0	1	+	0	1	blank2r.bmp	492	1	MQQM	492	1	blank2r.bmp	572	3	schlecht	866	1	!	1239	1	!	1279	0	0	0	0	0	0	0	0	0	0	0	0	0	0	0	0	0	0	0	0	0	0	0	0	0	0	0	0	0	0
070319	11:00:52	11:10:14	561676	5.0.10.0	5_exp_RW	5	Rpleas_acq	CS_B	GWWG	YDDY	JXXJ	MQQM	VKKV	BZZB	spielen	fair	treu	ehrlich	retten	schön	strafen	faul	tot	eitel	rächen	schlecht	1	acq_USpleas_CSpleas2_RW	acq4567_RW	5	43	400	1	300	300	440	50	0	1	1	blank2r.bmp	0	1	+	0	1	blank2r.bmp	492	1	YDDY	492	1	blank2r.bmp	572	1	ehrlich	866	1	!	1239	1	!	1346	0	0	0	0	0	0	0	0	0	0	0	0	0	0	0	0	0	0	0	0	0	0	0	0	0	0	0	0	0	0
070319	11:00:52	11:10:16	563942	5.0.10.0	5_exp_RW	5	Rpleas_acq	CS_B	GWWG	YDDY	JXXJ	MQQM	VKKV	BZZB	spielen	fair	treu	ehrlich	retten	schön	strafen	faul	tot	eitel	rächen	schlecht	1	acq_USunple_CSunple2_RW	acq4567_RW	5	44	400	0	300	300	479	46	0	1	1	blank2r.bmp	0	1	+	0	1	blank2r.bmp	492	1	MQQM	492	1	blank2r.bmp	572	1	eitel	866	1	!	1239	1	!	-1	0	0	0	0	0	0	0	0	0	0	0	0	0	0	0	0	0	0	0	0	0	0	0	0	0	0	0	0	0	0
070319	11:00:52	11:10:19	566181	5.0.10.0	5_exp_RW	5	Rpleas_acq	CS_B	GWWG	YDDY	JXXJ	MQQM	VKKV	BZZB	spielen	fair	treu	ehrlich	retten	schön	strafen	faul	tot	eitel	rächen	schlecht	1	acq_USpleas_CSpleas1_RW	acq4567_RW	5	45	400	1	300	300	437	50	0	1	1	blank2r.bmp	0	1	+	0	1	blank2r.bmp	492	1	GWWG	492	1	blank2r.bmp	572	3	treu	866	1	!	1239	1	!	1332	0	0	0	0	0	0	0	0	0	0	0	0	0	0	0	0	0	0	0	0	0	0	0	0	0	0	0	0	0	0
070319	11:00:52	11:10:21	568407	5.0.10.0	5_exp_RW	5	Rpleas_acq	CS_B	GWWG	YDDY	JXXJ	MQQM	VKKV	BZZB	spielen	fair	treu	ehrlich	retten	schön	strafen	faul	tot	eitel	rächen	schlecht	1	acq_USunple_CSunple1_RW	acq4567_RW	5	46	400	1	300	300	434	46	0	1	1	blank2r.bmp	0	1	+	0	1	blank2r.bmp	492	1	JXXJ	492	1	blank2r.bmp	572	2	faul	866	1	!	1239	1	!	1332	0	0	0	0	0	0	0	0	0	0	0	0	0	0	0	0	0	0	0	0	0	0	0	0	0	0	0	0	0	0
070319	11:00:52	11:10:23	570553	5.0.10.0	5_exp_RW	5	Rpleas_acq	CS_B	GWWG	YDDY	JXXJ	MQQM	VKKV	BZZB	spielen	fair	treu	ehrlich	retten	schön	strafen	faul	tot	eitel	rächen	schlecht	1	acq_USpleas_CSpleas1_RW	acq4567_RW	5	47	400	1	300	300	354	50	0	1	1	blank2r.bmp	0	1	+	0	1	blank2r.bmp	492	1	GWWG	492	1	blank2r.bmp	572	2	fair	866	1	!	1239	1	!	1252	0	0	0	0	0	0	0	0	0	0	0	0	0	0	0	0	0	0	0	0	0	0	0	0	0	0	0	0	0	0
070319	11:00:52	11:10:25	572725	5.0.10.0	5_exp_RW	5	Rpleas_acq	CS_B	GWWG	YDDY	JXXJ	MQQM	VKKV	BZZB	spielen	fair	treu	ehrlich	retten	schön	strafen	faul	tot	eitel	rächen	schlecht	1	acq_USunple_CSunple2_RW	acq4567_RW	5	48	400	1	300	300	370	46	0	1	1	blank2r.bmp	0	1	+	0	1	blank2r.bmp	492	1	MQQM	492	1	blank2r.bmp	572	3	schlecht	866	1	!	1239	1	!	1266	0	0	0	0	0	0	0	0	0	0	0	0	0	0	0	0	0	0	0	0	0	0	0	0	0	0	0	0	0	0
070319	11:00:52	11:10:27	574871	5.0.10.0	5_exp_RW	5	Rpleas_acq	CS_B	GWWG	YDDY	JXXJ	MQQM	VKKV	BZZB	spielen	fair	treu	ehrlich	retten	schön	strafen	faul	tot	eitel	rächen	schlecht	1	acq_USpleas_CSpleas2_RW	acq4567_RW	5	49	400	1	300	300	357	50	0	1	1	blank2r.bmp	0	1	+	0	1	blank2r.bmp	492	1	YDDY	492	1	blank2r.bmp	572	2	retten	866	1	!	1239	1	!	1252	0	0	0	0	0	0	0	0	0	0	0	0	0	0	0	0	0	0	0	0	0	0	0	0	0	0	0	0	0	0
070319	11:00:52	11:10:30	577083	5.0.10.0	5_exp_RW	5	Rpleas_acq	CS_B	GWWG	YDDY	JXXJ	MQQM	VKKV	BZZB	spielen	fair	treu	ehrlich	retten	schön	strafen	faul	tot	eitel	rächen	schlecht	1	acq_USpleas_CSpleas1_RW	acq4567_RW	5	50	400	1	300	300	412	50	0	1	1	blank2r.bmp	0	1	+	0	1	blank2r.bmp	492	1	GWWG	492	1	blank2r.bmp	572	1	spielen	866	1	!	1239	1	!	1319	0	0	0	0	0	0	0	0	0	0	0	0	0	0	0	0	0	0	0	0	0	0	0	0	0	0	0	0	0	0
070319	11:00:52	11:10:32	579269	5.0.10.0	5_exp_RW	5	Rpleas_acq	CS_B	GWWG	YDDY	JXXJ	MQQM	VKKV	BZZB	spielen	fair	treu	ehrlich	retten	schön	strafen	faul	tot	eitel	rächen	schlecht	1	acq_USunple_CSunple1_RW	acq4567_RW	5	51	400	1	300	300	388	46	0	1	1	blank2r.bmp	0	1	+	0	1	blank2r.bmp	492	1	JXXJ	492	1	blank2r.bmp	572	1	strafen	866	1	!	1239	1	!	1292	0	0	0	0	0	0	0	0	0	0	0	0	0	0	0	0	0	0	0	0	0	0	0	0	0	0	0	0	0	0
070319	11:00:52	11:10:34	581495	5.0.10.0	5_exp_RW	5	Rpleas_acq	CS_B	GWWG	YDDY	JXXJ	MQQM	VKKV	BZZB	spielen	fair	treu	ehrlich	retten	schön	strafen	faul	tot	eitel	rächen	schlecht	1	acq_USpleas_CSpleas1_RW	acq4567_RW	5	52	400	1	300	300	437	50	0	1	1	blank2r.bmp	0	1	+	0	1	blank2r.bmp	492	1	GWWG	492	1	blank2r.bmp	572	2	fair	866	1	!	1239	1	!	1332	0	0	0	0	0	0	0	0	0	0	0	0	0	0	0	0	0	0	0	0	0	0	0	0	0	0	0	0	0	0
070319	11:00:52	11:10:36	583641	5.0.10.0	5_exp_RW	5	Rpleas_acq	CS_B	GWWG	YDDY	JXXJ	MQQM	VKKV	BZZB	spielen	fair	treu	ehrlich	retten	schön	strafen	faul	tot	eitel	rächen	schlecht	1	acq_USpleas_CSpleas1_RW	acq4567_RW	5	53	400	1	300	300	355	50	0	1	1	blank2r.bmp	0	1	+	0	1	blank2r.bmp	492	1	GWWG	492	1	blank2r.bmp	572	3	treu	866	1	!	1239	1	!	1252	0	0	0	0	0	0	0	0	0	0	0	0	0	0	0	0	0	0	0	0	0	0	0	0	0	0	0	0	0	0
070319	11:00:52	11:10:38	585853	5.0.10.0	5_exp_RW	5	Rpleas_acq	CS_B	GWWG	YDDY	JXXJ	MQQM	VKKV	BZZB	spielen	fair	treu	ehrlich	retten	schön	strafen	faul	tot	eitel	rächen	schlecht	1	acq_USpleas_CSpleas2_RW	acq4567_RW	5	54	400	1	300	300	403	50	0	1	1	blank2r.bmp	0	1	+	0	1	blank2r.bmp	492	1	YDDY	492	1	blank2r.bmp	572	1	ehrlich	866	1	!	1239	1	!	1306	0	0	0	0	0	0	0	0	0	0	0	0	0	0	0	0	0	0	0	0	0	0	0	0	0	0	0	0	0	0
070319	11:00:52	11:10:40	587945	5.0.10.0	5_exp_RW	5	Rpleas_acq	CS_B	GWWG	YDDY	JXXJ	MQQM	VKKV	BZZB	spielen	fair	treu	ehrlich	retten	schön	strafen	faul	tot	eitel	rächen	schlecht	1	acq_USunple_CSunple2_RW	acq4567_RW	5	55	400	0	300	300	329	50	0	0	1	blank2r.bmp	0	1	+	0	1	blank2r.bmp	492	1	MQQM	492	1	blank2r.bmp	572	1	eitel	866	1	!	-1	1	!	-1	0	0	0	0	0	0	0	0	0	0	0	0	0	0	0	0	0	0	0	0	0	0	0	0	0	0	0	0	0	0
070319	11:00:52	11:10:43	590171	5.0.10.0	5_exp_RW	5	Rpleas_acq	CS_B	GWWG	YDDY	JXXJ	MQQM	VKKV	BZZB	spielen	fair	treu	ehrlich	retten	schön	strafen	faul	tot	eitel	rächen	schlecht	1	acq_USunple_CSunple1_RW	acq4567_RW	5	56	400	1	300	300	412	46	0	1	1	blank2r.bmp	0	1	+	0	1	blank2r.bmp	492	1	JXXJ	492	1	blank2r.bmp	572	3	tot	866	1	!	1239	1	!	1319	0	0	0	0	0	0	0	0	0	0	0	0	0	0	0	0	0	0	0	0	0	0	0	0	0	0	0	0	0	0
070319	11:00:52	11:10:45	592330	5.0.10.0	5_exp_RW	5	Rpleas_acq	CS_B	GWWG	YDDY	JXXJ	MQQM	VKKV	BZZB	spielen	fair	treu	ehrlich	retten	schön	strafen	faul	tot	eitel	rächen	schlecht	1	acq_USunple_CSunple1_RW	acq4567_RW	5	57	400	1	300	300	367	46	0	1	1	blank2r.bmp	0	1	+	0	1	blank2r.bmp	492	1	JXXJ	492	1	blank2r.bmp	572	1	strafen	866	1	!	1239	1	!	1266	0	0	0	0	0	0	0	0	0	0	0	0	0	0	0	0	0	0	0	0	0	0	0	0	0	0	0	0	0	0
070319	11:00:52	11:10:47	594503	5.0.10.0	5_exp_RW	5	Rpleas_acq	CS_B	GWWG	YDDY	JXXJ	MQQM	VKKV	BZZB	spielen	fair	treu	ehrlich	retten	schön	strafen	faul	tot	eitel	rächen	schlecht	1	acq_USunple_CSunple2_RW	acq4567_RW	5	58	400	1	300	300	366	50	0	0	1	blank2r.bmp	0	1	+	0	1	blank2r.bmp	492	1	MQQM	492	1	blank2r.bmp	572	2	rächen	866	1	!	1239	1	!	1266	0	0	0	0	0	0	0	0	0	0	0	0	0	0	0	0	0	0	0	0	0	0	0	0	0	0	0	0	0	0
070319	11:00:52	11:10:49	596729	5.0.10.0	5_exp_RW	5	Rpleas_acq	CS_B	GWWG	YDDY	JXXJ	MQQM	VKKV	BZZB	spielen	fair	treu	ehrlich	retten	schön	strafen	faul	tot	eitel	rächen	schlecht	1	acq_USunple_CSunple1_RW	acq4567_RW	5	59	400	1	300	300	433	46	0	1	1	blank2r.bmp	0	1	+	0	1	blank2r.bmp	492	1	JXXJ	492	1	blank2r.bmp	572	2	faul	866	1	!	1239	1	!	1332	0	0	0	0	0	0	0	0	0	0	0	0	0	0	0	0	0	0	0	0	0	0	0	0	0	0	0	0	0	0
070319	11:00:52	11:10:51	598981	5.0.10.0	5_exp_RW	5	Rpleas_acq	CS_B	GWWG	YDDY	JXXJ	MQQM	VKKV	BZZB	spielen	fair	treu	ehrlich	retten	schön	strafen	faul	tot	eitel	rächen	schlecht	1	acq_USpleas_CSpleas2_RW	acq4567_RW	5	60	400	1	300	300	445	50	0	1	1	blank2r.bmp	0	1	+	0	1	blank2r.bmp	492	1	YDDY	492	1	blank2r.bmp	572	3	schön	866	1	!	1239	1	!	1346	0	0	0	0	0	0	0	0	0	0	0	0	0	0	0	0	0	0	0	0	0	0	0	0	0	0	0	0	0	0
070319	11:00:52	11:10:54	601220	5.0.10.0	5_exp_RW	5	Rpleas_acq	CS_B	GWWG	YDDY	JXXJ	MQQM	VKKV	BZZB	spielen	fair	treu	ehrlich	retten	schön	strafen	faul	tot	eitel	rächen	schlecht	1	acq_USpleas_CSpleas2_RW	acq4567_RW	5	61	400	1	300	300	450	50	0	1	1	blank2r.bmp	0	1	+	0	1	blank2r.bmp	492	1	YDDY	492	1	blank2r.bmp	572	1	ehrlich	866	1	!	1239	1	!	1346	0	0	0	0	0	0	0	0	0	0	0	0	0	0	0	0	0	0	0	0	0	0	0	0	0	0	0	0	0	0
070319	11:00:52	11:10:56	603432	5.0.10.0	5_exp_RW	5	Rpleas_acq	CS_B	GWWG	YDDY	JXXJ	MQQM	VKKV	BZZB	spielen	fair	treu	ehrlich	retten	schön	strafen	faul	tot	eitel	rächen	schlecht	1	acq_USunple_CSunple2_RW	acq4567_RW	5	62	400	1	300	300	412	46	0	1	1	blank2r.bmp	0	1	+	0	1	blank2r.bmp	492	1	MQQM	492	1	blank2r.bmp	572	3	schlecht	866	1	!	1239	1	!	1306	0	0	0	0	0	0	0	0	0	0	0	0	0	0	0	0	0	0	0	0	0	0	0	0	0	0	0	0	0	0
070319	11:00:52	11:10:58	605632	5.0.10.0	5_exp_RW	5	Rpleas_acq	CS_B	GWWG	YDDY	JXXJ	MQQM	VKKV	BZZB	spielen	fair	treu	ehrlich	retten	schön	strafen	faul	tot	eitel	rächen	schlecht	1	acq_USunple_CSunple2_RW	acq4567_RW	5	63	400	1	300	300	400	46	0	1	1	blank2r.bmp	0	1	+	0	1	blank2r.bmp	492	1	MQQM	492	1	blank2r.bmp	572	2	rächen	866	1	!	1239	1	!	1306	0	0	0	0	0	0	0	0	0	0	0	0	0	0	0	0	0	0	0	0	0	0	0	0	0	0	0	0	0	0
070319	11:00:52	11:11:00	607804	5.0.10.0	5_exp_RW	5	Rpleas_acq	CS_B	GWWG	YDDY	JXXJ	MQQM	VKKV	BZZB	spielen	fair	treu	ehrlich	retten	schön	strafen	faul	tot	eitel	rächen	schlecht	1	acq_USpleas_CSpleas1_RW	acq4567_RW	5	64	400	1	300	300	385	50	0	1	1	blank2r.bmp	0	1	+	0	1	blank2r.bmp	492	1	GWWG	492	1	blank2r.bmp	572	2	fair	866	1	!	1239	1	!	1279	0	0	0	0	0	0	0	0	0	0	0	0	0	0	0	0	0	0	0	0	0	0	0	0	0	0	0	0	0	0
070319	11:00:52	11:11:03	610043	5.0.10.0	5_exp_RW	5	Rpleas_acq	CS_B	GWWG	YDDY	JXXJ	MQQM	VKKV	BZZB	spielen	fair	treu	ehrlich	retten	schön	strafen	faul	tot	eitel	rächen	schlecht	1	acq_USpleas_CSpleas2_RW	acq4567_RW	5	65	400	1	300	300	425	50	0	1	1	blank2r.bmp	0	1	+	0	1	blank2r.bmp	492	1	YDDY	492	1	blank2r.bmp	572	3	schön	866	1	!	1239	1	!	1332	0	0	0	0	0	0	0	0	0	0	0	0	0	0	0	0	0	0	0	0	0	0	0	0	0	0	0	0	0	0
070319	11:00:52	11:11:05	612136	5.0.10.0	5_exp_RW	5	Rpleas_acq	CS_B	GWWG	YDDY	JXXJ	MQQM	VKKV	BZZB	spielen	fair	treu	ehrlich	retten	schön	strafen	faul	tot	eitel	rächen	schlecht	1	acq_USunple_CSunple1_RW	acq4567_RW	5	66	400	0	300	300	322	46	0	1	1	blank2r.bmp	0	1	+	0	1	blank2r.bmp	492	1	JXXJ	492	1	blank2r.bmp	572	3	tot	866	1	!	-1	1	!	-1	0	0	0	0	0	0	0	0	0	0	0	0	0	0	0	0	0	0	0	0	0	0	0	0	0	0	0	0	0	0
070319	11:00:52	11:11:07	614348	5.0.10.0	5_exp_RW	5	Rpleas_acq	CS_B	GWWG	YDDY	JXXJ	MQQM	VKKV	BZZB	spielen	fair	treu	ehrlich	retten	schön	strafen	faul	tot	eitel	rächen	schlecht	1	acq_USunple_CSunple2_RW	acq4567_RW	5	67	400	1	300	300	410	46	0	1	1	blank2r.bmp	0	1	+	0	1	blank2r.bmp	492	1	MQQM	492	1	blank2r.bmp	572	1	eitel	866	1	!	1239	1	!	1306	0	0	0	0	0	0	0	0	0	0	0	0	0	0	0	0	0	0	0	0	0	0	0	0	0	0	0	0	0	0
070319	11:00:52	11:11:09	616574	5.0.10.0	5_exp_RW	5	Rpleas_acq	CS_B	GWWG	YDDY	JXXJ	MQQM	VKKV	BZZB	spielen	fair	treu	ehrlich	retten	schön	strafen	faul	tot	eitel	rächen	schlecht	1	acq_USpleas_CSpleas2_RW	acq4567_RW	5	68	400	1	300	300	435	50	0	1	1	blank2r.bmp	0	1	+	0	1	blank2r.bmp	492	1	YDDY	492	1	blank2r.bmp	572	2	retten	866	1	!	1239	1	!	1332	0	0	0	0	0	0	0	0	0	0	0	0	0	0	0	0	0	0	0	0	0	0	0	0	0	0	0	0	0	0
070319	11:00:52	11:11:11	618720	5.0.10.0	5_exp_RW	5	Rpleas_acq	CS_B	GWWG	YDDY	JXXJ	MQQM	VKKV	BZZB	spielen	fair	treu	ehrlich	retten	schön	strafen	faul	tot	eitel	rächen	schlecht	1	acq_USunple_CSunple1_RW	acq4567_RW	5	69	400	1	300	300	358	46	0	1	1	blank2r.bmp	0	1	+	0	1	blank2r.bmp	492	1	JXXJ	492	1	blank2r.bmp	572	2	faul	866	1	!	1239	1	!	1252	0	0	0	0	0	0	0	0	0	0	0	0	0	0	0	0	0	0	0	0	0	0	0	0	0	0	0	0	0	0
070319	11:00:52	11:11:13	620932	5.0.10.0	5_exp_RW	5	Rpleas_acq	CS_B	GWWG	YDDY	JXXJ	MQQM	VKKV	BZZB	spielen	fair	treu	ehrlich	retten	schön	strafen	faul	tot	eitel	rächen	schlecht	1	acq_USunple_CSunple1_RW	acq4567_RW	5	70	400	1	300	300	419	46	0	1	1	blank2r.bmp	0	1	+	0	1	blank2r.bmp	492	1	JXXJ	492	1	blank2r.bmp	572	1	strafen	866	1	!	1239	1	!	1319	0	0	0	0	0	0	0	0	0	0	0	0	0	0	0	0	0	0	0	0	0	0	0	0	0	0	0	0	0	0
070319	11:00:52	11:11:16	623104	5.0.10.0	5_exp_RW	5	Rpleas_acq	CS_B	GWWG	YDDY	JXXJ	MQQM	VKKV	BZZB	spielen	fair	treu	ehrlich	retten	schön	strafen	faul	tot	eitel	rächen	schlecht	1	acq_USpleas_CSpleas1_RW	acq4567_RW	5	71	400	1	300	300	383	50	0	1	1	blank2r.bmp	0	1	+	0	1	blank2r.bmp	492	1	GWWG	492	1	blank2r.bmp	572	1	spielen	866	1	!	1239	1	!	1279	0	0	0	0	0	0	0	0	0	0	0	0	0	0	0	0	0	0	0	0	0	0	0	0	0	0	0	0	0	0
070319	11:00:52	11:11:18	625184	5.0.10.0	5_exp_RW	5	Rpleas_acq	CS_B	GWWG	YDDY	JXXJ	MQQM	VKKV	BZZB	spielen	fair	treu	ehrlich	retten	schön	strafen	faul	tot	eitel	rächen	schlecht	1	acq_USunple_CSunple1_RW	acq4567_RW	5	72	400	0	300	300	312	46	0	1	1	blank2r.bmp	0	1	+	0	1	blank2r.bmp	492	1	JXXJ	492	1	blank2r.bmp	572	1	strafen	866	1	!	-1	1	!	-1	0	0	0	0	0	0	0	0	0	0	0	0	0	0	0	0	0	0	0	0	0	0	0	0	0	0	0	0	0	0
070319	11:00:52	11:11:20	627463	5.0.10.0	5_exp_RW	5	Rpleas_acq	CS_B	GWWG	YDDY	JXXJ	MQQM	VKKV	BZZB	spielen	fair	treu	ehrlich	retten	schön	strafen	faul	tot	eitel	rächen	schlecht	1	acq_USpleas_CSpleas1_RW	acq4567_RW	5	73	400	0	300	300	502	50	0	1	1	blank2r.bmp	0	1	+	0	1	blank2r.bmp	492	1	GWWG	492	1	blank2r.bmp	572	3	treu	866	1	!	1239	1	!	-1	0	0	0	0	0	0	0	0	0	0	0	0	0	0	0	0	0	0	0	0	0	0	0	0	0	0	0	0	0	0
070319	11:00:52	11:11:22	629728	5.0.10.0	5_exp_RW	5	Rpleas_acq	CS_B	GWWG	YDDY	JXXJ	MQQM	VKKV	BZZB	spielen	fair	treu	ehrlich	retten	schön	strafen	faul	tot	eitel	rächen	schlecht	1	acq_USunple_CSunple2_RW	acq4567_RW	5	74	400	1	300	300	443	46	0	1	1	blank2r.bmp	0	1	+	0	1	blank2r.bmp	492	1	MQQM	492	1	blank2r.bmp	572	2	rächen	866	1	!	1239	1	!	1346	0	0	0	0	0	0	0	0	0	0	0	0	0	0	0	0	0	0	0	0	0	0	0	0	0	0	0	0	0	0
070319	11:00:52	11:11:24	631941	5.0.10.0	5_exp_RW	5	Rpleas_acq	CS_B	GWWG	YDDY	JXXJ	MQQM	VKKV	BZZB	spielen	fair	treu	ehrlich	retten	schön	strafen	faul	tot	eitel	rächen	schlecht	1	acq_USunple_CSunple2_RW	acq4567_RW	5	75	400	1	300	300	422	46	0	1	1	blank2r.bmp	0	1	+	0	1	blank2r.bmp	492	1	MQQM	492	1	blank2r.bmp	572	3	schlecht	866	1	!	1239	1	!	1319	0	0	0	0	0	0	0	0	0	0	0	0	0	0	0	0	0	0	0	0	0	0	0	0	0	0	0	0	0	0
070319	11:00:52	11:11:27	634140	5.0.10.0	5_exp_RW	5	Rpleas_acq	CS_B	GWWG	YDDY	JXXJ	MQQM	VKKV	BZZB	spielen	fair	treu	ehrlich	retten	schön	strafen	faul	tot	eitel	rächen	schlecht	1	acq_USpleas_CSpleas2_RW	acq4567_RW	5	76	400	1	300	300	407	50	0	1	1	blank2r.bmp	0	1	+	0	1	blank2r.bmp	492	1	YDDY	492	1	blank2r.bmp	572	3	schön	866	1	!	1239	1	!	1306	0	0	0	0	0	0	0	0	0	0	0	0	0	0	0	0	0	0	0	0	0	0	0	0	0	0	0	0	0	0
070319	11:00:52	11:11:29	636512	5.0.10.0	5_exp_RW	5	Rpleas_acq	CS_B	GWWG	YDDY	JXXJ	MQQM	VKKV	BZZB	spielen	fair	treu	ehrlich	retten	schön	strafen	faul	tot	eitel	rächen	schlecht	1	acq_USpleas_CSpleas2_RW	acq4567_RW	5	77	400	0	300	300	607	50	0	1	1	blank2r.bmp	0	1	+	0	1	blank2r.bmp	492	1	YDDY	492	1	blank2r.bmp	572	1	ehrlich	866	1	!	1239	1	!	-1	0	0	0	0	0	0	0	0	0	0	0	0	0	0	0	0	0	0	0	0	0	0	0	0	0	0	0	0	0	0
070319	11:00:52	11:11:31	638671	5.0.10.0	5_exp_RW	5	Rpleas_acq	CS_B	GWWG	YDDY	JXXJ	MQQM	VKKV	BZZB	spielen	fair	treu	ehrlich	retten	schön	strafen	faul	tot	eitel	rächen	schlecht	1	acq_USunple_CSunple1_RW	acq4567_RW	5	78	400	1	300	300	347	46	0	1	1	blank2r.bmp	0	1	+	0	1	blank2r.bmp	492	1	JXXJ	492	1	blank2r.bmp	572	3	tot	866	1	!	1239	1	!	1252	0	0	0	0	0	0	0	0	0	0	0	0	0	0	0	0	0	0	0	0	0	0	0	0	0	0	0	0	0	0
070319	11:00:52	11:11:33	640751	5.0.10.0	5_exp_RW	5	Rpleas_acq	CS_B	GWWG	YDDY	JXXJ	MQQM	VKKV	BZZB	spielen	fair	treu	ehrlich	retten	schön	strafen	faul	tot	eitel	rächen	schlecht	1	acq_USpleas_CSpleas1_RW	acq4567_RW	5	79	400	0	300	300	309	50	0	1	1	blank2r.bmp	0	1	+	0	1	blank2r.bmp	492	1	GWWG	492	1	blank2r.bmp	572	1	spielen	866	1	!	-1	1	!	-1	0	0	0	0	0	0	0	0	0	0	0	0	0	0	0	0	0	0	0	0	0	0	0	0	0	0	0	0	0	0
070319	11:00:52	11:11:36	643056	5.0.10.0	5_exp_RW	5	Rpleas_acq	CS_B	GWWG	YDDY	JXXJ	MQQM	VKKV	BZZB	spielen	fair	treu	ehrlich	retten	schön	strafen	faul	tot	eitel	rächen	schlecht	1	acq_USpleas_CSpleas1_RW	acq4567_RW	5	80	400	0	300	300	523	50	0	1	1	blank2r.bmp	0	1	+	0	1	blank2r.bmp	492	1	GWWG	492	1	blank2r.bmp	572	2	fair	866	1	!	1239	1	!	-1	0	0	0	0	0	0	0	0	0	0	0	0	0	0	0	0	0	0	0	0	0	0	0	0	0	0	0	0	0	0
070319	11:00:52	11:11:42	649587	5.0.10.0	5_exp_RW	5	Rpleas_acq	CS_B	GWWG	YDDY	JXXJ	MQQM	VKKV	BZZB	spielen	fair	treu	ehrlich	retten	schön	strafen	faul	tot	eitel	rächen	schlecht	1	acq_USunple_CSunple2_RW	acq4567_RW	6	1	400	1	300	300	403	50	0	0	1	blank2r.bmp	0	1	+	0	1	blank2r.bmp	492	1	MQQM	492	1	blank2r.bmp	572	1	eitel	866	1	!	1239	1	!	1306	0	0	0	0	0	0	0	0	0	0	0	0	0	0	0	0	0	0	0	0	0	0	0	0	0	0	0	0	0	0
070319	11:00:52	11:11:44	651786	5.0.10.0	5_exp_RW	5	Rpleas_acq	CS_B	GWWG	YDDY	JXXJ	MQQM	VKKV	BZZB	spielen	fair	treu	ehrlich	retten	schön	strafen	faul	tot	eitel	rächen	schlecht	1	acq_USpleas_CSpleas1_RW	acq4567_RW	6	2	400	1	300	300	410	50	0	1	1	blank2r.bmp	0	1	+	0	1	blank2r.bmp	492	1	GWWG	492	1	blank2r.bmp	572	3	treu	866	1	!	1239	1	!	1306	0	0	0	0	0	0	0	0	0	0	0	0	0	0	0	0	0	0	0	0	0	0	0	0	0	0	0	0	0	0
070319	11:00:52	11:11:47	654052	5.0.10.0	5_exp_RW	5	Rpleas_acq	CS_B	GWWG	YDDY	JXXJ	MQQM	VKKV	BZZB	spielen	fair	treu	ehrlich	retten	schön	strafen	faul	tot	eitel	rächen	schlecht	1	acq_USpleas_CSpleas2_RW	acq4567_RW	6	3	400	0	300	300	493	50	0	1	1	blank2r.bmp	0	1	+	0	1	blank2r.bmp	492	1	YDDY	492	1	blank2r.bmp	572	2	retten	866	1	!	1239	1	!	-1	0	0	0	0	0	0	0	0	0	0	0	0	0	0	0	0	0	0	0	0	0	0	0	0	0	0	0	0	0	0
070319	11:00:52	11:11:49	656224	5.0.10.0	5_exp_RW	5	Rpleas_acq	CS_B	GWWG	YDDY	JXXJ	MQQM	VKKV	BZZB	spielen	fair	treu	ehrlich	retten	schön	strafen	faul	tot	eitel	rächen	schlecht	1	acq_USpleas_CSpleas2_RW	acq4567_RW	6	4	400	1	300	300	364	50	0	1	1	blank2r.bmp	0	1	+	0	1	blank2r.bmp	492	1	YDDY	492	1	blank2r.bmp	572	2	retten	866	1	!	1239	1	!	1266	0	0	0	0	0	0	0	0	0	0	0	0	0	0	0	0	0	0	0	0	0	0	0	0	0	0	0	0	0	0
070319	11:00:52	11:11:51	658370	5.0.10.0	5_exp_RW	5	Rpleas_acq	CS_B	GWWG	YDDY	JXXJ	MQQM	VKKV	BZZB	spielen	fair	treu	ehrlich	retten	schön	strafen	faul	tot	eitel	rächen	schlecht	1	acq_USunple_CSunple2_RW	acq4567_RW	6	5	400	1	300	300	358	46	0	1	1	blank2r.bmp	0	1	+	0	1	blank2r.bmp	492	1	MQQM	492	1	blank2r.bmp	572	2	rächen	866	1	!	1239	1	!	1252	0	0	0	0	0	0	0	0	0	0	0	0	0	0	0	0	0	0	0	0	0	0	0	0	0	0	0	0	0	0
070319	11:00:52	11:11:53	660622	5.0.10.0	5_exp_RW	5	Rpleas_acq	CS_B	GWWG	YDDY	JXXJ	MQQM	VKKV	BZZB	spielen	fair	treu	ehrlich	retten	schön	strafen	faul	tot	eitel	rächen	schlecht	1	acq_USunple_CSunple1_RW	acq4567_RW	6	6	400	1	300	300	458	46	0	1	1	blank2r.bmp	0	1	+	0	1	blank2r.bmp	492	1	JXXJ	492	1	blank2r.bmp	572	2	faul	866	1	!	1239	1	!	1359	0	0	0	0	0	0	0	0	0	0	0	0	0	0	0	0	0	0	0	0	0	0	0	0	0	0	0	0	0	0
070319	11:00:52	11:11:55	662702	5.0.10.0	5_exp_RW	5	Rpleas_acq	CS_B	GWWG	YDDY	JXXJ	MQQM	VKKV	BZZB	spielen	fair	treu	ehrlich	retten	schön	strafen	faul	tot	eitel	rächen	schlecht	1	acq_USunple_CSunple2_RW	acq4567_RW	6	7	400	0	300	300	314	50	0	0	1	blank2r.bmp	0	1	+	0	1	blank2r.bmp	492	1	MQQM	492	1	blank2r.bmp	572	1	eitel	866	1	!	-1	1	!	-1	0	0	0	0	0	0	0	0	0	0	0	0	0	0	0	0	0	0	0	0	0	0	0	0	0	0	0	0	0	0
070319	11:00:52	11:11:57	664941	5.0.10.0	5_exp_RW	5	Rpleas_acq	CS_B	GWWG	YDDY	JXXJ	MQQM	VKKV	BZZB	spielen	fair	treu	ehrlich	retten	schön	strafen	faul	tot	eitel	rächen	schlecht	1	acq_USunple_CSunple2_RW	acq4567_RW	6	8	400	1	300	300	422	46	0	1	1	blank2r.bmp	0	1	+	0	1	blank2r.bmp	492	1	MQQM	492	1	blank2r.bmp	572	3	schlecht	866	1	!	1239	1	!	1319	0	0	0	0	0	0	0	0	0	0	0	0	0	0	0	0	0	0	0	0	0	0	0	0	0	0	0	0	0	0
070319	11:00:52	11:12:00	667206	5.0.10.0	5_exp_RW	5	Rpleas_acq	CS_B	GWWG	YDDY	JXXJ	MQQM	VKKV	BZZB	spielen	fair	treu	ehrlich	retten	schön	strafen	faul	tot	eitel	rächen	schlecht	1	acq_USpleas_CSpleas1_RW	acq4567_RW	6	9	400	0	300	300	497	50	0	1	1	blank2r.bmp	0	1	+	0	1	blank2r.bmp	492	1	GWWG	492	1	blank2r.bmp	572	1	spielen	866	1	!	1239	1	!	-1	0	0	0	0	0	0	0	0	0	0	0	0	0	0	0	0	0	0	0	0	0	0	0	0	0	0	0	0	0	0
070319	11:00:52	11:12:02	669485	5.0.10.0	5_exp_RW	5	Rpleas_acq	CS_B	GWWG	YDDY	JXXJ	MQQM	VKKV	BZZB	spielen	fair	treu	ehrlich	retten	schön	strafen	faul	tot	eitel	rächen	schlecht	1	acq_USpleas_CSpleas2_RW	acq4567_RW	6	10	400	0	300	300	493	50	0	1	1	blank2r.bmp	0	1	+	0	1	blank2r.bmp	492	1	YDDY	492	1	blank2r.bmp	572	1	ehrlich	866	1	!	1239	1	!	-1	0	0	0	0	0	0	0	0	0	0	0	0	0	0	0	0	0	0	0	0	0	0	0	0	0	0	0	0	0	0
070319	11:00:52	11:12:04	671738	5.0.10.0	5_exp_RW	5	Rpleas_acq	CS_B	GWWG	YDDY	JXXJ	MQQM	VKKV	BZZB	spielen	fair	treu	ehrlich	retten	schön	strafen	faul	tot	eitel	rächen	schlecht	1	acq_USpleas_CSpleas2_RW	acq4567_RW	6	11	400	1	300	300	439	50	0	1	1	blank2r.bmp	0	1	+	0	1	blank2r.bmp	492	1	YDDY	492	1	blank2r.bmp	572	3	schön	866	1	!	1239	1	!	1346	0	0	0	0	0	0	0	0	0	0	0	0	0	0	0	0	0	0	0	0	0	0	0	0	0	0	0	0	0	0
070319	11:00:52	11:12:06	673897	5.0.10.0	5_exp_RW	5	Rpleas_acq	CS_B	GWWG	YDDY	JXXJ	MQQM	VKKV	BZZB	spielen	fair	treu	ehrlich	retten	schön	strafen	faul	tot	eitel	rächen	schlecht	1	acq_USunple_CSunple1_RW	acq4567_RW	6	12	400	1	300	300	372	46	0	1	1	blank2r.bmp	0	1	+	0	1	blank2r.bmp	492	1	JXXJ	492	1	blank2r.bmp	572	1	strafen	866	1	!	1239	1	!	1266	0	0	0	0	0	0	0	0	0	0	0	0	0	0	0	0	0	0	0	0	0	0	0	0	0	0	0	0	0	0
070319	11:00:52	11:12:09	676109	5.0.10.0	5_exp_RW	5	Rpleas_acq	CS_B	GWWG	YDDY	JXXJ	MQQM	VKKV	BZZB	spielen	fair	treu	ehrlich	retten	schön	strafen	faul	tot	eitel	rächen	schlecht	1	acq_USpleas_CSpleas1_RW	acq4567_RW	6	13	400	1	300	300	419	50	0	1	1	blank2r.bmp	0	1	+	0	1	blank2r.bmp	492	1	GWWG	492	1	blank2r.bmp	572	3	treu	866	1	!	1239	1	!	1319	0	0	0	0	0	0	0	0	0	0	0	0	0	0	0	0	0	0	0	0	0	0	0	0	0	0	0	0	0	0
070319	11:00:52	11:12:11	678295	5.0.10.0	5_exp_RW	5	Rpleas_acq	CS_B	GWWG	YDDY	JXXJ	MQQM	VKKV	BZZB	spielen	fair	treu	ehrlich	retten	schön	strafen	faul	tot	eitel	rächen	schlecht	1	acq_USpleas_CSpleas1_RW	acq4567_RW	6	14	400	1	300	300	389	50	0	1	1	blank2r.bmp	0	1	+	0	1	blank2r.bmp	492	1	GWWG	492	1	blank2r.bmp	572	2	fair	866	1	!	1239	1	!	1292	0	0	0	0	0	0	0	0	0	0	0	0	0	0	0	0	0	0	0	0	0	0	0	0	0	0	0	0	0	0
070319	11:00:52	11:12:13	680601	5.0.10.0	5_exp_RW	5	Rpleas_acq	CS_B	GWWG	YDDY	JXXJ	MQQM	VKKV	BZZB	spielen	fair	treu	ehrlich	retten	schön	strafen	faul	tot	eitel	rächen	schlecht	1	acq_USunple_CSunple2_RW	acq4567_RW	6	15	400	0	300	300	539	46	0	1	1	blank2r.bmp	0	1	+	0	1	blank2r.bmp	492	1	MQQM	492	1	blank2r.bmp	572	1	eitel	866	1	!	1239	1	!	-1	0	0	0	0	0	0	0	0	0	0	0	0	0	0	0	0	0	0	0	0	0	0	0	0	0	0	0	0	0	0
070319	11:00:52	11:12:15	682787	5.0.10.0	5_exp_RW	5	Rpleas_acq	CS_B	GWWG	YDDY	JXXJ	MQQM	VKKV	BZZB	spielen	fair	treu	ehrlich	retten	schön	strafen	faul	tot	eitel	rächen	schlecht	1	acq_USunple_CSunple1_RW	acq4567_RW	6	16	400	1	300	300	372	46	0	1	1	blank2r.bmp	0	1	+	0	1	blank2r.bmp	492	1	JXXJ	492	1	blank2r.bmp	572	3	tot	866	1	!	1239	1	!	1279	0	0	0	0	0	0	0	0	0	0	0	0	0	0	0	0	0	0	0	0	0	0	0	0	0	0	0	0	0	0
070319	11:00:52	11:12:17	684972	5.0.10.0	5_exp_RW	5	Rpleas_acq	CS_B	GWWG	YDDY	JXXJ	MQQM	VKKV	BZZB	spielen	fair	treu	ehrlich	retten	schön	strafen	faul	tot	eitel	rächen	schlecht	1	acq_USpleas_CSpleas1_RW	acq4567_RW	6	17	400	1	300	300	388	50	0	1	1	blank2r.bmp	0	1	+	0	1	blank2r.bmp	492	1	GWWG	492	1	blank2r.bmp	572	1	spielen	866	1	!	1239	1	!	1292	0	0	0	0	0	0	0	0	0	0	0	0	0	0	0	0	0	0	0	0	0	0	0	0	0	0	0	0	0	0
070319	11:00:52	11:12:20	687158	5.0.10.0	5_exp_RW	5	Rpleas_acq	CS_B	GWWG	YDDY	JXXJ	MQQM	VKKV	BZZB	spielen	fair	treu	ehrlich	retten	schön	strafen	faul	tot	eitel	rächen	schlecht	1	acq_USunple_CSunple1_RW	acq4567_RW	6	18	400	1	300	300	389	46	0	1	1	blank2r.bmp	0	1	+	0	1	blank2r.bmp	492	1	JXXJ	492	1	blank2r.bmp	572	2	faul	866	1	!	1239	1	!	1292	0	0	0	0	0	0	0	0	0	0	0	0	0	0	0	0	0	0	0	0	0	0	0	0	0	0	0	0	0	0
070319	11:00:52	11:12:22	689331	5.0.10.0	5_exp_RW	5	Rpleas_acq	CS_B	GWWG	YDDY	JXXJ	MQQM	VKKV	BZZB	spielen	fair	treu	ehrlich	retten	schön	strafen	faul	tot	eitel	rächen	schlecht	1	acq_USunple_CSunple1_RW	acq4567_RW	6	19	400	1	300	300	373	46	0	1	1	blank2r.bmp	0	1	+	0	1	blank2r.bmp	492	1	JXXJ	492	1	blank2r.bmp	572	3	tot	866	1	!	1239	1	!	1279	0	0	0	0	0	0	0	0	0	0	0	0	0	0	0	0	0	0	0	0	0	0	0	0	0	0	0	0	0	0
070319	11:00:52	11:12:24	691530	5.0.10.0	5_exp_RW	5	Rpleas_acq	CS_B	GWWG	YDDY	JXXJ	MQQM	VKKV	BZZB	spielen	fair	treu	ehrlich	retten	schön	strafen	faul	tot	eitel	rächen	schlecht	1	acq_USpleas_CSpleas2_RW	acq4567_RW	6	20	400	1	300	300	397	50	0	1	1	blank2r.bmp	0	1	+	0	1	blank2r.bmp	492	1	YDDY	492	1	blank2r.bmp	572	3	schön	866	1	!	1239	1	!	1292	0	0	0	0	0	0	0	0	0	0	0	0	0	0	0	0	0	0	0	0	0	0	0	0	0	0	0	0	0	0
070319	11:00:52	11:12:26	693782	5.0.10.0	5_exp_RW	5	Rpleas_acq	CS_B	GWWG	YDDY	JXXJ	MQQM	VKKV	BZZB	spielen	fair	treu	ehrlich	retten	schön	strafen	faul	tot	eitel	rächen	schlecht	1	acq_USpleas_CSpleas1_RW	acq4567_RW	6	21	400	1	300	300	451	50	0	1	1	blank2r.bmp	0	1	+	0	1	blank2r.bmp	492	1	GWWG	492	1	blank2r.bmp	572	2	fair	866	1	!	1239	1	!	1346	0	0	0	0	0	0	0	0	0	0	0	0	0	0	0	0	0	0	0	0	0	0	0	0	0	0	0	0	0	0
