date	time	script.currenttime	script.elapsedtime	build	script.currentexpt	subject	expressions.LRpleas_acq	expressions.conditionCS_A	expressions.CSpleas_1	expressions.CSpleas_2	expressions.CSunple_1	expressions.CSunple_2	expressions.distractor_1	expressions.distractor_2	expressions.US_pleas1	expressions.US_pleas2	expressions.US_pleas3	expressions.US_pleas4	expressions.US_pleas5	expressions.US_pleas6	expressions.US_unple1	expressions.US_unple2	expressions.US_unple3	expressions.US_unple4	expressions.US_unple5	expressions.US_unple6	counter.positions_noRW	trialcode	blockcode	blocknum	trialnum	windowcenter	inwindow	pretrialpause	posttrialpause	latency	response	expressions.correctedscore	correct	stimulusnumber1	stimulusitem1	stimulusonset1	stimulusnumber2	stimulusitem2	stimulusonset2	stimulusnumber3	stimulusitem3	stimulusonset3	stimulusnumber4	stimulusitem4	stimulusonset4	stimulusnumber5	stimulusitem5	stimulusonset5	stimulusnumber6	stimulusitem6	stimulusonset6	stimulusnumber7	stimulusitem7	stimulusonset7	stimulusnumber8	stimulusitem8	stimulusonset8	stimulusnumber9	stimulusitem9	stimulusonset9	stimulusnumber10	stimulusitem10	stimulusonset10	stimulusnumber11	stimulusitem11	stimulusonset11	stimulusnumber12	stimulusitem12	stimulusonset12	stimulusnumber13	stimulusitem13	stimulusonset13	stimulusnumber14	stimulusitem14	stimulusonset14	stimulusnumber15	stimulusitem15	stimulusonset15	stimulusnumber16	stimulusitem16	stimulusonset16	stimulusnumber17	stimulusitem17	stimulusonset17	stimulusnumber18	stimulusitem18	stimulusonset18
071019	11:55:17	11:56:46	89057	5.0.10.0	5_exp_noRW	36	Rpleas_acq	CS_A	CPPC	LWWL	ZHHZ	JQQJ	YFFY	DXXD	vertrauen	sonnig	träumen	gütig	küssen	genießen	versagen	sterben	töten	gierig	krank	gemein	53pct	acq_USunple_CSunple2_noRW	acq1_noRW	1	1	0	0	300	300	1973	46	0	1	1	blank2r.bmp	0	1	+	0	1	blank2r.bmp	252	1	JQQJ	306	3	gemein	559	0	0	0	0	0	0	0	0	0	0	0	0	0	0	0	0	0	0	0	0	0	0	0	0	0	0	0	0	0	0	0	0	0	0	0	0	0	0	0
071019	11:55:17	11:56:48	90842	5.0.10.0	5_exp_noRW	36	Rpleas_acq	CS_A	CPPC	LWWL	ZHHZ	JQQJ	YFFY	DXXD	vertrauen	sonnig	träumen	gütig	küssen	genießen	versagen	sterben	töten	gierig	krank	gemein	53pct	acq_USpleas_CSpleas2_noRW	acq1_noRW	1	2	0	0	300	300	608	50	0	1	1	blank2r.bmp	0	1	+	0	1	blank2r.bmp	252	1	LWWL	306	2	küssen	559	0	0	0	0	0	0	0	0	0	0	0	0	0	0	0	0	0	0	0	0	0	0	0	0	0	0	0	0	0	0	0	0	0	0	0	0	0	0	0
071019	11:55:17	11:56:50	92682	5.0.10.0	5_exp_noRW	36	Rpleas_acq	CS_A	CPPC	LWWL	ZHHZ	JQQJ	YFFY	DXXD	vertrauen	sonnig	träumen	gütig	küssen	genießen	versagen	sterben	töten	gierig	krank	gemein	47pct	acq_USpleas_CSunple1_noRW	acq1_noRW	1	3	0	0	300	300	664	50	0	1	1	blank2r.bmp	0	1	+	0	1	blank2r.bmp	252	1	ZHHZ	306	1	vertrauen	559	0	0	0	0	0	0	0	0	0	0	0	0	0	0	0	0	0	0	0	0	0	0	0	0	0	0	0	0	0	0	0	0	0	0	0	0	0	0	0
071019	11:55:17	11:56:52	94574	5.0.10.0	5_exp_noRW	36	Rpleas_acq	CS_A	CPPC	LWWL	ZHHZ	JQQJ	YFFY	DXXD	vertrauen	sonnig	träumen	gütig	küssen	genießen	versagen	sterben	töten	gierig	krank	gemein	53pct	acq_USpleas_CSpleas2_noRW	acq1_noRW	1	4	0	0	300	300	711	50	0	1	1	blank2r.bmp	0	1	+	0	1	blank2r.bmp	252	1	LWWL	306	1	gütig	559	0	0	0	0	0	0	0	0	0	0	0	0	0	0	0	0	0	0	0	0	0	0	0	0	0	0	0	0	0	0	0	0	0	0	0	0	0	0	0
071019	11:55:17	11:56:54	96240	5.0.10.0	5_exp_noRW	36	Rpleas_acq	CS_A	CPPC	LWWL	ZHHZ	JQQJ	YFFY	DXXD	vertrauen	sonnig	träumen	gütig	küssen	genießen	versagen	sterben	töten	gierig	krank	gemein	53pct	acq_USpleas_CSpleas2_noRW	acq1_noRW	1	5	0	0	300	300	481	50	0	1	1	blank2r.bmp	0	1	+	0	1	blank2r.bmp	252	1	LWWL	306	3	genießen	559	0	0	0	0	0	0	0	0	0	0	0	0	0	0	0	0	0	0	0	0	0	0	0	0	0	0	0	0	0	0	0	0	0	0	0	0	0	0	0
071019	11:55:17	11:56:55	98079	5.0.10.0	5_exp_noRW	36	Rpleas_acq	CS_A	CPPC	LWWL	ZHHZ	JQQJ	YFFY	DXXD	vertrauen	sonnig	träumen	gütig	küssen	genießen	versagen	sterben	töten	gierig	krank	gemein	47pct	acq_USunple_CSunple1_noRW	acq1_noRW	1	6	0	0	300	300	670	46	0	1	1	blank2r.bmp	0	1	+	0	1	blank2r.bmp	252	1	ZHHZ	306	1	versagen	559	0	0	0	0	0	0	0	0	0	0	0	0	0	0	0	0	0	0	0	0	0	0	0	0	0	0	0	0	0	0	0	0	0	0	0	0	0	0	0
071019	11:55:17	11:56:57	99959	5.0.10.0	5_exp_noRW	36	Rpleas_acq	CS_A	CPPC	LWWL	ZHHZ	JQQJ	YFFY	DXXD	vertrauen	sonnig	träumen	gütig	küssen	genießen	versagen	sterben	töten	gierig	krank	gemein	47pct	acq_USpleas_CSpleas1_noRW	acq1_noRW	1	7	0	0	300	300	716	50	0	1	1	blank2r.bmp	0	1	+	0	1	blank2r.bmp	252	1	CPPC	306	3	träumen	559	0	0	0	0	0	0	0	0	0	0	0	0	0	0	0	0	0	0	0	0	0	0	0	0	0	0	0	0	0	0	0	0	0	0	0	0	0	0	0
071019	11:55:17	11:56:59	101998	5.0.10.0	5_exp_noRW	36	Rpleas_acq	CS_A	CPPC	LWWL	ZHHZ	JQQJ	YFFY	DXXD	vertrauen	sonnig	träumen	gütig	küssen	genießen	versagen	sterben	töten	gierig	krank	gemein	47pct	acq_USpleas_CSpleas2_noRW	acq1_noRW	1	8	0	0	300	300	860	50	0	1	1	blank2r.bmp	0	1	+	0	1	blank2r.bmp	252	1	LWWL	306	1	gütig	559	0	0	0	0	0	0	0	0	0	0	0	0	0	0	0	0	0	0	0	0	0	0	0	0	0	0	0	0	0	0	0	0	0	0	0	0	0	0	0
071019	11:55:17	11:57:01	103637	5.0.10.0	5_exp_noRW	36	Rpleas_acq	CS_A	CPPC	LWWL	ZHHZ	JQQJ	YFFY	DXXD	vertrauen	sonnig	träumen	gütig	küssen	genießen	versagen	sterben	töten	gierig	krank	gemein	47pct	acq_USpleas_CSunple2_noRW	acq1_noRW	1	9	0	0	300	300	462	50	0	1	1	blank2r.bmp	0	1	+	0	1	blank2r.bmp	252	1	JQQJ	306	1	gütig	559	0	0	0	0	0	0	0	0	0	0	0	0	0	0	0	0	0	0	0	0	0	0	0	0	0	0	0	0	0	0	0	0	0	0	0	0	0	0	0
071019	11:55:17	11:57:03	105730	5.0.10.0	5_exp_noRW	36	Rpleas_acq	CS_A	CPPC	LWWL	ZHHZ	JQQJ	YFFY	DXXD	vertrauen	sonnig	träumen	gütig	küssen	genießen	versagen	sterben	töten	gierig	krank	gemein	47pct	acq_USunple_CSunple1_noRW	acq1_noRW	1	10	0	0	300	300	917	46	0	1	1	blank2r.bmp	0	1	+	0	1	blank2r.bmp	252	1	ZHHZ	306	2	sterben	559	0	0	0	0	0	0	0	0	0	0	0	0	0	0	0	0	0	0	0	0	0	0	0	0	0	0	0	0	0	0	0	0	0	0	0	0	0	0	0
071019	11:55:17	11:57:05	107849	5.0.10.0	5_exp_noRW	36	Rpleas_acq	CS_A	CPPC	LWWL	ZHHZ	JQQJ	YFFY	DXXD	vertrauen	sonnig	träumen	gütig	küssen	genießen	versagen	sterben	töten	gierig	krank	gemein	53pct	acq_USunple_CSpleas2_noRW	acq1_noRW	1	11	0	0	300	300	939	46	0	1	1	blank2r.bmp	0	1	+	0	1	blank2r.bmp	252	1	LWWL	306	1	gierig	559	0	0	0	0	0	0	0	0	0	0	0	0	0	0	0	0	0	0	0	0	0	0	0	0	0	0	0	0	0	0	0	0	0	0	0	0	0	0	0
071019	11:55:17	11:57:07	109595	5.0.10.0	5_exp_noRW	36	Rpleas_acq	CS_A	CPPC	LWWL	ZHHZ	JQQJ	YFFY	DXXD	vertrauen	sonnig	träumen	gütig	küssen	genießen	versagen	sterben	töten	gierig	krank	gemein	47pct	acq_USunple_CSunple2_noRW	acq1_noRW	1	12	0	0	300	300	560	46	0	1	1	blank2r.bmp	0	1	+	0	1	blank2r.bmp	252	1	JQQJ	306	1	gierig	559	0	0	0	0	0	0	0	0	0	0	0	0	0	0	0	0	0	0	0	0	0	0	0	0	0	0	0	0	0	0	0	0	0	0	0	0	0	0	0
071019	11:55:17	11:57:09	111367	5.0.10.0	5_exp_noRW	36	Rpleas_acq	CS_A	CPPC	LWWL	ZHHZ	JQQJ	YFFY	DXXD	vertrauen	sonnig	träumen	gütig	küssen	genießen	versagen	sterben	töten	gierig	krank	gemein	53pct	acq_USunple_CSunple2_noRW	acq1_noRW	1	13	0	0	300	300	604	46	0	1	1	blank2r.bmp	0	1	+	0	1	blank2r.bmp	252	1	JQQJ	306	2	krank	559	0	0	0	0	0	0	0	0	0	0	0	0	0	0	0	0	0	0	0	0	0	0	0	0	0	0	0	0	0	0	0	0	0	0	0	0	0	0	0
071019	11:55:17	11:57:11	113806	5.0.10.0	5_exp_noRW	36	Rpleas_acq	CS_A	CPPC	LWWL	ZHHZ	JQQJ	YFFY	DXXD	vertrauen	sonnig	träumen	gütig	küssen	genießen	versagen	sterben	töten	gierig	krank	gemein	53pct	acq_USunple_CSunple1_noRW	acq1_noRW	1	14	0	0	300	300	1276	46	0	1	1	blank2r.bmp	0	1	+	0	1	blank2r.bmp	252	1	ZHHZ	306	3	töten	559	0	0	0	0	0	0	0	0	0	0	0	0	0	0	0	0	0	0	0	0	0	0	0	0	0	0	0	0	0	0	0	0	0	0	0	0	0	0	0
071019	11:55:17	11:57:13	115686	5.0.10.0	5_exp_noRW	36	Rpleas_acq	CS_A	CPPC	LWWL	ZHHZ	JQQJ	YFFY	DXXD	vertrauen	sonnig	träumen	gütig	küssen	genießen	versagen	sterben	töten	gierig	krank	gemein	47pct	acq_USunple_CSunple2_noRW	acq1_noRW	1	15	0	0	300	300	695	46	0	1	1	blank2r.bmp	0	1	+	0	1	blank2r.bmp	252	1	JQQJ	306	2	krank	559	0	0	0	0	0	0	0	0	0	0	0	0	0	0	0	0	0	0	0	0	0	0	0	0	0	0	0	0	0	0	0	0	0	0	0	0	0	0	0
071019	11:55:17	11:57:15	117965	5.0.10.0	5_exp_noRW	36	Rpleas_acq	CS_A	CPPC	LWWL	ZHHZ	JQQJ	YFFY	DXXD	vertrauen	sonnig	träumen	gütig	küssen	genießen	versagen	sterben	töten	gierig	krank	gemein	53pct	acq_USpleas_CSpleas1_noRW	acq1_noRW	1	16	0	0	300	300	882	46	0	0	1	blank2r.bmp	0	1	+	0	1	blank2r.bmp	252	1	CPPC	306	1	vertrauen	559	1	FEHLER	1479	0	0	0	0	0	0	0	0	0	0	0	0	0	0	0	0	0	0	0	0	0	0	0	0	0	0	0	0	0	0	0	0	0	0	0	0
071019	11:55:17	11:57:17	119831	5.0.10.0	5_exp_noRW	36	Rpleas_acq	CS_A	CPPC	LWWL	ZHHZ	JQQJ	YFFY	DXXD	vertrauen	sonnig	träumen	gütig	küssen	genießen	versagen	sterben	töten	gierig	krank	gemein	53pct	acq_USunple_CSpleas1_noRW	acq1_noRW	1	17	0	0	300	300	905	46	0	1	1	blank2r.bmp	0	1	+	0	1	blank2r.bmp	252	1	CPPC	306	3	töten	559	0	0	0	0	0	0	0	0	0	0	0	0	0	0	0	0	0	0	0	0	0	0	0	0	0	0	0	0	0	0	0	0	0	0	0	0	0	0	0
071019	11:55:17	11:57:19	121603	5.0.10.0	5_exp_noRW	36	Rpleas_acq	CS_A	CPPC	LWWL	ZHHZ	JQQJ	YFFY	DXXD	vertrauen	sonnig	träumen	gütig	küssen	genießen	versagen	sterben	töten	gierig	krank	gemein	53pct	acq_USpleas_CSpleas1_noRW	acq1_noRW	1	18	0	0	300	300	603	50	0	1	1	blank2r.bmp	0	1	+	0	1	blank2r.bmp	252	1	CPPC	306	2	sonnig	559	0	0	0	0	0	0	0	0	0	0	0	0	0	0	0	0	0	0	0	0	0	0	0	0	0	0	0	0	0	0	0	0	0	0	0	0	0	0	0
071019	11:55:17	11:57:21	123363	5.0.10.0	5_exp_noRW	36	Rpleas_acq	CS_A	CPPC	LWWL	ZHHZ	JQQJ	YFFY	DXXD	vertrauen	sonnig	träumen	gütig	küssen	genießen	versagen	sterben	töten	gierig	krank	gemein	47pct	acq_USpleas_CSpleas1_noRW	acq1_noRW	1	19	0	0	300	300	585	50	0	1	1	blank2r.bmp	0	1	+	0	1	blank2r.bmp	252	1	CPPC	306	3	träumen	559	0	0	0	0	0	0	0	0	0	0	0	0	0	0	0	0	0	0	0	0	0	0	0	0	0	0	0	0	0	0	0	0	0	0	0	0	0	0	0
071019	11:55:17	11:57:22	125189	5.0.10.0	5_exp_noRW	36	Rpleas_acq	CS_A	CPPC	LWWL	ZHHZ	JQQJ	YFFY	DXXD	vertrauen	sonnig	träumen	gütig	küssen	genießen	versagen	sterben	töten	gierig	krank	gemein	53pct	acq_USunple_CSunple1_noRW	acq1_noRW	1	20	0	0	300	300	664	46	0	1	1	blank2r.bmp	0	1	+	0	1	blank2r.bmp	252	1	ZHHZ	306	1	versagen	559	0	0	0	0	0	0	0	0	0	0	0	0	0	0	0	0	0	0	0	0	0	0	0	0	0	0	0	0	0	0	0	0	0	0	0	0	0	0	0
071019	11:55:17	11:57:25	127254	5.0.10.0	5_exp_noRW	36	Rpleas_acq	CS_A	CPPC	LWWL	ZHHZ	JQQJ	YFFY	DXXD	vertrauen	sonnig	träumen	gütig	küssen	genießen	versagen	sterben	töten	gierig	krank	gemein	53pct	acq_USpleas_CSpleas1_noRW	acq1_noRW	1	21	0	0	300	300	868	50	0	1	1	blank2r.bmp	0	1	+	0	1	blank2r.bmp	252	1	CPPC	306	1	vertrauen	559	0	0	0	0	0	0	0	0	0	0	0	0	0	0	0	0	0	0	0	0	0	0	0	0	0	0	0	0	0	0	0	0	0	0	0	0	0	0	0
071019	11:55:17	11:57:26	129014	5.0.10.0	5_exp_noRW	36	Rpleas_acq	CS_A	CPPC	LWWL	ZHHZ	JQQJ	YFFY	DXXD	vertrauen	sonnig	träumen	gütig	küssen	genießen	versagen	sterben	töten	gierig	krank	gemein	47pct	acq_USunple_CSunple1_noRW	acq1_noRW	1	22	0	0	300	300	591	46	0	1	1	blank2r.bmp	0	1	+	0	1	blank2r.bmp	252	1	ZHHZ	306	3	töten	559	0	0	0	0	0	0	0	0	0	0	0	0	0	0	0	0	0	0	0	0	0	0	0	0	0	0	0	0	0	0	0	0	0	0	0	0	0	0	0
071019	11:55:17	11:57:28	130813	5.0.10.0	5_exp_noRW	36	Rpleas_acq	CS_A	CPPC	LWWL	ZHHZ	JQQJ	YFFY	DXXD	vertrauen	sonnig	träumen	gütig	küssen	genießen	versagen	sterben	töten	gierig	krank	gemein	53pct	acq_USpleas_CSpleas1_noRW	acq1_noRW	1	23	0	0	300	300	628	50	0	1	1	blank2r.bmp	0	1	+	0	1	blank2r.bmp	252	1	CPPC	306	2	sonnig	559	0	0	0	0	0	0	0	0	0	0	0	0	0	0	0	0	0	0	0	0	0	0	0	0	0	0	0	0	0	0	0	0	0	0	0	0	0	0	0
071019	11:55:17	11:57:30	132612	5.0.10.0	5_exp_noRW	36	Rpleas_acq	CS_A	CPPC	LWWL	ZHHZ	JQQJ	YFFY	DXXD	vertrauen	sonnig	träumen	gütig	küssen	genießen	versagen	sterben	töten	gierig	krank	gemein	53pct	acq_USpleas_CSpleas1_noRW	acq1_noRW	1	24	0	0	300	300	635	50	0	1	1	blank2r.bmp	0	1	+	0	1	blank2r.bmp	252	1	CPPC	306	3	träumen	559	0	0	0	0	0	0	0	0	0	0	0	0	0	0	0	0	0	0	0	0	0	0	0	0	0	0	0	0	0	0	0	0	0	0	0	0	0	0	0
071019	11:55:17	11:57:32	134491	5.0.10.0	5_exp_noRW	36	Rpleas_acq	CS_A	CPPC	LWWL	ZHHZ	JQQJ	YFFY	DXXD	vertrauen	sonnig	träumen	gütig	küssen	genießen	versagen	sterben	töten	gierig	krank	gemein	47pct	acq_USunple_CSunple2_noRW	acq1_noRW	1	25	0	0	300	300	693	46	0	1	1	blank2r.bmp	0	1	+	0	1	blank2r.bmp	252	1	JQQJ	306	3	gemein	559	0	0	0	0	0	0	0	0	0	0	0	0	0	0	0	0	0	0	0	0	0	0	0	0	0	0	0	0	0	0	0	0	0	0	0	0	0	0	0
071019	11:55:17	11:57:34	136237	5.0.10.0	5_exp_noRW	36	Rpleas_acq	CS_A	CPPC	LWWL	ZHHZ	JQQJ	YFFY	DXXD	vertrauen	sonnig	träumen	gütig	küssen	genießen	versagen	sterben	töten	gierig	krank	gemein	47pct	acq_USunple_CSunple2_noRW	acq1_noRW	1	26	0	0	300	300	583	46	0	1	1	blank2r.bmp	0	1	+	0	1	blank2r.bmp	252	1	JQQJ	306	1	gierig	559	0	0	0	0	0	0	0	0	0	0	0	0	0	0	0	0	0	0	0	0	0	0	0	0	0	0	0	0	0	0	0	0	0	0	0	0	0	0	0
071019	11:55:17	11:57:35	137903	5.0.10.0	5_exp_noRW	36	Rpleas_acq	CS_A	CPPC	LWWL	ZHHZ	JQQJ	YFFY	DXXD	vertrauen	sonnig	träumen	gütig	küssen	genießen	versagen	sterben	töten	gierig	krank	gemein	53pct	acq_USpleas_CSpleas2_noRW	acq1_noRW	1	27	0	0	300	300	488	50	0	1	1	blank2r.bmp	0	1	+	0	1	blank2r.bmp	252	1	LWWL	306	2	küssen	559	0	0	0	0	0	0	0	0	0	0	0	0	0	0	0	0	0	0	0	0	0	0	0	0	0	0	0	0	0	0	0	0	0	0	0	0	0	0	0
071019	11:55:17	11:57:37	139583	5.0.10.0	5_exp_noRW	36	Rpleas_acq	CS_A	CPPC	LWWL	ZHHZ	JQQJ	YFFY	DXXD	vertrauen	sonnig	träumen	gütig	küssen	genießen	versagen	sterben	töten	gierig	krank	gemein	47pct	acq_USpleas_CSunple1_noRW	acq1_noRW	1	28	0	0	300	300	513	50	0	1	1	blank2r.bmp	0	1	+	0	1	blank2r.bmp	252	1	ZHHZ	306	3	träumen	559	0	0	0	0	0	0	0	0	0	0	0	0	0	0	0	0	0	0	0	0	0	0	0	0	0	0	0	0	0	0	0	0	0	0	0	0	0	0	0
071019	11:55:17	11:57:39	141249	5.0.10.0	5_exp_noRW	36	Rpleas_acq	CS_A	CPPC	LWWL	ZHHZ	JQQJ	YFFY	DXXD	vertrauen	sonnig	träumen	gütig	küssen	genießen	versagen	sterben	töten	gierig	krank	gemein	47pct	acq_USunple_CSunple1_noRW	acq1_noRW	1	29	0	0	300	300	481	46	0	1	1	blank2r.bmp	0	1	+	0	1	blank2r.bmp	252	1	ZHHZ	306	2	sterben	559	0	0	0	0	0	0	0	0	0	0	0	0	0	0	0	0	0	0	0	0	0	0	0	0	0	0	0	0	0	0	0	0	0	0	0	0	0	0	0
071019	11:55:17	11:57:40	143101	5.0.10.0	5_exp_noRW	36	Rpleas_acq	CS_A	CPPC	LWWL	ZHHZ	JQQJ	YFFY	DXXD	vertrauen	sonnig	träumen	gütig	küssen	genießen	versagen	sterben	töten	gierig	krank	gemein	47pct	acq_USpleas_CSpleas2_noRW	acq1_noRW	1	30	0	0	300	300	679	50	0	1	1	blank2r.bmp	0	1	+	0	1	blank2r.bmp	252	1	LWWL	306	3	genießen	559	0	0	0	0	0	0	0	0	0	0	0	0	0	0	0	0	0	0	0	0	0	0	0	0	0	0	0	0	0	0	0	0	0	0	0	0	0	0	0
071019	11:55:17	11:57:42	144674	5.0.10.0	5_exp_noRW	36	Rpleas_acq	CS_A	CPPC	LWWL	ZHHZ	JQQJ	YFFY	DXXD	vertrauen	sonnig	träumen	gütig	küssen	genießen	versagen	sterben	töten	gierig	krank	gemein	47pct	acq_USpleas_CSunple2_noRW	acq1_noRW	1	31	0	0	300	300	403	50	0	1	1	blank2r.bmp	0	1	+	0	1	blank2r.bmp	252	1	JQQJ	306	2	küssen	559	0	0	0	0	0	0	0	0	0	0	0	0	0	0	0	0	0	0	0	0	0	0	0	0	0	0	0	0	0	0	0	0	0	0	0	0	0	0	0
071019	11:55:17	11:57:44	146766	5.0.10.0	5_exp_noRW	36	Rpleas_acq	CS_A	CPPC	LWWL	ZHHZ	JQQJ	YFFY	DXXD	vertrauen	sonnig	träumen	gütig	küssen	genießen	versagen	sterben	töten	gierig	krank	gemein	47pct	acq_USunple_CSunple2_noRW	acq1_noRW	1	32	0	0	300	300	717	50	0	0	1	blank2r.bmp	0	1	+	0	1	blank2r.bmp	252	1	JQQJ	306	2	krank	559	1	FEHLER	1306	0	0	0	0	0	0	0	0	0	0	0	0	0	0	0	0	0	0	0	0	0	0	0	0	0	0	0	0	0	0	0	0	0	0	0	0
071019	11:55:17	11:57:46	148339	5.0.10.0	5_exp_noRW	36	Rpleas_acq	CS_A	CPPC	LWWL	ZHHZ	JQQJ	YFFY	DXXD	vertrauen	sonnig	träumen	gütig	küssen	genießen	versagen	sterben	töten	gierig	krank	gemein	47pct	acq_USpleas_CSpleas2_noRW	acq1_noRW	1	33	0	0	300	300	610	50	0	1	1	blank2r.bmp	0	1	+	0	1	blank2r.bmp	252	1	LWWL	306	3	genießen	559	0	0	0	0	0	0	0	0	0	0	0	0	0	0	0	0	0	0	0	0	0	0	0	0	0	0	0	0	0	0	0	0	0	0	0	0	0	0	0
071019	11:55:17	11:57:47	150018	5.0.10.0	5_exp_noRW	36	Rpleas_acq	CS_A	CPPC	LWWL	ZHHZ	JQQJ	YFFY	DXXD	vertrauen	sonnig	träumen	gütig	küssen	genießen	versagen	sterben	töten	gierig	krank	gemein	53pct	acq_USunple_CSpleas2_noRW	acq1_noRW	1	34	0	0	300	300	505	46	0	1	1	blank2r.bmp	0	1	+	0	1	blank2r.bmp	252	1	LWWL	306	2	krank	559	0	0	0	0	0	0	0	0	0	0	0	0	0	0	0	0	0	0	0	0	0	0	0	0	0	0	0	0	0	0	0	0	0	0	0	0	0	0	0
071019	11:55:17	11:57:49	151804	5.0.10.0	5_exp_noRW	36	Rpleas_acq	CS_A	CPPC	LWWL	ZHHZ	JQQJ	YFFY	DXXD	vertrauen	sonnig	träumen	gütig	küssen	genießen	versagen	sterben	töten	gierig	krank	gemein	47pct	acq_USunple_CSunple1_noRW	acq1_noRW	1	35	0	0	300	300	611	46	0	1	1	blank2r.bmp	0	1	+	0	1	blank2r.bmp	252	1	ZHHZ	306	1	versagen	559	0	0	0	0	0	0	0	0	0	0	0	0	0	0	0	0	0	0	0	0	0	0	0	0	0	0	0	0	0	0	0	0	0	0	0	0	0	0	0
071019	11:55:17	11:57:51	153537	5.0.10.0	5_exp_noRW	36	Rpleas_acq	CS_A	CPPC	LWWL	ZHHZ	JQQJ	YFFY	DXXD	vertrauen	sonnig	träumen	gütig	küssen	genießen	versagen	sterben	töten	gierig	krank	gemein	53pct	acq_USpleas_CSpleas1_noRW	acq1_noRW	1	36	0	0	300	300	568	50	0	1	1	blank2r.bmp	0	1	+	0	1	blank2r.bmp	252	1	CPPC	306	2	sonnig	559	0	0	0	0	0	0	0	0	0	0	0	0	0	0	0	0	0	0	0	0	0	0	0	0	0	0	0	0	0	0	0	0	0	0	0	0	0	0	0
071019	11:55:17	11:57:53	155296	5.0.10.0	5_exp_noRW	36	Rpleas_acq	CS_A	CPPC	LWWL	ZHHZ	JQQJ	YFFY	DXXD	vertrauen	sonnig	träumen	gütig	küssen	genießen	versagen	sterben	töten	gierig	krank	gemein	47pct	acq_USunple_CSpleas1_noRW	acq1_noRW	1	37	0	0	300	300	581	46	0	1	1	blank2r.bmp	0	1	+	0	1	blank2r.bmp	252	1	CPPC	306	1	versagen	559	0	0	0	0	0	0	0	0	0	0	0	0	0	0	0	0	0	0	0	0	0	0	0	0	0	0	0	0	0	0	0	0	0	0	0	0	0	0	0
071019	11:55:17	11:57:54	157002	5.0.10.0	5_exp_noRW	36	Rpleas_acq	CS_A	CPPC	LWWL	ZHHZ	JQQJ	YFFY	DXXD	vertrauen	sonnig	träumen	gütig	küssen	genießen	versagen	sterben	töten	gierig	krank	gemein	53pct	acq_USunple_CSunple2_noRW	acq1_noRW	1	38	0	0	300	300	535	46	0	1	1	blank2r.bmp	0	1	+	0	1	blank2r.bmp	252	1	JQQJ	306	3	gemein	559	0	0	0	0	0	0	0	0	0	0	0	0	0	0	0	0	0	0	0	0	0	0	0	0	0	0	0	0	0	0	0	0	0	0	0	0	0	0	0
071019	11:55:17	11:57:56	158655	5.0.10.0	5_exp_noRW	36	Rpleas_acq	CS_A	CPPC	LWWL	ZHHZ	JQQJ	YFFY	DXXD	vertrauen	sonnig	träumen	gütig	küssen	genießen	versagen	sterben	töten	gierig	krank	gemein	53pct	acq_USunple_CSunple1_noRW	acq1_noRW	1	39	0	0	300	300	480	46	0	1	1	blank2r.bmp	0	1	+	0	1	blank2r.bmp	252	1	ZHHZ	306	3	töten	559	0	0	0	0	0	0	0	0	0	0	0	0	0	0	0	0	0	0	0	0	0	0	0	0	0	0	0	0	0	0	0	0	0	0	0	0	0	0	0
071019	11:55:17	11:57:58	160401	5.0.10.0	5_exp_noRW	36	Rpleas_acq	CS_A	CPPC	LWWL	ZHHZ	JQQJ	YFFY	DXXD	vertrauen	sonnig	träumen	gütig	küssen	genießen	versagen	sterben	töten	gierig	krank	gemein	53pct	acq_USpleas_CSpleas2_noRW	acq1_noRW	1	40	0	0	300	300	572	50	0	1	1	blank2r.bmp	0	1	+	0	1	blank2r.bmp	252	1	LWWL	306	1	gütig	559	0	0	0	0	0	0	0	0	0	0	0	0	0	0	0	0	0	0	0	0	0	0	0	0	0	0	0	0	0	0	0	0	0	0	0	0	0	0	0
071019	11:55:17	11:57:59	162054	5.0.10.0	5_exp_noRW	36	Rpleas_acq	CS_A	CPPC	LWWL	ZHHZ	JQQJ	YFFY	DXXD	vertrauen	sonnig	träumen	gütig	küssen	genießen	versagen	sterben	töten	gierig	krank	gemein	47pct	acq_USpleas_CSpleas1_noRW	acq1_noRW	1	41	0	0	300	300	486	50	0	1	1	blank2r.bmp	0	1	+	0	1	blank2r.bmp	252	1	CPPC	306	1	vertrauen	559	0	0	0	0	0	0	0	0	0	0	0	0	0	0	0	0	0	0	0	0	0	0	0	0	0	0	0	0	0	0	0	0	0	0	0	0	0	0	0
071019	11:55:17	11:58:01	163666	5.0.10.0	5_exp_noRW	36	Rpleas_acq	CS_A	CPPC	LWWL	ZHHZ	JQQJ	YFFY	DXXD	vertrauen	sonnig	träumen	gütig	küssen	genießen	versagen	sterben	töten	gierig	krank	gemein	53pct	acq_USpleas_CSpleas2_noRW	acq1_noRW	1	42	0	0	300	300	450	50	0	1	1	blank2r.bmp	0	1	+	0	1	blank2r.bmp	252	1	LWWL	306	2	küssen	559	0	0	0	0	0	0	0	0	0	0	0	0	0	0	0	0	0	0	0	0	0	0	0	0	0	0	0	0	0	0	0	0	0	0	0	0	0	0	0
071019	11:55:17	11:58:03	165279	5.0.10.0	5_exp_noRW	36	Rpleas_acq	CS_A	CPPC	LWWL	ZHHZ	JQQJ	YFFY	DXXD	vertrauen	sonnig	träumen	gütig	küssen	genießen	versagen	sterben	töten	gierig	krank	gemein	53pct	acq_USpleas_CSpleas2_noRW	acq1_noRW	1	43	0	0	300	300	434	50	0	1	1	blank2r.bmp	0	1	+	0	1	blank2r.bmp	252	1	LWWL	306	3	genießen	559	0	0	0	0	0	0	0	0	0	0	0	0	0	0	0	0	0	0	0	0	0	0	0	0	0	0	0	0	0	0	0	0	0	0	0	0	0	0	0
071019	11:55:17	11:58:04	167025	5.0.10.0	5_exp_noRW	36	Rpleas_acq	CS_A	CPPC	LWWL	ZHHZ	JQQJ	YFFY	DXXD	vertrauen	sonnig	träumen	gütig	küssen	genießen	versagen	sterben	töten	gierig	krank	gemein	47pct	acq_USunple_CSunple2_noRW	acq1_noRW	1	44	0	0	300	300	570	46	0	1	1	blank2r.bmp	0	1	+	0	1	blank2r.bmp	252	1	JQQJ	306	1	gierig	559	0	0	0	0	0	0	0	0	0	0	0	0	0	0	0	0	0	0	0	0	0	0	0	0	0	0	0	0	0	0	0	0	0	0	0	0	0	0	0
071019	11:55:17	11:58:06	168651	5.0.10.0	5_exp_noRW	36	Rpleas_acq	CS_A	CPPC	LWWL	ZHHZ	JQQJ	YFFY	DXXD	vertrauen	sonnig	träumen	gütig	küssen	genießen	versagen	sterben	töten	gierig	krank	gemein	47pct	acq_USpleas_CSpleas1_noRW	acq1_noRW	1	45	0	0	300	300	443	50	0	1	1	blank2r.bmp	0	1	+	0	1	blank2r.bmp	252	1	CPPC	306	3	träumen	559	0	0	0	0	0	0	0	0	0	0	0	0	0	0	0	0	0	0	0	0	0	0	0	0	0	0	0	0	0	0	0	0	0	0	0	0	0	0	0
071019	11:55:17	11:58:08	170357	5.0.10.0	5_exp_noRW	36	Rpleas_acq	CS_A	CPPC	LWWL	ZHHZ	JQQJ	YFFY	DXXD	vertrauen	sonnig	träumen	gütig	küssen	genießen	versagen	sterben	töten	gierig	krank	gemein	47pct	acq_USunple_CSunple2_noRW	acq1_noRW	1	46	0	0	300	300	539	46	0	1	1	blank2r.bmp	0	1	+	0	1	blank2r.bmp	252	1	JQQJ	306	1	gierig	559	0	0	0	0	0	0	0	0	0	0	0	0	0	0	0	0	0	0	0	0	0	0	0	0	0	0	0	0	0	0	0	0	0	0	0	0	0	0	0
071019	11:55:17	11:58:09	171956	5.0.10.0	5_exp_noRW	36	Rpleas_acq	CS_A	CPPC	LWWL	ZHHZ	JQQJ	YFFY	DXXD	vertrauen	sonnig	träumen	gütig	küssen	genießen	versagen	sterben	töten	gierig	krank	gemein	47pct	acq_USunple_CSunple1_noRW	acq1_noRW	1	47	0	0	300	300	420	46	0	1	1	blank2r.bmp	0	1	+	0	1	blank2r.bmp	252	1	ZHHZ	306	2	sterben	559	0	0	0	0	0	0	0	0	0	0	0	0	0	0	0	0	0	0	0	0	0	0	0	0	0	0	0	0	0	0	0	0	0	0	0	0	0	0	0
071019	11:55:17	11:58:11	173596	5.0.10.0	5_exp_noRW	36	Rpleas_acq	CS_A	CPPC	LWWL	ZHHZ	JQQJ	YFFY	DXXD	vertrauen	sonnig	träumen	gütig	küssen	genießen	versagen	sterben	töten	gierig	krank	gemein	53pct	acq_USunple_CSunple2_noRW	acq1_noRW	1	48	0	0	300	300	472	46	0	1	1	blank2r.bmp	0	1	+	0	1	blank2r.bmp	252	1	JQQJ	306	2	krank	559	0	0	0	0	0	0	0	0	0	0	0	0	0	0	0	0	0	0	0	0	0	0	0	0	0	0	0	0	0	0	0	0	0	0	0	0	0	0	0
071019	11:55:17	11:58:13	175275	5.0.10.0	5_exp_noRW	36	Rpleas_acq	CS_A	CPPC	LWWL	ZHHZ	JQQJ	YFFY	DXXD	vertrauen	sonnig	träumen	gütig	küssen	genießen	versagen	sterben	töten	gierig	krank	gemein	53pct	acq_USpleas_CSpleas1_noRW	acq1_noRW	1	49	0	0	300	300	511	50	0	1	1	blank2r.bmp	0	1	+	0	1	blank2r.bmp	252	1	CPPC	306	1	vertrauen	559	0	0	0	0	0	0	0	0	0	0	0	0	0	0	0	0	0	0	0	0	0	0	0	0	0	0	0	0	0	0	0	0	0	0	0	0	0	0	0
071019	11:55:17	11:58:14	177061	5.0.10.0	5_exp_noRW	36	Rpleas_acq	CS_A	CPPC	LWWL	ZHHZ	JQQJ	YFFY	DXXD	vertrauen	sonnig	träumen	gütig	küssen	genießen	versagen	sterben	töten	gierig	krank	gemein	47pct	acq_USpleas_CSunple1_noRW	acq1_noRW	1	50	0	0	300	300	603	50	0	1	1	blank2r.bmp	0	1	+	0	1	blank2r.bmp	252	1	ZHHZ	306	2	sonnig	559	0	0	0	0	0	0	0	0	0	0	0	0	0	0	0	0	0	0	0	0	0	0	0	0	0	0	0	0	0	0	0	0	0	0	0	0	0	0	0
071019	11:55:17	11:58:16	178793	5.0.10.0	5_exp_noRW	36	Rpleas_acq	CS_A	CPPC	LWWL	ZHHZ	JQQJ	YFFY	DXXD	vertrauen	sonnig	träumen	gütig	küssen	genießen	versagen	sterben	töten	gierig	krank	gemein	47pct	acq_USunple_CSpleas2_noRW	acq1_noRW	1	51	0	0	300	300	562	46	0	1	1	blank2r.bmp	0	1	+	0	1	blank2r.bmp	252	1	LWWL	306	3	gemein	559	0	0	0	0	0	0	0	0	0	0	0	0	0	0	0	0	0	0	0	0	0	0	0	0	0	0	0	0	0	0	0	0	0	0	0	0	0	0	0
071019	11:55:17	11:58:18	180406	5.0.10.0	5_exp_noRW	36	Rpleas_acq	CS_A	CPPC	LWWL	ZHHZ	JQQJ	YFFY	DXXD	vertrauen	sonnig	träumen	gütig	küssen	genießen	versagen	sterben	töten	gierig	krank	gemein	47pct	acq_USunple_CSunple1_noRW	acq1_noRW	1	52	0	0	300	300	446	46	0	1	1	blank2r.bmp	0	1	+	0	1	blank2r.bmp	252	1	ZHHZ	306	2	sterben	559	0	0	0	0	0	0	0	0	0	0	0	0	0	0	0	0	0	0	0	0	0	0	0	0	0	0	0	0	0	0	0	0	0	0	0	0	0	0	0
071019	11:55:17	11:58:19	182059	5.0.10.0	5_exp_noRW	36	Rpleas_acq	CS_A	CPPC	LWWL	ZHHZ	JQQJ	YFFY	DXXD	vertrauen	sonnig	träumen	gütig	küssen	genießen	versagen	sterben	töten	gierig	krank	gemein	47pct	acq_USpleas_CSpleas2_noRW	acq1_noRW	1	53	0	0	300	300	478	50	0	1	1	blank2r.bmp	0	1	+	0	1	blank2r.bmp	252	1	LWWL	306	2	küssen	559	0	0	0	0	0	0	0	0	0	0	0	0	0	0	0	0	0	0	0	0	0	0	0	0	0	0	0	0	0	0	0	0	0	0	0	0	0	0	0
071019	11:55:17	11:58:21	183858	5.0.10.0	5_exp_noRW	36	Rpleas_acq	CS_A	CPPC	LWWL	ZHHZ	JQQJ	YFFY	DXXD	vertrauen	sonnig	träumen	gütig	küssen	genießen	versagen	sterben	töten	gierig	krank	gemein	53pct	acq_USpleas_CSpleas2_noRW	acq1_noRW	1	54	0	0	300	300	401	46	0	0	1	blank2r.bmp	0	1	+	0	1	blank2r.bmp	252	1	LWWL	306	1	gütig	559	1	FEHLER	999	0	0	0	0	0	0	0	0	0	0	0	0	0	0	0	0	0	0	0	0	0	0	0	0	0	0	0	0	0	0	0	0	0	0	0	0
071019	11:55:17	11:58:23	185297	5.0.10.0	5_exp_noRW	36	Rpleas_acq	CS_A	CPPC	LWWL	ZHHZ	JQQJ	YFFY	DXXD	vertrauen	sonnig	träumen	gütig	küssen	genießen	versagen	sterben	töten	gierig	krank	gemein	53pct	acq_USpleas_CSunple2_noRW	acq1_noRW	1	55	0	0	300	300	488	50	0	1	1	blank2r.bmp	0	1	+	0	1	blank2r.bmp	252	1	JQQJ	306	3	genießen	559	0	0	0	0	0	0	0	0	0	0	0	0	0	0	0	0	0	0	0	0	0	0	0	0	0	0	0	0	0	0	0	0	0	0	0	0	0	0	0
071019	11:55:17	11:58:24	187070	5.0.10.0	5_exp_noRW	36	Rpleas_acq	CS_A	CPPC	LWWL	ZHHZ	JQQJ	YFFY	DXXD	vertrauen	sonnig	träumen	gütig	küssen	genießen	versagen	sterben	töten	gierig	krank	gemein	47pct	acq_USunple_CSunple2_noRW	acq1_noRW	1	56	0	0	300	300	604	46	0	1	1	blank2r.bmp	0	1	+	0	1	blank2r.bmp	252	1	JQQJ	306	3	gemein	559	0	0	0	0	0	0	0	0	0	0	0	0	0	0	0	0	0	0	0	0	0	0	0	0	0	0	0	0	0	0	0	0	0	0	0	0	0	0	0
071019	11:55:17	11:58:26	188816	5.0.10.0	5_exp_noRW	36	Rpleas_acq	CS_A	CPPC	LWWL	ZHHZ	JQQJ	YFFY	DXXD	vertrauen	sonnig	träumen	gütig	küssen	genießen	versagen	sterben	töten	gierig	krank	gemein	47pct	acq_USunple_CSunple1_noRW	acq1_noRW	1	57	0	0	300	300	568	46	0	1	1	blank2r.bmp	0	1	+	0	1	blank2r.bmp	252	1	ZHHZ	306	1	versagen	559	0	0	0	0	0	0	0	0	0	0	0	0	0	0	0	0	0	0	0	0	0	0	0	0	0	0	0	0	0	0	0	0	0	0	0	0	0	0	0
071019	11:55:17	11:58:28	190429	5.0.10.0	5_exp_noRW	36	Rpleas_acq	CS_A	CPPC	LWWL	ZHHZ	JQQJ	YFFY	DXXD	vertrauen	sonnig	träumen	gütig	küssen	genießen	versagen	sterben	töten	gierig	krank	gemein	47pct	acq_USunple_CSunple1_noRW	acq1_noRW	1	58	0	0	300	300	431	46	0	1	1	blank2r.bmp	0	1	+	0	1	blank2r.bmp	252	1	ZHHZ	306	3	töten	559	0	0	0	0	0	0	0	0	0	0	0	0	0	0	0	0	0	0	0	0	0	0	0	0	0	0	0	0	0	0	0	0	0	0	0	0	0	0	0
071019	11:55:17	11:58:29	192001	5.0.10.0	5_exp_noRW	36	Rpleas_acq	CS_A	CPPC	LWWL	ZHHZ	JQQJ	YFFY	DXXD	vertrauen	sonnig	träumen	gütig	küssen	genießen	versagen	sterben	töten	gierig	krank	gemein	47pct	acq_USpleas_CSpleas1_noRW	acq1_noRW	1	59	0	0	300	300	407	50	0	1	1	blank2r.bmp	0	1	+	0	1	blank2r.bmp	252	1	CPPC	306	2	sonnig	559	0	0	0	0	0	0	0	0	0	0	0	0	0	0	0	0	0	0	0	0	0	0	0	0	0	0	0	0	0	0	0	0	0	0	0	0	0	0	0
071019	11:55:17	11:58:31	193681	5.0.10.0	5_exp_noRW	36	Rpleas_acq	CS_A	CPPC	LWWL	ZHHZ	JQQJ	YFFY	DXXD	vertrauen	sonnig	träumen	gütig	küssen	genießen	versagen	sterben	töten	gierig	krank	gemein	53pct	acq_USunple_CSpleas1_noRW	acq1_noRW	1	60	0	0	300	300	494	46	0	1	1	blank2r.bmp	0	1	+	0	1	blank2r.bmp	252	1	CPPC	306	2	sterben	559	0	0	0	0	0	0	0	0	0	0	0	0	0	0	0	0	0	0	0	0	0	0	0	0	0	0	0	0	0	0	0	0	0	0	0	0	0	0	0
071019	11:55:17	11:58:33	195213	5.0.10.0	5_exp_noRW	36	Rpleas_acq	CS_A	CPPC	LWWL	ZHHZ	JQQJ	YFFY	DXXD	vertrauen	sonnig	träumen	gütig	küssen	genießen	versagen	sterben	töten	gierig	krank	gemein	47pct	acq_USpleas_CSunple1_noRW	acq1_noRW	1	61	0	0	300	300	370	50	0	1	1	blank2r.bmp	0	1	+	0	1	blank2r.bmp	252	1	ZHHZ	306	2	sonnig	559	0	0	0	0	0	0	0	0	0	0	0	0	0	0	0	0	0	0	0	0	0	0	0	0	0	0	0	0	0	0	0	0	0	0	0	0	0	0	0
071019	11:55:17	11:58:34	196879	5.0.10.0	5_exp_noRW	36	Rpleas_acq	CS_A	CPPC	LWWL	ZHHZ	JQQJ	YFFY	DXXD	vertrauen	sonnig	träumen	gütig	küssen	genießen	versagen	sterben	töten	gierig	krank	gemein	53pct	acq_USpleas_CSunple2_noRW	acq1_noRW	1	62	0	0	300	300	484	50	0	1	1	blank2r.bmp	0	1	+	0	1	blank2r.bmp	252	1	JQQJ	306	1	gütig	559	0	0	0	0	0	0	0	0	0	0	0	0	0	0	0	0	0	0	0	0	0	0	0	0	0	0	0	0	0	0	0	0	0	0	0	0	0	0	0
071019	11:55:17	11:58:36	198439	5.0.10.0	5_exp_noRW	36	Rpleas_acq	CS_A	CPPC	LWWL	ZHHZ	JQQJ	YFFY	DXXD	vertrauen	sonnig	träumen	gütig	küssen	genießen	versagen	sterben	töten	gierig	krank	gemein	53pct	acq_USpleas_CSpleas1_noRW	acq1_noRW	1	63	0	0	300	300	374	50	0	1	1	blank2r.bmp	0	1	+	0	1	blank2r.bmp	252	1	CPPC	306	2	sonnig	559	0	0	0	0	0	0	0	0	0	0	0	0	0	0	0	0	0	0	0	0	0	0	0	0	0	0	0	0	0	0	0	0	0	0	0	0	0	0	0
071019	11:55:17	11:58:37	200052	5.0.10.0	5_exp_noRW	36	Rpleas_acq	CS_A	CPPC	LWWL	ZHHZ	JQQJ	YFFY	DXXD	vertrauen	sonnig	träumen	gütig	küssen	genießen	versagen	sterben	töten	gierig	krank	gemein	47pct	acq_USunple_CSpleas1_noRW	acq1_noRW	1	64	0	0	300	300	451	46	0	1	1	blank2r.bmp	0	1	+	0	1	blank2r.bmp	252	1	CPPC	306	2	sterben	559	0	0	0	0	0	0	0	0	0	0	0	0	0	0	0	0	0	0	0	0	0	0	0	0	0	0	0	0	0	0	0	0	0	0	0	0	0	0	0
071019	11:55:17	11:58:39	202051	5.0.10.0	5_exp_noRW	36	Rpleas_acq	CS_A	CPPC	LWWL	ZHHZ	JQQJ	YFFY	DXXD	vertrauen	sonnig	träumen	gütig	küssen	genießen	versagen	sterben	töten	gierig	krank	gemein	47pct	acq_USunple_CSunple1_noRW	acq1_noRW	1	65	0	0	300	300	826	46	0	1	1	blank2r.bmp	0	1	+	0	1	blank2r.bmp	252	1	ZHHZ	306	2	sterben	559	0	0	0	0	0	0	0	0	0	0	0	0	0	0	0	0	0	0	0	0	0	0	0	0	0	0	0	0	0	0	0	0	0	0	0	0	0	0	0
071019	11:55:17	11:58:41	203623	5.0.10.0	5_exp_noRW	36	Rpleas_acq	CS_A	CPPC	LWWL	ZHHZ	JQQJ	YFFY	DXXD	vertrauen	sonnig	träumen	gütig	küssen	genießen	versagen	sterben	töten	gierig	krank	gemein	47pct	acq_USpleas_CSpleas2_noRW	acq1_noRW	1	66	0	0	300	300	406	50	0	1	1	blank2r.bmp	0	1	+	0	1	blank2r.bmp	252	1	LWWL	306	2	küssen	559	0	0	0	0	0	0	0	0	0	0	0	0	0	0	0	0	0	0	0	0	0	0	0	0	0	0	0	0	0	0	0	0	0	0	0	0	0	0	0
071019	11:55:17	11:58:43	205396	5.0.10.0	5_exp_noRW	36	Rpleas_acq	CS_A	CPPC	LWWL	ZHHZ	JQQJ	YFFY	DXXD	vertrauen	sonnig	träumen	gütig	küssen	genießen	versagen	sterben	töten	gierig	krank	gemein	47pct	acq_USunple_CSunple1_noRW	acq1_noRW	1	67	0	0	300	300	593	46	0	1	1	blank2r.bmp	0	1	+	0	1	blank2r.bmp	252	1	ZHHZ	306	1	versagen	559	0	0	0	0	0	0	0	0	0	0	0	0	0	0	0	0	0	0	0	0	0	0	0	0	0	0	0	0	0	0	0	0	0	0	0	0	0	0	0
071019	11:55:17	11:58:44	207102	5.0.10.0	5_exp_noRW	36	Rpleas_acq	CS_A	CPPC	LWWL	ZHHZ	JQQJ	YFFY	DXXD	vertrauen	sonnig	träumen	gütig	küssen	genießen	versagen	sterben	töten	gierig	krank	gemein	53pct	acq_USunple_CSunple2_noRW	acq1_noRW	1	68	0	0	300	300	529	46	0	1	1	blank2r.bmp	0	1	+	0	1	blank2r.bmp	252	1	JQQJ	306	3	gemein	559	0	0	0	0	0	0	0	0	0	0	0	0	0	0	0	0	0	0	0	0	0	0	0	0	0	0	0	0	0	0	0	0	0	0	0	0	0	0	0
071019	11:55:17	11:58:46	208741	5.0.10.0	5_exp_noRW	36	Rpleas_acq	CS_A	CPPC	LWWL	ZHHZ	JQQJ	YFFY	DXXD	vertrauen	sonnig	träumen	gütig	küssen	genießen	versagen	sterben	töten	gierig	krank	gemein	47pct	acq_USunple_CSunple1_noRW	acq1_noRW	1	69	0	0	300	300	452	46	0	1	1	blank2r.bmp	0	1	+	0	1	blank2r.bmp	252	1	ZHHZ	306	3	töten	559	0	0	0	0	0	0	0	0	0	0	0	0	0	0	0	0	0	0	0	0	0	0	0	0	0	0	0	0	0	0	0	0	0	0	0	0	0	0	0
071019	11:55:17	11:58:48	210367	5.0.10.0	5_exp_noRW	36	Rpleas_acq	CS_A	CPPC	LWWL	ZHHZ	JQQJ	YFFY	DXXD	vertrauen	sonnig	träumen	gütig	küssen	genießen	versagen	sterben	töten	gierig	krank	gemein	47pct	acq_USpleas_CSpleas2_noRW	acq1_noRW	1	70	0	0	300	300	453	50	0	1	1	blank2r.bmp	0	1	+	0	1	blank2r.bmp	252	1	LWWL	306	3	genießen	559	0	0	0	0	0	0	0	0	0	0	0	0	0	0	0	0	0	0	0	0	0	0	0	0	0	0	0	0	0	0	0	0	0	0	0	0	0	0	0
071019	11:55:17	11:58:49	212087	5.0.10.0	5_exp_noRW	36	Rpleas_acq	CS_A	CPPC	LWWL	ZHHZ	JQQJ	YFFY	DXXD	vertrauen	sonnig	träumen	gütig	küssen	genießen	versagen	sterben	töten	gierig	krank	gemein	47pct	acq_USunple_CSunple2_noRW	acq1_noRW	1	71	0	0	300	300	546	46	0	1	1	blank2r.bmp	0	1	+	0	1	blank2r.bmp	252	1	JQQJ	306	1	gierig	559	0	0	0	0	0	0	0	0	0	0	0	0	0	0	0	0	0	0	0	0	0	0	0	0	0	0	0	0	0	0	0	0	0	0	0	0	0	0	0
071019	11:55:17	11:58:51	213793	5.0.10.0	5_exp_noRW	36	Rpleas_acq	CS_A	CPPC	LWWL	ZHHZ	JQQJ	YFFY	DXXD	vertrauen	sonnig	träumen	gütig	küssen	genießen	versagen	sterben	töten	gierig	krank	gemein	53pct	acq_USpleas_CSpleas2_noRW	acq1_noRW	1	72	0	0	300	300	539	50	0	1	1	blank2r.bmp	0	1	+	0	1	blank2r.bmp	252	1	LWWL	306	1	gütig	559	0	0	0	0	0	0	0	0	0	0	0	0	0	0	0	0	0	0	0	0	0	0	0	0	0	0	0	0	0	0	0	0	0	0	0	0	0	0	0
071019	11:55:17	11:58:53	215419	5.0.10.0	5_exp_noRW	36	Rpleas_acq	CS_A	CPPC	LWWL	ZHHZ	JQQJ	YFFY	DXXD	vertrauen	sonnig	träumen	gütig	küssen	genießen	versagen	sterben	töten	gierig	krank	gemein	47pct	acq_USpleas_CSpleas2_noRW	acq1_noRW	1	73	0	0	300	300	443	50	0	1	1	blank2r.bmp	0	1	+	0	1	blank2r.bmp	252	1	LWWL	306	2	küssen	559	0	0	0	0	0	0	0	0	0	0	0	0	0	0	0	0	0	0	0	0	0	0	0	0	0	0	0	0	0	0	0	0	0	0	0	0	0	0	0
071019	11:55:17	11:58:54	217058	5.0.10.0	5_exp_noRW	36	Rpleas_acq	CS_A	CPPC	LWWL	ZHHZ	JQQJ	YFFY	DXXD	vertrauen	sonnig	träumen	gütig	küssen	genießen	versagen	sterben	töten	gierig	krank	gemein	47pct	acq_USpleas_CSpleas1_noRW	acq1_noRW	1	74	0	0	300	300	468	50	0	1	1	blank2r.bmp	0	1	+	0	1	blank2r.bmp	252	1	CPPC	306	3	träumen	559	0	0	0	0	0	0	0	0	0	0	0	0	0	0	0	0	0	0	0	0	0	0	0	0	0	0	0	0	0	0	0	0	0	0	0	0	0	0	0
071019	11:55:17	11:58:56	218697	5.0.10.0	5_exp_noRW	36	Rpleas_acq	CS_A	CPPC	LWWL	ZHHZ	JQQJ	YFFY	DXXD	vertrauen	sonnig	träumen	gütig	küssen	genießen	versagen	sterben	töten	gierig	krank	gemein	53pct	acq_USunple_CSunple1_noRW	acq1_noRW	1	75	0	0	300	300	477	46	0	1	1	blank2r.bmp	0	1	+	0	1	blank2r.bmp	252	1	ZHHZ	306	1	versagen	559	0	0	0	0	0	0	0	0	0	0	0	0	0	0	0	0	0	0	0	0	0	0	0	0	0	0	0	0	0	0	0	0	0	0	0	0	0	0	0
071019	11:55:17	11:58:58	220563	5.0.10.0	5_exp_noRW	36	Rpleas_acq	CS_A	CPPC	LWWL	ZHHZ	JQQJ	YFFY	DXXD	vertrauen	sonnig	träumen	gütig	küssen	genießen	versagen	sterben	töten	gierig	krank	gemein	47pct	acq_USpleas_CSpleas1_noRW	acq1_noRW	1	76	0	0	300	300	476	46	0	0	1	blank2r.bmp	0	1	+	0	1	blank2r.bmp	252	1	CPPC	306	1	vertrauen	559	1	FEHLER	1066	0	0	0	0	0	0	0	0	0	0	0	0	0	0	0	0	0	0	0	0	0	0	0	0	0	0	0	0	0	0	0	0	0	0	0	0
071019	11:55:17	11:58:59	222003	5.0.10.0	5_exp_noRW	36	Rpleas_acq	CS_A	CPPC	LWWL	ZHHZ	JQQJ	YFFY	DXXD	vertrauen	sonnig	träumen	gütig	küssen	genießen	versagen	sterben	töten	gierig	krank	gemein	47pct	acq_USpleas_CSpleas1_noRW	acq1_noRW	1	77	0	0	300	300	467	50	0	1	1	blank2r.bmp	0	1	+	0	1	blank2r.bmp	252	1	CPPC	306	3	träumen	559	0	0	0	0	0	0	0	0	0	0	0	0	0	0	0	0	0	0	0	0	0	0	0	0	0	0	0	0	0	0	0	0	0	0	0	0	0	0	0
071019	11:55:17	11:59:01	223615	5.0.10.0	5_exp_noRW	36	Rpleas_acq	CS_A	CPPC	LWWL	ZHHZ	JQQJ	YFFY	DXXD	vertrauen	sonnig	träumen	gütig	küssen	genießen	versagen	sterben	töten	gierig	krank	gemein	47pct	acq_USunple_CSunple2_noRW	acq1_noRW	1	78	0	0	300	300	449	46	0	1	1	blank2r.bmp	0	1	+	0	1	blank2r.bmp	252	1	JQQJ	306	2	krank	559	0	0	0	0	0	0	0	0	0	0	0	0	0	0	0	0	0	0	0	0	0	0	0	0	0	0	0	0	0	0	0	0	0	0	0	0	0	0	0
071019	11:55:17	11:59:03	225468	5.0.10.0	5_exp_noRW	36	Rpleas_acq	CS_A	CPPC	LWWL	ZHHZ	JQQJ	YFFY	DXXD	vertrauen	sonnig	träumen	gütig	küssen	genießen	versagen	sterben	töten	gierig	krank	gemein	47pct	acq_USunple_CSunple2_noRW	acq1_noRW	1	79	0	0	300	300	459	50	0	0	1	blank2r.bmp	0	1	+	0	1	blank2r.bmp	252	1	JQQJ	306	3	gemein	559	1	FEHLER	1052	0	0	0	0	0	0	0	0	0	0	0	0	0	0	0	0	0	0	0	0	0	0	0	0	0	0	0	0	0	0	0	0	0	0	0	0
071019	11:55:17	11:59:04	226974	5.0.10.0	5_exp_noRW	36	Rpleas_acq	CS_A	CPPC	LWWL	ZHHZ	JQQJ	YFFY	DXXD	vertrauen	sonnig	träumen	gütig	küssen	genießen	versagen	sterben	töten	gierig	krank	gemein	53pct	acq_USunple_CSpleas2_noRW	acq1_noRW	1	80	0	0	300	300	538	46	0	1	1	blank2r.bmp	0	1	+	0	1	blank2r.bmp	252	1	LWWL	306	1	gierig	559	0	0	0	0	0	0	0	0	0	0	0	0	0	0	0	0	0	0	0	0	0	0	0	0	0	0	0	0	0	0	0	0	0	0	0	0	0	0	0
071019	11:55:17	11:59:16	238383	5.0.10.0	5_exp_noRW	36	Rpleas_acq	CS_A	CPPC	LWWL	ZHHZ	JQQJ	YFFY	DXXD	vertrauen	sonnig	träumen	gütig	küssen	genießen	versagen	sterben	töten	gierig	krank	gemein	47pct	acq_USpleas_CSunple2_noRW	acq23456_noRW	2	1	0	0	300	300	863	50	0	1	1	blank2r.bmp	0	1	+	0	1	blank2r.bmp	252	1	JQQJ	306	2	küssen	559	0	0	0	0	0	0	0	0	0	0	0	0	0	0	0	0	0	0	0	0	0	0	0	0	0	0	0	0	0	0	0	0	0	0	0	0	0	0	0
071019	11:55:17	11:59:17	239982	5.0.10.0	5_exp_noRW	36	Rpleas_acq	CS_A	CPPC	LWWL	ZHHZ	JQQJ	YFFY	DXXD	vertrauen	sonnig	träumen	gütig	küssen	genießen	versagen	sterben	töten	gierig	krank	gemein	47pct	acq_USunple_CSunple2_noRW	acq23456_noRW	2	2	0	0	300	300	425	46	0	1	1	blank2r.bmp	0	1	+	0	1	blank2r.bmp	252	1	JQQJ	306	2	krank	559	0	0	0	0	0	0	0	0	0	0	0	0	0	0	0	0	0	0	0	0	0	0	0	0	0	0	0	0	0	0	0	0	0	0	0	0	0	0	0
071019	11:55:17	11:59:19	241608	5.0.10.0	5_exp_noRW	36	Rpleas_acq	CS_A	CPPC	LWWL	ZHHZ	JQQJ	YFFY	DXXD	vertrauen	sonnig	träumen	gütig	küssen	genießen	versagen	sterben	töten	gierig	krank	gemein	47pct	acq_USunple_CSunple2_noRW	acq23456_noRW	2	3	0	0	300	300	438	46	0	1	1	blank2r.bmp	0	1	+	0	1	blank2r.bmp	252	1	JQQJ	306	1	gierig	559	0	0	0	0	0	0	0	0	0	0	0	0	0	0	0	0	0	0	0	0	0	0	0	0	0	0	0	0	0	0	0	0	0	0	0	0	0	0	0
071019	11:55:17	11:59:21	243247	5.0.10.0	5_exp_noRW	36	Rpleas_acq	CS_A	CPPC	LWWL	ZHHZ	JQQJ	YFFY	DXXD	vertrauen	sonnig	träumen	gütig	küssen	genießen	versagen	sterben	töten	gierig	krank	gemein	53pct	acq_USpleas_CSpleas1_noRW	acq23456_noRW	2	4	0	0	300	300	452	50	0	1	1	blank2r.bmp	0	1	+	0	1	blank2r.bmp	252	1	CPPC	306	1	vertrauen	559	0	0	0	0	0	0	0	0	0	0	0	0	0	0	0	0	0	0	0	0	0	0	0	0	0	0	0	0	0	0	0	0	0	0	0	0	0	0	0
071019	11:55:17	11:59:22	245100	5.0.10.0	5_exp_noRW	36	Rpleas_acq	CS_A	CPPC	LWWL	ZHHZ	JQQJ	YFFY	DXXD	vertrauen	sonnig	träumen	gütig	küssen	genießen	versagen	sterben	töten	gierig	krank	gemein	47pct	acq_USpleas_CSpleas2_noRW	acq23456_noRW	2	5	0	0	300	300	470	46	0	0	1	blank2r.bmp	0	1	+	0	1	blank2r.bmp	252	1	LWWL	306	3	genießen	559	1	FEHLER	1066	0	0	0	0	0	0	0	0	0	0	0	0	0	0	0	0	0	0	0	0	0	0	0	0	0	0	0	0	0	0	0	0	0	0	0	0
071019	11:55:17	11:59:24	246486	5.0.10.0	5_exp_noRW	36	Rpleas_acq	CS_A	CPPC	LWWL	ZHHZ	JQQJ	YFFY	DXXD	vertrauen	sonnig	träumen	gütig	küssen	genießen	versagen	sterben	töten	gierig	krank	gemein	47pct	acq_USpleas_CSpleas1_noRW	acq23456_noRW	2	6	0	0	300	300	427	50	0	1	1	blank2r.bmp	0	1	+	0	1	blank2r.bmp	252	1	CPPC	306	2	sonnig	559	0	0	0	0	0	0	0	0	0	0	0	0	0	0	0	0	0	0	0	0	0	0	0	0	0	0	0	0	0	0	0	0	0	0	0	0	0	0	0
071019	11:55:17	11:59:26	248205	5.0.10.0	5_exp_noRW	36	Rpleas_acq	CS_A	CPPC	LWWL	ZHHZ	JQQJ	YFFY	DXXD	vertrauen	sonnig	träumen	gütig	küssen	genießen	versagen	sterben	töten	gierig	krank	gemein	53pct	acq_USunple_CSpleas2_noRW	acq23456_noRW	2	7	0	0	300	300	551	46	0	1	1	blank2r.bmp	0	1	+	0	1	blank2r.bmp	252	1	LWWL	306	3	gemein	559	0	0	0	0	0	0	0	0	0	0	0	0	0	0	0	0	0	0	0	0	0	0	0	0	0	0	0	0	0	0	0	0	0	0	0	0	0	0	0
071019	11:55:17	11:59:27	249778	5.0.10.0	5_exp_noRW	36	Rpleas_acq	CS_A	CPPC	LWWL	ZHHZ	JQQJ	YFFY	DXXD	vertrauen	sonnig	träumen	gütig	küssen	genießen	versagen	sterben	töten	gierig	krank	gemein	47pct	acq_USunple_CSunple2_noRW	acq23456_noRW	2	8	0	0	300	300	391	46	0	1	1	blank2r.bmp	0	1	+	0	1	blank2r.bmp	252	1	JQQJ	306	3	gemein	559	0	0	0	0	0	0	0	0	0	0	0	0	0	0	0	0	0	0	0	0	0	0	0	0	0	0	0	0	0	0	0	0	0	0	0	0	0	0	0
071019	11:55:17	11:59:29	251364	5.0.10.0	5_exp_noRW	36	Rpleas_acq	CS_A	CPPC	LWWL	ZHHZ	JQQJ	YFFY	DXXD	vertrauen	sonnig	träumen	gütig	küssen	genießen	versagen	sterben	töten	gierig	krank	gemein	53pct	acq_USpleas_CSunple1_noRW	acq23456_noRW	2	9	0	0	300	300	406	50	0	1	1	blank2r.bmp	0	1	+	0	1	blank2r.bmp	252	1	ZHHZ	306	1	vertrauen	559	0	0	0	0	0	0	0	0	0	0	0	0	0	0	0	0	0	0	0	0	0	0	0	0	0	0	0	0	0	0	0	0	0	0	0	0	0	0	0
071019	11:55:17	11:59:30	252950	5.0.10.0	5_exp_noRW	36	Rpleas_acq	CS_A	CPPC	LWWL	ZHHZ	JQQJ	YFFY	DXXD	vertrauen	sonnig	träumen	gütig	küssen	genießen	versagen	sterben	töten	gierig	krank	gemein	53pct	acq_USunple_CSunple1_noRW	acq23456_noRW	2	10	0	0	300	300	422	46	0	1	1	blank2r.bmp	0	1	+	0	1	blank2r.bmp	252	1	ZHHZ	306	2	sterben	559	0	0	0	0	0	0	0	0	0	0	0	0	0	0	0	0	0	0	0	0	0	0	0	0	0	0	0	0	0	0	0	0	0	0	0	0	0	0	0
071019	11:55:17	11:59:32	254496	5.0.10.0	5_exp_noRW	36	Rpleas_acq	CS_A	CPPC	LWWL	ZHHZ	JQQJ	YFFY	DXXD	vertrauen	sonnig	träumen	gütig	küssen	genießen	versagen	sterben	töten	gierig	krank	gemein	47pct	acq_USpleas_CSpleas1_noRW	acq23456_noRW	2	11	0	0	300	300	364	50	0	1	1	blank2r.bmp	0	1	+	0	1	blank2r.bmp	252	1	CPPC	306	2	sonnig	559	0	0	0	0	0	0	0	0	0	0	0	0	0	0	0	0	0	0	0	0	0	0	0	0	0	0	0	0	0	0	0	0	0	0	0	0	0	0	0
071019	11:55:17	11:59:34	256215	5.0.10.0	5_exp_noRW	36	Rpleas_acq	CS_A	CPPC	LWWL	ZHHZ	JQQJ	YFFY	DXXD	vertrauen	sonnig	träumen	gütig	küssen	genießen	versagen	sterben	töten	gierig	krank	gemein	53pct	acq_USpleas_CSpleas2_noRW	acq23456_noRW	2	12	0	0	300	300	339	46	0	0	1	blank2r.bmp	0	1	+	0	1	blank2r.bmp	252	1	LWWL	306	1	gütig	559	1	FEHLER	932	0	0	0	0	0	0	0	0	0	0	0	0	0	0	0	0	0	0	0	0	0	0	0	0	0	0	0	0	0	0	0	0	0	0	0	0
071019	11:55:17	11:59:35	257748	5.0.10.0	5_exp_noRW	36	Rpleas_acq	CS_A	CPPC	LWWL	ZHHZ	JQQJ	YFFY	DXXD	vertrauen	sonnig	träumen	gütig	küssen	genießen	versagen	sterben	töten	gierig	krank	gemein	47pct	acq_USpleas_CSpleas2_noRW	acq23456_noRW	2	13	0	0	300	300	558	50	0	1	1	blank2r.bmp	0	1	+	0	1	blank2r.bmp	252	1	LWWL	306	1	gütig	559	0	0	0	0	0	0	0	0	0	0	0	0	0	0	0	0	0	0	0	0	0	0	0	0	0	0	0	0	0	0	0	0	0	0	0	0	0	0	0
071019	11:55:17	11:59:37	259361	5.0.10.0	5_exp_noRW	36	Rpleas_acq	CS_A	CPPC	LWWL	ZHHZ	JQQJ	YFFY	DXXD	vertrauen	sonnig	träumen	gütig	küssen	genießen	versagen	sterben	töten	gierig	krank	gemein	53pct	acq_USpleas_CSpleas1_noRW	acq23456_noRW	2	14	0	0	300	300	442	50	0	1	1	blank2r.bmp	0	1	+	0	1	blank2r.bmp	252	1	CPPC	306	3	träumen	559	0	0	0	0	0	0	0	0	0	0	0	0	0	0	0	0	0	0	0	0	0	0	0	0	0	0	0	0	0	0	0	0	0	0	0	0	0	0	0
071019	11:55:17	11:59:38	261000	5.0.10.0	5_exp_noRW	36	Rpleas_acq	CS_A	CPPC	LWWL	ZHHZ	JQQJ	YFFY	DXXD	vertrauen	sonnig	träumen	gütig	küssen	genießen	versagen	sterben	töten	gierig	krank	gemein	53pct	acq_USunple_CSunple1_noRW	acq23456_noRW	2	15	0	0	300	300	462	46	0	1	1	blank2r.bmp	0	1	+	0	1	blank2r.bmp	252	1	ZHHZ	306	3	töten	559	0	0	0	0	0	0	0	0	0	0	0	0	0	0	0	0	0	0	0	0	0	0	0	0	0	0	0	0	0	0	0	0	0	0	0	0	0	0	0
071019	11:55:17	11:59:40	262613	5.0.10.0	5_exp_noRW	36	Rpleas_acq	CS_A	CPPC	LWWL	ZHHZ	JQQJ	YFFY	DXXD	vertrauen	sonnig	träumen	gütig	küssen	genießen	versagen	sterben	töten	gierig	krank	gemein	47pct	acq_USpleas_CSpleas2_noRW	acq23456_noRW	2	16	0	0	300	300	439	50	0	1	1	blank2r.bmp	0	1	+	0	1	blank2r.bmp	252	1	LWWL	306	2	küssen	559	0	0	0	0	0	0	0	0	0	0	0	0	0	0	0	0	0	0	0	0	0	0	0	0	0	0	0	0	0	0	0	0	0	0	0	0	0	0	0
071019	11:55:17	11:59:42	264306	5.0.10.0	5_exp_noRW	36	Rpleas_acq	CS_A	CPPC	LWWL	ZHHZ	JQQJ	YFFY	DXXD	vertrauen	sonnig	träumen	gütig	küssen	genießen	versagen	sterben	töten	gierig	krank	gemein	47pct	acq_USunple_CSunple1_noRW	acq23456_noRW	2	17	0	0	300	300	520	46	0	1	1	blank2r.bmp	0	1	+	0	1	blank2r.bmp	252	1	ZHHZ	306	2	sterben	559	0	0	0	0	0	0	0	0	0	0	0	0	0	0	0	0	0	0	0	0	0	0	0	0	0	0	0	0	0	0	0	0	0	0	0	0	0	0	0
071019	11:55:17	11:59:43	265945	5.0.10.0	5_exp_noRW	36	Rpleas_acq	CS_A	CPPC	LWWL	ZHHZ	JQQJ	YFFY	DXXD	vertrauen	sonnig	träumen	gütig	küssen	genießen	versagen	sterben	töten	gierig	krank	gemein	47pct	acq_USunple_CSunple2_noRW	acq23456_noRW	2	18	0	0	300	300	460	46	0	1	1	blank2r.bmp	0	1	+	0	1	blank2r.bmp	252	1	JQQJ	306	2	krank	559	0	0	0	0	0	0	0	0	0	0	0	0	0	0	0	0	0	0	0	0	0	0	0	0	0	0	0	0	0	0	0	0	0	0	0	0	0	0	0
071019	11:55:17	11:59:45	267837	5.0.10.0	5_exp_noRW	36	Rpleas_acq	CS_A	CPPC	LWWL	ZHHZ	JQQJ	YFFY	DXXD	vertrauen	sonnig	träumen	gütig	küssen	genießen	versagen	sterben	töten	gierig	krank	gemein	53pct	acq_USunple_CSpleas1_noRW	acq23456_noRW	2	19	0	0	300	300	707	46	0	1	1	blank2r.bmp	0	1	+	0	1	blank2r.bmp	252	1	CPPC	306	1	versagen	559	0	0	0	0	0	0	0	0	0	0	0	0	0	0	0	0	0	0	0	0	0	0	0	0	0	0	0	0	0	0	0	0	0	0	0	0	0	0	0
071019	11:55:17	11:59:47	269490	5.0.10.0	5_exp_noRW	36	Rpleas_acq	CS_A	CPPC	LWWL	ZHHZ	JQQJ	YFFY	DXXD	vertrauen	sonnig	träumen	gütig	küssen	genießen	versagen	sterben	töten	gierig	krank	gemein	47pct	acq_USunple_CSunple1_noRW	acq23456_noRW	2	20	0	0	300	300	484	46	0	1	1	blank2r.bmp	0	1	+	0	1	blank2r.bmp	252	1	ZHHZ	306	1	versagen	559	0	0	0	0	0	0	0	0	0	0	0	0	0	0	0	0	0	0	0	0	0	0	0	0	0	0	0	0	0	0	0	0	0	0	0	0	0	0	0
071019	11:55:17	11:59:49	271236	5.0.10.0	5_exp_noRW	36	Rpleas_acq	CS_A	CPPC	LWWL	ZHHZ	JQQJ	YFFY	DXXD	vertrauen	sonnig	träumen	gütig	küssen	genießen	versagen	sterben	töten	gierig	krank	gemein	47pct	acq_USunple_CSpleas2_noRW	acq23456_noRW	2	21	0	0	300	300	573	46	0	1	1	blank2r.bmp	0	1	+	0	1	blank2r.bmp	252	1	LWWL	306	2	krank	559	0	0	0	0	0	0	0	0	0	0	0	0	0	0	0	0	0	0	0	0	0	0	0	0	0	0	0	0	0	0	0	0	0	0	0	0	0	0	0
071019	11:55:17	11:59:50	273009	5.0.10.0	5_exp_noRW	36	Rpleas_acq	CS_A	CPPC	LWWL	ZHHZ	JQQJ	YFFY	DXXD	vertrauen	sonnig	träumen	gütig	küssen	genießen	versagen	sterben	töten	gierig	krank	gemein	53pct	acq_USpleas_CSpleas1_noRW	acq23456_noRW	2	22	0	0	300	300	387	46	0	0	1	blank2r.bmp	0	1	+	0	1	blank2r.bmp	252	1	CPPC	306	1	vertrauen	559	1	FEHLER	986	0	0	0	0	0	0	0	0	0	0	0	0	0	0	0	0	0	0	0	0	0	0	0	0	0	0	0	0	0	0	0	0	0	0	0	0
071019	11:55:17	11:59:52	274461	5.0.10.0	5_exp_noRW	36	Rpleas_acq	CS_A	CPPC	LWWL	ZHHZ	JQQJ	YFFY	DXXD	vertrauen	sonnig	träumen	gütig	küssen	genießen	versagen	sterben	töten	gierig	krank	gemein	53pct	acq_USpleas_CSpleas1_noRW	acq23456_noRW	2	23	0	0	300	300	502	50	0	1	1	blank2r.bmp	0	1	+	0	1	blank2r.bmp	252	1	CPPC	306	3	träumen	559	0	0	0	0	0	0	0	0	0	0	0	0	0	0	0	0	0	0	0	0	0	0	0	0	0	0	0	0	0	0	0	0	0	0	0	0	0	0	0
071019	11:55:17	11:59:53	276087	5.0.10.0	5_exp_noRW	36	Rpleas_acq	CS_A	CPPC	LWWL	ZHHZ	JQQJ	YFFY	DXXD	vertrauen	sonnig	träumen	gütig	küssen	genießen	versagen	sterben	töten	gierig	krank	gemein	53pct	acq_USunple_CSunple2_noRW	acq23456_noRW	2	24	0	0	300	300	440	46	0	1	1	blank2r.bmp	0	1	+	0	1	blank2r.bmp	252	1	JQQJ	306	1	gierig	559	0	0	0	0	0	0	0	0	0	0	0	0	0	0	0	0	0	0	0	0	0	0	0	0	0	0	0	0	0	0	0	0	0	0	0	0	0	0	0
071019	11:55:17	11:59:55	277660	5.0.10.0	5_exp_noRW	36	Rpleas_acq	CS_A	CPPC	LWWL	ZHHZ	JQQJ	YFFY	DXXD	vertrauen	sonnig	träumen	gütig	küssen	genießen	versagen	sterben	töten	gierig	krank	gemein	53pct	acq_USpleas_CSpleas2_noRW	acq23456_noRW	2	25	0	0	300	300	405	50	0	1	1	blank2r.bmp	0	1	+	0	1	blank2r.bmp	252	1	LWWL	306	3	genießen	559	0	0	0	0	0	0	0	0	0	0	0	0	0	0	0	0	0	0	0	0	0	0	0	0	0	0	0	0	0	0	0	0	0	0	0	0	0	0	0
071019	11:55:17	11:59:57	279273	5.0.10.0	5_exp_noRW	36	Rpleas_acq	CS_A	CPPC	LWWL	ZHHZ	JQQJ	YFFY	DXXD	vertrauen	sonnig	träumen	gütig	küssen	genießen	versagen	sterben	töten	gierig	krank	gemein	47pct	acq_USunple_CSpleas1_noRW	acq23456_noRW	2	26	0	0	300	300	428	46	0	1	1	blank2r.bmp	0	1	+	0	1	blank2r.bmp	252	1	CPPC	306	3	töten	559	0	0	0	0	0	0	0	0	0	0	0	0	0	0	0	0	0	0	0	0	0	0	0	0	0	0	0	0	0	0	0	0	0	0	0	0	0	0	0
071019	11:55:17	11:59:58	280872	5.0.10.0	5_exp_noRW	36	Rpleas_acq	CS_A	CPPC	LWWL	ZHHZ	JQQJ	YFFY	DXXD	vertrauen	sonnig	träumen	gütig	küssen	genießen	versagen	sterben	töten	gierig	krank	gemein	47pct	acq_USunple_CSunple1_noRW	acq23456_noRW	2	27	0	0	300	300	432	46	0	1	1	blank2r.bmp	0	1	+	0	1	blank2r.bmp	252	1	ZHHZ	306	3	töten	559	0	0	0	0	0	0	0	0	0	0	0	0	0	0	0	0	0	0	0	0	0	0	0	0	0	0	0	0	0	0	0	0	0	0	0	0	0	0	0
071019	11:55:17	12:00:00	282591	5.0.10.0	5_exp_noRW	36	Rpleas_acq	CS_A	CPPC	LWWL	ZHHZ	JQQJ	YFFY	DXXD	vertrauen	sonnig	träumen	gütig	küssen	genießen	versagen	sterben	töten	gierig	krank	gemein	53pct	acq_USunple_CSunple2_noRW	acq23456_noRW	2	28	0	0	300	300	536	46	0	1	1	blank2r.bmp	0	1	+	0	1	blank2r.bmp	252	1	JQQJ	306	1	gierig	559	0	0	0	0	0	0	0	0	0	0	0	0	0	0	0	0	0	0	0	0	0	0	0	0	0	0	0	0	0	0	0	0	0	0	0	0	0	0	0
071019	11:55:17	12:00:02	284404	5.0.10.0	5_exp_noRW	36	Rpleas_acq	CS_A	CPPC	LWWL	ZHHZ	JQQJ	YFFY	DXXD	vertrauen	sonnig	träumen	gütig	küssen	genießen	versagen	sterben	töten	gierig	krank	gemein	47pct	acq_USpleas_CSpleas2_noRW	acq23456_noRW	2	29	0	0	300	300	428	46	0	0	1	blank2r.bmp	0	1	+	0	1	blank2r.bmp	252	1	LWWL	306	1	gütig	559	1	FEHLER	1026	0	0	0	0	0	0	0	0	0	0	0	0	0	0	0	0	0	0	0	0	0	0	0	0	0	0	0	0	0	0	0	0	0	0	0	0
071019	11:55:17	12:00:03	285777	5.0.10.0	5_exp_noRW	36	Rpleas_acq	CS_A	CPPC	LWWL	ZHHZ	JQQJ	YFFY	DXXD	vertrauen	sonnig	träumen	gütig	küssen	genießen	versagen	sterben	töten	gierig	krank	gemein	53pct	acq_USunple_CSunple1_noRW	acq23456_noRW	2	30	0	0	300	300	424	46	0	1	1	blank2r.bmp	0	1	+	0	1	blank2r.bmp	252	1	ZHHZ	306	2	sterben	559	0	0	0	0	0	0	0	0	0	0	0	0	0	0	0	0	0	0	0	0	0	0	0	0	0	0	0	0	0	0	0	0	0	0	0	0	0	0	0
071019	11:55:17	12:00:05	287416	5.0.10.0	5_exp_noRW	36	Rpleas_acq	CS_A	CPPC	LWWL	ZHHZ	JQQJ	YFFY	DXXD	vertrauen	sonnig	träumen	gütig	küssen	genießen	versagen	sterben	töten	gierig	krank	gemein	47pct	acq_USpleas_CSpleas1_noRW	acq23456_noRW	2	31	0	0	300	300	464	50	0	1	1	blank2r.bmp	0	1	+	0	1	blank2r.bmp	252	1	CPPC	306	1	vertrauen	559	0	0	0	0	0	0	0	0	0	0	0	0	0	0	0	0	0	0	0	0	0	0	0	0	0	0	0	0	0	0	0	0	0	0	0	0	0	0	0
071019	11:55:17	12:00:06	289122	5.0.10.0	5_exp_noRW	36	Rpleas_acq	CS_A	CPPC	LWWL	ZHHZ	JQQJ	YFFY	DXXD	vertrauen	sonnig	träumen	gütig	küssen	genießen	versagen	sterben	töten	gierig	krank	gemein	53pct	acq_USunple_CSunple1_noRW	acq23456_noRW	2	32	0	0	300	300	524	46	0	1	1	blank2r.bmp	0	1	+	0	1	blank2r.bmp	252	1	ZHHZ	306	1	versagen	559	0	0	0	0	0	0	0	0	0	0	0	0	0	0	0	0	0	0	0	0	0	0	0	0	0	0	0	0	0	0	0	0	0	0	0	0	0	0	0
071019	11:55:17	12:00:08	291015	5.0.10.0	5_exp_noRW	36	Rpleas_acq	CS_A	CPPC	LWWL	ZHHZ	JQQJ	YFFY	DXXD	vertrauen	sonnig	träumen	gütig	küssen	genießen	versagen	sterben	töten	gierig	krank	gemein	47pct	acq_USpleas_CSunple2_noRW	acq23456_noRW	2	33	0	0	300	300	708	50	0	1	1	blank2r.bmp	0	1	+	0	1	blank2r.bmp	252	1	JQQJ	306	3	genießen	559	0	0	0	0	0	0	0	0	0	0	0	0	0	0	0	0	0	0	0	0	0	0	0	0	0	0	0	0	0	0	0	0	0	0	0	0	0	0	0
071019	11:55:17	12:00:10	292681	5.0.10.0	5_exp_noRW	36	Rpleas_acq	CS_A	CPPC	LWWL	ZHHZ	JQQJ	YFFY	DXXD	vertrauen	sonnig	träumen	gütig	küssen	genießen	versagen	sterben	töten	gierig	krank	gemein	53pct	acq_USpleas_CSpleas2_noRW	acq23456_noRW	2	34	0	0	300	300	495	50	0	1	1	blank2r.bmp	0	1	+	0	1	blank2r.bmp	252	1	LWWL	306	2	küssen	559	0	0	0	0	0	0	0	0	0	0	0	0	0	0	0	0	0	0	0	0	0	0	0	0	0	0	0	0	0	0	0	0	0	0	0	0	0	0	0
071019	11:55:17	12:00:12	294267	5.0.10.0	5_exp_noRW	36	Rpleas_acq	CS_A	CPPC	LWWL	ZHHZ	JQQJ	YFFY	DXXD	vertrauen	sonnig	träumen	gütig	küssen	genießen	versagen	sterben	töten	gierig	krank	gemein	53pct	acq_USpleas_CSpleas1_noRW	acq23456_noRW	2	35	0	0	300	300	406	50	0	1	1	blank2r.bmp	0	1	+	0	1	blank2r.bmp	252	1	CPPC	306	2	sonnig	559	0	0	0	0	0	0	0	0	0	0	0	0	0	0	0	0	0	0	0	0	0	0	0	0	0	0	0	0	0	0	0	0	0	0	0	0	0	0	0
071019	11:55:17	12:00:13	295866	5.0.10.0	5_exp_noRW	36	Rpleas_acq	CS_A	CPPC	LWWL	ZHHZ	JQQJ	YFFY	DXXD	vertrauen	sonnig	träumen	gütig	küssen	genießen	versagen	sterben	töten	gierig	krank	gemein	53pct	acq_USpleas_CSunple1_noRW	acq23456_noRW	2	36	0	0	300	300	413	50	0	1	1	blank2r.bmp	0	1	+	0	1	blank2r.bmp	252	1	ZHHZ	306	3	träumen	559	0	0	0	0	0	0	0	0	0	0	0	0	0	0	0	0	0	0	0	0	0	0	0	0	0	0	0	0	0	0	0	0	0	0	0	0	0	0	0
071019	11:55:17	12:00:15	297452	5.0.10.0	5_exp_noRW	36	Rpleas_acq	CS_A	CPPC	LWWL	ZHHZ	JQQJ	YFFY	DXXD	vertrauen	sonnig	träumen	gütig	küssen	genießen	versagen	sterben	töten	gierig	krank	gemein	47pct	acq_USunple_CSunple2_noRW	acq23456_noRW	2	37	0	0	300	300	417	46	0	1	1	blank2r.bmp	0	1	+	0	1	blank2r.bmp	252	1	JQQJ	306	2	krank	559	0	0	0	0	0	0	0	0	0	0	0	0	0	0	0	0	0	0	0	0	0	0	0	0	0	0	0	0	0	0	0	0	0	0	0	0	0	0	0
071019	11:55:17	12:00:16	299145	5.0.10.0	5_exp_noRW	36	Rpleas_acq	CS_A	CPPC	LWWL	ZHHZ	JQQJ	YFFY	DXXD	vertrauen	sonnig	träumen	gütig	küssen	genießen	versagen	sterben	töten	gierig	krank	gemein	53pct	acq_USpleas_CSpleas2_noRW	acq23456_noRW	2	38	0	0	300	300	515	50	0	1	1	blank2r.bmp	0	1	+	0	1	blank2r.bmp	252	1	LWWL	306	3	genießen	559	0	0	0	0	0	0	0	0	0	0	0	0	0	0	0	0	0	0	0	0	0	0	0	0	0	0	0	0	0	0	0	0	0	0	0	0	0	0	0
071019	11:55:17	12:00:18	300771	5.0.10.0	5_exp_noRW	36	Rpleas_acq	CS_A	CPPC	LWWL	ZHHZ	JQQJ	YFFY	DXXD	vertrauen	sonnig	träumen	gütig	küssen	genießen	versagen	sterben	töten	gierig	krank	gemein	53pct	acq_USunple_CSunple1_noRW	acq23456_noRW	2	39	0	0	300	300	452	46	0	1	1	blank2r.bmp	0	1	+	0	1	blank2r.bmp	252	1	ZHHZ	306	3	töten	559	0	0	0	0	0	0	0	0	0	0	0	0	0	0	0	0	0	0	0	0	0	0	0	0	0	0	0	0	0	0	0	0	0	0	0	0	0	0	0
071019	11:55:17	12:00:20	302543	5.0.10.0	5_exp_noRW	36	Rpleas_acq	CS_A	CPPC	LWWL	ZHHZ	JQQJ	YFFY	DXXD	vertrauen	sonnig	träumen	gütig	küssen	genießen	versagen	sterben	töten	gierig	krank	gemein	47pct	acq_USunple_CSunple2_noRW	acq23456_noRW	2	40	0	0	300	300	599	46	0	1	1	blank2r.bmp	0	1	+	0	1	blank2r.bmp	252	1	JQQJ	306	3	gemein	559	0	0	0	0	0	0	0	0	0	0	0	0	0	0	0	0	0	0	0	0	0	0	0	0	0	0	0	0	0	0	0	0	0	0	0	0	0	0	0
071019	11:55:17	12:00:21	304196	5.0.10.0	5_exp_noRW	36	Rpleas_acq	CS_A	CPPC	LWWL	ZHHZ	JQQJ	YFFY	DXXD	vertrauen	sonnig	träumen	gütig	küssen	genießen	versagen	sterben	töten	gierig	krank	gemein	53pct	acq_USpleas_CSpleas2_noRW	acq23456_noRW	2	41	0	0	300	300	478	50	0	1	1	blank2r.bmp	0	1	+	0	1	blank2r.bmp	252	1	LWWL	306	3	genießen	559	0	0	0	0	0	0	0	0	0	0	0	0	0	0	0	0	0	0	0	0	0	0	0	0	0	0	0	0	0	0	0	0	0	0	0	0	0	0	0
071019	11:55:17	12:00:24	306395	5.0.10.0	5_exp_noRW	36	Rpleas_acq	CS_A	CPPC	LWWL	ZHHZ	JQQJ	YFFY	DXXD	vertrauen	sonnig	träumen	gütig	küssen	genießen	versagen	sterben	töten	gierig	krank	gemein	53pct	acq_USunple_CSunple1_noRW	acq23456_noRW	2	42	0	0	300	300	1015	46	0	1	1	blank2r.bmp	0	1	+	0	1	blank2r.bmp	252	1	ZHHZ	306	1	versagen	559	0	0	0	0	0	0	0	0	0	0	0	0	0	0	0	0	0	0	0	0	0	0	0	0	0	0	0	0	0	0	0	0	0	0	0	0	0	0	0
071019	11:55:17	12:00:26	309101	5.0.10.0	5_exp_noRW	36	Rpleas_acq	CS_A	CPPC	LWWL	ZHHZ	JQQJ	YFFY	DXXD	vertrauen	sonnig	träumen	gütig	küssen	genießen	versagen	sterben	töten	gierig	krank	gemein	53pct	acq_USunple_CSpleas2_noRW	acq23456_noRW	2	43	0	0	300	300	1528	46	0	1	1	blank2r.bmp	0	1	+	0	1	blank2r.bmp	252	1	LWWL	306	2	krank	559	0	0	0	0	0	0	0	0	0	0	0	0	0	0	0	0	0	0	0	0	0	0	0	0	0	0	0	0	0	0	0	0	0	0	0	0	0	0	0
071019	11:55:17	12:00:28	310767	5.0.10.0	5_exp_noRW	36	Rpleas_acq	CS_A	CPPC	LWWL	ZHHZ	JQQJ	YFFY	DXXD	vertrauen	sonnig	träumen	gütig	küssen	genießen	versagen	sterben	töten	gierig	krank	gemein	47pct	acq_USpleas_CSpleas1_noRW	acq23456_noRW	2	44	0	0	300	300	489	50	0	1	1	blank2r.bmp	0	1	+	0	1	blank2r.bmp	252	1	CPPC	306	3	träumen	559	0	0	0	0	0	0	0	0	0	0	0	0	0	0	0	0	0	0	0	0	0	0	0	0	0	0	0	0	0	0	0	0	0	0	0	0	0	0	0
071019	11:55:17	12:00:30	312339	5.0.10.0	5_exp_noRW	36	Rpleas_acq	CS_A	CPPC	LWWL	ZHHZ	JQQJ	YFFY	DXXD	vertrauen	sonnig	träumen	gütig	küssen	genießen	versagen	sterben	töten	gierig	krank	gemein	53pct	acq_USpleas_CSpleas2_noRW	acq23456_noRW	2	45	0	0	300	300	408	50	0	1	1	blank2r.bmp	0	1	+	0	1	blank2r.bmp	252	1	LWWL	306	2	küssen	559	0	0	0	0	0	0	0	0	0	0	0	0	0	0	0	0	0	0	0	0	0	0	0	0	0	0	0	0	0	0	0	0	0	0	0	0	0	0	0
071019	11:55:17	12:00:31	313965	5.0.10.0	5_exp_noRW	36	Rpleas_acq	CS_A	CPPC	LWWL	ZHHZ	JQQJ	YFFY	DXXD	vertrauen	sonnig	träumen	gütig	küssen	genießen	versagen	sterben	töten	gierig	krank	gemein	47pct	acq_USpleas_CSpleas1_noRW	acq23456_noRW	2	46	0	0	300	300	447	50	0	1	1	blank2r.bmp	0	1	+	0	1	blank2r.bmp	252	1	CPPC	306	1	vertrauen	559	0	0	0	0	0	0	0	0	0	0	0	0	0	0	0	0	0	0	0	0	0	0	0	0	0	0	0	0	0	0	0	0	0	0	0	0	0	0	0
071019	11:55:17	12:00:33	315565	5.0.10.0	5_exp_noRW	36	Rpleas_acq	CS_A	CPPC	LWWL	ZHHZ	JQQJ	YFFY	DXXD	vertrauen	sonnig	träumen	gütig	küssen	genießen	versagen	sterben	töten	gierig	krank	gemein	47pct	acq_USpleas_CSunple1_noRW	acq23456_noRW	2	47	0	0	300	300	425	50	0	1	1	blank2r.bmp	0	1	+	0	1	blank2r.bmp	252	1	ZHHZ	306	2	sonnig	559	0	0	0	0	0	0	0	0	0	0	0	0	0	0	0	0	0	0	0	0	0	0	0	0	0	0	0	0	0	0	0	0	0	0	0	0	0	0	0
071019	11:55:17	12:00:35	317257	5.0.10.0	5_exp_noRW	36	Rpleas_acq	CS_A	CPPC	LWWL	ZHHZ	JQQJ	YFFY	DXXD	vertrauen	sonnig	träumen	gütig	küssen	genießen	versagen	sterben	töten	gierig	krank	gemein	47pct	acq_USpleas_CSunple2_noRW	acq23456_noRW	2	48	0	0	300	300	530	50	0	1	1	blank2r.bmp	0	1	+	0	1	blank2r.bmp	252	1	JQQJ	306	3	genießen	559	0	0	0	0	0	0	0	0	0	0	0	0	0	0	0	0	0	0	0	0	0	0	0	0	0	0	0	0	0	0	0	0	0	0	0	0	0	0	0
071019	11:55:17	12:00:36	318817	5.0.10.0	5_exp_noRW	36	Rpleas_acq	CS_A	CPPC	LWWL	ZHHZ	JQQJ	YFFY	DXXD	vertrauen	sonnig	träumen	gütig	küssen	genießen	versagen	sterben	töten	gierig	krank	gemein	53pct	acq_USpleas_CSpleas1_noRW	acq23456_noRW	2	49	0	0	300	300	374	50	0	1	1	blank2r.bmp	0	1	+	0	1	blank2r.bmp	252	1	CPPC	306	2	sonnig	559	0	0	0	0	0	0	0	0	0	0	0	0	0	0	0	0	0	0	0	0	0	0	0	0	0	0	0	0	0	0	0	0	0	0	0	0	0	0	0
071019	11:55:17	12:00:38	320483	5.0.10.0	5_exp_noRW	36	Rpleas_acq	CS_A	CPPC	LWWL	ZHHZ	JQQJ	YFFY	DXXD	vertrauen	sonnig	träumen	gütig	küssen	genießen	versagen	sterben	töten	gierig	krank	gemein	47pct	acq_USunple_CSunple1_noRW	acq23456_noRW	2	50	0	0	300	300	495	46	0	1	1	blank2r.bmp	0	1	+	0	1	blank2r.bmp	252	1	ZHHZ	306	3	töten	559	0	0	0	0	0	0	0	0	0	0	0	0	0	0	0	0	0	0	0	0	0	0	0	0	0	0	0	0	0	0	0	0	0	0	0	0	0	0	0
071019	11:55:17	12:00:39	322175	5.0.10.0	5_exp_noRW	36	Rpleas_acq	CS_A	CPPC	LWWL	ZHHZ	JQQJ	YFFY	DXXD	vertrauen	sonnig	träumen	gütig	küssen	genießen	versagen	sterben	töten	gierig	krank	gemein	47pct	acq_USunple_CSunple2_noRW	acq23456_noRW	2	51	0	0	300	300	523	46	0	1	1	blank2r.bmp	0	1	+	0	1	blank2r.bmp	252	1	JQQJ	306	1	gierig	559	0	0	0	0	0	0	0	0	0	0	0	0	0	0	0	0	0	0	0	0	0	0	0	0	0	0	0	0	0	0	0	0	0	0	0	0	0	0	0
071019	11:55:17	12:00:41	323761	5.0.10.0	5_exp_noRW	36	Rpleas_acq	CS_A	CPPC	LWWL	ZHHZ	JQQJ	YFFY	DXXD	vertrauen	sonnig	träumen	gütig	küssen	genießen	versagen	sterben	töten	gierig	krank	gemein	47pct	acq_USunple_CSunple2_noRW	acq23456_noRW	2	52	0	0	300	300	422	46	0	1	1	blank2r.bmp	0	1	+	0	1	blank2r.bmp	252	1	JQQJ	306	3	gemein	559	0	0	0	0	0	0	0	0	0	0	0	0	0	0	0	0	0	0	0	0	0	0	0	0	0	0	0	0	0	0	0	0	0	0	0	0	0	0	0
071019	11:55:17	12:00:43	325387	5.0.10.0	5_exp_noRW	36	Rpleas_acq	CS_A	CPPC	LWWL	ZHHZ	JQQJ	YFFY	DXXD	vertrauen	sonnig	träumen	gütig	küssen	genießen	versagen	sterben	töten	gierig	krank	gemein	47pct	acq_USunple_CSunple1_noRW	acq23456_noRW	2	53	0	0	300	300	444	46	0	1	1	blank2r.bmp	0	1	+	0	1	blank2r.bmp	252	1	ZHHZ	306	2	sterben	559	0	0	0	0	0	0	0	0	0	0	0	0	0	0	0	0	0	0	0	0	0	0	0	0	0	0	0	0	0	0	0	0	0	0	0	0	0	0	0
071019	11:55:17	12:00:44	326947	5.0.10.0	5_exp_noRW	36	Rpleas_acq	CS_A	CPPC	LWWL	ZHHZ	JQQJ	YFFY	DXXD	vertrauen	sonnig	träumen	gütig	küssen	genießen	versagen	sterben	töten	gierig	krank	gemein	53pct	acq_USunple_CSunple2_noRW	acq23456_noRW	2	54	0	0	300	300	390	46	0	1	1	blank2r.bmp	0	1	+	0	1	blank2r.bmp	252	1	JQQJ	306	2	krank	559	0	0	0	0	0	0	0	0	0	0	0	0	0	0	0	0	0	0	0	0	0	0	0	0	0	0	0	0	0	0	0	0	0	0	0	0	0	0	0
071019	11:55:17	12:00:46	328506	5.0.10.0	5_exp_noRW	36	Rpleas_acq	CS_A	CPPC	LWWL	ZHHZ	JQQJ	YFFY	DXXD	vertrauen	sonnig	träumen	gütig	küssen	genießen	versagen	sterben	töten	gierig	krank	gemein	47pct	acq_USpleas_CSpleas1_noRW	acq23456_noRW	2	55	0	0	300	300	391	50	0	1	1	blank2r.bmp	0	1	+	0	1	blank2r.bmp	252	1	CPPC	306	2	sonnig	559	0	0	0	0	0	0	0	0	0	0	0	0	0	0	0	0	0	0	0	0	0	0	0	0	0	0	0	0	0	0	0	0	0	0	0	0	0	0	0
071019	11:55:17	12:00:47	330172	5.0.10.0	5_exp_noRW	36	Rpleas_acq	CS_A	CPPC	LWWL	ZHHZ	JQQJ	YFFY	DXXD	vertrauen	sonnig	träumen	gütig	küssen	genießen	versagen	sterben	töten	gierig	krank	gemein	47pct	acq_USunple_CSpleas1_noRW	acq23456_noRW	2	56	0	0	300	300	493	46	0	1	1	blank2r.bmp	0	1	+	0	1	blank2r.bmp	252	1	CPPC	306	2	sterben	559	0	0	0	0	0	0	0	0	0	0	0	0	0	0	0	0	0	0	0	0	0	0	0	0	0	0	0	0	0	0	0	0	0	0	0	0	0	0	0
071019	11:55:17	12:00:49	331745	5.0.10.0	5_exp_noRW	36	Rpleas_acq	CS_A	CPPC	LWWL	ZHHZ	JQQJ	YFFY	DXXD	vertrauen	sonnig	träumen	gütig	küssen	genießen	versagen	sterben	töten	gierig	krank	gemein	47pct	acq_USunple_CSunple2_noRW	acq23456_noRW	2	57	0	0	300	300	411	46	0	1	1	blank2r.bmp	0	1	+	0	1	blank2r.bmp	252	1	JQQJ	306	3	gemein	559	0	0	0	0	0	0	0	0	0	0	0	0	0	0	0	0	0	0	0	0	0	0	0	0	0	0	0	0	0	0	0	0	0	0	0	0	0	0	0
071019	11:55:17	12:00:51	333331	5.0.10.0	5_exp_noRW	36	Rpleas_acq	CS_A	CPPC	LWWL	ZHHZ	JQQJ	YFFY	DXXD	vertrauen	sonnig	träumen	gütig	küssen	genießen	versagen	sterben	töten	gierig	krank	gemein	47pct	acq_USunple_CSunple1_noRW	acq23456_noRW	2	58	0	0	300	300	402	46	0	1	1	blank2r.bmp	0	1	+	0	1	blank2r.bmp	252	1	ZHHZ	306	3	töten	559	0	0	0	0	0	0	0	0	0	0	0	0	0	0	0	0	0	0	0	0	0	0	0	0	0	0	0	0	0	0	0	0	0	0	0	0	0	0	0
071019	11:55:17	12:00:52	334944	5.0.10.0	5_exp_noRW	36	Rpleas_acq	CS_A	CPPC	LWWL	ZHHZ	JQQJ	YFFY	DXXD	vertrauen	sonnig	träumen	gütig	küssen	genießen	versagen	sterben	töten	gierig	krank	gemein	47pct	acq_USpleas_CSpleas2_noRW	acq23456_noRW	2	59	0	0	300	300	449	50	0	1	1	blank2r.bmp	0	1	+	0	1	blank2r.bmp	252	1	LWWL	306	1	gütig	559	0	0	0	0	0	0	0	0	0	0	0	0	0	0	0	0	0	0	0	0	0	0	0	0	0	0	0	0	0	0	0	0	0	0	0	0	0	0	0
071019	11:55:17	12:00:54	336516	5.0.10.0	5_exp_noRW	36	Rpleas_acq	CS_A	CPPC	LWWL	ZHHZ	JQQJ	YFFY	DXXD	vertrauen	sonnig	träumen	gütig	küssen	genießen	versagen	sterben	töten	gierig	krank	gemein	47pct	acq_USpleas_CSpleas2_noRW	acq23456_noRW	2	60	0	0	300	300	411	50	0	1	1	blank2r.bmp	0	1	+	0	1	blank2r.bmp	252	1	LWWL	306	1	gütig	559	0	0	0	0	0	0	0	0	0	0	0	0	0	0	0	0	0	0	0	0	0	0	0	0	0	0	0	0	0	0	0	0	0	0	0	0	0	0	0
071019	11:55:17	12:00:55	338089	5.0.10.0	5_exp_noRW	36	Rpleas_acq	CS_A	CPPC	LWWL	ZHHZ	JQQJ	YFFY	DXXD	vertrauen	sonnig	träumen	gütig	küssen	genießen	versagen	sterben	töten	gierig	krank	gemein	47pct	acq_USpleas_CSunple2_noRW	acq23456_noRW	2	61	0	0	300	300	397	50	0	1	1	blank2r.bmp	0	1	+	0	1	blank2r.bmp	252	1	JQQJ	306	1	gütig	559	0	0	0	0	0	0	0	0	0	0	0	0	0	0	0	0	0	0	0	0	0	0	0	0	0	0	0	0	0	0	0	0	0	0	0	0	0	0	0
071019	11:55:17	12:00:57	339662	5.0.10.0	5_exp_noRW	36	Rpleas_acq	CS_A	CPPC	LWWL	ZHHZ	JQQJ	YFFY	DXXD	vertrauen	sonnig	träumen	gütig	küssen	genießen	versagen	sterben	töten	gierig	krank	gemein	53pct	acq_USunple_CSunple2_noRW	acq23456_noRW	2	62	0	0	300	300	397	46	0	1	1	blank2r.bmp	0	1	+	0	1	blank2r.bmp	252	1	JQQJ	306	2	krank	559	0	0	0	0	0	0	0	0	0	0	0	0	0	0	0	0	0	0	0	0	0	0	0	0	0	0	0	0	0	0	0	0	0	0	0	0	0	0	0
071019	11:55:17	12:00:59	341341	5.0.10.0	5_exp_noRW	36	Rpleas_acq	CS_A	CPPC	LWWL	ZHHZ	JQQJ	YFFY	DXXD	vertrauen	sonnig	träumen	gütig	küssen	genießen	versagen	sterben	töten	gierig	krank	gemein	53pct	acq_USunple_CSunple2_noRW	acq23456_noRW	2	63	0	0	300	300	499	46	0	1	1	blank2r.bmp	0	1	+	0	1	blank2r.bmp	252	1	JQQJ	306	1	gierig	559	0	0	0	0	0	0	0	0	0	0	0	0	0	0	0	0	0	0	0	0	0	0	0	0	0	0	0	0	0	0	0	0	0	0	0	0	0	0	0
071019	11:55:17	12:01:00	342980	5.0.10.0	5_exp_noRW	36	Rpleas_acq	CS_A	CPPC	LWWL	ZHHZ	JQQJ	YFFY	DXXD	vertrauen	sonnig	träumen	gütig	küssen	genießen	versagen	sterben	töten	gierig	krank	gemein	53pct	acq_USpleas_CSpleas1_noRW	acq23456_noRW	2	64	0	0	300	300	472	50	0	1	1	blank2r.bmp	0	1	+	0	1	blank2r.bmp	252	1	CPPC	306	3	träumen	559	0	0	0	0	0	0	0	0	0	0	0	0	0	0	0	0	0	0	0	0	0	0	0	0	0	0	0	0	0	0	0	0	0	0	0	0	0	0	0
071019	11:55:17	12:01:02	344540	5.0.10.0	5_exp_noRW	36	Rpleas_acq	CS_A	CPPC	LWWL	ZHHZ	JQQJ	YFFY	DXXD	vertrauen	sonnig	träumen	gütig	küssen	genießen	versagen	sterben	töten	gierig	krank	gemein	53pct	acq_USpleas_CSpleas1_noRW	acq23456_noRW	2	65	0	0	300	300	396	50	0	1	1	blank2r.bmp	0	1	+	0	1	blank2r.bmp	252	1	CPPC	306	1	vertrauen	559	0	0	0	0	0	0	0	0	0	0	0	0	0	0	0	0	0	0	0	0	0	0	0	0	0	0	0	0	0	0	0	0	0	0	0	0	0	0	0
071019	11:55:17	12:01:04	346299	5.0.10.0	5_exp_noRW	36	Rpleas_acq	CS_A	CPPC	LWWL	ZHHZ	JQQJ	YFFY	DXXD	vertrauen	sonnig	träumen	gütig	küssen	genießen	versagen	sterben	töten	gierig	krank	gemein	47pct	acq_USunple_CSpleas1_noRW	acq23456_noRW	2	66	0	0	300	300	562	46	0	1	1	blank2r.bmp	0	1	+	0	1	blank2r.bmp	252	1	CPPC	306	1	versagen	559	0	0	0	0	0	0	0	0	0	0	0	0	0	0	0	0	0	0	0	0	0	0	0	0	0	0	0	0	0	0	0	0	0	0	0	0	0	0	0
071019	11:55:17	12:01:05	347952	5.0.10.0	5_exp_noRW	36	Rpleas_acq	CS_A	CPPC	LWWL	ZHHZ	JQQJ	YFFY	DXXD	vertrauen	sonnig	träumen	gütig	küssen	genießen	versagen	sterben	töten	gierig	krank	gemein	47pct	acq_USunple_CSunple1_noRW	acq23456_noRW	2	67	0	0	300	300	469	46	0	1	1	blank2r.bmp	0	1	+	0	1	blank2r.bmp	252	1	ZHHZ	306	1	versagen	559	0	0	0	0	0	0	0	0	0	0	0	0	0	0	0	0	0	0	0	0	0	0	0	0	0	0	0	0	0	0	0	0	0	0	0	0	0	0	0
071019	11:55:17	12:01:07	349764	5.0.10.0	5_exp_noRW	36	Rpleas_acq	CS_A	CPPC	LWWL	ZHHZ	JQQJ	YFFY	DXXD	vertrauen	sonnig	träumen	gütig	küssen	genießen	versagen	sterben	töten	gierig	krank	gemein	47pct	acq_USpleas_CSpleas1_noRW	acq23456_noRW	2	68	0	0	300	300	411	46	0	0	1	blank2r.bmp	0	1	+	0	1	blank2r.bmp	252	1	CPPC	306	1	vertrauen	559	1	FEHLER	1012	0	0	0	0	0	0	0	0	0	0	0	0	0	0	0	0	0	0	0	0	0	0	0	0	0	0	0	0	0	0	0	0	0	0	0	0
071019	11:55:17	12:01:08	351137	5.0.10.0	5_exp_noRW	36	Rpleas_acq	CS_A	CPPC	LWWL	ZHHZ	JQQJ	YFFY	DXXD	vertrauen	sonnig	träumen	gütig	küssen	genießen	versagen	sterben	töten	gierig	krank	gemein	53pct	acq_USpleas_CSpleas2_noRW	acq23456_noRW	2	69	0	0	300	300	413	50	0	1	1	blank2r.bmp	0	1	+	0	1	blank2r.bmp	252	1	LWWL	306	3	genießen	559	0	0	0	0	0	0	0	0	0	0	0	0	0	0	0	0	0	0	0	0	0	0	0	0	0	0	0	0	0	0	0	0	0	0	0	0	0	0	0
071019	11:55:17	12:01:10	352710	5.0.10.0	5_exp_noRW	36	Rpleas_acq	CS_A	CPPC	LWWL	ZHHZ	JQQJ	YFFY	DXXD	vertrauen	sonnig	träumen	gütig	küssen	genießen	versagen	sterben	töten	gierig	krank	gemein	47pct	acq_USpleas_CSunple1_noRW	acq23456_noRW	2	70	0	0	300	300	406	50	0	1	1	blank2r.bmp	0	1	+	0	1	blank2r.bmp	252	1	ZHHZ	306	3	träumen	559	0	0	0	0	0	0	0	0	0	0	0	0	0	0	0	0	0	0	0	0	0	0	0	0	0	0	0	0	0	0	0	0	0	0	0	0	0	0	0
071019	11:55:17	12:01:12	354229	5.0.10.0	5_exp_noRW	36	Rpleas_acq	CS_A	CPPC	LWWL	ZHHZ	JQQJ	YFFY	DXXD	vertrauen	sonnig	träumen	gütig	küssen	genießen	versagen	sterben	töten	gierig	krank	gemein	47pct	acq_USpleas_CSpleas2_noRW	acq23456_noRW	2	71	0	0	300	300	343	50	0	1	1	blank2r.bmp	0	1	+	0	1	blank2r.bmp	252	1	LWWL	306	2	küssen	559	0	0	0	0	0	0	0	0	0	0	0	0	0	0	0	0	0	0	0	0	0	0	0	0	0	0	0	0	0	0	0	0	0	0	0	0	0	0	0
071019	11:55:17	12:01:13	355882	5.0.10.0	5_exp_noRW	36	Rpleas_acq	CS_A	CPPC	LWWL	ZHHZ	JQQJ	YFFY	DXXD	vertrauen	sonnig	träumen	gütig	küssen	genießen	versagen	sterben	töten	gierig	krank	gemein	47pct	acq_USunple_CSunple2_noRW	acq23456_noRW	2	72	0	0	300	300	474	46	0	1	1	blank2r.bmp	0	1	+	0	1	blank2r.bmp	252	1	JQQJ	306	1	gierig	559	0	0	0	0	0	0	0	0	0	0	0	0	0	0	0	0	0	0	0	0	0	0	0	0	0	0	0	0	0	0	0	0	0	0	0	0	0	0	0
071019	11:55:17	12:01:15	357441	5.0.10.0	5_exp_noRW	36	Rpleas_acq	CS_A	CPPC	LWWL	ZHHZ	JQQJ	YFFY	DXXD	vertrauen	sonnig	träumen	gütig	küssen	genießen	versagen	sterben	töten	gierig	krank	gemein	47pct	acq_USpleas_CSpleas1_noRW	acq23456_noRW	2	73	0	0	300	300	386	50	0	1	1	blank2r.bmp	0	1	+	0	1	blank2r.bmp	252	1	CPPC	306	2	sonnig	559	0	0	0	0	0	0	0	0	0	0	0	0	0	0	0	0	0	0	0	0	0	0	0	0	0	0	0	0	0	0	0	0	0	0	0	0	0	0	0
071019	11:55:17	12:01:16	359040	5.0.10.0	5_exp_noRW	36	Rpleas_acq	CS_A	CPPC	LWWL	ZHHZ	JQQJ	YFFY	DXXD	vertrauen	sonnig	träumen	gütig	küssen	genießen	versagen	sterben	töten	gierig	krank	gemein	47pct	acq_USpleas_CSpleas2_noRW	acq23456_noRW	2	74	0	0	300	300	430	50	0	1	1	blank2r.bmp	0	1	+	0	1	blank2r.bmp	252	1	LWWL	306	1	gütig	559	0	0	0	0	0	0	0	0	0	0	0	0	0	0	0	0	0	0	0	0	0	0	0	0	0	0	0	0	0	0	0	0	0	0	0	0	0	0	0
071019	11:55:17	12:01:18	360666	5.0.10.0	5_exp_noRW	36	Rpleas_acq	CS_A	CPPC	LWWL	ZHHZ	JQQJ	YFFY	DXXD	vertrauen	sonnig	träumen	gütig	küssen	genießen	versagen	sterben	töten	gierig	krank	gemein	47pct	acq_USunple_CSunple1_noRW	acq23456_noRW	2	75	0	0	300	300	443	46	0	1	1	blank2r.bmp	0	1	+	0	1	blank2r.bmp	252	1	ZHHZ	306	2	sterben	559	0	0	0	0	0	0	0	0	0	0	0	0	0	0	0	0	0	0	0	0	0	0	0	0	0	0	0	0	0	0	0	0	0	0	0	0	0	0	0
071019	11:55:17	12:01:20	362399	5.0.10.0	5_exp_noRW	36	Rpleas_acq	CS_A	CPPC	LWWL	ZHHZ	JQQJ	YFFY	DXXD	vertrauen	sonnig	träumen	gütig	küssen	genießen	versagen	sterben	töten	gierig	krank	gemein	53pct	acq_USunple_CSpleas2_noRW	acq23456_noRW	2	76	0	0	300	300	557	46	0	1	1	blank2r.bmp	0	1	+	0	1	blank2r.bmp	252	1	LWWL	306	3	gemein	559	0	0	0	0	0	0	0	0	0	0	0	0	0	0	0	0	0	0	0	0	0	0	0	0	0	0	0	0	0	0	0	0	0	0	0	0	0	0	0
071019	11:55:17	12:01:21	364105	5.0.10.0	5_exp_noRW	36	Rpleas_acq	CS_A	CPPC	LWWL	ZHHZ	JQQJ	YFFY	DXXD	vertrauen	sonnig	träumen	gütig	küssen	genießen	versagen	sterben	töten	gierig	krank	gemein	53pct	acq_USunple_CSunple1_noRW	acq23456_noRW	2	77	0	0	300	300	526	46	0	1	1	blank2r.bmp	0	1	+	0	1	blank2r.bmp	252	1	ZHHZ	306	1	versagen	559	0	0	0	0	0	0	0	0	0	0	0	0	0	0	0	0	0	0	0	0	0	0	0	0	0	0	0	0	0	0	0	0	0	0	0	0	0	0	0
071019	11:55:17	12:01:23	365704	5.0.10.0	5_exp_noRW	36	Rpleas_acq	CS_A	CPPC	LWWL	ZHHZ	JQQJ	YFFY	DXXD	vertrauen	sonnig	träumen	gütig	küssen	genießen	versagen	sterben	töten	gierig	krank	gemein	47pct	acq_USunple_CSunple2_noRW	acq23456_noRW	2	78	0	0	300	300	436	46	0	1	1	blank2r.bmp	0	1	+	0	1	blank2r.bmp	252	1	JQQJ	306	2	krank	559	0	0	0	0	0	0	0	0	0	0	0	0	0	0	0	0	0	0	0	0	0	0	0	0	0	0	0	0	0	0	0	0	0	0	0	0	0	0	0
071019	11:55:17	12:01:25	367330	5.0.10.0	5_exp_noRW	36	Rpleas_acq	CS_A	CPPC	LWWL	ZHHZ	JQQJ	YFFY	DXXD	vertrauen	sonnig	träumen	gütig	küssen	genießen	versagen	sterben	töten	gierig	krank	gemein	53pct	acq_USunple_CSunple1_noRW	acq23456_noRW	2	79	0	0	300	300	446	46	0	1	1	blank2r.bmp	0	1	+	0	1	blank2r.bmp	252	1	ZHHZ	306	3	töten	559	0	0	0	0	0	0	0	0	0	0	0	0	0	0	0	0	0	0	0	0	0	0	0	0	0	0	0	0	0	0	0	0	0	0	0	0	0	0	0
071019	11:55:17	12:01:26	368863	5.0.10.0	5_exp_noRW	36	Rpleas_acq	CS_A	CPPC	LWWL	ZHHZ	JQQJ	YFFY	DXXD	vertrauen	sonnig	träumen	gütig	küssen	genießen	versagen	sterben	töten	gierig	krank	gemein	53pct	acq_USpleas_CSpleas2_noRW	acq23456_noRW	2	80	0	0	300	300	366	50	0	1	1	blank2r.bmp	0	1	+	0	1	blank2r.bmp	252	1	LWWL	306	2	küssen	559	0	0	0	0	0	0	0	0	0	0	0	0	0	0	0	0	0	0	0	0	0	0	0	0	0	0	0	0	0	0	0	0	0	0	0	0	0	0	0
071019	11:55:17	12:01:40	382404	5.0.10.0	5_exp_noRW	36	Rpleas_acq	CS_A	CPPC	LWWL	ZHHZ	JQQJ	YFFY	DXXD	vertrauen	sonnig	träumen	gütig	küssen	genießen	versagen	sterben	töten	gierig	krank	gemein	47pct	acq_USunple_CSunple2_noRW	acq23456_noRW	3	1	0	0	300	300	407	46	0	1	1	blank2r.bmp	0	1	+	0	1	blank2r.bmp	252	1	JQQJ	306	3	gemein	559	0	0	0	0	0	0	0	0	0	0	0	0	0	0	0	0	0	0	0	0	0	0	0	0	0	0	0	0	0	0	0	0	0	0	0	0	0	0	0
071019	11:55:17	12:01:41	384044	5.0.10.0	5_exp_noRW	36	Rpleas_acq	CS_A	CPPC	LWWL	ZHHZ	JQQJ	YFFY	DXXD	vertrauen	sonnig	träumen	gütig	küssen	genießen	versagen	sterben	töten	gierig	krank	gemein	47pct	acq_USpleas_CSpleas2_noRW	acq23456_noRW	3	2	0	0	300	300	462	50	0	1	1	blank2r.bmp	0	1	+	0	1	blank2r.bmp	252	1	LWWL	306	3	genießen	559	0	0	0	0	0	0	0	0	0	0	0	0	0	0	0	0	0	0	0	0	0	0	0	0	0	0	0	0	0	0	0	0	0	0	0	0	0	0	0
071019	11:55:17	12:01:43	385603	5.0.10.0	5_exp_noRW	36	Rpleas_acq	CS_A	CPPC	LWWL	ZHHZ	JQQJ	YFFY	DXXD	vertrauen	sonnig	träumen	gütig	küssen	genießen	versagen	sterben	töten	gierig	krank	gemein	47pct	acq_USpleas_CSunple1_noRW	acq23456_noRW	3	3	0	0	300	300	381	50	0	1	1	blank2r.bmp	0	1	+	0	1	blank2r.bmp	252	1	ZHHZ	306	1	vertrauen	559	0	0	0	0	0	0	0	0	0	0	0	0	0	0	0	0	0	0	0	0	0	0	0	0	0	0	0	0	0	0	0	0	0	0	0	0	0	0	0
071019	11:55:17	12:01:44	387189	5.0.10.0	5_exp_noRW	36	Rpleas_acq	CS_A	CPPC	LWWL	ZHHZ	JQQJ	YFFY	DXXD	vertrauen	sonnig	träumen	gütig	küssen	genießen	versagen	sterben	töten	gierig	krank	gemein	53pct	acq_USpleas_CSpleas1_noRW	acq23456_noRW	3	4	0	0	300	300	409	50	0	1	1	blank2r.bmp	0	1	+	0	1	blank2r.bmp	252	1	CPPC	306	3	träumen	559	0	0	0	0	0	0	0	0	0	0	0	0	0	0	0	0	0	0	0	0	0	0	0	0	0	0	0	0	0	0	0	0	0	0	0	0	0	0	0
071019	11:55:17	12:01:46	388828	5.0.10.0	5_exp_noRW	36	Rpleas_acq	CS_A	CPPC	LWWL	ZHHZ	JQQJ	YFFY	DXXD	vertrauen	sonnig	träumen	gütig	küssen	genießen	versagen	sterben	töten	gierig	krank	gemein	47pct	acq_USunple_CSunple1_noRW	acq23456_noRW	3	5	0	0	300	300	468	46	0	1	1	blank2r.bmp	0	1	+	0	1	blank2r.bmp	252	1	ZHHZ	306	2	sterben	559	0	0	0	0	0	0	0	0	0	0	0	0	0	0	0	0	0	0	0	0	0	0	0	0	0	0	0	0	0	0	0	0	0	0	0	0	0	0	0
071019	11:55:17	12:01:48	390414	5.0.10.0	5_exp_noRW	36	Rpleas_acq	CS_A	CPPC	LWWL	ZHHZ	JQQJ	YFFY	DXXD	vertrauen	sonnig	träumen	gütig	küssen	genießen	versagen	sterben	töten	gierig	krank	gemein	53pct	acq_USpleas_CSpleas1_noRW	acq23456_noRW	3	6	0	0	300	300	413	50	0	1	1	blank2r.bmp	0	1	+	0	1	blank2r.bmp	252	1	CPPC	306	2	sonnig	559	0	0	0	0	0	0	0	0	0	0	0	0	0	0	0	0	0	0	0	0	0	0	0	0	0	0	0	0	0	0	0	0	0	0	0	0	0	0	0
071019	11:55:17	12:01:49	392040	5.0.10.0	5_exp_noRW	36	Rpleas_acq	CS_A	CPPC	LWWL	ZHHZ	JQQJ	YFFY	DXXD	vertrauen	sonnig	träumen	gütig	küssen	genießen	versagen	sterben	töten	gierig	krank	gemein	47pct	acq_USunple_CSunple2_noRW	acq23456_noRW	3	7	0	0	300	300	449	46	0	1	1	blank2r.bmp	0	1	+	0	1	blank2r.bmp	252	1	JQQJ	306	3	gemein	559	0	0	0	0	0	0	0	0	0	0	0	0	0	0	0	0	0	0	0	0	0	0	0	0	0	0	0	0	0	0	0	0	0	0	0	0	0	0	0
071019	11:55:17	12:01:51	393626	5.0.10.0	5_exp_noRW	36	Rpleas_acq	CS_A	CPPC	LWWL	ZHHZ	JQQJ	YFFY	DXXD	vertrauen	sonnig	träumen	gütig	küssen	genießen	versagen	sterben	töten	gierig	krank	gemein	53pct	acq_USpleas_CSpleas2_noRW	acq23456_noRW	3	8	0	0	300	300	424	50	0	1	1	blank2r.bmp	0	1	+	0	1	blank2r.bmp	252	1	LWWL	306	1	gütig	559	0	0	0	0	0	0	0	0	0	0	0	0	0	0	0	0	0	0	0	0	0	0	0	0	0	0	0	0	0	0	0	0	0	0	0	0	0	0	0
071019	11:55:17	12:01:53	395332	5.0.10.0	5_exp_noRW	36	Rpleas_acq	CS_A	CPPC	LWWL	ZHHZ	JQQJ	YFFY	DXXD	vertrauen	sonnig	träumen	gütig	küssen	genießen	versagen	sterben	töten	gierig	krank	gemein	47pct	acq_USunple_CSunple1_noRW	acq23456_noRW	3	9	0	0	300	300	524	46	0	1	1	blank2r.bmp	0	1	+	0	1	blank2r.bmp	252	1	ZHHZ	306	1	versagen	559	0	0	0	0	0	0	0	0	0	0	0	0	0	0	0	0	0	0	0	0	0	0	0	0	0	0	0	0	0	0	0	0	0	0	0	0	0	0	0
071019	11:55:17	12:01:54	396932	5.0.10.0	5_exp_noRW	36	Rpleas_acq	CS_A	CPPC	LWWL	ZHHZ	JQQJ	YFFY	DXXD	vertrauen	sonnig	träumen	gütig	küssen	genießen	versagen	sterben	töten	gierig	krank	gemein	47pct	acq_USunple_CSunple2_noRW	acq23456_noRW	3	10	0	0	300	300	437	46	0	1	1	blank2r.bmp	0	1	+	0	1	blank2r.bmp	252	1	JQQJ	306	2	krank	559	0	0	0	0	0	0	0	0	0	0	0	0	0	0	0	0	0	0	0	0	0	0	0	0	0	0	0	0	0	0	0	0	0	0	0	0	0	0	0
071019	11:55:17	12:01:56	398824	5.0.10.0	5_exp_noRW	36	Rpleas_acq	CS_A	CPPC	LWWL	ZHHZ	JQQJ	YFFY	DXXD	vertrauen	sonnig	träumen	gütig	küssen	genießen	versagen	sterben	töten	gierig	krank	gemein	53pct	acq_USunple_CSpleas2_noRW	acq23456_noRW	3	11	0	0	300	300	503	50	0	0	1	blank2r.bmp	0	1	+	0	1	blank2r.bmp	252	1	LWWL	306	1	gierig	559	1	FEHLER	1092	0	0	0	0	0	0	0	0	0	0	0	0	0	0	0	0	0	0	0	0	0	0	0	0	0	0	0	0	0	0	0	0	0	0	0	0
071019	11:55:17	12:01:58	400357	5.0.10.0	5_exp_noRW	36	Rpleas_acq	CS_A	CPPC	LWWL	ZHHZ	JQQJ	YFFY	DXXD	vertrauen	sonnig	träumen	gütig	küssen	genießen	versagen	sterben	töten	gierig	krank	gemein	53pct	acq_USpleas_CSpleas2_noRW	acq23456_noRW	3	12	0	0	300	300	568	50	0	1	1	blank2r.bmp	0	1	+	0	1	blank2r.bmp	252	1	LWWL	306	2	küssen	559	0	0	0	0	0	0	0	0	0	0	0	0	0	0	0	0	0	0	0	0	0	0	0	0	0	0	0	0	0	0	0	0	0	0	0	0	0	0	0
071019	11:55:17	12:01:59	401983	5.0.10.0	5_exp_noRW	36	Rpleas_acq	CS_A	CPPC	LWWL	ZHHZ	JQQJ	YFFY	DXXD	vertrauen	sonnig	träumen	gütig	küssen	genießen	versagen	sterben	töten	gierig	krank	gemein	47pct	acq_USunple_CSunple1_noRW	acq23456_noRW	3	13	0	0	300	300	454	46	0	1	1	blank2r.bmp	0	1	+	0	1	blank2r.bmp	252	1	ZHHZ	306	2	sterben	559	0	0	0	0	0	0	0	0	0	0	0	0	0	0	0	0	0	0	0	0	0	0	0	0	0	0	0	0	0	0	0	0	0	0	0	0	0	0	0
071019	11:55:17	12:02:01	403596	5.0.10.0	5_exp_noRW	36	Rpleas_acq	CS_A	CPPC	LWWL	ZHHZ	JQQJ	YFFY	DXXD	vertrauen	sonnig	träumen	gütig	küssen	genießen	versagen	sterben	töten	gierig	krank	gemein	47pct	acq_USpleas_CSpleas2_noRW	acq23456_noRW	3	14	0	0	300	300	443	50	0	1	1	blank2r.bmp	0	1	+	0	1	blank2r.bmp	252	1	LWWL	306	3	genießen	559	0	0	0	0	0	0	0	0	0	0	0	0	0	0	0	0	0	0	0	0	0	0	0	0	0	0	0	0	0	0	0	0	0	0	0	0	0	0	0
071019	11:55:17	12:02:03	405262	5.0.10.0	5_exp_noRW	36	Rpleas_acq	CS_A	CPPC	LWWL	ZHHZ	JQQJ	YFFY	DXXD	vertrauen	sonnig	träumen	gütig	küssen	genießen	versagen	sterben	töten	gierig	krank	gemein	47pct	acq_USunple_CSunple2_noRW	acq23456_noRW	3	15	0	0	300	300	490	46	0	1	1	blank2r.bmp	0	1	+	0	1	blank2r.bmp	252	1	JQQJ	306	1	gierig	559	0	0	0	0	0	0	0	0	0	0	0	0	0	0	0	0	0	0	0	0	0	0	0	0	0	0	0	0	0	0	0	0	0	0	0	0	0	0	0
071019	11:55:17	12:02:04	406848	5.0.10.0	5_exp_noRW	36	Rpleas_acq	CS_A	CPPC	LWWL	ZHHZ	JQQJ	YFFY	DXXD	vertrauen	sonnig	träumen	gütig	küssen	genießen	versagen	sterben	töten	gierig	krank	gemein	47pct	acq_USpleas_CSpleas1_noRW	acq23456_noRW	3	16	0	0	300	300	407	50	0	1	1	blank2r.bmp	0	1	+	0	1	blank2r.bmp	252	1	CPPC	306	1	vertrauen	559	0	0	0	0	0	0	0	0	0	0	0	0	0	0	0	0	0	0	0	0	0	0	0	0	0	0	0	0	0	0	0	0	0	0	0	0	0	0	0
071019	11:55:17	12:02:06	408420	5.0.10.0	5_exp_noRW	36	Rpleas_acq	CS_A	CPPC	LWWL	ZHHZ	JQQJ	YFFY	DXXD	vertrauen	sonnig	träumen	gütig	küssen	genießen	versagen	sterben	töten	gierig	krank	gemein	53pct	acq_USpleas_CSunple2_noRW	acq23456_noRW	3	17	0	0	300	300	405	50	0	1	1	blank2r.bmp	0	1	+	0	1	blank2r.bmp	252	1	JQQJ	306	2	küssen	559	0	0	0	0	0	0	0	0	0	0	0	0	0	0	0	0	0	0	0	0	0	0	0	0	0	0	0	0	0	0	0	0	0	0	0	0	0	0	0
071019	11:55:17	12:02:07	410073	5.0.10.0	5_exp_noRW	36	Rpleas_acq	CS_A	CPPC	LWWL	ZHHZ	JQQJ	YFFY	DXXD	vertrauen	sonnig	träumen	gütig	küssen	genießen	versagen	sterben	töten	gierig	krank	gemein	47pct	acq_USunple_CSpleas1_noRW	acq23456_noRW	3	18	0	0	300	300	478	46	0	1	1	blank2r.bmp	0	1	+	0	1	blank2r.bmp	252	1	CPPC	306	3	töten	559	0	0	0	0	0	0	0	0	0	0	0	0	0	0	0	0	0	0	0	0	0	0	0	0	0	0	0	0	0	0	0	0	0	0	0	0	0	0	0
071019	11:55:17	12:02:09	411792	5.0.10.0	5_exp_noRW	36	Rpleas_acq	CS_A	CPPC	LWWL	ZHHZ	JQQJ	YFFY	DXXD	vertrauen	sonnig	träumen	gütig	küssen	genießen	versagen	sterben	töten	gierig	krank	gemein	47pct	acq_USpleas_CSpleas1_noRW	acq23456_noRW	3	19	0	0	300	300	545	50	0	1	1	blank2r.bmp	0	1	+	0	1	blank2r.bmp	252	1	CPPC	306	3	träumen	559	0	0	0	0	0	0	0	0	0	0	0	0	0	0	0	0	0	0	0	0	0	0	0	0	0	0	0	0	0	0	0	0	0	0	0	0	0	0	0
071019	11:55:17	12:02:11	413405	5.0.10.0	5_exp_noRW	36	Rpleas_acq	CS_A	CPPC	LWWL	ZHHZ	JQQJ	YFFY	DXXD	vertrauen	sonnig	träumen	gütig	küssen	genießen	versagen	sterben	töten	gierig	krank	gemein	47pct	acq_USunple_CSunple1_noRW	acq23456_noRW	3	20	0	0	300	300	448	46	0	1	1	blank2r.bmp	0	1	+	0	1	blank2r.bmp	252	1	ZHHZ	306	3	töten	559	0	0	0	0	0	0	0	0	0	0	0	0	0	0	0	0	0	0	0	0	0	0	0	0	0	0	0	0	0	0	0	0	0	0	0	0	0	0	0
071019	11:55:17	12:02:12	414991	5.0.10.0	5_exp_noRW	36	Rpleas_acq	CS_A	CPPC	LWWL	ZHHZ	JQQJ	YFFY	DXXD	vertrauen	sonnig	träumen	gütig	küssen	genießen	versagen	sterben	töten	gierig	krank	gemein	53pct	acq_USpleas_CSpleas1_noRW	acq23456_noRW	3	21	0	0	300	300	409	50	0	1	1	blank2r.bmp	0	1	+	0	1	blank2r.bmp	252	1	CPPC	306	3	träumen	559	0	0	0	0	0	0	0	0	0	0	0	0	0	0	0	0	0	0	0	0	0	0	0	0	0	0	0	0	0	0	0	0	0	0	0	0	0	0	0
071019	11:55:17	12:02:14	416644	5.0.10.0	5_exp_noRW	36	Rpleas_acq	CS_A	CPPC	LWWL	ZHHZ	JQQJ	YFFY	DXXD	vertrauen	sonnig	träumen	gütig	küssen	genießen	versagen	sterben	töten	gierig	krank	gemein	47pct	acq_USpleas_CSpleas2_noRW	acq23456_noRW	3	22	0	0	300	300	472	50	0	1	1	blank2r.bmp	0	1	+	0	1	blank2r.bmp	252	1	LWWL	306	3	genießen	559	0	0	0	0	0	0	0	0	0	0	0	0	0	0	0	0	0	0	0	0	0	0	0	0	0	0	0	0	0	0	0	0	0	0	0	0	0	0	0
071019	11:55:17	12:02:16	418270	5.0.10.0	5_exp_noRW	36	Rpleas_acq	CS_A	CPPC	LWWL	ZHHZ	JQQJ	YFFY	DXXD	vertrauen	sonnig	träumen	gütig	küssen	genießen	versagen	sterben	töten	gierig	krank	gemein	53pct	acq_USpleas_CSunple1_noRW	acq23456_noRW	3	23	0	0	300	300	461	50	0	1	1	blank2r.bmp	0	1	+	0	1	blank2r.bmp	252	1	ZHHZ	306	1	vertrauen	559	0	0	0	0	0	0	0	0	0	0	0	0	0	0	0	0	0	0	0	0	0	0	0	0	0	0	0	0	0	0	0	0	0	0	0	0	0	0	0
071019	11:55:17	12:02:17	419883	5.0.10.0	5_exp_noRW	36	Rpleas_acq	CS_A	CPPC	LWWL	ZHHZ	JQQJ	YFFY	DXXD	vertrauen	sonnig	träumen	gütig	küssen	genießen	versagen	sterben	töten	gierig	krank	gemein	47pct	acq_USpleas_CSpleas2_noRW	acq23456_noRW	3	24	0	0	300	300	429	50	0	1	1	blank2r.bmp	0	1	+	0	1	blank2r.bmp	252	1	LWWL	306	2	küssen	559	0	0	0	0	0	0	0	0	0	0	0	0	0	0	0	0	0	0	0	0	0	0	0	0	0	0	0	0	0	0	0	0	0	0	0	0	0	0	0
071019	11:55:17	12:02:19	421495	5.0.10.0	5_exp_noRW	36	Rpleas_acq	CS_A	CPPC	LWWL	ZHHZ	JQQJ	YFFY	DXXD	vertrauen	sonnig	träumen	gütig	küssen	genießen	versagen	sterben	töten	gierig	krank	gemein	53pct	acq_USunple_CSunple1_noRW	acq23456_noRW	3	25	0	0	300	300	430	46	0	1	1	blank2r.bmp	0	1	+	0	1	blank2r.bmp	252	1	ZHHZ	306	3	töten	559	0	0	0	0	0	0	0	0	0	0	0	0	0	0	0	0	0	0	0	0	0	0	0	0	0	0	0	0	0	0	0	0	0	0	0	0	0	0	0
071019	11:55:17	12:02:21	423361	5.0.10.0	5_exp_noRW	36	Rpleas_acq	CS_A	CPPC	LWWL	ZHHZ	JQQJ	YFFY	DXXD	vertrauen	sonnig	träumen	gütig	küssen	genießen	versagen	sterben	töten	gierig	krank	gemein	47pct	acq_USunple_CSpleas1_noRW	acq23456_noRW	3	26	0	0	300	300	696	46	0	1	1	blank2r.bmp	0	1	+	0	1	blank2r.bmp	252	1	CPPC	306	2	sterben	559	0	0	0	0	0	0	0	0	0	0	0	0	0	0	0	0	0	0	0	0	0	0	0	0	0	0	0	0	0	0	0	0	0	0	0	0	0	0	0
071019	11:55:17	12:02:22	424987	5.0.10.0	5_exp_noRW	36	Rpleas_acq	CS_A	CPPC	LWWL	ZHHZ	JQQJ	YFFY	DXXD	vertrauen	sonnig	träumen	gütig	küssen	genießen	versagen	sterben	töten	gierig	krank	gemein	53pct	acq_USpleas_CSpleas1_noRW	acq23456_noRW	3	27	0	0	300	300	445	50	0	1	1	blank2r.bmp	0	1	+	0	1	blank2r.bmp	252	1	CPPC	306	2	sonnig	559	0	0	0	0	0	0	0	0	0	0	0	0	0	0	0	0	0	0	0	0	0	0	0	0	0	0	0	0	0	0	0	0	0	0	0	0	0	0	0
071019	11:55:17	12:02:24	426640	5.0.10.0	5_exp_noRW	36	Rpleas_acq	CS_A	CPPC	LWWL	ZHHZ	JQQJ	YFFY	DXXD	vertrauen	sonnig	träumen	gütig	küssen	genießen	versagen	sterben	töten	gierig	krank	gemein	47pct	acq_USpleas_CSunple2_noRW	acq23456_noRW	3	28	0	0	300	300	489	50	0	1	1	blank2r.bmp	0	1	+	0	1	blank2r.bmp	252	1	JQQJ	306	3	genießen	559	0	0	0	0	0	0	0	0	0	0	0	0	0	0	0	0	0	0	0	0	0	0	0	0	0	0	0	0	0	0	0	0	0	0	0	0	0	0	0
071019	11:55:17	12:02:26	428372	5.0.10.0	5_exp_noRW	36	Rpleas_acq	CS_A	CPPC	LWWL	ZHHZ	JQQJ	YFFY	DXXD	vertrauen	sonnig	träumen	gütig	küssen	genießen	versagen	sterben	töten	gierig	krank	gemein	47pct	acq_USunple_CSunple1_noRW	acq23456_noRW	3	29	0	0	300	300	568	46	0	1	1	blank2r.bmp	0	1	+	0	1	blank2r.bmp	252	1	ZHHZ	306	1	versagen	559	0	0	0	0	0	0	0	0	0	0	0	0	0	0	0	0	0	0	0	0	0	0	0	0	0	0	0	0	0	0	0	0	0	0	0	0	0	0	0
071019	11:55:17	12:02:27	430025	5.0.10.0	5_exp_noRW	36	Rpleas_acq	CS_A	CPPC	LWWL	ZHHZ	JQQJ	YFFY	DXXD	vertrauen	sonnig	träumen	gütig	küssen	genießen	versagen	sterben	töten	gierig	krank	gemein	47pct	acq_USunple_CSunple2_noRW	acq23456_noRW	3	30	0	0	300	300	490	46	0	1	1	blank2r.bmp	0	1	+	0	1	blank2r.bmp	252	1	JQQJ	306	1	gierig	559	0	0	0	0	0	0	0	0	0	0	0	0	0	0	0	0	0	0	0	0	0	0	0	0	0	0	0	0	0	0	0	0	0	0	0	0	0	0	0
071019	11:55:17	12:02:29	431638	5.0.10.0	5_exp_noRW	36	Rpleas_acq	CS_A	CPPC	LWWL	ZHHZ	JQQJ	YFFY	DXXD	vertrauen	sonnig	träumen	gütig	küssen	genießen	versagen	sterben	töten	gierig	krank	gemein	47pct	acq_USpleas_CSpleas1_noRW	acq23456_noRW	3	31	0	0	300	300	451	50	0	1	1	blank2r.bmp	0	1	+	0	1	blank2r.bmp	252	1	CPPC	306	1	vertrauen	559	0	0	0	0	0	0	0	0	0	0	0	0	0	0	0	0	0	0	0	0	0	0	0	0	0	0	0	0	0	0	0	0	0	0	0	0	0	0	0
071019	11:55:17	12:02:31	433330	5.0.10.0	5_exp_noRW	36	Rpleas_acq	CS_A	CPPC	LWWL	ZHHZ	JQQJ	YFFY	DXXD	vertrauen	sonnig	träumen	gütig	küssen	genießen	versagen	sterben	töten	gierig	krank	gemein	53pct	acq_USunple_CSpleas2_noRW	acq23456_noRW	3	32	0	0	300	300	508	46	0	1	1	blank2r.bmp	0	1	+	0	1	blank2r.bmp	252	1	LWWL	306	1	gierig	559	0	0	0	0	0	0	0	0	0	0	0	0	0	0	0	0	0	0	0	0	0	0	0	0	0	0	0	0	0	0	0	0	0	0	0	0	0	0	0
071019	11:55:17	12:02:32	435010	5.0.10.0	5_exp_noRW	36	Rpleas_acq	CS_A	CPPC	LWWL	ZHHZ	JQQJ	YFFY	DXXD	vertrauen	sonnig	träumen	gütig	küssen	genießen	versagen	sterben	töten	gierig	krank	gemein	53pct	acq_USunple_CSunple2_noRW	acq23456_noRW	3	33	0	0	300	300	500	46	0	1	1	blank2r.bmp	0	1	+	0	1	blank2r.bmp	252	1	JQQJ	306	3	gemein	559	0	0	0	0	0	0	0	0	0	0	0	0	0	0	0	0	0	0	0	0	0	0	0	0	0	0	0	0	0	0	0	0	0	0	0	0	0	0	0
071019	11:55:17	12:02:34	436636	5.0.10.0	5_exp_noRW	36	Rpleas_acq	CS_A	CPPC	LWWL	ZHHZ	JQQJ	YFFY	DXXD	vertrauen	sonnig	träumen	gütig	küssen	genießen	versagen	sterben	töten	gierig	krank	gemein	53pct	acq_USunple_CSunple1_noRW	acq23456_noRW	3	34	0	0	300	300	450	46	0	1	1	blank2r.bmp	0	1	+	0	1	blank2r.bmp	252	1	ZHHZ	306	2	sterben	559	0	0	0	0	0	0	0	0	0	0	0	0	0	0	0	0	0	0	0	0	0	0	0	0	0	0	0	0	0	0	0	0	0	0	0	0	0	0	0
071019	11:55:17	12:02:36	438355	5.0.10.0	5_exp_noRW	36	Rpleas_acq	CS_A	CPPC	LWWL	ZHHZ	JQQJ	YFFY	DXXD	vertrauen	sonnig	träumen	gütig	küssen	genießen	versagen	sterben	töten	gierig	krank	gemein	47pct	acq_USpleas_CSpleas2_noRW	acq23456_noRW	3	35	0	0	300	300	539	50	0	1	1	blank2r.bmp	0	1	+	0	1	blank2r.bmp	252	1	LWWL	306	1	gütig	559	0	0	0	0	0	0	0	0	0	0	0	0	0	0	0	0	0	0	0	0	0	0	0	0	0	0	0	0	0	0	0	0	0	0	0	0	0	0	0
071019	11:55:17	12:02:37	439968	5.0.10.0	5_exp_noRW	36	Rpleas_acq	CS_A	CPPC	LWWL	ZHHZ	JQQJ	YFFY	DXXD	vertrauen	sonnig	träumen	gütig	küssen	genießen	versagen	sterben	töten	gierig	krank	gemein	47pct	acq_USpleas_CSpleas1_noRW	acq23456_noRW	3	36	0	0	300	300	428	50	0	1	1	blank2r.bmp	0	1	+	0	1	blank2r.bmp	252	1	CPPC	306	3	träumen	559	0	0	0	0	0	0	0	0	0	0	0	0	0	0	0	0	0	0	0	0	0	0	0	0	0	0	0	0	0	0	0	0	0	0	0	0	0	0	0
071019	11:55:17	12:02:39	441500	5.0.10.0	5_exp_noRW	36	Rpleas_acq	CS_A	CPPC	LWWL	ZHHZ	JQQJ	YFFY	DXXD	vertrauen	sonnig	träumen	gütig	küssen	genießen	versagen	sterben	töten	gierig	krank	gemein	47pct	acq_USpleas_CSpleas2_noRW	acq23456_noRW	3	37	0	0	300	300	368	50	0	1	1	blank2r.bmp	0	1	+	0	1	blank2r.bmp	252	1	LWWL	306	1	gütig	559	0	0	0	0	0	0	0	0	0	0	0	0	0	0	0	0	0	0	0	0	0	0	0	0	0	0	0	0	0	0	0	0	0	0	0	0	0	0	0
071019	11:55:17	12:02:40	443126	5.0.10.0	5_exp_noRW	36	Rpleas_acq	CS_A	CPPC	LWWL	ZHHZ	JQQJ	YFFY	DXXD	vertrauen	sonnig	träumen	gütig	küssen	genießen	versagen	sterben	töten	gierig	krank	gemein	47pct	acq_USunple_CSunple2_noRW	acq23456_noRW	3	38	0	0	300	300	440	46	0	1	1	blank2r.bmp	0	1	+	0	1	blank2r.bmp	252	1	JQQJ	306	2	krank	559	0	0	0	0	0	0	0	0	0	0	0	0	0	0	0	0	0	0	0	0	0	0	0	0	0	0	0	0	0	0	0	0	0	0	0	0	0	0	0
071019	11:55:17	12:02:42	444792	5.0.10.0	5_exp_noRW	36	Rpleas_acq	CS_A	CPPC	LWWL	ZHHZ	JQQJ	YFFY	DXXD	vertrauen	sonnig	träumen	gütig	küssen	genießen	versagen	sterben	töten	gierig	krank	gemein	47pct	acq_USunple_CSunple2_noRW	acq23456_noRW	3	39	0	0	300	300	487	46	0	1	1	blank2r.bmp	0	1	+	0	1	blank2r.bmp	252	1	JQQJ	306	3	gemein	559	0	0	0	0	0	0	0	0	0	0	0	0	0	0	0	0	0	0	0	0	0	0	0	0	0	0	0	0	0	0	0	0	0	0	0	0	0	0	0
071019	11:55:17	12:02:44	446392	5.0.10.0	5_exp_noRW	36	Rpleas_acq	CS_A	CPPC	LWWL	ZHHZ	JQQJ	YFFY	DXXD	vertrauen	sonnig	träumen	gütig	küssen	genießen	versagen	sterben	töten	gierig	krank	gemein	47pct	acq_USunple_CSunple1_noRW	acq23456_noRW	3	40	0	0	300	300	419	46	0	1	1	blank2r.bmp	0	1	+	0	1	blank2r.bmp	252	1	ZHHZ	306	3	töten	559	0	0	0	0	0	0	0	0	0	0	0	0	0	0	0	0	0	0	0	0	0	0	0	0	0	0	0	0	0	0	0	0	0	0	0	0	0	0	0
071019	11:55:17	12:02:45	447924	5.0.10.0	5_exp_noRW	36	Rpleas_acq	CS_A	CPPC	LWWL	ZHHZ	JQQJ	YFFY	DXXD	vertrauen	sonnig	träumen	gütig	küssen	genießen	versagen	sterben	töten	gierig	krank	gemein	47pct	acq_USunple_CSunple2_noRW	acq23456_noRW	3	41	0	0	300	300	360	46	0	1	1	blank2r.bmp	0	1	+	0	1	blank2r.bmp	252	1	JQQJ	306	2	krank	559	0	0	0	0	0	0	0	0	0	0	0	0	0	0	0	0	0	0	0	0	0	0	0	0	0	0	0	0	0	0	0	0	0	0	0	0	0	0	0
071019	11:55:17	12:02:47	449497	5.0.10.0	5_exp_noRW	36	Rpleas_acq	CS_A	CPPC	LWWL	ZHHZ	JQQJ	YFFY	DXXD	vertrauen	sonnig	träumen	gütig	küssen	genießen	versagen	sterben	töten	gierig	krank	gemein	47pct	acq_USpleas_CSpleas1_noRW	acq23456_noRW	3	42	0	0	300	300	406	50	0	1	1	blank2r.bmp	0	1	+	0	1	blank2r.bmp	252	1	CPPC	306	2	sonnig	559	0	0	0	0	0	0	0	0	0	0	0	0	0	0	0	0	0	0	0	0	0	0	0	0	0	0	0	0	0	0	0	0	0	0	0	0	0	0	0
071019	11:55:17	12:02:49	451230	5.0.10.0	5_exp_noRW	36	Rpleas_acq	CS_A	CPPC	LWWL	ZHHZ	JQQJ	YFFY	DXXD	vertrauen	sonnig	träumen	gütig	küssen	genießen	versagen	sterben	töten	gierig	krank	gemein	47pct	acq_USunple_CSunple1_noRW	acq23456_noRW	3	43	0	0	300	300	568	46	0	1	1	blank2r.bmp	0	1	+	0	1	blank2r.bmp	252	1	ZHHZ	306	1	versagen	559	0	0	0	0	0	0	0	0	0	0	0	0	0	0	0	0	0	0	0	0	0	0	0	0	0	0	0	0	0	0	0	0	0	0	0	0	0	0	0
071019	11:55:17	12:02:50	452816	5.0.10.0	5_exp_noRW	36	Rpleas_acq	CS_A	CPPC	LWWL	ZHHZ	JQQJ	YFFY	DXXD	vertrauen	sonnig	träumen	gütig	küssen	genießen	versagen	sterben	töten	gierig	krank	gemein	53pct	acq_USunple_CSunple1_noRW	acq23456_noRW	3	44	0	0	300	300	404	46	0	1	1	blank2r.bmp	0	1	+	0	1	blank2r.bmp	252	1	ZHHZ	306	2	sterben	559	0	0	0	0	0	0	0	0	0	0	0	0	0	0	0	0	0	0	0	0	0	0	0	0	0	0	0	0	0	0	0	0	0	0	0	0	0	0	0
071019	11:55:17	12:02:52	454415	5.0.10.0	5_exp_noRW	36	Rpleas_acq	CS_A	CPPC	LWWL	ZHHZ	JQQJ	YFFY	DXXD	vertrauen	sonnig	träumen	gütig	küssen	genießen	versagen	sterben	töten	gierig	krank	gemein	47pct	acq_USunple_CSunple1_noRW	acq23456_noRW	3	45	0	0	300	300	420	46	0	1	1	blank2r.bmp	0	1	+	0	1	blank2r.bmp	252	1	ZHHZ	306	2	sterben	559	0	0	0	0	0	0	0	0	0	0	0	0	0	0	0	0	0	0	0	0	0	0	0	0	0	0	0	0	0	0	0	0	0	0	0	0	0	0	0
071019	11:55:17	12:02:53	456041	5.0.10.0	5_exp_noRW	36	Rpleas_acq	CS_A	CPPC	LWWL	ZHHZ	JQQJ	YFFY	DXXD	vertrauen	sonnig	träumen	gütig	küssen	genießen	versagen	sterben	töten	gierig	krank	gemein	53pct	acq_USpleas_CSpleas1_noRW	acq23456_noRW	3	46	0	0	300	300	447	50	0	1	1	blank2r.bmp	0	1	+	0	1	blank2r.bmp	252	1	CPPC	306	1	vertrauen	559	0	0	0	0	0	0	0	0	0	0	0	0	0	0	0	0	0	0	0	0	0	0	0	0	0	0	0	0	0	0	0	0	0	0	0	0	0	0	0
071019	11:55:17	12:02:55	457654	5.0.10.0	5_exp_noRW	36	Rpleas_acq	CS_A	CPPC	LWWL	ZHHZ	JQQJ	YFFY	DXXD	vertrauen	sonnig	träumen	gütig	küssen	genießen	versagen	sterben	töten	gierig	krank	gemein	47pct	acq_USpleas_CSpleas2_noRW	acq23456_noRW	3	47	0	0	300	300	427	50	0	1	1	blank2r.bmp	0	1	+	0	1	blank2r.bmp	252	1	LWWL	306	3	genießen	559	0	0	0	0	0	0	0	0	0	0	0	0	0	0	0	0	0	0	0	0	0	0	0	0	0	0	0	0	0	0	0	0	0	0	0	0	0	0	0
071019	11:55:17	12:02:57	459307	5.0.10.0	5_exp_noRW	36	Rpleas_acq	CS_A	CPPC	LWWL	ZHHZ	JQQJ	YFFY	DXXD	vertrauen	sonnig	träumen	gütig	küssen	genießen	versagen	sterben	töten	gierig	krank	gemein	53pct	acq_USunple_CSpleas2_noRW	acq23456_noRW	3	48	0	0	300	300	486	46	0	1	1	blank2r.bmp	0	1	+	0	1	blank2r.bmp	252	1	LWWL	306	3	gemein	559	0	0	0	0	0	0	0	0	0	0	0	0	0	0	0	0	0	0	0	0	0	0	0	0	0	0	0	0	0	0	0	0	0	0	0	0	0	0	0
071019	11:55:17	12:02:58	460879	5.0.10.0	5_exp_noRW	36	Rpleas_acq	CS_A	CPPC	LWWL	ZHHZ	JQQJ	YFFY	DXXD	vertrauen	sonnig	träumen	gütig	küssen	genießen	versagen	sterben	töten	gierig	krank	gemein	53pct	acq_USpleas_CSunple1_noRW	acq23456_noRW	3	49	0	0	300	300	402	50	0	1	1	blank2r.bmp	0	1	+	0	1	blank2r.bmp	252	1	ZHHZ	306	2	sonnig	559	0	0	0	0	0	0	0	0	0	0	0	0	0	0	0	0	0	0	0	0	0	0	0	0	0	0	0	0	0	0	0	0	0	0	0	0	0	0	0
071019	11:55:17	12:03:00	462425	5.0.10.0	5_exp_noRW	36	Rpleas_acq	CS_A	CPPC	LWWL	ZHHZ	JQQJ	YFFY	DXXD	vertrauen	sonnig	träumen	gütig	küssen	genießen	versagen	sterben	töten	gierig	krank	gemein	47pct	acq_USpleas_CSpleas2_noRW	acq23456_noRW	3	50	0	0	300	300	363	50	0	1	1	blank2r.bmp	0	1	+	0	1	blank2r.bmp	252	1	LWWL	306	2	küssen	559	0	0	0	0	0	0	0	0	0	0	0	0	0	0	0	0	0	0	0	0	0	0	0	0	0	0	0	0	0	0	0	0	0	0	0	0	0	0	0
071019	11:55:17	12:03:01	464038	5.0.10.0	5_exp_noRW	36	Rpleas_acq	CS_A	CPPC	LWWL	ZHHZ	JQQJ	YFFY	DXXD	vertrauen	sonnig	träumen	gütig	küssen	genießen	versagen	sterben	töten	gierig	krank	gemein	47pct	acq_USunple_CSunple2_noRW	acq23456_noRW	3	51	0	0	300	300	428	46	0	1	1	blank2r.bmp	0	1	+	0	1	blank2r.bmp	252	1	JQQJ	306	1	gierig	559	0	0	0	0	0	0	0	0	0	0	0	0	0	0	0	0	0	0	0	0	0	0	0	0	0	0	0	0	0	0	0	0	0	0	0	0	0	0	0
071019	11:55:17	12:03:03	465811	5.0.10.0	5_exp_noRW	36	Rpleas_acq	CS_A	CPPC	LWWL	ZHHZ	JQQJ	YFFY	DXXD	vertrauen	sonnig	träumen	gütig	küssen	genießen	versagen	sterben	töten	gierig	krank	gemein	47pct	acq_USunple_CSpleas1_noRW	acq23456_noRW	3	52	0	0	300	300	608	46	0	1	1	blank2r.bmp	0	1	+	0	1	blank2r.bmp	252	1	CPPC	306	1	versagen	559	0	0	0	0	0	0	0	0	0	0	0	0	0	0	0	0	0	0	0	0	0	0	0	0	0	0	0	0	0	0	0	0	0	0	0	0	0	0	0
071019	11:55:17	12:03:05	467463	5.0.10.0	5_exp_noRW	36	Rpleas_acq	CS_A	CPPC	LWWL	ZHHZ	JQQJ	YFFY	DXXD	vertrauen	sonnig	träumen	gütig	küssen	genießen	versagen	sterben	töten	gierig	krank	gemein	53pct	acq_USpleas_CSpleas1_noRW	acq23456_noRW	3	53	0	0	300	300	471	50	0	1	1	blank2r.bmp	0	1	+	0	1	blank2r.bmp	252	1	CPPC	306	3	träumen	559	0	0	0	0	0	0	0	0	0	0	0	0	0	0	0	0	0	0	0	0	0	0	0	0	0	0	0	0	0	0	0	0	0	0	0	0	0	0	0
071019	11:55:17	12:03:07	469342	5.0.10.0	5_exp_noRW	36	Rpleas_acq	CS_A	CPPC	LWWL	ZHHZ	JQQJ	YFFY	DXXD	vertrauen	sonnig	träumen	gütig	küssen	genießen	versagen	sterben	töten	gierig	krank	gemein	47pct	acq_USunple_CSunple2_noRW	acq23456_noRW	3	54	0	0	300	300	481	50	0	0	1	blank2r.bmp	0	1	+	0	1	blank2r.bmp	252	1	JQQJ	306	3	gemein	559	1	FEHLER	1079	0	0	0	0	0	0	0	0	0	0	0	0	0	0	0	0	0	0	0	0	0	0	0	0	0	0	0	0	0	0	0	0	0	0	0	0
071019	11:55:17	12:03:08	470755	5.0.10.0	5_exp_noRW	36	Rpleas_acq	CS_A	CPPC	LWWL	ZHHZ	JQQJ	YFFY	DXXD	vertrauen	sonnig	träumen	gütig	küssen	genießen	versagen	sterben	töten	gierig	krank	gemein	53pct	acq_USpleas_CSpleas2_noRW	acq23456_noRW	3	55	0	0	300	300	446	50	0	1	1	blank2r.bmp	0	1	+	0	1	blank2r.bmp	252	1	LWWL	306	1	gütig	559	0	0	0	0	0	0	0	0	0	0	0	0	0	0	0	0	0	0	0	0	0	0	0	0	0	0	0	0	0	0	0	0	0	0	0	0	0	0	0
071019	11:55:17	12:03:10	472381	5.0.10.0	5_exp_noRW	36	Rpleas_acq	CS_A	CPPC	LWWL	ZHHZ	JQQJ	YFFY	DXXD	vertrauen	sonnig	träumen	gütig	küssen	genießen	versagen	sterben	töten	gierig	krank	gemein	47pct	acq_USpleas_CSpleas2_noRW	acq23456_noRW	3	56	0	0	300	300	442	50	0	1	1	blank2r.bmp	0	1	+	0	1	blank2r.bmp	252	1	LWWL	306	2	küssen	559	0	0	0	0	0	0	0	0	0	0	0	0	0	0	0	0	0	0	0	0	0	0	0	0	0	0	0	0	0	0	0	0	0	0	0	0	0	0	0
071019	11:55:17	12:03:11	473901	5.0.10.0	5_exp_noRW	36	Rpleas_acq	CS_A	CPPC	LWWL	ZHHZ	JQQJ	YFFY	DXXD	vertrauen	sonnig	träumen	gütig	küssen	genießen	versagen	sterben	töten	gierig	krank	gemein	53pct	acq_USpleas_CSunple2_noRW	acq23456_noRW	3	57	0	0	300	300	352	50	0	1	1	blank2r.bmp	0	1	+	0	1	blank2r.bmp	252	1	JQQJ	306	2	küssen	559	0	0	0	0	0	0	0	0	0	0	0	0	0	0	0	0	0	0	0	0	0	0	0	0	0	0	0	0	0	0	0	0	0	0	0	0	0	0	0
071019	11:55:17	12:03:13	475580	5.0.10.0	5_exp_noRW	36	Rpleas_acq	CS_A	CPPC	LWWL	ZHHZ	JQQJ	YFFY	DXXD	vertrauen	sonnig	träumen	gütig	küssen	genießen	versagen	sterben	töten	gierig	krank	gemein	53pct	acq_USpleas_CSpleas1_noRW	acq23456_noRW	3	58	0	0	300	300	492	50	0	1	1	blank2r.bmp	0	1	+	0	1	blank2r.bmp	252	1	CPPC	306	1	vertrauen	559	0	0	0	0	0	0	0	0	0	0	0	0	0	0	0	0	0	0	0	0	0	0	0	0	0	0	0	0	0	0	0	0	0	0	0	0	0	0	0
071019	11:55:17	12:03:14	477193	5.0.10.0	5_exp_noRW	36	Rpleas_acq	CS_A	CPPC	LWWL	ZHHZ	JQQJ	YFFY	DXXD	vertrauen	sonnig	träumen	gütig	küssen	genießen	versagen	sterben	töten	gierig	krank	gemein	53pct	acq_USunple_CSunple1_noRW	acq23456_noRW	3	59	0	0	300	300	443	46	0	1	1	blank2r.bmp	0	1	+	0	1	blank2r.bmp	252	1	ZHHZ	306	3	töten	559	0	0	0	0	0	0	0	0	0	0	0	0	0	0	0	0	0	0	0	0	0	0	0	0	0	0	0	0	0	0	0	0	0	0	0	0	0	0	0
071019	11:55:17	12:03:16	478832	5.0.10.0	5_exp_noRW	36	Rpleas_acq	CS_A	CPPC	LWWL	ZHHZ	JQQJ	YFFY	DXXD	vertrauen	sonnig	träumen	gütig	küssen	genießen	versagen	sterben	töten	gierig	krank	gemein	53pct	acq_USunple_CSunple2_noRW	acq23456_noRW	3	60	0	0	300	300	458	46	0	1	1	blank2r.bmp	0	1	+	0	1	blank2r.bmp	252	1	JQQJ	306	1	gierig	559	0	0	0	0	0	0	0	0	0	0	0	0	0	0	0	0	0	0	0	0	0	0	0	0	0	0	0	0	0	0	0	0	0	0	0	0	0	0	0
071019	11:55:17	12:03:18	480405	5.0.10.0	5_exp_noRW	36	Rpleas_acq	CS_A	CPPC	LWWL	ZHHZ	JQQJ	YFFY	DXXD	vertrauen	sonnig	träumen	gütig	küssen	genießen	versagen	sterben	töten	gierig	krank	gemein	47pct	acq_USunple_CSunple1_noRW	acq23456_noRW	3	61	0	0	300	300	387	46	0	1	1	blank2r.bmp	0	1	+	0	1	blank2r.bmp	252	1	ZHHZ	306	1	versagen	559	0	0	0	0	0	0	0	0	0	0	0	0	0	0	0	0	0	0	0	0	0	0	0	0	0	0	0	0	0	0	0	0	0	0	0	0	0	0	0
071019	11:55:17	12:03:19	482004	5.0.10.0	5_exp_noRW	36	Rpleas_acq	CS_A	CPPC	LWWL	ZHHZ	JQQJ	YFFY	DXXD	vertrauen	sonnig	träumen	gütig	küssen	genießen	versagen	sterben	töten	gierig	krank	gemein	53pct	acq_USpleas_CSpleas2_noRW	acq23456_noRW	3	62	0	0	300	300	426	50	0	1	1	blank2r.bmp	0	1	+	0	1	blank2r.bmp	252	1	LWWL	306	3	genießen	559	0	0	0	0	0	0	0	0	0	0	0	0	0	0	0	0	0	0	0	0	0	0	0	0	0	0	0	0	0	0	0	0	0	0	0	0	0	0	0
071019	11:55:17	12:03:21	483657	5.0.10.0	5_exp_noRW	36	Rpleas_acq	CS_A	CPPC	LWWL	ZHHZ	JQQJ	YFFY	DXXD	vertrauen	sonnig	träumen	gütig	küssen	genießen	versagen	sterben	töten	gierig	krank	gemein	47pct	acq_USunple_CSunple2_noRW	acq23456_noRW	3	63	0	0	300	300	480	46	0	1	1	blank2r.bmp	0	1	+	0	1	blank2r.bmp	252	1	JQQJ	306	2	krank	559	0	0	0	0	0	0	0	0	0	0	0	0	0	0	0	0	0	0	0	0	0	0	0	0	0	0	0	0	0	0	0	0	0	0	0	0	0	0	0
071019	11:55:17	12:03:22	485136	5.0.10.0	5_exp_noRW	36	Rpleas_acq	CS_A	CPPC	LWWL	ZHHZ	JQQJ	YFFY	DXXD	vertrauen	sonnig	träumen	gütig	küssen	genießen	versagen	sterben	töten	gierig	krank	gemein	47pct	acq_USpleas_CSpleas2_noRW	acq23456_noRW	3	64	0	0	300	300	296	50	0	1	1	blank2r.bmp	0	1	+	0	1	blank2r.bmp	252	1	LWWL	306	2	küssen	559	0	0	0	0	0	0	0	0	0	0	0	0	0	0	0	0	0	0	0	0	0	0	0	0	0	0	0	0	0	0	0	0	0	0	0	0	0	0	0
071019	11:55:17	12:03:24	486922	5.0.10.0	5_exp_noRW	36	Rpleas_acq	CS_A	CPPC	LWWL	ZHHZ	JQQJ	YFFY	DXXD	vertrauen	sonnig	träumen	gütig	küssen	genießen	versagen	sterben	töten	gierig	krank	gemein	47pct	acq_USpleas_CSunple2_noRW	acq23456_noRW	3	65	0	0	300	300	390	46	0	0	1	blank2r.bmp	0	1	+	0	1	blank2r.bmp	252	1	JQQJ	306	1	gütig	559	1	FEHLER	986	0	0	0	0	0	0	0	0	0	0	0	0	0	0	0	0	0	0	0	0	0	0	0	0	0	0	0	0	0	0	0	0	0	0	0	0
071019	11:55:17	12:03:26	488375	5.0.10.0	5_exp_noRW	36	Rpleas_acq	CS_A	CPPC	LWWL	ZHHZ	JQQJ	YFFY	DXXD	vertrauen	sonnig	träumen	gütig	küssen	genießen	versagen	sterben	töten	gierig	krank	gemein	47pct	acq_USpleas_CSpleas1_noRW	acq23456_noRW	3	66	0	0	300	300	485	50	0	1	1	blank2r.bmp	0	1	+	0	1	blank2r.bmp	252	1	CPPC	306	2	sonnig	559	0	0	0	0	0	0	0	0	0	0	0	0	0	0	0	0	0	0	0	0	0	0	0	0	0	0	0	0	0	0	0	0	0	0	0	0	0	0	0
071019	11:55:17	12:03:27	490027	5.0.10.0	5_exp_noRW	36	Rpleas_acq	CS_A	CPPC	LWWL	ZHHZ	JQQJ	YFFY	DXXD	vertrauen	sonnig	träumen	gütig	küssen	genießen	versagen	sterben	töten	gierig	krank	gemein	53pct	acq_USunple_CSunple2_noRW	acq23456_noRW	3	67	0	0	300	300	484	46	0	1	1	blank2r.bmp	0	1	+	0	1	blank2r.bmp	252	1	JQQJ	306	3	gemein	559	0	0	0	0	0	0	0	0	0	0	0	0	0	0	0	0	0	0	0	0	0	0	0	0	0	0	0	0	0	0	0	0	0	0	0	0	0	0	0
071019	11:55:17	12:03:29	491827	5.0.10.0	5_exp_noRW	36	Rpleas_acq	CS_A	CPPC	LWWL	ZHHZ	JQQJ	YFFY	DXXD	vertrauen	sonnig	träumen	gütig	küssen	genießen	versagen	sterben	töten	gierig	krank	gemein	53pct	acq_USunple_CSunple2_noRW	acq23456_noRW	3	68	0	0	300	300	627	46	0	1	1	blank2r.bmp	0	1	+	0	1	blank2r.bmp	252	1	JQQJ	306	2	krank	559	0	0	0	0	0	0	0	0	0	0	0	0	0	0	0	0	0	0	0	0	0	0	0	0	0	0	0	0	0	0	0	0	0	0	0	0	0	0	0
071019	11:55:17	12:03:31	493413	5.0.10.0	5_exp_noRW	36	Rpleas_acq	CS_A	CPPC	LWWL	ZHHZ	JQQJ	YFFY	DXXD	vertrauen	sonnig	träumen	gütig	küssen	genießen	versagen	sterben	töten	gierig	krank	gemein	53pct	acq_USunple_CSpleas2_noRW	acq23456_noRW	3	69	0	0	300	300	414	46	0	1	1	blank2r.bmp	0	1	+	0	1	blank2r.bmp	252	1	LWWL	306	2	krank	559	0	0	0	0	0	0	0	0	0	0	0	0	0	0	0	0	0	0	0	0	0	0	0	0	0	0	0	0	0	0	0	0	0	0	0	0	0	0	0
071019	11:55:17	12:03:32	494945	5.0.10.0	5_exp_noRW	36	Rpleas_acq	CS_A	CPPC	LWWL	ZHHZ	JQQJ	YFFY	DXXD	vertrauen	sonnig	träumen	gütig	küssen	genießen	versagen	sterben	töten	gierig	krank	gemein	53pct	acq_USunple_CSunple2_noRW	acq23456_noRW	3	70	0	0	300	300	362	46	0	1	1	blank2r.bmp	0	1	+	0	1	blank2r.bmp	252	1	JQQJ	306	1	gierig	559	0	0	0	0	0	0	0	0	0	0	0	0	0	0	0	0	0	0	0	0	0	0	0	0	0	0	0	0	0	0	0	0	0	0	0	0	0	0	0
071019	11:55:17	12:03:34	496558	5.0.10.0	5_exp_noRW	36	Rpleas_acq	CS_A	CPPC	LWWL	ZHHZ	JQQJ	YFFY	DXXD	vertrauen	sonnig	träumen	gütig	küssen	genießen	versagen	sterben	töten	gierig	krank	gemein	47pct	acq_USunple_CSunple1_noRW	acq23456_noRW	3	71	0	0	300	300	446	46	0	1	1	blank2r.bmp	0	1	+	0	1	blank2r.bmp	252	1	ZHHZ	306	3	töten	559	0	0	0	0	0	0	0	0	0	0	0	0	0	0	0	0	0	0	0	0	0	0	0	0	0	0	0	0	0	0	0	0	0	0	0	0	0	0	0
071019	11:55:17	12:03:35	498157	5.0.10.0	5_exp_noRW	36	Rpleas_acq	CS_A	CPPC	LWWL	ZHHZ	JQQJ	YFFY	DXXD	vertrauen	sonnig	träumen	gütig	küssen	genießen	versagen	sterben	töten	gierig	krank	gemein	47pct	acq_USpleas_CSpleas2_noRW	acq23456_noRW	3	72	0	0	300	300	423	50	0	1	1	blank2r.bmp	0	1	+	0	1	blank2r.bmp	252	1	LWWL	306	1	gütig	559	0	0	0	0	0	0	0	0	0	0	0	0	0	0	0	0	0	0	0	0	0	0	0	0	0	0	0	0	0	0	0	0	0	0	0	0	0	0	0
071019	11:55:17	12:03:37	499704	5.0.10.0	5_exp_noRW	36	Rpleas_acq	CS_A	CPPC	LWWL	ZHHZ	JQQJ	YFFY	DXXD	vertrauen	sonnig	träumen	gütig	küssen	genießen	versagen	sterben	töten	gierig	krank	gemein	53pct	acq_USpleas_CSpleas1_noRW	acq23456_noRW	3	73	0	0	300	300	370	50	0	1	1	blank2r.bmp	0	1	+	0	1	blank2r.bmp	252	1	CPPC	306	3	träumen	559	0	0	0	0	0	0	0	0	0	0	0	0	0	0	0	0	0	0	0	0	0	0	0	0	0	0	0	0	0	0	0	0	0	0	0	0	0	0	0
071019	11:55:17	12:03:39	501369	5.0.10.0	5_exp_noRW	36	Rpleas_acq	CS_A	CPPC	LWWL	ZHHZ	JQQJ	YFFY	DXXD	vertrauen	sonnig	träumen	gütig	küssen	genießen	versagen	sterben	töten	gierig	krank	gemein	53pct	acq_USunple_CSpleas1_noRW	acq23456_noRW	3	74	0	0	300	300	483	46	0	1	1	blank2r.bmp	0	1	+	0	1	blank2r.bmp	252	1	CPPC	306	3	töten	559	0	0	0	0	0	0	0	0	0	0	0	0	0	0	0	0	0	0	0	0	0	0	0	0	0	0	0	0	0	0	0	0	0	0	0	0	0	0	0
071019	11:55:17	12:03:40	503142	5.0.10.0	5_exp_noRW	36	Rpleas_acq	CS_A	CPPC	LWWL	ZHHZ	JQQJ	YFFY	DXXD	vertrauen	sonnig	träumen	gütig	küssen	genießen	versagen	sterben	töten	gierig	krank	gemein	53pct	acq_USunple_CSunple1_noRW	acq23456_noRW	3	75	0	0	300	300	602	46	0	1	1	blank2r.bmp	0	1	+	0	1	blank2r.bmp	252	1	ZHHZ	306	1	versagen	559	0	0	0	0	0	0	0	0	0	0	0	0	0	0	0	0	0	0	0	0	0	0	0	0	0	0	0	0	0	0	0	0	0	0	0	0	0	0	0
071019	11:55:17	12:03:42	504781	5.0.10.0	5_exp_noRW	36	Rpleas_acq	CS_A	CPPC	LWWL	ZHHZ	JQQJ	YFFY	DXXD	vertrauen	sonnig	träumen	gütig	küssen	genießen	versagen	sterben	töten	gierig	krank	gemein	53pct	acq_USpleas_CSpleas1_noRW	acq23456_noRW	3	76	0	0	300	300	467	50	0	1	1	blank2r.bmp	0	1	+	0	1	blank2r.bmp	252	1	CPPC	306	2	sonnig	559	0	0	0	0	0	0	0	0	0	0	0	0	0	0	0	0	0	0	0	0	0	0	0	0	0	0	0	0	0	0	0	0	0	0	0	0	0	0	0
071019	11:55:17	12:03:44	506381	5.0.10.0	5_exp_noRW	36	Rpleas_acq	CS_A	CPPC	LWWL	ZHHZ	JQQJ	YFFY	DXXD	vertrauen	sonnig	träumen	gütig	küssen	genießen	versagen	sterben	töten	gierig	krank	gemein	47pct	acq_USpleas_CSunple1_noRW	acq23456_noRW	3	77	0	0	300	300	432	50	0	1	1	blank2r.bmp	0	1	+	0	1	blank2r.bmp	252	1	ZHHZ	306	3	träumen	559	0	0	0	0	0	0	0	0	0	0	0	0	0	0	0	0	0	0	0	0	0	0	0	0	0	0	0	0	0	0	0	0	0	0	0	0	0	0	0
071019	11:55:17	12:03:45	507940	5.0.10.0	5_exp_noRW	36	Rpleas_acq	CS_A	CPPC	LWWL	ZHHZ	JQQJ	YFFY	DXXD	vertrauen	sonnig	träumen	gütig	küssen	genießen	versagen	sterben	töten	gierig	krank	gemein	47pct	acq_USpleas_CSpleas1_noRW	acq23456_noRW	3	78	0	0	300	300	382	50	0	1	1	blank2r.bmp	0	1	+	0	1	blank2r.bmp	252	1	CPPC	306	1	vertrauen	559	0	0	0	0	0	0	0	0	0	0	0	0	0	0	0	0	0	0	0	0	0	0	0	0	0	0	0	0	0	0	0	0	0	0	0	0	0	0	0
071019	11:55:17	12:03:47	509619	5.0.10.0	5_exp_noRW	36	Rpleas_acq	CS_A	CPPC	LWWL	ZHHZ	JQQJ	YFFY	DXXD	vertrauen	sonnig	träumen	gütig	küssen	genießen	versagen	sterben	töten	gierig	krank	gemein	53pct	acq_USpleas_CSpleas2_noRW	acq23456_noRW	3	79	0	0	300	300	498	50	0	1	1	blank2r.bmp	0	1	+	0	1	blank2r.bmp	252	1	LWWL	306	3	genießen	559	0	0	0	0	0	0	0	0	0	0	0	0	0	0	0	0	0	0	0	0	0	0	0	0	0	0	0	0	0	0	0	0	0	0	0	0	0	0	0
071019	11:55:17	12:03:49	511232	5.0.10.0	5_exp_noRW	36	Rpleas_acq	CS_A	CPPC	LWWL	ZHHZ	JQQJ	YFFY	DXXD	vertrauen	sonnig	träumen	gütig	küssen	genießen	versagen	sterben	töten	gierig	krank	gemein	47pct	acq_USunple_CSunple1_noRW	acq23456_noRW	3	80	0	0	300	300	439	46	0	1	1	blank2r.bmp	0	1	+	0	1	blank2r.bmp	252	1	ZHHZ	306	2	sterben	559	0	0	0	0	0	0	0	0	0	0	0	0	0	0	0	0	0	0	0	0	0	0	0	0	0	0	0	0	0	0	0	0	0	0	0	0	0	0	0
071019	11:55:17	12:04:40	562958	5.0.10.0	5_exp_noRW	36	Rpleas_acq	CS_A	CPPC	LWWL	ZHHZ	JQQJ	YFFY	DXXD	vertrauen	sonnig	träumen	gütig	küssen	genießen	versagen	sterben	töten	gierig	krank	gemein	53pct	acq_USpleas_CSpleas2_noRW	acq23456_noRW	4	1	0	0	300	300	414	50	0	1	1	blank2r.bmp	0	1	+	0	1	blank2r.bmp	252	1	LWWL	306	3	genießen	559	0	0	0	0	0	0	0	0	0	0	0	0	0	0	0	0	0	0	0	0	0	0	0	0	0	0	0	0	0	0	0	0	0	0	0	0	0	0	0
