date	time	script.currenttime	script.elapsedtime	build	script.currentexpt	subject	expressions.LRpleas_acq	expressions.conditionCS_A	expressions.CSpleas_1	expressions.CSpleas_2	expressions.CSunple_1	expressions.CSunple_2	expressions.distractor_1	expressions.distractor_2	expressions.US_pleas1	expressions.US_pleas2	expressions.US_pleas3	expressions.US_pleas4	expressions.US_pleas5	expressions.US_pleas6	expressions.US_unple1	expressions.US_unple2	expressions.US_unple3	expressions.US_unple4	expressions.US_unple5	expressions.US_unple6	counter.positions_noRW	trialcode	blockcode	blocknum	trialnum	windowcenter	inwindow	pretrialpause	posttrialpause	latency	response	expressions.correctedscore	correct	stimulusnumber1	stimulusitem1	stimulusonset1	stimulusnumber2	stimulusitem2	stimulusonset2	stimulusnumber3	stimulusitem3	stimulusonset3	stimulusnumber4	stimulusitem4	stimulusonset4	stimulusnumber5	stimulusitem5	stimulusonset5	stimulusnumber6	stimulusitem6	stimulusonset6	stimulusnumber7	stimulusitem7	stimulusonset7	stimulusnumber8	stimulusitem8	stimulusonset8	stimulusnumber9	stimulusitem9	stimulusonset9	stimulusnumber10	stimulusitem10	stimulusonset10	stimulusnumber11	stimulusitem11	stimulusonset11	stimulusnumber12	stimulusitem12	stimulusonset12	stimulusnumber13	stimulusitem13	stimulusonset13	stimulusnumber14	stimulusitem14	stimulusonset14	stimulusnumber15	stimulusitem15	stimulusonset15	stimulusnumber16	stimulusitem16	stimulusonset16	stimulusnumber17	stimulusitem17	stimulusonset17	stimulusnumber18	stimulusitem18	stimulusonset18
070319	13:18:11	13:19:42	90695	5.0.10.0	5_exp_RW	11	Rpleas_acq	CS_A	LWWL	DXXD	YFFY	JQQJ	CPPC	ZHHZ	küssen	genießen	träumen	sonnig	gütig	vertrauen	krank	gemein	töten	sterben	gierig	versagen	1	acq_USpleas_CSpleas1_RW	acq1_RW	1	1	0	0	300	300	1807	50	0	1	1	blank2r.bmp	0	1	+	0	1	blank2r.bmp	492	1	LWWL	492	1	blank2r.bmp	572	3	träumen	866	0	0	0	0	0	0	0	0	0	0	0	0	0	0	0	0	0	0	0	0	0	0	0	0	0	0	0	0	0	0	0	0	0	0	0	0
070319	13:18:11	13:19:44	93014	5.0.10.0	5_exp_RW	11	Rpleas_acq	CS_A	LWWL	DXXD	YFFY	JQQJ	CPPC	ZHHZ	küssen	genießen	träumen	sonnig	gütig	vertrauen	krank	gemein	töten	sterben	gierig	versagen	1	acq_USunple_CSunple2_RW	acq1_RW	1	2	0	0	300	300	831	46	0	1	1	blank2r.bmp	0	1	+	0	1	blank2r.bmp	492	1	JQQJ	492	1	blank2r.bmp	572	3	versagen	866	0	0	0	0	0	0	0	0	0	0	0	0	0	0	0	0	0	0	0	0	0	0	0	0	0	0	0	0	0	0	0	0	0	0	0	0
070319	13:18:11	13:19:47	95453	5.0.10.0	5_exp_RW	11	Rpleas_acq	CS_A	LWWL	DXXD	YFFY	JQQJ	CPPC	ZHHZ	küssen	genießen	träumen	sonnig	gütig	vertrauen	krank	gemein	töten	sterben	gierig	versagen	1	acq_USunple_CSunple1_RW	acq1_RW	1	3	0	0	300	300	949	46	0	1	1	blank2r.bmp	0	1	+	0	1	blank2r.bmp	492	1	YFFY	492	1	blank2r.bmp	572	3	töten	866	0	0	0	0	0	0	0	0	0	0	0	0	0	0	0	0	0	0	0	0	0	0	0	0	0	0	0	0	0	0	0	0	0	0	0	0
070319	13:18:11	13:19:49	97678	5.0.10.0	5_exp_RW	11	Rpleas_acq	CS_A	LWWL	DXXD	YFFY	JQQJ	CPPC	ZHHZ	küssen	genießen	träumen	sonnig	gütig	vertrauen	krank	gemein	töten	sterben	gierig	versagen	1	acq_USunple_CSunple2_RW	acq1_RW	1	4	0	0	300	300	752	46	0	1	1	blank2r.bmp	0	1	+	0	1	blank2r.bmp	492	1	JQQJ	492	1	blank2r.bmp	572	2	gierig	866	0	0	0	0	0	0	0	0	0	0	0	0	0	0	0	0	0	0	0	0	0	0	0	0	0	0	0	0	0	0	0	0	0	0	0	0
070319	13:18:11	13:19:51	99891	5.0.10.0	5_exp_RW	11	Rpleas_acq	CS_A	LWWL	DXXD	YFFY	JQQJ	CPPC	ZHHZ	küssen	genießen	träumen	sonnig	gütig	vertrauen	krank	gemein	töten	sterben	gierig	versagen	1	acq_USunple_CSunple1_RW	acq1_RW	1	5	0	0	300	300	719	46	0	1	1	blank2r.bmp	0	1	+	0	1	blank2r.bmp	492	1	YFFY	492	1	blank2r.bmp	572	1	krank	866	0	0	0	0	0	0	0	0	0	0	0	0	0	0	0	0	0	0	0	0	0	0	0	0	0	0	0	0	0	0	0	0	0	0	0	0
070319	13:18:11	13:19:53	102037	5.0.10.0	5_exp_RW	11	Rpleas_acq	CS_A	LWWL	DXXD	YFFY	JQQJ	CPPC	ZHHZ	küssen	genießen	träumen	sonnig	gütig	vertrauen	krank	gemein	töten	sterben	gierig	versagen	1	acq_USunple_CSunple2_RW	acq1_RW	1	6	0	0	300	300	657	46	0	1	1	blank2r.bmp	0	1	+	0	1	blank2r.bmp	492	1	JQQJ	492	1	blank2r.bmp	572	1	sterben	866	0	0	0	0	0	0	0	0	0	0	0	0	0	0	0	0	0	0	0	0	0	0	0	0	0	0	0	0	0	0	0	0	0	0	0	0
070319	13:18:11	13:19:55	104156	5.0.10.0	5_exp_RW	11	Rpleas_acq	CS_A	LWWL	DXXD	YFFY	JQQJ	CPPC	ZHHZ	küssen	genießen	träumen	sonnig	gütig	vertrauen	krank	gemein	töten	sterben	gierig	versagen	1	acq_USunple_CSunple1_RW	acq1_RW	1	7	0	0	300	300	647	46	0	1	1	blank2r.bmp	0	1	+	0	1	blank2r.bmp	492	1	YFFY	492	1	blank2r.bmp	572	2	gemein	866	0	0	0	0	0	0	0	0	0	0	0	0	0	0	0	0	0	0	0	0	0	0	0	0	0	0	0	0	0	0	0	0	0	0	0	0
070319	13:18:11	13:19:58	106221	5.0.10.0	5_exp_RW	11	Rpleas_acq	CS_A	LWWL	DXXD	YFFY	JQQJ	CPPC	ZHHZ	küssen	genießen	träumen	sonnig	gütig	vertrauen	krank	gemein	töten	sterben	gierig	versagen	1	acq_USunple_CSunple1_RW	acq1_RW	1	8	0	0	300	300	587	46	0	1	1	blank2r.bmp	0	1	+	0	1	blank2r.bmp	492	1	YFFY	492	1	blank2r.bmp	572	1	krank	866	0	0	0	0	0	0	0	0	0	0	0	0	0	0	0	0	0	0	0	0	0	0	0	0	0	0	0	0	0	0	0	0	0	0	0	0
070319	13:18:11	13:20:00	108407	5.0.10.0	5_exp_RW	11	Rpleas_acq	CS_A	LWWL	DXXD	YFFY	JQQJ	CPPC	ZHHZ	küssen	genießen	träumen	sonnig	gütig	vertrauen	krank	gemein	töten	sterben	gierig	versagen	1	acq_USpleas_CSpleas2_RW	acq1_RW	1	9	0	0	300	300	714	50	0	1	1	blank2r.bmp	0	1	+	0	1	blank2r.bmp	492	1	DXXD	492	1	blank2r.bmp	572	2	gütig	866	0	0	0	0	0	0	0	0	0	0	0	0	0	0	0	0	0	0	0	0	0	0	0	0	0	0	0	0	0	0	0	0	0	0	0	0
070319	13:18:11	13:20:02	110633	5.0.10.0	5_exp_RW	11	Rpleas_acq	CS_A	LWWL	DXXD	YFFY	JQQJ	CPPC	ZHHZ	küssen	genießen	träumen	sonnig	gütig	vertrauen	krank	gemein	töten	sterben	gierig	versagen	1	acq_USpleas_CSpleas2_RW	acq1_RW	1	10	0	0	300	300	732	50	0	1	1	blank2r.bmp	0	1	+	0	1	blank2r.bmp	492	1	DXXD	492	1	blank2r.bmp	572	1	sonnig	866	0	0	0	0	0	0	0	0	0	0	0	0	0	0	0	0	0	0	0	0	0	0	0	0	0	0	0	0	0	0	0	0	0	0	0	0
070319	13:18:11	13:20:04	112685	5.0.10.0	5_exp_RW	11	Rpleas_acq	CS_A	LWWL	DXXD	YFFY	JQQJ	CPPC	ZHHZ	küssen	genießen	träumen	sonnig	gütig	vertrauen	krank	gemein	töten	sterben	gierig	versagen	1	acq_USpleas_CSpleas1_RW	acq1_RW	1	11	0	0	300	300	582	50	0	1	1	blank2r.bmp	0	1	+	0	1	blank2r.bmp	492	1	LWWL	492	1	blank2r.bmp	572	2	genießen	866	0	0	0	0	0	0	0	0	0	0	0	0	0	0	0	0	0	0	0	0	0	0	0	0	0	0	0	0	0	0	0	0	0	0	0	0
070319	13:18:11	13:20:06	114738	5.0.10.0	5_exp_RW	11	Rpleas_acq	CS_A	LWWL	DXXD	YFFY	JQQJ	CPPC	ZHHZ	küssen	genießen	träumen	sonnig	gütig	vertrauen	krank	gemein	töten	sterben	gierig	versagen	1	acq_USpleas_CSpleas2_RW	acq1_RW	1	12	0	0	300	300	569	50	0	1	1	blank2r.bmp	0	1	+	0	1	blank2r.bmp	492	1	DXXD	492	1	blank2r.bmp	572	3	vertrauen	866	0	0	0	0	0	0	0	0	0	0	0	0	0	0	0	0	0	0	0	0	0	0	0	0	0	0	0	0	0	0	0	0	0	0	0	0
070319	13:18:11	13:20:08	116724	5.0.10.0	5_exp_RW	11	Rpleas_acq	CS_A	LWWL	DXXD	YFFY	JQQJ	CPPC	ZHHZ	küssen	genießen	träumen	sonnig	gütig	vertrauen	krank	gemein	töten	sterben	gierig	versagen	1	acq_USpleas_CSpleas1_RW	acq1_RW	1	13	0	0	300	300	503	50	0	1	1	blank2r.bmp	0	1	+	0	1	blank2r.bmp	492	1	LWWL	492	1	blank2r.bmp	572	1	küssen	866	0	0	0	0	0	0	0	0	0	0	0	0	0	0	0	0	0	0	0	0	0	0	0	0	0	0	0	0	0	0	0	0	0	0	0	0
070319	13:18:11	13:20:10	118803	5.0.10.0	5_exp_RW	11	Rpleas_acq	CS_A	LWWL	DXXD	YFFY	JQQJ	CPPC	ZHHZ	küssen	genießen	träumen	sonnig	gütig	vertrauen	krank	gemein	töten	sterben	gierig	versagen	1	acq_USpleas_CSpleas2_RW	acq1_RW	1	14	0	0	300	300	594	50	0	1	1	blank2r.bmp	0	1	+	0	1	blank2r.bmp	492	1	DXXD	492	1	blank2r.bmp	572	1	sonnig	866	0	0	0	0	0	0	0	0	0	0	0	0	0	0	0	0	0	0	0	0	0	0	0	0	0	0	0	0	0	0	0	0	0	0	0	0
070319	13:18:11	13:20:12	120882	5.0.10.0	5_exp_RW	11	Rpleas_acq	CS_A	LWWL	DXXD	YFFY	JQQJ	CPPC	ZHHZ	küssen	genießen	träumen	sonnig	gütig	vertrauen	krank	gemein	töten	sterben	gierig	versagen	1	acq_USunple_CSunple2_RW	acq1_RW	1	15	0	0	300	300	608	46	0	1	1	blank2r.bmp	0	1	+	0	1	blank2r.bmp	492	1	JQQJ	492	1	blank2r.bmp	572	1	sterben	866	0	0	0	0	0	0	0	0	0	0	0	0	0	0	0	0	0	0	0	0	0	0	0	0	0	0	0	0	0	0	0	0	0	0	0	0
070319	13:18:11	13:20:14	122961	5.0.10.0	5_exp_RW	11	Rpleas_acq	CS_A	LWWL	DXXD	YFFY	JQQJ	CPPC	ZHHZ	küssen	genießen	träumen	sonnig	gütig	vertrauen	krank	gemein	töten	sterben	gierig	versagen	1	acq_USpleas_CSpleas1_RW	acq1_RW	1	16	0	0	300	300	594	50	0	1	1	blank2r.bmp	0	1	+	0	1	blank2r.bmp	492	1	LWWL	492	1	blank2r.bmp	572	2	genießen	866	0	0	0	0	0	0	0	0	0	0	0	0	0	0	0	0	0	0	0	0	0	0	0	0	0	0	0	0	0	0	0	0	0	0	0	0
070319	13:18:11	13:20:51	160039	5.0.10.0	5_exp_RW	11	Rpleas_acq	CS_A	LWWL	DXXD	YFFY	JQQJ	CPPC	ZHHZ	küssen	genießen	träumen	sonnig	gütig	vertrauen	krank	gemein	töten	sterben	gierig	versagen	1	acq_USpleas_CSpleas2_RW	acq2_RW	2	1	480	0	300	300	6002	50	0	1	1	blank2r.bmp	0	1	+	0	1	blank2r.bmp	492	1	DXXD	492	1	blank2r.bmp	572	3	vertrauen	866	1	!	1319	1	!	-1	0	0	0	0	0	0	0	0	0	0	0	0	0	0	0	0	0	0	0	0	0	0	0	0	0	0	0	0	0	0
070319	13:18:11	13:20:54	162638	5.0.10.0	5_exp_RW	11	Rpleas_acq	CS_A	LWWL	DXXD	YFFY	JQQJ	CPPC	ZHHZ	küssen	genießen	träumen	sonnig	gütig	vertrauen	krank	gemein	töten	sterben	gierig	versagen	1	acq_USpleas_CSpleas2_RW	acq2_RW	2	2	480	0	300	300	820	50	0	1	1	blank2r.bmp	0	1	+	0	1	blank2r.bmp	492	1	DXXD	492	1	blank2r.bmp	572	2	gütig	866	1	!	1319	1	!	-1	0	0	0	0	0	0	0	0	0	0	0	0	0	0	0	0	0	0	0	0	0	0	0	0	0	0	0	0	0	0
070319	13:18:11	13:20:56	164837	5.0.10.0	5_exp_RW	11	Rpleas_acq	CS_A	LWWL	DXXD	YFFY	JQQJ	CPPC	ZHHZ	küssen	genießen	träumen	sonnig	gütig	vertrauen	krank	gemein	töten	sterben	gierig	versagen	1	acq_USpleas_CSpleas1_RW	acq2_RW	2	3	480	0	300	300	406	50	0	1	1	blank2r.bmp	0	1	+	0	1	blank2r.bmp	492	1	LWWL	492	1	blank2r.bmp	572	1	küssen	866	1	!	-1	1	!	-1	0	0	0	0	0	0	0	0	0	0	0	0	0	0	0	0	0	0	0	0	0	0	0	0	0	0	0	0	0	0
070319	13:18:11	13:20:59	167503	5.0.10.0	5_exp_RW	11	Rpleas_acq	CS_A	LWWL	DXXD	YFFY	JQQJ	CPPC	ZHHZ	küssen	genießen	träumen	sonnig	gütig	vertrauen	krank	gemein	töten	sterben	gierig	versagen	1	acq_USpleas_CSpleas1_RW	acq2_RW	2	4	480	0	300	300	877	50	0	1	1	blank2r.bmp	0	1	+	0	1	blank2r.bmp	492	1	LWWL	492	1	blank2r.bmp	572	3	träumen	866	1	!	1319	1	!	-1	0	0	0	0	0	0	0	0	0	0	0	0	0	0	0	0	0	0	0	0	0	0	0	0	0	0	0	0	0	0
070319	13:18:11	13:21:01	169848	5.0.10.0	5_exp_RW	11	Rpleas_acq	CS_A	LWWL	DXXD	YFFY	JQQJ	CPPC	ZHHZ	küssen	genießen	träumen	sonnig	gütig	vertrauen	krank	gemein	töten	sterben	gierig	versagen	1	acq_USunple_CSunple2_RW	acq2_RW	2	5	480	0	300	300	559	46	0	1	1	blank2r.bmp	0	1	+	0	1	blank2r.bmp	492	1	JQQJ	492	1	blank2r.bmp	572	2	gierig	866	1	!	1319	1	!	-1	0	0	0	0	0	0	0	0	0	0	0	0	0	0	0	0	0	0	0	0	0	0	0	0	0	0	0	0	0	0
070319	13:18:11	13:21:04	172221	5.0.10.0	5_exp_RW	11	Rpleas_acq	CS_A	LWWL	DXXD	YFFY	JQQJ	CPPC	ZHHZ	küssen	genießen	träumen	sonnig	gütig	vertrauen	krank	gemein	töten	sterben	gierig	versagen	1	acq_USunple_CSunple2_RW	acq2_RW	2	6	480	0	300	300	588	46	0	1	1	blank2r.bmp	0	1	+	0	1	blank2r.bmp	492	1	JQQJ	492	1	blank2r.bmp	572	3	versagen	866	1	!	1319	1	!	-1	0	0	0	0	0	0	0	0	0	0	0	0	0	0	0	0	0	0	0	0	0	0	0	0	0	0	0	0	0	0
070319	13:18:11	13:21:06	174473	5.0.10.0	5_exp_RW	11	Rpleas_acq	CS_A	LWWL	DXXD	YFFY	JQQJ	CPPC	ZHHZ	küssen	genießen	träumen	sonnig	gütig	vertrauen	krank	gemein	töten	sterben	gierig	versagen	1	acq_USpleas_CSpleas1_RW	acq2_RW	2	7	480	0	300	300	241	46	0	0	1	blank2r.bmp	0	1	+	0	1	blank2r.bmp	492	1	LWWL	492	1	blank2r.bmp	572	2	genießen	866	1	FEHLER	1452	1	!	-1	1	!	-1	0	0	0	0	0	0	0	0	0	0	0	0	0	0	0	0	0	0	0	0	0	0	0	0	0	0	0
070319	13:18:11	13:21:08	176512	5.0.10.0	5_exp_RW	11	Rpleas_acq	CS_A	LWWL	DXXD	YFFY	JQQJ	CPPC	ZHHZ	küssen	genießen	träumen	sonnig	gütig	vertrauen	krank	gemein	töten	sterben	gierig	versagen	1	acq_USunple_CSunple1_RW	acq2_RW	2	8	480	1	300	300	464	46	0	1	1	blank2r.bmp	0	1	+	0	1	blank2r.bmp	492	1	YFFY	492	1	blank2r.bmp	572	2	gemein	866	1	!	1319	1	!	1359	0	0	0	0	0	0	0	0	0	0	0	0	0	0	0	0	0	0	0	0	0	0	0	0	0	0	0	0	0	0
070319	13:18:11	13:21:10	178685	5.0.10.0	5_exp_RW	11	Rpleas_acq	CS_A	LWWL	DXXD	YFFY	JQQJ	CPPC	ZHHZ	küssen	genießen	träumen	sonnig	gütig	vertrauen	krank	gemein	töten	sterben	gierig	versagen	1	acq_USunple_CSunple2_RW	acq2_RW	2	9	480	0	300	300	405	46	0	1	1	blank2r.bmp	0	1	+	0	1	blank2r.bmp	492	1	JQQJ	492	1	blank2r.bmp	572	1	sterben	866	1	!	-1	1	!	-1	0	0	0	0	0	0	0	0	0	0	0	0	0	0	0	0	0	0	0	0	0	0	0	0	0	0	0	0	0	0
070319	13:18:11	13:21:12	181164	5.0.10.0	5_exp_RW	11	Rpleas_acq	CS_A	LWWL	DXXD	YFFY	JQQJ	CPPC	ZHHZ	küssen	genießen	träumen	sonnig	gütig	vertrauen	krank	gemein	töten	sterben	gierig	versagen	1	acq_USpleas_CSpleas2_RW	acq2_RW	2	10	480	0	300	300	691	50	0	1	1	blank2r.bmp	0	1	+	0	1	blank2r.bmp	492	1	DXXD	492	1	blank2r.bmp	572	3	vertrauen	866	1	!	1319	1	!	-1	0	0	0	0	0	0	0	0	0	0	0	0	0	0	0	0	0	0	0	0	0	0	0	0	0	0	0	0	0	0
070319	13:18:11	13:21:15	183349	5.0.10.0	5_exp_RW	11	Rpleas_acq	CS_A	LWWL	DXXD	YFFY	JQQJ	CPPC	ZHHZ	küssen	genießen	träumen	sonnig	gütig	vertrauen	krank	gemein	töten	sterben	gierig	versagen	1	acq_USpleas_CSpleas2_RW	acq2_RW	2	11	480	0	300	300	403	50	0	1	1	blank2r.bmp	0	1	+	0	1	blank2r.bmp	492	1	DXXD	492	1	blank2r.bmp	572	1	sonnig	866	1	!	-1	1	!	-1	0	0	0	0	0	0	0	0	0	0	0	0	0	0	0	0	0	0	0	0	0	0	0	0	0	0	0	0	0	0
070319	13:18:11	13:21:17	185588	5.0.10.0	5_exp_RW	11	Rpleas_acq	CS_A	LWWL	DXXD	YFFY	JQQJ	CPPC	ZHHZ	küssen	genießen	träumen	sonnig	gütig	vertrauen	krank	gemein	töten	sterben	gierig	versagen	1	acq_USpleas_CSpleas2_RW	acq2_RW	2	12	480	1	300	300	426	50	0	1	1	blank2r.bmp	0	1	+	0	1	blank2r.bmp	492	1	DXXD	492	1	blank2r.bmp	572	2	gütig	866	1	!	1319	1	!	1332	0	0	0	0	0	0	0	0	0	0	0	0	0	0	0	0	0	0	0	0	0	0	0	0	0	0	0	0	0	0
070319	13:18:11	13:21:19	187747	5.0.10.0	5_exp_RW	11	Rpleas_acq	CS_A	LWWL	DXXD	YFFY	JQQJ	CPPC	ZHHZ	küssen	genießen	träumen	sonnig	gütig	vertrauen	krank	gemein	töten	sterben	gierig	versagen	1	acq_USpleas_CSpleas1_RW	acq2_RW	2	13	480	0	300	300	394	50	0	1	1	blank2r.bmp	0	1	+	0	1	blank2r.bmp	492	1	LWWL	492	1	blank2r.bmp	572	1	küssen	866	1	!	-1	1	!	-1	0	0	0	0	0	0	0	0	0	0	0	0	0	0	0	0	0	0	0	0	0	0	0	0	0	0	0	0	0	0
070319	13:18:11	13:21:21	189986	5.0.10.0	5_exp_RW	11	Rpleas_acq	CS_A	LWWL	DXXD	YFFY	JQQJ	CPPC	ZHHZ	küssen	genießen	träumen	sonnig	gütig	vertrauen	krank	gemein	töten	sterben	gierig	versagen	1	acq_USunple_CSunple1_RW	acq2_RW	2	14	480	1	300	300	426	46	0	1	1	blank2r.bmp	0	1	+	0	1	blank2r.bmp	492	1	YFFY	492	1	blank2r.bmp	572	3	töten	866	1	!	1319	1	!	1332	0	0	0	0	0	0	0	0	0	0	0	0	0	0	0	0	0	0	0	0	0	0	0	0	0	0	0	0	0	0
070319	13:18:11	13:21:23	192066	5.0.10.0	5_exp_RW	11	Rpleas_acq	CS_A	LWWL	DXXD	YFFY	JQQJ	CPPC	ZHHZ	küssen	genießen	träumen	sonnig	gütig	vertrauen	krank	gemein	töten	sterben	gierig	versagen	1	acq_USunple_CSunple1_RW	acq2_RW	2	15	480	0	300	300	315	46	0	1	1	blank2r.bmp	0	1	+	0	1	blank2r.bmp	492	1	YFFY	492	1	blank2r.bmp	572	3	töten	866	1	!	-1	1	!	-1	0	0	0	0	0	0	0	0	0	0	0	0	0	0	0	0	0	0	0	0	0	0	0	0	0	0	0	0	0	0
070319	13:18:11	13:21:26	194345	5.0.10.0	5_exp_RW	11	Rpleas_acq	CS_A	LWWL	DXXD	YFFY	JQQJ	CPPC	ZHHZ	küssen	genießen	träumen	sonnig	gütig	vertrauen	krank	gemein	töten	sterben	gierig	versagen	1	acq_USpleas_CSpleas1_RW	acq2_RW	2	16	480	1	300	300	474	50	0	1	1	blank2r.bmp	0	1	+	0	1	blank2r.bmp	492	1	LWWL	492	1	blank2r.bmp	572	3	träumen	866	1	!	1319	1	!	1372	0	0	0	0	0	0	0	0	0	0	0	0	0	0	0	0	0	0	0	0	0	0	0	0	0	0	0	0	0	0
070319	13:18:11	13:21:28	196717	5.0.10.0	5_exp_RW	11	Rpleas_acq	CS_A	LWWL	DXXD	YFFY	JQQJ	CPPC	ZHHZ	küssen	genießen	träumen	sonnig	gütig	vertrauen	krank	gemein	töten	sterben	gierig	versagen	1	acq_USunple_CSunple1_RW	acq2_RW	2	17	480	0	300	300	605	46	0	1	1	blank2r.bmp	0	1	+	0	1	blank2r.bmp	492	1	YFFY	492	1	blank2r.bmp	572	1	krank	866	1	!	1319	1	!	-1	0	0	0	0	0	0	0	0	0	0	0	0	0	0	0	0	0	0	0	0	0	0	0	0	0	0	0	0	0	0
070319	13:18:11	13:21:30	198823	5.0.10.0	5_exp_RW	11	Rpleas_acq	CS_A	LWWL	DXXD	YFFY	JQQJ	CPPC	ZHHZ	küssen	genießen	träumen	sonnig	gütig	vertrauen	krank	gemein	töten	sterben	gierig	versagen	1	acq_USunple_CSunple2_RW	acq2_RW	2	18	480	0	300	300	325	46	0	1	1	blank2r.bmp	0	1	+	0	1	blank2r.bmp	492	1	JQQJ	492	1	blank2r.bmp	572	2	gierig	866	1	!	-1	1	!	-1	0	0	0	0	0	0	0	0	0	0	0	0	0	0	0	0	0	0	0	0	0	0	0	0	0	0	0	0	0	0
070319	13:18:11	13:21:32	201155	5.0.10.0	5_exp_RW	11	Rpleas_acq	CS_A	LWWL	DXXD	YFFY	JQQJ	CPPC	ZHHZ	küssen	genießen	träumen	sonnig	gütig	vertrauen	krank	gemein	töten	sterben	gierig	versagen	1	acq_USunple_CSunple2_RW	acq2_RW	2	19	480	1	300	300	528	46	0	1	1	blank2r.bmp	0	1	+	0	1	blank2r.bmp	492	1	JQQJ	492	1	blank2r.bmp	572	3	versagen	866	1	!	1319	1	!	1426	0	0	0	0	0	0	0	0	0	0	0	0	0	0	0	0	0	0	0	0	0	0	0	0	0	0	0	0	0	0
070319	13:18:11	13:21:35	203487	5.0.10.0	5_exp_RW	11	Rpleas_acq	CS_A	LWWL	DXXD	YFFY	JQQJ	CPPC	ZHHZ	küssen	genießen	träumen	sonnig	gütig	vertrauen	krank	gemein	töten	sterben	gierig	versagen	1	acq_USpleas_CSpleas2_RW	acq2_RW	2	20	480	1	300	300	536	50	0	1	1	blank2r.bmp	0	1	+	0	1	blank2r.bmp	492	1	DXXD	492	1	blank2r.bmp	572	2	gütig	866	1	!	1319	1	!	1439	0	0	0	0	0	0	0	0	0	0	0	0	0	0	0	0	0	0	0	0	0	0	0	0	0	0	0	0	0	0
070319	13:18:11	13:21:37	205833	5.0.10.0	5_exp_RW	11	Rpleas_acq	CS_A	LWWL	DXXD	YFFY	JQQJ	CPPC	ZHHZ	küssen	genießen	träumen	sonnig	gütig	vertrauen	krank	gemein	töten	sterben	gierig	versagen	1	acq_USunple_CSunple1_RW	acq2_RW	2	21	480	0	300	300	582	46	0	1	1	blank2r.bmp	0	1	+	0	1	blank2r.bmp	492	1	YFFY	492	1	blank2r.bmp	572	2	gemein	866	1	!	1319	1	!	-1	0	0	0	0	0	0	0	0	0	0	0	0	0	0	0	0	0	0	0	0	0	0	0	0	0	0	0	0	0	0
070319	13:18:11	13:21:39	207926	5.0.10.0	5_exp_RW	11	Rpleas_acq	CS_A	LWWL	DXXD	YFFY	JQQJ	CPPC	ZHHZ	küssen	genießen	träumen	sonnig	gütig	vertrauen	krank	gemein	töten	sterben	gierig	versagen	1	acq_USunple_CSunple1_RW	acq2_RW	2	22	480	0	300	300	301	46	0	1	1	blank2r.bmp	0	1	+	0	1	blank2r.bmp	492	1	YFFY	492	1	blank2r.bmp	572	3	töten	866	1	!	-1	1	!	-1	0	0	0	0	0	0	0	0	0	0	0	0	0	0	0	0	0	0	0	0	0	0	0	0	0	0	0	0	0	0
070319	13:18:11	13:21:41	210071	5.0.10.0	5_exp_RW	11	Rpleas_acq	CS_A	LWWL	DXXD	YFFY	JQQJ	CPPC	ZHHZ	küssen	genießen	träumen	sonnig	gütig	vertrauen	krank	gemein	töten	sterben	gierig	versagen	1	acq_USpleas_CSpleas1_RW	acq2_RW	2	23	480	0	300	300	368	50	0	1	1	blank2r.bmp	0	1	+	0	1	blank2r.bmp	492	1	LWWL	492	1	blank2r.bmp	572	2	genießen	866	1	!	-1	1	!	-1	0	0	0	0	0	0	0	0	0	0	0	0	0	0	0	0	0	0	0	0	0	0	0	0	0	0	0	0	0	0
070319	13:18:11	13:21:44	212470	5.0.10.0	5_exp_RW	11	Rpleas_acq	CS_A	LWWL	DXXD	YFFY	JQQJ	CPPC	ZHHZ	küssen	genießen	träumen	sonnig	gütig	vertrauen	krank	gemein	töten	sterben	gierig	versagen	1	acq_USunple_CSunple2_RW	acq2_RW	2	24	480	0	300	300	386	50	0	0	1	blank2r.bmp	0	1	+	0	1	blank2r.bmp	492	1	JQQJ	492	1	blank2r.bmp	572	3	versagen	866	1	FEHLER	1599	1	!	-1	1	!	-1	0	0	0	0	0	0	0	0	0	0	0	0	0	0	0	0	0	0	0	0	0	0	0	0	0	0	0
070319	13:18:11	13:22:07	235674	5.0.10.0	5_exp_RW	11	Rpleas_acq	CS_A	LWWL	DXXD	YFFY	JQQJ	CPPC	ZHHZ	küssen	genießen	träumen	sonnig	gütig	vertrauen	krank	gemein	töten	sterben	gierig	versagen	1	acq_USpleas_CSpleas2_RW	acq3_RW	3	1	453	0	300	300	575	50	0	1	1	blank2r.bmp	0	1	+	0	1	blank2r.bmp	492	1	DXXD	492	1	blank2r.bmp	572	3	vertrauen	866	1	!	1292	1	!	-1	0	0	0	0	0	0	0	0	0	0	0	0	0	0	0	0	0	0	0	0	0	0	0	0	0	0	0	0	0	0
070319	13:18:11	13:22:09	237886	5.0.10.0	5_exp_RW	11	Rpleas_acq	CS_A	LWWL	DXXD	YFFY	JQQJ	CPPC	ZHHZ	küssen	genießen	träumen	sonnig	gütig	vertrauen	krank	gemein	töten	sterben	gierig	versagen	1	acq_USunple_CSunple2_RW	acq3_RW	3	2	453	1	300	300	400	46	0	1	1	blank2r.bmp	0	1	+	0	1	blank2r.bmp	492	1	JQQJ	492	1	blank2r.bmp	572	1	sterben	866	1	!	1292	1	!	1306	0	0	0	0	0	0	0	0	0	0	0	0	0	0	0	0	0	0	0	0	0	0	0	0	0	0	0	0	0	0
070319	13:18:11	13:22:11	240192	5.0.10.0	5_exp_RW	11	Rpleas_acq	CS_A	LWWL	DXXD	YFFY	JQQJ	CPPC	ZHHZ	küssen	genießen	träumen	sonnig	gütig	vertrauen	krank	gemein	töten	sterben	gierig	versagen	1	acq_USpleas_CSpleas1_RW	acq3_RW	3	3	453	0	300	300	532	50	0	1	1	blank2r.bmp	0	1	+	0	1	blank2r.bmp	492	1	LWWL	492	1	blank2r.bmp	572	1	küssen	866	1	!	1292	1	!	-1	0	0	0	0	0	0	0	0	0	0	0	0	0	0	0	0	0	0	0	0	0	0	0	0	0	0	0	0	0	0
070319	13:18:11	13:22:14	242405	5.0.10.0	5_exp_RW	11	Rpleas_acq	CS_A	LWWL	DXXD	YFFY	JQQJ	CPPC	ZHHZ	küssen	genießen	träumen	sonnig	gütig	vertrauen	krank	gemein	töten	sterben	gierig	versagen	1	acq_USpleas_CSpleas1_RW	acq3_RW	3	4	453	1	300	300	406	50	0	1	1	blank2r.bmp	0	1	+	0	1	blank2r.bmp	492	1	LWWL	492	1	blank2r.bmp	572	3	träumen	866	1	!	1292	1	!	1306	0	0	0	0	0	0	0	0	0	0	0	0	0	0	0	0	0	0	0	0	0	0	0	0	0	0	0	0	0	0
070319	13:18:11	13:22:16	244537	5.0.10.0	5_exp_RW	11	Rpleas_acq	CS_A	LWWL	DXXD	YFFY	JQQJ	CPPC	ZHHZ	küssen	genießen	träumen	sonnig	gütig	vertrauen	krank	gemein	töten	sterben	gierig	versagen	1	acq_USpleas_CSpleas2_RW	acq3_RW	3	5	453	0	300	300	360	50	0	1	1	blank2r.bmp	0	1	+	0	1	blank2r.bmp	492	1	DXXD	492	1	blank2r.bmp	572	1	sonnig	866	1	!	-1	1	!	-1	0	0	0	0	0	0	0	0	0	0	0	0	0	0	0	0	0	0	0	0	0	0	0	0	0	0	0	0	0	0
070319	13:18:11	13:22:18	246763	5.0.10.0	5_exp_RW	11	Rpleas_acq	CS_A	LWWL	DXXD	YFFY	JQQJ	CPPC	ZHHZ	küssen	genießen	träumen	sonnig	gütig	vertrauen	krank	gemein	töten	sterben	gierig	versagen	1	acq_USunple_CSunple2_RW	acq3_RW	3	6	453	1	300	300	400	46	0	1	1	blank2r.bmp	0	1	+	0	1	blank2r.bmp	492	1	JQQJ	492	1	blank2r.bmp	572	2	gierig	866	1	!	1292	1	!	1306	0	0	0	0	0	0	0	0	0	0	0	0	0	0	0	0	0	0	0	0	0	0	0	0	0	0	0	0	0	0
070319	13:18:11	13:22:20	249055	5.0.10.0	5_exp_RW	11	Rpleas_acq	CS_A	LWWL	DXXD	YFFY	JQQJ	CPPC	ZHHZ	küssen	genießen	träumen	sonnig	gütig	vertrauen	krank	gemein	töten	sterben	gierig	versagen	1	acq_USpleas_CSpleas1_RW	acq3_RW	3	7	453	0	300	300	296	46	0	0	1	blank2r.bmp	0	1	+	0	1	blank2r.bmp	492	1	LWWL	492	1	blank2r.bmp	572	1	küssen	866	1	FEHLER	1506	1	!	-1	1	!	-1	0	0	0	0	0	0	0	0	0	0	0	0	0	0	0	0	0	0	0	0	0	0	0	0	0	0	0
070319	13:18:11	13:22:22	251054	5.0.10.0	5_exp_RW	11	Rpleas_acq	CS_A	LWWL	DXXD	YFFY	JQQJ	CPPC	ZHHZ	küssen	genießen	träumen	sonnig	gütig	vertrauen	krank	gemein	töten	sterben	gierig	versagen	1	acq_USunple_CSunple1_RW	acq3_RW	3	8	453	1	300	300	419	46	0	1	1	blank2r.bmp	0	1	+	0	1	blank2r.bmp	492	1	YFFY	492	1	blank2r.bmp	572	1	krank	866	1	!	1292	1	!	1319	0	0	0	0	0	0	0	0	0	0	0	0	0	0	0	0	0	0	0	0	0	0	0	0	0	0	0	0	0	0
070319	13:18:11	13:22:24	253080	5.0.10.0	5_exp_RW	11	Rpleas_acq	CS_A	LWWL	DXXD	YFFY	JQQJ	CPPC	ZHHZ	küssen	genießen	träumen	sonnig	gütig	vertrauen	krank	gemein	töten	sterben	gierig	versagen	1	acq_USunple_CSunple2_RW	acq3_RW	3	9	453	0	300	300	239	46	0	1	1	blank2r.bmp	0	1	+	0	1	blank2r.bmp	492	1	JQQJ	492	1	blank2r.bmp	572	1	sterben	866	1	!	-1	1	!	-1	0	0	0	0	0	0	0	0	0	0	0	0	0	0	0	0	0	0	0	0	0	0	0	0	0	0	0	0	0	0
070319	13:18:11	13:22:26	255159	5.0.10.0	5_exp_RW	11	Rpleas_acq	CS_A	LWWL	DXXD	YFFY	JQQJ	CPPC	ZHHZ	küssen	genießen	träumen	sonnig	gütig	vertrauen	krank	gemein	töten	sterben	gierig	versagen	1	acq_USunple_CSunple1_RW	acq3_RW	3	10	453	0	300	300	295	46	0	1	1	blank2r.bmp	0	1	+	0	1	blank2r.bmp	492	1	YFFY	492	1	blank2r.bmp	572	2	gemein	866	1	!	-1	1	!	-1	0	0	0	0	0	0	0	0	0	0	0	0	0	0	0	0	0	0	0	0	0	0	0	0	0	0	0	0	0	0
070319	13:18:11	13:22:29	257478	5.0.10.0	5_exp_RW	11	Rpleas_acq	CS_A	LWWL	DXXD	YFFY	JQQJ	CPPC	ZHHZ	küssen	genießen	träumen	sonnig	gütig	vertrauen	krank	gemein	töten	sterben	gierig	versagen	1	acq_USunple_CSunple2_RW	acq3_RW	3	11	453	1	300	300	493	46	0	1	1	blank2r.bmp	0	1	+	0	1	blank2r.bmp	492	1	JQQJ	492	1	blank2r.bmp	572	3	versagen	866	1	!	1292	1	!	1399	0	0	0	0	0	0	0	0	0	0	0	0	0	0	0	0	0	0	0	0	0	0	0	0	0	0	0	0	0	0
070319	13:18:11	13:22:31	259797	5.0.10.0	5_exp_RW	11	Rpleas_acq	CS_A	LWWL	DXXD	YFFY	JQQJ	CPPC	ZHHZ	küssen	genießen	träumen	sonnig	gütig	vertrauen	krank	gemein	töten	sterben	gierig	versagen	1	acq_USunple_CSunple2_RW	acq3_RW	3	12	453	0	300	300	552	46	0	1	1	blank2r.bmp	0	1	+	0	1	blank2r.bmp	492	1	JQQJ	492	1	blank2r.bmp	572	2	gierig	866	1	!	1292	1	!	-1	0	0	0	0	0	0	0	0	0	0	0	0	0	0	0	0	0	0	0	0	0	0	0	0	0	0	0	0	0	0
070319	13:18:11	13:22:33	261930	5.0.10.0	5_exp_RW	11	Rpleas_acq	CS_A	LWWL	DXXD	YFFY	JQQJ	CPPC	ZHHZ	küssen	genießen	träumen	sonnig	gütig	vertrauen	krank	gemein	töten	sterben	gierig	versagen	1	acq_USpleas_CSpleas2_RW	acq3_RW	3	13	453	0	300	300	354	50	0	1	1	blank2r.bmp	0	1	+	0	1	blank2r.bmp	492	1	DXXD	492	1	blank2r.bmp	572	3	vertrauen	866	1	!	-1	1	!	-1	0	0	0	0	0	0	0	0	0	0	0	0	0	0	0	0	0	0	0	0	0	0	0	0	0	0	0	0	0	0
070319	13:18:11	13:22:35	264155	5.0.10.0	5_exp_RW	11	Rpleas_acq	CS_A	LWWL	DXXD	YFFY	JQQJ	CPPC	ZHHZ	küssen	genießen	träumen	sonnig	gütig	vertrauen	krank	gemein	töten	sterben	gierig	versagen	1	acq_USunple_CSunple1_RW	acq3_RW	3	14	453	1	300	300	416	46	0	1	1	blank2r.bmp	0	1	+	0	1	blank2r.bmp	492	1	YFFY	492	1	blank2r.bmp	572	1	krank	866	1	!	1292	1	!	1319	0	0	0	0	0	0	0	0	0	0	0	0	0	0	0	0	0	0	0	0	0	0	0	0	0	0	0	0	0	0
070319	13:18:11	13:22:38	266435	5.0.10.0	5_exp_RW	11	Rpleas_acq	CS_A	LWWL	DXXD	YFFY	JQQJ	CPPC	ZHHZ	küssen	genießen	träumen	sonnig	gütig	vertrauen	krank	gemein	töten	sterben	gierig	versagen	1	acq_USpleas_CSpleas1_RW	acq3_RW	3	15	453	1	300	300	490	50	0	1	1	blank2r.bmp	0	1	+	0	1	blank2r.bmp	492	1	LWWL	492	1	blank2r.bmp	572	2	genießen	866	1	!	1292	1	!	1386	0	0	0	0	0	0	0	0	0	0	0	0	0	0	0	0	0	0	0	0	0	0	0	0	0	0	0	0	0	0
070319	13:18:11	13:22:40	268554	5.0.10.0	5_exp_RW	11	Rpleas_acq	CS_A	LWWL	DXXD	YFFY	JQQJ	CPPC	ZHHZ	küssen	genießen	träumen	sonnig	gütig	vertrauen	krank	gemein	töten	sterben	gierig	versagen	1	acq_USunple_CSunple1_RW	acq3_RW	3	16	453	0	300	300	348	46	0	1	1	blank2r.bmp	0	1	+	0	1	blank2r.bmp	492	1	YFFY	492	1	blank2r.bmp	572	3	töten	866	1	!	-1	1	!	-1	0	0	0	0	0	0	0	0	0	0	0	0	0	0	0	0	0	0	0	0	0	0	0	0	0	0	0	0	0	0
070319	13:18:11	13:22:42	270713	5.0.10.0	5_exp_RW	11	Rpleas_acq	CS_A	LWWL	DXXD	YFFY	JQQJ	CPPC	ZHHZ	küssen	genießen	träumen	sonnig	gütig	vertrauen	krank	gemein	töten	sterben	gierig	versagen	1	acq_USpleas_CSpleas1_RW	acq3_RW	3	17	453	0	300	300	375	50	0	1	1	blank2r.bmp	0	1	+	0	1	blank2r.bmp	492	1	LWWL	492	1	blank2r.bmp	572	3	träumen	866	1	!	-1	1	!	-1	0	0	0	0	0	0	0	0	0	0	0	0	0	0	0	0	0	0	0	0	0	0	0	0	0	0	0	0	0	0
070319	13:18:11	13:22:44	272938	5.0.10.0	5_exp_RW	11	Rpleas_acq	CS_A	LWWL	DXXD	YFFY	JQQJ	CPPC	ZHHZ	küssen	genießen	träumen	sonnig	gütig	vertrauen	krank	gemein	töten	sterben	gierig	versagen	1	acq_USunple_CSunple1_RW	acq3_RW	3	18	453	1	300	300	399	46	0	1	1	blank2r.bmp	0	1	+	0	1	blank2r.bmp	492	1	YFFY	492	1	blank2r.bmp	572	2	gemein	866	1	!	1292	1	!	1306	0	0	0	0	0	0	0	0	0	0	0	0	0	0	0	0	0	0	0	0	0	0	0	0	0	0	0	0	0	0
070319	13:18:11	13:22:46	275164	5.0.10.0	5_exp_RW	11	Rpleas_acq	CS_A	LWWL	DXXD	YFFY	JQQJ	CPPC	ZHHZ	küssen	genießen	träumen	sonnig	gütig	vertrauen	krank	gemein	töten	sterben	gierig	versagen	1	acq_USunple_CSunple1_RW	acq3_RW	3	19	453	1	300	300	430	46	0	1	1	blank2r.bmp	0	1	+	0	1	blank2r.bmp	492	1	YFFY	492	1	blank2r.bmp	572	3	töten	866	1	!	1292	1	!	1332	0	0	0	0	0	0	0	0	0	0	0	0	0	0	0	0	0	0	0	0	0	0	0	0	0	0	0	0	0	0
070319	13:18:11	13:22:49	277443	5.0.10.0	5_exp_RW	11	Rpleas_acq	CS_A	LWWL	DXXD	YFFY	JQQJ	CPPC	ZHHZ	küssen	genießen	träumen	sonnig	gütig	vertrauen	krank	gemein	töten	sterben	gierig	versagen	1	acq_USpleas_CSpleas1_RW	acq3_RW	3	20	453	1	300	300	480	50	0	1	1	blank2r.bmp	0	1	+	0	1	blank2r.bmp	492	1	LWWL	492	1	blank2r.bmp	572	1	küssen	866	1	!	1292	1	!	1386	0	0	0	0	0	0	0	0	0	0	0	0	0	0	0	0	0	0	0	0	0	0	0	0	0	0	0	0	0	0
070319	13:18:11	13:22:51	279722	5.0.10.0	5_exp_RW	11	Rpleas_acq	CS_A	LWWL	DXXD	YFFY	JQQJ	CPPC	ZHHZ	küssen	genießen	träumen	sonnig	gütig	vertrauen	krank	gemein	töten	sterben	gierig	versagen	1	acq_USunple_CSunple2_RW	acq3_RW	3	21	453	1	300	300	479	46	0	1	1	blank2r.bmp	0	1	+	0	1	blank2r.bmp	492	1	JQQJ	492	1	blank2r.bmp	572	2	gierig	866	1	!	1292	1	!	1386	0	0	0	0	0	0	0	0	0	0	0	0	0	0	0	0	0	0	0	0	0	0	0	0	0	0	0	0	0	0
070319	13:18:11	13:22:53	281948	5.0.10.0	5_exp_RW	11	Rpleas_acq	CS_A	LWWL	DXXD	YFFY	JQQJ	CPPC	ZHHZ	küssen	genießen	träumen	sonnig	gütig	vertrauen	krank	gemein	töten	sterben	gierig	versagen	1	acq_USpleas_CSpleas2_RW	acq3_RW	3	22	453	1	300	300	437	50	0	1	1	blank2r.bmp	0	1	+	0	1	blank2r.bmp	492	1	DXXD	492	1	blank2r.bmp	572	2	gütig	866	1	!	1292	1	!	1332	0	0	0	0	0	0	0	0	0	0	0	0	0	0	0	0	0	0	0	0	0	0	0	0	0	0	0	0	0	0
070319	13:18:11	13:22:55	284160	5.0.10.0	5_exp_RW	11	Rpleas_acq	CS_A	LWWL	DXXD	YFFY	JQQJ	CPPC	ZHHZ	küssen	genießen	träumen	sonnig	gütig	vertrauen	krank	gemein	töten	sterben	gierig	versagen	1	acq_USpleas_CSpleas2_RW	acq3_RW	3	23	453	1	300	300	416	50	0	1	1	blank2r.bmp	0	1	+	0	1	blank2r.bmp	492	1	DXXD	492	1	blank2r.bmp	572	1	sonnig	866	1	!	1292	1	!	1319	0	0	0	0	0	0	0	0	0	0	0	0	0	0	0	0	0	0	0	0	0	0	0	0	0	0	0	0	0	0
070319	13:18:11	13:22:58	286293	5.0.10.0	5_exp_RW	11	Rpleas_acq	CS_A	LWWL	DXXD	YFFY	JQQJ	CPPC	ZHHZ	küssen	genießen	träumen	sonnig	gütig	vertrauen	krank	gemein	töten	sterben	gierig	versagen	1	acq_USpleas_CSpleas2_RW	acq3_RW	3	24	453	0	300	300	358	50	0	1	1	blank2r.bmp	0	1	+	0	1	blank2r.bmp	492	1	DXXD	492	1	blank2r.bmp	572	1	sonnig	866	1	!	-1	1	!	-1	0	0	0	0	0	0	0	0	0	0	0	0	0	0	0	0	0	0	0	0	0	0	0	0	0	0	0	0	0	0
070319	13:18:11	13:23:15	303832	5.0.10.0	5_exp_RW	11	Rpleas_acq	CS_A	LWWL	DXXD	YFFY	JQQJ	CPPC	ZHHZ	küssen	genießen	träumen	sonnig	gütig	vertrauen	krank	gemein	töten	sterben	gierig	versagen	1	acq_USunple_CSunple2_RW	acq4567_RW	4	1	400	1	300	300	421	46	0	1	1	blank2r.bmp	0	1	+	0	1	blank2r.bmp	492	1	JQQJ	492	1	blank2r.bmp	572	1	sterben	866	1	!	1239	1	!	1319	0	0	0	0	0	0	0	0	0	0	0	0	0	0	0	0	0	0	0	0	0	0	0	0	0	0	0	0	0	0
070319	13:18:11	13:23:17	306085	5.0.10.0	5_exp_RW	11	Rpleas_acq	CS_A	LWWL	DXXD	YFFY	JQQJ	CPPC	ZHHZ	küssen	genießen	träumen	sonnig	gütig	vertrauen	krank	gemein	töten	sterben	gierig	versagen	1	acq_USpleas_CSpleas2_RW	acq4567_RW	4	2	400	0	300	300	488	50	0	1	1	blank2r.bmp	0	1	+	0	1	blank2r.bmp	492	1	DXXD	492	1	blank2r.bmp	572	3	vertrauen	866	1	!	1239	1	!	-1	0	0	0	0	0	0	0	0	0	0	0	0	0	0	0	0	0	0	0	0	0	0	0	0	0	0	0	0	0	0
070319	13:18:11	13:23:20	308244	5.0.10.0	5_exp_RW	11	Rpleas_acq	CS_A	LWWL	DXXD	YFFY	JQQJ	CPPC	ZHHZ	küssen	genießen	träumen	sonnig	gütig	vertrauen	krank	gemein	töten	sterben	gierig	versagen	1	acq_USpleas_CSpleas2_RW	acq4567_RW	4	3	400	1	300	300	346	46	0	0	1	blank2r.bmp	0	1	+	0	1	blank2r.bmp	492	1	DXXD	492	1	blank2r.bmp	572	2	gütig	866	1	!	1239	1	!	1252	0	0	0	0	0	0	0	0	0	0	0	0	0	0	0	0	0	0	0	0	0	0	0	0	0	0	0	0	0	0
070319	13:18:11	13:23:22	310496	5.0.10.0	5_exp_RW	11	Rpleas_acq	CS_A	LWWL	DXXD	YFFY	JQQJ	CPPC	ZHHZ	küssen	genießen	träumen	sonnig	gütig	vertrauen	krank	gemein	töten	sterben	gierig	versagen	1	acq_USpleas_CSpleas1_RW	acq4567_RW	4	4	400	1	300	300	439	50	0	1	1	blank2r.bmp	0	1	+	0	1	blank2r.bmp	492	1	LWWL	492	1	blank2r.bmp	572	2	genießen	866	1	!	1239	1	!	1346	0	0	0	0	0	0	0	0	0	0	0	0	0	0	0	0	0	0	0	0	0	0	0	0	0	0	0	0	0	0
070319	13:18:11	13:23:24	312708	5.0.10.0	5_exp_RW	11	Rpleas_acq	CS_A	LWWL	DXXD	YFFY	JQQJ	CPPC	ZHHZ	küssen	genießen	träumen	sonnig	gütig	vertrauen	krank	gemein	töten	sterben	gierig	versagen	1	acq_USunple_CSunple2_RW	acq4567_RW	4	5	400	1	300	300	414	46	0	1	1	blank2r.bmp	0	1	+	0	1	blank2r.bmp	492	1	JQQJ	492	1	blank2r.bmp	572	3	versagen	866	1	!	1239	1	!	1319	0	0	0	0	0	0	0	0	0	0	0	0	0	0	0	0	0	0	0	0	0	0	0	0	0	0	0	0	0	0
070319	13:18:11	13:23:26	314961	5.0.10.0	5_exp_RW	11	Rpleas_acq	CS_A	LWWL	DXXD	YFFY	JQQJ	CPPC	ZHHZ	küssen	genießen	träumen	sonnig	gütig	vertrauen	krank	gemein	töten	sterben	gierig	versagen	1	acq_USunple_CSunple2_RW	acq4567_RW	4	6	400	0	300	300	488	50	0	0	1	blank2r.bmp	0	1	+	0	1	blank2r.bmp	492	1	JQQJ	492	1	blank2r.bmp	572	3	versagen	866	1	!	1239	1	!	-1	0	0	0	0	0	0	0	0	0	0	0	0	0	0	0	0	0	0	0	0	0	0	0	0	0	0	0	0	0	0
070319	13:18:11	13:23:29	317240	5.0.10.0	5_exp_RW	11	Rpleas_acq	CS_A	LWWL	DXXD	YFFY	JQQJ	CPPC	ZHHZ	küssen	genießen	träumen	sonnig	gütig	vertrauen	krank	gemein	töten	sterben	gierig	versagen	1	acq_USunple_CSunple2_RW	acq4567_RW	4	7	400	0	300	300	504	46	0	1	1	blank2r.bmp	0	1	+	0	1	blank2r.bmp	492	1	JQQJ	492	1	blank2r.bmp	572	2	gierig	866	1	!	1239	1	!	-1	0	0	0	0	0	0	0	0	0	0	0	0	0	0	0	0	0	0	0	0	0	0	0	0	0	0	0	0	0	0
070319	13:18:11	13:23:31	319466	5.0.10.0	5_exp_RW	11	Rpleas_acq	CS_A	LWWL	DXXD	YFFY	JQQJ	CPPC	ZHHZ	küssen	genießen	träumen	sonnig	gütig	vertrauen	krank	gemein	töten	sterben	gierig	versagen	1	acq_USunple_CSunple1_RW	acq4567_RW	4	8	400	1	300	300	414	46	0	1	1	blank2r.bmp	0	1	+	0	1	blank2r.bmp	492	1	YFFY	492	1	blank2r.bmp	572	1	krank	866	1	!	1239	1	!	1319	0	0	0	0	0	0	0	0	0	0	0	0	0	0	0	0	0	0	0	0	0	0	0	0	0	0	0	0	0	0
070319	13:18:11	13:23:33	321745	5.0.10.0	5_exp_RW	11	Rpleas_acq	CS_A	LWWL	DXXD	YFFY	JQQJ	CPPC	ZHHZ	küssen	genießen	träumen	sonnig	gütig	vertrauen	krank	gemein	töten	sterben	gierig	versagen	1	acq_USunple_CSunple1_RW	acq4567_RW	4	9	400	0	300	300	514	46	0	1	1	blank2r.bmp	0	1	+	0	1	blank2r.bmp	492	1	YFFY	492	1	blank2r.bmp	572	2	gemein	866	1	!	1239	1	!	-1	0	0	0	0	0	0	0	0	0	0	0	0	0	0	0	0	0	0	0	0	0	0	0	0	0	0	0	0	0	0
070319	13:18:11	13:23:35	323930	5.0.10.0	5_exp_RW	11	Rpleas_acq	CS_A	LWWL	DXXD	YFFY	JQQJ	CPPC	ZHHZ	küssen	genießen	träumen	sonnig	gütig	vertrauen	krank	gemein	töten	sterben	gierig	versagen	1	acq_USpleas_CSpleas2_RW	acq4567_RW	4	10	400	1	300	300	383	50	0	1	1	blank2r.bmp	0	1	+	0	1	blank2r.bmp	492	1	DXXD	492	1	blank2r.bmp	572	1	sonnig	866	1	!	1239	1	!	1279	0	0	0	0	0	0	0	0	0	0	0	0	0	0	0	0	0	0	0	0	0	0	0	0	0	0	0	0	0	0
070319	13:18:11	13:23:37	326103	5.0.10.0	5_exp_RW	11	Rpleas_acq	CS_A	LWWL	DXXD	YFFY	JQQJ	CPPC	ZHHZ	küssen	genießen	träumen	sonnig	gütig	vertrauen	krank	gemein	töten	sterben	gierig	versagen	1	acq_USunple_CSunple1_RW	acq4567_RW	4	11	400	1	300	300	380	46	0	1	1	blank2r.bmp	0	1	+	0	1	blank2r.bmp	492	1	YFFY	492	1	blank2r.bmp	572	3	töten	866	1	!	1239	1	!	1279	0	0	0	0	0	0	0	0	0	0	0	0	0	0	0	0	0	0	0	0	0	0	0	0	0	0	0	0	0	0
070319	13:18:11	13:23:40	328315	5.0.10.0	5_exp_RW	11	Rpleas_acq	CS_A	LWWL	DXXD	YFFY	JQQJ	CPPC	ZHHZ	küssen	genießen	träumen	sonnig	gütig	vertrauen	krank	gemein	töten	sterben	gierig	versagen	1	acq_USunple_CSunple1_RW	acq4567_RW	4	12	400	1	300	300	412	46	0	1	1	blank2r.bmp	0	1	+	0	1	blank2r.bmp	492	1	YFFY	492	1	blank2r.bmp	572	1	krank	866	1	!	1239	1	!	1319	0	0	0	0	0	0	0	0	0	0	0	0	0	0	0	0	0	0	0	0	0	0	0	0	0	0	0	0	0	0
070319	13:18:11	13:23:42	330568	5.0.10.0	5_exp_RW	11	Rpleas_acq	CS_A	LWWL	DXXD	YFFY	JQQJ	CPPC	ZHHZ	küssen	genießen	träumen	sonnig	gütig	vertrauen	krank	gemein	töten	sterben	gierig	versagen	1	acq_USpleas_CSpleas1_RW	acq4567_RW	4	13	400	1	300	300	462	50	0	1	1	blank2r.bmp	0	1	+	0	1	blank2r.bmp	492	1	LWWL	492	1	blank2r.bmp	572	3	träumen	866	1	!	1239	1	!	1359	0	0	0	0	0	0	0	0	0	0	0	0	0	0	0	0	0	0	0	0	0	0	0	0	0	0	0	0	0	0
070319	13:18:11	13:23:44	332740	5.0.10.0	5_exp_RW	11	Rpleas_acq	CS_A	LWWL	DXXD	YFFY	JQQJ	CPPC	ZHHZ	küssen	genießen	träumen	sonnig	gütig	vertrauen	krank	gemein	töten	sterben	gierig	versagen	1	acq_USpleas_CSpleas1_RW	acq4567_RW	4	14	400	1	300	300	366	50	0	1	1	blank2r.bmp	0	1	+	0	1	blank2r.bmp	492	1	LWWL	492	1	blank2r.bmp	572	1	küssen	866	1	!	1239	1	!	1266	0	0	0	0	0	0	0	0	0	0	0	0	0	0	0	0	0	0	0	0	0	0	0	0	0	0	0	0	0	0
070319	13:18:11	13:23:46	334913	5.0.10.0	5_exp_RW	11	Rpleas_acq	CS_A	LWWL	DXXD	YFFY	JQQJ	CPPC	ZHHZ	küssen	genießen	träumen	sonnig	gütig	vertrauen	krank	gemein	töten	sterben	gierig	versagen	1	acq_USpleas_CSpleas2_RW	acq4567_RW	4	15	400	1	300	300	375	46	0	0	1	blank2r.bmp	0	1	+	0	1	blank2r.bmp	492	1	DXXD	492	1	blank2r.bmp	572	2	gütig	866	1	!	1239	1	!	1279	0	0	0	0	0	0	0	0	0	0	0	0	0	0	0	0	0	0	0	0	0	0	0	0	0	0	0	0	0	0
070319	13:18:11	13:24:02	350626	5.0.10.0	5_exp_RW	11	Rpleas_acq	CS_A	LWWL	DXXD	YFFY	JQQJ	CPPC	ZHHZ	küssen	genießen	träumen	sonnig	gütig	vertrauen	krank	gemein	töten	sterben	gierig	versagen	1	acq_USpleas_CSpleas2_RW	acq4567_RW	4	16	400	0	300	300	13942	50	0	1	1	blank2r.bmp	0	1	+	0	1	blank2r.bmp	492	1	DXXD	492	1	blank2r.bmp	572	3	vertrauen	866	1	!	1239	1	!	-1	0	0	0	0	0	0	0	0	0	0	0	0	0	0	0	0	0	0	0	0	0	0	0	0	0	0	0	0	0	0
070319	13:18:11	13:24:04	352865	5.0.10.0	5_exp_RW	11	Rpleas_acq	CS_A	LWWL	DXXD	YFFY	JQQJ	CPPC	ZHHZ	küssen	genießen	träumen	sonnig	gütig	vertrauen	krank	gemein	töten	sterben	gierig	versagen	1	acq_USunple_CSunple2_RW	acq4567_RW	4	17	400	1	300	300	436	46	0	1	1	blank2r.bmp	0	1	+	0	1	blank2r.bmp	492	1	JQQJ	492	1	blank2r.bmp	572	1	sterben	866	1	!	1239	1	!	1332	0	0	0	0	0	0	0	0	0	0	0	0	0	0	0	0	0	0	0	0	0	0	0	0	0	0	0	0	0	0
070319	13:18:11	13:24:06	355051	5.0.10.0	5_exp_RW	11	Rpleas_acq	CS_A	LWWL	DXXD	YFFY	JQQJ	CPPC	ZHHZ	küssen	genießen	träumen	sonnig	gütig	vertrauen	krank	gemein	töten	sterben	gierig	versagen	1	acq_USpleas_CSpleas1_RW	acq4567_RW	4	18	400	1	300	300	398	50	0	1	1	blank2r.bmp	0	1	+	0	1	blank2r.bmp	492	1	LWWL	492	1	blank2r.bmp	572	3	träumen	866	1	!	1239	1	!	1292	0	0	0	0	0	0	0	0	0	0	0	0	0	0	0	0	0	0	0	0	0	0	0	0	0	0	0	0	0	0
070319	13:18:11	13:24:09	357316	5.0.10.0	5_exp_RW	11	Rpleas_acq	CS_A	LWWL	DXXD	YFFY	JQQJ	CPPC	ZHHZ	küssen	genießen	träumen	sonnig	gütig	vertrauen	krank	gemein	töten	sterben	gierig	versagen	1	acq_USpleas_CSpleas1_RW	acq4567_RW	4	19	400	0	300	300	492	46	0	0	1	blank2r.bmp	0	1	+	0	1	blank2r.bmp	492	1	LWWL	492	1	blank2r.bmp	572	2	genießen	866	1	!	1239	1	!	-1	0	0	0	0	0	0	0	0	0	0	0	0	0	0	0	0	0	0	0	0	0	0	0	0	0	0	0	0	0	0
070319	13:18:11	13:24:11	359596	5.0.10.0	5_exp_RW	11	Rpleas_acq	CS_A	LWWL	DXXD	YFFY	JQQJ	CPPC	ZHHZ	küssen	genießen	träumen	sonnig	gütig	vertrauen	krank	gemein	töten	sterben	gierig	versagen	1	acq_USunple_CSunple1_RW	acq4567_RW	4	20	400	0	300	300	496	46	0	1	1	blank2r.bmp	0	1	+	0	1	blank2r.bmp	492	1	YFFY	492	1	blank2r.bmp	572	2	gemein	866	1	!	1239	1	!	-1	0	0	0	0	0	0	0	0	0	0	0	0	0	0	0	0	0	0	0	0	0	0	0	0	0	0	0	0	0	0
070319	13:18:11	13:24:13	361755	5.0.10.0	5_exp_RW	11	Rpleas_acq	CS_A	LWWL	DXXD	YFFY	JQQJ	CPPC	ZHHZ	küssen	genießen	träumen	sonnig	gütig	vertrauen	krank	gemein	töten	sterben	gierig	versagen	1	acq_USpleas_CSpleas1_RW	acq4567_RW	4	21	400	1	300	300	346	46	0	0	1	blank2r.bmp	0	1	+	0	1	blank2r.bmp	492	1	LWWL	492	1	blank2r.bmp	572	2	genießen	866	1	!	1239	1	!	1252	0	0	0	0	0	0	0	0	0	0	0	0	0	0	0	0	0	0	0	0	0	0	0	0	0	0	0	0	0	0
070319	13:18:11	13:24:15	363927	5.0.10.0	5_exp_RW	11	Rpleas_acq	CS_A	LWWL	DXXD	YFFY	JQQJ	CPPC	ZHHZ	küssen	genießen	träumen	sonnig	gütig	vertrauen	krank	gemein	töten	sterben	gierig	versagen	1	acq_USunple_CSunple2_RW	acq4567_RW	4	22	400	1	300	300	380	46	0	1	1	blank2r.bmp	0	1	+	0	1	blank2r.bmp	492	1	JQQJ	492	1	blank2r.bmp	572	2	gierig	866	1	!	1239	1	!	1279	0	0	0	0	0	0	0	0	0	0	0	0	0	0	0	0	0	0	0	0	0	0	0	0	0	0	0	0	0	0
070319	13:18:11	13:24:17	366006	5.0.10.0	5_exp_RW	11	Rpleas_acq	CS_A	LWWL	DXXD	YFFY	JQQJ	CPPC	ZHHZ	küssen	genießen	träumen	sonnig	gütig	vertrauen	krank	gemein	töten	sterben	gierig	versagen	1	acq_USpleas_CSpleas2_RW	acq4567_RW	4	23	400	0	300	300	316	50	0	1	1	blank2r.bmp	0	1	+	0	1	blank2r.bmp	492	1	DXXD	492	1	blank2r.bmp	572	1	sonnig	866	1	!	-1	1	!	-1	0	0	0	0	0	0	0	0	0	0	0	0	0	0	0	0	0	0	0	0	0	0	0	0	0	0	0	0	0	0
070319	13:18:11	13:24:19	368165	5.0.10.0	5_exp_RW	11	Rpleas_acq	CS_A	LWWL	DXXD	YFFY	JQQJ	CPPC	ZHHZ	küssen	genießen	träumen	sonnig	gütig	vertrauen	krank	gemein	töten	sterben	gierig	versagen	1	acq_USpleas_CSpleas2_RW	acq4567_RW	4	24	400	1	300	300	346	50	0	1	1	blank2r.bmp	0	1	+	0	1	blank2r.bmp	492	1	DXXD	492	1	blank2r.bmp	572	3	vertrauen	866	1	!	1239	1	!	1252	0	0	0	0	0	0	0	0	0	0	0	0	0	0	0	0	0	0	0	0	0	0	0	0	0	0	0	0	0	0
070319	13:18:11	13:24:22	370364	5.0.10.0	5_exp_RW	11	Rpleas_acq	CS_A	LWWL	DXXD	YFFY	JQQJ	CPPC	ZHHZ	küssen	genießen	träumen	sonnig	gütig	vertrauen	krank	gemein	töten	sterben	gierig	versagen	1	acq_USunple_CSunple1_RW	acq4567_RW	4	25	400	1	300	300	402	46	0	1	1	blank2r.bmp	0	1	+	0	1	blank2r.bmp	492	1	YFFY	492	1	blank2r.bmp	572	2	gemein	866	1	!	1239	1	!	1306	0	0	0	0	0	0	0	0	0	0	0	0	0	0	0	0	0	0	0	0	0	0	0	0	0	0	0	0	0	0
070319	13:18:11	13:24:24	372550	5.0.10.0	5_exp_RW	11	Rpleas_acq	CS_A	LWWL	DXXD	YFFY	JQQJ	CPPC	ZHHZ	küssen	genießen	träumen	sonnig	gütig	vertrauen	krank	gemein	töten	sterben	gierig	versagen	1	acq_USunple_CSunple2_RW	acq4567_RW	4	26	400	1	300	300	384	46	0	1	1	blank2r.bmp	0	1	+	0	1	blank2r.bmp	492	1	JQQJ	492	1	blank2r.bmp	572	1	sterben	866	1	!	1239	1	!	1279	0	0	0	0	0	0	0	0	0	0	0	0	0	0	0	0	0	0	0	0	0	0	0	0	0	0	0	0	0	0
070319	13:18:11	13:24:26	374709	5.0.10.0	5_exp_RW	11	Rpleas_acq	CS_A	LWWL	DXXD	YFFY	JQQJ	CPPC	ZHHZ	küssen	genießen	träumen	sonnig	gütig	vertrauen	krank	gemein	töten	sterben	gierig	versagen	1	acq_USpleas_CSpleas2_RW	acq4567_RW	4	27	400	1	300	300	363	50	0	1	1	blank2r.bmp	0	1	+	0	1	blank2r.bmp	492	1	DXXD	492	1	blank2r.bmp	572	2	gütig	866	1	!	1239	1	!	1266	0	0	0	0	0	0	0	0	0	0	0	0	0	0	0	0	0	0	0	0	0	0	0	0	0	0	0	0	0	0
070319	13:18:11	13:24:28	376908	5.0.10.0	5_exp_RW	11	Rpleas_acq	CS_A	LWWL	DXXD	YFFY	JQQJ	CPPC	ZHHZ	küssen	genießen	träumen	sonnig	gütig	vertrauen	krank	gemein	töten	sterben	gierig	versagen	1	acq_USunple_CSunple2_RW	acq4567_RW	4	28	400	1	300	300	407	46	0	1	1	blank2r.bmp	0	1	+	0	1	blank2r.bmp	492	1	JQQJ	492	1	blank2r.bmp	572	3	versagen	866	1	!	1239	1	!	1306	0	0	0	0	0	0	0	0	0	0	0	0	0	0	0	0	0	0	0	0	0	0	0	0	0	0	0	0	0	0
070319	13:18:11	13:24:30	379107	5.0.10.0	5_exp_RW	11	Rpleas_acq	CS_A	LWWL	DXXD	YFFY	JQQJ	CPPC	ZHHZ	küssen	genießen	träumen	sonnig	gütig	vertrauen	krank	gemein	töten	sterben	gierig	versagen	1	acq_USpleas_CSpleas1_RW	acq4567_RW	4	29	400	1	300	300	410	50	0	1	1	blank2r.bmp	0	1	+	0	1	blank2r.bmp	492	1	LWWL	492	1	blank2r.bmp	572	1	küssen	866	1	!	1239	1	!	1306	0	0	0	0	0	0	0	0	0	0	0	0	0	0	0	0	0	0	0	0	0	0	0	0	0	0	0	0	0	0
070319	13:18:11	13:24:33	381360	5.0.10.0	5_exp_RW	11	Rpleas_acq	CS_A	LWWL	DXXD	YFFY	JQQJ	CPPC	ZHHZ	küssen	genießen	träumen	sonnig	gütig	vertrauen	krank	gemein	töten	sterben	gierig	versagen	1	acq_USunple_CSunple1_RW	acq4567_RW	4	30	400	1	300	300	452	46	0	1	1	blank2r.bmp	0	1	+	0	1	blank2r.bmp	492	1	YFFY	492	1	blank2r.bmp	572	1	krank	866	1	!	1239	1	!	1359	0	0	0	0	0	0	0	0	0	0	0	0	0	0	0	0	0	0	0	0	0	0	0	0	0	0	0	0	0	0
070319	13:18:11	13:24:35	383612	5.0.10.0	5_exp_RW	11	Rpleas_acq	CS_A	LWWL	DXXD	YFFY	JQQJ	CPPC	ZHHZ	küssen	genießen	träumen	sonnig	gütig	vertrauen	krank	gemein	töten	sterben	gierig	versagen	1	acq_USunple_CSunple2_RW	acq4567_RW	4	31	400	1	300	300	461	50	0	0	1	blank2r.bmp	0	1	+	0	1	blank2r.bmp	492	1	JQQJ	492	1	blank2r.bmp	572	2	gierig	866	1	!	1239	1	!	1359	0	0	0	0	0	0	0	0	0	0	0	0	0	0	0	0	0	0	0	0	0	0	0	0	0	0	0	0	0	0
070319	13:18:11	13:24:37	385758	5.0.10.0	5_exp_RW	11	Rpleas_acq	CS_A	LWWL	DXXD	YFFY	JQQJ	CPPC	ZHHZ	küssen	genießen	träumen	sonnig	gütig	vertrauen	krank	gemein	töten	sterben	gierig	versagen	1	acq_USunple_CSunple2_RW	acq4567_RW	4	32	400	1	300	300	346	46	0	1	1	blank2r.bmp	0	1	+	0	1	blank2r.bmp	492	1	JQQJ	492	1	blank2r.bmp	572	3	versagen	866	1	!	1239	1	!	1252	0	0	0	0	0	0	0	0	0	0	0	0	0	0	0	0	0	0	0	0	0	0	0	0	0	0	0	0	0	0
070319	13:18:11	13:24:39	387904	5.0.10.0	5_exp_RW	11	Rpleas_acq	CS_A	LWWL	DXXD	YFFY	JQQJ	CPPC	ZHHZ	küssen	genießen	träumen	sonnig	gütig	vertrauen	krank	gemein	töten	sterben	gierig	versagen	1	acq_USpleas_CSpleas1_RW	acq4567_RW	4	33	400	1	300	300	349	50	0	1	1	blank2r.bmp	0	1	+	0	1	blank2r.bmp	492	1	LWWL	492	1	blank2r.bmp	572	3	träumen	866	1	!	1239	1	!	1252	0	0	0	0	0	0	0	0	0	0	0	0	0	0	0	0	0	0	0	0	0	0	0	0	0	0	0	0	0	0
070319	13:18:11	13:24:41	389956	5.0.10.0	5_exp_RW	11	Rpleas_acq	CS_A	LWWL	DXXD	YFFY	JQQJ	CPPC	ZHHZ	küssen	genießen	träumen	sonnig	gütig	vertrauen	krank	gemein	töten	sterben	gierig	versagen	1	acq_USpleas_CSpleas1_RW	acq4567_RW	4	34	400	0	300	300	281	46	0	0	1	blank2r.bmp	0	1	+	0	1	blank2r.bmp	492	1	LWWL	492	1	blank2r.bmp	572	1	küssen	866	1	!	-1	1	!	-1	0	0	0	0	0	0	0	0	0	0	0	0	0	0	0	0	0	0	0	0	0	0	0	0	0	0	0	0	0	0
070319	13:18:11	13:24:43	392209	5.0.10.0	5_exp_RW	11	Rpleas_acq	CS_A	LWWL	DXXD	YFFY	JQQJ	CPPC	ZHHZ	küssen	genießen	träumen	sonnig	gütig	vertrauen	krank	gemein	töten	sterben	gierig	versagen	1	acq_USunple_CSunple1_RW	acq4567_RW	4	35	400	1	300	300	442	46	0	1	1	blank2r.bmp	0	1	+	0	1	blank2r.bmp	492	1	YFFY	492	1	blank2r.bmp	572	3	töten	866	1	!	1239	1	!	1346	0	0	0	0	0	0	0	0	0	0	0	0	0	0	0	0	0	0	0	0	0	0	0	0	0	0	0	0	0	0
070319	13:18:11	13:24:46	394301	5.0.10.0	5_exp_RW	11	Rpleas_acq	CS_A	LWWL	DXXD	YFFY	JQQJ	CPPC	ZHHZ	küssen	genießen	träumen	sonnig	gütig	vertrauen	krank	gemein	töten	sterben	gierig	versagen	1	acq_USunple_CSunple1_RW	acq4567_RW	4	36	400	0	300	300	327	46	0	1	1	blank2r.bmp	0	1	+	0	1	blank2r.bmp	492	1	YFFY	492	1	blank2r.bmp	572	1	krank	866	1	!	-1	1	!	-1	0	0	0	0	0	0	0	0	0	0	0	0	0	0	0	0	0	0	0	0	0	0	0	0	0	0	0	0	0	0
070319	13:18:11	13:24:48	396527	5.0.10.0	5_exp_RW	11	Rpleas_acq	CS_A	LWWL	DXXD	YFFY	JQQJ	CPPC	ZHHZ	küssen	genießen	träumen	sonnig	gütig	vertrauen	krank	gemein	töten	sterben	gierig	versagen	1	acq_USpleas_CSpleas2_RW	acq4567_RW	4	37	400	1	300	300	419	50	0	1	1	blank2r.bmp	0	1	+	0	1	blank2r.bmp	492	1	DXXD	492	1	blank2r.bmp	572	1	sonnig	866	1	!	1239	1	!	1319	0	0	0	0	0	0	0	0	0	0	0	0	0	0	0	0	0	0	0	0	0	0	0	0	0	0	0	0	0	0
070319	13:18:11	13:24:50	398673	5.0.10.0	5_exp_RW	11	Rpleas_acq	CS_A	LWWL	DXXD	YFFY	JQQJ	CPPC	ZHHZ	küssen	genießen	träumen	sonnig	gütig	vertrauen	krank	gemein	töten	sterben	gierig	versagen	1	acq_USpleas_CSpleas1_RW	acq4567_RW	4	38	400	1	300	300	357	50	0	1	1	blank2r.bmp	0	1	+	0	1	blank2r.bmp	492	1	LWWL	492	1	blank2r.bmp	572	3	träumen	866	1	!	1239	1	!	1252	0	0	0	0	0	0	0	0	0	0	0	0	0	0	0	0	0	0	0	0	0	0	0	0	0	0	0	0	0	0
070319	13:18:11	13:24:52	400925	5.0.10.0	5_exp_RW	11	Rpleas_acq	CS_A	LWWL	DXXD	YFFY	JQQJ	CPPC	ZHHZ	küssen	genießen	träumen	sonnig	gütig	vertrauen	krank	gemein	töten	sterben	gierig	versagen	1	acq_USunple_CSunple1_RW	acq4567_RW	4	39	400	1	300	300	455	46	0	1	1	blank2r.bmp	0	1	+	0	1	blank2r.bmp	492	1	YFFY	492	1	blank2r.bmp	572	3	töten	866	1	!	1239	1	!	1359	0	0	0	0	0	0	0	0	0	0	0	0	0	0	0	0	0	0	0	0	0	0	0	0	0	0	0	0	0	0
070319	13:18:11	13:24:54	403177	5.0.10.0	5_exp_RW	11	Rpleas_acq	CS_A	LWWL	DXXD	YFFY	JQQJ	CPPC	ZHHZ	küssen	genießen	träumen	sonnig	gütig	vertrauen	krank	gemein	töten	sterben	gierig	versagen	1	acq_USpleas_CSpleas2_RW	acq4567_RW	4	40	400	1	300	300	455	50	0	1	1	blank2r.bmp	0	1	+	0	1	blank2r.bmp	492	1	DXXD	492	1	blank2r.bmp	572	2	gütig	866	1	!	1239	1	!	1359	0	0	0	0	0	0	0	0	0	0	0	0	0	0	0	0	0	0	0	0	0	0	0	0	0	0	0	0	0	0
070319	13:18:11	13:24:57	405216	5.0.10.0	5_exp_RW	11	Rpleas_acq	CS_A	LWWL	DXXD	YFFY	JQQJ	CPPC	ZHHZ	küssen	genießen	träumen	sonnig	gütig	vertrauen	krank	gemein	töten	sterben	gierig	versagen	1	acq_USunple_CSunple1_RW	acq4567_RW	4	41	400	0	300	300	270	50	0	0	1	blank2r.bmp	0	1	+	0	1	blank2r.bmp	492	1	YFFY	492	1	blank2r.bmp	572	2	gemein	866	1	!	-1	1	!	-1	0	0	0	0	0	0	0	0	0	0	0	0	0	0	0	0	0	0	0	0	0	0	0	0	0	0	0	0	0	0
070319	13:18:11	13:24:59	407442	5.0.10.0	5_exp_RW	11	Rpleas_acq	CS_A	LWWL	DXXD	YFFY	JQQJ	CPPC	ZHHZ	küssen	genießen	träumen	sonnig	gütig	vertrauen	krank	gemein	töten	sterben	gierig	versagen	1	acq_USunple_CSunple1_RW	acq4567_RW	4	42	400	1	300	300	410	50	0	0	1	blank2r.bmp	0	1	+	0	1	blank2r.bmp	492	1	YFFY	492	1	blank2r.bmp	572	3	töten	866	1	!	1239	1	!	1306	0	0	0	0	0	0	0	0	0	0	0	0	0	0	0	0	0	0	0	0	0	0	0	0	0	0	0	0	0	0
070319	13:18:11	13:25:01	409721	5.0.10.0	5_exp_RW	11	Rpleas_acq	CS_A	LWWL	DXXD	YFFY	JQQJ	CPPC	ZHHZ	küssen	genießen	träumen	sonnig	gütig	vertrauen	krank	gemein	töten	sterben	gierig	versagen	1	acq_USpleas_CSpleas2_RW	acq4567_RW	4	43	400	0	300	300	517	50	0	1	1	blank2r.bmp	0	1	+	0	1	blank2r.bmp	492	1	DXXD	492	1	blank2r.bmp	572	3	vertrauen	866	1	!	1239	1	!	-1	0	0	0	0	0	0	0	0	0	0	0	0	0	0	0	0	0	0	0	0	0	0	0	0	0	0	0	0	0	0
070319	13:18:11	13:25:03	411987	5.0.10.0	5_exp_RW	11	Rpleas_acq	CS_A	LWWL	DXXD	YFFY	JQQJ	CPPC	ZHHZ	küssen	genießen	träumen	sonnig	gütig	vertrauen	krank	gemein	töten	sterben	gierig	versagen	1	acq_USunple_CSunple2_RW	acq4567_RW	4	44	400	0	300	300	479	46	0	1	1	blank2r.bmp	0	1	+	0	1	blank2r.bmp	492	1	JQQJ	492	1	blank2r.bmp	572	1	sterben	866	1	!	1239	1	!	-1	0	0	0	0	0	0	0	0	0	0	0	0	0	0	0	0	0	0	0	0	0	0	0	0	0	0	0	0	0	0
070319	13:18:11	13:25:06	414239	5.0.10.0	5_exp_RW	11	Rpleas_acq	CS_A	LWWL	DXXD	YFFY	JQQJ	CPPC	ZHHZ	küssen	genießen	träumen	sonnig	gütig	vertrauen	krank	gemein	töten	sterben	gierig	versagen	1	acq_USpleas_CSpleas1_RW	acq4567_RW	4	45	400	1	300	300	434	50	0	1	1	blank2r.bmp	0	1	+	0	1	blank2r.bmp	492	1	LWWL	492	1	blank2r.bmp	572	2	genießen	866	1	!	1239	1	!	1332	0	0	0	0	0	0	0	0	0	0	0	0	0	0	0	0	0	0	0	0	0	0	0	0	0	0	0	0	0	0
070319	13:18:11	13:25:08	416332	5.0.10.0	5_exp_RW	11	Rpleas_acq	CS_A	LWWL	DXXD	YFFY	JQQJ	CPPC	ZHHZ	küssen	genießen	träumen	sonnig	gütig	vertrauen	krank	gemein	töten	sterben	gierig	versagen	1	acq_USpleas_CSpleas1_RW	acq4567_RW	4	46	400	0	300	300	326	50	0	1	1	blank2r.bmp	0	1	+	0	1	blank2r.bmp	492	1	LWWL	492	1	blank2r.bmp	572	1	küssen	866	1	!	-1	1	!	-1	0	0	0	0	0	0	0	0	0	0	0	0	0	0	0	0	0	0	0	0	0	0	0	0	0	0	0	0	0	0
070319	13:18:11	13:25:10	418491	5.0.10.0	5_exp_RW	11	Rpleas_acq	CS_A	LWWL	DXXD	YFFY	JQQJ	CPPC	ZHHZ	küssen	genießen	träumen	sonnig	gütig	vertrauen	krank	gemein	töten	sterben	gierig	versagen	1	acq_USpleas_CSpleas2_RW	acq4567_RW	4	47	400	1	300	300	346	46	0	0	1	blank2r.bmp	0	1	+	0	1	blank2r.bmp	492	1	DXXD	492	1	blank2r.bmp	572	1	sonnig	866	1	!	1239	1	!	1252	0	0	0	0	0	0	0	0	0	0	0	0	0	0	0	0	0	0	0	0	0	0	0	0	0	0	0	0	0	0
070319	13:18:11	13:25:12	420530	5.0.10.0	5_exp_RW	11	Rpleas_acq	CS_A	LWWL	DXXD	YFFY	JQQJ	CPPC	ZHHZ	küssen	genießen	träumen	sonnig	gütig	vertrauen	krank	gemein	töten	sterben	gierig	versagen	1	acq_USpleas_CSpleas2_RW	acq4567_RW	4	48	400	0	300	300	270	50	0	1	1	blank2r.bmp	0	1	+	0	1	blank2r.bmp	492	1	DXXD	492	1	blank2r.bmp	572	2	gütig	866	1	!	-1	1	!	-1	0	0	0	0	0	0	0	0	0	0	0	0	0	0	0	0	0	0	0	0	0	0	0	0	0	0	0	0	0	0
070319	13:18:11	13:25:14	422623	5.0.10.0	5_exp_RW	11	Rpleas_acq	CS_A	LWWL	DXXD	YFFY	JQQJ	CPPC	ZHHZ	küssen	genießen	träumen	sonnig	gütig	vertrauen	krank	gemein	töten	sterben	gierig	versagen	1	acq_USpleas_CSpleas1_RW	acq4567_RW	4	49	400	0	300	300	313	50	0	1	1	blank2r.bmp	0	1	+	0	1	blank2r.bmp	492	1	LWWL	492	1	blank2r.bmp	572	3	träumen	866	1	!	-1	1	!	-1	0	0	0	0	0	0	0	0	0	0	0	0	0	0	0	0	0	0	0	0	0	0	0	0	0	0	0	0	0	0
070319	13:18:11	13:25:16	424715	5.0.10.0	5_exp_RW	11	Rpleas_acq	CS_A	LWWL	DXXD	YFFY	JQQJ	CPPC	ZHHZ	küssen	genießen	träumen	sonnig	gütig	vertrauen	krank	gemein	töten	sterben	gierig	versagen	1	acq_USunple_CSunple2_RW	acq4567_RW	4	50	400	0	300	300	315	50	0	0	1	blank2r.bmp	0	1	+	0	1	blank2r.bmp	492	1	JQQJ	492	1	blank2r.bmp	572	2	gierig	866	1	!	-1	1	!	-1	0	0	0	0	0	0	0	0	0	0	0	0	0	0	0	0	0	0	0	0	0	0	0	0	0	0	0	0	0	0
070319	13:18:11	13:25:18	426994	5.0.10.0	5_exp_RW	11	Rpleas_acq	CS_A	LWWL	DXXD	YFFY	JQQJ	CPPC	ZHHZ	küssen	genießen	träumen	sonnig	gütig	vertrauen	krank	gemein	töten	sterben	gierig	versagen	1	acq_USpleas_CSpleas2_RW	acq4567_RW	4	51	400	1	300	300	454	50	0	1	1	blank2r.bmp	0	1	+	0	1	blank2r.bmp	492	1	DXXD	492	1	blank2r.bmp	572	3	vertrauen	866	1	!	1239	1	!	1359	0	0	0	0	0	0	0	0	0	0	0	0	0	0	0	0	0	0	0	0	0	0	0	0	0	0	0	0	0	0
070319	13:18:11	13:25:20	429060	5.0.10.0	5_exp_RW	11	Rpleas_acq	CS_A	LWWL	DXXD	YFFY	JQQJ	CPPC	ZHHZ	küssen	genießen	träumen	sonnig	gütig	vertrauen	krank	gemein	töten	sterben	gierig	versagen	1	acq_USunple_CSunple1_RW	acq4567_RW	4	52	400	0	300	300	300	46	0	1	1	blank2r.bmp	0	1	+	0	1	blank2r.bmp	492	1	YFFY	492	1	blank2r.bmp	572	1	krank	866	1	!	-1	1	!	-1	0	0	0	0	0	0	0	0	0	0	0	0	0	0	0	0	0	0	0	0	0	0	0	0	0	0	0	0	0	0
070319	13:18:11	13:25:22	431166	5.0.10.0	5_exp_RW	11	Rpleas_acq	CS_A	LWWL	DXXD	YFFY	JQQJ	CPPC	ZHHZ	küssen	genießen	träumen	sonnig	gütig	vertrauen	krank	gemein	töten	sterben	gierig	versagen	1	acq_USunple_CSunple2_RW	acq4567_RW	4	53	400	0	300	300	324	46	0	1	1	blank2r.bmp	0	1	+	0	1	blank2r.bmp	492	1	JQQJ	492	1	blank2r.bmp	572	1	sterben	866	1	!	-1	1	!	-1	0	0	0	0	0	0	0	0	0	0	0	0	0	0	0	0	0	0	0	0	0	0	0	0	0	0	0	0	0	0
070319	13:18:11	13:25:25	433378	5.0.10.0	5_exp_RW	11	Rpleas_acq	CS_A	LWWL	DXXD	YFFY	JQQJ	CPPC	ZHHZ	küssen	genießen	träumen	sonnig	gütig	vertrauen	krank	gemein	töten	sterben	gierig	versagen	1	acq_USunple_CSunple1_RW	acq4567_RW	4	54	400	1	300	300	404	46	0	1	1	blank2r.bmp	0	1	+	0	1	blank2r.bmp	492	1	YFFY	492	1	blank2r.bmp	572	2	gemein	866	1	!	1239	1	!	1306	0	0	0	0	0	0	0	0	0	0	0	0	0	0	0	0	0	0	0	0	0	0	0	0	0	0	0	0	0	0
070319	13:18:11	13:25:27	435644	5.0.10.0	5_exp_RW	11	Rpleas_acq	CS_A	LWWL	DXXD	YFFY	JQQJ	CPPC	ZHHZ	küssen	genießen	träumen	sonnig	gütig	vertrauen	krank	gemein	töten	sterben	gierig	versagen	1	acq_USpleas_CSpleas2_RW	acq4567_RW	4	55	400	0	300	300	503	50	0	1	1	blank2r.bmp	0	1	+	0	1	blank2r.bmp	492	1	DXXD	492	1	blank2r.bmp	572	1	sonnig	866	1	!	1239	1	!	-1	0	0	0	0	0	0	0	0	0	0	0	0	0	0	0	0	0	0	0	0	0	0	0	0	0	0	0	0	0	0
070319	13:18:11	13:25:29	437843	5.0.10.0	5_exp_RW	11	Rpleas_acq	CS_A	LWWL	DXXD	YFFY	JQQJ	CPPC	ZHHZ	küssen	genießen	träumen	sonnig	gütig	vertrauen	krank	gemein	töten	sterben	gierig	versagen	1	acq_USunple_CSunple2_RW	acq4567_RW	4	56	400	1	300	300	389	46	0	1	1	blank2r.bmp	0	1	+	0	1	blank2r.bmp	492	1	JQQJ	492	1	blank2r.bmp	572	3	versagen	866	1	!	1239	1	!	1292	0	0	0	0	0	0	0	0	0	0	0	0	0	0	0	0	0	0	0	0	0	0	0	0	0	0	0	0	0	0
070319	13:18:11	13:25:43	451850	5.0.10.0	5_exp_RW	11	Rpleas_acq	CS_A	LWWL	DXXD	YFFY	JQQJ	CPPC	ZHHZ	küssen	genießen	träumen	sonnig	gütig	vertrauen	krank	gemein	töten	sterben	gierig	versagen	1	acq_USunple_CSunple2_RW	acq4567_RW	4	57	400	0	300	300	12238	50	0	0	1	blank2r.bmp	0	1	+	0	1	blank2r.bmp	492	1	JQQJ	492	1	blank2r.bmp	572	2	gierig	866	1	!	1239	1	!	-1	0	0	0	0	0	0	0	0	0	0	0	0	0	0	0	0	0	0	0	0	0	0	0	0	0	0	0	0	0	0
070319	13:18:11	13:25:45	454183	5.0.10.0	5_exp_RW	11	Rpleas_acq	CS_A	LWWL	DXXD	YFFY	JQQJ	CPPC	ZHHZ	küssen	genießen	träumen	sonnig	gütig	vertrauen	krank	gemein	töten	sterben	gierig	versagen	1	acq_USpleas_CSpleas1_RW	acq4567_RW	4	58	400	0	300	300	556	50	0	1	1	blank2r.bmp	0	1	+	0	1	blank2r.bmp	492	1	LWWL	492	1	blank2r.bmp	572	2	genießen	866	1	!	1239	1	!	-1	0	0	0	0	0	0	0	0	0	0	0	0	0	0	0	0	0	0	0	0	0	0	0	0	0	0	0	0	0	0
070319	13:18:11	13:25:48	456435	5.0.10.0	5_exp_RW	11	Rpleas_acq	CS_A	LWWL	DXXD	YFFY	JQQJ	CPPC	ZHHZ	küssen	genießen	träumen	sonnig	gütig	vertrauen	krank	gemein	töten	sterben	gierig	versagen	1	acq_USunple_CSunple1_RW	acq4567_RW	4	59	400	1	300	300	450	46	0	1	1	blank2r.bmp	0	1	+	0	1	blank2r.bmp	492	1	YFFY	492	1	blank2r.bmp	572	1	krank	866	1	!	1239	1	!	1346	0	0	0	0	0	0	0	0	0	0	0	0	0	0	0	0	0	0	0	0	0	0	0	0	0	0	0	0	0	0
070319	13:18:11	13:25:50	458647	5.0.10.0	5_exp_RW	11	Rpleas_acq	CS_A	LWWL	DXXD	YFFY	JQQJ	CPPC	ZHHZ	küssen	genießen	träumen	sonnig	gütig	vertrauen	krank	gemein	töten	sterben	gierig	versagen	1	acq_USpleas_CSpleas1_RW	acq4567_RW	4	60	400	1	300	300	423	50	0	1	1	blank2r.bmp	0	1	+	0	1	blank2r.bmp	492	1	LWWL	492	1	blank2r.bmp	572	1	küssen	866	1	!	1239	1	!	1319	0	0	0	0	0	0	0	0	0	0	0	0	0	0	0	0	0	0	0	0	0	0	0	0	0	0	0	0	0	0
070319	13:18:11	13:25:52	460847	5.0.10.0	5_exp_RW	11	Rpleas_acq	CS_A	LWWL	DXXD	YFFY	JQQJ	CPPC	ZHHZ	küssen	genießen	träumen	sonnig	gütig	vertrauen	krank	gemein	töten	sterben	gierig	versagen	1	acq_USpleas_CSpleas2_RW	acq4567_RW	4	61	400	1	300	300	407	50	0	1	1	blank2r.bmp	0	1	+	0	1	blank2r.bmp	492	1	DXXD	492	1	blank2r.bmp	572	2	gütig	866	1	!	1239	1	!	1306	0	0	0	0	0	0	0	0	0	0	0	0	0	0	0	0	0	0	0	0	0	0	0	0	0	0	0	0	0	0
070319	13:18:11	13:25:54	463166	5.0.10.0	5_exp_RW	11	Rpleas_acq	CS_A	LWWL	DXXD	YFFY	JQQJ	CPPC	ZHHZ	küssen	genießen	träumen	sonnig	gütig	vertrauen	krank	gemein	töten	sterben	gierig	versagen	1	acq_USpleas_CSpleas1_RW	acq4567_RW	4	62	400	0	300	300	547	50	0	1	1	blank2r.bmp	0	1	+	0	1	blank2r.bmp	492	1	LWWL	492	1	blank2r.bmp	572	2	genießen	866	1	!	1239	1	!	-1	0	0	0	0	0	0	0	0	0	0	0	0	0	0	0	0	0	0	0	0	0	0	0	0	0	0	0	0	0	0
070319	13:18:11	13:25:57	465325	5.0.10.0	5_exp_RW	11	Rpleas_acq	CS_A	LWWL	DXXD	YFFY	JQQJ	CPPC	ZHHZ	küssen	genießen	träumen	sonnig	gütig	vertrauen	krank	gemein	töten	sterben	gierig	versagen	1	acq_USunple_CSunple1_RW	acq4567_RW	4	63	400	1	300	300	346	46	0	1	1	blank2r.bmp	0	1	+	0	1	blank2r.bmp	492	1	YFFY	492	1	blank2r.bmp	572	3	töten	866	1	!	1239	1	!	1252	0	0	0	0	0	0	0	0	0	0	0	0	0	0	0	0	0	0	0	0	0	0	0	0	0	0	0	0	0	0
070319	13:18:11	13:25:59	467510	5.0.10.0	5_exp_RW	11	Rpleas_acq	CS_A	LWWL	DXXD	YFFY	JQQJ	CPPC	ZHHZ	küssen	genießen	träumen	sonnig	gütig	vertrauen	krank	gemein	töten	sterben	gierig	versagen	1	acq_USunple_CSunple2_RW	acq4567_RW	4	64	400	1	300	300	397	46	0	1	1	blank2r.bmp	0	1	+	0	1	blank2r.bmp	492	1	JQQJ	492	1	blank2r.bmp	572	1	sterben	866	1	!	1239	1	!	1292	0	0	0	0	0	0	0	0	0	0	0	0	0	0	0	0	0	0	0	0	0	0	0	0	0	0	0	0	0	0
070319	13:18:11	13:26:01	469749	5.0.10.0	5_exp_RW	11	Rpleas_acq	CS_A	LWWL	DXXD	YFFY	JQQJ	CPPC	ZHHZ	küssen	genießen	träumen	sonnig	gütig	vertrauen	krank	gemein	töten	sterben	gierig	versagen	1	acq_USpleas_CSpleas2_RW	acq4567_RW	4	65	400	1	300	300	441	50	0	1	1	blank2r.bmp	0	1	+	0	1	blank2r.bmp	492	1	DXXD	492	1	blank2r.bmp	572	3	vertrauen	866	1	!	1239	1	!	1346	0	0	0	0	0	0	0	0	0	0	0	0	0	0	0	0	0	0	0	0	0	0	0	0	0	0	0	0	0	0
070319	13:18:11	13:26:03	471935	5.0.10.0	5_exp_RW	11	Rpleas_acq	CS_A	LWWL	DXXD	YFFY	JQQJ	CPPC	ZHHZ	küssen	genießen	träumen	sonnig	gütig	vertrauen	krank	gemein	töten	sterben	gierig	versagen	1	acq_USpleas_CSpleas2_RW	acq4567_RW	4	66	400	1	300	300	379	50	0	1	1	blank2r.bmp	0	1	+	0	1	blank2r.bmp	492	1	DXXD	492	1	blank2r.bmp	572	1	sonnig	866	1	!	1239	1	!	1279	0	0	0	0	0	0	0	0	0	0	0	0	0	0	0	0	0	0	0	0	0	0	0	0	0	0	0	0	0	0
070319	13:18:11	13:26:05	474161	5.0.10.0	5_exp_RW	11	Rpleas_acq	CS_A	LWWL	DXXD	YFFY	JQQJ	CPPC	ZHHZ	küssen	genießen	träumen	sonnig	gütig	vertrauen	krank	gemein	töten	sterben	gierig	versagen	1	acq_USunple_CSunple2_RW	acq4567_RW	4	67	400	1	300	300	421	46	0	1	1	blank2r.bmp	0	1	+	0	1	blank2r.bmp	492	1	JQQJ	492	1	blank2r.bmp	572	3	versagen	866	1	!	1239	1	!	1319	0	0	0	0	0	0	0	0	0	0	0	0	0	0	0	0	0	0	0	0	0	0	0	0	0	0	0	0	0	0
070319	13:18:11	13:26:08	476320	5.0.10.0	5_exp_RW	11	Rpleas_acq	CS_A	LWWL	DXXD	YFFY	JQQJ	CPPC	ZHHZ	küssen	genießen	träumen	sonnig	gütig	vertrauen	krank	gemein	töten	sterben	gierig	versagen	1	acq_USpleas_CSpleas1_RW	acq4567_RW	4	68	400	1	300	300	359	46	0	0	1	blank2r.bmp	0	1	+	0	1	blank2r.bmp	492	1	LWWL	492	1	blank2r.bmp	572	3	träumen	866	1	!	1239	1	!	1266	0	0	0	0	0	0	0	0	0	0	0	0	0	0	0	0	0	0	0	0	0	0	0	0	0	0	0	0	0	0
070319	13:18:11	13:26:10	478572	5.0.10.0	5_exp_RW	11	Rpleas_acq	CS_A	LWWL	DXXD	YFFY	JQQJ	CPPC	ZHHZ	küssen	genießen	träumen	sonnig	gütig	vertrauen	krank	gemein	töten	sterben	gierig	versagen	1	acq_USunple_CSunple2_RW	acq4567_RW	4	69	400	0	300	300	479	46	0	1	1	blank2r.bmp	0	1	+	0	1	blank2r.bmp	492	1	JQQJ	492	1	blank2r.bmp	572	1	sterben	866	1	!	1239	1	!	-1	0	0	0	0	0	0	0	0	0	0	0	0	0	0	0	0	0	0	0	0	0	0	0	0	0	0	0	0	0	0
070319	13:18:11	13:26:12	480785	5.0.10.0	5_exp_RW	11	Rpleas_acq	CS_A	LWWL	DXXD	YFFY	JQQJ	CPPC	ZHHZ	küssen	genießen	träumen	sonnig	gütig	vertrauen	krank	gemein	töten	sterben	gierig	versagen	1	acq_USunple_CSunple1_RW	acq4567_RW	4	70	400	1	300	300	412	46	0	1	1	blank2r.bmp	0	1	+	0	1	blank2r.bmp	492	1	YFFY	492	1	blank2r.bmp	572	2	gemein	866	1	!	1239	1	!	1306	0	0	0	0	0	0	0	0	0	0	0	0	0	0	0	0	0	0	0	0	0	0	0	0	0	0	0	0	0	0
070319	13:18:11	13:26:14	483037	5.0.10.0	5_exp_RW	11	Rpleas_acq	CS_A	LWWL	DXXD	YFFY	JQQJ	CPPC	ZHHZ	küssen	genießen	träumen	sonnig	gütig	vertrauen	krank	gemein	töten	sterben	gierig	versagen	1	acq_USpleas_CSpleas1_RW	acq4567_RW	4	71	400	1	300	300	458	50	0	1	1	blank2r.bmp	0	1	+	0	1	blank2r.bmp	492	1	LWWL	492	1	blank2r.bmp	572	3	träumen	866	1	!	1239	1	!	1359	0	0	0	0	0	0	0	0	0	0	0	0	0	0	0	0	0	0	0	0	0	0	0	0	0	0	0	0	0	0
070319	13:18:11	13:26:17	485263	5.0.10.0	5_exp_RW	11	Rpleas_acq	CS_A	LWWL	DXXD	YFFY	JQQJ	CPPC	ZHHZ	küssen	genießen	träumen	sonnig	gütig	vertrauen	krank	gemein	töten	sterben	gierig	versagen	1	acq_USunple_CSunple1_RW	acq4567_RW	4	72	400	1	300	300	432	46	0	1	1	blank2r.bmp	0	1	+	0	1	blank2r.bmp	492	1	YFFY	492	1	blank2r.bmp	572	1	krank	866	1	!	1239	1	!	1332	0	0	0	0	0	0	0	0	0	0	0	0	0	0	0	0	0	0	0	0	0	0	0	0	0	0	0	0	0	0
070319	13:18:11	13:26:19	487529	5.0.10.0	5_exp_RW	11	Rpleas_acq	CS_A	LWWL	DXXD	YFFY	JQQJ	CPPC	ZHHZ	küssen	genießen	träumen	sonnig	gütig	vertrauen	krank	gemein	töten	sterben	gierig	versagen	1	acq_USpleas_CSpleas2_RW	acq4567_RW	4	73	400	1	300	300	466	46	0	0	1	blank2r.bmp	0	1	+	0	1	blank2r.bmp	492	1	DXXD	492	1	blank2r.bmp	572	2	gütig	866	1	!	1239	1	!	1372	0	0	0	0	0	0	0	0	0	0	0	0	0	0	0	0	0	0	0	0	0	0	0	0	0	0	0	0	0	0
070319	13:18:11	13:26:21	489781	5.0.10.0	5_exp_RW	11	Rpleas_acq	CS_A	LWWL	DXXD	YFFY	JQQJ	CPPC	ZHHZ	küssen	genießen	träumen	sonnig	gütig	vertrauen	krank	gemein	töten	sterben	gierig	versagen	1	acq_USpleas_CSpleas1_RW	acq4567_RW	4	74	400	1	300	300	456	50	0	1	1	blank2r.bmp	0	1	+	0	1	blank2r.bmp	492	1	LWWL	492	1	blank2r.bmp	572	1	küssen	866	1	!	1239	1	!	1359	0	0	0	0	0	0	0	0	0	0	0	0	0	0	0	0	0	0	0	0	0	0	0	0	0	0	0	0	0	0
070319	13:18:11	13:26:23	492033	5.0.10.0	5_exp_RW	11	Rpleas_acq	CS_A	LWWL	DXXD	YFFY	JQQJ	CPPC	ZHHZ	küssen	genießen	träumen	sonnig	gütig	vertrauen	krank	gemein	töten	sterben	gierig	versagen	1	acq_USunple_CSunple2_RW	acq4567_RW	4	75	400	1	300	300	440	46	0	1	1	blank2r.bmp	0	1	+	0	1	blank2r.bmp	492	1	JQQJ	492	1	blank2r.bmp	572	2	gierig	866	1	!	1239	1	!	1346	0	0	0	0	0	0	0	0	0	0	0	0	0	0	0	0	0	0	0	0	0	0	0	0	0	0	0	0	0	0
070319	13:18:11	13:26:26	494286	5.0.10.0	5_exp_RW	11	Rpleas_acq	CS_A	LWWL	DXXD	YFFY	JQQJ	CPPC	ZHHZ	küssen	genießen	träumen	sonnig	gütig	vertrauen	krank	gemein	töten	sterben	gierig	versagen	1	acq_USunple_CSunple2_RW	acq4567_RW	4	76	400	1	300	300	457	46	0	1	1	blank2r.bmp	0	1	+	0	1	blank2r.bmp	492	1	JQQJ	492	1	blank2r.bmp	572	3	versagen	866	1	!	1239	1	!	1359	0	0	0	0	0	0	0	0	0	0	0	0	0	0	0	0	0	0	0	0	0	0	0	0	0	0	0	0	0	0
070319	13:18:11	13:26:28	496432	5.0.10.0	5_exp_RW	11	Rpleas_acq	CS_A	LWWL	DXXD	YFFY	JQQJ	CPPC	ZHHZ	küssen	genießen	träumen	sonnig	gütig	vertrauen	krank	gemein	töten	sterben	gierig	versagen	1	acq_USunple_CSunple1_RW	acq4567_RW	4	77	400	1	300	300	352	46	0	1	1	blank2r.bmp	0	1	+	0	1	blank2r.bmp	492	1	YFFY	492	1	blank2r.bmp	572	3	töten	866	1	!	1239	1	!	1252	0	0	0	0	0	0	0	0	0	0	0	0	0	0	0	0	0	0	0	0	0	0	0	0	0	0	0	0	0	0
070319	13:18:11	13:26:30	498657	5.0.10.0	5_exp_RW	11	Rpleas_acq	CS_A	LWWL	DXXD	YFFY	JQQJ	CPPC	ZHHZ	küssen	genießen	träumen	sonnig	gütig	vertrauen	krank	gemein	töten	sterben	gierig	versagen	1	acq_USpleas_CSpleas2_RW	acq4567_RW	4	78	400	1	300	300	427	50	0	1	1	blank2r.bmp	0	1	+	0	1	blank2r.bmp	492	1	DXXD	492	1	blank2r.bmp	572	3	vertrauen	866	1	!	1239	1	!	1332	0	0	0	0	0	0	0	0	0	0	0	0	0	0	0	0	0	0	0	0	0	0	0	0	0	0	0	0	0	0
070319	13:18:11	13:26:32	500910	5.0.10.0	5_exp_RW	11	Rpleas_acq	CS_A	LWWL	DXXD	YFFY	JQQJ	CPPC	ZHHZ	küssen	genießen	träumen	sonnig	gütig	vertrauen	krank	gemein	töten	sterben	gierig	versagen	1	acq_USpleas_CSpleas1_RW	acq4567_RW	4	79	400	1	300	300	448	46	0	0	1	blank2r.bmp	0	1	+	0	1	blank2r.bmp	492	1	LWWL	492	1	blank2r.bmp	572	2	genießen	866	1	!	1239	1	!	1346	0	0	0	0	0	0	0	0	0	0	0	0	0	0	0	0	0	0	0	0	0	0	0	0	0	0	0	0	0	0
070319	13:18:11	13:26:34	502989	5.0.10.0	5_exp_RW	11	Rpleas_acq	CS_A	LWWL	DXXD	YFFY	JQQJ	CPPC	ZHHZ	küssen	genießen	träumen	sonnig	gütig	vertrauen	krank	gemein	töten	sterben	gierig	versagen	1	acq_USunple_CSunple1_RW	acq4567_RW	4	80	400	0	300	300	316	46	0	1	1	blank2r.bmp	0	1	+	0	1	blank2r.bmp	492	1	YFFY	492	1	blank2r.bmp	572	2	gemein	866	1	!	-1	1	!	-1	0	0	0	0	0	0	0	0	0	0	0	0	0	0	0	0	0	0	0	0	0	0	0	0	0	0	0	0	0	0
070319	13:18:11	13:26:47	515864	5.0.10.0	5_exp_RW	11	Rpleas_acq	CS_A	LWWL	DXXD	YFFY	JQQJ	CPPC	ZHHZ	küssen	genießen	träumen	sonnig	gütig	vertrauen	krank	gemein	töten	sterben	gierig	versagen	1	acq_USunple_CSunple2_RW	acq4567_RW	5	1	400	0	300	300	643	46	0	1	1	blank2r.bmp	0	1	+	0	1	blank2r.bmp	492	1	JQQJ	492	1	blank2r.bmp	572	2	gierig	866	1	!	1239	1	!	-1	0	0	0	0	0	0	0	0	0	0	0	0	0	0	0	0	0	0	0	0	0	0	0	0	0	0	0	0	0	0
070319	13:18:11	13:26:49	518103	5.0.10.0	5_exp_RW	11	Rpleas_acq	CS_A	LWWL	DXXD	YFFY	JQQJ	CPPC	ZHHZ	küssen	genießen	träumen	sonnig	gütig	vertrauen	krank	gemein	töten	sterben	gierig	versagen	1	acq_USpleas_CSpleas2_RW	acq4567_RW	5	2	400	1	300	300	436	50	0	1	1	blank2r.bmp	0	1	+	0	1	blank2r.bmp	492	1	DXXD	492	1	blank2r.bmp	572	3	vertrauen	866	1	!	1239	1	!	1332	0	0	0	0	0	0	0	0	0	0	0	0	0	0	0	0	0	0	0	0	0	0	0	0	0	0	0	0	0	0
070319	13:18:11	13:26:52	520355	5.0.10.0	5_exp_RW	11	Rpleas_acq	CS_A	LWWL	DXXD	YFFY	JQQJ	CPPC	ZHHZ	küssen	genießen	träumen	sonnig	gütig	vertrauen	krank	gemein	töten	sterben	gierig	versagen	1	acq_USunple_CSunple2_RW	acq4567_RW	5	3	400	0	300	300	479	46	0	1	1	blank2r.bmp	0	1	+	0	1	blank2r.bmp	492	1	JQQJ	492	1	blank2r.bmp	572	1	sterben	866	1	!	1239	1	!	-1	0	0	0	0	0	0	0	0	0	0	0	0	0	0	0	0	0	0	0	0	0	0	0	0	0	0	0	0	0	0
070319	13:18:11	13:26:54	522434	5.0.10.0	5_exp_RW	11	Rpleas_acq	CS_A	LWWL	DXXD	YFFY	JQQJ	CPPC	ZHHZ	küssen	genießen	träumen	sonnig	gütig	vertrauen	krank	gemein	töten	sterben	gierig	versagen	1	acq_USpleas_CSpleas2_RW	acq4567_RW	5	4	400	0	300	300	303	46	0	0	1	blank2r.bmp	0	1	+	0	1	blank2r.bmp	492	1	DXXD	492	1	blank2r.bmp	572	2	gütig	866	1	!	-1	1	!	-1	0	0	0	0	0	0	0	0	0	0	0	0	0	0	0	0	0	0	0	0	0	0	0	0	0	0	0	0	0	0
070319	13:18:11	13:26:56	524780	5.0.10.0	5_exp_RW	11	Rpleas_acq	CS_A	LWWL	DXXD	YFFY	JQQJ	CPPC	ZHHZ	küssen	genießen	träumen	sonnig	gütig	vertrauen	krank	gemein	töten	sterben	gierig	versagen	1	acq_USpleas_CSpleas1_RW	acq4567_RW	5	5	400	0	300	300	548	50	0	1	1	blank2r.bmp	0	1	+	0	1	blank2r.bmp	492	1	LWWL	492	1	blank2r.bmp	572	2	genießen	866	1	!	1239	1	!	-1	0	0	0	0	0	0	0	0	0	0	0	0	0	0	0	0	0	0	0	0	0	0	0	0	0	0	0	0	0	0
070319	13:18:11	13:26:58	526979	5.0.10.0	5_exp_RW	11	Rpleas_acq	CS_A	LWWL	DXXD	YFFY	JQQJ	CPPC	ZHHZ	küssen	genießen	träumen	sonnig	gütig	vertrauen	krank	gemein	töten	sterben	gierig	versagen	1	acq_USunple_CSunple1_RW	acq4567_RW	5	6	400	1	300	300	388	46	0	1	1	blank2r.bmp	0	1	+	0	1	blank2r.bmp	492	1	YFFY	492	1	blank2r.bmp	572	3	töten	866	1	!	1239	1	!	1292	0	0	0	0	0	0	0	0	0	0	0	0	0	0	0	0	0	0	0	0	0	0	0	0	0	0	0	0	0	0
070319	13:18:11	13:27:00	529165	5.0.10.0	5_exp_RW	11	Rpleas_acq	CS_A	LWWL	DXXD	YFFY	JQQJ	CPPC	ZHHZ	küssen	genießen	träumen	sonnig	gütig	vertrauen	krank	gemein	töten	sterben	gierig	versagen	1	acq_USpleas_CSpleas1_RW	acq4567_RW	5	7	400	1	300	300	387	50	0	1	1	blank2r.bmp	0	1	+	0	1	blank2r.bmp	492	1	LWWL	492	1	blank2r.bmp	572	1	küssen	866	1	!	1239	1	!	1292	0	0	0	0	0	0	0	0	0	0	0	0	0	0	0	0	0	0	0	0	0	0	0	0	0	0	0	0	0	0
070319	13:18:11	13:27:03	531404	5.0.10.0	5_exp_RW	11	Rpleas_acq	CS_A	LWWL	DXXD	YFFY	JQQJ	CPPC	ZHHZ	küssen	genießen	träumen	sonnig	gütig	vertrauen	krank	gemein	töten	sterben	gierig	versagen	1	acq_USpleas_CSpleas1_RW	acq4567_RW	5	8	400	1	300	300	438	50	0	1	1	blank2r.bmp	0	1	+	0	1	blank2r.bmp	492	1	LWWL	492	1	blank2r.bmp	572	3	träumen	866	1	!	1239	1	!	1346	0	0	0	0	0	0	0	0	0	0	0	0	0	0	0	0	0	0	0	0	0	0	0	0	0	0	0	0	0	0
070319	13:18:11	13:27:05	533629	5.0.10.0	5_exp_RW	11	Rpleas_acq	CS_A	LWWL	DXXD	YFFY	JQQJ	CPPC	ZHHZ	küssen	genießen	träumen	sonnig	gütig	vertrauen	krank	gemein	töten	sterben	gierig	versagen	1	acq_USunple_CSunple2_RW	acq4567_RW	5	9	400	1	300	300	433	46	0	1	1	blank2r.bmp	0	1	+	0	1	blank2r.bmp	492	1	JQQJ	492	1	blank2r.bmp	572	3	versagen	866	1	!	1239	1	!	1332	0	0	0	0	0	0	0	0	0	0	0	0	0	0	0	0	0	0	0	0	0	0	0	0	0	0	0	0	0	0
070319	13:18:11	13:27:07	535895	5.0.10.0	5_exp_RW	11	Rpleas_acq	CS_A	LWWL	DXXD	YFFY	JQQJ	CPPC	ZHHZ	küssen	genießen	träumen	sonnig	gütig	vertrauen	krank	gemein	töten	sterben	gierig	versagen	1	acq_USunple_CSunple1_RW	acq4567_RW	5	10	400	1	300	300	466	46	0	1	1	blank2r.bmp	0	1	+	0	1	blank2r.bmp	492	1	YFFY	492	1	blank2r.bmp	572	1	krank	866	1	!	1239	1	!	1372	0	0	0	0	0	0	0	0	0	0	0	0	0	0	0	0	0	0	0	0	0	0	0	0	0	0	0	0	0	0
070319	13:18:11	13:27:09	538094	5.0.10.0	5_exp_RW	11	Rpleas_acq	CS_A	LWWL	DXXD	YFFY	JQQJ	CPPC	ZHHZ	küssen	genießen	träumen	sonnig	gütig	vertrauen	krank	gemein	töten	sterben	gierig	versagen	1	acq_USunple_CSunple1_RW	acq4567_RW	5	11	400	1	300	300	402	46	0	1	1	blank2r.bmp	0	1	+	0	1	blank2r.bmp	492	1	YFFY	492	1	blank2r.bmp	572	2	gemein	866	1	!	1239	1	!	1306	0	0	0	0	0	0	0	0	0	0	0	0	0	0	0	0	0	0	0	0	0	0	0	0	0	0	0	0	0	0
070319	13:18:11	13:27:12	540307	5.0.10.0	5_exp_RW	11	Rpleas_acq	CS_A	LWWL	DXXD	YFFY	JQQJ	CPPC	ZHHZ	küssen	genießen	träumen	sonnig	gütig	vertrauen	krank	gemein	töten	sterben	gierig	versagen	1	acq_USpleas_CSpleas2_RW	acq4567_RW	5	12	400	1	300	300	400	50	0	1	1	blank2r.bmp	0	1	+	0	1	blank2r.bmp	492	1	DXXD	492	1	blank2r.bmp	572	1	sonnig	866	1	!	1239	1	!	1306	0	0	0	0	0	0	0	0	0	0	0	0	0	0	0	0	0	0	0	0	0	0	0	0	0	0	0	0	0	0
070319	13:18:11	13:27:14	542506	5.0.10.0	5_exp_RW	11	Rpleas_acq	CS_A	LWWL	DXXD	YFFY	JQQJ	CPPC	ZHHZ	küssen	genießen	träumen	sonnig	gütig	vertrauen	krank	gemein	töten	sterben	gierig	versagen	1	acq_USpleas_CSpleas2_RW	acq4567_RW	5	13	400	1	300	300	401	50	0	1	1	blank2r.bmp	0	1	+	0	1	blank2r.bmp	492	1	DXXD	492	1	blank2r.bmp	572	1	sonnig	866	1	!	1239	1	!	1306	0	0	0	0	0	0	0	0	0	0	0	0	0	0	0	0	0	0	0	0	0	0	0	0	0	0	0	0	0	0
070319	13:18:11	13:27:16	544678	5.0.10.0	5_exp_RW	11	Rpleas_acq	CS_A	LWWL	DXXD	YFFY	JQQJ	CPPC	ZHHZ	küssen	genießen	träumen	sonnig	gütig	vertrauen	krank	gemein	töten	sterben	gierig	versagen	1	acq_USunple_CSunple2_RW	acq4567_RW	5	14	400	1	300	300	377	46	0	1	1	blank2r.bmp	0	1	+	0	1	blank2r.bmp	492	1	JQQJ	492	1	blank2r.bmp	572	2	gierig	866	1	!	1239	1	!	1279	0	0	0	0	0	0	0	0	0	0	0	0	0	0	0	0	0	0	0	0	0	0	0	0	0	0	0	0	0	0
070319	13:18:11	13:27:18	546917	5.0.10.0	5_exp_RW	11	Rpleas_acq	CS_A	LWWL	DXXD	YFFY	JQQJ	CPPC	ZHHZ	küssen	genießen	träumen	sonnig	gütig	vertrauen	krank	gemein	töten	sterben	gierig	versagen	1	acq_USpleas_CSpleas1_RW	acq4567_RW	5	15	400	1	300	300	446	50	0	1	1	blank2r.bmp	0	1	+	0	1	blank2r.bmp	492	1	LWWL	492	1	blank2r.bmp	572	3	träumen	866	1	!	1239	1	!	1346	0	0	0	0	0	0	0	0	0	0	0	0	0	0	0	0	0	0	0	0	0	0	0	0	0	0	0	0	0	0
070319	13:18:11	13:27:21	549263	5.0.10.0	5_exp_RW	11	Rpleas_acq	CS_A	LWWL	DXXD	YFFY	JQQJ	CPPC	ZHHZ	küssen	genießen	träumen	sonnig	gütig	vertrauen	krank	gemein	töten	sterben	gierig	versagen	1	acq_USunple_CSunple2_RW	acq4567_RW	5	16	400	0	300	300	576	46	0	1	1	blank2r.bmp	0	1	+	0	1	blank2r.bmp	492	1	JQQJ	492	1	blank2r.bmp	572	3	versagen	866	1	!	1239	1	!	-1	0	0	0	0	0	0	0	0	0	0	0	0	0	0	0	0	0	0	0	0	0	0	0	0	0	0	0	0	0	0
070319	13:18:11	13:27:23	551435	5.0.10.0	5_exp_RW	11	Rpleas_acq	CS_A	LWWL	DXXD	YFFY	JQQJ	CPPC	ZHHZ	küssen	genießen	träumen	sonnig	gütig	vertrauen	krank	gemein	töten	sterben	gierig	versagen	1	acq_USunple_CSunple1_RW	acq4567_RW	5	17	400	1	300	300	369	46	0	1	1	blank2r.bmp	0	1	+	0	1	blank2r.bmp	492	1	YFFY	492	1	blank2r.bmp	572	2	gemein	866	1	!	1239	1	!	1266	0	0	0	0	0	0	0	0	0	0	0	0	0	0	0	0	0	0	0	0	0	0	0	0	0	0	0	0	0	0
070319	13:18:11	13:27:25	553688	5.0.10.0	5_exp_RW	11	Rpleas_acq	CS_A	LWWL	DXXD	YFFY	JQQJ	CPPC	ZHHZ	küssen	genießen	träumen	sonnig	gütig	vertrauen	krank	gemein	töten	sterben	gierig	versagen	1	acq_USpleas_CSpleas2_RW	acq4567_RW	5	18	400	1	300	300	454	50	0	1	1	blank2r.bmp	0	1	+	0	1	blank2r.bmp	492	1	DXXD	492	1	blank2r.bmp	572	3	vertrauen	866	1	!	1239	1	!	1359	0	0	0	0	0	0	0	0	0	0	0	0	0	0	0	0	0	0	0	0	0	0	0	0	0	0	0	0	0	0
070319	13:18:11	13:27:27	555833	5.0.10.0	5_exp_RW	11	Rpleas_acq	CS_A	LWWL	DXXD	YFFY	JQQJ	CPPC	ZHHZ	küssen	genießen	träumen	sonnig	gütig	vertrauen	krank	gemein	töten	sterben	gierig	versagen	1	acq_USunple_CSunple1_RW	acq4567_RW	5	19	400	1	300	300	358	46	0	1	1	blank2r.bmp	0	1	+	0	1	blank2r.bmp	492	1	YFFY	492	1	blank2r.bmp	572	1	krank	866	1	!	1239	1	!	1252	0	0	0	0	0	0	0	0	0	0	0	0	0	0	0	0	0	0	0	0	0	0	0	0	0	0	0	0	0	0
070319	13:18:11	13:27:29	558086	5.0.10.0	5_exp_RW	11	Rpleas_acq	CS_A	LWWL	DXXD	YFFY	JQQJ	CPPC	ZHHZ	küssen	genießen	träumen	sonnig	gütig	vertrauen	krank	gemein	töten	sterben	gierig	versagen	1	acq_USpleas_CSpleas1_RW	acq4567_RW	5	20	400	0	300	300	479	50	0	1	1	blank2r.bmp	0	1	+	0	1	blank2r.bmp	492	1	LWWL	492	1	blank2r.bmp	572	2	genießen	866	1	!	1239	1	!	-1	0	0	0	0	0	0	0	0	0	0	0	0	0	0	0	0	0	0	0	0	0	0	0	0	0	0	0	0	0	0
070319	13:18:11	13:27:32	560298	5.0.10.0	5_exp_RW	11	Rpleas_acq	CS_A	LWWL	DXXD	YFFY	JQQJ	CPPC	ZHHZ	küssen	genießen	träumen	sonnig	gütig	vertrauen	krank	gemein	töten	sterben	gierig	versagen	1	acq_USunple_CSunple2_RW	acq4567_RW	5	21	400	1	300	300	410	46	0	1	1	blank2r.bmp	0	1	+	0	1	blank2r.bmp	492	1	JQQJ	492	1	blank2r.bmp	572	1	sterben	866	1	!	1239	1	!	1306	0	0	0	0	0	0	0	0	0	0	0	0	0	0	0	0	0	0	0	0	0	0	0	0	0	0	0	0	0	0
070319	13:18:11	13:27:34	562484	5.0.10.0	5_exp_RW	11	Rpleas_acq	CS_A	LWWL	DXXD	YFFY	JQQJ	CPPC	ZHHZ	küssen	genießen	träumen	sonnig	gütig	vertrauen	krank	gemein	töten	sterben	gierig	versagen	1	acq_USunple_CSunple1_RW	acq4567_RW	5	22	400	1	300	300	397	46	0	1	1	blank2r.bmp	0	1	+	0	1	blank2r.bmp	492	1	YFFY	492	1	blank2r.bmp	572	3	töten	866	1	!	1239	1	!	1292	0	0	0	0	0	0	0	0	0	0	0	0	0	0	0	0	0	0	0	0	0	0	0	0	0	0	0	0	0	0
070319	13:18:11	13:27:36	564736	5.0.10.0	5_exp_RW	11	Rpleas_acq	CS_A	LWWL	DXXD	YFFY	JQQJ	CPPC	ZHHZ	küssen	genießen	träumen	sonnig	gütig	vertrauen	krank	gemein	töten	sterben	gierig	versagen	1	acq_USpleas_CSpleas2_RW	acq4567_RW	5	23	400	0	300	300	479	50	0	1	1	blank2r.bmp	0	1	+	0	1	blank2r.bmp	492	1	DXXD	492	1	blank2r.bmp	572	2	gütig	866	1	!	1239	1	!	-1	0	0	0	0	0	0	0	0	0	0	0	0	0	0	0	0	0	0	0	0	0	0	0	0	0	0	0	0	0	0
070319	13:18:11	13:27:38	566989	5.0.10.0	5_exp_RW	11	Rpleas_acq	CS_A	LWWL	DXXD	YFFY	JQQJ	CPPC	ZHHZ	küssen	genießen	träumen	sonnig	gütig	vertrauen	krank	gemein	töten	sterben	gierig	versagen	1	acq_USpleas_CSpleas1_RW	acq4567_RW	5	24	400	1	300	300	444	46	0	0	1	blank2r.bmp	0	1	+	0	1	blank2r.bmp	492	1	LWWL	492	1	blank2r.bmp	572	1	küssen	866	1	!	1239	1	!	1346	0	0	0	0	0	0	0	0	0	0	0	0	0	0	0	0	0	0	0	0	0	0	0	0	0	0	0	0	0	0
070319	13:18:11	13:27:41	569241	5.0.10.0	5_exp_RW	11	Rpleas_acq	CS_A	LWWL	DXXD	YFFY	JQQJ	CPPC	ZHHZ	küssen	genießen	träumen	sonnig	gütig	vertrauen	krank	gemein	töten	sterben	gierig	versagen	1	acq_USpleas_CSpleas1_RW	acq4567_RW	5	25	400	0	300	300	479	50	0	1	1	blank2r.bmp	0	1	+	0	1	blank2r.bmp	492	1	LWWL	492	1	blank2r.bmp	572	2	genießen	866	1	!	1239	1	!	-1	0	0	0	0	0	0	0	0	0	0	0	0	0	0	0	0	0	0	0	0	0	0	0	0	0	0	0	0	0	0
070319	13:18:11	13:27:43	571494	5.0.10.0	5_exp_RW	11	Rpleas_acq	CS_A	LWWL	DXXD	YFFY	JQQJ	CPPC	ZHHZ	küssen	genießen	träumen	sonnig	gütig	vertrauen	krank	gemein	töten	sterben	gierig	versagen	1	acq_USunple_CSunple1_RW	acq4567_RW	5	26	400	1	300	300	444	46	0	1	1	blank2r.bmp	0	1	+	0	1	blank2r.bmp	492	1	YFFY	492	1	blank2r.bmp	572	2	gemein	866	1	!	1239	1	!	1346	0	0	0	0	0	0	0	0	0	0	0	0	0	0	0	0	0	0	0	0	0	0	0	0	0	0	0	0	0	0
070319	13:18:11	13:27:45	573759	5.0.10.0	5_exp_RW	11	Rpleas_acq	CS_A	LWWL	DXXD	YFFY	JQQJ	CPPC	ZHHZ	küssen	genießen	träumen	sonnig	gütig	vertrauen	krank	gemein	töten	sterben	gierig	versagen	1	acq_USunple_CSunple2_RW	acq4567_RW	5	27	400	1	300	300	454	46	0	1	1	blank2r.bmp	0	1	+	0	1	blank2r.bmp	492	1	JQQJ	492	1	blank2r.bmp	572	1	sterben	866	1	!	1239	1	!	1359	0	0	0	0	0	0	0	0	0	0	0	0	0	0	0	0	0	0	0	0	0	0	0	0	0	0	0	0	0	0
070319	13:18:11	13:27:47	576012	5.0.10.0	5_exp_RW	11	Rpleas_acq	CS_A	LWWL	DXXD	YFFY	JQQJ	CPPC	ZHHZ	küssen	genießen	träumen	sonnig	gütig	vertrauen	krank	gemein	töten	sterben	gierig	versagen	1	acq_USunple_CSunple1_RW	acq4567_RW	5	28	400	0	300	300	479	46	0	1	1	blank2r.bmp	0	1	+	0	1	blank2r.bmp	492	1	YFFY	492	1	blank2r.bmp	572	3	töten	866	1	!	1239	1	!	-1	0	0	0	0	0	0	0	0	0	0	0	0	0	0	0	0	0	0	0	0	0	0	0	0	0	0	0	0	0	0
070319	13:18:11	13:27:50	578224	5.0.10.0	5_exp_RW	11	Rpleas_acq	CS_A	LWWL	DXXD	YFFY	JQQJ	CPPC	ZHHZ	küssen	genießen	träumen	sonnig	gütig	vertrauen	krank	gemein	töten	sterben	gierig	versagen	1	acq_USpleas_CSpleas1_RW	acq4567_RW	5	29	400	1	300	300	405	50	0	1	1	blank2r.bmp	0	1	+	0	1	blank2r.bmp	492	1	LWWL	492	1	blank2r.bmp	572	3	träumen	866	1	!	1239	1	!	1306	0	0	0	0	0	0	0	0	0	0	0	0	0	0	0	0	0	0	0	0	0	0	0	0	0	0	0	0	0	0
070319	13:18:11	13:27:52	580503	5.0.10.0	5_exp_RW	11	Rpleas_acq	CS_A	LWWL	DXXD	YFFY	JQQJ	CPPC	ZHHZ	küssen	genießen	träumen	sonnig	gütig	vertrauen	krank	gemein	töten	sterben	gierig	versagen	1	acq_USunple_CSunple2_RW	acq4567_RW	5	30	400	0	300	300	506	46	0	1	1	blank2r.bmp	0	1	+	0	1	blank2r.bmp	492	1	JQQJ	492	1	blank2r.bmp	572	2	gierig	866	1	!	1239	1	!	-1	0	0	0	0	0	0	0	0	0	0	0	0	0	0	0	0	0	0	0	0	0	0	0	0	0	0	0	0	0	0
070319	13:18:11	13:27:54	582809	5.0.10.0	5_exp_RW	11	Rpleas_acq	CS_A	LWWL	DXXD	YFFY	JQQJ	CPPC	ZHHZ	küssen	genießen	träumen	sonnig	gütig	vertrauen	krank	gemein	töten	sterben	gierig	versagen	1	acq_USunple_CSunple2_RW	acq4567_RW	5	31	400	0	300	300	524	46	0	1	1	blank2r.bmp	0	1	+	0	1	blank2r.bmp	492	1	JQQJ	492	1	blank2r.bmp	572	3	versagen	866	1	!	1239	1	!	-1	0	0	0	0	0	0	0	0	0	0	0	0	0	0	0	0	0	0	0	0	0	0	0	0	0	0	0	0	0	0
070319	13:18:11	13:27:56	585048	5.0.10.0	5_exp_RW	11	Rpleas_acq	CS_A	LWWL	DXXD	YFFY	JQQJ	CPPC	ZHHZ	küssen	genießen	träumen	sonnig	gütig	vertrauen	krank	gemein	töten	sterben	gierig	versagen	1	acq_USunple_CSunple2_RW	acq4567_RW	5	32	400	1	300	300	438	46	0	1	1	blank2r.bmp	0	1	+	0	1	blank2r.bmp	492	1	JQQJ	492	1	blank2r.bmp	572	2	gierig	866	1	!	1239	1	!	1332	0	0	0	0	0	0	0	0	0	0	0	0	0	0	0	0	0	0	0	0	0	0	0	0	0	0	0	0	0	0
070319	13:18:11	13:27:58	587140	5.0.10.0	5_exp_RW	11	Rpleas_acq	CS_A	LWWL	DXXD	YFFY	JQQJ	CPPC	ZHHZ	küssen	genießen	träumen	sonnig	gütig	vertrauen	krank	gemein	töten	sterben	gierig	versagen	1	acq_USpleas_CSpleas1_RW	acq4567_RW	5	33	400	0	300	300	316	50	0	1	1	blank2r.bmp	0	1	+	0	1	blank2r.bmp	492	1	LWWL	492	1	blank2r.bmp	572	1	küssen	866	1	!	-1	1	!	-1	0	0	0	0	0	0	0	0	0	0	0	0	0	0	0	0	0	0	0	0	0	0	0	0	0	0	0	0	0	0
070319	13:18:11	13:28:01	589246	5.0.10.0	5_exp_RW	11	Rpleas_acq	CS_A	LWWL	DXXD	YFFY	JQQJ	CPPC	ZHHZ	küssen	genießen	träumen	sonnig	gütig	vertrauen	krank	gemein	töten	sterben	gierig	versagen	1	acq_USpleas_CSpleas2_RW	acq4567_RW	5	34	400	0	300	300	305	50	0	1	1	blank2r.bmp	0	1	+	0	1	blank2r.bmp	492	1	DXXD	492	1	blank2r.bmp	572	1	sonnig	866	1	!	-1	1	!	-1	0	0	0	0	0	0	0	0	0	0	0	0	0	0	0	0	0	0	0	0	0	0	0	0	0	0	0	0	0	0
070319	13:18:11	13:28:03	591525	5.0.10.0	5_exp_RW	11	Rpleas_acq	CS_A	LWWL	DXXD	YFFY	JQQJ	CPPC	ZHHZ	küssen	genießen	träumen	sonnig	gütig	vertrauen	krank	gemein	töten	sterben	gierig	versagen	1	acq_USunple_CSunple1_RW	acq4567_RW	5	35	400	0	300	300	480	46	0	1	1	blank2r.bmp	0	1	+	0	1	blank2r.bmp	492	1	YFFY	492	1	blank2r.bmp	572	1	krank	866	1	!	1239	1	!	-1	0	0	0	0	0	0	0	0	0	0	0	0	0	0	0	0	0	0	0	0	0	0	0	0	0	0	0	0	0	0
070319	13:18:11	13:28:05	593871	5.0.10.0	5_exp_RW	11	Rpleas_acq	CS_A	LWWL	DXXD	YFFY	JQQJ	CPPC	ZHHZ	küssen	genießen	träumen	sonnig	gütig	vertrauen	krank	gemein	töten	sterben	gierig	versagen	1	acq_USpleas_CSpleas2_RW	acq4567_RW	5	36	400	0	300	300	550	46	0	0	1	blank2r.bmp	0	1	+	0	1	blank2r.bmp	492	1	DXXD	492	1	blank2r.bmp	572	2	gütig	866	1	!	1239	1	!	-1	0	0	0	0	0	0	0	0	0	0	0	0	0	0	0	0	0	0	0	0	0	0	0	0	0	0	0	0	0	0
070319	13:18:11	13:28:07	596163	5.0.10.0	5_exp_RW	11	Rpleas_acq	CS_A	LWWL	DXXD	YFFY	JQQJ	CPPC	ZHHZ	küssen	genießen	träumen	sonnig	gütig	vertrauen	krank	gemein	töten	sterben	gierig	versagen	1	acq_USpleas_CSpleas2_RW	acq4567_RW	5	37	400	0	300	300	510	50	0	1	1	blank2r.bmp	0	1	+	0	1	blank2r.bmp	492	1	DXXD	492	1	blank2r.bmp	572	3	vertrauen	866	1	!	1239	1	!	-1	0	0	0	0	0	0	0	0	0	0	0	0	0	0	0	0	0	0	0	0	0	0	0	0	0	0	0	0	0	0
070319	13:18:11	13:28:10	598429	5.0.10.0	5_exp_RW	11	Rpleas_acq	CS_A	LWWL	DXXD	YFFY	JQQJ	CPPC	ZHHZ	küssen	genießen	träumen	sonnig	gütig	vertrauen	krank	gemein	töten	sterben	gierig	versagen	1	acq_USunple_CSunple1_RW	acq4567_RW	5	38	400	1	300	300	459	46	0	1	1	blank2r.bmp	0	1	+	0	1	blank2r.bmp	492	1	YFFY	492	1	blank2r.bmp	572	2	gemein	866	1	!	1239	1	!	1359	0	0	0	0	0	0	0	0	0	0	0	0	0	0	0	0	0	0	0	0	0	0	0	0	0	0	0	0	0	0
070319	13:18:11	13:28:12	600695	5.0.10.0	5_exp_RW	11	Rpleas_acq	CS_A	LWWL	DXXD	YFFY	JQQJ	CPPC	ZHHZ	küssen	genießen	träumen	sonnig	gütig	vertrauen	krank	gemein	töten	sterben	gierig	versagen	1	acq_USpleas_CSpleas2_RW	acq4567_RW	5	39	400	0	300	300	500	50	0	1	1	blank2r.bmp	0	1	+	0	1	blank2r.bmp	492	1	DXXD	492	1	blank2r.bmp	572	1	sonnig	866	1	!	1239	1	!	-1	0	0	0	0	0	0	0	0	0	0	0	0	0	0	0	0	0	0	0	0	0	0	0	0	0	0	0	0	0	0
070319	13:18:11	13:28:14	602867	5.0.10.0	5_exp_RW	11	Rpleas_acq	CS_A	LWWL	DXXD	YFFY	JQQJ	CPPC	ZHHZ	küssen	genießen	träumen	sonnig	gütig	vertrauen	krank	gemein	töten	sterben	gierig	versagen	1	acq_USpleas_CSpleas1_RW	acq4567_RW	5	40	400	1	300	300	361	46	0	0	1	blank2r.bmp	0	1	+	0	1	blank2r.bmp	492	1	LWWL	492	1	blank2r.bmp	572	2	genießen	866	1	!	1239	1	!	1266	0	0	0	0	0	0	0	0	0	0	0	0	0	0	0	0	0	0	0	0	0	0	0	0	0	0	0	0	0	0
070319	13:18:11	13:28:17	605253	5.0.10.0	5_exp_RW	11	Rpleas_acq	CS_A	LWWL	DXXD	YFFY	JQQJ	CPPC	ZHHZ	küssen	genießen	träumen	sonnig	gütig	vertrauen	krank	gemein	töten	sterben	gierig	versagen	1	acq_USpleas_CSpleas2_RW	acq4567_RW	5	41	400	0	300	300	612	46	0	0	1	blank2r.bmp	0	1	+	0	1	blank2r.bmp	492	1	DXXD	492	1	blank2r.bmp	572	3	vertrauen	866	1	!	1239	1	!	-1	0	0	0	0	0	0	0	0	0	0	0	0	0	0	0	0	0	0	0	0	0	0	0	0	0	0	0	0	0	0
070319	13:18:11	13:28:19	607492	5.0.10.0	5_exp_RW	11	Rpleas_acq	CS_A	LWWL	DXXD	YFFY	JQQJ	CPPC	ZHHZ	küssen	genießen	träumen	sonnig	gütig	vertrauen	krank	gemein	töten	sterben	gierig	versagen	1	acq_USpleas_CSpleas1_RW	acq4567_RW	5	42	400	1	300	300	412	46	0	0	1	blank2r.bmp	0	1	+	0	1	blank2r.bmp	492	1	LWWL	492	1	blank2r.bmp	572	1	küssen	866	1	!	1239	1	!	1319	0	0	0	0	0	0	0	0	0	0	0	0	0	0	0	0	0	0	0	0	0	0	0	0	0	0	0	0	0	0
070319	13:18:11	13:28:48	636506	5.0.10.0	5_exp_RW	11	Rpleas_acq	CS_A	LWWL	DXXD	YFFY	JQQJ	CPPC	ZHHZ	küssen	genießen	träumen	sonnig	gütig	vertrauen	krank	gemein	töten	sterben	gierig	versagen	1	acq_USunple_CSunple2_RW	acq4567_RW	5	43	400	0	300	300	27240	50	0	0	1	blank2r.bmp	0	1	+	0	1	blank2r.bmp	492	1	JQQJ	492	1	blank2r.bmp	572	1	sterben	866	1	!	1239	1	!	-1	0	0	0	0	0	0	0	0	0	0	0	0	0	0	0	0	0	0	0	0	0	0	0	0	0	0	0	0	0	0
070319	13:18:11	13:28:55	643583	5.0.10.0	5_exp_RW	11	Rpleas_acq	CS_A	LWWL	DXXD	YFFY	JQQJ	CPPC	ZHHZ	küssen	genießen	träumen	sonnig	gütig	vertrauen	krank	gemein	töten	sterben	gierig	versagen	1	acq_USpleas_CSpleas2_RW	acq4567_RW	5	44	400	0	300	300	5295	50	0	1	1	blank2r.bmp	0	1	+	0	1	blank2r.bmp	492	1	DXXD	492	1	blank2r.bmp	572	2	gütig	866	1	!	1239	1	!	-1	0	0	0	0	0	0	0	0	0	0	0	0	0	0	0	0	0	0	0	0	0	0	0	0	0	0	0	0	0	0
070319	13:18:11	13:28:57	645876	5.0.10.0	5_exp_RW	11	Rpleas_acq	CS_A	LWWL	DXXD	YFFY	JQQJ	CPPC	ZHHZ	küssen	genießen	träumen	sonnig	gütig	vertrauen	krank	gemein	töten	sterben	gierig	versagen	1	acq_USunple_CSunple1_RW	acq4567_RW	5	45	400	0	300	300	507	46	0	1	1	blank2r.bmp	0	1	+	0	1	blank2r.bmp	492	1	YFFY	492	1	blank2r.bmp	572	1	krank	866	1	!	1239	1	!	-1	0	0	0	0	0	0	0	0	0	0	0	0	0	0	0	0	0	0	0	0	0	0	0	0	0	0	0	0	0	0
070319	13:18:11	13:28:59	648182	5.0.10.0	5_exp_RW	11	Rpleas_acq	CS_A	LWWL	DXXD	YFFY	JQQJ	CPPC	ZHHZ	küssen	genießen	träumen	sonnig	gütig	vertrauen	krank	gemein	töten	sterben	gierig	versagen	1	acq_USpleas_CSpleas2_RW	acq4567_RW	5	46	400	0	300	300	507	50	0	1	1	blank2r.bmp	0	1	+	0	1	blank2r.bmp	492	1	DXXD	492	1	blank2r.bmp	572	2	gütig	866	1	!	1239	1	!	-1	0	0	0	0	0	0	0	0	0	0	0	0	0	0	0	0	0	0	0	0	0	0	0	0	0	0	0	0	0	0
070319	13:18:11	13:29:02	650394	5.0.10.0	5_exp_RW	11	Rpleas_acq	CS_A	LWWL	DXXD	YFFY	JQQJ	CPPC	ZHHZ	küssen	genießen	träumen	sonnig	gütig	vertrauen	krank	gemein	töten	sterben	gierig	versagen	1	acq_USpleas_CSpleas1_RW	acq4567_RW	5	47	400	1	300	300	399	50	0	1	1	blank2r.bmp	0	1	+	0	1	blank2r.bmp	492	1	LWWL	492	1	blank2r.bmp	572	3	träumen	866	1	!	1239	1	!	1306	0	0	0	0	0	0	0	0	0	0	0	0	0	0	0	0	0	0	0	0	0	0	0	0	0	0	0	0	0	0
070319	13:18:11	13:29:04	652646	5.0.10.0	5_exp_RW	11	Rpleas_acq	CS_A	LWWL	DXXD	YFFY	JQQJ	CPPC	ZHHZ	küssen	genießen	träumen	sonnig	gütig	vertrauen	krank	gemein	töten	sterben	gierig	versagen	1	acq_USpleas_CSpleas2_RW	acq4567_RW	5	48	400	0	300	300	479	50	0	1	1	blank2r.bmp	0	1	+	0	1	blank2r.bmp	492	1	DXXD	492	1	blank2r.bmp	572	3	vertrauen	866	1	!	1239	1	!	-1	0	0	0	0	0	0	0	0	0	0	0	0	0	0	0	0	0	0	0	0	0	0	0	0	0	0	0	0	0	0
070319	13:18:11	13:29:06	654845	5.0.10.0	5_exp_RW	11	Rpleas_acq	CS_A	LWWL	DXXD	YFFY	JQQJ	CPPC	ZHHZ	küssen	genießen	träumen	sonnig	gütig	vertrauen	krank	gemein	töten	sterben	gierig	versagen	1	acq_USunple_CSunple2_RW	acq4567_RW	5	49	400	1	300	300	381	46	0	1	1	blank2r.bmp	0	1	+	0	1	blank2r.bmp	492	1	JQQJ	492	1	blank2r.bmp	572	3	versagen	866	1	!	1239	1	!	1279	0	0	0	0	0	0	0	0	0	0	0	0	0	0	0	0	0	0	0	0	0	0	0	0	0	0	0	0	0	0
070319	13:18:11	13:29:08	657124	5.0.10.0	5_exp_RW	11	Rpleas_acq	CS_A	LWWL	DXXD	YFFY	JQQJ	CPPC	ZHHZ	küssen	genießen	träumen	sonnig	gütig	vertrauen	krank	gemein	töten	sterben	gierig	versagen	1	acq_USunple_CSunple2_RW	acq4567_RW	5	50	400	0	300	300	506	46	0	1	1	blank2r.bmp	0	1	+	0	1	blank2r.bmp	492	1	JQQJ	492	1	blank2r.bmp	572	2	gierig	866	1	!	1239	1	!	-1	0	0	0	0	0	0	0	0	0	0	0	0	0	0	0	0	0	0	0	0	0	0	0	0	0	0	0	0	0	0
070319	13:18:11	13:29:11	659417	5.0.10.0	5_exp_RW	11	Rpleas_acq	CS_A	LWWL	DXXD	YFFY	JQQJ	CPPC	ZHHZ	küssen	genießen	träumen	sonnig	gütig	vertrauen	krank	gemein	töten	sterben	gierig	versagen	1	acq_USpleas_CSpleas1_RW	acq4567_RW	5	51	400	0	300	300	510	50	0	1	1	blank2r.bmp	0	1	+	0	1	blank2r.bmp	492	1	LWWL	492	1	blank2r.bmp	572	2	genießen	866	1	!	1239	1	!	-1	0	0	0	0	0	0	0	0	0	0	0	0	0	0	0	0	0	0	0	0	0	0	0	0	0	0	0	0	0	0
070319	13:18:11	13:29:13	661696	5.0.10.0	5_exp_RW	11	Rpleas_acq	CS_A	LWWL	DXXD	YFFY	JQQJ	CPPC	ZHHZ	küssen	genießen	träumen	sonnig	gütig	vertrauen	krank	gemein	töten	sterben	gierig	versagen	1	acq_USpleas_CSpleas1_RW	acq4567_RW	5	52	400	0	300	300	482	50	0	1	1	blank2r.bmp	0	1	+	0	1	blank2r.bmp	492	1	LWWL	492	1	blank2r.bmp	572	1	küssen	866	1	!	1239	1	!	-1	0	0	0	0	0	0	0	0	0	0	0	0	0	0	0	0	0	0	0	0	0	0	0	0	0	0	0	0	0	0
070319	13:18:11	13:29:15	664042	5.0.10.0	5_exp_RW	11	Rpleas_acq	CS_A	LWWL	DXXD	YFFY	JQQJ	CPPC	ZHHZ	küssen	genießen	träumen	sonnig	gütig	vertrauen	krank	gemein	töten	sterben	gierig	versagen	1	acq_USunple_CSunple2_RW	acq4567_RW	5	53	400	0	300	300	560	46	0	1	1	blank2r.bmp	0	1	+	0	1	blank2r.bmp	492	1	JQQJ	492	1	blank2r.bmp	572	3	versagen	866	1	!	1239	1	!	-1	0	0	0	0	0	0	0	0	0	0	0	0	0	0	0	0	0	0	0	0	0	0	0	0	0	0	0	0	0	0
070319	13:18:11	13:29:18	666387	5.0.10.0	5_exp_RW	11	Rpleas_acq	CS_A	LWWL	DXXD	YFFY	JQQJ	CPPC	ZHHZ	küssen	genießen	träumen	sonnig	gütig	vertrauen	krank	gemein	töten	sterben	gierig	versagen	1	acq_USunple_CSunple1_RW	acq4567_RW	5	54	400	0	300	300	568	46	0	1	1	blank2r.bmp	0	1	+	0	1	blank2r.bmp	492	1	YFFY	492	1	blank2r.bmp	572	3	töten	866	1	!	1239	1	!	-1	0	0	0	0	0	0	0	0	0	0	0	0	0	0	0	0	0	0	0	0	0	0	0	0	0	0	0	0	0	0
070319	13:18:11	13:29:20	668653	5.0.10.0	5_exp_RW	11	Rpleas_acq	CS_A	LWWL	DXXD	YFFY	JQQJ	CPPC	ZHHZ	küssen	genießen	träumen	sonnig	gütig	vertrauen	krank	gemein	töten	sterben	gierig	versagen	1	acq_USpleas_CSpleas1_RW	acq4567_RW	5	55	400	1	300	300	455	50	0	1	1	blank2r.bmp	0	1	+	0	1	blank2r.bmp	492	1	LWWL	492	1	blank2r.bmp	572	3	träumen	866	1	!	1239	1	!	1359	0	0	0	0	0	0	0	0	0	0	0	0	0	0	0	0	0	0	0	0	0	0	0	0	0	0	0	0	0	0
070319	13:18:11	13:29:22	671105	5.0.10.0	5_exp_RW	11	Rpleas_acq	CS_A	LWWL	DXXD	YFFY	JQQJ	CPPC	ZHHZ	küssen	genießen	träumen	sonnig	gütig	vertrauen	krank	gemein	töten	sterben	gierig	versagen	1	acq_USunple_CSunple1_RW	acq4567_RW	5	56	400	0	300	300	682	46	0	1	1	blank2r.bmp	0	1	+	0	1	blank2r.bmp	492	1	YFFY	492	1	blank2r.bmp	572	3	töten	866	1	!	1239	1	!	-1	0	0	0	0	0	0	0	0	0	0	0	0	0	0	0	0	0	0	0	0	0	0	0	0	0	0	0	0	0	0
070319	13:18:11	13:29:25	673398	5.0.10.0	5_exp_RW	11	Rpleas_acq	CS_A	LWWL	DXXD	YFFY	JQQJ	CPPC	ZHHZ	küssen	genießen	träumen	sonnig	gütig	vertrauen	krank	gemein	töten	sterben	gierig	versagen	1	acq_USunple_CSunple1_RW	acq4567_RW	5	57	400	0	300	300	514	46	0	1	1	blank2r.bmp	0	1	+	0	1	blank2r.bmp	492	1	YFFY	492	1	blank2r.bmp	572	2	gemein	866	1	!	1239	1	!	-1	0	0	0	0	0	0	0	0	0	0	0	0	0	0	0	0	0	0	0	0	0	0	0	0	0	0	0	0	0	0
070319	13:18:11	13:29:27	675730	5.0.10.0	5_exp_RW	11	Rpleas_acq	CS_A	LWWL	DXXD	YFFY	JQQJ	CPPC	ZHHZ	küssen	genießen	träumen	sonnig	gütig	vertrauen	krank	gemein	töten	sterben	gierig	versagen	1	acq_USpleas_CSpleas2_RW	acq4567_RW	5	58	400	0	300	300	546	50	0	1	1	blank2r.bmp	0	1	+	0	1	blank2r.bmp	492	1	DXXD	492	1	blank2r.bmp	572	1	sonnig	866	1	!	1239	1	!	-1	0	0	0	0	0	0	0	0	0	0	0	0	0	0	0	0	0	0	0	0	0	0	0	0	0	0	0	0	0	0
070319	13:18:11	13:29:29	678049	5.0.10.0	5_exp_RW	11	Rpleas_acq	CS_A	LWWL	DXXD	YFFY	JQQJ	CPPC	ZHHZ	küssen	genießen	träumen	sonnig	gütig	vertrauen	krank	gemein	töten	sterben	gierig	versagen	1	acq_USunple_CSunple2_RW	acq4567_RW	5	59	400	0	300	300	542	46	0	1	1	blank2r.bmp	0	1	+	0	1	blank2r.bmp	492	1	JQQJ	492	1	blank2r.bmp	572	1	sterben	866	1	!	1239	1	!	-1	0	0	0	0	0	0	0	0	0	0	0	0	0	0	0	0	0	0	0	0	0	0	0	0	0	0	0	0	0	0
070319	13:18:11	13:29:32	680288	5.0.10.0	5_exp_RW	11	Rpleas_acq	CS_A	LWWL	DXXD	YFFY	JQQJ	CPPC	ZHHZ	küssen	genießen	träumen	sonnig	gütig	vertrauen	krank	gemein	töten	sterben	gierig	versagen	1	acq_USunple_CSunple1_RW	acq4567_RW	5	60	400	1	300	300	430	46	0	1	1	blank2r.bmp	0	1	+	0	1	blank2r.bmp	492	1	YFFY	492	1	blank2r.bmp	572	1	krank	866	1	!	1239	1	!	1332	0	0	0	0	0	0	0	0	0	0	0	0	0	0	0	0	0	0	0	0	0	0	0	0	0	0	0	0	0	0
070319	13:18:11	13:29:34	682594	5.0.10.0	5_exp_RW	11	Rpleas_acq	CS_A	LWWL	DXXD	YFFY	JQQJ	CPPC	ZHHZ	küssen	genießen	träumen	sonnig	gütig	vertrauen	krank	gemein	töten	sterben	gierig	versagen	1	acq_USpleas_CSpleas1_RW	acq4567_RW	5	61	400	0	300	300	540	50	0	1	1	blank2r.bmp	0	1	+	0	1	blank2r.bmp	492	1	LWWL	492	1	blank2r.bmp	572	2	genießen	866	1	!	1239	1	!	-1	0	0	0	0	0	0	0	0	0	0	0	0	0	0	0	0	0	0	0	0	0	0	0	0	0	0	0	0	0	0
070319	13:18:11	13:29:36	684940	5.0.10.0	5_exp_RW	11	Rpleas_acq	CS_A	LWWL	DXXD	YFFY	JQQJ	CPPC	ZHHZ	küssen	genießen	träumen	sonnig	gütig	vertrauen	krank	gemein	töten	sterben	gierig	versagen	1	acq_USpleas_CSpleas1_RW	acq4567_RW	5	62	400	0	300	300	568	50	0	1	1	blank2r.bmp	0	1	+	0	1	blank2r.bmp	492	1	LWWL	492	1	blank2r.bmp	572	1	küssen	866	1	!	1239	1	!	-1	0	0	0	0	0	0	0	0	0	0	0	0	0	0	0	0	0	0	0	0	0	0	0	0	0	0	0	0	0	0
070319	13:18:11	13:29:39	687339	5.0.10.0	5_exp_RW	11	Rpleas_acq	CS_A	LWWL	DXXD	YFFY	JQQJ	CPPC	ZHHZ	küssen	genießen	träumen	sonnig	gütig	vertrauen	krank	gemein	töten	sterben	gierig	versagen	1	acq_USunple_CSunple1_RW	acq4567_RW	5	63	400	0	300	300	613	46	0	1	1	blank2r.bmp	0	1	+	0	1	blank2r.bmp	492	1	YFFY	492	1	blank2r.bmp	572	1	krank	866	1	!	1239	1	!	-1	0	0	0	0	0	0	0	0	0	0	0	0	0	0	0	0	0	0	0	0	0	0	0	0	0	0	0	0	0	0
070319	13:18:11	13:29:41	689631	5.0.10.0	5_exp_RW	11	Rpleas_acq	CS_A	LWWL	DXXD	YFFY	JQQJ	CPPC	ZHHZ	küssen	genießen	träumen	sonnig	gütig	vertrauen	krank	gemein	töten	sterben	gierig	versagen	1	acq_USpleas_CSpleas2_RW	acq4567_RW	5	64	400	1	300	300	465	50	0	1	1	blank2r.bmp	0	1	+	0	1	blank2r.bmp	492	1	DXXD	492	1	blank2r.bmp	572	1	sonnig	866	1	!	1239	1	!	1372	0	0	0	0	0	0	0	0	0	0	0	0	0	0	0	0	0	0	0	0	0	0	0	0	0	0	0	0	0	0
070319	13:18:11	13:29:43	692097	5.0.10.0	5_exp_RW	11	Rpleas_acq	CS_A	LWWL	DXXD	YFFY	JQQJ	CPPC	ZHHZ	küssen	genießen	träumen	sonnig	gütig	vertrauen	krank	gemein	töten	sterben	gierig	versagen	1	acq_USpleas_CSpleas2_RW	acq4567_RW	5	65	400	0	300	300	681	50	0	1	1	blank2r.bmp	0	1	+	0	1	blank2r.bmp	492	1	DXXD	492	1	blank2r.bmp	572	3	vertrauen	866	1	!	1239	1	!	-1	0	0	0	0	0	0	0	0	0	0	0	0	0	0	0	0	0	0	0	0	0	0	0	0	0	0	0	0	0	0
070319	13:18:11	13:29:46	694349	5.0.10.0	5_exp_RW	11	Rpleas_acq	CS_A	LWWL	DXXD	YFFY	JQQJ	CPPC	ZHHZ	küssen	genießen	träumen	sonnig	gütig	vertrauen	krank	gemein	töten	sterben	gierig	versagen	1	acq_USpleas_CSpleas2_RW	acq4567_RW	5	66	400	1	300	300	450	50	0	1	1	blank2r.bmp	0	1	+	0	1	blank2r.bmp	492	1	DXXD	492	1	blank2r.bmp	572	2	gütig	866	1	!	1239	1	!	1346	0	0	0	0	0	0	0	0	0	0	0	0	0	0	0	0	0	0	0	0	0	0	0	0	0	0	0	0	0	0
070319	13:18:11	13:29:48	696615	5.0.10.0	5_exp_RW	11	Rpleas_acq	CS_A	LWWL	DXXD	YFFY	JQQJ	CPPC	ZHHZ	küssen	genießen	träumen	sonnig	gütig	vertrauen	krank	gemein	töten	sterben	gierig	versagen	1	acq_USunple_CSunple2_RW	acq4567_RW	5	67	400	1	300	300	466	46	0	1	1	blank2r.bmp	0	1	+	0	1	blank2r.bmp	492	1	JQQJ	492	1	blank2r.bmp	572	1	sterben	866	1	!	1239	1	!	1372	0	0	0	0	0	0	0	0	0	0	0	0	0	0	0	0	0	0	0	0	0	0	0	0	0	0	0	0	0	0
070319	13:18:11	13:29:50	699027	5.0.10.0	5_exp_RW	11	Rpleas_acq	CS_A	LWWL	DXXD	YFFY	JQQJ	CPPC	ZHHZ	küssen	genießen	träumen	sonnig	gütig	vertrauen	krank	gemein	töten	sterben	gierig	versagen	1	acq_USpleas_CSpleas1_RW	acq4567_RW	5	68	400	0	300	300	649	50	0	1	1	blank2r.bmp	0	1	+	0	1	blank2r.bmp	492	1	LWWL	492	1	blank2r.bmp	572	3	träumen	866	1	!	1239	1	!	-1	0	0	0	0	0	0	0	0	0	0	0	0	0	0	0	0	0	0	0	0	0	0	0	0	0	0	0	0	0	0
070319	13:18:11	13:29:53	701599	5.0.10.0	5_exp_RW	11	Rpleas_acq	CS_A	LWWL	DXXD	YFFY	JQQJ	CPPC	ZHHZ	küssen	genießen	träumen	sonnig	gütig	vertrauen	krank	gemein	töten	sterben	gierig	versagen	1	acq_USunple_CSunple2_RW	acq4567_RW	5	69	400	0	300	300	789	46	0	1	1	blank2r.bmp	0	1	+	0	1	blank2r.bmp	492	1	JQQJ	492	1	blank2r.bmp	572	3	versagen	866	1	!	1239	1	!	-1	0	0	0	0	0	0	0	0	0	0	0	0	0	0	0	0	0	0	0	0	0	0	0	0	0	0	0	0	0	0
070319	13:18:11	13:29:55	703945	5.0.10.0	5_exp_RW	11	Rpleas_acq	CS_A	LWWL	DXXD	YFFY	JQQJ	CPPC	ZHHZ	küssen	genießen	träumen	sonnig	gütig	vertrauen	krank	gemein	töten	sterben	gierig	versagen	1	acq_USpleas_CSpleas2_RW	acq4567_RW	5	70	400	0	300	300	548	50	0	1	1	blank2r.bmp	0	1	+	0	1	blank2r.bmp	492	1	DXXD	492	1	blank2r.bmp	572	2	gütig	866	1	!	1239	1	!	-1	0	0	0	0	0	0	0	0	0	0	0	0	0	0	0	0	0	0	0	0	0	0	0	0	0	0	0	0	0	0
070319	13:18:11	13:29:58	706237	5.0.10.0	5_exp_RW	11	Rpleas_acq	CS_A	LWWL	DXXD	YFFY	JQQJ	CPPC	ZHHZ	küssen	genießen	träumen	sonnig	gütig	vertrauen	krank	gemein	töten	sterben	gierig	versagen	1	acq_USunple_CSunple1_RW	acq4567_RW	5	71	400	0	300	300	510	46	0	1	1	blank2r.bmp	0	1	+	0	1	blank2r.bmp	492	1	YFFY	492	1	blank2r.bmp	572	2	gemein	866	1	!	1239	1	!	-1	0	0	0	0	0	0	0	0	0	0	0	0	0	0	0	0	0	0	0	0	0	0	0	0	0	0	0	0	0	0
070319	13:18:11	13:30:00	708450	5.0.10.0	5_exp_RW	11	Rpleas_acq	CS_A	LWWL	DXXD	YFFY	JQQJ	CPPC	ZHHZ	küssen	genießen	träumen	sonnig	gütig	vertrauen	krank	gemein	töten	sterben	gierig	versagen	1	acq_USunple_CSunple2_RW	acq4567_RW	5	72	400	1	300	300	408	46	0	1	1	blank2r.bmp	0	1	+	0	1	blank2r.bmp	492	1	JQQJ	492	1	blank2r.bmp	572	2	gierig	866	1	!	1239	1	!	1306	0	0	0	0	0	0	0	0	0	0	0	0	0	0	0	0	0	0	0	0	0	0	0	0	0	0	0	0	0	0
070319	13:18:11	13:30:02	710822	5.0.10.0	5_exp_RW	11	Rpleas_acq	CS_A	LWWL	DXXD	YFFY	JQQJ	CPPC	ZHHZ	küssen	genießen	träumen	sonnig	gütig	vertrauen	krank	gemein	töten	sterben	gierig	versagen	1	acq_USunple_CSunple2_RW	acq4567_RW	5	73	400	0	300	300	601	46	0	1	1	blank2r.bmp	0	1	+	0	1	blank2r.bmp	492	1	JQQJ	492	1	blank2r.bmp	572	1	sterben	866	1	!	1239	1	!	-1	0	0	0	0	0	0	0	0	0	0	0	0	0	0	0	0	0	0	0	0	0	0	0	0	0	0	0	0	0	0
070319	13:18:11	13:30:04	712981	5.0.10.0	5_exp_RW	11	Rpleas_acq	CS_A	LWWL	DXXD	YFFY	JQQJ	CPPC	ZHHZ	küssen	genießen	träumen	sonnig	gütig	vertrauen	krank	gemein	töten	sterben	gierig	versagen	1	acq_USunple_CSunple1_RW	acq4567_RW	5	74	400	1	300	300	346	46	0	1	1	blank2r.bmp	0	1	+	0	1	blank2r.bmp	492	1	YFFY	492	1	blank2r.bmp	572	3	töten	866	1	!	1239	1	!	1252	0	0	0	0	0	0	0	0	0	0	0	0	0	0	0	0	0	0	0	0	0	0	0	0	0	0	0	0	0	0
070319	13:18:11	13:30:07	715273	5.0.10.0	5_exp_RW	11	Rpleas_acq	CS_A	LWWL	DXXD	YFFY	JQQJ	CPPC	ZHHZ	küssen	genießen	träumen	sonnig	gütig	vertrauen	krank	gemein	töten	sterben	gierig	versagen	1	acq_USpleas_CSpleas1_RW	acq4567_RW	5	75	400	0	300	300	519	50	0	1	1	blank2r.bmp	0	1	+	0	1	blank2r.bmp	492	1	LWWL	492	1	blank2r.bmp	572	1	küssen	866	1	!	1239	1	!	-1	0	0	0	0	0	0	0	0	0	0	0	0	0	0	0	0	0	0	0	0	0	0	0	0	0	0	0	0	0	0
070319	13:18:11	13:30:09	717526	5.0.10.0	5_exp_RW	11	Rpleas_acq	CS_A	LWWL	DXXD	YFFY	JQQJ	CPPC	ZHHZ	küssen	genießen	träumen	sonnig	gütig	vertrauen	krank	gemein	töten	sterben	gierig	versagen	1	acq_USpleas_CSpleas1_RW	acq4567_RW	5	76	400	1	300	300	439	46	0	0	1	blank2r.bmp	0	1	+	0	1	blank2r.bmp	492	1	LWWL	492	1	blank2r.bmp	572	3	träumen	866	1	!	1239	1	!	1346	0	0	0	0	0	0	0	0	0	0	0	0	0	0	0	0	0	0	0	0	0	0	0	0	0	0	0	0	0	0
070319	13:18:11	13:30:11	719778	5.0.10.0	5_exp_RW	11	Rpleas_acq	CS_A	LWWL	DXXD	YFFY	JQQJ	CPPC	ZHHZ	küssen	genießen	träumen	sonnig	gütig	vertrauen	krank	gemein	töten	sterben	gierig	versagen	1	acq_USpleas_CSpleas2_RW	acq4567_RW	5	77	400	1	300	300	455	50	0	1	1	blank2r.bmp	0	1	+	0	1	blank2r.bmp	492	1	DXXD	492	1	blank2r.bmp	572	1	sonnig	866	1	!	1239	1	!	1359	0	0	0	0	0	0	0	0	0	0	0	0	0	0	0	0	0	0	0	0	0	0	0	0	0	0	0	0	0	0
070319	13:18:11	13:30:13	722097	5.0.10.0	5_exp_RW	11	Rpleas_acq	CS_A	LWWL	DXXD	YFFY	JQQJ	CPPC	ZHHZ	küssen	genießen	träumen	sonnig	gütig	vertrauen	krank	gemein	töten	sterben	gierig	versagen	1	acq_USunple_CSunple1_RW	acq4567_RW	5	78	400	0	300	300	554	46	0	1	1	blank2r.bmp	0	1	+	0	1	blank2r.bmp	492	1	YFFY	492	1	blank2r.bmp	572	1	krank	866	1	!	1239	1	!	-1	0	0	0	0	0	0	0	0	0	0	0	0	0	0	0	0	0	0	0	0	0	0	0	0	0	0	0	0	0	0
070319	13:18:11	13:30:16	724430	5.0.10.0	5_exp_RW	11	Rpleas_acq	CS_A	LWWL	DXXD	YFFY	JQQJ	CPPC	ZHHZ	küssen	genießen	träumen	sonnig	gütig	vertrauen	krank	gemein	töten	sterben	gierig	versagen	1	acq_USunple_CSunple1_RW	acq4567_RW	5	79	400	0	300	300	533	46	0	1	1	blank2r.bmp	0	1	+	0	1	blank2r.bmp	492	1	YFFY	492	1	blank2r.bmp	572	3	töten	866	1	!	1239	1	!	-1	0	0	0	0	0	0	0	0	0	0	0	0	0	0	0	0	0	0	0	0	0	0	0	0	0	0	0	0	0	0
070319	13:18:11	13:30:18	726695	5.0.10.0	5_exp_RW	11	Rpleas_acq	CS_A	LWWL	DXXD	YFFY	JQQJ	CPPC	ZHHZ	küssen	genießen	träumen	sonnig	gütig	vertrauen	krank	gemein	töten	sterben	gierig	versagen	1	acq_USunple_CSunple2_RW	acq4567_RW	5	80	400	1	300	300	461	46	0	1	1	blank2r.bmp	0	1	+	0	1	blank2r.bmp	492	1	JQQJ	492	1	blank2r.bmp	572	2	gierig	866	1	!	1239	1	!	1359	0	0	0	0	0	0	0	0	0	0	0	0	0	0	0	0	0	0	0	0	0	0	0	0	0	0	0	0	0	0
070319	13:18:11	13:30:50	758522	5.0.10.0	5_exp_RW	11	Rpleas_acq	CS_A	LWWL	DXXD	YFFY	JQQJ	CPPC	ZHHZ	küssen	genießen	träumen	sonnig	gütig	vertrauen	krank	gemein	töten	sterben	gierig	versagen	1	acq_USpleas_CSpleas1_RW	acq4567_RW	6	1	400	0	300	300	481	50	0	1	1	blank2r.bmp	0	1	+	0	1	blank2r.bmp	492	1	LWWL	492	1	blank2r.bmp	572	2	genießen	866	1	!	1239	1	!	-1	0	0	0	0	0	0	0	0	0	0	0	0	0	0	0	0	0	0	0	0	0	0	0	0	0	0	0	0	0	0
070319	13:18:11	13:30:52	760721	5.0.10.0	5_exp_RW	11	Rpleas_acq	CS_A	LWWL	DXXD	YFFY	JQQJ	CPPC	ZHHZ	küssen	genießen	träumen	sonnig	gütig	vertrauen	krank	gemein	töten	sterben	gierig	versagen	1	acq_USpleas_CSpleas1_RW	acq4567_RW	6	2	400	1	300	300	379	50	0	1	1	blank2r.bmp	0	1	+	0	1	blank2r.bmp	492	1	LWWL	492	1	blank2r.bmp	572	3	träumen	866	1	!	1239	1	!	1279	0	0	0	0	0	0	0	0	0	0	0	0	0	0	0	0	0	0	0	0	0	0	0	0	0	0	0	0	0	0
070319	13:18:11	13:30:54	762800	5.0.10.0	5_exp_RW	11	Rpleas_acq	CS_A	LWWL	DXXD	YFFY	JQQJ	CPPC	ZHHZ	küssen	genießen	träumen	sonnig	gütig	vertrauen	krank	gemein	töten	sterben	gierig	versagen	1	acq_USpleas_CSpleas1_RW	acq4567_RW	6	3	400	0	300	300	307	50	0	1	1	blank2r.bmp	0	1	+	0	1	blank2r.bmp	492	1	LWWL	492	1	blank2r.bmp	572	1	küssen	866	1	!	-1	1	!	-1	0	0	0	0	0	0	0	0	0	0	0	0	0	0	0	0	0	0	0	0	0	0	0	0	0	0	0	0	0	0
070319	13:18:11	13:30:56	764959	5.0.10.0	5_exp_RW	11	Rpleas_acq	CS_A	LWWL	DXXD	YFFY	JQQJ	CPPC	ZHHZ	küssen	genießen	träumen	sonnig	gütig	vertrauen	krank	gemein	töten	sterben	gierig	versagen	1	acq_USpleas_CSpleas2_RW	acq4567_RW	6	4	400	1	300	300	358	50	0	1	1	blank2r.bmp	0	1	+	0	1	blank2r.bmp	492	1	DXXD	492	1	blank2r.bmp	572	3	vertrauen	866	1	!	1239	1	!	1252	0	0	0	0	0	0	0	0	0	0	0	0	0	0	0	0	0	0	0	0	0	0	0	0	0	0	0	0	0	0
070319	13:18:11	13:30:58	767185	5.0.10.0	5_exp_RW	11	Rpleas_acq	CS_A	LWWL	DXXD	YFFY	JQQJ	CPPC	ZHHZ	küssen	genießen	träumen	sonnig	gütig	vertrauen	krank	gemein	töten	sterben	gierig	versagen	1	acq_USunple_CSunple2_RW	acq4567_RW	6	5	400	1	300	300	430	50	0	0	1	blank2r.bmp	0	1	+	0	1	blank2r.bmp	492	1	JQQJ	492	1	blank2r.bmp	572	3	versagen	866	1	!	1239	1	!	1332	0	0	0	0	0	0	0	0	0	0	0	0	0	0	0	0	0	0	0	0	0	0	0	0	0	0	0	0	0	0
070319	13:18:11	13:31:01	769371	5.0.10.0	5_exp_RW	11	Rpleas_acq	CS_A	LWWL	DXXD	YFFY	JQQJ	CPPC	ZHHZ	küssen	genießen	träumen	sonnig	gütig	vertrauen	krank	gemein	töten	sterben	gierig	versagen	1	acq_USpleas_CSpleas2_RW	acq4567_RW	6	6	400	1	300	300	396	50	0	1	1	blank2r.bmp	0	1	+	0	1	blank2r.bmp	492	1	DXXD	492	1	blank2r.bmp	572	1	sonnig	866	1	!	1239	1	!	1292	0	0	0	0	0	0	0	0	0	0	0	0	0	0	0	0	0	0	0	0	0	0	0	0	0	0	0	0	0	0
070319	13:18:11	13:31:03	771530	5.0.10.0	5_exp_RW	11	Rpleas_acq	CS_A	LWWL	DXXD	YFFY	JQQJ	CPPC	ZHHZ	küssen	genießen	träumen	sonnig	gütig	vertrauen	krank	gemein	töten	sterben	gierig	versagen	1	acq_USunple_CSunple1_RW	acq4567_RW	6	7	400	1	300	300	364	46	0	1	1	blank2r.bmp	0	1	+	0	1	blank2r.bmp	492	1	YFFY	492	1	blank2r.bmp	572	2	gemein	866	1	!	1239	1	!	1266	0	0	0	0	0	0	0	0	0	0	0	0	0	0	0	0	0	0	0	0	0	0	0	0	0	0	0	0	0	0
070319	13:18:11	13:31:05	773756	5.0.10.0	5_exp_RW	11	Rpleas_acq	CS_A	LWWL	DXXD	YFFY	JQQJ	CPPC	ZHHZ	küssen	genießen	träumen	sonnig	gütig	vertrauen	krank	gemein	töten	sterben	gierig	versagen	1	acq_USunple_CSunple2_RW	acq4567_RW	6	8	400	1	300	300	424	46	0	1	1	blank2r.bmp	0	1	+	0	1	blank2r.bmp	492	1	JQQJ	492	1	blank2r.bmp	572	1	sterben	866	1	!	1239	1	!	1319	0	0	0	0	0	0	0	0	0	0	0	0	0	0	0	0	0	0	0	0	0	0	0	0	0	0	0	0	0	0
070319	13:18:11	13:31:07	776035	5.0.10.0	5_exp_RW	11	Rpleas_acq	CS_A	LWWL	DXXD	YFFY	JQQJ	CPPC	ZHHZ	küssen	genießen	träumen	sonnig	gütig	vertrauen	krank	gemein	töten	sterben	gierig	versagen	1	acq_USunple_CSunple2_RW	acq4567_RW	6	9	400	0	300	300	513	46	0	1	1	blank2r.bmp	0	1	+	0	1	blank2r.bmp	492	1	JQQJ	492	1	blank2r.bmp	572	2	gierig	866	1	!	1239	1	!	-1	0	0	0	0	0	0	0	0	0	0	0	0	0	0	0	0	0	0	0	0	0	0	0	0	0	0	0	0	0	0
070319	13:18:11	13:31:10	778207	5.0.10.0	5_exp_RW	11	Rpleas_acq	CS_A	LWWL	DXXD	YFFY	JQQJ	CPPC	ZHHZ	küssen	genießen	träumen	sonnig	gütig	vertrauen	krank	gemein	töten	sterben	gierig	versagen	1	acq_USpleas_CSpleas1_RW	acq4567_RW	6	10	400	1	300	300	368	50	0	1	1	blank2r.bmp	0	1	+	0	1	blank2r.bmp	492	1	LWWL	492	1	blank2r.bmp	572	2	genießen	866	1	!	1239	1	!	1266	0	0	0	0	0	0	0	0	0	0	0	0	0	0	0	0	0	0	0	0	0	0	0	0	0	0	0	0	0	0
070319	13:18:11	13:31:12	780446	5.0.10.0	5_exp_RW	11	Rpleas_acq	CS_A	LWWL	DXXD	YFFY	JQQJ	CPPC	ZHHZ	küssen	genießen	träumen	sonnig	gütig	vertrauen	krank	gemein	töten	sterben	gierig	versagen	1	acq_USunple_CSunple1_RW	acq4567_RW	6	11	400	1	300	300	429	46	0	1	1	blank2r.bmp	0	1	+	0	1	blank2r.bmp	492	1	YFFY	492	1	blank2r.bmp	572	3	töten	866	1	!	1239	1	!	1332	0	0	0	0	0	0	0	0	0	0	0	0	0	0	0	0	0	0	0	0	0	0	0	0	0	0	0	0	0	0
070319	13:18:11	13:31:14	782632	5.0.10.0	5_exp_RW	11	Rpleas_acq	CS_A	LWWL	DXXD	YFFY	JQQJ	CPPC	ZHHZ	küssen	genießen	träumen	sonnig	gütig	vertrauen	krank	gemein	töten	sterben	gierig	versagen	1	acq_USpleas_CSpleas1_RW	acq4567_RW	6	12	400	1	300	300	394	50	0	1	1	blank2r.bmp	0	1	+	0	1	blank2r.bmp	492	1	LWWL	492	1	blank2r.bmp	572	1	küssen	866	1	!	1239	1	!	1292	0	0	0	0	0	0	0	0	0	0	0	0	0	0	0	0	0	0	0	0	0	0	0	0	0	0	0	0	0	0
070319	13:18:11	13:31:16	784804	5.0.10.0	5_exp_RW	11	Rpleas_acq	CS_A	LWWL	DXXD	YFFY	JQQJ	CPPC	ZHHZ	küssen	genießen	träumen	sonnig	gütig	vertrauen	krank	gemein	töten	sterben	gierig	versagen	1	acq_USunple_CSunple1_RW	acq4567_RW	6	13	400	1	300	300	385	46	0	1	1	blank2r.bmp	0	1	+	0	1	blank2r.bmp	492	1	YFFY	492	1	blank2r.bmp	572	2	gemein	866	1	!	1239	1	!	1279	0	0	0	0	0	0	0	0	0	0	0	0	0	0	0	0	0	0	0	0	0	0	0	0	0	0	0	0	0	0
