date	time	script.currenttime	script.elapsedtime	build	script.currentexpt	subject	expressions.LRpleas_acq	expressions.conditionCS_A	expressions.CSpleas_1	expressions.CSpleas_2	expressions.CSunple_1	expressions.CSunple_2	expressions.distractor_1	expressions.distractor_2	expressions.US_pleas1	expressions.US_pleas2	expressions.US_pleas3	expressions.US_pleas4	expressions.US_pleas5	expressions.US_pleas6	expressions.US_unple1	expressions.US_unple2	expressions.US_unple3	expressions.US_unple4	expressions.US_unple5	expressions.US_unple6	counter.positions_noRW	trialcode	blockcode	blocknum	trialnum	windowcenter	inwindow	pretrialpause	posttrialpause	latency	response	expressions.correctedscore	correct	stimulusnumber1	stimulusitem1	stimulusonset1	stimulusnumber2	stimulusitem2	stimulusonset2	stimulusnumber3	stimulusitem3	stimulusonset3	stimulusnumber4	stimulusitem4	stimulusonset4	stimulusnumber5	stimulusitem5	stimulusonset5	stimulusnumber6	stimulusitem6	stimulusonset6	stimulusnumber7	stimulusitem7	stimulusonset7	stimulusnumber8	stimulusitem8	stimulusonset8	stimulusnumber9	stimulusitem9	stimulusonset9	stimulusnumber10	stimulusitem10	stimulusonset10	stimulusnumber11	stimulusitem11	stimulusonset11	stimulusnumber12	stimulusitem12	stimulusonset12	stimulusnumber13	stimulusitem13	stimulusonset13	stimulusnumber14	stimulusitem14	stimulusonset14	stimulusnumber15	stimulusitem15	stimulusonset15	stimulusnumber16	stimulusitem16	stimulusonset16	stimulusnumber17	stimulusitem17	stimulusonset17	stimulusnumber18	stimulusitem18	stimulusonset18
072319	13:33:04	13:34:15	70943	5.0.10.0	5_exp_RW	79	Rpleas_acq	CS_A	YFFY	JQQJ	LWWL	CPPC	DXXD	ZHHZ	vertrauen	genießen	gütig	träumen	sonnig	küssen	versagen	gemein	gierig	töten	sterben	krank	1	acq_USunple_CSunple2_RW	acq1_RW	1	1	0	0	300	300	69	50	0	0	1	blank2r.bmp	0	1	+	0	1	blank2r.bmp	492	1	CPPC	492	1	blank2r.bmp	572	2	sterben	866	1	FEHLER	972	0	0	0	0	0	0	0	0	0	0	0	0	0	0	0	0	0	0	0	0	0	0	0	0	0	0	0	0	0	0	0	0	0
072319	13:33:04	13:34:17	72662	5.0.10.0	5_exp_RW	79	Rpleas_acq	CS_A	YFFY	JQQJ	LWWL	CPPC	DXXD	ZHHZ	vertrauen	genießen	gütig	träumen	sonnig	küssen	versagen	gemein	gierig	töten	sterben	krank	1	acq_USpleas_CSpleas2_RW	acq1_RW	1	2	0	0	300	300	440	50	0	1	1	blank2r.bmp	0	1	+	0	1	blank2r.bmp	492	1	JQQJ	492	1	blank2r.bmp	572	3	küssen	866	0	0	0	0	0	0	0	0	0	0	0	0	0	0	0	0	0	0	0	0	0	0	0	0	0	0	0	0	0	0	0	0	0	0	0	0
072319	13:33:04	13:34:19	75208	5.0.10.0	5_exp_RW	79	Rpleas_acq	CS_A	YFFY	JQQJ	LWWL	CPPC	DXXD	ZHHZ	vertrauen	genießen	gütig	träumen	sonnig	küssen	versagen	gemein	gierig	töten	sterben	krank	1	acq_USpleas_CSpleas1_RW	acq1_RW	1	3	0	0	300	300	862	46	0	0	1	blank2r.bmp	0	1	+	0	1	blank2r.bmp	492	1	YFFY	492	1	blank2r.bmp	572	1	vertrauen	866	1	FEHLER	1759	0	0	0	0	0	0	0	0	0	0	0	0	0	0	0	0	0	0	0	0	0	0	0	0	0	0	0	0	0	0	0	0	0
072319	13:33:04	13:34:21	76927	5.0.10.0	5_exp_RW	79	Rpleas_acq	CS_A	YFFY	JQQJ	LWWL	CPPC	DXXD	ZHHZ	vertrauen	genießen	gütig	träumen	sonnig	küssen	versagen	gemein	gierig	töten	sterben	krank	1	acq_USpleas_CSpleas2_RW	acq1_RW	1	4	0	0	300	300	443	50	0	1	1	blank2r.bmp	0	1	+	0	1	blank2r.bmp	492	1	JQQJ	492	1	blank2r.bmp	572	2	sonnig	866	0	0	0	0	0	0	0	0	0	0	0	0	0	0	0	0	0	0	0	0	0	0	0	0	0	0	0	0	0	0	0	0	0	0	0	0
072319	13:33:04	13:34:23	78886	5.0.10.0	5_exp_RW	79	Rpleas_acq	CS_A	YFFY	JQQJ	LWWL	CPPC	DXXD	ZHHZ	vertrauen	genießen	gütig	träumen	sonnig	küssen	versagen	gemein	gierig	töten	sterben	krank	1	acq_USpleas_CSpleas1_RW	acq1_RW	1	5	0	0	300	300	482	50	0	1	1	blank2r.bmp	0	1	+	0	1	blank2r.bmp	492	1	YFFY	492	1	blank2r.bmp	572	2	genießen	866	0	0	0	0	0	0	0	0	0	0	0	0	0	0	0	0	0	0	0	0	0	0	0	0	0	0	0	0	0	0	0	0	0	0	0	0
072319	13:33:04	13:34:25	80726	5.0.10.0	5_exp_RW	79	Rpleas_acq	CS_A	YFFY	JQQJ	LWWL	CPPC	DXXD	ZHHZ	vertrauen	genießen	gütig	träumen	sonnig	küssen	versagen	gemein	gierig	töten	sterben	krank	1	acq_USunple_CSunple2_RW	acq1_RW	1	6	0	0	300	300	357	46	0	1	1	blank2r.bmp	0	1	+	0	1	blank2r.bmp	492	1	CPPC	492	1	blank2r.bmp	572	3	krank	866	0	0	0	0	0	0	0	0	0	0	0	0	0	0	0	0	0	0	0	0	0	0	0	0	0	0	0	0	0	0	0	0	0	0	0	0
072319	13:33:04	13:34:27	82618	5.0.10.0	5_exp_RW	79	Rpleas_acq	CS_A	YFFY	JQQJ	LWWL	CPPC	DXXD	ZHHZ	vertrauen	genießen	gütig	träumen	sonnig	küssen	versagen	gemein	gierig	töten	sterben	krank	1	acq_USunple_CSunple1_RW	acq1_RW	1	7	0	0	300	300	192	50	0	0	1	blank2r.bmp	0	1	+	0	1	blank2r.bmp	492	1	LWWL	492	1	blank2r.bmp	572	3	gierig	866	1	FEHLER	1092	0	0	0	0	0	0	0	0	0	0	0	0	0	0	0	0	0	0	0	0	0	0	0	0	0	0	0	0	0	0	0	0	0
072319	13:33:04	13:34:28	84297	5.0.10.0	5_exp_RW	79	Rpleas_acq	CS_A	YFFY	JQQJ	LWWL	CPPC	DXXD	ZHHZ	vertrauen	genießen	gütig	träumen	sonnig	küssen	versagen	gemein	gierig	töten	sterben	krank	1	acq_USpleas_CSpleas2_RW	acq1_RW	1	8	0	0	300	300	414	50	0	1	1	blank2r.bmp	0	1	+	0	1	blank2r.bmp	492	1	JQQJ	492	1	blank2r.bmp	572	1	träumen	866	0	0	0	0	0	0	0	0	0	0	0	0	0	0	0	0	0	0	0	0	0	0	0	0	0	0	0	0	0	0	0	0	0	0	0	0
072319	13:33:04	13:34:31	86683	5.0.10.0	5_exp_RW	79	Rpleas_acq	CS_A	YFFY	JQQJ	LWWL	CPPC	DXXD	ZHHZ	vertrauen	genießen	gütig	träumen	sonnig	küssen	versagen	gemein	gierig	töten	sterben	krank	1	acq_USunple_CSunple1_RW	acq1_RW	1	9	0	0	300	300	701	50	0	0	1	blank2r.bmp	0	1	+	0	1	blank2r.bmp	492	1	LWWL	492	1	blank2r.bmp	572	1	versagen	866	1	FEHLER	1599	0	0	0	0	0	0	0	0	0	0	0	0	0	0	0	0	0	0	0	0	0	0	0	0	0	0	0	0	0	0	0	0	0
072319	13:33:04	13:34:32	88336	5.0.10.0	5_exp_RW	79	Rpleas_acq	CS_A	YFFY	JQQJ	LWWL	CPPC	DXXD	ZHHZ	vertrauen	genießen	gütig	träumen	sonnig	küssen	versagen	gemein	gierig	töten	sterben	krank	1	acq_USunple_CSunple2_RW	acq1_RW	1	10	0	0	300	300	163	50	0	0	1	blank2r.bmp	0	1	+	0	1	blank2r.bmp	492	1	CPPC	492	1	blank2r.bmp	572	1	töten	866	1	FEHLER	1066	0	0	0	0	0	0	0	0	0	0	0	0	0	0	0	0	0	0	0	0	0	0	0	0	0	0	0	0	0	0	0	0	0
072319	13:33:04	13:34:34	89868	5.0.10.0	5_exp_RW	79	Rpleas_acq	CS_A	YFFY	JQQJ	LWWL	CPPC	DXXD	ZHHZ	vertrauen	genießen	gütig	träumen	sonnig	küssen	versagen	gemein	gierig	töten	sterben	krank	1	acq_USpleas_CSpleas1_RW	acq1_RW	1	11	0	0	300	300	39	46	0	0	1	blank2r.bmp	0	1	+	0	1	blank2r.bmp	492	1	YFFY	492	1	blank2r.bmp	572	3	gütig	866	1	FEHLER	946	0	0	0	0	0	0	0	0	0	0	0	0	0	0	0	0	0	0	0	0	0	0	0	0	0	0	0	0	0	0	0	0	0
072319	13:33:04	13:34:35	91334	5.0.10.0	5_exp_RW	79	Rpleas_acq	CS_A	YFFY	JQQJ	LWWL	CPPC	DXXD	ZHHZ	vertrauen	genießen	gütig	träumen	sonnig	küssen	versagen	gemein	gierig	töten	sterben	krank	1	acq_USpleas_CSpleas2_RW	acq1_RW	1	12	0	0	300	300	211	50	0	1	1	blank2r.bmp	0	1	+	0	1	blank2r.bmp	492	1	JQQJ	492	1	blank2r.bmp	572	3	küssen	866	0	0	0	0	0	0	0	0	0	0	0	0	0	0	0	0	0	0	0	0	0	0	0	0	0	0	0	0	0	0	0	0	0	0	0	0
072319	13:33:04	13:34:38	93440	5.0.10.0	5_exp_RW	79	Rpleas_acq	CS_A	YFFY	JQQJ	LWWL	CPPC	DXXD	ZHHZ	vertrauen	genießen	gütig	träumen	sonnig	küssen	versagen	gemein	gierig	töten	sterben	krank	1	acq_USunple_CSunple1_RW	acq1_RW	1	13	0	0	300	300	399	50	0	0	1	blank2r.bmp	0	1	+	0	1	blank2r.bmp	492	1	LWWL	492	1	blank2r.bmp	572	2	gemein	866	1	FEHLER	1306	0	0	0	0	0	0	0	0	0	0	0	0	0	0	0	0	0	0	0	0	0	0	0	0	0	0	0	0	0	0	0	0	0
072319	13:33:04	13:34:39	95119	5.0.10.0	5_exp_RW	79	Rpleas_acq	CS_A	YFFY	JQQJ	LWWL	CPPC	DXXD	ZHHZ	vertrauen	genießen	gütig	träumen	sonnig	küssen	versagen	gemein	gierig	töten	sterben	krank	1	acq_USunple_CSunple2_RW	acq1_RW	1	14	0	0	300	300	204	50	0	0	1	blank2r.bmp	0	1	+	0	1	blank2r.bmp	492	1	CPPC	492	1	blank2r.bmp	572	1	töten	866	1	FEHLER	1106	0	0	0	0	0	0	0	0	0	0	0	0	0	0	0	0	0	0	0	0	0	0	0	0	0	0	0	0	0	0	0	0	0
072319	13:33:04	13:34:41	96852	5.0.10.0	5_exp_RW	79	Rpleas_acq	CS_A	YFFY	JQQJ	LWWL	CPPC	DXXD	ZHHZ	vertrauen	genießen	gütig	träumen	sonnig	küssen	versagen	gemein	gierig	töten	sterben	krank	1	acq_USunple_CSunple1_RW	acq1_RW	1	15	0	0	300	300	250	50	0	0	1	blank2r.bmp	0	1	+	0	1	blank2r.bmp	492	1	LWWL	492	1	blank2r.bmp	572	1	versagen	866	1	FEHLER	1146	0	0	0	0	0	0	0	0	0	0	0	0	0	0	0	0	0	0	0	0	0	0	0	0	0	0	0	0	0	0	0	0	0
072319	13:33:04	13:34:43	98411	5.0.10.0	5_exp_RW	79	Rpleas_acq	CS_A	YFFY	JQQJ	LWWL	CPPC	DXXD	ZHHZ	vertrauen	genießen	gütig	träumen	sonnig	küssen	versagen	gemein	gierig	töten	sterben	krank	1	acq_USpleas_CSpleas1_RW	acq1_RW	1	16	0	0	300	300	286	50	0	1	1	blank2r.bmp	0	1	+	0	1	blank2r.bmp	492	1	YFFY	492	1	blank2r.bmp	572	3	gütig	866	0	0	0	0	0	0	0	0	0	0	0	0	0	0	0	0	0	0	0	0	0	0	0	0	0	0	0	0	0	0	0	0	0	0	0	0
072319	13:33:04	13:34:50	105635	5.0.10.0	5_exp_RW	79	Rpleas_acq	CS_A	YFFY	JQQJ	LWWL	CPPC	DXXD	ZHHZ	vertrauen	genießen	gütig	träumen	sonnig	küssen	versagen	gemein	gierig	töten	sterben	krank	1	acq_USpleas_CSpleas1_RW	acq2_RW	2	1	480	0	300	300	72	50	0	1	1	blank2r.bmp	0	1	+	0	1	blank2r.bmp	492	1	YFFY	492	1	blank2r.bmp	572	2	genießen	866	1	!	-1	1	!	-1	0	0	0	0	0	0	0	0	0	0	0	0	0	0	0	0	0	0	0	0	0	0	0	0	0	0	0	0	0	0
072319	13:33:04	13:34:52	107861	5.0.10.0	5_exp_RW	79	Rpleas_acq	CS_A	YFFY	JQQJ	LWWL	CPPC	DXXD	ZHHZ	vertrauen	genießen	gütig	träumen	sonnig	küssen	versagen	gemein	gierig	töten	sterben	krank	1	acq_USunple_CSunple2_RW	acq2_RW	2	2	480	0	300	300	213	50	0	0	1	blank2r.bmp	0	1	+	0	1	blank2r.bmp	492	1	CPPC	492	1	blank2r.bmp	572	2	sterben	866	1	FEHLER	1426	1	!	-1	1	!	-1	0	0	0	0	0	0	0	0	0	0	0	0	0	0	0	0	0	0	0	0	0	0	0	0	0	0	0
072319	13:33:04	13:34:54	109967	5.0.10.0	5_exp_RW	79	Rpleas_acq	CS_A	YFFY	JQQJ	LWWL	CPPC	DXXD	ZHHZ	vertrauen	genießen	gütig	träumen	sonnig	küssen	versagen	gemein	gierig	töten	sterben	krank	1	acq_USunple_CSunple2_RW	acq2_RW	2	3	480	0	300	300	331	50	0	0	1	blank2r.bmp	0	1	+	0	1	blank2r.bmp	492	1	CPPC	492	1	blank2r.bmp	572	3	krank	866	1	FEHLER	1532	1	!	-1	1	!	-1	0	0	0	0	0	0	0	0	0	0	0	0	0	0	0	0	0	0	0	0	0	0	0	0	0	0	0
072319	13:33:04	13:34:56	111832	5.0.10.0	5_exp_RW	79	Rpleas_acq	CS_A	YFFY	JQQJ	LWWL	CPPC	DXXD	ZHHZ	vertrauen	genießen	gütig	träumen	sonnig	küssen	versagen	gemein	gierig	töten	sterben	krank	1	acq_USpleas_CSpleas1_RW	acq2_RW	2	4	480	0	300	300	85	46	0	0	1	blank2r.bmp	0	1	+	0	1	blank2r.bmp	492	1	YFFY	492	1	blank2r.bmp	572	1	vertrauen	866	1	FEHLER	1292	1	!	-1	1	!	-1	0	0	0	0	0	0	0	0	0	0	0	0	0	0	0	0	0	0	0	0	0	0	0	0	0	0	0
072319	13:33:04	13:34:58	113565	5.0.10.0	5_exp_RW	79	Rpleas_acq	CS_A	YFFY	JQQJ	LWWL	CPPC	DXXD	ZHHZ	vertrauen	genießen	gütig	träumen	sonnig	küssen	versagen	gemein	gierig	töten	sterben	krank	1	acq_USpleas_CSpleas2_RW	acq2_RW	2	5	480	0	300	300	167	50	0	1	1	blank2r.bmp	0	1	+	0	1	blank2r.bmp	492	1	JQQJ	492	1	blank2r.bmp	572	1	träumen	866	1	!	-1	1	!	-1	0	0	0	0	0	0	0	0	0	0	0	0	0	0	0	0	0	0	0	0	0	0	0	0	0	0	0	0	0	0
072319	13:33:04	13:35:00	115884	5.0.10.0	5_exp_RW	79	Rpleas_acq	CS_A	YFFY	JQQJ	LWWL	CPPC	DXXD	ZHHZ	vertrauen	genießen	gütig	träumen	sonnig	küssen	versagen	gemein	gierig	töten	sterben	krank	1	acq_USunple_CSunple1_RW	acq2_RW	2	6	480	0	300	300	315	50	0	0	1	blank2r.bmp	0	1	+	0	1	blank2r.bmp	492	1	LWWL	492	1	blank2r.bmp	572	2	gemein	866	1	FEHLER	1519	1	!	-1	1	!	-1	0	0	0	0	0	0	0	0	0	0	0	0	0	0	0	0	0	0	0	0	0	0	0	0	0	0	0
072319	13:33:04	13:35:02	117603	5.0.10.0	5_exp_RW	79	Rpleas_acq	CS_A	YFFY	JQQJ	LWWL	CPPC	DXXD	ZHHZ	vertrauen	genießen	gütig	träumen	sonnig	küssen	versagen	gemein	gierig	töten	sterben	krank	1	acq_USunple_CSunple1_RW	acq2_RW	2	7	480	0	300	300	160	46	0	1	1	blank2r.bmp	0	1	+	0	1	blank2r.bmp	492	1	LWWL	492	1	blank2r.bmp	572	3	gierig	866	1	!	-1	1	!	-1	0	0	0	0	0	0	0	0	0	0	0	0	0	0	0	0	0	0	0	0	0	0	0	0	0	0	0	0	0	0
072319	13:33:04	13:35:04	119549	5.0.10.0	5_exp_RW	79	Rpleas_acq	CS_A	YFFY	JQQJ	LWWL	CPPC	DXXD	ZHHZ	vertrauen	genießen	gütig	träumen	sonnig	küssen	versagen	gemein	gierig	töten	sterben	krank	1	acq_USunple_CSunple2_RW	acq2_RW	2	8	480	0	300	300	171	46	0	1	1	blank2r.bmp	0	1	+	0	1	blank2r.bmp	492	1	CPPC	492	1	blank2r.bmp	572	1	töten	866	1	!	-1	1	!	-1	0	0	0	0	0	0	0	0	0	0	0	0	0	0	0	0	0	0	0	0	0	0	0	0	0	0	0	0	0	0
072319	13:33:04	13:35:06	121615	5.0.10.0	5_exp_RW	79	Rpleas_acq	CS_A	YFFY	JQQJ	LWWL	CPPC	DXXD	ZHHZ	vertrauen	genießen	gütig	träumen	sonnig	küssen	versagen	gemein	gierig	töten	sterben	krank	1	acq_USunple_CSunple1_RW	acq2_RW	2	9	480	0	300	300	289	46	0	1	1	blank2r.bmp	0	1	+	0	1	blank2r.bmp	492	1	LWWL	492	1	blank2r.bmp	572	3	gierig	866	1	!	-1	1	!	-1	0	0	0	0	0	0	0	0	0	0	0	0	0	0	0	0	0	0	0	0	0	0	0	0	0	0	0	0	0	0
072319	13:33:04	13:35:08	123947	5.0.10.0	5_exp_RW	79	Rpleas_acq	CS_A	YFFY	JQQJ	LWWL	CPPC	DXXD	ZHHZ	vertrauen	genießen	gütig	träumen	sonnig	küssen	versagen	gemein	gierig	töten	sterben	krank	1	acq_USunple_CSunple1_RW	acq2_RW	2	10	480	0	300	300	325	50	0	0	1	blank2r.bmp	0	1	+	0	1	blank2r.bmp	492	1	LWWL	492	1	blank2r.bmp	572	1	versagen	866	1	FEHLER	1532	1	!	-1	1	!	-1	0	0	0	0	0	0	0	0	0	0	0	0	0	0	0	0	0	0	0	0	0	0	0	0	0	0	0
072319	13:33:04	13:35:10	125760	5.0.10.0	5_exp_RW	79	Rpleas_acq	CS_A	YFFY	JQQJ	LWWL	CPPC	DXXD	ZHHZ	vertrauen	genießen	gütig	träumen	sonnig	küssen	versagen	gemein	gierig	töten	sterben	krank	1	acq_USunple_CSunple2_RW	acq2_RW	2	11	480	0	300	300	257	46	0	1	1	blank2r.bmp	0	1	+	0	1	blank2r.bmp	492	1	CPPC	492	1	blank2r.bmp	572	2	sterben	866	1	!	-1	1	!	-1	0	0	0	0	0	0	0	0	0	0	0	0	0	0	0	0	0	0	0	0	0	0	0	0	0	0	0	0	0	0
072319	13:33:04	13:35:12	127852	5.0.10.0	5_exp_RW	79	Rpleas_acq	CS_A	YFFY	JQQJ	LWWL	CPPC	DXXD	ZHHZ	vertrauen	genießen	gütig	träumen	sonnig	küssen	versagen	gemein	gierig	töten	sterben	krank	1	acq_USunple_CSunple1_RW	acq2_RW	2	12	480	0	300	300	101	50	0	0	1	blank2r.bmp	0	1	+	0	1	blank2r.bmp	492	1	LWWL	492	1	blank2r.bmp	572	2	gemein	866	1	FEHLER	1306	1	!	-1	1	!	-1	0	0	0	0	0	0	0	0	0	0	0	0	0	0	0	0	0	0	0	0	0	0	0	0	0	0	0
072319	13:33:04	13:35:14	129732	5.0.10.0	5_exp_RW	79	Rpleas_acq	CS_A	YFFY	JQQJ	LWWL	CPPC	DXXD	ZHHZ	vertrauen	genießen	gütig	träumen	sonnig	küssen	versagen	gemein	gierig	töten	sterben	krank	1	acq_USpleas_CSpleas2_RW	acq2_RW	2	13	480	0	300	300	81	46	0	0	1	blank2r.bmp	0	1	+	0	1	blank2r.bmp	492	1	JQQJ	492	1	blank2r.bmp	572	2	sonnig	866	1	FEHLER	1292	1	!	-1	1	!	-1	0	0	0	0	0	0	0	0	0	0	0	0	0	0	0	0	0	0	0	0	0	0	0	0	0	0	0
072319	13:33:04	13:35:15	131304	5.0.10.0	5_exp_RW	79	Rpleas_acq	CS_A	YFFY	JQQJ	LWWL	CPPC	DXXD	ZHHZ	vertrauen	genießen	gütig	träumen	sonnig	küssen	versagen	gemein	gierig	töten	sterben	krank	1	acq_USpleas_CSpleas1_RW	acq2_RW	2	14	480	0	300	300	20	50	0	1	1	blank2r.bmp	0	1	+	0	1	blank2r.bmp	492	1	YFFY	492	1	blank2r.bmp	572	1	vertrauen	866	1	!	-1	1	!	-1	0	0	0	0	0	0	0	0	0	0	0	0	0	0	0	0	0	0	0	0	0	0	0	0	0	0	0	0	0	0
072319	13:33:04	13:35:18	133450	5.0.10.0	5_exp_RW	79	Rpleas_acq	CS_A	YFFY	JQQJ	LWWL	CPPC	DXXD	ZHHZ	vertrauen	genießen	gütig	träumen	sonnig	küssen	versagen	gemein	gierig	töten	sterben	krank	1	acq_USunple_CSunple2_RW	acq2_RW	2	15	480	0	300	300	135	50	0	0	1	blank2r.bmp	0	1	+	0	1	blank2r.bmp	492	1	CPPC	492	1	blank2r.bmp	572	3	krank	866	1	FEHLER	1346	1	!	-1	1	!	-1	0	0	0	0	0	0	0	0	0	0	0	0	0	0	0	0	0	0	0	0	0	0	0	0	0	0	0
072319	13:33:04	13:35:20	135556	5.0.10.0	5_exp_RW	79	Rpleas_acq	CS_A	YFFY	JQQJ	LWWL	CPPC	DXXD	ZHHZ	vertrauen	genießen	gütig	träumen	sonnig	küssen	versagen	gemein	gierig	töten	sterben	krank	1	acq_USunple_CSunple1_RW	acq2_RW	2	16	480	0	300	300	330	50	0	0	1	blank2r.bmp	0	1	+	0	1	blank2r.bmp	492	1	LWWL	492	1	blank2r.bmp	572	3	gierig	866	1	FEHLER	1532	1	!	-1	1	!	-1	0	0	0	0	0	0	0	0	0	0	0	0	0	0	0	0	0	0	0	0	0	0	0	0	0	0	0
072319	13:33:04	13:35:21	137155	5.0.10.0	5_exp_RW	79	Rpleas_acq	CS_A	YFFY	JQQJ	LWWL	CPPC	DXXD	ZHHZ	vertrauen	genießen	gütig	träumen	sonnig	küssen	versagen	gemein	gierig	töten	sterben	krank	1	acq_USpleas_CSpleas2_RW	acq2_RW	2	17	480	0	300	300	43	50	0	1	1	blank2r.bmp	0	1	+	0	1	blank2r.bmp	492	1	JQQJ	492	1	blank2r.bmp	572	2	sonnig	866	1	!	-1	1	!	-1	0	0	0	0	0	0	0	0	0	0	0	0	0	0	0	0	0	0	0	0	0	0	0	0	0	0	0	0	0	0
072319	13:33:04	13:35:24	139728	5.0.10.0	5_exp_RW	79	Rpleas_acq	CS_A	YFFY	JQQJ	LWWL	CPPC	DXXD	ZHHZ	vertrauen	genießen	gütig	träumen	sonnig	küssen	versagen	gemein	gierig	töten	sterben	krank	1	acq_USpleas_CSpleas2_RW	acq2_RW	2	18	480	0	300	300	566	46	0	0	1	blank2r.bmp	0	1	+	0	1	blank2r.bmp	492	1	JQQJ	492	1	blank2r.bmp	572	1	träumen	866	1	FEHLER	1772	1	!	1319	1	!	-1	0	0	0	0	0	0	0	0	0	0	0	0	0	0	0	0	0	0	0	0	0	0	0	0	0	0	0
072319	13:33:04	13:35:26	141447	5.0.10.0	5_exp_RW	79	Rpleas_acq	CS_A	YFFY	JQQJ	LWWL	CPPC	DXXD	ZHHZ	vertrauen	genießen	gütig	träumen	sonnig	küssen	versagen	gemein	gierig	töten	sterben	krank	1	acq_USpleas_CSpleas2_RW	acq2_RW	2	19	480	0	300	300	160	50	0	1	1	blank2r.bmp	0	1	+	0	1	blank2r.bmp	492	1	JQQJ	492	1	blank2r.bmp	572	3	küssen	866	1	!	-1	1	!	-1	0	0	0	0	0	0	0	0	0	0	0	0	0	0	0	0	0	0	0	0	0	0	0	0	0	0	0	0	0	0
072319	13:33:04	13:35:28	143459	5.0.10.0	5_exp_RW	79	Rpleas_acq	CS_A	YFFY	JQQJ	LWWL	CPPC	DXXD	ZHHZ	vertrauen	genießen	gütig	träumen	sonnig	küssen	versagen	gemein	gierig	töten	sterben	krank	1	acq_USpleas_CSpleas1_RW	acq2_RW	2	20	480	0	300	300	213	50	0	1	1	blank2r.bmp	0	1	+	0	1	blank2r.bmp	492	1	YFFY	492	1	blank2r.bmp	572	3	gütig	866	1	!	-1	1	!	-1	0	0	0	0	0	0	0	0	0	0	0	0	0	0	0	0	0	0	0	0	0	0	0	0	0	0	0	0	0	0
072319	13:33:04	13:35:30	145818	5.0.10.0	5_exp_RW	79	Rpleas_acq	CS_A	YFFY	JQQJ	LWWL	CPPC	DXXD	ZHHZ	vertrauen	genießen	gütig	träumen	sonnig	küssen	versagen	gemein	gierig	töten	sterben	krank	1	acq_USpleas_CSpleas2_RW	acq2_RW	2	21	480	1	300	300	541	50	0	1	1	blank2r.bmp	0	1	+	0	1	blank2r.bmp	492	1	JQQJ	492	1	blank2r.bmp	572	1	träumen	866	1	!	1319	1	!	1439	0	0	0	0	0	0	0	0	0	0	0	0	0	0	0	0	0	0	0	0	0	0	0	0	0	0	0	0	0	0
072319	13:33:04	13:35:32	147591	5.0.10.0	5_exp_RW	79	Rpleas_acq	CS_A	YFFY	JQQJ	LWWL	CPPC	DXXD	ZHHZ	vertrauen	genießen	gütig	träumen	sonnig	küssen	versagen	gemein	gierig	töten	sterben	krank	1	acq_USpleas_CSpleas1_RW	acq2_RW	2	22	480	0	300	300	4	50	0	1	1	blank2r.bmp	0	1	+	0	1	blank2r.bmp	492	1	YFFY	492	1	blank2r.bmp	572	2	genießen	866	1	!	-1	1	!	-1	0	0	0	0	0	0	0	0	0	0	0	0	0	0	0	0	0	0	0	0	0	0	0	0	0	0	0	0	0	0
072319	13:33:04	13:35:34	149697	5.0.10.0	5_exp_RW	79	Rpleas_acq	CS_A	YFFY	JQQJ	LWWL	CPPC	DXXD	ZHHZ	vertrauen	genießen	gütig	träumen	sonnig	küssen	versagen	gemein	gierig	töten	sterben	krank	1	acq_USpleas_CSpleas1_RW	acq2_RW	2	23	480	0	300	300	324	50	0	1	1	blank2r.bmp	0	1	+	0	1	blank2r.bmp	492	1	YFFY	492	1	blank2r.bmp	572	1	vertrauen	866	1	!	-1	1	!	-1	0	0	0	0	0	0	0	0	0	0	0	0	0	0	0	0	0	0	0	0	0	0	0	0	0	0	0	0	0	0
072319	13:33:04	13:35:36	151842	5.0.10.0	5_exp_RW	79	Rpleas_acq	CS_A	YFFY	JQQJ	LWWL	CPPC	DXXD	ZHHZ	vertrauen	genießen	gütig	träumen	sonnig	küssen	versagen	gemein	gierig	töten	sterben	krank	1	acq_USunple_CSunple2_RW	acq2_RW	2	24	480	0	300	300	136	50	0	0	1	blank2r.bmp	0	1	+	0	1	blank2r.bmp	492	1	CPPC	492	1	blank2r.bmp	572	2	sterben	866	1	FEHLER	1346	1	!	-1	1	!	-1	0	0	0	0	0	0	0	0	0	0	0	0	0	0	0	0	0	0	0	0	0	0	0	0	0	0	0
072319	13:33:04	13:35:44	159999	5.0.10.0	5_exp_RW	79	Rpleas_acq	CS_A	YFFY	JQQJ	LWWL	CPPC	DXXD	ZHHZ	vertrauen	genießen	gütig	träumen	sonnig	küssen	versagen	gemein	gierig	töten	sterben	krank	1	acq_USpleas_CSpleas2_RW	acq3_RW	3	1	453	0	300	300	146	50	0	1	1	blank2r.bmp	0	1	+	0	1	blank2r.bmp	492	1	JQQJ	492	1	blank2r.bmp	572	3	küssen	866	1	!	-1	1	!	-1	0	0	0	0	0	0	0	0	0	0	0	0	0	0	0	0	0	0	0	0	0	0	0	0	0	0	0	0	0	0
072319	13:33:04	13:35:46	162145	5.0.10.0	5_exp_RW	79	Rpleas_acq	CS_A	YFFY	JQQJ	LWWL	CPPC	DXXD	ZHHZ	vertrauen	genießen	gütig	träumen	sonnig	küssen	versagen	gemein	gierig	töten	sterben	krank	1	acq_USpleas_CSpleas1_RW	acq3_RW	3	2	453	0	300	300	365	50	0	1	1	blank2r.bmp	0	1	+	0	1	blank2r.bmp	492	1	YFFY	492	1	blank2r.bmp	572	2	genießen	866	1	!	-1	1	!	-1	0	0	0	0	0	0	0	0	0	0	0	0	0	0	0	0	0	0	0	0	0	0	0	0	0	0	0	0	0	0
072319	13:33:04	13:35:48	163997	5.0.10.0	5_exp_RW	79	Rpleas_acq	CS_A	YFFY	JQQJ	LWWL	CPPC	DXXD	ZHHZ	vertrauen	genießen	gütig	träumen	sonnig	küssen	versagen	gemein	gierig	töten	sterben	krank	1	acq_USpleas_CSpleas1_RW	acq3_RW	3	3	453	0	300	300	68	50	0	1	1	blank2r.bmp	0	1	+	0	1	blank2r.bmp	492	1	YFFY	492	1	blank2r.bmp	572	3	gütig	866	1	!	-1	1	!	-1	0	0	0	0	0	0	0	0	0	0	0	0	0	0	0	0	0	0	0	0	0	0	0	0	0	0	0	0	0	0
072319	13:33:04	13:35:50	165877	5.0.10.0	5_exp_RW	79	Rpleas_acq	CS_A	YFFY	JQQJ	LWWL	CPPC	DXXD	ZHHZ	vertrauen	genießen	gütig	träumen	sonnig	küssen	versagen	gemein	gierig	töten	sterben	krank	1	acq_USpleas_CSpleas2_RW	acq3_RW	3	4	453	0	300	300	92	50	0	1	1	blank2r.bmp	0	1	+	0	1	blank2r.bmp	492	1	JQQJ	492	1	blank2r.bmp	572	2	sonnig	866	1	!	-1	1	!	-1	0	0	0	0	0	0	0	0	0	0	0	0	0	0	0	0	0	0	0	0	0	0	0	0	0	0	0	0	0	0
072319	13:33:04	13:35:52	167729	5.0.10.0	5_exp_RW	79	Rpleas_acq	CS_A	YFFY	JQQJ	LWWL	CPPC	DXXD	ZHHZ	vertrauen	genießen	gütig	träumen	sonnig	küssen	versagen	gemein	gierig	töten	sterben	krank	1	acq_USpleas_CSpleas1_RW	acq3_RW	3	5	453	0	300	300	83	50	0	1	1	blank2r.bmp	0	1	+	0	1	blank2r.bmp	492	1	YFFY	492	1	blank2r.bmp	572	2	genießen	866	1	!	-1	1	!	-1	0	0	0	0	0	0	0	0	0	0	0	0	0	0	0	0	0	0	0	0	0	0	0	0	0	0	0	0	0	0
072319	13:33:04	13:35:54	169955	5.0.10.0	5_exp_RW	79	Rpleas_acq	CS_A	YFFY	JQQJ	LWWL	CPPC	DXXD	ZHHZ	vertrauen	genießen	gütig	träumen	sonnig	küssen	versagen	gemein	gierig	töten	sterben	krank	1	acq_USunple_CSunple2_RW	acq3_RW	3	6	453	0	300	300	211	50	0	0	1	blank2r.bmp	0	1	+	0	1	blank2r.bmp	492	1	CPPC	492	1	blank2r.bmp	572	1	töten	866	1	FEHLER	1426	1	!	-1	1	!	-1	0	0	0	0	0	0	0	0	0	0	0	0	0	0	0	0	0	0	0	0	0	0	0	0	0	0	0
072319	13:33:04	13:35:56	171701	5.0.10.0	5_exp_RW	79	Rpleas_acq	CS_A	YFFY	JQQJ	LWWL	CPPC	DXXD	ZHHZ	vertrauen	genießen	gütig	träumen	sonnig	küssen	versagen	gemein	gierig	töten	sterben	krank	1	acq_USpleas_CSpleas2_RW	acq3_RW	3	7	453	0	300	300	190	50	0	1	1	blank2r.bmp	0	1	+	0	1	blank2r.bmp	492	1	JQQJ	492	1	blank2r.bmp	572	1	träumen	866	1	!	-1	1	!	-1	0	0	0	0	0	0	0	0	0	0	0	0	0	0	0	0	0	0	0	0	0	0	0	0	0	0	0	0	0	0
072319	13:33:04	13:35:58	173633	5.0.10.0	5_exp_RW	79	Rpleas_acq	CS_A	YFFY	JQQJ	LWWL	CPPC	DXXD	ZHHZ	vertrauen	genießen	gütig	träumen	sonnig	küssen	versagen	gemein	gierig	töten	sterben	krank	1	acq_USunple_CSunple1_RW	acq3_RW	3	8	453	0	300	300	147	46	0	1	1	blank2r.bmp	0	1	+	0	1	blank2r.bmp	492	1	LWWL	492	1	blank2r.bmp	572	1	versagen	866	1	!	-1	1	!	-1	0	0	0	0	0	0	0	0	0	0	0	0	0	0	0	0	0	0	0	0	0	0	0	0	0	0	0	0	0	0
072319	13:33:04	13:36:00	175819	5.0.10.0	5_exp_RW	79	Rpleas_acq	CS_A	YFFY	JQQJ	LWWL	CPPC	DXXD	ZHHZ	vertrauen	genießen	gütig	träumen	sonnig	küssen	versagen	gemein	gierig	töten	sterben	krank	1	acq_USunple_CSunple2_RW	acq3_RW	3	9	453	0	300	300	171	50	0	0	1	blank2r.bmp	0	1	+	0	1	blank2r.bmp	492	1	CPPC	492	1	blank2r.bmp	572	3	krank	866	1	FEHLER	1386	1	!	-1	1	!	-1	0	0	0	0	0	0	0	0	0	0	0	0	0	0	0	0	0	0	0	0	0	0	0	0	0	0	0
072319	13:33:04	13:36:02	177485	5.0.10.0	5_exp_RW	79	Rpleas_acq	CS_A	YFFY	JQQJ	LWWL	CPPC	DXXD	ZHHZ	vertrauen	genießen	gütig	träumen	sonnig	küssen	versagen	gemein	gierig	töten	sterben	krank	1	acq_USpleas_CSpleas1_RW	acq3_RW	3	10	453	0	300	300	108	50	0	1	1	blank2r.bmp	0	1	+	0	1	blank2r.bmp	492	1	YFFY	492	1	blank2r.bmp	572	3	gütig	866	1	!	-1	1	!	-1	0	0	0	0	0	0	0	0	0	0	0	0	0	0	0	0	0	0	0	0	0	0	0	0	0	0	0	0	0	0
072319	13:33:04	13:36:04	179617	5.0.10.0	5_exp_RW	79	Rpleas_acq	CS_A	YFFY	JQQJ	LWWL	CPPC	DXXD	ZHHZ	vertrauen	genießen	gütig	träumen	sonnig	küssen	versagen	gemein	gierig	töten	sterben	krank	1	acq_USunple_CSunple2_RW	acq3_RW	3	11	453	0	300	300	119	50	0	0	1	blank2r.bmp	0	1	+	0	1	blank2r.bmp	492	1	CPPC	492	1	blank2r.bmp	572	3	krank	866	1	FEHLER	1332	1	!	-1	1	!	-1	0	0	0	0	0	0	0	0	0	0	0	0	0	0	0	0	0	0	0	0	0	0	0	0	0	0	0
072319	13:33:04	13:36:06	181523	5.0.10.0	5_exp_RW	79	Rpleas_acq	CS_A	YFFY	JQQJ	LWWL	CPPC	DXXD	ZHHZ	vertrauen	genießen	gütig	träumen	sonnig	küssen	versagen	gemein	gierig	töten	sterben	krank	1	acq_USunple_CSunple1_RW	acq3_RW	3	12	453	0	300	300	124	50	0	0	1	blank2r.bmp	0	1	+	0	1	blank2r.bmp	492	1	LWWL	492	1	blank2r.bmp	572	2	gemein	866	1	FEHLER	1332	1	!	-1	1	!	-1	0	0	0	0	0	0	0	0	0	0	0	0	0	0	0	0	0	0	0	0	0	0	0	0	0	0	0
072319	13:33:04	13:36:07	183349	5.0.10.0	5_exp_RW	79	Rpleas_acq	CS_A	YFFY	JQQJ	LWWL	CPPC	DXXD	ZHHZ	vertrauen	genießen	gütig	träumen	sonnig	küssen	versagen	gemein	gierig	töten	sterben	krank	1	acq_USunple_CSunple1_RW	acq3_RW	3	13	453	0	300	300	41	50	0	0	1	blank2r.bmp	0	1	+	0	1	blank2r.bmp	492	1	LWWL	492	1	blank2r.bmp	572	1	versagen	866	1	FEHLER	1252	1	!	-1	1	!	-1	0	0	0	0	0	0	0	0	0	0	0	0	0	0	0	0	0	0	0	0	0	0	0	0	0	0	0
072319	13:33:04	13:36:09	184989	5.0.10.0	5_exp_RW	79	Rpleas_acq	CS_A	YFFY	JQQJ	LWWL	CPPC	DXXD	ZHHZ	vertrauen	genießen	gütig	träumen	sonnig	küssen	versagen	gemein	gierig	töten	sterben	krank	1	acq_USpleas_CSpleas2_RW	acq3_RW	3	14	453	0	300	300	84	50	0	1	1	blank2r.bmp	0	1	+	0	1	blank2r.bmp	492	1	JQQJ	492	1	blank2r.bmp	572	2	sonnig	866	1	!	-1	1	!	-1	0	0	0	0	0	0	0	0	0	0	0	0	0	0	0	0	0	0	0	0	0	0	0	0	0	0	0	0	0	0
072319	13:33:04	13:36:11	187254	5.0.10.0	5_exp_RW	79	Rpleas_acq	CS_A	YFFY	JQQJ	LWWL	CPPC	DXXD	ZHHZ	vertrauen	genießen	gütig	träumen	sonnig	küssen	versagen	gemein	gierig	töten	sterben	krank	1	acq_USunple_CSunple2_RW	acq3_RW	3	15	453	0	300	300	261	50	0	0	1	blank2r.bmp	0	1	+	0	1	blank2r.bmp	492	1	CPPC	492	1	blank2r.bmp	572	2	sterben	866	1	FEHLER	1466	1	!	-1	1	!	-1	0	0	0	0	0	0	0	0	0	0	0	0	0	0	0	0	0	0	0	0	0	0	0	0	0	0	0
072319	13:33:04	13:36:13	189373	5.0.10.0	5_exp_RW	79	Rpleas_acq	CS_A	YFFY	JQQJ	LWWL	CPPC	DXXD	ZHHZ	vertrauen	genießen	gütig	träumen	sonnig	küssen	versagen	gemein	gierig	töten	sterben	krank	1	acq_USunple_CSunple2_RW	acq3_RW	3	16	453	0	300	300	347	50	0	0	1	blank2r.bmp	0	1	+	0	1	blank2r.bmp	492	1	CPPC	492	1	blank2r.bmp	572	1	töten	866	1	FEHLER	1559	1	!	-1	1	!	-1	0	0	0	0	0	0	0	0	0	0	0	0	0	0	0	0	0	0	0	0	0	0	0	0	0	0	0
072319	13:33:04	13:36:16	191453	5.0.10.0	5_exp_RW	79	Rpleas_acq	CS_A	YFFY	JQQJ	LWWL	CPPC	DXXD	ZHHZ	vertrauen	genießen	gütig	träumen	sonnig	küssen	versagen	gemein	gierig	töten	sterben	krank	1	acq_USpleas_CSpleas1_RW	acq3_RW	3	17	453	1	300	300	484	50	0	1	1	blank2r.bmp	0	1	+	0	1	blank2r.bmp	492	1	YFFY	492	1	blank2r.bmp	572	1	vertrauen	866	1	!	1292	1	!	1386	0	0	0	0	0	0	0	0	0	0	0	0	0	0	0	0	0	0	0	0	0	0	0	0	0	0	0	0	0	0
072319	13:33:04	13:36:18	193598	5.0.10.0	5_exp_RW	79	Rpleas_acq	CS_A	YFFY	JQQJ	LWWL	CPPC	DXXD	ZHHZ	vertrauen	genießen	gütig	träumen	sonnig	küssen	versagen	gemein	gierig	töten	sterben	krank	1	acq_USunple_CSunple1_RW	acq3_RW	3	18	453	0	300	300	157	50	0	0	1	blank2r.bmp	0	1	+	0	1	blank2r.bmp	492	1	LWWL	492	1	blank2r.bmp	572	3	gierig	866	1	FEHLER	1359	1	!	-1	1	!	-1	0	0	0	0	0	0	0	0	0	0	0	0	0	0	0	0	0	0	0	0	0	0	0	0	0	0	0
072319	13:33:04	13:36:20	195757	5.0.10.0	5_exp_RW	79	Rpleas_acq	CS_A	YFFY	JQQJ	LWWL	CPPC	DXXD	ZHHZ	vertrauen	genießen	gütig	träumen	sonnig	küssen	versagen	gemein	gierig	töten	sterben	krank	1	acq_USunple_CSunple1_RW	acq3_RW	3	19	453	0	300	300	374	50	0	0	1	blank2r.bmp	0	1	+	0	1	blank2r.bmp	492	1	LWWL	492	1	blank2r.bmp	572	2	gemein	866	1	FEHLER	1586	1	!	-1	1	!	-1	0	0	0	0	0	0	0	0	0	0	0	0	0	0	0	0	0	0	0	0	0	0	0	0	0	0	0
072319	13:33:04	13:36:22	197770	5.0.10.0	5_exp_RW	79	Rpleas_acq	CS_A	YFFY	JQQJ	LWWL	CPPC	DXXD	ZHHZ	vertrauen	genießen	gütig	träumen	sonnig	küssen	versagen	gemein	gierig	töten	sterben	krank	1	acq_USpleas_CSpleas2_RW	acq3_RW	3	20	453	1	300	300	414	50	0	1	1	blank2r.bmp	0	1	+	0	1	blank2r.bmp	492	1	JQQJ	492	1	blank2r.bmp	572	3	küssen	866	1	!	1292	1	!	1319	0	0	0	0	0	0	0	0	0	0	0	0	0	0	0	0	0	0	0	0	0	0	0	0	0	0	0	0	0	0
072319	13:33:04	13:36:24	199622	5.0.10.0	5_exp_RW	79	Rpleas_acq	CS_A	YFFY	JQQJ	LWWL	CPPC	DXXD	ZHHZ	vertrauen	genießen	gütig	träumen	sonnig	küssen	versagen	gemein	gierig	töten	sterben	krank	1	acq_USpleas_CSpleas2_RW	acq3_RW	3	21	453	0	300	300	82	50	0	1	1	blank2r.bmp	0	1	+	0	1	blank2r.bmp	492	1	JQQJ	492	1	blank2r.bmp	572	2	sonnig	866	1	!	-1	1	!	-1	0	0	0	0	0	0	0	0	0	0	0	0	0	0	0	0	0	0	0	0	0	0	0	0	0	0	0	0	0	0
072319	13:33:04	13:36:26	201675	5.0.10.0	5_exp_RW	79	Rpleas_acq	CS_A	YFFY	JQQJ	LWWL	CPPC	DXXD	ZHHZ	vertrauen	genießen	gütig	träumen	sonnig	küssen	versagen	gemein	gierig	töten	sterben	krank	1	acq_USunple_CSunple1_RW	acq3_RW	3	22	453	0	300	300	39	50	0	0	1	blank2r.bmp	0	1	+	0	1	blank2r.bmp	492	1	LWWL	492	1	blank2r.bmp	572	1	versagen	866	1	FEHLER	1252	1	!	-1	1	!	-1	0	0	0	0	0	0	0	0	0	0	0	0	0	0	0	0	0	0	0	0	0	0	0	0	0	0	0
072319	13:33:04	13:36:28	204021	5.0.10.0	5_exp_RW	79	Rpleas_acq	CS_A	YFFY	JQQJ	LWWL	CPPC	DXXD	ZHHZ	vertrauen	genießen	gütig	träumen	sonnig	küssen	versagen	gemein	gierig	töten	sterben	krank	1	acq_USpleas_CSpleas1_RW	acq3_RW	3	23	453	0	300	300	790	50	0	1	1	blank2r.bmp	0	1	+	0	1	blank2r.bmp	492	1	YFFY	492	1	blank2r.bmp	572	2	genießen	866	1	!	1292	1	!	-1	0	0	0	0	0	0	0	0	0	0	0	0	0	0	0	0	0	0	0	0	0	0	0	0	0	0	0	0	0	0
072319	13:33:04	13:36:30	206086	5.0.10.0	5_exp_RW	79	Rpleas_acq	CS_A	YFFY	JQQJ	LWWL	CPPC	DXXD	ZHHZ	vertrauen	genießen	gütig	träumen	sonnig	küssen	versagen	gemein	gierig	töten	sterben	krank	1	acq_USunple_CSunple2_RW	acq3_RW	3	24	453	0	300	300	65	50	0	0	1	blank2r.bmp	0	1	+	0	1	blank2r.bmp	492	1	CPPC	492	1	blank2r.bmp	572	3	krank	866	1	FEHLER	1266	1	!	-1	1	!	-1	0	0	0	0	0	0	0	0	0	0	0	0	0	0	0	0	0	0	0	0	0	0	0	0	0	0	0
072319	13:33:04	13:36:35	210778	5.0.10.0	5_exp_RW	79	Rpleas_acq	CS_A	YFFY	JQQJ	LWWL	CPPC	DXXD	ZHHZ	vertrauen	genießen	gütig	träumen	sonnig	küssen	versagen	gemein	gierig	töten	sterben	krank	1	acq_USpleas_CSpleas2_RW	acq4567_RW	4	1	400	0	300	300	120	50	0	1	1	blank2r.bmp	0	1	+	0	1	blank2r.bmp	492	1	JQQJ	492	1	blank2r.bmp	572	1	träumen	866	1	!	-1	1	!	-1	0	0	0	0	0	0	0	0	0	0	0	0	0	0	0	0	0	0	0	0	0	0	0	0	0	0	0	0	0	0
072319	13:33:04	13:36:37	212724	5.0.10.0	5_exp_RW	79	Rpleas_acq	CS_A	YFFY	JQQJ	LWWL	CPPC	DXXD	ZHHZ	vertrauen	genießen	gütig	träumen	sonnig	küssen	versagen	gemein	gierig	töten	sterben	krank	1	acq_USpleas_CSpleas1_RW	acq4567_RW	4	2	400	0	300	300	167	50	0	1	1	blank2r.bmp	0	1	+	0	1	blank2r.bmp	492	1	YFFY	492	1	blank2r.bmp	572	1	vertrauen	866	1	!	-1	1	!	-1	0	0	0	0	0	0	0	0	0	0	0	0	0	0	0	0	0	0	0	0	0	0	0	0	0	0	0	0	0	0
072319	13:33:04	13:36:39	214736	5.0.10.0	5_exp_RW	79	Rpleas_acq	CS_A	YFFY	JQQJ	LWWL	CPPC	DXXD	ZHHZ	vertrauen	genießen	gütig	träumen	sonnig	küssen	versagen	gemein	gierig	töten	sterben	krank	1	acq_USunple_CSunple1_RW	acq4567_RW	4	3	400	0	300	300	223	46	0	1	1	blank2r.bmp	0	1	+	0	1	blank2r.bmp	492	1	LWWL	492	1	blank2r.bmp	572	2	gemein	866	1	!	-1	1	!	-1	0	0	0	0	0	0	0	0	0	0	0	0	0	0	0	0	0	0	0	0	0	0	0	0	0	0	0	0	0	0
072319	13:33:04	13:36:41	216935	5.0.10.0	5_exp_RW	79	Rpleas_acq	CS_A	YFFY	JQQJ	LWWL	CPPC	DXXD	ZHHZ	vertrauen	genießen	gütig	träumen	sonnig	küssen	versagen	gemein	gierig	töten	sterben	krank	1	acq_USunple_CSunple2_RW	acq4567_RW	4	4	400	1	300	300	380	50	0	0	1	blank2r.bmp	0	1	+	0	1	blank2r.bmp	492	1	CPPC	492	1	blank2r.bmp	572	1	töten	866	1	!	1239	1	!	1279	0	0	0	0	0	0	0	0	0	0	0	0	0	0	0	0	0	0	0	0	0	0	0	0	0	0	0	0	0	0
072319	13:33:04	13:36:43	218894	5.0.10.0	5_exp_RW	79	Rpleas_acq	CS_A	YFFY	JQQJ	LWWL	CPPC	DXXD	ZHHZ	vertrauen	genießen	gütig	träumen	sonnig	küssen	versagen	gemein	gierig	töten	sterben	krank	1	acq_USunple_CSunple1_RW	acq4567_RW	4	5	400	0	300	300	187	50	0	0	1	blank2r.bmp	0	1	+	0	1	blank2r.bmp	492	1	LWWL	492	1	blank2r.bmp	572	3	gierig	866	1	!	-1	1	!	-1	0	0	0	0	0	0	0	0	0	0	0	0	0	0	0	0	0	0	0	0	0	0	0	0	0	0	0	0	0	0
072319	13:33:04	13:36:45	221253	5.0.10.0	5_exp_RW	79	Rpleas_acq	CS_A	YFFY	JQQJ	LWWL	CPPC	DXXD	ZHHZ	vertrauen	genießen	gütig	träumen	sonnig	küssen	versagen	gemein	gierig	töten	sterben	krank	1	acq_USpleas_CSpleas1_RW	acq4567_RW	4	6	400	0	300	300	580	50	0	1	1	blank2r.bmp	0	1	+	0	1	blank2r.bmp	492	1	YFFY	492	1	blank2r.bmp	572	3	gütig	866	1	!	1239	1	!	-1	0	0	0	0	0	0	0	0	0	0	0	0	0	0	0	0	0	0	0	0	0	0	0	0	0	0	0	0	0	0
072319	13:33:04	13:36:48	223519	5.0.10.0	5_exp_RW	79	Rpleas_acq	CS_A	YFFY	JQQJ	LWWL	CPPC	DXXD	ZHHZ	vertrauen	genießen	gütig	träumen	sonnig	küssen	versagen	gemein	gierig	töten	sterben	krank	1	acq_USpleas_CSpleas1_RW	acq4567_RW	4	7	400	0	300	300	483	50	0	1	1	blank2r.bmp	0	1	+	0	1	blank2r.bmp	492	1	YFFY	492	1	blank2r.bmp	572	1	vertrauen	866	1	!	1239	1	!	-1	0	0	0	0	0	0	0	0	0	0	0	0	0	0	0	0	0	0	0	0	0	0	0	0	0	0	0	0	0	0
072319	13:33:04	13:36:50	225865	5.0.10.0	5_exp_RW	79	Rpleas_acq	CS_A	YFFY	JQQJ	LWWL	CPPC	DXXD	ZHHZ	vertrauen	genießen	gütig	träumen	sonnig	küssen	versagen	gemein	gierig	töten	sterben	krank	1	acq_USpleas_CSpleas1_RW	acq4567_RW	4	8	400	0	300	300	551	50	0	1	1	blank2r.bmp	0	1	+	0	1	blank2r.bmp	492	1	YFFY	492	1	blank2r.bmp	572	3	gütig	866	1	!	1239	1	!	-1	0	0	0	0	0	0	0	0	0	0	0	0	0	0	0	0	0	0	0	0	0	0	0	0	0	0	0	0	0	0
072319	13:33:04	13:36:52	227797	5.0.10.0	5_exp_RW	79	Rpleas_acq	CS_A	YFFY	JQQJ	LWWL	CPPC	DXXD	ZHHZ	vertrauen	genießen	gütig	träumen	sonnig	küssen	versagen	gemein	gierig	töten	sterben	krank	1	acq_USunple_CSunple2_RW	acq4567_RW	4	9	400	0	300	300	147	50	0	0	1	blank2r.bmp	0	1	+	0	1	blank2r.bmp	492	1	CPPC	492	1	blank2r.bmp	572	2	sterben	866	1	!	-1	1	!	-1	0	0	0	0	0	0	0	0	0	0	0	0	0	0	0	0	0	0	0	0	0	0	0	0	0	0	0	0	0	0
072319	13:33:04	13:36:54	229623	5.0.10.0	5_exp_RW	79	Rpleas_acq	CS_A	YFFY	JQQJ	LWWL	CPPC	DXXD	ZHHZ	vertrauen	genießen	gütig	träumen	sonnig	küssen	versagen	gemein	gierig	töten	sterben	krank	1	acq_USunple_CSunple2_RW	acq4567_RW	4	10	400	0	300	300	51	50	0	0	1	blank2r.bmp	0	1	+	0	1	blank2r.bmp	492	1	CPPC	492	1	blank2r.bmp	572	1	töten	866	1	!	-1	1	!	-1	0	0	0	0	0	0	0	0	0	0	0	0	0	0	0	0	0	0	0	0	0	0	0	0	0	0	0	0	0	0
072319	13:33:04	13:36:56	231516	5.0.10.0	5_exp_RW	79	Rpleas_acq	CS_A	YFFY	JQQJ	LWWL	CPPC	DXXD	ZHHZ	vertrauen	genießen	gütig	träumen	sonnig	küssen	versagen	gemein	gierig	töten	sterben	krank	1	acq_USunple_CSunple1_RW	acq4567_RW	4	11	400	0	300	300	105	50	0	0	1	blank2r.bmp	0	1	+	0	1	blank2r.bmp	492	1	LWWL	492	1	blank2r.bmp	572	3	gierig	866	1	!	-1	1	!	-1	0	0	0	0	0	0	0	0	0	0	0	0	0	0	0	0	0	0	0	0	0	0	0	0	0	0	0	0	0	0
072319	13:33:04	13:36:58	233568	5.0.10.0	5_exp_RW	79	Rpleas_acq	CS_A	YFFY	JQQJ	LWWL	CPPC	DXXD	ZHHZ	vertrauen	genießen	gütig	träumen	sonnig	küssen	versagen	gemein	gierig	töten	sterben	krank	1	acq_USpleas_CSpleas2_RW	acq4567_RW	4	12	400	0	300	300	275	50	0	1	1	blank2r.bmp	0	1	+	0	1	blank2r.bmp	492	1	JQQJ	492	1	blank2r.bmp	572	3	küssen	866	1	!	-1	1	!	-1	0	0	0	0	0	0	0	0	0	0	0	0	0	0	0	0	0	0	0	0	0	0	0	0	0	0	0	0	0	0
072319	13:33:04	13:37:00	235661	5.0.10.0	5_exp_RW	79	Rpleas_acq	CS_A	YFFY	JQQJ	LWWL	CPPC	DXXD	ZHHZ	vertrauen	genießen	gütig	träumen	sonnig	küssen	versagen	gemein	gierig	töten	sterben	krank	1	acq_USpleas_CSpleas2_RW	acq4567_RW	4	13	400	0	300	300	311	50	0	1	1	blank2r.bmp	0	1	+	0	1	blank2r.bmp	492	1	JQQJ	492	1	blank2r.bmp	572	2	sonnig	866	1	!	-1	1	!	-1	0	0	0	0	0	0	0	0	0	0	0	0	0	0	0	0	0	0	0	0	0	0	0	0	0	0	0	0	0	0
072319	13:33:04	13:37:02	237487	5.0.10.0	5_exp_RW	79	Rpleas_acq	CS_A	YFFY	JQQJ	LWWL	CPPC	DXXD	ZHHZ	vertrauen	genießen	gütig	träumen	sonnig	küssen	versagen	gemein	gierig	töten	sterben	krank	1	acq_USpleas_CSpleas2_RW	acq4567_RW	4	14	400	0	300	300	41	50	0	1	1	blank2r.bmp	0	1	+	0	1	blank2r.bmp	492	1	JQQJ	492	1	blank2r.bmp	572	3	küssen	866	1	!	-1	1	!	-1	0	0	0	0	0	0	0	0	0	0	0	0	0	0	0	0	0	0	0	0	0	0	0	0	0	0	0	0	0	0
072319	13:33:04	13:37:04	239659	5.0.10.0	5_exp_RW	79	Rpleas_acq	CS_A	YFFY	JQQJ	LWWL	CPPC	DXXD	ZHHZ	vertrauen	genießen	gütig	träumen	sonnig	küssen	versagen	gemein	gierig	töten	sterben	krank	1	acq_USpleas_CSpleas2_RW	acq4567_RW	4	15	400	1	300	300	360	50	0	1	1	blank2r.bmp	0	1	+	0	1	blank2r.bmp	492	1	JQQJ	492	1	blank2r.bmp	572	1	träumen	866	1	!	1239	1	!	1266	0	0	0	0	0	0	0	0	0	0	0	0	0	0	0	0	0	0	0	0	0	0	0	0	0	0	0	0	0	0
072319	13:33:04	13:37:06	241818	5.0.10.0	5_exp_RW	79	Rpleas_acq	CS_A	YFFY	JQQJ	LWWL	CPPC	DXXD	ZHHZ	vertrauen	genießen	gütig	träumen	sonnig	küssen	versagen	gemein	gierig	töten	sterben	krank	1	acq_USunple_CSunple1_RW	acq4567_RW	4	16	400	1	300	300	363	50	0	0	1	blank2r.bmp	0	1	+	0	1	blank2r.bmp	492	1	LWWL	492	1	blank2r.bmp	572	2	gemein	866	1	!	1239	1	!	1266	0	0	0	0	0	0	0	0	0	0	0	0	0	0	0	0	0	0	0	0	0	0	0	0	0	0	0	0	0	0
072319	13:33:04	13:37:08	243977	5.0.10.0	5_exp_RW	79	Rpleas_acq	CS_A	YFFY	JQQJ	LWWL	CPPC	DXXD	ZHHZ	vertrauen	genießen	gütig	träumen	sonnig	küssen	versagen	gemein	gierig	töten	sterben	krank	1	acq_USpleas_CSpleas1_RW	acq4567_RW	4	17	400	1	300	300	369	50	0	1	1	blank2r.bmp	0	1	+	0	1	blank2r.bmp	492	1	YFFY	492	1	blank2r.bmp	572	2	genießen	866	1	!	1239	1	!	1266	0	0	0	0	0	0	0	0	0	0	0	0	0	0	0	0	0	0	0	0	0	0	0	0	0	0	0	0	0	0
072319	13:33:04	13:37:10	246176	5.0.10.0	5_exp_RW	79	Rpleas_acq	CS_A	YFFY	JQQJ	LWWL	CPPC	DXXD	ZHHZ	vertrauen	genießen	gütig	träumen	sonnig	küssen	versagen	gemein	gierig	töten	sterben	krank	1	acq_USunple_CSunple2_RW	acq4567_RW	4	18	400	1	300	300	403	46	0	1	1	blank2r.bmp	0	1	+	0	1	blank2r.bmp	492	1	CPPC	492	1	blank2r.bmp	572	3	krank	866	1	!	1239	1	!	1306	0	0	0	0	0	0	0	0	0	0	0	0	0	0	0	0	0	0	0	0	0	0	0	0	0	0	0	0	0	0
072319	13:33:04	13:37:12	247976	5.0.10.0	5_exp_RW	79	Rpleas_acq	CS_A	YFFY	JQQJ	LWWL	CPPC	DXXD	ZHHZ	vertrauen	genießen	gütig	träumen	sonnig	küssen	versagen	gemein	gierig	töten	sterben	krank	1	acq_USunple_CSunple2_RW	acq4567_RW	4	19	400	0	300	300	30	50	0	0	1	blank2r.bmp	0	1	+	0	1	blank2r.bmp	492	1	CPPC	492	1	blank2r.bmp	572	2	sterben	866	1	!	-1	1	!	-1	0	0	0	0	0	0	0	0	0	0	0	0	0	0	0	0	0	0	0	0	0	0	0	0	0	0	0	0	0	0
072319	13:33:04	13:37:14	250028	5.0.10.0	5_exp_RW	79	Rpleas_acq	CS_A	YFFY	JQQJ	LWWL	CPPC	DXXD	ZHHZ	vertrauen	genießen	gütig	träumen	sonnig	küssen	versagen	gemein	gierig	töten	sterben	krank	1	acq_USunple_CSunple1_RW	acq4567_RW	4	20	400	0	300	300	276	50	0	0	1	blank2r.bmp	0	1	+	0	1	blank2r.bmp	492	1	LWWL	492	1	blank2r.bmp	572	1	versagen	866	1	!	-1	1	!	-1	0	0	0	0	0	0	0	0	0	0	0	0	0	0	0	0	0	0	0	0	0	0	0	0	0	0	0	0	0	0
072319	13:33:04	13:37:17	252707	5.0.10.0	5_exp_RW	79	Rpleas_acq	CS_A	YFFY	JQQJ	LWWL	CPPC	DXXD	ZHHZ	vertrauen	genießen	gütig	träumen	sonnig	küssen	versagen	gemein	gierig	töten	sterben	krank	1	acq_USunple_CSunple1_RW	acq4567_RW	4	21	400	0	300	300	901	50	0	0	1	blank2r.bmp	0	1	+	0	1	blank2r.bmp	492	1	LWWL	492	1	blank2r.bmp	572	1	versagen	866	1	!	1239	1	!	-1	0	0	0	0	0	0	0	0	0	0	0	0	0	0	0	0	0	0	0	0	0	0	0	0	0	0	0	0	0	0
072319	13:33:04	13:37:19	254626	5.0.10.0	5_exp_RW	79	Rpleas_acq	CS_A	YFFY	JQQJ	LWWL	CPPC	DXXD	ZHHZ	vertrauen	genießen	gütig	träumen	sonnig	küssen	versagen	gemein	gierig	töten	sterben	krank	1	acq_USpleas_CSpleas1_RW	acq4567_RW	4	22	400	0	300	300	130	50	0	1	1	blank2r.bmp	0	1	+	0	1	blank2r.bmp	492	1	YFFY	492	1	blank2r.bmp	572	3	gütig	866	1	!	-1	1	!	-1	0	0	0	0	0	0	0	0	0	0	0	0	0	0	0	0	0	0	0	0	0	0	0	0	0	0	0	0	0	0
072319	13:33:04	13:37:21	256585	5.0.10.0	5_exp_RW	79	Rpleas_acq	CS_A	YFFY	JQQJ	LWWL	CPPC	DXXD	ZHHZ	vertrauen	genießen	gütig	träumen	sonnig	küssen	versagen	gemein	gierig	töten	sterben	krank	1	acq_USunple_CSunple1_RW	acq4567_RW	4	23	400	0	300	300	183	50	0	0	1	blank2r.bmp	0	1	+	0	1	blank2r.bmp	492	1	LWWL	492	1	blank2r.bmp	572	3	gierig	866	1	!	-1	1	!	-1	0	0	0	0	0	0	0	0	0	0	0	0	0	0	0	0	0	0	0	0	0	0	0	0	0	0	0	0	0	0
072319	13:33:04	13:37:22	258371	5.0.10.0	5_exp_RW	79	Rpleas_acq	CS_A	YFFY	JQQJ	LWWL	CPPC	DXXD	ZHHZ	vertrauen	genießen	gütig	träumen	sonnig	küssen	versagen	gemein	gierig	töten	sterben	krank	1	acq_USpleas_CSpleas1_RW	acq4567_RW	4	24	400	0	300	300	8	50	0	1	1	blank2r.bmp	0	1	+	0	1	blank2r.bmp	492	1	YFFY	492	1	blank2r.bmp	572	2	genießen	866	1	!	-1	1	!	-1	0	0	0	0	0	0	0	0	0	0	0	0	0	0	0	0	0	0	0	0	0	0	0	0	0	0	0	0	0	0
072319	13:33:04	13:37:24	260357	5.0.10.0	5_exp_RW	79	Rpleas_acq	CS_A	YFFY	JQQJ	LWWL	CPPC	DXXD	ZHHZ	vertrauen	genießen	gütig	träumen	sonnig	küssen	versagen	gemein	gierig	töten	sterben	krank	1	acq_USunple_CSunple1_RW	acq4567_RW	4	25	400	0	300	300	208	46	0	1	1	blank2r.bmp	0	1	+	0	1	blank2r.bmp	492	1	LWWL	492	1	blank2r.bmp	572	2	gemein	866	1	!	-1	1	!	-1	0	0	0	0	0	0	0	0	0	0	0	0	0	0	0	0	0	0	0	0	0	0	0	0	0	0	0	0	0	0
072319	13:33:04	13:37:26	262223	5.0.10.0	5_exp_RW	79	Rpleas_acq	CS_A	YFFY	JQQJ	LWWL	CPPC	DXXD	ZHHZ	vertrauen	genießen	gütig	träumen	sonnig	küssen	versagen	gemein	gierig	töten	sterben	krank	1	acq_USunple_CSunple2_RW	acq4567_RW	4	26	400	0	300	300	79	50	0	0	1	blank2r.bmp	0	1	+	0	1	blank2r.bmp	492	1	CPPC	492	1	blank2r.bmp	572	3	krank	866	1	!	-1	1	!	-1	0	0	0	0	0	0	0	0	0	0	0	0	0	0	0	0	0	0	0	0	0	0	0	0	0	0	0	0	0	0
072319	13:33:04	13:37:29	264942	5.0.10.0	5_exp_RW	79	Rpleas_acq	CS_A	YFFY	JQQJ	LWWL	CPPC	DXXD	ZHHZ	vertrauen	genießen	gütig	träumen	sonnig	küssen	versagen	gemein	gierig	töten	sterben	krank	1	acq_USpleas_CSpleas1_RW	acq4567_RW	4	27	400	0	300	300	921	50	0	1	1	blank2r.bmp	0	1	+	0	1	blank2r.bmp	492	1	YFFY	492	1	blank2r.bmp	572	1	vertrauen	866	1	!	1239	1	!	-1	0	0	0	0	0	0	0	0	0	0	0	0	0	0	0	0	0	0	0	0	0	0	0	0	0	0	0	0	0	0
072319	13:33:04	13:37:33	268460	5.0.10.0	5_exp_RW	79	Rpleas_acq	CS_A	YFFY	JQQJ	LWWL	CPPC	DXXD	ZHHZ	vertrauen	genießen	gütig	träumen	sonnig	küssen	versagen	gemein	gierig	töten	sterben	krank	1	acq_USpleas_CSpleas1_RW	acq4567_RW	4	28	400	0	300	300	1735	50	0	1	1	blank2r.bmp	0	1	+	0	1	blank2r.bmp	492	1	YFFY	492	1	blank2r.bmp	572	3	gütig	866	1	!	1239	1	!	-1	0	0	0	0	0	0	0	0	0	0	0	0	0	0	0	0	0	0	0	0	0	0	0	0	0	0	0	0	0	0
072319	13:33:04	13:37:35	270513	5.0.10.0	5_exp_RW	79	Rpleas_acq	CS_A	YFFY	JQQJ	LWWL	CPPC	DXXD	ZHHZ	vertrauen	genießen	gütig	träumen	sonnig	küssen	versagen	gemein	gierig	töten	sterben	krank	1	acq_USpleas_CSpleas2_RW	acq4567_RW	4	29	400	0	300	300	268	46	0	0	1	blank2r.bmp	0	1	+	0	1	blank2r.bmp	492	1	JQQJ	492	1	blank2r.bmp	572	3	küssen	866	1	!	-1	1	!	-1	0	0	0	0	0	0	0	0	0	0	0	0	0	0	0	0	0	0	0	0	0	0	0	0	0	0	0	0	0	0
072319	13:33:04	13:37:37	273032	5.0.10.0	5_exp_RW	79	Rpleas_acq	CS_A	YFFY	JQQJ	LWWL	CPPC	DXXD	ZHHZ	vertrauen	genießen	gütig	träumen	sonnig	küssen	versagen	gemein	gierig	töten	sterben	krank	1	acq_USpleas_CSpleas1_RW	acq4567_RW	4	30	400	0	300	300	739	50	0	1	1	blank2r.bmp	0	1	+	0	1	blank2r.bmp	492	1	YFFY	492	1	blank2r.bmp	572	1	vertrauen	866	1	!	1239	1	!	-1	0	0	0	0	0	0	0	0	0	0	0	0	0	0	0	0	0	0	0	0	0	0	0	0	0	0	0	0	0	0
072319	13:33:04	13:37:39	275004	5.0.10.0	5_exp_RW	79	Rpleas_acq	CS_A	YFFY	JQQJ	LWWL	CPPC	DXXD	ZHHZ	vertrauen	genießen	gütig	träumen	sonnig	küssen	versagen	gemein	gierig	töten	sterben	krank	1	acq_USunple_CSunple2_RW	acq4567_RW	4	31	400	0	300	300	179	50	0	0	1	blank2r.bmp	0	1	+	0	1	blank2r.bmp	492	1	CPPC	492	1	blank2r.bmp	572	2	sterben	866	1	!	-1	1	!	-1	0	0	0	0	0	0	0	0	0	0	0	0	0	0	0	0	0	0	0	0	0	0	0	0	0	0	0	0	0	0
072319	13:33:04	13:37:41	276884	5.0.10.0	5_exp_RW	79	Rpleas_acq	CS_A	YFFY	JQQJ	LWWL	CPPC	DXXD	ZHHZ	vertrauen	genießen	gütig	träumen	sonnig	küssen	versagen	gemein	gierig	töten	sterben	krank	1	acq_USpleas_CSpleas2_RW	acq4567_RW	4	32	400	0	300	300	92	50	0	1	1	blank2r.bmp	0	1	+	0	1	blank2r.bmp	492	1	JQQJ	492	1	blank2r.bmp	572	1	träumen	866	1	!	-1	1	!	-1	0	0	0	0	0	0	0	0	0	0	0	0	0	0	0	0	0	0	0	0	0	0	0	0	0	0	0	0	0	0
072319	13:33:04	13:37:43	278683	5.0.10.0	5_exp_RW	79	Rpleas_acq	CS_A	YFFY	JQQJ	LWWL	CPPC	DXXD	ZHHZ	vertrauen	genießen	gütig	träumen	sonnig	küssen	versagen	gemein	gierig	töten	sterben	krank	1	acq_USpleas_CSpleas2_RW	acq4567_RW	4	33	400	0	300	300	12	50	0	1	1	blank2r.bmp	0	1	+	0	1	blank2r.bmp	492	1	JQQJ	492	1	blank2r.bmp	572	2	sonnig	866	1	!	-1	1	!	-1	0	0	0	0	0	0	0	0	0	0	0	0	0	0	0	0	0	0	0	0	0	0	0	0	0	0	0	0	0	0
072319	13:33:04	13:37:45	280642	5.0.10.0	5_exp_RW	79	Rpleas_acq	CS_A	YFFY	JQQJ	LWWL	CPPC	DXXD	ZHHZ	vertrauen	genießen	gütig	träumen	sonnig	küssen	versagen	gemein	gierig	töten	sterben	krank	1	acq_USpleas_CSpleas2_RW	acq4567_RW	4	34	400	0	300	300	182	46	0	0	1	blank2r.bmp	0	1	+	0	1	blank2r.bmp	492	1	JQQJ	492	1	blank2r.bmp	572	1	träumen	866	1	!	-1	1	!	-1	0	0	0	0	0	0	0	0	0	0	0	0	0	0	0	0	0	0	0	0	0	0	0	0	0	0	0	0	0	0
072319	13:33:04	13:37:47	282534	5.0.10.0	5_exp_RW	79	Rpleas_acq	CS_A	YFFY	JQQJ	LWWL	CPPC	DXXD	ZHHZ	vertrauen	genießen	gütig	träumen	sonnig	küssen	versagen	gemein	gierig	töten	sterben	krank	1	acq_USunple_CSunple2_RW	acq4567_RW	4	35	400	0	300	300	114	50	0	0	1	blank2r.bmp	0	1	+	0	1	blank2r.bmp	492	1	CPPC	492	1	blank2r.bmp	572	1	töten	866	1	!	-1	1	!	-1	0	0	0	0	0	0	0	0	0	0	0	0	0	0	0	0	0	0	0	0	0	0	0	0	0	0	0	0	0	0
072319	13:33:04	13:37:49	284507	5.0.10.0	5_exp_RW	79	Rpleas_acq	CS_A	YFFY	JQQJ	LWWL	CPPC	DXXD	ZHHZ	vertrauen	genießen	gütig	träumen	sonnig	küssen	versagen	gemein	gierig	töten	sterben	krank	1	acq_USunple_CSunple1_RW	acq4567_RW	4	36	400	0	300	300	186	50	0	0	1	blank2r.bmp	0	1	+	0	1	blank2r.bmp	492	1	LWWL	492	1	blank2r.bmp	572	1	versagen	866	1	!	-1	1	!	-1	0	0	0	0	0	0	0	0	0	0	0	0	0	0	0	0	0	0	0	0	0	0	0	0	0	0	0	0	0	0
072319	13:33:04	13:37:51	286480	5.0.10.0	5_exp_RW	79	Rpleas_acq	CS_A	YFFY	JQQJ	LWWL	CPPC	DXXD	ZHHZ	vertrauen	genießen	gütig	träumen	sonnig	küssen	versagen	gemein	gierig	töten	sterben	krank	1	acq_USunple_CSunple2_RW	acq4567_RW	4	37	400	0	300	300	190	46	0	1	1	blank2r.bmp	0	1	+	0	1	blank2r.bmp	492	1	CPPC	492	1	blank2r.bmp	572	3	krank	866	1	!	-1	1	!	-1	0	0	0	0	0	0	0	0	0	0	0	0	0	0	0	0	0	0	0	0	0	0	0	0	0	0	0	0	0	0
072319	13:33:04	13:37:52	288319	5.0.10.0	5_exp_RW	79	Rpleas_acq	CS_A	YFFY	JQQJ	LWWL	CPPC	DXXD	ZHHZ	vertrauen	genießen	gütig	träumen	sonnig	küssen	versagen	gemein	gierig	töten	sterben	krank	1	acq_USunple_CSunple1_RW	acq4567_RW	4	38	400	0	300	300	49	46	0	1	1	blank2r.bmp	0	1	+	0	1	blank2r.bmp	492	1	LWWL	492	1	blank2r.bmp	572	2	gemein	866	1	!	-1	1	!	-1	0	0	0	0	0	0	0	0	0	0	0	0	0	0	0	0	0	0	0	0	0	0	0	0	0	0	0	0	0	0
072319	13:33:04	13:37:55	290385	5.0.10.0	5_exp_RW	79	Rpleas_acq	CS_A	YFFY	JQQJ	LWWL	CPPC	DXXD	ZHHZ	vertrauen	genießen	gütig	träumen	sonnig	küssen	versagen	gemein	gierig	töten	sterben	krank	1	acq_USunple_CSunple2_RW	acq4567_RW	4	39	400	0	300	300	278	50	0	0	1	blank2r.bmp	0	1	+	0	1	blank2r.bmp	492	1	CPPC	492	1	blank2r.bmp	572	1	töten	866	1	!	-1	1	!	-1	0	0	0	0	0	0	0	0	0	0	0	0	0	0	0	0	0	0	0	0	0	0	0	0	0	0	0	0	0	0
072319	13:33:04	13:37:58	293623	5.0.10.0	5_exp_RW	79	Rpleas_acq	CS_A	YFFY	JQQJ	LWWL	CPPC	DXXD	ZHHZ	vertrauen	genießen	gütig	träumen	sonnig	küssen	versagen	gemein	gierig	töten	sterben	krank	1	acq_USpleas_CSpleas2_RW	acq4567_RW	4	40	400	0	300	300	1451	50	0	1	1	blank2r.bmp	0	1	+	0	1	blank2r.bmp	492	1	JQQJ	492	1	blank2r.bmp	572	3	küssen	866	1	!	1239	1	!	-1	0	0	0	0	0	0	0	0	0	0	0	0	0	0	0	0	0	0	0	0	0	0	0	0	0	0	0	0	0	0
072319	13:33:04	13:38:01	296702	5.0.10.0	5_exp_RW	79	Rpleas_acq	CS_A	YFFY	JQQJ	LWWL	CPPC	DXXD	ZHHZ	vertrauen	genießen	gütig	träumen	sonnig	küssen	versagen	gemein	gierig	töten	sterben	krank	1	acq_USpleas_CSpleas2_RW	acq4567_RW	4	41	400	0	300	300	1287	50	0	1	1	blank2r.bmp	0	1	+	0	1	blank2r.bmp	492	1	JQQJ	492	1	blank2r.bmp	572	2	sonnig	866	1	!	1239	1	!	-1	0	0	0	0	0	0	0	0	0	0	0	0	0	0	0	0	0	0	0	0	0	0	0	0	0	0	0	0	0	0
072319	13:33:04	13:38:06	302220	5.0.10.0	5_exp_RW	79	Rpleas_acq	CS_A	YFFY	JQQJ	LWWL	CPPC	DXXD	ZHHZ	vertrauen	genießen	gütig	träumen	sonnig	küssen	versagen	gemein	gierig	töten	sterben	krank	1	acq_USunple_CSunple2_RW	acq4567_RW	4	42	400	0	300	300	3742	50	0	0	1	blank2r.bmp	0	1	+	0	1	blank2r.bmp	492	1	CPPC	492	1	blank2r.bmp	572	2	sterben	866	1	!	1239	1	!	-1	0	0	0	0	0	0	0	0	0	0	0	0	0	0	0	0	0	0	0	0	0	0	0	0	0	0	0	0	0	0
072319	13:33:04	13:38:09	305218	5.0.10.0	5_exp_RW	79	Rpleas_acq	CS_A	YFFY	JQQJ	LWWL	CPPC	DXXD	ZHHZ	vertrauen	genießen	gütig	träumen	sonnig	küssen	versagen	gemein	gierig	töten	sterben	krank	1	acq_USpleas_CSpleas1_RW	acq4567_RW	4	43	400	0	300	300	1208	50	0	1	1	blank2r.bmp	0	1	+	0	1	blank2r.bmp	492	1	YFFY	492	1	blank2r.bmp	572	2	genießen	866	1	!	1239	1	!	-1	0	0	0	0	0	0	0	0	0	0	0	0	0	0	0	0	0	0	0	0	0	0	0	0	0	0	0	0	0	0
072319	13:33:04	13:38:12	307511	5.0.10.0	5_exp_RW	79	Rpleas_acq	CS_A	YFFY	JQQJ	LWWL	CPPC	DXXD	ZHHZ	vertrauen	genießen	gütig	träumen	sonnig	küssen	versagen	gemein	gierig	töten	sterben	krank	1	acq_USunple_CSunple1_RW	acq4567_RW	4	44	400	0	300	300	510	50	0	0	1	blank2r.bmp	0	1	+	0	1	blank2r.bmp	492	1	LWWL	492	1	blank2r.bmp	572	3	gierig	866	1	!	1239	1	!	-1	0	0	0	0	0	0	0	0	0	0	0	0	0	0	0	0	0	0	0	0	0	0	0	0	0	0	0	0	0	0
072319	13:33:04	13:38:14	309923	5.0.10.0	5_exp_RW	79	Rpleas_acq	CS_A	YFFY	JQQJ	LWWL	CPPC	DXXD	ZHHZ	vertrauen	genießen	gütig	träumen	sonnig	küssen	versagen	gemein	gierig	töten	sterben	krank	1	acq_USpleas_CSpleas1_RW	acq4567_RW	4	45	400	0	300	300	636	50	0	1	1	blank2r.bmp	0	1	+	0	1	blank2r.bmp	492	1	YFFY	492	1	blank2r.bmp	572	3	gütig	866	1	!	1239	1	!	-1	0	0	0	0	0	0	0	0	0	0	0	0	0	0	0	0	0	0	0	0	0	0	0	0	0	0	0	0	0	0
072319	13:33:04	13:38:16	312322	5.0.10.0	5_exp_RW	79	Rpleas_acq	CS_A	YFFY	JQQJ	LWWL	CPPC	DXXD	ZHHZ	vertrauen	genießen	gütig	träumen	sonnig	küssen	versagen	gemein	gierig	töten	sterben	krank	1	acq_USunple_CSunple1_RW	acq4567_RW	4	46	400	0	300	300	620	50	0	0	1	blank2r.bmp	0	1	+	0	1	blank2r.bmp	492	1	LWWL	492	1	blank2r.bmp	572	3	gierig	866	1	!	1239	1	!	-1	0	0	0	0	0	0	0	0	0	0	0	0	0	0	0	0	0	0	0	0	0	0	0	0	0	0	0	0	0	0
072319	13:33:04	13:38:19	314481	5.0.10.0	5_exp_RW	79	Rpleas_acq	CS_A	YFFY	JQQJ	LWWL	CPPC	DXXD	ZHHZ	vertrauen	genießen	gütig	träumen	sonnig	küssen	versagen	gemein	gierig	töten	sterben	krank	1	acq_USpleas_CSpleas2_RW	acq4567_RW	4	47	400	1	300	300	346	50	0	1	1	blank2r.bmp	0	1	+	0	1	blank2r.bmp	492	1	JQQJ	492	1	blank2r.bmp	572	3	küssen	866	1	!	1239	1	!	1252	0	0	0	0	0	0	0	0	0	0	0	0	0	0	0	0	0	0	0	0	0	0	0	0	0	0	0	0	0	0
072319	13:33:04	13:38:21	316400	5.0.10.0	5_exp_RW	79	Rpleas_acq	CS_A	YFFY	JQQJ	LWWL	CPPC	DXXD	ZHHZ	vertrauen	genießen	gütig	träumen	sonnig	küssen	versagen	gemein	gierig	töten	sterben	krank	1	acq_USunple_CSunple1_RW	acq4567_RW	4	48	400	0	300	300	154	50	0	0	1	blank2r.bmp	0	1	+	0	1	blank2r.bmp	492	1	LWWL	492	1	blank2r.bmp	572	2	gemein	866	1	!	-1	1	!	-1	0	0	0	0	0	0	0	0	0	0	0	0	0	0	0	0	0	0	0	0	0	0	0	0	0	0	0	0	0	0
072319	13:33:04	13:38:23	318453	5.0.10.0	5_exp_RW	79	Rpleas_acq	CS_A	YFFY	JQQJ	LWWL	CPPC	DXXD	ZHHZ	vertrauen	genießen	gütig	träumen	sonnig	küssen	versagen	gemein	gierig	töten	sterben	krank	1	acq_USunple_CSunple1_RW	acq4567_RW	4	49	400	0	300	300	260	50	0	0	1	blank2r.bmp	0	1	+	0	1	blank2r.bmp	492	1	LWWL	492	1	blank2r.bmp	572	1	versagen	866	1	!	-1	1	!	-1	0	0	0	0	0	0	0	0	0	0	0	0	0	0	0	0	0	0	0	0	0	0	0	0	0	0	0	0	0	0
072319	13:33:04	13:38:25	320545	5.0.10.0	5_exp_RW	79	Rpleas_acq	CS_A	YFFY	JQQJ	LWWL	CPPC	DXXD	ZHHZ	vertrauen	genießen	gütig	träumen	sonnig	küssen	versagen	gemein	gierig	töten	sterben	krank	1	acq_USpleas_CSpleas1_RW	acq4567_RW	4	50	400	0	300	300	314	50	0	1	1	blank2r.bmp	0	1	+	0	1	blank2r.bmp	492	1	YFFY	492	1	blank2r.bmp	572	2	genießen	866	1	!	-1	1	!	-1	0	0	0	0	0	0	0	0	0	0	0	0	0	0	0	0	0	0	0	0	0	0	0	0	0	0	0	0	0	0
072319	13:33:04	13:38:26	322345	5.0.10.0	5_exp_RW	79	Rpleas_acq	CS_A	YFFY	JQQJ	LWWL	CPPC	DXXD	ZHHZ	vertrauen	genießen	gütig	träumen	sonnig	küssen	versagen	gemein	gierig	töten	sterben	krank	1	acq_USpleas_CSpleas2_RW	acq4567_RW	4	51	400	0	300	300	23	46	0	0	1	blank2r.bmp	0	1	+	0	1	blank2r.bmp	492	1	JQQJ	492	1	blank2r.bmp	572	1	träumen	866	1	!	-1	1	!	-1	0	0	0	0	0	0	0	0	0	0	0	0	0	0	0	0	0	0	0	0	0	0	0	0	0	0	0	0	0	0
072319	13:33:04	13:38:29	324637	5.0.10.0	5_exp_RW	79	Rpleas_acq	CS_A	YFFY	JQQJ	LWWL	CPPC	DXXD	ZHHZ	vertrauen	genießen	gütig	träumen	sonnig	küssen	versagen	gemein	gierig	töten	sterben	krank	1	acq_USpleas_CSpleas1_RW	acq4567_RW	4	52	400	0	300	300	498	50	0	1	1	blank2r.bmp	0	1	+	0	1	blank2r.bmp	492	1	YFFY	492	1	blank2r.bmp	572	1	vertrauen	866	1	!	1239	1	!	-1	0	0	0	0	0	0	0	0	0	0	0	0	0	0	0	0	0	0	0	0	0	0	0	0	0	0	0	0	0	0
072319	13:33:04	13:38:31	326623	5.0.10.0	5_exp_RW	79	Rpleas_acq	CS_A	YFFY	JQQJ	LWWL	CPPC	DXXD	ZHHZ	vertrauen	genießen	gütig	träumen	sonnig	küssen	versagen	gemein	gierig	töten	sterben	krank	1	acq_USunple_CSunple2_RW	acq4567_RW	4	53	400	0	300	300	197	46	0	1	1	blank2r.bmp	0	1	+	0	1	blank2r.bmp	492	1	CPPC	492	1	blank2r.bmp	572	2	sterben	866	1	!	-1	1	!	-1	0	0	0	0	0	0	0	0	0	0	0	0	0	0	0	0	0	0	0	0	0	0	0	0	0	0	0	0	0	0
072319	13:33:04	13:38:33	328689	5.0.10.0	5_exp_RW	79	Rpleas_acq	CS_A	YFFY	JQQJ	LWWL	CPPC	DXXD	ZHHZ	vertrauen	genießen	gütig	träumen	sonnig	küssen	versagen	gemein	gierig	töten	sterben	krank	1	acq_USpleas_CSpleas2_RW	acq4567_RW	4	54	400	0	300	300	287	50	0	1	1	blank2r.bmp	0	1	+	0	1	blank2r.bmp	492	1	JQQJ	492	1	blank2r.bmp	572	2	sonnig	866	1	!	-1	1	!	-1	0	0	0	0	0	0	0	0	0	0	0	0	0	0	0	0	0	0	0	0	0	0	0	0	0	0	0	0	0	0
072319	13:33:04	13:38:35	330568	5.0.10.0	5_exp_RW	79	Rpleas_acq	CS_A	YFFY	JQQJ	LWWL	CPPC	DXXD	ZHHZ	vertrauen	genießen	gütig	träumen	sonnig	küssen	versagen	gemein	gierig	töten	sterben	krank	1	acq_USunple_CSunple2_RW	acq4567_RW	4	55	400	0	300	300	99	50	0	0	1	blank2r.bmp	0	1	+	0	1	blank2r.bmp	492	1	CPPC	492	1	blank2r.bmp	572	1	töten	866	1	!	-1	1	!	-1	0	0	0	0	0	0	0	0	0	0	0	0	0	0	0	0	0	0	0	0	0	0	0	0	0	0	0	0	0	0
072319	13:33:04	13:38:37	332460	5.0.10.0	5_exp_RW	79	Rpleas_acq	CS_A	YFFY	JQQJ	LWWL	CPPC	DXXD	ZHHZ	vertrauen	genießen	gütig	träumen	sonnig	küssen	versagen	gemein	gierig	töten	sterben	krank	1	acq_USunple_CSunple2_RW	acq4567_RW	4	56	400	0	300	300	114	50	0	0	1	blank2r.bmp	0	1	+	0	1	blank2r.bmp	492	1	CPPC	492	1	blank2r.bmp	572	3	krank	866	1	!	-1	1	!	-1	0	0	0	0	0	0	0	0	0	0	0	0	0	0	0	0	0	0	0	0	0	0	0	0	0	0	0	0	0	0
072319	13:33:04	13:38:39	334886	5.0.10.0	5_exp_RW	79	Rpleas_acq	CS_A	YFFY	JQQJ	LWWL	CPPC	DXXD	ZHHZ	vertrauen	genießen	gütig	träumen	sonnig	küssen	versagen	gemein	gierig	töten	sterben	krank	1	acq_USpleas_CSpleas2_RW	acq4567_RW	4	57	400	0	300	300	643	50	0	1	1	blank2r.bmp	0	1	+	0	1	blank2r.bmp	492	1	JQQJ	492	1	blank2r.bmp	572	2	sonnig	866	1	!	1239	1	!	-1	0	0	0	0	0	0	0	0	0	0	0	0	0	0	0	0	0	0	0	0	0	0	0	0	0	0	0	0	0	0
072319	13:33:04	13:38:41	337005	5.0.10.0	5_exp_RW	79	Rpleas_acq	CS_A	YFFY	JQQJ	LWWL	CPPC	DXXD	ZHHZ	vertrauen	genießen	gütig	träumen	sonnig	küssen	versagen	gemein	gierig	töten	sterben	krank	1	acq_USpleas_CSpleas1_RW	acq4567_RW	4	58	400	0	300	300	329	50	0	1	1	blank2r.bmp	0	1	+	0	1	blank2r.bmp	492	1	YFFY	492	1	blank2r.bmp	572	3	gütig	866	1	!	-1	1	!	-1	0	0	0	0	0	0	0	0	0	0	0	0	0	0	0	0	0	0	0	0	0	0	0	0	0	0	0	0	0	0
072319	13:33:04	13:38:43	339044	5.0.10.0	5_exp_RW	79	Rpleas_acq	CS_A	YFFY	JQQJ	LWWL	CPPC	DXXD	ZHHZ	vertrauen	genießen	gütig	träumen	sonnig	küssen	versagen	gemein	gierig	töten	sterben	krank	1	acq_USunple_CSunple2_RW	acq4567_RW	4	59	400	0	300	300	255	50	0	0	1	blank2r.bmp	0	1	+	0	1	blank2r.bmp	492	1	CPPC	492	1	blank2r.bmp	572	1	töten	866	1	!	-1	1	!	-1	0	0	0	0	0	0	0	0	0	0	0	0	0	0	0	0	0	0	0	0	0	0	0	0	0	0	0	0	0	0
072319	13:33:04	13:38:46	341377	5.0.10.0	5_exp_RW	79	Rpleas_acq	CS_A	YFFY	JQQJ	LWWL	CPPC	DXXD	ZHHZ	vertrauen	genießen	gütig	träumen	sonnig	küssen	versagen	gemein	gierig	töten	sterben	krank	1	acq_USunple_CSunple1_RW	acq4567_RW	4	60	400	0	300	300	547	50	0	0	1	blank2r.bmp	0	1	+	0	1	blank2r.bmp	492	1	LWWL	492	1	blank2r.bmp	572	3	gierig	866	1	!	1239	1	!	-1	0	0	0	0	0	0	0	0	0	0	0	0	0	0	0	0	0	0	0	0	0	0	0	0	0	0	0	0	0	0
072319	13:33:04	13:38:47	343189	5.0.10.0	5_exp_RW	79	Rpleas_acq	CS_A	YFFY	JQQJ	LWWL	CPPC	DXXD	ZHHZ	vertrauen	genießen	gütig	träumen	sonnig	küssen	versagen	gemein	gierig	töten	sterben	krank	1	acq_USunple_CSunple1_RW	acq4567_RW	4	61	400	0	300	300	21	50	0	0	1	blank2r.bmp	0	1	+	0	1	blank2r.bmp	492	1	LWWL	492	1	blank2r.bmp	572	1	versagen	866	1	!	-1	1	!	-1	0	0	0	0	0	0	0	0	0	0	0	0	0	0	0	0	0	0	0	0	0	0	0	0	0	0	0	0	0	0
072319	13:33:04	13:38:49	345068	5.0.10.0	5_exp_RW	79	Rpleas_acq	CS_A	YFFY	JQQJ	LWWL	CPPC	DXXD	ZHHZ	vertrauen	genießen	gütig	träumen	sonnig	küssen	versagen	gemein	gierig	töten	sterben	krank	1	acq_USunple_CSunple2_RW	acq4567_RW	4	62	400	0	300	300	102	50	0	0	1	blank2r.bmp	0	1	+	0	1	blank2r.bmp	492	1	CPPC	492	1	blank2r.bmp	572	3	krank	866	1	!	-1	1	!	-1	0	0	0	0	0	0	0	0	0	0	0	0	0	0	0	0	0	0	0	0	0	0	0	0	0	0	0	0	0	0
072319	13:33:04	13:38:51	347134	5.0.10.0	5_exp_RW	79	Rpleas_acq	CS_A	YFFY	JQQJ	LWWL	CPPC	DXXD	ZHHZ	vertrauen	genießen	gütig	träumen	sonnig	küssen	versagen	gemein	gierig	töten	sterben	krank	1	acq_USpleas_CSpleas1_RW	acq4567_RW	4	63	400	0	300	300	284	50	0	1	1	blank2r.bmp	0	1	+	0	1	blank2r.bmp	492	1	YFFY	492	1	blank2r.bmp	572	1	vertrauen	866	1	!	-1	1	!	-1	0	0	0	0	0	0	0	0	0	0	0	0	0	0	0	0	0	0	0	0	0	0	0	0	0	0	0	0	0	0
072319	13:33:04	13:38:54	349480	5.0.10.0	5_exp_RW	79	Rpleas_acq	CS_A	YFFY	JQQJ	LWWL	CPPC	DXXD	ZHHZ	vertrauen	genießen	gütig	träumen	sonnig	küssen	versagen	gemein	gierig	töten	sterben	krank	1	acq_USunple_CSunple1_RW	acq4567_RW	4	64	400	0	300	300	568	50	0	0	1	blank2r.bmp	0	1	+	0	1	blank2r.bmp	492	1	LWWL	492	1	blank2r.bmp	572	2	gemein	866	1	!	1239	1	!	-1	0	0	0	0	0	0	0	0	0	0	0	0	0	0	0	0	0	0	0	0	0	0	0	0	0	0	0	0	0	0
072319	13:33:04	13:38:56	351586	5.0.10.0	5_exp_RW	79	Rpleas_acq	CS_A	YFFY	JQQJ	LWWL	CPPC	DXXD	ZHHZ	vertrauen	genießen	gütig	träumen	sonnig	küssen	versagen	gemein	gierig	töten	sterben	krank	1	acq_USpleas_CSpleas1_RW	acq4567_RW	4	65	400	0	300	300	329	50	0	1	1	blank2r.bmp	0	1	+	0	1	blank2r.bmp	492	1	YFFY	492	1	blank2r.bmp	572	2	genießen	866	1	!	-1	1	!	-1	0	0	0	0	0	0	0	0	0	0	0	0	0	0	0	0	0	0	0	0	0	0	0	0	0	0	0	0	0	0
072319	13:33:04	13:38:58	353691	5.0.10.0	5_exp_RW	79	Rpleas_acq	CS_A	YFFY	JQQJ	LWWL	CPPC	DXXD	ZHHZ	vertrauen	genießen	gütig	träumen	sonnig	küssen	versagen	gemein	gierig	töten	sterben	krank	1	acq_USpleas_CSpleas2_RW	acq4567_RW	4	66	400	0	300	300	325	50	0	1	1	blank2r.bmp	0	1	+	0	1	blank2r.bmp	492	1	JQQJ	492	1	blank2r.bmp	572	3	küssen	866	1	!	-1	1	!	-1	0	0	0	0	0	0	0	0	0	0	0	0	0	0	0	0	0	0	0	0	0	0	0	0	0	0	0	0	0	0
072319	13:33:04	13:39:00	355611	5.0.10.0	5_exp_RW	79	Rpleas_acq	CS_A	YFFY	JQQJ	LWWL	CPPC	DXXD	ZHHZ	vertrauen	genießen	gütig	träumen	sonnig	küssen	versagen	gemein	gierig	töten	sterben	krank	1	acq_USpleas_CSpleas2_RW	acq4567_RW	4	67	400	0	300	300	134	50	0	1	1	blank2r.bmp	0	1	+	0	1	blank2r.bmp	492	1	JQQJ	492	1	blank2r.bmp	572	1	träumen	866	1	!	-1	1	!	-1	0	0	0	0	0	0	0	0	0	0	0	0	0	0	0	0	0	0	0	0	0	0	0	0	0	0	0	0	0	0
072319	13:33:04	13:39:02	357437	5.0.10.0	5_exp_RW	79	Rpleas_acq	CS_A	YFFY	JQQJ	LWWL	CPPC	DXXD	ZHHZ	vertrauen	genießen	gütig	träumen	sonnig	küssen	versagen	gemein	gierig	töten	sterben	krank	1	acq_USunple_CSunple1_RW	acq4567_RW	4	68	400	0	300	300	49	50	0	0	1	blank2r.bmp	0	1	+	0	1	blank2r.bmp	492	1	LWWL	492	1	blank2r.bmp	572	3	gierig	866	1	!	-1	1	!	-1	0	0	0	0	0	0	0	0	0	0	0	0	0	0	0	0	0	0	0	0	0	0	0	0	0	0	0	0	0	0
072319	13:33:04	13:39:04	359596	5.0.10.0	5_exp_RW	79	Rpleas_acq	CS_A	YFFY	JQQJ	LWWL	CPPC	DXXD	ZHHZ	vertrauen	genießen	gütig	träumen	sonnig	küssen	versagen	gemein	gierig	töten	sterben	krank	1	acq_USunple_CSunple2_RW	acq4567_RW	4	69	400	1	300	300	358	50	0	0	1	blank2r.bmp	0	1	+	0	1	blank2r.bmp	492	1	CPPC	492	1	blank2r.bmp	572	2	sterben	866	1	!	1239	1	!	1252	0	0	0	0	0	0	0	0	0	0	0	0	0	0	0	0	0	0	0	0	0	0	0	0	0	0	0	0	0	0
072319	13:33:04	13:39:06	361741	5.0.10.0	5_exp_RW	79	Rpleas_acq	CS_A	YFFY	JQQJ	LWWL	CPPC	DXXD	ZHHZ	vertrauen	genießen	gütig	träumen	sonnig	küssen	versagen	gemein	gierig	töten	sterben	krank	1	acq_USpleas_CSpleas2_RW	acq4567_RW	4	70	400	1	300	300	346	50	0	1	1	blank2r.bmp	0	1	+	0	1	blank2r.bmp	492	1	JQQJ	492	1	blank2r.bmp	572	3	küssen	866	1	!	1239	1	!	1252	0	0	0	0	0	0	0	0	0	0	0	0	0	0	0	0	0	0	0	0	0	0	0	0	0	0	0	0	0	0
072319	13:33:04	13:39:08	363834	5.0.10.0	5_exp_RW	79	Rpleas_acq	CS_A	YFFY	JQQJ	LWWL	CPPC	DXXD	ZHHZ	vertrauen	genießen	gütig	träumen	sonnig	küssen	versagen	gemein	gierig	töten	sterben	krank	1	acq_USunple_CSunple1_RW	acq4567_RW	4	71	400	0	300	300	318	50	0	0	1	blank2r.bmp	0	1	+	0	1	blank2r.bmp	492	1	LWWL	492	1	blank2r.bmp	572	2	gemein	866	1	!	-1	1	!	-1	0	0	0	0	0	0	0	0	0	0	0	0	0	0	0	0	0	0	0	0	0	0	0	0	0	0	0	0	0	0
072319	13:33:04	13:39:10	366299	5.0.10.0	5_exp_RW	79	Rpleas_acq	CS_A	YFFY	JQQJ	LWWL	CPPC	DXXD	ZHHZ	vertrauen	genießen	gütig	träumen	sonnig	küssen	versagen	gemein	gierig	töten	sterben	krank	1	acq_USpleas_CSpleas2_RW	acq4567_RW	4	72	400	0	300	300	685	50	0	1	1	blank2r.bmp	0	1	+	0	1	blank2r.bmp	492	1	JQQJ	492	1	blank2r.bmp	572	2	sonnig	866	1	!	1239	1	!	-1	0	0	0	0	0	0	0	0	0	0	0	0	0	0	0	0	0	0	0	0	0	0	0	0	0	0	0	0	0	0
072319	13:33:04	13:39:12	368299	5.0.10.0	5_exp_RW	79	Rpleas_acq	CS_A	YFFY	JQQJ	LWWL	CPPC	DXXD	ZHHZ	vertrauen	genießen	gütig	träumen	sonnig	küssen	versagen	gemein	gierig	töten	sterben	krank	1	acq_USunple_CSunple2_RW	acq4567_RW	4	73	400	0	300	300	220	50	0	0	1	blank2r.bmp	0	1	+	0	1	blank2r.bmp	492	1	CPPC	492	1	blank2r.bmp	572	1	töten	866	1	!	-1	1	!	-1	0	0	0	0	0	0	0	0	0	0	0	0	0	0	0	0	0	0	0	0	0	0	0	0	0	0	0	0	0	0
072319	13:33:04	13:39:14	370298	5.0.10.0	5_exp_RW	79	Rpleas_acq	CS_A	YFFY	JQQJ	LWWL	CPPC	DXXD	ZHHZ	vertrauen	genießen	gütig	träumen	sonnig	küssen	versagen	gemein	gierig	töten	sterben	krank	1	acq_USunple_CSunple1_RW	acq4567_RW	4	74	400	0	300	300	221	50	0	0	1	blank2r.bmp	0	1	+	0	1	blank2r.bmp	492	1	LWWL	492	1	blank2r.bmp	572	1	versagen	866	1	!	-1	1	!	-1	0	0	0	0	0	0	0	0	0	0	0	0	0	0	0	0	0	0	0	0	0	0	0	0	0	0	0	0	0	0
072319	13:33:04	13:39:17	373017	5.0.10.0	5_exp_RW	79	Rpleas_acq	CS_A	YFFY	JQQJ	LWWL	CPPC	DXXD	ZHHZ	vertrauen	genießen	gütig	träumen	sonnig	küssen	versagen	gemein	gierig	töten	sterben	krank	1	acq_USunple_CSunple2_RW	acq4567_RW	4	75	400	0	300	300	930	50	0	0	1	blank2r.bmp	0	1	+	0	1	blank2r.bmp	492	1	CPPC	492	1	blank2r.bmp	572	2	sterben	866	1	!	1239	1	!	-1	0	0	0	0	0	0	0	0	0	0	0	0	0	0	0	0	0	0	0	0	0	0	0	0	0	0	0	0	0	0
072319	13:33:04	13:39:19	375269	5.0.10.0	5_exp_RW	79	Rpleas_acq	CS_A	YFFY	JQQJ	LWWL	CPPC	DXXD	ZHHZ	vertrauen	genießen	gütig	träumen	sonnig	küssen	versagen	gemein	gierig	töten	sterben	krank	1	acq_USpleas_CSpleas1_RW	acq4567_RW	4	76	400	1	300	300	444	50	0	1	1	blank2r.bmp	0	1	+	0	1	blank2r.bmp	492	1	YFFY	492	1	blank2r.bmp	572	1	vertrauen	866	1	!	1239	1	!	1346	0	0	0	0	0	0	0	0	0	0	0	0	0	0	0	0	0	0	0	0	0	0	0	0	0	0	0	0	0	0
072319	13:33:04	13:39:21	377215	5.0.10.0	5_exp_RW	79	Rpleas_acq	CS_A	YFFY	JQQJ	LWWL	CPPC	DXXD	ZHHZ	vertrauen	genießen	gütig	träumen	sonnig	küssen	versagen	gemein	gierig	töten	sterben	krank	1	acq_USpleas_CSpleas1_RW	acq4567_RW	4	77	400	0	300	300	179	46	0	0	1	blank2r.bmp	0	1	+	0	1	blank2r.bmp	492	1	YFFY	492	1	blank2r.bmp	572	3	gütig	866	1	!	-1	1	!	-1	0	0	0	0	0	0	0	0	0	0	0	0	0	0	0	0	0	0	0	0	0	0	0	0	0	0	0	0	0	0
072319	13:33:04	13:39:24	379387	5.0.10.0	5_exp_RW	79	Rpleas_acq	CS_A	YFFY	JQQJ	LWWL	CPPC	DXXD	ZHHZ	vertrauen	genießen	gütig	träumen	sonnig	küssen	versagen	gemein	gierig	töten	sterben	krank	1	acq_USunple_CSunple2_RW	acq4567_RW	4	78	400	1	300	300	363	50	0	0	1	blank2r.bmp	0	1	+	0	1	blank2r.bmp	492	1	CPPC	492	1	blank2r.bmp	572	3	krank	866	1	!	1239	1	!	1266	0	0	0	0	0	0	0	0	0	0	0	0	0	0	0	0	0	0	0	0	0	0	0	0	0	0	0	0	0	0
072319	13:33:04	13:39:26	381413	5.0.10.0	5_exp_RW	79	Rpleas_acq	CS_A	YFFY	JQQJ	LWWL	CPPC	DXXD	ZHHZ	vertrauen	genießen	gütig	träumen	sonnig	küssen	versagen	gemein	gierig	töten	sterben	krank	1	acq_USpleas_CSpleas1_RW	acq4567_RW	4	79	400	0	300	300	253	46	0	0	1	blank2r.bmp	0	1	+	0	1	blank2r.bmp	492	1	YFFY	492	1	blank2r.bmp	572	2	genießen	866	1	!	-1	1	!	-1	0	0	0	0	0	0	0	0	0	0	0	0	0	0	0	0	0	0	0	0	0	0	0	0	0	0	0	0	0	0
072319	13:33:04	13:39:28	383386	5.0.10.0	5_exp_RW	79	Rpleas_acq	CS_A	YFFY	JQQJ	LWWL	CPPC	DXXD	ZHHZ	vertrauen	genießen	gütig	träumen	sonnig	küssen	versagen	gemein	gierig	töten	sterben	krank	1	acq_USpleas_CSpleas2_RW	acq4567_RW	4	80	400	0	300	300	192	46	0	0	1	blank2r.bmp	0	1	+	0	1	blank2r.bmp	492	1	JQQJ	492	1	blank2r.bmp	572	1	träumen	866	1	!	-1	1	!	-1	0	0	0	0	0	0	0	0	0	0	0	0	0	0	0	0	0	0	0	0	0	0	0	0	0	0	0	0	0	0
072319	13:33:04	13:39:32	387637	5.0.10.0	5_exp_RW	79	Rpleas_acq	CS_A	YFFY	JQQJ	LWWL	CPPC	DXXD	ZHHZ	vertrauen	genießen	gütig	träumen	sonnig	küssen	versagen	gemein	gierig	töten	sterben	krank	1	acq_USunple_CSunple2_RW	acq4567_RW	5	1	400	0	300	300	224	46	0	1	1	blank2r.bmp	0	1	+	0	1	blank2r.bmp	492	1	CPPC	492	1	blank2r.bmp	572	2	sterben	866	1	!	-1	1	!	-1	0	0	0	0	0	0	0	0	0	0	0	0	0	0	0	0	0	0	0	0	0	0	0	0	0	0	0	0	0	0
072319	13:33:04	13:39:34	389623	5.0.10.0	5_exp_RW	79	Rpleas_acq	CS_A	YFFY	JQQJ	LWWL	CPPC	DXXD	ZHHZ	vertrauen	genießen	gütig	träumen	sonnig	küssen	versagen	gemein	gierig	töten	sterben	krank	1	acq_USpleas_CSpleas1_RW	acq4567_RW	5	2	400	0	300	300	200	50	0	1	1	blank2r.bmp	0	1	+	0	1	blank2r.bmp	492	1	YFFY	492	1	blank2r.bmp	572	3	gütig	866	1	!	-1	1	!	-1	0	0	0	0	0	0	0	0	0	0	0	0	0	0	0	0	0	0	0	0	0	0	0	0	0	0	0	0	0	0
072319	13:33:04	13:39:36	391436	5.0.10.0	5_exp_RW	79	Rpleas_acq	CS_A	YFFY	JQQJ	LWWL	CPPC	DXXD	ZHHZ	vertrauen	genießen	gütig	träumen	sonnig	küssen	versagen	gemein	gierig	töten	sterben	krank	1	acq_USpleas_CSpleas2_RW	acq4567_RW	5	3	400	0	300	300	29	50	0	1	1	blank2r.bmp	0	1	+	0	1	blank2r.bmp	492	1	JQQJ	492	1	blank2r.bmp	572	1	träumen	866	1	!	-1	1	!	-1	0	0	0	0	0	0	0	0	0	0	0	0	0	0	0	0	0	0	0	0	0	0	0	0	0	0	0	0	0	0
072319	13:33:04	13:39:38	393528	5.0.10.0	5_exp_RW	79	Rpleas_acq	CS_A	YFFY	JQQJ	LWWL	CPPC	DXXD	ZHHZ	vertrauen	genießen	gütig	träumen	sonnig	küssen	versagen	gemein	gierig	töten	sterben	krank	1	acq_USunple_CSunple1_RW	acq4567_RW	5	4	400	0	300	300	303	50	0	0	1	blank2r.bmp	0	1	+	0	1	blank2r.bmp	492	1	LWWL	492	1	blank2r.bmp	572	1	versagen	866	1	!	-1	1	!	-1	0	0	0	0	0	0	0	0	0	0	0	0	0	0	0	0	0	0	0	0	0	0	0	0	0	0	0	0	0	0
072319	13:33:04	13:39:40	395407	5.0.10.0	5_exp_RW	79	Rpleas_acq	CS_A	YFFY	JQQJ	LWWL	CPPC	DXXD	ZHHZ	vertrauen	genießen	gütig	träumen	sonnig	küssen	versagen	gemein	gierig	töten	sterben	krank	1	acq_USunple_CSunple1_RW	acq4567_RW	5	5	400	0	300	300	96	50	0	0	1	blank2r.bmp	0	1	+	0	1	blank2r.bmp	492	1	LWWL	492	1	blank2r.bmp	572	2	gemein	866	1	!	-1	1	!	-1	0	0	0	0	0	0	0	0	0	0	0	0	0	0	0	0	0	0	0	0	0	0	0	0	0	0	0	0	0	0
072319	13:33:04	13:39:42	397393	5.0.10.0	5_exp_RW	79	Rpleas_acq	CS_A	YFFY	JQQJ	LWWL	CPPC	DXXD	ZHHZ	vertrauen	genießen	gütig	träumen	sonnig	küssen	versagen	gemein	gierig	töten	sterben	krank	1	acq_USpleas_CSpleas1_RW	acq4567_RW	5	6	400	0	300	300	199	50	0	1	1	blank2r.bmp	0	1	+	0	1	blank2r.bmp	492	1	YFFY	492	1	blank2r.bmp	572	1	vertrauen	866	1	!	-1	1	!	-1	0	0	0	0	0	0	0	0	0	0	0	0	0	0	0	0	0	0	0	0	0	0	0	0	0	0	0	0	0	0
072319	13:33:04	13:39:43	399286	5.0.10.0	5_exp_RW	79	Rpleas_acq	CS_A	YFFY	JQQJ	LWWL	CPPC	DXXD	ZHHZ	vertrauen	genießen	gütig	träumen	sonnig	küssen	versagen	gemein	gierig	töten	sterben	krank	1	acq_USunple_CSunple2_RW	acq4567_RW	5	7	400	0	300	300	112	50	0	0	1	blank2r.bmp	0	1	+	0	1	blank2r.bmp	492	1	CPPC	492	1	blank2r.bmp	572	3	krank	866	1	!	-1	1	!	-1	0	0	0	0	0	0	0	0	0	0	0	0	0	0	0	0	0	0	0	0	0	0	0	0	0	0	0	0	0	0
072319	13:33:04	13:39:45	401298	5.0.10.0	5_exp_RW	79	Rpleas_acq	CS_A	YFFY	JQQJ	LWWL	CPPC	DXXD	ZHHZ	vertrauen	genießen	gütig	träumen	sonnig	küssen	versagen	gemein	gierig	töten	sterben	krank	1	acq_USunple_CSunple1_RW	acq4567_RW	5	8	400	0	300	300	232	50	0	0	1	blank2r.bmp	0	1	+	0	1	blank2r.bmp	492	1	LWWL	492	1	blank2r.bmp	572	3	gierig	866	1	!	-1	1	!	-1	0	0	0	0	0	0	0	0	0	0	0	0	0	0	0	0	0	0	0	0	0	0	0	0	0	0	0	0	0	0
072319	13:33:04	13:39:48	403897	5.0.10.0	5_exp_RW	79	Rpleas_acq	CS_A	YFFY	JQQJ	LWWL	CPPC	DXXD	ZHHZ	vertrauen	genießen	gütig	träumen	sonnig	küssen	versagen	gemein	gierig	töten	sterben	krank	1	acq_USpleas_CSpleas1_RW	acq4567_RW	5	9	400	0	300	300	821	50	0	1	1	blank2r.bmp	0	1	+	0	1	blank2r.bmp	492	1	YFFY	492	1	blank2r.bmp	572	2	genießen	866	1	!	1239	1	!	-1	0	0	0	0	0	0	0	0	0	0	0	0	0	0	0	0	0	0	0	0	0	0	0	0	0	0	0	0	0	0
072319	13:33:04	13:40:01	416945	5.0.10.0	5_exp_RW	79	Rpleas_acq	CS_A	YFFY	JQQJ	LWWL	CPPC	DXXD	ZHHZ	vertrauen	genießen	gütig	träumen	sonnig	küssen	versagen	gemein	gierig	töten	sterben	krank	1	acq_USpleas_CSpleas2_RW	acq4567_RW	5	10	400	0	300	300	11270	50	0	1	1	blank2r.bmp	0	1	+	0	1	blank2r.bmp	492	1	JQQJ	492	1	blank2r.bmp	572	3	küssen	866	1	!	1239	1	!	-1	0	0	0	0	0	0	0	0	0	0	0	0	0	0	0	0	0	0	0	0	0	0	0	0	0	0	0	0	0	0
072319	13:33:04	13:40:03	418997	5.0.10.0	5_exp_RW	79	Rpleas_acq	CS_A	YFFY	JQQJ	LWWL	CPPC	DXXD	ZHHZ	vertrauen	genießen	gütig	träumen	sonnig	küssen	versagen	gemein	gierig	töten	sterben	krank	1	acq_USpleas_CSpleas1_RW	acq4567_RW	5	11	400	0	300	300	275	50	0	1	1	blank2r.bmp	0	1	+	0	1	blank2r.bmp	492	1	YFFY	492	1	blank2r.bmp	572	2	genießen	866	1	!	-1	1	!	-1	0	0	0	0	0	0	0	0	0	0	0	0	0	0	0	0	0	0	0	0	0	0	0	0	0	0	0	0	0	0
072319	13:33:04	13:40:05	420983	5.0.10.0	5_exp_RW	79	Rpleas_acq	CS_A	YFFY	JQQJ	LWWL	CPPC	DXXD	ZHHZ	vertrauen	genießen	gütig	träumen	sonnig	küssen	versagen	gemein	gierig	töten	sterben	krank	1	acq_USpleas_CSpleas2_RW	acq4567_RW	5	12	400	0	300	300	205	50	0	1	1	blank2r.bmp	0	1	+	0	1	blank2r.bmp	492	1	JQQJ	492	1	blank2r.bmp	572	2	sonnig	866	1	!	-1	1	!	-1	0	0	0	0	0	0	0	0	0	0	0	0	0	0	0	0	0	0	0	0	0	0	0	0	0	0	0	0	0	0
072319	13:33:04	13:40:07	422876	5.0.10.0	5_exp_RW	79	Rpleas_acq	CS_A	YFFY	JQQJ	LWWL	CPPC	DXXD	ZHHZ	vertrauen	genießen	gütig	träumen	sonnig	küssen	versagen	gemein	gierig	töten	sterben	krank	1	acq_USunple_CSunple2_RW	acq4567_RW	5	13	400	0	300	300	107	50	0	0	1	blank2r.bmp	0	1	+	0	1	blank2r.bmp	492	1	CPPC	492	1	blank2r.bmp	572	1	töten	866	1	!	-1	1	!	-1	0	0	0	0	0	0	0	0	0	0	0	0	0	0	0	0	0	0	0	0	0	0	0	0	0	0	0	0	0	0
072319	13:33:04	13:40:09	424835	5.0.10.0	5_exp_RW	79	Rpleas_acq	CS_A	YFFY	JQQJ	LWWL	CPPC	DXXD	ZHHZ	vertrauen	genießen	gütig	träumen	sonnig	küssen	versagen	gemein	gierig	töten	sterben	krank	1	acq_USunple_CSunple2_RW	acq4567_RW	5	14	400	0	300	300	175	50	0	0	1	blank2r.bmp	0	1	+	0	1	blank2r.bmp	492	1	CPPC	492	1	blank2r.bmp	572	1	töten	866	1	!	-1	1	!	-1	0	0	0	0	0	0	0	0	0	0	0	0	0	0	0	0	0	0	0	0	0	0	0	0	0	0	0	0	0	0
072319	13:33:04	13:40:11	427021	5.0.10.0	5_exp_RW	79	Rpleas_acq	CS_A	YFFY	JQQJ	LWWL	CPPC	DXXD	ZHHZ	vertrauen	genießen	gütig	träumen	sonnig	küssen	versagen	gemein	gierig	töten	sterben	krank	1	acq_USpleas_CSpleas1_RW	acq4567_RW	5	15	400	1	300	300	363	50	0	1	1	blank2r.bmp	0	1	+	0	1	blank2r.bmp	492	1	YFFY	492	1	blank2r.bmp	572	1	vertrauen	866	1	!	1239	1	!	1266	0	0	0	0	0	0	0	0	0	0	0	0	0	0	0	0	0	0	0	0	0	0	0	0	0	0	0	0	0	0
072319	13:33:04	13:40:14	429793	5.0.10.0	5_exp_RW	79	Rpleas_acq	CS_A	YFFY	JQQJ	LWWL	CPPC	DXXD	ZHHZ	vertrauen	genießen	gütig	träumen	sonnig	küssen	versagen	gemein	gierig	töten	sterben	krank	1	acq_USunple_CSunple1_RW	acq4567_RW	5	16	400	0	300	300	1006	50	0	0	1	blank2r.bmp	0	1	+	0	1	blank2r.bmp	492	1	LWWL	492	1	blank2r.bmp	572	2	gemein	866	1	!	1239	1	!	-1	0	0	0	0	0	0	0	0	0	0	0	0	0	0	0	0	0	0	0	0	0	0	0	0	0	0	0	0	0	0
072319	13:33:04	13:40:16	432019	5.0.10.0	5_exp_RW	79	Rpleas_acq	CS_A	YFFY	JQQJ	LWWL	CPPC	DXXD	ZHHZ	vertrauen	genießen	gütig	träumen	sonnig	küssen	versagen	gemein	gierig	töten	sterben	krank	1	acq_USpleas_CSpleas2_RW	acq4567_RW	5	17	400	1	300	300	422	50	0	1	1	blank2r.bmp	0	1	+	0	1	blank2r.bmp	492	1	JQQJ	492	1	blank2r.bmp	572	3	küssen	866	1	!	1239	1	!	1319	0	0	0	0	0	0	0	0	0	0	0	0	0	0	0	0	0	0	0	0	0	0	0	0	0	0	0	0	0	0
072319	13:33:04	13:40:18	434284	5.0.10.0	5_exp_RW	79	Rpleas_acq	CS_A	YFFY	JQQJ	LWWL	CPPC	DXXD	ZHHZ	vertrauen	genießen	gütig	träumen	sonnig	küssen	versagen	gemein	gierig	töten	sterben	krank	1	acq_USpleas_CSpleas2_RW	acq4567_RW	5	18	400	0	300	300	500	50	0	1	1	blank2r.bmp	0	1	+	0	1	blank2r.bmp	492	1	JQQJ	492	1	blank2r.bmp	572	1	träumen	866	1	!	1239	1	!	-1	0	0	0	0	0	0	0	0	0	0	0	0	0	0	0	0	0	0	0	0	0	0	0	0	0	0	0	0	0	0
072319	13:33:04	13:40:20	436097	5.0.10.0	5_exp_RW	79	Rpleas_acq	CS_A	YFFY	JQQJ	LWWL	CPPC	DXXD	ZHHZ	vertrauen	genießen	gütig	träumen	sonnig	küssen	versagen	gemein	gierig	töten	sterben	krank	1	acq_USunple_CSunple2_RW	acq4567_RW	5	19	400	0	300	300	27	50	0	0	1	blank2r.bmp	0	1	+	0	1	blank2r.bmp	492	1	CPPC	492	1	blank2r.bmp	572	2	sterben	866	1	!	-1	1	!	-1	0	0	0	0	0	0	0	0	0	0	0	0	0	0	0	0	0	0	0	0	0	0	0	0	0	0	0	0	0	0
072319	13:33:04	13:40:22	438043	5.0.10.0	5_exp_RW	79	Rpleas_acq	CS_A	YFFY	JQQJ	LWWL	CPPC	DXXD	ZHHZ	vertrauen	genießen	gütig	träumen	sonnig	küssen	versagen	gemein	gierig	töten	sterben	krank	1	acq_USunple_CSunple1_RW	acq4567_RW	5	20	400	0	300	300	151	50	0	0	1	blank2r.bmp	0	1	+	0	1	blank2r.bmp	492	1	LWWL	492	1	blank2r.bmp	572	3	gierig	866	1	!	-1	1	!	-1	0	0	0	0	0	0	0	0	0	0	0	0	0	0	0	0	0	0	0	0	0	0	0	0	0	0	0	0	0	0
072319	13:33:04	13:40:24	439842	5.0.10.0	5_exp_RW	79	Rpleas_acq	CS_A	YFFY	JQQJ	LWWL	CPPC	DXXD	ZHHZ	vertrauen	genießen	gütig	träumen	sonnig	küssen	versagen	gemein	gierig	töten	sterben	krank	1	acq_USpleas_CSpleas1_RW	acq4567_RW	5	21	400	0	300	300	24	50	0	1	1	blank2r.bmp	0	1	+	0	1	blank2r.bmp	492	1	YFFY	492	1	blank2r.bmp	572	3	gütig	866	1	!	-1	1	!	-1	0	0	0	0	0	0	0	0	0	0	0	0	0	0	0	0	0	0	0	0	0	0	0	0	0	0	0	0	0	0
072319	13:33:04	13:40:31	446386	5.0.10.0	5_exp_RW	79	Rpleas_acq	CS_A	YFFY	JQQJ	LWWL	CPPC	DXXD	ZHHZ	vertrauen	genießen	gütig	träumen	sonnig	küssen	versagen	gemein	gierig	töten	sterben	krank	1	acq_USunple_CSunple1_RW	acq4567_RW	5	22	400	0	300	300	4755	50	0	0	1	blank2r.bmp	0	1	+	0	1	blank2r.bmp	492	1	LWWL	492	1	blank2r.bmp	572	1	versagen	866	1	!	1239	1	!	-1	0	0	0	0	0	0	0	0	0	0	0	0	0	0	0	0	0	0	0	0	0	0	0	0	0	0	0	0	0	0
072319	13:33:04	13:40:32	448332	5.0.10.0	5_exp_RW	79	Rpleas_acq	CS_A	YFFY	JQQJ	LWWL	CPPC	DXXD	ZHHZ	vertrauen	genießen	gütig	träumen	sonnig	küssen	versagen	gemein	gierig	töten	sterben	krank	1	acq_USunple_CSunple1_RW	acq4567_RW	5	23	400	0	300	300	164	50	0	0	1	blank2r.bmp	0	1	+	0	1	blank2r.bmp	492	1	LWWL	492	1	blank2r.bmp	572	3	gierig	866	1	!	-1	1	!	-1	0	0	0	0	0	0	0	0	0	0	0	0	0	0	0	0	0	0	0	0	0	0	0	0	0	0	0	0	0	0
072319	13:33:04	13:40:34	450291	5.0.10.0	5_exp_RW	79	Rpleas_acq	CS_A	YFFY	JQQJ	LWWL	CPPC	DXXD	ZHHZ	vertrauen	genießen	gütig	träumen	sonnig	küssen	versagen	gemein	gierig	töten	sterben	krank	1	acq_USpleas_CSpleas2_RW	acq4567_RW	5	24	400	0	300	300	183	50	0	1	1	blank2r.bmp	0	1	+	0	1	blank2r.bmp	492	1	JQQJ	492	1	blank2r.bmp	572	2	sonnig	866	1	!	-1	1	!	-1	0	0	0	0	0	0	0	0	0	0	0	0	0	0	0	0	0	0	0	0	0	0	0	0	0	0	0	0	0	0
072319	13:33:04	13:40:36	452184	5.0.10.0	5_exp_RW	79	Rpleas_acq	CS_A	YFFY	JQQJ	LWWL	CPPC	DXXD	ZHHZ	vertrauen	genießen	gütig	träumen	sonnig	küssen	versagen	gemein	gierig	töten	sterben	krank	1	acq_USunple_CSunple1_RW	acq4567_RW	5	25	400	0	300	300	110	50	0	0	1	blank2r.bmp	0	1	+	0	1	blank2r.bmp	492	1	LWWL	492	1	blank2r.bmp	572	2	gemein	866	1	!	-1	1	!	-1	0	0	0	0	0	0	0	0	0	0	0	0	0	0	0	0	0	0	0	0	0	0	0	0	0	0	0	0	0	0
072319	13:33:04	13:40:38	454036	5.0.10.0	5_exp_RW	79	Rpleas_acq	CS_A	YFFY	JQQJ	LWWL	CPPC	DXXD	ZHHZ	vertrauen	genießen	gütig	träumen	sonnig	küssen	versagen	gemein	gierig	töten	sterben	krank	1	acq_USunple_CSunple2_RW	acq4567_RW	5	26	400	0	300	300	76	50	0	0	1	blank2r.bmp	0	1	+	0	1	blank2r.bmp	492	1	CPPC	492	1	blank2r.bmp	572	3	krank	866	1	!	-1	1	!	-1	0	0	0	0	0	0	0	0	0	0	0	0	0	0	0	0	0	0	0	0	0	0	0	0	0	0	0	0	0	0
072319	13:33:04	13:40:41	456408	5.0.10.0	5_exp_RW	79	Rpleas_acq	CS_A	YFFY	JQQJ	LWWL	CPPC	DXXD	ZHHZ	vertrauen	genießen	gütig	träumen	sonnig	küssen	versagen	gemein	gierig	töten	sterben	krank	1	acq_USunple_CSunple2_RW	acq4567_RW	5	27	400	0	300	300	591	50	0	0	1	blank2r.bmp	0	1	+	0	1	blank2r.bmp	492	1	CPPC	492	1	blank2r.bmp	572	2	sterben	866	1	!	1239	1	!	-1	0	0	0	0	0	0	0	0	0	0	0	0	0	0	0	0	0	0	0	0	0	0	0	0	0	0	0	0	0	0
072319	13:33:04	13:40:42	458274	5.0.10.0	5_exp_RW	79	Rpleas_acq	CS_A	YFFY	JQQJ	LWWL	CPPC	DXXD	ZHHZ	vertrauen	genießen	gütig	träumen	sonnig	küssen	versagen	gemein	gierig	töten	sterben	krank	1	acq_USpleas_CSpleas1_RW	acq4567_RW	5	28	400	0	300	300	73	50	0	1	1	blank2r.bmp	0	1	+	0	1	blank2r.bmp	492	1	YFFY	492	1	blank2r.bmp	572	1	vertrauen	866	1	!	-1	1	!	-1	0	0	0	0	0	0	0	0	0	0	0	0	0	0	0	0	0	0	0	0	0	0	0	0	0	0	0	0	0	0
072319	13:33:04	13:41:18	494273	5.0.10.0	5_exp_RW	79	Rpleas_acq	CS_A	YFFY	JQQJ	LWWL	CPPC	DXXD	ZHHZ	vertrauen	genießen	gütig	träumen	sonnig	küssen	versagen	gemein	gierig	töten	sterben	krank	1	acq_USpleas_CSpleas1_RW	acq4567_RW	5	29	400	0	300	300	34223	46	0	0	1	blank2r.bmp	0	1	+	0	1	blank2r.bmp	492	1	YFFY	492	1	blank2r.bmp	572	2	genießen	866	1	!	1239	1	!	-1	0	0	0	0	0	0	0	0	0	0	0	0	0	0	0	0	0	0	0	0	0	0	0	0	0	0	0	0	0	0
072319	13:33:04	13:41:20	496259	5.0.10.0	5_exp_RW	79	Rpleas_acq	CS_A	YFFY	JQQJ	LWWL	CPPC	DXXD	ZHHZ	vertrauen	genießen	gütig	träumen	sonnig	küssen	versagen	gemein	gierig	töten	sterben	krank	1	acq_USpleas_CSpleas2_RW	acq4567_RW	5	30	400	0	300	300	208	50	0	1	1	blank2r.bmp	0	1	+	0	1	blank2r.bmp	492	1	JQQJ	492	1	blank2r.bmp	572	1	träumen	866	1	!	-1	1	!	-1	0	0	0	0	0	0	0	0	0	0	0	0	0	0	0	0	0	0	0	0	0	0	0	0	0	0	0	0	0	0
072319	13:33:04	13:41:22	498111	5.0.10.0	5_exp_RW	79	Rpleas_acq	CS_A	YFFY	JQQJ	LWWL	CPPC	DXXD	ZHHZ	vertrauen	genießen	gütig	träumen	sonnig	küssen	versagen	gemein	gierig	töten	sterben	krank	1	acq_USunple_CSunple1_RW	acq4567_RW	5	31	400	0	300	300	71	50	0	0	1	blank2r.bmp	0	1	+	0	1	blank2r.bmp	492	1	LWWL	492	1	blank2r.bmp	572	1	versagen	866	1	!	-1	1	!	-1	0	0	0	0	0	0	0	0	0	0	0	0	0	0	0	0	0	0	0	0	0	0	0	0	0	0	0	0	0	0
072319	13:33:04	13:41:24	500004	5.0.10.0	5_exp_RW	79	Rpleas_acq	CS_A	YFFY	JQQJ	LWWL	CPPC	DXXD	ZHHZ	vertrauen	genießen	gütig	träumen	sonnig	küssen	versagen	gemein	gierig	töten	sterben	krank	1	acq_USpleas_CSpleas2_RW	acq4567_RW	5	32	400	0	300	300	114	46	0	0	1	blank2r.bmp	0	1	+	0	1	blank2r.bmp	492	1	JQQJ	492	1	blank2r.bmp	572	2	sonnig	866	1	!	-1	1	!	-1	0	0	0	0	0	0	0	0	0	0	0	0	0	0	0	0	0	0	0	0	0	0	0	0	0	0	0	0	0	0
072319	13:33:04	13:41:26	501816	5.0.10.0	5_exp_RW	79	Rpleas_acq	CS_A	YFFY	JQQJ	LWWL	CPPC	DXXD	ZHHZ	vertrauen	genießen	gütig	träumen	sonnig	küssen	versagen	gemein	gierig	töten	sterben	krank	1	acq_USpleas_CSpleas1_RW	acq4567_RW	5	33	400	0	300	300	39	50	0	1	1	blank2r.bmp	0	1	+	0	1	blank2r.bmp	492	1	YFFY	492	1	blank2r.bmp	572	3	gütig	866	1	!	-1	1	!	-1	0	0	0	0	0	0	0	0	0	0	0	0	0	0	0	0	0	0	0	0	0	0	0	0	0	0	0	0	0	0
072319	13:33:04	13:41:28	503629	5.0.10.0	5_exp_RW	79	Rpleas_acq	CS_A	YFFY	JQQJ	LWWL	CPPC	DXXD	ZHHZ	vertrauen	genießen	gütig	träumen	sonnig	küssen	versagen	gemein	gierig	töten	sterben	krank	1	acq_USpleas_CSpleas2_RW	acq4567_RW	5	34	400	0	300	300	35	46	0	0	1	blank2r.bmp	0	1	+	0	1	blank2r.bmp	492	1	JQQJ	492	1	blank2r.bmp	572	3	küssen	866	1	!	-1	1	!	-1	0	0	0	0	0	0	0	0	0	0	0	0	0	0	0	0	0	0	0	0	0	0	0	0	0	0	0	0	0	0
072319	13:33:04	13:41:32	507747	5.0.10.0	5_exp_RW	79	Rpleas_acq	CS_A	YFFY	JQQJ	LWWL	CPPC	DXXD	ZHHZ	vertrauen	genießen	gütig	träumen	sonnig	küssen	versagen	gemein	gierig	töten	sterben	krank	1	acq_USunple_CSunple1_RW	acq4567_RW	5	35	400	0	300	300	2335	46	0	1	1	blank2r.bmp	0	1	+	0	1	blank2r.bmp	492	1	LWWL	492	1	blank2r.bmp	572	3	gierig	866	1	!	1239	1	!	-1	0	0	0	0	0	0	0	0	0	0	0	0	0	0	0	0	0	0	0	0	0	0	0	0	0	0	0	0	0	0
072319	13:33:04	13:41:35	511052	5.0.10.0	5_exp_RW	79	Rpleas_acq	CS_A	YFFY	JQQJ	LWWL	CPPC	DXXD	ZHHZ	vertrauen	genießen	gütig	träumen	sonnig	küssen	versagen	gemein	gierig	töten	sterben	krank	1	acq_USunple_CSunple2_RW	acq4567_RW	5	36	400	0	300	300	1504	50	0	0	1	blank2r.bmp	0	1	+	0	1	blank2r.bmp	492	1	CPPC	492	1	blank2r.bmp	572	1	töten	866	1	!	1239	1	!	-1	0	0	0	0	0	0	0	0	0	0	0	0	0	0	0	0	0	0	0	0	0	0	0	0	0	0	0	0	0	0
072319	13:33:04	13:41:37	513305	5.0.10.0	5_exp_RW	79	Rpleas_acq	CS_A	YFFY	JQQJ	LWWL	CPPC	DXXD	ZHHZ	vertrauen	genießen	gütig	träumen	sonnig	küssen	versagen	gemein	gierig	töten	sterben	krank	1	acq_USpleas_CSpleas2_RW	acq4567_RW	5	37	400	1	300	300	445	46	0	0	1	blank2r.bmp	0	1	+	0	1	blank2r.bmp	492	1	JQQJ	492	1	blank2r.bmp	572	1	träumen	866	1	!	1239	1	!	1346	0	0	0	0	0	0	0	0	0	0	0	0	0	0	0	0	0	0	0	0	0	0	0	0	0	0	0	0	0	0
072319	13:33:04	13:41:39	515317	5.0.10.0	5_exp_RW	79	Rpleas_acq	CS_A	YFFY	JQQJ	LWWL	CPPC	DXXD	ZHHZ	vertrauen	genießen	gütig	träumen	sonnig	küssen	versagen	gemein	gierig	töten	sterben	krank	1	acq_USpleas_CSpleas1_RW	acq4567_RW	5	38	400	0	300	300	243	46	0	0	1	blank2r.bmp	0	1	+	0	1	blank2r.bmp	492	1	YFFY	492	1	blank2r.bmp	572	3	gütig	866	1	!	-1	1	!	-1	0	0	0	0	0	0	0	0	0	0	0	0	0	0	0	0	0	0	0	0	0	0	0	0	0	0	0	0	0	0
072319	13:33:04	13:41:42	517370	5.0.10.0	5_exp_RW	79	Rpleas_acq	CS_A	YFFY	JQQJ	LWWL	CPPC	DXXD	ZHHZ	vertrauen	genießen	gütig	träumen	sonnig	küssen	versagen	gemein	gierig	töten	sterben	krank	1	acq_USunple_CSunple2_RW	acq4567_RW	5	39	400	0	300	300	277	46	0	1	1	blank2r.bmp	0	1	+	0	1	blank2r.bmp	492	1	CPPC	492	1	blank2r.bmp	572	3	krank	866	1	!	-1	1	!	-1	0	0	0	0	0	0	0	0	0	0	0	0	0	0	0	0	0	0	0	0	0	0	0	0	0	0	0	0	0	0
072319	13:33:04	13:41:43	519196	5.0.10.0	5_exp_RW	79	Rpleas_acq	CS_A	YFFY	JQQJ	LWWL	CPPC	DXXD	ZHHZ	vertrauen	genießen	gütig	träumen	sonnig	küssen	versagen	gemein	gierig	töten	sterben	krank	1	acq_USunple_CSunple2_RW	acq4567_RW	5	40	400	0	300	300	51	46	0	1	1	blank2r.bmp	0	1	+	0	1	blank2r.bmp	492	1	CPPC	492	1	blank2r.bmp	572	1	töten	866	1	!	-1	1	!	-1	0	0	0	0	0	0	0	0	0	0	0	0	0	0	0	0	0	0	0	0	0	0	0	0	0	0	0	0	0	0
072319	13:33:04	13:41:45	521061	5.0.10.0	5_exp_RW	79	Rpleas_acq	CS_A	YFFY	JQQJ	LWWL	CPPC	DXXD	ZHHZ	vertrauen	genießen	gütig	träumen	sonnig	küssen	versagen	gemein	gierig	töten	sterben	krank	1	acq_USpleas_CSpleas1_RW	acq4567_RW	5	41	400	0	300	300	79	46	0	0	1	blank2r.bmp	0	1	+	0	1	blank2r.bmp	492	1	YFFY	492	1	blank2r.bmp	572	1	vertrauen	866	1	!	-1	1	!	-1	0	0	0	0	0	0	0	0	0	0	0	0	0	0	0	0	0	0	0	0	0	0	0	0	0	0	0	0	0	0
072319	13:33:04	13:41:47	522967	5.0.10.0	5_exp_RW	79	Rpleas_acq	CS_A	YFFY	JQQJ	LWWL	CPPC	DXXD	ZHHZ	vertrauen	genießen	gütig	träumen	sonnig	küssen	versagen	gemein	gierig	töten	sterben	krank	1	acq_USpleas_CSpleas1_RW	acq4567_RW	5	42	400	0	300	300	122	50	0	1	1	blank2r.bmp	0	1	+	0	1	blank2r.bmp	492	1	YFFY	492	1	blank2r.bmp	572	2	genießen	866	1	!	-1	1	!	-1	0	0	0	0	0	0	0	0	0	0	0	0	0	0	0	0	0	0	0	0	0	0	0	0	0	0	0	0	0	0
072319	13:33:04	13:41:49	525233	5.0.10.0	5_exp_RW	79	Rpleas_acq	CS_A	YFFY	JQQJ	LWWL	CPPC	DXXD	ZHHZ	vertrauen	genießen	gütig	träumen	sonnig	küssen	versagen	gemein	gierig	töten	sterben	krank	1	acq_USpleas_CSpleas2_RW	acq4567_RW	5	43	400	0	300	300	479	50	0	1	1	blank2r.bmp	0	1	+	0	1	blank2r.bmp	492	1	JQQJ	492	1	blank2r.bmp	572	3	küssen	866	1	!	1239	1	!	-1	0	0	0	0	0	0	0	0	0	0	0	0	0	0	0	0	0	0	0	0	0	0	0	0	0	0	0	0	0	0
072319	13:33:04	13:41:51	527286	5.0.10.0	5_exp_RW	79	Rpleas_acq	CS_A	YFFY	JQQJ	LWWL	CPPC	DXXD	ZHHZ	vertrauen	genießen	gütig	träumen	sonnig	küssen	versagen	gemein	gierig	töten	sterben	krank	1	acq_USpleas_CSpleas2_RW	acq4567_RW	5	44	400	0	300	300	266	50	0	1	1	blank2r.bmp	0	1	+	0	1	blank2r.bmp	492	1	JQQJ	492	1	blank2r.bmp	572	2	sonnig	866	1	!	-1	1	!	-1	0	0	0	0	0	0	0	0	0	0	0	0	0	0	0	0	0	0	0	0	0	0	0	0	0	0	0	0	0	0
072319	13:33:04	13:41:53	529178	5.0.10.0	5_exp_RW	79	Rpleas_acq	CS_A	YFFY	JQQJ	LWWL	CPPC	DXXD	ZHHZ	vertrauen	genießen	gütig	träumen	sonnig	küssen	versagen	gemein	gierig	töten	sterben	krank	1	acq_USunple_CSunple2_RW	acq4567_RW	5	45	400	0	300	300	116	50	0	0	1	blank2r.bmp	0	1	+	0	1	blank2r.bmp	492	1	CPPC	492	1	blank2r.bmp	572	2	sterben	866	1	!	-1	1	!	-1	0	0	0	0	0	0	0	0	0	0	0	0	0	0	0	0	0	0	0	0	0	0	0	0	0	0	0	0	0	0
072319	13:33:04	13:41:56	531590	5.0.10.0	5_exp_RW	79	Rpleas_acq	CS_A	YFFY	JQQJ	LWWL	CPPC	DXXD	ZHHZ	vertrauen	genießen	gütig	träumen	sonnig	küssen	versagen	gemein	gierig	töten	sterben	krank	1	acq_USunple_CSunple1_RW	acq4567_RW	5	46	400	0	300	300	625	46	0	1	1	blank2r.bmp	0	1	+	0	1	blank2r.bmp	492	1	LWWL	492	1	blank2r.bmp	572	2	gemein	866	1	!	1239	1	!	-1	0	0	0	0	0	0	0	0	0	0	0	0	0	0	0	0	0	0	0	0	0	0	0	0	0	0	0	0	0	0
072319	13:33:04	13:41:58	533403	5.0.10.0	5_exp_RW	79	Rpleas_acq	CS_A	YFFY	JQQJ	LWWL	CPPC	DXXD	ZHHZ	vertrauen	genießen	gütig	träumen	sonnig	küssen	versagen	gemein	gierig	töten	sterben	krank	1	acq_USunple_CSunple1_RW	acq4567_RW	5	47	400	0	300	300	27	50	0	0	1	blank2r.bmp	0	1	+	0	1	blank2r.bmp	492	1	LWWL	492	1	blank2r.bmp	572	1	versagen	866	1	!	-1	1	!	-1	0	0	0	0	0	0	0	0	0	0	0	0	0	0	0	0	0	0	0	0	0	0	0	0	0	0	0	0	0	0
072319	13:33:04	13:42:00	535469	5.0.10.0	5_exp_RW	79	Rpleas_acq	CS_A	YFFY	JQQJ	LWWL	CPPC	DXXD	ZHHZ	vertrauen	genießen	gütig	träumen	sonnig	küssen	versagen	gemein	gierig	töten	sterben	krank	1	acq_USunple_CSunple2_RW	acq4567_RW	5	48	400	0	300	300	285	46	0	1	1	blank2r.bmp	0	1	+	0	1	blank2r.bmp	492	1	CPPC	492	1	blank2r.bmp	572	3	krank	866	1	!	-1	1	!	-1	0	0	0	0	0	0	0	0	0	0	0	0	0	0	0	0	0	0	0	0	0	0	0	0	0	0	0	0	0	0
072319	13:33:04	13:42:02	537455	5.0.10.0	5_exp_RW	79	Rpleas_acq	CS_A	YFFY	JQQJ	LWWL	CPPC	DXXD	ZHHZ	vertrauen	genießen	gütig	träumen	sonnig	küssen	versagen	gemein	gierig	töten	sterben	krank	1	acq_USpleas_CSpleas1_RW	acq4567_RW	5	49	400	0	300	300	185	50	0	1	1	blank2r.bmp	0	1	+	0	1	blank2r.bmp	492	1	YFFY	492	1	blank2r.bmp	572	1	vertrauen	866	1	!	-1	1	!	-1	0	0	0	0	0	0	0	0	0	0	0	0	0	0	0	0	0	0	0	0	0	0	0	0	0	0	0	0	0	0
072319	13:33:04	13:42:04	539747	5.0.10.0	5_exp_RW	79	Rpleas_acq	CS_A	YFFY	JQQJ	LWWL	CPPC	DXXD	ZHHZ	vertrauen	genießen	gütig	träumen	sonnig	küssen	versagen	gemein	gierig	töten	sterben	krank	1	acq_USpleas_CSpleas2_RW	acq4567_RW	5	50	400	0	300	300	510	46	0	0	1	blank2r.bmp	0	1	+	0	1	blank2r.bmp	492	1	JQQJ	492	1	blank2r.bmp	572	1	träumen	866	1	!	1239	1	!	-1	0	0	0	0	0	0	0	0	0	0	0	0	0	0	0	0	0	0	0	0	0	0	0	0	0	0	0	0	0	0
072319	13:33:04	13:42:06	541906	5.0.10.0	5_exp_RW	79	Rpleas_acq	CS_A	YFFY	JQQJ	LWWL	CPPC	DXXD	ZHHZ	vertrauen	genießen	gütig	träumen	sonnig	küssen	versagen	gemein	gierig	töten	sterben	krank	1	acq_USunple_CSunple2_RW	acq4567_RW	5	51	400	1	300	300	349	46	0	1	1	blank2r.bmp	0	1	+	0	1	blank2r.bmp	492	1	CPPC	492	1	blank2r.bmp	572	3	krank	866	1	!	1239	1	!	1252	0	0	0	0	0	0	0	0	0	0	0	0	0	0	0	0	0	0	0	0	0	0	0	0	0	0	0	0	0	0
072319	13:33:04	13:42:08	543879	5.0.10.0	5_exp_RW	79	Rpleas_acq	CS_A	YFFY	JQQJ	LWWL	CPPC	DXXD	ZHHZ	vertrauen	genießen	gütig	träumen	sonnig	küssen	versagen	gemein	gierig	töten	sterben	krank	1	acq_USunple_CSunple2_RW	acq4567_RW	5	52	400	0	300	300	206	50	0	0	1	blank2r.bmp	0	1	+	0	1	blank2r.bmp	492	1	CPPC	492	1	blank2r.bmp	572	2	sterben	866	1	!	-1	1	!	-1	0	0	0	0	0	0	0	0	0	0	0	0	0	0	0	0	0	0	0	0	0	0	0	0	0	0	0	0	0	0
072319	13:33:04	13:42:10	545851	5.0.10.0	5_exp_RW	79	Rpleas_acq	CS_A	YFFY	JQQJ	LWWL	CPPC	DXXD	ZHHZ	vertrauen	genießen	gütig	träumen	sonnig	küssen	versagen	gemein	gierig	töten	sterben	krank	1	acq_USunple_CSunple2_RW	acq4567_RW	5	53	400	0	300	300	182	46	0	1	1	blank2r.bmp	0	1	+	0	1	blank2r.bmp	492	1	CPPC	492	1	blank2r.bmp	572	1	töten	866	1	!	-1	1	!	-1	0	0	0	0	0	0	0	0	0	0	0	0	0	0	0	0	0	0	0	0	0	0	0	0	0	0	0	0	0	0
072319	13:33:04	13:42:12	548303	5.0.10.0	5_exp_RW	79	Rpleas_acq	CS_A	YFFY	JQQJ	LWWL	CPPC	DXXD	ZHHZ	vertrauen	genießen	gütig	träumen	sonnig	küssen	versagen	gemein	gierig	töten	sterben	krank	1	acq_USpleas_CSpleas2_RW	acq4567_RW	5	54	400	0	300	300	669	46	0	0	1	blank2r.bmp	0	1	+	0	1	blank2r.bmp	492	1	JQQJ	492	1	blank2r.bmp	572	2	sonnig	866	1	!	1239	1	!	-1	0	0	0	0	0	0	0	0	0	0	0	0	0	0	0	0	0	0	0	0	0	0	0	0	0	0	0	0	0	0
072319	13:33:04	13:42:14	550276	5.0.10.0	5_exp_RW	79	Rpleas_acq	CS_A	YFFY	JQQJ	LWWL	CPPC	DXXD	ZHHZ	vertrauen	genießen	gütig	träumen	sonnig	küssen	versagen	gemein	gierig	töten	sterben	krank	1	acq_USunple_CSunple1_RW	acq4567_RW	5	55	400	0	300	300	189	50	0	0	1	blank2r.bmp	0	1	+	0	1	blank2r.bmp	492	1	LWWL	492	1	blank2r.bmp	572	3	gierig	866	1	!	-1	1	!	-1	0	0	0	0	0	0	0	0	0	0	0	0	0	0	0	0	0	0	0	0	0	0	0	0	0	0	0	0	0	0
072319	13:33:04	13:42:16	552368	5.0.10.0	5_exp_RW	79	Rpleas_acq	CS_A	YFFY	JQQJ	LWWL	CPPC	DXXD	ZHHZ	vertrauen	genießen	gütig	träumen	sonnig	küssen	versagen	gemein	gierig	töten	sterben	krank	1	acq_USpleas_CSpleas1_RW	acq4567_RW	5	56	400	0	300	300	305	46	0	0	1	blank2r.bmp	0	1	+	0	1	blank2r.bmp	492	1	YFFY	492	1	blank2r.bmp	572	2	genießen	866	1	!	-1	1	!	-1	0	0	0	0	0	0	0	0	0	0	0	0	0	0	0	0	0	0	0	0	0	0	0	0	0	0	0	0	0	0
072319	13:33:04	13:42:19	554767	5.0.10.0	5_exp_RW	79	Rpleas_acq	CS_A	YFFY	JQQJ	LWWL	CPPC	DXXD	ZHHZ	vertrauen	genießen	gütig	träumen	sonnig	küssen	versagen	gemein	gierig	töten	sterben	krank	1	acq_USpleas_CSpleas2_RW	acq4567_RW	5	57	400	0	300	300	619	46	0	0	1	blank2r.bmp	0	1	+	0	1	blank2r.bmp	492	1	JQQJ	492	1	blank2r.bmp	572	3	küssen	866	1	!	1239	1	!	-1	0	0	0	0	0	0	0	0	0	0	0	0	0	0	0	0	0	0	0	0	0	0	0	0	0	0	0	0	0	0
072319	13:33:04	13:42:21	556833	5.0.10.0	5_exp_RW	79	Rpleas_acq	CS_A	YFFY	JQQJ	LWWL	CPPC	DXXD	ZHHZ	vertrauen	genießen	gütig	träumen	sonnig	küssen	versagen	gemein	gierig	töten	sterben	krank	1	acq_USunple_CSunple1_RW	acq4567_RW	5	58	400	0	300	300	265	50	0	0	1	blank2r.bmp	0	1	+	0	1	blank2r.bmp	492	1	LWWL	492	1	blank2r.bmp	572	2	gemein	866	1	!	-1	1	!	-1	0	0	0	0	0	0	0	0	0	0	0	0	0	0	0	0	0	0	0	0	0	0	0	0	0	0	0	0	0	0
072319	13:33:04	13:42:23	558859	5.0.10.0	5_exp_RW	79	Rpleas_acq	CS_A	YFFY	JQQJ	LWWL	CPPC	DXXD	ZHHZ	vertrauen	genießen	gütig	träumen	sonnig	küssen	versagen	gemein	gierig	töten	sterben	krank	1	acq_USpleas_CSpleas1_RW	acq4567_RW	5	59	400	0	300	300	243	46	0	0	1	blank2r.bmp	0	1	+	0	1	blank2r.bmp	492	1	YFFY	492	1	blank2r.bmp	572	3	gütig	866	1	!	-1	1	!	-1	0	0	0	0	0	0	0	0	0	0	0	0	0	0	0	0	0	0	0	0	0	0	0	0	0	0	0	0	0	0
072319	13:33:04	13:42:25	561178	5.0.10.0	5_exp_RW	79	Rpleas_acq	CS_A	YFFY	JQQJ	LWWL	CPPC	DXXD	ZHHZ	vertrauen	genießen	gütig	träumen	sonnig	küssen	versagen	gemein	gierig	töten	sterben	krank	1	acq_USunple_CSunple1_RW	acq4567_RW	5	60	400	0	300	300	541	50	0	0	1	blank2r.bmp	0	1	+	0	1	blank2r.bmp	492	1	LWWL	492	1	blank2r.bmp	572	1	versagen	866	1	!	1239	1	!	-1	0	0	0	0	0	0	0	0	0	0	0	0	0	0	0	0	0	0	0	0	0	0	0	0	0	0	0	0	0	0
072319	13:33:04	13:42:27	563364	5.0.10.0	5_exp_RW	79	Rpleas_acq	CS_A	YFFY	JQQJ	LWWL	CPPC	DXXD	ZHHZ	vertrauen	genießen	gütig	träumen	sonnig	küssen	versagen	gemein	gierig	töten	sterben	krank	1	acq_USpleas_CSpleas2_RW	acq4567_RW	5	61	400	1	300	300	361	50	0	1	1	blank2r.bmp	0	1	+	0	1	blank2r.bmp	492	1	JQQJ	492	1	blank2r.bmp	572	1	träumen	866	1	!	1239	1	!	1266	0	0	0	0	0	0	0	0	0	0	0	0	0	0	0	0	0	0	0	0	0	0	0	0	0	0	0	0	0	0
072319	13:33:04	13:42:29	565363	5.0.10.0	5_exp_RW	79	Rpleas_acq	CS_A	YFFY	JQQJ	LWWL	CPPC	DXXD	ZHHZ	vertrauen	genießen	gütig	träumen	sonnig	küssen	versagen	gemein	gierig	töten	sterben	krank	1	acq_USpleas_CSpleas1_RW	acq4567_RW	5	62	400	0	300	300	232	46	0	0	1	blank2r.bmp	0	1	+	0	1	blank2r.bmp	492	1	YFFY	492	1	blank2r.bmp	572	2	genießen	866	1	!	-1	1	!	-1	0	0	0	0	0	0	0	0	0	0	0	0	0	0	0	0	0	0	0	0	0	0	0	0	0	0	0	0	0	0
072319	13:33:04	13:42:32	567535	5.0.10.0	5_exp_RW	79	Rpleas_acq	CS_A	YFFY	JQQJ	LWWL	CPPC	DXXD	ZHHZ	vertrauen	genießen	gütig	träumen	sonnig	küssen	versagen	gemein	gierig	töten	sterben	krank	1	acq_USunple_CSunple2_RW	acq4567_RW	5	63	400	1	300	300	368	50	0	0	1	blank2r.bmp	0	1	+	0	1	blank2r.bmp	492	1	CPPC	492	1	blank2r.bmp	572	1	töten	866	1	!	1239	1	!	1266	0	0	0	0	0	0	0	0	0	0	0	0	0	0	0	0	0	0	0	0	0	0	0	0	0	0	0	0	0	0
072319	13:33:04	13:42:34	569748	5.0.10.0	5_exp_RW	79	Rpleas_acq	CS_A	YFFY	JQQJ	LWWL	CPPC	DXXD	ZHHZ	vertrauen	genießen	gütig	träumen	sonnig	küssen	versagen	gemein	gierig	töten	sterben	krank	1	acq_USpleas_CSpleas1_RW	acq4567_RW	5	64	400	1	300	300	414	50	0	1	1	blank2r.bmp	0	1	+	0	1	blank2r.bmp	492	1	YFFY	492	1	blank2r.bmp	572	1	vertrauen	866	1	!	1239	1	!	1319	0	0	0	0	0	0	0	0	0	0	0	0	0	0	0	0	0	0	0	0	0	0	0	0	0	0	0	0	0	0
072319	13:33:04	13:42:36	571734	5.0.10.0	5_exp_RW	79	Rpleas_acq	CS_A	YFFY	JQQJ	LWWL	CPPC	DXXD	ZHHZ	vertrauen	genießen	gütig	träumen	sonnig	küssen	versagen	gemein	gierig	töten	sterben	krank	1	acq_USunple_CSunple1_RW	acq4567_RW	5	65	400	0	300	300	221	46	0	1	1	blank2r.bmp	0	1	+	0	1	blank2r.bmp	492	1	LWWL	492	1	blank2r.bmp	572	3	gierig	866	1	!	-1	1	!	-1	0	0	0	0	0	0	0	0	0	0	0	0	0	0	0	0	0	0	0	0	0	0	0	0	0	0	0	0	0	0
072319	13:33:04	13:42:38	573839	5.0.10.0	5_exp_RW	79	Rpleas_acq	CS_A	YFFY	JQQJ	LWWL	CPPC	DXXD	ZHHZ	vertrauen	genießen	gütig	träumen	sonnig	küssen	versagen	gemein	gierig	töten	sterben	krank	1	acq_USpleas_CSpleas1_RW	acq4567_RW	5	66	400	0	300	300	324	50	0	1	1	blank2r.bmp	0	1	+	0	1	blank2r.bmp	492	1	YFFY	492	1	blank2r.bmp	572	3	gütig	866	1	!	-1	1	!	-1	0	0	0	0	0	0	0	0	0	0	0	0	0	0	0	0	0	0	0	0	0	0	0	0	0	0	0	0	0	0
072319	13:33:04	13:42:40	575625	5.0.10.0	5_exp_RW	79	Rpleas_acq	CS_A	YFFY	JQQJ	LWWL	CPPC	DXXD	ZHHZ	vertrauen	genießen	gütig	träumen	sonnig	küssen	versagen	gemein	gierig	töten	sterben	krank	1	acq_USunple_CSunple2_RW	acq4567_RW	5	67	400	0	300	300	12	46	0	1	1	blank2r.bmp	0	1	+	0	1	blank2r.bmp	492	1	CPPC	492	1	blank2r.bmp	572	2	sterben	866	1	!	-1	1	!	-1	0	0	0	0	0	0	0	0	0	0	0	0	0	0	0	0	0	0	0	0	0	0	0	0	0	0	0	0	0	0
072319	13:33:04	13:42:42	577611	5.0.10.0	5_exp_RW	79	Rpleas_acq	CS_A	YFFY	JQQJ	LWWL	CPPC	DXXD	ZHHZ	vertrauen	genießen	gütig	träumen	sonnig	küssen	versagen	gemein	gierig	töten	sterben	krank	1	acq_USunple_CSunple1_RW	acq4567_RW	5	68	400	0	300	300	201	50	0	0	1	blank2r.bmp	0	1	+	0	1	blank2r.bmp	492	1	LWWL	492	1	blank2r.bmp	572	1	versagen	866	1	!	-1	1	!	-1	0	0	0	0	0	0	0	0	0	0	0	0	0	0	0	0	0	0	0	0	0	0	0	0	0	0	0	0	0	0
072319	13:33:04	13:42:44	579650	5.0.10.0	5_exp_RW	79	Rpleas_acq	CS_A	YFFY	JQQJ	LWWL	CPPC	DXXD	ZHHZ	vertrauen	genießen	gütig	träumen	sonnig	küssen	versagen	gemein	gierig	töten	sterben	krank	1	acq_USpleas_CSpleas2_RW	acq4567_RW	5	69	400	0	300	300	263	46	0	0	1	blank2r.bmp	0	1	+	0	1	blank2r.bmp	492	1	JQQJ	492	1	blank2r.bmp	572	2	sonnig	866	1	!	-1	1	!	-1	0	0	0	0	0	0	0	0	0	0	0	0	0	0	0	0	0	0	0	0	0	0	0	0	0	0	0	0	0	0
072319	13:33:04	13:42:46	581530	5.0.10.0	5_exp_RW	79	Rpleas_acq	CS_A	YFFY	JQQJ	LWWL	CPPC	DXXD	ZHHZ	vertrauen	genießen	gütig	träumen	sonnig	küssen	versagen	gemein	gierig	töten	sterben	krank	1	acq_USunple_CSunple1_RW	acq4567_RW	5	70	400	0	300	300	94	46	0	1	1	blank2r.bmp	0	1	+	0	1	blank2r.bmp	492	1	LWWL	492	1	blank2r.bmp	572	2	gemein	866	1	!	-1	1	!	-1	0	0	0	0	0	0	0	0	0	0	0	0	0	0	0	0	0	0	0	0	0	0	0	0	0	0	0	0	0	0
072319	13:33:04	13:42:48	583689	5.0.10.0	5_exp_RW	79	Rpleas_acq	CS_A	YFFY	JQQJ	LWWL	CPPC	DXXD	ZHHZ	vertrauen	genießen	gütig	träumen	sonnig	küssen	versagen	gemein	gierig	töten	sterben	krank	1	acq_USunple_CSunple2_RW	acq4567_RW	5	71	400	1	300	300	353	50	0	0	1	blank2r.bmp	0	1	+	0	1	blank2r.bmp	492	1	CPPC	492	1	blank2r.bmp	572	3	krank	866	1	!	1239	1	!	1252	0	0	0	0	0	0	0	0	0	0	0	0	0	0	0	0	0	0	0	0	0	0	0	0	0	0	0	0	0	0
072319	13:33:04	13:42:50	585848	5.0.10.0	5_exp_RW	79	Rpleas_acq	CS_A	YFFY	JQQJ	LWWL	CPPC	DXXD	ZHHZ	vertrauen	genießen	gütig	träumen	sonnig	küssen	versagen	gemein	gierig	töten	sterben	krank	1	acq_USpleas_CSpleas2_RW	acq4567_RW	5	72	400	1	300	300	365	50	0	1	1	blank2r.bmp	0	1	+	0	1	blank2r.bmp	492	1	JQQJ	492	1	blank2r.bmp	572	3	küssen	866	1	!	1239	1	!	1266	0	0	0	0	0	0	0	0	0	0	0	0	0	0	0	0	0	0	0	0	0	0	0	0	0	0	0	0	0	0
072319	13:33:04	13:42:52	587993	5.0.10.0	5_exp_RW	79	Rpleas_acq	CS_A	YFFY	JQQJ	LWWL	CPPC	DXXD	ZHHZ	vertrauen	genießen	gütig	träumen	sonnig	küssen	versagen	gemein	gierig	töten	sterben	krank	1	acq_USpleas_CSpleas1_RW	acq4567_RW	5	73	400	1	300	300	346	46	0	0	1	blank2r.bmp	0	1	+	0	1	blank2r.bmp	492	1	YFFY	492	1	blank2r.bmp	572	3	gütig	866	1	!	1239	1	!	1252	0	0	0	0	0	0	0	0	0	0	0	0	0	0	0	0	0	0	0	0	0	0	0	0	0	0	0	0	0	0
072319	13:33:04	13:42:54	590246	5.0.10.0	5_exp_RW	79	Rpleas_acq	CS_A	YFFY	JQQJ	LWWL	CPPC	DXXD	ZHHZ	vertrauen	genießen	gütig	träumen	sonnig	küssen	versagen	gemein	gierig	töten	sterben	krank	1	acq_USpleas_CSpleas1_RW	acq4567_RW	5	74	400	1	300	300	465	50	0	1	1	blank2r.bmp	0	1	+	0	1	blank2r.bmp	492	1	YFFY	492	1	blank2r.bmp	572	2	genießen	866	1	!	1239	1	!	1359	0	0	0	0	0	0	0	0	0	0	0	0	0	0	0	0	0	0	0	0	0	0	0	0	0	0	0	0	0	0
072319	13:33:04	13:42:57	593151	5.0.10.0	5_exp_RW	79	Rpleas_acq	CS_A	YFFY	JQQJ	LWWL	CPPC	DXXD	ZHHZ	vertrauen	genießen	gütig	träumen	sonnig	küssen	versagen	gemein	gierig	töten	sterben	krank	1	acq_USunple_CSunple2_RW	acq4567_RW	5	75	400	0	300	300	1131	46	0	1	1	blank2r.bmp	0	1	+	0	1	blank2r.bmp	492	1	CPPC	492	1	blank2r.bmp	572	1	töten	866	1	!	1239	1	!	-1	0	0	0	0	0	0	0	0	0	0	0	0	0	0	0	0	0	0	0	0	0	0	0	0	0	0	0	0	0	0
072319	13:33:04	13:43:00	595510	5.0.10.0	5_exp_RW	79	Rpleas_acq	CS_A	YFFY	JQQJ	LWWL	CPPC	DXXD	ZHHZ	vertrauen	genießen	gütig	träumen	sonnig	küssen	versagen	gemein	gierig	töten	sterben	krank	1	acq_USpleas_CSpleas2_RW	acq4567_RW	5	76	400	0	300	300	572	50	0	1	1	blank2r.bmp	0	1	+	0	1	blank2r.bmp	492	1	JQQJ	492	1	blank2r.bmp	572	3	küssen	866	1	!	1239	1	!	-1	0	0	0	0	0	0	0	0	0	0	0	0	0	0	0	0	0	0	0	0	0	0	0	0	0	0	0	0	0	0
072319	13:33:04	13:43:02	597883	5.0.10.0	5_exp_RW	79	Rpleas_acq	CS_A	YFFY	JQQJ	LWWL	CPPC	DXXD	ZHHZ	vertrauen	genießen	gütig	träumen	sonnig	küssen	versagen	gemein	gierig	töten	sterben	krank	1	acq_USunple_CSunple2_RW	acq4567_RW	5	77	400	0	300	300	589	50	0	0	1	blank2r.bmp	0	1	+	0	1	blank2r.bmp	492	1	CPPC	492	1	blank2r.bmp	572	2	sterben	866	1	!	1239	1	!	-1	0	0	0	0	0	0	0	0	0	0	0	0	0	0	0	0	0	0	0	0	0	0	0	0	0	0	0	0	0	0
072319	13:33:04	13:43:05	600495	5.0.10.0	5_exp_RW	79	Rpleas_acq	CS_A	YFFY	JQQJ	LWWL	CPPC	DXXD	ZHHZ	vertrauen	genießen	gütig	träumen	sonnig	küssen	versagen	gemein	gierig	töten	sterben	krank	1	acq_USpleas_CSpleas2_RW	acq4567_RW	5	78	400	0	300	300	826	50	0	1	1	blank2r.bmp	0	1	+	0	1	blank2r.bmp	492	1	JQQJ	492	1	blank2r.bmp	572	1	träumen	866	1	!	1239	1	!	-1	0	0	0	0	0	0	0	0	0	0	0	0	0	0	0	0	0	0	0	0	0	0	0	0	0	0	0	0	0	0
072319	13:33:04	13:43:07	602827	5.0.10.0	5_exp_RW	79	Rpleas_acq	CS_A	YFFY	JQQJ	LWWL	CPPC	DXXD	ZHHZ	vertrauen	genießen	gütig	träumen	sonnig	küssen	versagen	gemein	gierig	töten	sterben	krank	1	acq_USunple_CSunple1_RW	acq4567_RW	5	79	400	0	300	300	551	50	0	0	1	blank2r.bmp	0	1	+	0	1	blank2r.bmp	492	1	LWWL	492	1	blank2r.bmp	572	3	gierig	866	1	!	1239	1	!	-1	0	0	0	0	0	0	0	0	0	0	0	0	0	0	0	0	0	0	0	0	0	0	0	0	0	0	0	0	0	0
072319	13:33:04	13:43:09	605093	5.0.10.0	5_exp_RW	79	Rpleas_acq	CS_A	YFFY	JQQJ	LWWL	CPPC	DXXD	ZHHZ	vertrauen	genießen	gütig	träumen	sonnig	küssen	versagen	gemein	gierig	töten	sterben	krank	1	acq_USunple_CSunple1_RW	acq4567_RW	5	80	400	1	300	300	458	46	0	1	1	blank2r.bmp	0	1	+	0	1	blank2r.bmp	492	1	LWWL	492	1	blank2r.bmp	572	2	gemein	866	1	!	1239	1	!	1359	0	0	0	0	0	0	0	0	0	0	0	0	0	0	0	0	0	0	0	0	0	0	0	0	0	0	0	0	0	0
072319	13:33:04	13:43:14	610131	5.0.10.0	5_exp_RW	79	Rpleas_acq	CS_A	YFFY	JQQJ	LWWL	CPPC	DXXD	ZHHZ	vertrauen	genießen	gütig	träumen	sonnig	küssen	versagen	gemein	gierig	töten	sterben	krank	1	acq_USunple_CSunple1_RW	acq4567_RW	6	1	400	0	300	300	1000	46	0	1	1	blank2r.bmp	0	1	+	0	1	blank2r.bmp	492	1	LWWL	492	1	blank2r.bmp	572	1	versagen	866	1	!	1239	1	!	-1	0	0	0	0	0	0	0	0	0	0	0	0	0	0	0	0	0	0	0	0	0	0	0	0	0	0	0	0	0	0
072319	13:33:04	13:43:16	612357	5.0.10.0	5_exp_RW	79	Rpleas_acq	CS_A	YFFY	JQQJ	LWWL	CPPC	DXXD	ZHHZ	vertrauen	genießen	gütig	träumen	sonnig	küssen	versagen	gemein	gierig	töten	sterben	krank	1	acq_USunple_CSunple2_RW	acq4567_RW	6	2	400	1	300	300	402	46	0	1	1	blank2r.bmp	0	1	+	0	1	blank2r.bmp	492	1	CPPC	492	1	blank2r.bmp	572	3	krank	866	1	!	1239	1	!	1306	0	0	0	0	0	0	0	0	0	0	0	0	0	0	0	0	0	0	0	0	0	0	0	0	0	0	0	0	0	0
072319	13:33:04	13:43:19	614502	5.0.10.0	5_exp_RW	79	Rpleas_acq	CS_A	YFFY	JQQJ	LWWL	CPPC	DXXD	ZHHZ	vertrauen	genießen	gütig	träumen	sonnig	küssen	versagen	gemein	gierig	töten	sterben	krank	1	acq_USunple_CSunple2_RW	acq4567_RW	6	3	400	1	300	300	346	50	0	0	1	blank2r.bmp	0	1	+	0	1	blank2r.bmp	492	1	CPPC	492	1	blank2r.bmp	572	2	sterben	866	1	!	1239	1	!	1252	0	0	0	0	0	0	0	0	0	0	0	0	0	0	0	0	0	0	0	0	0	0	0	0	0	0	0	0	0	0
072319	13:33:04	13:43:21	616768	5.0.10.0	5_exp_RW	79	Rpleas_acq	CS_A	YFFY	JQQJ	LWWL	CPPC	DXXD	ZHHZ	vertrauen	genießen	gütig	träumen	sonnig	küssen	versagen	gemein	gierig	töten	sterben	krank	1	acq_USunple_CSunple2_RW	acq4567_RW	6	4	400	0	300	300	504	50	0	0	1	blank2r.bmp	0	1	+	0	1	blank2r.bmp	492	1	CPPC	492	1	blank2r.bmp	572	3	krank	866	1	!	1239	1	!	-1	0	0	0	0	0	0	0	0	0	0	0	0	0	0	0	0	0	0	0	0	0	0	0	0	0	0	0	0	0	0
072319	13:33:04	13:43:23	619180	5.0.10.0	5_exp_RW	79	Rpleas_acq	CS_A	YFFY	JQQJ	LWWL	CPPC	DXXD	ZHHZ	vertrauen	genießen	gütig	träumen	sonnig	küssen	versagen	gemein	gierig	töten	sterben	krank	1	acq_USpleas_CSpleas2_RW	acq4567_RW	6	5	400	0	300	300	634	46	0	0	1	blank2r.bmp	0	1	+	0	1	blank2r.bmp	492	1	JQQJ	492	1	blank2r.bmp	572	2	sonnig	866	1	!	1239	1	!	-1	0	0	0	0	0	0	0	0	0	0	0	0	0	0	0	0	0	0	0	0	0	0	0	0	0	0	0	0	0	0
072319	13:33:04	13:43:26	621446	5.0.10.0	5_exp_RW	79	Rpleas_acq	CS_A	YFFY	JQQJ	LWWL	CPPC	DXXD	ZHHZ	vertrauen	genießen	gütig	träumen	sonnig	küssen	versagen	gemein	gierig	töten	sterben	krank	1	acq_USunple_CSunple1_RW	acq4567_RW	6	6	400	0	300	300	491	46	0	1	1	blank2r.bmp	0	1	+	0	1	blank2r.bmp	492	1	LWWL	492	1	blank2r.bmp	572	1	versagen	866	1	!	1239	1	!	-1	0	0	0	0	0	0	0	0	0	0	0	0	0	0	0	0	0	0	0	0	0	0	0	0	0	0	0	0	0	0
072319	13:33:04	13:43:28	623739	5.0.10.0	5_exp_RW	79	Rpleas_acq	CS_A	YFFY	JQQJ	LWWL	CPPC	DXXD	ZHHZ	vertrauen	genießen	gütig	träumen	sonnig	küssen	versagen	gemein	gierig	töten	sterben	krank	1	acq_USpleas_CSpleas2_RW	acq4567_RW	6	7	400	0	300	300	514	46	0	0	1	blank2r.bmp	0	1	+	0	1	blank2r.bmp	492	1	JQQJ	492	1	blank2r.bmp	572	2	sonnig	866	1	!	1239	1	!	-1	0	0	0	0	0	0	0	0	0	0	0	0	0	0	0	0	0	0	0	0	0	0	0	0	0	0	0	0	0	0
072319	13:33:04	13:43:30	626071	5.0.10.0	5_exp_RW	79	Rpleas_acq	CS_A	YFFY	JQQJ	LWWL	CPPC	DXXD	ZHHZ	vertrauen	genießen	gütig	träumen	sonnig	küssen	versagen	gemein	gierig	töten	sterben	krank	1	acq_USpleas_CSpleas2_RW	acq4567_RW	6	8	400	0	300	300	545	46	0	0	1	blank2r.bmp	0	1	+	0	1	blank2r.bmp	492	1	JQQJ	492	1	blank2r.bmp	572	3	küssen	866	1	!	1239	1	!	-1	0	0	0	0	0	0	0	0	0	0	0	0	0	0	0	0	0	0	0	0	0	0	0	0	0	0	0	0	0	0
072319	13:33:04	13:43:32	628323	5.0.10.0	5_exp_RW	79	Rpleas_acq	CS_A	YFFY	JQQJ	LWWL	CPPC	DXXD	ZHHZ	vertrauen	genießen	gütig	träumen	sonnig	küssen	versagen	gemein	gierig	töten	sterben	krank	1	acq_USunple_CSunple1_RW	acq4567_RW	6	9	400	1	300	300	441	46	0	1	1	blank2r.bmp	0	1	+	0	1	blank2r.bmp	492	1	LWWL	492	1	blank2r.bmp	572	2	gemein	866	1	!	1239	1	!	1346	0	0	0	0	0	0	0	0	0	0	0	0	0	0	0	0	0	0	0	0	0	0	0	0	0	0	0	0	0	0
072319	13:33:04	13:43:35	630576	5.0.10.0	5_exp_RW	79	Rpleas_acq	CS_A	YFFY	JQQJ	LWWL	CPPC	DXXD	ZHHZ	vertrauen	genießen	gütig	träumen	sonnig	küssen	versagen	gemein	gierig	töten	sterben	krank	1	acq_USunple_CSunple1_RW	acq4567_RW	6	10	400	0	300	300	479	46	0	1	1	blank2r.bmp	0	1	+	0	1	blank2r.bmp	492	1	LWWL	492	1	blank2r.bmp	572	3	gierig	866	1	!	1239	1	!	-1	0	0	0	0	0	0	0	0	0	0	0	0	0	0	0	0	0	0	0	0	0	0	0	0	0	0	0	0	0	0
072319	13:33:04	13:43:38	633654	5.0.10.0	5_exp_RW	79	Rpleas_acq	CS_A	YFFY	JQQJ	LWWL	CPPC	DXXD	ZHHZ	vertrauen	genießen	gütig	träumen	sonnig	küssen	versagen	gemein	gierig	töten	sterben	krank	1	acq_USpleas_CSpleas1_RW	acq4567_RW	6	11	400	0	300	300	1302	50	0	1	1	blank2r.bmp	0	1	+	0	1	blank2r.bmp	492	1	YFFY	492	1	blank2r.bmp	572	1	vertrauen	866	1	!	1239	1	!	-1	0	0	0	0	0	0	0	0	0	0	0	0	0	0	0	0	0	0	0	0	0	0	0	0	0	0	0	0	0	0
072319	13:33:04	13:43:40	635787	5.0.10.0	5_exp_RW	79	Rpleas_acq	CS_A	YFFY	JQQJ	LWWL	CPPC	DXXD	ZHHZ	vertrauen	genießen	gütig	träumen	sonnig	küssen	versagen	gemein	gierig	töten	sterben	krank	1	acq_USpleas_CSpleas2_RW	acq4567_RW	6	12	400	0	300	300	331	46	0	0	1	blank2r.bmp	0	1	+	0	1	blank2r.bmp	492	1	JQQJ	492	1	blank2r.bmp	572	1	träumen	866	1	!	-1	1	!	-1	0	0	0	0	0	0	0	0	0	0	0	0	0	0	0	0	0	0	0	0	0	0	0	0	0	0	0	0	0	0
072319	13:33:04	13:43:42	638053	5.0.10.0	5_exp_RW	79	Rpleas_acq	CS_A	YFFY	JQQJ	LWWL	CPPC	DXXD	ZHHZ	vertrauen	genießen	gütig	träumen	sonnig	küssen	versagen	gemein	gierig	töten	sterben	krank	1	acq_USunple_CSunple2_RW	acq4567_RW	6	13	400	1	300	300	461	46	0	1	1	blank2r.bmp	0	1	+	0	1	blank2r.bmp	492	1	CPPC	492	1	blank2r.bmp	572	1	töten	866	1	!	1239	1	!	1359	0	0	0	0	0	0	0	0	0	0	0	0	0	0	0	0	0	0	0	0	0	0	0	0	0	0	0	0	0	0
