date	time	script.currenttime	script.elapsedtime	build	script.currentexpt	subject	expressions.LRpleas_acq	expressions.conditionCS_A	expressions.CSpleas_1	expressions.CSpleas_2	expressions.CSunple_1	expressions.CSunple_2	expressions.distractor_1	expressions.distractor_2	expressions.US_pleas1	expressions.US_pleas2	expressions.US_pleas3	expressions.US_pleas4	expressions.US_pleas5	expressions.US_pleas6	expressions.US_unple1	expressions.US_unple2	expressions.US_unple3	expressions.US_unple4	expressions.US_unple5	expressions.US_unple6	counter.positions_noRW	trialcode	blockcode	blocknum	trialnum	windowcenter	inwindow	pretrialpause	posttrialpause	latency	response	expressions.correctedscore	correct	stimulusnumber1	stimulusitem1	stimulusonset1	stimulusnumber2	stimulusitem2	stimulusonset2	stimulusnumber3	stimulusitem3	stimulusonset3	stimulusnumber4	stimulusitem4	stimulusonset4	stimulusnumber5	stimulusitem5	stimulusonset5	stimulusnumber6	stimulusitem6	stimulusonset6	stimulusnumber7	stimulusitem7	stimulusonset7	stimulusnumber8	stimulusitem8	stimulusonset8	stimulusnumber9	stimulusitem9	stimulusonset9	stimulusnumber10	stimulusitem10	stimulusonset10	stimulusnumber11	stimulusitem11	stimulusonset11	stimulusnumber12	stimulusitem12	stimulusonset12	stimulusnumber13	stimulusitem13	stimulusonset13	stimulusnumber14	stimulusitem14	stimulusonset14	stimulusnumber15	stimulusitem15	stimulusonset15	stimulusnumber16	stimulusitem16	stimulusonset16	stimulusnumber17	stimulusitem17	stimulusonset17	stimulusnumber18	stimulusitem18	stimulusonset18
070319	15:27:36	15:29:49	132239	5.0.10.0	5_exp_noRW	16	Rpleas_acq	CS_B	BZZB	VKKV	MQQM	YDDY	GWWG	JXXJ	treu	schön	retten	spielen	fair	ehrlich	tot	schlecht	rächen	strafen	faul	eitel	53pct	acq_USpleas_CSunple2_noRW	acq1_noRW	1	1	0	0	300	300	1287	50	0	1	1	blank2r.bmp	0	1	+	0	1	blank2r.bmp	252	1	YDDY	306	1	spielen	559	0	0	0	0	0	0	0	0	0	0	0	0	0	0	0	0	0	0	0	0	0	0	0	0	0	0	0	0	0	0	0	0	0	0	0	0	0	0	0
070319	15:27:36	15:29:50	134011	5.0.10.0	5_exp_noRW	16	Rpleas_acq	CS_B	BZZB	VKKV	MQQM	YDDY	GWWG	JXXJ	treu	schön	retten	spielen	fair	ehrlich	tot	schlecht	rächen	strafen	faul	eitel	47pct	acq_USunple_CSpleas1_noRW	acq1_noRW	1	2	0	0	300	300	597	46	0	1	1	blank2r.bmp	0	1	+	0	1	blank2r.bmp	252	1	BZZB	306	2	schlecht	559	0	0	0	0	0	0	0	0	0	0	0	0	0	0	0	0	0	0	0	0	0	0	0	0	0	0	0	0	0	0	0	0	0	0	0	0	0	0	0
070319	15:27:36	15:29:52	135771	5.0.10.0	5_exp_noRW	16	Rpleas_acq	CS_B	BZZB	VKKV	MQQM	YDDY	GWWG	JXXJ	treu	schön	retten	spielen	fair	ehrlich	tot	schlecht	rächen	strafen	faul	eitel	47pct	acq_USpleas_CSpleas1_noRW	acq1_noRW	1	3	0	0	300	300	584	50	0	1	1	blank2r.bmp	0	1	+	0	1	blank2r.bmp	252	1	BZZB	306	2	schön	559	0	0	0	0	0	0	0	0	0	0	0	0	0	0	0	0	0	0	0	0	0	0	0	0	0	0	0	0	0	0	0	0	0	0	0	0	0	0	0
070319	15:27:36	15:29:54	137677	5.0.10.0	5_exp_noRW	16	Rpleas_acq	CS_B	BZZB	VKKV	MQQM	YDDY	GWWG	JXXJ	treu	schön	retten	spielen	fair	ehrlich	tot	schlecht	rächen	strafen	faul	eitel	53pct	acq_USpleas_CSpleas1_noRW	acq1_noRW	1	4	0	0	300	300	718	50	0	1	1	blank2r.bmp	0	1	+	0	1	blank2r.bmp	252	1	BZZB	306	1	treu	559	0	0	0	0	0	0	0	0	0	0	0	0	0	0	0	0	0	0	0	0	0	0	0	0	0	0	0	0	0	0	0	0	0	0	0	0	0	0	0
070319	15:27:36	15:29:56	139649	5.0.10.0	5_exp_noRW	16	Rpleas_acq	CS_B	BZZB	VKKV	MQQM	YDDY	GWWG	JXXJ	treu	schön	retten	spielen	fair	ehrlich	tot	schlecht	rächen	strafen	faul	eitel	47pct	acq_USunple_CSunple2_noRW	acq1_noRW	1	5	0	0	300	300	797	46	0	1	1	blank2r.bmp	0	1	+	0	1	blank2r.bmp	252	1	YDDY	306	3	eitel	559	0	0	0	0	0	0	0	0	0	0	0	0	0	0	0	0	0	0	0	0	0	0	0	0	0	0	0	0	0	0	0	0	0	0	0	0	0	0	0
070319	15:27:36	15:29:58	141422	5.0.10.0	5_exp_noRW	16	Rpleas_acq	CS_B	BZZB	VKKV	MQQM	YDDY	GWWG	JXXJ	treu	schön	retten	spielen	fair	ehrlich	tot	schlecht	rächen	strafen	faul	eitel	47pct	acq_USunple_CSunple2_noRW	acq1_noRW	1	6	0	0	300	300	585	46	0	1	1	blank2r.bmp	0	1	+	0	1	blank2r.bmp	252	1	YDDY	306	2	faul	559	0	0	0	0	0	0	0	0	0	0	0	0	0	0	0	0	0	0	0	0	0	0	0	0	0	0	0	0	0	0	0	0	0	0	0	0	0	0	0
070319	15:27:36	15:30:00	143274	5.0.10.0	5_exp_noRW	16	Rpleas_acq	CS_B	BZZB	VKKV	MQQM	YDDY	GWWG	JXXJ	treu	schön	retten	spielen	fair	ehrlich	tot	schlecht	rächen	strafen	faul	eitel	47pct	acq_USunple_CSunple2_noRW	acq1_noRW	1	7	0	0	300	300	680	46	0	1	1	blank2r.bmp	0	1	+	0	1	blank2r.bmp	252	1	YDDY	306	1	strafen	559	0	0	0	0	0	0	0	0	0	0	0	0	0	0	0	0	0	0	0	0	0	0	0	0	0	0	0	0	0	0	0	0	0	0	0	0	0	0	0
070319	15:27:36	15:30:01	145007	5.0.10.0	5_exp_noRW	16	Rpleas_acq	CS_B	BZZB	VKKV	MQQM	YDDY	GWWG	JXXJ	treu	schön	retten	spielen	fair	ehrlich	tot	schlecht	rächen	strafen	faul	eitel	53pct	acq_USpleas_CSpleas1_noRW	acq1_noRW	1	8	0	0	300	300	565	50	0	1	1	blank2r.bmp	0	1	+	0	1	blank2r.bmp	252	1	BZZB	306	3	retten	559	0	0	0	0	0	0	0	0	0	0	0	0	0	0	0	0	0	0	0	0	0	0	0	0	0	0	0	0	0	0	0	0	0	0	0	0	0	0	0
070319	15:27:36	15:30:03	146846	5.0.10.0	5_exp_noRW	16	Rpleas_acq	CS_B	BZZB	VKKV	MQQM	YDDY	GWWG	JXXJ	treu	schön	retten	spielen	fair	ehrlich	tot	schlecht	rächen	strafen	faul	eitel	53pct	acq_USunple_CSunple1_noRW	acq1_noRW	1	9	0	0	300	300	672	46	0	1	1	blank2r.bmp	0	1	+	0	1	blank2r.bmp	252	1	MQQM	306	3	rächen	559	0	0	0	0	0	0	0	0	0	0	0	0	0	0	0	0	0	0	0	0	0	0	0	0	0	0	0	0	0	0	0	0	0	0	0	0	0	0	0
070319	15:27:36	15:30:05	148579	5.0.10.0	5_exp_noRW	16	Rpleas_acq	CS_B	BZZB	VKKV	MQQM	YDDY	GWWG	JXXJ	treu	schön	retten	spielen	fair	ehrlich	tot	schlecht	rächen	strafen	faul	eitel	53pct	acq_USunple_CSunple1_noRW	acq1_noRW	1	10	0	0	300	300	571	46	0	1	1	blank2r.bmp	0	1	+	0	1	blank2r.bmp	252	1	MQQM	306	2	schlecht	559	0	0	0	0	0	0	0	0	0	0	0	0	0	0	0	0	0	0	0	0	0	0	0	0	0	0	0	0	0	0	0	0	0	0	0	0	0	0	0
070319	15:27:36	15:30:07	150245	5.0.10.0	5_exp_noRW	16	Rpleas_acq	CS_B	BZZB	VKKV	MQQM	YDDY	GWWG	JXXJ	treu	schön	retten	spielen	fair	ehrlich	tot	schlecht	rächen	strafen	faul	eitel	47pct	acq_USunple_CSpleas2_noRW	acq1_noRW	1	11	0	0	300	300	472	46	0	1	1	blank2r.bmp	0	1	+	0	1	blank2r.bmp	252	1	VKKV	306	1	strafen	559	0	0	0	0	0	0	0	0	0	0	0	0	0	0	0	0	0	0	0	0	0	0	0	0	0	0	0	0	0	0	0	0	0	0	0	0	0	0	0
070319	15:27:36	15:30:08	151871	5.0.10.0	5_exp_noRW	16	Rpleas_acq	CS_B	BZZB	VKKV	MQQM	YDDY	GWWG	JXXJ	treu	schön	retten	spielen	fair	ehrlich	tot	schlecht	rächen	strafen	faul	eitel	53pct	acq_USpleas_CSpleas1_noRW	acq1_noRW	1	12	0	0	300	300	439	50	0	1	1	blank2r.bmp	0	1	+	0	1	blank2r.bmp	252	1	BZZB	306	1	treu	559	0	0	0	0	0	0	0	0	0	0	0	0	0	0	0	0	0	0	0	0	0	0	0	0	0	0	0	0	0	0	0	0	0	0	0	0	0	0	0
070319	15:27:36	15:30:10	153524	5.0.10.0	5_exp_noRW	16	Rpleas_acq	CS_B	BZZB	VKKV	MQQM	YDDY	GWWG	JXXJ	treu	schön	retten	spielen	fair	ehrlich	tot	schlecht	rächen	strafen	faul	eitel	47pct	acq_USpleas_CSpleas2_noRW	acq1_noRW	1	13	0	0	300	300	489	50	0	1	1	blank2r.bmp	0	1	+	0	1	blank2r.bmp	252	1	VKKV	306	1	spielen	559	0	0	0	0	0	0	0	0	0	0	0	0	0	0	0	0	0	0	0	0	0	0	0	0	0	0	0	0	0	0	0	0	0	0	0	0	0	0	0
070319	15:27:36	15:30:12	155256	5.0.10.0	5_exp_noRW	16	Rpleas_acq	CS_B	BZZB	VKKV	MQQM	YDDY	GWWG	JXXJ	treu	schön	retten	spielen	fair	ehrlich	tot	schlecht	rächen	strafen	faul	eitel	47pct	acq_USunple_CSunple1_noRW	acq1_noRW	1	14	0	0	300	300	571	46	0	1	1	blank2r.bmp	0	1	+	0	1	blank2r.bmp	252	1	MQQM	306	1	tot	559	0	0	0	0	0	0	0	0	0	0	0	0	0	0	0	0	0	0	0	0	0	0	0	0	0	0	0	0	0	0	0	0	0	0	0	0	0	0	0
070319	15:27:36	15:30:13	156856	5.0.10.0	5_exp_noRW	16	Rpleas_acq	CS_B	BZZB	VKKV	MQQM	YDDY	GWWG	JXXJ	treu	schön	retten	spielen	fair	ehrlich	tot	schlecht	rächen	strafen	faul	eitel	47pct	acq_USunple_CSunple1_noRW	acq1_noRW	1	15	0	0	300	300	414	46	0	1	1	blank2r.bmp	0	1	+	0	1	blank2r.bmp	252	1	MQQM	306	1	tot	559	0	0	0	0	0	0	0	0	0	0	0	0	0	0	0	0	0	0	0	0	0	0	0	0	0	0	0	0	0	0	0	0	0	0	0	0	0	0	0
070319	15:27:36	15:30:15	158522	5.0.10.0	5_exp_noRW	16	Rpleas_acq	CS_B	BZZB	VKKV	MQQM	YDDY	GWWG	JXXJ	treu	schön	retten	spielen	fair	ehrlich	tot	schlecht	rächen	strafen	faul	eitel	53pct	acq_USpleas_CSunple1_noRW	acq1_noRW	1	16	0	0	300	300	487	50	0	1	1	blank2r.bmp	0	1	+	0	1	blank2r.bmp	252	1	MQQM	306	3	retten	559	0	0	0	0	0	0	0	0	0	0	0	0	0	0	0	0	0	0	0	0	0	0	0	0	0	0	0	0	0	0	0	0	0	0	0	0	0	0	0
070319	15:27:36	15:30:17	160134	5.0.10.0	5_exp_noRW	16	Rpleas_acq	CS_B	BZZB	VKKV	MQQM	YDDY	GWWG	JXXJ	treu	schön	retten	spielen	fair	ehrlich	tot	schlecht	rächen	strafen	faul	eitel	47pct	acq_USpleas_CSpleas2_noRW	acq1_noRW	1	17	0	0	300	300	425	50	0	1	1	blank2r.bmp	0	1	+	0	1	blank2r.bmp	252	1	VKKV	306	3	ehrlich	559	0	0	0	0	0	0	0	0	0	0	0	0	0	0	0	0	0	0	0	0	0	0	0	0	0	0	0	0	0	0	0	0	0	0	0	0	0	0	0
070319	15:27:36	15:30:18	161987	5.0.10.0	5_exp_noRW	16	Rpleas_acq	CS_B	BZZB	VKKV	MQQM	YDDY	GWWG	JXXJ	treu	schön	retten	spielen	fair	ehrlich	tot	schlecht	rächen	strafen	faul	eitel	47pct	acq_USpleas_CSpleas2_noRW	acq1_noRW	1	18	0	0	300	300	461	46	0	0	1	blank2r.bmp	0	1	+	0	1	blank2r.bmp	252	1	VKKV	306	2	fair	559	1	FEHLER	1052	0	0	0	0	0	0	0	0	0	0	0	0	0	0	0	0	0	0	0	0	0	0	0	0	0	0	0	0	0	0	0	0	0	0	0	0
070319	15:27:36	15:30:20	163506	5.0.10.0	5_exp_noRW	16	Rpleas_acq	CS_B	BZZB	VKKV	MQQM	YDDY	GWWG	JXXJ	treu	schön	retten	spielen	fair	ehrlich	tot	schlecht	rächen	strafen	faul	eitel	53pct	acq_USpleas_CSpleas2_noRW	acq1_noRW	1	19	0	0	300	300	548	50	0	1	1	blank2r.bmp	0	1	+	0	1	blank2r.bmp	252	1	VKKV	306	3	ehrlich	559	0	0	0	0	0	0	0	0	0	0	0	0	0	0	0	0	0	0	0	0	0	0	0	0	0	0	0	0	0	0	0	0	0	0	0	0	0	0	0
070319	15:27:36	15:30:21	165066	5.0.10.0	5_exp_noRW	16	Rpleas_acq	CS_B	BZZB	VKKV	MQQM	YDDY	GWWG	JXXJ	treu	schön	retten	spielen	fair	ehrlich	tot	schlecht	rächen	strafen	faul	eitel	47pct	acq_USunple_CSunple2_noRW	acq1_noRW	1	20	0	0	300	300	385	46	0	1	1	blank2r.bmp	0	1	+	0	1	blank2r.bmp	252	1	YDDY	306	1	strafen	559	0	0	0	0	0	0	0	0	0	0	0	0	0	0	0	0	0	0	0	0	0	0	0	0	0	0	0	0	0	0	0	0	0	0	0	0	0	0	0
070319	15:27:36	15:30:23	166865	5.0.10.0	5_exp_noRW	16	Rpleas_acq	CS_B	BZZB	VKKV	MQQM	YDDY	GWWG	JXXJ	treu	schön	retten	spielen	fair	ehrlich	tot	schlecht	rächen	strafen	faul	eitel	47pct	acq_USunple_CSunple2_noRW	acq1_noRW	1	21	0	0	300	300	398	50	0	0	1	blank2r.bmp	0	1	+	0	1	blank2r.bmp	252	1	YDDY	306	3	eitel	559	1	FEHLER	999	0	0	0	0	0	0	0	0	0	0	0	0	0	0	0	0	0	0	0	0	0	0	0	0	0	0	0	0	0	0	0	0	0	0	0	0
070319	15:27:36	15:30:25	168144	5.0.10.0	5_exp_noRW	16	Rpleas_acq	CS_B	BZZB	VKKV	MQQM	YDDY	GWWG	JXXJ	treu	schön	retten	spielen	fair	ehrlich	tot	schlecht	rächen	strafen	faul	eitel	47pct	acq_USpleas_CSpleas1_noRW	acq1_noRW	1	22	0	0	300	300	330	50	0	1	1	blank2r.bmp	0	1	+	0	1	blank2r.bmp	252	1	BZZB	306	2	schön	559	0	0	0	0	0	0	0	0	0	0	0	0	0	0	0	0	0	0	0	0	0	0	0	0	0	0	0	0	0	0	0	0	0	0	0	0	0	0	0
070319	15:27:36	15:30:26	169677	5.0.10.0	5_exp_noRW	16	Rpleas_acq	CS_B	BZZB	VKKV	MQQM	YDDY	GWWG	JXXJ	treu	schön	retten	spielen	fair	ehrlich	tot	schlecht	rächen	strafen	faul	eitel	53pct	acq_USunple_CSpleas2_noRW	acq1_noRW	1	23	0	0	300	300	349	46	0	1	1	blank2r.bmp	0	1	+	0	1	blank2r.bmp	252	1	VKKV	306	2	faul	559	0	0	0	0	0	0	0	0	0	0	0	0	0	0	0	0	0	0	0	0	0	0	0	0	0	0	0	0	0	0	0	0	0	0	0	0	0	0	0
070319	15:27:36	15:30:28	171183	5.0.10.0	5_exp_noRW	16	Rpleas_acq	CS_B	BZZB	VKKV	MQQM	YDDY	GWWG	JXXJ	treu	schön	retten	spielen	fair	ehrlich	tot	schlecht	rächen	strafen	faul	eitel	53pct	acq_USunple_CSunple2_noRW	acq1_noRW	1	24	0	0	300	300	336	46	0	1	1	blank2r.bmp	0	1	+	0	1	blank2r.bmp	252	1	YDDY	306	2	faul	559	0	0	0	0	0	0	0	0	0	0	0	0	0	0	0	0	0	0	0	0	0	0	0	0	0	0	0	0	0	0	0	0	0	0	0	0	0	0	0
070319	15:27:36	15:30:29	172796	5.0.10.0	5_exp_noRW	16	Rpleas_acq	CS_B	BZZB	VKKV	MQQM	YDDY	GWWG	JXXJ	treu	schön	retten	spielen	fair	ehrlich	tot	schlecht	rächen	strafen	faul	eitel	53pct	acq_USpleas_CSpleas1_noRW	acq1_noRW	1	25	0	0	300	300	448	50	0	1	1	blank2r.bmp	0	1	+	0	1	blank2r.bmp	252	1	BZZB	306	3	retten	559	0	0	0	0	0	0	0	0	0	0	0	0	0	0	0	0	0	0	0	0	0	0	0	0	0	0	0	0	0	0	0	0	0	0	0	0	0	0	0
070319	15:27:36	15:30:31	174355	5.0.10.0	5_exp_noRW	16	Rpleas_acq	CS_B	BZZB	VKKV	MQQM	YDDY	GWWG	JXXJ	treu	schön	retten	spielen	fair	ehrlich	tot	schlecht	rächen	strafen	faul	eitel	53pct	acq_USunple_CSunple1_noRW	acq1_noRW	1	26	0	0	300	300	381	46	0	1	1	blank2r.bmp	0	1	+	0	1	blank2r.bmp	252	1	MQQM	306	2	schlecht	559	0	0	0	0	0	0	0	0	0	0	0	0	0	0	0	0	0	0	0	0	0	0	0	0	0	0	0	0	0	0	0	0	0	0	0	0	0	0	0
070319	15:27:36	15:30:33	176194	5.0.10.0	5_exp_noRW	16	Rpleas_acq	CS_B	BZZB	VKKV	MQQM	YDDY	GWWG	JXXJ	treu	schön	retten	spielen	fair	ehrlich	tot	schlecht	rächen	strafen	faul	eitel	53pct	acq_USunple_CSunple1_noRW	acq1_noRW	1	27	0	0	300	300	440	50	0	0	1	blank2r.bmp	0	1	+	0	1	blank2r.bmp	252	1	MQQM	306	3	rächen	559	1	FEHLER	1039	0	0	0	0	0	0	0	0	0	0	0	0	0	0	0	0	0	0	0	0	0	0	0	0	0	0	0	0	0	0	0	0	0	0	0	0
070319	15:27:36	15:30:34	177540	5.0.10.0	5_exp_noRW	16	Rpleas_acq	CS_B	BZZB	VKKV	MQQM	YDDY	GWWG	JXXJ	treu	schön	retten	spielen	fair	ehrlich	tot	schlecht	rächen	strafen	faul	eitel	47pct	acq_USpleas_CSpleas1_noRW	acq1_noRW	1	28	0	0	300	300	390	50	0	1	1	blank2r.bmp	0	1	+	0	1	blank2r.bmp	252	1	BZZB	306	2	schön	559	0	0	0	0	0	0	0	0	0	0	0	0	0	0	0	0	0	0	0	0	0	0	0	0	0	0	0	0	0	0	0	0	0	0	0	0	0	0	0
070319	15:27:36	15:30:36	179340	5.0.10.0	5_exp_noRW	16	Rpleas_acq	CS_B	BZZB	VKKV	MQQM	YDDY	GWWG	JXXJ	treu	schön	retten	spielen	fair	ehrlich	tot	schlecht	rächen	strafen	faul	eitel	47pct	acq_USpleas_CSunple2_noRW	acq1_noRW	1	29	0	0	300	300	622	50	0	1	1	blank2r.bmp	0	1	+	0	1	blank2r.bmp	252	1	YDDY	306	2	fair	559	0	0	0	0	0	0	0	0	0	0	0	0	0	0	0	0	0	0	0	0	0	0	0	0	0	0	0	0	0	0	0	0	0	0	0	0	0	0	0
070319	15:27:36	15:30:37	180979	5.0.10.0	5_exp_noRW	16	Rpleas_acq	CS_B	BZZB	VKKV	MQQM	YDDY	GWWG	JXXJ	treu	schön	retten	spielen	fair	ehrlich	tot	schlecht	rächen	strafen	faul	eitel	47pct	acq_USpleas_CSpleas1_noRW	acq1_noRW	1	30	0	0	300	300	475	50	0	1	1	blank2r.bmp	0	1	+	0	1	blank2r.bmp	252	1	BZZB	306	3	retten	559	0	0	0	0	0	0	0	0	0	0	0	0	0	0	0	0	0	0	0	0	0	0	0	0	0	0	0	0	0	0	0	0	0	0	0	0	0	0	0
070319	15:27:36	15:30:39	182512	5.0.10.0	5_exp_noRW	16	Rpleas_acq	CS_B	BZZB	VKKV	MQQM	YDDY	GWWG	JXXJ	treu	schön	retten	spielen	fair	ehrlich	tot	schlecht	rächen	strafen	faul	eitel	47pct	acq_USpleas_CSpleas2_noRW	acq1_noRW	1	31	0	0	300	300	359	50	0	1	1	blank2r.bmp	0	1	+	0	1	blank2r.bmp	252	1	VKKV	306	1	spielen	559	0	0	0	0	0	0	0	0	0	0	0	0	0	0	0	0	0	0	0	0	0	0	0	0	0	0	0	0	0	0	0	0	0	0	0	0	0	0	0
070319	15:27:36	15:30:40	184005	5.0.10.0	5_exp_noRW	16	Rpleas_acq	CS_B	BZZB	VKKV	MQQM	YDDY	GWWG	JXXJ	treu	schön	retten	spielen	fair	ehrlich	tot	schlecht	rächen	strafen	faul	eitel	53pct	acq_USunple_CSunple1_noRW	acq1_noRW	1	32	0	0	300	300	323	46	0	1	1	blank2r.bmp	0	1	+	0	1	blank2r.bmp	252	1	MQQM	306	3	rächen	559	0	0	0	0	0	0	0	0	0	0	0	0	0	0	0	0	0	0	0	0	0	0	0	0	0	0	0	0	0	0	0	0	0	0	0	0	0	0	0
070319	15:27:36	15:30:42	185751	5.0.10.0	5_exp_noRW	16	Rpleas_acq	CS_B	BZZB	VKKV	MQQM	YDDY	GWWG	JXXJ	treu	schön	retten	spielen	fair	ehrlich	tot	schlecht	rächen	strafen	faul	eitel	47pct	acq_USunple_CSunple2_noRW	acq1_noRW	1	33	0	0	300	300	371	50	0	0	1	blank2r.bmp	0	1	+	0	1	blank2r.bmp	252	1	YDDY	306	3	eitel	559	1	FEHLER	959	0	0	0	0	0	0	0	0	0	0	0	0	0	0	0	0	0	0	0	0	0	0	0	0	0	0	0	0	0	0	0	0	0	0	0	0
070319	15:27:36	15:30:44	187563	5.0.10.0	5_exp_noRW	16	Rpleas_acq	CS_B	BZZB	VKKV	MQQM	YDDY	GWWG	JXXJ	treu	schön	retten	spielen	fair	ehrlich	tot	schlecht	rächen	strafen	faul	eitel	47pct	acq_USunple_CSunple2_noRW	acq1_noRW	1	34	0	0	300	300	633	50	0	0	1	blank2r.bmp	0	1	+	0	1	blank2r.bmp	252	1	YDDY	306	2	faul	559	1	FEHLER	1226	0	0	0	0	0	0	0	0	0	0	0	0	0	0	0	0	0	0	0	0	0	0	0	0	0	0	0	0	0	0	0	0	0	0	0	0
070319	15:27:36	15:30:45	189069	5.0.10.0	5_exp_noRW	16	Rpleas_acq	CS_B	BZZB	VKKV	MQQM	YDDY	GWWG	JXXJ	treu	schön	retten	spielen	fair	ehrlich	tot	schlecht	rächen	strafen	faul	eitel	53pct	acq_USunple_CSpleas1_noRW	acq1_noRW	1	35	0	0	300	300	544	46	0	1	1	blank2r.bmp	0	1	+	0	1	blank2r.bmp	252	1	BZZB	306	3	rächen	559	0	0	0	0	0	0	0	0	0	0	0	0	0	0	0	0	0	0	0	0	0	0	0	0	0	0	0	0	0	0	0	0	0	0	0	0	0	0	0
070319	15:27:36	15:30:47	190708	5.0.10.0	5_exp_noRW	16	Rpleas_acq	CS_B	BZZB	VKKV	MQQM	YDDY	GWWG	JXXJ	treu	schön	retten	spielen	fair	ehrlich	tot	schlecht	rächen	strafen	faul	eitel	53pct	acq_USpleas_CSpleas2_noRW	acq1_noRW	1	36	0	0	300	300	454	50	0	1	1	blank2r.bmp	0	1	+	0	1	blank2r.bmp	252	1	VKKV	306	2	fair	559	0	0	0	0	0	0	0	0	0	0	0	0	0	0	0	0	0	0	0	0	0	0	0	0	0	0	0	0	0	0	0	0	0	0	0	0	0	0	0
070319	15:27:36	15:30:49	192374	5.0.10.0	5_exp_noRW	16	Rpleas_acq	CS_B	BZZB	VKKV	MQQM	YDDY	GWWG	JXXJ	treu	schön	retten	spielen	fair	ehrlich	tot	schlecht	rächen	strafen	faul	eitel	53pct	acq_USunple_CSunple1_noRW	acq1_noRW	1	37	0	0	300	300	485	46	0	1	1	blank2r.bmp	0	1	+	0	1	blank2r.bmp	252	1	MQQM	306	1	tot	559	0	0	0	0	0	0	0	0	0	0	0	0	0	0	0	0	0	0	0	0	0	0	0	0	0	0	0	0	0	0	0	0	0	0	0	0	0	0	0
070319	15:27:36	15:30:50	194027	5.0.10.0	5_exp_noRW	16	Rpleas_acq	CS_B	BZZB	VKKV	MQQM	YDDY	GWWG	JXXJ	treu	schön	retten	spielen	fair	ehrlich	tot	schlecht	rächen	strafen	faul	eitel	47pct	acq_USpleas_CSunple1_noRW	acq1_noRW	1	38	0	0	300	300	472	50	0	1	1	blank2r.bmp	0	1	+	0	1	blank2r.bmp	252	1	MQQM	306	2	schön	559	0	0	0	0	0	0	0	0	0	0	0	0	0	0	0	0	0	0	0	0	0	0	0	0	0	0	0	0	0	0	0	0	0	0	0	0	0	0	0
070319	15:27:36	15:30:52	195653	5.0.10.0	5_exp_noRW	16	Rpleas_acq	CS_B	BZZB	VKKV	MQQM	YDDY	GWWG	JXXJ	treu	schön	retten	spielen	fair	ehrlich	tot	schlecht	rächen	strafen	faul	eitel	53pct	acq_USpleas_CSpleas2_noRW	acq1_noRW	1	39	0	0	300	300	445	50	0	1	1	blank2r.bmp	0	1	+	0	1	blank2r.bmp	252	1	VKKV	306	3	ehrlich	559	0	0	0	0	0	0	0	0	0	0	0	0	0	0	0	0	0	0	0	0	0	0	0	0	0	0	0	0	0	0	0	0	0	0	0	0	0	0	0
070319	15:27:36	15:30:54	197359	5.0.10.0	5_exp_noRW	16	Rpleas_acq	CS_B	BZZB	VKKV	MQQM	YDDY	GWWG	JXXJ	treu	schön	retten	spielen	fair	ehrlich	tot	schlecht	rächen	strafen	faul	eitel	47pct	acq_USpleas_CSpleas2_noRW	acq1_noRW	1	40	0	0	300	300	520	50	0	1	1	blank2r.bmp	0	1	+	0	1	blank2r.bmp	252	1	VKKV	306	2	fair	559	0	0	0	0	0	0	0	0	0	0	0	0	0	0	0	0	0	0	0	0	0	0	0	0	0	0	0	0	0	0	0	0	0	0	0	0	0	0	0
070319	15:27:36	15:30:55	199092	5.0.10.0	5_exp_noRW	16	Rpleas_acq	CS_B	BZZB	VKKV	MQQM	YDDY	GWWG	JXXJ	treu	schön	retten	spielen	fair	ehrlich	tot	schlecht	rächen	strafen	faul	eitel	53pct	acq_USunple_CSunple2_noRW	acq1_noRW	1	41	0	0	300	300	563	46	0	1	1	blank2r.bmp	0	1	+	0	1	blank2r.bmp	252	1	YDDY	306	1	strafen	559	0	0	0	0	0	0	0	0	0	0	0	0	0	0	0	0	0	0	0	0	0	0	0	0	0	0	0	0	0	0	0	0	0	0	0	0	0	0	0
070319	15:27:36	15:30:57	200664	5.0.10.0	5_exp_noRW	16	Rpleas_acq	CS_B	BZZB	VKKV	MQQM	YDDY	GWWG	JXXJ	treu	schön	retten	spielen	fair	ehrlich	tot	schlecht	rächen	strafen	faul	eitel	53pct	acq_USunple_CSunple2_noRW	acq1_noRW	1	42	0	0	300	300	411	46	0	1	1	blank2r.bmp	0	1	+	0	1	blank2r.bmp	252	1	YDDY	306	1	strafen	559	0	0	0	0	0	0	0	0	0	0	0	0	0	0	0	0	0	0	0	0	0	0	0	0	0	0	0	0	0	0	0	0	0	0	0	0	0	0	0
070319	15:27:36	15:30:59	202264	5.0.10.0	5_exp_noRW	16	Rpleas_acq	CS_B	BZZB	VKKV	MQQM	YDDY	GWWG	JXXJ	treu	schön	retten	spielen	fair	ehrlich	tot	schlecht	rächen	strafen	faul	eitel	47pct	acq_USpleas_CSpleas2_noRW	acq1_noRW	1	43	0	0	300	300	417	50	0	1	1	blank2r.bmp	0	1	+	0	1	blank2r.bmp	252	1	VKKV	306	1	spielen	559	0	0	0	0	0	0	0	0	0	0	0	0	0	0	0	0	0	0	0	0	0	0	0	0	0	0	0	0	0	0	0	0	0	0	0	0	0	0	0
070319	15:27:36	15:31:00	204076	5.0.10.0	5_exp_noRW	16	Rpleas_acq	CS_B	BZZB	VKKV	MQQM	YDDY	GWWG	JXXJ	treu	schön	retten	spielen	fair	ehrlich	tot	schlecht	rächen	strafen	faul	eitel	47pct	acq_USpleas_CSpleas2_noRW	acq1_noRW	1	44	0	0	300	300	647	50	0	1	1	blank2r.bmp	0	1	+	0	1	blank2r.bmp	252	1	VKKV	306	3	ehrlich	559	0	0	0	0	0	0	0	0	0	0	0	0	0	0	0	0	0	0	0	0	0	0	0	0	0	0	0	0	0	0	0	0	0	0	0	0	0	0	0
070319	15:27:36	15:31:02	205916	5.0.10.0	5_exp_noRW	16	Rpleas_acq	CS_B	BZZB	VKKV	MQQM	YDDY	GWWG	JXXJ	treu	schön	retten	spielen	fair	ehrlich	tot	schlecht	rächen	strafen	faul	eitel	47pct	acq_USpleas_CSunple2_noRW	acq1_noRW	1	45	0	0	300	300	661	50	0	1	1	blank2r.bmp	0	1	+	0	1	blank2r.bmp	252	1	YDDY	306	3	ehrlich	559	0	0	0	0	0	0	0	0	0	0	0	0	0	0	0	0	0	0	0	0	0	0	0	0	0	0	0	0	0	0	0	0	0	0	0	0	0	0	0
070319	15:27:36	15:31:04	207702	5.0.10.0	5_exp_noRW	16	Rpleas_acq	CS_B	BZZB	VKKV	MQQM	YDDY	GWWG	JXXJ	treu	schön	retten	spielen	fair	ehrlich	tot	schlecht	rächen	strafen	faul	eitel	47pct	acq_USunple_CSunple1_noRW	acq1_noRW	1	46	0	0	300	300	611	46	0	1	1	blank2r.bmp	0	1	+	0	1	blank2r.bmp	252	1	MQQM	306	2	schlecht	559	0	0	0	0	0	0	0	0	0	0	0	0	0	0	0	0	0	0	0	0	0	0	0	0	0	0	0	0	0	0	0	0	0	0	0	0	0	0	0
070319	15:27:36	15:31:06	209647	5.0.10.0	5_exp_noRW	16	Rpleas_acq	CS_B	BZZB	VKKV	MQQM	YDDY	GWWG	JXXJ	treu	schön	retten	spielen	fair	ehrlich	tot	schlecht	rächen	strafen	faul	eitel	47pct	acq_USpleas_CSpleas1_noRW	acq1_noRW	1	47	0	0	300	300	747	50	0	1	1	blank2r.bmp	0	1	+	0	1	blank2r.bmp	252	1	BZZB	306	1	treu	559	0	0	0	0	0	0	0	0	0	0	0	0	0	0	0	0	0	0	0	0	0	0	0	0	0	0	0	0	0	0	0	0	0	0	0	0	0	0	0
070319	15:27:36	15:31:08	211500	5.0.10.0	5_exp_noRW	16	Rpleas_acq	CS_B	BZZB	VKKV	MQQM	YDDY	GWWG	JXXJ	treu	schön	retten	spielen	fair	ehrlich	tot	schlecht	rächen	strafen	faul	eitel	47pct	acq_USunple_CSpleas2_noRW	acq1_noRW	1	48	0	0	300	300	676	46	0	1	1	blank2r.bmp	0	1	+	0	1	blank2r.bmp	252	1	VKKV	306	3	eitel	559	0	0	0	0	0	0	0	0	0	0	0	0	0	0	0	0	0	0	0	0	0	0	0	0	0	0	0	0	0	0	0	0	0	0	0	0	0	0	0
070319	15:27:36	15:31:09	213073	5.0.10.0	5_exp_noRW	16	Rpleas_acq	CS_B	BZZB	VKKV	MQQM	YDDY	GWWG	JXXJ	treu	schön	retten	spielen	fair	ehrlich	tot	schlecht	rächen	strafen	faul	eitel	53pct	acq_USunple_CSunple2_noRW	acq1_noRW	1	49	0	0	300	300	387	46	0	1	1	blank2r.bmp	0	1	+	0	1	blank2r.bmp	252	1	YDDY	306	3	eitel	559	0	0	0	0	0	0	0	0	0	0	0	0	0	0	0	0	0	0	0	0	0	0	0	0	0	0	0	0	0	0	0	0	0	0	0	0	0	0	0
070319	15:27:36	15:31:11	214725	5.0.10.0	5_exp_noRW	16	Rpleas_acq	CS_B	BZZB	VKKV	MQQM	YDDY	GWWG	JXXJ	treu	schön	retten	spielen	fair	ehrlich	tot	schlecht	rächen	strafen	faul	eitel	53pct	acq_USpleas_CSpleas1_noRW	acq1_noRW	1	50	0	0	300	300	489	50	0	1	1	blank2r.bmp	0	1	+	0	1	blank2r.bmp	252	1	BZZB	306	1	treu	559	0	0	0	0	0	0	0	0	0	0	0	0	0	0	0	0	0	0	0	0	0	0	0	0	0	0	0	0	0	0	0	0	0	0	0	0	0	0	0
070319	15:27:36	15:31:13	216325	5.0.10.0	5_exp_noRW	16	Rpleas_acq	CS_B	BZZB	VKKV	MQQM	YDDY	GWWG	JXXJ	treu	schön	retten	spielen	fair	ehrlich	tot	schlecht	rächen	strafen	faul	eitel	53pct	acq_USunple_CSunple1_noRW	acq1_noRW	1	51	0	0	300	300	422	46	0	1	1	blank2r.bmp	0	1	+	0	1	blank2r.bmp	252	1	MQQM	306	1	tot	559	0	0	0	0	0	0	0	0	0	0	0	0	0	0	0	0	0	0	0	0	0	0	0	0	0	0	0	0	0	0	0	0	0	0	0	0	0	0	0
070319	15:27:36	15:31:14	217884	5.0.10.0	5_exp_noRW	16	Rpleas_acq	CS_B	BZZB	VKKV	MQQM	YDDY	GWWG	JXXJ	treu	schön	retten	spielen	fair	ehrlich	tot	schlecht	rächen	strafen	faul	eitel	53pct	acq_USpleas_CSunple1_noRW	acq1_noRW	1	52	0	0	300	300	375	50	0	1	1	blank2r.bmp	0	1	+	0	1	blank2r.bmp	252	1	MQQM	306	1	treu	559	0	0	0	0	0	0	0	0	0	0	0	0	0	0	0	0	0	0	0	0	0	0	0	0	0	0	0	0	0	0	0	0	0	0	0	0	0	0	0
070319	15:27:36	15:31:16	219483	5.0.10.0	5_exp_noRW	16	Rpleas_acq	CS_B	BZZB	VKKV	MQQM	YDDY	GWWG	JXXJ	treu	schön	retten	spielen	fair	ehrlich	tot	schlecht	rächen	strafen	faul	eitel	53pct	acq_USunple_CSunple2_noRW	acq1_noRW	1	53	0	0	300	300	420	46	0	1	1	blank2r.bmp	0	1	+	0	1	blank2r.bmp	252	1	YDDY	306	2	faul	559	0	0	0	0	0	0	0	0	0	0	0	0	0	0	0	0	0	0	0	0	0	0	0	0	0	0	0	0	0	0	0	0	0	0	0	0	0	0	0
070319	15:27:36	15:31:18	221203	5.0.10.0	5_exp_noRW	16	Rpleas_acq	CS_B	BZZB	VKKV	MQQM	YDDY	GWWG	JXXJ	treu	schön	retten	spielen	fair	ehrlich	tot	schlecht	rächen	strafen	faul	eitel	47pct	acq_USpleas_CSpleas2_noRW	acq1_noRW	1	54	0	0	300	300	544	50	0	1	1	blank2r.bmp	0	1	+	0	1	blank2r.bmp	252	1	VKKV	306	1	spielen	559	0	0	0	0	0	0	0	0	0	0	0	0	0	0	0	0	0	0	0	0	0	0	0	0	0	0	0	0	0	0	0	0	0	0	0	0	0	0	0
070319	15:27:36	15:31:19	223002	5.0.10.0	5_exp_noRW	16	Rpleas_acq	CS_B	BZZB	VKKV	MQQM	YDDY	GWWG	JXXJ	treu	schön	retten	spielen	fair	ehrlich	tot	schlecht	rächen	strafen	faul	eitel	47pct	acq_USpleas_CSpleas2_noRW	acq1_noRW	1	55	0	0	300	300	621	50	0	1	1	blank2r.bmp	0	1	+	0	1	blank2r.bmp	252	1	VKKV	306	2	fair	559	0	0	0	0	0	0	0	0	0	0	0	0	0	0	0	0	0	0	0	0	0	0	0	0	0	0	0	0	0	0	0	0	0	0	0	0	0	0	0
070319	15:27:36	15:31:22	225508	5.0.10.0	5_exp_noRW	16	Rpleas_acq	CS_B	BZZB	VKKV	MQQM	YDDY	GWWG	JXXJ	treu	schön	retten	spielen	fair	ehrlich	tot	schlecht	rächen	strafen	faul	eitel	47pct	acq_USpleas_CSpleas1_noRW	acq1_noRW	1	56	0	0	300	300	1331	50	0	1	1	blank2r.bmp	0	1	+	0	1	blank2r.bmp	252	1	BZZB	306	3	retten	559	0	0	0	0	0	0	0	0	0	0	0	0	0	0	0	0	0	0	0	0	0	0	0	0	0	0	0	0	0	0	0	0	0	0	0	0	0	0	0
070319	15:27:36	15:31:23	227080	5.0.10.0	5_exp_noRW	16	Rpleas_acq	CS_B	BZZB	VKKV	MQQM	YDDY	GWWG	JXXJ	treu	schön	retten	spielen	fair	ehrlich	tot	schlecht	rächen	strafen	faul	eitel	47pct	acq_USpleas_CSpleas1_noRW	acq1_noRW	1	57	0	0	300	300	390	50	0	1	1	blank2r.bmp	0	1	+	0	1	blank2r.bmp	252	1	BZZB	306	2	schön	559	0	0	0	0	0	0	0	0	0	0	0	0	0	0	0	0	0	0	0	0	0	0	0	0	0	0	0	0	0	0	0	0	0	0	0	0	0	0	0
070319	15:27:36	15:31:25	228693	5.0.10.0	5_exp_noRW	16	Rpleas_acq	CS_B	BZZB	VKKV	MQQM	YDDY	GWWG	JXXJ	treu	schön	retten	spielen	fair	ehrlich	tot	schlecht	rächen	strafen	faul	eitel	53pct	acq_USunple_CSunple1_noRW	acq1_noRW	1	58	0	0	300	300	449	46	0	1	1	blank2r.bmp	0	1	+	0	1	blank2r.bmp	252	1	MQQM	306	3	rächen	559	0	0	0	0	0	0	0	0	0	0	0	0	0	0	0	0	0	0	0	0	0	0	0	0	0	0	0	0	0	0	0	0	0	0	0	0	0	0	0
070319	15:27:36	15:31:27	230412	5.0.10.0	5_exp_noRW	16	Rpleas_acq	CS_B	BZZB	VKKV	MQQM	YDDY	GWWG	JXXJ	treu	schön	retten	spielen	fair	ehrlich	tot	schlecht	rächen	strafen	faul	eitel	53pct	acq_USunple_CSpleas1_noRW	acq1_noRW	1	59	0	0	300	300	532	46	0	1	1	blank2r.bmp	0	1	+	0	1	blank2r.bmp	252	1	BZZB	306	1	tot	559	0	0	0	0	0	0	0	0	0	0	0	0	0	0	0	0	0	0	0	0	0	0	0	0	0	0	0	0	0	0	0	0	0	0	0	0	0	0	0
070319	15:27:36	15:31:28	232065	5.0.10.0	5_exp_noRW	16	Rpleas_acq	CS_B	BZZB	VKKV	MQQM	YDDY	GWWG	JXXJ	treu	schön	retten	spielen	fair	ehrlich	tot	schlecht	rächen	strafen	faul	eitel	53pct	acq_USunple_CSunple1_noRW	acq1_noRW	1	60	0	0	300	300	474	46	0	1	1	blank2r.bmp	0	1	+	0	1	blank2r.bmp	252	1	MQQM	306	2	schlecht	559	0	0	0	0	0	0	0	0	0	0	0	0	0	0	0	0	0	0	0	0	0	0	0	0	0	0	0	0	0	0	0	0	0	0	0	0	0	0	0
070319	15:27:36	15:31:30	233878	5.0.10.0	5_exp_noRW	16	Rpleas_acq	CS_B	BZZB	VKKV	MQQM	YDDY	GWWG	JXXJ	treu	schön	retten	spielen	fair	ehrlich	tot	schlecht	rächen	strafen	faul	eitel	47pct	acq_USunple_CSunple2_noRW	acq1_noRW	1	61	0	0	300	300	626	46	0	1	1	blank2r.bmp	0	1	+	0	1	blank2r.bmp	252	1	YDDY	306	1	strafen	559	0	0	0	0	0	0	0	0	0	0	0	0	0	0	0	0	0	0	0	0	0	0	0	0	0	0	0	0	0	0	0	0	0	0	0	0	0	0	0
070319	15:27:36	15:31:32	235464	5.0.10.0	5_exp_noRW	16	Rpleas_acq	CS_B	BZZB	VKKV	MQQM	YDDY	GWWG	JXXJ	treu	schön	retten	spielen	fair	ehrlich	tot	schlecht	rächen	strafen	faul	eitel	53pct	acq_USpleas_CSpleas2_noRW	acq1_noRW	1	62	0	0	300	300	413	50	0	1	1	blank2r.bmp	0	1	+	0	1	blank2r.bmp	252	1	VKKV	306	3	ehrlich	559	0	0	0	0	0	0	0	0	0	0	0	0	0	0	0	0	0	0	0	0	0	0	0	0	0	0	0	0	0	0	0	0	0	0	0	0	0	0	0
070319	15:27:36	15:31:33	237050	5.0.10.0	5_exp_noRW	16	Rpleas_acq	CS_B	BZZB	VKKV	MQQM	YDDY	GWWG	JXXJ	treu	schön	retten	spielen	fair	ehrlich	tot	schlecht	rächen	strafen	faul	eitel	53pct	acq_USpleas_CSpleas1_noRW	acq1_noRW	1	63	0	0	300	300	423	50	0	1	1	blank2r.bmp	0	1	+	0	1	blank2r.bmp	252	1	BZZB	306	2	schön	559	0	0	0	0	0	0	0	0	0	0	0	0	0	0	0	0	0	0	0	0	0	0	0	0	0	0	0	0	0	0	0	0	0	0	0	0	0	0	0
070319	15:27:36	15:31:35	238649	5.0.10.0	5_exp_noRW	16	Rpleas_acq	CS_B	BZZB	VKKV	MQQM	YDDY	GWWG	JXXJ	treu	schön	retten	spielen	fair	ehrlich	tot	schlecht	rächen	strafen	faul	eitel	47pct	acq_USunple_CSunple1_noRW	acq1_noRW	1	64	0	0	300	300	421	46	0	1	1	blank2r.bmp	0	1	+	0	1	blank2r.bmp	252	1	MQQM	306	2	schlecht	559	0	0	0	0	0	0	0	0	0	0	0	0	0	0	0	0	0	0	0	0	0	0	0	0	0	0	0	0	0	0	0	0	0	0	0	0	0	0	0
070319	15:27:36	15:31:37	240302	5.0.10.0	5_exp_noRW	16	Rpleas_acq	CS_B	BZZB	VKKV	MQQM	YDDY	GWWG	JXXJ	treu	schön	retten	spielen	fair	ehrlich	tot	schlecht	rächen	strafen	faul	eitel	53pct	acq_USpleas_CSunple2_noRW	acq1_noRW	1	65	0	0	300	300	473	50	0	1	1	blank2r.bmp	0	1	+	0	1	blank2r.bmp	252	1	YDDY	306	1	spielen	559	0	0	0	0	0	0	0	0	0	0	0	0	0	0	0	0	0	0	0	0	0	0	0	0	0	0	0	0	0	0	0	0	0	0	0	0	0	0	0
070319	15:27:36	15:31:38	241901	5.0.10.0	5_exp_noRW	16	Rpleas_acq	CS_B	BZZB	VKKV	MQQM	YDDY	GWWG	JXXJ	treu	schön	retten	spielen	fair	ehrlich	tot	schlecht	rächen	strafen	faul	eitel	47pct	acq_USunple_CSunple2_noRW	acq1_noRW	1	66	0	0	300	300	422	46	0	1	1	blank2r.bmp	0	1	+	0	1	blank2r.bmp	252	1	YDDY	306	2	faul	559	0	0	0	0	0	0	0	0	0	0	0	0	0	0	0	0	0	0	0	0	0	0	0	0	0	0	0	0	0	0	0	0	0	0	0	0	0	0	0
070319	15:27:36	15:31:40	243474	5.0.10.0	5_exp_noRW	16	Rpleas_acq	CS_B	BZZB	VKKV	MQQM	YDDY	GWWG	JXXJ	treu	schön	retten	spielen	fair	ehrlich	tot	schlecht	rächen	strafen	faul	eitel	53pct	acq_USpleas_CSpleas2_noRW	acq1_noRW	1	67	0	0	300	300	388	50	0	1	1	blank2r.bmp	0	1	+	0	1	blank2r.bmp	252	1	VKKV	306	2	fair	559	0	0	0	0	0	0	0	0	0	0	0	0	0	0	0	0	0	0	0	0	0	0	0	0	0	0	0	0	0	0	0	0	0	0	0	0	0	0	0
070319	15:27:36	15:31:42	245166	5.0.10.0	5_exp_noRW	16	Rpleas_acq	CS_B	BZZB	VKKV	MQQM	YDDY	GWWG	JXXJ	treu	schön	retten	spielen	fair	ehrlich	tot	schlecht	rächen	strafen	faul	eitel	47pct	acq_USpleas_CSpleas1_noRW	acq1_noRW	1	68	0	0	300	300	525	50	0	1	1	blank2r.bmp	0	1	+	0	1	blank2r.bmp	252	1	BZZB	306	3	retten	559	0	0	0	0	0	0	0	0	0	0	0	0	0	0	0	0	0	0	0	0	0	0	0	0	0	0	0	0	0	0	0	0	0	0	0	0	0	0	0
070319	15:27:36	15:31:43	246792	5.0.10.0	5_exp_noRW	16	Rpleas_acq	CS_B	BZZB	VKKV	MQQM	YDDY	GWWG	JXXJ	treu	schön	retten	spielen	fair	ehrlich	tot	schlecht	rächen	strafen	faul	eitel	53pct	acq_USpleas_CSpleas2_noRW	acq1_noRW	1	69	0	0	300	300	438	50	0	1	1	blank2r.bmp	0	1	+	0	1	blank2r.bmp	252	1	VKKV	306	1	spielen	559	0	0	0	0	0	0	0	0	0	0	0	0	0	0	0	0	0	0	0	0	0	0	0	0	0	0	0	0	0	0	0	0	0	0	0	0	0	0	0
070319	15:27:36	15:31:45	248298	5.0.10.0	5_exp_noRW	16	Rpleas_acq	CS_B	BZZB	VKKV	MQQM	YDDY	GWWG	JXXJ	treu	schön	retten	spielen	fair	ehrlich	tot	schlecht	rächen	strafen	faul	eitel	53pct	acq_USunple_CSunple1_noRW	acq1_noRW	1	70	0	0	300	300	325	46	0	1	1	blank2r.bmp	0	1	+	0	1	blank2r.bmp	252	1	MQQM	306	1	tot	559	0	0	0	0	0	0	0	0	0	0	0	0	0	0	0	0	0	0	0	0	0	0	0	0	0	0	0	0	0	0	0	0	0	0	0	0	0	0	0
070319	15:27:36	15:31:47	250138	5.0.10.0	5_exp_noRW	16	Rpleas_acq	CS_B	BZZB	VKKV	MQQM	YDDY	GWWG	JXXJ	treu	schön	retten	spielen	fair	ehrlich	tot	schlecht	rächen	strafen	faul	eitel	53pct	acq_USunple_CSunple2_noRW	acq1_noRW	1	71	0	0	300	300	657	46	0	1	1	blank2r.bmp	0	1	+	0	1	blank2r.bmp	252	1	YDDY	306	3	eitel	559	0	0	0	0	0	0	0	0	0	0	0	0	0	0	0	0	0	0	0	0	0	0	0	0	0	0	0	0	0	0	0	0	0	0	0	0	0	0	0
070319	15:27:36	15:31:48	251870	5.0.10.0	5_exp_noRW	16	Rpleas_acq	CS_B	BZZB	VKKV	MQQM	YDDY	GWWG	JXXJ	treu	schön	retten	spielen	fair	ehrlich	tot	schlecht	rächen	strafen	faul	eitel	53pct	acq_USunple_CSunple2_noRW	acq1_noRW	1	72	0	0	300	300	560	46	0	1	1	blank2r.bmp	0	1	+	0	1	blank2r.bmp	252	1	YDDY	306	3	eitel	559	0	0	0	0	0	0	0	0	0	0	0	0	0	0	0	0	0	0	0	0	0	0	0	0	0	0	0	0	0	0	0	0	0	0	0	0	0	0	0
070319	15:27:36	15:31:50	253576	5.0.10.0	5_exp_noRW	16	Rpleas_acq	CS_B	BZZB	VKKV	MQQM	YDDY	GWWG	JXXJ	treu	schön	retten	spielen	fair	ehrlich	tot	schlecht	rächen	strafen	faul	eitel	47pct	acq_USunple_CSunple1_noRW	acq1_noRW	1	73	0	0	300	300	537	46	0	1	1	blank2r.bmp	0	1	+	0	1	blank2r.bmp	252	1	MQQM	306	3	rächen	559	0	0	0	0	0	0	0	0	0	0	0	0	0	0	0	0	0	0	0	0	0	0	0	0	0	0	0	0	0	0	0	0	0	0	0	0	0	0	0
070319	15:27:36	15:31:52	255162	5.0.10.0	5_exp_noRW	16	Rpleas_acq	CS_B	BZZB	VKKV	MQQM	YDDY	GWWG	JXXJ	treu	schön	retten	spielen	fair	ehrlich	tot	schlecht	rächen	strafen	faul	eitel	53pct	acq_USunple_CSunple1_noRW	acq1_noRW	1	74	0	0	300	300	409	46	0	1	1	blank2r.bmp	0	1	+	0	1	blank2r.bmp	252	1	MQQM	306	2	schlecht	559	0	0	0	0	0	0	0	0	0	0	0	0	0	0	0	0	0	0	0	0	0	0	0	0	0	0	0	0	0	0	0	0	0	0	0	0	0	0	0
070319	15:27:36	15:31:53	257122	5.0.10.0	5_exp_noRW	16	Rpleas_acq	CS_B	BZZB	VKKV	MQQM	YDDY	GWWG	JXXJ	treu	schön	retten	spielen	fair	ehrlich	tot	schlecht	rächen	strafen	faul	eitel	53pct	acq_USpleas_CSunple1_noRW	acq1_noRW	1	75	0	0	300	300	780	50	0	1	1	blank2r.bmp	0	1	+	0	1	blank2r.bmp	252	1	MQQM	306	2	schön	559	0	0	0	0	0	0	0	0	0	0	0	0	0	0	0	0	0	0	0	0	0	0	0	0	0	0	0	0	0	0	0	0	0	0	0	0	0	0	0
070319	15:27:36	15:31:55	258814	5.0.10.0	5_exp_noRW	16	Rpleas_acq	CS_B	BZZB	VKKV	MQQM	YDDY	GWWG	JXXJ	treu	schön	retten	spielen	fair	ehrlich	tot	schlecht	rächen	strafen	faul	eitel	53pct	acq_USunple_CSpleas2_noRW	acq1_noRW	1	76	0	0	300	300	526	46	0	1	1	blank2r.bmp	0	1	+	0	1	blank2r.bmp	252	1	VKKV	306	1	strafen	559	0	0	0	0	0	0	0	0	0	0	0	0	0	0	0	0	0	0	0	0	0	0	0	0	0	0	0	0	0	0	0	0	0	0	0	0	0	0	0
070319	15:27:36	15:31:57	260547	5.0.10.0	5_exp_noRW	16	Rpleas_acq	CS_B	BZZB	VKKV	MQQM	YDDY	GWWG	JXXJ	treu	schön	retten	spielen	fair	ehrlich	tot	schlecht	rächen	strafen	faul	eitel	47pct	acq_USpleas_CSpleas2_noRW	acq1_noRW	1	77	0	0	300	300	552	50	0	1	1	blank2r.bmp	0	1	+	0	1	blank2r.bmp	252	1	VKKV	306	1	spielen	559	0	0	0	0	0	0	0	0	0	0	0	0	0	0	0	0	0	0	0	0	0	0	0	0	0	0	0	0	0	0	0	0	0	0	0	0	0	0	0
070319	15:27:36	15:31:59	262239	5.0.10.0	5_exp_noRW	16	Rpleas_acq	CS_B	BZZB	VKKV	MQQM	YDDY	GWWG	JXXJ	treu	schön	retten	spielen	fair	ehrlich	tot	schlecht	rächen	strafen	faul	eitel	47pct	acq_USpleas_CSpleas1_noRW	acq1_noRW	1	78	0	0	300	300	517	50	0	1	1	blank2r.bmp	0	1	+	0	1	blank2r.bmp	252	1	BZZB	306	1	treu	559	0	0	0	0	0	0	0	0	0	0	0	0	0	0	0	0	0	0	0	0	0	0	0	0	0	0	0	0	0	0	0	0	0	0	0	0	0	0	0
070319	15:27:36	15:32:00	263999	5.0.10.0	5_exp_noRW	16	Rpleas_acq	CS_B	BZZB	VKKV	MQQM	YDDY	GWWG	JXXJ	treu	schön	retten	spielen	fair	ehrlich	tot	schlecht	rächen	strafen	faul	eitel	47pct	acq_USpleas_CSpleas1_noRW	acq1_noRW	1	79	0	0	300	300	566	50	0	1	1	blank2r.bmp	0	1	+	0	1	blank2r.bmp	252	1	BZZB	306	3	retten	559	0	0	0	0	0	0	0	0	0	0	0	0	0	0	0	0	0	0	0	0	0	0	0	0	0	0	0	0	0	0	0	0	0	0	0	0	0	0	0
070319	15:27:36	15:32:02	265745	5.0.10.0	5_exp_noRW	16	Rpleas_acq	CS_B	BZZB	VKKV	MQQM	YDDY	GWWG	JXXJ	treu	schön	retten	spielen	fair	ehrlich	tot	schlecht	rächen	strafen	faul	eitel	47pct	acq_USunple_CSpleas1_noRW	acq1_noRW	1	80	0	0	300	300	564	46	0	1	1	blank2r.bmp	0	1	+	0	1	blank2r.bmp	252	1	BZZB	306	2	schlecht	559	0	0	0	0	0	0	0	0	0	0	0	0	0	0	0	0	0	0	0	0	0	0	0	0	0	0	0	0	0	0	0	0	0	0	0	0	0	0	0
070319	15:27:36	15:32:26	289615	5.0.10.0	5_exp_noRW	16	Rpleas_acq	CS_B	BZZB	VKKV	MQQM	YDDY	GWWG	JXXJ	treu	schön	retten	spielen	fair	ehrlich	tot	schlecht	rächen	strafen	faul	eitel	47pct	acq_USunple_CSunple1_noRW	acq23456_noRW	2	1	0	0	300	300	590	46	0	1	1	blank2r.bmp	0	1	+	0	1	blank2r.bmp	252	1	MQQM	306	3	rächen	559	0	0	0	0	0	0	0	0	0	0	0	0	0	0	0	0	0	0	0	0	0	0	0	0	0	0	0	0	0	0	0	0	0	0	0	0	0	0	0
070319	15:27:36	15:32:28	291214	5.0.10.0	5_exp_noRW	16	Rpleas_acq	CS_B	BZZB	VKKV	MQQM	YDDY	GWWG	JXXJ	treu	schön	retten	spielen	fair	ehrlich	tot	schlecht	rächen	strafen	faul	eitel	47pct	acq_USunple_CSunple1_noRW	acq23456_noRW	2	2	0	0	300	300	415	46	0	1	1	blank2r.bmp	0	1	+	0	1	blank2r.bmp	252	1	MQQM	306	1	tot	559	0	0	0	0	0	0	0	0	0	0	0	0	0	0	0	0	0	0	0	0	0	0	0	0	0	0	0	0	0	0	0	0	0	0	0	0	0	0	0
070319	15:27:36	15:32:29	292840	5.0.10.0	5_exp_noRW	16	Rpleas_acq	CS_B	BZZB	VKKV	MQQM	YDDY	GWWG	JXXJ	treu	schön	retten	spielen	fair	ehrlich	tot	schlecht	rächen	strafen	faul	eitel	53pct	acq_USpleas_CSunple2_noRW	acq23456_noRW	2	3	0	0	300	300	462	50	0	1	1	blank2r.bmp	0	1	+	0	1	blank2r.bmp	252	1	YDDY	306	3	ehrlich	559	0	0	0	0	0	0	0	0	0	0	0	0	0	0	0	0	0	0	0	0	0	0	0	0	0	0	0	0	0	0	0	0	0	0	0	0	0	0	0
070319	15:27:36	15:32:31	294413	5.0.10.0	5_exp_noRW	16	Rpleas_acq	CS_B	BZZB	VKKV	MQQM	YDDY	GWWG	JXXJ	treu	schön	retten	spielen	fair	ehrlich	tot	schlecht	rächen	strafen	faul	eitel	53pct	acq_USpleas_CSpleas2_noRW	acq23456_noRW	2	4	0	0	300	300	394	50	0	1	1	blank2r.bmp	0	1	+	0	1	blank2r.bmp	252	1	VKKV	306	2	fair	559	0	0	0	0	0	0	0	0	0	0	0	0	0	0	0	0	0	0	0	0	0	0	0	0	0	0	0	0	0	0	0	0	0	0	0	0	0	0	0
070319	15:27:36	15:32:32	295972	5.0.10.0	5_exp_noRW	16	Rpleas_acq	CS_B	BZZB	VKKV	MQQM	YDDY	GWWG	JXXJ	treu	schön	retten	spielen	fair	ehrlich	tot	schlecht	rächen	strafen	faul	eitel	47pct	acq_USpleas_CSpleas1_noRW	acq23456_noRW	2	5	0	0	300	300	378	50	0	1	1	blank2r.bmp	0	1	+	0	1	blank2r.bmp	252	1	BZZB	306	1	treu	559	0	0	0	0	0	0	0	0	0	0	0	0	0	0	0	0	0	0	0	0	0	0	0	0	0	0	0	0	0	0	0	0	0	0	0	0	0	0	0
070319	15:27:36	15:32:34	297598	5.0.10.0	5_exp_noRW	16	Rpleas_acq	CS_B	BZZB	VKKV	MQQM	YDDY	GWWG	JXXJ	treu	schön	retten	spielen	fair	ehrlich	tot	schlecht	rächen	strafen	faul	eitel	47pct	acq_USunple_CSunple2_noRW	acq23456_noRW	2	6	0	0	300	300	441	46	0	1	1	blank2r.bmp	0	1	+	0	1	blank2r.bmp	252	1	YDDY	306	1	strafen	559	0	0	0	0	0	0	0	0	0	0	0	0	0	0	0	0	0	0	0	0	0	0	0	0	0	0	0	0	0	0	0	0	0	0	0	0	0	0	0
070319	15:27:36	15:32:36	299238	5.0.10.0	5_exp_noRW	16	Rpleas_acq	CS_B	BZZB	VKKV	MQQM	YDDY	GWWG	JXXJ	treu	schön	retten	spielen	fair	ehrlich	tot	schlecht	rächen	strafen	faul	eitel	47pct	acq_USpleas_CSpleas1_noRW	acq23456_noRW	2	7	0	0	300	300	452	50	0	1	1	blank2r.bmp	0	1	+	0	1	blank2r.bmp	252	1	BZZB	306	2	schön	559	0	0	0	0	0	0	0	0	0	0	0	0	0	0	0	0	0	0	0	0	0	0	0	0	0	0	0	0	0	0	0	0	0	0	0	0	0	0	0
070319	15:27:36	15:32:37	301010	5.0.10.0	5_exp_noRW	16	Rpleas_acq	CS_B	BZZB	VKKV	MQQM	YDDY	GWWG	JXXJ	treu	schön	retten	spielen	fair	ehrlich	tot	schlecht	rächen	strafen	faul	eitel	47pct	acq_USunple_CSunple2_noRW	acq23456_noRW	2	8	0	0	300	300	607	46	0	1	1	blank2r.bmp	0	1	+	0	1	blank2r.bmp	252	1	YDDY	306	2	faul	559	0	0	0	0	0	0	0	0	0	0	0	0	0	0	0	0	0	0	0	0	0	0	0	0	0	0	0	0	0	0	0	0	0	0	0	0	0	0	0
070319	15:27:36	15:32:39	302690	5.0.10.0	5_exp_noRW	16	Rpleas_acq	CS_B	BZZB	VKKV	MQQM	YDDY	GWWG	JXXJ	treu	schön	retten	spielen	fair	ehrlich	tot	schlecht	rächen	strafen	faul	eitel	47pct	acq_USpleas_CSpleas2_noRW	acq23456_noRW	2	9	0	0	300	300	494	50	0	1	1	blank2r.bmp	0	1	+	0	1	blank2r.bmp	252	1	VKKV	306	3	ehrlich	559	0	0	0	0	0	0	0	0	0	0	0	0	0	0	0	0	0	0	0	0	0	0	0	0	0	0	0	0	0	0	0	0	0	0	0	0	0	0	0
070319	15:27:36	15:32:41	304316	5.0.10.0	5_exp_noRW	16	Rpleas_acq	CS_B	BZZB	VKKV	MQQM	YDDY	GWWG	JXXJ	treu	schön	retten	spielen	fair	ehrlich	tot	schlecht	rächen	strafen	faul	eitel	47pct	acq_USunple_CSpleas2_noRW	acq23456_noRW	2	10	0	0	300	300	458	46	0	1	1	blank2r.bmp	0	1	+	0	1	blank2r.bmp	252	1	VKKV	306	2	faul	559	0	0	0	0	0	0	0	0	0	0	0	0	0	0	0	0	0	0	0	0	0	0	0	0	0	0	0	0	0	0	0	0	0	0	0	0	0	0	0
070319	15:27:36	15:32:42	305902	5.0.10.0	5_exp_noRW	16	Rpleas_acq	CS_B	BZZB	VKKV	MQQM	YDDY	GWWG	JXXJ	treu	schön	retten	spielen	fair	ehrlich	tot	schlecht	rächen	strafen	faul	eitel	53pct	acq_USunple_CSunple1_noRW	acq23456_noRW	2	11	0	0	300	300	412	46	0	1	1	blank2r.bmp	0	1	+	0	1	blank2r.bmp	252	1	MQQM	306	3	rächen	559	0	0	0	0	0	0	0	0	0	0	0	0	0	0	0	0	0	0	0	0	0	0	0	0	0	0	0	0	0	0	0	0	0	0	0	0	0	0	0
070319	15:27:36	15:32:44	307581	5.0.10.0	5_exp_noRW	16	Rpleas_acq	CS_B	BZZB	VKKV	MQQM	YDDY	GWWG	JXXJ	treu	schön	retten	spielen	fair	ehrlich	tot	schlecht	rächen	strafen	faul	eitel	53pct	acq_USpleas_CSpleas1_noRW	acq23456_noRW	2	12	0	0	300	300	504	50	0	1	1	blank2r.bmp	0	1	+	0	1	blank2r.bmp	252	1	BZZB	306	1	treu	559	0	0	0	0	0	0	0	0	0	0	0	0	0	0	0	0	0	0	0	0	0	0	0	0	0	0	0	0	0	0	0	0	0	0	0	0	0	0	0
070319	15:27:36	15:32:46	309260	5.0.10.0	5_exp_noRW	16	Rpleas_acq	CS_B	BZZB	VKKV	MQQM	YDDY	GWWG	JXXJ	treu	schön	retten	spielen	fair	ehrlich	tot	schlecht	rächen	strafen	faul	eitel	47pct	acq_USpleas_CSpleas2_noRW	acq23456_noRW	2	13	0	0	300	300	500	50	0	1	1	blank2r.bmp	0	1	+	0	1	blank2r.bmp	252	1	VKKV	306	1	spielen	559	0	0	0	0	0	0	0	0	0	0	0	0	0	0	0	0	0	0	0	0	0	0	0	0	0	0	0	0	0	0	0	0	0	0	0	0	0	0	0
070319	15:27:36	15:32:47	310873	5.0.10.0	5_exp_noRW	16	Rpleas_acq	CS_B	BZZB	VKKV	MQQM	YDDY	GWWG	JXXJ	treu	schön	retten	spielen	fair	ehrlich	tot	schlecht	rächen	strafen	faul	eitel	47pct	acq_USunple_CSunple2_noRW	acq23456_noRW	2	14	0	0	300	300	429	46	0	1	1	blank2r.bmp	0	1	+	0	1	blank2r.bmp	252	1	YDDY	306	1	strafen	559	0	0	0	0	0	0	0	0	0	0	0	0	0	0	0	0	0	0	0	0	0	0	0	0	0	0	0	0	0	0	0	0	0	0	0	0	0	0	0
070319	15:27:36	15:32:49	312539	5.0.10.0	5_exp_noRW	16	Rpleas_acq	CS_B	BZZB	VKKV	MQQM	YDDY	GWWG	JXXJ	treu	schön	retten	spielen	fair	ehrlich	tot	schlecht	rächen	strafen	faul	eitel	47pct	acq_USpleas_CSpleas2_noRW	acq23456_noRW	2	15	0	0	300	300	481	50	0	1	1	blank2r.bmp	0	1	+	0	1	blank2r.bmp	252	1	VKKV	306	3	ehrlich	559	0	0	0	0	0	0	0	0	0	0	0	0	0	0	0	0	0	0	0	0	0	0	0	0	0	0	0	0	0	0	0	0	0	0	0	0	0	0	0
070319	15:27:36	15:32:51	314352	5.0.10.0	5_exp_noRW	16	Rpleas_acq	CS_B	BZZB	VKKV	MQQM	YDDY	GWWG	JXXJ	treu	schön	retten	spielen	fair	ehrlich	tot	schlecht	rächen	strafen	faul	eitel	53pct	acq_USpleas_CSpleas1_noRW	acq23456_noRW	2	16	0	0	300	300	650	50	0	1	1	blank2r.bmp	0	1	+	0	1	blank2r.bmp	252	1	BZZB	306	3	retten	559	0	0	0	0	0	0	0	0	0	0	0	0	0	0	0	0	0	0	0	0	0	0	0	0	0	0	0	0	0	0	0	0	0	0	0	0	0	0	0
070319	15:27:36	15:32:52	315911	5.0.10.0	5_exp_noRW	16	Rpleas_acq	CS_B	BZZB	VKKV	MQQM	YDDY	GWWG	JXXJ	treu	schön	retten	spielen	fair	ehrlich	tot	schlecht	rächen	strafen	faul	eitel	47pct	acq_USunple_CSunple2_noRW	acq23456_noRW	2	17	0	0	300	300	374	46	0	1	1	blank2r.bmp	0	1	+	0	1	blank2r.bmp	252	1	YDDY	306	2	faul	559	0	0	0	0	0	0	0	0	0	0	0	0	0	0	0	0	0	0	0	0	0	0	0	0	0	0	0	0	0	0	0	0	0	0	0	0	0	0	0
070319	15:27:36	15:32:54	317470	5.0.10.0	5_exp_noRW	16	Rpleas_acq	CS_B	BZZB	VKKV	MQQM	YDDY	GWWG	JXXJ	treu	schön	retten	spielen	fair	ehrlich	tot	schlecht	rächen	strafen	faul	eitel	47pct	acq_USunple_CSpleas1_noRW	acq23456_noRW	2	18	0	0	300	300	385	46	0	1	1	blank2r.bmp	0	1	+	0	1	blank2r.bmp	252	1	BZZB	306	3	rächen	559	0	0	0	0	0	0	0	0	0	0	0	0	0	0	0	0	0	0	0	0	0	0	0	0	0	0	0	0	0	0	0	0	0	0	0	0	0	0	0
070319	15:27:36	15:32:55	319070	5.0.10.0	5_exp_noRW	16	Rpleas_acq	CS_B	BZZB	VKKV	MQQM	YDDY	GWWG	JXXJ	treu	schön	retten	spielen	fair	ehrlich	tot	schlecht	rächen	strafen	faul	eitel	53pct	acq_USunple_CSunple1_noRW	acq23456_noRW	2	19	0	0	300	300	437	46	0	1	1	blank2r.bmp	0	1	+	0	1	blank2r.bmp	252	1	MQQM	306	2	schlecht	559	0	0	0	0	0	0	0	0	0	0	0	0	0	0	0	0	0	0	0	0	0	0	0	0	0	0	0	0	0	0	0	0	0	0	0	0	0	0	0
070319	15:27:36	15:32:57	320669	5.0.10.0	5_exp_noRW	16	Rpleas_acq	CS_B	BZZB	VKKV	MQQM	YDDY	GWWG	JXXJ	treu	schön	retten	spielen	fair	ehrlich	tot	schlecht	rächen	strafen	faul	eitel	47pct	acq_USpleas_CSunple1_noRW	acq23456_noRW	2	20	0	0	300	300	405	50	0	1	1	blank2r.bmp	0	1	+	0	1	blank2r.bmp	252	1	MQQM	306	1	treu	559	0	0	0	0	0	0	0	0	0	0	0	0	0	0	0	0	0	0	0	0	0	0	0	0	0	0	0	0	0	0	0	0	0	0	0	0	0	0	0
070319	15:27:36	15:32:59	322322	5.0.10.0	5_exp_noRW	16	Rpleas_acq	CS_B	BZZB	VKKV	MQQM	YDDY	GWWG	JXXJ	treu	schön	retten	spielen	fair	ehrlich	tot	schlecht	rächen	strafen	faul	eitel	47pct	acq_USunple_CSpleas1_noRW	acq23456_noRW	2	21	0	0	300	300	467	46	0	1	1	blank2r.bmp	0	1	+	0	1	blank2r.bmp	252	1	BZZB	306	1	tot	559	0	0	0	0	0	0	0	0	0	0	0	0	0	0	0	0	0	0	0	0	0	0	0	0	0	0	0	0	0	0	0	0	0	0	0	0	0	0	0
070319	15:27:36	15:33:00	324001	5.0.10.0	5_exp_noRW	16	Rpleas_acq	CS_B	BZZB	VKKV	MQQM	YDDY	GWWG	JXXJ	treu	schön	retten	spielen	fair	ehrlich	tot	schlecht	rächen	strafen	faul	eitel	47pct	acq_USpleas_CSpleas2_noRW	acq23456_noRW	2	22	0	0	300	300	514	50	0	1	1	blank2r.bmp	0	1	+	0	1	blank2r.bmp	252	1	VKKV	306	2	fair	559	0	0	0	0	0	0	0	0	0	0	0	0	0	0	0	0	0	0	0	0	0	0	0	0	0	0	0	0	0	0	0	0	0	0	0	0	0	0	0
070319	15:27:36	15:33:02	325547	5.0.10.0	5_exp_noRW	16	Rpleas_acq	CS_B	BZZB	VKKV	MQQM	YDDY	GWWG	JXXJ	treu	schön	retten	spielen	fair	ehrlich	tot	schlecht	rächen	strafen	faul	eitel	53pct	acq_USunple_CSunple1_noRW	acq23456_noRW	2	23	0	0	300	300	381	46	0	1	1	blank2r.bmp	0	1	+	0	1	blank2r.bmp	252	1	MQQM	306	1	tot	559	0	0	0	0	0	0	0	0	0	0	0	0	0	0	0	0	0	0	0	0	0	0	0	0	0	0	0	0	0	0	0	0	0	0	0	0	0	0	0
070319	15:27:36	15:33:03	327066	5.0.10.0	5_exp_noRW	16	Rpleas_acq	CS_B	BZZB	VKKV	MQQM	YDDY	GWWG	JXXJ	treu	schön	retten	spielen	fair	ehrlich	tot	schlecht	rächen	strafen	faul	eitel	47pct	acq_USpleas_CSpleas2_noRW	acq23456_noRW	2	24	0	0	300	300	340	50	0	1	1	blank2r.bmp	0	1	+	0	1	blank2r.bmp	252	1	VKKV	306	2	fair	559	0	0	0	0	0	0	0	0	0	0	0	0	0	0	0	0	0	0	0	0	0	0	0	0	0	0	0	0	0	0	0	0	0	0	0	0	0	0	0
070319	15:27:36	15:33:05	328666	5.0.10.0	5_exp_noRW	16	Rpleas_acq	CS_B	BZZB	VKKV	MQQM	YDDY	GWWG	JXXJ	treu	schön	retten	spielen	fair	ehrlich	tot	schlecht	rächen	strafen	faul	eitel	47pct	acq_USpleas_CSunple2_noRW	acq23456_noRW	2	25	0	0	300	300	412	50	0	1	1	blank2r.bmp	0	1	+	0	1	blank2r.bmp	252	1	YDDY	306	2	fair	559	0	0	0	0	0	0	0	0	0	0	0	0	0	0	0	0	0	0	0	0	0	0	0	0	0	0	0	0	0	0	0	0	0	0	0	0	0	0	0
070319	15:27:36	15:33:07	330225	5.0.10.0	5_exp_noRW	16	Rpleas_acq	CS_B	BZZB	VKKV	MQQM	YDDY	GWWG	JXXJ	treu	schön	retten	spielen	fair	ehrlich	tot	schlecht	rächen	strafen	faul	eitel	47pct	acq_USpleas_CSpleas1_noRW	acq23456_noRW	2	26	0	0	300	300	397	50	0	1	1	blank2r.bmp	0	1	+	0	1	blank2r.bmp	252	1	BZZB	306	2	schön	559	0	0	0	0	0	0	0	0	0	0	0	0	0	0	0	0	0	0	0	0	0	0	0	0	0	0	0	0	0	0	0	0	0	0	0	0	0	0	0
070319	15:27:36	15:33:08	331824	5.0.10.0	5_exp_noRW	16	Rpleas_acq	CS_B	BZZB	VKKV	MQQM	YDDY	GWWG	JXXJ	treu	schön	retten	spielen	fair	ehrlich	tot	schlecht	rächen	strafen	faul	eitel	47pct	acq_USunple_CSunple1_noRW	acq23456_noRW	2	27	0	0	300	300	424	46	0	1	1	blank2r.bmp	0	1	+	0	1	blank2r.bmp	252	1	MQQM	306	2	schlecht	559	0	0	0	0	0	0	0	0	0	0	0	0	0	0	0	0	0	0	0	0	0	0	0	0	0	0	0	0	0	0	0	0	0	0	0	0	0	0	0
070319	15:27:36	15:33:10	333437	5.0.10.0	5_exp_noRW	16	Rpleas_acq	CS_B	BZZB	VKKV	MQQM	YDDY	GWWG	JXXJ	treu	schön	retten	spielen	fair	ehrlich	tot	schlecht	rächen	strafen	faul	eitel	47pct	acq_USunple_CSunple1_noRW	acq23456_noRW	2	28	0	0	300	300	438	46	0	1	1	blank2r.bmp	0	1	+	0	1	blank2r.bmp	252	1	MQQM	306	1	tot	559	0	0	0	0	0	0	0	0	0	0	0	0	0	0	0	0	0	0	0	0	0	0	0	0	0	0	0	0	0	0	0	0	0	0	0	0	0	0	0
070319	15:27:36	15:33:12	335303	5.0.10.0	5_exp_noRW	16	Rpleas_acq	CS_B	BZZB	VKKV	MQQM	YDDY	GWWG	JXXJ	treu	schön	retten	spielen	fair	ehrlich	tot	schlecht	rächen	strafen	faul	eitel	53pct	acq_USunple_CSunple2_noRW	acq23456_noRW	2	29	0	0	300	300	671	46	0	1	1	blank2r.bmp	0	1	+	0	1	blank2r.bmp	252	1	YDDY	306	3	eitel	559	0	0	0	0	0	0	0	0	0	0	0	0	0	0	0	0	0	0	0	0	0	0	0	0	0	0	0	0	0	0	0	0	0	0	0	0	0	0	0
070319	15:27:36	15:33:13	336929	5.0.10.0	5_exp_noRW	16	Rpleas_acq	CS_B	BZZB	VKKV	MQQM	YDDY	GWWG	JXXJ	treu	schön	retten	spielen	fair	ehrlich	tot	schlecht	rächen	strafen	faul	eitel	47pct	acq_USunple_CSunple2_noRW	acq23456_noRW	2	30	0	0	300	300	439	46	0	1	1	blank2r.bmp	0	1	+	0	1	blank2r.bmp	252	1	YDDY	306	3	eitel	559	0	0	0	0	0	0	0	0	0	0	0	0	0	0	0	0	0	0	0	0	0	0	0	0	0	0	0	0	0	0	0	0	0	0	0	0	0	0	0
070319	15:27:36	15:33:16	339288	5.0.10.0	5_exp_noRW	16	Rpleas_acq	CS_B	BZZB	VKKV	MQQM	YDDY	GWWG	JXXJ	treu	schön	retten	spielen	fair	ehrlich	tot	schlecht	rächen	strafen	faul	eitel	47pct	acq_USpleas_CSpleas1_noRW	acq23456_noRW	2	31	0	0	300	300	1175	50	0	1	1	blank2r.bmp	0	1	+	0	1	blank2r.bmp	252	1	BZZB	306	3	retten	559	0	0	0	0	0	0	0	0	0	0	0	0	0	0	0	0	0	0	0	0	0	0	0	0	0	0	0	0	0	0	0	0	0	0	0	0	0	0	0
070319	15:27:36	15:33:17	340994	5.0.10.0	5_exp_noRW	16	Rpleas_acq	CS_B	BZZB	VKKV	MQQM	YDDY	GWWG	JXXJ	treu	schön	retten	spielen	fair	ehrlich	tot	schlecht	rächen	strafen	faul	eitel	47pct	acq_USunple_CSunple2_noRW	acq23456_noRW	2	32	0	0	300	300	540	46	0	1	1	blank2r.bmp	0	1	+	0	1	blank2r.bmp	252	1	YDDY	306	2	faul	559	0	0	0	0	0	0	0	0	0	0	0	0	0	0	0	0	0	0	0	0	0	0	0	0	0	0	0	0	0	0	0	0	0	0	0	0	0	0	0
070319	15:27:36	15:33:19	342713	5.0.10.0	5_exp_noRW	16	Rpleas_acq	CS_B	BZZB	VKKV	MQQM	YDDY	GWWG	JXXJ	treu	schön	retten	spielen	fair	ehrlich	tot	schlecht	rächen	strafen	faul	eitel	53pct	acq_USpleas_CSunple1_noRW	acq23456_noRW	2	33	0	0	300	300	541	50	0	1	1	blank2r.bmp	0	1	+	0	1	blank2r.bmp	252	1	MQQM	306	3	retten	559	0	0	0	0	0	0	0	0	0	0	0	0	0	0	0	0	0	0	0	0	0	0	0	0	0	0	0	0	0	0	0	0	0	0	0	0	0	0	0
070319	15:27:36	15:33:21	344459	5.0.10.0	5_exp_noRW	16	Rpleas_acq	CS_B	BZZB	VKKV	MQQM	YDDY	GWWG	JXXJ	treu	schön	retten	spielen	fair	ehrlich	tot	schlecht	rächen	strafen	faul	eitel	47pct	acq_USpleas_CSpleas1_noRW	acq23456_noRW	2	34	0	0	300	300	560	50	0	1	1	blank2r.bmp	0	1	+	0	1	blank2r.bmp	252	1	BZZB	306	2	schön	559	0	0	0	0	0	0	0	0	0	0	0	0	0	0	0	0	0	0	0	0	0	0	0	0	0	0	0	0	0	0	0	0	0	0	0	0	0	0	0
070319	15:27:36	15:33:22	346072	5.0.10.0	5_exp_noRW	16	Rpleas_acq	CS_B	BZZB	VKKV	MQQM	YDDY	GWWG	JXXJ	treu	schön	retten	spielen	fair	ehrlich	tot	schlecht	rächen	strafen	faul	eitel	47pct	acq_USunple_CSunple2_noRW	acq23456_noRW	2	35	0	0	300	300	441	46	0	1	1	blank2r.bmp	0	1	+	0	1	blank2r.bmp	252	1	YDDY	306	1	strafen	559	0	0	0	0	0	0	0	0	0	0	0	0	0	0	0	0	0	0	0	0	0	0	0	0	0	0	0	0	0	0	0	0	0	0	0	0	0	0	0
070319	15:27:36	15:33:24	347725	5.0.10.0	5_exp_noRW	16	Rpleas_acq	CS_B	BZZB	VKKV	MQQM	YDDY	GWWG	JXXJ	treu	schön	retten	spielen	fair	ehrlich	tot	schlecht	rächen	strafen	faul	eitel	53pct	acq_USunple_CSpleas2_noRW	acq23456_noRW	2	36	0	0	300	300	479	46	0	1	1	blank2r.bmp	0	1	+	0	1	blank2r.bmp	252	1	VKKV	306	3	eitel	559	0	0	0	0	0	0	0	0	0	0	0	0	0	0	0	0	0	0	0	0	0	0	0	0	0	0	0	0	0	0	0	0	0	0	0	0	0	0	0
070319	15:27:36	15:33:26	349351	5.0.10.0	5_exp_noRW	16	Rpleas_acq	CS_B	BZZB	VKKV	MQQM	YDDY	GWWG	JXXJ	treu	schön	retten	spielen	fair	ehrlich	tot	schlecht	rächen	strafen	faul	eitel	53pct	acq_USunple_CSunple1_noRW	acq23456_noRW	2	37	0	0	300	300	446	46	0	1	1	blank2r.bmp	0	1	+	0	1	blank2r.bmp	252	1	MQQM	306	3	rächen	559	0	0	0	0	0	0	0	0	0	0	0	0	0	0	0	0	0	0	0	0	0	0	0	0	0	0	0	0	0	0	0	0	0	0	0	0	0	0	0
070319	15:27:36	15:33:27	350990	5.0.10.0	5_exp_noRW	16	Rpleas_acq	CS_B	BZZB	VKKV	MQQM	YDDY	GWWG	JXXJ	treu	schön	retten	spielen	fair	ehrlich	tot	schlecht	rächen	strafen	faul	eitel	53pct	acq_USpleas_CSpleas2_noRW	acq23456_noRW	2	38	0	0	300	300	465	50	0	1	1	blank2r.bmp	0	1	+	0	1	blank2r.bmp	252	1	VKKV	306	3	ehrlich	559	0	0	0	0	0	0	0	0	0	0	0	0	0	0	0	0	0	0	0	0	0	0	0	0	0	0	0	0	0	0	0	0	0	0	0	0	0	0	0
070319	15:27:36	15:33:29	352669	5.0.10.0	5_exp_noRW	16	Rpleas_acq	CS_B	BZZB	VKKV	MQQM	YDDY	GWWG	JXXJ	treu	schön	retten	spielen	fair	ehrlich	tot	schlecht	rächen	strafen	faul	eitel	47pct	acq_USpleas_CSpleas1_noRW	acq23456_noRW	2	39	0	0	300	300	507	50	0	1	1	blank2r.bmp	0	1	+	0	1	blank2r.bmp	252	1	BZZB	306	1	treu	559	0	0	0	0	0	0	0	0	0	0	0	0	0	0	0	0	0	0	0	0	0	0	0	0	0	0	0	0	0	0	0	0	0	0	0	0	0	0	0
070319	15:27:36	15:33:31	354509	5.0.10.0	5_exp_noRW	16	Rpleas_acq	CS_B	BZZB	VKKV	MQQM	YDDY	GWWG	JXXJ	treu	schön	retten	spielen	fair	ehrlich	tot	schlecht	rächen	strafen	faul	eitel	53pct	acq_USpleas_CSpleas2_noRW	acq23456_noRW	2	40	0	0	300	300	653	50	0	1	1	blank2r.bmp	0	1	+	0	1	blank2r.bmp	252	1	VKKV	306	1	spielen	559	0	0	0	0	0	0	0	0	0	0	0	0	0	0	0	0	0	0	0	0	0	0	0	0	0	0	0	0	0	0	0	0	0	0	0	0	0	0	0
070319	15:27:36	15:33:32	356055	5.0.10.0	5_exp_noRW	16	Rpleas_acq	CS_B	BZZB	VKKV	MQQM	YDDY	GWWG	JXXJ	treu	schön	retten	spielen	fair	ehrlich	tot	schlecht	rächen	strafen	faul	eitel	47pct	acq_USunple_CSunple2_noRW	acq23456_noRW	2	41	0	0	300	300	363	46	0	1	1	blank2r.bmp	0	1	+	0	1	blank2r.bmp	252	1	YDDY	306	1	strafen	559	0	0	0	0	0	0	0	0	0	0	0	0	0	0	0	0	0	0	0	0	0	0	0	0	0	0	0	0	0	0	0	0	0	0	0	0	0	0	0
070319	15:27:36	15:33:34	357654	5.0.10.0	5_exp_noRW	16	Rpleas_acq	CS_B	BZZB	VKKV	MQQM	YDDY	GWWG	JXXJ	treu	schön	retten	spielen	fair	ehrlich	tot	schlecht	rächen	strafen	faul	eitel	47pct	acq_USpleas_CSpleas1_noRW	acq23456_noRW	2	42	0	0	300	300	420	50	0	1	1	blank2r.bmp	0	1	+	0	1	blank2r.bmp	252	1	BZZB	306	3	retten	559	0	0	0	0	0	0	0	0	0	0	0	0	0	0	0	0	0	0	0	0	0	0	0	0	0	0	0	0	0	0	0	0	0	0	0	0	0	0	0
070319	15:27:36	15:33:36	359293	5.0.10.0	5_exp_noRW	16	Rpleas_acq	CS_B	BZZB	VKKV	MQQM	YDDY	GWWG	JXXJ	treu	schön	retten	spielen	fair	ehrlich	tot	schlecht	rächen	strafen	faul	eitel	47pct	acq_USpleas_CSpleas2_noRW	acq23456_noRW	2	43	0	0	300	300	459	50	0	1	1	blank2r.bmp	0	1	+	0	1	blank2r.bmp	252	1	VKKV	306	3	ehrlich	559	0	0	0	0	0	0	0	0	0	0	0	0	0	0	0	0	0	0	0	0	0	0	0	0	0	0	0	0	0	0	0	0	0	0	0	0	0	0	0
070319	15:27:36	15:33:37	360839	5.0.10.0	5_exp_noRW	16	Rpleas_acq	CS_B	BZZB	VKKV	MQQM	YDDY	GWWG	JXXJ	treu	schön	retten	spielen	fair	ehrlich	tot	schlecht	rächen	strafen	faul	eitel	53pct	acq_USunple_CSpleas2_noRW	acq23456_noRW	2	44	0	0	300	300	359	46	0	1	1	blank2r.bmp	0	1	+	0	1	blank2r.bmp	252	1	VKKV	306	2	faul	559	0	0	0	0	0	0	0	0	0	0	0	0	0	0	0	0	0	0	0	0	0	0	0	0	0	0	0	0	0	0	0	0	0	0	0	0	0	0	0
070319	15:27:36	15:33:39	362505	5.0.10.0	5_exp_noRW	16	Rpleas_acq	CS_B	BZZB	VKKV	MQQM	YDDY	GWWG	JXXJ	treu	schön	retten	spielen	fair	ehrlich	tot	schlecht	rächen	strafen	faul	eitel	53pct	acq_USunple_CSunple2_noRW	acq23456_noRW	2	45	0	0	300	300	497	46	0	1	1	blank2r.bmp	0	1	+	0	1	blank2r.bmp	252	1	YDDY	306	3	eitel	559	0	0	0	0	0	0	0	0	0	0	0	0	0	0	0	0	0	0	0	0	0	0	0	0	0	0	0	0	0	0	0	0	0	0	0	0	0	0	0
070319	15:27:36	15:33:41	364158	5.0.10.0	5_exp_noRW	16	Rpleas_acq	CS_B	BZZB	VKKV	MQQM	YDDY	GWWG	JXXJ	treu	schön	retten	spielen	fair	ehrlich	tot	schlecht	rächen	strafen	faul	eitel	53pct	acq_USpleas_CSpleas2_noRW	acq23456_noRW	2	46	0	0	300	300	488	50	0	1	1	blank2r.bmp	0	1	+	0	1	blank2r.bmp	252	1	VKKV	306	1	spielen	559	0	0	0	0	0	0	0	0	0	0	0	0	0	0	0	0	0	0	0	0	0	0	0	0	0	0	0	0	0	0	0	0	0	0	0	0	0	0	0
070319	15:27:36	15:33:42	365824	5.0.10.0	5_exp_noRW	16	Rpleas_acq	CS_B	BZZB	VKKV	MQQM	YDDY	GWWG	JXXJ	treu	schön	retten	spielen	fair	ehrlich	tot	schlecht	rächen	strafen	faul	eitel	47pct	acq_USunple_CSpleas1_noRW	acq23456_noRW	2	47	0	0	300	300	491	46	0	1	1	blank2r.bmp	0	1	+	0	1	blank2r.bmp	252	1	BZZB	306	3	rächen	559	0	0	0	0	0	0	0	0	0	0	0	0	0	0	0	0	0	0	0	0	0	0	0	0	0	0	0	0	0	0	0	0	0	0	0	0	0	0	0
070319	15:27:36	15:33:44	367437	5.0.10.0	5_exp_noRW	16	Rpleas_acq	CS_B	BZZB	VKKV	MQQM	YDDY	GWWG	JXXJ	treu	schön	retten	spielen	fair	ehrlich	tot	schlecht	rächen	strafen	faul	eitel	47pct	acq_USpleas_CSpleas1_noRW	acq23456_noRW	2	48	0	0	300	300	434	50	0	1	1	blank2r.bmp	0	1	+	0	1	blank2r.bmp	252	1	BZZB	306	2	schön	559	0	0	0	0	0	0	0	0	0	0	0	0	0	0	0	0	0	0	0	0	0	0	0	0	0	0	0	0	0	0	0	0	0	0	0	0	0	0	0
070319	15:27:36	15:33:45	369036	5.0.10.0	5_exp_noRW	16	Rpleas_acq	CS_B	BZZB	VKKV	MQQM	YDDY	GWWG	JXXJ	treu	schön	retten	spielen	fair	ehrlich	tot	schlecht	rächen	strafen	faul	eitel	53pct	acq_USunple_CSunple1_noRW	acq23456_noRW	2	49	0	0	300	300	414	46	0	1	1	blank2r.bmp	0	1	+	0	1	blank2r.bmp	252	1	MQQM	306	2	schlecht	559	0	0	0	0	0	0	0	0	0	0	0	0	0	0	0	0	0	0	0	0	0	0	0	0	0	0	0	0	0	0	0	0	0	0	0	0	0	0	0
070319	15:27:36	15:33:47	370582	5.0.10.0	5_exp_noRW	16	Rpleas_acq	CS_B	BZZB	VKKV	MQQM	YDDY	GWWG	JXXJ	treu	schön	retten	spielen	fair	ehrlich	tot	schlecht	rächen	strafen	faul	eitel	47pct	acq_USpleas_CSpleas1_noRW	acq23456_noRW	2	50	0	0	300	300	385	50	0	1	1	blank2r.bmp	0	1	+	0	1	blank2r.bmp	252	1	BZZB	306	1	treu	559	0	0	0	0	0	0	0	0	0	0	0	0	0	0	0	0	0	0	0	0	0	0	0	0	0	0	0	0	0	0	0	0	0	0	0	0	0	0	0
070319	15:27:36	15:33:49	372688	5.0.10.0	5_exp_noRW	16	Rpleas_acq	CS_B	BZZB	VKKV	MQQM	YDDY	GWWG	JXXJ	treu	schön	retten	spielen	fair	ehrlich	tot	schlecht	rächen	strafen	faul	eitel	47pct	acq_USunple_CSunple2_noRW	acq23456_noRW	2	51	0	0	300	300	920	46	0	1	1	blank2r.bmp	0	1	+	0	1	blank2r.bmp	252	1	YDDY	306	2	faul	559	0	0	0	0	0	0	0	0	0	0	0	0	0	0	0	0	0	0	0	0	0	0	0	0	0	0	0	0	0	0	0	0	0	0	0	0	0	0	0
070319	15:27:36	15:33:51	374394	5.0.10.0	5_exp_noRW	16	Rpleas_acq	CS_B	BZZB	VKKV	MQQM	YDDY	GWWG	JXXJ	treu	schön	retten	spielen	fair	ehrlich	tot	schlecht	rächen	strafen	faul	eitel	47pct	acq_USpleas_CSunple2_noRW	acq23456_noRW	2	52	0	0	300	300	534	50	0	1	1	blank2r.bmp	0	1	+	0	1	blank2r.bmp	252	1	YDDY	306	2	fair	559	0	0	0	0	0	0	0	0	0	0	0	0	0	0	0	0	0	0	0	0	0	0	0	0	0	0	0	0	0	0	0	0	0	0	0	0	0	0	0
070319	15:27:36	15:33:52	376087	5.0.10.0	5_exp_noRW	16	Rpleas_acq	CS_B	BZZB	VKKV	MQQM	YDDY	GWWG	JXXJ	treu	schön	retten	spielen	fair	ehrlich	tot	schlecht	rächen	strafen	faul	eitel	47pct	acq_USunple_CSunple1_noRW	acq23456_noRW	2	53	0	0	300	300	521	46	0	1	1	blank2r.bmp	0	1	+	0	1	blank2r.bmp	252	1	MQQM	306	3	rächen	559	0	0	0	0	0	0	0	0	0	0	0	0	0	0	0	0	0	0	0	0	0	0	0	0	0	0	0	0	0	0	0	0	0	0	0	0	0	0	0
070319	15:27:36	15:33:54	377859	5.0.10.0	5_exp_noRW	16	Rpleas_acq	CS_B	BZZB	VKKV	MQQM	YDDY	GWWG	JXXJ	treu	schön	retten	spielen	fair	ehrlich	tot	schlecht	rächen	strafen	faul	eitel	53pct	acq_USpleas_CSunple1_noRW	acq23456_noRW	2	54	0	0	300	300	600	50	0	1	1	blank2r.bmp	0	1	+	0	1	blank2r.bmp	252	1	MQQM	306	3	retten	559	0	0	0	0	0	0	0	0	0	0	0	0	0	0	0	0	0	0	0	0	0	0	0	0	0	0	0	0	0	0	0	0	0	0	0	0	0	0	0
070319	15:27:36	15:33:56	379632	5.0.10.0	5_exp_noRW	16	Rpleas_acq	CS_B	BZZB	VKKV	MQQM	YDDY	GWWG	JXXJ	treu	schön	retten	spielen	fair	ehrlich	tot	schlecht	rächen	strafen	faul	eitel	53pct	acq_USpleas_CSpleas2_noRW	acq23456_noRW	2	55	0	0	300	300	609	50	0	1	1	blank2r.bmp	0	1	+	0	1	blank2r.bmp	252	1	VKKV	306	2	fair	559	0	0	0	0	0	0	0	0	0	0	0	0	0	0	0	0	0	0	0	0	0	0	0	0	0	0	0	0	0	0	0	0	0	0	0	0	0	0	0
070319	15:27:36	15:33:58	381311	5.0.10.0	5_exp_noRW	16	Rpleas_acq	CS_B	BZZB	VKKV	MQQM	YDDY	GWWG	JXXJ	treu	schön	retten	spielen	fair	ehrlich	tot	schlecht	rächen	strafen	faul	eitel	53pct	acq_USunple_CSunple1_noRW	acq23456_noRW	2	56	0	0	300	300	493	46	0	1	1	blank2r.bmp	0	1	+	0	1	blank2r.bmp	252	1	MQQM	306	1	tot	559	0	0	0	0	0	0	0	0	0	0	0	0	0	0	0	0	0	0	0	0	0	0	0	0	0	0	0	0	0	0	0	0	0	0	0	0	0	0	0
070319	15:27:36	15:33:59	382924	5.0.10.0	5_exp_noRW	16	Rpleas_acq	CS_B	BZZB	VKKV	MQQM	YDDY	GWWG	JXXJ	treu	schön	retten	spielen	fair	ehrlich	tot	schlecht	rächen	strafen	faul	eitel	47pct	acq_USpleas_CSpleas2_noRW	acq23456_noRW	2	57	0	0	300	300	426	50	0	1	1	blank2r.bmp	0	1	+	0	1	blank2r.bmp	252	1	VKKV	306	1	spielen	559	0	0	0	0	0	0	0	0	0	0	0	0	0	0	0	0	0	0	0	0	0	0	0	0	0	0	0	0	0	0	0	0	0	0	0	0	0	0	0
070319	15:27:36	15:34:01	384563	5.0.10.0	5_exp_noRW	16	Rpleas_acq	CS_B	BZZB	VKKV	MQQM	YDDY	GWWG	JXXJ	treu	schön	retten	spielen	fair	ehrlich	tot	schlecht	rächen	strafen	faul	eitel	53pct	acq_USunple_CSunple2_noRW	acq23456_noRW	2	58	0	0	300	300	466	46	0	1	1	blank2r.bmp	0	1	+	0	1	blank2r.bmp	252	1	YDDY	306	3	eitel	559	0	0	0	0	0	0	0	0	0	0	0	0	0	0	0	0	0	0	0	0	0	0	0	0	0	0	0	0	0	0	0	0	0	0	0	0	0	0	0
070319	15:27:36	15:34:03	386242	5.0.10.0	5_exp_noRW	16	Rpleas_acq	CS_B	BZZB	VKKV	MQQM	YDDY	GWWG	JXXJ	treu	schön	retten	spielen	fair	ehrlich	tot	schlecht	rächen	strafen	faul	eitel	53pct	acq_USpleas_CSpleas1_noRW	acq23456_noRW	2	59	0	0	300	300	509	50	0	1	1	blank2r.bmp	0	1	+	0	1	blank2r.bmp	252	1	BZZB	306	3	retten	559	0	0	0	0	0	0	0	0	0	0	0	0	0	0	0	0	0	0	0	0	0	0	0	0	0	0	0	0	0	0	0	0	0	0	0	0	0	0	0
070319	15:27:36	15:34:04	387868	5.0.10.0	5_exp_noRW	16	Rpleas_acq	CS_B	BZZB	VKKV	MQQM	YDDY	GWWG	JXXJ	treu	schön	retten	spielen	fair	ehrlich	tot	schlecht	rächen	strafen	faul	eitel	47pct	acq_USunple_CSunple1_noRW	acq23456_noRW	2	60	0	0	300	300	455	46	0	1	1	blank2r.bmp	0	1	+	0	1	blank2r.bmp	252	1	MQQM	306	3	rächen	559	0	0	0	0	0	0	0	0	0	0	0	0	0	0	0	0	0	0	0	0	0	0	0	0	0	0	0	0	0	0	0	0	0	0	0	0	0	0	0
070319	15:27:36	15:34:06	389628	5.0.10.0	5_exp_noRW	16	Rpleas_acq	CS_B	BZZB	VKKV	MQQM	YDDY	GWWG	JXXJ	treu	schön	retten	spielen	fair	ehrlich	tot	schlecht	rächen	strafen	faul	eitel	53pct	acq_USunple_CSunple2_noRW	acq23456_noRW	2	61	0	0	300	300	587	46	0	1	1	blank2r.bmp	0	1	+	0	1	blank2r.bmp	252	1	YDDY	306	1	strafen	559	0	0	0	0	0	0	0	0	0	0	0	0	0	0	0	0	0	0	0	0	0	0	0	0	0	0	0	0	0	0	0	0	0	0	0	0	0	0	0
070319	15:27:36	15:34:08	391200	5.0.10.0	5_exp_noRW	16	Rpleas_acq	CS_B	BZZB	VKKV	MQQM	YDDY	GWWG	JXXJ	treu	schön	retten	spielen	fair	ehrlich	tot	schlecht	rächen	strafen	faul	eitel	53pct	acq_USunple_CSunple1_noRW	acq23456_noRW	2	62	0	0	300	300	400	46	0	1	1	blank2r.bmp	0	1	+	0	1	blank2r.bmp	252	1	MQQM	306	1	tot	559	0	0	0	0	0	0	0	0	0	0	0	0	0	0	0	0	0	0	0	0	0	0	0	0	0	0	0	0	0	0	0	0	0	0	0	0	0	0	0
070319	15:27:36	15:34:09	392973	5.0.10.0	5_exp_noRW	16	Rpleas_acq	CS_B	BZZB	VKKV	MQQM	YDDY	GWWG	JXXJ	treu	schön	retten	spielen	fair	ehrlich	tot	schlecht	rächen	strafen	faul	eitel	53pct	acq_USpleas_CSpleas2_noRW	acq23456_noRW	2	63	0	0	300	300	589	50	0	1	1	blank2r.bmp	0	1	+	0	1	blank2r.bmp	252	1	VKKV	306	3	ehrlich	559	0	0	0	0	0	0	0	0	0	0	0	0	0	0	0	0	0	0	0	0	0	0	0	0	0	0	0	0	0	0	0	0	0	0	0	0	0	0	0
070319	15:27:36	15:34:11	394666	5.0.10.0	5_exp_noRW	16	Rpleas_acq	CS_B	BZZB	VKKV	MQQM	YDDY	GWWG	JXXJ	treu	schön	retten	spielen	fair	ehrlich	tot	schlecht	rächen	strafen	faul	eitel	53pct	acq_USpleas_CSpleas1_noRW	acq23456_noRW	2	64	0	0	300	300	519	50	0	1	1	blank2r.bmp	0	1	+	0	1	blank2r.bmp	252	1	BZZB	306	2	schön	559	0	0	0	0	0	0	0	0	0	0	0	0	0	0	0	0	0	0	0	0	0	0	0	0	0	0	0	0	0	0	0	0	0	0	0	0	0	0	0
070319	15:27:36	15:34:13	396505	5.0.10.0	5_exp_noRW	16	Rpleas_acq	CS_B	BZZB	VKKV	MQQM	YDDY	GWWG	JXXJ	treu	schön	retten	spielen	fair	ehrlich	tot	schlecht	rächen	strafen	faul	eitel	47pct	acq_USunple_CSunple2_noRW	acq23456_noRW	2	65	0	0	300	300	670	46	0	1	1	blank2r.bmp	0	1	+	0	1	blank2r.bmp	252	1	YDDY	306	2	faul	559	0	0	0	0	0	0	0	0	0	0	0	0	0	0	0	0	0	0	0	0	0	0	0	0	0	0	0	0	0	0	0	0	0	0	0	0	0	0	0
070319	15:27:36	15:34:15	398451	5.0.10.0	5_exp_noRW	16	Rpleas_acq	CS_B	BZZB	VKKV	MQQM	YDDY	GWWG	JXXJ	treu	schön	retten	spielen	fair	ehrlich	tot	schlecht	rächen	strafen	faul	eitel	47pct	acq_USpleas_CSpleas2_noRW	acq23456_noRW	2	66	0	0	300	300	758	50	0	1	1	blank2r.bmp	0	1	+	0	1	blank2r.bmp	252	1	VKKV	306	2	fair	559	0	0	0	0	0	0	0	0	0	0	0	0	0	0	0	0	0	0	0	0	0	0	0	0	0	0	0	0	0	0	0	0	0	0	0	0	0	0	0
070319	15:27:36	15:34:16	400037	5.0.10.0	5_exp_noRW	16	Rpleas_acq	CS_B	BZZB	VKKV	MQQM	YDDY	GWWG	JXXJ	treu	schön	retten	spielen	fair	ehrlich	tot	schlecht	rächen	strafen	faul	eitel	47pct	acq_USpleas_CSpleas1_noRW	acq23456_noRW	2	67	0	0	300	300	415	50	0	1	1	blank2r.bmp	0	1	+	0	1	blank2r.bmp	252	1	BZZB	306	1	treu	559	0	0	0	0	0	0	0	0	0	0	0	0	0	0	0	0	0	0	0	0	0	0	0	0	0	0	0	0	0	0	0	0	0	0	0	0	0	0	0
070319	15:27:36	15:34:18	401676	5.0.10.0	5_exp_noRW	16	Rpleas_acq	CS_B	BZZB	VKKV	MQQM	YDDY	GWWG	JXXJ	treu	schön	retten	spielen	fair	ehrlich	tot	schlecht	rächen	strafen	faul	eitel	47pct	acq_USunple_CSunple2_noRW	acq23456_noRW	2	68	0	0	300	300	465	46	0	1	1	blank2r.bmp	0	1	+	0	1	blank2r.bmp	252	1	YDDY	306	2	faul	559	0	0	0	0	0	0	0	0	0	0	0	0	0	0	0	0	0	0	0	0	0	0	0	0	0	0	0	0	0	0	0	0	0	0	0	0	0	0	0
070319	15:27:36	15:34:20	403715	5.0.10.0	5_exp_noRW	16	Rpleas_acq	CS_B	BZZB	VKKV	MQQM	YDDY	GWWG	JXXJ	treu	schön	retten	spielen	fair	ehrlich	tot	schlecht	rächen	strafen	faul	eitel	47pct	acq_USunple_CSpleas2_noRW	acq23456_noRW	2	69	0	0	300	300	657	50	0	0	1	blank2r.bmp	0	1	+	0	1	blank2r.bmp	252	1	VKKV	306	3	eitel	559	1	FEHLER	1252	0	0	0	0	0	0	0	0	0	0	0	0	0	0	0	0	0	0	0	0	0	0	0	0	0	0	0	0	0	0	0	0	0	0	0	0
070319	15:27:36	15:34:22	405341	5.0.10.0	5_exp_noRW	16	Rpleas_acq	CS_B	BZZB	VKKV	MQQM	YDDY	GWWG	JXXJ	treu	schön	retten	spielen	fair	ehrlich	tot	schlecht	rächen	strafen	faul	eitel	53pct	acq_USunple_CSunple1_noRW	acq23456_noRW	2	70	0	0	300	300	670	46	0	1	1	blank2r.bmp	0	1	+	0	1	blank2r.bmp	252	1	MQQM	306	2	schlecht	559	0	0	0	0	0	0	0	0	0	0	0	0	0	0	0	0	0	0	0	0	0	0	0	0	0	0	0	0	0	0	0	0	0	0	0	0	0	0	0
070319	15:27:36	15:34:24	407274	5.0.10.0	5_exp_noRW	16	Rpleas_acq	CS_B	BZZB	VKKV	MQQM	YDDY	GWWG	JXXJ	treu	schön	retten	spielen	fair	ehrlich	tot	schlecht	rächen	strafen	faul	eitel	53pct	acq_USunple_CSunple1_noRW	acq23456_noRW	2	71	0	0	300	300	761	46	0	1	1	blank2r.bmp	0	1	+	0	1	blank2r.bmp	252	1	MQQM	306	2	schlecht	559	0	0	0	0	0	0	0	0	0	0	0	0	0	0	0	0	0	0	0	0	0	0	0	0	0	0	0	0	0	0	0	0	0	0	0	0	0	0	0
070319	15:27:36	15:34:26	409366	5.0.10.0	5_exp_noRW	16	Rpleas_acq	CS_B	BZZB	VKKV	MQQM	YDDY	GWWG	JXXJ	treu	schön	retten	spielen	fair	ehrlich	tot	schlecht	rächen	strafen	faul	eitel	47pct	acq_USunple_CSpleas1_noRW	acq23456_noRW	2	72	0	0	300	300	931	46	0	1	1	blank2r.bmp	0	1	+	0	1	blank2r.bmp	252	1	BZZB	306	1	tot	559	0	0	0	0	0	0	0	0	0	0	0	0	0	0	0	0	0	0	0	0	0	0	0	0	0	0	0	0	0	0	0	0	0	0	0	0	0	0	0
070319	15:27:36	15:34:28	411126	5.0.10.0	5_exp_noRW	16	Rpleas_acq	CS_B	BZZB	VKKV	MQQM	YDDY	GWWG	JXXJ	treu	schön	retten	spielen	fair	ehrlich	tot	schlecht	rächen	strafen	faul	eitel	53pct	acq_USpleas_CSpleas2_noRW	acq23456_noRW	2	73	0	0	300	300	572	50	0	1	1	blank2r.bmp	0	1	+	0	1	blank2r.bmp	252	1	VKKV	306	3	ehrlich	559	0	0	0	0	0	0	0	0	0	0	0	0	0	0	0	0	0	0	0	0	0	0	0	0	0	0	0	0	0	0	0	0	0	0	0	0	0	0	0
070319	15:27:36	15:34:29	413058	5.0.10.0	5_exp_noRW	16	Rpleas_acq	CS_B	BZZB	VKKV	MQQM	YDDY	GWWG	JXXJ	treu	schön	retten	spielen	fair	ehrlich	tot	schlecht	rächen	strafen	faul	eitel	47pct	acq_USpleas_CSpleas2_noRW	acq23456_noRW	2	74	0	0	300	300	759	50	0	1	1	blank2r.bmp	0	1	+	0	1	blank2r.bmp	252	1	VKKV	306	2	fair	559	0	0	0	0	0	0	0	0	0	0	0	0	0	0	0	0	0	0	0	0	0	0	0	0	0	0	0	0	0	0	0	0	0	0	0	0	0	0	0
070319	15:27:36	15:34:31	414911	5.0.10.0	5_exp_noRW	16	Rpleas_acq	CS_B	BZZB	VKKV	MQQM	YDDY	GWWG	JXXJ	treu	schön	retten	spielen	fair	ehrlich	tot	schlecht	rächen	strafen	faul	eitel	53pct	acq_USpleas_CSunple2_noRW	acq23456_noRW	2	75	0	0	300	300	680	50	0	1	1	blank2r.bmp	0	1	+	0	1	blank2r.bmp	252	1	YDDY	306	3	ehrlich	559	0	0	0	0	0	0	0	0	0	0	0	0	0	0	0	0	0	0	0	0	0	0	0	0	0	0	0	0	0	0	0	0	0	0	0	0	0	0	0
070319	15:27:36	15:34:33	416723	5.0.10.0	5_exp_noRW	16	Rpleas_acq	CS_B	BZZB	VKKV	MQQM	YDDY	GWWG	JXXJ	treu	schön	retten	spielen	fair	ehrlich	tot	schlecht	rächen	strafen	faul	eitel	53pct	acq_USpleas_CSpleas1_noRW	acq23456_noRW	2	76	0	0	300	300	631	50	0	1	1	blank2r.bmp	0	1	+	0	1	blank2r.bmp	252	1	BZZB	306	3	retten	559	0	0	0	0	0	0	0	0	0	0	0	0	0	0	0	0	0	0	0	0	0	0	0	0	0	0	0	0	0	0	0	0	0	0	0	0	0	0	0
070319	15:27:36	15:34:35	418456	5.0.10.0	5_exp_noRW	16	Rpleas_acq	CS_B	BZZB	VKKV	MQQM	YDDY	GWWG	JXXJ	treu	schön	retten	spielen	fair	ehrlich	tot	schlecht	rächen	strafen	faul	eitel	47pct	acq_USpleas_CSpleas1_noRW	acq23456_noRW	2	77	0	0	300	300	563	50	0	1	1	blank2r.bmp	0	1	+	0	1	blank2r.bmp	252	1	BZZB	306	1	treu	559	0	0	0	0	0	0	0	0	0	0	0	0	0	0	0	0	0	0	0	0	0	0	0	0	0	0	0	0	0	0	0	0	0	0	0	0	0	0	0
070319	15:27:36	15:34:36	420109	5.0.10.0	5_exp_noRW	16	Rpleas_acq	CS_B	BZZB	VKKV	MQQM	YDDY	GWWG	JXXJ	treu	schön	retten	spielen	fair	ehrlich	tot	schlecht	rächen	strafen	faul	eitel	53pct	acq_USpleas_CSunple1_noRW	acq23456_noRW	2	78	0	0	300	300	484	50	0	1	1	blank2r.bmp	0	1	+	0	1	blank2r.bmp	252	1	MQQM	306	2	schön	559	0	0	0	0	0	0	0	0	0	0	0	0	0	0	0	0	0	0	0	0	0	0	0	0	0	0	0	0	0	0	0	0	0	0	0	0	0	0	0
070319	15:27:36	15:34:38	421948	5.0.10.0	5_exp_noRW	16	Rpleas_acq	CS_B	BZZB	VKKV	MQQM	YDDY	GWWG	JXXJ	treu	schön	retten	spielen	fair	ehrlich	tot	schlecht	rächen	strafen	faul	eitel	47pct	acq_USunple_CSunple1_noRW	acq23456_noRW	2	79	0	0	300	300	669	46	0	1	1	blank2r.bmp	0	1	+	0	1	blank2r.bmp	252	1	MQQM	306	3	rächen	559	0	0	0	0	0	0	0	0	0	0	0	0	0	0	0	0	0	0	0	0	0	0	0	0	0	0	0	0	0	0	0	0	0	0	0	0	0	0	0
070319	15:27:36	15:34:40	423761	5.0.10.0	5_exp_noRW	16	Rpleas_acq	CS_B	BZZB	VKKV	MQQM	YDDY	GWWG	JXXJ	treu	schön	retten	spielen	fair	ehrlich	tot	schlecht	rächen	strafen	faul	eitel	53pct	acq_USunple_CSunple2_noRW	acq23456_noRW	2	80	0	0	300	300	637	46	0	1	1	blank2r.bmp	0	1	+	0	1	blank2r.bmp	252	1	YDDY	306	3	eitel	559	0	0	0	0	0	0	0	0	0	0	0	0	0	0	0	0	0	0	0	0	0	0	0	0	0	0	0	0	0	0	0	0	0	0	0	0	0	0	0
070319	15:27:36	15:35:13	457027	5.0.10.0	5_exp_noRW	16	Rpleas_acq	CS_B	BZZB	VKKV	MQQM	YDDY	GWWG	JXXJ	treu	schön	retten	spielen	fair	ehrlich	tot	schlecht	rächen	strafen	faul	eitel	53pct	acq_USpleas_CSpleas1_noRW	acq23456_noRW	3	1	0	0	300	300	561	50	0	1	1	blank2r.bmp	0	1	+	0	1	blank2r.bmp	252	1	BZZB	306	2	schön	559	0	0	0	0	0	0	0	0	0	0	0	0	0	0	0	0	0	0	0	0	0	0	0	0	0	0	0	0	0	0	0	0	0	0	0	0	0	0	0
070319	15:27:36	15:35:15	458640	5.0.10.0	5_exp_noRW	16	Rpleas_acq	CS_B	BZZB	VKKV	MQQM	YDDY	GWWG	JXXJ	treu	schön	retten	spielen	fair	ehrlich	tot	schlecht	rächen	strafen	faul	eitel	53pct	acq_USunple_CSunple2_noRW	acq23456_noRW	3	2	0	0	300	300	450	46	0	1	1	blank2r.bmp	0	1	+	0	1	blank2r.bmp	252	1	YDDY	306	1	strafen	559	0	0	0	0	0	0	0	0	0	0	0	0	0	0	0	0	0	0	0	0	0	0	0	0	0	0	0	0	0	0	0	0	0	0	0	0	0	0	0
070319	15:27:36	15:35:17	460199	5.0.10.0	5_exp_noRW	16	Rpleas_acq	CS_B	BZZB	VKKV	MQQM	YDDY	GWWG	JXXJ	treu	schön	retten	spielen	fair	ehrlich	tot	schlecht	rächen	strafen	faul	eitel	47pct	acq_USpleas_CSpleas2_noRW	acq23456_noRW	3	3	0	0	300	300	377	50	0	1	1	blank2r.bmp	0	1	+	0	1	blank2r.bmp	252	1	VKKV	306	1	spielen	559	0	0	0	0	0	0	0	0	0	0	0	0	0	0	0	0	0	0	0	0	0	0	0	0	0	0	0	0	0	0	0	0	0	0	0	0	0	0	0
070319	15:27:36	15:35:18	461905	5.0.10.0	5_exp_noRW	16	Rpleas_acq	CS_B	BZZB	VKKV	MQQM	YDDY	GWWG	JXXJ	treu	schön	retten	spielen	fair	ehrlich	tot	schlecht	rächen	strafen	faul	eitel	53pct	acq_USunple_CSunple2_noRW	acq23456_noRW	3	4	0	0	300	300	522	46	0	1	1	blank2r.bmp	0	1	+	0	1	blank2r.bmp	252	1	YDDY	306	1	strafen	559	0	0	0	0	0	0	0	0	0	0	0	0	0	0	0	0	0	0	0	0	0	0	0	0	0	0	0	0	0	0	0	0	0	0	0	0	0	0	0
070319	15:27:36	15:35:20	463584	5.0.10.0	5_exp_noRW	16	Rpleas_acq	CS_B	BZZB	VKKV	MQQM	YDDY	GWWG	JXXJ	treu	schön	retten	spielen	fair	ehrlich	tot	schlecht	rächen	strafen	faul	eitel	53pct	acq_USpleas_CSpleas1_noRW	acq23456_noRW	3	5	0	0	300	300	506	50	0	1	1	blank2r.bmp	0	1	+	0	1	blank2r.bmp	252	1	BZZB	306	2	schön	559	0	0	0	0	0	0	0	0	0	0	0	0	0	0	0	0	0	0	0	0	0	0	0	0	0	0	0	0	0	0	0	0	0	0	0	0	0	0	0
070319	15:27:36	15:35:22	465410	5.0.10.0	5_exp_noRW	16	Rpleas_acq	CS_B	BZZB	VKKV	MQQM	YDDY	GWWG	JXXJ	treu	schön	retten	spielen	fair	ehrlich	tot	schlecht	rächen	strafen	faul	eitel	47pct	acq_USunple_CSpleas1_noRW	acq23456_noRW	3	6	0	0	300	300	644	46	0	1	1	blank2r.bmp	0	1	+	0	1	blank2r.bmp	252	1	BZZB	306	2	schlecht	559	0	0	0	0	0	0	0	0	0	0	0	0	0	0	0	0	0	0	0	0	0	0	0	0	0	0	0	0	0	0	0	0	0	0	0	0	0	0	0
070319	15:27:36	15:35:23	467090	5.0.10.0	5_exp_noRW	16	Rpleas_acq	CS_B	BZZB	VKKV	MQQM	YDDY	GWWG	JXXJ	treu	schön	retten	spielen	fair	ehrlich	tot	schlecht	rächen	strafen	faul	eitel	47pct	acq_USpleas_CSpleas2_noRW	acq23456_noRW	3	7	0	0	300	300	494	50	0	1	1	blank2r.bmp	0	1	+	0	1	blank2r.bmp	252	1	VKKV	306	3	ehrlich	559	0	0	0	0	0	0	0	0	0	0	0	0	0	0	0	0	0	0	0	0	0	0	0	0	0	0	0	0	0	0	0	0	0	0	0	0	0	0	0
070319	15:27:36	15:35:25	468969	5.0.10.0	5_exp_noRW	16	Rpleas_acq	CS_B	BZZB	VKKV	MQQM	YDDY	GWWG	JXXJ	treu	schön	retten	spielen	fair	ehrlich	tot	schlecht	rächen	strafen	faul	eitel	53pct	acq_USpleas_CSpleas2_noRW	acq23456_noRW	3	8	0	0	300	300	502	46	0	0	1	blank2r.bmp	0	1	+	0	1	blank2r.bmp	252	1	VKKV	306	2	fair	559	1	FEHLER	1092	0	0	0	0	0	0	0	0	0	0	0	0	0	0	0	0	0	0	0	0	0	0	0	0	0	0	0	0	0	0	0	0	0	0	0	0
070319	15:27:36	15:35:27	470462	5.0.10.0	5_exp_noRW	16	Rpleas_acq	CS_B	BZZB	VKKV	MQQM	YDDY	GWWG	JXXJ	treu	schön	retten	spielen	fair	ehrlich	tot	schlecht	rächen	strafen	faul	eitel	47pct	acq_USpleas_CSpleas2_noRW	acq23456_noRW	3	9	0	0	300	300	527	50	0	1	1	blank2r.bmp	0	1	+	0	1	blank2r.bmp	252	1	VKKV	306	1	spielen	559	0	0	0	0	0	0	0	0	0	0	0	0	0	0	0	0	0	0	0	0	0	0	0	0	0	0	0	0	0	0	0	0	0	0	0	0	0	0	0
070319	15:27:36	15:35:29	472261	5.0.10.0	5_exp_noRW	16	Rpleas_acq	CS_B	BZZB	VKKV	MQQM	YDDY	GWWG	JXXJ	treu	schön	retten	spielen	fair	ehrlich	tot	schlecht	rächen	strafen	faul	eitel	53pct	acq_USunple_CSunple2_noRW	acq23456_noRW	3	10	0	0	300	300	612	46	0	1	1	blank2r.bmp	0	1	+	0	1	blank2r.bmp	252	1	YDDY	306	3	eitel	559	0	0	0	0	0	0	0	0	0	0	0	0	0	0	0	0	0	0	0	0	0	0	0	0	0	0	0	0	0	0	0	0	0	0	0	0	0	0	0
070319	15:27:36	15:35:30	473887	5.0.10.0	5_exp_noRW	16	Rpleas_acq	CS_B	BZZB	VKKV	MQQM	YDDY	GWWG	JXXJ	treu	schön	retten	spielen	fair	ehrlich	tot	schlecht	rächen	strafen	faul	eitel	47pct	acq_USunple_CSunple1_noRW	acq23456_noRW	3	11	0	0	300	300	455	46	0	1	1	blank2r.bmp	0	1	+	0	1	blank2r.bmp	252	1	MQQM	306	1	tot	559	0	0	0	0	0	0	0	0	0	0	0	0	0	0	0	0	0	0	0	0	0	0	0	0	0	0	0	0	0	0	0	0	0	0	0	0	0	0	0
070319	15:27:36	15:35:32	475766	5.0.10.0	5_exp_noRW	16	Rpleas_acq	CS_B	BZZB	VKKV	MQQM	YDDY	GWWG	JXXJ	treu	schön	retten	spielen	fair	ehrlich	tot	schlecht	rächen	strafen	faul	eitel	47pct	acq_USunple_CSunple2_noRW	acq23456_noRW	3	12	0	0	300	300	705	46	0	1	1	blank2r.bmp	0	1	+	0	1	blank2r.bmp	252	1	YDDY	306	2	faul	559	0	0	0	0	0	0	0	0	0	0	0	0	0	0	0	0	0	0	0	0	0	0	0	0	0	0	0	0	0	0	0	0	0	0	0	0	0	0	0
070319	15:27:36	15:35:34	477459	5.0.10.0	5_exp_noRW	16	Rpleas_acq	CS_B	BZZB	VKKV	MQQM	YDDY	GWWG	JXXJ	treu	schön	retten	spielen	fair	ehrlich	tot	schlecht	rächen	strafen	faul	eitel	47pct	acq_USunple_CSunple1_noRW	acq23456_noRW	3	13	0	0	300	300	528	46	0	1	1	blank2r.bmp	0	1	+	0	1	blank2r.bmp	252	1	MQQM	306	1	tot	559	0	0	0	0	0	0	0	0	0	0	0	0	0	0	0	0	0	0	0	0	0	0	0	0	0	0	0	0	0	0	0	0	0	0	0	0	0	0	0
070319	15:27:36	15:35:35	479098	5.0.10.0	5_exp_noRW	16	Rpleas_acq	CS_B	BZZB	VKKV	MQQM	YDDY	GWWG	JXXJ	treu	schön	retten	spielen	fair	ehrlich	tot	schlecht	rächen	strafen	faul	eitel	47pct	acq_USpleas_CSpleas1_noRW	acq23456_noRW	3	14	0	0	300	300	453	50	0	1	1	blank2r.bmp	0	1	+	0	1	blank2r.bmp	252	1	BZZB	306	1	treu	559	0	0	0	0	0	0	0	0	0	0	0	0	0	0	0	0	0	0	0	0	0	0	0	0	0	0	0	0	0	0	0	0	0	0	0	0	0	0	0
070319	15:27:36	15:35:37	480831	5.0.10.0	5_exp_noRW	16	Rpleas_acq	CS_B	BZZB	VKKV	MQQM	YDDY	GWWG	JXXJ	treu	schön	retten	spielen	fair	ehrlich	tot	schlecht	rächen	strafen	faul	eitel	53pct	acq_USpleas_CSpleas1_noRW	acq23456_noRW	3	15	0	0	300	300	566	50	0	1	1	blank2r.bmp	0	1	+	0	1	blank2r.bmp	252	1	BZZB	306	3	retten	559	0	0	0	0	0	0	0	0	0	0	0	0	0	0	0	0	0	0	0	0	0	0	0	0	0	0	0	0	0	0	0	0	0	0	0	0	0	0	0
070319	15:27:36	15:35:39	482550	5.0.10.0	5_exp_noRW	16	Rpleas_acq	CS_B	BZZB	VKKV	MQQM	YDDY	GWWG	JXXJ	treu	schön	retten	spielen	fair	ehrlich	tot	schlecht	rächen	strafen	faul	eitel	47pct	acq_USpleas_CSunple1_noRW	acq23456_noRW	3	16	0	0	300	300	537	50	0	1	1	blank2r.bmp	0	1	+	0	1	blank2r.bmp	252	1	MQQM	306	1	treu	559	0	0	0	0	0	0	0	0	0	0	0	0	0	0	0	0	0	0	0	0	0	0	0	0	0	0	0	0	0	0	0	0	0	0	0	0	0	0	0
070319	15:27:36	15:35:41	484216	5.0.10.0	5_exp_noRW	16	Rpleas_acq	CS_B	BZZB	VKKV	MQQM	YDDY	GWWG	JXXJ	treu	schön	retten	spielen	fair	ehrlich	tot	schlecht	rächen	strafen	faul	eitel	47pct	acq_USunple_CSpleas2_noRW	acq23456_noRW	3	17	0	0	300	300	484	46	0	1	1	blank2r.bmp	0	1	+	0	1	blank2r.bmp	252	1	VKKV	306	1	strafen	559	0	0	0	0	0	0	0	0	0	0	0	0	0	0	0	0	0	0	0	0	0	0	0	0	0	0	0	0	0	0	0	0	0	0	0	0	0	0	0
070319	15:27:36	15:35:42	486069	5.0.10.0	5_exp_noRW	16	Rpleas_acq	CS_B	BZZB	VKKV	MQQM	YDDY	GWWG	JXXJ	treu	schön	retten	spielen	fair	ehrlich	tot	schlecht	rächen	strafen	faul	eitel	53pct	acq_USunple_CSunple1_noRW	acq23456_noRW	3	18	0	0	300	300	667	46	0	1	1	blank2r.bmp	0	1	+	0	1	blank2r.bmp	252	1	MQQM	306	3	rächen	559	0	0	0	0	0	0	0	0	0	0	0	0	0	0	0	0	0	0	0	0	0	0	0	0	0	0	0	0	0	0	0	0	0	0	0	0	0	0	0
070319	15:27:36	15:35:44	487641	5.0.10.0	5_exp_noRW	16	Rpleas_acq	CS_B	BZZB	VKKV	MQQM	YDDY	GWWG	JXXJ	treu	schön	retten	spielen	fair	ehrlich	tot	schlecht	rächen	strafen	faul	eitel	53pct	acq_USunple_CSunple1_noRW	acq23456_noRW	3	19	0	0	300	300	405	46	0	1	1	blank2r.bmp	0	1	+	0	1	blank2r.bmp	252	1	MQQM	306	2	schlecht	559	0	0	0	0	0	0	0	0	0	0	0	0	0	0	0	0	0	0	0	0	0	0	0	0	0	0	0	0	0	0	0	0	0	0	0	0	0	0	0
070319	15:27:36	15:35:46	489321	5.0.10.0	5_exp_noRW	16	Rpleas_acq	CS_B	BZZB	VKKV	MQQM	YDDY	GWWG	JXXJ	treu	schön	retten	spielen	fair	ehrlich	tot	schlecht	rächen	strafen	faul	eitel	53pct	acq_USpleas_CSunple2_noRW	acq23456_noRW	3	20	0	0	300	300	505	50	0	1	1	blank2r.bmp	0	1	+	0	1	blank2r.bmp	252	1	YDDY	306	1	spielen	559	0	0	0	0	0	0	0	0	0	0	0	0	0	0	0	0	0	0	0	0	0	0	0	0	0	0	0	0	0	0	0	0	0	0	0	0	0	0	0
070319	15:27:36	15:35:47	490987	5.0.10.0	5_exp_noRW	16	Rpleas_acq	CS_B	BZZB	VKKV	MQQM	YDDY	GWWG	JXXJ	treu	schön	retten	spielen	fair	ehrlich	tot	schlecht	rächen	strafen	faul	eitel	47pct	acq_USpleas_CSpleas2_noRW	acq23456_noRW	3	21	0	0	300	300	504	50	0	1	1	blank2r.bmp	0	1	+	0	1	blank2r.bmp	252	1	VKKV	306	3	ehrlich	559	0	0	0	0	0	0	0	0	0	0	0	0	0	0	0	0	0	0	0	0	0	0	0	0	0	0	0	0	0	0	0	0	0	0	0	0	0	0	0
070319	15:27:36	15:35:49	492639	5.0.10.0	5_exp_noRW	16	Rpleas_acq	CS_B	BZZB	VKKV	MQQM	YDDY	GWWG	JXXJ	treu	schön	retten	spielen	fair	ehrlich	tot	schlecht	rächen	strafen	faul	eitel	47pct	acq_USpleas_CSpleas1_noRW	acq23456_noRW	3	22	0	0	300	300	475	50	0	1	1	blank2r.bmp	0	1	+	0	1	blank2r.bmp	252	1	BZZB	306	1	treu	559	0	0	0	0	0	0	0	0	0	0	0	0	0	0	0	0	0	0	0	0	0	0	0	0	0	0	0	0	0	0	0	0	0	0	0	0	0	0	0
070319	15:27:36	15:35:51	494412	5.0.10.0	5_exp_noRW	16	Rpleas_acq	CS_B	BZZB	VKKV	MQQM	YDDY	GWWG	JXXJ	treu	schön	retten	spielen	fair	ehrlich	tot	schlecht	rächen	strafen	faul	eitel	47pct	acq_USpleas_CSpleas2_noRW	acq23456_noRW	3	23	0	0	300	300	587	50	0	1	1	blank2r.bmp	0	1	+	0	1	blank2r.bmp	252	1	VKKV	306	2	fair	559	0	0	0	0	0	0	0	0	0	0	0	0	0	0	0	0	0	0	0	0	0	0	0	0	0	0	0	0	0	0	0	0	0	0	0	0	0	0	0
070319	15:27:36	15:35:53	496171	5.0.10.0	5_exp_noRW	16	Rpleas_acq	CS_B	BZZB	VKKV	MQQM	YDDY	GWWG	JXXJ	treu	schön	retten	spielen	fair	ehrlich	tot	schlecht	rächen	strafen	faul	eitel	47pct	acq_USpleas_CSpleas2_noRW	acq23456_noRW	3	24	0	0	300	300	596	50	0	1	1	blank2r.bmp	0	1	+	0	1	blank2r.bmp	252	1	VKKV	306	1	spielen	559	0	0	0	0	0	0	0	0	0	0	0	0	0	0	0	0	0	0	0	0	0	0	0	0	0	0	0	0	0	0	0	0	0	0	0	0	0	0	0
070319	15:27:36	15:35:54	497837	5.0.10.0	5_exp_noRW	16	Rpleas_acq	CS_B	BZZB	VKKV	MQQM	YDDY	GWWG	JXXJ	treu	schön	retten	spielen	fair	ehrlich	tot	schlecht	rächen	strafen	faul	eitel	47pct	acq_USpleas_CSunple2_noRW	acq23456_noRW	3	25	0	0	300	300	484	50	0	1	1	blank2r.bmp	0	1	+	0	1	blank2r.bmp	252	1	YDDY	306	3	ehrlich	559	0	0	0	0	0	0	0	0	0	0	0	0	0	0	0	0	0	0	0	0	0	0	0	0	0	0	0	0	0	0	0	0	0	0	0	0	0	0	0
070319	15:27:36	15:35:56	499450	5.0.10.0	5_exp_noRW	16	Rpleas_acq	CS_B	BZZB	VKKV	MQQM	YDDY	GWWG	JXXJ	treu	schön	retten	spielen	fair	ehrlich	tot	schlecht	rächen	strafen	faul	eitel	53pct	acq_USunple_CSunple1_noRW	acq23456_noRW	3	26	0	0	300	300	428	46	0	1	1	blank2r.bmp	0	1	+	0	1	blank2r.bmp	252	1	MQQM	306	2	schlecht	559	0	0	0	0	0	0	0	0	0	0	0	0	0	0	0	0	0	0	0	0	0	0	0	0	0	0	0	0	0	0	0	0	0	0	0	0	0	0	0
070319	15:27:36	15:35:58	501156	5.0.10.0	5_exp_noRW	16	Rpleas_acq	CS_B	BZZB	VKKV	MQQM	YDDY	GWWG	JXXJ	treu	schön	retten	spielen	fair	ehrlich	tot	schlecht	rächen	strafen	faul	eitel	47pct	acq_USunple_CSunple1_noRW	acq23456_noRW	3	27	0	0	300	300	535	46	0	1	1	blank2r.bmp	0	1	+	0	1	blank2r.bmp	252	1	MQQM	306	3	rächen	559	0	0	0	0	0	0	0	0	0	0	0	0	0	0	0	0	0	0	0	0	0	0	0	0	0	0	0	0	0	0	0	0	0	0	0	0	0	0	0
070319	15:27:36	15:35:59	503022	5.0.10.0	5_exp_noRW	16	Rpleas_acq	CS_B	BZZB	VKKV	MQQM	YDDY	GWWG	JXXJ	treu	schön	retten	spielen	fair	ehrlich	tot	schlecht	rächen	strafen	faul	eitel	47pct	acq_USunple_CSpleas2_noRW	acq23456_noRW	3	28	0	0	300	300	703	46	0	1	1	blank2r.bmp	0	1	+	0	1	blank2r.bmp	252	1	VKKV	306	3	eitel	559	0	0	0	0	0	0	0	0	0	0	0	0	0	0	0	0	0	0	0	0	0	0	0	0	0	0	0	0	0	0	0	0	0	0	0	0	0	0	0
070319	15:27:36	15:36:01	504701	5.0.10.0	5_exp_noRW	16	Rpleas_acq	CS_B	BZZB	VKKV	MQQM	YDDY	GWWG	JXXJ	treu	schön	retten	spielen	fair	ehrlich	tot	schlecht	rächen	strafen	faul	eitel	47pct	acq_USunple_CSpleas1_noRW	acq23456_noRW	3	29	0	0	300	300	508	46	0	1	1	blank2r.bmp	0	1	+	0	1	blank2r.bmp	252	1	BZZB	306	2	schlecht	559	0	0	0	0	0	0	0	0	0	0	0	0	0	0	0	0	0	0	0	0	0	0	0	0	0	0	0	0	0	0	0	0	0	0	0	0	0	0	0
070319	15:27:36	15:36:03	506287	5.0.10.0	5_exp_noRW	16	Rpleas_acq	CS_B	BZZB	VKKV	MQQM	YDDY	GWWG	JXXJ	treu	schön	retten	spielen	fair	ehrlich	tot	schlecht	rächen	strafen	faul	eitel	53pct	acq_USunple_CSunple2_noRW	acq23456_noRW	3	30	0	0	300	300	420	46	0	1	1	blank2r.bmp	0	1	+	0	1	blank2r.bmp	252	1	YDDY	306	2	faul	559	0	0	0	0	0	0	0	0	0	0	0	0	0	0	0	0	0	0	0	0	0	0	0	0	0	0	0	0	0	0	0	0	0	0	0	0	0	0	0
070319	15:27:36	15:36:04	507913	5.0.10.0	5_exp_noRW	16	Rpleas_acq	CS_B	BZZB	VKKV	MQQM	YDDY	GWWG	JXXJ	treu	schön	retten	spielen	fair	ehrlich	tot	schlecht	rächen	strafen	faul	eitel	53pct	acq_USunple_CSunple2_noRW	acq23456_noRW	3	31	0	0	300	300	452	46	0	1	1	blank2r.bmp	0	1	+	0	1	blank2r.bmp	252	1	YDDY	306	1	strafen	559	0	0	0	0	0	0	0	0	0	0	0	0	0	0	0	0	0	0	0	0	0	0	0	0	0	0	0	0	0	0	0	0	0	0	0	0	0	0	0
070319	15:27:36	15:36:06	509726	5.0.10.0	5_exp_noRW	16	Rpleas_acq	CS_B	BZZB	VKKV	MQQM	YDDY	GWWG	JXXJ	treu	schön	retten	spielen	fair	ehrlich	tot	schlecht	rächen	strafen	faul	eitel	47pct	acq_USunple_CSunple2_noRW	acq23456_noRW	3	32	0	0	300	300	639	46	0	1	1	blank2r.bmp	0	1	+	0	1	blank2r.bmp	252	1	YDDY	306	3	eitel	559	0	0	0	0	0	0	0	0	0	0	0	0	0	0	0	0	0	0	0	0	0	0	0	0	0	0	0	0	0	0	0	0	0	0	0	0	0	0	0
070319	15:27:36	15:36:08	511405	5.0.10.0	5_exp_noRW	16	Rpleas_acq	CS_B	BZZB	VKKV	MQQM	YDDY	GWWG	JXXJ	treu	schön	retten	spielen	fair	ehrlich	tot	schlecht	rächen	strafen	faul	eitel	47pct	acq_USunple_CSunple1_noRW	acq23456_noRW	3	33	0	0	300	300	511	46	0	1	1	blank2r.bmp	0	1	+	0	1	blank2r.bmp	252	1	MQQM	306	1	tot	559	0	0	0	0	0	0	0	0	0	0	0	0	0	0	0	0	0	0	0	0	0	0	0	0	0	0	0	0	0	0	0	0	0	0	0	0	0	0	0
070319	15:27:36	15:36:09	513084	5.0.10.0	5_exp_noRW	16	Rpleas_acq	CS_B	BZZB	VKKV	MQQM	YDDY	GWWG	JXXJ	treu	schön	retten	spielen	fair	ehrlich	tot	schlecht	rächen	strafen	faul	eitel	47pct	acq_USpleas_CSpleas1_noRW	acq23456_noRW	3	34	0	0	300	300	509	50	0	1	1	blank2r.bmp	0	1	+	0	1	blank2r.bmp	252	1	BZZB	306	3	retten	559	0	0	0	0	0	0	0	0	0	0	0	0	0	0	0	0	0	0	0	0	0	0	0	0	0	0	0	0	0	0	0	0	0	0	0	0	0	0	0
070319	15:27:36	15:36:11	514857	5.0.10.0	5_exp_noRW	16	Rpleas_acq	CS_B	BZZB	VKKV	MQQM	YDDY	GWWG	JXXJ	treu	schön	retten	spielen	fair	ehrlich	tot	schlecht	rächen	strafen	faul	eitel	47pct	acq_USunple_CSunple1_noRW	acq23456_noRW	3	35	0	0	300	300	598	46	0	1	1	blank2r.bmp	0	1	+	0	1	blank2r.bmp	252	1	MQQM	306	3	rächen	559	0	0	0	0	0	0	0	0	0	0	0	0	0	0	0	0	0	0	0	0	0	0	0	0	0	0	0	0	0	0	0	0	0	0	0	0	0	0	0
070319	15:27:36	15:36:13	516736	5.0.10.0	5_exp_noRW	16	Rpleas_acq	CS_B	BZZB	VKKV	MQQM	YDDY	GWWG	JXXJ	treu	schön	retten	spielen	fair	ehrlich	tot	schlecht	rächen	strafen	faul	eitel	47pct	acq_USpleas_CSunple1_noRW	acq23456_noRW	3	36	0	0	300	300	708	50	0	1	1	blank2r.bmp	0	1	+	0	1	blank2r.bmp	252	1	MQQM	306	2	schön	559	0	0	0	0	0	0	0	0	0	0	0	0	0	0	0	0	0	0	0	0	0	0	0	0	0	0	0	0	0	0	0	0	0	0	0	0	0	0	0
070319	15:27:36	15:36:15	518402	5.0.10.0	5_exp_noRW	16	Rpleas_acq	CS_B	BZZB	VKKV	MQQM	YDDY	GWWG	JXXJ	treu	schön	retten	spielen	fair	ehrlich	tot	schlecht	rächen	strafen	faul	eitel	47pct	acq_USpleas_CSpleas2_noRW	acq23456_noRW	3	37	0	0	300	300	499	50	0	1	1	blank2r.bmp	0	1	+	0	1	blank2r.bmp	252	1	VKKV	306	1	spielen	559	0	0	0	0	0	0	0	0	0	0	0	0	0	0	0	0	0	0	0	0	0	0	0	0	0	0	0	0	0	0	0	0	0	0	0	0	0	0	0
070319	15:27:36	15:36:16	520001	5.0.10.0	5_exp_noRW	16	Rpleas_acq	CS_B	BZZB	VKKV	MQQM	YDDY	GWWG	JXXJ	treu	schön	retten	spielen	fair	ehrlich	tot	schlecht	rächen	strafen	faul	eitel	47pct	acq_USunple_CSunple2_noRW	acq23456_noRW	3	38	0	0	300	300	413	46	0	1	1	blank2r.bmp	0	1	+	0	1	blank2r.bmp	252	1	YDDY	306	2	faul	559	0	0	0	0	0	0	0	0	0	0	0	0	0	0	0	0	0	0	0	0	0	0	0	0	0	0	0	0	0	0	0	0	0	0	0	0	0	0	0
070319	15:27:36	15:36:18	521588	5.0.10.0	5_exp_noRW	16	Rpleas_acq	CS_B	BZZB	VKKV	MQQM	YDDY	GWWG	JXXJ	treu	schön	retten	spielen	fair	ehrlich	tot	schlecht	rächen	strafen	faul	eitel	47pct	acq_USpleas_CSpleas1_noRW	acq23456_noRW	3	39	0	0	300	300	419	50	0	1	1	blank2r.bmp	0	1	+	0	1	blank2r.bmp	252	1	BZZB	306	2	schön	559	0	0	0	0	0	0	0	0	0	0	0	0	0	0	0	0	0	0	0	0	0	0	0	0	0	0	0	0	0	0	0	0	0	0	0	0	0	0	0
070319	15:27:36	15:36:20	523387	5.0.10.0	5_exp_noRW	16	Rpleas_acq	CS_B	BZZB	VKKV	MQQM	YDDY	GWWG	JXXJ	treu	schön	retten	spielen	fair	ehrlich	tot	schlecht	rächen	strafen	faul	eitel	53pct	acq_USpleas_CSpleas1_noRW	acq23456_noRW	3	40	0	0	300	300	626	50	0	1	1	blank2r.bmp	0	1	+	0	1	blank2r.bmp	252	1	BZZB	306	2	schön	559	0	0	0	0	0	0	0	0	0	0	0	0	0	0	0	0	0	0	0	0	0	0	0	0	0	0	0	0	0	0	0	0	0	0	0	0	0	0	0
070319	15:27:36	15:36:22	525173	5.0.10.0	5_exp_noRW	16	Rpleas_acq	CS_B	BZZB	VKKV	MQQM	YDDY	GWWG	JXXJ	treu	schön	retten	spielen	fair	ehrlich	tot	schlecht	rächen	strafen	faul	eitel	47pct	acq_USpleas_CSpleas1_noRW	acq23456_noRW	3	41	0	0	300	300	404	46	0	0	1	blank2r.bmp	0	1	+	0	1	blank2r.bmp	252	1	BZZB	306	3	retten	559	1	FEHLER	999	0	0	0	0	0	0	0	0	0	0	0	0	0	0	0	0	0	0	0	0	0	0	0	0	0	0	0	0	0	0	0	0	0	0	0	0
070319	15:27:36	15:36:23	526692	5.0.10.0	5_exp_noRW	16	Rpleas_acq	CS_B	BZZB	VKKV	MQQM	YDDY	GWWG	JXXJ	treu	schön	retten	spielen	fair	ehrlich	tot	schlecht	rächen	strafen	faul	eitel	47pct	acq_USpleas_CSpleas1_noRW	acq23456_noRW	3	42	0	0	300	300	566	50	0	1	1	blank2r.bmp	0	1	+	0	1	blank2r.bmp	252	1	BZZB	306	1	treu	559	0	0	0	0	0	0	0	0	0	0	0	0	0	0	0	0	0	0	0	0	0	0	0	0	0	0	0	0	0	0	0	0	0	0	0	0	0	0	0
070319	15:27:36	15:36:25	528438	5.0.10.0	5_exp_noRW	16	Rpleas_acq	CS_B	BZZB	VKKV	MQQM	YDDY	GWWG	JXXJ	treu	schön	retten	spielen	fair	ehrlich	tot	schlecht	rächen	strafen	faul	eitel	53pct	acq_USunple_CSpleas2_noRW	acq23456_noRW	3	43	0	0	300	300	579	46	0	1	1	blank2r.bmp	0	1	+	0	1	blank2r.bmp	252	1	VKKV	306	1	strafen	559	0	0	0	0	0	0	0	0	0	0	0	0	0	0	0	0	0	0	0	0	0	0	0	0	0	0	0	0	0	0	0	0	0	0	0	0	0	0	0
070319	15:27:36	15:36:27	530184	5.0.10.0	5_exp_noRW	16	Rpleas_acq	CS_B	BZZB	VKKV	MQQM	YDDY	GWWG	JXXJ	treu	schön	retten	spielen	fair	ehrlich	tot	schlecht	rächen	strafen	faul	eitel	53pct	acq_USunple_CSunple2_noRW	acq23456_noRW	3	44	0	0	300	300	578	46	0	1	1	blank2r.bmp	0	1	+	0	1	blank2r.bmp	252	1	YDDY	306	3	eitel	559	0	0	0	0	0	0	0	0	0	0	0	0	0	0	0	0	0	0	0	0	0	0	0	0	0	0	0	0	0	0	0	0	0	0	0	0	0	0	0
070319	15:27:36	15:36:28	532090	5.0.10.0	5_exp_noRW	16	Rpleas_acq	CS_B	BZZB	VKKV	MQQM	YDDY	GWWG	JXXJ	treu	schön	retten	spielen	fair	ehrlich	tot	schlecht	rächen	strafen	faul	eitel	53pct	acq_USpleas_CSunple1_noRW	acq23456_noRW	3	45	0	0	300	300	741	50	0	1	1	blank2r.bmp	0	1	+	0	1	blank2r.bmp	252	1	MQQM	306	1	treu	559	0	0	0	0	0	0	0	0	0	0	0	0	0	0	0	0	0	0	0	0	0	0	0	0	0	0	0	0	0	0	0	0	0	0	0	0	0	0	0
070319	15:27:36	15:36:30	533809	5.0.10.0	5_exp_noRW	16	Rpleas_acq	CS_B	BZZB	VKKV	MQQM	YDDY	GWWG	JXXJ	treu	schön	retten	spielen	fair	ehrlich	tot	schlecht	rächen	strafen	faul	eitel	47pct	acq_USpleas_CSunple2_noRW	acq23456_noRW	3	46	0	0	300	300	535	50	0	1	1	blank2r.bmp	0	1	+	0	1	blank2r.bmp	252	1	YDDY	306	2	fair	559	0	0	0	0	0	0	0	0	0	0	0	0	0	0	0	0	0	0	0	0	0	0	0	0	0	0	0	0	0	0	0	0	0	0	0	0	0	0	0
070319	15:27:36	15:36:32	535608	5.0.10.0	5_exp_noRW	16	Rpleas_acq	CS_B	BZZB	VKKV	MQQM	YDDY	GWWG	JXXJ	treu	schön	retten	spielen	fair	ehrlich	tot	schlecht	rächen	strafen	faul	eitel	47pct	acq_USunple_CSunple1_noRW	acq23456_noRW	3	47	0	0	300	300	636	46	0	1	1	blank2r.bmp	0	1	+	0	1	blank2r.bmp	252	1	MQQM	306	2	schlecht	559	0	0	0	0	0	0	0	0	0	0	0	0	0	0	0	0	0	0	0	0	0	0	0	0	0	0	0	0	0	0	0	0	0	0	0	0	0	0	0
070319	15:27:36	15:36:34	537434	5.0.10.0	5_exp_noRW	16	Rpleas_acq	CS_B	BZZB	VKKV	MQQM	YDDY	GWWG	JXXJ	treu	schön	retten	spielen	fair	ehrlich	tot	schlecht	rächen	strafen	faul	eitel	53pct	acq_USpleas_CSpleas1_noRW	acq23456_noRW	3	48	0	0	300	300	650	50	0	1	1	blank2r.bmp	0	1	+	0	1	blank2r.bmp	252	1	BZZB	306	3	retten	559	0	0	0	0	0	0	0	0	0	0	0	0	0	0	0	0	0	0	0	0	0	0	0	0	0	0	0	0	0	0	0	0	0	0	0	0	0	0	0
070319	15:27:36	15:36:35	539114	5.0.10.0	5_exp_noRW	16	Rpleas_acq	CS_B	BZZB	VKKV	MQQM	YDDY	GWWG	JXXJ	treu	schön	retten	spielen	fair	ehrlich	tot	schlecht	rächen	strafen	faul	eitel	47pct	acq_USunple_CSunple2_noRW	acq23456_noRW	3	49	0	0	300	300	492	46	0	1	1	blank2r.bmp	0	1	+	0	1	blank2r.bmp	252	1	YDDY	306	1	strafen	559	0	0	0	0	0	0	0	0	0	0	0	0	0	0	0	0	0	0	0	0	0	0	0	0	0	0	0	0	0	0	0	0	0	0	0	0	0	0	0
070319	15:27:36	15:36:37	540766	5.0.10.0	5_exp_noRW	16	Rpleas_acq	CS_B	BZZB	VKKV	MQQM	YDDY	GWWG	JXXJ	treu	schön	retten	spielen	fair	ehrlich	tot	schlecht	rächen	strafen	faul	eitel	47pct	acq_USpleas_CSpleas2_noRW	acq23456_noRW	3	50	0	0	300	300	487	50	0	1	1	blank2r.bmp	0	1	+	0	1	blank2r.bmp	252	1	VKKV	306	3	ehrlich	559	0	0	0	0	0	0	0	0	0	0	0	0	0	0	0	0	0	0	0	0	0	0	0	0	0	0	0	0	0	0	0	0	0	0	0	0	0	0	0
070319	15:27:36	15:36:39	542486	5.0.10.0	5_exp_noRW	16	Rpleas_acq	CS_B	BZZB	VKKV	MQQM	YDDY	GWWG	JXXJ	treu	schön	retten	spielen	fair	ehrlich	tot	schlecht	rächen	strafen	faul	eitel	47pct	acq_USunple_CSpleas1_noRW	acq23456_noRW	3	51	0	0	300	300	535	46	0	1	1	blank2r.bmp	0	1	+	0	1	blank2r.bmp	252	1	BZZB	306	1	tot	559	0	0	0	0	0	0	0	0	0	0	0	0	0	0	0	0	0	0	0	0	0	0	0	0	0	0	0	0	0	0	0	0	0	0	0	0	0	0	0
070319	15:27:36	15:36:41	544192	5.0.10.0	5_exp_noRW	16	Rpleas_acq	CS_B	BZZB	VKKV	MQQM	YDDY	GWWG	JXXJ	treu	schön	retten	spielen	fair	ehrlich	tot	schlecht	rächen	strafen	faul	eitel	53pct	acq_USpleas_CSpleas2_noRW	acq23456_noRW	3	52	0	0	300	300	529	50	0	1	1	blank2r.bmp	0	1	+	0	1	blank2r.bmp	252	1	VKKV	306	2	fair	559	0	0	0	0	0	0	0	0	0	0	0	0	0	0	0	0	0	0	0	0	0	0	0	0	0	0	0	0	0	0	0	0	0	0	0	0	0	0	0
070319	15:27:36	15:36:42	546004	5.0.10.0	5_exp_noRW	16	Rpleas_acq	CS_B	BZZB	VKKV	MQQM	YDDY	GWWG	JXXJ	treu	schön	retten	spielen	fair	ehrlich	tot	schlecht	rächen	strafen	faul	eitel	53pct	acq_USunple_CSunple2_noRW	acq23456_noRW	3	53	0	0	300	300	648	46	0	1	1	blank2r.bmp	0	1	+	0	1	blank2r.bmp	252	1	YDDY	306	2	faul	559	0	0	0	0	0	0	0	0	0	0	0	0	0	0	0	0	0	0	0	0	0	0	0	0	0	0	0	0	0	0	0	0	0	0	0	0	0	0	0
070319	15:27:36	15:36:44	547684	5.0.10.0	5_exp_noRW	16	Rpleas_acq	CS_B	BZZB	VKKV	MQQM	YDDY	GWWG	JXXJ	treu	schön	retten	spielen	fair	ehrlich	tot	schlecht	rächen	strafen	faul	eitel	53pct	acq_USunple_CSunple1_noRW	acq23456_noRW	3	54	0	0	300	300	502	46	0	1	1	blank2r.bmp	0	1	+	0	1	blank2r.bmp	252	1	MQQM	306	1	tot	559	0	0	0	0	0	0	0	0	0	0	0	0	0	0	0	0	0	0	0	0	0	0	0	0	0	0	0	0	0	0	0	0	0	0	0	0	0	0	0
070319	15:27:36	15:36:46	549496	5.0.10.0	5_exp_noRW	16	Rpleas_acq	CS_B	BZZB	VKKV	MQQM	YDDY	GWWG	JXXJ	treu	schön	retten	spielen	fair	ehrlich	tot	schlecht	rächen	strafen	faul	eitel	53pct	acq_USunple_CSunple1_noRW	acq23456_noRW	3	55	0	0	300	300	627	46	0	1	1	blank2r.bmp	0	1	+	0	1	blank2r.bmp	252	1	MQQM	306	3	rächen	559	0	0	0	0	0	0	0	0	0	0	0	0	0	0	0	0	0	0	0	0	0	0	0	0	0	0	0	0	0	0	0	0	0	0	0	0	0	0	0
070319	15:27:36	15:36:47	551002	5.0.10.0	5_exp_noRW	16	Rpleas_acq	CS_B	BZZB	VKKV	MQQM	YDDY	GWWG	JXXJ	treu	schön	retten	spielen	fair	ehrlich	tot	schlecht	rächen	strafen	faul	eitel	47pct	acq_USpleas_CSpleas1_noRW	acq23456_noRW	3	56	0	0	300	300	342	50	0	1	1	blank2r.bmp	0	1	+	0	1	blank2r.bmp	252	1	BZZB	306	1	treu	559	0	0	0	0	0	0	0	0	0	0	0	0	0	0	0	0	0	0	0	0	0	0	0	0	0	0	0	0	0	0	0	0	0	0	0	0	0	0	0
070319	15:27:36	15:36:49	552602	5.0.10.0	5_exp_noRW	16	Rpleas_acq	CS_B	BZZB	VKKV	MQQM	YDDY	GWWG	JXXJ	treu	schön	retten	spielen	fair	ehrlich	tot	schlecht	rächen	strafen	faul	eitel	53pct	acq_USpleas_CSpleas2_noRW	acq23456_noRW	3	57	0	0	300	300	419	50	0	1	1	blank2r.bmp	0	1	+	0	1	blank2r.bmp	252	1	VKKV	306	3	ehrlich	559	0	0	0	0	0	0	0	0	0	0	0	0	0	0	0	0	0	0	0	0	0	0	0	0	0	0	0	0	0	0	0	0	0	0	0	0	0	0	0
070319	15:27:36	15:36:51	554507	5.0.10.0	5_exp_noRW	16	Rpleas_acq	CS_B	BZZB	VKKV	MQQM	YDDY	GWWG	JXXJ	treu	schön	retten	spielen	fair	ehrlich	tot	schlecht	rächen	strafen	faul	eitel	53pct	acq_USunple_CSunple2_noRW	acq23456_noRW	3	58	0	0	300	300	737	46	0	1	1	blank2r.bmp	0	1	+	0	1	blank2r.bmp	252	1	YDDY	306	3	eitel	559	0	0	0	0	0	0	0	0	0	0	0	0	0	0	0	0	0	0	0	0	0	0	0	0	0	0	0	0	0	0	0	0	0	0	0	0	0	0	0
070319	15:27:36	15:36:53	556240	5.0.10.0	5_exp_noRW	16	Rpleas_acq	CS_B	BZZB	VKKV	MQQM	YDDY	GWWG	JXXJ	treu	schön	retten	spielen	fair	ehrlich	tot	schlecht	rächen	strafen	faul	eitel	53pct	acq_USpleas_CSpleas2_noRW	acq23456_noRW	3	59	0	0	300	300	564	50	0	1	1	blank2r.bmp	0	1	+	0	1	blank2r.bmp	252	1	VKKV	306	1	spielen	559	0	0	0	0	0	0	0	0	0	0	0	0	0	0	0	0	0	0	0	0	0	0	0	0	0	0	0	0	0	0	0	0	0	0	0	0	0	0	0
070319	15:27:36	15:36:54	557919	5.0.10.0	5_exp_noRW	16	Rpleas_acq	CS_B	BZZB	VKKV	MQQM	YDDY	GWWG	JXXJ	treu	schön	retten	spielen	fair	ehrlich	tot	schlecht	rächen	strafen	faul	eitel	47pct	acq_USunple_CSunple1_noRW	acq23456_noRW	3	60	0	0	300	300	511	46	0	1	1	blank2r.bmp	0	1	+	0	1	blank2r.bmp	252	1	MQQM	306	2	schlecht	559	0	0	0	0	0	0	0	0	0	0	0	0	0	0	0	0	0	0	0	0	0	0	0	0	0	0	0	0	0	0	0	0	0	0	0	0	0	0	0
070319	15:27:36	15:36:56	559625	5.0.10.0	5_exp_noRW	16	Rpleas_acq	CS_B	BZZB	VKKV	MQQM	YDDY	GWWG	JXXJ	treu	schön	retten	spielen	fair	ehrlich	tot	schlecht	rächen	strafen	faul	eitel	53pct	acq_USunple_CSunple2_noRW	acq23456_noRW	3	61	0	0	300	300	537	46	0	1	1	blank2r.bmp	0	1	+	0	1	blank2r.bmp	252	1	YDDY	306	1	strafen	559	0	0	0	0	0	0	0	0	0	0	0	0	0	0	0	0	0	0	0	0	0	0	0	0	0	0	0	0	0	0	0	0	0	0	0	0	0	0	0
070319	15:27:36	15:36:58	561291	5.0.10.0	5_exp_noRW	16	Rpleas_acq	CS_B	BZZB	VKKV	MQQM	YDDY	GWWG	JXXJ	treu	schön	retten	spielen	fair	ehrlich	tot	schlecht	rächen	strafen	faul	eitel	53pct	acq_USunple_CSunple1_noRW	acq23456_noRW	3	62	0	0	300	300	501	46	0	1	1	blank2r.bmp	0	1	+	0	1	blank2r.bmp	252	1	MQQM	306	1	tot	559	0	0	0	0	0	0	0	0	0	0	0	0	0	0	0	0	0	0	0	0	0	0	0	0	0	0	0	0	0	0	0	0	0	0	0	0	0	0	0
070319	15:27:36	15:36:59	562957	5.0.10.0	5_exp_noRW	16	Rpleas_acq	CS_B	BZZB	VKKV	MQQM	YDDY	GWWG	JXXJ	treu	schön	retten	spielen	fair	ehrlich	tot	schlecht	rächen	strafen	faul	eitel	53pct	acq_USunple_CSunple2_noRW	acq23456_noRW	3	63	0	0	300	300	487	46	0	1	1	blank2r.bmp	0	1	+	0	1	blank2r.bmp	252	1	YDDY	306	1	strafen	559	0	0	0	0	0	0	0	0	0	0	0	0	0	0	0	0	0	0	0	0	0	0	0	0	0	0	0	0	0	0	0	0	0	0	0	0	0	0	0
070319	15:27:36	15:37:01	564570	5.0.10.0	5_exp_noRW	16	Rpleas_acq	CS_B	BZZB	VKKV	MQQM	YDDY	GWWG	JXXJ	treu	schön	retten	spielen	fair	ehrlich	tot	schlecht	rächen	strafen	faul	eitel	47pct	acq_USpleas_CSpleas1_noRW	acq23456_noRW	3	64	0	0	300	300	448	50	0	1	1	blank2r.bmp	0	1	+	0	1	blank2r.bmp	252	1	BZZB	306	2	schön	559	0	0	0	0	0	0	0	0	0	0	0	0	0	0	0	0	0	0	0	0	0	0	0	0	0	0	0	0	0	0	0	0	0	0	0	0	0	0	0
070319	15:27:36	15:37:03	566289	5.0.10.0	5_exp_noRW	16	Rpleas_acq	CS_B	BZZB	VKKV	MQQM	YDDY	GWWG	JXXJ	treu	schön	retten	spielen	fair	ehrlich	tot	schlecht	rächen	strafen	faul	eitel	47pct	acq_USunple_CSunple1_noRW	acq23456_noRW	3	65	0	0	300	300	532	46	0	1	1	blank2r.bmp	0	1	+	0	1	blank2r.bmp	252	1	MQQM	306	1	tot	559	0	0	0	0	0	0	0	0	0	0	0	0	0	0	0	0	0	0	0	0	0	0	0	0	0	0	0	0	0	0	0	0	0	0	0	0	0	0	0
070319	15:27:36	15:37:04	567982	5.0.10.0	5_exp_noRW	16	Rpleas_acq	CS_B	BZZB	VKKV	MQQM	YDDY	GWWG	JXXJ	treu	schön	retten	spielen	fair	ehrlich	tot	schlecht	rächen	strafen	faul	eitel	53pct	acq_USunple_CSunple1_noRW	acq23456_noRW	3	66	0	0	300	300	519	46	0	1	1	blank2r.bmp	0	1	+	0	1	blank2r.bmp	252	1	MQQM	306	3	rächen	559	0	0	0	0	0	0	0	0	0	0	0	0	0	0	0	0	0	0	0	0	0	0	0	0	0	0	0	0	0	0	0	0	0	0	0	0	0	0	0
070319	15:27:36	15:37:06	569768	5.0.10.0	5_exp_noRW	16	Rpleas_acq	CS_B	BZZB	VKKV	MQQM	YDDY	GWWG	JXXJ	treu	schön	retten	spielen	fair	ehrlich	tot	schlecht	rächen	strafen	faul	eitel	47pct	acq_USunple_CSunple2_noRW	acq23456_noRW	3	67	0	0	300	300	614	46	0	1	1	blank2r.bmp	0	1	+	0	1	blank2r.bmp	252	1	YDDY	306	3	eitel	559	0	0	0	0	0	0	0	0	0	0	0	0	0	0	0	0	0	0	0	0	0	0	0	0	0	0	0	0	0	0	0	0	0	0	0	0	0	0	0
070319	15:27:36	15:37:08	571554	5.0.10.0	5_exp_noRW	16	Rpleas_acq	CS_B	BZZB	VKKV	MQQM	YDDY	GWWG	JXXJ	treu	schön	retten	spielen	fair	ehrlich	tot	schlecht	rächen	strafen	faul	eitel	53pct	acq_USpleas_CSunple1_noRW	acq23456_noRW	3	68	0	0	300	300	406	46	0	0	1	blank2r.bmp	0	1	+	0	1	blank2r.bmp	252	1	MQQM	306	3	retten	559	1	FEHLER	999	0	0	0	0	0	0	0	0	0	0	0	0	0	0	0	0	0	0	0	0	0	0	0	0	0	0	0	0	0	0	0	0	0	0	0	0
070319	15:27:36	15:37:09	573073	5.0.10.0	5_exp_noRW	16	Rpleas_acq	CS_B	BZZB	VKKV	MQQM	YDDY	GWWG	JXXJ	treu	schön	retten	spielen	fair	ehrlich	tot	schlecht	rächen	strafen	faul	eitel	53pct	acq_USpleas_CSpleas2_noRW	acq23456_noRW	3	69	0	0	300	300	550	50	0	1	1	blank2r.bmp	0	1	+	0	1	blank2r.bmp	252	1	VKKV	306	2	fair	559	0	0	0	0	0	0	0	0	0	0	0	0	0	0	0	0	0	0	0	0	0	0	0	0	0	0	0	0	0	0	0	0	0	0	0	0	0	0	0
070319	15:27:36	15:37:12	575286	5.0.10.0	5_exp_noRW	16	Rpleas_acq	CS_B	BZZB	VKKV	MQQM	YDDY	GWWG	JXXJ	treu	schön	retten	spielen	fair	ehrlich	tot	schlecht	rächen	strafen	faul	eitel	47pct	acq_USunple_CSpleas1_noRW	acq23456_noRW	3	70	0	0	300	300	1044	46	0	1	1	blank2r.bmp	0	1	+	0	1	blank2r.bmp	252	1	BZZB	306	3	rächen	559	0	0	0	0	0	0	0	0	0	0	0	0	0	0	0	0	0	0	0	0	0	0	0	0	0	0	0	0	0	0	0	0	0	0	0	0	0	0	0
070319	15:27:36	15:37:13	577032	5.0.10.0	5_exp_noRW	16	Rpleas_acq	CS_B	BZZB	VKKV	MQQM	YDDY	GWWG	JXXJ	treu	schön	retten	spielen	fair	ehrlich	tot	schlecht	rächen	strafen	faul	eitel	53pct	acq_USpleas_CSpleas2_noRW	acq23456_noRW	3	71	0	0	300	300	579	50	0	1	1	blank2r.bmp	0	1	+	0	1	blank2r.bmp	252	1	VKKV	306	1	spielen	559	0	0	0	0	0	0	0	0	0	0	0	0	0	0	0	0	0	0	0	0	0	0	0	0	0	0	0	0	0	0	0	0	0	0	0	0	0	0	0
070319	15:27:36	15:37:15	578991	5.0.10.0	5_exp_noRW	16	Rpleas_acq	CS_B	BZZB	VKKV	MQQM	YDDY	GWWG	JXXJ	treu	schön	retten	spielen	fair	ehrlich	tot	schlecht	rächen	strafen	faul	eitel	53pct	acq_USpleas_CSunple2_noRW	acq23456_noRW	3	72	0	0	300	300	790	50	0	1	1	blank2r.bmp	0	1	+	0	1	blank2r.bmp	252	1	YDDY	306	1	spielen	559	0	0	0	0	0	0	0	0	0	0	0	0	0	0	0	0	0	0	0	0	0	0	0	0	0	0	0	0	0	0	0	0	0	0	0	0	0	0	0
070319	15:27:36	15:37:17	581017	5.0.10.0	5_exp_noRW	16	Rpleas_acq	CS_B	BZZB	VKKV	MQQM	YDDY	GWWG	JXXJ	treu	schön	retten	spielen	fair	ehrlich	tot	schlecht	rächen	strafen	faul	eitel	47pct	acq_USpleas_CSpleas1_noRW	acq23456_noRW	3	73	0	0	300	300	847	50	0	1	1	blank2r.bmp	0	1	+	0	1	blank2r.bmp	252	1	BZZB	306	2	schön	559	0	0	0	0	0	0	0	0	0	0	0	0	0	0	0	0	0	0	0	0	0	0	0	0	0	0	0	0	0	0	0	0	0	0	0	0	0	0	0
070319	15:27:36	15:37:19	582763	5.0.10.0	5_exp_noRW	16	Rpleas_acq	CS_B	BZZB	VKKV	MQQM	YDDY	GWWG	JXXJ	treu	schön	retten	spielen	fair	ehrlich	tot	schlecht	rächen	strafen	faul	eitel	53pct	acq_USpleas_CSpleas2_noRW	acq23456_noRW	3	74	0	0	300	300	562	50	0	1	1	blank2r.bmp	0	1	+	0	1	blank2r.bmp	252	1	VKKV	306	2	fair	559	0	0	0	0	0	0	0	0	0	0	0	0	0	0	0	0	0	0	0	0	0	0	0	0	0	0	0	0	0	0	0	0	0	0	0	0	0	0	0
070319	15:27:36	15:37:21	584495	5.0.10.0	5_exp_noRW	16	Rpleas_acq	CS_B	BZZB	VKKV	MQQM	YDDY	GWWG	JXXJ	treu	schön	retten	spielen	fair	ehrlich	tot	schlecht	rächen	strafen	faul	eitel	53pct	acq_USpleas_CSpleas1_noRW	acq23456_noRW	3	75	0	0	300	300	562	50	0	1	1	blank2r.bmp	0	1	+	0	1	blank2r.bmp	252	1	BZZB	306	1	treu	559	0	0	0	0	0	0	0	0	0	0	0	0	0	0	0	0	0	0	0	0	0	0	0	0	0	0	0	0	0	0	0	0	0	0	0	0	0	0	0
070319	15:27:36	15:37:23	586348	5.0.10.0	5_exp_noRW	16	Rpleas_acq	CS_B	BZZB	VKKV	MQQM	YDDY	GWWG	JXXJ	treu	schön	retten	spielen	fair	ehrlich	tot	schlecht	rächen	strafen	faul	eitel	53pct	acq_USunple_CSpleas2_noRW	acq23456_noRW	3	76	0	0	300	300	676	46	0	1	1	blank2r.bmp	0	1	+	0	1	blank2r.bmp	252	1	VKKV	306	2	faul	559	0	0	0	0	0	0	0	0	0	0	0	0	0	0	0	0	0	0	0	0	0	0	0	0	0	0	0	0	0	0	0	0	0	0	0	0	0	0	0
070319	15:27:36	15:37:25	588227	5.0.10.0	5_exp_noRW	16	Rpleas_acq	CS_B	BZZB	VKKV	MQQM	YDDY	GWWG	JXXJ	treu	schön	retten	spielen	fair	ehrlich	tot	schlecht	rächen	strafen	faul	eitel	53pct	acq_USpleas_CSpleas1_noRW	acq23456_noRW	3	77	0	0	300	300	693	50	0	1	1	blank2r.bmp	0	1	+	0	1	blank2r.bmp	252	1	BZZB	306	3	retten	559	0	0	0	0	0	0	0	0	0	0	0	0	0	0	0	0	0	0	0	0	0	0	0	0	0	0	0	0	0	0	0	0	0	0	0	0	0	0	0
070319	15:27:36	15:37:26	590000	5.0.10.0	5_exp_noRW	16	Rpleas_acq	CS_B	BZZB	VKKV	MQQM	YDDY	GWWG	JXXJ	treu	schön	retten	spielen	fair	ehrlich	tot	schlecht	rächen	strafen	faul	eitel	53pct	acq_USpleas_CSpleas2_noRW	acq23456_noRW	3	78	0	0	300	300	598	50	0	1	1	blank2r.bmp	0	1	+	0	1	blank2r.bmp	252	1	VKKV	306	3	ehrlich	559	0	0	0	0	0	0	0	0	0	0	0	0	0	0	0	0	0	0	0	0	0	0	0	0	0	0	0	0	0	0	0	0	0	0	0	0	0	0	0
070319	15:27:36	15:37:28	591692	5.0.10.0	5_exp_noRW	16	Rpleas_acq	CS_B	BZZB	VKKV	MQQM	YDDY	GWWG	JXXJ	treu	schön	retten	spielen	fair	ehrlich	tot	schlecht	rächen	strafen	faul	eitel	53pct	acq_USunple_CSunple2_noRW	acq23456_noRW	3	79	0	0	300	300	509	46	0	1	1	blank2r.bmp	0	1	+	0	1	blank2r.bmp	252	1	YDDY	306	2	faul	559	0	0	0	0	0	0	0	0	0	0	0	0	0	0	0	0	0	0	0	0	0	0	0	0	0	0	0	0	0	0	0	0	0	0	0	0	0	0	0
070319	15:27:36	15:37:30	593692	5.0.10.0	5_exp_noRW	16	Rpleas_acq	CS_B	BZZB	VKKV	MQQM	YDDY	GWWG	JXXJ	treu	schön	retten	spielen	fair	ehrlich	tot	schlecht	rächen	strafen	faul	eitel	47pct	acq_USunple_CSunple1_noRW	acq23456_noRW	3	80	0	0	300	300	825	46	0	1	1	blank2r.bmp	0	1	+	0	1	blank2r.bmp	252	1	MQQM	306	2	schlecht	559	0	0	0	0	0	0	0	0	0	0	0	0	0	0	0	0	0	0	0	0	0	0	0	0	0	0	0	0	0	0	0	0	0	0	0	0	0	0	0
070319	15:27:36	15:37:44	607659	5.0.10.0	5_exp_noRW	16	Rpleas_acq	CS_B	BZZB	VKKV	MQQM	YDDY	GWWG	JXXJ	treu	schön	retten	spielen	fair	ehrlich	tot	schlecht	rächen	strafen	faul	eitel	53pct	acq_USunple_CSunple2_noRW	acq23456_noRW	4	1	0	0	300	300	565	46	0	1	1	blank2r.bmp	0	1	+	0	1	blank2r.bmp	252	1	YDDY	306	2	faul	559	0	0	0	0	0	0	0	0	0	0	0	0	0	0	0	0	0	0	0	0	0	0	0	0	0	0	0	0	0	0	0	0	0	0	0	0	0	0	0
070319	15:27:36	15:37:46	609299	5.0.10.0	5_exp_noRW	16	Rpleas_acq	CS_B	BZZB	VKKV	MQQM	YDDY	GWWG	JXXJ	treu	schön	retten	spielen	fair	ehrlich	tot	schlecht	rächen	strafen	faul	eitel	53pct	acq_USpleas_CSpleas2_noRW	acq23456_noRW	4	2	0	0	300	300	463	50	0	1	1	blank2r.bmp	0	1	+	0	1	blank2r.bmp	252	1	VKKV	306	2	fair	559	0	0	0	0	0	0	0	0	0	0	0	0	0	0	0	0	0	0	0	0	0	0	0	0	0	0	0	0	0	0	0	0	0	0	0	0	0	0	0
070319	15:27:36	15:37:47	610925	5.0.10.0	5_exp_noRW	16	Rpleas_acq	CS_B	BZZB	VKKV	MQQM	YDDY	GWWG	JXXJ	treu	schön	retten	spielen	fair	ehrlich	tot	schlecht	rächen	strafen	faul	eitel	53pct	acq_USunple_CSunple1_noRW	acq23456_noRW	4	3	0	0	300	300	441	46	0	1	1	blank2r.bmp	0	1	+	0	1	blank2r.bmp	252	1	MQQM	306	2	schlecht	559	0	0	0	0	0	0	0	0	0	0	0	0	0	0	0	0	0	0	0	0	0	0	0	0	0	0	0	0	0	0	0	0	0	0	0	0	0	0	0
070319	15:27:36	15:37:49	612617	5.0.10.0	5_exp_noRW	16	Rpleas_acq	CS_B	BZZB	VKKV	MQQM	YDDY	GWWG	JXXJ	treu	schön	retten	spielen	fair	ehrlich	tot	schlecht	rächen	strafen	faul	eitel	47pct	acq_USunple_CSunple1_noRW	acq23456_noRW	4	4	0	0	300	300	509	46	0	1	1	blank2r.bmp	0	1	+	0	1	blank2r.bmp	252	1	MQQM	306	1	tot	559	0	0	0	0	0	0	0	0	0	0	0	0	0	0	0	0	0	0	0	0	0	0	0	0	0	0	0	0	0	0	0	0	0	0	0	0	0	0	0
070319	15:27:36	15:37:51	614257	5.0.10.0	5_exp_noRW	16	Rpleas_acq	CS_B	BZZB	VKKV	MQQM	YDDY	GWWG	JXXJ	treu	schön	retten	spielen	fair	ehrlich	tot	schlecht	rächen	strafen	faul	eitel	53pct	acq_USpleas_CSpleas2_noRW	acq23456_noRW	4	5	0	0	300	300	468	50	0	1	1	blank2r.bmp	0	1	+	0	1	blank2r.bmp	252	1	VKKV	306	3	ehrlich	559	0	0	0	0	0	0	0	0	0	0	0	0	0	0	0	0	0	0	0	0	0	0	0	0	0	0	0	0	0	0	0	0	0	0	0	0	0	0	0
070319	15:27:36	15:37:52	615776	5.0.10.0	5_exp_noRW	16	Rpleas_acq	CS_B	BZZB	VKKV	MQQM	YDDY	GWWG	JXXJ	treu	schön	retten	spielen	fair	ehrlich	tot	schlecht	rächen	strafen	faul	eitel	53pct	acq_USpleas_CSunple2_noRW	acq23456_noRW	4	6	0	0	300	300	350	50	0	1	1	blank2r.bmp	0	1	+	0	1	blank2r.bmp	252	1	YDDY	306	2	fair	559	0	0	0	0	0	0	0	0	0	0	0	0	0	0	0	0	0	0	0	0	0	0	0	0	0	0	0	0	0	0	0	0	0	0	0	0	0	0	0
070319	15:27:36	15:37:54	617349	5.0.10.0	5_exp_noRW	16	Rpleas_acq	CS_B	BZZB	VKKV	MQQM	YDDY	GWWG	JXXJ	treu	schön	retten	spielen	fair	ehrlich	tot	schlecht	rächen	strafen	faul	eitel	53pct	acq_USpleas_CSpleas1_noRW	acq23456_noRW	4	7	0	0	300	300	394	50	0	1	1	blank2r.bmp	0	1	+	0	1	blank2r.bmp	252	1	BZZB	306	2	schön	559	0	0	0	0	0	0	0	0	0	0	0	0	0	0	0	0	0	0	0	0	0	0	0	0	0	0	0	0	0	0	0	0	0	0	0	0	0	0	0
070319	15:27:36	15:37:55	619108	5.0.10.0	5_exp_noRW	16	Rpleas_acq	CS_B	BZZB	VKKV	MQQM	YDDY	GWWG	JXXJ	treu	schön	retten	spielen	fair	ehrlich	tot	schlecht	rächen	strafen	faul	eitel	53pct	acq_USunple_CSpleas1_noRW	acq23456_noRW	4	8	0	0	300	300	574	46	0	1	1	blank2r.bmp	0	1	+	0	1	blank2r.bmp	252	1	BZZB	306	3	rächen	559	0	0	0	0	0	0	0	0	0	0	0	0	0	0	0	0	0	0	0	0	0	0	0	0	0	0	0	0	0	0	0	0	0	0	0	0	0	0	0
070319	15:27:36	15:37:57	621027	5.0.10.0	5_exp_noRW	16	Rpleas_acq	CS_B	BZZB	VKKV	MQQM	YDDY	GWWG	JXXJ	treu	schön	retten	spielen	fair	ehrlich	tot	schlecht	rächen	strafen	faul	eitel	47pct	acq_USpleas_CSpleas2_noRW	acq23456_noRW	4	9	0	0	300	300	745	50	0	1	1	blank2r.bmp	0	1	+	0	1	blank2r.bmp	252	1	VKKV	306	1	spielen	559	0	0	0	0	0	0	0	0	0	0	0	0	0	0	0	0	0	0	0	0	0	0	0	0	0	0	0	0	0	0	0	0	0	0	0	0	0	0	0
