date	time	script.currenttime	script.elapsedtime	build	script.currentexpt	subject	expressions.LRpleas_acq	expressions.conditionCS_A	expressions.CSpleas_1	expressions.CSpleas_2	expressions.CSunple_1	expressions.CSunple_2	expressions.distractor_1	expressions.distractor_2	expressions.US_pleas1	expressions.US_pleas2	expressions.US_pleas3	expressions.US_pleas4	expressions.US_pleas5	expressions.US_pleas6	expressions.US_unple1	expressions.US_unple2	expressions.US_unple3	expressions.US_unple4	expressions.US_unple5	expressions.US_unple6	counter.positions_noRW	trialcode	blockcode	blocknum	trialnum	windowcenter	inwindow	pretrialpause	posttrialpause	latency	response	expressions.correctedscore	correct	stimulusnumber1	stimulusitem1	stimulusonset1	stimulusnumber2	stimulusitem2	stimulusonset2	stimulusnumber3	stimulusitem3	stimulusonset3	stimulusnumber4	stimulusitem4	stimulusonset4	stimulusnumber5	stimulusitem5	stimulusonset5	stimulusnumber6	stimulusitem6	stimulusonset6	stimulusnumber7	stimulusitem7	stimulusonset7	stimulusnumber8	stimulusitem8	stimulusonset8	stimulusnumber9	stimulusitem9	stimulusonset9	stimulusnumber10	stimulusitem10	stimulusonset10	stimulusnumber11	stimulusitem11	stimulusonset11	stimulusnumber12	stimulusitem12	stimulusonset12	stimulusnumber13	stimulusitem13	stimulusonset13	stimulusnumber14	stimulusitem14	stimulusonset14	stimulusnumber15	stimulusitem15	stimulusonset15	stimulusnumber16	stimulusitem16	stimulusonset16	stimulusnumber17	stimulusitem17	stimulusonset17	stimulusnumber18	stimulusitem18	stimulusonset18
082719	10:05:00	10:06:26	85311	5.0.10.0	5_exp_noRW	114	Rpleas_acq	CS_B	MQQM	JXXJ	VKKV	YDDY	GWWG	BZZB	fair	ehrlich	schön	retten	treu	spielen	faul	eitel	schlecht	rächen	tot	strafen	53pct	acq_USpleas_CSpleas2_noRW	acq1_noRW	1	1	0	0	300	300	1800	50	0	1	1	blank2r.bmp	0	1	+	0	1	blank2r.bmp	252	1	JXXJ	306	1	retten	559	0	0	0	0	0	0	0	0	0	0	0	0	0	0	0	0	0	0	0	0	0	0	0	0	0	0	0	0	0	0	0	0	0	0	0	0	0	0	0
082719	10:05:00	10:06:28	87204	5.0.10.0	5_exp_noRW	114	Rpleas_acq	CS_B	MQQM	JXXJ	VKKV	YDDY	GWWG	BZZB	fair	ehrlich	schön	retten	treu	spielen	faul	eitel	schlecht	rächen	tot	strafen	47pct	acq_USunple_CSpleas2_noRW	acq1_noRW	1	2	0	0	300	300	723	46	0	1	1	blank2r.bmp	0	1	+	0	1	blank2r.bmp	252	1	JXXJ	306	2	tot	559	0	0	0	0	0	0	0	0	0	0	0	0	0	0	0	0	0	0	0	0	0	0	0	0	0	0	0	0	0	0	0	0	0	0	0	0	0	0	0
082719	10:05:00	10:06:30	89229	5.0.10.0	5_exp_noRW	114	Rpleas_acq	CS_B	MQQM	JXXJ	VKKV	YDDY	GWWG	BZZB	fair	ehrlich	schön	retten	treu	spielen	faul	eitel	schlecht	rächen	tot	strafen	53pct	acq_USpleas_CSunple2_noRW	acq1_noRW	1	3	0	0	300	300	847	50	0	1	1	blank2r.bmp	0	1	+	0	1	blank2r.bmp	252	1	YDDY	306	1	retten	559	0	0	0	0	0	0	0	0	0	0	0	0	0	0	0	0	0	0	0	0	0	0	0	0	0	0	0	0	0	0	0	0	0	0	0	0	0	0	0
082719	10:05:00	10:06:32	91335	5.0.10.0	5_exp_noRW	114	Rpleas_acq	CS_B	MQQM	JXXJ	VKKV	YDDY	GWWG	BZZB	fair	ehrlich	schön	retten	treu	spielen	faul	eitel	schlecht	rächen	tot	strafen	47pct	acq_USpleas_CSpleas1_noRW	acq1_noRW	1	4	0	0	300	300	928	50	0	1	1	blank2r.bmp	0	1	+	0	1	blank2r.bmp	252	1	MQQM	306	2	ehrlich	559	0	0	0	0	0	0	0	0	0	0	0	0	0	0	0	0	0	0	0	0	0	0	0	0	0	0	0	0	0	0	0	0	0	0	0	0	0	0	0
082719	10:05:00	10:06:34	93161	5.0.10.0	5_exp_noRW	114	Rpleas_acq	CS_B	MQQM	JXXJ	VKKV	YDDY	GWWG	BZZB	fair	ehrlich	schön	retten	treu	spielen	faul	eitel	schlecht	rächen	tot	strafen	47pct	acq_USpleas_CSpleas1_noRW	acq1_noRW	1	5	0	0	300	300	641	50	0	1	1	blank2r.bmp	0	1	+	0	1	blank2r.bmp	252	1	MQQM	306	1	fair	559	0	0	0	0	0	0	0	0	0	0	0	0	0	0	0	0	0	0	0	0	0	0	0	0	0	0	0	0	0	0	0	0	0	0	0	0	0	0	0
082719	10:05:00	10:06:36	94827	5.0.10.0	5_exp_noRW	114	Rpleas_acq	CS_B	MQQM	JXXJ	VKKV	YDDY	GWWG	BZZB	fair	ehrlich	schön	retten	treu	spielen	faul	eitel	schlecht	rächen	tot	strafen	47pct	acq_USpleas_CSunple1_noRW	acq1_noRW	1	6	0	0	300	300	488	50	0	1	1	blank2r.bmp	0	1	+	0	1	blank2r.bmp	252	1	VKKV	306	1	fair	559	0	0	0	0	0	0	0	0	0	0	0	0	0	0	0	0	0	0	0	0	0	0	0	0	0	0	0	0	0	0	0	0	0	0	0	0	0	0	0
082719	10:05:00	10:06:37	96493	5.0.10.0	5_exp_noRW	114	Rpleas_acq	CS_B	MQQM	JXXJ	VKKV	YDDY	GWWG	BZZB	fair	ehrlich	schön	retten	treu	spielen	faul	eitel	schlecht	rächen	tot	strafen	53pct	acq_USunple_CSunple1_noRW	acq1_noRW	1	7	0	0	300	300	485	46	0	1	1	blank2r.bmp	0	1	+	0	1	blank2r.bmp	252	1	VKKV	306	3	schlecht	559	0	0	0	0	0	0	0	0	0	0	0	0	0	0	0	0	0	0	0	0	0	0	0	0	0	0	0	0	0	0	0	0	0	0	0	0	0	0	0
082719	10:05:00	10:06:39	98306	5.0.10.0	5_exp_noRW	114	Rpleas_acq	CS_B	MQQM	JXXJ	VKKV	YDDY	GWWG	BZZB	fair	ehrlich	schön	retten	treu	spielen	faul	eitel	schlecht	rächen	tot	strafen	47pct	acq_USpleas_CSpleas2_noRW	acq1_noRW	1	8	0	0	300	300	640	50	0	1	1	blank2r.bmp	0	1	+	0	1	blank2r.bmp	252	1	JXXJ	306	3	spielen	559	0	0	0	0	0	0	0	0	0	0	0	0	0	0	0	0	0	0	0	0	0	0	0	0	0	0	0	0	0	0	0	0	0	0	0	0	0	0	0
082719	10:05:00	10:06:41	99998	5.0.10.0	5_exp_noRW	114	Rpleas_acq	CS_B	MQQM	JXXJ	VKKV	YDDY	GWWG	BZZB	fair	ehrlich	schön	retten	treu	spielen	faul	eitel	schlecht	rächen	tot	strafen	53pct	acq_USpleas_CSpleas1_noRW	acq1_noRW	1	9	0	0	300	300	530	50	0	1	1	blank2r.bmp	0	1	+	0	1	blank2r.bmp	252	1	MQQM	306	3	schön	559	0	0	0	0	0	0	0	0	0	0	0	0	0	0	0	0	0	0	0	0	0	0	0	0	0	0	0	0	0	0	0	0	0	0	0	0	0	0	0
082719	10:05:00	10:06:43	101851	5.0.10.0	5_exp_noRW	114	Rpleas_acq	CS_B	MQQM	JXXJ	VKKV	YDDY	GWWG	BZZB	fair	ehrlich	schön	retten	treu	spielen	faul	eitel	schlecht	rächen	tot	strafen	53pct	acq_USunple_CSunple1_noRW	acq1_noRW	1	10	0	0	300	300	682	46	0	1	1	blank2r.bmp	0	1	+	0	1	blank2r.bmp	252	1	VKKV	306	2	eitel	559	0	0	0	0	0	0	0	0	0	0	0	0	0	0	0	0	0	0	0	0	0	0	0	0	0	0	0	0	0	0	0	0	0	0	0	0	0	0	0
082719	10:05:00	10:06:45	103704	5.0.10.0	5_exp_noRW	114	Rpleas_acq	CS_B	MQQM	JXXJ	VKKV	YDDY	GWWG	BZZB	fair	ehrlich	schön	retten	treu	spielen	faul	eitel	schlecht	rächen	tot	strafen	53pct	acq_USpleas_CSpleas2_noRW	acq1_noRW	1	11	0	0	300	300	671	50	0	1	1	blank2r.bmp	0	1	+	0	1	blank2r.bmp	252	1	JXXJ	306	2	treu	559	0	0	0	0	0	0	0	0	0	0	0	0	0	0	0	0	0	0	0	0	0	0	0	0	0	0	0	0	0	0	0	0	0	0	0	0	0	0	0
082719	10:05:00	10:06:46	105529	5.0.10.0	5_exp_noRW	114	Rpleas_acq	CS_B	MQQM	JXXJ	VKKV	YDDY	GWWG	BZZB	fair	ehrlich	schön	retten	treu	spielen	faul	eitel	schlecht	rächen	tot	strafen	47pct	acq_USpleas_CSpleas2_noRW	acq1_noRW	1	12	0	0	300	300	642	50	0	1	1	blank2r.bmp	0	1	+	0	1	blank2r.bmp	252	1	JXXJ	306	2	treu	559	0	0	0	0	0	0	0	0	0	0	0	0	0	0	0	0	0	0	0	0	0	0	0	0	0	0	0	0	0	0	0	0	0	0	0	0	0	0	0
082719	10:05:00	10:06:48	107302	5.0.10.0	5_exp_noRW	114	Rpleas_acq	CS_B	MQQM	JXXJ	VKKV	YDDY	GWWG	BZZB	fair	ehrlich	schön	retten	treu	spielen	faul	eitel	schlecht	rächen	tot	strafen	47pct	acq_USunple_CSunple2_noRW	acq1_noRW	1	13	0	0	300	300	597	46	0	1	1	blank2r.bmp	0	1	+	0	1	blank2r.bmp	252	1	YDDY	306	3	strafen	559	0	0	0	0	0	0	0	0	0	0	0	0	0	0	0	0	0	0	0	0	0	0	0	0	0	0	0	0	0	0	0	0	0	0	0	0	0	0	0
082719	10:05:00	10:06:50	109168	5.0.10.0	5_exp_noRW	114	Rpleas_acq	CS_B	MQQM	JXXJ	VKKV	YDDY	GWWG	BZZB	fair	ehrlich	schön	retten	treu	spielen	faul	eitel	schlecht	rächen	tot	strafen	53pct	acq_USunple_CSunple2_noRW	acq1_noRW	1	14	0	0	300	300	689	46	0	1	1	blank2r.bmp	0	1	+	0	1	blank2r.bmp	252	1	YDDY	306	1	rächen	559	0	0	0	0	0	0	0	0	0	0	0	0	0	0	0	0	0	0	0	0	0	0	0	0	0	0	0	0	0	0	0	0	0	0	0	0	0	0	0
082719	10:05:00	10:06:52	110901	5.0.10.0	5_exp_noRW	114	Rpleas_acq	CS_B	MQQM	JXXJ	VKKV	YDDY	GWWG	BZZB	fair	ehrlich	schön	retten	treu	spielen	faul	eitel	schlecht	rächen	tot	strafen	47pct	acq_USunple_CSpleas1_noRW	acq1_noRW	1	15	0	0	300	300	553	46	0	1	1	blank2r.bmp	0	1	+	0	1	blank2r.bmp	252	1	MQQM	306	3	schlecht	559	0	0	0	0	0	0	0	0	0	0	0	0	0	0	0	0	0	0	0	0	0	0	0	0	0	0	0	0	0	0	0	0	0	0	0	0	0	0	0
082719	10:05:00	10:06:54	112647	5.0.10.0	5_exp_noRW	114	Rpleas_acq	CS_B	MQQM	JXXJ	VKKV	YDDY	GWWG	BZZB	fair	ehrlich	schön	retten	treu	spielen	faul	eitel	schlecht	rächen	tot	strafen	53pct	acq_USunple_CSunple2_noRW	acq1_noRW	1	16	0	0	300	300	559	46	0	1	1	blank2r.bmp	0	1	+	0	1	blank2r.bmp	252	1	YDDY	306	2	tot	559	0	0	0	0	0	0	0	0	0	0	0	0	0	0	0	0	0	0	0	0	0	0	0	0	0	0	0	0	0	0	0	0	0	0	0	0	0	0	0
082719	10:05:00	10:06:56	114952	5.0.10.0	5_exp_noRW	114	Rpleas_acq	CS_B	MQQM	JXXJ	VKKV	YDDY	GWWG	BZZB	fair	ehrlich	schön	retten	treu	spielen	faul	eitel	schlecht	rächen	tot	strafen	47pct	acq_USunple_CSunple1_noRW	acq1_noRW	1	17	0	0	300	300	1122	46	0	1	1	blank2r.bmp	0	1	+	0	1	blank2r.bmp	252	1	VKKV	306	1	faul	559	0	0	0	0	0	0	0	0	0	0	0	0	0	0	0	0	0	0	0	0	0	0	0	0	0	0	0	0	0	0	0	0	0	0	0	0	0	0	0
082719	10:05:00	10:06:58	116885	5.0.10.0	5_exp_noRW	114	Rpleas_acq	CS_B	MQQM	JXXJ	VKKV	YDDY	GWWG	BZZB	fair	ehrlich	schön	retten	treu	spielen	faul	eitel	schlecht	rächen	tot	strafen	47pct	acq_USunple_CSunple2_noRW	acq1_noRW	1	18	0	0	300	300	749	46	0	1	1	blank2r.bmp	0	1	+	0	1	blank2r.bmp	252	1	YDDY	306	2	tot	559	0	0	0	0	0	0	0	0	0	0	0	0	0	0	0	0	0	0	0	0	0	0	0	0	0	0	0	0	0	0	0	0	0	0	0	0	0	0	0
082719	10:05:00	10:07:00	118871	5.0.10.0	5_exp_noRW	114	Rpleas_acq	CS_B	MQQM	JXXJ	VKKV	YDDY	GWWG	BZZB	fair	ehrlich	schön	retten	treu	spielen	faul	eitel	schlecht	rächen	tot	strafen	47pct	acq_USpleas_CSpleas1_noRW	acq1_noRW	1	19	0	0	300	300	820	50	0	1	1	blank2r.bmp	0	1	+	0	1	blank2r.bmp	252	1	MQQM	306	3	schön	559	0	0	0	0	0	0	0	0	0	0	0	0	0	0	0	0	0	0	0	0	0	0	0	0	0	0	0	0	0	0	0	0	0	0	0	0	0	0	0
082719	10:05:00	10:07:01	120497	5.0.10.0	5_exp_noRW	114	Rpleas_acq	CS_B	MQQM	JXXJ	VKKV	YDDY	GWWG	BZZB	fair	ehrlich	schön	retten	treu	spielen	faul	eitel	schlecht	rächen	tot	strafen	47pct	acq_USunple_CSunple1_noRW	acq1_noRW	1	20	0	0	300	300	448	46	0	1	1	blank2r.bmp	0	1	+	0	1	blank2r.bmp	252	1	VKKV	306	2	eitel	559	0	0	0	0	0	0	0	0	0	0	0	0	0	0	0	0	0	0	0	0	0	0	0	0	0	0	0	0	0	0	0	0	0	0	0	0	0	0	0
082719	10:05:00	10:07:04	122682	5.0.10.0	5_exp_noRW	114	Rpleas_acq	CS_B	MQQM	JXXJ	VKKV	YDDY	GWWG	BZZB	fair	ehrlich	schön	retten	treu	spielen	faul	eitel	schlecht	rächen	tot	strafen	53pct	acq_USpleas_CSunple1_noRW	acq1_noRW	1	21	0	0	300	300	1013	50	0	1	1	blank2r.bmp	0	1	+	0	1	blank2r.bmp	252	1	VKKV	306	3	schön	559	0	0	0	0	0	0	0	0	0	0	0	0	0	0	0	0	0	0	0	0	0	0	0	0	0	0	0	0	0	0	0	0	0	0	0	0	0	0	0
082719	10:05:00	10:07:05	124482	5.0.10.0	5_exp_noRW	114	Rpleas_acq	CS_B	MQQM	JXXJ	VKKV	YDDY	GWWG	BZZB	fair	ehrlich	schön	retten	treu	spielen	faul	eitel	schlecht	rächen	tot	strafen	47pct	acq_USunple_CSunple1_noRW	acq1_noRW	1	22	0	0	300	300	630	46	0	1	1	blank2r.bmp	0	1	+	0	1	blank2r.bmp	252	1	VKKV	306	3	schlecht	559	0	0	0	0	0	0	0	0	0	0	0	0	0	0	0	0	0	0	0	0	0	0	0	0	0	0	0	0	0	0	0	0	0	0	0	0	0	0	0
082719	10:05:00	10:07:07	126214	5.0.10.0	5_exp_noRW	114	Rpleas_acq	CS_B	MQQM	JXXJ	VKKV	YDDY	GWWG	BZZB	fair	ehrlich	schön	retten	treu	spielen	faul	eitel	schlecht	rächen	tot	strafen	53pct	acq_USpleas_CSpleas2_noRW	acq1_noRW	1	23	0	0	300	300	568	50	0	1	1	blank2r.bmp	0	1	+	0	1	blank2r.bmp	252	1	JXXJ	306	3	spielen	559	0	0	0	0	0	0	0	0	0	0	0	0	0	0	0	0	0	0	0	0	0	0	0	0	0	0	0	0	0	0	0	0	0	0	0	0	0	0	0
082719	10:05:00	10:07:09	128227	5.0.10.0	5_exp_noRW	114	Rpleas_acq	CS_B	MQQM	JXXJ	VKKV	YDDY	GWWG	BZZB	fair	ehrlich	schön	retten	treu	spielen	faul	eitel	schlecht	rächen	tot	strafen	47pct	acq_USunple_CSunple1_noRW	acq1_noRW	1	24	0	0	300	300	829	46	0	1	1	blank2r.bmp	0	1	+	0	1	blank2r.bmp	252	1	VKKV	306	1	faul	559	0	0	0	0	0	0	0	0	0	0	0	0	0	0	0	0	0	0	0	0	0	0	0	0	0	0	0	0	0	0	0	0	0	0	0	0	0	0	0
082719	10:05:00	10:07:11	129959	5.0.10.0	5_exp_noRW	114	Rpleas_acq	CS_B	MQQM	JXXJ	VKKV	YDDY	GWWG	BZZB	fair	ehrlich	schön	retten	treu	spielen	faul	eitel	schlecht	rächen	tot	strafen	53pct	acq_USunple_CSunple2_noRW	acq1_noRW	1	25	0	0	300	300	549	46	0	1	1	blank2r.bmp	0	1	+	0	1	blank2r.bmp	252	1	YDDY	306	1	rächen	559	0	0	0	0	0	0	0	0	0	0	0	0	0	0	0	0	0	0	0	0	0	0	0	0	0	0	0	0	0	0	0	0	0	0	0	0	0	0	0
082719	10:05:00	10:07:13	131665	5.0.10.0	5_exp_noRW	114	Rpleas_acq	CS_B	MQQM	JXXJ	VKKV	YDDY	GWWG	BZZB	fair	ehrlich	schön	retten	treu	spielen	faul	eitel	schlecht	rächen	tot	strafen	53pct	acq_USpleas_CSpleas1_noRW	acq1_noRW	1	26	0	0	300	300	523	50	0	1	1	blank2r.bmp	0	1	+	0	1	blank2r.bmp	252	1	MQQM	306	2	ehrlich	559	0	0	0	0	0	0	0	0	0	0	0	0	0	0	0	0	0	0	0	0	0	0	0	0	0	0	0	0	0	0	0	0	0	0	0	0	0	0	0
082719	10:05:00	10:07:14	133385	5.0.10.0	5_exp_noRW	114	Rpleas_acq	CS_B	MQQM	JXXJ	VKKV	YDDY	GWWG	BZZB	fair	ehrlich	schön	retten	treu	spielen	faul	eitel	schlecht	rächen	tot	strafen	47pct	acq_USunple_CSunple1_noRW	acq1_noRW	1	27	0	0	300	300	555	46	0	1	1	blank2r.bmp	0	1	+	0	1	blank2r.bmp	252	1	VKKV	306	3	schlecht	559	0	0	0	0	0	0	0	0	0	0	0	0	0	0	0	0	0	0	0	0	0	0	0	0	0	0	0	0	0	0	0	0	0	0	0	0	0	0	0
082719	10:05:00	10:07:17	135611	5.0.10.0	5_exp_noRW	114	Rpleas_acq	CS_B	MQQM	JXXJ	VKKV	YDDY	GWWG	BZZB	fair	ehrlich	schön	retten	treu	spielen	faul	eitel	schlecht	rächen	tot	strafen	47pct	acq_USunple_CSunple2_noRW	acq1_noRW	1	28	0	0	300	300	1039	46	0	1	1	blank2r.bmp	0	1	+	0	1	blank2r.bmp	252	1	YDDY	306	3	strafen	559	0	0	0	0	0	0	0	0	0	0	0	0	0	0	0	0	0	0	0	0	0	0	0	0	0	0	0	0	0	0	0	0	0	0	0	0	0	0	0
082719	10:05:00	10:07:18	137330	5.0.10.0	5_exp_noRW	114	Rpleas_acq	CS_B	MQQM	JXXJ	VKKV	YDDY	GWWG	BZZB	fair	ehrlich	schön	retten	treu	spielen	faul	eitel	schlecht	rächen	tot	strafen	47pct	acq_USunple_CSpleas2_noRW	acq1_noRW	1	29	0	0	300	300	539	46	0	1	1	blank2r.bmp	0	1	+	0	1	blank2r.bmp	252	1	JXXJ	306	3	strafen	559	0	0	0	0	0	0	0	0	0	0	0	0	0	0	0	0	0	0	0	0	0	0	0	0	0	0	0	0	0	0	0	0	0	0	0	0	0	0	0
082719	10:05:00	10:07:21	140155	5.0.10.0	5_exp_noRW	114	Rpleas_acq	CS_B	MQQM	JXXJ	VKKV	YDDY	GWWG	BZZB	fair	ehrlich	schön	retten	treu	spielen	faul	eitel	schlecht	rächen	tot	strafen	53pct	acq_USpleas_CSpleas2_noRW	acq1_noRW	1	30	0	0	300	300	1448	46	0	0	1	blank2r.bmp	0	1	+	0	1	blank2r.bmp	252	1	JXXJ	306	1	retten	559	1	FEHLER	2039	0	0	0	0	0	0	0	0	0	0	0	0	0	0	0	0	0	0	0	0	0	0	0	0	0	0	0	0	0	0	0	0	0	0	0	0
082719	10:05:00	10:07:23	142021	5.0.10.0	5_exp_noRW	114	Rpleas_acq	CS_B	MQQM	JXXJ	VKKV	YDDY	GWWG	BZZB	fair	ehrlich	schön	retten	treu	spielen	faul	eitel	schlecht	rächen	tot	strafen	47pct	acq_USpleas_CSunple2_noRW	acq1_noRW	1	31	0	0	300	300	903	50	0	1	1	blank2r.bmp	0	1	+	0	1	blank2r.bmp	252	1	YDDY	306	2	treu	559	0	0	0	0	0	0	0	0	0	0	0	0	0	0	0	0	0	0	0	0	0	0	0	0	0	0	0	0	0	0	0	0	0	0	0	0	0	0	0
082719	10:05:00	10:07:25	143780	5.0.10.0	5_exp_noRW	114	Rpleas_acq	CS_B	MQQM	JXXJ	VKKV	YDDY	GWWG	BZZB	fair	ehrlich	schön	retten	treu	spielen	faul	eitel	schlecht	rächen	tot	strafen	47pct	acq_USunple_CSpleas1_noRW	acq1_noRW	1	32	0	0	300	300	573	46	0	1	1	blank2r.bmp	0	1	+	0	1	blank2r.bmp	252	1	MQQM	306	1	faul	559	0	0	0	0	0	0	0	0	0	0	0	0	0	0	0	0	0	0	0	0	0	0	0	0	0	0	0	0	0	0	0	0	0	0	0	0	0	0	0
082719	10:05:00	10:07:27	145646	5.0.10.0	5_exp_noRW	114	Rpleas_acq	CS_B	MQQM	JXXJ	VKKV	YDDY	GWWG	BZZB	fair	ehrlich	schön	retten	treu	spielen	faul	eitel	schlecht	rächen	tot	strafen	53pct	acq_USpleas_CSpleas1_noRW	acq1_noRW	1	33	0	0	300	300	698	50	0	1	1	blank2r.bmp	0	1	+	0	1	blank2r.bmp	252	1	MQQM	306	1	fair	559	0	0	0	0	0	0	0	0	0	0	0	0	0	0	0	0	0	0	0	0	0	0	0	0	0	0	0	0	0	0	0	0	0	0	0	0	0	0	0
082719	10:05:00	10:07:28	147392	5.0.10.0	5_exp_noRW	114	Rpleas_acq	CS_B	MQQM	JXXJ	VKKV	YDDY	GWWG	BZZB	fair	ehrlich	schön	retten	treu	spielen	faul	eitel	schlecht	rächen	tot	strafen	47pct	acq_USpleas_CSpleas2_noRW	acq1_noRW	1	34	0	0	300	300	580	50	0	1	1	blank2r.bmp	0	1	+	0	1	blank2r.bmp	252	1	JXXJ	306	3	spielen	559	0	0	0	0	0	0	0	0	0	0	0	0	0	0	0	0	0	0	0	0	0	0	0	0	0	0	0	0	0	0	0	0	0	0	0	0	0	0	0
082719	10:05:00	10:07:30	149138	5.0.10.0	5_exp_noRW	114	Rpleas_acq	CS_B	MQQM	JXXJ	VKKV	YDDY	GWWG	BZZB	fair	ehrlich	schön	retten	treu	spielen	faul	eitel	schlecht	rächen	tot	strafen	47pct	acq_USpleas_CSpleas1_noRW	acq1_noRW	1	35	0	0	300	300	581	50	0	1	1	blank2r.bmp	0	1	+	0	1	blank2r.bmp	252	1	MQQM	306	2	ehrlich	559	0	0	0	0	0	0	0	0	0	0	0	0	0	0	0	0	0	0	0	0	0	0	0	0	0	0	0	0	0	0	0	0	0	0	0	0	0	0	0
082719	10:05:00	10:07:32	150898	5.0.10.0	5_exp_noRW	114	Rpleas_acq	CS_B	MQQM	JXXJ	VKKV	YDDY	GWWG	BZZB	fair	ehrlich	schön	retten	treu	spielen	faul	eitel	schlecht	rächen	tot	strafen	53pct	acq_USpleas_CSpleas2_noRW	acq1_noRW	1	36	0	0	300	300	592	50	0	1	1	blank2r.bmp	0	1	+	0	1	blank2r.bmp	252	1	JXXJ	306	1	retten	559	0	0	0	0	0	0	0	0	0	0	0	0	0	0	0	0	0	0	0	0	0	0	0	0	0	0	0	0	0	0	0	0	0	0	0	0	0	0	0
082719	10:05:00	10:07:33	152564	5.0.10.0	5_exp_noRW	114	Rpleas_acq	CS_B	MQQM	JXXJ	VKKV	YDDY	GWWG	BZZB	fair	ehrlich	schön	retten	treu	spielen	faul	eitel	schlecht	rächen	tot	strafen	53pct	acq_USpleas_CSpleas1_noRW	acq1_noRW	1	37	0	0	300	300	491	50	0	1	1	blank2r.bmp	0	1	+	0	1	blank2r.bmp	252	1	MQQM	306	1	fair	559	0	0	0	0	0	0	0	0	0	0	0	0	0	0	0	0	0	0	0	0	0	0	0	0	0	0	0	0	0	0	0	0	0	0	0	0	0	0	0
082719	10:05:00	10:07:35	154296	5.0.10.0	5_exp_noRW	114	Rpleas_acq	CS_B	MQQM	JXXJ	VKKV	YDDY	GWWG	BZZB	fair	ehrlich	schön	retten	treu	spielen	faul	eitel	schlecht	rächen	tot	strafen	47pct	acq_USunple_CSunple2_noRW	acq1_noRW	1	38	0	0	300	300	553	46	0	1	1	blank2r.bmp	0	1	+	0	1	blank2r.bmp	252	1	YDDY	306	3	strafen	559	0	0	0	0	0	0	0	0	0	0	0	0	0	0	0	0	0	0	0	0	0	0	0	0	0	0	0	0	0	0	0	0	0	0	0	0	0	0	0
082719	10:05:00	10:07:37	156322	5.0.10.0	5_exp_noRW	114	Rpleas_acq	CS_B	MQQM	JXXJ	VKKV	YDDY	GWWG	BZZB	fair	ehrlich	schön	retten	treu	spielen	faul	eitel	schlecht	rächen	tot	strafen	47pct	acq_USunple_CSunple2_noRW	acq1_noRW	1	39	0	0	300	300	631	50	0	0	1	blank2r.bmp	0	1	+	0	1	blank2r.bmp	252	1	YDDY	306	1	rächen	559	1	FEHLER	1226	0	0	0	0	0	0	0	0	0	0	0	0	0	0	0	0	0	0	0	0	0	0	0	0	0	0	0	0	0	0	0	0	0	0	0	0
082719	10:05:00	10:07:39	157948	5.0.10.0	5_exp_noRW	114	Rpleas_acq	CS_B	MQQM	JXXJ	VKKV	YDDY	GWWG	BZZB	fair	ehrlich	schön	retten	treu	spielen	faul	eitel	schlecht	rächen	tot	strafen	47pct	acq_USunple_CSunple1_noRW	acq1_noRW	1	40	0	0	300	300	664	46	0	1	1	blank2r.bmp	0	1	+	0	1	blank2r.bmp	252	1	VKKV	306	1	faul	559	0	0	0	0	0	0	0	0	0	0	0	0	0	0	0	0	0	0	0	0	0	0	0	0	0	0	0	0	0	0	0	0	0	0	0	0	0	0	0
082719	10:05:00	10:07:41	159694	5.0.10.0	5_exp_noRW	114	Rpleas_acq	CS_B	MQQM	JXXJ	VKKV	YDDY	GWWG	BZZB	fair	ehrlich	schön	retten	treu	spielen	faul	eitel	schlecht	rächen	tot	strafen	47pct	acq_USunple_CSpleas2_noRW	acq1_noRW	1	41	0	0	300	300	565	46	0	1	1	blank2r.bmp	0	1	+	0	1	blank2r.bmp	252	1	JXXJ	306	1	rächen	559	0	0	0	0	0	0	0	0	0	0	0	0	0	0	0	0	0	0	0	0	0	0	0	0	0	0	0	0	0	0	0	0	0	0	0	0	0	0	0
082719	10:05:00	10:07:42	161373	5.0.10.0	5_exp_noRW	114	Rpleas_acq	CS_B	MQQM	JXXJ	VKKV	YDDY	GWWG	BZZB	fair	ehrlich	schön	retten	treu	spielen	faul	eitel	schlecht	rächen	tot	strafen	47pct	acq_USunple_CSunple2_noRW	acq1_noRW	1	42	0	0	300	300	492	46	0	1	1	blank2r.bmp	0	1	+	0	1	blank2r.bmp	252	1	YDDY	306	2	tot	559	0	0	0	0	0	0	0	0	0	0	0	0	0	0	0	0	0	0	0	0	0	0	0	0	0	0	0	0	0	0	0	0	0	0	0	0	0	0	0
082719	10:05:00	10:07:44	162999	5.0.10.0	5_exp_noRW	114	Rpleas_acq	CS_B	MQQM	JXXJ	VKKV	YDDY	GWWG	BZZB	fair	ehrlich	schön	retten	treu	spielen	faul	eitel	schlecht	rächen	tot	strafen	53pct	acq_USunple_CSunple2_noRW	acq1_noRW	1	43	0	0	300	300	456	46	0	1	1	blank2r.bmp	0	1	+	0	1	blank2r.bmp	252	1	YDDY	306	2	tot	559	0	0	0	0	0	0	0	0	0	0	0	0	0	0	0	0	0	0	0	0	0	0	0	0	0	0	0	0	0	0	0	0	0	0	0	0	0	0	0
082719	10:05:00	10:07:46	164639	5.0.10.0	5_exp_noRW	114	Rpleas_acq	CS_B	MQQM	JXXJ	VKKV	YDDY	GWWG	BZZB	fair	ehrlich	schön	retten	treu	spielen	faul	eitel	schlecht	rächen	tot	strafen	53pct	acq_USpleas_CSpleas2_noRW	acq1_noRW	1	44	0	0	300	300	460	50	0	1	1	blank2r.bmp	0	1	+	0	1	blank2r.bmp	252	1	JXXJ	306	2	treu	559	0	0	0	0	0	0	0	0	0	0	0	0	0	0	0	0	0	0	0	0	0	0	0	0	0	0	0	0	0	0	0	0	0	0	0	0	0	0	0
082719	10:05:00	10:07:47	166358	5.0.10.0	5_exp_noRW	114	Rpleas_acq	CS_B	MQQM	JXXJ	VKKV	YDDY	GWWG	BZZB	fair	ehrlich	schön	retten	treu	spielen	faul	eitel	schlecht	rächen	tot	strafen	47pct	acq_USpleas_CSpleas1_noRW	acq1_noRW	1	45	0	0	300	300	534	50	0	1	1	blank2r.bmp	0	1	+	0	1	blank2r.bmp	252	1	MQQM	306	3	schön	559	0	0	0	0	0	0	0	0	0	0	0	0	0	0	0	0	0	0	0	0	0	0	0	0	0	0	0	0	0	0	0	0	0	0	0	0	0	0	0
082719	10:05:00	10:07:49	168117	5.0.10.0	5_exp_noRW	114	Rpleas_acq	CS_B	MQQM	JXXJ	VKKV	YDDY	GWWG	BZZB	fair	ehrlich	schön	retten	treu	spielen	faul	eitel	schlecht	rächen	tot	strafen	47pct	acq_USpleas_CSpleas2_noRW	acq1_noRW	1	46	0	0	300	300	574	50	0	1	1	blank2r.bmp	0	1	+	0	1	blank2r.bmp	252	1	JXXJ	306	1	retten	559	0	0	0	0	0	0	0	0	0	0	0	0	0	0	0	0	0	0	0	0	0	0	0	0	0	0	0	0	0	0	0	0	0	0	0	0	0	0	0
082719	10:05:00	10:07:51	170330	5.0.10.0	5_exp_noRW	114	Rpleas_acq	CS_B	MQQM	JXXJ	VKKV	YDDY	GWWG	BZZB	fair	ehrlich	schön	retten	treu	spielen	faul	eitel	schlecht	rächen	tot	strafen	47pct	acq_USunple_CSunple1_noRW	acq1_noRW	1	47	0	0	300	300	1037	46	0	1	1	blank2r.bmp	0	1	+	0	1	blank2r.bmp	252	1	VKKV	306	2	eitel	559	0	0	0	0	0	0	0	0	0	0	0	0	0	0	0	0	0	0	0	0	0	0	0	0	0	0	0	0	0	0	0	0	0	0	0	0	0	0	0
082719	10:05:00	10:07:53	172022	5.0.10.0	5_exp_noRW	114	Rpleas_acq	CS_B	MQQM	JXXJ	VKKV	YDDY	GWWG	BZZB	fair	ehrlich	schön	retten	treu	spielen	faul	eitel	schlecht	rächen	tot	strafen	53pct	acq_USpleas_CSpleas1_noRW	acq1_noRW	1	48	0	0	300	300	515	50	0	1	1	blank2r.bmp	0	1	+	0	1	blank2r.bmp	252	1	MQQM	306	1	fair	559	0	0	0	0	0	0	0	0	0	0	0	0	0	0	0	0	0	0	0	0	0	0	0	0	0	0	0	0	0	0	0	0	0	0	0	0	0	0	0
082719	10:05:00	10:07:55	173662	5.0.10.0	5_exp_noRW	114	Rpleas_acq	CS_B	MQQM	JXXJ	VKKV	YDDY	GWWG	BZZB	fair	ehrlich	schön	retten	treu	spielen	faul	eitel	schlecht	rächen	tot	strafen	47pct	acq_USpleas_CSpleas1_noRW	acq1_noRW	1	49	0	0	300	300	466	50	0	1	1	blank2r.bmp	0	1	+	0	1	blank2r.bmp	252	1	MQQM	306	2	ehrlich	559	0	0	0	0	0	0	0	0	0	0	0	0	0	0	0	0	0	0	0	0	0	0	0	0	0	0	0	0	0	0	0	0	0	0	0	0	0	0	0
082719	10:05:00	10:07:56	175394	5.0.10.0	5_exp_noRW	114	Rpleas_acq	CS_B	MQQM	JXXJ	VKKV	YDDY	GWWG	BZZB	fair	ehrlich	schön	retten	treu	spielen	faul	eitel	schlecht	rächen	tot	strafen	47pct	acq_USunple_CSpleas1_noRW	acq1_noRW	1	50	0	0	300	300	564	46	0	1	1	blank2r.bmp	0	1	+	0	1	blank2r.bmp	252	1	MQQM	306	2	eitel	559	0	0	0	0	0	0	0	0	0	0	0	0	0	0	0	0	0	0	0	0	0	0	0	0	0	0	0	0	0	0	0	0	0	0	0	0	0	0	0
082719	10:05:00	10:07:58	177194	5.0.10.0	5_exp_noRW	114	Rpleas_acq	CS_B	MQQM	JXXJ	VKKV	YDDY	GWWG	BZZB	fair	ehrlich	schön	retten	treu	spielen	faul	eitel	schlecht	rächen	tot	strafen	53pct	acq_USpleas_CSpleas2_noRW	acq1_noRW	1	51	0	0	300	300	632	50	0	1	1	blank2r.bmp	0	1	+	0	1	blank2r.bmp	252	1	JXXJ	306	3	spielen	559	0	0	0	0	0	0	0	0	0	0	0	0	0	0	0	0	0	0	0	0	0	0	0	0	0	0	0	0	0	0	0	0	0	0	0	0	0	0	0
082719	10:05:00	10:08:00	179259	5.0.10.0	5_exp_noRW	114	Rpleas_acq	CS_B	MQQM	JXXJ	VKKV	YDDY	GWWG	BZZB	fair	ehrlich	schön	retten	treu	spielen	faul	eitel	schlecht	rächen	tot	strafen	47pct	acq_USpleas_CSpleas1_noRW	acq1_noRW	1	52	0	0	300	300	886	50	0	1	1	blank2r.bmp	0	1	+	0	1	blank2r.bmp	252	1	MQQM	306	3	schön	559	0	0	0	0	0	0	0	0	0	0	0	0	0	0	0	0	0	0	0	0	0	0	0	0	0	0	0	0	0	0	0	0	0	0	0	0	0	0	0
082719	10:05:00	10:08:02	181192	5.0.10.0	5_exp_noRW	114	Rpleas_acq	CS_B	MQQM	JXXJ	VKKV	YDDY	GWWG	BZZB	fair	ehrlich	schön	retten	treu	spielen	faul	eitel	schlecht	rächen	tot	strafen	53pct	acq_USunple_CSunple1_noRW	acq1_noRW	1	53	0	0	300	300	756	46	0	1	1	blank2r.bmp	0	1	+	0	1	blank2r.bmp	252	1	VKKV	306	2	eitel	559	0	0	0	0	0	0	0	0	0	0	0	0	0	0	0	0	0	0	0	0	0	0	0	0	0	0	0	0	0	0	0	0	0	0	0	0	0	0	0
082719	10:05:00	10:08:04	183351	5.0.10.0	5_exp_noRW	114	Rpleas_acq	CS_B	MQQM	JXXJ	VKKV	YDDY	GWWG	BZZB	fair	ehrlich	schön	retten	treu	spielen	faul	eitel	schlecht	rächen	tot	strafen	47pct	acq_USpleas_CSunple2_noRW	acq1_noRW	1	54	0	0	300	300	975	50	0	1	1	blank2r.bmp	0	1	+	0	1	blank2r.bmp	252	1	YDDY	306	3	spielen	559	0	0	0	0	0	0	0	0	0	0	0	0	0	0	0	0	0	0	0	0	0	0	0	0	0	0	0	0	0	0	0	0	0	0	0	0	0	0	0
082719	10:05:00	10:08:06	185097	5.0.10.0	5_exp_noRW	114	Rpleas_acq	CS_B	MQQM	JXXJ	VKKV	YDDY	GWWG	BZZB	fair	ehrlich	schön	retten	treu	spielen	faul	eitel	schlecht	rächen	tot	strafen	47pct	acq_USpleas_CSunple1_noRW	acq1_noRW	1	55	0	0	300	300	578	50	0	1	1	blank2r.bmp	0	1	+	0	1	blank2r.bmp	252	1	VKKV	306	2	ehrlich	559	0	0	0	0	0	0	0	0	0	0	0	0	0	0	0	0	0	0	0	0	0	0	0	0	0	0	0	0	0	0	0	0	0	0	0	0	0	0	0
082719	10:05:00	10:08:08	186856	5.0.10.0	5_exp_noRW	114	Rpleas_acq	CS_B	MQQM	JXXJ	VKKV	YDDY	GWWG	BZZB	fair	ehrlich	schön	retten	treu	spielen	faul	eitel	schlecht	rächen	tot	strafen	53pct	acq_USunple_CSunple1_noRW	acq1_noRW	1	56	0	0	300	300	586	46	0	1	1	blank2r.bmp	0	1	+	0	1	blank2r.bmp	252	1	VKKV	306	3	schlecht	559	0	0	0	0	0	0	0	0	0	0	0	0	0	0	0	0	0	0	0	0	0	0	0	0	0	0	0	0	0	0	0	0	0	0	0	0	0	0	0
082719	10:05:00	10:08:10	188589	5.0.10.0	5_exp_noRW	114	Rpleas_acq	CS_B	MQQM	JXXJ	VKKV	YDDY	GWWG	BZZB	fair	ehrlich	schön	retten	treu	spielen	faul	eitel	schlecht	rächen	tot	strafen	53pct	acq_USunple_CSunple1_noRW	acq1_noRW	1	57	0	0	300	300	548	46	0	1	1	blank2r.bmp	0	1	+	0	1	blank2r.bmp	252	1	VKKV	306	1	faul	559	0	0	0	0	0	0	0	0	0	0	0	0	0	0	0	0	0	0	0	0	0	0	0	0	0	0	0	0	0	0	0	0	0	0	0	0	0	0	0
082719	10:05:00	10:08:11	190215	5.0.10.0	5_exp_noRW	114	Rpleas_acq	CS_B	MQQM	JXXJ	VKKV	YDDY	GWWG	BZZB	fair	ehrlich	schön	retten	treu	spielen	faul	eitel	schlecht	rächen	tot	strafen	47pct	acq_USunple_CSunple2_noRW	acq1_noRW	1	58	0	0	300	300	459	46	0	1	1	blank2r.bmp	0	1	+	0	1	blank2r.bmp	252	1	YDDY	306	1	rächen	559	0	0	0	0	0	0	0	0	0	0	0	0	0	0	0	0	0	0	0	0	0	0	0	0	0	0	0	0	0	0	0	0	0	0	0	0	0	0	0
082719	10:05:00	10:08:13	191868	5.0.10.0	5_exp_noRW	114	Rpleas_acq	CS_B	MQQM	JXXJ	VKKV	YDDY	GWWG	BZZB	fair	ehrlich	schön	retten	treu	spielen	faul	eitel	schlecht	rächen	tot	strafen	47pct	acq_USpleas_CSpleas2_noRW	acq1_noRW	1	59	0	0	300	300	490	50	0	1	1	blank2r.bmp	0	1	+	0	1	blank2r.bmp	252	1	JXXJ	306	2	treu	559	0	0	0	0	0	0	0	0	0	0	0	0	0	0	0	0	0	0	0	0	0	0	0	0	0	0	0	0	0	0	0	0	0	0	0	0	0	0	0
082719	10:05:00	10:08:15	194053	5.0.10.0	5_exp_noRW	114	Rpleas_acq	CS_B	MQQM	JXXJ	VKKV	YDDY	GWWG	BZZB	fair	ehrlich	schön	retten	treu	spielen	faul	eitel	schlecht	rächen	tot	strafen	53pct	acq_USunple_CSunple2_noRW	acq1_noRW	1	60	0	0	300	300	1009	46	0	1	1	blank2r.bmp	0	1	+	0	1	blank2r.bmp	252	1	YDDY	306	3	strafen	559	0	0	0	0	0	0	0	0	0	0	0	0	0	0	0	0	0	0	0	0	0	0	0	0	0	0	0	0	0	0	0	0	0	0	0	0	0	0	0
082719	10:05:00	10:08:17	196013	5.0.10.0	5_exp_noRW	114	Rpleas_acq	CS_B	MQQM	JXXJ	VKKV	YDDY	GWWG	BZZB	fair	ehrlich	schön	retten	treu	spielen	faul	eitel	schlecht	rächen	tot	strafen	47pct	acq_USunple_CSunple2_noRW	acq1_noRW	1	61	0	0	300	300	784	46	0	1	1	blank2r.bmp	0	1	+	0	1	blank2r.bmp	252	1	YDDY	306	2	tot	559	0	0	0	0	0	0	0	0	0	0	0	0	0	0	0	0	0	0	0	0	0	0	0	0	0	0	0	0	0	0	0	0	0	0	0	0	0	0	0
082719	10:05:00	10:08:19	197812	5.0.10.0	5_exp_noRW	114	Rpleas_acq	CS_B	MQQM	JXXJ	VKKV	YDDY	GWWG	BZZB	fair	ehrlich	schön	retten	treu	spielen	faul	eitel	schlecht	rächen	tot	strafen	53pct	acq_USpleas_CSunple2_noRW	acq1_noRW	1	62	0	0	300	300	623	50	0	1	1	blank2r.bmp	0	1	+	0	1	blank2r.bmp	252	1	YDDY	306	1	retten	559	0	0	0	0	0	0	0	0	0	0	0	0	0	0	0	0	0	0	0	0	0	0	0	0	0	0	0	0	0	0	0	0	0	0	0	0	0	0	0
082719	10:05:00	10:08:21	199744	5.0.10.0	5_exp_noRW	114	Rpleas_acq	CS_B	MQQM	JXXJ	VKKV	YDDY	GWWG	BZZB	fair	ehrlich	schön	retten	treu	spielen	faul	eitel	schlecht	rächen	tot	strafen	53pct	acq_USunple_CSpleas2_noRW	acq1_noRW	1	63	0	0	300	300	754	46	0	1	1	blank2r.bmp	0	1	+	0	1	blank2r.bmp	252	1	JXXJ	306	3	strafen	559	0	0	0	0	0	0	0	0	0	0	0	0	0	0	0	0	0	0	0	0	0	0	0	0	0	0	0	0	0	0	0	0	0	0	0	0	0	0	0
082719	10:05:00	10:08:22	201357	5.0.10.0	5_exp_noRW	114	Rpleas_acq	CS_B	MQQM	JXXJ	VKKV	YDDY	GWWG	BZZB	fair	ehrlich	schön	retten	treu	spielen	faul	eitel	schlecht	rächen	tot	strafen	47pct	acq_USunple_CSunple1_noRW	acq1_noRW	1	64	0	0	300	300	440	46	0	1	1	blank2r.bmp	0	1	+	0	1	blank2r.bmp	252	1	VKKV	306	3	schlecht	559	0	0	0	0	0	0	0	0	0	0	0	0	0	0	0	0	0	0	0	0	0	0	0	0	0	0	0	0	0	0	0	0	0	0	0	0	0	0	0
082719	10:05:00	10:08:24	203010	5.0.10.0	5_exp_noRW	114	Rpleas_acq	CS_B	MQQM	JXXJ	VKKV	YDDY	GWWG	BZZB	fair	ehrlich	schön	retten	treu	spielen	faul	eitel	schlecht	rächen	tot	strafen	53pct	acq_USunple_CSunple1_noRW	acq1_noRW	1	65	0	0	300	300	484	46	0	1	1	blank2r.bmp	0	1	+	0	1	blank2r.bmp	252	1	VKKV	306	2	eitel	559	0	0	0	0	0	0	0	0	0	0	0	0	0	0	0	0	0	0	0	0	0	0	0	0	0	0	0	0	0	0	0	0	0	0	0	0	0	0	0
082719	10:05:00	10:08:26	204649	5.0.10.0	5_exp_noRW	114	Rpleas_acq	CS_B	MQQM	JXXJ	VKKV	YDDY	GWWG	BZZB	fair	ehrlich	schön	retten	treu	spielen	faul	eitel	schlecht	rächen	tot	strafen	47pct	acq_USpleas_CSpleas2_noRW	acq1_noRW	1	66	0	0	300	300	475	50	0	1	1	blank2r.bmp	0	1	+	0	1	blank2r.bmp	252	1	JXXJ	306	3	spielen	559	0	0	0	0	0	0	0	0	0	0	0	0	0	0	0	0	0	0	0	0	0	0	0	0	0	0	0	0	0	0	0	0	0	0	0	0	0	0	0
082719	10:05:00	10:08:27	206368	5.0.10.0	5_exp_noRW	114	Rpleas_acq	CS_B	MQQM	JXXJ	VKKV	YDDY	GWWG	BZZB	fair	ehrlich	schön	retten	treu	spielen	faul	eitel	schlecht	rächen	tot	strafen	53pct	acq_USpleas_CSpleas2_noRW	acq1_noRW	1	67	0	0	300	300	531	50	0	1	1	blank2r.bmp	0	1	+	0	1	blank2r.bmp	252	1	JXXJ	306	1	retten	559	0	0	0	0	0	0	0	0	0	0	0	0	0	0	0	0	0	0	0	0	0	0	0	0	0	0	0	0	0	0	0	0	0	0	0	0	0	0	0
082719	10:05:00	10:08:29	208114	5.0.10.0	5_exp_noRW	114	Rpleas_acq	CS_B	MQQM	JXXJ	VKKV	YDDY	GWWG	BZZB	fair	ehrlich	schön	retten	treu	spielen	faul	eitel	schlecht	rächen	tot	strafen	53pct	acq_USunple_CSunple2_noRW	acq1_noRW	1	68	0	0	300	300	579	46	0	1	1	blank2r.bmp	0	1	+	0	1	blank2r.bmp	252	1	YDDY	306	3	strafen	559	0	0	0	0	0	0	0	0	0	0	0	0	0	0	0	0	0	0	0	0	0	0	0	0	0	0	0	0	0	0	0	0	0	0	0	0	0	0	0
082719	10:05:00	10:08:31	209834	5.0.10.0	5_exp_noRW	114	Rpleas_acq	CS_B	MQQM	JXXJ	VKKV	YDDY	GWWG	BZZB	fair	ehrlich	schön	retten	treu	spielen	faul	eitel	schlecht	rächen	tot	strafen	53pct	acq_USpleas_CSpleas2_noRW	acq1_noRW	1	69	0	0	300	300	537	50	0	1	1	blank2r.bmp	0	1	+	0	1	blank2r.bmp	252	1	JXXJ	306	2	treu	559	0	0	0	0	0	0	0	0	0	0	0	0	0	0	0	0	0	0	0	0	0	0	0	0	0	0	0	0	0	0	0	0	0	0	0	0	0	0	0
082719	10:05:00	10:08:33	211566	5.0.10.0	5_exp_noRW	114	Rpleas_acq	CS_B	MQQM	JXXJ	VKKV	YDDY	GWWG	BZZB	fair	ehrlich	schön	retten	treu	spielen	faul	eitel	schlecht	rächen	tot	strafen	47pct	acq_USunple_CSpleas1_noRW	acq1_noRW	1	70	0	0	300	300	558	46	0	1	1	blank2r.bmp	0	1	+	0	1	blank2r.bmp	252	1	MQQM	306	2	eitel	559	0	0	0	0	0	0	0	0	0	0	0	0	0	0	0	0	0	0	0	0	0	0	0	0	0	0	0	0	0	0	0	0	0	0	0	0	0	0	0
082719	10:05:00	10:08:34	213472	5.0.10.0	5_exp_noRW	114	Rpleas_acq	CS_B	MQQM	JXXJ	VKKV	YDDY	GWWG	BZZB	fair	ehrlich	schön	retten	treu	spielen	faul	eitel	schlecht	rächen	tot	strafen	53pct	acq_USpleas_CSpleas1_noRW	acq1_noRW	1	71	0	0	300	300	722	50	0	1	1	blank2r.bmp	0	1	+	0	1	blank2r.bmp	252	1	MQQM	306	1	fair	559	0	0	0	0	0	0	0	0	0	0	0	0	0	0	0	0	0	0	0	0	0	0	0	0	0	0	0	0	0	0	0	0	0	0	0	0	0	0	0
082719	10:05:00	10:08:36	215165	5.0.10.0	5_exp_noRW	114	Rpleas_acq	CS_B	MQQM	JXXJ	VKKV	YDDY	GWWG	BZZB	fair	ehrlich	schön	retten	treu	spielen	faul	eitel	schlecht	rächen	tot	strafen	47pct	acq_USpleas_CSpleas2_noRW	acq1_noRW	1	72	0	0	300	300	520	50	0	1	1	blank2r.bmp	0	1	+	0	1	blank2r.bmp	252	1	JXXJ	306	3	spielen	559	0	0	0	0	0	0	0	0	0	0	0	0	0	0	0	0	0	0	0	0	0	0	0	0	0	0	0	0	0	0	0	0	0	0	0	0	0	0	0
082719	10:05:00	10:08:38	216871	5.0.10.0	5_exp_noRW	114	Rpleas_acq	CS_B	MQQM	JXXJ	VKKV	YDDY	GWWG	BZZB	fair	ehrlich	schön	retten	treu	spielen	faul	eitel	schlecht	rächen	tot	strafen	53pct	acq_USunple_CSunple1_noRW	acq1_noRW	1	73	0	0	300	300	537	46	0	1	1	blank2r.bmp	0	1	+	0	1	blank2r.bmp	252	1	VKKV	306	1	faul	559	0	0	0	0	0	0	0	0	0	0	0	0	0	0	0	0	0	0	0	0	0	0	0	0	0	0	0	0	0	0	0	0	0	0	0	0	0	0	0
082719	10:05:00	10:08:40	218670	5.0.10.0	5_exp_noRW	114	Rpleas_acq	CS_B	MQQM	JXXJ	VKKV	YDDY	GWWG	BZZB	fair	ehrlich	schön	retten	treu	spielen	faul	eitel	schlecht	rächen	tot	strafen	47pct	acq_USpleas_CSpleas1_noRW	acq1_noRW	1	74	0	0	300	300	612	50	0	1	1	blank2r.bmp	0	1	+	0	1	blank2r.bmp	252	1	MQQM	306	3	schön	559	0	0	0	0	0	0	0	0	0	0	0	0	0	0	0	0	0	0	0	0	0	0	0	0	0	0	0	0	0	0	0	0	0	0	0	0	0	0	0
082719	10:05:00	10:08:42	220629	5.0.10.0	5_exp_noRW	114	Rpleas_acq	CS_B	MQQM	JXXJ	VKKV	YDDY	GWWG	BZZB	fair	ehrlich	schön	retten	treu	spielen	faul	eitel	schlecht	rächen	tot	strafen	53pct	acq_USpleas_CSunple1_noRW	acq1_noRW	1	75	0	0	300	300	786	50	0	1	1	blank2r.bmp	0	1	+	0	1	blank2r.bmp	252	1	VKKV	306	1	fair	559	0	0	0	0	0	0	0	0	0	0	0	0	0	0	0	0	0	0	0	0	0	0	0	0	0	0	0	0	0	0	0	0	0	0	0	0	0	0	0
082719	10:05:00	10:08:43	222322	5.0.10.0	5_exp_noRW	114	Rpleas_acq	CS_B	MQQM	JXXJ	VKKV	YDDY	GWWG	BZZB	fair	ehrlich	schön	retten	treu	spielen	faul	eitel	schlecht	rächen	tot	strafen	53pct	acq_USunple_CSunple1_noRW	acq1_noRW	1	76	0	0	300	300	511	46	0	1	1	blank2r.bmp	0	1	+	0	1	blank2r.bmp	252	1	VKKV	306	2	eitel	559	0	0	0	0	0	0	0	0	0	0	0	0	0	0	0	0	0	0	0	0	0	0	0	0	0	0	0	0	0	0	0	0	0	0	0	0	0	0	0
082719	10:05:00	10:08:45	224134	5.0.10.0	5_exp_noRW	114	Rpleas_acq	CS_B	MQQM	JXXJ	VKKV	YDDY	GWWG	BZZB	fair	ehrlich	schön	retten	treu	spielen	faul	eitel	schlecht	rächen	tot	strafen	47pct	acq_USunple_CSunple2_noRW	acq1_noRW	1	77	0	0	300	300	651	46	0	1	1	blank2r.bmp	0	1	+	0	1	blank2r.bmp	252	1	YDDY	306	1	rächen	559	0	0	0	0	0	0	0	0	0	0	0	0	0	0	0	0	0	0	0	0	0	0	0	0	0	0	0	0	0	0	0	0	0	0	0	0	0	0	0
082719	10:05:00	10:08:47	225960	5.0.10.0	5_exp_noRW	114	Rpleas_acq	CS_B	MQQM	JXXJ	VKKV	YDDY	GWWG	BZZB	fair	ehrlich	schön	retten	treu	spielen	faul	eitel	schlecht	rächen	tot	strafen	47pct	acq_USpleas_CSpleas1_noRW	acq1_noRW	1	78	0	0	300	300	640	50	0	1	1	blank2r.bmp	0	1	+	0	1	blank2r.bmp	252	1	MQQM	306	2	ehrlich	559	0	0	0	0	0	0	0	0	0	0	0	0	0	0	0	0	0	0	0	0	0	0	0	0	0	0	0	0	0	0	0	0	0	0	0	0	0	0	0
082719	10:05:00	10:08:49	228279	5.0.10.0	5_exp_noRW	114	Rpleas_acq	CS_B	MQQM	JXXJ	VKKV	YDDY	GWWG	BZZB	fair	ehrlich	schön	retten	treu	spielen	faul	eitel	schlecht	rächen	tot	strafen	47pct	acq_USunple_CSunple2_noRW	acq1_noRW	1	79	0	0	300	300	1149	46	0	1	1	blank2r.bmp	0	1	+	0	1	blank2r.bmp	252	1	YDDY	306	1	rächen	559	0	0	0	0	0	0	0	0	0	0	0	0	0	0	0	0	0	0	0	0	0	0	0	0	0	0	0	0	0	0	0	0	0	0	0	0	0	0	0
082719	10:05:00	10:08:51	229985	5.0.10.0	5_exp_noRW	114	Rpleas_acq	CS_B	MQQM	JXXJ	VKKV	YDDY	GWWG	BZZB	fair	ehrlich	schön	retten	treu	spielen	faul	eitel	schlecht	rächen	tot	strafen	53pct	acq_USpleas_CSpleas1_noRW	acq1_noRW	1	80	0	0	300	300	541	50	0	1	1	blank2r.bmp	0	1	+	0	1	blank2r.bmp	252	1	MQQM	306	3	schön	559	0	0	0	0	0	0	0	0	0	0	0	0	0	0	0	0	0	0	0	0	0	0	0	0	0	0	0	0	0	0	0	0	0	0	0	0	0	0	0
082719	10:05:00	10:09:05	244393	5.0.10.0	5_exp_noRW	114	Rpleas_acq	CS_B	MQQM	JXXJ	VKKV	YDDY	GWWG	BZZB	fair	ehrlich	schön	retten	treu	spielen	faul	eitel	schlecht	rächen	tot	strafen	53pct	acq_USpleas_CSpleas2_noRW	acq23456_noRW	2	1	0	0	300	300	1147	50	0	1	1	blank2r.bmp	0	1	+	0	1	blank2r.bmp	252	1	JXXJ	306	2	treu	559	0	0	0	0	0	0	0	0	0	0	0	0	0	0	0	0	0	0	0	0	0	0	0	0	0	0	0	0	0	0	0	0	0	0	0	0	0	0	0
082719	10:05:00	10:09:07	246072	5.0.10.0	5_exp_noRW	114	Rpleas_acq	CS_B	MQQM	JXXJ	VKKV	YDDY	GWWG	BZZB	fair	ehrlich	schön	retten	treu	spielen	faul	eitel	schlecht	rächen	tot	strafen	47pct	acq_USpleas_CSpleas1_noRW	acq23456_noRW	2	2	0	0	300	300	515	50	0	1	1	blank2r.bmp	0	1	+	0	1	blank2r.bmp	252	1	MQQM	306	1	fair	559	0	0	0	0	0	0	0	0	0	0	0	0	0	0	0	0	0	0	0	0	0	0	0	0	0	0	0	0	0	0	0	0	0	0	0	0	0	0	0
082719	10:05:00	10:09:09	247685	5.0.10.0	5_exp_noRW	114	Rpleas_acq	CS_B	MQQM	JXXJ	VKKV	YDDY	GWWG	BZZB	fair	ehrlich	schön	retten	treu	spielen	faul	eitel	schlecht	rächen	tot	strafen	53pct	acq_USunple_CSunple2_noRW	acq23456_noRW	2	3	0	0	300	300	432	46	0	1	1	blank2r.bmp	0	1	+	0	1	blank2r.bmp	252	1	YDDY	306	3	strafen	559	0	0	0	0	0	0	0	0	0	0	0	0	0	0	0	0	0	0	0	0	0	0	0	0	0	0	0	0	0	0	0	0	0	0	0	0	0	0	0
082719	10:05:00	10:09:10	249444	5.0.10.0	5_exp_noRW	114	Rpleas_acq	CS_B	MQQM	JXXJ	VKKV	YDDY	GWWG	BZZB	fair	ehrlich	schön	retten	treu	spielen	faul	eitel	schlecht	rächen	tot	strafen	53pct	acq_USpleas_CSunple2_noRW	acq23456_noRW	2	4	0	0	300	300	588	50	0	1	1	blank2r.bmp	0	1	+	0	1	blank2r.bmp	252	1	YDDY	306	2	treu	559	0	0	0	0	0	0	0	0	0	0	0	0	0	0	0	0	0	0	0	0	0	0	0	0	0	0	0	0	0	0	0	0	0	0	0	0	0	0	0
082719	10:05:00	10:09:12	251137	5.0.10.0	5_exp_noRW	114	Rpleas_acq	CS_B	MQQM	JXXJ	VKKV	YDDY	GWWG	BZZB	fair	ehrlich	schön	retten	treu	spielen	faul	eitel	schlecht	rächen	tot	strafen	47pct	acq_USpleas_CSpleas1_noRW	acq23456_noRW	2	5	0	0	300	300	530	50	0	1	1	blank2r.bmp	0	1	+	0	1	blank2r.bmp	252	1	MQQM	306	2	ehrlich	559	0	0	0	0	0	0	0	0	0	0	0	0	0	0	0	0	0	0	0	0	0	0	0	0	0	0	0	0	0	0	0	0	0	0	0	0	0	0	0
082719	10:05:00	10:09:14	252949	5.0.10.0	5_exp_noRW	114	Rpleas_acq	CS_B	MQQM	JXXJ	VKKV	YDDY	GWWG	BZZB	fair	ehrlich	schön	retten	treu	spielen	faul	eitel	schlecht	rächen	tot	strafen	53pct	acq_USunple_CSpleas1_noRW	acq23456_noRW	2	6	0	0	300	300	632	46	0	1	1	blank2r.bmp	0	1	+	0	1	blank2r.bmp	252	1	MQQM	306	3	schlecht	559	0	0	0	0	0	0	0	0	0	0	0	0	0	0	0	0	0	0	0	0	0	0	0	0	0	0	0	0	0	0	0	0	0	0	0	0	0	0	0
082719	10:05:00	10:09:16	254802	5.0.10.0	5_exp_noRW	114	Rpleas_acq	CS_B	MQQM	JXXJ	VKKV	YDDY	GWWG	BZZB	fair	ehrlich	schön	retten	treu	spielen	faul	eitel	schlecht	rächen	tot	strafen	53pct	acq_USpleas_CSpleas2_noRW	acq23456_noRW	2	7	0	0	300	300	670	50	0	1	1	blank2r.bmp	0	1	+	0	1	blank2r.bmp	252	1	JXXJ	306	1	retten	559	0	0	0	0	0	0	0	0	0	0	0	0	0	0	0	0	0	0	0	0	0	0	0	0	0	0	0	0	0	0	0	0	0	0	0	0	0	0	0
082719	10:05:00	10:09:17	256521	5.0.10.0	5_exp_noRW	114	Rpleas_acq	CS_B	MQQM	JXXJ	VKKV	YDDY	GWWG	BZZB	fair	ehrlich	schön	retten	treu	spielen	faul	eitel	schlecht	rächen	tot	strafen	53pct	acq_USpleas_CSpleas1_noRW	acq23456_noRW	2	8	0	0	300	300	552	50	0	1	1	blank2r.bmp	0	1	+	0	1	blank2r.bmp	252	1	MQQM	306	1	fair	559	0	0	0	0	0	0	0	0	0	0	0	0	0	0	0	0	0	0	0	0	0	0	0	0	0	0	0	0	0	0	0	0	0	0	0	0	0	0	0
082719	10:05:00	10:09:19	258267	5.0.10.0	5_exp_noRW	114	Rpleas_acq	CS_B	MQQM	JXXJ	VKKV	YDDY	GWWG	BZZB	fair	ehrlich	schön	retten	treu	spielen	faul	eitel	schlecht	rächen	tot	strafen	47pct	acq_USunple_CSunple2_noRW	acq23456_noRW	2	9	0	0	300	300	566	46	0	1	1	blank2r.bmp	0	1	+	0	1	blank2r.bmp	252	1	YDDY	306	2	tot	559	0	0	0	0	0	0	0	0	0	0	0	0	0	0	0	0	0	0	0	0	0	0	0	0	0	0	0	0	0	0	0	0	0	0	0	0	0	0	0
082719	10:05:00	10:09:21	259960	5.0.10.0	5_exp_noRW	114	Rpleas_acq	CS_B	MQQM	JXXJ	VKKV	YDDY	GWWG	BZZB	fair	ehrlich	schön	retten	treu	spielen	faul	eitel	schlecht	rächen	tot	strafen	53pct	acq_USunple_CSpleas2_noRW	acq23456_noRW	2	10	0	0	300	300	514	46	0	1	1	blank2r.bmp	0	1	+	0	1	blank2r.bmp	252	1	JXXJ	306	1	rächen	559	0	0	0	0	0	0	0	0	0	0	0	0	0	0	0	0	0	0	0	0	0	0	0	0	0	0	0	0	0	0	0	0	0	0	0	0	0	0	0
082719	10:05:00	10:09:23	261839	5.0.10.0	5_exp_noRW	114	Rpleas_acq	CS_B	MQQM	JXXJ	VKKV	YDDY	GWWG	BZZB	fair	ehrlich	schön	retten	treu	spielen	faul	eitel	schlecht	rächen	tot	strafen	53pct	acq_USunple_CSunple1_noRW	acq23456_noRW	2	11	0	0	300	300	713	46	0	1	1	blank2r.bmp	0	1	+	0	1	blank2r.bmp	252	1	VKKV	306	1	faul	559	0	0	0	0	0	0	0	0	0	0	0	0	0	0	0	0	0	0	0	0	0	0	0	0	0	0	0	0	0	0	0	0	0	0	0	0	0	0	0
082719	10:05:00	10:09:24	263545	5.0.10.0	5_exp_noRW	114	Rpleas_acq	CS_B	MQQM	JXXJ	VKKV	YDDY	GWWG	BZZB	fair	ehrlich	schön	retten	treu	spielen	faul	eitel	schlecht	rächen	tot	strafen	53pct	acq_USpleas_CSpleas1_noRW	acq23456_noRW	2	12	0	0	300	300	527	50	0	1	1	blank2r.bmp	0	1	+	0	1	blank2r.bmp	252	1	MQQM	306	2	ehrlich	559	0	0	0	0	0	0	0	0	0	0	0	0	0	0	0	0	0	0	0	0	0	0	0	0	0	0	0	0	0	0	0	0	0	0	0	0	0	0	0
082719	10:05:00	10:09:26	265304	5.0.10.0	5_exp_noRW	114	Rpleas_acq	CS_B	MQQM	JXXJ	VKKV	YDDY	GWWG	BZZB	fair	ehrlich	schön	retten	treu	spielen	faul	eitel	schlecht	rächen	tot	strafen	47pct	acq_USpleas_CSunple1_noRW	acq23456_noRW	2	13	0	0	300	300	579	50	0	1	1	blank2r.bmp	0	1	+	0	1	blank2r.bmp	252	1	VKKV	306	3	schön	559	0	0	0	0	0	0	0	0	0	0	0	0	0	0	0	0	0	0	0	0	0	0	0	0	0	0	0	0	0	0	0	0	0	0	0	0	0	0	0
082719	10:05:00	10:09:28	267543	5.0.10.0	5_exp_noRW	114	Rpleas_acq	CS_B	MQQM	JXXJ	VKKV	YDDY	GWWG	BZZB	fair	ehrlich	schön	retten	treu	spielen	faul	eitel	schlecht	rächen	tot	strafen	47pct	acq_USunple_CSunple1_noRW	acq23456_noRW	2	14	0	0	300	300	1064	46	0	1	1	blank2r.bmp	0	1	+	0	1	blank2r.bmp	252	1	VKKV	306	3	schlecht	559	0	0	0	0	0	0	0	0	0	0	0	0	0	0	0	0	0	0	0	0	0	0	0	0	0	0	0	0	0	0	0	0	0	0	0	0	0	0	0
082719	10:05:00	10:09:30	269369	5.0.10.0	5_exp_noRW	114	Rpleas_acq	CS_B	MQQM	JXXJ	VKKV	YDDY	GWWG	BZZB	fair	ehrlich	schön	retten	treu	spielen	faul	eitel	schlecht	rächen	tot	strafen	47pct	acq_USunple_CSunple1_noRW	acq23456_noRW	2	15	0	0	300	300	650	46	0	1	1	blank2r.bmp	0	1	+	0	1	blank2r.bmp	252	1	VKKV	306	1	faul	559	0	0	0	0	0	0	0	0	0	0	0	0	0	0	0	0	0	0	0	0	0	0	0	0	0	0	0	0	0	0	0	0	0	0	0	0	0	0	0
082719	10:05:00	10:09:32	271102	5.0.10.0	5_exp_noRW	114	Rpleas_acq	CS_B	MQQM	JXXJ	VKKV	YDDY	GWWG	BZZB	fair	ehrlich	schön	retten	treu	spielen	faul	eitel	schlecht	rächen	tot	strafen	53pct	acq_USunple_CSunple1_noRW	acq23456_noRW	2	16	0	0	300	300	555	46	0	1	1	blank2r.bmp	0	1	+	0	1	blank2r.bmp	252	1	VKKV	306	3	schlecht	559	0	0	0	0	0	0	0	0	0	0	0	0	0	0	0	0	0	0	0	0	0	0	0	0	0	0	0	0	0	0	0	0	0	0	0	0	0	0	0
082719	10:05:00	10:09:34	272715	5.0.10.0	5_exp_noRW	114	Rpleas_acq	CS_B	MQQM	JXXJ	VKKV	YDDY	GWWG	BZZB	fair	ehrlich	schön	retten	treu	spielen	faul	eitel	schlecht	rächen	tot	strafen	53pct	acq_USunple_CSunple2_noRW	acq23456_noRW	2	17	0	0	300	300	432	46	0	1	1	blank2r.bmp	0	1	+	0	1	blank2r.bmp	252	1	YDDY	306	3	strafen	559	0	0	0	0	0	0	0	0	0	0	0	0	0	0	0	0	0	0	0	0	0	0	0	0	0	0	0	0	0	0	0	0	0	0	0	0	0	0	0
082719	10:05:00	10:09:35	274474	5.0.10.0	5_exp_noRW	114	Rpleas_acq	CS_B	MQQM	JXXJ	VKKV	YDDY	GWWG	BZZB	fair	ehrlich	schön	retten	treu	spielen	faul	eitel	schlecht	rächen	tot	strafen	47pct	acq_USunple_CSunple2_noRW	acq23456_noRW	2	18	0	0	300	300	581	46	0	1	1	blank2r.bmp	0	1	+	0	1	blank2r.bmp	252	1	YDDY	306	1	rächen	559	0	0	0	0	0	0	0	0	0	0	0	0	0	0	0	0	0	0	0	0	0	0	0	0	0	0	0	0	0	0	0	0	0	0	0	0	0	0	0
082719	10:05:00	10:09:37	276300	5.0.10.0	5_exp_noRW	114	Rpleas_acq	CS_B	MQQM	JXXJ	VKKV	YDDY	GWWG	BZZB	fair	ehrlich	schön	retten	treu	spielen	faul	eitel	schlecht	rächen	tot	strafen	47pct	acq_USpleas_CSpleas2_noRW	acq23456_noRW	2	19	0	0	300	300	649	50	0	1	1	blank2r.bmp	0	1	+	0	1	blank2r.bmp	252	1	JXXJ	306	1	retten	559	0	0	0	0	0	0	0	0	0	0	0	0	0	0	0	0	0	0	0	0	0	0	0	0	0	0	0	0	0	0	0	0	0	0	0	0	0	0	0
082719	10:05:00	10:09:39	278406	5.0.10.0	5_exp_noRW	114	Rpleas_acq	CS_B	MQQM	JXXJ	VKKV	YDDY	GWWG	BZZB	fair	ehrlich	schön	retten	treu	spielen	faul	eitel	schlecht	rächen	tot	strafen	47pct	acq_USpleas_CSpleas2_noRW	acq23456_noRW	2	20	0	0	300	300	931	50	0	1	1	blank2r.bmp	0	1	+	0	1	blank2r.bmp	252	1	JXXJ	306	2	treu	559	0	0	0	0	0	0	0	0	0	0	0	0	0	0	0	0	0	0	0	0	0	0	0	0	0	0	0	0	0	0	0	0	0	0	0	0	0	0	0
082719	10:05:00	10:09:41	280138	5.0.10.0	5_exp_noRW	114	Rpleas_acq	CS_B	MQQM	JXXJ	VKKV	YDDY	GWWG	BZZB	fair	ehrlich	schön	retten	treu	spielen	faul	eitel	schlecht	rächen	tot	strafen	47pct	acq_USpleas_CSpleas2_noRW	acq23456_noRW	2	21	0	0	300	300	552	50	0	1	1	blank2r.bmp	0	1	+	0	1	blank2r.bmp	252	1	JXXJ	306	3	spielen	559	0	0	0	0	0	0	0	0	0	0	0	0	0	0	0	0	0	0	0	0	0	0	0	0	0	0	0	0	0	0	0	0	0	0	0	0	0	0	0
082719	10:05:00	10:09:43	281737	5.0.10.0	5_exp_noRW	114	Rpleas_acq	CS_B	MQQM	JXXJ	VKKV	YDDY	GWWG	BZZB	fair	ehrlich	schön	retten	treu	spielen	faul	eitel	schlecht	rächen	tot	strafen	53pct	acq_USunple_CSunple2_noRW	acq23456_noRW	2	22	0	0	300	300	415	46	0	1	1	blank2r.bmp	0	1	+	0	1	blank2r.bmp	252	1	YDDY	306	2	tot	559	0	0	0	0	0	0	0	0	0	0	0	0	0	0	0	0	0	0	0	0	0	0	0	0	0	0	0	0	0	0	0	0	0	0	0	0	0	0	0
082719	10:05:00	10:09:45	283603	5.0.10.0	5_exp_noRW	114	Rpleas_acq	CS_B	MQQM	JXXJ	VKKV	YDDY	GWWG	BZZB	fair	ehrlich	schön	retten	treu	spielen	faul	eitel	schlecht	rächen	tot	strafen	53pct	acq_USunple_CSunple2_noRW	acq23456_noRW	2	23	0	0	300	300	701	46	0	1	1	blank2r.bmp	0	1	+	0	1	blank2r.bmp	252	1	YDDY	306	1	rächen	559	0	0	0	0	0	0	0	0	0	0	0	0	0	0	0	0	0	0	0	0	0	0	0	0	0	0	0	0	0	0	0	0	0	0	0	0	0	0	0
082719	10:05:00	10:09:46	285323	5.0.10.0	5_exp_noRW	114	Rpleas_acq	CS_B	MQQM	JXXJ	VKKV	YDDY	GWWG	BZZB	fair	ehrlich	schön	retten	treu	spielen	faul	eitel	schlecht	rächen	tot	strafen	47pct	acq_USunple_CSunple1_noRW	acq23456_noRW	2	24	0	0	300	300	536	46	0	1	1	blank2r.bmp	0	1	+	0	1	blank2r.bmp	252	1	VKKV	306	2	eitel	559	0	0	0	0	0	0	0	0	0	0	0	0	0	0	0	0	0	0	0	0	0	0	0	0	0	0	0	0	0	0	0	0	0	0	0	0	0	0	0
082719	10:05:00	10:09:48	287495	5.0.10.0	5_exp_noRW	114	Rpleas_acq	CS_B	MQQM	JXXJ	VKKV	YDDY	GWWG	BZZB	fair	ehrlich	schön	retten	treu	spielen	faul	eitel	schlecht	rächen	tot	strafen	53pct	acq_USpleas_CSpleas2_noRW	acq23456_noRW	2	25	0	0	300	300	991	50	0	1	1	blank2r.bmp	0	1	+	0	1	blank2r.bmp	252	1	JXXJ	306	1	retten	559	0	0	0	0	0	0	0	0	0	0	0	0	0	0	0	0	0	0	0	0	0	0	0	0	0	0	0	0	0	0	0	0	0	0	0	0	0	0	0
082719	10:05:00	10:09:50	289534	5.0.10.0	5_exp_noRW	114	Rpleas_acq	CS_B	MQQM	JXXJ	VKKV	YDDY	GWWG	BZZB	fair	ehrlich	schön	retten	treu	spielen	faul	eitel	schlecht	rächen	tot	strafen	47pct	acq_USunple_CSunple2_noRW	acq23456_noRW	2	26	0	0	300	300	867	46	0	1	1	blank2r.bmp	0	1	+	0	1	blank2r.bmp	252	1	YDDY	306	3	strafen	559	0	0	0	0	0	0	0	0	0	0	0	0	0	0	0	0	0	0	0	0	0	0	0	0	0	0	0	0	0	0	0	0	0	0	0	0	0	0	0
082719	10:05:00	10:09:52	291267	5.0.10.0	5_exp_noRW	114	Rpleas_acq	CS_B	MQQM	JXXJ	VKKV	YDDY	GWWG	BZZB	fair	ehrlich	schön	retten	treu	spielen	faul	eitel	schlecht	rächen	tot	strafen	47pct	acq_USpleas_CSunple1_noRW	acq23456_noRW	2	27	0	0	300	300	557	50	0	1	1	blank2r.bmp	0	1	+	0	1	blank2r.bmp	252	1	VKKV	306	2	ehrlich	559	0	0	0	0	0	0	0	0	0	0	0	0	0	0	0	0	0	0	0	0	0	0	0	0	0	0	0	0	0	0	0	0	0	0	0	0	0	0	0
082719	10:05:00	10:09:54	292960	5.0.10.0	5_exp_noRW	114	Rpleas_acq	CS_B	MQQM	JXXJ	VKKV	YDDY	GWWG	BZZB	fair	ehrlich	schön	retten	treu	spielen	faul	eitel	schlecht	rächen	tot	strafen	53pct	acq_USpleas_CSpleas1_noRW	acq23456_noRW	2	28	0	0	300	300	515	50	0	1	1	blank2r.bmp	0	1	+	0	1	blank2r.bmp	252	1	MQQM	306	3	schön	559	0	0	0	0	0	0	0	0	0	0	0	0	0	0	0	0	0	0	0	0	0	0	0	0	0	0	0	0	0	0	0	0	0	0	0	0	0	0	0
082719	10:05:00	10:09:56	294599	5.0.10.0	5_exp_noRW	114	Rpleas_acq	CS_B	MQQM	JXXJ	VKKV	YDDY	GWWG	BZZB	fair	ehrlich	schön	retten	treu	spielen	faul	eitel	schlecht	rächen	tot	strafen	47pct	acq_USpleas_CSpleas1_noRW	acq23456_noRW	2	29	0	0	300	300	453	50	0	1	1	blank2r.bmp	0	1	+	0	1	blank2r.bmp	252	1	MQQM	306	3	schön	559	0	0	0	0	0	0	0	0	0	0	0	0	0	0	0	0	0	0	0	0	0	0	0	0	0	0	0	0	0	0	0	0	0	0	0	0	0	0	0
082719	10:05:00	10:09:57	296145	5.0.10.0	5_exp_noRW	114	Rpleas_acq	CS_B	MQQM	JXXJ	VKKV	YDDY	GWWG	BZZB	fair	ehrlich	schön	retten	treu	spielen	faul	eitel	schlecht	rächen	tot	strafen	47pct	acq_USunple_CSunple2_noRW	acq23456_noRW	2	30	0	0	300	300	381	46	0	1	1	blank2r.bmp	0	1	+	0	1	blank2r.bmp	252	1	YDDY	306	2	tot	559	0	0	0	0	0	0	0	0	0	0	0	0	0	0	0	0	0	0	0	0	0	0	0	0	0	0	0	0	0	0	0	0	0	0	0	0	0	0	0
082719	10:05:00	10:09:59	298091	5.0.10.0	5_exp_noRW	114	Rpleas_acq	CS_B	MQQM	JXXJ	VKKV	YDDY	GWWG	BZZB	fair	ehrlich	schön	retten	treu	spielen	faul	eitel	schlecht	rächen	tot	strafen	53pct	acq_USpleas_CSpleas2_noRW	acq23456_noRW	2	31	0	0	300	300	766	50	0	1	1	blank2r.bmp	0	1	+	0	1	blank2r.bmp	252	1	JXXJ	306	3	spielen	559	0	0	0	0	0	0	0	0	0	0	0	0	0	0	0	0	0	0	0	0	0	0	0	0	0	0	0	0	0	0	0	0	0	0	0	0	0	0	0
082719	10:05:00	10:10:01	299863	5.0.10.0	5_exp_noRW	114	Rpleas_acq	CS_B	MQQM	JXXJ	VKKV	YDDY	GWWG	BZZB	fair	ehrlich	schön	retten	treu	spielen	faul	eitel	schlecht	rächen	tot	strafen	47pct	acq_USunple_CSunple1_noRW	acq23456_noRW	2	32	0	0	300	300	585	46	0	1	1	blank2r.bmp	0	1	+	0	1	blank2r.bmp	252	1	VKKV	306	3	schlecht	559	0	0	0	0	0	0	0	0	0	0	0	0	0	0	0	0	0	0	0	0	0	0	0	0	0	0	0	0	0	0	0	0	0	0	0	0	0	0	0
082719	10:05:00	10:10:03	301876	5.0.10.0	5_exp_noRW	114	Rpleas_acq	CS_B	MQQM	JXXJ	VKKV	YDDY	GWWG	BZZB	fair	ehrlich	schön	retten	treu	spielen	faul	eitel	schlecht	rächen	tot	strafen	53pct	acq_USpleas_CSpleas1_noRW	acq23456_noRW	2	33	0	0	300	300	845	50	0	1	1	blank2r.bmp	0	1	+	0	1	blank2r.bmp	252	1	MQQM	306	2	ehrlich	559	0	0	0	0	0	0	0	0	0	0	0	0	0	0	0	0	0	0	0	0	0	0	0	0	0	0	0	0	0	0	0	0	0	0	0	0	0	0	0
082719	10:05:00	10:10:05	304435	5.0.10.0	5_exp_noRW	114	Rpleas_acq	CS_B	MQQM	JXXJ	VKKV	YDDY	GWWG	BZZB	fair	ehrlich	schön	retten	treu	spielen	faul	eitel	schlecht	rächen	tot	strafen	47pct	acq_USunple_CSpleas1_noRW	acq23456_noRW	2	34	0	0	300	300	1390	46	0	1	1	blank2r.bmp	0	1	+	0	1	blank2r.bmp	252	1	MQQM	306	1	faul	559	0	0	0	0	0	0	0	0	0	0	0	0	0	0	0	0	0	0	0	0	0	0	0	0	0	0	0	0	0	0	0	0	0	0	0	0	0	0	0
082719	10:05:00	10:10:07	306154	5.0.10.0	5_exp_noRW	114	Rpleas_acq	CS_B	MQQM	JXXJ	VKKV	YDDY	GWWG	BZZB	fair	ehrlich	schön	retten	treu	spielen	faul	eitel	schlecht	rächen	tot	strafen	47pct	acq_USpleas_CSunple2_noRW	acq23456_noRW	2	35	0	0	300	300	557	50	0	1	1	blank2r.bmp	0	1	+	0	1	blank2r.bmp	252	1	YDDY	306	3	spielen	559	0	0	0	0	0	0	0	0	0	0	0	0	0	0	0	0	0	0	0	0	0	0	0	0	0	0	0	0	0	0	0	0	0	0	0	0	0	0	0
082719	10:05:00	10:10:09	307793	5.0.10.0	5_exp_noRW	114	Rpleas_acq	CS_B	MQQM	JXXJ	VKKV	YDDY	GWWG	BZZB	fair	ehrlich	schön	retten	treu	spielen	faul	eitel	schlecht	rächen	tot	strafen	47pct	acq_USunple_CSunple1_noRW	acq23456_noRW	2	36	0	0	300	300	453	46	0	1	1	blank2r.bmp	0	1	+	0	1	blank2r.bmp	252	1	VKKV	306	1	faul	559	0	0	0	0	0	0	0	0	0	0	0	0	0	0	0	0	0	0	0	0	0	0	0	0	0	0	0	0	0	0	0	0	0	0	0	0	0	0	0
082719	10:05:00	10:10:10	309406	5.0.10.0	5_exp_noRW	114	Rpleas_acq	CS_B	MQQM	JXXJ	VKKV	YDDY	GWWG	BZZB	fair	ehrlich	schön	retten	treu	spielen	faul	eitel	schlecht	rächen	tot	strafen	47pct	acq_USunple_CSpleas2_noRW	acq23456_noRW	2	37	0	0	300	300	449	46	0	1	1	blank2r.bmp	0	1	+	0	1	blank2r.bmp	252	1	JXXJ	306	2	tot	559	0	0	0	0	0	0	0	0	0	0	0	0	0	0	0	0	0	0	0	0	0	0	0	0	0	0	0	0	0	0	0	0	0	0	0	0	0	0	0
082719	10:05:00	10:10:12	311165	5.0.10.0	5_exp_noRW	114	Rpleas_acq	CS_B	MQQM	JXXJ	VKKV	YDDY	GWWG	BZZB	fair	ehrlich	schön	retten	treu	spielen	faul	eitel	schlecht	rächen	tot	strafen	47pct	acq_USunple_CSunple1_noRW	acq23456_noRW	2	38	0	0	300	300	576	46	0	1	1	blank2r.bmp	0	1	+	0	1	blank2r.bmp	252	1	VKKV	306	2	eitel	559	0	0	0	0	0	0	0	0	0	0	0	0	0	0	0	0	0	0	0	0	0	0	0	0	0	0	0	0	0	0	0	0	0	0	0	0	0	0	0
082719	10:05:00	10:10:14	312991	5.0.10.0	5_exp_noRW	114	Rpleas_acq	CS_B	MQQM	JXXJ	VKKV	YDDY	GWWG	BZZB	fair	ehrlich	schön	retten	treu	spielen	faul	eitel	schlecht	rächen	tot	strafen	47pct	acq_USpleas_CSpleas2_noRW	acq23456_noRW	2	39	0	0	300	300	660	50	0	1	1	blank2r.bmp	0	1	+	0	1	blank2r.bmp	252	1	JXXJ	306	2	treu	559	0	0	0	0	0	0	0	0	0	0	0	0	0	0	0	0	0	0	0	0	0	0	0	0	0	0	0	0	0	0	0	0	0	0	0	0	0	0	0
082719	10:05:00	10:10:16	314711	5.0.10.0	5_exp_noRW	114	Rpleas_acq	CS_B	MQQM	JXXJ	VKKV	YDDY	GWWG	BZZB	fair	ehrlich	schön	retten	treu	spielen	faul	eitel	schlecht	rächen	tot	strafen	47pct	acq_USpleas_CSpleas1_noRW	acq23456_noRW	2	40	0	0	300	300	539	50	0	1	1	blank2r.bmp	0	1	+	0	1	blank2r.bmp	252	1	MQQM	306	1	fair	559	0	0	0	0	0	0	0	0	0	0	0	0	0	0	0	0	0	0	0	0	0	0	0	0	0	0	0	0	0	0	0	0	0	0	0	0	0	0	0
082719	10:05:00	10:10:17	316283	5.0.10.0	5_exp_noRW	114	Rpleas_acq	CS_B	MQQM	JXXJ	VKKV	YDDY	GWWG	BZZB	fair	ehrlich	schön	retten	treu	spielen	faul	eitel	schlecht	rächen	tot	strafen	47pct	acq_USpleas_CSunple2_noRW	acq23456_noRW	2	41	0	0	300	300	391	50	0	1	1	blank2r.bmp	0	1	+	0	1	blank2r.bmp	252	1	YDDY	306	2	treu	559	0	0	0	0	0	0	0	0	0	0	0	0	0	0	0	0	0	0	0	0	0	0	0	0	0	0	0	0	0	0	0	0	0	0	0	0	0	0	0
082719	10:05:00	10:10:19	318149	5.0.10.0	5_exp_noRW	114	Rpleas_acq	CS_B	MQQM	JXXJ	VKKV	YDDY	GWWG	BZZB	fair	ehrlich	schön	retten	treu	spielen	faul	eitel	schlecht	rächen	tot	strafen	53pct	acq_USpleas_CSpleas2_noRW	acq23456_noRW	2	42	0	0	300	300	467	46	0	0	1	blank2r.bmp	0	1	+	0	1	blank2r.bmp	252	1	JXXJ	306	1	retten	559	1	FEHLER	1066	0	0	0	0	0	0	0	0	0	0	0	0	0	0	0	0	0	0	0	0	0	0	0	0	0	0	0	0	0	0	0	0	0	0	0	0
082719	10:05:00	10:10:20	319535	5.0.10.0	5_exp_noRW	114	Rpleas_acq	CS_B	MQQM	JXXJ	VKKV	YDDY	GWWG	BZZB	fair	ehrlich	schön	retten	treu	spielen	faul	eitel	schlecht	rächen	tot	strafen	47pct	acq_USunple_CSunple1_noRW	acq23456_noRW	2	43	0	0	300	300	430	46	0	1	1	blank2r.bmp	0	1	+	0	1	blank2r.bmp	252	1	VKKV	306	1	faul	559	0	0	0	0	0	0	0	0	0	0	0	0	0	0	0	0	0	0	0	0	0	0	0	0	0	0	0	0	0	0	0	0	0	0	0	0	0	0	0
082719	10:05:00	10:10:22	321148	5.0.10.0	5_exp_noRW	114	Rpleas_acq	CS_B	MQQM	JXXJ	VKKV	YDDY	GWWG	BZZB	fair	ehrlich	schön	retten	treu	spielen	faul	eitel	schlecht	rächen	tot	strafen	53pct	acq_USunple_CSunple2_noRW	acq23456_noRW	2	44	0	0	300	300	445	46	0	1	1	blank2r.bmp	0	1	+	0	1	blank2r.bmp	252	1	YDDY	306	1	rächen	559	0	0	0	0	0	0	0	0	0	0	0	0	0	0	0	0	0	0	0	0	0	0	0	0	0	0	0	0	0	0	0	0	0	0	0	0	0	0	0
082719	10:05:00	10:10:24	322774	5.0.10.0	5_exp_noRW	114	Rpleas_acq	CS_B	MQQM	JXXJ	VKKV	YDDY	GWWG	BZZB	fair	ehrlich	schön	retten	treu	spielen	faul	eitel	schlecht	rächen	tot	strafen	53pct	acq_USunple_CSunple2_noRW	acq23456_noRW	2	45	0	0	300	300	446	46	0	1	1	blank2r.bmp	0	1	+	0	1	blank2r.bmp	252	1	YDDY	306	2	tot	559	0	0	0	0	0	0	0	0	0	0	0	0	0	0	0	0	0	0	0	0	0	0	0	0	0	0	0	0	0	0	0	0	0	0	0	0	0	0	0
082719	10:05:00	10:10:25	324467	5.0.10.0	5_exp_noRW	114	Rpleas_acq	CS_B	MQQM	JXXJ	VKKV	YDDY	GWWG	BZZB	fair	ehrlich	schön	retten	treu	spielen	faul	eitel	schlecht	rächen	tot	strafen	53pct	acq_USpleas_CSpleas1_noRW	acq23456_noRW	2	46	0	0	300	300	511	50	0	1	1	blank2r.bmp	0	1	+	0	1	blank2r.bmp	252	1	MQQM	306	3	schön	559	0	0	0	0	0	0	0	0	0	0	0	0	0	0	0	0	0	0	0	0	0	0	0	0	0	0	0	0	0	0	0	0	0	0	0	0	0	0	0
082719	10:05:00	10:10:27	326119	5.0.10.0	5_exp_noRW	114	Rpleas_acq	CS_B	MQQM	JXXJ	VKKV	YDDY	GWWG	BZZB	fair	ehrlich	schön	retten	treu	spielen	faul	eitel	schlecht	rächen	tot	strafen	53pct	acq_USunple_CSunple2_noRW	acq23456_noRW	2	47	0	0	300	300	487	46	0	1	1	blank2r.bmp	0	1	+	0	1	blank2r.bmp	252	1	YDDY	306	3	strafen	559	0	0	0	0	0	0	0	0	0	0	0	0	0	0	0	0	0	0	0	0	0	0	0	0	0	0	0	0	0	0	0	0	0	0	0	0	0	0	0
082719	10:05:00	10:10:29	327879	5.0.10.0	5_exp_noRW	114	Rpleas_acq	CS_B	MQQM	JXXJ	VKKV	YDDY	GWWG	BZZB	fair	ehrlich	schön	retten	treu	spielen	faul	eitel	schlecht	rächen	tot	strafen	53pct	acq_USpleas_CSpleas2_noRW	acq23456_noRW	2	48	0	0	300	300	585	50	0	1	1	blank2r.bmp	0	1	+	0	1	blank2r.bmp	252	1	JXXJ	306	2	treu	559	0	0	0	0	0	0	0	0	0	0	0	0	0	0	0	0	0	0	0	0	0	0	0	0	0	0	0	0	0	0	0	0	0	0	0	0	0	0	0
082719	10:05:00	10:10:31	329705	5.0.10.0	5_exp_noRW	114	Rpleas_acq	CS_B	MQQM	JXXJ	VKKV	YDDY	GWWG	BZZB	fair	ehrlich	schön	retten	treu	spielen	faul	eitel	schlecht	rächen	tot	strafen	47pct	acq_USpleas_CSunple1_noRW	acq23456_noRW	2	49	0	0	300	300	648	50	0	1	1	blank2r.bmp	0	1	+	0	1	blank2r.bmp	252	1	VKKV	306	1	fair	559	0	0	0	0	0	0	0	0	0	0	0	0	0	0	0	0	0	0	0	0	0	0	0	0	0	0	0	0	0	0	0	0	0	0	0	0	0	0	0
082719	10:05:00	10:10:32	331304	5.0.10.0	5_exp_noRW	114	Rpleas_acq	CS_B	MQQM	JXXJ	VKKV	YDDY	GWWG	BZZB	fair	ehrlich	schön	retten	treu	spielen	faul	eitel	schlecht	rächen	tot	strafen	53pct	acq_USunple_CSunple1_noRW	acq23456_noRW	2	50	0	0	300	300	423	46	0	1	1	blank2r.bmp	0	1	+	0	1	blank2r.bmp	252	1	VKKV	306	2	eitel	559	0	0	0	0	0	0	0	0	0	0	0	0	0	0	0	0	0	0	0	0	0	0	0	0	0	0	0	0	0	0	0	0	0	0	0	0	0	0	0
082719	10:05:00	10:10:35	333690	5.0.10.0	5_exp_noRW	114	Rpleas_acq	CS_B	MQQM	JXXJ	VKKV	YDDY	GWWG	BZZB	fair	ehrlich	schön	retten	treu	spielen	faul	eitel	schlecht	rächen	tot	strafen	47pct	acq_USpleas_CSpleas1_noRW	acq23456_noRW	2	51	0	0	300	300	1210	50	0	1	1	blank2r.bmp	0	1	+	0	1	blank2r.bmp	252	1	MQQM	306	2	ehrlich	559	0	0	0	0	0	0	0	0	0	0	0	0	0	0	0	0	0	0	0	0	0	0	0	0	0	0	0	0	0	0	0	0	0	0	0	0	0	0	0
082719	10:05:00	10:10:37	335582	5.0.10.0	5_exp_noRW	114	Rpleas_acq	CS_B	MQQM	JXXJ	VKKV	YDDY	GWWG	BZZB	fair	ehrlich	schön	retten	treu	spielen	faul	eitel	schlecht	rächen	tot	strafen	47pct	acq_USpleas_CSpleas2_noRW	acq23456_noRW	2	52	0	0	300	300	713	50	0	1	1	blank2r.bmp	0	1	+	0	1	blank2r.bmp	252	1	JXXJ	306	3	spielen	559	0	0	0	0	0	0	0	0	0	0	0	0	0	0	0	0	0	0	0	0	0	0	0	0	0	0	0	0	0	0	0	0	0	0	0	0	0	0	0
082719	10:05:00	10:10:38	337181	5.0.10.0	5_exp_noRW	114	Rpleas_acq	CS_B	MQQM	JXXJ	VKKV	YDDY	GWWG	BZZB	fair	ehrlich	schön	retten	treu	spielen	faul	eitel	schlecht	rächen	tot	strafen	53pct	acq_USunple_CSunple1_noRW	acq23456_noRW	2	53	0	0	300	300	413	46	0	1	1	blank2r.bmp	0	1	+	0	1	blank2r.bmp	252	1	VKKV	306	3	schlecht	559	0	0	0	0	0	0	0	0	0	0	0	0	0	0	0	0	0	0	0	0	0	0	0	0	0	0	0	0	0	0	0	0	0	0	0	0	0	0	0
082719	10:05:00	10:10:40	338768	5.0.10.0	5_exp_noRW	114	Rpleas_acq	CS_B	MQQM	JXXJ	VKKV	YDDY	GWWG	BZZB	fair	ehrlich	schön	retten	treu	spielen	faul	eitel	schlecht	rächen	tot	strafen	47pct	acq_USunple_CSpleas2_noRW	acq23456_noRW	2	54	0	0	300	300	419	46	0	1	1	blank2r.bmp	0	1	+	0	1	blank2r.bmp	252	1	JXXJ	306	3	strafen	559	0	0	0	0	0	0	0	0	0	0	0	0	0	0	0	0	0	0	0	0	0	0	0	0	0	0	0	0	0	0	0	0	0	0	0	0	0	0	0
082719	10:05:00	10:10:42	340807	5.0.10.0	5_exp_noRW	114	Rpleas_acq	CS_B	MQQM	JXXJ	VKKV	YDDY	GWWG	BZZB	fair	ehrlich	schön	retten	treu	spielen	faul	eitel	schlecht	rächen	tot	strafen	53pct	acq_USunple_CSpleas1_noRW	acq23456_noRW	2	55	0	0	300	300	650	50	0	0	1	blank2r.bmp	0	1	+	0	1	blank2r.bmp	252	1	MQQM	306	1	faul	559	1	FEHLER	1239	0	0	0	0	0	0	0	0	0	0	0	0	0	0	0	0	0	0	0	0	0	0	0	0	0	0	0	0	0	0	0	0	0	0	0	0
082719	10:05:00	10:10:43	342206	5.0.10.0	5_exp_noRW	114	Rpleas_acq	CS_B	MQQM	JXXJ	VKKV	YDDY	GWWG	BZZB	fair	ehrlich	schön	retten	treu	spielen	faul	eitel	schlecht	rächen	tot	strafen	53pct	acq_USpleas_CSpleas2_noRW	acq23456_noRW	2	56	0	0	300	300	431	50	0	1	1	blank2r.bmp	0	1	+	0	1	blank2r.bmp	252	1	JXXJ	306	3	spielen	559	0	0	0	0	0	0	0	0	0	0	0	0	0	0	0	0	0	0	0	0	0	0	0	0	0	0	0	0	0	0	0	0	0	0	0	0	0	0	0
082719	10:05:00	10:10:45	343819	5.0.10.0	5_exp_noRW	114	Rpleas_acq	CS_B	MQQM	JXXJ	VKKV	YDDY	GWWG	BZZB	fair	ehrlich	schön	retten	treu	spielen	faul	eitel	schlecht	rächen	tot	strafen	53pct	acq_USpleas_CSpleas1_noRW	acq23456_noRW	2	57	0	0	300	300	446	50	0	1	1	blank2r.bmp	0	1	+	0	1	blank2r.bmp	252	1	MQQM	306	1	fair	559	0	0	0	0	0	0	0	0	0	0	0	0	0	0	0	0	0	0	0	0	0	0	0	0	0	0	0	0	0	0	0	0	0	0	0	0	0	0	0
082719	10:05:00	10:10:46	345485	5.0.10.0	5_exp_noRW	114	Rpleas_acq	CS_B	MQQM	JXXJ	VKKV	YDDY	GWWG	BZZB	fair	ehrlich	schön	retten	treu	spielen	faul	eitel	schlecht	rächen	tot	strafen	53pct	acq_USpleas_CSpleas1_noRW	acq23456_noRW	2	58	0	0	300	300	483	50	0	1	1	blank2r.bmp	0	1	+	0	1	blank2r.bmp	252	1	MQQM	306	2	ehrlich	559	0	0	0	0	0	0	0	0	0	0	0	0	0	0	0	0	0	0	0	0	0	0	0	0	0	0	0	0	0	0	0	0	0	0	0	0	0	0	0
082719	10:05:00	10:10:48	347151	5.0.10.0	5_exp_noRW	114	Rpleas_acq	CS_B	MQQM	JXXJ	VKKV	YDDY	GWWG	BZZB	fair	ehrlich	schön	retten	treu	spielen	faul	eitel	schlecht	rächen	tot	strafen	47pct	acq_USunple_CSunple2_noRW	acq23456_noRW	2	59	0	0	300	300	493	46	0	1	1	blank2r.bmp	0	1	+	0	1	blank2r.bmp	252	1	YDDY	306	1	rächen	559	0	0	0	0	0	0	0	0	0	0	0	0	0	0	0	0	0	0	0	0	0	0	0	0	0	0	0	0	0	0	0	0	0	0	0	0	0	0	0
082719	10:05:00	10:10:51	349683	5.0.10.0	5_exp_noRW	114	Rpleas_acq	CS_B	MQQM	JXXJ	VKKV	YDDY	GWWG	BZZB	fair	ehrlich	schön	retten	treu	spielen	faul	eitel	schlecht	rächen	tot	strafen	47pct	acq_USunple_CSunple1_noRW	acq23456_noRW	2	60	0	0	300	300	1366	46	0	1	1	blank2r.bmp	0	1	+	0	1	blank2r.bmp	252	1	VKKV	306	3	schlecht	559	0	0	0	0	0	0	0	0	0	0	0	0	0	0	0	0	0	0	0	0	0	0	0	0	0	0	0	0	0	0	0	0	0	0	0	0	0	0	0
082719	10:05:00	10:10:53	351602	5.0.10.0	5_exp_noRW	114	Rpleas_acq	CS_B	MQQM	JXXJ	VKKV	YDDY	GWWG	BZZB	fair	ehrlich	schön	retten	treu	spielen	faul	eitel	schlecht	rächen	tot	strafen	47pct	acq_USunple_CSunple1_noRW	acq23456_noRW	2	61	0	0	300	300	733	46	0	1	1	blank2r.bmp	0	1	+	0	1	blank2r.bmp	252	1	VKKV	306	1	faul	559	0	0	0	0	0	0	0	0	0	0	0	0	0	0	0	0	0	0	0	0	0	0	0	0	0	0	0	0	0	0	0	0	0	0	0	0	0	0	0
082719	10:05:00	10:10:55	354388	5.0.10.0	5_exp_noRW	114	Rpleas_acq	CS_B	MQQM	JXXJ	VKKV	YDDY	GWWG	BZZB	fair	ehrlich	schön	retten	treu	spielen	faul	eitel	schlecht	rächen	tot	strafen	53pct	acq_USpleas_CSpleas2_noRW	acq23456_noRW	2	62	0	0	300	300	1623	50	0	1	1	blank2r.bmp	0	1	+	0	1	blank2r.bmp	252	1	JXXJ	306	2	treu	559	0	0	0	0	0	0	0	0	0	0	0	0	0	0	0	0	0	0	0	0	0	0	0	0	0	0	0	0	0	0	0	0	0	0	0	0	0	0	0
082719	10:05:00	10:10:57	356227	5.0.10.0	5_exp_noRW	114	Rpleas_acq	CS_B	MQQM	JXXJ	VKKV	YDDY	GWWG	BZZB	fair	ehrlich	schön	retten	treu	spielen	faul	eitel	schlecht	rächen	tot	strafen	47pct	acq_USunple_CSpleas2_noRW	acq23456_noRW	2	63	0	0	300	300	651	46	0	1	1	blank2r.bmp	0	1	+	0	1	blank2r.bmp	252	1	JXXJ	306	2	tot	559	0	0	0	0	0	0	0	0	0	0	0	0	0	0	0	0	0	0	0	0	0	0	0	0	0	0	0	0	0	0	0	0	0	0	0	0	0	0	0
082719	10:05:00	10:10:59	358320	5.0.10.0	5_exp_noRW	114	Rpleas_acq	CS_B	MQQM	JXXJ	VKKV	YDDY	GWWG	BZZB	fair	ehrlich	schön	retten	treu	spielen	faul	eitel	schlecht	rächen	tot	strafen	47pct	acq_USpleas_CSpleas1_noRW	acq23456_noRW	2	64	0	0	300	300	924	50	0	1	1	blank2r.bmp	0	1	+	0	1	blank2r.bmp	252	1	MQQM	306	3	schön	559	0	0	0	0	0	0	0	0	0	0	0	0	0	0	0	0	0	0	0	0	0	0	0	0	0	0	0	0	0	0	0	0	0	0	0	0	0	0	0
082719	10:05:00	10:11:01	360159	5.0.10.0	5_exp_noRW	114	Rpleas_acq	CS_B	MQQM	JXXJ	VKKV	YDDY	GWWG	BZZB	fair	ehrlich	schön	retten	treu	spielen	faul	eitel	schlecht	rächen	tot	strafen	47pct	acq_USunple_CSpleas1_noRW	acq23456_noRW	2	65	0	0	300	300	665	46	0	1	1	blank2r.bmp	0	1	+	0	1	blank2r.bmp	252	1	MQQM	306	2	eitel	559	0	0	0	0	0	0	0	0	0	0	0	0	0	0	0	0	0	0	0	0	0	0	0	0	0	0	0	0	0	0	0	0	0	0	0	0	0	0	0
082719	10:05:00	10:11:03	362518	5.0.10.0	5_exp_noRW	114	Rpleas_acq	CS_B	MQQM	JXXJ	VKKV	YDDY	GWWG	BZZB	fair	ehrlich	schön	retten	treu	spielen	faul	eitel	schlecht	rächen	tot	strafen	53pct	acq_USpleas_CSpleas2_noRW	acq23456_noRW	2	66	0	0	300	300	1196	50	0	1	1	blank2r.bmp	0	1	+	0	1	blank2r.bmp	252	1	JXXJ	306	1	retten	559	0	0	0	0	0	0	0	0	0	0	0	0	0	0	0	0	0	0	0	0	0	0	0	0	0	0	0	0	0	0	0	0	0	0	0	0	0	0	0
082719	10:05:00	10:11:05	364224	5.0.10.0	5_exp_noRW	114	Rpleas_acq	CS_B	MQQM	JXXJ	VKKV	YDDY	GWWG	BZZB	fair	ehrlich	schön	retten	treu	spielen	faul	eitel	schlecht	rächen	tot	strafen	47pct	acq_USunple_CSunple2_noRW	acq23456_noRW	2	67	0	0	300	300	519	46	0	1	1	blank2r.bmp	0	1	+	0	1	blank2r.bmp	252	1	YDDY	306	2	tot	559	0	0	0	0	0	0	0	0	0	0	0	0	0	0	0	0	0	0	0	0	0	0	0	0	0	0	0	0	0	0	0	0	0	0	0	0	0	0	0
082719	10:05:00	10:11:07	366050	5.0.10.0	5_exp_noRW	114	Rpleas_acq	CS_B	MQQM	JXXJ	VKKV	YDDY	GWWG	BZZB	fair	ehrlich	schön	retten	treu	spielen	faul	eitel	schlecht	rächen	tot	strafen	53pct	acq_USunple_CSunple2_noRW	acq23456_noRW	2	68	0	0	300	300	652	46	0	1	1	blank2r.bmp	0	1	+	0	1	blank2r.bmp	252	1	YDDY	306	3	strafen	559	0	0	0	0	0	0	0	0	0	0	0	0	0	0	0	0	0	0	0	0	0	0	0	0	0	0	0	0	0	0	0	0	0	0	0	0	0	0	0
082719	10:05:00	10:11:09	367796	5.0.10.0	5_exp_noRW	114	Rpleas_acq	CS_B	MQQM	JXXJ	VKKV	YDDY	GWWG	BZZB	fair	ehrlich	schön	retten	treu	spielen	faul	eitel	schlecht	rächen	tot	strafen	47pct	acq_USunple_CSunple1_noRW	acq23456_noRW	2	69	0	0	300	300	577	46	0	1	1	blank2r.bmp	0	1	+	0	1	blank2r.bmp	252	1	VKKV	306	2	eitel	559	0	0	0	0	0	0	0	0	0	0	0	0	0	0	0	0	0	0	0	0	0	0	0	0	0	0	0	0	0	0	0	0	0	0	0	0	0	0	0
082719	10:05:00	10:11:11	369635	5.0.10.0	5_exp_noRW	114	Rpleas_acq	CS_B	MQQM	JXXJ	VKKV	YDDY	GWWG	BZZB	fair	ehrlich	schön	retten	treu	spielen	faul	eitel	schlecht	rächen	tot	strafen	53pct	acq_USpleas_CSpleas1_noRW	acq23456_noRW	2	70	0	0	300	300	662	50	0	1	1	blank2r.bmp	0	1	+	0	1	blank2r.bmp	252	1	MQQM	306	1	fair	559	0	0	0	0	0	0	0	0	0	0	0	0	0	0	0	0	0	0	0	0	0	0	0	0	0	0	0	0	0	0	0	0	0	0	0	0	0	0	0
082719	10:05:00	10:11:13	371887	5.0.10.0	5_exp_noRW	114	Rpleas_acq	CS_B	MQQM	JXXJ	VKKV	YDDY	GWWG	BZZB	fair	ehrlich	schön	retten	treu	spielen	faul	eitel	schlecht	rächen	tot	strafen	53pct	acq_USunple_CSunple1_noRW	acq23456_noRW	2	71	0	0	300	300	1074	46	0	1	1	blank2r.bmp	0	1	+	0	1	blank2r.bmp	252	1	VKKV	306	2	eitel	559	0	0	0	0	0	0	0	0	0	0	0	0	0	0	0	0	0	0	0	0	0	0	0	0	0	0	0	0	0	0	0	0	0	0	0	0	0	0	0
082719	10:05:00	10:11:15	373620	5.0.10.0	5_exp_noRW	114	Rpleas_acq	CS_B	MQQM	JXXJ	VKKV	YDDY	GWWG	BZZB	fair	ehrlich	schön	retten	treu	spielen	faul	eitel	schlecht	rächen	tot	strafen	47pct	acq_USpleas_CSpleas1_noRW	acq23456_noRW	2	72	0	0	300	300	555	50	0	1	1	blank2r.bmp	0	1	+	0	1	blank2r.bmp	252	1	MQQM	306	2	ehrlich	559	0	0	0	0	0	0	0	0	0	0	0	0	0	0	0	0	0	0	0	0	0	0	0	0	0	0	0	0	0	0	0	0	0	0	0	0	0	0	0
082719	10:05:00	10:11:16	375273	5.0.10.0	5_exp_noRW	114	Rpleas_acq	CS_B	MQQM	JXXJ	VKKV	YDDY	GWWG	BZZB	fair	ehrlich	schön	retten	treu	spielen	faul	eitel	schlecht	rächen	tot	strafen	53pct	acq_USunple_CSunple1_noRW	acq23456_noRW	2	73	0	0	300	300	486	46	0	1	1	blank2r.bmp	0	1	+	0	1	blank2r.bmp	252	1	VKKV	306	1	faul	559	0	0	0	0	0	0	0	0	0	0	0	0	0	0	0	0	0	0	0	0	0	0	0	0	0	0	0	0	0	0	0	0	0	0	0	0	0	0	0
082719	10:05:00	10:11:18	377245	5.0.10.0	5_exp_noRW	114	Rpleas_acq	CS_B	MQQM	JXXJ	VKKV	YDDY	GWWG	BZZB	fair	ehrlich	schön	retten	treu	spielen	faul	eitel	schlecht	rächen	tot	strafen	53pct	acq_USpleas_CSunple1_noRW	acq23456_noRW	2	74	0	0	300	300	797	50	0	1	1	blank2r.bmp	0	1	+	0	1	blank2r.bmp	252	1	VKKV	306	2	ehrlich	559	0	0	0	0	0	0	0	0	0	0	0	0	0	0	0	0	0	0	0	0	0	0	0	0	0	0	0	0	0	0	0	0	0	0	0	0	0	0	0
082719	10:05:00	10:11:20	379271	5.0.10.0	5_exp_noRW	114	Rpleas_acq	CS_B	MQQM	JXXJ	VKKV	YDDY	GWWG	BZZB	fair	ehrlich	schön	retten	treu	spielen	faul	eitel	schlecht	rächen	tot	strafen	53pct	acq_USunple_CSunple2_noRW	acq23456_noRW	2	75	0	0	300	300	847	46	0	1	1	blank2r.bmp	0	1	+	0	1	blank2r.bmp	252	1	YDDY	306	1	rächen	559	0	0	0	0	0	0	0	0	0	0	0	0	0	0	0	0	0	0	0	0	0	0	0	0	0	0	0	0	0	0	0	0	0	0	0	0	0	0	0
082719	10:05:00	10:11:22	381217	5.0.10.0	5_exp_noRW	114	Rpleas_acq	CS_B	MQQM	JXXJ	VKKV	YDDY	GWWG	BZZB	fair	ehrlich	schön	retten	treu	spielen	faul	eitel	schlecht	rächen	tot	strafen	47pct	acq_USpleas_CSpleas2_noRW	acq23456_noRW	2	76	0	0	300	300	762	50	0	1	1	blank2r.bmp	0	1	+	0	1	blank2r.bmp	252	1	JXXJ	306	2	treu	559	0	0	0	0	0	0	0	0	0	0	0	0	0	0	0	0	0	0	0	0	0	0	0	0	0	0	0	0	0	0	0	0	0	0	0	0	0	0	0
082719	10:05:00	10:11:24	383083	5.0.10.0	5_exp_noRW	114	Rpleas_acq	CS_B	MQQM	JXXJ	VKKV	YDDY	GWWG	BZZB	fair	ehrlich	schön	retten	treu	spielen	faul	eitel	schlecht	rächen	tot	strafen	53pct	acq_USpleas_CSpleas1_noRW	acq23456_noRW	2	77	0	0	300	300	697	50	0	1	1	blank2r.bmp	0	1	+	0	1	blank2r.bmp	252	1	MQQM	306	3	schön	559	0	0	0	0	0	0	0	0	0	0	0	0	0	0	0	0	0	0	0	0	0	0	0	0	0	0	0	0	0	0	0	0	0	0	0	0	0	0	0
082719	10:05:00	10:11:26	385055	5.0.10.0	5_exp_noRW	114	Rpleas_acq	CS_B	MQQM	JXXJ	VKKV	YDDY	GWWG	BZZB	fair	ehrlich	schön	retten	treu	spielen	faul	eitel	schlecht	rächen	tot	strafen	53pct	acq_USpleas_CSunple2_noRW	acq23456_noRW	2	78	0	0	300	300	786	50	0	1	1	blank2r.bmp	0	1	+	0	1	blank2r.bmp	252	1	YDDY	306	1	retten	559	0	0	0	0	0	0	0	0	0	0	0	0	0	0	0	0	0	0	0	0	0	0	0	0	0	0	0	0	0	0	0	0	0	0	0	0	0	0	0
082719	10:05:00	10:11:28	386988	5.0.10.0	5_exp_noRW	114	Rpleas_acq	CS_B	MQQM	JXXJ	VKKV	YDDY	GWWG	BZZB	fair	ehrlich	schön	retten	treu	spielen	faul	eitel	schlecht	rächen	tot	strafen	53pct	acq_USpleas_CSpleas2_noRW	acq23456_noRW	2	79	0	0	300	300	767	50	0	1	1	blank2r.bmp	0	1	+	0	1	blank2r.bmp	252	1	JXXJ	306	1	retten	559	0	0	0	0	0	0	0	0	0	0	0	0	0	0	0	0	0	0	0	0	0	0	0	0	0	0	0	0	0	0	0	0	0	0	0	0	0	0	0
082719	10:05:00	10:11:30	388787	5.0.10.0	5_exp_noRW	114	Rpleas_acq	CS_B	MQQM	JXXJ	VKKV	YDDY	GWWG	BZZB	fair	ehrlich	schön	retten	treu	spielen	faul	eitel	schlecht	rächen	tot	strafen	53pct	acq_USunple_CSunple2_noRW	acq23456_noRW	2	80	0	0	300	300	613	46	0	1	1	blank2r.bmp	0	1	+	0	1	blank2r.bmp	252	1	YDDY	306	3	strafen	559	0	0	0	0	0	0	0	0	0	0	0	0	0	0	0	0	0	0	0	0	0	0	0	0	0	0	0	0	0	0	0	0	0	0	0	0	0	0	0
082719	10:05:00	10:11:55	414537	5.0.10.0	5_exp_noRW	114	Rpleas_acq	CS_B	MQQM	JXXJ	VKKV	YDDY	GWWG	BZZB	fair	ehrlich	schön	retten	treu	spielen	faul	eitel	schlecht	rächen	tot	strafen	47pct	acq_USunple_CSunple1_noRW	acq23456_noRW	3	1	0	0	300	300	648	46	0	1	1	blank2r.bmp	0	1	+	0	1	blank2r.bmp	252	1	VKKV	306	3	schlecht	559	0	0	0	0	0	0	0	0	0	0	0	0	0	0	0	0	0	0	0	0	0	0	0	0	0	0	0	0	0	0	0	0	0	0	0	0	0	0	0
082719	10:05:00	10:11:57	416243	5.0.10.0	5_exp_noRW	114	Rpleas_acq	CS_B	MQQM	JXXJ	VKKV	YDDY	GWWG	BZZB	fair	ehrlich	schön	retten	treu	spielen	faul	eitel	schlecht	rächen	tot	strafen	47pct	acq_USpleas_CSpleas2_noRW	acq23456_noRW	3	2	0	0	300	300	519	50	0	1	1	blank2r.bmp	0	1	+	0	1	blank2r.bmp	252	1	JXXJ	306	3	spielen	559	0	0	0	0	0	0	0	0	0	0	0	0	0	0	0	0	0	0	0	0	0	0	0	0	0	0	0	0	0	0	0	0	0	0	0	0	0	0	0
082719	10:05:00	10:11:59	417882	5.0.10.0	5_exp_noRW	114	Rpleas_acq	CS_B	MQQM	JXXJ	VKKV	YDDY	GWWG	BZZB	fair	ehrlich	schön	retten	treu	spielen	faul	eitel	schlecht	rächen	tot	strafen	53pct	acq_USunple_CSunple2_noRW	acq23456_noRW	3	3	0	0	300	300	472	46	0	1	1	blank2r.bmp	0	1	+	0	1	blank2r.bmp	252	1	YDDY	306	2	tot	559	0	0	0	0	0	0	0	0	0	0	0	0	0	0	0	0	0	0	0	0	0	0	0	0	0	0	0	0	0	0	0	0	0	0	0	0	0	0	0
082719	10:05:00	10:12:01	419575	5.0.10.0	5_exp_noRW	114	Rpleas_acq	CS_B	MQQM	JXXJ	VKKV	YDDY	GWWG	BZZB	fair	ehrlich	schön	retten	treu	spielen	faul	eitel	schlecht	rächen	tot	strafen	47pct	acq_USunple_CSunple2_noRW	acq23456_noRW	3	4	0	0	300	300	520	46	0	1	1	blank2r.bmp	0	1	+	0	1	blank2r.bmp	252	1	YDDY	306	2	tot	559	0	0	0	0	0	0	0	0	0	0	0	0	0	0	0	0	0	0	0	0	0	0	0	0	0	0	0	0	0	0	0	0	0	0	0	0	0	0	0
082719	10:05:00	10:12:02	421374	5.0.10.0	5_exp_noRW	114	Rpleas_acq	CS_B	MQQM	JXXJ	VKKV	YDDY	GWWG	BZZB	fair	ehrlich	schön	retten	treu	spielen	faul	eitel	schlecht	rächen	tot	strafen	47pct	acq_USunple_CSpleas2_noRW	acq23456_noRW	3	5	0	0	300	300	622	46	0	1	1	blank2r.bmp	0	1	+	0	1	blank2r.bmp	252	1	JXXJ	306	1	rächen	559	0	0	0	0	0	0	0	0	0	0	0	0	0	0	0	0	0	0	0	0	0	0	0	0	0	0	0	0	0	0	0	0	0	0	0	0	0	0	0
082719	10:05:00	10:12:04	422946	5.0.10.0	5_exp_noRW	114	Rpleas_acq	CS_B	MQQM	JXXJ	VKKV	YDDY	GWWG	BZZB	fair	ehrlich	schön	retten	treu	spielen	faul	eitel	schlecht	rächen	tot	strafen	47pct	acq_USpleas_CSpleas1_noRW	acq23456_noRW	3	6	0	0	300	300	394	50	0	1	1	blank2r.bmp	0	1	+	0	1	blank2r.bmp	252	1	MQQM	306	1	fair	559	0	0	0	0	0	0	0	0	0	0	0	0	0	0	0	0	0	0	0	0	0	0	0	0	0	0	0	0	0	0	0	0	0	0	0	0	0	0	0
082719	10:05:00	10:12:06	424972	5.0.10.0	5_exp_noRW	114	Rpleas_acq	CS_B	MQQM	JXXJ	VKKV	YDDY	GWWG	BZZB	fair	ehrlich	schön	retten	treu	spielen	faul	eitel	schlecht	rächen	tot	strafen	47pct	acq_USunple_CSunple2_noRW	acq23456_noRW	3	7	0	0	300	300	863	46	0	1	1	blank2r.bmp	0	1	+	0	1	blank2r.bmp	252	1	YDDY	306	1	rächen	559	0	0	0	0	0	0	0	0	0	0	0	0	0	0	0	0	0	0	0	0	0	0	0	0	0	0	0	0	0	0	0	0	0	0	0	0	0	0	0
082719	10:05:00	10:12:08	426998	5.0.10.0	5_exp_noRW	114	Rpleas_acq	CS_B	MQQM	JXXJ	VKKV	YDDY	GWWG	BZZB	fair	ehrlich	schön	retten	treu	spielen	faul	eitel	schlecht	rächen	tot	strafen	47pct	acq_USpleas_CSpleas1_noRW	acq23456_noRW	3	8	0	0	300	300	840	50	0	1	1	blank2r.bmp	0	1	+	0	1	blank2r.bmp	252	1	MQQM	306	3	schön	559	0	0	0	0	0	0	0	0	0	0	0	0	0	0	0	0	0	0	0	0	0	0	0	0	0	0	0	0	0	0	0	0	0	0	0	0	0	0	0
082719	10:05:00	10:12:10	428944	5.0.10.0	5_exp_noRW	114	Rpleas_acq	CS_B	MQQM	JXXJ	VKKV	YDDY	GWWG	BZZB	fair	ehrlich	schön	retten	treu	spielen	faul	eitel	schlecht	rächen	tot	strafen	53pct	acq_USunple_CSunple1_noRW	acq23456_noRW	3	9	0	0	300	300	768	46	0	1	1	blank2r.bmp	0	1	+	0	1	blank2r.bmp	252	1	VKKV	306	2	eitel	559	0	0	0	0	0	0	0	0	0	0	0	0	0	0	0	0	0	0	0	0	0	0	0	0	0	0	0	0	0	0	0	0	0	0	0	0	0	0	0
082719	10:05:00	10:12:12	431196	5.0.10.0	5_exp_noRW	114	Rpleas_acq	CS_B	MQQM	JXXJ	VKKV	YDDY	GWWG	BZZB	fair	ehrlich	schön	retten	treu	spielen	faul	eitel	schlecht	rächen	tot	strafen	53pct	acq_USpleas_CSpleas2_noRW	acq23456_noRW	3	10	0	0	300	300	1070	50	0	1	1	blank2r.bmp	0	1	+	0	1	blank2r.bmp	252	1	JXXJ	306	1	retten	559	0	0	0	0	0	0	0	0	0	0	0	0	0	0	0	0	0	0	0	0	0	0	0	0	0	0	0	0	0	0	0	0	0	0	0	0	0	0	0
082719	10:05:00	10:12:14	433049	5.0.10.0	5_exp_noRW	114	Rpleas_acq	CS_B	MQQM	JXXJ	VKKV	YDDY	GWWG	BZZB	fair	ehrlich	schön	retten	treu	spielen	faul	eitel	schlecht	rächen	tot	strafen	53pct	acq_USpleas_CSpleas1_noRW	acq23456_noRW	3	11	0	0	300	300	674	50	0	1	1	blank2r.bmp	0	1	+	0	1	blank2r.bmp	252	1	MQQM	306	2	ehrlich	559	0	0	0	0	0	0	0	0	0	0	0	0	0	0	0	0	0	0	0	0	0	0	0	0	0	0	0	0	0	0	0	0	0	0	0	0	0	0	0
082719	10:05:00	10:12:16	434755	5.0.10.0	5_exp_noRW	114	Rpleas_acq	CS_B	MQQM	JXXJ	VKKV	YDDY	GWWG	BZZB	fair	ehrlich	schön	retten	treu	spielen	faul	eitel	schlecht	rächen	tot	strafen	47pct	acq_USpleas_CSpleas1_noRW	acq23456_noRW	3	12	0	0	300	300	520	50	0	1	1	blank2r.bmp	0	1	+	0	1	blank2r.bmp	252	1	MQQM	306	1	fair	559	0	0	0	0	0	0	0	0	0	0	0	0	0	0	0	0	0	0	0	0	0	0	0	0	0	0	0	0	0	0	0	0	0	0	0	0	0	0	0
082719	10:05:00	10:12:17	436354	5.0.10.0	5_exp_noRW	114	Rpleas_acq	CS_B	MQQM	JXXJ	VKKV	YDDY	GWWG	BZZB	fair	ehrlich	schön	retten	treu	spielen	faul	eitel	schlecht	rächen	tot	strafen	47pct	acq_USunple_CSunple1_noRW	acq23456_noRW	3	13	0	0	300	300	413	46	0	1	1	blank2r.bmp	0	1	+	0	1	blank2r.bmp	252	1	VKKV	306	1	faul	559	0	0	0	0	0	0	0	0	0	0	0	0	0	0	0	0	0	0	0	0	0	0	0	0	0	0	0	0	0	0	0	0	0	0	0	0	0	0	0
082719	10:05:00	10:12:19	437940	5.0.10.0	5_exp_noRW	114	Rpleas_acq	CS_B	MQQM	JXXJ	VKKV	YDDY	GWWG	BZZB	fair	ehrlich	schön	retten	treu	spielen	faul	eitel	schlecht	rächen	tot	strafen	47pct	acq_USpleas_CSunple1_noRW	acq23456_noRW	3	14	0	0	300	300	419	50	0	1	1	blank2r.bmp	0	1	+	0	1	blank2r.bmp	252	1	VKKV	306	3	schön	559	0	0	0	0	0	0	0	0	0	0	0	0	0	0	0	0	0	0	0	0	0	0	0	0	0	0	0	0	0	0	0	0	0	0	0	0	0	0	0
082719	10:05:00	10:12:21	439660	5.0.10.0	5_exp_noRW	114	Rpleas_acq	CS_B	MQQM	JXXJ	VKKV	YDDY	GWWG	BZZB	fair	ehrlich	schön	retten	treu	spielen	faul	eitel	schlecht	rächen	tot	strafen	53pct	acq_USunple_CSpleas1_noRW	acq23456_noRW	3	15	0	0	300	300	549	46	0	1	1	blank2r.bmp	0	1	+	0	1	blank2r.bmp	252	1	MQQM	306	3	schlecht	559	0	0	0	0	0	0	0	0	0	0	0	0	0	0	0	0	0	0	0	0	0	0	0	0	0	0	0	0	0	0	0	0	0	0	0	0	0	0	0
082719	10:05:00	10:12:22	441419	5.0.10.0	5_exp_noRW	114	Rpleas_acq	CS_B	MQQM	JXXJ	VKKV	YDDY	GWWG	BZZB	fair	ehrlich	schön	retten	treu	spielen	faul	eitel	schlecht	rächen	tot	strafen	47pct	acq_USpleas_CSpleas2_noRW	acq23456_noRW	3	16	0	0	300	300	595	50	0	1	1	blank2r.bmp	0	1	+	0	1	blank2r.bmp	252	1	JXXJ	306	3	spielen	559	0	0	0	0	0	0	0	0	0	0	0	0	0	0	0	0	0	0	0	0	0	0	0	0	0	0	0	0	0	0	0	0	0	0	0	0	0	0	0
082719	10:05:00	10:12:24	443458	5.0.10.0	5_exp_noRW	114	Rpleas_acq	CS_B	MQQM	JXXJ	VKKV	YDDY	GWWG	BZZB	fair	ehrlich	schön	retten	treu	spielen	faul	eitel	schlecht	rächen	tot	strafen	53pct	acq_USpleas_CSpleas2_noRW	acq23456_noRW	3	17	0	0	300	300	872	50	0	1	1	blank2r.bmp	0	1	+	0	1	blank2r.bmp	252	1	JXXJ	306	2	treu	559	0	0	0	0	0	0	0	0	0	0	0	0	0	0	0	0	0	0	0	0	0	0	0	0	0	0	0	0	0	0	0	0	0	0	0	0	0	0	0
082719	10:05:00	10:12:26	445177	5.0.10.0	5_exp_noRW	114	Rpleas_acq	CS_B	MQQM	JXXJ	VKKV	YDDY	GWWG	BZZB	fair	ehrlich	schön	retten	treu	spielen	faul	eitel	schlecht	rächen	tot	strafen	53pct	acq_USunple_CSunple1_noRW	acq23456_noRW	3	18	0	0	300	300	542	46	0	1	1	blank2r.bmp	0	1	+	0	1	blank2r.bmp	252	1	VKKV	306	3	schlecht	559	0	0	0	0	0	0	0	0	0	0	0	0	0	0	0	0	0	0	0	0	0	0	0	0	0	0	0	0	0	0	0	0	0	0	0	0	0	0	0
082719	10:05:00	10:12:28	447363	5.0.10.0	5_exp_noRW	114	Rpleas_acq	CS_B	MQQM	JXXJ	VKKV	YDDY	GWWG	BZZB	fair	ehrlich	schön	retten	treu	spielen	faul	eitel	schlecht	rächen	tot	strafen	47pct	acq_USpleas_CSunple2_noRW	acq23456_noRW	3	19	0	0	300	300	1019	50	0	1	1	blank2r.bmp	0	1	+	0	1	blank2r.bmp	252	1	YDDY	306	3	spielen	559	0	0	0	0	0	0	0	0	0	0	0	0	0	0	0	0	0	0	0	0	0	0	0	0	0	0	0	0	0	0	0	0	0	0	0	0	0	0	0
082719	10:05:00	10:12:31	450029	5.0.10.0	5_exp_noRW	114	Rpleas_acq	CS_B	MQQM	JXXJ	VKKV	YDDY	GWWG	BZZB	fair	ehrlich	schön	retten	treu	spielen	faul	eitel	schlecht	rächen	tot	strafen	53pct	acq_USunple_CSunple2_noRW	acq23456_noRW	3	20	0	0	300	300	1493	46	0	1	1	blank2r.bmp	0	1	+	0	1	blank2r.bmp	252	1	YDDY	306	3	strafen	559	0	0	0	0	0	0	0	0	0	0	0	0	0	0	0	0	0	0	0	0	0	0	0	0	0	0	0	0	0	0	0	0	0	0	0	0	0	0	0
082719	10:05:00	10:12:33	452401	5.0.10.0	5_exp_noRW	114	Rpleas_acq	CS_B	MQQM	JXXJ	VKKV	YDDY	GWWG	BZZB	fair	ehrlich	schön	retten	treu	spielen	faul	eitel	schlecht	rächen	tot	strafen	53pct	acq_USpleas_CSunple2_noRW	acq23456_noRW	3	21	0	0	300	300	1206	50	0	1	1	blank2r.bmp	0	1	+	0	1	blank2r.bmp	252	1	YDDY	306	1	retten	559	0	0	0	0	0	0	0	0	0	0	0	0	0	0	0	0	0	0	0	0	0	0	0	0	0	0	0	0	0	0	0	0	0	0	0	0	0	0	0
082719	10:05:00	10:12:35	454040	5.0.10.0	5_exp_noRW	114	Rpleas_acq	CS_B	MQQM	JXXJ	VKKV	YDDY	GWWG	BZZB	fair	ehrlich	schön	retten	treu	spielen	faul	eitel	schlecht	rächen	tot	strafen	53pct	acq_USpleas_CSpleas1_noRW	acq23456_noRW	3	22	0	0	300	300	476	50	0	1	1	blank2r.bmp	0	1	+	0	1	blank2r.bmp	252	1	MQQM	306	2	ehrlich	559	0	0	0	0	0	0	0	0	0	0	0	0	0	0	0	0	0	0	0	0	0	0	0	0	0	0	0	0	0	0	0	0	0	0	0	0	0	0	0
082719	10:05:00	10:12:37	456093	5.0.10.0	5_exp_noRW	114	Rpleas_acq	CS_B	MQQM	JXXJ	VKKV	YDDY	GWWG	BZZB	fair	ehrlich	schön	retten	treu	spielen	faul	eitel	schlecht	rächen	tot	strafen	47pct	acq_USunple_CSpleas1_noRW	acq23456_noRW	3	23	0	0	300	300	873	46	0	1	1	blank2r.bmp	0	1	+	0	1	blank2r.bmp	252	1	MQQM	306	3	schlecht	559	0	0	0	0	0	0	0	0	0	0	0	0	0	0	0	0	0	0	0	0	0	0	0	0	0	0	0	0	0	0	0	0	0	0	0	0	0	0	0
082719	10:05:00	10:12:40	459092	5.0.10.0	5_exp_noRW	114	Rpleas_acq	CS_B	MQQM	JXXJ	VKKV	YDDY	GWWG	BZZB	fair	ehrlich	schön	retten	treu	spielen	faul	eitel	schlecht	rächen	tot	strafen	53pct	acq_USpleas_CSpleas2_noRW	acq23456_noRW	3	24	0	0	300	300	1817	50	0	1	1	blank2r.bmp	0	1	+	0	1	blank2r.bmp	252	1	JXXJ	306	3	spielen	559	0	0	0	0	0	0	0	0	0	0	0	0	0	0	0	0	0	0	0	0	0	0	0	0	0	0	0	0	0	0	0	0	0	0	0	0	0	0	0
082719	10:05:00	10:12:42	461357	5.0.10.0	5_exp_noRW	114	Rpleas_acq	CS_B	MQQM	JXXJ	VKKV	YDDY	GWWG	BZZB	fair	ehrlich	schön	retten	treu	spielen	faul	eitel	schlecht	rächen	tot	strafen	47pct	acq_USunple_CSunple2_noRW	acq23456_noRW	3	25	0	0	300	300	1095	46	0	1	1	blank2r.bmp	0	1	+	0	1	blank2r.bmp	252	1	YDDY	306	3	strafen	559	0	0	0	0	0	0	0	0	0	0	0	0	0	0	0	0	0	0	0	0	0	0	0	0	0	0	0	0	0	0	0	0	0	0	0	0	0	0	0
082719	10:05:00	10:12:44	463410	5.0.10.0	5_exp_noRW	114	Rpleas_acq	CS_B	MQQM	JXXJ	VKKV	YDDY	GWWG	BZZB	fair	ehrlich	schön	retten	treu	spielen	faul	eitel	schlecht	rächen	tot	strafen	47pct	acq_USpleas_CSpleas2_noRW	acq23456_noRW	3	26	0	0	300	300	881	50	0	1	1	blank2r.bmp	0	1	+	0	1	blank2r.bmp	252	1	JXXJ	306	1	retten	559	0	0	0	0	0	0	0	0	0	0	0	0	0	0	0	0	0	0	0	0	0	0	0	0	0	0	0	0	0	0	0	0	0	0	0	0	0	0	0
082719	10:05:00	10:12:46	465209	5.0.10.0	5_exp_noRW	114	Rpleas_acq	CS_B	MQQM	JXXJ	VKKV	YDDY	GWWG	BZZB	fair	ehrlich	schön	retten	treu	spielen	faul	eitel	schlecht	rächen	tot	strafen	53pct	acq_USpleas_CSpleas1_noRW	acq23456_noRW	3	27	0	0	300	300	620	50	0	1	1	blank2r.bmp	0	1	+	0	1	blank2r.bmp	252	1	MQQM	306	3	schön	559	0	0	0	0	0	0	0	0	0	0	0	0	0	0	0	0	0	0	0	0	0	0	0	0	0	0	0	0	0	0	0	0	0	0	0	0	0	0	0
082719	10:05:00	10:12:48	467422	5.0.10.0	5_exp_noRW	114	Rpleas_acq	CS_B	MQQM	JXXJ	VKKV	YDDY	GWWG	BZZB	fair	ehrlich	schön	retten	treu	spielen	faul	eitel	schlecht	rächen	tot	strafen	47pct	acq_USunple_CSunple1_noRW	acq23456_noRW	3	28	0	0	300	300	1042	46	0	1	1	blank2r.bmp	0	1	+	0	1	blank2r.bmp	252	1	VKKV	306	1	faul	559	0	0	0	0	0	0	0	0	0	0	0	0	0	0	0	0	0	0	0	0	0	0	0	0	0	0	0	0	0	0	0	0	0	0	0	0	0	0	0
082719	10:05:00	10:12:50	469474	5.0.10.0	5_exp_noRW	114	Rpleas_acq	CS_B	MQQM	JXXJ	VKKV	YDDY	GWWG	BZZB	fair	ehrlich	schön	retten	treu	spielen	faul	eitel	schlecht	rächen	tot	strafen	53pct	acq_USunple_CSunple1_noRW	acq23456_noRW	3	29	0	0	300	300	889	46	0	1	1	blank2r.bmp	0	1	+	0	1	blank2r.bmp	252	1	VKKV	306	2	eitel	559	0	0	0	0	0	0	0	0	0	0	0	0	0	0	0	0	0	0	0	0	0	0	0	0	0	0	0	0	0	0	0	0	0	0	0	0	0	0	0
082719	10:05:00	10:12:52	471273	5.0.10.0	5_exp_noRW	114	Rpleas_acq	CS_B	MQQM	JXXJ	VKKV	YDDY	GWWG	BZZB	fair	ehrlich	schön	retten	treu	spielen	faul	eitel	schlecht	rächen	tot	strafen	47pct	acq_USunple_CSpleas2_noRW	acq23456_noRW	3	30	0	0	300	300	615	46	0	1	1	blank2r.bmp	0	1	+	0	1	blank2r.bmp	252	1	JXXJ	306	3	strafen	559	0	0	0	0	0	0	0	0	0	0	0	0	0	0	0	0	0	0	0	0	0	0	0	0	0	0	0	0	0	0	0	0	0	0	0	0	0	0	0
082719	10:05:00	10:12:55	473712	5.0.10.0	5_exp_noRW	114	Rpleas_acq	CS_B	MQQM	JXXJ	VKKV	YDDY	GWWG	BZZB	fair	ehrlich	schön	retten	treu	spielen	faul	eitel	schlecht	rächen	tot	strafen	53pct	acq_USpleas_CSpleas2_noRW	acq23456_noRW	3	31	0	0	300	300	1252	50	0	1	1	blank2r.bmp	0	1	+	0	1	blank2r.bmp	252	1	JXXJ	306	2	treu	559	0	0	0	0	0	0	0	0	0	0	0	0	0	0	0	0	0	0	0	0	0	0	0	0	0	0	0	0	0	0	0	0	0	0	0	0	0	0	0
082719	10:05:00	10:12:56	475378	5.0.10.0	5_exp_noRW	114	Rpleas_acq	CS_B	MQQM	JXXJ	VKKV	YDDY	GWWG	BZZB	fair	ehrlich	schön	retten	treu	spielen	faul	eitel	schlecht	rächen	tot	strafen	47pct	acq_USunple_CSunple2_noRW	acq23456_noRW	3	32	0	0	300	300	502	46	0	1	1	blank2r.bmp	0	1	+	0	1	blank2r.bmp	252	1	YDDY	306	2	tot	559	0	0	0	0	0	0	0	0	0	0	0	0	0	0	0	0	0	0	0	0	0	0	0	0	0	0	0	0	0	0	0	0	0	0	0	0	0	0	0
082719	10:05:00	10:12:58	477364	5.0.10.0	5_exp_noRW	114	Rpleas_acq	CS_B	MQQM	JXXJ	VKKV	YDDY	GWWG	BZZB	fair	ehrlich	schön	retten	treu	spielen	faul	eitel	schlecht	rächen	tot	strafen	53pct	acq_USpleas_CSunple1_noRW	acq23456_noRW	3	33	0	0	300	300	812	50	0	1	1	blank2r.bmp	0	1	+	0	1	blank2r.bmp	252	1	VKKV	306	2	ehrlich	559	0	0	0	0	0	0	0	0	0	0	0	0	0	0	0	0	0	0	0	0	0	0	0	0	0	0	0	0	0	0	0	0	0	0	0	0	0	0	0
082719	10:05:00	10:13:00	479270	5.0.10.0	5_exp_noRW	114	Rpleas_acq	CS_B	MQQM	JXXJ	VKKV	YDDY	GWWG	BZZB	fair	ehrlich	schön	retten	treu	spielen	faul	eitel	schlecht	rächen	tot	strafen	53pct	acq_USpleas_CSpleas1_noRW	acq23456_noRW	3	34	0	0	300	300	520	46	0	0	1	blank2r.bmp	0	1	+	0	1	blank2r.bmp	252	1	MQQM	306	1	fair	559	1	FEHLER	1119	0	0	0	0	0	0	0	0	0	0	0	0	0	0	0	0	0	0	0	0	0	0	0	0	0	0	0	0	0	0	0	0	0	0	0	0
082719	10:05:00	10:13:02	480763	5.0.10.0	5_exp_noRW	114	Rpleas_acq	CS_B	MQQM	JXXJ	VKKV	YDDY	GWWG	BZZB	fair	ehrlich	schön	retten	treu	spielen	faul	eitel	schlecht	rächen	tot	strafen	47pct	acq_USpleas_CSpleas2_noRW	acq23456_noRW	3	35	0	0	300	300	531	50	0	1	1	blank2r.bmp	0	1	+	0	1	blank2r.bmp	252	1	JXXJ	306	1	retten	559	0	0	0	0	0	0	0	0	0	0	0	0	0	0	0	0	0	0	0	0	0	0	0	0	0	0	0	0	0	0	0	0	0	0	0	0	0	0	0
082719	10:05:00	10:13:03	482402	5.0.10.0	5_exp_noRW	114	Rpleas_acq	CS_B	MQQM	JXXJ	VKKV	YDDY	GWWG	BZZB	fair	ehrlich	schön	retten	treu	spielen	faul	eitel	schlecht	rächen	tot	strafen	53pct	acq_USunple_CSunple2_noRW	acq23456_noRW	3	36	0	0	300	300	461	46	0	1	1	blank2r.bmp	0	1	+	0	1	blank2r.bmp	252	1	YDDY	306	1	rächen	559	0	0	0	0	0	0	0	0	0	0	0	0	0	0	0	0	0	0	0	0	0	0	0	0	0	0	0	0	0	0	0	0	0	0	0	0	0	0	0
082719	10:05:00	10:13:05	484441	5.0.10.0	5_exp_noRW	114	Rpleas_acq	CS_B	MQQM	JXXJ	VKKV	YDDY	GWWG	BZZB	fair	ehrlich	schön	retten	treu	spielen	faul	eitel	schlecht	rächen	tot	strafen	53pct	acq_USunple_CSunple1_noRW	acq23456_noRW	3	37	0	0	300	300	856	46	0	1	1	blank2r.bmp	0	1	+	0	1	blank2r.bmp	252	1	VKKV	306	3	schlecht	559	0	0	0	0	0	0	0	0	0	0	0	0	0	0	0	0	0	0	0	0	0	0	0	0	0	0	0	0	0	0	0	0	0	0	0	0	0	0	0
082719	10:05:00	10:13:07	486001	5.0.10.0	5_exp_noRW	114	Rpleas_acq	CS_B	MQQM	JXXJ	VKKV	YDDY	GWWG	BZZB	fair	ehrlich	schön	retten	treu	spielen	faul	eitel	schlecht	rächen	tot	strafen	53pct	acq_USpleas_CSpleas1_noRW	acq23456_noRW	3	38	0	0	300	300	398	50	0	1	1	blank2r.bmp	0	1	+	0	1	blank2r.bmp	252	1	MQQM	306	2	ehrlich	559	0	0	0	0	0	0	0	0	0	0	0	0	0	0	0	0	0	0	0	0	0	0	0	0	0	0	0	0	0	0	0	0	0	0	0	0	0	0	0
082719	10:05:00	10:13:09	487587	5.0.10.0	5_exp_noRW	114	Rpleas_acq	CS_B	MQQM	JXXJ	VKKV	YDDY	GWWG	BZZB	fair	ehrlich	schön	retten	treu	spielen	faul	eitel	schlecht	rächen	tot	strafen	53pct	acq_USunple_CSunple2_noRW	acq23456_noRW	3	39	0	0	300	300	419	46	0	1	1	blank2r.bmp	0	1	+	0	1	blank2r.bmp	252	1	YDDY	306	2	tot	559	0	0	0	0	0	0	0	0	0	0	0	0	0	0	0	0	0	0	0	0	0	0	0	0	0	0	0	0	0	0	0	0	0	0	0	0	0	0	0
082719	10:05:00	10:13:11	490039	5.0.10.0	5_exp_noRW	114	Rpleas_acq	CS_B	MQQM	JXXJ	VKKV	YDDY	GWWG	BZZB	fair	ehrlich	schön	retten	treu	spielen	faul	eitel	schlecht	rächen	tot	strafen	47pct	acq_USunple_CSunple1_noRW	acq23456_noRW	3	40	0	0	300	300	1268	46	0	1	1	blank2r.bmp	0	1	+	0	1	blank2r.bmp	252	1	VKKV	306	3	schlecht	559	0	0	0	0	0	0	0	0	0	0	0	0	0	0	0	0	0	0	0	0	0	0	0	0	0	0	0	0	0	0	0	0	0	0	0	0	0	0	0
082719	10:05:00	10:13:13	492012	5.0.10.0	5_exp_noRW	114	Rpleas_acq	CS_B	MQQM	JXXJ	VKKV	YDDY	GWWG	BZZB	fair	ehrlich	schön	retten	treu	spielen	faul	eitel	schlecht	rächen	tot	strafen	53pct	acq_USunple_CSpleas1_noRW	acq23456_noRW	3	41	0	0	300	300	792	46	0	1	1	blank2r.bmp	0	1	+	0	1	blank2r.bmp	252	1	MQQM	306	2	eitel	559	0	0	0	0	0	0	0	0	0	0	0	0	0	0	0	0	0	0	0	0	0	0	0	0	0	0	0	0	0	0	0	0	0	0	0	0	0	0	0
082719	10:05:00	10:13:15	493624	5.0.10.0	5_exp_noRW	114	Rpleas_acq	CS_B	MQQM	JXXJ	VKKV	YDDY	GWWG	BZZB	fair	ehrlich	schön	retten	treu	spielen	faul	eitel	schlecht	rächen	tot	strafen	47pct	acq_USunple_CSunple2_noRW	acq23456_noRW	3	42	0	0	300	300	443	46	0	1	1	blank2r.bmp	0	1	+	0	1	blank2r.bmp	252	1	YDDY	306	3	strafen	559	0	0	0	0	0	0	0	0	0	0	0	0	0	0	0	0	0	0	0	0	0	0	0	0	0	0	0	0	0	0	0	0	0	0	0	0	0	0	0
082719	10:05:00	10:13:16	495184	5.0.10.0	5_exp_noRW	114	Rpleas_acq	CS_B	MQQM	JXXJ	VKKV	YDDY	GWWG	BZZB	fair	ehrlich	schön	retten	treu	spielen	faul	eitel	schlecht	rächen	tot	strafen	53pct	acq_USpleas_CSpleas1_noRW	acq23456_noRW	3	43	0	0	300	300	382	50	0	1	1	blank2r.bmp	0	1	+	0	1	blank2r.bmp	252	1	MQQM	306	3	schön	559	0	0	0	0	0	0	0	0	0	0	0	0	0	0	0	0	0	0	0	0	0	0	0	0	0	0	0	0	0	0	0	0	0	0	0	0	0	0	0
082719	10:05:00	10:13:18	496956	5.0.10.0	5_exp_noRW	114	Rpleas_acq	CS_B	MQQM	JXXJ	VKKV	YDDY	GWWG	BZZB	fair	ehrlich	schön	retten	treu	spielen	faul	eitel	schlecht	rächen	tot	strafen	47pct	acq_USpleas_CSpleas2_noRW	acq23456_noRW	3	44	0	0	300	300	591	50	0	1	1	blank2r.bmp	0	1	+	0	1	blank2r.bmp	252	1	JXXJ	306	2	treu	559	0	0	0	0	0	0	0	0	0	0	0	0	0	0	0	0	0	0	0	0	0	0	0	0	0	0	0	0	0	0	0	0	0	0	0	0	0	0	0
082719	10:05:00	10:13:19	498569	5.0.10.0	5_exp_noRW	114	Rpleas_acq	CS_B	MQQM	JXXJ	VKKV	YDDY	GWWG	BZZB	fair	ehrlich	schön	retten	treu	spielen	faul	eitel	schlecht	rächen	tot	strafen	53pct	acq_USpleas_CSpleas2_noRW	acq23456_noRW	3	45	0	0	300	300	442	50	0	1	1	blank2r.bmp	0	1	+	0	1	blank2r.bmp	252	1	JXXJ	306	3	spielen	559	0	0	0	0	0	0	0	0	0	0	0	0	0	0	0	0	0	0	0	0	0	0	0	0	0	0	0	0	0	0	0	0	0	0	0	0	0	0	0
082719	10:05:00	10:13:21	500222	5.0.10.0	5_exp_noRW	114	Rpleas_acq	CS_B	MQQM	JXXJ	VKKV	YDDY	GWWG	BZZB	fair	ehrlich	schön	retten	treu	spielen	faul	eitel	schlecht	rächen	tot	strafen	53pct	acq_USunple_CSunple1_noRW	acq23456_noRW	3	46	0	0	300	300	474	46	0	1	1	blank2r.bmp	0	1	+	0	1	blank2r.bmp	252	1	VKKV	306	1	faul	559	0	0	0	0	0	0	0	0	0	0	0	0	0	0	0	0	0	0	0	0	0	0	0	0	0	0	0	0	0	0	0	0	0	0	0	0	0	0	0
082719	10:05:00	10:13:23	501914	5.0.10.0	5_exp_noRW	114	Rpleas_acq	CS_B	MQQM	JXXJ	VKKV	YDDY	GWWG	BZZB	fair	ehrlich	schön	retten	treu	spielen	faul	eitel	schlecht	rächen	tot	strafen	47pct	acq_USunple_CSunple1_noRW	acq23456_noRW	3	47	0	0	300	300	512	46	0	1	1	blank2r.bmp	0	1	+	0	1	blank2r.bmp	252	1	VKKV	306	2	eitel	559	0	0	0	0	0	0	0	0	0	0	0	0	0	0	0	0	0	0	0	0	0	0	0	0	0	0	0	0	0	0	0	0	0	0	0	0	0	0	0
082719	10:05:00	10:13:24	503487	5.0.10.0	5_exp_noRW	114	Rpleas_acq	CS_B	MQQM	JXXJ	VKKV	YDDY	GWWG	BZZB	fair	ehrlich	schön	retten	treu	spielen	faul	eitel	schlecht	rächen	tot	strafen	47pct	acq_USunple_CSunple2_noRW	acq23456_noRW	3	48	0	0	300	300	410	46	0	1	1	blank2r.bmp	0	1	+	0	1	blank2r.bmp	252	1	YDDY	306	1	rächen	559	0	0	0	0	0	0	0	0	0	0	0	0	0	0	0	0	0	0	0	0	0	0	0	0	0	0	0	0	0	0	0	0	0	0	0	0	0	0	0
082719	10:05:00	10:13:26	505273	5.0.10.0	5_exp_noRW	114	Rpleas_acq	CS_B	MQQM	JXXJ	VKKV	YDDY	GWWG	BZZB	fair	ehrlich	schön	retten	treu	spielen	faul	eitel	schlecht	rächen	tot	strafen	53pct	acq_USunple_CSunple2_noRW	acq23456_noRW	3	49	0	0	300	300	601	46	0	1	1	blank2r.bmp	0	1	+	0	1	blank2r.bmp	252	1	YDDY	306	3	strafen	559	0	0	0	0	0	0	0	0	0	0	0	0	0	0	0	0	0	0	0	0	0	0	0	0	0	0	0	0	0	0	0	0	0	0	0	0	0	0	0
082719	10:05:00	10:13:28	506965	5.0.10.0	5_exp_noRW	114	Rpleas_acq	CS_B	MQQM	JXXJ	VKKV	YDDY	GWWG	BZZB	fair	ehrlich	schön	retten	treu	spielen	faul	eitel	schlecht	rächen	tot	strafen	53pct	acq_USpleas_CSpleas1_noRW	acq23456_noRW	3	50	0	0	300	300	519	50	0	1	1	blank2r.bmp	0	1	+	0	1	blank2r.bmp	252	1	MQQM	306	1	fair	559	0	0	0	0	0	0	0	0	0	0	0	0	0	0	0	0	0	0	0	0	0	0	0	0	0	0	0	0	0	0	0	0	0	0	0	0	0	0	0
082719	10:05:00	10:13:30	508725	5.0.10.0	5_exp_noRW	114	Rpleas_acq	CS_B	MQQM	JXXJ	VKKV	YDDY	GWWG	BZZB	fair	ehrlich	schön	retten	treu	spielen	faul	eitel	schlecht	rächen	tot	strafen	53pct	acq_USpleas_CSpleas2_noRW	acq23456_noRW	3	51	0	0	300	300	572	50	0	1	1	blank2r.bmp	0	1	+	0	1	blank2r.bmp	252	1	JXXJ	306	3	spielen	559	0	0	0	0	0	0	0	0	0	0	0	0	0	0	0	0	0	0	0	0	0	0	0	0	0	0	0	0	0	0	0	0	0	0	0	0	0	0	0
082719	10:05:00	10:13:32	510817	5.0.10.0	5_exp_noRW	114	Rpleas_acq	CS_B	MQQM	JXXJ	VKKV	YDDY	GWWG	BZZB	fair	ehrlich	schön	retten	treu	spielen	faul	eitel	schlecht	rächen	tot	strafen	53pct	acq_USpleas_CSpleas2_noRW	acq23456_noRW	3	52	0	0	300	300	918	50	0	1	1	blank2r.bmp	0	1	+	0	1	blank2r.bmp	252	1	JXXJ	306	1	retten	559	0	0	0	0	0	0	0	0	0	0	0	0	0	0	0	0	0	0	0	0	0	0	0	0	0	0	0	0	0	0	0	0	0	0	0	0	0	0	0
082719	10:05:00	10:13:33	512510	5.0.10.0	5_exp_noRW	114	Rpleas_acq	CS_B	MQQM	JXXJ	VKKV	YDDY	GWWG	BZZB	fair	ehrlich	schön	retten	treu	spielen	faul	eitel	schlecht	rächen	tot	strafen	53pct	acq_USpleas_CSpleas1_noRW	acq23456_noRW	3	53	0	0	300	300	522	50	0	1	1	blank2r.bmp	0	1	+	0	1	blank2r.bmp	252	1	MQQM	306	1	fair	559	0	0	0	0	0	0	0	0	0	0	0	0	0	0	0	0	0	0	0	0	0	0	0	0	0	0	0	0	0	0	0	0	0	0	0	0	0	0	0
082719	10:05:00	10:13:35	514203	5.0.10.0	5_exp_noRW	114	Rpleas_acq	CS_B	MQQM	JXXJ	VKKV	YDDY	GWWG	BZZB	fair	ehrlich	schön	retten	treu	spielen	faul	eitel	schlecht	rächen	tot	strafen	53pct	acq_USpleas_CSunple2_noRW	acq23456_noRW	3	54	0	0	300	300	519	50	0	1	1	blank2r.bmp	0	1	+	0	1	blank2r.bmp	252	1	YDDY	306	3	spielen	559	0	0	0	0	0	0	0	0	0	0	0	0	0	0	0	0	0	0	0	0	0	0	0	0	0	0	0	0	0	0	0	0	0	0	0	0	0	0	0
082719	10:05:00	10:13:37	515975	5.0.10.0	5_exp_noRW	114	Rpleas_acq	CS_B	MQQM	JXXJ	VKKV	YDDY	GWWG	BZZB	fair	ehrlich	schön	retten	treu	spielen	faul	eitel	schlecht	rächen	tot	strafen	47pct	acq_USunple_CSunple2_noRW	acq23456_noRW	3	55	0	0	300	300	607	46	0	1	1	blank2r.bmp	0	1	+	0	1	blank2r.bmp	252	1	YDDY	306	1	rächen	559	0	0	0	0	0	0	0	0	0	0	0	0	0	0	0	0	0	0	0	0	0	0	0	0	0	0	0	0	0	0	0	0	0	0	0	0	0	0	0
082719	10:05:00	10:13:39	517588	5.0.10.0	5_exp_noRW	114	Rpleas_acq	CS_B	MQQM	JXXJ	VKKV	YDDY	GWWG	BZZB	fair	ehrlich	schön	retten	treu	spielen	faul	eitel	schlecht	rächen	tot	strafen	47pct	acq_USpleas_CSunple1_noRW	acq23456_noRW	3	56	0	0	300	300	434	50	0	1	1	blank2r.bmp	0	1	+	0	1	blank2r.bmp	252	1	VKKV	306	3	schön	559	0	0	0	0	0	0	0	0	0	0	0	0	0	0	0	0	0	0	0	0	0	0	0	0	0	0	0	0	0	0	0	0	0	0	0	0	0	0	0
082719	10:05:00	10:13:40	519254	5.0.10.0	5_exp_noRW	114	Rpleas_acq	CS_B	MQQM	JXXJ	VKKV	YDDY	GWWG	BZZB	fair	ehrlich	schön	retten	treu	spielen	faul	eitel	schlecht	rächen	tot	strafen	47pct	acq_USunple_CSunple1_noRW	acq23456_noRW	3	57	0	0	300	300	480	46	0	1	1	blank2r.bmp	0	1	+	0	1	blank2r.bmp	252	1	VKKV	306	1	faul	559	0	0	0	0	0	0	0	0	0	0	0	0	0	0	0	0	0	0	0	0	0	0	0	0	0	0	0	0	0	0	0	0	0	0	0	0	0	0	0
082719	10:05:00	10:13:42	520826	5.0.10.0	5_exp_noRW	114	Rpleas_acq	CS_B	MQQM	JXXJ	VKKV	YDDY	GWWG	BZZB	fair	ehrlich	schön	retten	treu	spielen	faul	eitel	schlecht	rächen	tot	strafen	47pct	acq_USunple_CSpleas2_noRW	acq23456_noRW	3	58	0	0	300	300	400	46	0	1	1	blank2r.bmp	0	1	+	0	1	blank2r.bmp	252	1	JXXJ	306	2	tot	559	0	0	0	0	0	0	0	0	0	0	0	0	0	0	0	0	0	0	0	0	0	0	0	0	0	0	0	0	0	0	0	0	0	0	0	0	0	0	0
082719	10:05:00	10:13:43	522506	5.0.10.0	5_exp_noRW	114	Rpleas_acq	CS_B	MQQM	JXXJ	VKKV	YDDY	GWWG	BZZB	fair	ehrlich	schön	retten	treu	spielen	faul	eitel	schlecht	rächen	tot	strafen	53pct	acq_USpleas_CSpleas1_noRW	acq23456_noRW	3	59	0	0	300	300	511	50	0	1	1	blank2r.bmp	0	1	+	0	1	blank2r.bmp	252	1	MQQM	306	3	schön	559	0	0	0	0	0	0	0	0	0	0	0	0	0	0	0	0	0	0	0	0	0	0	0	0	0	0	0	0	0	0	0	0	0	0	0	0	0	0	0
082719	10:05:00	10:13:45	524318	5.0.10.0	5_exp_noRW	114	Rpleas_acq	CS_B	MQQM	JXXJ	VKKV	YDDY	GWWG	BZZB	fair	ehrlich	schön	retten	treu	spielen	faul	eitel	schlecht	rächen	tot	strafen	47pct	acq_USunple_CSunple1_noRW	acq23456_noRW	3	60	0	0	300	300	641	46	0	1	1	blank2r.bmp	0	1	+	0	1	blank2r.bmp	252	1	VKKV	306	3	schlecht	559	0	0	0	0	0	0	0	0	0	0	0	0	0	0	0	0	0	0	0	0	0	0	0	0	0	0	0	0	0	0	0	0	0	0	0	0	0	0	0
082719	10:05:00	10:13:47	526104	5.0.10.0	5_exp_noRW	114	Rpleas_acq	CS_B	MQQM	JXXJ	VKKV	YDDY	GWWG	BZZB	fair	ehrlich	schön	retten	treu	spielen	faul	eitel	schlecht	rächen	tot	strafen	47pct	acq_USpleas_CSunple2_noRW	acq23456_noRW	3	61	0	0	300	300	615	50	0	1	1	blank2r.bmp	0	1	+	0	1	blank2r.bmp	252	1	YDDY	306	2	treu	559	0	0	0	0	0	0	0	0	0	0	0	0	0	0	0	0	0	0	0	0	0	0	0	0	0	0	0	0	0	0	0	0	0	0	0	0	0	0	0
082719	10:05:00	10:13:49	527984	5.0.10.0	5_exp_noRW	114	Rpleas_acq	CS_B	MQQM	JXXJ	VKKV	YDDY	GWWG	BZZB	fair	ehrlich	schön	retten	treu	spielen	faul	eitel	schlecht	rächen	tot	strafen	53pct	acq_USunple_CSunple1_noRW	acq23456_noRW	3	62	0	0	300	300	693	46	0	1	1	blank2r.bmp	0	1	+	0	1	blank2r.bmp	252	1	VKKV	306	2	eitel	559	0	0	0	0	0	0	0	0	0	0	0	0	0	0	0	0	0	0	0	0	0	0	0	0	0	0	0	0	0	0	0	0	0	0	0	0	0	0	0
082719	10:05:00	10:13:51	529650	5.0.10.0	5_exp_noRW	114	Rpleas_acq	CS_B	MQQM	JXXJ	VKKV	YDDY	GWWG	BZZB	fair	ehrlich	schön	retten	treu	spielen	faul	eitel	schlecht	rächen	tot	strafen	47pct	acq_USunple_CSunple2_noRW	acq23456_noRW	3	63	0	0	300	300	492	46	0	1	1	blank2r.bmp	0	1	+	0	1	blank2r.bmp	252	1	YDDY	306	2	tot	559	0	0	0	0	0	0	0	0	0	0	0	0	0	0	0	0	0	0	0	0	0	0	0	0	0	0	0	0	0	0	0	0	0	0	0	0	0	0	0
082719	10:05:00	10:13:52	531222	5.0.10.0	5_exp_noRW	114	Rpleas_acq	CS_B	MQQM	JXXJ	VKKV	YDDY	GWWG	BZZB	fair	ehrlich	schön	retten	treu	spielen	faul	eitel	schlecht	rächen	tot	strafen	47pct	acq_USunple_CSunple2_noRW	acq23456_noRW	3	64	0	0	300	300	409	46	0	1	1	blank2r.bmp	0	1	+	0	1	blank2r.bmp	252	1	YDDY	306	3	strafen	559	0	0	0	0	0	0	0	0	0	0	0	0	0	0	0	0	0	0	0	0	0	0	0	0	0	0	0	0	0	0	0	0	0	0	0	0	0	0	0
082719	10:05:00	10:13:54	532995	5.0.10.0	5_exp_noRW	114	Rpleas_acq	CS_B	MQQM	JXXJ	VKKV	YDDY	GWWG	BZZB	fair	ehrlich	schön	retten	treu	spielen	faul	eitel	schlecht	rächen	tot	strafen	47pct	acq_USpleas_CSpleas2_noRW	acq23456_noRW	3	65	0	0	300	300	589	50	0	1	1	blank2r.bmp	0	1	+	0	1	blank2r.bmp	252	1	JXXJ	306	2	treu	559	0	0	0	0	0	0	0	0	0	0	0	0	0	0	0	0	0	0	0	0	0	0	0	0	0	0	0	0	0	0	0	0	0	0	0	0	0	0	0
082719	10:05:00	10:13:56	534754	5.0.10.0	5_exp_noRW	114	Rpleas_acq	CS_B	MQQM	JXXJ	VKKV	YDDY	GWWG	BZZB	fair	ehrlich	schön	retten	treu	spielen	faul	eitel	schlecht	rächen	tot	strafen	47pct	acq_USpleas_CSpleas1_noRW	acq23456_noRW	3	66	0	0	300	300	594	50	0	1	1	blank2r.bmp	0	1	+	0	1	blank2r.bmp	252	1	MQQM	306	2	ehrlich	559	0	0	0	0	0	0	0	0	0	0	0	0	0	0	0	0	0	0	0	0	0	0	0	0	0	0	0	0	0	0	0	0	0	0	0	0	0	0	0
082719	10:05:00	10:13:57	536540	5.0.10.0	5_exp_noRW	114	Rpleas_acq	CS_B	MQQM	JXXJ	VKKV	YDDY	GWWG	BZZB	fair	ehrlich	schön	retten	treu	spielen	faul	eitel	schlecht	rächen	tot	strafen	53pct	acq_USpleas_CSpleas2_noRW	acq23456_noRW	3	67	0	0	300	300	605	50	0	1	1	blank2r.bmp	0	1	+	0	1	blank2r.bmp	252	1	JXXJ	306	2	treu	559	0	0	0	0	0	0	0	0	0	0	0	0	0	0	0	0	0	0	0	0	0	0	0	0	0	0	0	0	0	0	0	0	0	0	0	0	0	0	0
082719	10:05:00	10:13:59	538233	5.0.10.0	5_exp_noRW	114	Rpleas_acq	CS_B	MQQM	JXXJ	VKKV	YDDY	GWWG	BZZB	fair	ehrlich	schön	retten	treu	spielen	faul	eitel	schlecht	rächen	tot	strafen	47pct	acq_USunple_CSunple2_noRW	acq23456_noRW	3	68	0	0	300	300	514	46	0	1	1	blank2r.bmp	0	1	+	0	1	blank2r.bmp	252	1	YDDY	306	1	rächen	559	0	0	0	0	0	0	0	0	0	0	0	0	0	0	0	0	0	0	0	0	0	0	0	0	0	0	0	0	0	0	0	0	0	0	0	0	0	0	0
082719	10:05:00	10:14:01	540072	5.0.10.0	5_exp_noRW	114	Rpleas_acq	CS_B	MQQM	JXXJ	VKKV	YDDY	GWWG	BZZB	fair	ehrlich	schön	retten	treu	spielen	faul	eitel	schlecht	rächen	tot	strafen	53pct	acq_USunple_CSunple1_noRW	acq23456_noRW	3	69	0	0	300	300	672	46	0	1	1	blank2r.bmp	0	1	+	0	1	blank2r.bmp	252	1	VKKV	306	2	eitel	559	0	0	0	0	0	0	0	0	0	0	0	0	0	0	0	0	0	0	0	0	0	0	0	0	0	0	0	0	0	0	0	0	0	0	0	0	0	0	0
082719	10:05:00	10:14:03	541911	5.0.10.0	5_exp_noRW	114	Rpleas_acq	CS_B	MQQM	JXXJ	VKKV	YDDY	GWWG	BZZB	fair	ehrlich	schön	retten	treu	spielen	faul	eitel	schlecht	rächen	tot	strafen	53pct	acq_USpleas_CSpleas2_noRW	acq23456_noRW	3	70	0	0	300	300	676	50	0	1	1	blank2r.bmp	0	1	+	0	1	blank2r.bmp	252	1	JXXJ	306	1	retten	559	0	0	0	0	0	0	0	0	0	0	0	0	0	0	0	0	0	0	0	0	0	0	0	0	0	0	0	0	0	0	0	0	0	0	0	0	0	0	0
082719	10:05:00	10:14:05	543684	5.0.10.0	5_exp_noRW	114	Rpleas_acq	CS_B	MQQM	JXXJ	VKKV	YDDY	GWWG	BZZB	fair	ehrlich	schön	retten	treu	spielen	faul	eitel	schlecht	rächen	tot	strafen	53pct	acq_USunple_CSunple1_noRW	acq23456_noRW	3	71	0	0	300	300	599	46	0	1	1	blank2r.bmp	0	1	+	0	1	blank2r.bmp	252	1	VKKV	306	1	faul	559	0	0	0	0	0	0	0	0	0	0	0	0	0	0	0	0	0	0	0	0	0	0	0	0	0	0	0	0	0	0	0	0	0	0	0	0	0	0	0
082719	10:05:00	10:14:07	545656	5.0.10.0	5_exp_noRW	114	Rpleas_acq	CS_B	MQQM	JXXJ	VKKV	YDDY	GWWG	BZZB	fair	ehrlich	schön	retten	treu	spielen	faul	eitel	schlecht	rächen	tot	strafen	47pct	acq_USunple_CSunple1_noRW	acq23456_noRW	3	72	0	0	300	300	799	46	0	1	1	blank2r.bmp	0	1	+	0	1	blank2r.bmp	252	1	VKKV	306	3	schlecht	559	0	0	0	0	0	0	0	0	0	0	0	0	0	0	0	0	0	0	0	0	0	0	0	0	0	0	0	0	0	0	0	0	0	0	0	0	0	0	0
082719	10:05:00	10:14:08	547349	5.0.10.0	5_exp_noRW	114	Rpleas_acq	CS_B	MQQM	JXXJ	VKKV	YDDY	GWWG	BZZB	fair	ehrlich	schön	retten	treu	spielen	faul	eitel	schlecht	rächen	tot	strafen	47pct	acq_USunple_CSpleas2_noRW	acq23456_noRW	3	73	0	0	300	300	529	46	0	1	1	blank2r.bmp	0	1	+	0	1	blank2r.bmp	252	1	JXXJ	306	1	rächen	559	0	0	0	0	0	0	0	0	0	0	0	0	0	0	0	0	0	0	0	0	0	0	0	0	0	0	0	0	0	0	0	0	0	0	0	0	0	0	0
082719	10:05:00	10:14:10	549042	5.0.10.0	5_exp_noRW	114	Rpleas_acq	CS_B	MQQM	JXXJ	VKKV	YDDY	GWWG	BZZB	fair	ehrlich	schön	retten	treu	spielen	faul	eitel	schlecht	rächen	tot	strafen	47pct	acq_USpleas_CSunple1_noRW	acq23456_noRW	3	74	0	0	300	300	507	50	0	1	1	blank2r.bmp	0	1	+	0	1	blank2r.bmp	252	1	VKKV	306	1	fair	559	0	0	0	0	0	0	0	0	0	0	0	0	0	0	0	0	0	0	0	0	0	0	0	0	0	0	0	0	0	0	0	0	0	0	0	0	0	0	0
082719	10:05:00	10:14:12	550974	5.0.10.0	5_exp_noRW	114	Rpleas_acq	CS_B	MQQM	JXXJ	VKKV	YDDY	GWWG	BZZB	fair	ehrlich	schön	retten	treu	spielen	faul	eitel	schlecht	rächen	tot	strafen	47pct	acq_USunple_CSunple2_noRW	acq23456_noRW	3	75	0	0	300	300	768	46	0	1	1	blank2r.bmp	0	1	+	0	1	blank2r.bmp	252	1	YDDY	306	2	tot	559	0	0	0	0	0	0	0	0	0	0	0	0	0	0	0	0	0	0	0	0	0	0	0	0	0	0	0	0	0	0	0	0	0	0	0	0	0	0	0
082719	10:05:00	10:14:14	553440	5.0.10.0	5_exp_noRW	114	Rpleas_acq	CS_B	MQQM	JXXJ	VKKV	YDDY	GWWG	BZZB	fair	ehrlich	schön	retten	treu	spielen	faul	eitel	schlecht	rächen	tot	strafen	53pct	acq_USpleas_CSpleas1_noRW	acq23456_noRW	3	76	0	0	300	300	1278	50	0	1	1	blank2r.bmp	0	1	+	0	1	blank2r.bmp	252	1	MQQM	306	2	ehrlich	559	0	0	0	0	0	0	0	0	0	0	0	0	0	0	0	0	0	0	0	0	0	0	0	0	0	0	0	0	0	0	0	0	0	0	0	0	0	0	0
082719	10:05:00	10:14:16	555186	5.0.10.0	5_exp_noRW	114	Rpleas_acq	CS_B	MQQM	JXXJ	VKKV	YDDY	GWWG	BZZB	fair	ehrlich	schön	retten	treu	spielen	faul	eitel	schlecht	rächen	tot	strafen	53pct	acq_USpleas_CSpleas1_noRW	acq23456_noRW	3	77	0	0	300	300	578	50	0	1	1	blank2r.bmp	0	1	+	0	1	blank2r.bmp	252	1	MQQM	306	1	fair	559	0	0	0	0	0	0	0	0	0	0	0	0	0	0	0	0	0	0	0	0	0	0	0	0	0	0	0	0	0	0	0	0	0	0	0	0	0	0	0
082719	10:05:00	10:14:18	556945	5.0.10.0	5_exp_noRW	114	Rpleas_acq	CS_B	MQQM	JXXJ	VKKV	YDDY	GWWG	BZZB	fair	ehrlich	schön	retten	treu	spielen	faul	eitel	schlecht	rächen	tot	strafen	53pct	acq_USunple_CSpleas1_noRW	acq23456_noRW	3	78	0	0	300	300	580	46	0	1	1	blank2r.bmp	0	1	+	0	1	blank2r.bmp	252	1	MQQM	306	1	faul	559	0	0	0	0	0	0	0	0	0	0	0	0	0	0	0	0	0	0	0	0	0	0	0	0	0	0	0	0	0	0	0	0	0	0	0	0	0	0	0
082719	10:05:00	10:14:22	560637	5.0.10.0	5_exp_noRW	114	Rpleas_acq	CS_B	MQQM	JXXJ	VKKV	YDDY	GWWG	BZZB	fair	ehrlich	schön	retten	treu	spielen	faul	eitel	schlecht	rächen	tot	strafen	47pct	acq_USpleas_CSpleas1_noRW	acq23456_noRW	3	79	0	0	300	300	2000	0	0	0	1	blank2r.bmp	0	1	+	0	1	blank2r.bmp	252	1	MQQM	306	3	schön	559	1	FEHLER	2598	1	Schneller!	2598	0	0	0	0	0	0	0	0	0	0	0	0	0	0	0	0	0	0	0	0	0	0	0	0	0	0	0	0	0	0	0	0	0
082719	10:05:00	10:14:23	561970	5.0.10.0	5_exp_noRW	114	Rpleas_acq	CS_B	MQQM	JXXJ	VKKV	YDDY	GWWG	BZZB	fair	ehrlich	schön	retten	treu	spielen	faul	eitel	schlecht	rächen	tot	strafen	47pct	acq_USpleas_CSpleas2_noRW	acq23456_noRW	3	80	0	0	300	300	428	50	0	1	1	blank2r.bmp	0	1	+	0	1	blank2r.bmp	252	1	JXXJ	306	3	spielen	559	0	0	0	0	0	0	0	0	0	0	0	0	0	0	0	0	0	0	0	0	0	0	0	0	0	0	0	0	0	0	0	0	0	0	0	0	0	0	0
082719	10:05:00	10:14:38	577510	5.0.10.0	5_exp_noRW	114	Rpleas_acq	CS_B	MQQM	JXXJ	VKKV	YDDY	GWWG	BZZB	fair	ehrlich	schön	retten	treu	spielen	faul	eitel	schlecht	rächen	tot	strafen	53pct	acq_USunple_CSpleas2_noRW	acq23456_noRW	4	1	0	0	300	300	619	46	0	1	1	blank2r.bmp	0	1	+	0	1	blank2r.bmp	252	1	JXXJ	306	2	tot	559	0	0	0	0	0	0	0	0	0	0	0	0	0	0	0	0	0	0	0	0	0	0	0	0	0	0	0	0	0	0	0	0	0	0	0	0	0	0	0
082719	10:05:00	10:14:40	579229	5.0.10.0	5_exp_noRW	114	Rpleas_acq	CS_B	MQQM	JXXJ	VKKV	YDDY	GWWG	BZZB	fair	ehrlich	schön	retten	treu	spielen	faul	eitel	schlecht	rächen	tot	strafen	53pct	acq_USunple_CSunple2_noRW	acq23456_noRW	4	2	0	0	300	300	550	46	0	1	1	blank2r.bmp	0	1	+	0	1	blank2r.bmp	252	1	YDDY	306	3	strafen	559	0	0	0	0	0	0	0	0	0	0	0	0	0	0	0	0	0	0	0	0	0	0	0	0	0	0	0	0	0	0	0	0	0	0	0	0	0	0	0
082719	10:05:00	10:14:42	581095	5.0.10.0	5_exp_noRW	114	Rpleas_acq	CS_B	MQQM	JXXJ	VKKV	YDDY	GWWG	BZZB	fair	ehrlich	schön	retten	treu	spielen	faul	eitel	schlecht	rächen	tot	strafen	47pct	acq_USunple_CSunple2_noRW	acq23456_noRW	4	3	0	0	300	300	703	46	0	1	1	blank2r.bmp	0	1	+	0	1	blank2r.bmp	252	1	YDDY	306	1	rächen	559	0	0	0	0	0	0	0	0	0	0	0	0	0	0	0	0	0	0	0	0	0	0	0	0	0	0	0	0	0	0	0	0	0	0	0	0	0	0	0
082719	10:05:00	10:14:44	582721	5.0.10.0	5_exp_noRW	114	Rpleas_acq	CS_B	MQQM	JXXJ	VKKV	YDDY	GWWG	BZZB	fair	ehrlich	schön	retten	treu	spielen	faul	eitel	schlecht	rächen	tot	strafen	53pct	acq_USunple_CSunple1_noRW	acq23456_noRW	4	4	0	0	300	300	442	46	0	1	1	blank2r.bmp	0	1	+	0	1	blank2r.bmp	252	1	VKKV	306	1	faul	559	0	0	0	0	0	0	0	0	0	0	0	0	0	0	0	0	0	0	0	0	0	0	0	0	0	0	0	0	0	0	0	0	0	0	0	0	0	0	0
082719	10:05:00	10:14:45	584427	5.0.10.0	5_exp_noRW	114	Rpleas_acq	CS_B	MQQM	JXXJ	VKKV	YDDY	GWWG	BZZB	fair	ehrlich	schön	retten	treu	spielen	faul	eitel	schlecht	rächen	tot	strafen	53pct	acq_USpleas_CSpleas2_noRW	acq23456_noRW	4	5	0	0	300	300	532	50	0	1	1	blank2r.bmp	0	1	+	0	1	blank2r.bmp	252	1	JXXJ	306	3	spielen	559	0	0	0	0	0	0	0	0	0	0	0	0	0	0	0	0	0	0	0	0	0	0	0	0	0	0	0	0	0	0	0	0	0	0	0	0	0	0	0
082719	10:05:00	10:14:47	586040	5.0.10.0	5_exp_noRW	114	Rpleas_acq	CS_B	MQQM	JXXJ	VKKV	YDDY	GWWG	BZZB	fair	ehrlich	schön	retten	treu	spielen	faul	eitel	schlecht	rächen	tot	strafen	47pct	acq_USpleas_CSpleas1_noRW	acq23456_noRW	4	6	0	0	300	300	448	50	0	1	1	blank2r.bmp	0	1	+	0	1	blank2r.bmp	252	1	MQQM	306	3	schön	559	0	0	0	0	0	0	0	0	0	0	0	0	0	0	0	0	0	0	0	0	0	0	0	0	0	0	0	0	0	0	0	0	0	0	0	0	0	0	0
082719	10:05:00	10:14:49	587599	5.0.10.0	5_exp_noRW	114	Rpleas_acq	CS_B	MQQM	JXXJ	VKKV	YDDY	GWWG	BZZB	fair	ehrlich	schön	retten	treu	spielen	faul	eitel	schlecht	rächen	tot	strafen	53pct	acq_USunple_CSunple2_noRW	acq23456_noRW	4	7	0	0	300	300	375	46	0	1	1	blank2r.bmp	0	1	+	0	1	blank2r.bmp	252	1	YDDY	306	2	tot	559	0	0	0	0	0	0	0	0	0	0	0	0	0	0	0	0	0	0	0	0	0	0	0	0	0	0	0	0	0	0	0	0	0	0	0	0	0	0	0
082719	10:05:00	10:14:51	589652	5.0.10.0	5_exp_noRW	114	Rpleas_acq	CS_B	MQQM	JXXJ	VKKV	YDDY	GWWG	BZZB	fair	ehrlich	schön	retten	treu	spielen	faul	eitel	schlecht	rächen	tot	strafen	53pct	acq_USpleas_CSpleas2_noRW	acq23456_noRW	4	8	0	0	300	300	876	50	0	1	1	blank2r.bmp	0	1	+	0	1	blank2r.bmp	252	1	JXXJ	306	1	retten	559	0	0	0	0	0	0	0	0	0	0	0	0	0	0	0	0	0	0	0	0	0	0	0	0	0	0	0	0	0	0	0	0	0	0	0	0	0	0	0
082719	10:05:00	10:14:52	591264	5.0.10.0	5_exp_noRW	114	Rpleas_acq	CS_B	MQQM	JXXJ	VKKV	YDDY	GWWG	BZZB	fair	ehrlich	schön	retten	treu	spielen	faul	eitel	schlecht	rächen	tot	strafen	47pct	acq_USunple_CSunple2_noRW	acq23456_noRW	4	9	0	0	300	300	435	46	0	1	1	blank2r.bmp	0	1	+	0	1	blank2r.bmp	252	1	YDDY	306	3	strafen	559	0	0	0	0	0	0	0	0	0	0	0	0	0	0	0	0	0	0	0	0	0	0	0	0	0	0	0	0	0	0	0	0	0	0	0	0	0	0	0
