date	time	script.currenttime	script.elapsedtime	build	script.currentexpt	subject	expressions.LRpleas_acq	expressions.conditionCS_A	expressions.CSpleas_1	expressions.CSpleas_2	expressions.CSunple_1	expressions.CSunple_2	expressions.distractor_1	expressions.distractor_2	expressions.US_pleas1	expressions.US_pleas2	expressions.US_pleas3	expressions.US_pleas4	expressions.US_pleas5	expressions.US_pleas6	expressions.US_unple1	expressions.US_unple2	expressions.US_unple3	expressions.US_unple4	expressions.US_unple5	expressions.US_unple6	counter.positions_noRW	trialcode	blockcode	blocknum	trialnum	windowcenter	inwindow	pretrialpause	posttrialpause	latency	response	expressions.correctedscore	correct	stimulusnumber1	stimulusitem1	stimulusonset1	stimulusnumber2	stimulusitem2	stimulusonset2	stimulusnumber3	stimulusitem3	stimulusonset3	stimulusnumber4	stimulusitem4	stimulusonset4	stimulusnumber5	stimulusitem5	stimulusonset5	stimulusnumber6	stimulusitem6	stimulusonset6	stimulusnumber7	stimulusitem7	stimulusonset7	stimulusnumber8	stimulusitem8	stimulusonset8	stimulusnumber9	stimulusitem9	stimulusonset9	stimulusnumber10	stimulusitem10	stimulusonset10	stimulusnumber11	stimulusitem11	stimulusonset11	stimulusnumber12	stimulusitem12	stimulusonset12	stimulusnumber13	stimulusitem13	stimulusonset13	stimulusnumber14	stimulusitem14	stimulusonset14	stimulusnumber15	stimulusitem15	stimulusonset15	stimulusnumber16	stimulusitem16	stimulusonset16	stimulusnumber17	stimulusitem17	stimulusonset17	stimulusnumber18	stimulusitem18	stimulusonset18
071619	16:43:43	16:45:39	115299	5.0.10.0	5_exp_noRW	58	Rpleas_acq	CS_B	JXXJ	YDDY	GWWG	BZZB	MQQM	VKKV	treu	retten	spielen	schön	ehrlich	fair	tot	rächen	strafen	schlecht	eitel	faul	53pct	acq_USpleas_CSpleas2_noRW	acq1_noRW	1	1	0	0	300	300	1380	46	0	0	1	blank2r.bmp	0	1	+	0	1	blank2r.bmp	252	1	YDDY	306	2	ehrlich	559	1	FEHLER	1972	0	0	0	0	0	0	0	0	0	0	0	0	0	0	0	0	0	0	0	0	0	0	0	0	0	0	0	0	0	0	0	0	0	0	0	0
071619	16:43:43	16:45:41	116978	5.0.10.0	5_exp_noRW	58	Rpleas_acq	CS_B	JXXJ	YDDY	GWWG	BZZB	MQQM	VKKV	treu	retten	spielen	schön	ehrlich	fair	tot	rächen	strafen	schlecht	eitel	faul	53pct	acq_USunple_CSunple2_noRW	acq1_noRW	1	2	0	0	300	300	495	50	0	0	1	blank2r.bmp	0	1	+	0	1	blank2r.bmp	252	1	BZZB	306	1	schlecht	559	1	FEHLER	1092	0	0	0	0	0	0	0	0	0	0	0	0	0	0	0	0	0	0	0	0	0	0	0	0	0	0	0	0	0	0	0	0	0	0	0	0
071619	16:43:43	16:45:44	120457	5.0.10.0	5_exp_noRW	58	Rpleas_acq	CS_B	JXXJ	YDDY	GWWG	BZZB	MQQM	VKKV	treu	retten	spielen	schön	ehrlich	fair	tot	rächen	strafen	schlecht	eitel	faul	53pct	acq_USpleas_CSpleas1_noRW	acq1_noRW	1	3	0	0	300	300	2000	0	0	0	1	blank2r.bmp	0	1	+	0	1	blank2r.bmp	252	1	JXXJ	306	2	retten	559	1	FEHLER	2598	1	Schneller!	2598	0	0	0	0	0	0	0	0	0	0	0	0	0	0	0	0	0	0	0	0	0	0	0	0	0	0	0	0	0	0	0	0	0
071619	16:43:43	16:45:46	122429	5.0.10.0	5_exp_noRW	58	Rpleas_acq	CS_B	JXXJ	YDDY	GWWG	BZZB	MQQM	VKKV	treu	retten	spielen	schön	ehrlich	fair	tot	rächen	strafen	schlecht	eitel	faul	53pct	acq_USunple_CSpleas1_noRW	acq1_noRW	1	4	0	0	300	300	1084	46	0	1	1	blank2r.bmp	0	1	+	0	1	blank2r.bmp	252	1	JXXJ	306	1	tot	559	0	0	0	0	0	0	0	0	0	0	0	0	0	0	0	0	0	0	0	0	0	0	0	0	0	0	0	0	0	0	0	0	0	0	0	0	0	0	0
071619	16:43:43	16:45:48	124308	5.0.10.0	5_exp_noRW	58	Rpleas_acq	CS_B	JXXJ	YDDY	GWWG	BZZB	MQQM	VKKV	treu	retten	spielen	schön	ehrlich	fair	tot	rächen	strafen	schlecht	eitel	faul	47pct	acq_USpleas_CSunple2_noRW	acq1_noRW	1	5	0	0	300	300	716	50	0	1	1	blank2r.bmp	0	1	+	0	1	blank2r.bmp	252	1	BZZB	306	2	ehrlich	559	0	0	0	0	0	0	0	0	0	0	0	0	0	0	0	0	0	0	0	0	0	0	0	0	0	0	0	0	0	0	0	0	0	0	0	0	0	0	0
071619	16:43:43	16:45:50	126361	5.0.10.0	5_exp_noRW	58	Rpleas_acq	CS_B	JXXJ	YDDY	GWWG	BZZB	MQQM	VKKV	treu	retten	spielen	schön	ehrlich	fair	tot	rächen	strafen	schlecht	eitel	faul	53pct	acq_USunple_CSunple2_noRW	acq1_noRW	1	6	0	0	300	300	653	50	0	0	1	blank2r.bmp	0	1	+	0	1	blank2r.bmp	252	1	BZZB	306	2	eitel	559	1	FEHLER	1252	0	0	0	0	0	0	0	0	0	0	0	0	0	0	0	0	0	0	0	0	0	0	0	0	0	0	0	0	0	0	0	0	0	0	0	0
071619	16:43:43	16:45:52	128120	5.0.10.0	5_exp_noRW	58	Rpleas_acq	CS_B	JXXJ	YDDY	GWWG	BZZB	MQQM	VKKV	treu	retten	spielen	schön	ehrlich	fair	tot	rächen	strafen	schlecht	eitel	faul	47pct	acq_USpleas_CSpleas2_noRW	acq1_noRW	1	7	0	0	300	300	573	46	0	0	1	blank2r.bmp	0	1	+	0	1	blank2r.bmp	252	1	YDDY	306	1	schön	559	1	FEHLER	1172	0	0	0	0	0	0	0	0	0	0	0	0	0	0	0	0	0	0	0	0	0	0	0	0	0	0	0	0	0	0	0	0	0	0	0	0
071619	16:43:43	16:45:54	129933	5.0.10.0	5_exp_noRW	58	Rpleas_acq	CS_B	JXXJ	YDDY	GWWG	BZZB	MQQM	VKKV	treu	retten	spielen	schön	ehrlich	fair	tot	rächen	strafen	schlecht	eitel	faul	53pct	acq_USpleas_CSpleas1_noRW	acq1_noRW	1	8	0	0	300	300	862	50	0	1	1	blank2r.bmp	0	1	+	0	1	blank2r.bmp	252	1	JXXJ	306	1	treu	559	0	0	0	0	0	0	0	0	0	0	0	0	0	0	0	0	0	0	0	0	0	0	0	0	0	0	0	0	0	0	0	0	0	0	0	0	0	0	0
071619	16:43:43	16:45:56	131679	5.0.10.0	5_exp_noRW	58	Rpleas_acq	CS_B	JXXJ	YDDY	GWWG	BZZB	MQQM	VKKV	treu	retten	spielen	schön	ehrlich	fair	tot	rächen	strafen	schlecht	eitel	faul	47pct	acq_USunple_CSunple1_noRW	acq1_noRW	1	9	0	0	300	300	569	46	0	1	1	blank2r.bmp	0	1	+	0	1	blank2r.bmp	252	1	GWWG	306	1	tot	559	0	0	0	0	0	0	0	0	0	0	0	0	0	0	0	0	0	0	0	0	0	0	0	0	0	0	0	0	0	0	0	0	0	0	0	0	0	0	0
071619	16:43:43	16:45:57	133398	5.0.10.0	5_exp_noRW	58	Rpleas_acq	CS_B	JXXJ	YDDY	GWWG	BZZB	MQQM	VKKV	treu	retten	spielen	schön	ehrlich	fair	tot	rächen	strafen	schlecht	eitel	faul	47pct	acq_USunple_CSpleas2_noRW	acq1_noRW	1	10	0	0	300	300	541	46	0	1	1	blank2r.bmp	0	1	+	0	1	blank2r.bmp	252	1	YDDY	306	3	faul	559	0	0	0	0	0	0	0	0	0	0	0	0	0	0	0	0	0	0	0	0	0	0	0	0	0	0	0	0	0	0	0	0	0	0	0	0	0	0	0
071619	16:43:43	16:45:59	135091	5.0.10.0	5_exp_noRW	58	Rpleas_acq	CS_B	JXXJ	YDDY	GWWG	BZZB	MQQM	VKKV	treu	retten	spielen	schön	ehrlich	fair	tot	rächen	strafen	schlecht	eitel	faul	47pct	acq_USpleas_CSpleas1_noRW	acq1_noRW	1	11	0	0	300	300	509	50	0	1	1	blank2r.bmp	0	1	+	0	1	blank2r.bmp	252	1	JXXJ	306	3	spielen	559	0	0	0	0	0	0	0	0	0	0	0	0	0	0	0	0	0	0	0	0	0	0	0	0	0	0	0	0	0	0	0	0	0	0	0	0	0	0	0
071619	16:43:43	16:46:01	136837	5.0.10.0	5_exp_noRW	58	Rpleas_acq	CS_B	JXXJ	YDDY	GWWG	BZZB	MQQM	VKKV	treu	retten	spielen	schön	ehrlich	fair	tot	rächen	strafen	schlecht	eitel	faul	53pct	acq_USunple_CSunple2_noRW	acq1_noRW	1	12	0	0	300	300	572	46	0	1	1	blank2r.bmp	0	1	+	0	1	blank2r.bmp	252	1	BZZB	306	3	faul	559	0	0	0	0	0	0	0	0	0	0	0	0	0	0	0	0	0	0	0	0	0	0	0	0	0	0	0	0	0	0	0	0	0	0	0	0	0	0	0
071619	16:43:43	16:46:03	138662	5.0.10.0	5_exp_noRW	58	Rpleas_acq	CS_B	JXXJ	YDDY	GWWG	BZZB	MQQM	VKKV	treu	retten	spielen	schön	ehrlich	fair	tot	rächen	strafen	schlecht	eitel	faul	53pct	acq_USpleas_CSpleas2_noRW	acq1_noRW	1	13	0	0	300	300	658	50	0	1	1	blank2r.bmp	0	1	+	0	1	blank2r.bmp	252	1	YDDY	306	3	fair	559	0	0	0	0	0	0	0	0	0	0	0	0	0	0	0	0	0	0	0	0	0	0	0	0	0	0	0	0	0	0	0	0	0	0	0	0	0	0	0
071619	16:43:43	16:46:04	140395	5.0.10.0	5_exp_noRW	58	Rpleas_acq	CS_B	JXXJ	YDDY	GWWG	BZZB	MQQM	VKKV	treu	retten	spielen	schön	ehrlich	fair	tot	rächen	strafen	schlecht	eitel	faul	53pct	acq_USunple_CSunple2_noRW	acq1_noRW	1	14	0	0	300	300	566	46	0	1	1	blank2r.bmp	0	1	+	0	1	blank2r.bmp	252	1	BZZB	306	1	schlecht	559	0	0	0	0	0	0	0	0	0	0	0	0	0	0	0	0	0	0	0	0	0	0	0	0	0	0	0	0	0	0	0	0	0	0	0	0	0	0	0
071619	16:43:43	16:46:06	142434	5.0.10.0	5_exp_noRW	58	Rpleas_acq	CS_B	JXXJ	YDDY	GWWG	BZZB	MQQM	VKKV	treu	retten	spielen	schön	ehrlich	fair	tot	rächen	strafen	schlecht	eitel	faul	53pct	acq_USpleas_CSunple1_noRW	acq1_noRW	1	15	0	0	300	300	664	46	0	0	1	blank2r.bmp	0	1	+	0	1	blank2r.bmp	252	1	GWWG	306	3	spielen	559	1	FEHLER	1252	0	0	0	0	0	0	0	0	0	0	0	0	0	0	0	0	0	0	0	0	0	0	0	0	0	0	0	0	0	0	0	0	0	0	0	0
071619	16:43:43	16:46:08	144114	5.0.10.0	5_exp_noRW	58	Rpleas_acq	CS_B	JXXJ	YDDY	GWWG	BZZB	MQQM	VKKV	treu	retten	spielen	schön	ehrlich	fair	tot	rächen	strafen	schlecht	eitel	faul	47pct	acq_USpleas_CSpleas2_noRW	acq1_noRW	1	16	0	0	300	300	501	46	0	0	1	blank2r.bmp	0	1	+	0	1	blank2r.bmp	252	1	YDDY	306	2	ehrlich	559	1	FEHLER	1092	0	0	0	0	0	0	0	0	0	0	0	0	0	0	0	0	0	0	0	0	0	0	0	0	0	0	0	0	0	0	0	0	0	0	0	0
071619	16:43:43	16:46:10	145806	5.0.10.0	5_exp_noRW	58	Rpleas_acq	CS_B	JXXJ	YDDY	GWWG	BZZB	MQQM	VKKV	treu	retten	spielen	schön	ehrlich	fair	tot	rächen	strafen	schlecht	eitel	faul	53pct	acq_USunple_CSunple1_noRW	acq1_noRW	1	17	0	0	300	300	728	46	0	1	1	blank2r.bmp	0	1	+	0	1	blank2r.bmp	252	1	GWWG	306	3	strafen	559	0	0	0	0	0	0	0	0	0	0	0	0	0	0	0	0	0	0	0	0	0	0	0	0	0	0	0	0	0	0	0	0	0	0	0	0	0	0	0
071619	16:43:43	16:46:11	147459	5.0.10.0	5_exp_noRW	58	Rpleas_acq	CS_B	JXXJ	YDDY	GWWG	BZZB	MQQM	VKKV	treu	retten	spielen	schön	ehrlich	fair	tot	rächen	strafen	schlecht	eitel	faul	53pct	acq_USpleas_CSpleas1_noRW	acq1_noRW	1	18	0	0	300	300	473	50	0	1	1	blank2r.bmp	0	1	+	0	1	blank2r.bmp	252	1	JXXJ	306	1	treu	559	0	0	0	0	0	0	0	0	0	0	0	0	0	0	0	0	0	0	0	0	0	0	0	0	0	0	0	0	0	0	0	0	0	0	0	0	0	0	0
071619	16:43:43	16:46:13	149165	5.0.10.0	5_exp_noRW	58	Rpleas_acq	CS_B	JXXJ	YDDY	GWWG	BZZB	MQQM	VKKV	treu	retten	spielen	schön	ehrlich	fair	tot	rächen	strafen	schlecht	eitel	faul	47pct	acq_USunple_CSunple1_noRW	acq1_noRW	1	19	0	0	300	300	530	46	0	1	1	blank2r.bmp	0	1	+	0	1	blank2r.bmp	252	1	GWWG	306	2	rächen	559	0	0	0	0	0	0	0	0	0	0	0	0	0	0	0	0	0	0	0	0	0	0	0	0	0	0	0	0	0	0	0	0	0	0	0	0	0	0	0
071619	16:43:43	16:46:15	150911	5.0.10.0	5_exp_noRW	58	Rpleas_acq	CS_B	JXXJ	YDDY	GWWG	BZZB	MQQM	VKKV	treu	retten	spielen	schön	ehrlich	fair	tot	rächen	strafen	schlecht	eitel	faul	47pct	acq_USunple_CSunple1_noRW	acq1_noRW	1	20	0	0	300	300	563	46	0	1	1	blank2r.bmp	0	1	+	0	1	blank2r.bmp	252	1	GWWG	306	3	strafen	559	0	0	0	0	0	0	0	0	0	0	0	0	0	0	0	0	0	0	0	0	0	0	0	0	0	0	0	0	0	0	0	0	0	0	0	0	0	0	0
071619	16:43:43	16:46:16	152497	5.0.10.0	5_exp_noRW	58	Rpleas_acq	CS_B	JXXJ	YDDY	GWWG	BZZB	MQQM	VKKV	treu	retten	spielen	schön	ehrlich	fair	tot	rächen	strafen	schlecht	eitel	faul	53pct	acq_USpleas_CSpleas2_noRW	acq1_noRW	1	21	0	0	300	300	422	50	0	1	1	blank2r.bmp	0	1	+	0	1	blank2r.bmp	252	1	YDDY	306	1	schön	559	0	0	0	0	0	0	0	0	0	0	0	0	0	0	0	0	0	0	0	0	0	0	0	0	0	0	0	0	0	0	0	0	0	0	0	0	0	0	0
071619	16:43:43	16:46:18	154403	5.0.10.0	5_exp_noRW	58	Rpleas_acq	CS_B	JXXJ	YDDY	GWWG	BZZB	MQQM	VKKV	treu	retten	spielen	schön	ehrlich	fair	tot	rächen	strafen	schlecht	eitel	faul	53pct	acq_USpleas_CSunple1_noRW	acq1_noRW	1	22	0	0	300	300	509	46	0	0	1	blank2r.bmp	0	1	+	0	1	blank2r.bmp	252	1	GWWG	306	1	treu	559	1	FEHLER	1106	0	0	0	0	0	0	0	0	0	0	0	0	0	0	0	0	0	0	0	0	0	0	0	0	0	0	0	0	0	0	0	0	0	0	0	0
071619	16:43:43	16:46:20	156269	5.0.10.0	5_exp_noRW	58	Rpleas_acq	CS_B	JXXJ	YDDY	GWWG	BZZB	MQQM	VKKV	treu	retten	spielen	schön	ehrlich	fair	tot	rächen	strafen	schlecht	eitel	faul	47pct	acq_USunple_CSunple2_noRW	acq1_noRW	1	23	0	0	300	300	694	50	0	0	1	blank2r.bmp	0	1	+	0	1	blank2r.bmp	252	1	BZZB	306	2	eitel	559	1	FEHLER	1292	0	0	0	0	0	0	0	0	0	0	0	0	0	0	0	0	0	0	0	0	0	0	0	0	0	0	0	0	0	0	0	0	0	0	0	0
071619	16:43:43	16:46:22	157828	5.0.10.0	5_exp_noRW	58	Rpleas_acq	CS_B	JXXJ	YDDY	GWWG	BZZB	MQQM	VKKV	treu	retten	spielen	schön	ehrlich	fair	tot	rächen	strafen	schlecht	eitel	faul	47pct	acq_USunple_CSunple2_noRW	acq1_noRW	1	24	0	0	300	300	589	46	0	1	1	blank2r.bmp	0	1	+	0	1	blank2r.bmp	252	1	BZZB	306	3	faul	559	0	0	0	0	0	0	0	0	0	0	0	0	0	0	0	0	0	0	0	0	0	0	0	0	0	0	0	0	0	0	0	0	0	0	0	0	0	0	0
071619	16:43:43	16:46:23	159534	5.0.10.0	5_exp_noRW	58	Rpleas_acq	CS_B	JXXJ	YDDY	GWWG	BZZB	MQQM	VKKV	treu	retten	spielen	schön	ehrlich	fair	tot	rächen	strafen	schlecht	eitel	faul	47pct	acq_USpleas_CSpleas1_noRW	acq1_noRW	1	25	0	0	300	300	521	50	0	1	1	blank2r.bmp	0	1	+	0	1	blank2r.bmp	252	1	JXXJ	306	2	retten	559	0	0	0	0	0	0	0	0	0	0	0	0	0	0	0	0	0	0	0	0	0	0	0	0	0	0	0	0	0	0	0	0	0	0	0	0	0	0	0
071619	16:43:43	16:46:25	161293	5.0.10.0	5_exp_noRW	58	Rpleas_acq	CS_B	JXXJ	YDDY	GWWG	BZZB	MQQM	VKKV	treu	retten	spielen	schön	ehrlich	fair	tot	rächen	strafen	schlecht	eitel	faul	53pct	acq_USunple_CSunple1_noRW	acq1_noRW	1	26	0	0	300	300	582	46	0	1	1	blank2r.bmp	0	1	+	0	1	blank2r.bmp	252	1	GWWG	306	2	rächen	559	0	0	0	0	0	0	0	0	0	0	0	0	0	0	0	0	0	0	0	0	0	0	0	0	0	0	0	0	0	0	0	0	0	0	0	0	0	0	0
071619	16:43:43	16:46:27	162866	5.0.10.0	5_exp_noRW	58	Rpleas_acq	CS_B	JXXJ	YDDY	GWWG	BZZB	MQQM	VKKV	treu	retten	spielen	schön	ehrlich	fair	tot	rächen	strafen	schlecht	eitel	faul	47pct	acq_USpleas_CSunple2_noRW	acq1_noRW	1	27	0	0	300	300	390	50	0	1	1	blank2r.bmp	0	1	+	0	1	blank2r.bmp	252	1	BZZB	306	3	fair	559	0	0	0	0	0	0	0	0	0	0	0	0	0	0	0	0	0	0	0	0	0	0	0	0	0	0	0	0	0	0	0	0	0	0	0	0	0	0	0
071619	16:43:43	16:46:29	164718	5.0.10.0	5_exp_noRW	58	Rpleas_acq	CS_B	JXXJ	YDDY	GWWG	BZZB	MQQM	VKKV	treu	retten	spielen	schön	ehrlich	fair	tot	rächen	strafen	schlecht	eitel	faul	53pct	acq_USpleas_CSpleas1_noRW	acq1_noRW	1	28	0	0	300	300	472	46	0	0	1	blank2r.bmp	0	1	+	0	1	blank2r.bmp	252	1	JXXJ	306	3	spielen	559	1	FEHLER	1066	0	0	0	0	0	0	0	0	0	0	0	0	0	0	0	0	0	0	0	0	0	0	0	0	0	0	0	0	0	0	0	0	0	0	0	0
071619	16:43:43	16:46:30	166304	5.0.10.0	5_exp_noRW	58	Rpleas_acq	CS_B	JXXJ	YDDY	GWWG	BZZB	MQQM	VKKV	treu	retten	spielen	schön	ehrlich	fair	tot	rächen	strafen	schlecht	eitel	faul	47pct	acq_USpleas_CSpleas2_noRW	acq1_noRW	1	29	0	0	300	300	606	50	0	1	1	blank2r.bmp	0	1	+	0	1	blank2r.bmp	252	1	YDDY	306	3	fair	559	0	0	0	0	0	0	0	0	0	0	0	0	0	0	0	0	0	0	0	0	0	0	0	0	0	0	0	0	0	0	0	0	0	0	0	0	0	0	0
071619	16:43:43	16:46:32	168090	5.0.10.0	5_exp_noRW	58	Rpleas_acq	CS_B	JXXJ	YDDY	GWWG	BZZB	MQQM	VKKV	treu	retten	spielen	schön	ehrlich	fair	tot	rächen	strafen	schlecht	eitel	faul	47pct	acq_USunple_CSpleas1_noRW	acq1_noRW	1	30	0	0	300	300	608	46	0	1	1	blank2r.bmp	0	1	+	0	1	blank2r.bmp	252	1	JXXJ	306	3	strafen	559	0	0	0	0	0	0	0	0	0	0	0	0	0	0	0	0	0	0	0	0	0	0	0	0	0	0	0	0	0	0	0	0	0	0	0	0	0	0	0
071619	16:43:43	16:46:34	169836	5.0.10.0	5_exp_noRW	58	Rpleas_acq	CS_B	JXXJ	YDDY	GWWG	BZZB	MQQM	VKKV	treu	retten	spielen	schön	ehrlich	fair	tot	rächen	strafen	schlecht	eitel	faul	53pct	acq_USunple_CSunple1_noRW	acq1_noRW	1	31	0	0	300	300	354	50	0	0	1	blank2r.bmp	0	1	+	0	1	blank2r.bmp	252	1	GWWG	306	1	tot	559	1	FEHLER	946	0	0	0	0	0	0	0	0	0	0	0	0	0	0	0	0	0	0	0	0	0	0	0	0	0	0	0	0	0	0	0	0	0	0	0	0
071619	16:43:43	16:46:35	171196	5.0.10.0	5_exp_noRW	58	Rpleas_acq	CS_B	JXXJ	YDDY	GWWG	BZZB	MQQM	VKKV	treu	retten	spielen	schön	ehrlich	fair	tot	rächen	strafen	schlecht	eitel	faul	47pct	acq_USpleas_CSpleas1_noRW	acq1_noRW	1	32	0	0	300	300	397	50	0	1	1	blank2r.bmp	0	1	+	0	1	blank2r.bmp	252	1	JXXJ	306	2	retten	559	0	0	0	0	0	0	0	0	0	0	0	0	0	0	0	0	0	0	0	0	0	0	0	0	0	0	0	0	0	0	0	0	0	0	0	0	0	0	0
071619	16:43:43	16:46:37	172755	5.0.10.0	5_exp_noRW	58	Rpleas_acq	CS_B	JXXJ	YDDY	GWWG	BZZB	MQQM	VKKV	treu	retten	spielen	schön	ehrlich	fair	tot	rächen	strafen	schlecht	eitel	faul	47pct	acq_USunple_CSpleas2_noRW	acq1_noRW	1	33	0	0	300	300	376	46	0	1	1	blank2r.bmp	0	1	+	0	1	blank2r.bmp	252	1	YDDY	306	2	eitel	559	0	0	0	0	0	0	0	0	0	0	0	0	0	0	0	0	0	0	0	0	0	0	0	0	0	0	0	0	0	0	0	0	0	0	0	0	0	0	0
071619	16:43:43	16:46:38	174168	5.0.10.0	5_exp_noRW	58	Rpleas_acq	CS_B	JXXJ	YDDY	GWWG	BZZB	MQQM	VKKV	treu	retten	spielen	schön	ehrlich	fair	tot	rächen	strafen	schlecht	eitel	faul	53pct	acq_USpleas_CSpleas1_noRW	acq1_noRW	1	34	0	0	300	300	250	50	0	1	1	blank2r.bmp	0	1	+	0	1	blank2r.bmp	252	1	JXXJ	306	1	treu	559	0	0	0	0	0	0	0	0	0	0	0	0	0	0	0	0	0	0	0	0	0	0	0	0	0	0	0	0	0	0	0	0	0	0	0	0	0	0	0
071619	16:43:43	16:46:40	175661	5.0.10.0	5_exp_noRW	58	Rpleas_acq	CS_B	JXXJ	YDDY	GWWG	BZZB	MQQM	VKKV	treu	retten	spielen	schön	ehrlich	fair	tot	rächen	strafen	schlecht	eitel	faul	47pct	acq_USunple_CSunple2_noRW	acq1_noRW	1	35	0	0	300	300	331	46	0	1	1	blank2r.bmp	0	1	+	0	1	blank2r.bmp	252	1	BZZB	306	2	eitel	559	0	0	0	0	0	0	0	0	0	0	0	0	0	0	0	0	0	0	0	0	0	0	0	0	0	0	0	0	0	0	0	0	0	0	0	0	0	0	0
071619	16:43:43	16:46:41	177247	5.0.10.0	5_exp_noRW	58	Rpleas_acq	CS_B	JXXJ	YDDY	GWWG	BZZB	MQQM	VKKV	treu	retten	spielen	schön	ehrlich	fair	tot	rächen	strafen	schlecht	eitel	faul	53pct	acq_USunple_CSunple2_noRW	acq1_noRW	1	36	0	0	300	300	189	50	0	0	1	blank2r.bmp	0	1	+	0	1	blank2r.bmp	252	1	BZZB	306	3	faul	559	1	FEHLER	786	0	0	0	0	0	0	0	0	0	0	0	0	0	0	0	0	0	0	0	0	0	0	0	0	0	0	0	0	0	0	0	0	0	0	0	0
071619	16:43:43	16:46:42	178593	5.0.10.0	5_exp_noRW	58	Rpleas_acq	CS_B	JXXJ	YDDY	GWWG	BZZB	MQQM	VKKV	treu	retten	spielen	schön	ehrlich	fair	tot	rächen	strafen	schlecht	eitel	faul	47pct	acq_USpleas_CSpleas2_noRW	acq1_noRW	1	37	0	0	300	300	170	46	0	0	1	blank2r.bmp	0	1	+	0	1	blank2r.bmp	252	1	YDDY	306	3	fair	559	1	FEHLER	759	0	0	0	0	0	0	0	0	0	0	0	0	0	0	0	0	0	0	0	0	0	0	0	0	0	0	0	0	0	0	0	0	0	0	0	0
071619	16:43:43	16:46:44	179806	5.0.10.0	5_exp_noRW	58	Rpleas_acq	CS_B	JXXJ	YDDY	GWWG	BZZB	MQQM	VKKV	treu	retten	spielen	schön	ehrlich	fair	tot	rächen	strafen	schlecht	eitel	faul	53pct	acq_USpleas_CSpleas2_noRW	acq1_noRW	1	38	0	0	300	300	263	50	0	1	1	blank2r.bmp	0	1	+	0	1	blank2r.bmp	252	1	YDDY	306	1	schön	559	0	0	0	0	0	0	0	0	0	0	0	0	0	0	0	0	0	0	0	0	0	0	0	0	0	0	0	0	0	0	0	0	0	0	0	0	0	0	0
071619	16:43:43	16:46:45	181365	5.0.10.0	5_exp_noRW	58	Rpleas_acq	CS_B	JXXJ	YDDY	GWWG	BZZB	MQQM	VKKV	treu	retten	spielen	schön	ehrlich	fair	tot	rächen	strafen	schlecht	eitel	faul	53pct	acq_USunple_CSunple1_noRW	acq1_noRW	1	39	0	0	300	300	377	46	0	1	1	blank2r.bmp	0	1	+	0	1	blank2r.bmp	252	1	GWWG	306	3	strafen	559	0	0	0	0	0	0	0	0	0	0	0	0	0	0	0	0	0	0	0	0	0	0	0	0	0	0	0	0	0	0	0	0	0	0	0	0	0	0	0
071619	16:43:43	16:46:47	182938	5.0.10.0	5_exp_noRW	58	Rpleas_acq	CS_B	JXXJ	YDDY	GWWG	BZZB	MQQM	VKKV	treu	retten	spielen	schön	ehrlich	fair	tot	rächen	strafen	schlecht	eitel	faul	47pct	acq_USunple_CSunple1_noRW	acq1_noRW	1	40	0	0	300	300	398	46	0	1	1	blank2r.bmp	0	1	+	0	1	blank2r.bmp	252	1	GWWG	306	1	tot	559	0	0	0	0	0	0	0	0	0	0	0	0	0	0	0	0	0	0	0	0	0	0	0	0	0	0	0	0	0	0	0	0	0	0	0	0	0	0	0
071619	16:43:43	16:46:49	184617	5.0.10.0	5_exp_noRW	58	Rpleas_acq	CS_B	JXXJ	YDDY	GWWG	BZZB	MQQM	VKKV	treu	retten	spielen	schön	ehrlich	fair	tot	rächen	strafen	schlecht	eitel	faul	53pct	acq_USunple_CSunple1_noRW	acq1_noRW	1	41	0	0	300	300	298	50	0	0	1	blank2r.bmp	0	1	+	0	1	blank2r.bmp	252	1	GWWG	306	2	rächen	559	1	FEHLER	892	0	0	0	0	0	0	0	0	0	0	0	0	0	0	0	0	0	0	0	0	0	0	0	0	0	0	0	0	0	0	0	0	0	0	0	0
071619	16:43:43	16:46:50	186056	5.0.10.0	5_exp_noRW	58	Rpleas_acq	CS_B	JXXJ	YDDY	GWWG	BZZB	MQQM	VKKV	treu	retten	spielen	schön	ehrlich	fair	tot	rächen	strafen	schlecht	eitel	faul	47pct	acq_USpleas_CSpleas2_noRW	acq1_noRW	1	42	0	0	300	300	282	46	0	0	1	blank2r.bmp	0	1	+	0	1	blank2r.bmp	252	1	YDDY	306	2	ehrlich	559	1	FEHLER	879	0	0	0	0	0	0	0	0	0	0	0	0	0	0	0	0	0	0	0	0	0	0	0	0	0	0	0	0	0	0	0	0	0	0	0	0
071619	16:43:43	16:46:51	187402	5.0.10.0	5_exp_noRW	58	Rpleas_acq	CS_B	JXXJ	YDDY	GWWG	BZZB	MQQM	VKKV	treu	retten	spielen	schön	ehrlich	fair	tot	rächen	strafen	schlecht	eitel	faul	47pct	acq_USunple_CSpleas1_noRW	acq1_noRW	1	43	0	0	300	300	161	50	0	0	1	blank2r.bmp	0	1	+	0	1	blank2r.bmp	252	1	JXXJ	306	2	rächen	559	1	FEHLER	759	0	0	0	0	0	0	0	0	0	0	0	0	0	0	0	0	0	0	0	0	0	0	0	0	0	0	0	0	0	0	0	0	0	0	0	0
071619	16:43:43	16:46:53	188735	5.0.10.0	5_exp_noRW	58	Rpleas_acq	CS_B	JXXJ	YDDY	GWWG	BZZB	MQQM	VKKV	treu	retten	spielen	schön	ehrlich	fair	tot	rächen	strafen	schlecht	eitel	faul	47pct	acq_USunple_CSunple2_noRW	acq1_noRW	1	44	0	0	300	300	361	46	0	1	1	blank2r.bmp	0	1	+	0	1	blank2r.bmp	252	1	BZZB	306	1	schlecht	559	0	0	0	0	0	0	0	0	0	0	0	0	0	0	0	0	0	0	0	0	0	0	0	0	0	0	0	0	0	0	0	0	0	0	0	0	0	0	0
071619	16:43:43	16:46:54	190281	5.0.10.0	5_exp_noRW	58	Rpleas_acq	CS_B	JXXJ	YDDY	GWWG	BZZB	MQQM	VKKV	treu	retten	spielen	schön	ehrlich	fair	tot	rächen	strafen	schlecht	eitel	faul	47pct	acq_USpleas_CSpleas2_noRW	acq1_noRW	1	45	0	0	300	300	359	50	0	1	1	blank2r.bmp	0	1	+	0	1	blank2r.bmp	252	1	YDDY	306	2	ehrlich	559	0	0	0	0	0	0	0	0	0	0	0	0	0	0	0	0	0	0	0	0	0	0	0	0	0	0	0	0	0	0	0	0	0	0	0	0	0	0	0
071619	16:43:43	16:46:56	191761	5.0.10.0	5_exp_noRW	58	Rpleas_acq	CS_B	JXXJ	YDDY	GWWG	BZZB	MQQM	VKKV	treu	retten	spielen	schön	ehrlich	fair	tot	rächen	strafen	schlecht	eitel	faul	53pct	acq_USpleas_CSpleas2_noRW	acq1_noRW	1	46	0	0	300	300	297	50	0	1	1	blank2r.bmp	0	1	+	0	1	blank2r.bmp	252	1	YDDY	306	1	schön	559	0	0	0	0	0	0	0	0	0	0	0	0	0	0	0	0	0	0	0	0	0	0	0	0	0	0	0	0	0	0	0	0	0	0	0	0	0	0	0
071619	16:43:43	16:46:57	193427	5.0.10.0	5_exp_noRW	58	Rpleas_acq	CS_B	JXXJ	YDDY	GWWG	BZZB	MQQM	VKKV	treu	retten	spielen	schön	ehrlich	fair	tot	rächen	strafen	schlecht	eitel	faul	53pct	acq_USpleas_CSunple1_noRW	acq1_noRW	1	47	0	0	300	300	268	46	0	0	1	blank2r.bmp	0	1	+	0	1	blank2r.bmp	252	1	GWWG	306	2	retten	559	1	FEHLER	866	0	0	0	0	0	0	0	0	0	0	0	0	0	0	0	0	0	0	0	0	0	0	0	0	0	0	0	0	0	0	0	0	0	0	0	0
071619	16:43:43	16:46:59	194839	5.0.10.0	5_exp_noRW	58	Rpleas_acq	CS_B	JXXJ	YDDY	GWWG	BZZB	MQQM	VKKV	treu	retten	spielen	schön	ehrlich	fair	tot	rächen	strafen	schlecht	eitel	faul	47pct	acq_USunple_CSpleas2_noRW	acq1_noRW	1	48	0	0	300	300	443	46	0	1	1	blank2r.bmp	0	1	+	0	1	blank2r.bmp	252	1	YDDY	306	1	schlecht	559	0	0	0	0	0	0	0	0	0	0	0	0	0	0	0	0	0	0	0	0	0	0	0	0	0	0	0	0	0	0	0	0	0	0	0	0	0	0	0
071619	16:43:43	16:47:00	196319	5.0.10.0	5_exp_noRW	58	Rpleas_acq	CS_B	JXXJ	YDDY	GWWG	BZZB	MQQM	VKKV	treu	retten	spielen	schön	ehrlich	fair	tot	rächen	strafen	schlecht	eitel	faul	47pct	acq_USpleas_CSpleas1_noRW	acq1_noRW	1	49	0	0	300	300	316	50	0	1	1	blank2r.bmp	0	1	+	0	1	blank2r.bmp	252	1	JXXJ	306	3	spielen	559	0	0	0	0	0	0	0	0	0	0	0	0	0	0	0	0	0	0	0	0	0	0	0	0	0	0	0	0	0	0	0	0	0	0	0	0	0	0	0
071619	16:43:43	16:47:02	197918	5.0.10.0	5_exp_noRW	58	Rpleas_acq	CS_B	JXXJ	YDDY	GWWG	BZZB	MQQM	VKKV	treu	retten	spielen	schön	ehrlich	fair	tot	rächen	strafen	schlecht	eitel	faul	47pct	acq_USunple_CSunple1_noRW	acq1_noRW	1	50	0	0	300	300	423	46	0	1	1	blank2r.bmp	0	1	+	0	1	blank2r.bmp	252	1	GWWG	306	3	strafen	559	0	0	0	0	0	0	0	0	0	0	0	0	0	0	0	0	0	0	0	0	0	0	0	0	0	0	0	0	0	0	0	0	0	0	0	0	0	0	0
071619	16:43:43	16:47:04	199597	5.0.10.0	5_exp_noRW	58	Rpleas_acq	CS_B	JXXJ	YDDY	GWWG	BZZB	MQQM	VKKV	treu	retten	spielen	schön	ehrlich	fair	tot	rächen	strafen	schlecht	eitel	faul	47pct	acq_USunple_CSunple1_noRW	acq1_noRW	1	51	0	0	300	300	281	50	0	0	1	blank2r.bmp	0	1	+	0	1	blank2r.bmp	252	1	GWWG	306	1	tot	559	1	FEHLER	879	0	0	0	0	0	0	0	0	0	0	0	0	0	0	0	0	0	0	0	0	0	0	0	0	0	0	0	0	0	0	0	0	0	0	0	0
071619	16:43:43	16:47:05	200944	5.0.10.0	5_exp_noRW	58	Rpleas_acq	CS_B	JXXJ	YDDY	GWWG	BZZB	MQQM	VKKV	treu	retten	spielen	schön	ehrlich	fair	tot	rächen	strafen	schlecht	eitel	faul	53pct	acq_USpleas_CSunple2_noRW	acq1_noRW	1	52	0	0	300	300	389	50	0	1	1	blank2r.bmp	0	1	+	0	1	blank2r.bmp	252	1	BZZB	306	1	schön	559	0	0	0	0	0	0	0	0	0	0	0	0	0	0	0	0	0	0	0	0	0	0	0	0	0	0	0	0	0	0	0	0	0	0	0	0	0	0	0
071619	16:43:43	16:47:07	202636	5.0.10.0	5_exp_noRW	58	Rpleas_acq	CS_B	JXXJ	YDDY	GWWG	BZZB	MQQM	VKKV	treu	retten	spielen	schön	ehrlich	fair	tot	rächen	strafen	schlecht	eitel	faul	53pct	acq_USpleas_CSpleas1_noRW	acq1_noRW	1	53	0	0	300	300	312	46	0	0	1	blank2r.bmp	0	1	+	0	1	blank2r.bmp	252	1	JXXJ	306	3	spielen	559	1	FEHLER	906	0	0	0	0	0	0	0	0	0	0	0	0	0	0	0	0	0	0	0	0	0	0	0	0	0	0	0	0	0	0	0	0	0	0	0	0
071619	16:43:43	16:47:08	204142	5.0.10.0	5_exp_noRW	58	Rpleas_acq	CS_B	JXXJ	YDDY	GWWG	BZZB	MQQM	VKKV	treu	retten	spielen	schön	ehrlich	fair	tot	rächen	strafen	schlecht	eitel	faul	53pct	acq_USunple_CSunple2_noRW	acq1_noRW	1	54	0	0	300	300	334	50	0	0	1	blank2r.bmp	0	1	+	0	1	blank2r.bmp	252	1	BZZB	306	2	eitel	559	1	FEHLER	932	0	0	0	0	0	0	0	0	0	0	0	0	0	0	0	0	0	0	0	0	0	0	0	0	0	0	0	0	0	0	0	0	0	0	0	0
071619	16:43:43	16:47:10	205742	5.0.10.0	5_exp_noRW	58	Rpleas_acq	CS_B	JXXJ	YDDY	GWWG	BZZB	MQQM	VKKV	treu	retten	spielen	schön	ehrlich	fair	tot	rächen	strafen	schlecht	eitel	faul	47pct	acq_USpleas_CSpleas1_noRW	acq1_noRW	1	55	0	0	300	300	416	46	0	0	1	blank2r.bmp	0	1	+	0	1	blank2r.bmp	252	1	JXXJ	306	2	retten	559	1	FEHLER	1012	0	0	0	0	0	0	0	0	0	0	0	0	0	0	0	0	0	0	0	0	0	0	0	0	0	0	0	0	0	0	0	0	0	0	0	0
071619	16:43:43	16:47:11	207034	5.0.10.0	5_exp_noRW	58	Rpleas_acq	CS_B	JXXJ	YDDY	GWWG	BZZB	MQQM	VKKV	treu	retten	spielen	schön	ehrlich	fair	tot	rächen	strafen	schlecht	eitel	faul	53pct	acq_USunple_CSunple2_noRW	acq1_noRW	1	56	0	0	300	300	120	50	0	0	1	blank2r.bmp	0	1	+	0	1	blank2r.bmp	252	1	BZZB	306	3	faul	559	1	FEHLER	719	0	0	0	0	0	0	0	0	0	0	0	0	0	0	0	0	0	0	0	0	0	0	0	0	0	0	0	0	0	0	0	0	0	0	0	0
071619	16:43:43	16:47:12	208287	5.0.10.0	5_exp_noRW	58	Rpleas_acq	CS_B	JXXJ	YDDY	GWWG	BZZB	MQQM	VKKV	treu	retten	spielen	schön	ehrlich	fair	tot	rächen	strafen	schlecht	eitel	faul	47pct	acq_USpleas_CSpleas2_noRW	acq1_noRW	1	57	0	0	300	300	303	50	0	1	1	blank2r.bmp	0	1	+	0	1	blank2r.bmp	252	1	YDDY	306	3	fair	559	0	0	0	0	0	0	0	0	0	0	0	0	0	0	0	0	0	0	0	0	0	0	0	0	0	0	0	0	0	0	0	0	0	0	0	0	0	0	0
071619	16:43:43	16:47:14	209953	5.0.10.0	5_exp_noRW	58	Rpleas_acq	CS_B	JXXJ	YDDY	GWWG	BZZB	MQQM	VKKV	treu	retten	spielen	schön	ehrlich	fair	tot	rächen	strafen	schlecht	eitel	faul	53pct	acq_USunple_CSunple1_noRW	acq1_noRW	1	58	0	0	300	300	276	50	0	0	1	blank2r.bmp	0	1	+	0	1	blank2r.bmp	252	1	GWWG	306	2	rächen	559	1	FEHLER	866	0	0	0	0	0	0	0	0	0	0	0	0	0	0	0	0	0	0	0	0	0	0	0	0	0	0	0	0	0	0	0	0	0	0	0	0
071619	16:43:43	16:47:15	211339	5.0.10.0	5_exp_noRW	58	Rpleas_acq	CS_B	JXXJ	YDDY	GWWG	BZZB	MQQM	VKKV	treu	retten	spielen	schön	ehrlich	fair	tot	rächen	strafen	schlecht	eitel	faul	53pct	acq_USpleas_CSpleas1_noRW	acq1_noRW	1	59	0	0	300	300	199	46	0	0	1	blank2r.bmp	0	1	+	0	1	blank2r.bmp	252	1	JXXJ	306	1	treu	559	1	FEHLER	799	0	0	0	0	0	0	0	0	0	0	0	0	0	0	0	0	0	0	0	0	0	0	0	0	0	0	0	0	0	0	0	0	0	0	0	0
071619	16:43:43	16:47:17	212725	5.0.10.0	5_exp_noRW	58	Rpleas_acq	CS_B	JXXJ	YDDY	GWWG	BZZB	MQQM	VKKV	treu	retten	spielen	schön	ehrlich	fair	tot	rächen	strafen	schlecht	eitel	faul	53pct	acq_USunple_CSunple2_noRW	acq1_noRW	1	60	0	0	300	300	220	50	0	0	1	blank2r.bmp	0	1	+	0	1	blank2r.bmp	252	1	BZZB	306	1	schlecht	559	1	FEHLER	813	0	0	0	0	0	0	0	0	0	0	0	0	0	0	0	0	0	0	0	0	0	0	0	0	0	0	0	0	0	0	0	0	0	0	0	0
071619	16:43:43	16:47:18	213845	5.0.10.0	5_exp_noRW	58	Rpleas_acq	CS_B	JXXJ	YDDY	GWWG	BZZB	MQQM	VKKV	treu	retten	spielen	schön	ehrlich	fair	tot	rächen	strafen	schlecht	eitel	faul	53pct	acq_USunple_CSunple2_noRW	acq1_noRW	1	61	0	0	300	300	162	46	0	1	1	blank2r.bmp	0	1	+	0	1	blank2r.bmp	252	1	BZZB	306	3	faul	559	0	0	0	0	0	0	0	0	0	0	0	0	0	0	0	0	0	0	0	0	0	0	0	0	0	0	0	0	0	0	0	0	0	0	0	0	0	0	0
071619	16:43:43	16:47:19	215311	5.0.10.0	5_exp_noRW	58	Rpleas_acq	CS_B	JXXJ	YDDY	GWWG	BZZB	MQQM	VKKV	treu	retten	spielen	schön	ehrlich	fair	tot	rächen	strafen	schlecht	eitel	faul	47pct	acq_USpleas_CSpleas1_noRW	acq1_noRW	1	62	0	0	300	300	297	50	0	1	1	blank2r.bmp	0	1	+	0	1	blank2r.bmp	252	1	JXXJ	306	2	retten	559	0	0	0	0	0	0	0	0	0	0	0	0	0	0	0	0	0	0	0	0	0	0	0	0	0	0	0	0	0	0	0	0	0	0	0	0	0	0	0
071619	16:43:43	16:47:21	216751	5.0.10.0	5_exp_noRW	58	Rpleas_acq	CS_B	JXXJ	YDDY	GWWG	BZZB	MQQM	VKKV	treu	retten	spielen	schön	ehrlich	fair	tot	rächen	strafen	schlecht	eitel	faul	53pct	acq_USunple_CSunple1_noRW	acq1_noRW	1	63	0	0	300	300	272	46	0	1	1	blank2r.bmp	0	1	+	0	1	blank2r.bmp	252	1	GWWG	306	3	strafen	559	0	0	0	0	0	0	0	0	0	0	0	0	0	0	0	0	0	0	0	0	0	0	0	0	0	0	0	0	0	0	0	0	0	0	0	0	0	0	0
071619	16:43:43	16:47:22	218083	5.0.10.0	5_exp_noRW	58	Rpleas_acq	CS_B	JXXJ	YDDY	GWWG	BZZB	MQQM	VKKV	treu	retten	spielen	schön	ehrlich	fair	tot	rächen	strafen	schlecht	eitel	faul	47pct	acq_USunple_CSpleas2_noRW	acq1_noRW	1	64	0	0	300	300	151	46	0	1	1	blank2r.bmp	0	1	+	0	1	blank2r.bmp	252	1	YDDY	306	2	eitel	559	0	0	0	0	0	0	0	0	0	0	0	0	0	0	0	0	0	0	0	0	0	0	0	0	0	0	0	0	0	0	0	0	0	0	0	0	0	0	0
071619	16:43:43	16:47:23	219256	5.0.10.0	5_exp_noRW	58	Rpleas_acq	CS_B	JXXJ	YDDY	GWWG	BZZB	MQQM	VKKV	treu	retten	spielen	schön	ehrlich	fair	tot	rächen	strafen	schlecht	eitel	faul	53pct	acq_USpleas_CSpleas1_noRW	acq1_noRW	1	65	0	0	300	300	4	50	0	1	1	blank2r.bmp	0	1	+	0	1	blank2r.bmp	252	1	JXXJ	306	1	treu	559	0	0	0	0	0	0	0	0	0	0	0	0	0	0	0	0	0	0	0	0	0	0	0	0	0	0	0	0	0	0	0	0	0	0	0	0	0	0	0
071619	16:43:43	16:47:24	220469	5.0.10.0	5_exp_noRW	58	Rpleas_acq	CS_B	JXXJ	YDDY	GWWG	BZZB	MQQM	VKKV	treu	retten	spielen	schön	ehrlich	fair	tot	rächen	strafen	schlecht	eitel	faul	53pct	acq_USunple_CSunple1_noRW	acq1_noRW	1	66	0	0	300	300	41	46	0	1	1	blank2r.bmp	0	1	+	0	1	blank2r.bmp	252	1	GWWG	306	1	tot	559	0	0	0	0	0	0	0	0	0	0	0	0	0	0	0	0	0	0	0	0	0	0	0	0	0	0	0	0	0	0	0	0	0	0	0	0	0	0	0
071619	16:43:43	16:47:28	224147	5.0.10.0	5_exp_noRW	58	Rpleas_acq	CS_B	JXXJ	YDDY	GWWG	BZZB	MQQM	VKKV	treu	retten	spielen	schön	ehrlich	fair	tot	rächen	strafen	schlecht	eitel	faul	47pct	acq_USpleas_CSpleas2_noRW	acq1_noRW	1	67	0	0	300	300	2000	0	0	0	1	blank2r.bmp	0	1	+	0	1	blank2r.bmp	252	1	YDDY	306	1	schön	559	1	FEHLER	2598	1	Schneller!	2598	0	0	0	0	0	0	0	0	0	0	0	0	0	0	0	0	0	0	0	0	0	0	0	0	0	0	0	0	0	0	0	0	0
071619	16:43:43	16:47:29	225320	5.0.10.0	5_exp_noRW	58	Rpleas_acq	CS_B	JXXJ	YDDY	GWWG	BZZB	MQQM	VKKV	treu	retten	spielen	schön	ehrlich	fair	tot	rächen	strafen	schlecht	eitel	faul	47pct	acq_USpleas_CSunple1_noRW	acq1_noRW	1	68	0	0	300	300	275	50	0	1	1	blank2r.bmp	0	1	+	0	1	blank2r.bmp	252	1	GWWG	306	3	spielen	559	0	0	0	0	0	0	0	0	0	0	0	0	0	0	0	0	0	0	0	0	0	0	0	0	0	0	0	0	0	0	0	0	0	0	0	0	0	0	0
071619	16:43:43	16:47:31	227026	5.0.10.0	5_exp_noRW	58	Rpleas_acq	CS_B	JXXJ	YDDY	GWWG	BZZB	MQQM	VKKV	treu	retten	spielen	schön	ehrlich	fair	tot	rächen	strafen	schlecht	eitel	faul	47pct	acq_USunple_CSunple2_noRW	acq1_noRW	1	69	0	0	300	300	318	50	0	0	1	blank2r.bmp	0	1	+	0	1	blank2r.bmp	252	1	BZZB	306	2	eitel	559	1	FEHLER	919	0	0	0	0	0	0	0	0	0	0	0	0	0	0	0	0	0	0	0	0	0	0	0	0	0	0	0	0	0	0	0	0	0	0	0	0
071619	16:43:43	16:47:32	228492	5.0.10.0	5_exp_noRW	58	Rpleas_acq	CS_B	JXXJ	YDDY	GWWG	BZZB	MQQM	VKKV	treu	retten	spielen	schön	ehrlich	fair	tot	rächen	strafen	schlecht	eitel	faul	53pct	acq_USunple_CSunple1_noRW	acq1_noRW	1	70	0	0	300	300	296	50	0	0	1	blank2r.bmp	0	1	+	0	1	blank2r.bmp	252	1	GWWG	306	2	rächen	559	1	FEHLER	892	0	0	0	0	0	0	0	0	0	0	0	0	0	0	0	0	0	0	0	0	0	0	0	0	0	0	0	0	0	0	0	0	0	0	0	0
071619	16:43:43	16:47:35	230691	5.0.10.0	5_exp_noRW	58	Rpleas_acq	CS_B	JXXJ	YDDY	GWWG	BZZB	MQQM	VKKV	treu	retten	spielen	schön	ehrlich	fair	tot	rächen	strafen	schlecht	eitel	faul	53pct	acq_USpleas_CSpleas2_noRW	acq1_noRW	1	71	0	0	300	300	1232	50	0	1	1	blank2r.bmp	0	1	+	0	1	blank2r.bmp	252	1	YDDY	306	3	fair	559	0	0	0	0	0	0	0	0	0	0	0	0	0	0	0	0	0	0	0	0	0	0	0	0	0	0	0	0	0	0	0	0	0	0	0	0	0	0	0
071619	16:43:43	16:47:36	232571	5.0.10.0	5_exp_noRW	58	Rpleas_acq	CS_B	JXXJ	YDDY	GWWG	BZZB	MQQM	VKKV	treu	retten	spielen	schön	ehrlich	fair	tot	rächen	strafen	schlecht	eitel	faul	47pct	acq_USunple_CSunple1_noRW	acq1_noRW	1	72	0	0	300	300	704	46	0	1	1	blank2r.bmp	0	1	+	0	1	blank2r.bmp	252	1	GWWG	306	1	tot	559	0	0	0	0	0	0	0	0	0	0	0	0	0	0	0	0	0	0	0	0	0	0	0	0	0	0	0	0	0	0	0	0	0	0	0	0	0	0	0
071619	16:43:43	16:47:38	233957	5.0.10.0	5_exp_noRW	58	Rpleas_acq	CS_B	JXXJ	YDDY	GWWG	BZZB	MQQM	VKKV	treu	retten	spielen	schön	ehrlich	fair	tot	rächen	strafen	schlecht	eitel	faul	53pct	acq_USpleas_CSpleas2_noRW	acq1_noRW	1	73	0	0	300	300	204	50	0	1	1	blank2r.bmp	0	1	+	0	1	blank2r.bmp	252	1	YDDY	306	2	ehrlich	559	0	0	0	0	0	0	0	0	0	0	0	0	0	0	0	0	0	0	0	0	0	0	0	0	0	0	0	0	0	0	0	0	0	0	0	0	0	0	0
071619	16:43:43	16:47:39	235263	5.0.10.0	5_exp_noRW	58	Rpleas_acq	CS_B	JXXJ	YDDY	GWWG	BZZB	MQQM	VKKV	treu	retten	spielen	schön	ehrlich	fair	tot	rächen	strafen	schlecht	eitel	faul	53pct	acq_USunple_CSunple2_noRW	acq1_noRW	1	74	0	0	300	300	127	46	0	1	1	blank2r.bmp	0	1	+	0	1	blank2r.bmp	252	1	BZZB	306	1	schlecht	559	0	0	0	0	0	0	0	0	0	0	0	0	0	0	0	0	0	0	0	0	0	0	0	0	0	0	0	0	0	0	0	0	0	0	0	0	0	0	0
071619	16:43:43	16:47:41	236769	5.0.10.0	5_exp_noRW	58	Rpleas_acq	CS_B	JXXJ	YDDY	GWWG	BZZB	MQQM	VKKV	treu	retten	spielen	schön	ehrlich	fair	tot	rächen	strafen	schlecht	eitel	faul	47pct	acq_USpleas_CSpleas2_noRW	acq1_noRW	1	75	0	0	300	300	327	50	0	1	1	blank2r.bmp	0	1	+	0	1	blank2r.bmp	252	1	YDDY	306	1	schön	559	0	0	0	0	0	0	0	0	0	0	0	0	0	0	0	0	0	0	0	0	0	0	0	0	0	0	0	0	0	0	0	0	0	0	0	0	0	0	0
071619	16:43:43	16:47:42	238422	5.0.10.0	5_exp_noRW	58	Rpleas_acq	CS_B	JXXJ	YDDY	GWWG	BZZB	MQQM	VKKV	treu	retten	spielen	schön	ehrlich	fair	tot	rächen	strafen	schlecht	eitel	faul	53pct	acq_USpleas_CSunple2_noRW	acq1_noRW	1	76	0	0	300	300	257	46	0	0	1	blank2r.bmp	0	1	+	0	1	blank2r.bmp	252	1	BZZB	306	1	schön	559	1	FEHLER	852	0	0	0	0	0	0	0	0	0	0	0	0	0	0	0	0	0	0	0	0	0	0	0	0	0	0	0	0	0	0	0	0	0	0	0	0
071619	16:43:43	16:47:44	239741	5.0.10.0	5_exp_noRW	58	Rpleas_acq	CS_B	JXXJ	YDDY	GWWG	BZZB	MQQM	VKKV	treu	retten	spielen	schön	ehrlich	fair	tot	rächen	strafen	schlecht	eitel	faul	47pct	acq_USpleas_CSpleas1_noRW	acq1_noRW	1	77	0	0	300	300	362	50	0	1	1	blank2r.bmp	0	1	+	0	1	blank2r.bmp	252	1	JXXJ	306	3	spielen	559	0	0	0	0	0	0	0	0	0	0	0	0	0	0	0	0	0	0	0	0	0	0	0	0	0	0	0	0	0	0	0	0	0	0	0	0	0	0	0
071619	16:43:43	16:47:45	241434	5.0.10.0	5_exp_noRW	58	Rpleas_acq	CS_B	JXXJ	YDDY	GWWG	BZZB	MQQM	VKKV	treu	retten	spielen	schön	ehrlich	fair	tot	rächen	strafen	schlecht	eitel	faul	53pct	acq_USpleas_CSpleas1_noRW	acq1_noRW	1	78	0	0	300	300	311	46	0	0	1	blank2r.bmp	0	1	+	0	1	blank2r.bmp	252	1	JXXJ	306	1	treu	559	1	FEHLER	906	0	0	0	0	0	0	0	0	0	0	0	0	0	0	0	0	0	0	0	0	0	0	0	0	0	0	0	0	0	0	0	0	0	0	0	0
071619	16:43:43	16:47:47	242873	5.0.10.0	5_exp_noRW	58	Rpleas_acq	CS_B	JXXJ	YDDY	GWWG	BZZB	MQQM	VKKV	treu	retten	spielen	schön	ehrlich	fair	tot	rächen	strafen	schlecht	eitel	faul	47pct	acq_USunple_CSpleas1_noRW	acq1_noRW	1	79	0	0	300	300	267	50	0	0	1	blank2r.bmp	0	1	+	0	1	blank2r.bmp	252	1	JXXJ	306	3	strafen	559	1	FEHLER	866	0	0	0	0	0	0	0	0	0	0	0	0	0	0	0	0	0	0	0	0	0	0	0	0	0	0	0	0	0	0	0	0	0	0	0	0
071619	16:43:43	16:47:48	244472	5.0.10.0	5_exp_noRW	58	Rpleas_acq	CS_B	JXXJ	YDDY	GWWG	BZZB	MQQM	VKKV	treu	retten	spielen	schön	ehrlich	fair	tot	rächen	strafen	schlecht	eitel	faul	53pct	acq_USunple_CSunple2_noRW	acq1_noRW	1	80	0	0	300	300	432	50	0	0	1	blank2r.bmp	0	1	+	0	1	blank2r.bmp	252	1	BZZB	306	2	eitel	559	1	FEHLER	1026	0	0	0	0	0	0	0	0	0	0	0	0	0	0	0	0	0	0	0	0	0	0	0	0	0	0	0	0	0	0	0	0	0	0	0	0
071619	16:43:43	16:48:04	260266	5.0.10.0	5_exp_noRW	58	Rpleas_acq	CS_B	JXXJ	YDDY	GWWG	BZZB	MQQM	VKKV	treu	retten	spielen	schön	ehrlich	fair	tot	rächen	strafen	schlecht	eitel	faul	53pct	acq_USpleas_CSpleas1_noRW	acq23456_noRW	2	1	0	0	300	300	390	50	0	1	1	blank2r.bmp	0	1	+	0	1	blank2r.bmp	252	1	JXXJ	306	2	retten	559	0	0	0	0	0	0	0	0	0	0	0	0	0	0	0	0	0	0	0	0	0	0	0	0	0	0	0	0	0	0	0	0	0	0	0	0	0	0	0
071619	16:43:43	16:48:06	261905	5.0.10.0	5_exp_noRW	58	Rpleas_acq	CS_B	JXXJ	YDDY	GWWG	BZZB	MQQM	VKKV	treu	retten	spielen	schön	ehrlich	fair	tot	rächen	strafen	schlecht	eitel	faul	53pct	acq_USpleas_CSpleas1_noRW	acq23456_noRW	2	2	0	0	300	300	476	50	0	1	1	blank2r.bmp	0	1	+	0	1	blank2r.bmp	252	1	JXXJ	306	3	spielen	559	0	0	0	0	0	0	0	0	0	0	0	0	0	0	0	0	0	0	0	0	0	0	0	0	0	0	0	0	0	0	0	0	0	0	0	0	0	0	0
071619	16:43:43	16:48:07	263411	5.0.10.0	5_exp_noRW	58	Rpleas_acq	CS_B	JXXJ	YDDY	GWWG	BZZB	MQQM	VKKV	treu	retten	spielen	schön	ehrlich	fair	tot	rächen	strafen	schlecht	eitel	faul	53pct	acq_USpleas_CSunple2_noRW	acq23456_noRW	2	3	0	0	300	300	325	50	0	1	1	blank2r.bmp	0	1	+	0	1	blank2r.bmp	252	1	BZZB	306	2	ehrlich	559	0	0	0	0	0	0	0	0	0	0	0	0	0	0	0	0	0	0	0	0	0	0	0	0	0	0	0	0	0	0	0	0	0	0	0	0	0	0	0
071619	16:43:43	16:48:09	264997	5.0.10.0	5_exp_noRW	58	Rpleas_acq	CS_B	JXXJ	YDDY	GWWG	BZZB	MQQM	VKKV	treu	retten	spielen	schön	ehrlich	fair	tot	rächen	strafen	schlecht	eitel	faul	53pct	acq_USpleas_CSunple1_noRW	acq23456_noRW	2	4	0	0	300	300	205	46	0	0	1	blank2r.bmp	0	1	+	0	1	blank2r.bmp	252	1	GWWG	306	2	retten	559	1	FEHLER	799	0	0	0	0	0	0	0	0	0	0	0	0	0	0	0	0	0	0	0	0	0	0	0	0	0	0	0	0	0	0	0	0	0	0	0	0
071619	16:43:43	16:48:10	266583	5.0.10.0	5_exp_noRW	58	Rpleas_acq	CS_B	JXXJ	YDDY	GWWG	BZZB	MQQM	VKKV	treu	retten	spielen	schön	ehrlich	fair	tot	rächen	strafen	schlecht	eitel	faul	53pct	acq_USunple_CSunple2_noRW	acq23456_noRW	2	5	0	0	300	300	387	50	0	0	1	blank2r.bmp	0	1	+	0	1	blank2r.bmp	252	1	BZZB	306	1	schlecht	559	1	FEHLER	986	0	0	0	0	0	0	0	0	0	0	0	0	0	0	0	0	0	0	0	0	0	0	0	0	0	0	0	0	0	0	0	0	0	0	0	0
071619	16:43:43	16:48:12	268049	5.0.10.0	5_exp_noRW	58	Rpleas_acq	CS_B	JXXJ	YDDY	GWWG	BZZB	MQQM	VKKV	treu	retten	spielen	schön	ehrlich	fair	tot	rächen	strafen	schlecht	eitel	faul	53pct	acq_USpleas_CSpleas2_noRW	acq23456_noRW	2	6	0	0	300	300	505	50	0	1	1	blank2r.bmp	0	1	+	0	1	blank2r.bmp	252	1	YDDY	306	3	fair	559	0	0	0	0	0	0	0	0	0	0	0	0	0	0	0	0	0	0	0	0	0	0	0	0	0	0	0	0	0	0	0	0	0	0	0	0	0	0	0
071619	16:43:43	16:48:14	269635	5.0.10.0	5_exp_noRW	58	Rpleas_acq	CS_B	JXXJ	YDDY	GWWG	BZZB	MQQM	VKKV	treu	retten	spielen	schön	ehrlich	fair	tot	rächen	strafen	schlecht	eitel	faul	47pct	acq_USunple_CSunple1_noRW	acq23456_noRW	2	7	0	0	300	300	415	46	0	1	1	blank2r.bmp	0	1	+	0	1	blank2r.bmp	252	1	GWWG	306	3	strafen	559	0	0	0	0	0	0	0	0	0	0	0	0	0	0	0	0	0	0	0	0	0	0	0	0	0	0	0	0	0	0	0	0	0	0	0	0	0	0	0
071619	16:43:43	16:48:15	271368	5.0.10.0	5_exp_noRW	58	Rpleas_acq	CS_B	JXXJ	YDDY	GWWG	BZZB	MQQM	VKKV	treu	retten	spielen	schön	ehrlich	fair	tot	rächen	strafen	schlecht	eitel	faul	53pct	acq_USpleas_CSpleas1_noRW	acq23456_noRW	2	8	0	0	300	300	552	50	0	1	1	blank2r.bmp	0	1	+	0	1	blank2r.bmp	252	1	JXXJ	306	2	retten	559	0	0	0	0	0	0	0	0	0	0	0	0	0	0	0	0	0	0	0	0	0	0	0	0	0	0	0	0	0	0	0	0	0	0	0	0	0	0	0
071619	16:43:43	16:48:17	272967	5.0.10.0	5_exp_noRW	58	Rpleas_acq	CS_B	JXXJ	YDDY	GWWG	BZZB	MQQM	VKKV	treu	retten	spielen	schön	ehrlich	fair	tot	rächen	strafen	schlecht	eitel	faul	53pct	acq_USunple_CSunple2_noRW	acq23456_noRW	2	9	0	0	300	300	414	46	0	1	1	blank2r.bmp	0	1	+	0	1	blank2r.bmp	252	1	BZZB	306	3	faul	559	0	0	0	0	0	0	0	0	0	0	0	0	0	0	0	0	0	0	0	0	0	0	0	0	0	0	0	0	0	0	0	0	0	0	0	0	0	0	0
071619	16:43:43	16:48:18	274460	5.0.10.0	5_exp_noRW	58	Rpleas_acq	CS_B	JXXJ	YDDY	GWWG	BZZB	MQQM	VKKV	treu	retten	spielen	schön	ehrlich	fair	tot	rächen	strafen	schlecht	eitel	faul	47pct	acq_USpleas_CSpleas2_noRW	acq23456_noRW	2	10	0	0	300	300	327	50	0	1	1	blank2r.bmp	0	1	+	0	1	blank2r.bmp	252	1	YDDY	306	2	ehrlich	559	0	0	0	0	0	0	0	0	0	0	0	0	0	0	0	0	0	0	0	0	0	0	0	0	0	0	0	0	0	0	0	0	0	0	0	0	0	0	0
071619	16:43:43	16:48:20	276179	5.0.10.0	5_exp_noRW	58	Rpleas_acq	CS_B	JXXJ	YDDY	GWWG	BZZB	MQQM	VKKV	treu	retten	spielen	schön	ehrlich	fair	tot	rächen	strafen	schlecht	eitel	faul	53pct	acq_USpleas_CSpleas2_noRW	acq23456_noRW	2	11	0	0	300	300	337	46	0	0	1	blank2r.bmp	0	1	+	0	1	blank2r.bmp	252	1	YDDY	306	3	fair	559	1	FEHLER	932	0	0	0	0	0	0	0	0	0	0	0	0	0	0	0	0	0	0	0	0	0	0	0	0	0	0	0	0	0	0	0	0	0	0	0	0
071619	16:43:43	16:48:21	277472	5.0.10.0	5_exp_noRW	58	Rpleas_acq	CS_B	JXXJ	YDDY	GWWG	BZZB	MQQM	VKKV	treu	retten	spielen	schön	ehrlich	fair	tot	rächen	strafen	schlecht	eitel	faul	53pct	acq_USunple_CSpleas2_noRW	acq23456_noRW	2	12	0	0	300	300	327	46	0	1	1	blank2r.bmp	0	1	+	0	1	blank2r.bmp	252	1	YDDY	306	1	schlecht	559	0	0	0	0	0	0	0	0	0	0	0	0	0	0	0	0	0	0	0	0	0	0	0	0	0	0	0	0	0	0	0	0	0	0	0	0	0	0	0
071619	16:43:43	16:48:23	279245	5.0.10.0	5_exp_noRW	58	Rpleas_acq	CS_B	JXXJ	YDDY	GWWG	BZZB	MQQM	VKKV	treu	retten	spielen	schön	ehrlich	fair	tot	rächen	strafen	schlecht	eitel	faul	47pct	acq_USpleas_CSpleas2_noRW	acq23456_noRW	2	13	0	0	300	300	390	46	0	0	1	blank2r.bmp	0	1	+	0	1	blank2r.bmp	252	1	YDDY	306	2	ehrlich	559	1	FEHLER	986	0	0	0	0	0	0	0	0	0	0	0	0	0	0	0	0	0	0	0	0	0	0	0	0	0	0	0	0	0	0	0	0	0	0	0	0
071619	16:43:43	16:48:25	280764	5.0.10.0	5_exp_noRW	58	Rpleas_acq	CS_B	JXXJ	YDDY	GWWG	BZZB	MQQM	VKKV	treu	retten	spielen	schön	ehrlich	fair	tot	rächen	strafen	schlecht	eitel	faul	53pct	acq_USunple_CSunple2_noRW	acq23456_noRW	2	14	0	0	300	300	351	50	0	0	1	blank2r.bmp	0	1	+	0	1	blank2r.bmp	252	1	BZZB	306	2	eitel	559	1	FEHLER	946	0	0	0	0	0	0	0	0	0	0	0	0	0	0	0	0	0	0	0	0	0	0	0	0	0	0	0	0	0	0	0	0	0	0	0	0
071619	16:43:43	16:48:26	282350	5.0.10.0	5_exp_noRW	58	Rpleas_acq	CS_B	JXXJ	YDDY	GWWG	BZZB	MQQM	VKKV	treu	retten	spielen	schön	ehrlich	fair	tot	rächen	strafen	schlecht	eitel	faul	53pct	acq_USpleas_CSpleas1_noRW	acq23456_noRW	2	15	0	0	300	300	402	46	0	0	1	blank2r.bmp	0	1	+	0	1	blank2r.bmp	252	1	JXXJ	306	3	spielen	559	1	FEHLER	999	0	0	0	0	0	0	0	0	0	0	0	0	0	0	0	0	0	0	0	0	0	0	0	0	0	0	0	0	0	0	0	0	0	0	0	0
071619	16:43:43	16:48:28	283750	5.0.10.0	5_exp_noRW	58	Rpleas_acq	CS_B	JXXJ	YDDY	GWWG	BZZB	MQQM	VKKV	treu	retten	spielen	schön	ehrlich	fair	tot	rächen	strafen	schlecht	eitel	faul	47pct	acq_USunple_CSunple1_noRW	acq23456_noRW	2	16	0	0	300	300	439	46	0	1	1	blank2r.bmp	0	1	+	0	1	blank2r.bmp	252	1	GWWG	306	2	rächen	559	0	0	0	0	0	0	0	0	0	0	0	0	0	0	0	0	0	0	0	0	0	0	0	0	0	0	0	0	0	0	0	0	0	0	0	0	0	0	0
071619	16:43:43	16:48:29	285509	5.0.10.0	5_exp_noRW	58	Rpleas_acq	CS_B	JXXJ	YDDY	GWWG	BZZB	MQQM	VKKV	treu	retten	spielen	schön	ehrlich	fair	tot	rächen	strafen	schlecht	eitel	faul	47pct	acq_USunple_CSpleas1_noRW	acq23456_noRW	2	17	0	0	300	300	384	50	0	0	1	blank2r.bmp	0	1	+	0	1	blank2r.bmp	252	1	JXXJ	306	2	rächen	559	1	FEHLER	972	0	0	0	0	0	0	0	0	0	0	0	0	0	0	0	0	0	0	0	0	0	0	0	0	0	0	0	0	0	0	0	0	0	0	0	0
071619	16:43:43	16:48:31	286842	5.0.10.0	5_exp_noRW	58	Rpleas_acq	CS_B	JXXJ	YDDY	GWWG	BZZB	MQQM	VKKV	treu	retten	spielen	schön	ehrlich	fair	tot	rächen	strafen	schlecht	eitel	faul	53pct	acq_USunple_CSunple1_noRW	acq23456_noRW	2	18	0	0	300	300	362	46	0	1	1	blank2r.bmp	0	1	+	0	1	blank2r.bmp	252	1	GWWG	306	2	rächen	559	0	0	0	0	0	0	0	0	0	0	0	0	0	0	0	0	0	0	0	0	0	0	0	0	0	0	0	0	0	0	0	0	0	0	0	0	0	0	0
071619	16:43:43	16:48:32	288534	5.0.10.0	5_exp_noRW	58	Rpleas_acq	CS_B	JXXJ	YDDY	GWWG	BZZB	MQQM	VKKV	treu	retten	spielen	schön	ehrlich	fair	tot	rächen	strafen	schlecht	eitel	faul	53pct	acq_USunple_CSunple2_noRW	acq23456_noRW	2	19	0	0	300	300	294	50	0	0	1	blank2r.bmp	0	1	+	0	1	blank2r.bmp	252	1	BZZB	306	1	schlecht	559	1	FEHLER	892	0	0	0	0	0	0	0	0	0	0	0	0	0	0	0	0	0	0	0	0	0	0	0	0	0	0	0	0	0	0	0	0	0	0	0	0
071619	16:43:43	16:48:34	289921	5.0.10.0	5_exp_noRW	58	Rpleas_acq	CS_B	JXXJ	YDDY	GWWG	BZZB	MQQM	VKKV	treu	retten	spielen	schön	ehrlich	fair	tot	rächen	strafen	schlecht	eitel	faul	53pct	acq_USunple_CSunple1_noRW	acq23456_noRW	2	20	0	0	300	300	435	46	0	1	1	blank2r.bmp	0	1	+	0	1	blank2r.bmp	252	1	GWWG	306	1	tot	559	0	0	0	0	0	0	0	0	0	0	0	0	0	0	0	0	0	0	0	0	0	0	0	0	0	0	0	0	0	0	0	0	0	0	0	0	0	0	0
071619	16:43:43	16:48:35	291493	5.0.10.0	5_exp_noRW	58	Rpleas_acq	CS_B	JXXJ	YDDY	GWWG	BZZB	MQQM	VKKV	treu	retten	spielen	schön	ehrlich	fair	tot	rächen	strafen	schlecht	eitel	faul	47pct	acq_USpleas_CSunple2_noRW	acq23456_noRW	2	21	0	0	300	300	403	50	0	1	1	blank2r.bmp	0	1	+	0	1	blank2r.bmp	252	1	BZZB	306	3	fair	559	0	0	0	0	0	0	0	0	0	0	0	0	0	0	0	0	0	0	0	0	0	0	0	0	0	0	0	0	0	0	0	0	0	0	0	0	0	0	0
071619	16:43:43	16:48:37	293093	5.0.10.0	5_exp_noRW	58	Rpleas_acq	CS_B	JXXJ	YDDY	GWWG	BZZB	MQQM	VKKV	treu	retten	spielen	schön	ehrlich	fair	tot	rächen	strafen	schlecht	eitel	faul	47pct	acq_USpleas_CSpleas1_noRW	acq23456_noRW	2	22	0	0	300	300	419	50	0	1	1	blank2r.bmp	0	1	+	0	1	blank2r.bmp	252	1	JXXJ	306	1	treu	559	0	0	0	0	0	0	0	0	0	0	0	0	0	0	0	0	0	0	0	0	0	0	0	0	0	0	0	0	0	0	0	0	0	0	0	0	0	0	0
071619	16:43:43	16:48:39	294719	5.0.10.0	5_exp_noRW	58	Rpleas_acq	CS_B	JXXJ	YDDY	GWWG	BZZB	MQQM	VKKV	treu	retten	spielen	schön	ehrlich	fair	tot	rächen	strafen	schlecht	eitel	faul	53pct	acq_USunple_CSunple1_noRW	acq23456_noRW	2	23	0	0	300	300	441	46	0	1	1	blank2r.bmp	0	1	+	0	1	blank2r.bmp	252	1	GWWG	306	3	strafen	559	0	0	0	0	0	0	0	0	0	0	0	0	0	0	0	0	0	0	0	0	0	0	0	0	0	0	0	0	0	0	0	0	0	0	0	0	0	0	0
071619	16:43:43	16:48:40	296358	5.0.10.0	5_exp_noRW	58	Rpleas_acq	CS_B	JXXJ	YDDY	GWWG	BZZB	MQQM	VKKV	treu	retten	spielen	schön	ehrlich	fair	tot	rächen	strafen	schlecht	eitel	faul	47pct	acq_USpleas_CSpleas2_noRW	acq23456_noRW	2	24	0	0	300	300	455	50	0	1	1	blank2r.bmp	0	1	+	0	1	blank2r.bmp	252	1	YDDY	306	1	schön	559	0	0	0	0	0	0	0	0	0	0	0	0	0	0	0	0	0	0	0	0	0	0	0	0	0	0	0	0	0	0	0	0	0	0	0	0	0	0	0
071619	16:43:43	16:48:42	297944	5.0.10.0	5_exp_noRW	58	Rpleas_acq	CS_B	JXXJ	YDDY	GWWG	BZZB	MQQM	VKKV	treu	retten	spielen	schön	ehrlich	fair	tot	rächen	strafen	schlecht	eitel	faul	47pct	acq_USunple_CSunple1_noRW	acq23456_noRW	2	25	0	0	300	300	399	46	0	1	1	blank2r.bmp	0	1	+	0	1	blank2r.bmp	252	1	GWWG	306	1	tot	559	0	0	0	0	0	0	0	0	0	0	0	0	0	0	0	0	0	0	0	0	0	0	0	0	0	0	0	0	0	0	0	0	0	0	0	0	0	0	0
071619	16:43:43	16:48:44	299916	5.0.10.0	5_exp_noRW	58	Rpleas_acq	CS_B	JXXJ	YDDY	GWWG	BZZB	MQQM	VKKV	treu	retten	spielen	schön	ehrlich	fair	tot	rächen	strafen	schlecht	eitel	faul	47pct	acq_USpleas_CSpleas2_noRW	acq23456_noRW	2	26	0	0	300	300	801	50	0	1	1	blank2r.bmp	0	1	+	0	1	blank2r.bmp	252	1	YDDY	306	1	schön	559	0	0	0	0	0	0	0	0	0	0	0	0	0	0	0	0	0	0	0	0	0	0	0	0	0	0	0	0	0	0	0	0	0	0	0	0	0	0	0
071619	16:43:43	16:48:46	301636	5.0.10.0	5_exp_noRW	58	Rpleas_acq	CS_B	JXXJ	YDDY	GWWG	BZZB	MQQM	VKKV	treu	retten	spielen	schön	ehrlich	fair	tot	rächen	strafen	schlecht	eitel	faul	47pct	acq_USunple_CSunple2_noRW	acq23456_noRW	2	27	0	0	300	300	542	46	0	1	1	blank2r.bmp	0	1	+	0	1	blank2r.bmp	252	1	BZZB	306	3	faul	559	0	0	0	0	0	0	0	0	0	0	0	0	0	0	0	0	0	0	0	0	0	0	0	0	0	0	0	0	0	0	0	0	0	0	0	0	0	0	0
071619	16:43:43	16:48:47	303355	5.0.10.0	5_exp_noRW	58	Rpleas_acq	CS_B	JXXJ	YDDY	GWWG	BZZB	MQQM	VKKV	treu	retten	spielen	schön	ehrlich	fair	tot	rächen	strafen	schlecht	eitel	faul	47pct	acq_USunple_CSpleas2_noRW	acq23456_noRW	2	28	0	0	300	300	557	46	0	1	1	blank2r.bmp	0	1	+	0	1	blank2r.bmp	252	1	YDDY	306	3	faul	559	0	0	0	0	0	0	0	0	0	0	0	0	0	0	0	0	0	0	0	0	0	0	0	0	0	0	0	0	0	0	0	0	0	0	0	0	0	0	0
071619	16:43:43	16:48:49	305088	5.0.10.0	5_exp_noRW	58	Rpleas_acq	CS_B	JXXJ	YDDY	GWWG	BZZB	MQQM	VKKV	treu	retten	spielen	schön	ehrlich	fair	tot	rächen	strafen	schlecht	eitel	faul	47pct	acq_USpleas_CSpleas1_noRW	acq23456_noRW	2	29	0	0	300	300	545	50	0	1	1	blank2r.bmp	0	1	+	0	1	blank2r.bmp	252	1	JXXJ	306	1	treu	559	0	0	0	0	0	0	0	0	0	0	0	0	0	0	0	0	0	0	0	0	0	0	0	0	0	0	0	0	0	0	0	0	0	0	0	0	0	0	0
071619	16:43:43	16:48:51	306874	5.0.10.0	5_exp_noRW	58	Rpleas_acq	CS_B	JXXJ	YDDY	GWWG	BZZB	MQQM	VKKV	treu	retten	spielen	schön	ehrlich	fair	tot	rächen	strafen	schlecht	eitel	faul	47pct	acq_USunple_CSunple1_noRW	acq23456_noRW	2	30	0	0	300	300	620	46	0	1	1	blank2r.bmp	0	1	+	0	1	blank2r.bmp	252	1	GWWG	306	3	strafen	559	0	0	0	0	0	0	0	0	0	0	0	0	0	0	0	0	0	0	0	0	0	0	0	0	0	0	0	0	0	0	0	0	0	0	0	0	0	0	0
071619	16:43:43	16:48:53	308726	5.0.10.0	5_exp_noRW	58	Rpleas_acq	CS_B	JXXJ	YDDY	GWWG	BZZB	MQQM	VKKV	treu	retten	spielen	schön	ehrlich	fair	tot	rächen	strafen	schlecht	eitel	faul	53pct	acq_USunple_CSunple2_noRW	acq23456_noRW	2	31	0	0	300	300	674	46	0	1	1	blank2r.bmp	0	1	+	0	1	blank2r.bmp	252	1	BZZB	306	3	faul	559	0	0	0	0	0	0	0	0	0	0	0	0	0	0	0	0	0	0	0	0	0	0	0	0	0	0	0	0	0	0	0	0	0	0	0	0	0	0	0
071619	16:43:43	16:48:54	310592	5.0.10.0	5_exp_noRW	58	Rpleas_acq	CS_B	JXXJ	YDDY	GWWG	BZZB	MQQM	VKKV	treu	retten	spielen	schön	ehrlich	fair	tot	rächen	strafen	schlecht	eitel	faul	53pct	acq_USpleas_CSpleas2_noRW	acq23456_noRW	2	32	0	0	300	300	688	50	0	1	1	blank2r.bmp	0	1	+	0	1	blank2r.bmp	252	1	YDDY	306	3	fair	559	0	0	0	0	0	0	0	0	0	0	0	0	0	0	0	0	0	0	0	0	0	0	0	0	0	0	0	0	0	0	0	0	0	0	0	0	0	0	0
071619	16:43:43	16:48:56	312245	5.0.10.0	5_exp_noRW	58	Rpleas_acq	CS_B	JXXJ	YDDY	GWWG	BZZB	MQQM	VKKV	treu	retten	spielen	schön	ehrlich	fair	tot	rächen	strafen	schlecht	eitel	faul	53pct	acq_USunple_CSunple2_noRW	acq23456_noRW	2	33	0	0	300	300	469	46	0	1	1	blank2r.bmp	0	1	+	0	1	blank2r.bmp	252	1	BZZB	306	2	eitel	559	0	0	0	0	0	0	0	0	0	0	0	0	0	0	0	0	0	0	0	0	0	0	0	0	0	0	0	0	0	0	0	0	0	0	0	0	0	0	0
071619	16:43:43	16:48:58	314004	5.0.10.0	5_exp_noRW	58	Rpleas_acq	CS_B	JXXJ	YDDY	GWWG	BZZB	MQQM	VKKV	treu	retten	spielen	schön	ehrlich	fair	tot	rächen	strafen	schlecht	eitel	faul	47pct	acq_USpleas_CSunple1_noRW	acq23456_noRW	2	34	0	0	300	300	589	50	0	1	1	blank2r.bmp	0	1	+	0	1	blank2r.bmp	252	1	GWWG	306	1	treu	559	0	0	0	0	0	0	0	0	0	0	0	0	0	0	0	0	0	0	0	0	0	0	0	0	0	0	0	0	0	0	0	0	0	0	0	0	0	0	0
071619	16:43:43	16:49:00	315617	5.0.10.0	5_exp_noRW	58	Rpleas_acq	CS_B	JXXJ	YDDY	GWWG	BZZB	MQQM	VKKV	treu	retten	spielen	schön	ehrlich	fair	tot	rächen	strafen	schlecht	eitel	faul	47pct	acq_USunple_CSpleas1_noRW	acq23456_noRW	2	35	0	0	300	300	437	46	0	1	1	blank2r.bmp	0	1	+	0	1	blank2r.bmp	252	1	JXXJ	306	1	tot	559	0	0	0	0	0	0	0	0	0	0	0	0	0	0	0	0	0	0	0	0	0	0	0	0	0	0	0	0	0	0	0	0	0	0	0	0	0	0	0
071619	16:43:43	16:49:01	317389	5.0.10.0	5_exp_noRW	58	Rpleas_acq	CS_B	JXXJ	YDDY	GWWG	BZZB	MQQM	VKKV	treu	retten	spielen	schön	ehrlich	fair	tot	rächen	strafen	schlecht	eitel	faul	47pct	acq_USpleas_CSpleas2_noRW	acq23456_noRW	2	36	0	0	300	300	587	50	0	1	1	blank2r.bmp	0	1	+	0	1	blank2r.bmp	252	1	YDDY	306	2	ehrlich	559	0	0	0	0	0	0	0	0	0	0	0	0	0	0	0	0	0	0	0	0	0	0	0	0	0	0	0	0	0	0	0	0	0	0	0	0	0	0	0
071619	16:43:43	16:49:03	319535	5.0.10.0	5_exp_noRW	58	Rpleas_acq	CS_B	JXXJ	YDDY	GWWG	BZZB	MQQM	VKKV	treu	retten	spielen	schön	ehrlich	fair	tot	rächen	strafen	schlecht	eitel	faul	47pct	acq_USunple_CSunple1_noRW	acq23456_noRW	2	37	0	0	300	300	965	46	0	1	1	blank2r.bmp	0	1	+	0	1	blank2r.bmp	252	1	GWWG	306	2	rächen	559	0	0	0	0	0	0	0	0	0	0	0	0	0	0	0	0	0	0	0	0	0	0	0	0	0	0	0	0	0	0	0	0	0	0	0	0	0	0	0
071619	16:43:43	16:49:05	321201	5.0.10.0	5_exp_noRW	58	Rpleas_acq	CS_B	JXXJ	YDDY	GWWG	BZZB	MQQM	VKKV	treu	retten	spielen	schön	ehrlich	fair	tot	rächen	strafen	schlecht	eitel	faul	53pct	acq_USpleas_CSpleas1_noRW	acq23456_noRW	2	38	0	0	300	300	480	50	0	1	1	blank2r.bmp	0	1	+	0	1	blank2r.bmp	252	1	JXXJ	306	2	retten	559	0	0	0	0	0	0	0	0	0	0	0	0	0	0	0	0	0	0	0	0	0	0	0	0	0	0	0	0	0	0	0	0	0	0	0	0	0	0	0
071619	16:43:43	16:49:07	322987	5.0.10.0	5_exp_noRW	58	Rpleas_acq	CS_B	JXXJ	YDDY	GWWG	BZZB	MQQM	VKKV	treu	retten	spielen	schön	ehrlich	fair	tot	rächen	strafen	schlecht	eitel	faul	47pct	acq_USpleas_CSpleas1_noRW	acq23456_noRW	2	39	0	0	300	300	619	50	0	1	1	blank2r.bmp	0	1	+	0	1	blank2r.bmp	252	1	JXXJ	306	3	spielen	559	0	0	0	0	0	0	0	0	0	0	0	0	0	0	0	0	0	0	0	0	0	0	0	0	0	0	0	0	0	0	0	0	0	0	0	0	0	0	0
071619	16:43:43	16:49:09	324626	5.0.10.0	5_exp_noRW	58	Rpleas_acq	CS_B	JXXJ	YDDY	GWWG	BZZB	MQQM	VKKV	treu	retten	spielen	schön	ehrlich	fair	tot	rächen	strafen	schlecht	eitel	faul	47pct	acq_USunple_CSunple2_noRW	acq23456_noRW	2	40	0	0	300	300	456	46	0	1	1	blank2r.bmp	0	1	+	0	1	blank2r.bmp	252	1	BZZB	306	1	schlecht	559	0	0	0	0	0	0	0	0	0	0	0	0	0	0	0	0	0	0	0	0	0	0	0	0	0	0	0	0	0	0	0	0	0	0	0	0	0	0	0
071619	16:43:43	16:49:11	326626	5.0.10.0	5_exp_noRW	58	Rpleas_acq	CS_B	JXXJ	YDDY	GWWG	BZZB	MQQM	VKKV	treu	retten	spielen	schön	ehrlich	fair	tot	rächen	strafen	schlecht	eitel	faul	53pct	acq_USpleas_CSunple2_noRW	acq23456_noRW	2	41	0	0	300	300	815	50	0	1	1	blank2r.bmp	0	1	+	0	1	blank2r.bmp	252	1	BZZB	306	1	schön	559	0	0	0	0	0	0	0	0	0	0	0	0	0	0	0	0	0	0	0	0	0	0	0	0	0	0	0	0	0	0	0	0	0	0	0	0	0	0	0
071619	16:43:43	16:49:12	328318	5.0.10.0	5_exp_noRW	58	Rpleas_acq	CS_B	JXXJ	YDDY	GWWG	BZZB	MQQM	VKKV	treu	retten	spielen	schön	ehrlich	fair	tot	rächen	strafen	schlecht	eitel	faul	47pct	acq_USpleas_CSunple1_noRW	acq23456_noRW	2	42	0	0	300	300	529	50	0	1	1	blank2r.bmp	0	1	+	0	1	blank2r.bmp	252	1	GWWG	306	1	treu	559	0	0	0	0	0	0	0	0	0	0	0	0	0	0	0	0	0	0	0	0	0	0	0	0	0	0	0	0	0	0	0	0	0	0	0	0	0	0	0
071619	16:43:43	16:49:14	330144	5.0.10.0	5_exp_noRW	58	Rpleas_acq	CS_B	JXXJ	YDDY	GWWG	BZZB	MQQM	VKKV	treu	retten	spielen	schön	ehrlich	fair	tot	rächen	strafen	schlecht	eitel	faul	47pct	acq_USunple_CSunple1_noRW	acq23456_noRW	2	43	0	0	300	300	644	46	0	1	1	blank2r.bmp	0	1	+	0	1	blank2r.bmp	252	1	GWWG	306	2	rächen	559	0	0	0	0	0	0	0	0	0	0	0	0	0	0	0	0	0	0	0	0	0	0	0	0	0	0	0	0	0	0	0	0	0	0	0	0	0	0	0
071619	16:43:43	16:49:16	332157	5.0.10.0	5_exp_noRW	58	Rpleas_acq	CS_B	JXXJ	YDDY	GWWG	BZZB	MQQM	VKKV	treu	retten	spielen	schön	ehrlich	fair	tot	rächen	strafen	schlecht	eitel	faul	47pct	acq_USunple_CSunple2_noRW	acq23456_noRW	2	44	0	0	300	300	614	50	0	0	1	blank2r.bmp	0	1	+	0	1	blank2r.bmp	252	1	BZZB	306	2	eitel	559	1	FEHLER	1212	0	0	0	0	0	0	0	0	0	0	0	0	0	0	0	0	0	0	0	0	0	0	0	0	0	0	0	0	0	0	0	0	0	0	0	0
071619	16:43:43	16:49:18	333836	5.0.10.0	5_exp_noRW	58	Rpleas_acq	CS_B	JXXJ	YDDY	GWWG	BZZB	MQQM	VKKV	treu	retten	spielen	schön	ehrlich	fair	tot	rächen	strafen	schlecht	eitel	faul	53pct	acq_USunple_CSunple1_noRW	acq23456_noRW	2	45	0	0	300	300	714	46	0	1	1	blank2r.bmp	0	1	+	0	1	blank2r.bmp	252	1	GWWG	306	3	strafen	559	0	0	0	0	0	0	0	0	0	0	0	0	0	0	0	0	0	0	0	0	0	0	0	0	0	0	0	0	0	0	0	0	0	0	0	0	0	0	0
071619	16:43:43	16:49:19	335529	5.0.10.0	5_exp_noRW	58	Rpleas_acq	CS_B	JXXJ	YDDY	GWWG	BZZB	MQQM	VKKV	treu	retten	spielen	schön	ehrlich	fair	tot	rächen	strafen	schlecht	eitel	faul	47pct	acq_USpleas_CSpleas1_noRW	acq23456_noRW	2	46	0	0	300	300	527	50	0	1	1	blank2r.bmp	0	1	+	0	1	blank2r.bmp	252	1	JXXJ	306	1	treu	559	0	0	0	0	0	0	0	0	0	0	0	0	0	0	0	0	0	0	0	0	0	0	0	0	0	0	0	0	0	0	0	0	0	0	0	0	0	0	0
071619	16:43:43	16:49:21	337301	5.0.10.0	5_exp_noRW	58	Rpleas_acq	CS_B	JXXJ	YDDY	GWWG	BZZB	MQQM	VKKV	treu	retten	spielen	schön	ehrlich	fair	tot	rächen	strafen	schlecht	eitel	faul	53pct	acq_USpleas_CSpleas2_noRW	acq23456_noRW	2	47	0	0	300	300	585	50	0	1	1	blank2r.bmp	0	1	+	0	1	blank2r.bmp	252	1	YDDY	306	1	schön	559	0	0	0	0	0	0	0	0	0	0	0	0	0	0	0	0	0	0	0	0	0	0	0	0	0	0	0	0	0	0	0	0	0	0	0	0	0	0	0
071619	16:43:43	16:49:23	338954	5.0.10.0	5_exp_noRW	58	Rpleas_acq	CS_B	JXXJ	YDDY	GWWG	BZZB	MQQM	VKKV	treu	retten	spielen	schön	ehrlich	fair	tot	rächen	strafen	schlecht	eitel	faul	53pct	acq_USpleas_CSpleas1_noRW	acq23456_noRW	2	48	0	0	300	300	484	50	0	1	1	blank2r.bmp	0	1	+	0	1	blank2r.bmp	252	1	JXXJ	306	3	spielen	559	0	0	0	0	0	0	0	0	0	0	0	0	0	0	0	0	0	0	0	0	0	0	0	0	0	0	0	0	0	0	0	0	0	0	0	0	0	0	0
071619	16:43:43	16:49:25	340860	5.0.10.0	5_exp_noRW	58	Rpleas_acq	CS_B	JXXJ	YDDY	GWWG	BZZB	MQQM	VKKV	treu	retten	spielen	schön	ehrlich	fair	tot	rächen	strafen	schlecht	eitel	faul	47pct	acq_USpleas_CSpleas1_noRW	acq23456_noRW	2	49	0	0	300	300	733	50	0	1	1	blank2r.bmp	0	1	+	0	1	blank2r.bmp	252	1	JXXJ	306	2	retten	559	0	0	0	0	0	0	0	0	0	0	0	0	0	0	0	0	0	0	0	0	0	0	0	0	0	0	0	0	0	0	0	0	0	0	0	0	0	0	0
071619	16:43:43	16:49:27	342606	5.0.10.0	5_exp_noRW	58	Rpleas_acq	CS_B	JXXJ	YDDY	GWWG	BZZB	MQQM	VKKV	treu	retten	spielen	schön	ehrlich	fair	tot	rächen	strafen	schlecht	eitel	faul	47pct	acq_USpleas_CSpleas2_noRW	acq23456_noRW	2	50	0	0	300	300	580	50	0	1	1	blank2r.bmp	0	1	+	0	1	blank2r.bmp	252	1	YDDY	306	2	ehrlich	559	0	0	0	0	0	0	0	0	0	0	0	0	0	0	0	0	0	0	0	0	0	0	0	0	0	0	0	0	0	0	0	0	0	0	0	0	0	0	0
071619	16:43:43	16:49:28	344405	5.0.10.0	5_exp_noRW	58	Rpleas_acq	CS_B	JXXJ	YDDY	GWWG	BZZB	MQQM	VKKV	treu	retten	spielen	schön	ehrlich	fair	tot	rächen	strafen	schlecht	eitel	faul	47pct	acq_USunple_CSpleas2_noRW	acq23456_noRW	2	51	0	0	300	300	615	46	0	1	1	blank2r.bmp	0	1	+	0	1	blank2r.bmp	252	1	YDDY	306	3	faul	559	0	0	0	0	0	0	0	0	0	0	0	0	0	0	0	0	0	0	0	0	0	0	0	0	0	0	0	0	0	0	0	0	0	0	0	0	0	0	0
071619	16:43:43	16:49:30	346084	5.0.10.0	5_exp_noRW	58	Rpleas_acq	CS_B	JXXJ	YDDY	GWWG	BZZB	MQQM	VKKV	treu	retten	spielen	schön	ehrlich	fair	tot	rächen	strafen	schlecht	eitel	faul	53pct	acq_USpleas_CSpleas2_noRW	acq23456_noRW	2	52	0	0	300	300	494	50	0	1	1	blank2r.bmp	0	1	+	0	1	blank2r.bmp	252	1	YDDY	306	3	fair	559	0	0	0	0	0	0	0	0	0	0	0	0	0	0	0	0	0	0	0	0	0	0	0	0	0	0	0	0	0	0	0	0	0	0	0	0	0	0	0
071619	16:43:43	16:49:32	347790	5.0.10.0	5_exp_noRW	58	Rpleas_acq	CS_B	JXXJ	YDDY	GWWG	BZZB	MQQM	VKKV	treu	retten	spielen	schön	ehrlich	fair	tot	rächen	strafen	schlecht	eitel	faul	47pct	acq_USunple_CSunple1_noRW	acq23456_noRW	2	53	0	0	300	300	536	46	0	1	1	blank2r.bmp	0	1	+	0	1	blank2r.bmp	252	1	GWWG	306	1	tot	559	0	0	0	0	0	0	0	0	0	0	0	0	0	0	0	0	0	0	0	0	0	0	0	0	0	0	0	0	0	0	0	0	0	0	0	0	0	0	0
071619	16:43:43	16:49:33	349509	5.0.10.0	5_exp_noRW	58	Rpleas_acq	CS_B	JXXJ	YDDY	GWWG	BZZB	MQQM	VKKV	treu	retten	spielen	schön	ehrlich	fair	tot	rächen	strafen	schlecht	eitel	faul	53pct	acq_USpleas_CSpleas2_noRW	acq23456_noRW	2	54	0	0	300	300	538	50	0	1	1	blank2r.bmp	0	1	+	0	1	blank2r.bmp	252	1	YDDY	306	1	schön	559	0	0	0	0	0	0	0	0	0	0	0	0	0	0	0	0	0	0	0	0	0	0	0	0	0	0	0	0	0	0	0	0	0	0	0	0	0	0	0
071619	16:43:43	16:49:35	351255	5.0.10.0	5_exp_noRW	58	Rpleas_acq	CS_B	JXXJ	YDDY	GWWG	BZZB	MQQM	VKKV	treu	retten	spielen	schön	ehrlich	fair	tot	rächen	strafen	schlecht	eitel	faul	53pct	acq_USunple_CSunple2_noRW	acq23456_noRW	2	55	0	0	300	300	564	46	0	1	1	blank2r.bmp	0	1	+	0	1	blank2r.bmp	252	1	BZZB	306	1	schlecht	559	0	0	0	0	0	0	0	0	0	0	0	0	0	0	0	0	0	0	0	0	0	0	0	0	0	0	0	0	0	0	0	0	0	0	0	0	0	0	0
071619	16:43:43	16:49:37	352961	5.0.10.0	5_exp_noRW	58	Rpleas_acq	CS_B	JXXJ	YDDY	GWWG	BZZB	MQQM	VKKV	treu	retten	spielen	schön	ehrlich	fair	tot	rächen	strafen	schlecht	eitel	faul	47pct	acq_USpleas_CSpleas1_noRW	acq23456_noRW	2	56	0	0	300	300	525	50	0	1	1	blank2r.bmp	0	1	+	0	1	blank2r.bmp	252	1	JXXJ	306	2	retten	559	0	0	0	0	0	0	0	0	0	0	0	0	0	0	0	0	0	0	0	0	0	0	0	0	0	0	0	0	0	0	0	0	0	0	0	0	0	0	0
071619	16:43:43	16:49:38	354587	5.0.10.0	5_exp_noRW	58	Rpleas_acq	CS_B	JXXJ	YDDY	GWWG	BZZB	MQQM	VKKV	treu	retten	spielen	schön	ehrlich	fair	tot	rächen	strafen	schlecht	eitel	faul	53pct	acq_USunple_CSunple2_noRW	acq23456_noRW	2	57	0	0	300	300	464	46	0	1	1	blank2r.bmp	0	1	+	0	1	blank2r.bmp	252	1	BZZB	306	3	faul	559	0	0	0	0	0	0	0	0	0	0	0	0	0	0	0	0	0	0	0	0	0	0	0	0	0	0	0	0	0	0	0	0	0	0	0	0	0	0	0
071619	16:43:43	16:49:40	356400	5.0.10.0	5_exp_noRW	58	Rpleas_acq	CS_B	JXXJ	YDDY	GWWG	BZZB	MQQM	VKKV	treu	retten	spielen	schön	ehrlich	fair	tot	rächen	strafen	schlecht	eitel	faul	53pct	acq_USunple_CSunple1_noRW	acq23456_noRW	2	58	0	0	300	300	631	46	0	1	1	blank2r.bmp	0	1	+	0	1	blank2r.bmp	252	1	GWWG	306	3	strafen	559	0	0	0	0	0	0	0	0	0	0	0	0	0	0	0	0	0	0	0	0	0	0	0	0	0	0	0	0	0	0	0	0	0	0	0	0	0	0	0
071619	16:43:43	16:49:42	358093	5.0.10.0	5_exp_noRW	58	Rpleas_acq	CS_B	JXXJ	YDDY	GWWG	BZZB	MQQM	VKKV	treu	retten	spielen	schön	ehrlich	fair	tot	rächen	strafen	schlecht	eitel	faul	53pct	acq_USunple_CSpleas1_noRW	acq23456_noRW	2	59	0	0	300	300	509	46	0	1	1	blank2r.bmp	0	1	+	0	1	blank2r.bmp	252	1	JXXJ	306	1	tot	559	0	0	0	0	0	0	0	0	0	0	0	0	0	0	0	0	0	0	0	0	0	0	0	0	0	0	0	0	0	0	0	0	0	0	0	0	0	0	0
071619	16:43:43	16:49:44	359812	5.0.10.0	5_exp_noRW	58	Rpleas_acq	CS_B	JXXJ	YDDY	GWWG	BZZB	MQQM	VKKV	treu	retten	spielen	schön	ehrlich	fair	tot	rächen	strafen	schlecht	eitel	faul	53pct	acq_USunple_CSunple2_noRW	acq23456_noRW	2	60	0	0	300	300	550	46	0	1	1	blank2r.bmp	0	1	+	0	1	blank2r.bmp	252	1	BZZB	306	3	faul	559	0	0	0	0	0	0	0	0	0	0	0	0	0	0	0	0	0	0	0	0	0	0	0	0	0	0	0	0	0	0	0	0	0	0	0	0	0	0	0
071619	16:43:43	16:49:45	361571	5.0.10.0	5_exp_noRW	58	Rpleas_acq	CS_B	JXXJ	YDDY	GWWG	BZZB	MQQM	VKKV	treu	retten	spielen	schön	ehrlich	fair	tot	rächen	strafen	schlecht	eitel	faul	47pct	acq_USpleas_CSpleas2_noRW	acq23456_noRW	2	61	0	0	300	300	592	50	0	1	1	blank2r.bmp	0	1	+	0	1	blank2r.bmp	252	1	YDDY	306	3	fair	559	0	0	0	0	0	0	0	0	0	0	0	0	0	0	0	0	0	0	0	0	0	0	0	0	0	0	0	0	0	0	0	0	0	0	0	0	0	0	0
071619	16:43:43	16:49:47	363544	5.0.10.0	5_exp_noRW	58	Rpleas_acq	CS_B	JXXJ	YDDY	GWWG	BZZB	MQQM	VKKV	treu	retten	spielen	schön	ehrlich	fair	tot	rächen	strafen	schlecht	eitel	faul	53pct	acq_USpleas_CSunple2_noRW	acq23456_noRW	2	62	0	0	300	300	803	50	0	1	1	blank2r.bmp	0	1	+	0	1	blank2r.bmp	252	1	BZZB	306	3	fair	559	0	0	0	0	0	0	0	0	0	0	0	0	0	0	0	0	0	0	0	0	0	0	0	0	0	0	0	0	0	0	0	0	0	0	0	0	0	0	0
071619	16:43:43	16:49:49	365436	5.0.10.0	5_exp_noRW	58	Rpleas_acq	CS_B	JXXJ	YDDY	GWWG	BZZB	MQQM	VKKV	treu	retten	spielen	schön	ehrlich	fair	tot	rächen	strafen	schlecht	eitel	faul	53pct	acq_USpleas_CSpleas1_noRW	acq23456_noRW	2	63	0	0	300	300	711	50	0	1	1	blank2r.bmp	0	1	+	0	1	blank2r.bmp	252	1	JXXJ	306	3	spielen	559	0	0	0	0	0	0	0	0	0	0	0	0	0	0	0	0	0	0	0	0	0	0	0	0	0	0	0	0	0	0	0	0	0	0	0	0	0	0	0
071619	16:43:43	16:49:51	367182	5.0.10.0	5_exp_noRW	58	Rpleas_acq	CS_B	JXXJ	YDDY	GWWG	BZZB	MQQM	VKKV	treu	retten	spielen	schön	ehrlich	fair	tot	rächen	strafen	schlecht	eitel	faul	53pct	acq_USunple_CSunple2_noRW	acq23456_noRW	2	64	0	0	300	300	569	46	0	1	1	blank2r.bmp	0	1	+	0	1	blank2r.bmp	252	1	BZZB	306	1	schlecht	559	0	0	0	0	0	0	0	0	0	0	0	0	0	0	0	0	0	0	0	0	0	0	0	0	0	0	0	0	0	0	0	0	0	0	0	0	0	0	0
071619	16:43:43	16:49:53	368795	5.0.10.0	5_exp_noRW	58	Rpleas_acq	CS_B	JXXJ	YDDY	GWWG	BZZB	MQQM	VKKV	treu	retten	spielen	schön	ehrlich	fair	tot	rächen	strafen	schlecht	eitel	faul	53pct	acq_USunple_CSpleas1_noRW	acq23456_noRW	2	65	0	0	300	300	429	46	0	1	1	blank2r.bmp	0	1	+	0	1	blank2r.bmp	252	1	JXXJ	306	2	rächen	559	0	0	0	0	0	0	0	0	0	0	0	0	0	0	0	0	0	0	0	0	0	0	0	0	0	0	0	0	0	0	0	0	0	0	0	0	0	0	0
071619	16:43:43	16:49:54	370368	5.0.10.0	5_exp_noRW	58	Rpleas_acq	CS_B	JXXJ	YDDY	GWWG	BZZB	MQQM	VKKV	treu	retten	spielen	schön	ehrlich	fair	tot	rächen	strafen	schlecht	eitel	faul	53pct	acq_USpleas_CSpleas1_noRW	acq23456_noRW	2	66	0	0	300	300	403	50	0	1	1	blank2r.bmp	0	1	+	0	1	blank2r.bmp	252	1	JXXJ	306	1	treu	559	0	0	0	0	0	0	0	0	0	0	0	0	0	0	0	0	0	0	0	0	0	0	0	0	0	0	0	0	0	0	0	0	0	0	0	0	0	0	0
071619	16:43:43	16:49:56	372207	5.0.10.0	5_exp_noRW	58	Rpleas_acq	CS_B	JXXJ	YDDY	GWWG	BZZB	MQQM	VKKV	treu	retten	spielen	schön	ehrlich	fair	tot	rächen	strafen	schlecht	eitel	faul	53pct	acq_USunple_CSunple1_noRW	acq23456_noRW	2	67	0	0	300	300	667	46	0	1	1	blank2r.bmp	0	1	+	0	1	blank2r.bmp	252	1	GWWG	306	2	rächen	559	0	0	0	0	0	0	0	0	0	0	0	0	0	0	0	0	0	0	0	0	0	0	0	0	0	0	0	0	0	0	0	0	0	0	0	0	0	0	0
071619	16:43:43	16:49:58	374046	5.0.10.0	5_exp_noRW	58	Rpleas_acq	CS_B	JXXJ	YDDY	GWWG	BZZB	MQQM	VKKV	treu	retten	spielen	schön	ehrlich	fair	tot	rächen	strafen	schlecht	eitel	faul	47pct	acq_USunple_CSunple2_noRW	acq23456_noRW	2	68	0	0	300	300	654	46	0	1	1	blank2r.bmp	0	1	+	0	1	blank2r.bmp	252	1	BZZB	306	2	eitel	559	0	0	0	0	0	0	0	0	0	0	0	0	0	0	0	0	0	0	0	0	0	0	0	0	0	0	0	0	0	0	0	0	0	0	0	0	0	0	0
071619	16:43:43	16:50:00	375872	5.0.10.0	5_exp_noRW	58	Rpleas_acq	CS_B	JXXJ	YDDY	GWWG	BZZB	MQQM	VKKV	treu	retten	spielen	schön	ehrlich	fair	tot	rächen	strafen	schlecht	eitel	faul	47pct	acq_USpleas_CSunple1_noRW	acq23456_noRW	2	69	0	0	300	300	649	50	0	1	1	blank2r.bmp	0	1	+	0	1	blank2r.bmp	252	1	GWWG	306	2	retten	559	0	0	0	0	0	0	0	0	0	0	0	0	0	0	0	0	0	0	0	0	0	0	0	0	0	0	0	0	0	0	0	0	0	0	0	0	0	0	0
071619	16:43:43	16:50:01	377525	5.0.10.0	5_exp_noRW	58	Rpleas_acq	CS_B	JXXJ	YDDY	GWWG	BZZB	MQQM	VKKV	treu	retten	spielen	schön	ehrlich	fair	tot	rächen	strafen	schlecht	eitel	faul	47pct	acq_USunple_CSunple2_noRW	acq23456_noRW	2	70	0	0	300	300	468	46	0	1	1	blank2r.bmp	0	1	+	0	1	blank2r.bmp	252	1	BZZB	306	3	faul	559	0	0	0	0	0	0	0	0	0	0	0	0	0	0	0	0	0	0	0	0	0	0	0	0	0	0	0	0	0	0	0	0	0	0	0	0	0	0	0
071619	16:43:43	16:50:03	379351	5.0.10.0	5_exp_noRW	58	Rpleas_acq	CS_B	JXXJ	YDDY	GWWG	BZZB	MQQM	VKKV	treu	retten	spielen	schön	ehrlich	fair	tot	rächen	strafen	schlecht	eitel	faul	53pct	acq_USunple_CSunple2_noRW	acq23456_noRW	2	71	0	0	300	300	646	46	0	1	1	blank2r.bmp	0	1	+	0	1	blank2r.bmp	252	1	BZZB	306	1	schlecht	559	0	0	0	0	0	0	0	0	0	0	0	0	0	0	0	0	0	0	0	0	0	0	0	0	0	0	0	0	0	0	0	0	0	0	0	0	0	0	0
071619	16:43:43	16:50:05	381043	5.0.10.0	5_exp_noRW	58	Rpleas_acq	CS_B	JXXJ	YDDY	GWWG	BZZB	MQQM	VKKV	treu	retten	spielen	schön	ehrlich	fair	tot	rächen	strafen	schlecht	eitel	faul	53pct	acq_USpleas_CSpleas2_noRW	acq23456_noRW	2	72	0	0	300	300	516	50	0	1	1	blank2r.bmp	0	1	+	0	1	blank2r.bmp	252	1	YDDY	306	2	ehrlich	559	0	0	0	0	0	0	0	0	0	0	0	0	0	0	0	0	0	0	0	0	0	0	0	0	0	0	0	0	0	0	0	0	0	0	0	0	0	0	0
071619	16:43:43	16:50:07	382709	5.0.10.0	5_exp_noRW	58	Rpleas_acq	CS_B	JXXJ	YDDY	GWWG	BZZB	MQQM	VKKV	treu	retten	spielen	schön	ehrlich	fair	tot	rächen	strafen	schlecht	eitel	faul	53pct	acq_USpleas_CSpleas1_noRW	acq23456_noRW	2	73	0	0	300	300	482	50	0	1	1	blank2r.bmp	0	1	+	0	1	blank2r.bmp	252	1	JXXJ	306	1	treu	559	0	0	0	0	0	0	0	0	0	0	0	0	0	0	0	0	0	0	0	0	0	0	0	0	0	0	0	0	0	0	0	0	0	0	0	0	0	0	0
071619	16:43:43	16:50:08	384429	5.0.10.0	5_exp_noRW	58	Rpleas_acq	CS_B	JXXJ	YDDY	GWWG	BZZB	MQQM	VKKV	treu	retten	spielen	schön	ehrlich	fair	tot	rächen	strafen	schlecht	eitel	faul	47pct	acq_USunple_CSunple1_noRW	acq23456_noRW	2	74	0	0	300	300	547	46	0	1	1	blank2r.bmp	0	1	+	0	1	blank2r.bmp	252	1	GWWG	306	1	tot	559	0	0	0	0	0	0	0	0	0	0	0	0	0	0	0	0	0	0	0	0	0	0	0	0	0	0	0	0	0	0	0	0	0	0	0	0	0	0	0
071619	16:43:43	16:50:11	386708	5.0.10.0	5_exp_noRW	58	Rpleas_acq	CS_B	JXXJ	YDDY	GWWG	BZZB	MQQM	VKKV	treu	retten	spielen	schön	ehrlich	fair	tot	rächen	strafen	schlecht	eitel	faul	53pct	acq_USunple_CSpleas2_noRW	acq23456_noRW	2	75	0	0	300	300	901	50	0	0	1	blank2r.bmp	0	1	+	0	1	blank2r.bmp	252	1	YDDY	306	2	eitel	559	1	FEHLER	1492	0	0	0	0	0	0	0	0	0	0	0	0	0	0	0	0	0	0	0	0	0	0	0	0	0	0	0	0	0	0	0	0	0	0	0	0
071619	16:43:43	16:50:12	388107	5.0.10.0	5_exp_noRW	58	Rpleas_acq	CS_B	JXXJ	YDDY	GWWG	BZZB	MQQM	VKKV	treu	retten	spielen	schön	ehrlich	fair	tot	rächen	strafen	schlecht	eitel	faul	47pct	acq_USunple_CSunple1_noRW	acq23456_noRW	2	76	0	0	300	300	429	46	0	1	1	blank2r.bmp	0	1	+	0	1	blank2r.bmp	252	1	GWWG	306	3	strafen	559	0	0	0	0	0	0	0	0	0	0	0	0	0	0	0	0	0	0	0	0	0	0	0	0	0	0	0	0	0	0	0	0	0	0	0	0	0	0	0
071619	16:43:43	16:50:14	389840	5.0.10.0	5_exp_noRW	58	Rpleas_acq	CS_B	JXXJ	YDDY	GWWG	BZZB	MQQM	VKKV	treu	retten	spielen	schön	ehrlich	fair	tot	rächen	strafen	schlecht	eitel	faul	47pct	acq_USpleas_CSpleas2_noRW	acq23456_noRW	2	77	0	0	300	300	569	50	0	1	1	blank2r.bmp	0	1	+	0	1	blank2r.bmp	252	1	YDDY	306	1	schön	559	0	0	0	0	0	0	0	0	0	0	0	0	0	0	0	0	0	0	0	0	0	0	0	0	0	0	0	0	0	0	0	0	0	0	0	0	0	0	0
071619	16:43:43	16:50:15	391546	5.0.10.0	5_exp_noRW	58	Rpleas_acq	CS_B	JXXJ	YDDY	GWWG	BZZB	MQQM	VKKV	treu	retten	spielen	schön	ehrlich	fair	tot	rächen	strafen	schlecht	eitel	faul	53pct	acq_USunple_CSunple1_noRW	acq23456_noRW	2	78	0	0	300	300	526	46	0	1	1	blank2r.bmp	0	1	+	0	1	blank2r.bmp	252	1	GWWG	306	2	rächen	559	0	0	0	0	0	0	0	0	0	0	0	0	0	0	0	0	0	0	0	0	0	0	0	0	0	0	0	0	0	0	0	0	0	0	0	0	0	0	0
071619	16:43:43	16:50:17	393398	5.0.10.0	5_exp_noRW	58	Rpleas_acq	CS_B	JXXJ	YDDY	GWWG	BZZB	MQQM	VKKV	treu	retten	spielen	schön	ehrlich	fair	tot	rächen	strafen	schlecht	eitel	faul	47pct	acq_USpleas_CSpleas2_noRW	acq23456_noRW	2	79	0	0	300	300	670	50	0	1	1	blank2r.bmp	0	1	+	0	1	blank2r.bmp	252	1	YDDY	306	3	fair	559	0	0	0	0	0	0	0	0	0	0	0	0	0	0	0	0	0	0	0	0	0	0	0	0	0	0	0	0	0	0	0	0	0	0	0	0	0	0	0
071619	16:43:43	16:50:19	395197	5.0.10.0	5_exp_noRW	58	Rpleas_acq	CS_B	JXXJ	YDDY	GWWG	BZZB	MQQM	VKKV	treu	retten	spielen	schön	ehrlich	fair	tot	rächen	strafen	schlecht	eitel	faul	47pct	acq_USpleas_CSpleas1_noRW	acq23456_noRW	2	80	0	0	300	300	625	50	0	1	1	blank2r.bmp	0	1	+	0	1	blank2r.bmp	252	1	JXXJ	306	3	spielen	559	0	0	0	0	0	0	0	0	0	0	0	0	0	0	0	0	0	0	0	0	0	0	0	0	0	0	0	0	0	0	0	0	0	0	0	0	0	0	0
071619	16:43:43	16:50:33	408832	5.0.10.0	5_exp_noRW	58	Rpleas_acq	CS_B	JXXJ	YDDY	GWWG	BZZB	MQQM	VKKV	treu	retten	spielen	schön	ehrlich	fair	tot	rächen	strafen	schlecht	eitel	faul	47pct	acq_USunple_CSunple2_noRW	acq23456_noRW	3	1	0	0	300	300	608	46	0	1	1	blank2r.bmp	0	1	+	0	1	blank2r.bmp	252	1	BZZB	306	2	eitel	559	0	0	0	0	0	0	0	0	0	0	0	0	0	0	0	0	0	0	0	0	0	0	0	0	0	0	0	0	0	0	0	0	0	0	0	0	0	0	0
071619	16:43:43	16:50:35	410618	5.0.10.0	5_exp_noRW	58	Rpleas_acq	CS_B	JXXJ	YDDY	GWWG	BZZB	MQQM	VKKV	treu	retten	spielen	schön	ehrlich	fair	tot	rächen	strafen	schlecht	eitel	faul	53pct	acq_USpleas_CSpleas2_noRW	acq23456_noRW	3	2	0	0	300	300	611	50	0	1	1	blank2r.bmp	0	1	+	0	1	blank2r.bmp	252	1	YDDY	306	2	ehrlich	559	0	0	0	0	0	0	0	0	0	0	0	0	0	0	0	0	0	0	0	0	0	0	0	0	0	0	0	0	0	0	0	0	0	0	0	0	0	0	0
071619	16:43:43	16:50:36	412297	5.0.10.0	5_exp_noRW	58	Rpleas_acq	CS_B	JXXJ	YDDY	GWWG	BZZB	MQQM	VKKV	treu	retten	spielen	schön	ehrlich	fair	tot	rächen	strafen	schlecht	eitel	faul	53pct	acq_USpleas_CSunple2_noRW	acq23456_noRW	3	3	0	0	300	300	503	50	0	1	1	blank2r.bmp	0	1	+	0	1	blank2r.bmp	252	1	BZZB	306	2	ehrlich	559	0	0	0	0	0	0	0	0	0	0	0	0	0	0	0	0	0	0	0	0	0	0	0	0	0	0	0	0	0	0	0	0	0	0	0	0	0	0	0
071619	16:43:43	16:50:38	413896	5.0.10.0	5_exp_noRW	58	Rpleas_acq	CS_B	JXXJ	YDDY	GWWG	BZZB	MQQM	VKKV	treu	retten	spielen	schön	ehrlich	fair	tot	rächen	strafen	schlecht	eitel	faul	47pct	acq_USunple_CSunple1_noRW	acq23456_noRW	3	4	0	0	300	300	420	46	0	1	1	blank2r.bmp	0	1	+	0	1	blank2r.bmp	252	1	GWWG	306	1	tot	559	0	0	0	0	0	0	0	0	0	0	0	0	0	0	0	0	0	0	0	0	0	0	0	0	0	0	0	0	0	0	0	0	0	0	0	0	0	0	0
071619	16:43:43	16:50:39	415496	5.0.10.0	5_exp_noRW	58	Rpleas_acq	CS_B	JXXJ	YDDY	GWWG	BZZB	MQQM	VKKV	treu	retten	spielen	schön	ehrlich	fair	tot	rächen	strafen	schlecht	eitel	faul	47pct	acq_USpleas_CSpleas2_noRW	acq23456_noRW	3	5	0	0	300	300	421	50	0	1	1	blank2r.bmp	0	1	+	0	1	blank2r.bmp	252	1	YDDY	306	2	ehrlich	559	0	0	0	0	0	0	0	0	0	0	0	0	0	0	0	0	0	0	0	0	0	0	0	0	0	0	0	0	0	0	0	0	0	0	0	0	0	0	0
071619	16:43:43	16:50:41	417242	5.0.10.0	5_exp_noRW	58	Rpleas_acq	CS_B	JXXJ	YDDY	GWWG	BZZB	MQQM	VKKV	treu	retten	spielen	schön	ehrlich	fair	tot	rächen	strafen	schlecht	eitel	faul	47pct	acq_USpleas_CSpleas2_noRW	acq23456_noRW	3	6	0	0	300	300	565	50	0	1	1	blank2r.bmp	0	1	+	0	1	blank2r.bmp	252	1	YDDY	306	3	fair	559	0	0	0	0	0	0	0	0	0	0	0	0	0	0	0	0	0	0	0	0	0	0	0	0	0	0	0	0	0	0	0	0	0	0	0	0	0	0	0
071619	16:43:43	16:50:43	418908	5.0.10.0	5_exp_noRW	58	Rpleas_acq	CS_B	JXXJ	YDDY	GWWG	BZZB	MQQM	VKKV	treu	retten	spielen	schön	ehrlich	fair	tot	rächen	strafen	schlecht	eitel	faul	47pct	acq_USunple_CSunple1_noRW	acq23456_noRW	3	7	0	0	300	300	490	46	0	1	1	blank2r.bmp	0	1	+	0	1	blank2r.bmp	252	1	GWWG	306	1	tot	559	0	0	0	0	0	0	0	0	0	0	0	0	0	0	0	0	0	0	0	0	0	0	0	0	0	0	0	0	0	0	0	0	0	0	0	0	0	0	0
071619	16:43:43	16:50:44	420587	5.0.10.0	5_exp_noRW	58	Rpleas_acq	CS_B	JXXJ	YDDY	GWWG	BZZB	MQQM	VKKV	treu	retten	spielen	schön	ehrlich	fair	tot	rächen	strafen	schlecht	eitel	faul	47pct	acq_USpleas_CSpleas1_noRW	acq23456_noRW	3	8	0	0	300	300	497	50	0	1	1	blank2r.bmp	0	1	+	0	1	blank2r.bmp	252	1	JXXJ	306	2	retten	559	0	0	0	0	0	0	0	0	0	0	0	0	0	0	0	0	0	0	0	0	0	0	0	0	0	0	0	0	0	0	0	0	0	0	0	0	0	0	0
071619	16:43:43	16:50:46	422320	5.0.10.0	5_exp_noRW	58	Rpleas_acq	CS_B	JXXJ	YDDY	GWWG	BZZB	MQQM	VKKV	treu	retten	spielen	schön	ehrlich	fair	tot	rächen	strafen	schlecht	eitel	faul	53pct	acq_USpleas_CSunple1_noRW	acq23456_noRW	3	9	0	0	300	300	560	50	0	1	1	blank2r.bmp	0	1	+	0	1	blank2r.bmp	252	1	GWWG	306	3	spielen	559	0	0	0	0	0	0	0	0	0	0	0	0	0	0	0	0	0	0	0	0	0	0	0	0	0	0	0	0	0	0	0	0	0	0	0	0	0	0	0
071619	16:43:43	16:50:48	423906	5.0.10.0	5_exp_noRW	58	Rpleas_acq	CS_B	JXXJ	YDDY	GWWG	BZZB	MQQM	VKKV	treu	retten	spielen	schön	ehrlich	fair	tot	rächen	strafen	schlecht	eitel	faul	53pct	acq_USpleas_CSpleas1_noRW	acq23456_noRW	3	10	0	0	300	300	424	50	0	1	1	blank2r.bmp	0	1	+	0	1	blank2r.bmp	252	1	JXXJ	306	3	spielen	559	0	0	0	0	0	0	0	0	0	0	0	0	0	0	0	0	0	0	0	0	0	0	0	0	0	0	0	0	0	0	0	0	0	0	0	0	0	0	0
071619	16:43:43	16:50:50	425598	5.0.10.0	5_exp_noRW	58	Rpleas_acq	CS_B	JXXJ	YDDY	GWWG	BZZB	MQQM	VKKV	treu	retten	spielen	schön	ehrlich	fair	tot	rächen	strafen	schlecht	eitel	faul	53pct	acq_USunple_CSunple2_noRW	acq23456_noRW	3	11	0	0	300	300	526	46	0	1	1	blank2r.bmp	0	1	+	0	1	blank2r.bmp	252	1	BZZB	306	1	schlecht	559	0	0	0	0	0	0	0	0	0	0	0	0	0	0	0	0	0	0	0	0	0	0	0	0	0	0	0	0	0	0	0	0	0	0	0	0	0	0	0
071619	16:43:43	16:50:51	427371	5.0.10.0	5_exp_noRW	58	Rpleas_acq	CS_B	JXXJ	YDDY	GWWG	BZZB	MQQM	VKKV	treu	retten	spielen	schön	ehrlich	fair	tot	rächen	strafen	schlecht	eitel	faul	53pct	acq_USpleas_CSpleas2_noRW	acq23456_noRW	3	12	0	0	300	300	596	50	0	1	1	blank2r.bmp	0	1	+	0	1	blank2r.bmp	252	1	YDDY	306	1	schön	559	0	0	0	0	0	0	0	0	0	0	0	0	0	0	0	0	0	0	0	0	0	0	0	0	0	0	0	0	0	0	0	0	0	0	0	0	0	0	0
071619	16:43:43	16:50:53	429264	5.0.10.0	5_exp_noRW	58	Rpleas_acq	CS_B	JXXJ	YDDY	GWWG	BZZB	MQQM	VKKV	treu	retten	spielen	schön	ehrlich	fair	tot	rächen	strafen	schlecht	eitel	faul	47pct	acq_USpleas_CSpleas1_noRW	acq23456_noRW	3	13	0	0	300	300	719	50	0	1	1	blank2r.bmp	0	1	+	0	1	blank2r.bmp	252	1	JXXJ	306	2	retten	559	0	0	0	0	0	0	0	0	0	0	0	0	0	0	0	0	0	0	0	0	0	0	0	0	0	0	0	0	0	0	0	0	0	0	0	0	0	0	0
071619	16:43:43	16:50:55	431049	5.0.10.0	5_exp_noRW	58	Rpleas_acq	CS_B	JXXJ	YDDY	GWWG	BZZB	MQQM	VKKV	treu	retten	spielen	schön	ehrlich	fair	tot	rächen	strafen	schlecht	eitel	faul	47pct	acq_USunple_CSunple2_noRW	acq23456_noRW	3	14	0	0	300	300	415	50	0	0	1	blank2r.bmp	0	1	+	0	1	blank2r.bmp	252	1	BZZB	306	3	faul	559	1	FEHLER	1012	0	0	0	0	0	0	0	0	0	0	0	0	0	0	0	0	0	0	0	0	0	0	0	0	0	0	0	0	0	0	0	0	0	0	0	0
071619	16:43:43	16:50:56	432489	5.0.10.0	5_exp_noRW	58	Rpleas_acq	CS_B	JXXJ	YDDY	GWWG	BZZB	MQQM	VKKV	treu	retten	spielen	schön	ehrlich	fair	tot	rächen	strafen	schlecht	eitel	faul	47pct	acq_USpleas_CSpleas1_noRW	acq23456_noRW	3	15	0	0	300	300	466	50	0	1	1	blank2r.bmp	0	1	+	0	1	blank2r.bmp	252	1	JXXJ	306	1	treu	559	0	0	0	0	0	0	0	0	0	0	0	0	0	0	0	0	0	0	0	0	0	0	0	0	0	0	0	0	0	0	0	0	0	0	0	0	0	0	0
071619	16:43:43	16:50:58	434168	5.0.10.0	5_exp_noRW	58	Rpleas_acq	CS_B	JXXJ	YDDY	GWWG	BZZB	MQQM	VKKV	treu	retten	spielen	schön	ehrlich	fair	tot	rächen	strafen	schlecht	eitel	faul	53pct	acq_USunple_CSpleas1_noRW	acq23456_noRW	3	16	0	0	300	300	507	46	0	1	1	blank2r.bmp	0	1	+	0	1	blank2r.bmp	252	1	JXXJ	306	3	strafen	559	0	0	0	0	0	0	0	0	0	0	0	0	0	0	0	0	0	0	0	0	0	0	0	0	0	0	0	0	0	0	0	0	0	0	0	0	0	0	0
071619	16:43:43	16:51:00	435927	5.0.10.0	5_exp_noRW	58	Rpleas_acq	CS_B	JXXJ	YDDY	GWWG	BZZB	MQQM	VKKV	treu	retten	spielen	schön	ehrlich	fair	tot	rächen	strafen	schlecht	eitel	faul	53pct	acq_USunple_CSunple2_noRW	acq23456_noRW	3	17	0	0	300	300	582	46	0	1	1	blank2r.bmp	0	1	+	0	1	blank2r.bmp	252	1	BZZB	306	2	eitel	559	0	0	0	0	0	0	0	0	0	0	0	0	0	0	0	0	0	0	0	0	0	0	0	0	0	0	0	0	0	0	0	0	0	0	0	0	0	0	0
071619	16:43:43	16:51:02	437620	5.0.10.0	5_exp_noRW	58	Rpleas_acq	CS_B	JXXJ	YDDY	GWWG	BZZB	MQQM	VKKV	treu	retten	spielen	schön	ehrlich	fair	tot	rächen	strafen	schlecht	eitel	faul	47pct	acq_USunple_CSunple1_noRW	acq23456_noRW	3	18	0	0	300	300	518	46	0	1	1	blank2r.bmp	0	1	+	0	1	blank2r.bmp	252	1	GWWG	306	2	rächen	559	0	0	0	0	0	0	0	0	0	0	0	0	0	0	0	0	0	0	0	0	0	0	0	0	0	0	0	0	0	0	0	0	0	0	0	0	0	0	0
071619	16:43:43	16:51:03	439473	5.0.10.0	5_exp_noRW	58	Rpleas_acq	CS_B	JXXJ	YDDY	GWWG	BZZB	MQQM	VKKV	treu	retten	spielen	schön	ehrlich	fair	tot	rächen	strafen	schlecht	eitel	faul	47pct	acq_USunple_CSunple1_noRW	acq23456_noRW	3	19	0	0	300	300	655	46	0	1	1	blank2r.bmp	0	1	+	0	1	blank2r.bmp	252	1	GWWG	306	3	strafen	559	0	0	0	0	0	0	0	0	0	0	0	0	0	0	0	0	0	0	0	0	0	0	0	0	0	0	0	0	0	0	0	0	0	0	0	0	0	0	0
071619	16:43:43	16:51:05	441285	5.0.10.0	5_exp_noRW	58	Rpleas_acq	CS_B	JXXJ	YDDY	GWWG	BZZB	MQQM	VKKV	treu	retten	spielen	schön	ehrlich	fair	tot	rächen	strafen	schlecht	eitel	faul	53pct	acq_USunple_CSpleas2_noRW	acq23456_noRW	3	20	0	0	300	300	627	46	0	1	1	blank2r.bmp	0	1	+	0	1	blank2r.bmp	252	1	YDDY	306	1	schlecht	559	0	0	0	0	0	0	0	0	0	0	0	0	0	0	0	0	0	0	0	0	0	0	0	0	0	0	0	0	0	0	0	0	0	0	0	0	0	0	0
071619	16:43:43	16:51:07	442925	5.0.10.0	5_exp_noRW	58	Rpleas_acq	CS_B	JXXJ	YDDY	GWWG	BZZB	MQQM	VKKV	treu	retten	spielen	schön	ehrlich	fair	tot	rächen	strafen	schlecht	eitel	faul	53pct	acq_USunple_CSunple2_noRW	acq23456_noRW	3	21	0	0	300	300	470	46	0	1	1	blank2r.bmp	0	1	+	0	1	blank2r.bmp	252	1	BZZB	306	3	faul	559	0	0	0	0	0	0	0	0	0	0	0	0	0	0	0	0	0	0	0	0	0	0	0	0	0	0	0	0	0	0	0	0	0	0	0	0	0	0	0
071619	16:43:43	16:51:09	444604	5.0.10.0	5_exp_noRW	58	Rpleas_acq	CS_B	JXXJ	YDDY	GWWG	BZZB	MQQM	VKKV	treu	retten	spielen	schön	ehrlich	fair	tot	rächen	strafen	schlecht	eitel	faul	53pct	acq_USpleas_CSpleas2_noRW	acq23456_noRW	3	22	0	0	300	300	513	50	0	1	1	blank2r.bmp	0	1	+	0	1	blank2r.bmp	252	1	YDDY	306	2	ehrlich	559	0	0	0	0	0	0	0	0	0	0	0	0	0	0	0	0	0	0	0	0	0	0	0	0	0	0	0	0	0	0	0	0	0	0	0	0	0	0	0
071619	16:43:43	16:51:10	446217	5.0.10.0	5_exp_noRW	58	Rpleas_acq	CS_B	JXXJ	YDDY	GWWG	BZZB	MQQM	VKKV	treu	retten	spielen	schön	ehrlich	fair	tot	rächen	strafen	schlecht	eitel	faul	47pct	acq_USpleas_CSpleas1_noRW	acq23456_noRW	3	23	0	0	300	300	427	50	0	1	1	blank2r.bmp	0	1	+	0	1	blank2r.bmp	252	1	JXXJ	306	1	treu	559	0	0	0	0	0	0	0	0	0	0	0	0	0	0	0	0	0	0	0	0	0	0	0	0	0	0	0	0	0	0	0	0	0	0	0	0	0	0	0
071619	16:43:43	16:51:12	447829	5.0.10.0	5_exp_noRW	58	Rpleas_acq	CS_B	JXXJ	YDDY	GWWG	BZZB	MQQM	VKKV	treu	retten	spielen	schön	ehrlich	fair	tot	rächen	strafen	schlecht	eitel	faul	47pct	acq_USpleas_CSunple1_noRW	acq23456_noRW	3	24	0	0	300	300	443	50	0	1	1	blank2r.bmp	0	1	+	0	1	blank2r.bmp	252	1	GWWG	306	2	retten	559	0	0	0	0	0	0	0	0	0	0	0	0	0	0	0	0	0	0	0	0	0	0	0	0	0	0	0	0	0	0	0	0	0	0	0	0	0	0	0
071619	16:43:43	16:51:14	449695	5.0.10.0	5_exp_noRW	58	Rpleas_acq	CS_B	JXXJ	YDDY	GWWG	BZZB	MQQM	VKKV	treu	retten	spielen	schön	ehrlich	fair	tot	rächen	strafen	schlecht	eitel	faul	47pct	acq_USpleas_CSpleas1_noRW	acq23456_noRW	3	25	0	0	300	300	691	50	0	1	1	blank2r.bmp	0	1	+	0	1	blank2r.bmp	252	1	JXXJ	306	3	spielen	559	0	0	0	0	0	0	0	0	0	0	0	0	0	0	0	0	0	0	0	0	0	0	0	0	0	0	0	0	0	0	0	0	0	0	0	0	0	0	0
071619	16:43:43	16:51:15	451321	5.0.10.0	5_exp_noRW	58	Rpleas_acq	CS_B	JXXJ	YDDY	GWWG	BZZB	MQQM	VKKV	treu	retten	spielen	schön	ehrlich	fair	tot	rächen	strafen	schlecht	eitel	faul	53pct	acq_USpleas_CSpleas2_noRW	acq23456_noRW	3	26	0	0	300	300	448	50	0	1	1	blank2r.bmp	0	1	+	0	1	blank2r.bmp	252	1	YDDY	306	3	fair	559	0	0	0	0	0	0	0	0	0	0	0	0	0	0	0	0	0	0	0	0	0	0	0	0	0	0	0	0	0	0	0	0	0	0	0	0	0	0	0
071619	16:43:43	16:51:17	453000	5.0.10.0	5_exp_noRW	58	Rpleas_acq	CS_B	JXXJ	YDDY	GWWG	BZZB	MQQM	VKKV	treu	retten	spielen	schön	ehrlich	fair	tot	rächen	strafen	schlecht	eitel	faul	47pct	acq_USunple_CSunple2_noRW	acq23456_noRW	3	27	0	0	300	300	501	46	0	1	1	blank2r.bmp	0	1	+	0	1	blank2r.bmp	252	1	BZZB	306	2	eitel	559	0	0	0	0	0	0	0	0	0	0	0	0	0	0	0	0	0	0	0	0	0	0	0	0	0	0	0	0	0	0	0	0	0	0	0	0	0	0	0
071619	16:43:43	16:51:18	454560	5.0.10.0	5_exp_noRW	58	Rpleas_acq	CS_B	JXXJ	YDDY	GWWG	BZZB	MQQM	VKKV	treu	retten	spielen	schön	ehrlich	fair	tot	rächen	strafen	schlecht	eitel	faul	47pct	acq_USunple_CSunple2_noRW	acq23456_noRW	3	28	0	0	300	300	387	46	0	1	1	blank2r.bmp	0	1	+	0	1	blank2r.bmp	252	1	BZZB	306	1	schlecht	559	0	0	0	0	0	0	0	0	0	0	0	0	0	0	0	0	0	0	0	0	0	0	0	0	0	0	0	0	0	0	0	0	0	0	0	0	0	0	0
071619	16:43:43	16:51:20	456079	5.0.10.0	5_exp_noRW	58	Rpleas_acq	CS_B	JXXJ	YDDY	GWWG	BZZB	MQQM	VKKV	treu	retten	spielen	schön	ehrlich	fair	tot	rächen	strafen	schlecht	eitel	faul	53pct	acq_USunple_CSunple1_noRW	acq23456_noRW	3	29	0	0	300	300	353	46	0	1	1	blank2r.bmp	0	1	+	0	1	blank2r.bmp	252	1	GWWG	306	3	strafen	559	0	0	0	0	0	0	0	0	0	0	0	0	0	0	0	0	0	0	0	0	0	0	0	0	0	0	0	0	0	0	0	0	0	0	0	0	0	0	0
071619	16:43:43	16:51:22	457599	5.0.10.0	5_exp_noRW	58	Rpleas_acq	CS_B	JXXJ	YDDY	GWWG	BZZB	MQQM	VKKV	treu	retten	spielen	schön	ehrlich	fair	tot	rächen	strafen	schlecht	eitel	faul	53pct	acq_USunple_CSpleas2_noRW	acq23456_noRW	3	30	0	0	300	300	343	46	0	1	1	blank2r.bmp	0	1	+	0	1	blank2r.bmp	252	1	YDDY	306	1	schlecht	559	0	0	0	0	0	0	0	0	0	0	0	0	0	0	0	0	0	0	0	0	0	0	0	0	0	0	0	0	0	0	0	0	0	0	0	0	0	0	0
071619	16:43:43	16:51:23	459424	5.0.10.0	5_exp_noRW	58	Rpleas_acq	CS_B	JXXJ	YDDY	GWWG	BZZB	MQQM	VKKV	treu	retten	spielen	schön	ehrlich	fair	tot	rächen	strafen	schlecht	eitel	faul	53pct	acq_USpleas_CSpleas1_noRW	acq23456_noRW	3	31	0	0	300	300	435	46	0	0	1	blank2r.bmp	0	1	+	0	1	blank2r.bmp	252	1	JXXJ	306	2	retten	559	1	FEHLER	1026	0	0	0	0	0	0	0	0	0	0	0	0	0	0	0	0	0	0	0	0	0	0	0	0	0	0	0	0	0	0	0	0	0	0	0	0
071619	16:43:43	16:51:25	461117	5.0.10.0	5_exp_noRW	58	Rpleas_acq	CS_B	JXXJ	YDDY	GWWG	BZZB	MQQM	VKKV	treu	retten	spielen	schön	ehrlich	fair	tot	rächen	strafen	schlecht	eitel	faul	53pct	acq_USpleas_CSpleas2_noRW	acq23456_noRW	3	32	0	0	300	300	734	50	0	1	1	blank2r.bmp	0	1	+	0	1	blank2r.bmp	252	1	YDDY	306	1	schön	559	0	0	0	0	0	0	0	0	0	0	0	0	0	0	0	0	0	0	0	0	0	0	0	0	0	0	0	0	0	0	0	0	0	0	0	0	0	0	0
071619	16:43:43	16:51:27	462716	5.0.10.0	5_exp_noRW	58	Rpleas_acq	CS_B	JXXJ	YDDY	GWWG	BZZB	MQQM	VKKV	treu	retten	spielen	schön	ehrlich	fair	tot	rächen	strafen	schlecht	eitel	faul	53pct	acq_USunple_CSunple1_noRW	acq23456_noRW	3	33	0	0	300	300	425	46	0	1	1	blank2r.bmp	0	1	+	0	1	blank2r.bmp	252	1	GWWG	306	1	tot	559	0	0	0	0	0	0	0	0	0	0	0	0	0	0	0	0	0	0	0	0	0	0	0	0	0	0	0	0	0	0	0	0	0	0	0	0	0	0	0
071619	16:43:43	16:51:28	464542	5.0.10.0	5_exp_noRW	58	Rpleas_acq	CS_B	JXXJ	YDDY	GWWG	BZZB	MQQM	VKKV	treu	retten	spielen	schön	ehrlich	fair	tot	rächen	strafen	schlecht	eitel	faul	53pct	acq_USunple_CSunple1_noRW	acq23456_noRW	3	34	0	0	300	300	640	46	0	1	1	blank2r.bmp	0	1	+	0	1	blank2r.bmp	252	1	GWWG	306	2	rächen	559	0	0	0	0	0	0	0	0	0	0	0	0	0	0	0	0	0	0	0	0	0	0	0	0	0	0	0	0	0	0	0	0	0	0	0	0	0	0	0
071619	16:43:43	16:51:30	466195	5.0.10.0	5_exp_noRW	58	Rpleas_acq	CS_B	JXXJ	YDDY	GWWG	BZZB	MQQM	VKKV	treu	retten	spielen	schön	ehrlich	fair	tot	rächen	strafen	schlecht	eitel	faul	53pct	acq_USpleas_CSunple2_noRW	acq23456_noRW	3	35	0	0	300	300	466	50	0	1	1	blank2r.bmp	0	1	+	0	1	blank2r.bmp	252	1	BZZB	306	1	schön	559	0	0	0	0	0	0	0	0	0	0	0	0	0	0	0	0	0	0	0	0	0	0	0	0	0	0	0	0	0	0	0	0	0	0	0	0	0	0	0
071619	16:43:43	16:51:32	468008	5.0.10.0	5_exp_noRW	58	Rpleas_acq	CS_B	JXXJ	YDDY	GWWG	BZZB	MQQM	VKKV	treu	retten	spielen	schön	ehrlich	fair	tot	rächen	strafen	schlecht	eitel	faul	53pct	acq_USunple_CSunple2_noRW	acq23456_noRW	3	36	0	0	300	300	628	46	0	1	1	blank2r.bmp	0	1	+	0	1	blank2r.bmp	252	1	BZZB	306	3	faul	559	0	0	0	0	0	0	0	0	0	0	0	0	0	0	0	0	0	0	0	0	0	0	0	0	0	0	0	0	0	0	0	0	0	0	0	0	0	0	0
071619	16:43:43	16:51:34	470140	5.0.10.0	5_exp_noRW	58	Rpleas_acq	CS_B	JXXJ	YDDY	GWWG	BZZB	MQQM	VKKV	treu	retten	spielen	schön	ehrlich	fair	tot	rächen	strafen	schlecht	eitel	faul	47pct	acq_USpleas_CSpleas1_noRW	acq23456_noRW	3	37	0	0	300	300	970	50	0	1	1	blank2r.bmp	0	1	+	0	1	blank2r.bmp	252	1	JXXJ	306	1	treu	559	0	0	0	0	0	0	0	0	0	0	0	0	0	0	0	0	0	0	0	0	0	0	0	0	0	0	0	0	0	0	0	0	0	0	0	0	0	0	0
071619	16:43:43	16:51:36	471873	5.0.10.0	5_exp_noRW	58	Rpleas_acq	CS_B	JXXJ	YDDY	GWWG	BZZB	MQQM	VKKV	treu	retten	spielen	schön	ehrlich	fair	tot	rächen	strafen	schlecht	eitel	faul	53pct	acq_USunple_CSpleas1_noRW	acq23456_noRW	3	38	0	0	300	300	550	46	0	1	1	blank2r.bmp	0	1	+	0	1	blank2r.bmp	252	1	JXXJ	306	3	strafen	559	0	0	0	0	0	0	0	0	0	0	0	0	0	0	0	0	0	0	0	0	0	0	0	0	0	0	0	0	0	0	0	0	0	0	0	0	0	0	0
071619	16:43:43	16:51:38	474098	5.0.10.0	5_exp_noRW	58	Rpleas_acq	CS_B	JXXJ	YDDY	GWWG	BZZB	MQQM	VKKV	treu	retten	spielen	schön	ehrlich	fair	tot	rächen	strafen	schlecht	eitel	faul	47pct	acq_USunple_CSunple1_noRW	acq23456_noRW	3	39	0	0	300	300	1039	46	0	1	1	blank2r.bmp	0	1	+	0	1	blank2r.bmp	252	1	GWWG	306	1	tot	559	0	0	0	0	0	0	0	0	0	0	0	0	0	0	0	0	0	0	0	0	0	0	0	0	0	0	0	0	0	0	0	0	0	0	0	0	0	0	0
071619	16:43:43	16:51:40	475778	5.0.10.0	5_exp_noRW	58	Rpleas_acq	CS_B	JXXJ	YDDY	GWWG	BZZB	MQQM	VKKV	treu	retten	spielen	schön	ehrlich	fair	tot	rächen	strafen	schlecht	eitel	faul	47pct	acq_USpleas_CSpleas2_noRW	acq23456_noRW	3	40	0	0	300	300	516	50	0	1	1	blank2r.bmp	0	1	+	0	1	blank2r.bmp	252	1	YDDY	306	1	schön	559	0	0	0	0	0	0	0	0	0	0	0	0	0	0	0	0	0	0	0	0	0	0	0	0	0	0	0	0	0	0	0	0	0	0	0	0	0	0	0
071619	16:43:43	16:51:42	477857	5.0.10.0	5_exp_noRW	58	Rpleas_acq	CS_B	JXXJ	YDDY	GWWG	BZZB	MQQM	VKKV	treu	retten	spielen	schön	ehrlich	fair	tot	rächen	strafen	schlecht	eitel	faul	53pct	acq_USpleas_CSpleas2_noRW	acq23456_noRW	3	41	0	0	300	300	894	50	0	1	1	blank2r.bmp	0	1	+	0	1	blank2r.bmp	252	1	YDDY	306	2	ehrlich	559	0	0	0	0	0	0	0	0	0	0	0	0	0	0	0	0	0	0	0	0	0	0	0	0	0	0	0	0	0	0	0	0	0	0	0	0	0	0	0
071619	16:43:43	16:51:44	479803	5.0.10.0	5_exp_noRW	58	Rpleas_acq	CS_B	JXXJ	YDDY	GWWG	BZZB	MQQM	VKKV	treu	retten	spielen	schön	ehrlich	fair	tot	rächen	strafen	schlecht	eitel	faul	47pct	acq_USpleas_CSpleas1_noRW	acq23456_noRW	3	42	0	0	300	300	777	50	0	1	1	blank2r.bmp	0	1	+	0	1	blank2r.bmp	252	1	JXXJ	306	2	retten	559	0	0	0	0	0	0	0	0	0	0	0	0	0	0	0	0	0	0	0	0	0	0	0	0	0	0	0	0	0	0	0	0	0	0	0	0	0	0	0
071619	16:43:43	16:51:45	481376	5.0.10.0	5_exp_noRW	58	Rpleas_acq	CS_B	JXXJ	YDDY	GWWG	BZZB	MQQM	VKKV	treu	retten	spielen	schön	ehrlich	fair	tot	rächen	strafen	schlecht	eitel	faul	47pct	acq_USunple_CSpleas1_noRW	acq23456_noRW	3	43	0	0	300	300	410	46	0	1	1	blank2r.bmp	0	1	+	0	1	blank2r.bmp	252	1	JXXJ	306	2	rächen	559	0	0	0	0	0	0	0	0	0	0	0	0	0	0	0	0	0	0	0	0	0	0	0	0	0	0	0	0	0	0	0	0	0	0	0	0	0	0	0
071619	16:43:43	16:51:47	483428	5.0.10.0	5_exp_noRW	58	Rpleas_acq	CS_B	JXXJ	YDDY	GWWG	BZZB	MQQM	VKKV	treu	retten	spielen	schön	ehrlich	fair	tot	rächen	strafen	schlecht	eitel	faul	47pct	acq_USpleas_CSpleas1_noRW	acq23456_noRW	3	44	0	0	300	300	865	50	0	1	1	blank2r.bmp	0	1	+	0	1	blank2r.bmp	252	1	JXXJ	306	3	spielen	559	0	0	0	0	0	0	0	0	0	0	0	0	0	0	0	0	0	0	0	0	0	0	0	0	0	0	0	0	0	0	0	0	0	0	0	0	0	0	0
071619	16:43:43	16:51:49	485041	5.0.10.0	5_exp_noRW	58	Rpleas_acq	CS_B	JXXJ	YDDY	GWWG	BZZB	MQQM	VKKV	treu	retten	spielen	schön	ehrlich	fair	tot	rächen	strafen	schlecht	eitel	faul	47pct	acq_USunple_CSunple1_noRW	acq23456_noRW	3	45	0	0	300	300	445	46	0	1	1	blank2r.bmp	0	1	+	0	1	blank2r.bmp	252	1	GWWG	306	2	rächen	559	0	0	0	0	0	0	0	0	0	0	0	0	0	0	0	0	0	0	0	0	0	0	0	0	0	0	0	0	0	0	0	0	0	0	0	0	0	0	0
071619	16:43:43	16:51:51	487386	5.0.10.0	5_exp_noRW	58	Rpleas_acq	CS_B	JXXJ	YDDY	GWWG	BZZB	MQQM	VKKV	treu	retten	spielen	schön	ehrlich	fair	tot	rächen	strafen	schlecht	eitel	faul	53pct	acq_USunple_CSunple2_noRW	acq23456_noRW	3	46	0	0	300	300	1164	46	0	1	1	blank2r.bmp	0	1	+	0	1	blank2r.bmp	252	1	BZZB	306	2	eitel	559	0	0	0	0	0	0	0	0	0	0	0	0	0	0	0	0	0	0	0	0	0	0	0	0	0	0	0	0	0	0	0	0	0	0	0	0	0	0	0
071619	16:43:43	16:51:53	489092	5.0.10.0	5_exp_noRW	58	Rpleas_acq	CS_B	JXXJ	YDDY	GWWG	BZZB	MQQM	VKKV	treu	retten	spielen	schön	ehrlich	fair	tot	rächen	strafen	schlecht	eitel	faul	47pct	acq_USunple_CSunple1_noRW	acq23456_noRW	3	47	0	0	300	300	533	46	0	1	1	blank2r.bmp	0	1	+	0	1	blank2r.bmp	252	1	GWWG	306	3	strafen	559	0	0	0	0	0	0	0	0	0	0	0	0	0	0	0	0	0	0	0	0	0	0	0	0	0	0	0	0	0	0	0	0	0	0	0	0	0	0	0
071619	16:43:43	16:51:55	490745	5.0.10.0	5_exp_noRW	58	Rpleas_acq	CS_B	JXXJ	YDDY	GWWG	BZZB	MQQM	VKKV	treu	retten	spielen	schön	ehrlich	fair	tot	rächen	strafen	schlecht	eitel	faul	47pct	acq_USpleas_CSpleas1_noRW	acq23456_noRW	3	48	0	0	300	300	491	50	0	1	1	blank2r.bmp	0	1	+	0	1	blank2r.bmp	252	1	JXXJ	306	2	retten	559	0	0	0	0	0	0	0	0	0	0	0	0	0	0	0	0	0	0	0	0	0	0	0	0	0	0	0	0	0	0	0	0	0	0	0	0	0	0	0
071619	16:43:43	16:51:57	492758	5.0.10.0	5_exp_noRW	58	Rpleas_acq	CS_B	JXXJ	YDDY	GWWG	BZZB	MQQM	VKKV	treu	retten	spielen	schön	ehrlich	fair	tot	rächen	strafen	schlecht	eitel	faul	53pct	acq_USpleas_CSpleas2_noRW	acq23456_noRW	3	49	0	0	300	300	616	46	0	0	1	blank2r.bmp	0	1	+	0	1	blank2r.bmp	252	1	YDDY	306	3	fair	559	1	FEHLER	1212	0	0	0	0	0	0	0	0	0	0	0	0	0	0	0	0	0	0	0	0	0	0	0	0	0	0	0	0	0	0	0	0	0	0	0	0
071619	16:43:43	16:51:58	494264	5.0.10.0	5_exp_noRW	58	Rpleas_acq	CS_B	JXXJ	YDDY	GWWG	BZZB	MQQM	VKKV	treu	retten	spielen	schön	ehrlich	fair	tot	rächen	strafen	schlecht	eitel	faul	53pct	acq_USunple_CSpleas2_noRW	acq23456_noRW	3	50	0	0	300	300	536	46	0	1	1	blank2r.bmp	0	1	+	0	1	blank2r.bmp	252	1	YDDY	306	2	eitel	559	0	0	0	0	0	0	0	0	0	0	0	0	0	0	0	0	0	0	0	0	0	0	0	0	0	0	0	0	0	0	0	0	0	0	0	0	0	0	0
071619	16:43:43	16:52:00	495943	5.0.10.0	5_exp_noRW	58	Rpleas_acq	CS_B	JXXJ	YDDY	GWWG	BZZB	MQQM	VKKV	treu	retten	spielen	schön	ehrlich	fair	tot	rächen	strafen	schlecht	eitel	faul	47pct	acq_USunple_CSunple1_noRW	acq23456_noRW	3	51	0	0	300	300	513	46	0	1	1	blank2r.bmp	0	1	+	0	1	blank2r.bmp	252	1	GWWG	306	2	rächen	559	0	0	0	0	0	0	0	0	0	0	0	0	0	0	0	0	0	0	0	0	0	0	0	0	0	0	0	0	0	0	0	0	0	0	0	0	0	0	0
071619	16:43:43	16:52:02	497902	5.0.10.0	5_exp_noRW	58	Rpleas_acq	CS_B	JXXJ	YDDY	GWWG	BZZB	MQQM	VKKV	treu	retten	spielen	schön	ehrlich	fair	tot	rächen	strafen	schlecht	eitel	faul	53pct	acq_USpleas_CSpleas2_noRW	acq23456_noRW	3	52	0	0	300	300	783	50	0	1	1	blank2r.bmp	0	1	+	0	1	blank2r.bmp	252	1	YDDY	306	1	schön	559	0	0	0	0	0	0	0	0	0	0	0	0	0	0	0	0	0	0	0	0	0	0	0	0	0	0	0	0	0	0	0	0	0	0	0	0	0	0	0
071619	16:43:43	16:52:04	499741	5.0.10.0	5_exp_noRW	58	Rpleas_acq	CS_B	JXXJ	YDDY	GWWG	BZZB	MQQM	VKKV	treu	retten	spielen	schön	ehrlich	fair	tot	rächen	strafen	schlecht	eitel	faul	53pct	acq_USunple_CSunple2_noRW	acq23456_noRW	3	53	0	0	300	300	652	46	0	1	1	blank2r.bmp	0	1	+	0	1	blank2r.bmp	252	1	BZZB	306	1	schlecht	559	0	0	0	0	0	0	0	0	0	0	0	0	0	0	0	0	0	0	0	0	0	0	0	0	0	0	0	0	0	0	0	0	0	0	0	0	0	0	0
071619	16:43:43	16:52:05	501581	5.0.10.0	5_exp_noRW	58	Rpleas_acq	CS_B	JXXJ	YDDY	GWWG	BZZB	MQQM	VKKV	treu	retten	spielen	schön	ehrlich	fair	tot	rächen	strafen	schlecht	eitel	faul	53pct	acq_USpleas_CSpleas1_noRW	acq23456_noRW	3	54	0	0	300	300	678	50	0	1	1	blank2r.bmp	0	1	+	0	1	blank2r.bmp	252	1	JXXJ	306	3	spielen	559	0	0	0	0	0	0	0	0	0	0	0	0	0	0	0	0	0	0	0	0	0	0	0	0	0	0	0	0	0	0	0	0	0	0	0	0	0	0	0
071619	16:43:43	16:52:07	503500	5.0.10.0	5_exp_noRW	58	Rpleas_acq	CS_B	JXXJ	YDDY	GWWG	BZZB	MQQM	VKKV	treu	retten	spielen	schön	ehrlich	fair	tot	rächen	strafen	schlecht	eitel	faul	47pct	acq_USunple_CSunple2_noRW	acq23456_noRW	3	55	0	0	300	300	739	46	0	1	1	blank2r.bmp	0	1	+	0	1	blank2r.bmp	252	1	BZZB	306	1	schlecht	559	0	0	0	0	0	0	0	0	0	0	0	0	0	0	0	0	0	0	0	0	0	0	0	0	0	0	0	0	0	0	0	0	0	0	0	0	0	0	0
071619	16:43:43	16:52:09	505206	5.0.10.0	5_exp_noRW	58	Rpleas_acq	CS_B	JXXJ	YDDY	GWWG	BZZB	MQQM	VKKV	treu	retten	spielen	schön	ehrlich	fair	tot	rächen	strafen	schlecht	eitel	faul	53pct	acq_USunple_CSunple2_noRW	acq23456_noRW	3	56	0	0	300	300	540	46	0	1	1	blank2r.bmp	0	1	+	0	1	blank2r.bmp	252	1	BZZB	306	2	eitel	559	0	0	0	0	0	0	0	0	0	0	0	0	0	0	0	0	0	0	0	0	0	0	0	0	0	0	0	0	0	0	0	0	0	0	0	0	0	0	0
071619	16:43:43	16:52:11	507112	5.0.10.0	5_exp_noRW	58	Rpleas_acq	CS_B	JXXJ	YDDY	GWWG	BZZB	MQQM	VKKV	treu	retten	spielen	schön	ehrlich	fair	tot	rächen	strafen	schlecht	eitel	faul	47pct	acq_USpleas_CSunple1_noRW	acq23456_noRW	3	57	0	0	300	300	727	50	0	1	1	blank2r.bmp	0	1	+	0	1	blank2r.bmp	252	1	GWWG	306	3	spielen	559	0	0	0	0	0	0	0	0	0	0	0	0	0	0	0	0	0	0	0	0	0	0	0	0	0	0	0	0	0	0	0	0	0	0	0	0	0	0	0
071619	16:43:43	16:52:13	509231	5.0.10.0	5_exp_noRW	58	Rpleas_acq	CS_B	JXXJ	YDDY	GWWG	BZZB	MQQM	VKKV	treu	retten	spielen	schön	ehrlich	fair	tot	rächen	strafen	schlecht	eitel	faul	47pct	acq_USunple_CSunple1_noRW	acq23456_noRW	3	58	0	0	300	300	942	46	0	1	1	blank2r.bmp	0	1	+	0	1	blank2r.bmp	252	1	GWWG	306	1	tot	559	0	0	0	0	0	0	0	0	0	0	0	0	0	0	0	0	0	0	0	0	0	0	0	0	0	0	0	0	0	0	0	0	0	0	0	0	0	0	0
071619	16:43:43	16:52:15	511070	5.0.10.0	5_exp_noRW	58	Rpleas_acq	CS_B	JXXJ	YDDY	GWWG	BZZB	MQQM	VKKV	treu	retten	spielen	schön	ehrlich	fair	tot	rächen	strafen	schlecht	eitel	faul	53pct	acq_USpleas_CSpleas2_noRW	acq23456_noRW	3	59	0	0	300	300	664	50	0	1	1	blank2r.bmp	0	1	+	0	1	blank2r.bmp	252	1	YDDY	306	3	fair	559	0	0	0	0	0	0	0	0	0	0	0	0	0	0	0	0	0	0	0	0	0	0	0	0	0	0	0	0	0	0	0	0	0	0	0	0	0	0	0
071619	16:43:43	16:52:17	512736	5.0.10.0	5_exp_noRW	58	Rpleas_acq	CS_B	JXXJ	YDDY	GWWG	BZZB	MQQM	VKKV	treu	retten	spielen	schön	ehrlich	fair	tot	rächen	strafen	schlecht	eitel	faul	47pct	acq_USpleas_CSunple2_noRW	acq23456_noRW	3	60	0	0	300	300	479	50	0	1	1	blank2r.bmp	0	1	+	0	1	blank2r.bmp	252	1	BZZB	306	2	ehrlich	559	0	0	0	0	0	0	0	0	0	0	0	0	0	0	0	0	0	0	0	0	0	0	0	0	0	0	0	0	0	0	0	0	0	0	0	0	0	0	0
071619	16:43:43	16:52:18	514375	5.0.10.0	5_exp_noRW	58	Rpleas_acq	CS_B	JXXJ	YDDY	GWWG	BZZB	MQQM	VKKV	treu	retten	spielen	schön	ehrlich	fair	tot	rächen	strafen	schlecht	eitel	faul	47pct	acq_USunple_CSunple2_noRW	acq23456_noRW	3	61	0	0	300	300	474	46	0	1	1	blank2r.bmp	0	1	+	0	1	blank2r.bmp	252	1	BZZB	306	3	faul	559	0	0	0	0	0	0	0	0	0	0	0	0	0	0	0	0	0	0	0	0	0	0	0	0	0	0	0	0	0	0	0	0	0	0	0	0	0	0	0
071619	16:43:43	16:52:20	516508	5.0.10.0	5_exp_noRW	58	Rpleas_acq	CS_B	JXXJ	YDDY	GWWG	BZZB	MQQM	VKKV	treu	retten	spielen	schön	ehrlich	fair	tot	rächen	strafen	schlecht	eitel	faul	53pct	acq_USpleas_CSpleas2_noRW	acq23456_noRW	3	62	0	0	300	300	946	50	0	1	1	blank2r.bmp	0	1	+	0	1	blank2r.bmp	252	1	YDDY	306	2	ehrlich	559	0	0	0	0	0	0	0	0	0	0	0	0	0	0	0	0	0	0	0	0	0	0	0	0	0	0	0	0	0	0	0	0	0	0	0	0	0	0	0
071619	16:43:43	16:52:23	518920	5.0.10.0	5_exp_noRW	58	Rpleas_acq	CS_B	JXXJ	YDDY	GWWG	BZZB	MQQM	VKKV	treu	retten	spielen	schön	ehrlich	fair	tot	rächen	strafen	schlecht	eitel	faul	47pct	acq_USunple_CSunple2_noRW	acq23456_noRW	3	63	0	0	300	300	1245	46	0	1	1	blank2r.bmp	0	1	+	0	1	blank2r.bmp	252	1	BZZB	306	2	eitel	559	0	0	0	0	0	0	0	0	0	0	0	0	0	0	0	0	0	0	0	0	0	0	0	0	0	0	0	0	0	0	0	0	0	0	0	0	0	0	0
071619	16:43:43	16:52:25	521492	5.0.10.0	5_exp_noRW	58	Rpleas_acq	CS_B	JXXJ	YDDY	GWWG	BZZB	MQQM	VKKV	treu	retten	spielen	schön	ehrlich	fair	tot	rächen	strafen	schlecht	eitel	faul	53pct	acq_USunple_CSunple2_noRW	acq23456_noRW	3	64	0	0	300	300	1397	46	0	1	1	blank2r.bmp	0	1	+	0	1	blank2r.bmp	252	1	BZZB	306	3	faul	559	0	0	0	0	0	0	0	0	0	0	0	0	0	0	0	0	0	0	0	0	0	0	0	0	0	0	0	0	0	0	0	0	0	0	0	0	0	0	0
071619	16:43:43	16:52:28	524291	5.0.10.0	5_exp_noRW	58	Rpleas_acq	CS_B	JXXJ	YDDY	GWWG	BZZB	MQQM	VKKV	treu	retten	spielen	schön	ehrlich	fair	tot	rächen	strafen	schlecht	eitel	faul	47pct	acq_USunple_CSunple1_noRW	acq23456_noRW	3	65	0	0	300	300	1623	46	0	1	1	blank2r.bmp	0	1	+	0	1	blank2r.bmp	252	1	GWWG	306	3	strafen	559	0	0	0	0	0	0	0	0	0	0	0	0	0	0	0	0	0	0	0	0	0	0	0	0	0	0	0	0	0	0	0	0	0	0	0	0	0	0	0
071619	16:43:43	16:52:30	525877	5.0.10.0	5_exp_noRW	58	Rpleas_acq	CS_B	JXXJ	YDDY	GWWG	BZZB	MQQM	VKKV	treu	retten	spielen	schön	ehrlich	fair	tot	rächen	strafen	schlecht	eitel	faul	47pct	acq_USunple_CSunple1_noRW	acq23456_noRW	3	66	0	0	300	300	416	46	0	1	1	blank2r.bmp	0	1	+	0	1	blank2r.bmp	252	1	GWWG	306	2	rächen	559	0	0	0	0	0	0	0	0	0	0	0	0	0	0	0	0	0	0	0	0	0	0	0	0	0	0	0	0	0	0	0	0	0	0	0	0	0	0	0
071619	16:43:43	16:52:32	527637	5.0.10.0	5_exp_noRW	58	Rpleas_acq	CS_B	JXXJ	YDDY	GWWG	BZZB	MQQM	VKKV	treu	retten	spielen	schön	ehrlich	fair	tot	rächen	strafen	schlecht	eitel	faul	47pct	acq_USpleas_CSpleas1_noRW	acq23456_noRW	3	67	0	0	300	300	576	50	0	1	1	blank2r.bmp	0	1	+	0	1	blank2r.bmp	252	1	JXXJ	306	1	treu	559	0	0	0	0	0	0	0	0	0	0	0	0	0	0	0	0	0	0	0	0	0	0	0	0	0	0	0	0	0	0	0	0	0	0	0	0	0	0	0
071619	16:43:43	16:52:33	529263	5.0.10.0	5_exp_noRW	58	Rpleas_acq	CS_B	JXXJ	YDDY	GWWG	BZZB	MQQM	VKKV	treu	retten	spielen	schön	ehrlich	fair	tot	rächen	strafen	schlecht	eitel	faul	47pct	acq_USunple_CSunple1_noRW	acq23456_noRW	3	68	0	0	300	300	460	46	0	1	1	blank2r.bmp	0	1	+	0	1	blank2r.bmp	252	1	GWWG	306	1	tot	559	0	0	0	0	0	0	0	0	0	0	0	0	0	0	0	0	0	0	0	0	0	0	0	0	0	0	0	0	0	0	0	0	0	0	0	0	0	0	0
071619	16:43:43	16:52:35	531089	5.0.10.0	5_exp_noRW	58	Rpleas_acq	CS_B	JXXJ	YDDY	GWWG	BZZB	MQQM	VKKV	treu	retten	spielen	schön	ehrlich	fair	tot	rächen	strafen	schlecht	eitel	faul	47pct	acq_USpleas_CSpleas1_noRW	acq23456_noRW	3	69	0	0	300	300	645	50	0	1	1	blank2r.bmp	0	1	+	0	1	blank2r.bmp	252	1	JXXJ	306	2	retten	559	0	0	0	0	0	0	0	0	0	0	0	0	0	0	0	0	0	0	0	0	0	0	0	0	0	0	0	0	0	0	0	0	0	0	0	0	0	0	0
071619	16:43:43	16:52:37	532808	5.0.10.0	5_exp_noRW	58	Rpleas_acq	CS_B	JXXJ	YDDY	GWWG	BZZB	MQQM	VKKV	treu	retten	spielen	schön	ehrlich	fair	tot	rächen	strafen	schlecht	eitel	faul	47pct	acq_USunple_CSunple2_noRW	acq23456_noRW	3	70	0	0	300	300	536	46	0	1	1	blank2r.bmp	0	1	+	0	1	blank2r.bmp	252	1	BZZB	306	1	schlecht	559	0	0	0	0	0	0	0	0	0	0	0	0	0	0	0	0	0	0	0	0	0	0	0	0	0	0	0	0	0	0	0	0	0	0	0	0	0	0	0
071619	16:43:43	16:52:39	534940	5.0.10.0	5_exp_noRW	58	Rpleas_acq	CS_B	JXXJ	YDDY	GWWG	BZZB	MQQM	VKKV	treu	retten	spielen	schön	ehrlich	fair	tot	rächen	strafen	schlecht	eitel	faul	53pct	acq_USunple_CSpleas2_noRW	acq23456_noRW	3	71	0	0	300	300	955	46	0	1	1	blank2r.bmp	0	1	+	0	1	blank2r.bmp	252	1	YDDY	306	3	faul	559	0	0	0	0	0	0	0	0	0	0	0	0	0	0	0	0	0	0	0	0	0	0	0	0	0	0	0	0	0	0	0	0	0	0	0	0	0	0	0
071619	16:43:43	16:52:41	536700	5.0.10.0	5_exp_noRW	58	Rpleas_acq	CS_B	JXXJ	YDDY	GWWG	BZZB	MQQM	VKKV	treu	retten	spielen	schön	ehrlich	fair	tot	rächen	strafen	schlecht	eitel	faul	53pct	acq_USpleas_CSpleas2_noRW	acq23456_noRW	3	72	0	0	300	300	575	50	0	1	1	blank2r.bmp	0	1	+	0	1	blank2r.bmp	252	1	YDDY	306	1	schön	559	0	0	0	0	0	0	0	0	0	0	0	0	0	0	0	0	0	0	0	0	0	0	0	0	0	0	0	0	0	0	0	0	0	0	0	0	0	0	0
071619	16:43:43	16:52:42	538352	5.0.10.0	5_exp_noRW	58	Rpleas_acq	CS_B	JXXJ	YDDY	GWWG	BZZB	MQQM	VKKV	treu	retten	spielen	schön	ehrlich	fair	tot	rächen	strafen	schlecht	eitel	faul	53pct	acq_USunple_CSpleas1_noRW	acq23456_noRW	3	73	0	0	300	300	484	46	0	1	1	blank2r.bmp	0	1	+	0	1	blank2r.bmp	252	1	JXXJ	306	1	tot	559	0	0	0	0	0	0	0	0	0	0	0	0	0	0	0	0	0	0	0	0	0	0	0	0	0	0	0	0	0	0	0	0	0	0	0	0	0	0	0
071619	16:43:43	16:52:44	540165	5.0.10.0	5_exp_noRW	58	Rpleas_acq	CS_B	JXXJ	YDDY	GWWG	BZZB	MQQM	VKKV	treu	retten	spielen	schön	ehrlich	fair	tot	rächen	strafen	schlecht	eitel	faul	53pct	acq_USpleas_CSpleas2_noRW	acq23456_noRW	3	74	0	0	300	300	645	50	0	1	1	blank2r.bmp	0	1	+	0	1	blank2r.bmp	252	1	YDDY	306	2	ehrlich	559	0	0	0	0	0	0	0	0	0	0	0	0	0	0	0	0	0	0	0	0	0	0	0	0	0	0	0	0	0	0	0	0	0	0	0	0	0	0	0
071619	16:43:43	16:52:46	541897	5.0.10.0	5_exp_noRW	58	Rpleas_acq	CS_B	JXXJ	YDDY	GWWG	BZZB	MQQM	VKKV	treu	retten	spielen	schön	ehrlich	fair	tot	rächen	strafen	schlecht	eitel	faul	47pct	acq_USunple_CSunple1_noRW	acq23456_noRW	3	75	0	0	300	300	556	46	0	1	1	blank2r.bmp	0	1	+	0	1	blank2r.bmp	252	1	GWWG	306	3	strafen	559	0	0	0	0	0	0	0	0	0	0	0	0	0	0	0	0	0	0	0	0	0	0	0	0	0	0	0	0	0	0	0	0	0	0	0	0	0	0	0
071619	16:43:43	16:52:48	543883	5.0.10.0	5_exp_noRW	58	Rpleas_acq	CS_B	JXXJ	YDDY	GWWG	BZZB	MQQM	VKKV	treu	retten	spielen	schön	ehrlich	fair	tot	rächen	strafen	schlecht	eitel	faul	53pct	acq_USpleas_CSpleas1_noRW	acq23456_noRW	3	76	0	0	300	300	798	50	0	1	1	blank2r.bmp	0	1	+	0	1	blank2r.bmp	252	1	JXXJ	306	3	spielen	559	0	0	0	0	0	0	0	0	0	0	0	0	0	0	0	0	0	0	0	0	0	0	0	0	0	0	0	0	0	0	0	0	0	0	0	0	0	0	0
071619	16:43:43	16:52:50	545949	5.0.10.0	5_exp_noRW	58	Rpleas_acq	CS_B	JXXJ	YDDY	GWWG	BZZB	MQQM	VKKV	treu	retten	spielen	schön	ehrlich	fair	tot	rächen	strafen	schlecht	eitel	faul	47pct	acq_USpleas_CSunple1_noRW	acq23456_noRW	3	77	0	0	300	300	884	50	0	1	1	blank2r.bmp	0	1	+	0	1	blank2r.bmp	252	1	GWWG	306	1	treu	559	0	0	0	0	0	0	0	0	0	0	0	0	0	0	0	0	0	0	0	0	0	0	0	0	0	0	0	0	0	0	0	0	0	0	0	0	0	0	0
071619	16:43:43	16:52:52	548028	5.0.10.0	5_exp_noRW	58	Rpleas_acq	CS_B	JXXJ	YDDY	GWWG	BZZB	MQQM	VKKV	treu	retten	spielen	schön	ehrlich	fair	tot	rächen	strafen	schlecht	eitel	faul	47pct	acq_USpleas_CSpleas2_noRW	acq23456_noRW	3	78	0	0	300	300	909	50	0	1	1	blank2r.bmp	0	1	+	0	1	blank2r.bmp	252	1	YDDY	306	3	fair	559	0	0	0	0	0	0	0	0	0	0	0	0	0	0	0	0	0	0	0	0	0	0	0	0	0	0	0	0	0	0	0	0	0	0	0	0	0	0	0
071619	16:43:43	16:52:54	549961	5.0.10.0	5_exp_noRW	58	Rpleas_acq	CS_B	JXXJ	YDDY	GWWG	BZZB	MQQM	VKKV	treu	retten	spielen	schön	ehrlich	fair	tot	rächen	strafen	schlecht	eitel	faul	47pct	acq_USpleas_CSpleas1_noRW	acq23456_noRW	3	79	0	0	300	300	757	50	0	1	1	blank2r.bmp	0	1	+	0	1	blank2r.bmp	252	1	JXXJ	306	1	treu	559	0	0	0	0	0	0	0	0	0	0	0	0	0	0	0	0	0	0	0	0	0	0	0	0	0	0	0	0	0	0	0	0	0	0	0	0	0	0	0
071619	16:43:43	16:52:56	552107	5.0.10.0	5_exp_noRW	58	Rpleas_acq	CS_B	JXXJ	YDDY	GWWG	BZZB	MQQM	VKKV	treu	retten	spielen	schön	ehrlich	fair	tot	rächen	strafen	schlecht	eitel	faul	47pct	acq_USpleas_CSunple2_noRW	acq23456_noRW	3	80	0	0	300	300	967	50	0	1	1	blank2r.bmp	0	1	+	0	1	blank2r.bmp	252	1	BZZB	306	3	fair	559	0	0	0	0	0	0	0	0	0	0	0	0	0	0	0	0	0	0	0	0	0	0	0	0	0	0	0	0	0	0	0	0	0	0	0	0	0	0	0
071619	16:43:43	16:53:10	566128	5.0.10.0	5_exp_noRW	58	Rpleas_acq	CS_B	JXXJ	YDDY	GWWG	BZZB	MQQM	VKKV	treu	retten	spielen	schön	ehrlich	fair	tot	rächen	strafen	schlecht	eitel	faul	47pct	acq_USpleas_CSpleas1_noRW	acq23456_noRW	4	1	0	0	300	300	570	50	0	1	1	blank2r.bmp	0	1	+	0	1	blank2r.bmp	252	1	JXXJ	306	1	treu	559	0	0	0	0	0	0	0	0	0	0	0	0	0	0	0	0	0	0	0	0	0	0	0	0	0	0	0	0	0	0	0	0	0	0	0	0	0	0	0
071619	16:43:43	16:53:12	567793	5.0.10.0	5_exp_noRW	58	Rpleas_acq	CS_B	JXXJ	YDDY	GWWG	BZZB	MQQM	VKKV	treu	retten	spielen	schön	ehrlich	fair	tot	rächen	strafen	schlecht	eitel	faul	53pct	acq_USpleas_CSpleas2_noRW	acq23456_noRW	4	2	0	0	300	300	481	50	0	1	1	blank2r.bmp	0	1	+	0	1	blank2r.bmp	252	1	YDDY	306	2	ehrlich	559	0	0	0	0	0	0	0	0	0	0	0	0	0	0	0	0	0	0	0	0	0	0	0	0	0	0	0	0	0	0	0	0	0	0	0	0	0	0	0
071619	16:43:43	16:53:13	569419	5.0.10.0	5_exp_noRW	58	Rpleas_acq	CS_B	JXXJ	YDDY	GWWG	BZZB	MQQM	VKKV	treu	retten	spielen	schön	ehrlich	fair	tot	rächen	strafen	schlecht	eitel	faul	53pct	acq_USpleas_CSpleas2_noRW	acq23456_noRW	4	3	0	0	300	300	463	50	0	1	1	blank2r.bmp	0	1	+	0	1	blank2r.bmp	252	1	YDDY	306	3	fair	559	0	0	0	0	0	0	0	0	0	0	0	0	0	0	0	0	0	0	0	0	0	0	0	0	0	0	0	0	0	0	0	0	0	0	0	0	0	0	0
071619	16:43:43	16:53:15	571099	5.0.10.0	5_exp_noRW	58	Rpleas_acq	CS_B	JXXJ	YDDY	GWWG	BZZB	MQQM	VKKV	treu	retten	spielen	schön	ehrlich	fair	tot	rächen	strafen	schlecht	eitel	faul	47pct	acq_USunple_CSunple2_noRW	acq23456_noRW	4	4	0	0	300	300	494	46	0	1	1	blank2r.bmp	0	1	+	0	1	blank2r.bmp	252	1	BZZB	306	3	faul	559	0	0	0	0	0	0	0	0	0	0	0	0	0	0	0	0	0	0	0	0	0	0	0	0	0	0	0	0	0	0	0	0	0	0	0	0	0	0	0
071619	16:43:43	16:53:17	572778	5.0.10.0	5_exp_noRW	58	Rpleas_acq	CS_B	JXXJ	YDDY	GWWG	BZZB	MQQM	VKKV	treu	retten	spielen	schön	ehrlich	fair	tot	rächen	strafen	schlecht	eitel	faul	53pct	acq_USunple_CSunple1_noRW	acq23456_noRW	4	5	0	0	300	300	510	46	0	1	1	blank2r.bmp	0	1	+	0	1	blank2r.bmp	252	1	GWWG	306	3	strafen	559	0	0	0	0	0	0	0	0	0	0	0	0	0	0	0	0	0	0	0	0	0	0	0	0	0	0	0	0	0	0	0	0	0	0	0	0	0	0	0
071619	16:43:43	16:53:18	574511	5.0.10.0	5_exp_noRW	58	Rpleas_acq	CS_B	JXXJ	YDDY	GWWG	BZZB	MQQM	VKKV	treu	retten	spielen	schön	ehrlich	fair	tot	rächen	strafen	schlecht	eitel	faul	47pct	acq_USunple_CSunple2_noRW	acq23456_noRW	4	6	0	0	300	300	561	46	0	1	1	blank2r.bmp	0	1	+	0	1	blank2r.bmp	252	1	BZZB	306	1	schlecht	559	0	0	0	0	0	0	0	0	0	0	0	0	0	0	0	0	0	0	0	0	0	0	0	0	0	0	0	0	0	0	0	0	0	0	0	0	0	0	0
071619	16:43:43	16:53:20	576310	5.0.10.0	5_exp_noRW	58	Rpleas_acq	CS_B	JXXJ	YDDY	GWWG	BZZB	MQQM	VKKV	treu	retten	spielen	schön	ehrlich	fair	tot	rächen	strafen	schlecht	eitel	faul	47pct	acq_USunple_CSunple1_noRW	acq23456_noRW	4	7	0	0	300	300	629	46	0	1	1	blank2r.bmp	0	1	+	0	1	blank2r.bmp	252	1	GWWG	306	1	tot	559	0	0	0	0	0	0	0	0	0	0	0	0	0	0	0	0	0	0	0	0	0	0	0	0	0	0	0	0	0	0	0	0	0	0	0	0	0	0	0
071619	16:43:43	16:53:22	578016	5.0.10.0	5_exp_noRW	58	Rpleas_acq	CS_B	JXXJ	YDDY	GWWG	BZZB	MQQM	VKKV	treu	retten	spielen	schön	ehrlich	fair	tot	rächen	strafen	schlecht	eitel	faul	53pct	acq_USpleas_CSpleas1_noRW	acq23456_noRW	4	8	0	0	300	300	544	50	0	1	1	blank2r.bmp	0	1	+	0	1	blank2r.bmp	252	1	JXXJ	306	3	spielen	559	0	0	0	0	0	0	0	0	0	0	0	0	0	0	0	0	0	0	0	0	0	0	0	0	0	0	0	0	0	0	0	0	0	0	0	0	0	0	0
