date	time	script.currenttime	script.elapsedtime	build	script.currentexpt	subject	expressions.LRpleas_acq	expressions.conditionCS_A	expressions.CSpleas_1	expressions.CSpleas_2	expressions.CSunple_1	expressions.CSunple_2	expressions.distractor_1	expressions.distractor_2	expressions.US_pleas1	expressions.US_pleas2	expressions.US_pleas3	expressions.US_pleas4	expressions.US_pleas5	expressions.US_pleas6	expressions.US_unple1	expressions.US_unple2	expressions.US_unple3	expressions.US_unple4	expressions.US_unple5	expressions.US_unple6	counter.positions_noRW	trialcode	blockcode	blocknum	trialnum	windowcenter	inwindow	pretrialpause	posttrialpause	latency	response	expressions.correctedscore	correct	stimulusnumber1	stimulusitem1	stimulusonset1	stimulusnumber2	stimulusitem2	stimulusonset2	stimulusnumber3	stimulusitem3	stimulusonset3	stimulusnumber4	stimulusitem4	stimulusonset4	stimulusnumber5	stimulusitem5	stimulusonset5	stimulusnumber6	stimulusitem6	stimulusonset6	stimulusnumber7	stimulusitem7	stimulusonset7	stimulusnumber8	stimulusitem8	stimulusonset8	stimulusnumber9	stimulusitem9	stimulusonset9	stimulusnumber10	stimulusitem10	stimulusonset10	stimulusnumber11	stimulusitem11	stimulusonset11	stimulusnumber12	stimulusitem12	stimulusonset12	stimulusnumber13	stimulusitem13	stimulusonset13	stimulusnumber14	stimulusitem14	stimulusonset14	stimulusnumber15	stimulusitem15	stimulusonset15	stimulusnumber16	stimulusitem16	stimulusonset16	stimulusnumber17	stimulusitem17	stimulusonset17	stimulusnumber18	stimulusitem18	stimulusonset18
081419	11:52:22	11:53:55	92655	5.0.10.0	5_exp_RW	99	Rpleas_acq	CS_B	GWWG	MQQM	BZZB	YDDY	JXXJ	VKKV	ehrlich	spielen	treu	schön	retten	fair	eitel	strafen	tot	schlecht	rächen	faul	1	acq_USpleas_CSpleas1_RW	acq1_RW	1	1	0	0	300	300	1134	50	0	1	1	blank2r.bmp	0	1	+	0	1	blank2r.bmp	492	1	GWWG	492	1	blank2r.bmp	572	1	ehrlich	866	0	0	0	0	0	0	0	0	0	0	0	0	0	0	0	0	0	0	0	0	0	0	0	0	0	0	0	0	0	0	0	0	0	0	0	0
081419	11:52:22	11:53:57	94827	5.0.10.0	5_exp_RW	99	Rpleas_acq	CS_B	GWWG	MQQM	BZZB	YDDY	JXXJ	VKKV	ehrlich	spielen	treu	schön	retten	fair	eitel	strafen	tot	schlecht	rächen	faul	1	acq_USpleas_CSpleas2_RW	acq1_RW	1	2	0	0	300	300	696	50	0	1	1	blank2r.bmp	0	1	+	0	1	blank2r.bmp	492	1	MQQM	492	1	blank2r.bmp	572	1	schön	866	0	0	0	0	0	0	0	0	0	0	0	0	0	0	0	0	0	0	0	0	0	0	0	0	0	0	0	0	0	0	0	0	0	0	0	0
081419	11:52:22	11:54:00	97266	5.0.10.0	5_exp_RW	99	Rpleas_acq	CS_B	GWWG	MQQM	BZZB	YDDY	JXXJ	VKKV	ehrlich	spielen	treu	schön	retten	fair	eitel	strafen	tot	schlecht	rächen	faul	1	acq_USpleas_CSpleas1_RW	acq1_RW	1	3	0	0	300	300	963	50	0	1	1	blank2r.bmp	0	1	+	0	1	blank2r.bmp	492	1	GWWG	492	1	blank2r.bmp	572	2	spielen	866	0	0	0	0	0	0	0	0	0	0	0	0	0	0	0	0	0	0	0	0	0	0	0	0	0	0	0	0	0	0	0	0	0	0	0	0
081419	11:52:22	11:54:02	99399	5.0.10.0	5_exp_RW	99	Rpleas_acq	CS_B	GWWG	MQQM	BZZB	YDDY	JXXJ	VKKV	ehrlich	spielen	treu	schön	retten	fair	eitel	strafen	tot	schlecht	rächen	faul	1	acq_USunple_CSunple2_RW	acq1_RW	1	4	0	0	300	300	642	46	0	1	1	blank2r.bmp	0	1	+	0	1	blank2r.bmp	492	1	YDDY	492	1	blank2r.bmp	572	1	schlecht	866	0	0	0	0	0	0	0	0	0	0	0	0	0	0	0	0	0	0	0	0	0	0	0	0	0	0	0	0	0	0	0	0	0	0	0	0
081419	11:52:22	11:54:04	101384	5.0.10.0	5_exp_RW	99	Rpleas_acq	CS_B	GWWG	MQQM	BZZB	YDDY	JXXJ	VKKV	ehrlich	spielen	treu	schön	retten	fair	eitel	strafen	tot	schlecht	rächen	faul	1	acq_USunple_CSunple2_RW	acq1_RW	1	5	0	0	300	300	515	46	0	1	1	blank2r.bmp	0	1	+	0	1	blank2r.bmp	492	1	YDDY	492	1	blank2r.bmp	572	3	faul	866	0	0	0	0	0	0	0	0	0	0	0	0	0	0	0	0	0	0	0	0	0	0	0	0	0	0	0	0	0	0	0	0	0	0	0	0
081419	11:52:22	11:54:06	103584	5.0.10.0	5_exp_RW	99	Rpleas_acq	CS_B	GWWG	MQQM	BZZB	YDDY	JXXJ	VKKV	ehrlich	spielen	treu	schön	retten	fair	eitel	strafen	tot	schlecht	rächen	faul	1	acq_USpleas_CSpleas2_RW	acq1_RW	1	6	0	0	300	300	705	50	0	1	1	blank2r.bmp	0	1	+	0	1	blank2r.bmp	492	1	MQQM	492	1	blank2r.bmp	572	2	retten	866	0	0	0	0	0	0	0	0	0	0	0	0	0	0	0	0	0	0	0	0	0	0	0	0	0	0	0	0	0	0	0	0	0	0	0	0
081419	11:52:22	11:54:08	105996	5.0.10.0	5_exp_RW	99	Rpleas_acq	CS_B	GWWG	MQQM	BZZB	YDDY	JXXJ	VKKV	ehrlich	spielen	treu	schön	retten	fair	eitel	strafen	tot	schlecht	rächen	faul	1	acq_USunple_CSunple1_RW	acq1_RW	1	7	0	0	300	300	725	50	0	0	1	blank2r.bmp	0	1	+	0	1	blank2r.bmp	492	1	BZZB	492	1	blank2r.bmp	572	1	eitel	866	1	FEHLER	1626	0	0	0	0	0	0	0	0	0	0	0	0	0	0	0	0	0	0	0	0	0	0	0	0	0	0	0	0	0	0	0	0	0
081419	11:52:22	11:54:10	107968	5.0.10.0	5_exp_RW	99	Rpleas_acq	CS_B	GWWG	MQQM	BZZB	YDDY	JXXJ	VKKV	ehrlich	spielen	treu	schön	retten	fair	eitel	strafen	tot	schlecht	rächen	faul	1	acq_USpleas_CSpleas2_RW	acq1_RW	1	8	0	0	300	300	703	50	0	1	1	blank2r.bmp	0	1	+	0	1	blank2r.bmp	492	1	MQQM	492	1	blank2r.bmp	572	3	fair	866	0	0	0	0	0	0	0	0	0	0	0	0	0	0	0	0	0	0	0	0	0	0	0	0	0	0	0	0	0	0	0	0	0	0	0	0
081419	11:52:22	11:54:13	110247	5.0.10.0	5_exp_RW	99	Rpleas_acq	CS_B	GWWG	MQQM	BZZB	YDDY	JXXJ	VKKV	ehrlich	spielen	treu	schön	retten	fair	eitel	strafen	tot	schlecht	rächen	faul	1	acq_USunple_CSunple1_RW	acq1_RW	1	9	0	0	300	300	789	46	0	1	1	blank2r.bmp	0	1	+	0	1	blank2r.bmp	492	1	BZZB	492	1	blank2r.bmp	572	2	strafen	866	0	0	0	0	0	0	0	0	0	0	0	0	0	0	0	0	0	0	0	0	0	0	0	0	0	0	0	0	0	0	0	0	0	0	0	0
081419	11:52:22	11:54:15	112566	5.0.10.0	5_exp_RW	99	Rpleas_acq	CS_B	GWWG	MQQM	BZZB	YDDY	JXXJ	VKKV	ehrlich	spielen	treu	schön	retten	fair	eitel	strafen	tot	schlecht	rächen	faul	1	acq_USpleas_CSpleas1_RW	acq1_RW	1	10	0	0	300	300	835	50	0	1	1	blank2r.bmp	0	1	+	0	1	blank2r.bmp	492	1	GWWG	492	1	blank2r.bmp	572	3	treu	866	0	0	0	0	0	0	0	0	0	0	0	0	0	0	0	0	0	0	0	0	0	0	0	0	0	0	0	0	0	0	0	0	0	0	0	0
081419	11:52:22	11:54:17	114619	5.0.10.0	5_exp_RW	99	Rpleas_acq	CS_B	GWWG	MQQM	BZZB	YDDY	JXXJ	VKKV	ehrlich	spielen	treu	schön	retten	fair	eitel	strafen	tot	schlecht	rächen	faul	1	acq_USpleas_CSpleas1_RW	acq1_RW	1	11	0	0	300	300	561	50	0	1	1	blank2r.bmp	0	1	+	0	1	blank2r.bmp	492	1	GWWG	492	1	blank2r.bmp	572	1	ehrlich	866	0	0	0	0	0	0	0	0	0	0	0	0	0	0	0	0	0	0	0	0	0	0	0	0	0	0	0	0	0	0	0	0	0	0	0	0
081419	11:52:22	11:54:19	116765	5.0.10.0	5_exp_RW	99	Rpleas_acq	CS_B	GWWG	MQQM	BZZB	YDDY	JXXJ	VKKV	ehrlich	spielen	treu	schön	retten	fair	eitel	strafen	tot	schlecht	rächen	faul	1	acq_USunple_CSunple1_RW	acq1_RW	1	12	0	0	300	300	673	46	0	1	1	blank2r.bmp	0	1	+	0	1	blank2r.bmp	492	1	BZZB	492	1	blank2r.bmp	572	3	tot	866	0	0	0	0	0	0	0	0	0	0	0	0	0	0	0	0	0	0	0	0	0	0	0	0	0	0	0	0	0	0	0	0	0	0	0	0
081419	11:52:22	11:54:21	119017	5.0.10.0	5_exp_RW	99	Rpleas_acq	CS_B	GWWG	MQQM	BZZB	YDDY	JXXJ	VKKV	ehrlich	spielen	treu	schön	retten	fair	eitel	strafen	tot	schlecht	rächen	faul	1	acq_USunple_CSunple2_RW	acq1_RW	1	13	0	0	300	300	759	46	0	1	1	blank2r.bmp	0	1	+	0	1	blank2r.bmp	492	1	YDDY	492	1	blank2r.bmp	572	2	rächen	866	0	0	0	0	0	0	0	0	0	0	0	0	0	0	0	0	0	0	0	0	0	0	0	0	0	0	0	0	0	0	0	0	0	0	0	0
081419	11:52:22	11:54:23	120990	5.0.10.0	5_exp_RW	99	Rpleas_acq	CS_B	GWWG	MQQM	BZZB	YDDY	JXXJ	VKKV	ehrlich	spielen	treu	schön	retten	fair	eitel	strafen	tot	schlecht	rächen	faul	1	acq_USpleas_CSpleas2_RW	acq1_RW	1	14	0	0	300	300	502	50	0	1	1	blank2r.bmp	0	1	+	0	1	blank2r.bmp	492	1	MQQM	492	1	blank2r.bmp	572	1	schön	866	0	0	0	0	0	0	0	0	0	0	0	0	0	0	0	0	0	0	0	0	0	0	0	0	0	0	0	0	0	0	0	0	0	0	0	0
081419	11:52:22	11:54:26	123056	5.0.10.0	5_exp_RW	99	Rpleas_acq	CS_B	GWWG	MQQM	BZZB	YDDY	JXXJ	VKKV	ehrlich	spielen	treu	schön	retten	fair	eitel	strafen	tot	schlecht	rächen	faul	1	acq_USunple_CSunple2_RW	acq1_RW	1	15	0	0	300	300	578	46	0	1	1	blank2r.bmp	0	1	+	0	1	blank2r.bmp	492	1	YDDY	492	1	blank2r.bmp	572	1	schlecht	866	0	0	0	0	0	0	0	0	0	0	0	0	0	0	0	0	0	0	0	0	0	0	0	0	0	0	0	0	0	0	0	0	0	0	0	0
081419	11:52:22	11:54:27	124961	5.0.10.0	5_exp_RW	99	Rpleas_acq	CS_B	GWWG	MQQM	BZZB	YDDY	JXXJ	VKKV	ehrlich	spielen	treu	schön	retten	fair	eitel	strafen	tot	schlecht	rächen	faul	1	acq_USunple_CSunple1_RW	acq1_RW	1	16	0	0	300	300	435	46	0	1	1	blank2r.bmp	0	1	+	0	1	blank2r.bmp	492	1	BZZB	492	1	blank2r.bmp	572	2	strafen	866	0	0	0	0	0	0	0	0	0	0	0	0	0	0	0	0	0	0	0	0	0	0	0	0	0	0	0	0	0	0	0	0	0	0	0	0
081419	11:52:22	11:55:11	168517	5.0.10.0	5_exp_RW	99	Rpleas_acq	CS_B	GWWG	MQQM	BZZB	YDDY	JXXJ	VKKV	ehrlich	spielen	treu	schön	retten	fair	eitel	strafen	tot	schlecht	rächen	faul	1	acq_USpleas_CSpleas2_RW	acq2_RW	2	1	480	0	300	300	798	46	0	0	1	blank2r.bmp	0	1	+	0	1	blank2r.bmp	492	1	MQQM	492	1	blank2r.bmp	572	2	retten	866	1	FEHLER	2012	1	!	1319	1	!	-1	0	0	0	0	0	0	0	0	0	0	0	0	0	0	0	0	0	0	0	0	0	0	0	0	0	0	0
081419	11:52:22	11:55:13	170596	5.0.10.0	5_exp_RW	99	Rpleas_acq	CS_B	GWWG	MQQM	BZZB	YDDY	JXXJ	VKKV	ehrlich	spielen	treu	schön	retten	fair	eitel	strafen	tot	schlecht	rächen	faul	1	acq_USpleas_CSpleas2_RW	acq2_RW	2	2	480	1	300	300	499	50	0	1	1	blank2r.bmp	0	1	+	0	1	blank2r.bmp	492	1	MQQM	492	1	blank2r.bmp	572	3	fair	866	1	!	1319	1	!	1399	0	0	0	0	0	0	0	0	0	0	0	0	0	0	0	0	0	0	0	0	0	0	0	0	0	0	0	0	0	0
081419	11:52:22	11:55:15	172729	5.0.10.0	5_exp_RW	99	Rpleas_acq	CS_B	GWWG	MQQM	BZZB	YDDY	JXXJ	VKKV	ehrlich	spielen	treu	schön	retten	fair	eitel	strafen	tot	schlecht	rächen	faul	1	acq_USunple_CSunple1_RW	acq2_RW	2	3	480	0	300	300	364	46	0	1	1	blank2r.bmp	0	1	+	0	1	blank2r.bmp	492	1	BZZB	492	1	blank2r.bmp	572	3	tot	866	1	!	-1	1	!	-1	0	0	0	0	0	0	0	0	0	0	0	0	0	0	0	0	0	0	0	0	0	0	0	0	0	0	0	0	0	0
081419	11:52:22	11:55:18	175327	5.0.10.0	5_exp_RW	99	Rpleas_acq	CS_B	GWWG	MQQM	BZZB	YDDY	JXXJ	VKKV	ehrlich	spielen	treu	schön	retten	fair	eitel	strafen	tot	schlecht	rächen	faul	1	acq_USunple_CSunple1_RW	acq2_RW	2	4	480	0	300	300	823	46	0	1	1	blank2r.bmp	0	1	+	0	1	blank2r.bmp	492	1	BZZB	492	1	blank2r.bmp	572	1	eitel	866	1	!	1319	1	!	-1	0	0	0	0	0	0	0	0	0	0	0	0	0	0	0	0	0	0	0	0	0	0	0	0	0	0	0	0	0	0
081419	11:52:22	11:55:20	177527	5.0.10.0	5_exp_RW	99	Rpleas_acq	CS_B	GWWG	MQQM	BZZB	YDDY	JXXJ	VKKV	ehrlich	spielen	treu	schön	retten	fair	eitel	strafen	tot	schlecht	rächen	faul	1	acq_USpleas_CSpleas2_RW	acq2_RW	2	5	480	0	300	300	413	50	0	1	1	blank2r.bmp	0	1	+	0	1	blank2r.bmp	492	1	MQQM	492	1	blank2r.bmp	572	3	fair	866	1	!	-1	1	!	-1	0	0	0	0	0	0	0	0	0	0	0	0	0	0	0	0	0	0	0	0	0	0	0	0	0	0	0	0	0	0
081419	11:52:22	11:55:23	180072	5.0.10.0	5_exp_RW	99	Rpleas_acq	CS_B	GWWG	MQQM	BZZB	YDDY	JXXJ	VKKV	ehrlich	spielen	treu	schön	retten	fair	eitel	strafen	tot	schlecht	rächen	faul	1	acq_USunple_CSunple2_RW	acq2_RW	2	6	480	0	300	300	759	46	0	1	1	blank2r.bmp	0	1	+	0	1	blank2r.bmp	492	1	YDDY	492	1	blank2r.bmp	572	2	rächen	866	1	!	1319	1	!	-1	0	0	0	0	0	0	0	0	0	0	0	0	0	0	0	0	0	0	0	0	0	0	0	0	0	0	0	0	0	0
081419	11:52:22	11:55:25	182258	5.0.10.0	5_exp_RW	99	Rpleas_acq	CS_B	GWWG	MQQM	BZZB	YDDY	JXXJ	VKKV	ehrlich	spielen	treu	schön	retten	fair	eitel	strafen	tot	schlecht	rächen	faul	1	acq_USunple_CSunple2_RW	acq2_RW	2	7	480	0	300	300	388	46	0	1	1	blank2r.bmp	0	1	+	0	1	blank2r.bmp	492	1	YDDY	492	1	blank2r.bmp	572	3	faul	866	1	!	-1	1	!	-1	0	0	0	0	0	0	0	0	0	0	0	0	0	0	0	0	0	0	0	0	0	0	0	0	0	0	0	0	0	0
081419	11:52:22	11:55:27	184737	5.0.10.0	5_exp_RW	99	Rpleas_acq	CS_B	GWWG	MQQM	BZZB	YDDY	JXXJ	VKKV	ehrlich	spielen	treu	schön	retten	fair	eitel	strafen	tot	schlecht	rächen	faul	1	acq_USunple_CSunple1_RW	acq2_RW	2	8	480	0	300	300	679	46	0	1	1	blank2r.bmp	0	1	+	0	1	blank2r.bmp	492	1	BZZB	492	1	blank2r.bmp	572	2	strafen	866	1	!	1319	1	!	-1	0	0	0	0	0	0	0	0	0	0	0	0	0	0	0	0	0	0	0	0	0	0	0	0	0	0	0	0	0	0
081419	11:52:22	11:55:30	187229	5.0.10.0	5_exp_RW	99	Rpleas_acq	CS_B	GWWG	MQQM	BZZB	YDDY	JXXJ	VKKV	ehrlich	spielen	treu	schön	retten	fair	eitel	strafen	tot	schlecht	rächen	faul	1	acq_USpleas_CSpleas1_RW	acq2_RW	2	9	480	0	300	300	693	50	0	1	1	blank2r.bmp	0	1	+	0	1	blank2r.bmp	492	1	GWWG	492	1	blank2r.bmp	572	2	spielen	866	1	!	1319	1	!	-1	0	0	0	0	0	0	0	0	0	0	0	0	0	0	0	0	0	0	0	0	0	0	0	0	0	0	0	0	0	0
081419	11:52:22	11:55:32	189788	5.0.10.0	5_exp_RW	99	Rpleas_acq	CS_B	GWWG	MQQM	BZZB	YDDY	JXXJ	VKKV	ehrlich	spielen	treu	schön	retten	fair	eitel	strafen	tot	schlecht	rächen	faul	1	acq_USpleas_CSpleas2_RW	acq2_RW	2	10	480	1	300	300	535	46	0	0	1	blank2r.bmp	0	1	+	0	1	blank2r.bmp	492	1	MQQM	492	1	blank2r.bmp	572	2	retten	866	1	FEHLER	1759	1	!	1319	1	!	1439	0	0	0	0	0	0	0	0	0	0	0	0	0	0	0	0	0	0	0	0	0	0	0	0	0	0	0
081419	11:52:22	11:55:34	191907	5.0.10.0	5_exp_RW	99	Rpleas_acq	CS_B	GWWG	MQQM	BZZB	YDDY	JXXJ	VKKV	ehrlich	spielen	treu	schön	retten	fair	eitel	strafen	tot	schlecht	rächen	faul	1	acq_USunple_CSunple2_RW	acq2_RW	2	11	480	1	300	300	537	46	0	1	1	blank2r.bmp	0	1	+	0	1	blank2r.bmp	492	1	YDDY	492	1	blank2r.bmp	572	3	faul	866	1	!	1319	1	!	1439	0	0	0	0	0	0	0	0	0	0	0	0	0	0	0	0	0	0	0	0	0	0	0	0	0	0	0	0	0	0
081419	11:52:22	11:55:37	194186	5.0.10.0	5_exp_RW	99	Rpleas_acq	CS_B	GWWG	MQQM	BZZB	YDDY	JXXJ	VKKV	ehrlich	spielen	treu	schön	retten	fair	eitel	strafen	tot	schlecht	rächen	faul	1	acq_USpleas_CSpleas1_RW	acq2_RW	2	12	480	1	300	300	482	50	0	1	1	blank2r.bmp	0	1	+	0	1	blank2r.bmp	492	1	GWWG	492	1	blank2r.bmp	572	3	treu	866	1	!	1319	1	!	1386	0	0	0	0	0	0	0	0	0	0	0	0	0	0	0	0	0	0	0	0	0	0	0	0	0	0	0	0	0	0
081419	11:52:22	11:55:39	196439	5.0.10.0	5_exp_RW	99	Rpleas_acq	CS_B	GWWG	MQQM	BZZB	YDDY	JXXJ	VKKV	ehrlich	spielen	treu	schön	retten	fair	eitel	strafen	tot	schlecht	rächen	faul	1	acq_USpleas_CSpleas2_RW	acq2_RW	2	13	480	1	300	300	461	50	0	1	1	blank2r.bmp	0	1	+	0	1	blank2r.bmp	492	1	MQQM	492	1	blank2r.bmp	572	1	schön	866	1	!	1319	1	!	1359	0	0	0	0	0	0	0	0	0	0	0	0	0	0	0	0	0	0	0	0	0	0	0	0	0	0	0	0	0	0
081419	11:52:22	11:55:41	198771	5.0.10.0	5_exp_RW	99	Rpleas_acq	CS_B	GWWG	MQQM	BZZB	YDDY	JXXJ	VKKV	ehrlich	spielen	treu	schön	retten	fair	eitel	strafen	tot	schlecht	rächen	faul	1	acq_USunple_CSunple2_RW	acq2_RW	2	14	480	0	300	300	559	46	0	1	1	blank2r.bmp	0	1	+	0	1	blank2r.bmp	492	1	YDDY	492	1	blank2r.bmp	572	2	rächen	866	1	!	1319	1	!	-1	0	0	0	0	0	0	0	0	0	0	0	0	0	0	0	0	0	0	0	0	0	0	0	0	0	0	0	0	0	0
081419	11:52:22	11:55:43	200890	5.0.10.0	5_exp_RW	99	Rpleas_acq	CS_B	GWWG	MQQM	BZZB	YDDY	JXXJ	VKKV	ehrlich	spielen	treu	schön	retten	fair	eitel	strafen	tot	schlecht	rächen	faul	1	acq_USunple_CSunple1_RW	acq2_RW	2	15	480	0	300	300	342	46	0	1	1	blank2r.bmp	0	1	+	0	1	blank2r.bmp	492	1	BZZB	492	1	blank2r.bmp	572	3	tot	866	1	!	-1	1	!	-1	0	0	0	0	0	0	0	0	0	0	0	0	0	0	0	0	0	0	0	0	0	0	0	0	0	0	0	0	0	0
081419	11:52:22	11:55:46	203263	5.0.10.0	5_exp_RW	99	Rpleas_acq	CS_B	GWWG	MQQM	BZZB	YDDY	JXXJ	VKKV	ehrlich	spielen	treu	schön	retten	fair	eitel	strafen	tot	schlecht	rächen	faul	1	acq_USunple_CSunple2_RW	acq2_RW	2	16	480	0	300	300	588	46	0	1	1	blank2r.bmp	0	1	+	0	1	blank2r.bmp	492	1	YDDY	492	1	blank2r.bmp	572	1	schlecht	866	1	!	1319	1	!	-1	0	0	0	0	0	0	0	0	0	0	0	0	0	0	0	0	0	0	0	0	0	0	0	0	0	0	0	0	0	0
081419	11:52:22	11:55:48	205622	5.0.10.0	5_exp_RW	99	Rpleas_acq	CS_B	GWWG	MQQM	BZZB	YDDY	JXXJ	VKKV	ehrlich	spielen	treu	schön	retten	fair	eitel	strafen	tot	schlecht	rächen	faul	1	acq_USunple_CSunple1_RW	acq2_RW	2	17	480	0	300	300	349	50	0	0	1	blank2r.bmp	0	1	+	0	1	blank2r.bmp	492	1	BZZB	492	1	blank2r.bmp	572	1	eitel	866	1	FEHLER	1559	1	!	-1	1	!	-1	0	0	0	0	0	0	0	0	0	0	0	0	0	0	0	0	0	0	0	0	0	0	0	0	0	0	0
081419	11:52:22	11:55:50	207821	5.0.10.0	5_exp_RW	99	Rpleas_acq	CS_B	GWWG	MQQM	BZZB	YDDY	JXXJ	VKKV	ehrlich	spielen	treu	schön	retten	fair	eitel	strafen	tot	schlecht	rächen	faul	1	acq_USpleas_CSpleas1_RW	acq2_RW	2	18	480	0	300	300	651	50	0	1	1	blank2r.bmp	0	1	+	0	1	blank2r.bmp	492	1	GWWG	492	1	blank2r.bmp	572	2	spielen	866	1	!	1319	1	!	-1	0	0	0	0	0	0	0	0	0	0	0	0	0	0	0	0	0	0	0	0	0	0	0	0	0	0	0	0	0	0
081419	11:52:22	11:55:53	210220	5.0.10.0	5_exp_RW	99	Rpleas_acq	CS_B	GWWG	MQQM	BZZB	YDDY	JXXJ	VKKV	ehrlich	spielen	treu	schön	retten	fair	eitel	strafen	tot	schlecht	rächen	faul	1	acq_USpleas_CSpleas1_RW	acq2_RW	2	19	480	0	300	300	616	50	0	1	1	blank2r.bmp	0	1	+	0	1	blank2r.bmp	492	1	GWWG	492	1	blank2r.bmp	572	3	treu	866	1	!	1319	1	!	-1	0	0	0	0	0	0	0	0	0	0	0	0	0	0	0	0	0	0	0	0	0	0	0	0	0	0	0	0	0	0
081419	11:52:22	11:55:55	212392	5.0.10.0	5_exp_RW	99	Rpleas_acq	CS_B	GWWG	MQQM	BZZB	YDDY	JXXJ	VKKV	ehrlich	spielen	treu	schön	retten	fair	eitel	strafen	tot	schlecht	rächen	faul	1	acq_USunple_CSunple1_RW	acq2_RW	2	20	480	0	300	300	386	46	0	1	1	blank2r.bmp	0	1	+	0	1	blank2r.bmp	492	1	BZZB	492	1	blank2r.bmp	572	2	strafen	866	1	!	-1	1	!	-1	0	0	0	0	0	0	0	0	0	0	0	0	0	0	0	0	0	0	0	0	0	0	0	0	0	0	0	0	0	0
081419	11:52:22	11:55:57	214898	5.0.10.0	5_exp_RW	99	Rpleas_acq	CS_B	GWWG	MQQM	BZZB	YDDY	JXXJ	VKKV	ehrlich	spielen	treu	schön	retten	fair	eitel	strafen	tot	schlecht	rächen	faul	1	acq_USpleas_CSpleas2_RW	acq2_RW	2	21	480	0	300	300	722	50	0	1	1	blank2r.bmp	0	1	+	0	1	blank2r.bmp	492	1	MQQM	492	1	blank2r.bmp	572	1	schön	866	1	!	1319	1	!	-1	0	0	0	0	0	0	0	0	0	0	0	0	0	0	0	0	0	0	0	0	0	0	0	0	0	0	0	0	0	0
081419	11:52:22	11:56:00	217070	5.0.10.0	5_exp_RW	99	Rpleas_acq	CS_B	GWWG	MQQM	BZZB	YDDY	JXXJ	VKKV	ehrlich	spielen	treu	schön	retten	fair	eitel	strafen	tot	schlecht	rächen	faul	1	acq_USpleas_CSpleas1_RW	acq2_RW	2	22	480	0	300	300	395	50	0	1	1	blank2r.bmp	0	1	+	0	1	blank2r.bmp	492	1	GWWG	492	1	blank2r.bmp	572	1	ehrlich	866	1	!	-1	1	!	-1	0	0	0	0	0	0	0	0	0	0	0	0	0	0	0	0	0	0	0	0	0	0	0	0	0	0	0	0	0	0
081419	11:52:22	11:56:02	219483	5.0.10.0	5_exp_RW	99	Rpleas_acq	CS_B	GWWG	MQQM	BZZB	YDDY	JXXJ	VKKV	ehrlich	spielen	treu	schön	retten	fair	eitel	strafen	tot	schlecht	rächen	faul	1	acq_USpleas_CSpleas1_RW	acq2_RW	2	23	480	0	300	300	625	50	0	1	1	blank2r.bmp	0	1	+	0	1	blank2r.bmp	492	1	GWWG	492	1	blank2r.bmp	572	2	spielen	866	1	!	1319	1	!	-1	0	0	0	0	0	0	0	0	0	0	0	0	0	0	0	0	0	0	0	0	0	0	0	0	0	0	0	0	0	0
081419	11:52:22	11:56:04	221868	5.0.10.0	5_exp_RW	99	Rpleas_acq	CS_B	GWWG	MQQM	BZZB	YDDY	JXXJ	VKKV	ehrlich	spielen	treu	schön	retten	fair	eitel	strafen	tot	schlecht	rächen	faul	1	acq_USunple_CSunple2_RW	acq2_RW	2	24	480	0	300	300	607	46	0	1	1	blank2r.bmp	0	1	+	0	1	blank2r.bmp	492	1	YDDY	492	1	blank2r.bmp	572	3	faul	866	1	!	1319	1	!	-1	0	0	0	0	0	0	0	0	0	0	0	0	0	0	0	0	0	0	0	0	0	0	0	0	0	0	0	0	0	0
081419	11:52:22	11:56:25	242300	5.0.10.0	5_exp_RW	99	Rpleas_acq	CS_B	GWWG	MQQM	BZZB	YDDY	JXXJ	VKKV	ehrlich	spielen	treu	schön	retten	fair	eitel	strafen	tot	schlecht	rächen	faul	1	acq_USunple_CSunple1_RW	acq3_RW	3	1	453	0	300	300	687	46	0	1	1	blank2r.bmp	0	1	+	0	1	blank2r.bmp	492	1	BZZB	492	1	blank2r.bmp	572	1	eitel	866	1	!	1292	1	!	-1	0	0	0	0	0	0	0	0	0	0	0	0	0	0	0	0	0	0	0	0	0	0	0	0	0	0	0	0	0	0
081419	11:52:22	11:56:27	244592	5.0.10.0	5_exp_RW	99	Rpleas_acq	CS_B	GWWG	MQQM	BZZB	YDDY	JXXJ	VKKV	ehrlich	spielen	treu	schön	retten	fair	eitel	strafen	tot	schlecht	rächen	faul	1	acq_USpleas_CSpleas2_RW	acq3_RW	3	2	453	1	300	300	467	50	0	1	1	blank2r.bmp	0	1	+	0	1	blank2r.bmp	492	1	MQQM	492	1	blank2r.bmp	572	3	fair	866	1	!	1292	1	!	1372	0	0	0	0	0	0	0	0	0	0	0	0	0	0	0	0	0	0	0	0	0	0	0	0	0	0	0	0	0	0
081419	11:52:22	11:56:29	246738	5.0.10.0	5_exp_RW	99	Rpleas_acq	CS_B	GWWG	MQQM	BZZB	YDDY	JXXJ	VKKV	ehrlich	spielen	treu	schön	retten	fair	eitel	strafen	tot	schlecht	rächen	faul	1	acq_USunple_CSunple1_RW	acq3_RW	3	3	453	0	300	300	371	46	0	1	1	blank2r.bmp	0	1	+	0	1	blank2r.bmp	492	1	BZZB	492	1	blank2r.bmp	572	3	tot	866	1	!	-1	1	!	-1	0	0	0	0	0	0	0	0	0	0	0	0	0	0	0	0	0	0	0	0	0	0	0	0	0	0	0	0	0	0
081419	11:52:22	11:56:32	249071	5.0.10.0	5_exp_RW	99	Rpleas_acq	CS_B	GWWG	MQQM	BZZB	YDDY	JXXJ	VKKV	ehrlich	spielen	treu	schön	retten	fair	eitel	strafen	tot	schlecht	rächen	faul	1	acq_USpleas_CSpleas1_RW	acq3_RW	3	4	453	0	300	300	547	50	0	1	1	blank2r.bmp	0	1	+	0	1	blank2r.bmp	492	1	GWWG	492	1	blank2r.bmp	572	1	ehrlich	866	1	!	1292	1	!	-1	0	0	0	0	0	0	0	0	0	0	0	0	0	0	0	0	0	0	0	0	0	0	0	0	0	0	0	0	0	0
081419	11:52:22	11:56:34	251709	5.0.10.0	5_exp_RW	99	Rpleas_acq	CS_B	GWWG	MQQM	BZZB	YDDY	JXXJ	VKKV	ehrlich	spielen	treu	schön	retten	fair	eitel	strafen	tot	schlecht	rächen	faul	1	acq_USpleas_CSpleas2_RW	acq3_RW	3	5	453	0	300	300	650	46	0	0	1	blank2r.bmp	0	1	+	0	1	blank2r.bmp	492	1	MQQM	492	1	blank2r.bmp	572	2	retten	866	1	FEHLER	1852	1	!	1292	1	!	-1	0	0	0	0	0	0	0	0	0	0	0	0	0	0	0	0	0	0	0	0	0	0	0	0	0	0	0
081419	11:52:22	11:56:40	257067	5.0.10.0	5_exp_RW	99	Rpleas_acq	CS_B	GWWG	MQQM	BZZB	YDDY	JXXJ	VKKV	ehrlich	spielen	treu	schön	retten	fair	eitel	strafen	tot	schlecht	rächen	faul	1	acq_USunple_CSunple1_RW	acq3_RW	3	6	453	0	300	300	3782	46	0	1	1	blank2r.bmp	0	1	+	0	1	blank2r.bmp	492	1	BZZB	492	1	blank2r.bmp	572	1	eitel	866	1	!	1292	1	!	-1	0	0	0	0	0	0	0	0	0	0	0	0	0	0	0	0	0	0	0	0	0	0	0	0	0	0	0	0	0	0
081419	11:52:22	11:56:42	259440	5.0.10.0	5_exp_RW	99	Rpleas_acq	CS_B	GWWG	MQQM	BZZB	YDDY	JXXJ	VKKV	ehrlich	spielen	treu	schön	retten	fair	eitel	strafen	tot	schlecht	rächen	faul	1	acq_USunple_CSunple2_RW	acq3_RW	3	7	453	0	300	300	610	46	0	1	1	blank2r.bmp	0	1	+	0	1	blank2r.bmp	492	1	YDDY	492	1	blank2r.bmp	572	2	rächen	866	1	!	1292	1	!	-1	0	0	0	0	0	0	0	0	0	0	0	0	0	0	0	0	0	0	0	0	0	0	0	0	0	0	0	0	0	0
081419	11:52:22	11:56:45	262998	5.0.10.0	5_exp_RW	99	Rpleas_acq	CS_B	GWWG	MQQM	BZZB	YDDY	JXXJ	VKKV	ehrlich	spielen	treu	schön	retten	fair	eitel	strafen	tot	schlecht	rächen	faul	1	acq_USpleas_CSpleas1_RW	acq3_RW	3	8	453	0	300	300	1782	50	0	1	1	blank2r.bmp	0	1	+	0	1	blank2r.bmp	492	1	GWWG	492	1	blank2r.bmp	572	3	treu	866	1	!	1292	1	!	-1	0	0	0	0	0	0	0	0	0	0	0	0	0	0	0	0	0	0	0	0	0	0	0	0	0	0	0	0	0	0
081419	11:52:22	11:56:48	265211	5.0.10.0	5_exp_RW	99	Rpleas_acq	CS_B	GWWG	MQQM	BZZB	YDDY	JXXJ	VKKV	ehrlich	spielen	treu	schön	retten	fair	eitel	strafen	tot	schlecht	rächen	faul	1	acq_USunple_CSunple2_RW	acq3_RW	3	9	453	1	300	300	405	46	0	1	1	blank2r.bmp	0	1	+	0	1	blank2r.bmp	492	1	YDDY	492	1	blank2r.bmp	572	1	schlecht	866	1	!	1292	1	!	1306	0	0	0	0	0	0	0	0	0	0	0	0	0	0	0	0	0	0	0	0	0	0	0	0	0	0	0	0	0	0
081419	11:52:22	11:56:50	267410	5.0.10.0	5_exp_RW	99	Rpleas_acq	CS_B	GWWG	MQQM	BZZB	YDDY	JXXJ	VKKV	ehrlich	spielen	treu	schön	retten	fair	eitel	strafen	tot	schlecht	rächen	faul	1	acq_USunple_CSunple2_RW	acq3_RW	3	10	453	1	300	300	406	46	0	1	1	blank2r.bmp	0	1	+	0	1	blank2r.bmp	492	1	YDDY	492	1	blank2r.bmp	572	3	faul	866	1	!	1292	1	!	1306	0	0	0	0	0	0	0	0	0	0	0	0	0	0	0	0	0	0	0	0	0	0	0	0	0	0	0	0	0	0
081419	11:52:22	11:56:52	269715	5.0.10.0	5_exp_RW	99	Rpleas_acq	CS_B	GWWG	MQQM	BZZB	YDDY	JXXJ	VKKV	ehrlich	spielen	treu	schön	retten	fair	eitel	strafen	tot	schlecht	rächen	faul	1	acq_USpleas_CSpleas2_RW	acq3_RW	3	11	453	0	300	300	532	50	0	1	1	blank2r.bmp	0	1	+	0	1	blank2r.bmp	492	1	MQQM	492	1	blank2r.bmp	572	1	schön	866	1	!	1292	1	!	-1	0	0	0	0	0	0	0	0	0	0	0	0	0	0	0	0	0	0	0	0	0	0	0	0	0	0	0	0	0	0
081419	11:52:22	11:56:55	272221	5.0.10.0	5_exp_RW	99	Rpleas_acq	CS_B	GWWG	MQQM	BZZB	YDDY	JXXJ	VKKV	ehrlich	spielen	treu	schön	retten	fair	eitel	strafen	tot	schlecht	rächen	faul	1	acq_USpleas_CSpleas1_RW	acq3_RW	3	12	453	0	300	300	722	50	0	1	1	blank2r.bmp	0	1	+	0	1	blank2r.bmp	492	1	GWWG	492	1	blank2r.bmp	572	3	treu	866	1	!	1292	1	!	-1	0	0	0	0	0	0	0	0	0	0	0	0	0	0	0	0	0	0	0	0	0	0	0	0	0	0	0	0	0	0
081419	11:52:22	11:56:57	274473	5.0.10.0	5_exp_RW	99	Rpleas_acq	CS_B	GWWG	MQQM	BZZB	YDDY	JXXJ	VKKV	ehrlich	spielen	treu	schön	retten	fair	eitel	strafen	tot	schlecht	rächen	faul	1	acq_USunple_CSunple1_RW	acq3_RW	3	13	453	1	300	300	426	46	0	1	1	blank2r.bmp	0	1	+	0	1	blank2r.bmp	492	1	BZZB	492	1	blank2r.bmp	572	2	strafen	866	1	!	1292	1	!	1332	0	0	0	0	0	0	0	0	0	0	0	0	0	0	0	0	0	0	0	0	0	0	0	0	0	0	0	0	0	0
081419	11:52:22	11:56:59	276593	5.0.10.0	5_exp_RW	99	Rpleas_acq	CS_B	GWWG	MQQM	BZZB	YDDY	JXXJ	VKKV	ehrlich	spielen	treu	schön	retten	fair	eitel	strafen	tot	schlecht	rächen	faul	1	acq_USunple_CSunple1_RW	acq3_RW	3	14	453	0	300	300	347	46	0	1	1	blank2r.bmp	0	1	+	0	1	blank2r.bmp	492	1	BZZB	492	1	blank2r.bmp	572	3	tot	866	1	!	-1	1	!	-1	0	0	0	0	0	0	0	0	0	0	0	0	0	0	0	0	0	0	0	0	0	0	0	0	0	0	0	0	0	0
081419	11:52:22	11:57:01	278832	5.0.10.0	5_exp_RW	99	Rpleas_acq	CS_B	GWWG	MQQM	BZZB	YDDY	JXXJ	VKKV	ehrlich	spielen	treu	schön	retten	fair	eitel	strafen	tot	schlecht	rächen	faul	1	acq_USpleas_CSpleas2_RW	acq3_RW	3	15	453	1	300	300	429	50	0	1	1	blank2r.bmp	0	1	+	0	1	blank2r.bmp	492	1	MQQM	492	1	blank2r.bmp	572	3	fair	866	1	!	1292	1	!	1332	0	0	0	0	0	0	0	0	0	0	0	0	0	0	0	0	0	0	0	0	0	0	0	0	0	0	0	0	0	0
081419	11:52:22	11:57:04	281417	5.0.10.0	5_exp_RW	99	Rpleas_acq	CS_B	GWWG	MQQM	BZZB	YDDY	JXXJ	VKKV	ehrlich	spielen	treu	schön	retten	fair	eitel	strafen	tot	schlecht	rächen	faul	1	acq_USpleas_CSpleas1_RW	acq3_RW	3	16	453	0	300	300	596	46	0	0	1	blank2r.bmp	0	1	+	0	1	blank2r.bmp	492	1	GWWG	492	1	blank2r.bmp	572	2	spielen	866	1	FEHLER	1799	1	!	1292	1	!	-1	0	0	0	0	0	0	0	0	0	0	0	0	0	0	0	0	0	0	0	0	0	0	0	0	0	0	0
081419	11:52:22	11:57:06	283536	5.0.10.0	5_exp_RW	99	Rpleas_acq	CS_B	GWWG	MQQM	BZZB	YDDY	JXXJ	VKKV	ehrlich	spielen	treu	schön	retten	fair	eitel	strafen	tot	schlecht	rächen	faul	1	acq_USunple_CSunple1_RW	acq3_RW	3	17	453	0	300	300	562	46	0	1	1	blank2r.bmp	0	1	+	0	1	blank2r.bmp	492	1	BZZB	492	1	blank2r.bmp	572	2	strafen	866	1	!	1292	1	!	-1	0	0	0	0	0	0	0	0	0	0	0	0	0	0	0	0	0	0	0	0	0	0	0	0	0	0	0	0	0	0
081419	11:52:22	11:57:08	286002	5.0.10.0	5_exp_RW	99	Rpleas_acq	CS_B	GWWG	MQQM	BZZB	YDDY	JXXJ	VKKV	ehrlich	spielen	treu	schön	retten	fair	eitel	strafen	tot	schlecht	rächen	faul	1	acq_USpleas_CSpleas1_RW	acq3_RW	3	18	453	1	300	300	445	46	0	0	1	blank2r.bmp	0	1	+	0	1	blank2r.bmp	492	1	GWWG	492	1	blank2r.bmp	572	1	ehrlich	866	1	FEHLER	1665	1	!	1292	1	!	1346	0	0	0	0	0	0	0	0	0	0	0	0	0	0	0	0	0	0	0	0	0	0	0	0	0	0	0
081419	11:52:22	11:57:11	288095	5.0.10.0	5_exp_RW	99	Rpleas_acq	CS_B	GWWG	MQQM	BZZB	YDDY	JXXJ	VKKV	ehrlich	spielen	treu	schön	retten	fair	eitel	strafen	tot	schlecht	rächen	faul	1	acq_USunple_CSunple2_RW	acq3_RW	3	19	453	1	300	300	506	46	0	1	1	blank2r.bmp	0	1	+	0	1	blank2r.bmp	492	1	YDDY	492	1	blank2r.bmp	572	2	rächen	866	1	!	1292	1	!	1412	0	0	0	0	0	0	0	0	0	0	0	0	0	0	0	0	0	0	0	0	0	0	0	0	0	0	0	0	0	0
081419	11:52:22	11:57:13	290534	5.0.10.0	5_exp_RW	99	Rpleas_acq	CS_B	GWWG	MQQM	BZZB	YDDY	JXXJ	VKKV	ehrlich	spielen	treu	schön	retten	fair	eitel	strafen	tot	schlecht	rächen	faul	1	acq_USpleas_CSpleas1_RW	acq3_RW	3	20	453	0	300	300	677	50	0	1	1	blank2r.bmp	0	1	+	0	1	blank2r.bmp	492	1	GWWG	492	1	blank2r.bmp	572	3	treu	866	1	!	1292	1	!	-1	0	0	0	0	0	0	0	0	0	0	0	0	0	0	0	0	0	0	0	0	0	0	0	0	0	0	0	0	0	0
081419	11:52:22	11:57:15	292853	5.0.10.0	5_exp_RW	99	Rpleas_acq	CS_B	GWWG	MQQM	BZZB	YDDY	JXXJ	VKKV	ehrlich	spielen	treu	schön	retten	fair	eitel	strafen	tot	schlecht	rächen	faul	1	acq_USunple_CSunple2_RW	acq3_RW	3	21	453	1	300	300	518	46	0	1	1	blank2r.bmp	0	1	+	0	1	blank2r.bmp	492	1	YDDY	492	1	blank2r.bmp	572	1	schlecht	866	1	!	1292	1	!	1412	0	0	0	0	0	0	0	0	0	0	0	0	0	0	0	0	0	0	0	0	0	0	0	0	0	0	0	0	0	0
081419	11:52:22	11:57:18	295132	5.0.10.0	5_exp_RW	99	Rpleas_acq	CS_B	GWWG	MQQM	BZZB	YDDY	JXXJ	VKKV	ehrlich	spielen	treu	schön	retten	fair	eitel	strafen	tot	schlecht	rächen	faul	1	acq_USunple_CSunple2_RW	acq3_RW	3	22	453	1	300	300	484	46	0	1	1	blank2r.bmp	0	1	+	0	1	blank2r.bmp	492	1	YDDY	492	1	blank2r.bmp	572	3	faul	866	1	!	1292	1	!	1386	0	0	0	0	0	0	0	0	0	0	0	0	0	0	0	0	0	0	0	0	0	0	0	0	0	0	0	0	0	0
081419	11:52:22	11:57:20	297544	5.0.10.0	5_exp_RW	99	Rpleas_acq	CS_B	GWWG	MQQM	BZZB	YDDY	JXXJ	VKKV	ehrlich	spielen	treu	schön	retten	fair	eitel	strafen	tot	schlecht	rächen	faul	1	acq_USpleas_CSpleas2_RW	acq3_RW	3	23	453	1	300	300	399	46	0	0	1	blank2r.bmp	0	1	+	0	1	blank2r.bmp	492	1	MQQM	492	1	blank2r.bmp	572	2	retten	866	1	FEHLER	1625	1	!	1292	1	!	1306	0	0	0	0	0	0	0	0	0	0	0	0	0	0	0	0	0	0	0	0	0	0	0	0	0	0	0
081419	11:52:22	11:57:23	300383	5.0.10.0	5_exp_RW	99	Rpleas_acq	CS_B	GWWG	MQQM	BZZB	YDDY	JXXJ	VKKV	ehrlich	spielen	treu	schön	retten	fair	eitel	strafen	tot	schlecht	rächen	faul	1	acq_USpleas_CSpleas2_RW	acq3_RW	3	24	453	0	300	300	1290	50	0	1	1	blank2r.bmp	0	1	+	0	1	blank2r.bmp	492	1	MQQM	492	1	blank2r.bmp	572	2	retten	866	1	!	1292	1	!	-1	0	0	0	0	0	0	0	0	0	0	0	0	0	0	0	0	0	0	0	0	0	0	0	0	0	0	0	0	0	0
081419	11:52:22	11:57:43	321001	5.0.10.0	5_exp_RW	99	Rpleas_acq	CS_B	GWWG	MQQM	BZZB	YDDY	JXXJ	VKKV	ehrlich	spielen	treu	schön	retten	fair	eitel	strafen	tot	schlecht	rächen	faul	1	acq_USpleas_CSpleas2_RW	acq4567_RW	4	1	400	1	300	300	397	46	0	0	1	blank2r.bmp	0	1	+	0	1	blank2r.bmp	492	1	MQQM	492	1	blank2r.bmp	572	3	fair	866	1	!	1239	1	!	1292	0	0	0	0	0	0	0	0	0	0	0	0	0	0	0	0	0	0	0	0	0	0	0	0	0	0	0	0	0	0
081419	11:52:22	11:57:46	323293	5.0.10.0	5_exp_RW	99	Rpleas_acq	CS_B	GWWG	MQQM	BZZB	YDDY	JXXJ	VKKV	ehrlich	spielen	treu	schön	retten	fair	eitel	strafen	tot	schlecht	rächen	faul	1	acq_USunple_CSunple1_RW	acq4567_RW	4	2	400	0	300	300	511	46	0	1	1	blank2r.bmp	0	1	+	0	1	blank2r.bmp	492	1	BZZB	492	1	blank2r.bmp	572	3	tot	866	1	!	1239	1	!	-1	0	0	0	0	0	0	0	0	0	0	0	0	0	0	0	0	0	0	0	0	0	0	0	0	0	0	0	0	0	0
081419	11:52:22	11:57:48	325559	5.0.10.0	5_exp_RW	99	Rpleas_acq	CS_B	GWWG	MQQM	BZZB	YDDY	JXXJ	VKKV	ehrlich	spielen	treu	schön	retten	fair	eitel	strafen	tot	schlecht	rächen	faul	1	acq_USpleas_CSpleas1_RW	acq4567_RW	4	3	400	0	300	300	479	50	0	1	1	blank2r.bmp	0	1	+	0	1	blank2r.bmp	492	1	GWWG	492	1	blank2r.bmp	572	2	spielen	866	1	!	1239	1	!	-1	0	0	0	0	0	0	0	0	0	0	0	0	0	0	0	0	0	0	0	0	0	0	0	0	0	0	0	0	0	0
081419	11:52:22	11:57:50	327798	5.0.10.0	5_exp_RW	99	Rpleas_acq	CS_B	GWWG	MQQM	BZZB	YDDY	JXXJ	VKKV	ehrlich	spielen	treu	schön	retten	fair	eitel	strafen	tot	schlecht	rächen	faul	1	acq_USunple_CSunple1_RW	acq4567_RW	4	4	400	1	300	300	423	46	0	1	1	blank2r.bmp	0	1	+	0	1	blank2r.bmp	492	1	BZZB	492	1	blank2r.bmp	572	1	eitel	866	1	!	1239	1	!	1319	0	0	0	0	0	0	0	0	0	0	0	0	0	0	0	0	0	0	0	0	0	0	0	0	0	0	0	0	0	0
081419	11:52:22	11:57:52	330051	5.0.10.0	5_exp_RW	99	Rpleas_acq	CS_B	GWWG	MQQM	BZZB	YDDY	JXXJ	VKKV	ehrlich	spielen	treu	schön	retten	fair	eitel	strafen	tot	schlecht	rächen	faul	1	acq_USunple_CSunple1_RW	acq4567_RW	4	5	400	1	300	300	457	50	0	0	1	blank2r.bmp	0	1	+	0	1	blank2r.bmp	492	1	BZZB	492	1	blank2r.bmp	572	1	eitel	866	1	!	1239	1	!	1359	0	0	0	0	0	0	0	0	0	0	0	0	0	0	0	0	0	0	0	0	0	0	0	0	0	0	0	0	0	0
081419	11:52:22	11:57:55	332290	5.0.10.0	5_exp_RW	99	Rpleas_acq	CS_B	GWWG	MQQM	BZZB	YDDY	JXXJ	VKKV	ehrlich	spielen	treu	schön	retten	fair	eitel	strafen	tot	schlecht	rächen	faul	1	acq_USpleas_CSpleas1_RW	acq4567_RW	4	6	400	1	300	300	444	46	0	0	1	blank2r.bmp	0	1	+	0	1	blank2r.bmp	492	1	GWWG	492	1	blank2r.bmp	572	1	ehrlich	866	1	!	1239	1	!	1346	0	0	0	0	0	0	0	0	0	0	0	0	0	0	0	0	0	0	0	0	0	0	0	0	0	0	0	0	0	0
081419	11:52:22	11:57:57	334462	5.0.10.0	5_exp_RW	99	Rpleas_acq	CS_B	GWWG	MQQM	BZZB	YDDY	JXXJ	VKKV	ehrlich	spielen	treu	schön	retten	fair	eitel	strafen	tot	schlecht	rächen	faul	1	acq_USpleas_CSpleas1_RW	acq4567_RW	4	7	400	1	300	300	374	46	0	0	1	blank2r.bmp	0	1	+	0	1	blank2r.bmp	492	1	GWWG	492	1	blank2r.bmp	572	3	treu	866	1	!	1239	1	!	1279	0	0	0	0	0	0	0	0	0	0	0	0	0	0	0	0	0	0	0	0	0	0	0	0	0	0	0	0	0	0
081419	11:52:22	11:57:59	336688	5.0.10.0	5_exp_RW	99	Rpleas_acq	CS_B	GWWG	MQQM	BZZB	YDDY	JXXJ	VKKV	ehrlich	spielen	treu	schön	retten	fair	eitel	strafen	tot	schlecht	rächen	faul	1	acq_USpleas_CSpleas2_RW	acq4567_RW	4	8	400	1	300	300	416	50	0	1	1	blank2r.bmp	0	1	+	0	1	blank2r.bmp	492	1	MQQM	492	1	blank2r.bmp	572	1	schön	866	1	!	1239	1	!	1319	0	0	0	0	0	0	0	0	0	0	0	0	0	0	0	0	0	0	0	0	0	0	0	0	0	0	0	0	0	0
081419	11:52:22	11:58:01	339007	5.0.10.0	5_exp_RW	99	Rpleas_acq	CS_B	GWWG	MQQM	BZZB	YDDY	JXXJ	VKKV	ehrlich	spielen	treu	schön	retten	fair	eitel	strafen	tot	schlecht	rächen	faul	1	acq_USpleas_CSpleas2_RW	acq4567_RW	4	9	400	0	300	300	546	46	0	0	1	blank2r.bmp	0	1	+	0	1	blank2r.bmp	492	1	MQQM	492	1	blank2r.bmp	572	3	fair	866	1	!	1239	1	!	-1	0	0	0	0	0	0	0	0	0	0	0	0	0	0	0	0	0	0	0	0	0	0	0	0	0	0	0	0	0	0
081419	11:52:22	11:58:04	341166	5.0.10.0	5_exp_RW	99	Rpleas_acq	CS_B	GWWG	MQQM	BZZB	YDDY	JXXJ	VKKV	ehrlich	spielen	treu	schön	retten	fair	eitel	strafen	tot	schlecht	rächen	faul	1	acq_USunple_CSunple2_RW	acq4567_RW	4	10	400	1	300	300	354	50	0	0	1	blank2r.bmp	0	1	+	0	1	blank2r.bmp	492	1	YDDY	492	1	blank2r.bmp	572	1	schlecht	866	1	!	1239	1	!	1252	0	0	0	0	0	0	0	0	0	0	0	0	0	0	0	0	0	0	0	0	0	0	0	0	0	0	0	0	0	0
081419	11:52:22	11:58:06	343352	5.0.10.0	5_exp_RW	99	Rpleas_acq	CS_B	GWWG	MQQM	BZZB	YDDY	JXXJ	VKKV	ehrlich	spielen	treu	schön	retten	fair	eitel	strafen	tot	schlecht	rächen	faul	1	acq_USunple_CSunple2_RW	acq4567_RW	4	11	400	1	300	300	390	46	0	1	1	blank2r.bmp	0	1	+	0	1	blank2r.bmp	492	1	YDDY	492	1	blank2r.bmp	572	2	rächen	866	1	!	1239	1	!	1292	0	0	0	0	0	0	0	0	0	0	0	0	0	0	0	0	0	0	0	0	0	0	0	0	0	0	0	0	0	0
081419	11:52:22	11:58:08	345524	5.0.10.0	5_exp_RW	99	Rpleas_acq	CS_B	GWWG	MQQM	BZZB	YDDY	JXXJ	VKKV	ehrlich	spielen	treu	schön	retten	fair	eitel	strafen	tot	schlecht	rächen	faul	1	acq_USunple_CSunple2_RW	acq4567_RW	4	12	400	1	300	300	380	46	0	1	1	blank2r.bmp	0	1	+	0	1	blank2r.bmp	492	1	YDDY	492	1	blank2r.bmp	572	2	rächen	866	1	!	1239	1	!	1279	0	0	0	0	0	0	0	0	0	0	0	0	0	0	0	0	0	0	0	0	0	0	0	0	0	0	0	0	0	0
081419	11:52:22	11:58:10	347710	5.0.10.0	5_exp_RW	99	Rpleas_acq	CS_B	GWWG	MQQM	BZZB	YDDY	JXXJ	VKKV	ehrlich	spielen	treu	schön	retten	fair	eitel	strafen	tot	schlecht	rächen	faul	1	acq_USunple_CSunple1_RW	acq4567_RW	4	13	400	1	300	300	374	46	0	1	1	blank2r.bmp	0	1	+	0	1	blank2r.bmp	492	1	BZZB	492	1	blank2r.bmp	572	3	tot	866	1	!	1239	1	!	1279	0	0	0	0	0	0	0	0	0	0	0	0	0	0	0	0	0	0	0	0	0	0	0	0	0	0	0	0	0	0
081419	11:52:22	11:58:12	349869	5.0.10.0	5_exp_RW	99	Rpleas_acq	CS_B	GWWG	MQQM	BZZB	YDDY	JXXJ	VKKV	ehrlich	spielen	treu	schön	retten	fair	eitel	strafen	tot	schlecht	rächen	faul	1	acq_USunple_CSunple1_RW	acq4567_RW	4	14	400	1	300	300	368	46	0	1	1	blank2r.bmp	0	1	+	0	1	blank2r.bmp	492	1	BZZB	492	1	blank2r.bmp	572	2	strafen	866	1	!	1239	1	!	1266	0	0	0	0	0	0	0	0	0	0	0	0	0	0	0	0	0	0	0	0	0	0	0	0	0	0	0	0	0	0
081419	11:52:22	11:58:14	351855	5.0.10.0	5_exp_RW	99	Rpleas_acq	CS_B	GWWG	MQQM	BZZB	YDDY	JXXJ	VKKV	ehrlich	spielen	treu	schön	retten	fair	eitel	strafen	tot	schlecht	rächen	faul	1	acq_USpleas_CSpleas1_RW	acq4567_RW	4	15	400	0	300	300	224	50	0	1	1	blank2r.bmp	0	1	+	0	1	blank2r.bmp	492	1	GWWG	492	1	blank2r.bmp	572	1	ehrlich	866	1	!	-1	1	!	-1	0	0	0	0	0	0	0	0	0	0	0	0	0	0	0	0	0	0	0	0	0	0	0	0	0	0	0	0	0	0
081419	11:52:22	11:58:16	353961	5.0.10.0	5_exp_RW	99	Rpleas_acq	CS_B	GWWG	MQQM	BZZB	YDDY	JXXJ	VKKV	ehrlich	spielen	treu	schön	retten	fair	eitel	strafen	tot	schlecht	rächen	faul	1	acq_USunple_CSunple2_RW	acq4567_RW	4	16	400	0	300	300	330	46	0	1	1	blank2r.bmp	0	1	+	0	1	blank2r.bmp	492	1	YDDY	492	1	blank2r.bmp	572	3	faul	866	1	!	-1	1	!	-1	0	0	0	0	0	0	0	0	0	0	0	0	0	0	0	0	0	0	0	0	0	0	0	0	0	0	0	0	0	0
081419	11:52:22	11:58:19	356227	5.0.10.0	5_exp_RW	99	Rpleas_acq	CS_B	GWWG	MQQM	BZZB	YDDY	JXXJ	VKKV	ehrlich	spielen	treu	schön	retten	fair	eitel	strafen	tot	schlecht	rächen	faul	1	acq_USpleas_CSpleas2_RW	acq4567_RW	4	17	400	1	300	300	465	50	0	1	1	blank2r.bmp	0	1	+	0	1	blank2r.bmp	492	1	MQQM	492	1	blank2r.bmp	572	1	schön	866	1	!	1239	1	!	1359	0	0	0	0	0	0	0	0	0	0	0	0	0	0	0	0	0	0	0	0	0	0	0	0	0	0	0	0	0	0
081419	11:52:22	11:58:21	358506	5.0.10.0	5_exp_RW	99	Rpleas_acq	CS_B	GWWG	MQQM	BZZB	YDDY	JXXJ	VKKV	ehrlich	spielen	treu	schön	retten	fair	eitel	strafen	tot	schlecht	rächen	faul	1	acq_USpleas_CSpleas2_RW	acq4567_RW	4	18	400	0	300	300	500	46	0	0	1	blank2r.bmp	0	1	+	0	1	blank2r.bmp	492	1	MQQM	492	1	blank2r.bmp	572	2	retten	866	1	!	1239	1	!	-1	0	0	0	0	0	0	0	0	0	0	0	0	0	0	0	0	0	0	0	0	0	0	0	0	0	0	0	0	0	0
081419	11:52:22	11:58:23	360612	5.0.10.0	5_exp_RW	99	Rpleas_acq	CS_B	GWWG	MQQM	BZZB	YDDY	JXXJ	VKKV	ehrlich	spielen	treu	schön	retten	fair	eitel	strafen	tot	schlecht	rächen	faul	1	acq_USunple_CSunple2_RW	acq4567_RW	4	19	400	0	300	300	308	50	0	0	1	blank2r.bmp	0	1	+	0	1	blank2r.bmp	492	1	YDDY	492	1	blank2r.bmp	572	1	schlecht	866	1	!	-1	1	!	-1	0	0	0	0	0	0	0	0	0	0	0	0	0	0	0	0	0	0	0	0	0	0	0	0	0	0	0	0	0	0
081419	11:52:22	11:58:25	362864	5.0.10.0	5_exp_RW	99	Rpleas_acq	CS_B	GWWG	MQQM	BZZB	YDDY	JXXJ	VKKV	ehrlich	spielen	treu	schön	retten	fair	eitel	strafen	tot	schlecht	rächen	faul	1	acq_USpleas_CSpleas1_RW	acq4567_RW	4	20	400	1	300	300	435	50	0	1	1	blank2r.bmp	0	1	+	0	1	blank2r.bmp	492	1	GWWG	492	1	blank2r.bmp	572	2	spielen	866	1	!	1239	1	!	1332	0	0	0	0	0	0	0	0	0	0	0	0	0	0	0	0	0	0	0	0	0	0	0	0	0	0	0	0	0	0
081419	11:52:22	11:58:27	365050	5.0.10.0	5_exp_RW	99	Rpleas_acq	CS_B	GWWG	MQQM	BZZB	YDDY	JXXJ	VKKV	ehrlich	spielen	treu	schön	retten	fair	eitel	strafen	tot	schlecht	rächen	faul	1	acq_USpleas_CSpleas1_RW	acq4567_RW	4	21	400	1	300	300	392	50	0	1	1	blank2r.bmp	0	1	+	0	1	blank2r.bmp	492	1	GWWG	492	1	blank2r.bmp	572	1	ehrlich	866	1	!	1239	1	!	1292	0	0	0	0	0	0	0	0	0	0	0	0	0	0	0	0	0	0	0	0	0	0	0	0	0	0	0	0	0	0
081419	11:52:22	11:58:30	367275	5.0.10.0	5_exp_RW	99	Rpleas_acq	CS_B	GWWG	MQQM	BZZB	YDDY	JXXJ	VKKV	ehrlich	spielen	treu	schön	retten	fair	eitel	strafen	tot	schlecht	rächen	faul	1	acq_USpleas_CSpleas2_RW	acq4567_RW	4	22	400	1	300	300	433	50	0	1	1	blank2r.bmp	0	1	+	0	1	blank2r.bmp	492	1	MQQM	492	1	blank2r.bmp	572	1	schön	866	1	!	1239	1	!	1332	0	0	0	0	0	0	0	0	0	0	0	0	0	0	0	0	0	0	0	0	0	0	0	0	0	0	0	0	0	0
081419	11:52:22	11:58:32	369541	5.0.10.0	5_exp_RW	99	Rpleas_acq	CS_B	GWWG	MQQM	BZZB	YDDY	JXXJ	VKKV	ehrlich	spielen	treu	schön	retten	fair	eitel	strafen	tot	schlecht	rächen	faul	1	acq_USunple_CSunple1_RW	acq4567_RW	4	23	400	0	300	300	500	50	0	0	1	blank2r.bmp	0	1	+	0	1	blank2r.bmp	492	1	BZZB	492	1	blank2r.bmp	572	1	eitel	866	1	!	1239	1	!	-1	0	0	0	0	0	0	0	0	0	0	0	0	0	0	0	0	0	0	0	0	0	0	0	0	0	0	0	0	0	0
081419	11:52:22	11:58:34	371740	5.0.10.0	5_exp_RW	99	Rpleas_acq	CS_B	GWWG	MQQM	BZZB	YDDY	JXXJ	VKKV	ehrlich	spielen	treu	schön	retten	fair	eitel	strafen	tot	schlecht	rächen	faul	1	acq_USunple_CSunple1_RW	acq4567_RW	4	24	400	1	300	300	395	46	0	1	1	blank2r.bmp	0	1	+	0	1	blank2r.bmp	492	1	BZZB	492	1	blank2r.bmp	572	2	strafen	866	1	!	1239	1	!	1292	0	0	0	0	0	0	0	0	0	0	0	0	0	0	0	0	0	0	0	0	0	0	0	0	0	0	0	0	0	0
081419	11:52:22	11:58:36	373993	5.0.10.0	5_exp_RW	99	Rpleas_acq	CS_B	GWWG	MQQM	BZZB	YDDY	JXXJ	VKKV	ehrlich	spielen	treu	schön	retten	fair	eitel	strafen	tot	schlecht	rächen	faul	1	acq_USpleas_CSpleas2_RW	acq4567_RW	4	25	400	1	300	300	452	46	0	0	1	blank2r.bmp	0	1	+	0	1	blank2r.bmp	492	1	MQQM	492	1	blank2r.bmp	572	3	fair	866	1	!	1239	1	!	1359	0	0	0	0	0	0	0	0	0	0	0	0	0	0	0	0	0	0	0	0	0	0	0	0	0	0	0	0	0	0
081419	11:52:22	11:58:39	376218	5.0.10.0	5_exp_RW	99	Rpleas_acq	CS_B	GWWG	MQQM	BZZB	YDDY	JXXJ	VKKV	ehrlich	spielen	treu	schön	retten	fair	eitel	strafen	tot	schlecht	rächen	faul	1	acq_USunple_CSunple2_RW	acq4567_RW	4	26	400	1	300	300	422	46	0	1	1	blank2r.bmp	0	1	+	0	1	blank2r.bmp	492	1	YDDY	492	1	blank2r.bmp	572	1	schlecht	866	1	!	1239	1	!	1319	0	0	0	0	0	0	0	0	0	0	0	0	0	0	0	0	0	0	0	0	0	0	0	0	0	0	0	0	0	0
081419	11:52:22	11:58:41	378471	5.0.10.0	5_exp_RW	99	Rpleas_acq	CS_B	GWWG	MQQM	BZZB	YDDY	JXXJ	VKKV	ehrlich	spielen	treu	schön	retten	fair	eitel	strafen	tot	schlecht	rächen	faul	1	acq_USpleas_CSpleas2_RW	acq4567_RW	4	27	400	1	300	300	462	46	0	0	1	blank2r.bmp	0	1	+	0	1	blank2r.bmp	492	1	MQQM	492	1	blank2r.bmp	572	2	retten	866	1	!	1239	1	!	1359	0	0	0	0	0	0	0	0	0	0	0	0	0	0	0	0	0	0	0	0	0	0	0	0	0	0	0	0	0	0
081419	11:52:22	11:58:43	380723	5.0.10.0	5_exp_RW	99	Rpleas_acq	CS_B	GWWG	MQQM	BZZB	YDDY	JXXJ	VKKV	ehrlich	spielen	treu	schön	retten	fair	eitel	strafen	tot	schlecht	rächen	faul	1	acq_USpleas_CSpleas1_RW	acq4567_RW	4	28	400	1	300	300	448	50	0	1	1	blank2r.bmp	0	1	+	0	1	blank2r.bmp	492	1	GWWG	492	1	blank2r.bmp	572	3	treu	866	1	!	1239	1	!	1346	0	0	0	0	0	0	0	0	0	0	0	0	0	0	0	0	0	0	0	0	0	0	0	0	0	0	0	0	0	0
081419	11:52:22	11:58:45	382936	5.0.10.0	5_exp_RW	99	Rpleas_acq	CS_B	GWWG	MQQM	BZZB	YDDY	JXXJ	VKKV	ehrlich	spielen	treu	schön	retten	fair	eitel	strafen	tot	schlecht	rächen	faul	1	acq_USunple_CSunple1_RW	acq4567_RW	4	29	400	1	300	300	413	46	0	1	1	blank2r.bmp	0	1	+	0	1	blank2r.bmp	492	1	BZZB	492	1	blank2r.bmp	572	3	tot	866	1	!	1239	1	!	1319	0	0	0	0	0	0	0	0	0	0	0	0	0	0	0	0	0	0	0	0	0	0	0	0	0	0	0	0	0	0
081419	11:52:22	11:58:48	385188	5.0.10.0	5_exp_RW	99	Rpleas_acq	CS_B	GWWG	MQQM	BZZB	YDDY	JXXJ	VKKV	ehrlich	spielen	treu	schön	retten	fair	eitel	strafen	tot	schlecht	rächen	faul	1	acq_USpleas_CSpleas1_RW	acq4567_RW	4	30	400	0	300	300	479	50	0	1	1	blank2r.bmp	0	1	+	0	1	blank2r.bmp	492	1	GWWG	492	1	blank2r.bmp	572	2	spielen	866	1	!	1239	1	!	-1	0	0	0	0	0	0	0	0	0	0	0	0	0	0	0	0	0	0	0	0	0	0	0	0	0	0	0	0	0	0
081419	11:52:22	11:58:50	387281	5.0.10.0	5_exp_RW	99	Rpleas_acq	CS_B	GWWG	MQQM	BZZB	YDDY	JXXJ	VKKV	ehrlich	spielen	treu	schön	retten	fair	eitel	strafen	tot	schlecht	rächen	faul	1	acq_USunple_CSunple1_RW	acq4567_RW	4	31	400	0	300	300	316	46	0	1	1	blank2r.bmp	0	1	+	0	1	blank2r.bmp	492	1	BZZB	492	1	blank2r.bmp	572	1	eitel	866	1	!	-1	1	!	-1	0	0	0	0	0	0	0	0	0	0	0	0	0	0	0	0	0	0	0	0	0	0	0	0	0	0	0	0	0	0
081419	11:52:22	11:58:52	389493	5.0.10.0	5_exp_RW	99	Rpleas_acq	CS_B	GWWG	MQQM	BZZB	YDDY	JXXJ	VKKV	ehrlich	spielen	treu	schön	retten	fair	eitel	strafen	tot	schlecht	rächen	faul	1	acq_USpleas_CSpleas2_RW	acq4567_RW	4	32	400	1	300	300	408	50	0	1	1	blank2r.bmp	0	1	+	0	1	blank2r.bmp	492	1	MQQM	492	1	blank2r.bmp	572	1	schön	866	1	!	1239	1	!	1306	0	0	0	0	0	0	0	0	0	0	0	0	0	0	0	0	0	0	0	0	0	0	0	0	0	0	0	0	0	0
081419	11:52:22	11:58:54	391745	5.0.10.0	5_exp_RW	99	Rpleas_acq	CS_B	GWWG	MQQM	BZZB	YDDY	JXXJ	VKKV	ehrlich	spielen	treu	schön	retten	fair	eitel	strafen	tot	schlecht	rächen	faul	1	acq_USpleas_CSpleas2_RW	acq4567_RW	4	33	400	0	300	300	488	46	0	0	1	blank2r.bmp	0	1	+	0	1	blank2r.bmp	492	1	MQQM	492	1	blank2r.bmp	572	2	retten	866	1	!	1239	1	!	-1	0	0	0	0	0	0	0	0	0	0	0	0	0	0	0	0	0	0	0	0	0	0	0	0	0	0	0	0	0	0
081419	11:52:22	11:58:56	393958	5.0.10.0	5_exp_RW	99	Rpleas_acq	CS_B	GWWG	MQQM	BZZB	YDDY	JXXJ	VKKV	ehrlich	spielen	treu	schön	retten	fair	eitel	strafen	tot	schlecht	rächen	faul	1	acq_USpleas_CSpleas1_RW	acq4567_RW	4	34	400	1	300	300	410	50	0	1	1	blank2r.bmp	0	1	+	0	1	blank2r.bmp	492	1	GWWG	492	1	blank2r.bmp	572	2	spielen	866	1	!	1239	1	!	1306	0	0	0	0	0	0	0	0	0	0	0	0	0	0	0	0	0	0	0	0	0	0	0	0	0	0	0	0	0	0
081419	11:52:22	11:58:59	396197	5.0.10.0	5_exp_RW	99	Rpleas_acq	CS_B	GWWG	MQQM	BZZB	YDDY	JXXJ	VKKV	ehrlich	spielen	treu	schön	retten	fair	eitel	strafen	tot	schlecht	rächen	faul	1	acq_USunple_CSunple2_RW	acq4567_RW	4	35	400	1	300	300	444	46	0	1	1	blank2r.bmp	0	1	+	0	1	blank2r.bmp	492	1	YDDY	492	1	blank2r.bmp	572	3	faul	866	1	!	1239	1	!	1346	0	0	0	0	0	0	0	0	0	0	0	0	0	0	0	0	0	0	0	0	0	0	0	0	0	0	0	0	0	0
081419	11:52:22	11:59:01	398463	5.0.10.0	5_exp_RW	99	Rpleas_acq	CS_B	GWWG	MQQM	BZZB	YDDY	JXXJ	VKKV	ehrlich	spielen	treu	schön	retten	fair	eitel	strafen	tot	schlecht	rächen	faul	1	acq_USpleas_CSpleas1_RW	acq4567_RW	4	36	400	1	300	300	466	50	0	1	1	blank2r.bmp	0	1	+	0	1	blank2r.bmp	492	1	GWWG	492	1	blank2r.bmp	572	3	treu	866	1	!	1239	1	!	1372	0	0	0	0	0	0	0	0	0	0	0	0	0	0	0	0	0	0	0	0	0	0	0	0	0	0	0	0	0	0
081419	11:52:22	11:59:03	400688	5.0.10.0	5_exp_RW	99	Rpleas_acq	CS_B	GWWG	MQQM	BZZB	YDDY	JXXJ	VKKV	ehrlich	spielen	treu	schön	retten	fair	eitel	strafen	tot	schlecht	rächen	faul	1	acq_USunple_CSunple1_RW	acq4567_RW	4	37	400	1	300	300	425	46	0	1	1	blank2r.bmp	0	1	+	0	1	blank2r.bmp	492	1	BZZB	492	1	blank2r.bmp	572	2	strafen	866	1	!	1239	1	!	1332	0	0	0	0	0	0	0	0	0	0	0	0	0	0	0	0	0	0	0	0	0	0	0	0	0	0	0	0	0	0
081419	11:52:22	11:59:05	402941	5.0.10.0	5_exp_RW	99	Rpleas_acq	CS_B	GWWG	MQQM	BZZB	YDDY	JXXJ	VKKV	ehrlich	spielen	treu	schön	retten	fair	eitel	strafen	tot	schlecht	rächen	faul	1	acq_USunple_CSunple2_RW	acq4567_RW	4	38	400	1	300	300	463	46	0	1	1	blank2r.bmp	0	1	+	0	1	blank2r.bmp	492	1	YDDY	492	1	blank2r.bmp	572	2	rächen	866	1	!	1239	1	!	1359	0	0	0	0	0	0	0	0	0	0	0	0	0	0	0	0	0	0	0	0	0	0	0	0	0	0	0	0	0	0
081419	11:52:22	11:59:08	405153	5.0.10.0	5_exp_RW	99	Rpleas_acq	CS_B	GWWG	MQQM	BZZB	YDDY	JXXJ	VKKV	ehrlich	spielen	treu	schön	retten	fair	eitel	strafen	tot	schlecht	rächen	faul	1	acq_USunple_CSunple2_RW	acq4567_RW	4	39	400	1	300	300	417	46	0	1	1	blank2r.bmp	0	1	+	0	1	blank2r.bmp	492	1	YDDY	492	1	blank2r.bmp	572	3	faul	866	1	!	1239	1	!	1319	0	0	0	0	0	0	0	0	0	0	0	0	0	0	0	0	0	0	0	0	0	0	0	0	0	0	0	0	0	0
081419	11:52:22	11:59:10	407419	5.0.10.0	5_exp_RW	99	Rpleas_acq	CS_B	GWWG	MQQM	BZZB	YDDY	JXXJ	VKKV	ehrlich	spielen	treu	schön	retten	fair	eitel	strafen	tot	schlecht	rächen	faul	1	acq_USunple_CSunple2_RW	acq4567_RW	4	40	400	0	300	300	479	46	0	1	1	blank2r.bmp	0	1	+	0	1	blank2r.bmp	492	1	YDDY	492	1	blank2r.bmp	572	1	schlecht	866	1	!	1239	1	!	-1	0	0	0	0	0	0	0	0	0	0	0	0	0	0	0	0	0	0	0	0	0	0	0	0	0	0	0	0	0	0
081419	11:52:22	11:59:12	409485	5.0.10.0	5_exp_RW	99	Rpleas_acq	CS_B	GWWG	MQQM	BZZB	YDDY	JXXJ	VKKV	ehrlich	spielen	treu	schön	retten	fair	eitel	strafen	tot	schlecht	rächen	faul	1	acq_USunple_CSunple2_RW	acq4567_RW	4	41	400	0	300	300	295	46	0	1	1	blank2r.bmp	0	1	+	0	1	blank2r.bmp	492	1	YDDY	492	1	blank2r.bmp	572	2	rächen	866	1	!	-1	1	!	-1	0	0	0	0	0	0	0	0	0	0	0	0	0	0	0	0	0	0	0	0	0	0	0	0	0	0	0	0	0	0
081419	11:52:22	11:59:14	411671	5.0.10.0	5_exp_RW	99	Rpleas_acq	CS_B	GWWG	MQQM	BZZB	YDDY	JXXJ	VKKV	ehrlich	spielen	treu	schön	retten	fair	eitel	strafen	tot	schlecht	rächen	faul	1	acq_USunple_CSunple1_RW	acq4567_RW	4	42	400	1	300	300	369	46	0	1	1	blank2r.bmp	0	1	+	0	1	blank2r.bmp	492	1	BZZB	492	1	blank2r.bmp	572	3	tot	866	1	!	1239	1	!	1266	0	0	0	0	0	0	0	0	0	0	0	0	0	0	0	0	0	0	0	0	0	0	0	0	0	0	0	0	0	0
081419	11:52:22	11:59:16	413696	5.0.10.0	5_exp_RW	99	Rpleas_acq	CS_B	GWWG	MQQM	BZZB	YDDY	JXXJ	VKKV	ehrlich	spielen	treu	schön	retten	fair	eitel	strafen	tot	schlecht	rächen	faul	1	acq_USunple_CSunple2_RW	acq4567_RW	4	43	400	0	300	300	257	50	0	0	1	blank2r.bmp	0	1	+	0	1	blank2r.bmp	492	1	YDDY	492	1	blank2r.bmp	572	2	rächen	866	1	!	-1	1	!	-1	0	0	0	0	0	0	0	0	0	0	0	0	0	0	0	0	0	0	0	0	0	0	0	0	0	0	0	0	0	0
081419	11:52:22	11:59:18	415922	5.0.10.0	5_exp_RW	99	Rpleas_acq	CS_B	GWWG	MQQM	BZZB	YDDY	JXXJ	VKKV	ehrlich	spielen	treu	schön	retten	fair	eitel	strafen	tot	schlecht	rächen	faul	1	acq_USpleas_CSpleas2_RW	acq4567_RW	4	44	400	1	300	300	409	46	0	0	1	blank2r.bmp	0	1	+	0	1	blank2r.bmp	492	1	MQQM	492	1	blank2r.bmp	572	3	fair	866	1	!	1239	1	!	1306	0	0	0	0	0	0	0	0	0	0	0	0	0	0	0	0	0	0	0	0	0	0	0	0	0	0	0	0	0	0
081419	11:52:22	11:59:21	418068	5.0.10.0	5_exp_RW	99	Rpleas_acq	CS_B	GWWG	MQQM	BZZB	YDDY	JXXJ	VKKV	ehrlich	spielen	treu	schön	retten	fair	eitel	strafen	tot	schlecht	rächen	faul	1	acq_USpleas_CSpleas2_RW	acq4567_RW	4	45	400	1	300	300	355	46	0	0	1	blank2r.bmp	0	1	+	0	1	blank2r.bmp	492	1	MQQM	492	1	blank2r.bmp	572	2	retten	866	1	!	1239	1	!	1252	0	0	0	0	0	0	0	0	0	0	0	0	0	0	0	0	0	0	0	0	0	0	0	0	0	0	0	0	0	0
081419	11:52:22	11:59:23	420227	5.0.10.0	5_exp_RW	99	Rpleas_acq	CS_B	GWWG	MQQM	BZZB	YDDY	JXXJ	VKKV	ehrlich	spielen	treu	schön	retten	fair	eitel	strafen	tot	schlecht	rächen	faul	1	acq_USunple_CSunple1_RW	acq4567_RW	4	46	400	1	300	300	360	46	0	1	1	blank2r.bmp	0	1	+	0	1	blank2r.bmp	492	1	BZZB	492	1	blank2r.bmp	572	3	tot	866	1	!	1239	1	!	1266	0	0	0	0	0	0	0	0	0	0	0	0	0	0	0	0	0	0	0	0	0	0	0	0	0	0	0	0	0	0
081419	11:52:22	11:59:25	422466	5.0.10.0	5_exp_RW	99	Rpleas_acq	CS_B	GWWG	MQQM	BZZB	YDDY	JXXJ	VKKV	ehrlich	spielen	treu	schön	retten	fair	eitel	strafen	tot	schlecht	rächen	faul	1	acq_USunple_CSunple2_RW	acq4567_RW	4	47	400	1	300	300	439	46	0	1	1	blank2r.bmp	0	1	+	0	1	blank2r.bmp	492	1	YDDY	492	1	blank2r.bmp	572	3	faul	866	1	!	1239	1	!	1346	0	0	0	0	0	0	0	0	0	0	0	0	0	0	0	0	0	0	0	0	0	0	0	0	0	0	0	0	0	0
081419	11:52:22	11:59:27	424639	5.0.10.0	5_exp_RW	99	Rpleas_acq	CS_B	GWWG	MQQM	BZZB	YDDY	JXXJ	VKKV	ehrlich	spielen	treu	schön	retten	fair	eitel	strafen	tot	schlecht	rächen	faul	1	acq_USunple_CSunple1_RW	acq4567_RW	4	48	400	1	300	300	381	46	0	1	1	blank2r.bmp	0	1	+	0	1	blank2r.bmp	492	1	BZZB	492	1	blank2r.bmp	572	2	strafen	866	1	!	1239	1	!	1279	0	0	0	0	0	0	0	0	0	0	0	0	0	0	0	0	0	0	0	0	0	0	0	0	0	0	0	0	0	0
081419	11:52:22	11:59:29	426811	5.0.10.0	5_exp_RW	99	Rpleas_acq	CS_B	GWWG	MQQM	BZZB	YDDY	JXXJ	VKKV	ehrlich	spielen	treu	schön	retten	fair	eitel	strafen	tot	schlecht	rächen	faul	1	acq_USunple_CSunple2_RW	acq4567_RW	4	49	400	1	300	300	374	46	0	1	1	blank2r.bmp	0	1	+	0	1	blank2r.bmp	492	1	YDDY	492	1	blank2r.bmp	572	1	schlecht	866	1	!	1239	1	!	1279	0	0	0	0	0	0	0	0	0	0	0	0	0	0	0	0	0	0	0	0	0	0	0	0	0	0	0	0	0	0
081419	11:52:22	11:59:31	428997	5.0.10.0	5_exp_RW	99	Rpleas_acq	CS_B	GWWG	MQQM	BZZB	YDDY	JXXJ	VKKV	ehrlich	spielen	treu	schön	retten	fair	eitel	strafen	tot	schlecht	rächen	faul	1	acq_USunple_CSunple1_RW	acq4567_RW	4	50	400	1	300	300	392	46	0	1	1	blank2r.bmp	0	1	+	0	1	blank2r.bmp	492	1	BZZB	492	1	blank2r.bmp	572	1	eitel	866	1	!	1239	1	!	1292	0	0	0	0	0	0	0	0	0	0	0	0	0	0	0	0	0	0	0	0	0	0	0	0	0	0	0	0	0	0
081419	11:52:22	11:59:34	431289	5.0.10.0	5_exp_RW	99	Rpleas_acq	CS_B	GWWG	MQQM	BZZB	YDDY	JXXJ	VKKV	ehrlich	spielen	treu	schön	retten	fair	eitel	strafen	tot	schlecht	rächen	faul	1	acq_USunple_CSunple2_RW	acq4567_RW	4	51	400	0	300	300	528	46	0	1	1	blank2r.bmp	0	1	+	0	1	blank2r.bmp	492	1	YDDY	492	1	blank2r.bmp	572	1	schlecht	866	1	!	1239	1	!	-1	0	0	0	0	0	0	0	0	0	0	0	0	0	0	0	0	0	0	0	0	0	0	0	0	0	0	0	0	0	0
081419	11:52:22	11:59:36	433355	5.0.10.0	5_exp_RW	99	Rpleas_acq	CS_B	GWWG	MQQM	BZZB	YDDY	JXXJ	VKKV	ehrlich	spielen	treu	schön	retten	fair	eitel	strafen	tot	schlecht	rächen	faul	1	acq_USpleas_CSpleas1_RW	acq4567_RW	4	52	400	0	300	300	286	46	0	0	1	blank2r.bmp	0	1	+	0	1	blank2r.bmp	492	1	GWWG	492	1	blank2r.bmp	572	1	ehrlich	866	1	!	-1	1	!	-1	0	0	0	0	0	0	0	0	0	0	0	0	0	0	0	0	0	0	0	0	0	0	0	0	0	0	0	0	0	0
081419	11:52:22	11:59:38	435607	5.0.10.0	5_exp_RW	99	Rpleas_acq	CS_B	GWWG	MQQM	BZZB	YDDY	JXXJ	VKKV	ehrlich	spielen	treu	schön	retten	fair	eitel	strafen	tot	schlecht	rächen	faul	1	acq_USunple_CSunple1_RW	acq4567_RW	4	53	400	1	300	300	441	46	0	1	1	blank2r.bmp	0	1	+	0	1	blank2r.bmp	492	1	BZZB	492	1	blank2r.bmp	572	2	strafen	866	1	!	1239	1	!	1346	0	0	0	0	0	0	0	0	0	0	0	0	0	0	0	0	0	0	0	0	0	0	0	0	0	0	0	0	0	0
081419	11:52:22	11:59:40	437873	5.0.10.0	5_exp_RW	99	Rpleas_acq	CS_B	GWWG	MQQM	BZZB	YDDY	JXXJ	VKKV	ehrlich	spielen	treu	schön	retten	fair	eitel	strafen	tot	schlecht	rächen	faul	1	acq_USpleas_CSpleas1_RW	acq4567_RW	4	54	400	0	300	300	492	50	0	1	1	blank2r.bmp	0	1	+	0	1	blank2r.bmp	492	1	GWWG	492	1	blank2r.bmp	572	3	treu	866	1	!	1239	1	!	-1	0	0	0	0	0	0	0	0	0	0	0	0	0	0	0	0	0	0	0	0	0	0	0	0	0	0	0	0	0	0
081419	11:52:22	11:59:42	440032	5.0.10.0	5_exp_RW	99	Rpleas_acq	CS_B	GWWG	MQQM	BZZB	YDDY	JXXJ	VKKV	ehrlich	spielen	treu	schön	retten	fair	eitel	strafen	tot	schlecht	rächen	faul	1	acq_USpleas_CSpleas2_RW	acq4567_RW	4	55	400	1	300	300	356	46	0	0	1	blank2r.bmp	0	1	+	0	1	blank2r.bmp	492	1	MQQM	492	1	blank2r.bmp	572	1	schön	866	1	!	1239	1	!	1252	0	0	0	0	0	0	0	0	0	0	0	0	0	0	0	0	0	0	0	0	0	0	0	0	0	0	0	0	0	0
081419	11:52:22	11:59:45	442271	5.0.10.0	5_exp_RW	99	Rpleas_acq	CS_B	GWWG	MQQM	BZZB	YDDY	JXXJ	VKKV	ehrlich	spielen	treu	schön	retten	fair	eitel	strafen	tot	schlecht	rächen	faul	1	acq_USpleas_CSpleas2_RW	acq4567_RW	4	56	400	1	300	300	442	46	0	0	1	blank2r.bmp	0	1	+	0	1	blank2r.bmp	492	1	MQQM	492	1	blank2r.bmp	572	3	fair	866	1	!	1239	1	!	1346	0	0	0	0	0	0	0	0	0	0	0	0	0	0	0	0	0	0	0	0	0	0	0	0	0	0	0	0	0	0
081419	11:52:22	11:59:47	444484	5.0.10.0	5_exp_RW	99	Rpleas_acq	CS_B	GWWG	MQQM	BZZB	YDDY	JXXJ	VKKV	ehrlich	spielen	treu	schön	retten	fair	eitel	strafen	tot	schlecht	rächen	faul	1	acq_USpleas_CSpleas1_RW	acq4567_RW	4	57	400	1	300	300	421	50	0	1	1	blank2r.bmp	0	1	+	0	1	blank2r.bmp	492	1	GWWG	492	1	blank2r.bmp	572	2	spielen	866	1	!	1239	1	!	1319	0	0	0	0	0	0	0	0	0	0	0	0	0	0	0	0	0	0	0	0	0	0	0	0	0	0	0	0	0	0
081419	11:52:22	11:59:49	446710	5.0.10.0	5_exp_RW	99	Rpleas_acq	CS_B	GWWG	MQQM	BZZB	YDDY	JXXJ	VKKV	ehrlich	spielen	treu	schön	retten	fair	eitel	strafen	tot	schlecht	rächen	faul	1	acq_USpleas_CSpleas2_RW	acq4567_RW	4	58	400	1	300	300	428	46	0	0	1	blank2r.bmp	0	1	+	0	1	blank2r.bmp	492	1	MQQM	492	1	blank2r.bmp	572	3	fair	866	1	!	1239	1	!	1332	0	0	0	0	0	0	0	0	0	0	0	0	0	0	0	0	0	0	0	0	0	0	0	0	0	0	0	0	0	0
081419	11:52:22	11:59:51	448882	5.0.10.0	5_exp_RW	99	Rpleas_acq	CS_B	GWWG	MQQM	BZZB	YDDY	JXXJ	VKKV	ehrlich	spielen	treu	schön	retten	fair	eitel	strafen	tot	schlecht	rächen	faul	1	acq_USpleas_CSpleas1_RW	acq4567_RW	4	59	400	1	300	300	373	50	0	1	1	blank2r.bmp	0	1	+	0	1	blank2r.bmp	492	1	GWWG	492	1	blank2r.bmp	572	1	ehrlich	866	1	!	1239	1	!	1279	0	0	0	0	0	0	0	0	0	0	0	0	0	0	0	0	0	0	0	0	0	0	0	0	0	0	0	0	0	0
081419	11:52:22	11:59:54	451054	5.0.10.0	5_exp_RW	99	Rpleas_acq	CS_B	GWWG	MQQM	BZZB	YDDY	JXXJ	VKKV	ehrlich	spielen	treu	schön	retten	fair	eitel	strafen	tot	schlecht	rächen	faul	1	acq_USpleas_CSpleas1_RW	acq4567_RW	4	60	400	1	300	300	384	50	0	1	1	blank2r.bmp	0	1	+	0	1	blank2r.bmp	492	1	GWWG	492	1	blank2r.bmp	572	1	ehrlich	866	1	!	1239	1	!	1279	0	0	0	0	0	0	0	0	0	0	0	0	0	0	0	0	0	0	0	0	0	0	0	0	0	0	0	0	0	0
081419	11:52:22	11:59:56	453254	5.0.10.0	5_exp_RW	99	Rpleas_acq	CS_B	GWWG	MQQM	BZZB	YDDY	JXXJ	VKKV	ehrlich	spielen	treu	schön	retten	fair	eitel	strafen	tot	schlecht	rächen	faul	1	acq_USpleas_CSpleas1_RW	acq4567_RW	4	61	400	1	300	300	399	50	0	1	1	blank2r.bmp	0	1	+	0	1	blank2r.bmp	492	1	GWWG	492	1	blank2r.bmp	572	3	treu	866	1	!	1239	1	!	1306	0	0	0	0	0	0	0	0	0	0	0	0	0	0	0	0	0	0	0	0	0	0	0	0	0	0	0	0	0	0
081419	11:52:22	11:59:58	455546	5.0.10.0	5_exp_RW	99	Rpleas_acq	CS_B	GWWG	MQQM	BZZB	YDDY	JXXJ	VKKV	ehrlich	spielen	treu	schön	retten	fair	eitel	strafen	tot	schlecht	rächen	faul	1	acq_USunple_CSunple1_RW	acq4567_RW	4	62	400	0	300	300	520	50	0	0	1	blank2r.bmp	0	1	+	0	1	blank2r.bmp	492	1	BZZB	492	1	blank2r.bmp	572	1	eitel	866	1	!	1239	1	!	-1	0	0	0	0	0	0	0	0	0	0	0	0	0	0	0	0	0	0	0	0	0	0	0	0	0	0	0	0	0	0
081419	11:52:22	12:00:00	457745	5.0.10.0	5_exp_RW	99	Rpleas_acq	CS_B	GWWG	MQQM	BZZB	YDDY	JXXJ	VKKV	ehrlich	spielen	treu	schön	retten	fair	eitel	strafen	tot	schlecht	rächen	faul	1	acq_USpleas_CSpleas2_RW	acq4567_RW	4	63	400	1	300	300	388	46	0	0	1	blank2r.bmp	0	1	+	0	1	blank2r.bmp	492	1	MQQM	492	1	blank2r.bmp	572	2	retten	866	1	!	1239	1	!	1292	0	0	0	0	0	0	0	0	0	0	0	0	0	0	0	0	0	0	0	0	0	0	0	0	0	0	0	0	0	0
081419	11:52:22	12:00:02	460011	5.0.10.0	5_exp_RW	99	Rpleas_acq	CS_B	GWWG	MQQM	BZZB	YDDY	JXXJ	VKKV	ehrlich	spielen	treu	schön	retten	fair	eitel	strafen	tot	schlecht	rächen	faul	1	acq_USpleas_CSpleas2_RW	acq4567_RW	4	64	400	0	300	300	496	50	0	1	1	blank2r.bmp	0	1	+	0	1	blank2r.bmp	492	1	MQQM	492	1	blank2r.bmp	572	1	schön	866	1	!	1239	1	!	-1	0	0	0	0	0	0	0	0	0	0	0	0	0	0	0	0	0	0	0	0	0	0	0	0	0	0	0	0	0	0
081419	11:52:22	12:00:05	462263	5.0.10.0	5_exp_RW	99	Rpleas_acq	CS_B	GWWG	MQQM	BZZB	YDDY	JXXJ	VKKV	ehrlich	spielen	treu	schön	retten	fair	eitel	strafen	tot	schlecht	rächen	faul	1	acq_USunple_CSunple2_RW	acq4567_RW	4	65	400	1	300	300	442	46	0	1	1	blank2r.bmp	0	1	+	0	1	blank2r.bmp	492	1	YDDY	492	1	blank2r.bmp	572	2	rächen	866	1	!	1239	1	!	1346	0	0	0	0	0	0	0	0	0	0	0	0	0	0	0	0	0	0	0	0	0	0	0	0	0	0	0	0	0	0
081419	11:52:22	12:00:07	464489	5.0.10.0	5_exp_RW	99	Rpleas_acq	CS_B	GWWG	MQQM	BZZB	YDDY	JXXJ	VKKV	ehrlich	spielen	treu	schön	retten	fair	eitel	strafen	tot	schlecht	rächen	faul	1	acq_USunple_CSunple2_RW	acq4567_RW	4	66	400	1	300	300	431	46	0	1	1	blank2r.bmp	0	1	+	0	1	blank2r.bmp	492	1	YDDY	492	1	blank2r.bmp	572	3	faul	866	1	!	1239	1	!	1332	0	0	0	0	0	0	0	0	0	0	0	0	0	0	0	0	0	0	0	0	0	0	0	0	0	0	0	0	0	0
081419	11:52:22	12:00:09	466595	5.0.10.0	5_exp_RW	99	Rpleas_acq	CS_B	GWWG	MQQM	BZZB	YDDY	JXXJ	VKKV	ehrlich	spielen	treu	schön	retten	fair	eitel	strafen	tot	schlecht	rächen	faul	1	acq_USunple_CSunple1_RW	acq4567_RW	4	67	400	0	300	300	329	46	0	1	1	blank2r.bmp	0	1	+	0	1	blank2r.bmp	492	1	BZZB	492	1	blank2r.bmp	572	3	tot	866	1	!	-1	1	!	-1	0	0	0	0	0	0	0	0	0	0	0	0	0	0	0	0	0	0	0	0	0	0	0	0	0	0	0	0	0	0
081419	11:52:22	12:00:11	468807	5.0.10.0	5_exp_RW	99	Rpleas_acq	CS_B	GWWG	MQQM	BZZB	YDDY	JXXJ	VKKV	ehrlich	spielen	treu	schön	retten	fair	eitel	strafen	tot	schlecht	rächen	faul	1	acq_USpleas_CSpleas1_RW	acq4567_RW	4	68	400	1	300	300	409	50	0	1	1	blank2r.bmp	0	1	+	0	1	blank2r.bmp	492	1	GWWG	492	1	blank2r.bmp	572	2	spielen	866	1	!	1239	1	!	1306	0	0	0	0	0	0	0	0	0	0	0	0	0	0	0	0	0	0	0	0	0	0	0	0	0	0	0	0	0	0
081419	11:52:22	12:00:14	471060	5.0.10.0	5_exp_RW	99	Rpleas_acq	CS_B	GWWG	MQQM	BZZB	YDDY	JXXJ	VKKV	ehrlich	spielen	treu	schön	retten	fair	eitel	strafen	tot	schlecht	rächen	faul	1	acq_USunple_CSunple2_RW	acq4567_RW	4	69	400	1	300	300	456	46	0	1	1	blank2r.bmp	0	1	+	0	1	blank2r.bmp	492	1	YDDY	492	1	blank2r.bmp	572	3	faul	866	1	!	1239	1	!	1359	0	0	0	0	0	0	0	0	0	0	0	0	0	0	0	0	0	0	0	0	0	0	0	0	0	0	0	0	0	0
081419	11:52:22	12:00:16	473285	5.0.10.0	5_exp_RW	99	Rpleas_acq	CS_B	GWWG	MQQM	BZZB	YDDY	JXXJ	VKKV	ehrlich	spielen	treu	schön	retten	fair	eitel	strafen	tot	schlecht	rächen	faul	1	acq_USunple_CSunple1_RW	acq4567_RW	4	70	400	1	300	300	438	46	0	1	1	blank2r.bmp	0	1	+	0	1	blank2r.bmp	492	1	BZZB	492	1	blank2r.bmp	572	2	strafen	866	1	!	1239	1	!	1332	0	0	0	0	0	0	0	0	0	0	0	0	0	0	0	0	0	0	0	0	0	0	0	0	0	0	0	0	0	0
081419	11:52:22	12:00:18	475404	5.0.10.0	5_exp_RW	99	Rpleas_acq	CS_B	GWWG	MQQM	BZZB	YDDY	JXXJ	VKKV	ehrlich	spielen	treu	schön	retten	fair	eitel	strafen	tot	schlecht	rächen	faul	1	acq_USunple_CSunple2_RW	acq4567_RW	4	71	400	0	300	300	333	46	0	1	1	blank2r.bmp	0	1	+	0	1	blank2r.bmp	492	1	YDDY	492	1	blank2r.bmp	572	2	rächen	866	1	!	-1	1	!	-1	0	0	0	0	0	0	0	0	0	0	0	0	0	0	0	0	0	0	0	0	0	0	0	0	0	0	0	0	0	0
081419	11:52:22	12:00:20	477657	5.0.10.0	5_exp_RW	99	Rpleas_acq	CS_B	GWWG	MQQM	BZZB	YDDY	JXXJ	VKKV	ehrlich	spielen	treu	schön	retten	fair	eitel	strafen	tot	schlecht	rächen	faul	1	acq_USpleas_CSpleas1_RW	acq4567_RW	4	72	400	1	300	300	448	50	0	1	1	blank2r.bmp	0	1	+	0	1	blank2r.bmp	492	1	GWWG	492	1	blank2r.bmp	572	2	spielen	866	1	!	1239	1	!	1346	0	0	0	0	0	0	0	0	0	0	0	0	0	0	0	0	0	0	0	0	0	0	0	0	0	0	0	0	0	0
081419	11:52:22	12:00:22	479909	5.0.10.0	5_exp_RW	99	Rpleas_acq	CS_B	GWWG	MQQM	BZZB	YDDY	JXXJ	VKKV	ehrlich	spielen	treu	schön	retten	fair	eitel	strafen	tot	schlecht	rächen	faul	1	acq_USpleas_CSpleas2_RW	acq4567_RW	4	73	400	0	300	300	488	50	0	1	1	blank2r.bmp	0	1	+	0	1	blank2r.bmp	492	1	MQQM	492	1	blank2r.bmp	572	3	fair	866	1	!	1239	1	!	-1	0	0	0	0	0	0	0	0	0	0	0	0	0	0	0	0	0	0	0	0	0	0	0	0	0	0	0	0	0	0
081419	11:52:22	12:00:25	482308	5.0.10.0	5_exp_RW	99	Rpleas_acq	CS_B	GWWG	MQQM	BZZB	YDDY	JXXJ	VKKV	ehrlich	spielen	treu	schön	retten	fair	eitel	strafen	tot	schlecht	rächen	faul	1	acq_USunple_CSunple1_RW	acq4567_RW	4	74	400	0	300	300	622	46	0	1	1	blank2r.bmp	0	1	+	0	1	blank2r.bmp	492	1	BZZB	492	1	blank2r.bmp	572	1	eitel	866	1	!	1239	1	!	-1	0	0	0	0	0	0	0	0	0	0	0	0	0	0	0	0	0	0	0	0	0	0	0	0	0	0	0	0	0	0
081419	11:52:22	12:00:27	484521	5.0.10.0	5_exp_RW	99	Rpleas_acq	CS_B	GWWG	MQQM	BZZB	YDDY	JXXJ	VKKV	ehrlich	spielen	treu	schön	retten	fair	eitel	strafen	tot	schlecht	rächen	faul	1	acq_USpleas_CSpleas2_RW	acq4567_RW	4	75	400	1	300	300	401	50	0	1	1	blank2r.bmp	0	1	+	0	1	blank2r.bmp	492	1	MQQM	492	1	blank2r.bmp	572	1	schön	866	1	!	1239	1	!	1306	0	0	0	0	0	0	0	0	0	0	0	0	0	0	0	0	0	0	0	0	0	0	0	0	0	0	0	0	0	0
081419	11:52:22	12:00:29	486720	5.0.10.0	5_exp_RW	99	Rpleas_acq	CS_B	GWWG	MQQM	BZZB	YDDY	JXXJ	VKKV	ehrlich	spielen	treu	schön	retten	fair	eitel	strafen	tot	schlecht	rächen	faul	1	acq_USunple_CSunple2_RW	acq4567_RW	4	76	400	1	300	300	409	46	0	1	1	blank2r.bmp	0	1	+	0	1	blank2r.bmp	492	1	YDDY	492	1	blank2r.bmp	572	1	schlecht	866	1	!	1239	1	!	1306	0	0	0	0	0	0	0	0	0	0	0	0	0	0	0	0	0	0	0	0	0	0	0	0	0	0	0	0	0	0
081419	11:52:22	12:00:31	488892	5.0.10.0	5_exp_RW	99	Rpleas_acq	CS_B	GWWG	MQQM	BZZB	YDDY	JXXJ	VKKV	ehrlich	spielen	treu	schön	retten	fair	eitel	strafen	tot	schlecht	rächen	faul	1	acq_USunple_CSunple1_RW	acq4567_RW	4	77	400	1	300	300	378	46	0	1	1	blank2r.bmp	0	1	+	0	1	blank2r.bmp	492	1	BZZB	492	1	blank2r.bmp	572	3	tot	866	1	!	1239	1	!	1279	0	0	0	0	0	0	0	0	0	0	0	0	0	0	0	0	0	0	0	0	0	0	0	0	0	0	0	0	0	0
081419	11:52:22	12:00:34	491158	5.0.10.0	5_exp_RW	99	Rpleas_acq	CS_B	GWWG	MQQM	BZZB	YDDY	JXXJ	VKKV	ehrlich	spielen	treu	schön	retten	fair	eitel	strafen	tot	schlecht	rächen	faul	1	acq_USpleas_CSpleas1_RW	acq4567_RW	4	78	400	0	300	300	499	50	0	1	1	blank2r.bmp	0	1	+	0	1	blank2r.bmp	492	1	GWWG	492	1	blank2r.bmp	572	3	treu	866	1	!	1239	1	!	-1	0	0	0	0	0	0	0	0	0	0	0	0	0	0	0	0	0	0	0	0	0	0	0	0	0	0	0	0	0	0
081419	11:52:22	12:00:36	493410	5.0.10.0	5_exp_RW	99	Rpleas_acq	CS_B	GWWG	MQQM	BZZB	YDDY	JXXJ	VKKV	ehrlich	spielen	treu	schön	retten	fair	eitel	strafen	tot	schlecht	rächen	faul	1	acq_USpleas_CSpleas2_RW	acq4567_RW	4	79	400	1	300	300	442	46	0	0	1	blank2r.bmp	0	1	+	0	1	blank2r.bmp	492	1	MQQM	492	1	blank2r.bmp	572	2	retten	866	1	!	1239	1	!	1346	0	0	0	0	0	0	0	0	0	0	0	0	0	0	0	0	0	0	0	0	0	0	0	0	0	0	0	0	0	0
081419	11:52:22	12:00:38	495689	5.0.10.0	5_exp_RW	99	Rpleas_acq	CS_B	GWWG	MQQM	BZZB	YDDY	JXXJ	VKKV	ehrlich	spielen	treu	schön	retten	fair	eitel	strafen	tot	schlecht	rächen	faul	1	acq_USpleas_CSpleas1_RW	acq4567_RW	4	80	400	0	300	300	498	50	0	1	1	blank2r.bmp	0	1	+	0	1	blank2r.bmp	492	1	GWWG	492	1	blank2r.bmp	572	1	ehrlich	866	1	!	1239	1	!	-1	0	0	0	0	0	0	0	0	0	0	0	0	0	0	0	0	0	0	0	0	0	0	0	0	0	0	0	0	0	0
081419	11:52:22	12:00:52	509217	5.0.10.0	5_exp_RW	99	Rpleas_acq	CS_B	GWWG	MQQM	BZZB	YDDY	JXXJ	VKKV	ehrlich	spielen	treu	schön	retten	fair	eitel	strafen	tot	schlecht	rächen	faul	1	acq_USunple_CSunple2_RW	acq4567_RW	5	1	400	1	300	300	395	46	0	1	1	blank2r.bmp	0	1	+	0	1	blank2r.bmp	492	1	YDDY	492	1	blank2r.bmp	572	3	faul	866	1	!	1239	1	!	1292	0	0	0	0	0	0	0	0	0	0	0	0	0	0	0	0	0	0	0	0	0	0	0	0	0	0	0	0	0	0
081419	11:52:22	12:00:54	511710	5.0.10.0	5_exp_RW	99	Rpleas_acq	CS_B	GWWG	MQQM	BZZB	YDDY	JXXJ	VKKV	ehrlich	spielen	treu	schön	retten	fair	eitel	strafen	tot	schlecht	rächen	faul	1	acq_USpleas_CSpleas2_RW	acq4567_RW	5	2	400	0	300	300	722	50	0	1	1	blank2r.bmp	0	1	+	0	1	blank2r.bmp	492	1	MQQM	492	1	blank2r.bmp	572	2	retten	866	1	!	1239	1	!	-1	0	0	0	0	0	0	0	0	0	0	0	0	0	0	0	0	0	0	0	0	0	0	0	0	0	0	0	0	0	0
081419	11:52:22	12:00:56	513922	5.0.10.0	5_exp_RW	99	Rpleas_acq	CS_B	GWWG	MQQM	BZZB	YDDY	JXXJ	VKKV	ehrlich	spielen	treu	schön	retten	fair	eitel	strafen	tot	schlecht	rächen	faul	1	acq_USunple_CSunple2_RW	acq4567_RW	5	3	400	1	300	300	408	46	0	1	1	blank2r.bmp	0	1	+	0	1	blank2r.bmp	492	1	YDDY	492	1	blank2r.bmp	572	2	rächen	866	1	!	1239	1	!	1306	0	0	0	0	0	0	0	0	0	0	0	0	0	0	0	0	0	0	0	0	0	0	0	0	0	0	0	0	0	0
081419	11:52:22	12:00:59	516094	5.0.10.0	5_exp_RW	99	Rpleas_acq	CS_B	GWWG	MQQM	BZZB	YDDY	JXXJ	VKKV	ehrlich	spielen	treu	schön	retten	fair	eitel	strafen	tot	schlecht	rächen	faul	1	acq_USunple_CSunple2_RW	acq4567_RW	5	4	400	1	300	300	380	50	0	0	1	blank2r.bmp	0	1	+	0	1	blank2r.bmp	492	1	YDDY	492	1	blank2r.bmp	572	1	schlecht	866	1	!	1239	1	!	1279	0	0	0	0	0	0	0	0	0	0	0	0	0	0	0	0	0	0	0	0	0	0	0	0	0	0	0	0	0	0
081419	11:52:22	12:01:01	518334	5.0.10.0	5_exp_RW	99	Rpleas_acq	CS_B	GWWG	MQQM	BZZB	YDDY	JXXJ	VKKV	ehrlich	spielen	treu	schön	retten	fair	eitel	strafen	tot	schlecht	rächen	faul	1	acq_USunple_CSunple1_RW	acq4567_RW	5	5	400	1	300	300	443	46	0	1	1	blank2r.bmp	0	1	+	0	1	blank2r.bmp	492	1	BZZB	492	1	blank2r.bmp	572	1	eitel	866	1	!	1239	1	!	1346	0	0	0	0	0	0	0	0	0	0	0	0	0	0	0	0	0	0	0	0	0	0	0	0	0	0	0	0	0	0
081419	11:52:22	12:01:03	520479	5.0.10.0	5_exp_RW	99	Rpleas_acq	CS_B	GWWG	MQQM	BZZB	YDDY	JXXJ	VKKV	ehrlich	spielen	treu	schön	retten	fair	eitel	strafen	tot	schlecht	rächen	faul	1	acq_USpleas_CSpleas1_RW	acq4567_RW	5	6	400	1	300	300	353	46	0	0	1	blank2r.bmp	0	1	+	0	1	blank2r.bmp	492	1	GWWG	492	1	blank2r.bmp	572	3	treu	866	1	!	1239	1	!	1252	0	0	0	0	0	0	0	0	0	0	0	0	0	0	0	0	0	0	0	0	0	0	0	0	0	0	0	0	0	0
081419	11:52:22	12:01:05	522732	5.0.10.0	5_exp_RW	99	Rpleas_acq	CS_B	GWWG	MQQM	BZZB	YDDY	JXXJ	VKKV	ehrlich	spielen	treu	schön	retten	fair	eitel	strafen	tot	schlecht	rächen	faul	1	acq_USpleas_CSpleas2_RW	acq4567_RW	5	7	400	0	300	300	479	50	0	1	1	blank2r.bmp	0	1	+	0	1	blank2r.bmp	492	1	MQQM	492	1	blank2r.bmp	572	3	fair	866	1	!	1239	1	!	-1	0	0	0	0	0	0	0	0	0	0	0	0	0	0	0	0	0	0	0	0	0	0	0	0	0	0	0	0	0	0
081419	11:52:22	12:01:07	524957	5.0.10.0	5_exp_RW	99	Rpleas_acq	CS_B	GWWG	MQQM	BZZB	YDDY	JXXJ	VKKV	ehrlich	spielen	treu	schön	retten	fair	eitel	strafen	tot	schlecht	rächen	faul	1	acq_USpleas_CSpleas1_RW	acq4567_RW	5	8	400	1	300	300	417	50	0	1	1	blank2r.bmp	0	1	+	0	1	blank2r.bmp	492	1	GWWG	492	1	blank2r.bmp	572	2	spielen	866	1	!	1239	1	!	1319	0	0	0	0	0	0	0	0	0	0	0	0	0	0	0	0	0	0	0	0	0	0	0	0	0	0	0	0	0	0
081419	11:52:22	12:01:09	527050	5.0.10.0	5_exp_RW	99	Rpleas_acq	CS_B	GWWG	MQQM	BZZB	YDDY	JXXJ	VKKV	ehrlich	spielen	treu	schön	retten	fair	eitel	strafen	tot	schlecht	rächen	faul	1	acq_USpleas_CSpleas1_RW	acq4567_RW	5	9	400	0	300	300	331	50	0	1	1	blank2r.bmp	0	1	+	0	1	blank2r.bmp	492	1	GWWG	492	1	blank2r.bmp	572	1	ehrlich	866	1	!	-1	1	!	-1	0	0	0	0	0	0	0	0	0	0	0	0	0	0	0	0	0	0	0	0	0	0	0	0	0	0	0	0	0	0
081419	11:52:22	12:01:12	529342	5.0.10.0	5_exp_RW	99	Rpleas_acq	CS_B	GWWG	MQQM	BZZB	YDDY	JXXJ	VKKV	ehrlich	spielen	treu	schön	retten	fair	eitel	strafen	tot	schlecht	rächen	faul	1	acq_USpleas_CSpleas2_RW	acq4567_RW	5	10	400	0	300	300	509	50	0	1	1	blank2r.bmp	0	1	+	0	1	blank2r.bmp	492	1	MQQM	492	1	blank2r.bmp	572	1	schön	866	1	!	1239	1	!	-1	0	0	0	0	0	0	0	0	0	0	0	0	0	0	0	0	0	0	0	0	0	0	0	0	0	0	0	0	0	0
081419	11:52:22	12:01:14	531555	5.0.10.0	5_exp_RW	99	Rpleas_acq	CS_B	GWWG	MQQM	BZZB	YDDY	JXXJ	VKKV	ehrlich	spielen	treu	schön	retten	fair	eitel	strafen	tot	schlecht	rächen	faul	1	acq_USpleas_CSpleas1_RW	acq4567_RW	5	11	400	1	300	300	405	50	0	1	1	blank2r.bmp	0	1	+	0	1	blank2r.bmp	492	1	GWWG	492	1	blank2r.bmp	572	2	spielen	866	1	!	1239	1	!	1306	0	0	0	0	0	0	0	0	0	0	0	0	0	0	0	0	0	0	0	0	0	0	0	0	0	0	0	0	0	0
081419	11:52:22	12:01:16	533714	5.0.10.0	5_exp_RW	99	Rpleas_acq	CS_B	GWWG	MQQM	BZZB	YDDY	JXXJ	VKKV	ehrlich	spielen	treu	schön	retten	fair	eitel	strafen	tot	schlecht	rächen	faul	1	acq_USunple_CSunple1_RW	acq4567_RW	5	12	400	1	300	300	370	46	0	1	1	blank2r.bmp	0	1	+	0	1	blank2r.bmp	492	1	BZZB	492	1	blank2r.bmp	572	3	tot	866	1	!	1239	1	!	1266	0	0	0	0	0	0	0	0	0	0	0	0	0	0	0	0	0	0	0	0	0	0	0	0	0	0	0	0	0	0
081419	11:52:22	12:01:18	535940	5.0.10.0	5_exp_RW	99	Rpleas_acq	CS_B	GWWG	MQQM	BZZB	YDDY	JXXJ	VKKV	ehrlich	spielen	treu	schön	retten	fair	eitel	strafen	tot	schlecht	rächen	faul	1	acq_USpleas_CSpleas2_RW	acq4567_RW	5	13	400	1	300	300	437	46	0	0	1	blank2r.bmp	0	1	+	0	1	blank2r.bmp	492	1	MQQM	492	1	blank2r.bmp	572	2	retten	866	1	!	1239	1	!	1332	0	0	0	0	0	0	0	0	0	0	0	0	0	0	0	0	0	0	0	0	0	0	0	0	0	0	0	0	0	0
081419	11:52:22	12:01:21	538139	5.0.10.0	5_exp_RW	99	Rpleas_acq	CS_B	GWWG	MQQM	BZZB	YDDY	JXXJ	VKKV	ehrlich	spielen	treu	schön	retten	fair	eitel	strafen	tot	schlecht	rächen	faul	1	acq_USunple_CSunple1_RW	acq4567_RW	5	14	400	1	300	300	412	46	0	1	1	blank2r.bmp	0	1	+	0	1	blank2r.bmp	492	1	BZZB	492	1	blank2r.bmp	572	2	strafen	866	1	!	1239	1	!	1306	0	0	0	0	0	0	0	0	0	0	0	0	0	0	0	0	0	0	0	0	0	0	0	0	0	0	0	0	0	0
081419	11:52:22	12:01:23	540365	5.0.10.0	5_exp_RW	99	Rpleas_acq	CS_B	GWWG	MQQM	BZZB	YDDY	JXXJ	VKKV	ehrlich	spielen	treu	schön	retten	fair	eitel	strafen	tot	schlecht	rächen	faul	1	acq_USunple_CSunple2_RW	acq4567_RW	5	15	400	1	300	300	426	46	0	1	1	blank2r.bmp	0	1	+	0	1	blank2r.bmp	492	1	YDDY	492	1	blank2r.bmp	572	2	rächen	866	1	!	1239	1	!	1332	0	0	0	0	0	0	0	0	0	0	0	0	0	0	0	0	0	0	0	0	0	0	0	0	0	0	0	0	0	0
081419	11:52:22	12:01:25	542550	5.0.10.0	5_exp_RW	99	Rpleas_acq	CS_B	GWWG	MQQM	BZZB	YDDY	JXXJ	VKKV	ehrlich	spielen	treu	schön	retten	fair	eitel	strafen	tot	schlecht	rächen	faul	1	acq_USpleas_CSpleas2_RW	acq4567_RW	5	16	400	1	300	300	388	50	0	1	1	blank2r.bmp	0	1	+	0	1	blank2r.bmp	492	1	MQQM	492	1	blank2r.bmp	572	1	schön	866	1	!	1239	1	!	1292	0	0	0	0	0	0	0	0	0	0	0	0	0	0	0	0	0	0	0	0	0	0	0	0	0	0	0	0	0	0
081419	11:52:22	12:01:27	544763	5.0.10.0	5_exp_RW	99	Rpleas_acq	CS_B	GWWG	MQQM	BZZB	YDDY	JXXJ	VKKV	ehrlich	spielen	treu	schön	retten	fair	eitel	strafen	tot	schlecht	rächen	faul	1	acq_USunple_CSunple2_RW	acq4567_RW	5	17	400	1	300	300	404	46	0	1	1	blank2r.bmp	0	1	+	0	1	blank2r.bmp	492	1	YDDY	492	1	blank2r.bmp	572	1	schlecht	866	1	!	1239	1	!	1306	0	0	0	0	0	0	0	0	0	0	0	0	0	0	0	0	0	0	0	0	0	0	0	0	0	0	0	0	0	0
081419	11:52:22	12:01:29	546948	5.0.10.0	5_exp_RW	99	Rpleas_acq	CS_B	GWWG	MQQM	BZZB	YDDY	JXXJ	VKKV	ehrlich	spielen	treu	schön	retten	fair	eitel	strafen	tot	schlecht	rächen	faul	1	acq_USunple_CSunple1_RW	acq4567_RW	5	18	400	1	300	300	392	46	0	1	1	blank2r.bmp	0	1	+	0	1	blank2r.bmp	492	1	BZZB	492	1	blank2r.bmp	572	2	strafen	866	1	!	1239	1	!	1292	0	0	0	0	0	0	0	0	0	0	0	0	0	0	0	0	0	0	0	0	0	0	0	0	0	0	0	0	0	0
081419	11:52:22	12:01:32	549134	5.0.10.0	5_exp_RW	99	Rpleas_acq	CS_B	GWWG	MQQM	BZZB	YDDY	JXXJ	VKKV	ehrlich	spielen	treu	schön	retten	fair	eitel	strafen	tot	schlecht	rächen	faul	1	acq_USpleas_CSpleas1_RW	acq4567_RW	5	19	400	1	300	300	378	50	0	1	1	blank2r.bmp	0	1	+	0	1	blank2r.bmp	492	1	GWWG	492	1	blank2r.bmp	572	3	treu	866	1	!	1239	1	!	1279	0	0	0	0	0	0	0	0	0	0	0	0	0	0	0	0	0	0	0	0	0	0	0	0	0	0	0	0	0	0
081419	11:52:22	12:01:34	551227	5.0.10.0	5_exp_RW	99	Rpleas_acq	CS_B	GWWG	MQQM	BZZB	YDDY	JXXJ	VKKV	ehrlich	spielen	treu	schön	retten	fair	eitel	strafen	tot	schlecht	rächen	faul	1	acq_USunple_CSunple1_RW	acq4567_RW	5	20	400	0	300	300	308	50	0	0	1	blank2r.bmp	0	1	+	0	1	blank2r.bmp	492	1	BZZB	492	1	blank2r.bmp	572	3	tot	866	1	!	-1	1	!	-1	0	0	0	0	0	0	0	0	0	0	0	0	0	0	0	0	0	0	0	0	0	0	0	0	0	0	0	0	0	0
081419	11:52:22	12:01:36	553506	5.0.10.0	5_exp_RW	99	Rpleas_acq	CS_B	GWWG	MQQM	BZZB	YDDY	JXXJ	VKKV	ehrlich	spielen	treu	schön	retten	fair	eitel	strafen	tot	schlecht	rächen	faul	1	acq_USunple_CSunple1_RW	acq4567_RW	5	21	400	1	300	300	457	46	0	1	1	blank2r.bmp	0	1	+	0	1	blank2r.bmp	492	1	BZZB	492	1	blank2r.bmp	572	1	eitel	866	1	!	1239	1	!	1359	0	0	0	0	0	0	0	0	0	0	0	0	0	0	0	0	0	0	0	0	0	0	0	0	0	0	0	0	0	0
081419	11:52:22	12:01:38	555665	5.0.10.0	5_exp_RW	99	Rpleas_acq	CS_B	GWWG	MQQM	BZZB	YDDY	JXXJ	VKKV	ehrlich	spielen	treu	schön	retten	fair	eitel	strafen	tot	schlecht	rächen	faul	1	acq_USunple_CSunple1_RW	acq4567_RW	5	22	400	1	300	300	370	46	0	1	1	blank2r.bmp	0	1	+	0	1	blank2r.bmp	492	1	BZZB	492	1	blank2r.bmp	572	3	tot	866	1	!	1239	1	!	1266	0	0	0	0	0	0	0	0	0	0	0	0	0	0	0	0	0	0	0	0	0	0	0	0	0	0	0	0	0	0
081419	11:52:22	12:01:40	557917	5.0.10.0	5_exp_RW	99	Rpleas_acq	CS_B	GWWG	MQQM	BZZB	YDDY	JXXJ	VKKV	ehrlich	spielen	treu	schön	retten	fair	eitel	strafen	tot	schlecht	rächen	faul	1	acq_USunple_CSunple1_RW	acq4567_RW	5	23	400	1	300	300	464	46	0	1	1	blank2r.bmp	0	1	+	0	1	blank2r.bmp	492	1	BZZB	492	1	blank2r.bmp	572	1	eitel	866	1	!	1239	1	!	1359	0	0	0	0	0	0	0	0	0	0	0	0	0	0	0	0	0	0	0	0	0	0	0	0	0	0	0	0	0	0
081419	11:52:22	12:01:43	560143	5.0.10.0	5_exp_RW	99	Rpleas_acq	CS_B	GWWG	MQQM	BZZB	YDDY	JXXJ	VKKV	ehrlich	spielen	treu	schön	retten	fair	eitel	strafen	tot	schlecht	rächen	faul	1	acq_USpleas_CSpleas2_RW	acq4567_RW	5	24	400	1	300	300	419	50	0	1	1	blank2r.bmp	0	1	+	0	1	blank2r.bmp	492	1	MQQM	492	1	blank2r.bmp	572	3	fair	866	1	!	1239	1	!	1319	0	0	0	0	0	0	0	0	0	0	0	0	0	0	0	0	0	0	0	0	0	0	0	0	0	0	0	0	0	0
081419	11:52:22	12:01:45	562302	5.0.10.0	5_exp_RW	99	Rpleas_acq	CS_B	GWWG	MQQM	BZZB	YDDY	JXXJ	VKKV	ehrlich	spielen	treu	schön	retten	fair	eitel	strafen	tot	schlecht	rächen	faul	1	acq_USpleas_CSpleas2_RW	acq4567_RW	5	25	400	1	300	300	362	50	0	1	1	blank2r.bmp	0	1	+	0	1	blank2r.bmp	492	1	MQQM	492	1	blank2r.bmp	572	1	schön	866	1	!	1239	1	!	1266	0	0	0	0	0	0	0	0	0	0	0	0	0	0	0	0	0	0	0	0	0	0	0	0	0	0	0	0	0	0
081419	11:52:22	12:01:47	564475	5.0.10.0	5_exp_RW	99	Rpleas_acq	CS_B	GWWG	MQQM	BZZB	YDDY	JXXJ	VKKV	ehrlich	spielen	treu	schön	retten	fair	eitel	strafen	tot	schlecht	rächen	faul	1	acq_USpleas_CSpleas1_RW	acq4567_RW	5	26	400	1	300	300	385	50	0	1	1	blank2r.bmp	0	1	+	0	1	blank2r.bmp	492	1	GWWG	492	1	blank2r.bmp	572	1	ehrlich	866	1	!	1239	1	!	1279	0	0	0	0	0	0	0	0	0	0	0	0	0	0	0	0	0	0	0	0	0	0	0	0	0	0	0	0	0	0
081419	11:52:22	12:01:49	566700	5.0.10.0	5_exp_RW	99	Rpleas_acq	CS_B	GWWG	MQQM	BZZB	YDDY	JXXJ	VKKV	ehrlich	spielen	treu	schön	retten	fair	eitel	strafen	tot	schlecht	rächen	faul	1	acq_USunple_CSunple1_RW	acq4567_RW	5	27	400	1	300	300	425	46	0	1	1	blank2r.bmp	0	1	+	0	1	blank2r.bmp	492	1	BZZB	492	1	blank2r.bmp	572	2	strafen	866	1	!	1239	1	!	1332	0	0	0	0	0	0	0	0	0	0	0	0	0	0	0	0	0	0	0	0	0	0	0	0	0	0	0	0	0	0
081419	11:52:22	12:01:51	569019	5.0.10.0	5_exp_RW	99	Rpleas_acq	CS_B	GWWG	MQQM	BZZB	YDDY	JXXJ	VKKV	ehrlich	spielen	treu	schön	retten	fair	eitel	strafen	tot	schlecht	rächen	faul	1	acq_USunple_CSunple2_RW	acq4567_RW	5	28	400	0	300	300	547	46	0	1	1	blank2r.bmp	0	1	+	0	1	blank2r.bmp	492	1	YDDY	492	1	blank2r.bmp	572	3	faul	866	1	!	1239	1	!	-1	0	0	0	0	0	0	0	0	0	0	0	0	0	0	0	0	0	0	0	0	0	0	0	0	0	0	0	0	0	0
081419	11:52:22	12:01:54	571112	5.0.10.0	5_exp_RW	99	Rpleas_acq	CS_B	GWWG	MQQM	BZZB	YDDY	JXXJ	VKKV	ehrlich	spielen	treu	schön	retten	fair	eitel	strafen	tot	schlecht	rächen	faul	1	acq_USpleas_CSpleas1_RW	acq4567_RW	5	29	400	0	300	300	317	46	0	0	1	blank2r.bmp	0	1	+	0	1	blank2r.bmp	492	1	GWWG	492	1	blank2r.bmp	572	3	treu	866	1	!	-1	1	!	-1	0	0	0	0	0	0	0	0	0	0	0	0	0	0	0	0	0	0	0	0	0	0	0	0	0	0	0	0	0	0
081419	11:52:22	12:01:56	573391	5.0.10.0	5_exp_RW	99	Rpleas_acq	CS_B	GWWG	MQQM	BZZB	YDDY	JXXJ	VKKV	ehrlich	spielen	treu	schön	retten	fair	eitel	strafen	tot	schlecht	rächen	faul	1	acq_USpleas_CSpleas2_RW	acq4567_RW	5	30	400	0	300	300	492	50	0	1	1	blank2r.bmp	0	1	+	0	1	blank2r.bmp	492	1	MQQM	492	1	blank2r.bmp	572	3	fair	866	1	!	1239	1	!	-1	0	0	0	0	0	0	0	0	0	0	0	0	0	0	0	0	0	0	0	0	0	0	0	0	0	0	0	0	0	0
081419	11:52:22	12:01:58	575630	5.0.10.0	5_exp_RW	99	Rpleas_acq	CS_B	GWWG	MQQM	BZZB	YDDY	JXXJ	VKKV	ehrlich	spielen	treu	schön	retten	fair	eitel	strafen	tot	schlecht	rächen	faul	1	acq_USunple_CSunple2_RW	acq4567_RW	5	31	400	1	300	300	434	46	0	1	1	blank2r.bmp	0	1	+	0	1	blank2r.bmp	492	1	YDDY	492	1	blank2r.bmp	572	3	faul	866	1	!	1239	1	!	1332	0	0	0	0	0	0	0	0	0	0	0	0	0	0	0	0	0	0	0	0	0	0	0	0	0	0	0	0	0	0
081419	11:52:22	12:02:00	577776	5.0.10.0	5_exp_RW	99	Rpleas_acq	CS_B	GWWG	MQQM	BZZB	YDDY	JXXJ	VKKV	ehrlich	spielen	treu	schön	retten	fair	eitel	strafen	tot	schlecht	rächen	faul	1	acq_USpleas_CSpleas1_RW	acq4567_RW	5	32	400	1	300	300	346	46	0	0	1	blank2r.bmp	0	1	+	0	1	blank2r.bmp	492	1	GWWG	492	1	blank2r.bmp	572	2	spielen	866	1	!	1239	1	!	1252	0	0	0	0	0	0	0	0	0	0	0	0	0	0	0	0	0	0	0	0	0	0	0	0	0	0	0	0	0	0
081419	11:52:22	12:02:02	579988	5.0.10.0	5_exp_RW	99	Rpleas_acq	CS_B	GWWG	MQQM	BZZB	YDDY	JXXJ	VKKV	ehrlich	spielen	treu	schön	retten	fair	eitel	strafen	tot	schlecht	rächen	faul	1	acq_USpleas_CSpleas2_RW	acq4567_RW	5	33	400	1	300	300	408	46	0	0	1	blank2r.bmp	0	1	+	0	1	blank2r.bmp	492	1	MQQM	492	1	blank2r.bmp	572	2	retten	866	1	!	1239	1	!	1306	0	0	0	0	0	0	0	0	0	0	0	0	0	0	0	0	0	0	0	0	0	0	0	0	0	0	0	0	0	0
081419	11:52:22	12:02:05	582347	5.0.10.0	5_exp_RW	99	Rpleas_acq	CS_B	GWWG	MQQM	BZZB	YDDY	JXXJ	VKKV	ehrlich	spielen	treu	schön	retten	fair	eitel	strafen	tot	schlecht	rächen	faul	1	acq_USunple_CSunple2_RW	acq4567_RW	5	34	400	0	300	300	586	46	0	1	1	blank2r.bmp	0	1	+	0	1	blank2r.bmp	492	1	YDDY	492	1	blank2r.bmp	572	2	rächen	866	1	!	1239	1	!	-1	0	0	0	0	0	0	0	0	0	0	0	0	0	0	0	0	0	0	0	0	0	0	0	0	0	0	0	0	0	0
081419	11:52:22	12:02:07	584613	5.0.10.0	5_exp_RW	99	Rpleas_acq	CS_B	GWWG	MQQM	BZZB	YDDY	JXXJ	VKKV	ehrlich	spielen	treu	schön	retten	fair	eitel	strafen	tot	schlecht	rächen	faul	1	acq_USunple_CSunple2_RW	acq4567_RW	5	35	400	1	300	300	445	46	0	1	1	blank2r.bmp	0	1	+	0	1	blank2r.bmp	492	1	YDDY	492	1	blank2r.bmp	572	1	schlecht	866	1	!	1239	1	!	1346	0	0	0	0	0	0	0	0	0	0	0	0	0	0	0	0	0	0	0	0	0	0	0	0	0	0	0	0	0	0
081419	11:52:22	12:02:09	586785	5.0.10.0	5_exp_RW	99	Rpleas_acq	CS_B	GWWG	MQQM	BZZB	YDDY	JXXJ	VKKV	ehrlich	spielen	treu	schön	retten	fair	eitel	strafen	tot	schlecht	rächen	faul	1	acq_USunple_CSunple1_RW	acq4567_RW	5	36	400	1	300	300	376	46	0	1	1	blank2r.bmp	0	1	+	0	1	blank2r.bmp	492	1	BZZB	492	1	blank2r.bmp	572	3	tot	866	1	!	1239	1	!	1279	0	0	0	0	0	0	0	0	0	0	0	0	0	0	0	0	0	0	0	0	0	0	0	0	0	0	0	0	0	0
081419	11:52:22	12:02:11	589038	5.0.10.0	5_exp_RW	99	Rpleas_acq	CS_B	GWWG	MQQM	BZZB	YDDY	JXXJ	VKKV	ehrlich	spielen	treu	schön	retten	fair	eitel	strafen	tot	schlecht	rächen	faul	1	acq_USpleas_CSpleas2_RW	acq4567_RW	5	37	400	1	300	300	456	46	0	0	1	blank2r.bmp	0	1	+	0	1	blank2r.bmp	492	1	MQQM	492	1	blank2r.bmp	572	2	retten	866	1	!	1239	1	!	1359	0	0	0	0	0	0	0	0	0	0	0	0	0	0	0	0	0	0	0	0	0	0	0	0	0	0	0	0	0	0
081419	11:52:22	12:02:14	591304	5.0.10.0	5_exp_RW	99	Rpleas_acq	CS_B	GWWG	MQQM	BZZB	YDDY	JXXJ	VKKV	ehrlich	spielen	treu	schön	retten	fair	eitel	strafen	tot	schlecht	rächen	faul	1	acq_USunple_CSunple2_RW	acq4567_RW	5	38	400	0	300	300	488	46	0	1	1	blank2r.bmp	0	1	+	0	1	blank2r.bmp	492	1	YDDY	492	1	blank2r.bmp	572	1	schlecht	866	1	!	1239	1	!	-1	0	0	0	0	0	0	0	0	0	0	0	0	0	0	0	0	0	0	0	0	0	0	0	0	0	0	0	0	0	0
081419	11:52:22	12:02:16	593396	5.0.10.0	5_exp_RW	99	Rpleas_acq	CS_B	GWWG	MQQM	BZZB	YDDY	JXXJ	VKKV	ehrlich	spielen	treu	schön	retten	fair	eitel	strafen	tot	schlecht	rächen	faul	1	acq_USpleas_CSpleas1_RW	acq4567_RW	5	39	400	0	300	300	313	50	0	1	1	blank2r.bmp	0	1	+	0	1	blank2r.bmp	492	1	GWWG	492	1	blank2r.bmp	572	1	ehrlich	866	1	!	-1	1	!	-1	0	0	0	0	0	0	0	0	0	0	0	0	0	0	0	0	0	0	0	0	0	0	0	0	0	0	0	0	0	0
081419	11:52:22	12:02:18	595502	5.0.10.0	5_exp_RW	99	Rpleas_acq	CS_B	GWWG	MQQM	BZZB	YDDY	JXXJ	VKKV	ehrlich	spielen	treu	schön	retten	fair	eitel	strafen	tot	schlecht	rächen	faul	1	acq_USpleas_CSpleas1_RW	acq4567_RW	5	40	400	0	300	300	328	46	0	0	1	blank2r.bmp	0	1	+	0	1	blank2r.bmp	492	1	GWWG	492	1	blank2r.bmp	572	3	treu	866	1	!	-1	1	!	-1	0	0	0	0	0	0	0	0	0	0	0	0	0	0	0	0	0	0	0	0	0	0	0	0	0	0	0	0	0	0
081419	11:52:22	12:02:20	597768	5.0.10.0	5_exp_RW	99	Rpleas_acq	CS_B	GWWG	MQQM	BZZB	YDDY	JXXJ	VKKV	ehrlich	spielen	treu	schön	retten	fair	eitel	strafen	tot	schlecht	rächen	faul	1	acq_USpleas_CSpleas1_RW	acq4567_RW	5	41	400	1	300	300	457	50	0	1	1	blank2r.bmp	0	1	+	0	1	blank2r.bmp	492	1	GWWG	492	1	blank2r.bmp	572	1	ehrlich	866	1	!	1239	1	!	1359	0	0	0	0	0	0	0	0	0	0	0	0	0	0	0	0	0	0	0	0	0	0	0	0	0	0	0	0	0	0
081419	11:52:22	12:02:22	599913	5.0.10.0	5_exp_RW	99	Rpleas_acq	CS_B	GWWG	MQQM	BZZB	YDDY	JXXJ	VKKV	ehrlich	spielen	treu	schön	retten	fair	eitel	strafen	tot	schlecht	rächen	faul	1	acq_USpleas_CSpleas1_RW	acq4567_RW	5	42	400	1	300	300	354	50	0	1	1	blank2r.bmp	0	1	+	0	1	blank2r.bmp	492	1	GWWG	492	1	blank2r.bmp	572	2	spielen	866	1	!	1239	1	!	1252	0	0	0	0	0	0	0	0	0	0	0	0	0	0	0	0	0	0	0	0	0	0	0	0	0	0	0	0	0	0
081419	11:52:22	12:02:25	602299	5.0.10.0	5_exp_RW	99	Rpleas_acq	CS_B	GWWG	MQQM	BZZB	YDDY	JXXJ	VKKV	ehrlich	spielen	treu	schön	retten	fair	eitel	strafen	tot	schlecht	rächen	faul	1	acq_USunple_CSunple1_RW	acq4567_RW	5	43	400	0	300	300	613	46	0	1	1	blank2r.bmp	0	1	+	0	1	blank2r.bmp	492	1	BZZB	492	1	blank2r.bmp	572	1	eitel	866	1	!	1239	1	!	-1	0	0	0	0	0	0	0	0	0	0	0	0	0	0	0	0	0	0	0	0	0	0	0	0	0	0	0	0	0	0
081419	11:52:22	12:02:27	604512	5.0.10.0	5_exp_RW	99	Rpleas_acq	CS_B	GWWG	MQQM	BZZB	YDDY	JXXJ	VKKV	ehrlich	spielen	treu	schön	retten	fair	eitel	strafen	tot	schlecht	rächen	faul	1	acq_USunple_CSunple2_RW	acq4567_RW	5	44	400	1	300	300	397	46	0	1	1	blank2r.bmp	0	1	+	0	1	blank2r.bmp	492	1	YDDY	492	1	blank2r.bmp	572	2	rächen	866	1	!	1239	1	!	1292	0	0	0	0	0	0	0	0	0	0	0	0	0	0	0	0	0	0	0	0	0	0	0	0	0	0	0	0	0	0
081419	11:52:22	12:02:29	606684	5.0.10.0	5_exp_RW	99	Rpleas_acq	CS_B	GWWG	MQQM	BZZB	YDDY	JXXJ	VKKV	ehrlich	spielen	treu	schön	retten	fair	eitel	strafen	tot	schlecht	rächen	faul	1	acq_USpleas_CSpleas1_RW	acq4567_RW	5	45	400	1	300	300	375	46	0	0	1	blank2r.bmp	0	1	+	0	1	blank2r.bmp	492	1	GWWG	492	1	blank2r.bmp	572	3	treu	866	1	!	1239	1	!	1279	0	0	0	0	0	0	0	0	0	0	0	0	0	0	0	0	0	0	0	0	0	0	0	0	0	0	0	0	0	0
081419	11:52:22	12:02:31	608830	5.0.10.0	5_exp_RW	99	Rpleas_acq	CS_B	GWWG	MQQM	BZZB	YDDY	JXXJ	VKKV	ehrlich	spielen	treu	schön	retten	fair	eitel	strafen	tot	schlecht	rächen	faul	1	acq_USpleas_CSpleas2_RW	acq4567_RW	5	46	400	1	300	300	356	50	0	1	1	blank2r.bmp	0	1	+	0	1	blank2r.bmp	492	1	MQQM	492	1	blank2r.bmp	572	1	schön	866	1	!	1239	1	!	1252	0	0	0	0	0	0	0	0	0	0	0	0	0	0	0	0	0	0	0	0	0	0	0	0	0	0	0	0	0	0
081419	11:52:22	12:02:34	611056	5.0.10.0	5_exp_RW	99	Rpleas_acq	CS_B	GWWG	MQQM	BZZB	YDDY	JXXJ	VKKV	ehrlich	spielen	treu	schön	retten	fair	eitel	strafen	tot	schlecht	rächen	faul	1	acq_USunple_CSunple1_RW	acq4567_RW	5	47	400	1	300	300	430	46	0	1	1	blank2r.bmp	0	1	+	0	1	blank2r.bmp	492	1	BZZB	492	1	blank2r.bmp	572	2	strafen	866	1	!	1239	1	!	1332	0	0	0	0	0	0	0	0	0	0	0	0	0	0	0	0	0	0	0	0	0	0	0	0	0	0	0	0	0	0
081419	11:52:22	12:02:36	613281	5.0.10.0	5_exp_RW	99	Rpleas_acq	CS_B	GWWG	MQQM	BZZB	YDDY	JXXJ	VKKV	ehrlich	spielen	treu	schön	retten	fair	eitel	strafen	tot	schlecht	rächen	faul	1	acq_USunple_CSunple2_RW	acq4567_RW	5	48	400	1	300	300	427	46	0	1	1	blank2r.bmp	0	1	+	0	1	blank2r.bmp	492	1	YDDY	492	1	blank2r.bmp	572	3	faul	866	1	!	1239	1	!	1332	0	0	0	0	0	0	0	0	0	0	0	0	0	0	0	0	0	0	0	0	0	0	0	0	0	0	0	0	0	0
081419	11:52:22	12:02:38	615547	5.0.10.0	5_exp_RW	99	Rpleas_acq	CS_B	GWWG	MQQM	BZZB	YDDY	JXXJ	VKKV	ehrlich	spielen	treu	schön	retten	fair	eitel	strafen	tot	schlecht	rächen	faul	1	acq_USpleas_CSpleas2_RW	acq4567_RW	5	49	400	0	300	300	483	50	0	1	1	blank2r.bmp	0	1	+	0	1	blank2r.bmp	492	1	MQQM	492	1	blank2r.bmp	572	3	fair	866	1	!	1239	1	!	-1	0	0	0	0	0	0	0	0	0	0	0	0	0	0	0	0	0	0	0	0	0	0	0	0	0	0	0	0	0	0
081419	11:52:22	12:02:40	617706	5.0.10.0	5_exp_RW	99	Rpleas_acq	CS_B	GWWG	MQQM	BZZB	YDDY	JXXJ	VKKV	ehrlich	spielen	treu	schön	retten	fair	eitel	strafen	tot	schlecht	rächen	faul	1	acq_USpleas_CSpleas2_RW	acq4567_RW	5	50	400	1	300	300	350	46	0	0	1	blank2r.bmp	0	1	+	0	1	blank2r.bmp	492	1	MQQM	492	1	blank2r.bmp	572	2	retten	866	1	!	1239	1	!	1252	0	0	0	0	0	0	0	0	0	0	0	0	0	0	0	0	0	0	0	0	0	0	0	0	0	0	0	0	0	0
081419	11:52:22	12:02:42	619879	5.0.10.0	5_exp_RW	99	Rpleas_acq	CS_B	GWWG	MQQM	BZZB	YDDY	JXXJ	VKKV	ehrlich	spielen	treu	schön	retten	fair	eitel	strafen	tot	schlecht	rächen	faul	1	acq_USunple_CSunple2_RW	acq4567_RW	5	51	400	1	300	300	378	50	0	0	1	blank2r.bmp	0	1	+	0	1	blank2r.bmp	492	1	YDDY	492	1	blank2r.bmp	572	2	rächen	866	1	!	1239	1	!	1279	0	0	0	0	0	0	0	0	0	0	0	0	0	0	0	0	0	0	0	0	0	0	0	0	0	0	0	0	0	0
081419	11:52:22	12:02:45	622104	5.0.10.0	5_exp_RW	99	Rpleas_acq	CS_B	GWWG	MQQM	BZZB	YDDY	JXXJ	VKKV	ehrlich	spielen	treu	schön	retten	fair	eitel	strafen	tot	schlecht	rächen	faul	1	acq_USpleas_CSpleas2_RW	acq4567_RW	5	52	400	1	300	300	423	50	0	1	1	blank2r.bmp	0	1	+	0	1	blank2r.bmp	492	1	MQQM	492	1	blank2r.bmp	572	3	fair	866	1	!	1239	1	!	1319	0	0	0	0	0	0	0	0	0	0	0	0	0	0	0	0	0	0	0	0	0	0	0	0	0	0	0	0	0	0
081419	11:52:22	12:02:47	624250	5.0.10.0	5_exp_RW	99	Rpleas_acq	CS_B	GWWG	MQQM	BZZB	YDDY	JXXJ	VKKV	ehrlich	spielen	treu	schön	retten	fair	eitel	strafen	tot	schlecht	rächen	faul	1	acq_USpleas_CSpleas1_RW	acq4567_RW	5	53	400	1	300	300	350	50	0	1	1	blank2r.bmp	0	1	+	0	1	blank2r.bmp	492	1	GWWG	492	1	blank2r.bmp	572	1	ehrlich	866	1	!	1239	1	!	1252	0	0	0	0	0	0	0	0	0	0	0	0	0	0	0	0	0	0	0	0	0	0	0	0	0	0	0	0	0	0
081419	11:52:22	12:02:49	626409	5.0.10.0	5_exp_RW	99	Rpleas_acq	CS_B	GWWG	MQQM	BZZB	YDDY	JXXJ	VKKV	ehrlich	spielen	treu	schön	retten	fair	eitel	strafen	tot	schlecht	rächen	faul	1	acq_USunple_CSunple1_RW	acq4567_RW	5	54	400	1	300	300	359	46	0	1	1	blank2r.bmp	0	1	+	0	1	blank2r.bmp	492	1	BZZB	492	1	blank2r.bmp	572	3	tot	866	1	!	1239	1	!	1266	0	0	0	0	0	0	0	0	0	0	0	0	0	0	0	0	0	0	0	0	0	0	0	0	0	0	0	0	0	0
081419	11:52:22	12:02:51	628608	5.0.10.0	5_exp_RW	99	Rpleas_acq	CS_B	GWWG	MQQM	BZZB	YDDY	JXXJ	VKKV	ehrlich	spielen	treu	schön	retten	fair	eitel	strafen	tot	schlecht	rächen	faul	1	acq_USunple_CSunple2_RW	acq4567_RW	5	55	400	1	300	300	404	46	0	1	1	blank2r.bmp	0	1	+	0	1	blank2r.bmp	492	1	YDDY	492	1	blank2r.bmp	572	3	faul	866	1	!	1239	1	!	1306	0	0	0	0	0	0	0	0	0	0	0	0	0	0	0	0	0	0	0	0	0	0	0	0	0	0	0	0	0	0
081419	11:52:22	12:02:53	630767	5.0.10.0	5_exp_RW	99	Rpleas_acq	CS_B	GWWG	MQQM	BZZB	YDDY	JXXJ	VKKV	ehrlich	spielen	treu	schön	retten	fair	eitel	strafen	tot	schlecht	rächen	faul	1	acq_USpleas_CSpleas2_RW	acq4567_RW	5	56	400	1	300	300	360	46	0	0	1	blank2r.bmp	0	1	+	0	1	blank2r.bmp	492	1	MQQM	492	1	blank2r.bmp	572	1	schön	866	1	!	1239	1	!	1266	0	0	0	0	0	0	0	0	0	0	0	0	0	0	0	0	0	0	0	0	0	0	0	0	0	0	0	0	0	0
081419	11:52:22	12:02:55	632927	5.0.10.0	5_exp_RW	99	Rpleas_acq	CS_B	GWWG	MQQM	BZZB	YDDY	JXXJ	VKKV	ehrlich	spielen	treu	schön	retten	fair	eitel	strafen	tot	schlecht	rächen	faul	1	acq_USpleas_CSpleas1_RW	acq4567_RW	5	57	400	1	300	300	346	50	0	1	1	blank2r.bmp	0	1	+	0	1	blank2r.bmp	492	1	GWWG	492	1	blank2r.bmp	572	2	spielen	866	1	!	1239	1	!	1252	0	0	0	0	0	0	0	0	0	0	0	0	0	0	0	0	0	0	0	0	0	0	0	0	0	0	0	0	0	0
081419	11:52:22	12:02:58	635139	5.0.10.0	5_exp_RW	99	Rpleas_acq	CS_B	GWWG	MQQM	BZZB	YDDY	JXXJ	VKKV	ehrlich	spielen	treu	schön	retten	fair	eitel	strafen	tot	schlecht	rächen	faul	1	acq_USunple_CSunple2_RW	acq4567_RW	5	58	400	1	300	300	420	46	0	1	1	blank2r.bmp	0	1	+	0	1	blank2r.bmp	492	1	YDDY	492	1	blank2r.bmp	572	1	schlecht	866	1	!	1239	1	!	1319	0	0	0	0	0	0	0	0	0	0	0	0	0	0	0	0	0	0	0	0	0	0	0	0	0	0	0	0	0	0
081419	11:52:22	12:03:00	637338	5.0.10.0	5_exp_RW	99	Rpleas_acq	CS_B	GWWG	MQQM	BZZB	YDDY	JXXJ	VKKV	ehrlich	spielen	treu	schön	retten	fair	eitel	strafen	tot	schlecht	rächen	faul	1	acq_USunple_CSunple1_RW	acq4567_RW	5	59	400	1	300	300	405	46	0	1	1	blank2r.bmp	0	1	+	0	1	blank2r.bmp	492	1	BZZB	492	1	blank2r.bmp	572	2	strafen	866	1	!	1239	1	!	1306	0	0	0	0	0	0	0	0	0	0	0	0	0	0	0	0	0	0	0	0	0	0	0	0	0	0	0	0	0	0
081419	11:52:22	12:03:02	639644	5.0.10.0	5_exp_RW	99	Rpleas_acq	CS_B	GWWG	MQQM	BZZB	YDDY	JXXJ	VKKV	ehrlich	spielen	treu	schön	retten	fair	eitel	strafen	tot	schlecht	rächen	faul	1	acq_USunple_CSunple1_RW	acq4567_RW	5	60	400	0	300	300	545	46	0	1	1	blank2r.bmp	0	1	+	0	1	blank2r.bmp	492	1	BZZB	492	1	blank2r.bmp	572	1	eitel	866	1	!	1239	1	!	-1	0	0	0	0	0	0	0	0	0	0	0	0	0	0	0	0	0	0	0	0	0	0	0	0	0	0	0	0	0	0
081419	11:52:22	12:03:04	641843	5.0.10.0	5_exp_RW	99	Rpleas_acq	CS_B	GWWG	MQQM	BZZB	YDDY	JXXJ	VKKV	ehrlich	spielen	treu	schön	retten	fair	eitel	strafen	tot	schlecht	rächen	faul	1	acq_USpleas_CSpleas1_RW	acq4567_RW	5	61	400	1	300	300	393	50	0	1	1	blank2r.bmp	0	1	+	0	1	blank2r.bmp	492	1	GWWG	492	1	blank2r.bmp	572	2	spielen	866	1	!	1239	1	!	1292	0	0	0	0	0	0	0	0	0	0	0	0	0	0	0	0	0	0	0	0	0	0	0	0	0	0	0	0	0	0
081419	11:52:22	12:03:06	644002	5.0.10.0	5_exp_RW	99	Rpleas_acq	CS_B	GWWG	MQQM	BZZB	YDDY	JXXJ	VKKV	ehrlich	spielen	treu	schön	retten	fair	eitel	strafen	tot	schlecht	rächen	faul	1	acq_USpleas_CSpleas1_RW	acq4567_RW	5	62	400	1	300	300	346	50	0	1	1	blank2r.bmp	0	1	+	0	1	blank2r.bmp	492	1	GWWG	492	1	blank2r.bmp	572	3	treu	866	1	!	1239	1	!	1252	0	0	0	0	0	0	0	0	0	0	0	0	0	0	0	0	0	0	0	0	0	0	0	0	0	0	0	0	0	0
081419	11:52:22	12:03:09	646254	5.0.10.0	5_exp_RW	99	Rpleas_acq	CS_B	GWWG	MQQM	BZZB	YDDY	JXXJ	VKKV	ehrlich	spielen	treu	schön	retten	fair	eitel	strafen	tot	schlecht	rächen	faul	1	acq_USunple_CSunple2_RW	acq4567_RW	5	63	400	0	300	300	479	46	0	1	1	blank2r.bmp	0	1	+	0	1	blank2r.bmp	492	1	YDDY	492	1	blank2r.bmp	572	2	rächen	866	1	!	1239	1	!	-1	0	0	0	0	0	0	0	0	0	0	0	0	0	0	0	0	0	0	0	0	0	0	0	0	0	0	0	0	0	0
081419	11:52:22	12:03:11	648454	5.0.10.0	5_exp_RW	99	Rpleas_acq	CS_B	GWWG	MQQM	BZZB	YDDY	JXXJ	VKKV	ehrlich	spielen	treu	schön	retten	fair	eitel	strafen	tot	schlecht	rächen	faul	1	acq_USpleas_CSpleas2_RW	acq4567_RW	5	64	400	1	300	300	386	46	0	0	1	blank2r.bmp	0	1	+	0	1	blank2r.bmp	492	1	MQQM	492	1	blank2r.bmp	572	2	retten	866	1	!	1239	1	!	1292	0	0	0	0	0	0	0	0	0	0	0	0	0	0	0	0	0	0	0	0	0	0	0	0	0	0	0	0	0	0
081419	11:52:22	12:03:13	650653	5.0.10.0	5_exp_RW	99	Rpleas_acq	CS_B	GWWG	MQQM	BZZB	YDDY	JXXJ	VKKV	ehrlich	spielen	treu	schön	retten	fair	eitel	strafen	tot	schlecht	rächen	faul	1	acq_USunple_CSunple1_RW	acq4567_RW	5	65	400	1	300	300	402	46	0	1	1	blank2r.bmp	0	1	+	0	1	blank2r.bmp	492	1	BZZB	492	1	blank2r.bmp	572	3	tot	866	1	!	1239	1	!	1306	0	0	0	0	0	0	0	0	0	0	0	0	0	0	0	0	0	0	0	0	0	0	0	0	0	0	0	0	0	0
081419	11:52:22	12:03:15	652865	5.0.10.0	5_exp_RW	99	Rpleas_acq	CS_B	GWWG	MQQM	BZZB	YDDY	JXXJ	VKKV	ehrlich	spielen	treu	schön	retten	fair	eitel	strafen	tot	schlecht	rächen	faul	1	acq_USunple_CSunple2_RW	acq4567_RW	5	66	400	1	300	300	422	46	0	1	1	blank2r.bmp	0	1	+	0	1	blank2r.bmp	492	1	YDDY	492	1	blank2r.bmp	572	1	schlecht	866	1	!	1239	1	!	1319	0	0	0	0	0	0	0	0	0	0	0	0	0	0	0	0	0	0	0	0	0	0	0	0	0	0	0	0	0	0
081419	11:52:22	12:03:17	654944	5.0.10.0	5_exp_RW	99	Rpleas_acq	CS_B	GWWG	MQQM	BZZB	YDDY	JXXJ	VKKV	ehrlich	spielen	treu	schön	retten	fair	eitel	strafen	tot	schlecht	rächen	faul	1	acq_USunple_CSunple1_RW	acq4567_RW	5	67	400	0	300	300	312	50	0	0	1	blank2r.bmp	0	1	+	0	1	blank2r.bmp	492	1	BZZB	492	1	blank2r.bmp	572	1	eitel	866	1	!	-1	1	!	-1	0	0	0	0	0	0	0	0	0	0	0	0	0	0	0	0	0	0	0	0	0	0	0	0	0	0	0	0	0	0
081419	11:52:22	12:03:20	657223	5.0.10.0	5_exp_RW	99	Rpleas_acq	CS_B	GWWG	MQQM	BZZB	YDDY	JXXJ	VKKV	ehrlich	spielen	treu	schön	retten	fair	eitel	strafen	tot	schlecht	rächen	faul	1	acq_USpleas_CSpleas2_RW	acq4567_RW	5	68	400	0	300	300	497	50	0	1	1	blank2r.bmp	0	1	+	0	1	blank2r.bmp	492	1	MQQM	492	1	blank2r.bmp	572	1	schön	866	1	!	1239	1	!	-1	0	0	0	0	0	0	0	0	0	0	0	0	0	0	0	0	0	0	0	0	0	0	0	0	0	0	0	0	0	0
081419	11:52:22	12:03:22	659436	5.0.10.0	5_exp_RW	99	Rpleas_acq	CS_B	GWWG	MQQM	BZZB	YDDY	JXXJ	VKKV	ehrlich	spielen	treu	schön	retten	fair	eitel	strafen	tot	schlecht	rächen	faul	1	acq_USunple_CSunple1_RW	acq4567_RW	5	69	400	1	300	300	402	46	0	1	1	blank2r.bmp	0	1	+	0	1	blank2r.bmp	492	1	BZZB	492	1	blank2r.bmp	572	2	strafen	866	1	!	1239	1	!	1306	0	0	0	0	0	0	0	0	0	0	0	0	0	0	0	0	0	0	0	0	0	0	0	0	0	0	0	0	0	0
081419	11:52:22	12:03:24	661675	5.0.10.0	5_exp_RW	99	Rpleas_acq	CS_B	GWWG	MQQM	BZZB	YDDY	JXXJ	VKKV	ehrlich	spielen	treu	schön	retten	fair	eitel	strafen	tot	schlecht	rächen	faul	1	acq_USunple_CSunple2_RW	acq4567_RW	5	70	400	1	300	300	448	46	0	1	1	blank2r.bmp	0	1	+	0	1	blank2r.bmp	492	1	YDDY	492	1	blank2r.bmp	572	3	faul	866	1	!	1239	1	!	1346	0	0	0	0	0	0	0	0	0	0	0	0	0	0	0	0	0	0	0	0	0	0	0	0	0	0	0	0	0	0
081419	11:52:22	12:03:26	663754	5.0.10.0	5_exp_RW	99	Rpleas_acq	CS_B	GWWG	MQQM	BZZB	YDDY	JXXJ	VKKV	ehrlich	spielen	treu	schön	retten	fair	eitel	strafen	tot	schlecht	rächen	faul	1	acq_USpleas_CSpleas1_RW	acq4567_RW	5	71	400	0	300	300	312	50	0	1	1	blank2r.bmp	0	1	+	0	1	blank2r.bmp	492	1	GWWG	492	1	blank2r.bmp	572	1	ehrlich	866	1	!	-1	1	!	-1	0	0	0	0	0	0	0	0	0	0	0	0	0	0	0	0	0	0	0	0	0	0	0	0	0	0	0	0	0	0
081419	11:52:22	12:03:28	665980	5.0.10.0	5_exp_RW	99	Rpleas_acq	CS_B	GWWG	MQQM	BZZB	YDDY	JXXJ	VKKV	ehrlich	spielen	treu	schön	retten	fair	eitel	strafen	tot	schlecht	rächen	faul	1	acq_USunple_CSunple1_RW	acq4567_RW	5	72	400	1	300	300	419	46	0	1	1	blank2r.bmp	0	1	+	0	1	blank2r.bmp	492	1	BZZB	492	1	blank2r.bmp	572	1	eitel	866	1	!	1239	1	!	1319	0	0	0	0	0	0	0	0	0	0	0	0	0	0	0	0	0	0	0	0	0	0	0	0	0	0	0	0	0	0
081419	11:52:22	12:03:32	669378	5.0.10.0	5_exp_RW	99	Rpleas_acq	CS_B	GWWG	MQQM	BZZB	YDDY	JXXJ	VKKV	ehrlich	spielen	treu	schön	retten	fair	eitel	strafen	tot	schlecht	rächen	faul	1	acq_USpleas_CSpleas2_RW	acq4567_RW	5	73	400	0	300	300	1626	50	0	1	1	blank2r.bmp	0	1	+	0	1	blank2r.bmp	492	1	MQQM	492	1	blank2r.bmp	572	3	fair	866	1	!	1239	1	!	-1	0	0	0	0	0	0	0	0	0	0	0	0	0	0	0	0	0	0	0	0	0	0	0	0	0	0	0	0	0	0
081419	11:52:22	12:03:34	671657	5.0.10.0	5_exp_RW	99	Rpleas_acq	CS_B	GWWG	MQQM	BZZB	YDDY	JXXJ	VKKV	ehrlich	spielen	treu	schön	retten	fair	eitel	strafen	tot	schlecht	rächen	faul	1	acq_USpleas_CSpleas1_RW	acq4567_RW	5	74	400	0	300	300	494	50	0	1	1	blank2r.bmp	0	1	+	0	1	blank2r.bmp	492	1	GWWG	492	1	blank2r.bmp	572	2	spielen	866	1	!	1239	1	!	-1	0	0	0	0	0	0	0	0	0	0	0	0	0	0	0	0	0	0	0	0	0	0	0	0	0	0	0	0	0	0
081419	11:52:22	12:03:36	673896	5.0.10.0	5_exp_RW	99	Rpleas_acq	CS_B	GWWG	MQQM	BZZB	YDDY	JXXJ	VKKV	ehrlich	spielen	treu	schön	retten	fair	eitel	strafen	tot	schlecht	rächen	faul	1	acq_USunple_CSunple1_RW	acq4567_RW	5	75	400	1	300	300	417	46	0	1	1	blank2r.bmp	0	1	+	0	1	blank2r.bmp	492	1	BZZB	492	1	blank2r.bmp	572	3	tot	866	1	!	1239	1	!	1319	0	0	0	0	0	0	0	0	0	0	0	0	0	0	0	0	0	0	0	0	0	0	0	0	0	0	0	0	0	0
081419	11:52:22	12:03:39	676069	5.0.10.0	5_exp_RW	99	Rpleas_acq	CS_B	GWWG	MQQM	BZZB	YDDY	JXXJ	VKKV	ehrlich	spielen	treu	schön	retten	fair	eitel	strafen	tot	schlecht	rächen	faul	1	acq_USpleas_CSpleas2_RW	acq4567_RW	5	76	400	1	300	300	375	50	0	1	1	blank2r.bmp	0	1	+	0	1	blank2r.bmp	492	1	MQQM	492	1	blank2r.bmp	572	1	schön	866	1	!	1239	1	!	1279	0	0	0	0	0	0	0	0	0	0	0	0	0	0	0	0	0	0	0	0	0	0	0	0	0	0	0	0	0	0
081419	11:52:22	12:03:41	678228	5.0.10.0	5_exp_RW	99	Rpleas_acq	CS_B	GWWG	MQQM	BZZB	YDDY	JXXJ	VKKV	ehrlich	spielen	treu	schön	retten	fair	eitel	strafen	tot	schlecht	rächen	faul	1	acq_USpleas_CSpleas2_RW	acq4567_RW	5	77	400	1	300	300	347	50	0	1	1	blank2r.bmp	0	1	+	0	1	blank2r.bmp	492	1	MQQM	492	1	blank2r.bmp	572	3	fair	866	1	!	1239	1	!	1252	0	0	0	0	0	0	0	0	0	0	0	0	0	0	0	0	0	0	0	0	0	0	0	0	0	0	0	0	0	0
081419	11:52:22	12:03:43	680440	5.0.10.0	5_exp_RW	99	Rpleas_acq	CS_B	GWWG	MQQM	BZZB	YDDY	JXXJ	VKKV	ehrlich	spielen	treu	schön	retten	fair	eitel	strafen	tot	schlecht	rächen	faul	1	acq_USunple_CSunple2_RW	acq4567_RW	5	78	400	1	300	300	413	46	0	1	1	blank2r.bmp	0	1	+	0	1	blank2r.bmp	492	1	YDDY	492	1	blank2r.bmp	572	2	rächen	866	1	!	1239	1	!	1319	0	0	0	0	0	0	0	0	0	0	0	0	0	0	0	0	0	0	0	0	0	0	0	0	0	0	0	0	0	0
081419	11:52:22	12:03:45	682680	5.0.10.0	5_exp_RW	99	Rpleas_acq	CS_B	GWWG	MQQM	BZZB	YDDY	JXXJ	VKKV	ehrlich	spielen	treu	schön	retten	fair	eitel	strafen	tot	schlecht	rächen	faul	1	acq_USunple_CSunple2_RW	acq4567_RW	5	79	400	1	300	300	448	46	0	1	1	blank2r.bmp	0	1	+	0	1	blank2r.bmp	492	1	YDDY	492	1	blank2r.bmp	572	3	faul	866	1	!	1239	1	!	1346	0	0	0	0	0	0	0	0	0	0	0	0	0	0	0	0	0	0	0	0	0	0	0	0	0	0	0	0	0	0
081419	11:52:22	12:03:47	684839	5.0.10.0	5_exp_RW	99	Rpleas_acq	CS_B	GWWG	MQQM	BZZB	YDDY	JXXJ	VKKV	ehrlich	spielen	treu	schön	retten	fair	eitel	strafen	tot	schlecht	rächen	faul	1	acq_USpleas_CSpleas1_RW	acq4567_RW	5	80	400	1	300	300	364	50	0	1	1	blank2r.bmp	0	1	+	0	1	blank2r.bmp	492	1	GWWG	492	1	blank2r.bmp	572	3	treu	866	1	!	1239	1	!	1266	0	0	0	0	0	0	0	0	0	0	0	0	0	0	0	0	0	0	0	0	0	0	0	0	0	0	0	0	0	0
081419	11:52:22	12:03:57	694728	5.0.10.0	5_exp_RW	99	Rpleas_acq	CS_B	GWWG	MQQM	BZZB	YDDY	JXXJ	VKKV	ehrlich	spielen	treu	schön	retten	fair	eitel	strafen	tot	schlecht	rächen	faul	1	acq_USpleas_CSpleas1_RW	acq4567_RW	6	1	400	0	300	300	313	50	0	1	1	blank2r.bmp	0	1	+	0	1	blank2r.bmp	492	1	GWWG	492	1	blank2r.bmp	572	1	ehrlich	866	1	!	-1	1	!	-1	0	0	0	0	0	0	0	0	0	0	0	0	0	0	0	0	0	0	0	0	0	0	0	0	0	0	0	0	0	0
081419	11:52:22	12:03:59	697020	5.0.10.0	5_exp_RW	99	Rpleas_acq	CS_B	GWWG	MQQM	BZZB	YDDY	JXXJ	VKKV	ehrlich	spielen	treu	schön	retten	fair	eitel	strafen	tot	schlecht	rächen	faul	1	acq_USpleas_CSpleas1_RW	acq4567_RW	6	2	400	0	300	300	499	50	0	1	1	blank2r.bmp	0	1	+	0	1	blank2r.bmp	492	1	GWWG	492	1	blank2r.bmp	572	1	ehrlich	866	1	!	1239	1	!	-1	0	0	0	0	0	0	0	0	0	0	0	0	0	0	0	0	0	0	0	0	0	0	0	0	0	0	0	0	0	0
081419	11:52:22	12:04:02	699219	5.0.10.0	5_exp_RW	99	Rpleas_acq	CS_B	GWWG	MQQM	BZZB	YDDY	JXXJ	VKKV	ehrlich	spielen	treu	schön	retten	fair	eitel	strafen	tot	schlecht	rächen	faul	1	acq_USunple_CSunple2_RW	acq4567_RW	6	3	400	1	300	300	392	46	0	1	1	blank2r.bmp	0	1	+	0	1	blank2r.bmp	492	1	YDDY	492	1	blank2r.bmp	572	1	schlecht	866	1	!	1239	1	!	1292	0	0	0	0	0	0	0	0	0	0	0	0	0	0	0	0	0	0	0	0	0	0	0	0	0	0	0	0	0	0
081419	11:52:22	12:04:04	701392	5.0.10.0	5_exp_RW	99	Rpleas_acq	CS_B	GWWG	MQQM	BZZB	YDDY	JXXJ	VKKV	ehrlich	spielen	treu	schön	retten	fair	eitel	strafen	tot	schlecht	rächen	faul	1	acq_USunple_CSunple1_RW	acq4567_RW	6	4	400	1	300	300	371	46	0	1	1	blank2r.bmp	0	1	+	0	1	blank2r.bmp	492	1	BZZB	492	1	blank2r.bmp	572	2	strafen	866	1	!	1239	1	!	1266	0	0	0	0	0	0	0	0	0	0	0	0	0	0	0	0	0	0	0	0	0	0	0	0	0	0	0	0	0	0
081419	11:52:22	12:04:06	703458	5.0.10.0	5_exp_RW	99	Rpleas_acq	CS_B	GWWG	MQQM	BZZB	YDDY	JXXJ	VKKV	ehrlich	spielen	treu	schön	retten	fair	eitel	strafen	tot	schlecht	rächen	faul	1	acq_USunple_CSunple2_RW	acq4567_RW	6	5	400	0	300	300	294	46	0	1	1	blank2r.bmp	0	1	+	0	1	blank2r.bmp	492	1	YDDY	492	1	blank2r.bmp	572	2	rächen	866	1	!	-1	1	!	-1	0	0	0	0	0	0	0	0	0	0	0	0	0	0	0	0	0	0	0	0	0	0	0	0	0	0	0	0	0	0
081419	11:52:22	12:04:08	705657	5.0.10.0	5_exp_RW	99	Rpleas_acq	CS_B	GWWG	MQQM	BZZB	YDDY	JXXJ	VKKV	ehrlich	spielen	treu	schön	retten	fair	eitel	strafen	tot	schlecht	rächen	faul	1	acq_USpleas_CSpleas1_RW	acq4567_RW	6	6	400	1	300	300	396	50	0	1	1	blank2r.bmp	0	1	+	0	1	blank2r.bmp	492	1	GWWG	492	1	blank2r.bmp	572	3	treu	866	1	!	1239	1	!	1292	0	0	0	0	0	0	0	0	0	0	0	0	0	0	0	0	0	0	0	0	0	0	0	0	0	0	0	0	0	0
081419	11:52:22	12:04:10	707843	5.0.10.0	5_exp_RW	99	Rpleas_acq	CS_B	GWWG	MQQM	BZZB	YDDY	JXXJ	VKKV	ehrlich	spielen	treu	schön	retten	fair	eitel	strafen	tot	schlecht	rächen	faul	1	acq_USunple_CSunple2_RW	acq4567_RW	6	7	400	1	300	300	388	46	0	1	1	blank2r.bmp	0	1	+	0	1	blank2r.bmp	492	1	YDDY	492	1	blank2r.bmp	572	3	faul	866	1	!	1239	1	!	1292	0	0	0	0	0	0	0	0	0	0	0	0	0	0	0	0	0	0	0	0	0	0	0	0	0	0	0	0	0	0
081419	11:52:22	12:04:13	710215	5.0.10.0	5_exp_RW	99	Rpleas_acq	CS_B	GWWG	MQQM	BZZB	YDDY	JXXJ	VKKV	ehrlich	spielen	treu	schön	retten	fair	eitel	strafen	tot	schlecht	rächen	faul	1	acq_USunple_CSunple1_RW	acq4567_RW	6	8	400	0	300	300	610	46	0	1	1	blank2r.bmp	0	1	+	0	1	blank2r.bmp	492	1	BZZB	492	1	blank2r.bmp	572	2	strafen	866	1	!	1239	1	!	-1	0	0	0	0	0	0	0	0	0	0	0	0	0	0	0	0	0	0	0	0	0	0	0	0	0	0	0	0	0	0
081419	11:52:22	12:04:15	712427	5.0.10.0	5_exp_RW	99	Rpleas_acq	CS_B	GWWG	MQQM	BZZB	YDDY	JXXJ	VKKV	ehrlich	spielen	treu	schön	retten	fair	eitel	strafen	tot	schlecht	rächen	faul	1	acq_USunple_CSunple1_RW	acq4567_RW	6	9	400	1	300	300	406	46	0	1	1	blank2r.bmp	0	1	+	0	1	blank2r.bmp	492	1	BZZB	492	1	blank2r.bmp	572	3	tot	866	1	!	1239	1	!	1306	0	0	0	0	0	0	0	0	0	0	0	0	0	0	0	0	0	0	0	0	0	0	0	0	0	0	0	0	0	0
081419	11:52:22	12:04:17	714693	5.0.10.0	5_exp_RW	99	Rpleas_acq	CS_B	GWWG	MQQM	BZZB	YDDY	JXXJ	VKKV	ehrlich	spielen	treu	schön	retten	fair	eitel	strafen	tot	schlecht	rächen	faul	1	acq_USunple_CSunple1_RW	acq4567_RW	6	10	400	0	300	300	493	46	0	1	1	blank2r.bmp	0	1	+	0	1	blank2r.bmp	492	1	BZZB	492	1	blank2r.bmp	572	1	eitel	866	1	!	1239	1	!	-1	0	0	0	0	0	0	0	0	0	0	0	0	0	0	0	0	0	0	0	0	0	0	0	0	0	0	0	0	0	0
081419	11:52:22	12:04:19	716892	5.0.10.0	5_exp_RW	99	Rpleas_acq	CS_B	GWWG	MQQM	BZZB	YDDY	JXXJ	VKKV	ehrlich	spielen	treu	schön	retten	fair	eitel	strafen	tot	schlecht	rächen	faul	1	acq_USunple_CSunple2_RW	acq4567_RW	6	11	400	1	300	300	395	46	0	1	1	blank2r.bmp	0	1	+	0	1	blank2r.bmp	492	1	YDDY	492	1	blank2r.bmp	572	1	schlecht	866	1	!	1239	1	!	1292	0	0	0	0	0	0	0	0	0	0	0	0	0	0	0	0	0	0	0	0	0	0	0	0	0	0	0	0	0	0
081419	11:52:22	12:04:21	718931	5.0.10.0	5_exp_RW	99	Rpleas_acq	CS_B	GWWG	MQQM	BZZB	YDDY	JXXJ	VKKV	ehrlich	spielen	treu	schön	retten	fair	eitel	strafen	tot	schlecht	rächen	faul	1	acq_USpleas_CSpleas1_RW	acq4567_RW	6	12	400	0	300	300	272	50	0	1	1	blank2r.bmp	0	1	+	0	1	blank2r.bmp	492	1	GWWG	492	1	blank2r.bmp	572	2	spielen	866	1	!	-1	1	!	-1	0	0	0	0	0	0	0	0	0	0	0	0	0	0	0	0	0	0	0	0	0	0	0	0	0	0	0	0	0	0
081419	11:52:22	12:04:24	721197	5.0.10.0	5_exp_RW	99	Rpleas_acq	CS_B	GWWG	MQQM	BZZB	YDDY	JXXJ	VKKV	ehrlich	spielen	treu	schön	retten	fair	eitel	strafen	tot	schlecht	rächen	faul	1	acq_USpleas_CSpleas2_RW	acq4567_RW	6	13	400	1	300	300	464	46	0	0	1	blank2r.bmp	0	1	+	0	1	blank2r.bmp	492	1	MQQM	492	1	blank2r.bmp	572	2	retten	866	1	!	1239	1	!	1359	0	0	0	0	0	0	0	0	0	0	0	0	0	0	0	0	0	0	0	0	0	0	0	0	0	0	0	0	0	0
081419	11:52:22	12:04:26	723423	5.0.10.0	5_exp_RW	99	Rpleas_acq	CS_B	GWWG	MQQM	BZZB	YDDY	JXXJ	VKKV	ehrlich	spielen	treu	schön	retten	fair	eitel	strafen	tot	schlecht	rächen	faul	1	acq_USpleas_CSpleas1_RW	acq4567_RW	6	14	400	1	300	300	437	50	0	1	1	blank2r.bmp	0	1	+	0	1	blank2r.bmp	492	1	GWWG	492	1	blank2r.bmp	572	1	ehrlich	866	1	!	1239	1	!	1332	0	0	0	0	0	0	0	0	0	0	0	0	0	0	0	0	0	0	0	0	0	0	0	0	0	0	0	0	0	0
081419	11:52:22	12:04:28	725515	5.0.10.0	5_exp_RW	99	Rpleas_acq	CS_B	GWWG	MQQM	BZZB	YDDY	JXXJ	VKKV	ehrlich	spielen	treu	schön	retten	fair	eitel	strafen	tot	schlecht	rächen	faul	1	acq_USpleas_CSpleas2_RW	acq4567_RW	6	15	400	0	300	300	326	50	0	1	1	blank2r.bmp	0	1	+	0	1	blank2r.bmp	492	1	MQQM	492	1	blank2r.bmp	572	1	schön	866	1	!	-1	1	!	-1	0	0	0	0	0	0	0	0	0	0	0	0	0	0	0	0	0	0	0	0	0	0	0	0	0	0	0	0	0	0
081419	11:52:22	12:04:30	727768	5.0.10.0	5_exp_RW	99	Rpleas_acq	CS_B	GWWG	MQQM	BZZB	YDDY	JXXJ	VKKV	ehrlich	spielen	treu	schön	retten	fair	eitel	strafen	tot	schlecht	rächen	faul	1	acq_USpleas_CSpleas2_RW	acq4567_RW	6	16	400	1	300	300	444	46	0	0	1	blank2r.bmp	0	1	+	0	1	blank2r.bmp	492	1	MQQM	492	1	blank2r.bmp	572	2	retten	866	1	!	1239	1	!	1346	0	0	0	0	0	0	0	0	0	0	0	0	0	0	0	0	0	0	0	0	0	0	0	0	0	0	0	0	0	0
081419	11:52:22	12:04:32	729874	5.0.10.0	5_exp_RW	99	Rpleas_acq	CS_B	GWWG	MQQM	BZZB	YDDY	JXXJ	VKKV	ehrlich	spielen	treu	schön	retten	fair	eitel	strafen	tot	schlecht	rächen	faul	1	acq_USunple_CSunple1_RW	acq4567_RW	6	17	400	0	300	300	323	46	0	1	1	blank2r.bmp	0	1	+	0	1	blank2r.bmp	492	1	BZZB	492	1	blank2r.bmp	572	3	tot	866	1	!	-1	1	!	-1	0	0	0	0	0	0	0	0	0	0	0	0	0	0	0	0	0	0	0	0	0	0	0	0	0	0	0	0	0	0
081419	11:52:22	12:04:35	732139	5.0.10.0	5_exp_RW	99	Rpleas_acq	CS_B	GWWG	MQQM	BZZB	YDDY	JXXJ	VKKV	ehrlich	spielen	treu	schön	retten	fair	eitel	strafen	tot	schlecht	rächen	faul	1	acq_USunple_CSunple2_RW	acq4567_RW	6	18	400	0	300	300	490	46	0	1	1	blank2r.bmp	0	1	+	0	1	blank2r.bmp	492	1	YDDY	492	1	blank2r.bmp	572	1	schlecht	866	1	!	1239	1	!	-1	0	0	0	0	0	0	0	0	0	0	0	0	0	0	0	0	0	0	0	0	0	0	0	0	0	0	0	0	0	0
081419	11:52:22	12:04:37	734432	5.0.10.0	5_exp_RW	99	Rpleas_acq	CS_B	GWWG	MQQM	BZZB	YDDY	JXXJ	VKKV	ehrlich	spielen	treu	schön	retten	fair	eitel	strafen	tot	schlecht	rächen	faul	1	acq_USpleas_CSpleas2_RW	acq4567_RW	6	19	400	0	300	300	502	50	0	1	1	blank2r.bmp	0	1	+	0	1	blank2r.bmp	492	1	MQQM	492	1	blank2r.bmp	572	3	fair	866	1	!	1239	1	!	-1	0	0	0	0	0	0	0	0	0	0	0	0	0	0	0	0	0	0	0	0	0	0	0	0	0	0	0	0	0	0
081419	11:52:22	12:04:39	736697	5.0.10.0	5_exp_RW	99	Rpleas_acq	CS_B	GWWG	MQQM	BZZB	YDDY	JXXJ	VKKV	ehrlich	spielen	treu	schön	retten	fair	eitel	strafen	tot	schlecht	rächen	faul	1	acq_USpleas_CSpleas2_RW	acq4567_RW	6	20	400	1	300	300	447	50	0	1	1	blank2r.bmp	0	1	+	0	1	blank2r.bmp	492	1	MQQM	492	1	blank2r.bmp	572	1	schön	866	1	!	1239	1	!	1346	0	0	0	0	0	0	0	0	0	0	0	0	0	0	0	0	0	0	0	0	0	0	0	0	0	0	0	0	0	0
