date	time	script.currenttime	script.elapsedtime	build	script.currentexpt	subject	expressions.LRpleas_acq	expressions.conditionCS_A	expressions.CSpleas_1	expressions.CSpleas_2	expressions.CSunple_1	expressions.CSunple_2	expressions.distractor_1	expressions.distractor_2	expressions.US_pleas1	expressions.US_pleas2	expressions.US_pleas3	expressions.US_pleas4	expressions.US_pleas5	expressions.US_pleas6	expressions.US_unple1	expressions.US_unple2	expressions.US_unple3	expressions.US_unple4	expressions.US_unple5	expressions.US_unple6	counter.positions_noRW	trialcode	blockcode	blocknum	trialnum	windowcenter	inwindow	pretrialpause	posttrialpause	latency	response	expressions.correctedscore	correct	stimulusnumber1	stimulusitem1	stimulusonset1	stimulusnumber2	stimulusitem2	stimulusonset2	stimulusnumber3	stimulusitem3	stimulusonset3	stimulusnumber4	stimulusitem4	stimulusonset4	stimulusnumber5	stimulusitem5	stimulusonset5	stimulusnumber6	stimulusitem6	stimulusonset6	stimulusnumber7	stimulusitem7	stimulusonset7	stimulusnumber8	stimulusitem8	stimulusonset8	stimulusnumber9	stimulusitem9	stimulusonset9	stimulusnumber10	stimulusitem10	stimulusonset10	stimulusnumber11	stimulusitem11	stimulusonset11	stimulusnumber12	stimulusitem12	stimulusonset12	stimulusnumber13	stimulusitem13	stimulusonset13	stimulusnumber14	stimulusitem14	stimulusonset14	stimulusnumber15	stimulusitem15	stimulusonset15	stimulusnumber16	stimulusitem16	stimulusonset16	stimulusnumber17	stimulusitem17	stimulusonset17	stimulusnumber18	stimulusitem18	stimulusonset18
081919	15:21:45	15:22:31	43595	5.0.10.0	5_exp_noRW	104	Rpleas_acq	CS_B	GWWG	JXXJ	MQQM	BZZB	VKKV	YDDY	spielen	treu	schön	fair	ehrlich	retten	strafen	tot	schlecht	faul	eitel	rächen	47pct	acq_USunple_CSunple1_noRW	acq1_noRW	1	1	0	0	300	300	1039	50	0	0	1	blank2r.bmp	0	1	+	0	1	blank2r.bmp	252	1	MQQM	306	3	schlecht	559	1	FEHLER	1639	0	0	0	0	0	0	0	0	0	0	0	0	0	0	0	0	0	0	0	0	0	0	0	0	0	0	0	0	0	0	0	0	0	0	0	0
081919	15:21:45	15:22:33	45554	5.0.10.0	5_exp_noRW	104	Rpleas_acq	CS_B	GWWG	JXXJ	MQQM	BZZB	VKKV	YDDY	spielen	treu	schön	fair	ehrlich	retten	strafen	tot	schlecht	faul	eitel	rächen	47pct	acq_USpleas_CSpleas1_noRW	acq1_noRW	1	2	0	0	300	300	1003	50	0	1	1	blank2r.bmp	0	1	+	0	1	blank2r.bmp	252	1	GWWG	306	2	treu	559	0	0	0	0	0	0	0	0	0	0	0	0	0	0	0	0	0	0	0	0	0	0	0	0	0	0	0	0	0	0	0	0	0	0	0	0	0	0	0
081919	15:21:45	15:22:34	47527	5.0.10.0	5_exp_noRW	104	Rpleas_acq	CS_B	GWWG	JXXJ	MQQM	BZZB	VKKV	YDDY	spielen	treu	schön	fair	ehrlich	retten	strafen	tot	schlecht	faul	eitel	rächen	53pct	acq_USpleas_CSpleas1_noRW	acq1_noRW	1	3	0	0	300	300	790	50	0	1	1	blank2r.bmp	0	1	+	0	1	blank2r.bmp	252	1	GWWG	306	1	spielen	559	0	0	0	0	0	0	0	0	0	0	0	0	0	0	0	0	0	0	0	0	0	0	0	0	0	0	0	0	0	0	0	0	0	0	0	0	0	0	0
081919	15:21:45	15:22:36	49299	5.0.10.0	5_exp_noRW	104	Rpleas_acq	CS_B	GWWG	JXXJ	MQQM	BZZB	VKKV	YDDY	spielen	treu	schön	fair	ehrlich	retten	strafen	tot	schlecht	faul	eitel	rächen	47pct	acq_USpleas_CSpleas1_noRW	acq1_noRW	1	4	0	0	300	300	603	50	0	1	1	blank2r.bmp	0	1	+	0	1	blank2r.bmp	252	1	GWWG	306	3	schön	559	0	0	0	0	0	0	0	0	0	0	0	0	0	0	0	0	0	0	0	0	0	0	0	0	0	0	0	0	0	0	0	0	0	0	0	0	0	0	0
081919	15:21:45	15:22:38	51272	5.0.10.0	5_exp_noRW	104	Rpleas_acq	CS_B	GWWG	JXXJ	MQQM	BZZB	VKKV	YDDY	spielen	treu	schön	fair	ehrlich	retten	strafen	tot	schlecht	faul	eitel	rächen	47pct	acq_USpleas_CSpleas2_noRW	acq1_noRW	1	5	0	0	300	300	788	50	0	1	1	blank2r.bmp	0	1	+	0	1	blank2r.bmp	252	1	JXXJ	306	3	retten	559	0	0	0	0	0	0	0	0	0	0	0	0	0	0	0	0	0	0	0	0	0	0	0	0	0	0	0	0	0	0	0	0	0	0	0	0	0	0	0
081919	15:21:45	15:22:40	53031	5.0.10.0	5_exp_noRW	104	Rpleas_acq	CS_B	GWWG	JXXJ	MQQM	BZZB	VKKV	YDDY	spielen	treu	schön	fair	ehrlich	retten	strafen	tot	schlecht	faul	eitel	rächen	53pct	acq_USunple_CSpleas2_noRW	acq1_noRW	1	6	0	0	300	300	589	46	0	1	1	blank2r.bmp	0	1	+	0	1	blank2r.bmp	252	1	JXXJ	306	1	faul	559	0	0	0	0	0	0	0	0	0	0	0	0	0	0	0	0	0	0	0	0	0	0	0	0	0	0	0	0	0	0	0	0	0	0	0	0	0	0	0
081919	15:21:45	15:22:42	54817	5.0.10.0	5_exp_noRW	104	Rpleas_acq	CS_B	GWWG	JXXJ	MQQM	BZZB	VKKV	YDDY	spielen	treu	schön	fair	ehrlich	retten	strafen	tot	schlecht	faul	eitel	rächen	47pct	acq_USpleas_CSpleas1_noRW	acq1_noRW	1	7	0	0	300	300	613	50	0	1	1	blank2r.bmp	0	1	+	0	1	blank2r.bmp	252	1	GWWG	306	2	treu	559	0	0	0	0	0	0	0	0	0	0	0	0	0	0	0	0	0	0	0	0	0	0	0	0	0	0	0	0	0	0	0	0	0	0	0	0	0	0	0
081919	15:21:45	15:22:44	56790	5.0.10.0	5_exp_noRW	104	Rpleas_acq	CS_B	GWWG	JXXJ	MQQM	BZZB	VKKV	YDDY	spielen	treu	schön	fair	ehrlich	retten	strafen	tot	schlecht	faul	eitel	rächen	53pct	acq_USunple_CSunple2_noRW	acq1_noRW	1	8	0	0	300	300	809	46	0	1	1	blank2r.bmp	0	1	+	0	1	blank2r.bmp	252	1	BZZB	306	3	rächen	559	0	0	0	0	0	0	0	0	0	0	0	0	0	0	0	0	0	0	0	0	0	0	0	0	0	0	0	0	0	0	0	0	0	0	0	0	0	0	0
081919	15:21:45	15:22:46	58682	5.0.10.0	5_exp_noRW	104	Rpleas_acq	CS_B	GWWG	JXXJ	MQQM	BZZB	VKKV	YDDY	spielen	treu	schön	fair	ehrlich	retten	strafen	tot	schlecht	faul	eitel	rächen	47pct	acq_USpleas_CSunple2_noRW	acq1_noRW	1	9	0	0	300	300	719	50	0	1	1	blank2r.bmp	0	1	+	0	1	blank2r.bmp	252	1	BZZB	306	1	fair	559	0	0	0	0	0	0	0	0	0	0	0	0	0	0	0	0	0	0	0	0	0	0	0	0	0	0	0	0	0	0	0	0	0	0	0	0	0	0	0
081919	15:21:45	15:22:47	60495	5.0.10.0	5_exp_noRW	104	Rpleas_acq	CS_B	GWWG	JXXJ	MQQM	BZZB	VKKV	YDDY	spielen	treu	schön	fair	ehrlich	retten	strafen	tot	schlecht	faul	eitel	rächen	53pct	acq_USpleas_CSunple1_noRW	acq1_noRW	1	10	0	0	300	300	648	50	0	1	1	blank2r.bmp	0	1	+	0	1	blank2r.bmp	252	1	MQQM	306	1	spielen	559	0	0	0	0	0	0	0	0	0	0	0	0	0	0	0	0	0	0	0	0	0	0	0	0	0	0	0	0	0	0	0	0	0	0	0	0	0	0	0
081919	15:21:45	15:22:50	63107	5.0.10.0	5_exp_noRW	104	Rpleas_acq	CS_B	GWWG	JXXJ	MQQM	BZZB	VKKV	YDDY	spielen	treu	schön	fair	ehrlich	retten	strafen	tot	schlecht	faul	eitel	rächen	47pct	acq_USunple_CSpleas1_noRW	acq1_noRW	1	11	0	0	300	300	1220	50	0	0	1	blank2r.bmp	0	1	+	0	1	blank2r.bmp	252	1	GWWG	306	2	tot	559	1	FEHLER	1812	0	0	0	0	0	0	0	0	0	0	0	0	0	0	0	0	0	0	0	0	0	0	0	0	0	0	0	0	0	0	0	0	0	0	0	0
081919	15:21:45	15:22:52	64893	5.0.10.0	5_exp_noRW	104	Rpleas_acq	CS_B	GWWG	JXXJ	MQQM	BZZB	VKKV	YDDY	spielen	treu	schön	fair	ehrlich	retten	strafen	tot	schlecht	faul	eitel	rächen	53pct	acq_USpleas_CSpleas2_noRW	acq1_noRW	1	12	0	0	300	300	815	50	0	1	1	blank2r.bmp	0	1	+	0	1	blank2r.bmp	252	1	JXXJ	306	1	fair	559	0	0	0	0	0	0	0	0	0	0	0	0	0	0	0	0	0	0	0	0	0	0	0	0	0	0	0	0	0	0	0	0	0	0	0	0	0	0	0
081919	15:21:45	15:22:54	66839	5.0.10.0	5_exp_noRW	104	Rpleas_acq	CS_B	GWWG	JXXJ	MQQM	BZZB	VKKV	YDDY	spielen	treu	schön	fair	ehrlich	retten	strafen	tot	schlecht	faul	eitel	rächen	47pct	acq_USunple_CSunple2_noRW	acq1_noRW	1	13	0	0	300	300	571	50	0	0	1	blank2r.bmp	0	1	+	0	1	blank2r.bmp	252	1	BZZB	306	2	eitel	559	1	FEHLER	1159	0	0	0	0	0	0	0	0	0	0	0	0	0	0	0	0	0	0	0	0	0	0	0	0	0	0	0	0	0	0	0	0	0	0	0	0
081919	15:21:45	15:22:56	68958	5.0.10.0	5_exp_noRW	104	Rpleas_acq	CS_B	GWWG	JXXJ	MQQM	BZZB	VKKV	YDDY	spielen	treu	schön	fair	ehrlich	retten	strafen	tot	schlecht	faul	eitel	rächen	53pct	acq_USunple_CSunple1_noRW	acq1_noRW	1	14	0	0	300	300	940	50	0	0	1	blank2r.bmp	0	1	+	0	1	blank2r.bmp	252	1	MQQM	306	2	tot	559	1	FEHLER	1532	0	0	0	0	0	0	0	0	0	0	0	0	0	0	0	0	0	0	0	0	0	0	0	0	0	0	0	0	0	0	0	0	0	0	0	0
081919	15:21:45	15:22:58	70744	5.0.10.0	5_exp_noRW	104	Rpleas_acq	CS_B	GWWG	JXXJ	MQQM	BZZB	VKKV	YDDY	spielen	treu	schön	fair	ehrlich	retten	strafen	tot	schlecht	faul	eitel	rächen	47pct	acq_USunple_CSunple1_noRW	acq1_noRW	1	15	0	0	300	300	603	50	0	0	1	blank2r.bmp	0	1	+	0	1	blank2r.bmp	252	1	MQQM	306	1	strafen	559	1	FEHLER	1199	0	0	0	0	0	0	0	0	0	0	0	0	0	0	0	0	0	0	0	0	0	0	0	0	0	0	0	0	0	0	0	0	0	0	0	0
081919	15:21:45	15:22:59	72463	5.0.10.0	5_exp_noRW	104	Rpleas_acq	CS_B	GWWG	JXXJ	MQQM	BZZB	VKKV	YDDY	spielen	treu	schön	fair	ehrlich	retten	strafen	tot	schlecht	faul	eitel	rächen	47pct	acq_USpleas_CSpleas2_noRW	acq1_noRW	1	16	0	0	300	300	749	50	0	1	1	blank2r.bmp	0	1	+	0	1	blank2r.bmp	252	1	JXXJ	306	2	ehrlich	559	0	0	0	0	0	0	0	0	0	0	0	0	0	0	0	0	0	0	0	0	0	0	0	0	0	0	0	0	0	0	0	0	0	0	0	0	0	0	0
081919	15:21:45	15:23:02	74569	5.0.10.0	5_exp_noRW	104	Rpleas_acq	CS_B	GWWG	JXXJ	MQQM	BZZB	VKKV	YDDY	spielen	treu	schön	fair	ehrlich	retten	strafen	tot	schlecht	faul	eitel	rächen	53pct	acq_USunple_CSunple2_noRW	acq1_noRW	1	17	0	0	300	300	926	46	0	1	1	blank2r.bmp	0	1	+	0	1	blank2r.bmp	252	1	BZZB	306	1	faul	559	0	0	0	0	0	0	0	0	0	0	0	0	0	0	0	0	0	0	0	0	0	0	0	0	0	0	0	0	0	0	0	0	0	0	0	0	0	0	0
081919	15:21:45	15:23:04	77368	5.0.10.0	5_exp_noRW	104	Rpleas_acq	CS_B	GWWG	JXXJ	MQQM	BZZB	VKKV	YDDY	spielen	treu	schön	fair	ehrlich	retten	strafen	tot	schlecht	faul	eitel	rächen	53pct	acq_USunple_CSunple2_noRW	acq1_noRW	1	18	0	0	300	300	1405	50	0	0	1	blank2r.bmp	0	1	+	0	1	blank2r.bmp	252	1	BZZB	306	3	rächen	559	1	FEHLER	1999	0	0	0	0	0	0	0	0	0	0	0	0	0	0	0	0	0	0	0	0	0	0	0	0	0	0	0	0	0	0	0	0	0	0	0	0
081919	15:21:45	15:23:06	78981	5.0.10.0	5_exp_noRW	104	Rpleas_acq	CS_B	GWWG	JXXJ	MQQM	BZZB	VKKV	YDDY	spielen	treu	schön	fair	ehrlich	retten	strafen	tot	schlecht	faul	eitel	rächen	53pct	acq_USpleas_CSpleas2_noRW	acq1_noRW	1	19	0	0	300	300	651	50	0	1	1	blank2r.bmp	0	1	+	0	1	blank2r.bmp	252	1	JXXJ	306	3	retten	559	0	0	0	0	0	0	0	0	0	0	0	0	0	0	0	0	0	0	0	0	0	0	0	0	0	0	0	0	0	0	0	0	0	0	0	0	0	0	0
081919	15:21:45	15:23:08	81113	5.0.10.0	5_exp_noRW	104	Rpleas_acq	CS_B	GWWG	JXXJ	MQQM	BZZB	VKKV	YDDY	spielen	treu	schön	fair	ehrlich	retten	strafen	tot	schlecht	faul	eitel	rächen	47pct	acq_USunple_CSunple1_noRW	acq1_noRW	1	20	0	0	300	300	742	50	0	0	1	blank2r.bmp	0	1	+	0	1	blank2r.bmp	252	1	MQQM	306	1	strafen	559	1	FEHLER	1332	0	0	0	0	0	0	0	0	0	0	0	0	0	0	0	0	0	0	0	0	0	0	0	0	0	0	0	0	0	0	0	0	0	0	0	0
081919	15:21:45	15:23:10	83059	5.0.10.0	5_exp_noRW	104	Rpleas_acq	CS_B	GWWG	JXXJ	MQQM	BZZB	VKKV	YDDY	spielen	treu	schön	fair	ehrlich	retten	strafen	tot	schlecht	faul	eitel	rächen	53pct	acq_USunple_CSunple2_noRW	acq1_noRW	1	21	0	0	300	300	770	50	0	0	1	blank2r.bmp	0	1	+	0	1	blank2r.bmp	252	1	BZZB	306	2	eitel	559	1	FEHLER	1359	0	0	0	0	0	0	0	0	0	0	0	0	0	0	0	0	0	0	0	0	0	0	0	0	0	0	0	0	0	0	0	0	0	0	0	0
081919	15:21:45	15:23:12	84792	5.0.10.0	5_exp_noRW	104	Rpleas_acq	CS_B	GWWG	JXXJ	MQQM	BZZB	VKKV	YDDY	spielen	treu	schön	fair	ehrlich	retten	strafen	tot	schlecht	faul	eitel	rächen	53pct	acq_USpleas_CSpleas1_noRW	acq1_noRW	1	22	0	0	300	300	763	50	0	1	1	blank2r.bmp	0	1	+	0	1	blank2r.bmp	252	1	GWWG	306	1	spielen	559	0	0	0	0	0	0	0	0	0	0	0	0	0	0	0	0	0	0	0	0	0	0	0	0	0	0	0	0	0	0	0	0	0	0	0	0	0	0	0
081919	15:21:45	15:23:14	86911	5.0.10.0	5_exp_noRW	104	Rpleas_acq	CS_B	GWWG	JXXJ	MQQM	BZZB	VKKV	YDDY	spielen	treu	schön	fair	ehrlich	retten	strafen	tot	schlecht	faul	eitel	rächen	47pct	acq_USunple_CSpleas2_noRW	acq1_noRW	1	23	0	0	300	300	733	50	0	0	1	blank2r.bmp	0	1	+	0	1	blank2r.bmp	252	1	JXXJ	306	2	eitel	559	1	FEHLER	1332	0	0	0	0	0	0	0	0	0	0	0	0	0	0	0	0	0	0	0	0	0	0	0	0	0	0	0	0	0	0	0	0	0	0	0	0
081919	15:21:45	15:23:16	88550	5.0.10.0	5_exp_noRW	104	Rpleas_acq	CS_B	GWWG	JXXJ	MQQM	BZZB	VKKV	YDDY	spielen	treu	schön	fair	ehrlich	retten	strafen	tot	schlecht	faul	eitel	rächen	47pct	acq_USpleas_CSpleas1_noRW	acq1_noRW	1	24	0	0	300	300	688	50	0	1	1	blank2r.bmp	0	1	+	0	1	blank2r.bmp	252	1	GWWG	306	3	schön	559	0	0	0	0	0	0	0	0	0	0	0	0	0	0	0	0	0	0	0	0	0	0	0	0	0	0	0	0	0	0	0	0	0	0	0	0	0	0	0
081919	15:21:45	15:23:18	90576	5.0.10.0	5_exp_noRW	104	Rpleas_acq	CS_B	GWWG	JXXJ	MQQM	BZZB	VKKV	YDDY	spielen	treu	schön	fair	ehrlich	retten	strafen	tot	schlecht	faul	eitel	rächen	53pct	acq_USunple_CSpleas1_noRW	acq1_noRW	1	25	0	0	300	300	858	46	0	1	1	blank2r.bmp	0	1	+	0	1	blank2r.bmp	252	1	GWWG	306	3	schlecht	559	0	0	0	0	0	0	0	0	0	0	0	0	0	0	0	0	0	0	0	0	0	0	0	0	0	0	0	0	0	0	0	0	0	0	0	0	0	0	0
081919	15:21:45	15:23:19	92402	5.0.10.0	5_exp_noRW	104	Rpleas_acq	CS_B	GWWG	JXXJ	MQQM	BZZB	VKKV	YDDY	spielen	treu	schön	fair	ehrlich	retten	strafen	tot	schlecht	faul	eitel	rächen	53pct	acq_USpleas_CSpleas1_noRW	acq1_noRW	1	26	0	0	300	300	647	50	0	1	1	blank2r.bmp	0	1	+	0	1	blank2r.bmp	252	1	GWWG	306	2	treu	559	0	0	0	0	0	0	0	0	0	0	0	0	0	0	0	0	0	0	0	0	0	0	0	0	0	0	0	0	0	0	0	0	0	0	0	0	0	0	0
081919	15:21:45	15:23:21	94521	5.0.10.0	5_exp_noRW	104	Rpleas_acq	CS_B	GWWG	JXXJ	MQQM	BZZB	VKKV	YDDY	spielen	treu	schön	fair	ehrlich	retten	strafen	tot	schlecht	faul	eitel	rächen	47pct	acq_USpleas_CSpleas2_noRW	acq1_noRW	1	27	0	0	300	300	942	50	0	1	1	blank2r.bmp	0	1	+	0	1	blank2r.bmp	252	1	JXXJ	306	2	ehrlich	559	0	0	0	0	0	0	0	0	0	0	0	0	0	0	0	0	0	0	0	0	0	0	0	0	0	0	0	0	0	0	0	0	0	0	0	0	0	0	0
081919	15:21:45	15:23:23	96334	5.0.10.0	5_exp_noRW	104	Rpleas_acq	CS_B	GWWG	JXXJ	MQQM	BZZB	VKKV	YDDY	spielen	treu	schön	fair	ehrlich	retten	strafen	tot	schlecht	faul	eitel	rächen	53pct	acq_USpleas_CSunple2_noRW	acq1_noRW	1	28	0	0	300	300	634	50	0	1	1	blank2r.bmp	0	1	+	0	1	blank2r.bmp	252	1	BZZB	306	3	retten	559	0	0	0	0	0	0	0	0	0	0	0	0	0	0	0	0	0	0	0	0	0	0	0	0	0	0	0	0	0	0	0	0	0	0	0	0	0	0	0
081919	15:21:45	15:23:26	98746	5.0.10.0	5_exp_noRW	104	Rpleas_acq	CS_B	GWWG	JXXJ	MQQM	BZZB	VKKV	YDDY	spielen	treu	schön	fair	ehrlich	retten	strafen	tot	schlecht	faul	eitel	rächen	47pct	acq_USunple_CSunple1_noRW	acq1_noRW	1	29	0	0	300	300	1243	46	0	1	1	blank2r.bmp	0	1	+	0	1	blank2r.bmp	252	1	MQQM	306	3	schlecht	559	0	0	0	0	0	0	0	0	0	0	0	0	0	0	0	0	0	0	0	0	0	0	0	0	0	0	0	0	0	0	0	0	0	0	0	0	0	0	0
081919	15:21:45	15:23:28	100612	5.0.10.0	5_exp_noRW	104	Rpleas_acq	CS_B	GWWG	JXXJ	MQQM	BZZB	VKKV	YDDY	spielen	treu	schön	fair	ehrlich	retten	strafen	tot	schlecht	faul	eitel	rächen	53pct	acq_USpleas_CSpleas2_noRW	acq1_noRW	1	30	0	0	300	300	680	50	0	1	1	blank2r.bmp	0	1	+	0	1	blank2r.bmp	252	1	JXXJ	306	1	fair	559	0	0	0	0	0	0	0	0	0	0	0	0	0	0	0	0	0	0	0	0	0	0	0	0	0	0	0	0	0	0	0	0	0	0	0	0	0	0	0
081919	15:21:45	15:23:29	102438	5.0.10.0	5_exp_noRW	104	Rpleas_acq	CS_B	GWWG	JXXJ	MQQM	BZZB	VKKV	YDDY	spielen	treu	schön	fair	ehrlich	retten	strafen	tot	schlecht	faul	eitel	rächen	53pct	acq_USpleas_CSpleas1_noRW	acq1_noRW	1	31	0	0	300	300	659	50	0	1	1	blank2r.bmp	0	1	+	0	1	blank2r.bmp	252	1	GWWG	306	3	schön	559	0	0	0	0	0	0	0	0	0	0	0	0	0	0	0	0	0	0	0	0	0	0	0	0	0	0	0	0	0	0	0	0	0	0	0	0	0	0	0
081919	15:21:45	15:23:32	104890	5.0.10.0	5_exp_noRW	104	Rpleas_acq	CS_B	GWWG	JXXJ	MQQM	BZZB	VKKV	YDDY	spielen	treu	schön	fair	ehrlich	retten	strafen	tot	schlecht	faul	eitel	rächen	53pct	acq_USunple_CSunple1_noRW	acq1_noRW	1	32	0	0	300	300	1075	50	0	0	1	blank2r.bmp	0	1	+	0	1	blank2r.bmp	252	1	MQQM	306	2	tot	559	1	FEHLER	1666	0	0	0	0	0	0	0	0	0	0	0	0	0	0	0	0	0	0	0	0	0	0	0	0	0	0	0	0	0	0	0	0	0	0	0	0
081919	15:21:45	15:23:35	107729	5.0.10.0	5_exp_noRW	104	Rpleas_acq	CS_B	GWWG	JXXJ	MQQM	BZZB	VKKV	YDDY	spielen	treu	schön	fair	ehrlich	retten	strafen	tot	schlecht	faul	eitel	rächen	53pct	acq_USunple_CSunple2_noRW	acq1_noRW	1	33	0	0	300	300	1663	50	0	0	1	blank2r.bmp	0	1	+	0	1	blank2r.bmp	252	1	BZZB	306	1	faul	559	1	FEHLER	2252	0	0	0	0	0	0	0	0	0	0	0	0	0	0	0	0	0	0	0	0	0	0	0	0	0	0	0	0	0	0	0	0	0	0	0	0
081919	15:21:45	15:23:36	109302	5.0.10.0	5_exp_noRW	104	Rpleas_acq	CS_B	GWWG	JXXJ	MQQM	BZZB	VKKV	YDDY	spielen	treu	schön	fair	ehrlich	retten	strafen	tot	schlecht	faul	eitel	rächen	53pct	acq_USpleas_CSpleas2_noRW	acq1_noRW	1	34	0	0	300	300	598	50	0	1	1	blank2r.bmp	0	1	+	0	1	blank2r.bmp	252	1	JXXJ	306	1	fair	559	0	0	0	0	0	0	0	0	0	0	0	0	0	0	0	0	0	0	0	0	0	0	0	0	0	0	0	0	0	0	0	0	0	0	0	0	0	0	0
081919	15:21:45	15:23:38	111141	5.0.10.0	5_exp_noRW	104	Rpleas_acq	CS_B	GWWG	JXXJ	MQQM	BZZB	VKKV	YDDY	spielen	treu	schön	fair	ehrlich	retten	strafen	tot	schlecht	faul	eitel	rächen	47pct	acq_USpleas_CSunple1_noRW	acq1_noRW	1	35	0	0	300	300	671	50	0	1	1	blank2r.bmp	0	1	+	0	1	blank2r.bmp	252	1	MQQM	306	3	schön	559	0	0	0	0	0	0	0	0	0	0	0	0	0	0	0	0	0	0	0	0	0	0	0	0	0	0	0	0	0	0	0	0	0	0	0	0	0	0	0
081919	15:21:45	15:23:40	113007	5.0.10.0	5_exp_noRW	104	Rpleas_acq	CS_B	GWWG	JXXJ	MQQM	BZZB	VKKV	YDDY	spielen	treu	schön	fair	ehrlich	retten	strafen	tot	schlecht	faul	eitel	rächen	47pct	acq_USunple_CSunple2_noRW	acq1_noRW	1	36	0	0	300	300	699	46	0	1	1	blank2r.bmp	0	1	+	0	1	blank2r.bmp	252	1	BZZB	306	1	faul	559	0	0	0	0	0	0	0	0	0	0	0	0	0	0	0	0	0	0	0	0	0	0	0	0	0	0	0	0	0	0	0	0	0	0	0	0	0	0	0
081919	15:21:45	15:23:43	115632	5.0.10.0	5_exp_noRW	104	Rpleas_acq	CS_B	GWWG	JXXJ	MQQM	BZZB	VKKV	YDDY	spielen	treu	schön	fair	ehrlich	retten	strafen	tot	schlecht	faul	eitel	rächen	47pct	acq_USunple_CSunple1_noRW	acq1_noRW	1	37	0	0	300	300	1240	50	0	0	1	blank2r.bmp	0	1	+	0	1	blank2r.bmp	252	1	MQQM	306	1	strafen	559	1	FEHLER	1839	0	0	0	0	0	0	0	0	0	0	0	0	0	0	0	0	0	0	0	0	0	0	0	0	0	0	0	0	0	0	0	0	0	0	0	0
081919	15:21:45	15:23:44	117338	5.0.10.0	5_exp_noRW	104	Rpleas_acq	CS_B	GWWG	JXXJ	MQQM	BZZB	VKKV	YDDY	spielen	treu	schön	fair	ehrlich	retten	strafen	tot	schlecht	faul	eitel	rächen	53pct	acq_USunple_CSunple2_noRW	acq1_noRW	1	38	0	0	300	300	519	50	0	0	1	blank2r.bmp	0	1	+	0	1	blank2r.bmp	252	1	BZZB	306	2	eitel	559	1	FEHLER	1119	0	0	0	0	0	0	0	0	0	0	0	0	0	0	0	0	0	0	0	0	0	0	0	0	0	0	0	0	0	0	0	0	0	0	0	0
081919	15:21:45	15:23:48	120804	5.0.10.0	5_exp_noRW	104	Rpleas_acq	CS_B	GWWG	JXXJ	MQQM	BZZB	VKKV	YDDY	spielen	treu	schön	fair	ehrlich	retten	strafen	tot	schlecht	faul	eitel	rächen	53pct	acq_USunple_CSunple1_noRW	acq1_noRW	1	39	0	0	300	300	2000	0	0	0	1	blank2r.bmp	0	1	+	0	1	blank2r.bmp	252	1	MQQM	306	3	schlecht	559	1	FEHLER	2598	1	Schneller!	2598	0	0	0	0	0	0	0	0	0	0	0	0	0	0	0	0	0	0	0	0	0	0	0	0	0	0	0	0	0	0	0	0	0
081919	15:21:45	15:23:49	122190	5.0.10.0	5_exp_noRW	104	Rpleas_acq	CS_B	GWWG	JXXJ	MQQM	BZZB	VKKV	YDDY	spielen	treu	schön	fair	ehrlich	retten	strafen	tot	schlecht	faul	eitel	rächen	47pct	acq_USpleas_CSpleas2_noRW	acq1_noRW	1	40	0	0	300	300	489	50	0	1	1	blank2r.bmp	0	1	+	0	1	blank2r.bmp	252	1	JXXJ	306	3	retten	559	0	0	0	0	0	0	0	0	0	0	0	0	0	0	0	0	0	0	0	0	0	0	0	0	0	0	0	0	0	0	0	0	0	0	0	0	0	0	0
081919	15:21:45	15:23:51	124349	5.0.10.0	5_exp_noRW	104	Rpleas_acq	CS_B	GWWG	JXXJ	MQQM	BZZB	VKKV	YDDY	spielen	treu	schön	fair	ehrlich	retten	strafen	tot	schlecht	faul	eitel	rächen	47pct	acq_USunple_CSunple2_noRW	acq1_noRW	1	41	0	0	300	300	765	50	0	0	1	blank2r.bmp	0	1	+	0	1	blank2r.bmp	252	1	BZZB	306	3	rächen	559	1	FEHLER	1359	0	0	0	0	0	0	0	0	0	0	0	0	0	0	0	0	0	0	0	0	0	0	0	0	0	0	0	0	0	0	0	0	0	0	0	0
081919	15:21:45	15:23:53	125762	5.0.10.0	5_exp_noRW	104	Rpleas_acq	CS_B	GWWG	JXXJ	MQQM	BZZB	VKKV	YDDY	spielen	treu	schön	fair	ehrlich	retten	strafen	tot	schlecht	faul	eitel	rächen	47pct	acq_USpleas_CSpleas1_noRW	acq1_noRW	1	42	0	0	300	300	464	50	0	1	1	blank2r.bmp	0	1	+	0	1	blank2r.bmp	252	1	GWWG	306	1	spielen	559	0	0	0	0	0	0	0	0	0	0	0	0	0	0	0	0	0	0	0	0	0	0	0	0	0	0	0	0	0	0	0	0	0	0	0	0	0	0	0
081919	15:21:45	15:23:54	127401	5.0.10.0	5_exp_noRW	104	Rpleas_acq	CS_B	GWWG	JXXJ	MQQM	BZZB	VKKV	YDDY	spielen	treu	schön	fair	ehrlich	retten	strafen	tot	schlecht	faul	eitel	rächen	53pct	acq_USpleas_CSpleas2_noRW	acq1_noRW	1	43	0	0	300	300	463	50	0	1	1	blank2r.bmp	0	1	+	0	1	blank2r.bmp	252	1	JXXJ	306	2	ehrlich	559	0	0	0	0	0	0	0	0	0	0	0	0	0	0	0	0	0	0	0	0	0	0	0	0	0	0	0	0	0	0	0	0	0	0	0	0	0	0	0
081919	15:21:45	15:23:56	129040	5.0.10.0	5_exp_noRW	104	Rpleas_acq	CS_B	GWWG	JXXJ	MQQM	BZZB	VKKV	YDDY	spielen	treu	schön	fair	ehrlich	retten	strafen	tot	schlecht	faul	eitel	rächen	53pct	acq_USpleas_CSpleas1_noRW	acq1_noRW	1	44	0	0	300	300	454	50	0	1	1	blank2r.bmp	0	1	+	0	1	blank2r.bmp	252	1	GWWG	306	2	treu	559	0	0	0	0	0	0	0	0	0	0	0	0	0	0	0	0	0	0	0	0	0	0	0	0	0	0	0	0	0	0	0	0	0	0	0	0	0	0	0
081919	15:21:45	15:23:58	130600	5.0.10.0	5_exp_noRW	104	Rpleas_acq	CS_B	GWWG	JXXJ	MQQM	BZZB	VKKV	YDDY	spielen	treu	schön	fair	ehrlich	retten	strafen	tot	schlecht	faul	eitel	rächen	53pct	acq_USpleas_CSpleas2_noRW	acq1_noRW	1	45	0	0	300	300	395	50	0	1	1	blank2r.bmp	0	1	+	0	1	blank2r.bmp	252	1	JXXJ	306	2	ehrlich	559	0	0	0	0	0	0	0	0	0	0	0	0	0	0	0	0	0	0	0	0	0	0	0	0	0	0	0	0	0	0	0	0	0	0	0	0	0	0	0
081919	15:21:45	15:23:59	132279	5.0.10.0	5_exp_noRW	104	Rpleas_acq	CS_B	GWWG	JXXJ	MQQM	BZZB	VKKV	YDDY	spielen	treu	schön	fair	ehrlich	retten	strafen	tot	schlecht	faul	eitel	rächen	53pct	acq_USpleas_CSpleas2_noRW	acq1_noRW	1	46	0	0	300	300	496	50	0	1	1	blank2r.bmp	0	1	+	0	1	blank2r.bmp	252	1	JXXJ	306	3	retten	559	0	0	0	0	0	0	0	0	0	0	0	0	0	0	0	0	0	0	0	0	0	0	0	0	0	0	0	0	0	0	0	0	0	0	0	0	0	0	0
081919	15:21:45	15:24:01	134158	5.0.10.0	5_exp_noRW	104	Rpleas_acq	CS_B	GWWG	JXXJ	MQQM	BZZB	VKKV	YDDY	spielen	treu	schön	fair	ehrlich	retten	strafen	tot	schlecht	faul	eitel	rächen	47pct	acq_USunple_CSpleas1_noRW	acq1_noRW	1	47	0	0	300	300	706	46	0	1	1	blank2r.bmp	0	1	+	0	1	blank2r.bmp	252	1	GWWG	306	1	strafen	559	0	0	0	0	0	0	0	0	0	0	0	0	0	0	0	0	0	0	0	0	0	0	0	0	0	0	0	0	0	0	0	0	0	0	0	0	0	0	0
081919	15:21:45	15:24:03	135824	5.0.10.0	5_exp_noRW	104	Rpleas_acq	CS_B	GWWG	JXXJ	MQQM	BZZB	VKKV	YDDY	spielen	treu	schön	fair	ehrlich	retten	strafen	tot	schlecht	faul	eitel	rächen	53pct	acq_USunple_CSunple2_noRW	acq1_noRW	1	48	0	0	300	300	498	46	0	1	1	blank2r.bmp	0	1	+	0	1	blank2r.bmp	252	1	BZZB	306	1	faul	559	0	0	0	0	0	0	0	0	0	0	0	0	0	0	0	0	0	0	0	0	0	0	0	0	0	0	0	0	0	0	0	0	0	0	0	0	0	0	0
081919	15:21:45	15:24:05	137783	5.0.10.0	5_exp_noRW	104	Rpleas_acq	CS_B	GWWG	JXXJ	MQQM	BZZB	VKKV	YDDY	spielen	treu	schön	fair	ehrlich	retten	strafen	tot	schlecht	faul	eitel	rächen	47pct	acq_USunple_CSpleas2_noRW	acq1_noRW	1	49	0	0	300	300	574	50	0	0	1	blank2r.bmp	0	1	+	0	1	blank2r.bmp	252	1	JXXJ	306	3	rächen	559	1	FEHLER	1172	0	0	0	0	0	0	0	0	0	0	0	0	0	0	0	0	0	0	0	0	0	0	0	0	0	0	0	0	0	0	0	0	0	0	0	0
081919	15:21:45	15:24:06	139183	5.0.10.0	5_exp_noRW	104	Rpleas_acq	CS_B	GWWG	JXXJ	MQQM	BZZB	VKKV	YDDY	spielen	treu	schön	fair	ehrlich	retten	strafen	tot	schlecht	faul	eitel	rächen	53pct	acq_USpleas_CSunple2_noRW	acq1_noRW	1	50	0	0	300	300	439	50	0	1	1	blank2r.bmp	0	1	+	0	1	blank2r.bmp	252	1	BZZB	306	2	ehrlich	559	0	0	0	0	0	0	0	0	0	0	0	0	0	0	0	0	0	0	0	0	0	0	0	0	0	0	0	0	0	0	0	0	0	0	0	0	0	0	0
081919	15:21:45	15:24:08	141022	5.0.10.0	5_exp_noRW	104	Rpleas_acq	CS_B	GWWG	JXXJ	MQQM	BZZB	VKKV	YDDY	spielen	treu	schön	fair	ehrlich	retten	strafen	tot	schlecht	faul	eitel	rächen	47pct	acq_USunple_CSunple1_noRW	acq1_noRW	1	51	0	0	300	300	672	46	0	1	1	blank2r.bmp	0	1	+	0	1	blank2r.bmp	252	1	MQQM	306	2	tot	559	0	0	0	0	0	0	0	0	0	0	0	0	0	0	0	0	0	0	0	0	0	0	0	0	0	0	0	0	0	0	0	0	0	0	0	0	0	0	0
081919	15:21:45	15:24:10	142661	5.0.10.0	5_exp_noRW	104	Rpleas_acq	CS_B	GWWG	JXXJ	MQQM	BZZB	VKKV	YDDY	spielen	treu	schön	fair	ehrlich	retten	strafen	tot	schlecht	faul	eitel	rächen	53pct	acq_USpleas_CSpleas1_noRW	acq1_noRW	1	52	0	0	300	300	458	50	0	1	1	blank2r.bmp	0	1	+	0	1	blank2r.bmp	252	1	GWWG	306	1	spielen	559	0	0	0	0	0	0	0	0	0	0	0	0	0	0	0	0	0	0	0	0	0	0	0	0	0	0	0	0	0	0	0	0	0	0	0	0	0	0	0
081919	15:21:45	15:24:11	144301	5.0.10.0	5_exp_noRW	104	Rpleas_acq	CS_B	GWWG	JXXJ	MQQM	BZZB	VKKV	YDDY	spielen	treu	schön	fair	ehrlich	retten	strafen	tot	schlecht	faul	eitel	rächen	53pct	acq_USpleas_CSpleas1_noRW	acq1_noRW	1	53	0	0	300	300	457	50	0	1	1	blank2r.bmp	0	1	+	0	1	blank2r.bmp	252	1	GWWG	306	3	schön	559	0	0	0	0	0	0	0	0	0	0	0	0	0	0	0	0	0	0	0	0	0	0	0	0	0	0	0	0	0	0	0	0	0	0	0	0	0	0	0
081919	15:21:45	15:24:13	146313	5.0.10.0	5_exp_noRW	104	Rpleas_acq	CS_B	GWWG	JXXJ	MQQM	BZZB	VKKV	YDDY	spielen	treu	schön	fair	ehrlich	retten	strafen	tot	schlecht	faul	eitel	rächen	53pct	acq_USunple_CSunple2_noRW	acq1_noRW	1	54	0	0	300	300	621	50	0	0	1	blank2r.bmp	0	1	+	0	1	blank2r.bmp	252	1	BZZB	306	3	rächen	559	1	FEHLER	1212	0	0	0	0	0	0	0	0	0	0	0	0	0	0	0	0	0	0	0	0	0	0	0	0	0	0	0	0	0	0	0	0	0	0	0	0
081919	15:21:45	15:24:15	148512	5.0.10.0	5_exp_noRW	104	Rpleas_acq	CS_B	GWWG	JXXJ	MQQM	BZZB	VKKV	YDDY	spielen	treu	schön	fair	ehrlich	retten	strafen	tot	schlecht	faul	eitel	rächen	47pct	acq_USunple_CSunple1_noRW	acq1_noRW	1	55	0	0	300	300	1033	50	0	0	1	blank2r.bmp	0	1	+	0	1	blank2r.bmp	252	1	MQQM	306	2	tot	559	1	FEHLER	1626	0	0	0	0	0	0	0	0	0	0	0	0	0	0	0	0	0	0	0	0	0	0	0	0	0	0	0	0	0	0	0	0	0	0	0	0
081919	15:21:45	15:24:17	150112	5.0.10.0	5_exp_noRW	104	Rpleas_acq	CS_B	GWWG	JXXJ	MQQM	BZZB	VKKV	YDDY	spielen	treu	schön	fair	ehrlich	retten	strafen	tot	schlecht	faul	eitel	rächen	53pct	acq_USunple_CSunple2_noRW	acq1_noRW	1	56	0	0	300	300	436	50	0	0	1	blank2r.bmp	0	1	+	0	1	blank2r.bmp	252	1	BZZB	306	2	eitel	559	1	FEHLER	1026	0	0	0	0	0	0	0	0	0	0	0	0	0	0	0	0	0	0	0	0	0	0	0	0	0	0	0	0	0	0	0	0	0	0	0	0
081919	15:21:45	15:24:18	151418	5.0.10.0	5_exp_noRW	104	Rpleas_acq	CS_B	GWWG	JXXJ	MQQM	BZZB	VKKV	YDDY	spielen	treu	schön	fair	ehrlich	retten	strafen	tot	schlecht	faul	eitel	rächen	53pct	acq_USpleas_CSunple1_noRW	acq1_noRW	1	57	0	0	300	300	333	50	0	1	1	blank2r.bmp	0	1	+	0	1	blank2r.bmp	252	1	MQQM	306	2	treu	559	0	0	0	0	0	0	0	0	0	0	0	0	0	0	0	0	0	0	0	0	0	0	0	0	0	0	0	0	0	0	0	0	0	0	0	0	0	0	0
081919	15:21:45	15:24:21	154004	5.0.10.0	5_exp_noRW	104	Rpleas_acq	CS_B	GWWG	JXXJ	MQQM	BZZB	VKKV	YDDY	spielen	treu	schön	fair	ehrlich	retten	strafen	tot	schlecht	faul	eitel	rächen	53pct	acq_USunple_CSunple1_noRW	acq1_noRW	1	58	0	0	300	300	1198	50	0	0	1	blank2r.bmp	0	1	+	0	1	blank2r.bmp	252	1	MQQM	306	1	strafen	559	1	FEHLER	1799	0	0	0	0	0	0	0	0	0	0	0	0	0	0	0	0	0	0	0	0	0	0	0	0	0	0	0	0	0	0	0	0	0	0	0	0
081919	15:21:45	15:24:23	155576	5.0.10.0	5_exp_noRW	104	Rpleas_acq	CS_B	GWWG	JXXJ	MQQM	BZZB	VKKV	YDDY	spielen	treu	schön	fair	ehrlich	retten	strafen	tot	schlecht	faul	eitel	rächen	47pct	acq_USunple_CSunple1_noRW	acq1_noRW	1	59	0	0	300	300	409	50	0	0	1	blank2r.bmp	0	1	+	0	1	blank2r.bmp	252	1	MQQM	306	3	schlecht	559	1	FEHLER	999	0	0	0	0	0	0	0	0	0	0	0	0	0	0	0	0	0	0	0	0	0	0	0	0	0	0	0	0	0	0	0	0	0	0	0	0
081919	15:21:45	15:24:24	156962	5.0.10.0	5_exp_noRW	104	Rpleas_acq	CS_B	GWWG	JXXJ	MQQM	BZZB	VKKV	YDDY	spielen	treu	schön	fair	ehrlich	retten	strafen	tot	schlecht	faul	eitel	rächen	53pct	acq_USpleas_CSpleas2_noRW	acq1_noRW	1	60	0	0	300	300	420	50	0	1	1	blank2r.bmp	0	1	+	0	1	blank2r.bmp	252	1	JXXJ	306	1	fair	559	0	0	0	0	0	0	0	0	0	0	0	0	0	0	0	0	0	0	0	0	0	0	0	0	0	0	0	0	0	0	0	0	0	0	0	0	0	0	0
081919	15:21:45	15:24:26	158642	5.0.10.0	5_exp_noRW	104	Rpleas_acq	CS_B	GWWG	JXXJ	MQQM	BZZB	VKKV	YDDY	spielen	treu	schön	fair	ehrlich	retten	strafen	tot	schlecht	faul	eitel	rächen	53pct	acq_USunple_CSunple2_noRW	acq1_noRW	1	61	0	0	300	300	499	46	0	1	1	blank2r.bmp	0	1	+	0	1	blank2r.bmp	252	1	BZZB	306	1	faul	559	0	0	0	0	0	0	0	0	0	0	0	0	0	0	0	0	0	0	0	0	0	0	0	0	0	0	0	0	0	0	0	0	0	0	0	0	0	0	0
081919	15:21:45	15:24:27	160254	5.0.10.0	5_exp_noRW	104	Rpleas_acq	CS_B	GWWG	JXXJ	MQQM	BZZB	VKKV	YDDY	spielen	treu	schön	fair	ehrlich	retten	strafen	tot	schlecht	faul	eitel	rächen	47pct	acq_USpleas_CSpleas2_noRW	acq1_noRW	1	62	0	0	300	300	446	50	0	1	1	blank2r.bmp	0	1	+	0	1	blank2r.bmp	252	1	JXXJ	306	2	ehrlich	559	0	0	0	0	0	0	0	0	0	0	0	0	0	0	0	0	0	0	0	0	0	0	0	0	0	0	0	0	0	0	0	0	0	0	0	0	0	0	0
081919	15:21:45	15:24:29	161934	5.0.10.0	5_exp_noRW	104	Rpleas_acq	CS_B	GWWG	JXXJ	MQQM	BZZB	VKKV	YDDY	spielen	treu	schön	fair	ehrlich	retten	strafen	tot	schlecht	faul	eitel	rächen	47pct	acq_USpleas_CSpleas2_noRW	acq1_noRW	1	63	0	0	300	300	503	50	0	1	1	blank2r.bmp	0	1	+	0	1	blank2r.bmp	252	1	JXXJ	306	1	fair	559	0	0	0	0	0	0	0	0	0	0	0	0	0	0	0	0	0	0	0	0	0	0	0	0	0	0	0	0	0	0	0	0	0	0	0	0	0	0	0
081919	15:21:45	15:24:32	164613	5.0.10.0	5_exp_noRW	104	Rpleas_acq	CS_B	GWWG	JXXJ	MQQM	BZZB	VKKV	YDDY	spielen	treu	schön	fair	ehrlich	retten	strafen	tot	schlecht	faul	eitel	rächen	53pct	acq_USunple_CSunple1_noRW	acq1_noRW	1	64	0	0	300	300	1290	50	0	0	1	blank2r.bmp	0	1	+	0	1	blank2r.bmp	252	1	MQQM	306	1	strafen	559	1	FEHLER	1879	0	0	0	0	0	0	0	0	0	0	0	0	0	0	0	0	0	0	0	0	0	0	0	0	0	0	0	0	0	0	0	0	0	0	0	0
081919	15:21:45	15:24:33	166065	5.0.10.0	5_exp_noRW	104	Rpleas_acq	CS_B	GWWG	JXXJ	MQQM	BZZB	VKKV	YDDY	spielen	treu	schön	fair	ehrlich	retten	strafen	tot	schlecht	faul	eitel	rächen	53pct	acq_USpleas_CSunple1_noRW	acq1_noRW	1	65	0	0	300	300	478	50	0	1	1	blank2r.bmp	0	1	+	0	1	blank2r.bmp	252	1	MQQM	306	2	treu	559	0	0	0	0	0	0	0	0	0	0	0	0	0	0	0	0	0	0	0	0	0	0	0	0	0	0	0	0	0	0	0	0	0	0	0	0	0	0	0
081919	15:21:45	15:24:35	168491	5.0.10.0	5_exp_noRW	104	Rpleas_acq	CS_B	GWWG	JXXJ	MQQM	BZZB	VKKV	YDDY	spielen	treu	schön	fair	ehrlich	retten	strafen	tot	schlecht	faul	eitel	rächen	47pct	acq_USpleas_CSpleas1_noRW	acq1_noRW	1	66	0	0	300	300	1254	50	0	1	1	blank2r.bmp	0	1	+	0	1	blank2r.bmp	252	1	GWWG	306	1	spielen	559	0	0	0	0	0	0	0	0	0	0	0	0	0	0	0	0	0	0	0	0	0	0	0	0	0	0	0	0	0	0	0	0	0	0	0	0	0	0	0
081919	15:21:45	15:24:38	170957	5.0.10.0	5_exp_noRW	104	Rpleas_acq	CS_B	GWWG	JXXJ	MQQM	BZZB	VKKV	YDDY	spielen	treu	schön	fair	ehrlich	retten	strafen	tot	schlecht	faul	eitel	rächen	53pct	acq_USunple_CSunple2_noRW	acq1_noRW	1	67	0	0	300	300	1083	50	0	0	1	blank2r.bmp	0	1	+	0	1	blank2r.bmp	252	1	BZZB	306	3	rächen	559	1	FEHLER	1679	0	0	0	0	0	0	0	0	0	0	0	0	0	0	0	0	0	0	0	0	0	0	0	0	0	0	0	0	0	0	0	0	0	0	0	0
081919	15:21:45	15:24:39	172516	5.0.10.0	5_exp_noRW	104	Rpleas_acq	CS_B	GWWG	JXXJ	MQQM	BZZB	VKKV	YDDY	spielen	treu	schön	fair	ehrlich	retten	strafen	tot	schlecht	faul	eitel	rächen	47pct	acq_USpleas_CSpleas1_noRW	acq1_noRW	1	68	0	0	300	300	586	50	0	1	1	blank2r.bmp	0	1	+	0	1	blank2r.bmp	252	1	GWWG	306	2	treu	559	0	0	0	0	0	0	0	0	0	0	0	0	0	0	0	0	0	0	0	0	0	0	0	0	0	0	0	0	0	0	0	0	0	0	0	0	0	0	0
081919	15:21:45	15:24:41	174502	5.0.10.0	5_exp_noRW	104	Rpleas_acq	CS_B	GWWG	JXXJ	MQQM	BZZB	VKKV	YDDY	spielen	treu	schön	fair	ehrlich	retten	strafen	tot	schlecht	faul	eitel	rächen	53pct	acq_USunple_CSunple2_noRW	acq1_noRW	1	69	0	0	300	300	603	50	0	0	1	blank2r.bmp	0	1	+	0	1	blank2r.bmp	252	1	BZZB	306	2	eitel	559	1	FEHLER	1199	0	0	0	0	0	0	0	0	0	0	0	0	0	0	0	0	0	0	0	0	0	0	0	0	0	0	0	0	0	0	0	0	0	0	0	0
081919	15:21:45	15:24:43	176261	5.0.10.0	5_exp_noRW	104	Rpleas_acq	CS_B	GWWG	JXXJ	MQQM	BZZB	VKKV	YDDY	spielen	treu	schön	fair	ehrlich	retten	strafen	tot	schlecht	faul	eitel	rächen	53pct	acq_USunple_CSunple1_noRW	acq1_noRW	1	70	0	0	300	300	809	46	0	1	1	blank2r.bmp	0	1	+	0	1	blank2r.bmp	252	1	MQQM	306	3	schlecht	559	0	0	0	0	0	0	0	0	0	0	0	0	0	0	0	0	0	0	0	0	0	0	0	0	0	0	0	0	0	0	0	0	0	0	0	0	0	0	0
081919	15:21:45	15:24:45	177847	5.0.10.0	5_exp_noRW	104	Rpleas_acq	CS_B	GWWG	JXXJ	MQQM	BZZB	VKKV	YDDY	spielen	treu	schön	fair	ehrlich	retten	strafen	tot	schlecht	faul	eitel	rächen	47pct	acq_USpleas_CSunple2_noRW	acq1_noRW	1	71	0	0	300	300	411	50	0	1	1	blank2r.bmp	0	1	+	0	1	blank2r.bmp	252	1	BZZB	306	2	ehrlich	559	0	0	0	0	0	0	0	0	0	0	0	0	0	0	0	0	0	0	0	0	0	0	0	0	0	0	0	0	0	0	0	0	0	0	0	0	0	0	0
081919	15:21:45	15:24:47	179553	5.0.10.0	5_exp_noRW	104	Rpleas_acq	CS_B	GWWG	JXXJ	MQQM	BZZB	VKKV	YDDY	spielen	treu	schön	fair	ehrlich	retten	strafen	tot	schlecht	faul	eitel	rächen	47pct	acq_USunple_CSunple1_noRW	acq1_noRW	1	72	0	0	300	300	521	46	0	1	1	blank2r.bmp	0	1	+	0	1	blank2r.bmp	252	1	MQQM	306	2	tot	559	0	0	0	0	0	0	0	0	0	0	0	0	0	0	0	0	0	0	0	0	0	0	0	0	0	0	0	0	0	0	0	0	0	0	0	0	0	0	0
081919	15:21:45	15:24:48	181352	5.0.10.0	5_exp_noRW	104	Rpleas_acq	CS_B	GWWG	JXXJ	MQQM	BZZB	VKKV	YDDY	spielen	treu	schön	fair	ehrlich	retten	strafen	tot	schlecht	faul	eitel	rächen	47pct	acq_USunple_CSpleas2_noRW	acq1_noRW	1	73	0	0	300	300	438	50	0	0	1	blank2r.bmp	0	1	+	0	1	blank2r.bmp	252	1	JXXJ	306	3	rächen	559	1	FEHLER	1026	0	0	0	0	0	0	0	0	0	0	0	0	0	0	0	0	0	0	0	0	0	0	0	0	0	0	0	0	0	0	0	0	0	0	0	0
081919	15:21:45	15:24:50	183112	5.0.10.0	5_exp_noRW	104	Rpleas_acq	CS_B	GWWG	JXXJ	MQQM	BZZB	VKKV	YDDY	spielen	treu	schön	fair	ehrlich	retten	strafen	tot	schlecht	faul	eitel	rächen	47pct	acq_USunple_CSunple2_noRW	acq1_noRW	1	74	0	0	300	300	569	50	0	0	1	blank2r.bmp	0	1	+	0	1	blank2r.bmp	252	1	BZZB	306	2	eitel	559	1	FEHLER	1159	0	0	0	0	0	0	0	0	0	0	0	0	0	0	0	0	0	0	0	0	0	0	0	0	0	0	0	0	0	0	0	0	0	0	0	0
081919	15:21:45	15:24:52	184565	5.0.10.0	5_exp_noRW	104	Rpleas_acq	CS_B	GWWG	JXXJ	MQQM	BZZB	VKKV	YDDY	spielen	treu	schön	fair	ehrlich	retten	strafen	tot	schlecht	faul	eitel	rächen	53pct	acq_USpleas_CSpleas2_noRW	acq1_noRW	1	75	0	0	300	300	499	50	0	1	1	blank2r.bmp	0	1	+	0	1	blank2r.bmp	252	1	JXXJ	306	3	retten	559	0	0	0	0	0	0	0	0	0	0	0	0	0	0	0	0	0	0	0	0	0	0	0	0	0	0	0	0	0	0	0	0	0	0	0	0	0	0	0
081919	15:21:45	15:24:53	186177	5.0.10.0	5_exp_noRW	104	Rpleas_acq	CS_B	GWWG	JXXJ	MQQM	BZZB	VKKV	YDDY	spielen	treu	schön	fair	ehrlich	retten	strafen	tot	schlecht	faul	eitel	rächen	53pct	acq_USpleas_CSpleas2_noRW	acq1_noRW	1	76	0	0	300	300	426	50	0	1	1	blank2r.bmp	0	1	+	0	1	blank2r.bmp	252	1	JXXJ	306	2	ehrlich	559	0	0	0	0	0	0	0	0	0	0	0	0	0	0	0	0	0	0	0	0	0	0	0	0	0	0	0	0	0	0	0	0	0	0	0	0	0	0	0
081919	15:21:45	15:24:55	187897	5.0.10.0	5_exp_noRW	104	Rpleas_acq	CS_B	GWWG	JXXJ	MQQM	BZZB	VKKV	YDDY	spielen	treu	schön	fair	ehrlich	retten	strafen	tot	schlecht	faul	eitel	rächen	47pct	acq_USpleas_CSpleas1_noRW	acq1_noRW	1	77	0	0	300	300	556	50	0	1	1	blank2r.bmp	0	1	+	0	1	blank2r.bmp	252	1	GWWG	306	3	schön	559	0	0	0	0	0	0	0	0	0	0	0	0	0	0	0	0	0	0	0	0	0	0	0	0	0	0	0	0	0	0	0	0	0	0	0	0	0	0	0
081919	15:21:45	15:24:57	189576	5.0.10.0	5_exp_noRW	104	Rpleas_acq	CS_B	GWWG	JXXJ	MQQM	BZZB	VKKV	YDDY	spielen	treu	schön	fair	ehrlich	retten	strafen	tot	schlecht	faul	eitel	rächen	53pct	acq_USunple_CSunple1_noRW	acq1_noRW	1	78	0	0	300	300	498	46	0	1	1	blank2r.bmp	0	1	+	0	1	blank2r.bmp	252	1	MQQM	306	3	schlecht	559	0	0	0	0	0	0	0	0	0	0	0	0	0	0	0	0	0	0	0	0	0	0	0	0	0	0	0	0	0	0	0	0	0	0	0	0	0	0	0
081919	15:21:45	15:24:58	191228	5.0.10.0	5_exp_noRW	104	Rpleas_acq	CS_B	GWWG	JXXJ	MQQM	BZZB	VKKV	YDDY	spielen	treu	schön	fair	ehrlich	retten	strafen	tot	schlecht	faul	eitel	rächen	47pct	acq_USpleas_CSpleas1_noRW	acq1_noRW	1	79	0	0	300	300	487	50	0	1	1	blank2r.bmp	0	1	+	0	1	blank2r.bmp	252	1	GWWG	306	3	schön	559	0	0	0	0	0	0	0	0	0	0	0	0	0	0	0	0	0	0	0	0	0	0	0	0	0	0	0	0	0	0	0	0	0	0	0	0	0	0	0
081919	15:21:45	15:25:00	192881	5.0.10.0	5_exp_noRW	104	Rpleas_acq	CS_B	GWWG	JXXJ	MQQM	BZZB	VKKV	YDDY	spielen	treu	schön	fair	ehrlich	retten	strafen	tot	schlecht	faul	eitel	rächen	47pct	acq_USunple_CSpleas1_noRW	acq1_noRW	1	80	0	0	300	300	490	46	0	1	1	blank2r.bmp	0	1	+	0	1	blank2r.bmp	252	1	GWWG	306	2	tot	559	0	0	0	0	0	0	0	0	0	0	0	0	0	0	0	0	0	0	0	0	0	0	0	0	0	0	0	0	0	0	0	0	0	0	0	0	0	0	0
081919	15:21:45	15:25:12	204636	5.0.10.0	5_exp_noRW	104	Rpleas_acq	CS_B	GWWG	JXXJ	MQQM	BZZB	VKKV	YDDY	spielen	treu	schön	fair	ehrlich	retten	strafen	tot	schlecht	faul	eitel	rächen	47pct	acq_USunple_CSunple1_noRW	acq23456_noRW	2	1	0	0	300	300	340	50	0	0	1	blank2r.bmp	0	1	+	0	1	blank2r.bmp	252	1	MQQM	306	2	tot	559	1	FEHLER	932	0	0	0	0	0	0	0	0	0	0	0	0	0	0	0	0	0	0	0	0	0	0	0	0	0	0	0	0	0	0	0	0	0	0	0	0
081919	15:21:45	15:25:13	206129	5.0.10.0	5_exp_noRW	104	Rpleas_acq	CS_B	GWWG	JXXJ	MQQM	BZZB	VKKV	YDDY	spielen	treu	schön	fair	ehrlich	retten	strafen	tot	schlecht	faul	eitel	rächen	53pct	acq_USunple_CSunple2_noRW	acq23456_noRW	2	2	0	0	300	300	529	46	0	1	1	blank2r.bmp	0	1	+	0	1	blank2r.bmp	252	1	BZZB	306	1	faul	559	0	0	0	0	0	0	0	0	0	0	0	0	0	0	0	0	0	0	0	0	0	0	0	0	0	0	0	0	0	0	0	0	0	0	0	0	0	0	0
081919	15:21:45	15:25:15	207782	5.0.10.0	5_exp_noRW	104	Rpleas_acq	CS_B	GWWG	JXXJ	MQQM	BZZB	VKKV	YDDY	spielen	treu	schön	fair	ehrlich	retten	strafen	tot	schlecht	faul	eitel	rächen	47pct	acq_USpleas_CSunple2_noRW	acq23456_noRW	2	3	0	0	300	300	475	50	0	1	1	blank2r.bmp	0	1	+	0	1	blank2r.bmp	252	1	BZZB	306	1	fair	559	0	0	0	0	0	0	0	0	0	0	0	0	0	0	0	0	0	0	0	0	0	0	0	0	0	0	0	0	0	0	0	0	0	0	0	0	0	0	0
081919	15:21:45	15:25:16	209488	5.0.10.0	5_exp_noRW	104	Rpleas_acq	CS_B	GWWG	JXXJ	MQQM	BZZB	VKKV	YDDY	spielen	treu	schön	fair	ehrlich	retten	strafen	tot	schlecht	faul	eitel	rächen	47pct	acq_USunple_CSunple1_noRW	acq23456_noRW	2	4	0	0	300	300	534	46	0	1	1	blank2r.bmp	0	1	+	0	1	blank2r.bmp	252	1	MQQM	306	1	strafen	559	0	0	0	0	0	0	0	0	0	0	0	0	0	0	0	0	0	0	0	0	0	0	0	0	0	0	0	0	0	0	0	0	0	0	0	0	0	0	0
081919	15:21:45	15:25:18	211314	5.0.10.0	5_exp_noRW	104	Rpleas_acq	CS_B	GWWG	JXXJ	MQQM	BZZB	VKKV	YDDY	spielen	treu	schön	fair	ehrlich	retten	strafen	tot	schlecht	faul	eitel	rächen	53pct	acq_USpleas_CSpleas2_noRW	acq23456_noRW	2	5	0	0	300	300	447	46	0	0	1	blank2r.bmp	0	1	+	0	1	blank2r.bmp	252	1	JXXJ	306	1	fair	559	1	FEHLER	1039	0	0	0	0	0	0	0	0	0	0	0	0	0	0	0	0	0	0	0	0	0	0	0	0	0	0	0	0	0	0	0	0	0	0	0	0
081919	15:21:45	15:25:20	212700	5.0.10.0	5_exp_noRW	104	Rpleas_acq	CS_B	GWWG	JXXJ	MQQM	BZZB	VKKV	YDDY	spielen	treu	schön	fair	ehrlich	retten	strafen	tot	schlecht	faul	eitel	rächen	53pct	acq_USpleas_CSpleas1_noRW	acq23456_noRW	2	6	0	0	300	300	417	50	0	1	1	blank2r.bmp	0	1	+	0	1	blank2r.bmp	252	1	GWWG	306	1	spielen	559	0	0	0	0	0	0	0	0	0	0	0	0	0	0	0	0	0	0	0	0	0	0	0	0	0	0	0	0	0	0	0	0	0	0	0	0	0	0	0
081919	15:21:45	15:25:22	214619	5.0.10.0	5_exp_noRW	104	Rpleas_acq	CS_B	GWWG	JXXJ	MQQM	BZZB	VKKV	YDDY	spielen	treu	schön	fair	ehrlich	retten	strafen	tot	schlecht	faul	eitel	rächen	53pct	acq_USunple_CSunple2_noRW	acq23456_noRW	2	7	0	0	300	300	542	50	0	0	1	blank2r.bmp	0	1	+	0	1	blank2r.bmp	252	1	BZZB	306	3	rächen	559	1	FEHLER	1132	0	0	0	0	0	0	0	0	0	0	0	0	0	0	0	0	0	0	0	0	0	0	0	0	0	0	0	0	0	0	0	0	0	0	0	0
081919	15:21:45	15:25:23	216018	5.0.10.0	5_exp_noRW	104	Rpleas_acq	CS_B	GWWG	JXXJ	MQQM	BZZB	VKKV	YDDY	spielen	treu	schön	fair	ehrlich	retten	strafen	tot	schlecht	faul	eitel	rächen	53pct	acq_USpleas_CSpleas1_noRW	acq23456_noRW	2	8	0	0	300	300	434	50	0	1	1	blank2r.bmp	0	1	+	0	1	blank2r.bmp	252	1	GWWG	306	2	treu	559	0	0	0	0	0	0	0	0	0	0	0	0	0	0	0	0	0	0	0	0	0	0	0	0	0	0	0	0	0	0	0	0	0	0	0	0	0	0	0
081919	15:21:45	15:25:25	217631	5.0.10.0	5_exp_noRW	104	Rpleas_acq	CS_B	GWWG	JXXJ	MQQM	BZZB	VKKV	YDDY	spielen	treu	schön	fair	ehrlich	retten	strafen	tot	schlecht	faul	eitel	rächen	47pct	acq_USpleas_CSpleas2_noRW	acq23456_noRW	2	9	0	0	300	300	441	50	0	1	1	blank2r.bmp	0	1	+	0	1	blank2r.bmp	252	1	JXXJ	306	3	retten	559	0	0	0	0	0	0	0	0	0	0	0	0	0	0	0	0	0	0	0	0	0	0	0	0	0	0	0	0	0	0	0	0	0	0	0	0	0	0	0
081919	15:21:45	15:25:26	219497	5.0.10.0	5_exp_noRW	104	Rpleas_acq	CS_B	GWWG	JXXJ	MQQM	BZZB	VKKV	YDDY	spielen	treu	schön	fair	ehrlich	retten	strafen	tot	schlecht	faul	eitel	rächen	53pct	acq_USunple_CSunple2_noRW	acq23456_noRW	2	10	0	0	300	300	487	50	0	0	1	blank2r.bmp	0	1	+	0	1	blank2r.bmp	252	1	BZZB	306	2	eitel	559	1	FEHLER	1079	0	0	0	0	0	0	0	0	0	0	0	0	0	0	0	0	0	0	0	0	0	0	0	0	0	0	0	0	0	0	0	0	0	0	0	0
081919	15:21:45	15:25:28	221016	5.0.10.0	5_exp_noRW	104	Rpleas_acq	CS_B	GWWG	JXXJ	MQQM	BZZB	VKKV	YDDY	spielen	treu	schön	fair	ehrlich	retten	strafen	tot	schlecht	faul	eitel	rächen	53pct	acq_USunple_CSpleas2_noRW	acq23456_noRW	2	11	0	0	300	300	549	46	0	1	1	blank2r.bmp	0	1	+	0	1	blank2r.bmp	252	1	JXXJ	306	1	faul	559	0	0	0	0	0	0	0	0	0	0	0	0	0	0	0	0	0	0	0	0	0	0	0	0	0	0	0	0	0	0	0	0	0	0	0	0	0	0	0
081919	15:21:45	15:25:30	222642	5.0.10.0	5_exp_noRW	104	Rpleas_acq	CS_B	GWWG	JXXJ	MQQM	BZZB	VKKV	YDDY	spielen	treu	schön	fair	ehrlich	retten	strafen	tot	schlecht	faul	eitel	rächen	53pct	acq_USpleas_CSpleas1_noRW	acq23456_noRW	2	12	0	0	300	300	451	50	0	1	1	blank2r.bmp	0	1	+	0	1	blank2r.bmp	252	1	GWWG	306	1	spielen	559	0	0	0	0	0	0	0	0	0	0	0	0	0	0	0	0	0	0	0	0	0	0	0	0	0	0	0	0	0	0	0	0	0	0	0	0	0	0	0
081919	15:21:45	15:25:31	224242	5.0.10.0	5_exp_noRW	104	Rpleas_acq	CS_B	GWWG	JXXJ	MQQM	BZZB	VKKV	YDDY	spielen	treu	schön	fair	ehrlich	retten	strafen	tot	schlecht	faul	eitel	rächen	53pct	acq_USunple_CSpleas1_noRW	acq23456_noRW	2	13	0	0	300	300	437	46	0	1	1	blank2r.bmp	0	1	+	0	1	blank2r.bmp	252	1	GWWG	306	3	schlecht	559	0	0	0	0	0	0	0	0	0	0	0	0	0	0	0	0	0	0	0	0	0	0	0	0	0	0	0	0	0	0	0	0	0	0	0	0	0	0	0
081919	15:21:45	15:25:33	225854	5.0.10.0	5_exp_noRW	104	Rpleas_acq	CS_B	GWWG	JXXJ	MQQM	BZZB	VKKV	YDDY	spielen	treu	schön	fair	ehrlich	retten	strafen	tot	schlecht	faul	eitel	rächen	47pct	acq_USpleas_CSunple1_noRW	acq23456_noRW	2	14	0	0	300	300	438	50	0	1	1	blank2r.bmp	0	1	+	0	1	blank2r.bmp	252	1	MQQM	306	1	spielen	559	0	0	0	0	0	0	0	0	0	0	0	0	0	0	0	0	0	0	0	0	0	0	0	0	0	0	0	0	0	0	0	0	0	0	0	0	0	0	0
081919	15:21:45	15:25:35	227587	5.0.10.0	5_exp_noRW	104	Rpleas_acq	CS_B	GWWG	JXXJ	MQQM	BZZB	VKKV	YDDY	spielen	treu	schön	fair	ehrlich	retten	strafen	tot	schlecht	faul	eitel	rächen	53pct	acq_USpleas_CSpleas1_noRW	acq23456_noRW	2	15	0	0	300	300	550	50	0	1	1	blank2r.bmp	0	1	+	0	1	blank2r.bmp	252	1	GWWG	306	3	schön	559	0	0	0	0	0	0	0	0	0	0	0	0	0	0	0	0	0	0	0	0	0	0	0	0	0	0	0	0	0	0	0	0	0	0	0	0	0	0	0
081919	15:21:45	15:25:36	229280	5.0.10.0	5_exp_noRW	104	Rpleas_acq	CS_B	GWWG	JXXJ	MQQM	BZZB	VKKV	YDDY	spielen	treu	schön	fair	ehrlich	retten	strafen	tot	schlecht	faul	eitel	rächen	47pct	acq_USpleas_CSpleas2_noRW	acq23456_noRW	2	16	0	0	300	300	508	50	0	1	1	blank2r.bmp	0	1	+	0	1	blank2r.bmp	252	1	JXXJ	306	3	retten	559	0	0	0	0	0	0	0	0	0	0	0	0	0	0	0	0	0	0	0	0	0	0	0	0	0	0	0	0	0	0	0	0	0	0	0	0	0	0	0
081919	15:21:45	15:25:38	230946	5.0.10.0	5_exp_noRW	104	Rpleas_acq	CS_B	GWWG	JXXJ	MQQM	BZZB	VKKV	YDDY	spielen	treu	schön	fair	ehrlich	retten	strafen	tot	schlecht	faul	eitel	rächen	53pct	acq_USunple_CSunple1_noRW	acq23456_noRW	2	17	0	0	300	300	492	46	0	1	1	blank2r.bmp	0	1	+	0	1	blank2r.bmp	252	1	MQQM	306	2	tot	559	0	0	0	0	0	0	0	0	0	0	0	0	0	0	0	0	0	0	0	0	0	0	0	0	0	0	0	0	0	0	0	0	0	0	0	0	0	0	0
081919	15:21:45	15:25:40	232612	5.0.10.0	5_exp_noRW	104	Rpleas_acq	CS_B	GWWG	JXXJ	MQQM	BZZB	VKKV	YDDY	spielen	treu	schön	fair	ehrlich	retten	strafen	tot	schlecht	faul	eitel	rächen	53pct	acq_USunple_CSunple2_noRW	acq23456_noRW	2	18	0	0	300	300	499	46	0	1	1	blank2r.bmp	0	1	+	0	1	blank2r.bmp	252	1	BZZB	306	1	faul	559	0	0	0	0	0	0	0	0	0	0	0	0	0	0	0	0	0	0	0	0	0	0	0	0	0	0	0	0	0	0	0	0	0	0	0	0	0	0	0
081919	15:21:45	15:25:41	234504	5.0.10.0	5_exp_noRW	104	Rpleas_acq	CS_B	GWWG	JXXJ	MQQM	BZZB	VKKV	YDDY	spielen	treu	schön	fair	ehrlich	retten	strafen	tot	schlecht	faul	eitel	rächen	47pct	acq_USpleas_CSpleas2_noRW	acq23456_noRW	2	19	0	0	300	300	712	50	0	1	1	blank2r.bmp	0	1	+	0	1	blank2r.bmp	252	1	JXXJ	306	2	ehrlich	559	0	0	0	0	0	0	0	0	0	0	0	0	0	0	0	0	0	0	0	0	0	0	0	0	0	0	0	0	0	0	0	0	0	0	0	0	0	0	0
081919	15:21:45	15:25:43	236264	5.0.10.0	5_exp_noRW	104	Rpleas_acq	CS_B	GWWG	JXXJ	MQQM	BZZB	VKKV	YDDY	spielen	treu	schön	fair	ehrlich	retten	strafen	tot	schlecht	faul	eitel	rächen	53pct	acq_USunple_CSunple1_noRW	acq23456_noRW	2	20	0	0	300	300	589	46	0	1	1	blank2r.bmp	0	1	+	0	1	blank2r.bmp	252	1	MQQM	306	3	schlecht	559	0	0	0	0	0	0	0	0	0	0	0	0	0	0	0	0	0	0	0	0	0	0	0	0	0	0	0	0	0	0	0	0	0	0	0	0	0	0	0
081919	15:21:45	15:25:45	237876	5.0.10.0	5_exp_noRW	104	Rpleas_acq	CS_B	GWWG	JXXJ	MQQM	BZZB	VKKV	YDDY	spielen	treu	schön	fair	ehrlich	retten	strafen	tot	schlecht	faul	eitel	rächen	53pct	acq_USpleas_CSpleas1_noRW	acq23456_noRW	2	21	0	0	300	300	437	50	0	1	1	blank2r.bmp	0	1	+	0	1	blank2r.bmp	252	1	GWWG	306	2	treu	559	0	0	0	0	0	0	0	0	0	0	0	0	0	0	0	0	0	0	0	0	0	0	0	0	0	0	0	0	0	0	0	0	0	0	0	0	0	0	0
081919	15:21:45	15:25:47	239609	5.0.10.0	5_exp_noRW	104	Rpleas_acq	CS_B	GWWG	JXXJ	MQQM	BZZB	VKKV	YDDY	spielen	treu	schön	fair	ehrlich	retten	strafen	tot	schlecht	faul	eitel	rächen	47pct	acq_USpleas_CSpleas2_noRW	acq23456_noRW	2	22	0	0	300	300	550	50	0	1	1	blank2r.bmp	0	1	+	0	1	blank2r.bmp	252	1	JXXJ	306	1	fair	559	0	0	0	0	0	0	0	0	0	0	0	0	0	0	0	0	0	0	0	0	0	0	0	0	0	0	0	0	0	0	0	0	0	0	0	0	0	0	0
081919	15:21:45	15:25:48	241222	5.0.10.0	5_exp_noRW	104	Rpleas_acq	CS_B	GWWG	JXXJ	MQQM	BZZB	VKKV	YDDY	spielen	treu	schön	fair	ehrlich	retten	strafen	tot	schlecht	faul	eitel	rächen	53pct	acq_USunple_CSunple1_noRW	acq23456_noRW	2	23	0	0	300	300	441	46	0	1	1	blank2r.bmp	0	1	+	0	1	blank2r.bmp	252	1	MQQM	306	1	strafen	559	0	0	0	0	0	0	0	0	0	0	0	0	0	0	0	0	0	0	0	0	0	0	0	0	0	0	0	0	0	0	0	0	0	0	0	0	0	0	0
081919	15:21:45	15:25:50	242954	5.0.10.0	5_exp_noRW	104	Rpleas_acq	CS_B	GWWG	JXXJ	MQQM	BZZB	VKKV	YDDY	spielen	treu	schön	fair	ehrlich	retten	strafen	tot	schlecht	faul	eitel	rächen	53pct	acq_USunple_CSunple1_noRW	acq23456_noRW	2	24	0	0	300	300	554	46	0	1	1	blank2r.bmp	0	1	+	0	1	blank2r.bmp	252	1	MQQM	306	1	strafen	559	0	0	0	0	0	0	0	0	0	0	0	0	0	0	0	0	0	0	0	0	0	0	0	0	0	0	0	0	0	0	0	0	0	0	0	0	0	0	0
081919	15:21:45	15:25:52	244647	5.0.10.0	5_exp_noRW	104	Rpleas_acq	CS_B	GWWG	JXXJ	MQQM	BZZB	VKKV	YDDY	spielen	treu	schön	fair	ehrlich	retten	strafen	tot	schlecht	faul	eitel	rächen	47pct	acq_USpleas_CSpleas2_noRW	acq23456_noRW	2	25	0	0	300	300	512	50	0	1	1	blank2r.bmp	0	1	+	0	1	blank2r.bmp	252	1	JXXJ	306	2	ehrlich	559	0	0	0	0	0	0	0	0	0	0	0	0	0	0	0	0	0	0	0	0	0	0	0	0	0	0	0	0	0	0	0	0	0	0	0	0	0	0	0
081919	15:21:45	15:25:53	246486	5.0.10.0	5_exp_noRW	104	Rpleas_acq	CS_B	GWWG	JXXJ	MQQM	BZZB	VKKV	YDDY	spielen	treu	schön	fair	ehrlich	retten	strafen	tot	schlecht	faul	eitel	rächen	47pct	acq_USunple_CSunple2_noRW	acq23456_noRW	2	26	0	0	300	300	674	46	0	1	1	blank2r.bmp	0	1	+	0	1	blank2r.bmp	252	1	BZZB	306	3	rächen	559	0	0	0	0	0	0	0	0	0	0	0	0	0	0	0	0	0	0	0	0	0	0	0	0	0	0	0	0	0	0	0	0	0	0	0	0	0	0	0
081919	15:21:45	15:25:55	248205	5.0.10.0	5_exp_noRW	104	Rpleas_acq	CS_B	GWWG	JXXJ	MQQM	BZZB	VKKV	YDDY	spielen	treu	schön	fair	ehrlich	retten	strafen	tot	schlecht	faul	eitel	rächen	47pct	acq_USunple_CSunple2_noRW	acq23456_noRW	2	27	0	0	300	300	548	46	0	1	1	blank2r.bmp	0	1	+	0	1	blank2r.bmp	252	1	BZZB	306	1	faul	559	0	0	0	0	0	0	0	0	0	0	0	0	0	0	0	0	0	0	0	0	0	0	0	0	0	0	0	0	0	0	0	0	0	0	0	0	0	0	0
081919	15:21:45	15:25:57	249925	5.0.10.0	5_exp_noRW	104	Rpleas_acq	CS_B	GWWG	JXXJ	MQQM	BZZB	VKKV	YDDY	spielen	treu	schön	fair	ehrlich	retten	strafen	tot	schlecht	faul	eitel	rächen	53pct	acq_USunple_CSunple1_noRW	acq23456_noRW	2	28	0	0	300	300	550	46	0	1	1	blank2r.bmp	0	1	+	0	1	blank2r.bmp	252	1	MQQM	306	2	tot	559	0	0	0	0	0	0	0	0	0	0	0	0	0	0	0	0	0	0	0	0	0	0	0	0	0	0	0	0	0	0	0	0	0	0	0	0	0	0	0
081919	15:21:45	15:25:59	251617	5.0.10.0	5_exp_noRW	104	Rpleas_acq	CS_B	GWWG	JXXJ	MQQM	BZZB	VKKV	YDDY	spielen	treu	schön	fair	ehrlich	retten	strafen	tot	schlecht	faul	eitel	rächen	47pct	acq_USpleas_CSunple2_noRW	acq23456_noRW	2	29	0	0	300	300	516	50	0	1	1	blank2r.bmp	0	1	+	0	1	blank2r.bmp	252	1	BZZB	306	3	retten	559	0	0	0	0	0	0	0	0	0	0	0	0	0	0	0	0	0	0	0	0	0	0	0	0	0	0	0	0	0	0	0	0	0	0	0	0	0	0	0
081919	15:21:45	15:26:00	253510	5.0.10.0	5_exp_noRW	104	Rpleas_acq	CS_B	GWWG	JXXJ	MQQM	BZZB	VKKV	YDDY	spielen	treu	schön	fair	ehrlich	retten	strafen	tot	schlecht	faul	eitel	rächen	53pct	acq_USunple_CSunple2_noRW	acq23456_noRW	2	30	0	0	300	300	729	46	0	1	1	blank2r.bmp	0	1	+	0	1	blank2r.bmp	252	1	BZZB	306	2	eitel	559	0	0	0	0	0	0	0	0	0	0	0	0	0	0	0	0	0	0	0	0	0	0	0	0	0	0	0	0	0	0	0	0	0	0	0	0	0	0	0
081919	15:21:45	15:26:02	255349	5.0.10.0	5_exp_noRW	104	Rpleas_acq	CS_B	GWWG	JXXJ	MQQM	BZZB	VKKV	YDDY	spielen	treu	schön	fair	ehrlich	retten	strafen	tot	schlecht	faul	eitel	rächen	53pct	acq_USunple_CSunple2_noRW	acq23456_noRW	2	31	0	0	300	300	441	50	0	0	1	blank2r.bmp	0	1	+	0	1	blank2r.bmp	252	1	BZZB	306	3	rächen	559	1	FEHLER	1039	0	0	0	0	0	0	0	0	0	0	0	0	0	0	0	0	0	0	0	0	0	0	0	0	0	0	0	0	0	0	0	0	0	0	0	0
081919	15:21:45	15:26:04	256829	5.0.10.0	5_exp_noRW	104	Rpleas_acq	CS_B	GWWG	JXXJ	MQQM	BZZB	VKKV	YDDY	spielen	treu	schön	fair	ehrlich	retten	strafen	tot	schlecht	faul	eitel	rächen	47pct	acq_USpleas_CSpleas1_noRW	acq23456_noRW	2	32	0	0	300	300	527	50	0	1	1	blank2r.bmp	0	1	+	0	1	blank2r.bmp	252	1	GWWG	306	3	schön	559	0	0	0	0	0	0	0	0	0	0	0	0	0	0	0	0	0	0	0	0	0	0	0	0	0	0	0	0	0	0	0	0	0	0	0	0	0	0	0
081919	15:21:45	15:26:06	258641	5.0.10.0	5_exp_noRW	104	Rpleas_acq	CS_B	GWWG	JXXJ	MQQM	BZZB	VKKV	YDDY	spielen	treu	schön	fair	ehrlich	retten	strafen	tot	schlecht	faul	eitel	rächen	53pct	acq_USpleas_CSpleas2_noRW	acq23456_noRW	2	33	0	0	300	300	642	50	0	1	1	blank2r.bmp	0	1	+	0	1	blank2r.bmp	252	1	JXXJ	306	1	fair	559	0	0	0	0	0	0	0	0	0	0	0	0	0	0	0	0	0	0	0	0	0	0	0	0	0	0	0	0	0	0	0	0	0	0	0	0	0	0	0
081919	15:21:45	15:26:07	260267	5.0.10.0	5_exp_noRW	104	Rpleas_acq	CS_B	GWWG	JXXJ	MQQM	BZZB	VKKV	YDDY	spielen	treu	schön	fair	ehrlich	retten	strafen	tot	schlecht	faul	eitel	rächen	47pct	acq_USpleas_CSpleas1_noRW	acq23456_noRW	2	34	0	0	300	300	461	50	0	1	1	blank2r.bmp	0	1	+	0	1	blank2r.bmp	252	1	GWWG	306	2	treu	559	0	0	0	0	0	0	0	0	0	0	0	0	0	0	0	0	0	0	0	0	0	0	0	0	0	0	0	0	0	0	0	0	0	0	0	0	0	0	0
081919	15:21:45	15:26:09	262013	5.0.10.0	5_exp_noRW	104	Rpleas_acq	CS_B	GWWG	JXXJ	MQQM	BZZB	VKKV	YDDY	spielen	treu	schön	fair	ehrlich	retten	strafen	tot	schlecht	faul	eitel	rächen	53pct	acq_USunple_CSpleas2_noRW	acq23456_noRW	2	35	0	0	300	300	565	46	0	1	1	blank2r.bmp	0	1	+	0	1	blank2r.bmp	252	1	JXXJ	306	2	eitel	559	0	0	0	0	0	0	0	0	0	0	0	0	0	0	0	0	0	0	0	0	0	0	0	0	0	0	0	0	0	0	0	0	0	0	0	0	0	0	0
081919	15:21:45	15:26:11	263759	5.0.10.0	5_exp_noRW	104	Rpleas_acq	CS_B	GWWG	JXXJ	MQQM	BZZB	VKKV	YDDY	spielen	treu	schön	fair	ehrlich	retten	strafen	tot	schlecht	faul	eitel	rächen	53pct	acq_USpleas_CSpleas2_noRW	acq23456_noRW	2	36	0	0	300	300	568	50	0	1	1	blank2r.bmp	0	1	+	0	1	blank2r.bmp	252	1	JXXJ	306	3	retten	559	0	0	0	0	0	0	0	0	0	0	0	0	0	0	0	0	0	0	0	0	0	0	0	0	0	0	0	0	0	0	0	0	0	0	0	0	0	0	0
081919	15:21:45	15:26:12	265452	5.0.10.0	5_exp_noRW	104	Rpleas_acq	CS_B	GWWG	JXXJ	MQQM	BZZB	VKKV	YDDY	spielen	treu	schön	fair	ehrlich	retten	strafen	tot	schlecht	faul	eitel	rächen	53pct	acq_USpleas_CSunple1_noRW	acq23456_noRW	2	37	0	0	300	300	508	50	0	1	1	blank2r.bmp	0	1	+	0	1	blank2r.bmp	252	1	MQQM	306	3	schön	559	0	0	0	0	0	0	0	0	0	0	0	0	0	0	0	0	0	0	0	0	0	0	0	0	0	0	0	0	0	0	0	0	0	0	0	0	0	0	0
081919	15:21:45	15:26:14	267224	5.0.10.0	5_exp_noRW	104	Rpleas_acq	CS_B	GWWG	JXXJ	MQQM	BZZB	VKKV	YDDY	spielen	treu	schön	fair	ehrlich	retten	strafen	tot	schlecht	faul	eitel	rächen	47pct	acq_USunple_CSpleas1_noRW	acq23456_noRW	2	38	0	0	300	300	587	46	0	1	1	blank2r.bmp	0	1	+	0	1	blank2r.bmp	252	1	GWWG	306	1	strafen	559	0	0	0	0	0	0	0	0	0	0	0	0	0	0	0	0	0	0	0	0	0	0	0	0	0	0	0	0	0	0	0	0	0	0	0	0	0	0	0
081919	15:21:45	15:26:16	268864	5.0.10.0	5_exp_noRW	104	Rpleas_acq	CS_B	GWWG	JXXJ	MQQM	BZZB	VKKV	YDDY	spielen	treu	schön	fair	ehrlich	retten	strafen	tot	schlecht	faul	eitel	rächen	47pct	acq_USpleas_CSpleas1_noRW	acq23456_noRW	2	39	0	0	300	300	473	50	0	1	1	blank2r.bmp	0	1	+	0	1	blank2r.bmp	252	1	GWWG	306	1	spielen	559	0	0	0	0	0	0	0	0	0	0	0	0	0	0	0	0	0	0	0	0	0	0	0	0	0	0	0	0	0	0	0	0	0	0	0	0	0	0	0
081919	15:21:45	15:26:18	270570	5.0.10.0	5_exp_noRW	104	Rpleas_acq	CS_B	GWWG	JXXJ	MQQM	BZZB	VKKV	YDDY	spielen	treu	schön	fair	ehrlich	retten	strafen	tot	schlecht	faul	eitel	rächen	53pct	acq_USunple_CSunple1_noRW	acq23456_noRW	2	40	0	0	300	300	519	46	0	1	1	blank2r.bmp	0	1	+	0	1	blank2r.bmp	252	1	MQQM	306	3	schlecht	559	0	0	0	0	0	0	0	0	0	0	0	0	0	0	0	0	0	0	0	0	0	0	0	0	0	0	0	0	0	0	0	0	0	0	0	0	0	0	0
081919	15:21:45	15:26:19	272329	5.0.10.0	5_exp_noRW	104	Rpleas_acq	CS_B	GWWG	JXXJ	MQQM	BZZB	VKKV	YDDY	spielen	treu	schön	fair	ehrlich	retten	strafen	tot	schlecht	faul	eitel	rächen	47pct	acq_USunple_CSunple2_noRW	acq23456_noRW	2	41	0	0	300	300	590	46	0	1	1	blank2r.bmp	0	1	+	0	1	blank2r.bmp	252	1	BZZB	306	1	faul	559	0	0	0	0	0	0	0	0	0	0	0	0	0	0	0	0	0	0	0	0	0	0	0	0	0	0	0	0	0	0	0	0	0	0	0	0	0	0	0
081919	15:21:45	15:26:21	274088	5.0.10.0	5_exp_noRW	104	Rpleas_acq	CS_B	GWWG	JXXJ	MQQM	BZZB	VKKV	YDDY	spielen	treu	schön	fair	ehrlich	retten	strafen	tot	schlecht	faul	eitel	rächen	53pct	acq_USpleas_CSpleas1_noRW	acq23456_noRW	2	42	0	0	300	300	577	50	0	1	1	blank2r.bmp	0	1	+	0	1	blank2r.bmp	252	1	GWWG	306	3	schön	559	0	0	0	0	0	0	0	0	0	0	0	0	0	0	0	0	0	0	0	0	0	0	0	0	0	0	0	0	0	0	0	0	0	0	0	0	0	0	0
081919	15:21:45	15:26:23	275714	5.0.10.0	5_exp_noRW	104	Rpleas_acq	CS_B	GWWG	JXXJ	MQQM	BZZB	VKKV	YDDY	spielen	treu	schön	fair	ehrlich	retten	strafen	tot	schlecht	faul	eitel	rächen	47pct	acq_USpleas_CSpleas1_noRW	acq23456_noRW	2	43	0	0	300	300	444	50	0	1	1	blank2r.bmp	0	1	+	0	1	blank2r.bmp	252	1	GWWG	306	2	treu	559	0	0	0	0	0	0	0	0	0	0	0	0	0	0	0	0	0	0	0	0	0	0	0	0	0	0	0	0	0	0	0	0	0	0	0	0	0	0	0
081919	15:21:45	15:26:24	277380	5.0.10.0	5_exp_noRW	104	Rpleas_acq	CS_B	GWWG	JXXJ	MQQM	BZZB	VKKV	YDDY	spielen	treu	schön	fair	ehrlich	retten	strafen	tot	schlecht	faul	eitel	rächen	47pct	acq_USunple_CSunple1_noRW	acq23456_noRW	2	44	0	0	300	300	486	46	0	1	1	blank2r.bmp	0	1	+	0	1	blank2r.bmp	252	1	MQQM	306	1	strafen	559	0	0	0	0	0	0	0	0	0	0	0	0	0	0	0	0	0	0	0	0	0	0	0	0	0	0	0	0	0	0	0	0	0	0	0	0	0	0	0
081919	15:21:45	15:26:26	279060	5.0.10.0	5_exp_noRW	104	Rpleas_acq	CS_B	GWWG	JXXJ	MQQM	BZZB	VKKV	YDDY	spielen	treu	schön	fair	ehrlich	retten	strafen	tot	schlecht	faul	eitel	rächen	47pct	acq_USpleas_CSpleas1_noRW	acq23456_noRW	2	45	0	0	300	300	500	50	0	1	1	blank2r.bmp	0	1	+	0	1	blank2r.bmp	252	1	GWWG	306	1	spielen	559	0	0	0	0	0	0	0	0	0	0	0	0	0	0	0	0	0	0	0	0	0	0	0	0	0	0	0	0	0	0	0	0	0	0	0	0	0	0	0
081919	15:21:45	15:26:28	280779	5.0.10.0	5_exp_noRW	104	Rpleas_acq	CS_B	GWWG	JXXJ	MQQM	BZZB	VKKV	YDDY	spielen	treu	schön	fair	ehrlich	retten	strafen	tot	schlecht	faul	eitel	rächen	47pct	acq_USpleas_CSpleas2_noRW	acq23456_noRW	2	46	0	0	300	300	554	50	0	1	1	blank2r.bmp	0	1	+	0	1	blank2r.bmp	252	1	JXXJ	306	3	retten	559	0	0	0	0	0	0	0	0	0	0	0	0	0	0	0	0	0	0	0	0	0	0	0	0	0	0	0	0	0	0	0	0	0	0	0	0	0	0	0
081919	15:21:45	15:26:30	282671	5.0.10.0	5_exp_noRW	104	Rpleas_acq	CS_B	GWWG	JXXJ	MQQM	BZZB	VKKV	YDDY	spielen	treu	schön	fair	ehrlich	retten	strafen	tot	schlecht	faul	eitel	rächen	47pct	acq_USunple_CSunple2_noRW	acq23456_noRW	2	47	0	0	300	300	712	46	0	1	1	blank2r.bmp	0	1	+	0	1	blank2r.bmp	252	1	BZZB	306	3	rächen	559	0	0	0	0	0	0	0	0	0	0	0	0	0	0	0	0	0	0	0	0	0	0	0	0	0	0	0	0	0	0	0	0	0	0	0	0	0	0	0
081919	15:21:45	15:26:31	284444	5.0.10.0	5_exp_noRW	104	Rpleas_acq	CS_B	GWWG	JXXJ	MQQM	BZZB	VKKV	YDDY	spielen	treu	schön	fair	ehrlich	retten	strafen	tot	schlecht	faul	eitel	rächen	47pct	acq_USunple_CSunple2_noRW	acq23456_noRW	2	48	0	0	300	300	590	46	0	1	1	blank2r.bmp	0	1	+	0	1	blank2r.bmp	252	1	BZZB	306	2	eitel	559	0	0	0	0	0	0	0	0	0	0	0	0	0	0	0	0	0	0	0	0	0	0	0	0	0	0	0	0	0	0	0	0	0	0	0	0	0	0	0
081919	15:21:45	15:26:33	286203	5.0.10.0	5_exp_noRW	104	Rpleas_acq	CS_B	GWWG	JXXJ	MQQM	BZZB	VKKV	YDDY	spielen	treu	schön	fair	ehrlich	retten	strafen	tot	schlecht	faul	eitel	rächen	47pct	acq_USpleas_CSpleas2_noRW	acq23456_noRW	2	49	0	0	300	300	591	50	0	1	1	blank2r.bmp	0	1	+	0	1	blank2r.bmp	252	1	JXXJ	306	2	ehrlich	559	0	0	0	0	0	0	0	0	0	0	0	0	0	0	0	0	0	0	0	0	0	0	0	0	0	0	0	0	0	0	0	0	0	0	0	0	0	0	0
081919	15:21:45	15:26:35	287869	5.0.10.0	5_exp_noRW	104	Rpleas_acq	CS_B	GWWG	JXXJ	MQQM	BZZB	VKKV	YDDY	spielen	treu	schön	fair	ehrlich	retten	strafen	tot	schlecht	faul	eitel	rächen	47pct	acq_USunple_CSunple1_noRW	acq23456_noRW	2	50	0	0	300	300	495	46	0	1	1	blank2r.bmp	0	1	+	0	1	blank2r.bmp	252	1	MQQM	306	2	tot	559	0	0	0	0	0	0	0	0	0	0	0	0	0	0	0	0	0	0	0	0	0	0	0	0	0	0	0	0	0	0	0	0	0	0	0	0	0	0	0
081919	15:21:45	15:26:36	289522	5.0.10.0	5_exp_noRW	104	Rpleas_acq	CS_B	GWWG	JXXJ	MQQM	BZZB	VKKV	YDDY	spielen	treu	schön	fair	ehrlich	retten	strafen	tot	schlecht	faul	eitel	rächen	53pct	acq_USunple_CSunple1_noRW	acq23456_noRW	2	51	0	0	300	300	481	46	0	1	1	blank2r.bmp	0	1	+	0	1	blank2r.bmp	252	1	MQQM	306	3	schlecht	559	0	0	0	0	0	0	0	0	0	0	0	0	0	0	0	0	0	0	0	0	0	0	0	0	0	0	0	0	0	0	0	0	0	0	0	0	0	0	0
081919	15:21:45	15:26:38	291175	5.0.10.0	5_exp_noRW	104	Rpleas_acq	CS_B	GWWG	JXXJ	MQQM	BZZB	VKKV	YDDY	spielen	treu	schön	fair	ehrlich	retten	strafen	tot	schlecht	faul	eitel	rächen	47pct	acq_USunple_CSunple1_noRW	acq23456_noRW	2	52	0	0	300	300	468	46	0	1	1	blank2r.bmp	0	1	+	0	1	blank2r.bmp	252	1	MQQM	306	1	strafen	559	0	0	0	0	0	0	0	0	0	0	0	0	0	0	0	0	0	0	0	0	0	0	0	0	0	0	0	0	0	0	0	0	0	0	0	0	0	0	0
081919	15:21:45	15:26:40	292841	5.0.10.0	5_exp_noRW	104	Rpleas_acq	CS_B	GWWG	JXXJ	MQQM	BZZB	VKKV	YDDY	spielen	treu	schön	fair	ehrlich	retten	strafen	tot	schlecht	faul	eitel	rächen	53pct	acq_USpleas_CSunple2_noRW	acq23456_noRW	2	53	0	0	300	300	483	50	0	1	1	blank2r.bmp	0	1	+	0	1	blank2r.bmp	252	1	BZZB	306	1	fair	559	0	0	0	0	0	0	0	0	0	0	0	0	0	0	0	0	0	0	0	0	0	0	0	0	0	0	0	0	0	0	0	0	0	0	0	0	0	0	0
081919	15:21:45	15:26:41	294520	5.0.10.0	5_exp_noRW	104	Rpleas_acq	CS_B	GWWG	JXXJ	MQQM	BZZB	VKKV	YDDY	spielen	treu	schön	fair	ehrlich	retten	strafen	tot	schlecht	faul	eitel	rächen	53pct	acq_USpleas_CSpleas1_noRW	acq23456_noRW	2	54	0	0	300	300	498	50	0	1	1	blank2r.bmp	0	1	+	0	1	blank2r.bmp	252	1	GWWG	306	2	treu	559	0	0	0	0	0	0	0	0	0	0	0	0	0	0	0	0	0	0	0	0	0	0	0	0	0	0	0	0	0	0	0	0	0	0	0	0	0	0	0
081919	15:21:45	15:26:43	296119	5.0.10.0	5_exp_noRW	104	Rpleas_acq	CS_B	GWWG	JXXJ	MQQM	BZZB	VKKV	YDDY	spielen	treu	schön	fair	ehrlich	retten	strafen	tot	schlecht	faul	eitel	rächen	53pct	acq_USpleas_CSunple1_noRW	acq23456_noRW	2	55	0	0	300	300	435	50	0	1	1	blank2r.bmp	0	1	+	0	1	blank2r.bmp	252	1	MQQM	306	2	treu	559	0	0	0	0	0	0	0	0	0	0	0	0	0	0	0	0	0	0	0	0	0	0	0	0	0	0	0	0	0	0	0	0	0	0	0	0	0	0	0
081919	15:21:45	15:26:45	297825	5.0.10.0	5_exp_noRW	104	Rpleas_acq	CS_B	GWWG	JXXJ	MQQM	BZZB	VKKV	YDDY	spielen	treu	schön	fair	ehrlich	retten	strafen	tot	schlecht	faul	eitel	rächen	53pct	acq_USunple_CSpleas2_noRW	acq23456_noRW	2	56	0	0	300	300	523	46	0	1	1	blank2r.bmp	0	1	+	0	1	blank2r.bmp	252	1	JXXJ	306	2	eitel	559	0	0	0	0	0	0	0	0	0	0	0	0	0	0	0	0	0	0	0	0	0	0	0	0	0	0	0	0	0	0	0	0	0	0	0	0	0	0	0
081919	15:21:45	15:26:47	299585	5.0.10.0	5_exp_noRW	104	Rpleas_acq	CS_B	GWWG	JXXJ	MQQM	BZZB	VKKV	YDDY	spielen	treu	schön	fair	ehrlich	retten	strafen	tot	schlecht	faul	eitel	rächen	47pct	acq_USunple_CSpleas1_noRW	acq23456_noRW	2	57	0	0	300	300	595	46	0	1	1	blank2r.bmp	0	1	+	0	1	blank2r.bmp	252	1	GWWG	306	3	schlecht	559	0	0	0	0	0	0	0	0	0	0	0	0	0	0	0	0	0	0	0	0	0	0	0	0	0	0	0	0	0	0	0	0	0	0	0	0	0	0	0
081919	15:21:45	15:26:48	301371	5.0.10.0	5_exp_noRW	104	Rpleas_acq	CS_B	GWWG	JXXJ	MQQM	BZZB	VKKV	YDDY	spielen	treu	schön	fair	ehrlich	retten	strafen	tot	schlecht	faul	eitel	rächen	53pct	acq_USunple_CSunple2_noRW	acq23456_noRW	2	58	0	0	300	300	618	46	0	1	1	blank2r.bmp	0	1	+	0	1	blank2r.bmp	252	1	BZZB	306	3	rächen	559	0	0	0	0	0	0	0	0	0	0	0	0	0	0	0	0	0	0	0	0	0	0	0	0	0	0	0	0	0	0	0	0	0	0	0	0	0	0	0
081919	15:21:45	15:26:50	303210	5.0.10.0	5_exp_noRW	104	Rpleas_acq	CS_B	GWWG	JXXJ	MQQM	BZZB	VKKV	YDDY	spielen	treu	schön	fair	ehrlich	retten	strafen	tot	schlecht	faul	eitel	rächen	53pct	acq_USpleas_CSpleas2_noRW	acq23456_noRW	2	59	0	0	300	300	662	50	0	1	1	blank2r.bmp	0	1	+	0	1	blank2r.bmp	252	1	JXXJ	306	1	fair	559	0	0	0	0	0	0	0	0	0	0	0	0	0	0	0	0	0	0	0	0	0	0	0	0	0	0	0	0	0	0	0	0	0	0	0	0	0	0	0
081919	15:21:45	15:26:52	305382	5.0.10.0	5_exp_noRW	104	Rpleas_acq	CS_B	GWWG	JXXJ	MQQM	BZZB	VKKV	YDDY	spielen	treu	schön	fair	ehrlich	retten	strafen	tot	schlecht	faul	eitel	rächen	53pct	acq_USpleas_CSpleas2_noRW	acq23456_noRW	2	60	0	0	300	300	996	50	0	1	1	blank2r.bmp	0	1	+	0	1	blank2r.bmp	252	1	JXXJ	306	3	retten	559	0	0	0	0	0	0	0	0	0	0	0	0	0	0	0	0	0	0	0	0	0	0	0	0	0	0	0	0	0	0	0	0	0	0	0	0	0	0	0
081919	15:21:45	15:26:54	307088	5.0.10.0	5_exp_noRW	104	Rpleas_acq	CS_B	GWWG	JXXJ	MQQM	BZZB	VKKV	YDDY	spielen	treu	schön	fair	ehrlich	retten	strafen	tot	schlecht	faul	eitel	rächen	53pct	acq_USunple_CSunple2_noRW	acq23456_noRW	2	61	0	0	300	300	519	46	0	1	1	blank2r.bmp	0	1	+	0	1	blank2r.bmp	252	1	BZZB	306	2	eitel	559	0	0	0	0	0	0	0	0	0	0	0	0	0	0	0	0	0	0	0	0	0	0	0	0	0	0	0	0	0	0	0	0	0	0	0	0	0	0	0
081919	15:21:45	15:26:56	308754	5.0.10.0	5_exp_noRW	104	Rpleas_acq	CS_B	GWWG	JXXJ	MQQM	BZZB	VKKV	YDDY	spielen	treu	schön	fair	ehrlich	retten	strafen	tot	schlecht	faul	eitel	rächen	47pct	acq_USunple_CSunple2_noRW	acq23456_noRW	2	62	0	0	300	300	497	46	0	1	1	blank2r.bmp	0	1	+	0	1	blank2r.bmp	252	1	BZZB	306	1	faul	559	0	0	0	0	0	0	0	0	0	0	0	0	0	0	0	0	0	0	0	0	0	0	0	0	0	0	0	0	0	0	0	0	0	0	0	0	0	0	0
081919	15:21:45	15:26:57	310460	5.0.10.0	5_exp_noRW	104	Rpleas_acq	CS_B	GWWG	JXXJ	MQQM	BZZB	VKKV	YDDY	spielen	treu	schön	fair	ehrlich	retten	strafen	tot	schlecht	faul	eitel	rächen	53pct	acq_USpleas_CSpleas1_noRW	acq23456_noRW	2	63	0	0	300	300	522	50	0	1	1	blank2r.bmp	0	1	+	0	1	blank2r.bmp	252	1	GWWG	306	1	spielen	559	0	0	0	0	0	0	0	0	0	0	0	0	0	0	0	0	0	0	0	0	0	0	0	0	0	0	0	0	0	0	0	0	0	0	0	0	0	0	0
081919	15:21:45	15:26:59	312140	5.0.10.0	5_exp_noRW	104	Rpleas_acq	CS_B	GWWG	JXXJ	MQQM	BZZB	VKKV	YDDY	spielen	treu	schön	fair	ehrlich	retten	strafen	tot	schlecht	faul	eitel	rächen	47pct	acq_USunple_CSunple1_noRW	acq23456_noRW	2	64	0	0	300	300	506	46	0	1	1	blank2r.bmp	0	1	+	0	1	blank2r.bmp	252	1	MQQM	306	3	schlecht	559	0	0	0	0	0	0	0	0	0	0	0	0	0	0	0	0	0	0	0	0	0	0	0	0	0	0	0	0	0	0	0	0	0	0	0	0	0	0	0
081919	15:21:45	15:27:01	313846	5.0.10.0	5_exp_noRW	104	Rpleas_acq	CS_B	GWWG	JXXJ	MQQM	BZZB	VKKV	YDDY	spielen	treu	schön	fair	ehrlich	retten	strafen	tot	schlecht	faul	eitel	rächen	53pct	acq_USpleas_CSunple1_noRW	acq23456_noRW	2	65	0	0	300	300	539	50	0	1	1	blank2r.bmp	0	1	+	0	1	blank2r.bmp	252	1	MQQM	306	1	spielen	559	0	0	0	0	0	0	0	0	0	0	0	0	0	0	0	0	0	0	0	0	0	0	0	0	0	0	0	0	0	0	0	0	0	0	0	0	0	0	0
081919	15:21:45	15:27:02	315458	5.0.10.0	5_exp_noRW	104	Rpleas_acq	CS_B	GWWG	JXXJ	MQQM	BZZB	VKKV	YDDY	spielen	treu	schön	fair	ehrlich	retten	strafen	tot	schlecht	faul	eitel	rächen	53pct	acq_USunple_CSpleas1_noRW	acq23456_noRW	2	66	0	0	300	300	450	46	0	1	1	blank2r.bmp	0	1	+	0	1	blank2r.bmp	252	1	GWWG	306	1	strafen	559	0	0	0	0	0	0	0	0	0	0	0	0	0	0	0	0	0	0	0	0	0	0	0	0	0	0	0	0	0	0	0	0	0	0	0	0	0	0	0
081919	15:21:45	15:27:04	317084	5.0.10.0	5_exp_noRW	104	Rpleas_acq	CS_B	GWWG	JXXJ	MQQM	BZZB	VKKV	YDDY	spielen	treu	schön	fair	ehrlich	retten	strafen	tot	schlecht	faul	eitel	rächen	47pct	acq_USpleas_CSpleas2_noRW	acq23456_noRW	2	67	0	0	300	300	447	50	0	1	1	blank2r.bmp	0	1	+	0	1	blank2r.bmp	252	1	JXXJ	306	1	fair	559	0	0	0	0	0	0	0	0	0	0	0	0	0	0	0	0	0	0	0	0	0	0	0	0	0	0	0	0	0	0	0	0	0	0	0	0	0	0	0
081919	15:21:45	15:27:06	318830	5.0.10.0	5_exp_noRW	104	Rpleas_acq	CS_B	GWWG	JXXJ	MQQM	BZZB	VKKV	YDDY	spielen	treu	schön	fair	ehrlich	retten	strafen	tot	schlecht	faul	eitel	rächen	53pct	acq_USpleas_CSpleas2_noRW	acq23456_noRW	2	68	0	0	300	300	559	50	0	1	1	blank2r.bmp	0	1	+	0	1	blank2r.bmp	252	1	JXXJ	306	2	ehrlich	559	0	0	0	0	0	0	0	0	0	0	0	0	0	0	0	0	0	0	0	0	0	0	0	0	0	0	0	0	0	0	0	0	0	0	0	0	0	0	0
081919	15:21:45	15:27:08	320576	5.0.10.0	5_exp_noRW	104	Rpleas_acq	CS_B	GWWG	JXXJ	MQQM	BZZB	VKKV	YDDY	spielen	treu	schön	fair	ehrlich	retten	strafen	tot	schlecht	faul	eitel	rächen	53pct	acq_USunple_CSunple1_noRW	acq23456_noRW	2	69	0	0	300	300	363	50	0	0	1	blank2r.bmp	0	1	+	0	1	blank2r.bmp	252	1	MQQM	306	2	tot	559	1	FEHLER	959	0	0	0	0	0	0	0	0	0	0	0	0	0	0	0	0	0	0	0	0	0	0	0	0	0	0	0	0	0	0	0	0	0	0	0	0
081919	15:21:45	15:27:09	322042	5.0.10.0	5_exp_noRW	104	Rpleas_acq	CS_B	GWWG	JXXJ	MQQM	BZZB	VKKV	YDDY	spielen	treu	schön	fair	ehrlich	retten	strafen	tot	schlecht	faul	eitel	rächen	53pct	acq_USpleas_CSpleas2_noRW	acq23456_noRW	2	70	0	0	300	300	495	50	0	1	1	blank2r.bmp	0	1	+	0	1	blank2r.bmp	252	1	JXXJ	306	2	ehrlich	559	0	0	0	0	0	0	0	0	0	0	0	0	0	0	0	0	0	0	0	0	0	0	0	0	0	0	0	0	0	0	0	0	0	0	0	0	0	0	0
081919	15:21:45	15:27:11	323748	5.0.10.0	5_exp_noRW	104	Rpleas_acq	CS_B	GWWG	JXXJ	MQQM	BZZB	VKKV	YDDY	spielen	treu	schön	fair	ehrlich	retten	strafen	tot	schlecht	faul	eitel	rächen	47pct	acq_USpleas_CSpleas1_noRW	acq23456_noRW	2	71	0	0	300	300	541	50	0	1	1	blank2r.bmp	0	1	+	0	1	blank2r.bmp	252	1	GWWG	306	3	schön	559	0	0	0	0	0	0	0	0	0	0	0	0	0	0	0	0	0	0	0	0	0	0	0	0	0	0	0	0	0	0	0	0	0	0	0	0	0	0	0
081919	15:21:45	15:27:13	325694	5.0.10.0	5_exp_noRW	104	Rpleas_acq	CS_B	GWWG	JXXJ	MQQM	BZZB	VKKV	YDDY	spielen	treu	schön	fair	ehrlich	retten	strafen	tot	schlecht	faul	eitel	rächen	47pct	acq_USunple_CSpleas2_noRW	acq23456_noRW	2	72	0	0	300	300	553	50	0	0	1	blank2r.bmp	0	1	+	0	1	blank2r.bmp	252	1	JXXJ	306	3	rächen	559	1	FEHLER	1146	0	0	0	0	0	0	0	0	0	0	0	0	0	0	0	0	0	0	0	0	0	0	0	0	0	0	0	0	0	0	0	0	0	0	0	0
081919	15:21:45	15:27:14	327173	5.0.10.0	5_exp_noRW	104	Rpleas_acq	CS_B	GWWG	JXXJ	MQQM	BZZB	VKKV	YDDY	spielen	treu	schön	fair	ehrlich	retten	strafen	tot	schlecht	faul	eitel	rächen	47pct	acq_USunple_CSunple2_noRW	acq23456_noRW	2	73	0	0	300	300	519	46	0	1	1	blank2r.bmp	0	1	+	0	1	blank2r.bmp	252	1	BZZB	306	2	eitel	559	0	0	0	0	0	0	0	0	0	0	0	0	0	0	0	0	0	0	0	0	0	0	0	0	0	0	0	0	0	0	0	0	0	0	0	0	0	0	0
081919	15:21:45	15:27:16	328866	5.0.10.0	5_exp_noRW	104	Rpleas_acq	CS_B	GWWG	JXXJ	MQQM	BZZB	VKKV	YDDY	spielen	treu	schön	fair	ehrlich	retten	strafen	tot	schlecht	faul	eitel	rächen	47pct	acq_USpleas_CSpleas1_noRW	acq23456_noRW	2	74	0	0	300	300	527	50	0	1	1	blank2r.bmp	0	1	+	0	1	blank2r.bmp	252	1	GWWG	306	3	schön	559	0	0	0	0	0	0	0	0	0	0	0	0	0	0	0	0	0	0	0	0	0	0	0	0	0	0	0	0	0	0	0	0	0	0	0	0	0	0	0
081919	15:21:45	15:27:17	330519	5.0.10.0	5_exp_noRW	104	Rpleas_acq	CS_B	GWWG	JXXJ	MQQM	BZZB	VKKV	YDDY	spielen	treu	schön	fair	ehrlich	retten	strafen	tot	schlecht	faul	eitel	rächen	47pct	acq_USunple_CSunple2_noRW	acq23456_noRW	2	75	0	0	300	300	486	46	0	1	1	blank2r.bmp	0	1	+	0	1	blank2r.bmp	252	1	BZZB	306	1	faul	559	0	0	0	0	0	0	0	0	0	0	0	0	0	0	0	0	0	0	0	0	0	0	0	0	0	0	0	0	0	0	0	0	0	0	0	0	0	0	0
081919	15:21:45	15:27:19	332238	5.0.10.0	5_exp_noRW	104	Rpleas_acq	CS_B	GWWG	JXXJ	MQQM	BZZB	VKKV	YDDY	spielen	treu	schön	fair	ehrlich	retten	strafen	tot	schlecht	faul	eitel	rächen	53pct	acq_USpleas_CSpleas2_noRW	acq23456_noRW	2	76	0	0	300	300	532	50	0	1	1	blank2r.bmp	0	1	+	0	1	blank2r.bmp	252	1	JXXJ	306	1	fair	559	0	0	0	0	0	0	0	0	0	0	0	0	0	0	0	0	0	0	0	0	0	0	0	0	0	0	0	0	0	0	0	0	0	0	0	0	0	0	0
081919	15:21:45	15:27:21	333864	5.0.10.0	5_exp_noRW	104	Rpleas_acq	CS_B	GWWG	JXXJ	MQQM	BZZB	VKKV	YDDY	spielen	treu	schön	fair	ehrlich	retten	strafen	tot	schlecht	faul	eitel	rächen	47pct	acq_USpleas_CSpleas1_noRW	acq23456_noRW	2	77	0	0	300	300	457	50	0	1	1	blank2r.bmp	0	1	+	0	1	blank2r.bmp	252	1	GWWG	306	1	spielen	559	0	0	0	0	0	0	0	0	0	0	0	0	0	0	0	0	0	0	0	0	0	0	0	0	0	0	0	0	0	0	0	0	0	0	0	0	0	0	0
081919	15:21:45	15:27:23	335557	5.0.10.0	5_exp_noRW	104	Rpleas_acq	CS_B	GWWG	JXXJ	MQQM	BZZB	VKKV	YDDY	spielen	treu	schön	fair	ehrlich	retten	strafen	tot	schlecht	faul	eitel	rächen	53pct	acq_USunple_CSunple1_noRW	acq23456_noRW	2	78	0	0	300	300	527	46	0	1	1	blank2r.bmp	0	1	+	0	1	blank2r.bmp	252	1	MQQM	306	3	schlecht	559	0	0	0	0	0	0	0	0	0	0	0	0	0	0	0	0	0	0	0	0	0	0	0	0	0	0	0	0	0	0	0	0	0	0	0	0	0	0	0
081919	15:21:45	15:27:24	337183	5.0.10.0	5_exp_noRW	104	Rpleas_acq	CS_B	GWWG	JXXJ	MQQM	BZZB	VKKV	YDDY	spielen	treu	schön	fair	ehrlich	retten	strafen	tot	schlecht	faul	eitel	rächen	53pct	acq_USpleas_CSunple2_noRW	acq23456_noRW	2	79	0	0	300	300	450	50	0	1	1	blank2r.bmp	0	1	+	0	1	blank2r.bmp	252	1	BZZB	306	3	retten	559	0	0	0	0	0	0	0	0	0	0	0	0	0	0	0	0	0	0	0	0	0	0	0	0	0	0	0	0	0	0	0	0	0	0	0	0	0	0	0
081919	15:21:45	15:27:26	338835	5.0.10.0	5_exp_noRW	104	Rpleas_acq	CS_B	GWWG	JXXJ	MQQM	BZZB	VKKV	YDDY	spielen	treu	schön	fair	ehrlich	retten	strafen	tot	schlecht	faul	eitel	rächen	53pct	acq_USunple_CSunple1_noRW	acq23456_noRW	2	80	0	0	300	300	468	46	0	1	1	blank2r.bmp	0	1	+	0	1	blank2r.bmp	252	1	MQQM	306	2	tot	559	0	0	0	0	0	0	0	0	0	0	0	0	0	0	0	0	0	0	0	0	0	0	0	0	0	0	0	0	0	0	0	0	0	0	0	0	0	0	0
081919	15:21:45	15:27:37	350111	5.0.10.0	5_exp_noRW	104	Rpleas_acq	CS_B	GWWG	JXXJ	MQQM	BZZB	VKKV	YDDY	spielen	treu	schön	fair	ehrlich	retten	strafen	tot	schlecht	faul	eitel	rächen	53pct	acq_USpleas_CSunple1_noRW	acq23456_noRW	3	1	0	0	300	300	472	50	0	1	1	blank2r.bmp	0	1	+	0	1	blank2r.bmp	252	1	MQQM	306	3	schön	559	0	0	0	0	0	0	0	0	0	0	0	0	0	0	0	0	0	0	0	0	0	0	0	0	0	0	0	0	0	0	0	0	0	0	0	0	0	0	0
081919	15:21:45	15:27:39	351830	5.0.10.0	5_exp_noRW	104	Rpleas_acq	CS_B	GWWG	JXXJ	MQQM	BZZB	VKKV	YDDY	spielen	treu	schön	fair	ehrlich	retten	strafen	tot	schlecht	faul	eitel	rächen	53pct	acq_USunple_CSunple2_noRW	acq23456_noRW	3	2	0	0	300	300	537	46	0	1	1	blank2r.bmp	0	1	+	0	1	blank2r.bmp	252	1	BZZB	306	3	rächen	559	0	0	0	0	0	0	0	0	0	0	0	0	0	0	0	0	0	0	0	0	0	0	0	0	0	0	0	0	0	0	0	0	0	0	0	0	0	0	0
081919	15:21:45	15:27:40	353443	5.0.10.0	5_exp_noRW	104	Rpleas_acq	CS_B	GWWG	JXXJ	MQQM	BZZB	VKKV	YDDY	spielen	treu	schön	fair	ehrlich	retten	strafen	tot	schlecht	faul	eitel	rächen	53pct	acq_USpleas_CSpleas2_noRW	acq23456_noRW	3	3	0	0	300	300	444	50	0	1	1	blank2r.bmp	0	1	+	0	1	blank2r.bmp	252	1	JXXJ	306	3	retten	559	0	0	0	0	0	0	0	0	0	0	0	0	0	0	0	0	0	0	0	0	0	0	0	0	0	0	0	0	0	0	0	0	0	0	0	0	0	0	0
081919	15:21:45	15:27:42	355149	5.0.10.0	5_exp_noRW	104	Rpleas_acq	CS_B	GWWG	JXXJ	MQQM	BZZB	VKKV	YDDY	spielen	treu	schön	fair	ehrlich	retten	strafen	tot	schlecht	faul	eitel	rächen	47pct	acq_USpleas_CSpleas1_noRW	acq23456_noRW	3	4	0	0	300	300	532	50	0	1	1	blank2r.bmp	0	1	+	0	1	blank2r.bmp	252	1	GWWG	306	2	treu	559	0	0	0	0	0	0	0	0	0	0	0	0	0	0	0	0	0	0	0	0	0	0	0	0	0	0	0	0	0	0	0	0	0	0	0	0	0	0	0
081919	15:21:45	15:27:44	356761	5.0.10.0	5_exp_noRW	104	Rpleas_acq	CS_B	GWWG	JXXJ	MQQM	BZZB	VKKV	YDDY	spielen	treu	schön	fair	ehrlich	retten	strafen	tot	schlecht	faul	eitel	rächen	53pct	acq_USpleas_CSpleas1_noRW	acq23456_noRW	3	5	0	0	300	300	445	50	0	1	1	blank2r.bmp	0	1	+	0	1	blank2r.bmp	252	1	GWWG	306	2	treu	559	0	0	0	0	0	0	0	0	0	0	0	0	0	0	0	0	0	0	0	0	0	0	0	0	0	0	0	0	0	0	0	0	0	0	0	0	0	0	0
081919	15:21:45	15:27:45	358454	5.0.10.0	5_exp_noRW	104	Rpleas_acq	CS_B	GWWG	JXXJ	MQQM	BZZB	VKKV	YDDY	spielen	treu	schön	fair	ehrlich	retten	strafen	tot	schlecht	faul	eitel	rächen	47pct	acq_USunple_CSunple1_noRW	acq23456_noRW	3	6	0	0	300	300	521	46	0	1	1	blank2r.bmp	0	1	+	0	1	blank2r.bmp	252	1	MQQM	306	1	strafen	559	0	0	0	0	0	0	0	0	0	0	0	0	0	0	0	0	0	0	0	0	0	0	0	0	0	0	0	0	0	0	0	0	0	0	0	0	0	0	0
081919	15:21:45	15:27:47	360133	5.0.10.0	5_exp_noRW	104	Rpleas_acq	CS_B	GWWG	JXXJ	MQQM	BZZB	VKKV	YDDY	spielen	treu	schön	fair	ehrlich	retten	strafen	tot	schlecht	faul	eitel	rächen	53pct	acq_USunple_CSunple1_noRW	acq23456_noRW	3	7	0	0	300	300	288	50	0	0	1	blank2r.bmp	0	1	+	0	1	blank2r.bmp	252	1	MQQM	306	1	strafen	559	1	FEHLER	879	0	0	0	0	0	0	0	0	0	0	0	0	0	0	0	0	0	0	0	0	0	0	0	0	0	0	0	0	0	0	0	0	0	0	0	0
081919	15:21:45	15:27:49	361600	5.0.10.0	5_exp_noRW	104	Rpleas_acq	CS_B	GWWG	JXXJ	MQQM	BZZB	VKKV	YDDY	spielen	treu	schön	fair	ehrlich	retten	strafen	tot	schlecht	faul	eitel	rächen	47pct	acq_USpleas_CSpleas2_noRW	acq23456_noRW	3	8	0	0	300	300	292	46	0	0	1	blank2r.bmp	0	1	+	0	1	blank2r.bmp	252	1	JXXJ	306	2	ehrlich	559	1	FEHLER	892	0	0	0	0	0	0	0	0	0	0	0	0	0	0	0	0	0	0	0	0	0	0	0	0	0	0	0	0	0	0	0	0	0	0	0	0
081919	15:21:45	15:27:50	363012	5.0.10.0	5_exp_noRW	104	Rpleas_acq	CS_B	GWWG	JXXJ	MQQM	BZZB	VKKV	YDDY	spielen	treu	schön	fair	ehrlich	retten	strafen	tot	schlecht	faul	eitel	rächen	47pct	acq_USpleas_CSpleas1_noRW	acq23456_noRW	3	9	0	0	300	300	448	50	0	1	1	blank2r.bmp	0	1	+	0	1	blank2r.bmp	252	1	GWWG	306	1	spielen	559	0	0	0	0	0	0	0	0	0	0	0	0	0	0	0	0	0	0	0	0	0	0	0	0	0	0	0	0	0	0	0	0	0	0	0	0	0	0	0
081919	15:21:45	15:27:52	364772	5.0.10.0	5_exp_noRW	104	Rpleas_acq	CS_B	GWWG	JXXJ	MQQM	BZZB	VKKV	YDDY	spielen	treu	schön	fair	ehrlich	retten	strafen	tot	schlecht	faul	eitel	rächen	53pct	acq_USunple_CSunple2_noRW	acq23456_noRW	3	10	0	0	300	300	584	46	0	1	1	blank2r.bmp	0	1	+	0	1	blank2r.bmp	252	1	BZZB	306	2	eitel	559	0	0	0	0	0	0	0	0	0	0	0	0	0	0	0	0	0	0	0	0	0	0	0	0	0	0	0	0	0	0	0	0	0	0	0	0	0	0	0
081919	15:21:45	15:27:53	366198	5.0.10.0	5_exp_noRW	104	Rpleas_acq	CS_B	GWWG	JXXJ	MQQM	BZZB	VKKV	YDDY	spielen	treu	schön	fair	ehrlich	retten	strafen	tot	schlecht	faul	eitel	rächen	47pct	acq_USpleas_CSpleas1_noRW	acq23456_noRW	3	11	0	0	300	300	241	50	0	1	1	blank2r.bmp	0	1	+	0	1	blank2r.bmp	252	1	GWWG	306	3	schön	559	0	0	0	0	0	0	0	0	0	0	0	0	0	0	0	0	0	0	0	0	0	0	0	0	0	0	0	0	0	0	0	0	0	0	0	0	0	0	0
081919	15:21:45	15:27:55	367544	5.0.10.0	5_exp_noRW	104	Rpleas_acq	CS_B	GWWG	JXXJ	MQQM	BZZB	VKKV	YDDY	spielen	treu	schön	fair	ehrlich	retten	strafen	tot	schlecht	faul	eitel	rächen	53pct	acq_USunple_CSunple1_noRW	acq23456_noRW	3	12	0	0	300	300	175	46	0	1	1	blank2r.bmp	0	1	+	0	1	blank2r.bmp	252	1	MQQM	306	3	schlecht	559	0	0	0	0	0	0	0	0	0	0	0	0	0	0	0	0	0	0	0	0	0	0	0	0	0	0	0	0	0	0	0	0	0	0	0	0	0	0	0
081919	15:21:45	15:27:56	368917	5.0.10.0	5_exp_noRW	104	Rpleas_acq	CS_B	GWWG	JXXJ	MQQM	BZZB	VKKV	YDDY	spielen	treu	schön	fair	ehrlich	retten	strafen	tot	schlecht	faul	eitel	rächen	53pct	acq_USpleas_CSunple2_noRW	acq23456_noRW	3	13	0	0	300	300	211	50	0	1	1	blank2r.bmp	0	1	+	0	1	blank2r.bmp	252	1	BZZB	306	2	ehrlich	559	0	0	0	0	0	0	0	0	0	0	0	0	0	0	0	0	0	0	0	0	0	0	0	0	0	0	0	0	0	0	0	0	0	0	0	0	0	0	0
081919	15:21:45	15:27:57	370129	5.0.10.0	5_exp_noRW	104	Rpleas_acq	CS_B	GWWG	JXXJ	MQQM	BZZB	VKKV	YDDY	spielen	treu	schön	fair	ehrlich	retten	strafen	tot	schlecht	faul	eitel	rächen	53pct	acq_USunple_CSpleas2_noRW	acq23456_noRW	3	14	0	0	300	300	30	46	0	1	1	blank2r.bmp	0	1	+	0	1	blank2r.bmp	252	1	JXXJ	306	1	faul	559	0	0	0	0	0	0	0	0	0	0	0	0	0	0	0	0	0	0	0	0	0	0	0	0	0	0	0	0	0	0	0	0	0	0	0	0	0	0	0
081919	15:21:45	15:27:58	371502	5.0.10.0	5_exp_noRW	104	Rpleas_acq	CS_B	GWWG	JXXJ	MQQM	BZZB	VKKV	YDDY	spielen	treu	schön	fair	ehrlich	retten	strafen	tot	schlecht	faul	eitel	rächen	53pct	acq_USunple_CSunple1_noRW	acq23456_noRW	3	15	0	0	300	300	202	46	0	1	1	blank2r.bmp	0	1	+	0	1	blank2r.bmp	252	1	MQQM	306	2	tot	559	0	0	0	0	0	0	0	0	0	0	0	0	0	0	0	0	0	0	0	0	0	0	0	0	0	0	0	0	0	0	0	0	0	0	0	0	0	0	0
081919	15:21:45	15:28:00	372782	5.0.10.0	5_exp_noRW	104	Rpleas_acq	CS_B	GWWG	JXXJ	MQQM	BZZB	VKKV	YDDY	spielen	treu	schön	fair	ehrlich	retten	strafen	tot	schlecht	faul	eitel	rächen	47pct	acq_USunple_CSunple2_noRW	acq23456_noRW	3	16	0	0	300	300	107	46	0	1	1	blank2r.bmp	0	1	+	0	1	blank2r.bmp	252	1	BZZB	306	3	rächen	559	0	0	0	0	0	0	0	0	0	0	0	0	0	0	0	0	0	0	0	0	0	0	0	0	0	0	0	0	0	0	0	0	0	0	0	0	0	0	0
081919	15:21:45	15:28:01	374221	5.0.10.0	5_exp_noRW	104	Rpleas_acq	CS_B	GWWG	JXXJ	MQQM	BZZB	VKKV	YDDY	spielen	treu	schön	fair	ehrlich	retten	strafen	tot	schlecht	faul	eitel	rächen	47pct	acq_USpleas_CSpleas2_noRW	acq23456_noRW	3	17	0	0	300	300	63	46	0	0	1	blank2r.bmp	0	1	+	0	1	blank2r.bmp	252	1	JXXJ	306	1	fair	559	1	FEHLER	653	0	0	0	0	0	0	0	0	0	0	0	0	0	0	0	0	0	0	0	0	0	0	0	0	0	0	0	0	0	0	0	0	0	0	0	0
081919	15:21:45	15:28:03	375594	5.0.10.0	5_exp_noRW	104	Rpleas_acq	CS_B	GWWG	JXXJ	MQQM	BZZB	VKKV	YDDY	spielen	treu	schön	fair	ehrlich	retten	strafen	tot	schlecht	faul	eitel	rächen	47pct	acq_USpleas_CSpleas2_noRW	acq23456_noRW	3	18	0	0	300	300	404	50	0	1	1	blank2r.bmp	0	1	+	0	1	blank2r.bmp	252	1	JXXJ	306	3	retten	559	0	0	0	0	0	0	0	0	0	0	0	0	0	0	0	0	0	0	0	0	0	0	0	0	0	0	0	0	0	0	0	0	0	0	0	0	0	0	0
081919	15:21:45	15:28:04	377020	5.0.10.0	5_exp_noRW	104	Rpleas_acq	CS_B	GWWG	JXXJ	MQQM	BZZB	VKKV	YDDY	spielen	treu	schön	fair	ehrlich	retten	strafen	tot	schlecht	faul	eitel	rächen	47pct	acq_USunple_CSpleas1_noRW	acq23456_noRW	3	19	0	0	300	300	47	50	0	0	1	blank2r.bmp	0	1	+	0	1	blank2r.bmp	252	1	GWWG	306	2	tot	559	1	FEHLER	639	0	0	0	0	0	0	0	0	0	0	0	0	0	0	0	0	0	0	0	0	0	0	0	0	0	0	0	0	0	0	0	0	0	0	0	0
081919	15:21:45	15:28:05	378406	5.0.10.0	5_exp_noRW	104	Rpleas_acq	CS_B	GWWG	JXXJ	MQQM	BZZB	VKKV	YDDY	spielen	treu	schön	fair	ehrlich	retten	strafen	tot	schlecht	faul	eitel	rächen	47pct	acq_USunple_CSunple2_noRW	acq23456_noRW	3	20	0	0	300	300	213	50	0	0	1	blank2r.bmp	0	1	+	0	1	blank2r.bmp	252	1	BZZB	306	1	faul	559	1	FEHLER	813	0	0	0	0	0	0	0	0	0	0	0	0	0	0	0	0	0	0	0	0	0	0	0	0	0	0	0	0	0	0	0	0	0	0	0	0
081919	15:21:45	15:28:07	379912	5.0.10.0	5_exp_noRW	104	Rpleas_acq	CS_B	GWWG	JXXJ	MQQM	BZZB	VKKV	YDDY	spielen	treu	schön	fair	ehrlich	retten	strafen	tot	schlecht	faul	eitel	rächen	47pct	acq_USunple_CSunple2_noRW	acq23456_noRW	3	21	0	0	300	300	337	50	0	0	1	blank2r.bmp	0	1	+	0	1	blank2r.bmp	252	1	BZZB	306	2	eitel	559	1	FEHLER	932	0	0	0	0	0	0	0	0	0	0	0	0	0	0	0	0	0	0	0	0	0	0	0	0	0	0	0	0	0	0	0	0	0	0	0	0
081919	15:21:45	15:28:08	381378	5.0.10.0	5_exp_noRW	104	Rpleas_acq	CS_B	GWWG	JXXJ	MQQM	BZZB	VKKV	YDDY	spielen	treu	schön	fair	ehrlich	retten	strafen	tot	schlecht	faul	eitel	rächen	47pct	acq_USpleas_CSpleas1_noRW	acq23456_noRW	3	22	0	0	300	300	492	50	0	1	1	blank2r.bmp	0	1	+	0	1	blank2r.bmp	252	1	GWWG	306	2	treu	559	0	0	0	0	0	0	0	0	0	0	0	0	0	0	0	0	0	0	0	0	0	0	0	0	0	0	0	0	0	0	0	0	0	0	0	0	0	0	0
081919	15:21:45	15:28:10	382871	5.0.10.0	5_exp_noRW	104	Rpleas_acq	CS_B	GWWG	JXXJ	MQQM	BZZB	VKKV	YDDY	spielen	treu	schön	fair	ehrlich	retten	strafen	tot	schlecht	faul	eitel	rächen	53pct	acq_USunple_CSunple2_noRW	acq23456_noRW	3	23	0	0	300	300	321	46	0	1	1	blank2r.bmp	0	1	+	0	1	blank2r.bmp	252	1	BZZB	306	1	faul	559	0	0	0	0	0	0	0	0	0	0	0	0	0	0	0	0	0	0	0	0	0	0	0	0	0	0	0	0	0	0	0	0	0	0	0	0	0	0	0
081919	15:21:45	15:28:11	384350	5.0.10.0	5_exp_noRW	104	Rpleas_acq	CS_B	GWWG	JXXJ	MQQM	BZZB	VKKV	YDDY	spielen	treu	schön	fair	ehrlich	retten	strafen	tot	schlecht	faul	eitel	rächen	47pct	acq_USpleas_CSpleas1_noRW	acq23456_noRW	3	24	0	0	300	300	297	50	0	1	1	blank2r.bmp	0	1	+	0	1	blank2r.bmp	252	1	GWWG	306	1	spielen	559	0	0	0	0	0	0	0	0	0	0	0	0	0	0	0	0	0	0	0	0	0	0	0	0	0	0	0	0	0	0	0	0	0	0	0	0	0	0	0
081919	15:21:45	15:28:13	385910	5.0.10.0	5_exp_noRW	104	Rpleas_acq	CS_B	GWWG	JXXJ	MQQM	BZZB	VKKV	YDDY	spielen	treu	schön	fair	ehrlich	retten	strafen	tot	schlecht	faul	eitel	rächen	47pct	acq_USunple_CSunple1_noRW	acq23456_noRW	3	25	0	0	300	300	377	46	0	1	1	blank2r.bmp	0	1	+	0	1	blank2r.bmp	252	1	MQQM	306	3	schlecht	559	0	0	0	0	0	0	0	0	0	0	0	0	0	0	0	0	0	0	0	0	0	0	0	0	0	0	0	0	0	0	0	0	0	0	0	0	0	0	0
081919	15:21:45	15:28:14	387256	5.0.10.0	5_exp_noRW	104	Rpleas_acq	CS_B	GWWG	JXXJ	MQQM	BZZB	VKKV	YDDY	spielen	treu	schön	fair	ehrlich	retten	strafen	tot	schlecht	faul	eitel	rächen	47pct	acq_USpleas_CSpleas2_noRW	acq23456_noRW	3	26	0	0	300	300	169	50	0	1	1	blank2r.bmp	0	1	+	0	1	blank2r.bmp	252	1	JXXJ	306	3	retten	559	0	0	0	0	0	0	0	0	0	0	0	0	0	0	0	0	0	0	0	0	0	0	0	0	0	0	0	0	0	0	0	0	0	0	0	0	0	0	0
081919	15:21:45	15:28:16	389082	5.0.10.0	5_exp_noRW	104	Rpleas_acq	CS_B	GWWG	JXXJ	MQQM	BZZB	VKKV	YDDY	spielen	treu	schön	fair	ehrlich	retten	strafen	tot	schlecht	faul	eitel	rächen	53pct	acq_USunple_CSunple1_noRW	acq23456_noRW	3	27	0	0	300	300	434	50	0	0	1	blank2r.bmp	0	1	+	0	1	blank2r.bmp	252	1	MQQM	306	2	tot	559	1	FEHLER	1026	0	0	0	0	0	0	0	0	0	0	0	0	0	0	0	0	0	0	0	0	0	0	0	0	0	0	0	0	0	0	0	0	0	0	0	0
081919	15:21:45	15:28:17	390494	5.0.10.0	5_exp_noRW	104	Rpleas_acq	CS_B	GWWG	JXXJ	MQQM	BZZB	VKKV	YDDY	spielen	treu	schön	fair	ehrlich	retten	strafen	tot	schlecht	faul	eitel	rächen	47pct	acq_USpleas_CSpleas1_noRW	acq23456_noRW	3	28	0	0	300	300	443	50	0	1	1	blank2r.bmp	0	1	+	0	1	blank2r.bmp	252	1	GWWG	306	3	schön	559	0	0	0	0	0	0	0	0	0	0	0	0	0	0	0	0	0	0	0	0	0	0	0	0	0	0	0	0	0	0	0	0	0	0	0	0	0	0	0
081919	15:21:45	15:28:19	391867	5.0.10.0	5_exp_noRW	104	Rpleas_acq	CS_B	GWWG	JXXJ	MQQM	BZZB	VKKV	YDDY	spielen	treu	schön	fair	ehrlich	retten	strafen	tot	schlecht	faul	eitel	rächen	47pct	acq_USunple_CSunple1_noRW	acq23456_noRW	3	29	0	0	300	300	197	46	0	1	1	blank2r.bmp	0	1	+	0	1	blank2r.bmp	252	1	MQQM	306	1	strafen	559	0	0	0	0	0	0	0	0	0	0	0	0	0	0	0	0	0	0	0	0	0	0	0	0	0	0	0	0	0	0	0	0	0	0	0	0	0	0	0
081919	15:21:45	15:28:20	393387	5.0.10.0	5_exp_noRW	104	Rpleas_acq	CS_B	GWWG	JXXJ	MQQM	BZZB	VKKV	YDDY	spielen	treu	schön	fair	ehrlich	retten	strafen	tot	schlecht	faul	eitel	rächen	47pct	acq_USpleas_CSpleas2_noRW	acq23456_noRW	3	30	0	0	300	300	343	50	0	1	1	blank2r.bmp	0	1	+	0	1	blank2r.bmp	252	1	JXXJ	306	2	ehrlich	559	0	0	0	0	0	0	0	0	0	0	0	0	0	0	0	0	0	0	0	0	0	0	0	0	0	0	0	0	0	0	0	0	0	0	0	0	0	0	0
081919	15:21:45	15:28:22	395199	5.0.10.0	5_exp_noRW	104	Rpleas_acq	CS_B	GWWG	JXXJ	MQQM	BZZB	VKKV	YDDY	spielen	treu	schön	fair	ehrlich	retten	strafen	tot	schlecht	faul	eitel	rächen	53pct	acq_USpleas_CSpleas2_noRW	acq23456_noRW	3	31	0	0	300	300	429	46	0	0	1	blank2r.bmp	0	1	+	0	1	blank2r.bmp	252	1	JXXJ	306	1	fair	559	1	FEHLER	1026	0	0	0	0	0	0	0	0	0	0	0	0	0	0	0	0	0	0	0	0	0	0	0	0	0	0	0	0	0	0	0	0	0	0	0	0
081919	15:21:45	15:28:24	396559	5.0.10.0	5_exp_noRW	104	Rpleas_acq	CS_B	GWWG	JXXJ	MQQM	BZZB	VKKV	YDDY	spielen	treu	schön	fair	ehrlich	retten	strafen	tot	schlecht	faul	eitel	rächen	53pct	acq_USpleas_CSunple1_noRW	acq23456_noRW	3	32	0	0	300	300	405	50	0	1	1	blank2r.bmp	0	1	+	0	1	blank2r.bmp	252	1	MQQM	306	1	spielen	559	0	0	0	0	0	0	0	0	0	0	0	0	0	0	0	0	0	0	0	0	0	0	0	0	0	0	0	0	0	0	0	0	0	0	0	0	0	0	0
081919	15:21:45	15:28:25	398051	5.0.10.0	5_exp_noRW	104	Rpleas_acq	CS_B	GWWG	JXXJ	MQQM	BZZB	VKKV	YDDY	spielen	treu	schön	fair	ehrlich	retten	strafen	tot	schlecht	faul	eitel	rächen	53pct	acq_USunple_CSunple2_noRW	acq23456_noRW	3	33	0	0	300	300	325	46	0	1	1	blank2r.bmp	0	1	+	0	1	blank2r.bmp	252	1	BZZB	306	3	rächen	559	0	0	0	0	0	0	0	0	0	0	0	0	0	0	0	0	0	0	0	0	0	0	0	0	0	0	0	0	0	0	0	0	0	0	0	0	0	0	0
081919	15:21:45	15:28:27	399637	5.0.10.0	5_exp_noRW	104	Rpleas_acq	CS_B	GWWG	JXXJ	MQQM	BZZB	VKKV	YDDY	spielen	treu	schön	fair	ehrlich	retten	strafen	tot	schlecht	faul	eitel	rächen	53pct	acq_USunple_CSunple1_noRW	acq23456_noRW	3	34	0	0	300	300	413	46	0	1	1	blank2r.bmp	0	1	+	0	1	blank2r.bmp	252	1	MQQM	306	3	schlecht	559	0	0	0	0	0	0	0	0	0	0	0	0	0	0	0	0	0	0	0	0	0	0	0	0	0	0	0	0	0	0	0	0	0	0	0	0	0	0	0
081919	15:21:45	15:28:28	401237	5.0.10.0	5_exp_noRW	104	Rpleas_acq	CS_B	GWWG	JXXJ	MQQM	BZZB	VKKV	YDDY	spielen	treu	schön	fair	ehrlich	retten	strafen	tot	schlecht	faul	eitel	rächen	47pct	acq_USpleas_CSunple2_noRW	acq23456_noRW	3	35	0	0	300	300	434	50	0	1	1	blank2r.bmp	0	1	+	0	1	blank2r.bmp	252	1	BZZB	306	2	ehrlich	559	0	0	0	0	0	0	0	0	0	0	0	0	0	0	0	0	0	0	0	0	0	0	0	0	0	0	0	0	0	0	0	0	0	0	0	0	0	0	0
081919	15:21:45	15:28:30	402836	5.0.10.0	5_exp_noRW	104	Rpleas_acq	CS_B	GWWG	JXXJ	MQQM	BZZB	VKKV	YDDY	spielen	treu	schön	fair	ehrlich	retten	strafen	tot	schlecht	faul	eitel	rächen	53pct	acq_USunple_CSpleas1_noRW	acq23456_noRW	3	36	0	0	300	300	436	46	0	1	1	blank2r.bmp	0	1	+	0	1	blank2r.bmp	252	1	GWWG	306	1	strafen	559	0	0	0	0	0	0	0	0	0	0	0	0	0	0	0	0	0	0	0	0	0	0	0	0	0	0	0	0	0	0	0	0	0	0	0	0	0	0	0
081919	15:21:45	15:28:31	404462	5.0.10.0	5_exp_noRW	104	Rpleas_acq	CS_B	GWWG	JXXJ	MQQM	BZZB	VKKV	YDDY	spielen	treu	schön	fair	ehrlich	retten	strafen	tot	schlecht	faul	eitel	rächen	53pct	acq_USpleas_CSpleas1_noRW	acq23456_noRW	3	37	0	0	300	300	441	50	0	1	1	blank2r.bmp	0	1	+	0	1	blank2r.bmp	252	1	GWWG	306	3	schön	559	0	0	0	0	0	0	0	0	0	0	0	0	0	0	0	0	0	0	0	0	0	0	0	0	0	0	0	0	0	0	0	0	0	0	0	0	0	0	0
081919	15:21:45	15:28:33	405702	5.0.10.0	5_exp_noRW	104	Rpleas_acq	CS_B	GWWG	JXXJ	MQQM	BZZB	VKKV	YDDY	spielen	treu	schön	fair	ehrlich	retten	strafen	tot	schlecht	faul	eitel	rächen	47pct	acq_USunple_CSpleas2_noRW	acq23456_noRW	3	38	0	0	300	300	75	46	0	1	1	blank2r.bmp	0	1	+	0	1	blank2r.bmp	252	1	JXXJ	306	1	faul	559	0	0	0	0	0	0	0	0	0	0	0	0	0	0	0	0	0	0	0	0	0	0	0	0	0	0	0	0	0	0	0	0	0	0	0	0	0	0	0
081919	15:21:45	15:28:34	407128	5.0.10.0	5_exp_noRW	104	Rpleas_acq	CS_B	GWWG	JXXJ	MQQM	BZZB	VKKV	YDDY	spielen	treu	schön	fair	ehrlich	retten	strafen	tot	schlecht	faul	eitel	rächen	53pct	acq_USunple_CSunple2_noRW	acq23456_noRW	3	39	0	0	300	300	30	50	0	0	1	blank2r.bmp	0	1	+	0	1	blank2r.bmp	252	1	BZZB	306	2	eitel	559	1	FEHLER	626	0	0	0	0	0	0	0	0	0	0	0	0	0	0	0	0	0	0	0	0	0	0	0	0	0	0	0	0	0	0	0	0	0	0	0	0
081919	15:21:45	15:28:35	408394	5.0.10.0	5_exp_noRW	104	Rpleas_acq	CS_B	GWWG	JXXJ	MQQM	BZZB	VKKV	YDDY	spielen	treu	schön	fair	ehrlich	retten	strafen	tot	schlecht	faul	eitel	rächen	47pct	acq_USpleas_CSpleas2_noRW	acq23456_noRW	3	40	0	0	300	300	105	46	0	0	1	blank2r.bmp	0	1	+	0	1	blank2r.bmp	252	1	JXXJ	306	2	ehrlich	559	1	FEHLER	693	0	0	0	0	0	0	0	0	0	0	0	0	0	0	0	0	0	0	0	0	0	0	0	0	0	0	0	0	0	0	0	0	0	0	0	0
081919	15:21:45	15:28:36	409433	5.0.10.0	5_exp_noRW	104	Rpleas_acq	CS_B	GWWG	JXXJ	MQQM	BZZB	VKKV	YDDY	spielen	treu	schön	fair	ehrlich	retten	strafen	tot	schlecht	faul	eitel	rächen	53pct	acq_USpleas_CSpleas1_noRW	acq23456_noRW	3	41	0	0	300	300	73	50	0	1	1	blank2r.bmp	0	1	+	0	1	blank2r.bmp	252	1	GWWG	306	2	treu	559	0	0	0	0	0	0	0	0	0	0	0	0	0	0	0	0	0	0	0	0	0	0	0	0	0	0	0	0	0	0	0	0	0	0	0	0	0	0	0
081919	15:21:45	15:28:38	410766	5.0.10.0	5_exp_noRW	104	Rpleas_acq	CS_B	GWWG	JXXJ	MQQM	BZZB	VKKV	YDDY	spielen	treu	schön	fair	ehrlich	retten	strafen	tot	schlecht	faul	eitel	rächen	47pct	acq_USunple_CSunple1_noRW	acq23456_noRW	3	42	0	0	300	300	148	46	0	1	1	blank2r.bmp	0	1	+	0	1	blank2r.bmp	252	1	MQQM	306	2	tot	559	0	0	0	0	0	0	0	0	0	0	0	0	0	0	0	0	0	0	0	0	0	0	0	0	0	0	0	0	0	0	0	0	0	0	0	0	0	0	0
081919	15:21:45	15:28:39	412179	5.0.10.0	5_exp_noRW	104	Rpleas_acq	CS_B	GWWG	JXXJ	MQQM	BZZB	VKKV	YDDY	spielen	treu	schön	fair	ehrlich	retten	strafen	tot	schlecht	faul	eitel	rächen	53pct	acq_USpleas_CSpleas1_noRW	acq23456_noRW	3	43	0	0	300	300	35	46	0	0	1	blank2r.bmp	0	1	+	0	1	blank2r.bmp	252	1	GWWG	306	1	spielen	559	1	FEHLER	626	0	0	0	0	0	0	0	0	0	0	0	0	0	0	0	0	0	0	0	0	0	0	0	0	0	0	0	0	0	0	0	0	0	0	0	0
081919	15:21:45	15:28:40	413219	5.0.10.0	5_exp_noRW	104	Rpleas_acq	CS_B	GWWG	JXXJ	MQQM	BZZB	VKKV	YDDY	spielen	treu	schön	fair	ehrlich	retten	strafen	tot	schlecht	faul	eitel	rächen	47pct	acq_USunple_CSunple2_noRW	acq23456_noRW	3	44	0	0	300	300	76	46	0	1	1	blank2r.bmp	0	1	+	0	1	blank2r.bmp	252	1	BZZB	306	3	rächen	559	0	0	0	0	0	0	0	0	0	0	0	0	0	0	0	0	0	0	0	0	0	0	0	0	0	0	0	0	0	0	0	0	0	0	0	0	0	0	0
081919	15:21:45	15:28:42	415085	5.0.10.0	5_exp_noRW	104	Rpleas_acq	CS_B	GWWG	JXXJ	MQQM	BZZB	VKKV	YDDY	spielen	treu	schön	fair	ehrlich	retten	strafen	tot	schlecht	faul	eitel	rächen	47pct	acq_USpleas_CSpleas2_noRW	acq23456_noRW	3	45	0	0	300	300	468	46	0	0	1	blank2r.bmp	0	1	+	0	1	blank2r.bmp	252	1	JXXJ	306	1	fair	559	1	FEHLER	1066	0	0	0	0	0	0	0	0	0	0	0	0	0	0	0	0	0	0	0	0	0	0	0	0	0	0	0	0	0	0	0	0	0	0	0	0
081919	15:21:45	15:28:44	416551	5.0.10.0	5_exp_noRW	104	Rpleas_acq	CS_B	GWWG	JXXJ	MQQM	BZZB	VKKV	YDDY	spielen	treu	schön	fair	ehrlich	retten	strafen	tot	schlecht	faul	eitel	rächen	47pct	acq_USunple_CSunple1_noRW	acq23456_noRW	3	46	0	0	300	300	296	50	0	0	1	blank2r.bmp	0	1	+	0	1	blank2r.bmp	252	1	MQQM	306	1	strafen	559	1	FEHLER	892	0	0	0	0	0	0	0	0	0	0	0	0	0	0	0	0	0	0	0	0	0	0	0	0	0	0	0	0	0	0	0	0	0	0	0	0
081919	15:21:45	15:28:45	417657	5.0.10.0	5_exp_noRW	104	Rpleas_acq	CS_B	GWWG	JXXJ	MQQM	BZZB	VKKV	YDDY	spielen	treu	schön	fair	ehrlich	retten	strafen	tot	schlecht	faul	eitel	rächen	47pct	acq_USunple_CSunple1_noRW	acq23456_noRW	3	47	0	0	300	300	150	46	0	1	1	blank2r.bmp	0	1	+	0	1	blank2r.bmp	252	1	MQQM	306	2	tot	559	0	0	0	0	0	0	0	0	0	0	0	0	0	0	0	0	0	0	0	0	0	0	0	0	0	0	0	0	0	0	0	0	0	0	0	0	0	0	0
081919	15:21:45	15:28:46	419416	5.0.10.0	5_exp_noRW	104	Rpleas_acq	CS_B	GWWG	JXXJ	MQQM	BZZB	VKKV	YDDY	spielen	treu	schön	fair	ehrlich	retten	strafen	tot	schlecht	faul	eitel	rächen	47pct	acq_USpleas_CSpleas2_noRW	acq23456_noRW	3	48	0	0	300	300	365	46	0	0	1	blank2r.bmp	0	1	+	0	1	blank2r.bmp	252	1	JXXJ	306	3	retten	559	1	FEHLER	959	0	0	0	0	0	0	0	0	0	0	0	0	0	0	0	0	0	0	0	0	0	0	0	0	0	0	0	0	0	0	0	0	0	0	0	0
081919	15:21:45	15:28:48	420789	5.0.10.0	5_exp_noRW	104	Rpleas_acq	CS_B	GWWG	JXXJ	MQQM	BZZB	VKKV	YDDY	spielen	treu	schön	fair	ehrlich	retten	strafen	tot	schlecht	faul	eitel	rächen	47pct	acq_USpleas_CSpleas2_noRW	acq23456_noRW	3	49	0	0	300	300	407	50	0	1	1	blank2r.bmp	0	1	+	0	1	blank2r.bmp	252	1	JXXJ	306	2	ehrlich	559	0	0	0	0	0	0	0	0	0	0	0	0	0	0	0	0	0	0	0	0	0	0	0	0	0	0	0	0	0	0	0	0	0	0	0	0	0	0	0
081919	15:21:45	15:28:49	422455	5.0.10.0	5_exp_noRW	104	Rpleas_acq	CS_B	GWWG	JXXJ	MQQM	BZZB	VKKV	YDDY	spielen	treu	schön	fair	ehrlich	retten	strafen	tot	schlecht	faul	eitel	rächen	47pct	acq_USunple_CSunple2_noRW	acq23456_noRW	3	50	0	0	300	300	480	46	0	1	1	blank2r.bmp	0	1	+	0	1	blank2r.bmp	252	1	BZZB	306	1	faul	559	0	0	0	0	0	0	0	0	0	0	0	0	0	0	0	0	0	0	0	0	0	0	0	0	0	0	0	0	0	0	0	0	0	0	0	0	0	0	0
081919	15:21:45	15:28:51	424201	5.0.10.0	5_exp_noRW	104	Rpleas_acq	CS_B	GWWG	JXXJ	MQQM	BZZB	VKKV	YDDY	spielen	treu	schön	fair	ehrlich	retten	strafen	tot	schlecht	faul	eitel	rächen	47pct	acq_USunple_CSunple2_noRW	acq23456_noRW	3	51	0	0	300	300	365	50	0	0	1	blank2r.bmp	0	1	+	0	1	blank2r.bmp	252	1	BZZB	306	3	rächen	559	1	FEHLER	959	0	0	0	0	0	0	0	0	0	0	0	0	0	0	0	0	0	0	0	0	0	0	0	0	0	0	0	0	0	0	0	0	0	0	0	0
081919	15:21:45	15:28:52	425400	5.0.10.0	5_exp_noRW	104	Rpleas_acq	CS_B	GWWG	JXXJ	MQQM	BZZB	VKKV	YDDY	spielen	treu	schön	fair	ehrlich	retten	strafen	tot	schlecht	faul	eitel	rächen	47pct	acq_USunple_CSunple1_noRW	acq23456_noRW	3	52	0	0	300	300	24	50	0	0	1	blank2r.bmp	0	1	+	0	1	blank2r.bmp	252	1	MQQM	306	3	schlecht	559	1	FEHLER	613	0	0	0	0	0	0	0	0	0	0	0	0	0	0	0	0	0	0	0	0	0	0	0	0	0	0	0	0	0	0	0	0	0	0	0	0
081919	15:21:45	15:28:54	426627	5.0.10.0	5_exp_noRW	104	Rpleas_acq	CS_B	GWWG	JXXJ	MQQM	BZZB	VKKV	YDDY	spielen	treu	schön	fair	ehrlich	retten	strafen	tot	schlecht	faul	eitel	rächen	47pct	acq_USunple_CSpleas1_noRW	acq23456_noRW	3	53	0	0	300	300	52	50	0	0	1	blank2r.bmp	0	1	+	0	1	blank2r.bmp	252	1	GWWG	306	2	tot	559	1	FEHLER	653	0	0	0	0	0	0	0	0	0	0	0	0	0	0	0	0	0	0	0	0	0	0	0	0	0	0	0	0	0	0	0	0	0	0	0	0
081919	15:21:45	15:28:55	427706	5.0.10.0	5_exp_noRW	104	Rpleas_acq	CS_B	GWWG	JXXJ	MQQM	BZZB	VKKV	YDDY	spielen	treu	schön	fair	ehrlich	retten	strafen	tot	schlecht	faul	eitel	rächen	47pct	acq_USunple_CSunple2_noRW	acq23456_noRW	3	54	0	0	300	300	124	46	0	1	1	blank2r.bmp	0	1	+	0	1	blank2r.bmp	252	1	BZZB	306	2	eitel	559	0	0	0	0	0	0	0	0	0	0	0	0	0	0	0	0	0	0	0	0	0	0	0	0	0	0	0	0	0	0	0	0	0	0	0	0	0	0	0
081919	15:21:45	15:28:56	429505	5.0.10.0	5_exp_noRW	104	Rpleas_acq	CS_B	GWWG	JXXJ	MQQM	BZZB	VKKV	YDDY	spielen	treu	schön	fair	ehrlich	retten	strafen	tot	schlecht	faul	eitel	rächen	53pct	acq_USpleas_CSunple1_noRW	acq23456_noRW	3	55	0	0	300	300	612	50	0	1	1	blank2r.bmp	0	1	+	0	1	blank2r.bmp	252	1	MQQM	306	3	schön	559	0	0	0	0	0	0	0	0	0	0	0	0	0	0	0	0	0	0	0	0	0	0	0	0	0	0	0	0	0	0	0	0	0	0	0	0	0	0	0
081919	15:21:45	15:28:58	431251	5.0.10.0	5_exp_noRW	104	Rpleas_acq	CS_B	GWWG	JXXJ	MQQM	BZZB	VKKV	YDDY	spielen	treu	schön	fair	ehrlich	retten	strafen	tot	schlecht	faul	eitel	rächen	47pct	acq_USpleas_CSpleas1_noRW	acq23456_noRW	3	56	0	0	300	300	574	50	0	1	1	blank2r.bmp	0	1	+	0	1	blank2r.bmp	252	1	GWWG	306	2	treu	559	0	0	0	0	0	0	0	0	0	0	0	0	0	0	0	0	0	0	0	0	0	0	0	0	0	0	0	0	0	0	0	0	0	0	0	0	0	0	0
081919	15:21:45	15:29:00	432757	5.0.10.0	5_exp_noRW	104	Rpleas_acq	CS_B	GWWG	JXXJ	MQQM	BZZB	VKKV	YDDY	spielen	treu	schön	fair	ehrlich	retten	strafen	tot	schlecht	faul	eitel	rächen	53pct	acq_USpleas_CSpleas1_noRW	acq23456_noRW	3	57	0	0	300	300	130	46	0	0	1	blank2r.bmp	0	1	+	0	1	blank2r.bmp	252	1	GWWG	306	3	schön	559	1	FEHLER	719	0	0	0	0	0	0	0	0	0	0	0	0	0	0	0	0	0	0	0	0	0	0	0	0	0	0	0	0	0	0	0	0	0	0	0	0
081919	15:21:45	15:29:01	434010	5.0.10.0	5_exp_noRW	104	Rpleas_acq	CS_B	GWWG	JXXJ	MQQM	BZZB	VKKV	YDDY	spielen	treu	schön	fair	ehrlich	retten	strafen	tot	schlecht	faul	eitel	rächen	53pct	acq_USunple_CSpleas2_noRW	acq23456_noRW	3	58	0	0	300	300	60	50	0	0	1	blank2r.bmp	0	1	+	0	1	blank2r.bmp	252	1	JXXJ	306	2	eitel	559	1	FEHLER	653	0	0	0	0	0	0	0	0	0	0	0	0	0	0	0	0	0	0	0	0	0	0	0	0	0	0	0	0	0	0	0	0	0	0	0	0
081919	15:21:45	15:29:02	435063	5.0.10.0	5_exp_noRW	104	Rpleas_acq	CS_B	GWWG	JXXJ	MQQM	BZZB	VKKV	YDDY	spielen	treu	schön	fair	ehrlich	retten	strafen	tot	schlecht	faul	eitel	rächen	47pct	acq_USpleas_CSunple2_noRW	acq23456_noRW	3	59	0	0	300	300	81	50	0	1	1	blank2r.bmp	0	1	+	0	1	blank2r.bmp	252	1	BZZB	306	1	fair	559	0	0	0	0	0	0	0	0	0	0	0	0	0	0	0	0	0	0	0	0	0	0	0	0	0	0	0	0	0	0	0	0	0	0	0	0	0	0	0
081919	15:21:45	15:29:04	436742	5.0.10.0	5_exp_noRW	104	Rpleas_acq	CS_B	GWWG	JXXJ	MQQM	BZZB	VKKV	YDDY	spielen	treu	schön	fair	ehrlich	retten	strafen	tot	schlecht	faul	eitel	rächen	53pct	acq_USpleas_CSpleas2_noRW	acq23456_noRW	3	60	0	0	300	300	510	50	0	1	1	blank2r.bmp	0	1	+	0	1	blank2r.bmp	252	1	JXXJ	306	1	fair	559	0	0	0	0	0	0	0	0	0	0	0	0	0	0	0	0	0	0	0	0	0	0	0	0	0	0	0	0	0	0	0	0	0	0	0	0	0	0	0
081919	15:21:45	15:29:05	438208	5.0.10.0	5_exp_noRW	104	Rpleas_acq	CS_B	GWWG	JXXJ	MQQM	BZZB	VKKV	YDDY	spielen	treu	schön	fair	ehrlich	retten	strafen	tot	schlecht	faul	eitel	rächen	47pct	acq_USunple_CSunple1_noRW	acq23456_noRW	3	61	0	0	300	300	298	46	0	1	1	blank2r.bmp	0	1	+	0	1	blank2r.bmp	252	1	MQQM	306	1	strafen	559	0	0	0	0	0	0	0	0	0	0	0	0	0	0	0	0	0	0	0	0	0	0	0	0	0	0	0	0	0	0	0	0	0	0	0	0	0	0	0
081919	15:21:45	15:29:07	439781	5.0.10.0	5_exp_noRW	104	Rpleas_acq	CS_B	GWWG	JXXJ	MQQM	BZZB	VKKV	YDDY	spielen	treu	schön	fair	ehrlich	retten	strafen	tot	schlecht	faul	eitel	rächen	47pct	acq_USpleas_CSunple2_noRW	acq23456_noRW	3	62	0	0	300	300	408	50	0	1	1	blank2r.bmp	0	1	+	0	1	blank2r.bmp	252	1	BZZB	306	3	retten	559	0	0	0	0	0	0	0	0	0	0	0	0	0	0	0	0	0	0	0	0	0	0	0	0	0	0	0	0	0	0	0	0	0	0	0	0	0	0	0
081919	15:21:45	15:29:08	441301	5.0.10.0	5_exp_noRW	104	Rpleas_acq	CS_B	GWWG	JXXJ	MQQM	BZZB	VKKV	YDDY	spielen	treu	schön	fair	ehrlich	retten	strafen	tot	schlecht	faul	eitel	rächen	47pct	acq_USunple_CSunple1_noRW	acq23456_noRW	3	63	0	0	300	300	349	46	0	1	1	blank2r.bmp	0	1	+	0	1	blank2r.bmp	252	1	MQQM	306	3	schlecht	559	0	0	0	0	0	0	0	0	0	0	0	0	0	0	0	0	0	0	0	0	0	0	0	0	0	0	0	0	0	0	0	0	0	0	0	0	0	0	0
081919	15:21:45	15:29:10	442927	5.0.10.0	5_exp_noRW	104	Rpleas_acq	CS_B	GWWG	JXXJ	MQQM	BZZB	VKKV	YDDY	spielen	treu	schön	fair	ehrlich	retten	strafen	tot	schlecht	faul	eitel	rächen	53pct	acq_USunple_CSunple2_noRW	acq23456_noRW	3	64	0	0	300	300	463	46	0	1	1	blank2r.bmp	0	1	+	0	1	blank2r.bmp	252	1	BZZB	306	1	faul	559	0	0	0	0	0	0	0	0	0	0	0	0	0	0	0	0	0	0	0	0	0	0	0	0	0	0	0	0	0	0	0	0	0	0	0	0	0	0	0
081919	15:21:45	15:29:12	444566	5.0.10.0	5_exp_noRW	104	Rpleas_acq	CS_B	GWWG	JXXJ	MQQM	BZZB	VKKV	YDDY	spielen	treu	schön	fair	ehrlich	retten	strafen	tot	schlecht	faul	eitel	rächen	53pct	acq_USunple_CSpleas1_noRW	acq23456_noRW	3	65	0	0	300	300	250	50	0	0	1	blank2r.bmp	0	1	+	0	1	blank2r.bmp	252	1	GWWG	306	3	schlecht	559	1	FEHLER	839	0	0	0	0	0	0	0	0	0	0	0	0	0	0	0	0	0	0	0	0	0	0	0	0	0	0	0	0	0	0	0	0	0	0	0	0
081919	15:21:45	15:29:13	445885	5.0.10.0	5_exp_noRW	104	Rpleas_acq	CS_B	GWWG	JXXJ	MQQM	BZZB	VKKV	YDDY	spielen	treu	schön	fair	ehrlich	retten	strafen	tot	schlecht	faul	eitel	rächen	53pct	acq_USunple_CSunple2_noRW	acq23456_noRW	3	66	0	0	300	300	365	46	0	1	1	blank2r.bmp	0	1	+	0	1	blank2r.bmp	252	1	BZZB	306	1	faul	559	0	0	0	0	0	0	0	0	0	0	0	0	0	0	0	0	0	0	0	0	0	0	0	0	0	0	0	0	0	0	0	0	0	0	0	0	0	0	0
081919	15:21:45	15:29:14	447418	5.0.10.0	5_exp_noRW	104	Rpleas_acq	CS_B	GWWG	JXXJ	MQQM	BZZB	VKKV	YDDY	spielen	treu	schön	fair	ehrlich	retten	strafen	tot	schlecht	faul	eitel	rächen	47pct	acq_USpleas_CSpleas1_noRW	acq23456_noRW	3	67	0	0	300	300	362	50	0	1	1	blank2r.bmp	0	1	+	0	1	blank2r.bmp	252	1	GWWG	306	1	spielen	559	0	0	0	0	0	0	0	0	0	0	0	0	0	0	0	0	0	0	0	0	0	0	0	0	0	0	0	0	0	0	0	0	0	0	0	0	0	0	0
081919	15:21:45	15:29:16	449217	5.0.10.0	5_exp_noRW	104	Rpleas_acq	CS_B	GWWG	JXXJ	MQQM	BZZB	VKKV	YDDY	spielen	treu	schön	fair	ehrlich	retten	strafen	tot	schlecht	faul	eitel	rächen	47pct	acq_USunple_CSunple2_noRW	acq23456_noRW	3	68	0	0	300	300	420	50	0	0	1	blank2r.bmp	0	1	+	0	1	blank2r.bmp	252	1	BZZB	306	2	eitel	559	1	FEHLER	1012	0	0	0	0	0	0	0	0	0	0	0	0	0	0	0	0	0	0	0	0	0	0	0	0	0	0	0	0	0	0	0	0	0	0	0	0
081919	15:21:45	15:29:17	450524	5.0.10.0	5_exp_noRW	104	Rpleas_acq	CS_B	GWWG	JXXJ	MQQM	BZZB	VKKV	YDDY	spielen	treu	schön	fair	ehrlich	retten	strafen	tot	schlecht	faul	eitel	rächen	47pct	acq_USpleas_CSpleas1_noRW	acq23456_noRW	3	69	0	0	300	300	358	50	0	1	1	blank2r.bmp	0	1	+	0	1	blank2r.bmp	252	1	GWWG	306	3	schön	559	0	0	0	0	0	0	0	0	0	0	0	0	0	0	0	0	0	0	0	0	0	0	0	0	0	0	0	0	0	0	0	0	0	0	0	0	0	0	0
081919	15:21:45	15:29:19	452176	5.0.10.0	5_exp_noRW	104	Rpleas_acq	CS_B	GWWG	JXXJ	MQQM	BZZB	VKKV	YDDY	spielen	treu	schön	fair	ehrlich	retten	strafen	tot	schlecht	faul	eitel	rächen	47pct	acq_USunple_CSunple1_noRW	acq23456_noRW	3	70	0	0	300	300	475	46	0	1	1	blank2r.bmp	0	1	+	0	1	blank2r.bmp	252	1	MQQM	306	2	tot	559	0	0	0	0	0	0	0	0	0	0	0	0	0	0	0	0	0	0	0	0	0	0	0	0	0	0	0	0	0	0	0	0	0	0	0	0	0	0	0
081919	15:21:45	15:29:21	453829	5.0.10.0	5_exp_noRW	104	Rpleas_acq	CS_B	GWWG	JXXJ	MQQM	BZZB	VKKV	YDDY	spielen	treu	schön	fair	ehrlich	retten	strafen	tot	schlecht	faul	eitel	rächen	53pct	acq_USpleas_CSpleas2_noRW	acq23456_noRW	3	71	0	0	300	300	473	50	0	1	1	blank2r.bmp	0	1	+	0	1	blank2r.bmp	252	1	JXXJ	306	3	retten	559	0	0	0	0	0	0	0	0	0	0	0	0	0	0	0	0	0	0	0	0	0	0	0	0	0	0	0	0	0	0	0	0	0	0	0	0	0	0	0
081919	15:21:45	15:29:23	455588	5.0.10.0	5_exp_noRW	104	Rpleas_acq	CS_B	GWWG	JXXJ	MQQM	BZZB	VKKV	YDDY	spielen	treu	schön	fair	ehrlich	retten	strafen	tot	schlecht	faul	eitel	rächen	53pct	acq_USpleas_CSpleas2_noRW	acq23456_noRW	3	72	0	0	300	300	573	50	0	1	1	blank2r.bmp	0	1	+	0	1	blank2r.bmp	252	1	JXXJ	306	1	fair	559	0	0	0	0	0	0	0	0	0	0	0	0	0	0	0	0	0	0	0	0	0	0	0	0	0	0	0	0	0	0	0	0	0	0	0	0	0	0	0
081919	15:21:45	15:29:24	457374	5.0.10.0	5_exp_noRW	104	Rpleas_acq	CS_B	GWWG	JXXJ	MQQM	BZZB	VKKV	YDDY	spielen	treu	schön	fair	ehrlich	retten	strafen	tot	schlecht	faul	eitel	rächen	53pct	acq_USunple_CSunple2_noRW	acq23456_noRW	3	73	0	0	300	300	398	50	0	0	1	blank2r.bmp	0	1	+	0	1	blank2r.bmp	252	1	BZZB	306	3	rächen	559	1	FEHLER	999	0	0	0	0	0	0	0	0	0	0	0	0	0	0	0	0	0	0	0	0	0	0	0	0	0	0	0	0	0	0	0	0	0	0	0	0
081919	15:21:45	15:29:26	458973	5.0.10.0	5_exp_noRW	104	Rpleas_acq	CS_B	GWWG	JXXJ	MQQM	BZZB	VKKV	YDDY	spielen	treu	schön	fair	ehrlich	retten	strafen	tot	schlecht	faul	eitel	rächen	47pct	acq_USunple_CSunple1_noRW	acq23456_noRW	3	74	0	0	300	300	642	46	0	1	1	blank2r.bmp	0	1	+	0	1	blank2r.bmp	252	1	MQQM	306	1	strafen	559	0	0	0	0	0	0	0	0	0	0	0	0	0	0	0	0	0	0	0	0	0	0	0	0	0	0	0	0	0	0	0	0	0	0	0	0	0	0	0
081919	15:21:45	15:29:28	460879	5.0.10.0	5_exp_noRW	104	Rpleas_acq	CS_B	GWWG	JXXJ	MQQM	BZZB	VKKV	YDDY	spielen	treu	schön	fair	ehrlich	retten	strafen	tot	schlecht	faul	eitel	rächen	53pct	acq_USpleas_CSpleas1_noRW	acq23456_noRW	3	75	0	0	300	300	523	46	0	0	1	blank2r.bmp	0	1	+	0	1	blank2r.bmp	252	1	GWWG	306	2	treu	559	1	FEHLER	1119	0	0	0	0	0	0	0	0	0	0	0	0	0	0	0	0	0	0	0	0	0	0	0	0	0	0	0	0	0	0	0	0	0	0	0	0
081919	15:21:45	15:29:29	462185	5.0.10.0	5_exp_noRW	104	Rpleas_acq	CS_B	GWWG	JXXJ	MQQM	BZZB	VKKV	YDDY	spielen	treu	schön	fair	ehrlich	retten	strafen	tot	schlecht	faul	eitel	rächen	53pct	acq_USpleas_CSunple1_noRW	acq23456_noRW	3	76	0	0	300	300	126	46	0	0	1	blank2r.bmp	0	1	+	0	1	blank2r.bmp	252	1	MQQM	306	2	treu	559	1	FEHLER	719	0	0	0	0	0	0	0	0	0	0	0	0	0	0	0	0	0	0	0	0	0	0	0	0	0	0	0	0	0	0	0	0	0	0	0	0
081919	15:21:45	15:29:30	463212	5.0.10.0	5_exp_noRW	104	Rpleas_acq	CS_B	GWWG	JXXJ	MQQM	BZZB	VKKV	YDDY	spielen	treu	schön	fair	ehrlich	retten	strafen	tot	schlecht	faul	eitel	rächen	53pct	acq_USpleas_CSpleas1_noRW	acq23456_noRW	3	77	0	0	300	300	52	50	0	1	1	blank2r.bmp	0	1	+	0	1	blank2r.bmp	252	1	GWWG	306	1	spielen	559	0	0	0	0	0	0	0	0	0	0	0	0	0	0	0	0	0	0	0	0	0	0	0	0	0	0	0	0	0	0	0	0	0	0	0	0	0	0	0
081919	15:21:45	15:29:32	464744	5.0.10.0	5_exp_noRW	104	Rpleas_acq	CS_B	GWWG	JXXJ	MQQM	BZZB	VKKV	YDDY	spielen	treu	schön	fair	ehrlich	retten	strafen	tot	schlecht	faul	eitel	rächen	47pct	acq_USpleas_CSpleas2_noRW	acq23456_noRW	3	78	0	0	300	300	155	46	0	0	1	blank2r.bmp	0	1	+	0	1	blank2r.bmp	252	1	JXXJ	306	2	ehrlich	559	1	FEHLER	746	0	0	0	0	0	0	0	0	0	0	0	0	0	0	0	0	0	0	0	0	0	0	0	0	0	0	0	0	0	0	0	0	0	0	0	0
081919	15:21:45	15:29:33	466037	5.0.10.0	5_exp_noRW	104	Rpleas_acq	CS_B	GWWG	JXXJ	MQQM	BZZB	VKKV	YDDY	spielen	treu	schön	fair	ehrlich	retten	strafen	tot	schlecht	faul	eitel	rächen	47pct	acq_USpleas_CSpleas2_noRW	acq23456_noRW	3	79	0	0	300	300	113	46	0	0	1	blank2r.bmp	0	1	+	0	1	blank2r.bmp	252	1	JXXJ	306	3	retten	559	1	FEHLER	706	0	0	0	0	0	0	0	0	0	0	0	0	0	0	0	0	0	0	0	0	0	0	0	0	0	0	0	0	0	0	0	0	0	0	0	0
081919	15:21:45	15:29:34	467223	5.0.10.0	5_exp_noRW	104	Rpleas_acq	CS_B	GWWG	JXXJ	MQQM	BZZB	VKKV	YDDY	spielen	treu	schön	fair	ehrlich	retten	strafen	tot	schlecht	faul	eitel	rächen	53pct	acq_USunple_CSpleas2_noRW	acq23456_noRW	3	80	0	0	300	300	8	50	0	0	1	blank2r.bmp	0	1	+	0	1	blank2r.bmp	252	1	JXXJ	306	3	rächen	559	1	FEHLER	599	0	0	0	0	0	0	0	0	0	0	0	0	0	0	0	0	0	0	0	0	0	0	0	0	0	0	0	0	0	0	0	0	0	0	0	0
081919	15:21:45	15:29:39	472435	5.0.10.0	5_exp_noRW	104	Rpleas_acq	CS_B	GWWG	JXXJ	MQQM	BZZB	VKKV	YDDY	spielen	treu	schön	fair	ehrlich	retten	strafen	tot	schlecht	faul	eitel	rächen	47pct	acq_USpleas_CSpleas2_noRW	acq23456_noRW	4	1	0	0	300	300	554	50	0	1	1	blank2r.bmp	0	1	+	0	1	blank2r.bmp	252	1	JXXJ	306	2	ehrlich	559	0	0	0	0	0	0	0	0	0	0	0	0	0	0	0	0	0	0	0	0	0	0	0	0	0	0	0	0	0	0	0	0	0	0	0	0	0	0	0
081919	15:21:45	15:29:41	473647	5.0.10.0	5_exp_noRW	104	Rpleas_acq	CS_B	GWWG	JXXJ	MQQM	BZZB	VKKV	YDDY	spielen	treu	schön	fair	ehrlich	retten	strafen	tot	schlecht	faul	eitel	rächen	53pct	acq_USpleas_CSpleas2_noRW	acq23456_noRW	4	2	0	0	300	300	42	50	0	1	1	blank2r.bmp	0	1	+	0	1	blank2r.bmp	252	1	JXXJ	306	1	fair	559	0	0	0	0	0	0	0	0	0	0	0	0	0	0	0	0	0	0	0	0	0	0	0	0	0	0	0	0	0	0	0	0	0	0	0	0	0	0	0
081919	15:21:45	15:29:42	475047	5.0.10.0	5_exp_noRW	104	Rpleas_acq	CS_B	GWWG	JXXJ	MQQM	BZZB	VKKV	YDDY	spielen	treu	schön	fair	ehrlich	retten	strafen	tot	schlecht	faul	eitel	rächen	47pct	acq_USpleas_CSpleas1_noRW	acq23456_noRW	4	3	0	0	300	300	12	46	0	0	1	blank2r.bmp	0	1	+	0	1	blank2r.bmp	252	1	GWWG	306	1	spielen	559	1	FEHLER	613	0	0	0	0	0	0	0	0	0	0	0	0	0	0	0	0	0	0	0	0	0	0	0	0	0	0	0	0	0	0	0	0	0	0	0	0
081919	15:21:45	15:29:43	476100	5.0.10.0	5_exp_noRW	104	Rpleas_acq	CS_B	GWWG	JXXJ	MQQM	BZZB	VKKV	YDDY	spielen	treu	schön	fair	ehrlich	retten	strafen	tot	schlecht	faul	eitel	rächen	47pct	acq_USunple_CSunple1_noRW	acq23456_noRW	4	4	0	0	300	300	95	46	0	1	1	blank2r.bmp	0	1	+	0	1	blank2r.bmp	252	1	MQQM	306	1	strafen	559	0	0	0	0	0	0	0	0	0	0	0	0	0	0	0	0	0	0	0	0	0	0	0	0	0	0	0	0	0	0	0	0	0	0	0	0	0	0	0
081919	15:21:45	15:29:44	477499	5.0.10.0	5_exp_noRW	104	Rpleas_acq	CS_B	GWWG	JXXJ	MQQM	BZZB	VKKV	YDDY	spielen	treu	schön	fair	ehrlich	retten	strafen	tot	schlecht	faul	eitel	rächen	53pct	acq_USpleas_CSpleas1_noRW	acq23456_noRW	4	5	0	0	300	300	15	46	0	0	1	blank2r.bmp	0	1	+	0	1	blank2r.bmp	252	1	GWWG	306	2	treu	559	1	FEHLER	613	0	0	0	0	0	0	0	0	0	0	0	0	0	0	0	0	0	0	0	0	0	0	0	0	0	0	0	0	0	0	0	0	0	0	0	0
081919	15:21:45	15:29:46	478712	5.0.10.0	5_exp_noRW	104	Rpleas_acq	CS_B	GWWG	JXXJ	MQQM	BZZB	VKKV	YDDY	spielen	treu	schön	fair	ehrlich	retten	strafen	tot	schlecht	faul	eitel	rächen	53pct	acq_USpleas_CSunple1_noRW	acq23456_noRW	4	6	0	0	300	300	263	50	0	1	1	blank2r.bmp	0	1	+	0	1	blank2r.bmp	252	1	MQQM	306	3	schön	559	0	0	0	0	0	0	0	0	0	0	0	0	0	0	0	0	0	0	0	0	0	0	0	0	0	0	0	0	0	0	0	0	0	0	0	0	0	0	0
081919	15:21:45	15:29:47	480431	5.0.10.0	5_exp_noRW	104	Rpleas_acq	CS_B	GWWG	JXXJ	MQQM	BZZB	VKKV	YDDY	spielen	treu	schön	fair	ehrlich	retten	strafen	tot	schlecht	faul	eitel	rächen	47pct	acq_USunple_CSpleas2_noRW	acq23456_noRW	4	7	0	0	300	300	329	50	0	0	1	blank2r.bmp	0	1	+	0	1	blank2r.bmp	252	1	JXXJ	306	2	eitel	559	1	FEHLER	919	0	0	0	0	0	0	0	0	0	0	0	0	0	0	0	0	0	0	0	0	0	0	0	0	0	0	0	0	0	0	0	0	0	0	0	0
081919	15:21:45	15:29:49	481698	5.0.10.0	5_exp_noRW	104	Rpleas_acq	CS_B	GWWG	JXXJ	MQQM	BZZB	VKKV	YDDY	spielen	treu	schön	fair	ehrlich	retten	strafen	tot	schlecht	faul	eitel	rächen	47pct	acq_USpleas_CSpleas2_noRW	acq23456_noRW	4	8	0	0	300	300	98	46	0	0	1	blank2r.bmp	0	1	+	0	1	blank2r.bmp	252	1	JXXJ	306	3	retten	559	1	FEHLER	693	0	0	0	0	0	0	0	0	0	0	0	0	0	0	0	0	0	0	0	0	0	0	0	0	0	0	0	0	0	0	0	0	0	0	0	0
