date	time	script.currenttime	script.elapsedtime	build	script.currentexpt	subject	expressions.LRpleas_acq	expressions.conditionCS_A	expressions.CSpleas_1	expressions.CSpleas_2	expressions.CSunple_1	expressions.CSunple_2	expressions.distractor_1	expressions.distractor_2	expressions.US_pleas1	expressions.US_pleas2	expressions.US_pleas3	expressions.US_pleas4	expressions.US_pleas5	expressions.US_pleas6	expressions.US_unple1	expressions.US_unple2	expressions.US_unple3	expressions.US_unple4	expressions.US_unple5	expressions.US_unple6	counter.positions_noRW	trialcode	blockcode	blocknum	trialnum	windowcenter	inwindow	pretrialpause	posttrialpause	latency	response	expressions.correctedscore	correct	stimulusnumber1	stimulusitem1	stimulusonset1	stimulusnumber2	stimulusitem2	stimulusonset2	stimulusnumber3	stimulusitem3	stimulusonset3	stimulusnumber4	stimulusitem4	stimulusonset4	stimulusnumber5	stimulusitem5	stimulusonset5	stimulusnumber6	stimulusitem6	stimulusonset6	stimulusnumber7	stimulusitem7	stimulusonset7	stimulusnumber8	stimulusitem8	stimulusonset8	stimulusnumber9	stimulusitem9	stimulusonset9	stimulusnumber10	stimulusitem10	stimulusonset10	stimulusnumber11	stimulusitem11	stimulusonset11	stimulusnumber12	stimulusitem12	stimulusonset12	stimulusnumber13	stimulusitem13	stimulusonset13	stimulusnumber14	stimulusitem14	stimulusonset14	stimulusnumber15	stimulusitem15	stimulusonset15	stimulusnumber16	stimulusitem16	stimulusonset16	stimulusnumber17	stimulusitem17	stimulusonset17	stimulusnumber18	stimulusitem18	stimulusonset18
071719	16:04:11	16:06:15	123428	5.0.10.0	5_exp_noRW	66	Rpleas_acq	CS_B	BZZB	YDDY	GWWG	VKKV	MQQM	JXXJ	ehrlich	retten	spielen	treu	schön	fair	eitel	rächen	strafen	tot	schlecht	faul	53pct	acq_USunple_CSunple2_noRW	acq1_noRW	1	1	0	0	300	300	620	50	0	0	1	blank2r.bmp	0	1	+	0	1	blank2r.bmp	252	1	VKKV	306	1	tot	559	1	FEHLER	1212	0	0	0	0	0	0	0	0	0	0	0	0	0	0	0	0	0	0	0	0	0	0	0	0	0	0	0	0	0	0	0	0	0	0	0	0
071719	16:04:11	16:06:19	126919	5.0.10.0	5_exp_noRW	66	Rpleas_acq	CS_B	BZZB	YDDY	GWWG	VKKV	MQQM	JXXJ	ehrlich	retten	spielen	treu	schön	fair	eitel	rächen	strafen	tot	schlecht	faul	47pct	acq_USunple_CSunple2_noRW	acq1_noRW	1	2	0	0	300	300	2000	0	0	0	1	blank2r.bmp	0	1	+	0	1	blank2r.bmp	252	1	VKKV	306	2	schlecht	559	1	FEHLER	2598	1	Schneller!	2598	0	0	0	0	0	0	0	0	0	0	0	0	0	0	0	0	0	0	0	0	0	0	0	0	0	0	0	0	0	0	0	0	0
071719	16:04:11	16:06:21	129079	5.0.10.0	5_exp_noRW	66	Rpleas_acq	CS_B	BZZB	YDDY	GWWG	VKKV	MQQM	JXXJ	ehrlich	retten	spielen	treu	schön	fair	eitel	rächen	strafen	tot	schlecht	faul	47pct	acq_USpleas_CSunple1_noRW	acq1_noRW	1	3	0	0	300	300	1273	50	0	1	1	blank2r.bmp	0	1	+	0	1	blank2r.bmp	252	1	GWWG	306	3	spielen	559	0	0	0	0	0	0	0	0	0	0	0	0	0	0	0	0	0	0	0	0	0	0	0	0	0	0	0	0	0	0	0	0	0	0	0	0	0	0	0
071719	16:04:11	16:06:23	131038	5.0.10.0	5_exp_noRW	66	Rpleas_acq	CS_B	BZZB	YDDY	GWWG	VKKV	MQQM	JXXJ	ehrlich	retten	spielen	treu	schön	fair	eitel	rächen	strafen	tot	schlecht	faul	47pct	acq_USpleas_CSpleas1_noRW	acq1_noRW	1	4	0	0	300	300	775	50	0	1	1	blank2r.bmp	0	1	+	0	1	blank2r.bmp	252	1	BZZB	306	3	spielen	559	0	0	0	0	0	0	0	0	0	0	0	0	0	0	0	0	0	0	0	0	0	0	0	0	0	0	0	0	0	0	0	0	0	0	0	0	0	0	0
071719	16:04:11	16:06:25	132957	5.0.10.0	5_exp_noRW	66	Rpleas_acq	CS_B	BZZB	YDDY	GWWG	VKKV	MQQM	JXXJ	ehrlich	retten	spielen	treu	schön	fair	eitel	rächen	strafen	tot	schlecht	faul	53pct	acq_USpleas_CSpleas1_noRW	acq1_noRW	1	5	0	0	300	300	753	50	0	1	1	blank2r.bmp	0	1	+	0	1	blank2r.bmp	252	1	BZZB	306	2	retten	559	0	0	0	0	0	0	0	0	0	0	0	0	0	0	0	0	0	0	0	0	0	0	0	0	0	0	0	0	0	0	0	0	0	0	0	0	0	0	0
071719	16:04:11	16:06:27	135223	5.0.10.0	5_exp_noRW	66	Rpleas_acq	CS_B	BZZB	YDDY	GWWG	VKKV	MQQM	JXXJ	ehrlich	retten	spielen	treu	schön	fair	eitel	rächen	strafen	tot	schlecht	faul	47pct	acq_USpleas_CSpleas1_noRW	acq1_noRW	1	6	0	0	300	300	1098	50	0	1	1	blank2r.bmp	0	1	+	0	1	blank2r.bmp	252	1	BZZB	306	1	ehrlich	559	0	0	0	0	0	0	0	0	0	0	0	0	0	0	0	0	0	0	0	0	0	0	0	0	0	0	0	0	0	0	0	0	0	0	0	0	0	0	0
071719	16:04:11	16:06:29	137102	5.0.10.0	5_exp_noRW	66	Rpleas_acq	CS_B	BZZB	YDDY	GWWG	VKKV	MQQM	JXXJ	ehrlich	retten	spielen	treu	schön	fair	eitel	rächen	strafen	tot	schlecht	faul	47pct	acq_USunple_CSpleas2_noRW	acq1_noRW	1	7	0	0	300	300	694	46	0	1	1	blank2r.bmp	0	1	+	0	1	blank2r.bmp	252	1	YDDY	306	2	schlecht	559	0	0	0	0	0	0	0	0	0	0	0	0	0	0	0	0	0	0	0	0	0	0	0	0	0	0	0	0	0	0	0	0	0	0	0	0	0	0	0
071719	16:04:11	16:06:31	139221	5.0.10.0	5_exp_noRW	66	Rpleas_acq	CS_B	BZZB	YDDY	GWWG	VKKV	MQQM	JXXJ	ehrlich	retten	spielen	treu	schön	fair	eitel	rächen	strafen	tot	schlecht	faul	47pct	acq_USunple_CSunple1_noRW	acq1_noRW	1	8	0	0	300	300	932	46	0	1	1	blank2r.bmp	0	1	+	0	1	blank2r.bmp	252	1	GWWG	306	3	strafen	559	0	0	0	0	0	0	0	0	0	0	0	0	0	0	0	0	0	0	0	0	0	0	0	0	0	0	0	0	0	0	0	0	0	0	0	0	0	0	0
071719	16:04:11	16:06:33	141247	5.0.10.0	5_exp_noRW	66	Rpleas_acq	CS_B	BZZB	YDDY	GWWG	VKKV	MQQM	JXXJ	ehrlich	retten	spielen	treu	schön	fair	eitel	rächen	strafen	tot	schlecht	faul	47pct	acq_USpleas_CSpleas2_noRW	acq1_noRW	1	9	0	0	300	300	847	50	0	1	1	blank2r.bmp	0	1	+	0	1	blank2r.bmp	252	1	YDDY	306	2	schön	559	0	0	0	0	0	0	0	0	0	0	0	0	0	0	0	0	0	0	0	0	0	0	0	0	0	0	0	0	0	0	0	0	0	0	0	0	0	0	0
071719	16:04:11	16:06:35	143446	5.0.10.0	5_exp_noRW	66	Rpleas_acq	CS_B	BZZB	YDDY	GWWG	VKKV	MQQM	JXXJ	ehrlich	retten	spielen	treu	schön	fair	eitel	rächen	strafen	tot	schlecht	faul	53pct	acq_USunple_CSunple2_noRW	acq1_noRW	1	10	0	0	300	300	1012	46	0	1	1	blank2r.bmp	0	1	+	0	1	blank2r.bmp	252	1	VKKV	306	3	faul	559	0	0	0	0	0	0	0	0	0	0	0	0	0	0	0	0	0	0	0	0	0	0	0	0	0	0	0	0	0	0	0	0	0	0	0	0	0	0	0
071719	16:04:11	16:06:37	145298	5.0.10.0	5_exp_noRW	66	Rpleas_acq	CS_B	BZZB	YDDY	GWWG	VKKV	MQQM	JXXJ	ehrlich	retten	spielen	treu	schön	fair	eitel	rächen	strafen	tot	schlecht	faul	47pct	acq_USpleas_CSpleas1_noRW	acq1_noRW	1	11	0	0	300	300	686	50	0	1	1	blank2r.bmp	0	1	+	0	1	blank2r.bmp	252	1	BZZB	306	3	spielen	559	0	0	0	0	0	0	0	0	0	0	0	0	0	0	0	0	0	0	0	0	0	0	0	0	0	0	0	0	0	0	0	0	0	0	0	0	0	0	0
071719	16:04:11	16:06:39	147564	5.0.10.0	5_exp_noRW	66	Rpleas_acq	CS_B	BZZB	YDDY	GWWG	VKKV	MQQM	JXXJ	ehrlich	retten	spielen	treu	schön	fair	eitel	rächen	strafen	tot	schlecht	faul	47pct	acq_USpleas_CSpleas2_noRW	acq1_noRW	1	12	0	0	300	300	1088	50	0	1	1	blank2r.bmp	0	1	+	0	1	blank2r.bmp	252	1	YDDY	306	3	fair	559	0	0	0	0	0	0	0	0	0	0	0	0	0	0	0	0	0	0	0	0	0	0	0	0	0	0	0	0	0	0	0	0	0	0	0	0	0	0	0
071719	16:04:11	16:06:41	149550	5.0.10.0	5_exp_noRW	66	Rpleas_acq	CS_B	BZZB	YDDY	GWWG	VKKV	MQQM	JXXJ	ehrlich	retten	spielen	treu	schön	fair	eitel	rächen	strafen	tot	schlecht	faul	53pct	acq_USunple_CSunple1_noRW	acq1_noRW	1	13	0	0	300	300	808	46	0	1	1	blank2r.bmp	0	1	+	0	1	blank2r.bmp	252	1	GWWG	306	2	rächen	559	0	0	0	0	0	0	0	0	0	0	0	0	0	0	0	0	0	0	0	0	0	0	0	0	0	0	0	0	0	0	0	0	0	0	0	0	0	0	0
071719	16:04:11	16:06:43	151749	5.0.10.0	5_exp_noRW	66	Rpleas_acq	CS_B	BZZB	YDDY	GWWG	VKKV	MQQM	JXXJ	ehrlich	retten	spielen	treu	schön	fair	eitel	rächen	strafen	tot	schlecht	faul	53pct	acq_USpleas_CSpleas2_noRW	acq1_noRW	1	14	0	0	300	300	1023	50	0	1	1	blank2r.bmp	0	1	+	0	1	blank2r.bmp	252	1	YDDY	306	1	treu	559	0	0	0	0	0	0	0	0	0	0	0	0	0	0	0	0	0	0	0	0	0	0	0	0	0	0	0	0	0	0	0	0	0	0	0	0	0	0	0
071719	16:04:11	16:06:45	153455	5.0.10.0	5_exp_noRW	66	Rpleas_acq	CS_B	BZZB	YDDY	GWWG	VKKV	MQQM	JXXJ	ehrlich	retten	spielen	treu	schön	fair	eitel	rächen	strafen	tot	schlecht	faul	47pct	acq_USpleas_CSunple2_noRW	acq1_noRW	1	15	0	0	300	300	526	50	0	1	1	blank2r.bmp	0	1	+	0	1	blank2r.bmp	252	1	VKKV	306	1	treu	559	0	0	0	0	0	0	0	0	0	0	0	0	0	0	0	0	0	0	0	0	0	0	0	0	0	0	0	0	0	0	0	0	0	0	0	0	0	0	0
071719	16:04:11	16:06:47	155388	5.0.10.0	5_exp_noRW	66	Rpleas_acq	CS_B	BZZB	YDDY	GWWG	VKKV	MQQM	JXXJ	ehrlich	retten	spielen	treu	schön	fair	eitel	rächen	strafen	tot	schlecht	faul	53pct	acq_USunple_CSunple1_noRW	acq1_noRW	1	16	0	0	300	300	760	46	0	1	1	blank2r.bmp	0	1	+	0	1	blank2r.bmp	252	1	GWWG	306	1	eitel	559	0	0	0	0	0	0	0	0	0	0	0	0	0	0	0	0	0	0	0	0	0	0	0	0	0	0	0	0	0	0	0	0	0	0	0	0	0	0	0
071719	16:04:11	16:06:49	157253	5.0.10.0	5_exp_noRW	66	Rpleas_acq	CS_B	BZZB	YDDY	GWWG	VKKV	MQQM	JXXJ	ehrlich	retten	spielen	treu	schön	fair	eitel	rächen	strafen	tot	schlecht	faul	47pct	acq_USunple_CSunple2_noRW	acq1_noRW	1	17	0	0	300	300	692	46	0	1	1	blank2r.bmp	0	1	+	0	1	blank2r.bmp	252	1	VKKV	306	2	schlecht	559	0	0	0	0	0	0	0	0	0	0	0	0	0	0	0	0	0	0	0	0	0	0	0	0	0	0	0	0	0	0	0	0	0	0	0	0	0	0	0
071719	16:04:11	16:06:51	159119	5.0.10.0	5_exp_noRW	66	Rpleas_acq	CS_B	BZZB	YDDY	GWWG	VKKV	MQQM	JXXJ	ehrlich	retten	spielen	treu	schön	fair	eitel	rächen	strafen	tot	schlecht	faul	47pct	acq_USunple_CSpleas1_noRW	acq1_noRW	1	18	0	0	300	300	692	46	0	1	1	blank2r.bmp	0	1	+	0	1	blank2r.bmp	252	1	BZZB	306	1	eitel	559	0	0	0	0	0	0	0	0	0	0	0	0	0	0	0	0	0	0	0	0	0	0	0	0	0	0	0	0	0	0	0	0	0	0	0	0	0	0	0
071719	16:04:11	16:06:53	160852	5.0.10.0	5_exp_noRW	66	Rpleas_acq	CS_B	BZZB	YDDY	GWWG	VKKV	MQQM	JXXJ	ehrlich	retten	spielen	treu	schön	fair	eitel	rächen	strafen	tot	schlecht	faul	47pct	acq_USpleas_CSpleas2_noRW	acq1_noRW	1	19	0	0	300	300	568	50	0	1	1	blank2r.bmp	0	1	+	0	1	blank2r.bmp	252	1	YDDY	306	3	fair	559	0	0	0	0	0	0	0	0	0	0	0	0	0	0	0	0	0	0	0	0	0	0	0	0	0	0	0	0	0	0	0	0	0	0	0	0	0	0	0
071719	16:04:11	16:06:54	162704	5.0.10.0	5_exp_noRW	66	Rpleas_acq	CS_B	BZZB	YDDY	GWWG	VKKV	MQQM	JXXJ	ehrlich	retten	spielen	treu	schön	fair	eitel	rächen	strafen	tot	schlecht	faul	47pct	acq_USunple_CSunple1_noRW	acq1_noRW	1	20	0	0	300	300	671	46	0	1	1	blank2r.bmp	0	1	+	0	1	blank2r.bmp	252	1	GWWG	306	3	strafen	559	0	0	0	0	0	0	0	0	0	0	0	0	0	0	0	0	0	0	0	0	0	0	0	0	0	0	0	0	0	0	0	0	0	0	0	0	0	0	0
071719	16:04:11	16:06:56	164517	5.0.10.0	5_exp_noRW	66	Rpleas_acq	CS_B	BZZB	YDDY	GWWG	VKKV	MQQM	JXXJ	ehrlich	retten	spielen	treu	schön	fair	eitel	rächen	strafen	tot	schlecht	faul	53pct	acq_USunple_CSunple1_noRW	acq1_noRW	1	21	0	0	300	300	647	46	0	1	1	blank2r.bmp	0	1	+	0	1	blank2r.bmp	252	1	GWWG	306	2	rächen	559	0	0	0	0	0	0	0	0	0	0	0	0	0	0	0	0	0	0	0	0	0	0	0	0	0	0	0	0	0	0	0	0	0	0	0	0	0	0	0
071719	16:04:11	16:06:58	166250	5.0.10.0	5_exp_noRW	66	Rpleas_acq	CS_B	BZZB	YDDY	GWWG	VKKV	MQQM	JXXJ	ehrlich	retten	spielen	treu	schön	fair	eitel	rächen	strafen	tot	schlecht	faul	53pct	acq_USunple_CSunple1_noRW	acq1_noRW	1	22	0	0	300	300	547	46	0	1	1	blank2r.bmp	0	1	+	0	1	blank2r.bmp	252	1	GWWG	306	1	eitel	559	0	0	0	0	0	0	0	0	0	0	0	0	0	0	0	0	0	0	0	0	0	0	0	0	0	0	0	0	0	0	0	0	0	0	0	0	0	0	0
071719	16:04:11	16:07:00	167996	5.0.10.0	5_exp_noRW	66	Rpleas_acq	CS_B	BZZB	YDDY	GWWG	VKKV	MQQM	JXXJ	ehrlich	retten	spielen	treu	schön	fair	eitel	rächen	strafen	tot	schlecht	faul	47pct	acq_USunple_CSunple1_noRW	acq1_noRW	1	23	0	0	300	300	572	46	0	1	1	blank2r.bmp	0	1	+	0	1	blank2r.bmp	252	1	GWWG	306	3	strafen	559	0	0	0	0	0	0	0	0	0	0	0	0	0	0	0	0	0	0	0	0	0	0	0	0	0	0	0	0	0	0	0	0	0	0	0	0	0	0	0
071719	16:04:11	16:07:01	169715	5.0.10.0	5_exp_noRW	66	Rpleas_acq	CS_B	BZZB	YDDY	GWWG	VKKV	MQQM	JXXJ	ehrlich	retten	spielen	treu	schön	fair	eitel	rächen	strafen	tot	schlecht	faul	53pct	acq_USpleas_CSpleas1_noRW	acq1_noRW	1	24	0	0	300	300	555	50	0	1	1	blank2r.bmp	0	1	+	0	1	blank2r.bmp	252	1	BZZB	306	1	ehrlich	559	0	0	0	0	0	0	0	0	0	0	0	0	0	0	0	0	0	0	0	0	0	0	0	0	0	0	0	0	0	0	0	0	0	0	0	0	0	0	0
071719	16:04:11	16:07:03	171461	5.0.10.0	5_exp_noRW	66	Rpleas_acq	CS_B	BZZB	YDDY	GWWG	VKKV	MQQM	JXXJ	ehrlich	retten	spielen	treu	schön	fair	eitel	rächen	strafen	tot	schlecht	faul	47pct	acq_USunple_CSunple2_noRW	acq1_noRW	1	25	0	0	300	300	561	46	0	1	1	blank2r.bmp	0	1	+	0	1	blank2r.bmp	252	1	VKKV	306	1	tot	559	0	0	0	0	0	0	0	0	0	0	0	0	0	0	0	0	0	0	0	0	0	0	0	0	0	0	0	0	0	0	0	0	0	0	0	0	0	0	0
071719	16:04:11	16:07:05	173673	5.0.10.0	5_exp_noRW	66	Rpleas_acq	CS_B	BZZB	YDDY	GWWG	VKKV	MQQM	JXXJ	ehrlich	retten	spielen	treu	schön	fair	eitel	rächen	strafen	tot	schlecht	faul	53pct	acq_USunple_CSpleas2_noRW	acq1_noRW	1	26	0	0	300	300	1040	46	0	1	1	blank2r.bmp	0	1	+	0	1	blank2r.bmp	252	1	YDDY	306	3	faul	559	0	0	0	0	0	0	0	0	0	0	0	0	0	0	0	0	0	0	0	0	0	0	0	0	0	0	0	0	0	0	0	0	0	0	0	0	0	0	0
071719	16:04:11	16:07:07	175313	5.0.10.0	5_exp_noRW	66	Rpleas_acq	CS_B	BZZB	YDDY	GWWG	VKKV	MQQM	JXXJ	ehrlich	retten	spielen	treu	schön	fair	eitel	rächen	strafen	tot	schlecht	faul	47pct	acq_USunple_CSunple2_noRW	acq1_noRW	1	27	0	0	300	300	469	46	0	1	1	blank2r.bmp	0	1	+	0	1	blank2r.bmp	252	1	VKKV	306	3	faul	559	0	0	0	0	0	0	0	0	0	0	0	0	0	0	0	0	0	0	0	0	0	0	0	0	0	0	0	0	0	0	0	0	0	0	0	0	0	0	0
071719	16:04:11	16:07:09	177032	5.0.10.0	5_exp_noRW	66	Rpleas_acq	CS_B	BZZB	YDDY	GWWG	VKKV	MQQM	JXXJ	ehrlich	retten	spielen	treu	schön	fair	eitel	rächen	strafen	tot	schlecht	faul	47pct	acq_USunple_CSunple2_noRW	acq1_noRW	1	28	0	0	300	300	549	46	0	1	1	blank2r.bmp	0	1	+	0	1	blank2r.bmp	252	1	VKKV	306	2	schlecht	559	0	0	0	0	0	0	0	0	0	0	0	0	0	0	0	0	0	0	0	0	0	0	0	0	0	0	0	0	0	0	0	0	0	0	0	0	0	0	0
071719	16:04:11	16:07:10	178698	5.0.10.0	5_exp_noRW	66	Rpleas_acq	CS_B	BZZB	YDDY	GWWG	VKKV	MQQM	JXXJ	ehrlich	retten	spielen	treu	schön	fair	eitel	rächen	strafen	tot	schlecht	faul	47pct	acq_USpleas_CSunple2_noRW	acq1_noRW	1	29	0	0	300	300	487	50	0	1	1	blank2r.bmp	0	1	+	0	1	blank2r.bmp	252	1	VKKV	306	3	fair	559	0	0	0	0	0	0	0	0	0	0	0	0	0	0	0	0	0	0	0	0	0	0	0	0	0	0	0	0	0	0	0	0	0	0	0	0	0	0	0
071719	16:04:11	16:07:12	180457	5.0.10.0	5_exp_noRW	66	Rpleas_acq	CS_B	BZZB	YDDY	GWWG	VKKV	MQQM	JXXJ	ehrlich	retten	spielen	treu	schön	fair	eitel	rächen	strafen	tot	schlecht	faul	47pct	acq_USpleas_CSpleas2_noRW	acq1_noRW	1	30	0	0	300	300	583	50	0	1	1	blank2r.bmp	0	1	+	0	1	blank2r.bmp	252	1	YDDY	306	2	schön	559	0	0	0	0	0	0	0	0	0	0	0	0	0	0	0	0	0	0	0	0	0	0	0	0	0	0	0	0	0	0	0	0	0	0	0	0	0	0	0
071719	16:04:11	16:07:14	182283	5.0.10.0	5_exp_noRW	66	Rpleas_acq	CS_B	BZZB	YDDY	GWWG	VKKV	MQQM	JXXJ	ehrlich	retten	spielen	treu	schön	fair	eitel	rächen	strafen	tot	schlecht	faul	47pct	acq_USpleas_CSunple1_noRW	acq1_noRW	1	31	0	0	300	300	651	50	0	1	1	blank2r.bmp	0	1	+	0	1	blank2r.bmp	252	1	GWWG	306	2	retten	559	0	0	0	0	0	0	0	0	0	0	0	0	0	0	0	0	0	0	0	0	0	0	0	0	0	0	0	0	0	0	0	0	0	0	0	0	0	0	0
071719	16:04:11	16:07:16	184056	5.0.10.0	5_exp_noRW	66	Rpleas_acq	CS_B	BZZB	YDDY	GWWG	VKKV	MQQM	JXXJ	ehrlich	retten	spielen	treu	schön	fair	eitel	rächen	strafen	tot	schlecht	faul	53pct	acq_USpleas_CSpleas2_noRW	acq1_noRW	1	32	0	0	300	300	593	50	0	1	1	blank2r.bmp	0	1	+	0	1	blank2r.bmp	252	1	YDDY	306	1	treu	559	0	0	0	0	0	0	0	0	0	0	0	0	0	0	0	0	0	0	0	0	0	0	0	0	0	0	0	0	0	0	0	0	0	0	0	0	0	0	0
071719	16:04:11	16:07:18	185895	5.0.10.0	5_exp_noRW	66	Rpleas_acq	CS_B	BZZB	YDDY	GWWG	VKKV	MQQM	JXXJ	ehrlich	retten	spielen	treu	schön	fair	eitel	rächen	strafen	tot	schlecht	faul	53pct	acq_USunple_CSunple2_noRW	acq1_noRW	1	33	0	0	300	300	652	46	0	1	1	blank2r.bmp	0	1	+	0	1	blank2r.bmp	252	1	VKKV	306	3	faul	559	0	0	0	0	0	0	0	0	0	0	0	0	0	0	0	0	0	0	0	0	0	0	0	0	0	0	0	0	0	0	0	0	0	0	0	0	0	0	0
071719	16:04:11	16:07:19	187667	5.0.10.0	5_exp_noRW	66	Rpleas_acq	CS_B	BZZB	YDDY	GWWG	VKKV	MQQM	JXXJ	ehrlich	retten	spielen	treu	schön	fair	eitel	rächen	strafen	tot	schlecht	faul	47pct	acq_USunple_CSpleas1_noRW	acq1_noRW	1	34	0	0	300	300	603	46	0	1	1	blank2r.bmp	0	1	+	0	1	blank2r.bmp	252	1	BZZB	306	2	rächen	559	0	0	0	0	0	0	0	0	0	0	0	0	0	0	0	0	0	0	0	0	0	0	0	0	0	0	0	0	0	0	0	0	0	0	0	0	0	0	0
071719	16:04:11	16:07:21	189480	5.0.10.0	5_exp_noRW	66	Rpleas_acq	CS_B	BZZB	YDDY	GWWG	VKKV	MQQM	JXXJ	ehrlich	retten	spielen	treu	schön	fair	eitel	rächen	strafen	tot	schlecht	faul	53pct	acq_USpleas_CSpleas2_noRW	acq1_noRW	1	35	0	0	300	300	646	50	0	1	1	blank2r.bmp	0	1	+	0	1	blank2r.bmp	252	1	YDDY	306	3	fair	559	0	0	0	0	0	0	0	0	0	0	0	0	0	0	0	0	0	0	0	0	0	0	0	0	0	0	0	0	0	0	0	0	0	0	0	0	0	0	0
071719	16:04:11	16:07:23	191173	5.0.10.0	5_exp_noRW	66	Rpleas_acq	CS_B	BZZB	YDDY	GWWG	VKKV	MQQM	JXXJ	ehrlich	retten	spielen	treu	schön	fair	eitel	rächen	strafen	tot	schlecht	faul	47pct	acq_USpleas_CSpleas1_noRW	acq1_noRW	1	36	0	0	300	300	514	50	0	1	1	blank2r.bmp	0	1	+	0	1	blank2r.bmp	252	1	BZZB	306	2	retten	559	0	0	0	0	0	0	0	0	0	0	0	0	0	0	0	0	0	0	0	0	0	0	0	0	0	0	0	0	0	0	0	0	0	0	0	0	0	0	0
071719	16:04:11	16:07:25	192865	5.0.10.0	5_exp_noRW	66	Rpleas_acq	CS_B	BZZB	YDDY	GWWG	VKKV	MQQM	JXXJ	ehrlich	retten	spielen	treu	schön	fair	eitel	rächen	strafen	tot	schlecht	faul	53pct	acq_USunple_CSunple1_noRW	acq1_noRW	1	37	0	0	300	300	521	46	0	1	1	blank2r.bmp	0	1	+	0	1	blank2r.bmp	252	1	GWWG	306	1	eitel	559	0	0	0	0	0	0	0	0	0	0	0	0	0	0	0	0	0	0	0	0	0	0	0	0	0	0	0	0	0	0	0	0	0	0	0	0	0	0	0
071719	16:04:11	16:07:26	194531	5.0.10.0	5_exp_noRW	66	Rpleas_acq	CS_B	BZZB	YDDY	GWWG	VKKV	MQQM	JXXJ	ehrlich	retten	spielen	treu	schön	fair	eitel	rächen	strafen	tot	schlecht	faul	47pct	acq_USpleas_CSpleas2_noRW	acq1_noRW	1	38	0	0	300	300	497	50	0	1	1	blank2r.bmp	0	1	+	0	1	blank2r.bmp	252	1	YDDY	306	1	treu	559	0	0	0	0	0	0	0	0	0	0	0	0	0	0	0	0	0	0	0	0	0	0	0	0	0	0	0	0	0	0	0	0	0	0	0	0	0	0	0
071719	16:04:11	16:07:28	196490	5.0.10.0	5_exp_noRW	66	Rpleas_acq	CS_B	BZZB	YDDY	GWWG	VKKV	MQQM	JXXJ	ehrlich	retten	spielen	treu	schön	fair	eitel	rächen	strafen	tot	schlecht	faul	47pct	acq_USpleas_CSpleas1_noRW	acq1_noRW	1	39	0	0	300	300	794	50	0	1	1	blank2r.bmp	0	1	+	0	1	blank2r.bmp	252	1	BZZB	306	2	retten	559	0	0	0	0	0	0	0	0	0	0	0	0	0	0	0	0	0	0	0	0	0	0	0	0	0	0	0	0	0	0	0	0	0	0	0	0	0	0	0
071719	16:04:11	16:07:30	198210	5.0.10.0	5_exp_noRW	66	Rpleas_acq	CS_B	BZZB	YDDY	GWWG	VKKV	MQQM	JXXJ	ehrlich	retten	spielen	treu	schön	fair	eitel	rächen	strafen	tot	schlecht	faul	53pct	acq_USpleas_CSpleas1_noRW	acq1_noRW	1	40	0	0	300	300	543	50	0	1	1	blank2r.bmp	0	1	+	0	1	blank2r.bmp	252	1	BZZB	306	3	spielen	559	0	0	0	0	0	0	0	0	0	0	0	0	0	0	0	0	0	0	0	0	0	0	0	0	0	0	0	0	0	0	0	0	0	0	0	0	0	0	0
071719	16:04:11	16:07:32	199916	5.0.10.0	5_exp_noRW	66	Rpleas_acq	CS_B	BZZB	YDDY	GWWG	VKKV	MQQM	JXXJ	ehrlich	retten	spielen	treu	schön	fair	eitel	rächen	strafen	tot	schlecht	faul	47pct	acq_USpleas_CSpleas2_noRW	acq1_noRW	1	41	0	0	300	300	522	50	0	1	1	blank2r.bmp	0	1	+	0	1	blank2r.bmp	252	1	YDDY	306	2	schön	559	0	0	0	0	0	0	0	0	0	0	0	0	0	0	0	0	0	0	0	0	0	0	0	0	0	0	0	0	0	0	0	0	0	0	0	0	0	0	0
071719	16:04:11	16:07:33	201648	5.0.10.0	5_exp_noRW	66	Rpleas_acq	CS_B	BZZB	YDDY	GWWG	VKKV	MQQM	JXXJ	ehrlich	retten	spielen	treu	schön	fair	eitel	rächen	strafen	tot	schlecht	faul	47pct	acq_USunple_CSpleas1_noRW	acq1_noRW	1	42	0	0	300	300	568	46	0	1	1	blank2r.bmp	0	1	+	0	1	blank2r.bmp	252	1	BZZB	306	3	strafen	559	0	0	0	0	0	0	0	0	0	0	0	0	0	0	0	0	0	0	0	0	0	0	0	0	0	0	0	0	0	0	0	0	0	0	0	0	0	0	0
071719	16:04:11	16:07:35	203354	5.0.10.0	5_exp_noRW	66	Rpleas_acq	CS_B	BZZB	YDDY	GWWG	VKKV	MQQM	JXXJ	ehrlich	retten	spielen	treu	schön	fair	eitel	rächen	strafen	tot	schlecht	faul	53pct	acq_USunple_CSunple2_noRW	acq1_noRW	1	43	0	0	300	300	531	46	0	1	1	blank2r.bmp	0	1	+	0	1	blank2r.bmp	252	1	VKKV	306	1	tot	559	0	0	0	0	0	0	0	0	0	0	0	0	0	0	0	0	0	0	0	0	0	0	0	0	0	0	0	0	0	0	0	0	0	0	0	0	0	0	0
071719	16:04:11	16:07:37	205007	5.0.10.0	5_exp_noRW	66	Rpleas_acq	CS_B	BZZB	YDDY	GWWG	VKKV	MQQM	JXXJ	ehrlich	retten	spielen	treu	schön	fair	eitel	rächen	strafen	tot	schlecht	faul	47pct	acq_USunple_CSunple2_noRW	acq1_noRW	1	44	0	0	300	300	468	46	0	1	1	blank2r.bmp	0	1	+	0	1	blank2r.bmp	252	1	VKKV	306	3	faul	559	0	0	0	0	0	0	0	0	0	0	0	0	0	0	0	0	0	0	0	0	0	0	0	0	0	0	0	0	0	0	0	0	0	0	0	0	0	0	0
071719	16:04:11	16:07:39	206979	5.0.10.0	5_exp_noRW	66	Rpleas_acq	CS_B	BZZB	YDDY	GWWG	VKKV	MQQM	JXXJ	ehrlich	retten	spielen	treu	schön	fair	eitel	rächen	strafen	tot	schlecht	faul	47pct	acq_USpleas_CSpleas1_noRW	acq1_noRW	1	45	0	0	300	300	794	50	0	1	1	blank2r.bmp	0	1	+	0	1	blank2r.bmp	252	1	BZZB	306	1	ehrlich	559	0	0	0	0	0	0	0	0	0	0	0	0	0	0	0	0	0	0	0	0	0	0	0	0	0	0	0	0	0	0	0	0	0	0	0	0	0	0	0
071719	16:04:11	16:07:40	208739	5.0.10.0	5_exp_noRW	66	Rpleas_acq	CS_B	BZZB	YDDY	GWWG	VKKV	MQQM	JXXJ	ehrlich	retten	spielen	treu	schön	fair	eitel	rächen	strafen	tot	schlecht	faul	47pct	acq_USpleas_CSpleas1_noRW	acq1_noRW	1	46	0	0	300	300	576	50	0	1	1	blank2r.bmp	0	1	+	0	1	blank2r.bmp	252	1	BZZB	306	3	spielen	559	0	0	0	0	0	0	0	0	0	0	0	0	0	0	0	0	0	0	0	0	0	0	0	0	0	0	0	0	0	0	0	0	0	0	0	0	0	0	0
071719	16:04:11	16:07:42	210644	5.0.10.0	5_exp_noRW	66	Rpleas_acq	CS_B	BZZB	YDDY	GWWG	VKKV	MQQM	JXXJ	ehrlich	retten	spielen	treu	schön	fair	eitel	rächen	strafen	tot	schlecht	faul	53pct	acq_USunple_CSpleas2_noRW	acq1_noRW	1	47	0	0	300	300	738	46	0	1	1	blank2r.bmp	0	1	+	0	1	blank2r.bmp	252	1	YDDY	306	1	tot	559	0	0	0	0	0	0	0	0	0	0	0	0	0	0	0	0	0	0	0	0	0	0	0	0	0	0	0	0	0	0	0	0	0	0	0	0	0	0	0
071719	16:04:11	16:07:44	212257	5.0.10.0	5_exp_noRW	66	Rpleas_acq	CS_B	BZZB	YDDY	GWWG	VKKV	MQQM	JXXJ	ehrlich	retten	spielen	treu	schön	fair	eitel	rächen	strafen	tot	schlecht	faul	47pct	acq_USpleas_CSpleas2_noRW	acq1_noRW	1	48	0	0	300	300	442	50	0	1	1	blank2r.bmp	0	1	+	0	1	blank2r.bmp	252	1	YDDY	306	2	schön	559	0	0	0	0	0	0	0	0	0	0	0	0	0	0	0	0	0	0	0	0	0	0	0	0	0	0	0	0	0	0	0	0	0	0	0	0	0	0	0
071719	16:04:11	16:07:46	213990	5.0.10.0	5_exp_noRW	66	Rpleas_acq	CS_B	BZZB	YDDY	GWWG	VKKV	MQQM	JXXJ	ehrlich	retten	spielen	treu	schön	fair	eitel	rächen	strafen	tot	schlecht	faul	47pct	acq_USunple_CSunple1_noRW	acq1_noRW	1	49	0	0	300	300	558	46	0	1	1	blank2r.bmp	0	1	+	0	1	blank2r.bmp	252	1	GWWG	306	2	rächen	559	0	0	0	0	0	0	0	0	0	0	0	0	0	0	0	0	0	0	0	0	0	0	0	0	0	0	0	0	0	0	0	0	0	0	0	0	0	0	0
071719	16:04:11	16:07:47	215696	5.0.10.0	5_exp_noRW	66	Rpleas_acq	CS_B	BZZB	YDDY	GWWG	VKKV	MQQM	JXXJ	ehrlich	retten	spielen	treu	schön	fair	eitel	rächen	strafen	tot	schlecht	faul	53pct	acq_USunple_CSunple1_noRW	acq1_noRW	1	50	0	0	300	300	529	46	0	1	1	blank2r.bmp	0	1	+	0	1	blank2r.bmp	252	1	GWWG	306	3	strafen	559	0	0	0	0	0	0	0	0	0	0	0	0	0	0	0	0	0	0	0	0	0	0	0	0	0	0	0	0	0	0	0	0	0	0	0	0	0	0	0
071719	16:04:11	16:07:49	217428	5.0.10.0	5_exp_noRW	66	Rpleas_acq	CS_B	BZZB	YDDY	GWWG	VKKV	MQQM	JXXJ	ehrlich	retten	spielen	treu	schön	fair	eitel	rächen	strafen	tot	schlecht	faul	47pct	acq_USpleas_CSpleas2_noRW	acq1_noRW	1	51	0	0	300	300	567	50	0	1	1	blank2r.bmp	0	1	+	0	1	blank2r.bmp	252	1	YDDY	306	3	fair	559	0	0	0	0	0	0	0	0	0	0	0	0	0	0	0	0	0	0	0	0	0	0	0	0	0	0	0	0	0	0	0	0	0	0	0	0	0	0	0
071719	16:04:11	16:07:51	219161	5.0.10.0	5_exp_noRW	66	Rpleas_acq	CS_B	BZZB	YDDY	GWWG	VKKV	MQQM	JXXJ	ehrlich	retten	spielen	treu	schön	fair	eitel	rächen	strafen	tot	schlecht	faul	53pct	acq_USpleas_CSpleas1_noRW	acq1_noRW	1	52	0	0	300	300	560	50	0	1	1	blank2r.bmp	0	1	+	0	1	blank2r.bmp	252	1	BZZB	306	1	ehrlich	559	0	0	0	0	0	0	0	0	0	0	0	0	0	0	0	0	0	0	0	0	0	0	0	0	0	0	0	0	0	0	0	0	0	0	0	0	0	0	0
071719	16:04:11	16:07:53	220947	5.0.10.0	5_exp_noRW	66	Rpleas_acq	CS_B	BZZB	YDDY	GWWG	VKKV	MQQM	JXXJ	ehrlich	retten	spielen	treu	schön	fair	eitel	rächen	strafen	tot	schlecht	faul	47pct	acq_USpleas_CSpleas1_noRW	acq1_noRW	1	53	0	0	300	300	623	50	0	1	1	blank2r.bmp	0	1	+	0	1	blank2r.bmp	252	1	BZZB	306	2	retten	559	0	0	0	0	0	0	0	0	0	0	0	0	0	0	0	0	0	0	0	0	0	0	0	0	0	0	0	0	0	0	0	0	0	0	0	0	0	0	0
071719	16:04:11	16:07:54	222626	5.0.10.0	5_exp_noRW	66	Rpleas_acq	CS_B	BZZB	YDDY	GWWG	VKKV	MQQM	JXXJ	ehrlich	retten	spielen	treu	schön	fair	eitel	rächen	strafen	tot	schlecht	faul	53pct	acq_USunple_CSunple2_noRW	acq1_noRW	1	54	0	0	300	300	492	46	0	1	1	blank2r.bmp	0	1	+	0	1	blank2r.bmp	252	1	VKKV	306	1	tot	559	0	0	0	0	0	0	0	0	0	0	0	0	0	0	0	0	0	0	0	0	0	0	0	0	0	0	0	0	0	0	0	0	0	0	0	0	0	0	0
071719	16:04:11	16:07:56	224559	5.0.10.0	5_exp_noRW	66	Rpleas_acq	CS_B	BZZB	YDDY	GWWG	VKKV	MQQM	JXXJ	ehrlich	retten	spielen	treu	schön	fair	eitel	rächen	strafen	tot	schlecht	faul	47pct	acq_USunple_CSunple2_noRW	acq1_noRW	1	55	0	0	300	300	554	50	0	0	1	blank2r.bmp	0	1	+	0	1	blank2r.bmp	252	1	VKKV	306	2	schlecht	559	1	FEHLER	1146	0	0	0	0	0	0	0	0	0	0	0	0	0	0	0	0	0	0	0	0	0	0	0	0	0	0	0	0	0	0	0	0	0	0	0	0
071719	16:04:11	16:07:58	226624	5.0.10.0	5_exp_noRW	66	Rpleas_acq	CS_B	BZZB	YDDY	GWWG	VKKV	MQQM	JXXJ	ehrlich	retten	spielen	treu	schön	fair	eitel	rächen	strafen	tot	schlecht	faul	47pct	acq_USunple_CSunple1_noRW	acq1_noRW	1	56	0	0	300	300	1093	46	0	1	1	blank2r.bmp	0	1	+	0	1	blank2r.bmp	252	1	GWWG	306	2	rächen	559	0	0	0	0	0	0	0	0	0	0	0	0	0	0	0	0	0	0	0	0	0	0	0	0	0	0	0	0	0	0	0	0	0	0	0	0	0	0	0
071719	16:04:11	16:08:01	229317	5.0.10.0	5_exp_noRW	66	Rpleas_acq	CS_B	BZZB	YDDY	GWWG	VKKV	MQQM	JXXJ	ehrlich	retten	spielen	treu	schön	fair	eitel	rächen	strafen	tot	schlecht	faul	53pct	acq_USunple_CSunple1_noRW	acq1_noRW	1	57	0	0	300	300	1530	46	0	1	1	blank2r.bmp	0	1	+	0	1	blank2r.bmp	252	1	GWWG	306	1	eitel	559	0	0	0	0	0	0	0	0	0	0	0	0	0	0	0	0	0	0	0	0	0	0	0	0	0	0	0	0	0	0	0	0	0	0	0	0	0	0	0
071719	16:04:11	16:08:03	230969	5.0.10.0	5_exp_noRW	66	Rpleas_acq	CS_B	BZZB	YDDY	GWWG	VKKV	MQQM	JXXJ	ehrlich	retten	spielen	treu	schön	fair	eitel	rächen	strafen	tot	schlecht	faul	53pct	acq_USpleas_CSunple2_noRW	acq1_noRW	1	58	0	0	300	300	476	50	0	1	1	blank2r.bmp	0	1	+	0	1	blank2r.bmp	252	1	VKKV	306	2	schön	559	0	0	0	0	0	0	0	0	0	0	0	0	0	0	0	0	0	0	0	0	0	0	0	0	0	0	0	0	0	0	0	0	0	0	0	0	0	0	0
071719	16:04:11	16:08:04	232662	5.0.10.0	5_exp_noRW	66	Rpleas_acq	CS_B	BZZB	YDDY	GWWG	VKKV	MQQM	JXXJ	ehrlich	retten	spielen	treu	schön	fair	eitel	rächen	strafen	tot	schlecht	faul	53pct	acq_USpleas_CSunple1_noRW	acq1_noRW	1	59	0	0	300	300	516	50	0	1	1	blank2r.bmp	0	1	+	0	1	blank2r.bmp	252	1	GWWG	306	1	ehrlich	559	0	0	0	0	0	0	0	0	0	0	0	0	0	0	0	0	0	0	0	0	0	0	0	0	0	0	0	0	0	0	0	0	0	0	0	0	0	0	0
071719	16:04:11	16:08:06	234328	5.0.10.0	5_exp_noRW	66	Rpleas_acq	CS_B	BZZB	YDDY	GWWG	VKKV	MQQM	JXXJ	ehrlich	retten	spielen	treu	schön	fair	eitel	rächen	strafen	tot	schlecht	faul	53pct	acq_USpleas_CSpleas2_noRW	acq1_noRW	1	60	0	0	300	300	490	50	0	1	1	blank2r.bmp	0	1	+	0	1	blank2r.bmp	252	1	YDDY	306	1	treu	559	0	0	0	0	0	0	0	0	0	0	0	0	0	0	0	0	0	0	0	0	0	0	0	0	0	0	0	0	0	0	0	0	0	0	0	0	0	0	0
071719	16:04:11	16:08:08	236154	5.0.10.0	5_exp_noRW	66	Rpleas_acq	CS_B	BZZB	YDDY	GWWG	VKKV	MQQM	JXXJ	ehrlich	retten	spielen	treu	schön	fair	eitel	rächen	strafen	tot	schlecht	faul	53pct	acq_USunple_CSpleas2_noRW	acq1_noRW	1	61	0	0	300	300	639	46	0	1	1	blank2r.bmp	0	1	+	0	1	blank2r.bmp	252	1	YDDY	306	2	schlecht	559	0	0	0	0	0	0	0	0	0	0	0	0	0	0	0	0	0	0	0	0	0	0	0	0	0	0	0	0	0	0	0	0	0	0	0	0	0	0	0
071719	16:04:11	16:08:10	237940	5.0.10.0	5_exp_noRW	66	Rpleas_acq	CS_B	BZZB	YDDY	GWWG	VKKV	MQQM	JXXJ	ehrlich	retten	spielen	treu	schön	fair	eitel	rächen	strafen	tot	schlecht	faul	47pct	acq_USunple_CSunple2_noRW	acq1_noRW	1	62	0	0	300	300	614	46	0	1	1	blank2r.bmp	0	1	+	0	1	blank2r.bmp	252	1	VKKV	306	1	tot	559	0	0	0	0	0	0	0	0	0	0	0	0	0	0	0	0	0	0	0	0	0	0	0	0	0	0	0	0	0	0	0	0	0	0	0	0	0	0	0
071719	16:04:11	16:08:11	239659	5.0.10.0	5_exp_noRW	66	Rpleas_acq	CS_B	BZZB	YDDY	GWWG	VKKV	MQQM	JXXJ	ehrlich	retten	spielen	treu	schön	fair	eitel	rächen	strafen	tot	schlecht	faul	47pct	acq_USpleas_CSpleas2_noRW	acq1_noRW	1	63	0	0	300	300	535	50	0	1	1	blank2r.bmp	0	1	+	0	1	blank2r.bmp	252	1	YDDY	306	1	treu	559	0	0	0	0	0	0	0	0	0	0	0	0	0	0	0	0	0	0	0	0	0	0	0	0	0	0	0	0	0	0	0	0	0	0	0	0	0	0	0
071719	16:04:11	16:08:13	241312	5.0.10.0	5_exp_noRW	66	Rpleas_acq	CS_B	BZZB	YDDY	GWWG	VKKV	MQQM	JXXJ	ehrlich	retten	spielen	treu	schön	fair	eitel	rächen	strafen	tot	schlecht	faul	47pct	acq_USpleas_CSpleas2_noRW	acq1_noRW	1	64	0	0	300	300	484	50	0	1	1	blank2r.bmp	0	1	+	0	1	blank2r.bmp	252	1	YDDY	306	3	fair	559	0	0	0	0	0	0	0	0	0	0	0	0	0	0	0	0	0	0	0	0	0	0	0	0	0	0	0	0	0	0	0	0	0	0	0	0	0	0	0
071719	16:04:11	16:08:15	242978	5.0.10.0	5_exp_noRW	66	Rpleas_acq	CS_B	BZZB	YDDY	GWWG	VKKV	MQQM	JXXJ	ehrlich	retten	spielen	treu	schön	fair	eitel	rächen	strafen	tot	schlecht	faul	47pct	acq_USpleas_CSpleas1_noRW	acq1_noRW	1	65	0	0	300	300	498	50	0	1	1	blank2r.bmp	0	1	+	0	1	blank2r.bmp	252	1	BZZB	306	3	spielen	559	0	0	0	0	0	0	0	0	0	0	0	0	0	0	0	0	0	0	0	0	0	0	0	0	0	0	0	0	0	0	0	0	0	0	0	0	0	0	0
071719	16:04:11	16:08:16	244710	5.0.10.0	5_exp_noRW	66	Rpleas_acq	CS_B	BZZB	YDDY	GWWG	VKKV	MQQM	JXXJ	ehrlich	retten	spielen	treu	schön	fair	eitel	rächen	strafen	tot	schlecht	faul	47pct	acq_USunple_CSpleas1_noRW	acq1_noRW	1	66	0	0	300	300	553	46	0	1	1	blank2r.bmp	0	1	+	0	1	blank2r.bmp	252	1	BZZB	306	3	strafen	559	0	0	0	0	0	0	0	0	0	0	0	0	0	0	0	0	0	0	0	0	0	0	0	0	0	0	0	0	0	0	0	0	0	0	0	0	0	0	0
071719	16:04:11	16:08:18	246536	5.0.10.0	5_exp_noRW	66	Rpleas_acq	CS_B	BZZB	YDDY	GWWG	VKKV	MQQM	JXXJ	ehrlich	retten	spielen	treu	schön	fair	eitel	rächen	strafen	tot	schlecht	faul	47pct	acq_USunple_CSunple2_noRW	acq1_noRW	1	67	0	0	300	300	657	46	0	1	1	blank2r.bmp	0	1	+	0	1	blank2r.bmp	252	1	VKKV	306	2	schlecht	559	0	0	0	0	0	0	0	0	0	0	0	0	0	0	0	0	0	0	0	0	0	0	0	0	0	0	0	0	0	0	0	0	0	0	0	0	0	0	0
071719	16:04:11	16:08:20	248149	5.0.10.0	5_exp_noRW	66	Rpleas_acq	CS_B	BZZB	YDDY	GWWG	VKKV	MQQM	JXXJ	ehrlich	retten	spielen	treu	schön	fair	eitel	rächen	strafen	tot	schlecht	faul	53pct	acq_USpleas_CSunple2_noRW	acq1_noRW	1	68	0	0	300	300	451	50	0	1	1	blank2r.bmp	0	1	+	0	1	blank2r.bmp	252	1	VKKV	306	2	schön	559	0	0	0	0	0	0	0	0	0	0	0	0	0	0	0	0	0	0	0	0	0	0	0	0	0	0	0	0	0	0	0	0	0	0	0	0	0	0	0
071719	16:04:11	16:08:22	249975	5.0.10.0	5_exp_noRW	66	Rpleas_acq	CS_B	BZZB	YDDY	GWWG	VKKV	MQQM	JXXJ	ehrlich	retten	spielen	treu	schön	fair	eitel	rächen	strafen	tot	schlecht	faul	53pct	acq_USpleas_CSpleas1_noRW	acq1_noRW	1	69	0	0	300	300	650	50	0	1	1	blank2r.bmp	0	1	+	0	1	blank2r.bmp	252	1	BZZB	306	2	retten	559	0	0	0	0	0	0	0	0	0	0	0	0	0	0	0	0	0	0	0	0	0	0	0	0	0	0	0	0	0	0	0	0	0	0	0	0	0	0	0
071719	16:04:11	16:08:23	251774	5.0.10.0	5_exp_noRW	66	Rpleas_acq	CS_B	BZZB	YDDY	GWWG	VKKV	MQQM	JXXJ	ehrlich	retten	spielen	treu	schön	fair	eitel	rächen	strafen	tot	schlecht	faul	53pct	acq_USunple_CSunple1_noRW	acq1_noRW	1	70	0	0	300	300	614	46	0	1	1	blank2r.bmp	0	1	+	0	1	blank2r.bmp	252	1	GWWG	306	1	eitel	559	0	0	0	0	0	0	0	0	0	0	0	0	0	0	0	0	0	0	0	0	0	0	0	0	0	0	0	0	0	0	0	0	0	0	0	0	0	0	0
071719	16:04:11	16:08:25	253626	5.0.10.0	5_exp_noRW	66	Rpleas_acq	CS_B	BZZB	YDDY	GWWG	VKKV	MQQM	JXXJ	ehrlich	retten	spielen	treu	schön	fair	eitel	rächen	strafen	tot	schlecht	faul	47pct	acq_USunple_CSunple1_noRW	acq1_noRW	1	71	0	0	300	300	672	46	0	1	1	blank2r.bmp	0	1	+	0	1	blank2r.bmp	252	1	GWWG	306	2	rächen	559	0	0	0	0	0	0	0	0	0	0	0	0	0	0	0	0	0	0	0	0	0	0	0	0	0	0	0	0	0	0	0	0	0	0	0	0	0	0	0
071719	16:04:11	16:08:27	255839	5.0.10.0	5_exp_noRW	66	Rpleas_acq	CS_B	BZZB	YDDY	GWWG	VKKV	MQQM	JXXJ	ehrlich	retten	spielen	treu	schön	fair	eitel	rächen	strafen	tot	schlecht	faul	47pct	acq_USpleas_CSunple1_noRW	acq1_noRW	1	72	0	0	300	300	1033	50	0	1	1	blank2r.bmp	0	1	+	0	1	blank2r.bmp	252	1	GWWG	306	1	ehrlich	559	0	0	0	0	0	0	0	0	0	0	0	0	0	0	0	0	0	0	0	0	0	0	0	0	0	0	0	0	0	0	0	0	0	0	0	0	0	0	0
071719	16:04:11	16:08:29	257532	5.0.10.0	5_exp_noRW	66	Rpleas_acq	CS_B	BZZB	YDDY	GWWG	VKKV	MQQM	JXXJ	ehrlich	retten	spielen	treu	schön	fair	eitel	rächen	strafen	tot	schlecht	faul	53pct	acq_USunple_CSunple2_noRW	acq1_noRW	1	73	0	0	300	300	512	46	0	1	1	blank2r.bmp	0	1	+	0	1	blank2r.bmp	252	1	VKKV	306	3	faul	559	0	0	0	0	0	0	0	0	0	0	0	0	0	0	0	0	0	0	0	0	0	0	0	0	0	0	0	0	0	0	0	0	0	0	0	0	0	0	0
071719	16:04:11	16:08:31	259131	5.0.10.0	5_exp_noRW	66	Rpleas_acq	CS_B	BZZB	YDDY	GWWG	VKKV	MQQM	JXXJ	ehrlich	retten	spielen	treu	schön	fair	eitel	rächen	strafen	tot	schlecht	faul	53pct	acq_USpleas_CSpleas2_noRW	acq1_noRW	1	74	0	0	300	300	416	50	0	1	1	blank2r.bmp	0	1	+	0	1	blank2r.bmp	252	1	YDDY	306	2	schön	559	0	0	0	0	0	0	0	0	0	0	0	0	0	0	0	0	0	0	0	0	0	0	0	0	0	0	0	0	0	0	0	0	0	0	0	0	0	0	0
071719	16:04:11	16:08:33	260970	5.0.10.0	5_exp_noRW	66	Rpleas_acq	CS_B	BZZB	YDDY	GWWG	VKKV	MQQM	JXXJ	ehrlich	retten	spielen	treu	schön	fair	eitel	rächen	strafen	tot	schlecht	faul	47pct	acq_USpleas_CSpleas2_noRW	acq1_noRW	1	75	0	0	300	300	669	50	0	1	1	blank2r.bmp	0	1	+	0	1	blank2r.bmp	252	1	YDDY	306	1	treu	559	0	0	0	0	0	0	0	0	0	0	0	0	0	0	0	0	0	0	0	0	0	0	0	0	0	0	0	0	0	0	0	0	0	0	0	0	0	0	0
071719	16:04:11	16:08:34	262756	5.0.10.0	5_exp_noRW	66	Rpleas_acq	CS_B	BZZB	YDDY	GWWG	VKKV	MQQM	JXXJ	ehrlich	retten	spielen	treu	schön	fair	eitel	rächen	strafen	tot	schlecht	faul	53pct	acq_USpleas_CSpleas1_noRW	acq1_noRW	1	76	0	0	300	300	620	50	0	1	1	blank2r.bmp	0	1	+	0	1	blank2r.bmp	252	1	BZZB	306	1	ehrlich	559	0	0	0	0	0	0	0	0	0	0	0	0	0	0	0	0	0	0	0	0	0	0	0	0	0	0	0	0	0	0	0	0	0	0	0	0	0	0	0
071719	16:04:11	16:08:36	264489	5.0.10.0	5_exp_noRW	66	Rpleas_acq	CS_B	BZZB	YDDY	GWWG	VKKV	MQQM	JXXJ	ehrlich	retten	spielen	treu	schön	fair	eitel	rächen	strafen	tot	schlecht	faul	47pct	acq_USunple_CSunple1_noRW	acq1_noRW	1	77	0	0	300	300	555	46	0	1	1	blank2r.bmp	0	1	+	0	1	blank2r.bmp	252	1	GWWG	306	3	strafen	559	0	0	0	0	0	0	0	0	0	0	0	0	0	0	0	0	0	0	0	0	0	0	0	0	0	0	0	0	0	0	0	0	0	0	0	0	0	0	0
071719	16:04:11	16:08:38	266315	5.0.10.0	5_exp_noRW	66	Rpleas_acq	CS_B	BZZB	YDDY	GWWG	VKKV	MQQM	JXXJ	ehrlich	retten	spielen	treu	schön	fair	eitel	rächen	strafen	tot	schlecht	faul	47pct	acq_USunple_CSunple2_noRW	acq1_noRW	1	78	0	0	300	300	641	46	0	1	1	blank2r.bmp	0	1	+	0	1	blank2r.bmp	252	1	VKKV	306	3	faul	559	0	0	0	0	0	0	0	0	0	0	0	0	0	0	0	0	0	0	0	0	0	0	0	0	0	0	0	0	0	0	0	0	0	0	0	0	0	0	0
071719	16:04:11	16:08:40	267980	5.0.10.0	5_exp_noRW	66	Rpleas_acq	CS_B	BZZB	YDDY	GWWG	VKKV	MQQM	JXXJ	ehrlich	retten	spielen	treu	schön	fair	eitel	rächen	strafen	tot	schlecht	faul	53pct	acq_USpleas_CSpleas1_noRW	acq1_noRW	1	79	0	0	300	300	483	50	0	1	1	blank2r.bmp	0	1	+	0	1	blank2r.bmp	252	1	BZZB	306	1	ehrlich	559	0	0	0	0	0	0	0	0	0	0	0	0	0	0	0	0	0	0	0	0	0	0	0	0	0	0	0	0	0	0	0	0	0	0	0	0	0	0	0
071719	16:04:11	16:08:41	269740	5.0.10.0	5_exp_noRW	66	Rpleas_acq	CS_B	BZZB	YDDY	GWWG	VKKV	MQQM	JXXJ	ehrlich	retten	spielen	treu	schön	fair	eitel	rächen	strafen	tot	schlecht	faul	47pct	acq_USunple_CSunple1_noRW	acq1_noRW	1	80	0	0	300	300	573	46	0	1	1	blank2r.bmp	0	1	+	0	1	blank2r.bmp	252	1	GWWG	306	2	rächen	559	0	0	0	0	0	0	0	0	0	0	0	0	0	0	0	0	0	0	0	0	0	0	0	0	0	0	0	0	0	0	0	0	0	0	0	0	0	0	0
071719	16:04:11	16:08:57	285733	5.0.10.0	5_exp_noRW	66	Rpleas_acq	CS_B	BZZB	YDDY	GWWG	VKKV	MQQM	JXXJ	ehrlich	retten	spielen	treu	schön	fair	eitel	rächen	strafen	tot	schlecht	faul	53pct	acq_USpleas_CSpleas2_noRW	acq23456_noRW	2	1	0	0	300	300	579	50	0	1	1	blank2r.bmp	0	1	+	0	1	blank2r.bmp	252	1	YDDY	306	3	fair	559	0	0	0	0	0	0	0	0	0	0	0	0	0	0	0	0	0	0	0	0	0	0	0	0	0	0	0	0	0	0	0	0	0	0	0	0	0	0	0
071719	16:04:11	16:08:59	287466	5.0.10.0	5_exp_noRW	66	Rpleas_acq	CS_B	BZZB	YDDY	GWWG	VKKV	MQQM	JXXJ	ehrlich	retten	spielen	treu	schön	fair	eitel	rächen	strafen	tot	schlecht	faul	47pct	acq_USpleas_CSpleas1_noRW	acq23456_noRW	2	2	0	0	300	300	551	50	0	1	1	blank2r.bmp	0	1	+	0	1	blank2r.bmp	252	1	BZZB	306	2	retten	559	0	0	0	0	0	0	0	0	0	0	0	0	0	0	0	0	0	0	0	0	0	0	0	0	0	0	0	0	0	0	0	0	0	0	0	0	0	0	0
071719	16:04:11	16:09:01	289078	5.0.10.0	5_exp_noRW	66	Rpleas_acq	CS_B	BZZB	YDDY	GWWG	VKKV	MQQM	JXXJ	ehrlich	retten	spielen	treu	schön	fair	eitel	rächen	strafen	tot	schlecht	faul	53pct	acq_USpleas_CSpleas2_noRW	acq23456_noRW	2	3	0	0	300	300	429	50	0	1	1	blank2r.bmp	0	1	+	0	1	blank2r.bmp	252	1	YDDY	306	2	schön	559	0	0	0	0	0	0	0	0	0	0	0	0	0	0	0	0	0	0	0	0	0	0	0	0	0	0	0	0	0	0	0	0	0	0	0	0	0	0	0
071719	16:04:11	16:09:03	290904	5.0.10.0	5_exp_noRW	66	Rpleas_acq	CS_B	BZZB	YDDY	GWWG	VKKV	MQQM	JXXJ	ehrlich	retten	spielen	treu	schön	fair	eitel	rächen	strafen	tot	schlecht	faul	47pct	acq_USunple_CSunple1_noRW	acq23456_noRW	2	4	0	0	300	300	658	46	0	1	1	blank2r.bmp	0	1	+	0	1	blank2r.bmp	252	1	GWWG	306	1	eitel	559	0	0	0	0	0	0	0	0	0	0	0	0	0	0	0	0	0	0	0	0	0	0	0	0	0	0	0	0	0	0	0	0	0	0	0	0	0	0	0
071719	16:04:11	16:09:04	292584	5.0.10.0	5_exp_noRW	66	Rpleas_acq	CS_B	BZZB	YDDY	GWWG	VKKV	MQQM	JXXJ	ehrlich	retten	spielen	treu	schön	fair	eitel	rächen	strafen	tot	schlecht	faul	47pct	acq_USpleas_CSpleas2_noRW	acq23456_noRW	2	5	0	0	300	300	505	50	0	1	1	blank2r.bmp	0	1	+	0	1	blank2r.bmp	252	1	YDDY	306	2	schön	559	0	0	0	0	0	0	0	0	0	0	0	0	0	0	0	0	0	0	0	0	0	0	0	0	0	0	0	0	0	0	0	0	0	0	0	0	0	0	0
071719	16:04:11	16:09:06	294409	5.0.10.0	5_exp_noRW	66	Rpleas_acq	CS_B	BZZB	YDDY	GWWG	VKKV	MQQM	JXXJ	ehrlich	retten	spielen	treu	schön	fair	eitel	rächen	strafen	tot	schlecht	faul	47pct	acq_USpleas_CSpleas1_noRW	acq23456_noRW	2	6	0	0	300	300	652	50	0	1	1	blank2r.bmp	0	1	+	0	1	blank2r.bmp	252	1	BZZB	306	3	spielen	559	0	0	0	0	0	0	0	0	0	0	0	0	0	0	0	0	0	0	0	0	0	0	0	0	0	0	0	0	0	0	0	0	0	0	0	0	0	0	0
071719	16:04:11	16:09:08	295982	5.0.10.0	5_exp_noRW	66	Rpleas_acq	CS_B	BZZB	YDDY	GWWG	VKKV	MQQM	JXXJ	ehrlich	retten	spielen	treu	schön	fair	eitel	rächen	strafen	tot	schlecht	faul	53pct	acq_USpleas_CSpleas2_noRW	acq23456_noRW	2	7	0	0	300	300	394	50	0	1	1	blank2r.bmp	0	1	+	0	1	blank2r.bmp	252	1	YDDY	306	3	fair	559	0	0	0	0	0	0	0	0	0	0	0	0	0	0	0	0	0	0	0	0	0	0	0	0	0	0	0	0	0	0	0	0	0	0	0	0	0	0	0
071719	16:04:11	16:09:09	297581	5.0.10.0	5_exp_noRW	66	Rpleas_acq	CS_B	BZZB	YDDY	GWWG	VKKV	MQQM	JXXJ	ehrlich	retten	spielen	treu	schön	fair	eitel	rächen	strafen	tot	schlecht	faul	53pct	acq_USpleas_CSpleas1_noRW	acq23456_noRW	2	8	0	0	300	300	417	50	0	1	1	blank2r.bmp	0	1	+	0	1	blank2r.bmp	252	1	BZZB	306	1	ehrlich	559	0	0	0	0	0	0	0	0	0	0	0	0	0	0	0	0	0	0	0	0	0	0	0	0	0	0	0	0	0	0	0	0	0	0	0	0	0	0	0
071719	16:04:11	16:09:11	299487	5.0.10.0	5_exp_noRW	66	Rpleas_acq	CS_B	BZZB	YDDY	GWWG	VKKV	MQQM	JXXJ	ehrlich	retten	spielen	treu	schön	fair	eitel	rächen	strafen	tot	schlecht	faul	47pct	acq_USpleas_CSunple1_noRW	acq23456_noRW	2	9	0	0	300	300	742	50	0	1	1	blank2r.bmp	0	1	+	0	1	blank2r.bmp	252	1	GWWG	306	2	retten	559	0	0	0	0	0	0	0	0	0	0	0	0	0	0	0	0	0	0	0	0	0	0	0	0	0	0	0	0	0	0	0	0	0	0	0	0	0	0	0
071719	16:04:11	16:09:13	301140	5.0.10.0	5_exp_noRW	66	Rpleas_acq	CS_B	BZZB	YDDY	GWWG	VKKV	MQQM	JXXJ	ehrlich	retten	spielen	treu	schön	fair	eitel	rächen	strafen	tot	schlecht	faul	53pct	acq_USunple_CSunple2_noRW	acq23456_noRW	2	10	0	0	300	300	478	46	0	1	1	blank2r.bmp	0	1	+	0	1	blank2r.bmp	252	1	VKKV	306	1	tot	559	0	0	0	0	0	0	0	0	0	0	0	0	0	0	0	0	0	0	0	0	0	0	0	0	0	0	0	0	0	0	0	0	0	0	0	0	0	0	0
071719	16:04:11	16:09:15	302886	5.0.10.0	5_exp_noRW	66	Rpleas_acq	CS_B	BZZB	YDDY	GWWG	VKKV	MQQM	JXXJ	ehrlich	retten	spielen	treu	schön	fair	eitel	rächen	strafen	tot	schlecht	faul	53pct	acq_USunple_CSunple1_noRW	acq23456_noRW	2	11	0	0	300	300	566	46	0	1	1	blank2r.bmp	0	1	+	0	1	blank2r.bmp	252	1	GWWG	306	3	strafen	559	0	0	0	0	0	0	0	0	0	0	0	0	0	0	0	0	0	0	0	0	0	0	0	0	0	0	0	0	0	0	0	0	0	0	0	0	0	0	0
071719	16:04:11	16:09:16	304672	5.0.10.0	5_exp_noRW	66	Rpleas_acq	CS_B	BZZB	YDDY	GWWG	VKKV	MQQM	JXXJ	ehrlich	retten	spielen	treu	schön	fair	eitel	rächen	strafen	tot	schlecht	faul	53pct	acq_USunple_CSunple2_noRW	acq23456_noRW	2	12	0	0	300	300	623	46	0	1	1	blank2r.bmp	0	1	+	0	1	blank2r.bmp	252	1	VKKV	306	2	schlecht	559	0	0	0	0	0	0	0	0	0	0	0	0	0	0	0	0	0	0	0	0	0	0	0	0	0	0	0	0	0	0	0	0	0	0	0	0	0	0	0
071719	16:04:11	16:09:18	306351	5.0.10.0	5_exp_noRW	66	Rpleas_acq	CS_B	BZZB	YDDY	GWWG	VKKV	MQQM	JXXJ	ehrlich	retten	spielen	treu	schön	fair	eitel	rächen	strafen	tot	schlecht	faul	47pct	acq_USunple_CSunple2_noRW	acq23456_noRW	2	13	0	0	300	300	497	46	0	1	1	blank2r.bmp	0	1	+	0	1	blank2r.bmp	252	1	VKKV	306	1	tot	559	0	0	0	0	0	0	0	0	0	0	0	0	0	0	0	0	0	0	0	0	0	0	0	0	0	0	0	0	0	0	0	0	0	0	0	0	0	0	0
071719	16:04:11	16:09:20	307964	5.0.10.0	5_exp_noRW	66	Rpleas_acq	CS_B	BZZB	YDDY	GWWG	VKKV	MQQM	JXXJ	ehrlich	retten	spielen	treu	schön	fair	eitel	rächen	strafen	tot	schlecht	faul	53pct	acq_USunple_CSpleas2_noRW	acq23456_noRW	2	14	0	0	300	300	444	46	0	1	1	blank2r.bmp	0	1	+	0	1	blank2r.bmp	252	1	YDDY	306	1	tot	559	0	0	0	0	0	0	0	0	0	0	0	0	0	0	0	0	0	0	0	0	0	0	0	0	0	0	0	0	0	0	0	0	0	0	0	0	0	0	0
071719	16:04:11	16:09:21	309630	5.0.10.0	5_exp_noRW	66	Rpleas_acq	CS_B	BZZB	YDDY	GWWG	VKKV	MQQM	JXXJ	ehrlich	retten	spielen	treu	schön	fair	eitel	rächen	strafen	tot	schlecht	faul	53pct	acq_USpleas_CSunple2_noRW	acq23456_noRW	2	15	0	0	300	300	479	50	0	1	1	blank2r.bmp	0	1	+	0	1	blank2r.bmp	252	1	VKKV	306	3	fair	559	0	0	0	0	0	0	0	0	0	0	0	0	0	0	0	0	0	0	0	0	0	0	0	0	0	0	0	0	0	0	0	0	0	0	0	0	0	0	0
071719	16:04:11	16:09:23	311469	5.0.10.0	5_exp_noRW	66	Rpleas_acq	CS_B	BZZB	YDDY	GWWG	VKKV	MQQM	JXXJ	ehrlich	retten	spielen	treu	schön	fair	eitel	rächen	strafen	tot	schlecht	faul	47pct	acq_USunple_CSunple1_noRW	acq23456_noRW	2	16	0	0	300	300	671	46	0	1	1	blank2r.bmp	0	1	+	0	1	blank2r.bmp	252	1	GWWG	306	2	rächen	559	0	0	0	0	0	0	0	0	0	0	0	0	0	0	0	0	0	0	0	0	0	0	0	0	0	0	0	0	0	0	0	0	0	0	0	0	0	0	0
071719	16:04:11	16:09:25	313708	5.0.10.0	5_exp_noRW	66	Rpleas_acq	CS_B	BZZB	YDDY	GWWG	VKKV	MQQM	JXXJ	ehrlich	retten	spielen	treu	schön	fair	eitel	rächen	strafen	tot	schlecht	faul	53pct	acq_USunple_CSunple2_noRW	acq23456_noRW	2	17	0	0	300	300	854	50	0	0	1	blank2r.bmp	0	1	+	0	1	blank2r.bmp	252	1	VKKV	306	2	schlecht	559	1	FEHLER	1452	0	0	0	0	0	0	0	0	0	0	0	0	0	0	0	0	0	0	0	0	0	0	0	0	0	0	0	0	0	0	0	0	0	0	0	0
071719	16:04:11	16:09:28	316267	5.0.10.0	5_exp_noRW	66	Rpleas_acq	CS_B	BZZB	YDDY	GWWG	VKKV	MQQM	JXXJ	ehrlich	retten	spielen	treu	schön	fair	eitel	rächen	strafen	tot	schlecht	faul	47pct	acq_USunple_CSunple1_noRW	acq23456_noRW	2	18	0	0	300	300	1395	50	0	0	1	blank2r.bmp	0	1	+	0	1	blank2r.bmp	252	1	GWWG	306	1	eitel	559	1	FEHLER	1985	0	0	0	0	0	0	0	0	0	0	0	0	0	0	0	0	0	0	0	0	0	0	0	0	0	0	0	0	0	0	0	0	0	0	0	0
071719	16:04:11	16:09:30	318279	5.0.10.0	5_exp_noRW	66	Rpleas_acq	CS_B	BZZB	YDDY	GWWG	VKKV	MQQM	JXXJ	ehrlich	retten	spielen	treu	schön	fair	eitel	rächen	strafen	tot	schlecht	faul	47pct	acq_USunple_CSpleas1_noRW	acq23456_noRW	2	19	0	0	300	300	1045	46	0	1	1	blank2r.bmp	0	1	+	0	1	blank2r.bmp	252	1	BZZB	306	1	eitel	559	0	0	0	0	0	0	0	0	0	0	0	0	0	0	0	0	0	0	0	0	0	0	0	0	0	0	0	0	0	0	0	0	0	0	0	0	0	0	0
071719	16:04:11	16:09:32	320065	5.0.10.0	5_exp_noRW	66	Rpleas_acq	CS_B	BZZB	YDDY	GWWG	VKKV	MQQM	JXXJ	ehrlich	retten	spielen	treu	schön	fair	eitel	rächen	strafen	tot	schlecht	faul	53pct	acq_USpleas_CSpleas1_noRW	acq23456_noRW	2	20	0	0	300	300	616	50	0	1	1	blank2r.bmp	0	1	+	0	1	blank2r.bmp	252	1	BZZB	306	2	retten	559	0	0	0	0	0	0	0	0	0	0	0	0	0	0	0	0	0	0	0	0	0	0	0	0	0	0	0	0	0	0	0	0	0	0	0	0	0	0	0
071719	16:04:11	16:09:34	322171	5.0.10.0	5_exp_noRW	66	Rpleas_acq	CS_B	BZZB	YDDY	GWWG	VKKV	MQQM	JXXJ	ehrlich	retten	spielen	treu	schön	fair	eitel	rächen	strafen	tot	schlecht	faul	53pct	acq_USpleas_CSpleas2_noRW	acq23456_noRW	2	21	0	0	300	300	931	50	0	1	1	blank2r.bmp	0	1	+	0	1	blank2r.bmp	252	1	YDDY	306	1	treu	559	0	0	0	0	0	0	0	0	0	0	0	0	0	0	0	0	0	0	0	0	0	0	0	0	0	0	0	0	0	0	0	0	0	0	0	0	0	0	0
071719	16:04:11	16:09:36	323970	5.0.10.0	5_exp_noRW	66	Rpleas_acq	CS_B	BZZB	YDDY	GWWG	VKKV	MQQM	JXXJ	ehrlich	retten	spielen	treu	schön	fair	eitel	rächen	strafen	tot	schlecht	faul	53pct	acq_USunple_CSpleas1_noRW	acq23456_noRW	2	22	0	0	300	300	633	46	0	1	1	blank2r.bmp	0	1	+	0	1	blank2r.bmp	252	1	BZZB	306	2	rächen	559	0	0	0	0	0	0	0	0	0	0	0	0	0	0	0	0	0	0	0	0	0	0	0	0	0	0	0	0	0	0	0	0	0	0	0	0	0	0	0
071719	16:04:11	16:09:38	325956	5.0.10.0	5_exp_noRW	66	Rpleas_acq	CS_B	BZZB	YDDY	GWWG	VKKV	MQQM	JXXJ	ehrlich	retten	spielen	treu	schön	fair	eitel	rächen	strafen	tot	schlecht	faul	47pct	acq_USunple_CSunple2_noRW	acq23456_noRW	2	23	0	0	300	300	806	46	0	1	1	blank2r.bmp	0	1	+	0	1	blank2r.bmp	252	1	VKKV	306	3	faul	559	0	0	0	0	0	0	0	0	0	0	0	0	0	0	0	0	0	0	0	0	0	0	0	0	0	0	0	0	0	0	0	0	0	0	0	0	0	0	0
071719	16:04:11	16:09:39	327662	5.0.10.0	5_exp_noRW	66	Rpleas_acq	CS_B	BZZB	YDDY	GWWG	VKKV	MQQM	JXXJ	ehrlich	retten	spielen	treu	schön	fair	eitel	rächen	strafen	tot	schlecht	faul	47pct	acq_USpleas_CSpleas1_noRW	acq23456_noRW	2	24	0	0	300	300	541	50	0	1	1	blank2r.bmp	0	1	+	0	1	blank2r.bmp	252	1	BZZB	306	3	spielen	559	0	0	0	0	0	0	0	0	0	0	0	0	0	0	0	0	0	0	0	0	0	0	0	0	0	0	0	0	0	0	0	0	0	0	0	0	0	0	0
071719	16:04:11	16:09:41	329341	5.0.10.0	5_exp_noRW	66	Rpleas_acq	CS_B	BZZB	YDDY	GWWG	VKKV	MQQM	JXXJ	ehrlich	retten	spielen	treu	schön	fair	eitel	rächen	strafen	tot	schlecht	faul	47pct	acq_USpleas_CSpleas2_noRW	acq23456_noRW	2	25	0	0	300	300	504	50	0	1	1	blank2r.bmp	0	1	+	0	1	blank2r.bmp	252	1	YDDY	306	1	treu	559	0	0	0	0	0	0	0	0	0	0	0	0	0	0	0	0	0	0	0	0	0	0	0	0	0	0	0	0	0	0	0	0	0	0	0	0	0	0	0
071719	16:04:11	16:09:43	330967	5.0.10.0	5_exp_noRW	66	Rpleas_acq	CS_B	BZZB	YDDY	GWWG	VKKV	MQQM	JXXJ	ehrlich	retten	spielen	treu	schön	fair	eitel	rächen	strafen	tot	schlecht	faul	53pct	acq_USpleas_CSunple2_noRW	acq23456_noRW	2	26	0	0	300	300	427	50	0	1	1	blank2r.bmp	0	1	+	0	1	blank2r.bmp	252	1	VKKV	306	1	treu	559	0	0	0	0	0	0	0	0	0	0	0	0	0	0	0	0	0	0	0	0	0	0	0	0	0	0	0	0	0	0	0	0	0	0	0	0	0	0	0
071719	16:04:11	16:09:44	332647	5.0.10.0	5_exp_noRW	66	Rpleas_acq	CS_B	BZZB	YDDY	GWWG	VKKV	MQQM	JXXJ	ehrlich	retten	spielen	treu	schön	fair	eitel	rächen	strafen	tot	schlecht	faul	47pct	acq_USunple_CSunple1_noRW	acq23456_noRW	2	27	0	0	300	300	505	46	0	1	1	blank2r.bmp	0	1	+	0	1	blank2r.bmp	252	1	GWWG	306	3	strafen	559	0	0	0	0	0	0	0	0	0	0	0	0	0	0	0	0	0	0	0	0	0	0	0	0	0	0	0	0	0	0	0	0	0	0	0	0	0	0	0
071719	16:04:11	16:09:46	334353	5.0.10.0	5_exp_noRW	66	Rpleas_acq	CS_B	BZZB	YDDY	GWWG	VKKV	MQQM	JXXJ	ehrlich	retten	spielen	treu	schön	fair	eitel	rächen	strafen	tot	schlecht	faul	47pct	acq_USpleas_CSpleas1_noRW	acq23456_noRW	2	28	0	0	300	300	536	50	0	1	1	blank2r.bmp	0	1	+	0	1	blank2r.bmp	252	1	BZZB	306	2	retten	559	0	0	0	0	0	0	0	0	0	0	0	0	0	0	0	0	0	0	0	0	0	0	0	0	0	0	0	0	0	0	0	0	0	0	0	0	0	0	0
071719	16:04:11	16:09:48	336032	5.0.10.0	5_exp_noRW	66	Rpleas_acq	CS_B	BZZB	YDDY	GWWG	VKKV	MQQM	JXXJ	ehrlich	retten	spielen	treu	schön	fair	eitel	rächen	strafen	tot	schlecht	faul	47pct	acq_USpleas_CSpleas2_noRW	acq23456_noRW	2	29	0	0	300	300	516	50	0	1	1	blank2r.bmp	0	1	+	0	1	blank2r.bmp	252	1	YDDY	306	3	fair	559	0	0	0	0	0	0	0	0	0	0	0	0	0	0	0	0	0	0	0	0	0	0	0	0	0	0	0	0	0	0	0	0	0	0	0	0	0	0	0
071719	16:04:11	16:09:49	337725	5.0.10.0	5_exp_noRW	66	Rpleas_acq	CS_B	BZZB	YDDY	GWWG	VKKV	MQQM	JXXJ	ehrlich	retten	spielen	treu	schön	fair	eitel	rächen	strafen	tot	schlecht	faul	47pct	acq_USunple_CSunple2_noRW	acq23456_noRW	2	30	0	0	300	300	529	46	0	1	1	blank2r.bmp	0	1	+	0	1	blank2r.bmp	252	1	VKKV	306	3	faul	559	0	0	0	0	0	0	0	0	0	0	0	0	0	0	0	0	0	0	0	0	0	0	0	0	0	0	0	0	0	0	0	0	0	0	0	0	0	0	0
071719	16:04:11	16:09:51	339404	5.0.10.0	5_exp_noRW	66	Rpleas_acq	CS_B	BZZB	YDDY	GWWG	VKKV	MQQM	JXXJ	ehrlich	retten	spielen	treu	schön	fair	eitel	rächen	strafen	tot	schlecht	faul	53pct	acq_USpleas_CSpleas1_noRW	acq23456_noRW	2	31	0	0	300	300	501	50	0	1	1	blank2r.bmp	0	1	+	0	1	blank2r.bmp	252	1	BZZB	306	1	ehrlich	559	0	0	0	0	0	0	0	0	0	0	0	0	0	0	0	0	0	0	0	0	0	0	0	0	0	0	0	0	0	0	0	0	0	0	0	0	0	0	0
071719	16:04:11	16:09:53	341150	5.0.10.0	5_exp_noRW	66	Rpleas_acq	CS_B	BZZB	YDDY	GWWG	VKKV	MQQM	JXXJ	ehrlich	retten	spielen	treu	schön	fair	eitel	rächen	strafen	tot	schlecht	faul	47pct	acq_USunple_CSunple1_noRW	acq23456_noRW	2	32	0	0	300	300	576	46	0	1	1	blank2r.bmp	0	1	+	0	1	blank2r.bmp	252	1	GWWG	306	1	eitel	559	0	0	0	0	0	0	0	0	0	0	0	0	0	0	0	0	0	0	0	0	0	0	0	0	0	0	0	0	0	0	0	0	0	0	0	0	0	0	0
071719	16:04:11	16:09:55	343016	5.0.10.0	5_exp_noRW	66	Rpleas_acq	CS_B	BZZB	YDDY	GWWG	VKKV	MQQM	JXXJ	ehrlich	retten	spielen	treu	schön	fair	eitel	rächen	strafen	tot	schlecht	faul	47pct	acq_USunple_CSunple2_noRW	acq23456_noRW	2	33	0	0	300	300	697	46	0	1	1	blank2r.bmp	0	1	+	0	1	blank2r.bmp	252	1	VKKV	306	2	schlecht	559	0	0	0	0	0	0	0	0	0	0	0	0	0	0	0	0	0	0	0	0	0	0	0	0	0	0	0	0	0	0	0	0	0	0	0	0	0	0	0
071719	16:04:11	16:09:56	344708	5.0.10.0	5_exp_noRW	66	Rpleas_acq	CS_B	BZZB	YDDY	GWWG	VKKV	MQQM	JXXJ	ehrlich	retten	spielen	treu	schön	fair	eitel	rächen	strafen	tot	schlecht	faul	47pct	acq_USpleas_CSunple1_noRW	acq23456_noRW	2	34	0	0	300	300	509	50	0	1	1	blank2r.bmp	0	1	+	0	1	blank2r.bmp	252	1	GWWG	306	3	spielen	559	0	0	0	0	0	0	0	0	0	0	0	0	0	0	0	0	0	0	0	0	0	0	0	0	0	0	0	0	0	0	0	0	0	0	0	0	0	0	0
071719	16:04:11	16:09:58	346414	5.0.10.0	5_exp_noRW	66	Rpleas_acq	CS_B	BZZB	YDDY	GWWG	VKKV	MQQM	JXXJ	ehrlich	retten	spielen	treu	schön	fair	eitel	rächen	strafen	tot	schlecht	faul	53pct	acq_USunple_CSunple1_noRW	acq23456_noRW	2	35	0	0	300	300	532	46	0	1	1	blank2r.bmp	0	1	+	0	1	blank2r.bmp	252	1	GWWG	306	3	strafen	559	0	0	0	0	0	0	0	0	0	0	0	0	0	0	0	0	0	0	0	0	0	0	0	0	0	0	0	0	0	0	0	0	0	0	0	0	0	0	0
071719	16:04:11	16:10:00	348187	5.0.10.0	5_exp_noRW	66	Rpleas_acq	CS_B	BZZB	YDDY	GWWG	VKKV	MQQM	JXXJ	ehrlich	retten	spielen	treu	schön	fair	eitel	rächen	strafen	tot	schlecht	faul	47pct	acq_USunple_CSpleas2_noRW	acq23456_noRW	2	36	0	0	300	300	605	46	0	1	1	blank2r.bmp	0	1	+	0	1	blank2r.bmp	252	1	YDDY	306	3	faul	559	0	0	0	0	0	0	0	0	0	0	0	0	0	0	0	0	0	0	0	0	0	0	0	0	0	0	0	0	0	0	0	0	0	0	0	0	0	0	0
071719	16:04:11	16:10:02	349933	5.0.10.0	5_exp_noRW	66	Rpleas_acq	CS_B	BZZB	YDDY	GWWG	VKKV	MQQM	JXXJ	ehrlich	retten	spielen	treu	schön	fair	eitel	rächen	strafen	tot	schlecht	faul	47pct	acq_USpleas_CSpleas2_noRW	acq23456_noRW	2	37	0	0	300	300	580	50	0	1	1	blank2r.bmp	0	1	+	0	1	blank2r.bmp	252	1	YDDY	306	2	schön	559	0	0	0	0	0	0	0	0	0	0	0	0	0	0	0	0	0	0	0	0	0	0	0	0	0	0	0	0	0	0	0	0	0	0	0	0	0	0	0
071719	16:04:11	16:10:03	351586	5.0.10.0	5_exp_noRW	66	Rpleas_acq	CS_B	BZZB	YDDY	GWWG	VKKV	MQQM	JXXJ	ehrlich	retten	spielen	treu	schön	fair	eitel	rächen	strafen	tot	schlecht	faul	53pct	acq_USunple_CSunple2_noRW	acq23456_noRW	2	38	0	0	300	300	486	46	0	1	1	blank2r.bmp	0	1	+	0	1	blank2r.bmp	252	1	VKKV	306	1	tot	559	0	0	0	0	0	0	0	0	0	0	0	0	0	0	0	0	0	0	0	0	0	0	0	0	0	0	0	0	0	0	0	0	0	0	0	0	0	0	0
071719	16:04:11	16:10:05	353171	5.0.10.0	5_exp_noRW	66	Rpleas_acq	CS_B	BZZB	YDDY	GWWG	VKKV	MQQM	JXXJ	ehrlich	retten	spielen	treu	schön	fair	eitel	rächen	strafen	tot	schlecht	faul	47pct	acq_USpleas_CSpleas1_noRW	acq23456_noRW	2	39	0	0	300	300	424	50	0	1	1	blank2r.bmp	0	1	+	0	1	blank2r.bmp	252	1	BZZB	306	3	spielen	559	0	0	0	0	0	0	0	0	0	0	0	0	0	0	0	0	0	0	0	0	0	0	0	0	0	0	0	0	0	0	0	0	0	0	0	0	0	0	0
071719	16:04:11	16:10:07	355504	5.0.10.0	5_exp_noRW	66	Rpleas_acq	CS_B	BZZB	YDDY	GWWG	VKKV	MQQM	JXXJ	ehrlich	retten	spielen	treu	schön	fair	eitel	rächen	strafen	tot	schlecht	faul	47pct	acq_USunple_CSunple1_noRW	acq23456_noRW	2	40	0	0	300	300	1146	46	0	1	1	blank2r.bmp	0	1	+	0	1	blank2r.bmp	252	1	GWWG	306	2	rächen	559	0	0	0	0	0	0	0	0	0	0	0	0	0	0	0	0	0	0	0	0	0	0	0	0	0	0	0	0	0	0	0	0	0	0	0	0	0	0	0
071719	16:04:11	16:10:09	357170	5.0.10.0	5_exp_noRW	66	Rpleas_acq	CS_B	BZZB	YDDY	GWWG	VKKV	MQQM	JXXJ	ehrlich	retten	spielen	treu	schön	fair	eitel	rächen	strafen	tot	schlecht	faul	47pct	acq_USpleas_CSunple2_noRW	acq23456_noRW	2	41	0	0	300	300	495	50	0	1	1	blank2r.bmp	0	1	+	0	1	blank2r.bmp	252	1	VKKV	306	2	schön	559	0	0	0	0	0	0	0	0	0	0	0	0	0	0	0	0	0	0	0	0	0	0	0	0	0	0	0	0	0	0	0	0	0	0	0	0	0	0	0
071719	16:04:11	16:10:10	358809	5.0.10.0	5_exp_noRW	66	Rpleas_acq	CS_B	BZZB	YDDY	GWWG	VKKV	MQQM	JXXJ	ehrlich	retten	spielen	treu	schön	fair	eitel	rächen	strafen	tot	schlecht	faul	47pct	acq_USpleas_CSpleas1_noRW	acq23456_noRW	2	42	0	0	300	300	467	50	0	1	1	blank2r.bmp	0	1	+	0	1	blank2r.bmp	252	1	BZZB	306	3	spielen	559	0	0	0	0	0	0	0	0	0	0	0	0	0	0	0	0	0	0	0	0	0	0	0	0	0	0	0	0	0	0	0	0	0	0	0	0	0	0	0
071719	16:04:11	16:10:12	360475	5.0.10.0	5_exp_noRW	66	Rpleas_acq	CS_B	BZZB	YDDY	GWWG	VKKV	MQQM	JXXJ	ehrlich	retten	spielen	treu	schön	fair	eitel	rächen	strafen	tot	schlecht	faul	47pct	acq_USpleas_CSpleas1_noRW	acq23456_noRW	2	43	0	0	300	300	498	50	0	1	1	blank2r.bmp	0	1	+	0	1	blank2r.bmp	252	1	BZZB	306	1	ehrlich	559	0	0	0	0	0	0	0	0	0	0	0	0	0	0	0	0	0	0	0	0	0	0	0	0	0	0	0	0	0	0	0	0	0	0	0	0	0	0	0
071719	16:04:11	16:10:14	362088	5.0.10.0	5_exp_noRW	66	Rpleas_acq	CS_B	BZZB	YDDY	GWWG	VKKV	MQQM	JXXJ	ehrlich	retten	spielen	treu	schön	fair	eitel	rächen	strafen	tot	schlecht	faul	53pct	acq_USpleas_CSunple1_noRW	acq23456_noRW	2	44	0	0	300	300	430	50	0	1	1	blank2r.bmp	0	1	+	0	1	blank2r.bmp	252	1	GWWG	306	3	spielen	559	0	0	0	0	0	0	0	0	0	0	0	0	0	0	0	0	0	0	0	0	0	0	0	0	0	0	0	0	0	0	0	0	0	0	0	0	0	0	0
071719	16:04:11	16:10:15	363767	5.0.10.0	5_exp_noRW	66	Rpleas_acq	CS_B	BZZB	YDDY	GWWG	VKKV	MQQM	JXXJ	ehrlich	retten	spielen	treu	schön	fair	eitel	rächen	strafen	tot	schlecht	faul	47pct	acq_USunple_CSunple2_noRW	acq23456_noRW	2	45	0	0	300	300	517	46	0	1	1	blank2r.bmp	0	1	+	0	1	blank2r.bmp	252	1	VKKV	306	1	tot	559	0	0	0	0	0	0	0	0	0	0	0	0	0	0	0	0	0	0	0	0	0	0	0	0	0	0	0	0	0	0	0	0	0	0	0	0	0	0	0
071719	16:04:11	16:10:17	365673	5.0.10.0	5_exp_noRW	66	Rpleas_acq	CS_B	BZZB	YDDY	GWWG	VKKV	MQQM	JXXJ	ehrlich	retten	spielen	treu	schön	fair	eitel	rächen	strafen	tot	schlecht	faul	47pct	acq_USpleas_CSpleas1_noRW	acq23456_noRW	2	46	0	0	300	300	724	50	0	1	1	blank2r.bmp	0	1	+	0	1	blank2r.bmp	252	1	BZZB	306	2	retten	559	0	0	0	0	0	0	0	0	0	0	0	0	0	0	0	0	0	0	0	0	0	0	0	0	0	0	0	0	0	0	0	0	0	0	0	0	0	0	0
071719	16:04:11	16:10:19	367406	5.0.10.0	5_exp_noRW	66	Rpleas_acq	CS_B	BZZB	YDDY	GWWG	VKKV	MQQM	JXXJ	ehrlich	retten	spielen	treu	schön	fair	eitel	rächen	strafen	tot	schlecht	faul	47pct	acq_USunple_CSunple1_noRW	acq23456_noRW	2	47	0	0	300	300	570	46	0	1	1	blank2r.bmp	0	1	+	0	1	blank2r.bmp	252	1	GWWG	306	3	strafen	559	0	0	0	0	0	0	0	0	0	0	0	0	0	0	0	0	0	0	0	0	0	0	0	0	0	0	0	0	0	0	0	0	0	0	0	0	0	0	0
071719	16:04:11	16:10:21	369085	5.0.10.0	5_exp_noRW	66	Rpleas_acq	CS_B	BZZB	YDDY	GWWG	VKKV	MQQM	JXXJ	ehrlich	retten	spielen	treu	schön	fair	eitel	rächen	strafen	tot	schlecht	faul	53pct	acq_USpleas_CSpleas2_noRW	acq23456_noRW	2	48	0	0	300	300	491	50	0	1	1	blank2r.bmp	0	1	+	0	1	blank2r.bmp	252	1	YDDY	306	2	schön	559	0	0	0	0	0	0	0	0	0	0	0	0	0	0	0	0	0	0	0	0	0	0	0	0	0	0	0	0	0	0	0	0	0	0	0	0	0	0	0
071719	16:04:11	16:10:22	370751	5.0.10.0	5_exp_noRW	66	Rpleas_acq	CS_B	BZZB	YDDY	GWWG	VKKV	MQQM	JXXJ	ehrlich	retten	spielen	treu	schön	fair	eitel	rächen	strafen	tot	schlecht	faul	53pct	acq_USunple_CSunple1_noRW	acq23456_noRW	2	49	0	0	300	300	499	46	0	1	1	blank2r.bmp	0	1	+	0	1	blank2r.bmp	252	1	GWWG	306	1	eitel	559	0	0	0	0	0	0	0	0	0	0	0	0	0	0	0	0	0	0	0	0	0	0	0	0	0	0	0	0	0	0	0	0	0	0	0	0	0	0	0
071719	16:04:11	16:10:24	372590	5.0.10.0	5_exp_noRW	66	Rpleas_acq	CS_B	BZZB	YDDY	GWWG	VKKV	MQQM	JXXJ	ehrlich	retten	spielen	treu	schön	fair	eitel	rächen	strafen	tot	schlecht	faul	47pct	acq_USunple_CSunple1_noRW	acq23456_noRW	2	50	0	0	300	300	445	50	0	0	1	blank2r.bmp	0	1	+	0	1	blank2r.bmp	252	1	GWWG	306	2	rächen	559	1	FEHLER	1039	0	0	0	0	0	0	0	0	0	0	0	0	0	0	0	0	0	0	0	0	0	0	0	0	0	0	0	0	0	0	0	0	0	0	0	0
071719	16:04:11	16:10:26	374056	5.0.10.0	5_exp_noRW	66	Rpleas_acq	CS_B	BZZB	YDDY	GWWG	VKKV	MQQM	JXXJ	ehrlich	retten	spielen	treu	schön	fair	eitel	rächen	strafen	tot	schlecht	faul	53pct	acq_USpleas_CSpleas2_noRW	acq23456_noRW	2	51	0	0	300	300	503	50	0	1	1	blank2r.bmp	0	1	+	0	1	blank2r.bmp	252	1	YDDY	306	1	treu	559	0	0	0	0	0	0	0	0	0	0	0	0	0	0	0	0	0	0	0	0	0	0	0	0	0	0	0	0	0	0	0	0	0	0	0	0	0	0	0
071719	16:04:11	16:10:27	375722	5.0.10.0	5_exp_noRW	66	Rpleas_acq	CS_B	BZZB	YDDY	GWWG	VKKV	MQQM	JXXJ	ehrlich	retten	spielen	treu	schön	fair	eitel	rächen	strafen	tot	schlecht	faul	53pct	acq_USpleas_CSpleas2_noRW	acq23456_noRW	2	52	0	0	300	300	479	50	0	1	1	blank2r.bmp	0	1	+	0	1	blank2r.bmp	252	1	YDDY	306	3	fair	559	0	0	0	0	0	0	0	0	0	0	0	0	0	0	0	0	0	0	0	0	0	0	0	0	0	0	0	0	0	0	0	0	0	0	0	0	0	0	0
071719	16:04:11	16:10:29	377655	5.0.10.0	5_exp_noRW	66	Rpleas_acq	CS_B	BZZB	YDDY	GWWG	VKKV	MQQM	JXXJ	ehrlich	retten	spielen	treu	schön	fair	eitel	rächen	strafen	tot	schlecht	faul	47pct	acq_USunple_CSunple2_noRW	acq23456_noRW	2	53	0	0	300	300	762	46	0	1	1	blank2r.bmp	0	1	+	0	1	blank2r.bmp	252	1	VKKV	306	3	faul	559	0	0	0	0	0	0	0	0	0	0	0	0	0	0	0	0	0	0	0	0	0	0	0	0	0	0	0	0	0	0	0	0	0	0	0	0	0	0	0
071719	16:04:11	16:10:31	379334	5.0.10.0	5_exp_noRW	66	Rpleas_acq	CS_B	BZZB	YDDY	GWWG	VKKV	MQQM	JXXJ	ehrlich	retten	spielen	treu	schön	fair	eitel	rächen	strafen	tot	schlecht	faul	53pct	acq_USunple_CSpleas2_noRW	acq23456_noRW	2	54	0	0	300	300	518	46	0	1	1	blank2r.bmp	0	1	+	0	1	blank2r.bmp	252	1	YDDY	306	2	schlecht	559	0	0	0	0	0	0	0	0	0	0	0	0	0	0	0	0	0	0	0	0	0	0	0	0	0	0	0	0	0	0	0	0	0	0	0	0	0	0	0
071719	16:04:11	16:10:33	381013	5.0.10.0	5_exp_noRW	66	Rpleas_acq	CS_B	BZZB	YDDY	GWWG	VKKV	MQQM	JXXJ	ehrlich	retten	spielen	treu	schön	fair	eitel	rächen	strafen	tot	schlecht	faul	53pct	acq_USunple_CSunple1_noRW	acq23456_noRW	2	55	0	0	300	300	498	46	0	1	1	blank2r.bmp	0	1	+	0	1	blank2r.bmp	252	1	GWWG	306	3	strafen	559	0	0	0	0	0	0	0	0	0	0	0	0	0	0	0	0	0	0	0	0	0	0	0	0	0	0	0	0	0	0	0	0	0	0	0	0	0	0	0
071719	16:04:11	16:10:34	382706	5.0.10.0	5_exp_noRW	66	Rpleas_acq	CS_B	BZZB	YDDY	GWWG	VKKV	MQQM	JXXJ	ehrlich	retten	spielen	treu	schön	fair	eitel	rächen	strafen	tot	schlecht	faul	53pct	acq_USunple_CSunple2_noRW	acq23456_noRW	2	56	0	0	300	300	517	46	0	1	1	blank2r.bmp	0	1	+	0	1	blank2r.bmp	252	1	VKKV	306	2	schlecht	559	0	0	0	0	0	0	0	0	0	0	0	0	0	0	0	0	0	0	0	0	0	0	0	0	0	0	0	0	0	0	0	0	0	0	0	0	0	0	0
071719	16:04:11	16:10:36	384572	5.0.10.0	5_exp_noRW	66	Rpleas_acq	CS_B	BZZB	YDDY	GWWG	VKKV	MQQM	JXXJ	ehrlich	retten	spielen	treu	schön	fair	eitel	rächen	strafen	tot	schlecht	faul	47pct	acq_USunple_CSpleas1_noRW	acq23456_noRW	2	57	0	0	300	300	686	46	0	1	1	blank2r.bmp	0	1	+	0	1	blank2r.bmp	252	1	BZZB	306	2	rächen	559	0	0	0	0	0	0	0	0	0	0	0	0	0	0	0	0	0	0	0	0	0	0	0	0	0	0	0	0	0	0	0	0	0	0	0	0	0	0	0
071719	16:04:11	16:10:38	386278	5.0.10.0	5_exp_noRW	66	Rpleas_acq	CS_B	BZZB	YDDY	GWWG	VKKV	MQQM	JXXJ	ehrlich	retten	spielen	treu	schön	fair	eitel	rächen	strafen	tot	schlecht	faul	53pct	acq_USunple_CSunple2_noRW	acq23456_noRW	2	58	0	0	300	300	530	46	0	1	1	blank2r.bmp	0	1	+	0	1	blank2r.bmp	252	1	VKKV	306	3	faul	559	0	0	0	0	0	0	0	0	0	0	0	0	0	0	0	0	0	0	0	0	0	0	0	0	0	0	0	0	0	0	0	0	0	0	0	0	0	0	0
071719	16:04:11	16:10:40	387890	5.0.10.0	5_exp_noRW	66	Rpleas_acq	CS_B	BZZB	YDDY	GWWG	VKKV	MQQM	JXXJ	ehrlich	retten	spielen	treu	schön	fair	eitel	rächen	strafen	tot	schlecht	faul	47pct	acq_USpleas_CSpleas2_noRW	acq23456_noRW	2	59	0	0	300	300	435	50	0	1	1	blank2r.bmp	0	1	+	0	1	blank2r.bmp	252	1	YDDY	306	3	fair	559	0	0	0	0	0	0	0	0	0	0	0	0	0	0	0	0	0	0	0	0	0	0	0	0	0	0	0	0	0	0	0	0	0	0	0	0	0	0	0
071719	16:04:11	16:10:41	389610	5.0.10.0	5_exp_noRW	66	Rpleas_acq	CS_B	BZZB	YDDY	GWWG	VKKV	MQQM	JXXJ	ehrlich	retten	spielen	treu	schön	fair	eitel	rächen	strafen	tot	schlecht	faul	47pct	acq_USpleas_CSpleas1_noRW	acq23456_noRW	2	60	0	0	300	300	538	50	0	1	1	blank2r.bmp	0	1	+	0	1	blank2r.bmp	252	1	BZZB	306	3	spielen	559	0	0	0	0	0	0	0	0	0	0	0	0	0	0	0	0	0	0	0	0	0	0	0	0	0	0	0	0	0	0	0	0	0	0	0	0	0	0	0
071719	16:04:11	16:10:43	391249	5.0.10.0	5_exp_noRW	66	Rpleas_acq	CS_B	BZZB	YDDY	GWWG	VKKV	MQQM	JXXJ	ehrlich	retten	spielen	treu	schön	fair	eitel	rächen	strafen	tot	schlecht	faul	47pct	acq_USpleas_CSpleas1_noRW	acq23456_noRW	2	61	0	0	300	300	451	50	0	1	1	blank2r.bmp	0	1	+	0	1	blank2r.bmp	252	1	BZZB	306	1	ehrlich	559	0	0	0	0	0	0	0	0	0	0	0	0	0	0	0	0	0	0	0	0	0	0	0	0	0	0	0	0	0	0	0	0	0	0	0	0	0	0	0
071719	16:04:11	16:10:45	392888	5.0.10.0	5_exp_noRW	66	Rpleas_acq	CS_B	BZZB	YDDY	GWWG	VKKV	MQQM	JXXJ	ehrlich	retten	spielen	treu	schön	fair	eitel	rächen	strafen	tot	schlecht	faul	53pct	acq_USpleas_CSpleas1_noRW	acq23456_noRW	2	62	0	0	300	300	474	50	0	1	1	blank2r.bmp	0	1	+	0	1	blank2r.bmp	252	1	BZZB	306	2	retten	559	0	0	0	0	0	0	0	0	0	0	0	0	0	0	0	0	0	0	0	0	0	0	0	0	0	0	0	0	0	0	0	0	0	0	0	0	0	0	0
071719	16:04:11	16:10:46	394594	5.0.10.0	5_exp_noRW	66	Rpleas_acq	CS_B	BZZB	YDDY	GWWG	VKKV	MQQM	JXXJ	ehrlich	retten	spielen	treu	schön	fair	eitel	rächen	strafen	tot	schlecht	faul	47pct	acq_USunple_CSunple2_noRW	acq23456_noRW	2	63	0	0	300	300	519	46	0	1	1	blank2r.bmp	0	1	+	0	1	blank2r.bmp	252	1	VKKV	306	2	schlecht	559	0	0	0	0	0	0	0	0	0	0	0	0	0	0	0	0	0	0	0	0	0	0	0	0	0	0	0	0	0	0	0	0	0	0	0	0	0	0	0
071719	16:04:11	16:10:48	396460	5.0.10.0	5_exp_noRW	66	Rpleas_acq	CS_B	BZZB	YDDY	GWWG	VKKV	MQQM	JXXJ	ehrlich	retten	spielen	treu	schön	fair	eitel	rächen	strafen	tot	schlecht	faul	47pct	acq_USpleas_CSpleas1_noRW	acq23456_noRW	2	64	0	0	300	300	699	50	0	1	1	blank2r.bmp	0	1	+	0	1	blank2r.bmp	252	1	BZZB	306	2	retten	559	0	0	0	0	0	0	0	0	0	0	0	0	0	0	0	0	0	0	0	0	0	0	0	0	0	0	0	0	0	0	0	0	0	0	0	0	0	0	0
071719	16:04:11	16:10:50	398046	5.0.10.0	5_exp_noRW	66	Rpleas_acq	CS_B	BZZB	YDDY	GWWG	VKKV	MQQM	JXXJ	ehrlich	retten	spielen	treu	schön	fair	eitel	rächen	strafen	tot	schlecht	faul	47pct	acq_USpleas_CSpleas1_noRW	acq23456_noRW	2	65	0	0	300	300	405	50	0	1	1	blank2r.bmp	0	1	+	0	1	blank2r.bmp	252	1	BZZB	306	1	ehrlich	559	0	0	0	0	0	0	0	0	0	0	0	0	0	0	0	0	0	0	0	0	0	0	0	0	0	0	0	0	0	0	0	0	0	0	0	0	0	0	0
071719	16:04:11	16:10:51	399672	5.0.10.0	5_exp_noRW	66	Rpleas_acq	CS_B	BZZB	YDDY	GWWG	VKKV	MQQM	JXXJ	ehrlich	retten	spielen	treu	schön	fair	eitel	rächen	strafen	tot	schlecht	faul	53pct	acq_USpleas_CSunple2_noRW	acq23456_noRW	2	66	0	0	300	300	461	50	0	1	1	blank2r.bmp	0	1	+	0	1	blank2r.bmp	252	1	VKKV	306	3	fair	559	0	0	0	0	0	0	0	0	0	0	0	0	0	0	0	0	0	0	0	0	0	0	0	0	0	0	0	0	0	0	0	0	0	0	0	0	0	0	0
071719	16:04:11	16:10:53	401391	5.0.10.0	5_exp_noRW	66	Rpleas_acq	CS_B	BZZB	YDDY	GWWG	VKKV	MQQM	JXXJ	ehrlich	retten	spielen	treu	schön	fair	eitel	rächen	strafen	tot	schlecht	faul	53pct	acq_USunple_CSunple2_noRW	acq23456_noRW	2	67	0	0	300	300	540	46	0	1	1	blank2r.bmp	0	1	+	0	1	blank2r.bmp	252	1	VKKV	306	1	tot	559	0	0	0	0	0	0	0	0	0	0	0	0	0	0	0	0	0	0	0	0	0	0	0	0	0	0	0	0	0	0	0	0	0	0	0	0	0	0	0
071719	16:04:11	16:10:55	402964	5.0.10.0	5_exp_noRW	66	Rpleas_acq	CS_B	BZZB	YDDY	GWWG	VKKV	MQQM	JXXJ	ehrlich	retten	spielen	treu	schön	fair	eitel	rächen	strafen	tot	schlecht	faul	53pct	acq_USunple_CSunple2_noRW	acq23456_noRW	2	68	0	0	300	300	397	46	0	1	1	blank2r.bmp	0	1	+	0	1	blank2r.bmp	252	1	VKKV	306	1	tot	559	0	0	0	0	0	0	0	0	0	0	0	0	0	0	0	0	0	0	0	0	0	0	0	0	0	0	0	0	0	0	0	0	0	0	0	0	0	0	0
071719	16:04:11	16:10:56	404630	5.0.10.0	5_exp_noRW	66	Rpleas_acq	CS_B	BZZB	YDDY	GWWG	VKKV	MQQM	JXXJ	ehrlich	retten	spielen	treu	schön	fair	eitel	rächen	strafen	tot	schlecht	faul	47pct	acq_USunple_CSunple1_noRW	acq23456_noRW	2	69	0	0	300	300	488	46	0	1	1	blank2r.bmp	0	1	+	0	1	blank2r.bmp	252	1	GWWG	306	2	rächen	559	0	0	0	0	0	0	0	0	0	0	0	0	0	0	0	0	0	0	0	0	0	0	0	0	0	0	0	0	0	0	0	0	0	0	0	0	0	0	0
071719	16:04:11	16:10:58	406269	5.0.10.0	5_exp_noRW	66	Rpleas_acq	CS_B	BZZB	YDDY	GWWG	VKKV	MQQM	JXXJ	ehrlich	retten	spielen	treu	schön	fair	eitel	rächen	strafen	tot	schlecht	faul	47pct	acq_USpleas_CSpleas2_noRW	acq23456_noRW	2	70	0	0	300	300	455	50	0	1	1	blank2r.bmp	0	1	+	0	1	blank2r.bmp	252	1	YDDY	306	1	treu	559	0	0	0	0	0	0	0	0	0	0	0	0	0	0	0	0	0	0	0	0	0	0	0	0	0	0	0	0	0	0	0	0	0	0	0	0	0	0	0
071719	16:04:11	16:11:00	407882	5.0.10.0	5_exp_noRW	66	Rpleas_acq	CS_B	BZZB	YDDY	GWWG	VKKV	MQQM	JXXJ	ehrlich	retten	spielen	treu	schön	fair	eitel	rächen	strafen	tot	schlecht	faul	53pct	acq_USpleas_CSpleas2_noRW	acq23456_noRW	2	71	0	0	300	300	451	50	0	1	1	blank2r.bmp	0	1	+	0	1	blank2r.bmp	252	1	YDDY	306	2	schön	559	0	0	0	0	0	0	0	0	0	0	0	0	0	0	0	0	0	0	0	0	0	0	0	0	0	0	0	0	0	0	0	0	0	0	0	0	0	0	0
071719	16:04:11	16:11:01	409468	5.0.10.0	5_exp_noRW	66	Rpleas_acq	CS_B	BZZB	YDDY	GWWG	VKKV	MQQM	JXXJ	ehrlich	retten	spielen	treu	schön	fair	eitel	rächen	strafen	tot	schlecht	faul	47pct	acq_USpleas_CSpleas2_noRW	acq23456_noRW	2	72	0	0	300	300	406	50	0	1	1	blank2r.bmp	0	1	+	0	1	blank2r.bmp	252	1	YDDY	306	1	treu	559	0	0	0	0	0	0	0	0	0	0	0	0	0	0	0	0	0	0	0	0	0	0	0	0	0	0	0	0	0	0	0	0	0	0	0	0	0	0	0
071719	16:04:11	16:11:03	411121	5.0.10.0	5_exp_noRW	66	Rpleas_acq	CS_B	BZZB	YDDY	GWWG	VKKV	MQQM	JXXJ	ehrlich	retten	spielen	treu	schön	fair	eitel	rächen	strafen	tot	schlecht	faul	47pct	acq_USpleas_CSunple1_noRW	acq23456_noRW	2	73	0	0	300	300	477	50	0	1	1	blank2r.bmp	0	1	+	0	1	blank2r.bmp	252	1	GWWG	306	2	retten	559	0	0	0	0	0	0	0	0	0	0	0	0	0	0	0	0	0	0	0	0	0	0	0	0	0	0	0	0	0	0	0	0	0	0	0	0	0	0	0
071719	16:04:11	16:11:05	413040	5.0.10.0	5_exp_noRW	66	Rpleas_acq	CS_B	BZZB	YDDY	GWWG	VKKV	MQQM	JXXJ	ehrlich	retten	spielen	treu	schön	fair	eitel	rächen	strafen	tot	schlecht	faul	53pct	acq_USunple_CSpleas2_noRW	acq23456_noRW	2	74	0	0	300	300	734	46	0	1	1	blank2r.bmp	0	1	+	0	1	blank2r.bmp	252	1	YDDY	306	3	faul	559	0	0	0	0	0	0	0	0	0	0	0	0	0	0	0	0	0	0	0	0	0	0	0	0	0	0	0	0	0	0	0	0	0	0	0	0	0	0	0
071719	16:04:11	16:11:07	414919	5.0.10.0	5_exp_noRW	66	Rpleas_acq	CS_B	BZZB	YDDY	GWWG	VKKV	MQQM	JXXJ	ehrlich	retten	spielen	treu	schön	fair	eitel	rächen	strafen	tot	schlecht	faul	53pct	acq_USunple_CSunple2_noRW	acq23456_noRW	2	75	0	0	300	300	501	50	0	0	1	blank2r.bmp	0	1	+	0	1	blank2r.bmp	252	1	VKKV	306	2	schlecht	559	1	FEHLER	1092	0	0	0	0	0	0	0	0	0	0	0	0	0	0	0	0	0	0	0	0	0	0	0	0	0	0	0	0	0	0	0	0	0	0	0	0
071719	16:04:11	16:11:08	416518	5.0.10.0	5_exp_noRW	66	Rpleas_acq	CS_B	BZZB	YDDY	GWWG	VKKV	MQQM	JXXJ	ehrlich	retten	spielen	treu	schön	fair	eitel	rächen	strafen	tot	schlecht	faul	53pct	acq_USunple_CSunple1_noRW	acq23456_noRW	2	76	0	0	300	300	648	46	0	1	1	blank2r.bmp	0	1	+	0	1	blank2r.bmp	252	1	GWWG	306	1	eitel	559	0	0	0	0	0	0	0	0	0	0	0	0	0	0	0	0	0	0	0	0	0	0	0	0	0	0	0	0	0	0	0	0	0	0	0	0	0	0	0
071719	16:04:11	16:11:10	418358	5.0.10.0	5_exp_noRW	66	Rpleas_acq	CS_B	BZZB	YDDY	GWWG	VKKV	MQQM	JXXJ	ehrlich	retten	spielen	treu	schön	fair	eitel	rächen	strafen	tot	schlecht	faul	47pct	acq_USunple_CSunple1_noRW	acq23456_noRW	2	77	0	0	300	300	656	46	0	1	1	blank2r.bmp	0	1	+	0	1	blank2r.bmp	252	1	GWWG	306	3	strafen	559	0	0	0	0	0	0	0	0	0	0	0	0	0	0	0	0	0	0	0	0	0	0	0	0	0	0	0	0	0	0	0	0	0	0	0	0	0	0	0
071719	16:04:11	16:11:12	420277	5.0.10.0	5_exp_noRW	66	Rpleas_acq	CS_B	BZZB	YDDY	GWWG	VKKV	MQQM	JXXJ	ehrlich	retten	spielen	treu	schön	fair	eitel	rächen	strafen	tot	schlecht	faul	47pct	acq_USunple_CSpleas1_noRW	acq23456_noRW	2	78	0	0	300	300	752	46	0	1	1	blank2r.bmp	0	1	+	0	1	blank2r.bmp	252	1	BZZB	306	1	eitel	559	0	0	0	0	0	0	0	0	0	0	0	0	0	0	0	0	0	0	0	0	0	0	0	0	0	0	0	0	0	0	0	0	0	0	0	0	0	0	0
071719	16:04:11	16:11:14	421863	5.0.10.0	5_exp_noRW	66	Rpleas_acq	CS_B	BZZB	YDDY	GWWG	VKKV	MQQM	JXXJ	ehrlich	retten	spielen	treu	schön	fair	eitel	rächen	strafen	tot	schlecht	faul	47pct	acq_USpleas_CSpleas2_noRW	acq23456_noRW	2	79	0	0	300	300	417	50	0	1	1	blank2r.bmp	0	1	+	0	1	blank2r.bmp	252	1	YDDY	306	2	schön	559	0	0	0	0	0	0	0	0	0	0	0	0	0	0	0	0	0	0	0	0	0	0	0	0	0	0	0	0	0	0	0	0	0	0	0	0	0	0	0
071719	16:04:11	16:11:15	423662	5.0.10.0	5_exp_noRW	66	Rpleas_acq	CS_B	BZZB	YDDY	GWWG	VKKV	MQQM	JXXJ	ehrlich	retten	spielen	treu	schön	fair	eitel	rächen	strafen	tot	schlecht	faul	53pct	acq_USunple_CSunple1_noRW	acq23456_noRW	2	80	0	0	300	300	638	46	0	1	1	blank2r.bmp	0	1	+	0	1	blank2r.bmp	252	1	GWWG	306	1	eitel	559	0	0	0	0	0	0	0	0	0	0	0	0	0	0	0	0	0	0	0	0	0	0	0	0	0	0	0	0	0	0	0	0	0	0	0	0	0	0	0
071719	16:04:11	16:11:29	437683	5.0.10.0	5_exp_noRW	66	Rpleas_acq	CS_B	BZZB	YDDY	GWWG	VKKV	MQQM	JXXJ	ehrlich	retten	spielen	treu	schön	fair	eitel	rächen	strafen	tot	schlecht	faul	53pct	acq_USpleas_CSpleas1_noRW	acq23456_noRW	3	1	0	0	300	300	538	50	0	1	1	blank2r.bmp	0	1	+	0	1	blank2r.bmp	252	1	BZZB	306	3	spielen	559	0	0	0	0	0	0	0	0	0	0	0	0	0	0	0	0	0	0	0	0	0	0	0	0	0	0	0	0	0	0	0	0	0	0	0	0	0	0	0
071719	16:04:11	16:11:31	439549	5.0.10.0	5_exp_noRW	66	Rpleas_acq	CS_B	BZZB	YDDY	GWWG	VKKV	MQQM	JXXJ	ehrlich	retten	spielen	treu	schön	fair	eitel	rächen	strafen	tot	schlecht	faul	47pct	acq_USunple_CSunple2_noRW	acq23456_noRW	3	2	0	0	300	300	695	46	0	1	1	blank2r.bmp	0	1	+	0	1	blank2r.bmp	252	1	VKKV	306	3	faul	559	0	0	0	0	0	0	0	0	0	0	0	0	0	0	0	0	0	0	0	0	0	0	0	0	0	0	0	0	0	0	0	0	0	0	0	0	0	0	0
071719	16:04:11	16:11:33	441241	5.0.10.0	5_exp_noRW	66	Rpleas_acq	CS_B	BZZB	YDDY	GWWG	VKKV	MQQM	JXXJ	ehrlich	retten	spielen	treu	schön	fair	eitel	rächen	strafen	tot	schlecht	faul	53pct	acq_USunple_CSunple2_noRW	acq23456_noRW	3	3	0	0	300	300	517	46	0	1	1	blank2r.bmp	0	1	+	0	1	blank2r.bmp	252	1	VKKV	306	3	faul	559	0	0	0	0	0	0	0	0	0	0	0	0	0	0	0	0	0	0	0	0	0	0	0	0	0	0	0	0	0	0	0	0	0	0	0	0	0	0	0
071719	16:04:11	16:11:35	442934	5.0.10.0	5_exp_noRW	66	Rpleas_acq	CS_B	BZZB	YDDY	GWWG	VKKV	MQQM	JXXJ	ehrlich	retten	spielen	treu	schön	fair	eitel	rächen	strafen	tot	schlecht	faul	47pct	acq_USpleas_CSunple2_noRW	acq23456_noRW	3	4	0	0	300	300	508	50	0	1	1	blank2r.bmp	0	1	+	0	1	blank2r.bmp	252	1	VKKV	306	1	treu	559	0	0	0	0	0	0	0	0	0	0	0	0	0	0	0	0	0	0	0	0	0	0	0	0	0	0	0	0	0	0	0	0	0	0	0	0	0	0	0
071719	16:04:11	16:11:36	444560	5.0.10.0	5_exp_noRW	66	Rpleas_acq	CS_B	BZZB	YDDY	GWWG	VKKV	MQQM	JXXJ	ehrlich	retten	spielen	treu	schön	fair	eitel	rächen	strafen	tot	schlecht	faul	53pct	acq_USpleas_CSpleas2_noRW	acq23456_noRW	3	5	0	0	300	300	441	50	0	1	1	blank2r.bmp	0	1	+	0	1	blank2r.bmp	252	1	YDDY	306	3	fair	559	0	0	0	0	0	0	0	0	0	0	0	0	0	0	0	0	0	0	0	0	0	0	0	0	0	0	0	0	0	0	0	0	0	0	0	0	0	0	0
071719	16:04:11	16:11:38	446452	5.0.10.0	5_exp_noRW	66	Rpleas_acq	CS_B	BZZB	YDDY	GWWG	VKKV	MQQM	JXXJ	ehrlich	retten	spielen	treu	schön	fair	eitel	rächen	strafen	tot	schlecht	faul	53pct	acq_USpleas_CSpleas1_noRW	acq23456_noRW	3	6	0	0	300	300	705	50	0	1	1	blank2r.bmp	0	1	+	0	1	blank2r.bmp	252	1	BZZB	306	1	ehrlich	559	0	0	0	0	0	0	0	0	0	0	0	0	0	0	0	0	0	0	0	0	0	0	0	0	0	0	0	0	0	0	0	0	0	0	0	0	0	0	0
071719	16:04:11	16:11:40	448252	5.0.10.0	5_exp_noRW	66	Rpleas_acq	CS_B	BZZB	YDDY	GWWG	VKKV	MQQM	JXXJ	ehrlich	retten	spielen	treu	schön	fair	eitel	rächen	strafen	tot	schlecht	faul	53pct	acq_USpleas_CSpleas1_noRW	acq23456_noRW	3	7	0	0	300	300	637	50	0	1	1	blank2r.bmp	0	1	+	0	1	blank2r.bmp	252	1	BZZB	306	2	retten	559	0	0	0	0	0	0	0	0	0	0	0	0	0	0	0	0	0	0	0	0	0	0	0	0	0	0	0	0	0	0	0	0	0	0	0	0	0	0	0
071719	16:04:11	16:11:42	449864	5.0.10.0	5_exp_noRW	66	Rpleas_acq	CS_B	BZZB	YDDY	GWWG	VKKV	MQQM	JXXJ	ehrlich	retten	spielen	treu	schön	fair	eitel	rächen	strafen	tot	schlecht	faul	47pct	acq_USpleas_CSpleas1_noRW	acq23456_noRW	3	8	0	0	300	300	428	50	0	1	1	blank2r.bmp	0	1	+	0	1	blank2r.bmp	252	1	BZZB	306	3	spielen	559	0	0	0	0	0	0	0	0	0	0	0	0	0	0	0	0	0	0	0	0	0	0	0	0	0	0	0	0	0	0	0	0	0	0	0	0	0	0	0
071719	16:04:11	16:11:43	451397	5.0.10.0	5_exp_noRW	66	Rpleas_acq	CS_B	BZZB	YDDY	GWWG	VKKV	MQQM	JXXJ	ehrlich	retten	spielen	treu	schön	fair	eitel	rächen	strafen	tot	schlecht	faul	53pct	acq_USunple_CSunple2_noRW	acq23456_noRW	3	9	0	0	300	300	369	46	0	1	1	blank2r.bmp	0	1	+	0	1	blank2r.bmp	252	1	VKKV	306	2	schlecht	559	0	0	0	0	0	0	0	0	0	0	0	0	0	0	0	0	0	0	0	0	0	0	0	0	0	0	0	0	0	0	0	0	0	0	0	0	0	0	0
071719	16:04:11	16:11:45	453036	5.0.10.0	5_exp_noRW	66	Rpleas_acq	CS_B	BZZB	YDDY	GWWG	VKKV	MQQM	JXXJ	ehrlich	retten	spielen	treu	schön	fair	eitel	rächen	strafen	tot	schlecht	faul	47pct	acq_USpleas_CSpleas2_noRW	acq23456_noRW	3	10	0	0	300	300	462	50	0	1	1	blank2r.bmp	0	1	+	0	1	blank2r.bmp	252	1	YDDY	306	3	fair	559	0	0	0	0	0	0	0	0	0	0	0	0	0	0	0	0	0	0	0	0	0	0	0	0	0	0	0	0	0	0	0	0	0	0	0	0	0	0	0
071719	16:04:11	16:11:47	454942	5.0.10.0	5_exp_noRW	66	Rpleas_acq	CS_B	BZZB	YDDY	GWWG	VKKV	MQQM	JXXJ	ehrlich	retten	spielen	treu	schön	fair	eitel	rächen	strafen	tot	schlecht	faul	53pct	acq_USunple_CSpleas1_noRW	acq23456_noRW	3	11	0	0	300	300	506	50	0	0	1	blank2r.bmp	0	1	+	0	1	blank2r.bmp	252	1	BZZB	306	3	strafen	559	1	FEHLER	1106	0	0	0	0	0	0	0	0	0	0	0	0	0	0	0	0	0	0	0	0	0	0	0	0	0	0	0	0	0	0	0	0	0	0	0	0
071719	16:04:11	16:11:48	456582	5.0.10.0	5_exp_noRW	66	Rpleas_acq	CS_B	BZZB	YDDY	GWWG	VKKV	MQQM	JXXJ	ehrlich	retten	spielen	treu	schön	fair	eitel	rächen	strafen	tot	schlecht	faul	47pct	acq_USunple_CSpleas2_noRW	acq23456_noRW	3	12	0	0	300	300	669	46	0	1	1	blank2r.bmp	0	1	+	0	1	blank2r.bmp	252	1	YDDY	306	1	tot	559	0	0	0	0	0	0	0	0	0	0	0	0	0	0	0	0	0	0	0	0	0	0	0	0	0	0	0	0	0	0	0	0	0	0	0	0	0	0	0
071719	16:04:11	16:11:50	458394	5.0.10.0	5_exp_noRW	66	Rpleas_acq	CS_B	BZZB	YDDY	GWWG	VKKV	MQQM	JXXJ	ehrlich	retten	spielen	treu	schön	fair	eitel	rächen	strafen	tot	schlecht	faul	47pct	acq_USunple_CSunple1_noRW	acq23456_noRW	3	13	0	0	300	300	631	46	0	1	1	blank2r.bmp	0	1	+	0	1	blank2r.bmp	252	1	GWWG	306	2	rächen	559	0	0	0	0	0	0	0	0	0	0	0	0	0	0	0	0	0	0	0	0	0	0	0	0	0	0	0	0	0	0	0	0	0	0	0	0	0	0	0
071719	16:04:11	16:11:52	460726	5.0.10.0	5_exp_noRW	66	Rpleas_acq	CS_B	BZZB	YDDY	GWWG	VKKV	MQQM	JXXJ	ehrlich	retten	spielen	treu	schön	fair	eitel	rächen	strafen	tot	schlecht	faul	47pct	acq_USunple_CSunple1_noRW	acq23456_noRW	3	14	0	0	300	300	1148	46	0	1	1	blank2r.bmp	0	1	+	0	1	blank2r.bmp	252	1	GWWG	306	2	rächen	559	0	0	0	0	0	0	0	0	0	0	0	0	0	0	0	0	0	0	0	0	0	0	0	0	0	0	0	0	0	0	0	0	0	0	0	0	0	0	0
071719	16:04:11	16:11:54	462459	5.0.10.0	5_exp_noRW	66	Rpleas_acq	CS_B	BZZB	YDDY	GWWG	VKKV	MQQM	JXXJ	ehrlich	retten	spielen	treu	schön	fair	eitel	rächen	strafen	tot	schlecht	faul	53pct	acq_USpleas_CSunple1_noRW	acq23456_noRW	3	15	0	0	300	300	558	50	0	1	1	blank2r.bmp	0	1	+	0	1	blank2r.bmp	252	1	GWWG	306	1	ehrlich	559	0	0	0	0	0	0	0	0	0	0	0	0	0	0	0	0	0	0	0	0	0	0	0	0	0	0	0	0	0	0	0	0	0	0	0	0	0	0	0
071719	16:04:11	16:11:56	464245	5.0.10.0	5_exp_noRW	66	Rpleas_acq	CS_B	BZZB	YDDY	GWWG	VKKV	MQQM	JXXJ	ehrlich	retten	spielen	treu	schön	fair	eitel	rächen	strafen	tot	schlecht	faul	47pct	acq_USunple_CSunple1_noRW	acq23456_noRW	3	16	0	0	300	300	618	46	0	1	1	blank2r.bmp	0	1	+	0	1	blank2r.bmp	252	1	GWWG	306	3	strafen	559	0	0	0	0	0	0	0	0	0	0	0	0	0	0	0	0	0	0	0	0	0	0	0	0	0	0	0	0	0	0	0	0	0	0	0	0	0	0	0
071719	16:04:11	16:11:58	465951	5.0.10.0	5_exp_noRW	66	Rpleas_acq	CS_B	BZZB	YDDY	GWWG	VKKV	MQQM	JXXJ	ehrlich	retten	spielen	treu	schön	fair	eitel	rächen	strafen	tot	schlecht	faul	53pct	acq_USunple_CSunple2_noRW	acq23456_noRW	3	17	0	0	300	300	526	46	0	1	1	blank2r.bmp	0	1	+	0	1	blank2r.bmp	252	1	VKKV	306	1	tot	559	0	0	0	0	0	0	0	0	0	0	0	0	0	0	0	0	0	0	0	0	0	0	0	0	0	0	0	0	0	0	0	0	0	0	0	0	0	0	0
071719	16:04:11	16:12:00	467870	5.0.10.0	5_exp_noRW	66	Rpleas_acq	CS_B	BZZB	YDDY	GWWG	VKKV	MQQM	JXXJ	ehrlich	retten	spielen	treu	schön	fair	eitel	rächen	strafen	tot	schlecht	faul	47pct	acq_USunple_CSunple1_noRW	acq23456_noRW	3	18	0	0	300	300	756	46	0	1	1	blank2r.bmp	0	1	+	0	1	blank2r.bmp	252	1	GWWG	306	1	eitel	559	0	0	0	0	0	0	0	0	0	0	0	0	0	0	0	0	0	0	0	0	0	0	0	0	0	0	0	0	0	0	0	0	0	0	0	0	0	0	0
071719	16:04:11	16:12:01	469629	5.0.10.0	5_exp_noRW	66	Rpleas_acq	CS_B	BZZB	YDDY	GWWG	VKKV	MQQM	JXXJ	ehrlich	retten	spielen	treu	schön	fair	eitel	rächen	strafen	tot	schlecht	faul	47pct	acq_USpleas_CSpleas2_noRW	acq23456_noRW	3	19	0	0	300	300	584	50	0	1	1	blank2r.bmp	0	1	+	0	1	blank2r.bmp	252	1	YDDY	306	1	treu	559	0	0	0	0	0	0	0	0	0	0	0	0	0	0	0	0	0	0	0	0	0	0	0	0	0	0	0	0	0	0	0	0	0	0	0	0	0	0	0
071719	16:04:11	16:12:03	471242	5.0.10.0	5_exp_noRW	66	Rpleas_acq	CS_B	BZZB	YDDY	GWWG	VKKV	MQQM	JXXJ	ehrlich	retten	spielen	treu	schön	fair	eitel	rächen	strafen	tot	schlecht	faul	53pct	acq_USpleas_CSpleas2_noRW	acq23456_noRW	3	20	0	0	300	300	446	50	0	1	1	blank2r.bmp	0	1	+	0	1	blank2r.bmp	252	1	YDDY	306	2	schön	559	0	0	0	0	0	0	0	0	0	0	0	0	0	0	0	0	0	0	0	0	0	0	0	0	0	0	0	0	0	0	0	0	0	0	0	0	0	0	0
071719	16:04:11	16:12:05	472841	5.0.10.0	5_exp_noRW	66	Rpleas_acq	CS_B	BZZB	YDDY	GWWG	VKKV	MQQM	JXXJ	ehrlich	retten	spielen	treu	schön	fair	eitel	rächen	strafen	tot	schlecht	faul	47pct	acq_USunple_CSunple2_noRW	acq23456_noRW	3	21	0	0	300	300	424	46	0	1	1	blank2r.bmp	0	1	+	0	1	blank2r.bmp	252	1	VKKV	306	1	tot	559	0	0	0	0	0	0	0	0	0	0	0	0	0	0	0	0	0	0	0	0	0	0	0	0	0	0	0	0	0	0	0	0	0	0	0	0	0	0	0
071719	16:04:11	16:12:06	474707	5.0.10.0	5_exp_noRW	66	Rpleas_acq	CS_B	BZZB	YDDY	GWWG	VKKV	MQQM	JXXJ	ehrlich	retten	spielen	treu	schön	fair	eitel	rächen	strafen	tot	schlecht	faul	47pct	acq_USpleas_CSpleas2_noRW	acq23456_noRW	3	22	0	0	300	300	685	50	0	1	1	blank2r.bmp	0	1	+	0	1	blank2r.bmp	252	1	YDDY	306	1	treu	559	0	0	0	0	0	0	0	0	0	0	0	0	0	0	0	0	0	0	0	0	0	0	0	0	0	0	0	0	0	0	0	0	0	0	0	0	0	0	0
071719	16:04:11	16:12:08	476480	5.0.10.0	5_exp_noRW	66	Rpleas_acq	CS_B	BZZB	YDDY	GWWG	VKKV	MQQM	JXXJ	ehrlich	retten	spielen	treu	schön	fair	eitel	rächen	strafen	tot	schlecht	faul	47pct	acq_USunple_CSunple1_noRW	acq23456_noRW	3	23	0	0	300	300	589	46	0	1	1	blank2r.bmp	0	1	+	0	1	blank2r.bmp	252	1	GWWG	306	2	rächen	559	0	0	0	0	0	0	0	0	0	0	0	0	0	0	0	0	0	0	0	0	0	0	0	0	0	0	0	0	0	0	0	0	0	0	0	0	0	0	0
071719	16:04:11	16:12:10	478253	5.0.10.0	5_exp_noRW	66	Rpleas_acq	CS_B	BZZB	YDDY	GWWG	VKKV	MQQM	JXXJ	ehrlich	retten	spielen	treu	schön	fair	eitel	rächen	strafen	tot	schlecht	faul	47pct	acq_USunple_CSpleas1_noRW	acq23456_noRW	3	24	0	0	300	300	606	46	0	1	1	blank2r.bmp	0	1	+	0	1	blank2r.bmp	252	1	BZZB	306	3	strafen	559	0	0	0	0	0	0	0	0	0	0	0	0	0	0	0	0	0	0	0	0	0	0	0	0	0	0	0	0	0	0	0	0	0	0	0	0	0	0	0
071719	16:04:11	16:12:12	480158	5.0.10.0	5_exp_noRW	66	Rpleas_acq	CS_B	BZZB	YDDY	GWWG	VKKV	MQQM	JXXJ	ehrlich	retten	spielen	treu	schön	fair	eitel	rächen	strafen	tot	schlecht	faul	47pct	acq_USpleas_CSpleas1_noRW	acq23456_noRW	3	25	0	0	300	300	719	50	0	1	1	blank2r.bmp	0	1	+	0	1	blank2r.bmp	252	1	BZZB	306	2	retten	559	0	0	0	0	0	0	0	0	0	0	0	0	0	0	0	0	0	0	0	0	0	0	0	0	0	0	0	0	0	0	0	0	0	0	0	0	0	0	0
071719	16:04:11	16:12:13	481838	5.0.10.0	5_exp_noRW	66	Rpleas_acq	CS_B	BZZB	YDDY	GWWG	VKKV	MQQM	JXXJ	ehrlich	retten	spielen	treu	schön	fair	eitel	rächen	strafen	tot	schlecht	faul	53pct	acq_USpleas_CSpleas1_noRW	acq23456_noRW	3	26	0	0	300	300	501	50	0	1	1	blank2r.bmp	0	1	+	0	1	blank2r.bmp	252	1	BZZB	306	1	ehrlich	559	0	0	0	0	0	0	0	0	0	0	0	0	0	0	0	0	0	0	0	0	0	0	0	0	0	0	0	0	0	0	0	0	0	0	0	0	0	0	0
071719	16:04:11	16:12:15	483464	5.0.10.0	5_exp_noRW	66	Rpleas_acq	CS_B	BZZB	YDDY	GWWG	VKKV	MQQM	JXXJ	ehrlich	retten	spielen	treu	schön	fair	eitel	rächen	strafen	tot	schlecht	faul	47pct	acq_USpleas_CSpleas2_noRW	acq23456_noRW	3	27	0	0	300	300	449	50	0	1	1	blank2r.bmp	0	1	+	0	1	blank2r.bmp	252	1	YDDY	306	2	schön	559	0	0	0	0	0	0	0	0	0	0	0	0	0	0	0	0	0	0	0	0	0	0	0	0	0	0	0	0	0	0	0	0	0	0	0	0	0	0	0
071719	16:04:11	16:12:17	485156	5.0.10.0	5_exp_noRW	66	Rpleas_acq	CS_B	BZZB	YDDY	GWWG	VKKV	MQQM	JXXJ	ehrlich	retten	spielen	treu	schön	fair	eitel	rächen	strafen	tot	schlecht	faul	53pct	acq_USpleas_CSpleas2_noRW	acq23456_noRW	3	28	0	0	300	300	509	50	0	1	1	blank2r.bmp	0	1	+	0	1	blank2r.bmp	252	1	YDDY	306	3	fair	559	0	0	0	0	0	0	0	0	0	0	0	0	0	0	0	0	0	0	0	0	0	0	0	0	0	0	0	0	0	0	0	0	0	0	0	0	0	0	0
071719	16:04:11	16:12:18	486782	5.0.10.0	5_exp_noRW	66	Rpleas_acq	CS_B	BZZB	YDDY	GWWG	VKKV	MQQM	JXXJ	ehrlich	retten	spielen	treu	schön	fair	eitel	rächen	strafen	tot	schlecht	faul	53pct	acq_USpleas_CSpleas1_noRW	acq23456_noRW	3	29	0	0	300	300	462	50	0	1	1	blank2r.bmp	0	1	+	0	1	blank2r.bmp	252	1	BZZB	306	3	spielen	559	0	0	0	0	0	0	0	0	0	0	0	0	0	0	0	0	0	0	0	0	0	0	0	0	0	0	0	0	0	0	0	0	0	0	0	0	0	0	0
071719	16:04:11	16:12:20	488355	5.0.10.0	5_exp_noRW	66	Rpleas_acq	CS_B	BZZB	YDDY	GWWG	VKKV	MQQM	JXXJ	ehrlich	retten	spielen	treu	schön	fair	eitel	rächen	strafen	tot	schlecht	faul	53pct	acq_USpleas_CSunple1_noRW	acq23456_noRW	3	30	0	0	300	300	387	50	0	1	1	blank2r.bmp	0	1	+	0	1	blank2r.bmp	252	1	GWWG	306	1	ehrlich	559	0	0	0	0	0	0	0	0	0	0	0	0	0	0	0	0	0	0	0	0	0	0	0	0	0	0	0	0	0	0	0	0	0	0	0	0	0	0	0
071719	16:04:11	16:12:22	489954	5.0.10.0	5_exp_noRW	66	Rpleas_acq	CS_B	BZZB	YDDY	GWWG	VKKV	MQQM	JXXJ	ehrlich	retten	spielen	treu	schön	fair	eitel	rächen	strafen	tot	schlecht	faul	47pct	acq_USunple_CSunple2_noRW	acq23456_noRW	3	31	0	0	300	300	431	46	0	1	1	blank2r.bmp	0	1	+	0	1	blank2r.bmp	252	1	VKKV	306	2	schlecht	559	0	0	0	0	0	0	0	0	0	0	0	0	0	0	0	0	0	0	0	0	0	0	0	0	0	0	0	0	0	0	0	0	0	0	0	0	0	0	0
071719	16:04:11	16:12:23	491674	5.0.10.0	5_exp_noRW	66	Rpleas_acq	CS_B	BZZB	YDDY	GWWG	VKKV	MQQM	JXXJ	ehrlich	retten	spielen	treu	schön	fair	eitel	rächen	strafen	tot	schlecht	faul	47pct	acq_USunple_CSunple1_noRW	acq23456_noRW	3	32	0	0	300	300	537	46	0	1	1	blank2r.bmp	0	1	+	0	1	blank2r.bmp	252	1	GWWG	306	3	strafen	559	0	0	0	0	0	0	0	0	0	0	0	0	0	0	0	0	0	0	0	0	0	0	0	0	0	0	0	0	0	0	0	0	0	0	0	0	0	0	0
071719	16:04:11	16:12:25	493366	5.0.10.0	5_exp_noRW	66	Rpleas_acq	CS_B	BZZB	YDDY	GWWG	VKKV	MQQM	JXXJ	ehrlich	retten	spielen	treu	schön	fair	eitel	rächen	strafen	tot	schlecht	faul	47pct	acq_USunple_CSunple2_noRW	acq23456_noRW	3	33	0	0	300	300	526	46	0	1	1	blank2r.bmp	0	1	+	0	1	blank2r.bmp	252	1	VKKV	306	3	faul	559	0	0	0	0	0	0	0	0	0	0	0	0	0	0	0	0	0	0	0	0	0	0	0	0	0	0	0	0	0	0	0	0	0	0	0	0	0	0	0
071719	16:04:11	16:12:27	495072	5.0.10.0	5_exp_noRW	66	Rpleas_acq	CS_B	BZZB	YDDY	GWWG	VKKV	MQQM	JXXJ	ehrlich	retten	spielen	treu	schön	fair	eitel	rächen	strafen	tot	schlecht	faul	53pct	acq_USunple_CSpleas2_noRW	acq23456_noRW	3	34	0	0	300	300	531	46	0	1	1	blank2r.bmp	0	1	+	0	1	blank2r.bmp	252	1	YDDY	306	2	schlecht	559	0	0	0	0	0	0	0	0	0	0	0	0	0	0	0	0	0	0	0	0	0	0	0	0	0	0	0	0	0	0	0	0	0	0	0	0	0	0	0
071719	16:04:11	16:12:28	496698	5.0.10.0	5_exp_noRW	66	Rpleas_acq	CS_B	BZZB	YDDY	GWWG	VKKV	MQQM	JXXJ	ehrlich	retten	spielen	treu	schön	fair	eitel	rächen	strafen	tot	schlecht	faul	47pct	acq_USpleas_CSpleas1_noRW	acq23456_noRW	3	35	0	0	300	300	441	50	0	1	1	blank2r.bmp	0	1	+	0	1	blank2r.bmp	252	1	BZZB	306	1	ehrlich	559	0	0	0	0	0	0	0	0	0	0	0	0	0	0	0	0	0	0	0	0	0	0	0	0	0	0	0	0	0	0	0	0	0	0	0	0	0	0	0
071719	16:04:11	16:12:30	498297	5.0.10.0	5_exp_noRW	66	Rpleas_acq	CS_B	BZZB	YDDY	GWWG	VKKV	MQQM	JXXJ	ehrlich	retten	spielen	treu	schön	fair	eitel	rächen	strafen	tot	schlecht	faul	47pct	acq_USunple_CSunple2_noRW	acq23456_noRW	3	36	0	0	300	300	438	46	0	1	1	blank2r.bmp	0	1	+	0	1	blank2r.bmp	252	1	VKKV	306	1	tot	559	0	0	0	0	0	0	0	0	0	0	0	0	0	0	0	0	0	0	0	0	0	0	0	0	0	0	0	0	0	0	0	0	0	0	0	0	0	0	0
071719	16:04:11	16:12:32	500017	5.0.10.0	5_exp_noRW	66	Rpleas_acq	CS_B	BZZB	YDDY	GWWG	VKKV	MQQM	JXXJ	ehrlich	retten	spielen	treu	schön	fair	eitel	rächen	strafen	tot	schlecht	faul	53pct	acq_USpleas_CSpleas2_noRW	acq23456_noRW	3	37	0	0	300	300	544	50	0	1	1	blank2r.bmp	0	1	+	0	1	blank2r.bmp	252	1	YDDY	306	3	fair	559	0	0	0	0	0	0	0	0	0	0	0	0	0	0	0	0	0	0	0	0	0	0	0	0	0	0	0	0	0	0	0	0	0	0	0	0	0	0	0
071719	16:04:11	16:12:33	501616	5.0.10.0	5_exp_noRW	66	Rpleas_acq	CS_B	BZZB	YDDY	GWWG	VKKV	MQQM	JXXJ	ehrlich	retten	spielen	treu	schön	fair	eitel	rächen	strafen	tot	schlecht	faul	47pct	acq_USpleas_CSunple2_noRW	acq23456_noRW	3	38	0	0	300	300	412	50	0	1	1	blank2r.bmp	0	1	+	0	1	blank2r.bmp	252	1	VKKV	306	3	fair	559	0	0	0	0	0	0	0	0	0	0	0	0	0	0	0	0	0	0	0	0	0	0	0	0	0	0	0	0	0	0	0	0	0	0	0	0	0	0	0
071719	16:04:11	16:12:35	503322	5.0.10.0	5_exp_noRW	66	Rpleas_acq	CS_B	BZZB	YDDY	GWWG	VKKV	MQQM	JXXJ	ehrlich	retten	spielen	treu	schön	fair	eitel	rächen	strafen	tot	schlecht	faul	53pct	acq_USunple_CSunple1_noRW	acq23456_noRW	3	39	0	0	300	300	532	46	0	1	1	blank2r.bmp	0	1	+	0	1	blank2r.bmp	252	1	GWWG	306	1	eitel	559	0	0	0	0	0	0	0	0	0	0	0	0	0	0	0	0	0	0	0	0	0	0	0	0	0	0	0	0	0	0	0	0	0	0	0	0	0	0	0
071719	16:04:11	16:12:37	505028	5.0.10.0	5_exp_noRW	66	Rpleas_acq	CS_B	BZZB	YDDY	GWWG	VKKV	MQQM	JXXJ	ehrlich	retten	spielen	treu	schön	fair	eitel	rächen	strafen	tot	schlecht	faul	53pct	acq_USunple_CSunple1_noRW	acq23456_noRW	3	40	0	0	300	300	536	46	0	1	1	blank2r.bmp	0	1	+	0	1	blank2r.bmp	252	1	GWWG	306	1	eitel	559	0	0	0	0	0	0	0	0	0	0	0	0	0	0	0	0	0	0	0	0	0	0	0	0	0	0	0	0	0	0	0	0	0	0	0	0	0	0	0
071719	16:04:11	16:12:38	506601	5.0.10.0	5_exp_noRW	66	Rpleas_acq	CS_B	BZZB	YDDY	GWWG	VKKV	MQQM	JXXJ	ehrlich	retten	spielen	treu	schön	fair	eitel	rächen	strafen	tot	schlecht	faul	53pct	acq_USpleas_CSunple2_noRW	acq23456_noRW	3	41	0	0	300	300	407	50	0	1	1	blank2r.bmp	0	1	+	0	1	blank2r.bmp	252	1	VKKV	306	2	schön	559	0	0	0	0	0	0	0	0	0	0	0	0	0	0	0	0	0	0	0	0	0	0	0	0	0	0	0	0	0	0	0	0	0	0	0	0	0	0	0
071719	16:04:11	16:12:40	508267	5.0.10.0	5_exp_noRW	66	Rpleas_acq	CS_B	BZZB	YDDY	GWWG	VKKV	MQQM	JXXJ	ehrlich	retten	spielen	treu	schön	fair	eitel	rächen	strafen	tot	schlecht	faul	53pct	acq_USunple_CSunple1_noRW	acq23456_noRW	3	42	0	0	300	300	484	46	0	1	1	blank2r.bmp	0	1	+	0	1	blank2r.bmp	252	1	GWWG	306	3	strafen	559	0	0	0	0	0	0	0	0	0	0	0	0	0	0	0	0	0	0	0	0	0	0	0	0	0	0	0	0	0	0	0	0	0	0	0	0	0	0	0
071719	16:04:11	16:12:42	509919	5.0.10.0	5_exp_noRW	66	Rpleas_acq	CS_B	BZZB	YDDY	GWWG	VKKV	MQQM	JXXJ	ehrlich	retten	spielen	treu	schön	fair	eitel	rächen	strafen	tot	schlecht	faul	53pct	acq_USpleas_CSpleas2_noRW	acq23456_noRW	3	43	0	0	300	300	473	50	0	1	1	blank2r.bmp	0	1	+	0	1	blank2r.bmp	252	1	YDDY	306	2	schön	559	0	0	0	0	0	0	0	0	0	0	0	0	0	0	0	0	0	0	0	0	0	0	0	0	0	0	0	0	0	0	0	0	0	0	0	0	0	0	0
071719	16:04:11	16:12:43	511679	5.0.10.0	5_exp_noRW	66	Rpleas_acq	CS_B	BZZB	YDDY	GWWG	VKKV	MQQM	JXXJ	ehrlich	retten	spielen	treu	schön	fair	eitel	rächen	strafen	tot	schlecht	faul	47pct	acq_USunple_CSunple2_noRW	acq23456_noRW	3	44	0	0	300	300	584	46	0	1	1	blank2r.bmp	0	1	+	0	1	blank2r.bmp	252	1	VKKV	306	3	faul	559	0	0	0	0	0	0	0	0	0	0	0	0	0	0	0	0	0	0	0	0	0	0	0	0	0	0	0	0	0	0	0	0	0	0	0	0	0	0	0
071719	16:04:11	16:12:45	513411	5.0.10.0	5_exp_noRW	66	Rpleas_acq	CS_B	BZZB	YDDY	GWWG	VKKV	MQQM	JXXJ	ehrlich	retten	spielen	treu	schön	fair	eitel	rächen	strafen	tot	schlecht	faul	47pct	acq_USunple_CSpleas2_noRW	acq23456_noRW	3	45	0	0	300	300	336	50	0	0	1	blank2r.bmp	0	1	+	0	1	blank2r.bmp	252	1	YDDY	306	3	faul	559	1	FEHLER	932	0	0	0	0	0	0	0	0	0	0	0	0	0	0	0	0	0	0	0	0	0	0	0	0	0	0	0	0	0	0	0	0	0	0	0	0
071719	16:04:11	16:12:46	514784	5.0.10.0	5_exp_noRW	66	Rpleas_acq	CS_B	BZZB	YDDY	GWWG	VKKV	MQQM	JXXJ	ehrlich	retten	spielen	treu	schön	fair	eitel	rächen	strafen	tot	schlecht	faul	53pct	acq_USpleas_CSpleas1_noRW	acq23456_noRW	3	46	0	0	300	300	400	50	0	1	1	blank2r.bmp	0	1	+	0	1	blank2r.bmp	252	1	BZZB	306	3	spielen	559	0	0	0	0	0	0	0	0	0	0	0	0	0	0	0	0	0	0	0	0	0	0	0	0	0	0	0	0	0	0	0	0	0	0	0	0	0	0	0
071719	16:04:11	16:12:48	516490	5.0.10.0	5_exp_noRW	66	Rpleas_acq	CS_B	BZZB	YDDY	GWWG	VKKV	MQQM	JXXJ	ehrlich	retten	spielen	treu	schön	fair	eitel	rächen	strafen	tot	schlecht	faul	47pct	acq_USunple_CSunple2_noRW	acq23456_noRW	3	47	0	0	300	300	540	46	0	1	1	blank2r.bmp	0	1	+	0	1	blank2r.bmp	252	1	VKKV	306	2	schlecht	559	0	0	0	0	0	0	0	0	0	0	0	0	0	0	0	0	0	0	0	0	0	0	0	0	0	0	0	0	0	0	0	0	0	0	0	0	0	0	0
071719	16:04:11	16:12:50	518129	5.0.10.0	5_exp_noRW	66	Rpleas_acq	CS_B	BZZB	YDDY	GWWG	VKKV	MQQM	JXXJ	ehrlich	retten	spielen	treu	schön	fair	eitel	rächen	strafen	tot	schlecht	faul	53pct	acq_USunple_CSunple2_noRW	acq23456_noRW	3	48	0	0	300	300	452	46	0	1	1	blank2r.bmp	0	1	+	0	1	blank2r.bmp	252	1	VKKV	306	1	tot	559	0	0	0	0	0	0	0	0	0	0	0	0	0	0	0	0	0	0	0	0	0	0	0	0	0	0	0	0	0	0	0	0	0	0	0	0	0	0	0
071719	16:04:11	16:12:52	519848	5.0.10.0	5_exp_noRW	66	Rpleas_acq	CS_B	BZZB	YDDY	GWWG	VKKV	MQQM	JXXJ	ehrlich	retten	spielen	treu	schön	fair	eitel	rächen	strafen	tot	schlecht	faul	53pct	acq_USunple_CSunple1_noRW	acq23456_noRW	3	49	0	0	300	300	549	46	0	1	1	blank2r.bmp	0	1	+	0	1	blank2r.bmp	252	1	GWWG	306	2	rächen	559	0	0	0	0	0	0	0	0	0	0	0	0	0	0	0	0	0	0	0	0	0	0	0	0	0	0	0	0	0	0	0	0	0	0	0	0	0	0	0
071719	16:04:11	16:12:53	521541	5.0.10.0	5_exp_noRW	66	Rpleas_acq	CS_B	BZZB	YDDY	GWWG	VKKV	MQQM	JXXJ	ehrlich	retten	spielen	treu	schön	fair	eitel	rächen	strafen	tot	schlecht	faul	53pct	acq_USunple_CSunple2_noRW	acq23456_noRW	3	50	0	0	300	300	521	46	0	1	1	blank2r.bmp	0	1	+	0	1	blank2r.bmp	252	1	VKKV	306	2	schlecht	559	0	0	0	0	0	0	0	0	0	0	0	0	0	0	0	0	0	0	0	0	0	0	0	0	0	0	0	0	0	0	0	0	0	0	0	0	0	0	0
071719	16:04:11	16:12:55	523300	5.0.10.0	5_exp_noRW	66	Rpleas_acq	CS_B	BZZB	YDDY	GWWG	VKKV	MQQM	JXXJ	ehrlich	retten	spielen	treu	schön	fair	eitel	rächen	strafen	tot	schlecht	faul	47pct	acq_USpleas_CSpleas2_noRW	acq23456_noRW	3	51	0	0	300	300	594	50	0	1	1	blank2r.bmp	0	1	+	0	1	blank2r.bmp	252	1	YDDY	306	1	treu	559	0	0	0	0	0	0	0	0	0	0	0	0	0	0	0	0	0	0	0	0	0	0	0	0	0	0	0	0	0	0	0	0	0	0	0	0	0	0	0
071719	16:04:11	16:12:57	525073	5.0.10.0	5_exp_noRW	66	Rpleas_acq	CS_B	BZZB	YDDY	GWWG	VKKV	MQQM	JXXJ	ehrlich	retten	spielen	treu	schön	fair	eitel	rächen	strafen	tot	schlecht	faul	53pct	acq_USpleas_CSpleas1_noRW	acq23456_noRW	3	52	0	0	300	300	587	50	0	1	1	blank2r.bmp	0	1	+	0	1	blank2r.bmp	252	1	BZZB	306	2	retten	559	0	0	0	0	0	0	0	0	0	0	0	0	0	0	0	0	0	0	0	0	0	0	0	0	0	0	0	0	0	0	0	0	0	0	0	0	0	0	0
071719	16:04:11	16:12:58	526819	5.0.10.0	5_exp_noRW	66	Rpleas_acq	CS_B	BZZB	YDDY	GWWG	VKKV	MQQM	JXXJ	ehrlich	retten	spielen	treu	schön	fair	eitel	rächen	strafen	tot	schlecht	faul	47pct	acq_USunple_CSpleas1_noRW	acq23456_noRW	3	53	0	0	300	300	582	46	0	1	1	blank2r.bmp	0	1	+	0	1	blank2r.bmp	252	1	BZZB	306	2	rächen	559	0	0	0	0	0	0	0	0	0	0	0	0	0	0	0	0	0	0	0	0	0	0	0	0	0	0	0	0	0	0	0	0	0	0	0	0	0	0	0
071719	16:04:11	16:13:00	528405	5.0.10.0	5_exp_noRW	66	Rpleas_acq	CS_B	BZZB	YDDY	GWWG	VKKV	MQQM	JXXJ	ehrlich	retten	spielen	treu	schön	fair	eitel	rächen	strafen	tot	schlecht	faul	53pct	acq_USpleas_CSpleas2_noRW	acq23456_noRW	3	54	0	0	300	300	422	50	0	1	1	blank2r.bmp	0	1	+	0	1	blank2r.bmp	252	1	YDDY	306	3	fair	559	0	0	0	0	0	0	0	0	0	0	0	0	0	0	0	0	0	0	0	0	0	0	0	0	0	0	0	0	0	0	0	0	0	0	0	0	0	0	0
071719	16:04:11	16:13:02	530497	5.0.10.0	5_exp_noRW	66	Rpleas_acq	CS_B	BZZB	YDDY	GWWG	VKKV	MQQM	JXXJ	ehrlich	retten	spielen	treu	schön	fair	eitel	rächen	strafen	tot	schlecht	faul	53pct	acq_USunple_CSunple1_noRW	acq23456_noRW	3	55	0	0	300	300	910	46	0	1	1	blank2r.bmp	0	1	+	0	1	blank2r.bmp	252	1	GWWG	306	3	strafen	559	0	0	0	0	0	0	0	0	0	0	0	0	0	0	0	0	0	0	0	0	0	0	0	0	0	0	0	0	0	0	0	0	0	0	0	0	0	0	0
071719	16:04:11	16:13:04	532417	5.0.10.0	5_exp_noRW	66	Rpleas_acq	CS_B	BZZB	YDDY	GWWG	VKKV	MQQM	JXXJ	ehrlich	retten	spielen	treu	schön	fair	eitel	rächen	strafen	tot	schlecht	faul	53pct	acq_USpleas_CSpleas2_noRW	acq23456_noRW	3	56	0	0	300	300	741	50	0	1	1	blank2r.bmp	0	1	+	0	1	blank2r.bmp	252	1	YDDY	306	2	schön	559	0	0	0	0	0	0	0	0	0	0	0	0	0	0	0	0	0	0	0	0	0	0	0	0	0	0	0	0	0	0	0	0	0	0	0	0	0	0	0
071719	16:04:11	16:13:06	534282	5.0.10.0	5_exp_noRW	66	Rpleas_acq	CS_B	BZZB	YDDY	GWWG	VKKV	MQQM	JXXJ	ehrlich	retten	spielen	treu	schön	fair	eitel	rächen	strafen	tot	schlecht	faul	53pct	acq_USpleas_CSunple1_noRW	acq23456_noRW	3	57	0	0	300	300	468	46	0	0	1	blank2r.bmp	0	1	+	0	1	blank2r.bmp	252	1	GWWG	306	2	retten	559	1	FEHLER	1066	0	0	0	0	0	0	0	0	0	0	0	0	0	0	0	0	0	0	0	0	0	0	0	0	0	0	0	0	0	0	0	0	0	0	0	0
071719	16:04:11	16:13:08	535922	5.0.10.0	5_exp_noRW	66	Rpleas_acq	CS_B	BZZB	YDDY	GWWG	VKKV	MQQM	JXXJ	ehrlich	retten	spielen	treu	schön	fair	eitel	rächen	strafen	tot	schlecht	faul	53pct	acq_USunple_CSunple1_noRW	acq23456_noRW	3	58	0	0	300	300	666	46	0	1	1	blank2r.bmp	0	1	+	0	1	blank2r.bmp	252	1	GWWG	306	1	eitel	559	0	0	0	0	0	0	0	0	0	0	0	0	0	0	0	0	0	0	0	0	0	0	0	0	0	0	0	0	0	0	0	0	0	0	0	0	0	0	0
071719	16:04:11	16:13:09	537814	5.0.10.0	5_exp_noRW	66	Rpleas_acq	CS_B	BZZB	YDDY	GWWG	VKKV	MQQM	JXXJ	ehrlich	retten	spielen	treu	schön	fair	eitel	rächen	strafen	tot	schlecht	faul	53pct	acq_USpleas_CSpleas1_noRW	acq23456_noRW	3	59	0	0	300	300	719	50	0	1	1	blank2r.bmp	0	1	+	0	1	blank2r.bmp	252	1	BZZB	306	2	retten	559	0	0	0	0	0	0	0	0	0	0	0	0	0	0	0	0	0	0	0	0	0	0	0	0	0	0	0	0	0	0	0	0	0	0	0	0	0	0	0
071719	16:04:11	16:13:11	539440	5.0.10.0	5_exp_noRW	66	Rpleas_acq	CS_B	BZZB	YDDY	GWWG	VKKV	MQQM	JXXJ	ehrlich	retten	spielen	treu	schön	fair	eitel	rächen	strafen	tot	schlecht	faul	53pct	acq_USpleas_CSpleas1_noRW	acq23456_noRW	3	60	0	0	300	300	451	50	0	1	1	blank2r.bmp	0	1	+	0	1	blank2r.bmp	252	1	BZZB	306	1	ehrlich	559	0	0	0	0	0	0	0	0	0	0	0	0	0	0	0	0	0	0	0	0	0	0	0	0	0	0	0	0	0	0	0	0	0	0	0	0	0	0	0
071719	16:04:11	16:13:13	541160	5.0.10.0	5_exp_noRW	66	Rpleas_acq	CS_B	BZZB	YDDY	GWWG	VKKV	MQQM	JXXJ	ehrlich	retten	spielen	treu	schön	fair	eitel	rächen	strafen	tot	schlecht	faul	47pct	acq_USpleas_CSpleas2_noRW	acq23456_noRW	3	61	0	0	300	300	520	50	0	1	1	blank2r.bmp	0	1	+	0	1	blank2r.bmp	252	1	YDDY	306	1	treu	559	0	0	0	0	0	0	0	0	0	0	0	0	0	0	0	0	0	0	0	0	0	0	0	0	0	0	0	0	0	0	0	0	0	0	0	0	0	0	0
071719	16:04:11	16:13:14	542759	5.0.10.0	5_exp_noRW	66	Rpleas_acq	CS_B	BZZB	YDDY	GWWG	VKKV	MQQM	JXXJ	ehrlich	retten	spielen	treu	schön	fair	eitel	rächen	strafen	tot	schlecht	faul	53pct	acq_USpleas_CSpleas2_noRW	acq23456_noRW	3	62	0	0	300	300	431	50	0	1	1	blank2r.bmp	0	1	+	0	1	blank2r.bmp	252	1	YDDY	306	2	schön	559	0	0	0	0	0	0	0	0	0	0	0	0	0	0	0	0	0	0	0	0	0	0	0	0	0	0	0	0	0	0	0	0	0	0	0	0	0	0	0
071719	16:04:11	16:13:16	544372	5.0.10.0	5_exp_noRW	66	Rpleas_acq	CS_B	BZZB	YDDY	GWWG	VKKV	MQQM	JXXJ	ehrlich	retten	spielen	treu	schön	fair	eitel	rächen	strafen	tot	schlecht	faul	53pct	acq_USpleas_CSunple1_noRW	acq23456_noRW	3	63	0	0	300	300	428	50	0	1	1	blank2r.bmp	0	1	+	0	1	blank2r.bmp	252	1	GWWG	306	3	spielen	559	0	0	0	0	0	0	0	0	0	0	0	0	0	0	0	0	0	0	0	0	0	0	0	0	0	0	0	0	0	0	0	0	0	0	0	0	0	0	0
071719	16:04:11	16:13:18	546024	5.0.10.0	5_exp_noRW	66	Rpleas_acq	CS_B	BZZB	YDDY	GWWG	VKKV	MQQM	JXXJ	ehrlich	retten	spielen	treu	schön	fair	eitel	rächen	strafen	tot	schlecht	faul	53pct	acq_USunple_CSunple1_noRW	acq23456_noRW	3	64	0	0	300	300	480	46	0	1	1	blank2r.bmp	0	1	+	0	1	blank2r.bmp	252	1	GWWG	306	2	rächen	559	0	0	0	0	0	0	0	0	0	0	0	0	0	0	0	0	0	0	0	0	0	0	0	0	0	0	0	0	0	0	0	0	0	0	0	0	0	0	0
071719	16:04:11	16:13:19	547823	5.0.10.0	5_exp_noRW	66	Rpleas_acq	CS_B	BZZB	YDDY	GWWG	VKKV	MQQM	JXXJ	ehrlich	retten	spielen	treu	schön	fair	eitel	rächen	strafen	tot	schlecht	faul	53pct	acq_USunple_CSunple2_noRW	acq23456_noRW	3	65	0	0	300	300	638	46	0	1	1	blank2r.bmp	0	1	+	0	1	blank2r.bmp	252	1	VKKV	306	3	faul	559	0	0	0	0	0	0	0	0	0	0	0	0	0	0	0	0	0	0	0	0	0	0	0	0	0	0	0	0	0	0	0	0	0	0	0	0	0	0	0
071719	16:04:11	16:13:21	549596	5.0.10.0	5_exp_noRW	66	Rpleas_acq	CS_B	BZZB	YDDY	GWWG	VKKV	MQQM	JXXJ	ehrlich	retten	spielen	treu	schön	fair	eitel	rächen	strafen	tot	schlecht	faul	53pct	acq_USunple_CSpleas1_noRW	acq23456_noRW	3	66	0	0	300	300	594	46	0	1	1	blank2r.bmp	0	1	+	0	1	blank2r.bmp	252	1	BZZB	306	1	eitel	559	0	0	0	0	0	0	0	0	0	0	0	0	0	0	0	0	0	0	0	0	0	0	0	0	0	0	0	0	0	0	0	0	0	0	0	0	0	0	0
071719	16:04:11	16:13:23	551435	5.0.10.0	5_exp_noRW	66	Rpleas_acq	CS_B	BZZB	YDDY	GWWG	VKKV	MQQM	JXXJ	ehrlich	retten	spielen	treu	schön	fair	eitel	rächen	strafen	tot	schlecht	faul	47pct	acq_USpleas_CSpleas1_noRW	acq23456_noRW	3	67	0	0	300	300	669	50	0	1	1	blank2r.bmp	0	1	+	0	1	blank2r.bmp	252	1	BZZB	306	3	spielen	559	0	0	0	0	0	0	0	0	0	0	0	0	0	0	0	0	0	0	0	0	0	0	0	0	0	0	0	0	0	0	0	0	0	0	0	0	0	0	0
071719	16:04:11	16:13:25	553195	5.0.10.0	5_exp_noRW	66	Rpleas_acq	CS_B	BZZB	YDDY	GWWG	VKKV	MQQM	JXXJ	ehrlich	retten	spielen	treu	schön	fair	eitel	rächen	strafen	tot	schlecht	faul	47pct	acq_USpleas_CSpleas2_noRW	acq23456_noRW	3	68	0	0	300	300	593	50	0	1	1	blank2r.bmp	0	1	+	0	1	blank2r.bmp	252	1	YDDY	306	1	treu	559	0	0	0	0	0	0	0	0	0	0	0	0	0	0	0	0	0	0	0	0	0	0	0	0	0	0	0	0	0	0	0	0	0	0	0	0	0	0	0
071719	16:04:11	16:13:27	554860	5.0.10.0	5_exp_noRW	66	Rpleas_acq	CS_B	BZZB	YDDY	GWWG	VKKV	MQQM	JXXJ	ehrlich	retten	spielen	treu	schön	fair	eitel	rächen	strafen	tot	schlecht	faul	53pct	acq_USunple_CSpleas2_noRW	acq23456_noRW	3	69	0	0	300	300	489	46	0	1	1	blank2r.bmp	0	1	+	0	1	blank2r.bmp	252	1	YDDY	306	1	tot	559	0	0	0	0	0	0	0	0	0	0	0	0	0	0	0	0	0	0	0	0	0	0	0	0	0	0	0	0	0	0	0	0	0	0	0	0	0	0	0
071719	16:04:11	16:13:28	556460	5.0.10.0	5_exp_noRW	66	Rpleas_acq	CS_B	BZZB	YDDY	GWWG	VKKV	MQQM	JXXJ	ehrlich	retten	spielen	treu	schön	fair	eitel	rächen	strafen	tot	schlecht	faul	53pct	acq_USpleas_CSpleas1_noRW	acq23456_noRW	3	70	0	0	300	300	420	50	0	1	1	blank2r.bmp	0	1	+	0	1	blank2r.bmp	252	1	BZZB	306	1	ehrlich	559	0	0	0	0	0	0	0	0	0	0	0	0	0	0	0	0	0	0	0	0	0	0	0	0	0	0	0	0	0	0	0	0	0	0	0	0	0	0	0
071719	16:04:11	16:13:30	558152	5.0.10.0	5_exp_noRW	66	Rpleas_acq	CS_B	BZZB	YDDY	GWWG	VKKV	MQQM	JXXJ	ehrlich	retten	spielen	treu	schön	fair	eitel	rächen	strafen	tot	schlecht	faul	47pct	acq_USunple_CSunple2_noRW	acq23456_noRW	3	71	0	0	300	300	519	46	0	1	1	blank2r.bmp	0	1	+	0	1	blank2r.bmp	252	1	VKKV	306	1	tot	559	0	0	0	0	0	0	0	0	0	0	0	0	0	0	0	0	0	0	0	0	0	0	0	0	0	0	0	0	0	0	0	0	0	0	0	0	0	0	0
071719	16:04:11	16:13:32	559925	5.0.10.0	5_exp_noRW	66	Rpleas_acq	CS_B	BZZB	YDDY	GWWG	VKKV	MQQM	JXXJ	ehrlich	retten	spielen	treu	schön	fair	eitel	rächen	strafen	tot	schlecht	faul	47pct	acq_USunple_CSunple1_noRW	acq23456_noRW	3	72	0	0	300	300	599	46	0	1	1	blank2r.bmp	0	1	+	0	1	blank2r.bmp	252	1	GWWG	306	3	strafen	559	0	0	0	0	0	0	0	0	0	0	0	0	0	0	0	0	0	0	0	0	0	0	0	0	0	0	0	0	0	0	0	0	0	0	0	0	0	0	0
071719	16:04:11	16:13:33	561578	5.0.10.0	5_exp_noRW	66	Rpleas_acq	CS_B	BZZB	YDDY	GWWG	VKKV	MQQM	JXXJ	ehrlich	retten	spielen	treu	schön	fair	eitel	rächen	strafen	tot	schlecht	faul	47pct	acq_USunple_CSunple1_noRW	acq23456_noRW	3	73	0	0	300	300	479	46	0	1	1	blank2r.bmp	0	1	+	0	1	blank2r.bmp	252	1	GWWG	306	2	rächen	559	0	0	0	0	0	0	0	0	0	0	0	0	0	0	0	0	0	0	0	0	0	0	0	0	0	0	0	0	0	0	0	0	0	0	0	0	0	0	0
071719	16:04:11	16:13:35	563270	5.0.10.0	5_exp_noRW	66	Rpleas_acq	CS_B	BZZB	YDDY	GWWG	VKKV	MQQM	JXXJ	ehrlich	retten	spielen	treu	schön	fair	eitel	rächen	strafen	tot	schlecht	faul	47pct	acq_USpleas_CSpleas2_noRW	acq23456_noRW	3	74	0	0	300	300	530	50	0	1	1	blank2r.bmp	0	1	+	0	1	blank2r.bmp	252	1	YDDY	306	3	fair	559	0	0	0	0	0	0	0	0	0	0	0	0	0	0	0	0	0	0	0	0	0	0	0	0	0	0	0	0	0	0	0	0	0	0	0	0	0	0	0
071719	16:04:11	16:13:37	564923	5.0.10.0	5_exp_noRW	66	Rpleas_acq	CS_B	BZZB	YDDY	GWWG	VKKV	MQQM	JXXJ	ehrlich	retten	spielen	treu	schön	fair	eitel	rächen	strafen	tot	schlecht	faul	53pct	acq_USpleas_CSpleas1_noRW	acq23456_noRW	3	75	0	0	300	300	470	50	0	1	1	blank2r.bmp	0	1	+	0	1	blank2r.bmp	252	1	BZZB	306	3	spielen	559	0	0	0	0	0	0	0	0	0	0	0	0	0	0	0	0	0	0	0	0	0	0	0	0	0	0	0	0	0	0	0	0	0	0	0	0	0	0	0
071719	16:04:11	16:13:38	566775	5.0.10.0	5_exp_noRW	66	Rpleas_acq	CS_B	BZZB	YDDY	GWWG	VKKV	MQQM	JXXJ	ehrlich	retten	spielen	treu	schön	fair	eitel	rächen	strafen	tot	schlecht	faul	53pct	acq_USpleas_CSpleas1_noRW	acq23456_noRW	3	76	0	0	300	300	668	50	0	1	1	blank2r.bmp	0	1	+	0	1	blank2r.bmp	252	1	BZZB	306	2	retten	559	0	0	0	0	0	0	0	0	0	0	0	0	0	0	0	0	0	0	0	0	0	0	0	0	0	0	0	0	0	0	0	0	0	0	0	0	0	0	0
071719	16:04:11	16:13:40	568468	5.0.10.0	5_exp_noRW	66	Rpleas_acq	CS_B	BZZB	YDDY	GWWG	VKKV	MQQM	JXXJ	ehrlich	retten	spielen	treu	schön	fair	eitel	rächen	strafen	tot	schlecht	faul	53pct	acq_USunple_CSunple2_noRW	acq23456_noRW	3	77	0	0	300	300	529	46	0	1	1	blank2r.bmp	0	1	+	0	1	blank2r.bmp	252	1	VKKV	306	2	schlecht	559	0	0	0	0	0	0	0	0	0	0	0	0	0	0	0	0	0	0	0	0	0	0	0	0	0	0	0	0	0	0	0	0	0	0	0	0	0	0	0
071719	16:04:11	16:13:42	570241	5.0.10.0	5_exp_noRW	66	Rpleas_acq	CS_B	BZZB	YDDY	GWWG	VKKV	MQQM	JXXJ	ehrlich	retten	spielen	treu	schön	fair	eitel	rächen	strafen	tot	schlecht	faul	47pct	acq_USunple_CSunple1_noRW	acq23456_noRW	3	78	0	0	300	300	593	46	0	1	1	blank2r.bmp	0	1	+	0	1	blank2r.bmp	252	1	GWWG	306	1	eitel	559	0	0	0	0	0	0	0	0	0	0	0	0	0	0	0	0	0	0	0	0	0	0	0	0	0	0	0	0	0	0	0	0	0	0	0	0	0	0	0
071719	16:04:11	16:13:44	572160	5.0.10.0	5_exp_noRW	66	Rpleas_acq	CS_B	BZZB	YDDY	GWWG	VKKV	MQQM	JXXJ	ehrlich	retten	spielen	treu	schön	fair	eitel	rächen	strafen	tot	schlecht	faul	53pct	acq_USunple_CSunple2_noRW	acq23456_noRW	3	79	0	0	300	300	740	46	0	1	1	blank2r.bmp	0	1	+	0	1	blank2r.bmp	252	1	VKKV	306	3	faul	559	0	0	0	0	0	0	0	0	0	0	0	0	0	0	0	0	0	0	0	0	0	0	0	0	0	0	0	0	0	0	0	0	0	0	0	0	0	0	0
071719	16:04:11	16:13:45	573746	5.0.10.0	5_exp_noRW	66	Rpleas_acq	CS_B	BZZB	YDDY	GWWG	VKKV	MQQM	JXXJ	ehrlich	retten	spielen	treu	schön	fair	eitel	rächen	strafen	tot	schlecht	faul	47pct	acq_USpleas_CSunple2_noRW	acq23456_noRW	3	80	0	0	300	300	408	50	0	1	1	blank2r.bmp	0	1	+	0	1	blank2r.bmp	252	1	VKKV	306	1	treu	559	0	0	0	0	0	0	0	0	0	0	0	0	0	0	0	0	0	0	0	0	0	0	0	0	0	0	0	0	0	0	0	0	0	0	0	0	0	0	0
071719	16:04:11	16:13:55	583155	5.0.10.0	5_exp_noRW	66	Rpleas_acq	CS_B	BZZB	YDDY	GWWG	VKKV	MQQM	JXXJ	ehrlich	retten	spielen	treu	schön	fair	eitel	rächen	strafen	tot	schlecht	faul	47pct	acq_USunple_CSunple1_noRW	acq23456_noRW	4	1	0	0	300	300	575	46	0	1	1	blank2r.bmp	0	1	+	0	1	blank2r.bmp	252	1	GWWG	306	2	rächen	559	0	0	0	0	0	0	0	0	0	0	0	0	0	0	0	0	0	0	0	0	0	0	0	0	0	0	0	0	0	0	0	0	0	0	0	0	0	0	0
071719	16:04:11	16:13:57	584861	5.0.10.0	5_exp_noRW	66	Rpleas_acq	CS_B	BZZB	YDDY	GWWG	VKKV	MQQM	JXXJ	ehrlich	retten	spielen	treu	schön	fair	eitel	rächen	strafen	tot	schlecht	faul	47pct	acq_USunple_CSunple1_noRW	acq23456_noRW	4	2	0	0	300	300	543	46	0	1	1	blank2r.bmp	0	1	+	0	1	blank2r.bmp	252	1	GWWG	306	1	eitel	559	0	0	0	0	0	0	0	0	0	0	0	0	0	0	0	0	0	0	0	0	0	0	0	0	0	0	0	0	0	0	0	0	0	0	0	0	0	0	0
071719	16:04:11	16:13:58	586634	5.0.10.0	5_exp_noRW	66	Rpleas_acq	CS_B	BZZB	YDDY	GWWG	VKKV	MQQM	JXXJ	ehrlich	retten	spielen	treu	schön	fair	eitel	rächen	strafen	tot	schlecht	faul	47pct	acq_USpleas_CSpleas1_noRW	acq23456_noRW	4	3	0	0	300	300	594	50	0	1	1	blank2r.bmp	0	1	+	0	1	blank2r.bmp	252	1	BZZB	306	2	retten	559	0	0	0	0	0	0	0	0	0	0	0	0	0	0	0	0	0	0	0	0	0	0	0	0	0	0	0	0	0	0	0	0	0	0	0	0	0	0	0
071719	16:04:11	16:14:00	588540	5.0.10.0	5_exp_noRW	66	Rpleas_acq	CS_B	BZZB	YDDY	GWWG	VKKV	MQQM	JXXJ	ehrlich	retten	spielen	treu	schön	fair	eitel	rächen	strafen	tot	schlecht	faul	47pct	acq_USunple_CSunple1_noRW	acq23456_noRW	4	4	0	0	300	300	724	46	0	1	1	blank2r.bmp	0	1	+	0	1	blank2r.bmp	252	1	GWWG	306	3	strafen	559	0	0	0	0	0	0	0	0	0	0	0	0	0	0	0	0	0	0	0	0	0	0	0	0	0	0	0	0	0	0	0	0	0	0	0	0	0	0	0
071719	16:04:11	16:14:02	590232	5.0.10.0	5_exp_noRW	66	Rpleas_acq	CS_B	BZZB	YDDY	GWWG	VKKV	MQQM	JXXJ	ehrlich	retten	spielen	treu	schön	fair	eitel	rächen	strafen	tot	schlecht	faul	53pct	acq_USpleas_CSpleas1_noRW	acq23456_noRW	4	5	0	0	300	300	511	50	0	1	1	blank2r.bmp	0	1	+	0	1	blank2r.bmp	252	1	BZZB	306	1	ehrlich	559	0	0	0	0	0	0	0	0	0	0	0	0	0	0	0	0	0	0	0	0	0	0	0	0	0	0	0	0	0	0	0	0	0	0	0	0	0	0	0
071719	16:04:11	16:14:04	591925	5.0.10.0	5_exp_noRW	66	Rpleas_acq	CS_B	BZZB	YDDY	GWWG	VKKV	MQQM	JXXJ	ehrlich	retten	spielen	treu	schön	fair	eitel	rächen	strafen	tot	schlecht	faul	53pct	acq_USunple_CSunple1_noRW	acq23456_noRW	4	6	0	0	300	300	527	46	0	1	1	blank2r.bmp	0	1	+	0	1	blank2r.bmp	252	1	GWWG	306	2	rächen	559	0	0	0	0	0	0	0	0	0	0	0	0	0	0	0	0	0	0	0	0	0	0	0	0	0	0	0	0	0	0	0	0	0	0	0	0	0	0	0
071719	16:04:11	16:14:05	593631	5.0.10.0	5_exp_noRW	66	Rpleas_acq	CS_B	BZZB	YDDY	GWWG	VKKV	MQQM	JXXJ	ehrlich	retten	spielen	treu	schön	fair	eitel	rächen	strafen	tot	schlecht	faul	47pct	acq_USunple_CSunple2_noRW	acq23456_noRW	4	7	0	0	300	300	531	46	0	1	1	blank2r.bmp	0	1	+	0	1	blank2r.bmp	252	1	VKKV	306	1	tot	559	0	0	0	0	0	0	0	0	0	0	0	0	0	0	0	0	0	0	0	0	0	0	0	0	0	0	0	0	0	0	0	0	0	0	0	0	0	0	0
071719	16:04:11	16:14:07	595204	5.0.10.0	5_exp_noRW	66	Rpleas_acq	CS_B	BZZB	YDDY	GWWG	VKKV	MQQM	JXXJ	ehrlich	retten	spielen	treu	schön	fair	eitel	rächen	strafen	tot	schlecht	faul	53pct	acq_USpleas_CSpleas1_noRW	acq23456_noRW	4	8	0	0	300	300	391	50	0	1	1	blank2r.bmp	0	1	+	0	1	blank2r.bmp	252	1	BZZB	306	3	spielen	559	0	0	0	0	0	0	0	0	0	0	0	0	0	0	0	0	0	0	0	0	0	0	0	0	0	0	0	0	0	0	0	0	0	0	0	0	0	0	0
071719	16:04:11	16:14:09	596870	5.0.10.0	5_exp_noRW	66	Rpleas_acq	CS_B	BZZB	YDDY	GWWG	VKKV	MQQM	JXXJ	ehrlich	retten	spielen	treu	schön	fair	eitel	rächen	strafen	tot	schlecht	faul	53pct	acq_USpleas_CSunple2_noRW	acq23456_noRW	4	9	0	0	300	300	483	50	0	1	1	blank2r.bmp	0	1	+	0	1	blank2r.bmp	252	1	VKKV	306	3	fair	559	0	0	0	0	0	0	0	0	0	0	0	0	0	0	0	0	0	0	0	0	0	0	0	0	0	0	0	0	0	0	0	0	0	0	0	0	0	0	0
