date	time	script.currenttime	script.elapsedtime	build	script.currentexpt	subject	expressions.LRpleas_acq	expressions.conditionCS_A	expressions.CSpleas_1	expressions.CSpleas_2	expressions.CSunple_1	expressions.CSunple_2	expressions.distractor_1	expressions.distractor_2	expressions.US_pleas1	expressions.US_pleas2	expressions.US_pleas3	expressions.US_pleas4	expressions.US_pleas5	expressions.US_pleas6	expressions.US_unple1	expressions.US_unple2	expressions.US_unple3	expressions.US_unple4	expressions.US_unple5	expressions.US_unple6	counter.positions_noRW	trialcode	blockcode	blocknum	trialnum	windowcenter	inwindow	pretrialpause	posttrialpause	latency	response	expressions.correctedscore	correct	stimulusnumber1	stimulusitem1	stimulusonset1	stimulusnumber2	stimulusitem2	stimulusonset2	stimulusnumber3	stimulusitem3	stimulusonset3	stimulusnumber4	stimulusitem4	stimulusonset4	stimulusnumber5	stimulusitem5	stimulusonset5	stimulusnumber6	stimulusitem6	stimulusonset6	stimulusnumber7	stimulusitem7	stimulusonset7	stimulusnumber8	stimulusitem8	stimulusonset8	stimulusnumber9	stimulusitem9	stimulusonset9	stimulusnumber10	stimulusitem10	stimulusonset10	stimulusnumber11	stimulusitem11	stimulusonset11	stimulusnumber12	stimulusitem12	stimulusonset12	stimulusnumber13	stimulusitem13	stimulusonset13	stimulusnumber14	stimulusitem14	stimulusonset14	stimulusnumber15	stimulusitem15	stimulusonset15	stimulusnumber16	stimulusitem16	stimulusonset16	stimulusnumber17	stimulusitem17	stimulusonset17	stimulusnumber18	stimulusitem18	stimulusonset18
071019	12:53:43	12:54:56	71916	5.0.10.0	5_exp_noRW	40	Rpleas_acq	CS_A	DXXD	ZHHZ	CPPC	JQQJ	LWWL	YFFY	träumen	sonnig	gütig	küssen	genießen	vertrauen	töten	sterben	gierig	krank	gemein	versagen	47pct	acq_USunple_CSpleas2_noRW	acq1_noRW	1	1	0	0	300	300	1400	46	0	1	1	blank2r.bmp	0	1	+	0	1	blank2r.bmp	252	1	ZHHZ	306	2	gemein	559	0	0	0	0	0	0	0	0	0	0	0	0	0	0	0	0	0	0	0	0	0	0	0	0	0	0	0	0	0	0	0	0	0	0	0	0	0	0	0
071019	12:53:43	12:54:58	73836	5.0.10.0	5_exp_noRW	40	Rpleas_acq	CS_A	DXXD	ZHHZ	CPPC	JQQJ	LWWL	YFFY	träumen	sonnig	gütig	küssen	genießen	vertrauen	töten	sterben	gierig	krank	gemein	versagen	53pct	acq_USpleas_CSpleas2_noRW	acq1_noRW	1	2	0	0	300	300	756	50	0	1	1	blank2r.bmp	0	1	+	0	1	blank2r.bmp	252	1	ZHHZ	306	3	vertrauen	559	0	0	0	0	0	0	0	0	0	0	0	0	0	0	0	0	0	0	0	0	0	0	0	0	0	0	0	0	0	0	0	0	0	0	0	0	0	0	0
071019	12:53:43	12:55:00	75595	5.0.10.0	5_exp_noRW	40	Rpleas_acq	CS_A	DXXD	ZHHZ	CPPC	JQQJ	LWWL	YFFY	träumen	sonnig	gütig	küssen	genießen	vertrauen	töten	sterben	gierig	krank	gemein	versagen	47pct	acq_USpleas_CSpleas1_noRW	acq1_noRW	1	3	0	0	300	300	586	50	0	1	1	blank2r.bmp	0	1	+	0	1	blank2r.bmp	252	1	DXXD	306	1	träumen	559	0	0	0	0	0	0	0	0	0	0	0	0	0	0	0	0	0	0	0	0	0	0	0	0	0	0	0	0	0	0	0	0	0	0	0	0	0	0	0
071019	12:53:43	12:55:01	77261	5.0.10.0	5_exp_noRW	40	Rpleas_acq	CS_A	DXXD	ZHHZ	CPPC	JQQJ	LWWL	YFFY	träumen	sonnig	gütig	küssen	genießen	vertrauen	töten	sterben	gierig	krank	gemein	versagen	47pct	acq_USpleas_CSpleas2_noRW	acq1_noRW	1	4	0	0	300	300	478	50	0	1	1	blank2r.bmp	0	1	+	0	1	blank2r.bmp	252	1	ZHHZ	306	2	genießen	559	0	0	0	0	0	0	0	0	0	0	0	0	0	0	0	0	0	0	0	0	0	0	0	0	0	0	0	0	0	0	0	0	0	0	0	0	0	0	0
071019	12:53:43	12:55:03	78860	5.0.10.0	5_exp_noRW	40	Rpleas_acq	CS_A	DXXD	ZHHZ	CPPC	JQQJ	LWWL	YFFY	träumen	sonnig	gütig	küssen	genießen	vertrauen	töten	sterben	gierig	krank	gemein	versagen	47pct	acq_USunple_CSunple2_noRW	acq1_noRW	1	5	0	0	300	300	436	46	0	1	1	blank2r.bmp	0	1	+	0	1	blank2r.bmp	252	1	JQQJ	306	1	krank	559	0	0	0	0	0	0	0	0	0	0	0	0	0	0	0	0	0	0	0	0	0	0	0	0	0	0	0	0	0	0	0	0	0	0	0	0	0	0	0
071019	12:53:43	12:55:04	80553	5.0.10.0	5_exp_noRW	40	Rpleas_acq	CS_A	DXXD	ZHHZ	CPPC	JQQJ	LWWL	YFFY	träumen	sonnig	gütig	küssen	genießen	vertrauen	töten	sterben	gierig	krank	gemein	versagen	47pct	acq_USpleas_CSpleas1_noRW	acq1_noRW	1	6	0	0	300	300	519	50	0	1	1	blank2r.bmp	0	1	+	0	1	blank2r.bmp	252	1	DXXD	306	3	gütig	559	0	0	0	0	0	0	0	0	0	0	0	0	0	0	0	0	0	0	0	0	0	0	0	0	0	0	0	0	0	0	0	0	0	0	0	0	0	0	0
071019	12:53:43	12:55:06	82379	5.0.10.0	5_exp_noRW	40	Rpleas_acq	CS_A	DXXD	ZHHZ	CPPC	JQQJ	LWWL	YFFY	träumen	sonnig	gütig	küssen	genießen	vertrauen	töten	sterben	gierig	krank	gemein	versagen	47pct	acq_USunple_CSunple1_noRW	acq1_noRW	1	7	0	0	300	300	657	46	0	1	1	blank2r.bmp	0	1	+	0	1	blank2r.bmp	252	1	CPPC	306	3	gierig	559	0	0	0	0	0	0	0	0	0	0	0	0	0	0	0	0	0	0	0	0	0	0	0	0	0	0	0	0	0	0	0	0	0	0	0	0	0	0	0
071019	12:53:43	12:55:08	84165	5.0.10.0	5_exp_noRW	40	Rpleas_acq	CS_A	DXXD	ZHHZ	CPPC	JQQJ	LWWL	YFFY	träumen	sonnig	gütig	küssen	genießen	vertrauen	töten	sterben	gierig	krank	gemein	versagen	53pct	acq_USunple_CSunple2_noRW	acq1_noRW	1	8	0	0	300	300	608	46	0	1	1	blank2r.bmp	0	1	+	0	1	blank2r.bmp	252	1	JQQJ	306	3	versagen	559	0	0	0	0	0	0	0	0	0	0	0	0	0	0	0	0	0	0	0	0	0	0	0	0	0	0	0	0	0	0	0	0	0	0	0	0	0	0	0
071019	12:53:43	12:55:10	85844	5.0.10.0	5_exp_noRW	40	Rpleas_acq	CS_A	DXXD	ZHHZ	CPPC	JQQJ	LWWL	YFFY	träumen	sonnig	gütig	küssen	genießen	vertrauen	töten	sterben	gierig	krank	gemein	versagen	47pct	acq_USpleas_CSunple1_noRW	acq1_noRW	1	9	0	0	300	300	510	50	0	1	1	blank2r.bmp	0	1	+	0	1	blank2r.bmp	252	1	CPPC	306	1	träumen	559	0	0	0	0	0	0	0	0	0	0	0	0	0	0	0	0	0	0	0	0	0	0	0	0	0	0	0	0	0	0	0	0	0	0	0	0	0	0	0
071019	12:53:43	12:55:11	87510	5.0.10.0	5_exp_noRW	40	Rpleas_acq	CS_A	DXXD	ZHHZ	CPPC	JQQJ	LWWL	YFFY	träumen	sonnig	gütig	küssen	genießen	vertrauen	töten	sterben	gierig	krank	gemein	versagen	47pct	acq_USunple_CSunple1_noRW	acq1_noRW	1	10	0	0	300	300	484	46	0	1	1	blank2r.bmp	0	1	+	0	1	blank2r.bmp	252	1	CPPC	306	1	töten	559	0	0	0	0	0	0	0	0	0	0	0	0	0	0	0	0	0	0	0	0	0	0	0	0	0	0	0	0	0	0	0	0	0	0	0	0	0	0	0
071019	12:53:43	12:55:13	89176	5.0.10.0	5_exp_noRW	40	Rpleas_acq	CS_A	DXXD	ZHHZ	CPPC	JQQJ	LWWL	YFFY	träumen	sonnig	gütig	küssen	genießen	vertrauen	töten	sterben	gierig	krank	gemein	versagen	53pct	acq_USunple_CSunple2_noRW	acq1_noRW	1	11	0	0	300	300	478	46	0	1	1	blank2r.bmp	0	1	+	0	1	blank2r.bmp	252	1	JQQJ	306	2	gemein	559	0	0	0	0	0	0	0	0	0	0	0	0	0	0	0	0	0	0	0	0	0	0	0	0	0	0	0	0	0	0	0	0	0	0	0	0	0	0	0
071019	12:53:43	12:55:15	90735	5.0.10.0	5_exp_noRW	40	Rpleas_acq	CS_A	DXXD	ZHHZ	CPPC	JQQJ	LWWL	YFFY	träumen	sonnig	gütig	küssen	genießen	vertrauen	töten	sterben	gierig	krank	gemein	versagen	53pct	acq_USunple_CSunple1_noRW	acq1_noRW	1	12	0	0	300	300	391	46	0	1	1	blank2r.bmp	0	1	+	0	1	blank2r.bmp	252	1	CPPC	306	2	sterben	559	0	0	0	0	0	0	0	0	0	0	0	0	0	0	0	0	0	0	0	0	0	0	0	0	0	0	0	0	0	0	0	0	0	0	0	0	0	0	0
071019	12:53:43	12:55:16	92295	5.0.10.0	5_exp_noRW	40	Rpleas_acq	CS_A	DXXD	ZHHZ	CPPC	JQQJ	LWWL	YFFY	träumen	sonnig	gütig	küssen	genießen	vertrauen	töten	sterben	gierig	krank	gemein	versagen	53pct	acq_USpleas_CSpleas2_noRW	acq1_noRW	1	13	0	0	300	300	398	50	0	1	1	blank2r.bmp	0	1	+	0	1	blank2r.bmp	252	1	ZHHZ	306	1	küssen	559	0	0	0	0	0	0	0	0	0	0	0	0	0	0	0	0	0	0	0	0	0	0	0	0	0	0	0	0	0	0	0	0	0	0	0	0	0	0	0
071019	12:53:43	12:55:18	94174	5.0.10.0	5_exp_noRW	40	Rpleas_acq	CS_A	DXXD	ZHHZ	CPPC	JQQJ	LWWL	YFFY	träumen	sonnig	gütig	küssen	genießen	vertrauen	töten	sterben	gierig	krank	gemein	versagen	53pct	acq_USpleas_CSpleas1_noRW	acq1_noRW	1	14	0	0	300	300	489	46	0	0	1	blank2r.bmp	0	1	+	0	1	blank2r.bmp	252	1	DXXD	306	2	sonnig	559	1	FEHLER	1079	0	0	0	0	0	0	0	0	0	0	0	0	0	0	0	0	0	0	0	0	0	0	0	0	0	0	0	0	0	0	0	0	0	0	0	0
071019	12:53:43	12:55:20	95920	5.0.10.0	5_exp_noRW	40	Rpleas_acq	CS_A	DXXD	ZHHZ	CPPC	JQQJ	LWWL	YFFY	träumen	sonnig	gütig	küssen	genießen	vertrauen	töten	sterben	gierig	krank	gemein	versagen	53pct	acq_USunple_CSunple1_noRW	acq1_noRW	1	15	0	0	300	300	791	46	0	1	1	blank2r.bmp	0	1	+	0	1	blank2r.bmp	252	1	CPPC	306	3	gierig	559	0	0	0	0	0	0	0	0	0	0	0	0	0	0	0	0	0	0	0	0	0	0	0	0	0	0	0	0	0	0	0	0	0	0	0	0	0	0	0
071019	12:53:43	12:55:21	97599	5.0.10.0	5_exp_noRW	40	Rpleas_acq	CS_A	DXXD	ZHHZ	CPPC	JQQJ	LWWL	YFFY	träumen	sonnig	gütig	küssen	genießen	vertrauen	töten	sterben	gierig	krank	gemein	versagen	47pct	acq_USunple_CSpleas1_noRW	acq1_noRW	1	16	0	0	300	300	502	46	0	1	1	blank2r.bmp	0	1	+	0	1	blank2r.bmp	252	1	DXXD	306	1	töten	559	0	0	0	0	0	0	0	0	0	0	0	0	0	0	0	0	0	0	0	0	0	0	0	0	0	0	0	0	0	0	0	0	0	0	0	0	0	0	0
071019	12:53:43	12:55:23	99252	5.0.10.0	5_exp_noRW	40	Rpleas_acq	CS_A	DXXD	ZHHZ	CPPC	JQQJ	LWWL	YFFY	träumen	sonnig	gütig	küssen	genießen	vertrauen	töten	sterben	gierig	krank	gemein	versagen	53pct	acq_USunple_CSunple2_noRW	acq1_noRW	1	17	0	0	300	300	477	46	0	1	1	blank2r.bmp	0	1	+	0	1	blank2r.bmp	252	1	JQQJ	306	2	gemein	559	0	0	0	0	0	0	0	0	0	0	0	0	0	0	0	0	0	0	0	0	0	0	0	0	0	0	0	0	0	0	0	0	0	0	0	0	0	0	0
071019	12:53:43	12:55:25	100931	5.0.10.0	5_exp_noRW	40	Rpleas_acq	CS_A	DXXD	ZHHZ	CPPC	JQQJ	LWWL	YFFY	träumen	sonnig	gütig	küssen	genießen	vertrauen	töten	sterben	gierig	krank	gemein	versagen	47pct	acq_USpleas_CSpleas1_noRW	acq1_noRW	1	18	0	0	300	300	493	50	0	1	1	blank2r.bmp	0	1	+	0	1	blank2r.bmp	252	1	DXXD	306	1	träumen	559	0	0	0	0	0	0	0	0	0	0	0	0	0	0	0	0	0	0	0	0	0	0	0	0	0	0	0	0	0	0	0	0	0	0	0	0	0	0	0
071019	12:53:43	12:55:26	102571	5.0.10.0	5_exp_noRW	40	Rpleas_acq	CS_A	DXXD	ZHHZ	CPPC	JQQJ	LWWL	YFFY	träumen	sonnig	gütig	küssen	genießen	vertrauen	töten	sterben	gierig	krank	gemein	versagen	47pct	acq_USpleas_CSpleas2_noRW	acq1_noRW	1	19	0	0	300	300	458	50	0	1	1	blank2r.bmp	0	1	+	0	1	blank2r.bmp	252	1	ZHHZ	306	1	küssen	559	0	0	0	0	0	0	0	0	0	0	0	0	0	0	0	0	0	0	0	0	0	0	0	0	0	0	0	0	0	0	0	0	0	0	0	0	0	0	0
071019	12:53:43	12:55:28	104197	5.0.10.0	5_exp_noRW	40	Rpleas_acq	CS_A	DXXD	ZHHZ	CPPC	JQQJ	LWWL	YFFY	träumen	sonnig	gütig	küssen	genießen	vertrauen	töten	sterben	gierig	krank	gemein	versagen	47pct	acq_USpleas_CSunple2_noRW	acq1_noRW	1	20	0	0	300	300	459	50	0	1	1	blank2r.bmp	0	1	+	0	1	blank2r.bmp	252	1	JQQJ	306	2	genießen	559	0	0	0	0	0	0	0	0	0	0	0	0	0	0	0	0	0	0	0	0	0	0	0	0	0	0	0	0	0	0	0	0	0	0	0	0	0	0	0
071019	12:53:43	12:55:30	105796	5.0.10.0	5_exp_noRW	40	Rpleas_acq	CS_A	DXXD	ZHHZ	CPPC	JQQJ	LWWL	YFFY	träumen	sonnig	gütig	küssen	genießen	vertrauen	töten	sterben	gierig	krank	gemein	versagen	53pct	acq_USunple_CSunple2_noRW	acq1_noRW	1	21	0	0	300	300	431	46	0	1	1	blank2r.bmp	0	1	+	0	1	blank2r.bmp	252	1	JQQJ	306	3	versagen	559	0	0	0	0	0	0	0	0	0	0	0	0	0	0	0	0	0	0	0	0	0	0	0	0	0	0	0	0	0	0	0	0	0	0	0	0	0	0	0
071019	12:53:43	12:55:31	107422	5.0.10.0	5_exp_noRW	40	Rpleas_acq	CS_A	DXXD	ZHHZ	CPPC	JQQJ	LWWL	YFFY	träumen	sonnig	gütig	küssen	genießen	vertrauen	töten	sterben	gierig	krank	gemein	versagen	47pct	acq_USunple_CSunple1_noRW	acq1_noRW	1	22	0	0	300	300	438	46	0	1	1	blank2r.bmp	0	1	+	0	1	blank2r.bmp	252	1	CPPC	306	1	töten	559	0	0	0	0	0	0	0	0	0	0	0	0	0	0	0	0	0	0	0	0	0	0	0	0	0	0	0	0	0	0	0	0	0	0	0	0	0	0	0
071019	12:53:43	12:55:33	109008	5.0.10.0	5_exp_noRW	40	Rpleas_acq	CS_A	DXXD	ZHHZ	CPPC	JQQJ	LWWL	YFFY	träumen	sonnig	gütig	küssen	genießen	vertrauen	töten	sterben	gierig	krank	gemein	versagen	47pct	acq_USunple_CSpleas2_noRW	acq1_noRW	1	23	0	0	300	300	400	46	0	1	1	blank2r.bmp	0	1	+	0	1	blank2r.bmp	252	1	ZHHZ	306	3	versagen	559	0	0	0	0	0	0	0	0	0	0	0	0	0	0	0	0	0	0	0	0	0	0	0	0	0	0	0	0	0	0	0	0	0	0	0	0	0	0	0
071019	12:53:43	12:55:35	110647	5.0.10.0	5_exp_noRW	40	Rpleas_acq	CS_A	DXXD	ZHHZ	CPPC	JQQJ	LWWL	YFFY	träumen	sonnig	gütig	küssen	genießen	vertrauen	töten	sterben	gierig	krank	gemein	versagen	47pct	acq_USpleas_CSunple1_noRW	acq1_noRW	1	24	0	0	300	300	470	50	0	1	1	blank2r.bmp	0	1	+	0	1	blank2r.bmp	252	1	CPPC	306	3	gütig	559	0	0	0	0	0	0	0	0	0	0	0	0	0	0	0	0	0	0	0	0	0	0	0	0	0	0	0	0	0	0	0	0	0	0	0	0	0	0	0
071019	12:53:43	12:55:36	112540	5.0.10.0	5_exp_noRW	40	Rpleas_acq	CS_A	DXXD	ZHHZ	CPPC	JQQJ	LWWL	YFFY	träumen	sonnig	gütig	küssen	genießen	vertrauen	töten	sterben	gierig	krank	gemein	versagen	53pct	acq_USpleas_CSpleas2_noRW	acq1_noRW	1	25	0	0	300	300	715	50	0	1	1	blank2r.bmp	0	1	+	0	1	blank2r.bmp	252	1	ZHHZ	306	3	vertrauen	559	0	0	0	0	0	0	0	0	0	0	0	0	0	0	0	0	0	0	0	0	0	0	0	0	0	0	0	0	0	0	0	0	0	0	0	0	0	0	0
071019	12:53:43	12:55:38	114193	5.0.10.0	5_exp_noRW	40	Rpleas_acq	CS_A	DXXD	ZHHZ	CPPC	JQQJ	LWWL	YFFY	träumen	sonnig	gütig	küssen	genießen	vertrauen	töten	sterben	gierig	krank	gemein	versagen	47pct	acq_USpleas_CSpleas1_noRW	acq1_noRW	1	26	0	0	300	300	481	50	0	1	1	blank2r.bmp	0	1	+	0	1	blank2r.bmp	252	1	DXXD	306	3	gütig	559	0	0	0	0	0	0	0	0	0	0	0	0	0	0	0	0	0	0	0	0	0	0	0	0	0	0	0	0	0	0	0	0	0	0	0	0	0	0	0
071019	12:53:43	12:55:40	115992	5.0.10.0	5_exp_noRW	40	Rpleas_acq	CS_A	DXXD	ZHHZ	CPPC	JQQJ	LWWL	YFFY	träumen	sonnig	gütig	küssen	genießen	vertrauen	töten	sterben	gierig	krank	gemein	versagen	53pct	acq_USpleas_CSpleas1_noRW	acq1_noRW	1	27	0	0	300	300	628	50	0	1	1	blank2r.bmp	0	1	+	0	1	blank2r.bmp	252	1	DXXD	306	2	sonnig	559	0	0	0	0	0	0	0	0	0	0	0	0	0	0	0	0	0	0	0	0	0	0	0	0	0	0	0	0	0	0	0	0	0	0	0	0	0	0	0
071019	12:53:43	12:55:42	117724	5.0.10.0	5_exp_noRW	40	Rpleas_acq	CS_A	DXXD	ZHHZ	CPPC	JQQJ	LWWL	YFFY	träumen	sonnig	gütig	küssen	genießen	vertrauen	töten	sterben	gierig	krank	gemein	versagen	53pct	acq_USpleas_CSpleas2_noRW	acq1_noRW	1	28	0	0	300	300	569	50	0	1	1	blank2r.bmp	0	1	+	0	1	blank2r.bmp	252	1	ZHHZ	306	2	genießen	559	0	0	0	0	0	0	0	0	0	0	0	0	0	0	0	0	0	0	0	0	0	0	0	0	0	0	0	0	0	0	0	0	0	0	0	0	0	0	0
071019	12:53:43	12:55:43	119430	5.0.10.0	5_exp_noRW	40	Rpleas_acq	CS_A	DXXD	ZHHZ	CPPC	JQQJ	LWWL	YFFY	träumen	sonnig	gütig	küssen	genießen	vertrauen	töten	sterben	gierig	krank	gemein	versagen	53pct	acq_USpleas_CSpleas1_noRW	acq1_noRW	1	29	0	0	300	300	520	50	0	1	1	blank2r.bmp	0	1	+	0	1	blank2r.bmp	252	1	DXXD	306	2	sonnig	559	0	0	0	0	0	0	0	0	0	0	0	0	0	0	0	0	0	0	0	0	0	0	0	0	0	0	0	0	0	0	0	0	0	0	0	0	0	0	0
071019	12:53:43	12:55:45	121043	5.0.10.0	5_exp_noRW	40	Rpleas_acq	CS_A	DXXD	ZHHZ	CPPC	JQQJ	LWWL	YFFY	träumen	sonnig	gütig	küssen	genießen	vertrauen	töten	sterben	gierig	krank	gemein	versagen	53pct	acq_USunple_CSunple2_noRW	acq1_noRW	1	30	0	0	300	300	438	46	0	1	1	blank2r.bmp	0	1	+	0	1	blank2r.bmp	252	1	JQQJ	306	1	krank	559	0	0	0	0	0	0	0	0	0	0	0	0	0	0	0	0	0	0	0	0	0	0	0	0	0	0	0	0	0	0	0	0	0	0	0	0	0	0	0
071019	12:53:43	12:55:47	122656	5.0.10.0	5_exp_noRW	40	Rpleas_acq	CS_A	DXXD	ZHHZ	CPPC	JQQJ	LWWL	YFFY	träumen	sonnig	gütig	küssen	genießen	vertrauen	töten	sterben	gierig	krank	gemein	versagen	47pct	acq_USpleas_CSpleas1_noRW	acq1_noRW	1	31	0	0	300	300	431	50	0	1	1	blank2r.bmp	0	1	+	0	1	blank2r.bmp	252	1	DXXD	306	3	gütig	559	0	0	0	0	0	0	0	0	0	0	0	0	0	0	0	0	0	0	0	0	0	0	0	0	0	0	0	0	0	0	0	0	0	0	0	0	0	0	0
071019	12:53:43	12:55:48	124468	5.0.10.0	5_exp_noRW	40	Rpleas_acq	CS_A	DXXD	ZHHZ	CPPC	JQQJ	LWWL	YFFY	träumen	sonnig	gütig	küssen	genießen	vertrauen	töten	sterben	gierig	krank	gemein	versagen	53pct	acq_USpleas_CSpleas2_noRW	acq1_noRW	1	32	0	0	300	300	627	50	0	1	1	blank2r.bmp	0	1	+	0	1	blank2r.bmp	252	1	ZHHZ	306	1	küssen	559	0	0	0	0	0	0	0	0	0	0	0	0	0	0	0	0	0	0	0	0	0	0	0	0	0	0	0	0	0	0	0	0	0	0	0	0	0	0	0
071019	12:53:43	12:55:50	126108	5.0.10.0	5_exp_noRW	40	Rpleas_acq	CS_A	DXXD	ZHHZ	CPPC	JQQJ	LWWL	YFFY	träumen	sonnig	gütig	küssen	genießen	vertrauen	töten	sterben	gierig	krank	gemein	versagen	47pct	acq_USunple_CSunple1_noRW	acq1_noRW	1	33	0	0	300	300	470	46	0	1	1	blank2r.bmp	0	1	+	0	1	blank2r.bmp	252	1	CPPC	306	2	sterben	559	0	0	0	0	0	0	0	0	0	0	0	0	0	0	0	0	0	0	0	0	0	0	0	0	0	0	0	0	0	0	0	0	0	0	0	0	0	0	0
071019	12:53:43	12:55:52	127694	5.0.10.0	5_exp_noRW	40	Rpleas_acq	CS_A	DXXD	ZHHZ	CPPC	JQQJ	LWWL	YFFY	träumen	sonnig	gütig	küssen	genießen	vertrauen	töten	sterben	gierig	krank	gemein	versagen	53pct	acq_USunple_CSunple2_noRW	acq1_noRW	1	34	0	0	300	300	410	46	0	1	1	blank2r.bmp	0	1	+	0	1	blank2r.bmp	252	1	JQQJ	306	3	versagen	559	0	0	0	0	0	0	0	0	0	0	0	0	0	0	0	0	0	0	0	0	0	0	0	0	0	0	0	0	0	0	0	0	0	0	0	0	0	0	0
071019	12:53:43	12:55:53	129280	5.0.10.0	5_exp_noRW	40	Rpleas_acq	CS_A	DXXD	ZHHZ	CPPC	JQQJ	LWWL	YFFY	träumen	sonnig	gütig	küssen	genießen	vertrauen	töten	sterben	gierig	krank	gemein	versagen	47pct	acq_USunple_CSunple1_noRW	acq1_noRW	1	35	0	0	300	300	406	46	0	1	1	blank2r.bmp	0	1	+	0	1	blank2r.bmp	252	1	CPPC	306	3	gierig	559	0	0	0	0	0	0	0	0	0	0	0	0	0	0	0	0	0	0	0	0	0	0	0	0	0	0	0	0	0	0	0	0	0	0	0	0	0	0	0
071019	12:53:43	12:55:55	130866	5.0.10.0	5_exp_noRW	40	Rpleas_acq	CS_A	DXXD	ZHHZ	CPPC	JQQJ	LWWL	YFFY	träumen	sonnig	gütig	küssen	genießen	vertrauen	töten	sterben	gierig	krank	gemein	versagen	53pct	acq_USunple_CSpleas1_noRW	acq1_noRW	1	36	0	0	300	300	418	46	0	1	1	blank2r.bmp	0	1	+	0	1	blank2r.bmp	252	1	DXXD	306	2	sterben	559	0	0	0	0	0	0	0	0	0	0	0	0	0	0	0	0	0	0	0	0	0	0	0	0	0	0	0	0	0	0	0	0	0	0	0	0	0	0	0
071019	12:53:43	12:55:56	132465	5.0.10.0	5_exp_noRW	40	Rpleas_acq	CS_A	DXXD	ZHHZ	CPPC	JQQJ	LWWL	YFFY	träumen	sonnig	gütig	küssen	genießen	vertrauen	töten	sterben	gierig	krank	gemein	versagen	53pct	acq_USunple_CSunple1_noRW	acq1_noRW	1	37	0	0	300	300	414	46	0	1	1	blank2r.bmp	0	1	+	0	1	blank2r.bmp	252	1	CPPC	306	2	sterben	559	0	0	0	0	0	0	0	0	0	0	0	0	0	0	0	0	0	0	0	0	0	0	0	0	0	0	0	0	0	0	0	0	0	0	0	0	0	0	0
071019	12:53:43	12:55:58	134038	5.0.10.0	5_exp_noRW	40	Rpleas_acq	CS_A	DXXD	ZHHZ	CPPC	JQQJ	LWWL	YFFY	träumen	sonnig	gütig	küssen	genießen	vertrauen	töten	sterben	gierig	krank	gemein	versagen	47pct	acq_USpleas_CSunple2_noRW	acq1_noRW	1	38	0	0	300	300	398	50	0	1	1	blank2r.bmp	0	1	+	0	1	blank2r.bmp	252	1	JQQJ	306	1	küssen	559	0	0	0	0	0	0	0	0	0	0	0	0	0	0	0	0	0	0	0	0	0	0	0	0	0	0	0	0	0	0	0	0	0	0	0	0	0	0	0
071019	12:53:43	12:56:00	135650	5.0.10.0	5_exp_noRW	40	Rpleas_acq	CS_A	DXXD	ZHHZ	CPPC	JQQJ	LWWL	YFFY	träumen	sonnig	gütig	küssen	genießen	vertrauen	töten	sterben	gierig	krank	gemein	versagen	47pct	acq_USpleas_CSpleas2_noRW	acq1_noRW	1	39	0	0	300	300	449	50	0	1	1	blank2r.bmp	0	1	+	0	1	blank2r.bmp	252	1	ZHHZ	306	3	vertrauen	559	0	0	0	0	0	0	0	0	0	0	0	0	0	0	0	0	0	0	0	0	0	0	0	0	0	0	0	0	0	0	0	0	0	0	0	0	0	0	0
071019	12:53:43	12:56:02	137676	5.0.10.0	5_exp_noRW	40	Rpleas_acq	CS_A	DXXD	ZHHZ	CPPC	JQQJ	LWWL	YFFY	träumen	sonnig	gütig	küssen	genießen	vertrauen	töten	sterben	gierig	krank	gemein	versagen	47pct	acq_USunple_CSunple2_noRW	acq1_noRW	1	40	0	0	300	300	850	46	0	1	1	blank2r.bmp	0	1	+	0	1	blank2r.bmp	252	1	JQQJ	306	2	gemein	559	0	0	0	0	0	0	0	0	0	0	0	0	0	0	0	0	0	0	0	0	0	0	0	0	0	0	0	0	0	0	0	0	0	0	0	0	0	0	0
071019	12:53:43	12:56:03	139302	5.0.10.0	5_exp_noRW	40	Rpleas_acq	CS_A	DXXD	ZHHZ	CPPC	JQQJ	LWWL	YFFY	träumen	sonnig	gütig	küssen	genießen	vertrauen	töten	sterben	gierig	krank	gemein	versagen	53pct	acq_USunple_CSunple2_noRW	acq1_noRW	1	41	0	0	300	300	445	46	0	1	1	blank2r.bmp	0	1	+	0	1	blank2r.bmp	252	1	JQQJ	306	1	krank	559	0	0	0	0	0	0	0	0	0	0	0	0	0	0	0	0	0	0	0	0	0	0	0	0	0	0	0	0	0	0	0	0	0	0	0	0	0	0	0
071019	12:53:43	12:56:05	140782	5.0.10.0	5_exp_noRW	40	Rpleas_acq	CS_A	DXXD	ZHHZ	CPPC	JQQJ	LWWL	YFFY	träumen	sonnig	gütig	küssen	genießen	vertrauen	töten	sterben	gierig	krank	gemein	versagen	53pct	acq_USunple_CSpleas2_noRW	acq1_noRW	1	42	0	0	300	300	300	46	0	1	1	blank2r.bmp	0	1	+	0	1	blank2r.bmp	252	1	ZHHZ	306	1	krank	559	0	0	0	0	0	0	0	0	0	0	0	0	0	0	0	0	0	0	0	0	0	0	0	0	0	0	0	0	0	0	0	0	0	0	0	0	0	0	0
071019	12:53:43	12:56:06	142421	5.0.10.0	5_exp_noRW	40	Rpleas_acq	CS_A	DXXD	ZHHZ	CPPC	JQQJ	LWWL	YFFY	träumen	sonnig	gütig	küssen	genießen	vertrauen	töten	sterben	gierig	krank	gemein	versagen	53pct	acq_USpleas_CSpleas1_noRW	acq1_noRW	1	43	0	0	300	300	458	50	0	1	1	blank2r.bmp	0	1	+	0	1	blank2r.bmp	252	1	DXXD	306	1	träumen	559	0	0	0	0	0	0	0	0	0	0	0	0	0	0	0	0	0	0	0	0	0	0	0	0	0	0	0	0	0	0	0	0	0	0	0	0	0	0	0
071019	12:53:43	12:56:08	144034	5.0.10.0	5_exp_noRW	40	Rpleas_acq	CS_A	DXXD	ZHHZ	CPPC	JQQJ	LWWL	YFFY	träumen	sonnig	gütig	küssen	genießen	vertrauen	töten	sterben	gierig	krank	gemein	versagen	47pct	acq_USunple_CSpleas1_noRW	acq1_noRW	1	44	0	0	300	300	428	46	0	1	1	blank2r.bmp	0	1	+	0	1	blank2r.bmp	252	1	DXXD	306	3	gierig	559	0	0	0	0	0	0	0	0	0	0	0	0	0	0	0	0	0	0	0	0	0	0	0	0	0	0	0	0	0	0	0	0	0	0	0	0	0	0	0
071019	12:53:43	12:56:10	145633	5.0.10.0	5_exp_noRW	40	Rpleas_acq	CS_A	DXXD	ZHHZ	CPPC	JQQJ	LWWL	YFFY	träumen	sonnig	gütig	küssen	genießen	vertrauen	töten	sterben	gierig	krank	gemein	versagen	53pct	acq_USpleas_CSpleas1_noRW	acq1_noRW	1	45	0	0	300	300	421	50	0	1	1	blank2r.bmp	0	1	+	0	1	blank2r.bmp	252	1	DXXD	306	1	träumen	559	0	0	0	0	0	0	0	0	0	0	0	0	0	0	0	0	0	0	0	0	0	0	0	0	0	0	0	0	0	0	0	0	0	0	0	0	0	0	0
071019	12:53:43	12:56:11	147472	5.0.10.0	5_exp_noRW	40	Rpleas_acq	CS_A	DXXD	ZHHZ	CPPC	JQQJ	LWWL	YFFY	träumen	sonnig	gütig	küssen	genießen	vertrauen	töten	sterben	gierig	krank	gemein	versagen	47pct	acq_USunple_CSunple2_noRW	acq1_noRW	1	46	0	0	300	300	662	46	0	1	1	blank2r.bmp	0	1	+	0	1	blank2r.bmp	252	1	JQQJ	306	2	gemein	559	0	0	0	0	0	0	0	0	0	0	0	0	0	0	0	0	0	0	0	0	0	0	0	0	0	0	0	0	0	0	0	0	0	0	0	0	0	0	0
071019	12:53:43	12:56:13	149125	5.0.10.0	5_exp_noRW	40	Rpleas_acq	CS_A	DXXD	ZHHZ	CPPC	JQQJ	LWWL	YFFY	träumen	sonnig	gütig	küssen	genießen	vertrauen	töten	sterben	gierig	krank	gemein	versagen	53pct	acq_USunple_CSunple1_noRW	acq1_noRW	1	47	0	0	300	300	470	46	0	1	1	blank2r.bmp	0	1	+	0	1	blank2r.bmp	252	1	CPPC	306	1	töten	559	0	0	0	0	0	0	0	0	0	0	0	0	0	0	0	0	0	0	0	0	0	0	0	0	0	0	0	0	0	0	0	0	0	0	0	0	0	0	0
071019	12:53:43	12:56:15	150764	5.0.10.0	5_exp_noRW	40	Rpleas_acq	CS_A	DXXD	ZHHZ	CPPC	JQQJ	LWWL	YFFY	träumen	sonnig	gütig	küssen	genießen	vertrauen	töten	sterben	gierig	krank	gemein	versagen	47pct	acq_USpleas_CSpleas1_noRW	acq1_noRW	1	48	0	0	300	300	471	50	0	1	1	blank2r.bmp	0	1	+	0	1	blank2r.bmp	252	1	DXXD	306	3	gütig	559	0	0	0	0	0	0	0	0	0	0	0	0	0	0	0	0	0	0	0	0	0	0	0	0	0	0	0	0	0	0	0	0	0	0	0	0	0	0	0
071019	12:53:43	12:56:17	152683	5.0.10.0	5_exp_noRW	40	Rpleas_acq	CS_A	DXXD	ZHHZ	CPPC	JQQJ	LWWL	YFFY	träumen	sonnig	gütig	küssen	genießen	vertrauen	töten	sterben	gierig	krank	gemein	versagen	47pct	acq_USunple_CSunple1_noRW	acq1_noRW	1	49	0	0	300	300	544	50	0	0	1	blank2r.bmp	0	1	+	0	1	blank2r.bmp	252	1	CPPC	306	2	sterben	559	1	FEHLER	1132	0	0	0	0	0	0	0	0	0	0	0	0	0	0	0	0	0	0	0	0	0	0	0	0	0	0	0	0	0	0	0	0	0	0	0	0
071019	12:53:43	12:56:18	154469	5.0.10.0	5_exp_noRW	40	Rpleas_acq	CS_A	DXXD	ZHHZ	CPPC	JQQJ	LWWL	YFFY	träumen	sonnig	gütig	küssen	genießen	vertrauen	töten	sterben	gierig	krank	gemein	versagen	47pct	acq_USpleas_CSpleas2_noRW	acq1_noRW	1	50	0	0	300	300	823	50	0	1	1	blank2r.bmp	0	1	+	0	1	blank2r.bmp	252	1	ZHHZ	306	2	genießen	559	0	0	0	0	0	0	0	0	0	0	0	0	0	0	0	0	0	0	0	0	0	0	0	0	0	0	0	0	0	0	0	0	0	0	0	0	0	0	0
071019	12:53:43	12:56:20	156042	5.0.10.0	5_exp_noRW	40	Rpleas_acq	CS_A	DXXD	ZHHZ	CPPC	JQQJ	LWWL	YFFY	träumen	sonnig	gütig	küssen	genießen	vertrauen	töten	sterben	gierig	krank	gemein	versagen	53pct	acq_USunple_CSunple1_noRW	acq1_noRW	1	51	0	0	300	300	395	46	0	1	1	blank2r.bmp	0	1	+	0	1	blank2r.bmp	252	1	CPPC	306	3	gierig	559	0	0	0	0	0	0	0	0	0	0	0	0	0	0	0	0	0	0	0	0	0	0	0	0	0	0	0	0	0	0	0	0	0	0	0	0	0	0	0
071019	12:53:43	12:56:22	157908	5.0.10.0	5_exp_noRW	40	Rpleas_acq	CS_A	DXXD	ZHHZ	CPPC	JQQJ	LWWL	YFFY	träumen	sonnig	gütig	küssen	genießen	vertrauen	töten	sterben	gierig	krank	gemein	versagen	47pct	acq_USpleas_CSpleas1_noRW	acq1_noRW	1	52	0	0	300	300	685	50	0	1	1	blank2r.bmp	0	1	+	0	1	blank2r.bmp	252	1	DXXD	306	2	sonnig	559	0	0	0	0	0	0	0	0	0	0	0	0	0	0	0	0	0	0	0	0	0	0	0	0	0	0	0	0	0	0	0	0	0	0	0	0	0	0	0
071019	12:53:43	12:56:23	159521	5.0.10.0	5_exp_noRW	40	Rpleas_acq	CS_A	DXXD	ZHHZ	CPPC	JQQJ	LWWL	YFFY	träumen	sonnig	gütig	küssen	genießen	vertrauen	töten	sterben	gierig	krank	gemein	versagen	47pct	acq_USunple_CSunple2_noRW	acq1_noRW	1	53	0	0	300	300	449	46	0	1	1	blank2r.bmp	0	1	+	0	1	blank2r.bmp	252	1	JQQJ	306	1	krank	559	0	0	0	0	0	0	0	0	0	0	0	0	0	0	0	0	0	0	0	0	0	0	0	0	0	0	0	0	0	0	0	0	0	0	0	0	0	0	0
071019	12:53:43	12:56:25	161307	5.0.10.0	5_exp_noRW	40	Rpleas_acq	CS_A	DXXD	ZHHZ	CPPC	JQQJ	LWWL	YFFY	träumen	sonnig	gütig	küssen	genießen	vertrauen	töten	sterben	gierig	krank	gemein	versagen	47pct	acq_USpleas_CSpleas2_noRW	acq1_noRW	1	54	0	0	300	300	607	50	0	1	1	blank2r.bmp	0	1	+	0	1	blank2r.bmp	252	1	ZHHZ	306	3	vertrauen	559	0	0	0	0	0	0	0	0	0	0	0	0	0	0	0	0	0	0	0	0	0	0	0	0	0	0	0	0	0	0	0	0	0	0	0	0	0	0	0
071019	12:53:43	12:56:27	162919	5.0.10.0	5_exp_noRW	40	Rpleas_acq	CS_A	DXXD	ZHHZ	CPPC	JQQJ	LWWL	YFFY	träumen	sonnig	gütig	küssen	genießen	vertrauen	töten	sterben	gierig	krank	gemein	versagen	47pct	acq_USpleas_CSunple1_noRW	acq1_noRW	1	55	0	0	300	300	450	50	0	1	1	blank2r.bmp	0	1	+	0	1	blank2r.bmp	252	1	CPPC	306	2	sonnig	559	0	0	0	0	0	0	0	0	0	0	0	0	0	0	0	0	0	0	0	0	0	0	0	0	0	0	0	0	0	0	0	0	0	0	0	0	0	0	0
071019	12:53:43	12:56:28	164545	5.0.10.0	5_exp_noRW	40	Rpleas_acq	CS_A	DXXD	ZHHZ	CPPC	JQQJ	LWWL	YFFY	träumen	sonnig	gütig	küssen	genießen	vertrauen	töten	sterben	gierig	krank	gemein	versagen	53pct	acq_USpleas_CSpleas2_noRW	acq1_noRW	1	56	0	0	300	300	440	50	0	1	1	blank2r.bmp	0	1	+	0	1	blank2r.bmp	252	1	ZHHZ	306	1	küssen	559	0	0	0	0	0	0	0	0	0	0	0	0	0	0	0	0	0	0	0	0	0	0	0	0	0	0	0	0	0	0	0	0	0	0	0	0	0	0	0
071019	12:53:43	12:56:30	166158	5.0.10.0	5_exp_noRW	40	Rpleas_acq	CS_A	DXXD	ZHHZ	CPPC	JQQJ	LWWL	YFFY	träumen	sonnig	gütig	küssen	genießen	vertrauen	töten	sterben	gierig	krank	gemein	versagen	53pct	acq_USpleas_CSunple2_noRW	acq1_noRW	1	57	0	0	300	300	429	50	0	1	1	blank2r.bmp	0	1	+	0	1	blank2r.bmp	252	1	JQQJ	306	3	vertrauen	559	0	0	0	0	0	0	0	0	0	0	0	0	0	0	0	0	0	0	0	0	0	0	0	0	0	0	0	0	0	0	0	0	0	0	0	0	0	0	0
071019	12:53:43	12:56:32	168024	5.0.10.0	5_exp_noRW	40	Rpleas_acq	CS_A	DXXD	ZHHZ	CPPC	JQQJ	LWWL	YFFY	träumen	sonnig	gütig	küssen	genießen	vertrauen	töten	sterben	gierig	krank	gemein	versagen	53pct	acq_USunple_CSunple2_noRW	acq1_noRW	1	58	0	0	300	300	693	46	0	1	1	blank2r.bmp	0	1	+	0	1	blank2r.bmp	252	1	JQQJ	306	3	versagen	559	0	0	0	0	0	0	0	0	0	0	0	0	0	0	0	0	0	0	0	0	0	0	0	0	0	0	0	0	0	0	0	0	0	0	0	0	0	0	0
071019	12:53:43	12:56:34	169756	5.0.10.0	5_exp_noRW	40	Rpleas_acq	CS_A	DXXD	ZHHZ	CPPC	JQQJ	LWWL	YFFY	träumen	sonnig	gütig	küssen	genießen	vertrauen	töten	sterben	gierig	krank	gemein	versagen	47pct	acq_USunple_CSunple1_noRW	acq1_noRW	1	59	0	0	300	300	553	46	0	1	1	blank2r.bmp	0	1	+	0	1	blank2r.bmp	252	1	CPPC	306	1	töten	559	0	0	0	0	0	0	0	0	0	0	0	0	0	0	0	0	0	0	0	0	0	0	0	0	0	0	0	0	0	0	0	0	0	0	0	0	0	0	0
071019	12:53:43	12:56:35	171396	5.0.10.0	5_exp_noRW	40	Rpleas_acq	CS_A	DXXD	ZHHZ	CPPC	JQQJ	LWWL	YFFY	träumen	sonnig	gütig	küssen	genießen	vertrauen	töten	sterben	gierig	krank	gemein	versagen	47pct	acq_USpleas_CSpleas2_noRW	acq1_noRW	1	60	0	0	300	300	457	50	0	1	1	blank2r.bmp	0	1	+	0	1	blank2r.bmp	252	1	ZHHZ	306	2	genießen	559	0	0	0	0	0	0	0	0	0	0	0	0	0	0	0	0	0	0	0	0	0	0	0	0	0	0	0	0	0	0	0	0	0	0	0	0	0	0	0
071019	12:53:43	12:56:37	173088	5.0.10.0	5_exp_noRW	40	Rpleas_acq	CS_A	DXXD	ZHHZ	CPPC	JQQJ	LWWL	YFFY	träumen	sonnig	gütig	küssen	genießen	vertrauen	töten	sterben	gierig	krank	gemein	versagen	47pct	acq_USunple_CSpleas2_noRW	acq1_noRW	1	61	0	0	300	300	517	46	0	1	1	blank2r.bmp	0	1	+	0	1	blank2r.bmp	252	1	ZHHZ	306	3	versagen	559	0	0	0	0	0	0	0	0	0	0	0	0	0	0	0	0	0	0	0	0	0	0	0	0	0	0	0	0	0	0	0	0	0	0	0	0	0	0	0
071019	12:53:43	12:56:39	174754	5.0.10.0	5_exp_noRW	40	Rpleas_acq	CS_A	DXXD	ZHHZ	CPPC	JQQJ	LWWL	YFFY	träumen	sonnig	gütig	küssen	genießen	vertrauen	töten	sterben	gierig	krank	gemein	versagen	47pct	acq_USunple_CSunple1_noRW	acq1_noRW	1	62	0	0	300	300	484	46	0	1	1	blank2r.bmp	0	1	+	0	1	blank2r.bmp	252	1	CPPC	306	2	sterben	559	0	0	0	0	0	0	0	0	0	0	0	0	0	0	0	0	0	0	0	0	0	0	0	0	0	0	0	0	0	0	0	0	0	0	0	0	0	0	0
071019	12:53:43	12:56:40	176447	5.0.10.0	5_exp_noRW	40	Rpleas_acq	CS_A	DXXD	ZHHZ	CPPC	JQQJ	LWWL	YFFY	träumen	sonnig	gütig	küssen	genießen	vertrauen	töten	sterben	gierig	krank	gemein	versagen	47pct	acq_USunple_CSunple1_noRW	acq1_noRW	1	63	0	0	300	300	521	46	0	1	1	blank2r.bmp	0	1	+	0	1	blank2r.bmp	252	1	CPPC	306	3	gierig	559	0	0	0	0	0	0	0	0	0	0	0	0	0	0	0	0	0	0	0	0	0	0	0	0	0	0	0	0	0	0	0	0	0	0	0	0	0	0	0
071019	12:53:43	12:56:42	178153	5.0.10.0	5_exp_noRW	40	Rpleas_acq	CS_A	DXXD	ZHHZ	CPPC	JQQJ	LWWL	YFFY	träumen	sonnig	gütig	küssen	genießen	vertrauen	töten	sterben	gierig	krank	gemein	versagen	47pct	acq_USpleas_CSpleas1_noRW	acq1_noRW	1	64	0	0	300	300	527	50	0	1	1	blank2r.bmp	0	1	+	0	1	blank2r.bmp	252	1	DXXD	306	1	träumen	559	0	0	0	0	0	0	0	0	0	0	0	0	0	0	0	0	0	0	0	0	0	0	0	0	0	0	0	0	0	0	0	0	0	0	0	0	0	0	0
071019	12:53:43	12:56:44	179792	5.0.10.0	5_exp_noRW	40	Rpleas_acq	CS_A	DXXD	ZHHZ	CPPC	JQQJ	LWWL	YFFY	träumen	sonnig	gütig	küssen	genießen	vertrauen	töten	sterben	gierig	krank	gemein	versagen	47pct	acq_USunple_CSunple1_noRW	acq1_noRW	1	65	0	0	300	300	472	46	0	1	1	blank2r.bmp	0	1	+	0	1	blank2r.bmp	252	1	CPPC	306	1	töten	559	0	0	0	0	0	0	0	0	0	0	0	0	0	0	0	0	0	0	0	0	0	0	0	0	0	0	0	0	0	0	0	0	0	0	0	0	0	0	0
071019	12:53:43	12:56:45	181538	5.0.10.0	5_exp_noRW	40	Rpleas_acq	CS_A	DXXD	ZHHZ	CPPC	JQQJ	LWWL	YFFY	träumen	sonnig	gütig	küssen	genießen	vertrauen	töten	sterben	gierig	krank	gemein	versagen	47pct	acq_USunple_CSunple1_noRW	acq1_noRW	1	66	0	0	300	300	576	46	0	1	1	blank2r.bmp	0	1	+	0	1	blank2r.bmp	252	1	CPPC	306	3	gierig	559	0	0	0	0	0	0	0	0	0	0	0	0	0	0	0	0	0	0	0	0	0	0	0	0	0	0	0	0	0	0	0	0	0	0	0	0	0	0	0
071019	12:53:43	12:56:47	183204	5.0.10.0	5_exp_noRW	40	Rpleas_acq	CS_A	DXXD	ZHHZ	CPPC	JQQJ	LWWL	YFFY	träumen	sonnig	gütig	küssen	genießen	vertrauen	töten	sterben	gierig	krank	gemein	versagen	53pct	acq_USpleas_CSpleas1_noRW	acq1_noRW	1	67	0	0	300	300	501	50	0	1	1	blank2r.bmp	0	1	+	0	1	blank2r.bmp	252	1	DXXD	306	3	gütig	559	0	0	0	0	0	0	0	0	0	0	0	0	0	0	0	0	0	0	0	0	0	0	0	0	0	0	0	0	0	0	0	0	0	0	0	0	0	0	0
071019	12:53:43	12:56:49	185017	5.0.10.0	5_exp_noRW	40	Rpleas_acq	CS_A	DXXD	ZHHZ	CPPC	JQQJ	LWWL	YFFY	träumen	sonnig	gütig	küssen	genießen	vertrauen	töten	sterben	gierig	krank	gemein	versagen	47pct	acq_USpleas_CSunple1_noRW	acq1_noRW	1	68	0	0	300	300	628	50	0	1	1	blank2r.bmp	0	1	+	0	1	blank2r.bmp	252	1	CPPC	306	1	träumen	559	0	0	0	0	0	0	0	0	0	0	0	0	0	0	0	0	0	0	0	0	0	0	0	0	0	0	0	0	0	0	0	0	0	0	0	0	0	0	0
071019	12:53:43	12:56:51	186683	5.0.10.0	5_exp_noRW	40	Rpleas_acq	CS_A	DXXD	ZHHZ	CPPC	JQQJ	LWWL	YFFY	träumen	sonnig	gütig	küssen	genießen	vertrauen	töten	sterben	gierig	krank	gemein	versagen	47pct	acq_USpleas_CSpleas1_noRW	acq1_noRW	1	69	0	0	300	300	501	50	0	1	1	blank2r.bmp	0	1	+	0	1	blank2r.bmp	252	1	DXXD	306	2	sonnig	559	0	0	0	0	0	0	0	0	0	0	0	0	0	0	0	0	0	0	0	0	0	0	0	0	0	0	0	0	0	0	0	0	0	0	0	0	0	0	0
071019	12:53:43	12:56:52	188429	5.0.10.0	5_exp_noRW	40	Rpleas_acq	CS_A	DXXD	ZHHZ	CPPC	JQQJ	LWWL	YFFY	träumen	sonnig	gütig	küssen	genießen	vertrauen	töten	sterben	gierig	krank	gemein	versagen	53pct	acq_USpleas_CSunple2_noRW	acq1_noRW	1	70	0	0	300	300	562	50	0	1	1	blank2r.bmp	0	1	+	0	1	blank2r.bmp	252	1	JQQJ	306	3	vertrauen	559	0	0	0	0	0	0	0	0	0	0	0	0	0	0	0	0	0	0	0	0	0	0	0	0	0	0	0	0	0	0	0	0	0	0	0	0	0	0	0
071019	12:53:43	12:56:54	190095	5.0.10.0	5_exp_noRW	40	Rpleas_acq	CS_A	DXXD	ZHHZ	CPPC	JQQJ	LWWL	YFFY	träumen	sonnig	gütig	küssen	genießen	vertrauen	töten	sterben	gierig	krank	gemein	versagen	47pct	acq_USunple_CSunple2_noRW	acq1_noRW	1	71	0	0	300	300	488	46	0	1	1	blank2r.bmp	0	1	+	0	1	blank2r.bmp	252	1	JQQJ	306	2	gemein	559	0	0	0	0	0	0	0	0	0	0	0	0	0	0	0	0	0	0	0	0	0	0	0	0	0	0	0	0	0	0	0	0	0	0	0	0	0	0	0
071019	12:53:43	12:56:56	191747	5.0.10.0	5_exp_noRW	40	Rpleas_acq	CS_A	DXXD	ZHHZ	CPPC	JQQJ	LWWL	YFFY	träumen	sonnig	gütig	küssen	genießen	vertrauen	töten	sterben	gierig	krank	gemein	versagen	47pct	acq_USpleas_CSpleas2_noRW	acq1_noRW	1	72	0	0	300	300	474	50	0	1	1	blank2r.bmp	0	1	+	0	1	blank2r.bmp	252	1	ZHHZ	306	2	genießen	559	0	0	0	0	0	0	0	0	0	0	0	0	0	0	0	0	0	0	0	0	0	0	0	0	0	0	0	0	0	0	0	0	0	0	0	0	0	0	0
071019	12:53:43	12:56:57	193467	5.0.10.0	5_exp_noRW	40	Rpleas_acq	CS_A	DXXD	ZHHZ	CPPC	JQQJ	LWWL	YFFY	träumen	sonnig	gütig	küssen	genießen	vertrauen	töten	sterben	gierig	krank	gemein	versagen	53pct	acq_USunple_CSunple2_noRW	acq1_noRW	1	73	0	0	300	300	542	46	0	1	1	blank2r.bmp	0	1	+	0	1	blank2r.bmp	252	1	JQQJ	306	3	versagen	559	0	0	0	0	0	0	0	0	0	0	0	0	0	0	0	0	0	0	0	0	0	0	0	0	0	0	0	0	0	0	0	0	0	0	0	0	0	0	0
071019	12:53:43	12:56:59	195119	5.0.10.0	5_exp_noRW	40	Rpleas_acq	CS_A	DXXD	ZHHZ	CPPC	JQQJ	LWWL	YFFY	träumen	sonnig	gütig	küssen	genießen	vertrauen	töten	sterben	gierig	krank	gemein	versagen	53pct	acq_USunple_CSpleas1_noRW	acq1_noRW	1	74	0	0	300	300	470	46	0	1	1	blank2r.bmp	0	1	+	0	1	blank2r.bmp	252	1	DXXD	306	2	sterben	559	0	0	0	0	0	0	0	0	0	0	0	0	0	0	0	0	0	0	0	0	0	0	0	0	0	0	0	0	0	0	0	0	0	0	0	0	0	0	0
071019	12:53:43	12:57:01	196705	5.0.10.0	5_exp_noRW	40	Rpleas_acq	CS_A	DXXD	ZHHZ	CPPC	JQQJ	LWWL	YFFY	träumen	sonnig	gütig	küssen	genießen	vertrauen	töten	sterben	gierig	krank	gemein	versagen	47pct	acq_USunple_CSunple2_noRW	acq1_noRW	1	75	0	0	300	300	401	46	0	1	1	blank2r.bmp	0	1	+	0	1	blank2r.bmp	252	1	JQQJ	306	1	krank	559	0	0	0	0	0	0	0	0	0	0	0	0	0	0	0	0	0	0	0	0	0	0	0	0	0	0	0	0	0	0	0	0	0	0	0	0	0	0	0
071019	12:53:43	12:57:02	198491	5.0.10.0	5_exp_noRW	40	Rpleas_acq	CS_A	DXXD	ZHHZ	CPPC	JQQJ	LWWL	YFFY	träumen	sonnig	gütig	küssen	genießen	vertrauen	töten	sterben	gierig	krank	gemein	versagen	53pct	acq_USpleas_CSpleas1_noRW	acq1_noRW	1	76	0	0	300	300	615	50	0	1	1	blank2r.bmp	0	1	+	0	1	blank2r.bmp	252	1	DXXD	306	3	gütig	559	0	0	0	0	0	0	0	0	0	0	0	0	0	0	0	0	0	0	0	0	0	0	0	0	0	0	0	0	0	0	0	0	0	0	0	0	0	0	0
071019	12:53:43	12:57:04	200437	5.0.10.0	5_exp_noRW	40	Rpleas_acq	CS_A	DXXD	ZHHZ	CPPC	JQQJ	LWWL	YFFY	träumen	sonnig	gütig	küssen	genießen	vertrauen	töten	sterben	gierig	krank	gemein	versagen	53pct	acq_USpleas_CSpleas2_noRW	acq1_noRW	1	77	0	0	300	300	765	50	0	1	1	blank2r.bmp	0	1	+	0	1	blank2r.bmp	252	1	ZHHZ	306	1	küssen	559	0	0	0	0	0	0	0	0	0	0	0	0	0	0	0	0	0	0	0	0	0	0	0	0	0	0	0	0	0	0	0	0	0	0	0	0	0	0	0
071019	12:53:43	12:57:06	202063	5.0.10.0	5_exp_noRW	40	Rpleas_acq	CS_A	DXXD	ZHHZ	CPPC	JQQJ	LWWL	YFFY	träumen	sonnig	gütig	küssen	genießen	vertrauen	töten	sterben	gierig	krank	gemein	versagen	53pct	acq_USpleas_CSpleas2_noRW	acq1_noRW	1	78	0	0	300	300	438	50	0	1	1	blank2r.bmp	0	1	+	0	1	blank2r.bmp	252	1	ZHHZ	306	3	vertrauen	559	0	0	0	0	0	0	0	0	0	0	0	0	0	0	0	0	0	0	0	0	0	0	0	0	0	0	0	0	0	0	0	0	0	0	0	0	0	0	0
071019	12:53:43	12:57:08	203663	5.0.10.0	5_exp_noRW	40	Rpleas_acq	CS_A	DXXD	ZHHZ	CPPC	JQQJ	LWWL	YFFY	träumen	sonnig	gütig	küssen	genießen	vertrauen	töten	sterben	gierig	krank	gemein	versagen	47pct	acq_USpleas_CSpleas2_noRW	acq1_noRW	1	79	0	0	300	300	426	50	0	1	1	blank2r.bmp	0	1	+	0	1	blank2r.bmp	252	1	ZHHZ	306	3	vertrauen	559	0	0	0	0	0	0	0	0	0	0	0	0	0	0	0	0	0	0	0	0	0	0	0	0	0	0	0	0	0	0	0	0	0	0	0	0	0	0	0
071019	12:53:43	12:57:09	205449	5.0.10.0	5_exp_noRW	40	Rpleas_acq	CS_A	DXXD	ZHHZ	CPPC	JQQJ	LWWL	YFFY	träumen	sonnig	gütig	küssen	genießen	vertrauen	töten	sterben	gierig	krank	gemein	versagen	53pct	acq_USunple_CSunple2_noRW	acq1_noRW	1	80	0	0	300	300	623	46	0	1	1	blank2r.bmp	0	1	+	0	1	blank2r.bmp	252	1	JQQJ	306	3	versagen	559	0	0	0	0	0	0	0	0	0	0	0	0	0	0	0	0	0	0	0	0	0	0	0	0	0	0	0	0	0	0	0	0	0	0	0	0	0	0	0
071019	12:53:43	12:57:25	221349	5.0.10.0	5_exp_noRW	40	Rpleas_acq	CS_A	DXXD	ZHHZ	CPPC	JQQJ	LWWL	YFFY	träumen	sonnig	gütig	küssen	genießen	vertrauen	töten	sterben	gierig	krank	gemein	versagen	47pct	acq_USpleas_CSpleas1_noRW	acq23456_noRW	2	1	0	0	300	300	504	50	0	1	1	blank2r.bmp	0	1	+	0	1	blank2r.bmp	252	1	DXXD	306	1	träumen	559	0	0	0	0	0	0	0	0	0	0	0	0	0	0	0	0	0	0	0	0	0	0	0	0	0	0	0	0	0	0	0	0	0	0	0	0	0	0	0
071019	12:53:43	12:57:27	222908	5.0.10.0	5_exp_noRW	40	Rpleas_acq	CS_A	DXXD	ZHHZ	CPPC	JQQJ	LWWL	YFFY	träumen	sonnig	gütig	küssen	genießen	vertrauen	töten	sterben	gierig	krank	gemein	versagen	47pct	acq_USpleas_CSpleas2_noRW	acq23456_noRW	2	2	0	0	300	300	391	50	0	1	1	blank2r.bmp	0	1	+	0	1	blank2r.bmp	252	1	ZHHZ	306	1	küssen	559	0	0	0	0	0	0	0	0	0	0	0	0	0	0	0	0	0	0	0	0	0	0	0	0	0	0	0	0	0	0	0	0	0	0	0	0	0	0	0
071019	12:53:43	12:57:28	224467	5.0.10.0	5_exp_noRW	40	Rpleas_acq	CS_A	DXXD	ZHHZ	CPPC	JQQJ	LWWL	YFFY	träumen	sonnig	gütig	küssen	genießen	vertrauen	töten	sterben	gierig	krank	gemein	versagen	47pct	acq_USunple_CSunple1_noRW	acq23456_noRW	2	3	0	0	300	300	393	46	0	1	1	blank2r.bmp	0	1	+	0	1	blank2r.bmp	252	1	CPPC	306	1	töten	559	0	0	0	0	0	0	0	0	0	0	0	0	0	0	0	0	0	0	0	0	0	0	0	0	0	0	0	0	0	0	0	0	0	0	0	0	0	0	0
071019	12:53:43	12:57:30	225947	5.0.10.0	5_exp_noRW	40	Rpleas_acq	CS_A	DXXD	ZHHZ	CPPC	JQQJ	LWWL	YFFY	träumen	sonnig	gütig	küssen	genießen	vertrauen	töten	sterben	gierig	krank	gemein	versagen	47pct	acq_USunple_CSpleas1_noRW	acq23456_noRW	2	4	0	0	300	300	299	46	0	1	1	blank2r.bmp	0	1	+	0	1	blank2r.bmp	252	1	DXXD	306	1	töten	559	0	0	0	0	0	0	0	0	0	0	0	0	0	0	0	0	0	0	0	0	0	0	0	0	0	0	0	0	0	0	0	0	0	0	0	0	0	0	0
071019	12:53:43	12:57:31	227519	5.0.10.0	5_exp_noRW	40	Rpleas_acq	CS_A	DXXD	ZHHZ	CPPC	JQQJ	LWWL	YFFY	träumen	sonnig	gütig	küssen	genießen	vertrauen	töten	sterben	gierig	krank	gemein	versagen	47pct	acq_USunple_CSunple1_noRW	acq23456_noRW	2	5	0	0	300	300	387	46	0	1	1	blank2r.bmp	0	1	+	0	1	blank2r.bmp	252	1	CPPC	306	2	sterben	559	0	0	0	0	0	0	0	0	0	0	0	0	0	0	0	0	0	0	0	0	0	0	0	0	0	0	0	0	0	0	0	0	0	0	0	0	0	0	0
071019	12:53:43	12:57:33	229119	5.0.10.0	5_exp_noRW	40	Rpleas_acq	CS_A	DXXD	ZHHZ	CPPC	JQQJ	LWWL	YFFY	träumen	sonnig	gütig	küssen	genießen	vertrauen	töten	sterben	gierig	krank	gemein	versagen	53pct	acq_USpleas_CSpleas2_noRW	acq23456_noRW	2	6	0	0	300	300	429	50	0	1	1	blank2r.bmp	0	1	+	0	1	blank2r.bmp	252	1	ZHHZ	306	2	genießen	559	0	0	0	0	0	0	0	0	0	0	0	0	0	0	0	0	0	0	0	0	0	0	0	0	0	0	0	0	0	0	0	0	0	0	0	0	0	0	0
071019	12:53:43	12:57:35	230851	5.0.10.0	5_exp_noRW	40	Rpleas_acq	CS_A	DXXD	ZHHZ	CPPC	JQQJ	LWWL	YFFY	träumen	sonnig	gütig	küssen	genießen	vertrauen	töten	sterben	gierig	krank	gemein	versagen	53pct	acq_USpleas_CSpleas1_noRW	acq23456_noRW	2	7	0	0	300	300	562	50	0	1	1	blank2r.bmp	0	1	+	0	1	blank2r.bmp	252	1	DXXD	306	2	sonnig	559	0	0	0	0	0	0	0	0	0	0	0	0	0	0	0	0	0	0	0	0	0	0	0	0	0	0	0	0	0	0	0	0	0	0	0	0	0	0	0
071019	12:53:43	12:57:36	232464	5.0.10.0	5_exp_noRW	40	Rpleas_acq	CS_A	DXXD	ZHHZ	CPPC	JQQJ	LWWL	YFFY	träumen	sonnig	gütig	küssen	genießen	vertrauen	töten	sterben	gierig	krank	gemein	versagen	53pct	acq_USpleas_CSpleas2_noRW	acq23456_noRW	2	8	0	0	300	300	451	50	0	1	1	blank2r.bmp	0	1	+	0	1	blank2r.bmp	252	1	ZHHZ	306	3	vertrauen	559	0	0	0	0	0	0	0	0	0	0	0	0	0	0	0	0	0	0	0	0	0	0	0	0	0	0	0	0	0	0	0	0	0	0	0	0	0	0	0
071019	12:53:43	12:57:38	234023	5.0.10.0	5_exp_noRW	40	Rpleas_acq	CS_A	DXXD	ZHHZ	CPPC	JQQJ	LWWL	YFFY	träumen	sonnig	gütig	küssen	genießen	vertrauen	töten	sterben	gierig	krank	gemein	versagen	47pct	acq_USpleas_CSunple2_noRW	acq23456_noRW	2	9	0	0	300	300	382	50	0	1	1	blank2r.bmp	0	1	+	0	1	blank2r.bmp	252	1	JQQJ	306	1	küssen	559	0	0	0	0	0	0	0	0	0	0	0	0	0	0	0	0	0	0	0	0	0	0	0	0	0	0	0	0	0	0	0	0	0	0	0	0	0	0	0
071019	12:53:43	12:57:40	235623	5.0.10.0	5_exp_noRW	40	Rpleas_acq	CS_A	DXXD	ZHHZ	CPPC	JQQJ	LWWL	YFFY	träumen	sonnig	gütig	küssen	genießen	vertrauen	töten	sterben	gierig	krank	gemein	versagen	47pct	acq_USunple_CSunple2_noRW	acq23456_noRW	2	10	0	0	300	300	417	46	0	1	1	blank2r.bmp	0	1	+	0	1	blank2r.bmp	252	1	JQQJ	306	2	gemein	559	0	0	0	0	0	0	0	0	0	0	0	0	0	0	0	0	0	0	0	0	0	0	0	0	0	0	0	0	0	0	0	0	0	0	0	0	0	0	0
071019	12:53:43	12:57:41	237236	5.0.10.0	5_exp_noRW	40	Rpleas_acq	CS_A	DXXD	ZHHZ	CPPC	JQQJ	LWWL	YFFY	träumen	sonnig	gütig	küssen	genießen	vertrauen	töten	sterben	gierig	krank	gemein	versagen	53pct	acq_USpleas_CSpleas1_noRW	acq23456_noRW	2	11	0	0	300	300	441	50	0	1	1	blank2r.bmp	0	1	+	0	1	blank2r.bmp	252	1	DXXD	306	1	träumen	559	0	0	0	0	0	0	0	0	0	0	0	0	0	0	0	0	0	0	0	0	0	0	0	0	0	0	0	0	0	0	0	0	0	0	0	0	0	0	0
071019	12:53:43	12:57:43	238848	5.0.10.0	5_exp_noRW	40	Rpleas_acq	CS_A	DXXD	ZHHZ	CPPC	JQQJ	LWWL	YFFY	träumen	sonnig	gütig	küssen	genießen	vertrauen	töten	sterben	gierig	krank	gemein	versagen	47pct	acq_USpleas_CSunple1_noRW	acq23456_noRW	2	12	0	0	300	300	442	50	0	1	1	blank2r.bmp	0	1	+	0	1	blank2r.bmp	252	1	CPPC	306	2	sonnig	559	0	0	0	0	0	0	0	0	0	0	0	0	0	0	0	0	0	0	0	0	0	0	0	0	0	0	0	0	0	0	0	0	0	0	0	0	0	0	0
071019	12:53:43	12:57:45	240741	5.0.10.0	5_exp_noRW	40	Rpleas_acq	CS_A	DXXD	ZHHZ	CPPC	JQQJ	LWWL	YFFY	träumen	sonnig	gütig	küssen	genießen	vertrauen	töten	sterben	gierig	krank	gemein	versagen	53pct	acq_USpleas_CSpleas1_noRW	acq23456_noRW	2	13	0	0	300	300	496	46	0	0	1	blank2r.bmp	0	1	+	0	1	blank2r.bmp	252	1	DXXD	306	3	gütig	559	1	FEHLER	1092	0	0	0	0	0	0	0	0	0	0	0	0	0	0	0	0	0	0	0	0	0	0	0	0	0	0	0	0	0	0	0	0	0	0	0	0
071019	12:53:43	12:57:46	242380	5.0.10.0	5_exp_noRW	40	Rpleas_acq	CS_A	DXXD	ZHHZ	CPPC	JQQJ	LWWL	YFFY	träumen	sonnig	gütig	küssen	genießen	vertrauen	töten	sterben	gierig	krank	gemein	versagen	47pct	acq_USunple_CSunple2_noRW	acq23456_noRW	2	14	0	0	300	300	683	46	0	1	1	blank2r.bmp	0	1	+	0	1	blank2r.bmp	252	1	JQQJ	306	1	krank	559	0	0	0	0	0	0	0	0	0	0	0	0	0	0	0	0	0	0	0	0	0	0	0	0	0	0	0	0	0	0	0	0	0	0	0	0	0	0	0
071019	12:53:43	12:57:48	244073	5.0.10.0	5_exp_noRW	40	Rpleas_acq	CS_A	DXXD	ZHHZ	CPPC	JQQJ	LWWL	YFFY	träumen	sonnig	gütig	küssen	genießen	vertrauen	töten	sterben	gierig	krank	gemein	versagen	53pct	acq_USunple_CSunple1_noRW	acq23456_noRW	2	15	0	0	300	300	524	46	0	1	1	blank2r.bmp	0	1	+	0	1	blank2r.bmp	252	1	CPPC	306	1	töten	559	0	0	0	0	0	0	0	0	0	0	0	0	0	0	0	0	0	0	0	0	0	0	0	0	0	0	0	0	0	0	0	0	0	0	0	0	0	0	0
071019	12:53:43	12:57:50	245912	5.0.10.0	5_exp_noRW	40	Rpleas_acq	CS_A	DXXD	ZHHZ	CPPC	JQQJ	LWWL	YFFY	träumen	sonnig	gütig	küssen	genießen	vertrauen	töten	sterben	gierig	krank	gemein	versagen	53pct	acq_USunple_CSpleas2_noRW	acq23456_noRW	2	16	0	0	300	300	658	46	0	1	1	blank2r.bmp	0	1	+	0	1	blank2r.bmp	252	1	ZHHZ	306	2	gemein	559	0	0	0	0	0	0	0	0	0	0	0	0	0	0	0	0	0	0	0	0	0	0	0	0	0	0	0	0	0	0	0	0	0	0	0	0	0	0	0
071019	12:53:43	12:57:51	247538	5.0.10.0	5_exp_noRW	40	Rpleas_acq	CS_A	DXXD	ZHHZ	CPPC	JQQJ	LWWL	YFFY	träumen	sonnig	gütig	küssen	genießen	vertrauen	töten	sterben	gierig	krank	gemein	versagen	53pct	acq_USpleas_CSpleas2_noRW	acq23456_noRW	2	17	0	0	300	300	448	50	0	1	1	blank2r.bmp	0	1	+	0	1	blank2r.bmp	252	1	ZHHZ	306	1	küssen	559	0	0	0	0	0	0	0	0	0	0	0	0	0	0	0	0	0	0	0	0	0	0	0	0	0	0	0	0	0	0	0	0	0	0	0	0	0	0	0
071019	12:53:43	12:57:53	249364	5.0.10.0	5_exp_noRW	40	Rpleas_acq	CS_A	DXXD	ZHHZ	CPPC	JQQJ	LWWL	YFFY	träumen	sonnig	gütig	küssen	genießen	vertrauen	töten	sterben	gierig	krank	gemein	versagen	53pct	acq_USunple_CSunple2_noRW	acq23456_noRW	2	18	0	0	300	300	647	46	0	1	1	blank2r.bmp	0	1	+	0	1	blank2r.bmp	252	1	JQQJ	306	3	versagen	559	0	0	0	0	0	0	0	0	0	0	0	0	0	0	0	0	0	0	0	0	0	0	0	0	0	0	0	0	0	0	0	0	0	0	0	0	0	0	0
071019	12:53:43	12:57:55	250963	5.0.10.0	5_exp_noRW	40	Rpleas_acq	CS_A	DXXD	ZHHZ	CPPC	JQQJ	LWWL	YFFY	träumen	sonnig	gütig	küssen	genießen	vertrauen	töten	sterben	gierig	krank	gemein	versagen	53pct	acq_USunple_CSunple2_noRW	acq23456_noRW	2	19	0	0	300	300	417	46	0	1	1	blank2r.bmp	0	1	+	0	1	blank2r.bmp	252	1	JQQJ	306	1	krank	559	0	0	0	0	0	0	0	0	0	0	0	0	0	0	0	0	0	0	0	0	0	0	0	0	0	0	0	0	0	0	0	0	0	0	0	0	0	0	0
071019	12:53:43	12:57:56	252603	5.0.10.0	5_exp_noRW	40	Rpleas_acq	CS_A	DXXD	ZHHZ	CPPC	JQQJ	LWWL	YFFY	träumen	sonnig	gütig	küssen	genießen	vertrauen	töten	sterben	gierig	krank	gemein	versagen	47pct	acq_USunple_CSunple1_noRW	acq23456_noRW	2	20	0	0	300	300	472	46	0	1	1	blank2r.bmp	0	1	+	0	1	blank2r.bmp	252	1	CPPC	306	3	gierig	559	0	0	0	0	0	0	0	0	0	0	0	0	0	0	0	0	0	0	0	0	0	0	0	0	0	0	0	0	0	0	0	0	0	0	0	0	0	0	0
071019	12:53:43	12:57:58	254189	5.0.10.0	5_exp_noRW	40	Rpleas_acq	CS_A	DXXD	ZHHZ	CPPC	JQQJ	LWWL	YFFY	träumen	sonnig	gütig	küssen	genießen	vertrauen	töten	sterben	gierig	krank	gemein	versagen	47pct	acq_USunple_CSpleas2_noRW	acq23456_noRW	2	21	0	0	300	300	405	46	0	1	1	blank2r.bmp	0	1	+	0	1	blank2r.bmp	252	1	ZHHZ	306	1	krank	559	0	0	0	0	0	0	0	0	0	0	0	0	0	0	0	0	0	0	0	0	0	0	0	0	0	0	0	0	0	0	0	0	0	0	0	0	0	0	0
071019	12:53:43	12:58:00	255788	5.0.10.0	5_exp_noRW	40	Rpleas_acq	CS_A	DXXD	ZHHZ	CPPC	JQQJ	LWWL	YFFY	träumen	sonnig	gütig	küssen	genießen	vertrauen	töten	sterben	gierig	krank	gemein	versagen	47pct	acq_USpleas_CSunple2_noRW	acq23456_noRW	2	22	0	0	300	300	427	50	0	1	1	blank2r.bmp	0	1	+	0	1	blank2r.bmp	252	1	JQQJ	306	2	genießen	559	0	0	0	0	0	0	0	0	0	0	0	0	0	0	0	0	0	0	0	0	0	0	0	0	0	0	0	0	0	0	0	0	0	0	0	0	0	0	0
071019	12:53:43	12:58:01	257387	5.0.10.0	5_exp_noRW	40	Rpleas_acq	CS_A	DXXD	ZHHZ	CPPC	JQQJ	LWWL	YFFY	träumen	sonnig	gütig	küssen	genießen	vertrauen	töten	sterben	gierig	krank	gemein	versagen	53pct	acq_USunple_CSpleas1_noRW	acq23456_noRW	2	23	0	0	300	300	427	46	0	1	1	blank2r.bmp	0	1	+	0	1	blank2r.bmp	252	1	DXXD	306	3	gierig	559	0	0	0	0	0	0	0	0	0	0	0	0	0	0	0	0	0	0	0	0	0	0	0	0	0	0	0	0	0	0	0	0	0	0	0	0	0	0	0
071019	12:53:43	12:58:03	259000	5.0.10.0	5_exp_noRW	40	Rpleas_acq	CS_A	DXXD	ZHHZ	CPPC	JQQJ	LWWL	YFFY	träumen	sonnig	gütig	küssen	genießen	vertrauen	töten	sterben	gierig	krank	gemein	versagen	53pct	acq_USunple_CSunple1_noRW	acq23456_noRW	2	24	0	0	300	300	446	46	0	1	1	blank2r.bmp	0	1	+	0	1	blank2r.bmp	252	1	CPPC	306	2	sterben	559	0	0	0	0	0	0	0	0	0	0	0	0	0	0	0	0	0	0	0	0	0	0	0	0	0	0	0	0	0	0	0	0	0	0	0	0	0	0	0
071019	12:53:43	12:58:05	260613	5.0.10.0	5_exp_noRW	40	Rpleas_acq	CS_A	DXXD	ZHHZ	CPPC	JQQJ	LWWL	YFFY	träumen	sonnig	gütig	küssen	genießen	vertrauen	töten	sterben	gierig	krank	gemein	versagen	53pct	acq_USunple_CSunple1_noRW	acq23456_noRW	2	25	0	0	300	300	429	46	0	1	1	blank2r.bmp	0	1	+	0	1	blank2r.bmp	252	1	CPPC	306	3	gierig	559	0	0	0	0	0	0	0	0	0	0	0	0	0	0	0	0	0	0	0	0	0	0	0	0	0	0	0	0	0	0	0	0	0	0	0	0	0	0	0
071019	12:53:43	12:58:06	262399	5.0.10.0	5_exp_noRW	40	Rpleas_acq	CS_A	DXXD	ZHHZ	CPPC	JQQJ	LWWL	YFFY	träumen	sonnig	gütig	küssen	genießen	vertrauen	töten	sterben	gierig	krank	gemein	versagen	53pct	acq_USpleas_CSpleas2_noRW	acq23456_noRW	2	26	0	0	300	300	401	46	0	0	1	blank2r.bmp	0	1	+	0	1	blank2r.bmp	252	1	ZHHZ	306	2	genießen	559	1	FEHLER	999	0	0	0	0	0	0	0	0	0	0	0	0	0	0	0	0	0	0	0	0	0	0	0	0	0	0	0	0	0	0	0	0	0	0	0	0
071019	12:53:43	12:58:08	263905	5.0.10.0	5_exp_noRW	40	Rpleas_acq	CS_A	DXXD	ZHHZ	CPPC	JQQJ	LWWL	YFFY	träumen	sonnig	gütig	küssen	genießen	vertrauen	töten	sterben	gierig	krank	gemein	versagen	47pct	acq_USunple_CSunple1_noRW	acq23456_noRW	2	27	0	0	300	300	540	46	0	1	1	blank2r.bmp	0	1	+	0	1	blank2r.bmp	252	1	CPPC	306	1	töten	559	0	0	0	0	0	0	0	0	0	0	0	0	0	0	0	0	0	0	0	0	0	0	0	0	0	0	0	0	0	0	0	0	0	0	0	0	0	0	0
071019	12:53:43	12:58:09	265597	5.0.10.0	5_exp_noRW	40	Rpleas_acq	CS_A	DXXD	ZHHZ	CPPC	JQQJ	LWWL	YFFY	träumen	sonnig	gütig	küssen	genießen	vertrauen	töten	sterben	gierig	krank	gemein	versagen	53pct	acq_USpleas_CSpleas1_noRW	acq23456_noRW	2	28	0	0	300	300	519	50	0	1	1	blank2r.bmp	0	1	+	0	1	blank2r.bmp	252	1	DXXD	306	2	sonnig	559	0	0	0	0	0	0	0	0	0	0	0	0	0	0	0	0	0	0	0	0	0	0	0	0	0	0	0	0	0	0	0	0	0	0	0	0	0	0	0
071019	12:53:43	12:58:11	267223	5.0.10.0	5_exp_noRW	40	Rpleas_acq	CS_A	DXXD	ZHHZ	CPPC	JQQJ	LWWL	YFFY	träumen	sonnig	gütig	küssen	genießen	vertrauen	töten	sterben	gierig	krank	gemein	versagen	53pct	acq_USpleas_CSpleas2_noRW	acq23456_noRW	2	29	0	0	300	300	464	50	0	1	1	blank2r.bmp	0	1	+	0	1	blank2r.bmp	252	1	ZHHZ	306	1	küssen	559	0	0	0	0	0	0	0	0	0	0	0	0	0	0	0	0	0	0	0	0	0	0	0	0	0	0	0	0	0	0	0	0	0	0	0	0	0	0	0
071019	12:53:43	12:58:13	268943	5.0.10.0	5_exp_noRW	40	Rpleas_acq	CS_A	DXXD	ZHHZ	CPPC	JQQJ	LWWL	YFFY	träumen	sonnig	gütig	küssen	genießen	vertrauen	töten	sterben	gierig	krank	gemein	versagen	53pct	acq_USpleas_CSpleas2_noRW	acq23456_noRW	2	30	0	0	300	300	532	50	0	1	1	blank2r.bmp	0	1	+	0	1	blank2r.bmp	252	1	ZHHZ	306	2	genießen	559	0	0	0	0	0	0	0	0	0	0	0	0	0	0	0	0	0	0	0	0	0	0	0	0	0	0	0	0	0	0	0	0	0	0	0	0	0	0	0
071019	12:53:43	12:58:15	270595	5.0.10.0	5_exp_noRW	40	Rpleas_acq	CS_A	DXXD	ZHHZ	CPPC	JQQJ	LWWL	YFFY	träumen	sonnig	gütig	küssen	genießen	vertrauen	töten	sterben	gierig	krank	gemein	versagen	47pct	acq_USpleas_CSpleas1_noRW	acq23456_noRW	2	31	0	0	300	300	472	50	0	1	1	blank2r.bmp	0	1	+	0	1	blank2r.bmp	252	1	DXXD	306	2	sonnig	559	0	0	0	0	0	0	0	0	0	0	0	0	0	0	0	0	0	0	0	0	0	0	0	0	0	0	0	0	0	0	0	0	0	0	0	0	0	0	0
071019	12:53:43	12:58:16	272501	5.0.10.0	5_exp_noRW	40	Rpleas_acq	CS_A	DXXD	ZHHZ	CPPC	JQQJ	LWWL	YFFY	träumen	sonnig	gütig	küssen	genießen	vertrauen	töten	sterben	gierig	krank	gemein	versagen	53pct	acq_USpleas_CSpleas1_noRW	acq23456_noRW	2	32	0	0	300	300	727	50	0	1	1	blank2r.bmp	0	1	+	0	1	blank2r.bmp	252	1	DXXD	306	3	gütig	559	0	0	0	0	0	0	0	0	0	0	0	0	0	0	0	0	0	0	0	0	0	0	0	0	0	0	0	0	0	0	0	0	0	0	0	0	0	0	0
071019	12:53:43	12:58:18	274154	5.0.10.0	5_exp_noRW	40	Rpleas_acq	CS_A	DXXD	ZHHZ	CPPC	JQQJ	LWWL	YFFY	träumen	sonnig	gütig	küssen	genießen	vertrauen	töten	sterben	gierig	krank	gemein	versagen	47pct	acq_USpleas_CSunple1_noRW	acq23456_noRW	2	33	0	0	300	300	490	50	0	1	1	blank2r.bmp	0	1	+	0	1	blank2r.bmp	252	1	CPPC	306	3	gütig	559	0	0	0	0	0	0	0	0	0	0	0	0	0	0	0	0	0	0	0	0	0	0	0	0	0	0	0	0	0	0	0	0	0	0	0	0	0	0	0
071019	12:53:43	12:58:20	275953	5.0.10.0	5_exp_noRW	40	Rpleas_acq	CS_A	DXXD	ZHHZ	CPPC	JQQJ	LWWL	YFFY	träumen	sonnig	gütig	küssen	genießen	vertrauen	töten	sterben	gierig	krank	gemein	versagen	47pct	acq_USunple_CSunple2_noRW	acq23456_noRW	2	34	0	0	300	300	627	46	0	1	1	blank2r.bmp	0	1	+	0	1	blank2r.bmp	252	1	JQQJ	306	2	gemein	559	0	0	0	0	0	0	0	0	0	0	0	0	0	0	0	0	0	0	0	0	0	0	0	0	0	0	0	0	0	0	0	0	0	0	0	0	0	0	0
071019	12:53:43	12:58:22	277672	5.0.10.0	5_exp_noRW	40	Rpleas_acq	CS_A	DXXD	ZHHZ	CPPC	JQQJ	LWWL	YFFY	träumen	sonnig	gütig	küssen	genießen	vertrauen	töten	sterben	gierig	krank	gemein	versagen	47pct	acq_USpleas_CSpleas1_noRW	acq23456_noRW	2	35	0	0	300	300	549	50	0	1	1	blank2r.bmp	0	1	+	0	1	blank2r.bmp	252	1	DXXD	306	1	träumen	559	0	0	0	0	0	0	0	0	0	0	0	0	0	0	0	0	0	0	0	0	0	0	0	0	0	0	0	0	0	0	0	0	0	0	0	0	0	0	0
071019	12:53:43	12:58:23	279445	5.0.10.0	5_exp_noRW	40	Rpleas_acq	CS_A	DXXD	ZHHZ	CPPC	JQQJ	LWWL	YFFY	träumen	sonnig	gütig	küssen	genießen	vertrauen	töten	sterben	gierig	krank	gemein	versagen	53pct	acq_USunple_CSunple2_noRW	acq23456_noRW	2	36	0	0	300	300	587	46	0	1	1	blank2r.bmp	0	1	+	0	1	blank2r.bmp	252	1	JQQJ	306	2	gemein	559	0	0	0	0	0	0	0	0	0	0	0	0	0	0	0	0	0	0	0	0	0	0	0	0	0	0	0	0	0	0	0	0	0	0	0	0	0	0	0
071019	12:53:43	12:58:25	281084	5.0.10.0	5_exp_noRW	40	Rpleas_acq	CS_A	DXXD	ZHHZ	CPPC	JQQJ	LWWL	YFFY	träumen	sonnig	gütig	küssen	genießen	vertrauen	töten	sterben	gierig	krank	gemein	versagen	53pct	acq_USunple_CSunple1_noRW	acq23456_noRW	2	37	0	0	300	300	475	46	0	1	1	blank2r.bmp	0	1	+	0	1	blank2r.bmp	252	1	CPPC	306	2	sterben	559	0	0	0	0	0	0	0	0	0	0	0	0	0	0	0	0	0	0	0	0	0	0	0	0	0	0	0	0	0	0	0	0	0	0	0	0	0	0	0
071019	12:53:43	12:58:27	282710	5.0.10.0	5_exp_noRW	40	Rpleas_acq	CS_A	DXXD	ZHHZ	CPPC	JQQJ	LWWL	YFFY	träumen	sonnig	gütig	küssen	genießen	vertrauen	töten	sterben	gierig	krank	gemein	versagen	47pct	acq_USunple_CSunple2_noRW	acq23456_noRW	2	38	0	0	300	300	450	46	0	1	1	blank2r.bmp	0	1	+	0	1	blank2r.bmp	252	1	JQQJ	306	1	krank	559	0	0	0	0	0	0	0	0	0	0	0	0	0	0	0	0	0	0	0	0	0	0	0	0	0	0	0	0	0	0	0	0	0	0	0	0	0	0	0
071019	12:53:43	12:58:28	284470	5.0.10.0	5_exp_noRW	40	Rpleas_acq	CS_A	DXXD	ZHHZ	CPPC	JQQJ	LWWL	YFFY	träumen	sonnig	gütig	küssen	genießen	vertrauen	töten	sterben	gierig	krank	gemein	versagen	47pct	acq_USpleas_CSpleas2_noRW	acq23456_noRW	2	39	0	0	300	300	577	50	0	1	1	blank2r.bmp	0	1	+	0	1	blank2r.bmp	252	1	ZHHZ	306	3	vertrauen	559	0	0	0	0	0	0	0	0	0	0	0	0	0	0	0	0	0	0	0	0	0	0	0	0	0	0	0	0	0	0	0	0	0	0	0	0	0	0	0
071019	12:53:43	12:58:30	286136	5.0.10.0	5_exp_noRW	40	Rpleas_acq	CS_A	DXXD	ZHHZ	CPPC	JQQJ	LWWL	YFFY	träumen	sonnig	gütig	küssen	genießen	vertrauen	töten	sterben	gierig	krank	gemein	versagen	53pct	acq_USunple_CSunple2_noRW	acq23456_noRW	2	40	0	0	300	300	493	46	0	1	1	blank2r.bmp	0	1	+	0	1	blank2r.bmp	252	1	JQQJ	306	3	versagen	559	0	0	0	0	0	0	0	0	0	0	0	0	0	0	0	0	0	0	0	0	0	0	0	0	0	0	0	0	0	0	0	0	0	0	0	0	0	0	0
071019	12:53:43	12:58:32	288335	5.0.10.0	5_exp_noRW	40	Rpleas_acq	CS_A	DXXD	ZHHZ	CPPC	JQQJ	LWWL	YFFY	träumen	sonnig	gütig	küssen	genießen	vertrauen	töten	sterben	gierig	krank	gemein	versagen	47pct	acq_USunple_CSunple2_noRW	acq23456_noRW	2	41	0	0	300	300	1035	46	0	1	1	blank2r.bmp	0	1	+	0	1	blank2r.bmp	252	1	JQQJ	306	2	gemein	559	0	0	0	0	0	0	0	0	0	0	0	0	0	0	0	0	0	0	0	0	0	0	0	0	0	0	0	0	0	0	0	0	0	0	0	0	0	0	0
071019	12:53:43	12:58:34	290067	5.0.10.0	5_exp_noRW	40	Rpleas_acq	CS_A	DXXD	ZHHZ	CPPC	JQQJ	LWWL	YFFY	träumen	sonnig	gütig	küssen	genießen	vertrauen	töten	sterben	gierig	krank	gemein	versagen	53pct	acq_USunple_CSunple2_noRW	acq23456_noRW	2	42	0	0	300	300	559	46	0	1	1	blank2r.bmp	0	1	+	0	1	blank2r.bmp	252	1	JQQJ	306	3	versagen	559	0	0	0	0	0	0	0	0	0	0	0	0	0	0	0	0	0	0	0	0	0	0	0	0	0	0	0	0	0	0	0	0	0	0	0	0	0	0	0
071019	12:53:43	12:58:36	291747	5.0.10.0	5_exp_noRW	40	Rpleas_acq	CS_A	DXXD	ZHHZ	CPPC	JQQJ	LWWL	YFFY	träumen	sonnig	gütig	küssen	genießen	vertrauen	töten	sterben	gierig	krank	gemein	versagen	53pct	acq_USunple_CSunple1_noRW	acq23456_noRW	2	43	0	0	300	300	516	46	0	1	1	blank2r.bmp	0	1	+	0	1	blank2r.bmp	252	1	CPPC	306	3	gierig	559	0	0	0	0	0	0	0	0	0	0	0	0	0	0	0	0	0	0	0	0	0	0	0	0	0	0	0	0	0	0	0	0	0	0	0	0	0	0	0
071019	12:53:43	12:58:37	293319	5.0.10.0	5_exp_noRW	40	Rpleas_acq	CS_A	DXXD	ZHHZ	CPPC	JQQJ	LWWL	YFFY	träumen	sonnig	gütig	küssen	genießen	vertrauen	töten	sterben	gierig	krank	gemein	versagen	53pct	acq_USunple_CSunple1_noRW	acq23456_noRW	2	44	0	0	300	300	390	46	0	1	1	blank2r.bmp	0	1	+	0	1	blank2r.bmp	252	1	CPPC	306	1	töten	559	0	0	0	0	0	0	0	0	0	0	0	0	0	0	0	0	0	0	0	0	0	0	0	0	0	0	0	0	0	0	0	0	0	0	0	0	0	0	0
071019	12:53:43	12:58:39	295052	5.0.10.0	5_exp_noRW	40	Rpleas_acq	CS_A	DXXD	ZHHZ	CPPC	JQQJ	LWWL	YFFY	träumen	sonnig	gütig	küssen	genießen	vertrauen	töten	sterben	gierig	krank	gemein	versagen	53pct	acq_USpleas_CSunple1_noRW	acq23456_noRW	2	45	0	0	300	300	554	50	0	1	1	blank2r.bmp	0	1	+	0	1	blank2r.bmp	252	1	CPPC	306	1	träumen	559	0	0	0	0	0	0	0	0	0	0	0	0	0	0	0	0	0	0	0	0	0	0	0	0	0	0	0	0	0	0	0	0	0	0	0	0	0	0	0
071019	12:53:43	12:58:41	297011	5.0.10.0	5_exp_noRW	40	Rpleas_acq	CS_A	DXXD	ZHHZ	CPPC	JQQJ	LWWL	YFFY	träumen	sonnig	gütig	küssen	genießen	vertrauen	töten	sterben	gierig	krank	gemein	versagen	47pct	acq_USunple_CSpleas1_noRW	acq23456_noRW	2	46	0	0	300	300	784	46	0	1	1	blank2r.bmp	0	1	+	0	1	blank2r.bmp	252	1	DXXD	306	3	gierig	559	0	0	0	0	0	0	0	0	0	0	0	0	0	0	0	0	0	0	0	0	0	0	0	0	0	0	0	0	0	0	0	0	0	0	0	0	0	0	0
071019	12:53:43	12:58:43	298624	5.0.10.0	5_exp_noRW	40	Rpleas_acq	CS_A	DXXD	ZHHZ	CPPC	JQQJ	LWWL	YFFY	träumen	sonnig	gütig	küssen	genießen	vertrauen	töten	sterben	gierig	krank	gemein	versagen	53pct	acq_USunple_CSunple2_noRW	acq23456_noRW	2	47	0	0	300	300	428	46	0	1	1	blank2r.bmp	0	1	+	0	1	blank2r.bmp	252	1	JQQJ	306	1	krank	559	0	0	0	0	0	0	0	0	0	0	0	0	0	0	0	0	0	0	0	0	0	0	0	0	0	0	0	0	0	0	0	0	0	0	0	0	0	0	0
071019	12:53:43	12:58:44	300250	5.0.10.0	5_exp_noRW	40	Rpleas_acq	CS_A	DXXD	ZHHZ	CPPC	JQQJ	LWWL	YFFY	träumen	sonnig	gütig	küssen	genießen	vertrauen	töten	sterben	gierig	krank	gemein	versagen	53pct	acq_USpleas_CSunple2_noRW	acq23456_noRW	2	48	0	0	300	300	464	50	0	1	1	blank2r.bmp	0	1	+	0	1	blank2r.bmp	252	1	JQQJ	306	2	genießen	559	0	0	0	0	0	0	0	0	0	0	0	0	0	0	0	0	0	0	0	0	0	0	0	0	0	0	0	0	0	0	0	0	0	0	0	0	0	0	0
071019	12:53:43	12:58:46	302062	5.0.10.0	5_exp_noRW	40	Rpleas_acq	CS_A	DXXD	ZHHZ	CPPC	JQQJ	LWWL	YFFY	träumen	sonnig	gütig	küssen	genießen	vertrauen	töten	sterben	gierig	krank	gemein	versagen	47pct	acq_USpleas_CSpleas1_noRW	acq23456_noRW	2	49	0	0	300	300	637	50	0	1	1	blank2r.bmp	0	1	+	0	1	blank2r.bmp	252	1	DXXD	306	3	gütig	559	0	0	0	0	0	0	0	0	0	0	0	0	0	0	0	0	0	0	0	0	0	0	0	0	0	0	0	0	0	0	0	0	0	0	0	0	0	0	0
071019	12:53:43	12:58:48	303688	5.0.10.0	5_exp_noRW	40	Rpleas_acq	CS_A	DXXD	ZHHZ	CPPC	JQQJ	LWWL	YFFY	träumen	sonnig	gütig	küssen	genießen	vertrauen	töten	sterben	gierig	krank	gemein	versagen	53pct	acq_USpleas_CSpleas1_noRW	acq23456_noRW	2	50	0	0	300	300	458	50	0	1	1	blank2r.bmp	0	1	+	0	1	blank2r.bmp	252	1	DXXD	306	1	träumen	559	0	0	0	0	0	0	0	0	0	0	0	0	0	0	0	0	0	0	0	0	0	0	0	0	0	0	0	0	0	0	0	0	0	0	0	0	0	0	0
071019	12:53:43	12:58:49	305554	5.0.10.0	5_exp_noRW	40	Rpleas_acq	CS_A	DXXD	ZHHZ	CPPC	JQQJ	LWWL	YFFY	träumen	sonnig	gütig	küssen	genießen	vertrauen	töten	sterben	gierig	krank	gemein	versagen	47pct	acq_USunple_CSunple1_noRW	acq23456_noRW	2	51	0	0	300	300	693	46	0	1	1	blank2r.bmp	0	1	+	0	1	blank2r.bmp	252	1	CPPC	306	2	sterben	559	0	0	0	0	0	0	0	0	0	0	0	0	0	0	0	0	0	0	0	0	0	0	0	0	0	0	0	0	0	0	0	0	0	0	0	0	0	0	0
071019	12:53:43	12:58:51	307593	5.0.10.0	5_exp_noRW	40	Rpleas_acq	CS_A	DXXD	ZHHZ	CPPC	JQQJ	LWWL	YFFY	träumen	sonnig	gütig	küssen	genießen	vertrauen	töten	sterben	gierig	krank	gemein	versagen	47pct	acq_USunple_CSpleas2_noRW	acq23456_noRW	2	52	0	0	300	300	857	46	0	1	1	blank2r.bmp	0	1	+	0	1	blank2r.bmp	252	1	ZHHZ	306	2	gemein	559	0	0	0	0	0	0	0	0	0	0	0	0	0	0	0	0	0	0	0	0	0	0	0	0	0	0	0	0	0	0	0	0	0	0	0	0	0	0	0
071019	12:53:43	12:58:53	309246	5.0.10.0	5_exp_noRW	40	Rpleas_acq	CS_A	DXXD	ZHHZ	CPPC	JQQJ	LWWL	YFFY	träumen	sonnig	gütig	küssen	genießen	vertrauen	töten	sterben	gierig	krank	gemein	versagen	53pct	acq_USpleas_CSpleas2_noRW	acq23456_noRW	2	53	0	0	300	300	473	50	0	1	1	blank2r.bmp	0	1	+	0	1	blank2r.bmp	252	1	ZHHZ	306	2	genießen	559	0	0	0	0	0	0	0	0	0	0	0	0	0	0	0	0	0	0	0	0	0	0	0	0	0	0	0	0	0	0	0	0	0	0	0	0	0	0	0
071019	12:53:43	12:58:55	311139	5.0.10.0	5_exp_noRW	40	Rpleas_acq	CS_A	DXXD	ZHHZ	CPPC	JQQJ	LWWL	YFFY	träumen	sonnig	gütig	küssen	genießen	vertrauen	töten	sterben	gierig	krank	gemein	versagen	47pct	acq_USpleas_CSpleas1_noRW	acq23456_noRW	2	54	0	0	300	300	705	50	0	1	1	blank2r.bmp	0	1	+	0	1	blank2r.bmp	252	1	DXXD	306	2	sonnig	559	0	0	0	0	0	0	0	0	0	0	0	0	0	0	0	0	0	0	0	0	0	0	0	0	0	0	0	0	0	0	0	0	0	0	0	0	0	0	0
071019	12:53:43	12:58:57	312751	5.0.10.0	5_exp_noRW	40	Rpleas_acq	CS_A	DXXD	ZHHZ	CPPC	JQQJ	LWWL	YFFY	träumen	sonnig	gütig	küssen	genießen	vertrauen	töten	sterben	gierig	krank	gemein	versagen	53pct	acq_USpleas_CSpleas1_noRW	acq23456_noRW	2	55	0	0	300	300	459	50	0	1	1	blank2r.bmp	0	1	+	0	1	blank2r.bmp	252	1	DXXD	306	1	träumen	559	0	0	0	0	0	0	0	0	0	0	0	0	0	0	0	0	0	0	0	0	0	0	0	0	0	0	0	0	0	0	0	0	0	0	0	0	0	0	0
071019	12:53:43	12:58:58	314577	5.0.10.0	5_exp_noRW	40	Rpleas_acq	CS_A	DXXD	ZHHZ	CPPC	JQQJ	LWWL	YFFY	träumen	sonnig	gütig	küssen	genießen	vertrauen	töten	sterben	gierig	krank	gemein	versagen	47pct	acq_USpleas_CSpleas2_noRW	acq23456_noRW	2	56	0	0	300	300	663	50	0	1	1	blank2r.bmp	0	1	+	0	1	blank2r.bmp	252	1	ZHHZ	306	3	vertrauen	559	0	0	0	0	0	0	0	0	0	0	0	0	0	0	0	0	0	0	0	0	0	0	0	0	0	0	0	0	0	0	0	0	0	0	0	0	0	0	0
071019	12:53:43	12:59:00	316217	5.0.10.0	5_exp_noRW	40	Rpleas_acq	CS_A	DXXD	ZHHZ	CPPC	JQQJ	LWWL	YFFY	träumen	sonnig	gütig	küssen	genießen	vertrauen	töten	sterben	gierig	krank	gemein	versagen	47pct	acq_USunple_CSunple2_noRW	acq23456_noRW	2	57	0	0	300	300	454	46	0	1	1	blank2r.bmp	0	1	+	0	1	blank2r.bmp	252	1	JQQJ	306	3	versagen	559	0	0	0	0	0	0	0	0	0	0	0	0	0	0	0	0	0	0	0	0	0	0	0	0	0	0	0	0	0	0	0	0	0	0	0	0	0	0	0
071019	12:53:43	12:59:02	317789	5.0.10.0	5_exp_noRW	40	Rpleas_acq	CS_A	DXXD	ZHHZ	CPPC	JQQJ	LWWL	YFFY	träumen	sonnig	gütig	küssen	genießen	vertrauen	töten	sterben	gierig	krank	gemein	versagen	47pct	acq_USpleas_CSpleas2_noRW	acq23456_noRW	2	58	0	0	300	300	406	50	0	1	1	blank2r.bmp	0	1	+	0	1	blank2r.bmp	252	1	ZHHZ	306	1	küssen	559	0	0	0	0	0	0	0	0	0	0	0	0	0	0	0	0	0	0	0	0	0	0	0	0	0	0	0	0	0	0	0	0	0	0	0	0	0	0	0
071019	12:53:43	12:59:04	319788	5.0.10.0	5_exp_noRW	40	Rpleas_acq	CS_A	DXXD	ZHHZ	CPPC	JQQJ	LWWL	YFFY	träumen	sonnig	gütig	küssen	genießen	vertrauen	töten	sterben	gierig	krank	gemein	versagen	47pct	acq_USpleas_CSpleas2_noRW	acq23456_noRW	2	59	0	0	300	300	620	46	0	0	1	blank2r.bmp	0	1	+	0	1	blank2r.bmp	252	1	ZHHZ	306	1	küssen	559	1	FEHLER	1212	0	0	0	0	0	0	0	0	0	0	0	0	0	0	0	0	0	0	0	0	0	0	0	0	0	0	0	0	0	0	0	0	0	0	0	0
071019	12:53:43	12:59:05	321108	5.0.10.0	5_exp_noRW	40	Rpleas_acq	CS_A	DXXD	ZHHZ	CPPC	JQQJ	LWWL	YFFY	träumen	sonnig	gütig	küssen	genießen	vertrauen	töten	sterben	gierig	krank	gemein	versagen	53pct	acq_USunple_CSunple1_noRW	acq23456_noRW	2	60	0	0	300	300	345	46	0	1	1	blank2r.bmp	0	1	+	0	1	blank2r.bmp	252	1	CPPC	306	1	töten	559	0	0	0	0	0	0	0	0	0	0	0	0	0	0	0	0	0	0	0	0	0	0	0	0	0	0	0	0	0	0	0	0	0	0	0	0	0	0	0
071019	12:53:43	12:59:07	322761	5.0.10.0	5_exp_noRW	40	Rpleas_acq	CS_A	DXXD	ZHHZ	CPPC	JQQJ	LWWL	YFFY	träumen	sonnig	gütig	küssen	genießen	vertrauen	töten	sterben	gierig	krank	gemein	versagen	53pct	acq_USunple_CSunple1_noRW	acq23456_noRW	2	61	0	0	300	300	472	46	0	1	1	blank2r.bmp	0	1	+	0	1	blank2r.bmp	252	1	CPPC	306	2	sterben	559	0	0	0	0	0	0	0	0	0	0	0	0	0	0	0	0	0	0	0	0	0	0	0	0	0	0	0	0	0	0	0	0	0	0	0	0	0	0	0
071019	12:53:43	12:59:08	324493	5.0.10.0	5_exp_noRW	40	Rpleas_acq	CS_A	DXXD	ZHHZ	CPPC	JQQJ	LWWL	YFFY	träumen	sonnig	gütig	küssen	genießen	vertrauen	töten	sterben	gierig	krank	gemein	versagen	47pct	acq_USunple_CSunple2_noRW	acq23456_noRW	2	62	0	0	300	300	548	46	0	1	1	blank2r.bmp	0	1	+	0	1	blank2r.bmp	252	1	JQQJ	306	2	gemein	559	0	0	0	0	0	0	0	0	0	0	0	0	0	0	0	0	0	0	0	0	0	0	0	0	0	0	0	0	0	0	0	0	0	0	0	0	0	0	0
071019	12:53:43	12:59:10	326199	5.0.10.0	5_exp_noRW	40	Rpleas_acq	CS_A	DXXD	ZHHZ	CPPC	JQQJ	LWWL	YFFY	träumen	sonnig	gütig	küssen	genießen	vertrauen	töten	sterben	gierig	krank	gemein	versagen	53pct	acq_USunple_CSunple2_noRW	acq23456_noRW	2	63	0	0	300	300	526	46	0	1	1	blank2r.bmp	0	1	+	0	1	blank2r.bmp	252	1	JQQJ	306	1	krank	559	0	0	0	0	0	0	0	0	0	0	0	0	0	0	0	0	0	0	0	0	0	0	0	0	0	0	0	0	0	0	0	0	0	0	0	0	0	0	0
071019	12:53:43	12:59:12	327798	5.0.10.0	5_exp_noRW	40	Rpleas_acq	CS_A	DXXD	ZHHZ	CPPC	JQQJ	LWWL	YFFY	träumen	sonnig	gütig	küssen	genießen	vertrauen	töten	sterben	gierig	krank	gemein	versagen	53pct	acq_USpleas_CSpleas1_noRW	acq23456_noRW	2	64	0	0	300	300	432	50	0	1	1	blank2r.bmp	0	1	+	0	1	blank2r.bmp	252	1	DXXD	306	3	gütig	559	0	0	0	0	0	0	0	0	0	0	0	0	0	0	0	0	0	0	0	0	0	0	0	0	0	0	0	0	0	0	0	0	0	0	0	0	0	0	0
071019	12:53:43	12:59:13	329544	5.0.10.0	5_exp_noRW	40	Rpleas_acq	CS_A	DXXD	ZHHZ	CPPC	JQQJ	LWWL	YFFY	träumen	sonnig	gütig	küssen	genießen	vertrauen	töten	sterben	gierig	krank	gemein	versagen	53pct	acq_USunple_CSpleas1_noRW	acq23456_noRW	2	65	0	0	300	300	571	46	0	1	1	blank2r.bmp	0	1	+	0	1	blank2r.bmp	252	1	DXXD	306	2	sterben	559	0	0	0	0	0	0	0	0	0	0	0	0	0	0	0	0	0	0	0	0	0	0	0	0	0	0	0	0	0	0	0	0	0	0	0	0	0	0	0
071019	12:53:43	12:59:15	331357	5.0.10.0	5_exp_noRW	40	Rpleas_acq	CS_A	DXXD	ZHHZ	CPPC	JQQJ	LWWL	YFFY	träumen	sonnig	gütig	küssen	genießen	vertrauen	töten	sterben	gierig	krank	gemein	versagen	53pct	acq_USunple_CSunple1_noRW	acq23456_noRW	2	66	0	0	300	300	637	46	0	1	1	blank2r.bmp	0	1	+	0	1	blank2r.bmp	252	1	CPPC	306	3	gierig	559	0	0	0	0	0	0	0	0	0	0	0	0	0	0	0	0	0	0	0	0	0	0	0	0	0	0	0	0	0	0	0	0	0	0	0	0	0	0	0
071019	12:53:43	12:59:17	333250	5.0.10.0	5_exp_noRW	40	Rpleas_acq	CS_A	DXXD	ZHHZ	CPPC	JQQJ	LWWL	YFFY	träumen	sonnig	gütig	küssen	genießen	vertrauen	töten	sterben	gierig	krank	gemein	versagen	53pct	acq_USunple_CSunple2_noRW	acq23456_noRW	2	67	0	0	300	300	711	46	0	1	1	blank2r.bmp	0	1	+	0	1	blank2r.bmp	252	1	JQQJ	306	1	krank	559	0	0	0	0	0	0	0	0	0	0	0	0	0	0	0	0	0	0	0	0	0	0	0	0	0	0	0	0	0	0	0	0	0	0	0	0	0	0	0
071019	12:53:43	12:59:19	334902	5.0.10.0	5_exp_noRW	40	Rpleas_acq	CS_A	DXXD	ZHHZ	CPPC	JQQJ	LWWL	YFFY	träumen	sonnig	gütig	küssen	genießen	vertrauen	töten	sterben	gierig	krank	gemein	versagen	47pct	acq_USpleas_CSpleas1_noRW	acq23456_noRW	2	68	0	0	300	300	484	50	0	1	1	blank2r.bmp	0	1	+	0	1	blank2r.bmp	252	1	DXXD	306	2	sonnig	559	0	0	0	0	0	0	0	0	0	0	0	0	0	0	0	0	0	0	0	0	0	0	0	0	0	0	0	0	0	0	0	0	0	0	0	0	0	0	0
071019	12:53:43	12:59:21	336901	5.0.10.0	5_exp_noRW	40	Rpleas_acq	CS_A	DXXD	ZHHZ	CPPC	JQQJ	LWWL	YFFY	träumen	sonnig	gütig	küssen	genießen	vertrauen	töten	sterben	gierig	krank	gemein	versagen	47pct	acq_USunple_CSpleas2_noRW	acq23456_noRW	2	69	0	0	300	300	830	46	0	1	1	blank2r.bmp	0	1	+	0	1	blank2r.bmp	252	1	ZHHZ	306	3	versagen	559	0	0	0	0	0	0	0	0	0	0	0	0	0	0	0	0	0	0	0	0	0	0	0	0	0	0	0	0	0	0	0	0	0	0	0	0	0	0	0
071019	12:53:43	12:59:23	338594	5.0.10.0	5_exp_noRW	40	Rpleas_acq	CS_A	DXXD	ZHHZ	CPPC	JQQJ	LWWL	YFFY	träumen	sonnig	gütig	küssen	genießen	vertrauen	töten	sterben	gierig	krank	gemein	versagen	47pct	acq_USpleas_CSpleas2_noRW	acq23456_noRW	2	70	0	0	300	300	526	50	0	1	1	blank2r.bmp	0	1	+	0	1	blank2r.bmp	252	1	ZHHZ	306	2	genießen	559	0	0	0	0	0	0	0	0	0	0	0	0	0	0	0	0	0	0	0	0	0	0	0	0	0	0	0	0	0	0	0	0	0	0	0	0	0	0	0
071019	12:53:43	12:59:24	340367	5.0.10.0	5_exp_noRW	40	Rpleas_acq	CS_A	DXXD	ZHHZ	CPPC	JQQJ	LWWL	YFFY	träumen	sonnig	gütig	küssen	genießen	vertrauen	töten	sterben	gierig	krank	gemein	versagen	53pct	acq_USpleas_CSpleas2_noRW	acq23456_noRW	2	71	0	0	300	300	587	50	0	1	1	blank2r.bmp	0	1	+	0	1	blank2r.bmp	252	1	ZHHZ	306	3	vertrauen	559	0	0	0	0	0	0	0	0	0	0	0	0	0	0	0	0	0	0	0	0	0	0	0	0	0	0	0	0	0	0	0	0	0	0	0	0	0	0	0
071019	12:53:43	12:59:26	341979	5.0.10.0	5_exp_noRW	40	Rpleas_acq	CS_A	DXXD	ZHHZ	CPPC	JQQJ	LWWL	YFFY	träumen	sonnig	gütig	küssen	genießen	vertrauen	töten	sterben	gierig	krank	gemein	versagen	47pct	acq_USpleas_CSunple1_noRW	acq23456_noRW	2	72	0	0	300	300	439	50	0	1	1	blank2r.bmp	0	1	+	0	1	blank2r.bmp	252	1	CPPC	306	3	gütig	559	0	0	0	0	0	0	0	0	0	0	0	0	0	0	0	0	0	0	0	0	0	0	0	0	0	0	0	0	0	0	0	0	0	0	0	0	0	0	0
071019	12:53:43	12:59:28	343659	5.0.10.0	5_exp_noRW	40	Rpleas_acq	CS_A	DXXD	ZHHZ	CPPC	JQQJ	LWWL	YFFY	träumen	sonnig	gütig	küssen	genießen	vertrauen	töten	sterben	gierig	krank	gemein	versagen	47pct	acq_USunple_CSunple2_noRW	acq23456_noRW	2	73	0	0	300	300	504	46	0	1	1	blank2r.bmp	0	1	+	0	1	blank2r.bmp	252	1	JQQJ	306	2	gemein	559	0	0	0	0	0	0	0	0	0	0	0	0	0	0	0	0	0	0	0	0	0	0	0	0	0	0	0	0	0	0	0	0	0	0	0	0	0	0	0
071019	12:53:43	12:59:29	345271	5.0.10.0	5_exp_noRW	40	Rpleas_acq	CS_A	DXXD	ZHHZ	CPPC	JQQJ	LWWL	YFFY	träumen	sonnig	gütig	küssen	genießen	vertrauen	töten	sterben	gierig	krank	gemein	versagen	47pct	acq_USpleas_CSpleas2_noRW	acq23456_noRW	2	74	0	0	300	300	427	50	0	1	1	blank2r.bmp	0	1	+	0	1	blank2r.bmp	252	1	ZHHZ	306	1	küssen	559	0	0	0	0	0	0	0	0	0	0	0	0	0	0	0	0	0	0	0	0	0	0	0	0	0	0	0	0	0	0	0	0	0	0	0	0	0	0	0
071019	12:53:43	12:59:31	346951	5.0.10.0	5_exp_noRW	40	Rpleas_acq	CS_A	DXXD	ZHHZ	CPPC	JQQJ	LWWL	YFFY	träumen	sonnig	gütig	küssen	genießen	vertrauen	töten	sterben	gierig	krank	gemein	versagen	53pct	acq_USpleas_CSpleas2_noRW	acq23456_noRW	2	75	0	0	300	300	497	50	0	1	1	blank2r.bmp	0	1	+	0	1	blank2r.bmp	252	1	ZHHZ	306	3	vertrauen	559	0	0	0	0	0	0	0	0	0	0	0	0	0	0	0	0	0	0	0	0	0	0	0	0	0	0	0	0	0	0	0	0	0	0	0	0	0	0	0
071019	12:53:43	12:59:32	348510	5.0.10.0	5_exp_noRW	40	Rpleas_acq	CS_A	DXXD	ZHHZ	CPPC	JQQJ	LWWL	YFFY	träumen	sonnig	gütig	küssen	genießen	vertrauen	töten	sterben	gierig	krank	gemein	versagen	47pct	acq_USpleas_CSpleas1_noRW	acq23456_noRW	2	76	0	0	300	300	383	50	0	1	1	blank2r.bmp	0	1	+	0	1	blank2r.bmp	252	1	DXXD	306	3	gütig	559	0	0	0	0	0	0	0	0	0	0	0	0	0	0	0	0	0	0	0	0	0	0	0	0	0	0	0	0	0	0	0	0	0	0	0	0	0	0	0
071019	12:53:43	12:59:34	350096	5.0.10.0	5_exp_noRW	40	Rpleas_acq	CS_A	DXXD	ZHHZ	CPPC	JQQJ	LWWL	YFFY	träumen	sonnig	gütig	küssen	genießen	vertrauen	töten	sterben	gierig	krank	gemein	versagen	47pct	acq_USpleas_CSpleas1_noRW	acq23456_noRW	2	77	0	0	300	300	408	50	0	1	1	blank2r.bmp	0	1	+	0	1	blank2r.bmp	252	1	DXXD	306	1	träumen	559	0	0	0	0	0	0	0	0	0	0	0	0	0	0	0	0	0	0	0	0	0	0	0	0	0	0	0	0	0	0	0	0	0	0	0	0	0	0	0
071019	12:53:43	12:59:36	351655	5.0.10.0	5_exp_noRW	40	Rpleas_acq	CS_A	DXXD	ZHHZ	CPPC	JQQJ	LWWL	YFFY	träumen	sonnig	gütig	küssen	genießen	vertrauen	töten	sterben	gierig	krank	gemein	versagen	53pct	acq_USunple_CSunple1_noRW	acq23456_noRW	2	78	0	0	300	300	389	46	0	1	1	blank2r.bmp	0	1	+	0	1	blank2r.bmp	252	1	CPPC	306	2	sterben	559	0	0	0	0	0	0	0	0	0	0	0	0	0	0	0	0	0	0	0	0	0	0	0	0	0	0	0	0	0	0	0	0	0	0	0	0	0	0	0
071019	12:53:43	12:59:37	353201	5.0.10.0	5_exp_noRW	40	Rpleas_acq	CS_A	DXXD	ZHHZ	CPPC	JQQJ	LWWL	YFFY	träumen	sonnig	gütig	küssen	genießen	vertrauen	töten	sterben	gierig	krank	gemein	versagen	47pct	acq_USpleas_CSunple2_noRW	acq23456_noRW	2	79	0	0	300	300	385	50	0	1	1	blank2r.bmp	0	1	+	0	1	blank2r.bmp	252	1	JQQJ	306	1	küssen	559	0	0	0	0	0	0	0	0	0	0	0	0	0	0	0	0	0	0	0	0	0	0	0	0	0	0	0	0	0	0	0	0	0	0	0	0	0	0	0
071019	12:53:43	12:59:39	355227	5.0.10.0	5_exp_noRW	40	Rpleas_acq	CS_A	DXXD	ZHHZ	CPPC	JQQJ	LWWL	YFFY	träumen	sonnig	gütig	küssen	genießen	vertrauen	töten	sterben	gierig	krank	gemein	versagen	53pct	acq_USunple_CSunple1_noRW	acq23456_noRW	2	80	0	0	300	300	626	50	0	0	1	blank2r.bmp	0	1	+	0	1	blank2r.bmp	252	1	CPPC	306	3	gierig	559	1	FEHLER	1226	0	0	0	0	0	0	0	0	0	0	0	0	0	0	0	0	0	0	0	0	0	0	0	0	0	0	0	0	0	0	0	0	0	0	0	0
071019	12:53:43	13:00:05	381403	5.0.10.0	5_exp_noRW	40	Rpleas_acq	CS_A	DXXD	ZHHZ	CPPC	JQQJ	LWWL	YFFY	träumen	sonnig	gütig	küssen	genießen	vertrauen	töten	sterben	gierig	krank	gemein	versagen	53pct	acq_USunple_CSpleas2_noRW	acq23456_noRW	3	1	0	0	300	300	512	46	0	1	1	blank2r.bmp	0	1	+	0	1	blank2r.bmp	252	1	ZHHZ	306	1	krank	559	0	0	0	0	0	0	0	0	0	0	0	0	0	0	0	0	0	0	0	0	0	0	0	0	0	0	0	0	0	0	0	0	0	0	0	0	0	0	0
071019	12:53:43	13:00:07	383043	5.0.10.0	5_exp_noRW	40	Rpleas_acq	CS_A	DXXD	ZHHZ	CPPC	JQQJ	LWWL	YFFY	träumen	sonnig	gütig	küssen	genießen	vertrauen	töten	sterben	gierig	krank	gemein	versagen	47pct	acq_USunple_CSunple1_noRW	acq23456_noRW	3	2	0	0	300	300	467	46	0	1	1	blank2r.bmp	0	1	+	0	1	blank2r.bmp	252	1	CPPC	306	1	töten	559	0	0	0	0	0	0	0	0	0	0	0	0	0	0	0	0	0	0	0	0	0	0	0	0	0	0	0	0	0	0	0	0	0	0	0	0	0	0	0
071019	12:53:43	13:00:08	384589	5.0.10.0	5_exp_noRW	40	Rpleas_acq	CS_A	DXXD	ZHHZ	CPPC	JQQJ	LWWL	YFFY	träumen	sonnig	gütig	küssen	genießen	vertrauen	töten	sterben	gierig	krank	gemein	versagen	47pct	acq_USunple_CSunple1_noRW	acq23456_noRW	3	3	0	0	300	300	376	46	0	1	1	blank2r.bmp	0	1	+	0	1	blank2r.bmp	252	1	CPPC	306	2	sterben	559	0	0	0	0	0	0	0	0	0	0	0	0	0	0	0	0	0	0	0	0	0	0	0	0	0	0	0	0	0	0	0	0	0	0	0	0	0	0	0
071019	12:53:43	13:00:10	386188	5.0.10.0	5_exp_noRW	40	Rpleas_acq	CS_A	DXXD	ZHHZ	CPPC	JQQJ	LWWL	YFFY	träumen	sonnig	gütig	küssen	genießen	vertrauen	töten	sterben	gierig	krank	gemein	versagen	53pct	acq_USpleas_CSunple2_noRW	acq23456_noRW	3	4	0	0	300	300	430	50	0	1	1	blank2r.bmp	0	1	+	0	1	blank2r.bmp	252	1	JQQJ	306	3	vertrauen	559	0	0	0	0	0	0	0	0	0	0	0	0	0	0	0	0	0	0	0	0	0	0	0	0	0	0	0	0	0	0	0	0	0	0	0	0	0	0	0
071019	12:53:43	13:00:12	388054	5.0.10.0	5_exp_noRW	40	Rpleas_acq	CS_A	DXXD	ZHHZ	CPPC	JQQJ	LWWL	YFFY	träumen	sonnig	gütig	küssen	genießen	vertrauen	töten	sterben	gierig	krank	gemein	versagen	47pct	acq_USunple_CSunple1_noRW	acq23456_noRW	3	5	0	0	300	300	689	46	0	1	1	blank2r.bmp	0	1	+	0	1	blank2r.bmp	252	1	CPPC	306	1	töten	559	0	0	0	0	0	0	0	0	0	0	0	0	0	0	0	0	0	0	0	0	0	0	0	0	0	0	0	0	0	0	0	0	0	0	0	0	0	0	0
071019	12:53:43	13:00:14	389707	5.0.10.0	5_exp_noRW	40	Rpleas_acq	CS_A	DXXD	ZHHZ	CPPC	JQQJ	LWWL	YFFY	träumen	sonnig	gütig	küssen	genießen	vertrauen	töten	sterben	gierig	krank	gemein	versagen	53pct	acq_USpleas_CSpleas1_noRW	acq23456_noRW	3	6	0	0	300	300	471	50	0	1	1	blank2r.bmp	0	1	+	0	1	blank2r.bmp	252	1	DXXD	306	2	sonnig	559	0	0	0	0	0	0	0	0	0	0	0	0	0	0	0	0	0	0	0	0	0	0	0	0	0	0	0	0	0	0	0	0	0	0	0	0	0	0	0
071019	12:53:43	13:00:15	391293	5.0.10.0	5_exp_noRW	40	Rpleas_acq	CS_A	DXXD	ZHHZ	CPPC	JQQJ	LWWL	YFFY	träumen	sonnig	gütig	küssen	genießen	vertrauen	töten	sterben	gierig	krank	gemein	versagen	53pct	acq_USpleas_CSunple1_noRW	acq23456_noRW	3	7	0	0	300	300	421	50	0	1	1	blank2r.bmp	0	1	+	0	1	blank2r.bmp	252	1	CPPC	306	2	sonnig	559	0	0	0	0	0	0	0	0	0	0	0	0	0	0	0	0	0	0	0	0	0	0	0	0	0	0	0	0	0	0	0	0	0	0	0	0	0	0	0
071019	12:53:43	13:00:17	393052	5.0.10.0	5_exp_noRW	40	Rpleas_acq	CS_A	DXXD	ZHHZ	CPPC	JQQJ	LWWL	YFFY	träumen	sonnig	gütig	küssen	genießen	vertrauen	töten	sterben	gierig	krank	gemein	versagen	47pct	acq_USunple_CSunple2_noRW	acq23456_noRW	3	8	0	0	300	300	572	46	0	1	1	blank2r.bmp	0	1	+	0	1	blank2r.bmp	252	1	JQQJ	306	3	versagen	559	0	0	0	0	0	0	0	0	0	0	0	0	0	0	0	0	0	0	0	0	0	0	0	0	0	0	0	0	0	0	0	0	0	0	0	0	0	0	0
071019	12:53:43	13:00:19	394718	5.0.10.0	5_exp_noRW	40	Rpleas_acq	CS_A	DXXD	ZHHZ	CPPC	JQQJ	LWWL	YFFY	träumen	sonnig	gütig	küssen	genießen	vertrauen	töten	sterben	gierig	krank	gemein	versagen	53pct	acq_USpleas_CSpleas2_noRW	acq23456_noRW	3	9	0	0	300	300	495	50	0	1	1	blank2r.bmp	0	1	+	0	1	blank2r.bmp	252	1	ZHHZ	306	2	genießen	559	0	0	0	0	0	0	0	0	0	0	0	0	0	0	0	0	0	0	0	0	0	0	0	0	0	0	0	0	0	0	0	0	0	0	0	0	0	0	0
071019	12:53:43	13:00:20	396357	5.0.10.0	5_exp_noRW	40	Rpleas_acq	CS_A	DXXD	ZHHZ	CPPC	JQQJ	LWWL	YFFY	träumen	sonnig	gütig	küssen	genießen	vertrauen	töten	sterben	gierig	krank	gemein	versagen	47pct	acq_USunple_CSpleas1_noRW	acq23456_noRW	3	10	0	0	300	300	471	46	0	1	1	blank2r.bmp	0	1	+	0	1	blank2r.bmp	252	1	DXXD	306	1	töten	559	0	0	0	0	0	0	0	0	0	0	0	0	0	0	0	0	0	0	0	0	0	0	0	0	0	0	0	0	0	0	0	0	0	0	0	0	0	0	0
071019	12:53:43	13:00:22	398010	5.0.10.0	5_exp_noRW	40	Rpleas_acq	CS_A	DXXD	ZHHZ	CPPC	JQQJ	LWWL	YFFY	träumen	sonnig	gütig	küssen	genießen	vertrauen	töten	sterben	gierig	krank	gemein	versagen	47pct	acq_USpleas_CSpleas2_noRW	acq23456_noRW	3	11	0	0	300	300	474	50	0	1	1	blank2r.bmp	0	1	+	0	1	blank2r.bmp	252	1	ZHHZ	306	2	genießen	559	0	0	0	0	0	0	0	0	0	0	0	0	0	0	0	0	0	0	0	0	0	0	0	0	0	0	0	0	0	0	0	0	0	0	0	0	0	0	0
071019	12:53:43	13:00:24	399702	5.0.10.0	5_exp_noRW	40	Rpleas_acq	CS_A	DXXD	ZHHZ	CPPC	JQQJ	LWWL	YFFY	träumen	sonnig	gütig	küssen	genießen	vertrauen	töten	sterben	gierig	krank	gemein	versagen	47pct	acq_USpleas_CSpleas2_noRW	acq23456_noRW	3	12	0	0	300	300	510	50	0	1	1	blank2r.bmp	0	1	+	0	1	blank2r.bmp	252	1	ZHHZ	306	1	küssen	559	0	0	0	0	0	0	0	0	0	0	0	0	0	0	0	0	0	0	0	0	0	0	0	0	0	0	0	0	0	0	0	0	0	0	0	0	0	0	0
071019	12:53:43	13:00:26	401835	5.0.10.0	5_exp_noRW	40	Rpleas_acq	CS_A	DXXD	ZHHZ	CPPC	JQQJ	LWWL	YFFY	träumen	sonnig	gütig	küssen	genießen	vertrauen	töten	sterben	gierig	krank	gemein	versagen	53pct	acq_USpleas_CSpleas1_noRW	acq23456_noRW	3	13	0	0	300	300	959	50	0	1	1	blank2r.bmp	0	1	+	0	1	blank2r.bmp	252	1	DXXD	306	2	sonnig	559	0	0	0	0	0	0	0	0	0	0	0	0	0	0	0	0	0	0	0	0	0	0	0	0	0	0	0	0	0	0	0	0	0	0	0	0	0	0	0
071019	12:53:43	13:00:27	403408	5.0.10.0	5_exp_noRW	40	Rpleas_acq	CS_A	DXXD	ZHHZ	CPPC	JQQJ	LWWL	YFFY	träumen	sonnig	gütig	küssen	genießen	vertrauen	töten	sterben	gierig	krank	gemein	versagen	53pct	acq_USunple_CSunple2_noRW	acq23456_noRW	3	14	0	0	300	300	398	46	0	1	1	blank2r.bmp	0	1	+	0	1	blank2r.bmp	252	1	JQQJ	306	3	versagen	559	0	0	0	0	0	0	0	0	0	0	0	0	0	0	0	0	0	0	0	0	0	0	0	0	0	0	0	0	0	0	0	0	0	0	0	0	0	0	0
071019	12:53:43	13:00:29	405020	5.0.10.0	5_exp_noRW	40	Rpleas_acq	CS_A	DXXD	ZHHZ	CPPC	JQQJ	LWWL	YFFY	träumen	sonnig	gütig	küssen	genießen	vertrauen	töten	sterben	gierig	krank	gemein	versagen	53pct	acq_USpleas_CSpleas1_noRW	acq23456_noRW	3	15	0	0	300	300	443	50	0	1	1	blank2r.bmp	0	1	+	0	1	blank2r.bmp	252	1	DXXD	306	3	gütig	559	0	0	0	0	0	0	0	0	0	0	0	0	0	0	0	0	0	0	0	0	0	0	0	0	0	0	0	0	0	0	0	0	0	0	0	0	0	0	0
071019	12:53:43	13:00:31	406686	5.0.10.0	5_exp_noRW	40	Rpleas_acq	CS_A	DXXD	ZHHZ	CPPC	JQQJ	LWWL	YFFY	träumen	sonnig	gütig	küssen	genießen	vertrauen	töten	sterben	gierig	krank	gemein	versagen	47pct	acq_USpleas_CSpleas2_noRW	acq23456_noRW	3	16	0	0	300	300	490	50	0	1	1	blank2r.bmp	0	1	+	0	1	blank2r.bmp	252	1	ZHHZ	306	3	vertrauen	559	0	0	0	0	0	0	0	0	0	0	0	0	0	0	0	0	0	0	0	0	0	0	0	0	0	0	0	0	0	0	0	0	0	0	0	0	0	0	0
071019	12:53:43	13:00:32	408552	5.0.10.0	5_exp_noRW	40	Rpleas_acq	CS_A	DXXD	ZHHZ	CPPC	JQQJ	LWWL	YFFY	träumen	sonnig	gütig	küssen	genießen	vertrauen	töten	sterben	gierig	krank	gemein	versagen	47pct	acq_USunple_CSunple1_noRW	acq23456_noRW	3	17	0	0	300	300	471	50	0	0	1	blank2r.bmp	0	1	+	0	1	blank2r.bmp	252	1	CPPC	306	3	gierig	559	1	FEHLER	1066	0	0	0	0	0	0	0	0	0	0	0	0	0	0	0	0	0	0	0	0	0	0	0	0	0	0	0	0	0	0	0	0	0	0	0	0
071019	12:53:43	13:00:34	410072	5.0.10.0	5_exp_noRW	40	Rpleas_acq	CS_A	DXXD	ZHHZ	CPPC	JQQJ	LWWL	YFFY	träumen	sonnig	gütig	küssen	genießen	vertrauen	töten	sterben	gierig	krank	gemein	versagen	53pct	acq_USunple_CSunple2_noRW	acq23456_noRW	3	18	0	0	300	300	548	46	0	1	1	blank2r.bmp	0	1	+	0	1	blank2r.bmp	252	1	JQQJ	306	1	krank	559	0	0	0	0	0	0	0	0	0	0	0	0	0	0	0	0	0	0	0	0	0	0	0	0	0	0	0	0	0	0	0	0	0	0	0	0	0	0	0
071019	12:53:43	13:00:36	411724	5.0.10.0	5_exp_noRW	40	Rpleas_acq	CS_A	DXXD	ZHHZ	CPPC	JQQJ	LWWL	YFFY	träumen	sonnig	gütig	küssen	genießen	vertrauen	töten	sterben	gierig	krank	gemein	versagen	47pct	acq_USpleas_CSpleas1_noRW	acq23456_noRW	3	19	0	0	300	300	470	50	0	1	1	blank2r.bmp	0	1	+	0	1	blank2r.bmp	252	1	DXXD	306	1	träumen	559	0	0	0	0	0	0	0	0	0	0	0	0	0	0	0	0	0	0	0	0	0	0	0	0	0	0	0	0	0	0	0	0	0	0	0	0	0	0	0
071019	12:53:43	13:00:37	413537	5.0.10.0	5_exp_noRW	40	Rpleas_acq	CS_A	DXXD	ZHHZ	CPPC	JQQJ	LWWL	YFFY	träumen	sonnig	gütig	küssen	genießen	vertrauen	töten	sterben	gierig	krank	gemein	versagen	53pct	acq_USunple_CSunple2_noRW	acq23456_noRW	3	20	0	0	300	300	634	46	0	1	1	blank2r.bmp	0	1	+	0	1	blank2r.bmp	252	1	JQQJ	306	2	gemein	559	0	0	0	0	0	0	0	0	0	0	0	0	0	0	0	0	0	0	0	0	0	0	0	0	0	0	0	0	0	0	0	0	0	0	0	0	0	0	0
071019	12:53:43	13:00:39	415216	5.0.10.0	5_exp_noRW	40	Rpleas_acq	CS_A	DXXD	ZHHZ	CPPC	JQQJ	LWWL	YFFY	träumen	sonnig	gütig	küssen	genießen	vertrauen	töten	sterben	gierig	krank	gemein	versagen	53pct	acq_USpleas_CSpleas2_noRW	acq23456_noRW	3	21	0	0	300	300	503	50	0	1	1	blank2r.bmp	0	1	+	0	1	blank2r.bmp	252	1	ZHHZ	306	3	vertrauen	559	0	0	0	0	0	0	0	0	0	0	0	0	0	0	0	0	0	0	0	0	0	0	0	0	0	0	0	0	0	0	0	0	0	0	0	0	0	0	0
071019	12:53:43	13:00:41	416855	5.0.10.0	5_exp_noRW	40	Rpleas_acq	CS_A	DXXD	ZHHZ	CPPC	JQQJ	LWWL	YFFY	träumen	sonnig	gütig	küssen	genießen	vertrauen	töten	sterben	gierig	krank	gemein	versagen	53pct	acq_USpleas_CSpleas1_noRW	acq23456_noRW	3	22	0	0	300	300	460	50	0	1	1	blank2r.bmp	0	1	+	0	1	blank2r.bmp	252	1	DXXD	306	2	sonnig	559	0	0	0	0	0	0	0	0	0	0	0	0	0	0	0	0	0	0	0	0	0	0	0	0	0	0	0	0	0	0	0	0	0	0	0	0	0	0	0
071019	12:53:43	13:00:42	418508	5.0.10.0	5_exp_noRW	40	Rpleas_acq	CS_A	DXXD	ZHHZ	CPPC	JQQJ	LWWL	YFFY	träumen	sonnig	gütig	küssen	genießen	vertrauen	töten	sterben	gierig	krank	gemein	versagen	53pct	acq_USpleas_CSpleas1_noRW	acq23456_noRW	3	23	0	0	300	300	467	50	0	1	1	blank2r.bmp	0	1	+	0	1	blank2r.bmp	252	1	DXXD	306	1	träumen	559	0	0	0	0	0	0	0	0	0	0	0	0	0	0	0	0	0	0	0	0	0	0	0	0	0	0	0	0	0	0	0	0	0	0	0	0	0	0	0
071019	12:53:43	13:00:44	420227	5.0.10.0	5_exp_noRW	40	Rpleas_acq	CS_A	DXXD	ZHHZ	CPPC	JQQJ	LWWL	YFFY	träumen	sonnig	gütig	küssen	genießen	vertrauen	töten	sterben	gierig	krank	gemein	versagen	47pct	acq_USunple_CSpleas1_noRW	acq23456_noRW	3	24	0	0	300	300	545	46	0	1	1	blank2r.bmp	0	1	+	0	1	blank2r.bmp	252	1	DXXD	306	3	gierig	559	0	0	0	0	0	0	0	0	0	0	0	0	0	0	0	0	0	0	0	0	0	0	0	0	0	0	0	0	0	0	0	0	0	0	0	0	0	0	0
071019	12:53:43	13:00:46	421867	5.0.10.0	5_exp_noRW	40	Rpleas_acq	CS_A	DXXD	ZHHZ	CPPC	JQQJ	LWWL	YFFY	träumen	sonnig	gütig	küssen	genießen	vertrauen	töten	sterben	gierig	krank	gemein	versagen	47pct	acq_USunple_CSpleas2_noRW	acq23456_noRW	3	25	0	0	300	300	475	46	0	1	1	blank2r.bmp	0	1	+	0	1	blank2r.bmp	252	1	ZHHZ	306	2	gemein	559	0	0	0	0	0	0	0	0	0	0	0	0	0	0	0	0	0	0	0	0	0	0	0	0	0	0	0	0	0	0	0	0	0	0	0	0	0	0	0
071019	12:53:43	13:00:47	423546	5.0.10.0	5_exp_noRW	40	Rpleas_acq	CS_A	DXXD	ZHHZ	CPPC	JQQJ	LWWL	YFFY	träumen	sonnig	gütig	küssen	genießen	vertrauen	töten	sterben	gierig	krank	gemein	versagen	47pct	acq_USunple_CSunple1_noRW	acq23456_noRW	3	26	0	0	300	300	496	46	0	1	1	blank2r.bmp	0	1	+	0	1	blank2r.bmp	252	1	CPPC	306	1	töten	559	0	0	0	0	0	0	0	0	0	0	0	0	0	0	0	0	0	0	0	0	0	0	0	0	0	0	0	0	0	0	0	0	0	0	0	0	0	0	0
071019	12:53:43	13:00:49	425212	5.0.10.0	5_exp_noRW	40	Rpleas_acq	CS_A	DXXD	ZHHZ	CPPC	JQQJ	LWWL	YFFY	träumen	sonnig	gütig	küssen	genießen	vertrauen	töten	sterben	gierig	krank	gemein	versagen	53pct	acq_USpleas_CSpleas1_noRW	acq23456_noRW	3	27	0	0	300	300	492	50	0	1	1	blank2r.bmp	0	1	+	0	1	blank2r.bmp	252	1	DXXD	306	3	gütig	559	0	0	0	0	0	0	0	0	0	0	0	0	0	0	0	0	0	0	0	0	0	0	0	0	0	0	0	0	0	0	0	0	0	0	0	0	0	0	0
071019	12:53:43	13:00:51	426945	5.0.10.0	5_exp_noRW	40	Rpleas_acq	CS_A	DXXD	ZHHZ	CPPC	JQQJ	LWWL	YFFY	träumen	sonnig	gütig	küssen	genießen	vertrauen	töten	sterben	gierig	krank	gemein	versagen	53pct	acq_USpleas_CSpleas2_noRW	acq23456_noRW	3	28	0	0	300	300	560	50	0	1	1	blank2r.bmp	0	1	+	0	1	blank2r.bmp	252	1	ZHHZ	306	2	genießen	559	0	0	0	0	0	0	0	0	0	0	0	0	0	0	0	0	0	0	0	0	0	0	0	0	0	0	0	0	0	0	0	0	0	0	0	0	0	0	0
071019	12:53:43	13:00:53	428811	5.0.10.0	5_exp_noRW	40	Rpleas_acq	CS_A	DXXD	ZHHZ	CPPC	JQQJ	LWWL	YFFY	träumen	sonnig	gütig	küssen	genießen	vertrauen	töten	sterben	gierig	krank	gemein	versagen	47pct	acq_USunple_CSunple1_noRW	acq23456_noRW	3	29	0	0	300	300	695	46	0	1	1	blank2r.bmp	0	1	+	0	1	blank2r.bmp	252	1	CPPC	306	2	sterben	559	0	0	0	0	0	0	0	0	0	0	0	0	0	0	0	0	0	0	0	0	0	0	0	0	0	0	0	0	0	0	0	0	0	0	0	0	0	0	0
071019	12:53:43	13:00:55	431116	5.0.10.0	5_exp_noRW	40	Rpleas_acq	CS_A	DXXD	ZHHZ	CPPC	JQQJ	LWWL	YFFY	träumen	sonnig	gütig	küssen	genießen	vertrauen	töten	sterben	gierig	krank	gemein	versagen	53pct	acq_USunple_CSunple2_noRW	acq23456_noRW	3	30	0	0	300	300	916	50	0	0	1	blank2r.bmp	0	1	+	0	1	blank2r.bmp	252	1	JQQJ	306	1	krank	559	1	FEHLER	1506	0	0	0	0	0	0	0	0	0	0	0	0	0	0	0	0	0	0	0	0	0	0	0	0	0	0	0	0	0	0	0	0	0	0	0	0
071019	12:53:43	13:00:57	433009	5.0.10.0	5_exp_noRW	40	Rpleas_acq	CS_A	DXXD	ZHHZ	CPPC	JQQJ	LWWL	YFFY	träumen	sonnig	gütig	küssen	genießen	vertrauen	töten	sterben	gierig	krank	gemein	versagen	47pct	acq_USunple_CSunple2_noRW	acq23456_noRW	3	31	0	0	300	300	944	46	0	1	1	blank2r.bmp	0	1	+	0	1	blank2r.bmp	252	1	JQQJ	306	2	gemein	559	0	0	0	0	0	0	0	0	0	0	0	0	0	0	0	0	0	0	0	0	0	0	0	0	0	0	0	0	0	0	0	0	0	0	0	0	0	0	0
071019	12:53:43	13:00:59	434995	5.0.10.0	5_exp_noRW	40	Rpleas_acq	CS_A	DXXD	ZHHZ	CPPC	JQQJ	LWWL	YFFY	träumen	sonnig	gütig	küssen	genießen	vertrauen	töten	sterben	gierig	krank	gemein	versagen	47pct	acq_USunple_CSunple2_noRW	acq23456_noRW	3	32	0	0	300	300	795	46	0	1	1	blank2r.bmp	0	1	+	0	1	blank2r.bmp	252	1	JQQJ	306	3	versagen	559	0	0	0	0	0	0	0	0	0	0	0	0	0	0	0	0	0	0	0	0	0	0	0	0	0	0	0	0	0	0	0	0	0	0	0	0	0	0	0
071019	12:53:43	13:01:01	436861	5.0.10.0	5_exp_noRW	40	Rpleas_acq	CS_A	DXXD	ZHHZ	CPPC	JQQJ	LWWL	YFFY	träumen	sonnig	gütig	küssen	genießen	vertrauen	töten	sterben	gierig	krank	gemein	versagen	53pct	acq_USunple_CSunple2_noRW	acq23456_noRW	3	33	0	0	300	300	690	46	0	1	1	blank2r.bmp	0	1	+	0	1	blank2r.bmp	252	1	JQQJ	306	1	krank	559	0	0	0	0	0	0	0	0	0	0	0	0	0	0	0	0	0	0	0	0	0	0	0	0	0	0	0	0	0	0	0	0	0	0	0	0	0	0	0
071019	12:53:43	13:01:03	438646	5.0.10.0	5_exp_noRW	40	Rpleas_acq	CS_A	DXXD	ZHHZ	CPPC	JQQJ	LWWL	YFFY	träumen	sonnig	gütig	küssen	genießen	vertrauen	töten	sterben	gierig	krank	gemein	versagen	47pct	acq_USpleas_CSunple1_noRW	acq23456_noRW	3	34	0	0	300	300	613	50	0	1	1	blank2r.bmp	0	1	+	0	1	blank2r.bmp	252	1	CPPC	306	3	gütig	559	0	0	0	0	0	0	0	0	0	0	0	0	0	0	0	0	0	0	0	0	0	0	0	0	0	0	0	0	0	0	0	0	0	0	0	0	0	0	0
071019	12:53:43	13:01:04	440432	5.0.10.0	5_exp_noRW	40	Rpleas_acq	CS_A	DXXD	ZHHZ	CPPC	JQQJ	LWWL	YFFY	träumen	sonnig	gütig	küssen	genießen	vertrauen	töten	sterben	gierig	krank	gemein	versagen	53pct	acq_USunple_CSunple1_noRW	acq23456_noRW	3	35	0	0	300	300	624	46	0	1	1	blank2r.bmp	0	1	+	0	1	blank2r.bmp	252	1	CPPC	306	3	gierig	559	0	0	0	0	0	0	0	0	0	0	0	0	0	0	0	0	0	0	0	0	0	0	0	0	0	0	0	0	0	0	0	0	0	0	0	0	0	0	0
071019	12:53:43	13:01:06	442138	5.0.10.0	5_exp_noRW	40	Rpleas_acq	CS_A	DXXD	ZHHZ	CPPC	JQQJ	LWWL	YFFY	träumen	sonnig	gütig	küssen	genießen	vertrauen	töten	sterben	gierig	krank	gemein	versagen	47pct	acq_USpleas_CSunple2_noRW	acq23456_noRW	3	36	0	0	300	300	544	50	0	1	1	blank2r.bmp	0	1	+	0	1	blank2r.bmp	252	1	JQQJ	306	1	küssen	559	0	0	0	0	0	0	0	0	0	0	0	0	0	0	0	0	0	0	0	0	0	0	0	0	0	0	0	0	0	0	0	0	0	0	0	0	0	0	0
071019	12:53:43	13:01:08	444084	5.0.10.0	5_exp_noRW	40	Rpleas_acq	CS_A	DXXD	ZHHZ	CPPC	JQQJ	LWWL	YFFY	träumen	sonnig	gütig	küssen	genießen	vertrauen	töten	sterben	gierig	krank	gemein	versagen	47pct	acq_USpleas_CSpleas1_noRW	acq23456_noRW	3	37	0	0	300	300	763	50	0	1	1	blank2r.bmp	0	1	+	0	1	blank2r.bmp	252	1	DXXD	306	1	träumen	559	0	0	0	0	0	0	0	0	0	0	0	0	0	0	0	0	0	0	0	0	0	0	0	0	0	0	0	0	0	0	0	0	0	0	0	0	0	0	0
071019	12:53:43	13:01:10	445777	5.0.10.0	5_exp_noRW	40	Rpleas_acq	CS_A	DXXD	ZHHZ	CPPC	JQQJ	LWWL	YFFY	träumen	sonnig	gütig	küssen	genießen	vertrauen	töten	sterben	gierig	krank	gemein	versagen	53pct	acq_USunple_CSunple1_noRW	acq23456_noRW	3	38	0	0	300	300	520	46	0	1	1	blank2r.bmp	0	1	+	0	1	blank2r.bmp	252	1	CPPC	306	2	sterben	559	0	0	0	0	0	0	0	0	0	0	0	0	0	0	0	0	0	0	0	0	0	0	0	0	0	0	0	0	0	0	0	0	0	0	0	0	0	0	0
071019	12:53:43	13:01:12	447629	5.0.10.0	5_exp_noRW	40	Rpleas_acq	CS_A	DXXD	ZHHZ	CPPC	JQQJ	LWWL	YFFY	träumen	sonnig	gütig	küssen	genießen	vertrauen	töten	sterben	gierig	krank	gemein	versagen	53pct	acq_USpleas_CSpleas2_noRW	acq23456_noRW	3	39	0	0	300	300	686	50	0	1	1	blank2r.bmp	0	1	+	0	1	blank2r.bmp	252	1	ZHHZ	306	1	küssen	559	0	0	0	0	0	0	0	0	0	0	0	0	0	0	0	0	0	0	0	0	0	0	0	0	0	0	0	0	0	0	0	0	0	0	0	0	0	0	0
071019	12:53:43	13:01:13	449482	5.0.10.0	5_exp_noRW	40	Rpleas_acq	CS_A	DXXD	ZHHZ	CPPC	JQQJ	LWWL	YFFY	träumen	sonnig	gütig	küssen	genießen	vertrauen	töten	sterben	gierig	krank	gemein	versagen	53pct	acq_USpleas_CSpleas2_noRW	acq23456_noRW	3	40	0	0	300	300	684	50	0	1	1	blank2r.bmp	0	1	+	0	1	blank2r.bmp	252	1	ZHHZ	306	1	küssen	559	0	0	0	0	0	0	0	0	0	0	0	0	0	0	0	0	0	0	0	0	0	0	0	0	0	0	0	0	0	0	0	0	0	0	0	0	0	0	0
071019	12:53:43	13:01:15	451148	5.0.10.0	5_exp_noRW	40	Rpleas_acq	CS_A	DXXD	ZHHZ	CPPC	JQQJ	LWWL	YFFY	träumen	sonnig	gütig	küssen	genießen	vertrauen	töten	sterben	gierig	krank	gemein	versagen	47pct	acq_USunple_CSpleas1_noRW	acq23456_noRW	3	41	0	0	300	300	498	46	0	1	1	blank2r.bmp	0	1	+	0	1	blank2r.bmp	252	1	DXXD	306	1	töten	559	0	0	0	0	0	0	0	0	0	0	0	0	0	0	0	0	0	0	0	0	0	0	0	0	0	0	0	0	0	0	0	0	0	0	0	0	0	0	0
071019	12:53:43	13:01:18	453654	5.0.10.0	5_exp_noRW	40	Rpleas_acq	CS_A	DXXD	ZHHZ	CPPC	JQQJ	LWWL	YFFY	träumen	sonnig	gütig	küssen	genießen	vertrauen	töten	sterben	gierig	krank	gemein	versagen	53pct	acq_USunple_CSunple2_noRW	acq23456_noRW	3	42	0	0	300	300	1325	46	0	1	1	blank2r.bmp	0	1	+	0	1	blank2r.bmp	252	1	JQQJ	306	3	versagen	559	0	0	0	0	0	0	0	0	0	0	0	0	0	0	0	0	0	0	0	0	0	0	0	0	0	0	0	0	0	0	0	0	0	0	0	0	0	0	0
071019	12:53:43	13:01:19	455360	5.0.10.0	5_exp_noRW	40	Rpleas_acq	CS_A	DXXD	ZHHZ	CPPC	JQQJ	LWWL	YFFY	träumen	sonnig	gütig	küssen	genießen	vertrauen	töten	sterben	gierig	krank	gemein	versagen	47pct	acq_USpleas_CSpleas2_noRW	acq23456_noRW	3	43	0	0	300	300	518	50	0	1	1	blank2r.bmp	0	1	+	0	1	blank2r.bmp	252	1	ZHHZ	306	2	genießen	559	0	0	0	0	0	0	0	0	0	0	0	0	0	0	0	0	0	0	0	0	0	0	0	0	0	0	0	0	0	0	0	0	0	0	0	0	0	0	0
071019	12:53:43	13:01:21	457279	5.0.10.0	5_exp_noRW	40	Rpleas_acq	CS_A	DXXD	ZHHZ	CPPC	JQQJ	LWWL	YFFY	träumen	sonnig	gütig	küssen	genießen	vertrauen	töten	sterben	gierig	krank	gemein	versagen	47pct	acq_USpleas_CSpleas2_noRW	acq23456_noRW	3	44	0	0	300	300	741	50	0	1	1	blank2r.bmp	0	1	+	0	1	blank2r.bmp	252	1	ZHHZ	306	3	vertrauen	559	0	0	0	0	0	0	0	0	0	0	0	0	0	0	0	0	0	0	0	0	0	0	0	0	0	0	0	0	0	0	0	0	0	0	0	0	0	0	0
071019	12:53:43	13:01:23	458918	5.0.10.0	5_exp_noRW	40	Rpleas_acq	CS_A	DXXD	ZHHZ	CPPC	JQQJ	LWWL	YFFY	träumen	sonnig	gütig	küssen	genießen	vertrauen	töten	sterben	gierig	krank	gemein	versagen	47pct	acq_USpleas_CSpleas1_noRW	acq23456_noRW	3	45	0	0	300	300	458	50	0	1	1	blank2r.bmp	0	1	+	0	1	blank2r.bmp	252	1	DXXD	306	2	sonnig	559	0	0	0	0	0	0	0	0	0	0	0	0	0	0	0	0	0	0	0	0	0	0	0	0	0	0	0	0	0	0	0	0	0	0	0	0	0	0	0
071019	12:53:43	13:01:25	460677	5.0.10.0	5_exp_noRW	40	Rpleas_acq	CS_A	DXXD	ZHHZ	CPPC	JQQJ	LWWL	YFFY	träumen	sonnig	gütig	küssen	genießen	vertrauen	töten	sterben	gierig	krank	gemein	versagen	47pct	acq_USunple_CSunple1_noRW	acq23456_noRW	3	46	0	0	300	300	577	46	0	1	1	blank2r.bmp	0	1	+	0	1	blank2r.bmp	252	1	CPPC	306	3	gierig	559	0	0	0	0	0	0	0	0	0	0	0	0	0	0	0	0	0	0	0	0	0	0	0	0	0	0	0	0	0	0	0	0	0	0	0	0	0	0	0
071019	12:53:43	13:01:26	462370	5.0.10.0	5_exp_noRW	40	Rpleas_acq	CS_A	DXXD	ZHHZ	CPPC	JQQJ	LWWL	YFFY	träumen	sonnig	gütig	küssen	genießen	vertrauen	töten	sterben	gierig	krank	gemein	versagen	47pct	acq_USunple_CSunple1_noRW	acq23456_noRW	3	47	0	0	300	300	517	46	0	1	1	blank2r.bmp	0	1	+	0	1	blank2r.bmp	252	1	CPPC	306	1	töten	559	0	0	0	0	0	0	0	0	0	0	0	0	0	0	0	0	0	0	0	0	0	0	0	0	0	0	0	0	0	0	0	0	0	0	0	0	0	0	0
071019	12:53:43	13:01:28	464023	5.0.10.0	5_exp_noRW	40	Rpleas_acq	CS_A	DXXD	ZHHZ	CPPC	JQQJ	LWWL	YFFY	träumen	sonnig	gütig	küssen	genießen	vertrauen	töten	sterben	gierig	krank	gemein	versagen	53pct	acq_USunple_CSunple2_noRW	acq23456_noRW	3	48	0	0	300	300	474	46	0	1	1	blank2r.bmp	0	1	+	0	1	blank2r.bmp	252	1	JQQJ	306	2	gemein	559	0	0	0	0	0	0	0	0	0	0	0	0	0	0	0	0	0	0	0	0	0	0	0	0	0	0	0	0	0	0	0	0	0	0	0	0	0	0	0
071019	12:53:43	13:01:30	465675	5.0.10.0	5_exp_noRW	40	Rpleas_acq	CS_A	DXXD	ZHHZ	CPPC	JQQJ	LWWL	YFFY	träumen	sonnig	gütig	küssen	genießen	vertrauen	töten	sterben	gierig	krank	gemein	versagen	53pct	acq_USunple_CSunple2_noRW	acq23456_noRW	3	49	0	0	300	300	490	46	0	1	1	blank2r.bmp	0	1	+	0	1	blank2r.bmp	252	1	JQQJ	306	1	krank	559	0	0	0	0	0	0	0	0	0	0	0	0	0	0	0	0	0	0	0	0	0	0	0	0	0	0	0	0	0	0	0	0	0	0	0	0	0	0	0
071019	12:53:43	13:01:31	467341	5.0.10.0	5_exp_noRW	40	Rpleas_acq	CS_A	DXXD	ZHHZ	CPPC	JQQJ	LWWL	YFFY	träumen	sonnig	gütig	küssen	genießen	vertrauen	töten	sterben	gierig	krank	gemein	versagen	53pct	acq_USpleas_CSpleas1_noRW	acq23456_noRW	3	50	0	0	300	300	489	50	0	1	1	blank2r.bmp	0	1	+	0	1	blank2r.bmp	252	1	DXXD	306	3	gütig	559	0	0	0	0	0	0	0	0	0	0	0	0	0	0	0	0	0	0	0	0	0	0	0	0	0	0	0	0	0	0	0	0	0	0	0	0	0	0	0
071019	12:53:43	13:01:33	468967	5.0.10.0	5_exp_noRW	40	Rpleas_acq	CS_A	DXXD	ZHHZ	CPPC	JQQJ	LWWL	YFFY	träumen	sonnig	gütig	küssen	genießen	vertrauen	töten	sterben	gierig	krank	gemein	versagen	53pct	acq_USpleas_CSpleas2_noRW	acq23456_noRW	3	51	0	0	300	300	439	50	0	1	1	blank2r.bmp	0	1	+	0	1	blank2r.bmp	252	1	ZHHZ	306	1	küssen	559	0	0	0	0	0	0	0	0	0	0	0	0	0	0	0	0	0	0	0	0	0	0	0	0	0	0	0	0	0	0	0	0	0	0	0	0	0	0	0
071019	12:53:43	13:01:35	470607	5.0.10.0	5_exp_noRW	40	Rpleas_acq	CS_A	DXXD	ZHHZ	CPPC	JQQJ	LWWL	YFFY	träumen	sonnig	gütig	küssen	genießen	vertrauen	töten	sterben	gierig	krank	gemein	versagen	53pct	acq_USpleas_CSpleas1_noRW	acq23456_noRW	3	52	0	0	300	300	477	50	0	1	1	blank2r.bmp	0	1	+	0	1	blank2r.bmp	252	1	DXXD	306	2	sonnig	559	0	0	0	0	0	0	0	0	0	0	0	0	0	0	0	0	0	0	0	0	0	0	0	0	0	0	0	0	0	0	0	0	0	0	0	0	0	0	0
071019	12:53:43	13:01:36	472353	5.0.10.0	5_exp_noRW	40	Rpleas_acq	CS_A	DXXD	ZHHZ	CPPC	JQQJ	LWWL	YFFY	träumen	sonnig	gütig	küssen	genießen	vertrauen	töten	sterben	gierig	krank	gemein	versagen	53pct	acq_USpleas_CSpleas1_noRW	acq23456_noRW	3	53	0	0	300	300	558	50	0	1	1	blank2r.bmp	0	1	+	0	1	blank2r.bmp	252	1	DXXD	306	3	gütig	559	0	0	0	0	0	0	0	0	0	0	0	0	0	0	0	0	0	0	0	0	0	0	0	0	0	0	0	0	0	0	0	0	0	0	0	0	0	0	0
071019	12:53:43	13:01:38	473992	5.0.10.0	5_exp_noRW	40	Rpleas_acq	CS_A	DXXD	ZHHZ	CPPC	JQQJ	LWWL	YFFY	träumen	sonnig	gütig	küssen	genießen	vertrauen	töten	sterben	gierig	krank	gemein	versagen	53pct	acq_USunple_CSunple1_noRW	acq23456_noRW	3	54	0	0	300	300	473	46	0	1	1	blank2r.bmp	0	1	+	0	1	blank2r.bmp	252	1	CPPC	306	2	sterben	559	0	0	0	0	0	0	0	0	0	0	0	0	0	0	0	0	0	0	0	0	0	0	0	0	0	0	0	0	0	0	0	0	0	0	0	0	0	0	0
071019	12:53:43	13:01:40	475631	5.0.10.0	5_exp_noRW	40	Rpleas_acq	CS_A	DXXD	ZHHZ	CPPC	JQQJ	LWWL	YFFY	träumen	sonnig	gütig	küssen	genießen	vertrauen	töten	sterben	gierig	krank	gemein	versagen	53pct	acq_USpleas_CSpleas2_noRW	acq23456_noRW	3	55	0	0	300	300	468	50	0	1	1	blank2r.bmp	0	1	+	0	1	blank2r.bmp	252	1	ZHHZ	306	2	genießen	559	0	0	0	0	0	0	0	0	0	0	0	0	0	0	0	0	0	0	0	0	0	0	0	0	0	0	0	0	0	0	0	0	0	0	0	0	0	0	0
071019	12:53:43	13:01:42	477604	5.0.10.0	5_exp_noRW	40	Rpleas_acq	CS_A	DXXD	ZHHZ	CPPC	JQQJ	LWWL	YFFY	träumen	sonnig	gütig	küssen	genießen	vertrauen	töten	sterben	gierig	krank	gemein	versagen	53pct	acq_USunple_CSunple2_noRW	acq23456_noRW	3	56	0	0	300	300	799	46	0	1	1	blank2r.bmp	0	1	+	0	1	blank2r.bmp	252	1	JQQJ	306	3	versagen	559	0	0	0	0	0	0	0	0	0	0	0	0	0	0	0	0	0	0	0	0	0	0	0	0	0	0	0	0	0	0	0	0	0	0	0	0	0	0	0
071019	12:53:43	13:01:43	479443	5.0.10.0	5_exp_noRW	40	Rpleas_acq	CS_A	DXXD	ZHHZ	CPPC	JQQJ	LWWL	YFFY	träumen	sonnig	gütig	küssen	genießen	vertrauen	töten	sterben	gierig	krank	gemein	versagen	47pct	acq_USpleas_CSunple2_noRW	acq23456_noRW	3	57	0	0	300	300	668	50	0	1	1	blank2r.bmp	0	1	+	0	1	blank2r.bmp	252	1	JQQJ	306	2	genießen	559	0	0	0	0	0	0	0	0	0	0	0	0	0	0	0	0	0	0	0	0	0	0	0	0	0	0	0	0	0	0	0	0	0	0	0	0	0	0	0
071019	12:53:43	13:01:45	481136	5.0.10.0	5_exp_noRW	40	Rpleas_acq	CS_A	DXXD	ZHHZ	CPPC	JQQJ	LWWL	YFFY	träumen	sonnig	gütig	küssen	genießen	vertrauen	töten	sterben	gierig	krank	gemein	versagen	47pct	acq_USunple_CSunple1_noRW	acq23456_noRW	3	58	0	0	300	300	511	46	0	1	1	blank2r.bmp	0	1	+	0	1	blank2r.bmp	252	1	CPPC	306	3	gierig	559	0	0	0	0	0	0	0	0	0	0	0	0	0	0	0	0	0	0	0	0	0	0	0	0	0	0	0	0	0	0	0	0	0	0	0	0	0	0	0
071019	12:53:43	13:01:47	482828	5.0.10.0	5_exp_noRW	40	Rpleas_acq	CS_A	DXXD	ZHHZ	CPPC	JQQJ	LWWL	YFFY	träumen	sonnig	gütig	küssen	genießen	vertrauen	töten	sterben	gierig	krank	gemein	versagen	47pct	acq_USpleas_CSunple1_noRW	acq23456_noRW	3	59	0	0	300	300	529	50	0	1	1	blank2r.bmp	0	1	+	0	1	blank2r.bmp	252	1	CPPC	306	1	träumen	559	0	0	0	0	0	0	0	0	0	0	0	0	0	0	0	0	0	0	0	0	0	0	0	0	0	0	0	0	0	0	0	0	0	0	0	0	0	0	0
071019	12:53:43	13:01:48	484414	5.0.10.0	5_exp_noRW	40	Rpleas_acq	CS_A	DXXD	ZHHZ	CPPC	JQQJ	LWWL	YFFY	träumen	sonnig	gütig	küssen	genießen	vertrauen	töten	sterben	gierig	krank	gemein	versagen	47pct	acq_USunple_CSpleas2_noRW	acq23456_noRW	3	60	0	0	300	300	401	46	0	1	1	blank2r.bmp	0	1	+	0	1	blank2r.bmp	252	1	ZHHZ	306	1	krank	559	0	0	0	0	0	0	0	0	0	0	0	0	0	0	0	0	0	0	0	0	0	0	0	0	0	0	0	0	0	0	0	0	0	0	0	0	0	0	0
071019	12:53:43	13:01:50	486120	5.0.10.0	5_exp_noRW	40	Rpleas_acq	CS_A	DXXD	ZHHZ	CPPC	JQQJ	LWWL	YFFY	träumen	sonnig	gütig	küssen	genießen	vertrauen	töten	sterben	gierig	krank	gemein	versagen	47pct	acq_USpleas_CSpleas1_noRW	acq23456_noRW	3	61	0	0	300	300	534	50	0	1	1	blank2r.bmp	0	1	+	0	1	blank2r.bmp	252	1	DXXD	306	1	träumen	559	0	0	0	0	0	0	0	0	0	0	0	0	0	0	0	0	0	0	0	0	0	0	0	0	0	0	0	0	0	0	0	0	0	0	0	0	0	0	0
071019	12:53:43	13:01:52	487786	5.0.10.0	5_exp_noRW	40	Rpleas_acq	CS_A	DXXD	ZHHZ	CPPC	JQQJ	LWWL	YFFY	träumen	sonnig	gütig	küssen	genießen	vertrauen	töten	sterben	gierig	krank	gemein	versagen	47pct	acq_USunple_CSunple1_noRW	acq23456_noRW	3	62	0	0	300	300	490	46	0	1	1	blank2r.bmp	0	1	+	0	1	blank2r.bmp	252	1	CPPC	306	1	töten	559	0	0	0	0	0	0	0	0	0	0	0	0	0	0	0	0	0	0	0	0	0	0	0	0	0	0	0	0	0	0	0	0	0	0	0	0	0	0	0
071019	12:53:43	13:01:53	489466	5.0.10.0	5_exp_noRW	40	Rpleas_acq	CS_A	DXXD	ZHHZ	CPPC	JQQJ	LWWL	YFFY	träumen	sonnig	gütig	küssen	genießen	vertrauen	töten	sterben	gierig	krank	gemein	versagen	53pct	acq_USunple_CSpleas2_noRW	acq23456_noRW	3	63	0	0	300	300	499	46	0	1	1	blank2r.bmp	0	1	+	0	1	blank2r.bmp	252	1	ZHHZ	306	3	versagen	559	0	0	0	0	0	0	0	0	0	0	0	0	0	0	0	0	0	0	0	0	0	0	0	0	0	0	0	0	0	0	0	0	0	0	0	0	0	0	0
071019	12:53:43	13:01:55	491425	5.0.10.0	5_exp_noRW	40	Rpleas_acq	CS_A	DXXD	ZHHZ	CPPC	JQQJ	LWWL	YFFY	träumen	sonnig	gütig	küssen	genießen	vertrauen	töten	sterben	gierig	krank	gemein	versagen	53pct	acq_USunple_CSunple1_noRW	acq23456_noRW	3	64	0	0	300	300	788	46	0	1	1	blank2r.bmp	0	1	+	0	1	blank2r.bmp	252	1	CPPC	306	2	sterben	559	0	0	0	0	0	0	0	0	0	0	0	0	0	0	0	0	0	0	0	0	0	0	0	0	0	0	0	0	0	0	0	0	0	0	0	0	0	0	0
071019	12:53:43	13:01:57	493384	5.0.10.0	5_exp_noRW	40	Rpleas_acq	CS_A	DXXD	ZHHZ	CPPC	JQQJ	LWWL	YFFY	träumen	sonnig	gütig	küssen	genießen	vertrauen	töten	sterben	gierig	krank	gemein	versagen	47pct	acq_USunple_CSunple2_noRW	acq23456_noRW	3	65	0	0	300	300	781	46	0	1	1	blank2r.bmp	0	1	+	0	1	blank2r.bmp	252	1	JQQJ	306	2	gemein	559	0	0	0	0	0	0	0	0	0	0	0	0	0	0	0	0	0	0	0	0	0	0	0	0	0	0	0	0	0	0	0	0	0	0	0	0	0	0	0
071019	12:53:43	13:01:59	495077	5.0.10.0	5_exp_noRW	40	Rpleas_acq	CS_A	DXXD	ZHHZ	CPPC	JQQJ	LWWL	YFFY	träumen	sonnig	gütig	küssen	genießen	vertrauen	töten	sterben	gierig	krank	gemein	versagen	53pct	acq_USpleas_CSunple1_noRW	acq23456_noRW	3	66	0	0	300	300	507	50	0	1	1	blank2r.bmp	0	1	+	0	1	blank2r.bmp	252	1	CPPC	306	2	sonnig	559	0	0	0	0	0	0	0	0	0	0	0	0	0	0	0	0	0	0	0	0	0	0	0	0	0	0	0	0	0	0	0	0	0	0	0	0	0	0	0
071019	12:53:43	13:02:01	496983	5.0.10.0	5_exp_noRW	40	Rpleas_acq	CS_A	DXXD	ZHHZ	CPPC	JQQJ	LWWL	YFFY	träumen	sonnig	gütig	küssen	genießen	vertrauen	töten	sterben	gierig	krank	gemein	versagen	53pct	acq_USpleas_CSpleas1_noRW	acq23456_noRW	3	67	0	0	300	300	724	50	0	1	1	blank2r.bmp	0	1	+	0	1	blank2r.bmp	252	1	DXXD	306	1	träumen	559	0	0	0	0	0	0	0	0	0	0	0	0	0	0	0	0	0	0	0	0	0	0	0	0	0	0	0	0	0	0	0	0	0	0	0	0	0	0	0
071019	12:53:43	13:02:03	499208	5.0.10.0	5_exp_noRW	40	Rpleas_acq	CS_A	DXXD	ZHHZ	CPPC	JQQJ	LWWL	YFFY	träumen	sonnig	gütig	küssen	genießen	vertrauen	töten	sterben	gierig	krank	gemein	versagen	47pct	acq_USpleas_CSpleas2_noRW	acq23456_noRW	3	68	0	0	300	300	1064	50	0	1	1	blank2r.bmp	0	1	+	0	1	blank2r.bmp	252	1	ZHHZ	306	3	vertrauen	559	0	0	0	0	0	0	0	0	0	0	0	0	0	0	0	0	0	0	0	0	0	0	0	0	0	0	0	0	0	0	0	0	0	0	0	0	0	0	0
071019	12:53:43	13:02:05	500968	5.0.10.0	5_exp_noRW	40	Rpleas_acq	CS_A	DXXD	ZHHZ	CPPC	JQQJ	LWWL	YFFY	träumen	sonnig	gütig	küssen	genießen	vertrauen	töten	sterben	gierig	krank	gemein	versagen	47pct	acq_USpleas_CSpleas1_noRW	acq23456_noRW	3	69	0	0	300	300	572	50	0	1	1	blank2r.bmp	0	1	+	0	1	blank2r.bmp	252	1	DXXD	306	3	gütig	559	0	0	0	0	0	0	0	0	0	0	0	0	0	0	0	0	0	0	0	0	0	0	0	0	0	0	0	0	0	0	0	0	0	0	0	0	0	0	0
071019	12:53:43	13:02:06	502554	5.0.10.0	5_exp_noRW	40	Rpleas_acq	CS_A	DXXD	ZHHZ	CPPC	JQQJ	LWWL	YFFY	träumen	sonnig	gütig	küssen	genießen	vertrauen	töten	sterben	gierig	krank	gemein	versagen	47pct	acq_USunple_CSunple1_noRW	acq23456_noRW	3	70	0	0	300	300	423	46	0	1	1	blank2r.bmp	0	1	+	0	1	blank2r.bmp	252	1	CPPC	306	1	töten	559	0	0	0	0	0	0	0	0	0	0	0	0	0	0	0	0	0	0	0	0	0	0	0	0	0	0	0	0	0	0	0	0	0	0	0	0	0	0	0
071019	12:53:43	13:02:08	504180	5.0.10.0	5_exp_noRW	40	Rpleas_acq	CS_A	DXXD	ZHHZ	CPPC	JQQJ	LWWL	YFFY	träumen	sonnig	gütig	küssen	genießen	vertrauen	töten	sterben	gierig	krank	gemein	versagen	53pct	acq_USunple_CSunple2_noRW	acq23456_noRW	3	71	0	0	300	300	445	46	0	1	1	blank2r.bmp	0	1	+	0	1	blank2r.bmp	252	1	JQQJ	306	1	krank	559	0	0	0	0	0	0	0	0	0	0	0	0	0	0	0	0	0	0	0	0	0	0	0	0	0	0	0	0	0	0	0	0	0	0	0	0	0	0	0
071019	12:53:43	13:02:10	505806	5.0.10.0	5_exp_noRW	40	Rpleas_acq	CS_A	DXXD	ZHHZ	CPPC	JQQJ	LWWL	YFFY	träumen	sonnig	gütig	küssen	genießen	vertrauen	töten	sterben	gierig	krank	gemein	versagen	53pct	acq_USunple_CSunple1_noRW	acq23456_noRW	3	72	0	0	300	300	456	46	0	1	1	blank2r.bmp	0	1	+	0	1	blank2r.bmp	252	1	CPPC	306	3	gierig	559	0	0	0	0	0	0	0	0	0	0	0	0	0	0	0	0	0	0	0	0	0	0	0	0	0	0	0	0	0	0	0	0	0	0	0	0	0	0	0
071019	12:53:43	13:02:11	507525	5.0.10.0	5_exp_noRW	40	Rpleas_acq	CS_A	DXXD	ZHHZ	CPPC	JQQJ	LWWL	YFFY	träumen	sonnig	gütig	küssen	genießen	vertrauen	töten	sterben	gierig	krank	gemein	versagen	53pct	acq_USpleas_CSpleas1_noRW	acq23456_noRW	3	73	0	0	300	300	540	50	0	1	1	blank2r.bmp	0	1	+	0	1	blank2r.bmp	252	1	DXXD	306	2	sonnig	559	0	0	0	0	0	0	0	0	0	0	0	0	0	0	0	0	0	0	0	0	0	0	0	0	0	0	0	0	0	0	0	0	0	0	0	0	0	0	0
071019	12:53:43	13:02:14	509804	5.0.10.0	5_exp_noRW	40	Rpleas_acq	CS_A	DXXD	ZHHZ	CPPC	JQQJ	LWWL	YFFY	träumen	sonnig	gütig	küssen	genießen	vertrauen	töten	sterben	gierig	krank	gemein	versagen	47pct	acq_USunple_CSpleas1_noRW	acq23456_noRW	3	74	0	0	300	300	1091	46	0	1	1	blank2r.bmp	0	1	+	0	1	blank2r.bmp	252	1	DXXD	306	2	sterben	559	0	0	0	0	0	0	0	0	0	0	0	0	0	0	0	0	0	0	0	0	0	0	0	0	0	0	0	0	0	0	0	0	0	0	0	0	0	0	0
071019	12:53:43	13:02:16	511777	5.0.10.0	5_exp_noRW	40	Rpleas_acq	CS_A	DXXD	ZHHZ	CPPC	JQQJ	LWWL	YFFY	träumen	sonnig	gütig	küssen	genießen	vertrauen	töten	sterben	gierig	krank	gemein	versagen	53pct	acq_USpleas_CSunple2_noRW	acq23456_noRW	3	75	0	0	300	300	792	50	0	1	1	blank2r.bmp	0	1	+	0	1	blank2r.bmp	252	1	JQQJ	306	3	vertrauen	559	0	0	0	0	0	0	0	0	0	0	0	0	0	0	0	0	0	0	0	0	0	0	0	0	0	0	0	0	0	0	0	0	0	0	0	0	0	0	0
071019	12:53:43	13:02:17	513403	5.0.10.0	5_exp_noRW	40	Rpleas_acq	CS_A	DXXD	ZHHZ	CPPC	JQQJ	LWWL	YFFY	träumen	sonnig	gütig	küssen	genießen	vertrauen	töten	sterben	gierig	krank	gemein	versagen	53pct	acq_USpleas_CSpleas2_noRW	acq23456_noRW	3	76	0	0	300	300	462	50	0	1	1	blank2r.bmp	0	1	+	0	1	blank2r.bmp	252	1	ZHHZ	306	1	küssen	559	0	0	0	0	0	0	0	0	0	0	0	0	0	0	0	0	0	0	0	0	0	0	0	0	0	0	0	0	0	0	0	0	0	0	0	0	0	0	0
071019	12:53:43	13:02:19	515322	5.0.10.0	5_exp_noRW	40	Rpleas_acq	CS_A	DXXD	ZHHZ	CPPC	JQQJ	LWWL	YFFY	träumen	sonnig	gütig	küssen	genießen	vertrauen	töten	sterben	gierig	krank	gemein	versagen	53pct	acq_USpleas_CSpleas2_noRW	acq23456_noRW	3	77	0	0	300	300	743	50	0	1	1	blank2r.bmp	0	1	+	0	1	blank2r.bmp	252	1	ZHHZ	306	2	genießen	559	0	0	0	0	0	0	0	0	0	0	0	0	0	0	0	0	0	0	0	0	0	0	0	0	0	0	0	0	0	0	0	0	0	0	0	0	0	0	0
071019	12:53:43	13:02:21	517014	5.0.10.0	5_exp_noRW	40	Rpleas_acq	CS_A	DXXD	ZHHZ	CPPC	JQQJ	LWWL	YFFY	träumen	sonnig	gütig	küssen	genießen	vertrauen	töten	sterben	gierig	krank	gemein	versagen	53pct	acq_USpleas_CSpleas2_noRW	acq23456_noRW	3	78	0	0	300	300	510	50	0	1	1	blank2r.bmp	0	1	+	0	1	blank2r.bmp	252	1	ZHHZ	306	3	vertrauen	559	0	0	0	0	0	0	0	0	0	0	0	0	0	0	0	0	0	0	0	0	0	0	0	0	0	0	0	0	0	0	0	0	0	0	0	0	0	0	0
071019	12:53:43	13:02:23	518640	5.0.10.0	5_exp_noRW	40	Rpleas_acq	CS_A	DXXD	ZHHZ	CPPC	JQQJ	LWWL	YFFY	träumen	sonnig	gütig	küssen	genießen	vertrauen	töten	sterben	gierig	krank	gemein	versagen	53pct	acq_USunple_CSunple2_noRW	acq23456_noRW	3	79	0	0	300	300	462	46	0	1	1	blank2r.bmp	0	1	+	0	1	blank2r.bmp	252	1	JQQJ	306	2	gemein	559	0	0	0	0	0	0	0	0	0	0	0	0	0	0	0	0	0	0	0	0	0	0	0	0	0	0	0	0	0	0	0	0	0	0	0	0	0	0	0
071019	12:53:43	13:02:24	520413	5.0.10.0	5_exp_noRW	40	Rpleas_acq	CS_A	DXXD	ZHHZ	CPPC	JQQJ	LWWL	YFFY	träumen	sonnig	gütig	küssen	genießen	vertrauen	töten	sterben	gierig	krank	gemein	versagen	53pct	acq_USunple_CSunple2_noRW	acq23456_noRW	3	80	0	0	300	300	596	46	0	1	1	blank2r.bmp	0	1	+	0	1	blank2r.bmp	252	1	JQQJ	306	3	versagen	559	0	0	0	0	0	0	0	0	0	0	0	0	0	0	0	0	0	0	0	0	0	0	0	0	0	0	0	0	0	0	0	0	0	0	0	0	0	0	0
071019	12:53:43	13:02:34	529969	5.0.10.0	5_exp_noRW	40	Rpleas_acq	CS_A	DXXD	ZHHZ	CPPC	JQQJ	LWWL	YFFY	träumen	sonnig	gütig	küssen	genießen	vertrauen	töten	sterben	gierig	krank	gemein	versagen	47pct	acq_USpleas_CSunple1_noRW	acq23456_noRW	4	1	0	0	300	300	497	50	0	1	1	blank2r.bmp	0	1	+	0	1	blank2r.bmp	252	1	CPPC	306	3	gütig	559	0	0	0	0	0	0	0	0	0	0	0	0	0	0	0	0	0	0	0	0	0	0	0	0	0	0	0	0	0	0	0	0	0	0	0	0	0	0	0
