date	time	script.currenttime	script.elapsedtime	build	script.currentexpt	subject	expressions.LRpleas_acq	expressions.conditionCS_A	expressions.CSpleas_1	expressions.CSpleas_2	expressions.CSunple_1	expressions.CSunple_2	expressions.distractor_1	expressions.distractor_2	expressions.US_pleas1	expressions.US_pleas2	expressions.US_pleas3	expressions.US_pleas4	expressions.US_pleas5	expressions.US_pleas6	expressions.US_unple1	expressions.US_unple2	expressions.US_unple3	expressions.US_unple4	expressions.US_unple5	expressions.US_unple6	counter.positions_noRW	trialcode	blockcode	blocknum	trialnum	windowcenter	inwindow	pretrialpause	posttrialpause	latency	response	expressions.correctedscore	correct	stimulusnumber1	stimulusitem1	stimulusonset1	stimulusnumber2	stimulusitem2	stimulusonset2	stimulusnumber3	stimulusitem3	stimulusonset3	stimulusnumber4	stimulusitem4	stimulusonset4	stimulusnumber5	stimulusitem5	stimulusonset5	stimulusnumber6	stimulusitem6	stimulusonset6	stimulusnumber7	stimulusitem7	stimulusonset7	stimulusnumber8	stimulusitem8	stimulusonset8	stimulusnumber9	stimulusitem9	stimulusonset9	stimulusnumber10	stimulusitem10	stimulusonset10	stimulusnumber11	stimulusitem11	stimulusonset11	stimulusnumber12	stimulusitem12	stimulusonset12	stimulusnumber13	stimulusitem13	stimulusonset13	stimulusnumber14	stimulusitem14	stimulusonset14	stimulusnumber15	stimulusitem15	stimulusonset15	stimulusnumber16	stimulusitem16	stimulusonset16	stimulusnumber17	stimulusitem17	stimulusonset17	stimulusnumber18	stimulusitem18	stimulusonset18
072319	11:01:40	11:03:58	136224	5.0.10.0	5_exp_noRW	76	Rpleas_acq	CS_A	ZHHZ	JQQJ	CPPC	LWWL	DXXD	YFFY	gütig	genießen	vertrauen	sonnig	küssen	träumen	gierig	gemein	versagen	sterben	krank	töten	47pct	acq_USunple_CSunple2_noRW	acq1_noRW	1	1	0	0	300	300	1210	46	0	1	1	blank2r.bmp	0	1	+	0	1	blank2r.bmp	252	1	LWWL	306	2	krank	559	0	0	0	0	0	0	0	0	0	0	0	0	0	0	0	0	0	0	0	0	0	0	0	0	0	0	0	0	0	0	0	0	0	0	0	0	0	0	0
072319	11:01:40	11:04:00	138170	5.0.10.0	5_exp_noRW	76	Rpleas_acq	CS_A	ZHHZ	JQQJ	CPPC	LWWL	DXXD	YFFY	gütig	genießen	vertrauen	sonnig	küssen	träumen	gierig	gemein	versagen	sterben	krank	töten	53pct	acq_USunple_CSunple1_noRW	acq1_noRW	1	2	0	0	300	300	766	46	0	1	1	blank2r.bmp	0	1	+	0	1	blank2r.bmp	252	1	CPPC	306	1	gierig	559	0	0	0	0	0	0	0	0	0	0	0	0	0	0	0	0	0	0	0	0	0	0	0	0	0	0	0	0	0	0	0	0	0	0	0	0	0	0	0
072319	11:01:40	11:04:02	140036	5.0.10.0	5_exp_noRW	76	Rpleas_acq	CS_A	ZHHZ	JQQJ	CPPC	LWWL	DXXD	YFFY	gütig	genießen	vertrauen	sonnig	küssen	träumen	gierig	gemein	versagen	sterben	krank	töten	47pct	acq_USunple_CSunple1_noRW	acq1_noRW	1	3	0	0	300	300	697	46	0	1	1	blank2r.bmp	0	1	+	0	1	blank2r.bmp	252	1	CPPC	306	3	versagen	559	0	0	0	0	0	0	0	0	0	0	0	0	0	0	0	0	0	0	0	0	0	0	0	0	0	0	0	0	0	0	0	0	0	0	0	0	0	0	0
072319	11:01:40	11:04:04	141782	5.0.10.0	5_exp_noRW	76	Rpleas_acq	CS_A	ZHHZ	JQQJ	CPPC	LWWL	DXXD	YFFY	gütig	genießen	vertrauen	sonnig	küssen	träumen	gierig	gemein	versagen	sterben	krank	töten	53pct	acq_USunple_CSunple2_noRW	acq1_noRW	1	4	0	0	300	300	568	46	0	1	1	blank2r.bmp	0	1	+	0	1	blank2r.bmp	252	1	LWWL	306	1	sterben	559	0	0	0	0	0	0	0	0	0	0	0	0	0	0	0	0	0	0	0	0	0	0	0	0	0	0	0	0	0	0	0	0	0	0	0	0	0	0	0
072319	11:01:40	11:04:05	143514	5.0.10.0	5_exp_noRW	76	Rpleas_acq	CS_A	ZHHZ	JQQJ	CPPC	LWWL	DXXD	YFFY	gütig	genießen	vertrauen	sonnig	küssen	träumen	gierig	gemein	versagen	sterben	krank	töten	47pct	acq_USunple_CSpleas1_noRW	acq1_noRW	1	5	0	0	300	300	552	46	0	1	1	blank2r.bmp	0	1	+	0	1	blank2r.bmp	252	1	ZHHZ	306	1	gierig	559	0	0	0	0	0	0	0	0	0	0	0	0	0	0	0	0	0	0	0	0	0	0	0	0	0	0	0	0	0	0	0	0	0	0	0	0	0	0	0
072319	11:01:40	11:04:07	145260	5.0.10.0	5_exp_noRW	76	Rpleas_acq	CS_A	ZHHZ	JQQJ	CPPC	LWWL	DXXD	YFFY	gütig	genießen	vertrauen	sonnig	küssen	träumen	gierig	gemein	versagen	sterben	krank	töten	53pct	acq_USpleas_CSunple1_noRW	acq1_noRW	1	6	0	0	300	300	567	50	0	1	1	blank2r.bmp	0	1	+	0	1	blank2r.bmp	252	1	CPPC	306	2	genießen	559	0	0	0	0	0	0	0	0	0	0	0	0	0	0	0	0	0	0	0	0	0	0	0	0	0	0	0	0	0	0	0	0	0	0	0	0	0	0	0
072319	11:01:40	11:04:09	146966	5.0.10.0	5_exp_noRW	76	Rpleas_acq	CS_A	ZHHZ	JQQJ	CPPC	LWWL	DXXD	YFFY	gütig	genießen	vertrauen	sonnig	küssen	träumen	gierig	gemein	versagen	sterben	krank	töten	47pct	acq_USunple_CSunple2_noRW	acq1_noRW	1	7	0	0	300	300	522	46	0	1	1	blank2r.bmp	0	1	+	0	1	blank2r.bmp	252	1	LWWL	306	3	töten	559	0	0	0	0	0	0	0	0	0	0	0	0	0	0	0	0	0	0	0	0	0	0	0	0	0	0	0	0	0	0	0	0	0	0	0	0	0	0	0
072319	11:01:40	11:04:10	148539	5.0.10.0	5_exp_noRW	76	Rpleas_acq	CS_A	ZHHZ	JQQJ	CPPC	LWWL	DXXD	YFFY	gütig	genießen	vertrauen	sonnig	küssen	träumen	gierig	gemein	versagen	sterben	krank	töten	53pct	acq_USpleas_CSpleas2_noRW	acq1_noRW	1	8	0	0	300	300	411	50	0	1	1	blank2r.bmp	0	1	+	0	1	blank2r.bmp	252	1	JQQJ	306	1	sonnig	559	0	0	0	0	0	0	0	0	0	0	0	0	0	0	0	0	0	0	0	0	0	0	0	0	0	0	0	0	0	0	0	0	0	0	0	0	0	0	0
072319	11:01:40	11:04:12	150245	5.0.10.0	5_exp_noRW	76	Rpleas_acq	CS_A	ZHHZ	JQQJ	CPPC	LWWL	DXXD	YFFY	gütig	genießen	vertrauen	sonnig	küssen	träumen	gierig	gemein	versagen	sterben	krank	töten	53pct	acq_USpleas_CSpleas2_noRW	acq1_noRW	1	9	0	0	300	300	522	50	0	1	1	blank2r.bmp	0	1	+	0	1	blank2r.bmp	252	1	JQQJ	306	3	träumen	559	0	0	0	0	0	0	0	0	0	0	0	0	0	0	0	0	0	0	0	0	0	0	0	0	0	0	0	0	0	0	0	0	0	0	0	0	0	0	0
072319	11:01:40	11:04:14	151884	5.0.10.0	5_exp_noRW	76	Rpleas_acq	CS_A	ZHHZ	JQQJ	CPPC	LWWL	DXXD	YFFY	gütig	genießen	vertrauen	sonnig	küssen	träumen	gierig	gemein	versagen	sterben	krank	töten	47pct	acq_USpleas_CSpleas1_noRW	acq1_noRW	1	10	0	0	300	300	476	50	0	1	1	blank2r.bmp	0	1	+	0	1	blank2r.bmp	252	1	ZHHZ	306	3	vertrauen	559	0	0	0	0	0	0	0	0	0	0	0	0	0	0	0	0	0	0	0	0	0	0	0	0	0	0	0	0	0	0	0	0	0	0	0	0	0	0	0
072319	11:01:40	11:04:15	153510	5.0.10.0	5_exp_noRW	76	Rpleas_acq	CS_A	ZHHZ	JQQJ	CPPC	LWWL	DXXD	YFFY	gütig	genießen	vertrauen	sonnig	küssen	träumen	gierig	gemein	versagen	sterben	krank	töten	47pct	acq_USpleas_CSpleas2_noRW	acq1_noRW	1	11	0	0	300	300	451	50	0	1	1	blank2r.bmp	0	1	+	0	1	blank2r.bmp	252	1	JQQJ	306	2	küssen	559	0	0	0	0	0	0	0	0	0	0	0	0	0	0	0	0	0	0	0	0	0	0	0	0	0	0	0	0	0	0	0	0	0	0	0	0	0	0	0
072319	11:01:40	11:04:17	155110	5.0.10.0	5_exp_noRW	76	Rpleas_acq	CS_A	ZHHZ	JQQJ	CPPC	LWWL	DXXD	YFFY	gütig	genießen	vertrauen	sonnig	küssen	träumen	gierig	gemein	versagen	sterben	krank	töten	53pct	acq_USpleas_CSpleas1_noRW	acq1_noRW	1	12	0	0	300	300	424	50	0	1	1	blank2r.bmp	0	1	+	0	1	blank2r.bmp	252	1	ZHHZ	306	2	genießen	559	0	0	0	0	0	0	0	0	0	0	0	0	0	0	0	0	0	0	0	0	0	0	0	0	0	0	0	0	0	0	0	0	0	0	0	0	0	0	0
072319	11:01:40	11:04:19	156856	5.0.10.0	5_exp_noRW	76	Rpleas_acq	CS_A	ZHHZ	JQQJ	CPPC	LWWL	DXXD	YFFY	gütig	genießen	vertrauen	sonnig	küssen	träumen	gierig	gemein	versagen	sterben	krank	töten	53pct	acq_USpleas_CSpleas1_noRW	acq1_noRW	1	13	0	0	300	300	546	50	0	1	1	blank2r.bmp	0	1	+	0	1	blank2r.bmp	252	1	ZHHZ	306	1	gütig	559	0	0	0	0	0	0	0	0	0	0	0	0	0	0	0	0	0	0	0	0	0	0	0	0	0	0	0	0	0	0	0	0	0	0	0	0	0	0	0
072319	11:01:40	11:04:20	158495	5.0.10.0	5_exp_noRW	76	Rpleas_acq	CS_A	ZHHZ	JQQJ	CPPC	LWWL	DXXD	YFFY	gütig	genießen	vertrauen	sonnig	küssen	träumen	gierig	gemein	versagen	sterben	krank	töten	47pct	acq_USpleas_CSpleas1_noRW	acq1_noRW	1	14	0	0	300	300	472	50	0	1	1	blank2r.bmp	0	1	+	0	1	blank2r.bmp	252	1	ZHHZ	306	2	genießen	559	0	0	0	0	0	0	0	0	0	0	0	0	0	0	0	0	0	0	0	0	0	0	0	0	0	0	0	0	0	0	0	0	0	0	0	0	0	0	0
072319	11:01:40	11:04:22	160108	5.0.10.0	5_exp_noRW	76	Rpleas_acq	CS_A	ZHHZ	JQQJ	CPPC	LWWL	DXXD	YFFY	gütig	genießen	vertrauen	sonnig	küssen	träumen	gierig	gemein	versagen	sterben	krank	töten	53pct	acq_USunple_CSunple1_noRW	acq1_noRW	1	15	0	0	300	300	447	46	0	1	1	blank2r.bmp	0	1	+	0	1	blank2r.bmp	252	1	CPPC	306	2	gemein	559	0	0	0	0	0	0	0	0	0	0	0	0	0	0	0	0	0	0	0	0	0	0	0	0	0	0	0	0	0	0	0	0	0	0	0	0	0	0	0
072319	11:01:40	11:04:24	161667	5.0.10.0	5_exp_noRW	76	Rpleas_acq	CS_A	ZHHZ	JQQJ	CPPC	LWWL	DXXD	YFFY	gütig	genießen	vertrauen	sonnig	küssen	träumen	gierig	gemein	versagen	sterben	krank	töten	53pct	acq_USunple_CSunple2_noRW	acq1_noRW	1	16	0	0	300	300	382	46	0	1	1	blank2r.bmp	0	1	+	0	1	blank2r.bmp	252	1	LWWL	306	1	sterben	559	0	0	0	0	0	0	0	0	0	0	0	0	0	0	0	0	0	0	0	0	0	0	0	0	0	0	0	0	0	0	0	0	0	0	0	0	0	0	0
072319	11:01:40	11:04:25	163373	5.0.10.0	5_exp_noRW	76	Rpleas_acq	CS_A	ZHHZ	JQQJ	CPPC	LWWL	DXXD	YFFY	gütig	genießen	vertrauen	sonnig	küssen	träumen	gierig	gemein	versagen	sterben	krank	töten	47pct	acq_USpleas_CSpleas2_noRW	acq1_noRW	1	17	0	0	300	300	530	50	0	1	1	blank2r.bmp	0	1	+	0	1	blank2r.bmp	252	1	JQQJ	306	3	träumen	559	0	0	0	0	0	0	0	0	0	0	0	0	0	0	0	0	0	0	0	0	0	0	0	0	0	0	0	0	0	0	0	0	0	0	0	0	0	0	0
072319	11:01:40	11:04:27	165092	5.0.10.0	5_exp_noRW	76	Rpleas_acq	CS_A	ZHHZ	JQQJ	CPPC	LWWL	DXXD	YFFY	gütig	genießen	vertrauen	sonnig	küssen	träumen	gierig	gemein	versagen	sterben	krank	töten	47pct	acq_USpleas_CSunple2_noRW	acq1_noRW	1	18	0	0	300	300	536	50	0	1	1	blank2r.bmp	0	1	+	0	1	blank2r.bmp	252	1	LWWL	306	1	sonnig	559	0	0	0	0	0	0	0	0	0	0	0	0	0	0	0	0	0	0	0	0	0	0	0	0	0	0	0	0	0	0	0	0	0	0	0	0	0	0	0
072319	11:01:40	11:04:29	166652	5.0.10.0	5_exp_noRW	76	Rpleas_acq	CS_A	ZHHZ	JQQJ	CPPC	LWWL	DXXD	YFFY	gütig	genießen	vertrauen	sonnig	küssen	träumen	gierig	gemein	versagen	sterben	krank	töten	47pct	acq_USunple_CSpleas2_noRW	acq1_noRW	1	19	0	0	300	300	386	46	0	1	1	blank2r.bmp	0	1	+	0	1	blank2r.bmp	252	1	JQQJ	306	1	sterben	559	0	0	0	0	0	0	0	0	0	0	0	0	0	0	0	0	0	0	0	0	0	0	0	0	0	0	0	0	0	0	0	0	0	0	0	0	0	0	0
072319	11:01:40	11:04:30	168358	5.0.10.0	5_exp_noRW	76	Rpleas_acq	CS_A	ZHHZ	JQQJ	CPPC	LWWL	DXXD	YFFY	gütig	genießen	vertrauen	sonnig	küssen	träumen	gierig	gemein	versagen	sterben	krank	töten	53pct	acq_USunple_CSunple1_noRW	acq1_noRW	1	20	0	0	300	300	525	46	0	1	1	blank2r.bmp	0	1	+	0	1	blank2r.bmp	252	1	CPPC	306	1	gierig	559	0	0	0	0	0	0	0	0	0	0	0	0	0	0	0	0	0	0	0	0	0	0	0	0	0	0	0	0	0	0	0	0	0	0	0	0	0	0	0
072319	11:01:40	11:04:32	169917	5.0.10.0	5_exp_noRW	76	Rpleas_acq	CS_A	ZHHZ	JQQJ	CPPC	LWWL	DXXD	YFFY	gütig	genießen	vertrauen	sonnig	küssen	träumen	gierig	gemein	versagen	sterben	krank	töten	53pct	acq_USunple_CSunple1_noRW	acq1_noRW	1	21	0	0	300	300	387	46	0	1	1	blank2r.bmp	0	1	+	0	1	blank2r.bmp	252	1	CPPC	306	2	gemein	559	0	0	0	0	0	0	0	0	0	0	0	0	0	0	0	0	0	0	0	0	0	0	0	0	0	0	0	0	0	0	0	0	0	0	0	0	0	0	0
072319	11:01:40	11:04:33	171570	5.0.10.0	5_exp_noRW	76	Rpleas_acq	CS_A	ZHHZ	JQQJ	CPPC	LWWL	DXXD	YFFY	gütig	genießen	vertrauen	sonnig	küssen	träumen	gierig	gemein	versagen	sterben	krank	töten	47pct	acq_USpleas_CSpleas1_noRW	acq1_noRW	1	22	0	0	300	300	491	50	0	1	1	blank2r.bmp	0	1	+	0	1	blank2r.bmp	252	1	ZHHZ	306	1	gütig	559	0	0	0	0	0	0	0	0	0	0	0	0	0	0	0	0	0	0	0	0	0	0	0	0	0	0	0	0	0	0	0	0	0	0	0	0	0	0	0
072319	11:01:40	11:04:35	173196	5.0.10.0	5_exp_noRW	76	Rpleas_acq	CS_A	ZHHZ	JQQJ	CPPC	LWWL	DXXD	YFFY	gütig	genießen	vertrauen	sonnig	küssen	träumen	gierig	gemein	versagen	sterben	krank	töten	53pct	acq_USpleas_CSpleas1_noRW	acq1_noRW	1	23	0	0	300	300	451	50	0	1	1	blank2r.bmp	0	1	+	0	1	blank2r.bmp	252	1	ZHHZ	306	3	vertrauen	559	0	0	0	0	0	0	0	0	0	0	0	0	0	0	0	0	0	0	0	0	0	0	0	0	0	0	0	0	0	0	0	0	0	0	0	0	0	0	0
072319	11:01:40	11:04:37	174822	5.0.10.0	5_exp_noRW	76	Rpleas_acq	CS_A	ZHHZ	JQQJ	CPPC	LWWL	DXXD	YFFY	gütig	genießen	vertrauen	sonnig	küssen	träumen	gierig	gemein	versagen	sterben	krank	töten	53pct	acq_USpleas_CSpleas2_noRW	acq1_noRW	1	24	0	0	300	300	448	50	0	1	1	blank2r.bmp	0	1	+	0	1	blank2r.bmp	252	1	JQQJ	306	2	küssen	559	0	0	0	0	0	0	0	0	0	0	0	0	0	0	0	0	0	0	0	0	0	0	0	0	0	0	0	0	0	0	0	0	0	0	0	0	0	0	0
072319	11:01:40	11:04:38	176408	5.0.10.0	5_exp_noRW	76	Rpleas_acq	CS_A	ZHHZ	JQQJ	CPPC	LWWL	DXXD	YFFY	gütig	genießen	vertrauen	sonnig	küssen	träumen	gierig	gemein	versagen	sterben	krank	töten	47pct	acq_USunple_CSunple1_noRW	acq1_noRW	1	25	0	0	300	300	404	46	0	1	1	blank2r.bmp	0	1	+	0	1	blank2r.bmp	252	1	CPPC	306	3	versagen	559	0	0	0	0	0	0	0	0	0	0	0	0	0	0	0	0	0	0	0	0	0	0	0	0	0	0	0	0	0	0	0	0	0	0	0	0	0	0	0
072319	11:01:40	11:04:40	177941	5.0.10.0	5_exp_noRW	76	Rpleas_acq	CS_A	ZHHZ	JQQJ	CPPC	LWWL	DXXD	YFFY	gütig	genießen	vertrauen	sonnig	küssen	träumen	gierig	gemein	versagen	sterben	krank	töten	53pct	acq_USpleas_CSpleas2_noRW	acq1_noRW	1	26	0	0	300	300	369	50	0	1	1	blank2r.bmp	0	1	+	0	1	blank2r.bmp	252	1	JQQJ	306	1	sonnig	559	0	0	0	0	0	0	0	0	0	0	0	0	0	0	0	0	0	0	0	0	0	0	0	0	0	0	0	0	0	0	0	0	0	0	0	0	0	0	0
072319	11:01:40	11:04:42	179713	5.0.10.0	5_exp_noRW	76	Rpleas_acq	CS_A	ZHHZ	JQQJ	CPPC	LWWL	DXXD	YFFY	gütig	genießen	vertrauen	sonnig	küssen	träumen	gierig	gemein	versagen	sterben	krank	töten	47pct	acq_USpleas_CSunple2_noRW	acq1_noRW	1	27	0	0	300	300	597	50	0	1	1	blank2r.bmp	0	1	+	0	1	blank2r.bmp	252	1	LWWL	306	3	träumen	559	0	0	0	0	0	0	0	0	0	0	0	0	0	0	0	0	0	0	0	0	0	0	0	0	0	0	0	0	0	0	0	0	0	0	0	0	0	0	0
072319	11:01:40	11:04:43	181259	5.0.10.0	5_exp_noRW	76	Rpleas_acq	CS_A	ZHHZ	JQQJ	CPPC	LWWL	DXXD	YFFY	gütig	genießen	vertrauen	sonnig	küssen	träumen	gierig	gemein	versagen	sterben	krank	töten	53pct	acq_USunple_CSpleas2_noRW	acq1_noRW	1	28	0	0	300	300	370	46	0	1	1	blank2r.bmp	0	1	+	0	1	blank2r.bmp	252	1	JQQJ	306	3	töten	559	0	0	0	0	0	0	0	0	0	0	0	0	0	0	0	0	0	0	0	0	0	0	0	0	0	0	0	0	0	0	0	0	0	0	0	0	0	0	0
072319	11:01:40	11:04:45	183045	5.0.10.0	5_exp_noRW	76	Rpleas_acq	CS_A	ZHHZ	JQQJ	CPPC	LWWL	DXXD	YFFY	gütig	genießen	vertrauen	sonnig	küssen	träumen	gierig	gemein	versagen	sterben	krank	töten	47pct	acq_USunple_CSunple2_noRW	acq1_noRW	1	29	0	0	300	300	395	50	0	0	1	blank2r.bmp	0	1	+	0	1	blank2r.bmp	252	1	LWWL	306	2	krank	559	1	FEHLER	986	0	0	0	0	0	0	0	0	0	0	0	0	0	0	0	0	0	0	0	0	0	0	0	0	0	0	0	0	0	0	0	0	0	0	0	0
072319	11:01:40	11:04:46	184431	5.0.10.0	5_exp_noRW	76	Rpleas_acq	CS_A	ZHHZ	JQQJ	CPPC	LWWL	DXXD	YFFY	gütig	genießen	vertrauen	sonnig	küssen	träumen	gierig	gemein	versagen	sterben	krank	töten	47pct	acq_USunple_CSunple2_noRW	acq1_noRW	1	30	0	0	300	300	425	46	0	1	1	blank2r.bmp	0	1	+	0	1	blank2r.bmp	252	1	LWWL	306	3	töten	559	0	0	0	0	0	0	0	0	0	0	0	0	0	0	0	0	0	0	0	0	0	0	0	0	0	0	0	0	0	0	0	0	0	0	0	0	0	0	0
072319	11:01:40	11:04:48	186177	5.0.10.0	5_exp_noRW	76	Rpleas_acq	CS_A	ZHHZ	JQQJ	CPPC	LWWL	DXXD	YFFY	gütig	genießen	vertrauen	sonnig	küssen	träumen	gierig	gemein	versagen	sterben	krank	töten	47pct	acq_USunple_CSunple1_noRW	acq1_noRW	1	31	0	0	300	300	578	46	0	1	1	blank2r.bmp	0	1	+	0	1	blank2r.bmp	252	1	CPPC	306	1	gierig	559	0	0	0	0	0	0	0	0	0	0	0	0	0	0	0	0	0	0	0	0	0	0	0	0	0	0	0	0	0	0	0	0	0	0	0	0	0	0	0
072319	11:01:40	11:04:50	187896	5.0.10.0	5_exp_noRW	76	Rpleas_acq	CS_A	ZHHZ	JQQJ	CPPC	LWWL	DXXD	YFFY	gütig	genießen	vertrauen	sonnig	küssen	träumen	gierig	gemein	versagen	sterben	krank	töten	53pct	acq_USunple_CSunple2_noRW	acq1_noRW	1	32	0	0	300	300	540	46	0	1	1	blank2r.bmp	0	1	+	0	1	blank2r.bmp	252	1	LWWL	306	2	krank	559	0	0	0	0	0	0	0	0	0	0	0	0	0	0	0	0	0	0	0	0	0	0	0	0	0	0	0	0	0	0	0	0	0	0	0	0	0	0	0
072319	11:01:40	11:04:51	189456	5.0.10.0	5_exp_noRW	76	Rpleas_acq	CS_A	ZHHZ	JQQJ	CPPC	LWWL	DXXD	YFFY	gütig	genießen	vertrauen	sonnig	küssen	träumen	gierig	gemein	versagen	sterben	krank	töten	53pct	acq_USunple_CSunple2_noRW	acq1_noRW	1	33	0	0	300	300	379	46	0	1	1	blank2r.bmp	0	1	+	0	1	blank2r.bmp	252	1	LWWL	306	3	töten	559	0	0	0	0	0	0	0	0	0	0	0	0	0	0	0	0	0	0	0	0	0	0	0	0	0	0	0	0	0	0	0	0	0	0	0	0	0	0	0
072319	11:01:40	11:04:53	191135	5.0.10.0	5_exp_noRW	76	Rpleas_acq	CS_A	ZHHZ	JQQJ	CPPC	LWWL	DXXD	YFFY	gütig	genießen	vertrauen	sonnig	küssen	träumen	gierig	gemein	versagen	sterben	krank	töten	53pct	acq_USunple_CSunple1_noRW	acq1_noRW	1	34	0	0	300	300	496	46	0	1	1	blank2r.bmp	0	1	+	0	1	blank2r.bmp	252	1	CPPC	306	2	gemein	559	0	0	0	0	0	0	0	0	0	0	0	0	0	0	0	0	0	0	0	0	0	0	0	0	0	0	0	0	0	0	0	0	0	0	0	0	0	0	0
072319	11:01:40	11:04:55	192788	5.0.10.0	5_exp_noRW	76	Rpleas_acq	CS_A	ZHHZ	JQQJ	CPPC	LWWL	DXXD	YFFY	gütig	genießen	vertrauen	sonnig	küssen	träumen	gierig	gemein	versagen	sterben	krank	töten	47pct	acq_USunple_CSpleas1_noRW	acq1_noRW	1	35	0	0	300	300	479	46	0	1	1	blank2r.bmp	0	1	+	0	1	blank2r.bmp	252	1	ZHHZ	306	3	versagen	559	0	0	0	0	0	0	0	0	0	0	0	0	0	0	0	0	0	0	0	0	0	0	0	0	0	0	0	0	0	0	0	0	0	0	0	0	0	0	0
072319	11:01:40	11:04:56	194414	5.0.10.0	5_exp_noRW	76	Rpleas_acq	CS_A	ZHHZ	JQQJ	CPPC	LWWL	DXXD	YFFY	gütig	genießen	vertrauen	sonnig	küssen	träumen	gierig	gemein	versagen	sterben	krank	töten	53pct	acq_USpleas_CSpleas2_noRW	acq1_noRW	1	36	0	0	300	300	456	50	0	1	1	blank2r.bmp	0	1	+	0	1	blank2r.bmp	252	1	JQQJ	306	3	träumen	559	0	0	0	0	0	0	0	0	0	0	0	0	0	0	0	0	0	0	0	0	0	0	0	0	0	0	0	0	0	0	0	0	0	0	0	0	0	0	0
072319	11:01:40	11:04:58	196066	5.0.10.0	5_exp_noRW	76	Rpleas_acq	CS_A	ZHHZ	JQQJ	CPPC	LWWL	DXXD	YFFY	gütig	genießen	vertrauen	sonnig	küssen	träumen	gierig	gemein	versagen	sterben	krank	töten	47pct	acq_USpleas_CSpleas1_noRW	acq1_noRW	1	37	0	0	300	300	472	50	0	1	1	blank2r.bmp	0	1	+	0	1	blank2r.bmp	252	1	ZHHZ	306	3	vertrauen	559	0	0	0	0	0	0	0	0	0	0	0	0	0	0	0	0	0	0	0	0	0	0	0	0	0	0	0	0	0	0	0	0	0	0	0	0	0	0	0
072319	11:01:40	11:05:00	198226	5.0.10.0	5_exp_noRW	76	Rpleas_acq	CS_A	ZHHZ	JQQJ	CPPC	LWWL	DXXD	YFFY	gütig	genießen	vertrauen	sonnig	küssen	träumen	gierig	gemein	versagen	sterben	krank	töten	47pct	acq_USpleas_CSpleas1_noRW	acq1_noRW	1	38	0	0	300	300	972	50	0	1	1	blank2r.bmp	0	1	+	0	1	blank2r.bmp	252	1	ZHHZ	306	2	genießen	559	0	0	0	0	0	0	0	0	0	0	0	0	0	0	0	0	0	0	0	0	0	0	0	0	0	0	0	0	0	0	0	0	0	0	0	0	0	0	0
072319	11:01:40	11:05:02	199812	5.0.10.0	5_exp_noRW	76	Rpleas_acq	CS_A	ZHHZ	JQQJ	CPPC	LWWL	DXXD	YFFY	gütig	genießen	vertrauen	sonnig	küssen	träumen	gierig	gemein	versagen	sterben	krank	töten	53pct	acq_USpleas_CSpleas2_noRW	acq1_noRW	1	39	0	0	300	300	406	50	0	1	1	blank2r.bmp	0	1	+	0	1	blank2r.bmp	252	1	JQQJ	306	1	sonnig	559	0	0	0	0	0	0	0	0	0	0	0	0	0	0	0	0	0	0	0	0	0	0	0	0	0	0	0	0	0	0	0	0	0	0	0	0	0	0	0
072319	11:01:40	11:05:03	201464	5.0.10.0	5_exp_noRW	76	Rpleas_acq	CS_A	ZHHZ	JQQJ	CPPC	LWWL	DXXD	YFFY	gütig	genießen	vertrauen	sonnig	küssen	träumen	gierig	gemein	versagen	sterben	krank	töten	53pct	acq_USpleas_CSunple1_noRW	acq1_noRW	1	40	0	0	300	300	476	50	0	1	1	blank2r.bmp	0	1	+	0	1	blank2r.bmp	252	1	CPPC	306	1	gütig	559	0	0	0	0	0	0	0	0	0	0	0	0	0	0	0	0	0	0	0	0	0	0	0	0	0	0	0	0	0	0	0	0	0	0	0	0	0	0	0
072319	11:01:40	11:05:05	203037	5.0.10.0	5_exp_noRW	76	Rpleas_acq	CS_A	ZHHZ	JQQJ	CPPC	LWWL	DXXD	YFFY	gütig	genießen	vertrauen	sonnig	küssen	träumen	gierig	gemein	versagen	sterben	krank	töten	53pct	acq_USpleas_CSpleas2_noRW	acq1_noRW	1	41	0	0	300	300	391	50	0	1	1	blank2r.bmp	0	1	+	0	1	blank2r.bmp	252	1	JQQJ	306	2	küssen	559	0	0	0	0	0	0	0	0	0	0	0	0	0	0	0	0	0	0	0	0	0	0	0	0	0	0	0	0	0	0	0	0	0	0	0	0	0	0	0
072319	11:01:40	11:05:06	204596	5.0.10.0	5_exp_noRW	76	Rpleas_acq	CS_A	ZHHZ	JQQJ	CPPC	LWWL	DXXD	YFFY	gütig	genießen	vertrauen	sonnig	küssen	träumen	gierig	gemein	versagen	sterben	krank	töten	53pct	acq_USunple_CSpleas2_noRW	acq1_noRW	1	42	0	0	300	300	393	46	0	1	1	blank2r.bmp	0	1	+	0	1	blank2r.bmp	252	1	JQQJ	306	2	krank	559	0	0	0	0	0	0	0	0	0	0	0	0	0	0	0	0	0	0	0	0	0	0	0	0	0	0	0	0	0	0	0	0	0	0	0	0	0	0	0
072319	11:01:40	11:05:08	206182	5.0.10.0	5_exp_noRW	76	Rpleas_acq	CS_A	ZHHZ	JQQJ	CPPC	LWWL	DXXD	YFFY	gütig	genießen	vertrauen	sonnig	küssen	träumen	gierig	gemein	versagen	sterben	krank	töten	53pct	acq_USunple_CSunple1_noRW	acq1_noRW	1	43	0	0	300	300	416	46	0	1	1	blank2r.bmp	0	1	+	0	1	blank2r.bmp	252	1	CPPC	306	3	versagen	559	0	0	0	0	0	0	0	0	0	0	0	0	0	0	0	0	0	0	0	0	0	0	0	0	0	0	0	0	0	0	0	0	0	0	0	0	0	0	0
072319	11:01:40	11:05:10	207888	5.0.10.0	5_exp_noRW	76	Rpleas_acq	CS_A	ZHHZ	JQQJ	CPPC	LWWL	DXXD	YFFY	gütig	genießen	vertrauen	sonnig	küssen	träumen	gierig	gemein	versagen	sterben	krank	töten	53pct	acq_USpleas_CSpleas1_noRW	acq1_noRW	1	44	0	0	300	300	319	46	0	0	1	blank2r.bmp	0	1	+	0	1	blank2r.bmp	252	1	ZHHZ	306	1	gütig	559	1	FEHLER	919	0	0	0	0	0	0	0	0	0	0	0	0	0	0	0	0	0	0	0	0	0	0	0	0	0	0	0	0	0	0	0	0	0	0	0	0
072319	11:01:40	11:05:11	209394	5.0.10.0	5_exp_noRW	76	Rpleas_acq	CS_A	ZHHZ	JQQJ	CPPC	LWWL	DXXD	YFFY	gütig	genießen	vertrauen	sonnig	küssen	träumen	gierig	gemein	versagen	sterben	krank	töten	47pct	acq_USunple_CSunple2_noRW	acq1_noRW	1	45	0	0	300	300	557	46	0	1	1	blank2r.bmp	0	1	+	0	1	blank2r.bmp	252	1	LWWL	306	1	sterben	559	0	0	0	0	0	0	0	0	0	0	0	0	0	0	0	0	0	0	0	0	0	0	0	0	0	0	0	0	0	0	0	0	0	0	0	0	0	0	0
072319	11:01:40	11:05:13	211074	5.0.10.0	5_exp_noRW	76	Rpleas_acq	CS_A	ZHHZ	JQQJ	CPPC	LWWL	DXXD	YFFY	gütig	genießen	vertrauen	sonnig	küssen	träumen	gierig	gemein	versagen	sterben	krank	töten	47pct	acq_USpleas_CSpleas2_noRW	acq1_noRW	1	46	0	0	300	300	497	50	0	1	1	blank2r.bmp	0	1	+	0	1	blank2r.bmp	252	1	JQQJ	306	1	sonnig	559	0	0	0	0	0	0	0	0	0	0	0	0	0	0	0	0	0	0	0	0	0	0	0	0	0	0	0	0	0	0	0	0	0	0	0	0	0	0	0
072319	11:01:40	11:05:15	212713	5.0.10.0	5_exp_noRW	76	Rpleas_acq	CS_A	ZHHZ	JQQJ	CPPC	LWWL	DXXD	YFFY	gütig	genießen	vertrauen	sonnig	küssen	träumen	gierig	gemein	versagen	sterben	krank	töten	47pct	acq_USpleas_CSpleas2_noRW	acq1_noRW	1	47	0	0	300	300	463	50	0	1	1	blank2r.bmp	0	1	+	0	1	blank2r.bmp	252	1	JQQJ	306	2	küssen	559	0	0	0	0	0	0	0	0	0	0	0	0	0	0	0	0	0	0	0	0	0	0	0	0	0	0	0	0	0	0	0	0	0	0	0	0	0	0	0
072319	11:01:40	11:05:16	214592	5.0.10.0	5_exp_noRW	76	Rpleas_acq	CS_A	ZHHZ	JQQJ	CPPC	LWWL	DXXD	YFFY	gütig	genießen	vertrauen	sonnig	küssen	träumen	gierig	gemein	versagen	sterben	krank	töten	53pct	acq_USpleas_CSpleas1_noRW	acq1_noRW	1	48	0	0	300	300	698	50	0	1	1	blank2r.bmp	0	1	+	0	1	blank2r.bmp	252	1	ZHHZ	306	1	gütig	559	0	0	0	0	0	0	0	0	0	0	0	0	0	0	0	0	0	0	0	0	0	0	0	0	0	0	0	0	0	0	0	0	0	0	0	0	0	0	0
072319	11:01:40	11:05:18	216178	5.0.10.0	5_exp_noRW	76	Rpleas_acq	CS_A	ZHHZ	JQQJ	CPPC	LWWL	DXXD	YFFY	gütig	genießen	vertrauen	sonnig	küssen	träumen	gierig	gemein	versagen	sterben	krank	töten	53pct	acq_USpleas_CSpleas1_noRW	acq1_noRW	1	49	0	0	300	300	419	50	0	1	1	blank2r.bmp	0	1	+	0	1	blank2r.bmp	252	1	ZHHZ	306	2	genießen	559	0	0	0	0	0	0	0	0	0	0	0	0	0	0	0	0	0	0	0	0	0	0	0	0	0	0	0	0	0	0	0	0	0	0	0	0	0	0	0
072319	11:01:40	11:05:20	217764	5.0.10.0	5_exp_noRW	76	Rpleas_acq	CS_A	ZHHZ	JQQJ	CPPC	LWWL	DXXD	YFFY	gütig	genießen	vertrauen	sonnig	küssen	träumen	gierig	gemein	versagen	sterben	krank	töten	53pct	acq_USpleas_CSpleas2_noRW	acq1_noRW	1	50	0	0	300	300	403	50	0	1	1	blank2r.bmp	0	1	+	0	1	blank2r.bmp	252	1	JQQJ	306	3	träumen	559	0	0	0	0	0	0	0	0	0	0	0	0	0	0	0	0	0	0	0	0	0	0	0	0	0	0	0	0	0	0	0	0	0	0	0	0	0	0	0
072319	11:01:40	11:05:21	219390	5.0.10.0	5_exp_noRW	76	Rpleas_acq	CS_A	ZHHZ	JQQJ	CPPC	LWWL	DXXD	YFFY	gütig	genießen	vertrauen	sonnig	küssen	träumen	gierig	gemein	versagen	sterben	krank	töten	47pct	acq_USunple_CSunple1_noRW	acq1_noRW	1	51	0	0	300	300	462	46	0	1	1	blank2r.bmp	0	1	+	0	1	blank2r.bmp	252	1	CPPC	306	1	gierig	559	0	0	0	0	0	0	0	0	0	0	0	0	0	0	0	0	0	0	0	0	0	0	0	0	0	0	0	0	0	0	0	0	0	0	0	0	0	0	0
072319	11:01:40	11:05:23	221296	5.0.10.0	5_exp_noRW	76	Rpleas_acq	CS_A	ZHHZ	JQQJ	CPPC	LWWL	DXXD	YFFY	gütig	genießen	vertrauen	sonnig	küssen	träumen	gierig	gemein	versagen	sterben	krank	töten	53pct	acq_USunple_CSunple2_noRW	acq1_noRW	1	52	0	0	300	300	729	46	0	1	1	blank2r.bmp	0	1	+	0	1	blank2r.bmp	252	1	LWWL	306	2	krank	559	0	0	0	0	0	0	0	0	0	0	0	0	0	0	0	0	0	0	0	0	0	0	0	0	0	0	0	0	0	0	0	0	0	0	0	0	0	0	0
072319	11:01:40	11:05:25	222936	5.0.10.0	5_exp_noRW	76	Rpleas_acq	CS_A	ZHHZ	JQQJ	CPPC	LWWL	DXXD	YFFY	gütig	genießen	vertrauen	sonnig	küssen	träumen	gierig	gemein	versagen	sterben	krank	töten	47pct	acq_USunple_CSpleas1_noRW	acq1_noRW	1	53	0	0	300	300	458	46	0	1	1	blank2r.bmp	0	1	+	0	1	blank2r.bmp	252	1	ZHHZ	306	2	gemein	559	0	0	0	0	0	0	0	0	0	0	0	0	0	0	0	0	0	0	0	0	0	0	0	0	0	0	0	0	0	0	0	0	0	0	0	0	0	0	0
072319	11:01:40	11:05:26	224588	5.0.10.0	5_exp_noRW	76	Rpleas_acq	CS_A	ZHHZ	JQQJ	CPPC	LWWL	DXXD	YFFY	gütig	genießen	vertrauen	sonnig	küssen	träumen	gierig	gemein	versagen	sterben	krank	töten	47pct	acq_USpleas_CSpleas1_noRW	acq1_noRW	1	54	0	0	300	300	468	50	0	1	1	blank2r.bmp	0	1	+	0	1	blank2r.bmp	252	1	ZHHZ	306	3	vertrauen	559	0	0	0	0	0	0	0	0	0	0	0	0	0	0	0	0	0	0	0	0	0	0	0	0	0	0	0	0	0	0	0	0	0	0	0	0	0	0	0
072319	11:01:40	11:05:28	226161	5.0.10.0	5_exp_noRW	76	Rpleas_acq	CS_A	ZHHZ	JQQJ	CPPC	LWWL	DXXD	YFFY	gütig	genießen	vertrauen	sonnig	küssen	träumen	gierig	gemein	versagen	sterben	krank	töten	53pct	acq_USunple_CSunple1_noRW	acq1_noRW	1	55	0	0	300	300	396	46	0	1	1	blank2r.bmp	0	1	+	0	1	blank2r.bmp	252	1	CPPC	306	3	versagen	559	0	0	0	0	0	0	0	0	0	0	0	0	0	0	0	0	0	0	0	0	0	0	0	0	0	0	0	0	0	0	0	0	0	0	0	0	0	0	0
072319	11:01:40	11:05:30	227774	5.0.10.0	5_exp_noRW	76	Rpleas_acq	CS_A	ZHHZ	JQQJ	CPPC	LWWL	DXXD	YFFY	gütig	genießen	vertrauen	sonnig	küssen	träumen	gierig	gemein	versagen	sterben	krank	töten	47pct	acq_USunple_CSunple2_noRW	acq1_noRW	1	56	0	0	300	300	432	46	0	1	1	blank2r.bmp	0	1	+	0	1	blank2r.bmp	252	1	LWWL	306	1	sterben	559	0	0	0	0	0	0	0	0	0	0	0	0	0	0	0	0	0	0	0	0	0	0	0	0	0	0	0	0	0	0	0	0	0	0	0	0	0	0	0
072319	11:01:40	11:05:31	229360	5.0.10.0	5_exp_noRW	76	Rpleas_acq	CS_A	ZHHZ	JQQJ	CPPC	LWWL	DXXD	YFFY	gütig	genießen	vertrauen	sonnig	küssen	träumen	gierig	gemein	versagen	sterben	krank	töten	53pct	acq_USpleas_CSunple1_noRW	acq1_noRW	1	57	0	0	300	300	419	50	0	1	1	blank2r.bmp	0	1	+	0	1	blank2r.bmp	252	1	CPPC	306	3	vertrauen	559	0	0	0	0	0	0	0	0	0	0	0	0	0	0	0	0	0	0	0	0	0	0	0	0	0	0	0	0	0	0	0	0	0	0	0	0	0	0	0
072319	11:01:40	11:05:33	231146	5.0.10.0	5_exp_noRW	76	Rpleas_acq	CS_A	ZHHZ	JQQJ	CPPC	LWWL	DXXD	YFFY	gütig	genießen	vertrauen	sonnig	küssen	träumen	gierig	gemein	versagen	sterben	krank	töten	47pct	acq_USunple_CSunple2_noRW	acq1_noRW	1	58	0	0	300	300	600	46	0	1	1	blank2r.bmp	0	1	+	0	1	blank2r.bmp	252	1	LWWL	306	3	töten	559	0	0	0	0	0	0	0	0	0	0	0	0	0	0	0	0	0	0	0	0	0	0	0	0	0	0	0	0	0	0	0	0	0	0	0	0	0	0	0
072319	11:01:40	11:05:35	232838	5.0.10.0	5_exp_noRW	76	Rpleas_acq	CS_A	ZHHZ	JQQJ	CPPC	LWWL	DXXD	YFFY	gütig	genießen	vertrauen	sonnig	küssen	träumen	gierig	gemein	versagen	sterben	krank	töten	47pct	acq_USunple_CSunple1_noRW	acq1_noRW	1	59	0	0	300	300	518	46	0	1	1	blank2r.bmp	0	1	+	0	1	blank2r.bmp	252	1	CPPC	306	2	gemein	559	0	0	0	0	0	0	0	0	0	0	0	0	0	0	0	0	0	0	0	0	0	0	0	0	0	0	0	0	0	0	0	0	0	0	0	0	0	0	0
072319	11:01:40	11:05:36	234424	5.0.10.0	5_exp_noRW	76	Rpleas_acq	CS_A	ZHHZ	JQQJ	CPPC	LWWL	DXXD	YFFY	gütig	genießen	vertrauen	sonnig	küssen	träumen	gierig	gemein	versagen	sterben	krank	töten	47pct	acq_USpleas_CSunple2_noRW	acq1_noRW	1	60	0	0	300	300	418	50	0	1	1	blank2r.bmp	0	1	+	0	1	blank2r.bmp	252	1	LWWL	306	2	küssen	559	0	0	0	0	0	0	0	0	0	0	0	0	0	0	0	0	0	0	0	0	0	0	0	0	0	0	0	0	0	0	0	0	0	0	0	0	0	0	0
072319	11:01:40	11:05:38	236197	5.0.10.0	5_exp_noRW	76	Rpleas_acq	CS_A	ZHHZ	JQQJ	CPPC	LWWL	DXXD	YFFY	gütig	genießen	vertrauen	sonnig	küssen	träumen	gierig	gemein	versagen	sterben	krank	töten	47pct	acq_USpleas_CSpleas1_noRW	acq1_noRW	1	61	0	0	300	300	608	50	0	1	1	blank2r.bmp	0	1	+	0	1	blank2r.bmp	252	1	ZHHZ	306	3	vertrauen	559	0	0	0	0	0	0	0	0	0	0	0	0	0	0	0	0	0	0	0	0	0	0	0	0	0	0	0	0	0	0	0	0	0	0	0	0	0	0	0
072319	11:01:40	11:05:40	237756	5.0.10.0	5_exp_noRW	76	Rpleas_acq	CS_A	ZHHZ	JQQJ	CPPC	LWWL	DXXD	YFFY	gütig	genießen	vertrauen	sonnig	küssen	träumen	gierig	gemein	versagen	sterben	krank	töten	47pct	acq_USunple_CSunple2_noRW	acq1_noRW	1	62	0	0	300	300	386	46	0	1	1	blank2r.bmp	0	1	+	0	1	blank2r.bmp	252	1	LWWL	306	3	töten	559	0	0	0	0	0	0	0	0	0	0	0	0	0	0	0	0	0	0	0	0	0	0	0	0	0	0	0	0	0	0	0	0	0	0	0	0	0	0	0
072319	11:01:40	11:05:41	239542	5.0.10.0	5_exp_noRW	76	Rpleas_acq	CS_A	ZHHZ	JQQJ	CPPC	LWWL	DXXD	YFFY	gütig	genießen	vertrauen	sonnig	küssen	träumen	gierig	gemein	versagen	sterben	krank	töten	53pct	acq_USpleas_CSpleas1_noRW	acq1_noRW	1	63	0	0	300	300	603	50	0	1	1	blank2r.bmp	0	1	+	0	1	blank2r.bmp	252	1	ZHHZ	306	1	gütig	559	0	0	0	0	0	0	0	0	0	0	0	0	0	0	0	0	0	0	0	0	0	0	0	0	0	0	0	0	0	0	0	0	0	0	0	0	0	0	0
072319	11:01:40	11:05:43	241222	5.0.10.0	5_exp_noRW	76	Rpleas_acq	CS_A	ZHHZ	JQQJ	CPPC	LWWL	DXXD	YFFY	gütig	genießen	vertrauen	sonnig	küssen	träumen	gierig	gemein	versagen	sterben	krank	töten	47pct	acq_USunple_CSunple1_noRW	acq1_noRW	1	64	0	0	300	300	517	46	0	1	1	blank2r.bmp	0	1	+	0	1	blank2r.bmp	252	1	CPPC	306	2	gemein	559	0	0	0	0	0	0	0	0	0	0	0	0	0	0	0	0	0	0	0	0	0	0	0	0	0	0	0	0	0	0	0	0	0	0	0	0	0	0	0
072319	11:01:40	11:05:45	242781	5.0.10.0	5_exp_noRW	76	Rpleas_acq	CS_A	ZHHZ	JQQJ	CPPC	LWWL	DXXD	YFFY	gütig	genießen	vertrauen	sonnig	küssen	träumen	gierig	gemein	versagen	sterben	krank	töten	53pct	acq_USunple_CSunple2_noRW	acq1_noRW	1	65	0	0	300	300	370	46	0	1	1	blank2r.bmp	0	1	+	0	1	blank2r.bmp	252	1	LWWL	306	1	sterben	559	0	0	0	0	0	0	0	0	0	0	0	0	0	0	0	0	0	0	0	0	0	0	0	0	0	0	0	0	0	0	0	0	0	0	0	0	0	0	0
072319	11:01:40	11:05:47	244673	5.0.10.0	5_exp_noRW	76	Rpleas_acq	CS_A	ZHHZ	JQQJ	CPPC	LWWL	DXXD	YFFY	gütig	genießen	vertrauen	sonnig	küssen	träumen	gierig	gemein	versagen	sterben	krank	töten	53pct	acq_USunple_CSunple1_noRW	acq1_noRW	1	66	0	0	300	300	508	50	0	0	1	blank2r.bmp	0	1	+	0	1	blank2r.bmp	252	1	CPPC	306	1	gierig	559	1	FEHLER	1106	0	0	0	0	0	0	0	0	0	0	0	0	0	0	0	0	0	0	0	0	0	0	0	0	0	0	0	0	0	0	0	0	0	0	0	0
072319	11:01:40	11:05:48	246379	5.0.10.0	5_exp_noRW	76	Rpleas_acq	CS_A	ZHHZ	JQQJ	CPPC	LWWL	DXXD	YFFY	gütig	genießen	vertrauen	sonnig	küssen	träumen	gierig	gemein	versagen	sterben	krank	töten	53pct	acq_USpleas_CSunple2_noRW	acq1_noRW	1	67	0	0	300	300	735	50	0	1	1	blank2r.bmp	0	1	+	0	1	blank2r.bmp	252	1	LWWL	306	3	träumen	559	0	0	0	0	0	0	0	0	0	0	0	0	0	0	0	0	0	0	0	0	0	0	0	0	0	0	0	0	0	0	0	0	0	0	0	0	0	0	0
072319	11:01:40	11:05:50	248099	5.0.10.0	5_exp_noRW	76	Rpleas_acq	CS_A	ZHHZ	JQQJ	CPPC	LWWL	DXXD	YFFY	gütig	genießen	vertrauen	sonnig	küssen	träumen	gierig	gemein	versagen	sterben	krank	töten	47pct	acq_USunple_CSpleas2_noRW	acq1_noRW	1	68	0	0	300	300	540	46	0	1	1	blank2r.bmp	0	1	+	0	1	blank2r.bmp	252	1	JQQJ	306	3	töten	559	0	0	0	0	0	0	0	0	0	0	0	0	0	0	0	0	0	0	0	0	0	0	0	0	0	0	0	0	0	0	0	0	0	0	0	0	0	0	0
072319	11:01:40	11:05:52	249818	5.0.10.0	5_exp_noRW	76	Rpleas_acq	CS_A	ZHHZ	JQQJ	CPPC	LWWL	DXXD	YFFY	gütig	genießen	vertrauen	sonnig	küssen	träumen	gierig	gemein	versagen	sterben	krank	töten	53pct	acq_USunple_CSunple1_noRW	acq1_noRW	1	69	0	0	300	300	536	46	0	1	1	blank2r.bmp	0	1	+	0	1	blank2r.bmp	252	1	CPPC	306	3	versagen	559	0	0	0	0	0	0	0	0	0	0	0	0	0	0	0	0	0	0	0	0	0	0	0	0	0	0	0	0	0	0	0	0	0	0	0	0	0	0	0
072319	11:01:40	11:05:53	251537	5.0.10.0	5_exp_noRW	76	Rpleas_acq	CS_A	ZHHZ	JQQJ	CPPC	LWWL	DXXD	YFFY	gütig	genießen	vertrauen	sonnig	küssen	träumen	gierig	gemein	versagen	sterben	krank	töten	53pct	acq_USpleas_CSpleas2_noRW	acq1_noRW	1	70	0	0	300	300	545	50	0	1	1	blank2r.bmp	0	1	+	0	1	blank2r.bmp	252	1	JQQJ	306	2	küssen	559	0	0	0	0	0	0	0	0	0	0	0	0	0	0	0	0	0	0	0	0	0	0	0	0	0	0	0	0	0	0	0	0	0	0	0	0	0	0	0
072319	11:01:40	11:05:55	253283	5.0.10.0	5_exp_noRW	76	Rpleas_acq	CS_A	ZHHZ	JQQJ	CPPC	LWWL	DXXD	YFFY	gütig	genießen	vertrauen	sonnig	küssen	träumen	gierig	gemein	versagen	sterben	krank	töten	53pct	acq_USpleas_CSpleas1_noRW	acq1_noRW	1	71	0	0	300	300	575	50	0	1	1	blank2r.bmp	0	1	+	0	1	blank2r.bmp	252	1	ZHHZ	306	2	genießen	559	0	0	0	0	0	0	0	0	0	0	0	0	0	0	0	0	0	0	0	0	0	0	0	0	0	0	0	0	0	0	0	0	0	0	0	0	0	0	0
072319	11:01:40	11:05:57	254896	5.0.10.0	5_exp_noRW	76	Rpleas_acq	CS_A	ZHHZ	JQQJ	CPPC	LWWL	DXXD	YFFY	gütig	genießen	vertrauen	sonnig	küssen	träumen	gierig	gemein	versagen	sterben	krank	töten	53pct	acq_USpleas_CSpleas1_noRW	acq1_noRW	1	72	0	0	300	300	443	50	0	1	1	blank2r.bmp	0	1	+	0	1	blank2r.bmp	252	1	ZHHZ	306	1	gütig	559	0	0	0	0	0	0	0	0	0	0	0	0	0	0	0	0	0	0	0	0	0	0	0	0	0	0	0	0	0	0	0	0	0	0	0	0	0	0	0
072319	11:01:40	11:05:58	256589	5.0.10.0	5_exp_noRW	76	Rpleas_acq	CS_A	ZHHZ	JQQJ	CPPC	LWWL	DXXD	YFFY	gütig	genießen	vertrauen	sonnig	küssen	träumen	gierig	gemein	versagen	sterben	krank	töten	47pct	acq_USpleas_CSpleas2_noRW	acq1_noRW	1	73	0	0	300	300	506	50	0	1	1	blank2r.bmp	0	1	+	0	1	blank2r.bmp	252	1	JQQJ	306	1	sonnig	559	0	0	0	0	0	0	0	0	0	0	0	0	0	0	0	0	0	0	0	0	0	0	0	0	0	0	0	0	0	0	0	0	0	0	0	0	0	0	0
072319	11:01:40	11:06:00	258241	5.0.10.0	5_exp_noRW	76	Rpleas_acq	CS_A	ZHHZ	JQQJ	CPPC	LWWL	DXXD	YFFY	gütig	genießen	vertrauen	sonnig	küssen	träumen	gierig	gemein	versagen	sterben	krank	töten	47pct	acq_USpleas_CSunple1_noRW	acq1_noRW	1	74	0	0	300	300	481	50	0	1	1	blank2r.bmp	0	1	+	0	1	blank2r.bmp	252	1	CPPC	306	2	genießen	559	0	0	0	0	0	0	0	0	0	0	0	0	0	0	0	0	0	0	0	0	0	0	0	0	0	0	0	0	0	0	0	0	0	0	0	0	0	0	0
072319	11:01:40	11:06:02	259987	5.0.10.0	5_exp_noRW	76	Rpleas_acq	CS_A	ZHHZ	JQQJ	CPPC	LWWL	DXXD	YFFY	gütig	genießen	vertrauen	sonnig	küssen	träumen	gierig	gemein	versagen	sterben	krank	töten	53pct	acq_USpleas_CSpleas2_noRW	acq1_noRW	1	75	0	0	300	300	573	50	0	1	1	blank2r.bmp	0	1	+	0	1	blank2r.bmp	252	1	JQQJ	306	3	träumen	559	0	0	0	0	0	0	0	0	0	0	0	0	0	0	0	0	0	0	0	0	0	0	0	0	0	0	0	0	0	0	0	0	0	0	0	0	0	0	0
072319	11:01:40	11:06:03	261533	5.0.10.0	5_exp_noRW	76	Rpleas_acq	CS_A	ZHHZ	JQQJ	CPPC	LWWL	DXXD	YFFY	gütig	genießen	vertrauen	sonnig	küssen	träumen	gierig	gemein	versagen	sterben	krank	töten	47pct	acq_USunple_CSunple2_noRW	acq1_noRW	1	76	0	0	300	300	384	46	0	1	1	blank2r.bmp	0	1	+	0	1	blank2r.bmp	252	1	LWWL	306	2	krank	559	0	0	0	0	0	0	0	0	0	0	0	0	0	0	0	0	0	0	0	0	0	0	0	0	0	0	0	0	0	0	0	0	0	0	0	0	0	0	0
072319	11:01:40	11:06:05	263133	5.0.10.0	5_exp_noRW	76	Rpleas_acq	CS_A	ZHHZ	JQQJ	CPPC	LWWL	DXXD	YFFY	gütig	genießen	vertrauen	sonnig	küssen	träumen	gierig	gemein	versagen	sterben	krank	töten	47pct	acq_USunple_CSunple1_noRW	acq1_noRW	1	77	0	0	300	300	416	46	0	1	1	blank2r.bmp	0	1	+	0	1	blank2r.bmp	252	1	CPPC	306	1	gierig	559	0	0	0	0	0	0	0	0	0	0	0	0	0	0	0	0	0	0	0	0	0	0	0	0	0	0	0	0	0	0	0	0	0	0	0	0	0	0	0
072319	11:01:40	11:06:07	264679	5.0.10.0	5_exp_noRW	76	Rpleas_acq	CS_A	ZHHZ	JQQJ	CPPC	LWWL	DXXD	YFFY	gütig	genießen	vertrauen	sonnig	küssen	träumen	gierig	gemein	versagen	sterben	krank	töten	47pct	acq_USunple_CSunple2_noRW	acq1_noRW	1	78	0	0	300	300	368	46	0	1	1	blank2r.bmp	0	1	+	0	1	blank2r.bmp	252	1	LWWL	306	3	töten	559	0	0	0	0	0	0	0	0	0	0	0	0	0	0	0	0	0	0	0	0	0	0	0	0	0	0	0	0	0	0	0	0	0	0	0	0	0	0	0
072319	11:01:40	11:06:08	266358	5.0.10.0	5_exp_noRW	76	Rpleas_acq	CS_A	ZHHZ	JQQJ	CPPC	LWWL	DXXD	YFFY	gütig	genießen	vertrauen	sonnig	küssen	träumen	gierig	gemein	versagen	sterben	krank	töten	47pct	acq_USunple_CSpleas1_noRW	acq1_noRW	1	79	0	0	300	300	497	46	0	1	1	blank2r.bmp	0	1	+	0	1	blank2r.bmp	252	1	ZHHZ	306	1	gierig	559	0	0	0	0	0	0	0	0	0	0	0	0	0	0	0	0	0	0	0	0	0	0	0	0	0	0	0	0	0	0	0	0	0	0	0	0	0	0	0
072319	11:01:40	11:06:10	267997	5.0.10.0	5_exp_noRW	76	Rpleas_acq	CS_A	ZHHZ	JQQJ	CPPC	LWWL	DXXD	YFFY	gütig	genießen	vertrauen	sonnig	küssen	träumen	gierig	gemein	versagen	sterben	krank	töten	53pct	acq_USpleas_CSpleas2_noRW	acq1_noRW	1	80	0	0	300	300	465	50	0	1	1	blank2r.bmp	0	1	+	0	1	blank2r.bmp	252	1	JQQJ	306	1	sonnig	559	0	0	0	0	0	0	0	0	0	0	0	0	0	0	0	0	0	0	0	0	0	0	0	0	0	0	0	0	0	0	0	0	0	0	0	0	0	0	0
072319	11:01:40	11:06:45	302730	5.0.10.0	5_exp_noRW	76	Rpleas_acq	CS_A	ZHHZ	JQQJ	CPPC	LWWL	DXXD	YFFY	gütig	genießen	vertrauen	sonnig	küssen	träumen	gierig	gemein	versagen	sterben	krank	töten	53pct	acq_USpleas_CSpleas1_noRW	acq23456_noRW	2	1	0	0	300	300	789	50	0	1	1	blank2r.bmp	0	1	+	0	1	blank2r.bmp	252	1	ZHHZ	306	3	vertrauen	559	0	0	0	0	0	0	0	0	0	0	0	0	0	0	0	0	0	0	0	0	0	0	0	0	0	0	0	0	0	0	0	0	0	0	0	0	0	0	0
072319	11:01:40	11:06:46	304489	5.0.10.0	5_exp_noRW	76	Rpleas_acq	CS_A	ZHHZ	JQQJ	CPPC	LWWL	DXXD	YFFY	gütig	genießen	vertrauen	sonnig	küssen	träumen	gierig	gemein	versagen	sterben	krank	töten	53pct	acq_USunple_CSunple2_noRW	acq23456_noRW	2	2	0	0	300	300	572	46	0	1	1	blank2r.bmp	0	1	+	0	1	blank2r.bmp	252	1	LWWL	306	2	krank	559	0	0	0	0	0	0	0	0	0	0	0	0	0	0	0	0	0	0	0	0	0	0	0	0	0	0	0	0	0	0	0	0	0	0	0	0	0	0	0
072319	11:01:40	11:06:48	306129	5.0.10.0	5_exp_noRW	76	Rpleas_acq	CS_A	ZHHZ	JQQJ	CPPC	LWWL	DXXD	YFFY	gütig	genießen	vertrauen	sonnig	küssen	träumen	gierig	gemein	versagen	sterben	krank	töten	47pct	acq_USpleas_CSunple2_noRW	acq23456_noRW	2	3	0	0	300	300	470	50	0	1	1	blank2r.bmp	0	1	+	0	1	blank2r.bmp	252	1	LWWL	306	1	sonnig	559	0	0	0	0	0	0	0	0	0	0	0	0	0	0	0	0	0	0	0	0	0	0	0	0	0	0	0	0	0	0	0	0	0	0	0	0	0	0	0
072319	11:01:40	11:06:50	307728	5.0.10.0	5_exp_noRW	76	Rpleas_acq	CS_A	ZHHZ	JQQJ	CPPC	LWWL	DXXD	YFFY	gütig	genießen	vertrauen	sonnig	küssen	träumen	gierig	gemein	versagen	sterben	krank	töten	53pct	acq_USunple_CSunple1_noRW	acq23456_noRW	2	4	0	0	300	300	421	46	0	1	1	blank2r.bmp	0	1	+	0	1	blank2r.bmp	252	1	CPPC	306	3	versagen	559	0	0	0	0	0	0	0	0	0	0	0	0	0	0	0	0	0	0	0	0	0	0	0	0	0	0	0	0	0	0	0	0	0	0	0	0	0	0	0
072319	11:01:40	11:06:51	309327	5.0.10.0	5_exp_noRW	76	Rpleas_acq	CS_A	ZHHZ	JQQJ	CPPC	LWWL	DXXD	YFFY	gütig	genießen	vertrauen	sonnig	küssen	träumen	gierig	gemein	versagen	sterben	krank	töten	53pct	acq_USunple_CSpleas1_noRW	acq23456_noRW	2	5	0	0	300	300	419	46	0	1	1	blank2r.bmp	0	1	+	0	1	blank2r.bmp	252	1	ZHHZ	306	3	versagen	559	0	0	0	0	0	0	0	0	0	0	0	0	0	0	0	0	0	0	0	0	0	0	0	0	0	0	0	0	0	0	0	0	0	0	0	0	0	0	0
072319	11:01:40	11:06:53	310953	5.0.10.0	5_exp_noRW	76	Rpleas_acq	CS_A	ZHHZ	JQQJ	CPPC	LWWL	DXXD	YFFY	gütig	genießen	vertrauen	sonnig	küssen	träumen	gierig	gemein	versagen	sterben	krank	töten	53pct	acq_USpleas_CSpleas2_noRW	acq23456_noRW	2	6	0	0	300	300	446	50	0	1	1	blank2r.bmp	0	1	+	0	1	blank2r.bmp	252	1	JQQJ	306	3	träumen	559	0	0	0	0	0	0	0	0	0	0	0	0	0	0	0	0	0	0	0	0	0	0	0	0	0	0	0	0	0	0	0	0	0	0	0	0	0	0	0
072319	11:01:40	11:06:55	312793	5.0.10.0	5_exp_noRW	76	Rpleas_acq	CS_A	ZHHZ	JQQJ	CPPC	LWWL	DXXD	YFFY	gütig	genießen	vertrauen	sonnig	küssen	träumen	gierig	gemein	versagen	sterben	krank	töten	47pct	acq_USpleas_CSunple1_noRW	acq23456_noRW	2	7	0	0	300	300	674	50	0	1	1	blank2r.bmp	0	1	+	0	1	blank2r.bmp	252	1	CPPC	306	1	gütig	559	0	0	0	0	0	0	0	0	0	0	0	0	0	0	0	0	0	0	0	0	0	0	0	0	0	0	0	0	0	0	0	0	0	0	0	0	0	0	0
072319	11:01:40	11:06:56	314459	5.0.10.0	5_exp_noRW	76	Rpleas_acq	CS_A	ZHHZ	JQQJ	CPPC	LWWL	DXXD	YFFY	gütig	genießen	vertrauen	sonnig	küssen	träumen	gierig	gemein	versagen	sterben	krank	töten	53pct	acq_USunple_CSunple1_noRW	acq23456_noRW	2	8	0	0	300	300	499	46	0	1	1	blank2r.bmp	0	1	+	0	1	blank2r.bmp	252	1	CPPC	306	2	gemein	559	0	0	0	0	0	0	0	0	0	0	0	0	0	0	0	0	0	0	0	0	0	0	0	0	0	0	0	0	0	0	0	0	0	0	0	0	0	0	0
072319	11:01:40	11:06:58	316138	5.0.10.0	5_exp_noRW	76	Rpleas_acq	CS_A	ZHHZ	JQQJ	CPPC	LWWL	DXXD	YFFY	gütig	genießen	vertrauen	sonnig	küssen	träumen	gierig	gemein	versagen	sterben	krank	töten	47pct	acq_USpleas_CSpleas1_noRW	acq23456_noRW	2	9	0	0	300	300	494	50	0	1	1	blank2r.bmp	0	1	+	0	1	blank2r.bmp	252	1	ZHHZ	306	2	genießen	559	0	0	0	0	0	0	0	0	0	0	0	0	0	0	0	0	0	0	0	0	0	0	0	0	0	0	0	0	0	0	0	0	0	0	0	0	0	0	0
072319	11:01:40	11:07:00	317764	5.0.10.0	5_exp_noRW	76	Rpleas_acq	CS_A	ZHHZ	JQQJ	CPPC	LWWL	DXXD	YFFY	gütig	genießen	vertrauen	sonnig	küssen	träumen	gierig	gemein	versagen	sterben	krank	töten	47pct	acq_USunple_CSunple1_noRW	acq23456_noRW	2	10	0	0	300	300	458	46	0	1	1	blank2r.bmp	0	1	+	0	1	blank2r.bmp	252	1	CPPC	306	2	gemein	559	0	0	0	0	0	0	0	0	0	0	0	0	0	0	0	0	0	0	0	0	0	0	0	0	0	0	0	0	0	0	0	0	0	0	0	0	0	0	0
072319	11:01:40	11:07:01	319403	5.0.10.0	5_exp_noRW	76	Rpleas_acq	CS_A	ZHHZ	JQQJ	CPPC	LWWL	DXXD	YFFY	gütig	genießen	vertrauen	sonnig	küssen	träumen	gierig	gemein	versagen	sterben	krank	töten	53pct	acq_USunple_CSunple2_noRW	acq23456_noRW	2	11	0	0	300	300	455	46	0	1	1	blank2r.bmp	0	1	+	0	1	blank2r.bmp	252	1	LWWL	306	1	sterben	559	0	0	0	0	0	0	0	0	0	0	0	0	0	0	0	0	0	0	0	0	0	0	0	0	0	0	0	0	0	0	0	0	0	0	0	0	0	0	0
072319	11:01:40	11:07:03	320989	5.0.10.0	5_exp_noRW	76	Rpleas_acq	CS_A	ZHHZ	JQQJ	CPPC	LWWL	DXXD	YFFY	gütig	genießen	vertrauen	sonnig	küssen	träumen	gierig	gemein	versagen	sterben	krank	töten	47pct	acq_USpleas_CSpleas2_noRW	acq23456_noRW	2	12	0	0	300	300	402	50	0	1	1	blank2r.bmp	0	1	+	0	1	blank2r.bmp	252	1	JQQJ	306	2	küssen	559	0	0	0	0	0	0	0	0	0	0	0	0	0	0	0	0	0	0	0	0	0	0	0	0	0	0	0	0	0	0	0	0	0	0	0	0	0	0	0
072319	11:01:40	11:07:04	322575	5.0.10.0	5_exp_noRW	76	Rpleas_acq	CS_A	ZHHZ	JQQJ	CPPC	LWWL	DXXD	YFFY	gütig	genießen	vertrauen	sonnig	küssen	träumen	gierig	gemein	versagen	sterben	krank	töten	53pct	acq_USpleas_CSpleas2_noRW	acq23456_noRW	2	13	0	0	300	300	414	50	0	1	1	blank2r.bmp	0	1	+	0	1	blank2r.bmp	252	1	JQQJ	306	2	küssen	559	0	0	0	0	0	0	0	0	0	0	0	0	0	0	0	0	0	0	0	0	0	0	0	0	0	0	0	0	0	0	0	0	0	0	0	0	0	0	0
072319	11:01:40	11:07:06	324121	5.0.10.0	5_exp_noRW	76	Rpleas_acq	CS_A	ZHHZ	JQQJ	CPPC	LWWL	DXXD	YFFY	gütig	genießen	vertrauen	sonnig	küssen	träumen	gierig	gemein	versagen	sterben	krank	töten	53pct	acq_USunple_CSpleas2_noRW	acq23456_noRW	2	14	0	0	300	300	377	46	0	1	1	blank2r.bmp	0	1	+	0	1	blank2r.bmp	252	1	JQQJ	306	1	sterben	559	0	0	0	0	0	0	0	0	0	0	0	0	0	0	0	0	0	0	0	0	0	0	0	0	0	0	0	0	0	0	0	0	0	0	0	0	0	0	0
072319	11:01:40	11:07:08	325694	5.0.10.0	5_exp_noRW	76	Rpleas_acq	CS_A	ZHHZ	JQQJ	CPPC	LWWL	DXXD	YFFY	gütig	genießen	vertrauen	sonnig	küssen	träumen	gierig	gemein	versagen	sterben	krank	töten	47pct	acq_USunple_CSunple2_noRW	acq23456_noRW	2	15	0	0	300	300	407	46	0	1	1	blank2r.bmp	0	1	+	0	1	blank2r.bmp	252	1	LWWL	306	2	krank	559	0	0	0	0	0	0	0	0	0	0	0	0	0	0	0	0	0	0	0	0	0	0	0	0	0	0	0	0	0	0	0	0	0	0	0	0	0	0	0
072319	11:01:40	11:07:09	327240	5.0.10.0	5_exp_noRW	76	Rpleas_acq	CS_A	ZHHZ	JQQJ	CPPC	LWWL	DXXD	YFFY	gütig	genießen	vertrauen	sonnig	küssen	träumen	gierig	gemein	versagen	sterben	krank	töten	53pct	acq_USunple_CSunple1_noRW	acq23456_noRW	2	16	0	0	300	300	378	46	0	1	1	blank2r.bmp	0	1	+	0	1	blank2r.bmp	252	1	CPPC	306	3	versagen	559	0	0	0	0	0	0	0	0	0	0	0	0	0	0	0	0	0	0	0	0	0	0	0	0	0	0	0	0	0	0	0	0	0	0	0	0	0	0	0
072319	11:01:40	11:07:11	328866	5.0.10.0	5_exp_noRW	76	Rpleas_acq	CS_A	ZHHZ	JQQJ	CPPC	LWWL	DXXD	YFFY	gütig	genießen	vertrauen	sonnig	küssen	träumen	gierig	gemein	versagen	sterben	krank	töten	47pct	acq_USpleas_CSpleas1_noRW	acq23456_noRW	2	17	0	0	300	300	454	50	0	1	1	blank2r.bmp	0	1	+	0	1	blank2r.bmp	252	1	ZHHZ	306	2	genießen	559	0	0	0	0	0	0	0	0	0	0	0	0	0	0	0	0	0	0	0	0	0	0	0	0	0	0	0	0	0	0	0	0	0	0	0	0	0	0	0
072319	11:01:40	11:07:12	330439	5.0.10.0	5_exp_noRW	76	Rpleas_acq	CS_A	ZHHZ	JQQJ	CPPC	LWWL	DXXD	YFFY	gütig	genießen	vertrauen	sonnig	küssen	träumen	gierig	gemein	versagen	sterben	krank	töten	47pct	acq_USunple_CSunple2_noRW	acq23456_noRW	2	18	0	0	300	300	408	46	0	1	1	blank2r.bmp	0	1	+	0	1	blank2r.bmp	252	1	LWWL	306	3	töten	559	0	0	0	0	0	0	0	0	0	0	0	0	0	0	0	0	0	0	0	0	0	0	0	0	0	0	0	0	0	0	0	0	0	0	0	0	0	0	0
072319	11:01:40	11:07:14	332105	5.0.10.0	5_exp_noRW	76	Rpleas_acq	CS_A	ZHHZ	JQQJ	CPPC	LWWL	DXXD	YFFY	gütig	genießen	vertrauen	sonnig	küssen	träumen	gierig	gemein	versagen	sterben	krank	töten	47pct	acq_USpleas_CSpleas2_noRW	acq23456_noRW	2	19	0	0	300	300	503	50	0	1	1	blank2r.bmp	0	1	+	0	1	blank2r.bmp	252	1	JQQJ	306	3	träumen	559	0	0	0	0	0	0	0	0	0	0	0	0	0	0	0	0	0	0	0	0	0	0	0	0	0	0	0	0	0	0	0	0	0	0	0	0	0	0	0
072319	11:01:40	11:07:16	334251	5.0.10.0	5_exp_noRW	76	Rpleas_acq	CS_A	ZHHZ	JQQJ	CPPC	LWWL	DXXD	YFFY	gütig	genießen	vertrauen	sonnig	küssen	träumen	gierig	gemein	versagen	sterben	krank	töten	47pct	acq_USpleas_CSpleas1_noRW	acq23456_noRW	2	20	0	0	300	300	982	50	0	1	1	blank2r.bmp	0	1	+	0	1	blank2r.bmp	252	1	ZHHZ	306	1	gütig	559	0	0	0	0	0	0	0	0	0	0	0	0	0	0	0	0	0	0	0	0	0	0	0	0	0	0	0	0	0	0	0	0	0	0	0	0	0	0	0
072319	11:01:40	11:07:18	335890	5.0.10.0	5_exp_noRW	76	Rpleas_acq	CS_A	ZHHZ	JQQJ	CPPC	LWWL	DXXD	YFFY	gütig	genießen	vertrauen	sonnig	küssen	träumen	gierig	gemein	versagen	sterben	krank	töten	53pct	acq_USunple_CSunple2_noRW	acq23456_noRW	2	21	0	0	300	300	456	46	0	1	1	blank2r.bmp	0	1	+	0	1	blank2r.bmp	252	1	LWWL	306	1	sterben	559	0	0	0	0	0	0	0	0	0	0	0	0	0	0	0	0	0	0	0	0	0	0	0	0	0	0	0	0	0	0	0	0	0	0	0	0	0	0	0
072319	11:01:40	11:07:20	337663	5.0.10.0	5_exp_noRW	76	Rpleas_acq	CS_A	ZHHZ	JQQJ	CPPC	LWWL	DXXD	YFFY	gütig	genießen	vertrauen	sonnig	küssen	träumen	gierig	gemein	versagen	sterben	krank	töten	47pct	acq_USunple_CSunple1_noRW	acq23456_noRW	2	22	0	0	300	300	591	46	0	1	1	blank2r.bmp	0	1	+	0	1	blank2r.bmp	252	1	CPPC	306	1	gierig	559	0	0	0	0	0	0	0	0	0	0	0	0	0	0	0	0	0	0	0	0	0	0	0	0	0	0	0	0	0	0	0	0	0	0	0	0	0	0	0
072319	11:01:40	11:07:21	339315	5.0.10.0	5_exp_noRW	76	Rpleas_acq	CS_A	ZHHZ	JQQJ	CPPC	LWWL	DXXD	YFFY	gütig	genießen	vertrauen	sonnig	küssen	träumen	gierig	gemein	versagen	sterben	krank	töten	53pct	acq_USpleas_CSpleas2_noRW	acq23456_noRW	2	23	0	0	300	300	479	50	0	1	1	blank2r.bmp	0	1	+	0	1	blank2r.bmp	252	1	JQQJ	306	1	sonnig	559	0	0	0	0	0	0	0	0	0	0	0	0	0	0	0	0	0	0	0	0	0	0	0	0	0	0	0	0	0	0	0	0	0	0	0	0	0	0	0
072319	11:01:40	11:07:23	340914	5.0.10.0	5_exp_noRW	76	Rpleas_acq	CS_A	ZHHZ	JQQJ	CPPC	LWWL	DXXD	YFFY	gütig	genießen	vertrauen	sonnig	küssen	träumen	gierig	gemein	versagen	sterben	krank	töten	47pct	acq_USpleas_CSpleas2_noRW	acq23456_noRW	2	24	0	0	300	300	434	50	0	1	1	blank2r.bmp	0	1	+	0	1	blank2r.bmp	252	1	JQQJ	306	2	küssen	559	0	0	0	0	0	0	0	0	0	0	0	0	0	0	0	0	0	0	0	0	0	0	0	0	0	0	0	0	0	0	0	0	0	0	0	0	0	0	0
072319	11:01:40	11:07:24	342634	5.0.10.0	5_exp_noRW	76	Rpleas_acq	CS_A	ZHHZ	JQQJ	CPPC	LWWL	DXXD	YFFY	gütig	genießen	vertrauen	sonnig	küssen	träumen	gierig	gemein	versagen	sterben	krank	töten	47pct	acq_USpleas_CSpleas2_noRW	acq23456_noRW	2	25	0	0	300	300	537	50	0	1	1	blank2r.bmp	0	1	+	0	1	blank2r.bmp	252	1	JQQJ	306	1	sonnig	559	0	0	0	0	0	0	0	0	0	0	0	0	0	0	0	0	0	0	0	0	0	0	0	0	0	0	0	0	0	0	0	0	0	0	0	0	0	0	0
072319	11:01:40	11:07:26	344273	5.0.10.0	5_exp_noRW	76	Rpleas_acq	CS_A	ZHHZ	JQQJ	CPPC	LWWL	DXXD	YFFY	gütig	genießen	vertrauen	sonnig	küssen	träumen	gierig	gemein	versagen	sterben	krank	töten	47pct	acq_USunple_CSpleas2_noRW	acq23456_noRW	2	26	0	0	300	300	459	46	0	1	1	blank2r.bmp	0	1	+	0	1	blank2r.bmp	252	1	JQQJ	306	2	krank	559	0	0	0	0	0	0	0	0	0	0	0	0	0	0	0	0	0	0	0	0	0	0	0	0	0	0	0	0	0	0	0	0	0	0	0	0	0	0	0
072319	11:01:40	11:07:28	346059	5.0.10.0	5_exp_noRW	76	Rpleas_acq	CS_A	ZHHZ	JQQJ	CPPC	LWWL	DXXD	YFFY	gütig	genießen	vertrauen	sonnig	küssen	träumen	gierig	gemein	versagen	sterben	krank	töten	47pct	acq_USpleas_CSunple1_noRW	acq23456_noRW	2	27	0	0	300	300	623	50	0	1	1	blank2r.bmp	0	1	+	0	1	blank2r.bmp	252	1	CPPC	306	3	vertrauen	559	0	0	0	0	0	0	0	0	0	0	0	0	0	0	0	0	0	0	0	0	0	0	0	0	0	0	0	0	0	0	0	0	0	0	0	0	0	0	0
072319	11:01:40	11:07:30	347698	5.0.10.0	5_exp_noRW	76	Rpleas_acq	CS_A	ZHHZ	JQQJ	CPPC	LWWL	DXXD	YFFY	gütig	genießen	vertrauen	sonnig	küssen	träumen	gierig	gemein	versagen	sterben	krank	töten	53pct	acq_USpleas_CSunple2_noRW	acq23456_noRW	2	28	0	0	300	300	455	50	0	1	1	blank2r.bmp	0	1	+	0	1	blank2r.bmp	252	1	LWWL	306	2	küssen	559	0	0	0	0	0	0	0	0	0	0	0	0	0	0	0	0	0	0	0	0	0	0	0	0	0	0	0	0	0	0	0	0	0	0	0	0	0	0	0
072319	11:01:40	11:07:31	349298	5.0.10.0	5_exp_noRW	76	Rpleas_acq	CS_A	ZHHZ	JQQJ	CPPC	LWWL	DXXD	YFFY	gütig	genießen	vertrauen	sonnig	küssen	träumen	gierig	gemein	versagen	sterben	krank	töten	53pct	acq_USpleas_CSpleas1_noRW	acq23456_noRW	2	29	0	0	300	300	436	50	0	1	1	blank2r.bmp	0	1	+	0	1	blank2r.bmp	252	1	ZHHZ	306	3	vertrauen	559	0	0	0	0	0	0	0	0	0	0	0	0	0	0	0	0	0	0	0	0	0	0	0	0	0	0	0	0	0	0	0	0	0	0	0	0	0	0	0
072319	11:01:40	11:07:33	350790	5.0.10.0	5_exp_noRW	76	Rpleas_acq	CS_A	ZHHZ	JQQJ	CPPC	LWWL	DXXD	YFFY	gütig	genießen	vertrauen	sonnig	küssen	träumen	gierig	gemein	versagen	sterben	krank	töten	47pct	acq_USunple_CSunple2_noRW	acq23456_noRW	2	30	0	0	300	300	322	46	0	1	1	blank2r.bmp	0	1	+	0	1	blank2r.bmp	252	1	LWWL	306	2	krank	559	0	0	0	0	0	0	0	0	0	0	0	0	0	0	0	0	0	0	0	0	0	0	0	0	0	0	0	0	0	0	0	0	0	0	0	0	0	0	0
072319	11:01:40	11:07:34	352496	5.0.10.0	5_exp_noRW	76	Rpleas_acq	CS_A	ZHHZ	JQQJ	CPPC	LWWL	DXXD	YFFY	gütig	genießen	vertrauen	sonnig	küssen	träumen	gierig	gemein	versagen	sterben	krank	töten	47pct	acq_USunple_CSpleas1_noRW	acq23456_noRW	2	31	0	0	300	300	524	46	0	1	1	blank2r.bmp	0	1	+	0	1	blank2r.bmp	252	1	ZHHZ	306	2	gemein	559	0	0	0	0	0	0	0	0	0	0	0	0	0	0	0	0	0	0	0	0	0	0	0	0	0	0	0	0	0	0	0	0	0	0	0	0	0	0	0
072319	11:01:40	11:07:36	354202	5.0.10.0	5_exp_noRW	76	Rpleas_acq	CS_A	ZHHZ	JQQJ	CPPC	LWWL	DXXD	YFFY	gütig	genießen	vertrauen	sonnig	küssen	träumen	gierig	gemein	versagen	sterben	krank	töten	47pct	acq_USunple_CSunple1_noRW	acq23456_noRW	2	32	0	0	300	300	541	46	0	1	1	blank2r.bmp	0	1	+	0	1	blank2r.bmp	252	1	CPPC	306	3	versagen	559	0	0	0	0	0	0	0	0	0	0	0	0	0	0	0	0	0	0	0	0	0	0	0	0	0	0	0	0	0	0	0	0	0	0	0	0	0	0	0
072319	11:01:40	11:07:38	355815	5.0.10.0	5_exp_noRW	76	Rpleas_acq	CS_A	ZHHZ	JQQJ	CPPC	LWWL	DXXD	YFFY	gütig	genießen	vertrauen	sonnig	küssen	träumen	gierig	gemein	versagen	sterben	krank	töten	53pct	acq_USpleas_CSpleas1_noRW	acq23456_noRW	2	33	0	0	300	300	436	50	0	1	1	blank2r.bmp	0	1	+	0	1	blank2r.bmp	252	1	ZHHZ	306	2	genießen	559	0	0	0	0	0	0	0	0	0	0	0	0	0	0	0	0	0	0	0	0	0	0	0	0	0	0	0	0	0	0	0	0	0	0	0	0	0	0	0
072319	11:01:40	11:07:39	357428	5.0.10.0	5_exp_noRW	76	Rpleas_acq	CS_A	ZHHZ	JQQJ	CPPC	LWWL	DXXD	YFFY	gütig	genießen	vertrauen	sonnig	küssen	träumen	gierig	gemein	versagen	sterben	krank	töten	47pct	acq_USunple_CSunple2_noRW	acq23456_noRW	2	34	0	0	300	300	436	46	0	1	1	blank2r.bmp	0	1	+	0	1	blank2r.bmp	252	1	LWWL	306	1	sterben	559	0	0	0	0	0	0	0	0	0	0	0	0	0	0	0	0	0	0	0	0	0	0	0	0	0	0	0	0	0	0	0	0	0	0	0	0	0	0	0
072319	11:01:40	11:07:41	359227	5.0.10.0	5_exp_noRW	76	Rpleas_acq	CS_A	ZHHZ	JQQJ	CPPC	LWWL	DXXD	YFFY	gütig	genießen	vertrauen	sonnig	küssen	träumen	gierig	gemein	versagen	sterben	krank	töten	47pct	acq_USunple_CSunple1_noRW	acq23456_noRW	2	35	0	0	300	300	410	50	0	0	1	blank2r.bmp	0	1	+	0	1	blank2r.bmp	252	1	CPPC	306	2	gemein	559	1	FEHLER	999	0	0	0	0	0	0	0	0	0	0	0	0	0	0	0	0	0	0	0	0	0	0	0	0	0	0	0	0	0	0	0	0	0	0	0	0
072319	11:01:40	11:07:43	360800	5.0.10.0	5_exp_noRW	76	Rpleas_acq	CS_A	ZHHZ	JQQJ	CPPC	LWWL	DXXD	YFFY	gütig	genießen	vertrauen	sonnig	küssen	träumen	gierig	gemein	versagen	sterben	krank	töten	47pct	acq_USpleas_CSpleas1_noRW	acq23456_noRW	2	36	0	0	300	300	606	50	0	1	1	blank2r.bmp	0	1	+	0	1	blank2r.bmp	252	1	ZHHZ	306	1	gütig	559	0	0	0	0	0	0	0	0	0	0	0	0	0	0	0	0	0	0	0	0	0	0	0	0	0	0	0	0	0	0	0	0	0	0	0	0	0	0	0
072319	11:01:40	11:07:45	363012	5.0.10.0	5_exp_noRW	76	Rpleas_acq	CS_A	ZHHZ	JQQJ	CPPC	LWWL	DXXD	YFFY	gütig	genießen	vertrauen	sonnig	küssen	träumen	gierig	gemein	versagen	sterben	krank	töten	53pct	acq_USpleas_CSpleas1_noRW	acq23456_noRW	2	37	0	0	300	300	1036	50	0	1	1	blank2r.bmp	0	1	+	0	1	blank2r.bmp	252	1	ZHHZ	306	3	vertrauen	559	0	0	0	0	0	0	0	0	0	0	0	0	0	0	0	0	0	0	0	0	0	0	0	0	0	0	0	0	0	0	0	0	0	0	0	0	0	0	0
072319	11:01:40	11:07:46	364638	5.0.10.0	5_exp_noRW	76	Rpleas_acq	CS_A	ZHHZ	JQQJ	CPPC	LWWL	DXXD	YFFY	gütig	genießen	vertrauen	sonnig	küssen	träumen	gierig	gemein	versagen	sterben	krank	töten	47pct	acq_USunple_CSunple2_noRW	acq23456_noRW	2	38	0	0	300	300	443	46	0	1	1	blank2r.bmp	0	1	+	0	1	blank2r.bmp	252	1	LWWL	306	3	töten	559	0	0	0	0	0	0	0	0	0	0	0	0	0	0	0	0	0	0	0	0	0	0	0	0	0	0	0	0	0	0	0	0	0	0	0	0	0	0	0
072319	11:01:40	11:07:48	366291	5.0.10.0	5_exp_noRW	76	Rpleas_acq	CS_A	ZHHZ	JQQJ	CPPC	LWWL	DXXD	YFFY	gütig	genießen	vertrauen	sonnig	küssen	träumen	gierig	gemein	versagen	sterben	krank	töten	47pct	acq_USunple_CSunple1_noRW	acq23456_noRW	2	39	0	0	300	300	484	46	0	1	1	blank2r.bmp	0	1	+	0	1	blank2r.bmp	252	1	CPPC	306	1	gierig	559	0	0	0	0	0	0	0	0	0	0	0	0	0	0	0	0	0	0	0	0	0	0	0	0	0	0	0	0	0	0	0	0	0	0	0	0	0	0	0
072319	11:01:40	11:07:50	367917	5.0.10.0	5_exp_noRW	76	Rpleas_acq	CS_A	ZHHZ	JQQJ	CPPC	LWWL	DXXD	YFFY	gütig	genießen	vertrauen	sonnig	küssen	träumen	gierig	gemein	versagen	sterben	krank	töten	53pct	acq_USpleas_CSpleas2_noRW	acq23456_noRW	2	40	0	0	300	300	457	50	0	1	1	blank2r.bmp	0	1	+	0	1	blank2r.bmp	252	1	JQQJ	306	3	träumen	559	0	0	0	0	0	0	0	0	0	0	0	0	0	0	0	0	0	0	0	0	0	0	0	0	0	0	0	0	0	0	0	0	0	0	0	0	0	0	0
072319	11:01:40	11:07:51	369636	5.0.10.0	5_exp_noRW	76	Rpleas_acq	CS_A	ZHHZ	JQQJ	CPPC	LWWL	DXXD	YFFY	gütig	genießen	vertrauen	sonnig	küssen	träumen	gierig	gemein	versagen	sterben	krank	töten	47pct	acq_USpleas_CSpleas2_noRW	acq23456_noRW	2	41	0	0	300	300	534	50	0	1	1	blank2r.bmp	0	1	+	0	1	blank2r.bmp	252	1	JQQJ	306	2	küssen	559	0	0	0	0	0	0	0	0	0	0	0	0	0	0	0	0	0	0	0	0	0	0	0	0	0	0	0	0	0	0	0	0	0	0	0	0	0	0	0
072319	11:01:40	11:07:53	371249	5.0.10.0	5_exp_noRW	76	Rpleas_acq	CS_A	ZHHZ	JQQJ	CPPC	LWWL	DXXD	YFFY	gütig	genießen	vertrauen	sonnig	küssen	träumen	gierig	gemein	versagen	sterben	krank	töten	53pct	acq_USpleas_CSpleas2_noRW	acq23456_noRW	2	42	0	0	300	300	429	50	0	1	1	blank2r.bmp	0	1	+	0	1	blank2r.bmp	252	1	JQQJ	306	1	sonnig	559	0	0	0	0	0	0	0	0	0	0	0	0	0	0	0	0	0	0	0	0	0	0	0	0	0	0	0	0	0	0	0	0	0	0	0	0	0	0	0
072319	11:01:40	11:07:55	372808	5.0.10.0	5_exp_noRW	76	Rpleas_acq	CS_A	ZHHZ	JQQJ	CPPC	LWWL	DXXD	YFFY	gütig	genießen	vertrauen	sonnig	küssen	träumen	gierig	gemein	versagen	sterben	krank	töten	47pct	acq_USunple_CSunple2_noRW	acq23456_noRW	2	43	0	0	300	300	396	46	0	1	1	blank2r.bmp	0	1	+	0	1	blank2r.bmp	252	1	LWWL	306	1	sterben	559	0	0	0	0	0	0	0	0	0	0	0	0	0	0	0	0	0	0	0	0	0	0	0	0	0	0	0	0	0	0	0	0	0	0	0	0	0	0	0
072319	11:01:40	11:07:56	374554	5.0.10.0	5_exp_noRW	76	Rpleas_acq	CS_A	ZHHZ	JQQJ	CPPC	LWWL	DXXD	YFFY	gütig	genießen	vertrauen	sonnig	küssen	träumen	gierig	gemein	versagen	sterben	krank	töten	47pct	acq_USpleas_CSpleas1_noRW	acq23456_noRW	2	44	0	0	300	300	563	50	0	1	1	blank2r.bmp	0	1	+	0	1	blank2r.bmp	252	1	ZHHZ	306	2	genießen	559	0	0	0	0	0	0	0	0	0	0	0	0	0	0	0	0	0	0	0	0	0	0	0	0	0	0	0	0	0	0	0	0	0	0	0	0	0	0	0
072319	11:01:40	11:07:58	376353	5.0.10.0	5_exp_noRW	76	Rpleas_acq	CS_A	ZHHZ	JQQJ	CPPC	LWWL	DXXD	YFFY	gütig	genießen	vertrauen	sonnig	küssen	träumen	gierig	gemein	versagen	sterben	krank	töten	53pct	acq_USunple_CSunple1_noRW	acq23456_noRW	2	45	0	0	300	300	630	46	0	1	1	blank2r.bmp	0	1	+	0	1	blank2r.bmp	252	1	CPPC	306	1	gierig	559	0	0	0	0	0	0	0	0	0	0	0	0	0	0	0	0	0	0	0	0	0	0	0	0	0	0	0	0	0	0	0	0	0	0	0	0	0	0	0
072319	11:01:40	11:08:00	377873	5.0.10.0	5_exp_noRW	76	Rpleas_acq	CS_A	ZHHZ	JQQJ	CPPC	LWWL	DXXD	YFFY	gütig	genießen	vertrauen	sonnig	küssen	träumen	gierig	gemein	versagen	sterben	krank	töten	53pct	acq_USpleas_CSpleas2_noRW	acq23456_noRW	2	46	0	0	300	300	358	50	0	1	1	blank2r.bmp	0	1	+	0	1	blank2r.bmp	252	1	JQQJ	306	3	träumen	559	0	0	0	0	0	0	0	0	0	0	0	0	0	0	0	0	0	0	0	0	0	0	0	0	0	0	0	0	0	0	0	0	0	0	0	0	0	0	0
072319	11:01:40	11:08:01	379446	5.0.10.0	5_exp_noRW	76	Rpleas_acq	CS_A	ZHHZ	JQQJ	CPPC	LWWL	DXXD	YFFY	gütig	genießen	vertrauen	sonnig	küssen	träumen	gierig	gemein	versagen	sterben	krank	töten	53pct	acq_USpleas_CSpleas2_noRW	acq23456_noRW	2	47	0	0	300	300	386	50	0	1	1	blank2r.bmp	0	1	+	0	1	blank2r.bmp	252	1	JQQJ	306	1	sonnig	559	0	0	0	0	0	0	0	0	0	0	0	0	0	0	0	0	0	0	0	0	0	0	0	0	0	0	0	0	0	0	0	0	0	0	0	0	0	0	0
072319	11:01:40	11:08:03	380965	5.0.10.0	5_exp_noRW	76	Rpleas_acq	CS_A	ZHHZ	JQQJ	CPPC	LWWL	DXXD	YFFY	gütig	genießen	vertrauen	sonnig	küssen	träumen	gierig	gemein	versagen	sterben	krank	töten	53pct	acq_USunple_CSunple2_noRW	acq23456_noRW	2	48	0	0	300	300	355	46	0	1	1	blank2r.bmp	0	1	+	0	1	blank2r.bmp	252	1	LWWL	306	3	töten	559	0	0	0	0	0	0	0	0	0	0	0	0	0	0	0	0	0	0	0	0	0	0	0	0	0	0	0	0	0	0	0	0	0	0	0	0	0	0	0
072319	11:01:40	11:08:05	382684	5.0.10.0	5_exp_noRW	76	Rpleas_acq	CS_A	ZHHZ	JQQJ	CPPC	LWWL	DXXD	YFFY	gütig	genießen	vertrauen	sonnig	küssen	träumen	gierig	gemein	versagen	sterben	krank	töten	47pct	acq_USpleas_CSpleas1_noRW	acq23456_noRW	2	49	0	0	300	300	551	50	0	1	1	blank2r.bmp	0	1	+	0	1	blank2r.bmp	252	1	ZHHZ	306	1	gütig	559	0	0	0	0	0	0	0	0	0	0	0	0	0	0	0	0	0	0	0	0	0	0	0	0	0	0	0	0	0	0	0	0	0	0	0	0	0	0	0
072319	11:01:40	11:08:06	384337	5.0.10.0	5_exp_noRW	76	Rpleas_acq	CS_A	ZHHZ	JQQJ	CPPC	LWWL	DXXD	YFFY	gütig	genießen	vertrauen	sonnig	küssen	träumen	gierig	gemein	versagen	sterben	krank	töten	53pct	acq_USpleas_CSpleas1_noRW	acq23456_noRW	2	50	0	0	300	300	480	50	0	1	1	blank2r.bmp	0	1	+	0	1	blank2r.bmp	252	1	ZHHZ	306	3	vertrauen	559	0	0	0	0	0	0	0	0	0	0	0	0	0	0	0	0	0	0	0	0	0	0	0	0	0	0	0	0	0	0	0	0	0	0	0	0	0	0	0
072319	11:01:40	11:08:08	385830	5.0.10.0	5_exp_noRW	76	Rpleas_acq	CS_A	ZHHZ	JQQJ	CPPC	LWWL	DXXD	YFFY	gütig	genießen	vertrauen	sonnig	küssen	träumen	gierig	gemein	versagen	sterben	krank	töten	47pct	acq_USunple_CSunple2_noRW	acq23456_noRW	2	51	0	0	300	300	328	46	0	1	1	blank2r.bmp	0	1	+	0	1	blank2r.bmp	252	1	LWWL	306	2	krank	559	0	0	0	0	0	0	0	0	0	0	0	0	0	0	0	0	0	0	0	0	0	0	0	0	0	0	0	0	0	0	0	0	0	0	0	0	0	0	0
072319	11:01:40	11:08:10	387642	5.0.10.0	5_exp_noRW	76	Rpleas_acq	CS_A	ZHHZ	JQQJ	CPPC	LWWL	DXXD	YFFY	gütig	genießen	vertrauen	sonnig	küssen	träumen	gierig	gemein	versagen	sterben	krank	töten	53pct	acq_USunple_CSunple1_noRW	acq23456_noRW	2	52	0	0	300	300	632	46	0	1	1	blank2r.bmp	0	1	+	0	1	blank2r.bmp	252	1	CPPC	306	2	gemein	559	0	0	0	0	0	0	0	0	0	0	0	0	0	0	0	0	0	0	0	0	0	0	0	0	0	0	0	0	0	0	0	0	0	0	0	0	0	0	0
072319	11:01:40	11:08:11	389295	5.0.10.0	5_exp_noRW	76	Rpleas_acq	CS_A	ZHHZ	JQQJ	CPPC	LWWL	DXXD	YFFY	gütig	genießen	vertrauen	sonnig	küssen	träumen	gierig	gemein	versagen	sterben	krank	töten	47pct	acq_USpleas_CSunple1_noRW	acq23456_noRW	2	53	0	0	300	300	483	50	0	1	1	blank2r.bmp	0	1	+	0	1	blank2r.bmp	252	1	CPPC	306	3	vertrauen	559	0	0	0	0	0	0	0	0	0	0	0	0	0	0	0	0	0	0	0	0	0	0	0	0	0	0	0	0	0	0	0	0	0	0	0	0	0	0	0
072319	11:01:40	11:08:13	390988	5.0.10.0	5_exp_noRW	76	Rpleas_acq	CS_A	ZHHZ	JQQJ	CPPC	LWWL	DXXD	YFFY	gütig	genießen	vertrauen	sonnig	küssen	träumen	gierig	gemein	versagen	sterben	krank	töten	47pct	acq_USunple_CSunple1_noRW	acq23456_noRW	2	54	0	0	300	300	531	46	0	1	1	blank2r.bmp	0	1	+	0	1	blank2r.bmp	252	1	CPPC	306	3	versagen	559	0	0	0	0	0	0	0	0	0	0	0	0	0	0	0	0	0	0	0	0	0	0	0	0	0	0	0	0	0	0	0	0	0	0	0	0	0	0	0
072319	11:01:40	11:08:15	392694	5.0.10.0	5_exp_noRW	76	Rpleas_acq	CS_A	ZHHZ	JQQJ	CPPC	LWWL	DXXD	YFFY	gütig	genießen	vertrauen	sonnig	küssen	träumen	gierig	gemein	versagen	sterben	krank	töten	53pct	acq_USunple_CSpleas1_noRW	acq23456_noRW	2	55	0	0	300	300	525	46	0	1	1	blank2r.bmp	0	1	+	0	1	blank2r.bmp	252	1	ZHHZ	306	1	gierig	559	0	0	0	0	0	0	0	0	0	0	0	0	0	0	0	0	0	0	0	0	0	0	0	0	0	0	0	0	0	0	0	0	0	0	0	0	0	0	0
072319	11:01:40	11:08:16	394253	5.0.10.0	5_exp_noRW	76	Rpleas_acq	CS_A	ZHHZ	JQQJ	CPPC	LWWL	DXXD	YFFY	gütig	genießen	vertrauen	sonnig	küssen	träumen	gierig	gemein	versagen	sterben	krank	töten	47pct	acq_USunple_CSpleas2_noRW	acq23456_noRW	2	56	0	0	300	300	384	46	0	1	1	blank2r.bmp	0	1	+	0	1	blank2r.bmp	252	1	JQQJ	306	2	krank	559	0	0	0	0	0	0	0	0	0	0	0	0	0	0	0	0	0	0	0	0	0	0	0	0	0	0	0	0	0	0	0	0	0	0	0	0	0	0	0
072319	11:01:40	11:08:18	395852	5.0.10.0	5_exp_noRW	76	Rpleas_acq	CS_A	ZHHZ	JQQJ	CPPC	LWWL	DXXD	YFFY	gütig	genießen	vertrauen	sonnig	küssen	träumen	gierig	gemein	versagen	sterben	krank	töten	47pct	acq_USunple_CSunple2_noRW	acq23456_noRW	2	57	0	0	300	300	419	46	0	1	1	blank2r.bmp	0	1	+	0	1	blank2r.bmp	252	1	LWWL	306	2	krank	559	0	0	0	0	0	0	0	0	0	0	0	0	0	0	0	0	0	0	0	0	0	0	0	0	0	0	0	0	0	0	0	0	0	0	0	0	0	0	0
072319	11:01:40	11:08:19	397518	5.0.10.0	5_exp_noRW	76	Rpleas_acq	CS_A	ZHHZ	JQQJ	CPPC	LWWL	DXXD	YFFY	gütig	genießen	vertrauen	sonnig	küssen	träumen	gierig	gemein	versagen	sterben	krank	töten	53pct	acq_USunple_CSunple1_noRW	acq23456_noRW	2	58	0	0	300	300	498	46	0	1	1	blank2r.bmp	0	1	+	0	1	blank2r.bmp	252	1	CPPC	306	3	versagen	559	0	0	0	0	0	0	0	0	0	0	0	0	0	0	0	0	0	0	0	0	0	0	0	0	0	0	0	0	0	0	0	0	0	0	0	0	0	0	0
072319	11:01:40	11:08:21	399171	5.0.10.0	5_exp_noRW	76	Rpleas_acq	CS_A	ZHHZ	JQQJ	CPPC	LWWL	DXXD	YFFY	gütig	genießen	vertrauen	sonnig	küssen	träumen	gierig	gemein	versagen	sterben	krank	töten	47pct	acq_USpleas_CSunple2_noRW	acq23456_noRW	2	59	0	0	300	300	479	50	0	1	1	blank2r.bmp	0	1	+	0	1	blank2r.bmp	252	1	LWWL	306	2	küssen	559	0	0	0	0	0	0	0	0	0	0	0	0	0	0	0	0	0	0	0	0	0	0	0	0	0	0	0	0	0	0	0	0	0	0	0	0	0	0	0
072319	11:01:40	11:08:23	400837	5.0.10.0	5_exp_noRW	76	Rpleas_acq	CS_A	ZHHZ	JQQJ	CPPC	LWWL	DXXD	YFFY	gütig	genießen	vertrauen	sonnig	küssen	träumen	gierig	gemein	versagen	sterben	krank	töten	53pct	acq_USpleas_CSpleas1_noRW	acq23456_noRW	2	60	0	0	300	300	492	50	0	1	1	blank2r.bmp	0	1	+	0	1	blank2r.bmp	252	1	ZHHZ	306	3	vertrauen	559	0	0	0	0	0	0	0	0	0	0	0	0	0	0	0	0	0	0	0	0	0	0	0	0	0	0	0	0	0	0	0	0	0	0	0	0	0	0	0
072319	11:01:40	11:08:24	402476	5.0.10.0	5_exp_noRW	76	Rpleas_acq	CS_A	ZHHZ	JQQJ	CPPC	LWWL	DXXD	YFFY	gütig	genießen	vertrauen	sonnig	küssen	träumen	gierig	gemein	versagen	sterben	krank	töten	47pct	acq_USunple_CSpleas1_noRW	acq23456_noRW	2	61	0	0	300	300	463	46	0	1	1	blank2r.bmp	0	1	+	0	1	blank2r.bmp	252	1	ZHHZ	306	2	gemein	559	0	0	0	0	0	0	0	0	0	0	0	0	0	0	0	0	0	0	0	0	0	0	0	0	0	0	0	0	0	0	0	0	0	0	0	0	0	0	0
072319	11:01:40	11:08:26	404156	5.0.10.0	5_exp_noRW	76	Rpleas_acq	CS_A	ZHHZ	JQQJ	CPPC	LWWL	DXXD	YFFY	gütig	genießen	vertrauen	sonnig	küssen	träumen	gierig	gemein	versagen	sterben	krank	töten	47pct	acq_USunple_CSunple1_noRW	acq23456_noRW	2	62	0	0	300	300	513	46	0	1	1	blank2r.bmp	0	1	+	0	1	blank2r.bmp	252	1	CPPC	306	1	gierig	559	0	0	0	0	0	0	0	0	0	0	0	0	0	0	0	0	0	0	0	0	0	0	0	0	0	0	0	0	0	0	0	0	0	0	0	0	0	0	0
072319	11:01:40	11:08:28	405768	5.0.10.0	5_exp_noRW	76	Rpleas_acq	CS_A	ZHHZ	JQQJ	CPPC	LWWL	DXXD	YFFY	gütig	genießen	vertrauen	sonnig	küssen	träumen	gierig	gemein	versagen	sterben	krank	töten	53pct	acq_USunple_CSunple2_noRW	acq23456_noRW	2	63	0	0	300	300	437	46	0	1	1	blank2r.bmp	0	1	+	0	1	blank2r.bmp	252	1	LWWL	306	3	töten	559	0	0	0	0	0	0	0	0	0	0	0	0	0	0	0	0	0	0	0	0	0	0	0	0	0	0	0	0	0	0	0	0	0	0	0	0	0	0	0
072319	11:01:40	11:08:29	407421	5.0.10.0	5_exp_noRW	76	Rpleas_acq	CS_A	ZHHZ	JQQJ	CPPC	LWWL	DXXD	YFFY	gütig	genießen	vertrauen	sonnig	küssen	träumen	gierig	gemein	versagen	sterben	krank	töten	47pct	acq_USpleas_CSpleas2_noRW	acq23456_noRW	2	64	0	0	300	300	488	50	0	1	1	blank2r.bmp	0	1	+	0	1	blank2r.bmp	252	1	JQQJ	306	2	küssen	559	0	0	0	0	0	0	0	0	0	0	0	0	0	0	0	0	0	0	0	0	0	0	0	0	0	0	0	0	0	0	0	0	0	0	0	0	0	0	0
072319	11:01:40	11:08:31	409034	5.0.10.0	5_exp_noRW	76	Rpleas_acq	CS_A	ZHHZ	JQQJ	CPPC	LWWL	DXXD	YFFY	gütig	genießen	vertrauen	sonnig	küssen	träumen	gierig	gemein	versagen	sterben	krank	töten	53pct	acq_USunple_CSpleas2_noRW	acq23456_noRW	2	65	0	0	300	300	431	46	0	1	1	blank2r.bmp	0	1	+	0	1	blank2r.bmp	252	1	JQQJ	306	3	töten	559	0	0	0	0	0	0	0	0	0	0	0	0	0	0	0	0	0	0	0	0	0	0	0	0	0	0	0	0	0	0	0	0	0	0	0	0	0	0	0
072319	11:01:40	11:08:33	410700	5.0.10.0	5_exp_noRW	76	Rpleas_acq	CS_A	ZHHZ	JQQJ	CPPC	LWWL	DXXD	YFFY	gütig	genießen	vertrauen	sonnig	küssen	träumen	gierig	gemein	versagen	sterben	krank	töten	47pct	acq_USpleas_CSpleas1_noRW	acq23456_noRW	2	66	0	0	300	300	503	50	0	1	1	blank2r.bmp	0	1	+	0	1	blank2r.bmp	252	1	ZHHZ	306	2	genießen	559	0	0	0	0	0	0	0	0	0	0	0	0	0	0	0	0	0	0	0	0	0	0	0	0	0	0	0	0	0	0	0	0	0	0	0	0	0	0	0
072319	11:01:40	11:08:34	412446	5.0.10.0	5_exp_noRW	76	Rpleas_acq	CS_A	ZHHZ	JQQJ	CPPC	LWWL	DXXD	YFFY	gütig	genießen	vertrauen	sonnig	küssen	träumen	gierig	gemein	versagen	sterben	krank	töten	47pct	acq_USpleas_CSpleas1_noRW	acq23456_noRW	2	67	0	0	300	300	580	50	0	1	1	blank2r.bmp	0	1	+	0	1	blank2r.bmp	252	1	ZHHZ	306	1	gütig	559	0	0	0	0	0	0	0	0	0	0	0	0	0	0	0	0	0	0	0	0	0	0	0	0	0	0	0	0	0	0	0	0	0	0	0	0	0	0	0
072319	11:01:40	11:08:36	414045	5.0.10.0	5_exp_noRW	76	Rpleas_acq	CS_A	ZHHZ	JQQJ	CPPC	LWWL	DXXD	YFFY	gütig	genießen	vertrauen	sonnig	küssen	träumen	gierig	gemein	versagen	sterben	krank	töten	53pct	acq_USpleas_CSpleas2_noRW	acq23456_noRW	2	68	0	0	300	300	430	50	0	1	1	blank2r.bmp	0	1	+	0	1	blank2r.bmp	252	1	JQQJ	306	3	träumen	559	0	0	0	0	0	0	0	0	0	0	0	0	0	0	0	0	0	0	0	0	0	0	0	0	0	0	0	0	0	0	0	0	0	0	0	0	0	0	0
072319	11:01:40	11:08:38	415698	5.0.10.0	5_exp_noRW	76	Rpleas_acq	CS_A	ZHHZ	JQQJ	CPPC	LWWL	DXXD	YFFY	gütig	genießen	vertrauen	sonnig	küssen	träumen	gierig	gemein	versagen	sterben	krank	töten	53pct	acq_USunple_CSunple2_noRW	acq23456_noRW	2	69	0	0	300	300	477	46	0	1	1	blank2r.bmp	0	1	+	0	1	blank2r.bmp	252	1	LWWL	306	1	sterben	559	0	0	0	0	0	0	0	0	0	0	0	0	0	0	0	0	0	0	0	0	0	0	0	0	0	0	0	0	0	0	0	0	0	0	0	0	0	0	0
072319	11:01:40	11:08:39	417483	5.0.10.0	5_exp_noRW	76	Rpleas_acq	CS_A	ZHHZ	JQQJ	CPPC	LWWL	DXXD	YFFY	gütig	genießen	vertrauen	sonnig	küssen	träumen	gierig	gemein	versagen	sterben	krank	töten	53pct	acq_USpleas_CSpleas1_noRW	acq23456_noRW	2	70	0	0	300	300	600	50	0	1	1	blank2r.bmp	0	1	+	0	1	blank2r.bmp	252	1	ZHHZ	306	1	gütig	559	0	0	0	0	0	0	0	0	0	0	0	0	0	0	0	0	0	0	0	0	0	0	0	0	0	0	0	0	0	0	0	0	0	0	0	0	0	0	0
072319	11:01:40	11:08:41	419176	5.0.10.0	5_exp_noRW	76	Rpleas_acq	CS_A	ZHHZ	JQQJ	CPPC	LWWL	DXXD	YFFY	gütig	genießen	vertrauen	sonnig	küssen	träumen	gierig	gemein	versagen	sterben	krank	töten	47pct	acq_USpleas_CSpleas1_noRW	acq23456_noRW	2	71	0	0	300	300	530	50	0	1	1	blank2r.bmp	0	1	+	0	1	blank2r.bmp	252	1	ZHHZ	306	2	genießen	559	0	0	0	0	0	0	0	0	0	0	0	0	0	0	0	0	0	0	0	0	0	0	0	0	0	0	0	0	0	0	0	0	0	0	0	0	0	0	0
072319	11:01:40	11:08:43	420789	5.0.10.0	5_exp_noRW	76	Rpleas_acq	CS_A	ZHHZ	JQQJ	CPPC	LWWL	DXXD	YFFY	gütig	genießen	vertrauen	sonnig	küssen	träumen	gierig	gemein	versagen	sterben	krank	töten	53pct	acq_USpleas_CSpleas2_noRW	acq23456_noRW	2	72	0	0	300	300	431	50	0	1	1	blank2r.bmp	0	1	+	0	1	blank2r.bmp	252	1	JQQJ	306	1	sonnig	559	0	0	0	0	0	0	0	0	0	0	0	0	0	0	0	0	0	0	0	0	0	0	0	0	0	0	0	0	0	0	0	0	0	0	0	0	0	0	0
072319	11:01:40	11:08:44	422441	5.0.10.0	5_exp_noRW	76	Rpleas_acq	CS_A	ZHHZ	JQQJ	CPPC	LWWL	DXXD	YFFY	gütig	genießen	vertrauen	sonnig	küssen	träumen	gierig	gemein	versagen	sterben	krank	töten	53pct	acq_USunple_CSunple1_noRW	acq23456_noRW	2	73	0	0	300	300	473	46	0	1	1	blank2r.bmp	0	1	+	0	1	blank2r.bmp	252	1	CPPC	306	2	gemein	559	0	0	0	0	0	0	0	0	0	0	0	0	0	0	0	0	0	0	0	0	0	0	0	0	0	0	0	0	0	0	0	0	0	0	0	0	0	0	0
072319	11:01:40	11:08:46	424081	5.0.10.0	5_exp_noRW	76	Rpleas_acq	CS_A	ZHHZ	JQQJ	CPPC	LWWL	DXXD	YFFY	gütig	genießen	vertrauen	sonnig	küssen	träumen	gierig	gemein	versagen	sterben	krank	töten	47pct	acq_USunple_CSunple2_noRW	acq23456_noRW	2	74	0	0	300	300	455	46	0	1	1	blank2r.bmp	0	1	+	0	1	blank2r.bmp	252	1	LWWL	306	3	töten	559	0	0	0	0	0	0	0	0	0	0	0	0	0	0	0	0	0	0	0	0	0	0	0	0	0	0	0	0	0	0	0	0	0	0	0	0	0	0	0
072319	11:01:40	11:08:48	425720	5.0.10.0	5_exp_noRW	76	Rpleas_acq	CS_A	ZHHZ	JQQJ	CPPC	LWWL	DXXD	YFFY	gütig	genießen	vertrauen	sonnig	küssen	träumen	gierig	gemein	versagen	sterben	krank	töten	47pct	acq_USpleas_CSunple1_noRW	acq23456_noRW	2	75	0	0	300	300	455	50	0	1	1	blank2r.bmp	0	1	+	0	1	blank2r.bmp	252	1	CPPC	306	1	gütig	559	0	0	0	0	0	0	0	0	0	0	0	0	0	0	0	0	0	0	0	0	0	0	0	0	0	0	0	0	0	0	0	0	0	0	0	0	0	0	0
072319	11:01:40	11:08:49	427373	5.0.10.0	5_exp_noRW	76	Rpleas_acq	CS_A	ZHHZ	JQQJ	CPPC	LWWL	DXXD	YFFY	gütig	genießen	vertrauen	sonnig	küssen	träumen	gierig	gemein	versagen	sterben	krank	töten	53pct	acq_USunple_CSunple2_noRW	acq23456_noRW	2	76	0	0	300	300	479	46	0	1	1	blank2r.bmp	0	1	+	0	1	blank2r.bmp	252	1	LWWL	306	1	sterben	559	0	0	0	0	0	0	0	0	0	0	0	0	0	0	0	0	0	0	0	0	0	0	0	0	0	0	0	0	0	0	0	0	0	0	0	0	0	0	0
072319	11:01:40	11:08:51	429065	5.0.10.0	5_exp_noRW	76	Rpleas_acq	CS_A	ZHHZ	JQQJ	CPPC	LWWL	DXXD	YFFY	gütig	genießen	vertrauen	sonnig	küssen	träumen	gierig	gemein	versagen	sterben	krank	töten	53pct	acq_USunple_CSunple1_noRW	acq23456_noRW	2	77	0	0	300	300	509	46	0	1	1	blank2r.bmp	0	1	+	0	1	blank2r.bmp	252	1	CPPC	306	3	versagen	559	0	0	0	0	0	0	0	0	0	0	0	0	0	0	0	0	0	0	0	0	0	0	0	0	0	0	0	0	0	0	0	0	0	0	0	0	0	0	0
072319	11:01:40	11:08:53	430665	5.0.10.0	5_exp_noRW	76	Rpleas_acq	CS_A	ZHHZ	JQQJ	CPPC	LWWL	DXXD	YFFY	gütig	genießen	vertrauen	sonnig	küssen	träumen	gierig	gemein	versagen	sterben	krank	töten	53pct	acq_USpleas_CSunple2_noRW	acq23456_noRW	2	78	0	0	300	300	429	50	0	1	1	blank2r.bmp	0	1	+	0	1	blank2r.bmp	252	1	LWWL	306	1	sonnig	559	0	0	0	0	0	0	0	0	0	0	0	0	0	0	0	0	0	0	0	0	0	0	0	0	0	0	0	0	0	0	0	0	0	0	0	0	0	0	0
072319	11:01:40	11:08:54	432237	5.0.10.0	5_exp_noRW	76	Rpleas_acq	CS_A	ZHHZ	JQQJ	CPPC	LWWL	DXXD	YFFY	gütig	genießen	vertrauen	sonnig	küssen	träumen	gierig	gemein	versagen	sterben	krank	töten	47pct	acq_USpleas_CSpleas2_noRW	acq23456_noRW	2	79	0	0	300	300	404	50	0	1	1	blank2r.bmp	0	1	+	0	1	blank2r.bmp	252	1	JQQJ	306	2	küssen	559	0	0	0	0	0	0	0	0	0	0	0	0	0	0	0	0	0	0	0	0	0	0	0	0	0	0	0	0	0	0	0	0	0	0	0	0	0	0	0
072319	11:01:40	11:08:56	433823	5.0.10.0	5_exp_noRW	76	Rpleas_acq	CS_A	ZHHZ	JQQJ	CPPC	LWWL	DXXD	YFFY	gütig	genießen	vertrauen	sonnig	küssen	träumen	gierig	gemein	versagen	sterben	krank	töten	53pct	acq_USunple_CSunple1_noRW	acq23456_noRW	2	80	0	0	300	300	403	46	0	1	1	blank2r.bmp	0	1	+	0	1	blank2r.bmp	252	1	CPPC	306	2	gemein	559	0	0	0	0	0	0	0	0	0	0	0	0	0	0	0	0	0	0	0	0	0	0	0	0	0	0	0	0	0	0	0	0	0	0	0	0	0	0	0
072319	11:01:40	11:09:20	458040	5.0.10.0	5_exp_noRW	76	Rpleas_acq	CS_A	ZHHZ	JQQJ	CPPC	LWWL	DXXD	YFFY	gütig	genießen	vertrauen	sonnig	küssen	träumen	gierig	gemein	versagen	sterben	krank	töten	53pct	acq_USunple_CSunple2_noRW	acq23456_noRW	3	1	0	0	300	300	517	46	0	1	1	blank2r.bmp	0	1	+	0	1	blank2r.bmp	252	1	LWWL	306	2	krank	559	0	0	0	0	0	0	0	0	0	0	0	0	0	0	0	0	0	0	0	0	0	0	0	0	0	0	0	0	0	0	0	0	0	0	0	0	0	0	0
072319	11:01:40	11:09:22	459693	5.0.10.0	5_exp_noRW	76	Rpleas_acq	CS_A	ZHHZ	JQQJ	CPPC	LWWL	DXXD	YFFY	gütig	genießen	vertrauen	sonnig	küssen	träumen	gierig	gemein	versagen	sterben	krank	töten	53pct	acq_USpleas_CSpleas2_noRW	acq23456_noRW	3	2	0	0	300	300	475	50	0	1	1	blank2r.bmp	0	1	+	0	1	blank2r.bmp	252	1	JQQJ	306	3	träumen	559	0	0	0	0	0	0	0	0	0	0	0	0	0	0	0	0	0	0	0	0	0	0	0	0	0	0	0	0	0	0	0	0	0	0	0	0	0	0	0
072319	11:01:40	11:09:23	461452	5.0.10.0	5_exp_noRW	76	Rpleas_acq	CS_A	ZHHZ	JQQJ	CPPC	LWWL	DXXD	YFFY	gütig	genießen	vertrauen	sonnig	küssen	träumen	gierig	gemein	versagen	sterben	krank	töten	53pct	acq_USpleas_CSpleas1_noRW	acq23456_noRW	3	3	0	0	300	300	576	50	0	1	1	blank2r.bmp	0	1	+	0	1	blank2r.bmp	252	1	ZHHZ	306	3	vertrauen	559	0	0	0	0	0	0	0	0	0	0	0	0	0	0	0	0	0	0	0	0	0	0	0	0	0	0	0	0	0	0	0	0	0	0	0	0	0	0	0
072319	11:01:40	11:09:25	463198	5.0.10.0	5_exp_noRW	76	Rpleas_acq	CS_A	ZHHZ	JQQJ	CPPC	LWWL	DXXD	YFFY	gütig	genießen	vertrauen	sonnig	küssen	träumen	gierig	gemein	versagen	sterben	krank	töten	53pct	acq_USunple_CSpleas1_noRW	acq23456_noRW	3	4	0	0	300	300	570	46	0	1	1	blank2r.bmp	0	1	+	0	1	blank2r.bmp	252	1	ZHHZ	306	3	versagen	559	0	0	0	0	0	0	0	0	0	0	0	0	0	0	0	0	0	0	0	0	0	0	0	0	0	0	0	0	0	0	0	0	0	0	0	0	0	0	0
072319	11:01:40	11:09:27	464838	5.0.10.0	5_exp_noRW	76	Rpleas_acq	CS_A	ZHHZ	JQQJ	CPPC	LWWL	DXXD	YFFY	gütig	genießen	vertrauen	sonnig	küssen	träumen	gierig	gemein	versagen	sterben	krank	töten	47pct	acq_USunple_CSunple2_noRW	acq23456_noRW	3	5	0	0	300	300	452	46	0	1	1	blank2r.bmp	0	1	+	0	1	blank2r.bmp	252	1	LWWL	306	3	töten	559	0	0	0	0	0	0	0	0	0	0	0	0	0	0	0	0	0	0	0	0	0	0	0	0	0	0	0	0	0	0	0	0	0	0	0	0	0	0	0
072319	11:01:40	11:09:28	466397	5.0.10.0	5_exp_noRW	76	Rpleas_acq	CS_A	ZHHZ	JQQJ	CPPC	LWWL	DXXD	YFFY	gütig	genießen	vertrauen	sonnig	küssen	träumen	gierig	gemein	versagen	sterben	krank	töten	47pct	acq_USpleas_CSpleas1_noRW	acq23456_noRW	3	6	0	0	300	300	393	50	0	1	1	blank2r.bmp	0	1	+	0	1	blank2r.bmp	252	1	ZHHZ	306	3	vertrauen	559	0	0	0	0	0	0	0	0	0	0	0	0	0	0	0	0	0	0	0	0	0	0	0	0	0	0	0	0	0	0	0	0	0	0	0	0	0	0	0
072319	11:01:40	11:09:30	467996	5.0.10.0	5_exp_noRW	76	Rpleas_acq	CS_A	ZHHZ	JQQJ	CPPC	LWWL	DXXD	YFFY	gütig	genießen	vertrauen	sonnig	küssen	träumen	gierig	gemein	versagen	sterben	krank	töten	53pct	acq_USunple_CSunple2_noRW	acq23456_noRW	3	7	0	0	300	300	425	46	0	1	1	blank2r.bmp	0	1	+	0	1	blank2r.bmp	252	1	LWWL	306	1	sterben	559	0	0	0	0	0	0	0	0	0	0	0	0	0	0	0	0	0	0	0	0	0	0	0	0	0	0	0	0	0	0	0	0	0	0	0	0	0	0	0
072319	11:01:40	11:09:32	469716	5.0.10.0	5_exp_noRW	76	Rpleas_acq	CS_A	ZHHZ	JQQJ	CPPC	LWWL	DXXD	YFFY	gütig	genießen	vertrauen	sonnig	küssen	träumen	gierig	gemein	versagen	sterben	krank	töten	53pct	acq_USunple_CSunple1_noRW	acq23456_noRW	3	8	0	0	300	300	519	46	0	1	1	blank2r.bmp	0	1	+	0	1	blank2r.bmp	252	1	CPPC	306	1	gierig	559	0	0	0	0	0	0	0	0	0	0	0	0	0	0	0	0	0	0	0	0	0	0	0	0	0	0	0	0	0	0	0	0	0	0	0	0	0	0	0
072319	11:01:40	11:09:33	471315	5.0.10.0	5_exp_noRW	76	Rpleas_acq	CS_A	ZHHZ	JQQJ	CPPC	LWWL	DXXD	YFFY	gütig	genießen	vertrauen	sonnig	küssen	träumen	gierig	gemein	versagen	sterben	krank	töten	53pct	acq_USunple_CSpleas2_noRW	acq23456_noRW	3	9	0	0	300	300	434	46	0	1	1	blank2r.bmp	0	1	+	0	1	blank2r.bmp	252	1	JQQJ	306	1	sterben	559	0	0	0	0	0	0	0	0	0	0	0	0	0	0	0	0	0	0	0	0	0	0	0	0	0	0	0	0	0	0	0	0	0	0	0	0	0	0	0
072319	11:01:40	11:09:35	473248	5.0.10.0	5_exp_noRW	76	Rpleas_acq	CS_A	ZHHZ	JQQJ	CPPC	LWWL	DXXD	YFFY	gütig	genießen	vertrauen	sonnig	küssen	träumen	gierig	gemein	versagen	sterben	krank	töten	53pct	acq_USunple_CSunple1_noRW	acq23456_noRW	3	10	0	0	300	300	539	50	0	0	1	blank2r.bmp	0	1	+	0	1	blank2r.bmp	252	1	CPPC	306	2	gemein	559	1	FEHLER	1132	0	0	0	0	0	0	0	0	0	0	0	0	0	0	0	0	0	0	0	0	0	0	0	0	0	0	0	0	0	0	0	0	0	0	0	0
072319	11:01:40	11:09:37	474887	5.0.10.0	5_exp_noRW	76	Rpleas_acq	CS_A	ZHHZ	JQQJ	CPPC	LWWL	DXXD	YFFY	gütig	genießen	vertrauen	sonnig	küssen	träumen	gierig	gemein	versagen	sterben	krank	töten	47pct	acq_USunple_CSunple1_noRW	acq23456_noRW	3	11	0	0	300	300	683	46	0	1	1	blank2r.bmp	0	1	+	0	1	blank2r.bmp	252	1	CPPC	306	1	gierig	559	0	0	0	0	0	0	0	0	0	0	0	0	0	0	0	0	0	0	0	0	0	0	0	0	0	0	0	0	0	0	0	0	0	0	0	0	0	0	0
072319	11:01:40	11:09:38	476553	5.0.10.0	5_exp_noRW	76	Rpleas_acq	CS_A	ZHHZ	JQQJ	CPPC	LWWL	DXXD	YFFY	gütig	genießen	vertrauen	sonnig	küssen	träumen	gierig	gemein	versagen	sterben	krank	töten	53pct	acq_USunple_CSunple2_noRW	acq23456_noRW	3	12	0	0	300	300	486	46	0	1	1	blank2r.bmp	0	1	+	0	1	blank2r.bmp	252	1	LWWL	306	2	krank	559	0	0	0	0	0	0	0	0	0	0	0	0	0	0	0	0	0	0	0	0	0	0	0	0	0	0	0	0	0	0	0	0	0	0	0	0	0	0	0
072319	11:01:40	11:09:40	478285	5.0.10.0	5_exp_noRW	76	Rpleas_acq	CS_A	ZHHZ	JQQJ	CPPC	LWWL	DXXD	YFFY	gütig	genießen	vertrauen	sonnig	küssen	träumen	gierig	gemein	versagen	sterben	krank	töten	47pct	acq_USpleas_CSpleas1_noRW	acq23456_noRW	3	13	0	0	300	300	550	50	0	1	1	blank2r.bmp	0	1	+	0	1	blank2r.bmp	252	1	ZHHZ	306	1	gütig	559	0	0	0	0	0	0	0	0	0	0	0	0	0	0	0	0	0	0	0	0	0	0	0	0	0	0	0	0	0	0	0	0	0	0	0	0	0	0	0
072319	11:01:40	11:09:42	480018	5.0.10.0	5_exp_noRW	76	Rpleas_acq	CS_A	ZHHZ	JQQJ	CPPC	LWWL	DXXD	YFFY	gütig	genießen	vertrauen	sonnig	küssen	träumen	gierig	gemein	versagen	sterben	krank	töten	47pct	acq_USunple_CSunple1_noRW	acq23456_noRW	3	14	0	0	300	300	546	46	0	1	1	blank2r.bmp	0	1	+	0	1	blank2r.bmp	252	1	CPPC	306	3	versagen	559	0	0	0	0	0	0	0	0	0	0	0	0	0	0	0	0	0	0	0	0	0	0	0	0	0	0	0	0	0	0	0	0	0	0	0	0	0	0	0
072319	11:01:40	11:09:44	481751	5.0.10.0	5_exp_noRW	76	Rpleas_acq	CS_A	ZHHZ	JQQJ	CPPC	LWWL	DXXD	YFFY	gütig	genießen	vertrauen	sonnig	küssen	träumen	gierig	gemein	versagen	sterben	krank	töten	47pct	acq_USpleas_CSunple1_noRW	acq23456_noRW	3	15	0	0	300	300	570	50	0	1	1	blank2r.bmp	0	1	+	0	1	blank2r.bmp	252	1	CPPC	306	2	genießen	559	0	0	0	0	0	0	0	0	0	0	0	0	0	0	0	0	0	0	0	0	0	0	0	0	0	0	0	0	0	0	0	0	0	0	0	0	0	0	0
072319	11:01:40	11:09:45	483457	5.0.10.0	5_exp_noRW	76	Rpleas_acq	CS_A	ZHHZ	JQQJ	CPPC	LWWL	DXXD	YFFY	gütig	genießen	vertrauen	sonnig	küssen	träumen	gierig	gemein	versagen	sterben	krank	töten	47pct	acq_USpleas_CSpleas1_noRW	acq23456_noRW	3	16	0	0	300	300	519	50	0	1	1	blank2r.bmp	0	1	+	0	1	blank2r.bmp	252	1	ZHHZ	306	2	genießen	559	0	0	0	0	0	0	0	0	0	0	0	0	0	0	0	0	0	0	0	0	0	0	0	0	0	0	0	0	0	0	0	0	0	0	0	0	0	0	0
072319	11:01:40	11:09:47	485083	5.0.10.0	5_exp_noRW	76	Rpleas_acq	CS_A	ZHHZ	JQQJ	CPPC	LWWL	DXXD	YFFY	gütig	genießen	vertrauen	sonnig	küssen	träumen	gierig	gemein	versagen	sterben	krank	töten	47pct	acq_USpleas_CSpleas2_noRW	acq23456_noRW	3	17	0	0	300	300	462	50	0	1	1	blank2r.bmp	0	1	+	0	1	blank2r.bmp	252	1	JQQJ	306	1	sonnig	559	0	0	0	0	0	0	0	0	0	0	0	0	0	0	0	0	0	0	0	0	0	0	0	0	0	0	0	0	0	0	0	0	0	0	0	0	0	0	0
072319	11:01:40	11:09:49	486655	5.0.10.0	5_exp_noRW	76	Rpleas_acq	CS_A	ZHHZ	JQQJ	CPPC	LWWL	DXXD	YFFY	gütig	genießen	vertrauen	sonnig	küssen	träumen	gierig	gemein	versagen	sterben	krank	töten	47pct	acq_USpleas_CSpleas2_noRW	acq23456_noRW	3	18	0	0	300	300	385	50	0	1	1	blank2r.bmp	0	1	+	0	1	blank2r.bmp	252	1	JQQJ	306	2	küssen	559	0	0	0	0	0	0	0	0	0	0	0	0	0	0	0	0	0	0	0	0	0	0	0	0	0	0	0	0	0	0	0	0	0	0	0	0	0	0	0
072319	11:01:40	11:09:50	488308	5.0.10.0	5_exp_noRW	76	Rpleas_acq	CS_A	ZHHZ	JQQJ	CPPC	LWWL	DXXD	YFFY	gütig	genießen	vertrauen	sonnig	küssen	träumen	gierig	gemein	versagen	sterben	krank	töten	53pct	acq_USpleas_CSpleas2_noRW	acq23456_noRW	3	19	0	0	300	300	482	50	0	1	1	blank2r.bmp	0	1	+	0	1	blank2r.bmp	252	1	JQQJ	306	3	träumen	559	0	0	0	0	0	0	0	0	0	0	0	0	0	0	0	0	0	0	0	0	0	0	0	0	0	0	0	0	0	0	0	0	0	0	0	0	0	0	0
072319	11:01:40	11:09:52	489921	5.0.10.0	5_exp_noRW	76	Rpleas_acq	CS_A	ZHHZ	JQQJ	CPPC	LWWL	DXXD	YFFY	gütig	genießen	vertrauen	sonnig	küssen	träumen	gierig	gemein	versagen	sterben	krank	töten	47pct	acq_USpleas_CSunple2_noRW	acq23456_noRW	3	20	0	0	300	300	444	50	0	1	1	blank2r.bmp	0	1	+	0	1	blank2r.bmp	252	1	LWWL	306	3	träumen	559	0	0	0	0	0	0	0	0	0	0	0	0	0	0	0	0	0	0	0	0	0	0	0	0	0	0	0	0	0	0	0	0	0	0	0	0	0	0	0
072319	11:01:40	11:09:53	491547	5.0.10.0	5_exp_noRW	76	Rpleas_acq	CS_A	ZHHZ	JQQJ	CPPC	LWWL	DXXD	YFFY	gütig	genießen	vertrauen	sonnig	küssen	träumen	gierig	gemein	versagen	sterben	krank	töten	47pct	acq_USpleas_CSpleas1_noRW	acq23456_noRW	3	21	0	0	300	300	440	50	0	1	1	blank2r.bmp	0	1	+	0	1	blank2r.bmp	252	1	ZHHZ	306	2	genießen	559	0	0	0	0	0	0	0	0	0	0	0	0	0	0	0	0	0	0	0	0	0	0	0	0	0	0	0	0	0	0	0	0	0	0	0	0	0	0	0
072319	11:01:40	11:09:55	493199	5.0.10.0	5_exp_noRW	76	Rpleas_acq	CS_A	ZHHZ	JQQJ	CPPC	LWWL	DXXD	YFFY	gütig	genießen	vertrauen	sonnig	küssen	träumen	gierig	gemein	versagen	sterben	krank	töten	53pct	acq_USpleas_CSpleas2_noRW	acq23456_noRW	3	22	0	0	300	300	476	50	0	1	1	blank2r.bmp	0	1	+	0	1	blank2r.bmp	252	1	JQQJ	306	3	träumen	559	0	0	0	0	0	0	0	0	0	0	0	0	0	0	0	0	0	0	0	0	0	0	0	0	0	0	0	0	0	0	0	0	0	0	0	0	0	0	0
072319	11:01:40	11:09:57	494879	5.0.10.0	5_exp_noRW	76	Rpleas_acq	CS_A	ZHHZ	JQQJ	CPPC	LWWL	DXXD	YFFY	gütig	genießen	vertrauen	sonnig	küssen	träumen	gierig	gemein	versagen	sterben	krank	töten	53pct	acq_USunple_CSunple1_noRW	acq23456_noRW	3	23	0	0	300	300	503	46	0	1	1	blank2r.bmp	0	1	+	0	1	blank2r.bmp	252	1	CPPC	306	2	gemein	559	0	0	0	0	0	0	0	0	0	0	0	0	0	0	0	0	0	0	0	0	0	0	0	0	0	0	0	0	0	0	0	0	0	0	0	0	0	0	0
072319	11:01:40	11:09:58	496545	5.0.10.0	5_exp_noRW	76	Rpleas_acq	CS_A	ZHHZ	JQQJ	CPPC	LWWL	DXXD	YFFY	gütig	genießen	vertrauen	sonnig	küssen	träumen	gierig	gemein	versagen	sterben	krank	töten	53pct	acq_USunple_CSunple1_noRW	acq23456_noRW	3	24	0	0	300	300	484	46	0	1	1	blank2r.bmp	0	1	+	0	1	blank2r.bmp	252	1	CPPC	306	3	versagen	559	0	0	0	0	0	0	0	0	0	0	0	0	0	0	0	0	0	0	0	0	0	0	0	0	0	0	0	0	0	0	0	0	0	0	0	0	0	0	0
072319	11:01:40	11:10:00	498131	5.0.10.0	5_exp_noRW	76	Rpleas_acq	CS_A	ZHHZ	JQQJ	CPPC	LWWL	DXXD	YFFY	gütig	genießen	vertrauen	sonnig	küssen	träumen	gierig	gemein	versagen	sterben	krank	töten	53pct	acq_USunple_CSpleas1_noRW	acq23456_noRW	3	25	0	0	300	300	419	46	0	1	1	blank2r.bmp	0	1	+	0	1	blank2r.bmp	252	1	ZHHZ	306	3	versagen	559	0	0	0	0	0	0	0	0	0	0	0	0	0	0	0	0	0	0	0	0	0	0	0	0	0	0	0	0	0	0	0	0	0	0	0	0	0	0	0
072319	11:01:40	11:10:02	499863	5.0.10.0	5_exp_noRW	76	Rpleas_acq	CS_A	ZHHZ	JQQJ	CPPC	LWWL	DXXD	YFFY	gütig	genießen	vertrauen	sonnig	küssen	träumen	gierig	gemein	versagen	sterben	krank	töten	47pct	acq_USunple_CSunple1_noRW	acq23456_noRW	3	26	0	0	300	300	555	46	0	1	1	blank2r.bmp	0	1	+	0	1	blank2r.bmp	252	1	CPPC	306	1	gierig	559	0	0	0	0	0	0	0	0	0	0	0	0	0	0	0	0	0	0	0	0	0	0	0	0	0	0	0	0	0	0	0	0	0	0	0	0	0	0	0
072319	11:01:40	11:10:03	501463	5.0.10.0	5_exp_noRW	76	Rpleas_acq	CS_A	ZHHZ	JQQJ	CPPC	LWWL	DXXD	YFFY	gütig	genießen	vertrauen	sonnig	küssen	träumen	gierig	gemein	versagen	sterben	krank	töten	53pct	acq_USunple_CSunple2_noRW	acq23456_noRW	3	27	0	0	300	300	413	46	0	1	1	blank2r.bmp	0	1	+	0	1	blank2r.bmp	252	1	LWWL	306	1	sterben	559	0	0	0	0	0	0	0	0	0	0	0	0	0	0	0	0	0	0	0	0	0	0	0	0	0	0	0	0	0	0	0	0	0	0	0	0	0	0	0
072319	11:01:40	11:10:05	503009	5.0.10.0	5_exp_noRW	76	Rpleas_acq	CS_A	ZHHZ	JQQJ	CPPC	LWWL	DXXD	YFFY	gütig	genießen	vertrauen	sonnig	küssen	träumen	gierig	gemein	versagen	sterben	krank	töten	47pct	acq_USunple_CSunple2_noRW	acq23456_noRW	3	28	0	0	300	300	375	46	0	1	1	blank2r.bmp	0	1	+	0	1	blank2r.bmp	252	1	LWWL	306	2	krank	559	0	0	0	0	0	0	0	0	0	0	0	0	0	0	0	0	0	0	0	0	0	0	0	0	0	0	0	0	0	0	0	0	0	0	0	0	0	0	0
072319	11:01:40	11:10:07	504661	5.0.10.0	5_exp_noRW	76	Rpleas_acq	CS_A	ZHHZ	JQQJ	CPPC	LWWL	DXXD	YFFY	gütig	genießen	vertrauen	sonnig	küssen	träumen	gierig	gemein	versagen	sterben	krank	töten	53pct	acq_USunple_CSunple2_noRW	acq23456_noRW	3	29	0	0	300	300	487	46	0	1	1	blank2r.bmp	0	1	+	0	1	blank2r.bmp	252	1	LWWL	306	3	töten	559	0	0	0	0	0	0	0	0	0	0	0	0	0	0	0	0	0	0	0	0	0	0	0	0	0	0	0	0	0	0	0	0	0	0	0	0	0	0	0
072319	11:01:40	11:10:08	506407	5.0.10.0	5_exp_noRW	76	Rpleas_acq	CS_A	ZHHZ	JQQJ	CPPC	LWWL	DXXD	YFFY	gütig	genießen	vertrauen	sonnig	küssen	träumen	gierig	gemein	versagen	sterben	krank	töten	47pct	acq_USpleas_CSunple1_noRW	acq23456_noRW	3	30	0	0	300	300	561	50	0	1	1	blank2r.bmp	0	1	+	0	1	blank2r.bmp	252	1	CPPC	306	2	genießen	559	0	0	0	0	0	0	0	0	0	0	0	0	0	0	0	0	0	0	0	0	0	0	0	0	0	0	0	0	0	0	0	0	0	0	0	0	0	0	0
072319	11:01:40	11:10:10	508140	5.0.10.0	5_exp_noRW	76	Rpleas_acq	CS_A	ZHHZ	JQQJ	CPPC	LWWL	DXXD	YFFY	gütig	genießen	vertrauen	sonnig	küssen	träumen	gierig	gemein	versagen	sterben	krank	töten	47pct	acq_USpleas_CSpleas1_noRW	acq23456_noRW	3	31	0	0	300	300	571	50	0	1	1	blank2r.bmp	0	1	+	0	1	blank2r.bmp	252	1	ZHHZ	306	1	gütig	559	0	0	0	0	0	0	0	0	0	0	0	0	0	0	0	0	0	0	0	0	0	0	0	0	0	0	0	0	0	0	0	0	0	0	0	0	0	0	0
072319	11:01:40	11:10:12	509699	5.0.10.0	5_exp_noRW	76	Rpleas_acq	CS_A	ZHHZ	JQQJ	CPPC	LWWL	DXXD	YFFY	gütig	genießen	vertrauen	sonnig	küssen	träumen	gierig	gemein	versagen	sterben	krank	töten	47pct	acq_USpleas_CSunple2_noRW	acq23456_noRW	3	32	0	0	300	300	375	50	0	1	1	blank2r.bmp	0	1	+	0	1	blank2r.bmp	252	1	LWWL	306	2	küssen	559	0	0	0	0	0	0	0	0	0	0	0	0	0	0	0	0	0	0	0	0	0	0	0	0	0	0	0	0	0	0	0	0	0	0	0	0	0	0	0
072319	11:01:40	11:10:13	511312	5.0.10.0	5_exp_noRW	76	Rpleas_acq	CS_A	ZHHZ	JQQJ	CPPC	LWWL	DXXD	YFFY	gütig	genießen	vertrauen	sonnig	küssen	träumen	gierig	gemein	versagen	sterben	krank	töten	53pct	acq_USunple_CSunple2_noRW	acq23456_noRW	3	33	0	0	300	300	438	46	0	1	1	blank2r.bmp	0	1	+	0	1	blank2r.bmp	252	1	LWWL	306	3	töten	559	0	0	0	0	0	0	0	0	0	0	0	0	0	0	0	0	0	0	0	0	0	0	0	0	0	0	0	0	0	0	0	0	0	0	0	0	0	0	0
072319	11:01:40	11:10:15	512951	5.0.10.0	5_exp_noRW	76	Rpleas_acq	CS_A	ZHHZ	JQQJ	CPPC	LWWL	DXXD	YFFY	gütig	genießen	vertrauen	sonnig	küssen	träumen	gierig	gemein	versagen	sterben	krank	töten	47pct	acq_USpleas_CSpleas2_noRW	acq23456_noRW	3	34	0	0	300	300	478	50	0	1	1	blank2r.bmp	0	1	+	0	1	blank2r.bmp	252	1	JQQJ	306	1	sonnig	559	0	0	0	0	0	0	0	0	0	0	0	0	0	0	0	0	0	0	0	0	0	0	0	0	0	0	0	0	0	0	0	0	0	0	0	0	0	0	0
072319	11:01:40	11:10:16	514537	5.0.10.0	5_exp_noRW	76	Rpleas_acq	CS_A	ZHHZ	JQQJ	CPPC	LWWL	DXXD	YFFY	gütig	genießen	vertrauen	sonnig	küssen	träumen	gierig	gemein	versagen	sterben	krank	töten	53pct	acq_USunple_CSunple1_noRW	acq23456_noRW	3	35	0	0	300	300	410	46	0	1	1	blank2r.bmp	0	1	+	0	1	blank2r.bmp	252	1	CPPC	306	3	versagen	559	0	0	0	0	0	0	0	0	0	0	0	0	0	0	0	0	0	0	0	0	0	0	0	0	0	0	0	0	0	0	0	0	0	0	0	0	0	0	0
072319	11:01:40	11:10:18	516217	5.0.10.0	5_exp_noRW	76	Rpleas_acq	CS_A	ZHHZ	JQQJ	CPPC	LWWL	DXXD	YFFY	gütig	genießen	vertrauen	sonnig	küssen	träumen	gierig	gemein	versagen	sterben	krank	töten	53pct	acq_USpleas_CSpleas2_noRW	acq23456_noRW	3	36	0	0	300	300	503	50	0	1	1	blank2r.bmp	0	1	+	0	1	blank2r.bmp	252	1	JQQJ	306	2	küssen	559	0	0	0	0	0	0	0	0	0	0	0	0	0	0	0	0	0	0	0	0	0	0	0	0	0	0	0	0	0	0	0	0	0	0	0	0	0	0	0
072319	11:01:40	11:10:20	517789	5.0.10.0	5_exp_noRW	76	Rpleas_acq	CS_A	ZHHZ	JQQJ	CPPC	LWWL	DXXD	YFFY	gütig	genießen	vertrauen	sonnig	küssen	träumen	gierig	gemein	versagen	sterben	krank	töten	53pct	acq_USpleas_CSpleas2_noRW	acq23456_noRW	3	37	0	0	300	300	390	50	0	1	1	blank2r.bmp	0	1	+	0	1	blank2r.bmp	252	1	JQQJ	306	2	küssen	559	0	0	0	0	0	0	0	0	0	0	0	0	0	0	0	0	0	0	0	0	0	0	0	0	0	0	0	0	0	0	0	0	0	0	0	0	0	0	0
072319	11:01:40	11:10:21	519495	5.0.10.0	5_exp_noRW	76	Rpleas_acq	CS_A	ZHHZ	JQQJ	CPPC	LWWL	DXXD	YFFY	gütig	genießen	vertrauen	sonnig	küssen	träumen	gierig	gemein	versagen	sterben	krank	töten	47pct	acq_USpleas_CSpleas1_noRW	acq23456_noRW	3	38	0	0	300	300	524	50	0	1	1	blank2r.bmp	0	1	+	0	1	blank2r.bmp	252	1	ZHHZ	306	3	vertrauen	559	0	0	0	0	0	0	0	0	0	0	0	0	0	0	0	0	0	0	0	0	0	0	0	0	0	0	0	0	0	0	0	0	0	0	0	0	0	0	0
072319	11:01:40	11:10:23	521081	5.0.10.0	5_exp_noRW	76	Rpleas_acq	CS_A	ZHHZ	JQQJ	CPPC	LWWL	DXXD	YFFY	gütig	genießen	vertrauen	sonnig	küssen	träumen	gierig	gemein	versagen	sterben	krank	töten	53pct	acq_USunple_CSpleas2_noRW	acq23456_noRW	3	39	0	0	300	300	418	46	0	1	1	blank2r.bmp	0	1	+	0	1	blank2r.bmp	252	1	JQQJ	306	1	sterben	559	0	0	0	0	0	0	0	0	0	0	0	0	0	0	0	0	0	0	0	0	0	0	0	0	0	0	0	0	0	0	0	0	0	0	0	0	0	0	0
072319	11:01:40	11:10:25	522867	5.0.10.0	5_exp_noRW	76	Rpleas_acq	CS_A	ZHHZ	JQQJ	CPPC	LWWL	DXXD	YFFY	gütig	genießen	vertrauen	sonnig	küssen	träumen	gierig	gemein	versagen	sterben	krank	töten	53pct	acq_USpleas_CSpleas1_noRW	acq23456_noRW	3	40	0	0	300	300	606	50	0	1	1	blank2r.bmp	0	1	+	0	1	blank2r.bmp	252	1	ZHHZ	306	3	vertrauen	559	0	0	0	0	0	0	0	0	0	0	0	0	0	0	0	0	0	0	0	0	0	0	0	0	0	0	0	0	0	0	0	0	0	0	0	0	0	0	0
072319	11:01:40	11:10:26	524573	5.0.10.0	5_exp_noRW	76	Rpleas_acq	CS_A	ZHHZ	JQQJ	CPPC	LWWL	DXXD	YFFY	gütig	genießen	vertrauen	sonnig	küssen	träumen	gierig	gemein	versagen	sterben	krank	töten	47pct	acq_USunple_CSpleas1_noRW	acq23456_noRW	3	41	0	0	300	300	524	46	0	1	1	blank2r.bmp	0	1	+	0	1	blank2r.bmp	252	1	ZHHZ	306	1	gierig	559	0	0	0	0	0	0	0	0	0	0	0	0	0	0	0	0	0	0	0	0	0	0	0	0	0	0	0	0	0	0	0	0	0	0	0	0	0	0	0
072319	11:01:40	11:10:28	526226	5.0.10.0	5_exp_noRW	76	Rpleas_acq	CS_A	ZHHZ	JQQJ	CPPC	LWWL	DXXD	YFFY	gütig	genießen	vertrauen	sonnig	küssen	träumen	gierig	gemein	versagen	sterben	krank	töten	47pct	acq_USpleas_CSunple1_noRW	acq23456_noRW	3	42	0	0	300	300	472	50	0	1	1	blank2r.bmp	0	1	+	0	1	blank2r.bmp	252	1	CPPC	306	1	gütig	559	0	0	0	0	0	0	0	0	0	0	0	0	0	0	0	0	0	0	0	0	0	0	0	0	0	0	0	0	0	0	0	0	0	0	0	0	0	0	0
072319	11:01:40	11:10:30	527985	5.0.10.0	5_exp_noRW	76	Rpleas_acq	CS_A	ZHHZ	JQQJ	CPPC	LWWL	DXXD	YFFY	gütig	genießen	vertrauen	sonnig	küssen	träumen	gierig	gemein	versagen	sterben	krank	töten	47pct	acq_USpleas_CSpleas1_noRW	acq23456_noRW	3	43	0	0	300	300	582	50	0	1	1	blank2r.bmp	0	1	+	0	1	blank2r.bmp	252	1	ZHHZ	306	2	genießen	559	0	0	0	0	0	0	0	0	0	0	0	0	0	0	0	0	0	0	0	0	0	0	0	0	0	0	0	0	0	0	0	0	0	0	0	0	0	0	0
072319	11:01:40	11:10:31	529625	5.0.10.0	5_exp_noRW	76	Rpleas_acq	CS_A	ZHHZ	JQQJ	CPPC	LWWL	DXXD	YFFY	gütig	genießen	vertrauen	sonnig	küssen	träumen	gierig	gemein	versagen	sterben	krank	töten	53pct	acq_USunple_CSunple1_noRW	acq23456_noRW	3	44	0	0	300	300	456	46	0	1	1	blank2r.bmp	0	1	+	0	1	blank2r.bmp	252	1	CPPC	306	2	gemein	559	0	0	0	0	0	0	0	0	0	0	0	0	0	0	0	0	0	0	0	0	0	0	0	0	0	0	0	0	0	0	0	0	0	0	0	0	0	0	0
072319	11:01:40	11:10:33	531251	5.0.10.0	5_exp_noRW	76	Rpleas_acq	CS_A	ZHHZ	JQQJ	CPPC	LWWL	DXXD	YFFY	gütig	genießen	vertrauen	sonnig	küssen	träumen	gierig	gemein	versagen	sterben	krank	töten	53pct	acq_USpleas_CSpleas2_noRW	acq23456_noRW	3	45	0	0	300	300	442	50	0	1	1	blank2r.bmp	0	1	+	0	1	blank2r.bmp	252	1	JQQJ	306	1	sonnig	559	0	0	0	0	0	0	0	0	0	0	0	0	0	0	0	0	0	0	0	0	0	0	0	0	0	0	0	0	0	0	0	0	0	0	0	0	0	0	0
072319	11:01:40	11:10:35	532850	5.0.10.0	5_exp_noRW	76	Rpleas_acq	CS_A	ZHHZ	JQQJ	CPPC	LWWL	DXXD	YFFY	gütig	genießen	vertrauen	sonnig	küssen	träumen	gierig	gemein	versagen	sterben	krank	töten	53pct	acq_USunple_CSunple2_noRW	acq23456_noRW	3	46	0	0	300	300	423	46	0	1	1	blank2r.bmp	0	1	+	0	1	blank2r.bmp	252	1	LWWL	306	1	sterben	559	0	0	0	0	0	0	0	0	0	0	0	0	0	0	0	0	0	0	0	0	0	0	0	0	0	0	0	0	0	0	0	0	0	0	0	0	0	0	0
072319	11:01:40	11:10:36	534436	5.0.10.0	5_exp_noRW	76	Rpleas_acq	CS_A	ZHHZ	JQQJ	CPPC	LWWL	DXXD	YFFY	gütig	genießen	vertrauen	sonnig	küssen	träumen	gierig	gemein	versagen	sterben	krank	töten	53pct	acq_USunple_CSunple2_noRW	acq23456_noRW	3	47	0	0	300	300	410	46	0	1	1	blank2r.bmp	0	1	+	0	1	blank2r.bmp	252	1	LWWL	306	2	krank	559	0	0	0	0	0	0	0	0	0	0	0	0	0	0	0	0	0	0	0	0	0	0	0	0	0	0	0	0	0	0	0	0	0	0	0	0	0	0	0
072319	11:01:40	11:10:38	536009	5.0.10.0	5_exp_noRW	76	Rpleas_acq	CS_A	ZHHZ	JQQJ	CPPC	LWWL	DXXD	YFFY	gütig	genießen	vertrauen	sonnig	küssen	träumen	gierig	gemein	versagen	sterben	krank	töten	53pct	acq_USpleas_CSunple2_noRW	acq23456_noRW	3	48	0	0	300	300	406	50	0	1	1	blank2r.bmp	0	1	+	0	1	blank2r.bmp	252	1	LWWL	306	1	sonnig	559	0	0	0	0	0	0	0	0	0	0	0	0	0	0	0	0	0	0	0	0	0	0	0	0	0	0	0	0	0	0	0	0	0	0	0	0	0	0	0
072319	11:01:40	11:10:40	537941	5.0.10.0	5_exp_noRW	76	Rpleas_acq	CS_A	ZHHZ	JQQJ	CPPC	LWWL	DXXD	YFFY	gütig	genießen	vertrauen	sonnig	küssen	träumen	gierig	gemein	versagen	sterben	krank	töten	53pct	acq_USunple_CSunple1_noRW	acq23456_noRW	3	49	0	0	300	300	532	50	0	0	1	blank2r.bmp	0	1	+	0	1	blank2r.bmp	252	1	CPPC	306	1	gierig	559	1	FEHLER	1132	0	0	0	0	0	0	0	0	0	0	0	0	0	0	0	0	0	0	0	0	0	0	0	0	0	0	0	0	0	0	0	0	0	0	0	0
072319	11:01:40	11:10:42	539914	5.0.10.0	5_exp_noRW	76	Rpleas_acq	CS_A	ZHHZ	JQQJ	CPPC	LWWL	DXXD	YFFY	gütig	genießen	vertrauen	sonnig	küssen	träumen	gierig	gemein	versagen	sterben	krank	töten	47pct	acq_USpleas_CSpleas1_noRW	acq23456_noRW	3	50	0	0	300	300	1015	50	0	1	1	blank2r.bmp	0	1	+	0	1	blank2r.bmp	252	1	ZHHZ	306	1	gütig	559	0	0	0	0	0	0	0	0	0	0	0	0	0	0	0	0	0	0	0	0	0	0	0	0	0	0	0	0	0	0	0	0	0	0	0	0	0	0	0
072319	11:01:40	11:10:43	541567	5.0.10.0	5_exp_noRW	76	Rpleas_acq	CS_A	ZHHZ	JQQJ	CPPC	LWWL	DXXD	YFFY	gütig	genießen	vertrauen	sonnig	küssen	träumen	gierig	gemein	versagen	sterben	krank	töten	47pct	acq_USunple_CSpleas2_noRW	acq23456_noRW	3	51	0	0	300	300	486	46	0	1	1	blank2r.bmp	0	1	+	0	1	blank2r.bmp	252	1	JQQJ	306	3	töten	559	0	0	0	0	0	0	0	0	0	0	0	0	0	0	0	0	0	0	0	0	0	0	0	0	0	0	0	0	0	0	0	0	0	0	0	0	0	0	0
072319	11:01:40	11:10:45	543219	5.0.10.0	5_exp_noRW	76	Rpleas_acq	CS_A	ZHHZ	JQQJ	CPPC	LWWL	DXXD	YFFY	gütig	genießen	vertrauen	sonnig	küssen	träumen	gierig	gemein	versagen	sterben	krank	töten	53pct	acq_USpleas_CSpleas1_noRW	acq23456_noRW	3	52	0	0	300	300	483	50	0	1	1	blank2r.bmp	0	1	+	0	1	blank2r.bmp	252	1	ZHHZ	306	1	gütig	559	0	0	0	0	0	0	0	0	0	0	0	0	0	0	0	0	0	0	0	0	0	0	0	0	0	0	0	0	0	0	0	0	0	0	0	0	0	0	0
072319	11:01:40	11:10:47	545178	5.0.10.0	5_exp_noRW	76	Rpleas_acq	CS_A	ZHHZ	JQQJ	CPPC	LWWL	DXXD	YFFY	gütig	genießen	vertrauen	sonnig	küssen	träumen	gierig	gemein	versagen	sterben	krank	töten	53pct	acq_USpleas_CSpleas2_noRW	acq23456_noRW	3	53	0	0	300	300	797	50	0	1	1	blank2r.bmp	0	1	+	0	1	blank2r.bmp	252	1	JQQJ	306	3	träumen	559	0	0	0	0	0	0	0	0	0	0	0	0	0	0	0	0	0	0	0	0	0	0	0	0	0	0	0	0	0	0	0	0	0	0	0	0	0	0	0
072319	11:01:40	11:10:49	546871	5.0.10.0	5_exp_noRW	76	Rpleas_acq	CS_A	ZHHZ	JQQJ	CPPC	LWWL	DXXD	YFFY	gütig	genießen	vertrauen	sonnig	küssen	träumen	gierig	gemein	versagen	sterben	krank	töten	53pct	acq_USpleas_CSpleas2_noRW	acq23456_noRW	3	54	0	0	300	300	512	50	0	1	1	blank2r.bmp	0	1	+	0	1	blank2r.bmp	252	1	JQQJ	306	1	sonnig	559	0	0	0	0	0	0	0	0	0	0	0	0	0	0	0	0	0	0	0	0	0	0	0	0	0	0	0	0	0	0	0	0	0	0	0	0	0	0	0
072319	11:01:40	11:10:50	548550	5.0.10.0	5_exp_noRW	76	Rpleas_acq	CS_A	ZHHZ	JQQJ	CPPC	LWWL	DXXD	YFFY	gütig	genießen	vertrauen	sonnig	küssen	träumen	gierig	gemein	versagen	sterben	krank	töten	47pct	acq_USunple_CSunple1_noRW	acq23456_noRW	3	55	0	0	300	300	508	46	0	1	1	blank2r.bmp	0	1	+	0	1	blank2r.bmp	252	1	CPPC	306	3	versagen	559	0	0	0	0	0	0	0	0	0	0	0	0	0	0	0	0	0	0	0	0	0	0	0	0	0	0	0	0	0	0	0	0	0	0	0	0	0	0	0
072319	11:01:40	11:10:52	550216	5.0.10.0	5_exp_noRW	76	Rpleas_acq	CS_A	ZHHZ	JQQJ	CPPC	LWWL	DXXD	YFFY	gütig	genießen	vertrauen	sonnig	küssen	träumen	gierig	gemein	versagen	sterben	krank	töten	47pct	acq_USunple_CSunple1_noRW	acq23456_noRW	3	56	0	0	300	300	486	46	0	1	1	blank2r.bmp	0	1	+	0	1	blank2r.bmp	252	1	CPPC	306	2	gemein	559	0	0	0	0	0	0	0	0	0	0	0	0	0	0	0	0	0	0	0	0	0	0	0	0	0	0	0	0	0	0	0	0	0	0	0	0	0	0	0
072319	11:01:40	11:10:54	551869	5.0.10.0	5_exp_noRW	76	Rpleas_acq	CS_A	ZHHZ	JQQJ	CPPC	LWWL	DXXD	YFFY	gütig	genießen	vertrauen	sonnig	küssen	träumen	gierig	gemein	versagen	sterben	krank	töten	47pct	acq_USpleas_CSpleas2_noRW	acq23456_noRW	3	57	0	0	300	300	466	50	0	1	1	blank2r.bmp	0	1	+	0	1	blank2r.bmp	252	1	JQQJ	306	2	küssen	559	0	0	0	0	0	0	0	0	0	0	0	0	0	0	0	0	0	0	0	0	0	0	0	0	0	0	0	0	0	0	0	0	0	0	0	0	0	0	0
072319	11:01:40	11:10:56	553802	5.0.10.0	5_exp_noRW	76	Rpleas_acq	CS_A	ZHHZ	JQQJ	CPPC	LWWL	DXXD	YFFY	gütig	genießen	vertrauen	sonnig	küssen	träumen	gierig	gemein	versagen	sterben	krank	töten	53pct	acq_USpleas_CSpleas1_noRW	acq23456_noRW	3	58	0	0	300	300	764	50	0	1	1	blank2r.bmp	0	1	+	0	1	blank2r.bmp	252	1	ZHHZ	306	2	genießen	559	0	0	0	0	0	0	0	0	0	0	0	0	0	0	0	0	0	0	0	0	0	0	0	0	0	0	0	0	0	0	0	0	0	0	0	0	0	0	0
072319	11:01:40	11:10:57	555454	5.0.10.0	5_exp_noRW	76	Rpleas_acq	CS_A	ZHHZ	JQQJ	CPPC	LWWL	DXXD	YFFY	gütig	genießen	vertrauen	sonnig	küssen	träumen	gierig	gemein	versagen	sterben	krank	töten	53pct	acq_USunple_CSunple2_noRW	acq23456_noRW	3	59	0	0	300	300	485	46	0	1	1	blank2r.bmp	0	1	+	0	1	blank2r.bmp	252	1	LWWL	306	3	töten	559	0	0	0	0	0	0	0	0	0	0	0	0	0	0	0	0	0	0	0	0	0	0	0	0	0	0	0	0	0	0	0	0	0	0	0	0	0	0	0
072319	11:01:40	11:10:59	557054	5.0.10.0	5_exp_noRW	76	Rpleas_acq	CS_A	ZHHZ	JQQJ	CPPC	LWWL	DXXD	YFFY	gütig	genießen	vertrauen	sonnig	küssen	träumen	gierig	gemein	versagen	sterben	krank	töten	53pct	acq_USunple_CSunple2_noRW	acq23456_noRW	3	60	0	0	300	300	429	46	0	1	1	blank2r.bmp	0	1	+	0	1	blank2r.bmp	252	1	LWWL	306	2	krank	559	0	0	0	0	0	0	0	0	0	0	0	0	0	0	0	0	0	0	0	0	0	0	0	0	0	0	0	0	0	0	0	0	0	0	0	0	0	0	0
072319	11:01:40	11:11:01	558680	5.0.10.0	5_exp_noRW	76	Rpleas_acq	CS_A	ZHHZ	JQQJ	CPPC	LWWL	DXXD	YFFY	gütig	genießen	vertrauen	sonnig	küssen	träumen	gierig	gemein	versagen	sterben	krank	töten	47pct	acq_USunple_CSunple2_noRW	acq23456_noRW	3	61	0	0	300	300	446	46	0	1	1	blank2r.bmp	0	1	+	0	1	blank2r.bmp	252	1	LWWL	306	1	sterben	559	0	0	0	0	0	0	0	0	0	0	0	0	0	0	0	0	0	0	0	0	0	0	0	0	0	0	0	0	0	0	0	0	0	0	0	0	0	0	0
072319	11:01:40	11:11:02	560466	5.0.10.0	5_exp_noRW	76	Rpleas_acq	CS_A	ZHHZ	JQQJ	CPPC	LWWL	DXXD	YFFY	gütig	genießen	vertrauen	sonnig	küssen	träumen	gierig	gemein	versagen	sterben	krank	töten	53pct	acq_USunple_CSunple1_noRW	acq23456_noRW	3	62	0	0	300	300	613	46	0	1	1	blank2r.bmp	0	1	+	0	1	blank2r.bmp	252	1	CPPC	306	1	gierig	559	0	0	0	0	0	0	0	0	0	0	0	0	0	0	0	0	0	0	0	0	0	0	0	0	0	0	0	0	0	0	0	0	0	0	0	0	0	0	0
072319	11:01:40	11:11:04	562251	5.0.10.0	5_exp_noRW	76	Rpleas_acq	CS_A	ZHHZ	JQQJ	CPPC	LWWL	DXXD	YFFY	gütig	genießen	vertrauen	sonnig	küssen	träumen	gierig	gemein	versagen	sterben	krank	töten	53pct	acq_USpleas_CSunple1_noRW	acq23456_noRW	3	63	0	0	300	300	619	50	0	1	1	blank2r.bmp	0	1	+	0	1	blank2r.bmp	252	1	CPPC	306	3	vertrauen	559	0	0	0	0	0	0	0	0	0	0	0	0	0	0	0	0	0	0	0	0	0	0	0	0	0	0	0	0	0	0	0	0	0	0	0	0	0	0	0
072319	11:01:40	11:11:06	563917	5.0.10.0	5_exp_noRW	76	Rpleas_acq	CS_A	ZHHZ	JQQJ	CPPC	LWWL	DXXD	YFFY	gütig	genießen	vertrauen	sonnig	küssen	träumen	gierig	gemein	versagen	sterben	krank	töten	53pct	acq_USpleas_CSpleas2_noRW	acq23456_noRW	3	64	0	0	300	300	499	50	0	1	1	blank2r.bmp	0	1	+	0	1	blank2r.bmp	252	1	JQQJ	306	3	träumen	559	0	0	0	0	0	0	0	0	0	0	0	0	0	0	0	0	0	0	0	0	0	0	0	0	0	0	0	0	0	0	0	0	0	0	0	0	0	0	0
072319	11:01:40	11:11:08	565717	5.0.10.0	5_exp_noRW	76	Rpleas_acq	CS_A	ZHHZ	JQQJ	CPPC	LWWL	DXXD	YFFY	gütig	genießen	vertrauen	sonnig	küssen	träumen	gierig	gemein	versagen	sterben	krank	töten	47pct	acq_USpleas_CSpleas1_noRW	acq23456_noRW	3	65	0	0	300	300	625	50	0	1	1	blank2r.bmp	0	1	+	0	1	blank2r.bmp	252	1	ZHHZ	306	3	vertrauen	559	0	0	0	0	0	0	0	0	0	0	0	0	0	0	0	0	0	0	0	0	0	0	0	0	0	0	0	0	0	0	0	0	0	0	0	0	0	0	0
072319	11:01:40	11:11:09	567356	5.0.10.0	5_exp_noRW	76	Rpleas_acq	CS_A	ZHHZ	JQQJ	CPPC	LWWL	DXXD	YFFY	gütig	genießen	vertrauen	sonnig	küssen	träumen	gierig	gemein	versagen	sterben	krank	töten	53pct	acq_USpleas_CSpleas2_noRW	acq23456_noRW	3	66	0	0	300	300	456	50	0	1	1	blank2r.bmp	0	1	+	0	1	blank2r.bmp	252	1	JQQJ	306	2	küssen	559	0	0	0	0	0	0	0	0	0	0	0	0	0	0	0	0	0	0	0	0	0	0	0	0	0	0	0	0	0	0	0	0	0	0	0	0	0	0	0
072319	11:01:40	11:11:11	568995	5.0.10.0	5_exp_noRW	76	Rpleas_acq	CS_A	ZHHZ	JQQJ	CPPC	LWWL	DXXD	YFFY	gütig	genießen	vertrauen	sonnig	küssen	träumen	gierig	gemein	versagen	sterben	krank	töten	53pct	acq_USpleas_CSunple2_noRW	acq23456_noRW	3	67	0	0	300	300	471	50	0	1	1	blank2r.bmp	0	1	+	0	1	blank2r.bmp	252	1	LWWL	306	3	träumen	559	0	0	0	0	0	0	0	0	0	0	0	0	0	0	0	0	0	0	0	0	0	0	0	0	0	0	0	0	0	0	0	0	0	0	0	0	0	0	0
072319	11:01:40	11:11:12	570621	5.0.10.0	5_exp_noRW	76	Rpleas_acq	CS_A	ZHHZ	JQQJ	CPPC	LWWL	DXXD	YFFY	gütig	genießen	vertrauen	sonnig	küssen	träumen	gierig	gemein	versagen	sterben	krank	töten	47pct	acq_USunple_CSpleas1_noRW	acq23456_noRW	3	68	0	0	300	300	453	46	0	1	1	blank2r.bmp	0	1	+	0	1	blank2r.bmp	252	1	ZHHZ	306	2	gemein	559	0	0	0	0	0	0	0	0	0	0	0	0	0	0	0	0	0	0	0	0	0	0	0	0	0	0	0	0	0	0	0	0	0	0	0	0	0	0	0
072319	11:01:40	11:11:14	572207	5.0.10.0	5_exp_noRW	76	Rpleas_acq	CS_A	ZHHZ	JQQJ	CPPC	LWWL	DXXD	YFFY	gütig	genießen	vertrauen	sonnig	küssen	träumen	gierig	gemein	versagen	sterben	krank	töten	47pct	acq_USunple_CSunple2_noRW	acq23456_noRW	3	69	0	0	300	300	419	46	0	1	1	blank2r.bmp	0	1	+	0	1	blank2r.bmp	252	1	LWWL	306	3	töten	559	0	0	0	0	0	0	0	0	0	0	0	0	0	0	0	0	0	0	0	0	0	0	0	0	0	0	0	0	0	0	0	0	0	0	0	0	0	0	0
072319	11:01:40	11:11:16	573860	5.0.10.0	5_exp_noRW	76	Rpleas_acq	CS_A	ZHHZ	JQQJ	CPPC	LWWL	DXXD	YFFY	gütig	genießen	vertrauen	sonnig	küssen	träumen	gierig	gemein	versagen	sterben	krank	töten	53pct	acq_USunple_CSunple2_noRW	acq23456_noRW	3	70	0	0	300	300	487	46	0	1	1	blank2r.bmp	0	1	+	0	1	blank2r.bmp	252	1	LWWL	306	1	sterben	559	0	0	0	0	0	0	0	0	0	0	0	0	0	0	0	0	0	0	0	0	0	0	0	0	0	0	0	0	0	0	0	0	0	0	0	0	0	0	0
072319	11:01:40	11:11:17	575606	5.0.10.0	5_exp_noRW	76	Rpleas_acq	CS_A	ZHHZ	JQQJ	CPPC	LWWL	DXXD	YFFY	gütig	genießen	vertrauen	sonnig	küssen	träumen	gierig	gemein	versagen	sterben	krank	töten	47pct	acq_USpleas_CSpleas2_noRW	acq23456_noRW	3	71	0	0	300	300	571	50	0	1	1	blank2r.bmp	0	1	+	0	1	blank2r.bmp	252	1	JQQJ	306	1	sonnig	559	0	0	0	0	0	0	0	0	0	0	0	0	0	0	0	0	0	0	0	0	0	0	0	0	0	0	0	0	0	0	0	0	0	0	0	0	0	0	0
072319	11:01:40	11:11:19	577245	5.0.10.0	5_exp_noRW	76	Rpleas_acq	CS_A	ZHHZ	JQQJ	CPPC	LWWL	DXXD	YFFY	gütig	genießen	vertrauen	sonnig	küssen	träumen	gierig	gemein	versagen	sterben	krank	töten	47pct	acq_USpleas_CSpleas2_noRW	acq23456_noRW	3	72	0	0	300	300	477	50	0	1	1	blank2r.bmp	0	1	+	0	1	blank2r.bmp	252	1	JQQJ	306	3	träumen	559	0	0	0	0	0	0	0	0	0	0	0	0	0	0	0	0	0	0	0	0	0	0	0	0	0	0	0	0	0	0	0	0	0	0	0	0	0	0	0
072319	11:01:40	11:11:21	578885	5.0.10.0	5_exp_noRW	76	Rpleas_acq	CS_A	ZHHZ	JQQJ	CPPC	LWWL	DXXD	YFFY	gütig	genießen	vertrauen	sonnig	küssen	träumen	gierig	gemein	versagen	sterben	krank	töten	53pct	acq_USunple_CSpleas2_noRW	acq23456_noRW	3	73	0	0	300	300	452	46	0	1	1	blank2r.bmp	0	1	+	0	1	blank2r.bmp	252	1	JQQJ	306	2	krank	559	0	0	0	0	0	0	0	0	0	0	0	0	0	0	0	0	0	0	0	0	0	0	0	0	0	0	0	0	0	0	0	0	0	0	0	0	0	0	0
072319	11:01:40	11:11:23	580764	5.0.10.0	5_exp_noRW	76	Rpleas_acq	CS_A	ZHHZ	JQQJ	CPPC	LWWL	DXXD	YFFY	gütig	genießen	vertrauen	sonnig	küssen	träumen	gierig	gemein	versagen	sterben	krank	töten	47pct	acq_USpleas_CSpleas1_noRW	acq23456_noRW	3	74	0	0	300	300	711	50	0	1	1	blank2r.bmp	0	1	+	0	1	blank2r.bmp	252	1	ZHHZ	306	2	genießen	559	0	0	0	0	0	0	0	0	0	0	0	0	0	0	0	0	0	0	0	0	0	0	0	0	0	0	0	0	0	0	0	0	0	0	0	0	0	0	0
072319	11:01:40	11:11:24	582483	5.0.10.0	5_exp_noRW	76	Rpleas_acq	CS_A	ZHHZ	JQQJ	CPPC	LWWL	DXXD	YFFY	gütig	genießen	vertrauen	sonnig	küssen	träumen	gierig	gemein	versagen	sterben	krank	töten	47pct	acq_USpleas_CSpleas1_noRW	acq23456_noRW	3	75	0	0	300	300	544	50	0	1	1	blank2r.bmp	0	1	+	0	1	blank2r.bmp	252	1	ZHHZ	306	1	gütig	559	0	0	0	0	0	0	0	0	0	0	0	0	0	0	0	0	0	0	0	0	0	0	0	0	0	0	0	0	0	0	0	0	0	0	0	0	0	0	0
072319	11:01:40	11:11:26	584109	5.0.10.0	5_exp_noRW	76	Rpleas_acq	CS_A	ZHHZ	JQQJ	CPPC	LWWL	DXXD	YFFY	gütig	genießen	vertrauen	sonnig	küssen	träumen	gierig	gemein	versagen	sterben	krank	töten	47pct	acq_USunple_CSunple2_noRW	acq23456_noRW	3	76	0	0	300	300	456	46	0	1	1	blank2r.bmp	0	1	+	0	1	blank2r.bmp	252	1	LWWL	306	2	krank	559	0	0	0	0	0	0	0	0	0	0	0	0	0	0	0	0	0	0	0	0	0	0	0	0	0	0	0	0	0	0	0	0	0	0	0	0	0	0	0
072319	11:01:40	11:11:28	585855	5.0.10.0	5_exp_noRW	76	Rpleas_acq	CS_A	ZHHZ	JQQJ	CPPC	LWWL	DXXD	YFFY	gütig	genießen	vertrauen	sonnig	küssen	träumen	gierig	gemein	versagen	sterben	krank	töten	47pct	acq_USunple_CSunple1_noRW	acq23456_noRW	3	77	0	0	300	300	584	46	0	1	1	blank2r.bmp	0	1	+	0	1	blank2r.bmp	252	1	CPPC	306	1	gierig	559	0	0	0	0	0	0	0	0	0	0	0	0	0	0	0	0	0	0	0	0	0	0	0	0	0	0	0	0	0	0	0	0	0	0	0	0	0	0	0
072319	11:01:40	11:11:29	587508	5.0.10.0	5_exp_noRW	76	Rpleas_acq	CS_A	ZHHZ	JQQJ	CPPC	LWWL	DXXD	YFFY	gütig	genießen	vertrauen	sonnig	küssen	träumen	gierig	gemein	versagen	sterben	krank	töten	47pct	acq_USunple_CSunple1_noRW	acq23456_noRW	3	78	0	0	300	300	471	46	0	1	1	blank2r.bmp	0	1	+	0	1	blank2r.bmp	252	1	CPPC	306	3	versagen	559	0	0	0	0	0	0	0	0	0	0	0	0	0	0	0	0	0	0	0	0	0	0	0	0	0	0	0	0	0	0	0	0	0	0	0	0	0	0	0
072319	11:01:40	11:11:31	589267	5.0.10.0	5_exp_noRW	76	Rpleas_acq	CS_A	ZHHZ	JQQJ	CPPC	LWWL	DXXD	YFFY	gütig	genießen	vertrauen	sonnig	küssen	träumen	gierig	gemein	versagen	sterben	krank	töten	53pct	acq_USpleas_CSpleas1_noRW	acq23456_noRW	3	79	0	0	300	300	592	50	0	1	1	blank2r.bmp	0	1	+	0	1	blank2r.bmp	252	1	ZHHZ	306	3	vertrauen	559	0	0	0	0	0	0	0	0	0	0	0	0	0	0	0	0	0	0	0	0	0	0	0	0	0	0	0	0	0	0	0	0	0	0	0	0	0	0	0
072319	11:01:40	11:11:33	591000	5.0.10.0	5_exp_noRW	76	Rpleas_acq	CS_A	ZHHZ	JQQJ	CPPC	LWWL	DXXD	YFFY	gütig	genießen	vertrauen	sonnig	küssen	träumen	gierig	gemein	versagen	sterben	krank	töten	53pct	acq_USunple_CSunple1_noRW	acq23456_noRW	3	80	0	0	300	300	545	46	0	1	1	blank2r.bmp	0	1	+	0	1	blank2r.bmp	252	1	CPPC	306	2	gemein	559	0	0	0	0	0	0	0	0	0	0	0	0	0	0	0	0	0	0	0	0	0	0	0	0	0	0	0	0	0	0	0	0	0	0	0	0	0	0	0
072319	11:01:40	11:12:17	635568	5.0.10.0	5_exp_noRW	76	Rpleas_acq	CS_A	ZHHZ	JQQJ	CPPC	LWWL	DXXD	YFFY	gütig	genießen	vertrauen	sonnig	küssen	träumen	gierig	gemein	versagen	sterben	krank	töten	53pct	acq_USunple_CSpleas2_noRW	acq23456_noRW	4	1	0	0	300	300	509	46	0	1	1	blank2r.bmp	0	1	+	0	1	blank2r.bmp	252	1	JQQJ	306	2	krank	559	0	0	0	0	0	0	0	0	0	0	0	0	0	0	0	0	0	0	0	0	0	0	0	0	0	0	0	0	0	0	0	0	0	0	0	0	0	0	0
