date	time	script.currenttime	script.elapsedtime	build	script.currentexpt	subject	expressions.LRpleas_acq	expressions.conditionCS_A	expressions.CSpleas_1	expressions.CSpleas_2	expressions.CSunple_1	expressions.CSunple_2	expressions.distractor_1	expressions.distractor_2	expressions.US_pleas1	expressions.US_pleas2	expressions.US_pleas3	expressions.US_pleas4	expressions.US_pleas5	expressions.US_pleas6	expressions.US_unple1	expressions.US_unple2	expressions.US_unple3	expressions.US_unple4	expressions.US_unple5	expressions.US_unple6	counter.positions_noRW	trialcode	blockcode	blocknum	trialnum	windowcenter	inwindow	pretrialpause	posttrialpause	latency	response	expressions.correctedscore	correct	stimulusnumber1	stimulusitem1	stimulusonset1	stimulusnumber2	stimulusitem2	stimulusonset2	stimulusnumber3	stimulusitem3	stimulusonset3	stimulusnumber4	stimulusitem4	stimulusonset4	stimulusnumber5	stimulusitem5	stimulusonset5	stimulusnumber6	stimulusitem6	stimulusonset6	stimulusnumber7	stimulusitem7	stimulusonset7	stimulusnumber8	stimulusitem8	stimulusonset8	stimulusnumber9	stimulusitem9	stimulusonset9	stimulusnumber10	stimulusitem10	stimulusonset10	stimulusnumber11	stimulusitem11	stimulusonset11	stimulusnumber12	stimulusitem12	stimulusonset12	stimulusnumber13	stimulusitem13	stimulusonset13	stimulusnumber14	stimulusitem14	stimulusonset14	stimulusnumber15	stimulusitem15	stimulusonset15	stimulusnumber16	stimulusitem16	stimulusonset16	stimulusnumber17	stimulusitem17	stimulusonset17	stimulusnumber18	stimulusitem18	stimulusonset18
070319	12:43:16	12:44:15	58549	5.0.10.0	5_exp_noRW	10	Rpleas_acq	CS_A	LWWL	DXXD	JQQJ	ZHHZ	CPPC	YFFY	sonnig	gütig	küssen	träumen	vertrauen	genießen	sterben	gierig	krank	töten	versagen	gemein	47pct	acq_USpleas_CSpleas1_noRW	acq1_noRW	1	1	0	0	300	300	2000	0	0	0	1	blank2r.bmp	0	1	+	0	1	blank2r.bmp	252	1	LWWL	306	2	gütig	559	1	FEHLER	2598	1	Schneller!	2598	0	0	0	0	0	0	0	0	0	0	0	0	0	0	0	0	0	0	0	0	0	0	0	0	0	0	0	0	0	0	0	0	0
070319	12:43:16	12:44:16	59788	5.0.10.0	5_exp_noRW	10	Rpleas_acq	CS_A	LWWL	DXXD	JQQJ	ZHHZ	CPPC	YFFY	sonnig	gütig	küssen	träumen	vertrauen	genießen	sterben	gierig	krank	töten	versagen	gemein	47pct	acq_USpleas_CSunple1_noRW	acq1_noRW	1	2	0	0	300	300	346	50	0	1	1	blank2r.bmp	0	1	+	0	1	blank2r.bmp	252	1	JQQJ	306	3	küssen	559	0	0	0	0	0	0	0	0	0	0	0	0	0	0	0	0	0	0	0	0	0	0	0	0	0	0	0	0	0	0	0	0	0	0	0	0	0	0	0
070319	12:43:16	12:44:18	61561	5.0.10.0	5_exp_noRW	10	Rpleas_acq	CS_A	LWWL	DXXD	JQQJ	ZHHZ	CPPC	YFFY	sonnig	gütig	küssen	träumen	vertrauen	genießen	sterben	gierig	krank	töten	versagen	gemein	47pct	acq_USunple_CSunple1_noRW	acq1_noRW	1	3	0	0	300	300	601	46	0	1	1	blank2r.bmp	0	1	+	0	1	blank2r.bmp	252	1	JQQJ	306	1	sterben	559	0	0	0	0	0	0	0	0	0	0	0	0	0	0	0	0	0	0	0	0	0	0	0	0	0	0	0	0	0	0	0	0	0	0	0	0	0	0	0
070319	12:43:16	12:44:20	63240	5.0.10.0	5_exp_noRW	10	Rpleas_acq	CS_A	LWWL	DXXD	JQQJ	ZHHZ	CPPC	YFFY	sonnig	gütig	küssen	träumen	vertrauen	genießen	sterben	gierig	krank	töten	versagen	gemein	47pct	acq_USpleas_CSpleas2_noRW	acq1_noRW	1	4	0	0	300	300	515	50	0	1	1	blank2r.bmp	0	1	+	0	1	blank2r.bmp	252	1	DXXD	306	1	träumen	559	0	0	0	0	0	0	0	0	0	0	0	0	0	0	0	0	0	0	0	0	0	0	0	0	0	0	0	0	0	0	0	0	0	0	0	0	0	0	0
070319	12:43:16	12:44:22	65079	5.0.10.0	5_exp_noRW	10	Rpleas_acq	CS_A	LWWL	DXXD	JQQJ	ZHHZ	CPPC	YFFY	sonnig	gütig	küssen	träumen	vertrauen	genießen	sterben	gierig	krank	töten	versagen	gemein	47pct	acq_USunple_CSunple1_noRW	acq1_noRW	1	5	0	0	300	300	653	46	0	1	1	blank2r.bmp	0	1	+	0	1	blank2r.bmp	252	1	JQQJ	306	3	krank	559	0	0	0	0	0	0	0	0	0	0	0	0	0	0	0	0	0	0	0	0	0	0	0	0	0	0	0	0	0	0	0	0	0	0	0	0	0	0	0
070319	12:43:16	12:44:23	66839	5.0.10.0	5_exp_noRW	10	Rpleas_acq	CS_A	LWWL	DXXD	JQQJ	ZHHZ	CPPC	YFFY	sonnig	gütig	küssen	träumen	vertrauen	genießen	sterben	gierig	krank	töten	versagen	gemein	47pct	acq_USunple_CSunple1_noRW	acq1_noRW	1	6	0	0	300	300	597	46	0	1	1	blank2r.bmp	0	1	+	0	1	blank2r.bmp	252	1	JQQJ	306	2	gierig	559	0	0	0	0	0	0	0	0	0	0	0	0	0	0	0	0	0	0	0	0	0	0	0	0	0	0	0	0	0	0	0	0	0	0	0	0	0	0	0
070319	12:43:16	12:44:25	68824	5.0.10.0	5_exp_noRW	10	Rpleas_acq	CS_A	LWWL	DXXD	JQQJ	ZHHZ	CPPC	YFFY	sonnig	gütig	küssen	träumen	vertrauen	genießen	sterben	gierig	krank	töten	versagen	gemein	53pct	acq_USpleas_CSpleas1_noRW	acq1_noRW	1	7	0	0	300	300	595	46	0	0	1	blank2r.bmp	0	1	+	0	1	blank2r.bmp	252	1	LWWL	306	3	küssen	559	1	FEHLER	1186	0	0	0	0	0	0	0	0	0	0	0	0	0	0	0	0	0	0	0	0	0	0	0	0	0	0	0	0	0	0	0	0	0	0	0	0
070319	12:43:16	12:44:27	70517	5.0.10.0	5_exp_noRW	10	Rpleas_acq	CS_A	LWWL	DXXD	JQQJ	ZHHZ	CPPC	YFFY	sonnig	gütig	küssen	träumen	vertrauen	genießen	sterben	gierig	krank	töten	versagen	gemein	53pct	acq_USunple_CSunple2_noRW	acq1_noRW	1	8	0	0	300	300	524	50	0	0	1	blank2r.bmp	0	1	+	0	1	blank2r.bmp	252	1	ZHHZ	306	3	gemein	559	1	FEHLER	1119	0	0	0	0	0	0	0	0	0	0	0	0	0	0	0	0	0	0	0	0	0	0	0	0	0	0	0	0	0	0	0	0	0	0	0	0
070319	12:43:16	12:44:29	72063	5.0.10.0	5_exp_noRW	10	Rpleas_acq	CS_A	LWWL	DXXD	JQQJ	ZHHZ	CPPC	YFFY	sonnig	gütig	küssen	träumen	vertrauen	genießen	sterben	gierig	krank	töten	versagen	gemein	53pct	acq_USpleas_CSpleas2_noRW	acq1_noRW	1	9	0	0	300	300	573	50	0	1	1	blank2r.bmp	0	1	+	0	1	blank2r.bmp	252	1	DXXD	306	3	genießen	559	0	0	0	0	0	0	0	0	0	0	0	0	0	0	0	0	0	0	0	0	0	0	0	0	0	0	0	0	0	0	0	0	0	0	0	0	0	0	0
070319	12:43:16	12:44:31	73956	5.0.10.0	5_exp_noRW	10	Rpleas_acq	CS_A	LWWL	DXXD	JQQJ	ZHHZ	CPPC	YFFY	sonnig	gütig	küssen	träumen	vertrauen	genießen	sterben	gierig	krank	töten	versagen	gemein	47pct	acq_USpleas_CSpleas2_noRW	acq1_noRW	1	10	0	0	300	300	731	50	0	1	1	blank2r.bmp	0	1	+	0	1	blank2r.bmp	252	1	DXXD	306	2	vertrauen	559	0	0	0	0	0	0	0	0	0	0	0	0	0	0	0	0	0	0	0	0	0	0	0	0	0	0	0	0	0	0	0	0	0	0	0	0	0	0	0
070319	12:43:16	12:44:32	75688	5.0.10.0	5_exp_noRW	10	Rpleas_acq	CS_A	LWWL	DXXD	JQQJ	ZHHZ	CPPC	YFFY	sonnig	gütig	küssen	träumen	vertrauen	genießen	sterben	gierig	krank	töten	versagen	gemein	47pct	acq_USunple_CSpleas1_noRW	acq1_noRW	1	11	0	0	300	300	545	46	0	1	1	blank2r.bmp	0	1	+	0	1	blank2r.bmp	252	1	LWWL	306	3	krank	559	0	0	0	0	0	0	0	0	0	0	0	0	0	0	0	0	0	0	0	0	0	0	0	0	0	0	0	0	0	0	0	0	0	0	0	0	0	0	0
070319	12:43:16	12:44:34	77488	5.0.10.0	5_exp_noRW	10	Rpleas_acq	CS_A	LWWL	DXXD	JQQJ	ZHHZ	CPPC	YFFY	sonnig	gütig	küssen	träumen	vertrauen	genießen	sterben	gierig	krank	töten	versagen	gemein	53pct	acq_USpleas_CSunple2_noRW	acq1_noRW	1	12	0	0	300	300	634	50	0	1	1	blank2r.bmp	0	1	+	0	1	blank2r.bmp	252	1	ZHHZ	306	2	vertrauen	559	0	0	0	0	0	0	0	0	0	0	0	0	0	0	0	0	0	0	0	0	0	0	0	0	0	0	0	0	0	0	0	0	0	0	0	0	0	0	0
070319	12:43:16	12:44:36	79180	5.0.10.0	5_exp_noRW	10	Rpleas_acq	CS_A	LWWL	DXXD	JQQJ	ZHHZ	CPPC	YFFY	sonnig	gütig	küssen	träumen	vertrauen	genießen	sterben	gierig	krank	töten	versagen	gemein	47pct	acq_USunple_CSunple2_noRW	acq1_noRW	1	13	0	0	300	300	526	46	0	1	1	blank2r.bmp	0	1	+	0	1	blank2r.bmp	252	1	ZHHZ	306	1	töten	559	0	0	0	0	0	0	0	0	0	0	0	0	0	0	0	0	0	0	0	0	0	0	0	0	0	0	0	0	0	0	0	0	0	0	0	0	0	0	0
070319	12:43:16	12:44:38	81153	5.0.10.0	5_exp_noRW	10	Rpleas_acq	CS_A	LWWL	DXXD	JQQJ	ZHHZ	CPPC	YFFY	sonnig	gütig	küssen	träumen	vertrauen	genießen	sterben	gierig	krank	töten	versagen	gemein	53pct	acq_USpleas_CSpleas2_noRW	acq1_noRW	1	14	0	0	300	300	793	50	0	1	1	blank2r.bmp	0	1	+	0	1	blank2r.bmp	252	1	DXXD	306	1	träumen	559	0	0	0	0	0	0	0	0	0	0	0	0	0	0	0	0	0	0	0	0	0	0	0	0	0	0	0	0	0	0	0	0	0	0	0	0	0	0	0
070319	12:43:16	12:44:39	82845	5.0.10.0	5_exp_noRW	10	Rpleas_acq	CS_A	LWWL	DXXD	JQQJ	ZHHZ	CPPC	YFFY	sonnig	gütig	küssen	träumen	vertrauen	genießen	sterben	gierig	krank	töten	versagen	gemein	47pct	acq_USunple_CSunple1_noRW	acq1_noRW	1	15	0	0	300	300	511	46	0	1	1	blank2r.bmp	0	1	+	0	1	blank2r.bmp	252	1	JQQJ	306	2	gierig	559	0	0	0	0	0	0	0	0	0	0	0	0	0	0	0	0	0	0	0	0	0	0	0	0	0	0	0	0	0	0	0	0	0	0	0	0	0	0	0
070319	12:43:16	12:44:41	84631	5.0.10.0	5_exp_noRW	10	Rpleas_acq	CS_A	LWWL	DXXD	JQQJ	ZHHZ	CPPC	YFFY	sonnig	gütig	küssen	träumen	vertrauen	genießen	sterben	gierig	krank	töten	versagen	gemein	53pct	acq_USunple_CSunple2_noRW	acq1_noRW	1	16	0	0	300	300	391	50	0	0	1	blank2r.bmp	0	1	+	0	1	blank2r.bmp	252	1	ZHHZ	306	2	versagen	559	1	FEHLER	986	0	0	0	0	0	0	0	0	0	0	0	0	0	0	0	0	0	0	0	0	0	0	0	0	0	0	0	0	0	0	0	0	0	0	0	0
070319	12:43:16	12:44:43	85977	5.0.10.0	5_exp_noRW	10	Rpleas_acq	CS_A	LWWL	DXXD	JQQJ	ZHHZ	CPPC	YFFY	sonnig	gütig	küssen	träumen	vertrauen	genießen	sterben	gierig	krank	töten	versagen	gemein	53pct	acq_USpleas_CSpleas1_noRW	acq1_noRW	1	17	0	0	300	300	394	50	0	1	1	blank2r.bmp	0	1	+	0	1	blank2r.bmp	252	1	LWWL	306	1	sonnig	559	0	0	0	0	0	0	0	0	0	0	0	0	0	0	0	0	0	0	0	0	0	0	0	0	0	0	0	0	0	0	0	0	0	0	0	0	0	0	0
070319	12:43:16	12:44:44	87817	5.0.10.0	5_exp_noRW	10	Rpleas_acq	CS_A	LWWL	DXXD	JQQJ	ZHHZ	CPPC	YFFY	sonnig	gütig	küssen	träumen	vertrauen	genießen	sterben	gierig	krank	töten	versagen	gemein	53pct	acq_USunple_CSunple2_noRW	acq1_noRW	1	18	0	0	300	300	661	46	0	1	1	blank2r.bmp	0	1	+	0	1	blank2r.bmp	252	1	ZHHZ	306	3	gemein	559	0	0	0	0	0	0	0	0	0	0	0	0	0	0	0	0	0	0	0	0	0	0	0	0	0	0	0	0	0	0	0	0	0	0	0	0	0	0	0
070319	12:43:16	12:44:46	89723	5.0.10.0	5_exp_noRW	10	Rpleas_acq	CS_A	LWWL	DXXD	JQQJ	ZHHZ	CPPC	YFFY	sonnig	gütig	küssen	träumen	vertrauen	genießen	sterben	gierig	krank	töten	versagen	gemein	53pct	acq_USpleas_CSpleas1_noRW	acq1_noRW	1	19	0	0	300	300	527	46	0	0	1	blank2r.bmp	0	1	+	0	1	blank2r.bmp	252	1	LWWL	306	1	sonnig	559	1	FEHLER	1119	0	0	0	0	0	0	0	0	0	0	0	0	0	0	0	0	0	0	0	0	0	0	0	0	0	0	0	0	0	0	0	0	0	0	0	0
070319	12:43:16	12:44:48	91362	5.0.10.0	5_exp_noRW	10	Rpleas_acq	CS_A	LWWL	DXXD	JQQJ	ZHHZ	CPPC	YFFY	sonnig	gütig	küssen	träumen	vertrauen	genießen	sterben	gierig	krank	töten	versagen	gemein	47pct	acq_USunple_CSpleas2_noRW	acq1_noRW	1	20	0	0	300	300	673	46	0	1	1	blank2r.bmp	0	1	+	0	1	blank2r.bmp	252	1	DXXD	306	2	versagen	559	0	0	0	0	0	0	0	0	0	0	0	0	0	0	0	0	0	0	0	0	0	0	0	0	0	0	0	0	0	0	0	0	0	0	0	0	0	0	0
070319	12:43:16	12:44:50	93414	5.0.10.0	5_exp_noRW	10	Rpleas_acq	CS_A	LWWL	DXXD	JQQJ	ZHHZ	CPPC	YFFY	sonnig	gütig	küssen	träumen	vertrauen	genießen	sterben	gierig	krank	töten	versagen	gemein	53pct	acq_USpleas_CSpleas1_noRW	acq1_noRW	1	21	0	0	300	300	652	46	0	0	1	blank2r.bmp	0	1	+	0	1	blank2r.bmp	252	1	LWWL	306	2	gütig	559	1	FEHLER	1252	0	0	0	0	0	0	0	0	0	0	0	0	0	0	0	0	0	0	0	0	0	0	0	0	0	0	0	0	0	0	0	0	0	0	0	0
070319	12:43:16	12:44:51	94801	5.0.10.0	5_exp_noRW	10	Rpleas_acq	CS_A	LWWL	DXXD	JQQJ	ZHHZ	CPPC	YFFY	sonnig	gütig	küssen	träumen	vertrauen	genießen	sterben	gierig	krank	töten	versagen	gemein	47pct	acq_USunple_CSunple2_noRW	acq1_noRW	1	22	0	0	300	300	436	46	0	1	1	blank2r.bmp	0	1	+	0	1	blank2r.bmp	252	1	ZHHZ	306	1	töten	559	0	0	0	0	0	0	0	0	0	0	0	0	0	0	0	0	0	0	0	0	0	0	0	0	0	0	0	0	0	0	0	0	0	0	0	0	0	0	0
070319	12:43:16	12:44:53	96440	5.0.10.0	5_exp_noRW	10	Rpleas_acq	CS_A	LWWL	DXXD	JQQJ	ZHHZ	CPPC	YFFY	sonnig	gütig	küssen	träumen	vertrauen	genießen	sterben	gierig	krank	töten	versagen	gemein	47pct	acq_USunple_CSunple1_noRW	acq1_noRW	1	23	0	0	300	300	461	46	0	1	1	blank2r.bmp	0	1	+	0	1	blank2r.bmp	252	1	JQQJ	306	1	sterben	559	0	0	0	0	0	0	0	0	0	0	0	0	0	0	0	0	0	0	0	0	0	0	0	0	0	0	0	0	0	0	0	0	0	0	0	0	0	0	0
070319	12:43:16	12:44:55	98252	5.0.10.0	5_exp_noRW	10	Rpleas_acq	CS_A	LWWL	DXXD	JQQJ	ZHHZ	CPPC	YFFY	sonnig	gütig	küssen	träumen	vertrauen	genießen	sterben	gierig	krank	töten	versagen	gemein	47pct	acq_USunple_CSunple2_noRW	acq1_noRW	1	24	0	0	300	300	630	46	0	1	1	blank2r.bmp	0	1	+	0	1	blank2r.bmp	252	1	ZHHZ	306	2	versagen	559	0	0	0	0	0	0	0	0	0	0	0	0	0	0	0	0	0	0	0	0	0	0	0	0	0	0	0	0	0	0	0	0	0	0	0	0	0	0	0
070319	12:43:16	12:44:57	99998	5.0.10.0	5_exp_noRW	10	Rpleas_acq	CS_A	LWWL	DXXD	JQQJ	ZHHZ	CPPC	YFFY	sonnig	gütig	küssen	träumen	vertrauen	genießen	sterben	gierig	krank	töten	versagen	gemein	53pct	acq_USunple_CSunple1_noRW	acq1_noRW	1	25	0	0	300	300	584	46	0	1	1	blank2r.bmp	0	1	+	0	1	blank2r.bmp	252	1	JQQJ	306	3	krank	559	0	0	0	0	0	0	0	0	0	0	0	0	0	0	0	0	0	0	0	0	0	0	0	0	0	0	0	0	0	0	0	0	0	0	0	0	0	0	0
070319	12:43:16	12:44:58	101624	5.0.10.0	5_exp_noRW	10	Rpleas_acq	CS_A	LWWL	DXXD	JQQJ	ZHHZ	CPPC	YFFY	sonnig	gütig	küssen	träumen	vertrauen	genießen	sterben	gierig	krank	töten	versagen	gemein	47pct	acq_USunple_CSunple1_noRW	acq1_noRW	1	26	0	0	300	300	452	46	0	1	1	blank2r.bmp	0	1	+	0	1	blank2r.bmp	252	1	JQQJ	306	2	gierig	559	0	0	0	0	0	0	0	0	0	0	0	0	0	0	0	0	0	0	0	0	0	0	0	0	0	0	0	0	0	0	0	0	0	0	0	0	0	0	0
070319	12:43:16	12:45:00	103197	5.0.10.0	5_exp_noRW	10	Rpleas_acq	CS_A	LWWL	DXXD	JQQJ	ZHHZ	CPPC	YFFY	sonnig	gütig	küssen	träumen	vertrauen	genießen	sterben	gierig	krank	töten	versagen	gemein	47pct	acq_USunple_CSunple2_noRW	acq1_noRW	1	27	0	0	300	300	402	46	0	1	1	blank2r.bmp	0	1	+	0	1	blank2r.bmp	252	1	ZHHZ	306	1	töten	559	0	0	0	0	0	0	0	0	0	0	0	0	0	0	0	0	0	0	0	0	0	0	0	0	0	0	0	0	0	0	0	0	0	0	0	0	0	0	0
070319	12:43:16	12:45:01	104716	5.0.10.0	5_exp_noRW	10	Rpleas_acq	CS_A	LWWL	DXXD	JQQJ	ZHHZ	CPPC	YFFY	sonnig	gütig	küssen	träumen	vertrauen	genießen	sterben	gierig	krank	töten	versagen	gemein	53pct	acq_USpleas_CSpleas1_noRW	acq1_noRW	1	28	0	0	300	300	347	50	0	1	1	blank2r.bmp	0	1	+	0	1	blank2r.bmp	252	1	LWWL	306	3	küssen	559	0	0	0	0	0	0	0	0	0	0	0	0	0	0	0	0	0	0	0	0	0	0	0	0	0	0	0	0	0	0	0	0	0	0	0	0	0	0	0
070319	12:43:16	12:45:03	106369	5.0.10.0	5_exp_noRW	10	Rpleas_acq	CS_A	LWWL	DXXD	JQQJ	ZHHZ	CPPC	YFFY	sonnig	gütig	küssen	träumen	vertrauen	genießen	sterben	gierig	krank	töten	versagen	gemein	53pct	acq_USpleas_CSpleas2_noRW	acq1_noRW	1	29	0	0	300	300	480	50	0	1	1	blank2r.bmp	0	1	+	0	1	blank2r.bmp	252	1	DXXD	306	3	genießen	559	0	0	0	0	0	0	0	0	0	0	0	0	0	0	0	0	0	0	0	0	0	0	0	0	0	0	0	0	0	0	0	0	0	0	0	0	0	0	0
070319	12:43:16	12:45:05	108288	5.0.10.0	5_exp_noRW	10	Rpleas_acq	CS_A	LWWL	DXXD	JQQJ	ZHHZ	CPPC	YFFY	sonnig	gütig	küssen	träumen	vertrauen	genießen	sterben	gierig	krank	töten	versagen	gemein	47pct	acq_USpleas_CSunple1_noRW	acq1_noRW	1	30	0	0	300	300	755	50	0	1	1	blank2r.bmp	0	1	+	0	1	blank2r.bmp	252	1	JQQJ	306	2	gütig	559	0	0	0	0	0	0	0	0	0	0	0	0	0	0	0	0	0	0	0	0	0	0	0	0	0	0	0	0	0	0	0	0	0	0	0	0	0	0	0
070319	12:43:16	12:45:07	109914	5.0.10.0	5_exp_noRW	10	Rpleas_acq	CS_A	LWWL	DXXD	JQQJ	ZHHZ	CPPC	YFFY	sonnig	gütig	küssen	träumen	vertrauen	genießen	sterben	gierig	krank	töten	versagen	gemein	47pct	acq_USpleas_CSpleas2_noRW	acq1_noRW	1	31	0	0	300	300	447	50	0	1	1	blank2r.bmp	0	1	+	0	1	blank2r.bmp	252	1	DXXD	306	2	vertrauen	559	0	0	0	0	0	0	0	0	0	0	0	0	0	0	0	0	0	0	0	0	0	0	0	0	0	0	0	0	0	0	0	0	0	0	0	0	0	0	0
070319	12:43:16	12:45:08	111740	5.0.10.0	5_exp_noRW	10	Rpleas_acq	CS_A	LWWL	DXXD	JQQJ	ZHHZ	CPPC	YFFY	sonnig	gütig	küssen	träumen	vertrauen	genießen	sterben	gierig	krank	töten	versagen	gemein	47pct	acq_USunple_CSpleas1_noRW	acq1_noRW	1	32	0	0	300	300	647	46	0	1	1	blank2r.bmp	0	1	+	0	1	blank2r.bmp	252	1	LWWL	306	1	sterben	559	0	0	0	0	0	0	0	0	0	0	0	0	0	0	0	0	0	0	0	0	0	0	0	0	0	0	0	0	0	0	0	0	0	0	0	0	0	0	0
070319	12:43:16	12:45:10	113433	5.0.10.0	5_exp_noRW	10	Rpleas_acq	CS_A	LWWL	DXXD	JQQJ	ZHHZ	CPPC	YFFY	sonnig	gütig	küssen	träumen	vertrauen	genießen	sterben	gierig	krank	töten	versagen	gemein	47pct	acq_USpleas_CSpleas1_noRW	acq1_noRW	1	33	0	0	300	300	516	50	0	1	1	blank2r.bmp	0	1	+	0	1	blank2r.bmp	252	1	LWWL	306	3	küssen	559	0	0	0	0	0	0	0	0	0	0	0	0	0	0	0	0	0	0	0	0	0	0	0	0	0	0	0	0	0	0	0	0	0	0	0	0	0	0	0
070319	12:43:16	12:45:12	115126	5.0.10.0	5_exp_noRW	10	Rpleas_acq	CS_A	LWWL	DXXD	JQQJ	ZHHZ	CPPC	YFFY	sonnig	gütig	küssen	träumen	vertrauen	genießen	sterben	gierig	krank	töten	versagen	gemein	47pct	acq_USpleas_CSpleas2_noRW	acq1_noRW	1	34	0	0	300	300	506	50	0	1	1	blank2r.bmp	0	1	+	0	1	blank2r.bmp	252	1	DXXD	306	1	träumen	559	0	0	0	0	0	0	0	0	0	0	0	0	0	0	0	0	0	0	0	0	0	0	0	0	0	0	0	0	0	0	0	0	0	0	0	0	0	0	0
070319	12:43:16	12:45:13	116712	5.0.10.0	5_exp_noRW	10	Rpleas_acq	CS_A	LWWL	DXXD	JQQJ	ZHHZ	CPPC	YFFY	sonnig	gütig	küssen	träumen	vertrauen	genießen	sterben	gierig	krank	töten	versagen	gemein	53pct	acq_USpleas_CSpleas2_noRW	acq1_noRW	1	35	0	0	300	300	418	50	0	1	1	blank2r.bmp	0	1	+	0	1	blank2r.bmp	252	1	DXXD	306	2	vertrauen	559	0	0	0	0	0	0	0	0	0	0	0	0	0	0	0	0	0	0	0	0	0	0	0	0	0	0	0	0	0	0	0	0	0	0	0	0	0	0	0
070319	12:43:16	12:45:15	118444	5.0.10.0	5_exp_noRW	10	Rpleas_acq	CS_A	LWWL	DXXD	JQQJ	ZHHZ	CPPC	YFFY	sonnig	gütig	küssen	träumen	vertrauen	genießen	sterben	gierig	krank	töten	versagen	gemein	53pct	acq_USpleas_CSpleas1_noRW	acq1_noRW	1	36	0	0	300	300	566	50	0	1	1	blank2r.bmp	0	1	+	0	1	blank2r.bmp	252	1	LWWL	306	2	gütig	559	0	0	0	0	0	0	0	0	0	0	0	0	0	0	0	0	0	0	0	0	0	0	0	0	0	0	0	0	0	0	0	0	0	0	0	0	0	0	0
070319	12:43:16	12:45:17	119990	5.0.10.0	5_exp_noRW	10	Rpleas_acq	CS_A	LWWL	DXXD	JQQJ	ZHHZ	CPPC	YFFY	sonnig	gütig	küssen	träumen	vertrauen	genießen	sterben	gierig	krank	töten	versagen	gemein	53pct	acq_USunple_CSpleas2_noRW	acq1_noRW	1	37	0	0	300	300	369	46	0	1	1	blank2r.bmp	0	1	+	0	1	blank2r.bmp	252	1	DXXD	306	1	töten	559	0	0	0	0	0	0	0	0	0	0	0	0	0	0	0	0	0	0	0	0	0	0	0	0	0	0	0	0	0	0	0	0	0	0	0	0	0	0	0
070319	12:43:16	12:45:18	121630	5.0.10.0	5_exp_noRW	10	Rpleas_acq	CS_A	LWWL	DXXD	JQQJ	ZHHZ	CPPC	YFFY	sonnig	gütig	küssen	träumen	vertrauen	genießen	sterben	gierig	krank	töten	versagen	gemein	47pct	acq_USpleas_CSunple2_noRW	acq1_noRW	1	38	0	0	300	300	458	50	0	1	1	blank2r.bmp	0	1	+	0	1	blank2r.bmp	252	1	ZHHZ	306	1	träumen	559	0	0	0	0	0	0	0	0	0	0	0	0	0	0	0	0	0	0	0	0	0	0	0	0	0	0	0	0	0	0	0	0	0	0	0	0	0	0	0
070319	12:43:16	12:45:20	123322	5.0.10.0	5_exp_noRW	10	Rpleas_acq	CS_A	LWWL	DXXD	JQQJ	ZHHZ	CPPC	YFFY	sonnig	gütig	küssen	träumen	vertrauen	genießen	sterben	gierig	krank	töten	versagen	gemein	47pct	acq_USunple_CSunple1_noRW	acq1_noRW	1	39	0	0	300	300	505	46	0	1	1	blank2r.bmp	0	1	+	0	1	blank2r.bmp	252	1	JQQJ	306	3	krank	559	0	0	0	0	0	0	0	0	0	0	0	0	0	0	0	0	0	0	0	0	0	0	0	0	0	0	0	0	0	0	0	0	0	0	0	0	0	0	0
070319	12:43:16	12:45:21	124868	5.0.10.0	5_exp_noRW	10	Rpleas_acq	CS_A	LWWL	DXXD	JQQJ	ZHHZ	CPPC	YFFY	sonnig	gütig	küssen	träumen	vertrauen	genießen	sterben	gierig	krank	töten	versagen	gemein	53pct	acq_USunple_CSunple2_noRW	acq1_noRW	1	40	0	0	300	300	372	46	0	1	1	blank2r.bmp	0	1	+	0	1	blank2r.bmp	252	1	ZHHZ	306	3	gemein	559	0	0	0	0	0	0	0	0	0	0	0	0	0	0	0	0	0	0	0	0	0	0	0	0	0	0	0	0	0	0	0	0	0	0	0	0	0	0	0
070319	12:43:16	12:45:23	126388	5.0.10.0	5_exp_noRW	10	Rpleas_acq	CS_A	LWWL	DXXD	JQQJ	ZHHZ	CPPC	YFFY	sonnig	gütig	küssen	träumen	vertrauen	genießen	sterben	gierig	krank	töten	versagen	gemein	47pct	acq_USpleas_CSpleas1_noRW	acq1_noRW	1	41	0	0	300	300	358	50	0	1	1	blank2r.bmp	0	1	+	0	1	blank2r.bmp	252	1	LWWL	306	1	sonnig	559	0	0	0	0	0	0	0	0	0	0	0	0	0	0	0	0	0	0	0	0	0	0	0	0	0	0	0	0	0	0	0	0	0	0	0	0	0	0	0
070319	12:43:16	12:45:25	128080	5.0.10.0	5_exp_noRW	10	Rpleas_acq	CS_A	LWWL	DXXD	JQQJ	ZHHZ	CPPC	YFFY	sonnig	gütig	küssen	träumen	vertrauen	genießen	sterben	gierig	krank	töten	versagen	gemein	53pct	acq_USunple_CSunple2_noRW	acq1_noRW	1	42	0	0	300	300	515	46	0	1	1	blank2r.bmp	0	1	+	0	1	blank2r.bmp	252	1	ZHHZ	306	2	versagen	559	0	0	0	0	0	0	0	0	0	0	0	0	0	0	0	0	0	0	0	0	0	0	0	0	0	0	0	0	0	0	0	0	0	0	0	0	0	0	0
070319	12:43:16	12:45:26	129693	5.0.10.0	5_exp_noRW	10	Rpleas_acq	CS_A	LWWL	DXXD	JQQJ	ZHHZ	CPPC	YFFY	sonnig	gütig	küssen	träumen	vertrauen	genießen	sterben	gierig	krank	töten	versagen	gemein	53pct	acq_USunple_CSunple1_noRW	acq1_noRW	1	43	0	0	300	300	442	46	0	1	1	blank2r.bmp	0	1	+	0	1	blank2r.bmp	252	1	JQQJ	306	1	sterben	559	0	0	0	0	0	0	0	0	0	0	0	0	0	0	0	0	0	0	0	0	0	0	0	0	0	0	0	0	0	0	0	0	0	0	0	0	0	0	0
070319	12:43:16	12:45:28	131239	5.0.10.0	5_exp_noRW	10	Rpleas_acq	CS_A	LWWL	DXXD	JQQJ	ZHHZ	CPPC	YFFY	sonnig	gütig	küssen	träumen	vertrauen	genießen	sterben	gierig	krank	töten	versagen	gemein	47pct	acq_USpleas_CSpleas1_noRW	acq1_noRW	1	44	0	0	300	300	374	50	0	1	1	blank2r.bmp	0	1	+	0	1	blank2r.bmp	252	1	LWWL	306	1	sonnig	559	0	0	0	0	0	0	0	0	0	0	0	0	0	0	0	0	0	0	0	0	0	0	0	0	0	0	0	0	0	0	0	0	0	0	0	0	0	0	0
070319	12:43:16	12:45:29	132798	5.0.10.0	5_exp_noRW	10	Rpleas_acq	CS_A	LWWL	DXXD	JQQJ	ZHHZ	CPPC	YFFY	sonnig	gütig	küssen	träumen	vertrauen	genießen	sterben	gierig	krank	töten	versagen	gemein	53pct	acq_USunple_CSunple2_noRW	acq1_noRW	1	45	0	0	300	300	377	46	0	1	1	blank2r.bmp	0	1	+	0	1	blank2r.bmp	252	1	ZHHZ	306	2	versagen	559	0	0	0	0	0	0	0	0	0	0	0	0	0	0	0	0	0	0	0	0	0	0	0	0	0	0	0	0	0	0	0	0	0	0	0	0	0	0	0
070319	12:43:16	12:45:31	134877	5.0.10.0	5_exp_noRW	10	Rpleas_acq	CS_A	LWWL	DXXD	JQQJ	ZHHZ	CPPC	YFFY	sonnig	gütig	küssen	träumen	vertrauen	genießen	sterben	gierig	krank	töten	versagen	gemein	53pct	acq_USunple_CSpleas2_noRW	acq1_noRW	1	46	0	0	300	300	682	50	0	0	1	blank2r.bmp	0	1	+	0	1	blank2r.bmp	252	1	DXXD	306	3	gemein	559	1	FEHLER	1279	0	0	0	0	0	0	0	0	0	0	0	0	0	0	0	0	0	0	0	0	0	0	0	0	0	0	0	0	0	0	0	0	0	0	0	0
070319	12:43:16	12:45:33	136344	5.0.10.0	5_exp_noRW	10	Rpleas_acq	CS_A	LWWL	DXXD	JQQJ	ZHHZ	CPPC	YFFY	sonnig	gütig	küssen	träumen	vertrauen	genießen	sterben	gierig	krank	töten	versagen	gemein	53pct	acq_USpleas_CSpleas2_noRW	acq1_noRW	1	47	0	0	300	300	513	50	0	1	1	blank2r.bmp	0	1	+	0	1	blank2r.bmp	252	1	DXXD	306	3	genießen	559	0	0	0	0	0	0	0	0	0	0	0	0	0	0	0	0	0	0	0	0	0	0	0	0	0	0	0	0	0	0	0	0	0	0	0	0	0	0	0
070319	12:43:16	12:45:35	137970	5.0.10.0	5_exp_noRW	10	Rpleas_acq	CS_A	LWWL	DXXD	JQQJ	ZHHZ	CPPC	YFFY	sonnig	gütig	küssen	träumen	vertrauen	genießen	sterben	gierig	krank	töten	versagen	gemein	53pct	acq_USunple_CSpleas1_noRW	acq1_noRW	1	48	0	0	300	300	447	46	0	1	1	blank2r.bmp	0	1	+	0	1	blank2r.bmp	252	1	LWWL	306	2	gierig	559	0	0	0	0	0	0	0	0	0	0	0	0	0	0	0	0	0	0	0	0	0	0	0	0	0	0	0	0	0	0	0	0	0	0	0	0	0	0	0
070319	12:43:16	12:45:37	140049	5.0.10.0	5_exp_noRW	10	Rpleas_acq	CS_A	LWWL	DXXD	JQQJ	ZHHZ	CPPC	YFFY	sonnig	gütig	küssen	träumen	vertrauen	genießen	sterben	gierig	krank	töten	versagen	gemein	47pct	acq_USpleas_CSpleas1_noRW	acq1_noRW	1	49	0	0	300	300	916	50	0	1	1	blank2r.bmp	0	1	+	0	1	blank2r.bmp	252	1	LWWL	306	3	küssen	559	0	0	0	0	0	0	0	0	0	0	0	0	0	0	0	0	0	0	0	0	0	0	0	0	0	0	0	0	0	0	0	0	0	0	0	0	0	0	0
070319	12:43:16	12:45:39	142155	5.0.10.0	5_exp_noRW	10	Rpleas_acq	CS_A	LWWL	DXXD	JQQJ	ZHHZ	CPPC	YFFY	sonnig	gütig	küssen	träumen	vertrauen	genießen	sterben	gierig	krank	töten	versagen	gemein	53pct	acq_USpleas_CSpleas1_noRW	acq1_noRW	1	50	0	0	300	300	711	46	0	0	1	blank2r.bmp	0	1	+	0	1	blank2r.bmp	252	1	LWWL	306	2	gütig	559	1	FEHLER	1306	0	0	0	0	0	0	0	0	0	0	0	0	0	0	0	0	0	0	0	0	0	0	0	0	0	0	0	0	0	0	0	0	0	0	0	0
070319	12:43:16	12:45:40	143541	5.0.10.0	5_exp_noRW	10	Rpleas_acq	CS_A	LWWL	DXXD	JQQJ	ZHHZ	CPPC	YFFY	sonnig	gütig	küssen	träumen	vertrauen	genießen	sterben	gierig	krank	töten	versagen	gemein	53pct	acq_USpleas_CSunple2_noRW	acq1_noRW	1	51	0	0	300	300	424	50	0	1	1	blank2r.bmp	0	1	+	0	1	blank2r.bmp	252	1	ZHHZ	306	3	genießen	559	0	0	0	0	0	0	0	0	0	0	0	0	0	0	0	0	0	0	0	0	0	0	0	0	0	0	0	0	0	0	0	0	0	0	0	0	0	0	0
070319	12:43:16	12:45:42	145633	5.0.10.0	5_exp_noRW	10	Rpleas_acq	CS_A	LWWL	DXXD	JQQJ	ZHHZ	CPPC	YFFY	sonnig	gütig	küssen	träumen	vertrauen	genießen	sterben	gierig	krank	töten	versagen	gemein	47pct	acq_USpleas_CSpleas2_noRW	acq1_noRW	1	52	0	0	300	300	912	50	0	1	1	blank2r.bmp	0	1	+	0	1	blank2r.bmp	252	1	DXXD	306	2	vertrauen	559	0	0	0	0	0	0	0	0	0	0	0	0	0	0	0	0	0	0	0	0	0	0	0	0	0	0	0	0	0	0	0	0	0	0	0	0	0	0	0
070319	12:43:16	12:45:44	147166	5.0.10.0	5_exp_noRW	10	Rpleas_acq	CS_A	LWWL	DXXD	JQQJ	ZHHZ	CPPC	YFFY	sonnig	gütig	küssen	träumen	vertrauen	genießen	sterben	gierig	krank	töten	versagen	gemein	53pct	acq_USunple_CSunple2_noRW	acq1_noRW	1	53	0	0	300	300	358	46	0	1	1	blank2r.bmp	0	1	+	0	1	blank2r.bmp	252	1	ZHHZ	306	1	töten	559	0	0	0	0	0	0	0	0	0	0	0	0	0	0	0	0	0	0	0	0	0	0	0	0	0	0	0	0	0	0	0	0	0	0	0	0	0	0	0
070319	12:43:16	12:45:45	148805	5.0.10.0	5_exp_noRW	10	Rpleas_acq	CS_A	LWWL	DXXD	JQQJ	ZHHZ	CPPC	YFFY	sonnig	gütig	küssen	träumen	vertrauen	genießen	sterben	gierig	krank	töten	versagen	gemein	53pct	acq_USunple_CSunple1_noRW	acq1_noRW	1	54	0	0	300	300	466	46	0	1	1	blank2r.bmp	0	1	+	0	1	blank2r.bmp	252	1	JQQJ	306	1	sterben	559	0	0	0	0	0	0	0	0	0	0	0	0	0	0	0	0	0	0	0	0	0	0	0	0	0	0	0	0	0	0	0	0	0	0	0	0	0	0	0
070319	12:43:16	12:45:47	150378	5.0.10.0	5_exp_noRW	10	Rpleas_acq	CS_A	LWWL	DXXD	JQQJ	ZHHZ	CPPC	YFFY	sonnig	gütig	küssen	träumen	vertrauen	genießen	sterben	gierig	krank	töten	versagen	gemein	53pct	acq_USpleas_CSpleas2_noRW	acq1_noRW	1	55	0	0	300	300	410	50	0	1	1	blank2r.bmp	0	1	+	0	1	blank2r.bmp	252	1	DXXD	306	3	genießen	559	0	0	0	0	0	0	0	0	0	0	0	0	0	0	0	0	0	0	0	0	0	0	0	0	0	0	0	0	0	0	0	0	0	0	0	0	0	0	0
070319	12:43:16	12:45:49	152070	5.0.10.0	5_exp_noRW	10	Rpleas_acq	CS_A	LWWL	DXXD	JQQJ	ZHHZ	CPPC	YFFY	sonnig	gütig	küssen	träumen	vertrauen	genießen	sterben	gierig	krank	töten	versagen	gemein	53pct	acq_USunple_CSunple2_noRW	acq1_noRW	1	56	0	0	300	300	295	50	0	0	1	blank2r.bmp	0	1	+	0	1	blank2r.bmp	252	1	ZHHZ	306	3	gemein	559	1	FEHLER	892	0	0	0	0	0	0	0	0	0	0	0	0	0	0	0	0	0	0	0	0	0	0	0	0	0	0	0	0	0	0	0	0	0	0	0	0
070319	12:43:16	12:45:50	153563	5.0.10.0	5_exp_noRW	10	Rpleas_acq	CS_A	LWWL	DXXD	JQQJ	ZHHZ	CPPC	YFFY	sonnig	gütig	küssen	träumen	vertrauen	genießen	sterben	gierig	krank	töten	versagen	gemein	47pct	acq_USpleas_CSpleas2_noRW	acq1_noRW	1	57	0	0	300	300	541	50	0	1	1	blank2r.bmp	0	1	+	0	1	blank2r.bmp	252	1	DXXD	306	1	träumen	559	0	0	0	0	0	0	0	0	0	0	0	0	0	0	0	0	0	0	0	0	0	0	0	0	0	0	0	0	0	0	0	0	0	0	0	0	0	0	0
070319	12:43:16	12:45:52	155163	5.0.10.0	5_exp_noRW	10	Rpleas_acq	CS_A	LWWL	DXXD	JQQJ	ZHHZ	CPPC	YFFY	sonnig	gütig	küssen	träumen	vertrauen	genießen	sterben	gierig	krank	töten	versagen	gemein	47pct	acq_USunple_CSunple1_noRW	acq1_noRW	1	58	0	0	300	300	420	46	0	1	1	blank2r.bmp	0	1	+	0	1	blank2r.bmp	252	1	JQQJ	306	3	krank	559	0	0	0	0	0	0	0	0	0	0	0	0	0	0	0	0	0	0	0	0	0	0	0	0	0	0	0	0	0	0	0	0	0	0	0	0	0	0	0
070319	12:43:16	12:45:54	156948	5.0.10.0	5_exp_noRW	10	Rpleas_acq	CS_A	LWWL	DXXD	JQQJ	ZHHZ	CPPC	YFFY	sonnig	gütig	küssen	träumen	vertrauen	genießen	sterben	gierig	krank	töten	versagen	gemein	53pct	acq_USunple_CSunple1_noRW	acq1_noRW	1	59	0	0	300	300	405	50	0	0	1	blank2r.bmp	0	1	+	0	1	blank2r.bmp	252	1	JQQJ	306	2	gierig	559	1	FEHLER	999	0	0	0	0	0	0	0	0	0	0	0	0	0	0	0	0	0	0	0	0	0	0	0	0	0	0	0	0	0	0	0	0	0	0	0	0
070319	12:43:16	12:45:55	158415	5.0.10.0	5_exp_noRW	10	Rpleas_acq	CS_A	LWWL	DXXD	JQQJ	ZHHZ	CPPC	YFFY	sonnig	gütig	küssen	träumen	vertrauen	genießen	sterben	gierig	krank	töten	versagen	gemein	47pct	acq_USpleas_CSunple1_noRW	acq1_noRW	1	60	0	0	300	300	506	50	0	1	1	blank2r.bmp	0	1	+	0	1	blank2r.bmp	252	1	JQQJ	306	1	sonnig	559	0	0	0	0	0	0	0	0	0	0	0	0	0	0	0	0	0	0	0	0	0	0	0	0	0	0	0	0	0	0	0	0	0	0	0	0	0	0	0
070319	12:43:16	12:45:57	159987	5.0.10.0	5_exp_noRW	10	Rpleas_acq	CS_A	LWWL	DXXD	JQQJ	ZHHZ	CPPC	YFFY	sonnig	gütig	küssen	träumen	vertrauen	genießen	sterben	gierig	krank	töten	versagen	gemein	47pct	acq_USunple_CSunple1_noRW	acq1_noRW	1	61	0	0	300	300	411	46	0	1	1	blank2r.bmp	0	1	+	0	1	blank2r.bmp	252	1	JQQJ	306	1	sterben	559	0	0	0	0	0	0	0	0	0	0	0	0	0	0	0	0	0	0	0	0	0	0	0	0	0	0	0	0	0	0	0	0	0	0	0	0	0	0	0
070319	12:43:16	12:45:58	161627	5.0.10.0	5_exp_noRW	10	Rpleas_acq	CS_A	LWWL	DXXD	JQQJ	ZHHZ	CPPC	YFFY	sonnig	gütig	küssen	träumen	vertrauen	genießen	sterben	gierig	krank	töten	versagen	gemein	53pct	acq_USpleas_CSpleas2_noRW	acq1_noRW	1	62	0	0	300	300	457	50	0	1	1	blank2r.bmp	0	1	+	0	1	blank2r.bmp	252	1	DXXD	306	2	vertrauen	559	0	0	0	0	0	0	0	0	0	0	0	0	0	0	0	0	0	0	0	0	0	0	0	0	0	0	0	0	0	0	0	0	0	0	0	0	0	0	0
070319	12:43:16	12:46:00	163226	5.0.10.0	5_exp_noRW	10	Rpleas_acq	CS_A	LWWL	DXXD	JQQJ	ZHHZ	CPPC	YFFY	sonnig	gütig	küssen	träumen	vertrauen	genießen	sterben	gierig	krank	töten	versagen	gemein	53pct	acq_USunple_CSunple2_noRW	acq1_noRW	1	63	0	0	300	300	413	46	0	1	1	blank2r.bmp	0	1	+	0	1	blank2r.bmp	252	1	ZHHZ	306	1	töten	559	0	0	0	0	0	0	0	0	0	0	0	0	0	0	0	0	0	0	0	0	0	0	0	0	0	0	0	0	0	0	0	0	0	0	0	0	0	0	0
070319	12:43:16	12:46:01	164879	5.0.10.0	5_exp_noRW	10	Rpleas_acq	CS_A	LWWL	DXXD	JQQJ	ZHHZ	CPPC	YFFY	sonnig	gütig	küssen	träumen	vertrauen	genießen	sterben	gierig	krank	töten	versagen	gemein	47pct	acq_USunple_CSpleas2_noRW	acq1_noRW	1	64	0	0	300	300	485	46	0	1	1	blank2r.bmp	0	1	+	0	1	blank2r.bmp	252	1	DXXD	306	2	versagen	559	0	0	0	0	0	0	0	0	0	0	0	0	0	0	0	0	0	0	0	0	0	0	0	0	0	0	0	0	0	0	0	0	0	0	0	0	0	0	0
070319	12:43:16	12:46:03	166678	5.0.10.0	5_exp_noRW	10	Rpleas_acq	CS_A	LWWL	DXXD	JQQJ	ZHHZ	CPPC	YFFY	sonnig	gütig	küssen	träumen	vertrauen	genießen	sterben	gierig	krank	töten	versagen	gemein	47pct	acq_USpleas_CSpleas1_noRW	acq1_noRW	1	65	0	0	300	300	635	50	0	1	1	blank2r.bmp	0	1	+	0	1	blank2r.bmp	252	1	LWWL	306	2	gütig	559	0	0	0	0	0	0	0	0	0	0	0	0	0	0	0	0	0	0	0	0	0	0	0	0	0	0	0	0	0	0	0	0	0	0	0	0	0	0	0
070319	12:43:16	12:46:05	168264	5.0.10.0	5_exp_noRW	10	Rpleas_acq	CS_A	LWWL	DXXD	JQQJ	ZHHZ	CPPC	YFFY	sonnig	gütig	küssen	träumen	vertrauen	genießen	sterben	gierig	krank	töten	versagen	gemein	53pct	acq_USpleas_CSpleas2_noRW	acq1_noRW	1	66	0	0	300	300	399	50	0	1	1	blank2r.bmp	0	1	+	0	1	blank2r.bmp	252	1	DXXD	306	3	genießen	559	0	0	0	0	0	0	0	0	0	0	0	0	0	0	0	0	0	0	0	0	0	0	0	0	0	0	0	0	0	0	0	0	0	0	0	0	0	0	0
070319	12:43:16	12:46:07	170103	5.0.10.0	5_exp_noRW	10	Rpleas_acq	CS_A	LWWL	DXXD	JQQJ	ZHHZ	CPPC	YFFY	sonnig	gütig	küssen	träumen	vertrauen	genießen	sterben	gierig	krank	töten	versagen	gemein	53pct	acq_USunple_CSunple2_noRW	acq1_noRW	1	67	0	0	300	300	457	50	0	0	1	blank2r.bmp	0	1	+	0	1	blank2r.bmp	252	1	ZHHZ	306	3	gemein	559	1	FEHLER	1052	0	0	0	0	0	0	0	0	0	0	0	0	0	0	0	0	0	0	0	0	0	0	0	0	0	0	0	0	0	0	0	0	0	0	0	0
070319	12:43:16	12:46:08	171609	5.0.10.0	5_exp_noRW	10	Rpleas_acq	CS_A	LWWL	DXXD	JQQJ	ZHHZ	CPPC	YFFY	sonnig	gütig	küssen	träumen	vertrauen	genießen	sterben	gierig	krank	töten	versagen	gemein	47pct	acq_USunple_CSunple1_noRW	acq1_noRW	1	68	0	0	300	300	555	46	0	1	1	blank2r.bmp	0	1	+	0	1	blank2r.bmp	252	1	JQQJ	306	3	krank	559	0	0	0	0	0	0	0	0	0	0	0	0	0	0	0	0	0	0	0	0	0	0	0	0	0	0	0	0	0	0	0	0	0	0	0	0	0	0	0
070319	12:43:16	12:46:10	173488	5.0.10.0	5_exp_noRW	10	Rpleas_acq	CS_A	LWWL	DXXD	JQQJ	ZHHZ	CPPC	YFFY	sonnig	gütig	küssen	träumen	vertrauen	genießen	sterben	gierig	krank	töten	versagen	gemein	53pct	acq_USunple_CSunple2_noRW	acq1_noRW	1	69	0	0	300	300	485	50	0	0	1	blank2r.bmp	0	1	+	0	1	blank2r.bmp	252	1	ZHHZ	306	2	versagen	559	1	FEHLER	1079	0	0	0	0	0	0	0	0	0	0	0	0	0	0	0	0	0	0	0	0	0	0	0	0	0	0	0	0	0	0	0	0	0	0	0	0
070319	12:43:16	12:46:12	175008	5.0.10.0	5_exp_noRW	10	Rpleas_acq	CS_A	LWWL	DXXD	JQQJ	ZHHZ	CPPC	YFFY	sonnig	gütig	küssen	träumen	vertrauen	genießen	sterben	gierig	krank	töten	versagen	gemein	53pct	acq_USunple_CSpleas1_noRW	acq1_noRW	1	70	0	0	300	300	559	46	0	1	1	blank2r.bmp	0	1	+	0	1	blank2r.bmp	252	1	LWWL	306	2	gierig	559	0	0	0	0	0	0	0	0	0	0	0	0	0	0	0	0	0	0	0	0	0	0	0	0	0	0	0	0	0	0	0	0	0	0	0	0	0	0	0
070319	12:43:16	12:46:13	176820	5.0.10.0	5_exp_noRW	10	Rpleas_acq	CS_A	LWWL	DXXD	JQQJ	ZHHZ	CPPC	YFFY	sonnig	gütig	küssen	träumen	vertrauen	genießen	sterben	gierig	krank	töten	versagen	gemein	47pct	acq_USpleas_CSunple1_noRW	acq1_noRW	1	71	0	0	300	300	646	50	0	1	1	blank2r.bmp	0	1	+	0	1	blank2r.bmp	252	1	JQQJ	306	2	gütig	559	0	0	0	0	0	0	0	0	0	0	0	0	0	0	0	0	0	0	0	0	0	0	0	0	0	0	0	0	0	0	0	0	0	0	0	0	0	0	0
070319	12:43:16	12:46:15	178473	5.0.10.0	5_exp_noRW	10	Rpleas_acq	CS_A	LWWL	DXXD	JQQJ	ZHHZ	CPPC	YFFY	sonnig	gütig	küssen	träumen	vertrauen	genießen	sterben	gierig	krank	töten	versagen	gemein	53pct	acq_USpleas_CSpleas1_noRW	acq1_noRW	1	72	0	0	300	300	478	50	0	1	1	blank2r.bmp	0	1	+	0	1	blank2r.bmp	252	1	LWWL	306	1	sonnig	559	0	0	0	0	0	0	0	0	0	0	0	0	0	0	0	0	0	0	0	0	0	0	0	0	0	0	0	0	0	0	0	0	0	0	0	0	0	0	0
070319	12:43:16	12:46:17	180232	5.0.10.0	5_exp_noRW	10	Rpleas_acq	CS_A	LWWL	DXXD	JQQJ	ZHHZ	CPPC	YFFY	sonnig	gütig	küssen	träumen	vertrauen	genießen	sterben	gierig	krank	töten	versagen	gemein	53pct	acq_USpleas_CSpleas1_noRW	acq1_noRW	1	73	0	0	300	300	583	50	0	1	1	blank2r.bmp	0	1	+	0	1	blank2r.bmp	252	1	LWWL	306	3	küssen	559	0	0	0	0	0	0	0	0	0	0	0	0	0	0	0	0	0	0	0	0	0	0	0	0	0	0	0	0	0	0	0	0	0	0	0	0	0	0	0
070319	12:43:16	12:46:18	181872	5.0.10.0	5_exp_noRW	10	Rpleas_acq	CS_A	LWWL	DXXD	JQQJ	ZHHZ	CPPC	YFFY	sonnig	gütig	küssen	träumen	vertrauen	genießen	sterben	gierig	krank	töten	versagen	gemein	47pct	acq_USpleas_CSpleas2_noRW	acq1_noRW	1	74	0	0	300	300	462	50	0	1	1	blank2r.bmp	0	1	+	0	1	blank2r.bmp	252	1	DXXD	306	1	träumen	559	0	0	0	0	0	0	0	0	0	0	0	0	0	0	0	0	0	0	0	0	0	0	0	0	0	0	0	0	0	0	0	0	0	0	0	0	0	0	0
070319	12:43:16	12:46:20	183524	5.0.10.0	5_exp_noRW	10	Rpleas_acq	CS_A	LWWL	DXXD	JQQJ	ZHHZ	CPPC	YFFY	sonnig	gütig	küssen	träumen	vertrauen	genießen	sterben	gierig	krank	töten	versagen	gemein	47pct	acq_USpleas_CSunple2_noRW	acq1_noRW	1	75	0	0	300	300	468	50	0	1	1	blank2r.bmp	0	1	+	0	1	blank2r.bmp	252	1	ZHHZ	306	3	genießen	559	0	0	0	0	0	0	0	0	0	0	0	0	0	0	0	0	0	0	0	0	0	0	0	0	0	0	0	0	0	0	0	0	0	0	0	0	0	0	0
070319	12:43:16	12:46:22	185124	5.0.10.0	5_exp_noRW	10	Rpleas_acq	CS_A	LWWL	DXXD	JQQJ	ZHHZ	CPPC	YFFY	sonnig	gütig	küssen	träumen	vertrauen	genießen	sterben	gierig	krank	töten	versagen	gemein	47pct	acq_USpleas_CSpleas2_noRW	acq1_noRW	1	76	0	0	300	300	430	50	0	1	1	blank2r.bmp	0	1	+	0	1	blank2r.bmp	252	1	DXXD	306	3	genießen	559	0	0	0	0	0	0	0	0	0	0	0	0	0	0	0	0	0	0	0	0	0	0	0	0	0	0	0	0	0	0	0	0	0	0	0	0	0	0	0
070319	12:43:16	12:46:24	186910	5.0.10.0	5_exp_noRW	10	Rpleas_acq	CS_A	LWWL	DXXD	JQQJ	ZHHZ	CPPC	YFFY	sonnig	gütig	küssen	träumen	vertrauen	genießen	sterben	gierig	krank	töten	versagen	gemein	47pct	acq_USunple_CSunple2_noRW	acq1_noRW	1	77	0	0	300	300	608	46	0	1	1	blank2r.bmp	0	1	+	0	1	blank2r.bmp	252	1	ZHHZ	306	1	töten	559	0	0	0	0	0	0	0	0	0	0	0	0	0	0	0	0	0	0	0	0	0	0	0	0	0	0	0	0	0	0	0	0	0	0	0	0	0	0	0
070319	12:43:16	12:46:26	188949	5.0.10.0	5_exp_noRW	10	Rpleas_acq	CS_A	LWWL	DXXD	JQQJ	ZHHZ	CPPC	YFFY	sonnig	gütig	küssen	träumen	vertrauen	genießen	sterben	gierig	krank	töten	versagen	gemein	53pct	acq_USpleas_CSpleas1_noRW	acq1_noRW	1	78	0	0	300	300	639	46	0	0	1	blank2r.bmp	0	1	+	0	1	blank2r.bmp	252	1	LWWL	306	2	gütig	559	1	FEHLER	1239	0	0	0	0	0	0	0	0	0	0	0	0	0	0	0	0	0	0	0	0	0	0	0	0	0	0	0	0	0	0	0	0	0	0	0	0
070319	12:43:16	12:46:27	190641	5.0.10.0	5_exp_noRW	10	Rpleas_acq	CS_A	LWWL	DXXD	JQQJ	ZHHZ	CPPC	YFFY	sonnig	gütig	küssen	träumen	vertrauen	genießen	sterben	gierig	krank	töten	versagen	gemein	53pct	acq_USunple_CSunple1_noRW	acq1_noRW	1	79	0	0	300	300	733	46	0	1	1	blank2r.bmp	0	1	+	0	1	blank2r.bmp	252	1	JQQJ	306	2	gierig	559	0	0	0	0	0	0	0	0	0	0	0	0	0	0	0	0	0	0	0	0	0	0	0	0	0	0	0	0	0	0	0	0	0	0	0	0	0	0	0
070319	12:43:16	12:46:29	192307	5.0.10.0	5_exp_noRW	10	Rpleas_acq	CS_A	LWWL	DXXD	JQQJ	ZHHZ	CPPC	YFFY	sonnig	gütig	küssen	träumen	vertrauen	genießen	sterben	gierig	krank	töten	versagen	gemein	47pct	acq_USunple_CSunple1_noRW	acq1_noRW	1	80	0	0	300	300	497	46	0	1	1	blank2r.bmp	0	1	+	0	1	blank2r.bmp	252	1	JQQJ	306	2	gierig	559	0	0	0	0	0	0	0	0	0	0	0	0	0	0	0	0	0	0	0	0	0	0	0	0	0	0	0	0	0	0	0	0	0	0	0	0	0	0	0
070319	12:43:16	12:46:44	207421	5.0.10.0	5_exp_noRW	10	Rpleas_acq	CS_A	LWWL	DXXD	JQQJ	ZHHZ	CPPC	YFFY	sonnig	gütig	küssen	träumen	vertrauen	genießen	sterben	gierig	krank	töten	versagen	gemein	53pct	acq_USunple_CSpleas1_noRW	acq23456_noRW	2	1	0	0	300	300	1562	46	0	1	1	blank2r.bmp	0	1	+	0	1	blank2r.bmp	252	1	LWWL	306	1	sterben	559	0	0	0	0	0	0	0	0	0	0	0	0	0	0	0	0	0	0	0	0	0	0	0	0	0	0	0	0	0	0	0	0	0	0	0	0	0	0	0
070319	12:43:16	12:46:46	209594	5.0.10.0	5_exp_noRW	10	Rpleas_acq	CS_A	LWWL	DXXD	JQQJ	ZHHZ	CPPC	YFFY	sonnig	gütig	küssen	träumen	vertrauen	genießen	sterben	gierig	krank	töten	versagen	gemein	53pct	acq_USunple_CSunple1_noRW	acq23456_noRW	2	2	0	0	300	300	998	46	0	1	1	blank2r.bmp	0	1	+	0	1	blank2r.bmp	252	1	JQQJ	306	1	sterben	559	0	0	0	0	0	0	0	0	0	0	0	0	0	0	0	0	0	0	0	0	0	0	0	0	0	0	0	0	0	0	0	0	0	0	0	0	0	0	0
070319	12:43:16	12:46:49	211939	5.0.10.0	5_exp_noRW	10	Rpleas_acq	CS_A	LWWL	DXXD	JQQJ	ZHHZ	CPPC	YFFY	sonnig	gütig	küssen	träumen	vertrauen	genießen	sterben	gierig	krank	töten	versagen	gemein	47pct	acq_USpleas_CSpleas1_noRW	acq23456_noRW	2	3	0	0	300	300	1177	50	0	1	1	blank2r.bmp	0	1	+	0	1	blank2r.bmp	252	1	LWWL	306	3	küssen	559	0	0	0	0	0	0	0	0	0	0	0	0	0	0	0	0	0	0	0	0	0	0	0	0	0	0	0	0	0	0	0	0	0	0	0	0	0	0	0
070319	12:43:16	12:46:50	213859	5.0.10.0	5_exp_noRW	10	Rpleas_acq	CS_A	LWWL	DXXD	JQQJ	ZHHZ	CPPC	YFFY	sonnig	gütig	küssen	träumen	vertrauen	genießen	sterben	gierig	krank	töten	versagen	gemein	47pct	acq_USpleas_CSpleas1_noRW	acq23456_noRW	2	4	0	0	300	300	737	50	0	1	1	blank2r.bmp	0	1	+	0	1	blank2r.bmp	252	1	LWWL	306	1	sonnig	559	0	0	0	0	0	0	0	0	0	0	0	0	0	0	0	0	0	0	0	0	0	0	0	0	0	0	0	0	0	0	0	0	0	0	0	0	0	0	0
070319	12:43:16	12:46:52	215565	5.0.10.0	5_exp_noRW	10	Rpleas_acq	CS_A	LWWL	DXXD	JQQJ	ZHHZ	CPPC	YFFY	sonnig	gütig	küssen	träumen	vertrauen	genießen	sterben	gierig	krank	töten	versagen	gemein	53pct	acq_USpleas_CSpleas2_noRW	acq23456_noRW	2	5	0	0	300	300	525	50	0	1	1	blank2r.bmp	0	1	+	0	1	blank2r.bmp	252	1	DXXD	306	1	träumen	559	0	0	0	0	0	0	0	0	0	0	0	0	0	0	0	0	0	0	0	0	0	0	0	0	0	0	0	0	0	0	0	0	0	0	0	0	0	0	0
070319	12:43:16	12:46:54	217257	5.0.10.0	5_exp_noRW	10	Rpleas_acq	CS_A	LWWL	DXXD	JQQJ	ZHHZ	CPPC	YFFY	sonnig	gütig	küssen	träumen	vertrauen	genießen	sterben	gierig	krank	töten	versagen	gemein	53pct	acq_USunple_CSunple2_noRW	acq23456_noRW	2	6	0	0	300	300	519	46	0	1	1	blank2r.bmp	0	1	+	0	1	blank2r.bmp	252	1	ZHHZ	306	2	versagen	559	0	0	0	0	0	0	0	0	0	0	0	0	0	0	0	0	0	0	0	0	0	0	0	0	0	0	0	0	0	0	0	0	0	0	0	0	0	0	0
070319	12:43:16	12:46:56	219550	5.0.10.0	5_exp_noRW	10	Rpleas_acq	CS_A	LWWL	DXXD	JQQJ	ZHHZ	CPPC	YFFY	sonnig	gütig	küssen	träumen	vertrauen	genießen	sterben	gierig	krank	töten	versagen	gemein	47pct	acq_USunple_CSunple2_noRW	acq23456_noRW	2	7	0	0	300	300	1129	46	0	1	1	blank2r.bmp	0	1	+	0	1	blank2r.bmp	252	1	ZHHZ	306	3	gemein	559	0	0	0	0	0	0	0	0	0	0	0	0	0	0	0	0	0	0	0	0	0	0	0	0	0	0	0	0	0	0	0	0	0	0	0	0	0	0	0
070319	12:43:16	12:46:58	221216	5.0.10.0	5_exp_noRW	10	Rpleas_acq	CS_A	LWWL	DXXD	JQQJ	ZHHZ	CPPC	YFFY	sonnig	gütig	küssen	träumen	vertrauen	genießen	sterben	gierig	krank	töten	versagen	gemein	47pct	acq_USpleas_CSunple1_noRW	acq23456_noRW	2	8	0	0	300	300	487	50	0	1	1	blank2r.bmp	0	1	+	0	1	blank2r.bmp	252	1	JQQJ	306	3	küssen	559	0	0	0	0	0	0	0	0	0	0	0	0	0	0	0	0	0	0	0	0	0	0	0	0	0	0	0	0	0	0	0	0	0	0	0	0	0	0	0
070319	12:43:16	12:46:59	222775	5.0.10.0	5_exp_noRW	10	Rpleas_acq	CS_A	LWWL	DXXD	JQQJ	ZHHZ	CPPC	YFFY	sonnig	gütig	küssen	träumen	vertrauen	genießen	sterben	gierig	krank	töten	versagen	gemein	47pct	acq_USpleas_CSunple2_noRW	acq23456_noRW	2	9	0	0	300	300	373	50	0	1	1	blank2r.bmp	0	1	+	0	1	blank2r.bmp	252	1	ZHHZ	306	1	träumen	559	0	0	0	0	0	0	0	0	0	0	0	0	0	0	0	0	0	0	0	0	0	0	0	0	0	0	0	0	0	0	0	0	0	0	0	0	0	0	0
070319	12:43:16	12:47:01	224308	5.0.10.0	5_exp_noRW	10	Rpleas_acq	CS_A	LWWL	DXXD	JQQJ	ZHHZ	CPPC	YFFY	sonnig	gütig	küssen	träumen	vertrauen	genießen	sterben	gierig	krank	töten	versagen	gemein	53pct	acq_USunple_CSunple1_noRW	acq23456_noRW	2	10	0	0	300	300	358	46	0	1	1	blank2r.bmp	0	1	+	0	1	blank2r.bmp	252	1	JQQJ	306	3	krank	559	0	0	0	0	0	0	0	0	0	0	0	0	0	0	0	0	0	0	0	0	0	0	0	0	0	0	0	0	0	0	0	0	0	0	0	0	0	0	0
070319	12:43:16	12:47:03	226200	5.0.10.0	5_exp_noRW	10	Rpleas_acq	CS_A	LWWL	DXXD	JQQJ	ZHHZ	CPPC	YFFY	sonnig	gütig	küssen	träumen	vertrauen	genießen	sterben	gierig	krank	töten	versagen	gemein	47pct	acq_USpleas_CSpleas2_noRW	acq23456_noRW	2	11	0	0	300	300	724	50	0	1	1	blank2r.bmp	0	1	+	0	1	blank2r.bmp	252	1	DXXD	306	2	vertrauen	559	0	0	0	0	0	0	0	0	0	0	0	0	0	0	0	0	0	0	0	0	0	0	0	0	0	0	0	0	0	0	0	0	0	0	0	0	0	0	0
070319	12:43:16	12:47:05	228506	5.0.10.0	5_exp_noRW	10	Rpleas_acq	CS_A	LWWL	DXXD	JQQJ	ZHHZ	CPPC	YFFY	sonnig	gütig	küssen	träumen	vertrauen	genießen	sterben	gierig	krank	töten	versagen	gemein	53pct	acq_USpleas_CSpleas1_noRW	acq23456_noRW	2	12	0	0	300	300	1126	50	0	1	1	blank2r.bmp	0	1	+	0	1	blank2r.bmp	252	1	LWWL	306	1	sonnig	559	0	0	0	0	0	0	0	0	0	0	0	0	0	0	0	0	0	0	0	0	0	0	0	0	0	0	0	0	0	0	0	0	0	0	0	0	0	0	0
070319	12:43:16	12:47:07	230132	5.0.10.0	5_exp_noRW	10	Rpleas_acq	CS_A	LWWL	DXXD	JQQJ	ZHHZ	CPPC	YFFY	sonnig	gütig	küssen	träumen	vertrauen	genießen	sterben	gierig	krank	töten	versagen	gemein	53pct	acq_USunple_CSunple2_noRW	acq23456_noRW	2	13	0	0	300	300	438	46	0	1	1	blank2r.bmp	0	1	+	0	1	blank2r.bmp	252	1	ZHHZ	306	3	gemein	559	0	0	0	0	0	0	0	0	0	0	0	0	0	0	0	0	0	0	0	0	0	0	0	0	0	0	0	0	0	0	0	0	0	0	0	0	0	0	0
070319	12:43:16	12:47:08	231851	5.0.10.0	5_exp_noRW	10	Rpleas_acq	CS_A	LWWL	DXXD	JQQJ	ZHHZ	CPPC	YFFY	sonnig	gütig	küssen	träumen	vertrauen	genießen	sterben	gierig	krank	töten	versagen	gemein	53pct	acq_USpleas_CSpleas2_noRW	acq23456_noRW	2	14	0	0	300	300	548	50	0	1	1	blank2r.bmp	0	1	+	0	1	blank2r.bmp	252	1	DXXD	306	3	genießen	559	0	0	0	0	0	0	0	0	0	0	0	0	0	0	0	0	0	0	0	0	0	0	0	0	0	0	0	0	0	0	0	0	0	0	0	0	0	0	0
070319	12:43:16	12:47:11	234130	5.0.10.0	5_exp_noRW	10	Rpleas_acq	CS_A	LWWL	DXXD	JQQJ	ZHHZ	CPPC	YFFY	sonnig	gütig	küssen	träumen	vertrauen	genießen	sterben	gierig	krank	töten	versagen	gemein	47pct	acq_USunple_CSunple2_noRW	acq23456_noRW	2	15	0	0	300	300	1113	46	0	1	1	blank2r.bmp	0	1	+	0	1	blank2r.bmp	252	1	ZHHZ	306	2	versagen	559	0	0	0	0	0	0	0	0	0	0	0	0	0	0	0	0	0	0	0	0	0	0	0	0	0	0	0	0	0	0	0	0	0	0	0	0	0	0	0
070319	12:43:16	12:47:13	236303	5.0.10.0	5_exp_noRW	10	Rpleas_acq	CS_A	LWWL	DXXD	JQQJ	ZHHZ	CPPC	YFFY	sonnig	gütig	küssen	träumen	vertrauen	genießen	sterben	gierig	krank	töten	versagen	gemein	47pct	acq_USpleas_CSpleas2_noRW	acq23456_noRW	2	16	0	0	300	300	987	50	0	1	1	blank2r.bmp	0	1	+	0	1	blank2r.bmp	252	1	DXXD	306	1	träumen	559	0	0	0	0	0	0	0	0	0	0	0	0	0	0	0	0	0	0	0	0	0	0	0	0	0	0	0	0	0	0	0	0	0	0	0	0	0	0	0
070319	12:43:16	12:47:15	237902	5.0.10.0	5_exp_noRW	10	Rpleas_acq	CS_A	LWWL	DXXD	JQQJ	ZHHZ	CPPC	YFFY	sonnig	gütig	küssen	träumen	vertrauen	genießen	sterben	gierig	krank	töten	versagen	gemein	53pct	acq_USunple_CSpleas2_noRW	acq23456_noRW	2	17	0	0	300	300	429	46	0	1	1	blank2r.bmp	0	1	+	0	1	blank2r.bmp	252	1	DXXD	306	1	töten	559	0	0	0	0	0	0	0	0	0	0	0	0	0	0	0	0	0	0	0	0	0	0	0	0	0	0	0	0	0	0	0	0	0	0	0	0	0	0	0
070319	12:43:16	12:47:16	239821	5.0.10.0	5_exp_noRW	10	Rpleas_acq	CS_A	LWWL	DXXD	JQQJ	ZHHZ	CPPC	YFFY	sonnig	gütig	küssen	träumen	vertrauen	genießen	sterben	gierig	krank	töten	versagen	gemein	53pct	acq_USpleas_CSpleas1_noRW	acq23456_noRW	2	18	0	0	300	300	541	46	0	0	1	blank2r.bmp	0	1	+	0	1	blank2r.bmp	252	1	LWWL	306	2	gütig	559	1	FEHLER	1132	0	0	0	0	0	0	0	0	0	0	0	0	0	0	0	0	0	0	0	0	0	0	0	0	0	0	0	0	0	0	0	0	0	0	0	0
070319	12:43:16	12:47:18	241287	5.0.10.0	5_exp_noRW	10	Rpleas_acq	CS_A	LWWL	DXXD	JQQJ	ZHHZ	CPPC	YFFY	sonnig	gütig	küssen	träumen	vertrauen	genießen	sterben	gierig	krank	töten	versagen	gemein	53pct	acq_USunple_CSunple1_noRW	acq23456_noRW	2	19	0	0	300	300	494	46	0	1	1	blank2r.bmp	0	1	+	0	1	blank2r.bmp	252	1	JQQJ	306	2	gierig	559	0	0	0	0	0	0	0	0	0	0	0	0	0	0	0	0	0	0	0	0	0	0	0	0	0	0	0	0	0	0	0	0	0	0	0	0	0	0	0
070319	12:43:16	12:47:20	242927	5.0.10.0	5_exp_noRW	10	Rpleas_acq	CS_A	LWWL	DXXD	JQQJ	ZHHZ	CPPC	YFFY	sonnig	gütig	küssen	träumen	vertrauen	genießen	sterben	gierig	krank	töten	versagen	gemein	53pct	acq_USunple_CSunple1_noRW	acq23456_noRW	2	20	0	0	300	300	469	46	0	1	1	blank2r.bmp	0	1	+	0	1	blank2r.bmp	252	1	JQQJ	306	1	sterben	559	0	0	0	0	0	0	0	0	0	0	0	0	0	0	0	0	0	0	0	0	0	0	0	0	0	0	0	0	0	0	0	0	0	0	0	0	0	0	0
070319	12:43:16	12:47:21	244526	5.0.10.0	5_exp_noRW	10	Rpleas_acq	CS_A	LWWL	DXXD	JQQJ	ZHHZ	CPPC	YFFY	sonnig	gütig	küssen	träumen	vertrauen	genießen	sterben	gierig	krank	töten	versagen	gemein	53pct	acq_USpleas_CSpleas1_noRW	acq23456_noRW	2	21	0	0	300	300	425	50	0	1	1	blank2r.bmp	0	1	+	0	1	blank2r.bmp	252	1	LWWL	306	3	küssen	559	0	0	0	0	0	0	0	0	0	0	0	0	0	0	0	0	0	0	0	0	0	0	0	0	0	0	0	0	0	0	0	0	0	0	0	0	0	0	0
070319	12:43:16	12:47:23	246085	5.0.10.0	5_exp_noRW	10	Rpleas_acq	CS_A	LWWL	DXXD	JQQJ	ZHHZ	CPPC	YFFY	sonnig	gütig	küssen	träumen	vertrauen	genießen	sterben	gierig	krank	töten	versagen	gemein	47pct	acq_USpleas_CSpleas1_noRW	acq23456_noRW	2	22	0	0	300	300	386	50	0	1	1	blank2r.bmp	0	1	+	0	1	blank2r.bmp	252	1	LWWL	306	3	küssen	559	0	0	0	0	0	0	0	0	0	0	0	0	0	0	0	0	0	0	0	0	0	0	0	0	0	0	0	0	0	0	0	0	0	0	0	0	0	0	0
070319	12:43:16	12:47:24	247831	5.0.10.0	5_exp_noRW	10	Rpleas_acq	CS_A	LWWL	DXXD	JQQJ	ZHHZ	CPPC	YFFY	sonnig	gütig	küssen	träumen	vertrauen	genießen	sterben	gierig	krank	töten	versagen	gemein	47pct	acq_USpleas_CSpleas2_noRW	acq23456_noRW	2	23	0	0	300	300	581	50	0	1	1	blank2r.bmp	0	1	+	0	1	blank2r.bmp	252	1	DXXD	306	2	vertrauen	559	0	0	0	0	0	0	0	0	0	0	0	0	0	0	0	0	0	0	0	0	0	0	0	0	0	0	0	0	0	0	0	0	0	0	0	0	0	0	0
070319	12:43:16	12:47:26	249591	5.0.10.0	5_exp_noRW	10	Rpleas_acq	CS_A	LWWL	DXXD	JQQJ	ZHHZ	CPPC	YFFY	sonnig	gütig	küssen	träumen	vertrauen	genießen	sterben	gierig	krank	töten	versagen	gemein	47pct	acq_USunple_CSunple1_noRW	acq23456_noRW	2	24	0	0	300	300	576	46	0	1	1	blank2r.bmp	0	1	+	0	1	blank2r.bmp	252	1	JQQJ	306	3	krank	559	0	0	0	0	0	0	0	0	0	0	0	0	0	0	0	0	0	0	0	0	0	0	0	0	0	0	0	0	0	0	0	0	0	0	0	0	0	0	0
070319	12:43:16	12:47:28	251230	5.0.10.0	5_exp_noRW	10	Rpleas_acq	CS_A	LWWL	DXXD	JQQJ	ZHHZ	CPPC	YFFY	sonnig	gütig	küssen	träumen	vertrauen	genießen	sterben	gierig	krank	töten	versagen	gemein	47pct	acq_USpleas_CSunple1_noRW	acq23456_noRW	2	25	0	0	300	300	475	50	0	1	1	blank2r.bmp	0	1	+	0	1	blank2r.bmp	252	1	JQQJ	306	1	sonnig	559	0	0	0	0	0	0	0	0	0	0	0	0	0	0	0	0	0	0	0	0	0	0	0	0	0	0	0	0	0	0	0	0	0	0	0	0	0	0	0
070319	12:43:16	12:47:30	252936	5.0.10.0	5_exp_noRW	10	Rpleas_acq	CS_A	LWWL	DXXD	JQQJ	ZHHZ	CPPC	YFFY	sonnig	gütig	küssen	träumen	vertrauen	genießen	sterben	gierig	krank	töten	versagen	gemein	53pct	acq_USunple_CSunple1_noRW	acq23456_noRW	2	26	0	0	300	300	530	46	0	1	1	blank2r.bmp	0	1	+	0	1	blank2r.bmp	252	1	JQQJ	306	1	sterben	559	0	0	0	0	0	0	0	0	0	0	0	0	0	0	0	0	0	0	0	0	0	0	0	0	0	0	0	0	0	0	0	0	0	0	0	0	0	0	0
070319	12:43:16	12:47:31	254895	5.0.10.0	5_exp_noRW	10	Rpleas_acq	CS_A	LWWL	DXXD	JQQJ	ZHHZ	CPPC	YFFY	sonnig	gütig	küssen	träumen	vertrauen	genießen	sterben	gierig	krank	töten	versagen	gemein	53pct	acq_USpleas_CSpleas2_noRW	acq23456_noRW	2	27	0	0	300	300	778	50	0	1	1	blank2r.bmp	0	1	+	0	1	blank2r.bmp	252	1	DXXD	306	3	genießen	559	0	0	0	0	0	0	0	0	0	0	0	0	0	0	0	0	0	0	0	0	0	0	0	0	0	0	0	0	0	0	0	0	0	0	0	0	0	0	0
070319	12:43:16	12:47:33	256681	5.0.10.0	5_exp_noRW	10	Rpleas_acq	CS_A	LWWL	DXXD	JQQJ	ZHHZ	CPPC	YFFY	sonnig	gütig	küssen	träumen	vertrauen	genießen	sterben	gierig	krank	töten	versagen	gemein	47pct	acq_USunple_CSunple2_noRW	acq23456_noRW	2	28	0	0	300	300	617	46	0	1	1	blank2r.bmp	0	1	+	0	1	blank2r.bmp	252	1	ZHHZ	306	1	töten	559	0	0	0	0	0	0	0	0	0	0	0	0	0	0	0	0	0	0	0	0	0	0	0	0	0	0	0	0	0	0	0	0	0	0	0	0	0	0	0
070319	12:43:16	12:47:36	258920	5.0.10.0	5_exp_noRW	10	Rpleas_acq	CS_A	LWWL	DXXD	JQQJ	ZHHZ	CPPC	YFFY	sonnig	gütig	küssen	träumen	vertrauen	genießen	sterben	gierig	krank	töten	versagen	gemein	47pct	acq_USpleas_CSpleas2_noRW	acq23456_noRW	2	29	0	0	300	300	1058	50	0	1	1	blank2r.bmp	0	1	+	0	1	blank2r.bmp	252	1	DXXD	306	1	träumen	559	0	0	0	0	0	0	0	0	0	0	0	0	0	0	0	0	0	0	0	0	0	0	0	0	0	0	0	0	0	0	0	0	0	0	0	0	0	0	0
070319	12:43:16	12:47:37	260546	5.0.10.0	5_exp_noRW	10	Rpleas_acq	CS_A	LWWL	DXXD	JQQJ	ZHHZ	CPPC	YFFY	sonnig	gütig	küssen	träumen	vertrauen	genießen	sterben	gierig	krank	töten	versagen	gemein	47pct	acq_USunple_CSunple2_noRW	acq23456_noRW	2	30	0	0	300	300	448	46	0	1	1	blank2r.bmp	0	1	+	0	1	blank2r.bmp	252	1	ZHHZ	306	1	töten	559	0	0	0	0	0	0	0	0	0	0	0	0	0	0	0	0	0	0	0	0	0	0	0	0	0	0	0	0	0	0	0	0	0	0	0	0	0	0	0
070319	12:43:16	12:47:39	262652	5.0.10.0	5_exp_noRW	10	Rpleas_acq	CS_A	LWWL	DXXD	JQQJ	ZHHZ	CPPC	YFFY	sonnig	gütig	küssen	träumen	vertrauen	genießen	sterben	gierig	krank	töten	versagen	gemein	53pct	acq_USpleas_CSunple2_noRW	acq23456_noRW	2	31	0	0	300	300	923	50	0	1	1	blank2r.bmp	0	1	+	0	1	blank2r.bmp	252	1	ZHHZ	306	2	vertrauen	559	0	0	0	0	0	0	0	0	0	0	0	0	0	0	0	0	0	0	0	0	0	0	0	0	0	0	0	0	0	0	0	0	0	0	0	0	0	0	0
070319	12:43:16	12:47:41	264331	5.0.10.0	5_exp_noRW	10	Rpleas_acq	CS_A	LWWL	DXXD	JQQJ	ZHHZ	CPPC	YFFY	sonnig	gütig	küssen	träumen	vertrauen	genießen	sterben	gierig	krank	töten	versagen	gemein	53pct	acq_USunple_CSpleas2_noRW	acq23456_noRW	2	32	0	0	300	300	503	46	0	1	1	blank2r.bmp	0	1	+	0	1	blank2r.bmp	252	1	DXXD	306	3	gemein	559	0	0	0	0	0	0	0	0	0	0	0	0	0	0	0	0	0	0	0	0	0	0	0	0	0	0	0	0	0	0	0	0	0	0	0	0	0	0	0
070319	12:43:16	12:47:43	266037	5.0.10.0	5_exp_noRW	10	Rpleas_acq	CS_A	LWWL	DXXD	JQQJ	ZHHZ	CPPC	YFFY	sonnig	gütig	küssen	träumen	vertrauen	genießen	sterben	gierig	krank	töten	versagen	gemein	53pct	acq_USpleas_CSpleas1_noRW	acq23456_noRW	2	33	0	0	300	300	528	50	0	1	1	blank2r.bmp	0	1	+	0	1	blank2r.bmp	252	1	LWWL	306	1	sonnig	559	0	0	0	0	0	0	0	0	0	0	0	0	0	0	0	0	0	0	0	0	0	0	0	0	0	0	0	0	0	0	0	0	0	0	0	0	0	0	0
070319	12:43:16	12:47:44	267810	5.0.10.0	5_exp_noRW	10	Rpleas_acq	CS_A	LWWL	DXXD	JQQJ	ZHHZ	CPPC	YFFY	sonnig	gütig	küssen	träumen	vertrauen	genießen	sterben	gierig	krank	töten	versagen	gemein	53pct	acq_USunple_CSunple1_noRW	acq23456_noRW	2	34	0	0	300	300	587	46	0	1	1	blank2r.bmp	0	1	+	0	1	blank2r.bmp	252	1	JQQJ	306	3	krank	559	0	0	0	0	0	0	0	0	0	0	0	0	0	0	0	0	0	0	0	0	0	0	0	0	0	0	0	0	0	0	0	0	0	0	0	0	0	0	0
070319	12:43:16	12:47:46	269649	5.0.10.0	5_exp_noRW	10	Rpleas_acq	CS_A	LWWL	DXXD	JQQJ	ZHHZ	CPPC	YFFY	sonnig	gütig	küssen	träumen	vertrauen	genießen	sterben	gierig	krank	töten	versagen	gemein	47pct	acq_USunple_CSunple1_noRW	acq23456_noRW	2	35	0	0	300	300	454	50	0	0	1	blank2r.bmp	0	1	+	0	1	blank2r.bmp	252	1	JQQJ	306	2	gierig	559	1	FEHLER	1052	0	0	0	0	0	0	0	0	0	0	0	0	0	0	0	0	0	0	0	0	0	0	0	0	0	0	0	0	0	0	0	0	0	0	0	0
070319	12:43:16	12:47:48	271515	5.0.10.0	5_exp_noRW	10	Rpleas_acq	CS_A	LWWL	DXXD	JQQJ	ZHHZ	CPPC	YFFY	sonnig	gütig	küssen	träumen	vertrauen	genießen	sterben	gierig	krank	töten	versagen	gemein	53pct	acq_USpleas_CSpleas1_noRW	acq23456_noRW	2	36	0	0	300	300	913	50	0	1	1	blank2r.bmp	0	1	+	0	1	blank2r.bmp	252	1	LWWL	306	2	gütig	559	0	0	0	0	0	0	0	0	0	0	0	0	0	0	0	0	0	0	0	0	0	0	0	0	0	0	0	0	0	0	0	0	0	0	0	0	0	0	0
070319	12:43:16	12:47:50	273141	5.0.10.0	5_exp_noRW	10	Rpleas_acq	CS_A	LWWL	DXXD	JQQJ	ZHHZ	CPPC	YFFY	sonnig	gütig	küssen	träumen	vertrauen	genießen	sterben	gierig	krank	töten	versagen	gemein	47pct	acq_USunple_CSpleas1_noRW	acq23456_noRW	2	37	0	0	300	300	447	46	0	1	1	blank2r.bmp	0	1	+	0	1	blank2r.bmp	252	1	LWWL	306	3	krank	559	0	0	0	0	0	0	0	0	0	0	0	0	0	0	0	0	0	0	0	0	0	0	0	0	0	0	0	0	0	0	0	0	0	0	0	0	0	0	0
070319	12:43:16	12:47:52	275300	5.0.10.0	5_exp_noRW	10	Rpleas_acq	CS_A	LWWL	DXXD	JQQJ	ZHHZ	CPPC	YFFY	sonnig	gütig	küssen	träumen	vertrauen	genießen	sterben	gierig	krank	töten	versagen	gemein	53pct	acq_USunple_CSunple2_noRW	acq23456_noRW	2	38	0	0	300	300	996	46	0	1	1	blank2r.bmp	0	1	+	0	1	blank2r.bmp	252	1	ZHHZ	306	2	versagen	559	0	0	0	0	0	0	0	0	0	0	0	0	0	0	0	0	0	0	0	0	0	0	0	0	0	0	0	0	0	0	0	0	0	0	0	0	0	0	0
070319	12:43:16	12:47:54	277659	5.0.10.0	5_exp_noRW	10	Rpleas_acq	CS_A	LWWL	DXXD	JQQJ	ZHHZ	CPPC	YFFY	sonnig	gütig	küssen	träumen	vertrauen	genießen	sterben	gierig	krank	töten	versagen	gemein	47pct	acq_USpleas_CSpleas2_noRW	acq23456_noRW	2	39	0	0	300	300	1179	50	0	1	1	blank2r.bmp	0	1	+	0	1	blank2r.bmp	252	1	DXXD	306	2	vertrauen	559	0	0	0	0	0	0	0	0	0	0	0	0	0	0	0	0	0	0	0	0	0	0	0	0	0	0	0	0	0	0	0	0	0	0	0	0	0	0	0
070319	12:43:16	12:47:56	279392	5.0.10.0	5_exp_noRW	10	Rpleas_acq	CS_A	LWWL	DXXD	JQQJ	ZHHZ	CPPC	YFFY	sonnig	gütig	küssen	träumen	vertrauen	genießen	sterben	gierig	krank	töten	versagen	gemein	53pct	acq_USunple_CSunple2_noRW	acq23456_noRW	2	40	0	0	300	300	554	46	0	1	1	blank2r.bmp	0	1	+	0	1	blank2r.bmp	252	1	ZHHZ	306	3	gemein	559	0	0	0	0	0	0	0	0	0	0	0	0	0	0	0	0	0	0	0	0	0	0	0	0	0	0	0	0	0	0	0	0	0	0	0	0	0	0	0
070319	12:43:16	12:47:58	281004	5.0.10.0	5_exp_noRW	10	Rpleas_acq	CS_A	LWWL	DXXD	JQQJ	ZHHZ	CPPC	YFFY	sonnig	gütig	küssen	träumen	vertrauen	genießen	sterben	gierig	krank	töten	versagen	gemein	53pct	acq_USunple_CSunple2_noRW	acq23456_noRW	2	41	0	0	300	300	434	46	0	1	1	blank2r.bmp	0	1	+	0	1	blank2r.bmp	252	1	ZHHZ	306	3	gemein	559	0	0	0	0	0	0	0	0	0	0	0	0	0	0	0	0	0	0	0	0	0	0	0	0	0	0	0	0	0	0	0	0	0	0	0	0	0	0	0
070319	12:43:16	12:48:00	282937	5.0.10.0	5_exp_noRW	10	Rpleas_acq	CS_A	LWWL	DXXD	JQQJ	ZHHZ	CPPC	YFFY	sonnig	gütig	küssen	träumen	vertrauen	genießen	sterben	gierig	krank	töten	versagen	gemein	47pct	acq_USpleas_CSunple2_noRW	acq23456_noRW	2	42	0	0	300	300	761	50	0	1	1	blank2r.bmp	0	1	+	0	1	blank2r.bmp	252	1	ZHHZ	306	2	vertrauen	559	0	0	0	0	0	0	0	0	0	0	0	0	0	0	0	0	0	0	0	0	0	0	0	0	0	0	0	0	0	0	0	0	0	0	0	0	0	0	0
070319	12:43:16	12:48:01	284670	5.0.10.0	5_exp_noRW	10	Rpleas_acq	CS_A	LWWL	DXXD	JQQJ	ZHHZ	CPPC	YFFY	sonnig	gütig	küssen	träumen	vertrauen	genießen	sterben	gierig	krank	töten	versagen	gemein	47pct	acq_USpleas_CSpleas2_noRW	acq23456_noRW	2	43	0	0	300	300	557	50	0	1	1	blank2r.bmp	0	1	+	0	1	blank2r.bmp	252	1	DXXD	306	1	träumen	559	0	0	0	0	0	0	0	0	0	0	0	0	0	0	0	0	0	0	0	0	0	0	0	0	0	0	0	0	0	0	0	0	0	0	0	0	0	0	0
070319	12:43:16	12:48:04	287362	5.0.10.0	5_exp_noRW	10	Rpleas_acq	CS_A	LWWL	DXXD	JQQJ	ZHHZ	CPPC	YFFY	sonnig	gütig	küssen	träumen	vertrauen	genießen	sterben	gierig	krank	töten	versagen	gemein	47pct	acq_USunple_CSunple1_noRW	acq23456_noRW	2	44	0	0	300	300	1527	46	0	1	1	blank2r.bmp	0	1	+	0	1	blank2r.bmp	252	1	JQQJ	306	1	sterben	559	0	0	0	0	0	0	0	0	0	0	0	0	0	0	0	0	0	0	0	0	0	0	0	0	0	0	0	0	0	0	0	0	0	0	0	0	0	0	0
070319	12:43:16	12:48:06	289108	5.0.10.0	5_exp_noRW	10	Rpleas_acq	CS_A	LWWL	DXXD	JQQJ	ZHHZ	CPPC	YFFY	sonnig	gütig	küssen	träumen	vertrauen	genießen	sterben	gierig	krank	töten	versagen	gemein	53pct	acq_USunple_CSunple1_noRW	acq23456_noRW	2	45	0	0	300	300	569	46	0	1	1	blank2r.bmp	0	1	+	0	1	blank2r.bmp	252	1	JQQJ	306	2	gierig	559	0	0	0	0	0	0	0	0	0	0	0	0	0	0	0	0	0	0	0	0	0	0	0	0	0	0	0	0	0	0	0	0	0	0	0	0	0	0	0
070319	12:43:16	12:48:08	291147	5.0.10.0	5_exp_noRW	10	Rpleas_acq	CS_A	LWWL	DXXD	JQQJ	ZHHZ	CPPC	YFFY	sonnig	gütig	küssen	träumen	vertrauen	genießen	sterben	gierig	krank	töten	versagen	gemein	53pct	acq_USpleas_CSpleas2_noRW	acq23456_noRW	2	46	0	0	300	300	856	50	0	1	1	blank2r.bmp	0	1	+	0	1	blank2r.bmp	252	1	DXXD	306	3	genießen	559	0	0	0	0	0	0	0	0	0	0	0	0	0	0	0	0	0	0	0	0	0	0	0	0	0	0	0	0	0	0	0	0	0	0	0	0	0	0	0
070319	12:43:16	12:48:10	293053	5.0.10.0	5_exp_noRW	10	Rpleas_acq	CS_A	LWWL	DXXD	JQQJ	ZHHZ	CPPC	YFFY	sonnig	gütig	küssen	träumen	vertrauen	genießen	sterben	gierig	krank	töten	versagen	gemein	53pct	acq_USpleas_CSpleas2_noRW	acq23456_noRW	2	47	0	0	300	300	739	50	0	1	1	blank2r.bmp	0	1	+	0	1	blank2r.bmp	252	1	DXXD	306	2	vertrauen	559	0	0	0	0	0	0	0	0	0	0	0	0	0	0	0	0	0	0	0	0	0	0	0	0	0	0	0	0	0	0	0	0	0	0	0	0	0	0	0
070319	12:43:16	12:48:11	294599	5.0.10.0	5_exp_noRW	10	Rpleas_acq	CS_A	LWWL	DXXD	JQQJ	ZHHZ	CPPC	YFFY	sonnig	gütig	küssen	träumen	vertrauen	genießen	sterben	gierig	krank	töten	versagen	gemein	47pct	acq_USpleas_CSpleas2_noRW	acq23456_noRW	2	48	0	0	300	300	369	50	0	1	1	blank2r.bmp	0	1	+	0	1	blank2r.bmp	252	1	DXXD	306	1	träumen	559	0	0	0	0	0	0	0	0	0	0	0	0	0	0	0	0	0	0	0	0	0	0	0	0	0	0	0	0	0	0	0	0	0	0	0	0	0	0	0
070319	12:43:16	12:48:13	296158	5.0.10.0	5_exp_noRW	10	Rpleas_acq	CS_A	LWWL	DXXD	JQQJ	ZHHZ	CPPC	YFFY	sonnig	gütig	küssen	träumen	vertrauen	genießen	sterben	gierig	krank	töten	versagen	gemein	53pct	acq_USpleas_CSpleas1_noRW	acq23456_noRW	2	49	0	0	300	300	372	50	0	1	1	blank2r.bmp	0	1	+	0	1	blank2r.bmp	252	1	LWWL	306	3	küssen	559	0	0	0	0	0	0	0	0	0	0	0	0	0	0	0	0	0	0	0	0	0	0	0	0	0	0	0	0	0	0	0	0	0	0	0	0	0	0	0
070319	12:43:16	12:48:14	297678	5.0.10.0	5_exp_noRW	10	Rpleas_acq	CS_A	LWWL	DXXD	JQQJ	ZHHZ	CPPC	YFFY	sonnig	gütig	küssen	träumen	vertrauen	genießen	sterben	gierig	krank	töten	versagen	gemein	47pct	acq_USpleas_CSpleas1_noRW	acq23456_noRW	2	50	0	0	300	300	355	50	0	1	1	blank2r.bmp	0	1	+	0	1	blank2r.bmp	252	1	LWWL	306	1	sonnig	559	0	0	0	0	0	0	0	0	0	0	0	0	0	0	0	0	0	0	0	0	0	0	0	0	0	0	0	0	0	0	0	0	0	0	0	0	0	0	0
070319	12:43:16	12:48:16	299490	5.0.10.0	5_exp_noRW	10	Rpleas_acq	CS_A	LWWL	DXXD	JQQJ	ZHHZ	CPPC	YFFY	sonnig	gütig	küssen	träumen	vertrauen	genießen	sterben	gierig	krank	töten	versagen	gemein	53pct	acq_USunple_CSunple2_noRW	acq23456_noRW	2	51	0	0	300	300	630	46	0	1	1	blank2r.bmp	0	1	+	0	1	blank2r.bmp	252	1	ZHHZ	306	1	töten	559	0	0	0	0	0	0	0	0	0	0	0	0	0	0	0	0	0	0	0	0	0	0	0	0	0	0	0	0	0	0	0	0	0	0	0	0	0	0	0
070319	12:43:16	12:48:18	301849	5.0.10.0	5_exp_noRW	10	Rpleas_acq	CS_A	LWWL	DXXD	JQQJ	ZHHZ	CPPC	YFFY	sonnig	gütig	küssen	träumen	vertrauen	genießen	sterben	gierig	krank	töten	versagen	gemein	53pct	acq_USunple_CSunple2_noRW	acq23456_noRW	2	52	0	0	300	300	1193	46	0	1	1	blank2r.bmp	0	1	+	0	1	blank2r.bmp	252	1	ZHHZ	306	2	versagen	559	0	0	0	0	0	0	0	0	0	0	0	0	0	0	0	0	0	0	0	0	0	0	0	0	0	0	0	0	0	0	0	0	0	0	0	0	0	0	0
070319	12:43:16	12:48:20	303782	5.0.10.0	5_exp_noRW	10	Rpleas_acq	CS_A	LWWL	DXXD	JQQJ	ZHHZ	CPPC	YFFY	sonnig	gütig	küssen	träumen	vertrauen	genießen	sterben	gierig	krank	töten	versagen	gemein	53pct	acq_USpleas_CSpleas1_noRW	acq23456_noRW	2	53	0	0	300	300	766	50	0	1	1	blank2r.bmp	0	1	+	0	1	blank2r.bmp	252	1	LWWL	306	2	gütig	559	0	0	0	0	0	0	0	0	0	0	0	0	0	0	0	0	0	0	0	0	0	0	0	0	0	0	0	0	0	0	0	0	0	0	0	0	0	0	0
070319	12:43:16	12:48:22	305514	5.0.10.0	5_exp_noRW	10	Rpleas_acq	CS_A	LWWL	DXXD	JQQJ	ZHHZ	CPPC	YFFY	sonnig	gütig	küssen	träumen	vertrauen	genießen	sterben	gierig	krank	töten	versagen	gemein	47pct	acq_USunple_CSunple1_noRW	acq23456_noRW	2	54	0	0	300	300	560	46	0	1	1	blank2r.bmp	0	1	+	0	1	blank2r.bmp	252	1	JQQJ	306	3	krank	559	0	0	0	0	0	0	0	0	0	0	0	0	0	0	0	0	0	0	0	0	0	0	0	0	0	0	0	0	0	0	0	0	0	0	0	0	0	0	0
070319	12:43:16	12:48:24	307167	5.0.10.0	5_exp_noRW	10	Rpleas_acq	CS_A	LWWL	DXXD	JQQJ	ZHHZ	CPPC	YFFY	sonnig	gütig	küssen	träumen	vertrauen	genießen	sterben	gierig	krank	töten	versagen	gemein	53pct	acq_USpleas_CSpleas1_noRW	acq23456_noRW	2	55	0	0	300	300	485	50	0	1	1	blank2r.bmp	0	1	+	0	1	blank2r.bmp	252	1	LWWL	306	3	küssen	559	0	0	0	0	0	0	0	0	0	0	0	0	0	0	0	0	0	0	0	0	0	0	0	0	0	0	0	0	0	0	0	0	0	0	0	0	0	0	0
070319	12:43:16	12:48:25	308846	5.0.10.0	5_exp_noRW	10	Rpleas_acq	CS_A	LWWL	DXXD	JQQJ	ZHHZ	CPPC	YFFY	sonnig	gütig	küssen	träumen	vertrauen	genießen	sterben	gierig	krank	töten	versagen	gemein	53pct	acq_USunple_CSpleas1_noRW	acq23456_noRW	2	56	0	0	300	300	510	46	0	1	1	blank2r.bmp	0	1	+	0	1	blank2r.bmp	252	1	LWWL	306	3	krank	559	0	0	0	0	0	0	0	0	0	0	0	0	0	0	0	0	0	0	0	0	0	0	0	0	0	0	0	0	0	0	0	0	0	0	0	0	0	0	0
070319	12:43:16	12:48:28	310926	5.0.10.0	5_exp_noRW	10	Rpleas_acq	CS_A	LWWL	DXXD	JQQJ	ZHHZ	CPPC	YFFY	sonnig	gütig	küssen	träumen	vertrauen	genießen	sterben	gierig	krank	töten	versagen	gemein	47pct	acq_USunple_CSpleas2_noRW	acq23456_noRW	2	57	0	0	300	300	898	46	0	1	1	blank2r.bmp	0	1	+	0	1	blank2r.bmp	252	1	DXXD	306	3	gemein	559	0	0	0	0	0	0	0	0	0	0	0	0	0	0	0	0	0	0	0	0	0	0	0	0	0	0	0	0	0	0	0	0	0	0	0	0	0	0	0
070319	12:43:16	12:48:29	312592	5.0.10.0	5_exp_noRW	10	Rpleas_acq	CS_A	LWWL	DXXD	JQQJ	ZHHZ	CPPC	YFFY	sonnig	gütig	küssen	träumen	vertrauen	genießen	sterben	gierig	krank	töten	versagen	gemein	53pct	acq_USunple_CSunple2_noRW	acq23456_noRW	2	58	0	0	300	300	499	46	0	1	1	blank2r.bmp	0	1	+	0	1	blank2r.bmp	252	1	ZHHZ	306	1	töten	559	0	0	0	0	0	0	0	0	0	0	0	0	0	0	0	0	0	0	0	0	0	0	0	0	0	0	0	0	0	0	0	0	0	0	0	0	0	0	0
070319	12:43:16	12:48:31	314298	5.0.10.0	5_exp_noRW	10	Rpleas_acq	CS_A	LWWL	DXXD	JQQJ	ZHHZ	CPPC	YFFY	sonnig	gütig	küssen	träumen	vertrauen	genießen	sterben	gierig	krank	töten	versagen	gemein	47pct	acq_USpleas_CSunple1_noRW	acq23456_noRW	2	59	0	0	300	300	521	50	0	1	1	blank2r.bmp	0	1	+	0	1	blank2r.bmp	252	1	JQQJ	306	1	sonnig	559	0	0	0	0	0	0	0	0	0	0	0	0	0	0	0	0	0	0	0	0	0	0	0	0	0	0	0	0	0	0	0	0	0	0	0	0	0	0	0
070319	12:43:16	12:48:33	315990	5.0.10.0	5_exp_noRW	10	Rpleas_acq	CS_A	LWWL	DXXD	JQQJ	ZHHZ	CPPC	YFFY	sonnig	gütig	küssen	träumen	vertrauen	genießen	sterben	gierig	krank	töten	versagen	gemein	53pct	acq_USunple_CSunple1_noRW	acq23456_noRW	2	60	0	0	300	300	521	46	0	1	1	blank2r.bmp	0	1	+	0	1	blank2r.bmp	252	1	JQQJ	306	1	sterben	559	0	0	0	0	0	0	0	0	0	0	0	0	0	0	0	0	0	0	0	0	0	0	0	0	0	0	0	0	0	0	0	0	0	0	0	0	0	0	0
070319	12:43:16	12:48:34	317683	5.0.10.0	5_exp_noRW	10	Rpleas_acq	CS_A	LWWL	DXXD	JQQJ	ZHHZ	CPPC	YFFY	sonnig	gütig	küssen	träumen	vertrauen	genießen	sterben	gierig	krank	töten	versagen	gemein	47pct	acq_USunple_CSpleas2_noRW	acq23456_noRW	2	61	0	0	300	300	513	46	0	1	1	blank2r.bmp	0	1	+	0	1	blank2r.bmp	252	1	DXXD	306	1	töten	559	0	0	0	0	0	0	0	0	0	0	0	0	0	0	0	0	0	0	0	0	0	0	0	0	0	0	0	0	0	0	0	0	0	0	0	0	0	0	0
070319	12:43:16	12:48:36	319762	5.0.10.0	5_exp_noRW	10	Rpleas_acq	CS_A	LWWL	DXXD	JQQJ	ZHHZ	CPPC	YFFY	sonnig	gütig	küssen	träumen	vertrauen	genießen	sterben	gierig	krank	töten	versagen	gemein	47pct	acq_USpleas_CSpleas1_noRW	acq23456_noRW	2	62	0	0	300	300	913	50	0	1	1	blank2r.bmp	0	1	+	0	1	blank2r.bmp	252	1	LWWL	306	2	gütig	559	0	0	0	0	0	0	0	0	0	0	0	0	0	0	0	0	0	0	0	0	0	0	0	0	0	0	0	0	0	0	0	0	0	0	0	0	0	0	0
070319	12:43:16	12:48:39	321948	5.0.10.0	5_exp_noRW	10	Rpleas_acq	CS_A	LWWL	DXXD	JQQJ	ZHHZ	CPPC	YFFY	sonnig	gütig	küssen	träumen	vertrauen	genießen	sterben	gierig	krank	töten	versagen	gemein	53pct	acq_USpleas_CSpleas1_noRW	acq23456_noRW	2	63	0	0	300	300	1006	50	0	1	1	blank2r.bmp	0	1	+	0	1	blank2r.bmp	252	1	LWWL	306	1	sonnig	559	0	0	0	0	0	0	0	0	0	0	0	0	0	0	0	0	0	0	0	0	0	0	0	0	0	0	0	0	0	0	0	0	0	0	0	0	0	0	0
070319	12:43:16	12:48:40	323547	5.0.10.0	5_exp_noRW	10	Rpleas_acq	CS_A	LWWL	DXXD	JQQJ	ZHHZ	CPPC	YFFY	sonnig	gütig	küssen	träumen	vertrauen	genießen	sterben	gierig	krank	töten	versagen	gemein	53pct	acq_USunple_CSunple1_noRW	acq23456_noRW	2	64	0	0	300	300	418	46	0	1	1	blank2r.bmp	0	1	+	0	1	blank2r.bmp	252	1	JQQJ	306	2	gierig	559	0	0	0	0	0	0	0	0	0	0	0	0	0	0	0	0	0	0	0	0	0	0	0	0	0	0	0	0	0	0	0	0	0	0	0	0	0	0	0
070319	12:43:16	12:48:42	325240	5.0.10.0	5_exp_noRW	10	Rpleas_acq	CS_A	LWWL	DXXD	JQQJ	ZHHZ	CPPC	YFFY	sonnig	gütig	küssen	träumen	vertrauen	genießen	sterben	gierig	krank	töten	versagen	gemein	47pct	acq_USunple_CSunple1_noRW	acq23456_noRW	2	65	0	0	300	300	519	46	0	1	1	blank2r.bmp	0	1	+	0	1	blank2r.bmp	252	1	JQQJ	306	3	krank	559	0	0	0	0	0	0	0	0	0	0	0	0	0	0	0	0	0	0	0	0	0	0	0	0	0	0	0	0	0	0	0	0	0	0	0	0	0	0	0
070319	12:43:16	12:48:44	327092	5.0.10.0	5_exp_noRW	10	Rpleas_acq	CS_A	LWWL	DXXD	JQQJ	ZHHZ	CPPC	YFFY	sonnig	gütig	küssen	träumen	vertrauen	genießen	sterben	gierig	krank	töten	versagen	gemein	53pct	acq_USpleas_CSpleas2_noRW	acq23456_noRW	2	66	0	0	300	300	686	50	0	1	1	blank2r.bmp	0	1	+	0	1	blank2r.bmp	252	1	DXXD	306	2	vertrauen	559	0	0	0	0	0	0	0	0	0	0	0	0	0	0	0	0	0	0	0	0	0	0	0	0	0	0	0	0	0	0	0	0	0	0	0	0	0	0	0
070319	12:43:16	12:48:45	328825	5.0.10.0	5_exp_noRW	10	Rpleas_acq	CS_A	LWWL	DXXD	JQQJ	ZHHZ	CPPC	YFFY	sonnig	gütig	küssen	träumen	vertrauen	genießen	sterben	gierig	krank	töten	versagen	gemein	47pct	acq_USunple_CSunple1_noRW	acq23456_noRW	2	67	0	0	300	300	551	46	0	1	1	blank2r.bmp	0	1	+	0	1	blank2r.bmp	252	1	JQQJ	306	2	gierig	559	0	0	0	0	0	0	0	0	0	0	0	0	0	0	0	0	0	0	0	0	0	0	0	0	0	0	0	0	0	0	0	0	0	0	0	0	0	0	0
070319	12:43:16	12:48:47	330598	5.0.10.0	5_exp_noRW	10	Rpleas_acq	CS_A	LWWL	DXXD	JQQJ	ZHHZ	CPPC	YFFY	sonnig	gütig	küssen	träumen	vertrauen	genießen	sterben	gierig	krank	töten	versagen	gemein	47pct	acq_USunple_CSpleas1_noRW	acq23456_noRW	2	68	0	0	300	300	588	46	0	1	1	blank2r.bmp	0	1	+	0	1	blank2r.bmp	252	1	LWWL	306	1	sterben	559	0	0	0	0	0	0	0	0	0	0	0	0	0	0	0	0	0	0	0	0	0	0	0	0	0	0	0	0	0	0	0	0	0	0	0	0	0	0	0
070319	12:43:16	12:48:49	332503	5.0.10.0	5_exp_noRW	10	Rpleas_acq	CS_A	LWWL	DXXD	JQQJ	ZHHZ	CPPC	YFFY	sonnig	gütig	küssen	träumen	vertrauen	genießen	sterben	gierig	krank	töten	versagen	gemein	53pct	acq_USunple_CSunple2_noRW	acq23456_noRW	2	69	0	0	300	300	732	46	0	1	1	blank2r.bmp	0	1	+	0	1	blank2r.bmp	252	1	ZHHZ	306	3	gemein	559	0	0	0	0	0	0	0	0	0	0	0	0	0	0	0	0	0	0	0	0	0	0	0	0	0	0	0	0	0	0	0	0	0	0	0	0	0	0	0
070319	12:43:16	12:48:51	334236	5.0.10.0	5_exp_noRW	10	Rpleas_acq	CS_A	LWWL	DXXD	JQQJ	ZHHZ	CPPC	YFFY	sonnig	gütig	küssen	träumen	vertrauen	genießen	sterben	gierig	krank	töten	versagen	gemein	53pct	acq_USunple_CSunple2_noRW	acq23456_noRW	2	70	0	0	300	300	565	46	0	1	1	blank2r.bmp	0	1	+	0	1	blank2r.bmp	252	1	ZHHZ	306	2	versagen	559	0	0	0	0	0	0	0	0	0	0	0	0	0	0	0	0	0	0	0	0	0	0	0	0	0	0	0	0	0	0	0	0	0	0	0	0	0	0	0
070319	12:43:16	12:48:52	335862	5.0.10.0	5_exp_noRW	10	Rpleas_acq	CS_A	LWWL	DXXD	JQQJ	ZHHZ	CPPC	YFFY	sonnig	gütig	küssen	träumen	vertrauen	genießen	sterben	gierig	krank	töten	versagen	gemein	47pct	acq_USunple_CSunple2_noRW	acq23456_noRW	2	71	0	0	300	300	453	46	0	1	1	blank2r.bmp	0	1	+	0	1	blank2r.bmp	252	1	ZHHZ	306	2	versagen	559	0	0	0	0	0	0	0	0	0	0	0	0	0	0	0	0	0	0	0	0	0	0	0	0	0	0	0	0	0	0	0	0	0	0	0	0	0	0	0
070319	12:43:16	12:48:54	337648	5.0.10.0	5_exp_noRW	10	Rpleas_acq	CS_A	LWWL	DXXD	JQQJ	ZHHZ	CPPC	YFFY	sonnig	gütig	küssen	träumen	vertrauen	genießen	sterben	gierig	krank	töten	versagen	gemein	47pct	acq_USpleas_CSpleas2_noRW	acq23456_noRW	2	72	0	0	300	300	617	50	0	1	1	blank2r.bmp	0	1	+	0	1	blank2r.bmp	252	1	DXXD	306	3	genießen	559	0	0	0	0	0	0	0	0	0	0	0	0	0	0	0	0	0	0	0	0	0	0	0	0	0	0	0	0	0	0	0	0	0	0	0	0	0	0	0
070319	12:43:16	12:48:56	339620	5.0.10.0	5_exp_noRW	10	Rpleas_acq	CS_A	LWWL	DXXD	JQQJ	ZHHZ	CPPC	YFFY	sonnig	gütig	küssen	träumen	vertrauen	genießen	sterben	gierig	krank	töten	versagen	gemein	47pct	acq_USpleas_CSpleas1_noRW	acq23456_noRW	2	73	0	0	300	300	804	50	0	1	1	blank2r.bmp	0	1	+	0	1	blank2r.bmp	252	1	LWWL	306	1	sonnig	559	0	0	0	0	0	0	0	0	0	0	0	0	0	0	0	0	0	0	0	0	0	0	0	0	0	0	0	0	0	0	0	0	0	0	0	0	0	0	0
070319	12:43:16	12:48:58	341273	5.0.10.0	5_exp_noRW	10	Rpleas_acq	CS_A	LWWL	DXXD	JQQJ	ZHHZ	CPPC	YFFY	sonnig	gütig	küssen	träumen	vertrauen	genießen	sterben	gierig	krank	töten	versagen	gemein	53pct	acq_USunple_CSunple1_noRW	acq23456_noRW	2	74	0	0	300	300	474	46	0	1	1	blank2r.bmp	0	1	+	0	1	blank2r.bmp	252	1	JQQJ	306	1	sterben	559	0	0	0	0	0	0	0	0	0	0	0	0	0	0	0	0	0	0	0	0	0	0	0	0	0	0	0	0	0	0	0	0	0	0	0	0	0	0	0
070319	12:43:16	12:49:00	343086	5.0.10.0	5_exp_noRW	10	Rpleas_acq	CS_A	LWWL	DXXD	JQQJ	ZHHZ	CPPC	YFFY	sonnig	gütig	küssen	träumen	vertrauen	genießen	sterben	gierig	krank	töten	versagen	gemein	47pct	acq_USpleas_CSpleas2_noRW	acq23456_noRW	2	75	0	0	300	300	632	50	0	1	1	blank2r.bmp	0	1	+	0	1	blank2r.bmp	252	1	DXXD	306	3	genießen	559	0	0	0	0	0	0	0	0	0	0	0	0	0	0	0	0	0	0	0	0	0	0	0	0	0	0	0	0	0	0	0	0	0	0	0	0	0	0	0
070319	12:43:16	12:49:02	345045	5.0.10.0	5_exp_noRW	10	Rpleas_acq	CS_A	LWWL	DXXD	JQQJ	ZHHZ	CPPC	YFFY	sonnig	gütig	küssen	träumen	vertrauen	genießen	sterben	gierig	krank	töten	versagen	gemein	47pct	acq_USpleas_CSpleas1_noRW	acq23456_noRW	2	76	0	0	300	300	568	46	0	0	1	blank2r.bmp	0	1	+	0	1	blank2r.bmp	252	1	LWWL	306	2	gütig	559	1	FEHLER	1159	0	0	0	0	0	0	0	0	0	0	0	0	0	0	0	0	0	0	0	0	0	0	0	0	0	0	0	0	0	0	0	0	0	0	0	0
070319	12:43:16	12:49:03	346591	5.0.10.0	5_exp_noRW	10	Rpleas_acq	CS_A	LWWL	DXXD	JQQJ	ZHHZ	CPPC	YFFY	sonnig	gütig	küssen	träumen	vertrauen	genießen	sterben	gierig	krank	töten	versagen	gemein	53pct	acq_USunple_CSunple2_noRW	acq23456_noRW	2	77	0	0	300	300	575	46	0	1	1	blank2r.bmp	0	1	+	0	1	blank2r.bmp	252	1	ZHHZ	306	1	töten	559	0	0	0	0	0	0	0	0	0	0	0	0	0	0	0	0	0	0	0	0	0	0	0	0	0	0	0	0	0	0	0	0	0	0	0	0	0	0	0
070319	12:43:16	12:49:05	348190	5.0.10.0	5_exp_noRW	10	Rpleas_acq	CS_A	LWWL	DXXD	JQQJ	ZHHZ	CPPC	YFFY	sonnig	gütig	küssen	träumen	vertrauen	genießen	sterben	gierig	krank	töten	versagen	gemein	47pct	acq_USpleas_CSpleas2_noRW	acq23456_noRW	2	78	0	0	300	300	426	50	0	1	1	blank2r.bmp	0	1	+	0	1	blank2r.bmp	252	1	DXXD	306	1	träumen	559	0	0	0	0	0	0	0	0	0	0	0	0	0	0	0	0	0	0	0	0	0	0	0	0	0	0	0	0	0	0	0	0	0	0	0	0	0	0	0
070319	12:43:16	12:49:07	349950	5.0.10.0	5_exp_noRW	10	Rpleas_acq	CS_A	LWWL	DXXD	JQQJ	ZHHZ	CPPC	YFFY	sonnig	gütig	küssen	träumen	vertrauen	genießen	sterben	gierig	krank	töten	versagen	gemein	53pct	acq_USpleas_CSunple1_noRW	acq23456_noRW	2	79	0	0	300	300	584	50	0	1	1	blank2r.bmp	0	1	+	0	1	blank2r.bmp	252	1	JQQJ	306	3	küssen	559	0	0	0	0	0	0	0	0	0	0	0	0	0	0	0	0	0	0	0	0	0	0	0	0	0	0	0	0	0	0	0	0	0	0	0	0	0	0	0
070319	12:43:16	12:49:08	351669	5.0.10.0	5_exp_noRW	10	Rpleas_acq	CS_A	LWWL	DXXD	JQQJ	ZHHZ	CPPC	YFFY	sonnig	gütig	küssen	träumen	vertrauen	genießen	sterben	gierig	krank	töten	versagen	gemein	47pct	acq_USpleas_CSunple2_noRW	acq23456_noRW	2	80	0	0	300	300	537	50	0	1	1	blank2r.bmp	0	1	+	0	1	blank2r.bmp	252	1	ZHHZ	306	1	träumen	559	0	0	0	0	0	0	0	0	0	0	0	0	0	0	0	0	0	0	0	0	0	0	0	0	0	0	0	0	0	0	0	0	0	0	0	0	0	0	0
070319	12:43:16	12:49:19	362358	5.0.10.0	5_exp_noRW	10	Rpleas_acq	CS_A	LWWL	DXXD	JQQJ	ZHHZ	CPPC	YFFY	sonnig	gütig	küssen	träumen	vertrauen	genießen	sterben	gierig	krank	töten	versagen	gemein	53pct	acq_USpleas_CSpleas2_noRW	acq23456_noRW	3	1	0	0	300	300	887	50	0	1	1	blank2r.bmp	0	1	+	0	1	blank2r.bmp	252	1	DXXD	306	2	vertrauen	559	0	0	0	0	0	0	0	0	0	0	0	0	0	0	0	0	0	0	0	0	0	0	0	0	0	0	0	0	0	0	0	0	0	0	0	0	0	0	0
070319	12:43:16	12:49:21	364051	5.0.10.0	5_exp_noRW	10	Rpleas_acq	CS_A	LWWL	DXXD	JQQJ	ZHHZ	CPPC	YFFY	sonnig	gütig	küssen	träumen	vertrauen	genießen	sterben	gierig	krank	töten	versagen	gemein	47pct	acq_USunple_CSunple2_noRW	acq23456_noRW	3	2	0	0	300	300	522	46	0	1	1	blank2r.bmp	0	1	+	0	1	blank2r.bmp	252	1	ZHHZ	306	3	gemein	559	0	0	0	0	0	0	0	0	0	0	0	0	0	0	0	0	0	0	0	0	0	0	0	0	0	0	0	0	0	0	0	0	0	0	0	0	0	0	0
070319	12:43:16	12:49:22	365783	5.0.10.0	5_exp_noRW	10	Rpleas_acq	CS_A	LWWL	DXXD	JQQJ	ZHHZ	CPPC	YFFY	sonnig	gütig	küssen	träumen	vertrauen	genießen	sterben	gierig	krank	töten	versagen	gemein	47pct	acq_USpleas_CSpleas1_noRW	acq23456_noRW	3	3	0	0	300	300	557	50	0	1	1	blank2r.bmp	0	1	+	0	1	blank2r.bmp	252	1	LWWL	306	3	küssen	559	0	0	0	0	0	0	0	0	0	0	0	0	0	0	0	0	0	0	0	0	0	0	0	0	0	0	0	0	0	0	0	0	0	0	0	0	0	0	0
070319	12:43:16	12:49:25	368355	5.0.10.0	5_exp_noRW	10	Rpleas_acq	CS_A	LWWL	DXXD	JQQJ	ZHHZ	CPPC	YFFY	sonnig	gütig	küssen	träumen	vertrauen	genießen	sterben	gierig	krank	töten	versagen	gemein	47pct	acq_USpleas_CSpleas1_noRW	acq23456_noRW	3	4	0	0	300	300	1389	50	0	1	1	blank2r.bmp	0	1	+	0	1	blank2r.bmp	252	1	LWWL	306	1	sonnig	559	0	0	0	0	0	0	0	0	0	0	0	0	0	0	0	0	0	0	0	0	0	0	0	0	0	0	0	0	0	0	0	0	0	0	0	0	0	0	0
070319	12:43:16	12:49:27	370021	5.0.10.0	5_exp_noRW	10	Rpleas_acq	CS_A	LWWL	DXXD	JQQJ	ZHHZ	CPPC	YFFY	sonnig	gütig	küssen	träumen	vertrauen	genießen	sterben	gierig	krank	töten	versagen	gemein	47pct	acq_USunple_CSunple1_noRW	acq23456_noRW	3	5	0	0	300	300	502	46	0	1	1	blank2r.bmp	0	1	+	0	1	blank2r.bmp	252	1	JQQJ	306	3	krank	559	0	0	0	0	0	0	0	0	0	0	0	0	0	0	0	0	0	0	0	0	0	0	0	0	0	0	0	0	0	0	0	0	0	0	0	0	0	0	0
070319	12:43:16	12:49:29	371927	5.0.10.0	5_exp_noRW	10	Rpleas_acq	CS_A	LWWL	DXXD	JQQJ	ZHHZ	CPPC	YFFY	sonnig	gütig	küssen	träumen	vertrauen	genießen	sterben	gierig	krank	töten	versagen	gemein	53pct	acq_USpleas_CSunple1_noRW	acq23456_noRW	3	6	0	0	300	300	722	50	0	1	1	blank2r.bmp	0	1	+	0	1	blank2r.bmp	252	1	JQQJ	306	2	gütig	559	0	0	0	0	0	0	0	0	0	0	0	0	0	0	0	0	0	0	0	0	0	0	0	0	0	0	0	0	0	0	0	0	0	0	0	0	0	0	0
070319	12:43:16	12:49:30	373633	5.0.10.0	5_exp_noRW	10	Rpleas_acq	CS_A	LWWL	DXXD	JQQJ	ZHHZ	CPPC	YFFY	sonnig	gütig	küssen	träumen	vertrauen	genießen	sterben	gierig	krank	töten	versagen	gemein	47pct	acq_USunple_CSunple1_noRW	acq23456_noRW	3	7	0	0	300	300	531	46	0	1	1	blank2r.bmp	0	1	+	0	1	blank2r.bmp	252	1	JQQJ	306	3	krank	559	0	0	0	0	0	0	0	0	0	0	0	0	0	0	0	0	0	0	0	0	0	0	0	0	0	0	0	0	0	0	0	0	0	0	0	0	0	0	0
070319	12:43:16	12:49:32	375766	5.0.10.0	5_exp_noRW	10	Rpleas_acq	CS_A	LWWL	DXXD	JQQJ	ZHHZ	CPPC	YFFY	sonnig	gütig	küssen	träumen	vertrauen	genießen	sterben	gierig	krank	töten	versagen	gemein	53pct	acq_USpleas_CSpleas1_noRW	acq23456_noRW	3	8	0	0	300	300	947	50	0	1	1	blank2r.bmp	0	1	+	0	1	blank2r.bmp	252	1	LWWL	306	3	küssen	559	0	0	0	0	0	0	0	0	0	0	0	0	0	0	0	0	0	0	0	0	0	0	0	0	0	0	0	0	0	0	0	0	0	0	0	0	0	0	0
070319	12:43:16	12:49:34	377392	5.0.10.0	5_exp_noRW	10	Rpleas_acq	CS_A	LWWL	DXXD	JQQJ	ZHHZ	CPPC	YFFY	sonnig	gütig	küssen	träumen	vertrauen	genießen	sterben	gierig	krank	töten	versagen	gemein	53pct	acq_USunple_CSunple1_noRW	acq23456_noRW	3	9	0	0	300	300	461	46	0	1	1	blank2r.bmp	0	1	+	0	1	blank2r.bmp	252	1	JQQJ	306	1	sterben	559	0	0	0	0	0	0	0	0	0	0	0	0	0	0	0	0	0	0	0	0	0	0	0	0	0	0	0	0	0	0	0	0	0	0	0	0	0	0	0
070319	12:43:16	12:49:36	379844	5.0.10.0	5_exp_noRW	10	Rpleas_acq	CS_A	LWWL	DXXD	JQQJ	ZHHZ	CPPC	YFFY	sonnig	gütig	küssen	träumen	vertrauen	genießen	sterben	gierig	krank	töten	versagen	gemein	47pct	acq_USunple_CSpleas1_noRW	acq23456_noRW	3	10	0	0	300	300	1266	46	0	1	1	blank2r.bmp	0	1	+	0	1	blank2r.bmp	252	1	LWWL	306	2	gierig	559	0	0	0	0	0	0	0	0	0	0	0	0	0	0	0	0	0	0	0	0	0	0	0	0	0	0	0	0	0	0	0	0	0	0	0	0	0	0	0
070319	12:43:16	12:49:38	381537	5.0.10.0	5_exp_noRW	10	Rpleas_acq	CS_A	LWWL	DXXD	JQQJ	ZHHZ	CPPC	YFFY	sonnig	gütig	küssen	träumen	vertrauen	genießen	sterben	gierig	krank	töten	versagen	gemein	47pct	acq_USpleas_CSpleas2_noRW	acq23456_noRW	3	11	0	0	300	300	530	50	0	1	1	blank2r.bmp	0	1	+	0	1	blank2r.bmp	252	1	DXXD	306	2	vertrauen	559	0	0	0	0	0	0	0	0	0	0	0	0	0	0	0	0	0	0	0	0	0	0	0	0	0	0	0	0	0	0	0	0	0	0	0	0	0	0	0
070319	12:43:16	12:49:40	383443	5.0.10.0	5_exp_noRW	10	Rpleas_acq	CS_A	LWWL	DXXD	JQQJ	ZHHZ	CPPC	YFFY	sonnig	gütig	küssen	träumen	vertrauen	genießen	sterben	gierig	krank	töten	versagen	gemein	47pct	acq_USpleas_CSpleas2_noRW	acq23456_noRW	3	12	0	0	300	300	728	50	0	1	1	blank2r.bmp	0	1	+	0	1	blank2r.bmp	252	1	DXXD	306	3	genießen	559	0	0	0	0	0	0	0	0	0	0	0	0	0	0	0	0	0	0	0	0	0	0	0	0	0	0	0	0	0	0	0	0	0	0	0	0	0	0	0
070319	12:43:16	12:49:42	385162	5.0.10.0	5_exp_noRW	10	Rpleas_acq	CS_A	LWWL	DXXD	JQQJ	ZHHZ	CPPC	YFFY	sonnig	gütig	küssen	träumen	vertrauen	genießen	sterben	gierig	krank	töten	versagen	gemein	53pct	acq_USpleas_CSunple2_noRW	acq23456_noRW	3	13	0	0	300	300	535	50	0	1	1	blank2r.bmp	0	1	+	0	1	blank2r.bmp	252	1	ZHHZ	306	3	genießen	559	0	0	0	0	0	0	0	0	0	0	0	0	0	0	0	0	0	0	0	0	0	0	0	0	0	0	0	0	0	0	0	0	0	0	0	0	0	0	0
070319	12:43:16	12:49:44	386921	5.0.10.0	5_exp_noRW	10	Rpleas_acq	CS_A	LWWL	DXXD	JQQJ	ZHHZ	CPPC	YFFY	sonnig	gütig	küssen	träumen	vertrauen	genießen	sterben	gierig	krank	töten	versagen	gemein	53pct	acq_USunple_CSunple1_noRW	acq23456_noRW	3	14	0	0	300	300	583	46	0	1	1	blank2r.bmp	0	1	+	0	1	blank2r.bmp	252	1	JQQJ	306	2	gierig	559	0	0	0	0	0	0	0	0	0	0	0	0	0	0	0	0	0	0	0	0	0	0	0	0	0	0	0	0	0	0	0	0	0	0	0	0	0	0	0
070319	12:43:16	12:49:45	388787	5.0.10.0	5_exp_noRW	10	Rpleas_acq	CS_A	LWWL	DXXD	JQQJ	ZHHZ	CPPC	YFFY	sonnig	gütig	küssen	träumen	vertrauen	genießen	sterben	gierig	krank	töten	versagen	gemein	47pct	acq_USunple_CSpleas2_noRW	acq23456_noRW	3	15	0	0	300	300	678	46	0	1	1	blank2r.bmp	0	1	+	0	1	blank2r.bmp	252	1	DXXD	306	2	versagen	559	0	0	0	0	0	0	0	0	0	0	0	0	0	0	0	0	0	0	0	0	0	0	0	0	0	0	0	0	0	0	0	0	0	0	0	0	0	0	0
070319	12:43:16	12:49:47	390466	5.0.10.0	5_exp_noRW	10	Rpleas_acq	CS_A	LWWL	DXXD	JQQJ	ZHHZ	CPPC	YFFY	sonnig	gütig	küssen	träumen	vertrauen	genießen	sterben	gierig	krank	töten	versagen	gemein	47pct	acq_USunple_CSunple2_noRW	acq23456_noRW	3	16	0	0	300	300	505	46	0	1	1	blank2r.bmp	0	1	+	0	1	blank2r.bmp	252	1	ZHHZ	306	3	gemein	559	0	0	0	0	0	0	0	0	0	0	0	0	0	0	0	0	0	0	0	0	0	0	0	0	0	0	0	0	0	0	0	0	0	0	0	0	0	0	0
070319	12:43:16	12:49:49	392426	5.0.10.0	5_exp_noRW	10	Rpleas_acq	CS_A	LWWL	DXXD	JQQJ	ZHHZ	CPPC	YFFY	sonnig	gütig	küssen	träumen	vertrauen	genießen	sterben	gierig	krank	töten	versagen	gemein	53pct	acq_USunple_CSunple2_noRW	acq23456_noRW	3	17	0	0	300	300	772	46	0	1	1	blank2r.bmp	0	1	+	0	1	blank2r.bmp	252	1	ZHHZ	306	1	töten	559	0	0	0	0	0	0	0	0	0	0	0	0	0	0	0	0	0	0	0	0	0	0	0	0	0	0	0	0	0	0	0	0	0	0	0	0	0	0	0
070319	12:43:16	12:49:51	394505	5.0.10.0	5_exp_noRW	10	Rpleas_acq	CS_A	LWWL	DXXD	JQQJ	ZHHZ	CPPC	YFFY	sonnig	gütig	küssen	träumen	vertrauen	genießen	sterben	gierig	krank	töten	versagen	gemein	53pct	acq_USpleas_CSpleas2_noRW	acq23456_noRW	3	18	0	0	300	300	916	50	0	1	1	blank2r.bmp	0	1	+	0	1	blank2r.bmp	252	1	DXXD	306	1	träumen	559	0	0	0	0	0	0	0	0	0	0	0	0	0	0	0	0	0	0	0	0	0	0	0	0	0	0	0	0	0	0	0	0	0	0	0	0	0	0	0
070319	12:43:16	12:49:53	396237	5.0.10.0	5_exp_noRW	10	Rpleas_acq	CS_A	LWWL	DXXD	JQQJ	ZHHZ	CPPC	YFFY	sonnig	gütig	küssen	träumen	vertrauen	genießen	sterben	gierig	krank	töten	versagen	gemein	47pct	acq_USunple_CSunple2_noRW	acq23456_noRW	3	19	0	0	300	300	545	46	0	1	1	blank2r.bmp	0	1	+	0	1	blank2r.bmp	252	1	ZHHZ	306	2	versagen	559	0	0	0	0	0	0	0	0	0	0	0	0	0	0	0	0	0	0	0	0	0	0	0	0	0	0	0	0	0	0	0	0	0	0	0	0	0	0	0
070319	12:43:16	12:49:55	398570	5.0.10.0	5_exp_noRW	10	Rpleas_acq	CS_A	LWWL	DXXD	JQQJ	ZHHZ	CPPC	YFFY	sonnig	gütig	küssen	träumen	vertrauen	genießen	sterben	gierig	krank	töten	versagen	gemein	47pct	acq_USpleas_CSpleas1_noRW	acq23456_noRW	3	20	0	0	300	300	936	46	0	0	1	blank2r.bmp	0	1	+	0	1	blank2r.bmp	252	1	LWWL	306	2	gütig	559	1	FEHLER	1532	0	0	0	0	0	0	0	0	0	0	0	0	0	0	0	0	0	0	0	0	0	0	0	0	0	0	0	0	0	0	0	0	0	0	0	0
070319	12:43:16	12:49:57	400209	5.0.10.0	5_exp_noRW	10	Rpleas_acq	CS_A	LWWL	DXXD	JQQJ	ZHHZ	CPPC	YFFY	sonnig	gütig	küssen	träumen	vertrauen	genießen	sterben	gierig	krank	töten	versagen	gemein	47pct	acq_USunple_CSunple1_noRW	acq23456_noRW	3	21	0	0	300	300	669	46	0	1	1	blank2r.bmp	0	1	+	0	1	blank2r.bmp	252	1	JQQJ	306	2	gierig	559	0	0	0	0	0	0	0	0	0	0	0	0	0	0	0	0	0	0	0	0	0	0	0	0	0	0	0	0	0	0	0	0	0	0	0	0	0	0	0
070319	12:43:16	12:49:59	401942	5.0.10.0	5_exp_noRW	10	Rpleas_acq	CS_A	LWWL	DXXD	JQQJ	ZHHZ	CPPC	YFFY	sonnig	gütig	küssen	träumen	vertrauen	genießen	sterben	gierig	krank	töten	versagen	gemein	47pct	acq_USpleas_CSpleas1_noRW	acq23456_noRW	3	22	0	0	300	300	566	50	0	1	1	blank2r.bmp	0	1	+	0	1	blank2r.bmp	252	1	LWWL	306	3	küssen	559	0	0	0	0	0	0	0	0	0	0	0	0	0	0	0	0	0	0	0	0	0	0	0	0	0	0	0	0	0	0	0	0	0	0	0	0	0	0	0
070319	12:43:16	12:50:00	403701	5.0.10.0	5_exp_noRW	10	Rpleas_acq	CS_A	LWWL	DXXD	JQQJ	ZHHZ	CPPC	YFFY	sonnig	gütig	küssen	träumen	vertrauen	genießen	sterben	gierig	krank	töten	versagen	gemein	47pct	acq_USunple_CSunple1_noRW	acq23456_noRW	3	23	0	0	300	300	574	46	0	1	1	blank2r.bmp	0	1	+	0	1	blank2r.bmp	252	1	JQQJ	306	3	krank	559	0	0	0	0	0	0	0	0	0	0	0	0	0	0	0	0	0	0	0	0	0	0	0	0	0	0	0	0	0	0	0	0	0	0	0	0	0	0	0
070319	12:43:16	12:50:02	405340	5.0.10.0	5_exp_noRW	10	Rpleas_acq	CS_A	LWWL	DXXD	JQQJ	ZHHZ	CPPC	YFFY	sonnig	gütig	küssen	träumen	vertrauen	genießen	sterben	gierig	krank	töten	versagen	gemein	47pct	acq_USpleas_CSpleas2_noRW	acq23456_noRW	3	24	0	0	300	300	472	50	0	1	1	blank2r.bmp	0	1	+	0	1	blank2r.bmp	252	1	DXXD	306	2	vertrauen	559	0	0	0	0	0	0	0	0	0	0	0	0	0	0	0	0	0	0	0	0	0	0	0	0	0	0	0	0	0	0	0	0	0	0	0	0	0	0	0
070319	12:43:16	12:50:04	407739	5.0.10.0	5_exp_noRW	10	Rpleas_acq	CS_A	LWWL	DXXD	JQQJ	ZHHZ	CPPC	YFFY	sonnig	gütig	küssen	träumen	vertrauen	genießen	sterben	gierig	krank	töten	versagen	gemein	53pct	acq_USpleas_CSpleas2_noRW	acq23456_noRW	3	25	0	0	300	300	1232	50	0	1	1	blank2r.bmp	0	1	+	0	1	blank2r.bmp	252	1	DXXD	306	1	träumen	559	0	0	0	0	0	0	0	0	0	0	0	0	0	0	0	0	0	0	0	0	0	0	0	0	0	0	0	0	0	0	0	0	0	0	0	0	0	0	0
070319	12:43:16	12:50:06	409565	5.0.10.0	5_exp_noRW	10	Rpleas_acq	CS_A	LWWL	DXXD	JQQJ	ZHHZ	CPPC	YFFY	sonnig	gütig	küssen	träumen	vertrauen	genießen	sterben	gierig	krank	töten	versagen	gemein	53pct	acq_USpleas_CSunple1_noRW	acq23456_noRW	3	26	0	0	300	300	660	50	0	1	1	blank2r.bmp	0	1	+	0	1	blank2r.bmp	252	1	JQQJ	306	1	sonnig	559	0	0	0	0	0	0	0	0	0	0	0	0	0	0	0	0	0	0	0	0	0	0	0	0	0	0	0	0	0	0	0	0	0	0	0	0	0	0	0
070319	12:43:16	12:50:08	411511	5.0.10.0	5_exp_noRW	10	Rpleas_acq	CS_A	LWWL	DXXD	JQQJ	ZHHZ	CPPC	YFFY	sonnig	gütig	küssen	träumen	vertrauen	genießen	sterben	gierig	krank	töten	versagen	gemein	47pct	acq_USpleas_CSpleas1_noRW	acq23456_noRW	3	27	0	0	300	300	565	46	0	0	1	blank2r.bmp	0	1	+	0	1	blank2r.bmp	252	1	LWWL	306	2	gütig	559	1	FEHLER	1159	0	0	0	0	0	0	0	0	0	0	0	0	0	0	0	0	0	0	0	0	0	0	0	0	0	0	0	0	0	0	0	0	0	0	0	0
070319	12:43:16	12:50:10	412951	5.0.10.0	5_exp_noRW	10	Rpleas_acq	CS_A	LWWL	DXXD	JQQJ	ZHHZ	CPPC	YFFY	sonnig	gütig	küssen	träumen	vertrauen	genießen	sterben	gierig	krank	töten	versagen	gemein	53pct	acq_USunple_CSunple2_noRW	acq23456_noRW	3	28	0	0	300	300	488	46	0	1	1	blank2r.bmp	0	1	+	0	1	blank2r.bmp	252	1	ZHHZ	306	2	versagen	559	0	0	0	0	0	0	0	0	0	0	0	0	0	0	0	0	0	0	0	0	0	0	0	0	0	0	0	0	0	0	0	0	0	0	0	0	0	0	0
070319	12:43:16	12:50:11	414856	5.0.10.0	5_exp_noRW	10	Rpleas_acq	CS_A	LWWL	DXXD	JQQJ	ZHHZ	CPPC	YFFY	sonnig	gütig	küssen	träumen	vertrauen	genießen	sterben	gierig	krank	töten	versagen	gemein	47pct	acq_USunple_CSunple1_noRW	acq23456_noRW	3	29	0	0	300	300	737	46	0	1	1	blank2r.bmp	0	1	+	0	1	blank2r.bmp	252	1	JQQJ	306	1	sterben	559	0	0	0	0	0	0	0	0	0	0	0	0	0	0	0	0	0	0	0	0	0	0	0	0	0	0	0	0	0	0	0	0	0	0	0	0	0	0	0
070319	12:43:16	12:50:13	416842	5.0.10.0	5_exp_noRW	10	Rpleas_acq	CS_A	LWWL	DXXD	JQQJ	ZHHZ	CPPC	YFFY	sonnig	gütig	küssen	träumen	vertrauen	genießen	sterben	gierig	krank	töten	versagen	gemein	47pct	acq_USpleas_CSpleas2_noRW	acq23456_noRW	3	30	0	0	300	300	824	50	0	1	1	blank2r.bmp	0	1	+	0	1	blank2r.bmp	252	1	DXXD	306	3	genießen	559	0	0	0	0	0	0	0	0	0	0	0	0	0	0	0	0	0	0	0	0	0	0	0	0	0	0	0	0	0	0	0	0	0	0	0	0	0	0	0
070319	12:43:16	12:50:15	418562	5.0.10.0	5_exp_noRW	10	Rpleas_acq	CS_A	LWWL	DXXD	JQQJ	ZHHZ	CPPC	YFFY	sonnig	gütig	küssen	träumen	vertrauen	genießen	sterben	gierig	krank	töten	versagen	gemein	47pct	acq_USpleas_CSpleas1_noRW	acq23456_noRW	3	31	0	0	300	300	538	50	0	1	1	blank2r.bmp	0	1	+	0	1	blank2r.bmp	252	1	LWWL	306	1	sonnig	559	0	0	0	0	0	0	0	0	0	0	0	0	0	0	0	0	0	0	0	0	0	0	0	0	0	0	0	0	0	0	0	0	0	0	0	0	0	0	0
070319	12:43:16	12:50:17	420254	5.0.10.0	5_exp_noRW	10	Rpleas_acq	CS_A	LWWL	DXXD	JQQJ	ZHHZ	CPPC	YFFY	sonnig	gütig	küssen	träumen	vertrauen	genießen	sterben	gierig	krank	töten	versagen	gemein	47pct	acq_USunple_CSpleas2_noRW	acq23456_noRW	3	32	0	0	300	300	514	46	0	1	1	blank2r.bmp	0	1	+	0	1	blank2r.bmp	252	1	DXXD	306	2	versagen	559	0	0	0	0	0	0	0	0	0	0	0	0	0	0	0	0	0	0	0	0	0	0	0	0	0	0	0	0	0	0	0	0	0	0	0	0	0	0	0
070319	12:43:16	12:50:19	422000	5.0.10.0	5_exp_noRW	10	Rpleas_acq	CS_A	LWWL	DXXD	JQQJ	ZHHZ	CPPC	YFFY	sonnig	gütig	küssen	träumen	vertrauen	genießen	sterben	gierig	krank	töten	versagen	gemein	53pct	acq_USpleas_CSunple2_noRW	acq23456_noRW	3	33	0	0	300	300	566	50	0	1	1	blank2r.bmp	0	1	+	0	1	blank2r.bmp	252	1	ZHHZ	306	2	vertrauen	559	0	0	0	0	0	0	0	0	0	0	0	0	0	0	0	0	0	0	0	0	0	0	0	0	0	0	0	0	0	0	0	0	0	0	0	0	0	0	0
070319	12:43:16	12:50:21	424226	5.0.10.0	5_exp_noRW	10	Rpleas_acq	CS_A	LWWL	DXXD	JQQJ	ZHHZ	CPPC	YFFY	sonnig	gütig	küssen	träumen	vertrauen	genießen	sterben	gierig	krank	töten	versagen	gemein	53pct	acq_USunple_CSunple1_noRW	acq23456_noRW	3	34	0	0	300	300	1056	46	0	1	1	blank2r.bmp	0	1	+	0	1	blank2r.bmp	252	1	JQQJ	306	1	sterben	559	0	0	0	0	0	0	0	0	0	0	0	0	0	0	0	0	0	0	0	0	0	0	0	0	0	0	0	0	0	0	0	0	0	0	0	0	0	0	0
070319	12:43:16	12:50:22	425879	5.0.10.0	5_exp_noRW	10	Rpleas_acq	CS_A	LWWL	DXXD	JQQJ	ZHHZ	CPPC	YFFY	sonnig	gütig	küssen	träumen	vertrauen	genießen	sterben	gierig	krank	töten	versagen	gemein	47pct	acq_USpleas_CSpleas2_noRW	acq23456_noRW	3	35	0	0	300	300	484	50	0	1	1	blank2r.bmp	0	1	+	0	1	blank2r.bmp	252	1	DXXD	306	1	träumen	559	0	0	0	0	0	0	0	0	0	0	0	0	0	0	0	0	0	0	0	0	0	0	0	0	0	0	0	0	0	0	0	0	0	0	0	0	0	0	0
070319	12:43:16	12:50:24	427798	5.0.10.0	5_exp_noRW	10	Rpleas_acq	CS_A	LWWL	DXXD	JQQJ	ZHHZ	CPPC	YFFY	sonnig	gütig	küssen	träumen	vertrauen	genießen	sterben	gierig	krank	töten	versagen	gemein	53pct	acq_USunple_CSunple2_noRW	acq23456_noRW	3	36	0	0	300	300	523	50	0	0	1	blank2r.bmp	0	1	+	0	1	blank2r.bmp	252	1	ZHHZ	306	3	gemein	559	1	FEHLER	1119	0	0	0	0	0	0	0	0	0	0	0	0	0	0	0	0	0	0	0	0	0	0	0	0	0	0	0	0	0	0	0	0	0	0	0	0
070319	12:43:16	12:50:26	429317	5.0.10.0	5_exp_noRW	10	Rpleas_acq	CS_A	LWWL	DXXD	JQQJ	ZHHZ	CPPC	YFFY	sonnig	gütig	küssen	träumen	vertrauen	genießen	sterben	gierig	krank	töten	versagen	gemein	53pct	acq_USunple_CSunple2_noRW	acq23456_noRW	3	37	0	0	300	300	566	46	0	1	1	blank2r.bmp	0	1	+	0	1	blank2r.bmp	252	1	ZHHZ	306	1	töten	559	0	0	0	0	0	0	0	0	0	0	0	0	0	0	0	0	0	0	0	0	0	0	0	0	0	0	0	0	0	0	0	0	0	0	0	0	0	0	0
070319	12:43:16	12:50:28	430983	5.0.10.0	5_exp_noRW	10	Rpleas_acq	CS_A	LWWL	DXXD	JQQJ	ZHHZ	CPPC	YFFY	sonnig	gütig	küssen	träumen	vertrauen	genießen	sterben	gierig	krank	töten	versagen	gemein	47pct	acq_USpleas_CSpleas1_noRW	acq23456_noRW	3	38	0	0	300	300	484	50	0	1	1	blank2r.bmp	0	1	+	0	1	blank2r.bmp	252	1	LWWL	306	1	sonnig	559	0	0	0	0	0	0	0	0	0	0	0	0	0	0	0	0	0	0	0	0	0	0	0	0	0	0	0	0	0	0	0	0	0	0	0	0	0	0	0
070319	12:43:16	12:50:30	433462	5.0.10.0	5_exp_noRW	10	Rpleas_acq	CS_A	LWWL	DXXD	JQQJ	ZHHZ	CPPC	YFFY	sonnig	gütig	küssen	träumen	vertrauen	genießen	sterben	gierig	krank	töten	versagen	gemein	47pct	acq_USunple_CSunple2_noRW	acq23456_noRW	3	39	0	0	300	300	1314	46	0	1	1	blank2r.bmp	0	1	+	0	1	blank2r.bmp	252	1	ZHHZ	306	1	töten	559	0	0	0	0	0	0	0	0	0	0	0	0	0	0	0	0	0	0	0	0	0	0	0	0	0	0	0	0	0	0	0	0	0	0	0	0	0	0	0
070319	12:43:16	12:50:32	434995	5.0.10.0	5_exp_noRW	10	Rpleas_acq	CS_A	LWWL	DXXD	JQQJ	ZHHZ	CPPC	YFFY	sonnig	gütig	küssen	träumen	vertrauen	genießen	sterben	gierig	krank	töten	versagen	gemein	53pct	acq_USunple_CSpleas1_noRW	acq23456_noRW	3	40	0	0	300	300	362	46	0	1	1	blank2r.bmp	0	1	+	0	1	blank2r.bmp	252	1	LWWL	306	3	krank	559	0	0	0	0	0	0	0	0	0	0	0	0	0	0	0	0	0	0	0	0	0	0	0	0	0	0	0	0	0	0	0	0	0	0	0	0	0	0	0
070319	12:43:16	12:50:33	436674	5.0.10.0	5_exp_noRW	10	Rpleas_acq	CS_A	LWWL	DXXD	JQQJ	ZHHZ	CPPC	YFFY	sonnig	gütig	küssen	träumen	vertrauen	genießen	sterben	gierig	krank	töten	versagen	gemein	47pct	acq_USpleas_CSpleas1_noRW	acq23456_noRW	3	41	0	0	300	300	505	50	0	1	1	blank2r.bmp	0	1	+	0	1	blank2r.bmp	252	1	LWWL	306	3	küssen	559	0	0	0	0	0	0	0	0	0	0	0	0	0	0	0	0	0	0	0	0	0	0	0	0	0	0	0	0	0	0	0	0	0	0	0	0	0	0	0
070319	12:43:16	12:50:35	438354	5.0.10.0	5_exp_noRW	10	Rpleas_acq	CS_A	LWWL	DXXD	JQQJ	ZHHZ	CPPC	YFFY	sonnig	gütig	küssen	träumen	vertrauen	genießen	sterben	gierig	krank	töten	versagen	gemein	47pct	acq_USunple_CSunple1_noRW	acq23456_noRW	3	42	0	0	300	300	501	46	0	1	1	blank2r.bmp	0	1	+	0	1	blank2r.bmp	252	1	JQQJ	306	2	gierig	559	0	0	0	0	0	0	0	0	0	0	0	0	0	0	0	0	0	0	0	0	0	0	0	0	0	0	0	0	0	0	0	0	0	0	0	0	0	0	0
070319	12:43:16	12:50:37	440286	5.0.10.0	5_exp_noRW	10	Rpleas_acq	CS_A	LWWL	DXXD	JQQJ	ZHHZ	CPPC	YFFY	sonnig	gütig	küssen	träumen	vertrauen	genießen	sterben	gierig	krank	töten	versagen	gemein	53pct	acq_USpleas_CSpleas1_noRW	acq23456_noRW	3	43	0	0	300	300	757	50	0	1	1	blank2r.bmp	0	1	+	0	1	blank2r.bmp	252	1	LWWL	306	2	gütig	559	0	0	0	0	0	0	0	0	0	0	0	0	0	0	0	0	0	0	0	0	0	0	0	0	0	0	0	0	0	0	0	0	0	0	0	0	0	0	0
070319	12:43:16	12:50:39	441979	5.0.10.0	5_exp_noRW	10	Rpleas_acq	CS_A	LWWL	DXXD	JQQJ	ZHHZ	CPPC	YFFY	sonnig	gütig	küssen	träumen	vertrauen	genießen	sterben	gierig	krank	töten	versagen	gemein	47pct	acq_USpleas_CSpleas1_noRW	acq23456_noRW	3	44	0	0	300	300	512	50	0	1	1	blank2r.bmp	0	1	+	0	1	blank2r.bmp	252	1	LWWL	306	1	sonnig	559	0	0	0	0	0	0	0	0	0	0	0	0	0	0	0	0	0	0	0	0	0	0	0	0	0	0	0	0	0	0	0	0	0	0	0	0	0	0	0
070319	12:43:16	12:50:41	443925	5.0.10.0	5_exp_noRW	10	Rpleas_acq	CS_A	LWWL	DXXD	JQQJ	ZHHZ	CPPC	YFFY	sonnig	gütig	küssen	träumen	vertrauen	genießen	sterben	gierig	krank	töten	versagen	gemein	53pct	acq_USpleas_CSunple1_noRW	acq23456_noRW	3	45	0	0	300	300	783	50	0	1	1	blank2r.bmp	0	1	+	0	1	blank2r.bmp	252	1	JQQJ	306	2	gütig	559	0	0	0	0	0	0	0	0	0	0	0	0	0	0	0	0	0	0	0	0	0	0	0	0	0	0	0	0	0	0	0	0	0	0	0	0	0	0	0
070319	12:43:16	12:50:42	445737	5.0.10.0	5_exp_noRW	10	Rpleas_acq	CS_A	LWWL	DXXD	JQQJ	ZHHZ	CPPC	YFFY	sonnig	gütig	küssen	träumen	vertrauen	genießen	sterben	gierig	krank	töten	versagen	gemein	53pct	acq_USunple_CSpleas2_noRW	acq23456_noRW	3	46	0	0	300	300	417	50	0	0	1	blank2r.bmp	0	1	+	0	1	blank2r.bmp	252	1	DXXD	306	1	töten	559	1	FEHLER	1012	0	0	0	0	0	0	0	0	0	0	0	0	0	0	0	0	0	0	0	0	0	0	0	0	0	0	0	0	0	0	0	0	0	0	0	0
070319	12:43:16	12:50:44	447363	5.0.10.0	5_exp_noRW	10	Rpleas_acq	CS_A	LWWL	DXXD	JQQJ	ZHHZ	CPPC	YFFY	sonnig	gütig	küssen	träumen	vertrauen	genießen	sterben	gierig	krank	töten	versagen	gemein	53pct	acq_USunple_CSunple1_noRW	acq23456_noRW	3	47	0	0	300	300	678	46	0	1	1	blank2r.bmp	0	1	+	0	1	blank2r.bmp	252	1	JQQJ	306	3	krank	559	0	0	0	0	0	0	0	0	0	0	0	0	0	0	0	0	0	0	0	0	0	0	0	0	0	0	0	0	0	0	0	0	0	0	0	0	0	0	0
070319	12:43:16	12:50:46	449229	5.0.10.0	5_exp_noRW	10	Rpleas_acq	CS_A	LWWL	DXXD	JQQJ	ZHHZ	CPPC	YFFY	sonnig	gütig	küssen	träumen	vertrauen	genießen	sterben	gierig	krank	töten	versagen	gemein	53pct	acq_USpleas_CSpleas1_noRW	acq23456_noRW	3	48	0	0	300	300	683	50	0	1	1	blank2r.bmp	0	1	+	0	1	blank2r.bmp	252	1	LWWL	306	2	gütig	559	0	0	0	0	0	0	0	0	0	0	0	0	0	0	0	0	0	0	0	0	0	0	0	0	0	0	0	0	0	0	0	0	0	0	0	0	0	0	0
070319	12:43:16	12:50:48	451175	5.0.10.0	5_exp_noRW	10	Rpleas_acq	CS_A	LWWL	DXXD	JQQJ	ZHHZ	CPPC	YFFY	sonnig	gütig	küssen	träumen	vertrauen	genießen	sterben	gierig	krank	töten	versagen	gemein	47pct	acq_USunple_CSunple2_noRW	acq23456_noRW	3	49	0	0	300	300	759	46	0	1	1	blank2r.bmp	0	1	+	0	1	blank2r.bmp	252	1	ZHHZ	306	3	gemein	559	0	0	0	0	0	0	0	0	0	0	0	0	0	0	0	0	0	0	0	0	0	0	0	0	0	0	0	0	0	0	0	0	0	0	0	0	0	0	0
070319	12:43:16	12:50:50	452961	5.0.10.0	5_exp_noRW	10	Rpleas_acq	CS_A	LWWL	DXXD	JQQJ	ZHHZ	CPPC	YFFY	sonnig	gütig	küssen	träumen	vertrauen	genießen	sterben	gierig	krank	töten	versagen	gemein	47pct	acq_USpleas_CSpleas2_noRW	acq23456_noRW	3	50	0	0	300	300	617	50	0	1	1	blank2r.bmp	0	1	+	0	1	blank2r.bmp	252	1	DXXD	306	2	vertrauen	559	0	0	0	0	0	0	0	0	0	0	0	0	0	0	0	0	0	0	0	0	0	0	0	0	0	0	0	0	0	0	0	0	0	0	0	0	0	0	0
070319	12:43:16	12:50:52	455067	5.0.10.0	5_exp_noRW	10	Rpleas_acq	CS_A	LWWL	DXXD	JQQJ	ZHHZ	CPPC	YFFY	sonnig	gütig	küssen	träumen	vertrauen	genießen	sterben	gierig	krank	töten	versagen	gemein	53pct	acq_USunple_CSunple2_noRW	acq23456_noRW	3	51	0	0	300	300	932	46	0	1	1	blank2r.bmp	0	1	+	0	1	blank2r.bmp	252	1	ZHHZ	306	2	versagen	559	0	0	0	0	0	0	0	0	0	0	0	0	0	0	0	0	0	0	0	0	0	0	0	0	0	0	0	0	0	0	0	0	0	0	0	0	0	0	0
070319	12:43:16	12:50:53	456653	5.0.10.0	5_exp_noRW	10	Rpleas_acq	CS_A	LWWL	DXXD	JQQJ	ZHHZ	CPPC	YFFY	sonnig	gütig	küssen	träumen	vertrauen	genießen	sterben	gierig	krank	töten	versagen	gemein	53pct	acq_USunple_CSunple2_noRW	acq23456_noRW	3	52	0	0	300	300	415	46	0	1	1	blank2r.bmp	0	1	+	0	1	blank2r.bmp	252	1	ZHHZ	306	1	töten	559	0	0	0	0	0	0	0	0	0	0	0	0	0	0	0	0	0	0	0	0	0	0	0	0	0	0	0	0	0	0	0	0	0	0	0	0	0	0	0
070319	12:43:16	12:50:56	458998	5.0.10.0	5_exp_noRW	10	Rpleas_acq	CS_A	LWWL	DXXD	JQQJ	ZHHZ	CPPC	YFFY	sonnig	gütig	küssen	träumen	vertrauen	genießen	sterben	gierig	krank	töten	versagen	gemein	53pct	acq_USunple_CSpleas1_noRW	acq23456_noRW	3	53	0	0	300	300	1168	46	0	1	1	blank2r.bmp	0	1	+	0	1	blank2r.bmp	252	1	LWWL	306	2	gierig	559	0	0	0	0	0	0	0	0	0	0	0	0	0	0	0	0	0	0	0	0	0	0	0	0	0	0	0	0	0	0	0	0	0	0	0	0	0	0	0
070319	12:43:16	12:50:57	460864	5.0.10.0	5_exp_noRW	10	Rpleas_acq	CS_A	LWWL	DXXD	JQQJ	ZHHZ	CPPC	YFFY	sonnig	gütig	küssen	träumen	vertrauen	genießen	sterben	gierig	krank	töten	versagen	gemein	53pct	acq_USunple_CSunple2_noRW	acq23456_noRW	3	54	0	0	300	300	694	46	0	1	1	blank2r.bmp	0	1	+	0	1	blank2r.bmp	252	1	ZHHZ	306	2	versagen	559	0	0	0	0	0	0	0	0	0	0	0	0	0	0	0	0	0	0	0	0	0	0	0	0	0	0	0	0	0	0	0	0	0	0	0	0	0	0	0
070319	12:43:16	12:51:00	462984	5.0.10.0	5_exp_noRW	10	Rpleas_acq	CS_A	LWWL	DXXD	JQQJ	ZHHZ	CPPC	YFFY	sonnig	gütig	küssen	träumen	vertrauen	genießen	sterben	gierig	krank	töten	versagen	gemein	47pct	acq_USpleas_CSpleas2_noRW	acq23456_noRW	3	55	0	0	300	300	954	50	0	1	1	blank2r.bmp	0	1	+	0	1	blank2r.bmp	252	1	DXXD	306	3	genießen	559	0	0	0	0	0	0	0	0	0	0	0	0	0	0	0	0	0	0	0	0	0	0	0	0	0	0	0	0	0	0	0	0	0	0	0	0	0	0	0
070319	12:43:16	12:51:02	464996	5.0.10.0	5_exp_noRW	10	Rpleas_acq	CS_A	LWWL	DXXD	JQQJ	ZHHZ	CPPC	YFFY	sonnig	gütig	küssen	träumen	vertrauen	genießen	sterben	gierig	krank	töten	versagen	gemein	53pct	acq_USpleas_CSpleas2_noRW	acq23456_noRW	3	56	0	0	300	300	830	50	0	1	1	blank2r.bmp	0	1	+	0	1	blank2r.bmp	252	1	DXXD	306	3	genießen	559	0	0	0	0	0	0	0	0	0	0	0	0	0	0	0	0	0	0	0	0	0	0	0	0	0	0	0	0	0	0	0	0	0	0	0	0	0	0	0
070319	12:43:16	12:51:03	466675	5.0.10.0	5_exp_noRW	10	Rpleas_acq	CS_A	LWWL	DXXD	JQQJ	ZHHZ	CPPC	YFFY	sonnig	gütig	küssen	träumen	vertrauen	genießen	sterben	gierig	krank	töten	versagen	gemein	47pct	acq_USunple_CSunple1_noRW	acq23456_noRW	3	57	0	0	300	300	506	46	0	1	1	blank2r.bmp	0	1	+	0	1	blank2r.bmp	252	1	JQQJ	306	1	sterben	559	0	0	0	0	0	0	0	0	0	0	0	0	0	0	0	0	0	0	0	0	0	0	0	0	0	0	0	0	0	0	0	0	0	0	0	0	0	0	0
070319	12:43:16	12:51:06	468914	5.0.10.0	5_exp_noRW	10	Rpleas_acq	CS_A	LWWL	DXXD	JQQJ	ZHHZ	CPPC	YFFY	sonnig	gütig	küssen	träumen	vertrauen	genießen	sterben	gierig	krank	töten	versagen	gemein	53pct	acq_USpleas_CSpleas2_noRW	acq23456_noRW	3	58	0	0	300	300	1076	50	0	1	1	blank2r.bmp	0	1	+	0	1	blank2r.bmp	252	1	DXXD	306	2	vertrauen	559	0	0	0	0	0	0	0	0	0	0	0	0	0	0	0	0	0	0	0	0	0	0	0	0	0	0	0	0	0	0	0	0	0	0	0	0	0	0	0
070319	12:43:16	12:51:08	471860	5.0.10.0	5_exp_noRW	10	Rpleas_acq	CS_A	LWWL	DXXD	JQQJ	ZHHZ	CPPC	YFFY	sonnig	gütig	küssen	träumen	vertrauen	genießen	sterben	gierig	krank	töten	versagen	gemein	47pct	acq_USunple_CSunple1_noRW	acq23456_noRW	3	59	0	0	300	300	1760	46	0	1	1	blank2r.bmp	0	1	+	0	1	blank2r.bmp	252	1	JQQJ	306	2	gierig	559	0	0	0	0	0	0	0	0	0	0	0	0	0	0	0	0	0	0	0	0	0	0	0	0	0	0	0	0	0	0	0	0	0	0	0	0	0	0	0
070319	12:43:16	12:51:10	473539	5.0.10.0	5_exp_noRW	10	Rpleas_acq	CS_A	LWWL	DXXD	JQQJ	ZHHZ	CPPC	YFFY	sonnig	gütig	küssen	träumen	vertrauen	genießen	sterben	gierig	krank	töten	versagen	gemein	47pct	acq_USpleas_CSunple2_noRW	acq23456_noRW	3	60	0	0	300	300	505	50	0	1	1	blank2r.bmp	0	1	+	0	1	blank2r.bmp	252	1	ZHHZ	306	3	genießen	559	0	0	0	0	0	0	0	0	0	0	0	0	0	0	0	0	0	0	0	0	0	0	0	0	0	0	0	0	0	0	0	0	0	0	0	0	0	0	0
070319	12:43:16	12:51:12	475312	5.0.10.0	5_exp_noRW	10	Rpleas_acq	CS_A	LWWL	DXXD	JQQJ	ZHHZ	CPPC	YFFY	sonnig	gütig	küssen	träumen	vertrauen	genießen	sterben	gierig	krank	töten	versagen	gemein	47pct	acq_USunple_CSunple1_noRW	acq23456_noRW	3	61	0	0	300	300	604	46	0	1	1	blank2r.bmp	0	1	+	0	1	blank2r.bmp	252	1	JQQJ	306	3	krank	559	0	0	0	0	0	0	0	0	0	0	0	0	0	0	0	0	0	0	0	0	0	0	0	0	0	0	0	0	0	0	0	0	0	0	0	0	0	0	0
070319	12:43:16	12:51:14	476978	5.0.10.0	5_exp_noRW	10	Rpleas_acq	CS_A	LWWL	DXXD	JQQJ	ZHHZ	CPPC	YFFY	sonnig	gütig	küssen	träumen	vertrauen	genießen	sterben	gierig	krank	töten	versagen	gemein	53pct	acq_USunple_CSunple1_noRW	acq23456_noRW	3	62	0	0	300	300	484	46	0	1	1	blank2r.bmp	0	1	+	0	1	blank2r.bmp	252	1	JQQJ	306	3	krank	559	0	0	0	0	0	0	0	0	0	0	0	0	0	0	0	0	0	0	0	0	0	0	0	0	0	0	0	0	0	0	0	0	0	0	0	0	0	0	0
070319	12:43:16	12:51:15	478670	5.0.10.0	5_exp_noRW	10	Rpleas_acq	CS_A	LWWL	DXXD	JQQJ	ZHHZ	CPPC	YFFY	sonnig	gütig	küssen	träumen	vertrauen	genießen	sterben	gierig	krank	töten	versagen	gemein	47pct	acq_USpleas_CSpleas2_noRW	acq23456_noRW	3	63	0	0	300	300	513	50	0	1	1	blank2r.bmp	0	1	+	0	1	blank2r.bmp	252	1	DXXD	306	1	träumen	559	0	0	0	0	0	0	0	0	0	0	0	0	0	0	0	0	0	0	0	0	0	0	0	0	0	0	0	0	0	0	0	0	0	0	0	0	0	0	0
070319	12:43:16	12:51:18	480989	5.0.10.0	5_exp_noRW	10	Rpleas_acq	CS_A	LWWL	DXXD	JQQJ	ZHHZ	CPPC	YFFY	sonnig	gütig	küssen	träumen	vertrauen	genießen	sterben	gierig	krank	töten	versagen	gemein	47pct	acq_USpleas_CSpleas1_noRW	acq23456_noRW	3	64	0	0	300	300	1151	50	0	1	1	blank2r.bmp	0	1	+	0	1	blank2r.bmp	252	1	LWWL	306	3	küssen	559	0	0	0	0	0	0	0	0	0	0	0	0	0	0	0	0	0	0	0	0	0	0	0	0	0	0	0	0	0	0	0	0	0	0	0	0	0	0	0
070319	12:43:16	12:51:19	482735	5.0.10.0	5_exp_noRW	10	Rpleas_acq	CS_A	LWWL	DXXD	JQQJ	ZHHZ	CPPC	YFFY	sonnig	gütig	küssen	träumen	vertrauen	genießen	sterben	gierig	krank	töten	versagen	gemein	47pct	acq_USunple_CSunple1_noRW	acq23456_noRW	3	65	0	0	300	300	559	46	0	1	1	blank2r.bmp	0	1	+	0	1	blank2r.bmp	252	1	JQQJ	306	2	gierig	559	0	0	0	0	0	0	0	0	0	0	0	0	0	0	0	0	0	0	0	0	0	0	0	0	0	0	0	0	0	0	0	0	0	0	0	0	0	0	0
070319	12:43:16	12:51:21	484495	5.0.10.0	5_exp_noRW	10	Rpleas_acq	CS_A	LWWL	DXXD	JQQJ	ZHHZ	CPPC	YFFY	sonnig	gütig	küssen	träumen	vertrauen	genießen	sterben	gierig	krank	töten	versagen	gemein	53pct	acq_USpleas_CSunple2_noRW	acq23456_noRW	3	66	0	0	300	300	592	50	0	1	1	blank2r.bmp	0	1	+	0	1	blank2r.bmp	252	1	ZHHZ	306	1	träumen	559	0	0	0	0	0	0	0	0	0	0	0	0	0	0	0	0	0	0	0	0	0	0	0	0	0	0	0	0	0	0	0	0	0	0	0	0	0	0	0
070319	12:43:16	12:51:23	486414	5.0.10.0	5_exp_noRW	10	Rpleas_acq	CS_A	LWWL	DXXD	JQQJ	ZHHZ	CPPC	YFFY	sonnig	gütig	küssen	träumen	vertrauen	genießen	sterben	gierig	krank	töten	versagen	gemein	47pct	acq_USpleas_CSpleas2_noRW	acq23456_noRW	3	67	0	0	300	300	754	50	0	1	1	blank2r.bmp	0	1	+	0	1	blank2r.bmp	252	1	DXXD	306	3	genießen	559	0	0	0	0	0	0	0	0	0	0	0	0	0	0	0	0	0	0	0	0	0	0	0	0	0	0	0	0	0	0	0	0	0	0	0	0	0	0	0
070319	12:43:16	12:51:25	488027	5.0.10.0	5_exp_noRW	10	Rpleas_acq	CS_A	LWWL	DXXD	JQQJ	ZHHZ	CPPC	YFFY	sonnig	gütig	küssen	träumen	vertrauen	genießen	sterben	gierig	krank	töten	versagen	gemein	53pct	acq_USpleas_CSunple1_noRW	acq23456_noRW	3	68	0	0	300	300	429	50	0	1	1	blank2r.bmp	0	1	+	0	1	blank2r.bmp	252	1	JQQJ	306	3	küssen	559	0	0	0	0	0	0	0	0	0	0	0	0	0	0	0	0	0	0	0	0	0	0	0	0	0	0	0	0	0	0	0	0	0	0	0	0	0	0	0
070319	12:43:16	12:51:27	490252	5.0.10.0	5_exp_noRW	10	Rpleas_acq	CS_A	LWWL	DXXD	JQQJ	ZHHZ	CPPC	YFFY	sonnig	gütig	küssen	träumen	vertrauen	genießen	sterben	gierig	krank	töten	versagen	gemein	47pct	acq_USunple_CSunple2_noRW	acq23456_noRW	3	69	0	0	300	300	1039	46	0	1	1	blank2r.bmp	0	1	+	0	1	blank2r.bmp	252	1	ZHHZ	306	3	gemein	559	0	0	0	0	0	0	0	0	0	0	0	0	0	0	0	0	0	0	0	0	0	0	0	0	0	0	0	0	0	0	0	0	0	0	0	0	0	0	0
070319	12:43:16	12:51:29	492052	5.0.10.0	5_exp_noRW	10	Rpleas_acq	CS_A	LWWL	DXXD	JQQJ	ZHHZ	CPPC	YFFY	sonnig	gütig	küssen	träumen	vertrauen	genießen	sterben	gierig	krank	töten	versagen	gemein	47pct	acq_USpleas_CSpleas2_noRW	acq23456_noRW	3	70	0	0	300	300	630	50	0	1	1	blank2r.bmp	0	1	+	0	1	blank2r.bmp	252	1	DXXD	306	2	vertrauen	559	0	0	0	0	0	0	0	0	0	0	0	0	0	0	0	0	0	0	0	0	0	0	0	0	0	0	0	0	0	0	0	0	0	0	0	0	0	0	0
070319	12:43:16	12:51:31	494157	5.0.10.0	5_exp_noRW	10	Rpleas_acq	CS_A	LWWL	DXXD	JQQJ	ZHHZ	CPPC	YFFY	sonnig	gütig	küssen	träumen	vertrauen	genießen	sterben	gierig	krank	töten	versagen	gemein	53pct	acq_USpleas_CSpleas2_noRW	acq23456_noRW	3	71	0	0	300	300	919	50	0	1	1	blank2r.bmp	0	1	+	0	1	blank2r.bmp	252	1	DXXD	306	1	träumen	559	0	0	0	0	0	0	0	0	0	0	0	0	0	0	0	0	0	0	0	0	0	0	0	0	0	0	0	0	0	0	0	0	0	0	0	0	0	0	0
070319	12:43:16	12:51:33	496037	5.0.10.0	5_exp_noRW	10	Rpleas_acq	CS_A	LWWL	DXXD	JQQJ	ZHHZ	CPPC	YFFY	sonnig	gütig	küssen	träumen	vertrauen	genießen	sterben	gierig	krank	töten	versagen	gemein	47pct	acq_USunple_CSunple2_noRW	acq23456_noRW	3	72	0	0	300	300	701	46	0	1	1	blank2r.bmp	0	1	+	0	1	blank2r.bmp	252	1	ZHHZ	306	3	gemein	559	0	0	0	0	0	0	0	0	0	0	0	0	0	0	0	0	0	0	0	0	0	0	0	0	0	0	0	0	0	0	0	0	0	0	0	0	0	0	0
070319	12:43:16	12:51:34	497649	5.0.10.0	5_exp_noRW	10	Rpleas_acq	CS_A	LWWL	DXXD	JQQJ	ZHHZ	CPPC	YFFY	sonnig	gütig	küssen	träumen	vertrauen	genießen	sterben	gierig	krank	töten	versagen	gemein	47pct	acq_USunple_CSpleas2_noRW	acq23456_noRW	3	73	0	0	300	300	434	46	0	1	1	blank2r.bmp	0	1	+	0	1	blank2r.bmp	252	1	DXXD	306	3	gemein	559	0	0	0	0	0	0	0	0	0	0	0	0	0	0	0	0	0	0	0	0	0	0	0	0	0	0	0	0	0	0	0	0	0	0	0	0	0	0	0
070319	12:43:16	12:51:36	499382	5.0.10.0	5_exp_noRW	10	Rpleas_acq	CS_A	LWWL	DXXD	JQQJ	ZHHZ	CPPC	YFFY	sonnig	gütig	küssen	träumen	vertrauen	genießen	sterben	gierig	krank	töten	versagen	gemein	53pct	acq_USunple_CSunple1_noRW	acq23456_noRW	3	74	0	0	300	300	547	46	0	1	1	blank2r.bmp	0	1	+	0	1	blank2r.bmp	252	1	JQQJ	306	1	sterben	559	0	0	0	0	0	0	0	0	0	0	0	0	0	0	0	0	0	0	0	0	0	0	0	0	0	0	0	0	0	0	0	0	0	0	0	0	0	0	0
070319	12:43:16	12:51:38	501341	5.0.10.0	5_exp_noRW	10	Rpleas_acq	CS_A	LWWL	DXXD	JQQJ	ZHHZ	CPPC	YFFY	sonnig	gütig	küssen	träumen	vertrauen	genießen	sterben	gierig	krank	töten	versagen	gemein	53pct	acq_USunple_CSunple2_noRW	acq23456_noRW	3	75	0	0	300	300	774	46	0	1	1	blank2r.bmp	0	1	+	0	1	blank2r.bmp	252	1	ZHHZ	306	2	versagen	559	0	0	0	0	0	0	0	0	0	0	0	0	0	0	0	0	0	0	0	0	0	0	0	0	0	0	0	0	0	0	0	0	0	0	0	0	0	0	0
070319	12:43:16	12:51:40	503287	5.0.10.0	5_exp_noRW	10	Rpleas_acq	CS_A	LWWL	DXXD	JQQJ	ZHHZ	CPPC	YFFY	sonnig	gütig	küssen	träumen	vertrauen	genießen	sterben	gierig	krank	töten	versagen	gemein	53pct	acq_USpleas_CSpleas1_noRW	acq23456_noRW	3	76	0	0	300	300	784	50	0	1	1	blank2r.bmp	0	1	+	0	1	blank2r.bmp	252	1	LWWL	306	1	sonnig	559	0	0	0	0	0	0	0	0	0	0	0	0	0	0	0	0	0	0	0	0	0	0	0	0	0	0	0	0	0	0	0	0	0	0	0	0	0	0	0
070319	12:43:16	12:51:42	504966	5.0.10.0	5_exp_noRW	10	Rpleas_acq	CS_A	LWWL	DXXD	JQQJ	ZHHZ	CPPC	YFFY	sonnig	gütig	küssen	träumen	vertrauen	genießen	sterben	gierig	krank	töten	versagen	gemein	53pct	acq_USpleas_CSpleas1_noRW	acq23456_noRW	3	77	0	0	300	300	478	50	0	1	1	blank2r.bmp	0	1	+	0	1	blank2r.bmp	252	1	LWWL	306	3	küssen	559	0	0	0	0	0	0	0	0	0	0	0	0	0	0	0	0	0	0	0	0	0	0	0	0	0	0	0	0	0	0	0	0	0	0	0	0	0	0	0
070319	12:43:16	12:51:44	506926	5.0.10.0	5_exp_noRW	10	Rpleas_acq	CS_A	LWWL	DXXD	JQQJ	ZHHZ	CPPC	YFFY	sonnig	gütig	küssen	träumen	vertrauen	genießen	sterben	gierig	krank	töten	versagen	gemein	47pct	acq_USpleas_CSpleas1_noRW	acq23456_noRW	3	78	0	0	300	300	789	50	0	1	1	blank2r.bmp	0	1	+	0	1	blank2r.bmp	252	1	LWWL	306	2	gütig	559	0	0	0	0	0	0	0	0	0	0	0	0	0	0	0	0	0	0	0	0	0	0	0	0	0	0	0	0	0	0	0	0	0	0	0	0	0	0	0
070319	12:43:16	12:51:45	508751	5.0.10.0	5_exp_noRW	10	Rpleas_acq	CS_A	LWWL	DXXD	JQQJ	ZHHZ	CPPC	YFFY	sonnig	gütig	küssen	träumen	vertrauen	genießen	sterben	gierig	krank	töten	versagen	gemein	47pct	acq_USunple_CSpleas1_noRW	acq23456_noRW	3	79	0	0	300	300	447	50	0	0	1	blank2r.bmp	0	1	+	0	1	blank2r.bmp	252	1	LWWL	306	1	sterben	559	1	FEHLER	1039	0	0	0	0	0	0	0	0	0	0	0	0	0	0	0	0	0	0	0	0	0	0	0	0	0	0	0	0	0	0	0	0	0	0	0	0
070319	12:43:16	12:51:47	510244	5.0.10.0	5_exp_noRW	10	Rpleas_acq	CS_A	LWWL	DXXD	JQQJ	ZHHZ	CPPC	YFFY	sonnig	gütig	küssen	träumen	vertrauen	genießen	sterben	gierig	krank	töten	versagen	gemein	53pct	acq_USunple_CSunple2_noRW	acq23456_noRW	3	80	0	0	300	300	526	46	0	1	1	blank2r.bmp	0	1	+	0	1	blank2r.bmp	252	1	ZHHZ	306	1	töten	559	0	0	0	0	0	0	0	0	0	0	0	0	0	0	0	0	0	0	0	0	0	0	0	0	0	0	0	0	0	0	0	0	0	0	0	0	0	0	0
070319	12:43:16	12:52:21	544564	5.0.10.0	5_exp_noRW	10	Rpleas_acq	CS_A	LWWL	DXXD	JQQJ	ZHHZ	CPPC	YFFY	sonnig	gütig	küssen	träumen	vertrauen	genießen	sterben	gierig	krank	töten	versagen	gemein	53pct	acq_USunple_CSunple1_noRW	acq23456_noRW	4	1	0	0	300	300	2000	0	0	0	1	blank2r.bmp	0	1	+	0	1	blank2r.bmp	252	1	JQQJ	306	1	sterben	559	1	FEHLER	2598	1	Schneller!	2598	0	0	0	0	0	0	0	0	0	0	0	0	0	0	0	0	0	0	0	0	0	0	0	0	0	0	0	0	0	0	0	0	0
