date	time	script.currenttime	script.elapsedtime	build	script.currentexpt	subject	expressions.LRpleas_acq	expressions.conditionCS_A	expressions.CSpleas_1	expressions.CSpleas_2	expressions.CSunple_1	expressions.CSunple_2	expressions.distractor_1	expressions.distractor_2	expressions.US_pleas1	expressions.US_pleas2	expressions.US_pleas3	expressions.US_pleas4	expressions.US_pleas5	expressions.US_pleas6	expressions.US_unple1	expressions.US_unple2	expressions.US_unple3	expressions.US_unple4	expressions.US_unple5	expressions.US_unple6	counter.positions_noRW	trialcode	blockcode	blocknum	trialnum	windowcenter	inwindow	pretrialpause	posttrialpause	latency	response	expressions.correctedscore	correct	stimulusnumber1	stimulusitem1	stimulusonset1	stimulusnumber2	stimulusitem2	stimulusonset2	stimulusnumber3	stimulusitem3	stimulusonset3	stimulusnumber4	stimulusitem4	stimulusonset4	stimulusnumber5	stimulusitem5	stimulusonset5	stimulusnumber6	stimulusitem6	stimulusonset6	stimulusnumber7	stimulusitem7	stimulusonset7	stimulusnumber8	stimulusitem8	stimulusonset8	stimulusnumber9	stimulusitem9	stimulusonset9	stimulusnumber10	stimulusitem10	stimulusonset10	stimulusnumber11	stimulusitem11	stimulusonset11	stimulusnumber12	stimulusitem12	stimulusonset12	stimulusnumber13	stimulusitem13	stimulusonset13	stimulusnumber14	stimulusitem14	stimulusonset14	stimulusnumber15	stimulusitem15	stimulusonset15	stimulusnumber16	stimulusitem16	stimulusonset16	stimulusnumber17	stimulusitem17	stimulusonset17	stimulusnumber18	stimulusitem18	stimulusonset18
081919	12:21:09	12:21:52	42195	5.0.10.0	5_exp_noRW	102	Rpleas_acq	CS_B	BZZB	MQQM	GWWG	JXXJ	YDDY	VKKV	schön	spielen	fair	retten	ehrlich	treu	schlecht	strafen	faul	rächen	eitel	tot	53pct	acq_USpleas_CSpleas1_noRW	acq1_noRW	1	1	0	0	300	300	1432	46	0	0	1	blank2r.bmp	0	1	+	0	1	blank2r.bmp	252	1	BZZB	306	2	spielen	559	1	FEHLER	2025	0	0	0	0	0	0	0	0	0	0	0	0	0	0	0	0	0	0	0	0	0	0	0	0	0	0	0	0	0	0	0	0	0	0	0	0
081919	12:21:09	12:21:53	43915	5.0.10.0	5_exp_noRW	102	Rpleas_acq	CS_B	BZZB	MQQM	GWWG	JXXJ	YDDY	VKKV	schön	spielen	fair	retten	ehrlich	treu	schlecht	strafen	faul	rächen	eitel	tot	47pct	acq_USunple_CSunple2_noRW	acq1_noRW	1	2	0	0	300	300	768	46	0	1	1	blank2r.bmp	0	1	+	0	1	blank2r.bmp	252	1	JXXJ	306	2	eitel	559	0	0	0	0	0	0	0	0	0	0	0	0	0	0	0	0	0	0	0	0	0	0	0	0	0	0	0	0	0	0	0	0	0	0	0	0	0	0	0
081919	12:21:09	12:21:55	45581	5.0.10.0	5_exp_noRW	102	Rpleas_acq	CS_B	BZZB	MQQM	GWWG	JXXJ	YDDY	VKKV	schön	spielen	fair	retten	ehrlich	treu	schlecht	strafen	faul	rächen	eitel	tot	47pct	acq_USunple_CSunple1_noRW	acq1_noRW	1	3	0	0	300	300	502	46	0	1	1	blank2r.bmp	0	1	+	0	1	blank2r.bmp	252	1	GWWG	306	1	schlecht	559	0	0	0	0	0	0	0	0	0	0	0	0	0	0	0	0	0	0	0	0	0	0	0	0	0	0	0	0	0	0	0	0	0	0	0	0	0	0	0
081919	12:21:09	12:21:57	47140	5.0.10.0	5_exp_noRW	102	Rpleas_acq	CS_B	BZZB	MQQM	GWWG	JXXJ	YDDY	VKKV	schön	spielen	fair	retten	ehrlich	treu	schlecht	strafen	faul	rächen	eitel	tot	47pct	acq_USunple_CSunple2_noRW	acq1_noRW	1	4	0	0	300	300	383	46	0	1	1	blank2r.bmp	0	1	+	0	1	blank2r.bmp	252	1	JXXJ	306	1	rächen	559	0	0	0	0	0	0	0	0	0	0	0	0	0	0	0	0	0	0	0	0	0	0	0	0	0	0	0	0	0	0	0	0	0	0	0	0	0	0	0
081919	12:21:09	12:21:58	48579	5.0.10.0	5_exp_noRW	102	Rpleas_acq	CS_B	BZZB	MQQM	GWWG	JXXJ	YDDY	VKKV	schön	spielen	fair	retten	ehrlich	treu	schlecht	strafen	faul	rächen	eitel	tot	47pct	acq_USunple_CSpleas1_noRW	acq1_noRW	1	5	0	0	300	300	254	46	0	1	1	blank2r.bmp	0	1	+	0	1	blank2r.bmp	252	1	BZZB	306	3	faul	559	0	0	0	0	0	0	0	0	0	0	0	0	0	0	0	0	0	0	0	0	0	0	0	0	0	0	0	0	0	0	0	0	0	0	0	0	0	0	0
081919	12:21:09	12:22:00	50152	5.0.10.0	5_exp_noRW	102	Rpleas_acq	CS_B	BZZB	MQQM	GWWG	JXXJ	YDDY	VKKV	schön	spielen	fair	retten	ehrlich	treu	schlecht	strafen	faul	rächen	eitel	tot	53pct	acq_USunple_CSunple2_noRW	acq1_noRW	1	6	0	0	300	300	401	46	0	1	1	blank2r.bmp	0	1	+	0	1	blank2r.bmp	252	1	JXXJ	306	3	tot	559	0	0	0	0	0	0	0	0	0	0	0	0	0	0	0	0	0	0	0	0	0	0	0	0	0	0	0	0	0	0	0	0	0	0	0	0	0	0	0
081919	12:21:09	12:22:01	51751	5.0.10.0	5_exp_noRW	102	Rpleas_acq	CS_B	BZZB	MQQM	GWWG	JXXJ	YDDY	VKKV	schön	spielen	fair	retten	ehrlich	treu	schlecht	strafen	faul	rächen	eitel	tot	53pct	acq_USunple_CSpleas2_noRW	acq1_noRW	1	7	0	0	300	300	422	46	0	1	1	blank2r.bmp	0	1	+	0	1	blank2r.bmp	252	1	MQQM	306	1	rächen	559	0	0	0	0	0	0	0	0	0	0	0	0	0	0	0	0	0	0	0	0	0	0	0	0	0	0	0	0	0	0	0	0	0	0	0	0	0	0	0
081919	12:21:09	12:22:03	53324	5.0.10.0	5_exp_noRW	102	Rpleas_acq	CS_B	BZZB	MQQM	GWWG	JXXJ	YDDY	VKKV	schön	spielen	fair	retten	ehrlich	treu	schlecht	strafen	faul	rächen	eitel	tot	53pct	acq_USunple_CSunple1_noRW	acq1_noRW	1	8	0	0	300	300	395	46	0	1	1	blank2r.bmp	0	1	+	0	1	blank2r.bmp	252	1	GWWG	306	3	faul	559	0	0	0	0	0	0	0	0	0	0	0	0	0	0	0	0	0	0	0	0	0	0	0	0	0	0	0	0	0	0	0	0	0	0	0	0	0	0	0
081919	12:21:09	12:22:04	55030	5.0.10.0	5_exp_noRW	102	Rpleas_acq	CS_B	BZZB	MQQM	GWWG	JXXJ	YDDY	VKKV	schön	spielen	fair	retten	ehrlich	treu	schlecht	strafen	faul	rächen	eitel	tot	47pct	acq_USpleas_CSpleas1_noRW	acq1_noRW	1	9	0	0	300	300	309	46	0	0	1	blank2r.bmp	0	1	+	0	1	blank2r.bmp	252	1	BZZB	306	1	schön	559	1	FEHLER	906	0	0	0	0	0	0	0	0	0	0	0	0	0	0	0	0	0	0	0	0	0	0	0	0	0	0	0	0	0	0	0	0	0	0	0	0
081919	12:21:09	12:22:06	56949	5.0.10.0	5_exp_noRW	102	Rpleas_acq	CS_B	BZZB	MQQM	GWWG	JXXJ	YDDY	VKKV	schön	spielen	fair	retten	ehrlich	treu	schlecht	strafen	faul	rächen	eitel	tot	53pct	acq_USpleas_CSpleas2_noRW	acq1_noRW	1	10	0	0	300	300	960	50	0	1	1	blank2r.bmp	0	1	+	0	1	blank2r.bmp	252	1	MQQM	306	3	treu	559	0	0	0	0	0	0	0	0	0	0	0	0	0	0	0	0	0	0	0	0	0	0	0	0	0	0	0	0	0	0	0	0	0	0	0	0	0	0	0
081919	12:21:09	12:22:08	58695	5.0.10.0	5_exp_noRW	102	Rpleas_acq	CS_B	BZZB	MQQM	GWWG	JXXJ	YDDY	VKKV	schön	spielen	fair	retten	ehrlich	treu	schlecht	strafen	faul	rächen	eitel	tot	47pct	acq_USpleas_CSunple2_noRW	acq1_noRW	1	11	0	0	300	300	576	50	0	1	1	blank2r.bmp	0	1	+	0	1	blank2r.bmp	252	1	JXXJ	306	1	retten	559	0	0	0	0	0	0	0	0	0	0	0	0	0	0	0	0	0	0	0	0	0	0	0	0	0	0	0	0	0	0	0	0	0	0	0	0	0	0	0
081919	12:21:09	12:22:10	60334	5.0.10.0	5_exp_noRW	102	Rpleas_acq	CS_B	BZZB	MQQM	GWWG	JXXJ	YDDY	VKKV	schön	spielen	fair	retten	ehrlich	treu	schlecht	strafen	faul	rächen	eitel	tot	47pct	acq_USunple_CSunple2_noRW	acq1_noRW	1	12	0	0	300	300	463	46	0	1	1	blank2r.bmp	0	1	+	0	1	blank2r.bmp	252	1	JXXJ	306	1	rächen	559	0	0	0	0	0	0	0	0	0	0	0	0	0	0	0	0	0	0	0	0	0	0	0	0	0	0	0	0	0	0	0	0	0	0	0	0	0	0	0
081919	12:21:09	12:22:12	62134	5.0.10.0	5_exp_noRW	102	Rpleas_acq	CS_B	BZZB	MQQM	GWWG	JXXJ	YDDY	VKKV	schön	spielen	fair	retten	ehrlich	treu	schlecht	strafen	faul	rächen	eitel	tot	47pct	acq_USunple_CSunple1_noRW	acq1_noRW	1	13	0	0	300	300	623	46	0	1	1	blank2r.bmp	0	1	+	0	1	blank2r.bmp	252	1	GWWG	306	2	strafen	559	0	0	0	0	0	0	0	0	0	0	0	0	0	0	0	0	0	0	0	0	0	0	0	0	0	0	0	0	0	0	0	0	0	0	0	0	0	0	0
081919	12:21:09	12:22:13	63920	5.0.10.0	5_exp_noRW	102	Rpleas_acq	CS_B	BZZB	MQQM	GWWG	JXXJ	YDDY	VKKV	schön	spielen	fair	retten	ehrlich	treu	schlecht	strafen	faul	rächen	eitel	tot	47pct	acq_USpleas_CSpleas2_noRW	acq1_noRW	1	14	0	0	300	300	613	50	0	1	1	blank2r.bmp	0	1	+	0	1	blank2r.bmp	252	1	MQQM	306	2	ehrlich	559	0	0	0	0	0	0	0	0	0	0	0	0	0	0	0	0	0	0	0	0	0	0	0	0	0	0	0	0	0	0	0	0	0	0	0	0	0	0	0
081919	12:21:09	12:22:15	65612	5.0.10.0	5_exp_noRW	102	Rpleas_acq	CS_B	BZZB	MQQM	GWWG	JXXJ	YDDY	VKKV	schön	spielen	fair	retten	ehrlich	treu	schlecht	strafen	faul	rächen	eitel	tot	47pct	acq_USunple_CSunple1_noRW	acq1_noRW	1	15	0	0	300	300	531	46	0	1	1	blank2r.bmp	0	1	+	0	1	blank2r.bmp	252	1	GWWG	306	3	faul	559	0	0	0	0	0	0	0	0	0	0	0	0	0	0	0	0	0	0	0	0	0	0	0	0	0	0	0	0	0	0	0	0	0	0	0	0	0	0	0
081919	12:21:09	12:22:17	67598	5.0.10.0	5_exp_noRW	102	Rpleas_acq	CS_B	BZZB	MQQM	GWWG	JXXJ	YDDY	VKKV	schön	spielen	fair	retten	ehrlich	treu	schlecht	strafen	faul	rächen	eitel	tot	47pct	acq_USpleas_CSpleas1_noRW	acq1_noRW	1	16	0	0	300	300	815	50	0	1	1	blank2r.bmp	0	1	+	0	1	blank2r.bmp	252	1	BZZB	306	3	fair	559	0	0	0	0	0	0	0	0	0	0	0	0	0	0	0	0	0	0	0	0	0	0	0	0	0	0	0	0	0	0	0	0	0	0	0	0	0	0	0
081919	12:21:09	12:22:19	69397	5.0.10.0	5_exp_noRW	102	Rpleas_acq	CS_B	BZZB	MQQM	GWWG	JXXJ	YDDY	VKKV	schön	spielen	fair	retten	ehrlich	treu	schlecht	strafen	faul	rächen	eitel	tot	53pct	acq_USpleas_CSpleas2_noRW	acq1_noRW	1	17	0	0	300	300	628	50	0	1	1	blank2r.bmp	0	1	+	0	1	blank2r.bmp	252	1	MQQM	306	1	retten	559	0	0	0	0	0	0	0	0	0	0	0	0	0	0	0	0	0	0	0	0	0	0	0	0	0	0	0	0	0	0	0	0	0	0	0	0	0	0	0
081919	12:21:09	12:22:21	71530	5.0.10.0	5_exp_noRW	102	Rpleas_acq	CS_B	BZZB	MQQM	GWWG	JXXJ	YDDY	VKKV	schön	spielen	fair	retten	ehrlich	treu	schlecht	strafen	faul	rächen	eitel	tot	53pct	acq_USpleas_CSpleas2_noRW	acq1_noRW	1	18	0	0	300	300	951	50	0	1	1	blank2r.bmp	0	1	+	0	1	blank2r.bmp	252	1	MQQM	306	3	treu	559	0	0	0	0	0	0	0	0	0	0	0	0	0	0	0	0	0	0	0	0	0	0	0	0	0	0	0	0	0	0	0	0	0	0	0	0	0	0	0
081919	12:21:09	12:22:23	73143	5.0.10.0	5_exp_noRW	102	Rpleas_acq	CS_B	BZZB	MQQM	GWWG	JXXJ	YDDY	VKKV	schön	spielen	fair	retten	ehrlich	treu	schlecht	strafen	faul	rächen	eitel	tot	53pct	acq_USpleas_CSunple1_noRW	acq1_noRW	1	19	0	0	300	300	439	50	0	1	1	blank2r.bmp	0	1	+	0	1	blank2r.bmp	252	1	GWWG	306	3	fair	559	0	0	0	0	0	0	0	0	0	0	0	0	0	0	0	0	0	0	0	0	0	0	0	0	0	0	0	0	0	0	0	0	0	0	0	0	0	0	0
081919	12:21:09	12:22:24	74889	5.0.10.0	5_exp_noRW	102	Rpleas_acq	CS_B	BZZB	MQQM	GWWG	JXXJ	YDDY	VKKV	schön	spielen	fair	retten	ehrlich	treu	schlecht	strafen	faul	rächen	eitel	tot	47pct	acq_USpleas_CSpleas1_noRW	acq1_noRW	1	20	0	0	300	300	578	50	0	1	1	blank2r.bmp	0	1	+	0	1	blank2r.bmp	252	1	BZZB	306	2	spielen	559	0	0	0	0	0	0	0	0	0	0	0	0	0	0	0	0	0	0	0	0	0	0	0	0	0	0	0	0	0	0	0	0	0	0	0	0	0	0	0
081919	12:21:09	12:22:26	76528	5.0.10.0	5_exp_noRW	102	Rpleas_acq	CS_B	BZZB	MQQM	GWWG	JXXJ	YDDY	VKKV	schön	spielen	fair	retten	ehrlich	treu	schlecht	strafen	faul	rächen	eitel	tot	47pct	acq_USpleas_CSpleas2_noRW	acq1_noRW	1	21	0	0	300	300	463	50	0	1	1	blank2r.bmp	0	1	+	0	1	blank2r.bmp	252	1	MQQM	306	2	ehrlich	559	0	0	0	0	0	0	0	0	0	0	0	0	0	0	0	0	0	0	0	0	0	0	0	0	0	0	0	0	0	0	0	0	0	0	0	0	0	0	0
081919	12:21:09	12:22:28	78447	5.0.10.0	5_exp_noRW	102	Rpleas_acq	CS_B	BZZB	MQQM	GWWG	JXXJ	YDDY	VKKV	schön	spielen	fair	retten	ehrlich	treu	schlecht	strafen	faul	rächen	eitel	tot	47pct	acq_USpleas_CSunple1_noRW	acq1_noRW	1	22	0	0	300	300	732	50	0	1	1	blank2r.bmp	0	1	+	0	1	blank2r.bmp	252	1	GWWG	306	1	schön	559	0	0	0	0	0	0	0	0	0	0	0	0	0	0	0	0	0	0	0	0	0	0	0	0	0	0	0	0	0	0	0	0	0	0	0	0	0	0	0
081919	12:21:09	12:22:30	80340	5.0.10.0	5_exp_noRW	102	Rpleas_acq	CS_B	BZZB	MQQM	GWWG	JXXJ	YDDY	VKKV	schön	spielen	fair	retten	ehrlich	treu	schlecht	strafen	faul	rächen	eitel	tot	53pct	acq_USpleas_CSpleas2_noRW	acq1_noRW	1	23	0	0	300	300	728	50	0	1	1	blank2r.bmp	0	1	+	0	1	blank2r.bmp	252	1	MQQM	306	1	retten	559	0	0	0	0	0	0	0	0	0	0	0	0	0	0	0	0	0	0	0	0	0	0	0	0	0	0	0	0	0	0	0	0	0	0	0	0	0	0	0
081919	12:21:09	12:22:32	82166	5.0.10.0	5_exp_noRW	102	Rpleas_acq	CS_B	BZZB	MQQM	GWWG	JXXJ	YDDY	VKKV	schön	spielen	fair	retten	ehrlich	treu	schlecht	strafen	faul	rächen	eitel	tot	53pct	acq_USunple_CSunple1_noRW	acq1_noRW	1	24	0	0	300	300	656	46	0	1	1	blank2r.bmp	0	1	+	0	1	blank2r.bmp	252	1	GWWG	306	2	strafen	559	0	0	0	0	0	0	0	0	0	0	0	0	0	0	0	0	0	0	0	0	0	0	0	0	0	0	0	0	0	0	0	0	0	0	0	0	0	0	0
081919	12:21:09	12:22:33	83951	5.0.10.0	5_exp_noRW	102	Rpleas_acq	CS_B	BZZB	MQQM	GWWG	JXXJ	YDDY	VKKV	schön	spielen	fair	retten	ehrlich	treu	schlecht	strafen	faul	rächen	eitel	tot	53pct	acq_USunple_CSpleas1_noRW	acq1_noRW	1	25	0	0	300	300	615	46	0	1	1	blank2r.bmp	0	1	+	0	1	blank2r.bmp	252	1	BZZB	306	1	schlecht	559	0	0	0	0	0	0	0	0	0	0	0	0	0	0	0	0	0	0	0	0	0	0	0	0	0	0	0	0	0	0	0	0	0	0	0	0	0	0	0
081919	12:21:09	12:22:35	85791	5.0.10.0	5_exp_noRW	102	Rpleas_acq	CS_B	BZZB	MQQM	GWWG	JXXJ	YDDY	VKKV	schön	spielen	fair	retten	ehrlich	treu	schlecht	strafen	faul	rächen	eitel	tot	53pct	acq_USpleas_CSunple2_noRW	acq1_noRW	1	26	0	0	300	300	653	50	0	1	1	blank2r.bmp	0	1	+	0	1	blank2r.bmp	252	1	JXXJ	306	2	ehrlich	559	0	0	0	0	0	0	0	0	0	0	0	0	0	0	0	0	0	0	0	0	0	0	0	0	0	0	0	0	0	0	0	0	0	0	0	0	0	0	0
081919	12:21:09	12:22:37	87803	5.0.10.0	5_exp_noRW	102	Rpleas_acq	CS_B	BZZB	MQQM	GWWG	JXXJ	YDDY	VKKV	schön	spielen	fair	retten	ehrlich	treu	schlecht	strafen	faul	rächen	eitel	tot	53pct	acq_USunple_CSunple2_noRW	acq1_noRW	1	27	0	0	300	300	630	50	0	0	1	blank2r.bmp	0	1	+	0	1	blank2r.bmp	252	1	JXXJ	306	2	eitel	559	1	FEHLER	1226	0	0	0	0	0	0	0	0	0	0	0	0	0	0	0	0	0	0	0	0	0	0	0	0	0	0	0	0	0	0	0	0	0	0	0	0
081919	12:21:09	12:22:41	91282	5.0.10.0	5_exp_noRW	102	Rpleas_acq	CS_B	BZZB	MQQM	GWWG	JXXJ	YDDY	VKKV	schön	spielen	fair	retten	ehrlich	treu	schlecht	strafen	faul	rächen	eitel	tot	47pct	acq_USunple_CSunple1_noRW	acq1_noRW	1	28	0	0	300	300	2000	0	0	0	1	blank2r.bmp	0	1	+	0	1	blank2r.bmp	252	1	GWWG	306	1	schlecht	559	1	FEHLER	2598	1	Schneller!	2598	0	0	0	0	0	0	0	0	0	0	0	0	0	0	0	0	0	0	0	0	0	0	0	0	0	0	0	0	0	0	0	0	0
081919	12:21:09	12:22:42	92748	5.0.10.0	5_exp_noRW	102	Rpleas_acq	CS_B	BZZB	MQQM	GWWG	JXXJ	YDDY	VKKV	schön	spielen	fair	retten	ehrlich	treu	schlecht	strafen	faul	rächen	eitel	tot	47pct	acq_USunple_CSunple1_noRW	acq1_noRW	1	29	0	0	300	300	565	46	0	1	1	blank2r.bmp	0	1	+	0	1	blank2r.bmp	252	1	GWWG	306	2	strafen	559	0	0	0	0	0	0	0	0	0	0	0	0	0	0	0	0	0	0	0	0	0	0	0	0	0	0	0	0	0	0	0	0	0	0	0	0	0	0	0
081919	12:21:09	12:22:44	94427	5.0.10.0	5_exp_noRW	102	Rpleas_acq	CS_B	BZZB	MQQM	GWWG	JXXJ	YDDY	VKKV	schön	spielen	fair	retten	ehrlich	treu	schlecht	strafen	faul	rächen	eitel	tot	47pct	acq_USpleas_CSpleas1_noRW	acq1_noRW	1	30	0	0	300	300	495	50	0	1	1	blank2r.bmp	0	1	+	0	1	blank2r.bmp	252	1	BZZB	306	3	fair	559	0	0	0	0	0	0	0	0	0	0	0	0	0	0	0	0	0	0	0	0	0	0	0	0	0	0	0	0	0	0	0	0	0	0	0	0	0	0	0
081919	12:21:09	12:22:45	96053	5.0.10.0	5_exp_noRW	102	Rpleas_acq	CS_B	BZZB	MQQM	GWWG	JXXJ	YDDY	VKKV	schön	spielen	fair	retten	ehrlich	treu	schlecht	strafen	faul	rächen	eitel	tot	47pct	acq_USpleas_CSpleas1_noRW	acq1_noRW	1	31	0	0	300	300	460	50	0	1	1	blank2r.bmp	0	1	+	0	1	blank2r.bmp	252	1	BZZB	306	1	schön	559	0	0	0	0	0	0	0	0	0	0	0	0	0	0	0	0	0	0	0	0	0	0	0	0	0	0	0	0	0	0	0	0	0	0	0	0	0	0	0
081919	12:21:09	12:22:47	97733	5.0.10.0	5_exp_noRW	102	Rpleas_acq	CS_B	BZZB	MQQM	GWWG	JXXJ	YDDY	VKKV	schön	spielen	fair	retten	ehrlich	treu	schlecht	strafen	faul	rächen	eitel	tot	47pct	acq_USunple_CSunple2_noRW	acq1_noRW	1	32	0	0	300	300	504	46	0	1	1	blank2r.bmp	0	1	+	0	1	blank2r.bmp	252	1	JXXJ	306	3	tot	559	0	0	0	0	0	0	0	0	0	0	0	0	0	0	0	0	0	0	0	0	0	0	0	0	0	0	0	0	0	0	0	0	0	0	0	0	0	0	0
081919	12:21:09	12:22:49	99545	5.0.10.0	5_exp_noRW	102	Rpleas_acq	CS_B	BZZB	MQQM	GWWG	JXXJ	YDDY	VKKV	schön	spielen	fair	retten	ehrlich	treu	schlecht	strafen	faul	rächen	eitel	tot	53pct	acq_USpleas_CSpleas2_noRW	acq1_noRW	1	33	0	0	300	300	641	50	0	1	1	blank2r.bmp	0	1	+	0	1	blank2r.bmp	252	1	MQQM	306	2	ehrlich	559	0	0	0	0	0	0	0	0	0	0	0	0	0	0	0	0	0	0	0	0	0	0	0	0	0	0	0	0	0	0	0	0	0	0	0	0	0	0	0
081919	12:21:09	12:22:51	101251	5.0.10.0	5_exp_noRW	102	Rpleas_acq	CS_B	BZZB	MQQM	GWWG	JXXJ	YDDY	VKKV	schön	spielen	fair	retten	ehrlich	treu	schlecht	strafen	faul	rächen	eitel	tot	53pct	acq_USpleas_CSpleas1_noRW	acq1_noRW	1	34	0	0	300	300	539	50	0	1	1	blank2r.bmp	0	1	+	0	1	blank2r.bmp	252	1	BZZB	306	3	fair	559	0	0	0	0	0	0	0	0	0	0	0	0	0	0	0	0	0	0	0	0	0	0	0	0	0	0	0	0	0	0	0	0	0	0	0	0	0	0	0
081919	12:21:09	12:22:53	103237	5.0.10.0	5_exp_noRW	102	Rpleas_acq	CS_B	BZZB	MQQM	GWWG	JXXJ	YDDY	VKKV	schön	spielen	fair	retten	ehrlich	treu	schlecht	strafen	faul	rächen	eitel	tot	47pct	acq_USunple_CSpleas2_noRW	acq1_noRW	1	35	0	0	300	300	804	46	0	1	1	blank2r.bmp	0	1	+	0	1	blank2r.bmp	252	1	MQQM	306	2	eitel	559	0	0	0	0	0	0	0	0	0	0	0	0	0	0	0	0	0	0	0	0	0	0	0	0	0	0	0	0	0	0	0	0	0	0	0	0	0	0	0
081919	12:21:09	12:22:54	104983	5.0.10.0	5_exp_noRW	102	Rpleas_acq	CS_B	BZZB	MQQM	GWWG	JXXJ	YDDY	VKKV	schön	spielen	fair	retten	ehrlich	treu	schlecht	strafen	faul	rächen	eitel	tot	53pct	acq_USunple_CSunple2_noRW	acq1_noRW	1	36	0	0	300	300	565	46	0	1	1	blank2r.bmp	0	1	+	0	1	blank2r.bmp	252	1	JXXJ	306	1	rächen	559	0	0	0	0	0	0	0	0	0	0	0	0	0	0	0	0	0	0	0	0	0	0	0	0	0	0	0	0	0	0	0	0	0	0	0	0	0	0	0
081919	12:21:09	12:22:56	106742	5.0.10.0	5_exp_noRW	102	Rpleas_acq	CS_B	BZZB	MQQM	GWWG	JXXJ	YDDY	VKKV	schön	spielen	fair	retten	ehrlich	treu	schlecht	strafen	faul	rächen	eitel	tot	53pct	acq_USunple_CSunple1_noRW	acq1_noRW	1	37	0	0	300	300	572	46	0	1	1	blank2r.bmp	0	1	+	0	1	blank2r.bmp	252	1	GWWG	306	3	faul	559	0	0	0	0	0	0	0	0	0	0	0	0	0	0	0	0	0	0	0	0	0	0	0	0	0	0	0	0	0	0	0	0	0	0	0	0	0	0	0
081919	12:21:09	12:22:58	108461	5.0.10.0	5_exp_noRW	102	Rpleas_acq	CS_B	BZZB	MQQM	GWWG	JXXJ	YDDY	VKKV	schön	spielen	fair	retten	ehrlich	treu	schlecht	strafen	faul	rächen	eitel	tot	47pct	acq_USpleas_CSpleas2_noRW	acq1_noRW	1	38	0	0	300	300	557	50	0	1	1	blank2r.bmp	0	1	+	0	1	blank2r.bmp	252	1	MQQM	306	1	retten	559	0	0	0	0	0	0	0	0	0	0	0	0	0	0	0	0	0	0	0	0	0	0	0	0	0	0	0	0	0	0	0	0	0	0	0	0	0	0	0
081919	12:21:09	12:23:00	110394	5.0.10.0	5_exp_noRW	102	Rpleas_acq	CS_B	BZZB	MQQM	GWWG	JXXJ	YDDY	VKKV	schön	spielen	fair	retten	ehrlich	treu	schlecht	strafen	faul	rächen	eitel	tot	47pct	acq_USpleas_CSpleas1_noRW	acq1_noRW	1	39	0	0	300	300	463	50	0	1	1	blank2r.bmp	0	1	+	0	1	blank2r.bmp	252	1	BZZB	306	1	schön	559	0	0	0	0	0	0	0	0	0	0	0	0	0	0	0	0	0	0	0	0	0	0	0	0	0	0	0	0	0	0	0	0	0	0	0	0	0	0	0
081919	12:21:09	12:23:02	112153	5.0.10.0	5_exp_noRW	102	Rpleas_acq	CS_B	BZZB	MQQM	GWWG	JXXJ	YDDY	VKKV	schön	spielen	fair	retten	ehrlich	treu	schlecht	strafen	faul	rächen	eitel	tot	53pct	acq_USunple_CSunple2_noRW	acq1_noRW	1	40	0	0	300	300	573	46	0	1	1	blank2r.bmp	0	1	+	0	1	blank2r.bmp	252	1	JXXJ	306	3	tot	559	0	0	0	0	0	0	0	0	0	0	0	0	0	0	0	0	0	0	0	0	0	0	0	0	0	0	0	0	0	0	0	0	0	0	0	0	0	0	0
081919	12:21:09	12:23:03	113766	5.0.10.0	5_exp_noRW	102	Rpleas_acq	CS_B	BZZB	MQQM	GWWG	JXXJ	YDDY	VKKV	schön	spielen	fair	retten	ehrlich	treu	schlecht	strafen	faul	rächen	eitel	tot	53pct	acq_USunple_CSunple1_noRW	acq1_noRW	1	41	0	0	300	300	446	46	0	1	1	blank2r.bmp	0	1	+	0	1	blank2r.bmp	252	1	GWWG	306	1	schlecht	559	0	0	0	0	0	0	0	0	0	0	0	0	0	0	0	0	0	0	0	0	0	0	0	0	0	0	0	0	0	0	0	0	0	0	0	0	0	0	0
081919	12:21:09	12:23:05	115632	5.0.10.0	5_exp_noRW	102	Rpleas_acq	CS_B	BZZB	MQQM	GWWG	JXXJ	YDDY	VKKV	schön	spielen	fair	retten	ehrlich	treu	schlecht	strafen	faul	rächen	eitel	tot	53pct	acq_USunple_CSunple2_noRW	acq1_noRW	1	42	0	0	300	300	474	50	0	0	1	blank2r.bmp	0	1	+	0	1	blank2r.bmp	252	1	JXXJ	306	2	eitel	559	1	FEHLER	1066	0	0	0	0	0	0	0	0	0	0	0	0	0	0	0	0	0	0	0	0	0	0	0	0	0	0	0	0	0	0	0	0	0	0	0	0
081919	12:21:09	12:23:07	117085	5.0.10.0	5_exp_noRW	102	Rpleas_acq	CS_B	BZZB	MQQM	GWWG	JXXJ	YDDY	VKKV	schön	spielen	fair	retten	ehrlich	treu	schlecht	strafen	faul	rächen	eitel	tot	53pct	acq_USunple_CSunple2_noRW	acq1_noRW	1	43	0	0	300	300	479	46	0	1	1	blank2r.bmp	0	1	+	0	1	blank2r.bmp	252	1	JXXJ	306	3	tot	559	0	0	0	0	0	0	0	0	0	0	0	0	0	0	0	0	0	0	0	0	0	0	0	0	0	0	0	0	0	0	0	0	0	0	0	0	0	0	0
081919	12:21:09	12:23:08	118671	5.0.10.0	5_exp_noRW	102	Rpleas_acq	CS_B	BZZB	MQQM	GWWG	JXXJ	YDDY	VKKV	schön	spielen	fair	retten	ehrlich	treu	schlecht	strafen	faul	rächen	eitel	tot	47pct	acq_USpleas_CSpleas1_noRW	acq1_noRW	1	44	0	0	300	300	418	50	0	1	1	blank2r.bmp	0	1	+	0	1	blank2r.bmp	252	1	BZZB	306	2	spielen	559	0	0	0	0	0	0	0	0	0	0	0	0	0	0	0	0	0	0	0	0	0	0	0	0	0	0	0	0	0	0	0	0	0	0	0	0	0	0	0
081919	12:21:09	12:23:10	120563	5.0.10.0	5_exp_noRW	102	Rpleas_acq	CS_B	BZZB	MQQM	GWWG	JXXJ	YDDY	VKKV	schön	spielen	fair	retten	ehrlich	treu	schlecht	strafen	faul	rächen	eitel	tot	47pct	acq_USunple_CSunple1_noRW	acq1_noRW	1	45	0	0	300	300	730	46	0	1	1	blank2r.bmp	0	1	+	0	1	blank2r.bmp	252	1	GWWG	306	3	faul	559	0	0	0	0	0	0	0	0	0	0	0	0	0	0	0	0	0	0	0	0	0	0	0	0	0	0	0	0	0	0	0	0	0	0	0	0	0	0	0
081919	12:21:09	12:23:12	122269	5.0.10.0	5_exp_noRW	102	Rpleas_acq	CS_B	BZZB	MQQM	GWWG	JXXJ	YDDY	VKKV	schön	spielen	fair	retten	ehrlich	treu	schlecht	strafen	faul	rächen	eitel	tot	47pct	acq_USpleas_CSpleas2_noRW	acq1_noRW	1	46	0	0	300	300	519	50	0	1	1	blank2r.bmp	0	1	+	0	1	blank2r.bmp	252	1	MQQM	306	3	treu	559	0	0	0	0	0	0	0	0	0	0	0	0	0	0	0	0	0	0	0	0	0	0	0	0	0	0	0	0	0	0	0	0	0	0	0	0	0	0	0
081919	12:21:09	12:23:14	124148	5.0.10.0	5_exp_noRW	102	Rpleas_acq	CS_B	BZZB	MQQM	GWWG	JXXJ	YDDY	VKKV	schön	spielen	fair	retten	ehrlich	treu	schlecht	strafen	faul	rächen	eitel	tot	47pct	acq_USpleas_CSunple2_noRW	acq1_noRW	1	47	0	0	300	300	693	50	0	1	1	blank2r.bmp	0	1	+	0	1	blank2r.bmp	252	1	JXXJ	306	3	treu	559	0	0	0	0	0	0	0	0	0	0	0	0	0	0	0	0	0	0	0	0	0	0	0	0	0	0	0	0	0	0	0	0	0	0	0	0	0	0	0
081919	12:21:09	12:23:15	125748	5.0.10.0	5_exp_noRW	102	Rpleas_acq	CS_B	BZZB	MQQM	GWWG	JXXJ	YDDY	VKKV	schön	spielen	fair	retten	ehrlich	treu	schlecht	strafen	faul	rächen	eitel	tot	53pct	acq_USpleas_CSpleas1_noRW	acq1_noRW	1	48	0	0	300	300	429	50	0	1	1	blank2r.bmp	0	1	+	0	1	blank2r.bmp	252	1	BZZB	306	3	fair	559	0	0	0	0	0	0	0	0	0	0	0	0	0	0	0	0	0	0	0	0	0	0	0	0	0	0	0	0	0	0	0	0	0	0	0	0	0	0	0
081919	12:21:09	12:23:17	127467	5.0.10.0	5_exp_noRW	102	Rpleas_acq	CS_B	BZZB	MQQM	GWWG	JXXJ	YDDY	VKKV	schön	spielen	fair	retten	ehrlich	treu	schlecht	strafen	faul	rächen	eitel	tot	53pct	acq_USunple_CSunple1_noRW	acq1_noRW	1	49	0	0	300	300	536	46	0	1	1	blank2r.bmp	0	1	+	0	1	blank2r.bmp	252	1	GWWG	306	2	strafen	559	0	0	0	0	0	0	0	0	0	0	0	0	0	0	0	0	0	0	0	0	0	0	0	0	0	0	0	0	0	0	0	0	0	0	0	0	0	0	0
081919	12:21:09	12:23:19	129120	5.0.10.0	5_exp_noRW	102	Rpleas_acq	CS_B	BZZB	MQQM	GWWG	JXXJ	YDDY	VKKV	schön	spielen	fair	retten	ehrlich	treu	schlecht	strafen	faul	rächen	eitel	tot	47pct	acq_USunple_CSunple1_noRW	acq1_noRW	1	50	0	0	300	300	486	46	0	1	1	blank2r.bmp	0	1	+	0	1	blank2r.bmp	252	1	GWWG	306	1	schlecht	559	0	0	0	0	0	0	0	0	0	0	0	0	0	0	0	0	0	0	0	0	0	0	0	0	0	0	0	0	0	0	0	0	0	0	0	0	0	0	0
081919	12:21:09	12:23:20	130772	5.0.10.0	5_exp_noRW	102	Rpleas_acq	CS_B	BZZB	MQQM	GWWG	JXXJ	YDDY	VKKV	schön	spielen	fair	retten	ehrlich	treu	schlecht	strafen	faul	rächen	eitel	tot	47pct	acq_USpleas_CSpleas2_noRW	acq1_noRW	1	51	0	0	300	300	479	50	0	1	1	blank2r.bmp	0	1	+	0	1	blank2r.bmp	252	1	MQQM	306	2	ehrlich	559	0	0	0	0	0	0	0	0	0	0	0	0	0	0	0	0	0	0	0	0	0	0	0	0	0	0	0	0	0	0	0	0	0	0	0	0	0	0	0
081919	12:21:09	12:23:22	132598	5.0.10.0	5_exp_noRW	102	Rpleas_acq	CS_B	BZZB	MQQM	GWWG	JXXJ	YDDY	VKKV	schön	spielen	fair	retten	ehrlich	treu	schlecht	strafen	faul	rächen	eitel	tot	47pct	acq_USpleas_CSpleas2_noRW	acq1_noRW	1	52	0	0	300	300	643	50	0	1	1	blank2r.bmp	0	1	+	0	1	blank2r.bmp	252	1	MQQM	306	1	retten	559	0	0	0	0	0	0	0	0	0	0	0	0	0	0	0	0	0	0	0	0	0	0	0	0	0	0	0	0	0	0	0	0	0	0	0	0	0	0	0
081919	12:21:09	12:23:24	134198	5.0.10.0	5_exp_noRW	102	Rpleas_acq	CS_B	BZZB	MQQM	GWWG	JXXJ	YDDY	VKKV	schön	spielen	fair	retten	ehrlich	treu	schlecht	strafen	faul	rächen	eitel	tot	53pct	acq_USpleas_CSpleas2_noRW	acq1_noRW	1	53	0	0	300	300	427	50	0	1	1	blank2r.bmp	0	1	+	0	1	blank2r.bmp	252	1	MQQM	306	3	treu	559	0	0	0	0	0	0	0	0	0	0	0	0	0	0	0	0	0	0	0	0	0	0	0	0	0	0	0	0	0	0	0	0	0	0	0	0	0	0	0
081919	12:21:09	12:23:25	135717	5.0.10.0	5_exp_noRW	102	Rpleas_acq	CS_B	BZZB	MQQM	GWWG	JXXJ	YDDY	VKKV	schön	spielen	fair	retten	ehrlich	treu	schlecht	strafen	faul	rächen	eitel	tot	53pct	acq_USpleas_CSpleas1_noRW	acq1_noRW	1	54	0	0	300	300	355	50	0	1	1	blank2r.bmp	0	1	+	0	1	blank2r.bmp	252	1	BZZB	306	2	spielen	559	0	0	0	0	0	0	0	0	0	0	0	0	0	0	0	0	0	0	0	0	0	0	0	0	0	0	0	0	0	0	0	0	0	0	0	0	0	0	0
081919	12:21:09	12:23:27	137649	5.0.10.0	5_exp_noRW	102	Rpleas_acq	CS_B	BZZB	MQQM	GWWG	JXXJ	YDDY	VKKV	schön	spielen	fair	retten	ehrlich	treu	schlecht	strafen	faul	rächen	eitel	tot	47pct	acq_USunple_CSunple2_noRW	acq1_noRW	1	55	0	0	300	300	544	50	0	0	1	blank2r.bmp	0	1	+	0	1	blank2r.bmp	252	1	JXXJ	306	2	eitel	559	1	FEHLER	1132	0	0	0	0	0	0	0	0	0	0	0	0	0	0	0	0	0	0	0	0	0	0	0	0	0	0	0	0	0	0	0	0	0	0	0	0
081919	12:21:09	12:23:29	139222	5.0.10.0	5_exp_noRW	102	Rpleas_acq	CS_B	BZZB	MQQM	GWWG	JXXJ	YDDY	VKKV	schön	spielen	fair	retten	ehrlich	treu	schlecht	strafen	faul	rächen	eitel	tot	47pct	acq_USunple_CSpleas1_noRW	acq1_noRW	1	56	0	0	300	300	599	46	0	1	1	blank2r.bmp	0	1	+	0	1	blank2r.bmp	252	1	BZZB	306	2	strafen	559	0	0	0	0	0	0	0	0	0	0	0	0	0	0	0	0	0	0	0	0	0	0	0	0	0	0	0	0	0	0	0	0	0	0	0	0	0	0	0
081919	12:21:09	12:23:30	140902	5.0.10.0	5_exp_noRW	102	Rpleas_acq	CS_B	BZZB	MQQM	GWWG	JXXJ	YDDY	VKKV	schön	spielen	fair	retten	ehrlich	treu	schlecht	strafen	faul	rächen	eitel	tot	53pct	acq_USunple_CSunple2_noRW	acq1_noRW	1	57	0	0	300	300	512	46	0	1	1	blank2r.bmp	0	1	+	0	1	blank2r.bmp	252	1	JXXJ	306	1	rächen	559	0	0	0	0	0	0	0	0	0	0	0	0	0	0	0	0	0	0	0	0	0	0	0	0	0	0	0	0	0	0	0	0	0	0	0	0	0	0	0
081919	12:21:09	12:23:32	142567	5.0.10.0	5_exp_noRW	102	Rpleas_acq	CS_B	BZZB	MQQM	GWWG	JXXJ	YDDY	VKKV	schön	spielen	fair	retten	ehrlich	treu	schlecht	strafen	faul	rächen	eitel	tot	53pct	acq_USpleas_CSunple1_noRW	acq1_noRW	1	58	0	0	300	300	502	50	0	1	1	blank2r.bmp	0	1	+	0	1	blank2r.bmp	252	1	GWWG	306	2	spielen	559	0	0	0	0	0	0	0	0	0	0	0	0	0	0	0	0	0	0	0	0	0	0	0	0	0	0	0	0	0	0	0	0	0	0	0	0	0	0	0
081919	12:21:09	12:23:34	144247	5.0.10.0	5_exp_noRW	102	Rpleas_acq	CS_B	BZZB	MQQM	GWWG	JXXJ	YDDY	VKKV	schön	spielen	fair	retten	ehrlich	treu	schlecht	strafen	faul	rächen	eitel	tot	47pct	acq_USunple_CSpleas2_noRW	acq1_noRW	1	59	0	0	300	300	514	46	0	1	1	blank2r.bmp	0	1	+	0	1	blank2r.bmp	252	1	MQQM	306	3	tot	559	0	0	0	0	0	0	0	0	0	0	0	0	0	0	0	0	0	0	0	0	0	0	0	0	0	0	0	0	0	0	0	0	0	0	0	0	0	0	0
081919	12:21:09	12:23:35	145979	5.0.10.0	5_exp_noRW	102	Rpleas_acq	CS_B	BZZB	MQQM	GWWG	JXXJ	YDDY	VKKV	schön	spielen	fair	retten	ehrlich	treu	schlecht	strafen	faul	rächen	eitel	tot	53pct	acq_USpleas_CSpleas1_noRW	acq1_noRW	1	60	0	0	300	300	556	50	0	1	1	blank2r.bmp	0	1	+	0	1	blank2r.bmp	252	1	BZZB	306	1	schön	559	0	0	0	0	0	0	0	0	0	0	0	0	0	0	0	0	0	0	0	0	0	0	0	0	0	0	0	0	0	0	0	0	0	0	0	0	0	0	0
081919	12:21:09	12:23:37	147752	5.0.10.0	5_exp_noRW	102	Rpleas_acq	CS_B	BZZB	MQQM	GWWG	JXXJ	YDDY	VKKV	schön	spielen	fair	retten	ehrlich	treu	schlecht	strafen	faul	rächen	eitel	tot	53pct	acq_USunple_CSpleas1_noRW	acq1_noRW	1	61	0	0	300	300	597	46	0	1	1	blank2r.bmp	0	1	+	0	1	blank2r.bmp	252	1	BZZB	306	2	strafen	559	0	0	0	0	0	0	0	0	0	0	0	0	0	0	0	0	0	0	0	0	0	0	0	0	0	0	0	0	0	0	0	0	0	0	0	0	0	0	0
081919	12:21:09	12:23:39	149418	5.0.10.0	5_exp_noRW	102	Rpleas_acq	CS_B	BZZB	MQQM	GWWG	JXXJ	YDDY	VKKV	schön	spielen	fair	retten	ehrlich	treu	schlecht	strafen	faul	rächen	eitel	tot	53pct	acq_USunple_CSpleas2_noRW	acq1_noRW	1	62	0	0	300	300	485	46	0	1	1	blank2r.bmp	0	1	+	0	1	blank2r.bmp	252	1	MQQM	306	1	rächen	559	0	0	0	0	0	0	0	0	0	0	0	0	0	0	0	0	0	0	0	0	0	0	0	0	0	0	0	0	0	0	0	0	0	0	0	0	0	0	0
081919	12:21:09	12:23:41	151097	5.0.10.0	5_exp_noRW	102	Rpleas_acq	CS_B	BZZB	MQQM	GWWG	JXXJ	YDDY	VKKV	schön	spielen	fair	retten	ehrlich	treu	schlecht	strafen	faul	rächen	eitel	tot	47pct	acq_USpleas_CSpleas2_noRW	acq1_noRW	1	63	0	0	300	300	505	50	0	1	1	blank2r.bmp	0	1	+	0	1	blank2r.bmp	252	1	MQQM	306	3	treu	559	0	0	0	0	0	0	0	0	0	0	0	0	0	0	0	0	0	0	0	0	0	0	0	0	0	0	0	0	0	0	0	0	0	0	0	0	0	0	0
081919	12:21:09	12:23:42	152843	5.0.10.0	5_exp_noRW	102	Rpleas_acq	CS_B	BZZB	MQQM	GWWG	JXXJ	YDDY	VKKV	schön	spielen	fair	retten	ehrlich	treu	schlecht	strafen	faul	rächen	eitel	tot	53pct	acq_USunple_CSunple2_noRW	acq1_noRW	1	64	0	0	300	300	570	46	0	1	1	blank2r.bmp	0	1	+	0	1	blank2r.bmp	252	1	JXXJ	306	2	eitel	559	0	0	0	0	0	0	0	0	0	0	0	0	0	0	0	0	0	0	0	0	0	0	0	0	0	0	0	0	0	0	0	0	0	0	0	0	0	0	0
081919	12:21:09	12:23:44	154576	5.0.10.0	5_exp_noRW	102	Rpleas_acq	CS_B	BZZB	MQQM	GWWG	JXXJ	YDDY	VKKV	schön	spielen	fair	retten	ehrlich	treu	schlecht	strafen	faul	rächen	eitel	tot	47pct	acq_USunple_CSunple1_noRW	acq1_noRW	1	65	0	0	300	300	553	46	0	1	1	blank2r.bmp	0	1	+	0	1	blank2r.bmp	252	1	GWWG	306	3	faul	559	0	0	0	0	0	0	0	0	0	0	0	0	0	0	0	0	0	0	0	0	0	0	0	0	0	0	0	0	0	0	0	0	0	0	0	0	0	0	0
081919	12:21:09	12:23:46	156189	5.0.10.0	5_exp_noRW	102	Rpleas_acq	CS_B	BZZB	MQQM	GWWG	JXXJ	YDDY	VKKV	schön	spielen	fair	retten	ehrlich	treu	schlecht	strafen	faul	rächen	eitel	tot	47pct	acq_USunple_CSunple1_noRW	acq1_noRW	1	66	0	0	300	300	437	46	0	1	1	blank2r.bmp	0	1	+	0	1	blank2r.bmp	252	1	GWWG	306	1	schlecht	559	0	0	0	0	0	0	0	0	0	0	0	0	0	0	0	0	0	0	0	0	0	0	0	0	0	0	0	0	0	0	0	0	0	0	0	0	0	0	0
081919	12:21:09	12:23:47	157868	5.0.10.0	5_exp_noRW	102	Rpleas_acq	CS_B	BZZB	MQQM	GWWG	JXXJ	YDDY	VKKV	schön	spielen	fair	retten	ehrlich	treu	schlecht	strafen	faul	rächen	eitel	tot	47pct	acq_USpleas_CSpleas1_noRW	acq1_noRW	1	67	0	0	300	300	498	50	0	1	1	blank2r.bmp	0	1	+	0	1	blank2r.bmp	252	1	BZZB	306	1	schön	559	0	0	0	0	0	0	0	0	0	0	0	0	0	0	0	0	0	0	0	0	0	0	0	0	0	0	0	0	0	0	0	0	0	0	0	0	0	0	0
081919	12:21:09	12:23:49	159760	5.0.10.0	5_exp_noRW	102	Rpleas_acq	CS_B	BZZB	MQQM	GWWG	JXXJ	YDDY	VKKV	schön	spielen	fair	retten	ehrlich	treu	schlecht	strafen	faul	rächen	eitel	tot	47pct	acq_USunple_CSunple1_noRW	acq1_noRW	1	68	0	0	300	300	709	46	0	1	1	blank2r.bmp	0	1	+	0	1	blank2r.bmp	252	1	GWWG	306	2	strafen	559	0	0	0	0	0	0	0	0	0	0	0	0	0	0	0	0	0	0	0	0	0	0	0	0	0	0	0	0	0	0	0	0	0	0	0	0	0	0	0
081919	12:21:09	12:23:51	161600	5.0.10.0	5_exp_noRW	102	Rpleas_acq	CS_B	BZZB	MQQM	GWWG	JXXJ	YDDY	VKKV	schön	spielen	fair	retten	ehrlich	treu	schlecht	strafen	faul	rächen	eitel	tot	47pct	acq_USunple_CSunple2_noRW	acq1_noRW	1	69	0	0	300	300	665	46	0	1	1	blank2r.bmp	0	1	+	0	1	blank2r.bmp	252	1	JXXJ	306	1	rächen	559	0	0	0	0	0	0	0	0	0	0	0	0	0	0	0	0	0	0	0	0	0	0	0	0	0	0	0	0	0	0	0	0	0	0	0	0	0	0	0
081919	12:21:09	12:23:53	163239	5.0.10.0	5_exp_noRW	102	Rpleas_acq	CS_B	BZZB	MQQM	GWWG	JXXJ	YDDY	VKKV	schön	spielen	fair	retten	ehrlich	treu	schlecht	strafen	faul	rächen	eitel	tot	47pct	acq_USpleas_CSpleas2_noRW	acq1_noRW	1	70	0	0	300	300	469	50	0	1	1	blank2r.bmp	0	1	+	0	1	blank2r.bmp	252	1	MQQM	306	2	ehrlich	559	0	0	0	0	0	0	0	0	0	0	0	0	0	0	0	0	0	0	0	0	0	0	0	0	0	0	0	0	0	0	0	0	0	0	0	0	0	0	0
081919	12:21:09	12:23:55	165265	5.0.10.0	5_exp_noRW	102	Rpleas_acq	CS_B	BZZB	MQQM	GWWG	JXXJ	YDDY	VKKV	schön	spielen	fair	retten	ehrlich	treu	schlecht	strafen	faul	rächen	eitel	tot	53pct	acq_USpleas_CSpleas1_noRW	acq1_noRW	1	71	0	0	300	300	862	50	0	1	1	blank2r.bmp	0	1	+	0	1	blank2r.bmp	252	1	BZZB	306	2	spielen	559	0	0	0	0	0	0	0	0	0	0	0	0	0	0	0	0	0	0	0	0	0	0	0	0	0	0	0	0	0	0	0	0	0	0	0	0	0	0	0
081919	12:21:09	12:23:56	166917	5.0.10.0	5_exp_noRW	102	Rpleas_acq	CS_B	BZZB	MQQM	GWWG	JXXJ	YDDY	VKKV	schön	spielen	fair	retten	ehrlich	treu	schlecht	strafen	faul	rächen	eitel	tot	47pct	acq_USunple_CSunple1_noRW	acq1_noRW	1	72	0	0	300	300	484	46	0	1	1	blank2r.bmp	0	1	+	0	1	blank2r.bmp	252	1	GWWG	306	1	schlecht	559	0	0	0	0	0	0	0	0	0	0	0	0	0	0	0	0	0	0	0	0	0	0	0	0	0	0	0	0	0	0	0	0	0	0	0	0	0	0	0
081919	12:21:09	12:23:58	168597	5.0.10.0	5_exp_noRW	102	Rpleas_acq	CS_B	BZZB	MQQM	GWWG	JXXJ	YDDY	VKKV	schön	spielen	fair	retten	ehrlich	treu	schlecht	strafen	faul	rächen	eitel	tot	53pct	acq_USpleas_CSpleas1_noRW	acq1_noRW	1	73	0	0	300	300	509	50	0	1	1	blank2r.bmp	0	1	+	0	1	blank2r.bmp	252	1	BZZB	306	3	fair	559	0	0	0	0	0	0	0	0	0	0	0	0	0	0	0	0	0	0	0	0	0	0	0	0	0	0	0	0	0	0	0	0	0	0	0	0	0	0	0
081919	12:21:09	12:24:00	170676	5.0.10.0	5_exp_noRW	102	Rpleas_acq	CS_B	BZZB	MQQM	GWWG	JXXJ	YDDY	VKKV	schön	spielen	fair	retten	ehrlich	treu	schlecht	strafen	faul	rächen	eitel	tot	47pct	acq_USpleas_CSpleas2_noRW	acq1_noRW	1	74	0	0	300	300	685	46	0	0	1	blank2r.bmp	0	1	+	0	1	blank2r.bmp	252	1	MQQM	306	1	retten	559	1	FEHLER	1279	0	0	0	0	0	0	0	0	0	0	0	0	0	0	0	0	0	0	0	0	0	0	0	0	0	0	0	0	0	0	0	0	0	0	0	0
081919	12:21:09	12:24:01	172062	5.0.10.0	5_exp_noRW	102	Rpleas_acq	CS_B	BZZB	MQQM	GWWG	JXXJ	YDDY	VKKV	schön	spielen	fair	retten	ehrlich	treu	schlecht	strafen	faul	rächen	eitel	tot	47pct	acq_USunple_CSunple2_noRW	acq1_noRW	1	75	0	0	300	300	428	46	0	1	1	blank2r.bmp	0	1	+	0	1	blank2r.bmp	252	1	JXXJ	306	3	tot	559	0	0	0	0	0	0	0	0	0	0	0	0	0	0	0	0	0	0	0	0	0	0	0	0	0	0	0	0	0	0	0	0	0	0	0	0	0	0	0
081919	12:21:09	12:24:03	173861	5.0.10.0	5_exp_noRW	102	Rpleas_acq	CS_B	BZZB	MQQM	GWWG	JXXJ	YDDY	VKKV	schön	spielen	fair	retten	ehrlich	treu	schlecht	strafen	faul	rächen	eitel	tot	53pct	acq_USunple_CSunple2_noRW	acq1_noRW	1	76	0	0	300	300	616	46	0	1	1	blank2r.bmp	0	1	+	0	1	blank2r.bmp	252	1	JXXJ	306	3	tot	559	0	0	0	0	0	0	0	0	0	0	0	0	0	0	0	0	0	0	0	0	0	0	0	0	0	0	0	0	0	0	0	0	0	0	0	0	0	0	0
081919	12:21:09	12:24:05	175487	5.0.10.0	5_exp_noRW	102	Rpleas_acq	CS_B	BZZB	MQQM	GWWG	JXXJ	YDDY	VKKV	schön	spielen	fair	retten	ehrlich	treu	schlecht	strafen	faul	rächen	eitel	tot	53pct	acq_USpleas_CSpleas2_noRW	acq1_noRW	1	77	0	0	300	300	455	50	0	1	1	blank2r.bmp	0	1	+	0	1	blank2r.bmp	252	1	MQQM	306	3	treu	559	0	0	0	0	0	0	0	0	0	0	0	0	0	0	0	0	0	0	0	0	0	0	0	0	0	0	0	0	0	0	0	0	0	0	0	0	0	0	0
081919	12:21:09	12:24:07	177367	5.0.10.0	5_exp_noRW	102	Rpleas_acq	CS_B	BZZB	MQQM	GWWG	JXXJ	YDDY	VKKV	schön	spielen	fair	retten	ehrlich	treu	schlecht	strafen	faul	rächen	eitel	tot	53pct	acq_USpleas_CSpleas1_noRW	acq1_noRW	1	78	0	0	300	300	494	46	0	0	1	blank2r.bmp	0	1	+	0	1	blank2r.bmp	252	1	BZZB	306	3	fair	559	1	FEHLER	1092	0	0	0	0	0	0	0	0	0	0	0	0	0	0	0	0	0	0	0	0	0	0	0	0	0	0	0	0	0	0	0	0	0	0	0	0
081919	12:21:09	12:24:08	178926	5.0.10.0	5_exp_noRW	102	Rpleas_acq	CS_B	BZZB	MQQM	GWWG	JXXJ	YDDY	VKKV	schön	spielen	fair	retten	ehrlich	treu	schlecht	strafen	faul	rächen	eitel	tot	47pct	acq_USpleas_CSunple2_noRW	acq1_noRW	1	79	0	0	300	300	611	50	0	1	1	blank2r.bmp	0	1	+	0	1	blank2r.bmp	252	1	JXXJ	306	1	retten	559	0	0	0	0	0	0	0	0	0	0	0	0	0	0	0	0	0	0	0	0	0	0	0	0	0	0	0	0	0	0	0	0	0	0	0	0	0	0	0
081919	12:21:09	12:24:10	180552	5.0.10.0	5_exp_noRW	102	Rpleas_acq	CS_B	BZZB	MQQM	GWWG	JXXJ	YDDY	VKKV	schön	spielen	fair	retten	ehrlich	treu	schlecht	strafen	faul	rächen	eitel	tot	53pct	acq_USpleas_CSunple1_noRW	acq1_noRW	1	80	0	0	300	300	445	50	0	1	1	blank2r.bmp	0	1	+	0	1	blank2r.bmp	252	1	GWWG	306	3	fair	559	0	0	0	0	0	0	0	0	0	0	0	0	0	0	0	0	0	0	0	0	0	0	0	0	0	0	0	0	0	0	0	0	0	0	0	0	0	0	0
081919	12:21:09	12:24:21	191934	5.0.10.0	5_exp_noRW	102	Rpleas_acq	CS_B	BZZB	MQQM	GWWG	JXXJ	YDDY	VKKV	schön	spielen	fair	retten	ehrlich	treu	schlecht	strafen	faul	rächen	eitel	tot	53pct	acq_USpleas_CSpleas2_noRW	acq23456_noRW	2	1	0	0	300	300	618	50	0	1	1	blank2r.bmp	0	1	+	0	1	blank2r.bmp	252	1	MQQM	306	1	retten	559	0	0	0	0	0	0	0	0	0	0	0	0	0	0	0	0	0	0	0	0	0	0	0	0	0	0	0	0	0	0	0	0	0	0	0	0	0	0	0
081919	12:21:09	12:24:23	193547	5.0.10.0	5_exp_noRW	102	Rpleas_acq	CS_B	BZZB	MQQM	GWWG	JXXJ	YDDY	VKKV	schön	spielen	fair	retten	ehrlich	treu	schlecht	strafen	faul	rächen	eitel	tot	53pct	acq_USpleas_CSpleas1_noRW	acq23456_noRW	2	2	0	0	300	300	434	50	0	1	1	blank2r.bmp	0	1	+	0	1	blank2r.bmp	252	1	BZZB	306	1	schön	559	0	0	0	0	0	0	0	0	0	0	0	0	0	0	0	0	0	0	0	0	0	0	0	0	0	0	0	0	0	0	0	0	0	0	0	0	0	0	0
081919	12:21:09	12:24:25	195213	5.0.10.0	5_exp_noRW	102	Rpleas_acq	CS_B	BZZB	MQQM	GWWG	JXXJ	YDDY	VKKV	schön	spielen	fair	retten	ehrlich	treu	schlecht	strafen	faul	rächen	eitel	tot	47pct	acq_USunple_CSunple1_noRW	acq23456_noRW	2	3	0	0	300	300	499	46	0	1	1	blank2r.bmp	0	1	+	0	1	blank2r.bmp	252	1	GWWG	306	3	faul	559	0	0	0	0	0	0	0	0	0	0	0	0	0	0	0	0	0	0	0	0	0	0	0	0	0	0	0	0	0	0	0	0	0	0	0	0	0	0	0
081919	12:21:09	12:24:26	196865	5.0.10.0	5_exp_noRW	102	Rpleas_acq	CS_B	BZZB	MQQM	GWWG	JXXJ	YDDY	VKKV	schön	spielen	fair	retten	ehrlich	treu	schlecht	strafen	faul	rächen	eitel	tot	47pct	acq_USpleas_CSpleas1_noRW	acq23456_noRW	2	4	0	0	300	300	474	50	0	1	1	blank2r.bmp	0	1	+	0	1	blank2r.bmp	252	1	BZZB	306	2	spielen	559	0	0	0	0	0	0	0	0	0	0	0	0	0	0	0	0	0	0	0	0	0	0	0	0	0	0	0	0	0	0	0	0	0	0	0	0	0	0	0
081919	12:21:09	12:24:28	198505	5.0.10.0	5_exp_noRW	102	Rpleas_acq	CS_B	BZZB	MQQM	GWWG	JXXJ	YDDY	VKKV	schön	spielen	fair	retten	ehrlich	treu	schlecht	strafen	faul	rächen	eitel	tot	53pct	acq_USunple_CSunple1_noRW	acq23456_noRW	2	5	0	0	300	300	461	46	0	1	1	blank2r.bmp	0	1	+	0	1	blank2r.bmp	252	1	GWWG	306	2	strafen	559	0	0	0	0	0	0	0	0	0	0	0	0	0	0	0	0	0	0	0	0	0	0	0	0	0	0	0	0	0	0	0	0	0	0	0	0	0	0	0
081919	12:21:09	12:24:30	200211	5.0.10.0	5_exp_noRW	102	Rpleas_acq	CS_B	BZZB	MQQM	GWWG	JXXJ	YDDY	VKKV	schön	spielen	fair	retten	ehrlich	treu	schlecht	strafen	faul	rächen	eitel	tot	53pct	acq_USpleas_CSpleas2_noRW	acq23456_noRW	2	6	0	0	300	300	519	50	0	1	1	blank2r.bmp	0	1	+	0	1	blank2r.bmp	252	1	MQQM	306	2	ehrlich	559	0	0	0	0	0	0	0	0	0	0	0	0	0	0	0	0	0	0	0	0	0	0	0	0	0	0	0	0	0	0	0	0	0	0	0	0	0	0	0
081919	12:21:09	12:24:31	201863	5.0.10.0	5_exp_noRW	102	Rpleas_acq	CS_B	BZZB	MQQM	GWWG	JXXJ	YDDY	VKKV	schön	spielen	fair	retten	ehrlich	treu	schlecht	strafen	faul	rächen	eitel	tot	53pct	acq_USunple_CSunple2_noRW	acq23456_noRW	2	7	0	0	300	300	483	46	0	1	1	blank2r.bmp	0	1	+	0	1	blank2r.bmp	252	1	JXXJ	306	1	rächen	559	0	0	0	0	0	0	0	0	0	0	0	0	0	0	0	0	0	0	0	0	0	0	0	0	0	0	0	0	0	0	0	0	0	0	0	0	0	0	0
081919	12:21:09	12:24:33	203476	5.0.10.0	5_exp_noRW	102	Rpleas_acq	CS_B	BZZB	MQQM	GWWG	JXXJ	YDDY	VKKV	schön	spielen	fair	retten	ehrlich	treu	schlecht	strafen	faul	rächen	eitel	tot	53pct	acq_USunple_CSunple1_noRW	acq23456_noRW	2	8	0	0	300	300	441	46	0	1	1	blank2r.bmp	0	1	+	0	1	blank2r.bmp	252	1	GWWG	306	1	schlecht	559	0	0	0	0	0	0	0	0	0	0	0	0	0	0	0	0	0	0	0	0	0	0	0	0	0	0	0	0	0	0	0	0	0	0	0	0	0	0	0
081919	12:21:09	12:24:35	205302	5.0.10.0	5_exp_noRW	102	Rpleas_acq	CS_B	BZZB	MQQM	GWWG	JXXJ	YDDY	VKKV	schön	spielen	fair	retten	ehrlich	treu	schlecht	strafen	faul	rächen	eitel	tot	47pct	acq_USunple_CSunple2_noRW	acq23456_noRW	2	9	0	0	300	300	448	50	0	0	1	blank2r.bmp	0	1	+	0	1	blank2r.bmp	252	1	JXXJ	306	2	eitel	559	1	FEHLER	1039	0	0	0	0	0	0	0	0	0	0	0	0	0	0	0	0	0	0	0	0	0	0	0	0	0	0	0	0	0	0	0	0	0	0	0	0
081919	12:21:09	12:24:36	206701	5.0.10.0	5_exp_noRW	102	Rpleas_acq	CS_B	BZZB	MQQM	GWWG	JXXJ	YDDY	VKKV	schön	spielen	fair	retten	ehrlich	treu	schlecht	strafen	faul	rächen	eitel	tot	53pct	acq_USpleas_CSpleas1_noRW	acq23456_noRW	2	10	0	0	300	300	427	50	0	1	1	blank2r.bmp	0	1	+	0	1	blank2r.bmp	252	1	BZZB	306	2	spielen	559	0	0	0	0	0	0	0	0	0	0	0	0	0	0	0	0	0	0	0	0	0	0	0	0	0	0	0	0	0	0	0	0	0	0	0	0	0	0	0
081919	12:21:09	12:24:38	208354	5.0.10.0	5_exp_noRW	102	Rpleas_acq	CS_B	BZZB	MQQM	GWWG	JXXJ	YDDY	VKKV	schön	spielen	fair	retten	ehrlich	treu	schlecht	strafen	faul	rächen	eitel	tot	53pct	acq_USpleas_CSpleas2_noRW	acq23456_noRW	2	11	0	0	300	300	484	50	0	1	1	blank2r.bmp	0	1	+	0	1	blank2r.bmp	252	1	MQQM	306	3	treu	559	0	0	0	0	0	0	0	0	0	0	0	0	0	0	0	0	0	0	0	0	0	0	0	0	0	0	0	0	0	0	0	0	0	0	0	0	0	0	0
081919	12:21:09	12:24:39	209980	5.0.10.0	5_exp_noRW	102	Rpleas_acq	CS_B	BZZB	MQQM	GWWG	JXXJ	YDDY	VKKV	schön	spielen	fair	retten	ehrlich	treu	schlecht	strafen	faul	rächen	eitel	tot	53pct	acq_USunple_CSpleas2_noRW	acq23456_noRW	2	12	0	0	300	300	461	46	0	1	1	blank2r.bmp	0	1	+	0	1	blank2r.bmp	252	1	MQQM	306	2	eitel	559	0	0	0	0	0	0	0	0	0	0	0	0	0	0	0	0	0	0	0	0	0	0	0	0	0	0	0	0	0	0	0	0	0	0	0	0	0	0	0
081919	12:21:09	12:24:41	211806	5.0.10.0	5_exp_noRW	102	Rpleas_acq	CS_B	BZZB	MQQM	GWWG	JXXJ	YDDY	VKKV	schön	spielen	fair	retten	ehrlich	treu	schlecht	strafen	faul	rächen	eitel	tot	47pct	acq_USunple_CSunple2_noRW	acq23456_noRW	2	13	0	0	300	300	437	50	0	0	1	blank2r.bmp	0	1	+	0	1	blank2r.bmp	252	1	JXXJ	306	1	rächen	559	1	FEHLER	1026	0	0	0	0	0	0	0	0	0	0	0	0	0	0	0	0	0	0	0	0	0	0	0	0	0	0	0	0	0	0	0	0	0	0	0	0
081919	12:21:09	12:24:43	213578	5.0.10.0	5_exp_noRW	102	Rpleas_acq	CS_B	BZZB	MQQM	GWWG	JXXJ	YDDY	VKKV	schön	spielen	fair	retten	ehrlich	treu	schlecht	strafen	faul	rächen	eitel	tot	47pct	acq_USpleas_CSpleas2_noRW	acq23456_noRW	2	14	0	0	300	300	799	50	0	1	1	blank2r.bmp	0	1	+	0	1	blank2r.bmp	252	1	MQQM	306	1	retten	559	0	0	0	0	0	0	0	0	0	0	0	0	0	0	0	0	0	0	0	0	0	0	0	0	0	0	0	0	0	0	0	0	0	0	0	0	0	0	0
081919	12:21:09	12:24:45	215244	5.0.10.0	5_exp_noRW	102	Rpleas_acq	CS_B	BZZB	MQQM	GWWG	JXXJ	YDDY	VKKV	schön	spielen	fair	retten	ehrlich	treu	schlecht	strafen	faul	rächen	eitel	tot	47pct	acq_USunple_CSunple2_noRW	acq23456_noRW	2	15	0	0	300	300	503	46	0	1	1	blank2r.bmp	0	1	+	0	1	blank2r.bmp	252	1	JXXJ	306	3	tot	559	0	0	0	0	0	0	0	0	0	0	0	0	0	0	0	0	0	0	0	0	0	0	0	0	0	0	0	0	0	0	0	0	0	0	0	0	0	0	0
081919	12:21:09	12:24:46	217017	5.0.10.0	5_exp_noRW	102	Rpleas_acq	CS_B	BZZB	MQQM	GWWG	JXXJ	YDDY	VKKV	schön	spielen	fair	retten	ehrlich	treu	schlecht	strafen	faul	rächen	eitel	tot	47pct	acq_USunple_CSunple1_noRW	acq23456_noRW	2	16	0	0	300	300	589	46	0	1	1	blank2r.bmp	0	1	+	0	1	blank2r.bmp	252	1	GWWG	306	2	strafen	559	0	0	0	0	0	0	0	0	0	0	0	0	0	0	0	0	0	0	0	0	0	0	0	0	0	0	0	0	0	0	0	0	0	0	0	0	0	0	0
081919	12:21:09	12:24:48	218670	5.0.10.0	5_exp_noRW	102	Rpleas_acq	CS_B	BZZB	MQQM	GWWG	JXXJ	YDDY	VKKV	schön	spielen	fair	retten	ehrlich	treu	schlecht	strafen	faul	rächen	eitel	tot	53pct	acq_USunple_CSpleas1_noRW	acq23456_noRW	2	17	0	0	300	300	484	46	0	1	1	blank2r.bmp	0	1	+	0	1	blank2r.bmp	252	1	BZZB	306	3	faul	559	0	0	0	0	0	0	0	0	0	0	0	0	0	0	0	0	0	0	0	0	0	0	0	0	0	0	0	0	0	0	0	0	0	0	0	0	0	0	0
081919	12:21:09	12:24:50	220176	5.0.10.0	5_exp_noRW	102	Rpleas_acq	CS_B	BZZB	MQQM	GWWG	JXXJ	YDDY	VKKV	schön	spielen	fair	retten	ehrlich	treu	schlecht	strafen	faul	rächen	eitel	tot	53pct	acq_USpleas_CSunple1_noRW	acq23456_noRW	2	18	0	0	300	300	333	50	0	1	1	blank2r.bmp	0	1	+	0	1	blank2r.bmp	252	1	GWWG	306	2	spielen	559	0	0	0	0	0	0	0	0	0	0	0	0	0	0	0	0	0	0	0	0	0	0	0	0	0	0	0	0	0	0	0	0	0	0	0	0	0	0	0
081919	12:21:09	12:24:51	221708	5.0.10.0	5_exp_noRW	102	Rpleas_acq	CS_B	BZZB	MQQM	GWWG	JXXJ	YDDY	VKKV	schön	spielen	fair	retten	ehrlich	treu	schlecht	strafen	faul	rächen	eitel	tot	53pct	acq_USpleas_CSunple2_noRW	acq23456_noRW	2	19	0	0	300	300	371	50	0	1	1	blank2r.bmp	0	1	+	0	1	blank2r.bmp	252	1	JXXJ	306	2	ehrlich	559	0	0	0	0	0	0	0	0	0	0	0	0	0	0	0	0	0	0	0	0	0	0	0	0	0	0	0	0	0	0	0	0	0	0	0	0	0	0	0
081919	12:21:09	12:24:53	223294	5.0.10.0	5_exp_noRW	102	Rpleas_acq	CS_B	BZZB	MQQM	GWWG	JXXJ	YDDY	VKKV	schön	spielen	fair	retten	ehrlich	treu	schlecht	strafen	faul	rächen	eitel	tot	53pct	acq_USpleas_CSpleas1_noRW	acq23456_noRW	2	20	0	0	300	300	404	50	0	1	1	blank2r.bmp	0	1	+	0	1	blank2r.bmp	252	1	BZZB	306	3	fair	559	0	0	0	0	0	0	0	0	0	0	0	0	0	0	0	0	0	0	0	0	0	0	0	0	0	0	0	0	0	0	0	0	0	0	0	0	0	0	0
081919	12:21:09	12:24:54	224854	5.0.10.0	5_exp_noRW	102	Rpleas_acq	CS_B	BZZB	MQQM	GWWG	JXXJ	YDDY	VKKV	schön	spielen	fair	retten	ehrlich	treu	schlecht	strafen	faul	rächen	eitel	tot	47pct	acq_USpleas_CSpleas2_noRW	acq23456_noRW	2	21	0	0	300	300	384	50	0	1	1	blank2r.bmp	0	1	+	0	1	blank2r.bmp	252	1	MQQM	306	2	ehrlich	559	0	0	0	0	0	0	0	0	0	0	0	0	0	0	0	0	0	0	0	0	0	0	0	0	0	0	0	0	0	0	0	0	0	0	0	0	0	0	0
081919	12:21:09	12:24:56	226613	5.0.10.0	5_exp_noRW	102	Rpleas_acq	CS_B	BZZB	MQQM	GWWG	JXXJ	YDDY	VKKV	schön	spielen	fair	retten	ehrlich	treu	schlecht	strafen	faul	rächen	eitel	tot	53pct	acq_USpleas_CSpleas2_noRW	acq23456_noRW	2	22	0	0	300	300	572	50	0	1	1	blank2r.bmp	0	1	+	0	1	blank2r.bmp	252	1	MQQM	306	1	retten	559	0	0	0	0	0	0	0	0	0	0	0	0	0	0	0	0	0	0	0	0	0	0	0	0	0	0	0	0	0	0	0	0	0	0	0	0	0	0	0
081919	12:21:09	12:24:58	228332	5.0.10.0	5_exp_noRW	102	Rpleas_acq	CS_B	BZZB	MQQM	GWWG	JXXJ	YDDY	VKKV	schön	spielen	fair	retten	ehrlich	treu	schlecht	strafen	faul	rächen	eitel	tot	53pct	acq_USunple_CSunple2_noRW	acq23456_noRW	2	23	0	0	300	300	555	46	0	1	1	blank2r.bmp	0	1	+	0	1	blank2r.bmp	252	1	JXXJ	306	2	eitel	559	0	0	0	0	0	0	0	0	0	0	0	0	0	0	0	0	0	0	0	0	0	0	0	0	0	0	0	0	0	0	0	0	0	0	0	0	0	0	0
081919	12:21:09	12:25:00	230118	5.0.10.0	5_exp_noRW	102	Rpleas_acq	CS_B	BZZB	MQQM	GWWG	JXXJ	YDDY	VKKV	schön	spielen	fair	retten	ehrlich	treu	schlecht	strafen	faul	rächen	eitel	tot	47pct	acq_USunple_CSunple1_noRW	acq23456_noRW	2	24	0	0	300	300	602	46	0	1	1	blank2r.bmp	0	1	+	0	1	blank2r.bmp	252	1	GWWG	306	3	faul	559	0	0	0	0	0	0	0	0	0	0	0	0	0	0	0	0	0	0	0	0	0	0	0	0	0	0	0	0	0	0	0	0	0	0	0	0	0	0	0
081919	12:21:09	12:25:01	231824	5.0.10.0	5_exp_noRW	102	Rpleas_acq	CS_B	BZZB	MQQM	GWWG	JXXJ	YDDY	VKKV	schön	spielen	fair	retten	ehrlich	treu	schlecht	strafen	faul	rächen	eitel	tot	53pct	acq_USunple_CSunple1_noRW	acq23456_noRW	2	25	0	0	300	300	534	46	0	1	1	blank2r.bmp	0	1	+	0	1	blank2r.bmp	252	1	GWWG	306	1	schlecht	559	0	0	0	0	0	0	0	0	0	0	0	0	0	0	0	0	0	0	0	0	0	0	0	0	0	0	0	0	0	0	0	0	0	0	0	0	0	0	0
081919	12:21:09	12:25:03	233477	5.0.10.0	5_exp_noRW	102	Rpleas_acq	CS_B	BZZB	MQQM	GWWG	JXXJ	YDDY	VKKV	schön	spielen	fair	retten	ehrlich	treu	schlecht	strafen	faul	rächen	eitel	tot	53pct	acq_USpleas_CSunple2_noRW	acq23456_noRW	2	26	0	0	300	300	486	50	0	1	1	blank2r.bmp	0	1	+	0	1	blank2r.bmp	252	1	JXXJ	306	3	treu	559	0	0	0	0	0	0	0	0	0	0	0	0	0	0	0	0	0	0	0	0	0	0	0	0	0	0	0	0	0	0	0	0	0	0	0	0	0	0	0
081919	12:21:09	12:25:05	235116	5.0.10.0	5_exp_noRW	102	Rpleas_acq	CS_B	BZZB	MQQM	GWWG	JXXJ	YDDY	VKKV	schön	spielen	fair	retten	ehrlich	treu	schlecht	strafen	faul	rächen	eitel	tot	47pct	acq_USpleas_CSpleas1_noRW	acq23456_noRW	2	27	0	0	300	300	462	50	0	1	1	blank2r.bmp	0	1	+	0	1	blank2r.bmp	252	1	BZZB	306	1	schön	559	0	0	0	0	0	0	0	0	0	0	0	0	0	0	0	0	0	0	0	0	0	0	0	0	0	0	0	0	0	0	0	0	0	0	0	0	0	0	0
081919	12:21:09	12:25:06	236702	5.0.10.0	5_exp_noRW	102	Rpleas_acq	CS_B	BZZB	MQQM	GWWG	JXXJ	YDDY	VKKV	schön	spielen	fair	retten	ehrlich	treu	schlecht	strafen	faul	rächen	eitel	tot	53pct	acq_USpleas_CSpleas2_noRW	acq23456_noRW	2	28	0	0	300	300	407	50	0	1	1	blank2r.bmp	0	1	+	0	1	blank2r.bmp	252	1	MQQM	306	3	treu	559	0	0	0	0	0	0	0	0	0	0	0	0	0	0	0	0	0	0	0	0	0	0	0	0	0	0	0	0	0	0	0	0	0	0	0	0	0	0	0
081919	12:21:09	12:25:08	238315	5.0.10.0	5_exp_noRW	102	Rpleas_acq	CS_B	BZZB	MQQM	GWWG	JXXJ	YDDY	VKKV	schön	spielen	fair	retten	ehrlich	treu	schlecht	strafen	faul	rächen	eitel	tot	47pct	acq_USunple_CSunple1_noRW	acq23456_noRW	2	29	0	0	300	300	433	46	0	1	1	blank2r.bmp	0	1	+	0	1	blank2r.bmp	252	1	GWWG	306	3	faul	559	0	0	0	0	0	0	0	0	0	0	0	0	0	0	0	0	0	0	0	0	0	0	0	0	0	0	0	0	0	0	0	0	0	0	0	0	0	0	0
081919	12:21:09	12:25:09	240008	5.0.10.0	5_exp_noRW	102	Rpleas_acq	CS_B	BZZB	MQQM	GWWG	JXXJ	YDDY	VKKV	schön	spielen	fair	retten	ehrlich	treu	schlecht	strafen	faul	rächen	eitel	tot	53pct	acq_USpleas_CSpleas1_noRW	acq23456_noRW	2	30	0	0	300	300	516	50	0	1	1	blank2r.bmp	0	1	+	0	1	blank2r.bmp	252	1	BZZB	306	3	fair	559	0	0	0	0	0	0	0	0	0	0	0	0	0	0	0	0	0	0	0	0	0	0	0	0	0	0	0	0	0	0	0	0	0	0	0	0	0	0	0
081919	12:21:09	12:25:11	241607	5.0.10.0	5_exp_noRW	102	Rpleas_acq	CS_B	BZZB	MQQM	GWWG	JXXJ	YDDY	VKKV	schön	spielen	fair	retten	ehrlich	treu	schlecht	strafen	faul	rächen	eitel	tot	53pct	acq_USunple_CSpleas1_noRW	acq23456_noRW	2	31	0	0	300	300	421	46	0	1	1	blank2r.bmp	0	1	+	0	1	blank2r.bmp	252	1	BZZB	306	1	schlecht	559	0	0	0	0	0	0	0	0	0	0	0	0	0	0	0	0	0	0	0	0	0	0	0	0	0	0	0	0	0	0	0	0	0	0	0	0	0	0	0
081919	12:21:09	12:25:13	243273	5.0.10.0	5_exp_noRW	102	Rpleas_acq	CS_B	BZZB	MQQM	GWWG	JXXJ	YDDY	VKKV	schön	spielen	fair	retten	ehrlich	treu	schlecht	strafen	faul	rächen	eitel	tot	53pct	acq_USunple_CSunple2_noRW	acq23456_noRW	2	32	0	0	300	300	486	46	0	1	1	blank2r.bmp	0	1	+	0	1	blank2r.bmp	252	1	JXXJ	306	2	eitel	559	0	0	0	0	0	0	0	0	0	0	0	0	0	0	0	0	0	0	0	0	0	0	0	0	0	0	0	0	0	0	0	0	0	0	0	0	0	0	0
081919	12:21:09	12:25:14	244952	5.0.10.0	5_exp_noRW	102	Rpleas_acq	CS_B	BZZB	MQQM	GWWG	JXXJ	YDDY	VKKV	schön	spielen	fair	retten	ehrlich	treu	schlecht	strafen	faul	rächen	eitel	tot	47pct	acq_USpleas_CSpleas1_noRW	acq23456_noRW	2	33	0	0	300	300	497	50	0	1	1	blank2r.bmp	0	1	+	0	1	blank2r.bmp	252	1	BZZB	306	1	schön	559	0	0	0	0	0	0	0	0	0	0	0	0	0	0	0	0	0	0	0	0	0	0	0	0	0	0	0	0	0	0	0	0	0	0	0	0	0	0	0
081919	12:21:09	12:25:16	246845	5.0.10.0	5_exp_noRW	102	Rpleas_acq	CS_B	BZZB	MQQM	GWWG	JXXJ	YDDY	VKKV	schön	spielen	fair	retten	ehrlich	treu	schlecht	strafen	faul	rächen	eitel	tot	53pct	acq_USpleas_CSpleas2_noRW	acq23456_noRW	2	34	0	0	300	300	722	50	0	1	1	blank2r.bmp	0	1	+	0	1	blank2r.bmp	252	1	MQQM	306	2	ehrlich	559	0	0	0	0	0	0	0	0	0	0	0	0	0	0	0	0	0	0	0	0	0	0	0	0	0	0	0	0	0	0	0	0	0	0	0	0	0	0	0
081919	12:21:09	12:25:18	248444	5.0.10.0	5_exp_noRW	102	Rpleas_acq	CS_B	BZZB	MQQM	GWWG	JXXJ	YDDY	VKKV	schön	spielen	fair	retten	ehrlich	treu	schlecht	strafen	faul	rächen	eitel	tot	53pct	acq_USunple_CSpleas2_noRW	acq23456_noRW	2	35	0	0	300	300	433	46	0	1	1	blank2r.bmp	0	1	+	0	1	blank2r.bmp	252	1	MQQM	306	3	tot	559	0	0	0	0	0	0	0	0	0	0	0	0	0	0	0	0	0	0	0	0	0	0	0	0	0	0	0	0	0	0	0	0	0	0	0	0	0	0	0
081919	12:21:09	12:25:19	250070	5.0.10.0	5_exp_noRW	102	Rpleas_acq	CS_B	BZZB	MQQM	GWWG	JXXJ	YDDY	VKKV	schön	spielen	fair	retten	ehrlich	treu	schlecht	strafen	faul	rächen	eitel	tot	47pct	acq_USpleas_CSunple1_noRW	acq23456_noRW	2	36	0	0	300	300	458	50	0	1	1	blank2r.bmp	0	1	+	0	1	blank2r.bmp	252	1	GWWG	306	1	schön	559	0	0	0	0	0	0	0	0	0	0	0	0	0	0	0	0	0	0	0	0	0	0	0	0	0	0	0	0	0	0	0	0	0	0	0	0	0	0	0
081919	12:21:09	12:25:21	251789	5.0.10.0	5_exp_noRW	102	Rpleas_acq	CS_B	BZZB	MQQM	GWWG	JXXJ	YDDY	VKKV	schön	spielen	fair	retten	ehrlich	treu	schlecht	strafen	faul	rächen	eitel	tot	53pct	acq_USunple_CSunple2_noRW	acq23456_noRW	2	37	0	0	300	300	552	46	0	1	1	blank2r.bmp	0	1	+	0	1	blank2r.bmp	252	1	JXXJ	306	3	tot	559	0	0	0	0	0	0	0	0	0	0	0	0	0	0	0	0	0	0	0	0	0	0	0	0	0	0	0	0	0	0	0	0	0	0	0	0	0	0	0
081919	12:21:09	12:25:23	253389	5.0.10.0	5_exp_noRW	102	Rpleas_acq	CS_B	BZZB	MQQM	GWWG	JXXJ	YDDY	VKKV	schön	spielen	fair	retten	ehrlich	treu	schlecht	strafen	faul	rächen	eitel	tot	47pct	acq_USpleas_CSpleas1_noRW	acq23456_noRW	2	38	0	0	300	300	424	50	0	1	1	blank2r.bmp	0	1	+	0	1	blank2r.bmp	252	1	BZZB	306	2	spielen	559	0	0	0	0	0	0	0	0	0	0	0	0	0	0	0	0	0	0	0	0	0	0	0	0	0	0	0	0	0	0	0	0	0	0	0	0	0	0	0
081919	12:21:09	12:25:24	254961	5.0.10.0	5_exp_noRW	102	Rpleas_acq	CS_B	BZZB	MQQM	GWWG	JXXJ	YDDY	VKKV	schön	spielen	fair	retten	ehrlich	treu	schlecht	strafen	faul	rächen	eitel	tot	53pct	acq_USunple_CSunple2_noRW	acq23456_noRW	2	39	0	0	300	300	380	46	0	1	1	blank2r.bmp	0	1	+	0	1	blank2r.bmp	252	1	JXXJ	306	1	rächen	559	0	0	0	0	0	0	0	0	0	0	0	0	0	0	0	0	0	0	0	0	0	0	0	0	0	0	0	0	0	0	0	0	0	0	0	0	0	0	0
081919	12:21:09	12:25:26	256707	5.0.10.0	5_exp_noRW	102	Rpleas_acq	CS_B	BZZB	MQQM	GWWG	JXXJ	YDDY	VKKV	schön	spielen	fair	retten	ehrlich	treu	schlecht	strafen	faul	rächen	eitel	tot	53pct	acq_USunple_CSunple1_noRW	acq23456_noRW	2	40	0	0	300	300	560	46	0	1	1	blank2r.bmp	0	1	+	0	1	blank2r.bmp	252	1	GWWG	306	2	strafen	559	0	0	0	0	0	0	0	0	0	0	0	0	0	0	0	0	0	0	0	0	0	0	0	0	0	0	0	0	0	0	0	0	0	0	0	0	0	0	0
081919	12:21:09	12:25:28	258480	5.0.10.0	5_exp_noRW	102	Rpleas_acq	CS_B	BZZB	MQQM	GWWG	JXXJ	YDDY	VKKV	schön	spielen	fair	retten	ehrlich	treu	schlecht	strafen	faul	rächen	eitel	tot	47pct	acq_USpleas_CSpleas1_noRW	acq23456_noRW	2	41	0	0	300	300	588	50	0	1	1	blank2r.bmp	0	1	+	0	1	blank2r.bmp	252	1	BZZB	306	2	spielen	559	0	0	0	0	0	0	0	0	0	0	0	0	0	0	0	0	0	0	0	0	0	0	0	0	0	0	0	0	0	0	0	0	0	0	0	0	0	0	0
081919	12:21:09	12:25:30	260173	5.0.10.0	5_exp_noRW	102	Rpleas_acq	CS_B	BZZB	MQQM	GWWG	JXXJ	YDDY	VKKV	schön	spielen	fair	retten	ehrlich	treu	schlecht	strafen	faul	rächen	eitel	tot	47pct	acq_USunple_CSpleas1_noRW	acq23456_noRW	2	42	0	0	300	300	526	46	0	1	1	blank2r.bmp	0	1	+	0	1	blank2r.bmp	252	1	BZZB	306	2	strafen	559	0	0	0	0	0	0	0	0	0	0	0	0	0	0	0	0	0	0	0	0	0	0	0	0	0	0	0	0	0	0	0	0	0	0	0	0	0	0	0
081919	12:21:09	12:25:31	262065	5.0.10.0	5_exp_noRW	102	Rpleas_acq	CS_B	BZZB	MQQM	GWWG	JXXJ	YDDY	VKKV	schön	spielen	fair	retten	ehrlich	treu	schlecht	strafen	faul	rächen	eitel	tot	47pct	acq_USpleas_CSpleas2_noRW	acq23456_noRW	2	43	0	0	300	300	716	50	0	1	1	blank2r.bmp	0	1	+	0	1	blank2r.bmp	252	1	MQQM	306	3	treu	559	0	0	0	0	0	0	0	0	0	0	0	0	0	0	0	0	0	0	0	0	0	0	0	0	0	0	0	0	0	0	0	0	0	0	0	0	0	0	0
081919	12:21:09	12:25:33	263718	5.0.10.0	5_exp_noRW	102	Rpleas_acq	CS_B	BZZB	MQQM	GWWG	JXXJ	YDDY	VKKV	schön	spielen	fair	retten	ehrlich	treu	schlecht	strafen	faul	rächen	eitel	tot	53pct	acq_USunple_CSpleas2_noRW	acq23456_noRW	2	44	0	0	300	300	473	46	0	1	1	blank2r.bmp	0	1	+	0	1	blank2r.bmp	252	1	MQQM	306	3	tot	559	0	0	0	0	0	0	0	0	0	0	0	0	0	0	0	0	0	0	0	0	0	0	0	0	0	0	0	0	0	0	0	0	0	0	0	0	0	0	0
081919	12:21:09	12:25:35	265397	5.0.10.0	5_exp_noRW	102	Rpleas_acq	CS_B	BZZB	MQQM	GWWG	JXXJ	YDDY	VKKV	schön	spielen	fair	retten	ehrlich	treu	schlecht	strafen	faul	rächen	eitel	tot	53pct	acq_USpleas_CSpleas2_noRW	acq23456_noRW	2	45	0	0	300	300	507	50	0	1	1	blank2r.bmp	0	1	+	0	1	blank2r.bmp	252	1	MQQM	306	1	retten	559	0	0	0	0	0	0	0	0	0	0	0	0	0	0	0	0	0	0	0	0	0	0	0	0	0	0	0	0	0	0	0	0	0	0	0	0	0	0	0
081919	12:21:09	12:25:37	267143	5.0.10.0	5_exp_noRW	102	Rpleas_acq	CS_B	BZZB	MQQM	GWWG	JXXJ	YDDY	VKKV	schön	spielen	fair	retten	ehrlich	treu	schlecht	strafen	faul	rächen	eitel	tot	53pct	acq_USunple_CSunple1_noRW	acq23456_noRW	2	46	0	0	300	300	558	46	0	1	1	blank2r.bmp	0	1	+	0	1	blank2r.bmp	252	1	GWWG	306	2	strafen	559	0	0	0	0	0	0	0	0	0	0	0	0	0	0	0	0	0	0	0	0	0	0	0	0	0	0	0	0	0	0	0	0	0	0	0	0	0	0	0
081919	12:21:09	12:25:38	268769	5.0.10.0	5_exp_noRW	102	Rpleas_acq	CS_B	BZZB	MQQM	GWWG	JXXJ	YDDY	VKKV	schön	spielen	fair	retten	ehrlich	treu	schlecht	strafen	faul	rächen	eitel	tot	47pct	acq_USpleas_CSpleas1_noRW	acq23456_noRW	2	47	0	0	300	300	461	50	0	1	1	blank2r.bmp	0	1	+	0	1	blank2r.bmp	252	1	BZZB	306	1	schön	559	0	0	0	0	0	0	0	0	0	0	0	0	0	0	0	0	0	0	0	0	0	0	0	0	0	0	0	0	0	0	0	0	0	0	0	0	0	0	0
081919	12:21:09	12:25:40	270475	5.0.10.0	5_exp_noRW	102	Rpleas_acq	CS_B	BZZB	MQQM	GWWG	JXXJ	YDDY	VKKV	schön	spielen	fair	retten	ehrlich	treu	schlecht	strafen	faul	rächen	eitel	tot	47pct	acq_USunple_CSunple2_noRW	acq23456_noRW	2	48	0	0	300	300	534	46	0	1	1	blank2r.bmp	0	1	+	0	1	blank2r.bmp	252	1	JXXJ	306	3	tot	559	0	0	0	0	0	0	0	0	0	0	0	0	0	0	0	0	0	0	0	0	0	0	0	0	0	0	0	0	0	0	0	0	0	0	0	0	0	0	0
081919	12:21:09	12:25:42	272074	5.0.10.0	5_exp_noRW	102	Rpleas_acq	CS_B	BZZB	MQQM	GWWG	JXXJ	YDDY	VKKV	schön	spielen	fair	retten	ehrlich	treu	schlecht	strafen	faul	rächen	eitel	tot	53pct	acq_USpleas_CSpleas1_noRW	acq23456_noRW	2	49	0	0	300	300	426	50	0	1	1	blank2r.bmp	0	1	+	0	1	blank2r.bmp	252	1	BZZB	306	3	fair	559	0	0	0	0	0	0	0	0	0	0	0	0	0	0	0	0	0	0	0	0	0	0	0	0	0	0	0	0	0	0	0	0	0	0	0	0	0	0	0
081919	12:21:09	12:25:44	274100	5.0.10.0	5_exp_noRW	102	Rpleas_acq	CS_B	BZZB	MQQM	GWWG	JXXJ	YDDY	VKKV	schön	spielen	fair	retten	ehrlich	treu	schlecht	strafen	faul	rächen	eitel	tot	47pct	acq_USunple_CSunple2_noRW	acq23456_noRW	2	50	0	0	300	300	636	50	0	0	1	blank2r.bmp	0	1	+	0	1	blank2r.bmp	252	1	JXXJ	306	2	eitel	559	1	FEHLER	1226	0	0	0	0	0	0	0	0	0	0	0	0	0	0	0	0	0	0	0	0	0	0	0	0	0	0	0	0	0	0	0	0	0	0	0	0
081919	12:21:09	12:25:45	275953	5.0.10.0	5_exp_noRW	102	Rpleas_acq	CS_B	BZZB	MQQM	GWWG	JXXJ	YDDY	VKKV	schön	spielen	fair	retten	ehrlich	treu	schlecht	strafen	faul	rächen	eitel	tot	53pct	acq_USpleas_CSpleas2_noRW	acq23456_noRW	2	51	0	0	300	300	901	50	0	1	1	blank2r.bmp	0	1	+	0	1	blank2r.bmp	252	1	MQQM	306	2	ehrlich	559	0	0	0	0	0	0	0	0	0	0	0	0	0	0	0	0	0	0	0	0	0	0	0	0	0	0	0	0	0	0	0	0	0	0	0	0	0	0	0
081919	12:21:09	12:25:47	277752	5.0.10.0	5_exp_noRW	102	Rpleas_acq	CS_B	BZZB	MQQM	GWWG	JXXJ	YDDY	VKKV	schön	spielen	fair	retten	ehrlich	treu	schlecht	strafen	faul	rächen	eitel	tot	53pct	acq_USunple_CSunple1_noRW	acq23456_noRW	2	52	0	0	300	300	619	46	0	1	1	blank2r.bmp	0	1	+	0	1	blank2r.bmp	252	1	GWWG	306	1	schlecht	559	0	0	0	0	0	0	0	0	0	0	0	0	0	0	0	0	0	0	0	0	0	0	0	0	0	0	0	0	0	0	0	0	0	0	0	0	0	0	0
081919	12:21:09	12:25:49	279565	5.0.10.0	5_exp_noRW	102	Rpleas_acq	CS_B	BZZB	MQQM	GWWG	JXXJ	YDDY	VKKV	schön	spielen	fair	retten	ehrlich	treu	schlecht	strafen	faul	rächen	eitel	tot	53pct	acq_USunple_CSunple2_noRW	acq23456_noRW	2	53	0	0	300	300	637	46	0	1	1	blank2r.bmp	0	1	+	0	1	blank2r.bmp	252	1	JXXJ	306	1	rächen	559	0	0	0	0	0	0	0	0	0	0	0	0	0	0	0	0	0	0	0	0	0	0	0	0	0	0	0	0	0	0	0	0	0	0	0	0	0	0	0
081919	12:21:09	12:25:51	281337	5.0.10.0	5_exp_noRW	102	Rpleas_acq	CS_B	BZZB	MQQM	GWWG	JXXJ	YDDY	VKKV	schön	spielen	fair	retten	ehrlich	treu	schlecht	strafen	faul	rächen	eitel	tot	47pct	acq_USpleas_CSpleas1_noRW	acq23456_noRW	2	54	0	0	300	300	609	50	0	1	1	blank2r.bmp	0	1	+	0	1	blank2r.bmp	252	1	BZZB	306	1	schön	559	0	0	0	0	0	0	0	0	0	0	0	0	0	0	0	0	0	0	0	0	0	0	0	0	0	0	0	0	0	0	0	0	0	0	0	0	0	0	0
081919	12:21:09	12:25:53	283070	5.0.10.0	5_exp_noRW	102	Rpleas_acq	CS_B	BZZB	MQQM	GWWG	JXXJ	YDDY	VKKV	schön	spielen	fair	retten	ehrlich	treu	schlecht	strafen	faul	rächen	eitel	tot	47pct	acq_USunple_CSunple1_noRW	acq23456_noRW	2	55	0	0	300	300	557	46	0	1	1	blank2r.bmp	0	1	+	0	1	blank2r.bmp	252	1	GWWG	306	3	faul	559	0	0	0	0	0	0	0	0	0	0	0	0	0	0	0	0	0	0	0	0	0	0	0	0	0	0	0	0	0	0	0	0	0	0	0	0	0	0	0
081919	12:21:09	12:25:54	284843	5.0.10.0	5_exp_noRW	102	Rpleas_acq	CS_B	BZZB	MQQM	GWWG	JXXJ	YDDY	VKKV	schön	spielen	fair	retten	ehrlich	treu	schlecht	strafen	faul	rächen	eitel	tot	53pct	acq_USpleas_CSunple1_noRW	acq23456_noRW	2	56	0	0	300	300	585	50	0	1	1	blank2r.bmp	0	1	+	0	1	blank2r.bmp	252	1	GWWG	306	3	fair	559	0	0	0	0	0	0	0	0	0	0	0	0	0	0	0	0	0	0	0	0	0	0	0	0	0	0	0	0	0	0	0	0	0	0	0	0	0	0	0
081919	12:21:09	12:25:56	286469	5.0.10.0	5_exp_noRW	102	Rpleas_acq	CS_B	BZZB	MQQM	GWWG	JXXJ	YDDY	VKKV	schön	spielen	fair	retten	ehrlich	treu	schlecht	strafen	faul	rächen	eitel	tot	47pct	acq_USunple_CSunple1_noRW	acq23456_noRW	2	57	0	0	300	300	458	46	0	1	1	blank2r.bmp	0	1	+	0	1	blank2r.bmp	252	1	GWWG	306	1	schlecht	559	0	0	0	0	0	0	0	0	0	0	0	0	0	0	0	0	0	0	0	0	0	0	0	0	0	0	0	0	0	0	0	0	0	0	0	0	0	0	0
081919	12:21:09	12:25:58	288188	5.0.10.0	5_exp_noRW	102	Rpleas_acq	CS_B	BZZB	MQQM	GWWG	JXXJ	YDDY	VKKV	schön	spielen	fair	retten	ehrlich	treu	schlecht	strafen	faul	rächen	eitel	tot	47pct	acq_USpleas_CSpleas2_noRW	acq23456_noRW	2	58	0	0	300	300	535	50	0	1	1	blank2r.bmp	0	1	+	0	1	blank2r.bmp	252	1	MQQM	306	2	ehrlich	559	0	0	0	0	0	0	0	0	0	0	0	0	0	0	0	0	0	0	0	0	0	0	0	0	0	0	0	0	0	0	0	0	0	0	0	0	0	0	0
081919	12:21:09	12:26:00	290107	5.0.10.0	5_exp_noRW	102	Rpleas_acq	CS_B	BZZB	MQQM	GWWG	JXXJ	YDDY	VKKV	schön	spielen	fair	retten	ehrlich	treu	schlecht	strafen	faul	rächen	eitel	tot	53pct	acq_USpleas_CSunple2_noRW	acq23456_noRW	2	59	0	0	300	300	524	46	0	0	1	blank2r.bmp	0	1	+	0	1	blank2r.bmp	252	1	JXXJ	306	1	retten	559	1	FEHLER	1119	0	0	0	0	0	0	0	0	0	0	0	0	0	0	0	0	0	0	0	0	0	0	0	0	0	0	0	0	0	0	0	0	0	0	0	0
081919	12:21:09	12:26:01	291893	5.0.10.0	5_exp_noRW	102	Rpleas_acq	CS_B	BZZB	MQQM	GWWG	JXXJ	YDDY	VKKV	schön	spielen	fair	retten	ehrlich	treu	schlecht	strafen	faul	rächen	eitel	tot	53pct	acq_USunple_CSunple2_noRW	acq23456_noRW	2	60	0	0	300	300	837	46	0	1	1	blank2r.bmp	0	1	+	0	1	blank2r.bmp	252	1	JXXJ	306	2	eitel	559	0	0	0	0	0	0	0	0	0	0	0	0	0	0	0	0	0	0	0	0	0	0	0	0	0	0	0	0	0	0	0	0	0	0	0	0	0	0	0
081919	12:21:09	12:26:03	293559	5.0.10.0	5_exp_noRW	102	Rpleas_acq	CS_B	BZZB	MQQM	GWWG	JXXJ	YDDY	VKKV	schön	spielen	fair	retten	ehrlich	treu	schlecht	strafen	faul	rächen	eitel	tot	47pct	acq_USpleas_CSpleas1_noRW	acq23456_noRW	2	61	0	0	300	300	485	50	0	1	1	blank2r.bmp	0	1	+	0	1	blank2r.bmp	252	1	BZZB	306	2	spielen	559	0	0	0	0	0	0	0	0	0	0	0	0	0	0	0	0	0	0	0	0	0	0	0	0	0	0	0	0	0	0	0	0	0	0	0	0	0	0	0
081919	12:21:09	12:26:05	295238	5.0.10.0	5_exp_noRW	102	Rpleas_acq	CS_B	BZZB	MQQM	GWWG	JXXJ	YDDY	VKKV	schön	spielen	fair	retten	ehrlich	treu	schlecht	strafen	faul	rächen	eitel	tot	47pct	acq_USpleas_CSpleas2_noRW	acq23456_noRW	2	62	0	0	300	300	506	50	0	1	1	blank2r.bmp	0	1	+	0	1	blank2r.bmp	252	1	MQQM	306	3	treu	559	0	0	0	0	0	0	0	0	0	0	0	0	0	0	0	0	0	0	0	0	0	0	0	0	0	0	0	0	0	0	0	0	0	0	0	0	0	0	0
081919	12:21:09	12:26:06	296878	5.0.10.0	5_exp_noRW	102	Rpleas_acq	CS_B	BZZB	MQQM	GWWG	JXXJ	YDDY	VKKV	schön	spielen	fair	retten	ehrlich	treu	schlecht	strafen	faul	rächen	eitel	tot	47pct	acq_USunple_CSpleas2_noRW	acq23456_noRW	2	63	0	0	300	300	469	46	0	1	1	blank2r.bmp	0	1	+	0	1	blank2r.bmp	252	1	MQQM	306	1	rächen	559	0	0	0	0	0	0	0	0	0	0	0	0	0	0	0	0	0	0	0	0	0	0	0	0	0	0	0	0	0	0	0	0	0	0	0	0	0	0	0
081919	12:21:09	12:26:08	298757	5.0.10.0	5_exp_noRW	102	Rpleas_acq	CS_B	BZZB	MQQM	GWWG	JXXJ	YDDY	VKKV	schön	spielen	fair	retten	ehrlich	treu	schlecht	strafen	faul	rächen	eitel	tot	47pct	acq_USpleas_CSpleas1_noRW	acq23456_noRW	2	64	0	0	300	300	702	50	0	1	1	blank2r.bmp	0	1	+	0	1	blank2r.bmp	252	1	BZZB	306	3	fair	559	0	0	0	0	0	0	0	0	0	0	0	0	0	0	0	0	0	0	0	0	0	0	0	0	0	0	0	0	0	0	0	0	0	0	0	0	0	0	0
081919	12:21:09	12:26:10	300423	5.0.10.0	5_exp_noRW	102	Rpleas_acq	CS_B	BZZB	MQQM	GWWG	JXXJ	YDDY	VKKV	schön	spielen	fair	retten	ehrlich	treu	schlecht	strafen	faul	rächen	eitel	tot	53pct	acq_USpleas_CSpleas1_noRW	acq23456_noRW	2	65	0	0	300	300	485	50	0	1	1	blank2r.bmp	0	1	+	0	1	blank2r.bmp	252	1	BZZB	306	1	schön	559	0	0	0	0	0	0	0	0	0	0	0	0	0	0	0	0	0	0	0	0	0	0	0	0	0	0	0	0	0	0	0	0	0	0	0	0	0	0	0
081919	12:21:09	12:26:11	302049	5.0.10.0	5_exp_noRW	102	Rpleas_acq	CS_B	BZZB	MQQM	GWWG	JXXJ	YDDY	VKKV	schön	spielen	fair	retten	ehrlich	treu	schlecht	strafen	faul	rächen	eitel	tot	47pct	acq_USunple_CSunple2_noRW	acq23456_noRW	2	66	0	0	300	300	453	46	0	1	1	blank2r.bmp	0	1	+	0	1	blank2r.bmp	252	1	JXXJ	306	3	tot	559	0	0	0	0	0	0	0	0	0	0	0	0	0	0	0	0	0	0	0	0	0	0	0	0	0	0	0	0	0	0	0	0	0	0	0	0	0	0	0
081919	12:21:09	12:26:13	303861	5.0.10.0	5_exp_noRW	102	Rpleas_acq	CS_B	BZZB	MQQM	GWWG	JXXJ	YDDY	VKKV	schön	spielen	fair	retten	ehrlich	treu	schlecht	strafen	faul	rächen	eitel	tot	47pct	acq_USunple_CSunple1_noRW	acq23456_noRW	2	67	0	0	300	300	643	46	0	1	1	blank2r.bmp	0	1	+	0	1	blank2r.bmp	252	1	GWWG	306	2	strafen	559	0	0	0	0	0	0	0	0	0	0	0	0	0	0	0	0	0	0	0	0	0	0	0	0	0	0	0	0	0	0	0	0	0	0	0	0	0	0	0
081919	12:21:09	12:26:15	305674	5.0.10.0	5_exp_noRW	102	Rpleas_acq	CS_B	BZZB	MQQM	GWWG	JXXJ	YDDY	VKKV	schön	spielen	fair	retten	ehrlich	treu	schlecht	strafen	faul	rächen	eitel	tot	47pct	acq_USpleas_CSpleas2_noRW	acq23456_noRW	2	68	0	0	300	300	638	50	0	1	1	blank2r.bmp	0	1	+	0	1	blank2r.bmp	252	1	MQQM	306	1	retten	559	0	0	0	0	0	0	0	0	0	0	0	0	0	0	0	0	0	0	0	0	0	0	0	0	0	0	0	0	0	0	0	0	0	0	0	0	0	0	0
081919	12:21:09	12:26:17	307327	5.0.10.0	5_exp_noRW	102	Rpleas_acq	CS_B	BZZB	MQQM	GWWG	JXXJ	YDDY	VKKV	schön	spielen	fair	retten	ehrlich	treu	schlecht	strafen	faul	rächen	eitel	tot	47pct	acq_USpleas_CSunple1_noRW	acq23456_noRW	2	69	0	0	300	300	485	50	0	1	1	blank2r.bmp	0	1	+	0	1	blank2r.bmp	252	1	GWWG	306	2	spielen	559	0	0	0	0	0	0	0	0	0	0	0	0	0	0	0	0	0	0	0	0	0	0	0	0	0	0	0	0	0	0	0	0	0	0	0	0	0	0	0
081919	12:21:09	12:26:19	309126	5.0.10.0	5_exp_noRW	102	Rpleas_acq	CS_B	BZZB	MQQM	GWWG	JXXJ	YDDY	VKKV	schön	spielen	fair	retten	ehrlich	treu	schlecht	strafen	faul	rächen	eitel	tot	47pct	acq_USunple_CSunple2_noRW	acq23456_noRW	2	70	0	0	300	300	624	46	0	1	1	blank2r.bmp	0	1	+	0	1	blank2r.bmp	252	1	JXXJ	306	1	rächen	559	0	0	0	0	0	0	0	0	0	0	0	0	0	0	0	0	0	0	0	0	0	0	0	0	0	0	0	0	0	0	0	0	0	0	0	0	0	0	0
081919	12:21:09	12:26:20	310792	5.0.10.0	5_exp_noRW	102	Rpleas_acq	CS_B	BZZB	MQQM	GWWG	JXXJ	YDDY	VKKV	schön	spielen	fair	retten	ehrlich	treu	schlecht	strafen	faul	rächen	eitel	tot	53pct	acq_USunple_CSunple1_noRW	acq23456_noRW	2	71	0	0	300	300	491	46	0	1	1	blank2r.bmp	0	1	+	0	1	blank2r.bmp	252	1	GWWG	306	3	faul	559	0	0	0	0	0	0	0	0	0	0	0	0	0	0	0	0	0	0	0	0	0	0	0	0	0	0	0	0	0	0	0	0	0	0	0	0	0	0	0
081919	12:21:09	12:26:22	312378	5.0.10.0	5_exp_noRW	102	Rpleas_acq	CS_B	BZZB	MQQM	GWWG	JXXJ	YDDY	VKKV	schön	spielen	fair	retten	ehrlich	treu	schlecht	strafen	faul	rächen	eitel	tot	47pct	acq_USpleas_CSpleas2_noRW	acq23456_noRW	2	72	0	0	300	300	418	50	0	1	1	blank2r.bmp	0	1	+	0	1	blank2r.bmp	252	1	MQQM	306	2	ehrlich	559	0	0	0	0	0	0	0	0	0	0	0	0	0	0	0	0	0	0	0	0	0	0	0	0	0	0	0	0	0	0	0	0	0	0	0	0	0	0	0
081919	12:21:09	12:26:23	314057	5.0.10.0	5_exp_noRW	102	Rpleas_acq	CS_B	BZZB	MQQM	GWWG	JXXJ	YDDY	VKKV	schön	spielen	fair	retten	ehrlich	treu	schlecht	strafen	faul	rächen	eitel	tot	47pct	acq_USpleas_CSpleas2_noRW	acq23456_noRW	2	73	0	0	300	300	513	50	0	1	1	blank2r.bmp	0	1	+	0	1	blank2r.bmp	252	1	MQQM	306	1	retten	559	0	0	0	0	0	0	0	0	0	0	0	0	0	0	0	0	0	0	0	0	0	0	0	0	0	0	0	0	0	0	0	0	0	0	0	0	0	0	0
081919	12:21:09	12:26:25	315763	5.0.10.0	5_exp_noRW	102	Rpleas_acq	CS_B	BZZB	MQQM	GWWG	JXXJ	YDDY	VKKV	schön	spielen	fair	retten	ehrlich	treu	schlecht	strafen	faul	rächen	eitel	tot	47pct	acq_USpleas_CSunple2_noRW	acq23456_noRW	2	74	0	0	300	300	533	50	0	1	1	blank2r.bmp	0	1	+	0	1	blank2r.bmp	252	1	JXXJ	306	3	treu	559	0	0	0	0	0	0	0	0	0	0	0	0	0	0	0	0	0	0	0	0	0	0	0	0	0	0	0	0	0	0	0	0	0	0	0	0	0	0	0
081919	12:21:09	12:26:27	317389	5.0.10.0	5_exp_noRW	102	Rpleas_acq	CS_B	BZZB	MQQM	GWWG	JXXJ	YDDY	VKKV	schön	spielen	fair	retten	ehrlich	treu	schlecht	strafen	faul	rächen	eitel	tot	47pct	acq_USunple_CSunple1_noRW	acq23456_noRW	2	75	0	0	300	300	464	46	0	1	1	blank2r.bmp	0	1	+	0	1	blank2r.bmp	252	1	GWWG	306	2	strafen	559	0	0	0	0	0	0	0	0	0	0	0	0	0	0	0	0	0	0	0	0	0	0	0	0	0	0	0	0	0	0	0	0	0	0	0	0	0	0	0
081919	12:21:09	12:26:28	319002	5.0.10.0	5_exp_noRW	102	Rpleas_acq	CS_B	BZZB	MQQM	GWWG	JXXJ	YDDY	VKKV	schön	spielen	fair	retten	ehrlich	treu	schlecht	strafen	faul	rächen	eitel	tot	53pct	acq_USunple_CSpleas1_noRW	acq23456_noRW	2	76	0	0	300	300	434	46	0	1	1	blank2r.bmp	0	1	+	0	1	blank2r.bmp	252	1	BZZB	306	3	faul	559	0	0	0	0	0	0	0	0	0	0	0	0	0	0	0	0	0	0	0	0	0	0	0	0	0	0	0	0	0	0	0	0	0	0	0	0	0	0	0
081919	12:21:09	12:26:30	320721	5.0.10.0	5_exp_noRW	102	Rpleas_acq	CS_B	BZZB	MQQM	GWWG	JXXJ	YDDY	VKKV	schön	spielen	fair	retten	ehrlich	treu	schlecht	strafen	faul	rächen	eitel	tot	47pct	acq_USpleas_CSpleas1_noRW	acq23456_noRW	2	77	0	0	300	300	555	50	0	1	1	blank2r.bmp	0	1	+	0	1	blank2r.bmp	252	1	BZZB	306	2	spielen	559	0	0	0	0	0	0	0	0	0	0	0	0	0	0	0	0	0	0	0	0	0	0	0	0	0	0	0	0	0	0	0	0	0	0	0	0	0	0	0
081919	12:21:09	12:26:32	322334	5.0.10.0	5_exp_noRW	102	Rpleas_acq	CS_B	BZZB	MQQM	GWWG	JXXJ	YDDY	VKKV	schön	spielen	fair	retten	ehrlich	treu	schlecht	strafen	faul	rächen	eitel	tot	53pct	acq_USunple_CSunple1_noRW	acq23456_noRW	2	78	0	0	300	300	436	46	0	1	1	blank2r.bmp	0	1	+	0	1	blank2r.bmp	252	1	GWWG	306	1	schlecht	559	0	0	0	0	0	0	0	0	0	0	0	0	0	0	0	0	0	0	0	0	0	0	0	0	0	0	0	0	0	0	0	0	0	0	0	0	0	0	0
081919	12:21:09	12:26:33	323960	5.0.10.0	5_exp_noRW	102	Rpleas_acq	CS_B	BZZB	MQQM	GWWG	JXXJ	YDDY	VKKV	schön	spielen	fair	retten	ehrlich	treu	schlecht	strafen	faul	rächen	eitel	tot	47pct	acq_USunple_CSunple2_noRW	acq23456_noRW	2	79	0	0	300	300	446	46	0	1	1	blank2r.bmp	0	1	+	0	1	blank2r.bmp	252	1	JXXJ	306	3	tot	559	0	0	0	0	0	0	0	0	0	0	0	0	0	0	0	0	0	0	0	0	0	0	0	0	0	0	0	0	0	0	0	0	0	0	0	0	0	0	0
081919	12:21:09	12:26:35	325652	5.0.10.0	5_exp_noRW	102	Rpleas_acq	CS_B	BZZB	MQQM	GWWG	JXXJ	YDDY	VKKV	schön	spielen	fair	retten	ehrlich	treu	schlecht	strafen	faul	rächen	eitel	tot	53pct	acq_USunple_CSunple2_noRW	acq23456_noRW	2	80	0	0	300	300	517	46	0	1	1	blank2r.bmp	0	1	+	0	1	blank2r.bmp	252	1	JXXJ	306	2	eitel	559	0	0	0	0	0	0	0	0	0	0	0	0	0	0	0	0	0	0	0	0	0	0	0	0	0	0	0	0	0	0	0	0	0	0	0	0	0	0	0
081919	12:21:09	12:26:42	332756	5.0.10.0	5_exp_noRW	102	Rpleas_acq	CS_B	BZZB	MQQM	GWWG	JXXJ	YDDY	VKKV	schön	spielen	fair	retten	ehrlich	treu	schlecht	strafen	faul	rächen	eitel	tot	47pct	acq_USunple_CSunple2_noRW	acq23456_noRW	3	1	0	0	300	300	344	46	0	1	1	blank2r.bmp	0	1	+	0	1	blank2r.bmp	252	1	JXXJ	306	1	rächen	559	0	0	0	0	0	0	0	0	0	0	0	0	0	0	0	0	0	0	0	0	0	0	0	0	0	0	0	0	0	0	0	0	0	0	0	0	0	0	0
081919	12:21:09	12:26:44	334289	5.0.10.0	5_exp_noRW	102	Rpleas_acq	CS_B	BZZB	MQQM	GWWG	JXXJ	YDDY	VKKV	schön	spielen	fair	retten	ehrlich	treu	schlecht	strafen	faul	rächen	eitel	tot	47pct	acq_USunple_CSpleas1_noRW	acq23456_noRW	3	2	0	0	300	300	346	46	0	1	1	blank2r.bmp	0	1	+	0	1	blank2r.bmp	252	1	BZZB	306	1	schlecht	559	0	0	0	0	0	0	0	0	0	0	0	0	0	0	0	0	0	0	0	0	0	0	0	0	0	0	0	0	0	0	0	0	0	0	0	0	0	0	0
081919	12:21:09	12:26:45	335808	5.0.10.0	5_exp_noRW	102	Rpleas_acq	CS_B	BZZB	MQQM	GWWG	JXXJ	YDDY	VKKV	schön	spielen	fair	retten	ehrlich	treu	schlecht	strafen	faul	rächen	eitel	tot	47pct	acq_USunple_CSpleas2_noRW	acq23456_noRW	3	3	0	0	300	300	349	46	0	1	1	blank2r.bmp	0	1	+	0	1	blank2r.bmp	252	1	MQQM	306	2	eitel	559	0	0	0	0	0	0	0	0	0	0	0	0	0	0	0	0	0	0	0	0	0	0	0	0	0	0	0	0	0	0	0	0	0	0	0	0	0	0	0
081919	12:21:09	12:26:47	337421	5.0.10.0	5_exp_noRW	102	Rpleas_acq	CS_B	BZZB	MQQM	GWWG	JXXJ	YDDY	VKKV	schön	spielen	fair	retten	ehrlich	treu	schlecht	strafen	faul	rächen	eitel	tot	47pct	acq_USpleas_CSpleas1_noRW	acq23456_noRW	3	4	0	0	300	300	439	50	0	1	1	blank2r.bmp	0	1	+	0	1	blank2r.bmp	252	1	BZZB	306	3	fair	559	0	0	0	0	0	0	0	0	0	0	0	0	0	0	0	0	0	0	0	0	0	0	0	0	0	0	0	0	0	0	0	0	0	0	0	0	0	0	0
081919	12:21:09	12:26:49	339100	5.0.10.0	5_exp_noRW	102	Rpleas_acq	CS_B	BZZB	MQQM	GWWG	JXXJ	YDDY	VKKV	schön	spielen	fair	retten	ehrlich	treu	schlecht	strafen	faul	rächen	eitel	tot	47pct	acq_USunple_CSunple1_noRW	acq23456_noRW	3	5	0	0	300	300	501	46	0	1	1	blank2r.bmp	0	1	+	0	1	blank2r.bmp	252	1	GWWG	306	3	faul	559	0	0	0	0	0	0	0	0	0	0	0	0	0	0	0	0	0	0	0	0	0	0	0	0	0	0	0	0	0	0	0	0	0	0	0	0	0	0	0
081919	12:21:09	12:26:50	340980	5.0.10.0	5_exp_noRW	102	Rpleas_acq	CS_B	BZZB	MQQM	GWWG	JXXJ	YDDY	VKKV	schön	spielen	fair	retten	ehrlich	treu	schlecht	strafen	faul	rächen	eitel	tot	53pct	acq_USpleas_CSpleas1_noRW	acq23456_noRW	3	6	0	0	300	300	698	50	0	1	1	blank2r.bmp	0	1	+	0	1	blank2r.bmp	252	1	BZZB	306	1	schön	559	0	0	0	0	0	0	0	0	0	0	0	0	0	0	0	0	0	0	0	0	0	0	0	0	0	0	0	0	0	0	0	0	0	0	0	0	0	0	0
081919	12:21:09	12:26:52	342659	5.0.10.0	5_exp_noRW	102	Rpleas_acq	CS_B	BZZB	MQQM	GWWG	JXXJ	YDDY	VKKV	schön	spielen	fair	retten	ehrlich	treu	schlecht	strafen	faul	rächen	eitel	tot	47pct	acq_USpleas_CSunple1_noRW	acq23456_noRW	3	7	0	0	300	300	504	50	0	1	1	blank2r.bmp	0	1	+	0	1	blank2r.bmp	252	1	GWWG	306	1	schön	559	0	0	0	0	0	0	0	0	0	0	0	0	0	0	0	0	0	0	0	0	0	0	0	0	0	0	0	0	0	0	0	0	0	0	0	0	0	0	0
081919	12:21:09	12:26:54	344298	5.0.10.0	5_exp_noRW	102	Rpleas_acq	CS_B	BZZB	MQQM	GWWG	JXXJ	YDDY	VKKV	schön	spielen	fair	retten	ehrlich	treu	schlecht	strafen	faul	rächen	eitel	tot	53pct	acq_USunple_CSunple1_noRW	acq23456_noRW	3	8	0	0	300	300	454	46	0	1	1	blank2r.bmp	0	1	+	0	1	blank2r.bmp	252	1	GWWG	306	1	schlecht	559	0	0	0	0	0	0	0	0	0	0	0	0	0	0	0	0	0	0	0	0	0	0	0	0	0	0	0	0	0	0	0	0	0	0	0	0	0	0	0
081919	12:21:09	12:26:55	346017	5.0.10.0	5_exp_noRW	102	Rpleas_acq	CS_B	BZZB	MQQM	GWWG	JXXJ	YDDY	VKKV	schön	spielen	fair	retten	ehrlich	treu	schlecht	strafen	faul	rächen	eitel	tot	53pct	acq_USpleas_CSpleas2_noRW	acq23456_noRW	3	9	0	0	300	300	551	50	0	1	1	blank2r.bmp	0	1	+	0	1	blank2r.bmp	252	1	MQQM	306	3	treu	559	0	0	0	0	0	0	0	0	0	0	0	0	0	0	0	0	0	0	0	0	0	0	0	0	0	0	0	0	0	0	0	0	0	0	0	0	0	0	0
081919	12:21:09	12:26:57	347630	5.0.10.0	5_exp_noRW	102	Rpleas_acq	CS_B	BZZB	MQQM	GWWG	JXXJ	YDDY	VKKV	schön	spielen	fair	retten	ehrlich	treu	schlecht	strafen	faul	rächen	eitel	tot	53pct	acq_USunple_CSunple1_noRW	acq23456_noRW	3	10	0	0	300	300	432	46	0	1	1	blank2r.bmp	0	1	+	0	1	blank2r.bmp	252	1	GWWG	306	2	strafen	559	0	0	0	0	0	0	0	0	0	0	0	0	0	0	0	0	0	0	0	0	0	0	0	0	0	0	0	0	0	0	0	0	0	0	0	0	0	0	0
081919	12:21:09	12:26:59	349629	5.0.10.0	5_exp_noRW	102	Rpleas_acq	CS_B	BZZB	MQQM	GWWG	JXXJ	YDDY	VKKV	schön	spielen	fair	retten	ehrlich	treu	schlecht	strafen	faul	rächen	eitel	tot	47pct	acq_USunple_CSunple2_noRW	acq23456_noRW	3	11	0	0	300	300	836	46	0	1	1	blank2r.bmp	0	1	+	0	1	blank2r.bmp	252	1	JXXJ	306	1	rächen	559	0	0	0	0	0	0	0	0	0	0	0	0	0	0	0	0	0	0	0	0	0	0	0	0	0	0	0	0	0	0	0	0	0	0	0	0	0	0	0
081919	12:21:09	12:27:01	351988	5.0.10.0	5_exp_noRW	102	Rpleas_acq	CS_B	BZZB	MQQM	GWWG	JXXJ	YDDY	VKKV	schön	spielen	fair	retten	ehrlich	treu	schlecht	strafen	faul	rächen	eitel	tot	53pct	acq_USpleas_CSpleas2_noRW	acq23456_noRW	3	12	0	0	300	300	1172	50	0	1	1	blank2r.bmp	0	1	+	0	1	blank2r.bmp	252	1	MQQM	306	2	ehrlich	559	0	0	0	0	0	0	0	0	0	0	0	0	0	0	0	0	0	0	0	0	0	0	0	0	0	0	0	0	0	0	0	0	0	0	0	0	0	0	0
081919	12:21:09	12:27:03	353881	5.0.10.0	5_exp_noRW	102	Rpleas_acq	CS_B	BZZB	MQQM	GWWG	JXXJ	YDDY	VKKV	schön	spielen	fair	retten	ehrlich	treu	schlecht	strafen	faul	rächen	eitel	tot	53pct	acq_USpleas_CSpleas2_noRW	acq23456_noRW	3	13	0	0	300	300	720	50	0	1	1	blank2r.bmp	0	1	+	0	1	blank2r.bmp	252	1	MQQM	306	1	retten	559	0	0	0	0	0	0	0	0	0	0	0	0	0	0	0	0	0	0	0	0	0	0	0	0	0	0	0	0	0	0	0	0	0	0	0	0	0	0	0
081919	12:21:09	12:27:05	355534	5.0.10.0	5_exp_noRW	102	Rpleas_acq	CS_B	BZZB	MQQM	GWWG	JXXJ	YDDY	VKKV	schön	spielen	fair	retten	ehrlich	treu	schlecht	strafen	faul	rächen	eitel	tot	53pct	acq_USpleas_CSunple2_noRW	acq23456_noRW	3	14	0	0	300	300	476	50	0	1	1	blank2r.bmp	0	1	+	0	1	blank2r.bmp	252	1	JXXJ	306	2	ehrlich	559	0	0	0	0	0	0	0	0	0	0	0	0	0	0	0	0	0	0	0	0	0	0	0	0	0	0	0	0	0	0	0	0	0	0	0	0	0	0	0
081919	12:21:09	12:27:07	357120	5.0.10.0	5_exp_noRW	102	Rpleas_acq	CS_B	BZZB	MQQM	GWWG	JXXJ	YDDY	VKKV	schön	spielen	fair	retten	ehrlich	treu	schlecht	strafen	faul	rächen	eitel	tot	53pct	acq_USpleas_CSpleas1_noRW	acq23456_noRW	3	15	0	0	300	300	407	50	0	1	1	blank2r.bmp	0	1	+	0	1	blank2r.bmp	252	1	BZZB	306	3	fair	559	0	0	0	0	0	0	0	0	0	0	0	0	0	0	0	0	0	0	0	0	0	0	0	0	0	0	0	0	0	0	0	0	0	0	0	0	0	0	0
081919	12:21:09	12:27:08	358719	5.0.10.0	5_exp_noRW	102	Rpleas_acq	CS_B	BZZB	MQQM	GWWG	JXXJ	YDDY	VKKV	schön	spielen	fair	retten	ehrlich	treu	schlecht	strafen	faul	rächen	eitel	tot	47pct	acq_USunple_CSunple2_noRW	acq23456_noRW	3	16	0	0	300	300	422	46	0	1	1	blank2r.bmp	0	1	+	0	1	blank2r.bmp	252	1	JXXJ	306	3	tot	559	0	0	0	0	0	0	0	0	0	0	0	0	0	0	0	0	0	0	0	0	0	0	0	0	0	0	0	0	0	0	0	0	0	0	0	0	0	0	0
081919	12:21:09	12:27:10	360651	5.0.10.0	5_exp_noRW	102	Rpleas_acq	CS_B	BZZB	MQQM	GWWG	JXXJ	YDDY	VKKV	schön	spielen	fair	retten	ehrlich	treu	schlecht	strafen	faul	rächen	eitel	tot	53pct	acq_USpleas_CSpleas2_noRW	acq23456_noRW	3	17	0	0	300	300	761	50	0	1	1	blank2r.bmp	0	1	+	0	1	blank2r.bmp	252	1	MQQM	306	3	treu	559	0	0	0	0	0	0	0	0	0	0	0	0	0	0	0	0	0	0	0	0	0	0	0	0	0	0	0	0	0	0	0	0	0	0	0	0	0	0	0
081919	12:21:09	12:27:12	362397	5.0.10.0	5_exp_noRW	102	Rpleas_acq	CS_B	BZZB	MQQM	GWWG	JXXJ	YDDY	VKKV	schön	spielen	fair	retten	ehrlich	treu	schlecht	strafen	faul	rächen	eitel	tot	47pct	acq_USunple_CSunple2_noRW	acq23456_noRW	3	18	0	0	300	300	566	46	0	1	1	blank2r.bmp	0	1	+	0	1	blank2r.bmp	252	1	JXXJ	306	2	eitel	559	0	0	0	0	0	0	0	0	0	0	0	0	0	0	0	0	0	0	0	0	0	0	0	0	0	0	0	0	0	0	0	0	0	0	0	0	0	0	0
081919	12:21:09	12:27:14	364157	5.0.10.0	5_exp_noRW	102	Rpleas_acq	CS_B	BZZB	MQQM	GWWG	JXXJ	YDDY	VKKV	schön	spielen	fair	retten	ehrlich	treu	schlecht	strafen	faul	rächen	eitel	tot	53pct	acq_USpleas_CSpleas1_noRW	acq23456_noRW	3	19	0	0	300	300	582	50	0	1	1	blank2r.bmp	0	1	+	0	1	blank2r.bmp	252	1	BZZB	306	2	spielen	559	0	0	0	0	0	0	0	0	0	0	0	0	0	0	0	0	0	0	0	0	0	0	0	0	0	0	0	0	0	0	0	0	0	0	0	0	0	0	0
081919	12:21:09	12:27:15	365836	5.0.10.0	5_exp_noRW	102	Rpleas_acq	CS_B	BZZB	MQQM	GWWG	JXXJ	YDDY	VKKV	schön	spielen	fair	retten	ehrlich	treu	schlecht	strafen	faul	rächen	eitel	tot	53pct	acq_USunple_CSunple1_noRW	acq23456_noRW	3	20	0	0	300	300	500	46	0	1	1	blank2r.bmp	0	1	+	0	1	blank2r.bmp	252	1	GWWG	306	3	faul	559	0	0	0	0	0	0	0	0	0	0	0	0	0	0	0	0	0	0	0	0	0	0	0	0	0	0	0	0	0	0	0	0	0	0	0	0	0	0	0
081919	12:21:09	12:27:17	367435	5.0.10.0	5_exp_noRW	102	Rpleas_acq	CS_B	BZZB	MQQM	GWWG	JXXJ	YDDY	VKKV	schön	spielen	fair	retten	ehrlich	treu	schlecht	strafen	faul	rächen	eitel	tot	53pct	acq_USunple_CSpleas2_noRW	acq23456_noRW	3	21	0	0	300	300	413	46	0	1	1	blank2r.bmp	0	1	+	0	1	blank2r.bmp	252	1	MQQM	306	3	tot	559	0	0	0	0	0	0	0	0	0	0	0	0	0	0	0	0	0	0	0	0	0	0	0	0	0	0	0	0	0	0	0	0	0	0	0	0	0	0	0
081919	12:21:09	12:27:19	369888	5.0.10.0	5_exp_noRW	102	Rpleas_acq	CS_B	BZZB	MQQM	GWWG	JXXJ	YDDY	VKKV	schön	spielen	fair	retten	ehrlich	treu	schlecht	strafen	faul	rächen	eitel	tot	47pct	acq_USpleas_CSpleas2_noRW	acq23456_noRW	3	22	0	0	300	300	1274	50	0	1	1	blank2r.bmp	0	1	+	0	1	blank2r.bmp	252	1	MQQM	306	1	retten	559	0	0	0	0	0	0	0	0	0	0	0	0	0	0	0	0	0	0	0	0	0	0	0	0	0	0	0	0	0	0	0	0	0	0	0	0	0	0	0
081919	12:21:09	12:27:21	371674	5.0.10.0	5_exp_noRW	102	Rpleas_acq	CS_B	BZZB	MQQM	GWWG	JXXJ	YDDY	VKKV	schön	spielen	fair	retten	ehrlich	treu	schlecht	strafen	faul	rächen	eitel	tot	47pct	acq_USunple_CSunple1_noRW	acq23456_noRW	3	23	0	0	300	300	621	46	0	1	1	blank2r.bmp	0	1	+	0	1	blank2r.bmp	252	1	GWWG	306	1	schlecht	559	0	0	0	0	0	0	0	0	0	0	0	0	0	0	0	0	0	0	0	0	0	0	0	0	0	0	0	0	0	0	0	0	0	0	0	0	0	0	0
081919	12:21:09	12:27:23	373486	5.0.10.0	5_exp_noRW	102	Rpleas_acq	CS_B	BZZB	MQQM	GWWG	JXXJ	YDDY	VKKV	schön	spielen	fair	retten	ehrlich	treu	schlecht	strafen	faul	rächen	eitel	tot	47pct	acq_USpleas_CSpleas1_noRW	acq23456_noRW	3	24	0	0	300	300	636	50	0	1	1	blank2r.bmp	0	1	+	0	1	blank2r.bmp	252	1	BZZB	306	3	fair	559	0	0	0	0	0	0	0	0	0	0	0	0	0	0	0	0	0	0	0	0	0	0	0	0	0	0	0	0	0	0	0	0	0	0	0	0	0	0	0
081919	12:21:09	12:27:25	375219	5.0.10.0	5_exp_noRW	102	Rpleas_acq	CS_B	BZZB	MQQM	GWWG	JXXJ	YDDY	VKKV	schön	spielen	fair	retten	ehrlich	treu	schlecht	strafen	faul	rächen	eitel	tot	53pct	acq_USunple_CSunple1_noRW	acq23456_noRW	3	25	0	0	300	300	551	46	0	1	1	blank2r.bmp	0	1	+	0	1	blank2r.bmp	252	1	GWWG	306	2	strafen	559	0	0	0	0	0	0	0	0	0	0	0	0	0	0	0	0	0	0	0	0	0	0	0	0	0	0	0	0	0	0	0	0	0	0	0	0	0	0	0
081919	12:21:09	12:27:26	376991	5.0.10.0	5_exp_noRW	102	Rpleas_acq	CS_B	BZZB	MQQM	GWWG	JXXJ	YDDY	VKKV	schön	spielen	fair	retten	ehrlich	treu	schlecht	strafen	faul	rächen	eitel	tot	53pct	acq_USpleas_CSpleas2_noRW	acq23456_noRW	3	26	0	0	300	300	595	50	0	1	1	blank2r.bmp	0	1	+	0	1	blank2r.bmp	252	1	MQQM	306	3	treu	559	0	0	0	0	0	0	0	0	0	0	0	0	0	0	0	0	0	0	0	0	0	0	0	0	0	0	0	0	0	0	0	0	0	0	0	0	0	0	0
081919	12:21:09	12:27:28	378684	5.0.10.0	5_exp_noRW	102	Rpleas_acq	CS_B	BZZB	MQQM	GWWG	JXXJ	YDDY	VKKV	schön	spielen	fair	retten	ehrlich	treu	schlecht	strafen	faul	rächen	eitel	tot	47pct	acq_USpleas_CSpleas1_noRW	acq23456_noRW	3	27	0	0	300	300	516	50	0	1	1	blank2r.bmp	0	1	+	0	1	blank2r.bmp	252	1	BZZB	306	1	schön	559	0	0	0	0	0	0	0	0	0	0	0	0	0	0	0	0	0	0	0	0	0	0	0	0	0	0	0	0	0	0	0	0	0	0	0	0	0	0	0
081919	12:21:09	12:27:30	380297	5.0.10.0	5_exp_noRW	102	Rpleas_acq	CS_B	BZZB	MQQM	GWWG	JXXJ	YDDY	VKKV	schön	spielen	fair	retten	ehrlich	treu	schlecht	strafen	faul	rächen	eitel	tot	53pct	acq_USpleas_CSpleas1_noRW	acq23456_noRW	3	28	0	0	300	300	434	50	0	1	1	blank2r.bmp	0	1	+	0	1	blank2r.bmp	252	1	BZZB	306	2	spielen	559	0	0	0	0	0	0	0	0	0	0	0	0	0	0	0	0	0	0	0	0	0	0	0	0	0	0	0	0	0	0	0	0	0	0	0	0	0	0	0
081919	12:21:09	12:27:31	381869	5.0.10.0	5_exp_noRW	102	Rpleas_acq	CS_B	BZZB	MQQM	GWWG	JXXJ	YDDY	VKKV	schön	spielen	fair	retten	ehrlich	treu	schlecht	strafen	faul	rächen	eitel	tot	53pct	acq_USunple_CSunple2_noRW	acq23456_noRW	3	29	0	0	300	300	407	46	0	1	1	blank2r.bmp	0	1	+	0	1	blank2r.bmp	252	1	JXXJ	306	1	rächen	559	0	0	0	0	0	0	0	0	0	0	0	0	0	0	0	0	0	0	0	0	0	0	0	0	0	0	0	0	0	0	0	0	0	0	0	0	0	0	0
081919	12:21:09	12:27:33	383509	5.0.10.0	5_exp_noRW	102	Rpleas_acq	CS_B	BZZB	MQQM	GWWG	JXXJ	YDDY	VKKV	schön	spielen	fair	retten	ehrlich	treu	schlecht	strafen	faul	rächen	eitel	tot	53pct	acq_USunple_CSunple2_noRW	acq23456_noRW	3	30	0	0	300	300	467	46	0	1	1	blank2r.bmp	0	1	+	0	1	blank2r.bmp	252	1	JXXJ	306	3	tot	559	0	0	0	0	0	0	0	0	0	0	0	0	0	0	0	0	0	0	0	0	0	0	0	0	0	0	0	0	0	0	0	0	0	0	0	0	0	0	0
081919	12:21:09	12:27:35	385095	5.0.10.0	5_exp_noRW	102	Rpleas_acq	CS_B	BZZB	MQQM	GWWG	JXXJ	YDDY	VKKV	schön	spielen	fair	retten	ehrlich	treu	schlecht	strafen	faul	rächen	eitel	tot	53pct	acq_USpleas_CSpleas1_noRW	acq23456_noRW	3	31	0	0	300	300	420	50	0	1	1	blank2r.bmp	0	1	+	0	1	blank2r.bmp	252	1	BZZB	306	3	fair	559	0	0	0	0	0	0	0	0	0	0	0	0	0	0	0	0	0	0	0	0	0	0	0	0	0	0	0	0	0	0	0	0	0	0	0	0	0	0	0
081919	12:21:09	12:27:36	386681	5.0.10.0	5_exp_noRW	102	Rpleas_acq	CS_B	BZZB	MQQM	GWWG	JXXJ	YDDY	VKKV	schön	spielen	fair	retten	ehrlich	treu	schlecht	strafen	faul	rächen	eitel	tot	47pct	acq_USpleas_CSunple1_noRW	acq23456_noRW	3	32	0	0	300	300	409	50	0	1	1	blank2r.bmp	0	1	+	0	1	blank2r.bmp	252	1	GWWG	306	1	schön	559	0	0	0	0	0	0	0	0	0	0	0	0	0	0	0	0	0	0	0	0	0	0	0	0	0	0	0	0	0	0	0	0	0	0	0	0	0	0	0
081919	12:21:09	12:27:38	388280	5.0.10.0	5_exp_noRW	102	Rpleas_acq	CS_B	BZZB	MQQM	GWWG	JXXJ	YDDY	VKKV	schön	spielen	fair	retten	ehrlich	treu	schlecht	strafen	faul	rächen	eitel	tot	53pct	acq_USunple_CSunple1_noRW	acq23456_noRW	3	33	0	0	300	300	414	46	0	1	1	blank2r.bmp	0	1	+	0	1	blank2r.bmp	252	1	GWWG	306	3	faul	559	0	0	0	0	0	0	0	0	0	0	0	0	0	0	0	0	0	0	0	0	0	0	0	0	0	0	0	0	0	0	0	0	0	0	0	0	0	0	0
081919	12:21:09	12:27:39	389946	5.0.10.0	5_exp_noRW	102	Rpleas_acq	CS_B	BZZB	MQQM	GWWG	JXXJ	YDDY	VKKV	schön	spielen	fair	retten	ehrlich	treu	schlecht	strafen	faul	rächen	eitel	tot	47pct	acq_USpleas_CSpleas2_noRW	acq23456_noRW	3	34	0	0	300	300	503	50	0	1	1	blank2r.bmp	0	1	+	0	1	blank2r.bmp	252	1	MQQM	306	2	ehrlich	559	0	0	0	0	0	0	0	0	0	0	0	0	0	0	0	0	0	0	0	0	0	0	0	0	0	0	0	0	0	0	0	0	0	0	0	0	0	0	0
081919	12:21:09	12:27:41	391625	5.0.10.0	5_exp_noRW	102	Rpleas_acq	CS_B	BZZB	MQQM	GWWG	JXXJ	YDDY	VKKV	schön	spielen	fair	retten	ehrlich	treu	schlecht	strafen	faul	rächen	eitel	tot	53pct	acq_USunple_CSunple2_noRW	acq23456_noRW	3	35	0	0	300	300	496	46	0	1	1	blank2r.bmp	0	1	+	0	1	blank2r.bmp	252	1	JXXJ	306	2	eitel	559	0	0	0	0	0	0	0	0	0	0	0	0	0	0	0	0	0	0	0	0	0	0	0	0	0	0	0	0	0	0	0	0	0	0	0	0	0	0	0
081919	12:21:09	12:27:43	393465	5.0.10.0	5_exp_noRW	102	Rpleas_acq	CS_B	BZZB	MQQM	GWWG	JXXJ	YDDY	VKKV	schön	spielen	fair	retten	ehrlich	treu	schlecht	strafen	faul	rächen	eitel	tot	47pct	acq_USpleas_CSpleas2_noRW	acq23456_noRW	3	36	0	0	300	300	464	46	0	0	1	blank2r.bmp	0	1	+	0	1	blank2r.bmp	252	1	MQQM	306	1	retten	559	1	FEHLER	1052	0	0	0	0	0	0	0	0	0	0	0	0	0	0	0	0	0	0	0	0	0	0	0	0	0	0	0	0	0	0	0	0	0	0	0	0
081919	12:21:09	12:27:44	394824	5.0.10.0	5_exp_noRW	102	Rpleas_acq	CS_B	BZZB	MQQM	GWWG	JXXJ	YDDY	VKKV	schön	spielen	fair	retten	ehrlich	treu	schlecht	strafen	faul	rächen	eitel	tot	47pct	acq_USunple_CSpleas1_noRW	acq23456_noRW	3	37	0	0	300	300	398	46	0	1	1	blank2r.bmp	0	1	+	0	1	blank2r.bmp	252	1	BZZB	306	3	faul	559	0	0	0	0	0	0	0	0	0	0	0	0	0	0	0	0	0	0	0	0	0	0	0	0	0	0	0	0	0	0	0	0	0	0	0	0	0	0	0
081919	12:21:09	12:27:46	396957	5.0.10.0	5_exp_noRW	102	Rpleas_acq	CS_B	BZZB	MQQM	GWWG	JXXJ	YDDY	VKKV	schön	spielen	fair	retten	ehrlich	treu	schlecht	strafen	faul	rächen	eitel	tot	53pct	acq_USunple_CSunple1_noRW	acq23456_noRW	3	38	0	0	300	300	947	46	0	1	1	blank2r.bmp	0	1	+	0	1	blank2r.bmp	252	1	GWWG	306	2	strafen	559	0	0	0	0	0	0	0	0	0	0	0	0	0	0	0	0	0	0	0	0	0	0	0	0	0	0	0	0	0	0	0	0	0	0	0	0	0	0	0
081919	12:21:09	12:27:49	399249	5.0.10.0	5_exp_noRW	102	Rpleas_acq	CS_B	BZZB	MQQM	GWWG	JXXJ	YDDY	VKKV	schön	spielen	fair	retten	ehrlich	treu	schlecht	strafen	faul	rächen	eitel	tot	53pct	acq_USunple_CSunple2_noRW	acq23456_noRW	3	39	0	0	300	300	909	50	0	0	1	blank2r.bmp	0	1	+	0	1	blank2r.bmp	252	1	JXXJ	306	1	rächen	559	1	FEHLER	1506	0	0	0	0	0	0	0	0	0	0	0	0	0	0	0	0	0	0	0	0	0	0	0	0	0	0	0	0	0	0	0	0	0	0	0	0
081919	12:21:09	12:27:50	400968	5.0.10.0	5_exp_noRW	102	Rpleas_acq	CS_B	BZZB	MQQM	GWWG	JXXJ	YDDY	VKKV	schön	spielen	fair	retten	ehrlich	treu	schlecht	strafen	faul	rächen	eitel	tot	53pct	acq_USpleas_CSunple2_noRW	acq23456_noRW	3	40	0	0	300	300	771	50	0	1	1	blank2r.bmp	0	1	+	0	1	blank2r.bmp	252	1	JXXJ	306	2	ehrlich	559	0	0	0	0	0	0	0	0	0	0	0	0	0	0	0	0	0	0	0	0	0	0	0	0	0	0	0	0	0	0	0	0	0	0	0	0	0	0	0
081919	12:21:09	12:27:52	402861	5.0.10.0	5_exp_noRW	102	Rpleas_acq	CS_B	BZZB	MQQM	GWWG	JXXJ	YDDY	VKKV	schön	spielen	fair	retten	ehrlich	treu	schlecht	strafen	faul	rächen	eitel	tot	47pct	acq_USpleas_CSunple1_noRW	acq23456_noRW	3	41	0	0	300	300	716	50	0	1	1	blank2r.bmp	0	1	+	0	1	blank2r.bmp	252	1	GWWG	306	3	fair	559	0	0	0	0	0	0	0	0	0	0	0	0	0	0	0	0	0	0	0	0	0	0	0	0	0	0	0	0	0	0	0	0	0	0	0	0	0	0	0
081919	12:21:09	12:27:54	404567	5.0.10.0	5_exp_noRW	102	Rpleas_acq	CS_B	BZZB	MQQM	GWWG	JXXJ	YDDY	VKKV	schön	spielen	fair	retten	ehrlich	treu	schlecht	strafen	faul	rächen	eitel	tot	47pct	acq_USunple_CSunple1_noRW	acq23456_noRW	3	42	0	0	300	300	525	46	0	1	1	blank2r.bmp	0	1	+	0	1	blank2r.bmp	252	1	GWWG	306	1	schlecht	559	0	0	0	0	0	0	0	0	0	0	0	0	0	0	0	0	0	0	0	0	0	0	0	0	0	0	0	0	0	0	0	0	0	0	0	0	0	0	0
081919	12:21:09	12:27:56	406206	5.0.10.0	5_exp_noRW	102	Rpleas_acq	CS_B	BZZB	MQQM	GWWG	JXXJ	YDDY	VKKV	schön	spielen	fair	retten	ehrlich	treu	schlecht	strafen	faul	rächen	eitel	tot	53pct	acq_USunple_CSunple2_noRW	acq23456_noRW	3	43	0	0	300	300	469	46	0	1	1	blank2r.bmp	0	1	+	0	1	blank2r.bmp	252	1	JXXJ	306	3	tot	559	0	0	0	0	0	0	0	0	0	0	0	0	0	0	0	0	0	0	0	0	0	0	0	0	0	0	0	0	0	0	0	0	0	0	0	0	0	0	0
081919	12:21:09	12:27:57	407885	5.0.10.0	5_exp_noRW	102	Rpleas_acq	CS_B	BZZB	MQQM	GWWG	JXXJ	YDDY	VKKV	schön	spielen	fair	retten	ehrlich	treu	schlecht	strafen	faul	rächen	eitel	tot	53pct	acq_USpleas_CSpleas2_noRW	acq23456_noRW	3	44	0	0	300	300	512	50	0	1	1	blank2r.bmp	0	1	+	0	1	blank2r.bmp	252	1	MQQM	306	3	treu	559	0	0	0	0	0	0	0	0	0	0	0	0	0	0	0	0	0	0	0	0	0	0	0	0	0	0	0	0	0	0	0	0	0	0	0	0	0	0	0
081919	12:21:09	12:27:59	409498	5.0.10.0	5_exp_noRW	102	Rpleas_acq	CS_B	BZZB	MQQM	GWWG	JXXJ	YDDY	VKKV	schön	spielen	fair	retten	ehrlich	treu	schlecht	strafen	faul	rächen	eitel	tot	47pct	acq_USpleas_CSpleas1_noRW	acq23456_noRW	3	45	0	0	300	300	437	50	0	1	1	blank2r.bmp	0	1	+	0	1	blank2r.bmp	252	1	BZZB	306	2	spielen	559	0	0	0	0	0	0	0	0	0	0	0	0	0	0	0	0	0	0	0	0	0	0	0	0	0	0	0	0	0	0	0	0	0	0	0	0	0	0	0
081919	12:21:09	12:28:01	411244	5.0.10.0	5_exp_noRW	102	Rpleas_acq	CS_B	BZZB	MQQM	GWWG	JXXJ	YDDY	VKKV	schön	spielen	fair	retten	ehrlich	treu	schlecht	strafen	faul	rächen	eitel	tot	47pct	acq_USpleas_CSpleas1_noRW	acq23456_noRW	3	46	0	0	300	300	563	50	0	1	1	blank2r.bmp	0	1	+	0	1	blank2r.bmp	252	1	BZZB	306	1	schön	559	0	0	0	0	0	0	0	0	0	0	0	0	0	0	0	0	0	0	0	0	0	0	0	0	0	0	0	0	0	0	0	0	0	0	0	0	0	0	0
081919	12:21:09	12:28:02	412830	5.0.10.0	5_exp_noRW	102	Rpleas_acq	CS_B	BZZB	MQQM	GWWG	JXXJ	YDDY	VKKV	schön	spielen	fair	retten	ehrlich	treu	schlecht	strafen	faul	rächen	eitel	tot	47pct	acq_USunple_CSunple1_noRW	acq23456_noRW	3	47	0	0	300	300	412	46	0	1	1	blank2r.bmp	0	1	+	0	1	blank2r.bmp	252	1	GWWG	306	3	faul	559	0	0	0	0	0	0	0	0	0	0	0	0	0	0	0	0	0	0	0	0	0	0	0	0	0	0	0	0	0	0	0	0	0	0	0	0	0	0	0
081919	12:21:09	12:28:04	414549	5.0.10.0	5_exp_noRW	102	Rpleas_acq	CS_B	BZZB	MQQM	GWWG	JXXJ	YDDY	VKKV	schön	spielen	fair	retten	ehrlich	treu	schlecht	strafen	faul	rächen	eitel	tot	47pct	acq_USpleas_CSpleas1_noRW	acq23456_noRW	3	48	0	0	300	300	546	50	0	1	1	blank2r.bmp	0	1	+	0	1	blank2r.bmp	252	1	BZZB	306	3	fair	559	0	0	0	0	0	0	0	0	0	0	0	0	0	0	0	0	0	0	0	0	0	0	0	0	0	0	0	0	0	0	0	0	0	0	0	0	0	0	0
081919	12:21:09	12:28:06	416215	5.0.10.0	5_exp_noRW	102	Rpleas_acq	CS_B	BZZB	MQQM	GWWG	JXXJ	YDDY	VKKV	schön	spielen	fair	retten	ehrlich	treu	schlecht	strafen	faul	rächen	eitel	tot	47pct	acq_USpleas_CSpleas2_noRW	acq23456_noRW	3	49	0	0	300	300	485	50	0	1	1	blank2r.bmp	0	1	+	0	1	blank2r.bmp	252	1	MQQM	306	2	ehrlich	559	0	0	0	0	0	0	0	0	0	0	0	0	0	0	0	0	0	0	0	0	0	0	0	0	0	0	0	0	0	0	0	0	0	0	0	0	0	0	0
081919	12:21:09	12:28:07	417855	5.0.10.0	5_exp_noRW	102	Rpleas_acq	CS_B	BZZB	MQQM	GWWG	JXXJ	YDDY	VKKV	schön	spielen	fair	retten	ehrlich	treu	schlecht	strafen	faul	rächen	eitel	tot	47pct	acq_USunple_CSunple1_noRW	acq23456_noRW	3	50	0	0	300	300	452	46	0	1	1	blank2r.bmp	0	1	+	0	1	blank2r.bmp	252	1	GWWG	306	3	faul	559	0	0	0	0	0	0	0	0	0	0	0	0	0	0	0	0	0	0	0	0	0	0	0	0	0	0	0	0	0	0	0	0	0	0	0	0	0	0	0
081919	12:21:09	12:28:09	419587	5.0.10.0	5_exp_noRW	102	Rpleas_acq	CS_B	BZZB	MQQM	GWWG	JXXJ	YDDY	VKKV	schön	spielen	fair	retten	ehrlich	treu	schlecht	strafen	faul	rächen	eitel	tot	47pct	acq_USunple_CSunple2_noRW	acq23456_noRW	3	51	0	0	300	300	556	46	0	1	1	blank2r.bmp	0	1	+	0	1	blank2r.bmp	252	1	JXXJ	306	2	eitel	559	0	0	0	0	0	0	0	0	0	0	0	0	0	0	0	0	0	0	0	0	0	0	0	0	0	0	0	0	0	0	0	0	0	0	0	0	0	0	0
081919	12:21:09	12:28:11	421253	5.0.10.0	5_exp_noRW	102	Rpleas_acq	CS_B	BZZB	MQQM	GWWG	JXXJ	YDDY	VKKV	schön	spielen	fair	retten	ehrlich	treu	schlecht	strafen	faul	rächen	eitel	tot	47pct	acq_USpleas_CSpleas2_noRW	acq23456_noRW	3	52	0	0	300	300	480	50	0	1	1	blank2r.bmp	0	1	+	0	1	blank2r.bmp	252	1	MQQM	306	3	treu	559	0	0	0	0	0	0	0	0	0	0	0	0	0	0	0	0	0	0	0	0	0	0	0	0	0	0	0	0	0	0	0	0	0	0	0	0	0	0	0
081919	12:21:09	12:28:12	422879	5.0.10.0	5_exp_noRW	102	Rpleas_acq	CS_B	BZZB	MQQM	GWWG	JXXJ	YDDY	VKKV	schön	spielen	fair	retten	ehrlich	treu	schlecht	strafen	faul	rächen	eitel	tot	53pct	acq_USunple_CSunple2_noRW	acq23456_noRW	3	53	0	0	300	300	464	46	0	1	1	blank2r.bmp	0	1	+	0	1	blank2r.bmp	252	1	JXXJ	306	3	tot	559	0	0	0	0	0	0	0	0	0	0	0	0	0	0	0	0	0	0	0	0	0	0	0	0	0	0	0	0	0	0	0	0	0	0	0	0	0	0	0
081919	12:21:09	12:28:14	424545	5.0.10.0	5_exp_noRW	102	Rpleas_acq	CS_B	BZZB	MQQM	GWWG	JXXJ	YDDY	VKKV	schön	spielen	fair	retten	ehrlich	treu	schlecht	strafen	faul	rächen	eitel	tot	53pct	acq_USpleas_CSpleas2_noRW	acq23456_noRW	3	54	0	0	300	300	487	50	0	1	1	blank2r.bmp	0	1	+	0	1	blank2r.bmp	252	1	MQQM	306	2	ehrlich	559	0	0	0	0	0	0	0	0	0	0	0	0	0	0	0	0	0	0	0	0	0	0	0	0	0	0	0	0	0	0	0	0	0	0	0	0	0	0	0
081919	12:21:09	12:28:16	426105	5.0.10.0	5_exp_noRW	102	Rpleas_acq	CS_B	BZZB	MQQM	GWWG	JXXJ	YDDY	VKKV	schön	spielen	fair	retten	ehrlich	treu	schlecht	strafen	faul	rächen	eitel	tot	47pct	acq_USpleas_CSpleas1_noRW	acq23456_noRW	3	55	0	0	300	300	379	50	0	1	1	blank2r.bmp	0	1	+	0	1	blank2r.bmp	252	1	BZZB	306	1	schön	559	0	0	0	0	0	0	0	0	0	0	0	0	0	0	0	0	0	0	0	0	0	0	0	0	0	0	0	0	0	0	0	0	0	0	0	0	0	0	0
081919	12:21:09	12:28:17	427704	5.0.10.0	5_exp_noRW	102	Rpleas_acq	CS_B	BZZB	MQQM	GWWG	JXXJ	YDDY	VKKV	schön	spielen	fair	retten	ehrlich	treu	schlecht	strafen	faul	rächen	eitel	tot	47pct	acq_USunple_CSpleas2_noRW	acq23456_noRW	3	56	0	0	300	300	420	46	0	1	1	blank2r.bmp	0	1	+	0	1	blank2r.bmp	252	1	MQQM	306	1	rächen	559	0	0	0	0	0	0	0	0	0	0	0	0	0	0	0	0	0	0	0	0	0	0	0	0	0	0	0	0	0	0	0	0	0	0	0	0	0	0	0
081919	12:21:09	12:28:19	429423	5.0.10.0	5_exp_noRW	102	Rpleas_acq	CS_B	BZZB	MQQM	GWWG	JXXJ	YDDY	VKKV	schön	spielen	fair	retten	ehrlich	treu	schlecht	strafen	faul	rächen	eitel	tot	53pct	acq_USpleas_CSunple2_noRW	acq23456_noRW	3	57	0	0	300	300	550	50	0	1	1	blank2r.bmp	0	1	+	0	1	blank2r.bmp	252	1	JXXJ	306	1	retten	559	0	0	0	0	0	0	0	0	0	0	0	0	0	0	0	0	0	0	0	0	0	0	0	0	0	0	0	0	0	0	0	0	0	0	0	0	0	0	0
081919	12:21:09	12:28:21	431249	5.0.10.0	5_exp_noRW	102	Rpleas_acq	CS_B	BZZB	MQQM	GWWG	JXXJ	YDDY	VKKV	schön	spielen	fair	retten	ehrlich	treu	schlecht	strafen	faul	rächen	eitel	tot	47pct	acq_USunple_CSunple2_noRW	acq23456_noRW	3	58	0	0	300	300	656	46	0	1	1	blank2r.bmp	0	1	+	0	1	blank2r.bmp	252	1	JXXJ	306	2	eitel	559	0	0	0	0	0	0	0	0	0	0	0	0	0	0	0	0	0	0	0	0	0	0	0	0	0	0	0	0	0	0	0	0	0	0	0	0	0	0	0
081919	12:21:09	12:28:22	432875	5.0.10.0	5_exp_noRW	102	Rpleas_acq	CS_B	BZZB	MQQM	GWWG	JXXJ	YDDY	VKKV	schön	spielen	fair	retten	ehrlich	treu	schlecht	strafen	faul	rächen	eitel	tot	47pct	acq_USunple_CSunple1_noRW	acq23456_noRW	3	59	0	0	300	300	464	46	0	1	1	blank2r.bmp	0	1	+	0	1	blank2r.bmp	252	1	GWWG	306	2	strafen	559	0	0	0	0	0	0	0	0	0	0	0	0	0	0	0	0	0	0	0	0	0	0	0	0	0	0	0	0	0	0	0	0	0	0	0	0	0	0	0
081919	12:21:09	12:28:24	434595	5.0.10.0	5_exp_noRW	102	Rpleas_acq	CS_B	BZZB	MQQM	GWWG	JXXJ	YDDY	VKKV	schön	spielen	fair	retten	ehrlich	treu	schlecht	strafen	faul	rächen	eitel	tot	47pct	acq_USunple_CSpleas1_noRW	acq23456_noRW	3	60	0	0	300	300	542	46	0	1	1	blank2r.bmp	0	1	+	0	1	blank2r.bmp	252	1	BZZB	306	1	schlecht	559	0	0	0	0	0	0	0	0	0	0	0	0	0	0	0	0	0	0	0	0	0	0	0	0	0	0	0	0	0	0	0	0	0	0	0	0	0	0	0
081919	12:21:09	12:28:26	436700	5.0.10.0	5_exp_noRW	102	Rpleas_acq	CS_B	BZZB	MQQM	GWWG	JXXJ	YDDY	VKKV	schön	spielen	fair	retten	ehrlich	treu	schlecht	strafen	faul	rächen	eitel	tot	47pct	acq_USpleas_CSpleas2_noRW	acq23456_noRW	3	61	0	0	300	300	928	50	0	1	1	blank2r.bmp	0	1	+	0	1	blank2r.bmp	252	1	MQQM	306	1	retten	559	0	0	0	0	0	0	0	0	0	0	0	0	0	0	0	0	0	0	0	0	0	0	0	0	0	0	0	0	0	0	0	0	0	0	0	0	0	0	0
081919	12:21:09	12:28:28	438620	5.0.10.0	5_exp_noRW	102	Rpleas_acq	CS_B	BZZB	MQQM	GWWG	JXXJ	YDDY	VKKV	schön	spielen	fair	retten	ehrlich	treu	schlecht	strafen	faul	rächen	eitel	tot	53pct	acq_USpleas_CSunple2_noRW	acq23456_noRW	3	62	0	0	300	300	743	50	0	1	1	blank2r.bmp	0	1	+	0	1	blank2r.bmp	252	1	JXXJ	306	3	treu	559	0	0	0	0	0	0	0	0	0	0	0	0	0	0	0	0	0	0	0	0	0	0	0	0	0	0	0	0	0	0	0	0	0	0	0	0	0	0	0
081919	12:21:09	12:28:30	440405	5.0.10.0	5_exp_noRW	102	Rpleas_acq	CS_B	BZZB	MQQM	GWWG	JXXJ	YDDY	VKKV	schön	spielen	fair	retten	ehrlich	treu	schlecht	strafen	faul	rächen	eitel	tot	47pct	acq_USpleas_CSpleas2_noRW	acq23456_noRW	3	63	0	0	300	300	609	50	0	1	1	blank2r.bmp	0	1	+	0	1	blank2r.bmp	252	1	MQQM	306	1	retten	559	0	0	0	0	0	0	0	0	0	0	0	0	0	0	0	0	0	0	0	0	0	0	0	0	0	0	0	0	0	0	0	0	0	0	0	0	0	0	0
081919	12:21:09	12:28:31	442031	5.0.10.0	5_exp_noRW	102	Rpleas_acq	CS_B	BZZB	MQQM	GWWG	JXXJ	YDDY	VKKV	schön	spielen	fair	retten	ehrlich	treu	schlecht	strafen	faul	rächen	eitel	tot	53pct	acq_USunple_CSunple1_noRW	acq23456_noRW	3	64	0	0	300	300	449	46	0	1	1	blank2r.bmp	0	1	+	0	1	blank2r.bmp	252	1	GWWG	306	1	schlecht	559	0	0	0	0	0	0	0	0	0	0	0	0	0	0	0	0	0	0	0	0	0	0	0	0	0	0	0	0	0	0	0	0	0	0	0	0	0	0	0
081919	12:21:09	12:28:33	443724	5.0.10.0	5_exp_noRW	102	Rpleas_acq	CS_B	BZZB	MQQM	GWWG	JXXJ	YDDY	VKKV	schön	spielen	fair	retten	ehrlich	treu	schlecht	strafen	faul	rächen	eitel	tot	53pct	acq_USunple_CSpleas2_noRW	acq23456_noRW	3	65	0	0	300	300	506	46	0	1	1	blank2r.bmp	0	1	+	0	1	blank2r.bmp	252	1	MQQM	306	2	eitel	559	0	0	0	0	0	0	0	0	0	0	0	0	0	0	0	0	0	0	0	0	0	0	0	0	0	0	0	0	0	0	0	0	0	0	0	0	0	0	0
081919	12:21:09	12:28:35	445377	5.0.10.0	5_exp_noRW	102	Rpleas_acq	CS_B	BZZB	MQQM	GWWG	JXXJ	YDDY	VKKV	schön	spielen	fair	retten	ehrlich	treu	schlecht	strafen	faul	rächen	eitel	tot	53pct	acq_USunple_CSunple1_noRW	acq23456_noRW	3	66	0	0	300	300	480	46	0	1	1	blank2r.bmp	0	1	+	0	1	blank2r.bmp	252	1	GWWG	306	2	strafen	559	0	0	0	0	0	0	0	0	0	0	0	0	0	0	0	0	0	0	0	0	0	0	0	0	0	0	0	0	0	0	0	0	0	0	0	0	0	0	0
081919	12:21:09	12:28:36	447056	5.0.10.0	5_exp_noRW	102	Rpleas_acq	CS_B	BZZB	MQQM	GWWG	JXXJ	YDDY	VKKV	schön	spielen	fair	retten	ehrlich	treu	schlecht	strafen	faul	rächen	eitel	tot	53pct	acq_USpleas_CSpleas1_noRW	acq23456_noRW	3	67	0	0	300	300	512	50	0	1	1	blank2r.bmp	0	1	+	0	1	blank2r.bmp	252	1	BZZB	306	2	spielen	559	0	0	0	0	0	0	0	0	0	0	0	0	0	0	0	0	0	0	0	0	0	0	0	0	0	0	0	0	0	0	0	0	0	0	0	0	0	0	0
081919	12:21:09	12:28:38	448775	5.0.10.0	5_exp_noRW	102	Rpleas_acq	CS_B	BZZB	MQQM	GWWG	JXXJ	YDDY	VKKV	schön	spielen	fair	retten	ehrlich	treu	schlecht	strafen	faul	rächen	eitel	tot	47pct	acq_USpleas_CSpleas1_noRW	acq23456_noRW	3	68	0	0	300	300	544	50	0	1	1	blank2r.bmp	0	1	+	0	1	blank2r.bmp	252	1	BZZB	306	3	fair	559	0	0	0	0	0	0	0	0	0	0	0	0	0	0	0	0	0	0	0	0	0	0	0	0	0	0	0	0	0	0	0	0	0	0	0	0	0	0	0
081919	12:21:09	12:28:40	450601	5.0.10.0	5_exp_noRW	102	Rpleas_acq	CS_B	BZZB	MQQM	GWWG	JXXJ	YDDY	VKKV	schön	spielen	fair	retten	ehrlich	treu	schlecht	strafen	faul	rächen	eitel	tot	47pct	acq_USunple_CSunple2_noRW	acq23456_noRW	3	69	0	0	300	300	639	46	0	1	1	blank2r.bmp	0	1	+	0	1	blank2r.bmp	252	1	JXXJ	306	1	rächen	559	0	0	0	0	0	0	0	0	0	0	0	0	0	0	0	0	0	0	0	0	0	0	0	0	0	0	0	0	0	0	0	0	0	0	0	0	0	0	0
081919	12:21:09	12:28:42	452294	5.0.10.0	5_exp_noRW	102	Rpleas_acq	CS_B	BZZB	MQQM	GWWG	JXXJ	YDDY	VKKV	schön	spielen	fair	retten	ehrlich	treu	schlecht	strafen	faul	rächen	eitel	tot	53pct	acq_USpleas_CSpleas1_noRW	acq23456_noRW	3	70	0	0	300	300	522	50	0	1	1	blank2r.bmp	0	1	+	0	1	blank2r.bmp	252	1	BZZB	306	1	schön	559	0	0	0	0	0	0	0	0	0	0	0	0	0	0	0	0	0	0	0	0	0	0	0	0	0	0	0	0	0	0	0	0	0	0	0	0	0	0	0
081919	12:21:09	12:28:43	454027	5.0.10.0	5_exp_noRW	102	Rpleas_acq	CS_B	BZZB	MQQM	GWWG	JXXJ	YDDY	VKKV	schön	spielen	fair	retten	ehrlich	treu	schlecht	strafen	faul	rächen	eitel	tot	53pct	acq_USunple_CSunple2_noRW	acq23456_noRW	3	71	0	0	300	300	559	46	0	1	1	blank2r.bmp	0	1	+	0	1	blank2r.bmp	252	1	JXXJ	306	3	tot	559	0	0	0	0	0	0	0	0	0	0	0	0	0	0	0	0	0	0	0	0	0	0	0	0	0	0	0	0	0	0	0	0	0	0	0	0	0	0	0
081919	12:21:09	12:28:45	455892	5.0.10.0	5_exp_noRW	102	Rpleas_acq	CS_B	BZZB	MQQM	GWWG	JXXJ	YDDY	VKKV	schön	spielen	fair	retten	ehrlich	treu	schlecht	strafen	faul	rächen	eitel	tot	53pct	acq_USunple_CSunple2_noRW	acq23456_noRW	3	72	0	0	300	300	704	46	0	1	1	blank2r.bmp	0	1	+	0	1	blank2r.bmp	252	1	JXXJ	306	2	eitel	559	0	0	0	0	0	0	0	0	0	0	0	0	0	0	0	0	0	0	0	0	0	0	0	0	0	0	0	0	0	0	0	0	0	0	0	0	0	0	0
081919	12:21:09	12:28:47	457732	5.0.10.0	5_exp_noRW	102	Rpleas_acq	CS_B	BZZB	MQQM	GWWG	JXXJ	YDDY	VKKV	schön	spielen	fair	retten	ehrlich	treu	schlecht	strafen	faul	rächen	eitel	tot	53pct	acq_USunple_CSpleas1_noRW	acq23456_noRW	3	73	0	0	300	300	664	46	0	1	1	blank2r.bmp	0	1	+	0	1	blank2r.bmp	252	1	BZZB	306	2	strafen	559	0	0	0	0	0	0	0	0	0	0	0	0	0	0	0	0	0	0	0	0	0	0	0	0	0	0	0	0	0	0	0	0	0	0	0	0	0	0	0
081919	12:21:09	12:28:49	459344	5.0.10.0	5_exp_noRW	102	Rpleas_acq	CS_B	BZZB	MQQM	GWWG	JXXJ	YDDY	VKKV	schön	spielen	fair	retten	ehrlich	treu	schlecht	strafen	faul	rächen	eitel	tot	53pct	acq_USunple_CSunple1_noRW	acq23456_noRW	3	74	0	0	300	300	419	46	0	1	1	blank2r.bmp	0	1	+	0	1	blank2r.bmp	252	1	GWWG	306	3	faul	559	0	0	0	0	0	0	0	0	0	0	0	0	0	0	0	0	0	0	0	0	0	0	0	0	0	0	0	0	0	0	0	0	0	0	0	0	0	0	0
081919	12:21:09	12:28:50	460957	5.0.10.0	5_exp_noRW	102	Rpleas_acq	CS_B	BZZB	MQQM	GWWG	JXXJ	YDDY	VKKV	schön	spielen	fair	retten	ehrlich	treu	schlecht	strafen	faul	rächen	eitel	tot	53pct	acq_USpleas_CSpleas2_noRW	acq23456_noRW	3	75	0	0	300	300	438	50	0	1	1	blank2r.bmp	0	1	+	0	1	blank2r.bmp	252	1	MQQM	306	2	ehrlich	559	0	0	0	0	0	0	0	0	0	0	0	0	0	0	0	0	0	0	0	0	0	0	0	0	0	0	0	0	0	0	0	0	0	0	0	0	0	0	0
081919	12:21:09	12:28:52	462810	5.0.10.0	5_exp_noRW	102	Rpleas_acq	CS_B	BZZB	MQQM	GWWG	JXXJ	YDDY	VKKV	schön	spielen	fair	retten	ehrlich	treu	schlecht	strafen	faul	rächen	eitel	tot	47pct	acq_USpleas_CSpleas2_noRW	acq23456_noRW	3	76	0	0	300	300	671	50	0	1	1	blank2r.bmp	0	1	+	0	1	blank2r.bmp	252	1	MQQM	306	3	treu	559	0	0	0	0	0	0	0	0	0	0	0	0	0	0	0	0	0	0	0	0	0	0	0	0	0	0	0	0	0	0	0	0	0	0	0	0	0	0	0
081919	12:21:09	12:28:54	464835	5.0.10.0	5_exp_noRW	102	Rpleas_acq	CS_B	BZZB	MQQM	GWWG	JXXJ	YDDY	VKKV	schön	spielen	fair	retten	ehrlich	treu	schlecht	strafen	faul	rächen	eitel	tot	53pct	acq_USunple_CSunple1_noRW	acq23456_noRW	3	77	0	0	300	300	845	46	0	1	1	blank2r.bmp	0	1	+	0	1	blank2r.bmp	252	1	GWWG	306	1	schlecht	559	0	0	0	0	0	0	0	0	0	0	0	0	0	0	0	0	0	0	0	0	0	0	0	0	0	0	0	0	0	0	0	0	0	0	0	0	0	0	0
081919	12:21:09	12:28:56	466541	5.0.10.0	5_exp_noRW	102	Rpleas_acq	CS_B	BZZB	MQQM	GWWG	JXXJ	YDDY	VKKV	schön	spielen	fair	retten	ehrlich	treu	schlecht	strafen	faul	rächen	eitel	tot	47pct	acq_USpleas_CSunple1_noRW	acq23456_noRW	3	78	0	0	300	300	526	50	0	1	1	blank2r.bmp	0	1	+	0	1	blank2r.bmp	252	1	GWWG	306	2	spielen	559	0	0	0	0	0	0	0	0	0	0	0	0	0	0	0	0	0	0	0	0	0	0	0	0	0	0	0	0	0	0	0	0	0	0	0	0	0	0	0
081919	12:21:09	12:28:58	468181	5.0.10.0	5_exp_noRW	102	Rpleas_acq	CS_B	BZZB	MQQM	GWWG	JXXJ	YDDY	VKKV	schön	spielen	fair	retten	ehrlich	treu	schlecht	strafen	faul	rächen	eitel	tot	53pct	acq_USpleas_CSpleas1_noRW	acq23456_noRW	3	79	0	0	300	300	459	50	0	1	1	blank2r.bmp	0	1	+	0	1	blank2r.bmp	252	1	BZZB	306	2	spielen	559	0	0	0	0	0	0	0	0	0	0	0	0	0	0	0	0	0	0	0	0	0	0	0	0	0	0	0	0	0	0	0	0	0	0	0	0	0	0	0
081919	12:21:09	12:28:59	469847	5.0.10.0	5_exp_noRW	102	Rpleas_acq	CS_B	BZZB	MQQM	GWWG	JXXJ	YDDY	VKKV	schön	spielen	fair	retten	ehrlich	treu	schlecht	strafen	faul	rächen	eitel	tot	53pct	acq_USunple_CSunple2_noRW	acq23456_noRW	3	80	0	0	300	300	479	46	0	1	1	blank2r.bmp	0	1	+	0	1	blank2r.bmp	252	1	JXXJ	306	1	rächen	559	0	0	0	0	0	0	0	0	0	0	0	0	0	0	0	0	0	0	0	0	0	0	0	0	0	0	0	0	0	0	0	0	0	0	0	0	0	0	0
081919	12:21:09	12:29:07	477390	5.0.10.0	5_exp_noRW	102	Rpleas_acq	CS_B	BZZB	MQQM	GWWG	JXXJ	YDDY	VKKV	schön	spielen	fair	retten	ehrlich	treu	schlecht	strafen	faul	rächen	eitel	tot	47pct	acq_USpleas_CSpleas1_noRW	acq23456_noRW	4	1	0	0	300	300	1067	50	0	1	1	blank2r.bmp	0	1	+	0	1	blank2r.bmp	252	1	BZZB	306	1	schön	559	0	0	0	0	0	0	0	0	0	0	0	0	0	0	0	0	0	0	0	0	0	0	0	0	0	0	0	0	0	0	0	0	0	0	0	0	0	0	0
081919	12:21:09	12:29:08	479016	5.0.10.0	5_exp_noRW	102	Rpleas_acq	CS_B	BZZB	MQQM	GWWG	JXXJ	YDDY	VKKV	schön	spielen	fair	retten	ehrlich	treu	schlecht	strafen	faul	rächen	eitel	tot	47pct	acq_USpleas_CSunple1_noRW	acq23456_noRW	4	2	0	0	300	300	463	50	0	1	1	blank2r.bmp	0	1	+	0	1	blank2r.bmp	252	1	GWWG	306	1	schön	559	0	0	0	0	0	0	0	0	0	0	0	0	0	0	0	0	0	0	0	0	0	0	0	0	0	0	0	0	0	0	0	0	0	0	0	0	0	0	0
081919	12:21:09	12:29:10	480642	5.0.10.0	5_exp_noRW	102	Rpleas_acq	CS_B	BZZB	MQQM	GWWG	JXXJ	YDDY	VKKV	schön	spielen	fair	retten	ehrlich	treu	schlecht	strafen	faul	rächen	eitel	tot	53pct	acq_USunple_CSunple2_noRW	acq23456_noRW	4	3	0	0	300	300	447	46	0	1	1	blank2r.bmp	0	1	+	0	1	blank2r.bmp	252	1	JXXJ	306	3	tot	559	0	0	0	0	0	0	0	0	0	0	0	0	0	0	0	0	0	0	0	0	0	0	0	0	0	0	0	0	0	0	0	0	0	0	0	0	0	0	0
081919	12:21:09	12:29:12	482402	5.0.10.0	5_exp_noRW	102	Rpleas_acq	CS_B	BZZB	MQQM	GWWG	JXXJ	YDDY	VKKV	schön	spielen	fair	retten	ehrlich	treu	schlecht	strafen	faul	rächen	eitel	tot	47pct	acq_USpleas_CSpleas2_noRW	acq23456_noRW	4	4	0	0	300	300	579	50	0	1	1	blank2r.bmp	0	1	+	0	1	blank2r.bmp	252	1	MQQM	306	3	treu	559	0	0	0	0	0	0	0	0	0	0	0	0	0	0	0	0	0	0	0	0	0	0	0	0	0	0	0	0	0	0	0	0	0	0	0	0	0	0	0
081919	12:21:09	12:29:14	484561	5.0.10.0	5_exp_noRW	102	Rpleas_acq	CS_B	BZZB	MQQM	GWWG	JXXJ	YDDY	VKKV	schön	spielen	fair	retten	ehrlich	treu	schlecht	strafen	faul	rächen	eitel	tot	47pct	acq_USunple_CSunple1_noRW	acq23456_noRW	4	5	0	0	300	300	979	46	0	1	1	blank2r.bmp	0	1	+	0	1	blank2r.bmp	252	1	GWWG	306	2	strafen	559	0	0	0	0	0	0	0	0	0	0	0	0	0	0	0	0	0	0	0	0	0	0	0	0	0	0	0	0	0	0	0	0	0	0	0	0	0	0	0
081919	12:21:09	12:29:16	486280	5.0.10.0	5_exp_noRW	102	Rpleas_acq	CS_B	BZZB	MQQM	GWWG	JXXJ	YDDY	VKKV	schön	spielen	fair	retten	ehrlich	treu	schlecht	strafen	faul	rächen	eitel	tot	47pct	acq_USunple_CSunple2_noRW	acq23456_noRW	4	6	0	0	300	300	539	46	0	1	1	blank2r.bmp	0	1	+	0	1	blank2r.bmp	252	1	JXXJ	306	1	rächen	559	0	0	0	0	0	0	0	0	0	0	0	0	0	0	0	0	0	0	0	0	0	0	0	0	0	0	0	0	0	0	0	0	0	0	0	0	0	0	0
081919	12:21:09	12:29:17	488053	5.0.10.0	5_exp_noRW	102	Rpleas_acq	CS_B	BZZB	MQQM	GWWG	JXXJ	YDDY	VKKV	schön	spielen	fair	retten	ehrlich	treu	schlecht	strafen	faul	rächen	eitel	tot	53pct	acq_USpleas_CSpleas1_noRW	acq23456_noRW	4	7	0	0	300	300	601	50	0	1	1	blank2r.bmp	0	1	+	0	1	blank2r.bmp	252	1	BZZB	306	2	spielen	559	0	0	0	0	0	0	0	0	0	0	0	0	0	0	0	0	0	0	0	0	0	0	0	0	0	0	0	0	0	0	0	0	0	0	0	0	0	0	0
081919	12:21:09	12:29:19	489745	5.0.10.0	5_exp_noRW	102	Rpleas_acq	CS_B	BZZB	MQQM	GWWG	JXXJ	YDDY	VKKV	schön	spielen	fair	retten	ehrlich	treu	schlecht	strafen	faul	rächen	eitel	tot	53pct	acq_USunple_CSunple1_noRW	acq23456_noRW	4	8	0	0	300	300	516	46	0	1	1	blank2r.bmp	0	1	+	0	1	blank2r.bmp	252	1	GWWG	306	1	schlecht	559	0	0	0	0	0	0	0	0	0	0	0	0	0	0	0	0	0	0	0	0	0	0	0	0	0	0	0	0	0	0	0	0	0	0	0	0	0	0	0
