date	time	script.currenttime	script.elapsedtime	build	script.currentexpt	subject	expressions.LRpleas_acq	expressions.conditionCS_A	expressions.CSpleas_1	expressions.CSpleas_2	expressions.CSunple_1	expressions.CSunple_2	expressions.distractor_1	expressions.distractor_2	expressions.US_pleas1	expressions.US_pleas2	expressions.US_pleas3	expressions.US_pleas4	expressions.US_pleas5	expressions.US_pleas6	expressions.US_unple1	expressions.US_unple2	expressions.US_unple3	expressions.US_unple4	expressions.US_unple5	expressions.US_unple6	counter.positions_noRW	trialcode	blockcode	blocknum	trialnum	windowcenter	inwindow	pretrialpause	posttrialpause	latency	response	expressions.correctedscore	correct	stimulusnumber1	stimulusitem1	stimulusonset1	stimulusnumber2	stimulusitem2	stimulusonset2	stimulusnumber3	stimulusitem3	stimulusonset3	stimulusnumber4	stimulusitem4	stimulusonset4	stimulusnumber5	stimulusitem5	stimulusonset5	stimulusnumber6	stimulusitem6	stimulusonset6	stimulusnumber7	stimulusitem7	stimulusonset7	stimulusnumber8	stimulusitem8	stimulusonset8	stimulusnumber9	stimulusitem9	stimulusonset9	stimulusnumber10	stimulusitem10	stimulusonset10	stimulusnumber11	stimulusitem11	stimulusonset11	stimulusnumber12	stimulusitem12	stimulusonset12	stimulusnumber13	stimulusitem13	stimulusonset13	stimulusnumber14	stimulusitem14	stimulusonset14	stimulusnumber15	stimulusitem15	stimulusonset15	stimulusnumber16	stimulusitem16	stimulusonset16	stimulusnumber17	stimulusitem17	stimulusonset17	stimulusnumber18	stimulusitem18	stimulusonset18
070919	11:11:51	11:12:16	23730	5.0.10.0	5_exp_RW	999	Rpleas_acq	CS_B	VKKV	BZZB	MQQM	YDDY	JXXJ	GWWG	ehrlich	fair	schön	spielen	retten	treu	eitel	faul	schlecht	strafen	rächen	tot	1	acq_USunple_CSunple1_RW	acq1_RW	1	1	0	0	300	300	598	46	0	1	1	blank2r.bmp	0	1	+	0	1	blank2r.bmp	493	1	MQQM	493	1	blank2r.bmp	572	3	schlecht	866	0	0	0	0	0	0	0	0	0	0	0	0	0	0	0	0	0	0	0	0	0	0	0	0	0	0	0	0	0	0	0	0	0	0	0	0
070919	11:11:51	11:12:19	25783	5.0.10.0	5_exp_RW	999	Rpleas_acq	CS_B	VKKV	BZZB	MQQM	YDDY	JXXJ	GWWG	ehrlich	fair	schön	spielen	retten	treu	eitel	faul	schlecht	strafen	rächen	tot	1	acq_USunple_CSunple2_RW	acq1_RW	1	2	0	0	300	300	563	46	0	1	1	blank2r.bmp	3	1	+	3	1	blank2r.bmp	492	1	YDDY	492	1	blank2r.bmp	572	2	rächen	867	0	0	0	0	0	0	0	0	0	0	0	0	0	0	0	0	0	0	0	0	0	0	0	0	0	0	0	0	0	0	0	0	0	0	0	0
070919	11:11:51	11:12:21	27955	5.0.10.0	5_exp_RW	999	Rpleas_acq	CS_B	VKKV	BZZB	MQQM	YDDY	JXXJ	GWWG	ehrlich	fair	schön	spielen	retten	treu	eitel	faul	schlecht	strafen	rächen	tot	1	acq_USunple_CSunple2_RW	acq1_RW	1	3	0	0	300	300	701	46	0	1	1	blank2r.bmp	0	1	+	0	1	blank2r.bmp	492	1	YDDY	492	1	blank2r.bmp	572	1	strafen	866	0	0	0	0	0	0	0	0	0	0	0	0	0	0	0	0	0	0	0	0	0	0	0	0	0	0	0	0	0	0	0	0	0	0	0	0
070919	11:11:51	11:12:23	30434	5.0.10.0	5_exp_RW	999	Rpleas_acq	CS_B	VKKV	BZZB	MQQM	YDDY	JXXJ	GWWG	ehrlich	fair	schön	spielen	retten	treu	eitel	faul	schlecht	strafen	rächen	tot	1	acq_USunple_CSunple2_RW	acq1_RW	1	4	0	0	300	300	999	46	0	1	1	blank2r.bmp	0	1	+	0	1	blank2r.bmp	492	1	YDDY	492	1	blank2r.bmp	572	3	tot	866	0	0	0	0	0	0	0	0	0	0	0	0	0	0	0	0	0	0	0	0	0	0	0	0	0	0	0	0	0	0	0	0	0	0	0	0
070919	11:11:51	11:12:25	32340	5.0.10.0	5_exp_RW	999	Rpleas_acq	CS_B	VKKV	BZZB	MQQM	YDDY	JXXJ	GWWG	ehrlich	fair	schön	spielen	retten	treu	eitel	faul	schlecht	strafen	rächen	tot	1	acq_USpleas_CSpleas2_RW	acq1_RW	1	5	0	0	300	300	429	50	0	1	1	blank2r.bmp	0	1	+	0	1	blank2r.bmp	492	1	BZZB	492	1	blank2r.bmp	573	3	treu	866	0	0	0	0	0	0	0	0	0	0	0	0	0	0	0	0	0	0	0	0	0	0	0	0	0	0	0	0	0	0	0	0	0	0	0	0
070919	11:11:51	11:12:27	34312	5.0.10.0	5_exp_RW	999	Rpleas_acq	CS_B	VKKV	BZZB	MQQM	YDDY	JXXJ	GWWG	ehrlich	fair	schön	spielen	retten	treu	eitel	faul	schlecht	strafen	rächen	tot	1	acq_USpleas_CSpleas2_RW	acq1_RW	1	6	0	0	300	300	502	50	0	1	1	blank2r.bmp	0	1	+	0	1	blank2r.bmp	492	1	BZZB	492	1	blank2r.bmp	572	2	retten	866	0	0	0	0	0	0	0	0	0	0	0	0	0	0	0	0	0	0	0	0	0	0	0	0	0	0	0	0	0	0	0	0	0	0	0	0
070919	11:11:51	11:12:29	36231	5.0.10.0	5_exp_RW	999	Rpleas_acq	CS_B	VKKV	BZZB	MQQM	YDDY	JXXJ	GWWG	ehrlich	fair	schön	spielen	retten	treu	eitel	faul	schlecht	strafen	rächen	tot	1	acq_USunple_CSunple1_RW	acq1_RW	1	7	0	0	300	300	445	46	0	1	1	blank2r.bmp	0	1	+	0	1	blank2r.bmp	492	1	MQQM	492	1	blank2r.bmp	572	2	faul	866	0	0	0	0	0	0	0	0	0	0	0	0	0	0	0	0	0	0	0	0	0	0	0	0	0	0	0	0	0	0	0	0	0	0	0	0
070919	11:11:51	11:12:31	38377	5.0.10.0	5_exp_RW	999	Rpleas_acq	CS_B	VKKV	BZZB	MQQM	YDDY	JXXJ	GWWG	ehrlich	fair	schön	spielen	retten	treu	eitel	faul	schlecht	strafen	rächen	tot	1	acq_USunple_CSunple1_RW	acq1_RW	1	8	0	0	300	300	461	50	0	0	1	blank2r.bmp	0	1	+	0	1	blank2r.bmp	492	1	MQQM	492	1	blank2r.bmp	572	1	eitel	866	1	FEHLER	1359	0	0	0	0	0	0	0	0	0	0	0	0	0	0	0	0	0	0	0	0	0	0	0	0	0	0	0	0	0	0	0	0	0
070919	11:11:51	11:12:33	40096	5.0.10.0	5_exp_RW	999	Rpleas_acq	CS_B	VKKV	BZZB	MQQM	YDDY	JXXJ	GWWG	ehrlich	fair	schön	spielen	retten	treu	eitel	faul	schlecht	strafen	rächen	tot	1	acq_USpleas_CSpleas1_RW	acq1_RW	1	9	0	0	300	300	461	50	0	1	1	blank2r.bmp	0	1	+	0	1	blank2r.bmp	492	1	VKKV	492	1	blank2r.bmp	573	2	fair	866	0	0	0	0	0	0	0	0	0	0	0	0	0	0	0	0	0	0	0	0	0	0	0	0	0	0	0	0	0	0	0	0	0	0	0	0
070919	11:11:51	11:12:35	42016	5.0.10.0	5_exp_RW	999	Rpleas_acq	CS_B	VKKV	BZZB	MQQM	YDDY	JXXJ	GWWG	ehrlich	fair	schön	spielen	retten	treu	eitel	faul	schlecht	strafen	rächen	tot	1	acq_USpleas_CSpleas1_RW	acq1_RW	1	10	0	0	300	300	440	50	0	1	1	blank2r.bmp	0	1	+	0	1	blank2r.bmp	492	1	VKKV	492	1	blank2r.bmp	572	1	ehrlich	866	0	0	0	0	0	0	0	0	0	0	0	0	0	0	0	0	0	0	0	0	0	0	0	0	0	0	0	0	0	0	0	0	0	0	0	0
070919	11:11:51	11:12:37	43988	5.0.10.0	5_exp_RW	999	Rpleas_acq	CS_B	VKKV	BZZB	MQQM	YDDY	JXXJ	GWWG	ehrlich	fair	schön	spielen	retten	treu	eitel	faul	schlecht	strafen	rächen	tot	1	acq_USunple_CSunple2_RW	acq1_RW	1	11	0	0	300	300	491	46	0	1	1	blank2r.bmp	0	1	+	0	1	blank2r.bmp	493	1	YDDY	493	1	blank2r.bmp	572	3	tot	866	0	0	0	0	0	0	0	0	0	0	0	0	0	0	0	0	0	0	0	0	0	0	0	0	0	0	0	0	0	0	0	0	0	0	0	0
070919	11:11:51	11:12:39	45867	5.0.10.0	5_exp_RW	999	Rpleas_acq	CS_B	VKKV	BZZB	MQQM	YDDY	JXXJ	GWWG	ehrlich	fair	schön	spielen	retten	treu	eitel	faul	schlecht	strafen	rächen	tot	1	acq_USpleas_CSpleas1_RW	acq1_RW	1	12	0	0	300	300	407	50	0	1	1	blank2r.bmp	0	1	+	0	1	blank2r.bmp	492	1	VKKV	492	1	blank2r.bmp	572	3	schön	866	0	0	0	0	0	0	0	0	0	0	0	0	0	0	0	0	0	0	0	0	0	0	0	0	0	0	0	0	0	0	0	0	0	0	0	0
070919	11:11:51	11:12:40	47693	5.0.10.0	5_exp_RW	999	Rpleas_acq	CS_B	VKKV	BZZB	MQQM	YDDY	JXXJ	GWWG	ehrlich	fair	schön	spielen	retten	treu	eitel	faul	schlecht	strafen	rächen	tot	1	acq_USpleas_CSpleas2_RW	acq1_RW	1	13	0	0	300	300	354	50	0	1	1	blank2r.bmp	0	1	+	0	1	blank2r.bmp	492	1	BZZB	492	1	blank2r.bmp	572	1	spielen	866	0	0	0	0	0	0	0	0	0	0	0	0	0	0	0	0	0	0	0	0	0	0	0	0	0	0	0	0	0	0	0	0	0	0	0	0
070919	11:11:51	11:12:42	49506	5.0.10.0	5_exp_RW	999	Rpleas_acq	CS_B	VKKV	BZZB	MQQM	YDDY	JXXJ	GWWG	ehrlich	fair	schön	spielen	retten	treu	eitel	faul	schlecht	strafen	rächen	tot	1	acq_USpleas_CSpleas1_RW	acq1_RW	1	14	0	0	300	300	339	50	0	1	1	blank2r.bmp	0	1	+	0	1	blank2r.bmp	492	1	VKKV	492	1	blank2r.bmp	572	1	ehrlich	866	0	0	0	0	0	0	0	0	0	0	0	0	0	0	0	0	0	0	0	0	0	0	0	0	0	0	0	0	0	0	0	0	0	0	0	0
070919	11:11:51	11:12:44	51518	5.0.10.0	5_exp_RW	999	Rpleas_acq	CS_B	VKKV	BZZB	MQQM	YDDY	JXXJ	GWWG	ehrlich	fair	schön	spielen	retten	treu	eitel	faul	schlecht	strafen	rächen	tot	1	acq_USunple_CSunple1_RW	acq1_RW	1	15	0	0	300	300	544	46	0	1	1	blank2r.bmp	0	1	+	0	1	blank2r.bmp	492	1	MQQM	492	1	blank2r.bmp	572	1	eitel	866	0	0	0	0	0	0	0	0	0	0	0	0	0	0	0	0	0	0	0	0	0	0	0	0	0	0	0	0	0	0	0	0	0	0	0	0
070919	11:11:51	11:12:46	53398	5.0.10.0	5_exp_RW	999	Rpleas_acq	CS_B	VKKV	BZZB	MQQM	YDDY	JXXJ	GWWG	ehrlich	fair	schön	spielen	retten	treu	eitel	faul	schlecht	strafen	rächen	tot	1	acq_USpleas_CSpleas2_RW	acq1_RW	1	16	0	0	300	300	401	50	0	1	1	blank2r.bmp	0	1	+	0	1	blank2r.bmp	492	1	BZZB	492	1	blank2r.bmp	572	1	spielen	866	0	0	0	0	0	0	0	0	0	0	0	0	0	0	0	0	0	0	0	0	0	0	0	0	0	0	0	0	0	0	0	0	0	0	0	0
070919	11:11:51	11:12:58	65726	5.0.10.0	5_exp_RW	999	Rpleas_acq	CS_B	VKKV	BZZB	MQQM	YDDY	JXXJ	GWWG	ehrlich	fair	schön	spielen	retten	treu	eitel	faul	schlecht	strafen	rächen	tot	1	acq_USunple_CSunple2_RW	acq2_RW	2	1	480	1	300	300	508	46	0	1	1	blank2r.bmp	0	1	+	0	1	blank2r.bmp	492	1	YDDY	492	1	blank2r.bmp	572	2	rächen	866	1	!	1319	1	!	1412	0	0	0	0	0	0	0	0	0	0	0	0	0	0	0	0	0	0	0	0	0	0	0	0	0	0	0	0	0	0
070919	11:11:51	11:13:01	67978	5.0.10.0	5_exp_RW	999	Rpleas_acq	CS_B	VKKV	BZZB	MQQM	YDDY	JXXJ	GWWG	ehrlich	fair	schön	spielen	retten	treu	eitel	faul	schlecht	strafen	rächen	tot	1	acq_USunple_CSunple1_RW	acq2_RW	2	2	480	1	300	300	450	46	0	1	1	blank2r.bmp	0	1	+	0	1	blank2r.bmp	492	1	MQQM	492	1	blank2r.bmp	572	3	schlecht	866	1	!	1319	1	!	1359	0	0	0	0	0	0	0	0	0	0	0	0	0	0	0	0	0	0	0	0	0	0	0	0	0	0	0	0	0	0
070919	11:11:51	11:13:03	70150	5.0.10.0	5_exp_RW	999	Rpleas_acq	CS_B	VKKV	BZZB	MQQM	YDDY	JXXJ	GWWG	ehrlich	fair	schön	spielen	retten	treu	eitel	faul	schlecht	strafen	rächen	tot	1	acq_USpleas_CSpleas2_RW	acq2_RW	2	3	480	0	300	300	390	50	0	1	1	blank2r.bmp	0	1	+	0	1	blank2r.bmp	492	1	BZZB	492	1	blank2r.bmp	572	2	retten	866	1	!	-1	1	!	-1	0	0	0	0	0	0	0	0	0	0	0	0	0	0	0	0	0	0	0	0	0	0	0	0	0	0	0	0	0	0
070919	11:11:51	11:13:05	72403	5.0.10.0	5_exp_RW	999	Rpleas_acq	CS_B	VKKV	BZZB	MQQM	YDDY	JXXJ	GWWG	ehrlich	fair	schön	spielen	retten	treu	eitel	faul	schlecht	strafen	rächen	tot	1	acq_USunple_CSunple2_RW	acq2_RW	2	4	480	1	300	300	462	46	0	1	1	blank2r.bmp	0	1	+	0	1	blank2r.bmp	494	1	YDDY	494	1	blank2r.bmp	573	1	strafen	866	1	!	1319	1	!	1359	0	0	0	0	0	0	0	0	0	0	0	0	0	0	0	0	0	0	0	0	0	0	0	0	0	0	0	0	0	0
070919	11:11:51	11:13:07	74629	5.0.10.0	5_exp_RW	999	Rpleas_acq	CS_B	VKKV	BZZB	MQQM	YDDY	JXXJ	GWWG	ehrlich	fair	schön	spielen	retten	treu	eitel	faul	schlecht	strafen	rächen	tot	1	acq_USunple_CSunple2_RW	acq2_RW	2	5	480	1	300	300	430	46	0	1	1	blank2r.bmp	0	1	+	0	1	blank2r.bmp	492	1	YDDY	492	1	blank2r.bmp	572	3	tot	866	1	!	1319	1	!	1332	0	0	0	0	0	0	0	0	0	0	0	0	0	0	0	0	0	0	0	0	0	0	0	0	0	0	0	0	0	0
070919	11:11:51	11:13:10	76894	5.0.10.0	5_exp_RW	999	Rpleas_acq	CS_B	VKKV	BZZB	MQQM	YDDY	JXXJ	GWWG	ehrlich	fair	schön	spielen	retten	treu	eitel	faul	schlecht	strafen	rächen	tot	1	acq_USpleas_CSpleas2_RW	acq2_RW	2	6	480	1	300	300	477	50	0	1	1	blank2r.bmp	0	1	+	0	1	blank2r.bmp	492	1	BZZB	492	1	blank2r.bmp	572	3	treu	866	1	!	1319	1	!	1372	0	0	0	0	0	0	0	0	0	0	0	0	0	0	0	0	0	0	0	0	0	0	0	0	0	0	0	0	0	0
070919	11:11:51	11:13:12	79160	5.0.10.0	5_exp_RW	999	Rpleas_acq	CS_B	VKKV	BZZB	MQQM	YDDY	JXXJ	GWWG	ehrlich	fair	schön	spielen	retten	treu	eitel	faul	schlecht	strafen	rächen	tot	1	acq_USunple_CSunple2_RW	acq2_RW	2	7	480	1	300	300	466	46	0	1	1	blank2r.bmp	0	1	+	0	1	blank2r.bmp	492	1	YDDY	492	1	blank2r.bmp	572	1	strafen	866	1	!	1319	1	!	1372	0	0	0	0	0	0	0	0	0	0	0	0	0	0	0	0	0	0	0	0	0	0	0	0	0	0	0	0	0	0
070919	11:11:51	11:13:14	81359	5.0.10.0	5_exp_RW	999	Rpleas_acq	CS_B	VKKV	BZZB	MQQM	YDDY	JXXJ	GWWG	ehrlich	fair	schön	spielen	retten	treu	eitel	faul	schlecht	strafen	rächen	tot	1	acq_USunple_CSunple1_RW	acq2_RW	2	8	480	0	300	300	409	46	0	1	1	blank2r.bmp	0	1	+	0	1	blank2r.bmp	492	1	MQQM	492	1	blank2r.bmp	572	2	faul	866	1	!	-1	1	!	-1	0	0	0	0	0	0	0	0	0	0	0	0	0	0	0	0	0	0	0	0	0	0	0	0	0	0	0	0	0	0
070919	11:11:51	11:13:16	83665	5.0.10.0	5_exp_RW	999	Rpleas_acq	CS_B	VKKV	BZZB	MQQM	YDDY	JXXJ	GWWG	ehrlich	fair	schön	spielen	retten	treu	eitel	faul	schlecht	strafen	rächen	tot	1	acq_USunple_CSunple2_RW	acq2_RW	2	9	480	1	300	300	511	46	0	1	1	blank2r.bmp	0	1	+	0	1	blank2r.bmp	492	1	YDDY	492	1	blank2r.bmp	572	2	rächen	866	1	!	1319	1	!	1412	0	0	0	0	0	0	0	0	0	0	0	0	0	0	0	0	0	0	0	0	0	0	0	0	0	0	0	0	0	0
070919	11:11:51	11:13:19	85957	5.0.10.0	5_exp_RW	999	Rpleas_acq	CS_B	VKKV	BZZB	MQQM	YDDY	JXXJ	GWWG	ehrlich	fair	schön	spielen	retten	treu	eitel	faul	schlecht	strafen	rächen	tot	1	acq_USpleas_CSpleas2_RW	acq2_RW	2	10	480	1	300	300	498	50	0	1	1	blank2r.bmp	0	1	+	0	1	blank2r.bmp	492	1	BZZB	492	1	blank2r.bmp	572	1	spielen	866	1	!	1319	1	!	1399	0	0	0	0	0	0	0	0	0	0	0	0	0	0	0	0	0	0	0	0	0	0	0	0	0	0	0	0	0	0
070919	11:11:51	11:13:21	88236	5.0.10.0	5_exp_RW	999	Rpleas_acq	CS_B	VKKV	BZZB	MQQM	YDDY	JXXJ	GWWG	ehrlich	fair	schön	spielen	retten	treu	eitel	faul	schlecht	strafen	rächen	tot	1	acq_USpleas_CSpleas1_RW	acq2_RW	2	11	480	1	300	300	484	50	0	1	1	blank2r.bmp	0	1	+	0	1	blank2r.bmp	492	1	VKKV	492	1	blank2r.bmp	572	2	fair	866	1	!	1319	1	!	1386	0	0	0	0	0	0	0	0	0	0	0	0	0	0	0	0	0	0	0	0	0	0	0	0	0	0	0	0	0	0
070919	11:11:51	11:13:23	90515	5.0.10.0	5_exp_RW	999	Rpleas_acq	CS_B	VKKV	BZZB	MQQM	YDDY	JXXJ	GWWG	ehrlich	fair	schön	spielen	retten	treu	eitel	faul	schlecht	strafen	rächen	tot	1	acq_USpleas_CSpleas2_RW	acq2_RW	2	12	480	1	300	300	486	50	0	1	1	blank2r.bmp	0	1	+	0	1	blank2r.bmp	492	1	BZZB	492	1	blank2r.bmp	572	3	treu	866	1	!	1319	1	!	1386	0	0	0	0	0	0	0	0	0	0	0	0	0	0	0	0	0	0	0	0	0	0	0	0	0	0	0	0	0	0
070919	11:11:51	11:13:26	92821	5.0.10.0	5_exp_RW	999	Rpleas_acq	CS_B	VKKV	BZZB	MQQM	YDDY	JXXJ	GWWG	ehrlich	fair	schön	spielen	retten	treu	eitel	faul	schlecht	strafen	rächen	tot	1	acq_USpleas_CSpleas2_RW	acq2_RW	2	13	480	1	300	300	508	50	0	1	1	blank2r.bmp	0	1	+	0	1	blank2r.bmp	496	1	BZZB	496	1	blank2r.bmp	572	2	retten	866	1	!	1319	1	!	1412	0	0	0	0	0	0	0	0	0	0	0	0	0	0	0	0	0	0	0	0	0	0	0	0	0	0	0	0	0	0
070919	11:11:51	11:13:28	95073	5.0.10.0	5_exp_RW	999	Rpleas_acq	CS_B	VKKV	BZZB	MQQM	YDDY	JXXJ	GWWG	ehrlich	fair	schön	spielen	retten	treu	eitel	faul	schlecht	strafen	rächen	tot	1	acq_USpleas_CSpleas1_RW	acq2_RW	2	14	480	1	300	300	455	50	0	1	1	blank2r.bmp	0	1	+	0	1	blank2r.bmp	492	1	VKKV	492	1	blank2r.bmp	572	3	schön	866	1	!	1319	1	!	1359	0	0	0	0	0	0	0	0	0	0	0	0	0	0	0	0	0	0	0	0	0	0	0	0	0	0	0	0	0	0
070919	11:11:51	11:13:30	97312	5.0.10.0	5_exp_RW	999	Rpleas_acq	CS_B	VKKV	BZZB	MQQM	YDDY	JXXJ	GWWG	ehrlich	fair	schön	spielen	retten	treu	eitel	faul	schlecht	strafen	rächen	tot	1	acq_USunple_CSunple1_RW	acq2_RW	2	15	480	1	300	300	446	46	0	1	1	blank2r.bmp	0	1	+	0	1	blank2r.bmp	492	1	MQQM	492	1	blank2r.bmp	572	1	eitel	866	1	!	1319	1	!	1346	0	0	0	0	0	0	0	0	0	0	0	0	0	0	0	0	0	0	0	0	0	0	0	0	0	0	0	0	0	0
070919	11:11:51	11:13:32	99538	5.0.10.0	5_exp_RW	999	Rpleas_acq	CS_B	VKKV	BZZB	MQQM	YDDY	JXXJ	GWWG	ehrlich	fair	schön	spielen	retten	treu	eitel	faul	schlecht	strafen	rächen	tot	1	acq_USpleas_CSpleas1_RW	acq2_RW	2	16	480	1	300	300	426	50	0	1	1	blank2r.bmp	0	1	+	0	1	blank2r.bmp	492	1	VKKV	492	1	blank2r.bmp	572	2	fair	866	1	!	1319	1	!	1332	0	0	0	0	0	0	0	0	0	0	0	0	0	0	0	0	0	0	0	0	0	0	0	0	0	0	0	0	0	0
070919	11:11:51	11:13:35	101830	5.0.10.0	5_exp_RW	999	Rpleas_acq	CS_B	VKKV	BZZB	MQQM	YDDY	JXXJ	GWWG	ehrlich	fair	schön	spielen	retten	treu	eitel	faul	schlecht	strafen	rächen	tot	1	acq_USpleas_CSpleas1_RW	acq2_RW	2	17	480	1	300	300	493	50	0	1	1	blank2r.bmp	0	1	+	0	1	blank2r.bmp	492	1	VKKV	492	1	blank2r.bmp	572	3	schön	866	1	!	1319	1	!	1399	0	0	0	0	0	0	0	0	0	0	0	0	0	0	0	0	0	0	0	0	0	0	0	0	0	0	0	0	0	0
070919	11:11:51	11:13:37	104216	5.0.10.0	5_exp_RW	999	Rpleas_acq	CS_B	VKKV	BZZB	MQQM	YDDY	JXXJ	GWWG	ehrlich	fair	schön	spielen	retten	treu	eitel	faul	schlecht	strafen	rächen	tot	1	acq_USpleas_CSpleas2_RW	acq2_RW	2	18	480	0	300	300	397	46	0	0	1	blank2r.bmp	0	1	+	0	1	blank2r.bmp	493	1	BZZB	493	1	blank2r.bmp	572	2	retten	866	1	FEHLER	1599	1	!	-1	1	!	-1	0	0	0	0	0	0	0	0	0	0	0	0	0	0	0	0	0	0	0	0	0	0	0	0	0	0	0
070919	11:11:51	11:13:39	106295	5.0.10.0	5_exp_RW	999	Rpleas_acq	CS_B	VKKV	BZZB	MQQM	YDDY	JXXJ	GWWG	ehrlich	fair	schön	spielen	retten	treu	eitel	faul	schlecht	strafen	rächen	tot	1	acq_USpleas_CSpleas1_RW	acq2_RW	2	19	480	1	300	300	494	50	0	1	1	blank2r.bmp	0	1	+	0	1	blank2r.bmp	492	1	VKKV	492	1	blank2r.bmp	574	1	ehrlich	866	1	!	1319	1	!	1399	0	0	0	0	0	0	0	0	0	0	0	0	0	0	0	0	0	0	0	0	0	0	0	0	0	0	0	0	0	0
070919	11:11:51	11:13:41	108521	5.0.10.0	5_exp_RW	999	Rpleas_acq	CS_B	VKKV	BZZB	MQQM	YDDY	JXXJ	GWWG	ehrlich	fair	schön	spielen	retten	treu	eitel	faul	schlecht	strafen	rächen	tot	1	acq_USunple_CSunple1_RW	acq2_RW	2	20	480	1	300	300	426	46	0	1	1	blank2r.bmp	0	1	+	0	1	blank2r.bmp	492	1	MQQM	492	1	blank2r.bmp	572	2	faul	866	1	!	1319	1	!	1332	0	0	0	0	0	0	0	0	0	0	0	0	0	0	0	0	0	0	0	0	0	0	0	0	0	0	0	0	0	0
070919	11:11:51	11:13:44	110813	5.0.10.0	5_exp_RW	999	Rpleas_acq	CS_B	VKKV	BZZB	MQQM	YDDY	JXXJ	GWWG	ehrlich	fair	schön	spielen	retten	treu	eitel	faul	schlecht	strafen	rächen	tot	1	acq_USunple_CSunple1_RW	acq2_RW	2	21	480	1	300	300	504	46	0	1	1	blank2r.bmp	0	1	+	0	1	blank2r.bmp	492	1	MQQM	492	1	blank2r.bmp	572	3	schlecht	866	1	!	1319	1	!	1399	0	0	0	0	0	0	0	0	0	0	0	0	0	0	0	0	0	0	0	0	0	0	0	0	0	0	0	0	0	0
070919	11:11:51	11:13:46	113092	5.0.10.0	5_exp_RW	999	Rpleas_acq	CS_B	VKKV	BZZB	MQQM	YDDY	JXXJ	GWWG	ehrlich	fair	schön	spielen	retten	treu	eitel	faul	schlecht	strafen	rächen	tot	1	acq_USpleas_CSpleas1_RW	acq2_RW	2	22	480	1	300	300	483	50	0	1	1	blank2r.bmp	0	1	+	0	1	blank2r.bmp	492	1	VKKV	492	1	blank2r.bmp	572	1	ehrlich	866	1	!	1319	1	!	1386	0	0	0	0	0	0	0	0	0	0	0	0	0	0	0	0	0	0	0	0	0	0	0	0	0	0	0	0	0	0
070919	11:11:51	11:13:48	115318	5.0.10.0	5_exp_RW	999	Rpleas_acq	CS_B	VKKV	BZZB	MQQM	YDDY	JXXJ	GWWG	ehrlich	fair	schön	spielen	retten	treu	eitel	faul	schlecht	strafen	rächen	tot	1	acq_USunple_CSunple2_RW	acq2_RW	2	23	480	1	300	300	426	46	0	1	1	blank2r.bmp	0	1	+	0	1	blank2r.bmp	492	1	YDDY	492	1	blank2r.bmp	572	1	strafen	866	1	!	1319	1	!	1332	0	0	0	0	0	0	0	0	0	0	0	0	0	0	0	0	0	0	0	0	0	0	0	0	0	0	0	0	0	0
070919	11:11:51	11:13:50	117570	5.0.10.0	5_exp_RW	999	Rpleas_acq	CS_B	VKKV	BZZB	MQQM	YDDY	JXXJ	GWWG	ehrlich	fair	schön	spielen	retten	treu	eitel	faul	schlecht	strafen	rächen	tot	1	acq_USunple_CSunple1_RW	acq2_RW	2	24	480	1	300	300	453	46	0	1	1	blank2r.bmp	0	1	+	0	1	blank2r.bmp	493	1	MQQM	493	1	blank2r.bmp	572	2	faul	866	1	!	1319	1	!	1359	0	0	0	0	0	0	0	0	0	0	0	0	0	0	0	0	0	0	0	0	0	0	0	0	0	0	0	0	0	0
070919	11:11:51	11:13:57	124088	5.0.10.0	5_exp_RW	999	Rpleas_acq	CS_B	VKKV	BZZB	MQQM	YDDY	JXXJ	GWWG	ehrlich	fair	schön	spielen	retten	treu	eitel	faul	schlecht	strafen	rächen	tot	1	acq_USunple_CSunple1_RW	acq3_RW	3	1	453	0	300	300	562	46	0	1	1	blank2r.bmp	0	1	+	0	1	blank2r.bmp	492	1	MQQM	492	1	blank2r.bmp	572	3	schlecht	866	1	!	1292	1	!	-1	0	0	0	0	0	0	0	0	0	0	0	0	0	0	0	0	0	0	0	0	0	0	0	0	0	0	0	0	0	0
070919	11:11:51	11:13:59	126367	5.0.10.0	5_exp_RW	999	Rpleas_acq	CS_B	VKKV	BZZB	MQQM	YDDY	JXXJ	GWWG	ehrlich	fair	schön	spielen	retten	treu	eitel	faul	schlecht	strafen	rächen	tot	1	acq_USpleas_CSpleas1_RW	acq3_RW	3	2	453	1	300	300	489	50	0	1	1	blank2r.bmp	0	1	+	0	1	blank2r.bmp	492	1	VKKV	492	1	blank2r.bmp	573	2	fair	866	1	!	1292	1	!	1386	0	0	0	0	0	0	0	0	0	0	0	0	0	0	0	0	0	0	0	0	0	0	0	0	0	0	0	0	0	0
070919	11:11:51	11:14:01	128606	5.0.10.0	5_exp_RW	999	Rpleas_acq	CS_B	VKKV	BZZB	MQQM	YDDY	JXXJ	GWWG	ehrlich	fair	schön	spielen	retten	treu	eitel	faul	schlecht	strafen	rächen	tot	1	acq_USpleas_CSpleas2_RW	acq3_RW	3	3	453	1	300	300	449	50	0	1	1	blank2r.bmp	0	1	+	0	1	blank2r.bmp	495	1	BZZB	495	1	blank2r.bmp	573	3	treu	866	1	!	1292	1	!	1346	0	0	0	0	0	0	0	0	0	0	0	0	0	0	0	0	0	0	0	0	0	0	0	0	0	0	0	0	0	0
070919	11:11:51	11:14:04	130818	5.0.10.0	5_exp_RW	999	Rpleas_acq	CS_B	VKKV	BZZB	MQQM	YDDY	JXXJ	GWWG	ehrlich	fair	schön	spielen	retten	treu	eitel	faul	schlecht	strafen	rächen	tot	1	acq_USpleas_CSpleas2_RW	acq3_RW	3	4	453	1	300	300	417	50	0	1	1	blank2r.bmp	0	1	+	0	1	blank2r.bmp	492	1	BZZB	492	1	blank2r.bmp	572	1	spielen	866	1	!	1292	1	!	1319	0	0	0	0	0	0	0	0	0	0	0	0	0	0	0	0	0	0	0	0	0	0	0	0	0	0	0	0	0	0
070919	11:11:51	11:14:06	133084	5.0.10.0	5_exp_RW	999	Rpleas_acq	CS_B	VKKV	BZZB	MQQM	YDDY	JXXJ	GWWG	ehrlich	fair	schön	spielen	retten	treu	eitel	faul	schlecht	strafen	rächen	tot	1	acq_USpleas_CSpleas1_RW	acq3_RW	3	5	453	1	300	300	469	50	0	1	1	blank2r.bmp	0	1	+	0	1	blank2r.bmp	492	1	VKKV	492	1	blank2r.bmp	572	3	schön	866	1	!	1292	1	!	1372	0	0	0	0	0	0	0	0	0	0	0	0	0	0	0	0	0	0	0	0	0	0	0	0	0	0	0	0	0	0
070919	11:11:51	11:14:08	135510	5.0.10.0	5_exp_RW	999	Rpleas_acq	CS_B	VKKV	BZZB	MQQM	YDDY	JXXJ	GWWG	ehrlich	fair	schön	spielen	retten	treu	eitel	faul	schlecht	strafen	rächen	tot	1	acq_USunple_CSunple1_RW	acq3_RW	3	6	453	1	300	300	415	50	0	0	1	blank2r.bmp	0	1	+	0	1	blank2r.bmp	492	1	MQQM	492	1	blank2r.bmp	572	1	eitel	866	1	FEHLER	1639	1	!	1292	1	!	1319	0	0	0	0	0	0	0	0	0	0	0	0	0	0	0	0	0	0	0	0	0	0	0	0	0	0	0
070919	11:11:51	11:14:10	137589	5.0.10.0	5_exp_RW	999	Rpleas_acq	CS_B	VKKV	BZZB	MQQM	YDDY	JXXJ	GWWG	ehrlich	fair	schön	spielen	retten	treu	eitel	faul	schlecht	strafen	rächen	tot	1	acq_USpleas_CSpleas2_RW	acq3_RW	3	7	453	1	300	300	505	50	0	1	1	blank2r.bmp	0	1	+	0	1	blank2r.bmp	492	1	BZZB	492	1	blank2r.bmp	572	2	retten	866	1	!	1292	1	!	1399	0	0	0	0	0	0	0	0	0	0	0	0	0	0	0	0	0	0	0	0	0	0	0	0	0	0	0	0	0	0
070919	11:11:51	11:14:13	139854	5.0.10.0	5_exp_RW	999	Rpleas_acq	CS_B	VKKV	BZZB	MQQM	YDDY	JXXJ	GWWG	ehrlich	fair	schön	spielen	retten	treu	eitel	faul	schlecht	strafen	rächen	tot	1	acq_USunple_CSunple2_RW	acq3_RW	3	8	453	1	300	300	468	46	0	1	1	blank2r.bmp	0	1	+	0	1	blank2r.bmp	492	1	YDDY	492	1	blank2r.bmp	572	2	rächen	866	1	!	1292	1	!	1372	0	0	0	0	0	0	0	0	0	0	0	0	0	0	0	0	0	0	0	0	0	0	0	0	0	0	0	0	0	0
070919	11:11:51	11:14:15	142320	5.0.10.0	5_exp_RW	999	Rpleas_acq	CS_B	VKKV	BZZB	MQQM	YDDY	JXXJ	GWWG	ehrlich	fair	schön	spielen	retten	treu	eitel	faul	schlecht	strafen	rächen	tot	1	acq_USunple_CSunple1_RW	acq3_RW	3	9	453	1	300	300	461	50	0	0	1	blank2r.bmp	1	1	+	1	1	blank2r.bmp	492	1	MQQM	492	1	blank2r.bmp	572	1	eitel	866	1	FEHLER	1679	1	!	1292	1	!	1359	0	0	0	0	0	0	0	0	0	0	0	0	0	0	0	0	0	0	0	0	0	0	0	0	0	0	0
070919	11:11:51	11:14:17	144452	5.0.10.0	5_exp_RW	999	Rpleas_acq	CS_B	VKKV	BZZB	MQQM	YDDY	JXXJ	GWWG	ehrlich	fair	schön	spielen	retten	treu	eitel	faul	schlecht	strafen	rächen	tot	1	acq_USunple_CSunple2_RW	acq3_RW	3	10	453	0	300	300	565	46	0	1	1	blank2r.bmp	0	1	+	0	1	blank2r.bmp	492	1	YDDY	492	1	blank2r.bmp	572	3	tot	866	1	!	1292	1	!	-1	0	0	0	0	0	0	0	0	0	0	0	0	0	0	0	0	0	0	0	0	0	0	0	0	0	0	0	0	0	0
070919	11:11:51	11:14:19	146598	5.0.10.0	5_exp_RW	999	Rpleas_acq	CS_B	VKKV	BZZB	MQQM	YDDY	JXXJ	GWWG	ehrlich	fair	schön	spielen	retten	treu	eitel	faul	schlecht	strafen	rächen	tot	1	acq_USpleas_CSpleas2_RW	acq3_RW	3	11	453	0	300	300	375	50	0	1	1	blank2r.bmp	0	1	+	0	1	blank2r.bmp	492	1	BZZB	492	1	blank2r.bmp	575	1	spielen	866	1	!	-1	1	!	-1	0	0	0	0	0	0	0	0	0	0	0	0	0	0	0	0	0	0	0	0	0	0	0	0	0	0	0	0	0	0
070919	11:11:51	11:14:22	148824	5.0.10.0	5_exp_RW	999	Rpleas_acq	CS_B	VKKV	BZZB	MQQM	YDDY	JXXJ	GWWG	ehrlich	fair	schön	spielen	retten	treu	eitel	faul	schlecht	strafen	rächen	tot	1	acq_USunple_CSunple1_RW	acq3_RW	3	12	453	1	300	300	420	46	0	1	1	blank2r.bmp	0	1	+	0	1	blank2r.bmp	492	1	MQQM	492	1	blank2r.bmp	572	3	schlecht	866	1	!	1292	1	!	1319	0	0	0	0	0	0	0	0	0	0	0	0	0	0	0	0	0	0	0	0	0	0	0	0	0	0	0	0	0	0
070919	11:11:51	11:14:24	151076	5.0.10.0	5_exp_RW	999	Rpleas_acq	CS_B	VKKV	BZZB	MQQM	YDDY	JXXJ	GWWG	ehrlich	fair	schön	spielen	retten	treu	eitel	faul	schlecht	strafen	rächen	tot	1	acq_USunple_CSunple2_RW	acq3_RW	3	13	453	1	300	300	458	46	0	1	1	blank2r.bmp	0	1	+	0	1	blank2r.bmp	492	1	YDDY	492	1	blank2r.bmp	572	1	strafen	866	1	!	1292	1	!	1359	0	0	0	0	0	0	0	0	0	0	0	0	0	0	0	0	0	0	0	0	0	0	0	0	0	0	0	0	0	0
070919	11:11:51	11:14:26	153235	5.0.10.0	5_exp_RW	999	Rpleas_acq	CS_B	VKKV	BZZB	MQQM	YDDY	JXXJ	GWWG	ehrlich	fair	schön	spielen	retten	treu	eitel	faul	schlecht	strafen	rächen	tot	1	acq_USunple_CSunple1_RW	acq3_RW	3	14	453	0	300	300	386	46	0	1	1	blank2r.bmp	0	1	+	0	1	blank2r.bmp	492	1	MQQM	492	1	blank2r.bmp	572	2	faul	866	1	!	-1	1	!	-1	0	0	0	0	0	0	0	0	0	0	0	0	0	0	0	0	0	0	0	0	0	0	0	0	0	0	0	0	0	0
070919	11:11:51	11:14:28	155488	5.0.10.0	5_exp_RW	999	Rpleas_acq	CS_B	VKKV	BZZB	MQQM	YDDY	JXXJ	GWWG	ehrlich	fair	schön	spielen	retten	treu	eitel	faul	schlecht	strafen	rächen	tot	1	acq_USpleas_CSpleas2_RW	acq3_RW	3	15	453	1	300	300	447	50	0	1	1	blank2r.bmp	0	1	+	0	1	blank2r.bmp	492	1	BZZB	492	1	blank2r.bmp	572	3	treu	866	1	!	1292	1	!	1345	0	0	0	0	0	0	0	0	0	0	0	0	0	0	0	0	0	0	0	0	0	0	0	0	0	0	0	0	0	0
070919	11:11:51	11:14:30	157740	5.0.10.0	5_exp_RW	999	Rpleas_acq	CS_B	VKKV	BZZB	MQQM	YDDY	JXXJ	GWWG	ehrlich	fair	schön	spielen	retten	treu	eitel	faul	schlecht	strafen	rächen	tot	1	acq_USpleas_CSpleas1_RW	acq3_RW	3	16	453	1	300	300	454	50	0	1	1	blank2r.bmp	0	1	+	0	1	blank2r.bmp	492	1	VKKV	492	1	blank2r.bmp	572	3	schön	866	1	!	1292	1	!	1359	0	0	0	0	0	0	0	0	0	0	0	0	0	0	0	0	0	0	0	0	0	0	0	0	0	0	0	0	0	0
070919	11:11:51	11:14:33	160046	5.0.10.0	5_exp_RW	999	Rpleas_acq	CS_B	VKKV	BZZB	MQQM	YDDY	JXXJ	GWWG	ehrlich	fair	schön	spielen	retten	treu	eitel	faul	schlecht	strafen	rächen	tot	1	acq_USpleas_CSpleas1_RW	acq3_RW	3	17	453	0	300	300	532	50	0	1	1	blank2r.bmp	0	1	+	0	1	blank2r.bmp	492	1	VKKV	492	1	blank2r.bmp	572	1	ehrlich	866	1	!	1292	1	!	-1	0	0	0	0	0	0	0	0	0	0	0	0	0	0	0	0	0	0	0	0	0	0	0	0	0	0	0	0	0	0
070919	11:11:51	11:14:35	162511	5.0.10.0	5_exp_RW	999	Rpleas_acq	CS_B	VKKV	BZZB	MQQM	YDDY	JXXJ	GWWG	ehrlich	fair	schön	spielen	retten	treu	eitel	faul	schlecht	strafen	rächen	tot	1	acq_USunple_CSunple1_RW	acq3_RW	3	18	453	1	300	300	440	50	0	0	1	blank2r.bmp	1	1	+	1	1	blank2r.bmp	492	1	MQQM	492	1	blank2r.bmp	572	1	eitel	868	1	FEHLER	1665	1	!	1292	1	!	1346	0	0	0	0	0	0	0	0	0	0	0	0	0	0	0	0	0	0	0	0	0	0	0	0	0	0	0
070919	11:11:51	11:14:37	164591	5.0.10.0	5_exp_RW	999	Rpleas_acq	CS_B	VKKV	BZZB	MQQM	YDDY	JXXJ	GWWG	ehrlich	fair	schön	spielen	retten	treu	eitel	faul	schlecht	strafen	rächen	tot	1	acq_USpleas_CSpleas2_RW	acq3_RW	3	19	453	1	300	300	496	50	0	1	1	blank2r.bmp	0	1	+	0	1	blank2r.bmp	492	1	BZZB	492	1	blank2r.bmp	572	3	treu	866	1	!	1292	1	!	1399	0	0	0	0	0	0	0	0	0	0	0	0	0	0	0	0	0	0	0	0	0	0	0	0	0	0	0	0	0	0
070919	11:11:51	11:14:40	166896	5.0.10.0	5_exp_RW	999	Rpleas_acq	CS_B	VKKV	BZZB	MQQM	YDDY	JXXJ	GWWG	ehrlich	fair	schön	spielen	retten	treu	eitel	faul	schlecht	strafen	rächen	tot	1	acq_USpleas_CSpleas1_RW	acq3_RW	3	20	453	0	300	300	532	50	0	1	1	blank2r.bmp	0	1	+	0	1	blank2r.bmp	492	1	VKKV	492	1	blank2r.bmp	572	2	fair	866	1	!	1292	1	!	-1	0	0	0	0	0	0	0	0	0	0	0	0	0	0	0	0	0	0	0	0	0	0	0	0	0	0	0	0	0	0
070919	11:11:51	11:14:42	169135	5.0.10.0	5_exp_RW	999	Rpleas_acq	CS_B	VKKV	BZZB	MQQM	YDDY	JXXJ	GWWG	ehrlich	fair	schön	spielen	retten	treu	eitel	faul	schlecht	strafen	rächen	tot	1	acq_USunple_CSunple2_RW	acq3_RW	3	21	453	1	300	300	430	46	0	1	1	blank2r.bmp	0	1	+	0	1	blank2r.bmp	492	1	YDDY	492	1	blank2r.bmp	572	2	rächen	866	1	!	1292	1	!	1332	0	0	0	0	0	0	0	0	0	0	0	0	0	0	0	0	0	0	0	0	0	0	0	0	0	0	0	0	0	0
070919	11:11:51	11:14:44	171334	5.0.10.0	5_exp_RW	999	Rpleas_acq	CS_B	VKKV	BZZB	MQQM	YDDY	JXXJ	GWWG	ehrlich	fair	schön	spielen	retten	treu	eitel	faul	schlecht	strafen	rächen	tot	1	acq_USunple_CSunple2_RW	acq3_RW	3	22	453	1	300	300	408	46	0	1	1	blank2r.bmp	0	1	+	0	1	blank2r.bmp	492	1	YDDY	492	1	blank2r.bmp	572	3	tot	866	1	!	1292	1	!	1306	0	0	0	0	0	0	0	0	0	0	0	0	0	0	0	0	0	0	0	0	0	0	0	0	0	0	0	0	0	0
070919	11:11:51	11:14:46	173533	5.0.10.0	5_exp_RW	999	Rpleas_acq	CS_B	VKKV	BZZB	MQQM	YDDY	JXXJ	GWWG	ehrlich	fair	schön	spielen	retten	treu	eitel	faul	schlecht	strafen	rächen	tot	1	acq_USunple_CSunple2_RW	acq3_RW	3	23	453	1	300	300	400	46	0	1	1	blank2r.bmp	0	1	+	0	1	blank2r.bmp	493	1	YDDY	493	1	blank2r.bmp	573	2	rächen	866	1	!	1292	1	!	1306	0	0	0	0	0	0	0	0	0	0	0	0	0	0	0	0	0	0	0	0	0	0	0	0	0	0	0	0	0	0
070919	11:11:51	11:14:49	175772	5.0.10.0	5_exp_RW	999	Rpleas_acq	CS_B	VKKV	BZZB	MQQM	YDDY	JXXJ	GWWG	ehrlich	fair	schön	spielen	retten	treu	eitel	faul	schlecht	strafen	rächen	tot	1	acq_USpleas_CSpleas1_RW	acq3_RW	3	24	453	1	300	300	443	50	0	1	1	blank2r.bmp	0	1	+	0	1	blank2r.bmp	492	1	VKKV	492	1	blank2r.bmp	573	3	schön	866	1	!	1292	1	!	1346	0	0	0	0	0	0	0	0	0	0	0	0	0	0	0	0	0	0	0	0	0	0	0	0	0	0	0	0	0	0
070919	11:11:51	11:14:55	181783	5.0.10.0	5_exp_RW	999	Rpleas_acq	CS_B	VKKV	BZZB	MQQM	YDDY	JXXJ	GWWG	ehrlich	fair	schön	spielen	retten	treu	eitel	faul	schlecht	strafen	rächen	tot	1	acq_USpleas_CSpleas2_RW	acq4567_RW	4	1	400	0	300	300	573	50	0	1	1	blank2r.bmp	0	1	+	0	1	blank2r.bmp	492	1	BZZB	492	1	blank2r.bmp	572	2	retten	866	1	!	1239	1	!	-1	0	0	0	0	0	0	0	0	0	0	0	0	0	0	0	0	0	0	0	0	0	0	0	0	0	0	0	0	0	0
070919	11:11:51	11:14:57	184036	5.0.10.0	5_exp_RW	999	Rpleas_acq	CS_B	VKKV	BZZB	MQQM	YDDY	JXXJ	GWWG	ehrlich	fair	schön	spielen	retten	treu	eitel	faul	schlecht	strafen	rächen	tot	1	acq_USpleas_CSpleas1_RW	acq4567_RW	4	2	400	1	300	300	463	50	0	1	1	blank2r.bmp	0	1	+	0	1	blank2r.bmp	492	1	VKKV	492	1	blank2r.bmp	572	1	ehrlich	866	1	!	1239	1	!	1359	0	0	0	0	0	0	0	0	0	0	0	0	0	0	0	0	0	0	0	0	0	0	0	0	0	0	0	0	0	0
070919	11:11:51	11:14:59	186288	5.0.10.0	5_exp_RW	999	Rpleas_acq	CS_B	VKKV	BZZB	MQQM	YDDY	JXXJ	GWWG	ehrlich	fair	schön	spielen	retten	treu	eitel	faul	schlecht	strafen	rächen	tot	1	acq_USunple_CSunple2_RW	acq4567_RW	4	3	400	1	300	300	463	46	0	1	1	blank2r.bmp	0	1	+	0	1	blank2r.bmp	492	1	YDDY	492	1	blank2r.bmp	572	3	tot	866	1	!	1239	1	!	1359	0	0	0	0	0	0	0	0	0	0	0	0	0	0	0	0	0	0	0	0	0	0	0	0	0	0	0	0	0	0
070919	11:11:51	11:15:01	188500	5.0.10.0	5_exp_RW	999	Rpleas_acq	CS_B	VKKV	BZZB	MQQM	YDDY	JXXJ	GWWG	ehrlich	fair	schön	spielen	retten	treu	eitel	faul	schlecht	strafen	rächen	tot	1	acq_USunple_CSunple1_RW	acq4567_RW	4	4	400	1	300	300	424	46	0	1	1	blank2r.bmp	0	1	+	0	1	blank2r.bmp	492	1	MQQM	492	1	blank2r.bmp	572	3	schlecht	866	1	!	1239	1	!	1319	0	0	0	0	0	0	0	0	0	0	0	0	0	0	0	0	0	0	0	0	0	0	0	0	0	0	0	0	0	0
070919	11:11:51	11:15:03	190699	5.0.10.0	5_exp_RW	999	Rpleas_acq	CS_B	VKKV	BZZB	MQQM	YDDY	JXXJ	GWWG	ehrlich	fair	schön	spielen	retten	treu	eitel	faul	schlecht	strafen	rächen	tot	1	acq_USunple_CSunple1_RW	acq4567_RW	4	5	400	1	300	300	406	46	0	1	1	blank2r.bmp	0	1	+	0	1	blank2r.bmp	492	1	MQQM	492	1	blank2r.bmp	572	2	faul	866	1	!	1239	1	!	1306	0	0	0	0	0	0	0	0	0	0	0	0	0	0	0	0	0	0	0	0	0	0	0	0	0	0	0	0	0	0
070919	11:11:51	11:15:06	192939	5.0.10.0	5_exp_RW	999	Rpleas_acq	CS_B	VKKV	BZZB	MQQM	YDDY	JXXJ	GWWG	ehrlich	fair	schön	spielen	retten	treu	eitel	faul	schlecht	strafen	rächen	tot	1	acq_USpleas_CSpleas1_RW	acq4567_RW	4	6	400	1	300	300	441	50	0	1	1	blank2r.bmp	0	1	+	0	1	blank2r.bmp	492	1	VKKV	492	1	blank2r.bmp	572	2	fair	866	1	!	1239	1	!	1345	0	0	0	0	0	0	0	0	0	0	0	0	0	0	0	0	0	0	0	0	0	0	0	0	0	0	0	0	0	0
070919	11:11:51	11:15:08	195151	5.0.10.0	5_exp_RW	999	Rpleas_acq	CS_B	VKKV	BZZB	MQQM	YDDY	JXXJ	GWWG	ehrlich	fair	schön	spielen	retten	treu	eitel	faul	schlecht	strafen	rächen	tot	1	acq_USunple_CSunple2_RW	acq4567_RW	4	7	400	1	300	300	414	50	0	0	1	blank2r.bmp	0	1	+	0	1	blank2r.bmp	492	1	YDDY	492	1	blank2r.bmp	572	1	strafen	866	1	!	1239	1	!	1319	0	0	0	0	0	0	0	0	0	0	0	0	0	0	0	0	0	0	0	0	0	0	0	0	0	0	0	0	0	0
070919	11:11:51	11:15:10	197350	5.0.10.0	5_exp_RW	999	Rpleas_acq	CS_B	VKKV	BZZB	MQQM	YDDY	JXXJ	GWWG	ehrlich	fair	schön	spielen	retten	treu	eitel	faul	schlecht	strafen	rächen	tot	1	acq_USpleas_CSpleas1_RW	acq4567_RW	4	8	400	1	300	300	410	50	0	1	1	blank2r.bmp	0	1	+	0	1	blank2r.bmp	492	1	VKKV	492	1	blank2r.bmp	573	3	schön	866	1	!	1239	1	!	1306	0	0	0	0	0	0	0	0	0	0	0	0	0	0	0	0	0	0	0	0	0	0	0	0	0	0	0	0	0	0
070919	11:11:51	11:15:12	199616	5.0.10.0	5_exp_RW	999	Rpleas_acq	CS_B	VKKV	BZZB	MQQM	YDDY	JXXJ	GWWG	ehrlich	fair	schön	spielen	retten	treu	eitel	faul	schlecht	strafen	rächen	tot	1	acq_USunple_CSunple1_RW	acq4567_RW	4	9	400	0	300	300	479	50	0	0	1	blank2r.bmp	0	1	+	0	1	blank2r.bmp	492	1	MQQM	492	1	blank2r.bmp	572	1	eitel	866	1	!	1239	1	!	-1	0	0	0	0	0	0	0	0	0	0	0	0	0	0	0	0	0	0	0	0	0	0	0	0	0	0	0	0	0	0
070919	11:11:51	11:15:15	201761	5.0.10.0	5_exp_RW	999	Rpleas_acq	CS_B	VKKV	BZZB	MQQM	YDDY	JXXJ	GWWG	ehrlich	fair	schön	spielen	retten	treu	eitel	faul	schlecht	strafen	rächen	tot	1	acq_USpleas_CSpleas1_RW	acq4567_RW	4	10	400	1	300	300	354	46	0	0	1	blank2r.bmp	0	1	+	0	1	blank2r.bmp	495	1	VKKV	495	1	blank2r.bmp	572	2	fair	866	1	!	1239	1	!	1252	0	0	0	0	0	0	0	0	0	0	0	0	0	0	0	0	0	0	0	0	0	0	0	0	0	0	0	0	0	0
070919	11:11:51	11:15:17	203934	5.0.10.0	5_exp_RW	999	Rpleas_acq	CS_B	VKKV	BZZB	MQQM	YDDY	JXXJ	GWWG	ehrlich	fair	schön	spielen	retten	treu	eitel	faul	schlecht	strafen	rächen	tot	1	acq_USunple_CSunple1_RW	acq4567_RW	4	11	400	1	300	300	381	46	0	1	1	blank2r.bmp	0	1	+	0	1	blank2r.bmp	492	1	MQQM	492	1	blank2r.bmp	572	3	schlecht	866	1	!	1239	1	!	1279	0	0	0	0	0	0	0	0	0	0	0	0	0	0	0	0	0	0	0	0	0	0	0	0	0	0	0	0	0	0
070919	11:11:51	11:15:19	206133	5.0.10.0	5_exp_RW	999	Rpleas_acq	CS_B	VKKV	BZZB	MQQM	YDDY	JXXJ	GWWG	ehrlich	fair	schön	spielen	retten	treu	eitel	faul	schlecht	strafen	rächen	tot	1	acq_USunple_CSunple2_RW	acq4567_RW	4	12	400	1	300	300	408	46	0	1	1	blank2r.bmp	0	1	+	0	1	blank2r.bmp	492	1	YDDY	492	1	blank2r.bmp	572	3	tot	866	1	!	1239	1	!	1306	0	0	0	0	0	0	0	0	0	0	0	0	0	0	0	0	0	0	0	0	0	0	0	0	0	0	0	0	0	0
070919	11:11:51	11:15:21	208345	5.0.10.0	5_exp_RW	999	Rpleas_acq	CS_B	VKKV	BZZB	MQQM	YDDY	JXXJ	GWWG	ehrlich	fair	schön	spielen	retten	treu	eitel	faul	schlecht	strafen	rächen	tot	1	acq_USpleas_CSpleas2_RW	acq4567_RW	4	13	400	1	300	300	415	50	0	1	1	blank2r.bmp	0	1	+	0	1	blank2r.bmp	495	1	BZZB	495	1	blank2r.bmp	572	1	spielen	866	1	!	1239	1	!	1319	0	0	0	0	0	0	0	0	0	0	0	0	0	0	0	0	0	0	0	0	0	0	0	0	0	0	0	0	0	0
070919	11:11:51	11:15:23	210504	5.0.10.0	5_exp_RW	999	Rpleas_acq	CS_B	VKKV	BZZB	MQQM	YDDY	JXXJ	GWWG	ehrlich	fair	schön	spielen	retten	treu	eitel	faul	schlecht	strafen	rächen	tot	1	acq_USunple_CSunple2_RW	acq4567_RW	4	14	400	1	300	300	358	46	0	1	1	blank2r.bmp	0	1	+	0	1	blank2r.bmp	494	1	YDDY	494	1	blank2r.bmp	572	2	rächen	866	1	!	1239	1	!	1266	0	0	0	0	0	0	0	0	0	0	0	0	0	0	0	0	0	0	0	0	0	0	0	0	0	0	0	0	0	0
070919	11:11:51	11:15:25	212757	5.0.10.0	5_exp_RW	999	Rpleas_acq	CS_B	VKKV	BZZB	MQQM	YDDY	JXXJ	GWWG	ehrlich	fair	schön	spielen	retten	treu	eitel	faul	schlecht	strafen	rächen	tot	1	acq_USpleas_CSpleas2_RW	acq4567_RW	4	15	400	1	300	300	463	50	0	1	1	blank2r.bmp	0	1	+	0	1	blank2r.bmp	492	1	BZZB	492	1	blank2r.bmp	574	2	retten	866	1	!	1239	1	!	1359	0	0	0	0	0	0	0	0	0	0	0	0	0	0	0	0	0	0	0	0	0	0	0	0	0	0	0	0	0	0
070919	11:11:51	11:15:28	214956	5.0.10.0	5_exp_RW	999	Rpleas_acq	CS_B	VKKV	BZZB	MQQM	YDDY	JXXJ	GWWG	ehrlich	fair	schön	spielen	retten	treu	eitel	faul	schlecht	strafen	rächen	tot	1	acq_USunple_CSunple2_RW	acq4567_RW	4	16	400	1	300	300	399	46	0	1	1	blank2r.bmp	0	1	+	0	1	blank2r.bmp	492	1	YDDY	492	1	blank2r.bmp	572	1	strafen	866	1	!	1239	1	!	1306	0	0	0	0	0	0	0	0	0	0	0	0	0	0	0	0	0	0	0	0	0	0	0	0	0	0	0	0	0	0
070919	11:11:51	11:15:30	217142	5.0.10.0	5_exp_RW	999	Rpleas_acq	CS_B	VKKV	BZZB	MQQM	YDDY	JXXJ	GWWG	ehrlich	fair	schön	spielen	retten	treu	eitel	faul	schlecht	strafen	rächen	tot	1	acq_USunple_CSunple1_RW	acq4567_RW	4	17	400	1	300	300	386	46	0	1	1	blank2r.bmp	0	1	+	0	1	blank2r.bmp	492	1	MQQM	492	1	blank2r.bmp	572	2	faul	866	1	!	1239	1	!	1292	0	0	0	0	0	0	0	0	0	0	0	0	0	0	0	0	0	0	0	0	0	0	0	0	0	0	0	0	0	0
070919	11:11:51	11:15:32	219354	5.0.10.0	5_exp_RW	999	Rpleas_acq	CS_B	VKKV	BZZB	MQQM	YDDY	JXXJ	GWWG	ehrlich	fair	schön	spielen	retten	treu	eitel	faul	schlecht	strafen	rächen	tot	1	acq_USpleas_CSpleas1_RW	acq4567_RW	4	18	400	1	300	300	415	50	0	1	1	blank2r.bmp	0	1	+	0	1	blank2r.bmp	492	1	VKKV	492	1	blank2r.bmp	572	1	ehrlich	866	1	!	1239	1	!	1319	0	0	0	0	0	0	0	0	0	0	0	0	0	0	0	0	0	0	0	0	0	0	0	0	0	0	0	0	0	0
070919	11:11:51	11:15:34	221606	5.0.10.0	5_exp_RW	999	Rpleas_acq	CS_B	VKKV	BZZB	MQQM	YDDY	JXXJ	GWWG	ehrlich	fair	schön	spielen	retten	treu	eitel	faul	schlecht	strafen	rächen	tot	1	acq_USpleas_CSpleas2_RW	acq4567_RW	4	19	400	1	300	300	456	50	0	1	1	blank2r.bmp	0	1	+	0	1	blank2r.bmp	492	1	BZZB	492	1	blank2r.bmp	572	1	spielen	866	1	!	1239	1	!	1359	0	0	0	0	0	0	0	0	0	0	0	0	0	0	0	0	0	0	0	0	0	0	0	0	0	0	0	0	0	0
070919	11:11:51	11:15:37	223805	5.0.10.0	5_exp_RW	999	Rpleas_acq	CS_B	VKKV	BZZB	MQQM	YDDY	JXXJ	GWWG	ehrlich	fair	schön	spielen	retten	treu	eitel	faul	schlecht	strafen	rächen	tot	1	acq_USpleas_CSpleas2_RW	acq4567_RW	4	20	400	1	300	300	404	50	0	1	1	blank2r.bmp	0	1	+	0	1	blank2r.bmp	492	1	BZZB	492	1	blank2r.bmp	572	3	treu	866	1	!	1239	1	!	1306	0	0	0	0	0	0	0	0	0	0	0	0	0	0	0	0	0	0	0	0	0	0	0	0	0	0	0	0	0	0
070919	11:11:51	11:15:39	225965	5.0.10.0	5_exp_RW	999	Rpleas_acq	CS_B	VKKV	BZZB	MQQM	YDDY	JXXJ	GWWG	ehrlich	fair	schön	spielen	retten	treu	eitel	faul	schlecht	strafen	rächen	tot	1	acq_USpleas_CSpleas2_RW	acq4567_RW	4	21	400	1	300	300	363	50	0	1	1	blank2r.bmp	0	1	+	0	1	blank2r.bmp	492	1	BZZB	492	1	blank2r.bmp	572	1	spielen	866	1	!	1239	1	!	1266	0	0	0	0	0	0	0	0	0	0	0	0	0	0	0	0	0	0	0	0	0	0	0	0	0	0	0	0	0	0
070919	11:11:51	11:15:41	228124	5.0.10.0	5_exp_RW	999	Rpleas_acq	CS_B	VKKV	BZZB	MQQM	YDDY	JXXJ	GWWG	ehrlich	fair	schön	spielen	retten	treu	eitel	faul	schlecht	strafen	rächen	tot	1	acq_USpleas_CSpleas2_RW	acq4567_RW	4	22	400	1	300	300	366	50	0	1	1	blank2r.bmp	0	1	+	0	1	blank2r.bmp	492	1	BZZB	492	1	blank2r.bmp	572	2	retten	866	1	!	1239	1	!	1266	0	0	0	0	0	0	0	0	0	0	0	0	0	0	0	0	0	0	0	0	0	0	0	0	0	0	0	0	0	0
070919	11:11:51	11:15:43	230363	5.0.10.0	5_exp_RW	999	Rpleas_acq	CS_B	VKKV	BZZB	MQQM	YDDY	JXXJ	GWWG	ehrlich	fair	schön	spielen	retten	treu	eitel	faul	schlecht	strafen	rächen	tot	1	acq_USpleas_CSpleas1_RW	acq4567_RW	4	23	400	1	300	300	443	50	0	1	1	blank2r.bmp	0	1	+	0	1	blank2r.bmp	492	1	VKKV	492	1	blank2r.bmp	572	1	ehrlich	866	1	!	1239	1	!	1346	0	0	0	0	0	0	0	0	0	0	0	0	0	0	0	0	0	0	0	0	0	0	0	0	0	0	0	0	0	0
070919	11:11:51	11:15:45	232575	5.0.10.0	5_exp_RW	999	Rpleas_acq	CS_B	VKKV	BZZB	MQQM	YDDY	JXXJ	GWWG	ehrlich	fair	schön	spielen	retten	treu	eitel	faul	schlecht	strafen	rächen	tot	1	acq_USpleas_CSpleas1_RW	acq4567_RW	4	24	400	1	300	300	413	50	0	1	1	blank2r.bmp	0	1	+	0	1	blank2r.bmp	492	1	VKKV	492	1	blank2r.bmp	572	2	fair	866	1	!	1239	1	!	1319	0	0	0	0	0	0	0	0	0	0	0	0	0	0	0	0	0	0	0	0	0	0	0	0	0	0	0	0	0	0
070919	11:11:51	11:15:47	234747	5.0.10.0	5_exp_RW	999	Rpleas_acq	CS_B	VKKV	BZZB	MQQM	YDDY	JXXJ	GWWG	ehrlich	fair	schön	spielen	retten	treu	eitel	faul	schlecht	strafen	rächen	tot	1	acq_USunple_CSunple1_RW	acq4567_RW	4	25	400	1	300	300	375	46	0	1	1	blank2r.bmp	0	1	+	0	1	blank2r.bmp	492	1	MQQM	492	1	blank2r.bmp	572	3	schlecht	869	1	!	1239	1	!	1279	0	0	0	0	0	0	0	0	0	0	0	0	0	0	0	0	0	0	0	0	0	0	0	0	0	0	0	0	0	0
070919	11:11:51	11:15:50	237000	5.0.10.0	5_exp_RW	999	Rpleas_acq	CS_B	VKKV	BZZB	MQQM	YDDY	JXXJ	GWWG	ehrlich	fair	schön	spielen	retten	treu	eitel	faul	schlecht	strafen	rächen	tot	1	acq_USpleas_CSpleas2_RW	acq4567_RW	4	26	400	1	300	300	458	50	0	1	1	blank2r.bmp	0	1	+	0	1	blank2r.bmp	493	1	BZZB	493	1	blank2r.bmp	572	3	treu	866	1	!	1239	1	!	1359	0	0	0	0	0	0	0	0	0	0	0	0	0	0	0	0	0	0	0	0	0	0	0	0	0	0	0	0	0	0
070919	11:11:51	11:15:52	239252	5.0.10.0	5_exp_RW	999	Rpleas_acq	CS_B	VKKV	BZZB	MQQM	YDDY	JXXJ	GWWG	ehrlich	fair	schön	spielen	retten	treu	eitel	faul	schlecht	strafen	rächen	tot	1	acq_USunple_CSunple1_RW	acq4567_RW	4	27	400	1	300	300	454	46	0	1	1	blank2r.bmp	0	1	+	0	1	blank2r.bmp	492	1	MQQM	492	1	blank2r.bmp	572	1	eitel	866	1	!	1239	1	!	1359	0	0	0	0	0	0	0	0	0	0	0	0	0	0	0	0	0	0	0	0	0	0	0	0	0	0	0	0	0	0
070919	11:11:51	11:15:54	241465	5.0.10.0	5_exp_RW	999	Rpleas_acq	CS_B	VKKV	BZZB	MQQM	YDDY	JXXJ	GWWG	ehrlich	fair	schön	spielen	retten	treu	eitel	faul	schlecht	strafen	rächen	tot	1	acq_USunple_CSunple2_RW	acq4567_RW	4	28	400	1	300	300	419	46	0	1	1	blank2r.bmp	0	1	+	0	1	blank2r.bmp	492	1	YDDY	492	1	blank2r.bmp	573	2	rächen	866	1	!	1239	1	!	1319	0	0	0	0	0	0	0	0	0	0	0	0	0	0	0	0	0	0	0	0	0	0	0	0	0	0	0	0	0	0
070919	11:11:51	11:15:56	243704	5.0.10.0	5_exp_RW	999	Rpleas_acq	CS_B	VKKV	BZZB	MQQM	YDDY	JXXJ	GWWG	ehrlich	fair	schön	spielen	retten	treu	eitel	faul	schlecht	strafen	rächen	tot	1	acq_USpleas_CSpleas2_RW	acq4567_RW	4	29	400	1	300	300	441	50	0	1	1	blank2r.bmp	0	1	+	0	1	blank2r.bmp	493	1	BZZB	493	1	blank2r.bmp	572	3	treu	866	1	!	1239	1	!	1346	0	0	0	0	0	0	0	0	0	0	0	0	0	0	0	0	0	0	0	0	0	0	0	0	0	0	0	0	0	0
070919	11:11:51	11:15:59	246063	5.0.10.0	5_exp_RW	999	Rpleas_acq	CS_B	VKKV	BZZB	MQQM	YDDY	JXXJ	GWWG	ehrlich	fair	schön	spielen	retten	treu	eitel	faul	schlecht	strafen	rächen	tot	1	acq_USunple_CSunple1_RW	acq4567_RW	4	30	400	0	300	300	597	46	0	1	1	blank2r.bmp	0	1	+	0	1	blank2r.bmp	492	1	MQQM	492	1	blank2r.bmp	574	2	faul	866	1	!	1239	1	!	-1	0	0	0	0	0	0	0	0	0	0	0	0	0	0	0	0	0	0	0	0	0	0	0	0	0	0	0	0	0	0
070919	11:11:51	11:16:01	248288	5.0.10.0	5_exp_RW	999	Rpleas_acq	CS_B	VKKV	BZZB	MQQM	YDDY	JXXJ	GWWG	ehrlich	fair	schön	spielen	retten	treu	eitel	faul	schlecht	strafen	rächen	tot	1	acq_USunple_CSunple2_RW	acq4567_RW	4	31	400	1	300	300	412	46	0	1	1	blank2r.bmp	0	1	+	0	1	blank2r.bmp	492	1	YDDY	492	1	blank2r.bmp	572	3	tot	868	1	!	1239	1	!	1319	0	0	0	0	0	0	0	0	0	0	0	0	0	0	0	0	0	0	0	0	0	0	0	0	0	0	0	0	0	0
070919	11:11:51	11:16:03	250461	5.0.10.0	5_exp_RW	999	Rpleas_acq	CS_B	VKKV	BZZB	MQQM	YDDY	JXXJ	GWWG	ehrlich	fair	schön	spielen	retten	treu	eitel	faul	schlecht	strafen	rächen	tot	1	acq_USpleas_CSpleas2_RW	acq4567_RW	4	32	400	1	300	300	372	50	0	1	1	blank2r.bmp	0	1	+	0	1	blank2r.bmp	492	1	BZZB	492	1	blank2r.bmp	572	2	retten	866	1	!	1239	1	!	1279	0	0	0	0	0	0	0	0	0	0	0	0	0	0	0	0	0	0	0	0	0	0	0	0	0	0	0	0	0	0
070919	11:11:51	11:16:05	252633	5.0.10.0	5_exp_RW	999	Rpleas_acq	CS_B	VKKV	BZZB	MQQM	YDDY	JXXJ	GWWG	ehrlich	fair	schön	spielen	retten	treu	eitel	faul	schlecht	strafen	rächen	tot	1	acq_USunple_CSunple2_RW	acq4567_RW	4	33	400	1	300	300	377	46	0	1	1	blank2r.bmp	0	1	+	0	1	blank2r.bmp	492	1	YDDY	492	1	blank2r.bmp	572	1	strafen	866	1	!	1239	1	!	1279	0	0	0	0	0	0	0	0	0	0	0	0	0	0	0	0	0	0	0	0	0	0	0	0	0	0	0	0	0	0
070919	11:11:51	11:16:08	254832	5.0.10.0	5_exp_RW	999	Rpleas_acq	CS_B	VKKV	BZZB	MQQM	YDDY	JXXJ	GWWG	ehrlich	fair	schön	spielen	retten	treu	eitel	faul	schlecht	strafen	rächen	tot	1	acq_USunple_CSunple1_RW	acq4567_RW	4	34	400	1	300	300	404	46	0	1	1	blank2r.bmp	0	1	+	0	1	blank2r.bmp	492	1	MQQM	492	1	blank2r.bmp	572	2	faul	866	1	!	1239	1	!	1306	0	0	0	0	0	0	0	0	0	0	0	0	0	0	0	0	0	0	0	0	0	0	0	0	0	0	0	0	0	0
070919	11:11:51	11:16:10	257085	5.0.10.0	5_exp_RW	999	Rpleas_acq	CS_B	VKKV	BZZB	MQQM	YDDY	JXXJ	GWWG	ehrlich	fair	schön	spielen	retten	treu	eitel	faul	schlecht	strafen	rächen	tot	1	acq_USunple_CSunple1_RW	acq4567_RW	4	35	400	1	300	300	452	46	0	1	1	blank2r.bmp	0	1	+	0	1	blank2r.bmp	492	1	MQQM	492	1	blank2r.bmp	572	1	eitel	866	1	!	1239	1	!	1359	0	0	0	0	0	0	0	0	0	0	0	0	0	0	0	0	0	0	0	0	0	0	0	0	0	0	0	0	0	0
070919	11:11:51	11:16:12	259270	5.0.10.0	5_exp_RW	999	Rpleas_acq	CS_B	VKKV	BZZB	MQQM	YDDY	JXXJ	GWWG	ehrlich	fair	schön	spielen	retten	treu	eitel	faul	schlecht	strafen	rächen	tot	1	acq_USpleas_CSpleas1_RW	acq4567_RW	4	36	400	1	300	300	393	50	0	1	1	blank2r.bmp	0	1	+	0	1	blank2r.bmp	493	1	VKKV	493	1	blank2r.bmp	572	3	schön	866	1	!	1239	1	!	1292	0	0	0	0	0	0	0	0	0	0	0	0	0	0	0	0	0	0	0	0	0	0	0	0	0	0	0	0	0	0
070919	11:11:51	11:16:14	261430	5.0.10.0	5_exp_RW	999	Rpleas_acq	CS_B	VKKV	BZZB	MQQM	YDDY	JXXJ	GWWG	ehrlich	fair	schön	spielen	retten	treu	eitel	faul	schlecht	strafen	rächen	tot	1	acq_USunple_CSunple2_RW	acq4567_RW	4	37	400	1	300	300	367	46	0	1	1	blank2r.bmp	0	1	+	0	1	blank2r.bmp	492	1	YDDY	492	1	blank2r.bmp	574	1	strafen	866	1	!	1239	1	!	1266	0	0	0	0	0	0	0	0	0	0	0	0	0	0	0	0	0	0	0	0	0	0	0	0	0	0	0	0	0	0
070919	11:11:51	11:16:16	263629	5.0.10.0	5_exp_RW	999	Rpleas_acq	CS_B	VKKV	BZZB	MQQM	YDDY	JXXJ	GWWG	ehrlich	fair	schön	spielen	retten	treu	eitel	faul	schlecht	strafen	rächen	tot	1	acq_USpleas_CSpleas1_RW	acq4567_RW	4	38	400	1	300	300	411	50	0	1	1	blank2r.bmp	0	1	+	0	1	blank2r.bmp	492	1	VKKV	492	1	blank2r.bmp	572	2	fair	866	1	!	1239	1	!	1306	0	0	0	0	0	0	0	0	0	0	0	0	0	0	0	0	0	0	0	0	0	0	0	0	0	0	0	0	0	0
070919	11:11:51	11:16:19	265854	5.0.10.0	5_exp_RW	999	Rpleas_acq	CS_B	VKKV	BZZB	MQQM	YDDY	JXXJ	GWWG	ehrlich	fair	schön	spielen	retten	treu	eitel	faul	schlecht	strafen	rächen	tot	1	acq_USpleas_CSpleas1_RW	acq4567_RW	4	39	400	1	300	300	433	50	0	1	1	blank2r.bmp	0	1	+	0	1	blank2r.bmp	492	1	VKKV	492	1	blank2r.bmp	572	1	ehrlich	866	1	!	1239	1	!	1332	0	0	0	0	0	0	0	0	0	0	0	0	0	0	0	0	0	0	0	0	0	0	0	0	0	0	0	0	0	0
070919	11:11:51	11:16:21	268000	5.0.10.0	5_exp_RW	999	Rpleas_acq	CS_B	VKKV	BZZB	MQQM	YDDY	JXXJ	GWWG	ehrlich	fair	schön	spielen	retten	treu	eitel	faul	schlecht	strafen	rächen	tot	1	acq_USunple_CSunple2_RW	acq4567_RW	4	40	400	1	300	300	349	46	0	1	1	blank2r.bmp	0	1	+	0	1	blank2r.bmp	492	1	YDDY	492	1	blank2r.bmp	572	3	tot	866	1	!	1239	1	!	1252	0	0	0	0	0	0	0	0	0	0	0	0	0	0	0	0	0	0	0	0	0	0	0	0	0	0	0	0	0	0
070919	11:11:51	11:16:23	270266	5.0.10.0	5_exp_RW	999	Rpleas_acq	CS_B	VKKV	BZZB	MQQM	YDDY	JXXJ	GWWG	ehrlich	fair	schön	spielen	retten	treu	eitel	faul	schlecht	strafen	rächen	tot	1	acq_USpleas_CSpleas2_RW	acq4567_RW	4	41	400	0	300	300	479	50	0	1	1	blank2r.bmp	0	1	+	0	1	blank2r.bmp	492	1	BZZB	492	1	blank2r.bmp	572	1	spielen	866	1	!	1239	1	!	-1	0	0	0	0	0	0	0	0	0	0	0	0	0	0	0	0	0	0	0	0	0	0	0	0	0	0	0	0	0	0
070919	11:11:51	11:16:25	272478	5.0.10.0	5_exp_RW	999	Rpleas_acq	CS_B	VKKV	BZZB	MQQM	YDDY	JXXJ	GWWG	ehrlich	fair	schön	spielen	retten	treu	eitel	faul	schlecht	strafen	rächen	tot	1	acq_USpleas_CSpleas1_RW	acq4567_RW	4	42	400	1	300	300	416	50	0	1	1	blank2r.bmp	0	1	+	0	1	blank2r.bmp	492	1	VKKV	492	1	blank2r.bmp	572	3	schön	866	1	!	1239	1	!	1319	0	0	0	0	0	0	0	0	0	0	0	0	0	0	0	0	0	0	0	0	0	0	0	0	0	0	0	0	0	0
070919	11:11:51	11:16:27	274677	5.0.10.0	5_exp_RW	999	Rpleas_acq	CS_B	VKKV	BZZB	MQQM	YDDY	JXXJ	GWWG	ehrlich	fair	schön	spielen	retten	treu	eitel	faul	schlecht	strafen	rächen	tot	1	acq_USpleas_CSpleas2_RW	acq4567_RW	4	43	400	1	300	300	407	50	0	1	1	blank2r.bmp	0	1	+	0	1	blank2r.bmp	492	1	BZZB	492	1	blank2r.bmp	572	2	retten	866	1	!	1239	1	!	1306	0	0	0	0	0	0	0	0	0	0	0	0	0	0	0	0	0	0	0	0	0	0	0	0	0	0	0	0	0	0
070919	11:11:51	11:16:30	276890	5.0.10.0	5_exp_RW	999	Rpleas_acq	CS_B	VKKV	BZZB	MQQM	YDDY	JXXJ	GWWG	ehrlich	fair	schön	spielen	retten	treu	eitel	faul	schlecht	strafen	rächen	tot	1	acq_USunple_CSunple2_RW	acq4567_RW	4	44	400	1	300	300	415	50	0	0	1	blank2r.bmp	0	1	+	0	1	blank2r.bmp	492	1	YDDY	492	1	blank2r.bmp	572	2	rächen	866	1	!	1239	1	!	1319	0	0	0	0	0	0	0	0	0	0	0	0	0	0	0	0	0	0	0	0	0	0	0	0	0	0	0	0	0	0
070919	11:11:51	11:16:32	279142	5.0.10.0	5_exp_RW	999	Rpleas_acq	CS_B	VKKV	BZZB	MQQM	YDDY	JXXJ	GWWG	ehrlich	fair	schön	spielen	retten	treu	eitel	faul	schlecht	strafen	rächen	tot	1	acq_USunple_CSunple1_RW	acq4567_RW	4	45	400	1	300	300	455	46	0	1	1	blank2r.bmp	0	1	+	0	1	blank2r.bmp	492	1	MQQM	492	1	blank2r.bmp	572	3	schlecht	866	1	!	1239	1	!	1359	0	0	0	0	0	0	0	0	0	0	0	0	0	0	0	0	0	0	0	0	0	0	0	0	0	0	0	0	0	0
070919	11:11:51	11:16:34	281301	5.0.10.0	5_exp_RW	999	Rpleas_acq	CS_B	VKKV	BZZB	MQQM	YDDY	JXXJ	GWWG	ehrlich	fair	schön	spielen	retten	treu	eitel	faul	schlecht	strafen	rächen	tot	1	acq_USunple_CSunple2_RW	acq4567_RW	4	46	400	1	300	300	366	46	0	1	1	blank2r.bmp	0	1	+	0	1	blank2r.bmp	492	1	YDDY	492	1	blank2r.bmp	572	1	strafen	869	1	!	1239	1	!	1266	0	0	0	0	0	0	0	0	0	0	0	0	0	0	0	0	0	0	0	0	0	0	0	0	0	0	0	0	0	0
070919	11:11:51	11:16:36	283527	5.0.10.0	5_exp_RW	999	Rpleas_acq	CS_B	VKKV	BZZB	MQQM	YDDY	JXXJ	GWWG	ehrlich	fair	schön	spielen	retten	treu	eitel	faul	schlecht	strafen	rächen	tot	1	acq_USpleas_CSpleas1_RW	acq4567_RW	4	47	400	1	300	300	438	50	0	1	1	blank2r.bmp	0	1	+	0	1	blank2r.bmp	492	1	VKKV	492	1	blank2r.bmp	572	3	schön	866	1	!	1239	1	!	1332	0	0	0	0	0	0	0	0	0	0	0	0	0	0	0	0	0	0	0	0	0	0	0	0	0	0	0	0	0	0
070919	11:11:51	11:16:38	285686	5.0.10.0	5_exp_RW	999	Rpleas_acq	CS_B	VKKV	BZZB	MQQM	YDDY	JXXJ	GWWG	ehrlich	fair	schön	spielen	retten	treu	eitel	faul	schlecht	strafen	rächen	tot	1	acq_USunple_CSunple1_RW	acq4567_RW	4	48	400	1	300	300	371	46	0	1	1	blank2r.bmp	0	1	+	0	1	blank2r.bmp	492	1	MQQM	492	1	blank2r.bmp	572	1	eitel	866	1	!	1239	1	!	1266	0	0	0	0	0	0	0	0	0	0	0	0	0	0	0	0	0	0	0	0	0	0	0	0	0	0	0	0	0	0
070919	11:11:51	11:16:41	287872	5.0.10.0	5_exp_RW	999	Rpleas_acq	CS_B	VKKV	BZZB	MQQM	YDDY	JXXJ	GWWG	ehrlich	fair	schön	spielen	retten	treu	eitel	faul	schlecht	strafen	rächen	tot	1	acq_USpleas_CSpleas2_RW	acq4567_RW	4	49	400	1	300	300	398	50	0	1	1	blank2r.bmp	0	1	+	0	1	blank2r.bmp	492	1	BZZB	492	1	blank2r.bmp	572	1	spielen	866	1	!	1239	1	!	1292	0	0	0	0	0	0	0	0	0	0	0	0	0	0	0	0	0	0	0	0	0	0	0	0	0	0	0	0	0	0
070919	11:11:51	11:16:43	290084	5.0.10.0	5_exp_RW	999	Rpleas_acq	CS_B	VKKV	BZZB	MQQM	YDDY	JXXJ	GWWG	ehrlich	fair	schön	spielen	retten	treu	eitel	faul	schlecht	strafen	rächen	tot	1	acq_USunple_CSunple2_RW	acq4567_RW	4	50	400	1	300	300	414	46	0	1	1	blank2r.bmp	0	1	+	0	1	blank2r.bmp	492	1	YDDY	492	1	blank2r.bmp	572	2	rächen	866	1	!	1239	1	!	1319	0	0	0	0	0	0	0	0	0	0	0	0	0	0	0	0	0	0	0	0	0	0	0	0	0	0	0	0	0	0
070919	11:11:51	11:16:45	292230	5.0.10.0	5_exp_RW	999	Rpleas_acq	CS_B	VKKV	BZZB	MQQM	YDDY	JXXJ	GWWG	ehrlich	fair	schön	spielen	retten	treu	eitel	faul	schlecht	strafen	rächen	tot	1	acq_USunple_CSunple2_RW	acq4567_RW	4	51	400	1	300	300	346	46	0	1	1	blank2r.bmp	0	1	+	0	1	blank2r.bmp	494	1	YDDY	494	1	blank2r.bmp	572	3	tot	866	1	!	1239	1	!	1252	0	0	0	0	0	0	0	0	0	0	0	0	0	0	0	0	0	0	0	0	0	0	0	0	0	0	0	0	0	0
070919	11:11:51	11:16:47	294482	5.0.10.0	5_exp_RW	999	Rpleas_acq	CS_B	VKKV	BZZB	MQQM	YDDY	JXXJ	GWWG	ehrlich	fair	schön	spielen	retten	treu	eitel	faul	schlecht	strafen	rächen	tot	1	acq_USpleas_CSpleas1_RW	acq4567_RW	4	52	400	1	300	300	462	50	0	1	1	blank2r.bmp	0	1	+	0	1	blank2r.bmp	492	1	VKKV	492	1	blank2r.bmp	572	2	fair	866	1	!	1239	1	!	1359	0	0	0	0	0	0	0	0	0	0	0	0	0	0	0	0	0	0	0	0	0	0	0	0	0	0	0	0	0	0
070919	11:11:51	11:16:49	296721	5.0.10.0	5_exp_RW	999	Rpleas_acq	CS_B	VKKV	BZZB	MQQM	YDDY	JXXJ	GWWG	ehrlich	fair	schön	spielen	retten	treu	eitel	faul	schlecht	strafen	rächen	tot	1	acq_USpleas_CSpleas1_RW	acq4567_RW	4	53	400	1	300	300	450	50	0	1	1	blank2r.bmp	0	1	+	0	1	blank2r.bmp	493	1	VKKV	493	1	blank2r.bmp	572	1	ehrlich	866	1	!	1239	1	!	1346	0	0	0	0	0	0	0	0	0	0	0	0	0	0	0	0	0	0	0	0	0	0	0	0	0	0	0	0	0	0
070919	11:11:51	11:16:52	298987	5.0.10.0	5_exp_RW	999	Rpleas_acq	CS_B	VKKV	BZZB	MQQM	YDDY	JXXJ	GWWG	ehrlich	fair	schön	spielen	retten	treu	eitel	faul	schlecht	strafen	rächen	tot	1	acq_USpleas_CSpleas1_RW	acq4567_RW	4	54	400	0	300	300	479	50	0	1	1	blank2r.bmp	0	1	+	0	1	blank2r.bmp	492	1	VKKV	492	1	blank2r.bmp	572	3	schön	866	1	!	1239	1	!	-1	0	0	0	0	0	0	0	0	0	0	0	0	0	0	0	0	0	0	0	0	0	0	0	0	0	0	0	0	0	0
070919	11:11:51	11:16:54	301066	5.0.10.0	5_exp_RW	999	Rpleas_acq	CS_B	VKKV	BZZB	MQQM	YDDY	JXXJ	GWWG	ehrlich	fair	schön	spielen	retten	treu	eitel	faul	schlecht	strafen	rächen	tot	1	acq_USunple_CSunple1_RW	acq4567_RW	4	55	400	0	300	300	309	46	0	1	1	blank2r.bmp	0	1	+	0	1	blank2r.bmp	492	1	MQQM	492	1	blank2r.bmp	572	3	schlecht	866	1	!	-1	1	!	-1	0	0	0	0	0	0	0	0	0	0	0	0	0	0	0	0	0	0	0	0	0	0	0	0	0	0	0	0	0	0
070919	11:11:51	11:16:56	303278	5.0.10.0	5_exp_RW	999	Rpleas_acq	CS_B	VKKV	BZZB	MQQM	YDDY	JXXJ	GWWG	ehrlich	fair	schön	spielen	retten	treu	eitel	faul	schlecht	strafen	rächen	tot	1	acq_USpleas_CSpleas2_RW	acq4567_RW	4	56	400	1	300	300	404	50	0	1	1	blank2r.bmp	0	1	+	0	1	blank2r.bmp	492	1	BZZB	492	1	blank2r.bmp	572	3	treu	866	1	!	1239	1	!	1306	0	0	0	0	0	0	0	0	0	0	0	0	0	0	0	0	0	0	0	0	0	0	0	0	0	0	0	0	0	0
070919	11:11:51	11:16:58	305438	5.0.10.0	5_exp_RW	999	Rpleas_acq	CS_B	VKKV	BZZB	MQQM	YDDY	JXXJ	GWWG	ehrlich	fair	schön	spielen	retten	treu	eitel	faul	schlecht	strafen	rächen	tot	1	acq_USunple_CSunple1_RW	acq4567_RW	4	57	400	1	300	300	360	46	0	1	1	blank2r.bmp	0	1	+	0	1	blank2r.bmp	492	1	MQQM	492	1	blank2r.bmp	572	2	faul	866	1	!	1239	1	!	1266	0	0	0	0	0	0	0	0	0	0	0	0	0	0	0	0	0	0	0	0	0	0	0	0	0	0	0	0	0	0
070919	11:11:51	11:17:00	307690	5.0.10.0	5_exp_RW	999	Rpleas_acq	CS_B	VKKV	BZZB	MQQM	YDDY	JXXJ	GWWG	ehrlich	fair	schön	spielen	retten	treu	eitel	faul	schlecht	strafen	rächen	tot	1	acq_USpleas_CSpleas2_RW	acq4567_RW	4	58	400	1	300	300	458	50	0	1	1	blank2r.bmp	0	1	+	0	1	blank2r.bmp	492	1	BZZB	492	1	blank2r.bmp	573	3	treu	866	1	!	1239	1	!	1359	0	0	0	0	0	0	0	0	0	0	0	0	0	0	0	0	0	0	0	0	0	0	0	0	0	0	0	0	0	0
070919	11:11:51	11:17:03	309942	5.0.10.0	5_exp_RW	999	Rpleas_acq	CS_B	VKKV	BZZB	MQQM	YDDY	JXXJ	GWWG	ehrlich	fair	schön	spielen	retten	treu	eitel	faul	schlecht	strafen	rächen	tot	1	acq_USunple_CSunple2_RW	acq4567_RW	4	59	400	1	300	300	460	46	0	1	1	blank2r.bmp	0	1	+	0	1	blank2r.bmp	492	1	YDDY	492	1	blank2r.bmp	572	2	rächen	866	1	!	1239	1	!	1359	0	0	0	0	0	0	0	0	0	0	0	0	0	0	0	0	0	0	0	0	0	0	0	0	0	0	0	0	0	0
070919	11:11:51	11:17:05	312168	5.0.10.0	5_exp_RW	999	Rpleas_acq	CS_B	VKKV	BZZB	MQQM	YDDY	JXXJ	GWWG	ehrlich	fair	schön	spielen	retten	treu	eitel	faul	schlecht	strafen	rächen	tot	1	acq_USunple_CSunple1_RW	acq4567_RW	4	60	400	1	300	300	429	46	0	1	1	blank2r.bmp	0	1	+	0	1	blank2r.bmp	492	1	MQQM	492	1	blank2r.bmp	572	1	eitel	866	1	!	1239	1	!	1332	0	0	0	0	0	0	0	0	0	0	0	0	0	0	0	0	0	0	0	0	0	0	0	0	0	0	0	0	0	0
070919	11:11:51	11:17:07	314367	5.0.10.0	5_exp_RW	999	Rpleas_acq	CS_B	VKKV	BZZB	MQQM	YDDY	JXXJ	GWWG	ehrlich	fair	schön	spielen	retten	treu	eitel	faul	schlecht	strafen	rächen	tot	1	acq_USpleas_CSpleas1_RW	acq4567_RW	4	61	400	1	300	300	407	50	0	1	1	blank2r.bmp	0	1	+	0	1	blank2r.bmp	492	1	VKKV	492	1	blank2r.bmp	579	1	ehrlich	866	1	!	1239	1	!	1306	0	0	0	0	0	0	0	0	0	0	0	0	0	0	0	0	0	0	0	0	0	0	0	0	0	0	0	0	0	0
070919	11:11:51	11:17:09	316620	5.0.10.0	5_exp_RW	999	Rpleas_acq	CS_B	VKKV	BZZB	MQQM	YDDY	JXXJ	GWWG	ehrlich	fair	schön	spielen	retten	treu	eitel	faul	schlecht	strafen	rächen	tot	1	acq_USunple_CSunple1_RW	acq4567_RW	4	62	400	1	300	300	461	46	0	1	1	blank2r.bmp	0	1	+	0	1	blank2r.bmp	492	1	MQQM	492	1	blank2r.bmp	572	2	faul	866	1	!	1239	1	!	1359	0	0	0	0	0	0	0	0	0	0	0	0	0	0	0	0	0	0	0	0	0	0	0	0	0	0	0	0	0	0
070919	11:11:51	11:17:12	318885	5.0.10.0	5_exp_RW	999	Rpleas_acq	CS_B	VKKV	BZZB	MQQM	YDDY	JXXJ	GWWG	ehrlich	fair	schön	spielen	retten	treu	eitel	faul	schlecht	strafen	rächen	tot	1	acq_USunple_CSunple1_RW	acq4567_RW	4	63	400	0	300	300	489	46	0	1	1	blank2r.bmp	0	1	+	0	1	blank2r.bmp	492	1	MQQM	492	1	blank2r.bmp	572	3	schlecht	866	1	!	1239	1	!	-1	0	0	0	0	0	0	0	0	0	0	0	0	0	0	0	0	0	0	0	0	0	0	0	0	0	0	0	0	0	0
070919	11:11:51	11:17:14	321111	5.0.10.0	5_exp_RW	999	Rpleas_acq	CS_B	VKKV	BZZB	MQQM	YDDY	JXXJ	GWWG	ehrlich	fair	schön	spielen	retten	treu	eitel	faul	schlecht	strafen	rächen	tot	1	acq_USunple_CSunple2_RW	acq4567_RW	4	64	400	1	300	300	429	46	0	1	1	blank2r.bmp	0	1	+	0	1	blank2r.bmp	492	1	YDDY	492	1	blank2r.bmp	573	3	tot	866	1	!	1239	1	!	1332	0	0	0	0	0	0	0	0	0	0	0	0	0	0	0	0	0	0	0	0	0	0	0	0	0	0	0	0	0	0
070919	11:11:51	11:17:16	323323	5.0.10.0	5_exp_RW	999	Rpleas_acq	CS_B	VKKV	BZZB	MQQM	YDDY	JXXJ	GWWG	ehrlich	fair	schön	spielen	retten	treu	eitel	faul	schlecht	strafen	rächen	tot	1	acq_USunple_CSunple2_RW	acq4567_RW	4	65	400	1	300	300	417	46	0	1	1	blank2r.bmp	0	1	+	0	1	blank2r.bmp	492	1	YDDY	492	1	blank2r.bmp	572	1	strafen	866	1	!	1239	1	!	1319	0	0	0	0	0	0	0	0	0	0	0	0	0	0	0	0	0	0	0	0	0	0	0	0	0	0	0	0	0	0
070919	11:11:51	11:17:18	325536	5.0.10.0	5_exp_RW	999	Rpleas_acq	CS_B	VKKV	BZZB	MQQM	YDDY	JXXJ	GWWG	ehrlich	fair	schön	spielen	retten	treu	eitel	faul	schlecht	strafen	rächen	tot	1	acq_USunple_CSunple1_RW	acq4567_RW	4	66	400	1	300	300	416	46	0	1	1	blank2r.bmp	0	1	+	0	1	blank2r.bmp	492	1	MQQM	492	1	blank2r.bmp	572	3	schlecht	866	1	!	1239	1	!	1319	0	0	0	0	0	0	0	0	0	0	0	0	0	0	0	0	0	0	0	0	0	0	0	0	0	0	0	0	0	0
070919	11:11:51	11:17:20	327735	5.0.10.0	5_exp_RW	999	Rpleas_acq	CS_B	VKKV	BZZB	MQQM	YDDY	JXXJ	GWWG	ehrlich	fair	schön	spielen	retten	treu	eitel	faul	schlecht	strafen	rächen	tot	1	acq_USunple_CSunple2_RW	acq4567_RW	4	67	400	1	300	300	406	46	0	1	1	blank2r.bmp	0	1	+	0	1	blank2r.bmp	492	1	YDDY	492	1	blank2r.bmp	572	3	tot	866	1	!	1239	1	!	1306	0	0	0	0	0	0	0	0	0	0	0	0	0	0	0	0	0	0	0	0	0	0	0	0	0	0	0	0	0	0
070919	11:11:51	11:17:23	329987	5.0.10.0	5_exp_RW	999	Rpleas_acq	CS_B	VKKV	BZZB	MQQM	YDDY	JXXJ	GWWG	ehrlich	fair	schön	spielen	retten	treu	eitel	faul	schlecht	strafen	rächen	tot	1	acq_USpleas_CSpleas1_RW	acq4567_RW	4	68	400	1	300	300	465	50	0	1	1	blank2r.bmp	0	1	+	0	1	blank2r.bmp	492	1	VKKV	492	1	blank2r.bmp	572	2	fair	866	1	!	1239	1	!	1359	0	0	0	0	0	0	0	0	0	0	0	0	0	0	0	0	0	0	0	0	0	0	0	0	0	0	0	0	0	0
070919	11:11:51	11:17:25	332239	5.0.10.0	5_exp_RW	999	Rpleas_acq	CS_B	VKKV	BZZB	MQQM	YDDY	JXXJ	GWWG	ehrlich	fair	schön	spielen	retten	treu	eitel	faul	schlecht	strafen	rächen	tot	1	acq_USunple_CSunple2_RW	acq4567_RW	4	69	400	1	300	300	461	46	0	1	1	blank2r.bmp	0	1	+	0	1	blank2r.bmp	492	1	YDDY	492	1	blank2r.bmp	572	1	strafen	866	1	!	1239	1	!	1359	0	0	0	0	0	0	0	0	0	0	0	0	0	0	0	0	0	0	0	0	0	0	0	0	0	0	0	0	0	0
070919	11:11:51	11:17:27	334479	5.0.10.0	5_exp_RW	999	Rpleas_acq	CS_B	VKKV	BZZB	MQQM	YDDY	JXXJ	GWWG	ehrlich	fair	schön	spielen	retten	treu	eitel	faul	schlecht	strafen	rächen	tot	1	acq_USpleas_CSpleas2_RW	acq4567_RW	4	70	400	1	300	300	450	46	0	0	1	blank2r.bmp	0	1	+	0	1	blank2r.bmp	492	1	BZZB	492	1	blank2r.bmp	572	2	retten	866	1	!	1239	1	!	1346	0	0	0	0	0	0	0	0	0	0	0	0	0	0	0	0	0	0	0	0	0	0	0	0	0	0	0	0	0	0
070919	11:11:51	11:17:29	336678	5.0.10.0	5_exp_RW	999	Rpleas_acq	CS_B	VKKV	BZZB	MQQM	YDDY	JXXJ	GWWG	ehrlich	fair	schön	spielen	retten	treu	eitel	faul	schlecht	strafen	rächen	tot	1	acq_USpleas_CSpleas2_RW	acq4567_RW	4	71	400	1	300	300	409	50	0	1	1	blank2r.bmp	0	1	+	0	1	blank2r.bmp	492	1	BZZB	492	1	blank2r.bmp	572	1	spielen	866	1	!	1239	1	!	1306	0	0	0	0	0	0	0	0	0	0	0	0	0	0	0	0	0	0	0	0	0	0	0	0	0	0	0	0	0	0
070919	11:11:51	11:17:32	338930	5.0.10.0	5_exp_RW	999	Rpleas_acq	CS_B	VKKV	BZZB	MQQM	YDDY	JXXJ	GWWG	ehrlich	fair	schön	spielen	retten	treu	eitel	faul	schlecht	strafen	rächen	tot	1	acq_USunple_CSunple1_RW	acq4567_RW	4	72	400	1	300	300	461	46	0	1	1	blank2r.bmp	1	1	+	1	1	blank2r.bmp	492	1	MQQM	492	1	blank2r.bmp	572	1	eitel	866	1	!	1239	1	!	1359	0	0	0	0	0	0	0	0	0	0	0	0	0	0	0	0	0	0	0	0	0	0	0	0	0	0	0	0	0	0
070919	11:11:51	11:17:34	341156	5.0.10.0	5_exp_RW	999	Rpleas_acq	CS_B	VKKV	BZZB	MQQM	YDDY	JXXJ	GWWG	ehrlich	fair	schön	spielen	retten	treu	eitel	faul	schlecht	strafen	rächen	tot	1	acq_USpleas_CSpleas2_RW	acq4567_RW	4	73	400	1	300	300	426	50	0	1	1	blank2r.bmp	0	1	+	0	1	blank2r.bmp	492	1	BZZB	492	1	blank2r.bmp	572	2	retten	866	1	!	1239	1	!	1332	0	0	0	0	0	0	0	0	0	0	0	0	0	0	0	0	0	0	0	0	0	0	0	0	0	0	0	0	0	0
070919	11:11:51	11:17:36	343328	5.0.10.0	5_exp_RW	999	Rpleas_acq	CS_B	VKKV	BZZB	MQQM	YDDY	JXXJ	GWWG	ehrlich	fair	schön	spielen	retten	treu	eitel	faul	schlecht	strafen	rächen	tot	1	acq_USpleas_CSpleas1_RW	acq4567_RW	4	74	400	1	300	300	378	46	0	0	1	blank2r.bmp	0	1	+	0	1	blank2r.bmp	492	1	VKKV	492	1	blank2r.bmp	572	3	schön	866	1	!	1239	1	!	1279	0	0	0	0	0	0	0	0	0	0	0	0	0	0	0	0	0	0	0	0	0	0	0	0	0	0	0	0	0	0
070919	11:11:51	11:17:38	345554	5.0.10.0	5_exp_RW	999	Rpleas_acq	CS_B	VKKV	BZZB	MQQM	YDDY	JXXJ	GWWG	ehrlich	fair	schön	spielen	retten	treu	eitel	faul	schlecht	strafen	rächen	tot	1	acq_USunple_CSunple1_RW	acq4567_RW	4	75	400	1	300	300	428	46	0	1	1	blank2r.bmp	0	1	+	0	1	blank2r.bmp	492	1	MQQM	492	1	blank2r.bmp	572	2	faul	866	1	!	1239	1	!	1332	0	0	0	0	0	0	0	0	0	0	0	0	0	0	0	0	0	0	0	0	0	0	0	0	0	0	0	0	0	0
070919	11:11:51	11:17:41	347820	5.0.10.0	5_exp_RW	999	Rpleas_acq	CS_B	VKKV	BZZB	MQQM	YDDY	JXXJ	GWWG	ehrlich	fair	schön	spielen	retten	treu	eitel	faul	schlecht	strafen	rächen	tot	1	acq_USpleas_CSpleas1_RW	acq4567_RW	4	76	400	1	300	300	465	46	0	0	1	blank2r.bmp	0	1	+	0	1	blank2r.bmp	492	1	VKKV	492	1	blank2r.bmp	572	2	fair	866	1	!	1239	1	!	1372	0	0	0	0	0	0	0	0	0	0	0	0	0	0	0	0	0	0	0	0	0	0	0	0	0	0	0	0	0	0
070919	11:11:51	11:17:43	350045	5.0.10.0	5_exp_RW	999	Rpleas_acq	CS_B	VKKV	BZZB	MQQM	YDDY	JXXJ	GWWG	ehrlich	fair	schön	spielen	retten	treu	eitel	faul	schlecht	strafen	rächen	tot	1	acq_USunple_CSunple2_RW	acq4567_RW	4	77	400	1	300	300	436	46	0	1	1	blank2r.bmp	0	1	+	0	1	blank2r.bmp	492	1	YDDY	492	1	blank2r.bmp	572	2	rächen	866	1	!	1239	1	!	1332	0	0	0	0	0	0	0	0	0	0	0	0	0	0	0	0	0	0	0	0	0	0	0	0	0	0	0	0	0	0
070919	11:11:51	11:17:45	352271	5.0.10.0	5_exp_RW	999	Rpleas_acq	CS_B	VKKV	BZZB	MQQM	YDDY	JXXJ	GWWG	ehrlich	fair	schön	spielen	retten	treu	eitel	faul	schlecht	strafen	rächen	tot	1	acq_USpleas_CSpleas1_RW	acq4567_RW	4	78	400	1	300	300	437	50	0	1	1	blank2r.bmp	0	1	+	0	1	blank2r.bmp	492	1	VKKV	492	1	blank2r.bmp	572	1	ehrlich	866	1	!	1239	1	!	1332	0	0	0	0	0	0	0	0	0	0	0	0	0	0	0	0	0	0	0	0	0	0	0	0	0	0	0	0	0	0
070919	11:11:51	11:17:47	354457	5.0.10.0	5_exp_RW	999	Rpleas_acq	CS_B	VKKV	BZZB	MQQM	YDDY	JXXJ	GWWG	ehrlich	fair	schön	spielen	retten	treu	eitel	faul	schlecht	strafen	rächen	tot	1	acq_USpleas_CSpleas2_RW	acq4567_RW	4	79	400	1	300	300	389	46	0	0	1	blank2r.bmp	0	1	+	0	1	blank2r.bmp	492	1	BZZB	492	1	blank2r.bmp	572	3	treu	867	1	!	1239	1	!	1292	0	0	0	0	0	0	0	0	0	0	0	0	0	0	0	0	0	0	0	0	0	0	0	0	0	0	0	0	0	0
070919	11:11:51	11:17:49	356683	5.0.10.0	5_exp_RW	999	Rpleas_acq	CS_B	VKKV	BZZB	MQQM	YDDY	JXXJ	GWWG	ehrlich	fair	schön	spielen	retten	treu	eitel	faul	schlecht	strafen	rächen	tot	1	acq_USpleas_CSpleas2_RW	acq4567_RW	4	80	400	1	300	300	429	50	0	1	1	blank2r.bmp	0	1	+	0	1	blank2r.bmp	492	1	BZZB	492	1	blank2r.bmp	572	1	spielen	866	1	!	1239	1	!	1332	0	0	0	0	0	0	0	0	0	0	0	0	0	0	0	0	0	0	0	0	0	0	0	0	0	0	0	0	0	0
070919	11:11:51	11:17:55	362014	5.0.10.0	5_exp_RW	999	Rpleas_acq	CS_B	VKKV	BZZB	MQQM	YDDY	JXXJ	GWWG	ehrlich	fair	schön	spielen	retten	treu	eitel	faul	schlecht	strafen	rächen	tot	1	acq_USpleas_CSpleas1_RW	acq4567_RW	5	1	400	1	300	300	406	50	0	1	1	blank2r.bmp	0	1	+	0	1	blank2r.bmp	492	1	VKKV	492	1	blank2r.bmp	572	3	schön	866	1	!	1239	1	!	1306	0	0	0	0	0	0	0	0	0	0	0	0	0	0	0	0	0	0	0	0	0	0	0	0	0	0	0	0	0	0
070919	11:11:51	11:17:57	364213	5.0.10.0	5_exp_RW	999	Rpleas_acq	CS_B	VKKV	BZZB	MQQM	YDDY	JXXJ	GWWG	ehrlich	fair	schön	spielen	retten	treu	eitel	faul	schlecht	strafen	rächen	tot	1	acq_USpleas_CSpleas2_RW	acq4567_RW	5	2	400	1	300	300	410	50	0	1	1	blank2r.bmp	0	1	+	0	1	blank2r.bmp	492	1	BZZB	492	1	blank2r.bmp	574	3	treu	866	1	!	1239	1	!	1306	0	0	0	0	0	0	0	0	0	0	0	0	0	0	0	0	0	0	0	0	0	0	0	0	0	0	0	0	0	0
070919	11:11:51	11:17:59	366225	5.0.10.0	5_exp_RW	999	Rpleas_acq	CS_B	VKKV	BZZB	MQQM	YDDY	JXXJ	GWWG	ehrlich	fair	schön	spielen	retten	treu	eitel	faul	schlecht	strafen	rächen	tot	1	acq_USunple_CSunple2_RW	acq4567_RW	5	3	400	0	300	300	245	50	0	0	1	blank2r.bmp	0	1	+	0	1	blank2r.bmp	492	1	YDDY	492	1	blank2r.bmp	572	3	tot	866	1	!	-1	1	!	-1	0	0	0	0	0	0	0	0	0	0	0	0	0	0	0	0	0	0	0	0	0	0	0	0	0	0	0	0	0	0
070919	11:11:51	11:18:01	368438	5.0.10.0	5_exp_RW	999	Rpleas_acq	CS_B	VKKV	BZZB	MQQM	YDDY	JXXJ	GWWG	ehrlich	fair	schön	spielen	retten	treu	eitel	faul	schlecht	strafen	rächen	tot	1	acq_USpleas_CSpleas2_RW	acq4567_RW	5	4	400	1	300	300	410	46	0	0	1	blank2r.bmp	0	1	+	0	1	blank2r.bmp	492	1	BZZB	492	1	blank2r.bmp	572	2	retten	866	1	!	1239	1	!	1306	0	0	0	0	0	0	0	0	0	0	0	0	0	0	0	0	0	0	0	0	0	0	0	0	0	0	0	0	0	0
070919	11:11:51	11:18:03	370623	5.0.10.0	5_exp_RW	999	Rpleas_acq	CS_B	VKKV	BZZB	MQQM	YDDY	JXXJ	GWWG	ehrlich	fair	schön	spielen	retten	treu	eitel	faul	schlecht	strafen	rächen	tot	1	acq_USunple_CSunple1_RW	acq4567_RW	5	5	400	1	300	300	389	46	0	1	1	blank2r.bmp	0	1	+	0	1	blank2r.bmp	492	1	MQQM	492	1	blank2r.bmp	572	2	faul	866	1	!	1239	1	!	1292	0	0	0	0	0	0	0	0	0	0	0	0	0	0	0	0	0	0	0	0	0	0	0	0	0	0	0	0	0	0
070919	11:11:51	11:18:06	372796	5.0.10.0	5_exp_RW	999	Rpleas_acq	CS_B	VKKV	BZZB	MQQM	YDDY	JXXJ	GWWG	ehrlich	fair	schön	spielen	retten	treu	eitel	faul	schlecht	strafen	rächen	tot	1	acq_USpleas_CSpleas1_RW	acq4567_RW	5	6	400	1	300	300	375	46	0	0	1	blank2r.bmp	0	1	+	0	1	blank2r.bmp	492	1	VKKV	492	1	blank2r.bmp	572	2	fair	866	1	!	1239	1	!	1279	0	0	0	0	0	0	0	0	0	0	0	0	0	0	0	0	0	0	0	0	0	0	0	0	0	0	0	0	0	0
070919	11:11:51	11:18:08	375035	5.0.10.0	5_exp_RW	999	Rpleas_acq	CS_B	VKKV	BZZB	MQQM	YDDY	JXXJ	GWWG	ehrlich	fair	schön	spielen	retten	treu	eitel	faul	schlecht	strafen	rächen	tot	1	acq_USunple_CSunple1_RW	acq4567_RW	5	7	400	1	300	300	441	46	0	1	1	blank2r.bmp	0	1	+	0	1	blank2r.bmp	492	1	MQQM	492	1	blank2r.bmp	572	3	schlecht	866	1	!	1239	1	!	1346	0	0	0	0	0	0	0	0	0	0	0	0	0	0	0	0	0	0	0	0	0	0	0	0	0	0	0	0	0	0
070919	11:11:51	11:18:10	377301	5.0.10.0	5_exp_RW	999	Rpleas_acq	CS_B	VKKV	BZZB	MQQM	YDDY	JXXJ	GWWG	ehrlich	fair	schön	spielen	retten	treu	eitel	faul	schlecht	strafen	rächen	tot	1	acq_USunple_CSunple2_RW	acq4567_RW	5	8	400	0	300	300	483	46	0	1	1	blank2r.bmp	0	1	+	0	1	blank2r.bmp	493	1	YDDY	493	1	blank2r.bmp	572	2	rächen	866	1	!	1239	1	!	-1	0	0	0	0	0	0	0	0	0	0	0	0	0	0	0	0	0	0	0	0	0	0	0	0	0	0	0	0	0	0
070919	11:11:51	11:18:12	379460	5.0.10.0	5_exp_RW	999	Rpleas_acq	CS_B	VKKV	BZZB	MQQM	YDDY	JXXJ	GWWG	ehrlich	fair	schön	spielen	retten	treu	eitel	faul	schlecht	strafen	rächen	tot	1	acq_USpleas_CSpleas2_RW	acq4567_RW	5	9	400	1	300	300	359	50	0	1	1	blank2r.bmp	0	1	+	0	1	blank2r.bmp	493	1	BZZB	493	1	blank2r.bmp	572	1	spielen	866	1	!	1239	1	!	1266	0	0	0	0	0	0	0	0	0	0	0	0	0	0	0	0	0	0	0	0	0	0	0	0	0	0	0	0	0	0
070919	11:11:51	11:18:14	381645	5.0.10.0	5_exp_RW	999	Rpleas_acq	CS_B	VKKV	BZZB	MQQM	YDDY	JXXJ	GWWG	ehrlich	fair	schön	spielen	retten	treu	eitel	faul	schlecht	strafen	rächen	tot	1	acq_USpleas_CSpleas1_RW	acq4567_RW	5	10	400	1	300	300	395	50	0	1	1	blank2r.bmp	0	1	+	0	1	blank2r.bmp	492	1	VKKV	492	1	blank2r.bmp	572	1	ehrlich	866	1	!	1239	1	!	1292	0	0	0	0	0	0	0	0	0	0	0	0	0	0	0	0	0	0	0	0	0	0	0	0	0	0	0	0	0	0
070919	11:11:51	11:18:17	383924	5.0.10.0	5_exp_RW	999	Rpleas_acq	CS_B	VKKV	BZZB	MQQM	YDDY	JXXJ	GWWG	ehrlich	fair	schön	spielen	retten	treu	eitel	faul	schlecht	strafen	rächen	tot	1	acq_USunple_CSunple1_RW	acq4567_RW	5	11	400	0	300	300	515	46	0	1	1	blank2r.bmp	0	1	+	0	1	blank2r.bmp	492	1	MQQM	492	1	blank2r.bmp	572	1	eitel	866	1	!	1239	1	!	-1	0	0	0	0	0	0	0	0	0	0	0	0	0	0	0	0	0	0	0	0	0	0	0	0	0	0	0	0	0	0
070919	11:11:51	11:18:19	386257	5.0.10.0	5_exp_RW	999	Rpleas_acq	CS_B	VKKV	BZZB	MQQM	YDDY	JXXJ	GWWG	ehrlich	fair	schön	spielen	retten	treu	eitel	faul	schlecht	strafen	rächen	tot	1	acq_USpleas_CSpleas2_RW	acq4567_RW	5	12	400	0	300	300	541	50	0	1	1	blank2r.bmp	0	1	+	0	1	blank2r.bmp	492	1	BZZB	492	1	blank2r.bmp	572	2	retten	866	1	!	1239	1	!	-1	0	0	0	0	0	0	0	0	0	0	0	0	0	0	0	0	0	0	0	0	0	0	0	0	0	0	0	0	0	0
070919	11:11:51	11:18:21	388442	5.0.10.0	5_exp_RW	999	Rpleas_acq	CS_B	VKKV	BZZB	MQQM	YDDY	JXXJ	GWWG	ehrlich	fair	schön	spielen	retten	treu	eitel	faul	schlecht	strafen	rächen	tot	1	acq_USpleas_CSpleas2_RW	acq4567_RW	5	13	400	1	300	300	397	50	0	1	1	blank2r.bmp	0	1	+	0	1	blank2r.bmp	492	1	BZZB	492	1	blank2r.bmp	572	1	spielen	866	1	!	1239	1	!	1292	0	0	0	0	0	0	0	0	0	0	0	0	0	0	0	0	0	0	0	0	0	0	0	0	0	0	0	0	0	0
070919	11:11:51	11:18:23	390655	5.0.10.0	5_exp_RW	999	Rpleas_acq	CS_B	VKKV	BZZB	MQQM	YDDY	JXXJ	GWWG	ehrlich	fair	schön	spielen	retten	treu	eitel	faul	schlecht	strafen	rächen	tot	1	acq_USunple_CSunple1_RW	acq4567_RW	5	14	400	1	300	300	415	46	0	1	1	blank2r.bmp	0	1	+	0	1	blank2r.bmp	492	1	MQQM	492	1	blank2r.bmp	572	2	faul	866	1	!	1239	1	!	1319	0	0	0	0	0	0	0	0	0	0	0	0	0	0	0	0	0	0	0	0	0	0	0	0	0	0	0	0	0	0
070919	11:11:51	11:18:26	392881	5.0.10.0	5_exp_RW	999	Rpleas_acq	CS_B	VKKV	BZZB	MQQM	YDDY	JXXJ	GWWG	ehrlich	fair	schön	spielen	retten	treu	eitel	faul	schlecht	strafen	rächen	tot	1	acq_USpleas_CSpleas1_RW	acq4567_RW	5	15	400	1	300	300	426	50	0	1	1	blank2r.bmp	0	1	+	0	1	blank2r.bmp	492	1	VKKV	492	1	blank2r.bmp	572	2	fair	866	1	!	1239	1	!	1332	0	0	0	0	0	0	0	0	0	0	0	0	0	0	0	0	0	0	0	0	0	0	0	0	0	0	0	0	0	0
070919	11:11:51	11:18:28	395066	5.0.10.0	5_exp_RW	999	Rpleas_acq	CS_B	VKKV	BZZB	MQQM	YDDY	JXXJ	GWWG	ehrlich	fair	schön	spielen	retten	treu	eitel	faul	schlecht	strafen	rächen	tot	1	acq_USunple_CSunple1_RW	acq4567_RW	5	16	400	1	300	300	389	50	0	0	1	blank2r.bmp	0	1	+	0	1	blank2r.bmp	493	1	MQQM	493	1	blank2r.bmp	572	1	eitel	866	1	!	1239	1	!	1292	0	0	0	0	0	0	0	0	0	0	0	0	0	0	0	0	0	0	0	0	0	0	0	0	0	0	0	0	0	0
070919	11:11:51	11:18:30	397305	5.0.10.0	5_exp_RW	999	Rpleas_acq	CS_B	VKKV	BZZB	MQQM	YDDY	JXXJ	GWWG	ehrlich	fair	schön	spielen	retten	treu	eitel	faul	schlecht	strafen	rächen	tot	1	acq_USunple_CSunple2_RW	acq4567_RW	5	17	400	1	300	300	451	46	0	1	1	blank2r.bmp	0	1	+	0	1	blank2r.bmp	492	1	YDDY	492	1	blank2r.bmp	572	1	strafen	866	1	!	1239	1	!	1346	0	0	0	0	0	0	0	0	0	0	0	0	0	0	0	0	0	0	0	0	0	0	0	0	0	0	0	0	0	0
070919	11:11:51	11:18:32	399544	5.0.10.0	5_exp_RW	999	Rpleas_acq	CS_B	VKKV	BZZB	MQQM	YDDY	JXXJ	GWWG	ehrlich	fair	schön	spielen	retten	treu	eitel	faul	schlecht	strafen	rächen	tot	1	acq_USunple_CSunple2_RW	acq4567_RW	5	18	400	1	300	300	440	46	0	1	1	blank2r.bmp	0	1	+	0	1	blank2r.bmp	492	1	YDDY	492	1	blank2r.bmp	572	2	rächen	866	1	!	1239	1	!	1346	0	0	0	0	0	0	0	0	0	0	0	0	0	0	0	0	0	0	0	0	0	0	0	0	0	0	0	0	0	0
070919	11:11:51	11:18:34	401717	5.0.10.0	5_exp_RW	999	Rpleas_acq	CS_B	VKKV	BZZB	MQQM	YDDY	JXXJ	GWWG	ehrlich	fair	schön	spielen	retten	treu	eitel	faul	schlecht	strafen	rächen	tot	1	acq_USunple_CSunple2_RW	acq4567_RW	5	19	400	1	300	300	380	46	0	1	1	blank2r.bmp	0	1	+	0	1	blank2r.bmp	492	1	YDDY	492	1	blank2r.bmp	572	3	tot	866	1	!	1239	1	!	1279	0	0	0	0	0	0	0	0	0	0	0	0	0	0	0	0	0	0	0	0	0	0	0	0	0	0	0	0	0	0
070919	11:11:51	11:18:37	403956	5.0.10.0	5_exp_RW	999	Rpleas_acq	CS_B	VKKV	BZZB	MQQM	YDDY	JXXJ	GWWG	ehrlich	fair	schön	spielen	retten	treu	eitel	faul	schlecht	strafen	rächen	tot	1	acq_USpleas_CSpleas1_RW	acq4567_RW	5	20	400	1	300	300	441	50	0	1	1	blank2r.bmp	0	1	+	0	1	blank2r.bmp	492	1	VKKV	492	1	blank2r.bmp	572	1	ehrlich	866	1	!	1239	1	!	1346	0	0	0	0	0	0	0	0	0	0	0	0	0	0	0	0	0	0	0	0	0	0	0	0	0	0	0	0	0	0
070919	11:11:51	11:18:39	406222	5.0.10.0	5_exp_RW	999	Rpleas_acq	CS_B	VKKV	BZZB	MQQM	YDDY	JXXJ	GWWG	ehrlich	fair	schön	spielen	retten	treu	eitel	faul	schlecht	strafen	rächen	tot	1	acq_USpleas_CSpleas1_RW	acq4567_RW	5	21	400	1	300	300	464	50	0	1	1	blank2r.bmp	0	1	+	0	1	blank2r.bmp	492	1	VKKV	492	1	blank2r.bmp	572	3	schön	866	1	!	1239	1	!	1372	0	0	0	0	0	0	0	0	0	0	0	0	0	0	0	0	0	0	0	0	0	0	0	0	0	0	0	0	0	0
070919	11:11:51	11:18:41	408447	5.0.10.0	5_exp_RW	999	Rpleas_acq	CS_B	VKKV	BZZB	MQQM	YDDY	JXXJ	GWWG	ehrlich	fair	schön	spielen	retten	treu	eitel	faul	schlecht	strafen	rächen	tot	1	acq_USpleas_CSpleas2_RW	acq4567_RW	5	22	400	1	300	300	431	50	0	1	1	blank2r.bmp	0	1	+	0	1	blank2r.bmp	492	1	BZZB	492	1	blank2r.bmp	572	3	treu	866	1	!	1239	1	!	1332	0	0	0	0	0	0	0	0	0	0	0	0	0	0	0	0	0	0	0	0	0	0	0	0	0	0	0	0	0	0
070919	11:11:51	11:18:43	410593	5.0.10.0	5_exp_RW	999	Rpleas_acq	CS_B	VKKV	BZZB	MQQM	YDDY	JXXJ	GWWG	ehrlich	fair	schön	spielen	retten	treu	eitel	faul	schlecht	strafen	rächen	tot	1	acq_USpleas_CSpleas1_RW	acq4567_RW	5	23	400	1	300	300	354	50	0	1	1	blank2r.bmp	0	1	+	0	1	blank2r.bmp	492	1	VKKV	492	1	blank2r.bmp	572	3	schön	866	1	!	1239	1	!	1252	0	0	0	0	0	0	0	0	0	0	0	0	0	0	0	0	0	0	0	0	0	0	0	0	0	0	0	0	0	0
070919	11:11:51	11:18:46	412832	5.0.10.0	5_exp_RW	999	Rpleas_acq	CS_B	VKKV	BZZB	MQQM	YDDY	JXXJ	GWWG	ehrlich	fair	schön	spielen	retten	treu	eitel	faul	schlecht	strafen	rächen	tot	1	acq_USunple_CSunple2_RW	acq4567_RW	5	24	400	1	300	300	445	46	0	1	1	blank2r.bmp	1	1	+	1	1	blank2r.bmp	492	1	YDDY	492	1	blank2r.bmp	572	1	strafen	868	1	!	1239	1	!	1346	0	0	0	0	0	0	0	0	0	0	0	0	0	0	0	0	0	0	0	0	0	0	0	0	0	0	0	0	0	0
070919	11:11:51	11:18:48	415031	5.0.10.0	5_exp_RW	999	Rpleas_acq	CS_B	VKKV	BZZB	MQQM	YDDY	JXXJ	GWWG	ehrlich	fair	schön	spielen	retten	treu	eitel	faul	schlecht	strafen	rächen	tot	1	acq_USpleas_CSpleas1_RW	acq4567_RW	5	25	400	1	300	300	409	50	0	1	1	blank2r.bmp	0	1	+	0	1	blank2r.bmp	492	1	VKKV	492	1	blank2r.bmp	572	1	ehrlich	866	1	!	1239	1	!	1306	0	0	0	0	0	0	0	0	0	0	0	0	0	0	0	0	0	0	0	0	0	0	0	0	0	0	0	0	0	0
070919	11:11:51	11:18:50	417244	5.0.10.0	5_exp_RW	999	Rpleas_acq	CS_B	VKKV	BZZB	MQQM	YDDY	JXXJ	GWWG	ehrlich	fair	schön	spielen	retten	treu	eitel	faul	schlecht	strafen	rächen	tot	1	acq_USunple_CSunple1_RW	acq4567_RW	5	26	400	1	300	300	415	46	0	1	1	blank2r.bmp	0	1	+	0	1	blank2r.bmp	492	1	MQQM	492	1	blank2r.bmp	572	3	schlecht	866	1	!	1239	1	!	1319	0	0	0	0	0	0	0	0	0	0	0	0	0	0	0	0	0	0	0	0	0	0	0	0	0	0	0	0	0	0
070919	11:11:51	11:18:52	419429	5.0.10.0	5_exp_RW	999	Rpleas_acq	CS_B	VKKV	BZZB	MQQM	YDDY	JXXJ	GWWG	ehrlich	fair	schön	spielen	retten	treu	eitel	faul	schlecht	strafen	rächen	tot	1	acq_USpleas_CSpleas2_RW	acq4567_RW	5	27	400	1	300	300	387	50	0	1	1	blank2r.bmp	0	1	+	0	1	blank2r.bmp	492	1	BZZB	492	1	blank2r.bmp	572	1	spielen	866	1	!	1239	1	!	1292	0	0	0	0	0	0	0	0	0	0	0	0	0	0	0	0	0	0	0	0	0	0	0	0	0	0	0	0	0	0
070919	11:11:51	11:18:54	421655	5.0.10.0	5_exp_RW	999	Rpleas_acq	CS_B	VKKV	BZZB	MQQM	YDDY	JXXJ	GWWG	ehrlich	fair	schön	spielen	retten	treu	eitel	faul	schlecht	strafen	rächen	tot	1	acq_USunple_CSunple2_RW	acq4567_RW	5	28	400	1	300	300	429	46	0	1	1	blank2r.bmp	0	1	+	0	1	blank2r.bmp	492	1	YDDY	492	1	blank2r.bmp	572	2	rächen	866	1	!	1239	1	!	1332	0	0	0	0	0	0	0	0	0	0	0	0	0	0	0	0	0	0	0	0	0	0	0	0	0	0	0	0	0	0
070919	11:11:51	11:18:57	423921	5.0.10.0	5_exp_RW	999	Rpleas_acq	CS_B	VKKV	BZZB	MQQM	YDDY	JXXJ	GWWG	ehrlich	fair	schön	spielen	retten	treu	eitel	faul	schlecht	strafen	rächen	tot	1	acq_USunple_CSunple1_RW	acq4567_RW	5	29	400	0	300	300	492	46	0	1	1	blank2r.bmp	0	1	+	0	1	blank2r.bmp	492	1	MQQM	492	1	blank2r.bmp	572	3	schlecht	866	1	!	1239	1	!	-1	0	0	0	0	0	0	0	0	0	0	0	0	0	0	0	0	0	0	0	0	0	0	0	0	0	0	0	0	0	0
070919	11:11:51	11:18:59	426160	5.0.10.0	5_exp_RW	999	Rpleas_acq	CS_B	VKKV	BZZB	MQQM	YDDY	JXXJ	GWWG	ehrlich	fair	schön	spielen	retten	treu	eitel	faul	schlecht	strafen	rächen	tot	1	acq_USunple_CSunple1_RW	acq4567_RW	5	30	400	1	300	300	437	46	0	1	1	blank2r.bmp	0	1	+	0	1	blank2r.bmp	494	1	MQQM	494	1	blank2r.bmp	572	2	faul	866	1	!	1239	1	!	1332	0	0	0	0	0	0	0	0	0	0	0	0	0	0	0	0	0	0	0	0	0	0	0	0	0	0	0	0	0	0
070919	11:11:51	11:19:01	428386	5.0.10.0	5_exp_RW	999	Rpleas_acq	CS_B	VKKV	BZZB	MQQM	YDDY	JXXJ	GWWG	ehrlich	fair	schön	spielen	retten	treu	eitel	faul	schlecht	strafen	rächen	tot	1	acq_USunple_CSunple1_RW	acq4567_RW	5	31	400	1	300	300	430	50	0	0	1	blank2r.bmp	0	1	+	0	1	blank2r.bmp	492	1	MQQM	492	1	blank2r.bmp	572	1	eitel	866	1	!	1239	1	!	1332	0	0	0	0	0	0	0	0	0	0	0	0	0	0	0	0	0	0	0	0	0	0	0	0	0	0	0	0	0	0
070919	11:11:51	11:19:03	430598	5.0.10.0	5_exp_RW	999	Rpleas_acq	CS_B	VKKV	BZZB	MQQM	YDDY	JXXJ	GWWG	ehrlich	fair	schön	spielen	retten	treu	eitel	faul	schlecht	strafen	rächen	tot	1	acq_USpleas_CSpleas1_RW	acq4567_RW	5	32	400	1	300	300	421	50	0	1	1	blank2r.bmp	0	1	+	0	1	blank2r.bmp	492	1	VKKV	492	1	blank2r.bmp	573	2	fair	866	1	!	1239	1	!	1319	0	0	0	0	0	0	0	0	0	0	0	0	0	0	0	0	0	0	0	0	0	0	0	0	0	0	0	0	0	0
070919	11:11:51	11:19:06	432850	5.0.10.0	5_exp_RW	999	Rpleas_acq	CS_B	VKKV	BZZB	MQQM	YDDY	JXXJ	GWWG	ehrlich	fair	schön	spielen	retten	treu	eitel	faul	schlecht	strafen	rächen	tot	1	acq_USpleas_CSpleas1_RW	acq4567_RW	5	33	400	1	300	300	460	50	0	1	1	blank2r.bmp	0	1	+	0	1	blank2r.bmp	492	1	VKKV	492	1	blank2r.bmp	572	1	ehrlich	866	1	!	1239	1	!	1359	0	0	0	0	0	0	0	0	0	0	0	0	0	0	0	0	0	0	0	0	0	0	0	0	0	0	0	0	0	0
070919	11:11:51	11:19:08	435023	5.0.10.0	5_exp_RW	999	Rpleas_acq	CS_B	VKKV	BZZB	MQQM	YDDY	JXXJ	GWWG	ehrlich	fair	schön	spielen	retten	treu	eitel	faul	schlecht	strafen	rächen	tot	1	acq_USunple_CSunple2_RW	acq4567_RW	5	34	400	1	300	300	383	46	0	1	1	blank2r.bmp	0	1	+	0	1	blank2r.bmp	492	1	YDDY	492	1	blank2r.bmp	573	3	tot	866	1	!	1239	1	!	1279	0	0	0	0	0	0	0	0	0	0	0	0	0	0	0	0	0	0	0	0	0	0	0	0	0	0	0	0	0	0
070919	11:11:51	11:19:10	437275	5.0.10.0	5_exp_RW	999	Rpleas_acq	CS_B	VKKV	BZZB	MQQM	YDDY	JXXJ	GWWG	ehrlich	fair	schön	spielen	retten	treu	eitel	faul	schlecht	strafen	rächen	tot	1	acq_USpleas_CSpleas2_RW	acq4567_RW	5	35	400	1	300	300	460	46	0	0	1	blank2r.bmp	0	1	+	0	1	blank2r.bmp	492	1	BZZB	492	1	blank2r.bmp	572	3	treu	866	1	!	1239	1	!	1359	0	0	0	0	0	0	0	0	0	0	0	0	0	0	0	0	0	0	0	0	0	0	0	0	0	0	0	0	0	0
070919	11:11:51	11:19:12	439554	5.0.10.0	5_exp_RW	999	Rpleas_acq	CS_B	VKKV	BZZB	MQQM	YDDY	JXXJ	GWWG	ehrlich	fair	schön	spielen	retten	treu	eitel	faul	schlecht	strafen	rächen	tot	1	acq_USpleas_CSpleas2_RW	acq4567_RW	5	36	400	0	300	300	498	50	0	1	1	blank2r.bmp	0	1	+	0	1	blank2r.bmp	492	1	BZZB	492	1	blank2r.bmp	572	2	retten	866	1	!	1239	1	!	-1	0	0	0	0	0	0	0	0	0	0	0	0	0	0	0	0	0	0	0	0	0	0	0	0	0	0	0	0	0	0
070919	11:11:51	11:19:15	441767	5.0.10.0	5_exp_RW	999	Rpleas_acq	CS_B	VKKV	BZZB	MQQM	YDDY	JXXJ	GWWG	ehrlich	fair	schön	spielen	retten	treu	eitel	faul	schlecht	strafen	rächen	tot	1	acq_USunple_CSunple1_RW	acq4567_RW	5	37	400	1	300	300	415	46	0	1	1	blank2r.bmp	0	1	+	0	1	blank2r.bmp	492	1	MQQM	492	1	blank2r.bmp	572	2	faul	866	1	!	1239	1	!	1319	0	0	0	0	0	0	0	0	0	0	0	0	0	0	0	0	0	0	0	0	0	0	0	0	0	0	0	0	0	0
070919	11:11:51	11:19:17	443966	5.0.10.0	5_exp_RW	999	Rpleas_acq	CS_B	VKKV	BZZB	MQQM	YDDY	JXXJ	GWWG	ehrlich	fair	schön	spielen	retten	treu	eitel	faul	schlecht	strafen	rächen	tot	1	acq_USunple_CSunple2_RW	acq4567_RW	5	38	400	1	300	300	406	46	0	1	1	blank2r.bmp	0	1	+	0	1	blank2r.bmp	492	1	YDDY	492	1	blank2r.bmp	573	1	strafen	866	1	!	1239	1	!	1306	0	0	0	0	0	0	0	0	0	0	0	0	0	0	0	0	0	0	0	0	0	0	0	0	0	0	0	0	0	0
070919	11:11:51	11:19:19	446165	5.0.10.0	5_exp_RW	999	Rpleas_acq	CS_B	VKKV	BZZB	MQQM	YDDY	JXXJ	GWWG	ehrlich	fair	schön	spielen	retten	treu	eitel	faul	schlecht	strafen	rächen	tot	1	acq_USunple_CSunple2_RW	acq4567_RW	5	39	400	1	300	300	408	46	0	1	1	blank2r.bmp	0	1	+	0	1	blank2r.bmp	492	1	YDDY	492	1	blank2r.bmp	572	2	rächen	866	1	!	1239	1	!	1306	0	0	0	0	0	0	0	0	0	0	0	0	0	0	0	0	0	0	0	0	0	0	0	0	0	0	0	0	0	0
070919	11:11:51	11:19:21	448337	5.0.10.0	5_exp_RW	999	Rpleas_acq	CS_B	VKKV	BZZB	MQQM	YDDY	JXXJ	GWWG	ehrlich	fair	schön	spielen	retten	treu	eitel	faul	schlecht	strafen	rächen	tot	1	acq_USpleas_CSpleas2_RW	acq4567_RW	5	40	400	1	300	300	370	46	0	0	1	blank2r.bmp	0	1	+	0	1	blank2r.bmp	492	1	BZZB	492	1	blank2r.bmp	572	2	retten	866	1	!	1239	1	!	1279	0	0	0	0	0	0	0	0	0	0	0	0	0	0	0	0	0	0	0	0	0	0	0	0	0	0	0	0	0	0
070919	11:11:51	11:19:23	450536	5.0.10.0	5_exp_RW	999	Rpleas_acq	CS_B	VKKV	BZZB	MQQM	YDDY	JXXJ	GWWG	ehrlich	fair	schön	spielen	retten	treu	eitel	faul	schlecht	strafen	rächen	tot	1	acq_USpleas_CSpleas1_RW	acq4567_RW	5	41	400	1	300	300	407	50	0	1	1	blank2r.bmp	0	1	+	0	1	blank2r.bmp	492	1	VKKV	492	1	blank2r.bmp	572	3	schön	866	1	!	1239	1	!	1306	0	0	0	0	0	0	0	0	0	0	0	0	0	0	0	0	0	0	0	0	0	0	0	0	0	0	0	0	0	0
070919	11:11:51	11:19:25	452735	5.0.10.0	5_exp_RW	999	Rpleas_acq	CS_B	VKKV	BZZB	MQQM	YDDY	JXXJ	GWWG	ehrlich	fair	schön	spielen	retten	treu	eitel	faul	schlecht	strafen	rächen	tot	1	acq_USunple_CSunple2_RW	acq4567_RW	5	42	400	1	300	300	403	46	0	1	1	blank2r.bmp	0	1	+	0	1	blank2r.bmp	492	1	YDDY	492	1	blank2r.bmp	572	1	strafen	866	1	!	1239	1	!	1306	0	0	0	0	0	0	0	0	0	0	0	0	0	0	0	0	0	0	0	0	0	0	0	0	0	0	0	0	0	0
070919	11:11:51	11:19:28	454988	5.0.10.0	5_exp_RW	999	Rpleas_acq	CS_B	VKKV	BZZB	MQQM	YDDY	JXXJ	GWWG	ehrlich	fair	schön	spielen	retten	treu	eitel	faul	schlecht	strafen	rächen	tot	1	acq_USpleas_CSpleas1_RW	acq4567_RW	5	43	400	1	300	300	452	46	0	0	1	blank2r.bmp	0	1	+	0	1	blank2r.bmp	492	1	VKKV	492	1	blank2r.bmp	572	2	fair	866	1	!	1239	1	!	1359	0	0	0	0	0	0	0	0	0	0	0	0	0	0	0	0	0	0	0	0	0	0	0	0	0	0	0	0	0	0
070919	11:11:51	11:19:30	457240	5.0.10.0	5_exp_RW	999	Rpleas_acq	CS_B	VKKV	BZZB	MQQM	YDDY	JXXJ	GWWG	ehrlich	fair	schön	spielen	retten	treu	eitel	faul	schlecht	strafen	rächen	tot	1	acq_USpleas_CSpleas2_RW	acq4567_RW	5	44	400	1	300	300	458	50	0	1	1	blank2r.bmp	0	1	+	0	1	blank2r.bmp	492	1	BZZB	492	1	blank2r.bmp	574	1	spielen	866	1	!	1239	1	!	1359	0	0	0	0	0	0	0	0	0	0	0	0	0	0	0	0	0	0	0	0	0	0	0	0	0	0	0	0	0	0
070919	11:11:51	11:19:32	459479	5.0.10.0	5_exp_RW	999	Rpleas_acq	CS_B	VKKV	BZZB	MQQM	YDDY	JXXJ	GWWG	ehrlich	fair	schön	spielen	retten	treu	eitel	faul	schlecht	strafen	rächen	tot	1	acq_USpleas_CSpleas2_RW	acq4567_RW	5	45	400	1	300	300	447	50	0	1	1	blank2r.bmp	0	1	+	0	1	blank2r.bmp	492	1	BZZB	492	1	blank2r.bmp	572	3	treu	866	1	!	1239	1	!	1346	0	0	0	0	0	0	0	0	0	0	0	0	0	0	0	0	0	0	0	0	0	0	0	0	0	0	0	0	0	0
070919	11:11:51	11:19:34	461718	5.0.10.0	5_exp_RW	999	Rpleas_acq	CS_B	VKKV	BZZB	MQQM	YDDY	JXXJ	GWWG	ehrlich	fair	schön	spielen	retten	treu	eitel	faul	schlecht	strafen	rächen	tot	1	acq_USpleas_CSpleas2_RW	acq4567_RW	5	46	400	1	300	300	439	50	0	1	1	blank2r.bmp	0	1	+	0	1	blank2r.bmp	492	1	BZZB	492	1	blank2r.bmp	572	2	retten	866	1	!	1239	1	!	1346	0	0	0	0	0	0	0	0	0	0	0	0	0	0	0	0	0	0	0	0	0	0	0	0	0	0	0	0	0	0
070919	11:11:51	11:19:37	463970	5.0.10.0	5_exp_RW	999	Rpleas_acq	CS_B	VKKV	BZZB	MQQM	YDDY	JXXJ	GWWG	ehrlich	fair	schön	spielen	retten	treu	eitel	faul	schlecht	strafen	rächen	tot	1	acq_USunple_CSunple1_RW	acq4567_RW	5	47	400	1	300	300	455	46	0	1	1	blank2r.bmp	0	1	+	0	1	blank2r.bmp	492	1	MQQM	492	1	blank2r.bmp	573	1	eitel	866	1	!	1239	1	!	1359	0	0	0	0	0	0	0	0	0	0	0	0	0	0	0	0	0	0	0	0	0	0	0	0	0	0	0	0	0	0
070919	11:11:51	11:19:39	466209	5.0.10.0	5_exp_RW	999	Rpleas_acq	CS_B	VKKV	BZZB	MQQM	YDDY	JXXJ	GWWG	ehrlich	fair	schön	spielen	retten	treu	eitel	faul	schlecht	strafen	rächen	tot	1	acq_USunple_CSunple2_RW	acq4567_RW	5	48	400	1	300	300	441	46	0	1	1	blank2r.bmp	0	1	+	0	1	blank2r.bmp	492	1	YDDY	492	1	blank2r.bmp	572	3	tot	866	1	!	1239	1	!	1346	0	0	0	0	0	0	0	0	0	0	0	0	0	0	0	0	0	0	0	0	0	0	0	0	0	0	0	0	0	0
070919	11:11:51	11:19:41	468422	5.0.10.0	5_exp_RW	999	Rpleas_acq	CS_B	VKKV	BZZB	MQQM	YDDY	JXXJ	GWWG	ehrlich	fair	schön	spielen	retten	treu	eitel	faul	schlecht	strafen	rächen	tot	1	acq_USunple_CSunple1_RW	acq4567_RW	5	49	400	1	300	300	417	46	0	1	1	blank2r.bmp	0	1	+	0	1	blank2r.bmp	492	1	MQQM	492	1	blank2r.bmp	572	3	schlecht	866	1	!	1239	1	!	1319	0	0	0	0	0	0	0	0	0	0	0	0	0	0	0	0	0	0	0	0	0	0	0	0	0	0	0	0	0	0
070919	11:11:51	11:19:43	470701	5.0.10.0	5_exp_RW	999	Rpleas_acq	CS_B	VKKV	BZZB	MQQM	YDDY	JXXJ	GWWG	ehrlich	fair	schön	spielen	retten	treu	eitel	faul	schlecht	strafen	rächen	tot	1	acq_USpleas_CSpleas2_RW	acq4567_RW	5	50	400	0	300	300	506	50	0	1	1	blank2r.bmp	0	1	+	0	1	blank2r.bmp	492	1	BZZB	492	1	blank2r.bmp	572	3	treu	866	1	!	1239	1	!	-1	0	0	0	0	0	0	0	0	0	0	0	0	0	0	0	0	0	0	0	0	0	0	0	0	0	0	0	0	0	0
070919	11:11:51	11:19:46	472913	5.0.10.0	5_exp_RW	999	Rpleas_acq	CS_B	VKKV	BZZB	MQQM	YDDY	JXXJ	GWWG	ehrlich	fair	schön	spielen	retten	treu	eitel	faul	schlecht	strafen	rächen	tot	1	acq_USpleas_CSpleas1_RW	acq4567_RW	5	51	400	1	300	300	405	50	0	1	1	blank2r.bmp	0	1	+	0	1	blank2r.bmp	492	1	VKKV	492	1	blank2r.bmp	572	1	ehrlich	866	1	!	1239	1	!	1306	0	0	0	0	0	0	0	0	0	0	0	0	0	0	0	0	0	0	0	0	0	0	0	0	0	0	0	0	0	0
070919	11:11:51	11:19:48	475126	5.0.10.0	5_exp_RW	999	Rpleas_acq	CS_B	VKKV	BZZB	MQQM	YDDY	JXXJ	GWWG	ehrlich	fair	schön	spielen	retten	treu	eitel	faul	schlecht	strafen	rächen	tot	1	acq_USunple_CSunple2_RW	acq4567_RW	5	52	400	1	300	300	420	46	0	1	1	blank2r.bmp	0	1	+	0	1	blank2r.bmp	492	1	YDDY	492	1	blank2r.bmp	572	2	rächen	866	1	!	1239	1	!	1319	0	0	0	0	0	0	0	0	0	0	0	0	0	0	0	0	0	0	0	0	0	0	0	0	0	0	0	0	0	0
070919	11:11:51	11:19:50	477378	5.0.10.0	5_exp_RW	999	Rpleas_acq	CS_B	VKKV	BZZB	MQQM	YDDY	JXXJ	GWWG	ehrlich	fair	schön	spielen	retten	treu	eitel	faul	schlecht	strafen	rächen	tot	1	acq_USunple_CSunple2_RW	acq4567_RW	5	53	400	1	300	300	462	46	0	1	1	blank2r.bmp	0	1	+	0	1	blank2r.bmp	492	1	YDDY	492	1	blank2r.bmp	572	1	strafen	868	1	!	1239	1	!	1359	0	0	0	0	0	0	0	0	0	0	0	0	0	0	0	0	0	0	0	0	0	0	0	0	0	0	0	0	0	0
070919	11:11:51	11:19:53	479790	5.0.10.0	5_exp_RW	999	Rpleas_acq	CS_B	VKKV	BZZB	MQQM	YDDY	JXXJ	GWWG	ehrlich	fair	schön	spielen	retten	treu	eitel	faul	schlecht	strafen	rächen	tot	1	acq_USunple_CSunple1_RW	acq4567_RW	5	54	400	0	300	300	623	46	0	1	1	blank2r.bmp	0	1	+	0	1	blank2r.bmp	492	1	MQQM	492	1	blank2r.bmp	572	1	eitel	866	1	!	1239	1	!	-1	0	0	0	0	0	0	0	0	0	0	0	0	0	0	0	0	0	0	0	0	0	0	0	0	0	0	0	0	0	0
070919	11:11:51	11:19:55	482043	5.0.10.0	5_exp_RW	999	Rpleas_acq	CS_B	VKKV	BZZB	MQQM	YDDY	JXXJ	GWWG	ehrlich	fair	schön	spielen	retten	treu	eitel	faul	schlecht	strafen	rächen	tot	1	acq_USpleas_CSpleas1_RW	acq4567_RW	5	55	400	1	300	300	455	50	0	1	1	blank2r.bmp	0	1	+	0	1	blank2r.bmp	492	1	VKKV	492	1	blank2r.bmp	572	2	fair	866	1	!	1239	1	!	1359	0	0	0	0	0	0	0	0	0	0	0	0	0	0	0	0	0	0	0	0	0	0	0	0	0	0	0	0	0	0
070919	11:11:51	11:19:57	484215	5.0.10.0	5_exp_RW	999	Rpleas_acq	CS_B	VKKV	BZZB	MQQM	YDDY	JXXJ	GWWG	ehrlich	fair	schön	spielen	retten	treu	eitel	faul	schlecht	strafen	rächen	tot	1	acq_USunple_CSunple1_RW	acq4567_RW	5	56	400	1	300	300	380	46	0	1	1	blank2r.bmp	0	1	+	0	1	blank2r.bmp	493	1	MQQM	493	1	blank2r.bmp	572	3	schlecht	866	1	!	1239	1	!	1279	0	0	0	0	0	0	0	0	0	0	0	0	0	0	0	0	0	0	0	0	0	0	0	0	0	0	0	0	0	0
070919	11:11:51	11:19:59	486321	5.0.10.0	5_exp_RW	999	Rpleas_acq	CS_B	VKKV	BZZB	MQQM	YDDY	JXXJ	GWWG	ehrlich	fair	schön	spielen	retten	treu	eitel	faul	schlecht	strafen	rächen	tot	1	acq_USpleas_CSpleas1_RW	acq4567_RW	5	57	400	0	300	300	328	50	0	1	1	blank2r.bmp	0	1	+	0	1	blank2r.bmp	492	1	VKKV	492	1	blank2r.bmp	572	3	schön	866	1	!	-1	1	!	-1	0	0	0	0	0	0	0	0	0	0	0	0	0	0	0	0	0	0	0	0	0	0	0	0	0	0	0	0	0	0
070919	11:11:51	11:20:01	488467	5.0.10.0	5_exp_RW	999	Rpleas_acq	CS_B	VKKV	BZZB	MQQM	YDDY	JXXJ	GWWG	ehrlich	fair	schön	spielen	retten	treu	eitel	faul	schlecht	strafen	rächen	tot	1	acq_USunple_CSunple2_RW	acq4567_RW	5	58	400	1	300	300	346	46	0	1	1	blank2r.bmp	0	1	+	0	1	blank2r.bmp	492	1	YDDY	492	1	blank2r.bmp	572	3	tot	866	1	!	1239	1	!	1252	0	0	0	0	0	0	0	0	0	0	0	0	0	0	0	0	0	0	0	0	0	0	0	0	0	0	0	0	0	0
070919	11:11:51	11:20:03	490666	5.0.10.0	5_exp_RW	999	Rpleas_acq	CS_B	VKKV	BZZB	MQQM	YDDY	JXXJ	GWWG	ehrlich	fair	schön	spielen	retten	treu	eitel	faul	schlecht	strafen	rächen	tot	1	acq_USunple_CSunple1_RW	acq4567_RW	5	59	400	1	300	300	405	46	0	1	1	blank2r.bmp	0	1	+	0	1	blank2r.bmp	494	1	MQQM	494	1	blank2r.bmp	572	2	faul	866	1	!	1239	1	!	1306	0	0	0	0	0	0	0	0	0	0	0	0	0	0	0	0	0	0	0	0	0	0	0	0	0	0	0	0	0	0
070919	11:11:51	11:20:06	492905	5.0.10.0	5_exp_RW	999	Rpleas_acq	CS_B	VKKV	BZZB	MQQM	YDDY	JXXJ	GWWG	ehrlich	fair	schön	spielen	retten	treu	eitel	faul	schlecht	strafen	rächen	tot	1	acq_USpleas_CSpleas2_RW	acq4567_RW	5	60	400	1	300	300	449	50	0	1	1	blank2r.bmp	0	1	+	0	1	blank2r.bmp	492	1	BZZB	492	1	blank2r.bmp	572	1	spielen	866	1	!	1239	1	!	1346	0	0	0	0	0	0	0	0	0	0	0	0	0	0	0	0	0	0	0	0	0	0	0	0	0	0	0	0	0	0
070919	11:11:51	11:20:08	495117	5.0.10.0	5_exp_RW	999	Rpleas_acq	CS_B	VKKV	BZZB	MQQM	YDDY	JXXJ	GWWG	ehrlich	fair	schön	spielen	retten	treu	eitel	faul	schlecht	strafen	rächen	tot	1	acq_USunple_CSunple2_RW	acq4567_RW	5	61	400	1	300	300	416	46	0	1	1	blank2r.bmp	0	1	+	0	1	blank2r.bmp	492	1	YDDY	492	1	blank2r.bmp	572	3	tot	866	1	!	1239	1	!	1319	0	0	0	0	0	0	0	0	0	0	0	0	0	0	0	0	0	0	0	0	0	0	0	0	0	0	0	0	0	0
070919	11:11:51	11:20:10	497330	5.0.10.0	5_exp_RW	999	Rpleas_acq	CS_B	VKKV	BZZB	MQQM	YDDY	JXXJ	GWWG	ehrlich	fair	schön	spielen	retten	treu	eitel	faul	schlecht	strafen	rächen	tot	1	acq_USpleas_CSpleas1_RW	acq4567_RW	5	62	400	1	300	300	415	50	0	1	1	blank2r.bmp	0	1	+	0	1	blank2r.bmp	492	1	VKKV	492	1	blank2r.bmp	572	3	schön	866	1	!	1239	1	!	1319	0	0	0	0	0	0	0	0	0	0	0	0	0	0	0	0	0	0	0	0	0	0	0	0	0	0	0	0	0	0
070919	11:11:51	11:20:12	499502	5.0.10.0	5_exp_RW	999	Rpleas_acq	CS_B	VKKV	BZZB	MQQM	YDDY	JXXJ	GWWG	ehrlich	fair	schön	spielen	retten	treu	eitel	faul	schlecht	strafen	rächen	tot	1	acq_USunple_CSunple2_RW	acq4567_RW	5	63	400	1	300	300	376	46	0	1	1	blank2r.bmp	0	1	+	0	1	blank2r.bmp	492	1	YDDY	492	1	blank2r.bmp	572	2	rächen	866	1	!	1239	1	!	1279	0	0	0	0	0	0	0	0	0	0	0	0	0	0	0	0	0	0	0	0	0	0	0	0	0	0	0	0	0	0
070919	11:11:51	11:20:14	501701	5.0.10.0	5_exp_RW	999	Rpleas_acq	CS_B	VKKV	BZZB	MQQM	YDDY	JXXJ	GWWG	ehrlich	fair	schön	spielen	retten	treu	eitel	faul	schlecht	strafen	rächen	tot	1	acq_USunple_CSunple1_RW	acq4567_RW	5	64	400	1	300	300	410	46	0	1	1	blank2r.bmp	0	1	+	0	1	blank2r.bmp	492	1	MQQM	492	1	blank2r.bmp	572	1	eitel	866	1	!	1239	1	!	1306	0	0	0	0	0	0	0	0	0	0	0	0	0	0	0	0	0	0	0	0	0	0	0	0	0	0	0	0	0	0
070919	11:11:51	11:20:17	503980	5.0.10.0	5_exp_RW	999	Rpleas_acq	CS_B	VKKV	BZZB	MQQM	YDDY	JXXJ	GWWG	ehrlich	fair	schön	spielen	retten	treu	eitel	faul	schlecht	strafen	rächen	tot	1	acq_USunple_CSunple1_RW	acq4567_RW	5	65	400	0	300	300	516	46	0	1	1	blank2r.bmp	0	1	+	0	1	blank2r.bmp	493	1	MQQM	493	1	blank2r.bmp	572	3	schlecht	866	1	!	1239	1	!	-1	0	0	0	0	0	0	0	0	0	0	0	0	0	0	0	0	0	0	0	0	0	0	0	0	0	0	0	0	0	0
070919	11:11:51	11:20:19	506179	5.0.10.0	5_exp_RW	999	Rpleas_acq	CS_B	VKKV	BZZB	MQQM	YDDY	JXXJ	GWWG	ehrlich	fair	schön	spielen	retten	treu	eitel	faul	schlecht	strafen	rächen	tot	1	acq_USpleas_CSpleas1_RW	acq4567_RW	5	66	400	1	300	300	390	46	0	0	1	blank2r.bmp	0	1	+	0	1	blank2r.bmp	492	1	VKKV	492	1	blank2r.bmp	572	2	fair	866	1	!	1239	1	!	1292	0	0	0	0	0	0	0	0	0	0	0	0	0	0	0	0	0	0	0	0	0	0	0	0	0	0	0	0	0	0
070919	11:11:51	11:20:21	508418	5.0.10.0	5_exp_RW	999	Rpleas_acq	CS_B	VKKV	BZZB	MQQM	YDDY	JXXJ	GWWG	ehrlich	fair	schön	spielen	retten	treu	eitel	faul	schlecht	strafen	rächen	tot	1	acq_USpleas_CSpleas1_RW	acq4567_RW	5	67	400	1	300	300	446	46	0	0	1	blank2r.bmp	0	1	+	0	1	blank2r.bmp	492	1	VKKV	492	1	blank2r.bmp	572	1	ehrlich	866	1	!	1239	1	!	1346	0	0	0	0	0	0	0	0	0	0	0	0	0	0	0	0	0	0	0	0	0	0	0	0	0	0	0	0	0	0
070919	11:11:51	11:20:23	510604	5.0.10.0	5_exp_RW	999	Rpleas_acq	CS_B	VKKV	BZZB	MQQM	YDDY	JXXJ	GWWG	ehrlich	fair	schön	spielen	retten	treu	eitel	faul	schlecht	strafen	rächen	tot	1	acq_USpleas_CSpleas2_RW	acq4567_RW	5	68	400	1	300	300	392	50	0	1	1	blank2r.bmp	0	1	+	0	1	blank2r.bmp	492	1	BZZB	492	1	blank2r.bmp	576	3	treu	866	1	!	1239	1	!	1292	0	0	0	0	0	0	0	0	0	0	0	0	0	0	0	0	0	0	0	0	0	0	0	0	0	0	0	0	0	0
070919	11:11:51	11:20:25	512750	5.0.10.0	5_exp_RW	999	Rpleas_acq	CS_B	VKKV	BZZB	MQQM	YDDY	JXXJ	GWWG	ehrlich	fair	schön	spielen	retten	treu	eitel	faul	schlecht	strafen	rächen	tot	1	acq_USpleas_CSpleas1_RW	acq4567_RW	5	69	400	1	300	300	352	46	0	0	1	blank2r.bmp	0	1	+	0	1	blank2r.bmp	492	1	VKKV	492	1	blank2r.bmp	572	2	fair	866	1	!	1239	1	!	1252	0	0	0	0	0	0	0	0	0	0	0	0	0	0	0	0	0	0	0	0	0	0	0	0	0	0	0	0	0	0
070919	11:11:51	11:20:28	514949	5.0.10.0	5_exp_RW	999	Rpleas_acq	CS_B	VKKV	BZZB	MQQM	YDDY	JXXJ	GWWG	ehrlich	fair	schön	spielen	retten	treu	eitel	faul	schlecht	strafen	rächen	tot	1	acq_USpleas_CSpleas2_RW	acq4567_RW	5	70	400	1	300	300	400	50	0	1	1	blank2r.bmp	0	1	+	0	1	blank2r.bmp	492	1	BZZB	492	1	blank2r.bmp	572	2	retten	866	1	!	1239	1	!	1306	0	0	0	0	0	0	0	0	0	0	0	0	0	0	0	0	0	0	0	0	0	0	0	0	0	0	0	0	0	0
070919	11:11:51	11:20:30	517161	5.0.10.0	5_exp_RW	999	Rpleas_acq	CS_B	VKKV	BZZB	MQQM	YDDY	JXXJ	GWWG	ehrlich	fair	schön	spielen	retten	treu	eitel	faul	schlecht	strafen	rächen	tot	1	acq_USpleas_CSpleas1_RW	acq4567_RW	5	71	400	1	300	300	423	50	0	1	1	blank2r.bmp	0	1	+	0	1	blank2r.bmp	492	1	VKKV	492	1	blank2r.bmp	572	3	schön	866	1	!	1239	1	!	1319	0	0	0	0	0	0	0	0	0	0	0	0	0	0	0	0	0	0	0	0	0	0	0	0	0	0	0	0	0	0
070919	11:11:51	11:20:32	519347	5.0.10.0	5_exp_RW	999	Rpleas_acq	CS_B	VKKV	BZZB	MQQM	YDDY	JXXJ	GWWG	ehrlich	fair	schön	spielen	retten	treu	eitel	faul	schlecht	strafen	rächen	tot	1	acq_USpleas_CSpleas2_RW	acq4567_RW	5	72	400	1	300	300	397	50	0	1	1	blank2r.bmp	0	1	+	0	1	blank2r.bmp	492	1	BZZB	492	1	blank2r.bmp	572	1	spielen	866	1	!	1239	1	!	1292	0	0	0	0	0	0	0	0	0	0	0	0	0	0	0	0	0	0	0	0	0	0	0	0	0	0	0	0	0	0
070919	11:11:51	11:20:34	521533	5.0.10.0	5_exp_RW	999	Rpleas_acq	CS_B	VKKV	BZZB	MQQM	YDDY	JXXJ	GWWG	ehrlich	fair	schön	spielen	retten	treu	eitel	faul	schlecht	strafen	rächen	tot	1	acq_USunple_CSunple2_RW	acq4567_RW	5	73	400	1	300	300	387	46	0	1	1	blank2r.bmp	0	1	+	0	1	blank2r.bmp	492	1	YDDY	492	1	blank2r.bmp	572	1	strafen	866	1	!	1239	1	!	1292	0	0	0	0	0	0	0	0	0	0	0	0	0	0	0	0	0	0	0	0	0	0	0	0	0	0	0	0	0	0
070919	11:11:51	11:20:36	523732	5.0.10.0	5_exp_RW	999	Rpleas_acq	CS_B	VKKV	BZZB	MQQM	YDDY	JXXJ	GWWG	ehrlich	fair	schön	spielen	retten	treu	eitel	faul	schlecht	strafen	rächen	tot	1	acq_USunple_CSunple2_RW	acq4567_RW	5	74	400	1	300	300	408	46	0	1	1	blank2r.bmp	0	1	+	0	1	blank2r.bmp	493	1	YDDY	493	1	blank2r.bmp	572	1	strafen	866	1	!	1239	1	!	1306	0	0	0	0	0	0	0	0	0	0	0	0	0	0	0	0	0	0	0	0	0	0	0	0	0	0	0	0	0	0
070919	11:11:51	11:20:39	525918	5.0.10.0	5_exp_RW	999	Rpleas_acq	CS_B	VKKV	BZZB	MQQM	YDDY	JXXJ	GWWG	ehrlich	fair	schön	spielen	retten	treu	eitel	faul	schlecht	strafen	rächen	tot	1	acq_USunple_CSunple1_RW	acq4567_RW	5	75	400	1	300	300	392	46	0	1	1	blank2r.bmp	0	1	+	0	1	blank2r.bmp	492	1	MQQM	492	1	blank2r.bmp	572	2	faul	866	1	!	1239	1	!	1292	0	0	0	0	0	0	0	0	0	0	0	0	0	0	0	0	0	0	0	0	0	0	0	0	0	0	0	0	0	0
070919	11:11:51	11:20:41	528117	5.0.10.0	5_exp_RW	999	Rpleas_acq	CS_B	VKKV	BZZB	MQQM	YDDY	JXXJ	GWWG	ehrlich	fair	schön	spielen	retten	treu	eitel	faul	schlecht	strafen	rächen	tot	1	acq_USunple_CSunple1_RW	acq4567_RW	5	76	400	1	300	300	406	46	0	1	1	blank2r.bmp	0	1	+	0	1	blank2r.bmp	492	1	MQQM	492	1	blank2r.bmp	572	2	faul	866	1	!	1239	1	!	1306	0	0	0	0	0	0	0	0	0	0	0	0	0	0	0	0	0	0	0	0	0	0	0	0	0	0	0	0	0	0
070919	11:11:51	11:20:43	530356	5.0.10.0	5_exp_RW	999	Rpleas_acq	CS_B	VKKV	BZZB	MQQM	YDDY	JXXJ	GWWG	ehrlich	fair	schön	spielen	retten	treu	eitel	faul	schlecht	strafen	rächen	tot	1	acq_USpleas_CSpleas2_RW	acq4567_RW	5	77	400	1	300	300	440	50	0	1	1	blank2r.bmp	0	1	+	0	1	blank2r.bmp	492	1	BZZB	492	1	blank2r.bmp	572	3	treu	866	1	!	1239	1	!	1346	0	0	0	0	0	0	0	0	0	0	0	0	0	0	0	0	0	0	0	0	0	0	0	0	0	0	0	0	0	0
070919	11:11:51	11:20:45	532568	5.0.10.0	5_exp_RW	999	Rpleas_acq	CS_B	VKKV	BZZB	MQQM	YDDY	JXXJ	GWWG	ehrlich	fair	schön	spielen	retten	treu	eitel	faul	schlecht	strafen	rächen	tot	1	acq_USunple_CSunple2_RW	acq4567_RW	5	78	400	1	300	300	421	46	0	1	1	blank2r.bmp	0	1	+	0	1	blank2r.bmp	492	1	YDDY	492	1	blank2r.bmp	572	2	rächen	866	1	!	1239	1	!	1319	0	0	0	0	0	0	0	0	0	0	0	0	0	0	0	0	0	0	0	0	0	0	0	0	0	0	0	0	0	0
070919	11:11:51	11:20:48	534794	5.0.10.0	5_exp_RW	999	Rpleas_acq	CS_B	VKKV	BZZB	MQQM	YDDY	JXXJ	GWWG	ehrlich	fair	schön	spielen	retten	treu	eitel	faul	schlecht	strafen	rächen	tot	1	acq_USpleas_CSpleas2_RW	acq4567_RW	5	79	400	1	300	300	438	50	0	1	1	blank2r.bmp	0	1	+	0	1	blank2r.bmp	492	1	BZZB	492	1	blank2r.bmp	573	1	spielen	866	1	!	1239	1	!	1332	0	0	0	0	0	0	0	0	0	0	0	0	0	0	0	0	0	0	0	0	0	0	0	0	0	0	0	0	0	0
070919	11:11:51	11:20:50	537033	5.0.10.0	5_exp_RW	999	Rpleas_acq	CS_B	VKKV	BZZB	MQQM	YDDY	JXXJ	GWWG	ehrlich	fair	schön	spielen	retten	treu	eitel	faul	schlecht	strafen	rächen	tot	1	acq_USunple_CSunple1_RW	acq4567_RW	5	80	400	1	300	300	446	46	0	1	1	blank2r.bmp	1	1	+	1	1	blank2r.bmp	492	1	MQQM	492	1	blank2r.bmp	572	1	eitel	869	1	!	1239	1	!	1346	0	0	0	0	0	0	0	0	0	0	0	0	0	0	0	0	0	0	0	0	0	0	0	0	0	0	0	0	0	0
070919	11:11:51	11:20:55	542124	5.0.10.0	5_exp_RW	999	Rpleas_acq	CS_B	VKKV	BZZB	MQQM	YDDY	JXXJ	GWWG	ehrlich	fair	schön	spielen	retten	treu	eitel	faul	schlecht	strafen	rächen	tot	1	acq_USunple_CSunple2_RW	acq4567_RW	6	1	400	1	300	300	374	46	0	1	1	blank2r.bmp	0	1	+	0	1	blank2r.bmp	492	1	YDDY	492	1	blank2r.bmp	573	3	tot	866	1	!	1239	1	!	1279	0	0	0	0	0	0	0	0	0	0	0	0	0	0	0	0	0	0	0	0	0	0	0	0	0	0	0	0	0	0
070919	11:11:51	11:20:57	544376	5.0.10.0	5_exp_RW	999	Rpleas_acq	CS_B	VKKV	BZZB	MQQM	YDDY	JXXJ	GWWG	ehrlich	fair	schön	spielen	retten	treu	eitel	faul	schlecht	strafen	rächen	tot	1	acq_USpleas_CSpleas2_RW	acq4567_RW	6	2	400	1	300	300	455	46	0	0	1	blank2r.bmp	0	1	+	0	1	blank2r.bmp	492	1	BZZB	492	1	blank2r.bmp	572	2	retten	866	1	!	1239	1	!	1359	0	0	0	0	0	0	0	0	0	0	0	0	0	0	0	0	0	0	0	0	0	0	0	0	0	0	0	0	0	0
070919	11:11:51	11:20:59	546642	5.0.10.0	5_exp_RW	999	Rpleas_acq	CS_B	VKKV	BZZB	MQQM	YDDY	JXXJ	GWWG	ehrlich	fair	schön	spielen	retten	treu	eitel	faul	schlecht	strafen	rächen	tot	1	acq_USpleas_CSpleas1_RW	acq4567_RW	6	3	400	1	300	300	465	50	0	1	1	blank2r.bmp	0	1	+	0	1	blank2r.bmp	492	1	VKKV	492	1	blank2r.bmp	572	1	ehrlich	866	1	!	1239	1	!	1372	0	0	0	0	0	0	0	0	0	0	0	0	0	0	0	0	0	0	0	0	0	0	0	0	0	0	0	0	0	0
070919	11:11:51	11:21:02	548855	5.0.10.0	5_exp_RW	999	Rpleas_acq	CS_B	VKKV	BZZB	MQQM	YDDY	JXXJ	GWWG	ehrlich	fair	schön	spielen	retten	treu	eitel	faul	schlecht	strafen	rächen	tot	1	acq_USpleas_CSpleas1_RW	acq4567_RW	6	4	400	1	300	300	420	50	0	1	1	blank2r.bmp	0	1	+	0	1	blank2r.bmp	492	1	VKKV	492	1	blank2r.bmp	572	2	fair	866	1	!	1239	1	!	1319	0	0	0	0	0	0	0	0	0	0	0	0	0	0	0	0	0	0	0	0	0	0	0	0	0	0	0	0	0	0
070919	11:11:51	11:21:04	551107	5.0.10.0	5_exp_RW	999	Rpleas_acq	CS_B	VKKV	BZZB	MQQM	YDDY	JXXJ	GWWG	ehrlich	fair	schön	spielen	retten	treu	eitel	faul	schlecht	strafen	rächen	tot	1	acq_USpleas_CSpleas2_RW	acq4567_RW	6	5	400	1	300	300	462	50	0	1	1	blank2r.bmp	0	1	+	0	1	blank2r.bmp	492	1	BZZB	492	1	blank2r.bmp	572	1	spielen	866	1	!	1239	1	!	1359	0	0	0	0	0	0	0	0	0	0	0	0	0	0	0	0	0	0	0	0	0	0	0	0	0	0	0	0	0	0
070919	11:11:51	11:21:06	553306	5.0.10.0	5_exp_RW	999	Rpleas_acq	CS_B	VKKV	BZZB	MQQM	YDDY	JXXJ	GWWG	ehrlich	fair	schön	spielen	retten	treu	eitel	faul	schlecht	strafen	rächen	tot	1	acq_USunple_CSunple2_RW	acq4567_RW	6	6	400	1	300	300	410	46	0	1	1	blank2r.bmp	0	1	+	0	1	blank2r.bmp	492	1	YDDY	492	1	blank2r.bmp	572	1	strafen	866	1	!	1239	1	!	1306	0	0	0	0	0	0	0	0	0	0	0	0	0	0	0	0	0	0	0	0	0	0	0	0	0	0	0	0	0	0
070919	11:11:51	11:21:08	555518	5.0.10.0	5_exp_RW	999	Rpleas_acq	CS_B	VKKV	BZZB	MQQM	YDDY	JXXJ	GWWG	ehrlich	fair	schön	spielen	retten	treu	eitel	faul	schlecht	strafen	rächen	tot	1	acq_USunple_CSunple1_RW	acq4567_RW	6	7	400	1	300	300	422	46	0	1	1	blank2r.bmp	0	1	+	0	1	blank2r.bmp	492	1	MQQM	492	1	blank2r.bmp	572	3	schlecht	866	1	!	1239	1	!	1319	0	0	0	0	0	0	0	0	0	0	0	0	0	0	0	0	0	0	0	0	0	0	0	0	0	0	0	0	0	0
070919	11:11:51	11:21:10	557664	5.0.10.0	5_exp_RW	999	Rpleas_acq	CS_B	VKKV	BZZB	MQQM	YDDY	JXXJ	GWWG	ehrlich	fair	schön	spielen	retten	treu	eitel	faul	schlecht	strafen	rächen	tot	1	acq_USunple_CSunple2_RW	acq4567_RW	6	8	400	1	300	300	346	46	0	1	1	blank2r.bmp	0	1	+	0	1	blank2r.bmp	492	1	YDDY	492	1	blank2r.bmp	573	3	tot	866	1	!	1239	1	!	1252	0	0	0	0	0	0	0	0	0	0	0	0	0	0	0	0	0	0	0	0	0	0	0	0	0	0	0	0	0	0
070919	11:11:51	11:21:13	559823	5.0.10.0	5_exp_RW	999	Rpleas_acq	CS_B	VKKV	BZZB	MQQM	YDDY	JXXJ	GWWG	ehrlich	fair	schön	spielen	retten	treu	eitel	faul	schlecht	strafen	rächen	tot	1	acq_USpleas_CSpleas1_RW	acq4567_RW	6	9	400	1	300	300	368	50	0	1	1	blank2r.bmp	0	1	+	0	1	blank2r.bmp	493	1	VKKV	493	1	blank2r.bmp	572	3	schön	866	1	!	1239	1	!	1266	0	0	0	0	0	0	0	0	0	0	0	0	0	0	0	0	0	0	0	0	0	0	0	0	0	0	0	0	0	0
070919	11:11:51	11:21:15	562009	5.0.10.0	5_exp_RW	999	Rpleas_acq	CS_B	VKKV	BZZB	MQQM	YDDY	JXXJ	GWWG	ehrlich	fair	schön	spielen	retten	treu	eitel	faul	schlecht	strafen	rächen	tot	1	acq_USunple_CSunple1_RW	acq4567_RW	6	10	400	1	300	300	388	46	0	1	1	blank2r.bmp	0	1	+	0	1	blank2r.bmp	492	1	MQQM	492	1	blank2r.bmp	572	2	faul	866	1	!	1239	1	!	1292	0	0	0	0	0	0	0	0	0	0	0	0	0	0	0	0	0	0	0	0	0	0	0	0	0	0	0	0	0	0
070919	11:11:51	11:21:17	564235	5.0.10.0	5_exp_RW	999	Rpleas_acq	CS_B	VKKV	BZZB	MQQM	YDDY	JXXJ	GWWG	ehrlich	fair	schön	spielen	retten	treu	eitel	faul	schlecht	strafen	rächen	tot	1	acq_USunple_CSunple2_RW	acq4567_RW	6	11	400	1	300	300	427	46	0	1	1	blank2r.bmp	0	1	+	0	1	blank2r.bmp	492	1	YDDY	492	1	blank2r.bmp	572	2	rächen	866	1	!	1239	1	!	1332	0	0	0	0	0	0	0	0	0	0	0	0	0	0	0	0	0	0	0	0	0	0	0	0	0	0	0	0	0	0
070919	11:11:51	11:21:19	566407	5.0.10.0	5_exp_RW	999	Rpleas_acq	CS_B	VKKV	BZZB	MQQM	YDDY	JXXJ	GWWG	ehrlich	fair	schön	spielen	retten	treu	eitel	faul	schlecht	strafen	rächen	tot	1	acq_USunple_CSunple1_RW	acq4567_RW	6	12	400	1	300	300	376	46	0	1	1	blank2r.bmp	0	1	+	0	1	blank2r.bmp	493	1	MQQM	493	1	blank2r.bmp	572	3	schlecht	866	1	!	1239	1	!	1279	0	0	0	0	0	0	0	0	0	0	0	0	0	0	0	0	0	0	0	0	0	0	0	0	0	0	0	0	0	0
070919	11:11:51	11:21:21	568646	5.0.10.0	5_exp_RW	999	Rpleas_acq	CS_B	VKKV	BZZB	MQQM	YDDY	JXXJ	GWWG	ehrlich	fair	schön	spielen	retten	treu	eitel	faul	schlecht	strafen	rächen	tot	1	acq_USpleas_CSpleas1_RW	acq4567_RW	6	13	400	1	300	300	446	50	0	1	1	blank2r.bmp	0	1	+	0	1	blank2r.bmp	492	1	VKKV	492	1	blank2r.bmp	572	1	ehrlich	866	1	!	1239	1	!	1346	0	0	0	0	0	0	0	0	0	0	0	0	0	0	0	0	0	0	0	0	0	0	0	0	0	0	0	0	0	0
070919	11:11:51	11:21:24	570845	5.0.10.0	5_exp_RW	999	Rpleas_acq	CS_B	VKKV	BZZB	MQQM	YDDY	JXXJ	GWWG	ehrlich	fair	schön	spielen	retten	treu	eitel	faul	schlecht	strafen	rächen	tot	1	acq_USpleas_CSpleas1_RW	acq4567_RW	6	14	400	1	300	300	405	50	0	1	1	blank2r.bmp	0	1	+	0	1	blank2r.bmp	492	1	VKKV	492	1	blank2r.bmp	572	1	ehrlich	866	1	!	1239	1	!	1306	0	0	0	0	0	0	0	0	0	0	0	0	0	0	0	0	0	0	0	0	0	0	0	0	0	0	0	0	0	0
070919	11:11:51	11:21:26	573098	5.0.10.0	5_exp_RW	999	Rpleas_acq	CS_B	VKKV	BZZB	MQQM	YDDY	JXXJ	GWWG	ehrlich	fair	schön	spielen	retten	treu	eitel	faul	schlecht	strafen	rächen	tot	1	acq_USpleas_CSpleas2_RW	acq4567_RW	6	15	400	0	300	300	479	50	0	1	1	blank2r.bmp	0	1	+	0	1	blank2r.bmp	492	1	BZZB	492	1	blank2r.bmp	572	3	treu	866	1	!	1239	1	!	-1	0	0	0	0	0	0	0	0	0	0	0	0	0	0	0	0	0	0	0	0	0	0	0	0	0	0	0	0	0	0
070919	11:11:51	11:21:28	575297	5.0.10.0	5_exp_RW	999	Rpleas_acq	CS_B	VKKV	BZZB	MQQM	YDDY	JXXJ	GWWG	ehrlich	fair	schön	spielen	retten	treu	eitel	faul	schlecht	strafen	rächen	tot	1	acq_USunple_CSunple2_RW	acq4567_RW	6	16	400	1	300	300	388	50	0	0	1	blank2r.bmp	0	1	+	0	1	blank2r.bmp	492	1	YDDY	492	1	blank2r.bmp	572	1	strafen	866	1	!	1239	1	!	1292	0	0	0	0	0	0	0	0	0	0	0	0	0	0	0	0	0	0	0	0	0	0	0	0	0	0	0	0	0	0
070919	11:11:51	11:21:30	577536	5.0.10.0	5_exp_RW	999	Rpleas_acq	CS_B	VKKV	BZZB	MQQM	YDDY	JXXJ	GWWG	ehrlich	fair	schön	spielen	retten	treu	eitel	faul	schlecht	strafen	rächen	tot	1	acq_USpleas_CSpleas2_RW	acq4567_RW	6	17	400	1	300	300	441	50	0	1	1	blank2r.bmp	0	1	+	0	1	blank2r.bmp	492	1	BZZB	492	1	blank2r.bmp	572	2	retten	866	1	!	1239	1	!	1346	0	0	0	0	0	0	0	0	0	0	0	0	0	0	0	0	0	0	0	0	0	0	0	0	0	0	0	0	0	0
070919	11:11:51	11:21:33	579762	5.0.10.0	5_exp_RW	999	Rpleas_acq	CS_B	VKKV	BZZB	MQQM	YDDY	JXXJ	GWWG	ehrlich	fair	schön	spielen	retten	treu	eitel	faul	schlecht	strafen	rächen	tot	1	acq_USunple_CSunple1_RW	acq4567_RW	6	18	400	1	300	300	426	50	0	0	1	blank2r.bmp	0	1	+	0	1	blank2r.bmp	492	1	MQQM	492	1	blank2r.bmp	572	1	eitel	866	1	!	1239	1	!	1332	0	0	0	0	0	0	0	0	0	0	0	0	0	0	0	0	0	0	0	0	0	0	0	0	0	0	0	0	0	0
070919	11:11:51	11:21:35	581947	5.0.10.0	5_exp_RW	999	Rpleas_acq	CS_B	VKKV	BZZB	MQQM	YDDY	JXXJ	GWWG	ehrlich	fair	schön	spielen	retten	treu	eitel	faul	schlecht	strafen	rächen	tot	1	acq_USunple_CSunple1_RW	acq4567_RW	6	19	400	1	300	300	390	46	0	1	1	blank2r.bmp	0	1	+	0	1	blank2r.bmp	492	1	MQQM	492	1	blank2r.bmp	572	2	faul	866	1	!	1239	1	!	1292	0	0	0	0	0	0	0	0	0	0	0	0	0	0	0	0	0	0	0	0	0	0	0	0	0	0	0	0	0	0
