date	time	script.currenttime	script.elapsedtime	build	script.currentexpt	subject	expressions.LRpleas_acq	expressions.conditionCS_A	expressions.CSpleas_1	expressions.CSpleas_2	expressions.CSunple_1	expressions.CSunple_2	expressions.distractor_1	expressions.distractor_2	expressions.US_pleas1	expressions.US_pleas2	expressions.US_pleas3	expressions.US_pleas4	expressions.US_pleas5	expressions.US_pleas6	expressions.US_unple1	expressions.US_unple2	expressions.US_unple3	expressions.US_unple4	expressions.US_unple5	expressions.US_unple6	counter.positions_noRW	trialcode	blockcode	blocknum	trialnum	windowcenter	inwindow	pretrialpause	posttrialpause	latency	response	expressions.correctedscore	correct	stimulusnumber1	stimulusitem1	stimulusonset1	stimulusnumber2	stimulusitem2	stimulusonset2	stimulusnumber3	stimulusitem3	stimulusonset3	stimulusnumber4	stimulusitem4	stimulusonset4	stimulusnumber5	stimulusitem5	stimulusonset5	stimulusnumber6	stimulusitem6	stimulusonset6	stimulusnumber7	stimulusitem7	stimulusonset7	stimulusnumber8	stimulusitem8	stimulusonset8	stimulusnumber9	stimulusitem9	stimulusonset9	stimulusnumber10	stimulusitem10	stimulusonset10	stimulusnumber11	stimulusitem11	stimulusonset11	stimulusnumber12	stimulusitem12	stimulusonset12	stimulusnumber13	stimulusitem13	stimulusonset13	stimulusnumber14	stimulusitem14	stimulusonset14	stimulusnumber15	stimulusitem15	stimulusonset15	stimulusnumber16	stimulusitem16	stimulusonset16	stimulusnumber17	stimulusitem17	stimulusonset17	stimulusnumber18	stimulusitem18	stimulusonset18
070819	17:01:00	17:02:18	77060	5.0.10.0	5_exp_RW	25	Rpleas_acq	CS_A	DXXD	CPPC	JQQJ	LWWL	ZHHZ	YFFY	träumen	sonnig	küssen	gütig	genießen	vertrauen	töten	sterben	krank	gierig	gemein	versagen	1	acq_USunple_CSunple2_RW	acq1_RW	1	1	0	0	300	300	1153	46	0	1	1	blank2r.bmp	0	1	+	0	1	blank2r.bmp	492	1	LWWL	492	1	blank2r.bmp	572	1	gierig	866	0	0	0	0	0	0	0	0	0	0	0	0	0	0	0	0	0	0	0	0	0	0	0	0	0	0	0	0	0	0	0	0	0	0	0	0
070819	17:01:00	17:02:20	79379	5.0.10.0	5_exp_RW	25	Rpleas_acq	CS_A	DXXD	CPPC	JQQJ	LWWL	ZHHZ	YFFY	träumen	sonnig	küssen	gütig	genießen	vertrauen	töten	sterben	krank	gierig	gemein	versagen	1	acq_USpleas_CSpleas1_RW	acq1_RW	1	2	0	0	300	300	826	50	0	1	1	blank2r.bmp	0	1	+	0	1	blank2r.bmp	492	1	DXXD	492	1	blank2r.bmp	572	3	küssen	866	0	0	0	0	0	0	0	0	0	0	0	0	0	0	0	0	0	0	0	0	0	0	0	0	0	0	0	0	0	0	0	0	0	0	0	0
070819	17:01:00	17:02:22	81552	5.0.10.0	5_exp_RW	25	Rpleas_acq	CS_A	DXXD	CPPC	JQQJ	LWWL	ZHHZ	YFFY	träumen	sonnig	küssen	gütig	genießen	vertrauen	töten	sterben	krank	gierig	gemein	versagen	1	acq_USpleas_CSpleas2_RW	acq1_RW	1	3	0	0	300	300	694	50	0	1	1	blank2r.bmp	0	1	+	0	1	blank2r.bmp	492	1	CPPC	492	1	blank2r.bmp	572	2	genießen	866	0	0	0	0	0	0	0	0	0	0	0	0	0	0	0	0	0	0	0	0	0	0	0	0	0	0	0	0	0	0	0	0	0	0	0	0
070819	17:01:00	17:02:24	83564	5.0.10.0	5_exp_RW	25	Rpleas_acq	CS_A	DXXD	CPPC	JQQJ	LWWL	ZHHZ	YFFY	träumen	sonnig	küssen	gütig	genießen	vertrauen	töten	sterben	krank	gierig	gemein	versagen	1	acq_USpleas_CSpleas1_RW	acq1_RW	1	4	0	0	300	300	534	50	0	1	1	blank2r.bmp	0	1	+	0	1	blank2r.bmp	492	1	DXXD	492	1	blank2r.bmp	572	2	sonnig	866	0	0	0	0	0	0	0	0	0	0	0	0	0	0	0	0	0	0	0	0	0	0	0	0	0	0	0	0	0	0	0	0	0	0	0	0
070819	17:01:00	17:02:26	85483	5.0.10.0	5_exp_RW	25	Rpleas_acq	CS_A	DXXD	CPPC	JQQJ	LWWL	ZHHZ	YFFY	träumen	sonnig	küssen	gütig	genießen	vertrauen	töten	sterben	krank	gierig	gemein	versagen	1	acq_USpleas_CSpleas2_RW	acq1_RW	1	5	0	0	300	300	444	50	0	1	1	blank2r.bmp	0	1	+	0	1	blank2r.bmp	492	1	CPPC	492	1	blank2r.bmp	572	1	gütig	866	0	0	0	0	0	0	0	0	0	0	0	0	0	0	0	0	0	0	0	0	0	0	0	0	0	0	0	0	0	0	0	0	0	0	0	0
070819	17:01:00	17:02:28	87296	5.0.10.0	5_exp_RW	25	Rpleas_acq	CS_A	DXXD	CPPC	JQQJ	LWWL	ZHHZ	YFFY	träumen	sonnig	küssen	gütig	genießen	vertrauen	töten	sterben	krank	gierig	gemein	versagen	1	acq_USpleas_CSpleas2_RW	acq1_RW	1	6	0	0	300	300	329	50	0	1	1	blank2r.bmp	0	1	+	0	1	blank2r.bmp	492	1	CPPC	492	1	blank2r.bmp	572	3	vertrauen	866	0	0	0	0	0	0	0	0	0	0	0	0	0	0	0	0	0	0	0	0	0	0	0	0	0	0	0	0	0	0	0	0	0	0	0	0
070819	17:01:00	17:02:30	89095	5.0.10.0	5_exp_RW	25	Rpleas_acq	CS_A	DXXD	CPPC	JQQJ	LWWL	ZHHZ	YFFY	träumen	sonnig	küssen	gütig	genießen	vertrauen	töten	sterben	krank	gierig	gemein	versagen	1	acq_USpleas_CSpleas2_RW	acq1_RW	1	7	0	0	300	300	308	50	0	1	1	blank2r.bmp	0	1	+	0	1	blank2r.bmp	492	1	CPPC	492	1	blank2r.bmp	572	1	gütig	866	0	0	0	0	0	0	0	0	0	0	0	0	0	0	0	0	0	0	0	0	0	0	0	0	0	0	0	0	0	0	0	0	0	0	0	0
070819	17:01:00	17:02:32	91014	5.0.10.0	5_exp_RW	25	Rpleas_acq	CS_A	DXXD	CPPC	JQQJ	LWWL	ZHHZ	YFFY	träumen	sonnig	küssen	gütig	genießen	vertrauen	töten	sterben	krank	gierig	gemein	versagen	1	acq_USunple_CSunple2_RW	acq1_RW	1	8	0	0	300	300	241	50	0	0	1	blank2r.bmp	0	1	+	0	1	blank2r.bmp	492	1	LWWL	492	1	blank2r.bmp	572	2	gemein	866	1	FEHLER	1146	0	0	0	0	0	0	0	0	0	0	0	0	0	0	0	0	0	0	0	0	0	0	0	0	0	0	0	0	0	0	0	0	0
070819	17:01:00	17:02:34	93054	5.0.10.0	5_exp_RW	25	Rpleas_acq	CS_A	DXXD	CPPC	JQQJ	LWWL	ZHHZ	YFFY	träumen	sonnig	küssen	gütig	genießen	vertrauen	töten	sterben	krank	gierig	gemein	versagen	1	acq_USunple_CSunple1_RW	acq1_RW	1	9	0	0	300	300	766	46	0	1	1	blank2r.bmp	0	1	+	0	1	blank2r.bmp	492	1	JQQJ	492	1	blank2r.bmp	572	3	krank	866	0	0	0	0	0	0	0	0	0	0	0	0	0	0	0	0	0	0	0	0	0	0	0	0	0	0	0	0	0	0	0	0	0	0	0	0
070819	17:01:00	17:02:36	95066	5.0.10.0	5_exp_RW	25	Rpleas_acq	CS_A	DXXD	CPPC	JQQJ	LWWL	ZHHZ	YFFY	träumen	sonnig	küssen	gütig	genießen	vertrauen	töten	sterben	krank	gierig	gemein	versagen	1	acq_USunple_CSunple1_RW	acq1_RW	1	10	0	0	300	300	530	46	0	1	1	blank2r.bmp	0	1	+	0	1	blank2r.bmp	492	1	JQQJ	492	1	blank2r.bmp	572	1	töten	866	0	0	0	0	0	0	0	0	0	0	0	0	0	0	0	0	0	0	0	0	0	0	0	0	0	0	0	0	0	0	0	0	0	0	0	0
070819	17:01:00	17:02:38	97039	5.0.10.0	5_exp_RW	25	Rpleas_acq	CS_A	DXXD	CPPC	JQQJ	LWWL	ZHHZ	YFFY	träumen	sonnig	küssen	gütig	genießen	vertrauen	töten	sterben	krank	gierig	gemein	versagen	1	acq_USpleas_CSpleas1_RW	acq1_RW	1	11	0	0	300	300	484	50	0	1	1	blank2r.bmp	0	1	+	0	1	blank2r.bmp	492	1	DXXD	492	1	blank2r.bmp	572	1	träumen	866	0	0	0	0	0	0	0	0	0	0	0	0	0	0	0	0	0	0	0	0	0	0	0	0	0	0	0	0	0	0	0	0	0	0	0	0
070819	17:01:00	17:02:39	98931	5.0.10.0	5_exp_RW	25	Rpleas_acq	CS_A	DXXD	CPPC	JQQJ	LWWL	ZHHZ	YFFY	träumen	sonnig	küssen	gütig	genießen	vertrauen	töten	sterben	krank	gierig	gemein	versagen	1	acq_USpleas_CSpleas1_RW	acq1_RW	1	12	0	0	300	300	423	50	0	1	1	blank2r.bmp	0	1	+	0	1	blank2r.bmp	492	1	DXXD	492	1	blank2r.bmp	572	2	sonnig	866	0	0	0	0	0	0	0	0	0	0	0	0	0	0	0	0	0	0	0	0	0	0	0	0	0	0	0	0	0	0	0	0	0	0	0	0
070819	17:01:00	17:02:42	101024	5.0.10.0	5_exp_RW	25	Rpleas_acq	CS_A	DXXD	CPPC	JQQJ	LWWL	ZHHZ	YFFY	träumen	sonnig	küssen	gütig	genießen	vertrauen	töten	sterben	krank	gierig	gemein	versagen	1	acq_USunple_CSunple2_RW	acq1_RW	1	13	0	0	300	300	600	46	0	1	1	blank2r.bmp	0	1	+	0	1	blank2r.bmp	492	1	LWWL	492	1	blank2r.bmp	572	3	versagen	866	0	0	0	0	0	0	0	0	0	0	0	0	0	0	0	0	0	0	0	0	0	0	0	0	0	0	0	0	0	0	0	0	0	0	0	0
070819	17:01:00	17:02:44	103103	5.0.10.0	5_exp_RW	25	Rpleas_acq	CS_A	DXXD	CPPC	JQQJ	LWWL	ZHHZ	YFFY	träumen	sonnig	küssen	gütig	genießen	vertrauen	töten	sterben	krank	gierig	gemein	versagen	1	acq_USunple_CSunple1_RW	acq1_RW	1	14	0	0	300	300	587	46	0	1	1	blank2r.bmp	0	1	+	0	1	blank2r.bmp	492	1	JQQJ	492	1	blank2r.bmp	572	2	sterben	866	0	0	0	0	0	0	0	0	0	0	0	0	0	0	0	0	0	0	0	0	0	0	0	0	0	0	0	0	0	0	0	0	0	0	0	0
070819	17:01:00	17:02:45	104969	5.0.10.0	5_exp_RW	25	Rpleas_acq	CS_A	DXXD	CPPC	JQQJ	LWWL	ZHHZ	YFFY	träumen	sonnig	küssen	gütig	genießen	vertrauen	töten	sterben	krank	gierig	gemein	versagen	1	acq_USunple_CSunple1_RW	acq1_RW	1	15	0	0	300	300	388	46	0	1	1	blank2r.bmp	0	1	+	0	1	blank2r.bmp	492	1	JQQJ	492	1	blank2r.bmp	572	2	sterben	866	0	0	0	0	0	0	0	0	0	0	0	0	0	0	0	0	0	0	0	0	0	0	0	0	0	0	0	0	0	0	0	0	0	0	0	0
070819	17:01:00	17:02:47	106941	5.0.10.0	5_exp_RW	25	Rpleas_acq	CS_A	DXXD	CPPC	JQQJ	LWWL	ZHHZ	YFFY	träumen	sonnig	küssen	gütig	genießen	vertrauen	töten	sterben	krank	gierig	gemein	versagen	1	acq_USunple_CSunple2_RW	acq1_RW	1	16	0	0	300	300	491	46	0	1	1	blank2r.bmp	0	1	+	0	1	blank2r.bmp	492	1	LWWL	492	1	blank2r.bmp	572	2	gemein	866	0	0	0	0	0	0	0	0	0	0	0	0	0	0	0	0	0	0	0	0	0	0	0	0	0	0	0	0	0	0	0	0	0	0	0	0
070819	17:01:00	17:03:20	139314	5.0.10.0	5_exp_RW	25	Rpleas_acq	CS_A	DXXD	CPPC	JQQJ	LWWL	ZHHZ	YFFY	träumen	sonnig	küssen	gütig	genießen	vertrauen	töten	sterben	krank	gierig	gemein	versagen	1	acq_USunple_CSunple2_RW	acq2_RW	2	1	480	0	300	300	831	46	0	1	1	blank2r.bmp	0	1	+	0	1	blank2r.bmp	492	1	LWWL	492	1	blank2r.bmp	572	1	gierig	866	1	!	1319	1	!	-1	0	0	0	0	0	0	0	0	0	0	0	0	0	0	0	0	0	0	0	0	0	0	0	0	0	0	0	0	0	0
070819	17:01:00	17:03:22	141713	5.0.10.0	5_exp_RW	25	Rpleas_acq	CS_A	DXXD	CPPC	JQQJ	LWWL	ZHHZ	YFFY	träumen	sonnig	küssen	gütig	genießen	vertrauen	töten	sterben	krank	gierig	gemein	versagen	1	acq_USunple_CSunple2_RW	acq2_RW	2	2	480	0	300	300	618	46	0	1	1	blank2r.bmp	0	1	+	0	1	blank2r.bmp	492	1	LWWL	492	1	blank2r.bmp	572	3	versagen	866	1	!	1319	1	!	-1	0	0	0	0	0	0	0	0	0	0	0	0	0	0	0	0	0	0	0	0	0	0	0	0	0	0	0	0	0	0
070819	17:01:00	17:03:24	143859	5.0.10.0	5_exp_RW	25	Rpleas_acq	CS_A	DXXD	CPPC	JQQJ	LWWL	ZHHZ	YFFY	träumen	sonnig	küssen	gütig	genießen	vertrauen	töten	sterben	krank	gierig	gemein	versagen	1	acq_USunple_CSunple2_RW	acq2_RW	2	3	480	0	300	300	357	46	0	1	1	blank2r.bmp	0	1	+	0	1	blank2r.bmp	492	1	LWWL	492	1	blank2r.bmp	572	1	gierig	866	1	!	-1	1	!	-1	0	0	0	0	0	0	0	0	0	0	0	0	0	0	0	0	0	0	0	0	0	0	0	0	0	0	0	0	0	0
070819	17:01:00	17:03:27	146245	5.0.10.0	5_exp_RW	25	Rpleas_acq	CS_A	DXXD	CPPC	JQQJ	LWWL	ZHHZ	YFFY	träumen	sonnig	küssen	gütig	genießen	vertrauen	töten	sterben	krank	gierig	gemein	versagen	1	acq_USunple_CSunple2_RW	acq2_RW	2	4	480	0	300	300	603	46	0	1	1	blank2r.bmp	0	1	+	0	1	blank2r.bmp	492	1	LWWL	492	1	blank2r.bmp	572	2	gemein	866	1	!	1319	1	!	-1	0	0	0	0	0	0	0	0	0	0	0	0	0	0	0	0	0	0	0	0	0	0	0	0	0	0	0	0	0	0
070819	17:01:00	17:03:29	148430	5.0.10.0	5_exp_RW	25	Rpleas_acq	CS_A	DXXD	CPPC	JQQJ	LWWL	ZHHZ	YFFY	träumen	sonnig	küssen	gütig	genießen	vertrauen	töten	sterben	krank	gierig	gemein	versagen	1	acq_USpleas_CSpleas1_RW	acq2_RW	2	5	480	0	300	300	405	50	0	1	1	blank2r.bmp	0	1	+	0	1	blank2r.bmp	492	1	DXXD	492	1	blank2r.bmp	572	3	küssen	866	1	!	-1	1	!	-1	0	0	0	0	0	0	0	0	0	0	0	0	0	0	0	0	0	0	0	0	0	0	0	0	0	0	0	0	0	0
070819	17:01:00	17:03:31	150843	5.0.10.0	5_exp_RW	25	Rpleas_acq	CS_A	DXXD	CPPC	JQQJ	LWWL	ZHHZ	YFFY	träumen	sonnig	küssen	gütig	genießen	vertrauen	töten	sterben	krank	gierig	gemein	versagen	1	acq_USunple_CSunple1_RW	acq2_RW	2	6	480	0	300	300	627	46	0	1	1	blank2r.bmp	0	1	+	0	1	blank2r.bmp	492	1	JQQJ	492	1	blank2r.bmp	572	3	krank	866	1	!	1319	1	!	-1	0	0	0	0	0	0	0	0	0	0	0	0	0	0	0	0	0	0	0	0	0	0	0	0	0	0	0	0	0	0
070819	17:01:00	17:03:34	153242	5.0.10.0	5_exp_RW	25	Rpleas_acq	CS_A	DXXD	CPPC	JQQJ	LWWL	ZHHZ	YFFY	träumen	sonnig	küssen	gütig	genießen	vertrauen	töten	sterben	krank	gierig	gemein	versagen	1	acq_USpleas_CSpleas2_RW	acq2_RW	2	7	480	0	300	300	613	50	0	1	1	blank2r.bmp	0	1	+	0	1	blank2r.bmp	492	1	CPPC	492	1	blank2r.bmp	572	3	vertrauen	866	1	!	1319	1	!	-1	0	0	0	0	0	0	0	0	0	0	0	0	0	0	0	0	0	0	0	0	0	0	0	0	0	0	0	0	0	0
070819	17:01:00	17:03:36	155667	5.0.10.0	5_exp_RW	25	Rpleas_acq	CS_A	DXXD	CPPC	JQQJ	LWWL	ZHHZ	YFFY	träumen	sonnig	küssen	gütig	genießen	vertrauen	töten	sterben	krank	gierig	gemein	versagen	1	acq_USpleas_CSpleas2_RW	acq2_RW	2	8	480	0	300	300	637	50	0	1	1	blank2r.bmp	0	1	+	0	1	blank2r.bmp	492	1	CPPC	492	1	blank2r.bmp	572	2	genießen	866	1	!	1319	1	!	-1	0	0	0	0	0	0	0	0	0	0	0	0	0	0	0	0	0	0	0	0	0	0	0	0	0	0	0	0	0	0
070819	17:01:00	17:03:39	158066	5.0.10.0	5_exp_RW	25	Rpleas_acq	CS_A	DXXD	CPPC	JQQJ	LWWL	ZHHZ	YFFY	träumen	sonnig	küssen	gütig	genießen	vertrauen	töten	sterben	krank	gierig	gemein	versagen	1	acq_USpleas_CSpleas1_RW	acq2_RW	2	9	480	0	300	300	617	50	0	1	1	blank2r.bmp	0	1	+	0	1	blank2r.bmp	492	1	DXXD	492	1	blank2r.bmp	572	1	träumen	866	1	!	1319	1	!	-1	0	0	0	0	0	0	0	0	0	0	0	0	0	0	0	0	0	0	0	0	0	0	0	0	0	0	0	0	0	0
070819	17:01:00	17:03:41	160412	5.0.10.0	5_exp_RW	25	Rpleas_acq	CS_A	DXXD	CPPC	JQQJ	LWWL	ZHHZ	YFFY	träumen	sonnig	küssen	gütig	genießen	vertrauen	töten	sterben	krank	gierig	gemein	versagen	1	acq_USpleas_CSpleas2_RW	acq2_RW	2	10	480	0	300	300	566	50	0	1	1	blank2r.bmp	0	1	+	0	1	blank2r.bmp	492	1	CPPC	492	1	blank2r.bmp	572	1	gütig	866	1	!	1319	1	!	-1	0	0	0	0	0	0	0	0	0	0	0	0	0	0	0	0	0	0	0	0	0	0	0	0	0	0	0	0	0	0
070819	17:01:00	17:03:43	162758	5.0.10.0	5_exp_RW	25	Rpleas_acq	CS_A	DXXD	CPPC	JQQJ	LWWL	ZHHZ	YFFY	träumen	sonnig	küssen	gütig	genießen	vertrauen	töten	sterben	krank	gierig	gemein	versagen	1	acq_USunple_CSunple1_RW	acq2_RW	2	11	480	0	300	300	559	46	0	1	1	blank2r.bmp	0	1	+	0	1	blank2r.bmp	492	1	JQQJ	492	1	blank2r.bmp	572	1	töten	866	1	!	1319	1	!	-1	0	0	0	0	0	0	0	0	0	0	0	0	0	0	0	0	0	0	0	0	0	0	0	0	0	0	0	0	0	0
070819	17:01:00	17:03:46	165023	5.0.10.0	5_exp_RW	25	Rpleas_acq	CS_A	DXXD	CPPC	JQQJ	LWWL	ZHHZ	YFFY	träumen	sonnig	küssen	gütig	genießen	vertrauen	töten	sterben	krank	gierig	gemein	versagen	1	acq_USpleas_CSpleas1_RW	acq2_RW	2	12	480	1	300	300	445	50	0	1	1	blank2r.bmp	0	1	+	0	1	blank2r.bmp	492	1	DXXD	492	1	blank2r.bmp	572	3	küssen	866	1	!	1319	1	!	1346	0	0	0	0	0	0	0	0	0	0	0	0	0	0	0	0	0	0	0	0	0	0	0	0	0	0	0	0	0	0
070819	17:01:00	17:03:48	167382	5.0.10.0	5_exp_RW	25	Rpleas_acq	CS_A	DXXD	CPPC	JQQJ	LWWL	ZHHZ	YFFY	träumen	sonnig	küssen	gütig	genießen	vertrauen	töten	sterben	krank	gierig	gemein	versagen	1	acq_USunple_CSunple2_RW	acq2_RW	2	13	480	0	300	300	598	46	0	1	1	blank2r.bmp	0	1	+	0	1	blank2r.bmp	492	1	LWWL	492	1	blank2r.bmp	572	3	versagen	866	1	!	1319	1	!	-1	0	0	0	0	0	0	0	0	0	0	0	0	0	0	0	0	0	0	0	0	0	0	0	0	0	0	0	0	0	0
070819	17:01:00	17:03:50	169728	5.0.10.0	5_exp_RW	25	Rpleas_acq	CS_A	DXXD	CPPC	JQQJ	LWWL	ZHHZ	YFFY	träumen	sonnig	küssen	gütig	genießen	vertrauen	töten	sterben	krank	gierig	gemein	versagen	1	acq_USunple_CSunple1_RW	acq2_RW	2	14	480	1	300	300	532	46	0	1	1	blank2r.bmp	0	1	+	0	1	blank2r.bmp	492	1	JQQJ	492	1	blank2r.bmp	572	3	krank	866	1	!	1319	1	!	1439	0	0	0	0	0	0	0	0	0	0	0	0	0	0	0	0	0	0	0	0	0	0	0	0	0	0	0	0	0	0
070819	17:01:00	17:03:53	172074	5.0.10.0	5_exp_RW	25	Rpleas_acq	CS_A	DXXD	CPPC	JQQJ	LWWL	ZHHZ	YFFY	träumen	sonnig	küssen	gütig	genießen	vertrauen	töten	sterben	krank	gierig	gemein	versagen	1	acq_USunple_CSunple1_RW	acq2_RW	2	15	480	1	300	300	540	46	0	1	1	blank2r.bmp	0	1	+	0	1	blank2r.bmp	492	1	JQQJ	492	1	blank2r.bmp	572	2	sterben	866	1	!	1319	1	!	1439	0	0	0	0	0	0	0	0	0	0	0	0	0	0	0	0	0	0	0	0	0	0	0	0	0	0	0	0	0	0
070819	17:01:00	17:03:55	174419	5.0.10.0	5_exp_RW	25	Rpleas_acq	CS_A	DXXD	CPPC	JQQJ	LWWL	ZHHZ	YFFY	träumen	sonnig	küssen	gütig	genießen	vertrauen	töten	sterben	krank	gierig	gemein	versagen	1	acq_USpleas_CSpleas2_RW	acq2_RW	2	16	480	0	300	300	573	50	0	1	1	blank2r.bmp	0	1	+	0	1	blank2r.bmp	492	1	CPPC	492	1	blank2r.bmp	572	2	genießen	866	1	!	1319	1	!	-1	0	0	0	0	0	0	0	0	0	0	0	0	0	0	0	0	0	0	0	0	0	0	0	0	0	0	0	0	0	0
070819	17:01:00	17:03:57	176725	5.0.10.0	5_exp_RW	25	Rpleas_acq	CS_A	DXXD	CPPC	JQQJ	LWWL	ZHHZ	YFFY	träumen	sonnig	küssen	gütig	genießen	vertrauen	töten	sterben	krank	gierig	gemein	versagen	1	acq_USunple_CSunple1_RW	acq2_RW	2	17	480	1	300	300	503	46	0	1	1	blank2r.bmp	0	1	+	0	1	blank2r.bmp	492	1	JQQJ	492	1	blank2r.bmp	572	1	töten	866	1	!	1319	1	!	1399	0	0	0	0	0	0	0	0	0	0	0	0	0	0	0	0	0	0	0	0	0	0	0	0	0	0	0	0	0	0
070819	17:01:00	17:04:00	179018	5.0.10.0	5_exp_RW	25	Rpleas_acq	CS_A	DXXD	CPPC	JQQJ	LWWL	ZHHZ	YFFY	träumen	sonnig	küssen	gütig	genießen	vertrauen	töten	sterben	krank	gierig	gemein	versagen	1	acq_USpleas_CSpleas1_RW	acq2_RW	2	18	480	1	300	300	493	50	0	1	1	blank2r.bmp	0	1	+	0	1	blank2r.bmp	492	1	DXXD	492	1	blank2r.bmp	572	2	sonnig	866	1	!	1319	1	!	1399	0	0	0	0	0	0	0	0	0	0	0	0	0	0	0	0	0	0	0	0	0	0	0	0	0	0	0	0	0	0
070819	17:01:00	17:04:02	181350	5.0.10.0	5_exp_RW	25	Rpleas_acq	CS_A	DXXD	CPPC	JQQJ	LWWL	ZHHZ	YFFY	träumen	sonnig	küssen	gütig	genießen	vertrauen	töten	sterben	krank	gierig	gemein	versagen	1	acq_USunple_CSunple1_RW	acq2_RW	2	19	480	0	300	300	559	46	0	1	1	blank2r.bmp	0	1	+	0	1	blank2r.bmp	492	1	JQQJ	492	1	blank2r.bmp	572	2	sterben	866	1	!	1319	1	!	-1	0	0	0	0	0	0	0	0	0	0	0	0	0	0	0	0	0	0	0	0	0	0	0	0	0	0	0	0	0	0
070819	17:01:00	17:04:04	183682	5.0.10.0	5_exp_RW	25	Rpleas_acq	CS_A	DXXD	CPPC	JQQJ	LWWL	ZHHZ	YFFY	träumen	sonnig	küssen	gütig	genießen	vertrauen	töten	sterben	krank	gierig	gemein	versagen	1	acq_USunple_CSunple2_RW	acq2_RW	2	20	480	1	300	300	529	46	0	1	1	blank2r.bmp	0	1	+	0	1	blank2r.bmp	492	1	LWWL	492	1	blank2r.bmp	572	2	gemein	866	1	!	1319	1	!	1426	0	0	0	0	0	0	0	0	0	0	0	0	0	0	0	0	0	0	0	0	0	0	0	0	0	0	0	0	0	0
070819	17:01:00	17:04:07	186015	5.0.10.0	5_exp_RW	25	Rpleas_acq	CS_A	DXXD	CPPC	JQQJ	LWWL	ZHHZ	YFFY	träumen	sonnig	küssen	gütig	genießen	vertrauen	töten	sterben	krank	gierig	gemein	versagen	1	acq_USpleas_CSpleas1_RW	acq2_RW	2	21	480	0	300	300	560	50	0	1	1	blank2r.bmp	0	1	+	0	1	blank2r.bmp	492	1	DXXD	492	1	blank2r.bmp	572	1	träumen	866	1	!	1319	1	!	-1	0	0	0	0	0	0	0	0	0	0	0	0	0	0	0	0	0	0	0	0	0	0	0	0	0	0	0	0	0	0
070819	17:01:00	17:04:09	188360	5.0.10.0	5_exp_RW	25	Rpleas_acq	CS_A	DXXD	CPPC	JQQJ	LWWL	ZHHZ	YFFY	träumen	sonnig	küssen	gütig	genießen	vertrauen	töten	sterben	krank	gierig	gemein	versagen	1	acq_USpleas_CSpleas2_RW	acq2_RW	2	22	480	1	300	300	534	50	0	1	1	blank2r.bmp	0	1	+	0	1	blank2r.bmp	492	1	CPPC	492	1	blank2r.bmp	572	3	vertrauen	866	1	!	1319	1	!	1439	0	0	0	0	0	0	0	0	0	0	0	0	0	0	0	0	0	0	0	0	0	0	0	0	0	0	0	0	0	0
070819	17:01:00	17:04:11	190639	5.0.10.0	5_exp_RW	25	Rpleas_acq	CS_A	DXXD	CPPC	JQQJ	LWWL	ZHHZ	YFFY	träumen	sonnig	küssen	gütig	genießen	vertrauen	töten	sterben	krank	gierig	gemein	versagen	1	acq_USpleas_CSpleas2_RW	acq2_RW	2	23	480	1	300	300	481	50	0	1	1	blank2r.bmp	0	1	+	0	1	blank2r.bmp	492	1	CPPC	492	1	blank2r.bmp	572	1	gütig	866	1	!	1319	1	!	1386	0	0	0	0	0	0	0	0	0	0	0	0	0	0	0	0	0	0	0	0	0	0	0	0	0	0	0	0	0	0
070819	17:01:00	17:04:13	192905	5.0.10.0	5_exp_RW	25	Rpleas_acq	CS_A	DXXD	CPPC	JQQJ	LWWL	ZHHZ	YFFY	träumen	sonnig	küssen	gütig	genießen	vertrauen	töten	sterben	krank	gierig	gemein	versagen	1	acq_USpleas_CSpleas1_RW	acq2_RW	2	24	480	1	300	300	468	50	0	1	1	blank2r.bmp	0	1	+	0	1	blank2r.bmp	492	1	DXXD	492	1	blank2r.bmp	572	2	sonnig	866	1	!	1319	1	!	1372	0	0	0	0	0	0	0	0	0	0	0	0	0	0	0	0	0	0	0	0	0	0	0	0	0	0	0	0	0	0
070819	17:01:00	17:04:27	206046	5.0.10.0	5_exp_RW	25	Rpleas_acq	CS_A	DXXD	CPPC	JQQJ	LWWL	ZHHZ	YFFY	träumen	sonnig	küssen	gütig	genießen	vertrauen	töten	sterben	krank	gierig	gemein	versagen	1	acq_USpleas_CSpleas2_RW	acq3_RW	3	1	453	1	300	300	444	50	0	1	1	blank2r.bmp	0	1	+	0	1	blank2r.bmp	492	1	CPPC	492	1	blank2r.bmp	572	3	vertrauen	866	1	!	1292	1	!	1346	0	0	0	0	0	0	0	0	0	0	0	0	0	0	0	0	0	0	0	0	0	0	0	0	0	0	0	0	0	0
070819	17:01:00	17:04:29	208325	5.0.10.0	5_exp_RW	25	Rpleas_acq	CS_A	DXXD	CPPC	JQQJ	LWWL	ZHHZ	YFFY	träumen	sonnig	küssen	gütig	genießen	vertrauen	töten	sterben	krank	gierig	gemein	versagen	1	acq_USpleas_CSpleas1_RW	acq3_RW	3	2	453	0	300	300	279	46	0	0	1	blank2r.bmp	0	1	+	0	1	blank2r.bmp	492	1	DXXD	492	1	blank2r.bmp	572	1	träumen	866	1	FEHLER	1492	1	!	-1	1	!	-1	0	0	0	0	0	0	0	0	0	0	0	0	0	0	0	0	0	0	0	0	0	0	0	0	0	0	0
070819	17:01:00	17:04:31	210391	5.0.10.0	5_exp_RW	25	Rpleas_acq	CS_A	DXXD	CPPC	JQQJ	LWWL	ZHHZ	YFFY	träumen	sonnig	küssen	gütig	genießen	vertrauen	töten	sterben	krank	gierig	gemein	versagen	1	acq_USpleas_CSpleas1_RW	acq3_RW	3	3	453	1	300	300	485	50	0	1	1	blank2r.bmp	0	1	+	0	1	blank2r.bmp	492	1	DXXD	492	1	blank2r.bmp	572	3	küssen	866	1	!	1292	1	!	1386	0	0	0	0	0	0	0	0	0	0	0	0	0	0	0	0	0	0	0	0	0	0	0	0	0	0	0	0	0	0
070819	17:01:00	17:04:33	212657	5.0.10.0	5_exp_RW	25	Rpleas_acq	CS_A	DXXD	CPPC	JQQJ	LWWL	ZHHZ	YFFY	träumen	sonnig	küssen	gütig	genießen	vertrauen	töten	sterben	krank	gierig	gemein	versagen	1	acq_USpleas_CSpleas2_RW	acq3_RW	3	4	453	1	300	300	465	50	0	1	1	blank2r.bmp	0	1	+	0	1	blank2r.bmp	492	1	CPPC	492	1	blank2r.bmp	572	2	genießen	866	1	!	1292	1	!	1372	0	0	0	0	0	0	0	0	0	0	0	0	0	0	0	0	0	0	0	0	0	0	0	0	0	0	0	0	0	0
070819	17:01:00	17:04:35	214936	5.0.10.0	5_exp_RW	25	Rpleas_acq	CS_A	DXXD	CPPC	JQQJ	LWWL	ZHHZ	YFFY	träumen	sonnig	küssen	gütig	genießen	vertrauen	töten	sterben	krank	gierig	gemein	versagen	1	acq_USpleas_CSpleas2_RW	acq3_RW	3	5	453	1	300	300	480	50	0	1	1	blank2r.bmp	0	1	+	0	1	blank2r.bmp	492	1	CPPC	492	1	blank2r.bmp	572	1	gütig	866	1	!	1292	1	!	1386	0	0	0	0	0	0	0	0	0	0	0	0	0	0	0	0	0	0	0	0	0	0	0	0	0	0	0	0	0	0
070819	17:01:00	17:04:38	217282	5.0.10.0	5_exp_RW	25	Rpleas_acq	CS_A	DXXD	CPPC	JQQJ	LWWL	ZHHZ	YFFY	träumen	sonnig	küssen	gütig	genießen	vertrauen	töten	sterben	krank	gierig	gemein	versagen	1	acq_USpleas_CSpleas1_RW	acq3_RW	3	6	453	0	300	300	567	50	0	1	1	blank2r.bmp	0	1	+	0	1	blank2r.bmp	492	1	DXXD	492	1	blank2r.bmp	572	1	träumen	866	1	!	1292	1	!	-1	0	0	0	0	0	0	0	0	0	0	0	0	0	0	0	0	0	0	0	0	0	0	0	0	0	0	0	0	0	0
070819	17:01:00	17:04:40	219800	5.0.10.0	5_exp_RW	25	Rpleas_acq	CS_A	DXXD	CPPC	JQQJ	LWWL	ZHHZ	YFFY	träumen	sonnig	küssen	gütig	genießen	vertrauen	töten	sterben	krank	gierig	gemein	versagen	1	acq_USunple_CSunple1_RW	acq3_RW	3	7	453	1	300	300	498	50	0	0	1	blank2r.bmp	0	1	+	0	1	blank2r.bmp	492	1	JQQJ	492	1	blank2r.bmp	572	3	krank	866	1	FEHLER	1719	1	!	1292	1	!	1399	0	0	0	0	0	0	0	0	0	0	0	0	0	0	0	0	0	0	0	0	0	0	0	0	0	0	0
070819	17:01:00	17:04:42	221880	5.0.10.0	5_exp_RW	25	Rpleas_acq	CS_A	DXXD	CPPC	JQQJ	LWWL	ZHHZ	YFFY	träumen	sonnig	küssen	gütig	genießen	vertrauen	töten	sterben	krank	gierig	gemein	versagen	1	acq_USunple_CSunple1_RW	acq3_RW	3	8	453	1	300	300	493	46	0	1	1	blank2r.bmp	0	1	+	0	1	blank2r.bmp	492	1	JQQJ	492	1	blank2r.bmp	572	1	töten	866	1	!	1292	1	!	1399	0	0	0	0	0	0	0	0	0	0	0	0	0	0	0	0	0	0	0	0	0	0	0	0	0	0	0	0	0	0
070819	17:01:00	17:04:45	224185	5.0.10.0	5_exp_RW	25	Rpleas_acq	CS_A	DXXD	CPPC	JQQJ	LWWL	ZHHZ	YFFY	träumen	sonnig	küssen	gütig	genießen	vertrauen	töten	sterben	krank	gierig	gemein	versagen	1	acq_USunple_CSunple2_RW	acq3_RW	3	9	453	0	300	300	541	46	0	1	1	blank2r.bmp	0	1	+	0	1	blank2r.bmp	492	1	LWWL	492	1	blank2r.bmp	572	1	gierig	866	1	!	1292	1	!	-1	0	0	0	0	0	0	0	0	0	0	0	0	0	0	0	0	0	0	0	0	0	0	0	0	0	0	0	0	0	0
070819	17:01:00	17:04:47	226451	5.0.10.0	5_exp_RW	25	Rpleas_acq	CS_A	DXXD	CPPC	JQQJ	LWWL	ZHHZ	YFFY	träumen	sonnig	küssen	gütig	genießen	vertrauen	töten	sterben	krank	gierig	gemein	versagen	1	acq_USpleas_CSpleas2_RW	acq3_RW	3	10	453	1	300	300	462	50	0	1	1	blank2r.bmp	0	1	+	0	1	blank2r.bmp	492	1	CPPC	492	1	blank2r.bmp	572	3	vertrauen	866	1	!	1292	1	!	1359	0	0	0	0	0	0	0	0	0	0	0	0	0	0	0	0	0	0	0	0	0	0	0	0	0	0	0	0	0	0
070819	17:01:00	17:04:49	228810	5.0.10.0	5_exp_RW	25	Rpleas_acq	CS_A	DXXD	CPPC	JQQJ	LWWL	ZHHZ	YFFY	träumen	sonnig	küssen	gütig	genießen	vertrauen	töten	sterben	krank	gierig	gemein	versagen	1	acq_USunple_CSunple2_RW	acq3_RW	3	11	453	0	300	300	586	46	0	1	1	blank2r.bmp	0	1	+	0	1	blank2r.bmp	492	1	LWWL	492	1	blank2r.bmp	572	3	versagen	866	1	!	1292	1	!	-1	0	0	0	0	0	0	0	0	0	0	0	0	0	0	0	0	0	0	0	0	0	0	0	0	0	0	0	0	0	0
070819	17:01:00	17:04:52	231049	5.0.10.0	5_exp_RW	25	Rpleas_acq	CS_A	DXXD	CPPC	JQQJ	LWWL	ZHHZ	YFFY	träumen	sonnig	küssen	gütig	genießen	vertrauen	töten	sterben	krank	gierig	gemein	versagen	1	acq_USunple_CSunple1_RW	acq3_RW	3	12	453	1	300	300	426	46	0	1	1	blank2r.bmp	0	1	+	0	1	blank2r.bmp	492	1	JQQJ	492	1	blank2r.bmp	572	1	töten	866	1	!	1292	1	!	1332	0	0	0	0	0	0	0	0	0	0	0	0	0	0	0	0	0	0	0	0	0	0	0	0	0	0	0	0	0	0
070819	17:01:00	17:04:54	233355	5.0.10.0	5_exp_RW	25	Rpleas_acq	CS_A	DXXD	CPPC	JQQJ	LWWL	ZHHZ	YFFY	träumen	sonnig	küssen	gütig	genießen	vertrauen	töten	sterben	krank	gierig	gemein	versagen	1	acq_USunple_CSunple2_RW	acq3_RW	3	13	453	1	300	300	503	46	0	1	1	blank2r.bmp	0	1	+	0	1	blank2r.bmp	492	1	LWWL	492	1	blank2r.bmp	572	1	gierig	866	1	!	1292	1	!	1399	0	0	0	0	0	0	0	0	0	0	0	0	0	0	0	0	0	0	0	0	0	0	0	0	0	0	0	0	0	0
070819	17:01:00	17:04:56	235647	5.0.10.0	5_exp_RW	25	Rpleas_acq	CS_A	DXXD	CPPC	JQQJ	LWWL	ZHHZ	YFFY	träumen	sonnig	küssen	gütig	genießen	vertrauen	töten	sterben	krank	gierig	gemein	versagen	1	acq_USpleas_CSpleas1_RW	acq3_RW	3	14	453	1	300	300	504	50	0	1	1	blank2r.bmp	0	1	+	0	1	blank2r.bmp	492	1	DXXD	492	1	blank2r.bmp	572	2	sonnig	866	1	!	1292	1	!	1399	0	0	0	0	0	0	0	0	0	0	0	0	0	0	0	0	0	0	0	0	0	0	0	0	0	0	0	0	0	0
070819	17:01:00	17:04:58	237873	5.0.10.0	5_exp_RW	25	Rpleas_acq	CS_A	DXXD	CPPC	JQQJ	LWWL	ZHHZ	YFFY	träumen	sonnig	küssen	gütig	genießen	vertrauen	töten	sterben	krank	gierig	gemein	versagen	1	acq_USpleas_CSpleas1_RW	acq3_RW	3	15	453	1	300	300	429	50	0	1	1	blank2r.bmp	0	1	+	0	1	blank2r.bmp	492	1	DXXD	492	1	blank2r.bmp	572	3	küssen	866	1	!	1292	1	!	1332	0	0	0	0	0	0	0	0	0	0	0	0	0	0	0	0	0	0	0	0	0	0	0	0	0	0	0	0	0	0
070819	17:01:00	17:05:00	239979	5.0.10.0	5_exp_RW	25	Rpleas_acq	CS_A	DXXD	CPPC	JQQJ	LWWL	ZHHZ	YFFY	träumen	sonnig	küssen	gütig	genießen	vertrauen	töten	sterben	krank	gierig	gemein	versagen	1	acq_USunple_CSunple1_RW	acq3_RW	3	16	453	0	300	300	340	46	0	1	1	blank2r.bmp	0	1	+	0	1	blank2r.bmp	492	1	JQQJ	492	1	blank2r.bmp	572	2	sterben	866	1	!	-1	1	!	-1	0	0	0	0	0	0	0	0	0	0	0	0	0	0	0	0	0	0	0	0	0	0	0	0	0	0	0	0	0	0
070819	17:01:00	17:05:03	242311	5.0.10.0	5_exp_RW	25	Rpleas_acq	CS_A	DXXD	CPPC	JQQJ	LWWL	ZHHZ	YFFY	träumen	sonnig	küssen	gütig	genießen	vertrauen	töten	sterben	krank	gierig	gemein	versagen	1	acq_USpleas_CSpleas2_RW	acq3_RW	3	17	453	1	300	300	520	50	0	1	1	blank2r.bmp	0	1	+	0	1	blank2r.bmp	492	1	CPPC	492	1	blank2r.bmp	572	2	genießen	866	1	!	1292	1	!	1426	0	0	0	0	0	0	0	0	0	0	0	0	0	0	0	0	0	0	0	0	0	0	0	0	0	0	0	0	0	0
070819	17:01:00	17:05:05	244630	5.0.10.0	5_exp_RW	25	Rpleas_acq	CS_A	DXXD	CPPC	JQQJ	LWWL	ZHHZ	YFFY	träumen	sonnig	küssen	gütig	genießen	vertrauen	töten	sterben	krank	gierig	gemein	versagen	1	acq_USunple_CSunple2_RW	acq3_RW	3	18	453	0	300	300	552	46	0	1	1	blank2r.bmp	0	1	+	0	1	blank2r.bmp	492	1	LWWL	492	1	blank2r.bmp	572	3	versagen	866	1	!	1292	1	!	-1	0	0	0	0	0	0	0	0	0	0	0	0	0	0	0	0	0	0	0	0	0	0	0	0	0	0	0	0	0	0
070819	17:01:00	17:05:07	246869	5.0.10.0	5_exp_RW	25	Rpleas_acq	CS_A	DXXD	CPPC	JQQJ	LWWL	ZHHZ	YFFY	träumen	sonnig	küssen	gütig	genießen	vertrauen	töten	sterben	krank	gierig	gemein	versagen	1	acq_USunple_CSunple1_RW	acq3_RW	3	19	453	1	300	300	438	46	0	1	1	blank2r.bmp	0	1	+	0	1	blank2r.bmp	492	1	JQQJ	492	1	blank2r.bmp	572	3	krank	866	1	!	1292	1	!	1332	0	0	0	0	0	0	0	0	0	0	0	0	0	0	0	0	0	0	0	0	0	0	0	0	0	0	0	0	0	0
070819	17:01:00	17:05:10	249108	5.0.10.0	5_exp_RW	25	Rpleas_acq	CS_A	DXXD	CPPC	JQQJ	LWWL	ZHHZ	YFFY	träumen	sonnig	küssen	gütig	genießen	vertrauen	töten	sterben	krank	gierig	gemein	versagen	1	acq_USunple_CSunple1_RW	acq3_RW	3	20	453	1	300	300	437	46	0	1	1	blank2r.bmp	0	1	+	0	1	blank2r.bmp	492	1	JQQJ	492	1	blank2r.bmp	572	1	töten	866	1	!	1292	1	!	1332	0	0	0	0	0	0	0	0	0	0	0	0	0	0	0	0	0	0	0	0	0	0	0	0	0	0	0	0	0	0
070819	17:01:00	17:05:12	251307	5.0.10.0	5_exp_RW	25	Rpleas_acq	CS_A	DXXD	CPPC	JQQJ	LWWL	ZHHZ	YFFY	träumen	sonnig	küssen	gütig	genießen	vertrauen	töten	sterben	krank	gierig	gemein	versagen	1	acq_USpleas_CSpleas2_RW	acq3_RW	3	21	453	1	300	300	408	50	0	1	1	blank2r.bmp	0	1	+	0	1	blank2r.bmp	492	1	CPPC	492	1	blank2r.bmp	572	2	genießen	866	1	!	1292	1	!	1306	0	0	0	0	0	0	0	0	0	0	0	0	0	0	0	0	0	0	0	0	0	0	0	0	0	0	0	0	0	0
070819	17:01:00	17:05:14	253560	5.0.10.0	5_exp_RW	25	Rpleas_acq	CS_A	DXXD	CPPC	JQQJ	LWWL	ZHHZ	YFFY	träumen	sonnig	küssen	gütig	genießen	vertrauen	töten	sterben	krank	gierig	gemein	versagen	1	acq_USunple_CSunple2_RW	acq3_RW	3	22	453	1	300	300	462	46	0	1	1	blank2r.bmp	0	1	+	0	1	blank2r.bmp	492	1	LWWL	492	1	blank2r.bmp	572	2	gemein	866	1	!	1292	1	!	1359	0	0	0	0	0	0	0	0	0	0	0	0	0	0	0	0	0	0	0	0	0	0	0	0	0	0	0	0	0	0
070819	17:01:00	17:05:16	255799	5.0.10.0	5_exp_RW	25	Rpleas_acq	CS_A	DXXD	CPPC	JQQJ	LWWL	ZHHZ	YFFY	träumen	sonnig	küssen	gütig	genießen	vertrauen	töten	sterben	krank	gierig	gemein	versagen	1	acq_USpleas_CSpleas1_RW	acq3_RW	3	23	453	1	300	300	439	50	0	1	1	blank2r.bmp	0	1	+	0	1	blank2r.bmp	492	1	DXXD	492	1	blank2r.bmp	572	3	küssen	866	1	!	1292	1	!	1346	0	0	0	0	0	0	0	0	0	0	0	0	0	0	0	0	0	0	0	0	0	0	0	0	0	0	0	0	0	0
070819	17:01:00	17:05:18	257998	5.0.10.0	5_exp_RW	25	Rpleas_acq	CS_A	DXXD	CPPC	JQQJ	LWWL	ZHHZ	YFFY	träumen	sonnig	küssen	gütig	genießen	vertrauen	töten	sterben	krank	gierig	gemein	versagen	1	acq_USunple_CSunple2_RW	acq3_RW	3	24	453	1	300	300	399	46	0	1	1	blank2r.bmp	0	1	+	0	1	blank2r.bmp	492	1	LWWL	492	1	blank2r.bmp	572	1	gierig	866	1	!	1292	1	!	1306	0	0	0	0	0	0	0	0	0	0	0	0	0	0	0	0	0	0	0	0	0	0	0	0	0	0	0	0	0	0
070819	17:01:00	17:05:37	277003	5.0.10.0	5_exp_RW	25	Rpleas_acq	CS_A	DXXD	CPPC	JQQJ	LWWL	ZHHZ	YFFY	träumen	sonnig	küssen	gütig	genießen	vertrauen	töten	sterben	krank	gierig	gemein	versagen	1	acq_USpleas_CSpleas1_RW	acq4567_RW	4	1	400	1	300	300	448	50	0	1	1	blank2r.bmp	0	1	+	0	1	blank2r.bmp	492	1	DXXD	492	1	blank2r.bmp	572	2	sonnig	866	1	!	1239	1	!	1346	0	0	0	0	0	0	0	0	0	0	0	0	0	0	0	0	0	0	0	0	0	0	0	0	0	0	0	0	0	0
070819	17:01:00	17:05:40	279202	5.0.10.0	5_exp_RW	25	Rpleas_acq	CS_A	DXXD	CPPC	JQQJ	LWWL	ZHHZ	YFFY	träumen	sonnig	küssen	gütig	genießen	vertrauen	töten	sterben	krank	gierig	gemein	versagen	1	acq_USpleas_CSpleas2_RW	acq4567_RW	4	2	400	1	300	300	408	50	0	1	1	blank2r.bmp	0	1	+	0	1	blank2r.bmp	492	1	CPPC	492	1	blank2r.bmp	572	3	vertrauen	866	1	!	1239	1	!	1306	0	0	0	0	0	0	0	0	0	0	0	0	0	0	0	0	0	0	0	0	0	0	0	0	0	0	0	0	0	0
070819	17:01:00	17:05:42	281388	5.0.10.0	5_exp_RW	25	Rpleas_acq	CS_A	DXXD	CPPC	JQQJ	LWWL	ZHHZ	YFFY	träumen	sonnig	küssen	gütig	genießen	vertrauen	töten	sterben	krank	gierig	gemein	versagen	1	acq_USunple_CSunple2_RW	acq4567_RW	4	3	400	1	300	300	386	46	0	1	1	blank2r.bmp	0	1	+	0	1	blank2r.bmp	492	1	LWWL	492	1	blank2r.bmp	572	3	versagen	866	1	!	1239	1	!	1292	0	0	0	0	0	0	0	0	0	0	0	0	0	0	0	0	0	0	0	0	0	0	0	0	0	0	0	0	0	0
070819	17:01:00	17:05:44	283587	5.0.10.0	5_exp_RW	25	Rpleas_acq	CS_A	DXXD	CPPC	JQQJ	LWWL	ZHHZ	YFFY	träumen	sonnig	küssen	gütig	genießen	vertrauen	töten	sterben	krank	gierig	gemein	versagen	1	acq_USunple_CSunple2_RW	acq4567_RW	4	4	400	1	300	300	403	46	0	1	1	blank2r.bmp	0	1	+	0	1	blank2r.bmp	492	1	LWWL	492	1	blank2r.bmp	572	2	gemein	866	1	!	1239	1	!	1306	0	0	0	0	0	0	0	0	0	0	0	0	0	0	0	0	0	0	0	0	0	0	0	0	0	0	0	0	0	0
070819	17:01:00	17:05:46	285759	5.0.10.0	5_exp_RW	25	Rpleas_acq	CS_A	DXXD	CPPC	JQQJ	LWWL	ZHHZ	YFFY	träumen	sonnig	küssen	gütig	genießen	vertrauen	töten	sterben	krank	gierig	gemein	versagen	1	acq_USunple_CSunple2_RW	acq4567_RW	4	5	400	1	300	300	382	46	0	1	1	blank2r.bmp	0	1	+	0	1	blank2r.bmp	492	1	LWWL	492	1	blank2r.bmp	572	2	gemein	866	1	!	1239	1	!	1279	0	0	0	0	0	0	0	0	0	0	0	0	0	0	0	0	0	0	0	0	0	0	0	0	0	0	0	0	0	0
070819	17:01:00	17:05:48	287959	5.0.10.0	5_exp_RW	25	Rpleas_acq	CS_A	DXXD	CPPC	JQQJ	LWWL	ZHHZ	YFFY	träumen	sonnig	küssen	gütig	genießen	vertrauen	töten	sterben	krank	gierig	gemein	versagen	1	acq_USpleas_CSpleas1_RW	acq4567_RW	4	6	400	1	300	300	398	50	0	1	1	blank2r.bmp	0	1	+	0	1	blank2r.bmp	492	1	DXXD	492	1	blank2r.bmp	572	1	träumen	866	1	!	1239	1	!	1292	0	0	0	0	0	0	0	0	0	0	0	0	0	0	0	0	0	0	0	0	0	0	0	0	0	0	0	0	0	0
070819	17:01:00	17:05:51	290184	5.0.10.0	5_exp_RW	25	Rpleas_acq	CS_A	DXXD	CPPC	JQQJ	LWWL	ZHHZ	YFFY	träumen	sonnig	küssen	gütig	genießen	vertrauen	töten	sterben	krank	gierig	gemein	versagen	1	acq_USunple_CSunple1_RW	acq4567_RW	4	7	400	1	300	300	419	46	0	1	1	blank2r.bmp	0	1	+	0	1	blank2r.bmp	492	1	JQQJ	492	1	blank2r.bmp	572	2	sterben	866	1	!	1239	1	!	1319	0	0	0	0	0	0	0	0	0	0	0	0	0	0	0	0	0	0	0	0	0	0	0	0	0	0	0	0	0	0
070819	17:01:00	17:05:53	292343	5.0.10.0	5_exp_RW	25	Rpleas_acq	CS_A	DXXD	CPPC	JQQJ	LWWL	ZHHZ	YFFY	träumen	sonnig	küssen	gütig	genießen	vertrauen	töten	sterben	krank	gierig	gemein	versagen	1	acq_USpleas_CSpleas1_RW	acq4567_RW	4	8	400	1	300	300	361	50	0	1	1	blank2r.bmp	0	1	+	0	1	blank2r.bmp	492	1	DXXD	492	1	blank2r.bmp	572	2	sonnig	866	1	!	1239	1	!	1266	0	0	0	0	0	0	0	0	0	0	0	0	0	0	0	0	0	0	0	0	0	0	0	0	0	0	0	0	0	0
070819	17:01:00	17:05:55	294542	5.0.10.0	5_exp_RW	25	Rpleas_acq	CS_A	DXXD	CPPC	JQQJ	LWWL	ZHHZ	YFFY	träumen	sonnig	küssen	gütig	genießen	vertrauen	töten	sterben	krank	gierig	gemein	versagen	1	acq_USpleas_CSpleas2_RW	acq4567_RW	4	9	400	1	300	300	386	50	0	1	1	blank2r.bmp	0	1	+	0	1	blank2r.bmp	492	1	CPPC	492	1	blank2r.bmp	572	1	gütig	866	1	!	1239	1	!	1292	0	0	0	0	0	0	0	0	0	0	0	0	0	0	0	0	0	0	0	0	0	0	0	0	0	0	0	0	0	0
070819	17:01:00	17:05:57	296795	5.0.10.0	5_exp_RW	25	Rpleas_acq	CS_A	DXXD	CPPC	JQQJ	LWWL	ZHHZ	YFFY	träumen	sonnig	küssen	gütig	genießen	vertrauen	töten	sterben	krank	gierig	gemein	versagen	1	acq_USpleas_CSpleas2_RW	acq4567_RW	4	10	400	1	300	300	450	50	0	1	1	blank2r.bmp	0	1	+	0	1	blank2r.bmp	492	1	CPPC	492	1	blank2r.bmp	572	3	vertrauen	866	1	!	1239	1	!	1346	0	0	0	0	0	0	0	0	0	0	0	0	0	0	0	0	0	0	0	0	0	0	0	0	0	0	0	0	0	0
070819	17:01:00	17:05:59	298967	5.0.10.0	5_exp_RW	25	Rpleas_acq	CS_A	DXXD	CPPC	JQQJ	LWWL	ZHHZ	YFFY	träumen	sonnig	küssen	gütig	genießen	vertrauen	töten	sterben	krank	gierig	gemein	versagen	1	acq_USpleas_CSpleas2_RW	acq4567_RW	4	11	400	1	300	300	372	50	0	1	1	blank2r.bmp	0	1	+	0	1	blank2r.bmp	492	1	CPPC	492	1	blank2r.bmp	572	1	gütig	866	1	!	1239	1	!	1279	0	0	0	0	0	0	0	0	0	0	0	0	0	0	0	0	0	0	0	0	0	0	0	0	0	0	0	0	0	0
070819	17:01:00	17:06:02	301153	5.0.10.0	5_exp_RW	25	Rpleas_acq	CS_A	DXXD	CPPC	JQQJ	LWWL	ZHHZ	YFFY	träumen	sonnig	küssen	gütig	genießen	vertrauen	töten	sterben	krank	gierig	gemein	versagen	1	acq_USpleas_CSpleas1_RW	acq4567_RW	4	12	400	1	300	300	388	46	0	0	1	blank2r.bmp	0	1	+	0	1	blank2r.bmp	492	1	DXXD	492	1	blank2r.bmp	572	3	küssen	866	1	!	1239	1	!	1292	0	0	0	0	0	0	0	0	0	0	0	0	0	0	0	0	0	0	0	0	0	0	0	0	0	0	0	0	0	0
070819	17:01:00	17:06:09	308297	5.0.10.0	5_exp_RW	25	Rpleas_acq	CS_A	DXXD	CPPC	JQQJ	LWWL	ZHHZ	YFFY	träumen	sonnig	küssen	gütig	genießen	vertrauen	töten	sterben	krank	gierig	gemein	versagen	1	acq_USunple_CSunple2_RW	acq4567_RW	4	13	400	0	300	300	5374	50	0	0	1	blank2r.bmp	0	1	+	0	1	blank2r.bmp	492	1	LWWL	492	1	blank2r.bmp	572	3	versagen	866	1	!	1239	1	!	-1	0	0	0	0	0	0	0	0	0	0	0	0	0	0	0	0	0	0	0	0	0	0	0	0	0	0	0	0	0	0
070819	17:01:00	17:06:11	310509	5.0.10.0	5_exp_RW	25	Rpleas_acq	CS_A	DXXD	CPPC	JQQJ	LWWL	ZHHZ	YFFY	träumen	sonnig	küssen	gütig	genießen	vertrauen	töten	sterben	krank	gierig	gemein	versagen	1	acq_USunple_CSunple2_RW	acq4567_RW	4	14	400	1	300	300	411	46	0	1	1	blank2r.bmp	0	1	+	0	1	blank2r.bmp	492	1	LWWL	492	1	blank2r.bmp	572	1	gierig	866	1	!	1239	1	!	1306	0	0	0	0	0	0	0	0	0	0	0	0	0	0	0	0	0	0	0	0	0	0	0	0	0	0	0	0	0	0
070819	17:01:00	17:06:13	312708	5.0.10.0	5_exp_RW	25	Rpleas_acq	CS_A	DXXD	CPPC	JQQJ	LWWL	ZHHZ	YFFY	träumen	sonnig	küssen	gütig	genießen	vertrauen	töten	sterben	krank	gierig	gemein	versagen	1	acq_USunple_CSunple1_RW	acq4567_RW	4	15	400	1	300	300	401	46	0	1	1	blank2r.bmp	0	1	+	0	1	blank2r.bmp	492	1	JQQJ	492	1	blank2r.bmp	572	3	krank	866	1	!	1239	1	!	1306	0	0	0	0	0	0	0	0	0	0	0	0	0	0	0	0	0	0	0	0	0	0	0	0	0	0	0	0	0	0
070819	17:01:00	17:06:15	314854	5.0.10.0	5_exp_RW	25	Rpleas_acq	CS_A	DXXD	CPPC	JQQJ	LWWL	ZHHZ	YFFY	träumen	sonnig	küssen	gütig	genießen	vertrauen	töten	sterben	krank	gierig	gemein	versagen	1	acq_USunple_CSunple1_RW	acq4567_RW	4	16	400	1	300	300	346	46	0	1	1	blank2r.bmp	0	1	+	0	1	blank2r.bmp	492	1	JQQJ	492	1	blank2r.bmp	572	3	krank	866	1	!	1239	1	!	1252	0	0	0	0	0	0	0	0	0	0	0	0	0	0	0	0	0	0	0	0	0	0	0	0	0	0	0	0	0	0
070819	17:01:00	17:06:17	316933	5.0.10.0	5_exp_RW	25	Rpleas_acq	CS_A	DXXD	CPPC	JQQJ	LWWL	ZHHZ	YFFY	träumen	sonnig	küssen	gütig	genießen	vertrauen	töten	sterben	krank	gierig	gemein	versagen	1	acq_USpleas_CSpleas2_RW	acq4567_RW	4	17	400	0	300	300	299	50	0	1	1	blank2r.bmp	0	1	+	0	1	blank2r.bmp	492	1	CPPC	492	1	blank2r.bmp	572	2	genießen	866	1	!	-1	1	!	-1	0	0	0	0	0	0	0	0	0	0	0	0	0	0	0	0	0	0	0	0	0	0	0	0	0	0	0	0	0	0
070819	17:01:00	17:06:20	319159	5.0.10.0	5_exp_RW	25	Rpleas_acq	CS_A	DXXD	CPPC	JQQJ	LWWL	ZHHZ	YFFY	träumen	sonnig	küssen	gütig	genießen	vertrauen	töten	sterben	krank	gierig	gemein	versagen	1	acq_USunple_CSunple1_RW	acq4567_RW	4	18	400	1	300	300	413	46	0	1	1	blank2r.bmp	0	1	+	0	1	blank2r.bmp	492	1	JQQJ	492	1	blank2r.bmp	572	2	sterben	866	1	!	1239	1	!	1319	0	0	0	0	0	0	0	0	0	0	0	0	0	0	0	0	0	0	0	0	0	0	0	0	0	0	0	0	0	0
070819	17:01:00	17:06:22	321331	5.0.10.0	5_exp_RW	25	Rpleas_acq	CS_A	DXXD	CPPC	JQQJ	LWWL	ZHHZ	YFFY	träumen	sonnig	küssen	gütig	genießen	vertrauen	töten	sterben	krank	gierig	gemein	versagen	1	acq_USpleas_CSpleas1_RW	acq4567_RW	4	19	400	1	300	300	370	50	0	1	1	blank2r.bmp	0	1	+	0	1	blank2r.bmp	492	1	DXXD	492	1	blank2r.bmp	572	1	träumen	866	1	!	1239	1	!	1266	0	0	0	0	0	0	0	0	0	0	0	0	0	0	0	0	0	0	0	0	0	0	0	0	0	0	0	0	0	0
070819	17:01:00	17:06:24	323517	5.0.10.0	5_exp_RW	25	Rpleas_acq	CS_A	DXXD	CPPC	JQQJ	LWWL	ZHHZ	YFFY	träumen	sonnig	küssen	gütig	genießen	vertrauen	töten	sterben	krank	gierig	gemein	versagen	1	acq_USunple_CSunple1_RW	acq4567_RW	4	20	400	1	300	300	390	46	0	1	1	blank2r.bmp	0	1	+	0	1	blank2r.bmp	492	1	JQQJ	492	1	blank2r.bmp	572	1	töten	866	1	!	1239	1	!	1292	0	0	0	0	0	0	0	0	0	0	0	0	0	0	0	0	0	0	0	0	0	0	0	0	0	0	0	0	0	0
070819	17:01:00	17:06:26	325769	5.0.10.0	5_exp_RW	25	Rpleas_acq	CS_A	DXXD	CPPC	JQQJ	LWWL	ZHHZ	YFFY	träumen	sonnig	küssen	gütig	genießen	vertrauen	töten	sterben	krank	gierig	gemein	versagen	1	acq_USunple_CSunple2_RW	acq4567_RW	4	21	400	0	300	300	483	46	0	1	1	blank2r.bmp	0	1	+	0	1	blank2r.bmp	492	1	LWWL	492	1	blank2r.bmp	572	1	gierig	866	1	!	1239	1	!	-1	0	0	0	0	0	0	0	0	0	0	0	0	0	0	0	0	0	0	0	0	0	0	0	0	0	0	0	0	0	0
070819	17:01:00	17:06:28	327928	5.0.10.0	5_exp_RW	25	Rpleas_acq	CS_A	DXXD	CPPC	JQQJ	LWWL	ZHHZ	YFFY	träumen	sonnig	küssen	gütig	genießen	vertrauen	töten	sterben	krank	gierig	gemein	versagen	1	acq_USpleas_CSpleas1_RW	acq4567_RW	4	22	400	1	300	300	346	50	0	1	1	blank2r.bmp	0	1	+	0	1	blank2r.bmp	492	1	DXXD	492	1	blank2r.bmp	572	3	küssen	866	1	!	1239	1	!	1252	0	0	0	0	0	0	0	0	0	0	0	0	0	0	0	0	0	0	0	0	0	0	0	0	0	0	0	0	0	0
070819	17:01:00	17:06:31	330128	5.0.10.0	5_exp_RW	25	Rpleas_acq	CS_A	DXXD	CPPC	JQQJ	LWWL	ZHHZ	YFFY	träumen	sonnig	küssen	gütig	genießen	vertrauen	töten	sterben	krank	gierig	gemein	versagen	1	acq_USunple_CSunple1_RW	acq4567_RW	4	23	400	1	300	300	404	46	0	1	1	blank2r.bmp	0	1	+	0	1	blank2r.bmp	492	1	JQQJ	492	1	blank2r.bmp	572	1	töten	866	1	!	1239	1	!	1306	0	0	0	0	0	0	0	0	0	0	0	0	0	0	0	0	0	0	0	0	0	0	0	0	0	0	0	0	0	0
070819	17:01:00	17:06:33	332127	5.0.10.0	5_exp_RW	25	Rpleas_acq	CS_A	DXXD	CPPC	JQQJ	LWWL	ZHHZ	YFFY	träumen	sonnig	küssen	gütig	genießen	vertrauen	töten	sterben	krank	gierig	gemein	versagen	1	acq_USpleas_CSpleas1_RW	acq4567_RW	4	24	400	0	300	300	231	50	0	1	1	blank2r.bmp	0	1	+	0	1	blank2r.bmp	492	1	DXXD	492	1	blank2r.bmp	572	1	träumen	866	1	!	-1	1	!	-1	0	0	0	0	0	0	0	0	0	0	0	0	0	0	0	0	0	0	0	0	0	0	0	0	0	0	0	0	0	0
070819	17:01:00	17:06:35	334366	5.0.10.0	5_exp_RW	25	Rpleas_acq	CS_A	DXXD	CPPC	JQQJ	LWWL	ZHHZ	YFFY	träumen	sonnig	küssen	gütig	genießen	vertrauen	töten	sterben	krank	gierig	gemein	versagen	1	acq_USpleas_CSpleas1_RW	acq4567_RW	4	25	400	1	300	300	436	50	0	1	1	blank2r.bmp	0	1	+	0	1	blank2r.bmp	492	1	DXXD	492	1	blank2r.bmp	572	2	sonnig	866	1	!	1239	1	!	1332	0	0	0	0	0	0	0	0	0	0	0	0	0	0	0	0	0	0	0	0	0	0	0	0	0	0	0	0	0	0
070819	17:01:00	17:06:37	336512	5.0.10.0	5_exp_RW	25	Rpleas_acq	CS_A	DXXD	CPPC	JQQJ	LWWL	ZHHZ	YFFY	träumen	sonnig	küssen	gütig	genießen	vertrauen	töten	sterben	krank	gierig	gemein	versagen	1	acq_USpleas_CSpleas2_RW	acq4567_RW	4	26	400	1	300	300	350	50	0	1	1	blank2r.bmp	0	1	+	0	1	blank2r.bmp	492	1	CPPC	492	1	blank2r.bmp	572	3	vertrauen	866	1	!	1239	1	!	1252	0	0	0	0	0	0	0	0	0	0	0	0	0	0	0	0	0	0	0	0	0	0	0	0	0	0	0	0	0	0
070819	17:01:00	17:06:39	338604	5.0.10.0	5_exp_RW	25	Rpleas_acq	CS_A	DXXD	CPPC	JQQJ	LWWL	ZHHZ	YFFY	träumen	sonnig	küssen	gütig	genießen	vertrauen	töten	sterben	krank	gierig	gemein	versagen	1	acq_USunple_CSunple2_RW	acq4567_RW	4	27	400	0	300	300	321	50	0	0	1	blank2r.bmp	0	1	+	0	1	blank2r.bmp	492	1	LWWL	492	1	blank2r.bmp	572	3	versagen	866	1	!	-1	1	!	-1	0	0	0	0	0	0	0	0	0	0	0	0	0	0	0	0	0	0	0	0	0	0	0	0	0	0	0	0	0	0
070819	17:01:00	17:06:41	340696	5.0.10.0	5_exp_RW	25	Rpleas_acq	CS_A	DXXD	CPPC	JQQJ	LWWL	ZHHZ	YFFY	träumen	sonnig	küssen	gütig	genießen	vertrauen	töten	sterben	krank	gierig	gemein	versagen	1	acq_USpleas_CSpleas2_RW	acq4567_RW	4	28	400	0	300	300	313	50	0	1	1	blank2r.bmp	0	1	+	0	1	blank2r.bmp	492	1	CPPC	492	1	blank2r.bmp	572	2	genießen	866	1	!	-1	1	!	-1	0	0	0	0	0	0	0	0	0	0	0	0	0	0	0	0	0	0	0	0	0	0	0	0	0	0	0	0	0	0
070819	17:01:00	17:06:43	342869	5.0.10.0	5_exp_RW	25	Rpleas_acq	CS_A	DXXD	CPPC	JQQJ	LWWL	ZHHZ	YFFY	träumen	sonnig	küssen	gütig	genießen	vertrauen	töten	sterben	krank	gierig	gemein	versagen	1	acq_USpleas_CSpleas1_RW	acq4567_RW	4	29	400	1	300	300	361	50	0	1	1	blank2r.bmp	0	1	+	0	1	blank2r.bmp	492	1	DXXD	492	1	blank2r.bmp	572	3	küssen	866	1	!	1239	1	!	1266	0	0	0	0	0	0	0	0	0	0	0	0	0	0	0	0	0	0	0	0	0	0	0	0	0	0	0	0	0	0
070819	17:01:00	17:06:46	345108	5.0.10.0	5_exp_RW	25	Rpleas_acq	CS_A	DXXD	CPPC	JQQJ	LWWL	ZHHZ	YFFY	träumen	sonnig	küssen	gütig	genießen	vertrauen	töten	sterben	krank	gierig	gemein	versagen	1	acq_USpleas_CSpleas1_RW	acq4567_RW	4	30	400	1	300	300	451	50	0	1	1	blank2r.bmp	0	1	+	0	1	blank2r.bmp	492	1	DXXD	492	1	blank2r.bmp	572	2	sonnig	866	1	!	1239	1	!	1346	0	0	0	0	0	0	0	0	0	0	0	0	0	0	0	0	0	0	0	0	0	0	0	0	0	0	0	0	0	0
070819	17:01:00	17:06:48	347160	5.0.10.0	5_exp_RW	25	Rpleas_acq	CS_A	DXXD	CPPC	JQQJ	LWWL	ZHHZ	YFFY	träumen	sonnig	küssen	gütig	genießen	vertrauen	töten	sterben	krank	gierig	gemein	versagen	1	acq_USunple_CSunple1_RW	acq4567_RW	4	31	400	0	300	300	289	46	0	1	1	blank2r.bmp	0	1	+	0	1	blank2r.bmp	492	1	JQQJ	492	1	blank2r.bmp	572	2	sterben	866	1	!	-1	1	!	-1	0	0	0	0	0	0	0	0	0	0	0	0	0	0	0	0	0	0	0	0	0	0	0	0	0	0	0	0	0	0
070819	17:01:00	17:06:50	349240	5.0.10.0	5_exp_RW	25	Rpleas_acq	CS_A	DXXD	CPPC	JQQJ	LWWL	ZHHZ	YFFY	träumen	sonnig	küssen	gütig	genießen	vertrauen	töten	sterben	krank	gierig	gemein	versagen	1	acq_USunple_CSunple2_RW	acq4567_RW	4	32	400	0	300	300	292	50	0	0	1	blank2r.bmp	0	1	+	0	1	blank2r.bmp	492	1	LWWL	492	1	blank2r.bmp	572	2	gemein	866	1	!	-1	1	!	-1	0	0	0	0	0	0	0	0	0	0	0	0	0	0	0	0	0	0	0	0	0	0	0	0	0	0	0	0	0	0
070819	17:01:00	17:06:52	351425	5.0.10.0	5_exp_RW	25	Rpleas_acq	CS_A	DXXD	CPPC	JQQJ	LWWL	ZHHZ	YFFY	träumen	sonnig	küssen	gütig	genießen	vertrauen	töten	sterben	krank	gierig	gemein	versagen	1	acq_USunple_CSunple2_RW	acq4567_RW	4	33	400	1	300	300	384	46	0	1	1	blank2r.bmp	0	1	+	0	1	blank2r.bmp	492	1	LWWL	492	1	blank2r.bmp	572	1	gierig	866	1	!	1239	1	!	1279	0	0	0	0	0	0	0	0	0	0	0	0	0	0	0	0	0	0	0	0	0	0	0	0	0	0	0	0	0	0
070819	17:01:00	17:06:54	353571	5.0.10.0	5_exp_RW	25	Rpleas_acq	CS_A	DXXD	CPPC	JQQJ	LWWL	ZHHZ	YFFY	träumen	sonnig	küssen	gütig	genießen	vertrauen	töten	sterben	krank	gierig	gemein	versagen	1	acq_USunple_CSunple1_RW	acq4567_RW	4	34	400	1	300	300	346	46	0	1	1	blank2r.bmp	0	1	+	0	1	blank2r.bmp	492	1	JQQJ	492	1	blank2r.bmp	572	3	krank	866	1	!	1239	1	!	1252	0	0	0	0	0	0	0	0	0	0	0	0	0	0	0	0	0	0	0	0	0	0	0	0	0	0	0	0	0	0
070819	17:01:00	17:06:56	355743	5.0.10.0	5_exp_RW	25	Rpleas_acq	CS_A	DXXD	CPPC	JQQJ	LWWL	ZHHZ	YFFY	träumen	sonnig	küssen	gütig	genießen	vertrauen	töten	sterben	krank	gierig	gemein	versagen	1	acq_USpleas_CSpleas2_RW	acq4567_RW	4	35	400	1	300	300	362	50	0	1	1	blank2r.bmp	0	1	+	0	1	blank2r.bmp	492	1	CPPC	492	1	blank2r.bmp	572	1	gütig	866	1	!	1239	1	!	1266	0	0	0	0	0	0	0	0	0	0	0	0	0	0	0	0	0	0	0	0	0	0	0	0	0	0	0	0	0	0
070819	17:01:00	17:06:58	357996	5.0.10.0	5_exp_RW	25	Rpleas_acq	CS_A	DXXD	CPPC	JQQJ	LWWL	ZHHZ	YFFY	träumen	sonnig	küssen	gütig	genießen	vertrauen	töten	sterben	krank	gierig	gemein	versagen	1	acq_USpleas_CSpleas2_RW	acq4567_RW	4	36	400	1	300	300	460	50	0	1	1	blank2r.bmp	0	1	+	0	1	blank2r.bmp	492	1	CPPC	492	1	blank2r.bmp	572	3	vertrauen	866	1	!	1239	1	!	1359	0	0	0	0	0	0	0	0	0	0	0	0	0	0	0	0	0	0	0	0	0	0	0	0	0	0	0	0	0	0
070819	17:01:00	17:07:01	360182	5.0.10.0	5_exp_RW	25	Rpleas_acq	CS_A	DXXD	CPPC	JQQJ	LWWL	ZHHZ	YFFY	träumen	sonnig	küssen	gütig	genießen	vertrauen	töten	sterben	krank	gierig	gemein	versagen	1	acq_USpleas_CSpleas2_RW	acq4567_RW	4	37	400	1	300	300	396	50	0	1	1	blank2r.bmp	0	1	+	0	1	blank2r.bmp	492	1	CPPC	492	1	blank2r.bmp	572	2	genießen	866	1	!	1239	1	!	1292	0	0	0	0	0	0	0	0	0	0	0	0	0	0	0	0	0	0	0	0	0	0	0	0	0	0	0	0	0	0
070819	17:01:00	17:07:03	362354	5.0.10.0	5_exp_RW	25	Rpleas_acq	CS_A	DXXD	CPPC	JQQJ	LWWL	ZHHZ	YFFY	träumen	sonnig	küssen	gütig	genießen	vertrauen	töten	sterben	krank	gierig	gemein	versagen	1	acq_USunple_CSunple1_RW	acq4567_RW	4	38	400	1	300	300	377	46	0	1	1	blank2r.bmp	0	1	+	0	1	blank2r.bmp	492	1	JQQJ	492	1	blank2r.bmp	572	2	sterben	866	1	!	1239	1	!	1279	0	0	0	0	0	0	0	0	0	0	0	0	0	0	0	0	0	0	0	0	0	0	0	0	0	0	0	0	0	0
070819	17:01:00	17:07:05	364580	5.0.10.0	5_exp_RW	25	Rpleas_acq	CS_A	DXXD	CPPC	JQQJ	LWWL	ZHHZ	YFFY	träumen	sonnig	küssen	gütig	genießen	vertrauen	töten	sterben	krank	gierig	gemein	versagen	1	acq_USunple_CSunple2_RW	acq4567_RW	4	39	400	1	300	300	421	46	0	1	1	blank2r.bmp	0	1	+	0	1	blank2r.bmp	492	1	LWWL	492	1	blank2r.bmp	572	2	gemein	866	1	!	1239	1	!	1319	0	0	0	0	0	0	0	0	0	0	0	0	0	0	0	0	0	0	0	0	0	0	0	0	0	0	0	0	0	0
070819	17:01:00	17:07:07	366672	5.0.10.0	5_exp_RW	25	Rpleas_acq	CS_A	DXXD	CPPC	JQQJ	LWWL	ZHHZ	YFFY	träumen	sonnig	küssen	gütig	genießen	vertrauen	töten	sterben	krank	gierig	gemein	versagen	1	acq_USunple_CSunple1_RW	acq4567_RW	4	40	400	0	300	300	326	46	0	1	1	blank2r.bmp	0	1	+	0	1	blank2r.bmp	492	1	JQQJ	492	1	blank2r.bmp	572	1	töten	866	1	!	-1	1	!	-1	0	0	0	0	0	0	0	0	0	0	0	0	0	0	0	0	0	0	0	0	0	0	0	0	0	0	0	0	0	0
070819	17:01:00	17:07:09	368871	5.0.10.0	5_exp_RW	25	Rpleas_acq	CS_A	DXXD	CPPC	JQQJ	LWWL	ZHHZ	YFFY	träumen	sonnig	küssen	gütig	genießen	vertrauen	töten	sterben	krank	gierig	gemein	versagen	1	acq_USpleas_CSpleas2_RW	acq4567_RW	4	41	400	1	300	300	394	50	0	1	1	blank2r.bmp	0	1	+	0	1	blank2r.bmp	492	1	CPPC	492	1	blank2r.bmp	572	1	gütig	866	1	!	1239	1	!	1292	0	0	0	0	0	0	0	0	0	0	0	0	0	0	0	0	0	0	0	0	0	0	0	0	0	0	0	0	0	0
070819	17:01:00	17:07:12	371124	5.0.10.0	5_exp_RW	25	Rpleas_acq	CS_A	DXXD	CPPC	JQQJ	LWWL	ZHHZ	YFFY	träumen	sonnig	küssen	gütig	genießen	vertrauen	töten	sterben	krank	gierig	gemein	versagen	1	acq_USunple_CSunple2_RW	acq4567_RW	4	42	400	0	300	300	479	46	0	1	1	blank2r.bmp	0	1	+	0	1	blank2r.bmp	492	1	LWWL	492	1	blank2r.bmp	572	3	versagen	866	1	!	1239	1	!	-1	0	0	0	0	0	0	0	0	0	0	0	0	0	0	0	0	0	0	0	0	0	0	0	0	0	0	0	0	0	0
070819	17:01:00	17:07:14	373376	5.0.10.0	5_exp_RW	25	Rpleas_acq	CS_A	DXXD	CPPC	JQQJ	LWWL	ZHHZ	YFFY	träumen	sonnig	küssen	gütig	genießen	vertrauen	töten	sterben	krank	gierig	gemein	versagen	1	acq_USpleas_CSpleas2_RW	acq4567_RW	4	43	400	1	300	300	434	50	0	1	1	blank2r.bmp	0	1	+	0	1	blank2r.bmp	492	1	CPPC	492	1	blank2r.bmp	572	3	vertrauen	866	1	!	1239	1	!	1332	0	0	0	0	0	0	0	0	0	0	0	0	0	0	0	0	0	0	0	0	0	0	0	0	0	0	0	0	0	0
070819	17:01:00	17:07:16	375602	5.0.10.0	5_exp_RW	25	Rpleas_acq	CS_A	DXXD	CPPC	JQQJ	LWWL	ZHHZ	YFFY	träumen	sonnig	küssen	gütig	genießen	vertrauen	töten	sterben	krank	gierig	gemein	versagen	1	acq_USpleas_CSpleas1_RW	acq4567_RW	4	44	400	1	300	300	432	50	0	1	1	blank2r.bmp	0	1	+	0	1	blank2r.bmp	492	1	DXXD	492	1	blank2r.bmp	572	1	träumen	866	1	!	1239	1	!	1332	0	0	0	0	0	0	0	0	0	0	0	0	0	0	0	0	0	0	0	0	0	0	0	0	0	0	0	0	0	0
070819	17:01:00	17:07:18	377748	5.0.10.0	5_exp_RW	25	Rpleas_acq	CS_A	DXXD	CPPC	JQQJ	LWWL	ZHHZ	YFFY	träumen	sonnig	küssen	gütig	genießen	vertrauen	töten	sterben	krank	gierig	gemein	versagen	1	acq_USunple_CSunple1_RW	acq4567_RW	4	45	400	1	300	300	349	46	0	1	1	blank2r.bmp	0	1	+	0	1	blank2r.bmp	492	1	JQQJ	492	1	blank2r.bmp	572	3	krank	866	1	!	1239	1	!	1252	0	0	0	0	0	0	0	0	0	0	0	0	0	0	0	0	0	0	0	0	0	0	0	0	0	0	0	0	0	0
070819	17:01:00	17:07:20	379973	5.0.10.0	5_exp_RW	25	Rpleas_acq	CS_A	DXXD	CPPC	JQQJ	LWWL	ZHHZ	YFFY	träumen	sonnig	küssen	gütig	genießen	vertrauen	töten	sterben	krank	gierig	gemein	versagen	1	acq_USunple_CSunple1_RW	acq4567_RW	4	46	400	1	300	300	426	46	0	1	1	blank2r.bmp	0	1	+	0	1	blank2r.bmp	492	1	JQQJ	492	1	blank2r.bmp	572	3	krank	866	1	!	1239	1	!	1332	0	0	0	0	0	0	0	0	0	0	0	0	0	0	0	0	0	0	0	0	0	0	0	0	0	0	0	0	0	0
070819	17:01:00	17:07:23	382159	5.0.10.0	5_exp_RW	25	Rpleas_acq	CS_A	DXXD	CPPC	JQQJ	LWWL	ZHHZ	YFFY	träumen	sonnig	küssen	gütig	genießen	vertrauen	töten	sterben	krank	gierig	gemein	versagen	1	acq_USunple_CSunple2_RW	acq4567_RW	4	47	400	1	300	300	389	46	0	1	1	blank2r.bmp	0	1	+	0	1	blank2r.bmp	492	1	LWWL	492	1	blank2r.bmp	572	1	gierig	866	1	!	1239	1	!	1292	0	0	0	0	0	0	0	0	0	0	0	0	0	0	0	0	0	0	0	0	0	0	0	0	0	0	0	0	0	0
070819	17:01:00	17:07:25	384305	5.0.10.0	5_exp_RW	25	Rpleas_acq	CS_A	DXXD	CPPC	JQQJ	LWWL	ZHHZ	YFFY	träumen	sonnig	küssen	gütig	genießen	vertrauen	töten	sterben	krank	gierig	gemein	versagen	1	acq_USpleas_CSpleas2_RW	acq4567_RW	4	48	400	1	300	300	346	46	0	0	1	blank2r.bmp	0	1	+	0	1	blank2r.bmp	492	1	CPPC	492	1	blank2r.bmp	572	2	genießen	866	1	!	1239	1	!	1252	0	0	0	0	0	0	0	0	0	0	0	0	0	0	0	0	0	0	0	0	0	0	0	0	0	0	0	0	0	0
070819	17:01:00	17:07:27	386557	5.0.10.0	5_exp_RW	25	Rpleas_acq	CS_A	DXXD	CPPC	JQQJ	LWWL	ZHHZ	YFFY	träumen	sonnig	küssen	gütig	genießen	vertrauen	töten	sterben	krank	gierig	gemein	versagen	1	acq_USpleas_CSpleas1_RW	acq4567_RW	4	49	400	1	300	300	447	50	0	1	1	blank2r.bmp	0	1	+	0	1	blank2r.bmp	492	1	DXXD	492	1	blank2r.bmp	572	3	küssen	866	1	!	1239	1	!	1346	0	0	0	0	0	0	0	0	0	0	0	0	0	0	0	0	0	0	0	0	0	0	0	0	0	0	0	0	0	0
070819	17:01:00	17:07:29	388730	5.0.10.0	5_exp_RW	25	Rpleas_acq	CS_A	DXXD	CPPC	JQQJ	LWWL	ZHHZ	YFFY	träumen	sonnig	küssen	gütig	genießen	vertrauen	töten	sterben	krank	gierig	gemein	versagen	1	acq_USpleas_CSpleas2_RW	acq4567_RW	4	50	400	1	300	300	382	50	0	1	1	blank2r.bmp	0	1	+	0	1	blank2r.bmp	492	1	CPPC	492	1	blank2r.bmp	572	1	gütig	866	1	!	1239	1	!	1279	0	0	0	0	0	0	0	0	0	0	0	0	0	0	0	0	0	0	0	0	0	0	0	0	0	0	0	0	0	0
070819	17:01:00	17:07:31	390915	5.0.10.0	5_exp_RW	25	Rpleas_acq	CS_A	DXXD	CPPC	JQQJ	LWWL	ZHHZ	YFFY	träumen	sonnig	küssen	gütig	genießen	vertrauen	töten	sterben	krank	gierig	gemein	versagen	1	acq_USpleas_CSpleas1_RW	acq4567_RW	4	51	400	1	300	300	390	50	0	1	1	blank2r.bmp	0	1	+	0	1	blank2r.bmp	492	1	DXXD	492	1	blank2r.bmp	572	1	träumen	866	1	!	1239	1	!	1292	0	0	0	0	0	0	0	0	0	0	0	0	0	0	0	0	0	0	0	0	0	0	0	0	0	0	0	0	0	0
070819	17:01:00	17:07:34	393128	5.0.10.0	5_exp_RW	25	Rpleas_acq	CS_A	DXXD	CPPC	JQQJ	LWWL	ZHHZ	YFFY	träumen	sonnig	küssen	gütig	genießen	vertrauen	töten	sterben	krank	gierig	gemein	versagen	1	acq_USunple_CSunple2_RW	acq4567_RW	4	52	400	1	300	300	420	46	0	1	1	blank2r.bmp	0	1	+	0	1	blank2r.bmp	492	1	LWWL	492	1	blank2r.bmp	572	3	versagen	866	1	!	1239	1	!	1319	0	0	0	0	0	0	0	0	0	0	0	0	0	0	0	0	0	0	0	0	0	0	0	0	0	0	0	0	0	0
070819	17:01:00	17:07:36	395354	5.0.10.0	5_exp_RW	25	Rpleas_acq	CS_A	DXXD	CPPC	JQQJ	LWWL	ZHHZ	YFFY	träumen	sonnig	küssen	gütig	genießen	vertrauen	töten	sterben	krank	gierig	gemein	versagen	1	acq_USpleas_CSpleas2_RW	acq4567_RW	4	53	400	1	300	300	430	50	0	1	1	blank2r.bmp	0	1	+	0	1	blank2r.bmp	492	1	CPPC	492	1	blank2r.bmp	572	2	genießen	866	1	!	1239	1	!	1332	0	0	0	0	0	0	0	0	0	0	0	0	0	0	0	0	0	0	0	0	0	0	0	0	0	0	0	0	0	0
070819	17:01:00	17:07:38	397566	5.0.10.0	5_exp_RW	25	Rpleas_acq	CS_A	DXXD	CPPC	JQQJ	LWWL	ZHHZ	YFFY	träumen	sonnig	küssen	gütig	genießen	vertrauen	töten	sterben	krank	gierig	gemein	versagen	1	acq_USunple_CSunple1_RW	acq4567_RW	4	54	400	1	300	300	419	46	0	1	1	blank2r.bmp	0	1	+	0	1	blank2r.bmp	492	1	JQQJ	492	1	blank2r.bmp	572	2	sterben	866	1	!	1239	1	!	1319	0	0	0	0	0	0	0	0	0	0	0	0	0	0	0	0	0	0	0	0	0	0	0	0	0	0	0	0	0	0
070819	17:01:00	17:07:40	399832	5.0.10.0	5_exp_RW	25	Rpleas_acq	CS_A	DXXD	CPPC	JQQJ	LWWL	ZHHZ	YFFY	träumen	sonnig	küssen	gütig	genießen	vertrauen	töten	sterben	krank	gierig	gemein	versagen	1	acq_USunple_CSunple2_RW	acq4567_RW	4	55	400	0	300	300	493	46	0	1	1	blank2r.bmp	0	1	+	0	1	blank2r.bmp	492	1	LWWL	492	1	blank2r.bmp	572	2	gemein	866	1	!	1239	1	!	-1	0	0	0	0	0	0	0	0	0	0	0	0	0	0	0	0	0	0	0	0	0	0	0	0	0	0	0	0	0	0
070819	17:01:00	17:07:43	402031	5.0.10.0	5_exp_RW	25	Rpleas_acq	CS_A	DXXD	CPPC	JQQJ	LWWL	ZHHZ	YFFY	träumen	sonnig	küssen	gütig	genießen	vertrauen	töten	sterben	krank	gierig	gemein	versagen	1	acq_USunple_CSunple1_RW	acq4567_RW	4	56	400	1	300	300	386	46	0	1	1	blank2r.bmp	0	1	+	0	1	blank2r.bmp	492	1	JQQJ	492	1	blank2r.bmp	572	1	töten	866	1	!	1239	1	!	1292	0	0	0	0	0	0	0	0	0	0	0	0	0	0	0	0	0	0	0	0	0	0	0	0	0	0	0	0	0	0
070819	17:01:00	17:07:45	404123	5.0.10.0	5_exp_RW	25	Rpleas_acq	CS_A	DXXD	CPPC	JQQJ	LWWL	ZHHZ	YFFY	träumen	sonnig	küssen	gütig	genießen	vertrauen	töten	sterben	krank	gierig	gemein	versagen	1	acq_USpleas_CSpleas1_RW	acq4567_RW	4	57	400	0	300	300	330	50	0	1	1	blank2r.bmp	0	1	+	0	1	blank2r.bmp	492	1	DXXD	492	1	blank2r.bmp	572	2	sonnig	866	1	!	-1	1	!	-1	0	0	0	0	0	0	0	0	0	0	0	0	0	0	0	0	0	0	0	0	0	0	0	0	0	0	0	0	0	0
070819	17:01:00	17:07:47	406296	5.0.10.0	5_exp_RW	25	Rpleas_acq	CS_A	DXXD	CPPC	JQQJ	LWWL	ZHHZ	YFFY	träumen	sonnig	küssen	gütig	genießen	vertrauen	töten	sterben	krank	gierig	gemein	versagen	1	acq_USunple_CSunple1_RW	acq4567_RW	4	58	400	1	300	300	368	46	0	1	1	blank2r.bmp	0	1	+	0	1	blank2r.bmp	492	1	JQQJ	492	1	blank2r.bmp	572	3	krank	866	1	!	1239	1	!	1266	0	0	0	0	0	0	0	0	0	0	0	0	0	0	0	0	0	0	0	0	0	0	0	0	0	0	0	0	0	0
070819	17:01:00	17:07:49	408548	5.0.10.0	5_exp_RW	25	Rpleas_acq	CS_A	DXXD	CPPC	JQQJ	LWWL	ZHHZ	YFFY	träumen	sonnig	küssen	gütig	genießen	vertrauen	töten	sterben	krank	gierig	gemein	versagen	1	acq_USunple_CSunple2_RW	acq4567_RW	4	59	400	1	300	300	461	46	0	1	1	blank2r.bmp	0	1	+	0	1	blank2r.bmp	492	1	LWWL	492	1	blank2r.bmp	572	3	versagen	866	1	!	1239	1	!	1359	0	0	0	0	0	0	0	0	0	0	0	0	0	0	0	0	0	0	0	0	0	0	0	0	0	0	0	0	0	0
070819	17:01:00	17:07:51	410707	5.0.10.0	5_exp_RW	25	Rpleas_acq	CS_A	DXXD	CPPC	JQQJ	LWWL	ZHHZ	YFFY	träumen	sonnig	küssen	gütig	genießen	vertrauen	töten	sterben	krank	gierig	gemein	versagen	1	acq_USpleas_CSpleas1_RW	acq4567_RW	4	60	400	1	300	300	367	50	0	1	1	blank2r.bmp	0	1	+	0	1	blank2r.bmp	492	1	DXXD	492	1	blank2r.bmp	572	2	sonnig	866	1	!	1239	1	!	1266	0	0	0	0	0	0	0	0	0	0	0	0	0	0	0	0	0	0	0	0	0	0	0	0	0	0	0	0	0	0
070819	17:01:00	17:07:53	412813	5.0.10.0	5_exp_RW	25	Rpleas_acq	CS_A	DXXD	CPPC	JQQJ	LWWL	ZHHZ	YFFY	träumen	sonnig	küssen	gütig	genießen	vertrauen	töten	sterben	krank	gierig	gemein	versagen	1	acq_USunple_CSunple2_RW	acq4567_RW	4	61	400	0	300	300	331	46	0	1	1	blank2r.bmp	0	1	+	0	1	blank2r.bmp	492	1	LWWL	492	1	blank2r.bmp	572	1	gierig	866	1	!	-1	1	!	-1	0	0	0	0	0	0	0	0	0	0	0	0	0	0	0	0	0	0	0	0	0	0	0	0	0	0	0	0	0	0
070819	17:01:00	17:07:56	415079	5.0.10.0	5_exp_RW	25	Rpleas_acq	CS_A	DXXD	CPPC	JQQJ	LWWL	ZHHZ	YFFY	träumen	sonnig	küssen	gütig	genießen	vertrauen	töten	sterben	krank	gierig	gemein	versagen	1	acq_USunple_CSunple2_RW	acq4567_RW	4	62	400	1	300	300	461	46	0	1	1	blank2r.bmp	0	1	+	0	1	blank2r.bmp	492	1	LWWL	492	1	blank2r.bmp	572	2	gemein	866	1	!	1239	1	!	1359	0	0	0	0	0	0	0	0	0	0	0	0	0	0	0	0	0	0	0	0	0	0	0	0	0	0	0	0	0	0
070819	17:01:00	17:07:58	417278	5.0.10.0	5_exp_RW	25	Rpleas_acq	CS_A	DXXD	CPPC	JQQJ	LWWL	ZHHZ	YFFY	träumen	sonnig	küssen	gütig	genießen	vertrauen	töten	sterben	krank	gierig	gemein	versagen	1	acq_USpleas_CSpleas2_RW	acq4567_RW	4	63	400	1	300	300	407	50	0	1	1	blank2r.bmp	0	1	+	0	1	blank2r.bmp	492	1	CPPC	492	1	blank2r.bmp	572	1	gütig	866	1	!	1239	1	!	1306	0	0	0	0	0	0	0	0	0	0	0	0	0	0	0	0	0	0	0	0	0	0	0	0	0	0	0	0	0	0
070819	17:01:00	17:08:00	419463	5.0.10.0	5_exp_RW	25	Rpleas_acq	CS_A	DXXD	CPPC	JQQJ	LWWL	ZHHZ	YFFY	träumen	sonnig	küssen	gütig	genießen	vertrauen	töten	sterben	krank	gierig	gemein	versagen	1	acq_USunple_CSunple1_RW	acq4567_RW	4	64	400	1	300	300	396	46	0	1	1	blank2r.bmp	0	1	+	0	1	blank2r.bmp	492	1	JQQJ	492	1	blank2r.bmp	572	1	töten	866	1	!	1239	1	!	1292	0	0	0	0	0	0	0	0	0	0	0	0	0	0	0	0	0	0	0	0	0	0	0	0	0	0	0	0	0	0
070819	17:01:00	17:08:02	421636	5.0.10.0	5_exp_RW	25	Rpleas_acq	CS_A	DXXD	CPPC	JQQJ	LWWL	ZHHZ	YFFY	träumen	sonnig	küssen	gütig	genießen	vertrauen	töten	sterben	krank	gierig	gemein	versagen	1	acq_USunple_CSunple1_RW	acq4567_RW	4	65	400	1	300	300	384	46	0	1	1	blank2r.bmp	0	1	+	0	1	blank2r.bmp	492	1	JQQJ	492	1	blank2r.bmp	572	2	sterben	866	1	!	1239	1	!	1279	0	0	0	0	0	0	0	0	0	0	0	0	0	0	0	0	0	0	0	0	0	0	0	0	0	0	0	0	0	0
070819	17:01:00	17:08:04	424008	5.0.10.0	5_exp_RW	25	Rpleas_acq	CS_A	DXXD	CPPC	JQQJ	LWWL	ZHHZ	YFFY	träumen	sonnig	küssen	gütig	genießen	vertrauen	töten	sterben	krank	gierig	gemein	versagen	1	acq_USpleas_CSpleas1_RW	acq4567_RW	4	66	400	0	300	300	603	46	0	0	1	blank2r.bmp	0	1	+	0	1	blank2r.bmp	492	1	DXXD	492	1	blank2r.bmp	572	1	träumen	866	1	!	1239	1	!	-1	0	0	0	0	0	0	0	0	0	0	0	0	0	0	0	0	0	0	0	0	0	0	0	0	0	0	0	0	0	0
070819	17:01:00	17:08:07	426181	5.0.10.0	5_exp_RW	25	Rpleas_acq	CS_A	DXXD	CPPC	JQQJ	LWWL	ZHHZ	YFFY	träumen	sonnig	küssen	gütig	genießen	vertrauen	töten	sterben	krank	gierig	gemein	versagen	1	acq_USunple_CSunple1_RW	acq4567_RW	4	67	400	1	300	300	356	46	0	1	1	blank2r.bmp	0	1	+	0	1	blank2r.bmp	492	1	JQQJ	492	1	blank2r.bmp	572	1	töten	866	1	!	1239	1	!	1252	0	0	0	0	0	0	0	0	0	0	0	0	0	0	0	0	0	0	0	0	0	0	0	0	0	0	0	0	0	0
070819	17:01:00	17:08:09	428420	5.0.10.0	5_exp_RW	25	Rpleas_acq	CS_A	DXXD	CPPC	JQQJ	LWWL	ZHHZ	YFFY	träumen	sonnig	küssen	gütig	genießen	vertrauen	töten	sterben	krank	gierig	gemein	versagen	1	acq_USunple_CSunple1_RW	acq4567_RW	4	68	400	1	300	300	446	46	0	1	1	blank2r.bmp	0	1	+	0	1	blank2r.bmp	492	1	JQQJ	492	1	blank2r.bmp	572	2	sterben	866	1	!	1239	1	!	1346	0	0	0	0	0	0	0	0	0	0	0	0	0	0	0	0	0	0	0	0	0	0	0	0	0	0	0	0	0	0
070819	17:01:00	17:08:11	430659	5.0.10.0	5_exp_RW	25	Rpleas_acq	CS_A	DXXD	CPPC	JQQJ	LWWL	ZHHZ	YFFY	träumen	sonnig	küssen	gütig	genießen	vertrauen	töten	sterben	krank	gierig	gemein	versagen	1	acq_USpleas_CSpleas1_RW	acq4567_RW	4	69	400	1	300	300	429	50	0	1	1	blank2r.bmp	0	1	+	0	1	blank2r.bmp	492	1	DXXD	492	1	blank2r.bmp	572	3	küssen	866	1	!	1239	1	!	1332	0	0	0	0	0	0	0	0	0	0	0	0	0	0	0	0	0	0	0	0	0	0	0	0	0	0	0	0	0	0
070819	17:01:00	17:08:13	432831	5.0.10.0	5_exp_RW	25	Rpleas_acq	CS_A	DXXD	CPPC	JQQJ	LWWL	ZHHZ	YFFY	träumen	sonnig	küssen	gütig	genießen	vertrauen	töten	sterben	krank	gierig	gemein	versagen	1	acq_USpleas_CSpleas2_RW	acq4567_RW	4	70	400	1	300	300	376	50	0	1	1	blank2r.bmp	0	1	+	0	1	blank2r.bmp	492	1	CPPC	492	1	blank2r.bmp	572	3	vertrauen	866	1	!	1239	1	!	1279	0	0	0	0	0	0	0	0	0	0	0	0	0	0	0	0	0	0	0	0	0	0	0	0	0	0	0	0	0	0
070819	17:01:00	17:08:16	435030	5.0.10.0	5_exp_RW	25	Rpleas_acq	CS_A	DXXD	CPPC	JQQJ	LWWL	ZHHZ	YFFY	träumen	sonnig	küssen	gütig	genießen	vertrauen	töten	sterben	krank	gierig	gemein	versagen	1	acq_USpleas_CSpleas1_RW	acq4567_RW	4	71	400	1	300	300	401	50	0	1	1	blank2r.bmp	0	1	+	0	1	blank2r.bmp	492	1	DXXD	492	1	blank2r.bmp	572	2	sonnig	866	1	!	1239	1	!	1306	0	0	0	0	0	0	0	0	0	0	0	0	0	0	0	0	0	0	0	0	0	0	0	0	0	0	0	0	0	0
070819	17:01:00	17:08:18	437203	5.0.10.0	5_exp_RW	25	Rpleas_acq	CS_A	DXXD	CPPC	JQQJ	LWWL	ZHHZ	YFFY	träumen	sonnig	küssen	gütig	genießen	vertrauen	töten	sterben	krank	gierig	gemein	versagen	1	acq_USunple_CSunple2_RW	acq4567_RW	4	72	400	1	300	300	383	46	0	1	1	blank2r.bmp	0	1	+	0	1	blank2r.bmp	492	1	LWWL	492	1	blank2r.bmp	572	3	versagen	866	1	!	1239	1	!	1279	0	0	0	0	0	0	0	0	0	0	0	0	0	0	0	0	0	0	0	0	0	0	0	0	0	0	0	0	0	0
070819	17:01:00	17:08:20	439362	5.0.10.0	5_exp_RW	25	Rpleas_acq	CS_A	DXXD	CPPC	JQQJ	LWWL	ZHHZ	YFFY	träumen	sonnig	küssen	gütig	genießen	vertrauen	töten	sterben	krank	gierig	gemein	versagen	1	acq_USpleas_CSpleas2_RW	acq4567_RW	4	73	400	1	300	300	346	50	0	1	1	blank2r.bmp	0	1	+	0	1	blank2r.bmp	492	1	CPPC	492	1	blank2r.bmp	572	1	gütig	866	1	!	1239	1	!	1252	0	0	0	0	0	0	0	0	0	0	0	0	0	0	0	0	0	0	0	0	0	0	0	0	0	0	0	0	0	0
070819	17:01:00	17:08:22	441588	5.0.10.0	5_exp_RW	25	Rpleas_acq	CS_A	DXXD	CPPC	JQQJ	LWWL	ZHHZ	YFFY	träumen	sonnig	küssen	gütig	genießen	vertrauen	töten	sterben	krank	gierig	gemein	versagen	1	acq_USpleas_CSpleas1_RW	acq4567_RW	4	74	400	1	300	300	429	50	0	1	1	blank2r.bmp	0	1	+	0	1	blank2r.bmp	492	1	DXXD	492	1	blank2r.bmp	572	1	träumen	866	1	!	1239	1	!	1332	0	0	0	0	0	0	0	0	0	0	0	0	0	0	0	0	0	0	0	0	0	0	0	0	0	0	0	0	0	0
070819	17:01:00	17:08:24	443787	5.0.10.0	5_exp_RW	25	Rpleas_acq	CS_A	DXXD	CPPC	JQQJ	LWWL	ZHHZ	YFFY	träumen	sonnig	küssen	gütig	genießen	vertrauen	töten	sterben	krank	gierig	gemein	versagen	1	acq_USpleas_CSpleas2_RW	acq4567_RW	4	75	400	1	300	300	396	50	0	1	1	blank2r.bmp	0	1	+	0	1	blank2r.bmp	492	1	CPPC	492	1	blank2r.bmp	572	3	vertrauen	866	1	!	1239	1	!	1292	0	0	0	0	0	0	0	0	0	0	0	0	0	0	0	0	0	0	0	0	0	0	0	0	0	0	0	0	0	0
070819	17:01:00	17:08:27	446052	5.0.10.0	5_exp_RW	25	Rpleas_acq	CS_A	DXXD	CPPC	JQQJ	LWWL	ZHHZ	YFFY	träumen	sonnig	küssen	gütig	genießen	vertrauen	töten	sterben	krank	gierig	gemein	versagen	1	acq_USpleas_CSpleas1_RW	acq4567_RW	4	76	400	1	300	300	457	50	0	1	1	blank2r.bmp	0	1	+	0	1	blank2r.bmp	492	1	DXXD	492	1	blank2r.bmp	572	3	küssen	866	1	!	1239	1	!	1359	0	0	0	0	0	0	0	0	0	0	0	0	0	0	0	0	0	0	0	0	0	0	0	0	0	0	0	0	0	0
070819	17:01:00	17:08:29	448305	5.0.10.0	5_exp_RW	25	Rpleas_acq	CS_A	DXXD	CPPC	JQQJ	LWWL	ZHHZ	YFFY	träumen	sonnig	küssen	gütig	genießen	vertrauen	töten	sterben	krank	gierig	gemein	versagen	1	acq_USpleas_CSpleas2_RW	acq4567_RW	4	77	400	0	300	300	485	50	0	1	1	blank2r.bmp	0	1	+	0	1	blank2r.bmp	492	1	CPPC	492	1	blank2r.bmp	572	2	genießen	866	1	!	1239	1	!	-1	0	0	0	0	0	0	0	0	0	0	0	0	0	0	0	0	0	0	0	0	0	0	0	0	0	0	0	0	0	0
070819	17:01:00	17:08:31	450397	5.0.10.0	5_exp_RW	25	Rpleas_acq	CS_A	DXXD	CPPC	JQQJ	LWWL	ZHHZ	YFFY	träumen	sonnig	küssen	gütig	genießen	vertrauen	töten	sterben	krank	gierig	gemein	versagen	1	acq_USunple_CSunple2_RW	acq4567_RW	4	78	400	0	300	300	316	50	0	0	1	blank2r.bmp	0	1	+	0	1	blank2r.bmp	492	1	LWWL	492	1	blank2r.bmp	572	2	gemein	866	1	!	-1	1	!	-1	0	0	0	0	0	0	0	0	0	0	0	0	0	0	0	0	0	0	0	0	0	0	0	0	0	0	0	0	0	0
070819	17:01:00	17:08:33	452570	5.0.10.0	5_exp_RW	25	Rpleas_acq	CS_A	DXXD	CPPC	JQQJ	LWWL	ZHHZ	YFFY	träumen	sonnig	küssen	gütig	genießen	vertrauen	töten	sterben	krank	gierig	gemein	versagen	1	acq_USunple_CSunple2_RW	acq4567_RW	4	79	400	1	300	300	368	50	0	0	1	blank2r.bmp	0	1	+	0	1	blank2r.bmp	492	1	LWWL	492	1	blank2r.bmp	572	1	gierig	866	1	!	1239	1	!	1266	0	0	0	0	0	0	0	0	0	0	0	0	0	0	0	0	0	0	0	0	0	0	0	0	0	0	0	0	0	0
070819	17:01:00	17:08:35	454942	5.0.10.0	5_exp_RW	25	Rpleas_acq	CS_A	DXXD	CPPC	JQQJ	LWWL	ZHHZ	YFFY	träumen	sonnig	küssen	gütig	genießen	vertrauen	töten	sterben	krank	gierig	gemein	versagen	1	acq_USunple_CSunple1_RW	acq4567_RW	4	80	400	0	300	300	587	46	0	1	1	blank2r.bmp	0	1	+	0	1	blank2r.bmp	492	1	JQQJ	492	1	blank2r.bmp	572	3	krank	866	1	!	1239	1	!	-1	0	0	0	0	0	0	0	0	0	0	0	0	0	0	0	0	0	0	0	0	0	0	0	0	0	0	0	0	0	0
070819	17:01:00	17:08:46	465871	5.0.10.0	5_exp_RW	25	Rpleas_acq	CS_A	DXXD	CPPC	JQQJ	LWWL	ZHHZ	YFFY	träumen	sonnig	küssen	gütig	genießen	vertrauen	töten	sterben	krank	gierig	gemein	versagen	1	acq_USpleas_CSpleas1_RW	acq4567_RW	5	1	400	1	300	300	391	46	0	0	1	blank2r.bmp	0	1	+	0	1	blank2r.bmp	492	1	DXXD	492	1	blank2r.bmp	572	1	träumen	866	1	!	1239	1	!	1292	0	0	0	0	0	0	0	0	0	0	0	0	0	0	0	0	0	0	0	0	0	0	0	0	0	0	0	0	0	0
070819	17:01:00	17:08:49	468123	5.0.10.0	5_exp_RW	25	Rpleas_acq	CS_A	DXXD	CPPC	JQQJ	LWWL	ZHHZ	YFFY	träumen	sonnig	küssen	gütig	genießen	vertrauen	töten	sterben	krank	gierig	gemein	versagen	1	acq_USpleas_CSpleas2_RW	acq4567_RW	5	2	400	0	300	300	479	50	0	1	1	blank2r.bmp	0	1	+	0	1	blank2r.bmp	492	1	CPPC	492	1	blank2r.bmp	572	3	vertrauen	866	1	!	1239	1	!	-1	0	0	0	0	0	0	0	0	0	0	0	0	0	0	0	0	0	0	0	0	0	0	0	0	0	0	0	0	0	0
070819	17:01:00	17:08:51	470309	5.0.10.0	5_exp_RW	25	Rpleas_acq	CS_A	DXXD	CPPC	JQQJ	LWWL	ZHHZ	YFFY	träumen	sonnig	küssen	gütig	genießen	vertrauen	töten	sterben	krank	gierig	gemein	versagen	1	acq_USunple_CSunple2_RW	acq4567_RW	5	3	400	1	300	300	368	46	0	1	1	blank2r.bmp	0	1	+	0	1	blank2r.bmp	492	1	LWWL	492	1	blank2r.bmp	572	1	gierig	866	1	!	1239	1	!	1266	0	0	0	0	0	0	0	0	0	0	0	0	0	0	0	0	0	0	0	0	0	0	0	0	0	0	0	0	0	0
070819	17:01:00	17:08:53	472495	5.0.10.0	5_exp_RW	25	Rpleas_acq	CS_A	DXXD	CPPC	JQQJ	LWWL	ZHHZ	YFFY	träumen	sonnig	küssen	gütig	genießen	vertrauen	töten	sterben	krank	gierig	gemein	versagen	1	acq_USunple_CSunple1_RW	acq4567_RW	5	4	400	1	300	300	387	46	0	1	1	blank2r.bmp	0	1	+	0	1	blank2r.bmp	492	1	JQQJ	492	1	blank2r.bmp	572	1	töten	866	1	!	1239	1	!	1292	0	0	0	0	0	0	0	0	0	0	0	0	0	0	0	0	0	0	0	0	0	0	0	0	0	0	0	0	0	0
070819	17:01:00	17:08:55	474667	5.0.10.0	5_exp_RW	25	Rpleas_acq	CS_A	DXXD	CPPC	JQQJ	LWWL	ZHHZ	YFFY	träumen	sonnig	küssen	gütig	genießen	vertrauen	töten	sterben	krank	gierig	gemein	versagen	1	acq_USunple_CSunple2_RW	acq4567_RW	5	5	400	1	300	300	372	50	0	0	1	blank2r.bmp	0	1	+	0	1	blank2r.bmp	492	1	LWWL	492	1	blank2r.bmp	572	2	gemein	866	1	!	1239	1	!	1279	0	0	0	0	0	0	0	0	0	0	0	0	0	0	0	0	0	0	0	0	0	0	0	0	0	0	0	0	0	0
070819	17:01:00	17:08:57	476946	5.0.10.0	5_exp_RW	25	Rpleas_acq	CS_A	DXXD	CPPC	JQQJ	LWWL	ZHHZ	YFFY	träumen	sonnig	küssen	gütig	genießen	vertrauen	töten	sterben	krank	gierig	gemein	versagen	1	acq_USunple_CSunple2_RW	acq4567_RW	5	6	400	0	300	300	508	46	0	1	1	blank2r.bmp	0	1	+	0	1	blank2r.bmp	492	1	LWWL	492	1	blank2r.bmp	572	3	versagen	866	1	!	1239	1	!	-1	0	0	0	0	0	0	0	0	0	0	0	0	0	0	0	0	0	0	0	0	0	0	0	0	0	0	0	0	0	0
070819	17:01:00	17:09:00	479105	5.0.10.0	5_exp_RW	25	Rpleas_acq	CS_A	DXXD	CPPC	JQQJ	LWWL	ZHHZ	YFFY	träumen	sonnig	küssen	gütig	genießen	vertrauen	töten	sterben	krank	gierig	gemein	versagen	1	acq_USpleas_CSpleas1_RW	acq4567_RW	5	7	400	1	300	300	346	50	0	1	1	blank2r.bmp	0	1	+	0	1	blank2r.bmp	492	1	DXXD	492	1	blank2r.bmp	572	2	sonnig	866	1	!	1239	1	!	1252	0	0	0	0	0	0	0	0	0	0	0	0	0	0	0	0	0	0	0	0	0	0	0	0	0	0	0	0	0	0
070819	17:01:00	17:09:02	481224	5.0.10.0	5_exp_RW	25	Rpleas_acq	CS_A	DXXD	CPPC	JQQJ	LWWL	ZHHZ	YFFY	träumen	sonnig	küssen	gütig	genießen	vertrauen	töten	sterben	krank	gierig	gemein	versagen	1	acq_USunple_CSunple2_RW	acq4567_RW	5	8	400	0	300	300	333	46	0	1	1	blank2r.bmp	0	1	+	0	1	blank2r.bmp	492	1	LWWL	492	1	blank2r.bmp	572	1	gierig	866	1	!	-1	1	!	-1	0	0	0	0	0	0	0	0	0	0	0	0	0	0	0	0	0	0	0	0	0	0	0	0	0	0	0	0	0	0
070819	17:01:00	17:09:04	483397	5.0.10.0	5_exp_RW	25	Rpleas_acq	CS_A	DXXD	CPPC	JQQJ	LWWL	ZHHZ	YFFY	träumen	sonnig	küssen	gütig	genießen	vertrauen	töten	sterben	krank	gierig	gemein	versagen	1	acq_USpleas_CSpleas2_RW	acq4567_RW	5	9	400	1	300	300	362	46	0	0	1	blank2r.bmp	0	1	+	0	1	blank2r.bmp	492	1	CPPC	492	1	blank2r.bmp	572	2	genießen	866	1	!	1239	1	!	1266	0	0	0	0	0	0	0	0	0	0	0	0	0	0	0	0	0	0	0	0	0	0	0	0	0	0	0	0	0	0
070819	17:01:00	17:09:06	485542	5.0.10.0	5_exp_RW	25	Rpleas_acq	CS_A	DXXD	CPPC	JQQJ	LWWL	ZHHZ	YFFY	träumen	sonnig	küssen	gütig	genießen	vertrauen	töten	sterben	krank	gierig	gemein	versagen	1	acq_USunple_CSunple1_RW	acq4567_RW	5	10	400	1	300	300	346	46	0	1	1	blank2r.bmp	0	1	+	0	1	blank2r.bmp	492	1	JQQJ	492	1	blank2r.bmp	572	2	sterben	866	1	!	1239	1	!	1252	0	0	0	0	0	0	0	0	0	0	0	0	0	0	0	0	0	0	0	0	0	0	0	0	0	0	0	0	0	0
070819	17:01:00	17:09:08	487702	5.0.10.0	5_exp_RW	25	Rpleas_acq	CS_A	DXXD	CPPC	JQQJ	LWWL	ZHHZ	YFFY	träumen	sonnig	küssen	gütig	genießen	vertrauen	töten	sterben	krank	gierig	gemein	versagen	1	acq_USunple_CSunple1_RW	acq4567_RW	5	11	400	1	300	300	371	46	0	1	1	blank2r.bmp	0	1	+	0	1	blank2r.bmp	492	1	JQQJ	492	1	blank2r.bmp	572	3	krank	866	1	!	1239	1	!	1266	0	0	0	0	0	0	0	0	0	0	0	0	0	0	0	0	0	0	0	0	0	0	0	0	0	0	0	0	0	0
070819	17:01:00	17:09:10	489914	5.0.10.0	5_exp_RW	25	Rpleas_acq	CS_A	DXXD	CPPC	JQQJ	LWWL	ZHHZ	YFFY	träumen	sonnig	küssen	gütig	genießen	vertrauen	töten	sterben	krank	gierig	gemein	versagen	1	acq_USpleas_CSpleas2_RW	acq4567_RW	5	12	400	1	300	300	423	50	0	1	1	blank2r.bmp	0	1	+	0	1	blank2r.bmp	492	1	CPPC	492	1	blank2r.bmp	572	1	gütig	866	1	!	1239	1	!	1319	0	0	0	0	0	0	0	0	0	0	0	0	0	0	0	0	0	0	0	0	0	0	0	0	0	0	0	0	0	0
070819	17:01:00	17:09:13	492113	5.0.10.0	5_exp_RW	25	Rpleas_acq	CS_A	DXXD	CPPC	JQQJ	LWWL	ZHHZ	YFFY	träumen	sonnig	küssen	gütig	genießen	vertrauen	töten	sterben	krank	gierig	gemein	versagen	1	acq_USpleas_CSpleas1_RW	acq4567_RW	5	13	400	1	300	300	393	50	0	1	1	blank2r.bmp	0	1	+	0	1	blank2r.bmp	492	1	DXXD	492	1	blank2r.bmp	572	3	küssen	866	1	!	1239	1	!	1292	0	0	0	0	0	0	0	0	0	0	0	0	0	0	0	0	0	0	0	0	0	0	0	0	0	0	0	0	0	0
070819	17:01:00	17:09:15	494352	5.0.10.0	5_exp_RW	25	Rpleas_acq	CS_A	DXXD	CPPC	JQQJ	LWWL	ZHHZ	YFFY	träumen	sonnig	küssen	gütig	genießen	vertrauen	töten	sterben	krank	gierig	gemein	versagen	1	acq_USpleas_CSpleas1_RW	acq4567_RW	5	14	400	1	300	300	435	50	0	1	1	blank2r.bmp	0	1	+	0	1	blank2r.bmp	492	1	DXXD	492	1	blank2r.bmp	572	3	küssen	866	1	!	1239	1	!	1332	0	0	0	0	0	0	0	0	0	0	0	0	0	0	0	0	0	0	0	0	0	0	0	0	0	0	0	0	0	0
070819	17:01:00	17:09:17	496511	5.0.10.0	5_exp_RW	25	Rpleas_acq	CS_A	DXXD	CPPC	JQQJ	LWWL	ZHHZ	YFFY	träumen	sonnig	küssen	gütig	genießen	vertrauen	töten	sterben	krank	gierig	gemein	versagen	1	acq_USunple_CSunple1_RW	acq4567_RW	5	15	400	1	300	300	361	46	0	1	1	blank2r.bmp	0	1	+	0	1	blank2r.bmp	492	1	JQQJ	492	1	blank2r.bmp	572	3	krank	866	1	!	1239	1	!	1266	0	0	0	0	0	0	0	0	0	0	0	0	0	0	0	0	0	0	0	0	0	0	0	0	0	0	0	0	0	0
070819	17:01:00	17:09:19	498550	5.0.10.0	5_exp_RW	25	Rpleas_acq	CS_A	DXXD	CPPC	JQQJ	LWWL	ZHHZ	YFFY	träumen	sonnig	küssen	gütig	genießen	vertrauen	töten	sterben	krank	gierig	gemein	versagen	1	acq_USpleas_CSpleas1_RW	acq4567_RW	5	16	400	0	300	300	269	50	0	1	1	blank2r.bmp	0	1	+	0	1	blank2r.bmp	492	1	DXXD	492	1	blank2r.bmp	572	2	sonnig	866	1	!	-1	1	!	-1	0	0	0	0	0	0	0	0	0	0	0	0	0	0	0	0	0	0	0	0	0	0	0	0	0	0	0	0	0	0
070819	17:01:00	17:09:24	503522	5.0.10.0	5_exp_RW	25	Rpleas_acq	CS_A	DXXD	CPPC	JQQJ	LWWL	ZHHZ	YFFY	träumen	sonnig	küssen	gütig	genießen	vertrauen	töten	sterben	krank	gierig	gemein	versagen	1	acq_USunple_CSunple2_RW	acq4567_RW	5	17	400	0	300	300	3192	50	0	0	1	blank2r.bmp	0	1	+	0	1	blank2r.bmp	492	1	LWWL	492	1	blank2r.bmp	572	3	versagen	866	1	!	1239	1	!	-1	0	0	0	0	0	0	0	0	0	0	0	0	0	0	0	0	0	0	0	0	0	0	0	0	0	0	0	0	0	0
070819	17:01:00	17:09:26	505707	5.0.10.0	5_exp_RW	25	Rpleas_acq	CS_A	DXXD	CPPC	JQQJ	LWWL	ZHHZ	YFFY	träumen	sonnig	küssen	gütig	genießen	vertrauen	töten	sterben	krank	gierig	gemein	versagen	1	acq_USpleas_CSpleas2_RW	acq4567_RW	5	18	400	1	300	300	369	50	0	1	1	blank2r.bmp	0	1	+	0	1	blank2r.bmp	492	1	CPPC	492	1	blank2r.bmp	572	2	genießen	866	1	!	1239	1	!	1266	0	0	0	0	0	0	0	0	0	0	0	0	0	0	0	0	0	0	0	0	0	0	0	0	0	0	0	0	0	0
070819	17:01:00	17:09:28	507800	5.0.10.0	5_exp_RW	25	Rpleas_acq	CS_A	DXXD	CPPC	JQQJ	LWWL	ZHHZ	YFFY	träumen	sonnig	küssen	gütig	genießen	vertrauen	töten	sterben	krank	gierig	gemein	versagen	1	acq_USunple_CSunple1_RW	acq4567_RW	5	19	400	0	300	300	329	46	0	1	1	blank2r.bmp	0	1	+	0	1	blank2r.bmp	492	1	JQQJ	492	1	blank2r.bmp	572	1	töten	866	1	!	-1	1	!	-1	0	0	0	0	0	0	0	0	0	0	0	0	0	0	0	0	0	0	0	0	0	0	0	0	0	0	0	0	0	0
070819	17:01:00	17:09:30	509919	5.0.10.0	5_exp_RW	25	Rpleas_acq	CS_A	DXXD	CPPC	JQQJ	LWWL	ZHHZ	YFFY	träumen	sonnig	küssen	gütig	genießen	vertrauen	töten	sterben	krank	gierig	gemein	versagen	1	acq_USpleas_CSpleas2_RW	acq4567_RW	5	20	400	0	300	300	332	50	0	1	1	blank2r.bmp	0	1	+	0	1	blank2r.bmp	492	1	CPPC	492	1	blank2r.bmp	572	3	vertrauen	866	1	!	-1	1	!	-1	0	0	0	0	0	0	0	0	0	0	0	0	0	0	0	0	0	0	0	0	0	0	0	0	0	0	0	0	0	0
070819	17:01:00	17:09:32	511998	5.0.10.0	5_exp_RW	25	Rpleas_acq	CS_A	DXXD	CPPC	JQQJ	LWWL	ZHHZ	YFFY	träumen	sonnig	küssen	gütig	genießen	vertrauen	töten	sterben	krank	gierig	gemein	versagen	1	acq_USunple_CSunple2_RW	acq4567_RW	5	21	400	0	300	300	304	50	0	0	1	blank2r.bmp	0	1	+	0	1	blank2r.bmp	492	1	LWWL	492	1	blank2r.bmp	572	2	gemein	866	1	!	-1	1	!	-1	0	0	0	0	0	0	0	0	0	0	0	0	0	0	0	0	0	0	0	0	0	0	0	0	0	0	0	0	0	0
070819	17:01:00	17:09:35	514104	5.0.10.0	5_exp_RW	25	Rpleas_acq	CS_A	DXXD	CPPC	JQQJ	LWWL	ZHHZ	YFFY	träumen	sonnig	küssen	gütig	genießen	vertrauen	töten	sterben	krank	gierig	gemein	versagen	1	acq_USunple_CSunple1_RW	acq4567_RW	5	22	400	0	300	300	325	50	0	0	1	blank2r.bmp	0	1	+	0	1	blank2r.bmp	492	1	JQQJ	492	1	blank2r.bmp	572	2	sterben	866	1	!	-1	1	!	-1	0	0	0	0	0	0	0	0	0	0	0	0	0	0	0	0	0	0	0	0	0	0	0	0	0	0	0	0	0	0
070819	17:01:00	17:09:37	516303	5.0.10.0	5_exp_RW	25	Rpleas_acq	CS_A	DXXD	CPPC	JQQJ	LWWL	ZHHZ	YFFY	träumen	sonnig	küssen	gütig	genießen	vertrauen	töten	sterben	krank	gierig	gemein	versagen	1	acq_USunple_CSunple1_RW	acq4567_RW	5	23	400	1	300	300	397	46	0	1	1	blank2r.bmp	0	1	+	0	1	blank2r.bmp	492	1	JQQJ	492	1	blank2r.bmp	572	1	töten	866	1	!	1239	1	!	1292	0	0	0	0	0	0	0	0	0	0	0	0	0	0	0	0	0	0	0	0	0	0	0	0	0	0	0	0	0	0
070819	17:01:00	17:09:39	518395	5.0.10.0	5_exp_RW	25	Rpleas_acq	CS_A	DXXD	CPPC	JQQJ	LWWL	ZHHZ	YFFY	träumen	sonnig	küssen	gütig	genießen	vertrauen	töten	sterben	krank	gierig	gemein	versagen	1	acq_USpleas_CSpleas1_RW	acq4567_RW	5	24	400	0	300	300	322	50	0	1	1	blank2r.bmp	0	1	+	0	1	blank2r.bmp	492	1	DXXD	492	1	blank2r.bmp	572	1	träumen	866	1	!	-1	1	!	-1	0	0	0	0	0	0	0	0	0	0	0	0	0	0	0	0	0	0	0	0	0	0	0	0	0	0	0	0	0	0
070819	17:01:00	17:09:41	520661	5.0.10.0	5_exp_RW	25	Rpleas_acq	CS_A	DXXD	CPPC	JQQJ	LWWL	ZHHZ	YFFY	träumen	sonnig	küssen	gütig	genießen	vertrauen	töten	sterben	krank	gierig	gemein	versagen	1	acq_USunple_CSunple1_RW	acq4567_RW	5	25	400	0	300	300	489	46	0	1	1	blank2r.bmp	0	1	+	0	1	blank2r.bmp	492	1	JQQJ	492	1	blank2r.bmp	572	2	sterben	866	1	!	1239	1	!	-1	0	0	0	0	0	0	0	0	0	0	0	0	0	0	0	0	0	0	0	0	0	0	0	0	0	0	0	0	0	0
070819	17:01:00	17:09:43	522820	5.0.10.0	5_exp_RW	25	Rpleas_acq	CS_A	DXXD	CPPC	JQQJ	LWWL	ZHHZ	YFFY	träumen	sonnig	küssen	gütig	genießen	vertrauen	töten	sterben	krank	gierig	gemein	versagen	1	acq_USpleas_CSpleas2_RW	acq4567_RW	5	26	400	1	300	300	347	50	0	1	1	blank2r.bmp	0	1	+	0	1	blank2r.bmp	492	1	CPPC	492	1	blank2r.bmp	572	1	gütig	866	1	!	1239	1	!	1252	0	0	0	0	0	0	0	0	0	0	0	0	0	0	0	0	0	0	0	0	0	0	0	0	0	0	0	0	0	0
070819	17:01:00	17:09:46	525019	5.0.10.0	5_exp_RW	25	Rpleas_acq	CS_A	DXXD	CPPC	JQQJ	LWWL	ZHHZ	YFFY	träumen	sonnig	küssen	gütig	genießen	vertrauen	töten	sterben	krank	gierig	gemein	versagen	1	acq_USunple_CSunple2_RW	acq4567_RW	5	27	400	1	300	300	404	46	0	1	1	blank2r.bmp	0	1	+	0	1	blank2r.bmp	492	1	LWWL	492	1	blank2r.bmp	572	3	versagen	866	1	!	1239	1	!	1306	0	0	0	0	0	0	0	0	0	0	0	0	0	0	0	0	0	0	0	0	0	0	0	0	0	0	0	0	0	0
070819	17:01:00	17:09:48	527192	5.0.10.0	5_exp_RW	25	Rpleas_acq	CS_A	DXXD	CPPC	JQQJ	LWWL	ZHHZ	YFFY	träumen	sonnig	küssen	gütig	genießen	vertrauen	töten	sterben	krank	gierig	gemein	versagen	1	acq_USpleas_CSpleas1_RW	acq4567_RW	5	28	400	1	300	300	385	50	0	1	1	blank2r.bmp	0	1	+	0	1	blank2r.bmp	492	1	DXXD	492	1	blank2r.bmp	572	3	küssen	866	1	!	1239	1	!	1279	0	0	0	0	0	0	0	0	0	0	0	0	0	0	0	0	0	0	0	0	0	0	0	0	0	0	0	0	0	0
070819	17:01:00	17:09:50	529431	5.0.10.0	5_exp_RW	25	Rpleas_acq	CS_A	DXXD	CPPC	JQQJ	LWWL	ZHHZ	YFFY	träumen	sonnig	küssen	gütig	genießen	vertrauen	töten	sterben	krank	gierig	gemein	versagen	1	acq_USunple_CSunple2_RW	acq4567_RW	5	29	400	1	300	300	447	46	0	1	1	blank2r.bmp	0	1	+	0	1	blank2r.bmp	492	1	LWWL	492	1	blank2r.bmp	572	2	gemein	866	1	!	1239	1	!	1346	0	0	0	0	0	0	0	0	0	0	0	0	0	0	0	0	0	0	0	0	0	0	0	0	0	0	0	0	0	0
070819	17:01:00	17:09:52	531576	5.0.10.0	5_exp_RW	25	Rpleas_acq	CS_A	DXXD	CPPC	JQQJ	LWWL	ZHHZ	YFFY	träumen	sonnig	küssen	gütig	genießen	vertrauen	töten	sterben	krank	gierig	gemein	versagen	1	acq_USpleas_CSpleas1_RW	acq4567_RW	5	30	400	1	300	300	353	50	0	1	1	blank2r.bmp	0	1	+	0	1	blank2r.bmp	492	1	DXXD	492	1	blank2r.bmp	572	1	träumen	866	1	!	1239	1	!	1252	0	0	0	0	0	0	0	0	0	0	0	0	0	0	0	0	0	0	0	0	0	0	0	0	0	0	0	0	0	0
070819	17:01:00	17:09:54	533642	5.0.10.0	5_exp_RW	25	Rpleas_acq	CS_A	DXXD	CPPC	JQQJ	LWWL	ZHHZ	YFFY	träumen	sonnig	küssen	gütig	genießen	vertrauen	töten	sterben	krank	gierig	gemein	versagen	1	acq_USunple_CSunple2_RW	acq4567_RW	5	31	400	0	300	300	298	46	0	1	1	blank2r.bmp	0	1	+	0	1	blank2r.bmp	492	1	LWWL	492	1	blank2r.bmp	572	1	gierig	866	1	!	-1	1	!	-1	0	0	0	0	0	0	0	0	0	0	0	0	0	0	0	0	0	0	0	0	0	0	0	0	0	0	0	0	0	0
070819	17:01:00	17:09:56	535815	5.0.10.0	5_exp_RW	25	Rpleas_acq	CS_A	DXXD	CPPC	JQQJ	LWWL	ZHHZ	YFFY	träumen	sonnig	küssen	gütig	genießen	vertrauen	töten	sterben	krank	gierig	gemein	versagen	1	acq_USpleas_CSpleas2_RW	acq4567_RW	5	32	400	1	300	300	346	50	0	1	1	blank2r.bmp	0	1	+	0	1	blank2r.bmp	492	1	CPPC	492	1	blank2r.bmp	572	2	genießen	866	1	!	1239	1	!	1252	0	0	0	0	0	0	0	0	0	0	0	0	0	0	0	0	0	0	0	0	0	0	0	0	0	0	0	0	0	0
070819	17:01:00	17:09:58	537881	5.0.10.0	5_exp_RW	25	Rpleas_acq	CS_A	DXXD	CPPC	JQQJ	LWWL	ZHHZ	YFFY	träumen	sonnig	küssen	gütig	genießen	vertrauen	töten	sterben	krank	gierig	gemein	versagen	1	acq_USunple_CSunple1_RW	acq4567_RW	5	33	400	0	300	300	299	46	0	1	1	blank2r.bmp	0	1	+	0	1	blank2r.bmp	492	1	JQQJ	492	1	blank2r.bmp	572	3	krank	866	1	!	-1	1	!	-1	0	0	0	0	0	0	0	0	0	0	0	0	0	0	0	0	0	0	0	0	0	0	0	0	0	0	0	0	0	0
070819	17:01:00	17:10:01	540146	5.0.10.0	5_exp_RW	25	Rpleas_acq	CS_A	DXXD	CPPC	JQQJ	LWWL	ZHHZ	YFFY	träumen	sonnig	küssen	gütig	genießen	vertrauen	töten	sterben	krank	gierig	gemein	versagen	1	acq_USpleas_CSpleas2_RW	acq4567_RW	5	34	400	0	300	300	485	50	0	1	1	blank2r.bmp	0	1	+	0	1	blank2r.bmp	492	1	CPPC	492	1	blank2r.bmp	572	1	gütig	866	1	!	1239	1	!	-1	0	0	0	0	0	0	0	0	0	0	0	0	0	0	0	0	0	0	0	0	0	0	0	0	0	0	0	0	0	0
070819	17:01:00	17:10:03	542319	5.0.10.0	5_exp_RW	25	Rpleas_acq	CS_A	DXXD	CPPC	JQQJ	LWWL	ZHHZ	YFFY	träumen	sonnig	küssen	gütig	genießen	vertrauen	töten	sterben	krank	gierig	gemein	versagen	1	acq_USpleas_CSpleas2_RW	acq4567_RW	5	35	400	1	300	300	366	50	0	1	1	blank2r.bmp	0	1	+	0	1	blank2r.bmp	492	1	CPPC	492	1	blank2r.bmp	572	3	vertrauen	866	1	!	1239	1	!	1266	0	0	0	0	0	0	0	0	0	0	0	0	0	0	0	0	0	0	0	0	0	0	0	0	0	0	0	0	0	0
070819	17:01:00	17:10:05	544571	5.0.10.0	5_exp_RW	25	Rpleas_acq	CS_A	DXXD	CPPC	JQQJ	LWWL	ZHHZ	YFFY	träumen	sonnig	küssen	gütig	genießen	vertrauen	töten	sterben	krank	gierig	gemein	versagen	1	acq_USpleas_CSpleas2_RW	acq4567_RW	5	36	400	1	300	300	463	50	0	1	1	blank2r.bmp	0	1	+	0	1	blank2r.bmp	492	1	CPPC	492	1	blank2r.bmp	572	3	vertrauen	866	1	!	1239	1	!	1359	0	0	0	0	0	0	0	0	0	0	0	0	0	0	0	0	0	0	0	0	0	0	0	0	0	0	0	0	0	0
070819	17:01:00	17:10:07	546783	5.0.10.0	5_exp_RW	25	Rpleas_acq	CS_A	DXXD	CPPC	JQQJ	LWWL	ZHHZ	YFFY	träumen	sonnig	küssen	gütig	genießen	vertrauen	töten	sterben	krank	gierig	gemein	versagen	1	acq_USpleas_CSpleas1_RW	acq4567_RW	5	37	400	1	300	300	420	50	0	1	1	blank2r.bmp	0	1	+	0	1	blank2r.bmp	492	1	DXXD	492	1	blank2r.bmp	572	2	sonnig	866	1	!	1239	1	!	1319	0	0	0	0	0	0	0	0	0	0	0	0	0	0	0	0	0	0	0	0	0	0	0	0	0	0	0	0	0	0
070819	17:01:00	17:10:09	548876	5.0.10.0	5_exp_RW	25	Rpleas_acq	CS_A	DXXD	CPPC	JQQJ	LWWL	ZHHZ	YFFY	träumen	sonnig	küssen	gütig	genießen	vertrauen	töten	sterben	krank	gierig	gemein	versagen	1	acq_USpleas_CSpleas1_RW	acq4567_RW	5	38	400	0	300	300	331	50	0	1	1	blank2r.bmp	0	1	+	0	1	blank2r.bmp	492	1	DXXD	492	1	blank2r.bmp	572	3	küssen	866	1	!	-1	1	!	-1	0	0	0	0	0	0	0	0	0	0	0	0	0	0	0	0	0	0	0	0	0	0	0	0	0	0	0	0	0	0
070819	17:01:00	17:10:12	551048	5.0.10.0	5_exp_RW	25	Rpleas_acq	CS_A	DXXD	CPPC	JQQJ	LWWL	ZHHZ	YFFY	träumen	sonnig	küssen	gütig	genießen	vertrauen	töten	sterben	krank	gierig	gemein	versagen	1	acq_USunple_CSunple2_RW	acq4567_RW	5	39	400	1	300	300	370	46	0	1	1	blank2r.bmp	0	1	+	0	1	blank2r.bmp	492	1	LWWL	492	1	blank2r.bmp	572	3	versagen	866	1	!	1239	1	!	1266	0	0	0	0	0	0	0	0	0	0	0	0	0	0	0	0	0	0	0	0	0	0	0	0	0	0	0	0	0	0
070819	17:01:00	17:10:14	553234	5.0.10.0	5_exp_RW	25	Rpleas_acq	CS_A	DXXD	CPPC	JQQJ	LWWL	ZHHZ	YFFY	träumen	sonnig	küssen	gütig	genießen	vertrauen	töten	sterben	krank	gierig	gemein	versagen	1	acq_USunple_CSunple1_RW	acq4567_RW	5	40	400	1	300	300	390	46	0	1	1	blank2r.bmp	0	1	+	0	1	blank2r.bmp	492	1	JQQJ	492	1	blank2r.bmp	572	1	töten	866	1	!	1239	1	!	1292	0	0	0	0	0	0	0	0	0	0	0	0	0	0	0	0	0	0	0	0	0	0	0	0	0	0	0	0	0	0
070819	17:01:00	17:10:16	555420	5.0.10.0	5_exp_RW	25	Rpleas_acq	CS_A	DXXD	CPPC	JQQJ	LWWL	ZHHZ	YFFY	träumen	sonnig	küssen	gütig	genießen	vertrauen	töten	sterben	krank	gierig	gemein	versagen	1	acq_USunple_CSunple2_RW	acq4567_RW	5	41	400	1	300	300	382	46	0	1	1	blank2r.bmp	0	1	+	0	1	blank2r.bmp	492	1	LWWL	492	1	blank2r.bmp	572	1	gierig	866	1	!	1239	1	!	1279	0	0	0	0	0	0	0	0	0	0	0	0	0	0	0	0	0	0	0	0	0	0	0	0	0	0	0	0	0	0
070819	17:01:00	17:10:18	557699	5.0.10.0	5_exp_RW	25	Rpleas_acq	CS_A	DXXD	CPPC	JQQJ	LWWL	ZHHZ	YFFY	träumen	sonnig	küssen	gütig	genießen	vertrauen	töten	sterben	krank	gierig	gemein	versagen	1	acq_USunple_CSunple1_RW	acq4567_RW	5	42	400	1	300	300	466	46	0	1	1	blank2r.bmp	0	1	+	0	1	blank2r.bmp	492	1	JQQJ	492	1	blank2r.bmp	572	3	krank	866	1	!	1239	1	!	1372	0	0	0	0	0	0	0	0	0	0	0	0	0	0	0	0	0	0	0	0	0	0	0	0	0	0	0	0	0	0
070819	17:01:00	17:10:20	559871	5.0.10.0	5_exp_RW	25	Rpleas_acq	CS_A	DXXD	CPPC	JQQJ	LWWL	ZHHZ	YFFY	träumen	sonnig	küssen	gütig	genießen	vertrauen	töten	sterben	krank	gierig	gemein	versagen	1	acq_USunple_CSunple1_RW	acq4567_RW	5	43	400	1	300	300	384	46	0	1	1	blank2r.bmp	0	1	+	0	1	blank2r.bmp	492	1	JQQJ	492	1	blank2r.bmp	572	2	sterben	866	1	!	1239	1	!	1279	0	0	0	0	0	0	0	0	0	0	0	0	0	0	0	0	0	0	0	0	0	0	0	0	0	0	0	0	0	0
070819	17:01:00	17:10:23	562084	5.0.10.0	5_exp_RW	25	Rpleas_acq	CS_A	DXXD	CPPC	JQQJ	LWWL	ZHHZ	YFFY	träumen	sonnig	küssen	gütig	genießen	vertrauen	töten	sterben	krank	gierig	gemein	versagen	1	acq_USpleas_CSpleas2_RW	acq4567_RW	5	44	400	1	300	300	421	50	0	1	1	blank2r.bmp	0	1	+	0	1	blank2r.bmp	492	1	CPPC	492	1	blank2r.bmp	572	1	gütig	866	1	!	1239	1	!	1319	0	0	0	0	0	0	0	0	0	0	0	0	0	0	0	0	0	0	0	0	0	0	0	0	0	0	0	0	0	0
070819	17:01:00	17:10:25	564229	5.0.10.0	5_exp_RW	25	Rpleas_acq	CS_A	DXXD	CPPC	JQQJ	LWWL	ZHHZ	YFFY	träumen	sonnig	küssen	gütig	genießen	vertrauen	töten	sterben	krank	gierig	gemein	versagen	1	acq_USunple_CSunple1_RW	acq4567_RW	5	45	400	1	300	300	354	46	0	1	1	blank2r.bmp	0	1	+	0	1	blank2r.bmp	492	1	JQQJ	492	1	blank2r.bmp	572	3	krank	866	1	!	1239	1	!	1252	0	0	0	0	0	0	0	0	0	0	0	0	0	0	0	0	0	0	0	0	0	0	0	0	0	0	0	0	0	0
070819	17:01:00	17:10:27	566455	5.0.10.0	5_exp_RW	25	Rpleas_acq	CS_A	DXXD	CPPC	JQQJ	LWWL	ZHHZ	YFFY	träumen	sonnig	küssen	gütig	genießen	vertrauen	töten	sterben	krank	gierig	gemein	versagen	1	acq_USpleas_CSpleas2_RW	acq4567_RW	5	46	400	1	300	300	431	50	0	1	1	blank2r.bmp	0	1	+	0	1	blank2r.bmp	492	1	CPPC	492	1	blank2r.bmp	572	2	genießen	866	1	!	1239	1	!	1332	0	0	0	0	0	0	0	0	0	0	0	0	0	0	0	0	0	0	0	0	0	0	0	0	0	0	0	0	0	0
070819	17:01:00	17:10:29	568654	5.0.10.0	5_exp_RW	25	Rpleas_acq	CS_A	DXXD	CPPC	JQQJ	LWWL	ZHHZ	YFFY	träumen	sonnig	küssen	gütig	genießen	vertrauen	töten	sterben	krank	gierig	gemein	versagen	1	acq_USpleas_CSpleas2_RW	acq4567_RW	5	47	400	1	300	300	409	50	0	1	1	blank2r.bmp	0	1	+	0	1	blank2r.bmp	492	1	CPPC	492	1	blank2r.bmp	572	3	vertrauen	866	1	!	1239	1	!	1306	0	0	0	0	0	0	0	0	0	0	0	0	0	0	0	0	0	0	0	0	0	0	0	0	0	0	0	0	0	0
070819	17:01:00	17:10:31	570853	5.0.10.0	5_exp_RW	25	Rpleas_acq	CS_A	DXXD	CPPC	JQQJ	LWWL	ZHHZ	YFFY	träumen	sonnig	küssen	gütig	genießen	vertrauen	töten	sterben	krank	gierig	gemein	versagen	1	acq_USpleas_CSpleas1_RW	acq4567_RW	5	48	400	1	300	300	399	50	0	1	1	blank2r.bmp	0	1	+	0	1	blank2r.bmp	492	1	DXXD	492	1	blank2r.bmp	572	2	sonnig	866	1	!	1239	1	!	1306	0	0	0	0	0	0	0	0	0	0	0	0	0	0	0	0	0	0	0	0	0	0	0	0	0	0	0	0	0	0
070819	17:01:00	17:10:34	573079	5.0.10.0	5_exp_RW	25	Rpleas_acq	CS_A	DXXD	CPPC	JQQJ	LWWL	ZHHZ	YFFY	träumen	sonnig	küssen	gütig	genießen	vertrauen	töten	sterben	krank	gierig	gemein	versagen	1	acq_USunple_CSunple2_RW	acq4567_RW	5	49	400	1	300	300	434	46	0	1	1	blank2r.bmp	0	1	+	0	1	blank2r.bmp	492	1	LWWL	492	1	blank2r.bmp	572	2	gemein	866	1	!	1239	1	!	1332	0	0	0	0	0	0	0	0	0	0	0	0	0	0	0	0	0	0	0	0	0	0	0	0	0	0	0	0	0	0
070819	17:01:00	17:10:36	575305	5.0.10.0	5_exp_RW	25	Rpleas_acq	CS_A	DXXD	CPPC	JQQJ	LWWL	ZHHZ	YFFY	träumen	sonnig	küssen	gütig	genießen	vertrauen	töten	sterben	krank	gierig	gemein	versagen	1	acq_USpleas_CSpleas1_RW	acq4567_RW	5	50	400	1	300	300	438	50	0	1	1	blank2r.bmp	0	1	+	0	1	blank2r.bmp	492	1	DXXD	492	1	blank2r.bmp	572	1	träumen	866	1	!	1239	1	!	1332	0	0	0	0	0	0	0	0	0	0	0	0	0	0	0	0	0	0	0	0	0	0	0	0	0	0	0	0	0	0
070819	17:01:00	17:10:38	577491	5.0.10.0	5_exp_RW	25	Rpleas_acq	CS_A	DXXD	CPPC	JQQJ	LWWL	ZHHZ	YFFY	träumen	sonnig	küssen	gütig	genießen	vertrauen	töten	sterben	krank	gierig	gemein	versagen	1	acq_USunple_CSunple1_RW	acq4567_RW	5	51	400	1	300	300	393	46	0	1	1	blank2r.bmp	0	1	+	0	1	blank2r.bmp	492	1	JQQJ	492	1	blank2r.bmp	572	2	sterben	866	1	!	1239	1	!	1292	0	0	0	0	0	0	0	0	0	0	0	0	0	0	0	0	0	0	0	0	0	0	0	0	0	0	0	0	0	0
070819	17:01:00	17:10:40	579663	5.0.10.0	5_exp_RW	25	Rpleas_acq	CS_A	DXXD	CPPC	JQQJ	LWWL	ZHHZ	YFFY	träumen	sonnig	küssen	gütig	genießen	vertrauen	töten	sterben	krank	gierig	gemein	versagen	1	acq_USunple_CSunple2_RW	acq4567_RW	5	52	400	1	300	300	375	46	0	1	1	blank2r.bmp	0	1	+	0	1	blank2r.bmp	492	1	LWWL	492	1	blank2r.bmp	572	3	versagen	866	1	!	1239	1	!	1279	0	0	0	0	0	0	0	0	0	0	0	0	0	0	0	0	0	0	0	0	0	0	0	0	0	0	0	0	0	0
070819	17:01:00	17:10:42	581742	5.0.10.0	5_exp_RW	25	Rpleas_acq	CS_A	DXXD	CPPC	JQQJ	LWWL	ZHHZ	YFFY	träumen	sonnig	küssen	gütig	genießen	vertrauen	töten	sterben	krank	gierig	gemein	versagen	1	acq_USpleas_CSpleas2_RW	acq4567_RW	5	53	400	0	300	300	314	50	0	1	1	blank2r.bmp	0	1	+	0	1	blank2r.bmp	492	1	CPPC	492	1	blank2r.bmp	572	1	gütig	866	1	!	-1	1	!	-1	0	0	0	0	0	0	0	0	0	0	0	0	0	0	0	0	0	0	0	0	0	0	0	0	0	0	0	0	0	0
070819	17:01:00	17:10:44	583968	5.0.10.0	5_exp_RW	25	Rpleas_acq	CS_A	DXXD	CPPC	JQQJ	LWWL	ZHHZ	YFFY	träumen	sonnig	küssen	gütig	genießen	vertrauen	töten	sterben	krank	gierig	gemein	versagen	1	acq_USunple_CSunple2_RW	acq4567_RW	5	54	400	1	300	300	414	46	0	1	1	blank2r.bmp	0	1	+	0	1	blank2r.bmp	492	1	LWWL	492	1	blank2r.bmp	572	1	gierig	866	1	!	1239	1	!	1319	0	0	0	0	0	0	0	0	0	0	0	0	0	0	0	0	0	0	0	0	0	0	0	0	0	0	0	0	0	0
070819	17:01:00	17:10:46	586007	5.0.10.0	5_exp_RW	25	Rpleas_acq	CS_A	DXXD	CPPC	JQQJ	LWWL	ZHHZ	YFFY	träumen	sonnig	küssen	gütig	genießen	vertrauen	töten	sterben	krank	gierig	gemein	versagen	1	acq_USpleas_CSpleas2_RW	acq4567_RW	5	55	400	0	300	300	272	50	0	1	1	blank2r.bmp	0	1	+	0	1	blank2r.bmp	492	1	CPPC	492	1	blank2r.bmp	572	2	genießen	866	1	!	-1	1	!	-1	0	0	0	0	0	0	0	0	0	0	0	0	0	0	0	0	0	0	0	0	0	0	0	0	0	0	0	0	0	0
070819	17:01:00	17:10:49	588179	5.0.10.0	5_exp_RW	25	Rpleas_acq	CS_A	DXXD	CPPC	JQQJ	LWWL	ZHHZ	YFFY	träumen	sonnig	küssen	gütig	genießen	vertrauen	töten	sterben	krank	gierig	gemein	versagen	1	acq_USunple_CSunple1_RW	acq4567_RW	5	56	400	1	300	300	363	46	0	1	1	blank2r.bmp	0	1	+	0	1	blank2r.bmp	492	1	JQQJ	492	1	blank2r.bmp	572	1	töten	866	1	!	1239	1	!	1266	0	0	0	0	0	0	0	0	0	0	0	0	0	0	0	0	0	0	0	0	0	0	0	0	0	0	0	0	0	0
070819	17:01:00	17:10:51	590445	5.0.10.0	5_exp_RW	25	Rpleas_acq	CS_A	DXXD	CPPC	JQQJ	LWWL	ZHHZ	YFFY	träumen	sonnig	küssen	gütig	genießen	vertrauen	töten	sterben	krank	gierig	gemein	versagen	1	acq_USunple_CSunple2_RW	acq4567_RW	5	57	400	0	300	300	488	46	0	1	1	blank2r.bmp	0	1	+	0	1	blank2r.bmp	492	1	LWWL	492	1	blank2r.bmp	572	2	gemein	866	1	!	1239	1	!	-1	0	0	0	0	0	0	0	0	0	0	0	0	0	0	0	0	0	0	0	0	0	0	0	0	0	0	0	0	0	0
070819	17:01:00	17:10:53	592684	5.0.10.0	5_exp_RW	25	Rpleas_acq	CS_A	DXXD	CPPC	JQQJ	LWWL	ZHHZ	YFFY	träumen	sonnig	küssen	gütig	genießen	vertrauen	töten	sterben	krank	gierig	gemein	versagen	1	acq_USpleas_CSpleas1_RW	acq4567_RW	5	58	400	1	300	300	427	50	0	1	1	blank2r.bmp	0	1	+	0	1	blank2r.bmp	492	1	DXXD	492	1	blank2r.bmp	572	2	sonnig	866	1	!	1239	1	!	1332	0	0	0	0	0	0	0	0	0	0	0	0	0	0	0	0	0	0	0	0	0	0	0	0	0	0	0	0	0	0
070819	17:01:00	17:10:56	595057	5.0.10.0	5_exp_RW	25	Rpleas_acq	CS_A	DXXD	CPPC	JQQJ	LWWL	ZHHZ	YFFY	träumen	sonnig	küssen	gütig	genießen	vertrauen	töten	sterben	krank	gierig	gemein	versagen	1	acq_USpleas_CSpleas1_RW	acq4567_RW	5	59	400	0	300	300	601	50	0	1	1	blank2r.bmp	0	1	+	0	1	blank2r.bmp	492	1	DXXD	492	1	blank2r.bmp	572	1	träumen	866	1	!	1239	1	!	-1	0	0	0	0	0	0	0	0	0	0	0	0	0	0	0	0	0	0	0	0	0	0	0	0	0	0	0	0	0	0
070819	17:01:00	17:10:58	597269	5.0.10.0	5_exp_RW	25	Rpleas_acq	CS_A	DXXD	CPPC	JQQJ	LWWL	ZHHZ	YFFY	träumen	sonnig	küssen	gütig	genießen	vertrauen	töten	sterben	krank	gierig	gemein	versagen	1	acq_USpleas_CSpleas1_RW	acq4567_RW	5	60	400	1	300	300	407	50	0	1	1	blank2r.bmp	0	1	+	0	1	blank2r.bmp	492	1	DXXD	492	1	blank2r.bmp	572	3	küssen	866	1	!	1239	1	!	1306	0	0	0	0	0	0	0	0	0	0	0	0	0	0	0	0	0	0	0	0	0	0	0	0	0	0	0	0	0	0
070819	17:01:00	17:11:00	599441	5.0.10.0	5_exp_RW	25	Rpleas_acq	CS_A	DXXD	CPPC	JQQJ	LWWL	ZHHZ	YFFY	träumen	sonnig	küssen	gütig	genießen	vertrauen	töten	sterben	krank	gierig	gemein	versagen	1	acq_USpleas_CSpleas2_RW	acq4567_RW	5	61	400	1	300	300	381	50	0	1	1	blank2r.bmp	0	1	+	0	1	blank2r.bmp	492	1	CPPC	492	1	blank2r.bmp	572	1	gütig	866	1	!	1239	1	!	1279	0	0	0	0	0	0	0	0	0	0	0	0	0	0	0	0	0	0	0	0	0	0	0	0	0	0	0	0	0	0
070819	17:01:00	17:11:02	601627	5.0.10.0	5_exp_RW	25	Rpleas_acq	CS_A	DXXD	CPPC	JQQJ	LWWL	ZHHZ	YFFY	träumen	sonnig	küssen	gütig	genießen	vertrauen	töten	sterben	krank	gierig	gemein	versagen	1	acq_USpleas_CSpleas1_RW	acq4567_RW	5	62	400	1	300	300	378	50	0	1	1	blank2r.bmp	0	1	+	0	1	blank2r.bmp	492	1	DXXD	492	1	blank2r.bmp	572	3	küssen	866	1	!	1239	1	!	1279	0	0	0	0	0	0	0	0	0	0	0	0	0	0	0	0	0	0	0	0	0	0	0	0	0	0	0	0	0	0
070819	17:01:00	17:11:04	603880	5.0.10.0	5_exp_RW	25	Rpleas_acq	CS_A	DXXD	CPPC	JQQJ	LWWL	ZHHZ	YFFY	träumen	sonnig	küssen	gütig	genießen	vertrauen	töten	sterben	krank	gierig	gemein	versagen	1	acq_USpleas_CSpleas1_RW	acq4567_RW	5	63	400	0	300	300	479	50	0	1	1	blank2r.bmp	0	1	+	0	1	blank2r.bmp	492	1	DXXD	492	1	blank2r.bmp	572	1	träumen	866	1	!	1239	1	!	-1	0	0	0	0	0	0	0	0	0	0	0	0	0	0	0	0	0	0	0	0	0	0	0	0	0	0	0	0	0	0
070819	17:01:00	17:11:07	606052	5.0.10.0	5_exp_RW	25	Rpleas_acq	CS_A	DXXD	CPPC	JQQJ	LWWL	ZHHZ	YFFY	träumen	sonnig	küssen	gütig	genießen	vertrauen	töten	sterben	krank	gierig	gemein	versagen	1	acq_USunple_CSunple1_RW	acq4567_RW	5	64	400	1	300	300	362	46	0	1	1	blank2r.bmp	0	1	+	0	1	blank2r.bmp	492	1	JQQJ	492	1	blank2r.bmp	572	2	sterben	866	1	!	1239	1	!	1266	0	0	0	0	0	0	0	0	0	0	0	0	0	0	0	0	0	0	0	0	0	0	0	0	0	0	0	0	0	0
070819	17:01:00	17:11:09	608238	5.0.10.0	5_exp_RW	25	Rpleas_acq	CS_A	DXXD	CPPC	JQQJ	LWWL	ZHHZ	YFFY	träumen	sonnig	küssen	gütig	genießen	vertrauen	töten	sterben	krank	gierig	gemein	versagen	1	acq_USunple_CSunple1_RW	acq4567_RW	5	65	400	1	300	300	389	46	0	1	1	blank2r.bmp	0	1	+	0	1	blank2r.bmp	492	1	JQQJ	492	1	blank2r.bmp	572	1	töten	866	1	!	1239	1	!	1292	0	0	0	0	0	0	0	0	0	0	0	0	0	0	0	0	0	0	0	0	0	0	0	0	0	0	0	0	0	0
070819	17:01:00	17:11:11	610490	5.0.10.0	5_exp_RW	25	Rpleas_acq	CS_A	DXXD	CPPC	JQQJ	LWWL	ZHHZ	YFFY	träumen	sonnig	küssen	gütig	genießen	vertrauen	töten	sterben	krank	gierig	gemein	versagen	1	acq_USunple_CSunple2_RW	acq4567_RW	5	66	400	1	300	300	463	46	0	1	1	blank2r.bmp	0	1	+	0	1	blank2r.bmp	492	1	LWWL	492	1	blank2r.bmp	572	1	gierig	866	1	!	1239	1	!	1359	0	0	0	0	0	0	0	0	0	0	0	0	0	0	0	0	0	0	0	0	0	0	0	0	0	0	0	0	0	0
070819	17:01:00	17:11:13	612689	5.0.10.0	5_exp_RW	25	Rpleas_acq	CS_A	DXXD	CPPC	JQQJ	LWWL	ZHHZ	YFFY	träumen	sonnig	küssen	gütig	genießen	vertrauen	töten	sterben	krank	gierig	gemein	versagen	1	acq_USpleas_CSpleas1_RW	acq4567_RW	5	67	400	1	300	300	408	50	0	1	1	blank2r.bmp	0	1	+	0	1	blank2r.bmp	492	1	DXXD	492	1	blank2r.bmp	572	2	sonnig	866	1	!	1239	1	!	1306	0	0	0	0	0	0	0	0	0	0	0	0	0	0	0	0	0	0	0	0	0	0	0	0	0	0	0	0	0	0
070819	17:01:00	17:11:15	614902	5.0.10.0	5_exp_RW	25	Rpleas_acq	CS_A	DXXD	CPPC	JQQJ	LWWL	ZHHZ	YFFY	träumen	sonnig	küssen	gütig	genießen	vertrauen	töten	sterben	krank	gierig	gemein	versagen	1	acq_USunple_CSunple1_RW	acq4567_RW	5	68	400	1	300	300	420	46	0	1	1	blank2r.bmp	0	1	+	0	1	blank2r.bmp	492	1	JQQJ	492	1	blank2r.bmp	572	3	krank	866	1	!	1239	1	!	1319	0	0	0	0	0	0	0	0	0	0	0	0	0	0	0	0	0	0	0	0	0	0	0	0	0	0	0	0	0	0
070819	17:01:00	17:11:18	617021	5.0.10.0	5_exp_RW	25	Rpleas_acq	CS_A	DXXD	CPPC	JQQJ	LWWL	ZHHZ	YFFY	träumen	sonnig	küssen	gütig	genießen	vertrauen	töten	sterben	krank	gierig	gemein	versagen	1	acq_USpleas_CSpleas2_RW	acq4567_RW	5	69	400	0	300	300	334	50	0	1	1	blank2r.bmp	0	1	+	0	1	blank2r.bmp	492	1	CPPC	492	1	blank2r.bmp	572	2	genießen	866	1	!	-1	1	!	-1	0	0	0	0	0	0	0	0	0	0	0	0	0	0	0	0	0	0	0	0	0	0	0	0	0	0	0	0	0	0
070819	17:01:00	17:11:20	619260	5.0.10.0	5_exp_RW	25	Rpleas_acq	CS_A	DXXD	CPPC	JQQJ	LWWL	ZHHZ	YFFY	träumen	sonnig	küssen	gütig	genießen	vertrauen	töten	sterben	krank	gierig	gemein	versagen	1	acq_USunple_CSunple2_RW	acq4567_RW	5	70	400	1	300	300	425	46	0	1	1	blank2r.bmp	0	1	+	0	1	blank2r.bmp	492	1	LWWL	492	1	blank2r.bmp	572	2	gemein	866	1	!	1239	1	!	1332	0	0	0	0	0	0	0	0	0	0	0	0	0	0	0	0	0	0	0	0	0	0	0	0	0	0	0	0	0	0
070819	17:01:00	17:11:22	621406	5.0.10.0	5_exp_RW	25	Rpleas_acq	CS_A	DXXD	CPPC	JQQJ	LWWL	ZHHZ	YFFY	träumen	sonnig	küssen	gütig	genießen	vertrauen	töten	sterben	krank	gierig	gemein	versagen	1	acq_USpleas_CSpleas2_RW	acq4567_RW	5	71	400	1	300	300	351	50	0	1	1	blank2r.bmp	0	1	+	0	1	blank2r.bmp	492	1	CPPC	492	1	blank2r.bmp	572	3	vertrauen	866	1	!	1239	1	!	1252	0	0	0	0	0	0	0	0	0	0	0	0	0	0	0	0	0	0	0	0	0	0	0	0	0	0	0	0	0	0
070819	17:01:00	17:11:24	623618	5.0.10.0	5_exp_RW	25	Rpleas_acq	CS_A	DXXD	CPPC	JQQJ	LWWL	ZHHZ	YFFY	träumen	sonnig	küssen	gütig	genießen	vertrauen	töten	sterben	krank	gierig	gemein	versagen	1	acq_USunple_CSunple1_RW	acq4567_RW	5	72	400	1	300	300	402	46	0	1	1	blank2r.bmp	0	1	+	0	1	blank2r.bmp	492	1	JQQJ	492	1	blank2r.bmp	572	2	sterben	866	1	!	1239	1	!	1306	0	0	0	0	0	0	0	0	0	0	0	0	0	0	0	0	0	0	0	0	0	0	0	0	0	0	0	0	0	0
070819	17:01:00	17:11:26	625697	5.0.10.0	5_exp_RW	25	Rpleas_acq	CS_A	DXXD	CPPC	JQQJ	LWWL	ZHHZ	YFFY	träumen	sonnig	küssen	gütig	genießen	vertrauen	töten	sterben	krank	gierig	gemein	versagen	1	acq_USunple_CSunple2_RW	acq4567_RW	5	73	400	0	300	300	312	50	0	0	1	blank2r.bmp	0	1	+	0	1	blank2r.bmp	492	1	LWWL	492	1	blank2r.bmp	572	3	versagen	866	1	!	-1	1	!	-1	0	0	0	0	0	0	0	0	0	0	0	0	0	0	0	0	0	0	0	0	0	0	0	0	0	0	0	0	0	0
070819	17:01:00	17:11:28	627989	5.0.10.0	5_exp_RW	25	Rpleas_acq	CS_A	DXXD	CPPC	JQQJ	LWWL	ZHHZ	YFFY	träumen	sonnig	küssen	gütig	genießen	vertrauen	töten	sterben	krank	gierig	gemein	versagen	1	acq_USunple_CSunple2_RW	acq4567_RW	5	74	400	0	300	300	493	46	0	1	1	blank2r.bmp	0	1	+	0	1	blank2r.bmp	492	1	LWWL	492	1	blank2r.bmp	572	3	versagen	866	1	!	1239	1	!	-1	0	0	0	0	0	0	0	0	0	0	0	0	0	0	0	0	0	0	0	0	0	0	0	0	0	0	0	0	0	0
070819	17:01:00	17:11:31	630149	5.0.10.0	5_exp_RW	25	Rpleas_acq	CS_A	DXXD	CPPC	JQQJ	LWWL	ZHHZ	YFFY	träumen	sonnig	küssen	gütig	genießen	vertrauen	töten	sterben	krank	gierig	gemein	versagen	1	acq_USunple_CSunple1_RW	acq4567_RW	5	75	400	1	300	300	356	46	0	1	1	blank2r.bmp	0	1	+	0	1	blank2r.bmp	492	1	JQQJ	492	1	blank2r.bmp	572	3	krank	866	1	!	1239	1	!	1252	0	0	0	0	0	0	0	0	0	0	0	0	0	0	0	0	0	0	0	0	0	0	0	0	0	0	0	0	0	0
070819	17:01:00	17:11:33	632401	5.0.10.0	5_exp_RW	25	Rpleas_acq	CS_A	DXXD	CPPC	JQQJ	LWWL	ZHHZ	YFFY	träumen	sonnig	küssen	gütig	genießen	vertrauen	töten	sterben	krank	gierig	gemein	versagen	1	acq_USpleas_CSpleas2_RW	acq4567_RW	5	76	400	1	300	300	456	50	0	1	1	blank2r.bmp	0	1	+	0	1	blank2r.bmp	492	1	CPPC	492	1	blank2r.bmp	572	2	genießen	866	1	!	1239	1	!	1359	0	0	0	0	0	0	0	0	0	0	0	0	0	0	0	0	0	0	0	0	0	0	0	0	0	0	0	0	0	0
070819	17:01:00	17:11:35	634627	5.0.10.0	5_exp_RW	25	Rpleas_acq	CS_A	DXXD	CPPC	JQQJ	LWWL	ZHHZ	YFFY	träumen	sonnig	küssen	gütig	genießen	vertrauen	töten	sterben	krank	gierig	gemein	versagen	1	acq_USpleas_CSpleas1_RW	acq4567_RW	5	77	400	1	300	300	433	50	0	1	1	blank2r.bmp	0	1	+	0	1	blank2r.bmp	492	1	DXXD	492	1	blank2r.bmp	572	1	träumen	866	1	!	1239	1	!	1332	0	0	0	0	0	0	0	0	0	0	0	0	0	0	0	0	0	0	0	0	0	0	0	0	0	0	0	0	0	0
070819	17:01:00	17:11:37	636906	5.0.10.0	5_exp_RW	25	Rpleas_acq	CS_A	DXXD	CPPC	JQQJ	LWWL	ZHHZ	YFFY	träumen	sonnig	küssen	gütig	genießen	vertrauen	töten	sterben	krank	gierig	gemein	versagen	1	acq_USpleas_CSpleas1_RW	acq4567_RW	5	78	400	0	300	300	512	50	0	1	1	blank2r.bmp	0	1	+	0	1	blank2r.bmp	492	1	DXXD	492	1	blank2r.bmp	572	2	sonnig	866	1	!	1239	1	!	-1	0	0	0	0	0	0	0	0	0	0	0	0	0	0	0	0	0	0	0	0	0	0	0	0	0	0	0	0	0	0
070819	17:01:00	17:11:40	639131	5.0.10.0	5_exp_RW	25	Rpleas_acq	CS_A	DXXD	CPPC	JQQJ	LWWL	ZHHZ	YFFY	träumen	sonnig	küssen	gütig	genießen	vertrauen	töten	sterben	krank	gierig	gemein	versagen	1	acq_USpleas_CSpleas2_RW	acq4567_RW	5	79	400	1	300	300	425	50	0	1	1	blank2r.bmp	0	1	+	0	1	blank2r.bmp	492	1	CPPC	492	1	blank2r.bmp	572	3	vertrauen	866	1	!	1239	1	!	1319	0	0	0	0	0	0	0	0	0	0	0	0	0	0	0	0	0	0	0	0	0	0	0	0	0	0	0	0	0	0
070819	17:01:00	17:11:42	641384	5.0.10.0	5_exp_RW	25	Rpleas_acq	CS_A	DXXD	CPPC	JQQJ	LWWL	ZHHZ	YFFY	träumen	sonnig	küssen	gütig	genießen	vertrauen	töten	sterben	krank	gierig	gemein	versagen	1	acq_USunple_CSunple2_RW	acq4567_RW	5	80	400	1	300	300	452	46	0	1	1	blank2r.bmp	0	1	+	0	1	blank2r.bmp	492	1	LWWL	492	1	blank2r.bmp	572	1	gierig	866	1	!	1239	1	!	1359	0	0	0	0	0	0	0	0	0	0	0	0	0	0	0	0	0	0	0	0	0	0	0	0	0	0	0	0	0	0
070819	17:01:00	17:11:52	651166	5.0.10.0	5_exp_RW	25	Rpleas_acq	CS_A	DXXD	CPPC	JQQJ	LWWL	ZHHZ	YFFY	träumen	sonnig	küssen	gütig	genießen	vertrauen	töten	sterben	krank	gierig	gemein	versagen	1	acq_USpleas_CSpleas2_RW	acq4567_RW	6	1	400	1	300	300	460	50	0	1	1	blank2r.bmp	0	1	+	0	1	blank2r.bmp	492	1	CPPC	492	1	blank2r.bmp	572	1	gütig	866	1	!	1239	1	!	1359	0	0	0	0	0	0	0	0	0	0	0	0	0	0	0	0	0	0	0	0	0	0	0	0	0	0	0	0	0	0
070819	17:01:00	17:11:54	653365	5.0.10.0	5_exp_RW	25	Rpleas_acq	CS_A	DXXD	CPPC	JQQJ	LWWL	ZHHZ	YFFY	träumen	sonnig	küssen	gütig	genießen	vertrauen	töten	sterben	krank	gierig	gemein	versagen	1	acq_USpleas_CSpleas1_RW	acq4567_RW	6	2	400	1	300	300	410	46	0	0	1	blank2r.bmp	0	1	+	0	1	blank2r.bmp	492	1	DXXD	492	1	blank2r.bmp	572	3	küssen	866	1	!	1239	1	!	1306	0	0	0	0	0	0	0	0	0	0	0	0	0	0	0	0	0	0	0	0	0	0	0	0	0	0	0	0	0	0
070819	17:01:00	17:11:56	655578	5.0.10.0	5_exp_RW	25	Rpleas_acq	CS_A	DXXD	CPPC	JQQJ	LWWL	ZHHZ	YFFY	träumen	sonnig	küssen	gütig	genießen	vertrauen	töten	sterben	krank	gierig	gemein	versagen	1	acq_USunple_CSunple2_RW	acq4567_RW	6	3	400	1	300	300	415	46	0	1	1	blank2r.bmp	0	1	+	0	1	blank2r.bmp	492	1	LWWL	492	1	blank2r.bmp	572	2	gemein	866	1	!	1239	1	!	1319	0	0	0	0	0	0	0	0	0	0	0	0	0	0	0	0	0	0	0	0	0	0	0	0	0	0	0	0	0	0
070819	17:01:00	17:11:58	657790	5.0.10.0	5_exp_RW	25	Rpleas_acq	CS_A	DXXD	CPPC	JQQJ	LWWL	ZHHZ	YFFY	träumen	sonnig	küssen	gütig	genießen	vertrauen	töten	sterben	krank	gierig	gemein	versagen	1	acq_USunple_CSunple1_RW	acq4567_RW	6	4	400	1	300	300	419	46	0	1	1	blank2r.bmp	0	1	+	0	1	blank2r.bmp	492	1	JQQJ	492	1	blank2r.bmp	572	1	töten	866	1	!	1239	1	!	1319	0	0	0	0	0	0	0	0	0	0	0	0	0	0	0	0	0	0	0	0	0	0	0	0	0	0	0	0	0	0
070819	17:01:00	17:12:01	660043	5.0.10.0	5_exp_RW	25	Rpleas_acq	CS_A	DXXD	CPPC	JQQJ	LWWL	ZHHZ	YFFY	träumen	sonnig	küssen	gütig	genießen	vertrauen	töten	sterben	krank	gierig	gemein	versagen	1	acq_USunple_CSunple2_RW	acq4567_RW	6	5	400	0	300	300	479	46	0	1	1	blank2r.bmp	0	1	+	0	1	blank2r.bmp	492	1	LWWL	492	1	blank2r.bmp	572	2	gemein	866	1	!	1239	1	!	-1	0	0	0	0	0	0	0	0	0	0	0	0	0	0	0	0	0	0	0	0	0	0	0	0	0	0	0	0	0	0
070819	17:01:00	17:12:03	662282	5.0.10.0	5_exp_RW	25	Rpleas_acq	CS_A	DXXD	CPPC	JQQJ	LWWL	ZHHZ	YFFY	träumen	sonnig	küssen	gütig	genießen	vertrauen	töten	sterben	krank	gierig	gemein	versagen	1	acq_USpleas_CSpleas1_RW	acq4567_RW	6	6	400	1	300	300	431	50	0	1	1	blank2r.bmp	0	1	+	0	1	blank2r.bmp	492	1	DXXD	492	1	blank2r.bmp	572	3	küssen	866	1	!	1239	1	!	1332	0	0	0	0	0	0	0	0	0	0	0	0	0	0	0	0	0	0	0	0	0	0	0	0	0	0	0	0	0	0
070819	17:01:00	17:12:05	664494	5.0.10.0	5_exp_RW	25	Rpleas_acq	CS_A	DXXD	CPPC	JQQJ	LWWL	ZHHZ	YFFY	träumen	sonnig	küssen	gütig	genießen	vertrauen	töten	sterben	krank	gierig	gemein	versagen	1	acq_USpleas_CSpleas2_RW	acq4567_RW	6	7	400	1	300	300	420	50	0	1	1	blank2r.bmp	0	1	+	0	1	blank2r.bmp	492	1	CPPC	492	1	blank2r.bmp	572	3	vertrauen	866	1	!	1239	1	!	1319	0	0	0	0	0	0	0	0	0	0	0	0	0	0	0	0	0	0	0	0	0	0	0	0	0	0	0	0	0	0
070819	17:01:00	17:12:07	666733	5.0.10.0	5_exp_RW	25	Rpleas_acq	CS_A	DXXD	CPPC	JQQJ	LWWL	ZHHZ	YFFY	träumen	sonnig	küssen	gütig	genießen	vertrauen	töten	sterben	krank	gierig	gemein	versagen	1	acq_USunple_CSunple1_RW	acq4567_RW	6	8	400	1	300	300	432	46	0	1	1	blank2r.bmp	0	1	+	0	1	blank2r.bmp	492	1	JQQJ	492	1	blank2r.bmp	572	3	krank	866	1	!	1239	1	!	1332	0	0	0	0	0	0	0	0	0	0	0	0	0	0	0	0	0	0	0	0	0	0	0	0	0	0	0	0	0	0
070819	17:01:00	17:12:09	668906	5.0.10.0	5_exp_RW	25	Rpleas_acq	CS_A	DXXD	CPPC	JQQJ	LWWL	ZHHZ	YFFY	träumen	sonnig	küssen	gütig	genießen	vertrauen	töten	sterben	krank	gierig	gemein	versagen	1	acq_USunple_CSunple1_RW	acq4567_RW	6	9	400	1	300	300	382	46	0	1	1	blank2r.bmp	0	1	+	0	1	blank2r.bmp	492	1	JQQJ	492	1	blank2r.bmp	572	1	töten	866	1	!	1239	1	!	1279	0	0	0	0	0	0	0	0	0	0	0	0	0	0	0	0	0	0	0	0	0	0	0	0	0	0	0	0	0	0
070819	17:01:00	17:12:12	671158	5.0.10.0	5_exp_RW	25	Rpleas_acq	CS_A	DXXD	CPPC	JQQJ	LWWL	ZHHZ	YFFY	träumen	sonnig	küssen	gütig	genießen	vertrauen	töten	sterben	krank	gierig	gemein	versagen	1	acq_USpleas_CSpleas2_RW	acq4567_RW	6	10	400	1	300	300	452	50	0	1	1	blank2r.bmp	0	1	+	0	1	blank2r.bmp	492	1	CPPC	492	1	blank2r.bmp	572	1	gütig	866	1	!	1239	1	!	1359	0	0	0	0	0	0	0	0	0	0	0	0	0	0	0	0	0	0	0	0	0	0	0	0	0	0	0	0	0	0
070819	17:01:00	17:12:14	673344	5.0.10.0	5_exp_RW	25	Rpleas_acq	CS_A	DXXD	CPPC	JQQJ	LWWL	ZHHZ	YFFY	träumen	sonnig	küssen	gütig	genießen	vertrauen	töten	sterben	krank	gierig	gemein	versagen	1	acq_USpleas_CSpleas2_RW	acq4567_RW	6	11	400	1	300	300	394	50	0	1	1	blank2r.bmp	0	1	+	0	1	blank2r.bmp	492	1	CPPC	492	1	blank2r.bmp	572	2	genießen	866	1	!	1239	1	!	1292	0	0	0	0	0	0	0	0	0	0	0	0	0	0	0	0	0	0	0	0	0	0	0	0	0	0	0	0	0	0
070819	17:01:00	17:12:16	675503	5.0.10.0	5_exp_RW	25	Rpleas_acq	CS_A	DXXD	CPPC	JQQJ	LWWL	ZHHZ	YFFY	träumen	sonnig	küssen	gütig	genießen	vertrauen	töten	sterben	krank	gierig	gemein	versagen	1	acq_USpleas_CSpleas1_RW	acq4567_RW	6	12	400	1	300	300	366	50	0	1	1	blank2r.bmp	0	1	+	0	1	blank2r.bmp	492	1	DXXD	492	1	blank2r.bmp	572	2	sonnig	866	1	!	1239	1	!	1266	0	0	0	0	0	0	0	0	0	0	0	0	0	0	0	0	0	0	0	0	0	0	0	0	0	0	0	0	0	0
070819	17:01:00	17:12:18	677755	5.0.10.0	5_exp_RW	25	Rpleas_acq	CS_A	DXXD	CPPC	JQQJ	LWWL	ZHHZ	YFFY	träumen	sonnig	küssen	gütig	genießen	vertrauen	töten	sterben	krank	gierig	gemein	versagen	1	acq_USunple_CSunple2_RW	acq4567_RW	6	13	400	1	300	300	455	46	0	1	1	blank2r.bmp	0	1	+	0	1	blank2r.bmp	492	1	LWWL	492	1	blank2r.bmp	572	3	versagen	866	1	!	1239	1	!	1359	0	0	0	0	0	0	0	0	0	0	0	0	0	0	0	0	0	0	0	0	0	0	0	0	0	0	0	0	0	0
