date	time	script.currenttime	script.elapsedtime	build	script.currentexpt	subject	expressions.LRpleas_acq	expressions.conditionCS_A	expressions.CSpleas_1	expressions.CSpleas_2	expressions.CSunple_1	expressions.CSunple_2	expressions.distractor_1	expressions.distractor_2	expressions.US_pleas1	expressions.US_pleas2	expressions.US_pleas3	expressions.US_pleas4	expressions.US_pleas5	expressions.US_pleas6	expressions.US_unple1	expressions.US_unple2	expressions.US_unple3	expressions.US_unple4	expressions.US_unple5	expressions.US_unple6	counter.positions_noRW	trialcode	blockcode	blocknum	trialnum	windowcenter	inwindow	pretrialpause	posttrialpause	latency	response	expressions.correctedscore	correct	stimulusnumber1	stimulusitem1	stimulusonset1	stimulusnumber2	stimulusitem2	stimulusonset2	stimulusnumber3	stimulusitem3	stimulusonset3	stimulusnumber4	stimulusitem4	stimulusonset4	stimulusnumber5	stimulusitem5	stimulusonset5	stimulusnumber6	stimulusitem6	stimulusonset6	stimulusnumber7	stimulusitem7	stimulusonset7	stimulusnumber8	stimulusitem8	stimulusonset8	stimulusnumber9	stimulusitem9	stimulusonset9	stimulusnumber10	stimulusitem10	stimulusonset10	stimulusnumber11	stimulusitem11	stimulusonset11	stimulusnumber12	stimulusitem12	stimulusonset12	stimulusnumber13	stimulusitem13	stimulusonset13	stimulusnumber14	stimulusitem14	stimulusonset14	stimulusnumber15	stimulusitem15	stimulusonset15	stimulusnumber16	stimulusitem16	stimulusonset16	stimulusnumber17	stimulusitem17	stimulusonset17	stimulusnumber18	stimulusitem18	stimulusonset18
071519	14:38:35	14:40:16	100877	5.0.10.0	5_exp_noRW	50	Rpleas_acq	CS_B	BZZB	GWWG	VKKV	MQQM	YDDY	JXXJ	ehrlich	spielen	treu	schön	fair	retten	eitel	strafen	tot	schlecht	faul	rächen	47pct	acq_USpleas_CSpleas2_noRW	acq1_noRW	1	1	0	0	300	300	1120	50	0	1	1	blank2r.bmp	0	1	+	0	1	blank2r.bmp	252	1	GWWG	306	1	schön	559	0	0	0	0	0	0	0	0	0	0	0	0	0	0	0	0	0	0	0	0	0	0	0	0	0	0	0	0	0	0	0	0	0	0	0	0	0	0	0
071519	14:38:35	14:40:18	102730	5.0.10.0	5_exp_noRW	50	Rpleas_acq	CS_B	BZZB	GWWG	VKKV	MQQM	YDDY	JXXJ	ehrlich	spielen	treu	schön	fair	retten	eitel	strafen	tot	schlecht	faul	rächen	47pct	acq_USpleas_CSpleas2_noRW	acq1_noRW	1	2	0	0	300	300	686	50	0	1	1	blank2r.bmp	0	1	+	0	1	blank2r.bmp	252	1	GWWG	306	2	fair	559	0	0	0	0	0	0	0	0	0	0	0	0	0	0	0	0	0	0	0	0	0	0	0	0	0	0	0	0	0	0	0	0	0	0	0	0	0	0	0
071519	14:38:35	14:40:20	104422	5.0.10.0	5_exp_noRW	50	Rpleas_acq	CS_B	BZZB	GWWG	VKKV	MQQM	YDDY	JXXJ	ehrlich	spielen	treu	schön	fair	retten	eitel	strafen	tot	schlecht	faul	rächen	53pct	acq_USpleas_CSunple1_noRW	acq1_noRW	1	3	0	0	300	300	527	50	0	1	1	blank2r.bmp	0	1	+	0	1	blank2r.bmp	252	1	VKKV	306	2	spielen	559	0	0	0	0	0	0	0	0	0	0	0	0	0	0	0	0	0	0	0	0	0	0	0	0	0	0	0	0	0	0	0	0	0	0	0	0	0	0	0
071519	14:38:35	14:40:21	106088	5.0.10.0	5_exp_noRW	50	Rpleas_acq	CS_B	BZZB	GWWG	VKKV	MQQM	YDDY	JXXJ	ehrlich	spielen	treu	schön	fair	retten	eitel	strafen	tot	schlecht	faul	rächen	47pct	acq_USpleas_CSpleas1_noRW	acq1_noRW	1	4	0	0	300	300	480	50	0	1	1	blank2r.bmp	0	1	+	0	1	blank2r.bmp	252	1	BZZB	306	3	treu	559	0	0	0	0	0	0	0	0	0	0	0	0	0	0	0	0	0	0	0	0	0	0	0	0	0	0	0	0	0	0	0	0	0	0	0	0	0	0	0
071519	14:38:35	14:40:23	107927	5.0.10.0	5_exp_noRW	50	Rpleas_acq	CS_B	BZZB	GWWG	VKKV	MQQM	YDDY	JXXJ	ehrlich	spielen	treu	schön	fair	retten	eitel	strafen	tot	schlecht	faul	rächen	53pct	acq_USunple_CSpleas1_noRW	acq1_noRW	1	5	0	0	300	300	677	46	0	1	1	blank2r.bmp	0	1	+	0	1	blank2r.bmp	252	1	BZZB	306	1	eitel	559	0	0	0	0	0	0	0	0	0	0	0	0	0	0	0	0	0	0	0	0	0	0	0	0	0	0	0	0	0	0	0	0	0	0	0	0	0	0	0
071519	14:38:35	14:40:25	109620	5.0.10.0	5_exp_noRW	50	Rpleas_acq	CS_B	BZZB	GWWG	VKKV	MQQM	YDDY	JXXJ	ehrlich	spielen	treu	schön	fair	retten	eitel	strafen	tot	schlecht	faul	rächen	53pct	acq_USunple_CSunple2_noRW	acq1_noRW	1	6	0	0	300	300	512	46	0	1	1	blank2r.bmp	0	1	+	0	1	blank2r.bmp	252	1	MQQM	306	2	faul	559	0	0	0	0	0	0	0	0	0	0	0	0	0	0	0	0	0	0	0	0	0	0	0	0	0	0	0	0	0	0	0	0	0	0	0	0	0	0	0
071519	14:38:35	14:40:27	111193	5.0.10.0	5_exp_noRW	50	Rpleas_acq	CS_B	BZZB	GWWG	VKKV	MQQM	YDDY	JXXJ	ehrlich	spielen	treu	schön	fair	retten	eitel	strafen	tot	schlecht	faul	rächen	53pct	acq_USunple_CSunple1_noRW	acq1_noRW	1	7	0	0	300	300	390	46	0	1	1	blank2r.bmp	0	1	+	0	1	blank2r.bmp	252	1	VKKV	306	3	tot	559	0	0	0	0	0	0	0	0	0	0	0	0	0	0	0	0	0	0	0	0	0	0	0	0	0	0	0	0	0	0	0	0	0	0	0	0	0	0	0
071519	14:38:35	14:40:28	113059	5.0.10.0	5_exp_noRW	50	Rpleas_acq	CS_B	BZZB	GWWG	VKKV	MQQM	YDDY	JXXJ	ehrlich	spielen	treu	schön	fair	retten	eitel	strafen	tot	schlecht	faul	rächen	53pct	acq_USpleas_CSpleas1_noRW	acq1_noRW	1	8	0	0	300	300	685	50	0	1	1	blank2r.bmp	0	1	+	0	1	blank2r.bmp	252	1	BZZB	306	1	ehrlich	559	0	0	0	0	0	0	0	0	0	0	0	0	0	0	0	0	0	0	0	0	0	0	0	0	0	0	0	0	0	0	0	0	0	0	0	0	0	0	0
071519	14:38:35	14:40:30	114791	5.0.10.0	5_exp_noRW	50	Rpleas_acq	CS_B	BZZB	GWWG	VKKV	MQQM	YDDY	JXXJ	ehrlich	spielen	treu	schön	fair	retten	eitel	strafen	tot	schlecht	faul	rächen	47pct	acq_USpleas_CSpleas1_noRW	acq1_noRW	1	9	0	0	300	300	567	50	0	1	1	blank2r.bmp	0	1	+	0	1	blank2r.bmp	252	1	BZZB	306	2	spielen	559	0	0	0	0	0	0	0	0	0	0	0	0	0	0	0	0	0	0	0	0	0	0	0	0	0	0	0	0	0	0	0	0	0	0	0	0	0	0	0
071519	14:38:35	14:40:32	116990	5.0.10.0	5_exp_noRW	50	Rpleas_acq	CS_B	BZZB	GWWG	VKKV	MQQM	YDDY	JXXJ	ehrlich	spielen	treu	schön	fair	retten	eitel	strafen	tot	schlecht	faul	rächen	47pct	acq_USpleas_CSpleas2_noRW	acq1_noRW	1	10	0	0	300	300	1035	50	0	1	1	blank2r.bmp	0	1	+	0	1	blank2r.bmp	252	1	GWWG	306	3	retten	559	0	0	0	0	0	0	0	0	0	0	0	0	0	0	0	0	0	0	0	0	0	0	0	0	0	0	0	0	0	0	0	0	0	0	0	0	0	0	0
071519	14:38:35	14:40:34	118790	5.0.10.0	5_exp_noRW	50	Rpleas_acq	CS_B	BZZB	GWWG	VKKV	MQQM	YDDY	JXXJ	ehrlich	spielen	treu	schön	fair	retten	eitel	strafen	tot	schlecht	faul	rächen	53pct	acq_USunple_CSunple2_noRW	acq1_noRW	1	11	0	0	300	300	633	46	0	1	1	blank2r.bmp	0	1	+	0	1	blank2r.bmp	252	1	MQQM	306	3	rächen	559	0	0	0	0	0	0	0	0	0	0	0	0	0	0	0	0	0	0	0	0	0	0	0	0	0	0	0	0	0	0	0	0	0	0	0	0	0	0	0
071519	14:38:35	14:40:36	120655	5.0.10.0	5_exp_noRW	50	Rpleas_acq	CS_B	BZZB	GWWG	VKKV	MQQM	YDDY	JXXJ	ehrlich	spielen	treu	schön	fair	retten	eitel	strafen	tot	schlecht	faul	rächen	47pct	acq_USunple_CSunple1_noRW	acq1_noRW	1	12	0	0	300	300	686	46	0	1	1	blank2r.bmp	0	1	+	0	1	blank2r.bmp	252	1	VKKV	306	1	eitel	559	0	0	0	0	0	0	0	0	0	0	0	0	0	0	0	0	0	0	0	0	0	0	0	0	0	0	0	0	0	0	0	0	0	0	0	0	0	0	0
071519	14:38:35	14:40:38	122828	5.0.10.0	5_exp_noRW	50	Rpleas_acq	CS_B	BZZB	GWWG	VKKV	MQQM	YDDY	JXXJ	ehrlich	spielen	treu	schön	fair	retten	eitel	strafen	tot	schlecht	faul	rächen	47pct	acq_USunple_CSunple1_noRW	acq1_noRW	1	13	0	0	300	300	785	50	0	0	1	blank2r.bmp	0	1	+	0	1	blank2r.bmp	252	1	VKKV	306	2	strafen	559	1	FEHLER	1386	0	0	0	0	0	0	0	0	0	0	0	0	0	0	0	0	0	0	0	0	0	0	0	0	0	0	0	0	0	0	0	0	0	0	0	0
071519	14:38:35	14:40:40	124814	5.0.10.0	5_exp_noRW	50	Rpleas_acq	CS_B	BZZB	GWWG	VKKV	MQQM	YDDY	JXXJ	ehrlich	spielen	treu	schön	fair	retten	eitel	strafen	tot	schlecht	faul	rächen	53pct	acq_USpleas_CSunple2_noRW	acq1_noRW	1	14	0	0	300	300	1024	50	0	1	1	blank2r.bmp	0	1	+	0	1	blank2r.bmp	252	1	MQQM	306	3	retten	559	0	0	0	0	0	0	0	0	0	0	0	0	0	0	0	0	0	0	0	0	0	0	0	0	0	0	0	0	0	0	0	0	0	0	0	0	0	0	0
071519	14:38:35	14:40:42	126626	5.0.10.0	5_exp_noRW	50	Rpleas_acq	CS_B	BZZB	GWWG	VKKV	MQQM	YDDY	JXXJ	ehrlich	spielen	treu	schön	fair	retten	eitel	strafen	tot	schlecht	faul	rächen	53pct	acq_USunple_CSpleas2_noRW	acq1_noRW	1	15	0	0	300	300	640	46	0	1	1	blank2r.bmp	0	1	+	0	1	blank2r.bmp	252	1	GWWG	306	1	schlecht	559	0	0	0	0	0	0	0	0	0	0	0	0	0	0	0	0	0	0	0	0	0	0	0	0	0	0	0	0	0	0	0	0	0	0	0	0	0	0	0
071519	14:38:35	14:40:44	128559	5.0.10.0	5_exp_noRW	50	Rpleas_acq	CS_B	BZZB	GWWG	VKKV	MQQM	YDDY	JXXJ	ehrlich	spielen	treu	schön	fair	retten	eitel	strafen	tot	schlecht	faul	rächen	53pct	acq_USpleas_CSpleas2_noRW	acq1_noRW	1	16	0	0	300	300	756	50	0	1	1	blank2r.bmp	0	1	+	0	1	blank2r.bmp	252	1	GWWG	306	3	retten	559	0	0	0	0	0	0	0	0	0	0	0	0	0	0	0	0	0	0	0	0	0	0	0	0	0	0	0	0	0	0	0	0	0	0	0	0	0	0	0
071519	14:38:35	14:40:46	130358	5.0.10.0	5_exp_noRW	50	Rpleas_acq	CS_B	BZZB	GWWG	VKKV	MQQM	YDDY	JXXJ	ehrlich	spielen	treu	schön	fair	retten	eitel	strafen	tot	schlecht	faul	rächen	53pct	acq_USunple_CSunple1_noRW	acq1_noRW	1	17	0	0	300	300	614	46	0	1	1	blank2r.bmp	0	1	+	0	1	blank2r.bmp	252	1	VKKV	306	3	tot	559	0	0	0	0	0	0	0	0	0	0	0	0	0	0	0	0	0	0	0	0	0	0	0	0	0	0	0	0	0	0	0	0	0	0	0	0	0	0	0
071519	14:38:35	14:40:48	132157	5.0.10.0	5_exp_noRW	50	Rpleas_acq	CS_B	BZZB	GWWG	VKKV	MQQM	YDDY	JXXJ	ehrlich	spielen	treu	schön	fair	retten	eitel	strafen	tot	schlecht	faul	rächen	47pct	acq_USunple_CSunple2_noRW	acq1_noRW	1	18	0	0	300	300	630	46	0	1	1	blank2r.bmp	0	1	+	0	1	blank2r.bmp	252	1	MQQM	306	1	schlecht	559	0	0	0	0	0	0	0	0	0	0	0	0	0	0	0	0	0	0	0	0	0	0	0	0	0	0	0	0	0	0	0	0	0	0	0	0	0	0	0
071519	14:38:35	14:40:49	133930	5.0.10.0	5_exp_noRW	50	Rpleas_acq	CS_B	BZZB	GWWG	VKKV	MQQM	YDDY	JXXJ	ehrlich	spielen	treu	schön	fair	retten	eitel	strafen	tot	schlecht	faul	rächen	53pct	acq_USpleas_CSpleas1_noRW	acq1_noRW	1	19	0	0	300	300	606	50	0	1	1	blank2r.bmp	0	1	+	0	1	blank2r.bmp	252	1	BZZB	306	2	spielen	559	0	0	0	0	0	0	0	0	0	0	0	0	0	0	0	0	0	0	0	0	0	0	0	0	0	0	0	0	0	0	0	0	0	0	0	0	0	0	0
071519	14:38:35	14:40:51	135729	5.0.10.0	5_exp_noRW	50	Rpleas_acq	CS_B	BZZB	GWWG	VKKV	MQQM	YDDY	JXXJ	ehrlich	spielen	treu	schön	fair	retten	eitel	strafen	tot	schlecht	faul	rächen	47pct	acq_USunple_CSunple2_noRW	acq1_noRW	1	20	0	0	300	300	638	46	0	1	1	blank2r.bmp	0	1	+	0	1	blank2r.bmp	252	1	MQQM	306	1	schlecht	559	0	0	0	0	0	0	0	0	0	0	0	0	0	0	0	0	0	0	0	0	0	0	0	0	0	0	0	0	0	0	0	0	0	0	0	0	0	0	0
071519	14:38:35	14:40:53	137848	5.0.10.0	5_exp_noRW	50	Rpleas_acq	CS_B	BZZB	GWWG	VKKV	MQQM	YDDY	JXXJ	ehrlich	spielen	treu	schön	fair	retten	eitel	strafen	tot	schlecht	faul	rächen	53pct	acq_USunple_CSunple1_noRW	acq1_noRW	1	21	0	0	300	300	932	46	0	1	1	blank2r.bmp	0	1	+	0	1	blank2r.bmp	252	1	VKKV	306	1	eitel	559	0	0	0	0	0	0	0	0	0	0	0	0	0	0	0	0	0	0	0	0	0	0	0	0	0	0	0	0	0	0	0	0	0	0	0	0	0	0	0
071519	14:38:35	14:40:55	139554	5.0.10.0	5_exp_noRW	50	Rpleas_acq	CS_B	BZZB	GWWG	VKKV	MQQM	YDDY	JXXJ	ehrlich	spielen	treu	schön	fair	retten	eitel	strafen	tot	schlecht	faul	rächen	47pct	acq_USunple_CSunple2_noRW	acq1_noRW	1	22	0	0	300	300	542	46	0	1	1	blank2r.bmp	0	1	+	0	1	blank2r.bmp	252	1	MQQM	306	2	faul	559	0	0	0	0	0	0	0	0	0	0	0	0	0	0	0	0	0	0	0	0	0	0	0	0	0	0	0	0	0	0	0	0	0	0	0	0	0	0	0
071519	14:38:35	14:40:57	141273	5.0.10.0	5_exp_noRW	50	Rpleas_acq	CS_B	BZZB	GWWG	VKKV	MQQM	YDDY	JXXJ	ehrlich	spielen	treu	schön	fair	retten	eitel	strafen	tot	schlecht	faul	rächen	53pct	acq_USunple_CSunple2_noRW	acq1_noRW	1	23	0	0	300	300	534	46	0	1	1	blank2r.bmp	0	1	+	0	1	blank2r.bmp	252	1	MQQM	306	3	rächen	559	0	0	0	0	0	0	0	0	0	0	0	0	0	0	0	0	0	0	0	0	0	0	0	0	0	0	0	0	0	0	0	0	0	0	0	0	0	0	0
071519	14:38:35	14:40:58	143006	5.0.10.0	5_exp_noRW	50	Rpleas_acq	CS_B	BZZB	GWWG	VKKV	MQQM	YDDY	JXXJ	ehrlich	spielen	treu	schön	fair	retten	eitel	strafen	tot	schlecht	faul	rächen	47pct	acq_USpleas_CSpleas2_noRW	acq1_noRW	1	24	0	0	300	300	547	50	0	1	1	blank2r.bmp	0	1	+	0	1	blank2r.bmp	252	1	GWWG	306	1	schön	559	0	0	0	0	0	0	0	0	0	0	0	0	0	0	0	0	0	0	0	0	0	0	0	0	0	0	0	0	0	0	0	0	0	0	0	0	0	0	0
071519	14:38:35	14:41:00	144832	5.0.10.0	5_exp_noRW	50	Rpleas_acq	CS_B	BZZB	GWWG	VKKV	MQQM	YDDY	JXXJ	ehrlich	spielen	treu	schön	fair	retten	eitel	strafen	tot	schlecht	faul	rächen	53pct	acq_USunple_CSpleas2_noRW	acq1_noRW	1	25	0	0	300	300	640	46	0	1	1	blank2r.bmp	0	1	+	0	1	blank2r.bmp	252	1	GWWG	306	3	rächen	559	0	0	0	0	0	0	0	0	0	0	0	0	0	0	0	0	0	0	0	0	0	0	0	0	0	0	0	0	0	0	0	0	0	0	0	0	0	0	0
071519	14:38:35	14:41:02	146858	5.0.10.0	5_exp_noRW	50	Rpleas_acq	CS_B	BZZB	GWWG	VKKV	MQQM	YDDY	JXXJ	ehrlich	spielen	treu	schön	fair	retten	eitel	strafen	tot	schlecht	faul	rächen	47pct	acq_USpleas_CSpleas2_noRW	acq1_noRW	1	26	0	0	300	300	839	50	0	1	1	blank2r.bmp	0	1	+	0	1	blank2r.bmp	252	1	GWWG	306	2	fair	559	0	0	0	0	0	0	0	0	0	0	0	0	0	0	0	0	0	0	0	0	0	0	0	0	0	0	0	0	0	0	0	0	0	0	0	0	0	0	0
071519	14:38:35	14:41:04	148497	5.0.10.0	5_exp_noRW	50	Rpleas_acq	CS_B	BZZB	GWWG	VKKV	MQQM	YDDY	JXXJ	ehrlich	spielen	treu	schön	fair	retten	eitel	strafen	tot	schlecht	faul	rächen	53pct	acq_USpleas_CSunple1_noRW	acq1_noRW	1	27	0	0	300	300	473	50	0	1	1	blank2r.bmp	0	1	+	0	1	blank2r.bmp	252	1	VKKV	306	1	ehrlich	559	0	0	0	0	0	0	0	0	0	0	0	0	0	0	0	0	0	0	0	0	0	0	0	0	0	0	0	0	0	0	0	0	0	0	0	0	0	0	0
071519	14:38:35	14:41:05	150043	5.0.10.0	5_exp_noRW	50	Rpleas_acq	CS_B	BZZB	GWWG	VKKV	MQQM	YDDY	JXXJ	ehrlich	spielen	treu	schön	fair	retten	eitel	strafen	tot	schlecht	faul	rächen	53pct	acq_USpleas_CSunple2_noRW	acq1_noRW	1	28	0	0	300	300	366	50	0	1	1	blank2r.bmp	0	1	+	0	1	blank2r.bmp	252	1	MQQM	306	2	fair	559	0	0	0	0	0	0	0	0	0	0	0	0	0	0	0	0	0	0	0	0	0	0	0	0	0	0	0	0	0	0	0	0	0	0	0	0	0	0	0
071519	14:38:35	14:41:07	151642	5.0.10.0	5_exp_noRW	50	Rpleas_acq	CS_B	BZZB	GWWG	VKKV	MQQM	YDDY	JXXJ	ehrlich	spielen	treu	schön	fair	retten	eitel	strafen	tot	schlecht	faul	rächen	53pct	acq_USunple_CSunple2_noRW	acq1_noRW	1	29	0	0	300	300	417	46	0	1	1	blank2r.bmp	0	1	+	0	1	blank2r.bmp	252	1	MQQM	306	1	schlecht	559	0	0	0	0	0	0	0	0	0	0	0	0	0	0	0	0	0	0	0	0	0	0	0	0	0	0	0	0	0	0	0	0	0	0	0	0	0	0	0
071519	14:38:35	14:41:09	153388	5.0.10.0	5_exp_noRW	50	Rpleas_acq	CS_B	BZZB	GWWG	VKKV	MQQM	YDDY	JXXJ	ehrlich	spielen	treu	schön	fair	retten	eitel	strafen	tot	schlecht	faul	rächen	47pct	acq_USunple_CSunple1_noRW	acq1_noRW	1	30	0	0	300	300	578	46	0	1	1	blank2r.bmp	0	1	+	0	1	blank2r.bmp	252	1	VKKV	306	2	strafen	559	0	0	0	0	0	0	0	0	0	0	0	0	0	0	0	0	0	0	0	0	0	0	0	0	0	0	0	0	0	0	0	0	0	0	0	0	0	0	0
071519	14:38:35	14:41:11	155094	5.0.10.0	5_exp_noRW	50	Rpleas_acq	CS_B	BZZB	GWWG	VKKV	MQQM	YDDY	JXXJ	ehrlich	spielen	treu	schön	fair	retten	eitel	strafen	tot	schlecht	faul	rächen	47pct	acq_USpleas_CSpleas1_noRW	acq1_noRW	1	31	0	0	300	300	544	50	0	1	1	blank2r.bmp	0	1	+	0	1	blank2r.bmp	252	1	BZZB	306	3	treu	559	0	0	0	0	0	0	0	0	0	0	0	0	0	0	0	0	0	0	0	0	0	0	0	0	0	0	0	0	0	0	0	0	0	0	0	0	0	0	0
071519	14:38:35	14:41:12	157000	5.0.10.0	5_exp_noRW	50	Rpleas_acq	CS_B	BZZB	GWWG	VKKV	MQQM	YDDY	JXXJ	ehrlich	spielen	treu	schön	fair	retten	eitel	strafen	tot	schlecht	faul	rächen	53pct	acq_USunple_CSunple2_noRW	acq1_noRW	1	32	0	0	300	300	719	46	0	1	1	blank2r.bmp	0	1	+	0	1	blank2r.bmp	252	1	MQQM	306	2	faul	559	0	0	0	0	0	0	0	0	0	0	0	0	0	0	0	0	0	0	0	0	0	0	0	0	0	0	0	0	0	0	0	0	0	0	0	0	0	0	0
071519	14:38:35	14:41:15	159133	5.0.10.0	5_exp_noRW	50	Rpleas_acq	CS_B	BZZB	GWWG	VKKV	MQQM	YDDY	JXXJ	ehrlich	spielen	treu	schön	fair	retten	eitel	strafen	tot	schlecht	faul	rächen	53pct	acq_USpleas_CSpleas2_noRW	acq1_noRW	1	33	0	0	300	300	957	50	0	1	1	blank2r.bmp	0	1	+	0	1	blank2r.bmp	252	1	GWWG	306	3	retten	559	0	0	0	0	0	0	0	0	0	0	0	0	0	0	0	0	0	0	0	0	0	0	0	0	0	0	0	0	0	0	0	0	0	0	0	0	0	0	0
071519	14:38:35	14:41:16	160825	5.0.10.0	5_exp_noRW	50	Rpleas_acq	CS_B	BZZB	GWWG	VKKV	MQQM	YDDY	JXXJ	ehrlich	spielen	treu	schön	fair	retten	eitel	strafen	tot	schlecht	faul	rächen	47pct	acq_USpleas_CSpleas2_noRW	acq1_noRW	1	34	0	0	300	300	505	50	0	1	1	blank2r.bmp	0	1	+	0	1	blank2r.bmp	252	1	GWWG	306	2	fair	559	0	0	0	0	0	0	0	0	0	0	0	0	0	0	0	0	0	0	0	0	0	0	0	0	0	0	0	0	0	0	0	0	0	0	0	0	0	0	0
071519	14:38:35	14:41:18	162665	5.0.10.0	5_exp_noRW	50	Rpleas_acq	CS_B	BZZB	GWWG	VKKV	MQQM	YDDY	JXXJ	ehrlich	spielen	treu	schön	fair	retten	eitel	strafen	tot	schlecht	faul	rächen	47pct	acq_USpleas_CSpleas1_noRW	acq1_noRW	1	35	0	0	300	300	670	50	0	1	1	blank2r.bmp	0	1	+	0	1	blank2r.bmp	252	1	BZZB	306	1	ehrlich	559	0	0	0	0	0	0	0	0	0	0	0	0	0	0	0	0	0	0	0	0	0	0	0	0	0	0	0	0	0	0	0	0	0	0	0	0	0	0	0
071519	14:38:35	14:41:20	164330	5.0.10.0	5_exp_noRW	50	Rpleas_acq	CS_B	BZZB	GWWG	VKKV	MQQM	YDDY	JXXJ	ehrlich	spielen	treu	schön	fair	retten	eitel	strafen	tot	schlecht	faul	rächen	53pct	acq_USpleas_CSpleas1_noRW	acq1_noRW	1	36	0	0	300	300	494	50	0	1	1	blank2r.bmp	0	1	+	0	1	blank2r.bmp	252	1	BZZB	306	2	spielen	559	0	0	0	0	0	0	0	0	0	0	0	0	0	0	0	0	0	0	0	0	0	0	0	0	0	0	0	0	0	0	0	0	0	0	0	0	0	0	0
071519	14:38:35	14:41:21	166063	5.0.10.0	5_exp_noRW	50	Rpleas_acq	CS_B	BZZB	GWWG	VKKV	MQQM	YDDY	JXXJ	ehrlich	spielen	treu	schön	fair	retten	eitel	strafen	tot	schlecht	faul	rächen	47pct	acq_USunple_CSunple1_noRW	acq1_noRW	1	37	0	0	300	300	554	46	0	1	1	blank2r.bmp	0	1	+	0	1	blank2r.bmp	252	1	VKKV	306	2	strafen	559	0	0	0	0	0	0	0	0	0	0	0	0	0	0	0	0	0	0	0	0	0	0	0	0	0	0	0	0	0	0	0	0	0	0	0	0	0	0	0
071519	14:38:35	14:41:23	168009	5.0.10.0	5_exp_noRW	50	Rpleas_acq	CS_B	BZZB	GWWG	VKKV	MQQM	YDDY	JXXJ	ehrlich	spielen	treu	schön	fair	retten	eitel	strafen	tot	schlecht	faul	rächen	47pct	acq_USunple_CSpleas1_noRW	acq1_noRW	1	38	0	0	300	300	759	46	0	1	1	blank2r.bmp	0	1	+	0	1	blank2r.bmp	252	1	BZZB	306	2	strafen	559	0	0	0	0	0	0	0	0	0	0	0	0	0	0	0	0	0	0	0	0	0	0	0	0	0	0	0	0	0	0	0	0	0	0	0	0	0	0	0
071519	14:38:35	14:41:26	170141	5.0.10.0	5_exp_noRW	50	Rpleas_acq	CS_B	BZZB	GWWG	VKKV	MQQM	YDDY	JXXJ	ehrlich	spielen	treu	schön	fair	retten	eitel	strafen	tot	schlecht	faul	rächen	53pct	acq_USunple_CSunple1_noRW	acq1_noRW	1	39	0	0	300	300	748	50	0	0	1	blank2r.bmp	0	1	+	0	1	blank2r.bmp	252	1	VKKV	306	1	eitel	559	1	FEHLER	1346	0	0	0	0	0	0	0	0	0	0	0	0	0	0	0	0	0	0	0	0	0	0	0	0	0	0	0	0	0	0	0	0	0	0	0	0
071519	14:38:35	14:41:27	171661	5.0.10.0	5_exp_noRW	50	Rpleas_acq	CS_B	BZZB	GWWG	VKKV	MQQM	YDDY	JXXJ	ehrlich	spielen	treu	schön	fair	retten	eitel	strafen	tot	schlecht	faul	rächen	47pct	acq_USpleas_CSpleas1_noRW	acq1_noRW	1	40	0	0	300	300	552	50	0	1	1	blank2r.bmp	0	1	+	0	1	blank2r.bmp	252	1	BZZB	306	3	treu	559	0	0	0	0	0	0	0	0	0	0	0	0	0	0	0	0	0	0	0	0	0	0	0	0	0	0	0	0	0	0	0	0	0	0	0	0	0	0	0
071519	14:38:35	14:41:29	173273	5.0.10.0	5_exp_noRW	50	Rpleas_acq	CS_B	BZZB	GWWG	VKKV	MQQM	YDDY	JXXJ	ehrlich	spielen	treu	schön	fair	retten	eitel	strafen	tot	schlecht	faul	rächen	53pct	acq_USpleas_CSunple2_noRW	acq1_noRW	1	41	0	0	300	300	433	50	0	1	1	blank2r.bmp	0	1	+	0	1	blank2r.bmp	252	1	MQQM	306	1	schön	559	0	0	0	0	0	0	0	0	0	0	0	0	0	0	0	0	0	0	0	0	0	0	0	0	0	0	0	0	0	0	0	0	0	0	0	0	0	0	0
071519	14:38:35	14:41:30	175019	5.0.10.0	5_exp_noRW	50	Rpleas_acq	CS_B	BZZB	GWWG	VKKV	MQQM	YDDY	JXXJ	ehrlich	spielen	treu	schön	fair	retten	eitel	strafen	tot	schlecht	faul	rächen	47pct	acq_USpleas_CSunple1_noRW	acq1_noRW	1	42	0	0	300	300	573	50	0	1	1	blank2r.bmp	0	1	+	0	1	blank2r.bmp	252	1	VKKV	306	3	treu	559	0	0	0	0	0	0	0	0	0	0	0	0	0	0	0	0	0	0	0	0	0	0	0	0	0	0	0	0	0	0	0	0	0	0	0	0	0	0	0
071519	14:38:35	14:41:32	176525	5.0.10.0	5_exp_noRW	50	Rpleas_acq	CS_B	BZZB	GWWG	VKKV	MQQM	YDDY	JXXJ	ehrlich	spielen	treu	schön	fair	retten	eitel	strafen	tot	schlecht	faul	rächen	53pct	acq_USpleas_CSpleas2_noRW	acq1_noRW	1	43	0	0	300	300	339	50	0	1	1	blank2r.bmp	0	1	+	0	1	blank2r.bmp	252	1	GWWG	306	1	schön	559	0	0	0	0	0	0	0	0	0	0	0	0	0	0	0	0	0	0	0	0	0	0	0	0	0	0	0	0	0	0	0	0	0	0	0	0	0	0	0
071519	14:38:35	14:41:34	178165	5.0.10.0	5_exp_noRW	50	Rpleas_acq	CS_B	BZZB	GWWG	VKKV	MQQM	YDDY	JXXJ	ehrlich	spielen	treu	schön	fair	retten	eitel	strafen	tot	schlecht	faul	rächen	53pct	acq_USpleas_CSpleas1_noRW	acq1_noRW	1	44	0	0	300	300	456	50	0	1	1	blank2r.bmp	0	1	+	0	1	blank2r.bmp	252	1	BZZB	306	1	ehrlich	559	0	0	0	0	0	0	0	0	0	0	0	0	0	0	0	0	0	0	0	0	0	0	0	0	0	0	0	0	0	0	0	0	0	0	0	0	0	0	0
071519	14:38:35	14:41:35	179657	5.0.10.0	5_exp_noRW	50	Rpleas_acq	CS_B	BZZB	GWWG	VKKV	MQQM	YDDY	JXXJ	ehrlich	spielen	treu	schön	fair	retten	eitel	strafen	tot	schlecht	faul	rächen	47pct	acq_USpleas_CSpleas2_noRW	acq1_noRW	1	45	0	0	300	300	308	50	0	1	1	blank2r.bmp	0	1	+	0	1	blank2r.bmp	252	1	GWWG	306	1	schön	559	0	0	0	0	0	0	0	0	0	0	0	0	0	0	0	0	0	0	0	0	0	0	0	0	0	0	0	0	0	0	0	0	0	0	0	0	0	0	0
071519	14:38:35	14:41:37	181470	5.0.10.0	5_exp_noRW	50	Rpleas_acq	CS_B	BZZB	GWWG	VKKV	MQQM	YDDY	JXXJ	ehrlich	spielen	treu	schön	fair	retten	eitel	strafen	tot	schlecht	faul	rächen	53pct	acq_USunple_CSunple1_noRW	acq1_noRW	1	46	0	0	300	300	646	46	0	1	1	blank2r.bmp	0	1	+	0	1	blank2r.bmp	252	1	VKKV	306	3	tot	559	0	0	0	0	0	0	0	0	0	0	0	0	0	0	0	0	0	0	0	0	0	0	0	0	0	0	0	0	0	0	0	0	0	0	0	0	0	0	0
071519	14:38:35	14:41:38	182989	5.0.10.0	5_exp_noRW	50	Rpleas_acq	CS_B	BZZB	GWWG	VKKV	MQQM	YDDY	JXXJ	ehrlich	spielen	treu	schön	fair	retten	eitel	strafen	tot	schlecht	faul	rächen	47pct	acq_USunple_CSunple1_noRW	acq1_noRW	1	47	0	0	300	300	334	46	0	1	1	blank2r.bmp	0	1	+	0	1	blank2r.bmp	252	1	VKKV	306	3	tot	559	0	0	0	0	0	0	0	0	0	0	0	0	0	0	0	0	0	0	0	0	0	0	0	0	0	0	0	0	0	0	0	0	0	0	0	0	0	0	0
071519	14:38:35	14:41:40	184722	5.0.10.0	5_exp_noRW	50	Rpleas_acq	CS_B	BZZB	GWWG	VKKV	MQQM	YDDY	JXXJ	ehrlich	spielen	treu	schön	fair	retten	eitel	strafen	tot	schlecht	faul	rächen	47pct	acq_USpleas_CSpleas2_noRW	acq1_noRW	1	48	0	0	300	300	552	50	0	1	1	blank2r.bmp	0	1	+	0	1	blank2r.bmp	252	1	GWWG	306	2	fair	559	0	0	0	0	0	0	0	0	0	0	0	0	0	0	0	0	0	0	0	0	0	0	0	0	0	0	0	0	0	0	0	0	0	0	0	0	0	0	0
071519	14:38:35	14:41:42	186508	5.0.10.0	5_exp_noRW	50	Rpleas_acq	CS_B	BZZB	GWWG	VKKV	MQQM	YDDY	JXXJ	ehrlich	spielen	treu	schön	fair	retten	eitel	strafen	tot	schlecht	faul	rächen	47pct	acq_USunple_CSunple2_noRW	acq1_noRW	1	49	0	0	300	300	609	46	0	1	1	blank2r.bmp	0	1	+	0	1	blank2r.bmp	252	1	MQQM	306	3	rächen	559	0	0	0	0	0	0	0	0	0	0	0	0	0	0	0	0	0	0	0	0	0	0	0	0	0	0	0	0	0	0	0	0	0	0	0	0	0	0	0
071519	14:38:35	14:41:44	188654	5.0.10.0	5_exp_noRW	50	Rpleas_acq	CS_B	BZZB	GWWG	VKKV	MQQM	YDDY	JXXJ	ehrlich	spielen	treu	schön	fair	retten	eitel	strafen	tot	schlecht	faul	rächen	47pct	acq_USunple_CSpleas2_noRW	acq1_noRW	1	50	0	0	300	300	969	46	0	1	1	blank2r.bmp	0	1	+	0	1	blank2r.bmp	252	1	GWWG	306	2	faul	559	0	0	0	0	0	0	0	0	0	0	0	0	0	0	0	0	0	0	0	0	0	0	0	0	0	0	0	0	0	0	0	0	0	0	0	0	0	0	0
071519	14:38:35	14:41:46	190253	5.0.10.0	5_exp_noRW	50	Rpleas_acq	CS_B	BZZB	GWWG	VKKV	MQQM	YDDY	JXXJ	ehrlich	spielen	treu	schön	fair	retten	eitel	strafen	tot	schlecht	faul	rächen	47pct	acq_USunple_CSunple1_noRW	acq1_noRW	1	51	0	0	300	300	433	46	0	1	1	blank2r.bmp	0	1	+	0	1	blank2r.bmp	252	1	VKKV	306	2	strafen	559	0	0	0	0	0	0	0	0	0	0	0	0	0	0	0	0	0	0	0	0	0	0	0	0	0	0	0	0	0	0	0	0	0	0	0	0	0	0	0
071519	14:38:35	14:41:47	192039	5.0.10.0	5_exp_noRW	50	Rpleas_acq	CS_B	BZZB	GWWG	VKKV	MQQM	YDDY	JXXJ	ehrlich	spielen	treu	schön	fair	retten	eitel	strafen	tot	schlecht	faul	rächen	53pct	acq_USunple_CSunple1_noRW	acq1_noRW	1	52	0	0	300	300	602	46	0	1	1	blank2r.bmp	0	1	+	0	1	blank2r.bmp	252	1	VKKV	306	1	eitel	559	0	0	0	0	0	0	0	0	0	0	0	0	0	0	0	0	0	0	0	0	0	0	0	0	0	0	0	0	0	0	0	0	0	0	0	0	0	0	0
071519	14:38:35	14:41:49	193745	5.0.10.0	5_exp_noRW	50	Rpleas_acq	CS_B	BZZB	GWWG	VKKV	MQQM	YDDY	JXXJ	ehrlich	spielen	treu	schön	fair	retten	eitel	strafen	tot	schlecht	faul	rächen	53pct	acq_USunple_CSunple2_noRW	acq1_noRW	1	53	0	0	300	300	537	46	0	1	1	blank2r.bmp	0	1	+	0	1	blank2r.bmp	252	1	MQQM	306	1	schlecht	559	0	0	0	0	0	0	0	0	0	0	0	0	0	0	0	0	0	0	0	0	0	0	0	0	0	0	0	0	0	0	0	0	0	0	0	0	0	0	0
071519	14:38:35	14:41:51	195424	5.0.10.0	5_exp_noRW	50	Rpleas_acq	CS_B	BZZB	GWWG	VKKV	MQQM	YDDY	JXXJ	ehrlich	spielen	treu	schön	fair	retten	eitel	strafen	tot	schlecht	faul	rächen	53pct	acq_USpleas_CSpleas1_noRW	acq1_noRW	1	54	0	0	300	300	293	46	0	0	1	blank2r.bmp	0	1	+	0	1	blank2r.bmp	252	1	BZZB	306	1	ehrlich	559	1	FEHLER	892	0	0	0	0	0	0	0	0	0	0	0	0	0	0	0	0	0	0	0	0	0	0	0	0	0	0	0	0	0	0	0	0	0	0	0	0
071519	14:38:35	14:41:52	196824	5.0.10.0	5_exp_noRW	50	Rpleas_acq	CS_B	BZZB	GWWG	VKKV	MQQM	YDDY	JXXJ	ehrlich	spielen	treu	schön	fair	retten	eitel	strafen	tot	schlecht	faul	rächen	47pct	acq_USunple_CSunple2_noRW	acq1_noRW	1	55	0	0	300	300	439	46	0	1	1	blank2r.bmp	0	1	+	0	1	blank2r.bmp	252	1	MQQM	306	3	rächen	559	0	0	0	0	0	0	0	0	0	0	0	0	0	0	0	0	0	0	0	0	0	0	0	0	0	0	0	0	0	0	0	0	0	0	0	0	0	0	0
071519	14:38:35	14:41:54	198676	5.0.10.0	5_exp_noRW	50	Rpleas_acq	CS_B	BZZB	GWWG	VKKV	MQQM	YDDY	JXXJ	ehrlich	spielen	treu	schön	fair	retten	eitel	strafen	tot	schlecht	faul	rächen	47pct	acq_USpleas_CSpleas2_noRW	acq1_noRW	1	56	0	0	300	300	686	50	0	1	1	blank2r.bmp	0	1	+	0	1	blank2r.bmp	252	1	GWWG	306	3	retten	559	0	0	0	0	0	0	0	0	0	0	0	0	0	0	0	0	0	0	0	0	0	0	0	0	0	0	0	0	0	0	0	0	0	0	0	0	0	0	0
071519	14:38:35	14:41:56	200315	5.0.10.0	5_exp_noRW	50	Rpleas_acq	CS_B	BZZB	GWWG	VKKV	MQQM	YDDY	JXXJ	ehrlich	spielen	treu	schön	fair	retten	eitel	strafen	tot	schlecht	faul	rächen	47pct	acq_USpleas_CSpleas1_noRW	acq1_noRW	1	57	0	0	300	300	459	50	0	1	1	blank2r.bmp	0	1	+	0	1	blank2r.bmp	252	1	BZZB	306	2	spielen	559	0	0	0	0	0	0	0	0	0	0	0	0	0	0	0	0	0	0	0	0	0	0	0	0	0	0	0	0	0	0	0	0	0	0	0	0	0	0	0
071519	14:38:35	14:41:57	201875	5.0.10.0	5_exp_noRW	50	Rpleas_acq	CS_B	BZZB	GWWG	VKKV	MQQM	YDDY	JXXJ	ehrlich	spielen	treu	schön	fair	retten	eitel	strafen	tot	schlecht	faul	rächen	47pct	acq_USpleas_CSpleas1_noRW	acq1_noRW	1	58	0	0	300	300	372	50	0	1	1	blank2r.bmp	0	1	+	0	1	blank2r.bmp	252	1	BZZB	306	3	treu	559	0	0	0	0	0	0	0	0	0	0	0	0	0	0	0	0	0	0	0	0	0	0	0	0	0	0	0	0	0	0	0	0	0	0	0	0	0	0	0
071519	14:38:35	14:41:59	203607	5.0.10.0	5_exp_noRW	50	Rpleas_acq	CS_B	BZZB	GWWG	VKKV	MQQM	YDDY	JXXJ	ehrlich	spielen	treu	schön	fair	retten	eitel	strafen	tot	schlecht	faul	rächen	47pct	acq_USunple_CSunple2_noRW	acq1_noRW	1	59	0	0	300	300	563	46	0	1	1	blank2r.bmp	0	1	+	0	1	blank2r.bmp	252	1	MQQM	306	2	faul	559	0	0	0	0	0	0	0	0	0	0	0	0	0	0	0	0	0	0	0	0	0	0	0	0	0	0	0	0	0	0	0	0	0	0	0	0	0	0	0
071519	14:38:35	14:42:01	205287	5.0.10.0	5_exp_noRW	50	Rpleas_acq	CS_B	BZZB	GWWG	VKKV	MQQM	YDDY	JXXJ	ehrlich	spielen	treu	schön	fair	retten	eitel	strafen	tot	schlecht	faul	rächen	53pct	acq_USunple_CSpleas1_noRW	acq1_noRW	1	60	0	0	300	300	503	46	0	1	1	blank2r.bmp	0	1	+	0	1	blank2r.bmp	252	1	BZZB	306	3	tot	559	0	0	0	0	0	0	0	0	0	0	0	0	0	0	0	0	0	0	0	0	0	0	0	0	0	0	0	0	0	0	0	0	0	0	0	0	0	0	0
071519	14:38:35	14:42:02	206939	5.0.10.0	5_exp_noRW	50	Rpleas_acq	CS_B	BZZB	GWWG	VKKV	MQQM	YDDY	JXXJ	ehrlich	spielen	treu	schön	fair	retten	eitel	strafen	tot	schlecht	faul	rächen	47pct	acq_USpleas_CSunple1_noRW	acq1_noRW	1	61	0	0	300	300	472	50	0	1	1	blank2r.bmp	0	1	+	0	1	blank2r.bmp	252	1	VKKV	306	3	treu	559	0	0	0	0	0	0	0	0	0	0	0	0	0	0	0	0	0	0	0	0	0	0	0	0	0	0	0	0	0	0	0	0	0	0	0	0	0	0	0
071519	14:38:35	14:42:04	208699	5.0.10.0	5_exp_noRW	50	Rpleas_acq	CS_B	BZZB	GWWG	VKKV	MQQM	YDDY	JXXJ	ehrlich	spielen	treu	schön	fair	retten	eitel	strafen	tot	schlecht	faul	rächen	47pct	acq_USunple_CSpleas1_noRW	acq1_noRW	1	62	0	0	300	300	594	46	0	1	1	blank2r.bmp	0	1	+	0	1	blank2r.bmp	252	1	BZZB	306	3	tot	559	0	0	0	0	0	0	0	0	0	0	0	0	0	0	0	0	0	0	0	0	0	0	0	0	0	0	0	0	0	0	0	0	0	0	0	0	0	0	0
071519	14:38:35	14:42:06	210418	5.0.10.0	5_exp_noRW	50	Rpleas_acq	CS_B	BZZB	GWWG	VKKV	MQQM	YDDY	JXXJ	ehrlich	spielen	treu	schön	fair	retten	eitel	strafen	tot	schlecht	faul	rächen	53pct	acq_USpleas_CSpleas1_noRW	acq1_noRW	1	63	0	0	300	300	541	50	0	1	1	blank2r.bmp	0	1	+	0	1	blank2r.bmp	252	1	BZZB	306	3	treu	559	0	0	0	0	0	0	0	0	0	0	0	0	0	0	0	0	0	0	0	0	0	0	0	0	0	0	0	0	0	0	0	0	0	0	0	0	0	0	0
071519	14:38:35	14:42:08	212230	5.0.10.0	5_exp_noRW	50	Rpleas_acq	CS_B	BZZB	GWWG	VKKV	MQQM	YDDY	JXXJ	ehrlich	spielen	treu	schön	fair	retten	eitel	strafen	tot	schlecht	faul	rächen	53pct	acq_USpleas_CSpleas1_noRW	acq1_noRW	1	64	0	0	300	300	651	50	0	1	1	blank2r.bmp	0	1	+	0	1	blank2r.bmp	252	1	BZZB	306	2	spielen	559	0	0	0	0	0	0	0	0	0	0	0	0	0	0	0	0	0	0	0	0	0	0	0	0	0	0	0	0	0	0	0	0	0	0	0	0	0	0	0
071519	14:38:35	14:42:09	213950	5.0.10.0	5_exp_noRW	50	Rpleas_acq	CS_B	BZZB	GWWG	VKKV	MQQM	YDDY	JXXJ	ehrlich	spielen	treu	schön	fair	retten	eitel	strafen	tot	schlecht	faul	rächen	47pct	acq_USunple_CSunple1_noRW	acq1_noRW	1	65	0	0	300	300	542	46	0	1	1	blank2r.bmp	0	1	+	0	1	blank2r.bmp	252	1	VKKV	306	2	strafen	559	0	0	0	0	0	0	0	0	0	0	0	0	0	0	0	0	0	0	0	0	0	0	0	0	0	0	0	0	0	0	0	0	0	0	0	0	0	0	0
071519	14:38:35	14:42:12	216402	5.0.10.0	5_exp_noRW	50	Rpleas_acq	CS_B	BZZB	GWWG	VKKV	MQQM	YDDY	JXXJ	ehrlich	spielen	treu	schön	fair	retten	eitel	strafen	tot	schlecht	faul	rächen	47pct	acq_USunple_CSunple1_noRW	acq1_noRW	1	66	0	0	300	300	1272	46	0	1	1	blank2r.bmp	0	1	+	0	1	blank2r.bmp	252	1	VKKV	306	1	eitel	559	0	0	0	0	0	0	0	0	0	0	0	0	0	0	0	0	0	0	0	0	0	0	0	0	0	0	0	0	0	0	0	0	0	0	0	0	0	0	0
071519	14:38:35	14:42:13	218068	5.0.10.0	5_exp_noRW	50	Rpleas_acq	CS_B	BZZB	GWWG	VKKV	MQQM	YDDY	JXXJ	ehrlich	spielen	treu	schön	fair	retten	eitel	strafen	tot	schlecht	faul	rächen	47pct	acq_USunple_CSunple2_noRW	acq1_noRW	1	67	0	0	300	300	480	46	0	1	1	blank2r.bmp	0	1	+	0	1	blank2r.bmp	252	1	MQQM	306	2	faul	559	0	0	0	0	0	0	0	0	0	0	0	0	0	0	0	0	0	0	0	0	0	0	0	0	0	0	0	0	0	0	0	0	0	0	0	0	0	0	0
071519	14:38:35	14:42:15	219707	5.0.10.0	5_exp_noRW	50	Rpleas_acq	CS_B	BZZB	GWWG	VKKV	MQQM	YDDY	JXXJ	ehrlich	spielen	treu	schön	fair	retten	eitel	strafen	tot	schlecht	faul	rächen	53pct	acq_USunple_CSunple2_noRW	acq1_noRW	1	68	0	0	300	300	465	46	0	1	1	blank2r.bmp	0	1	+	0	1	blank2r.bmp	252	1	MQQM	306	3	rächen	559	0	0	0	0	0	0	0	0	0	0	0	0	0	0	0	0	0	0	0	0	0	0	0	0	0	0	0	0	0	0	0	0	0	0	0	0	0	0	0
071519	14:38:35	14:42:17	221440	5.0.10.0	5_exp_noRW	50	Rpleas_acq	CS_B	BZZB	GWWG	VKKV	MQQM	YDDY	JXXJ	ehrlich	spielen	treu	schön	fair	retten	eitel	strafen	tot	schlecht	faul	rächen	47pct	acq_USpleas_CSpleas1_noRW	acq1_noRW	1	69	0	0	300	300	561	50	0	1	1	blank2r.bmp	0	1	+	0	1	blank2r.bmp	252	1	BZZB	306	1	ehrlich	559	0	0	0	0	0	0	0	0	0	0	0	0	0	0	0	0	0	0	0	0	0	0	0	0	0	0	0	0	0	0	0	0	0	0	0	0	0	0	0
071519	14:38:35	14:42:18	223066	5.0.10.0	5_exp_noRW	50	Rpleas_acq	CS_B	BZZB	GWWG	VKKV	MQQM	YDDY	JXXJ	ehrlich	spielen	treu	schön	fair	retten	eitel	strafen	tot	schlecht	faul	rächen	47pct	acq_USpleas_CSpleas1_noRW	acq1_noRW	1	70	0	0	300	300	457	50	0	1	1	blank2r.bmp	0	1	+	0	1	blank2r.bmp	252	1	BZZB	306	1	ehrlich	559	0	0	0	0	0	0	0	0	0	0	0	0	0	0	0	0	0	0	0	0	0	0	0	0	0	0	0	0	0	0	0	0	0	0	0	0	0	0	0
071519	14:38:35	14:42:20	224652	5.0.10.0	5_exp_noRW	50	Rpleas_acq	CS_B	BZZB	GWWG	VKKV	MQQM	YDDY	JXXJ	ehrlich	spielen	treu	schön	fair	retten	eitel	strafen	tot	schlecht	faul	rächen	53pct	acq_USpleas_CSpleas2_noRW	acq1_noRW	1	71	0	0	300	300	399	50	0	1	1	blank2r.bmp	0	1	+	0	1	blank2r.bmp	252	1	GWWG	306	1	schön	559	0	0	0	0	0	0	0	0	0	0	0	0	0	0	0	0	0	0	0	0	0	0	0	0	0	0	0	0	0	0	0	0	0	0	0	0	0	0	0
071519	14:38:35	14:42:22	226385	5.0.10.0	5_exp_noRW	50	Rpleas_acq	CS_B	BZZB	GWWG	VKKV	MQQM	YDDY	JXXJ	ehrlich	spielen	treu	schön	fair	retten	eitel	strafen	tot	schlecht	faul	rächen	53pct	acq_USunple_CSunple2_noRW	acq1_noRW	1	72	0	0	300	300	569	46	0	1	1	blank2r.bmp	0	1	+	0	1	blank2r.bmp	252	1	MQQM	306	1	schlecht	559	0	0	0	0	0	0	0	0	0	0	0	0	0	0	0	0	0	0	0	0	0	0	0	0	0	0	0	0	0	0	0	0	0	0	0	0	0	0	0
071519	14:38:35	14:42:23	228051	5.0.10.0	5_exp_noRW	50	Rpleas_acq	CS_B	BZZB	GWWG	VKKV	MQQM	YDDY	JXXJ	ehrlich	spielen	treu	schön	fair	retten	eitel	strafen	tot	schlecht	faul	rächen	53pct	acq_USunple_CSunple2_noRW	acq1_noRW	1	73	0	0	300	300	480	46	0	1	1	blank2r.bmp	0	1	+	0	1	blank2r.bmp	252	1	MQQM	306	2	faul	559	0	0	0	0	0	0	0	0	0	0	0	0	0	0	0	0	0	0	0	0	0	0	0	0	0	0	0	0	0	0	0	0	0	0	0	0	0	0	0
071519	14:38:35	14:42:25	229557	5.0.10.0	5_exp_noRW	50	Rpleas_acq	CS_B	BZZB	GWWG	VKKV	MQQM	YDDY	JXXJ	ehrlich	spielen	treu	schön	fair	retten	eitel	strafen	tot	schlecht	faul	rächen	47pct	acq_USunple_CSunple1_noRW	acq1_noRW	1	74	0	0	300	300	335	46	0	1	1	blank2r.bmp	0	1	+	0	1	blank2r.bmp	252	1	VKKV	306	3	tot	559	0	0	0	0	0	0	0	0	0	0	0	0	0	0	0	0	0	0	0	0	0	0	0	0	0	0	0	0	0	0	0	0	0	0	0	0	0	0	0
071519	14:38:35	14:42:26	231089	5.0.10.0	5_exp_noRW	50	Rpleas_acq	CS_B	BZZB	GWWG	VKKV	MQQM	YDDY	JXXJ	ehrlich	spielen	treu	schön	fair	retten	eitel	strafen	tot	schlecht	faul	rächen	53pct	acq_USunple_CSpleas2_noRW	acq1_noRW	1	75	0	0	300	300	360	46	0	1	1	blank2r.bmp	0	1	+	0	1	blank2r.bmp	252	1	GWWG	306	3	rächen	559	0	0	0	0	0	0	0	0	0	0	0	0	0	0	0	0	0	0	0	0	0	0	0	0	0	0	0	0	0	0	0	0	0	0	0	0	0	0	0
071519	14:38:35	14:42:28	232769	5.0.10.0	5_exp_noRW	50	Rpleas_acq	CS_B	BZZB	GWWG	VKKV	MQQM	YDDY	JXXJ	ehrlich	spielen	treu	schön	fair	retten	eitel	strafen	tot	schlecht	faul	rächen	47pct	acq_USpleas_CSpleas2_noRW	acq1_noRW	1	76	0	0	300	300	296	46	0	0	1	blank2r.bmp	0	1	+	0	1	blank2r.bmp	252	1	GWWG	306	2	fair	559	1	FEHLER	892	0	0	0	0	0	0	0	0	0	0	0	0	0	0	0	0	0	0	0	0	0	0	0	0	0	0	0	0	0	0	0	0	0	0	0	0
071519	14:38:35	14:42:30	234488	5.0.10.0	5_exp_noRW	50	Rpleas_acq	CS_B	BZZB	GWWG	VKKV	MQQM	YDDY	JXXJ	ehrlich	spielen	treu	schön	fair	retten	eitel	strafen	tot	schlecht	faul	rächen	53pct	acq_USpleas_CSunple2_noRW	acq1_noRW	1	77	0	0	300	300	760	50	0	1	1	blank2r.bmp	0	1	+	0	1	blank2r.bmp	252	1	MQQM	306	3	retten	559	0	0	0	0	0	0	0	0	0	0	0	0	0	0	0	0	0	0	0	0	0	0	0	0	0	0	0	0	0	0	0	0	0	0	0	0	0	0	0
071519	14:38:35	14:42:32	236327	5.0.10.0	5_exp_noRW	50	Rpleas_acq	CS_B	BZZB	GWWG	VKKV	MQQM	YDDY	JXXJ	ehrlich	spielen	treu	schön	fair	retten	eitel	strafen	tot	schlecht	faul	rächen	53pct	acq_USunple_CSunple1_noRW	acq1_noRW	1	78	0	0	300	300	671	46	0	1	1	blank2r.bmp	0	1	+	0	1	blank2r.bmp	252	1	VKKV	306	1	eitel	559	0	0	0	0	0	0	0	0	0	0	0	0	0	0	0	0	0	0	0	0	0	0	0	0	0	0	0	0	0	0	0	0	0	0	0	0	0	0	0
071519	14:38:35	14:42:33	238046	5.0.10.0	5_exp_noRW	50	Rpleas_acq	CS_B	BZZB	GWWG	VKKV	MQQM	YDDY	JXXJ	ehrlich	spielen	treu	schön	fair	retten	eitel	strafen	tot	schlecht	faul	rächen	47pct	acq_USpleas_CSpleas2_noRW	acq1_noRW	1	79	0	0	300	300	558	50	0	1	1	blank2r.bmp	0	1	+	0	1	blank2r.bmp	252	1	GWWG	306	3	retten	559	0	0	0	0	0	0	0	0	0	0	0	0	0	0	0	0	0	0	0	0	0	0	0	0	0	0	0	0	0	0	0	0	0	0	0	0	0	0	0
071519	14:38:35	14:42:36	240152	5.0.10.0	5_exp_noRW	50	Rpleas_acq	CS_B	BZZB	GWWG	VKKV	MQQM	YDDY	JXXJ	ehrlich	spielen	treu	schön	fair	retten	eitel	strafen	tot	schlecht	faul	rächen	53pct	acq_USpleas_CSpleas2_noRW	acq1_noRW	1	80	0	0	300	300	921	50	0	1	1	blank2r.bmp	0	1	+	0	1	blank2r.bmp	252	1	GWWG	306	2	fair	559	0	0	0	0	0	0	0	0	0	0	0	0	0	0	0	0	0	0	0	0	0	0	0	0	0	0	0	0	0	0	0	0	0	0	0	0	0	0	0
071519	14:38:35	14:42:48	252560	5.0.10.0	5_exp_noRW	50	Rpleas_acq	CS_B	BZZB	GWWG	VKKV	MQQM	YDDY	JXXJ	ehrlich	spielen	treu	schön	fair	retten	eitel	strafen	tot	schlecht	faul	rächen	47pct	acq_USpleas_CSpleas2_noRW	acq23456_noRW	2	1	0	0	300	300	537	50	0	1	1	blank2r.bmp	0	1	+	0	1	blank2r.bmp	252	1	GWWG	306	1	schön	559	0	0	0	0	0	0	0	0	0	0	0	0	0	0	0	0	0	0	0	0	0	0	0	0	0	0	0	0	0	0	0	0	0	0	0	0	0	0	0
071519	14:38:35	14:42:50	254360	5.0.10.0	5_exp_noRW	50	Rpleas_acq	CS_B	BZZB	GWWG	VKKV	MQQM	YDDY	JXXJ	ehrlich	spielen	treu	schön	fair	retten	eitel	strafen	tot	schlecht	faul	rächen	53pct	acq_USunple_CSpleas1_noRW	acq23456_noRW	2	2	0	0	300	300	623	46	0	1	1	blank2r.bmp	0	1	+	0	1	blank2r.bmp	252	1	BZZB	306	1	eitel	559	0	0	0	0	0	0	0	0	0	0	0	0	0	0	0	0	0	0	0	0	0	0	0	0	0	0	0	0	0	0	0	0	0	0	0	0	0	0	0
071519	14:38:35	14:42:52	256239	5.0.10.0	5_exp_noRW	50	Rpleas_acq	CS_B	BZZB	GWWG	VKKV	MQQM	YDDY	JXXJ	ehrlich	spielen	treu	schön	fair	retten	eitel	strafen	tot	schlecht	faul	rächen	53pct	acq_USunple_CSpleas2_noRW	acq23456_noRW	2	3	0	0	300	300	699	46	0	1	1	blank2r.bmp	0	1	+	0	1	blank2r.bmp	252	1	GWWG	306	2	faul	559	0	0	0	0	0	0	0	0	0	0	0	0	0	0	0	0	0	0	0	0	0	0	0	0	0	0	0	0	0	0	0	0	0	0	0	0	0	0	0
071519	14:38:35	14:42:53	257878	5.0.10.0	5_exp_noRW	50	Rpleas_acq	CS_B	BZZB	GWWG	VKKV	MQQM	YDDY	JXXJ	ehrlich	spielen	treu	schön	fair	retten	eitel	strafen	tot	schlecht	faul	rächen	47pct	acq_USpleas_CSpleas1_noRW	acq23456_noRW	2	4	0	0	300	300	461	50	0	1	1	blank2r.bmp	0	1	+	0	1	blank2r.bmp	252	1	BZZB	306	2	spielen	559	0	0	0	0	0	0	0	0	0	0	0	0	0	0	0	0	0	0	0	0	0	0	0	0	0	0	0	0	0	0	0	0	0	0	0	0	0	0	0
071519	14:38:35	14:42:55	259837	5.0.10.0	5_exp_noRW	50	Rpleas_acq	CS_B	BZZB	GWWG	VKKV	MQQM	YDDY	JXXJ	ehrlich	spielen	treu	schön	fair	retten	eitel	strafen	tot	schlecht	faul	rächen	47pct	acq_USunple_CSunple2_noRW	acq23456_noRW	2	5	0	0	300	300	783	46	0	1	1	blank2r.bmp	0	1	+	0	1	blank2r.bmp	252	1	MQQM	306	3	rächen	559	0	0	0	0	0	0	0	0	0	0	0	0	0	0	0	0	0	0	0	0	0	0	0	0	0	0	0	0	0	0	0	0	0	0	0	0	0	0	0
071519	14:38:35	14:42:57	261477	5.0.10.0	5_exp_noRW	50	Rpleas_acq	CS_B	BZZB	GWWG	VKKV	MQQM	YDDY	JXXJ	ehrlich	spielen	treu	schön	fair	retten	eitel	strafen	tot	schlecht	faul	rächen	53pct	acq_USunple_CSunple1_noRW	acq23456_noRW	2	6	0	0	300	300	472	46	0	1	1	blank2r.bmp	0	1	+	0	1	blank2r.bmp	252	1	VKKV	306	3	tot	559	0	0	0	0	0	0	0	0	0	0	0	0	0	0	0	0	0	0	0	0	0	0	0	0	0	0	0	0	0	0	0	0	0	0	0	0	0	0	0
071519	14:38:35	14:42:58	263063	5.0.10.0	5_exp_noRW	50	Rpleas_acq	CS_B	BZZB	GWWG	VKKV	MQQM	YDDY	JXXJ	ehrlich	spielen	treu	schön	fair	retten	eitel	strafen	tot	schlecht	faul	rächen	47pct	acq_USunple_CSunple2_noRW	acq23456_noRW	2	7	0	0	300	300	417	46	0	1	1	blank2r.bmp	0	1	+	0	1	blank2r.bmp	252	1	MQQM	306	1	schlecht	559	0	0	0	0	0	0	0	0	0	0	0	0	0	0	0	0	0	0	0	0	0	0	0	0	0	0	0	0	0	0	0	0	0	0	0	0	0	0	0
071519	14:38:35	14:43:00	264729	5.0.10.0	5_exp_noRW	50	Rpleas_acq	CS_B	BZZB	GWWG	VKKV	MQQM	YDDY	JXXJ	ehrlich	spielen	treu	schön	fair	retten	eitel	strafen	tot	schlecht	faul	rächen	47pct	acq_USunple_CSunple2_noRW	acq23456_noRW	2	8	0	0	300	300	478	46	0	1	1	blank2r.bmp	0	1	+	0	1	blank2r.bmp	252	1	MQQM	306	3	rächen	559	0	0	0	0	0	0	0	0	0	0	0	0	0	0	0	0	0	0	0	0	0	0	0	0	0	0	0	0	0	0	0	0	0	0	0	0	0	0	0
071519	14:38:35	14:43:02	266301	5.0.10.0	5_exp_noRW	50	Rpleas_acq	CS_B	BZZB	GWWG	VKKV	MQQM	YDDY	JXXJ	ehrlich	spielen	treu	schön	fair	retten	eitel	strafen	tot	schlecht	faul	rächen	47pct	acq_USunple_CSunple1_noRW	acq23456_noRW	2	9	0	0	300	300	405	46	0	1	1	blank2r.bmp	0	1	+	0	1	blank2r.bmp	252	1	VKKV	306	2	strafen	559	0	0	0	0	0	0	0	0	0	0	0	0	0	0	0	0	0	0	0	0	0	0	0	0	0	0	0	0	0	0	0	0	0	0	0	0	0	0	0
071519	14:38:35	14:43:03	267967	5.0.10.0	5_exp_noRW	50	Rpleas_acq	CS_B	BZZB	GWWG	VKKV	MQQM	YDDY	JXXJ	ehrlich	spielen	treu	schön	fair	retten	eitel	strafen	tot	schlecht	faul	rächen	53pct	acq_USpleas_CSunple2_noRW	acq23456_noRW	2	10	0	0	300	300	488	50	0	1	1	blank2r.bmp	0	1	+	0	1	blank2r.bmp	252	1	MQQM	306	1	schön	559	0	0	0	0	0	0	0	0	0	0	0	0	0	0	0	0	0	0	0	0	0	0	0	0	0	0	0	0	0	0	0	0	0	0	0	0	0	0	0
071519	14:38:35	14:43:05	269913	5.0.10.0	5_exp_noRW	50	Rpleas_acq	CS_B	BZZB	GWWG	VKKV	MQQM	YDDY	JXXJ	ehrlich	spielen	treu	schön	fair	retten	eitel	strafen	tot	schlecht	faul	rächen	53pct	acq_USunple_CSunple1_noRW	acq23456_noRW	2	11	0	0	300	300	769	46	0	1	1	blank2r.bmp	0	1	+	0	1	blank2r.bmp	252	1	VKKV	306	3	tot	559	0	0	0	0	0	0	0	0	0	0	0	0	0	0	0	0	0	0	0	0	0	0	0	0	0	0	0	0	0	0	0	0	0	0	0	0	0	0	0
071519	14:38:35	14:43:07	271846	5.0.10.0	5_exp_noRW	50	Rpleas_acq	CS_B	BZZB	GWWG	VKKV	MQQM	YDDY	JXXJ	ehrlich	spielen	treu	schön	fair	retten	eitel	strafen	tot	schlecht	faul	rächen	47pct	acq_USunple_CSunple1_noRW	acq23456_noRW	2	12	0	0	300	300	751	46	0	1	1	blank2r.bmp	0	1	+	0	1	blank2r.bmp	252	1	VKKV	306	2	strafen	559	0	0	0	0	0	0	0	0	0	0	0	0	0	0	0	0	0	0	0	0	0	0	0	0	0	0	0	0	0	0	0	0	0	0	0	0	0	0	0
071519	14:38:35	14:43:09	273498	5.0.10.0	5_exp_noRW	50	Rpleas_acq	CS_B	BZZB	GWWG	VKKV	MQQM	YDDY	JXXJ	ehrlich	spielen	treu	schön	fair	retten	eitel	strafen	tot	schlecht	faul	rächen	47pct	acq_USunple_CSunple2_noRW	acq23456_noRW	2	13	0	0	300	300	468	46	0	1	1	blank2r.bmp	0	1	+	0	1	blank2r.bmp	252	1	MQQM	306	2	faul	559	0	0	0	0	0	0	0	0	0	0	0	0	0	0	0	0	0	0	0	0	0	0	0	0	0	0	0	0	0	0	0	0	0	0	0	0	0	0	0
071519	14:38:35	14:43:11	275231	5.0.10.0	5_exp_noRW	50	Rpleas_acq	CS_B	BZZB	GWWG	VKKV	MQQM	YDDY	JXXJ	ehrlich	spielen	treu	schön	fair	retten	eitel	strafen	tot	schlecht	faul	rächen	53pct	acq_USpleas_CSpleas1_noRW	acq23456_noRW	2	14	0	0	300	300	554	50	0	1	1	blank2r.bmp	0	1	+	0	1	blank2r.bmp	252	1	BZZB	306	3	treu	559	0	0	0	0	0	0	0	0	0	0	0	0	0	0	0	0	0	0	0	0	0	0	0	0	0	0	0	0	0	0	0	0	0	0	0	0	0	0	0
071519	14:38:35	14:43:12	277003	5.0.10.0	5_exp_noRW	50	Rpleas_acq	CS_B	BZZB	GWWG	VKKV	MQQM	YDDY	JXXJ	ehrlich	spielen	treu	schön	fair	retten	eitel	strafen	tot	schlecht	faul	rächen	47pct	acq_USpleas_CSpleas2_noRW	acq23456_noRW	2	15	0	0	300	300	589	50	0	1	1	blank2r.bmp	0	1	+	0	1	blank2r.bmp	252	1	GWWG	306	3	retten	559	0	0	0	0	0	0	0	0	0	0	0	0	0	0	0	0	0	0	0	0	0	0	0	0	0	0	0	0	0	0	0	0	0	0	0	0	0	0	0
071519	14:38:35	14:43:14	278603	5.0.10.0	5_exp_noRW	50	Rpleas_acq	CS_B	BZZB	GWWG	VKKV	MQQM	YDDY	JXXJ	ehrlich	spielen	treu	schön	fair	retten	eitel	strafen	tot	schlecht	faul	rächen	53pct	acq_USpleas_CSpleas2_noRW	acq23456_noRW	2	16	0	0	300	300	429	50	0	1	1	blank2r.bmp	0	1	+	0	1	blank2r.bmp	252	1	GWWG	306	1	schön	559	0	0	0	0	0	0	0	0	0	0	0	0	0	0	0	0	0	0	0	0	0	0	0	0	0	0	0	0	0	0	0	0	0	0	0	0	0	0	0
071519	14:38:35	14:43:16	280122	5.0.10.0	5_exp_noRW	50	Rpleas_acq	CS_B	BZZB	GWWG	VKKV	MQQM	YDDY	JXXJ	ehrlich	spielen	treu	schön	fair	retten	eitel	strafen	tot	schlecht	faul	rächen	47pct	acq_USpleas_CSpleas2_noRW	acq23456_noRW	2	17	0	0	300	300	349	50	0	1	1	blank2r.bmp	0	1	+	0	1	blank2r.bmp	252	1	GWWG	306	3	retten	559	0	0	0	0	0	0	0	0	0	0	0	0	0	0	0	0	0	0	0	0	0	0	0	0	0	0	0	0	0	0	0	0	0	0	0	0	0	0	0
071519	14:38:35	14:43:17	281815	5.0.10.0	5_exp_noRW	50	Rpleas_acq	CS_B	BZZB	GWWG	VKKV	MQQM	YDDY	JXXJ	ehrlich	spielen	treu	schön	fair	retten	eitel	strafen	tot	schlecht	faul	rächen	53pct	acq_USpleas_CSpleas1_noRW	acq23456_noRW	2	18	0	0	300	300	524	50	0	1	1	blank2r.bmp	0	1	+	0	1	blank2r.bmp	252	1	BZZB	306	1	ehrlich	559	0	0	0	0	0	0	0	0	0	0	0	0	0	0	0	0	0	0	0	0	0	0	0	0	0	0	0	0	0	0	0	0	0	0	0	0	0	0	0
071519	14:38:35	14:43:19	283374	5.0.10.0	5_exp_noRW	50	Rpleas_acq	CS_B	BZZB	GWWG	VKKV	MQQM	YDDY	JXXJ	ehrlich	spielen	treu	schön	fair	retten	eitel	strafen	tot	schlecht	faul	rächen	47pct	acq_USpleas_CSunple1_noRW	acq23456_noRW	2	19	0	0	300	300	383	50	0	1	1	blank2r.bmp	0	1	+	0	1	blank2r.bmp	252	1	VKKV	306	2	spielen	559	0	0	0	0	0	0	0	0	0	0	0	0	0	0	0	0	0	0	0	0	0	0	0	0	0	0	0	0	0	0	0	0	0	0	0	0	0	0	0
071519	14:38:35	14:43:20	284960	5.0.10.0	5_exp_noRW	50	Rpleas_acq	CS_B	BZZB	GWWG	VKKV	MQQM	YDDY	JXXJ	ehrlich	spielen	treu	schön	fair	retten	eitel	strafen	tot	schlecht	faul	rächen	47pct	acq_USpleas_CSpleas1_noRW	acq23456_noRW	2	20	0	0	300	300	399	50	0	1	1	blank2r.bmp	0	1	+	0	1	blank2r.bmp	252	1	BZZB	306	3	treu	559	0	0	0	0	0	0	0	0	0	0	0	0	0	0	0	0	0	0	0	0	0	0	0	0	0	0	0	0	0	0	0	0	0	0	0	0	0	0	0
071519	14:38:35	14:43:22	286679	5.0.10.0	5_exp_noRW	50	Rpleas_acq	CS_B	BZZB	GWWG	VKKV	MQQM	YDDY	JXXJ	ehrlich	spielen	treu	schön	fair	retten	eitel	strafen	tot	schlecht	faul	rächen	53pct	acq_USunple_CSpleas2_noRW	acq23456_noRW	2	21	0	0	300	300	546	46	0	1	1	blank2r.bmp	0	1	+	0	1	blank2r.bmp	252	1	GWWG	306	1	schlecht	559	0	0	0	0	0	0	0	0	0	0	0	0	0	0	0	0	0	0	0	0	0	0	0	0	0	0	0	0	0	0	0	0	0	0	0	0	0	0	0
071519	14:38:35	14:43:24	288385	5.0.10.0	5_exp_noRW	50	Rpleas_acq	CS_B	BZZB	GWWG	VKKV	MQQM	YDDY	JXXJ	ehrlich	spielen	treu	schön	fair	retten	eitel	strafen	tot	schlecht	faul	rächen	53pct	acq_USpleas_CSpleas2_noRW	acq23456_noRW	2	22	0	0	300	300	541	50	0	1	1	blank2r.bmp	0	1	+	0	1	blank2r.bmp	252	1	GWWG	306	2	fair	559	0	0	0	0	0	0	0	0	0	0	0	0	0	0	0	0	0	0	0	0	0	0	0	0	0	0	0	0	0	0	0	0	0	0	0	0	0	0	0
071519	14:38:35	14:43:25	290091	5.0.10.0	5_exp_noRW	50	Rpleas_acq	CS_B	BZZB	GWWG	VKKV	MQQM	YDDY	JXXJ	ehrlich	spielen	treu	schön	fair	retten	eitel	strafen	tot	schlecht	faul	rächen	47pct	acq_USpleas_CSpleas2_noRW	acq23456_noRW	2	23	0	0	300	300	534	50	0	1	1	blank2r.bmp	0	1	+	0	1	blank2r.bmp	252	1	GWWG	306	1	schön	559	0	0	0	0	0	0	0	0	0	0	0	0	0	0	0	0	0	0	0	0	0	0	0	0	0	0	0	0	0	0	0	0	0	0	0	0	0	0	0
071519	14:38:35	14:43:27	291624	5.0.10.0	5_exp_noRW	50	Rpleas_acq	CS_B	BZZB	GWWG	VKKV	MQQM	YDDY	JXXJ	ehrlich	spielen	treu	schön	fair	retten	eitel	strafen	tot	schlecht	faul	rächen	47pct	acq_USpleas_CSpleas1_noRW	acq23456_noRW	2	24	0	0	300	300	368	50	0	1	1	blank2r.bmp	0	1	+	0	1	blank2r.bmp	252	1	BZZB	306	2	spielen	559	0	0	0	0	0	0	0	0	0	0	0	0	0	0	0	0	0	0	0	0	0	0	0	0	0	0	0	0	0	0	0	0	0	0	0	0	0	0	0
071519	14:38:35	14:43:29	293397	5.0.10.0	5_exp_noRW	50	Rpleas_acq	CS_B	BZZB	GWWG	VKKV	MQQM	YDDY	JXXJ	ehrlich	spielen	treu	schön	fair	retten	eitel	strafen	tot	schlecht	faul	rächen	47pct	acq_USunple_CSunple1_noRW	acq23456_noRW	2	25	0	0	300	300	375	50	0	0	1	blank2r.bmp	0	1	+	0	1	blank2r.bmp	252	1	VKKV	306	1	eitel	559	1	FEHLER	972	0	0	0	0	0	0	0	0	0	0	0	0	0	0	0	0	0	0	0	0	0	0	0	0	0	0	0	0	0	0	0	0	0	0	0	0
071519	14:38:35	14:43:30	294903	5.0.10.0	5_exp_noRW	50	Rpleas_acq	CS_B	BZZB	GWWG	VKKV	MQQM	YDDY	JXXJ	ehrlich	spielen	treu	schön	fair	retten	eitel	strafen	tot	schlecht	faul	rächen	53pct	acq_USpleas_CSunple1_noRW	acq23456_noRW	2	26	0	0	300	300	558	50	0	1	1	blank2r.bmp	0	1	+	0	1	blank2r.bmp	252	1	VKKV	306	1	ehrlich	559	0	0	0	0	0	0	0	0	0	0	0	0	0	0	0	0	0	0	0	0	0	0	0	0	0	0	0	0	0	0	0	0	0	0	0	0	0	0	0
071519	14:38:35	14:43:32	296675	5.0.10.0	5_exp_noRW	50	Rpleas_acq	CS_B	BZZB	GWWG	VKKV	MQQM	YDDY	JXXJ	ehrlich	spielen	treu	schön	fair	retten	eitel	strafen	tot	schlecht	faul	rächen	47pct	acq_USpleas_CSpleas2_noRW	acq23456_noRW	2	27	0	0	300	300	589	50	0	1	1	blank2r.bmp	0	1	+	0	1	blank2r.bmp	252	1	GWWG	306	2	fair	559	0	0	0	0	0	0	0	0	0	0	0	0	0	0	0	0	0	0	0	0	0	0	0	0	0	0	0	0	0	0	0	0	0	0	0	0	0	0	0
071519	14:38:35	14:43:34	298301	5.0.10.0	5_exp_noRW	50	Rpleas_acq	CS_B	BZZB	GWWG	VKKV	MQQM	YDDY	JXXJ	ehrlich	spielen	treu	schön	fair	retten	eitel	strafen	tot	schlecht	faul	rächen	53pct	acq_USunple_CSunple2_noRW	acq23456_noRW	2	28	0	0	300	300	462	46	0	1	1	blank2r.bmp	0	1	+	0	1	blank2r.bmp	252	1	MQQM	306	1	schlecht	559	0	0	0	0	0	0	0	0	0	0	0	0	0	0	0	0	0	0	0	0	0	0	0	0	0	0	0	0	0	0	0	0	0	0	0	0	0	0	0
071519	14:38:35	14:43:35	299954	5.0.10.0	5_exp_noRW	50	Rpleas_acq	CS_B	BZZB	GWWG	VKKV	MQQM	YDDY	JXXJ	ehrlich	spielen	treu	schön	fair	retten	eitel	strafen	tot	schlecht	faul	rächen	53pct	acq_USunple_CSunple1_noRW	acq23456_noRW	2	29	0	0	300	300	469	46	0	1	1	blank2r.bmp	0	1	+	0	1	blank2r.bmp	252	1	VKKV	306	2	strafen	559	0	0	0	0	0	0	0	0	0	0	0	0	0	0	0	0	0	0	0	0	0	0	0	0	0	0	0	0	0	0	0	0	0	0	0	0	0	0	0
071519	14:38:35	14:43:37	301793	5.0.10.0	5_exp_noRW	50	Rpleas_acq	CS_B	BZZB	GWWG	VKKV	MQQM	YDDY	JXXJ	ehrlich	spielen	treu	schön	fair	retten	eitel	strafen	tot	schlecht	faul	rächen	47pct	acq_USunple_CSunple1_noRW	acq23456_noRW	2	30	0	0	300	300	661	46	0	1	1	blank2r.bmp	0	1	+	0	1	blank2r.bmp	252	1	VKKV	306	1	eitel	559	0	0	0	0	0	0	0	0	0	0	0	0	0	0	0	0	0	0	0	0	0	0	0	0	0	0	0	0	0	0	0	0	0	0	0	0	0	0	0
071519	14:38:35	14:43:39	303885	5.0.10.0	5_exp_noRW	50	Rpleas_acq	CS_B	BZZB	GWWG	VKKV	MQQM	YDDY	JXXJ	ehrlich	spielen	treu	schön	fair	retten	eitel	strafen	tot	schlecht	faul	rächen	53pct	acq_USpleas_CSpleas2_noRW	acq23456_noRW	2	31	0	0	300	300	905	50	0	1	1	blank2r.bmp	0	1	+	0	1	blank2r.bmp	252	1	GWWG	306	3	retten	559	0	0	0	0	0	0	0	0	0	0	0	0	0	0	0	0	0	0	0	0	0	0	0	0	0	0	0	0	0	0	0	0	0	0	0	0	0	0	0
071519	14:38:35	14:43:41	305565	5.0.10.0	5_exp_noRW	50	Rpleas_acq	CS_B	BZZB	GWWG	VKKV	MQQM	YDDY	JXXJ	ehrlich	spielen	treu	schön	fair	retten	eitel	strafen	tot	schlecht	faul	rächen	53pct	acq_USunple_CSunple1_noRW	acq23456_noRW	2	32	0	0	300	300	515	46	0	1	1	blank2r.bmp	0	1	+	0	1	blank2r.bmp	252	1	VKKV	306	3	tot	559	0	0	0	0	0	0	0	0	0	0	0	0	0	0	0	0	0	0	0	0	0	0	0	0	0	0	0	0	0	0	0	0	0	0	0	0	0	0	0
071519	14:38:35	14:43:43	307337	5.0.10.0	5_exp_noRW	50	Rpleas_acq	CS_B	BZZB	GWWG	VKKV	MQQM	YDDY	JXXJ	ehrlich	spielen	treu	schön	fair	retten	eitel	strafen	tot	schlecht	faul	rächen	53pct	acq_USunple_CSunple2_noRW	acq23456_noRW	2	33	0	0	300	300	591	46	0	1	1	blank2r.bmp	0	1	+	0	1	blank2r.bmp	252	1	MQQM	306	3	rächen	559	0	0	0	0	0	0	0	0	0	0	0	0	0	0	0	0	0	0	0	0	0	0	0	0	0	0	0	0	0	0	0	0	0	0	0	0	0	0	0
071519	14:38:35	14:43:44	309003	5.0.10.0	5_exp_noRW	50	Rpleas_acq	CS_B	BZZB	GWWG	VKKV	MQQM	YDDY	JXXJ	ehrlich	spielen	treu	schön	fair	retten	eitel	strafen	tot	schlecht	faul	rächen	47pct	acq_USunple_CSunple2_noRW	acq23456_noRW	2	34	0	0	300	300	485	46	0	1	1	blank2r.bmp	0	1	+	0	1	blank2r.bmp	252	1	MQQM	306	1	schlecht	559	0	0	0	0	0	0	0	0	0	0	0	0	0	0	0	0	0	0	0	0	0	0	0	0	0	0	0	0	0	0	0	0	0	0	0	0	0	0	0
071519	14:38:35	14:43:46	310683	5.0.10.0	5_exp_noRW	50	Rpleas_acq	CS_B	BZZB	GWWG	VKKV	MQQM	YDDY	JXXJ	ehrlich	spielen	treu	schön	fair	retten	eitel	strafen	tot	schlecht	faul	rächen	47pct	acq_USpleas_CSpleas1_noRW	acq23456_noRW	2	35	0	0	300	300	495	50	0	1	1	blank2r.bmp	0	1	+	0	1	blank2r.bmp	252	1	BZZB	306	2	spielen	559	0	0	0	0	0	0	0	0	0	0	0	0	0	0	0	0	0	0	0	0	0	0	0	0	0	0	0	0	0	0	0	0	0	0	0	0	0	0	0
071519	14:38:35	14:43:48	312295	5.0.10.0	5_exp_noRW	50	Rpleas_acq	CS_B	BZZB	GWWG	VKKV	MQQM	YDDY	JXXJ	ehrlich	spielen	treu	schön	fair	retten	eitel	strafen	tot	schlecht	faul	rächen	47pct	acq_USpleas_CSpleas1_noRW	acq23456_noRW	2	36	0	0	300	300	439	50	0	1	1	blank2r.bmp	0	1	+	0	1	blank2r.bmp	252	1	BZZB	306	3	treu	559	0	0	0	0	0	0	0	0	0	0	0	0	0	0	0	0	0	0	0	0	0	0	0	0	0	0	0	0	0	0	0	0	0	0	0	0	0	0	0
071519	14:38:35	14:43:49	313868	5.0.10.0	5_exp_noRW	50	Rpleas_acq	CS_B	BZZB	GWWG	VKKV	MQQM	YDDY	JXXJ	ehrlich	spielen	treu	schön	fair	retten	eitel	strafen	tot	schlecht	faul	rächen	47pct	acq_USpleas_CSpleas1_noRW	acq23456_noRW	2	37	0	0	300	300	403	50	0	1	1	blank2r.bmp	0	1	+	0	1	blank2r.bmp	252	1	BZZB	306	1	ehrlich	559	0	0	0	0	0	0	0	0	0	0	0	0	0	0	0	0	0	0	0	0	0	0	0	0	0	0	0	0	0	0	0	0	0	0	0	0	0	0	0
071519	14:38:35	14:43:51	315387	5.0.10.0	5_exp_noRW	50	Rpleas_acq	CS_B	BZZB	GWWG	VKKV	MQQM	YDDY	JXXJ	ehrlich	spielen	treu	schön	fair	retten	eitel	strafen	tot	schlecht	faul	rächen	47pct	acq_USpleas_CSunple2_noRW	acq23456_noRW	2	38	0	0	300	300	344	50	0	1	1	blank2r.bmp	0	1	+	0	1	blank2r.bmp	252	1	MQQM	306	2	fair	559	0	0	0	0	0	0	0	0	0	0	0	0	0	0	0	0	0	0	0	0	0	0	0	0	0	0	0	0	0	0	0	0	0	0	0	0	0	0	0
071519	14:38:35	14:43:53	317133	5.0.10.0	5_exp_noRW	50	Rpleas_acq	CS_B	BZZB	GWWG	VKKV	MQQM	YDDY	JXXJ	ehrlich	spielen	treu	schön	fair	retten	eitel	strafen	tot	schlecht	faul	rächen	53pct	acq_USunple_CSunple2_noRW	acq23456_noRW	2	39	0	0	300	300	584	46	0	1	1	blank2r.bmp	0	1	+	0	1	blank2r.bmp	252	1	MQQM	306	2	faul	559	0	0	0	0	0	0	0	0	0	0	0	0	0	0	0	0	0	0	0	0	0	0	0	0	0	0	0	0	0	0	0	0	0	0	0	0	0	0	0
071519	14:38:35	14:43:54	318706	5.0.10.0	5_exp_noRW	50	Rpleas_acq	CS_B	BZZB	GWWG	VKKV	MQQM	YDDY	JXXJ	ehrlich	spielen	treu	schön	fair	retten	eitel	strafen	tot	schlecht	faul	rächen	47pct	acq_USunple_CSpleas1_noRW	acq23456_noRW	2	40	0	0	300	300	397	46	0	1	1	blank2r.bmp	0	1	+	0	1	blank2r.bmp	252	1	BZZB	306	2	strafen	559	0	0	0	0	0	0	0	0	0	0	0	0	0	0	0	0	0	0	0	0	0	0	0	0	0	0	0	0	0	0	0	0	0	0	0	0	0	0	0
071519	14:38:35	14:43:56	320359	5.0.10.0	5_exp_noRW	50	Rpleas_acq	CS_B	BZZB	GWWG	VKKV	MQQM	YDDY	JXXJ	ehrlich	spielen	treu	schön	fair	retten	eitel	strafen	tot	schlecht	faul	rächen	47pct	acq_USpleas_CSpleas1_noRW	acq23456_noRW	2	41	0	0	300	300	477	50	0	1	1	blank2r.bmp	0	1	+	0	1	blank2r.bmp	252	1	BZZB	306	1	ehrlich	559	0	0	0	0	0	0	0	0	0	0	0	0	0	0	0	0	0	0	0	0	0	0	0	0	0	0	0	0	0	0	0	0	0	0	0	0	0	0	0
071519	14:38:35	14:43:57	321998	5.0.10.0	5_exp_noRW	50	Rpleas_acq	CS_B	BZZB	GWWG	VKKV	MQQM	YDDY	JXXJ	ehrlich	spielen	treu	schön	fair	retten	eitel	strafen	tot	schlecht	faul	rächen	53pct	acq_USunple_CSpleas1_noRW	acq23456_noRW	2	42	0	0	300	300	461	46	0	1	1	blank2r.bmp	0	1	+	0	1	blank2r.bmp	252	1	BZZB	306	3	tot	559	0	0	0	0	0	0	0	0	0	0	0	0	0	0	0	0	0	0	0	0	0	0	0	0	0	0	0	0	0	0	0	0	0	0	0	0	0	0	0
071519	14:38:35	14:43:59	323651	5.0.10.0	5_exp_noRW	50	Rpleas_acq	CS_B	BZZB	GWWG	VKKV	MQQM	YDDY	JXXJ	ehrlich	spielen	treu	schön	fair	retten	eitel	strafen	tot	schlecht	faul	rächen	53pct	acq_USunple_CSunple2_noRW	acq23456_noRW	2	43	0	0	300	300	471	46	0	1	1	blank2r.bmp	0	1	+	0	1	blank2r.bmp	252	1	MQQM	306	3	rächen	559	0	0	0	0	0	0	0	0	0	0	0	0	0	0	0	0	0	0	0	0	0	0	0	0	0	0	0	0	0	0	0	0	0	0	0	0	0	0	0
071519	14:38:35	14:44:01	325490	5.0.10.0	5_exp_noRW	50	Rpleas_acq	CS_B	BZZB	GWWG	VKKV	MQQM	YDDY	JXXJ	ehrlich	spielen	treu	schön	fair	retten	eitel	strafen	tot	schlecht	faul	rächen	47pct	acq_USpleas_CSpleas2_noRW	acq23456_noRW	2	44	0	0	300	300	659	50	0	1	1	blank2r.bmp	0	1	+	0	1	blank2r.bmp	252	1	GWWG	306	3	retten	559	0	0	0	0	0	0	0	0	0	0	0	0	0	0	0	0	0	0	0	0	0	0	0	0	0	0	0	0	0	0	0	0	0	0	0	0	0	0	0
071519	14:38:35	14:44:03	327236	5.0.10.0	5_exp_noRW	50	Rpleas_acq	CS_B	BZZB	GWWG	VKKV	MQQM	YDDY	JXXJ	ehrlich	spielen	treu	schön	fair	retten	eitel	strafen	tot	schlecht	faul	rächen	47pct	acq_USunple_CSunple1_noRW	acq23456_noRW	2	45	0	0	300	300	559	46	0	1	1	blank2r.bmp	0	1	+	0	1	blank2r.bmp	252	1	VKKV	306	2	strafen	559	0	0	0	0	0	0	0	0	0	0	0	0	0	0	0	0	0	0	0	0	0	0	0	0	0	0	0	0	0	0	0	0	0	0	0	0	0	0	0
071519	14:38:35	14:44:04	329075	5.0.10.0	5_exp_noRW	50	Rpleas_acq	CS_B	BZZB	GWWG	VKKV	MQQM	YDDY	JXXJ	ehrlich	spielen	treu	schön	fair	retten	eitel	strafen	tot	schlecht	faul	rächen	47pct	acq_USpleas_CSpleas1_noRW	acq23456_noRW	2	46	0	0	300	300	670	50	0	1	1	blank2r.bmp	0	1	+	0	1	blank2r.bmp	252	1	BZZB	306	3	treu	559	0	0	0	0	0	0	0	0	0	0	0	0	0	0	0	0	0	0	0	0	0	0	0	0	0	0	0	0	0	0	0	0	0	0	0	0	0	0	0
071519	14:38:35	14:44:06	330781	5.0.10.0	5_exp_noRW	50	Rpleas_acq	CS_B	BZZB	GWWG	VKKV	MQQM	YDDY	JXXJ	ehrlich	spielen	treu	schön	fair	retten	eitel	strafen	tot	schlecht	faul	rächen	47pct	acq_USunple_CSunple2_noRW	acq23456_noRW	2	47	0	0	300	300	532	46	0	1	1	blank2r.bmp	0	1	+	0	1	blank2r.bmp	252	1	MQQM	306	1	schlecht	559	0	0	0	0	0	0	0	0	0	0	0	0	0	0	0	0	0	0	0	0	0	0	0	0	0	0	0	0	0	0	0	0	0	0	0	0	0	0	0
071519	14:38:35	14:44:08	332434	5.0.10.0	5_exp_noRW	50	Rpleas_acq	CS_B	BZZB	GWWG	VKKV	MQQM	YDDY	JXXJ	ehrlich	spielen	treu	schön	fair	retten	eitel	strafen	tot	schlecht	faul	rächen	53pct	acq_USunple_CSpleas2_noRW	acq23456_noRW	2	48	0	0	300	300	478	46	0	1	1	blank2r.bmp	0	1	+	0	1	blank2r.bmp	252	1	GWWG	306	1	schlecht	559	0	0	0	0	0	0	0	0	0	0	0	0	0	0	0	0	0	0	0	0	0	0	0	0	0	0	0	0	0	0	0	0	0	0	0	0	0	0	0
071519	14:38:35	14:44:10	334233	5.0.10.0	5_exp_noRW	50	Rpleas_acq	CS_B	BZZB	GWWG	VKKV	MQQM	YDDY	JXXJ	ehrlich	spielen	treu	schön	fair	retten	eitel	strafen	tot	schlecht	faul	rächen	47pct	acq_USunple_CSunple1_noRW	acq23456_noRW	2	49	0	0	300	300	629	46	0	1	1	blank2r.bmp	0	1	+	0	1	blank2r.bmp	252	1	VKKV	306	1	eitel	559	0	0	0	0	0	0	0	0	0	0	0	0	0	0	0	0	0	0	0	0	0	0	0	0	0	0	0	0	0	0	0	0	0	0	0	0	0	0	0
071519	14:38:35	14:44:11	335805	5.0.10.0	5_exp_noRW	50	Rpleas_acq	CS_B	BZZB	GWWG	VKKV	MQQM	YDDY	JXXJ	ehrlich	spielen	treu	schön	fair	retten	eitel	strafen	tot	schlecht	faul	rächen	47pct	acq_USunple_CSunple1_noRW	acq23456_noRW	2	50	0	0	300	300	411	46	0	1	1	blank2r.bmp	0	1	+	0	1	blank2r.bmp	252	1	VKKV	306	3	tot	559	0	0	0	0	0	0	0	0	0	0	0	0	0	0	0	0	0	0	0	0	0	0	0	0	0	0	0	0	0	0	0	0	0	0	0	0	0	0	0
071519	14:38:35	14:44:13	337551	5.0.10.0	5_exp_noRW	50	Rpleas_acq	CS_B	BZZB	GWWG	VKKV	MQQM	YDDY	JXXJ	ehrlich	spielen	treu	schön	fair	retten	eitel	strafen	tot	schlecht	faul	rächen	53pct	acq_USpleas_CSpleas2_noRW	acq23456_noRW	2	51	0	0	300	300	566	50	0	1	1	blank2r.bmp	0	1	+	0	1	blank2r.bmp	252	1	GWWG	306	2	fair	559	0	0	0	0	0	0	0	0	0	0	0	0	0	0	0	0	0	0	0	0	0	0	0	0	0	0	0	0	0	0	0	0	0	0	0	0	0	0	0
071519	14:38:35	14:44:15	339124	5.0.10.0	5_exp_noRW	50	Rpleas_acq	CS_B	BZZB	GWWG	VKKV	MQQM	YDDY	JXXJ	ehrlich	spielen	treu	schön	fair	retten	eitel	strafen	tot	schlecht	faul	rächen	47pct	acq_USpleas_CSpleas2_noRW	acq23456_noRW	2	52	0	0	300	300	395	50	0	1	1	blank2r.bmp	0	1	+	0	1	blank2r.bmp	252	1	GWWG	306	1	schön	559	0	0	0	0	0	0	0	0	0	0	0	0	0	0	0	0	0	0	0	0	0	0	0	0	0	0	0	0	0	0	0	0	0	0	0	0	0	0	0
071519	14:38:35	14:44:16	340683	5.0.10.0	5_exp_noRW	50	Rpleas_acq	CS_B	BZZB	GWWG	VKKV	MQQM	YDDY	JXXJ	ehrlich	spielen	treu	schön	fair	retten	eitel	strafen	tot	schlecht	faul	rächen	53pct	acq_USpleas_CSpleas2_noRW	acq23456_noRW	2	53	0	0	300	300	373	50	0	1	1	blank2r.bmp	0	1	+	0	1	blank2r.bmp	252	1	GWWG	306	1	schön	559	0	0	0	0	0	0	0	0	0	0	0	0	0	0	0	0	0	0	0	0	0	0	0	0	0	0	0	0	0	0	0	0	0	0	0	0	0	0	0
071519	14:38:35	14:44:18	342229	5.0.10.0	5_exp_noRW	50	Rpleas_acq	CS_B	BZZB	GWWG	VKKV	MQQM	YDDY	JXXJ	ehrlich	spielen	treu	schön	fair	retten	eitel	strafen	tot	schlecht	faul	rächen	47pct	acq_USpleas_CSunple2_noRW	acq23456_noRW	2	54	0	0	300	300	376	50	0	1	1	blank2r.bmp	0	1	+	0	1	blank2r.bmp	252	1	MQQM	306	2	fair	559	0	0	0	0	0	0	0	0	0	0	0	0	0	0	0	0	0	0	0	0	0	0	0	0	0	0	0	0	0	0	0	0	0	0	0	0	0	0	0
071519	14:38:35	14:44:19	343735	5.0.10.0	5_exp_noRW	50	Rpleas_acq	CS_B	BZZB	GWWG	VKKV	MQQM	YDDY	JXXJ	ehrlich	spielen	treu	schön	fair	retten	eitel	strafen	tot	schlecht	faul	rächen	53pct	acq_USpleas_CSpleas1_noRW	acq23456_noRW	2	55	0	0	300	300	329	50	0	1	1	blank2r.bmp	0	1	+	0	1	blank2r.bmp	252	1	BZZB	306	2	spielen	559	0	0	0	0	0	0	0	0	0	0	0	0	0	0	0	0	0	0	0	0	0	0	0	0	0	0	0	0	0	0	0	0	0	0	0	0	0	0	0
071519	14:38:35	14:44:21	345401	5.0.10.0	5_exp_noRW	50	Rpleas_acq	CS_B	BZZB	GWWG	VKKV	MQQM	YDDY	JXXJ	ehrlich	spielen	treu	schön	fair	retten	eitel	strafen	tot	schlecht	faul	rächen	53pct	acq_USunple_CSunple2_noRW	acq23456_noRW	2	56	0	0	300	300	268	50	0	0	1	blank2r.bmp	0	1	+	0	1	blank2r.bmp	252	1	MQQM	306	2	faul	559	1	FEHLER	866	0	0	0	0	0	0	0	0	0	0	0	0	0	0	0	0	0	0	0	0	0	0	0	0	0	0	0	0	0	0	0	0	0	0	0	0
071519	14:38:35	14:44:23	347107	5.0.10.0	5_exp_noRW	50	Rpleas_acq	CS_B	BZZB	GWWG	VKKV	MQQM	YDDY	JXXJ	ehrlich	spielen	treu	schön	fair	retten	eitel	strafen	tot	schlecht	faul	rächen	47pct	acq_USunple_CSunple1_noRW	acq23456_noRW	2	57	0	0	300	300	751	46	0	1	1	blank2r.bmp	0	1	+	0	1	blank2r.bmp	252	1	VKKV	306	1	eitel	559	0	0	0	0	0	0	0	0	0	0	0	0	0	0	0	0	0	0	0	0	0	0	0	0	0	0	0	0	0	0	0	0	0	0	0	0	0	0	0
071519	14:38:35	14:44:25	349773	5.0.10.0	5_exp_noRW	50	Rpleas_acq	CS_B	BZZB	GWWG	VKKV	MQQM	YDDY	JXXJ	ehrlich	spielen	treu	schön	fair	retten	eitel	strafen	tot	schlecht	faul	rächen	53pct	acq_USpleas_CSpleas1_noRW	acq23456_noRW	2	58	0	0	300	300	1501	50	0	1	1	blank2r.bmp	0	1	+	0	1	blank2r.bmp	252	1	BZZB	306	1	ehrlich	559	0	0	0	0	0	0	0	0	0	0	0	0	0	0	0	0	0	0	0	0	0	0	0	0	0	0	0	0	0	0	0	0	0	0	0	0	0	0	0
071519	14:38:35	14:44:28	352159	5.0.10.0	5_exp_noRW	50	Rpleas_acq	CS_B	BZZB	GWWG	VKKV	MQQM	YDDY	JXXJ	ehrlich	spielen	treu	schön	fair	retten	eitel	strafen	tot	schlecht	faul	rächen	47pct	acq_USunple_CSunple2_noRW	acq23456_noRW	2	59	0	0	300	300	1223	46	0	1	1	blank2r.bmp	0	1	+	0	1	blank2r.bmp	252	1	MQQM	306	1	schlecht	559	0	0	0	0	0	0	0	0	0	0	0	0	0	0	0	0	0	0	0	0	0	0	0	0	0	0	0	0	0	0	0	0	0	0	0	0	0	0	0
071519	14:38:35	14:44:30	354571	5.0.10.0	5_exp_noRW	50	Rpleas_acq	CS_B	BZZB	GWWG	VKKV	MQQM	YDDY	JXXJ	ehrlich	spielen	treu	schön	fair	retten	eitel	strafen	tot	schlecht	faul	rächen	53pct	acq_USpleas_CSunple1_noRW	acq23456_noRW	2	60	0	0	300	300	1232	50	0	1	1	blank2r.bmp	0	1	+	0	1	blank2r.bmp	252	1	VKKV	306	1	ehrlich	559	0	0	0	0	0	0	0	0	0	0	0	0	0	0	0	0	0	0	0	0	0	0	0	0	0	0	0	0	0	0	0	0	0	0	0	0	0	0	0
071519	14:38:35	14:44:32	356264	5.0.10.0	5_exp_noRW	50	Rpleas_acq	CS_B	BZZB	GWWG	VKKV	MQQM	YDDY	JXXJ	ehrlich	spielen	treu	schön	fair	retten	eitel	strafen	tot	schlecht	faul	rächen	53pct	acq_USunple_CSpleas1_noRW	acq23456_noRW	2	61	0	0	300	300	517	46	0	1	1	blank2r.bmp	0	1	+	0	1	blank2r.bmp	252	1	BZZB	306	2	strafen	559	0	0	0	0	0	0	0	0	0	0	0	0	0	0	0	0	0	0	0	0	0	0	0	0	0	0	0	0	0	0	0	0	0	0	0	0	0	0	0
071519	14:38:35	14:44:33	357890	5.0.10.0	5_exp_noRW	50	Rpleas_acq	CS_B	BZZB	GWWG	VKKV	MQQM	YDDY	JXXJ	ehrlich	spielen	treu	schön	fair	retten	eitel	strafen	tot	schlecht	faul	rächen	53pct	acq_USunple_CSunple2_noRW	acq23456_noRW	2	62	0	0	300	300	448	46	0	1	1	blank2r.bmp	0	1	+	0	1	blank2r.bmp	252	1	MQQM	306	2	faul	559	0	0	0	0	0	0	0	0	0	0	0	0	0	0	0	0	0	0	0	0	0	0	0	0	0	0	0	0	0	0	0	0	0	0	0	0	0	0	0
071519	14:38:35	14:44:35	359476	5.0.10.0	5_exp_noRW	50	Rpleas_acq	CS_B	BZZB	GWWG	VKKV	MQQM	YDDY	JXXJ	ehrlich	spielen	treu	schön	fair	retten	eitel	strafen	tot	schlecht	faul	rächen	47pct	acq_USpleas_CSpleas1_noRW	acq23456_noRW	2	63	0	0	300	300	411	50	0	1	1	blank2r.bmp	0	1	+	0	1	blank2r.bmp	252	1	BZZB	306	2	spielen	559	0	0	0	0	0	0	0	0	0	0	0	0	0	0	0	0	0	0	0	0	0	0	0	0	0	0	0	0	0	0	0	0	0	0	0	0	0	0	0
071519	14:38:35	14:44:37	361341	5.0.10.0	5_exp_noRW	50	Rpleas_acq	CS_B	BZZB	GWWG	VKKV	MQQM	YDDY	JXXJ	ehrlich	spielen	treu	schön	fair	retten	eitel	strafen	tot	schlecht	faul	rächen	47pct	acq_USunple_CSunple1_noRW	acq23456_noRW	2	64	0	0	300	300	685	46	0	1	1	blank2r.bmp	0	1	+	0	1	blank2r.bmp	252	1	VKKV	306	2	strafen	559	0	0	0	0	0	0	0	0	0	0	0	0	0	0	0	0	0	0	0	0	0	0	0	0	0	0	0	0	0	0	0	0	0	0	0	0	0	0	0
071519	14:38:35	14:44:39	363314	5.0.10.0	5_exp_noRW	50	Rpleas_acq	CS_B	BZZB	GWWG	VKKV	MQQM	YDDY	JXXJ	ehrlich	spielen	treu	schön	fair	retten	eitel	strafen	tot	schlecht	faul	rächen	47pct	acq_USpleas_CSpleas2_noRW	acq23456_noRW	2	65	0	0	300	300	790	50	0	1	1	blank2r.bmp	0	1	+	0	1	blank2r.bmp	252	1	GWWG	306	3	retten	559	0	0	0	0	0	0	0	0	0	0	0	0	0	0	0	0	0	0	0	0	0	0	0	0	0	0	0	0	0	0	0	0	0	0	0	0	0	0	0
071519	14:38:35	14:44:40	365007	5.0.10.0	5_exp_noRW	50	Rpleas_acq	CS_B	BZZB	GWWG	VKKV	MQQM	YDDY	JXXJ	ehrlich	spielen	treu	schön	fair	retten	eitel	strafen	tot	schlecht	faul	rächen	53pct	acq_USunple_CSunple1_noRW	acq23456_noRW	2	66	0	0	300	300	524	46	0	1	1	blank2r.bmp	0	1	+	0	1	blank2r.bmp	252	1	VKKV	306	3	tot	559	0	0	0	0	0	0	0	0	0	0	0	0	0	0	0	0	0	0	0	0	0	0	0	0	0	0	0	0	0	0	0	0	0	0	0	0	0	0	0
071519	14:38:35	14:44:42	367006	5.0.10.0	5_exp_noRW	50	Rpleas_acq	CS_B	BZZB	GWWG	VKKV	MQQM	YDDY	JXXJ	ehrlich	spielen	treu	schön	fair	retten	eitel	strafen	tot	schlecht	faul	rächen	47pct	acq_USunple_CSunple1_noRW	acq23456_noRW	2	67	0	0	300	300	598	50	0	0	1	blank2r.bmp	0	1	+	0	1	blank2r.bmp	252	1	VKKV	306	3	tot	559	1	FEHLER	1199	0	0	0	0	0	0	0	0	0	0	0	0	0	0	0	0	0	0	0	0	0	0	0	0	0	0	0	0	0	0	0	0	0	0	0	0
071519	14:38:35	14:44:44	368498	5.0.10.0	5_exp_noRW	50	Rpleas_acq	CS_B	BZZB	GWWG	VKKV	MQQM	YDDY	JXXJ	ehrlich	spielen	treu	schön	fair	retten	eitel	strafen	tot	schlecht	faul	rächen	47pct	acq_USpleas_CSpleas1_noRW	acq23456_noRW	2	68	0	0	300	300	537	50	0	1	1	blank2r.bmp	0	1	+	0	1	blank2r.bmp	252	1	BZZB	306	3	treu	559	0	0	0	0	0	0	0	0	0	0	0	0	0	0	0	0	0	0	0	0	0	0	0	0	0	0	0	0	0	0	0	0	0	0	0	0	0	0	0
071519	14:38:35	14:44:47	371337	5.0.10.0	5_exp_noRW	50	Rpleas_acq	CS_B	BZZB	GWWG	VKKV	MQQM	YDDY	JXXJ	ehrlich	spielen	treu	schön	fair	retten	eitel	strafen	tot	schlecht	faul	rächen	47pct	acq_USpleas_CSunple2_noRW	acq23456_noRW	2	69	0	0	300	300	1656	50	0	1	1	blank2r.bmp	0	1	+	0	1	blank2r.bmp	252	1	MQQM	306	3	retten	559	0	0	0	0	0	0	0	0	0	0	0	0	0	0	0	0	0	0	0	0	0	0	0	0	0	0	0	0	0	0	0	0	0	0	0	0	0	0	0
071519	14:38:35	14:44:49	373230	5.0.10.0	5_exp_noRW	50	Rpleas_acq	CS_B	BZZB	GWWG	VKKV	MQQM	YDDY	JXXJ	ehrlich	spielen	treu	schön	fair	retten	eitel	strafen	tot	schlecht	faul	rächen	53pct	acq_USunple_CSunple1_noRW	acq23456_noRW	2	70	0	0	300	300	708	46	0	1	1	blank2r.bmp	0	1	+	0	1	blank2r.bmp	252	1	VKKV	306	2	strafen	559	0	0	0	0	0	0	0	0	0	0	0	0	0	0	0	0	0	0	0	0	0	0	0	0	0	0	0	0	0	0	0	0	0	0	0	0	0	0	0
071519	14:38:35	14:44:50	375069	5.0.10.0	5_exp_noRW	50	Rpleas_acq	CS_B	BZZB	GWWG	VKKV	MQQM	YDDY	JXXJ	ehrlich	spielen	treu	schön	fair	retten	eitel	strafen	tot	schlecht	faul	rächen	47pct	acq_USpleas_CSpleas2_noRW	acq23456_noRW	2	71	0	0	300	300	658	50	0	1	1	blank2r.bmp	0	1	+	0	1	blank2r.bmp	252	1	GWWG	306	2	fair	559	0	0	0	0	0	0	0	0	0	0	0	0	0	0	0	0	0	0	0	0	0	0	0	0	0	0	0	0	0	0	0	0	0	0	0	0	0	0	0
071519	14:38:35	14:44:52	376975	5.0.10.0	5_exp_noRW	50	Rpleas_acq	CS_B	BZZB	GWWG	VKKV	MQQM	YDDY	JXXJ	ehrlich	spielen	treu	schön	fair	retten	eitel	strafen	tot	schlecht	faul	rächen	53pct	acq_USpleas_CSpleas1_noRW	acq23456_noRW	2	72	0	0	300	300	726	50	0	1	1	blank2r.bmp	0	1	+	0	1	blank2r.bmp	252	1	BZZB	306	3	treu	559	0	0	0	0	0	0	0	0	0	0	0	0	0	0	0	0	0	0	0	0	0	0	0	0	0	0	0	0	0	0	0	0	0	0	0	0	0	0	0
071519	14:38:35	14:44:54	378641	5.0.10.0	5_exp_noRW	50	Rpleas_acq	CS_B	BZZB	GWWG	VKKV	MQQM	YDDY	JXXJ	ehrlich	spielen	treu	schön	fair	retten	eitel	strafen	tot	schlecht	faul	rächen	53pct	acq_USpleas_CSunple1_noRW	acq23456_noRW	2	73	0	0	300	300	479	50	0	1	1	blank2r.bmp	0	1	+	0	1	blank2r.bmp	252	1	VKKV	306	3	treu	559	0	0	0	0	0	0	0	0	0	0	0	0	0	0	0	0	0	0	0	0	0	0	0	0	0	0	0	0	0	0	0	0	0	0	0	0	0	0	0
071519	14:38:35	14:44:56	380400	5.0.10.0	5_exp_noRW	50	Rpleas_acq	CS_B	BZZB	GWWG	VKKV	MQQM	YDDY	JXXJ	ehrlich	spielen	treu	schön	fair	retten	eitel	strafen	tot	schlecht	faul	rächen	53pct	acq_USunple_CSunple2_noRW	acq23456_noRW	2	74	0	0	300	300	587	46	0	1	1	blank2r.bmp	0	1	+	0	1	blank2r.bmp	252	1	MQQM	306	3	rächen	559	0	0	0	0	0	0	0	0	0	0	0	0	0	0	0	0	0	0	0	0	0	0	0	0	0	0	0	0	0	0	0	0	0	0	0	0	0	0	0
071519	14:38:35	14:44:58	382146	5.0.10.0	5_exp_noRW	50	Rpleas_acq	CS_B	BZZB	GWWG	VKKV	MQQM	YDDY	JXXJ	ehrlich	spielen	treu	schön	fair	retten	eitel	strafen	tot	schlecht	faul	rächen	47pct	acq_USunple_CSunple2_noRW	acq23456_noRW	2	75	0	0	300	300	577	46	0	1	1	blank2r.bmp	0	1	+	0	1	blank2r.bmp	252	1	MQQM	306	2	faul	559	0	0	0	0	0	0	0	0	0	0	0	0	0	0	0	0	0	0	0	0	0	0	0	0	0	0	0	0	0	0	0	0	0	0	0	0	0	0	0
071519	14:38:35	14:44:59	383825	5.0.10.0	5_exp_noRW	50	Rpleas_acq	CS_B	BZZB	GWWG	VKKV	MQQM	YDDY	JXXJ	ehrlich	spielen	treu	schön	fair	retten	eitel	strafen	tot	schlecht	faul	rächen	53pct	acq_USpleas_CSpleas2_noRW	acq23456_noRW	2	76	0	0	300	300	510	50	0	1	1	blank2r.bmp	0	1	+	0	1	blank2r.bmp	252	1	GWWG	306	2	fair	559	0	0	0	0	0	0	0	0	0	0	0	0	0	0	0	0	0	0	0	0	0	0	0	0	0	0	0	0	0	0	0	0	0	0	0	0	0	0	0
071519	14:38:35	14:45:01	385571	5.0.10.0	5_exp_noRW	50	Rpleas_acq	CS_B	BZZB	GWWG	VKKV	MQQM	YDDY	JXXJ	ehrlich	spielen	treu	schön	fair	retten	eitel	strafen	tot	schlecht	faul	rächen	53pct	acq_USunple_CSunple2_noRW	acq23456_noRW	2	77	0	0	300	300	584	46	0	1	1	blank2r.bmp	0	1	+	0	1	blank2r.bmp	252	1	MQQM	306	3	rächen	559	0	0	0	0	0	0	0	0	0	0	0	0	0	0	0	0	0	0	0	0	0	0	0	0	0	0	0	0	0	0	0	0	0	0	0	0	0	0	0
071519	14:38:35	14:45:03	387251	5.0.10.0	5_exp_noRW	50	Rpleas_acq	CS_B	BZZB	GWWG	VKKV	MQQM	YDDY	JXXJ	ehrlich	spielen	treu	schön	fair	retten	eitel	strafen	tot	schlecht	faul	rächen	47pct	acq_USpleas_CSpleas1_noRW	acq23456_noRW	2	78	0	0	300	300	505	50	0	1	1	blank2r.bmp	0	1	+	0	1	blank2r.bmp	252	1	BZZB	306	2	spielen	559	0	0	0	0	0	0	0	0	0	0	0	0	0	0	0	0	0	0	0	0	0	0	0	0	0	0	0	0	0	0	0	0	0	0	0	0	0	0	0
071519	14:38:35	14:45:05	389223	5.0.10.0	5_exp_noRW	50	Rpleas_acq	CS_B	BZZB	GWWG	VKKV	MQQM	YDDY	JXXJ	ehrlich	spielen	treu	schön	fair	retten	eitel	strafen	tot	schlecht	faul	rächen	47pct	acq_USpleas_CSpleas2_noRW	acq23456_noRW	2	79	0	0	300	300	803	50	0	1	1	blank2r.bmp	0	1	+	0	1	blank2r.bmp	252	1	GWWG	306	3	retten	559	0	0	0	0	0	0	0	0	0	0	0	0	0	0	0	0	0	0	0	0	0	0	0	0	0	0	0	0	0	0	0	0	0	0	0	0	0	0	0
071519	14:38:35	14:45:06	390942	5.0.10.0	5_exp_noRW	50	Rpleas_acq	CS_B	BZZB	GWWG	VKKV	MQQM	YDDY	JXXJ	ehrlich	spielen	treu	schön	fair	retten	eitel	strafen	tot	schlecht	faul	rächen	47pct	acq_USunple_CSpleas2_noRW	acq23456_noRW	2	80	0	0	300	300	548	46	0	1	1	blank2r.bmp	0	1	+	0	1	blank2r.bmp	252	1	GWWG	306	2	faul	559	0	0	0	0	0	0	0	0	0	0	0	0	0	0	0	0	0	0	0	0	0	0	0	0	0	0	0	0	0	0	0	0	0	0	0	0	0	0	0
071519	14:38:35	14:45:17	401271	5.0.10.0	5_exp_noRW	50	Rpleas_acq	CS_B	BZZB	GWWG	VKKV	MQQM	YDDY	JXXJ	ehrlich	spielen	treu	schön	fair	retten	eitel	strafen	tot	schlecht	faul	rächen	47pct	acq_USunple_CSunple1_noRW	acq23456_noRW	3	1	0	0	300	300	701	46	0	1	1	blank2r.bmp	0	1	+	0	1	blank2r.bmp	252	1	VKKV	306	1	eitel	559	0	0	0	0	0	0	0	0	0	0	0	0	0	0	0	0	0	0	0	0	0	0	0	0	0	0	0	0	0	0	0	0	0	0	0	0	0	0	0
071519	14:38:35	14:45:18	402884	5.0.10.0	5_exp_noRW	50	Rpleas_acq	CS_B	BZZB	GWWG	VKKV	MQQM	YDDY	JXXJ	ehrlich	spielen	treu	schön	fair	retten	eitel	strafen	tot	schlecht	faul	rächen	53pct	acq_USunple_CSunple1_noRW	acq23456_noRW	3	2	0	0	300	300	434	46	0	1	1	blank2r.bmp	0	1	+	0	1	blank2r.bmp	252	1	VKKV	306	1	eitel	559	0	0	0	0	0	0	0	0	0	0	0	0	0	0	0	0	0	0	0	0	0	0	0	0	0	0	0	0	0	0	0	0	0	0	0	0	0	0	0
071519	14:38:35	14:45:20	404563	5.0.10.0	5_exp_noRW	50	Rpleas_acq	CS_B	BZZB	GWWG	VKKV	MQQM	YDDY	JXXJ	ehrlich	spielen	treu	schön	fair	retten	eitel	strafen	tot	schlecht	faul	rächen	47pct	acq_USpleas_CSunple1_noRW	acq23456_noRW	3	3	0	0	300	300	500	50	0	1	1	blank2r.bmp	0	1	+	0	1	blank2r.bmp	252	1	VKKV	306	2	spielen	559	0	0	0	0	0	0	0	0	0	0	0	0	0	0	0	0	0	0	0	0	0	0	0	0	0	0	0	0	0	0	0	0	0	0	0	0	0	0	0
071519	14:38:35	14:45:22	406189	5.0.10.0	5_exp_noRW	50	Rpleas_acq	CS_B	BZZB	GWWG	VKKV	MQQM	YDDY	JXXJ	ehrlich	spielen	treu	schön	fair	retten	eitel	strafen	tot	schlecht	faul	rächen	53pct	acq_USunple_CSunple1_noRW	acq23456_noRW	3	4	0	0	300	300	448	46	0	1	1	blank2r.bmp	0	1	+	0	1	blank2r.bmp	252	1	VKKV	306	3	tot	559	0	0	0	0	0	0	0	0	0	0	0	0	0	0	0	0	0	0	0	0	0	0	0	0	0	0	0	0	0	0	0	0	0	0	0	0	0	0	0
071519	14:38:35	14:45:23	407829	5.0.10.0	5_exp_noRW	50	Rpleas_acq	CS_B	BZZB	GWWG	VKKV	MQQM	YDDY	JXXJ	ehrlich	spielen	treu	schön	fair	retten	eitel	strafen	tot	schlecht	faul	rächen	53pct	acq_USunple_CSunple2_noRW	acq23456_noRW	3	5	0	0	300	300	460	46	0	1	1	blank2r.bmp	0	1	+	0	1	blank2r.bmp	252	1	MQQM	306	1	schlecht	559	0	0	0	0	0	0	0	0	0	0	0	0	0	0	0	0	0	0	0	0	0	0	0	0	0	0	0	0	0	0	0	0	0	0	0	0	0	0	0
071519	14:38:35	14:45:25	409401	5.0.10.0	5_exp_noRW	50	Rpleas_acq	CS_B	BZZB	GWWG	VKKV	MQQM	YDDY	JXXJ	ehrlich	spielen	treu	schön	fair	retten	eitel	strafen	tot	schlecht	faul	rächen	53pct	acq_USunple_CSpleas1_noRW	acq23456_noRW	3	6	0	0	300	300	385	46	0	1	1	blank2r.bmp	0	1	+	0	1	blank2r.bmp	252	1	BZZB	306	1	eitel	559	0	0	0	0	0	0	0	0	0	0	0	0	0	0	0	0	0	0	0	0	0	0	0	0	0	0	0	0	0	0	0	0	0	0	0	0	0	0	0
071519	14:38:35	14:45:27	411134	5.0.10.0	5_exp_noRW	50	Rpleas_acq	CS_B	BZZB	GWWG	VKKV	MQQM	YDDY	JXXJ	ehrlich	spielen	treu	schön	fair	retten	eitel	strafen	tot	schlecht	faul	rächen	53pct	acq_USpleas_CSpleas2_noRW	acq23456_noRW	3	7	0	0	300	300	570	50	0	1	1	blank2r.bmp	0	1	+	0	1	blank2r.bmp	252	1	GWWG	306	1	schön	559	0	0	0	0	0	0	0	0	0	0	0	0	0	0	0	0	0	0	0	0	0	0	0	0	0	0	0	0	0	0	0	0	0	0	0	0	0	0	0
071519	14:38:35	14:45:28	412853	5.0.10.0	5_exp_noRW	50	Rpleas_acq	CS_B	BZZB	GWWG	VKKV	MQQM	YDDY	JXXJ	ehrlich	spielen	treu	schön	fair	retten	eitel	strafen	tot	schlecht	faul	rächen	47pct	acq_USunple_CSpleas2_noRW	acq23456_noRW	3	8	0	0	300	300	542	46	0	1	1	blank2r.bmp	0	1	+	0	1	blank2r.bmp	252	1	GWWG	306	3	rächen	559	0	0	0	0	0	0	0	0	0	0	0	0	0	0	0	0	0	0	0	0	0	0	0	0	0	0	0	0	0	0	0	0	0	0	0	0	0	0	0
071519	14:38:35	14:45:30	414599	5.0.10.0	5_exp_noRW	50	Rpleas_acq	CS_B	BZZB	GWWG	VKKV	MQQM	YDDY	JXXJ	ehrlich	spielen	treu	schön	fair	retten	eitel	strafen	tot	schlecht	faul	rächen	47pct	acq_USpleas_CSpleas1_noRW	acq23456_noRW	3	9	0	0	300	300	564	50	0	1	1	blank2r.bmp	0	1	+	0	1	blank2r.bmp	252	1	BZZB	306	1	ehrlich	559	0	0	0	0	0	0	0	0	0	0	0	0	0	0	0	0	0	0	0	0	0	0	0	0	0	0	0	0	0	0	0	0	0	0	0	0	0	0	0
071519	14:38:35	14:45:32	416278	5.0.10.0	5_exp_noRW	50	Rpleas_acq	CS_B	BZZB	GWWG	VKKV	MQQM	YDDY	JXXJ	ehrlich	spielen	treu	schön	fair	retten	eitel	strafen	tot	schlecht	faul	rächen	47pct	acq_USpleas_CSpleas1_noRW	acq23456_noRW	3	10	0	0	300	300	491	50	0	1	1	blank2r.bmp	0	1	+	0	1	blank2r.bmp	252	1	BZZB	306	2	spielen	559	0	0	0	0	0	0	0	0	0	0	0	0	0	0	0	0	0	0	0	0	0	0	0	0	0	0	0	0	0	0	0	0	0	0	0	0	0	0	0
071519	14:38:35	14:45:33	417904	5.0.10.0	5_exp_noRW	50	Rpleas_acq	CS_B	BZZB	GWWG	VKKV	MQQM	YDDY	JXXJ	ehrlich	spielen	treu	schön	fair	retten	eitel	strafen	tot	schlecht	faul	rächen	53pct	acq_USpleas_CSpleas1_noRW	acq23456_noRW	3	11	0	0	300	300	458	50	0	1	1	blank2r.bmp	0	1	+	0	1	blank2r.bmp	252	1	BZZB	306	3	treu	559	0	0	0	0	0	0	0	0	0	0	0	0	0	0	0	0	0	0	0	0	0	0	0	0	0	0	0	0	0	0	0	0	0	0	0	0	0	0	0
071519	14:38:35	14:45:35	419530	5.0.10.0	5_exp_noRW	50	Rpleas_acq	CS_B	BZZB	GWWG	VKKV	MQQM	YDDY	JXXJ	ehrlich	spielen	treu	schön	fair	retten	eitel	strafen	tot	schlecht	faul	rächen	53pct	acq_USunple_CSunple2_noRW	acq23456_noRW	3	12	0	0	300	300	440	46	0	1	1	blank2r.bmp	0	1	+	0	1	blank2r.bmp	252	1	MQQM	306	1	schlecht	559	0	0	0	0	0	0	0	0	0	0	0	0	0	0	0	0	0	0	0	0	0	0	0	0	0	0	0	0	0	0	0	0	0	0	0	0	0	0	0
071519	14:38:35	14:45:37	421263	5.0.10.0	5_exp_noRW	50	Rpleas_acq	CS_B	BZZB	GWWG	VKKV	MQQM	YDDY	JXXJ	ehrlich	spielen	treu	schön	fair	retten	eitel	strafen	tot	schlecht	faul	rächen	47pct	acq_USpleas_CSpleas1_noRW	acq23456_noRW	3	13	0	0	300	300	548	50	0	1	1	blank2r.bmp	0	1	+	0	1	blank2r.bmp	252	1	BZZB	306	1	ehrlich	559	0	0	0	0	0	0	0	0	0	0	0	0	0	0	0	0	0	0	0	0	0	0	0	0	0	0	0	0	0	0	0	0	0	0	0	0	0	0	0
071519	14:38:35	14:45:38	422969	5.0.10.0	5_exp_noRW	50	Rpleas_acq	CS_B	BZZB	GWWG	VKKV	MQQM	YDDY	JXXJ	ehrlich	spielen	treu	schön	fair	retten	eitel	strafen	tot	schlecht	faul	rächen	47pct	acq_USpleas_CSunple2_noRW	acq23456_noRW	3	14	0	0	300	300	520	50	0	1	1	blank2r.bmp	0	1	+	0	1	blank2r.bmp	252	1	MQQM	306	1	schön	559	0	0	0	0	0	0	0	0	0	0	0	0	0	0	0	0	0	0	0	0	0	0	0	0	0	0	0	0	0	0	0	0	0	0	0	0	0	0	0
071519	14:38:35	14:45:40	424542	5.0.10.0	5_exp_noRW	50	Rpleas_acq	CS_B	BZZB	GWWG	VKKV	MQQM	YDDY	JXXJ	ehrlich	spielen	treu	schön	fair	retten	eitel	strafen	tot	schlecht	faul	rächen	53pct	acq_USpleas_CSpleas2_noRW	acq23456_noRW	3	15	0	0	300	300	406	50	0	1	1	blank2r.bmp	0	1	+	0	1	blank2r.bmp	252	1	GWWG	306	1	schön	559	0	0	0	0	0	0	0	0	0	0	0	0	0	0	0	0	0	0	0	0	0	0	0	0	0	0	0	0	0	0	0	0	0	0	0	0	0	0	0
071519	14:38:35	14:45:41	426088	5.0.10.0	5_exp_noRW	50	Rpleas_acq	CS_B	BZZB	GWWG	VKKV	MQQM	YDDY	JXXJ	ehrlich	spielen	treu	schön	fair	retten	eitel	strafen	tot	schlecht	faul	rächen	47pct	acq_USpleas_CSpleas2_noRW	acq23456_noRW	3	16	0	0	300	300	384	50	0	1	1	blank2r.bmp	0	1	+	0	1	blank2r.bmp	252	1	GWWG	306	2	fair	559	0	0	0	0	0	0	0	0	0	0	0	0	0	0	0	0	0	0	0	0	0	0	0	0	0	0	0	0	0	0	0	0	0	0	0	0	0	0	0
071519	14:38:35	14:45:43	427820	5.0.10.0	5_exp_noRW	50	Rpleas_acq	CS_B	BZZB	GWWG	VKKV	MQQM	YDDY	JXXJ	ehrlich	spielen	treu	schön	fair	retten	eitel	strafen	tot	schlecht	faul	rächen	47pct	acq_USunple_CSunple2_noRW	acq23456_noRW	3	17	0	0	300	300	550	46	0	1	1	blank2r.bmp	0	1	+	0	1	blank2r.bmp	252	1	MQQM	306	2	faul	559	0	0	0	0	0	0	0	0	0	0	0	0	0	0	0	0	0	0	0	0	0	0	0	0	0	0	0	0	0	0	0	0	0	0	0	0	0	0	0
071519	14:38:35	14:45:45	429513	5.0.10.0	5_exp_noRW	50	Rpleas_acq	CS_B	BZZB	GWWG	VKKV	MQQM	YDDY	JXXJ	ehrlich	spielen	treu	schön	fair	retten	eitel	strafen	tot	schlecht	faul	rächen	47pct	acq_USunple_CSunple2_noRW	acq23456_noRW	3	18	0	0	300	300	525	46	0	1	1	blank2r.bmp	0	1	+	0	1	blank2r.bmp	252	1	MQQM	306	3	rächen	559	0	0	0	0	0	0	0	0	0	0	0	0	0	0	0	0	0	0	0	0	0	0	0	0	0	0	0	0	0	0	0	0	0	0	0	0	0	0	0
071519	14:38:35	14:45:47	431326	5.0.10.0	5_exp_noRW	50	Rpleas_acq	CS_B	BZZB	GWWG	VKKV	MQQM	YDDY	JXXJ	ehrlich	spielen	treu	schön	fair	retten	eitel	strafen	tot	schlecht	faul	rächen	53pct	acq_USpleas_CSpleas2_noRW	acq23456_noRW	3	19	0	0	300	300	635	50	0	1	1	blank2r.bmp	0	1	+	0	1	blank2r.bmp	252	1	GWWG	306	3	retten	559	0	0	0	0	0	0	0	0	0	0	0	0	0	0	0	0	0	0	0	0	0	0	0	0	0	0	0	0	0	0	0	0	0	0	0	0	0	0	0
071519	14:38:35	14:45:48	432991	5.0.10.0	5_exp_noRW	50	Rpleas_acq	CS_B	BZZB	GWWG	VKKV	MQQM	YDDY	JXXJ	ehrlich	spielen	treu	schön	fair	retten	eitel	strafen	tot	schlecht	faul	rächen	53pct	acq_USunple_CSunple1_noRW	acq23456_noRW	3	20	0	0	300	300	504	46	0	1	1	blank2r.bmp	0	1	+	0	1	blank2r.bmp	252	1	VKKV	306	2	strafen	559	0	0	0	0	0	0	0	0	0	0	0	0	0	0	0	0	0	0	0	0	0	0	0	0	0	0	0	0	0	0	0	0	0	0	0	0	0	0	0
071519	14:38:35	14:45:50	434817	5.0.10.0	5_exp_noRW	50	Rpleas_acq	CS_B	BZZB	GWWG	VKKV	MQQM	YDDY	JXXJ	ehrlich	spielen	treu	schön	fair	retten	eitel	strafen	tot	schlecht	faul	rächen	53pct	acq_USunple_CSunple1_noRW	acq23456_noRW	3	21	0	0	300	300	646	46	0	1	1	blank2r.bmp	0	1	+	0	1	blank2r.bmp	252	1	VKKV	306	1	eitel	559	0	0	0	0	0	0	0	0	0	0	0	0	0	0	0	0	0	0	0	0	0	0	0	0	0	0	0	0	0	0	0	0	0	0	0	0	0	0	0
071519	14:38:35	14:45:52	436403	5.0.10.0	5_exp_noRW	50	Rpleas_acq	CS_B	BZZB	GWWG	VKKV	MQQM	YDDY	JXXJ	ehrlich	spielen	treu	schön	fair	retten	eitel	strafen	tot	schlecht	faul	rächen	53pct	acq_USunple_CSunple1_noRW	acq23456_noRW	3	22	0	0	300	300	403	46	0	1	1	blank2r.bmp	0	1	+	0	1	blank2r.bmp	252	1	VKKV	306	2	strafen	559	0	0	0	0	0	0	0	0	0	0	0	0	0	0	0	0	0	0	0	0	0	0	0	0	0	0	0	0	0	0	0	0	0	0	0	0	0	0	0
071519	14:38:35	14:45:54	438109	5.0.10.0	5_exp_noRW	50	Rpleas_acq	CS_B	BZZB	GWWG	VKKV	MQQM	YDDY	JXXJ	ehrlich	spielen	treu	schön	fair	retten	eitel	strafen	tot	schlecht	faul	rächen	53pct	acq_USpleas_CSunple1_noRW	acq23456_noRW	3	23	0	0	300	300	539	50	0	1	1	blank2r.bmp	0	1	+	0	1	blank2r.bmp	252	1	VKKV	306	3	treu	559	0	0	0	0	0	0	0	0	0	0	0	0	0	0	0	0	0	0	0	0	0	0	0	0	0	0	0	0	0	0	0	0	0	0	0	0	0	0	0
071519	14:38:35	14:45:55	439775	5.0.10.0	5_exp_noRW	50	Rpleas_acq	CS_B	BZZB	GWWG	VKKV	MQQM	YDDY	JXXJ	ehrlich	spielen	treu	schön	fair	retten	eitel	strafen	tot	schlecht	faul	rächen	47pct	acq_USunple_CSunple2_noRW	acq23456_noRW	3	24	0	0	300	300	487	46	0	1	1	blank2r.bmp	0	1	+	0	1	blank2r.bmp	252	1	MQQM	306	1	schlecht	559	0	0	0	0	0	0	0	0	0	0	0	0	0	0	0	0	0	0	0	0	0	0	0	0	0	0	0	0	0	0	0	0	0	0	0	0	0	0	0
071519	14:38:35	14:45:57	441481	5.0.10.0	5_exp_noRW	50	Rpleas_acq	CS_B	BZZB	GWWG	VKKV	MQQM	YDDY	JXXJ	ehrlich	spielen	treu	schön	fair	retten	eitel	strafen	tot	schlecht	faul	rächen	53pct	acq_USpleas_CSpleas2_noRW	acq23456_noRW	3	25	0	0	300	300	525	50	0	1	1	blank2r.bmp	0	1	+	0	1	blank2r.bmp	252	1	GWWG	306	1	schön	559	0	0	0	0	0	0	0	0	0	0	0	0	0	0	0	0	0	0	0	0	0	0	0	0	0	0	0	0	0	0	0	0	0	0	0	0	0	0	0
071519	14:38:35	14:45:59	443094	5.0.10.0	5_exp_noRW	50	Rpleas_acq	CS_B	BZZB	GWWG	VKKV	MQQM	YDDY	JXXJ	ehrlich	spielen	treu	schön	fair	retten	eitel	strafen	tot	schlecht	faul	rächen	53pct	acq_USunple_CSpleas1_noRW	acq23456_noRW	3	26	0	0	300	300	448	46	0	1	1	blank2r.bmp	0	1	+	0	1	blank2r.bmp	252	1	BZZB	306	2	strafen	559	0	0	0	0	0	0	0	0	0	0	0	0	0	0	0	0	0	0	0	0	0	0	0	0	0	0	0	0	0	0	0	0	0	0	0	0	0	0	0
071519	14:38:35	14:46:00	444853	5.0.10.0	5_exp_noRW	50	Rpleas_acq	CS_B	BZZB	GWWG	VKKV	MQQM	YDDY	JXXJ	ehrlich	spielen	treu	schön	fair	retten	eitel	strafen	tot	schlecht	faul	rächen	53pct	acq_USpleas_CSpleas1_noRW	acq23456_noRW	3	27	0	0	300	300	583	50	0	1	1	blank2r.bmp	0	1	+	0	1	blank2r.bmp	252	1	BZZB	306	1	ehrlich	559	0	0	0	0	0	0	0	0	0	0	0	0	0	0	0	0	0	0	0	0	0	0	0	0	0	0	0	0	0	0	0	0	0	0	0	0	0	0	0
071519	14:38:35	14:46:02	446453	5.0.10.0	5_exp_noRW	50	Rpleas_acq	CS_B	BZZB	GWWG	VKKV	MQQM	YDDY	JXXJ	ehrlich	spielen	treu	schön	fair	retten	eitel	strafen	tot	schlecht	faul	rächen	47pct	acq_USpleas_CSpleas2_noRW	acq23456_noRW	3	28	0	0	300	300	423	50	0	1	1	blank2r.bmp	0	1	+	0	1	blank2r.bmp	252	1	GWWG	306	2	fair	559	0	0	0	0	0	0	0	0	0	0	0	0	0	0	0	0	0	0	0	0	0	0	0	0	0	0	0	0	0	0	0	0	0	0	0	0	0	0	0
071519	14:38:35	14:46:04	448118	5.0.10.0	5_exp_noRW	50	Rpleas_acq	CS_B	BZZB	GWWG	VKKV	MQQM	YDDY	JXXJ	ehrlich	spielen	treu	schön	fair	retten	eitel	strafen	tot	schlecht	faul	rächen	47pct	acq_USunple_CSunple2_noRW	acq23456_noRW	3	29	0	0	300	300	484	46	0	1	1	blank2r.bmp	0	1	+	0	1	blank2r.bmp	252	1	MQQM	306	2	faul	559	0	0	0	0	0	0	0	0	0	0	0	0	0	0	0	0	0	0	0	0	0	0	0	0	0	0	0	0	0	0	0	0	0	0	0	0	0	0	0
071519	14:38:35	14:46:05	449824	5.0.10.0	5_exp_noRW	50	Rpleas_acq	CS_B	BZZB	GWWG	VKKV	MQQM	YDDY	JXXJ	ehrlich	spielen	treu	schön	fair	retten	eitel	strafen	tot	schlecht	faul	rächen	47pct	acq_USunple_CSunple2_noRW	acq23456_noRW	3	30	0	0	300	300	534	46	0	1	1	blank2r.bmp	0	1	+	0	1	blank2r.bmp	252	1	MQQM	306	3	rächen	559	0	0	0	0	0	0	0	0	0	0	0	0	0	0	0	0	0	0	0	0	0	0	0	0	0	0	0	0	0	0	0	0	0	0	0	0	0	0	0
071519	14:38:35	14:46:07	451490	5.0.10.0	5_exp_noRW	50	Rpleas_acq	CS_B	BZZB	GWWG	VKKV	MQQM	YDDY	JXXJ	ehrlich	spielen	treu	schön	fair	retten	eitel	strafen	tot	schlecht	faul	rächen	47pct	acq_USpleas_CSpleas1_noRW	acq23456_noRW	3	31	0	0	300	300	483	50	0	1	1	blank2r.bmp	0	1	+	0	1	blank2r.bmp	252	1	BZZB	306	3	treu	559	0	0	0	0	0	0	0	0	0	0	0	0	0	0	0	0	0	0	0	0	0	0	0	0	0	0	0	0	0	0	0	0	0	0	0	0	0	0	0
071519	14:38:35	14:46:09	453250	5.0.10.0	5_exp_noRW	50	Rpleas_acq	CS_B	BZZB	GWWG	VKKV	MQQM	YDDY	JXXJ	ehrlich	spielen	treu	schön	fair	retten	eitel	strafen	tot	schlecht	faul	rächen	47pct	acq_USunple_CSunple2_noRW	acq23456_noRW	3	32	0	0	300	300	576	46	0	1	1	blank2r.bmp	0	1	+	0	1	blank2r.bmp	252	1	MQQM	306	2	faul	559	0	0	0	0	0	0	0	0	0	0	0	0	0	0	0	0	0	0	0	0	0	0	0	0	0	0	0	0	0	0	0	0	0	0	0	0	0	0	0
071519	14:38:35	14:46:10	454929	5.0.10.0	5_exp_noRW	50	Rpleas_acq	CS_B	BZZB	GWWG	VKKV	MQQM	YDDY	JXXJ	ehrlich	spielen	treu	schön	fair	retten	eitel	strafen	tot	schlecht	faul	rächen	47pct	acq_USpleas_CSpleas1_noRW	acq23456_noRW	3	33	0	0	300	300	507	50	0	1	1	blank2r.bmp	0	1	+	0	1	blank2r.bmp	252	1	BZZB	306	2	spielen	559	0	0	0	0	0	0	0	0	0	0	0	0	0	0	0	0	0	0	0	0	0	0	0	0	0	0	0	0	0	0	0	0	0	0	0	0	0	0	0
071519	14:38:35	14:46:12	456795	5.0.10.0	5_exp_noRW	50	Rpleas_acq	CS_B	BZZB	GWWG	VKKV	MQQM	YDDY	JXXJ	ehrlich	spielen	treu	schön	fair	retten	eitel	strafen	tot	schlecht	faul	rächen	53pct	acq_USpleas_CSpleas2_noRW	acq23456_noRW	3	34	0	0	300	300	696	50	0	1	1	blank2r.bmp	0	1	+	0	1	blank2r.bmp	252	1	GWWG	306	3	retten	559	0	0	0	0	0	0	0	0	0	0	0	0	0	0	0	0	0	0	0	0	0	0	0	0	0	0	0	0	0	0	0	0	0	0	0	0	0	0	0
071519	14:38:35	14:46:14	458434	5.0.10.0	5_exp_noRW	50	Rpleas_acq	CS_B	BZZB	GWWG	VKKV	MQQM	YDDY	JXXJ	ehrlich	spielen	treu	schön	fair	retten	eitel	strafen	tot	schlecht	faul	rächen	53pct	acq_USunple_CSunple1_noRW	acq23456_noRW	3	35	0	0	300	300	464	46	0	1	1	blank2r.bmp	0	1	+	0	1	blank2r.bmp	252	1	VKKV	306	3	tot	559	0	0	0	0	0	0	0	0	0	0	0	0	0	0	0	0	0	0	0	0	0	0	0	0	0	0	0	0	0	0	0	0	0	0	0	0	0	0	0
071519	14:38:35	14:46:16	460273	5.0.10.0	5_exp_noRW	50	Rpleas_acq	CS_B	BZZB	GWWG	VKKV	MQQM	YDDY	JXXJ	ehrlich	spielen	treu	schön	fair	retten	eitel	strafen	tot	schlecht	faul	rächen	47pct	acq_USunple_CSpleas2_noRW	acq23456_noRW	3	36	0	0	300	300	657	46	0	1	1	blank2r.bmp	0	1	+	0	1	blank2r.bmp	252	1	GWWG	306	2	faul	559	0	0	0	0	0	0	0	0	0	0	0	0	0	0	0	0	0	0	0	0	0	0	0	0	0	0	0	0	0	0	0	0	0	0	0	0	0	0	0
071519	14:38:35	14:46:17	461913	5.0.10.0	5_exp_noRW	50	Rpleas_acq	CS_B	BZZB	GWWG	VKKV	MQQM	YDDY	JXXJ	ehrlich	spielen	treu	schön	fair	retten	eitel	strafen	tot	schlecht	faul	rächen	47pct	acq_USunple_CSunple1_noRW	acq23456_noRW	3	37	0	0	300	300	454	46	0	1	1	blank2r.bmp	0	1	+	0	1	blank2r.bmp	252	1	VKKV	306	3	tot	559	0	0	0	0	0	0	0	0	0	0	0	0	0	0	0	0	0	0	0	0	0	0	0	0	0	0	0	0	0	0	0	0	0	0	0	0	0	0	0
071519	14:38:35	14:46:19	463565	5.0.10.0	5_exp_noRW	50	Rpleas_acq	CS_B	BZZB	GWWG	VKKV	MQQM	YDDY	JXXJ	ehrlich	spielen	treu	schön	fair	retten	eitel	strafen	tot	schlecht	faul	rächen	47pct	acq_USpleas_CSpleas1_noRW	acq23456_noRW	3	38	0	0	300	300	475	50	0	1	1	blank2r.bmp	0	1	+	0	1	blank2r.bmp	252	1	BZZB	306	2	spielen	559	0	0	0	0	0	0	0	0	0	0	0	0	0	0	0	0	0	0	0	0	0	0	0	0	0	0	0	0	0	0	0	0	0	0	0	0	0	0	0
071519	14:38:35	14:46:21	465231	5.0.10.0	5_exp_noRW	50	Rpleas_acq	CS_B	BZZB	GWWG	VKKV	MQQM	YDDY	JXXJ	ehrlich	spielen	treu	schön	fair	retten	eitel	strafen	tot	schlecht	faul	rächen	53pct	acq_USpleas_CSunple2_noRW	acq23456_noRW	3	39	0	0	300	300	488	50	0	1	1	blank2r.bmp	0	1	+	0	1	blank2r.bmp	252	1	MQQM	306	2	fair	559	0	0	0	0	0	0	0	0	0	0	0	0	0	0	0	0	0	0	0	0	0	0	0	0	0	0	0	0	0	0	0	0	0	0	0	0	0	0	0
071519	14:38:35	14:46:22	466764	5.0.10.0	5_exp_noRW	50	Rpleas_acq	CS_B	BZZB	GWWG	VKKV	MQQM	YDDY	JXXJ	ehrlich	spielen	treu	schön	fair	retten	eitel	strafen	tot	schlecht	faul	rächen	47pct	acq_USpleas_CSpleas2_noRW	acq23456_noRW	3	40	0	0	300	300	346	50	0	1	1	blank2r.bmp	0	1	+	0	1	blank2r.bmp	252	1	GWWG	306	2	fair	559	0	0	0	0	0	0	0	0	0	0	0	0	0	0	0	0	0	0	0	0	0	0	0	0	0	0	0	0	0	0	0	0	0	0	0	0	0	0	0
071519	14:38:35	14:46:24	468297	5.0.10.0	5_exp_noRW	50	Rpleas_acq	CS_B	BZZB	GWWG	VKKV	MQQM	YDDY	JXXJ	ehrlich	spielen	treu	schön	fair	retten	eitel	strafen	tot	schlecht	faul	rächen	47pct	acq_USpleas_CSunple2_noRW	acq23456_noRW	3	41	0	0	300	300	366	50	0	1	1	blank2r.bmp	0	1	+	0	1	blank2r.bmp	252	1	MQQM	306	1	schön	559	0	0	0	0	0	0	0	0	0	0	0	0	0	0	0	0	0	0	0	0	0	0	0	0	0	0	0	0	0	0	0	0	0	0	0	0	0	0	0
071519	14:38:35	14:46:25	469856	5.0.10.0	5_exp_noRW	50	Rpleas_acq	CS_B	BZZB	GWWG	VKKV	MQQM	YDDY	JXXJ	ehrlich	spielen	treu	schön	fair	retten	eitel	strafen	tot	schlecht	faul	rächen	53pct	acq_USpleas_CSpleas2_noRW	acq23456_noRW	3	42	0	0	300	300	384	50	0	1	1	blank2r.bmp	0	1	+	0	1	blank2r.bmp	252	1	GWWG	306	1	schön	559	0	0	0	0	0	0	0	0	0	0	0	0	0	0	0	0	0	0	0	0	0	0	0	0	0	0	0	0	0	0	0	0	0	0	0	0	0	0	0
071519	14:38:35	14:46:27	471495	5.0.10.0	5_exp_noRW	50	Rpleas_acq	CS_B	BZZB	GWWG	VKKV	MQQM	YDDY	JXXJ	ehrlich	spielen	treu	schön	fair	retten	eitel	strafen	tot	schlecht	faul	rächen	53pct	acq_USpleas_CSunple1_noRW	acq23456_noRW	3	43	0	0	300	300	457	50	0	1	1	blank2r.bmp	0	1	+	0	1	blank2r.bmp	252	1	VKKV	306	2	spielen	559	0	0	0	0	0	0	0	0	0	0	0	0	0	0	0	0	0	0	0	0	0	0	0	0	0	0	0	0	0	0	0	0	0	0	0	0	0	0	0
071519	14:38:35	14:46:29	473148	5.0.10.0	5_exp_noRW	50	Rpleas_acq	CS_B	BZZB	GWWG	VKKV	MQQM	YDDY	JXXJ	ehrlich	spielen	treu	schön	fair	retten	eitel	strafen	tot	schlecht	faul	rächen	53pct	acq_USpleas_CSpleas1_noRW	acq23456_noRW	3	44	0	0	300	300	482	50	0	1	1	blank2r.bmp	0	1	+	0	1	blank2r.bmp	252	1	BZZB	306	1	ehrlich	559	0	0	0	0	0	0	0	0	0	0	0	0	0	0	0	0	0	0	0	0	0	0	0	0	0	0	0	0	0	0	0	0	0	0	0	0	0	0	0
071519	14:38:35	14:46:30	474774	5.0.10.0	5_exp_noRW	50	Rpleas_acq	CS_B	BZZB	GWWG	VKKV	MQQM	YDDY	JXXJ	ehrlich	spielen	treu	schön	fair	retten	eitel	strafen	tot	schlecht	faul	rächen	47pct	acq_USpleas_CSpleas1_noRW	acq23456_noRW	3	45	0	0	300	300	445	50	0	1	1	blank2r.bmp	0	1	+	0	1	blank2r.bmp	252	1	BZZB	306	3	treu	559	0	0	0	0	0	0	0	0	0	0	0	0	0	0	0	0	0	0	0	0	0	0	0	0	0	0	0	0	0	0	0	0	0	0	0	0	0	0	0
071519	14:38:35	14:46:32	476453	5.0.10.0	5_exp_noRW	50	Rpleas_acq	CS_B	BZZB	GWWG	VKKV	MQQM	YDDY	JXXJ	ehrlich	spielen	treu	schön	fair	retten	eitel	strafen	tot	schlecht	faul	rächen	47pct	acq_USunple_CSunple2_noRW	acq23456_noRW	3	46	0	0	300	300	511	46	0	1	1	blank2r.bmp	0	1	+	0	1	blank2r.bmp	252	1	MQQM	306	3	rächen	559	0	0	0	0	0	0	0	0	0	0	0	0	0	0	0	0	0	0	0	0	0	0	0	0	0	0	0	0	0	0	0	0	0	0	0	0	0	0	0
071519	14:38:35	14:46:34	478199	5.0.10.0	5_exp_noRW	50	Rpleas_acq	CS_B	BZZB	GWWG	VKKV	MQQM	YDDY	JXXJ	ehrlich	spielen	treu	schön	fair	retten	eitel	strafen	tot	schlecht	faul	rächen	53pct	acq_USpleas_CSpleas2_noRW	acq23456_noRW	3	47	0	0	300	300	567	50	0	1	1	blank2r.bmp	0	1	+	0	1	blank2r.bmp	252	1	GWWG	306	3	retten	559	0	0	0	0	0	0	0	0	0	0	0	0	0	0	0	0	0	0	0	0	0	0	0	0	0	0	0	0	0	0	0	0	0	0	0	0	0	0	0
071519	14:38:35	14:46:36	480118	5.0.10.0	5_exp_noRW	50	Rpleas_acq	CS_B	BZZB	GWWG	VKKV	MQQM	YDDY	JXXJ	ehrlich	spielen	treu	schön	fair	retten	eitel	strafen	tot	schlecht	faul	rächen	47pct	acq_USunple_CSpleas1_noRW	acq23456_noRW	3	48	0	0	300	300	740	46	0	1	1	blank2r.bmp	0	1	+	0	1	blank2r.bmp	252	1	BZZB	306	1	eitel	559	0	0	0	0	0	0	0	0	0	0	0	0	0	0	0	0	0	0	0	0	0	0	0	0	0	0	0	0	0	0	0	0	0	0	0	0	0	0	0
071519	14:38:35	14:46:37	481864	5.0.10.0	5_exp_noRW	50	Rpleas_acq	CS_B	BZZB	GWWG	VKKV	MQQM	YDDY	JXXJ	ehrlich	spielen	treu	schön	fair	retten	eitel	strafen	tot	schlecht	faul	rächen	47pct	acq_USunple_CSunple2_noRW	acq23456_noRW	3	49	0	0	300	300	564	46	0	1	1	blank2r.bmp	0	1	+	0	1	blank2r.bmp	252	1	MQQM	306	1	schlecht	559	0	0	0	0	0	0	0	0	0	0	0	0	0	0	0	0	0	0	0	0	0	0	0	0	0	0	0	0	0	0	0	0	0	0	0	0	0	0	0
071519	14:38:35	14:46:39	483477	5.0.10.0	5_exp_noRW	50	Rpleas_acq	CS_B	BZZB	GWWG	VKKV	MQQM	YDDY	JXXJ	ehrlich	spielen	treu	schön	fair	retten	eitel	strafen	tot	schlecht	faul	rächen	53pct	acq_USunple_CSunple1_noRW	acq23456_noRW	3	50	0	0	300	300	435	46	0	1	1	blank2r.bmp	0	1	+	0	1	blank2r.bmp	252	1	VKKV	306	1	eitel	559	0	0	0	0	0	0	0	0	0	0	0	0	0	0	0	0	0	0	0	0	0	0	0	0	0	0	0	0	0	0	0	0	0	0	0	0	0	0	0
071519	14:38:35	14:46:41	485143	5.0.10.0	5_exp_noRW	50	Rpleas_acq	CS_B	BZZB	GWWG	VKKV	MQQM	YDDY	JXXJ	ehrlich	spielen	treu	schön	fair	retten	eitel	strafen	tot	schlecht	faul	rächen	53pct	acq_USpleas_CSpleas1_noRW	acq23456_noRW	3	51	0	0	300	300	495	50	0	1	1	blank2r.bmp	0	1	+	0	1	blank2r.bmp	252	1	BZZB	306	2	spielen	559	0	0	0	0	0	0	0	0	0	0	0	0	0	0	0	0	0	0	0	0	0	0	0	0	0	0	0	0	0	0	0	0	0	0	0	0	0	0	0
071519	14:38:35	14:46:42	486716	5.0.10.0	5_exp_noRW	50	Rpleas_acq	CS_B	BZZB	GWWG	VKKV	MQQM	YDDY	JXXJ	ehrlich	spielen	treu	schön	fair	retten	eitel	strafen	tot	schlecht	faul	rächen	53pct	acq_USpleas_CSpleas2_noRW	acq23456_noRW	3	52	0	0	300	300	389	50	0	1	1	blank2r.bmp	0	1	+	0	1	blank2r.bmp	252	1	GWWG	306	2	fair	559	0	0	0	0	0	0	0	0	0	0	0	0	0	0	0	0	0	0	0	0	0	0	0	0	0	0	0	0	0	0	0	0	0	0	0	0	0	0	0
071519	14:38:35	14:46:44	488342	5.0.10.0	5_exp_noRW	50	Rpleas_acq	CS_B	BZZB	GWWG	VKKV	MQQM	YDDY	JXXJ	ehrlich	spielen	treu	schön	fair	retten	eitel	strafen	tot	schlecht	faul	rächen	53pct	acq_USunple_CSunple2_noRW	acq23456_noRW	3	53	0	0	300	300	446	46	0	1	1	blank2r.bmp	0	1	+	0	1	blank2r.bmp	252	1	MQQM	306	3	rächen	559	0	0	0	0	0	0	0	0	0	0	0	0	0	0	0	0	0	0	0	0	0	0	0	0	0	0	0	0	0	0	0	0	0	0	0	0	0	0	0
071519	14:38:35	14:46:45	489954	5.0.10.0	5_exp_noRW	50	Rpleas_acq	CS_B	BZZB	GWWG	VKKV	MQQM	YDDY	JXXJ	ehrlich	spielen	treu	schön	fair	retten	eitel	strafen	tot	schlecht	faul	rächen	53pct	acq_USunple_CSunple1_noRW	acq23456_noRW	3	54	0	0	300	300	437	46	0	1	1	blank2r.bmp	0	1	+	0	1	blank2r.bmp	252	1	VKKV	306	2	strafen	559	0	0	0	0	0	0	0	0	0	0	0	0	0	0	0	0	0	0	0	0	0	0	0	0	0	0	0	0	0	0	0	0	0	0	0	0	0	0	0
071519	14:38:35	14:46:47	491514	5.0.10.0	5_exp_noRW	50	Rpleas_acq	CS_B	BZZB	GWWG	VKKV	MQQM	YDDY	JXXJ	ehrlich	spielen	treu	schön	fair	retten	eitel	strafen	tot	schlecht	faul	rächen	53pct	acq_USunple_CSpleas2_noRW	acq23456_noRW	3	55	0	0	300	300	384	46	0	1	1	blank2r.bmp	0	1	+	0	1	blank2r.bmp	252	1	GWWG	306	3	rächen	559	0	0	0	0	0	0	0	0	0	0	0	0	0	0	0	0	0	0	0	0	0	0	0	0	0	0	0	0	0	0	0	0	0	0	0	0	0	0	0
071519	14:38:35	14:46:49	493126	5.0.10.0	5_exp_noRW	50	Rpleas_acq	CS_B	BZZB	GWWG	VKKV	MQQM	YDDY	JXXJ	ehrlich	spielen	treu	schön	fair	retten	eitel	strafen	tot	schlecht	faul	rächen	47pct	acq_USunple_CSunple2_noRW	acq23456_noRW	3	56	0	0	300	300	431	46	0	1	1	blank2r.bmp	0	1	+	0	1	blank2r.bmp	252	1	MQQM	306	1	schlecht	559	0	0	0	0	0	0	0	0	0	0	0	0	0	0	0	0	0	0	0	0	0	0	0	0	0	0	0	0	0	0	0	0	0	0	0	0	0	0	0
071519	14:38:35	14:46:50	494712	5.0.10.0	5_exp_noRW	50	Rpleas_acq	CS_B	BZZB	GWWG	VKKV	MQQM	YDDY	JXXJ	ehrlich	spielen	treu	schön	fair	retten	eitel	strafen	tot	schlecht	faul	rächen	53pct	acq_USunple_CSunple1_noRW	acq23456_noRW	3	57	0	0	300	300	400	46	0	1	1	blank2r.bmp	0	1	+	0	1	blank2r.bmp	252	1	VKKV	306	3	tot	559	0	0	0	0	0	0	0	0	0	0	0	0	0	0	0	0	0	0	0	0	0	0	0	0	0	0	0	0	0	0	0	0	0	0	0	0	0	0	0
071519	14:38:35	14:46:52	496338	5.0.10.0	5_exp_noRW	50	Rpleas_acq	CS_B	BZZB	GWWG	VKKV	MQQM	YDDY	JXXJ	ehrlich	spielen	treu	schön	fair	retten	eitel	strafen	tot	schlecht	faul	rächen	47pct	acq_USpleas_CSpleas2_noRW	acq23456_noRW	3	58	0	0	300	300	460	50	0	1	1	blank2r.bmp	0	1	+	0	1	blank2r.bmp	252	1	GWWG	306	1	schön	559	0	0	0	0	0	0	0	0	0	0	0	0	0	0	0	0	0	0	0	0	0	0	0	0	0	0	0	0	0	0	0	0	0	0	0	0	0	0	0
071519	14:38:35	14:46:53	497938	5.0.10.0	5_exp_noRW	50	Rpleas_acq	CS_B	BZZB	GWWG	VKKV	MQQM	YDDY	JXXJ	ehrlich	spielen	treu	schön	fair	retten	eitel	strafen	tot	schlecht	faul	rächen	53pct	acq_USpleas_CSpleas1_noRW	acq23456_noRW	3	59	0	0	300	300	417	50	0	1	1	blank2r.bmp	0	1	+	0	1	blank2r.bmp	252	1	BZZB	306	1	ehrlich	559	0	0	0	0	0	0	0	0	0	0	0	0	0	0	0	0	0	0	0	0	0	0	0	0	0	0	0	0	0	0	0	0	0	0	0	0	0	0	0
071519	14:38:35	14:46:55	499710	5.0.10.0	5_exp_noRW	50	Rpleas_acq	CS_B	BZZB	GWWG	VKKV	MQQM	YDDY	JXXJ	ehrlich	spielen	treu	schön	fair	retten	eitel	strafen	tot	schlecht	faul	rächen	47pct	acq_USunple_CSunple1_noRW	acq23456_noRW	3	60	0	0	300	300	385	50	0	0	1	blank2r.bmp	0	1	+	0	1	blank2r.bmp	252	1	VKKV	306	1	eitel	559	1	FEHLER	986	0	0	0	0	0	0	0	0	0	0	0	0	0	0	0	0	0	0	0	0	0	0	0	0	0	0	0	0	0	0	0	0	0	0	0	0
071519	14:38:35	14:46:57	501416	5.0.10.0	5_exp_noRW	50	Rpleas_acq	CS_B	BZZB	GWWG	VKKV	MQQM	YDDY	JXXJ	ehrlich	spielen	treu	schön	fair	retten	eitel	strafen	tot	schlecht	faul	rächen	53pct	acq_USunple_CSpleas2_noRW	acq23456_noRW	3	61	0	0	300	300	749	46	0	1	1	blank2r.bmp	0	1	+	0	1	blank2r.bmp	252	1	GWWG	306	1	schlecht	559	0	0	0	0	0	0	0	0	0	0	0	0	0	0	0	0	0	0	0	0	0	0	0	0	0	0	0	0	0	0	0	0	0	0	0	0	0	0	0
071519	14:38:35	14:46:58	503082	5.0.10.0	5_exp_noRW	50	Rpleas_acq	CS_B	BZZB	GWWG	VKKV	MQQM	YDDY	JXXJ	ehrlich	spielen	treu	schön	fair	retten	eitel	strafen	tot	schlecht	faul	rächen	53pct	acq_USpleas_CSpleas1_noRW	acq23456_noRW	3	62	0	0	300	300	494	50	0	1	1	blank2r.bmp	0	1	+	0	1	blank2r.bmp	252	1	BZZB	306	3	treu	559	0	0	0	0	0	0	0	0	0	0	0	0	0	0	0	0	0	0	0	0	0	0	0	0	0	0	0	0	0	0	0	0	0	0	0	0	0	0	0
071519	14:38:35	14:47:00	504775	5.0.10.0	5_exp_noRW	50	Rpleas_acq	CS_B	BZZB	GWWG	VKKV	MQQM	YDDY	JXXJ	ehrlich	spielen	treu	schön	fair	retten	eitel	strafen	tot	schlecht	faul	rächen	47pct	acq_USunple_CSunple1_noRW	acq23456_noRW	3	63	0	0	300	300	512	46	0	1	1	blank2r.bmp	0	1	+	0	1	blank2r.bmp	252	1	VKKV	306	2	strafen	559	0	0	0	0	0	0	0	0	0	0	0	0	0	0	0	0	0	0	0	0	0	0	0	0	0	0	0	0	0	0	0	0	0	0	0	0	0	0	0
071519	14:38:35	14:47:02	506374	5.0.10.0	5_exp_noRW	50	Rpleas_acq	CS_B	BZZB	GWWG	VKKV	MQQM	YDDY	JXXJ	ehrlich	spielen	treu	schön	fair	retten	eitel	strafen	tot	schlecht	faul	rächen	47pct	acq_USunple_CSunple2_noRW	acq23456_noRW	3	64	0	0	300	300	432	46	0	1	1	blank2r.bmp	0	1	+	0	1	blank2r.bmp	252	1	MQQM	306	2	faul	559	0	0	0	0	0	0	0	0	0	0	0	0	0	0	0	0	0	0	0	0	0	0	0	0	0	0	0	0	0	0	0	0	0	0	0	0	0	0	0
071519	14:38:35	14:47:04	508147	5.0.10.0	5_exp_noRW	50	Rpleas_acq	CS_B	BZZB	GWWG	VKKV	MQQM	YDDY	JXXJ	ehrlich	spielen	treu	schön	fair	retten	eitel	strafen	tot	schlecht	faul	rächen	53pct	acq_USunple_CSunple2_noRW	acq23456_noRW	3	65	0	0	300	300	595	46	0	1	1	blank2r.bmp	0	1	+	0	1	blank2r.bmp	252	1	MQQM	306	1	schlecht	559	0	0	0	0	0	0	0	0	0	0	0	0	0	0	0	0	0	0	0	0	0	0	0	0	0	0	0	0	0	0	0	0	0	0	0	0	0	0	0
071519	14:38:35	14:47:05	509719	5.0.10.0	5_exp_noRW	50	Rpleas_acq	CS_B	BZZB	GWWG	VKKV	MQQM	YDDY	JXXJ	ehrlich	spielen	treu	schön	fair	retten	eitel	strafen	tot	schlecht	faul	rächen	47pct	acq_USunple_CSunple1_noRW	acq23456_noRW	3	66	0	0	300	300	398	46	0	1	1	blank2r.bmp	0	1	+	0	1	blank2r.bmp	252	1	VKKV	306	3	tot	559	0	0	0	0	0	0	0	0	0	0	0	0	0	0	0	0	0	0	0	0	0	0	0	0	0	0	0	0	0	0	0	0	0	0	0	0	0	0	0
071519	14:38:35	14:47:07	511292	5.0.10.0	5_exp_noRW	50	Rpleas_acq	CS_B	BZZB	GWWG	VKKV	MQQM	YDDY	JXXJ	ehrlich	spielen	treu	schön	fair	retten	eitel	strafen	tot	schlecht	faul	rächen	47pct	acq_USunple_CSpleas1_noRW	acq23456_noRW	3	67	0	0	300	300	396	46	0	1	1	blank2r.bmp	0	1	+	0	1	blank2r.bmp	252	1	BZZB	306	3	tot	559	0	0	0	0	0	0	0	0	0	0	0	0	0	0	0	0	0	0	0	0	0	0	0	0	0	0	0	0	0	0	0	0	0	0	0	0	0	0	0
071519	14:38:35	14:47:08	513011	5.0.10.0	5_exp_noRW	50	Rpleas_acq	CS_B	BZZB	GWWG	VKKV	MQQM	YDDY	JXXJ	ehrlich	spielen	treu	schön	fair	retten	eitel	strafen	tot	schlecht	faul	rächen	53pct	acq_USpleas_CSpleas1_noRW	acq23456_noRW	3	68	0	0	300	300	548	50	0	1	1	blank2r.bmp	0	1	+	0	1	blank2r.bmp	252	1	BZZB	306	1	ehrlich	559	0	0	0	0	0	0	0	0	0	0	0	0	0	0	0	0	0	0	0	0	0	0	0	0	0	0	0	0	0	0	0	0	0	0	0	0	0	0	0
071519	14:38:35	14:47:10	514664	5.0.10.0	5_exp_noRW	50	Rpleas_acq	CS_B	BZZB	GWWG	VKKV	MQQM	YDDY	JXXJ	ehrlich	spielen	treu	schön	fair	retten	eitel	strafen	tot	schlecht	faul	rächen	53pct	acq_USunple_CSunple2_noRW	acq23456_noRW	3	69	0	0	300	300	491	46	0	1	1	blank2r.bmp	0	1	+	0	1	blank2r.bmp	252	1	MQQM	306	2	faul	559	0	0	0	0	0	0	0	0	0	0	0	0	0	0	0	0	0	0	0	0	0	0	0	0	0	0	0	0	0	0	0	0	0	0	0	0	0	0	0
071519	14:38:35	14:47:12	516437	5.0.10.0	5_exp_noRW	50	Rpleas_acq	CS_B	BZZB	GWWG	VKKV	MQQM	YDDY	JXXJ	ehrlich	spielen	treu	schön	fair	retten	eitel	strafen	tot	schlecht	faul	rächen	53pct	acq_USpleas_CSunple1_noRW	acq23456_noRW	3	70	0	0	300	300	586	50	0	1	1	blank2r.bmp	0	1	+	0	1	blank2r.bmp	252	1	VKKV	306	1	ehrlich	559	0	0	0	0	0	0	0	0	0	0	0	0	0	0	0	0	0	0	0	0	0	0	0	0	0	0	0	0	0	0	0	0	0	0	0	0	0	0	0
071519	14:38:35	14:47:14	518342	5.0.10.0	5_exp_noRW	50	Rpleas_acq	CS_B	BZZB	GWWG	VKKV	MQQM	YDDY	JXXJ	ehrlich	spielen	treu	schön	fair	retten	eitel	strafen	tot	schlecht	faul	rächen	53pct	acq_USunple_CSunple1_noRW	acq23456_noRW	3	71	0	0	300	300	721	46	0	1	1	blank2r.bmp	0	1	+	0	1	blank2r.bmp	252	1	VKKV	306	1	eitel	559	0	0	0	0	0	0	0	0	0	0	0	0	0	0	0	0	0	0	0	0	0	0	0	0	0	0	0	0	0	0	0	0	0	0	0	0	0	0	0
071519	14:38:35	14:47:15	520075	5.0.10.0	5_exp_noRW	50	Rpleas_acq	CS_B	BZZB	GWWG	VKKV	MQQM	YDDY	JXXJ	ehrlich	spielen	treu	schön	fair	retten	eitel	strafen	tot	schlecht	faul	rächen	53pct	acq_USpleas_CSpleas1_noRW	acq23456_noRW	3	72	0	0	300	300	567	50	0	1	1	blank2r.bmp	0	1	+	0	1	blank2r.bmp	252	1	BZZB	306	3	treu	559	0	0	0	0	0	0	0	0	0	0	0	0	0	0	0	0	0	0	0	0	0	0	0	0	0	0	0	0	0	0	0	0	0	0	0	0	0	0	0
071519	14:38:35	14:47:17	521874	5.0.10.0	5_exp_noRW	50	Rpleas_acq	CS_B	BZZB	GWWG	VKKV	MQQM	YDDY	JXXJ	ehrlich	spielen	treu	schön	fair	retten	eitel	strafen	tot	schlecht	faul	rächen	47pct	acq_USpleas_CSpleas2_noRW	acq23456_noRW	3	73	0	0	300	300	627	50	0	1	1	blank2r.bmp	0	1	+	0	1	blank2r.bmp	252	1	GWWG	306	3	retten	559	0	0	0	0	0	0	0	0	0	0	0	0	0	0	0	0	0	0	0	0	0	0	0	0	0	0	0	0	0	0	0	0	0	0	0	0	0	0	0
071519	14:38:35	14:47:19	523447	5.0.10.0	5_exp_noRW	50	Rpleas_acq	CS_B	BZZB	GWWG	VKKV	MQQM	YDDY	JXXJ	ehrlich	spielen	treu	schön	fair	retten	eitel	strafen	tot	schlecht	faul	rächen	53pct	acq_USpleas_CSpleas2_noRW	acq23456_noRW	3	74	0	0	300	300	404	50	0	1	1	blank2r.bmp	0	1	+	0	1	blank2r.bmp	252	1	GWWG	306	3	retten	559	0	0	0	0	0	0	0	0	0	0	0	0	0	0	0	0	0	0	0	0	0	0	0	0	0	0	0	0	0	0	0	0	0	0	0	0	0	0	0
071519	14:38:35	14:47:20	524980	5.0.10.0	5_exp_noRW	50	Rpleas_acq	CS_B	BZZB	GWWG	VKKV	MQQM	YDDY	JXXJ	ehrlich	spielen	treu	schön	fair	retten	eitel	strafen	tot	schlecht	faul	rächen	47pct	acq_USpleas_CSpleas2_noRW	acq23456_noRW	3	75	0	0	300	300	362	50	0	1	1	blank2r.bmp	0	1	+	0	1	blank2r.bmp	252	1	GWWG	306	2	fair	559	0	0	0	0	0	0	0	0	0	0	0	0	0	0	0	0	0	0	0	0	0	0	0	0	0	0	0	0	0	0	0	0	0	0	0	0	0	0	0
071519	14:38:35	14:47:22	526619	5.0.10.0	5_exp_noRW	50	Rpleas_acq	CS_B	BZZB	GWWG	VKKV	MQQM	YDDY	JXXJ	ehrlich	spielen	treu	schön	fair	retten	eitel	strafen	tot	schlecht	faul	rächen	47pct	acq_USunple_CSunple1_noRW	acq23456_noRW	3	76	0	0	300	300	465	46	0	1	1	blank2r.bmp	0	1	+	0	1	blank2r.bmp	252	1	VKKV	306	2	strafen	559	0	0	0	0	0	0	0	0	0	0	0	0	0	0	0	0	0	0	0	0	0	0	0	0	0	0	0	0	0	0	0	0	0	0	0	0	0	0	0
071519	14:38:35	14:47:24	528285	5.0.10.0	5_exp_noRW	50	Rpleas_acq	CS_B	BZZB	GWWG	VKKV	MQQM	YDDY	JXXJ	ehrlich	spielen	treu	schön	fair	retten	eitel	strafen	tot	schlecht	faul	rächen	47pct	acq_USunple_CSunple2_noRW	acq23456_noRW	3	77	0	0	300	300	496	46	0	1	1	blank2r.bmp	0	1	+	0	1	blank2r.bmp	252	1	MQQM	306	3	rächen	559	0	0	0	0	0	0	0	0	0	0	0	0	0	0	0	0	0	0	0	0	0	0	0	0	0	0	0	0	0	0	0	0	0	0	0	0	0	0	0
071519	14:38:35	14:47:26	530151	5.0.10.0	5_exp_noRW	50	Rpleas_acq	CS_B	BZZB	GWWG	VKKV	MQQM	YDDY	JXXJ	ehrlich	spielen	treu	schön	fair	retten	eitel	strafen	tot	schlecht	faul	rächen	47pct	acq_USpleas_CSunple2_noRW	acq23456_noRW	3	78	0	0	300	300	694	50	0	1	1	blank2r.bmp	0	1	+	0	1	blank2r.bmp	252	1	MQQM	306	3	retten	559	0	0	0	0	0	0	0	0	0	0	0	0	0	0	0	0	0	0	0	0	0	0	0	0	0	0	0	0	0	0	0	0	0	0	0	0	0	0	0
071519	14:38:35	14:47:27	532043	5.0.10.0	5_exp_noRW	50	Rpleas_acq	CS_B	BZZB	GWWG	VKKV	MQQM	YDDY	JXXJ	ehrlich	spielen	treu	schön	fair	retten	eitel	strafen	tot	schlecht	faul	rächen	47pct	acq_USpleas_CSpleas1_noRW	acq23456_noRW	3	79	0	0	300	300	727	50	0	1	1	blank2r.bmp	0	1	+	0	1	blank2r.bmp	252	1	BZZB	306	2	spielen	559	0	0	0	0	0	0	0	0	0	0	0	0	0	0	0	0	0	0	0	0	0	0	0	0	0	0	0	0	0	0	0	0	0	0	0	0	0	0	0
071519	14:38:35	14:47:29	533669	5.0.10.0	5_exp_noRW	50	Rpleas_acq	CS_B	BZZB	GWWG	VKKV	MQQM	YDDY	JXXJ	ehrlich	spielen	treu	schön	fair	retten	eitel	strafen	tot	schlecht	faul	rächen	53pct	acq_USpleas_CSpleas2_noRW	acq23456_noRW	3	80	0	0	300	300	444	50	0	1	1	blank2r.bmp	0	1	+	0	1	blank2r.bmp	252	1	GWWG	306	1	schön	559	0	0	0	0	0	0	0	0	0	0	0	0	0	0	0	0	0	0	0	0	0	0	0	0	0	0	0	0	0	0	0	0	0	0	0	0	0	0	0
071519	14:38:35	14:47:38	543079	5.0.10.0	5_exp_noRW	50	Rpleas_acq	CS_B	BZZB	GWWG	VKKV	MQQM	YDDY	JXXJ	ehrlich	spielen	treu	schön	fair	retten	eitel	strafen	tot	schlecht	faul	rächen	53pct	acq_USpleas_CSpleas2_noRW	acq23456_noRW	4	1	0	0	300	300	1375	50	0	1	1	blank2r.bmp	0	1	+	0	1	blank2r.bmp	252	1	GWWG	306	1	schön	559	0	0	0	0	0	0	0	0	0	0	0	0	0	0	0	0	0	0	0	0	0	0	0	0	0	0	0	0	0	0	0	0	0	0	0	0	0	0	0
071519	14:38:35	14:47:40	544758	5.0.10.0	5_exp_noRW	50	Rpleas_acq	CS_B	BZZB	GWWG	VKKV	MQQM	YDDY	JXXJ	ehrlich	spielen	treu	schön	fair	retten	eitel	strafen	tot	schlecht	faul	rächen	53pct	acq_USunple_CSunple1_noRW	acq23456_noRW	4	2	0	0	300	300	495	46	0	1	1	blank2r.bmp	0	1	+	0	1	blank2r.bmp	252	1	VKKV	306	2	strafen	559	0	0	0	0	0	0	0	0	0	0	0	0	0	0	0	0	0	0	0	0	0	0	0	0	0	0	0	0	0	0	0	0	0	0	0	0	0	0	0
071519	14:38:35	14:47:42	546664	5.0.10.0	5_exp_noRW	50	Rpleas_acq	CS_B	BZZB	GWWG	VKKV	MQQM	YDDY	JXXJ	ehrlich	spielen	treu	schön	fair	retten	eitel	strafen	tot	schlecht	faul	rächen	53pct	acq_USpleas_CSpleas2_noRW	acq23456_noRW	4	3	0	0	300	300	735	50	0	1	1	blank2r.bmp	0	1	+	0	1	blank2r.bmp	252	1	GWWG	306	3	retten	559	0	0	0	0	0	0	0	0	0	0	0	0	0	0	0	0	0	0	0	0	0	0	0	0	0	0	0	0	0	0	0	0	0	0	0	0	0	0	0
071519	14:38:35	14:47:44	548423	5.0.10.0	5_exp_noRW	50	Rpleas_acq	CS_B	BZZB	GWWG	VKKV	MQQM	YDDY	JXXJ	ehrlich	spielen	treu	schön	fair	retten	eitel	strafen	tot	schlecht	faul	rächen	47pct	acq_USunple_CSunple2_noRW	acq23456_noRW	4	4	0	0	300	300	587	46	0	1	1	blank2r.bmp	0	1	+	0	1	blank2r.bmp	252	1	MQQM	306	1	schlecht	559	0	0	0	0	0	0	0	0	0	0	0	0	0	0	0	0	0	0	0	0	0	0	0	0	0	0	0	0	0	0	0	0	0	0	0	0	0	0	0
071519	14:38:35	14:47:46	550116	5.0.10.0	5_exp_noRW	50	Rpleas_acq	CS_B	BZZB	GWWG	VKKV	MQQM	YDDY	JXXJ	ehrlich	spielen	treu	schön	fair	retten	eitel	strafen	tot	schlecht	faul	rächen	47pct	acq_USpleas_CSpleas1_noRW	acq23456_noRW	4	5	0	0	300	300	529	50	0	1	1	blank2r.bmp	0	1	+	0	1	blank2r.bmp	252	1	BZZB	306	2	spielen	559	0	0	0	0	0	0	0	0	0	0	0	0	0	0	0	0	0	0	0	0	0	0	0	0	0	0	0	0	0	0	0	0	0	0	0	0	0	0	0
071519	14:38:35	14:47:47	551835	5.0.10.0	5_exp_noRW	50	Rpleas_acq	CS_B	BZZB	GWWG	VKKV	MQQM	YDDY	JXXJ	ehrlich	spielen	treu	schön	fair	retten	eitel	strafen	tot	schlecht	faul	rächen	53pct	acq_USunple_CSpleas1_noRW	acq23456_noRW	4	6	0	0	300	300	536	46	0	1	1	blank2r.bmp	0	1	+	0	1	blank2r.bmp	252	1	BZZB	306	2	strafen	559	0	0	0	0	0	0	0	0	0	0	0	0	0	0	0	0	0	0	0	0	0	0	0	0	0	0	0	0	0	0	0	0	0	0	0	0	0	0	0
071519	14:38:35	14:47:49	553554	5.0.10.0	5_exp_noRW	50	Rpleas_acq	CS_B	BZZB	GWWG	VKKV	MQQM	YDDY	JXXJ	ehrlich	spielen	treu	schön	fair	retten	eitel	strafen	tot	schlecht	faul	rächen	53pct	acq_USpleas_CSpleas1_noRW	acq23456_noRW	4	7	0	0	300	300	553	50	0	1	1	blank2r.bmp	0	1	+	0	1	blank2r.bmp	252	1	BZZB	306	1	ehrlich	559	0	0	0	0	0	0	0	0	0	0	0	0	0	0	0	0	0	0	0	0	0	0	0	0	0	0	0	0	0	0	0	0	0	0	0	0	0	0	0
071519	14:38:35	14:47:51	555194	5.0.10.0	5_exp_noRW	50	Rpleas_acq	CS_B	BZZB	GWWG	VKKV	MQQM	YDDY	JXXJ	ehrlich	spielen	treu	schön	fair	retten	eitel	strafen	tot	schlecht	faul	rächen	53pct	acq_USunple_CSpleas2_noRW	acq23456_noRW	4	8	0	0	300	300	467	46	0	1	1	blank2r.bmp	0	1	+	0	1	blank2r.bmp	252	1	GWWG	306	2	faul	559	0	0	0	0	0	0	0	0	0	0	0	0	0	0	0	0	0	0	0	0	0	0	0	0	0	0	0	0	0	0	0	0	0	0	0	0	0	0	0
071519	14:38:35	14:47:52	556820	5.0.10.0	5_exp_noRW	50	Rpleas_acq	CS_B	BZZB	GWWG	VKKV	MQQM	YDDY	JXXJ	ehrlich	spielen	treu	schön	fair	retten	eitel	strafen	tot	schlecht	faul	rächen	47pct	acq_USpleas_CSpleas2_noRW	acq23456_noRW	4	9	0	0	300	300	460	50	0	1	1	blank2r.bmp	0	1	+	0	1	blank2r.bmp	252	1	GWWG	306	2	fair	559	0	0	0	0	0	0	0	0	0	0	0	0	0	0	0	0	0	0	0	0	0	0	0	0	0	0	0	0	0	0	0	0	0	0	0	0	0	0	0
