date	time	script.currenttime	script.elapsedtime	build	script.currentexpt	subject	expressions.LRpleas_acq	expressions.conditionCS_A	expressions.CSpleas_1	expressions.CSpleas_2	expressions.CSunple_1	expressions.CSunple_2	expressions.distractor_1	expressions.distractor_2	expressions.US_pleas1	expressions.US_pleas2	expressions.US_pleas3	expressions.US_pleas4	expressions.US_pleas5	expressions.US_pleas6	expressions.US_unple1	expressions.US_unple2	expressions.US_unple3	expressions.US_unple4	expressions.US_unple5	expressions.US_unple6	counter.positions_noRW	trialcode	blockcode	blocknum	trialnum	windowcenter	inwindow	pretrialpause	posttrialpause	latency	response	expressions.correctedscore	correct	stimulusnumber1	stimulusitem1	stimulusonset1	stimulusnumber2	stimulusitem2	stimulusonset2	stimulusnumber3	stimulusitem3	stimulusonset3	stimulusnumber4	stimulusitem4	stimulusonset4	stimulusnumber5	stimulusitem5	stimulusonset5	stimulusnumber6	stimulusitem6	stimulusonset6	stimulusnumber7	stimulusitem7	stimulusonset7	stimulusnumber8	stimulusitem8	stimulusonset8	stimulusnumber9	stimulusitem9	stimulusonset9	stimulusnumber10	stimulusitem10	stimulusonset10	stimulusnumber11	stimulusitem11	stimulusonset11	stimulusnumber12	stimulusitem12	stimulusonset12	stimulusnumber13	stimulusitem13	stimulusonset13	stimulusnumber14	stimulusitem14	stimulusonset14	stimulusnumber15	stimulusitem15	stimulusonset15	stimulusnumber16	stimulusitem16	stimulusonset16	stimulusnumber17	stimulusitem17	stimulusonset17	stimulusnumber18	stimulusitem18	stimulusonset18
071019	13:00:36	13:02:05	88310	5.0.10.0	5_exp_RW	41	Rpleas_acq	CS_A	YFFY	LWWL	ZHHZ	JQQJ	CPPC	DXXD	träumen	vertrauen	genießen	sonnig	küssen	gütig	töten	versagen	gemein	sterben	krank	gierig	1	acq_USpleas_CSpleas1_RW	acq1_RW	1	1	0	0	300	300	1744	50	0	1	1	blank2r.bmp	0	1	+	0	1	blank2r.bmp	492	1	YFFY	492	1	blank2r.bmp	572	3	genießen	866	0	0	0	0	0	0	0	0	0	0	0	0	0	0	0	0	0	0	0	0	0	0	0	0	0	0	0	0	0	0	0	0	0	0	0	0
071019	13:00:36	13:02:08	91176	5.0.10.0	5_exp_RW	41	Rpleas_acq	CS_A	YFFY	LWWL	ZHHZ	JQQJ	CPPC	DXXD	träumen	vertrauen	genießen	sonnig	küssen	gütig	töten	versagen	gemein	sterben	krank	gierig	1	acq_USunple_CSunple2_RW	acq1_RW	1	2	0	0	300	300	1387	46	0	1	1	blank2r.bmp	0	1	+	0	1	blank2r.bmp	492	1	JQQJ	492	1	blank2r.bmp	572	1	sterben	866	0	0	0	0	0	0	0	0	0	0	0	0	0	0	0	0	0	0	0	0	0	0	0	0	0	0	0	0	0	0	0	0	0	0	0	0
071019	13:00:36	13:02:11	93974	5.0.10.0	5_exp_RW	41	Rpleas_acq	CS_A	YFFY	LWWL	ZHHZ	JQQJ	CPPC	DXXD	träumen	vertrauen	genießen	sonnig	küssen	gütig	töten	versagen	gemein	sterben	krank	gierig	1	acq_USunple_CSunple1_RW	acq1_RW	1	3	0	0	300	300	1329	46	0	1	1	blank2r.bmp	0	1	+	0	1	blank2r.bmp	492	1	ZHHZ	492	1	blank2r.bmp	572	3	gemein	866	0	0	0	0	0	0	0	0	0	0	0	0	0	0	0	0	0	0	0	0	0	0	0	0	0	0	0	0	0	0	0	0	0	0	0	0
071019	13:00:36	13:02:13	96387	5.0.10.0	5_exp_RW	41	Rpleas_acq	CS_A	YFFY	LWWL	ZHHZ	JQQJ	CPPC	DXXD	träumen	vertrauen	genießen	sonnig	küssen	gütig	töten	versagen	gemein	sterben	krank	gierig	1	acq_USpleas_CSpleas2_RW	acq1_RW	1	4	0	0	300	300	919	50	0	1	1	blank2r.bmp	0	1	+	0	1	blank2r.bmp	492	1	LWWL	492	1	blank2r.bmp	572	3	gütig	866	0	0	0	0	0	0	0	0	0	0	0	0	0	0	0	0	0	0	0	0	0	0	0	0	0	0	0	0	0	0	0	0	0	0	0	0
071019	13:00:36	13:02:15	98399	5.0.10.0	5_exp_RW	41	Rpleas_acq	CS_A	YFFY	LWWL	ZHHZ	JQQJ	CPPC	DXXD	träumen	vertrauen	genießen	sonnig	küssen	gütig	töten	versagen	gemein	sterben	krank	gierig	1	acq_USpleas_CSpleas2_RW	acq1_RW	1	5	0	0	300	300	540	50	0	1	1	blank2r.bmp	0	1	+	0	1	blank2r.bmp	492	1	LWWL	492	1	blank2r.bmp	572	1	sonnig	866	0	0	0	0	0	0	0	0	0	0	0	0	0	0	0	0	0	0	0	0	0	0	0	0	0	0	0	0	0	0	0	0	0	0	0	0
071019	13:00:36	13:02:18	100678	5.0.10.0	5_exp_RW	41	Rpleas_acq	CS_A	YFFY	LWWL	ZHHZ	JQQJ	CPPC	DXXD	träumen	vertrauen	genießen	sonnig	küssen	gütig	töten	versagen	gemein	sterben	krank	gierig	1	acq_USunple_CSunple1_RW	acq1_RW	1	6	0	0	300	300	801	46	0	1	1	blank2r.bmp	0	1	+	0	1	blank2r.bmp	492	1	ZHHZ	492	1	blank2r.bmp	572	2	versagen	866	0	0	0	0	0	0	0	0	0	0	0	0	0	0	0	0	0	0	0	0	0	0	0	0	0	0	0	0	0	0	0	0	0	0	0	0
071019	13:00:36	13:02:20	102704	5.0.10.0	5_exp_RW	41	Rpleas_acq	CS_A	YFFY	LWWL	ZHHZ	JQQJ	CPPC	DXXD	träumen	vertrauen	genießen	sonnig	küssen	gütig	töten	versagen	gemein	sterben	krank	gierig	1	acq_USpleas_CSpleas2_RW	acq1_RW	1	7	0	0	300	300	547	50	0	1	1	blank2r.bmp	0	1	+	0	1	blank2r.bmp	492	1	LWWL	492	1	blank2r.bmp	572	2	küssen	866	0	0	0	0	0	0	0	0	0	0	0	0	0	0	0	0	0	0	0	0	0	0	0	0	0	0	0	0	0	0	0	0	0	0	0	0
071019	13:00:36	13:02:22	104743	5.0.10.0	5_exp_RW	41	Rpleas_acq	CS_A	YFFY	LWWL	ZHHZ	JQQJ	CPPC	DXXD	träumen	vertrauen	genießen	sonnig	küssen	gütig	töten	versagen	gemein	sterben	krank	gierig	1	acq_USpleas_CSpleas1_RW	acq1_RW	1	8	0	0	300	300	563	50	0	1	1	blank2r.bmp	0	1	+	0	1	blank2r.bmp	492	1	YFFY	492	1	blank2r.bmp	572	1	träumen	866	0	0	0	0	0	0	0	0	0	0	0	0	0	0	0	0	0	0	0	0	0	0	0	0	0	0	0	0	0	0	0	0	0	0	0	0
071019	13:00:36	13:02:24	106783	5.0.10.0	5_exp_RW	41	Rpleas_acq	CS_A	YFFY	LWWL	ZHHZ	JQQJ	CPPC	DXXD	träumen	vertrauen	genießen	sonnig	küssen	gütig	töten	versagen	gemein	sterben	krank	gierig	1	acq_USunple_CSunple1_RW	acq1_RW	1	9	0	0	300	300	552	46	0	1	1	blank2r.bmp	0	1	+	0	1	blank2r.bmp	492	1	ZHHZ	492	1	blank2r.bmp	572	1	töten	866	0	0	0	0	0	0	0	0	0	0	0	0	0	0	0	0	0	0	0	0	0	0	0	0	0	0	0	0	0	0	0	0	0	0	0	0
071019	13:00:36	13:02:26	108689	5.0.10.0	5_exp_RW	41	Rpleas_acq	CS_A	YFFY	LWWL	ZHHZ	JQQJ	CPPC	DXXD	träumen	vertrauen	genießen	sonnig	küssen	gütig	töten	versagen	gemein	sterben	krank	gierig	1	acq_USpleas_CSpleas2_RW	acq1_RW	1	10	0	0	300	300	422	50	0	1	1	blank2r.bmp	0	1	+	0	1	blank2r.bmp	492	1	LWWL	492	1	blank2r.bmp	572	2	küssen	866	0	0	0	0	0	0	0	0	0	0	0	0	0	0	0	0	0	0	0	0	0	0	0	0	0	0	0	0	0	0	0	0	0	0	0	0
071019	13:00:36	13:02:28	110688	5.0.10.0	5_exp_RW	41	Rpleas_acq	CS_A	YFFY	LWWL	ZHHZ	JQQJ	CPPC	DXXD	träumen	vertrauen	genießen	sonnig	küssen	gütig	töten	versagen	gemein	sterben	krank	gierig	1	acq_USunple_CSunple2_RW	acq1_RW	1	11	0	0	300	300	512	46	0	1	1	blank2r.bmp	0	1	+	0	1	blank2r.bmp	492	1	JQQJ	492	1	blank2r.bmp	572	2	krank	866	0	0	0	0	0	0	0	0	0	0	0	0	0	0	0	0	0	0	0	0	0	0	0	0	0	0	0	0	0	0	0	0	0	0	0	0
071019	13:00:36	13:02:30	113020	5.0.10.0	5_exp_RW	41	Rpleas_acq	CS_A	YFFY	LWWL	ZHHZ	JQQJ	CPPC	DXXD	träumen	vertrauen	genießen	sonnig	küssen	gütig	töten	versagen	gemein	sterben	krank	gierig	1	acq_USunple_CSunple2_RW	acq1_RW	1	12	0	0	300	300	844	46	0	1	1	blank2r.bmp	0	1	+	0	1	blank2r.bmp	492	1	JQQJ	492	1	blank2r.bmp	572	3	gierig	866	0	0	0	0	0	0	0	0	0	0	0	0	0	0	0	0	0	0	0	0	0	0	0	0	0	0	0	0	0	0	0	0	0	0	0	0
071019	13:00:36	13:02:32	115099	5.0.10.0	5_exp_RW	41	Rpleas_acq	CS_A	YFFY	LWWL	ZHHZ	JQQJ	CPPC	DXXD	träumen	vertrauen	genießen	sonnig	küssen	gütig	töten	versagen	gemein	sterben	krank	gierig	1	acq_USpleas_CSpleas1_RW	acq1_RW	1	13	0	0	300	300	605	50	0	1	1	blank2r.bmp	0	1	+	0	1	blank2r.bmp	492	1	YFFY	492	1	blank2r.bmp	572	2	vertrauen	866	0	0	0	0	0	0	0	0	0	0	0	0	0	0	0	0	0	0	0	0	0	0	0	0	0	0	0	0	0	0	0	0	0	0	0	0
071019	13:00:36	13:02:34	117152	5.0.10.0	5_exp_RW	41	Rpleas_acq	CS_A	YFFY	LWWL	ZHHZ	JQQJ	CPPC	DXXD	träumen	vertrauen	genießen	sonnig	küssen	gütig	töten	versagen	gemein	sterben	krank	gierig	1	acq_USunple_CSunple1_RW	acq1_RW	1	14	0	0	300	300	569	46	0	1	1	blank2r.bmp	0	1	+	0	1	blank2r.bmp	492	1	ZHHZ	492	1	blank2r.bmp	572	2	versagen	866	0	0	0	0	0	0	0	0	0	0	0	0	0	0	0	0	0	0	0	0	0	0	0	0	0	0	0	0	0	0	0	0	0	0	0	0
071019	13:00:36	13:02:36	119244	5.0.10.0	5_exp_RW	41	Rpleas_acq	CS_A	YFFY	LWWL	ZHHZ	JQQJ	CPPC	DXXD	träumen	vertrauen	genießen	sonnig	küssen	gütig	töten	versagen	gemein	sterben	krank	gierig	1	acq_USunple_CSunple2_RW	acq1_RW	1	15	0	0	300	300	605	46	0	1	1	blank2r.bmp	0	1	+	0	1	blank2r.bmp	492	1	JQQJ	492	1	blank2r.bmp	572	3	gierig	866	0	0	0	0	0	0	0	0	0	0	0	0	0	0	0	0	0	0	0	0	0	0	0	0	0	0	0	0	0	0	0	0	0	0	0	0
071019	13:00:36	13:02:38	121457	5.0.10.0	5_exp_RW	41	Rpleas_acq	CS_A	YFFY	LWWL	ZHHZ	JQQJ	CPPC	DXXD	träumen	vertrauen	genießen	sonnig	küssen	gütig	töten	versagen	gemein	sterben	krank	gierig	1	acq_USpleas_CSpleas1_RW	acq1_RW	1	16	0	0	300	300	741	50	0	1	1	blank2r.bmp	0	1	+	0	1	blank2r.bmp	492	1	YFFY	492	1	blank2r.bmp	572	2	vertrauen	866	0	0	0	0	0	0	0	0	0	0	0	0	0	0	0	0	0	0	0	0	0	0	0	0	0	0	0	0	0	0	0	0	0	0	0	0
071019	13:00:36	13:03:23	165692	5.0.10.0	5_exp_RW	41	Rpleas_acq	CS_A	YFFY	LWWL	ZHHZ	JQQJ	CPPC	DXXD	träumen	vertrauen	genießen	sonnig	küssen	gütig	töten	versagen	gemein	sterben	krank	gierig	1	acq_USunple_CSunple1_RW	acq2_RW	2	1	480	0	300	300	568	46	0	1	1	blank2r.bmp	0	1	+	0	1	blank2r.bmp	492	1	ZHHZ	492	1	blank2r.bmp	572	3	gemein	866	1	!	1319	1	!	-1	0	0	0	0	0	0	0	0	0	0	0	0	0	0	0	0	0	0	0	0	0	0	0	0	0	0	0	0	0	0
071019	13:00:36	13:03:25	167931	5.0.10.0	5_exp_RW	41	Rpleas_acq	CS_A	YFFY	LWWL	ZHHZ	JQQJ	CPPC	DXXD	träumen	vertrauen	genießen	sonnig	küssen	gütig	töten	versagen	gemein	sterben	krank	gierig	1	acq_USunple_CSunple1_RW	acq2_RW	2	2	480	1	300	300	426	46	0	1	1	blank2r.bmp	0	1	+	0	1	blank2r.bmp	492	1	ZHHZ	492	1	blank2r.bmp	572	1	töten	866	1	!	1319	1	!	1332	0	0	0	0	0	0	0	0	0	0	0	0	0	0	0	0	0	0	0	0	0	0	0	0	0	0	0	0	0	0
071019	13:00:36	13:03:27	170184	5.0.10.0	5_exp_RW	41	Rpleas_acq	CS_A	YFFY	LWWL	ZHHZ	JQQJ	CPPC	DXXD	träumen	vertrauen	genießen	sonnig	küssen	gütig	töten	versagen	gemein	sterben	krank	gierig	1	acq_USpleas_CSpleas1_RW	acq2_RW	2	3	480	1	300	300	455	50	0	1	1	blank2r.bmp	0	1	+	0	1	blank2r.bmp	492	1	YFFY	492	1	blank2r.bmp	572	1	träumen	866	1	!	1319	1	!	1359	0	0	0	0	0	0	0	0	0	0	0	0	0	0	0	0	0	0	0	0	0	0	0	0	0	0	0	0	0	0
071019	13:00:36	13:03:29	172303	5.0.10.0	5_exp_RW	41	Rpleas_acq	CS_A	YFFY	LWWL	ZHHZ	JQQJ	CPPC	DXXD	träumen	vertrauen	genießen	sonnig	küssen	gütig	töten	versagen	gemein	sterben	krank	gierig	1	acq_USpleas_CSpleas2_RW	acq2_RW	2	4	480	0	300	300	353	50	0	1	1	blank2r.bmp	0	1	+	0	1	blank2r.bmp	492	1	LWWL	492	1	blank2r.bmp	572	3	gütig	866	1	!	-1	1	!	-1	0	0	0	0	0	0	0	0	0	0	0	0	0	0	0	0	0	0	0	0	0	0	0	0	0	0	0	0	0	0
071019	13:00:36	13:03:31	174409	5.0.10.0	5_exp_RW	41	Rpleas_acq	CS_A	YFFY	LWWL	ZHHZ	JQQJ	CPPC	DXXD	träumen	vertrauen	genießen	sonnig	küssen	gütig	töten	versagen	gemein	sterben	krank	gierig	1	acq_USunple_CSunple1_RW	acq2_RW	2	5	480	0	300	300	326	46	0	1	1	blank2r.bmp	0	1	+	0	1	blank2r.bmp	492	1	ZHHZ	492	1	blank2r.bmp	572	3	gemein	866	1	!	-1	1	!	-1	0	0	0	0	0	0	0	0	0	0	0	0	0	0	0	0	0	0	0	0	0	0	0	0	0	0	0	0	0	0
071019	13:00:36	13:03:33	176594	5.0.10.0	5_exp_RW	41	Rpleas_acq	CS_A	YFFY	LWWL	ZHHZ	JQQJ	CPPC	DXXD	träumen	vertrauen	genießen	sonnig	küssen	gütig	töten	versagen	gemein	sterben	krank	gierig	1	acq_USunple_CSunple2_RW	acq2_RW	2	6	480	0	300	300	405	46	0	1	1	blank2r.bmp	0	1	+	0	1	blank2r.bmp	492	1	JQQJ	492	1	blank2r.bmp	572	1	sterben	866	1	!	-1	1	!	-1	0	0	0	0	0	0	0	0	0	0	0	0	0	0	0	0	0	0	0	0	0	0	0	0	0	0	0	0	0	0
071019	13:00:36	13:03:36	178927	5.0.10.0	5_exp_RW	41	Rpleas_acq	CS_A	YFFY	LWWL	ZHHZ	JQQJ	CPPC	DXXD	träumen	vertrauen	genießen	sonnig	küssen	gütig	töten	versagen	gemein	sterben	krank	gierig	1	acq_USunple_CSunple2_RW	acq2_RW	2	7	480	1	300	300	530	46	0	1	1	blank2r.bmp	0	1	+	0	1	blank2r.bmp	492	1	JQQJ	492	1	blank2r.bmp	572	2	krank	866	1	!	1319	1	!	1426	0	0	0	0	0	0	0	0	0	0	0	0	0	0	0	0	0	0	0	0	0	0	0	0	0	0	0	0	0	0
071019	13:00:36	13:03:38	181179	5.0.10.0	5_exp_RW	41	Rpleas_acq	CS_A	YFFY	LWWL	ZHHZ	JQQJ	CPPC	DXXD	träumen	vertrauen	genießen	sonnig	küssen	gütig	töten	versagen	gemein	sterben	krank	gierig	1	acq_USunple_CSunple1_RW	acq2_RW	2	8	480	1	300	300	465	46	0	1	1	blank2r.bmp	0	1	+	0	1	blank2r.bmp	492	1	ZHHZ	492	1	blank2r.bmp	572	2	versagen	866	1	!	1319	1	!	1359	0	0	0	0	0	0	0	0	0	0	0	0	0	0	0	0	0	0	0	0	0	0	0	0	0	0	0	0	0	0
071019	13:00:36	13:03:40	183578	5.0.10.0	5_exp_RW	41	Rpleas_acq	CS_A	YFFY	LWWL	ZHHZ	JQQJ	CPPC	DXXD	träumen	vertrauen	genießen	sonnig	küssen	gütig	töten	versagen	gemein	sterben	krank	gierig	1	acq_USpleas_CSpleas1_RW	acq2_RW	2	9	480	0	300	300	634	50	0	1	1	blank2r.bmp	0	1	+	0	1	blank2r.bmp	492	1	YFFY	492	1	blank2r.bmp	572	3	genießen	866	1	!	1319	1	!	-1	0	0	0	0	0	0	0	0	0	0	0	0	0	0	0	0	0	0	0	0	0	0	0	0	0	0	0	0	0	0
071019	13:00:36	13:03:43	186031	5.0.10.0	5_exp_RW	41	Rpleas_acq	CS_A	YFFY	LWWL	ZHHZ	JQQJ	CPPC	DXXD	träumen	vertrauen	genießen	sonnig	küssen	gütig	töten	versagen	gemein	sterben	krank	gierig	1	acq_USpleas_CSpleas1_RW	acq2_RW	2	10	480	1	300	300	426	46	0	0	1	blank2r.bmp	0	1	+	0	1	blank2r.bmp	492	1	YFFY	492	1	blank2r.bmp	572	2	vertrauen	866	1	FEHLER	1652	1	!	1319	1	!	1332	0	0	0	0	0	0	0	0	0	0	0	0	0	0	0	0	0	0	0	0	0	0	0	0	0	0	0
071019	13:00:36	13:03:45	187990	5.0.10.0	5_exp_RW	41	Rpleas_acq	CS_A	YFFY	LWWL	ZHHZ	JQQJ	CPPC	DXXD	träumen	vertrauen	genießen	sonnig	küssen	gütig	töten	versagen	gemein	sterben	krank	gierig	1	acq_USunple_CSunple2_RW	acq2_RW	2	11	480	0	300	300	387	46	0	1	1	blank2r.bmp	0	1	+	0	1	blank2r.bmp	492	1	JQQJ	492	1	blank2r.bmp	572	2	krank	866	1	!	-1	1	!	-1	0	0	0	0	0	0	0	0	0	0	0	0	0	0	0	0	0	0	0	0	0	0	0	0	0	0	0	0	0	0
071019	13:00:36	13:03:47	190455	5.0.10.0	5_exp_RW	41	Rpleas_acq	CS_A	YFFY	LWWL	ZHHZ	JQQJ	CPPC	DXXD	träumen	vertrauen	genießen	sonnig	küssen	gütig	töten	versagen	gemein	sterben	krank	gierig	1	acq_USunple_CSunple1_RW	acq2_RW	2	12	480	0	300	300	670	46	0	1	1	blank2r.bmp	0	1	+	0	1	blank2r.bmp	492	1	ZHHZ	492	1	blank2r.bmp	572	1	töten	866	1	!	1319	1	!	-1	0	0	0	0	0	0	0	0	0	0	0	0	0	0	0	0	0	0	0	0	0	0	0	0	0	0	0	0	0	0
071019	13:00:36	13:03:50	192628	5.0.10.0	5_exp_RW	41	Rpleas_acq	CS_A	YFFY	LWWL	ZHHZ	JQQJ	CPPC	DXXD	träumen	vertrauen	genießen	sonnig	küssen	gütig	töten	versagen	gemein	sterben	krank	gierig	1	acq_USpleas_CSpleas2_RW	acq2_RW	2	13	480	0	300	300	387	50	0	1	1	blank2r.bmp	0	1	+	0	1	blank2r.bmp	492	1	LWWL	492	1	blank2r.bmp	572	1	sonnig	866	1	!	-1	1	!	-1	0	0	0	0	0	0	0	0	0	0	0	0	0	0	0	0	0	0	0	0	0	0	0	0	0	0	0	0	0	0
071019	13:00:36	13:03:52	194814	5.0.10.0	5_exp_RW	41	Rpleas_acq	CS_A	YFFY	LWWL	ZHHZ	JQQJ	CPPC	DXXD	träumen	vertrauen	genießen	sonnig	küssen	gütig	töten	versagen	gemein	sterben	krank	gierig	1	acq_USunple_CSunple2_RW	acq2_RW	2	14	480	0	300	300	404	46	0	1	1	blank2r.bmp	0	1	+	0	1	blank2r.bmp	492	1	JQQJ	492	1	blank2r.bmp	572	1	sterben	866	1	!	-1	1	!	-1	0	0	0	0	0	0	0	0	0	0	0	0	0	0	0	0	0	0	0	0	0	0	0	0	0	0	0	0	0	0
071019	13:00:36	13:03:54	197159	5.0.10.0	5_exp_RW	41	Rpleas_acq	CS_A	YFFY	LWWL	ZHHZ	JQQJ	CPPC	DXXD	träumen	vertrauen	genießen	sonnig	küssen	gütig	töten	versagen	gemein	sterben	krank	gierig	1	acq_USpleas_CSpleas2_RW	acq2_RW	2	15	480	0	300	300	559	50	0	1	1	blank2r.bmp	0	1	+	0	1	blank2r.bmp	492	1	LWWL	492	1	blank2r.bmp	572	3	gütig	866	1	!	1319	1	!	-1	0	0	0	0	0	0	0	0	0	0	0	0	0	0	0	0	0	0	0	0	0	0	0	0	0	0	0	0	0	0
071019	13:00:36	13:03:56	199545	5.0.10.0	5_exp_RW	41	Rpleas_acq	CS_A	YFFY	LWWL	ZHHZ	JQQJ	CPPC	DXXD	träumen	vertrauen	genießen	sonnig	küssen	gütig	töten	versagen	gemein	sterben	krank	gierig	1	acq_USunple_CSunple1_RW	acq2_RW	2	16	480	0	300	300	373	50	0	0	1	blank2r.bmp	0	1	+	0	1	blank2r.bmp	492	1	ZHHZ	492	1	blank2r.bmp	572	1	töten	866	1	FEHLER	1586	1	!	-1	1	!	-1	0	0	0	0	0	0	0	0	0	0	0	0	0	0	0	0	0	0	0	0	0	0	0	0	0	0	0
071019	13:00:36	13:03:59	201731	5.0.10.0	5_exp_RW	41	Rpleas_acq	CS_A	YFFY	LWWL	ZHHZ	JQQJ	CPPC	DXXD	träumen	vertrauen	genießen	sonnig	küssen	gütig	töten	versagen	gemein	sterben	krank	gierig	1	acq_USunple_CSunple2_RW	acq2_RW	2	17	480	0	300	300	410	50	0	0	1	blank2r.bmp	0	1	+	0	1	blank2r.bmp	492	1	JQQJ	492	1	blank2r.bmp	572	3	gierig	866	1	FEHLER	1612	1	!	-1	1	!	-1	0	0	0	0	0	0	0	0	0	0	0	0	0	0	0	0	0	0	0	0	0	0	0	0	0	0	0
071019	13:00:36	13:04:01	203650	5.0.10.0	5_exp_RW	41	Rpleas_acq	CS_A	YFFY	LWWL	ZHHZ	JQQJ	CPPC	DXXD	träumen	vertrauen	genießen	sonnig	küssen	gütig	töten	versagen	gemein	sterben	krank	gierig	1	acq_USpleas_CSpleas1_RW	acq2_RW	2	18	480	0	300	300	370	50	0	1	1	blank2r.bmp	0	1	+	0	1	blank2r.bmp	492	1	YFFY	492	1	blank2r.bmp	572	1	träumen	866	1	!	-1	1	!	-1	0	0	0	0	0	0	0	0	0	0	0	0	0	0	0	0	0	0	0	0	0	0	0	0	0	0	0	0	0	0
071019	13:00:36	13:04:03	206009	5.0.10.0	5_exp_RW	41	Rpleas_acq	CS_A	YFFY	LWWL	ZHHZ	JQQJ	CPPC	DXXD	träumen	vertrauen	genießen	sonnig	küssen	gütig	töten	versagen	gemein	sterben	krank	gierig	1	acq_USpleas_CSpleas2_RW	acq2_RW	2	19	480	0	300	300	569	50	0	1	1	blank2r.bmp	0	1	+	0	1	blank2r.bmp	492	1	LWWL	492	1	blank2r.bmp	572	2	küssen	866	1	!	1319	1	!	-1	0	0	0	0	0	0	0	0	0	0	0	0	0	0	0	0	0	0	0	0	0	0	0	0	0	0	0	0	0	0
071019	13:00:36	13:04:05	208288	5.0.10.0	5_exp_RW	41	Rpleas_acq	CS_A	YFFY	LWWL	ZHHZ	JQQJ	CPPC	DXXD	träumen	vertrauen	genießen	sonnig	küssen	gütig	töten	versagen	gemein	sterben	krank	gierig	1	acq_USpleas_CSpleas2_RW	acq2_RW	2	20	480	0	300	300	271	46	0	0	1	blank2r.bmp	0	1	+	0	1	blank2r.bmp	492	1	LWWL	492	1	blank2r.bmp	572	1	sonnig	866	1	FEHLER	1479	1	!	-1	1	!	-1	0	0	0	0	0	0	0	0	0	0	0	0	0	0	0	0	0	0	0	0	0	0	0	0	0	0	0
071019	13:00:36	13:04:07	210207	5.0.10.0	5_exp_RW	41	Rpleas_acq	CS_A	YFFY	LWWL	ZHHZ	JQQJ	CPPC	DXXD	träumen	vertrauen	genießen	sonnig	küssen	gütig	töten	versagen	gemein	sterben	krank	gierig	1	acq_USpleas_CSpleas2_RW	acq2_RW	2	21	480	0	300	300	369	50	0	1	1	blank2r.bmp	0	1	+	0	1	blank2r.bmp	492	1	LWWL	492	1	blank2r.bmp	572	2	küssen	866	1	!	-1	1	!	-1	0	0	0	0	0	0	0	0	0	0	0	0	0	0	0	0	0	0	0	0	0	0	0	0	0	0	0	0	0	0
071019	13:00:36	13:04:09	212526	5.0.10.0	5_exp_RW	41	Rpleas_acq	CS_A	YFFY	LWWL	ZHHZ	JQQJ	CPPC	DXXD	träumen	vertrauen	genießen	sonnig	küssen	gütig	töten	versagen	gemein	sterben	krank	gierig	1	acq_USpleas_CSpleas1_RW	acq2_RW	2	22	480	1	300	300	515	50	0	1	1	blank2r.bmp	0	1	+	0	1	blank2r.bmp	492	1	YFFY	492	1	blank2r.bmp	572	3	genießen	866	1	!	1319	1	!	1412	0	0	0	0	0	0	0	0	0	0	0	0	0	0	0	0	0	0	0	0	0	0	0	0	0	0	0	0	0	0
071019	13:00:36	13:04:12	214859	5.0.10.0	5_exp_RW	41	Rpleas_acq	CS_A	YFFY	LWWL	ZHHZ	JQQJ	CPPC	DXXD	träumen	vertrauen	genießen	sonnig	küssen	gütig	töten	versagen	gemein	sterben	krank	gierig	1	acq_USpleas_CSpleas1_RW	acq2_RW	2	23	480	0	300	300	339	46	0	0	1	blank2r.bmp	0	1	+	0	1	blank2r.bmp	492	1	YFFY	492	1	blank2r.bmp	572	3	genießen	866	1	FEHLER	1546	1	!	-1	1	!	-1	0	0	0	0	0	0	0	0	0	0	0	0	0	0	0	0	0	0	0	0	0	0	0	0	0	0	0
071019	13:00:36	13:04:14	216831	5.0.10.0	5_exp_RW	41	Rpleas_acq	CS_A	YFFY	LWWL	ZHHZ	JQQJ	CPPC	DXXD	träumen	vertrauen	genießen	sonnig	küssen	gütig	töten	versagen	gemein	sterben	krank	gierig	1	acq_USunple_CSunple2_RW	acq2_RW	2	24	480	0	300	300	401	46	0	1	1	blank2r.bmp	0	1	+	0	1	blank2r.bmp	492	1	JQQJ	492	1	blank2r.bmp	572	1	sterben	866	1	!	-1	1	!	-1	0	0	0	0	0	0	0	0	0	0	0	0	0	0	0	0	0	0	0	0	0	0	0	0	0	0	0	0	0	0
071019	13:00:36	13:04:33	235930	5.0.10.0	5_exp_RW	41	Rpleas_acq	CS_A	YFFY	LWWL	ZHHZ	JQQJ	CPPC	DXXD	träumen	vertrauen	genießen	sonnig	küssen	gütig	töten	versagen	gemein	sterben	krank	gierig	1	acq_USunple_CSunple1_RW	acq3_RW	3	1	453	0	300	300	330	46	0	1	1	blank2r.bmp	0	1	+	0	1	blank2r.bmp	492	1	ZHHZ	492	1	blank2r.bmp	572	2	versagen	866	1	!	-1	1	!	-1	0	0	0	0	0	0	0	0	0	0	0	0	0	0	0	0	0	0	0	0	0	0	0	0	0	0	0	0	0	0
071019	13:00:36	13:04:35	238009	5.0.10.0	5_exp_RW	41	Rpleas_acq	CS_A	YFFY	LWWL	ZHHZ	JQQJ	CPPC	DXXD	träumen	vertrauen	genießen	sonnig	küssen	gütig	töten	versagen	gemein	sterben	krank	gierig	1	acq_USpleas_CSpleas1_RW	acq3_RW	3	2	453	0	300	300	295	50	0	1	1	blank2r.bmp	0	1	+	0	1	blank2r.bmp	492	1	YFFY	492	1	blank2r.bmp	572	1	träumen	866	1	!	-1	1	!	-1	0	0	0	0	0	0	0	0	0	0	0	0	0	0	0	0	0	0	0	0	0	0	0	0	0	0	0	0	0	0
071019	13:00:36	13:04:37	240169	5.0.10.0	5_exp_RW	41	Rpleas_acq	CS_A	YFFY	LWWL	ZHHZ	JQQJ	CPPC	DXXD	träumen	vertrauen	genießen	sonnig	küssen	gütig	töten	versagen	gemein	sterben	krank	gierig	1	acq_USpleas_CSpleas1_RW	acq3_RW	3	3	453	0	300	300	384	50	0	1	1	blank2r.bmp	0	1	+	0	1	blank2r.bmp	492	1	YFFY	492	1	blank2r.bmp	572	2	vertrauen	866	1	!	-1	1	!	-1	0	0	0	0	0	0	0	0	0	0	0	0	0	0	0	0	0	0	0	0	0	0	0	0	0	0	0	0	0	0
071019	13:00:36	13:04:39	242488	5.0.10.0	5_exp_RW	41	Rpleas_acq	CS_A	YFFY	LWWL	ZHHZ	JQQJ	CPPC	DXXD	träumen	vertrauen	genießen	sonnig	küssen	gütig	töten	versagen	gemein	sterben	krank	gierig	1	acq_USunple_CSunple1_RW	acq3_RW	3	4	453	0	300	300	532	46	0	1	1	blank2r.bmp	0	1	+	0	1	blank2r.bmp	492	1	ZHHZ	492	1	blank2r.bmp	572	3	gemein	866	1	!	1292	1	!	-1	0	0	0	0	0	0	0	0	0	0	0	0	0	0	0	0	0	0	0	0	0	0	0	0	0	0	0	0	0	0
071019	13:00:36	13:04:42	244713	5.0.10.0	5_exp_RW	41	Rpleas_acq	CS_A	YFFY	LWWL	ZHHZ	JQQJ	CPPC	DXXD	träumen	vertrauen	genießen	sonnig	küssen	gütig	töten	versagen	gemein	sterben	krank	gierig	1	acq_USunple_CSunple2_RW	acq3_RW	3	5	453	1	300	300	417	46	0	1	1	blank2r.bmp	0	1	+	0	1	blank2r.bmp	492	1	JQQJ	492	1	blank2r.bmp	572	3	gierig	866	1	!	1292	1	!	1319	0	0	0	0	0	0	0	0	0	0	0	0	0	0	0	0	0	0	0	0	0	0	0	0	0	0	0	0	0	0
071019	13:00:36	13:04:44	247072	5.0.10.0	5_exp_RW	41	Rpleas_acq	CS_A	YFFY	LWWL	ZHHZ	JQQJ	CPPC	DXXD	träumen	vertrauen	genießen	sonnig	küssen	gütig	töten	versagen	gemein	sterben	krank	gierig	1	acq_USunple_CSunple1_RW	acq3_RW	3	6	453	0	300	300	373	50	0	0	1	blank2r.bmp	0	1	+	0	1	blank2r.bmp	492	1	ZHHZ	492	1	blank2r.bmp	572	3	gemein	866	1	FEHLER	1586	1	!	-1	1	!	-1	0	0	0	0	0	0	0	0	0	0	0	0	0	0	0	0	0	0	0	0	0	0	0	0	0	0	0
071019	13:00:36	13:04:46	249325	5.0.10.0	5_exp_RW	41	Rpleas_acq	CS_A	YFFY	LWWL	ZHHZ	JQQJ	CPPC	DXXD	träumen	vertrauen	genießen	sonnig	küssen	gütig	töten	versagen	gemein	sterben	krank	gierig	1	acq_USunple_CSunple2_RW	acq3_RW	3	7	453	1	300	300	448	50	0	0	1	blank2r.bmp	0	1	+	0	1	blank2r.bmp	492	1	JQQJ	492	1	blank2r.bmp	572	2	krank	866	1	FEHLER	1665	1	!	1292	1	!	1346	0	0	0	0	0	0	0	0	0	0	0	0	0	0	0	0	0	0	0	0	0	0	0	0	0	0	0
071019	13:00:36	13:04:48	251417	5.0.10.0	5_exp_RW	41	Rpleas_acq	CS_A	YFFY	LWWL	ZHHZ	JQQJ	CPPC	DXXD	träumen	vertrauen	genießen	sonnig	küssen	gütig	töten	versagen	gemein	sterben	krank	gierig	1	acq_USpleas_CSpleas2_RW	acq3_RW	3	8	453	0	300	300	312	46	0	0	1	blank2r.bmp	0	1	+	0	1	blank2r.bmp	492	1	LWWL	492	1	blank2r.bmp	572	1	sonnig	866	1	FEHLER	1519	1	!	-1	1	!	-1	0	0	0	0	0	0	0	0	0	0	0	0	0	0	0	0	0	0	0	0	0	0	0	0	0	0	0
071019	13:00:36	13:04:50	253483	5.0.10.0	5_exp_RW	41	Rpleas_acq	CS_A	YFFY	LWWL	ZHHZ	JQQJ	CPPC	DXXD	träumen	vertrauen	genießen	sonnig	küssen	gütig	töten	versagen	gemein	sterben	krank	gierig	1	acq_USpleas_CSpleas1_RW	acq3_RW	3	9	453	1	300	300	482	50	0	1	1	blank2r.bmp	0	1	+	0	1	blank2r.bmp	492	1	YFFY	492	1	blank2r.bmp	572	2	vertrauen	866	1	!	1292	1	!	1386	0	0	0	0	0	0	0	0	0	0	0	0	0	0	0	0	0	0	0	0	0	0	0	0	0	0	0	0	0	0
071019	13:00:36	13:04:53	255736	5.0.10.0	5_exp_RW	41	Rpleas_acq	CS_A	YFFY	LWWL	ZHHZ	JQQJ	CPPC	DXXD	träumen	vertrauen	genießen	sonnig	küssen	gütig	töten	versagen	gemein	sterben	krank	gierig	1	acq_USpleas_CSpleas2_RW	acq3_RW	3	10	453	0	300	300	263	46	0	0	1	blank2r.bmp	0	1	+	0	1	blank2r.bmp	492	1	LWWL	492	1	blank2r.bmp	572	3	gütig	866	1	FEHLER	1466	1	!	-1	1	!	-1	0	0	0	0	0	0	0	0	0	0	0	0	0	0	0	0	0	0	0	0	0	0	0	0	0	0	0
071019	13:00:36	13:04:55	257721	5.0.10.0	5_exp_RW	41	Rpleas_acq	CS_A	YFFY	LWWL	ZHHZ	JQQJ	CPPC	DXXD	träumen	vertrauen	genießen	sonnig	küssen	gütig	töten	versagen	gemein	sterben	krank	gierig	1	acq_USpleas_CSpleas2_RW	acq3_RW	3	11	453	1	300	300	399	50	0	1	1	blank2r.bmp	0	1	+	0	1	blank2r.bmp	492	1	LWWL	492	1	blank2r.bmp	572	3	gütig	866	1	!	1292	1	!	1306	0	0	0	0	0	0	0	0	0	0	0	0	0	0	0	0	0	0	0	0	0	0	0	0	0	0	0	0	0	0
071019	13:00:36	13:04:57	259827	5.0.10.0	5_exp_RW	41	Rpleas_acq	CS_A	YFFY	LWWL	ZHHZ	JQQJ	CPPC	DXXD	träumen	vertrauen	genießen	sonnig	küssen	gütig	töten	versagen	gemein	sterben	krank	gierig	1	acq_USpleas_CSpleas2_RW	acq3_RW	3	12	453	0	300	300	336	50	0	1	1	blank2r.bmp	0	1	+	0	1	blank2r.bmp	492	1	LWWL	492	1	blank2r.bmp	572	2	küssen	866	1	!	-1	1	!	-1	0	0	0	0	0	0	0	0	0	0	0	0	0	0	0	0	0	0	0	0	0	0	0	0	0	0	0	0	0	0
071019	13:00:36	13:04:59	262080	5.0.10.0	5_exp_RW	41	Rpleas_acq	CS_A	YFFY	LWWL	ZHHZ	JQQJ	CPPC	DXXD	träumen	vertrauen	genießen	sonnig	küssen	gütig	töten	versagen	gemein	sterben	krank	gierig	1	acq_USunple_CSunple2_RW	acq3_RW	3	13	453	1	300	300	446	46	0	1	1	blank2r.bmp	0	1	+	0	1	blank2r.bmp	492	1	JQQJ	492	1	blank2r.bmp	572	3	gierig	866	1	!	1292	1	!	1346	0	0	0	0	0	0	0	0	0	0	0	0	0	0	0	0	0	0	0	0	0	0	0	0	0	0	0	0	0	0
071019	13:00:36	13:05:01	264399	5.0.10.0	5_exp_RW	41	Rpleas_acq	CS_A	YFFY	LWWL	ZHHZ	JQQJ	CPPC	DXXD	träumen	vertrauen	genießen	sonnig	küssen	gütig	töten	versagen	gemein	sterben	krank	gierig	1	acq_USpleas_CSpleas2_RW	acq3_RW	3	14	453	0	300	300	330	46	0	0	1	blank2r.bmp	0	1	+	0	1	blank2r.bmp	492	1	LWWL	492	1	blank2r.bmp	572	1	sonnig	866	1	FEHLER	1532	1	!	-1	1	!	-1	0	0	0	0	0	0	0	0	0	0	0	0	0	0	0	0	0	0	0	0	0	0	0	0	0	0	0
071019	13:00:36	13:05:03	266398	5.0.10.0	5_exp_RW	41	Rpleas_acq	CS_A	YFFY	LWWL	ZHHZ	JQQJ	CPPC	DXXD	träumen	vertrauen	genießen	sonnig	küssen	gütig	töten	versagen	gemein	sterben	krank	gierig	1	acq_USunple_CSunple2_RW	acq3_RW	3	15	453	1	300	300	414	46	0	1	1	blank2r.bmp	0	1	+	0	1	blank2r.bmp	492	1	JQQJ	492	1	blank2r.bmp	572	1	sterben	866	1	!	1292	1	!	1319	0	0	0	0	0	0	0	0	0	0	0	0	0	0	0	0	0	0	0	0	0	0	0	0	0	0	0	0	0	0
071019	13:00:36	13:05:06	268730	5.0.10.0	5_exp_RW	41	Rpleas_acq	CS_A	YFFY	LWWL	ZHHZ	JQQJ	CPPC	DXXD	träumen	vertrauen	genießen	sonnig	küssen	gütig	töten	versagen	gemein	sterben	krank	gierig	1	acq_USpleas_CSpleas1_RW	acq3_RW	3	16	453	0	300	300	344	46	0	0	1	blank2r.bmp	0	1	+	0	1	blank2r.bmp	492	1	YFFY	492	1	blank2r.bmp	572	3	genießen	866	1	FEHLER	1546	1	!	-1	1	!	-1	0	0	0	0	0	0	0	0	0	0	0	0	0	0	0	0	0	0	0	0	0	0	0	0	0	0	0
071019	13:00:36	13:05:08	270770	5.0.10.0	5_exp_RW	41	Rpleas_acq	CS_A	YFFY	LWWL	ZHHZ	JQQJ	CPPC	DXXD	träumen	vertrauen	genießen	sonnig	küssen	gütig	töten	versagen	gemein	sterben	krank	gierig	1	acq_USunple_CSunple2_RW	acq3_RW	3	17	453	1	300	300	458	46	0	1	1	blank2r.bmp	0	1	+	0	1	blank2r.bmp	492	1	JQQJ	492	1	blank2r.bmp	572	2	krank	866	1	!	1292	1	!	1359	0	0	0	0	0	0	0	0	0	0	0	0	0	0	0	0	0	0	0	0	0	0	0	0	0	0	0	0	0	0
071019	13:00:36	13:05:10	273035	5.0.10.0	5_exp_RW	41	Rpleas_acq	CS_A	YFFY	LWWL	ZHHZ	JQQJ	CPPC	DXXD	träumen	vertrauen	genießen	sonnig	küssen	gütig	töten	versagen	gemein	sterben	krank	gierig	1	acq_USunple_CSunple2_RW	acq3_RW	3	18	453	0	300	300	269	50	0	0	1	blank2r.bmp	0	1	+	0	1	blank2r.bmp	492	1	JQQJ	492	1	blank2r.bmp	572	3	gierig	866	1	FEHLER	1479	1	!	-1	1	!	-1	0	0	0	0	0	0	0	0	0	0	0	0	0	0	0	0	0	0	0	0	0	0	0	0	0	0	0
071019	13:00:36	13:05:12	275034	5.0.10.0	5_exp_RW	41	Rpleas_acq	CS_A	YFFY	LWWL	ZHHZ	JQQJ	CPPC	DXXD	träumen	vertrauen	genießen	sonnig	küssen	gütig	töten	versagen	gemein	sterben	krank	gierig	1	acq_USpleas_CSpleas1_RW	acq3_RW	3	19	453	1	300	300	421	50	0	1	1	blank2r.bmp	0	1	+	0	1	blank2r.bmp	492	1	YFFY	492	1	blank2r.bmp	572	1	träumen	866	1	!	1292	1	!	1319	0	0	0	0	0	0	0	0	0	0	0	0	0	0	0	0	0	0	0	0	0	0	0	0	0	0	0	0	0	0
071019	13:00:36	13:05:14	277114	5.0.10.0	5_exp_RW	41	Rpleas_acq	CS_A	YFFY	LWWL	ZHHZ	JQQJ	CPPC	DXXD	träumen	vertrauen	genießen	sonnig	küssen	gütig	töten	versagen	gemein	sterben	krank	gierig	1	acq_USpleas_CSpleas2_RW	acq3_RW	3	20	453	0	300	300	294	50	0	1	1	blank2r.bmp	0	1	+	0	1	blank2r.bmp	492	1	LWWL	492	1	blank2r.bmp	572	3	gütig	866	1	!	-1	1	!	-1	0	0	0	0	0	0	0	0	0	0	0	0	0	0	0	0	0	0	0	0	0	0	0	0	0	0	0	0	0	0
071019	13:00:36	13:05:16	279379	5.0.10.0	5_exp_RW	41	Rpleas_acq	CS_A	YFFY	LWWL	ZHHZ	JQQJ	CPPC	DXXD	träumen	vertrauen	genießen	sonnig	küssen	gütig	töten	versagen	gemein	sterben	krank	gierig	1	acq_USpleas_CSpleas1_RW	acq3_RW	3	21	453	1	300	300	455	50	0	1	1	blank2r.bmp	0	1	+	0	1	blank2r.bmp	492	1	YFFY	492	1	blank2r.bmp	572	2	vertrauen	866	1	!	1292	1	!	1359	0	0	0	0	0	0	0	0	0	0	0	0	0	0	0	0	0	0	0	0	0	0	0	0	0	0	0	0	0	0
071019	13:00:36	13:05:19	281632	5.0.10.0	5_exp_RW	41	Rpleas_acq	CS_A	YFFY	LWWL	ZHHZ	JQQJ	CPPC	DXXD	träumen	vertrauen	genießen	sonnig	küssen	gütig	töten	versagen	gemein	sterben	krank	gierig	1	acq_USunple_CSunple1_RW	acq3_RW	3	22	453	1	300	300	458	46	0	1	1	blank2r.bmp	0	1	+	0	1	blank2r.bmp	492	1	ZHHZ	492	1	blank2r.bmp	572	2	versagen	866	1	!	1292	1	!	1359	0	0	0	0	0	0	0	0	0	0	0	0	0	0	0	0	0	0	0	0	0	0	0	0	0	0	0	0	0	0
071019	13:00:36	13:05:21	283711	5.0.10.0	5_exp_RW	41	Rpleas_acq	CS_A	YFFY	LWWL	ZHHZ	JQQJ	CPPC	DXXD	träumen	vertrauen	genießen	sonnig	küssen	gütig	töten	versagen	gemein	sterben	krank	gierig	1	acq_USunple_CSunple1_RW	acq3_RW	3	23	453	0	300	300	294	46	0	1	1	blank2r.bmp	0	1	+	0	1	blank2r.bmp	492	1	ZHHZ	492	1	blank2r.bmp	572	1	töten	866	1	!	-1	1	!	-1	0	0	0	0	0	0	0	0	0	0	0	0	0	0	0	0	0	0	0	0	0	0	0	0	0	0	0	0	0	0
071019	13:00:36	13:05:23	285950	5.0.10.0	5_exp_RW	41	Rpleas_acq	CS_A	YFFY	LWWL	ZHHZ	JQQJ	CPPC	DXXD	träumen	vertrauen	genießen	sonnig	küssen	gütig	töten	versagen	gemein	sterben	krank	gierig	1	acq_USunple_CSunple1_RW	acq3_RW	3	24	453	0	300	300	232	50	0	0	1	blank2r.bmp	0	1	+	0	1	blank2r.bmp	492	1	ZHHZ	492	1	blank2r.bmp	572	3	gemein	866	1	FEHLER	1439	1	!	-1	1	!	-1	0	0	0	0	0	0	0	0	0	0	0	0	0	0	0	0	0	0	0	0	0	0	0	0	0	0	0
071019	13:00:36	13:05:38	301450	5.0.10.0	5_exp_RW	41	Rpleas_acq	CS_A	YFFY	LWWL	ZHHZ	JQQJ	CPPC	DXXD	träumen	vertrauen	genießen	sonnig	küssen	gütig	töten	versagen	gemein	sterben	krank	gierig	1	acq_USpleas_CSpleas2_RW	acq4567_RW	4	1	400	1	300	300	448	50	0	1	1	blank2r.bmp	0	1	+	0	1	blank2r.bmp	492	1	LWWL	492	1	blank2r.bmp	572	1	sonnig	866	1	!	1239	1	!	1346	0	0	0	0	0	0	0	0	0	0	0	0	0	0	0	0	0	0	0	0	0	0	0	0	0	0	0	0	0	0
071019	13:00:36	13:05:41	303596	5.0.10.0	5_exp_RW	41	Rpleas_acq	CS_A	YFFY	LWWL	ZHHZ	JQQJ	CPPC	DXXD	träumen	vertrauen	genießen	sonnig	küssen	gütig	töten	versagen	gemein	sterben	krank	gierig	1	acq_USpleas_CSpleas2_RW	acq4567_RW	4	2	400	1	300	300	353	50	0	1	1	blank2r.bmp	0	1	+	0	1	blank2r.bmp	492	1	LWWL	492	1	blank2r.bmp	572	2	küssen	866	1	!	1239	1	!	1252	0	0	0	0	0	0	0	0	0	0	0	0	0	0	0	0	0	0	0	0	0	0	0	0	0	0	0	0	0	0
071019	13:00:36	13:05:43	305662	5.0.10.0	5_exp_RW	41	Rpleas_acq	CS_A	YFFY	LWWL	ZHHZ	JQQJ	CPPC	DXXD	träumen	vertrauen	genießen	sonnig	küssen	gütig	töten	versagen	gemein	sterben	krank	gierig	1	acq_USunple_CSunple1_RW	acq4567_RW	4	3	400	0	300	300	279	46	0	1	1	blank2r.bmp	0	1	+	0	1	blank2r.bmp	492	1	ZHHZ	492	1	blank2r.bmp	572	1	töten	866	1	!	-1	1	!	-1	0	0	0	0	0	0	0	0	0	0	0	0	0	0	0	0	0	0	0	0	0	0	0	0	0	0	0	0	0	0
071019	13:00:36	13:05:45	307701	5.0.10.0	5_exp_RW	41	Rpleas_acq	CS_A	YFFY	LWWL	ZHHZ	JQQJ	CPPC	DXXD	träumen	vertrauen	genießen	sonnig	küssen	gütig	töten	versagen	gemein	sterben	krank	gierig	1	acq_USpleas_CSpleas2_RW	acq4567_RW	4	4	400	0	300	300	252	50	0	1	1	blank2r.bmp	0	1	+	0	1	blank2r.bmp	492	1	LWWL	492	1	blank2r.bmp	572	3	gütig	866	1	!	-1	1	!	-1	0	0	0	0	0	0	0	0	0	0	0	0	0	0	0	0	0	0	0	0	0	0	0	0	0	0	0	0	0	0
071019	13:00:36	13:05:47	309914	5.0.10.0	5_exp_RW	41	Rpleas_acq	CS_A	YFFY	LWWL	ZHHZ	JQQJ	CPPC	DXXD	träumen	vertrauen	genießen	sonnig	küssen	gütig	töten	versagen	gemein	sterben	krank	gierig	1	acq_USpleas_CSpleas1_RW	acq4567_RW	4	5	400	1	300	300	393	50	0	1	1	blank2r.bmp	0	1	+	0	1	blank2r.bmp	492	1	YFFY	492	1	blank2r.bmp	572	3	genießen	866	1	!	1239	1	!	1292	0	0	0	0	0	0	0	0	0	0	0	0	0	0	0	0	0	0	0	0	0	0	0	0	0	0	0	0	0	0
071019	13:00:36	13:05:49	312059	5.0.10.0	5_exp_RW	41	Rpleas_acq	CS_A	YFFY	LWWL	ZHHZ	JQQJ	CPPC	DXXD	träumen	vertrauen	genießen	sonnig	küssen	gütig	töten	versagen	gemein	sterben	krank	gierig	1	acq_USunple_CSunple2_RW	acq4567_RW	4	6	400	1	300	300	346	46	0	1	1	blank2r.bmp	0	1	+	0	1	blank2r.bmp	492	1	JQQJ	492	1	blank2r.bmp	572	2	krank	866	1	!	1239	1	!	1252	0	0	0	0	0	0	0	0	0	0	0	0	0	0	0	0	0	0	0	0	0	0	0	0	0	0	0	0	0	0
071019	13:00:36	13:05:51	314219	5.0.10.0	5_exp_RW	41	Rpleas_acq	CS_A	YFFY	LWWL	ZHHZ	JQQJ	CPPC	DXXD	träumen	vertrauen	genießen	sonnig	küssen	gütig	töten	versagen	gemein	sterben	krank	gierig	1	acq_USunple_CSunple2_RW	acq4567_RW	4	7	400	1	300	300	359	46	0	1	1	blank2r.bmp	0	1	+	0	1	blank2r.bmp	492	1	JQQJ	492	1	blank2r.bmp	572	1	sterben	866	1	!	1239	1	!	1266	0	0	0	0	0	0	0	0	0	0	0	0	0	0	0	0	0	0	0	0	0	0	0	0	0	0	0	0	0	0
071019	13:00:36	13:05:53	316458	5.0.10.0	5_exp_RW	41	Rpleas_acq	CS_A	YFFY	LWWL	ZHHZ	JQQJ	CPPC	DXXD	träumen	vertrauen	genießen	sonnig	küssen	gütig	töten	versagen	gemein	sterben	krank	gierig	1	acq_USpleas_CSpleas1_RW	acq4567_RW	4	8	400	1	300	300	446	50	0	1	1	blank2r.bmp	0	1	+	0	1	blank2r.bmp	492	1	YFFY	492	1	blank2r.bmp	572	1	träumen	866	1	!	1239	1	!	1346	0	0	0	0	0	0	0	0	0	0	0	0	0	0	0	0	0	0	0	0	0	0	0	0	0	0	0	0	0	0
071019	13:00:36	13:05:55	318510	5.0.10.0	5_exp_RW	41	Rpleas_acq	CS_A	YFFY	LWWL	ZHHZ	JQQJ	CPPC	DXXD	träumen	vertrauen	genießen	sonnig	küssen	gütig	töten	versagen	gemein	sterben	krank	gierig	1	acq_USunple_CSunple1_RW	acq4567_RW	4	9	400	0	300	300	286	46	0	1	1	blank2r.bmp	0	1	+	0	1	blank2r.bmp	492	1	ZHHZ	492	1	blank2r.bmp	572	2	versagen	866	1	!	-1	1	!	-1	0	0	0	0	0	0	0	0	0	0	0	0	0	0	0	0	0	0	0	0	0	0	0	0	0	0	0	0	0	0
071019	13:00:36	13:05:58	320603	5.0.10.0	5_exp_RW	41	Rpleas_acq	CS_A	YFFY	LWWL	ZHHZ	JQQJ	CPPC	DXXD	träumen	vertrauen	genießen	sonnig	küssen	gütig	töten	versagen	gemein	sterben	krank	gierig	1	acq_USunple_CSunple2_RW	acq4567_RW	4	10	400	0	300	300	314	46	0	1	1	blank2r.bmp	0	1	+	0	1	blank2r.bmp	492	1	JQQJ	492	1	blank2r.bmp	572	2	krank	866	1	!	-1	1	!	-1	0	0	0	0	0	0	0	0	0	0	0	0	0	0	0	0	0	0	0	0	0	0	0	0	0	0	0	0	0	0
071019	13:00:36	13:06:00	322669	5.0.10.0	5_exp_RW	41	Rpleas_acq	CS_A	YFFY	LWWL	ZHHZ	JQQJ	CPPC	DXXD	träumen	vertrauen	genießen	sonnig	küssen	gütig	töten	versagen	gemein	sterben	krank	gierig	1	acq_USpleas_CSpleas2_RW	acq4567_RW	4	11	400	0	300	300	268	46	0	0	1	blank2r.bmp	0	1	+	0	1	blank2r.bmp	492	1	LWWL	492	1	blank2r.bmp	572	2	küssen	866	1	!	-1	1	!	-1	0	0	0	0	0	0	0	0	0	0	0	0	0	0	0	0	0	0	0	0	0	0	0	0	0	0	0	0	0	0
071019	13:00:36	13:06:02	324761	5.0.10.0	5_exp_RW	41	Rpleas_acq	CS_A	YFFY	LWWL	ZHHZ	JQQJ	CPPC	DXXD	träumen	vertrauen	genießen	sonnig	küssen	gütig	töten	versagen	gemein	sterben	krank	gierig	1	acq_USunple_CSunple1_RW	acq4567_RW	4	12	400	0	300	300	309	46	0	1	1	blank2r.bmp	0	1	+	0	1	blank2r.bmp	492	1	ZHHZ	492	1	blank2r.bmp	572	1	töten	866	1	!	-1	1	!	-1	0	0	0	0	0	0	0	0	0	0	0	0	0	0	0	0	0	0	0	0	0	0	0	0	0	0	0	0	0	0
071019	13:00:36	13:06:04	327013	5.0.10.0	5_exp_RW	41	Rpleas_acq	CS_A	YFFY	LWWL	ZHHZ	JQQJ	CPPC	DXXD	träumen	vertrauen	genießen	sonnig	küssen	gütig	töten	versagen	gemein	sterben	krank	gierig	1	acq_USunple_CSunple1_RW	acq4567_RW	4	13	400	1	300	300	443	46	0	1	1	blank2r.bmp	0	1	+	0	1	blank2r.bmp	492	1	ZHHZ	492	1	blank2r.bmp	572	3	gemein	866	1	!	1239	1	!	1346	0	0	0	0	0	0	0	0	0	0	0	0	0	0	0	0	0	0	0	0	0	0	0	0	0	0	0	0	0	0
071019	13:00:36	13:06:06	329079	5.0.10.0	5_exp_RW	41	Rpleas_acq	CS_A	YFFY	LWWL	ZHHZ	JQQJ	CPPC	DXXD	träumen	vertrauen	genießen	sonnig	küssen	gütig	töten	versagen	gemein	sterben	krank	gierig	1	acq_USpleas_CSpleas1_RW	acq4567_RW	4	14	400	0	300	300	288	50	0	1	1	blank2r.bmp	0	1	+	0	1	blank2r.bmp	492	1	YFFY	492	1	blank2r.bmp	572	2	vertrauen	866	1	!	-1	1	!	-1	0	0	0	0	0	0	0	0	0	0	0	0	0	0	0	0	0	0	0	0	0	0	0	0	0	0	0	0	0	0
071019	13:00:36	13:06:08	331238	5.0.10.0	5_exp_RW	41	Rpleas_acq	CS_A	YFFY	LWWL	ZHHZ	JQQJ	CPPC	DXXD	träumen	vertrauen	genießen	sonnig	küssen	gütig	töten	versagen	gemein	sterben	krank	gierig	1	acq_USunple_CSunple2_RW	acq4567_RW	4	15	400	1	300	300	346	50	0	0	1	blank2r.bmp	0	1	+	0	1	blank2r.bmp	492	1	JQQJ	492	1	blank2r.bmp	572	3	gierig	866	1	!	1239	1	!	1252	0	0	0	0	0	0	0	0	0	0	0	0	0	0	0	0	0	0	0	0	0	0	0	0	0	0	0	0	0	0
071019	13:00:36	13:06:10	333384	5.0.10.0	5_exp_RW	41	Rpleas_acq	CS_A	YFFY	LWWL	ZHHZ	JQQJ	CPPC	DXXD	träumen	vertrauen	genießen	sonnig	küssen	gütig	töten	versagen	gemein	sterben	krank	gierig	1	acq_USpleas_CSpleas1_RW	acq4567_RW	4	16	400	1	300	300	346	50	0	1	1	blank2r.bmp	0	1	+	0	1	blank2r.bmp	492	1	YFFY	492	1	blank2r.bmp	572	3	genießen	866	1	!	1239	1	!	1252	0	0	0	0	0	0	0	0	0	0	0	0	0	0	0	0	0	0	0	0	0	0	0	0	0	0	0	0	0	0
071019	13:00:36	13:06:12	335570	5.0.10.0	5_exp_RW	41	Rpleas_acq	CS_A	YFFY	LWWL	ZHHZ	JQQJ	CPPC	DXXD	träumen	vertrauen	genießen	sonnig	küssen	gütig	töten	versagen	gemein	sterben	krank	gierig	1	acq_USpleas_CSpleas1_RW	acq4567_RW	4	17	400	1	300	300	390	46	0	0	1	blank2r.bmp	0	1	+	0	1	blank2r.bmp	492	1	YFFY	492	1	blank2r.bmp	572	1	träumen	866	1	!	1239	1	!	1292	0	0	0	0	0	0	0	0	0	0	0	0	0	0	0	0	0	0	0	0	0	0	0	0	0	0	0	0	0	0
071019	13:00:36	13:06:15	337756	5.0.10.0	5_exp_RW	41	Rpleas_acq	CS_A	YFFY	LWWL	ZHHZ	JQQJ	CPPC	DXXD	träumen	vertrauen	genießen	sonnig	küssen	gütig	töten	versagen	gemein	sterben	krank	gierig	1	acq_USunple_CSunple1_RW	acq4567_RW	4	18	400	1	300	300	391	46	0	1	1	blank2r.bmp	0	1	+	0	1	blank2r.bmp	492	1	ZHHZ	492	1	blank2r.bmp	572	2	versagen	866	1	!	1239	1	!	1292	0	0	0	0	0	0	0	0	0	0	0	0	0	0	0	0	0	0	0	0	0	0	0	0	0	0	0	0	0	0
071019	13:00:36	13:06:17	339941	5.0.10.0	5_exp_RW	41	Rpleas_acq	CS_A	YFFY	LWWL	ZHHZ	JQQJ	CPPC	DXXD	träumen	vertrauen	genießen	sonnig	küssen	gütig	töten	versagen	gemein	sterben	krank	gierig	1	acq_USpleas_CSpleas2_RW	acq4567_RW	4	19	400	1	300	300	393	50	0	1	1	blank2r.bmp	0	1	+	0	1	blank2r.bmp	492	1	LWWL	492	1	blank2r.bmp	572	1	sonnig	866	1	!	1239	1	!	1292	0	0	0	0	0	0	0	0	0	0	0	0	0	0	0	0	0	0	0	0	0	0	0	0	0	0	0	0	0	0
071019	13:00:36	13:06:19	342007	5.0.10.0	5_exp_RW	41	Rpleas_acq	CS_A	YFFY	LWWL	ZHHZ	JQQJ	CPPC	DXXD	träumen	vertrauen	genießen	sonnig	küssen	gütig	töten	versagen	gemein	sterben	krank	gierig	1	acq_USunple_CSunple2_RW	acq4567_RW	4	20	400	0	300	300	299	46	0	1	1	blank2r.bmp	0	1	+	0	1	blank2r.bmp	492	1	JQQJ	492	1	blank2r.bmp	572	1	sterben	866	1	!	-1	1	!	-1	0	0	0	0	0	0	0	0	0	0	0	0	0	0	0	0	0	0	0	0	0	0	0	0	0	0	0	0	0	0
071019	13:00:36	13:06:21	344126	5.0.10.0	5_exp_RW	41	Rpleas_acq	CS_A	YFFY	LWWL	ZHHZ	JQQJ	CPPC	DXXD	träumen	vertrauen	genießen	sonnig	küssen	gütig	töten	versagen	gemein	sterben	krank	gierig	1	acq_USunple_CSunple1_RW	acq4567_RW	4	21	400	0	300	300	329	46	0	1	1	blank2r.bmp	0	1	+	0	1	blank2r.bmp	492	1	ZHHZ	492	1	blank2r.bmp	572	2	versagen	866	1	!	-1	1	!	-1	0	0	0	0	0	0	0	0	0	0	0	0	0	0	0	0	0	0	0	0	0	0	0	0	0	0	0	0	0	0
071019	13:00:36	13:06:23	346446	5.0.10.0	5_exp_RW	41	Rpleas_acq	CS_A	YFFY	LWWL	ZHHZ	JQQJ	CPPC	DXXD	träumen	vertrauen	genießen	sonnig	küssen	gütig	töten	versagen	gemein	sterben	krank	gierig	1	acq_USunple_CSunple1_RW	acq4567_RW	4	22	400	0	300	300	543	46	0	1	1	blank2r.bmp	0	1	+	0	1	blank2r.bmp	492	1	ZHHZ	492	1	blank2r.bmp	572	1	töten	866	1	!	1239	1	!	-1	0	0	0	0	0	0	0	0	0	0	0	0	0	0	0	0	0	0	0	0	0	0	0	0	0	0	0	0	0	0
071019	13:00:36	13:06:26	348605	5.0.10.0	5_exp_RW	41	Rpleas_acq	CS_A	YFFY	LWWL	ZHHZ	JQQJ	CPPC	DXXD	träumen	vertrauen	genießen	sonnig	küssen	gütig	töten	versagen	gemein	sterben	krank	gierig	1	acq_USunple_CSunple2_RW	acq4567_RW	4	23	400	1	300	300	358	46	0	1	1	blank2r.bmp	0	1	+	0	1	blank2r.bmp	492	1	JQQJ	492	1	blank2r.bmp	572	1	sterben	866	1	!	1239	1	!	1252	0	0	0	0	0	0	0	0	0	0	0	0	0	0	0	0	0	0	0	0	0	0	0	0	0	0	0	0	0	0
071019	13:00:36	13:06:28	350684	5.0.10.0	5_exp_RW	41	Rpleas_acq	CS_A	YFFY	LWWL	ZHHZ	JQQJ	CPPC	DXXD	träumen	vertrauen	genießen	sonnig	küssen	gütig	töten	versagen	gemein	sterben	krank	gierig	1	acq_USpleas_CSpleas1_RW	acq4567_RW	4	24	400	0	300	300	312	50	0	1	1	blank2r.bmp	0	1	+	0	1	blank2r.bmp	492	1	YFFY	492	1	blank2r.bmp	572	1	träumen	866	1	!	-1	1	!	-1	0	0	0	0	0	0	0	0	0	0	0	0	0	0	0	0	0	0	0	0	0	0	0	0	0	0	0	0	0	0
071019	13:00:36	13:06:30	352950	5.0.10.0	5_exp_RW	41	Rpleas_acq	CS_A	YFFY	LWWL	ZHHZ	JQQJ	CPPC	DXXD	träumen	vertrauen	genießen	sonnig	küssen	gütig	töten	versagen	gemein	sterben	krank	gierig	1	acq_USpleas_CSpleas2_RW	acq4567_RW	4	25	400	0	300	300	479	50	0	1	1	blank2r.bmp	0	1	+	0	1	blank2r.bmp	492	1	LWWL	492	1	blank2r.bmp	572	1	sonnig	866	1	!	1239	1	!	-1	0	0	0	0	0	0	0	0	0	0	0	0	0	0	0	0	0	0	0	0	0	0	0	0	0	0	0	0	0	0
071019	13:00:36	13:06:32	354962	5.0.10.0	5_exp_RW	41	Rpleas_acq	CS_A	YFFY	LWWL	ZHHZ	JQQJ	CPPC	DXXD	träumen	vertrauen	genießen	sonnig	küssen	gütig	töten	versagen	gemein	sterben	krank	gierig	1	acq_USunple_CSunple1_RW	acq4567_RW	4	26	400	0	300	300	237	46	0	1	1	blank2r.bmp	0	1	+	0	1	blank2r.bmp	492	1	ZHHZ	492	1	blank2r.bmp	572	3	gemein	866	1	!	-1	1	!	-1	0	0	0	0	0	0	0	0	0	0	0	0	0	0	0	0	0	0	0	0	0	0	0	0	0	0	0	0	0	0
071019	13:00:36	13:06:34	357041	5.0.10.0	5_exp_RW	41	Rpleas_acq	CS_A	YFFY	LWWL	ZHHZ	JQQJ	CPPC	DXXD	träumen	vertrauen	genießen	sonnig	küssen	gütig	töten	versagen	gemein	sterben	krank	gierig	1	acq_USpleas_CSpleas2_RW	acq4567_RW	4	27	400	0	300	300	301	50	0	1	1	blank2r.bmp	0	1	+	0	1	blank2r.bmp	492	1	LWWL	492	1	blank2r.bmp	572	3	gütig	866	1	!	-1	1	!	-1	0	0	0	0	0	0	0	0	0	0	0	0	0	0	0	0	0	0	0	0	0	0	0	0	0	0	0	0	0	0
071019	13:00:36	13:06:36	359107	5.0.10.0	5_exp_RW	41	Rpleas_acq	CS_A	YFFY	LWWL	ZHHZ	JQQJ	CPPC	DXXD	träumen	vertrauen	genießen	sonnig	küssen	gütig	töten	versagen	gemein	sterben	krank	gierig	1	acq_USunple_CSunple2_RW	acq4567_RW	4	28	400	0	300	300	288	46	0	1	1	blank2r.bmp	0	1	+	0	1	blank2r.bmp	492	1	JQQJ	492	1	blank2r.bmp	572	2	krank	866	1	!	-1	1	!	-1	0	0	0	0	0	0	0	0	0	0	0	0	0	0	0	0	0	0	0	0	0	0	0	0	0	0	0	0	0	0
071019	13:00:36	13:06:38	361226	5.0.10.0	5_exp_RW	41	Rpleas_acq	CS_A	YFFY	LWWL	ZHHZ	JQQJ	CPPC	DXXD	träumen	vertrauen	genießen	sonnig	küssen	gütig	töten	versagen	gemein	sterben	krank	gierig	1	acq_USunple_CSunple2_RW	acq4567_RW	4	29	400	0	300	300	333	50	0	0	1	blank2r.bmp	0	1	+	0	1	blank2r.bmp	492	1	JQQJ	492	1	blank2r.bmp	572	3	gierig	866	1	!	-1	1	!	-1	0	0	0	0	0	0	0	0	0	0	0	0	0	0	0	0	0	0	0	0	0	0	0	0	0	0	0	0	0	0
071019	13:00:36	13:06:40	363452	5.0.10.0	5_exp_RW	41	Rpleas_acq	CS_A	YFFY	LWWL	ZHHZ	JQQJ	CPPC	DXXD	träumen	vertrauen	genießen	sonnig	küssen	gütig	töten	versagen	gemein	sterben	krank	gierig	1	acq_USunple_CSunple1_RW	acq4567_RW	4	30	400	1	300	300	403	46	0	1	1	blank2r.bmp	0	1	+	0	1	blank2r.bmp	492	1	ZHHZ	492	1	blank2r.bmp	572	2	versagen	866	1	!	1239	1	!	1306	0	0	0	0	0	0	0	0	0	0	0	0	0	0	0	0	0	0	0	0	0	0	0	0	0	0	0	0	0	0
071019	13:00:36	13:06:43	365691	5.0.10.0	5_exp_RW	41	Rpleas_acq	CS_A	YFFY	LWWL	ZHHZ	JQQJ	CPPC	DXXD	träumen	vertrauen	genießen	sonnig	küssen	gütig	töten	versagen	gemein	sterben	krank	gierig	1	acq_USunple_CSunple2_RW	acq4567_RW	4	31	400	1	300	300	434	46	0	1	1	blank2r.bmp	0	1	+	0	1	blank2r.bmp	492	1	JQQJ	492	1	blank2r.bmp	572	2	krank	866	1	!	1239	1	!	1332	0	0	0	0	0	0	0	0	0	0	0	0	0	0	0	0	0	0	0	0	0	0	0	0	0	0	0	0	0	0
071019	13:00:36	13:06:45	367864	5.0.10.0	5_exp_RW	41	Rpleas_acq	CS_A	YFFY	LWWL	ZHHZ	JQQJ	CPPC	DXXD	träumen	vertrauen	genießen	sonnig	küssen	gütig	töten	versagen	gemein	sterben	krank	gierig	1	acq_USpleas_CSpleas1_RW	acq4567_RW	4	32	400	1	300	300	372	50	0	1	1	blank2r.bmp	0	1	+	0	1	blank2r.bmp	492	1	YFFY	492	1	blank2r.bmp	572	3	genießen	866	1	!	1239	1	!	1279	0	0	0	0	0	0	0	0	0	0	0	0	0	0	0	0	0	0	0	0	0	0	0	0	0	0	0	0	0	0
071019	13:00:36	13:06:47	369903	5.0.10.0	5_exp_RW	41	Rpleas_acq	CS_A	YFFY	LWWL	ZHHZ	JQQJ	CPPC	DXXD	träumen	vertrauen	genießen	sonnig	küssen	gütig	töten	versagen	gemein	sterben	krank	gierig	1	acq_USpleas_CSpleas2_RW	acq4567_RW	4	33	400	0	300	300	276	50	0	1	1	blank2r.bmp	0	1	+	0	1	blank2r.bmp	492	1	LWWL	492	1	blank2r.bmp	572	2	küssen	866	1	!	-1	1	!	-1	0	0	0	0	0	0	0	0	0	0	0	0	0	0	0	0	0	0	0	0	0	0	0	0	0	0	0	0	0	0
071019	13:00:36	13:06:49	372062	5.0.10.0	5_exp_RW	41	Rpleas_acq	CS_A	YFFY	LWWL	ZHHZ	JQQJ	CPPC	DXXD	träumen	vertrauen	genießen	sonnig	küssen	gütig	töten	versagen	gemein	sterben	krank	gierig	1	acq_USpleas_CSpleas1_RW	acq4567_RW	4	34	400	1	300	300	350	50	0	1	1	blank2r.bmp	0	1	+	0	1	blank2r.bmp	492	1	YFFY	492	1	blank2r.bmp	572	2	vertrauen	866	1	!	1239	1	!	1252	0	0	0	0	0	0	0	0	0	0	0	0	0	0	0	0	0	0	0	0	0	0	0	0	0	0	0	0	0	0
071019	13:00:36	13:06:51	374234	5.0.10.0	5_exp_RW	41	Rpleas_acq	CS_A	YFFY	LWWL	ZHHZ	JQQJ	CPPC	DXXD	träumen	vertrauen	genießen	sonnig	küssen	gütig	töten	versagen	gemein	sterben	krank	gierig	1	acq_USpleas_CSpleas1_RW	acq4567_RW	4	35	400	1	300	300	382	50	0	1	1	blank2r.bmp	0	1	+	0	1	blank2r.bmp	492	1	YFFY	492	1	blank2r.bmp	572	1	träumen	866	1	!	1239	1	!	1279	0	0	0	0	0	0	0	0	0	0	0	0	0	0	0	0	0	0	0	0	0	0	0	0	0	0	0	0	0	0
071019	13:00:36	13:06:53	376287	5.0.10.0	5_exp_RW	41	Rpleas_acq	CS_A	YFFY	LWWL	ZHHZ	JQQJ	CPPC	DXXD	träumen	vertrauen	genießen	sonnig	küssen	gütig	töten	versagen	gemein	sterben	krank	gierig	1	acq_USunple_CSunple2_RW	acq4567_RW	4	36	400	0	300	300	276	46	0	1	1	blank2r.bmp	0	1	+	0	1	blank2r.bmp	492	1	JQQJ	492	1	blank2r.bmp	572	1	sterben	866	1	!	-1	1	!	-1	0	0	0	0	0	0	0	0	0	0	0	0	0	0	0	0	0	0	0	0	0	0	0	0	0	0	0	0	0	0
071019	13:00:36	13:06:55	378459	5.0.10.0	5_exp_RW	41	Rpleas_acq	CS_A	YFFY	LWWL	ZHHZ	JQQJ	CPPC	DXXD	träumen	vertrauen	genießen	sonnig	küssen	gütig	töten	versagen	gemein	sterben	krank	gierig	1	acq_USpleas_CSpleas2_RW	acq4567_RW	4	37	400	1	300	300	361	50	0	1	1	blank2r.bmp	0	1	+	0	1	blank2r.bmp	492	1	LWWL	492	1	blank2r.bmp	572	1	sonnig	866	1	!	1239	1	!	1266	0	0	0	0	0	0	0	0	0	0	0	0	0	0	0	0	0	0	0	0	0	0	0	0	0	0	0	0	0	0
071019	13:00:36	13:06:57	380525	5.0.10.0	5_exp_RW	41	Rpleas_acq	CS_A	YFFY	LWWL	ZHHZ	JQQJ	CPPC	DXXD	träumen	vertrauen	genießen	sonnig	küssen	gütig	töten	versagen	gemein	sterben	krank	gierig	1	acq_USunple_CSunple1_RW	acq4567_RW	4	38	400	0	300	300	288	46	0	1	1	blank2r.bmp	0	1	+	0	1	blank2r.bmp	492	1	ZHHZ	492	1	blank2r.bmp	572	1	töten	866	1	!	-1	1	!	-1	0	0	0	0	0	0	0	0	0	0	0	0	0	0	0	0	0	0	0	0	0	0	0	0	0	0	0	0	0	0
071019	13:00:36	13:07:00	382711	5.0.10.0	5_exp_RW	41	Rpleas_acq	CS_A	YFFY	LWWL	ZHHZ	JQQJ	CPPC	DXXD	träumen	vertrauen	genießen	sonnig	küssen	gütig	töten	versagen	gemein	sterben	krank	gierig	1	acq_USpleas_CSpleas2_RW	acq4567_RW	4	39	400	1	300	300	376	50	0	1	1	blank2r.bmp	0	1	+	0	1	blank2r.bmp	492	1	LWWL	492	1	blank2r.bmp	572	3	gütig	866	1	!	1239	1	!	1279	0	0	0	0	0	0	0	0	0	0	0	0	0	0	0	0	0	0	0	0	0	0	0	0	0	0	0	0	0	0
071019	13:00:36	13:07:02	384857	5.0.10.0	5_exp_RW	41	Rpleas_acq	CS_A	YFFY	LWWL	ZHHZ	JQQJ	CPPC	DXXD	träumen	vertrauen	genießen	sonnig	küssen	gütig	töten	versagen	gemein	sterben	krank	gierig	1	acq_USpleas_CSpleas1_RW	acq4567_RW	4	40	400	1	300	300	346	50	0	1	1	blank2r.bmp	0	1	+	0	1	blank2r.bmp	492	1	YFFY	492	1	blank2r.bmp	572	2	vertrauen	866	1	!	1239	1	!	1252	0	0	0	0	0	0	0	0	0	0	0	0	0	0	0	0	0	0	0	0	0	0	0	0	0	0	0	0	0	0
071019	13:00:36	13:07:04	386949	5.0.10.0	5_exp_RW	41	Rpleas_acq	CS_A	YFFY	LWWL	ZHHZ	JQQJ	CPPC	DXXD	träumen	vertrauen	genießen	sonnig	küssen	gütig	töten	versagen	gemein	sterben	krank	gierig	1	acq_USpleas_CSpleas1_RW	acq4567_RW	4	41	400	0	300	300	311	50	0	1	1	blank2r.bmp	0	1	+	0	1	blank2r.bmp	492	1	YFFY	492	1	blank2r.bmp	572	3	genießen	866	1	!	-1	1	!	-1	0	0	0	0	0	0	0	0	0	0	0	0	0	0	0	0	0	0	0	0	0	0	0	0	0	0	0	0	0	0
071019	13:00:36	13:07:06	389015	5.0.10.0	5_exp_RW	41	Rpleas_acq	CS_A	YFFY	LWWL	ZHHZ	JQQJ	CPPC	DXXD	träumen	vertrauen	genießen	sonnig	küssen	gütig	töten	versagen	gemein	sterben	krank	gierig	1	acq_USpleas_CSpleas1_RW	acq4567_RW	4	42	400	0	300	300	275	46	0	0	1	blank2r.bmp	0	1	+	0	1	blank2r.bmp	492	1	YFFY	492	1	blank2r.bmp	572	1	träumen	866	1	!	-1	1	!	-1	0	0	0	0	0	0	0	0	0	0	0	0	0	0	0	0	0	0	0	0	0	0	0	0	0	0	0	0	0	0
071019	13:00:36	13:07:08	391201	5.0.10.0	5_exp_RW	41	Rpleas_acq	CS_A	YFFY	LWWL	ZHHZ	JQQJ	CPPC	DXXD	träumen	vertrauen	genießen	sonnig	küssen	gütig	töten	versagen	gemein	sterben	krank	gierig	1	acq_USpleas_CSpleas2_RW	acq4567_RW	4	43	400	1	300	300	377	50	0	1	1	blank2r.bmp	0	1	+	0	1	blank2r.bmp	492	1	LWWL	492	1	blank2r.bmp	572	2	küssen	866	1	!	1239	1	!	1279	0	0	0	0	0	0	0	0	0	0	0	0	0	0	0	0	0	0	0	0	0	0	0	0	0	0	0	0	0	0
071019	13:00:36	13:07:10	393347	5.0.10.0	5_exp_RW	41	Rpleas_acq	CS_A	YFFY	LWWL	ZHHZ	JQQJ	CPPC	DXXD	träumen	vertrauen	genießen	sonnig	küssen	gütig	töten	versagen	gemein	sterben	krank	gierig	1	acq_USpleas_CSpleas2_RW	acq4567_RW	4	44	400	1	300	300	346	50	0	1	1	blank2r.bmp	0	1	+	0	1	blank2r.bmp	492	1	LWWL	492	1	blank2r.bmp	572	2	küssen	866	1	!	1239	1	!	1252	0	0	0	0	0	0	0	0	0	0	0	0	0	0	0	0	0	0	0	0	0	0	0	0	0	0	0	0	0	0
071019	13:00:36	13:07:12	395492	5.0.10.0	5_exp_RW	41	Rpleas_acq	CS_A	YFFY	LWWL	ZHHZ	JQQJ	CPPC	DXXD	träumen	vertrauen	genießen	sonnig	küssen	gütig	töten	versagen	gemein	sterben	krank	gierig	1	acq_USpleas_CSpleas1_RW	acq4567_RW	4	45	400	1	300	300	357	50	0	1	1	blank2r.bmp	0	1	+	0	1	blank2r.bmp	492	1	YFFY	492	1	blank2r.bmp	572	3	genießen	866	1	!	1239	1	!	1252	0	0	0	0	0	0	0	0	0	0	0	0	0	0	0	0	0	0	0	0	0	0	0	0	0	0	0	0	0	0
071019	13:00:36	13:07:15	397718	5.0.10.0	5_exp_RW	41	Rpleas_acq	CS_A	YFFY	LWWL	ZHHZ	JQQJ	CPPC	DXXD	träumen	vertrauen	genießen	sonnig	küssen	gütig	töten	versagen	gemein	sterben	krank	gierig	1	acq_USunple_CSunple2_RW	acq4567_RW	4	46	400	1	300	300	427	46	0	1	1	blank2r.bmp	0	1	+	0	1	blank2r.bmp	492	1	JQQJ	492	1	blank2r.bmp	572	3	gierig	866	1	!	1239	1	!	1332	0	0	0	0	0	0	0	0	0	0	0	0	0	0	0	0	0	0	0	0	0	0	0	0	0	0	0	0	0	0
071019	13:00:36	13:07:17	399797	5.0.10.0	5_exp_RW	41	Rpleas_acq	CS_A	YFFY	LWWL	ZHHZ	JQQJ	CPPC	DXXD	träumen	vertrauen	genießen	sonnig	küssen	gütig	töten	versagen	gemein	sterben	krank	gierig	1	acq_USunple_CSunple1_RW	acq4567_RW	4	47	400	0	300	300	312	46	0	1	1	blank2r.bmp	0	1	+	0	1	blank2r.bmp	492	1	ZHHZ	492	1	blank2r.bmp	572	3	gemein	866	1	!	-1	1	!	-1	0	0	0	0	0	0	0	0	0	0	0	0	0	0	0	0	0	0	0	0	0	0	0	0	0	0	0	0	0	0
071019	13:00:36	13:07:19	401836	5.0.10.0	5_exp_RW	41	Rpleas_acq	CS_A	YFFY	LWWL	ZHHZ	JQQJ	CPPC	DXXD	träumen	vertrauen	genießen	sonnig	küssen	gütig	töten	versagen	gemein	sterben	krank	gierig	1	acq_USpleas_CSpleas1_RW	acq4567_RW	4	48	400	0	300	300	260	50	0	1	1	blank2r.bmp	0	1	+	0	1	blank2r.bmp	492	1	YFFY	492	1	blank2r.bmp	572	2	vertrauen	866	1	!	-1	1	!	-1	0	0	0	0	0	0	0	0	0	0	0	0	0	0	0	0	0	0	0	0	0	0	0	0	0	0	0	0	0	0
071019	13:00:36	13:07:21	403942	5.0.10.0	5_exp_RW	41	Rpleas_acq	CS_A	YFFY	LWWL	ZHHZ	JQQJ	CPPC	DXXD	träumen	vertrauen	genießen	sonnig	küssen	gütig	töten	versagen	gemein	sterben	krank	gierig	1	acq_USunple_CSunple2_RW	acq4567_RW	4	49	400	0	300	300	327	50	0	0	1	blank2r.bmp	0	1	+	0	1	blank2r.bmp	492	1	JQQJ	492	1	blank2r.bmp	572	3	gierig	866	1	!	-1	1	!	-1	0	0	0	0	0	0	0	0	0	0	0	0	0	0	0	0	0	0	0	0	0	0	0	0	0	0	0	0	0	0
071019	13:00:36	13:07:23	406155	5.0.10.0	5_exp_RW	41	Rpleas_acq	CS_A	YFFY	LWWL	ZHHZ	JQQJ	CPPC	DXXD	träumen	vertrauen	genießen	sonnig	küssen	gütig	töten	versagen	gemein	sterben	krank	gierig	1	acq_USunple_CSunple1_RW	acq4567_RW	4	50	400	1	300	300	405	46	0	1	1	blank2r.bmp	0	1	+	0	1	blank2r.bmp	492	1	ZHHZ	492	1	blank2r.bmp	572	3	gemein	866	1	!	1239	1	!	1306	0	0	0	0	0	0	0	0	0	0	0	0	0	0	0	0	0	0	0	0	0	0	0	0	0	0	0	0	0	0
071019	13:00:36	13:07:25	408247	5.0.10.0	5_exp_RW	41	Rpleas_acq	CS_A	YFFY	LWWL	ZHHZ	JQQJ	CPPC	DXXD	träumen	vertrauen	genießen	sonnig	küssen	gütig	töten	versagen	gemein	sterben	krank	gierig	1	acq_USpleas_CSpleas2_RW	acq4567_RW	4	51	400	0	300	300	327	50	0	1	1	blank2r.bmp	0	1	+	0	1	blank2r.bmp	492	1	LWWL	492	1	blank2r.bmp	572	3	gütig	866	1	!	-1	1	!	-1	0	0	0	0	0	0	0	0	0	0	0	0	0	0	0	0	0	0	0	0	0	0	0	0	0	0	0	0	0	0
071019	13:00:36	13:07:27	410500	5.0.10.0	5_exp_RW	41	Rpleas_acq	CS_A	YFFY	LWWL	ZHHZ	JQQJ	CPPC	DXXD	träumen	vertrauen	genießen	sonnig	küssen	gütig	töten	versagen	gemein	sterben	krank	gierig	1	acq_USunple_CSunple2_RW	acq4567_RW	4	52	400	1	300	300	441	46	0	1	1	blank2r.bmp	0	1	+	0	1	blank2r.bmp	492	1	JQQJ	492	1	blank2r.bmp	572	2	krank	866	1	!	1239	1	!	1346	0	0	0	0	0	0	0	0	0	0	0	0	0	0	0	0	0	0	0	0	0	0	0	0	0	0	0	0	0	0
071019	13:00:36	13:07:29	412579	5.0.10.0	5_exp_RW	41	Rpleas_acq	CS_A	YFFY	LWWL	ZHHZ	JQQJ	CPPC	DXXD	träumen	vertrauen	genießen	sonnig	küssen	gütig	töten	versagen	gemein	sterben	krank	gierig	1	acq_USpleas_CSpleas2_RW	acq4567_RW	4	53	400	0	300	300	315	50	0	1	1	blank2r.bmp	0	1	+	0	1	blank2r.bmp	492	1	LWWL	492	1	blank2r.bmp	572	1	sonnig	866	1	!	-1	1	!	-1	0	0	0	0	0	0	0	0	0	0	0	0	0	0	0	0	0	0	0	0	0	0	0	0	0	0	0	0	0	0
071019	13:00:36	13:07:32	414738	5.0.10.0	5_exp_RW	41	Rpleas_acq	CS_A	YFFY	LWWL	ZHHZ	JQQJ	CPPC	DXXD	träumen	vertrauen	genießen	sonnig	küssen	gütig	töten	versagen	gemein	sterben	krank	gierig	1	acq_USunple_CSunple1_RW	acq4567_RW	4	54	400	1	300	300	348	46	0	1	1	blank2r.bmp	0	1	+	0	1	blank2r.bmp	492	1	ZHHZ	492	1	blank2r.bmp	572	1	töten	866	1	!	1239	1	!	1252	0	0	0	0	0	0	0	0	0	0	0	0	0	0	0	0	0	0	0	0	0	0	0	0	0	0	0	0	0	0
071019	13:00:36	13:07:34	416817	5.0.10.0	5_exp_RW	41	Rpleas_acq	CS_A	YFFY	LWWL	ZHHZ	JQQJ	CPPC	DXXD	träumen	vertrauen	genießen	sonnig	küssen	gütig	töten	versagen	gemein	sterben	krank	gierig	1	acq_USpleas_CSpleas1_RW	acq4567_RW	4	55	400	0	300	300	317	50	0	1	1	blank2r.bmp	0	1	+	0	1	blank2r.bmp	492	1	YFFY	492	1	blank2r.bmp	572	2	vertrauen	866	1	!	-1	1	!	-1	0	0	0	0	0	0	0	0	0	0	0	0	0	0	0	0	0	0	0	0	0	0	0	0	0	0	0	0	0	0
071019	13:00:36	13:07:36	418976	5.0.10.0	5_exp_RW	41	Rpleas_acq	CS_A	YFFY	LWWL	ZHHZ	JQQJ	CPPC	DXXD	träumen	vertrauen	genießen	sonnig	küssen	gütig	töten	versagen	gemein	sterben	krank	gierig	1	acq_USunple_CSunple1_RW	acq4567_RW	4	56	400	1	300	300	346	46	0	1	1	blank2r.bmp	0	1	+	0	1	blank2r.bmp	492	1	ZHHZ	492	1	blank2r.bmp	572	2	versagen	866	1	!	1239	1	!	1252	0	0	0	0	0	0	0	0	0	0	0	0	0	0	0	0	0	0	0	0	0	0	0	0	0	0	0	0	0	0
071019	13:00:36	13:07:38	421055	5.0.10.0	5_exp_RW	41	Rpleas_acq	CS_A	YFFY	LWWL	ZHHZ	JQQJ	CPPC	DXXD	träumen	vertrauen	genießen	sonnig	küssen	gütig	töten	versagen	gemein	sterben	krank	gierig	1	acq_USunple_CSunple1_RW	acq4567_RW	4	57	400	0	300	300	309	50	0	0	1	blank2r.bmp	0	1	+	0	1	blank2r.bmp	492	1	ZHHZ	492	1	blank2r.bmp	572	3	gemein	866	1	!	-1	1	!	-1	0	0	0	0	0	0	0	0	0	0	0	0	0	0	0	0	0	0	0	0	0	0	0	0	0	0	0	0	0	0
071019	13:00:36	13:07:40	423294	5.0.10.0	5_exp_RW	41	Rpleas_acq	CS_A	YFFY	LWWL	ZHHZ	JQQJ	CPPC	DXXD	träumen	vertrauen	genießen	sonnig	küssen	gütig	töten	versagen	gemein	sterben	krank	gierig	1	acq_USunple_CSunple2_RW	acq4567_RW	4	58	400	1	300	300	438	46	0	1	1	blank2r.bmp	0	1	+	0	1	blank2r.bmp	492	1	JQQJ	492	1	blank2r.bmp	572	1	sterben	866	1	!	1239	1	!	1332	0	0	0	0	0	0	0	0	0	0	0	0	0	0	0	0	0	0	0	0	0	0	0	0	0	0	0	0	0	0
071019	13:00:36	13:07:42	425454	5.0.10.0	5_exp_RW	41	Rpleas_acq	CS_A	YFFY	LWWL	ZHHZ	JQQJ	CPPC	DXXD	träumen	vertrauen	genießen	sonnig	küssen	gütig	töten	versagen	gemein	sterben	krank	gierig	1	acq_USpleas_CSpleas2_RW	acq4567_RW	4	59	400	1	300	300	350	50	0	1	1	blank2r.bmp	0	1	+	0	1	blank2r.bmp	492	1	LWWL	492	1	blank2r.bmp	572	3	gütig	866	1	!	1239	1	!	1252	0	0	0	0	0	0	0	0	0	0	0	0	0	0	0	0	0	0	0	0	0	0	0	0	0	0	0	0	0	0
071019	13:00:36	13:07:45	427693	5.0.10.0	5_exp_RW	41	Rpleas_acq	CS_A	YFFY	LWWL	ZHHZ	JQQJ	CPPC	DXXD	träumen	vertrauen	genießen	sonnig	küssen	gütig	töten	versagen	gemein	sterben	krank	gierig	1	acq_USunple_CSunple2_RW	acq4567_RW	4	60	400	1	300	300	445	46	0	1	1	blank2r.bmp	0	1	+	0	1	blank2r.bmp	492	1	JQQJ	492	1	blank2r.bmp	572	1	sterben	866	1	!	1239	1	!	1346	0	0	0	0	0	0	0	0	0	0	0	0	0	0	0	0	0	0	0	0	0	0	0	0	0	0	0	0	0	0
071019	13:00:36	13:07:47	429958	5.0.10.0	5_exp_RW	41	Rpleas_acq	CS_A	YFFY	LWWL	ZHHZ	JQQJ	CPPC	DXXD	träumen	vertrauen	genießen	sonnig	küssen	gütig	töten	versagen	gemein	sterben	krank	gierig	1	acq_USpleas_CSpleas1_RW	acq4567_RW	4	61	400	1	300	300	464	50	0	1	1	blank2r.bmp	0	1	+	0	1	blank2r.bmp	492	1	YFFY	492	1	blank2r.bmp	572	1	träumen	866	1	!	1239	1	!	1359	0	0	0	0	0	0	0	0	0	0	0	0	0	0	0	0	0	0	0	0	0	0	0	0	0	0	0	0	0	0
071019	13:00:36	13:07:49	432171	5.0.10.0	5_exp_RW	41	Rpleas_acq	CS_A	YFFY	LWWL	ZHHZ	JQQJ	CPPC	DXXD	träumen	vertrauen	genießen	sonnig	küssen	gütig	töten	versagen	gemein	sterben	krank	gierig	1	acq_USunple_CSunple1_RW	acq4567_RW	4	62	400	1	300	300	414	46	0	1	1	blank2r.bmp	0	1	+	0	1	blank2r.bmp	492	1	ZHHZ	492	1	blank2r.bmp	572	2	versagen	866	1	!	1239	1	!	1319	0	0	0	0	0	0	0	0	0	0	0	0	0	0	0	0	0	0	0	0	0	0	0	0	0	0	0	0	0	0
071019	13:00:36	13:07:51	434357	5.0.10.0	5_exp_RW	41	Rpleas_acq	CS_A	YFFY	LWWL	ZHHZ	JQQJ	CPPC	DXXD	träumen	vertrauen	genießen	sonnig	küssen	gütig	töten	versagen	gemein	sterben	krank	gierig	1	acq_USpleas_CSpleas2_RW	acq4567_RW	4	63	400	1	300	300	372	50	0	1	1	blank2r.bmp	0	1	+	0	1	blank2r.bmp	492	1	LWWL	492	1	blank2r.bmp	572	2	küssen	866	1	!	1239	1	!	1279	0	0	0	0	0	0	0	0	0	0	0	0	0	0	0	0	0	0	0	0	0	0	0	0	0	0	0	0	0	0
071019	13:00:36	13:07:53	436449	5.0.10.0	5_exp_RW	41	Rpleas_acq	CS_A	YFFY	LWWL	ZHHZ	JQQJ	CPPC	DXXD	träumen	vertrauen	genießen	sonnig	küssen	gütig	töten	versagen	gemein	sterben	krank	gierig	1	acq_USunple_CSunple1_RW	acq4567_RW	4	64	400	0	300	300	327	46	0	1	1	blank2r.bmp	0	1	+	0	1	blank2r.bmp	492	1	ZHHZ	492	1	blank2r.bmp	572	1	töten	866	1	!	-1	1	!	-1	0	0	0	0	0	0	0	0	0	0	0	0	0	0	0	0	0	0	0	0	0	0	0	0	0	0	0	0	0	0
071019	13:00:36	13:07:56	438622	5.0.10.0	5_exp_RW	41	Rpleas_acq	CS_A	YFFY	LWWL	ZHHZ	JQQJ	CPPC	DXXD	träumen	vertrauen	genießen	sonnig	küssen	gütig	töten	versagen	gemein	sterben	krank	gierig	1	acq_USpleas_CSpleas2_RW	acq4567_RW	4	65	400	1	300	300	346	50	0	1	1	blank2r.bmp	0	1	+	0	1	blank2r.bmp	492	1	LWWL	492	1	blank2r.bmp	572	1	sonnig	866	1	!	1239	1	!	1252	0	0	0	0	0	0	0	0	0	0	0	0	0	0	0	0	0	0	0	0	0	0	0	0	0	0	0	0	0	0
071019	13:00:36	13:07:58	440687	5.0.10.0	5_exp_RW	41	Rpleas_acq	CS_A	YFFY	LWWL	ZHHZ	JQQJ	CPPC	DXXD	träumen	vertrauen	genießen	sonnig	küssen	gütig	töten	versagen	gemein	sterben	krank	gierig	1	acq_USpleas_CSpleas1_RW	acq4567_RW	4	66	400	0	300	300	297	46	0	0	1	blank2r.bmp	0	1	+	0	1	blank2r.bmp	492	1	YFFY	492	1	blank2r.bmp	572	3	genießen	866	1	!	-1	1	!	-1	0	0	0	0	0	0	0	0	0	0	0	0	0	0	0	0	0	0	0	0	0	0	0	0	0	0	0	0	0	0
071019	13:00:36	13:08:00	442873	5.0.10.0	5_exp_RW	41	Rpleas_acq	CS_A	YFFY	LWWL	ZHHZ	JQQJ	CPPC	DXXD	träumen	vertrauen	genießen	sonnig	küssen	gütig	töten	versagen	gemein	sterben	krank	gierig	1	acq_USpleas_CSpleas1_RW	acq4567_RW	4	67	400	1	300	300	375	50	0	1	1	blank2r.bmp	0	1	+	0	1	blank2r.bmp	492	1	YFFY	492	1	blank2r.bmp	572	1	träumen	866	1	!	1239	1	!	1279	0	0	0	0	0	0	0	0	0	0	0	0	0	0	0	0	0	0	0	0	0	0	0	0	0	0	0	0	0	0
071019	13:00:36	13:08:02	445112	5.0.10.0	5_exp_RW	41	Rpleas_acq	CS_A	YFFY	LWWL	ZHHZ	JQQJ	CPPC	DXXD	träumen	vertrauen	genießen	sonnig	küssen	gütig	töten	versagen	gemein	sterben	krank	gierig	1	acq_USpleas_CSpleas1_RW	acq4567_RW	4	68	400	1	300	300	430	50	0	1	1	blank2r.bmp	0	1	+	0	1	blank2r.bmp	492	1	YFFY	492	1	blank2r.bmp	572	2	vertrauen	866	1	!	1239	1	!	1332	0	0	0	0	0	0	0	0	0	0	0	0	0	0	0	0	0	0	0	0	0	0	0	0	0	0	0	0	0	0
071019	13:00:36	13:08:04	447298	5.0.10.0	5_exp_RW	41	Rpleas_acq	CS_A	YFFY	LWWL	ZHHZ	JQQJ	CPPC	DXXD	träumen	vertrauen	genießen	sonnig	küssen	gütig	töten	versagen	gemein	sterben	krank	gierig	1	acq_USpleas_CSpleas2_RW	acq4567_RW	4	69	400	1	300	300	394	50	0	1	1	blank2r.bmp	0	1	+	0	1	blank2r.bmp	492	1	LWWL	492	1	blank2r.bmp	572	1	sonnig	866	1	!	1239	1	!	1292	0	0	0	0	0	0	0	0	0	0	0	0	0	0	0	0	0	0	0	0	0	0	0	0	0	0	0	0	0	0
071019	13:00:36	13:08:06	449537	5.0.10.0	5_exp_RW	41	Rpleas_acq	CS_A	YFFY	LWWL	ZHHZ	JQQJ	CPPC	DXXD	träumen	vertrauen	genießen	sonnig	küssen	gütig	töten	versagen	gemein	sterben	krank	gierig	1	acq_USunple_CSunple2_RW	acq4567_RW	4	70	400	1	300	300	448	46	0	1	1	blank2r.bmp	0	1	+	0	1	blank2r.bmp	492	1	JQQJ	492	1	blank2r.bmp	572	3	gierig	866	1	!	1239	1	!	1346	0	0	0	0	0	0	0	0	0	0	0	0	0	0	0	0	0	0	0	0	0	0	0	0	0	0	0	0	0	0
071019	13:00:36	13:08:09	451696	5.0.10.0	5_exp_RW	41	Rpleas_acq	CS_A	YFFY	LWWL	ZHHZ	JQQJ	CPPC	DXXD	träumen	vertrauen	genießen	sonnig	küssen	gütig	töten	versagen	gemein	sterben	krank	gierig	1	acq_USunple_CSunple2_RW	acq4567_RW	4	71	400	1	300	300	367	46	0	1	1	blank2r.bmp	0	1	+	0	1	blank2r.bmp	492	1	JQQJ	492	1	blank2r.bmp	572	2	krank	866	1	!	1239	1	!	1266	0	0	0	0	0	0	0	0	0	0	0	0	0	0	0	0	0	0	0	0	0	0	0	0	0	0	0	0	0	0
071019	13:00:36	13:08:11	453749	5.0.10.0	5_exp_RW	41	Rpleas_acq	CS_A	YFFY	LWWL	ZHHZ	JQQJ	CPPC	DXXD	träumen	vertrauen	genießen	sonnig	küssen	gütig	töten	versagen	gemein	sterben	krank	gierig	1	acq_USunple_CSunple2_RW	acq4567_RW	4	72	400	0	300	300	278	50	0	0	1	blank2r.bmp	0	1	+	0	1	blank2r.bmp	492	1	JQQJ	492	1	blank2r.bmp	572	3	gierig	866	1	!	-1	1	!	-1	0	0	0	0	0	0	0	0	0	0	0	0	0	0	0	0	0	0	0	0	0	0	0	0	0	0	0	0	0	0
071019	13:00:36	13:08:13	456001	5.0.10.0	5_exp_RW	41	Rpleas_acq	CS_A	YFFY	LWWL	ZHHZ	JQQJ	CPPC	DXXD	träumen	vertrauen	genießen	sonnig	küssen	gütig	töten	versagen	gemein	sterben	krank	gierig	1	acq_USunple_CSunple2_RW	acq4567_RW	4	73	400	1	300	300	435	46	0	1	1	blank2r.bmp	0	1	+	0	1	blank2r.bmp	492	1	JQQJ	492	1	blank2r.bmp	572	1	sterben	866	1	!	1239	1	!	1332	0	0	0	0	0	0	0	0	0	0	0	0	0	0	0	0	0	0	0	0	0	0	0	0	0	0	0	0	0	0
071019	13:00:36	13:08:15	458094	5.0.10.0	5_exp_RW	41	Rpleas_acq	CS_A	YFFY	LWWL	ZHHZ	JQQJ	CPPC	DXXD	träumen	vertrauen	genießen	sonnig	küssen	gütig	töten	versagen	gemein	sterben	krank	gierig	1	acq_USpleas_CSpleas1_RW	acq4567_RW	4	74	400	0	300	300	330	50	0	1	1	blank2r.bmp	0	1	+	0	1	blank2r.bmp	492	1	YFFY	492	1	blank2r.bmp	572	3	genießen	866	1	!	-1	1	!	-1	0	0	0	0	0	0	0	0	0	0	0	0	0	0	0	0	0	0	0	0	0	0	0	0	0	0	0	0	0	0
071019	13:00:36	13:08:17	460319	5.0.10.0	5_exp_RW	41	Rpleas_acq	CS_A	YFFY	LWWL	ZHHZ	JQQJ	CPPC	DXXD	träumen	vertrauen	genießen	sonnig	küssen	gütig	töten	versagen	gemein	sterben	krank	gierig	1	acq_USpleas_CSpleas2_RW	acq4567_RW	4	75	400	1	300	300	412	50	0	1	1	blank2r.bmp	0	1	+	0	1	blank2r.bmp	492	1	LWWL	492	1	blank2r.bmp	572	3	gütig	866	1	!	1239	1	!	1319	0	0	0	0	0	0	0	0	0	0	0	0	0	0	0	0	0	0	0	0	0	0	0	0	0	0	0	0	0	0
071019	13:00:36	13:08:19	462572	5.0.10.0	5_exp_RW	41	Rpleas_acq	CS_A	YFFY	LWWL	ZHHZ	JQQJ	CPPC	DXXD	träumen	vertrauen	genießen	sonnig	küssen	gütig	töten	versagen	gemein	sterben	krank	gierig	1	acq_USunple_CSunple2_RW	acq4567_RW	4	76	400	1	300	300	456	46	0	1	1	blank2r.bmp	0	1	+	0	1	blank2r.bmp	492	1	JQQJ	492	1	blank2r.bmp	572	2	krank	866	1	!	1239	1	!	1359	0	0	0	0	0	0	0	0	0	0	0	0	0	0	0	0	0	0	0	0	0	0	0	0	0	0	0	0	0	0
071019	13:00:36	13:08:22	464731	5.0.10.0	5_exp_RW	41	Rpleas_acq	CS_A	YFFY	LWWL	ZHHZ	JQQJ	CPPC	DXXD	träumen	vertrauen	genießen	sonnig	küssen	gütig	töten	versagen	gemein	sterben	krank	gierig	1	acq_USunple_CSunple1_RW	acq4567_RW	4	77	400	1	300	300	364	46	0	1	1	blank2r.bmp	0	1	+	0	1	blank2r.bmp	492	1	ZHHZ	492	1	blank2r.bmp	572	1	töten	866	1	!	1239	1	!	1266	0	0	0	0	0	0	0	0	0	0	0	0	0	0	0	0	0	0	0	0	0	0	0	0	0	0	0	0	0	0
071019	13:00:36	13:08:24	466797	5.0.10.0	5_exp_RW	41	Rpleas_acq	CS_A	YFFY	LWWL	ZHHZ	JQQJ	CPPC	DXXD	träumen	vertrauen	genießen	sonnig	küssen	gütig	töten	versagen	gemein	sterben	krank	gierig	1	acq_USpleas_CSpleas2_RW	acq4567_RW	4	78	400	0	300	300	303	50	0	1	1	blank2r.bmp	0	1	+	0	1	blank2r.bmp	492	1	LWWL	492	1	blank2r.bmp	572	2	küssen	866	1	!	-1	1	!	-1	0	0	0	0	0	0	0	0	0	0	0	0	0	0	0	0	0	0	0	0	0	0	0	0	0	0	0	0	0	0
071019	13:00:36	13:08:26	468996	5.0.10.0	5_exp_RW	41	Rpleas_acq	CS_A	YFFY	LWWL	ZHHZ	JQQJ	CPPC	DXXD	träumen	vertrauen	genießen	sonnig	küssen	gütig	töten	versagen	gemein	sterben	krank	gierig	1	acq_USunple_CSunple1_RW	acq4567_RW	4	79	400	1	300	300	391	46	0	1	1	blank2r.bmp	0	1	+	0	1	blank2r.bmp	492	1	ZHHZ	492	1	blank2r.bmp	572	3	gemein	866	1	!	1239	1	!	1292	0	0	0	0	0	0	0	0	0	0	0	0	0	0	0	0	0	0	0	0	0	0	0	0	0	0	0	0	0	0
071019	13:00:36	13:08:28	471168	5.0.10.0	5_exp_RW	41	Rpleas_acq	CS_A	YFFY	LWWL	ZHHZ	JQQJ	CPPC	DXXD	träumen	vertrauen	genießen	sonnig	küssen	gütig	töten	versagen	gemein	sterben	krank	gierig	1	acq_USunple_CSunple1_RW	acq4567_RW	4	80	400	1	300	300	383	46	0	1	1	blank2r.bmp	0	1	+	0	1	blank2r.bmp	492	1	ZHHZ	492	1	blank2r.bmp	572	2	versagen	866	1	!	1239	1	!	1279	0	0	0	0	0	0	0	0	0	0	0	0	0	0	0	0	0	0	0	0	0	0	0	0	0	0	0	0	0	0
071019	13:00:36	13:08:46	489201	5.0.10.0	5_exp_RW	41	Rpleas_acq	CS_A	YFFY	LWWL	ZHHZ	JQQJ	CPPC	DXXD	träumen	vertrauen	genießen	sonnig	küssen	gütig	töten	versagen	gemein	sterben	krank	gierig	1	acq_USpleas_CSpleas1_RW	acq4567_RW	5	1	400	1	300	300	444	50	0	1	1	blank2r.bmp	0	1	+	0	1	blank2r.bmp	492	1	YFFY	492	1	blank2r.bmp	572	2	vertrauen	866	1	!	1239	1	!	1346	0	0	0	0	0	0	0	0	0	0	0	0	0	0	0	0	0	0	0	0	0	0	0	0	0	0	0	0	0	0
071019	13:00:36	13:08:48	491360	5.0.10.0	5_exp_RW	41	Rpleas_acq	CS_A	YFFY	LWWL	ZHHZ	JQQJ	CPPC	DXXD	träumen	vertrauen	genießen	sonnig	küssen	gütig	töten	versagen	gemein	sterben	krank	gierig	1	acq_USpleas_CSpleas1_RW	acq4567_RW	5	2	400	1	300	300	364	46	0	0	1	blank2r.bmp	0	1	+	0	1	blank2r.bmp	492	1	YFFY	492	1	blank2r.bmp	572	3	genießen	866	1	!	1239	1	!	1266	0	0	0	0	0	0	0	0	0	0	0	0	0	0	0	0	0	0	0	0	0	0	0	0	0	0	0	0	0	0
071019	13:00:36	13:08:51	493586	5.0.10.0	5_exp_RW	41	Rpleas_acq	CS_A	YFFY	LWWL	ZHHZ	JQQJ	CPPC	DXXD	träumen	vertrauen	genießen	sonnig	küssen	gütig	töten	versagen	gemein	sterben	krank	gierig	1	acq_USunple_CSunple2_RW	acq4567_RW	5	3	400	1	300	300	435	46	0	1	1	blank2r.bmp	0	1	+	0	1	blank2r.bmp	492	1	JQQJ	492	1	blank2r.bmp	572	3	gierig	866	1	!	1239	1	!	1332	0	0	0	0	0	0	0	0	0	0	0	0	0	0	0	0	0	0	0	0	0	0	0	0	0	0	0	0	0	0
071019	13:00:36	13:08:53	495838	5.0.10.0	5_exp_RW	41	Rpleas_acq	CS_A	YFFY	LWWL	ZHHZ	JQQJ	CPPC	DXXD	träumen	vertrauen	genießen	sonnig	küssen	gütig	töten	versagen	gemein	sterben	krank	gierig	1	acq_USpleas_CSpleas2_RW	acq4567_RW	5	4	400	1	300	300	460	50	0	1	1	blank2r.bmp	0	1	+	0	1	blank2r.bmp	492	1	LWWL	492	1	blank2r.bmp	572	3	gütig	866	1	!	1239	1	!	1359	0	0	0	0	0	0	0	0	0	0	0	0	0	0	0	0	0	0	0	0	0	0	0	0	0	0	0	0	0	0
071019	13:00:36	13:08:55	498051	5.0.10.0	5_exp_RW	41	Rpleas_acq	CS_A	YFFY	LWWL	ZHHZ	JQQJ	CPPC	DXXD	träumen	vertrauen	genießen	sonnig	küssen	gütig	töten	versagen	gemein	sterben	krank	gierig	1	acq_USunple_CSunple2_RW	acq4567_RW	5	5	400	1	300	300	417	46	0	1	1	blank2r.bmp	0	1	+	0	1	blank2r.bmp	492	1	JQQJ	492	1	blank2r.bmp	572	2	krank	866	1	!	1239	1	!	1319	0	0	0	0	0	0	0	0	0	0	0	0	0	0	0	0	0	0	0	0	0	0	0	0	0	0	0	0	0	0
071019	13:00:36	13:08:57	500210	5.0.10.0	5_exp_RW	41	Rpleas_acq	CS_A	YFFY	LWWL	ZHHZ	JQQJ	CPPC	DXXD	träumen	vertrauen	genießen	sonnig	küssen	gütig	töten	versagen	gemein	sterben	krank	gierig	1	acq_USpleas_CSpleas1_RW	acq4567_RW	5	6	400	1	300	300	349	46	0	0	1	blank2r.bmp	0	1	+	0	1	blank2r.bmp	492	1	YFFY	492	1	blank2r.bmp	572	1	träumen	866	1	!	1239	1	!	1252	0	0	0	0	0	0	0	0	0	0	0	0	0	0	0	0	0	0	0	0	0	0	0	0	0	0	0	0	0	0
071019	13:00:36	13:08:59	502409	5.0.10.0	5_exp_RW	41	Rpleas_acq	CS_A	YFFY	LWWL	ZHHZ	JQQJ	CPPC	DXXD	träumen	vertrauen	genießen	sonnig	küssen	gütig	töten	versagen	gemein	sterben	krank	gierig	1	acq_USpleas_CSpleas2_RW	acq4567_RW	5	7	400	1	300	300	401	50	0	1	1	blank2r.bmp	0	1	+	0	1	blank2r.bmp	492	1	LWWL	492	1	blank2r.bmp	572	2	küssen	866	1	!	1239	1	!	1306	0	0	0	0	0	0	0	0	0	0	0	0	0	0	0	0	0	0	0	0	0	0	0	0	0	0	0	0	0	0
071019	13:00:36	13:09:01	504448	5.0.10.0	5_exp_RW	41	Rpleas_acq	CS_A	YFFY	LWWL	ZHHZ	JQQJ	CPPC	DXXD	träumen	vertrauen	genießen	sonnig	küssen	gütig	töten	versagen	gemein	sterben	krank	gierig	1	acq_USpleas_CSpleas2_RW	acq4567_RW	5	8	400	0	300	300	265	50	0	1	1	blank2r.bmp	0	1	+	0	1	blank2r.bmp	492	1	LWWL	492	1	blank2r.bmp	572	1	sonnig	866	1	!	-1	1	!	-1	0	0	0	0	0	0	0	0	0	0	0	0	0	0	0	0	0	0	0	0	0	0	0	0	0	0	0	0	0	0
071019	13:00:36	13:09:03	506567	5.0.10.0	5_exp_RW	41	Rpleas_acq	CS_A	YFFY	LWWL	ZHHZ	JQQJ	CPPC	DXXD	träumen	vertrauen	genießen	sonnig	küssen	gütig	töten	versagen	gemein	sterben	krank	gierig	1	acq_USpleas_CSpleas2_RW	acq4567_RW	5	9	400	0	300	300	322	50	0	1	1	blank2r.bmp	0	1	+	0	1	blank2r.bmp	492	1	LWWL	492	1	blank2r.bmp	572	2	küssen	866	1	!	-1	1	!	-1	0	0	0	0	0	0	0	0	0	0	0	0	0	0	0	0	0	0	0	0	0	0	0	0	0	0	0	0	0	0
071019	13:00:36	13:09:06	508806	5.0.10.0	5_exp_RW	41	Rpleas_acq	CS_A	YFFY	LWWL	ZHHZ	JQQJ	CPPC	DXXD	träumen	vertrauen	genießen	sonnig	küssen	gütig	töten	versagen	gemein	sterben	krank	gierig	1	acq_USpleas_CSpleas2_RW	acq4567_RW	5	10	400	1	300	300	430	50	0	1	1	blank2r.bmp	0	1	+	0	1	blank2r.bmp	492	1	LWWL	492	1	blank2r.bmp	572	1	sonnig	866	1	!	1239	1	!	1332	0	0	0	0	0	0	0	0	0	0	0	0	0	0	0	0	0	0	0	0	0	0	0	0	0	0	0	0	0	0
071019	13:00:36	13:09:08	511019	5.0.10.0	5_exp_RW	41	Rpleas_acq	CS_A	YFFY	LWWL	ZHHZ	JQQJ	CPPC	DXXD	träumen	vertrauen	genießen	sonnig	küssen	gütig	töten	versagen	gemein	sterben	krank	gierig	1	acq_USpleas_CSpleas1_RW	acq4567_RW	5	11	400	1	300	300	419	46	0	0	1	blank2r.bmp	0	1	+	0	1	blank2r.bmp	492	1	YFFY	492	1	blank2r.bmp	572	2	vertrauen	866	1	!	1239	1	!	1319	0	0	0	0	0	0	0	0	0	0	0	0	0	0	0	0	0	0	0	0	0	0	0	0	0	0	0	0	0	0
071019	13:00:36	13:09:10	513058	5.0.10.0	5_exp_RW	41	Rpleas_acq	CS_A	YFFY	LWWL	ZHHZ	JQQJ	CPPC	DXXD	träumen	vertrauen	genießen	sonnig	küssen	gütig	töten	versagen	gemein	sterben	krank	gierig	1	acq_USunple_CSunple2_RW	acq4567_RW	5	12	400	0	300	300	265	46	0	1	1	blank2r.bmp	0	1	+	0	1	blank2r.bmp	492	1	JQQJ	492	1	blank2r.bmp	572	1	sterben	866	1	!	-1	1	!	-1	0	0	0	0	0	0	0	0	0	0	0	0	0	0	0	0	0	0	0	0	0	0	0	0	0	0	0	0	0	0
071019	13:00:36	13:09:12	515257	5.0.10.0	5_exp_RW	41	Rpleas_acq	CS_A	YFFY	LWWL	ZHHZ	JQQJ	CPPC	DXXD	träumen	vertrauen	genießen	sonnig	küssen	gütig	töten	versagen	gemein	sterben	krank	gierig	1	acq_USunple_CSunple1_RW	acq4567_RW	5	13	400	1	300	300	378	50	0	0	1	blank2r.bmp	0	1	+	0	1	blank2r.bmp	492	1	ZHHZ	492	1	blank2r.bmp	572	3	gemein	866	1	!	1239	1	!	1279	0	0	0	0	0	0	0	0	0	0	0	0	0	0	0	0	0	0	0	0	0	0	0	0	0	0	0	0	0	0
071019	13:00:36	13:09:15	517710	5.0.10.0	5_exp_RW	41	Rpleas_acq	CS_A	YFFY	LWWL	ZHHZ	JQQJ	CPPC	DXXD	träumen	vertrauen	genießen	sonnig	küssen	gütig	töten	versagen	gemein	sterben	krank	gierig	1	acq_USunple_CSunple2_RW	acq4567_RW	5	14	400	0	300	300	675	46	0	1	1	blank2r.bmp	0	1	+	0	1	blank2r.bmp	492	1	JQQJ	492	1	blank2r.bmp	572	3	gierig	866	1	!	1239	1	!	-1	0	0	0	0	0	0	0	0	0	0	0	0	0	0	0	0	0	0	0	0	0	0	0	0	0	0	0	0	0	0
071019	13:00:36	13:09:17	519909	5.0.10.0	5_exp_RW	41	Rpleas_acq	CS_A	YFFY	LWWL	ZHHZ	JQQJ	CPPC	DXXD	träumen	vertrauen	genießen	sonnig	küssen	gütig	töten	versagen	gemein	sterben	krank	gierig	1	acq_USpleas_CSpleas1_RW	acq4567_RW	5	15	400	1	300	300	388	50	0	1	1	blank2r.bmp	0	1	+	0	1	blank2r.bmp	492	1	YFFY	492	1	blank2r.bmp	572	1	träumen	866	1	!	1239	1	!	1292	0	0	0	0	0	0	0	0	0	0	0	0	0	0	0	0	0	0	0	0	0	0	0	0	0	0	0	0	0	0
071019	13:00:36	13:09:19	522134	5.0.10.0	5_exp_RW	41	Rpleas_acq	CS_A	YFFY	LWWL	ZHHZ	JQQJ	CPPC	DXXD	träumen	vertrauen	genießen	sonnig	küssen	gütig	töten	versagen	gemein	sterben	krank	gierig	1	acq_USunple_CSunple2_RW	acq4567_RW	5	16	400	1	300	300	426	46	0	1	1	blank2r.bmp	0	1	+	0	1	blank2r.bmp	492	1	JQQJ	492	1	blank2r.bmp	572	1	sterben	866	1	!	1239	1	!	1332	0	0	0	0	0	0	0	0	0	0	0	0	0	0	0	0	0	0	0	0	0	0	0	0	0	0	0	0	0	0
071019	13:00:36	13:09:21	524347	5.0.10.0	5_exp_RW	41	Rpleas_acq	CS_A	YFFY	LWWL	ZHHZ	JQQJ	CPPC	DXXD	träumen	vertrauen	genießen	sonnig	küssen	gütig	töten	versagen	gemein	sterben	krank	gierig	1	acq_USunple_CSunple1_RW	acq4567_RW	5	17	400	1	300	300	407	46	0	1	1	blank2r.bmp	0	1	+	0	1	blank2r.bmp	492	1	ZHHZ	492	1	blank2r.bmp	572	1	töten	866	1	!	1239	1	!	1306	0	0	0	0	0	0	0	0	0	0	0	0	0	0	0	0	0	0	0	0	0	0	0	0	0	0	0	0	0	0
071019	13:00:36	13:09:24	526613	5.0.10.0	5_exp_RW	41	Rpleas_acq	CS_A	YFFY	LWWL	ZHHZ	JQQJ	CPPC	DXXD	träumen	vertrauen	genießen	sonnig	küssen	gütig	töten	versagen	gemein	sterben	krank	gierig	1	acq_USunple_CSunple1_RW	acq4567_RW	5	18	400	0	300	300	505	46	0	1	1	blank2r.bmp	0	1	+	0	1	blank2r.bmp	492	1	ZHHZ	492	1	blank2r.bmp	572	2	versagen	866	1	!	1239	1	!	-1	0	0	0	0	0	0	0	0	0	0	0	0	0	0	0	0	0	0	0	0	0	0	0	0	0	0	0	0	0	0
071019	13:00:36	13:09:26	528785	5.0.10.0	5_exp_RW	41	Rpleas_acq	CS_A	YFFY	LWWL	ZHHZ	JQQJ	CPPC	DXXD	träumen	vertrauen	genießen	sonnig	küssen	gütig	töten	versagen	gemein	sterben	krank	gierig	1	acq_USunple_CSunple1_RW	acq4567_RW	5	19	400	1	300	300	366	46	0	1	1	blank2r.bmp	0	1	+	0	1	blank2r.bmp	492	1	ZHHZ	492	1	blank2r.bmp	572	3	gemein	866	1	!	1239	1	!	1266	0	0	0	0	0	0	0	0	0	0	0	0	0	0	0	0	0	0	0	0	0	0	0	0	0	0	0	0	0	0
071019	13:00:36	13:09:28	530957	5.0.10.0	5_exp_RW	41	Rpleas_acq	CS_A	YFFY	LWWL	ZHHZ	JQQJ	CPPC	DXXD	träumen	vertrauen	genießen	sonnig	küssen	gütig	töten	versagen	gemein	sterben	krank	gierig	1	acq_USunple_CSunple1_RW	acq4567_RW	5	20	400	1	300	300	385	46	0	1	1	blank2r.bmp	0	1	+	0	1	blank2r.bmp	492	1	ZHHZ	492	1	blank2r.bmp	572	1	töten	866	1	!	1239	1	!	1279	0	0	0	0	0	0	0	0	0	0	0	0	0	0	0	0	0	0	0	0	0	0	0	0	0	0	0	0	0	0
071019	13:00:36	13:09:30	533210	5.0.10.0	5_exp_RW	41	Rpleas_acq	CS_A	YFFY	LWWL	ZHHZ	JQQJ	CPPC	DXXD	träumen	vertrauen	genießen	sonnig	küssen	gütig	töten	versagen	gemein	sterben	krank	gierig	1	acq_USunple_CSunple1_RW	acq4567_RW	5	21	400	1	300	300	456	46	0	1	1	blank2r.bmp	0	1	+	0	1	blank2r.bmp	492	1	ZHHZ	492	1	blank2r.bmp	572	2	versagen	866	1	!	1239	1	!	1359	0	0	0	0	0	0	0	0	0	0	0	0	0	0	0	0	0	0	0	0	0	0	0	0	0	0	0	0	0	0
071019	13:00:36	13:09:32	535369	5.0.10.0	5_exp_RW	41	Rpleas_acq	CS_A	YFFY	LWWL	ZHHZ	JQQJ	CPPC	DXXD	träumen	vertrauen	genießen	sonnig	küssen	gütig	töten	versagen	gemein	sterben	krank	gierig	1	acq_USunple_CSunple2_RW	acq4567_RW	5	22	400	1	300	300	364	46	0	1	1	blank2r.bmp	0	1	+	0	1	blank2r.bmp	492	1	JQQJ	492	1	blank2r.bmp	572	2	krank	866	1	!	1239	1	!	1266	0	0	0	0	0	0	0	0	0	0	0	0	0	0	0	0	0	0	0	0	0	0	0	0	0	0	0	0	0	0
071019	13:00:36	13:09:34	537435	5.0.10.0	5_exp_RW	41	Rpleas_acq	CS_A	YFFY	LWWL	ZHHZ	JQQJ	CPPC	DXXD	träumen	vertrauen	genießen	sonnig	küssen	gütig	töten	versagen	gemein	sterben	krank	gierig	1	acq_USunple_CSunple1_RW	acq4567_RW	5	23	400	0	300	300	301	46	0	1	1	blank2r.bmp	0	1	+	0	1	blank2r.bmp	492	1	ZHHZ	492	1	blank2r.bmp	572	1	töten	866	1	!	-1	1	!	-1	0	0	0	0	0	0	0	0	0	0	0	0	0	0	0	0	0	0	0	0	0	0	0	0	0	0	0	0	0	0
071019	13:00:36	13:09:37	539647	5.0.10.0	5_exp_RW	41	Rpleas_acq	CS_A	YFFY	LWWL	ZHHZ	JQQJ	CPPC	DXXD	träumen	vertrauen	genießen	sonnig	küssen	gütig	töten	versagen	gemein	sterben	krank	gierig	1	acq_USpleas_CSpleas2_RW	acq4567_RW	5	24	400	1	300	300	400	46	0	0	1	blank2r.bmp	0	1	+	0	1	blank2r.bmp	492	1	LWWL	492	1	blank2r.bmp	572	3	gütig	866	1	!	1239	1	!	1306	0	0	0	0	0	0	0	0	0	0	0	0	0	0	0	0	0	0	0	0	0	0	0	0	0	0	0	0	0	0
071019	13:00:36	13:09:39	541833	5.0.10.0	5_exp_RW	41	Rpleas_acq	CS_A	YFFY	LWWL	ZHHZ	JQQJ	CPPC	DXXD	träumen	vertrauen	genießen	sonnig	küssen	gütig	töten	versagen	gemein	sterben	krank	gierig	1	acq_USunple_CSunple1_RW	acq4567_RW	5	25	400	1	300	300	396	46	0	1	1	blank2r.bmp	0	1	+	0	1	blank2r.bmp	492	1	ZHHZ	492	1	blank2r.bmp	572	3	gemein	866	1	!	1239	1	!	1292	0	0	0	0	0	0	0	0	0	0	0	0	0	0	0	0	0	0	0	0	0	0	0	0	0	0	0	0	0	0
071019	13:00:36	13:09:41	544032	5.0.10.0	5_exp_RW	41	Rpleas_acq	CS_A	YFFY	LWWL	ZHHZ	JQQJ	CPPC	DXXD	träumen	vertrauen	genießen	sonnig	küssen	gütig	töten	versagen	gemein	sterben	krank	gierig	1	acq_USpleas_CSpleas1_RW	acq4567_RW	5	26	400	1	300	300	406	50	0	1	1	blank2r.bmp	0	1	+	0	1	blank2r.bmp	492	1	YFFY	492	1	blank2r.bmp	572	3	genießen	866	1	!	1239	1	!	1306	0	0	0	0	0	0	0	0	0	0	0	0	0	0	0	0	0	0	0	0	0	0	0	0	0	0	0	0	0	0
071019	13:00:36	13:09:43	546325	5.0.10.0	5_exp_RW	41	Rpleas_acq	CS_A	YFFY	LWWL	ZHHZ	JQQJ	CPPC	DXXD	träumen	vertrauen	genießen	sonnig	küssen	gütig	töten	versagen	gemein	sterben	krank	gierig	1	acq_USpleas_CSpleas2_RW	acq4567_RW	5	27	400	0	300	300	527	50	0	1	1	blank2r.bmp	0	1	+	0	1	blank2r.bmp	492	1	LWWL	492	1	blank2r.bmp	572	1	sonnig	866	1	!	1239	1	!	-1	0	0	0	0	0	0	0	0	0	0	0	0	0	0	0	0	0	0	0	0	0	0	0	0	0	0	0	0	0	0
071019	13:00:36	13:09:45	548404	5.0.10.0	5_exp_RW	41	Rpleas_acq	CS_A	YFFY	LWWL	ZHHZ	JQQJ	CPPC	DXXD	träumen	vertrauen	genießen	sonnig	küssen	gütig	töten	versagen	gemein	sterben	krank	gierig	1	acq_USpleas_CSpleas2_RW	acq4567_RW	5	28	400	0	300	300	299	50	0	1	1	blank2r.bmp	0	1	+	0	1	blank2r.bmp	492	1	LWWL	492	1	blank2r.bmp	572	2	küssen	866	1	!	-1	1	!	-1	0	0	0	0	0	0	0	0	0	0	0	0	0	0	0	0	0	0	0	0	0	0	0	0	0	0	0	0	0	0
071019	13:00:36	13:09:48	550589	5.0.10.0	5_exp_RW	41	Rpleas_acq	CS_A	YFFY	LWWL	ZHHZ	JQQJ	CPPC	DXXD	träumen	vertrauen	genießen	sonnig	küssen	gütig	töten	versagen	gemein	sterben	krank	gierig	1	acq_USunple_CSunple1_RW	acq4567_RW	5	29	400	1	300	300	377	46	0	1	1	blank2r.bmp	0	1	+	0	1	blank2r.bmp	492	1	ZHHZ	492	1	blank2r.bmp	572	2	versagen	866	1	!	1239	1	!	1279	0	0	0	0	0	0	0	0	0	0	0	0	0	0	0	0	0	0	0	0	0	0	0	0	0	0	0	0	0	0
071019	13:00:36	13:09:50	552815	5.0.10.0	5_exp_RW	41	Rpleas_acq	CS_A	YFFY	LWWL	ZHHZ	JQQJ	CPPC	DXXD	träumen	vertrauen	genießen	sonnig	küssen	gütig	töten	versagen	gemein	sterben	krank	gierig	1	acq_USunple_CSunple2_RW	acq4567_RW	5	30	400	1	300	300	417	46	0	1	1	blank2r.bmp	0	1	+	0	1	blank2r.bmp	492	1	JQQJ	492	1	blank2r.bmp	572	1	sterben	866	1	!	1239	1	!	1319	0	0	0	0	0	0	0	0	0	0	0	0	0	0	0	0	0	0	0	0	0	0	0	0	0	0	0	0	0	0
071019	13:00:36	13:09:52	555028	5.0.10.0	5_exp_RW	41	Rpleas_acq	CS_A	YFFY	LWWL	ZHHZ	JQQJ	CPPC	DXXD	träumen	vertrauen	genießen	sonnig	küssen	gütig	töten	versagen	gemein	sterben	krank	gierig	1	acq_USunple_CSunple2_RW	acq4567_RW	5	31	400	1	300	300	420	46	0	1	1	blank2r.bmp	0	1	+	0	1	blank2r.bmp	492	1	JQQJ	492	1	blank2r.bmp	572	2	krank	866	1	!	1239	1	!	1319	0	0	0	0	0	0	0	0	0	0	0	0	0	0	0	0	0	0	0	0	0	0	0	0	0	0	0	0	0	0
071019	13:00:36	13:09:54	557347	5.0.10.0	5_exp_RW	41	Rpleas_acq	CS_A	YFFY	LWWL	ZHHZ	JQQJ	CPPC	DXXD	träumen	vertrauen	genießen	sonnig	küssen	gütig	töten	versagen	gemein	sterben	krank	gierig	1	acq_USpleas_CSpleas2_RW	acq4567_RW	5	32	400	0	300	300	554	50	0	1	1	blank2r.bmp	0	1	+	0	1	blank2r.bmp	492	1	LWWL	492	1	blank2r.bmp	572	3	gütig	866	1	!	1239	1	!	-1	0	0	0	0	0	0	0	0	0	0	0	0	0	0	0	0	0	0	0	0	0	0	0	0	0	0	0	0	0	0
071019	13:00:36	13:09:56	559413	5.0.10.0	5_exp_RW	41	Rpleas_acq	CS_A	YFFY	LWWL	ZHHZ	JQQJ	CPPC	DXXD	träumen	vertrauen	genießen	sonnig	küssen	gütig	töten	versagen	gemein	sterben	krank	gierig	1	acq_USunple_CSunple2_RW	acq4567_RW	5	33	400	0	300	300	272	50	0	0	1	blank2r.bmp	0	1	+	0	1	blank2r.bmp	492	1	JQQJ	492	1	blank2r.bmp	572	3	gierig	866	1	!	-1	1	!	-1	0	0	0	0	0	0	0	0	0	0	0	0	0	0	0	0	0	0	0	0	0	0	0	0	0	0	0	0	0	0
071019	13:00:36	13:09:58	561452	5.0.10.0	5_exp_RW	41	Rpleas_acq	CS_A	YFFY	LWWL	ZHHZ	JQQJ	CPPC	DXXD	träumen	vertrauen	genießen	sonnig	küssen	gütig	töten	versagen	gemein	sterben	krank	gierig	1	acq_USpleas_CSpleas1_RW	acq4567_RW	5	34	400	0	300	300	260	50	0	1	1	blank2r.bmp	0	1	+	0	1	blank2r.bmp	492	1	YFFY	492	1	blank2r.bmp	572	1	träumen	866	1	!	-1	1	!	-1	0	0	0	0	0	0	0	0	0	0	0	0	0	0	0	0	0	0	0	0	0	0	0	0	0	0	0	0	0	0
071019	13:00:36	13:10:01	563704	5.0.10.0	5_exp_RW	41	Rpleas_acq	CS_A	YFFY	LWWL	ZHHZ	JQQJ	CPPC	DXXD	träumen	vertrauen	genießen	sonnig	küssen	gütig	töten	versagen	gemein	sterben	krank	gierig	1	acq_USpleas_CSpleas1_RW	acq4567_RW	5	35	400	1	300	300	448	50	0	1	1	blank2r.bmp	0	1	+	0	1	blank2r.bmp	492	1	YFFY	492	1	blank2r.bmp	572	2	vertrauen	866	1	!	1239	1	!	1346	0	0	0	0	0	0	0	0	0	0	0	0	0	0	0	0	0	0	0	0	0	0	0	0	0	0	0	0	0	0
071019	13:00:36	13:10:03	565850	5.0.10.0	5_exp_RW	41	Rpleas_acq	CS_A	YFFY	LWWL	ZHHZ	JQQJ	CPPC	DXXD	träumen	vertrauen	genießen	sonnig	küssen	gütig	töten	versagen	gemein	sterben	krank	gierig	1	acq_USpleas_CSpleas2_RW	acq4567_RW	5	36	400	1	300	300	349	50	0	1	1	blank2r.bmp	0	1	+	0	1	blank2r.bmp	492	1	LWWL	492	1	blank2r.bmp	572	2	küssen	866	1	!	1239	1	!	1252	0	0	0	0	0	0	0	0	0	0	0	0	0	0	0	0	0	0	0	0	0	0	0	0	0	0	0	0	0	0
071019	13:00:36	13:10:05	568102	5.0.10.0	5_exp_RW	41	Rpleas_acq	CS_A	YFFY	LWWL	ZHHZ	JQQJ	CPPC	DXXD	träumen	vertrauen	genießen	sonnig	küssen	gütig	töten	versagen	gemein	sterben	krank	gierig	1	acq_USpleas_CSpleas1_RW	acq4567_RW	5	37	400	0	300	300	479	50	0	1	1	blank2r.bmp	0	1	+	0	1	blank2r.bmp	492	1	YFFY	492	1	blank2r.bmp	572	3	genießen	866	1	!	1239	1	!	-1	0	0	0	0	0	0	0	0	0	0	0	0	0	0	0	0	0	0	0	0	0	0	0	0	0	0	0	0	0	0
071019	13:00:36	13:10:07	570155	5.0.10.0	5_exp_RW	41	Rpleas_acq	CS_A	YFFY	LWWL	ZHHZ	JQQJ	CPPC	DXXD	träumen	vertrauen	genießen	sonnig	küssen	gütig	töten	versagen	gemein	sterben	krank	gierig	1	acq_USunple_CSunple1_RW	acq4567_RW	5	38	400	0	300	300	271	50	0	0	1	blank2r.bmp	0	1	+	0	1	blank2r.bmp	492	1	ZHHZ	492	1	blank2r.bmp	572	1	töten	866	1	!	-1	1	!	-1	0	0	0	0	0	0	0	0	0	0	0	0	0	0	0	0	0	0	0	0	0	0	0	0	0	0	0	0	0	0
071019	13:00:36	13:10:09	572327	5.0.10.0	5_exp_RW	41	Rpleas_acq	CS_A	YFFY	LWWL	ZHHZ	JQQJ	CPPC	DXXD	träumen	vertrauen	genießen	sonnig	küssen	gütig	töten	versagen	gemein	sterben	krank	gierig	1	acq_USunple_CSunple2_RW	acq4567_RW	5	39	400	1	300	300	353	46	0	1	1	blank2r.bmp	0	1	+	0	1	blank2r.bmp	492	1	JQQJ	492	1	blank2r.bmp	572	1	sterben	866	1	!	1239	1	!	1252	0	0	0	0	0	0	0	0	0	0	0	0	0	0	0	0	0	0	0	0	0	0	0	0	0	0	0	0	0	0
071019	13:00:36	13:10:11	574407	5.0.10.0	5_exp_RW	41	Rpleas_acq	CS_A	YFFY	LWWL	ZHHZ	JQQJ	CPPC	DXXD	träumen	vertrauen	genießen	sonnig	küssen	gütig	töten	versagen	gemein	sterben	krank	gierig	1	acq_USpleas_CSpleas1_RW	acq4567_RW	5	40	400	0	300	300	308	50	0	1	1	blank2r.bmp	0	1	+	0	1	blank2r.bmp	492	1	YFFY	492	1	blank2r.bmp	572	3	genießen	866	1	!	-1	1	!	-1	0	0	0	0	0	0	0	0	0	0	0	0	0	0	0	0	0	0	0	0	0	0	0	0	0	0	0	0	0	0
071019	13:00:36	13:10:14	576646	5.0.10.0	5_exp_RW	41	Rpleas_acq	CS_A	YFFY	LWWL	ZHHZ	JQQJ	CPPC	DXXD	träumen	vertrauen	genießen	sonnig	küssen	gütig	töten	versagen	gemein	sterben	krank	gierig	1	acq_USunple_CSunple1_RW	acq4567_RW	5	41	400	1	300	300	428	46	0	1	1	blank2r.bmp	0	1	+	0	1	blank2r.bmp	492	1	ZHHZ	492	1	blank2r.bmp	572	3	gemein	866	1	!	1239	1	!	1332	0	0	0	0	0	0	0	0	0	0	0	0	0	0	0	0	0	0	0	0	0	0	0	0	0	0	0	0	0	0
071019	13:00:36	13:10:16	578791	5.0.10.0	5_exp_RW	41	Rpleas_acq	CS_A	YFFY	LWWL	ZHHZ	JQQJ	CPPC	DXXD	träumen	vertrauen	genießen	sonnig	küssen	gütig	töten	versagen	gemein	sterben	krank	gierig	1	acq_USunple_CSunple2_RW	acq4567_RW	5	42	400	1	300	300	346	46	0	1	1	blank2r.bmp	0	1	+	0	1	blank2r.bmp	492	1	JQQJ	492	1	blank2r.bmp	572	3	gierig	866	1	!	1239	1	!	1252	0	0	0	0	0	0	0	0	0	0	0	0	0	0	0	0	0	0	0	0	0	0	0	0	0	0	0	0	0	0
071019	13:00:36	13:10:18	581084	5.0.10.0	5_exp_RW	41	Rpleas_acq	CS_A	YFFY	LWWL	ZHHZ	JQQJ	CPPC	DXXD	träumen	vertrauen	genießen	sonnig	küssen	gütig	töten	versagen	gemein	sterben	krank	gierig	1	acq_USunple_CSunple1_RW	acq4567_RW	5	43	400	0	300	300	529	46	0	1	1	blank2r.bmp	0	1	+	0	1	blank2r.bmp	492	1	ZHHZ	492	1	blank2r.bmp	572	2	versagen	866	1	!	1239	1	!	-1	0	0	0	0	0	0	0	0	0	0	0	0	0	0	0	0	0	0	0	0	0	0	0	0	0	0	0	0	0	0
071019	13:00:36	13:10:20	583243	5.0.10.0	5_exp_RW	41	Rpleas_acq	CS_A	YFFY	LWWL	ZHHZ	JQQJ	CPPC	DXXD	träumen	vertrauen	genießen	sonnig	küssen	gütig	töten	versagen	gemein	sterben	krank	gierig	1	acq_USpleas_CSpleas2_RW	acq4567_RW	5	44	400	1	300	300	348	50	0	1	1	blank2r.bmp	0	1	+	0	1	blank2r.bmp	492	1	LWWL	492	1	blank2r.bmp	572	3	gütig	866	1	!	1239	1	!	1252	0	0	0	0	0	0	0	0	0	0	0	0	0	0	0	0	0	0	0	0	0	0	0	0	0	0	0	0	0	0
071019	13:00:36	13:10:22	585415	5.0.10.0	5_exp_RW	41	Rpleas_acq	CS_A	YFFY	LWWL	ZHHZ	JQQJ	CPPC	DXXD	träumen	vertrauen	genießen	sonnig	küssen	gütig	töten	versagen	gemein	sterben	krank	gierig	1	acq_USpleas_CSpleas2_RW	acq4567_RW	5	45	400	1	300	300	382	50	0	1	1	blank2r.bmp	0	1	+	0	1	blank2r.bmp	492	1	LWWL	492	1	blank2r.bmp	572	1	sonnig	866	1	!	1239	1	!	1279	0	0	0	0	0	0	0	0	0	0	0	0	0	0	0	0	0	0	0	0	0	0	0	0	0	0	0	0	0	0
071019	13:00:36	13:10:25	587628	5.0.10.0	5_exp_RW	41	Rpleas_acq	CS_A	YFFY	LWWL	ZHHZ	JQQJ	CPPC	DXXD	träumen	vertrauen	genießen	sonnig	küssen	gütig	töten	versagen	gemein	sterben	krank	gierig	1	acq_USunple_CSunple1_RW	acq4567_RW	5	46	400	1	300	300	414	46	0	1	1	blank2r.bmp	0	1	+	0	1	blank2r.bmp	492	1	ZHHZ	492	1	blank2r.bmp	572	1	töten	866	1	!	1239	1	!	1319	0	0	0	0	0	0	0	0	0	0	0	0	0	0	0	0	0	0	0	0	0	0	0	0	0	0	0	0	0	0
071019	13:00:36	13:10:27	589894	5.0.10.0	5_exp_RW	41	Rpleas_acq	CS_A	YFFY	LWWL	ZHHZ	JQQJ	CPPC	DXXD	träumen	vertrauen	genießen	sonnig	küssen	gütig	töten	versagen	gemein	sterben	krank	gierig	1	acq_USunple_CSunple1_RW	acq4567_RW	5	47	400	0	300	300	493	46	0	1	1	blank2r.bmp	0	1	+	0	1	blank2r.bmp	492	1	ZHHZ	492	1	blank2r.bmp	572	2	versagen	866	1	!	1239	1	!	-1	0	0	0	0	0	0	0	0	0	0	0	0	0	0	0	0	0	0	0	0	0	0	0	0	0	0	0	0	0	0
071019	13:00:36	13:10:29	592106	5.0.10.0	5_exp_RW	41	Rpleas_acq	CS_A	YFFY	LWWL	ZHHZ	JQQJ	CPPC	DXXD	träumen	vertrauen	genießen	sonnig	küssen	gütig	töten	versagen	gemein	sterben	krank	gierig	1	acq_USpleas_CSpleas1_RW	acq4567_RW	5	48	400	1	300	300	409	50	0	1	1	blank2r.bmp	0	1	+	0	1	blank2r.bmp	492	1	YFFY	492	1	blank2r.bmp	572	1	träumen	866	1	!	1239	1	!	1306	0	0	0	0	0	0	0	0	0	0	0	0	0	0	0	0	0	0	0	0	0	0	0	0	0	0	0	0	0	0
071019	13:00:36	13:10:31	594398	5.0.10.0	5_exp_RW	41	Rpleas_acq	CS_A	YFFY	LWWL	ZHHZ	JQQJ	CPPC	DXXD	träumen	vertrauen	genießen	sonnig	küssen	gütig	töten	versagen	gemein	sterben	krank	gierig	1	acq_USpleas_CSpleas1_RW	acq4567_RW	5	49	400	0	300	300	522	50	0	1	1	blank2r.bmp	0	1	+	0	1	blank2r.bmp	492	1	YFFY	492	1	blank2r.bmp	572	2	vertrauen	866	1	!	1239	1	!	-1	0	0	0	0	0	0	0	0	0	0	0	0	0	0	0	0	0	0	0	0	0	0	0	0	0	0	0	0	0	0
071019	13:00:36	13:10:33	596504	5.0.10.0	5_exp_RW	41	Rpleas_acq	CS_A	YFFY	LWWL	ZHHZ	JQQJ	CPPC	DXXD	träumen	vertrauen	genießen	sonnig	küssen	gütig	töten	versagen	gemein	sterben	krank	gierig	1	acq_USpleas_CSpleas2_RW	acq4567_RW	5	50	400	0	300	300	321	50	0	1	1	blank2r.bmp	0	1	+	0	1	blank2r.bmp	492	1	LWWL	492	1	blank2r.bmp	572	2	küssen	866	1	!	-1	1	!	-1	0	0	0	0	0	0	0	0	0	0	0	0	0	0	0	0	0	0	0	0	0	0	0	0	0	0	0	0	0	0
071019	13:00:36	13:10:36	598677	5.0.10.0	5_exp_RW	41	Rpleas_acq	CS_A	YFFY	LWWL	ZHHZ	JQQJ	CPPC	DXXD	träumen	vertrauen	genießen	sonnig	küssen	gütig	töten	versagen	gemein	sterben	krank	gierig	1	acq_USunple_CSunple1_RW	acq4567_RW	5	51	400	1	300	300	370	50	0	0	1	blank2r.bmp	0	1	+	0	1	blank2r.bmp	492	1	ZHHZ	492	1	blank2r.bmp	572	3	gemein	866	1	!	1239	1	!	1266	0	0	0	0	0	0	0	0	0	0	0	0	0	0	0	0	0	0	0	0	0	0	0	0	0	0	0	0	0	0
071019	13:00:36	13:10:38	600822	5.0.10.0	5_exp_RW	41	Rpleas_acq	CS_A	YFFY	LWWL	ZHHZ	JQQJ	CPPC	DXXD	träumen	vertrauen	genießen	sonnig	küssen	gütig	töten	versagen	gemein	sterben	krank	gierig	1	acq_USpleas_CSpleas2_RW	acq4567_RW	5	52	400	1	300	300	355	50	0	1	1	blank2r.bmp	0	1	+	0	1	blank2r.bmp	492	1	LWWL	492	1	blank2r.bmp	572	1	sonnig	866	1	!	1239	1	!	1252	0	0	0	0	0	0	0	0	0	0	0	0	0	0	0	0	0	0	0	0	0	0	0	0	0	0	0	0	0	0
071019	13:00:36	13:10:40	603008	5.0.10.0	5_exp_RW	41	Rpleas_acq	CS_A	YFFY	LWWL	ZHHZ	JQQJ	CPPC	DXXD	träumen	vertrauen	genießen	sonnig	küssen	gütig	töten	versagen	gemein	sterben	krank	gierig	1	acq_USpleas_CSpleas1_RW	acq4567_RW	5	53	400	1	300	300	376	50	0	1	1	blank2r.bmp	0	1	+	0	1	blank2r.bmp	492	1	YFFY	492	1	blank2r.bmp	572	3	genießen	866	1	!	1239	1	!	1279	0	0	0	0	0	0	0	0	0	0	0	0	0	0	0	0	0	0	0	0	0	0	0	0	0	0	0	0	0	0
071019	13:00:36	13:10:42	605101	5.0.10.0	5_exp_RW	41	Rpleas_acq	CS_A	YFFY	LWWL	ZHHZ	JQQJ	CPPC	DXXD	träumen	vertrauen	genießen	sonnig	küssen	gütig	töten	versagen	gemein	sterben	krank	gierig	1	acq_USpleas_CSpleas1_RW	acq4567_RW	5	54	400	0	300	300	324	50	0	1	1	blank2r.bmp	0	1	+	0	1	blank2r.bmp	492	1	YFFY	492	1	blank2r.bmp	572	1	träumen	866	1	!	-1	1	!	-1	0	0	0	0	0	0	0	0	0	0	0	0	0	0	0	0	0	0	0	0	0	0	0	0	0	0	0	0	0	0
071019	13:00:36	13:10:44	607300	5.0.10.0	5_exp_RW	41	Rpleas_acq	CS_A	YFFY	LWWL	ZHHZ	JQQJ	CPPC	DXXD	träumen	vertrauen	genießen	sonnig	küssen	gütig	töten	versagen	gemein	sterben	krank	gierig	1	acq_USunple_CSunple2_RW	acq4567_RW	5	55	400	1	300	300	388	46	0	1	1	blank2r.bmp	0	1	+	0	1	blank2r.bmp	492	1	JQQJ	492	1	blank2r.bmp	572	2	krank	866	1	!	1239	1	!	1292	0	0	0	0	0	0	0	0	0	0	0	0	0	0	0	0	0	0	0	0	0	0	0	0	0	0	0	0	0	0
071019	13:00:36	13:10:46	609446	5.0.10.0	5_exp_RW	41	Rpleas_acq	CS_A	YFFY	LWWL	ZHHZ	JQQJ	CPPC	DXXD	träumen	vertrauen	genießen	sonnig	küssen	gütig	töten	versagen	gemein	sterben	krank	gierig	1	acq_USunple_CSunple2_RW	acq4567_RW	5	56	400	1	300	300	346	46	0	1	1	blank2r.bmp	0	1	+	0	1	blank2r.bmp	492	1	JQQJ	492	1	blank2r.bmp	572	1	sterben	866	1	!	1239	1	!	1252	0	0	0	0	0	0	0	0	0	0	0	0	0	0	0	0	0	0	0	0	0	0	0	0	0	0	0	0	0	0
071019	13:00:36	13:10:49	611711	5.0.10.0	5_exp_RW	41	Rpleas_acq	CS_A	YFFY	LWWL	ZHHZ	JQQJ	CPPC	DXXD	träumen	vertrauen	genießen	sonnig	küssen	gütig	töten	versagen	gemein	sterben	krank	gierig	1	acq_USunple_CSunple2_RW	acq4567_RW	5	57	400	0	300	300	499	50	0	0	1	blank2r.bmp	0	1	+	0	1	blank2r.bmp	492	1	JQQJ	492	1	blank2r.bmp	572	3	gierig	866	1	!	1239	1	!	-1	0	0	0	0	0	0	0	0	0	0	0	0	0	0	0	0	0	0	0	0	0	0	0	0	0	0	0	0	0	0
071019	13:00:36	13:10:51	613804	5.0.10.0	5_exp_RW	41	Rpleas_acq	CS_A	YFFY	LWWL	ZHHZ	JQQJ	CPPC	DXXD	träumen	vertrauen	genießen	sonnig	küssen	gütig	töten	versagen	gemein	sterben	krank	gierig	1	acq_USpleas_CSpleas1_RW	acq4567_RW	5	58	400	0	300	300	306	50	0	1	1	blank2r.bmp	0	1	+	0	1	blank2r.bmp	492	1	YFFY	492	1	blank2r.bmp	572	2	vertrauen	866	1	!	-1	1	!	-1	0	0	0	0	0	0	0	0	0	0	0	0	0	0	0	0	0	0	0	0	0	0	0	0	0	0	0	0	0	0
071019	13:00:36	13:10:53	616043	5.0.10.0	5_exp_RW	41	Rpleas_acq	CS_A	YFFY	LWWL	ZHHZ	JQQJ	CPPC	DXXD	träumen	vertrauen	genießen	sonnig	küssen	gütig	töten	versagen	gemein	sterben	krank	gierig	1	acq_USunple_CSunple2_RW	acq4567_RW	5	59	400	1	300	300	425	46	0	1	1	blank2r.bmp	0	1	+	0	1	blank2r.bmp	492	1	JQQJ	492	1	blank2r.bmp	572	2	krank	866	1	!	1239	1	!	1319	0	0	0	0	0	0	0	0	0	0	0	0	0	0	0	0	0	0	0	0	0	0	0	0	0	0	0	0	0	0
071019	13:00:36	13:10:55	618255	5.0.10.0	5_exp_RW	41	Rpleas_acq	CS_A	YFFY	LWWL	ZHHZ	JQQJ	CPPC	DXXD	träumen	vertrauen	genießen	sonnig	küssen	gütig	töten	versagen	gemein	sterben	krank	gierig	1	acq_USpleas_CSpleas2_RW	acq4567_RW	5	60	400	1	300	300	424	50	0	1	1	blank2r.bmp	0	1	+	0	1	blank2r.bmp	492	1	LWWL	492	1	blank2r.bmp	572	3	gütig	866	1	!	1239	1	!	1319	0	0	0	0	0	0	0	0	0	0	0	0	0	0	0	0	0	0	0	0	0	0	0	0	0	0	0	0	0	0
071019	13:00:36	13:10:57	620441	5.0.10.0	5_exp_RW	41	Rpleas_acq	CS_A	YFFY	LWWL	ZHHZ	JQQJ	CPPC	DXXD	träumen	vertrauen	genießen	sonnig	küssen	gütig	töten	versagen	gemein	sterben	krank	gierig	1	acq_USunple_CSunple2_RW	acq4567_RW	5	61	400	1	300	300	392	50	0	0	1	blank2r.bmp	0	1	+	0	1	blank2r.bmp	492	1	JQQJ	492	1	blank2r.bmp	572	3	gierig	866	1	!	1239	1	!	1292	0	0	0	0	0	0	0	0	0	0	0	0	0	0	0	0	0	0	0	0	0	0	0	0	0	0	0	0	0	0
071019	13:00:36	13:11:00	622654	5.0.10.0	5_exp_RW	41	Rpleas_acq	CS_A	YFFY	LWWL	ZHHZ	JQQJ	CPPC	DXXD	träumen	vertrauen	genießen	sonnig	küssen	gütig	töten	versagen	gemein	sterben	krank	gierig	1	acq_USpleas_CSpleas1_RW	acq4567_RW	5	62	400	1	300	300	423	50	0	1	1	blank2r.bmp	0	1	+	0	1	blank2r.bmp	492	1	YFFY	492	1	blank2r.bmp	572	3	genießen	866	1	!	1239	1	!	1319	0	0	0	0	0	0	0	0	0	0	0	0	0	0	0	0	0	0	0	0	0	0	0	0	0	0	0	0	0	0
071019	13:00:36	13:11:02	624799	5.0.10.0	5_exp_RW	41	Rpleas_acq	CS_A	YFFY	LWWL	ZHHZ	JQQJ	CPPC	DXXD	träumen	vertrauen	genießen	sonnig	küssen	gütig	töten	versagen	gemein	sterben	krank	gierig	1	acq_USpleas_CSpleas2_RW	acq4567_RW	5	63	400	1	300	300	353	50	0	1	1	blank2r.bmp	0	1	+	0	1	blank2r.bmp	492	1	LWWL	492	1	blank2r.bmp	572	1	sonnig	866	1	!	1239	1	!	1252	0	0	0	0	0	0	0	0	0	0	0	0	0	0	0	0	0	0	0	0	0	0	0	0	0	0	0	0	0	0
071019	13:00:36	13:11:04	627012	5.0.10.0	5_exp_RW	41	Rpleas_acq	CS_A	YFFY	LWWL	ZHHZ	JQQJ	CPPC	DXXD	träumen	vertrauen	genießen	sonnig	küssen	gütig	töten	versagen	gemein	sterben	krank	gierig	1	acq_USpleas_CSpleas2_RW	acq4567_RW	5	64	400	1	300	300	403	50	0	1	1	blank2r.bmp	0	1	+	0	1	blank2r.bmp	492	1	LWWL	492	1	blank2r.bmp	572	3	gütig	866	1	!	1239	1	!	1306	0	0	0	0	0	0	0	0	0	0	0	0	0	0	0	0	0	0	0	0	0	0	0	0	0	0	0	0	0	0
071019	13:00:36	13:11:06	629104	5.0.10.0	5_exp_RW	41	Rpleas_acq	CS_A	YFFY	LWWL	ZHHZ	JQQJ	CPPC	DXXD	träumen	vertrauen	genießen	sonnig	küssen	gütig	töten	versagen	gemein	sterben	krank	gierig	1	acq_USpleas_CSpleas1_RW	acq4567_RW	5	65	400	0	300	300	327	50	0	1	1	blank2r.bmp	0	1	+	0	1	blank2r.bmp	492	1	YFFY	492	1	blank2r.bmp	572	1	träumen	866	1	!	-1	1	!	-1	0	0	0	0	0	0	0	0	0	0	0	0	0	0	0	0	0	0	0	0	0	0	0	0	0	0	0	0	0	0
071019	13:00:36	13:11:08	631463	5.0.10.0	5_exp_RW	41	Rpleas_acq	CS_A	YFFY	LWWL	ZHHZ	JQQJ	CPPC	DXXD	träumen	vertrauen	genießen	sonnig	küssen	gütig	töten	versagen	gemein	sterben	krank	gierig	1	acq_USunple_CSunple2_RW	acq4567_RW	5	66	400	0	300	300	583	46	0	1	1	blank2r.bmp	0	1	+	0	1	blank2r.bmp	492	1	JQQJ	492	1	blank2r.bmp	572	1	sterben	866	1	!	1239	1	!	-1	0	0	0	0	0	0	0	0	0	0	0	0	0	0	0	0	0	0	0	0	0	0	0	0	0	0	0	0	0	0
071019	13:00:36	13:11:11	633729	5.0.10.0	5_exp_RW	41	Rpleas_acq	CS_A	YFFY	LWWL	ZHHZ	JQQJ	CPPC	DXXD	träumen	vertrauen	genießen	sonnig	küssen	gütig	töten	versagen	gemein	sterben	krank	gierig	1	acq_USunple_CSunple2_RW	acq4567_RW	5	67	400	0	300	300	479	46	0	1	1	blank2r.bmp	0	1	+	0	1	blank2r.bmp	492	1	JQQJ	492	1	blank2r.bmp	572	2	krank	866	1	!	1239	1	!	-1	0	0	0	0	0	0	0	0	0	0	0	0	0	0	0	0	0	0	0	0	0	0	0	0	0	0	0	0	0	0
071019	13:00:36	13:11:13	636008	5.0.10.0	5_exp_RW	41	Rpleas_acq	CS_A	YFFY	LWWL	ZHHZ	JQQJ	CPPC	DXXD	träumen	vertrauen	genießen	sonnig	küssen	gütig	töten	versagen	gemein	sterben	krank	gierig	1	acq_USpleas_CSpleas1_RW	acq4567_RW	5	68	400	0	300	300	492	50	0	1	1	blank2r.bmp	0	1	+	0	1	blank2r.bmp	492	1	YFFY	492	1	blank2r.bmp	572	2	vertrauen	866	1	!	1239	1	!	-1	0	0	0	0	0	0	0	0	0	0	0	0	0	0	0	0	0	0	0	0	0	0	0	0	0	0	0	0	0	0
071019	13:00:36	13:11:15	638114	5.0.10.0	5_exp_RW	41	Rpleas_acq	CS_A	YFFY	LWWL	ZHHZ	JQQJ	CPPC	DXXD	träumen	vertrauen	genießen	sonnig	küssen	gütig	töten	versagen	gemein	sterben	krank	gierig	1	acq_USunple_CSunple2_RW	acq4567_RW	5	69	400	0	300	300	319	46	0	1	1	blank2r.bmp	0	1	+	0	1	blank2r.bmp	492	1	JQQJ	492	1	blank2r.bmp	572	2	krank	866	1	!	-1	1	!	-1	0	0	0	0	0	0	0	0	0	0	0	0	0	0	0	0	0	0	0	0	0	0	0	0	0	0	0	0	0	0
071019	13:00:36	13:11:17	640380	5.0.10.0	5_exp_RW	41	Rpleas_acq	CS_A	YFFY	LWWL	ZHHZ	JQQJ	CPPC	DXXD	träumen	vertrauen	genießen	sonnig	küssen	gütig	töten	versagen	gemein	sterben	krank	gierig	1	acq_USunple_CSunple1_RW	acq4567_RW	5	70	400	0	300	300	479	50	0	0	1	blank2r.bmp	0	1	+	0	1	blank2r.bmp	492	1	ZHHZ	492	1	blank2r.bmp	572	2	versagen	866	1	!	1239	1	!	-1	0	0	0	0	0	0	0	0	0	0	0	0	0	0	0	0	0	0	0	0	0	0	0	0	0	0	0	0	0	0
071019	13:00:36	13:11:19	642566	5.0.10.0	5_exp_RW	41	Rpleas_acq	CS_A	YFFY	LWWL	ZHHZ	JQQJ	CPPC	DXXD	träumen	vertrauen	genießen	sonnig	küssen	gütig	töten	versagen	gemein	sterben	krank	gierig	1	acq_USpleas_CSpleas1_RW	acq4567_RW	5	71	400	1	300	300	376	46	0	0	1	blank2r.bmp	0	1	+	0	1	blank2r.bmp	492	1	YFFY	492	1	blank2r.bmp	572	2	vertrauen	866	1	!	1239	1	!	1279	0	0	0	0	0	0	0	0	0	0	0	0	0	0	0	0	0	0	0	0	0	0	0	0	0	0	0	0	0	0
071019	13:00:36	13:11:22	644751	5.0.10.0	5_exp_RW	41	Rpleas_acq	CS_A	YFFY	LWWL	ZHHZ	JQQJ	CPPC	DXXD	träumen	vertrauen	genießen	sonnig	küssen	gütig	töten	versagen	gemein	sterben	krank	gierig	1	acq_USpleas_CSpleas2_RW	acq4567_RW	5	72	400	1	300	300	374	50	0	1	1	blank2r.bmp	0	1	+	0	1	blank2r.bmp	492	1	LWWL	492	1	blank2r.bmp	572	2	küssen	866	1	!	1239	1	!	1279	0	0	0	0	0	0	0	0	0	0	0	0	0	0	0	0	0	0	0	0	0	0	0	0	0	0	0	0	0	0
071019	13:00:36	13:11:24	646910	5.0.10.0	5_exp_RW	41	Rpleas_acq	CS_A	YFFY	LWWL	ZHHZ	JQQJ	CPPC	DXXD	träumen	vertrauen	genießen	sonnig	küssen	gütig	töten	versagen	gemein	sterben	krank	gierig	1	acq_USunple_CSunple1_RW	acq4567_RW	5	73	400	1	300	300	349	46	0	1	1	blank2r.bmp	0	1	+	0	1	blank2r.bmp	492	1	ZHHZ	492	1	blank2r.bmp	572	1	töten	866	1	!	1239	1	!	1252	0	0	0	0	0	0	0	0	0	0	0	0	0	0	0	0	0	0	0	0	0	0	0	0	0	0	0	0	0	0
071019	13:00:36	13:11:26	649163	5.0.10.0	5_exp_RW	41	Rpleas_acq	CS_A	YFFY	LWWL	ZHHZ	JQQJ	CPPC	DXXD	träumen	vertrauen	genießen	sonnig	küssen	gütig	töten	versagen	gemein	sterben	krank	gierig	1	acq_USunple_CSunple2_RW	acq4567_RW	5	74	400	1	300	300	455	46	0	1	1	blank2r.bmp	0	1	+	0	1	blank2r.bmp	492	1	JQQJ	492	1	blank2r.bmp	572	3	gierig	866	1	!	1239	1	!	1359	0	0	0	0	0	0	0	0	0	0	0	0	0	0	0	0	0	0	0	0	0	0	0	0	0	0	0	0	0	0
071019	13:00:36	13:11:28	651309	5.0.10.0	5_exp_RW	41	Rpleas_acq	CS_A	YFFY	LWWL	ZHHZ	JQQJ	CPPC	DXXD	träumen	vertrauen	genießen	sonnig	küssen	gütig	töten	versagen	gemein	sterben	krank	gierig	1	acq_USunple_CSunple1_RW	acq4567_RW	5	75	400	1	300	300	346	46	0	1	1	blank2r.bmp	0	1	+	0	1	blank2r.bmp	492	1	ZHHZ	492	1	blank2r.bmp	572	3	gemein	866	1	!	1239	1	!	1252	0	0	0	0	0	0	0	0	0	0	0	0	0	0	0	0	0	0	0	0	0	0	0	0	0	0	0	0	0	0
071019	13:00:36	13:11:30	653454	5.0.10.0	5_exp_RW	41	Rpleas_acq	CS_A	YFFY	LWWL	ZHHZ	JQQJ	CPPC	DXXD	träumen	vertrauen	genießen	sonnig	küssen	gütig	töten	versagen	gemein	sterben	krank	gierig	1	acq_USunple_CSunple1_RW	acq4567_RW	5	76	400	1	300	300	346	46	0	1	1	blank2r.bmp	0	1	+	0	1	blank2r.bmp	492	1	ZHHZ	492	1	blank2r.bmp	572	2	versagen	866	1	!	1239	1	!	1252	0	0	0	0	0	0	0	0	0	0	0	0	0	0	0	0	0	0	0	0	0	0	0	0	0	0	0	0	0	0
071019	13:00:36	13:11:33	655627	5.0.10.0	5_exp_RW	41	Rpleas_acq	CS_A	YFFY	LWWL	ZHHZ	JQQJ	CPPC	DXXD	träumen	vertrauen	genießen	sonnig	küssen	gütig	töten	versagen	gemein	sterben	krank	gierig	1	acq_USunple_CSunple1_RW	acq4567_RW	5	77	400	1	300	300	369	46	0	1	1	blank2r.bmp	0	1	+	0	1	blank2r.bmp	492	1	ZHHZ	492	1	blank2r.bmp	572	1	töten	866	1	!	1239	1	!	1266	0	0	0	0	0	0	0	0	0	0	0	0	0	0	0	0	0	0	0	0	0	0	0	0	0	0	0	0	0	0
071019	13:00:36	13:11:35	657813	5.0.10.0	5_exp_RW	41	Rpleas_acq	CS_A	YFFY	LWWL	ZHHZ	JQQJ	CPPC	DXXD	träumen	vertrauen	genießen	sonnig	küssen	gütig	töten	versagen	gemein	sterben	krank	gierig	1	acq_USpleas_CSpleas2_RW	acq4567_RW	5	78	400	1	300	300	393	50	0	1	1	blank2r.bmp	0	1	+	0	1	blank2r.bmp	492	1	LWWL	492	1	blank2r.bmp	572	3	gütig	866	1	!	1239	1	!	1292	0	0	0	0	0	0	0	0	0	0	0	0	0	0	0	0	0	0	0	0	0	0	0	0	0	0	0	0	0	0
071019	13:00:36	13:11:37	660025	5.0.10.0	5_exp_RW	41	Rpleas_acq	CS_A	YFFY	LWWL	ZHHZ	JQQJ	CPPC	DXXD	träumen	vertrauen	genießen	sonnig	küssen	gütig	töten	versagen	gemein	sterben	krank	gierig	1	acq_USpleas_CSpleas1_RW	acq4567_RW	5	79	400	1	300	300	416	50	0	1	1	blank2r.bmp	0	1	+	0	1	blank2r.bmp	492	1	YFFY	492	1	blank2r.bmp	572	1	träumen	866	1	!	1239	1	!	1319	0	0	0	0	0	0	0	0	0	0	0	0	0	0	0	0	0	0	0	0	0	0	0	0	0	0	0	0	0	0
071019	13:00:36	13:11:39	662091	5.0.10.0	5_exp_RW	41	Rpleas_acq	CS_A	YFFY	LWWL	ZHHZ	JQQJ	CPPC	DXXD	träumen	vertrauen	genießen	sonnig	küssen	gütig	töten	versagen	gemein	sterben	krank	gierig	1	acq_USpleas_CSpleas2_RW	acq4567_RW	5	80	400	0	300	300	301	50	0	1	1	blank2r.bmp	0	1	+	0	1	blank2r.bmp	492	1	LWWL	492	1	blank2r.bmp	572	2	küssen	866	1	!	-1	1	!	-1	0	0	0	0	0	0	0	0	0	0	0	0	0	0	0	0	0	0	0	0	0	0	0	0	0	0	0	0	0	0
071019	13:00:36	13:11:56	678751	5.0.10.0	5_exp_RW	41	Rpleas_acq	CS_A	YFFY	LWWL	ZHHZ	JQQJ	CPPC	DXXD	träumen	vertrauen	genießen	sonnig	küssen	gütig	töten	versagen	gemein	sterben	krank	gierig	1	acq_USpleas_CSpleas1_RW	acq4567_RW	6	1	400	1	300	300	430	46	0	0	1	blank2r.bmp	0	1	+	0	1	blank2r.bmp	492	1	YFFY	492	1	blank2r.bmp	572	3	genießen	866	1	!	1239	1	!	1332	0	0	0	0	0	0	0	0	0	0	0	0	0	0	0	0	0	0	0	0	0	0	0	0	0	0	0	0	0	0
071019	13:00:36	13:11:58	680977	5.0.10.0	5_exp_RW	41	Rpleas_acq	CS_A	YFFY	LWWL	ZHHZ	JQQJ	CPPC	DXXD	träumen	vertrauen	genießen	sonnig	küssen	gütig	töten	versagen	gemein	sterben	krank	gierig	1	acq_USunple_CSunple1_RW	acq4567_RW	6	2	400	1	300	300	435	50	0	0	1	blank2r.bmp	0	1	+	0	1	blank2r.bmp	492	1	ZHHZ	492	1	blank2r.bmp	572	3	gemein	866	1	!	1239	1	!	1332	0	0	0	0	0	0	0	0	0	0	0	0	0	0	0	0	0	0	0	0	0	0	0	0	0	0	0	0	0	0
071019	13:00:36	13:12:00	683189	5.0.10.0	5_exp_RW	41	Rpleas_acq	CS_A	YFFY	LWWL	ZHHZ	JQQJ	CPPC	DXXD	träumen	vertrauen	genießen	sonnig	küssen	gütig	töten	versagen	gemein	sterben	krank	gierig	1	acq_USunple_CSunple1_RW	acq4567_RW	6	3	400	1	300	300	417	46	0	1	1	blank2r.bmp	0	1	+	0	1	blank2r.bmp	492	1	ZHHZ	492	1	blank2r.bmp	572	2	versagen	866	1	!	1239	1	!	1319	0	0	0	0	0	0	0	0	0	0	0	0	0	0	0	0	0	0	0	0	0	0	0	0	0	0	0	0	0	0
071019	13:00:36	13:12:02	685348	5.0.10.0	5_exp_RW	41	Rpleas_acq	CS_A	YFFY	LWWL	ZHHZ	JQQJ	CPPC	DXXD	träumen	vertrauen	genießen	sonnig	küssen	gütig	töten	versagen	gemein	sterben	krank	gierig	1	acq_USunple_CSunple1_RW	acq4567_RW	6	4	400	1	300	300	346	46	0	1	1	blank2r.bmp	0	1	+	0	1	blank2r.bmp	492	1	ZHHZ	492	1	blank2r.bmp	572	3	gemein	866	1	!	1239	1	!	1252	0	0	0	0	0	0	0	0	0	0	0	0	0	0	0	0	0	0	0	0	0	0	0	0	0	0	0	0	0	0
071019	13:00:36	13:12:04	687427	5.0.10.0	5_exp_RW	41	Rpleas_acq	CS_A	YFFY	LWWL	ZHHZ	JQQJ	CPPC	DXXD	träumen	vertrauen	genießen	sonnig	küssen	gütig	töten	versagen	gemein	sterben	krank	gierig	1	acq_USunple_CSunple2_RW	acq4567_RW	6	5	400	0	300	300	309	46	0	1	1	blank2r.bmp	0	1	+	0	1	blank2r.bmp	492	1	JQQJ	492	1	blank2r.bmp	572	1	sterben	866	1	!	-1	1	!	-1	0	0	0	0	0	0	0	0	0	0	0	0	0	0	0	0	0	0	0	0	0	0	0	0	0	0	0	0	0	0
071019	13:00:36	13:12:07	689680	5.0.10.0	5_exp_RW	41	Rpleas_acq	CS_A	YFFY	LWWL	ZHHZ	JQQJ	CPPC	DXXD	träumen	vertrauen	genießen	sonnig	küssen	gütig	töten	versagen	gemein	sterben	krank	gierig	1	acq_USunple_CSunple1_RW	acq4567_RW	6	6	400	1	300	300	445	50	0	0	1	blank2r.bmp	0	1	+	0	1	blank2r.bmp	492	1	ZHHZ	492	1	blank2r.bmp	572	1	töten	866	1	!	1239	1	!	1346	0	0	0	0	0	0	0	0	0	0	0	0	0	0	0	0	0	0	0	0	0	0	0	0	0	0	0	0	0	0
071019	13:00:36	13:12:09	691986	5.0.10.0	5_exp_RW	41	Rpleas_acq	CS_A	YFFY	LWWL	ZHHZ	JQQJ	CPPC	DXXD	träumen	vertrauen	genießen	sonnig	küssen	gütig	töten	versagen	gemein	sterben	krank	gierig	1	acq_USpleas_CSpleas2_RW	acq4567_RW	6	7	400	0	300	300	520	50	0	1	1	blank2r.bmp	0	1	+	0	1	blank2r.bmp	492	1	LWWL	492	1	blank2r.bmp	572	1	sonnig	866	1	!	1239	1	!	-1	0	0	0	0	0	0	0	0	0	0	0	0	0	0	0	0	0	0	0	0	0	0	0	0	0	0	0	0	0	0
071019	13:00:36	13:12:11	694051	5.0.10.0	5_exp_RW	41	Rpleas_acq	CS_A	YFFY	LWWL	ZHHZ	JQQJ	CPPC	DXXD	träumen	vertrauen	genießen	sonnig	küssen	gütig	töten	versagen	gemein	sterben	krank	gierig	1	acq_USpleas_CSpleas2_RW	acq4567_RW	6	8	400	0	300	300	281	50	0	1	1	blank2r.bmp	0	1	+	0	1	blank2r.bmp	492	1	LWWL	492	1	blank2r.bmp	572	2	küssen	866	1	!	-1	1	!	-1	0	0	0	0	0	0	0	0	0	0	0	0	0	0	0	0	0	0	0	0	0	0	0	0	0	0	0	0	0	0
071019	13:00:36	13:12:13	696344	5.0.10.0	5_exp_RW	41	Rpleas_acq	CS_A	YFFY	LWWL	ZHHZ	JQQJ	CPPC	DXXD	träumen	vertrauen	genießen	sonnig	küssen	gütig	töten	versagen	gemein	sterben	krank	gierig	1	acq_USpleas_CSpleas1_RW	acq4567_RW	6	9	400	0	300	300	514	50	0	1	1	blank2r.bmp	0	1	+	0	1	blank2r.bmp	492	1	YFFY	492	1	blank2r.bmp	572	1	träumen	866	1	!	1239	1	!	-1	0	0	0	0	0	0	0	0	0	0	0	0	0	0	0	0	0	0	0	0	0	0	0	0	0	0	0	0	0	0
071019	13:00:36	13:12:16	698596	5.0.10.0	5_exp_RW	41	Rpleas_acq	CS_A	YFFY	LWWL	ZHHZ	JQQJ	CPPC	DXXD	träumen	vertrauen	genießen	sonnig	küssen	gütig	töten	versagen	gemein	sterben	krank	gierig	1	acq_USpleas_CSpleas1_RW	acq4567_RW	6	10	400	1	300	300	447	50	0	1	1	blank2r.bmp	0	1	+	0	1	blank2r.bmp	492	1	YFFY	492	1	blank2r.bmp	572	2	vertrauen	866	1	!	1239	1	!	1346	0	0	0	0	0	0	0	0	0	0	0	0	0	0	0	0	0	0	0	0	0	0	0	0	0	0	0	0	0	0
071019	13:00:36	13:12:18	700782	5.0.10.0	5_exp_RW	41	Rpleas_acq	CS_A	YFFY	LWWL	ZHHZ	JQQJ	CPPC	DXXD	träumen	vertrauen	genießen	sonnig	küssen	gütig	töten	versagen	gemein	sterben	krank	gierig	1	acq_USpleas_CSpleas2_RW	acq4567_RW	6	11	400	1	300	300	386	50	0	1	1	blank2r.bmp	0	1	+	0	1	blank2r.bmp	492	1	LWWL	492	1	blank2r.bmp	572	3	gütig	866	1	!	1239	1	!	1292	0	0	0	0	0	0	0	0	0	0	0	0	0	0	0	0	0	0	0	0	0	0	0	0	0	0	0	0	0	0
071019	13:00:36	13:12:20	702981	5.0.10.0	5_exp_RW	41	Rpleas_acq	CS_A	YFFY	LWWL	ZHHZ	JQQJ	CPPC	DXXD	träumen	vertrauen	genießen	sonnig	küssen	gütig	töten	versagen	gemein	sterben	krank	gierig	1	acq_USunple_CSunple2_RW	acq4567_RW	6	12	400	1	300	300	403	46	0	1	1	blank2r.bmp	0	1	+	0	1	blank2r.bmp	492	1	JQQJ	492	1	blank2r.bmp	572	1	sterben	866	1	!	1239	1	!	1306	0	0	0	0	0	0	0	0	0	0	0	0	0	0	0	0	0	0	0	0	0	0	0	0	0	0	0	0	0	0
071019	13:00:36	13:12:22	705220	5.0.10.0	5_exp_RW	41	Rpleas_acq	CS_A	YFFY	LWWL	ZHHZ	JQQJ	CPPC	DXXD	träumen	vertrauen	genießen	sonnig	küssen	gütig	töten	versagen	gemein	sterben	krank	gierig	1	acq_USunple_CSunple2_RW	acq4567_RW	6	13	400	1	300	300	444	46	0	1	1	blank2r.bmp	0	1	+	0	1	blank2r.bmp	492	1	JQQJ	492	1	blank2r.bmp	572	2	krank	866	1	!	1239	1	!	1346	0	0	0	0	0	0	0	0	0	0	0	0	0	0	0	0	0	0	0	0	0	0	0	0	0	0	0	0	0	0
