date	time	script.currenttime	script.elapsedtime	build	script.currentexpt	subject	expressions.LRpleas_acq	expressions.conditionCS_A	expressions.CSpleas_1	expressions.CSpleas_2	expressions.CSunple_1	expressions.CSunple_2	expressions.distractor_1	expressions.distractor_2	expressions.US_pleas1	expressions.US_pleas2	expressions.US_pleas3	expressions.US_pleas4	expressions.US_pleas5	expressions.US_pleas6	expressions.US_unple1	expressions.US_unple2	expressions.US_unple3	expressions.US_unple4	expressions.US_unple5	expressions.US_unple6	counter.positions_noRW	trialcode	blockcode	blocknum	trialnum	windowcenter	inwindow	pretrialpause	posttrialpause	latency	response	expressions.correctedscore	correct	stimulusnumber1	stimulusitem1	stimulusonset1	stimulusnumber2	stimulusitem2	stimulusonset2	stimulusnumber3	stimulusitem3	stimulusonset3	stimulusnumber4	stimulusitem4	stimulusonset4	stimulusnumber5	stimulusitem5	stimulusonset5	stimulusnumber6	stimulusitem6	stimulusonset6	stimulusnumber7	stimulusitem7	stimulusonset7	stimulusnumber8	stimulusitem8	stimulusonset8	stimulusnumber9	stimulusitem9	stimulusonset9	stimulusnumber10	stimulusitem10	stimulusonset10	stimulusnumber11	stimulusitem11	stimulusonset11	stimulusnumber12	stimulusitem12	stimulusonset12	stimulusnumber13	stimulusitem13	stimulusonset13	stimulusnumber14	stimulusitem14	stimulusonset14	stimulusnumber15	stimulusitem15	stimulusonset15	stimulusnumber16	stimulusitem16	stimulusonset16	stimulusnumber17	stimulusitem17	stimulusonset17	stimulusnumber18	stimulusitem18	stimulusonset18
071519	17:01:09	17:01:38	27491	5.0.10.0	5_exp_RW	999	Rpleas_acq	CS_B	BZZB	YDDY	GWWG	JXXJ	VKKV	MQQM	spielen	schön	treu	fair	ehrlich	retten	strafen	schlecht	tot	faul	eitel	rächen	1	acq_USpleas_CSpleas1_RW	acq1_RW	1	1	0	0	300	300	473	50	0	1	1	blank2r.bmp	0	1	+	0	1	blank2r.bmp	492	1	BZZB	492	1	blank2r.bmp	572	3	treu	866	0	0	0	0	0	0	0	0	0	0	0	0	0	0	0	0	0	0	0	0	0	0	0	0	0	0	0	0	0	0	0	0	0	0	0	0
071519	17:01:09	17:01:40	29436	5.0.10.0	5_exp_RW	999	Rpleas_acq	CS_B	BZZB	YDDY	GWWG	JXXJ	VKKV	MQQM	spielen	schön	treu	fair	ehrlich	retten	strafen	schlecht	tot	faul	eitel	rächen	1	acq_USpleas_CSpleas1_RW	acq1_RW	1	2	0	0	300	300	469	50	0	1	1	blank2r.bmp	0	1	+	0	1	blank2r.bmp	493	1	BZZB	493	1	blank2r.bmp	572	1	spielen	866	0	0	0	0	0	0	0	0	0	0	0	0	0	0	0	0	0	0	0	0	0	0	0	0	0	0	0	0	0	0	0	0	0	0	0	0
071519	17:01:09	17:01:42	31342	5.0.10.0	5_exp_RW	999	Rpleas_acq	CS_B	BZZB	YDDY	GWWG	JXXJ	VKKV	MQQM	spielen	schön	treu	fair	ehrlich	retten	strafen	schlecht	tot	faul	eitel	rächen	1	acq_USpleas_CSpleas2_RW	acq1_RW	1	3	0	0	300	300	424	50	0	1	1	blank2r.bmp	0	1	+	0	1	blank2r.bmp	492	1	YDDY	492	1	blank2r.bmp	572	3	retten	866	0	0	0	0	0	0	0	0	0	0	0	0	0	0	0	0	0	0	0	0	0	0	0	0	0	0	0	0	0	0	0	0	0	0	0	0
071519	17:01:09	17:01:44	33248	5.0.10.0	5_exp_RW	999	Rpleas_acq	CS_B	BZZB	YDDY	GWWG	JXXJ	VKKV	MQQM	spielen	schön	treu	fair	ehrlich	retten	strafen	schlecht	tot	faul	eitel	rächen	1	acq_USpleas_CSpleas2_RW	acq1_RW	1	4	0	0	300	300	439	50	0	1	1	blank2r.bmp	0	1	+	0	1	blank2r.bmp	492	1	YDDY	492	1	blank2r.bmp	572	2	ehrlich	866	0	0	0	0	0	0	0	0	0	0	0	0	0	0	0	0	0	0	0	0	0	0	0	0	0	0	0	0	0	0	0	0	0	0	0	0
071519	17:01:09	17:01:46	35087	5.0.10.0	5_exp_RW	999	Rpleas_acq	CS_B	BZZB	YDDY	GWWG	JXXJ	VKKV	MQQM	spielen	schön	treu	fair	ehrlich	retten	strafen	schlecht	tot	faul	eitel	rächen	1	acq_USpleas_CSpleas2_RW	acq1_RW	1	5	0	0	300	300	363	50	0	1	1	blank2r.bmp	0	1	+	0	1	blank2r.bmp	492	1	YDDY	492	1	blank2r.bmp	572	1	fair	866	0	0	0	0	0	0	0	0	0	0	0	0	0	0	0	0	0	0	0	0	0	0	0	0	0	0	0	0	0	0	0	0	0	0	0	0
071519	17:01:09	17:01:48	36873	5.0.10.0	5_exp_RW	999	Rpleas_acq	CS_B	BZZB	YDDY	GWWG	JXXJ	VKKV	MQQM	spielen	schön	treu	fair	ehrlich	retten	strafen	schlecht	tot	faul	eitel	rächen	1	acq_USunple_CSunple1_RW	acq1_RW	1	6	0	0	300	300	309	46	0	1	1	blank2r.bmp	0	1	+	0	1	blank2r.bmp	492	1	GWWG	492	1	blank2r.bmp	572	3	tot	866	0	0	0	0	0	0	0	0	0	0	0	0	0	0	0	0	0	0	0	0	0	0	0	0	0	0	0	0	0	0	0	0	0	0	0	0
071519	17:01:09	17:01:50	38806	5.0.10.0	5_exp_RW	999	Rpleas_acq	CS_B	BZZB	YDDY	GWWG	JXXJ	VKKV	MQQM	spielen	schön	treu	fair	ehrlich	retten	strafen	schlecht	tot	faul	eitel	rächen	1	acq_USunple_CSunple2_RW	acq1_RW	1	7	0	0	300	300	450	46	0	1	1	blank2r.bmp	0	1	+	0	1	blank2r.bmp	492	1	JXXJ	492	1	blank2r.bmp	572	3	rächen	866	0	0	0	0	0	0	0	0	0	0	0	0	0	0	0	0	0	0	0	0	0	0	0	0	0	0	0	0	0	0	0	0	0	0	0	0
071519	17:01:09	17:01:52	40632	5.0.10.0	5_exp_RW	999	Rpleas_acq	CS_B	BZZB	YDDY	GWWG	JXXJ	VKKV	MQQM	spielen	schön	treu	fair	ehrlich	retten	strafen	schlecht	tot	faul	eitel	rächen	1	acq_USunple_CSunple1_RW	acq1_RW	1	8	0	0	300	300	353	46	0	1	1	blank2r.bmp	0	1	+	0	1	blank2r.bmp	492	1	GWWG	492	1	blank2r.bmp	572	1	strafen	866	0	0	0	0	0	0	0	0	0	0	0	0	0	0	0	0	0	0	0	0	0	0	0	0	0	0	0	0	0	0	0	0	0	0	0	0
071519	17:01:09	17:01:53	42498	5.0.10.0	5_exp_RW	999	Rpleas_acq	CS_B	BZZB	YDDY	GWWG	JXXJ	VKKV	MQQM	spielen	schön	treu	fair	ehrlich	retten	strafen	schlecht	tot	faul	eitel	rächen	1	acq_USunple_CSunple2_RW	acq1_RW	1	9	0	0	300	300	395	46	0	1	1	blank2r.bmp	0	1	+	0	1	blank2r.bmp	492	1	JXXJ	492	1	blank2r.bmp	572	2	eitel	866	0	0	0	0	0	0	0	0	0	0	0	0	0	0	0	0	0	0	0	0	0	0	0	0	0	0	0	0	0	0	0	0	0	0	0	0
071519	17:01:09	17:01:55	44350	5.0.10.0	5_exp_RW	999	Rpleas_acq	CS_B	BZZB	YDDY	GWWG	JXXJ	VKKV	MQQM	spielen	schön	treu	fair	ehrlich	retten	strafen	schlecht	tot	faul	eitel	rächen	1	acq_USunple_CSunple1_RW	acq1_RW	1	10	0	0	300	300	384	46	0	1	1	blank2r.bmp	0	1	+	0	1	blank2r.bmp	492	1	GWWG	492	1	blank2r.bmp	572	2	schlecht	866	0	0	0	0	0	0	0	0	0	0	0	0	0	0	0	0	0	0	0	0	0	0	0	0	0	0	0	0	0	0	0	0	0	0	0	0
071519	17:01:09	17:01:57	46189	5.0.10.0	5_exp_RW	999	Rpleas_acq	CS_B	BZZB	YDDY	GWWG	JXXJ	VKKV	MQQM	spielen	schön	treu	fair	ehrlich	retten	strafen	schlecht	tot	faul	eitel	rächen	1	acq_USpleas_CSpleas1_RW	acq1_RW	1	11	0	0	300	300	358	50	0	1	1	blank2r.bmp	0	1	+	0	1	blank2r.bmp	492	1	BZZB	492	1	blank2r.bmp	572	2	schön	866	0	0	0	0	0	0	0	0	0	0	0	0	0	0	0	0	0	0	0	0	0	0	0	0	0	0	0	0	0	0	0	0	0	0	0	0
071519	17:01:09	17:01:59	48029	5.0.10.0	5_exp_RW	999	Rpleas_acq	CS_B	BZZB	YDDY	GWWG	JXXJ	VKKV	MQQM	spielen	schön	treu	fair	ehrlich	retten	strafen	schlecht	tot	faul	eitel	rächen	1	acq_USpleas_CSpleas1_RW	acq1_RW	1	12	0	0	300	300	362	50	0	1	1	blank2r.bmp	0	1	+	0	1	blank2r.bmp	492	1	BZZB	492	1	blank2r.bmp	572	3	treu	866	0	0	0	0	0	0	0	0	0	0	0	0	0	0	0	0	0	0	0	0	0	0	0	0	0	0	0	0	0	0	0	0	0	0	0	0
071519	17:01:09	17:02:01	49894	5.0.10.0	5_exp_RW	999	Rpleas_acq	CS_B	BZZB	YDDY	GWWG	JXXJ	VKKV	MQQM	spielen	schön	treu	fair	ehrlich	retten	strafen	schlecht	tot	faul	eitel	rächen	1	acq_USunple_CSunple2_RW	acq1_RW	1	13	0	0	300	300	394	46	0	1	1	blank2r.bmp	0	1	+	0	1	blank2r.bmp	492	1	JXXJ	492	1	blank2r.bmp	572	1	faul	866	0	0	0	0	0	0	0	0	0	0	0	0	0	0	0	0	0	0	0	0	0	0	0	0	0	0	0	0	0	0	0	0	0	0	0	0
071519	17:01:09	17:02:03	51760	5.0.10.0	5_exp_RW	999	Rpleas_acq	CS_B	BZZB	YDDY	GWWG	JXXJ	VKKV	MQQM	spielen	schön	treu	fair	ehrlich	retten	strafen	schlecht	tot	faul	eitel	rächen	1	acq_USpleas_CSpleas2_RW	acq1_RW	1	14	0	0	300	300	394	50	0	1	1	blank2r.bmp	0	1	+	0	1	blank2r.bmp	492	1	YDDY	492	1	blank2r.bmp	572	2	ehrlich	866	0	0	0	0	0	0	0	0	0	0	0	0	0	0	0	0	0	0	0	0	0	0	0	0	0	0	0	0	0	0	0	0	0	0	0	0
071519	17:01:09	17:02:04	53586	5.0.10.0	5_exp_RW	999	Rpleas_acq	CS_B	BZZB	YDDY	GWWG	JXXJ	VKKV	MQQM	spielen	schön	treu	fair	ehrlich	retten	strafen	schlecht	tot	faul	eitel	rächen	1	acq_USunple_CSunple1_RW	acq1_RW	1	15	0	0	300	300	345	46	0	1	1	blank2r.bmp	0	1	+	0	1	blank2r.bmp	492	1	GWWG	492	1	blank2r.bmp	572	3	tot	866	0	0	0	0	0	0	0	0	0	0	0	0	0	0	0	0	0	0	0	0	0	0	0	0	0	0	0	0	0	0	0	0	0	0	0	0
071519	17:01:09	17:02:06	55452	5.0.10.0	5_exp_RW	999	Rpleas_acq	CS_B	BZZB	YDDY	GWWG	JXXJ	VKKV	MQQM	spielen	schön	treu	fair	ehrlich	retten	strafen	schlecht	tot	faul	eitel	rächen	1	acq_USunple_CSunple2_RW	acq1_RW	1	16	0	0	300	300	389	46	0	1	1	blank2r.bmp	0	1	+	0	1	blank2r.bmp	492	1	JXXJ	492	1	blank2r.bmp	572	1	faul	866	0	0	0	0	0	0	0	0	0	0	0	0	0	0	0	0	0	0	0	0	0	0	0	0	0	0	0	0	0	0	0	0	0	0	0	0
071519	17:01:09	17:02:14	63196	5.0.10.0	5_exp_RW	999	Rpleas_acq	CS_B	BZZB	YDDY	GWWG	JXXJ	VKKV	MQQM	spielen	schön	treu	fair	ehrlich	retten	strafen	schlecht	tot	faul	eitel	rächen	1	acq_USpleas_CSpleas2_RW	acq2_RW	2	1	480	1	300	300	517	50	0	1	1	blank2r.bmp	0	1	+	0	1	blank2r.bmp	492	1	YDDY	492	1	blank2r.bmp	572	3	retten	866	1	!	1319	1	!	1426	0	0	0	0	0	0	0	0	0	0	0	0	0	0	0	0	0	0	0	0	0	0	0	0	0	0	0	0	0	0
071519	17:01:09	17:02:17	65674	5.0.10.0	5_exp_RW	999	Rpleas_acq	CS_B	BZZB	YDDY	GWWG	JXXJ	VKKV	MQQM	spielen	schön	treu	fair	ehrlich	retten	strafen	schlecht	tot	faul	eitel	rächen	1	acq_USunple_CSunple2_RW	acq2_RW	2	2	480	1	300	300	468	50	0	0	1	blank2r.bmp	0	1	+	0	1	blank2r.bmp	492	1	JXXJ	492	1	blank2r.bmp	572	2	eitel	866	1	FEHLER	1692	1	!	1319	1	!	1372	0	0	0	0	0	0	0	0	0	0	0	0	0	0	0	0	0	0	0	0	0	0	0	0	0	0	0
071519	17:01:09	17:02:19	67727	5.0.10.0	5_exp_RW	999	Rpleas_acq	CS_B	BZZB	YDDY	GWWG	JXXJ	VKKV	MQQM	spielen	schön	treu	fair	ehrlich	retten	strafen	schlecht	tot	faul	eitel	rächen	1	acq_USunple_CSunple1_RW	acq2_RW	2	3	480	1	300	300	478	46	0	1	1	blank2r.bmp	0	1	+	0	1	blank2r.bmp	492	1	GWWG	492	1	blank2r.bmp	572	2	schlecht	866	1	!	1319	1	!	1372	0	0	0	0	0	0	0	0	0	0	0	0	0	0	0	0	0	0	0	0	0	0	0	0	0	0	0	0	0	0
071519	17:01:09	17:02:21	70033	5.0.10.0	5_exp_RW	999	Rpleas_acq	CS_B	BZZB	YDDY	GWWG	JXXJ	VKKV	MQQM	spielen	schön	treu	fair	ehrlich	retten	strafen	schlecht	tot	faul	eitel	rächen	1	acq_USpleas_CSpleas1_RW	acq2_RW	2	4	480	1	300	300	515	50	0	1	1	blank2r.bmp	0	1	+	0	1	blank2r.bmp	492	1	BZZB	492	1	blank2r.bmp	572	1	spielen	866	1	!	1319	1	!	1412	0	0	0	0	0	0	0	0	0	0	0	0	0	0	0	0	0	0	0	0	0	0	0	0	0	0	0	0	0	0
071519	17:01:09	17:02:23	72258	5.0.10.0	5_exp_RW	999	Rpleas_acq	CS_B	BZZB	YDDY	GWWG	JXXJ	VKKV	MQQM	spielen	schön	treu	fair	ehrlich	retten	strafen	schlecht	tot	faul	eitel	rächen	1	acq_USpleas_CSpleas1_RW	acq2_RW	2	5	480	1	300	300	426	50	0	1	1	blank2r.bmp	0	1	+	0	1	blank2r.bmp	492	1	BZZB	492	1	blank2r.bmp	572	2	schön	866	1	!	1319	1	!	1332	0	0	0	0	0	0	0	0	0	0	0	0	0	0	0	0	0	0	0	0	0	0	0	0	0	0	0	0	0	0
071519	17:01:09	17:02:25	74484	5.0.10.0	5_exp_RW	999	Rpleas_acq	CS_B	BZZB	YDDY	GWWG	JXXJ	VKKV	MQQM	spielen	schön	treu	fair	ehrlich	retten	strafen	schlecht	tot	faul	eitel	rächen	1	acq_USunple_CSunple1_RW	acq2_RW	2	6	480	1	300	300	426	46	0	1	1	blank2r.bmp	0	1	+	0	1	blank2r.bmp	493	1	GWWG	493	1	blank2r.bmp	572	1	strafen	866	1	!	1319	1	!	1332	0	0	0	0	0	0	0	0	0	0	0	0	0	0	0	0	0	0	0	0	0	0	0	0	0	0	0	0	0	0
071519	17:01:09	17:02:28	76723	5.0.10.0	5_exp_RW	999	Rpleas_acq	CS_B	BZZB	YDDY	GWWG	JXXJ	VKKV	MQQM	spielen	schön	treu	fair	ehrlich	retten	strafen	schlecht	tot	faul	eitel	rächen	1	acq_USpleas_CSpleas2_RW	acq2_RW	2	7	480	1	300	300	450	50	0	1	1	blank2r.bmp	0	1	+	0	1	blank2r.bmp	492	1	YDDY	492	1	blank2r.bmp	572	1	fair	866	1	!	1319	1	!	1346	0	0	0	0	0	0	0	0	0	0	0	0	0	0	0	0	0	0	0	0	0	0	0	0	0	0	0	0	0	0
071519	17:01:09	17:02:30	78989	5.0.10.0	5_exp_RW	999	Rpleas_acq	CS_B	BZZB	YDDY	GWWG	JXXJ	VKKV	MQQM	spielen	schön	treu	fair	ehrlich	retten	strafen	schlecht	tot	faul	eitel	rächen	1	acq_USunple_CSunple1_RW	acq2_RW	2	8	480	1	300	300	476	46	0	1	1	blank2r.bmp	0	1	+	0	1	blank2r.bmp	492	1	GWWG	492	1	blank2r.bmp	572	1	strafen	866	1	!	1319	1	!	1372	0	0	0	0	0	0	0	0	0	0	0	0	0	0	0	0	0	0	0	0	0	0	0	0	0	0	0	0	0	0
071519	17:01:09	17:02:32	81361	5.0.10.0	5_exp_RW	999	Rpleas_acq	CS_B	BZZB	YDDY	GWWG	JXXJ	VKKV	MQQM	spielen	schön	treu	fair	ehrlich	retten	strafen	schlecht	tot	faul	eitel	rächen	1	acq_USpleas_CSpleas2_RW	acq2_RW	2	9	480	0	300	300	373	46	0	0	1	blank2r.bmp	0	1	+	0	1	blank2r.bmp	492	1	YDDY	492	1	blank2r.bmp	572	1	fair	866	1	FEHLER	1585	1	!	-1	1	!	-1	0	0	0	0	0	0	0	0	0	0	0	0	0	0	0	0	0	0	0	0	0	0	0	0	0	0	0
071519	17:01:09	17:02:34	83454	5.0.10.0	5_exp_RW	999	Rpleas_acq	CS_B	BZZB	YDDY	GWWG	JXXJ	VKKV	MQQM	spielen	schön	treu	fair	ehrlich	retten	strafen	schlecht	tot	faul	eitel	rächen	1	acq_USunple_CSunple2_RW	acq2_RW	2	10	480	1	300	300	515	46	0	1	1	blank2r.bmp	0	1	+	0	1	blank2r.bmp	492	1	JXXJ	492	1	blank2r.bmp	572	3	rächen	866	1	!	1319	1	!	1412	0	0	0	0	0	0	0	0	0	0	0	0	0	0	0	0	0	0	0	0	0	0	0	0	0	0	0	0	0	0
071519	17:01:09	17:02:37	85773	5.0.10.0	5_exp_RW	999	Rpleas_acq	CS_B	BZZB	YDDY	GWWG	JXXJ	VKKV	MQQM	spielen	schön	treu	fair	ehrlich	retten	strafen	schlecht	tot	faul	eitel	rächen	1	acq_USunple_CSunple1_RW	acq2_RW	2	11	480	1	300	300	520	46	0	1	1	blank2r.bmp	0	1	+	0	1	blank2r.bmp	492	1	GWWG	492	1	blank2r.bmp	572	3	tot	866	1	!	1319	1	!	1426	0	0	0	0	0	0	0	0	0	0	0	0	0	0	0	0	0	0	0	0	0	0	0	0	0	0	0	0	0	0
071519	17:01:09	17:02:39	87998	5.0.10.0	5_exp_RW	999	Rpleas_acq	CS_B	BZZB	YDDY	GWWG	JXXJ	VKKV	MQQM	spielen	schön	treu	fair	ehrlich	retten	strafen	schlecht	tot	faul	eitel	rächen	1	acq_USpleas_CSpleas1_RW	acq2_RW	2	12	480	1	300	300	426	50	0	1	1	blank2r.bmp	0	1	+	0	1	blank2r.bmp	492	1	BZZB	492	1	blank2r.bmp	572	2	schön	866	1	!	1319	1	!	1332	0	0	0	0	0	0	0	0	0	0	0	0	0	0	0	0	0	0	0	0	0	0	0	0	0	0	0	0	0	0
071519	17:01:09	17:02:41	90277	5.0.10.0	5_exp_RW	999	Rpleas_acq	CS_B	BZZB	YDDY	GWWG	JXXJ	VKKV	MQQM	spielen	schön	treu	fair	ehrlich	retten	strafen	schlecht	tot	faul	eitel	rächen	1	acq_USunple_CSunple1_RW	acq2_RW	2	13	480	1	300	300	492	46	0	1	1	blank2r.bmp	0	1	+	0	1	blank2r.bmp	492	1	GWWG	492	1	blank2r.bmp	572	2	schlecht	866	1	!	1319	1	!	1386	0	0	0	0	0	0	0	0	0	0	0	0	0	0	0	0	0	0	0	0	0	0	0	0	0	0	0	0	0	0
071519	17:01:09	17:02:43	92463	5.0.10.0	5_exp_RW	999	Rpleas_acq	CS_B	BZZB	YDDY	GWWG	JXXJ	VKKV	MQQM	spielen	schön	treu	fair	ehrlich	retten	strafen	schlecht	tot	faul	eitel	rächen	1	acq_USpleas_CSpleas1_RW	acq2_RW	2	14	480	0	300	300	410	50	0	1	1	blank2r.bmp	0	1	+	0	1	blank2r.bmp	492	1	BZZB	492	1	blank2r.bmp	572	1	spielen	866	1	!	-1	1	!	-1	0	0	0	0	0	0	0	0	0	0	0	0	0	0	0	0	0	0	0	0	0	0	0	0	0	0	0	0	0	0
071519	17:01:09	17:02:46	94755	5.0.10.0	5_exp_RW	999	Rpleas_acq	CS_B	BZZB	YDDY	GWWG	JXXJ	VKKV	MQQM	spielen	schön	treu	fair	ehrlich	retten	strafen	schlecht	tot	faul	eitel	rächen	1	acq_USpleas_CSpleas1_RW	acq2_RW	2	15	480	1	300	300	504	50	0	1	1	blank2r.bmp	0	1	+	0	1	blank2r.bmp	492	1	BZZB	492	1	blank2r.bmp	573	3	treu	866	1	!	1319	1	!	1399	0	0	0	0	0	0	0	0	0	0	0	0	0	0	0	0	0	0	0	0	0	0	0	0	0	0	0	0	0	0
071519	17:01:09	17:02:48	97154	5.0.10.0	5_exp_RW	999	Rpleas_acq	CS_B	BZZB	YDDY	GWWG	JXXJ	VKKV	MQQM	spielen	schön	treu	fair	ehrlich	retten	strafen	schlecht	tot	faul	eitel	rächen	1	acq_USpleas_CSpleas2_RW	acq2_RW	2	16	480	0	300	300	627	50	0	1	1	blank2r.bmp	0	1	+	0	1	blank2r.bmp	492	1	YDDY	492	1	blank2r.bmp	572	3	retten	866	1	!	1319	1	!	-1	0	0	0	0	0	0	0	0	0	0	0	0	0	0	0	0	0	0	0	0	0	0	0	0	0	0	0	0	0	0
071519	17:01:09	17:02:50	99447	5.0.10.0	5_exp_RW	999	Rpleas_acq	CS_B	BZZB	YDDY	GWWG	JXXJ	VKKV	MQQM	spielen	schön	treu	fair	ehrlich	retten	strafen	schlecht	tot	faul	eitel	rächen	1	acq_USunple_CSunple2_RW	acq2_RW	2	17	480	1	300	300	485	46	0	1	1	blank2r.bmp	0	1	+	0	1	blank2r.bmp	492	1	JXXJ	492	1	blank2r.bmp	572	3	rächen	866	1	!	1319	1	!	1386	0	0	0	0	0	0	0	0	0	0	0	0	0	0	0	0	0	0	0	0	0	0	0	0	0	0	0	0	0	0
071519	17:01:09	17:02:53	101673	5.0.10.0	5_exp_RW	999	Rpleas_acq	CS_B	BZZB	YDDY	GWWG	JXXJ	VKKV	MQQM	spielen	schön	treu	fair	ehrlich	retten	strafen	schlecht	tot	faul	eitel	rächen	1	acq_USpleas_CSpleas2_RW	acq2_RW	2	18	480	1	300	300	426	50	0	1	1	blank2r.bmp	0	1	+	0	1	blank2r.bmp	492	1	YDDY	492	1	blank2r.bmp	572	2	ehrlich	866	1	!	1319	1	!	1332	0	0	0	0	0	0	0	0	0	0	0	0	0	0	0	0	0	0	0	0	0	0	0	0	0	0	0	0	0	0
071519	17:01:09	17:02:55	103912	5.0.10.0	5_exp_RW	999	Rpleas_acq	CS_B	BZZB	YDDY	GWWG	JXXJ	VKKV	MQQM	spielen	schön	treu	fair	ehrlich	retten	strafen	schlecht	tot	faul	eitel	rächen	1	acq_USpleas_CSpleas1_RW	acq2_RW	2	19	480	1	300	300	448	50	0	1	1	blank2r.bmp	0	1	+	0	1	blank2r.bmp	492	1	BZZB	492	1	blank2r.bmp	572	2	schön	866	1	!	1319	1	!	1346	0	0	0	0	0	0	0	0	0	0	0	0	0	0	0	0	0	0	0	0	0	0	0	0	0	0	0	0	0	0
071519	17:01:09	17:02:57	106137	5.0.10.0	5_exp_RW	999	Rpleas_acq	CS_B	BZZB	YDDY	GWWG	JXXJ	VKKV	MQQM	spielen	schön	treu	fair	ehrlich	retten	strafen	schlecht	tot	faul	eitel	rächen	1	acq_USunple_CSunple2_RW	acq2_RW	2	20	480	1	300	300	426	46	0	1	1	blank2r.bmp	0	1	+	0	1	blank2r.bmp	492	1	JXXJ	492	1	blank2r.bmp	573	1	faul	866	1	!	1319	1	!	1332	0	0	0	0	0	0	0	0	0	0	0	0	0	0	0	0	0	0	0	0	0	0	0	0	0	0	0	0	0	0
071519	17:01:09	17:02:59	108310	5.0.10.0	5_exp_RW	999	Rpleas_acq	CS_B	BZZB	YDDY	GWWG	JXXJ	VKKV	MQQM	spielen	schön	treu	fair	ehrlich	retten	strafen	schlecht	tot	faul	eitel	rächen	1	acq_USunple_CSunple1_RW	acq2_RW	2	21	480	0	300	300	409	46	0	1	1	blank2r.bmp	0	1	+	0	1	blank2r.bmp	492	1	GWWG	492	1	blank2r.bmp	572	3	tot	866	1	!	-1	1	!	-1	0	0	0	0	0	0	0	0	0	0	0	0	0	0	0	0	0	0	0	0	0	0	0	0	0	0	0	0	0	0
071519	17:01:09	17:03:01	110575	5.0.10.0	5_exp_RW	999	Rpleas_acq	CS_B	BZZB	YDDY	GWWG	JXXJ	VKKV	MQQM	spielen	schön	treu	fair	ehrlich	retten	strafen	schlecht	tot	faul	eitel	rächen	1	acq_USunple_CSunple2_RW	acq2_RW	2	22	480	1	300	300	464	46	0	1	1	blank2r.bmp	0	1	+	0	1	blank2r.bmp	492	1	JXXJ	492	1	blank2r.bmp	572	2	eitel	866	1	!	1319	1	!	1359	0	0	0	0	0	0	0	0	0	0	0	0	0	0	0	0	0	0	0	0	0	0	0	0	0	0	0	0	0	0
071519	17:01:09	17:03:04	112801	5.0.10.0	5_exp_RW	999	Rpleas_acq	CS_B	BZZB	YDDY	GWWG	JXXJ	VKKV	MQQM	spielen	schön	treu	fair	ehrlich	retten	strafen	schlecht	tot	faul	eitel	rächen	1	acq_USpleas_CSpleas2_RW	acq2_RW	2	23	480	1	300	300	435	50	0	1	1	blank2r.bmp	0	1	+	0	1	blank2r.bmp	492	1	YDDY	492	1	blank2r.bmp	572	2	ehrlich	866	1	!	1319	1	!	1332	0	0	0	0	0	0	0	0	0	0	0	0	0	0	0	0	0	0	0	0	0	0	0	0	0	0	0	0	0	0
071519	17:01:09	17:03:06	115027	5.0.10.0	5_exp_RW	999	Rpleas_acq	CS_B	BZZB	YDDY	GWWG	JXXJ	VKKV	MQQM	spielen	schön	treu	fair	ehrlich	retten	strafen	schlecht	tot	faul	eitel	rächen	1	acq_USunple_CSunple2_RW	acq2_RW	2	24	480	1	300	300	426	46	0	1	1	blank2r.bmp	0	1	+	0	1	blank2r.bmp	492	1	JXXJ	492	1	blank2r.bmp	572	3	rächen	869	1	!	1319	1	!	1332	0	0	0	0	0	0	0	0	0	0	0	0	0	0	0	0	0	0	0	0	0	0	0	0	0	0	0	0	0	0
071519	17:01:09	17:03:14	123290	5.0.10.0	5_exp_RW	999	Rpleas_acq	CS_B	BZZB	YDDY	GWWG	JXXJ	VKKV	MQQM	spielen	schön	treu	fair	ehrlich	retten	strafen	schlecht	tot	faul	eitel	rächen	1	acq_USpleas_CSpleas2_RW	acq3_RW	3	1	453	1	300	300	457	50	0	1	1	blank2r.bmp	0	1	+	0	1	blank2r.bmp	492	1	YDDY	492	1	blank2r.bmp	572	1	fair	866	1	!	1292	1	!	1359	0	0	0	0	0	0	0	0	0	0	0	0	0	0	0	0	0	0	0	0	0	0	0	0	0	0	0	0	0	0
071519	17:01:09	17:03:16	125556	5.0.10.0	5_exp_RW	999	Rpleas_acq	CS_B	BZZB	YDDY	GWWG	JXXJ	VKKV	MQQM	spielen	schön	treu	fair	ehrlich	retten	strafen	schlecht	tot	faul	eitel	rächen	1	acq_USpleas_CSpleas2_RW	acq3_RW	3	2	453	1	300	300	474	50	0	1	1	blank2r.bmp	0	1	+	0	1	blank2r.bmp	492	1	YDDY	492	1	blank2r.bmp	572	3	retten	866	1	!	1292	1	!	1372	0	0	0	0	0	0	0	0	0	0	0	0	0	0	0	0	0	0	0	0	0	0	0	0	0	0	0	0	0	0
071519	17:01:09	17:03:19	127808	5.0.10.0	5_exp_RW	999	Rpleas_acq	CS_B	BZZB	YDDY	GWWG	JXXJ	VKKV	MQQM	spielen	schön	treu	fair	ehrlich	retten	strafen	schlecht	tot	faul	eitel	rächen	1	acq_USpleas_CSpleas1_RW	acq3_RW	3	3	453	1	300	300	460	50	0	1	1	blank2r.bmp	0	1	+	0	1	blank2r.bmp	492	1	BZZB	492	1	blank2r.bmp	572	3	treu	866	1	!	1292	1	!	1359	0	0	0	0	0	0	0	0	0	0	0	0	0	0	0	0	0	0	0	0	0	0	0	0	0	0	0	0	0	0
071519	17:01:09	17:03:21	130074	5.0.10.0	5_exp_RW	999	Rpleas_acq	CS_B	BZZB	YDDY	GWWG	JXXJ	VKKV	MQQM	spielen	schön	treu	fair	ehrlich	retten	strafen	schlecht	tot	faul	eitel	rächen	1	acq_USunple_CSunple1_RW	acq3_RW	3	4	453	1	300	300	467	46	0	1	1	blank2r.bmp	0	1	+	0	1	blank2r.bmp	492	1	GWWG	492	1	blank2r.bmp	572	1	strafen	866	1	!	1292	1	!	1372	0	0	0	0	0	0	0	0	0	0	0	0	0	0	0	0	0	0	0	0	0	0	0	0	0	0	0	0	0	0
071519	17:01:09	17:03:23	132313	5.0.10.0	5_exp_RW	999	Rpleas_acq	CS_B	BZZB	YDDY	GWWG	JXXJ	VKKV	MQQM	spielen	schön	treu	fair	ehrlich	retten	strafen	schlecht	tot	faul	eitel	rächen	1	acq_USunple_CSunple1_RW	acq3_RW	3	5	453	1	300	300	449	46	0	1	1	blank2r.bmp	0	1	+	0	1	blank2r.bmp	492	1	GWWG	492	1	blank2r.bmp	572	2	schlecht	866	1	!	1292	1	!	1346	0	0	0	0	0	0	0	0	0	0	0	0	0	0	0	0	0	0	0	0	0	0	0	0	0	0	0	0	0	0
071519	17:01:09	17:03:25	134592	5.0.10.0	5_exp_RW	999	Rpleas_acq	CS_B	BZZB	YDDY	GWWG	JXXJ	VKKV	MQQM	spielen	schön	treu	fair	ehrlich	retten	strafen	schlecht	tot	faul	eitel	rächen	1	acq_USunple_CSunple1_RW	acq3_RW	3	6	453	1	300	300	481	46	0	1	1	blank2r.bmp	0	1	+	0	1	blank2r.bmp	492	1	GWWG	492	1	blank2r.bmp	572	3	tot	866	1	!	1292	1	!	1386	0	0	0	0	0	0	0	0	0	0	0	0	0	0	0	0	0	0	0	0	0	0	0	0	0	0	0	0	0	0
071519	17:01:09	17:03:28	136791	5.0.10.0	5_exp_RW	999	Rpleas_acq	CS_B	BZZB	YDDY	GWWG	JXXJ	VKKV	MQQM	spielen	schön	treu	fair	ehrlich	retten	strafen	schlecht	tot	faul	eitel	rächen	1	acq_USunple_CSunple1_RW	acq3_RW	3	7	453	1	300	300	399	46	0	1	1	blank2r.bmp	0	1	+	0	1	blank2r.bmp	493	1	GWWG	493	1	blank2r.bmp	572	2	schlecht	866	1	!	1292	1	!	1306	0	0	0	0	0	0	0	0	0	0	0	0	0	0	0	0	0	0	0	0	0	0	0	0	0	0	0	0	0	0
071519	17:01:09	17:03:30	139030	5.0.10.0	5_exp_RW	999	Rpleas_acq	CS_B	BZZB	YDDY	GWWG	JXXJ	VKKV	MQQM	spielen	schön	treu	fair	ehrlich	retten	strafen	schlecht	tot	faul	eitel	rächen	1	acq_USunple_CSunple2_RW	acq3_RW	3	8	453	1	300	300	451	46	0	1	1	blank2r.bmp	0	1	+	0	1	blank2r.bmp	492	1	JXXJ	492	1	blank2r.bmp	572	1	faul	866	1	!	1292	1	!	1346	0	0	0	0	0	0	0	0	0	0	0	0	0	0	0	0	0	0	0	0	0	0	0	0	0	0	0	0	0	0
071519	17:01:09	17:03:32	141282	5.0.10.0	5_exp_RW	999	Rpleas_acq	CS_B	BZZB	YDDY	GWWG	JXXJ	VKKV	MQQM	spielen	schön	treu	fair	ehrlich	retten	strafen	schlecht	tot	faul	eitel	rächen	1	acq_USpleas_CSpleas1_RW	acq3_RW	3	9	453	1	300	300	453	50	0	1	1	blank2r.bmp	0	1	+	0	1	blank2r.bmp	492	1	BZZB	492	1	blank2r.bmp	572	1	spielen	866	1	!	1292	1	!	1359	0	0	0	0	0	0	0	0	0	0	0	0	0	0	0	0	0	0	0	0	0	0	0	0	0	0	0	0	0	0
071519	17:01:09	17:03:34	143548	5.0.10.0	5_exp_RW	999	Rpleas_acq	CS_B	BZZB	YDDY	GWWG	JXXJ	VKKV	MQQM	spielen	schön	treu	fair	ehrlich	retten	strafen	schlecht	tot	faul	eitel	rächen	1	acq_USpleas_CSpleas1_RW	acq3_RW	3	10	453	1	300	300	469	50	0	1	1	blank2r.bmp	0	1	+	0	1	blank2r.bmp	492	1	BZZB	492	1	blank2r.bmp	572	2	schön	866	1	!	1292	1	!	1372	0	0	0	0	0	0	0	0	0	0	0	0	0	0	0	0	0	0	0	0	0	0	0	0	0	0	0	0	0	0
071519	17:01:09	17:03:37	145801	5.0.10.0	5_exp_RW	999	Rpleas_acq	CS_B	BZZB	YDDY	GWWG	JXXJ	VKKV	MQQM	spielen	schön	treu	fair	ehrlich	retten	strafen	schlecht	tot	faul	eitel	rächen	1	acq_USpleas_CSpleas1_RW	acq3_RW	3	11	453	1	300	300	454	50	0	1	1	blank2r.bmp	0	1	+	0	1	blank2r.bmp	492	1	BZZB	492	1	blank2r.bmp	572	1	spielen	866	1	!	1292	1	!	1359	0	0	0	0	0	0	0	0	0	0	0	0	0	0	0	0	0	0	0	0	0	0	0	0	0	0	0	0	0	0
071519	17:01:09	17:03:39	148093	5.0.10.0	5_exp_RW	999	Rpleas_acq	CS_B	BZZB	YDDY	GWWG	JXXJ	VKKV	MQQM	spielen	schön	treu	fair	ehrlich	retten	strafen	schlecht	tot	faul	eitel	rächen	1	acq_USpleas_CSpleas1_RW	acq3_RW	3	12	453	1	300	300	503	50	0	1	1	blank2r.bmp	0	1	+	0	1	blank2r.bmp	492	1	BZZB	492	1	blank2r.bmp	572	3	treu	866	1	!	1292	1	!	1399	0	0	0	0	0	0	0	0	0	0	0	0	0	0	0	0	0	0	0	0	0	0	0	0	0	0	0	0	0	0
071519	17:01:09	17:03:41	150598	5.0.10.0	5_exp_RW	999	Rpleas_acq	CS_B	BZZB	YDDY	GWWG	JXXJ	VKKV	MQQM	spielen	schön	treu	fair	ehrlich	retten	strafen	schlecht	tot	faul	eitel	rächen	1	acq_USunple_CSunple2_RW	acq3_RW	3	13	453	1	300	300	503	50	0	0	1	blank2r.bmp	0	1	+	0	1	blank2r.bmp	493	1	JXXJ	493	1	blank2r.bmp	572	2	eitel	866	1	FEHLER	1719	1	!	1292	1	!	1399	0	0	0	0	0	0	0	0	0	0	0	0	0	0	0	0	0	0	0	0	0	0	0	0	0	0	0
071519	17:01:09	17:03:44	152638	5.0.10.0	5_exp_RW	999	Rpleas_acq	CS_B	BZZB	YDDY	GWWG	JXXJ	VKKV	MQQM	spielen	schön	treu	fair	ehrlich	retten	strafen	schlecht	tot	faul	eitel	rächen	1	acq_USpleas_CSpleas2_RW	acq3_RW	3	14	453	1	300	300	454	50	0	1	1	blank2r.bmp	0	1	+	0	1	blank2r.bmp	492	1	YDDY	492	1	blank2r.bmp	572	3	retten	866	1	!	1292	1	!	1359	0	0	0	0	0	0	0	0	0	0	0	0	0	0	0	0	0	0	0	0	0	0	0	0	0	0	0	0	0	0
071519	17:01:09	17:03:46	154850	5.0.10.0	5_exp_RW	999	Rpleas_acq	CS_B	BZZB	YDDY	GWWG	JXXJ	VKKV	MQQM	spielen	schön	treu	fair	ehrlich	retten	strafen	schlecht	tot	faul	eitel	rächen	1	acq_USunple_CSunple1_RW	acq3_RW	3	15	453	1	300	300	419	46	0	1	1	blank2r.bmp	0	1	+	0	1	blank2r.bmp	492	1	GWWG	492	1	blank2r.bmp	572	1	strafen	866	1	!	1292	1	!	1319	0	0	0	0	0	0	0	0	0	0	0	0	0	0	0	0	0	0	0	0	0	0	0	0	0	0	0	0	0	0
071519	17:01:09	17:03:48	157169	5.0.10.0	5_exp_RW	999	Rpleas_acq	CS_B	BZZB	YDDY	GWWG	JXXJ	VKKV	MQQM	spielen	schön	treu	fair	ehrlich	retten	strafen	schlecht	tot	faul	eitel	rächen	1	acq_USpleas_CSpleas2_RW	acq3_RW	3	16	453	0	300	300	553	50	0	1	1	blank2r.bmp	0	1	+	0	1	blank2r.bmp	492	1	YDDY	492	1	blank2r.bmp	572	2	ehrlich	866	1	!	1292	1	!	-1	0	0	0	0	0	0	0	0	0	0	0	0	0	0	0	0	0	0	0	0	0	0	0	0	0	0	0	0	0	0
071519	17:01:09	17:03:50	159461	5.0.10.0	5_exp_RW	999	Rpleas_acq	CS_B	BZZB	YDDY	GWWG	JXXJ	VKKV	MQQM	spielen	schön	treu	fair	ehrlich	retten	strafen	schlecht	tot	faul	eitel	rächen	1	acq_USpleas_CSpleas2_RW	acq3_RW	3	17	453	1	300	300	488	50	0	1	1	blank2r.bmp	0	1	+	0	1	blank2r.bmp	492	1	YDDY	492	1	blank2r.bmp	572	1	fair	866	1	!	1292	1	!	1386	0	0	0	0	0	0	0	0	0	0	0	0	0	0	0	0	0	0	0	0	0	0	0	0	0	0	0	0	0	0
071519	17:01:09	17:03:53	161727	5.0.10.0	5_exp_RW	999	Rpleas_acq	CS_B	BZZB	YDDY	GWWG	JXXJ	VKKV	MQQM	spielen	schön	treu	fair	ehrlich	retten	strafen	schlecht	tot	faul	eitel	rächen	1	acq_USpleas_CSpleas1_RW	acq3_RW	3	18	453	1	300	300	477	50	0	1	1	blank2r.bmp	0	1	+	0	1	blank2r.bmp	492	1	BZZB	492	1	blank2r.bmp	572	1	spielen	866	1	!	1292	1	!	1372	0	0	0	0	0	0	0	0	0	0	0	0	0	0	0	0	0	0	0	0	0	0	0	0	0	0	0	0	0	0
071519	17:01:09	17:03:55	163926	5.0.10.0	5_exp_RW	999	Rpleas_acq	CS_B	BZZB	YDDY	GWWG	JXXJ	VKKV	MQQM	spielen	schön	treu	fair	ehrlich	retten	strafen	schlecht	tot	faul	eitel	rächen	1	acq_USunple_CSunple1_RW	acq3_RW	3	19	453	1	300	300	411	46	0	1	1	blank2r.bmp	0	1	+	0	1	blank2r.bmp	492	1	GWWG	492	1	blank2r.bmp	572	2	schlecht	866	1	!	1292	1	!	1306	0	0	0	0	0	0	0	0	0	0	0	0	0	0	0	0	0	0	0	0	0	0	0	0	0	0	0	0	0	0
071519	17:01:09	17:03:57	166165	5.0.10.0	5_exp_RW	999	Rpleas_acq	CS_B	BZZB	YDDY	GWWG	JXXJ	VKKV	MQQM	spielen	schön	treu	fair	ehrlich	retten	strafen	schlecht	tot	faul	eitel	rächen	1	acq_USunple_CSunple2_RW	acq3_RW	3	20	453	1	300	300	450	46	0	1	1	blank2r.bmp	0	1	+	0	1	blank2r.bmp	492	1	JXXJ	492	1	blank2r.bmp	572	3	rächen	866	1	!	1292	1	!	1346	0	0	0	0	0	0	0	0	0	0	0	0	0	0	0	0	0	0	0	0	0	0	0	0	0	0	0	0	0	0
071519	17:01:09	17:03:59	168378	5.0.10.0	5_exp_RW	999	Rpleas_acq	CS_B	BZZB	YDDY	GWWG	JXXJ	VKKV	MQQM	spielen	schön	treu	fair	ehrlich	retten	strafen	schlecht	tot	faul	eitel	rächen	1	acq_USunple_CSunple2_RW	acq3_RW	3	21	453	1	300	300	424	46	0	1	1	blank2r.bmp	0	1	+	0	1	blank2r.bmp	492	1	JXXJ	492	1	blank2r.bmp	572	2	eitel	866	1	!	1292	1	!	1319	0	0	0	0	0	0	0	0	0	0	0	0	0	0	0	0	0	0	0	0	0	0	0	0	0	0	0	0	0	0
071519	17:01:09	17:04:01	170590	5.0.10.0	5_exp_RW	999	Rpleas_acq	CS_B	BZZB	YDDY	GWWG	JXXJ	VKKV	MQQM	spielen	schön	treu	fair	ehrlich	retten	strafen	schlecht	tot	faul	eitel	rächen	1	acq_USunple_CSunple2_RW	acq3_RW	3	22	453	1	300	300	413	46	0	1	1	blank2r.bmp	0	1	+	0	1	blank2r.bmp	492	1	JXXJ	492	1	blank2r.bmp	572	1	faul	866	1	!	1292	1	!	1319	0	0	0	0	0	0	0	0	0	0	0	0	0	0	0	0	0	0	0	0	0	0	0	0	0	0	0	0	0	0
071519	17:01:09	17:04:04	172762	5.0.10.0	5_exp_RW	999	Rpleas_acq	CS_B	BZZB	YDDY	GWWG	JXXJ	VKKV	MQQM	spielen	schön	treu	fair	ehrlich	retten	strafen	schlecht	tot	faul	eitel	rächen	1	acq_USpleas_CSpleas2_RW	acq3_RW	3	23	453	0	300	300	386	50	0	1	1	blank2r.bmp	0	1	+	0	1	blank2r.bmp	492	1	YDDY	492	1	blank2r.bmp	572	3	retten	866	1	!	-1	1	!	-1	0	0	0	0	0	0	0	0	0	0	0	0	0	0	0	0	0	0	0	0	0	0	0	0	0	0	0	0	0	0
071519	17:01:09	17:04:06	175055	5.0.10.0	5_exp_RW	999	Rpleas_acq	CS_B	BZZB	YDDY	GWWG	JXXJ	VKKV	MQQM	spielen	schön	treu	fair	ehrlich	retten	strafen	schlecht	tot	faul	eitel	rächen	1	acq_USunple_CSunple2_RW	acq3_RW	3	24	453	1	300	300	492	46	0	1	1	blank2r.bmp	0	1	+	0	1	blank2r.bmp	492	1	JXXJ	492	1	blank2r.bmp	572	3	rächen	866	1	!	1292	1	!	1399	0	0	0	0	0	0	0	0	0	0	0	0	0	0	0	0	0	0	0	0	0	0	0	0	0	0	0	0	0	0
071519	17:01:09	17:04:15	184171	5.0.10.0	5_exp_RW	999	Rpleas_acq	CS_B	BZZB	YDDY	GWWG	JXXJ	VKKV	MQQM	spielen	schön	treu	fair	ehrlich	retten	strafen	schlecht	tot	faul	eitel	rächen	1	acq_USunple_CSunple1_RW	acq4567_RW	4	1	400	1	300	300	413	46	0	1	1	blank2r.bmp	0	1	+	0	1	blank2r.bmp	492	1	GWWG	492	1	blank2r.bmp	572	1	strafen	866	1	!	1239	1	!	1319	0	0	0	0	0	0	0	0	0	0	0	0	0	0	0	0	0	0	0	0	0	0	0	0	0	0	0	0	0	0
071519	17:01:09	17:04:17	186343	5.0.10.0	5_exp_RW	999	Rpleas_acq	CS_B	BZZB	YDDY	GWWG	JXXJ	VKKV	MQQM	spielen	schön	treu	fair	ehrlich	retten	strafen	schlecht	tot	faul	eitel	rächen	1	acq_USunple_CSunple1_RW	acq4567_RW	4	2	400	1	300	300	382	46	0	1	1	blank2r.bmp	0	1	+	0	1	blank2r.bmp	492	1	GWWG	492	1	blank2r.bmp	572	3	tot	866	1	!	1239	1	!	1279	0	0	0	0	0	0	0	0	0	0	0	0	0	0	0	0	0	0	0	0	0	0	0	0	0	0	0	0	0	0
071519	17:01:09	17:04:19	188569	5.0.10.0	5_exp_RW	999	Rpleas_acq	CS_B	BZZB	YDDY	GWWG	JXXJ	VKKV	MQQM	spielen	schön	treu	fair	ehrlich	retten	strafen	schlecht	tot	faul	eitel	rächen	1	acq_USunple_CSunple2_RW	acq4567_RW	4	3	400	1	300	300	427	46	0	1	1	blank2r.bmp	0	1	+	0	1	blank2r.bmp	492	1	JXXJ	492	1	blank2r.bmp	572	2	eitel	866	1	!	1239	1	!	1332	0	0	0	0	0	0	0	0	0	0	0	0	0	0	0	0	0	0	0	0	0	0	0	0	0	0	0	0	0	0
071519	17:01:09	17:04:22	190768	5.0.10.0	5_exp_RW	999	Rpleas_acq	CS_B	BZZB	YDDY	GWWG	JXXJ	VKKV	MQQM	spielen	schön	treu	fair	ehrlich	retten	strafen	schlecht	tot	faul	eitel	rächen	1	acq_USpleas_CSpleas2_RW	acq4567_RW	4	4	400	1	300	300	402	50	0	1	1	blank2r.bmp	0	1	+	0	1	blank2r.bmp	492	1	YDDY	492	1	blank2r.bmp	572	1	fair	866	1	!	1239	1	!	1306	0	0	0	0	0	0	0	0	0	0	0	0	0	0	0	0	0	0	0	0	0	0	0	0	0	0	0	0	0	0
071519	17:01:09	17:04:24	193047	5.0.10.0	5_exp_RW	999	Rpleas_acq	CS_B	BZZB	YDDY	GWWG	JXXJ	VKKV	MQQM	spielen	schön	treu	fair	ehrlich	retten	strafen	schlecht	tot	faul	eitel	rächen	1	acq_USpleas_CSpleas1_RW	acq4567_RW	4	5	400	0	300	300	516	50	0	1	1	blank2r.bmp	0	1	+	0	1	blank2r.bmp	492	1	BZZB	492	1	blank2r.bmp	572	2	schön	866	1	!	1239	1	!	-1	0	0	0	0	0	0	0	0	0	0	0	0	0	0	0	0	0	0	0	0	0	0	0	0	0	0	0	0	0	0
071519	17:01:09	17:04:26	195273	5.0.10.0	5_exp_RW	999	Rpleas_acq	CS_B	BZZB	YDDY	GWWG	JXXJ	VKKV	MQQM	spielen	schön	treu	fair	ehrlich	retten	strafen	schlecht	tot	faul	eitel	rächen	1	acq_USunple_CSunple2_RW	acq4567_RW	4	6	400	1	300	300	422	46	0	1	1	blank2r.bmp	0	1	+	0	1	blank2r.bmp	492	1	JXXJ	492	1	blank2r.bmp	572	1	faul	866	1	!	1239	1	!	1319	0	0	0	0	0	0	0	0	0	0	0	0	0	0	0	0	0	0	0	0	0	0	0	0	0	0	0	0	0	0
071519	17:01:09	17:04:28	197499	5.0.10.0	5_exp_RW	999	Rpleas_acq	CS_B	BZZB	YDDY	GWWG	JXXJ	VKKV	MQQM	spielen	schön	treu	fair	ehrlich	retten	strafen	schlecht	tot	faul	eitel	rächen	1	acq_USpleas_CSpleas1_RW	acq4567_RW	4	7	400	1	300	300	434	50	0	1	1	blank2r.bmp	0	1	+	0	1	blank2r.bmp	492	1	BZZB	492	1	blank2r.bmp	572	3	treu	866	1	!	1239	1	!	1332	0	0	0	0	0	0	0	0	0	0	0	0	0	0	0	0	0	0	0	0	0	0	0	0	0	0	0	0	0	0
071519	17:01:09	17:04:31	199778	5.0.10.0	5_exp_RW	999	Rpleas_acq	CS_B	BZZB	YDDY	GWWG	JXXJ	VKKV	MQQM	spielen	schön	treu	fair	ehrlich	retten	strafen	schlecht	tot	faul	eitel	rächen	1	acq_USpleas_CSpleas1_RW	acq4567_RW	4	8	400	0	300	300	503	50	0	1	1	blank2r.bmp	0	1	+	0	1	blank2r.bmp	492	1	BZZB	492	1	blank2r.bmp	572	3	treu	866	1	!	1239	1	!	-1	0	0	0	0	0	0	0	0	0	0	0	0	0	0	0	0	0	0	0	0	0	0	0	0	0	0	0	0	0	0
071519	17:01:09	17:04:33	201963	5.0.10.0	5_exp_RW	999	Rpleas_acq	CS_B	BZZB	YDDY	GWWG	JXXJ	VKKV	MQQM	spielen	schön	treu	fair	ehrlich	retten	strafen	schlecht	tot	faul	eitel	rächen	1	acq_USunple_CSunple2_RW	acq4567_RW	4	9	400	1	300	300	388	46	0	1	1	blank2r.bmp	0	1	+	0	1	blank2r.bmp	492	1	JXXJ	492	1	blank2r.bmp	572	3	rächen	866	1	!	1239	1	!	1292	0	0	0	0	0	0	0	0	0	0	0	0	0	0	0	0	0	0	0	0	0	0	0	0	0	0	0	0	0	0
071519	17:01:09	17:04:35	204123	5.0.10.0	5_exp_RW	999	Rpleas_acq	CS_B	BZZB	YDDY	GWWG	JXXJ	VKKV	MQQM	spielen	schön	treu	fair	ehrlich	retten	strafen	schlecht	tot	faul	eitel	rächen	1	acq_USunple_CSunple2_RW	acq4567_RW	4	10	400	1	300	300	368	46	0	1	1	blank2r.bmp	0	1	+	0	1	blank2r.bmp	492	1	JXXJ	492	1	blank2r.bmp	572	1	faul	866	1	!	1239	1	!	1266	0	0	0	0	0	0	0	0	0	0	0	0	0	0	0	0	0	0	0	0	0	0	0	0	0	0	0	0	0	0
071519	17:01:09	17:04:37	206322	5.0.10.0	5_exp_RW	999	Rpleas_acq	CS_B	BZZB	YDDY	GWWG	JXXJ	VKKV	MQQM	spielen	schön	treu	fair	ehrlich	retten	strafen	schlecht	tot	faul	eitel	rächen	1	acq_USunple_CSunple1_RW	acq4567_RW	4	11	400	1	300	300	400	46	0	1	1	blank2r.bmp	0	1	+	0	1	blank2r.bmp	492	1	GWWG	492	1	blank2r.bmp	572	2	schlecht	866	1	!	1239	1	!	1306	0	0	0	0	0	0	0	0	0	0	0	0	0	0	0	0	0	0	0	0	0	0	0	0	0	0	0	0	0	0
071519	17:01:09	17:04:39	208534	5.0.10.0	5_exp_RW	999	Rpleas_acq	CS_B	BZZB	YDDY	GWWG	JXXJ	VKKV	MQQM	spielen	schön	treu	fair	ehrlich	retten	strafen	schlecht	tot	faul	eitel	rächen	1	acq_USpleas_CSpleas2_RW	acq4567_RW	4	12	400	1	300	300	416	50	0	1	1	blank2r.bmp	0	1	+	0	1	blank2r.bmp	492	1	YDDY	492	1	blank2r.bmp	572	2	ehrlich	866	1	!	1239	1	!	1319	0	0	0	0	0	0	0	0	0	0	0	0	0	0	0	0	0	0	0	0	0	0	0	0	0	0	0	0	0	0
071519	17:01:09	17:04:42	210786	5.0.10.0	5_exp_RW	999	Rpleas_acq	CS_B	BZZB	YDDY	GWWG	JXXJ	VKKV	MQQM	spielen	schön	treu	fair	ehrlich	retten	strafen	schlecht	tot	faul	eitel	rächen	1	acq_USpleas_CSpleas1_RW	acq4567_RW	4	13	400	0	300	300	479	50	0	1	1	blank2r.bmp	0	1	+	0	1	blank2r.bmp	492	1	BZZB	492	1	blank2r.bmp	572	2	schön	866	1	!	1239	1	!	-1	0	0	0	0	0	0	0	0	0	0	0	0	0	0	0	0	0	0	0	0	0	0	0	0	0	0	0	0	0	0
071519	17:01:09	17:04:44	212999	5.0.10.0	5_exp_RW	999	Rpleas_acq	CS_B	BZZB	YDDY	GWWG	JXXJ	VKKV	MQQM	spielen	schön	treu	fair	ehrlich	retten	strafen	schlecht	tot	faul	eitel	rächen	1	acq_USpleas_CSpleas2_RW	acq4567_RW	4	14	400	1	300	300	409	50	0	1	1	blank2r.bmp	0	1	+	0	1	blank2r.bmp	492	1	YDDY	492	1	blank2r.bmp	572	2	ehrlich	866	1	!	1239	1	!	1306	0	0	0	0	0	0	0	0	0	0	0	0	0	0	0	0	0	0	0	0	0	0	0	0	0	0	0	0	0	0
071519	17:01:09	17:04:46	215278	5.0.10.0	5_exp_RW	999	Rpleas_acq	CS_B	BZZB	YDDY	GWWG	JXXJ	VKKV	MQQM	spielen	schön	treu	fair	ehrlich	retten	strafen	schlecht	tot	faul	eitel	rächen	1	acq_USpleas_CSpleas1_RW	acq4567_RW	4	15	400	0	300	300	512	50	0	1	1	blank2r.bmp	0	1	+	0	1	blank2r.bmp	492	1	BZZB	492	1	blank2r.bmp	572	1	spielen	866	1	!	1239	1	!	-1	0	0	0	0	0	0	0	0	0	0	0	0	0	0	0	0	0	0	0	0	0	0	0	0	0	0	0	0	0	0
071519	17:01:09	17:04:48	217464	5.0.10.0	5_exp_RW	999	Rpleas_acq	CS_B	BZZB	YDDY	GWWG	JXXJ	VKKV	MQQM	spielen	schön	treu	fair	ehrlich	retten	strafen	schlecht	tot	faul	eitel	rächen	1	acq_USunple_CSunple2_RW	acq4567_RW	4	16	400	1	300	300	385	50	0	0	1	blank2r.bmp	0	1	+	0	1	blank2r.bmp	492	1	JXXJ	492	1	blank2r.bmp	572	2	eitel	866	1	!	1239	1	!	1279	0	0	0	0	0	0	0	0	0	0	0	0	0	0	0	0	0	0	0	0	0	0	0	0	0	0	0	0	0	0
071519	17:01:09	17:04:50	219609	5.0.10.0	5_exp_RW	999	Rpleas_acq	CS_B	BZZB	YDDY	GWWG	JXXJ	VKKV	MQQM	spielen	schön	treu	fair	ehrlich	retten	strafen	schlecht	tot	faul	eitel	rächen	1	acq_USpleas_CSpleas2_RW	acq4567_RW	4	17	400	1	300	300	350	50	0	1	1	blank2r.bmp	0	1	+	0	1	blank2r.bmp	492	1	YDDY	492	1	blank2r.bmp	572	3	retten	866	1	!	1239	1	!	1252	0	0	0	0	0	0	0	0	0	0	0	0	0	0	0	0	0	0	0	0	0	0	0	0	0	0	0	0	0	0
071519	17:01:09	17:04:53	221782	5.0.10.0	5_exp_RW	999	Rpleas_acq	CS_B	BZZB	YDDY	GWWG	JXXJ	VKKV	MQQM	spielen	schön	treu	fair	ehrlich	retten	strafen	schlecht	tot	faul	eitel	rächen	1	acq_USunple_CSunple1_RW	acq4567_RW	4	18	400	1	300	300	376	46	0	1	1	blank2r.bmp	0	1	+	0	1	blank2r.bmp	492	1	GWWG	492	1	blank2r.bmp	572	3	tot	866	1	!	1239	1	!	1279	0	0	0	0	0	0	0	0	0	0	0	0	0	0	0	0	0	0	0	0	0	0	0	0	0	0	0	0	0	0
071519	17:01:09	17:04:55	223981	5.0.10.0	5_exp_RW	999	Rpleas_acq	CS_B	BZZB	YDDY	GWWG	JXXJ	VKKV	MQQM	spielen	schön	treu	fair	ehrlich	retten	strafen	schlecht	tot	faul	eitel	rächen	1	acq_USunple_CSunple1_RW	acq4567_RW	4	19	400	1	300	300	409	46	0	1	1	blank2r.bmp	0	1	+	0	1	blank2r.bmp	492	1	GWWG	492	1	blank2r.bmp	572	1	strafen	866	1	!	1239	1	!	1306	0	0	0	0	0	0	0	0	0	0	0	0	0	0	0	0	0	0	0	0	0	0	0	0	0	0	0	0	0	0
071519	17:01:09	17:04:57	226220	5.0.10.0	5_exp_RW	999	Rpleas_acq	CS_B	BZZB	YDDY	GWWG	JXXJ	VKKV	MQQM	spielen	schön	treu	fair	ehrlich	retten	strafen	schlecht	tot	faul	eitel	rächen	1	acq_USpleas_CSpleas2_RW	acq4567_RW	4	20	400	1	300	300	443	50	0	1	1	blank2r.bmp	0	1	+	0	1	blank2r.bmp	492	1	YDDY	492	1	blank2r.bmp	572	1	fair	866	1	!	1239	1	!	1346	0	0	0	0	0	0	0	0	0	0	0	0	0	0	0	0	0	0	0	0	0	0	0	0	0	0	0	0	0	0
071519	17:01:09	17:04:59	228419	5.0.10.0	5_exp_RW	999	Rpleas_acq	CS_B	BZZB	YDDY	GWWG	JXXJ	VKKV	MQQM	spielen	schön	treu	fair	ehrlich	retten	strafen	schlecht	tot	faul	eitel	rächen	1	acq_USunple_CSunple2_RW	acq4567_RW	4	21	400	1	300	300	408	46	0	1	1	blank2r.bmp	0	1	+	0	1	blank2r.bmp	492	1	JXXJ	492	1	blank2r.bmp	572	1	faul	867	1	!	1239	1	!	1306	0	0	0	0	0	0	0	0	0	0	0	0	0	0	0	0	0	0	0	0	0	0	0	0	0	0	0	0	0	0
071519	17:01:09	17:05:02	230645	5.0.10.0	5_exp_RW	999	Rpleas_acq	CS_B	BZZB	YDDY	GWWG	JXXJ	VKKV	MQQM	spielen	schön	treu	fair	ehrlich	retten	strafen	schlecht	tot	faul	eitel	rächen	1	acq_USpleas_CSpleas2_RW	acq4567_RW	4	22	400	1	300	300	425	50	0	1	1	blank2r.bmp	1	1	+	1	1	blank2r.bmp	492	1	YDDY	492	1	blank2r.bmp	572	1	fair	867	1	!	1239	1	!	1332	0	0	0	0	0	0	0	0	0	0	0	0	0	0	0	0	0	0	0	0	0	0	0	0	0	0	0	0	0	0
071519	17:01:09	17:05:04	232897	5.0.10.0	5_exp_RW	999	Rpleas_acq	CS_B	BZZB	YDDY	GWWG	JXXJ	VKKV	MQQM	spielen	schön	treu	fair	ehrlich	retten	strafen	schlecht	tot	faul	eitel	rächen	1	acq_USunple_CSunple2_RW	acq4567_RW	4	23	400	1	300	300	449	50	0	0	1	blank2r.bmp	0	1	+	0	1	blank2r.bmp	492	1	JXXJ	492	1	blank2r.bmp	572	3	rächen	866	1	!	1239	1	!	1359	0	0	0	0	0	0	0	0	0	0	0	0	0	0	0	0	0	0	0	0	0	0	0	0	0	0	0	0	0	0
071519	17:01:09	17:05:06	235096	5.0.10.0	5_exp_RW	999	Rpleas_acq	CS_B	BZZB	YDDY	GWWG	JXXJ	VKKV	MQQM	spielen	schön	treu	fair	ehrlich	retten	strafen	schlecht	tot	faul	eitel	rächen	1	acq_USunple_CSunple1_RW	acq4567_RW	4	24	400	1	300	300	401	46	0	1	1	blank2r.bmp	0	1	+	0	1	blank2r.bmp	492	1	GWWG	492	1	blank2r.bmp	572	1	strafen	866	1	!	1239	1	!	1306	0	0	0	0	0	0	0	0	0	0	0	0	0	0	0	0	0	0	0	0	0	0	0	0	0	0	0	0	0	0
071519	17:01:09	17:05:08	237322	5.0.10.0	5_exp_RW	999	Rpleas_acq	CS_B	BZZB	YDDY	GWWG	JXXJ	VKKV	MQQM	spielen	schön	treu	fair	ehrlich	retten	strafen	schlecht	tot	faul	eitel	rächen	1	acq_USunple_CSunple2_RW	acq4567_RW	4	25	400	1	300	300	430	46	0	1	1	blank2r.bmp	0	1	+	0	1	blank2r.bmp	492	1	JXXJ	492	1	blank2r.bmp	572	2	eitel	866	1	!	1239	1	!	1332	0	0	0	0	0	0	0	0	0	0	0	0	0	0	0	0	0	0	0	0	0	0	0	0	0	0	0	0	0	0
071519	17:01:09	17:05:10	239534	5.0.10.0	5_exp_RW	999	Rpleas_acq	CS_B	BZZB	YDDY	GWWG	JXXJ	VKKV	MQQM	spielen	schön	treu	fair	ehrlich	retten	strafen	schlecht	tot	faul	eitel	rächen	1	acq_USpleas_CSpleas2_RW	acq4567_RW	4	26	400	1	300	300	419	50	0	1	1	blank2r.bmp	0	1	+	0	1	blank2r.bmp	492	1	YDDY	492	1	blank2r.bmp	572	2	ehrlich	866	1	!	1239	1	!	1319	0	0	0	0	0	0	0	0	0	0	0	0	0	0	0	0	0	0	0	0	0	0	0	0	0	0	0	0	0	0
071519	17:01:09	17:05:13	241747	5.0.10.0	5_exp_RW	999	Rpleas_acq	CS_B	BZZB	YDDY	GWWG	JXXJ	VKKV	MQQM	spielen	schön	treu	fair	ehrlich	retten	strafen	schlecht	tot	faul	eitel	rächen	1	acq_USpleas_CSpleas1_RW	acq4567_RW	4	27	400	1	300	300	421	50	0	1	1	blank2r.bmp	0	1	+	0	1	blank2r.bmp	492	1	BZZB	492	1	blank2r.bmp	572	2	schön	866	1	!	1239	1	!	1319	0	0	0	0	0	0	0	0	0	0	0	0	0	0	0	0	0	0	0	0	0	0	0	0	0	0	0	0	0	0
071519	17:01:09	17:05:15	243932	5.0.10.0	5_exp_RW	999	Rpleas_acq	CS_B	BZZB	YDDY	GWWG	JXXJ	VKKV	MQQM	spielen	schön	treu	fair	ehrlich	retten	strafen	schlecht	tot	faul	eitel	rächen	1	acq_USunple_CSunple1_RW	acq4567_RW	4	28	400	1	300	300	386	46	0	1	1	blank2r.bmp	0	1	+	0	1	blank2r.bmp	492	1	GWWG	492	1	blank2r.bmp	572	3	tot	866	1	!	1239	1	!	1292	0	0	0	0	0	0	0	0	0	0	0	0	0	0	0	0	0	0	0	0	0	0	0	0	0	0	0	0	0	0
071519	17:01:09	17:05:17	246185	5.0.10.0	5_exp_RW	999	Rpleas_acq	CS_B	BZZB	YDDY	GWWG	JXXJ	VKKV	MQQM	spielen	schön	treu	fair	ehrlich	retten	strafen	schlecht	tot	faul	eitel	rächen	1	acq_USunple_CSunple1_RW	acq4567_RW	4	29	400	1	300	300	461	46	0	1	1	blank2r.bmp	0	1	+	0	1	blank2r.bmp	492	1	GWWG	492	1	blank2r.bmp	572	2	schlecht	866	1	!	1239	1	!	1359	0	0	0	0	0	0	0	0	0	0	0	0	0	0	0	0	0	0	0	0	0	0	0	0	0	0	0	0	0	0
071519	17:01:09	17:05:19	248384	5.0.10.0	5_exp_RW	999	Rpleas_acq	CS_B	BZZB	YDDY	GWWG	JXXJ	VKKV	MQQM	spielen	schön	treu	fair	ehrlich	retten	strafen	schlecht	tot	faul	eitel	rächen	1	acq_USpleas_CSpleas1_RW	acq4567_RW	4	30	400	1	300	300	397	50	0	1	1	blank2r.bmp	1	1	+	1	1	blank2r.bmp	492	1	BZZB	492	1	blank2r.bmp	572	1	spielen	866	1	!	1239	1	!	1306	0	0	0	0	0	0	0	0	0	0	0	0	0	0	0	0	0	0	0	0	0	0	0	0	0	0	0	0	0	0
071519	17:01:09	17:05:22	250636	5.0.10.0	5_exp_RW	999	Rpleas_acq	CS_B	BZZB	YDDY	GWWG	JXXJ	VKKV	MQQM	spielen	schön	treu	fair	ehrlich	retten	strafen	schlecht	tot	faul	eitel	rächen	1	acq_USunple_CSunple1_RW	acq4567_RW	4	31	400	1	300	300	452	46	0	1	1	blank2r.bmp	0	1	+	0	1	blank2r.bmp	492	1	GWWG	492	1	blank2r.bmp	572	1	strafen	866	1	!	1239	1	!	1359	0	0	0	0	0	0	0	0	0	0	0	0	0	0	0	0	0	0	0	0	0	0	0	0	0	0	0	0	0	0
071519	17:01:09	17:05:24	252862	5.0.10.0	5_exp_RW	999	Rpleas_acq	CS_B	BZZB	YDDY	GWWG	JXXJ	VKKV	MQQM	spielen	schön	treu	fair	ehrlich	retten	strafen	schlecht	tot	faul	eitel	rächen	1	acq_USpleas_CSpleas2_RW	acq4567_RW	4	32	400	1	300	300	438	50	0	1	1	blank2r.bmp	0	1	+	0	1	blank2r.bmp	492	1	YDDY	492	1	blank2r.bmp	572	3	retten	866	1	!	1239	1	!	1332	0	0	0	0	0	0	0	0	0	0	0	0	0	0	0	0	0	0	0	0	0	0	0	0	0	0	0	0	0	0
071519	17:01:09	17:05:26	255128	5.0.10.0	5_exp_RW	999	Rpleas_acq	CS_B	BZZB	YDDY	GWWG	JXXJ	VKKV	MQQM	spielen	schön	treu	fair	ehrlich	retten	strafen	schlecht	tot	faul	eitel	rächen	1	acq_USpleas_CSpleas2_RW	acq4567_RW	4	33	400	0	300	300	479	50	0	1	1	blank2r.bmp	0	1	+	0	1	blank2r.bmp	492	1	YDDY	492	1	blank2r.bmp	573	2	ehrlich	866	1	!	1239	1	!	-1	0	0	0	0	0	0	0	0	0	0	0	0	0	0	0	0	0	0	0	0	0	0	0	0	0	0	0	0	0	0
071519	17:01:09	17:05:28	257380	5.0.10.0	5_exp_RW	999	Rpleas_acq	CS_B	BZZB	YDDY	GWWG	JXXJ	VKKV	MQQM	spielen	schön	treu	fair	ehrlich	retten	strafen	schlecht	tot	faul	eitel	rächen	1	acq_USpleas_CSpleas2_RW	acq4567_RW	4	34	400	1	300	300	463	50	0	1	1	blank2r.bmp	0	1	+	0	1	blank2r.bmp	492	1	YDDY	492	1	blank2r.bmp	573	3	retten	866	1	!	1239	1	!	1359	0	0	0	0	0	0	0	0	0	0	0	0	0	0	0	0	0	0	0	0	0	0	0	0	0	0	0	0	0	0
071519	17:01:09	17:05:31	259646	5.0.10.0	5_exp_RW	999	Rpleas_acq	CS_B	BZZB	YDDY	GWWG	JXXJ	VKKV	MQQM	spielen	schön	treu	fair	ehrlich	retten	strafen	schlecht	tot	faul	eitel	rächen	1	acq_USunple_CSunple2_RW	acq4567_RW	4	35	400	0	300	300	481	46	0	1	1	blank2r.bmp	0	1	+	0	1	blank2r.bmp	493	1	JXXJ	493	1	blank2r.bmp	572	2	eitel	866	1	!	1239	1	!	-1	0	0	0	0	0	0	0	0	0	0	0	0	0	0	0	0	0	0	0	0	0	0	0	0	0	0	0	0	0	0
071519	17:01:09	17:05:33	261925	5.0.10.0	5_exp_RW	999	Rpleas_acq	CS_B	BZZB	YDDY	GWWG	JXXJ	VKKV	MQQM	spielen	schön	treu	fair	ehrlich	retten	strafen	schlecht	tot	faul	eitel	rächen	1	acq_USunple_CSunple2_RW	acq4567_RW	4	36	400	0	300	300	492	46	0	1	1	blank2r.bmp	0	1	+	0	1	blank2r.bmp	492	1	JXXJ	492	1	blank2r.bmp	574	1	faul	866	1	!	1239	1	!	-1	0	0	0	0	0	0	0	0	0	0	0	0	0	0	0	0	0	0	0	0	0	0	0	0	0	0	0	0	0	0
071519	17:01:09	17:05:35	263991	5.0.10.0	5_exp_RW	999	Rpleas_acq	CS_B	BZZB	YDDY	GWWG	JXXJ	VKKV	MQQM	spielen	schön	treu	fair	ehrlich	retten	strafen	schlecht	tot	faul	eitel	rächen	1	acq_USunple_CSunple1_RW	acq4567_RW	4	37	400	0	300	300	290	46	0	1	1	blank2r.bmp	0	1	+	0	1	blank2r.bmp	492	1	GWWG	492	1	blank2r.bmp	572	3	tot	866	1	!	-1	1	!	-1	0	0	0	0	0	0	0	0	0	0	0	0	0	0	0	0	0	0	0	0	0	0	0	0	0	0	0	0	0	0
071519	17:01:09	17:05:37	266216	5.0.10.0	5_exp_RW	999	Rpleas_acq	CS_B	BZZB	YDDY	GWWG	JXXJ	VKKV	MQQM	spielen	schön	treu	fair	ehrlich	retten	strafen	schlecht	tot	faul	eitel	rächen	1	acq_USpleas_CSpleas1_RW	acq4567_RW	4	38	400	1	300	300	428	50	0	1	1	blank2r.bmp	0	1	+	0	1	blank2r.bmp	492	1	BZZB	492	1	blank2r.bmp	572	3	treu	866	1	!	1239	1	!	1332	0	0	0	0	0	0	0	0	0	0	0	0	0	0	0	0	0	0	0	0	0	0	0	0	0	0	0	0	0	0
071519	17:01:09	17:05:39	268482	5.0.10.0	5_exp_RW	999	Rpleas_acq	CS_B	BZZB	YDDY	GWWG	JXXJ	VKKV	MQQM	spielen	schön	treu	fair	ehrlich	retten	strafen	schlecht	tot	faul	eitel	rächen	1	acq_USpleas_CSpleas1_RW	acq4567_RW	4	39	400	0	300	300	479	50	0	1	1	blank2r.bmp	0	1	+	0	1	blank2r.bmp	492	1	BZZB	492	1	blank2r.bmp	572	3	treu	866	1	!	1239	1	!	-1	0	0	0	0	0	0	0	0	0	0	0	0	0	0	0	0	0	0	0	0	0	0	0	0	0	0	0	0	0	0
071519	17:01:09	17:05:42	270654	5.0.10.0	5_exp_RW	999	Rpleas_acq	CS_B	BZZB	YDDY	GWWG	JXXJ	VKKV	MQQM	spielen	schön	treu	fair	ehrlich	retten	strafen	schlecht	tot	faul	eitel	rächen	1	acq_USpleas_CSpleas1_RW	acq4567_RW	4	40	400	1	300	300	381	50	0	1	1	blank2r.bmp	0	1	+	0	1	blank2r.bmp	492	1	BZZB	492	1	blank2r.bmp	572	1	spielen	866	1	!	1239	1	!	1279	0	0	0	0	0	0	0	0	0	0	0	0	0	0	0	0	0	0	0	0	0	0	0	0	0	0	0	0	0	0
071519	17:01:09	17:05:44	272800	5.0.10.0	5_exp_RW	999	Rpleas_acq	CS_B	BZZB	YDDY	GWWG	JXXJ	VKKV	MQQM	spielen	schön	treu	fair	ehrlich	retten	strafen	schlecht	tot	faul	eitel	rächen	1	acq_USunple_CSunple2_RW	acq4567_RW	4	41	400	1	300	300	350	46	0	1	1	blank2r.bmp	0	1	+	0	1	blank2r.bmp	492	1	JXXJ	492	1	blank2r.bmp	572	3	rächen	866	1	!	1239	1	!	1252	0	0	0	0	0	0	0	0	0	0	0	0	0	0	0	0	0	0	0	0	0	0	0	0	0	0	0	0	0	0
071519	17:01:09	17:05:46	275013	5.0.10.0	5_exp_RW	999	Rpleas_acq	CS_B	BZZB	YDDY	GWWG	JXXJ	VKKV	MQQM	spielen	schön	treu	fair	ehrlich	retten	strafen	schlecht	tot	faul	eitel	rächen	1	acq_USpleas_CSpleas1_RW	acq4567_RW	4	42	400	1	300	300	410	50	0	1	1	blank2r.bmp	0	1	+	0	1	blank2r.bmp	492	1	BZZB	492	1	blank2r.bmp	572	2	schön	866	1	!	1239	1	!	1319	0	0	0	0	0	0	0	0	0	0	0	0	0	0	0	0	0	0	0	0	0	0	0	0	0	0	0	0	0	0
071519	17:01:09	17:05:48	277225	5.0.10.0	5_exp_RW	999	Rpleas_acq	CS_B	BZZB	YDDY	GWWG	JXXJ	VKKV	MQQM	spielen	schön	treu	fair	ehrlich	retten	strafen	schlecht	tot	faul	eitel	rächen	1	acq_USpleas_CSpleas2_RW	acq4567_RW	4	43	400	1	300	300	421	50	0	1	1	blank2r.bmp	0	1	+	0	1	blank2r.bmp	492	1	YDDY	492	1	blank2r.bmp	572	1	fair	866	1	!	1239	1	!	1319	0	0	0	0	0	0	0	0	0	0	0	0	0	0	0	0	0	0	0	0	0	0	0	0	0	0	0	0	0	0
071519	17:01:09	17:05:50	279451	5.0.10.0	5_exp_RW	999	Rpleas_acq	CS_B	BZZB	YDDY	GWWG	JXXJ	VKKV	MQQM	spielen	schön	treu	fair	ehrlich	retten	strafen	schlecht	tot	faul	eitel	rächen	1	acq_USunple_CSunple2_RW	acq4567_RW	4	44	400	1	300	300	426	46	0	1	1	blank2r.bmp	0	1	+	0	1	blank2r.bmp	492	1	JXXJ	492	1	blank2r.bmp	572	1	faul	866	1	!	1239	1	!	1332	0	0	0	0	0	0	0	0	0	0	0	0	0	0	0	0	0	0	0	0	0	0	0	0	0	0	0	0	0	0
071519	17:01:09	17:05:53	281663	5.0.10.0	5_exp_RW	999	Rpleas_acq	CS_B	BZZB	YDDY	GWWG	JXXJ	VKKV	MQQM	spielen	schön	treu	fair	ehrlich	retten	strafen	schlecht	tot	faul	eitel	rächen	1	acq_USunple_CSunple1_RW	acq4567_RW	4	45	400	1	300	300	420	46	0	1	1	blank2r.bmp	0	1	+	0	1	blank2r.bmp	492	1	GWWG	492	1	blank2r.bmp	572	2	schlecht	866	1	!	1239	1	!	1319	0	0	0	0	0	0	0	0	0	0	0	0	0	0	0	0	0	0	0	0	0	0	0	0	0	0	0	0	0	0
071519	17:01:09	17:05:55	283835	5.0.10.0	5_exp_RW	999	Rpleas_acq	CS_B	BZZB	YDDY	GWWG	JXXJ	VKKV	MQQM	spielen	schön	treu	fair	ehrlich	retten	strafen	schlecht	tot	faul	eitel	rächen	1	acq_USpleas_CSpleas1_RW	acq4567_RW	4	46	400	1	300	300	378	50	0	1	1	blank2r.bmp	0	1	+	0	1	blank2r.bmp	492	1	BZZB	492	1	blank2r.bmp	572	1	spielen	866	1	!	1239	1	!	1279	0	0	0	0	0	0	0	0	0	0	0	0	0	0	0	0	0	0	0	0	0	0	0	0	0	0	0	0	0	0
071519	17:01:09	17:05:57	286008	5.0.10.0	5_exp_RW	999	Rpleas_acq	CS_B	BZZB	YDDY	GWWG	JXXJ	VKKV	MQQM	spielen	schön	treu	fair	ehrlich	retten	strafen	schlecht	tot	faul	eitel	rächen	1	acq_USunple_CSunple1_RW	acq4567_RW	4	47	400	1	300	300	373	46	0	1	1	blank2r.bmp	0	1	+	0	1	blank2r.bmp	492	1	GWWG	492	1	blank2r.bmp	572	3	tot	866	1	!	1239	1	!	1279	0	0	0	0	0	0	0	0	0	0	0	0	0	0	0	0	0	0	0	0	0	0	0	0	0	0	0	0	0	0
071519	17:01:09	17:05:59	288194	5.0.10.0	5_exp_RW	999	Rpleas_acq	CS_B	BZZB	YDDY	GWWG	JXXJ	VKKV	MQQM	spielen	schön	treu	fair	ehrlich	retten	strafen	schlecht	tot	faul	eitel	rächen	1	acq_USunple_CSunple1_RW	acq4567_RW	4	48	400	1	300	300	389	46	0	1	1	blank2r.bmp	0	1	+	0	1	blank2r.bmp	492	1	GWWG	492	1	blank2r.bmp	572	2	schlecht	866	1	!	1239	1	!	1292	0	0	0	0	0	0	0	0	0	0	0	0	0	0	0	0	0	0	0	0	0	0	0	0	0	0	0	0	0	0
071519	17:01:09	17:06:01	290366	5.0.10.0	5_exp_RW	999	Rpleas_acq	CS_B	BZZB	YDDY	GWWG	JXXJ	VKKV	MQQM	spielen	schön	treu	fair	ehrlich	retten	strafen	schlecht	tot	faul	eitel	rächen	1	acq_USunple_CSunple1_RW	acq4567_RW	4	49	400	1	300	300	372	46	0	1	1	blank2r.bmp	0	1	+	0	1	blank2r.bmp	492	1	GWWG	492	1	blank2r.bmp	572	1	strafen	866	1	!	1239	1	!	1279	0	0	0	0	0	0	0	0	0	0	0	0	0	0	0	0	0	0	0	0	0	0	0	0	0	0	0	0	0	0
071519	17:01:09	17:06:03	292565	5.0.10.0	5_exp_RW	999	Rpleas_acq	CS_B	BZZB	YDDY	GWWG	JXXJ	VKKV	MQQM	spielen	schön	treu	fair	ehrlich	retten	strafen	schlecht	tot	faul	eitel	rächen	1	acq_USpleas_CSpleas2_RW	acq4567_RW	4	50	400	1	300	300	400	50	0	1	1	blank2r.bmp	0	1	+	0	1	blank2r.bmp	492	1	YDDY	492	1	blank2r.bmp	572	3	retten	866	1	!	1239	1	!	1306	0	0	0	0	0	0	0	0	0	0	0	0	0	0	0	0	0	0	0	0	0	0	0	0	0	0	0	0	0	0
071519	17:01:09	17:06:06	294737	5.0.10.0	5_exp_RW	999	Rpleas_acq	CS_B	BZZB	YDDY	GWWG	JXXJ	VKKV	MQQM	spielen	schön	treu	fair	ehrlich	retten	strafen	schlecht	tot	faul	eitel	rächen	1	acq_USpleas_CSpleas2_RW	acq4567_RW	4	51	400	1	300	300	384	46	0	0	1	blank2r.bmp	0	1	+	0	1	blank2r.bmp	492	1	YDDY	492	1	blank2r.bmp	572	1	fair	866	1	!	1239	1	!	1279	0	0	0	0	0	0	0	0	0	0	0	0	0	0	0	0	0	0	0	0	0	0	0	0	0	0	0	0	0	0
071519	17:01:09	17:06:08	296923	5.0.10.0	5_exp_RW	999	Rpleas_acq	CS_B	BZZB	YDDY	GWWG	JXXJ	VKKV	MQQM	spielen	schön	treu	fair	ehrlich	retten	strafen	schlecht	tot	faul	eitel	rächen	1	acq_USpleas_CSpleas1_RW	acq4567_RW	4	52	400	1	300	300	384	50	0	1	1	blank2r.bmp	0	1	+	0	1	blank2r.bmp	492	1	BZZB	492	1	blank2r.bmp	572	2	schön	866	1	!	1239	1	!	1292	0	0	0	0	0	0	0	0	0	0	0	0	0	0	0	0	0	0	0	0	0	0	0	0	0	0	0	0	0	0
071519	17:01:09	17:06:10	299122	5.0.10.0	5_exp_RW	999	Rpleas_acq	CS_B	BZZB	YDDY	GWWG	JXXJ	VKKV	MQQM	spielen	schön	treu	fair	ehrlich	retten	strafen	schlecht	tot	faul	eitel	rächen	1	acq_USpleas_CSpleas2_RW	acq4567_RW	4	53	400	1	300	300	408	46	0	0	1	blank2r.bmp	0	1	+	0	1	blank2r.bmp	492	1	YDDY	492	1	blank2r.bmp	572	2	ehrlich	866	1	!	1239	1	!	1306	0	0	0	0	0	0	0	0	0	0	0	0	0	0	0	0	0	0	0	0	0	0	0	0	0	0	0	0	0	0
071519	17:01:09	17:06:12	301321	5.0.10.0	5_exp_RW	999	Rpleas_acq	CS_B	BZZB	YDDY	GWWG	JXXJ	VKKV	MQQM	spielen	schön	treu	fair	ehrlich	retten	strafen	schlecht	tot	faul	eitel	rächen	1	acq_USpleas_CSpleas1_RW	acq4567_RW	4	54	400	1	300	300	404	50	0	1	1	blank2r.bmp	0	1	+	0	1	blank2r.bmp	492	1	BZZB	492	1	blank2r.bmp	572	3	treu	866	1	!	1239	1	!	1306	0	0	0	0	0	0	0	0	0	0	0	0	0	0	0	0	0	0	0	0	0	0	0	0	0	0	0	0	0	0
071519	17:01:09	17:06:14	303520	5.0.10.0	5_exp_RW	999	Rpleas_acq	CS_B	BZZB	YDDY	GWWG	JXXJ	VKKV	MQQM	spielen	schön	treu	fair	ehrlich	retten	strafen	schlecht	tot	faul	eitel	rächen	1	acq_USpleas_CSpleas1_RW	acq4567_RW	4	55	400	1	300	300	408	50	0	1	1	blank2r.bmp	0	1	+	0	1	blank2r.bmp	492	1	BZZB	492	1	blank2r.bmp	572	2	schön	866	1	!	1239	1	!	1306	0	0	0	0	0	0	0	0	0	0	0	0	0	0	0	0	0	0	0	0	0	0	0	0	0	0	0	0	0	0
071519	17:01:09	17:06:17	305720	5.0.10.0	5_exp_RW	999	Rpleas_acq	CS_B	BZZB	YDDY	GWWG	JXXJ	VKKV	MQQM	spielen	schön	treu	fair	ehrlich	retten	strafen	schlecht	tot	faul	eitel	rächen	1	acq_USunple_CSunple2_RW	acq4567_RW	4	56	400	1	300	300	406	46	0	1	1	blank2r.bmp	0	1	+	0	1	blank2r.bmp	492	1	JXXJ	492	1	blank2r.bmp	572	3	rächen	866	1	!	1239	1	!	1306	0	0	0	0	0	0	0	0	0	0	0	0	0	0	0	0	0	0	0	0	0	0	0	0	0	0	0	0	0	0
071519	17:01:09	17:06:19	307905	5.0.10.0	5_exp_RW	999	Rpleas_acq	CS_B	BZZB	YDDY	GWWG	JXXJ	VKKV	MQQM	spielen	schön	treu	fair	ehrlich	retten	strafen	schlecht	tot	faul	eitel	rächen	1	acq_USunple_CSunple1_RW	acq4567_RW	4	57	400	1	300	300	396	46	0	1	1	blank2r.bmp	0	1	+	0	1	blank2r.bmp	492	1	GWWG	492	1	blank2r.bmp	572	1	strafen	866	1	!	1239	1	!	1292	0	0	0	0	0	0	0	0	0	0	0	0	0	0	0	0	0	0	0	0	0	0	0	0	0	0	0	0	0	0
071519	17:01:09	17:06:21	310171	5.0.10.0	5_exp_RW	999	Rpleas_acq	CS_B	BZZB	YDDY	GWWG	JXXJ	VKKV	MQQM	spielen	schön	treu	fair	ehrlich	retten	strafen	schlecht	tot	faul	eitel	rächen	1	acq_USunple_CSunple2_RW	acq4567_RW	4	58	400	0	300	300	499	46	0	1	1	blank2r.bmp	0	1	+	0	1	blank2r.bmp	492	1	JXXJ	492	1	blank2r.bmp	572	2	eitel	866	1	!	1239	1	!	-1	0	0	0	0	0	0	0	0	0	0	0	0	0	0	0	0	0	0	0	0	0	0	0	0	0	0	0	0	0	0
071519	17:01:09	17:06:23	312383	5.0.10.0	5_exp_RW	999	Rpleas_acq	CS_B	BZZB	YDDY	GWWG	JXXJ	VKKV	MQQM	spielen	schön	treu	fair	ehrlich	retten	strafen	schlecht	tot	faul	eitel	rächen	1	acq_USunple_CSunple2_RW	acq4567_RW	4	59	400	1	300	300	406	46	0	1	1	blank2r.bmp	0	1	+	0	1	blank2r.bmp	492	1	JXXJ	492	1	blank2r.bmp	572	2	eitel	866	1	!	1239	1	!	1306	0	0	0	0	0	0	0	0	0	0	0	0	0	0	0	0	0	0	0	0	0	0	0	0	0	0	0	0	0	0
071519	17:01:09	17:06:26	314676	5.0.10.0	5_exp_RW	999	Rpleas_acq	CS_B	BZZB	YDDY	GWWG	JXXJ	VKKV	MQQM	spielen	schön	treu	fair	ehrlich	retten	strafen	schlecht	tot	faul	eitel	rächen	1	acq_USpleas_CSpleas2_RW	acq4567_RW	4	60	400	0	300	300	507	50	0	1	1	blank2r.bmp	0	1	+	0	1	blank2r.bmp	492	1	YDDY	492	1	blank2r.bmp	572	1	fair	866	1	!	1239	1	!	-1	0	0	0	0	0	0	0	0	0	0	0	0	0	0	0	0	0	0	0	0	0	0	0	0	0	0	0	0	0	0
071519	17:01:09	17:06:28	316915	5.0.10.0	5_exp_RW	999	Rpleas_acq	CS_B	BZZB	YDDY	GWWG	JXXJ	VKKV	MQQM	spielen	schön	treu	fair	ehrlich	retten	strafen	schlecht	tot	faul	eitel	rächen	1	acq_USpleas_CSpleas1_RW	acq4567_RW	4	61	400	1	300	300	441	50	0	1	1	blank2r.bmp	0	1	+	0	1	blank2r.bmp	492	1	BZZB	492	1	blank2r.bmp	572	1	spielen	866	1	!	1239	1	!	1346	0	0	0	0	0	0	0	0	0	0	0	0	0	0	0	0	0	0	0	0	0	0	0	0	0	0	0	0	0	0
071519	17:01:09	17:06:30	319114	5.0.10.0	5_exp_RW	999	Rpleas_acq	CS_B	BZZB	YDDY	GWWG	JXXJ	VKKV	MQQM	spielen	schön	treu	fair	ehrlich	retten	strafen	schlecht	tot	faul	eitel	rächen	1	acq_USunple_CSunple2_RW	acq4567_RW	4	62	400	1	300	300	408	46	0	1	1	blank2r.bmp	0	1	+	0	1	blank2r.bmp	492	1	JXXJ	492	1	blank2r.bmp	572	3	rächen	866	1	!	1239	1	!	1306	0	0	0	0	0	0	0	0	0	0	0	0	0	0	0	0	0	0	0	0	0	0	0	0	0	0	0	0	0	0
071519	17:01:09	17:06:32	321313	5.0.10.0	5_exp_RW	999	Rpleas_acq	CS_B	BZZB	YDDY	GWWG	JXXJ	VKKV	MQQM	spielen	schön	treu	fair	ehrlich	retten	strafen	schlecht	tot	faul	eitel	rächen	1	acq_USunple_CSunple1_RW	acq4567_RW	4	63	400	1	300	300	405	46	0	1	1	blank2r.bmp	0	1	+	0	1	blank2r.bmp	492	1	GWWG	492	1	blank2r.bmp	572	3	tot	866	1	!	1239	1	!	1306	0	0	0	0	0	0	0	0	0	0	0	0	0	0	0	0	0	0	0	0	0	0	0	0	0	0	0	0	0	0
071519	17:01:09	17:06:34	323459	5.0.10.0	5_exp_RW	999	Rpleas_acq	CS_B	BZZB	YDDY	GWWG	JXXJ	VKKV	MQQM	spielen	schön	treu	fair	ehrlich	retten	strafen	schlecht	tot	faul	eitel	rächen	1	acq_USpleas_CSpleas2_RW	acq4567_RW	4	64	400	1	300	300	346	50	0	1	1	blank2r.bmp	0	1	+	0	1	blank2r.bmp	492	1	YDDY	492	1	blank2r.bmp	572	3	retten	866	1	!	1239	1	!	1252	0	0	0	0	0	0	0	0	0	0	0	0	0	0	0	0	0	0	0	0	0	0	0	0	0	0	0	0	0	0
071519	17:01:09	17:06:37	325644	5.0.10.0	5_exp_RW	999	Rpleas_acq	CS_B	BZZB	YDDY	GWWG	JXXJ	VKKV	MQQM	spielen	schön	treu	fair	ehrlich	retten	strafen	schlecht	tot	faul	eitel	rächen	1	acq_USunple_CSunple2_RW	acq4567_RW	4	65	400	1	300	300	388	46	0	1	1	blank2r.bmp	0	1	+	0	1	blank2r.bmp	492	1	JXXJ	492	1	blank2r.bmp	572	1	faul	866	1	!	1239	1	!	1292	0	0	0	0	0	0	0	0	0	0	0	0	0	0	0	0	0	0	0	0	0	0	0	0	0	0	0	0	0	0
071519	17:01:09	17:06:39	327790	5.0.10.0	5_exp_RW	999	Rpleas_acq	CS_B	BZZB	YDDY	GWWG	JXXJ	VKKV	MQQM	spielen	schön	treu	fair	ehrlich	retten	strafen	schlecht	tot	faul	eitel	rächen	1	acq_USunple_CSunple1_RW	acq4567_RW	4	66	400	1	300	300	354	50	0	0	1	blank2r.bmp	0	1	+	0	1	blank2r.bmp	492	1	GWWG	492	1	blank2r.bmp	572	2	schlecht	866	1	!	1239	1	!	1252	0	0	0	0	0	0	0	0	0	0	0	0	0	0	0	0	0	0	0	0	0	0	0	0	0	0	0	0	0	0
071519	17:01:09	17:06:41	330029	5.0.10.0	5_exp_RW	999	Rpleas_acq	CS_B	BZZB	YDDY	GWWG	JXXJ	VKKV	MQQM	spielen	schön	treu	fair	ehrlich	retten	strafen	schlecht	tot	faul	eitel	rächen	1	acq_USunple_CSunple2_RW	acq4567_RW	4	67	400	1	300	300	445	46	0	1	1	blank2r.bmp	0	1	+	0	1	blank2r.bmp	492	1	JXXJ	492	1	blank2r.bmp	572	3	rächen	866	1	!	1239	1	!	1346	0	0	0	0	0	0	0	0	0	0	0	0	0	0	0	0	0	0	0	0	0	0	0	0	0	0	0	0	0	0
071519	17:01:09	17:06:43	332228	5.0.10.0	5_exp_RW	999	Rpleas_acq	CS_B	BZZB	YDDY	GWWG	JXXJ	VKKV	MQQM	spielen	schön	treu	fair	ehrlich	retten	strafen	schlecht	tot	faul	eitel	rächen	1	acq_USunple_CSunple2_RW	acq4567_RW	4	68	400	1	300	300	405	46	0	1	1	blank2r.bmp	0	1	+	0	1	blank2r.bmp	492	1	JXXJ	492	1	blank2r.bmp	572	2	eitel	866	1	!	1239	1	!	1306	0	0	0	0	0	0	0	0	0	0	0	0	0	0	0	0	0	0	0	0	0	0	0	0	0	0	0	0	0	0
071519	17:01:09	17:06:45	334401	5.0.10.0	5_exp_RW	999	Rpleas_acq	CS_B	BZZB	YDDY	GWWG	JXXJ	VKKV	MQQM	spielen	schön	treu	fair	ehrlich	retten	strafen	schlecht	tot	faul	eitel	rächen	1	acq_USunple_CSunple1_RW	acq4567_RW	4	69	400	1	300	300	378	46	0	1	1	blank2r.bmp	0	1	+	0	1	blank2r.bmp	492	1	GWWG	492	1	blank2r.bmp	573	2	schlecht	866	1	!	1239	1	!	1279	0	0	0	0	0	0	0	0	0	0	0	0	0	0	0	0	0	0	0	0	0	0	0	0	0	0	0	0	0	0
071519	17:01:09	17:06:47	336493	5.0.10.0	5_exp_RW	999	Rpleas_acq	CS_B	BZZB	YDDY	GWWG	JXXJ	VKKV	MQQM	spielen	schön	treu	fair	ehrlich	retten	strafen	schlecht	tot	faul	eitel	rächen	1	acq_USunple_CSunple1_RW	acq4567_RW	4	70	400	0	300	300	326	46	0	1	1	blank2r.bmp	0	1	+	0	1	blank2r.bmp	492	1	GWWG	492	1	blank2r.bmp	572	3	tot	866	1	!	-1	1	!	-1	0	0	0	0	0	0	0	0	0	0	0	0	0	0	0	0	0	0	0	0	0	0	0	0	0	0	0	0	0	0
071519	17:01:09	17:06:50	338679	5.0.10.0	5_exp_RW	999	Rpleas_acq	CS_B	BZZB	YDDY	GWWG	JXXJ	VKKV	MQQM	spielen	schön	treu	fair	ehrlich	retten	strafen	schlecht	tot	faul	eitel	rächen	1	acq_USpleas_CSpleas1_RW	acq4567_RW	4	71	400	1	300	300	379	46	0	0	1	blank2r.bmp	0	1	+	0	1	blank2r.bmp	492	1	BZZB	492	1	blank2r.bmp	572	3	treu	866	1	!	1239	1	!	1279	0	0	0	0	0	0	0	0	0	0	0	0	0	0	0	0	0	0	0	0	0	0	0	0	0	0	0	0	0	0
071519	17:01:09	17:06:52	340945	5.0.10.0	5_exp_RW	999	Rpleas_acq	CS_B	BZZB	YDDY	GWWG	JXXJ	VKKV	MQQM	spielen	schön	treu	fair	ehrlich	retten	strafen	schlecht	tot	faul	eitel	rächen	1	acq_USpleas_CSpleas2_RW	acq4567_RW	4	72	400	0	300	300	496	50	0	1	1	blank2r.bmp	0	1	+	0	1	blank2r.bmp	492	1	YDDY	492	1	blank2r.bmp	574	2	ehrlich	866	1	!	1239	1	!	-1	0	0	0	0	0	0	0	0	0	0	0	0	0	0	0	0	0	0	0	0	0	0	0	0	0	0	0	0	0	0
071519	17:01:09	17:06:54	343157	5.0.10.0	5_exp_RW	999	Rpleas_acq	CS_B	BZZB	YDDY	GWWG	JXXJ	VKKV	MQQM	spielen	schön	treu	fair	ehrlich	retten	strafen	schlecht	tot	faul	eitel	rächen	1	acq_USunple_CSunple1_RW	acq4567_RW	4	73	400	1	300	300	403	46	0	1	1	blank2r.bmp	0	1	+	0	1	blank2r.bmp	492	1	GWWG	492	1	blank2r.bmp	572	1	strafen	866	1	!	1239	1	!	1306	0	0	0	0	0	0	0	0	0	0	0	0	0	0	0	0	0	0	0	0	0	0	0	0	0	0	0	0	0	0
071519	17:01:09	17:06:56	345463	5.0.10.0	5_exp_RW	999	Rpleas_acq	CS_B	BZZB	YDDY	GWWG	JXXJ	VKKV	MQQM	spielen	schön	treu	fair	ehrlich	retten	strafen	schlecht	tot	faul	eitel	rächen	1	acq_USpleas_CSpleas2_RW	acq4567_RW	4	74	400	0	300	300	530	50	0	1	1	blank2r.bmp	0	1	+	0	1	blank2r.bmp	492	1	YDDY	492	1	blank2r.bmp	572	1	fair	866	1	!	1239	1	!	-1	0	0	0	0	0	0	0	0	0	0	0	0	0	0	0	0	0	0	0	0	0	0	0	0	0	0	0	0	0	0
071519	17:01:09	17:06:59	347662	5.0.10.0	5_exp_RW	999	Rpleas_acq	CS_B	BZZB	YDDY	GWWG	JXXJ	VKKV	MQQM	spielen	schön	treu	fair	ehrlich	retten	strafen	schlecht	tot	faul	eitel	rächen	1	acq_USpleas_CSpleas1_RW	acq4567_RW	4	75	400	1	300	300	402	50	0	1	1	blank2r.bmp	0	1	+	0	1	blank2r.bmp	492	1	BZZB	492	1	blank2r.bmp	572	2	schön	866	1	!	1239	1	!	1306	0	0	0	0	0	0	0	0	0	0	0	0	0	0	0	0	0	0	0	0	0	0	0	0	0	0	0	0	0	0
071519	17:01:09	17:07:01	349981	5.0.10.0	5_exp_RW	999	Rpleas_acq	CS_B	BZZB	YDDY	GWWG	JXXJ	VKKV	MQQM	spielen	schön	treu	fair	ehrlich	retten	strafen	schlecht	tot	faul	eitel	rächen	1	acq_USpleas_CSpleas2_RW	acq4567_RW	4	76	400	0	300	300	532	46	0	0	1	blank2r.bmp	0	1	+	0	1	blank2r.bmp	492	1	YDDY	492	1	blank2r.bmp	572	2	ehrlich	866	1	!	1239	1	!	-1	0	0	0	0	0	0	0	0	0	0	0	0	0	0	0	0	0	0	0	0	0	0	0	0	0	0	0	0	0	0
071519	17:01:09	17:07:03	352207	5.0.10.0	5_exp_RW	999	Rpleas_acq	CS_B	BZZB	YDDY	GWWG	JXXJ	VKKV	MQQM	spielen	schön	treu	fair	ehrlich	retten	strafen	schlecht	tot	faul	eitel	rächen	1	acq_USpleas_CSpleas1_RW	acq4567_RW	4	77	400	1	300	300	427	50	0	1	1	blank2r.bmp	0	1	+	0	1	blank2r.bmp	492	1	BZZB	492	1	blank2r.bmp	572	1	spielen	866	1	!	1239	1	!	1332	0	0	0	0	0	0	0	0	0	0	0	0	0	0	0	0	0	0	0	0	0	0	0	0	0	0	0	0	0	0
071519	17:01:09	17:07:05	354446	5.0.10.0	5_exp_RW	999	Rpleas_acq	CS_B	BZZB	YDDY	GWWG	JXXJ	VKKV	MQQM	spielen	schön	treu	fair	ehrlich	retten	strafen	schlecht	tot	faul	eitel	rächen	1	acq_USunple_CSunple2_RW	acq4567_RW	4	78	400	1	300	300	451	46	0	1	1	blank2r.bmp	0	1	+	0	1	blank2r.bmp	492	1	JXXJ	492	1	blank2r.bmp	572	1	faul	866	1	!	1239	1	!	1346	0	0	0	0	0	0	0	0	0	0	0	0	0	0	0	0	0	0	0	0	0	0	0	0	0	0	0	0	0	0
071519	17:01:09	17:07:08	356658	5.0.10.0	5_exp_RW	999	Rpleas_acq	CS_B	BZZB	YDDY	GWWG	JXXJ	VKKV	MQQM	spielen	schön	treu	fair	ehrlich	retten	strafen	schlecht	tot	faul	eitel	rächen	1	acq_USpleas_CSpleas2_RW	acq4567_RW	4	79	400	1	300	300	418	50	0	1	1	blank2r.bmp	0	1	+	0	1	blank2r.bmp	492	1	YDDY	492	1	blank2r.bmp	572	3	retten	866	1	!	1239	1	!	1319	0	0	0	0	0	0	0	0	0	0	0	0	0	0	0	0	0	0	0	0	0	0	0	0	0	0	0	0	0	0
071519	17:01:09	17:07:10	358844	5.0.10.0	5_exp_RW	999	Rpleas_acq	CS_B	BZZB	YDDY	GWWG	JXXJ	VKKV	MQQM	spielen	schön	treu	fair	ehrlich	retten	strafen	schlecht	tot	faul	eitel	rächen	1	acq_USpleas_CSpleas1_RW	acq4567_RW	4	80	400	1	300	300	394	50	0	1	1	blank2r.bmp	0	1	+	0	1	blank2r.bmp	492	1	BZZB	492	1	blank2r.bmp	572	3	treu	866	1	!	1239	1	!	1292	0	0	0	0	0	0	0	0	0	0	0	0	0	0	0	0	0	0	0	0	0	0	0	0	0	0	0	0	0	0
071519	17:01:09	17:07:15	363628	5.0.10.0	5_exp_RW	999	Rpleas_acq	CS_B	BZZB	YDDY	GWWG	JXXJ	VKKV	MQQM	spielen	schön	treu	fair	ehrlich	retten	strafen	schlecht	tot	faul	eitel	rächen	1	acq_USpleas_CSpleas2_RW	acq4567_RW	5	1	400	1	300	300	441	50	0	1	1	blank2r.bmp	0	1	+	0	1	blank2r.bmp	492	1	YDDY	492	1	blank2r.bmp	572	1	fair	866	1	!	1239	1	!	1346	0	0	0	0	0	0	0	0	0	0	0	0	0	0	0	0	0	0	0	0	0	0	0	0	0	0	0	0	0	0
071519	17:01:09	17:07:17	365827	5.0.10.0	5_exp_RW	999	Rpleas_acq	CS_B	BZZB	YDDY	GWWG	JXXJ	VKKV	MQQM	spielen	schön	treu	fair	ehrlich	retten	strafen	schlecht	tot	faul	eitel	rächen	1	acq_USunple_CSunple1_RW	acq4567_RW	5	2	400	1	300	300	409	46	0	1	1	blank2r.bmp	0	1	+	0	1	blank2r.bmp	492	1	GWWG	492	1	blank2r.bmp	575	2	schlecht	866	1	!	1239	1	!	1306	0	0	0	0	0	0	0	0	0	0	0	0	0	0	0	0	0	0	0	0	0	0	0	0	0	0	0	0	0	0
071519	17:01:09	17:07:19	367973	5.0.10.0	5_exp_RW	999	Rpleas_acq	CS_B	BZZB	YDDY	GWWG	JXXJ	VKKV	MQQM	spielen	schön	treu	fair	ehrlich	retten	strafen	schlecht	tot	faul	eitel	rächen	1	acq_USpleas_CSpleas1_RW	acq4567_RW	5	3	400	1	300	300	352	46	0	0	1	blank2r.bmp	0	1	+	0	1	blank2r.bmp	492	1	BZZB	492	1	blank2r.bmp	572	1	spielen	866	1	!	1239	1	!	1252	0	0	0	0	0	0	0	0	0	0	0	0	0	0	0	0	0	0	0	0	0	0	0	0	0	0	0	0	0	0
071519	17:01:09	17:07:21	370252	5.0.10.0	5_exp_RW	999	Rpleas_acq	CS_B	BZZB	YDDY	GWWG	JXXJ	VKKV	MQQM	spielen	schön	treu	fair	ehrlich	retten	strafen	schlecht	tot	faul	eitel	rächen	1	acq_USpleas_CSpleas2_RW	acq4567_RW	5	4	400	0	300	300	511	50	0	1	1	blank2r.bmp	0	1	+	0	1	blank2r.bmp	492	1	YDDY	492	1	blank2r.bmp	572	2	ehrlich	866	1	!	1239	1	!	-1	0	0	0	0	0	0	0	0	0	0	0	0	0	0	0	0	0	0	0	0	0	0	0	0	0	0	0	0	0	0
071519	17:01:09	17:07:23	372505	5.0.10.0	5_exp_RW	999	Rpleas_acq	CS_B	BZZB	YDDY	GWWG	JXXJ	VKKV	MQQM	spielen	schön	treu	fair	ehrlich	retten	strafen	schlecht	tot	faul	eitel	rächen	1	acq_USunple_CSunple1_RW	acq4567_RW	5	5	400	1	300	300	439	46	0	1	1	blank2r.bmp	0	1	+	0	1	blank2r.bmp	492	1	GWWG	492	1	blank2r.bmp	572	3	tot	866	1	!	1239	1	!	1346	0	0	0	0	0	0	0	0	0	0	0	0	0	0	0	0	0	0	0	0	0	0	0	0	0	0	0	0	0	0
071519	17:01:09	17:07:26	374677	5.0.10.0	5_exp_RW	999	Rpleas_acq	CS_B	BZZB	YDDY	GWWG	JXXJ	VKKV	MQQM	spielen	schön	treu	fair	ehrlich	retten	strafen	schlecht	tot	faul	eitel	rächen	1	acq_USunple_CSunple2_RW	acq4567_RW	5	6	400	1	300	300	385	46	0	1	1	blank2r.bmp	0	1	+	0	1	blank2r.bmp	492	1	JXXJ	492	1	blank2r.bmp	572	3	rächen	866	1	!	1239	1	!	1279	0	0	0	0	0	0	0	0	0	0	0	0	0	0	0	0	0	0	0	0	0	0	0	0	0	0	0	0	0	0
071519	17:01:09	17:07:28	376836	5.0.10.0	5_exp_RW	999	Rpleas_acq	CS_B	BZZB	YDDY	GWWG	JXXJ	VKKV	MQQM	spielen	schön	treu	fair	ehrlich	retten	strafen	schlecht	tot	faul	eitel	rächen	1	acq_USpleas_CSpleas1_RW	acq4567_RW	5	7	400	1	300	300	367	50	0	1	1	blank2r.bmp	0	1	+	0	1	blank2r.bmp	493	1	BZZB	493	1	blank2r.bmp	572	2	schön	866	1	!	1239	1	!	1266	0	0	0	0	0	0	0	0	0	0	0	0	0	0	0	0	0	0	0	0	0	0	0	0	0	0	0	0	0	0
071519	17:01:09	17:07:30	379075	5.0.10.0	5_exp_RW	999	Rpleas_acq	CS_B	BZZB	YDDY	GWWG	JXXJ	VKKV	MQQM	spielen	schön	treu	fair	ehrlich	retten	strafen	schlecht	tot	faul	eitel	rächen	1	acq_USpleas_CSpleas1_RW	acq4567_RW	5	8	400	1	300	300	444	50	0	1	1	blank2r.bmp	0	1	+	0	1	blank2r.bmp	492	1	BZZB	492	1	blank2r.bmp	572	3	treu	866	1	!	1239	1	!	1346	0	0	0	0	0	0	0	0	0	0	0	0	0	0	0	0	0	0	0	0	0	0	0	0	0	0	0	0	0	0
071519	17:01:09	17:07:32	381248	5.0.10.0	5_exp_RW	999	Rpleas_acq	CS_B	BZZB	YDDY	GWWG	JXXJ	VKKV	MQQM	spielen	schön	treu	fair	ehrlich	retten	strafen	schlecht	tot	faul	eitel	rächen	1	acq_USunple_CSunple2_RW	acq4567_RW	5	9	400	1	300	300	373	46	0	1	1	blank2r.bmp	0	1	+	0	1	blank2r.bmp	492	1	JXXJ	492	1	blank2r.bmp	572	1	faul	866	1	!	1239	1	!	1279	0	0	0	0	0	0	0	0	0	0	0	0	0	0	0	0	0	0	0	0	0	0	0	0	0	0	0	0	0	0
071519	17:01:09	17:07:34	383447	5.0.10.0	5_exp_RW	999	Rpleas_acq	CS_B	BZZB	YDDY	GWWG	JXXJ	VKKV	MQQM	spielen	schön	treu	fair	ehrlich	retten	strafen	schlecht	tot	faul	eitel	rächen	1	acq_USpleas_CSpleas1_RW	acq4567_RW	5	10	400	1	300	300	396	50	0	1	1	blank2r.bmp	0	1	+	0	1	blank2r.bmp	492	1	BZZB	492	1	blank2r.bmp	572	1	spielen	866	1	!	1239	1	!	1306	0	0	0	0	0	0	0	0	0	0	0	0	0	0	0	0	0	0	0	0	0	0	0	0	0	0	0	0	0	0
071519	17:01:09	17:07:37	385659	5.0.10.0	5_exp_RW	999	Rpleas_acq	CS_B	BZZB	YDDY	GWWG	JXXJ	VKKV	MQQM	spielen	schön	treu	fair	ehrlich	retten	strafen	schlecht	tot	faul	eitel	rächen	1	acq_USpleas_CSpleas2_RW	acq4567_RW	5	11	400	1	300	300	412	50	0	1	1	blank2r.bmp	0	1	+	0	1	blank2r.bmp	492	1	YDDY	492	1	blank2r.bmp	572	3	retten	866	1	!	1239	1	!	1319	0	0	0	0	0	0	0	0	0	0	0	0	0	0	0	0	0	0	0	0	0	0	0	0	0	0	0	0	0	0
071519	17:01:09	17:07:39	387858	5.0.10.0	5_exp_RW	999	Rpleas_acq	CS_B	BZZB	YDDY	GWWG	JXXJ	VKKV	MQQM	spielen	schön	treu	fair	ehrlich	retten	strafen	schlecht	tot	faul	eitel	rächen	1	acq_USunple_CSunple1_RW	acq4567_RW	5	12	400	1	300	300	399	50	0	0	1	blank2r.bmp	0	1	+	0	1	blank2r.bmp	492	1	GWWG	492	1	blank2r.bmp	572	1	strafen	866	1	!	1239	1	!	1306	0	0	0	0	0	0	0	0	0	0	0	0	0	0	0	0	0	0	0	0	0	0	0	0	0	0	0	0	0	0
071519	17:01:09	17:07:41	390017	5.0.10.0	5_exp_RW	999	Rpleas_acq	CS_B	BZZB	YDDY	GWWG	JXXJ	VKKV	MQQM	spielen	schön	treu	fair	ehrlich	retten	strafen	schlecht	tot	faul	eitel	rächen	1	acq_USunple_CSunple2_RW	acq4567_RW	5	13	400	1	300	300	362	46	0	1	1	blank2r.bmp	0	1	+	0	1	blank2r.bmp	492	1	JXXJ	492	1	blank2r.bmp	572	2	eitel	866	1	!	1239	1	!	1266	0	0	0	0	0	0	0	0	0	0	0	0	0	0	0	0	0	0	0	0	0	0	0	0	0	0	0	0	0	0
071519	17:01:09	17:07:43	392230	5.0.10.0	5_exp_RW	999	Rpleas_acq	CS_B	BZZB	YDDY	GWWG	JXXJ	VKKV	MQQM	spielen	schön	treu	fair	ehrlich	retten	strafen	schlecht	tot	faul	eitel	rächen	1	acq_USunple_CSunple1_RW	acq4567_RW	5	14	400	1	300	300	417	46	0	1	1	blank2r.bmp	0	1	+	0	1	blank2r.bmp	492	1	GWWG	492	1	blank2r.bmp	572	3	tot	866	1	!	1239	1	!	1319	0	0	0	0	0	0	0	0	0	0	0	0	0	0	0	0	0	0	0	0	0	0	0	0	0	0	0	0	0	0
071519	17:01:09	17:07:45	394442	5.0.10.0	5_exp_RW	999	Rpleas_acq	CS_B	BZZB	YDDY	GWWG	JXXJ	VKKV	MQQM	spielen	schön	treu	fair	ehrlich	retten	strafen	schlecht	tot	faul	eitel	rächen	1	acq_USpleas_CSpleas2_RW	acq4567_RW	5	15	400	1	300	300	416	50	0	1	1	blank2r.bmp	0	1	+	0	1	blank2r.bmp	492	1	YDDY	492	1	blank2r.bmp	572	1	fair	866	1	!	1239	1	!	1319	0	0	0	0	0	0	0	0	0	0	0	0	0	0	0	0	0	0	0	0	0	0	0	0	0	0	0	0	0	0
071519	17:01:09	17:07:48	396721	5.0.10.0	5_exp_RW	999	Rpleas_acq	CS_B	BZZB	YDDY	GWWG	JXXJ	VKKV	MQQM	spielen	schön	treu	fair	ehrlich	retten	strafen	schlecht	tot	faul	eitel	rächen	1	acq_USunple_CSunple2_RW	acq4567_RW	5	16	400	0	300	300	507	46	0	1	1	blank2r.bmp	0	1	+	0	1	blank2r.bmp	494	1	JXXJ	494	1	blank2r.bmp	572	3	rächen	866	1	!	1239	1	!	-1	0	0	0	0	0	0	0	0	0	0	0	0	0	0	0	0	0	0	0	0	0	0	0	0	0	0	0	0	0	0
071519	17:01:09	17:07:50	398987	5.0.10.0	5_exp_RW	999	Rpleas_acq	CS_B	BZZB	YDDY	GWWG	JXXJ	VKKV	MQQM	spielen	schön	treu	fair	ehrlich	retten	strafen	schlecht	tot	faul	eitel	rächen	1	acq_USunple_CSunple1_RW	acq4567_RW	5	17	400	0	300	300	479	50	0	0	1	blank2r.bmp	0	1	+	0	1	blank2r.bmp	492	1	GWWG	492	1	blank2r.bmp	572	2	schlecht	866	1	!	1239	1	!	-1	0	0	0	0	0	0	0	0	0	0	0	0	0	0	0	0	0	0	0	0	0	0	0	0	0	0	0	0	0	0
071519	17:01:09	17:07:52	401186	5.0.10.0	5_exp_RW	999	Rpleas_acq	CS_B	BZZB	YDDY	GWWG	JXXJ	VKKV	MQQM	spielen	schön	treu	fair	ehrlich	retten	strafen	schlecht	tot	faul	eitel	rächen	1	acq_USpleas_CSpleas2_RW	acq4567_RW	5	18	400	1	300	300	396	50	0	1	1	blank2r.bmp	0	1	+	0	1	blank2r.bmp	492	1	YDDY	492	1	blank2r.bmp	572	3	retten	866	1	!	1239	1	!	1292	0	0	0	0	0	0	0	0	0	0	0	0	0	0	0	0	0	0	0	0	0	0	0	0	0	0	0	0	0	0
071519	17:01:09	17:07:54	403412	5.0.10.0	5_exp_RW	999	Rpleas_acq	CS_B	BZZB	YDDY	GWWG	JXXJ	VKKV	MQQM	spielen	schön	treu	fair	ehrlich	retten	strafen	schlecht	tot	faul	eitel	rächen	1	acq_USpleas_CSpleas1_RW	acq4567_RW	5	19	400	1	300	300	428	50	0	1	1	blank2r.bmp	0	1	+	0	1	blank2r.bmp	492	1	BZZB	492	1	blank2r.bmp	572	2	schön	866	1	!	1239	1	!	1332	0	0	0	0	0	0	0	0	0	0	0	0	0	0	0	0	0	0	0	0	0	0	0	0	0	0	0	0	0	0
071519	17:01:09	17:07:57	405637	5.0.10.0	5_exp_RW	999	Rpleas_acq	CS_B	BZZB	YDDY	GWWG	JXXJ	VKKV	MQQM	spielen	schön	treu	fair	ehrlich	retten	strafen	schlecht	tot	faul	eitel	rächen	1	acq_USunple_CSunple2_RW	acq4567_RW	5	20	400	1	300	300	427	50	0	0	1	blank2r.bmp	0	1	+	0	1	blank2r.bmp	492	1	JXXJ	492	1	blank2r.bmp	572	1	faul	866	1	!	1239	1	!	1332	0	0	0	0	0	0	0	0	0	0	0	0	0	0	0	0	0	0	0	0	0	0	0	0	0	0	0	0	0	0
071519	17:01:09	17:07:59	407823	5.0.10.0	5_exp_RW	999	Rpleas_acq	CS_B	BZZB	YDDY	GWWG	JXXJ	VKKV	MQQM	spielen	schön	treu	fair	ehrlich	retten	strafen	schlecht	tot	faul	eitel	rächen	1	acq_USpleas_CSpleas1_RW	acq4567_RW	5	21	400	1	300	300	391	50	0	1	1	blank2r.bmp	0	1	+	0	1	blank2r.bmp	492	1	BZZB	492	1	blank2r.bmp	572	3	treu	866	1	!	1239	1	!	1292	0	0	0	0	0	0	0	0	0	0	0	0	0	0	0	0	0	0	0	0	0	0	0	0	0	0	0	0	0	0
071519	17:01:09	17:08:01	410009	5.0.10.0	5_exp_RW	999	Rpleas_acq	CS_B	BZZB	YDDY	GWWG	JXXJ	VKKV	MQQM	spielen	schön	treu	fair	ehrlich	retten	strafen	schlecht	tot	faul	eitel	rächen	1	acq_USpleas_CSpleas2_RW	acq4567_RW	5	22	400	1	300	300	397	50	0	1	1	blank2r.bmp	0	1	+	0	1	blank2r.bmp	492	1	YDDY	492	1	blank2r.bmp	572	2	ehrlich	866	1	!	1239	1	!	1292	0	0	0	0	0	0	0	0	0	0	0	0	0	0	0	0	0	0	0	0	0	0	0	0	0	0	0	0	0	0
071519	17:01:09	17:08:03	412181	5.0.10.0	5_exp_RW	999	Rpleas_acq	CS_B	BZZB	YDDY	GWWG	JXXJ	VKKV	MQQM	spielen	schön	treu	fair	ehrlich	retten	strafen	schlecht	tot	faul	eitel	rächen	1	acq_USunple_CSunple2_RW	acq4567_RW	5	23	400	1	300	300	372	46	0	1	1	blank2r.bmp	0	1	+	0	1	blank2r.bmp	492	1	JXXJ	492	1	blank2r.bmp	572	2	eitel	866	1	!	1239	1	!	1279	0	0	0	0	0	0	0	0	0	0	0	0	0	0	0	0	0	0	0	0	0	0	0	0	0	0	0	0	0	0
071519	17:01:09	17:08:05	414367	5.0.10.0	5_exp_RW	999	Rpleas_acq	CS_B	BZZB	YDDY	GWWG	JXXJ	VKKV	MQQM	spielen	schön	treu	fair	ehrlich	retten	strafen	schlecht	tot	faul	eitel	rächen	1	acq_USunple_CSunple1_RW	acq4567_RW	5	24	400	1	300	300	392	46	0	1	1	blank2r.bmp	0	1	+	0	1	blank2r.bmp	492	1	GWWG	492	1	blank2r.bmp	572	1	strafen	866	1	!	1239	1	!	1292	0	0	0	0	0	0	0	0	0	0	0	0	0	0	0	0	0	0	0	0	0	0	0	0	0	0	0	0	0	0
071519	17:01:09	17:08:07	416606	5.0.10.0	5_exp_RW	999	Rpleas_acq	CS_B	BZZB	YDDY	GWWG	JXXJ	VKKV	MQQM	spielen	schön	treu	fair	ehrlich	retten	strafen	schlecht	tot	faul	eitel	rächen	1	acq_USpleas_CSpleas2_RW	acq4567_RW	5	25	400	1	300	300	442	50	0	1	1	blank2r.bmp	0	1	+	0	1	blank2r.bmp	492	1	YDDY	492	1	blank2r.bmp	572	2	ehrlich	866	1	!	1239	1	!	1346	0	0	0	0	0	0	0	0	0	0	0	0	0	0	0	0	0	0	0	0	0	0	0	0	0	0	0	0	0	0
071519	17:01:09	17:08:10	418752	5.0.10.0	5_exp_RW	999	Rpleas_acq	CS_B	BZZB	YDDY	GWWG	JXXJ	VKKV	MQQM	spielen	schön	treu	fair	ehrlich	retten	strafen	schlecht	tot	faul	eitel	rächen	1	acq_USpleas_CSpleas2_RW	acq4567_RW	5	26	400	1	300	300	356	50	0	1	1	blank2r.bmp	0	1	+	0	1	blank2r.bmp	492	1	YDDY	492	1	blank2r.bmp	572	1	fair	866	1	!	1239	1	!	1252	0	0	0	0	0	0	0	0	0	0	0	0	0	0	0	0	0	0	0	0	0	0	0	0	0	0	0	0	0	0
071519	17:01:09	17:08:12	420911	5.0.10.0	5_exp_RW	999	Rpleas_acq	CS_B	BZZB	YDDY	GWWG	JXXJ	VKKV	MQQM	spielen	schön	treu	fair	ehrlich	retten	strafen	schlecht	tot	faul	eitel	rächen	1	acq_USunple_CSunple1_RW	acq4567_RW	5	27	400	1	300	300	362	46	0	1	1	blank2r.bmp	0	1	+	0	1	blank2r.bmp	492	1	GWWG	492	1	blank2r.bmp	572	1	strafen	866	1	!	1239	1	!	1266	0	0	0	0	0	0	0	0	0	0	0	0	0	0	0	0	0	0	0	0	0	0	0	0	0	0	0	0	0	0
071519	17:01:09	17:08:14	423083	5.0.10.0	5_exp_RW	999	Rpleas_acq	CS_B	BZZB	YDDY	GWWG	JXXJ	VKKV	MQQM	spielen	schön	treu	fair	ehrlich	retten	strafen	schlecht	tot	faul	eitel	rächen	1	acq_USpleas_CSpleas1_RW	acq4567_RW	5	28	400	1	300	300	380	50	0	1	1	blank2r.bmp	0	1	+	0	1	blank2r.bmp	492	1	BZZB	492	1	blank2r.bmp	572	2	schön	866	1	!	1239	1	!	1279	0	0	0	0	0	0	0	0	0	0	0	0	0	0	0	0	0	0	0	0	0	0	0	0	0	0	0	0	0	0
071519	17:01:09	17:08:16	425296	5.0.10.0	5_exp_RW	999	Rpleas_acq	CS_B	BZZB	YDDY	GWWG	JXXJ	VKKV	MQQM	spielen	schön	treu	fair	ehrlich	retten	strafen	schlecht	tot	faul	eitel	rächen	1	acq_USunple_CSunple1_RW	acq4567_RW	5	29	400	1	300	300	421	46	0	1	1	blank2r.bmp	0	1	+	0	1	blank2r.bmp	492	1	GWWG	492	1	blank2r.bmp	572	2	schlecht	866	1	!	1239	1	!	1319	0	0	0	0	0	0	0	0	0	0	0	0	0	0	0	0	0	0	0	0	0	0	0	0	0	0	0	0	0	0
071519	17:01:09	17:08:18	427388	5.0.10.0	5_exp_RW	999	Rpleas_acq	CS_B	BZZB	YDDY	GWWG	JXXJ	VKKV	MQQM	spielen	schön	treu	fair	ehrlich	retten	strafen	schlecht	tot	faul	eitel	rächen	1	acq_USunple_CSunple1_RW	acq4567_RW	5	30	400	0	300	300	325	46	0	1	1	blank2r.bmp	0	1	+	0	1	blank2r.bmp	492	1	GWWG	492	1	blank2r.bmp	572	3	tot	866	1	!	-1	1	!	-1	0	0	0	0	0	0	0	0	0	0	0	0	0	0	0	0	0	0	0	0	0	0	0	0	0	0	0	0	0	0
071519	17:01:09	17:08:20	429600	5.0.10.0	5_exp_RW	999	Rpleas_acq	CS_B	BZZB	YDDY	GWWG	JXXJ	VKKV	MQQM	spielen	schön	treu	fair	ehrlich	retten	strafen	schlecht	tot	faul	eitel	rächen	1	acq_USunple_CSunple2_RW	acq4567_RW	5	31	400	1	300	300	404	46	0	1	1	blank2r.bmp	3	1	+	3	1	blank2r.bmp	492	1	JXXJ	492	1	blank2r.bmp	572	3	rächen	866	1	!	1239	1	!	1306	0	0	0	0	0	0	0	0	0	0	0	0	0	0	0	0	0	0	0	0	0	0	0	0	0	0	0	0	0	0
071519	17:01:09	17:08:23	431786	5.0.10.0	5_exp_RW	999	Rpleas_acq	CS_B	BZZB	YDDY	GWWG	JXXJ	VKKV	MQQM	spielen	schön	treu	fair	ehrlich	retten	strafen	schlecht	tot	faul	eitel	rächen	1	acq_USunple_CSunple1_RW	acq4567_RW	5	32	400	1	300	300	396	46	0	1	1	blank2r.bmp	0	1	+	0	1	blank2r.bmp	492	1	GWWG	492	1	blank2r.bmp	572	1	strafen	866	1	!	1239	1	!	1292	0	0	0	0	0	0	0	0	0	0	0	0	0	0	0	0	0	0	0	0	0	0	0	0	0	0	0	0	0	0
071519	17:01:09	17:08:25	434039	5.0.10.0	5_exp_RW	999	Rpleas_acq	CS_B	BZZB	YDDY	GWWG	JXXJ	VKKV	MQQM	spielen	schön	treu	fair	ehrlich	retten	strafen	schlecht	tot	faul	eitel	rächen	1	acq_USpleas_CSpleas1_RW	acq4567_RW	5	33	400	0	300	300	479	50	0	1	1	blank2r.bmp	0	1	+	0	1	blank2r.bmp	492	1	BZZB	492	1	blank2r.bmp	572	1	spielen	866	1	!	1239	1	!	-1	0	0	0	0	0	0	0	0	0	0	0	0	0	0	0	0	0	0	0	0	0	0	0	0	0	0	0	0	0	0
071519	17:01:09	17:08:27	436251	5.0.10.0	5_exp_RW	999	Rpleas_acq	CS_B	BZZB	YDDY	GWWG	JXXJ	VKKV	MQQM	spielen	schön	treu	fair	ehrlich	retten	strafen	schlecht	tot	faul	eitel	rächen	1	acq_USpleas_CSpleas2_RW	acq4567_RW	5	34	400	1	300	300	400	50	0	1	1	blank2r.bmp	0	1	+	0	1	blank2r.bmp	492	1	YDDY	492	1	blank2r.bmp	572	3	retten	866	1	!	1239	1	!	1306	0	0	0	0	0	0	0	0	0	0	0	0	0	0	0	0	0	0	0	0	0	0	0	0	0	0	0	0	0	0
071519	17:01:09	17:08:29	438437	5.0.10.0	5_exp_RW	999	Rpleas_acq	CS_B	BZZB	YDDY	GWWG	JXXJ	VKKV	MQQM	spielen	schön	treu	fair	ehrlich	retten	strafen	schlecht	tot	faul	eitel	rächen	1	acq_USunple_CSunple2_RW	acq4567_RW	5	35	400	1	300	300	387	46	0	1	1	blank2r.bmp	0	1	+	0	1	blank2r.bmp	492	1	JXXJ	492	1	blank2r.bmp	572	2	eitel	866	1	!	1239	1	!	1292	0	0	0	0	0	0	0	0	0	0	0	0	0	0	0	0	0	0	0	0	0	0	0	0	0	0	0	0	0	0
071519	17:01:09	17:08:32	440649	5.0.10.0	5_exp_RW	999	Rpleas_acq	CS_B	BZZB	YDDY	GWWG	JXXJ	VKKV	MQQM	spielen	schön	treu	fair	ehrlich	retten	strafen	schlecht	tot	faul	eitel	rächen	1	acq_USpleas_CSpleas2_RW	acq4567_RW	5	36	400	1	300	300	412	50	0	1	1	blank2r.bmp	0	1	+	0	1	blank2r.bmp	492	1	YDDY	492	1	blank2r.bmp	572	3	retten	866	1	!	1239	1	!	1319	0	0	0	0	0	0	0	0	0	0	0	0	0	0	0	0	0	0	0	0	0	0	0	0	0	0	0	0	0	0
071519	17:01:09	17:08:34	442875	5.0.10.0	5_exp_RW	999	Rpleas_acq	CS_B	BZZB	YDDY	GWWG	JXXJ	VKKV	MQQM	spielen	schön	treu	fair	ehrlich	retten	strafen	schlecht	tot	faul	eitel	rächen	1	acq_USpleas_CSpleas1_RW	acq4567_RW	5	37	400	1	300	300	436	46	0	0	1	blank2r.bmp	0	1	+	0	1	blank2r.bmp	492	1	BZZB	492	1	blank2r.bmp	572	3	treu	866	1	!	1239	1	!	1332	0	0	0	0	0	0	0	0	0	0	0	0	0	0	0	0	0	0	0	0	0	0	0	0	0	0	0	0	0	0
071519	17:01:09	17:08:36	445021	5.0.10.0	5_exp_RW	999	Rpleas_acq	CS_B	BZZB	YDDY	GWWG	JXXJ	VKKV	MQQM	spielen	schön	treu	fair	ehrlich	retten	strafen	schlecht	tot	faul	eitel	rächen	1	acq_USunple_CSunple2_RW	acq4567_RW	5	38	400	1	300	300	355	46	0	1	1	blank2r.bmp	0	1	+	0	1	blank2r.bmp	492	1	JXXJ	492	1	blank2r.bmp	572	1	faul	866	1	!	1239	1	!	1252	0	0	0	0	0	0	0	0	0	0	0	0	0	0	0	0	0	0	0	0	0	0	0	0	0	0	0	0	0	0
071519	17:01:09	17:08:38	447273	5.0.10.0	5_exp_RW	999	Rpleas_acq	CS_B	BZZB	YDDY	GWWG	JXXJ	VKKV	MQQM	spielen	schön	treu	fair	ehrlich	retten	strafen	schlecht	tot	faul	eitel	rächen	1	acq_USpleas_CSpleas1_RW	acq4567_RW	5	39	400	0	300	300	481	50	0	1	1	blank2r.bmp	0	1	+	0	1	blank2r.bmp	492	1	BZZB	492	1	blank2r.bmp	572	1	spielen	866	1	!	1239	1	!	-1	0	0	0	0	0	0	0	0	0	0	0	0	0	0	0	0	0	0	0	0	0	0	0	0	0	0	0	0	0	0
071519	17:01:09	17:08:40	449445	5.0.10.0	5_exp_RW	999	Rpleas_acq	CS_B	BZZB	YDDY	GWWG	JXXJ	VKKV	MQQM	spielen	schön	treu	fair	ehrlich	retten	strafen	schlecht	tot	faul	eitel	rächen	1	acq_USunple_CSunple2_RW	acq4567_RW	5	40	400	1	300	300	360	46	0	1	1	blank2r.bmp	0	1	+	0	1	blank2r.bmp	492	1	JXXJ	492	1	blank2r.bmp	572	1	faul	866	1	!	1239	1	!	1266	0	0	0	0	0	0	0	0	0	0	0	0	0	0	0	0	0	0	0	0	0	0	0	0	0	0	0	0	0	0
071519	17:01:09	17:08:43	451644	5.0.10.0	5_exp_RW	999	Rpleas_acq	CS_B	BZZB	YDDY	GWWG	JXXJ	VKKV	MQQM	spielen	schön	treu	fair	ehrlich	retten	strafen	schlecht	tot	faul	eitel	rächen	1	acq_USpleas_CSpleas2_RW	acq4567_RW	5	41	400	1	300	300	398	50	0	1	1	blank2r.bmp	0	1	+	0	1	blank2r.bmp	492	1	YDDY	492	1	blank2r.bmp	572	2	ehrlich	866	1	!	1239	1	!	1306	0	0	0	0	0	0	0	0	0	0	0	0	0	0	0	0	0	0	0	0	0	0	0	0	0	0	0	0	0	0
071519	17:01:09	17:08:45	453790	5.0.10.0	5_exp_RW	999	Rpleas_acq	CS_B	BZZB	YDDY	GWWG	JXXJ	VKKV	MQQM	spielen	schön	treu	fair	ehrlich	retten	strafen	schlecht	tot	faul	eitel	rächen	1	acq_USpleas_CSpleas2_RW	acq4567_RW	5	42	400	1	300	300	346	50	0	1	1	blank2r.bmp	0	1	+	0	1	blank2r.bmp	492	1	YDDY	492	1	blank2r.bmp	572	1	fair	866	1	!	1239	1	!	1252	0	0	0	0	0	0	0	0	0	0	0	0	0	0	0	0	0	0	0	0	0	0	0	0	0	0	0	0	0	0
071519	17:01:09	17:08:47	455976	5.0.10.0	5_exp_RW	999	Rpleas_acq	CS_B	BZZB	YDDY	GWWG	JXXJ	VKKV	MQQM	spielen	schön	treu	fair	ehrlich	retten	strafen	schlecht	tot	faul	eitel	rächen	1	acq_USpleas_CSpleas1_RW	acq4567_RW	5	43	400	1	300	300	385	50	0	1	1	blank2r.bmp	0	1	+	0	1	blank2r.bmp	492	1	BZZB	492	1	blank2r.bmp	572	3	treu	866	1	!	1239	1	!	1292	0	0	0	0	0	0	0	0	0	0	0	0	0	0	0	0	0	0	0	0	0	0	0	0	0	0	0	0	0	0
071519	17:01:09	17:08:49	458202	5.0.10.0	5_exp_RW	999	Rpleas_acq	CS_B	BZZB	YDDY	GWWG	JXXJ	VKKV	MQQM	spielen	schön	treu	fair	ehrlich	retten	strafen	schlecht	tot	faul	eitel	rächen	1	acq_USunple_CSunple1_RW	acq4567_RW	5	44	400	1	300	300	431	46	0	1	1	blank2r.bmp	0	1	+	0	1	blank2r.bmp	492	1	GWWG	492	1	blank2r.bmp	572	2	schlecht	866	1	!	1239	1	!	1332	0	0	0	0	0	0	0	0	0	0	0	0	0	0	0	0	0	0	0	0	0	0	0	0	0	0	0	0	0	0
071519	17:01:09	17:08:51	460454	5.0.10.0	5_exp_RW	999	Rpleas_acq	CS_B	BZZB	YDDY	GWWG	JXXJ	VKKV	MQQM	spielen	schön	treu	fair	ehrlich	retten	strafen	schlecht	tot	faul	eitel	rächen	1	acq_USunple_CSunple2_RW	acq4567_RW	5	45	400	1	300	300	460	46	0	1	1	blank2r.bmp	0	1	+	0	1	blank2r.bmp	492	1	JXXJ	492	1	blank2r.bmp	572	3	rächen	866	1	!	1239	1	!	1359	0	0	0	0	0	0	0	0	0	0	0	0	0	0	0	0	0	0	0	0	0	0	0	0	0	0	0	0	0	0
071519	17:01:09	17:08:54	462626	5.0.10.0	5_exp_RW	999	Rpleas_acq	CS_B	BZZB	YDDY	GWWG	JXXJ	VKKV	MQQM	spielen	schön	treu	fair	ehrlich	retten	strafen	schlecht	tot	faul	eitel	rächen	1	acq_USpleas_CSpleas1_RW	acq4567_RW	5	46	400	1	300	300	370	50	0	1	1	blank2r.bmp	0	1	+	0	1	blank2r.bmp	492	1	BZZB	492	1	blank2r.bmp	572	2	schön	866	1	!	1239	1	!	1279	0	0	0	0	0	0	0	0	0	0	0	0	0	0	0	0	0	0	0	0	0	0	0	0	0	0	0	0	0	0
071519	17:01:09	17:08:56	464812	5.0.10.0	5_exp_RW	999	Rpleas_acq	CS_B	BZZB	YDDY	GWWG	JXXJ	VKKV	MQQM	spielen	schön	treu	fair	ehrlich	retten	strafen	schlecht	tot	faul	eitel	rächen	1	acq_USunple_CSunple1_RW	acq4567_RW	5	47	400	1	300	300	394	50	0	0	1	blank2r.bmp	0	1	+	0	1	blank2r.bmp	492	1	GWWG	492	1	blank2r.bmp	572	3	tot	866	1	!	1239	1	!	1292	0	0	0	0	0	0	0	0	0	0	0	0	0	0	0	0	0	0	0	0	0	0	0	0	0	0	0	0	0	0
071519	17:01:09	17:08:58	467038	5.0.10.0	5_exp_RW	999	Rpleas_acq	CS_B	BZZB	YDDY	GWWG	JXXJ	VKKV	MQQM	spielen	schön	treu	fair	ehrlich	retten	strafen	schlecht	tot	faul	eitel	rächen	1	acq_USpleas_CSpleas1_RW	acq4567_RW	5	48	400	1	300	300	435	50	0	1	1	blank2r.bmp	0	1	+	0	1	blank2r.bmp	492	1	BZZB	492	1	blank2r.bmp	572	1	spielen	866	1	!	1239	1	!	1332	0	0	0	0	0	0	0	0	0	0	0	0	0	0	0	0	0	0	0	0	0	0	0	0	0	0	0	0	0	0
071519	17:01:09	17:09:00	469197	5.0.10.0	5_exp_RW	999	Rpleas_acq	CS_B	BZZB	YDDY	GWWG	JXXJ	VKKV	MQQM	spielen	schön	treu	fair	ehrlich	retten	strafen	schlecht	tot	faul	eitel	rächen	1	acq_USpleas_CSpleas2_RW	acq4567_RW	5	49	400	1	300	300	358	46	0	0	1	blank2r.bmp	0	1	+	0	1	blank2r.bmp	492	1	YDDY	492	1	blank2r.bmp	572	2	ehrlich	866	1	!	1239	1	!	1266	0	0	0	0	0	0	0	0	0	0	0	0	0	0	0	0	0	0	0	0	0	0	0	0	0	0	0	0	0	0
071519	17:01:09	17:09:02	471383	5.0.10.0	5_exp_RW	999	Rpleas_acq	CS_B	BZZB	YDDY	GWWG	JXXJ	VKKV	MQQM	spielen	schön	treu	fair	ehrlich	retten	strafen	schlecht	tot	faul	eitel	rächen	1	acq_USpleas_CSpleas2_RW	acq4567_RW	5	50	400	1	300	300	388	50	0	1	1	blank2r.bmp	0	1	+	0	1	blank2r.bmp	492	1	YDDY	492	1	blank2r.bmp	572	3	retten	866	1	!	1239	1	!	1292	0	0	0	0	0	0	0	0	0	0	0	0	0	0	0	0	0	0	0	0	0	0	0	0	0	0	0	0	0	0
071519	17:01:09	17:09:04	473582	5.0.10.0	5_exp_RW	999	Rpleas_acq	CS_B	BZZB	YDDY	GWWG	JXXJ	VKKV	MQQM	spielen	schön	treu	fair	ehrlich	retten	strafen	schlecht	tot	faul	eitel	rächen	1	acq_USunple_CSunple2_RW	acq4567_RW	5	51	400	1	300	300	409	46	0	1	1	blank2r.bmp	0	1	+	0	1	blank2r.bmp	492	1	JXXJ	492	1	blank2r.bmp	572	2	eitel	866	1	!	1239	1	!	1306	0	0	0	0	0	0	0	0	0	0	0	0	0	0	0	0	0	0	0	0	0	0	0	0	0	0	0	0	0	0
071519	17:01:09	17:09:07	475874	5.0.10.0	5_exp_RW	999	Rpleas_acq	CS_B	BZZB	YDDY	GWWG	JXXJ	VKKV	MQQM	spielen	schön	treu	fair	ehrlich	retten	strafen	schlecht	tot	faul	eitel	rächen	1	acq_USpleas_CSpleas2_RW	acq4567_RW	5	52	400	0	300	300	521	50	0	1	1	blank2r.bmp	0	1	+	0	1	blank2r.bmp	492	1	YDDY	492	1	blank2r.bmp	572	1	fair	866	1	!	1239	1	!	-1	0	0	0	0	0	0	0	0	0	0	0	0	0	0	0	0	0	0	0	0	0	0	0	0	0	0	0	0	0	0
071519	17:01:09	17:09:09	478073	5.0.10.0	5_exp_RW	999	Rpleas_acq	CS_B	BZZB	YDDY	GWWG	JXXJ	VKKV	MQQM	spielen	schön	treu	fair	ehrlich	retten	strafen	schlecht	tot	faul	eitel	rächen	1	acq_USunple_CSunple2_RW	acq4567_RW	5	53	400	1	300	300	392	46	0	1	1	blank2r.bmp	0	1	+	0	1	blank2r.bmp	492	1	JXXJ	492	1	blank2r.bmp	572	1	faul	866	1	!	1239	1	!	1292	0	0	0	0	0	0	0	0	0	0	0	0	0	0	0	0	0	0	0	0	0	0	0	0	0	0	0	0	0	0
071519	17:01:09	17:09:11	480299	5.0.10.0	5_exp_RW	999	Rpleas_acq	CS_B	BZZB	YDDY	GWWG	JXXJ	VKKV	MQQM	spielen	schön	treu	fair	ehrlich	retten	strafen	schlecht	tot	faul	eitel	rächen	1	acq_USunple_CSunple1_RW	acq4567_RW	5	54	400	1	300	300	436	46	0	1	1	blank2r.bmp	0	1	+	0	1	blank2r.bmp	492	1	GWWG	492	1	blank2r.bmp	572	2	schlecht	866	1	!	1239	1	!	1332	0	0	0	0	0	0	0	0	0	0	0	0	0	0	0	0	0	0	0	0	0	0	0	0	0	0	0	0	0	0
071519	17:01:09	17:09:13	482471	5.0.10.0	5_exp_RW	999	Rpleas_acq	CS_B	BZZB	YDDY	GWWG	JXXJ	VKKV	MQQM	spielen	schön	treu	fair	ehrlich	retten	strafen	schlecht	tot	faul	eitel	rächen	1	acq_USunple_CSunple2_RW	acq4567_RW	5	55	400	1	300	300	379	46	0	1	1	blank2r.bmp	0	1	+	0	1	blank2r.bmp	492	1	JXXJ	492	1	blank2r.bmp	572	2	eitel	866	1	!	1239	1	!	1279	0	0	0	0	0	0	0	0	0	0	0	0	0	0	0	0	0	0	0	0	0	0	0	0	0	0	0	0	0	0
071519	17:01:09	17:09:16	484724	5.0.10.0	5_exp_RW	999	Rpleas_acq	CS_B	BZZB	YDDY	GWWG	JXXJ	VKKV	MQQM	spielen	schön	treu	fair	ehrlich	retten	strafen	schlecht	tot	faul	eitel	rächen	1	acq_USpleas_CSpleas1_RW	acq4567_RW	5	56	400	1	300	300	463	46	0	0	1	blank2r.bmp	0	1	+	0	1	blank2r.bmp	492	1	BZZB	492	1	blank2r.bmp	572	3	treu	866	1	!	1239	1	!	1359	0	0	0	0	0	0	0	0	0	0	0	0	0	0	0	0	0	0	0	0	0	0	0	0	0	0	0	0	0	0
071519	17:01:09	17:09:18	486870	5.0.10.0	5_exp_RW	999	Rpleas_acq	CS_B	BZZB	YDDY	GWWG	JXXJ	VKKV	MQQM	spielen	schön	treu	fair	ehrlich	retten	strafen	schlecht	tot	faul	eitel	rächen	1	acq_USunple_CSunple1_RW	acq4567_RW	5	57	400	1	300	300	349	46	0	1	1	blank2r.bmp	0	1	+	0	1	blank2r.bmp	492	1	GWWG	492	1	blank2r.bmp	572	3	tot	866	1	!	1239	1	!	1252	0	0	0	0	0	0	0	0	0	0	0	0	0	0	0	0	0	0	0	0	0	0	0	0	0	0	0	0	0	0
071519	17:01:09	17:09:20	489082	5.0.10.0	5_exp_RW	999	Rpleas_acq	CS_B	BZZB	YDDY	GWWG	JXXJ	VKKV	MQQM	spielen	schön	treu	fair	ehrlich	retten	strafen	schlecht	tot	faul	eitel	rächen	1	acq_USunple_CSunple2_RW	acq4567_RW	5	58	400	1	300	300	413	46	0	1	1	blank2r.bmp	0	1	+	0	1	blank2r.bmp	494	1	JXXJ	494	1	blank2r.bmp	572	3	rächen	868	1	!	1239	1	!	1319	0	0	0	0	0	0	0	0	0	0	0	0	0	0	0	0	0	0	0	0	0	0	0	0	0	0	0	0	0	0
071519	17:01:09	17:09:22	491241	5.0.10.0	5_exp_RW	999	Rpleas_acq	CS_B	BZZB	YDDY	GWWG	JXXJ	VKKV	MQQM	spielen	schön	treu	fair	ehrlich	retten	strafen	schlecht	tot	faul	eitel	rächen	1	acq_USpleas_CSpleas1_RW	acq4567_RW	5	59	400	1	300	300	365	50	0	1	1	blank2r.bmp	0	1	+	0	1	blank2r.bmp	492	1	BZZB	492	1	blank2r.bmp	572	2	schön	866	1	!	1239	1	!	1266	0	0	0	0	0	0	0	0	0	0	0	0	0	0	0	0	0	0	0	0	0	0	0	0	0	0	0	0	0	0
071519	17:01:09	17:09:24	493467	5.0.10.0	5_exp_RW	999	Rpleas_acq	CS_B	BZZB	YDDY	GWWG	JXXJ	VKKV	MQQM	spielen	schön	treu	fair	ehrlich	retten	strafen	schlecht	tot	faul	eitel	rächen	1	acq_USunple_CSunple1_RW	acq4567_RW	5	60	400	1	300	300	428	46	0	1	1	blank2r.bmp	0	1	+	0	1	blank2r.bmp	492	1	GWWG	492	1	blank2r.bmp	572	1	strafen	866	1	!	1239	1	!	1332	0	0	0	0	0	0	0	0	0	0	0	0	0	0	0	0	0	0	0	0	0	0	0	0	0	0	0	0	0	0
071519	17:01:09	17:09:26	495626	5.0.10.0	5_exp_RW	999	Rpleas_acq	CS_B	BZZB	YDDY	GWWG	JXXJ	VKKV	MQQM	spielen	schön	treu	fair	ehrlich	retten	strafen	schlecht	tot	faul	eitel	rächen	1	acq_USunple_CSunple2_RW	acq4567_RW	5	61	400	1	300	300	359	46	0	1	1	blank2r.bmp	0	1	+	0	1	blank2r.bmp	492	1	JXXJ	492	1	blank2r.bmp	572	2	eitel	866	1	!	1239	1	!	1266	0	0	0	0	0	0	0	0	0	0	0	0	0	0	0	0	0	0	0	0	0	0	0	0	0	0	0	0	0	0
071519	17:01:09	17:09:29	497812	5.0.10.0	5_exp_RW	999	Rpleas_acq	CS_B	BZZB	YDDY	GWWG	JXXJ	VKKV	MQQM	spielen	schön	treu	fair	ehrlich	retten	strafen	schlecht	tot	faul	eitel	rächen	1	acq_USunple_CSunple2_RW	acq4567_RW	5	62	400	1	300	300	390	46	0	1	1	blank2r.bmp	0	1	+	0	1	blank2r.bmp	492	1	JXXJ	492	1	blank2r.bmp	572	1	faul	866	1	!	1239	1	!	1292	0	0	0	0	0	0	0	0	0	0	0	0	0	0	0	0	0	0	0	0	0	0	0	0	0	0	0	0	0	0
071519	17:01:09	17:09:31	499984	5.0.10.0	5_exp_RW	999	Rpleas_acq	CS_B	BZZB	YDDY	GWWG	JXXJ	VKKV	MQQM	spielen	schön	treu	fair	ehrlich	retten	strafen	schlecht	tot	faul	eitel	rächen	1	acq_USpleas_CSpleas2_RW	acq4567_RW	5	63	400	1	300	300	382	50	0	1	1	blank2r.bmp	0	1	+	0	1	blank2r.bmp	492	1	YDDY	492	1	blank2r.bmp	572	2	ehrlich	866	1	!	1239	1	!	1279	0	0	0	0	0	0	0	0	0	0	0	0	0	0	0	0	0	0	0	0	0	0	0	0	0	0	0	0	0	0
071519	17:01:09	17:09:33	502156	5.0.10.0	5_exp_RW	999	Rpleas_acq	CS_B	BZZB	YDDY	GWWG	JXXJ	VKKV	MQQM	spielen	schön	treu	fair	ehrlich	retten	strafen	schlecht	tot	faul	eitel	rächen	1	acq_USpleas_CSpleas1_RW	acq4567_RW	5	64	400	1	300	300	374	46	0	0	1	blank2r.bmp	0	1	+	0	1	blank2r.bmp	492	1	BZZB	492	1	blank2r.bmp	572	3	treu	866	1	!	1239	1	!	1279	0	0	0	0	0	0	0	0	0	0	0	0	0	0	0	0	0	0	0	0	0	0	0	0	0	0	0	0	0	0
071519	17:01:09	17:09:35	504329	5.0.10.0	5_exp_RW	999	Rpleas_acq	CS_B	BZZB	YDDY	GWWG	JXXJ	VKKV	MQQM	spielen	schön	treu	fair	ehrlich	retten	strafen	schlecht	tot	faul	eitel	rächen	1	acq_USunple_CSunple1_RW	acq4567_RW	5	65	400	1	300	300	377	46	0	1	1	blank2r.bmp	0	1	+	0	1	blank2r.bmp	492	1	GWWG	492	1	blank2r.bmp	572	2	schlecht	866	1	!	1239	1	!	1279	0	0	0	0	0	0	0	0	0	0	0	0	0	0	0	0	0	0	0	0	0	0	0	0	0	0	0	0	0	0
071519	17:01:09	17:09:37	506555	5.0.10.0	5_exp_RW	999	Rpleas_acq	CS_B	BZZB	YDDY	GWWG	JXXJ	VKKV	MQQM	spielen	schön	treu	fair	ehrlich	retten	strafen	schlecht	tot	faul	eitel	rächen	1	acq_USunple_CSunple1_RW	acq4567_RW	5	66	400	1	300	300	432	46	0	1	1	blank2r.bmp	0	1	+	0	1	blank2r.bmp	492	1	GWWG	492	1	blank2r.bmp	572	1	strafen	866	1	!	1239	1	!	1332	0	0	0	0	0	0	0	0	0	0	0	0	0	0	0	0	0	0	0	0	0	0	0	0	0	0	0	0	0	0
071519	17:01:09	17:09:40	508727	5.0.10.0	5_exp_RW	999	Rpleas_acq	CS_B	BZZB	YDDY	GWWG	JXXJ	VKKV	MQQM	spielen	schön	treu	fair	ehrlich	retten	strafen	schlecht	tot	faul	eitel	rächen	1	acq_USunple_CSunple2_RW	acq4567_RW	5	67	400	1	300	300	380	50	0	0	1	blank2r.bmp	0	1	+	0	1	blank2r.bmp	492	1	JXXJ	492	1	blank2r.bmp	572	3	rächen	866	1	!	1239	1	!	1279	0	0	0	0	0	0	0	0	0	0	0	0	0	0	0	0	0	0	0	0	0	0	0	0	0	0	0	0	0	0
071519	17:01:09	17:09:42	510926	5.0.10.0	5_exp_RW	999	Rpleas_acq	CS_B	BZZB	YDDY	GWWG	JXXJ	VKKV	MQQM	spielen	schön	treu	fair	ehrlich	retten	strafen	schlecht	tot	faul	eitel	rächen	1	acq_USunple_CSunple2_RW	acq4567_RW	5	68	400	1	300	300	404	46	0	1	1	blank2r.bmp	0	1	+	0	1	blank2r.bmp	492	1	JXXJ	492	1	blank2r.bmp	572	3	rächen	866	1	!	1239	1	!	1306	0	0	0	0	0	0	0	0	0	0	0	0	0	0	0	0	0	0	0	0	0	0	0	0	0	0	0	0	0	0
071519	17:01:09	17:09:44	513178	5.0.10.0	5_exp_RW	999	Rpleas_acq	CS_B	BZZB	YDDY	GWWG	JXXJ	VKKV	MQQM	spielen	schön	treu	fair	ehrlich	retten	strafen	schlecht	tot	faul	eitel	rächen	1	acq_USpleas_CSpleas1_RW	acq4567_RW	5	69	400	1	300	300	451	50	0	1	1	blank2r.bmp	0	1	+	0	1	blank2r.bmp	492	1	BZZB	492	1	blank2r.bmp	572	2	schön	866	1	!	1239	1	!	1359	0	0	0	0	0	0	0	0	0	0	0	0	0	0	0	0	0	0	0	0	0	0	0	0	0	0	0	0	0	0
071519	17:01:09	17:09:46	515351	5.0.10.0	5_exp_RW	999	Rpleas_acq	CS_B	BZZB	YDDY	GWWG	JXXJ	VKKV	MQQM	spielen	schön	treu	fair	ehrlich	retten	strafen	schlecht	tot	faul	eitel	rächen	1	acq_USunple_CSunple1_RW	acq4567_RW	5	70	400	1	300	300	382	46	0	1	1	blank2r.bmp	0	1	+	0	1	blank2r.bmp	492	1	GWWG	492	1	blank2r.bmp	572	3	tot	866	1	!	1239	1	!	1279	0	0	0	0	0	0	0	0	0	0	0	0	0	0	0	0	0	0	0	0	0	0	0	0	0	0	0	0	0	0
071519	17:01:09	17:09:48	517603	5.0.10.0	5_exp_RW	999	Rpleas_acq	CS_B	BZZB	YDDY	GWWG	JXXJ	VKKV	MQQM	spielen	schön	treu	fair	ehrlich	retten	strafen	schlecht	tot	faul	eitel	rächen	1	acq_USpleas_CSpleas2_RW	acq4567_RW	5	71	400	1	300	300	456	50	0	1	1	blank2r.bmp	0	1	+	0	1	blank2r.bmp	492	1	YDDY	492	1	blank2r.bmp	572	3	retten	866	1	!	1239	1	!	1359	0	0	0	0	0	0	0	0	0	0	0	0	0	0	0	0	0	0	0	0	0	0	0	0	0	0	0	0	0	0
071519	17:01:09	17:09:51	519789	5.0.10.0	5_exp_RW	999	Rpleas_acq	CS_B	BZZB	YDDY	GWWG	JXXJ	VKKV	MQQM	spielen	schön	treu	fair	ehrlich	retten	strafen	schlecht	tot	faul	eitel	rächen	1	acq_USpleas_CSpleas1_RW	acq4567_RW	5	72	400	1	300	300	387	50	0	1	1	blank2r.bmp	0	1	+	0	1	blank2r.bmp	492	1	BZZB	492	1	blank2r.bmp	572	1	spielen	866	1	!	1239	1	!	1292	0	0	0	0	0	0	0	0	0	0	0	0	0	0	0	0	0	0	0	0	0	0	0	0	0	0	0	0	0	0
071519	17:01:09	17:09:53	522028	5.0.10.0	5_exp_RW	999	Rpleas_acq	CS_B	BZZB	YDDY	GWWG	JXXJ	VKKV	MQQM	spielen	schön	treu	fair	ehrlich	retten	strafen	schlecht	tot	faul	eitel	rächen	1	acq_USpleas_CSpleas1_RW	acq4567_RW	5	73	400	1	300	300	446	50	0	1	1	blank2r.bmp	0	1	+	0	1	blank2r.bmp	492	1	BZZB	492	1	blank2r.bmp	572	3	treu	866	1	!	1239	1	!	1346	0	0	0	0	0	0	0	0	0	0	0	0	0	0	0	0	0	0	0	0	0	0	0	0	0	0	0	0	0	0
071519	17:01:09	17:09:55	524120	5.0.10.0	5_exp_RW	999	Rpleas_acq	CS_B	BZZB	YDDY	GWWG	JXXJ	VKKV	MQQM	spielen	schön	treu	fair	ehrlich	retten	strafen	schlecht	tot	faul	eitel	rächen	1	acq_USunple_CSunple1_RW	acq4567_RW	5	74	400	0	300	300	316	46	0	1	1	blank2r.bmp	0	1	+	0	1	blank2r.bmp	492	1	GWWG	492	1	blank2r.bmp	572	3	tot	866	1	!	-1	1	!	-1	0	0	0	0	0	0	0	0	0	0	0	0	0	0	0	0	0	0	0	0	0	0	0	0	0	0	0	0	0	0
071519	17:01:09	17:09:57	526426	5.0.10.0	5_exp_RW	999	Rpleas_acq	CS_B	BZZB	YDDY	GWWG	JXXJ	VKKV	MQQM	spielen	schön	treu	fair	ehrlich	retten	strafen	schlecht	tot	faul	eitel	rächen	1	acq_USpleas_CSpleas2_RW	acq4567_RW	5	75	400	0	300	300	529	50	0	1	1	blank2r.bmp	0	1	+	0	1	blank2r.bmp	492	1	YDDY	492	1	blank2r.bmp	572	1	fair	866	1	!	1239	1	!	-1	0	0	0	0	0	0	0	0	0	0	0	0	0	0	0	0	0	0	0	0	0	0	0	0	0	0	0	0	0	0
071519	17:01:09	17:09:59	528612	5.0.10.0	5_exp_RW	999	Rpleas_acq	CS_B	BZZB	YDDY	GWWG	JXXJ	VKKV	MQQM	spielen	schön	treu	fair	ehrlich	retten	strafen	schlecht	tot	faul	eitel	rächen	1	acq_USpleas_CSpleas1_RW	acq4567_RW	5	76	400	1	300	300	379	50	0	1	1	blank2r.bmp	0	1	+	0	1	blank2r.bmp	492	1	BZZB	492	1	blank2r.bmp	572	2	schön	866	1	!	1239	1	!	1279	0	0	0	0	0	0	0	0	0	0	0	0	0	0	0	0	0	0	0	0	0	0	0	0	0	0	0	0	0	0
071519	17:01:09	17:10:02	530851	5.0.10.0	5_exp_RW	999	Rpleas_acq	CS_B	BZZB	YDDY	GWWG	JXXJ	VKKV	MQQM	spielen	schön	treu	fair	ehrlich	retten	strafen	schlecht	tot	faul	eitel	rächen	1	acq_USpleas_CSpleas2_RW	acq4567_RW	5	77	400	1	300	300	439	50	0	1	1	blank2r.bmp	0	1	+	0	1	blank2r.bmp	492	1	YDDY	492	1	blank2r.bmp	573	2	ehrlich	866	1	!	1239	1	!	1346	0	0	0	0	0	0	0	0	0	0	0	0	0	0	0	0	0	0	0	0	0	0	0	0	0	0	0	0	0	0
071519	17:01:09	17:10:04	532997	5.0.10.0	5_exp_RW	999	Rpleas_acq	CS_B	BZZB	YDDY	GWWG	JXXJ	VKKV	MQQM	spielen	schön	treu	fair	ehrlich	retten	strafen	schlecht	tot	faul	eitel	rächen	1	acq_USpleas_CSpleas2_RW	acq4567_RW	5	78	400	1	300	300	346	50	0	1	1	blank2r.bmp	0	1	+	0	1	blank2r.bmp	492	1	YDDY	492	1	blank2r.bmp	572	1	fair	866	1	!	1239	1	!	1252	0	0	0	0	0	0	0	0	0	0	0	0	0	0	0	0	0	0	0	0	0	0	0	0	0	0	0	0	0	0
071519	17:01:09	17:10:06	535222	5.0.10.0	5_exp_RW	999	Rpleas_acq	CS_B	BZZB	YDDY	GWWG	JXXJ	VKKV	MQQM	spielen	schön	treu	fair	ehrlich	retten	strafen	schlecht	tot	faul	eitel	rächen	1	acq_USunple_CSunple2_RW	acq4567_RW	5	79	400	1	300	300	435	50	0	0	1	blank2r.bmp	0	1	+	0	1	blank2r.bmp	492	1	JXXJ	492	1	blank2r.bmp	573	1	faul	866	1	!	1239	1	!	1332	0	0	0	0	0	0	0	0	0	0	0	0	0	0	0	0	0	0	0	0	0	0	0	0	0	0	0	0	0	0
071519	17:01:09	17:10:08	537381	5.0.10.0	5_exp_RW	999	Rpleas_acq	CS_B	BZZB	YDDY	GWWG	JXXJ	VKKV	MQQM	spielen	schön	treu	fair	ehrlich	retten	strafen	schlecht	tot	faul	eitel	rächen	1	acq_USunple_CSunple1_RW	acq4567_RW	5	80	400	1	300	300	359	46	0	1	1	blank2r.bmp	0	1	+	0	1	blank2r.bmp	492	1	GWWG	492	1	blank2r.bmp	572	1	strafen	866	1	!	1239	1	!	1266	0	0	0	0	0	0	0	0	0	0	0	0	0	0	0	0	0	0	0	0	0	0	0	0	0	0	0	0	0	0
071519	17:01:09	17:10:13	542153	5.0.10.0	5_exp_RW	999	Rpleas_acq	CS_B	BZZB	YDDY	GWWG	JXXJ	VKKV	MQQM	spielen	schön	treu	fair	ehrlich	retten	strafen	schlecht	tot	faul	eitel	rächen	1	acq_USunple_CSunple1_RW	acq4567_RW	6	1	400	1	300	300	422	46	0	1	1	blank2r.bmp	0	1	+	0	1	blank2r.bmp	492	1	GWWG	492	1	blank2r.bmp	572	2	schlecht	866	1	!	1239	1	!	1319	0	0	0	0	0	0	0	0	0	0	0	0	0	0	0	0	0	0	0	0	0	0	0	0	0	0	0	0	0	0
071519	17:01:09	17:10:15	544299	5.0.10.0	5_exp_RW	999	Rpleas_acq	CS_B	BZZB	YDDY	GWWG	JXXJ	VKKV	MQQM	spielen	schön	treu	fair	ehrlich	retten	strafen	schlecht	tot	faul	eitel	rächen	1	acq_USpleas_CSpleas2_RW	acq4567_RW	6	2	400	1	300	300	352	50	0	1	1	blank2r.bmp	0	1	+	0	1	blank2r.bmp	492	1	YDDY	492	1	blank2r.bmp	572	3	retten	866	1	!	1239	1	!	1252	0	0	0	0	0	0	0	0	0	0	0	0	0	0	0	0	0	0	0	0	0	0	0	0	0	0	0	0	0	0
071519	17:01:09	17:10:17	546498	5.0.10.0	5_exp_RW	999	Rpleas_acq	CS_B	BZZB	YDDY	GWWG	JXXJ	VKKV	MQQM	spielen	schön	treu	fair	ehrlich	retten	strafen	schlecht	tot	faul	eitel	rächen	1	acq_USpleas_CSpleas1_RW	acq4567_RW	6	3	400	1	300	300	409	50	0	1	1	blank2r.bmp	0	1	+	0	1	blank2r.bmp	492	1	BZZB	492	1	blank2r.bmp	572	1	spielen	866	1	!	1239	1	!	1306	0	0	0	0	0	0	0	0	0	0	0	0	0	0	0	0	0	0	0	0	0	0	0	0	0	0	0	0	0	0
071519	17:01:09	17:10:20	548643	5.0.10.0	5_exp_RW	999	Rpleas_acq	CS_B	BZZB	YDDY	GWWG	JXXJ	VKKV	MQQM	spielen	schön	treu	fair	ehrlich	retten	strafen	schlecht	tot	faul	eitel	rächen	1	acq_USpleas_CSpleas2_RW	acq4567_RW	6	4	400	1	300	300	345	50	0	1	1	blank2r.bmp	0	1	+	0	1	blank2r.bmp	492	1	YDDY	492	1	blank2r.bmp	572	2	ehrlich	866	1	!	1239	1	!	1252	0	0	0	0	0	0	0	0	0	0	0	0	0	0	0	0	0	0	0	0	0	0	0	0	0	0	0	0	0	0
071519	17:01:09	17:10:22	550816	5.0.10.0	5_exp_RW	999	Rpleas_acq	CS_B	BZZB	YDDY	GWWG	JXXJ	VKKV	MQQM	spielen	schön	treu	fair	ehrlich	retten	strafen	schlecht	tot	faul	eitel	rächen	1	acq_USunple_CSunple2_RW	acq4567_RW	6	5	400	1	300	300	379	50	0	0	1	blank2r.bmp	0	1	+	0	1	blank2r.bmp	494	1	JXXJ	494	1	blank2r.bmp	572	2	eitel	866	1	!	1239	1	!	1279	0	0	0	0	0	0	0	0	0	0	0	0	0	0	0	0	0	0	0	0	0	0	0	0	0	0	0	0	0	0
071519	17:01:09	17:10:24	552962	5.0.10.0	5_exp_RW	999	Rpleas_acq	CS_B	BZZB	YDDY	GWWG	JXXJ	VKKV	MQQM	spielen	schön	treu	fair	ehrlich	retten	strafen	schlecht	tot	faul	eitel	rächen	1	acq_USunple_CSunple1_RW	acq4567_RW	6	6	400	1	300	300	352	46	0	1	1	blank2r.bmp	0	1	+	0	1	blank2r.bmp	492	1	GWWG	492	1	blank2r.bmp	572	3	tot	866	1	!	1239	1	!	1252	0	0	0	0	0	0	0	0	0	0	0	0	0	0	0	0	0	0	0	0	0	0	0	0	0	0	0	0	0	0
071519	17:01:09	17:10:26	555174	5.0.10.0	5_exp_RW	999	Rpleas_acq	CS_B	BZZB	YDDY	GWWG	JXXJ	VKKV	MQQM	spielen	schön	treu	fair	ehrlich	retten	strafen	schlecht	tot	faul	eitel	rächen	1	acq_USunple_CSunple1_RW	acq4567_RW	6	7	400	1	300	300	419	46	0	1	1	blank2r.bmp	0	1	+	0	1	blank2r.bmp	492	1	GWWG	492	1	blank2r.bmp	573	2	schlecht	866	1	!	1239	1	!	1319	0	0	0	0	0	0	0	0	0	0	0	0	0	0	0	0	0	0	0	0	0	0	0	0	0	0	0	0	0	0
071519	17:01:09	17:10:28	557386	5.0.10.0	5_exp_RW	999	Rpleas_acq	CS_B	BZZB	YDDY	GWWG	JXXJ	VKKV	MQQM	spielen	schön	treu	fair	ehrlich	retten	strafen	schlecht	tot	faul	eitel	rächen	1	acq_USpleas_CSpleas1_RW	acq4567_RW	6	8	400	1	300	300	414	50	0	1	1	blank2r.bmp	0	1	+	0	1	blank2r.bmp	492	1	BZZB	492	1	blank2r.bmp	572	3	treu	866	1	!	1239	1	!	1319	0	0	0	0	0	0	0	0	0	0	0	0	0	0	0	0	0	0	0	0	0	0	0	0	0	0	0	0	0	0
071519	17:01:09	17:10:30	559545	5.0.10.0	5_exp_RW	999	Rpleas_acq	CS_B	BZZB	YDDY	GWWG	JXXJ	VKKV	MQQM	spielen	schön	treu	fair	ehrlich	retten	strafen	schlecht	tot	faul	eitel	rächen	1	acq_USpleas_CSpleas2_RW	acq4567_RW	6	9	400	1	300	300	366	50	0	1	1	blank2r.bmp	0	1	+	0	1	blank2r.bmp	492	1	YDDY	492	1	blank2r.bmp	572	3	retten	866	1	!	1239	1	!	1266	0	0	0	0	0	0	0	0	0	0	0	0	0	0	0	0	0	0	0	0	0	0	0	0	0	0	0	0	0	0
071519	17:01:09	17:10:33	561745	5.0.10.0	5_exp_RW	999	Rpleas_acq	CS_B	BZZB	YDDY	GWWG	JXXJ	VKKV	MQQM	spielen	schön	treu	fair	ehrlich	retten	strafen	schlecht	tot	faul	eitel	rächen	1	acq_USunple_CSunple1_RW	acq4567_RW	6	10	400	1	300	300	400	46	0	1	1	blank2r.bmp	0	1	+	0	1	blank2r.bmp	492	1	GWWG	492	1	blank2r.bmp	572	1	strafen	866	1	!	1239	1	!	1306	0	0	0	0	0	0	0	0	0	0	0	0	0	0	0	0	0	0	0	0	0	0	0	0	0	0	0	0	0	0
071519	17:01:09	17:10:35	564077	5.0.10.0	5_exp_RW	999	Rpleas_acq	CS_B	BZZB	YDDY	GWWG	JXXJ	VKKV	MQQM	spielen	schön	treu	fair	ehrlich	retten	strafen	schlecht	tot	faul	eitel	rächen	1	acq_USunple_CSunple2_RW	acq4567_RW	6	11	400	0	300	300	557	46	0	1	1	blank2r.bmp	0	1	+	0	1	blank2r.bmp	492	1	JXXJ	492	1	blank2r.bmp	572	3	rächen	866	1	!	1239	1	!	-1	0	0	0	0	0	0	0	0	0	0	0	0	0	0	0	0	0	0	0	0	0	0	0	0	0	0	0	0	0	0
071519	17:01:09	17:10:37	566343	5.0.10.0	5_exp_RW	999	Rpleas_acq	CS_B	BZZB	YDDY	GWWG	JXXJ	VKKV	MQQM	spielen	schön	treu	fair	ehrlich	retten	strafen	schlecht	tot	faul	eitel	rächen	1	acq_USpleas_CSpleas2_RW	acq4567_RW	6	12	400	0	300	300	479	46	0	0	1	blank2r.bmp	0	1	+	0	1	blank2r.bmp	492	1	YDDY	492	1	blank2r.bmp	572	1	fair	866	1	!	1239	1	!	-1	0	0	0	0	0	0	0	0	0	0	0	0	0	0	0	0	0	0	0	0	0	0	0	0	0	0	0	0	0	0
071519	17:01:09	17:10:39	568595	5.0.10.0	5_exp_RW	999	Rpleas_acq	CS_B	BZZB	YDDY	GWWG	JXXJ	VKKV	MQQM	spielen	schön	treu	fair	ehrlich	retten	strafen	schlecht	tot	faul	eitel	rächen	1	acq_USunple_CSunple2_RW	acq4567_RW	6	13	400	1	300	300	457	46	0	1	1	blank2r.bmp	0	1	+	0	1	blank2r.bmp	492	1	JXXJ	492	1	blank2r.bmp	572	1	faul	866	1	!	1239	1	!	1359	0	0	0	0	0	0	0	0	0	0	0	0	0	0	0	0	0	0	0	0	0	0	0	0	0	0	0	0	0	0
071519	17:01:09	17:10:42	570754	5.0.10.0	5_exp_RW	999	Rpleas_acq	CS_B	BZZB	YDDY	GWWG	JXXJ	VKKV	MQQM	spielen	schön	treu	fair	ehrlich	retten	strafen	schlecht	tot	faul	eitel	rächen	1	acq_USunple_CSunple1_RW	acq4567_RW	6	14	400	1	300	300	358	46	0	1	1	blank2r.bmp	0	1	+	0	1	blank2r.bmp	492	1	GWWG	492	1	blank2r.bmp	574	2	schlecht	866	1	!	1239	1	!	1266	0	0	0	0	0	0	0	0	0	0	0	0	0	0	0	0	0	0	0	0	0	0	0	0	0	0	0	0	0	0
071519	17:01:09	17:10:44	572913	5.0.10.0	5_exp_RW	999	Rpleas_acq	CS_B	BZZB	YDDY	GWWG	JXXJ	VKKV	MQQM	spielen	schön	treu	fair	ehrlich	retten	strafen	schlecht	tot	faul	eitel	rächen	1	acq_USpleas_CSpleas1_RW	acq4567_RW	6	15	400	1	300	300	360	50	0	1	1	blank2r.bmp	0	1	+	0	1	blank2r.bmp	492	1	BZZB	492	1	blank2r.bmp	572	2	schön	866	1	!	1239	1	!	1266	0	0	0	0	0	0	0	0	0	0	0	0	0	0	0	0	0	0	0	0	0	0	0	0	0	0	0	0	0	0
071519	17:01:09	17:10:46	575059	5.0.10.0	5_exp_RW	999	Rpleas_acq	CS_B	BZZB	YDDY	GWWG	JXXJ	VKKV	MQQM	spielen	schön	treu	fair	ehrlich	retten	strafen	schlecht	tot	faul	eitel	rächen	1	acq_USunple_CSunple2_RW	acq4567_RW	6	16	400	1	300	300	355	46	0	1	1	blank2r.bmp	0	1	+	0	1	blank2r.bmp	492	1	JXXJ	492	1	blank2r.bmp	572	2	eitel	866	1	!	1239	1	!	1252	0	0	0	0	0	0	0	0	0	0	0	0	0	0	0	0	0	0	0	0	0	0	0	0	0	0	0	0	0	0
071519	17:01:09	17:10:48	577258	5.0.10.0	5_exp_RW	999	Rpleas_acq	CS_B	BZZB	YDDY	GWWG	JXXJ	VKKV	MQQM	spielen	schön	treu	fair	ehrlich	retten	strafen	schlecht	tot	faul	eitel	rächen	1	acq_USunple_CSunple2_RW	acq4567_RW	6	17	400	1	300	300	404	46	0	1	1	blank2r.bmp	0	1	+	0	1	blank2r.bmp	492	1	JXXJ	492	1	blank2r.bmp	572	1	faul	866	1	!	1239	1	!	1306	0	0	0	0	0	0	0	0	0	0	0	0	0	0	0	0	0	0	0	0	0	0	0	0	0	0	0	0	0	0
071519	17:01:09	17:10:50	579457	5.0.10.0	5_exp_RW	999	Rpleas_acq	CS_B	BZZB	YDDY	GWWG	JXXJ	VKKV	MQQM	spielen	schön	treu	fair	ehrlich	retten	strafen	schlecht	tot	faul	eitel	rächen	1	acq_USpleas_CSpleas2_RW	acq4567_RW	6	18	400	1	300	300	403	50	0	1	1	blank2r.bmp	0	1	+	0	1	blank2r.bmp	492	1	YDDY	492	1	blank2r.bmp	572	1	fair	866	1	!	1239	1	!	1306	0	0	0	0	0	0	0	0	0	0	0	0	0	0	0	0	0	0	0	0	0	0	0	0	0	0	0	0	0	0
071519	17:01:09	17:10:53	581683	5.0.10.0	5_exp_RW	999	Rpleas_acq	CS_B	BZZB	YDDY	GWWG	JXXJ	VKKV	MQQM	spielen	schön	treu	fair	ehrlich	retten	strafen	schlecht	tot	faul	eitel	rächen	1	acq_USpleas_CSpleas1_RW	acq4567_RW	6	19	400	1	300	300	426	50	0	1	1	blank2r.bmp	0	1	+	0	1	blank2r.bmp	492	1	BZZB	492	1	blank2r.bmp	572	1	spielen	866	1	!	1239	1	!	1332	0	0	0	0	0	0	0	0	0	0	0	0	0	0	0	0	0	0	0	0	0	0	0	0	0	0	0	0	0	0
