date	time	script.currenttime	script.elapsedtime	build	script.currentexpt	subject	expressions.LRpleas_acq	expressions.conditionCS_A	expressions.CSpleas_1	expressions.CSpleas_2	expressions.CSunple_1	expressions.CSunple_2	expressions.distractor_1	expressions.distractor_2	expressions.US_pleas1	expressions.US_pleas2	expressions.US_pleas3	expressions.US_pleas4	expressions.US_pleas5	expressions.US_pleas6	expressions.US_unple1	expressions.US_unple2	expressions.US_unple3	expressions.US_unple4	expressions.US_unple5	expressions.US_unple6	counter.positions_noRW	trialcode	blockcode	blocknum	trialnum	windowcenter	inwindow	pretrialpause	posttrialpause	latency	response	expressions.correctedscore	correct	stimulusnumber1	stimulusitem1	stimulusonset1	stimulusnumber2	stimulusitem2	stimulusonset2	stimulusnumber3	stimulusitem3	stimulusonset3	stimulusnumber4	stimulusitem4	stimulusonset4	stimulusnumber5	stimulusitem5	stimulusonset5	stimulusnumber6	stimulusitem6	stimulusonset6	stimulusnumber7	stimulusitem7	stimulusonset7	stimulusnumber8	stimulusitem8	stimulusonset8	stimulusnumber9	stimulusitem9	stimulusonset9	stimulusnumber10	stimulusitem10	stimulusonset10	stimulusnumber11	stimulusitem11	stimulusonset11	stimulusnumber12	stimulusitem12	stimulusonset12	stimulusnumber13	stimulusitem13	stimulusonset13	stimulusnumber14	stimulusitem14	stimulusonset14	stimulusnumber15	stimulusitem15	stimulusonset15	stimulusnumber16	stimulusitem16	stimulusonset16	stimulusnumber17	stimulusitem17	stimulusonset17	stimulusnumber18	stimulusitem18	stimulusonset18
072219	14:36:05	14:37:32	86617	5.0.10.0	5_exp_noRW	74	Rpleas_acq	CS_B	MQQM	YDDY	VKKV	GWWG	JXXJ	BZZB	ehrlich	retten	treu	spielen	schön	fair	eitel	rächen	tot	strafen	schlecht	faul	53pct	acq_USpleas_CSpleas2_noRW	acq1_noRW	1	1	0	0	300	300	908	46	0	0	1	blank2r.bmp	0	1	+	0	1	blank2r.bmp	252	1	YDDY	306	2	schön	559	1	FEHLER	1506	0	0	0	0	0	0	0	0	0	0	0	0	0	0	0	0	0	0	0	0	0	0	0	0	0	0	0	0	0	0	0	0	0	0	0	0
072219	14:36:05	14:37:34	88097	5.0.10.0	5_exp_noRW	74	Rpleas_acq	CS_B	MQQM	YDDY	VKKV	GWWG	JXXJ	BZZB	ehrlich	retten	treu	spielen	schön	fair	eitel	rächen	tot	strafen	schlecht	faul	53pct	acq_USpleas_CSpleas1_noRW	acq1_noRW	1	2	0	0	300	300	517	50	0	1	1	blank2r.bmp	0	1	+	0	1	blank2r.bmp	252	1	MQQM	306	2	retten	559	0	0	0	0	0	0	0	0	0	0	0	0	0	0	0	0	0	0	0	0	0	0	0	0	0	0	0	0	0	0	0	0	0	0	0	0	0	0	0
072219	14:36:05	14:37:36	90069	5.0.10.0	5_exp_noRW	74	Rpleas_acq	CS_B	MQQM	YDDY	VKKV	GWWG	JXXJ	BZZB	ehrlich	retten	treu	spielen	schön	fair	eitel	rächen	tot	strafen	schlecht	faul	53pct	acq_USunple_CSunple2_noRW	acq1_noRW	1	3	0	0	300	300	573	50	0	0	1	blank2r.bmp	0	1	+	0	1	blank2r.bmp	252	1	GWWG	306	1	strafen	559	1	FEHLER	1172	0	0	0	0	0	0	0	0	0	0	0	0	0	0	0	0	0	0	0	0	0	0	0	0	0	0	0	0	0	0	0	0	0	0	0	0
072219	14:36:05	14:37:38	92282	5.0.10.0	5_exp_noRW	74	Rpleas_acq	CS_B	MQQM	YDDY	VKKV	GWWG	JXXJ	BZZB	ehrlich	retten	treu	spielen	schön	fair	eitel	rächen	tot	strafen	schlecht	faul	47pct	acq_USunple_CSunple1_noRW	acq1_noRW	1	4	0	0	300	300	1262	46	0	1	1	blank2r.bmp	0	1	+	0	1	blank2r.bmp	252	1	VKKV	306	2	rächen	559	0	0	0	0	0	0	0	0	0	0	0	0	0	0	0	0	0	0	0	0	0	0	0	0	0	0	0	0	0	0	0	0	0	0	0	0	0	0	0
072219	14:36:05	14:37:40	94121	5.0.10.0	5_exp_noRW	74	Rpleas_acq	CS_B	MQQM	YDDY	VKKV	GWWG	JXXJ	BZZB	ehrlich	retten	treu	spielen	schön	fair	eitel	rächen	tot	strafen	schlecht	faul	53pct	acq_USunple_CSpleas1_noRW	acq1_noRW	1	5	0	0	300	300	661	46	0	1	1	blank2r.bmp	0	1	+	0	1	blank2r.bmp	252	1	MQQM	306	2	rächen	559	0	0	0	0	0	0	0	0	0	0	0	0	0	0	0	0	0	0	0	0	0	0	0	0	0	0	0	0	0	0	0	0	0	0	0	0	0	0	0
072219	14:36:05	14:37:41	95840	5.0.10.0	5_exp_noRW	74	Rpleas_acq	CS_B	MQQM	YDDY	VKKV	GWWG	JXXJ	BZZB	ehrlich	retten	treu	spielen	schön	fair	eitel	rächen	tot	strafen	schlecht	faul	53pct	acq_USpleas_CSpleas1_noRW	acq1_noRW	1	6	0	0	300	300	536	50	0	1	1	blank2r.bmp	0	1	+	0	1	blank2r.bmp	252	1	MQQM	306	1	ehrlich	559	0	0	0	0	0	0	0	0	0	0	0	0	0	0	0	0	0	0	0	0	0	0	0	0	0	0	0	0	0	0	0	0	0	0	0	0	0	0	0
072219	14:36:05	14:37:43	97559	5.0.10.0	5_exp_noRW	74	Rpleas_acq	CS_B	MQQM	YDDY	VKKV	GWWG	JXXJ	BZZB	ehrlich	retten	treu	spielen	schön	fair	eitel	rächen	tot	strafen	schlecht	faul	53pct	acq_USpleas_CSpleas1_noRW	acq1_noRW	1	7	0	0	300	300	539	50	0	1	1	blank2r.bmp	0	1	+	0	1	blank2r.bmp	252	1	MQQM	306	3	treu	559	0	0	0	0	0	0	0	0	0	0	0	0	0	0	0	0	0	0	0	0	0	0	0	0	0	0	0	0	0	0	0	0	0	0	0	0	0	0	0
072219	14:36:05	14:37:45	99399	5.0.10.0	5_exp_noRW	74	Rpleas_acq	CS_B	MQQM	YDDY	VKKV	GWWG	JXXJ	BZZB	ehrlich	retten	treu	spielen	schön	fair	eitel	rächen	tot	strafen	schlecht	faul	47pct	acq_USunple_CSunple1_noRW	acq1_noRW	1	8	0	0	300	300	656	46	0	1	1	blank2r.bmp	0	1	+	0	1	blank2r.bmp	252	1	VKKV	306	3	tot	559	0	0	0	0	0	0	0	0	0	0	0	0	0	0	0	0	0	0	0	0	0	0	0	0	0	0	0	0	0	0	0	0	0	0	0	0	0	0	0
072219	14:36:05	14:37:47	101105	5.0.10.0	5_exp_noRW	74	Rpleas_acq	CS_B	MQQM	YDDY	VKKV	GWWG	JXXJ	BZZB	ehrlich	retten	treu	spielen	schön	fair	eitel	rächen	tot	strafen	schlecht	faul	47pct	acq_USpleas_CSunple1_noRW	acq1_noRW	1	9	0	0	300	300	530	50	0	1	1	blank2r.bmp	0	1	+	0	1	blank2r.bmp	252	1	VKKV	306	3	treu	559	0	0	0	0	0	0	0	0	0	0	0	0	0	0	0	0	0	0	0	0	0	0	0	0	0	0	0	0	0	0	0	0	0	0	0	0	0	0	0
072219	14:36:05	14:37:48	102837	5.0.10.0	5_exp_noRW	74	Rpleas_acq	CS_B	MQQM	YDDY	VKKV	GWWG	JXXJ	BZZB	ehrlich	retten	treu	spielen	schön	fair	eitel	rächen	tot	strafen	schlecht	faul	53pct	acq_USpleas_CSunple2_noRW	acq1_noRW	1	10	0	0	300	300	553	50	0	1	1	blank2r.bmp	0	1	+	0	1	blank2r.bmp	252	1	GWWG	306	1	spielen	559	0	0	0	0	0	0	0	0	0	0	0	0	0	0	0	0	0	0	0	0	0	0	0	0	0	0	0	0	0	0	0	0	0	0	0	0	0	0	0
072219	14:36:05	14:37:50	104517	5.0.10.0	5_exp_noRW	74	Rpleas_acq	CS_B	MQQM	YDDY	VKKV	GWWG	JXXJ	BZZB	ehrlich	retten	treu	spielen	schön	fair	eitel	rächen	tot	strafen	schlecht	faul	47pct	acq_USpleas_CSpleas1_noRW	acq1_noRW	1	11	0	0	300	300	514	50	0	1	1	blank2r.bmp	0	1	+	0	1	blank2r.bmp	252	1	MQQM	306	3	treu	559	0	0	0	0	0	0	0	0	0	0	0	0	0	0	0	0	0	0	0	0	0	0	0	0	0	0	0	0	0	0	0	0	0	0	0	0	0	0	0
072219	14:36:05	14:37:52	106143	5.0.10.0	5_exp_noRW	74	Rpleas_acq	CS_B	MQQM	YDDY	VKKV	GWWG	JXXJ	BZZB	ehrlich	retten	treu	spielen	schön	fair	eitel	rächen	tot	strafen	schlecht	faul	53pct	acq_USpleas_CSpleas2_noRW	acq1_noRW	1	12	0	0	300	300	447	50	0	1	1	blank2r.bmp	0	1	+	0	1	blank2r.bmp	252	1	YDDY	306	1	spielen	559	0	0	0	0	0	0	0	0	0	0	0	0	0	0	0	0	0	0	0	0	0	0	0	0	0	0	0	0	0	0	0	0	0	0	0	0	0	0	0
072219	14:36:05	14:37:53	107795	5.0.10.0	5_exp_noRW	74	Rpleas_acq	CS_B	MQQM	YDDY	VKKV	GWWG	JXXJ	BZZB	ehrlich	retten	treu	spielen	schön	fair	eitel	rächen	tot	strafen	schlecht	faul	53pct	acq_USpleas_CSpleas2_noRW	acq1_noRW	1	13	0	0	300	300	479	50	0	1	1	blank2r.bmp	0	1	+	0	1	blank2r.bmp	252	1	YDDY	306	3	fair	559	0	0	0	0	0	0	0	0	0	0	0	0	0	0	0	0	0	0	0	0	0	0	0	0	0	0	0	0	0	0	0	0	0	0	0	0	0	0	0
072219	14:36:05	14:37:55	109594	5.0.10.0	5_exp_noRW	74	Rpleas_acq	CS_B	MQQM	YDDY	VKKV	GWWG	JXXJ	BZZB	ehrlich	retten	treu	spielen	schön	fair	eitel	rächen	tot	strafen	schlecht	faul	53pct	acq_USunple_CSunple1_noRW	acq1_noRW	1	14	0	0	300	300	421	50	0	0	1	blank2r.bmp	0	1	+	0	1	blank2r.bmp	252	1	VKKV	306	1	eitel	559	1	FEHLER	1012	0	0	0	0	0	0	0	0	0	0	0	0	0	0	0	0	0	0	0	0	0	0	0	0	0	0	0	0	0	0	0	0	0	0	0	0
072219	14:36:05	14:37:57	111101	5.0.10.0	5_exp_noRW	74	Rpleas_acq	CS_B	MQQM	YDDY	VKKV	GWWG	JXXJ	BZZB	ehrlich	retten	treu	spielen	schön	fair	eitel	rächen	tot	strafen	schlecht	faul	53pct	acq_USunple_CSunple2_noRW	acq1_noRW	1	15	0	0	300	300	540	46	0	1	1	blank2r.bmp	0	1	+	0	1	blank2r.bmp	252	1	GWWG	306	3	faul	559	0	0	0	0	0	0	0	0	0	0	0	0	0	0	0	0	0	0	0	0	0	0	0	0	0	0	0	0	0	0	0	0	0	0	0	0	0	0	0
072219	14:36:05	14:37:59	112993	5.0.10.0	5_exp_noRW	74	Rpleas_acq	CS_B	MQQM	YDDY	VKKV	GWWG	JXXJ	BZZB	ehrlich	retten	treu	spielen	schön	fair	eitel	rächen	tot	strafen	schlecht	faul	53pct	acq_USunple_CSunple2_noRW	acq1_noRW	1	16	0	0	300	300	716	46	0	1	1	blank2r.bmp	0	1	+	0	1	blank2r.bmp	252	1	GWWG	306	2	schlecht	559	0	0	0	0	0	0	0	0	0	0	0	0	0	0	0	0	0	0	0	0	0	0	0	0	0	0	0	0	0	0	0	0	0	0	0	0	0	0	0
072219	14:36:05	14:38:00	114606	5.0.10.0	5_exp_noRW	74	Rpleas_acq	CS_B	MQQM	YDDY	VKKV	GWWG	JXXJ	BZZB	ehrlich	retten	treu	spielen	schön	fair	eitel	rächen	tot	strafen	schlecht	faul	47pct	acq_USpleas_CSpleas2_noRW	acq1_noRW	1	17	0	0	300	300	436	50	0	1	1	blank2r.bmp	0	1	+	0	1	blank2r.bmp	252	1	YDDY	306	2	schön	559	0	0	0	0	0	0	0	0	0	0	0	0	0	0	0	0	0	0	0	0	0	0	0	0	0	0	0	0	0	0	0	0	0	0	0	0	0	0	0
072219	14:36:05	14:38:02	116418	5.0.10.0	5_exp_noRW	74	Rpleas_acq	CS_B	MQQM	YDDY	VKKV	GWWG	JXXJ	BZZB	ehrlich	retten	treu	spielen	schön	fair	eitel	rächen	tot	strafen	schlecht	faul	47pct	acq_USunple_CSunple2_noRW	acq1_noRW	1	18	0	0	300	300	633	46	0	1	1	blank2r.bmp	0	1	+	0	1	blank2r.bmp	252	1	GWWG	306	3	faul	559	0	0	0	0	0	0	0	0	0	0	0	0	0	0	0	0	0	0	0	0	0	0	0	0	0	0	0	0	0	0	0	0	0	0	0	0	0	0	0
072219	14:36:05	14:38:04	118098	5.0.10.0	5_exp_noRW	74	Rpleas_acq	CS_B	MQQM	YDDY	VKKV	GWWG	JXXJ	BZZB	ehrlich	retten	treu	spielen	schön	fair	eitel	rächen	tot	strafen	schlecht	faul	47pct	acq_USunple_CSpleas2_noRW	acq1_noRW	1	19	0	0	300	300	494	46	0	1	1	blank2r.bmp	0	1	+	0	1	blank2r.bmp	252	1	YDDY	306	2	schlecht	559	0	0	0	0	0	0	0	0	0	0	0	0	0	0	0	0	0	0	0	0	0	0	0	0	0	0	0	0	0	0	0	0	0	0	0	0	0	0	0
072219	14:36:05	14:38:06	120110	5.0.10.0	5_exp_noRW	74	Rpleas_acq	CS_B	MQQM	YDDY	VKKV	GWWG	JXXJ	BZZB	ehrlich	retten	treu	spielen	schön	fair	eitel	rächen	tot	strafen	schlecht	faul	53pct	acq_USunple_CSunple1_noRW	acq1_noRW	1	20	0	0	300	300	844	46	0	1	1	blank2r.bmp	0	1	+	0	1	blank2r.bmp	252	1	VKKV	306	3	tot	559	0	0	0	0	0	0	0	0	0	0	0	0	0	0	0	0	0	0	0	0	0	0	0	0	0	0	0	0	0	0	0	0	0	0	0	0	0	0	0
072219	14:36:05	14:38:08	121896	5.0.10.0	5_exp_noRW	74	Rpleas_acq	CS_B	MQQM	YDDY	VKKV	GWWG	JXXJ	BZZB	ehrlich	retten	treu	spielen	schön	fair	eitel	rächen	tot	strafen	schlecht	faul	47pct	acq_USpleas_CSunple1_noRW	acq1_noRW	1	21	0	0	300	300	600	50	0	1	1	blank2r.bmp	0	1	+	0	1	blank2r.bmp	252	1	VKKV	306	1	ehrlich	559	0	0	0	0	0	0	0	0	0	0	0	0	0	0	0	0	0	0	0	0	0	0	0	0	0	0	0	0	0	0	0	0	0	0	0	0	0	0	0
072219	14:36:05	14:38:09	123749	5.0.10.0	5_exp_noRW	74	Rpleas_acq	CS_B	MQQM	YDDY	VKKV	GWWG	JXXJ	BZZB	ehrlich	retten	treu	spielen	schön	fair	eitel	rächen	tot	strafen	schlecht	faul	53pct	acq_USunple_CSunple1_noRW	acq1_noRW	1	22	0	0	300	300	670	46	0	1	1	blank2r.bmp	0	1	+	0	1	blank2r.bmp	252	1	VKKV	306	1	eitel	559	0	0	0	0	0	0	0	0	0	0	0	0	0	0	0	0	0	0	0	0	0	0	0	0	0	0	0	0	0	0	0	0	0	0	0	0	0	0	0
072219	14:36:05	14:38:11	125415	5.0.10.0	5_exp_noRW	74	Rpleas_acq	CS_B	MQQM	YDDY	VKKV	GWWG	JXXJ	BZZB	ehrlich	retten	treu	spielen	schön	fair	eitel	rächen	tot	strafen	schlecht	faul	53pct	acq_USpleas_CSpleas1_noRW	acq1_noRW	1	23	0	0	300	300	480	50	0	1	1	blank2r.bmp	0	1	+	0	1	blank2r.bmp	252	1	MQQM	306	1	ehrlich	559	0	0	0	0	0	0	0	0	0	0	0	0	0	0	0	0	0	0	0	0	0	0	0	0	0	0	0	0	0	0	0	0	0	0	0	0	0	0	0
072219	14:36:05	14:38:13	127041	5.0.10.0	5_exp_noRW	74	Rpleas_acq	CS_B	MQQM	YDDY	VKKV	GWWG	JXXJ	BZZB	ehrlich	retten	treu	spielen	schön	fair	eitel	rächen	tot	strafen	schlecht	faul	53pct	acq_USpleas_CSpleas1_noRW	acq1_noRW	1	24	0	0	300	300	459	50	0	1	1	blank2r.bmp	0	1	+	0	1	blank2r.bmp	252	1	MQQM	306	2	retten	559	0	0	0	0	0	0	0	0	0	0	0	0	0	0	0	0	0	0	0	0	0	0	0	0	0	0	0	0	0	0	0	0	0	0	0	0	0	0	0
072219	14:36:05	14:38:14	128747	5.0.10.0	5_exp_noRW	74	Rpleas_acq	CS_B	MQQM	YDDY	VKKV	GWWG	JXXJ	BZZB	ehrlich	retten	treu	spielen	schön	fair	eitel	rächen	tot	strafen	schlecht	faul	47pct	acq_USunple_CSunple1_noRW	acq1_noRW	1	25	0	0	300	300	520	46	0	1	1	blank2r.bmp	0	1	+	0	1	blank2r.bmp	252	1	VKKV	306	2	rächen	559	0	0	0	0	0	0	0	0	0	0	0	0	0	0	0	0	0	0	0	0	0	0	0	0	0	0	0	0	0	0	0	0	0	0	0	0	0	0	0
072219	14:36:05	14:38:16	130653	5.0.10.0	5_exp_noRW	74	Rpleas_acq	CS_B	MQQM	YDDY	VKKV	GWWG	JXXJ	BZZB	ehrlich	retten	treu	spielen	schön	fair	eitel	rächen	tot	strafen	schlecht	faul	53pct	acq_USpleas_CSpleas2_noRW	acq1_noRW	1	26	0	0	300	300	740	50	0	1	1	blank2r.bmp	0	1	+	0	1	blank2r.bmp	252	1	YDDY	306	3	fair	559	0	0	0	0	0	0	0	0	0	0	0	0	0	0	0	0	0	0	0	0	0	0	0	0	0	0	0	0	0	0	0	0	0	0	0	0	0	0	0
072219	14:36:05	14:38:18	132412	5.0.10.0	5_exp_noRW	74	Rpleas_acq	CS_B	MQQM	YDDY	VKKV	GWWG	JXXJ	BZZB	ehrlich	retten	treu	spielen	schön	fair	eitel	rächen	tot	strafen	schlecht	faul	53pct	acq_USunple_CSunple2_noRW	acq1_noRW	1	27	0	0	300	300	598	46	0	1	1	blank2r.bmp	0	1	+	0	1	blank2r.bmp	252	1	GWWG	306	2	schlecht	559	0	0	0	0	0	0	0	0	0	0	0	0	0	0	0	0	0	0	0	0	0	0	0	0	0	0	0	0	0	0	0	0	0	0	0	0	0	0	0
072219	14:36:05	14:38:20	134051	5.0.10.0	5_exp_noRW	74	Rpleas_acq	CS_B	MQQM	YDDY	VKKV	GWWG	JXXJ	BZZB	ehrlich	retten	treu	spielen	schön	fair	eitel	rächen	tot	strafen	schlecht	faul	53pct	acq_USpleas_CSunple2_noRW	acq1_noRW	1	28	0	0	300	300	451	50	0	1	1	blank2r.bmp	0	1	+	0	1	blank2r.bmp	252	1	GWWG	306	3	fair	559	0	0	0	0	0	0	0	0	0	0	0	0	0	0	0	0	0	0	0	0	0	0	0	0	0	0	0	0	0	0	0	0	0	0	0	0	0	0	0
072219	14:36:05	14:38:22	135970	5.0.10.0	5_exp_noRW	74	Rpleas_acq	CS_B	MQQM	YDDY	VKKV	GWWG	JXXJ	BZZB	ehrlich	retten	treu	spielen	schön	fair	eitel	rächen	tot	strafen	schlecht	faul	53pct	acq_USpleas_CSpleas1_noRW	acq1_noRW	1	29	0	0	300	300	734	50	0	1	1	blank2r.bmp	0	1	+	0	1	blank2r.bmp	252	1	MQQM	306	3	treu	559	0	0	0	0	0	0	0	0	0	0	0	0	0	0	0	0	0	0	0	0	0	0	0	0	0	0	0	0	0	0	0	0	0	0	0	0	0	0	0
072219	14:36:05	14:38:23	137636	5.0.10.0	5_exp_noRW	74	Rpleas_acq	CS_B	MQQM	YDDY	VKKV	GWWG	JXXJ	BZZB	ehrlich	retten	treu	spielen	schön	fair	eitel	rächen	tot	strafen	schlecht	faul	47pct	acq_USpleas_CSpleas2_noRW	acq1_noRW	1	30	0	0	300	300	498	50	0	1	1	blank2r.bmp	0	1	+	0	1	blank2r.bmp	252	1	YDDY	306	1	spielen	559	0	0	0	0	0	0	0	0	0	0	0	0	0	0	0	0	0	0	0	0	0	0	0	0	0	0	0	0	0	0	0	0	0	0	0	0	0	0	0
072219	14:36:05	14:38:25	139409	5.0.10.0	5_exp_noRW	74	Rpleas_acq	CS_B	MQQM	YDDY	VKKV	GWWG	JXXJ	BZZB	ehrlich	retten	treu	spielen	schön	fair	eitel	rächen	tot	strafen	schlecht	faul	53pct	acq_USunple_CSpleas1_noRW	acq1_noRW	1	31	0	0	300	300	376	50	0	0	1	blank2r.bmp	0	1	+	0	1	blank2r.bmp	252	1	MQQM	306	1	eitel	559	1	FEHLER	972	0	0	0	0	0	0	0	0	0	0	0	0	0	0	0	0	0	0	0	0	0	0	0	0	0	0	0	0	0	0	0	0	0	0	0	0
072219	14:36:05	14:38:27	141208	5.0.10.0	5_exp_noRW	74	Rpleas_acq	CS_B	MQQM	YDDY	VKKV	GWWG	JXXJ	BZZB	ehrlich	retten	treu	spielen	schön	fair	eitel	rächen	tot	strafen	schlecht	faul	53pct	acq_USunple_CSunple2_noRW	acq1_noRW	1	32	0	0	300	300	835	46	0	1	1	blank2r.bmp	0	1	+	0	1	blank2r.bmp	252	1	GWWG	306	1	strafen	559	0	0	0	0	0	0	0	0	0	0	0	0	0	0	0	0	0	0	0	0	0	0	0	0	0	0	0	0	0	0	0	0	0	0	0	0	0	0	0
072219	14:36:05	14:38:29	143127	5.0.10.0	5_exp_noRW	74	Rpleas_acq	CS_B	MQQM	YDDY	VKKV	GWWG	JXXJ	BZZB	ehrlich	retten	treu	spielen	schön	fair	eitel	rächen	tot	strafen	schlecht	faul	47pct	acq_USpleas_CSpleas2_noRW	acq1_noRW	1	33	0	0	300	300	733	50	0	1	1	blank2r.bmp	0	1	+	0	1	blank2r.bmp	252	1	YDDY	306	3	fair	559	0	0	0	0	0	0	0	0	0	0	0	0	0	0	0	0	0	0	0	0	0	0	0	0	0	0	0	0	0	0	0	0	0	0	0	0	0	0	0
072219	14:36:05	14:38:31	144873	5.0.10.0	5_exp_noRW	74	Rpleas_acq	CS_B	MQQM	YDDY	VKKV	GWWG	JXXJ	BZZB	ehrlich	retten	treu	spielen	schön	fair	eitel	rächen	tot	strafen	schlecht	faul	53pct	acq_USunple_CSunple2_noRW	acq1_noRW	1	34	0	0	300	300	567	46	0	1	1	blank2r.bmp	0	1	+	0	1	blank2r.bmp	252	1	GWWG	306	2	schlecht	559	0	0	0	0	0	0	0	0	0	0	0	0	0	0	0	0	0	0	0	0	0	0	0	0	0	0	0	0	0	0	0	0	0	0	0	0	0	0	0
072219	14:36:05	14:38:33	146953	5.0.10.0	5_exp_noRW	74	Rpleas_acq	CS_B	MQQM	YDDY	VKKV	GWWG	JXXJ	BZZB	ehrlich	retten	treu	spielen	schön	fair	eitel	rächen	tot	strafen	schlecht	faul	47pct	acq_USpleas_CSpleas1_noRW	acq1_noRW	1	35	0	0	300	300	904	50	0	1	1	blank2r.bmp	0	1	+	0	1	blank2r.bmp	252	1	MQQM	306	1	ehrlich	559	0	0	0	0	0	0	0	0	0	0	0	0	0	0	0	0	0	0	0	0	0	0	0	0	0	0	0	0	0	0	0	0	0	0	0	0	0	0	0
072219	14:36:05	14:38:34	148645	5.0.10.0	5_exp_noRW	74	Rpleas_acq	CS_B	MQQM	YDDY	VKKV	GWWG	JXXJ	BZZB	ehrlich	retten	treu	spielen	schön	fair	eitel	rächen	tot	strafen	schlecht	faul	47pct	acq_USunple_CSunple1_noRW	acq1_noRW	1	36	0	0	300	300	506	46	0	1	1	blank2r.bmp	0	1	+	0	1	blank2r.bmp	252	1	VKKV	306	3	tot	559	0	0	0	0	0	0	0	0	0	0	0	0	0	0	0	0	0	0	0	0	0	0	0	0	0	0	0	0	0	0	0	0	0	0	0	0	0	0	0
072219	14:36:05	14:38:36	150298	5.0.10.0	5_exp_noRW	74	Rpleas_acq	CS_B	MQQM	YDDY	VKKV	GWWG	JXXJ	BZZB	ehrlich	retten	treu	spielen	schön	fair	eitel	rächen	tot	strafen	schlecht	faul	53pct	acq_USunple_CSunple2_noRW	acq1_noRW	1	37	0	0	300	300	487	46	0	1	1	blank2r.bmp	0	1	+	0	1	blank2r.bmp	252	1	GWWG	306	1	strafen	559	0	0	0	0	0	0	0	0	0	0	0	0	0	0	0	0	0	0	0	0	0	0	0	0	0	0	0	0	0	0	0	0	0	0	0	0	0	0	0
072219	14:36:05	14:38:38	152030	5.0.10.0	5_exp_noRW	74	Rpleas_acq	CS_B	MQQM	YDDY	VKKV	GWWG	JXXJ	BZZB	ehrlich	retten	treu	spielen	schön	fair	eitel	rächen	tot	strafen	schlecht	faul	53pct	acq_USpleas_CSpleas2_noRW	acq1_noRW	1	38	0	0	300	300	555	50	0	1	1	blank2r.bmp	0	1	+	0	1	blank2r.bmp	252	1	YDDY	306	2	schön	559	0	0	0	0	0	0	0	0	0	0	0	0	0	0	0	0	0	0	0	0	0	0	0	0	0	0	0	0	0	0	0	0	0	0	0	0	0	0	0
072219	14:36:05	14:38:39	153723	5.0.10.0	5_exp_noRW	74	Rpleas_acq	CS_B	MQQM	YDDY	VKKV	GWWG	JXXJ	BZZB	ehrlich	retten	treu	spielen	schön	fair	eitel	rächen	tot	strafen	schlecht	faul	47pct	acq_USunple_CSunple1_noRW	acq1_noRW	1	39	0	0	300	300	506	46	0	1	1	blank2r.bmp	0	1	+	0	1	blank2r.bmp	252	1	VKKV	306	2	rächen	559	0	0	0	0	0	0	0	0	0	0	0	0	0	0	0	0	0	0	0	0	0	0	0	0	0	0	0	0	0	0	0	0	0	0	0	0	0	0	0
072219	14:36:05	14:38:42	156122	5.0.10.0	5_exp_noRW	74	Rpleas_acq	CS_B	MQQM	YDDY	VKKV	GWWG	JXXJ	BZZB	ehrlich	retten	treu	spielen	schön	fair	eitel	rächen	tot	strafen	schlecht	faul	47pct	acq_USunple_CSpleas2_noRW	acq1_noRW	1	40	0	0	300	300	1018	50	0	0	1	blank2r.bmp	0	1	+	0	1	blank2r.bmp	252	1	YDDY	306	1	strafen	559	1	FEHLER	1612	0	0	0	0	0	0	0	0	0	0	0	0	0	0	0	0	0	0	0	0	0	0	0	0	0	0	0	0	0	0	0	0	0	0	0	0
072219	14:36:05	14:38:43	157775	5.0.10.0	5_exp_noRW	74	Rpleas_acq	CS_B	MQQM	YDDY	VKKV	GWWG	JXXJ	BZZB	ehrlich	retten	treu	spielen	schön	fair	eitel	rächen	tot	strafen	schlecht	faul	53pct	acq_USunple_CSunple2_noRW	acq1_noRW	1	41	0	0	300	300	693	46	0	1	1	blank2r.bmp	0	1	+	0	1	blank2r.bmp	252	1	GWWG	306	3	faul	559	0	0	0	0	0	0	0	0	0	0	0	0	0	0	0	0	0	0	0	0	0	0	0	0	0	0	0	0	0	0	0	0	0	0	0	0	0	0	0
072219	14:36:05	14:38:46	160427	5.0.10.0	5_exp_noRW	74	Rpleas_acq	CS_B	MQQM	YDDY	VKKV	GWWG	JXXJ	BZZB	ehrlich	retten	treu	spielen	schön	fair	eitel	rächen	tot	strafen	schlecht	faul	47pct	acq_USpleas_CSunple2_noRW	acq1_noRW	1	42	0	0	300	300	1472	50	0	1	1	blank2r.bmp	0	1	+	0	1	blank2r.bmp	252	1	GWWG	306	2	schön	559	0	0	0	0	0	0	0	0	0	0	0	0	0	0	0	0	0	0	0	0	0	0	0	0	0	0	0	0	0	0	0	0	0	0	0	0	0	0	0
072219	14:36:05	14:38:48	162160	5.0.10.0	5_exp_noRW	74	Rpleas_acq	CS_B	MQQM	YDDY	VKKV	GWWG	JXXJ	BZZB	ehrlich	retten	treu	spielen	schön	fair	eitel	rächen	tot	strafen	schlecht	faul	53pct	acq_USpleas_CSpleas2_noRW	acq1_noRW	1	43	0	0	300	300	557	50	0	1	1	blank2r.bmp	0	1	+	0	1	blank2r.bmp	252	1	YDDY	306	1	spielen	559	0	0	0	0	0	0	0	0	0	0	0	0	0	0	0	0	0	0	0	0	0	0	0	0	0	0	0	0	0	0	0	0	0	0	0	0	0	0	0
072219	14:36:05	14:38:49	163812	5.0.10.0	5_exp_noRW	74	Rpleas_acq	CS_B	MQQM	YDDY	VKKV	GWWG	JXXJ	BZZB	ehrlich	retten	treu	spielen	schön	fair	eitel	rächen	tot	strafen	schlecht	faul	47pct	acq_USpleas_CSunple1_noRW	acq1_noRW	1	44	0	0	300	300	476	50	0	1	1	blank2r.bmp	0	1	+	0	1	blank2r.bmp	252	1	VKKV	306	2	retten	559	0	0	0	0	0	0	0	0	0	0	0	0	0	0	0	0	0	0	0	0	0	0	0	0	0	0	0	0	0	0	0	0	0	0	0	0	0	0	0
072219	14:36:05	14:38:51	165398	5.0.10.0	5_exp_noRW	74	Rpleas_acq	CS_B	MQQM	YDDY	VKKV	GWWG	JXXJ	BZZB	ehrlich	retten	treu	spielen	schön	fair	eitel	rächen	tot	strafen	schlecht	faul	53pct	acq_USpleas_CSpleas2_noRW	acq1_noRW	1	45	0	0	300	300	409	50	0	1	1	blank2r.bmp	0	1	+	0	1	blank2r.bmp	252	1	YDDY	306	1	spielen	559	0	0	0	0	0	0	0	0	0	0	0	0	0	0	0	0	0	0	0	0	0	0	0	0	0	0	0	0	0	0	0	0	0	0	0	0	0	0	0
072219	14:36:05	14:38:53	167091	5.0.10.0	5_exp_noRW	74	Rpleas_acq	CS_B	MQQM	YDDY	VKKV	GWWG	JXXJ	BZZB	ehrlich	retten	treu	spielen	schön	fair	eitel	rächen	tot	strafen	schlecht	faul	53pct	acq_USunple_CSunple1_noRW	acq1_noRW	1	46	0	0	300	300	513	46	0	1	1	blank2r.bmp	0	1	+	0	1	blank2r.bmp	252	1	VKKV	306	1	eitel	559	0	0	0	0	0	0	0	0	0	0	0	0	0	0	0	0	0	0	0	0	0	0	0	0	0	0	0	0	0	0	0	0	0	0	0	0	0	0	0
072219	14:36:05	14:38:54	168757	5.0.10.0	5_exp_noRW	74	Rpleas_acq	CS_B	MQQM	YDDY	VKKV	GWWG	JXXJ	BZZB	ehrlich	retten	treu	spielen	schön	fair	eitel	rächen	tot	strafen	schlecht	faul	47pct	acq_USpleas_CSpleas1_noRW	acq1_noRW	1	47	0	0	300	300	502	50	0	1	1	blank2r.bmp	0	1	+	0	1	blank2r.bmp	252	1	MQQM	306	2	retten	559	0	0	0	0	0	0	0	0	0	0	0	0	0	0	0	0	0	0	0	0	0	0	0	0	0	0	0	0	0	0	0	0	0	0	0	0	0	0	0
072219	14:36:05	14:38:56	170436	5.0.10.0	5_exp_noRW	74	Rpleas_acq	CS_B	MQQM	YDDY	VKKV	GWWG	JXXJ	BZZB	ehrlich	retten	treu	spielen	schön	fair	eitel	rächen	tot	strafen	schlecht	faul	53pct	acq_USpleas_CSpleas1_noRW	acq1_noRW	1	48	0	0	300	300	503	50	0	1	1	blank2r.bmp	0	1	+	0	1	blank2r.bmp	252	1	MQQM	306	2	retten	559	0	0	0	0	0	0	0	0	0	0	0	0	0	0	0	0	0	0	0	0	0	0	0	0	0	0	0	0	0	0	0	0	0	0	0	0	0	0	0
072219	14:36:05	14:38:58	171996	5.0.10.0	5_exp_noRW	74	Rpleas_acq	CS_B	MQQM	YDDY	VKKV	GWWG	JXXJ	BZZB	ehrlich	retten	treu	spielen	schön	fair	eitel	rächen	tot	strafen	schlecht	faul	47pct	acq_USpleas_CSpleas1_noRW	acq1_noRW	1	49	0	0	300	300	380	50	0	1	1	blank2r.bmp	0	1	+	0	1	blank2r.bmp	252	1	MQQM	306	1	ehrlich	559	0	0	0	0	0	0	0	0	0	0	0	0	0	0	0	0	0	0	0	0	0	0	0	0	0	0	0	0	0	0	0	0	0	0	0	0	0	0	0
072219	14:36:05	14:38:59	173582	5.0.10.0	5_exp_noRW	74	Rpleas_acq	CS_B	MQQM	YDDY	VKKV	GWWG	JXXJ	BZZB	ehrlich	retten	treu	spielen	schön	fair	eitel	rächen	tot	strafen	schlecht	faul	47pct	acq_USunple_CSpleas2_noRW	acq1_noRW	1	50	0	0	300	300	411	46	0	1	1	blank2r.bmp	0	1	+	0	1	blank2r.bmp	252	1	YDDY	306	3	faul	559	0	0	0	0	0	0	0	0	0	0	0	0	0	0	0	0	0	0	0	0	0	0	0	0	0	0	0	0	0	0	0	0	0	0	0	0	0	0	0
072219	14:36:05	14:39:01	175288	5.0.10.0	5_exp_noRW	74	Rpleas_acq	CS_B	MQQM	YDDY	VKKV	GWWG	JXXJ	BZZB	ehrlich	retten	treu	spielen	schön	fair	eitel	rächen	tot	strafen	schlecht	faul	53pct	acq_USpleas_CSpleas2_noRW	acq1_noRW	1	51	0	0	300	300	531	50	0	1	1	blank2r.bmp	0	1	+	0	1	blank2r.bmp	252	1	YDDY	306	3	fair	559	0	0	0	0	0	0	0	0	0	0	0	0	0	0	0	0	0	0	0	0	0	0	0	0	0	0	0	0	0	0	0	0	0	0	0	0	0	0	0
072219	14:36:05	14:39:03	176900	5.0.10.0	5_exp_noRW	74	Rpleas_acq	CS_B	MQQM	YDDY	VKKV	GWWG	JXXJ	BZZB	ehrlich	retten	treu	spielen	schön	fair	eitel	rächen	tot	strafen	schlecht	faul	53pct	acq_USunple_CSunple2_noRW	acq1_noRW	1	52	0	0	300	300	429	46	0	1	1	blank2r.bmp	0	1	+	0	1	blank2r.bmp	252	1	GWWG	306	2	schlecht	559	0	0	0	0	0	0	0	0	0	0	0	0	0	0	0	0	0	0	0	0	0	0	0	0	0	0	0	0	0	0	0	0	0	0	0	0	0	0	0
072219	14:36:05	14:39:04	178433	5.0.10.0	5_exp_noRW	74	Rpleas_acq	CS_B	MQQM	YDDY	VKKV	GWWG	JXXJ	BZZB	ehrlich	retten	treu	spielen	schön	fair	eitel	rächen	tot	strafen	schlecht	faul	53pct	acq_USpleas_CSpleas1_noRW	acq1_noRW	1	53	0	0	300	300	348	50	0	1	1	blank2r.bmp	0	1	+	0	1	blank2r.bmp	252	1	MQQM	306	3	treu	559	0	0	0	0	0	0	0	0	0	0	0	0	0	0	0	0	0	0	0	0	0	0	0	0	0	0	0	0	0	0	0	0	0	0	0	0	0	0	0
072219	14:36:05	14:39:06	179952	5.0.10.0	5_exp_noRW	74	Rpleas_acq	CS_B	MQQM	YDDY	VKKV	GWWG	JXXJ	BZZB	ehrlich	retten	treu	spielen	schön	fair	eitel	rächen	tot	strafen	schlecht	faul	53pct	acq_USunple_CSunple2_noRW	acq1_noRW	1	54	0	0	300	300	357	46	0	1	1	blank2r.bmp	0	1	+	0	1	blank2r.bmp	252	1	GWWG	306	1	strafen	559	0	0	0	0	0	0	0	0	0	0	0	0	0	0	0	0	0	0	0	0	0	0	0	0	0	0	0	0	0	0	0	0	0	0	0	0	0	0	0
072219	14:36:05	14:39:07	181512	5.0.10.0	5_exp_noRW	74	Rpleas_acq	CS_B	MQQM	YDDY	VKKV	GWWG	JXXJ	BZZB	ehrlich	retten	treu	spielen	schön	fair	eitel	rächen	tot	strafen	schlecht	faul	53pct	acq_USunple_CSunple1_noRW	acq1_noRW	1	55	0	0	300	300	372	46	0	1	1	blank2r.bmp	0	1	+	0	1	blank2r.bmp	252	1	VKKV	306	3	tot	559	0	0	0	0	0	0	0	0	0	0	0	0	0	0	0	0	0	0	0	0	0	0	0	0	0	0	0	0	0	0	0	0	0	0	0	0	0	0	0
072219	14:36:05	14:39:09	183151	5.0.10.0	5_exp_noRW	74	Rpleas_acq	CS_B	MQQM	YDDY	VKKV	GWWG	JXXJ	BZZB	ehrlich	retten	treu	spielen	schön	fair	eitel	rächen	tot	strafen	schlecht	faul	47pct	acq_USunple_CSunple1_noRW	acq1_noRW	1	56	0	0	300	300	260	50	0	0	1	blank2r.bmp	0	1	+	0	1	blank2r.bmp	252	1	VKKV	306	1	eitel	559	1	FEHLER	852	0	0	0	0	0	0	0	0	0	0	0	0	0	0	0	0	0	0	0	0	0	0	0	0	0	0	0	0	0	0	0	0	0	0	0	0
072219	14:36:05	14:39:11	185177	5.0.10.0	5_exp_noRW	74	Rpleas_acq	CS_B	MQQM	YDDY	VKKV	GWWG	JXXJ	BZZB	ehrlich	retten	treu	spielen	schön	fair	eitel	rächen	tot	strafen	schlecht	faul	47pct	acq_USunple_CSunple2_noRW	acq1_noRW	1	57	0	0	300	300	1056	46	0	1	1	blank2r.bmp	0	1	+	0	1	blank2r.bmp	252	1	GWWG	306	3	faul	559	0	0	0	0	0	0	0	0	0	0	0	0	0	0	0	0	0	0	0	0	0	0	0	0	0	0	0	0	0	0	0	0	0	0	0	0	0	0	0
072219	14:36:05	14:39:12	186790	5.0.10.0	5_exp_noRW	74	Rpleas_acq	CS_B	MQQM	YDDY	VKKV	GWWG	JXXJ	BZZB	ehrlich	retten	treu	spielen	schön	fair	eitel	rächen	tot	strafen	schlecht	faul	47pct	acq_USunple_CSunple1_noRW	acq1_noRW	1	58	0	0	300	300	448	46	0	1	1	blank2r.bmp	0	1	+	0	1	blank2r.bmp	252	1	VKKV	306	2	rächen	559	0	0	0	0	0	0	0	0	0	0	0	0	0	0	0	0	0	0	0	0	0	0	0	0	0	0	0	0	0	0	0	0	0	0	0	0	0	0	0
072219	14:36:05	14:39:14	188376	5.0.10.0	5_exp_noRW	74	Rpleas_acq	CS_B	MQQM	YDDY	VKKV	GWWG	JXXJ	BZZB	ehrlich	retten	treu	spielen	schön	fair	eitel	rächen	tot	strafen	schlecht	faul	47pct	acq_USpleas_CSpleas2_noRW	acq1_noRW	1	59	0	0	300	300	405	50	0	1	1	blank2r.bmp	0	1	+	0	1	blank2r.bmp	252	1	YDDY	306	2	schön	559	0	0	0	0	0	0	0	0	0	0	0	0	0	0	0	0	0	0	0	0	0	0	0	0	0	0	0	0	0	0	0	0	0	0	0	0	0	0	0
072219	14:36:05	14:39:16	190028	5.0.10.0	5_exp_noRW	74	Rpleas_acq	CS_B	MQQM	YDDY	VKKV	GWWG	JXXJ	BZZB	ehrlich	retten	treu	spielen	schön	fair	eitel	rächen	tot	strafen	schlecht	faul	47pct	acq_USunple_CSpleas1_noRW	acq1_noRW	1	60	0	0	300	300	471	46	0	1	1	blank2r.bmp	0	1	+	0	1	blank2r.bmp	252	1	MQQM	306	3	tot	559	0	0	0	0	0	0	0	0	0	0	0	0	0	0	0	0	0	0	0	0	0	0	0	0	0	0	0	0	0	0	0	0	0	0	0	0	0	0	0
072219	14:36:05	14:39:17	191534	5.0.10.0	5_exp_noRW	74	Rpleas_acq	CS_B	MQQM	YDDY	VKKV	GWWG	JXXJ	BZZB	ehrlich	retten	treu	spielen	schön	fair	eitel	rächen	tot	strafen	schlecht	faul	53pct	acq_USpleas_CSunple1_noRW	acq1_noRW	1	61	0	0	300	300	333	50	0	1	1	blank2r.bmp	0	1	+	0	1	blank2r.bmp	252	1	VKKV	306	2	retten	559	0	0	0	0	0	0	0	0	0	0	0	0	0	0	0	0	0	0	0	0	0	0	0	0	0	0	0	0	0	0	0	0	0	0	0	0	0	0	0
072219	14:36:05	14:39:19	193347	5.0.10.0	5_exp_noRW	74	Rpleas_acq	CS_B	MQQM	YDDY	VKKV	GWWG	JXXJ	BZZB	ehrlich	retten	treu	spielen	schön	fair	eitel	rächen	tot	strafen	schlecht	faul	53pct	acq_USunple_CSunple2_noRW	acq1_noRW	1	62	0	0	300	300	646	46	0	1	1	blank2r.bmp	0	1	+	0	1	blank2r.bmp	252	1	GWWG	306	2	schlecht	559	0	0	0	0	0	0	0	0	0	0	0	0	0	0	0	0	0	0	0	0	0	0	0	0	0	0	0	0	0	0	0	0	0	0	0	0	0	0	0
072219	14:36:05	14:39:21	194920	5.0.10.0	5_exp_noRW	74	Rpleas_acq	CS_B	MQQM	YDDY	VKKV	GWWG	JXXJ	BZZB	ehrlich	retten	treu	spielen	schön	fair	eitel	rächen	tot	strafen	schlecht	faul	47pct	acq_USpleas_CSpleas1_noRW	acq1_noRW	1	63	0	0	300	300	406	50	0	1	1	blank2r.bmp	0	1	+	0	1	blank2r.bmp	252	1	MQQM	306	3	treu	559	0	0	0	0	0	0	0	0	0	0	0	0	0	0	0	0	0	0	0	0	0	0	0	0	0	0	0	0	0	0	0	0	0	0	0	0	0	0	0
072219	14:36:05	14:39:22	196652	5.0.10.0	5_exp_noRW	74	Rpleas_acq	CS_B	MQQM	YDDY	VKKV	GWWG	JXXJ	BZZB	ehrlich	retten	treu	spielen	schön	fair	eitel	rächen	tot	strafen	schlecht	faul	53pct	acq_USpleas_CSpleas1_noRW	acq1_noRW	1	64	0	0	300	300	566	50	0	1	1	blank2r.bmp	0	1	+	0	1	blank2r.bmp	252	1	MQQM	306	1	ehrlich	559	0	0	0	0	0	0	0	0	0	0	0	0	0	0	0	0	0	0	0	0	0	0	0	0	0	0	0	0	0	0	0	0	0	0	0	0	0	0	0
072219	14:36:05	14:39:25	198931	5.0.10.0	5_exp_noRW	74	Rpleas_acq	CS_B	MQQM	YDDY	VKKV	GWWG	JXXJ	BZZB	ehrlich	retten	treu	spielen	schön	fair	eitel	rächen	tot	strafen	schlecht	faul	47pct	acq_USunple_CSunple1_noRW	acq1_noRW	1	65	0	0	300	300	1117	46	0	1	1	blank2r.bmp	0	1	+	0	1	blank2r.bmp	252	1	VKKV	306	3	tot	559	0	0	0	0	0	0	0	0	0	0	0	0	0	0	0	0	0	0	0	0	0	0	0	0	0	0	0	0	0	0	0	0	0	0	0	0	0	0	0
072219	14:36:05	14:39:26	200584	5.0.10.0	5_exp_noRW	74	Rpleas_acq	CS_B	MQQM	YDDY	VKKV	GWWG	JXXJ	BZZB	ehrlich	retten	treu	spielen	schön	fair	eitel	rächen	tot	strafen	schlecht	faul	47pct	acq_USpleas_CSpleas2_noRW	acq1_noRW	1	66	0	0	300	300	465	50	0	1	1	blank2r.bmp	0	1	+	0	1	blank2r.bmp	252	1	YDDY	306	2	schön	559	0	0	0	0	0	0	0	0	0	0	0	0	0	0	0	0	0	0	0	0	0	0	0	0	0	0	0	0	0	0	0	0	0	0	0	0	0	0	0
072219	14:36:05	14:39:28	202356	5.0.10.0	5_exp_noRW	74	Rpleas_acq	CS_B	MQQM	YDDY	VKKV	GWWG	JXXJ	BZZB	ehrlich	retten	treu	spielen	schön	fair	eitel	rächen	tot	strafen	schlecht	faul	47pct	acq_USunple_CSunple1_noRW	acq1_noRW	1	67	0	0	300	300	603	46	0	1	1	blank2r.bmp	0	1	+	0	1	blank2r.bmp	252	1	VKKV	306	1	eitel	559	0	0	0	0	0	0	0	0	0	0	0	0	0	0	0	0	0	0	0	0	0	0	0	0	0	0	0	0	0	0	0	0	0	0	0	0	0	0	0
072219	14:36:05	14:39:29	203823	5.0.10.0	5_exp_noRW	74	Rpleas_acq	CS_B	MQQM	YDDY	VKKV	GWWG	JXXJ	BZZB	ehrlich	retten	treu	spielen	schön	fair	eitel	rächen	tot	strafen	schlecht	faul	47pct	acq_USpleas_CSpleas1_noRW	acq1_noRW	1	68	0	0	300	300	284	50	0	1	1	blank2r.bmp	0	1	+	0	1	blank2r.bmp	252	1	MQQM	306	2	retten	559	0	0	0	0	0	0	0	0	0	0	0	0	0	0	0	0	0	0	0	0	0	0	0	0	0	0	0	0	0	0	0	0	0	0	0	0	0	0	0
072219	14:36:05	14:39:31	205169	5.0.10.0	5_exp_noRW	74	Rpleas_acq	CS_B	MQQM	YDDY	VKKV	GWWG	JXXJ	BZZB	ehrlich	retten	treu	spielen	schön	fair	eitel	rächen	tot	strafen	schlecht	faul	47pct	acq_USpleas_CSpleas1_noRW	acq1_noRW	1	69	0	0	300	300	160	50	0	1	1	blank2r.bmp	0	1	+	0	1	blank2r.bmp	252	1	MQQM	306	3	treu	559	0	0	0	0	0	0	0	0	0	0	0	0	0	0	0	0	0	0	0	0	0	0	0	0	0	0	0	0	0	0	0	0	0	0	0	0	0	0	0
072219	14:36:05	14:39:32	206808	5.0.10.0	5_exp_noRW	74	Rpleas_acq	CS_B	MQQM	YDDY	VKKV	GWWG	JXXJ	BZZB	ehrlich	retten	treu	spielen	schön	fair	eitel	rächen	tot	strafen	schlecht	faul	53pct	acq_USunple_CSunple1_noRW	acq1_noRW	1	70	0	0	300	300	469	46	0	1	1	blank2r.bmp	0	1	+	0	1	blank2r.bmp	252	1	VKKV	306	2	rächen	559	0	0	0	0	0	0	0	0	0	0	0	0	0	0	0	0	0	0	0	0	0	0	0	0	0	0	0	0	0	0	0	0	0	0	0	0	0	0	0
072219	14:36:05	14:39:34	208434	5.0.10.0	5_exp_noRW	74	Rpleas_acq	CS_B	MQQM	YDDY	VKKV	GWWG	JXXJ	BZZB	ehrlich	retten	treu	spielen	schön	fair	eitel	rächen	tot	strafen	schlecht	faul	53pct	acq_USpleas_CSpleas2_noRW	acq1_noRW	1	71	0	0	300	300	454	50	0	1	1	blank2r.bmp	0	1	+	0	1	blank2r.bmp	252	1	YDDY	306	3	fair	559	0	0	0	0	0	0	0	0	0	0	0	0	0	0	0	0	0	0	0	0	0	0	0	0	0	0	0	0	0	0	0	0	0	0	0	0	0	0	0
072219	14:36:05	14:39:35	209647	5.0.10.0	5_exp_noRW	74	Rpleas_acq	CS_B	MQQM	YDDY	VKKV	GWWG	JXXJ	BZZB	ehrlich	retten	treu	spielen	schön	fair	eitel	rächen	tot	strafen	schlecht	faul	53pct	acq_USpleas_CSpleas2_noRW	acq1_noRW	1	72	0	0	300	300	51	50	0	1	1	blank2r.bmp	0	1	+	0	1	blank2r.bmp	252	1	YDDY	306	1	spielen	559	0	0	0	0	0	0	0	0	0	0	0	0	0	0	0	0	0	0	0	0	0	0	0	0	0	0	0	0	0	0	0	0	0	0	0	0	0	0	0
072219	14:36:05	14:39:37	210940	5.0.10.0	5_exp_noRW	74	Rpleas_acq	CS_B	MQQM	YDDY	VKKV	GWWG	JXXJ	BZZB	ehrlich	retten	treu	spielen	schön	fair	eitel	rächen	tot	strafen	schlecht	faul	47pct	acq_USunple_CSunple1_noRW	acq1_noRW	1	73	0	0	300	300	105	46	0	1	1	blank2r.bmp	0	1	+	0	1	blank2r.bmp	252	1	VKKV	306	3	tot	559	0	0	0	0	0	0	0	0	0	0	0	0	0	0	0	0	0	0	0	0	0	0	0	0	0	0	0	0	0	0	0	0	0	0	0	0	0	0	0
072219	14:36:05	14:39:38	212632	5.0.10.0	5_exp_noRW	74	Rpleas_acq	CS_B	MQQM	YDDY	VKKV	GWWG	JXXJ	BZZB	ehrlich	retten	treu	spielen	schön	fair	eitel	rächen	tot	strafen	schlecht	faul	47pct	acq_USunple_CSunple2_noRW	acq1_noRW	1	74	0	0	300	300	513	46	0	1	1	blank2r.bmp	0	1	+	0	1	blank2r.bmp	252	1	GWWG	306	3	faul	559	0	0	0	0	0	0	0	0	0	0	0	0	0	0	0	0	0	0	0	0	0	0	0	0	0	0	0	0	0	0	0	0	0	0	0	0	0	0	0
072219	14:36:05	14:39:40	214218	5.0.10.0	5_exp_noRW	74	Rpleas_acq	CS_B	MQQM	YDDY	VKKV	GWWG	JXXJ	BZZB	ehrlich	retten	treu	spielen	schön	fair	eitel	rächen	tot	strafen	schlecht	faul	47pct	acq_USunple_CSunple2_noRW	acq1_noRW	1	75	0	0	300	300	405	46	0	1	1	blank2r.bmp	0	1	+	0	1	blank2r.bmp	252	1	GWWG	306	1	strafen	559	0	0	0	0	0	0	0	0	0	0	0	0	0	0	0	0	0	0	0	0	0	0	0	0	0	0	0	0	0	0	0	0	0	0	0	0	0	0	0
072219	14:36:05	14:39:42	215844	5.0.10.0	5_exp_noRW	74	Rpleas_acq	CS_B	MQQM	YDDY	VKKV	GWWG	JXXJ	BZZB	ehrlich	retten	treu	spielen	schön	fair	eitel	rächen	tot	strafen	schlecht	faul	47pct	acq_USunple_CSunple2_noRW	acq1_noRW	1	76	0	0	300	300	460	46	0	1	1	blank2r.bmp	0	1	+	0	1	blank2r.bmp	252	1	GWWG	306	1	strafen	559	0	0	0	0	0	0	0	0	0	0	0	0	0	0	0	0	0	0	0	0	0	0	0	0	0	0	0	0	0	0	0	0	0	0	0	0	0	0	0
072219	14:36:05	14:39:44	217897	5.0.10.0	5_exp_noRW	74	Rpleas_acq	CS_B	MQQM	YDDY	VKKV	GWWG	JXXJ	BZZB	ehrlich	retten	treu	spielen	schön	fair	eitel	rächen	tot	strafen	schlecht	faul	47pct	acq_USpleas_CSunple2_noRW	acq1_noRW	1	77	0	0	300	300	865	50	0	1	1	blank2r.bmp	0	1	+	0	1	blank2r.bmp	252	1	GWWG	306	2	schön	559	0	0	0	0	0	0	0	0	0	0	0	0	0	0	0	0	0	0	0	0	0	0	0	0	0	0	0	0	0	0	0	0	0	0	0	0	0	0	0
072219	14:36:05	14:39:46	220043	5.0.10.0	5_exp_noRW	74	Rpleas_acq	CS_B	MQQM	YDDY	VKKV	GWWG	JXXJ	BZZB	ehrlich	retten	treu	spielen	schön	fair	eitel	rächen	tot	strafen	schlecht	faul	47pct	acq_USpleas_CSpleas2_noRW	acq1_noRW	1	78	0	0	300	300	962	50	0	1	1	blank2r.bmp	0	1	+	0	1	blank2r.bmp	252	1	YDDY	306	3	fair	559	0	0	0	0	0	0	0	0	0	0	0	0	0	0	0	0	0	0	0	0	0	0	0	0	0	0	0	0	0	0	0	0	0	0	0	0	0	0	0
072219	14:36:05	14:39:48	222788	5.0.10.0	5_exp_noRW	74	Rpleas_acq	CS_B	MQQM	YDDY	VKKV	GWWG	JXXJ	BZZB	ehrlich	retten	treu	spielen	schön	fair	eitel	rächen	tot	strafen	schlecht	faul	47pct	acq_USunple_CSpleas1_noRW	acq1_noRW	1	79	0	0	300	300	1572	46	0	1	1	blank2r.bmp	0	1	+	0	1	blank2r.bmp	252	1	MQQM	306	2	rächen	559	0	0	0	0	0	0	0	0	0	0	0	0	0	0	0	0	0	0	0	0	0	0	0	0	0	0	0	0	0	0	0	0	0	0	0	0	0	0	0
072219	14:36:05	14:39:50	224827	5.0.10.0	5_exp_noRW	74	Rpleas_acq	CS_B	MQQM	YDDY	VKKV	GWWG	JXXJ	BZZB	ehrlich	retten	treu	spielen	schön	fair	eitel	rächen	tot	strafen	schlecht	faul	53pct	acq_USunple_CSpleas2_noRW	acq1_noRW	1	80	0	0	300	300	659	50	0	0	1	blank2r.bmp	0	1	+	0	1	blank2r.bmp	252	1	YDDY	306	1	strafen	559	1	FEHLER	1252	0	0	0	0	0	0	0	0	0	0	0	0	0	0	0	0	0	0	0	0	0	0	0	0	0	0	0	0	0	0	0	0	0	0	0	0
072219	14:36:05	14:40:06	240234	5.0.10.0	5_exp_noRW	74	Rpleas_acq	CS_B	MQQM	YDDY	VKKV	GWWG	JXXJ	BZZB	ehrlich	retten	treu	spielen	schön	fair	eitel	rächen	tot	strafen	schlecht	faul	47pct	acq_USunple_CSunple1_noRW	acq23456_noRW	2	1	0	0	300	300	531	46	0	1	1	blank2r.bmp	0	1	+	0	1	blank2r.bmp	252	1	VKKV	306	1	eitel	559	0	0	0	0	0	0	0	0	0	0	0	0	0	0	0	0	0	0	0	0	0	0	0	0	0	0	0	0	0	0	0	0	0	0	0	0	0	0	0
072219	14:36:05	14:40:08	241954	5.0.10.0	5_exp_noRW	74	Rpleas_acq	CS_B	MQQM	YDDY	VKKV	GWWG	JXXJ	BZZB	ehrlich	retten	treu	spielen	schön	fair	eitel	rächen	tot	strafen	schlecht	faul	53pct	acq_USunple_CSunple2_noRW	acq23456_noRW	2	2	0	0	300	300	550	46	0	1	1	blank2r.bmp	0	1	+	0	1	blank2r.bmp	252	1	GWWG	306	2	schlecht	559	0	0	0	0	0	0	0	0	0	0	0	0	0	0	0	0	0	0	0	0	0	0	0	0	0	0	0	0	0	0	0	0	0	0	0	0	0	0	0
072219	14:36:05	14:40:09	243513	5.0.10.0	5_exp_noRW	74	Rpleas_acq	CS_B	MQQM	YDDY	VKKV	GWWG	JXXJ	BZZB	ehrlich	retten	treu	spielen	schön	fair	eitel	rächen	tot	strafen	schlecht	faul	53pct	acq_USpleas_CSpleas1_noRW	acq23456_noRW	2	3	0	0	300	300	386	50	0	1	1	blank2r.bmp	0	1	+	0	1	blank2r.bmp	252	1	MQQM	306	2	retten	559	0	0	0	0	0	0	0	0	0	0	0	0	0	0	0	0	0	0	0	0	0	0	0	0	0	0	0	0	0	0	0	0	0	0	0	0	0	0	0
072219	14:36:05	14:40:11	245139	5.0.10.0	5_exp_noRW	74	Rpleas_acq	CS_B	MQQM	YDDY	VKKV	GWWG	JXXJ	BZZB	ehrlich	retten	treu	spielen	schön	fair	eitel	rächen	tot	strafen	schlecht	faul	47pct	acq_USunple_CSunple1_noRW	acq23456_noRW	2	4	0	0	300	300	455	46	0	1	1	blank2r.bmp	0	1	+	0	1	blank2r.bmp	252	1	VKKV	306	2	rächen	559	0	0	0	0	0	0	0	0	0	0	0	0	0	0	0	0	0	0	0	0	0	0	0	0	0	0	0	0	0	0	0	0	0	0	0	0	0	0	0
072219	14:36:05	14:40:12	246712	5.0.10.0	5_exp_noRW	74	Rpleas_acq	CS_B	MQQM	YDDY	VKKV	GWWG	JXXJ	BZZB	ehrlich	retten	treu	spielen	schön	fair	eitel	rächen	tot	strafen	schlecht	faul	47pct	acq_USpleas_CSpleas2_noRW	acq23456_noRW	2	5	0	0	300	300	410	50	0	1	1	blank2r.bmp	0	1	+	0	1	blank2r.bmp	252	1	YDDY	306	2	schön	559	0	0	0	0	0	0	0	0	0	0	0	0	0	0	0	0	0	0	0	0	0	0	0	0	0	0	0	0	0	0	0	0	0	0	0	0	0	0	0
072219	14:36:05	14:40:14	248258	5.0.10.0	5_exp_noRW	74	Rpleas_acq	CS_B	MQQM	YDDY	VKKV	GWWG	JXXJ	BZZB	ehrlich	retten	treu	spielen	schön	fair	eitel	rächen	tot	strafen	schlecht	faul	53pct	acq_USunple_CSunple1_noRW	acq23456_noRW	2	6	0	0	300	300	379	46	0	1	1	blank2r.bmp	0	1	+	0	1	blank2r.bmp	252	1	VKKV	306	2	rächen	559	0	0	0	0	0	0	0	0	0	0	0	0	0	0	0	0	0	0	0	0	0	0	0	0	0	0	0	0	0	0	0	0	0	0	0	0	0	0	0
072219	14:36:05	14:40:16	250044	5.0.10.0	5_exp_noRW	74	Rpleas_acq	CS_B	MQQM	YDDY	VKKV	GWWG	JXXJ	BZZB	ehrlich	retten	treu	spielen	schön	fair	eitel	rächen	tot	strafen	schlecht	faul	47pct	acq_USunple_CSunple2_noRW	acq23456_noRW	2	7	0	0	300	300	616	46	0	1	1	blank2r.bmp	0	1	+	0	1	blank2r.bmp	252	1	GWWG	306	3	faul	559	0	0	0	0	0	0	0	0	0	0	0	0	0	0	0	0	0	0	0	0	0	0	0	0	0	0	0	0	0	0	0	0	0	0	0	0	0	0	0
072219	14:36:05	14:40:17	251710	5.0.10.0	5_exp_noRW	74	Rpleas_acq	CS_B	MQQM	YDDY	VKKV	GWWG	JXXJ	BZZB	ehrlich	retten	treu	spielen	schön	fair	eitel	rächen	tot	strafen	schlecht	faul	53pct	acq_USunple_CSunple1_noRW	acq23456_noRW	2	8	0	0	300	300	488	46	0	1	1	blank2r.bmp	0	1	+	0	1	blank2r.bmp	252	1	VKKV	306	1	eitel	559	0	0	0	0	0	0	0	0	0	0	0	0	0	0	0	0	0	0	0	0	0	0	0	0	0	0	0	0	0	0	0	0	0	0	0	0	0	0	0
072219	14:36:05	14:40:19	253336	5.0.10.0	5_exp_noRW	74	Rpleas_acq	CS_B	MQQM	YDDY	VKKV	GWWG	JXXJ	BZZB	ehrlich	retten	treu	spielen	schön	fair	eitel	rächen	tot	strafen	schlecht	faul	53pct	acq_USunple_CSunple2_noRW	acq23456_noRW	2	9	0	0	300	300	448	46	0	1	1	blank2r.bmp	0	1	+	0	1	blank2r.bmp	252	1	GWWG	306	1	strafen	559	0	0	0	0	0	0	0	0	0	0	0	0	0	0	0	0	0	0	0	0	0	0	0	0	0	0	0	0	0	0	0	0	0	0	0	0	0	0	0
072219	14:36:05	14:40:21	255042	5.0.10.0	5_exp_noRW	74	Rpleas_acq	CS_B	MQQM	YDDY	VKKV	GWWG	JXXJ	BZZB	ehrlich	retten	treu	spielen	schön	fair	eitel	rächen	tot	strafen	schlecht	faul	47pct	acq_USunple_CSunple2_noRW	acq23456_noRW	2	10	0	0	300	300	521	46	0	1	1	blank2r.bmp	0	1	+	0	1	blank2r.bmp	252	1	GWWG	306	2	schlecht	559	0	0	0	0	0	0	0	0	0	0	0	0	0	0	0	0	0	0	0	0	0	0	0	0	0	0	0	0	0	0	0	0	0	0	0	0	0	0	0
072219	14:36:05	14:40:22	256601	5.0.10.0	5_exp_noRW	74	Rpleas_acq	CS_B	MQQM	YDDY	VKKV	GWWG	JXXJ	BZZB	ehrlich	retten	treu	spielen	schön	fair	eitel	rächen	tot	strafen	schlecht	faul	47pct	acq_USpleas_CSpleas2_noRW	acq23456_noRW	2	11	0	0	300	300	389	50	0	1	1	blank2r.bmp	0	1	+	0	1	blank2r.bmp	252	1	YDDY	306	1	spielen	559	0	0	0	0	0	0	0	0	0	0	0	0	0	0	0	0	0	0	0	0	0	0	0	0	0	0	0	0	0	0	0	0	0	0	0	0	0	0	0
072219	14:36:05	14:40:24	258214	5.0.10.0	5_exp_noRW	74	Rpleas_acq	CS_B	MQQM	YDDY	VKKV	GWWG	JXXJ	BZZB	ehrlich	retten	treu	spielen	schön	fair	eitel	rächen	tot	strafen	schlecht	faul	53pct	acq_USpleas_CSpleas2_noRW	acq23456_noRW	2	12	0	0	300	300	436	50	0	1	1	blank2r.bmp	0	1	+	0	1	blank2r.bmp	252	1	YDDY	306	2	schön	559	0	0	0	0	0	0	0	0	0	0	0	0	0	0	0	0	0	0	0	0	0	0	0	0	0	0	0	0	0	0	0	0	0	0	0	0	0	0	0
072219	14:36:05	14:40:25	259746	5.0.10.0	5_exp_noRW	74	Rpleas_acq	CS_B	MQQM	YDDY	VKKV	GWWG	JXXJ	BZZB	ehrlich	retten	treu	spielen	schön	fair	eitel	rächen	tot	strafen	schlecht	faul	53pct	acq_USpleas_CSpleas2_noRW	acq23456_noRW	2	13	0	0	300	300	354	50	0	1	1	blank2r.bmp	0	1	+	0	1	blank2r.bmp	252	1	YDDY	306	1	spielen	559	0	0	0	0	0	0	0	0	0	0	0	0	0	0	0	0	0	0	0	0	0	0	0	0	0	0	0	0	0	0	0	0	0	0	0	0	0	0	0
072219	14:36:05	14:40:27	261519	5.0.10.0	5_exp_noRW	74	Rpleas_acq	CS_B	MQQM	YDDY	VKKV	GWWG	JXXJ	BZZB	ehrlich	retten	treu	spielen	schön	fair	eitel	rächen	tot	strafen	schlecht	faul	47pct	acq_USpleas_CSpleas1_noRW	acq23456_noRW	2	14	0	0	300	300	594	50	0	1	1	blank2r.bmp	0	1	+	0	1	blank2r.bmp	252	1	MQQM	306	1	ehrlich	559	0	0	0	0	0	0	0	0	0	0	0	0	0	0	0	0	0	0	0	0	0	0	0	0	0	0	0	0	0	0	0	0	0	0	0	0	0	0	0
072219	14:36:05	14:40:29	263105	5.0.10.0	5_exp_noRW	74	Rpleas_acq	CS_B	MQQM	YDDY	VKKV	GWWG	JXXJ	BZZB	ehrlich	retten	treu	spielen	schön	fair	eitel	rächen	tot	strafen	schlecht	faul	47pct	acq_USpleas_CSpleas1_noRW	acq23456_noRW	2	15	0	0	300	300	414	50	0	1	1	blank2r.bmp	0	1	+	0	1	blank2r.bmp	252	1	MQQM	306	2	retten	559	0	0	0	0	0	0	0	0	0	0	0	0	0	0	0	0	0	0	0	0	0	0	0	0	0	0	0	0	0	0	0	0	0	0	0	0	0	0	0
072219	14:36:05	14:40:30	264731	5.0.10.0	5_exp_noRW	74	Rpleas_acq	CS_B	MQQM	YDDY	VKKV	GWWG	JXXJ	BZZB	ehrlich	retten	treu	spielen	schön	fair	eitel	rächen	tot	strafen	schlecht	faul	53pct	acq_USunple_CSpleas1_noRW	acq23456_noRW	2	16	0	0	300	300	451	46	0	1	1	blank2r.bmp	0	1	+	0	1	blank2r.bmp	252	1	MQQM	306	1	eitel	559	0	0	0	0	0	0	0	0	0	0	0	0	0	0	0	0	0	0	0	0	0	0	0	0	0	0	0	0	0	0	0	0	0	0	0	0	0	0	0
072219	14:36:05	14:40:32	266557	5.0.10.0	5_exp_noRW	74	Rpleas_acq	CS_B	MQQM	YDDY	VKKV	GWWG	JXXJ	BZZB	ehrlich	retten	treu	spielen	schön	fair	eitel	rächen	tot	strafen	schlecht	faul	47pct	acq_USpleas_CSpleas1_noRW	acq23456_noRW	2	17	0	0	300	300	629	50	0	1	1	blank2r.bmp	0	1	+	0	1	blank2r.bmp	252	1	MQQM	306	3	treu	559	0	0	0	0	0	0	0	0	0	0	0	0	0	0	0	0	0	0	0	0	0	0	0	0	0	0	0	0	0	0	0	0	0	0	0	0	0	0	0
072219	14:36:05	14:40:34	268063	5.0.10.0	5_exp_noRW	74	Rpleas_acq	CS_B	MQQM	YDDY	VKKV	GWWG	JXXJ	BZZB	ehrlich	retten	treu	spielen	schön	fair	eitel	rächen	tot	strafen	schlecht	faul	47pct	acq_USunple_CSpleas2_noRW	acq23456_noRW	2	18	0	0	300	300	338	46	0	1	1	blank2r.bmp	0	1	+	0	1	blank2r.bmp	252	1	YDDY	306	2	schlecht	559	0	0	0	0	0	0	0	0	0	0	0	0	0	0	0	0	0	0	0	0	0	0	0	0	0	0	0	0	0	0	0	0	0	0	0	0	0	0	0
072219	14:36:05	14:40:35	269689	5.0.10.0	5_exp_noRW	74	Rpleas_acq	CS_B	MQQM	YDDY	VKKV	GWWG	JXXJ	BZZB	ehrlich	retten	treu	spielen	schön	fair	eitel	rächen	tot	strafen	schlecht	faul	47pct	acq_USpleas_CSunple2_noRW	acq23456_noRW	2	19	0	0	300	300	441	50	0	1	1	blank2r.bmp	0	1	+	0	1	blank2r.bmp	252	1	GWWG	306	1	spielen	559	0	0	0	0	0	0	0	0	0	0	0	0	0	0	0	0	0	0	0	0	0	0	0	0	0	0	0	0	0	0	0	0	0	0	0	0	0	0	0
072219	14:36:05	14:40:38	272141	5.0.10.0	5_exp_noRW	74	Rpleas_acq	CS_B	MQQM	YDDY	VKKV	GWWG	JXXJ	BZZB	ehrlich	retten	treu	spielen	schön	fair	eitel	rächen	tot	strafen	schlecht	faul	47pct	acq_USpleas_CSunple1_noRW	acq23456_noRW	2	20	0	0	300	300	1055	46	0	0	1	blank2r.bmp	0	1	+	0	1	blank2r.bmp	252	1	VKKV	306	3	treu	559	1	FEHLER	1652	0	0	0	0	0	0	0	0	0	0	0	0	0	0	0	0	0	0	0	0	0	0	0	0	0	0	0	0	0	0	0	0	0	0	0	0
072219	14:36:05	14:40:39	273634	5.0.10.0	5_exp_noRW	74	Rpleas_acq	CS_B	MQQM	YDDY	VKKV	GWWG	JXXJ	BZZB	ehrlich	retten	treu	spielen	schön	fair	eitel	rächen	tot	strafen	schlecht	faul	53pct	acq_USunple_CSpleas2_noRW	acq23456_noRW	2	21	0	0	300	300	532	46	0	1	1	blank2r.bmp	0	1	+	0	1	blank2r.bmp	252	1	YDDY	306	3	faul	559	0	0	0	0	0	0	0	0	0	0	0	0	0	0	0	0	0	0	0	0	0	0	0	0	0	0	0	0	0	0	0	0	0	0	0	0	0	0	0
072219	14:36:05	14:40:41	275273	5.0.10.0	5_exp_noRW	74	Rpleas_acq	CS_B	MQQM	YDDY	VKKV	GWWG	JXXJ	BZZB	ehrlich	retten	treu	spielen	schön	fair	eitel	rächen	tot	strafen	schlecht	faul	53pct	acq_USunple_CSunple1_noRW	acq23456_noRW	2	22	0	0	300	300	472	46	0	1	1	blank2r.bmp	0	1	+	0	1	blank2r.bmp	252	1	VKKV	306	3	tot	559	0	0	0	0	0	0	0	0	0	0	0	0	0	0	0	0	0	0	0	0	0	0	0	0	0	0	0	0	0	0	0	0	0	0	0	0	0	0	0
072219	14:36:05	14:40:43	276953	5.0.10.0	5_exp_noRW	74	Rpleas_acq	CS_B	MQQM	YDDY	VKKV	GWWG	JXXJ	BZZB	ehrlich	retten	treu	spielen	schön	fair	eitel	rächen	tot	strafen	schlecht	faul	47pct	acq_USpleas_CSpleas2_noRW	acq23456_noRW	2	23	0	0	300	300	498	50	0	1	1	blank2r.bmp	0	1	+	0	1	blank2r.bmp	252	1	YDDY	306	3	fair	559	0	0	0	0	0	0	0	0	0	0	0	0	0	0	0	0	0	0	0	0	0	0	0	0	0	0	0	0	0	0	0	0	0	0	0	0	0	0	0
072219	14:36:05	14:40:44	278645	5.0.10.0	5_exp_noRW	74	Rpleas_acq	CS_B	MQQM	YDDY	VKKV	GWWG	JXXJ	BZZB	ehrlich	retten	treu	spielen	schön	fair	eitel	rächen	tot	strafen	schlecht	faul	53pct	acq_USunple_CSunple1_noRW	acq23456_noRW	2	24	0	0	300	300	516	46	0	1	1	blank2r.bmp	0	1	+	0	1	blank2r.bmp	252	1	VKKV	306	2	rächen	559	0	0	0	0	0	0	0	0	0	0	0	0	0	0	0	0	0	0	0	0	0	0	0	0	0	0	0	0	0	0	0	0	0	0	0	0	0	0	0
072219	14:36:05	14:40:46	280298	5.0.10.0	5_exp_noRW	74	Rpleas_acq	CS_B	MQQM	YDDY	VKKV	GWWG	JXXJ	BZZB	ehrlich	retten	treu	spielen	schön	fair	eitel	rächen	tot	strafen	schlecht	faul	53pct	acq_USunple_CSunple2_noRW	acq23456_noRW	2	25	0	0	300	300	481	46	0	1	1	blank2r.bmp	0	1	+	0	1	blank2r.bmp	252	1	GWWG	306	3	faul	559	0	0	0	0	0	0	0	0	0	0	0	0	0	0	0	0	0	0	0	0	0	0	0	0	0	0	0	0	0	0	0	0	0	0	0	0	0	0	0
072219	14:36:05	14:40:48	281951	5.0.10.0	5_exp_noRW	74	Rpleas_acq	CS_B	MQQM	YDDY	VKKV	GWWG	JXXJ	BZZB	ehrlich	retten	treu	spielen	schön	fair	eitel	rächen	tot	strafen	schlecht	faul	47pct	acq_USpleas_CSpleas2_noRW	acq23456_noRW	2	26	0	0	300	300	481	50	0	1	1	blank2r.bmp	0	1	+	0	1	blank2r.bmp	252	1	YDDY	306	3	fair	559	0	0	0	0	0	0	0	0	0	0	0	0	0	0	0	0	0	0	0	0	0	0	0	0	0	0	0	0	0	0	0	0	0	0	0	0	0	0	0
072219	14:36:05	14:40:49	283443	5.0.10.0	5_exp_noRW	74	Rpleas_acq	CS_B	MQQM	YDDY	VKKV	GWWG	JXXJ	BZZB	ehrlich	retten	treu	spielen	schön	fair	eitel	rächen	tot	strafen	schlecht	faul	53pct	acq_USpleas_CSunple2_noRW	acq23456_noRW	2	27	0	0	300	300	311	50	0	1	1	blank2r.bmp	0	1	+	0	1	blank2r.bmp	252	1	GWWG	306	3	fair	559	0	0	0	0	0	0	0	0	0	0	0	0	0	0	0	0	0	0	0	0	0	0	0	0	0	0	0	0	0	0	0	0	0	0	0	0	0	0	0
072219	14:36:05	14:40:51	285176	5.0.10.0	5_exp_noRW	74	Rpleas_acq	CS_B	MQQM	YDDY	VKKV	GWWG	JXXJ	BZZB	ehrlich	retten	treu	spielen	schön	fair	eitel	rächen	tot	strafen	schlecht	faul	47pct	acq_USpleas_CSpleas1_noRW	acq23456_noRW	2	28	0	0	300	300	333	46	0	0	1	blank2r.bmp	0	1	+	0	1	blank2r.bmp	252	1	MQQM	306	1	ehrlich	559	1	FEHLER	932	0	0	0	0	0	0	0	0	0	0	0	0	0	0	0	0	0	0	0	0	0	0	0	0	0	0	0	0	0	0	0	0	0	0	0	0
072219	14:36:05	14:40:52	286575	5.0.10.0	5_exp_noRW	74	Rpleas_acq	CS_B	MQQM	YDDY	VKKV	GWWG	JXXJ	BZZB	ehrlich	retten	treu	spielen	schön	fair	eitel	rächen	tot	strafen	schlecht	faul	53pct	acq_USunple_CSpleas1_noRW	acq23456_noRW	2	29	0	0	300	300	440	46	0	1	1	blank2r.bmp	0	1	+	0	1	blank2r.bmp	252	1	MQQM	306	3	tot	559	0	0	0	0	0	0	0	0	0	0	0	0	0	0	0	0	0	0	0	0	0	0	0	0	0	0	0	0	0	0	0	0	0	0	0	0	0	0	0
072219	14:36:05	14:40:54	288228	5.0.10.0	5_exp_noRW	74	Rpleas_acq	CS_B	MQQM	YDDY	VKKV	GWWG	JXXJ	BZZB	ehrlich	retten	treu	spielen	schön	fair	eitel	rächen	tot	strafen	schlecht	faul	53pct	acq_USunple_CSunple2_noRW	acq23456_noRW	2	30	0	0	300	300	487	46	0	1	1	blank2r.bmp	0	1	+	0	1	blank2r.bmp	252	1	GWWG	306	1	strafen	559	0	0	0	0	0	0	0	0	0	0	0	0	0	0	0	0	0	0	0	0	0	0	0	0	0	0	0	0	0	0	0	0	0	0	0	0	0	0	0
072219	14:36:05	14:40:56	289934	5.0.10.0	5_exp_noRW	74	Rpleas_acq	CS_B	MQQM	YDDY	VKKV	GWWG	JXXJ	BZZB	ehrlich	retten	treu	spielen	schön	fair	eitel	rächen	tot	strafen	schlecht	faul	53pct	acq_USunple_CSunple1_noRW	acq23456_noRW	2	31	0	0	300	300	527	46	0	1	1	blank2r.bmp	0	1	+	0	1	blank2r.bmp	252	1	VKKV	306	3	tot	559	0	0	0	0	0	0	0	0	0	0	0	0	0	0	0	0	0	0	0	0	0	0	0	0	0	0	0	0	0	0	0	0	0	0	0	0	0	0	0
072219	14:36:05	14:40:57	291440	5.0.10.0	5_exp_noRW	74	Rpleas_acq	CS_B	MQQM	YDDY	VKKV	GWWG	JXXJ	BZZB	ehrlich	retten	treu	spielen	schön	fair	eitel	rächen	tot	strafen	schlecht	faul	53pct	acq_USpleas_CSpleas2_noRW	acq23456_noRW	2	32	0	0	300	300	331	50	0	1	1	blank2r.bmp	0	1	+	0	1	blank2r.bmp	252	1	YDDY	306	2	schön	559	0	0	0	0	0	0	0	0	0	0	0	0	0	0	0	0	0	0	0	0	0	0	0	0	0	0	0	0	0	0	0	0	0	0	0	0	0	0	0
072219	14:36:05	14:40:59	293559	5.0.10.0	5_exp_noRW	74	Rpleas_acq	CS_B	MQQM	YDDY	VKKV	GWWG	JXXJ	BZZB	ehrlich	retten	treu	spielen	schön	fair	eitel	rächen	tot	strafen	schlecht	faul	53pct	acq_USpleas_CSpleas1_noRW	acq23456_noRW	2	33	0	0	300	300	721	46	0	0	1	blank2r.bmp	0	1	+	0	1	blank2r.bmp	252	1	MQQM	306	3	treu	559	1	FEHLER	1319	0	0	0	0	0	0	0	0	0	0	0	0	0	0	0	0	0	0	0	0	0	0	0	0	0	0	0	0	0	0	0	0	0	0	0	0
072219	14:36:05	14:41:01	295079	5.0.10.0	5_exp_noRW	74	Rpleas_acq	CS_B	MQQM	YDDY	VKKV	GWWG	JXXJ	BZZB	ehrlich	retten	treu	spielen	schön	fair	eitel	rächen	tot	strafen	schlecht	faul	47pct	acq_USunple_CSunple2_noRW	acq23456_noRW	2	34	0	0	300	300	570	46	0	1	1	blank2r.bmp	0	1	+	0	1	blank2r.bmp	252	1	GWWG	306	2	schlecht	559	0	0	0	0	0	0	0	0	0	0	0	0	0	0	0	0	0	0	0	0	0	0	0	0	0	0	0	0	0	0	0	0	0	0	0	0	0	0	0
072219	14:36:05	14:41:02	296785	5.0.10.0	5_exp_noRW	74	Rpleas_acq	CS_B	MQQM	YDDY	VKKV	GWWG	JXXJ	BZZB	ehrlich	retten	treu	spielen	schön	fair	eitel	rächen	tot	strafen	schlecht	faul	47pct	acq_USpleas_CSpleas1_noRW	acq23456_noRW	2	35	0	0	300	300	530	50	0	1	1	blank2r.bmp	0	1	+	0	1	blank2r.bmp	252	1	MQQM	306	2	retten	559	0	0	0	0	0	0	0	0	0	0	0	0	0	0	0	0	0	0	0	0	0	0	0	0	0	0	0	0	0	0	0	0	0	0	0	0	0	0	0
072219	14:36:05	14:41:04	298384	5.0.10.0	5_exp_noRW	74	Rpleas_acq	CS_B	MQQM	YDDY	VKKV	GWWG	JXXJ	BZZB	ehrlich	retten	treu	spielen	schön	fair	eitel	rächen	tot	strafen	schlecht	faul	47pct	acq_USpleas_CSpleas2_noRW	acq23456_noRW	2	36	0	0	300	300	414	50	0	1	1	blank2r.bmp	0	1	+	0	1	blank2r.bmp	252	1	YDDY	306	1	spielen	559	0	0	0	0	0	0	0	0	0	0	0	0	0	0	0	0	0	0	0	0	0	0	0	0	0	0	0	0	0	0	0	0	0	0	0	0	0	0	0
072219	14:36:05	14:41:06	299957	5.0.10.0	5_exp_noRW	74	Rpleas_acq	CS_B	MQQM	YDDY	VKKV	GWWG	JXXJ	BZZB	ehrlich	retten	treu	spielen	schön	fair	eitel	rächen	tot	strafen	schlecht	faul	53pct	acq_USpleas_CSpleas1_noRW	acq23456_noRW	2	37	0	0	300	300	399	50	0	1	1	blank2r.bmp	0	1	+	0	1	blank2r.bmp	252	1	MQQM	306	1	ehrlich	559	0	0	0	0	0	0	0	0	0	0	0	0	0	0	0	0	0	0	0	0	0	0	0	0	0	0	0	0	0	0	0	0	0	0	0	0	0	0	0
072219	14:36:05	14:41:07	301583	5.0.10.0	5_exp_noRW	74	Rpleas_acq	CS_B	MQQM	YDDY	VKKV	GWWG	JXXJ	BZZB	ehrlich	retten	treu	spielen	schön	fair	eitel	rächen	tot	strafen	schlecht	faul	53pct	acq_USunple_CSunple2_noRW	acq23456_noRW	2	38	0	0	300	300	462	46	0	1	1	blank2r.bmp	0	1	+	0	1	blank2r.bmp	252	1	GWWG	306	3	faul	559	0	0	0	0	0	0	0	0	0	0	0	0	0	0	0	0	0	0	0	0	0	0	0	0	0	0	0	0	0	0	0	0	0	0	0	0	0	0	0
072219	14:36:05	14:41:09	303382	5.0.10.0	5_exp_noRW	74	Rpleas_acq	CS_B	MQQM	YDDY	VKKV	GWWG	JXXJ	BZZB	ehrlich	retten	treu	spielen	schön	fair	eitel	rächen	tot	strafen	schlecht	faul	53pct	acq_USunple_CSunple1_noRW	acq23456_noRW	2	39	0	0	300	300	619	46	0	1	1	blank2r.bmp	0	1	+	0	1	blank2r.bmp	252	1	VKKV	306	1	eitel	559	0	0	0	0	0	0	0	0	0	0	0	0	0	0	0	0	0	0	0	0	0	0	0	0	0	0	0	0	0	0	0	0	0	0	0	0	0	0	0
072219	14:36:05	14:41:11	305088	5.0.10.0	5_exp_noRW	74	Rpleas_acq	CS_B	MQQM	YDDY	VKKV	GWWG	JXXJ	BZZB	ehrlich	retten	treu	spielen	schön	fair	eitel	rächen	tot	strafen	schlecht	faul	47pct	acq_USpleas_CSunple1_noRW	acq23456_noRW	2	40	0	0	300	300	526	50	0	1	1	blank2r.bmp	0	1	+	0	1	blank2r.bmp	252	1	VKKV	306	1	ehrlich	559	0	0	0	0	0	0	0	0	0	0	0	0	0	0	0	0	0	0	0	0	0	0	0	0	0	0	0	0	0	0	0	0	0	0	0	0	0	0	0
072219	14:36:05	14:41:13	306860	5.0.10.0	5_exp_noRW	74	Rpleas_acq	CS_B	MQQM	YDDY	VKKV	GWWG	JXXJ	BZZB	ehrlich	retten	treu	spielen	schön	fair	eitel	rächen	tot	strafen	schlecht	faul	53pct	acq_USunple_CSunple1_noRW	acq23456_noRW	2	41	0	0	300	300	608	46	0	1	1	blank2r.bmp	0	1	+	0	1	blank2r.bmp	252	1	VKKV	306	2	rächen	559	0	0	0	0	0	0	0	0	0	0	0	0	0	0	0	0	0	0	0	0	0	0	0	0	0	0	0	0	0	0	0	0	0	0	0	0	0	0	0
072219	14:36:05	14:41:14	308486	5.0.10.0	5_exp_noRW	74	Rpleas_acq	CS_B	MQQM	YDDY	VKKV	GWWG	JXXJ	BZZB	ehrlich	retten	treu	spielen	schön	fair	eitel	rächen	tot	strafen	schlecht	faul	53pct	acq_USpleas_CSunple2_noRW	acq23456_noRW	2	42	0	0	300	300	445	50	0	1	1	blank2r.bmp	0	1	+	0	1	blank2r.bmp	252	1	GWWG	306	3	fair	559	0	0	0	0	0	0	0	0	0	0	0	0	0	0	0	0	0	0	0	0	0	0	0	0	0	0	0	0	0	0	0	0	0	0	0	0	0	0	0
072219	14:36:05	14:41:16	310592	5.0.10.0	5_exp_noRW	74	Rpleas_acq	CS_B	MQQM	YDDY	VKKV	GWWG	JXXJ	BZZB	ehrlich	retten	treu	spielen	schön	fair	eitel	rächen	tot	strafen	schlecht	faul	53pct	acq_USpleas_CSpleas1_noRW	acq23456_noRW	2	43	0	0	300	300	926	50	0	1	1	blank2r.bmp	0	1	+	0	1	blank2r.bmp	252	1	MQQM	306	3	treu	559	0	0	0	0	0	0	0	0	0	0	0	0	0	0	0	0	0	0	0	0	0	0	0	0	0	0	0	0	0	0	0	0	0	0	0	0	0	0	0
072219	14:36:05	14:41:19	312898	5.0.10.0	5_exp_noRW	74	Rpleas_acq	CS_B	MQQM	YDDY	VKKV	GWWG	JXXJ	BZZB	ehrlich	retten	treu	spielen	schön	fair	eitel	rächen	tot	strafen	schlecht	faul	47pct	acq_USpleas_CSpleas1_noRW	acq23456_noRW	2	44	0	0	300	300	1129	50	0	1	1	blank2r.bmp	0	1	+	0	1	blank2r.bmp	252	1	MQQM	306	2	retten	559	0	0	0	0	0	0	0	0	0	0	0	0	0	0	0	0	0	0	0	0	0	0	0	0	0	0	0	0	0	0	0	0	0	0	0	0	0	0	0
072219	14:36:05	14:41:21	314897	5.0.10.0	5_exp_noRW	74	Rpleas_acq	CS_B	MQQM	YDDY	VKKV	GWWG	JXXJ	BZZB	ehrlich	retten	treu	spielen	schön	fair	eitel	rächen	tot	strafen	schlecht	faul	47pct	acq_USunple_CSunple2_noRW	acq23456_noRW	2	45	0	0	300	300	817	46	0	1	1	blank2r.bmp	0	1	+	0	1	blank2r.bmp	252	1	GWWG	306	2	schlecht	559	0	0	0	0	0	0	0	0	0	0	0	0	0	0	0	0	0	0	0	0	0	0	0	0	0	0	0	0	0	0	0	0	0	0	0	0	0	0	0
072219	14:36:05	14:41:22	316750	5.0.10.0	5_exp_noRW	74	Rpleas_acq	CS_B	MQQM	YDDY	VKKV	GWWG	JXXJ	BZZB	ehrlich	retten	treu	spielen	schön	fair	eitel	rächen	tot	strafen	schlecht	faul	53pct	acq_USunple_CSpleas1_noRW	acq23456_noRW	2	46	0	0	300	300	674	46	0	1	1	blank2r.bmp	0	1	+	0	1	blank2r.bmp	252	1	MQQM	306	1	eitel	559	0	0	0	0	0	0	0	0	0	0	0	0	0	0	0	0	0	0	0	0	0	0	0	0	0	0	0	0	0	0	0	0	0	0	0	0	0	0	0
072219	14:36:05	14:41:24	318456	5.0.10.0	5_exp_noRW	74	Rpleas_acq	CS_B	MQQM	YDDY	VKKV	GWWG	JXXJ	BZZB	ehrlich	retten	treu	spielen	schön	fair	eitel	rächen	tot	strafen	schlecht	faul	53pct	acq_USpleas_CSunple1_noRW	acq23456_noRW	2	47	0	0	300	300	525	50	0	1	1	blank2r.bmp	0	1	+	0	1	blank2r.bmp	252	1	VKKV	306	3	treu	559	0	0	0	0	0	0	0	0	0	0	0	0	0	0	0	0	0	0	0	0	0	0	0	0	0	0	0	0	0	0	0	0	0	0	0	0	0	0	0
072219	14:36:05	14:41:26	320215	5.0.10.0	5_exp_noRW	74	Rpleas_acq	CS_B	MQQM	YDDY	VKKV	GWWG	JXXJ	BZZB	ehrlich	retten	treu	spielen	schön	fair	eitel	rächen	tot	strafen	schlecht	faul	47pct	acq_USpleas_CSpleas1_noRW	acq23456_noRW	2	48	0	0	300	300	587	50	0	1	1	blank2r.bmp	0	1	+	0	1	blank2r.bmp	252	1	MQQM	306	1	ehrlich	559	0	0	0	0	0	0	0	0	0	0	0	0	0	0	0	0	0	0	0	0	0	0	0	0	0	0	0	0	0	0	0	0	0	0	0	0	0	0	0
072219	14:36:05	14:41:28	322521	5.0.10.0	5_exp_noRW	74	Rpleas_acq	CS_B	MQQM	YDDY	VKKV	GWWG	JXXJ	BZZB	ehrlich	retten	treu	spielen	schön	fair	eitel	rächen	tot	strafen	schlecht	faul	47pct	acq_USunple_CSunple2_noRW	acq23456_noRW	2	49	0	0	300	300	1128	46	0	1	1	blank2r.bmp	0	1	+	0	1	blank2r.bmp	252	1	GWWG	306	1	strafen	559	0	0	0	0	0	0	0	0	0	0	0	0	0	0	0	0	0	0	0	0	0	0	0	0	0	0	0	0	0	0	0	0	0	0	0	0	0	0	0
072219	14:36:05	14:41:30	324187	5.0.10.0	5_exp_noRW	74	Rpleas_acq	CS_B	MQQM	YDDY	VKKV	GWWG	JXXJ	BZZB	ehrlich	retten	treu	spielen	schön	fair	eitel	rächen	tot	strafen	schlecht	faul	53pct	acq_USpleas_CSpleas2_noRW	acq23456_noRW	2	50	0	0	300	300	491	50	0	1	1	blank2r.bmp	0	1	+	0	1	blank2r.bmp	252	1	YDDY	306	2	schön	559	0	0	0	0	0	0	0	0	0	0	0	0	0	0	0	0	0	0	0	0	0	0	0	0	0	0	0	0	0	0	0	0	0	0	0	0	0	0	0
072219	14:36:05	14:41:32	325879	5.0.10.0	5_exp_noRW	74	Rpleas_acq	CS_B	MQQM	YDDY	VKKV	GWWG	JXXJ	BZZB	ehrlich	retten	treu	spielen	schön	fair	eitel	rächen	tot	strafen	schlecht	faul	47pct	acq_USunple_CSpleas2_noRW	acq23456_noRW	2	51	0	0	300	300	514	46	0	1	1	blank2r.bmp	0	1	+	0	1	blank2r.bmp	252	1	YDDY	306	1	strafen	559	0	0	0	0	0	0	0	0	0	0	0	0	0	0	0	0	0	0	0	0	0	0	0	0	0	0	0	0	0	0	0	0	0	0	0	0	0	0	0
072219	14:36:05	14:41:33	327585	5.0.10.0	5_exp_noRW	74	Rpleas_acq	CS_B	MQQM	YDDY	VKKV	GWWG	JXXJ	BZZB	ehrlich	retten	treu	spielen	schön	fair	eitel	rächen	tot	strafen	schlecht	faul	53pct	acq_USpleas_CSpleas2_noRW	acq23456_noRW	2	52	0	0	300	300	523	50	0	1	1	blank2r.bmp	0	1	+	0	1	blank2r.bmp	252	1	YDDY	306	3	fair	559	0	0	0	0	0	0	0	0	0	0	0	0	0	0	0	0	0	0	0	0	0	0	0	0	0	0	0	0	0	0	0	0	0	0	0	0	0	0	0
072219	14:36:05	14:41:35	329411	5.0.10.0	5_exp_noRW	74	Rpleas_acq	CS_B	MQQM	YDDY	VKKV	GWWG	JXXJ	BZZB	ehrlich	retten	treu	spielen	schön	fair	eitel	rächen	tot	strafen	schlecht	faul	53pct	acq_USpleas_CSpleas1_noRW	acq23456_noRW	2	53	0	0	300	300	655	50	0	1	1	blank2r.bmp	0	1	+	0	1	blank2r.bmp	252	1	MQQM	306	2	retten	559	0	0	0	0	0	0	0	0	0	0	0	0	0	0	0	0	0	0	0	0	0	0	0	0	0	0	0	0	0	0	0	0	0	0	0	0	0	0	0
072219	14:36:05	14:41:37	331530	5.0.10.0	5_exp_noRW	74	Rpleas_acq	CS_B	MQQM	YDDY	VKKV	GWWG	JXXJ	BZZB	ehrlich	retten	treu	spielen	schön	fair	eitel	rächen	tot	strafen	schlecht	faul	53pct	acq_USunple_CSunple1_noRW	acq23456_noRW	2	54	0	0	300	300	952	46	0	1	1	blank2r.bmp	0	1	+	0	1	blank2r.bmp	252	1	VKKV	306	1	eitel	559	0	0	0	0	0	0	0	0	0	0	0	0	0	0	0	0	0	0	0	0	0	0	0	0	0	0	0	0	0	0	0	0	0	0	0	0	0	0	0
072219	14:36:05	14:41:40	334023	5.0.10.0	5_exp_noRW	74	Rpleas_acq	CS_B	MQQM	YDDY	VKKV	GWWG	JXXJ	BZZB	ehrlich	retten	treu	spielen	schön	fair	eitel	rächen	tot	strafen	schlecht	faul	53pct	acq_USunple_CSunple2_noRW	acq23456_noRW	2	55	0	0	300	300	1327	46	0	1	1	blank2r.bmp	0	1	+	0	1	blank2r.bmp	252	1	GWWG	306	3	faul	559	0	0	0	0	0	0	0	0	0	0	0	0	0	0	0	0	0	0	0	0	0	0	0	0	0	0	0	0	0	0	0	0	0	0	0	0	0	0	0
072219	14:36:05	14:41:41	335662	5.0.10.0	5_exp_noRW	74	Rpleas_acq	CS_B	MQQM	YDDY	VKKV	GWWG	JXXJ	BZZB	ehrlich	retten	treu	spielen	schön	fair	eitel	rächen	tot	strafen	schlecht	faul	47pct	acq_USunple_CSunple1_noRW	acq23456_noRW	2	56	0	0	300	300	459	46	0	1	1	blank2r.bmp	0	1	+	0	1	blank2r.bmp	252	1	VKKV	306	3	tot	559	0	0	0	0	0	0	0	0	0	0	0	0	0	0	0	0	0	0	0	0	0	0	0	0	0	0	0	0	0	0	0	0	0	0	0	0	0	0	0
072219	14:36:05	14:41:43	337168	5.0.10.0	5_exp_noRW	74	Rpleas_acq	CS_B	MQQM	YDDY	VKKV	GWWG	JXXJ	BZZB	ehrlich	retten	treu	spielen	schön	fair	eitel	rächen	tot	strafen	schlecht	faul	53pct	acq_USpleas_CSpleas2_noRW	acq23456_noRW	2	57	0	0	300	300	343	50	0	1	1	blank2r.bmp	0	1	+	0	1	blank2r.bmp	252	1	YDDY	306	1	spielen	559	0	0	0	0	0	0	0	0	0	0	0	0	0	0	0	0	0	0	0	0	0	0	0	0	0	0	0	0	0	0	0	0	0	0	0	0	0	0	0
072219	14:36:05	14:41:45	339154	5.0.10.0	5_exp_noRW	74	Rpleas_acq	CS_B	MQQM	YDDY	VKKV	GWWG	JXXJ	BZZB	ehrlich	retten	treu	spielen	schön	fair	eitel	rächen	tot	strafen	schlecht	faul	47pct	acq_USunple_CSunple1_noRW	acq23456_noRW	2	58	0	0	300	300	804	46	0	1	1	blank2r.bmp	0	1	+	0	1	blank2r.bmp	252	1	VKKV	306	3	tot	559	0	0	0	0	0	0	0	0	0	0	0	0	0	0	0	0	0	0	0	0	0	0	0	0	0	0	0	0	0	0	0	0	0	0	0	0	0	0	0
072219	14:36:05	14:41:46	340793	5.0.10.0	5_exp_noRW	74	Rpleas_acq	CS_B	MQQM	YDDY	VKKV	GWWG	JXXJ	BZZB	ehrlich	retten	treu	spielen	schön	fair	eitel	rächen	tot	strafen	schlecht	faul	47pct	acq_USpleas_CSpleas2_noRW	acq23456_noRW	2	59	0	0	300	300	454	50	0	1	1	blank2r.bmp	0	1	+	0	1	blank2r.bmp	252	1	YDDY	306	1	spielen	559	0	0	0	0	0	0	0	0	0	0	0	0	0	0	0	0	0	0	0	0	0	0	0	0	0	0	0	0	0	0	0	0	0	0	0	0	0	0	0
072219	14:36:05	14:41:48	342566	5.0.10.0	5_exp_noRW	74	Rpleas_acq	CS_B	MQQM	YDDY	VKKV	GWWG	JXXJ	BZZB	ehrlich	retten	treu	spielen	schön	fair	eitel	rächen	tot	strafen	schlecht	faul	47pct	acq_USunple_CSunple2_noRW	acq23456_noRW	2	60	0	0	300	300	596	46	0	1	1	blank2r.bmp	0	1	+	0	1	blank2r.bmp	252	1	GWWG	306	3	faul	559	0	0	0	0	0	0	0	0	0	0	0	0	0	0	0	0	0	0	0	0	0	0	0	0	0	0	0	0	0	0	0	0	0	0	0	0	0	0	0
072219	14:36:05	14:41:50	344272	5.0.10.0	5_exp_noRW	74	Rpleas_acq	CS_B	MQQM	YDDY	VKKV	GWWG	JXXJ	BZZB	ehrlich	retten	treu	spielen	schön	fair	eitel	rächen	tot	strafen	schlecht	faul	53pct	acq_USunple_CSunple1_noRW	acq23456_noRW	2	61	0	0	300	300	530	46	0	1	1	blank2r.bmp	0	1	+	0	1	blank2r.bmp	252	1	VKKV	306	2	rächen	559	0	0	0	0	0	0	0	0	0	0	0	0	0	0	0	0	0	0	0	0	0	0	0	0	0	0	0	0	0	0	0	0	0	0	0	0	0	0	0
072219	14:36:05	14:41:52	345991	5.0.10.0	5_exp_noRW	74	Rpleas_acq	CS_B	MQQM	YDDY	VKKV	GWWG	JXXJ	BZZB	ehrlich	retten	treu	spielen	schön	fair	eitel	rächen	tot	strafen	schlecht	faul	53pct	acq_USpleas_CSpleas2_noRW	acq23456_noRW	2	62	0	0	300	300	532	50	0	1	1	blank2r.bmp	0	1	+	0	1	blank2r.bmp	252	1	YDDY	306	3	fair	559	0	0	0	0	0	0	0	0	0	0	0	0	0	0	0	0	0	0	0	0	0	0	0	0	0	0	0	0	0	0	0	0	0	0	0	0	0	0	0
072219	14:36:05	14:41:53	347630	5.0.10.0	5_exp_noRW	74	Rpleas_acq	CS_B	MQQM	YDDY	VKKV	GWWG	JXXJ	BZZB	ehrlich	retten	treu	spielen	schön	fair	eitel	rächen	tot	strafen	schlecht	faul	53pct	acq_USpleas_CSunple2_noRW	acq23456_noRW	2	63	0	0	300	300	473	50	0	1	1	blank2r.bmp	0	1	+	0	1	blank2r.bmp	252	1	GWWG	306	2	schön	559	0	0	0	0	0	0	0	0	0	0	0	0	0	0	0	0	0	0	0	0	0	0	0	0	0	0	0	0	0	0	0	0	0	0	0	0	0	0	0
072219	14:36:05	14:41:55	349230	5.0.10.0	5_exp_noRW	74	Rpleas_acq	CS_B	MQQM	YDDY	VKKV	GWWG	JXXJ	BZZB	ehrlich	retten	treu	spielen	schön	fair	eitel	rächen	tot	strafen	schlecht	faul	47pct	acq_USpleas_CSpleas1_noRW	acq23456_noRW	2	64	0	0	300	300	430	50	0	1	1	blank2r.bmp	0	1	+	0	1	blank2r.bmp	252	1	MQQM	306	3	treu	559	0	0	0	0	0	0	0	0	0	0	0	0	0	0	0	0	0	0	0	0	0	0	0	0	0	0	0	0	0	0	0	0	0	0	0	0	0	0	0
072219	14:36:05	14:41:57	350989	5.0.10.0	5_exp_noRW	74	Rpleas_acq	CS_B	MQQM	YDDY	VKKV	GWWG	JXXJ	BZZB	ehrlich	retten	treu	spielen	schön	fair	eitel	rächen	tot	strafen	schlecht	faul	47pct	acq_USunple_CSunple2_noRW	acq23456_noRW	2	65	0	0	300	300	580	46	0	1	1	blank2r.bmp	0	1	+	0	1	blank2r.bmp	252	1	GWWG	306	1	strafen	559	0	0	0	0	0	0	0	0	0	0	0	0	0	0	0	0	0	0	0	0	0	0	0	0	0	0	0	0	0	0	0	0	0	0	0	0	0	0	0
072219	14:36:05	14:41:59	352935	5.0.10.0	5_exp_noRW	74	Rpleas_acq	CS_B	MQQM	YDDY	VKKV	GWWG	JXXJ	BZZB	ehrlich	retten	treu	spielen	schön	fair	eitel	rächen	tot	strafen	schlecht	faul	53pct	acq_USunple_CSunple2_noRW	acq23456_noRW	2	66	0	0	300	300	766	46	0	1	1	blank2r.bmp	0	1	+	0	1	blank2r.bmp	252	1	GWWG	306	2	schlecht	559	0	0	0	0	0	0	0	0	0	0	0	0	0	0	0	0	0	0	0	0	0	0	0	0	0	0	0	0	0	0	0	0	0	0	0	0	0	0	0
072219	14:36:05	14:42:01	354921	5.0.10.0	5_exp_noRW	74	Rpleas_acq	CS_B	MQQM	YDDY	VKKV	GWWG	JXXJ	BZZB	ehrlich	retten	treu	spielen	schön	fair	eitel	rächen	tot	strafen	schlecht	faul	53pct	acq_USpleas_CSpleas1_noRW	acq23456_noRW	2	67	0	0	300	300	814	50	0	1	1	blank2r.bmp	0	1	+	0	1	blank2r.bmp	252	1	MQQM	306	1	ehrlich	559	0	0	0	0	0	0	0	0	0	0	0	0	0	0	0	0	0	0	0	0	0	0	0	0	0	0	0	0	0	0	0	0	0	0	0	0	0	0	0
072219	14:36:05	14:42:02	356827	5.0.10.0	5_exp_noRW	74	Rpleas_acq	CS_B	MQQM	YDDY	VKKV	GWWG	JXXJ	BZZB	ehrlich	retten	treu	spielen	schön	fair	eitel	rächen	tot	strafen	schlecht	faul	53pct	acq_USunple_CSpleas2_noRW	acq23456_noRW	2	68	0	0	300	300	742	46	0	1	1	blank2r.bmp	0	1	+	0	1	blank2r.bmp	252	1	YDDY	306	3	faul	559	0	0	0	0	0	0	0	0	0	0	0	0	0	0	0	0	0	0	0	0	0	0	0	0	0	0	0	0	0	0	0	0	0	0	0	0	0	0	0
072219	14:36:05	14:42:05	358893	5.0.10.0	5_exp_noRW	74	Rpleas_acq	CS_B	MQQM	YDDY	VKKV	GWWG	JXXJ	BZZB	ehrlich	retten	treu	spielen	schön	fair	eitel	rächen	tot	strafen	schlecht	faul	53pct	acq_USpleas_CSpleas1_noRW	acq23456_noRW	2	69	0	0	300	300	881	50	0	1	1	blank2r.bmp	0	1	+	0	1	blank2r.bmp	252	1	MQQM	306	2	retten	559	0	0	0	0	0	0	0	0	0	0	0	0	0	0	0	0	0	0	0	0	0	0	0	0	0	0	0	0	0	0	0	0	0	0	0	0	0	0	0
072219	14:36:05	14:42:07	360985	5.0.10.0	5_exp_noRW	74	Rpleas_acq	CS_B	MQQM	YDDY	VKKV	GWWG	JXXJ	BZZB	ehrlich	retten	treu	spielen	schön	fair	eitel	rächen	tot	strafen	schlecht	faul	47pct	acq_USpleas_CSpleas2_noRW	acq23456_noRW	2	70	0	0	300	300	923	50	0	1	1	blank2r.bmp	0	1	+	0	1	blank2r.bmp	252	1	YDDY	306	2	schön	559	0	0	0	0	0	0	0	0	0	0	0	0	0	0	0	0	0	0	0	0	0	0	0	0	0	0	0	0	0	0	0	0	0	0	0	0	0	0	0
072219	14:36:05	14:42:09	363397	5.0.10.0	5_exp_noRW	74	Rpleas_acq	CS_B	MQQM	YDDY	VKKV	GWWG	JXXJ	BZZB	ehrlich	retten	treu	spielen	schön	fair	eitel	rächen	tot	strafen	schlecht	faul	47pct	acq_USpleas_CSpleas1_noRW	acq23456_noRW	2	71	0	0	300	300	1246	50	0	1	1	blank2r.bmp	0	1	+	0	1	blank2r.bmp	252	1	MQQM	306	3	treu	559	0	0	0	0	0	0	0	0	0	0	0	0	0	0	0	0	0	0	0	0	0	0	0	0	0	0	0	0	0	0	0	0	0	0	0	0	0	0	0
072219	14:36:05	14:42:11	365050	5.0.10.0	5_exp_noRW	74	Rpleas_acq	CS_B	MQQM	YDDY	VKKV	GWWG	JXXJ	BZZB	ehrlich	retten	treu	spielen	schön	fair	eitel	rächen	tot	strafen	schlecht	faul	53pct	acq_USunple_CSunple2_noRW	acq23456_noRW	2	72	0	0	300	300	470	46	0	1	1	blank2r.bmp	0	1	+	0	1	blank2r.bmp	252	1	GWWG	306	3	faul	559	0	0	0	0	0	0	0	0	0	0	0	0	0	0	0	0	0	0	0	0	0	0	0	0	0	0	0	0	0	0	0	0	0	0	0	0	0	0	0
072219	14:36:05	14:42:13	366889	5.0.10.0	5_exp_noRW	74	Rpleas_acq	CS_B	MQQM	YDDY	VKKV	GWWG	JXXJ	BZZB	ehrlich	retten	treu	spielen	schön	fair	eitel	rächen	tot	strafen	schlecht	faul	53pct	acq_USunple_CSunple2_noRW	acq23456_noRW	2	73	0	0	300	300	445	50	0	0	1	blank2r.bmp	0	1	+	0	1	blank2r.bmp	252	1	GWWG	306	2	schlecht	559	1	FEHLER	1039	0	0	0	0	0	0	0	0	0	0	0	0	0	0	0	0	0	0	0	0	0	0	0	0	0	0	0	0	0	0	0	0	0	0	0	0
072219	14:36:05	14:42:14	368502	5.0.10.0	5_exp_noRW	74	Rpleas_acq	CS_B	MQQM	YDDY	VKKV	GWWG	JXXJ	BZZB	ehrlich	retten	treu	spielen	schön	fair	eitel	rächen	tot	strafen	schlecht	faul	47pct	acq_USpleas_CSunple1_noRW	acq23456_noRW	2	74	0	0	300	300	664	50	0	1	1	blank2r.bmp	0	1	+	0	1	blank2r.bmp	252	1	VKKV	306	2	retten	559	0	0	0	0	0	0	0	0	0	0	0	0	0	0	0	0	0	0	0	0	0	0	0	0	0	0	0	0	0	0	0	0	0	0	0	0	0	0	0
072219	14:36:05	14:42:16	370128	5.0.10.0	5_exp_noRW	74	Rpleas_acq	CS_B	MQQM	YDDY	VKKV	GWWG	JXXJ	BZZB	ehrlich	retten	treu	spielen	schön	fair	eitel	rächen	tot	strafen	schlecht	faul	47pct	acq_USunple_CSpleas1_noRW	acq23456_noRW	2	75	0	0	300	300	444	46	0	1	1	blank2r.bmp	0	1	+	0	1	blank2r.bmp	252	1	MQQM	306	2	rächen	559	0	0	0	0	0	0	0	0	0	0	0	0	0	0	0	0	0	0	0	0	0	0	0	0	0	0	0	0	0	0	0	0	0	0	0	0	0	0	0
072219	14:36:05	14:42:17	371727	5.0.10.0	5_exp_noRW	74	Rpleas_acq	CS_B	MQQM	YDDY	VKKV	GWWG	JXXJ	BZZB	ehrlich	retten	treu	spielen	schön	fair	eitel	rächen	tot	strafen	schlecht	faul	53pct	acq_USunple_CSunple1_noRW	acq23456_noRW	2	76	0	0	300	300	435	46	0	1	1	blank2r.bmp	0	1	+	0	1	blank2r.bmp	252	1	VKKV	306	1	eitel	559	0	0	0	0	0	0	0	0	0	0	0	0	0	0	0	0	0	0	0	0	0	0	0	0	0	0	0	0	0	0	0	0	0	0	0	0	0	0	0
072219	14:36:05	14:42:19	373233	5.0.10.0	5_exp_noRW	74	Rpleas_acq	CS_B	MQQM	YDDY	VKKV	GWWG	JXXJ	BZZB	ehrlich	retten	treu	spielen	schön	fair	eitel	rächen	tot	strafen	schlecht	faul	47pct	acq_USpleas_CSpleas2_noRW	acq23456_noRW	2	77	0	0	300	300	329	50	0	1	1	blank2r.bmp	0	1	+	0	1	blank2r.bmp	252	1	YDDY	306	1	spielen	559	0	0	0	0	0	0	0	0	0	0	0	0	0	0	0	0	0	0	0	0	0	0	0	0	0	0	0	0	0	0	0	0	0	0	0	0	0	0	0
072219	14:36:05	14:42:20	374819	5.0.10.0	5_exp_noRW	74	Rpleas_acq	CS_B	MQQM	YDDY	VKKV	GWWG	JXXJ	BZZB	ehrlich	retten	treu	spielen	schön	fair	eitel	rächen	tot	strafen	schlecht	faul	47pct	acq_USunple_CSunple1_noRW	acq23456_noRW	2	78	0	0	300	300	403	46	0	1	1	blank2r.bmp	0	1	+	0	1	blank2r.bmp	252	1	VKKV	306	2	rächen	559	0	0	0	0	0	0	0	0	0	0	0	0	0	0	0	0	0	0	0	0	0	0	0	0	0	0	0	0	0	0	0	0	0	0	0	0	0	0	0
072219	14:36:05	14:42:22	376499	5.0.10.0	5_exp_noRW	74	Rpleas_acq	CS_B	MQQM	YDDY	VKKV	GWWG	JXXJ	BZZB	ehrlich	retten	treu	spielen	schön	fair	eitel	rächen	tot	strafen	schlecht	faul	47pct	acq_USunple_CSunple1_noRW	acq23456_noRW	2	79	0	0	300	300	517	46	0	1	1	blank2r.bmp	0	1	+	0	1	blank2r.bmp	252	1	VKKV	306	3	tot	559	0	0	0	0	0	0	0	0	0	0	0	0	0	0	0	0	0	0	0	0	0	0	0	0	0	0	0	0	0	0	0	0	0	0	0	0	0	0	0
072219	14:36:05	14:42:24	378338	5.0.10.0	5_exp_noRW	74	Rpleas_acq	CS_B	MQQM	YDDY	VKKV	GWWG	JXXJ	BZZB	ehrlich	retten	treu	spielen	schön	fair	eitel	rächen	tot	strafen	schlecht	faul	47pct	acq_USpleas_CSpleas2_noRW	acq23456_noRW	2	80	0	0	300	300	659	50	0	1	1	blank2r.bmp	0	1	+	0	1	blank2r.bmp	252	1	YDDY	306	2	schön	559	0	0	0	0	0	0	0	0	0	0	0	0	0	0	0	0	0	0	0	0	0	0	0	0	0	0	0	0	0	0	0	0	0	0	0	0	0	0	0
072219	14:36:05	14:42:42	395877	5.0.10.0	5_exp_noRW	74	Rpleas_acq	CS_B	MQQM	YDDY	VKKV	GWWG	JXXJ	BZZB	ehrlich	retten	treu	spielen	schön	fair	eitel	rächen	tot	strafen	schlecht	faul	53pct	acq_USunple_CSunple2_noRW	acq23456_noRW	3	1	0	0	300	300	545	46	0	1	1	blank2r.bmp	0	1	+	0	1	blank2r.bmp	252	1	GWWG	306	1	strafen	559	0	0	0	0	0	0	0	0	0	0	0	0	0	0	0	0	0	0	0	0	0	0	0	0	0	0	0	0	0	0	0	0	0	0	0	0	0	0	0
072219	14:36:05	14:42:43	397437	5.0.10.0	5_exp_noRW	74	Rpleas_acq	CS_B	MQQM	YDDY	VKKV	GWWG	JXXJ	BZZB	ehrlich	retten	treu	spielen	schön	fair	eitel	rächen	tot	strafen	schlecht	faul	53pct	acq_USpleas_CSpleas1_noRW	acq23456_noRW	3	2	0	0	300	300	396	50	0	1	1	blank2r.bmp	0	1	+	0	1	blank2r.bmp	252	1	MQQM	306	1	ehrlich	559	0	0	0	0	0	0	0	0	0	0	0	0	0	0	0	0	0	0	0	0	0	0	0	0	0	0	0	0	0	0	0	0	0	0	0	0	0	0	0
072219	14:36:05	14:42:45	399169	5.0.10.0	5_exp_noRW	74	Rpleas_acq	CS_B	MQQM	YDDY	VKKV	GWWG	JXXJ	BZZB	ehrlich	retten	treu	spielen	schön	fair	eitel	rächen	tot	strafen	schlecht	faul	47pct	acq_USunple_CSunple1_noRW	acq23456_noRW	3	3	0	0	300	300	557	46	0	1	1	blank2r.bmp	0	1	+	0	1	blank2r.bmp	252	1	VKKV	306	1	eitel	559	0	0	0	0	0	0	0	0	0	0	0	0	0	0	0	0	0	0	0	0	0	0	0	0	0	0	0	0	0	0	0	0	0	0	0	0	0	0	0
072219	14:36:05	14:42:46	400782	5.0.10.0	5_exp_noRW	74	Rpleas_acq	CS_B	MQQM	YDDY	VKKV	GWWG	JXXJ	BZZB	ehrlich	retten	treu	spielen	schön	fair	eitel	rächen	tot	strafen	schlecht	faul	53pct	acq_USpleas_CSpleas2_noRW	acq23456_noRW	3	4	0	0	300	300	447	50	0	1	1	blank2r.bmp	0	1	+	0	1	blank2r.bmp	252	1	YDDY	306	3	fair	559	0	0	0	0	0	0	0	0	0	0	0	0	0	0	0	0	0	0	0	0	0	0	0	0	0	0	0	0	0	0	0	0	0	0	0	0	0	0	0
072219	14:36:05	14:42:48	402328	5.0.10.0	5_exp_noRW	74	Rpleas_acq	CS_B	MQQM	YDDY	VKKV	GWWG	JXXJ	BZZB	ehrlich	retten	treu	spielen	schön	fair	eitel	rächen	tot	strafen	schlecht	faul	53pct	acq_USpleas_CSpleas1_noRW	acq23456_noRW	3	5	0	0	300	300	364	50	0	1	1	blank2r.bmp	0	1	+	0	1	blank2r.bmp	252	1	MQQM	306	3	treu	559	0	0	0	0	0	0	0	0	0	0	0	0	0	0	0	0	0	0	0	0	0	0	0	0	0	0	0	0	0	0	0	0	0	0	0	0	0	0	0
072219	14:36:05	14:42:50	404007	5.0.10.0	5_exp_noRW	74	Rpleas_acq	CS_B	MQQM	YDDY	VKKV	GWWG	JXXJ	BZZB	ehrlich	retten	treu	spielen	schön	fair	eitel	rächen	tot	strafen	schlecht	faul	53pct	acq_USpleas_CSpleas1_noRW	acq23456_noRW	3	6	0	0	300	300	499	50	0	1	1	blank2r.bmp	0	1	+	0	1	blank2r.bmp	252	1	MQQM	306	2	retten	559	0	0	0	0	0	0	0	0	0	0	0	0	0	0	0	0	0	0	0	0	0	0	0	0	0	0	0	0	0	0	0	0	0	0	0	0	0	0	0
072219	14:36:05	14:42:51	405567	5.0.10.0	5_exp_noRW	74	Rpleas_acq	CS_B	MQQM	YDDY	VKKV	GWWG	JXXJ	BZZB	ehrlich	retten	treu	spielen	schön	fair	eitel	rächen	tot	strafen	schlecht	faul	47pct	acq_USunple_CSunple2_noRW	acq23456_noRW	3	7	0	0	300	300	390	46	0	1	1	blank2r.bmp	0	1	+	0	1	blank2r.bmp	252	1	GWWG	306	2	schlecht	559	0	0	0	0	0	0	0	0	0	0	0	0	0	0	0	0	0	0	0	0	0	0	0	0	0	0	0	0	0	0	0	0	0	0	0	0	0	0	0
072219	14:36:05	14:42:53	407193	5.0.10.0	5_exp_noRW	74	Rpleas_acq	CS_B	MQQM	YDDY	VKKV	GWWG	JXXJ	BZZB	ehrlich	retten	treu	spielen	schön	fair	eitel	rächen	tot	strafen	schlecht	faul	47pct	acq_USpleas_CSunple2_noRW	acq23456_noRW	3	8	0	0	300	300	452	50	0	1	1	blank2r.bmp	0	1	+	0	1	blank2r.bmp	252	1	GWWG	306	1	spielen	559	0	0	0	0	0	0	0	0	0	0	0	0	0	0	0	0	0	0	0	0	0	0	0	0	0	0	0	0	0	0	0	0	0	0	0	0	0	0	0
072219	14:36:05	14:42:55	408899	5.0.10.0	5_exp_noRW	74	Rpleas_acq	CS_B	MQQM	YDDY	VKKV	GWWG	JXXJ	BZZB	ehrlich	retten	treu	spielen	schön	fair	eitel	rächen	tot	strafen	schlecht	faul	47pct	acq_USunple_CSunple1_noRW	acq23456_noRW	3	9	0	0	300	300	541	46	0	1	1	blank2r.bmp	0	1	+	0	1	blank2r.bmp	252	1	VKKV	306	2	rächen	559	0	0	0	0	0	0	0	0	0	0	0	0	0	0	0	0	0	0	0	0	0	0	0	0	0	0	0	0	0	0	0	0	0	0	0	0	0	0	0
072219	14:36:05	14:42:56	410498	5.0.10.0	5_exp_noRW	74	Rpleas_acq	CS_B	MQQM	YDDY	VKKV	GWWG	JXXJ	BZZB	ehrlich	retten	treu	spielen	schön	fair	eitel	rächen	tot	strafen	schlecht	faul	47pct	acq_USpleas_CSunple1_noRW	acq23456_noRW	3	10	0	0	300	300	414	50	0	1	1	blank2r.bmp	0	1	+	0	1	blank2r.bmp	252	1	VKKV	306	1	ehrlich	559	0	0	0	0	0	0	0	0	0	0	0	0	0	0	0	0	0	0	0	0	0	0	0	0	0	0	0	0	0	0	0	0	0	0	0	0	0	0	0
072219	14:36:05	14:42:58	412164	5.0.10.0	5_exp_noRW	74	Rpleas_acq	CS_B	MQQM	YDDY	VKKV	GWWG	JXXJ	BZZB	ehrlich	retten	treu	spielen	schön	fair	eitel	rächen	tot	strafen	schlecht	faul	53pct	acq_USunple_CSunple1_noRW	acq23456_noRW	3	11	0	0	300	300	499	46	0	1	1	blank2r.bmp	0	1	+	0	1	blank2r.bmp	252	1	VKKV	306	1	eitel	559	0	0	0	0	0	0	0	0	0	0	0	0	0	0	0	0	0	0	0	0	0	0	0	0	0	0	0	0	0	0	0	0	0	0	0	0	0	0	0
072219	14:36:05	14:42:59	413790	5.0.10.0	5_exp_noRW	74	Rpleas_acq	CS_B	MQQM	YDDY	VKKV	GWWG	JXXJ	BZZB	ehrlich	retten	treu	spielen	schön	fair	eitel	rächen	tot	strafen	schlecht	faul	53pct	acq_USunple_CSunple2_noRW	acq23456_noRW	3	12	0	0	300	300	463	46	0	1	1	blank2r.bmp	0	1	+	0	1	blank2r.bmp	252	1	GWWG	306	1	strafen	559	0	0	0	0	0	0	0	0	0	0	0	0	0	0	0	0	0	0	0	0	0	0	0	0	0	0	0	0	0	0	0	0	0	0	0	0	0	0	0
072219	14:36:05	14:43:01	415496	5.0.10.0	5_exp_noRW	74	Rpleas_acq	CS_B	MQQM	YDDY	VKKV	GWWG	JXXJ	BZZB	ehrlich	retten	treu	spielen	schön	fair	eitel	rächen	tot	strafen	schlecht	faul	53pct	acq_USunple_CSpleas2_noRW	acq23456_noRW	3	13	0	0	300	300	523	46	0	1	1	blank2r.bmp	0	1	+	0	1	blank2r.bmp	252	1	YDDY	306	2	schlecht	559	0	0	0	0	0	0	0	0	0	0	0	0	0	0	0	0	0	0	0	0	0	0	0	0	0	0	0	0	0	0	0	0	0	0	0	0	0	0	0
072219	14:36:05	14:43:03	417135	5.0.10.0	5_exp_noRW	74	Rpleas_acq	CS_B	MQQM	YDDY	VKKV	GWWG	JXXJ	BZZB	ehrlich	retten	treu	spielen	schön	fair	eitel	rächen	tot	strafen	schlecht	faul	47pct	acq_USpleas_CSpleas2_noRW	acq23456_noRW	3	14	0	0	300	300	457	50	0	1	1	blank2r.bmp	0	1	+	0	1	blank2r.bmp	252	1	YDDY	306	1	spielen	559	0	0	0	0	0	0	0	0	0	0	0	0	0	0	0	0	0	0	0	0	0	0	0	0	0	0	0	0	0	0	0	0	0	0	0	0	0	0	0
072219	14:36:05	14:43:04	418681	5.0.10.0	5_exp_noRW	74	Rpleas_acq	CS_B	MQQM	YDDY	VKKV	GWWG	JXXJ	BZZB	ehrlich	retten	treu	spielen	schön	fair	eitel	rächen	tot	strafen	schlecht	faul	47pct	acq_USpleas_CSpleas2_noRW	acq23456_noRW	3	15	0	0	300	300	363	50	0	1	1	blank2r.bmp	0	1	+	0	1	blank2r.bmp	252	1	YDDY	306	3	fair	559	0	0	0	0	0	0	0	0	0	0	0	0	0	0	0	0	0	0	0	0	0	0	0	0	0	0	0	0	0	0	0	0	0	0	0	0	0	0	0
072219	14:36:05	14:43:06	420241	5.0.10.0	5_exp_noRW	74	Rpleas_acq	CS_B	MQQM	YDDY	VKKV	GWWG	JXXJ	BZZB	ehrlich	retten	treu	spielen	schön	fair	eitel	rächen	tot	strafen	schlecht	faul	53pct	acq_USunple_CSpleas1_noRW	acq23456_noRW	3	16	0	0	300	300	379	46	0	1	1	blank2r.bmp	0	1	+	0	1	blank2r.bmp	252	1	MQQM	306	3	tot	559	0	0	0	0	0	0	0	0	0	0	0	0	0	0	0	0	0	0	0	0	0	0	0	0	0	0	0	0	0	0	0	0	0	0	0	0	0	0	0
072219	14:36:05	14:43:07	421813	5.0.10.0	5_exp_noRW	74	Rpleas_acq	CS_B	MQQM	YDDY	VKKV	GWWG	JXXJ	BZZB	ehrlich	retten	treu	spielen	schön	fair	eitel	rächen	tot	strafen	schlecht	faul	53pct	acq_USunple_CSunple1_noRW	acq23456_noRW	3	17	0	0	300	300	393	46	0	1	1	blank2r.bmp	0	1	+	0	1	blank2r.bmp	252	1	VKKV	306	3	tot	559	0	0	0	0	0	0	0	0	0	0	0	0	0	0	0	0	0	0	0	0	0	0	0	0	0	0	0	0	0	0	0	0	0	0	0	0	0	0	0
072219	14:36:05	14:43:09	423426	5.0.10.0	5_exp_noRW	74	Rpleas_acq	CS_B	MQQM	YDDY	VKKV	GWWG	JXXJ	BZZB	ehrlich	retten	treu	spielen	schön	fair	eitel	rächen	tot	strafen	schlecht	faul	53pct	acq_USpleas_CSpleas1_noRW	acq23456_noRW	3	18	0	0	300	300	433	50	0	1	1	blank2r.bmp	0	1	+	0	1	blank2r.bmp	252	1	MQQM	306	1	ehrlich	559	0	0	0	0	0	0	0	0	0	0	0	0	0	0	0	0	0	0	0	0	0	0	0	0	0	0	0	0	0	0	0	0	0	0	0	0	0	0	0
072219	14:36:05	14:43:11	425079	5.0.10.0	5_exp_noRW	74	Rpleas_acq	CS_B	MQQM	YDDY	VKKV	GWWG	JXXJ	BZZB	ehrlich	retten	treu	spielen	schön	fair	eitel	rächen	tot	strafen	schlecht	faul	53pct	acq_USunple_CSunple2_noRW	acq23456_noRW	3	19	0	0	300	300	470	46	0	1	1	blank2r.bmp	0	1	+	0	1	blank2r.bmp	252	1	GWWG	306	3	faul	559	0	0	0	0	0	0	0	0	0	0	0	0	0	0	0	0	0	0	0	0	0	0	0	0	0	0	0	0	0	0	0	0	0	0	0	0	0	0	0
072219	14:36:05	14:43:12	426612	5.0.10.0	5_exp_noRW	74	Rpleas_acq	CS_B	MQQM	YDDY	VKKV	GWWG	JXXJ	BZZB	ehrlich	retten	treu	spielen	schön	fair	eitel	rächen	tot	strafen	schlecht	faul	47pct	acq_USpleas_CSpleas2_noRW	acq23456_noRW	3	20	0	0	300	300	349	50	0	1	1	blank2r.bmp	0	1	+	0	1	blank2r.bmp	252	1	YDDY	306	2	schön	559	0	0	0	0	0	0	0	0	0	0	0	0	0	0	0	0	0	0	0	0	0	0	0	0	0	0	0	0	0	0	0	0	0	0	0	0	0	0	0
072219	14:36:05	14:43:14	428264	5.0.10.0	5_exp_noRW	74	Rpleas_acq	CS_B	MQQM	YDDY	VKKV	GWWG	JXXJ	BZZB	ehrlich	retten	treu	spielen	schön	fair	eitel	rächen	tot	strafen	schlecht	faul	53pct	acq_USpleas_CSpleas1_noRW	acq23456_noRW	3	21	0	0	300	300	481	50	0	1	1	blank2r.bmp	0	1	+	0	1	blank2r.bmp	252	1	MQQM	306	2	retten	559	0	0	0	0	0	0	0	0	0	0	0	0	0	0	0	0	0	0	0	0	0	0	0	0	0	0	0	0	0	0	0	0	0	0	0	0	0	0	0
072219	14:36:05	14:43:16	430437	5.0.10.0	5_exp_noRW	74	Rpleas_acq	CS_B	MQQM	YDDY	VKKV	GWWG	JXXJ	BZZB	ehrlich	retten	treu	spielen	schön	fair	eitel	rächen	tot	strafen	schlecht	faul	53pct	acq_USunple_CSunple1_noRW	acq23456_noRW	3	22	0	0	300	300	1006	46	0	1	1	blank2r.bmp	0	1	+	0	1	blank2r.bmp	252	1	VKKV	306	1	eitel	559	0	0	0	0	0	0	0	0	0	0	0	0	0	0	0	0	0	0	0	0	0	0	0	0	0	0	0	0	0	0	0	0	0	0	0	0	0	0	0
072219	14:36:05	14:43:18	432462	5.0.10.0	5_exp_noRW	74	Rpleas_acq	CS_B	MQQM	YDDY	VKKV	GWWG	JXXJ	BZZB	ehrlich	retten	treu	spielen	schön	fair	eitel	rächen	tot	strafen	schlecht	faul	53pct	acq_USunple_CSpleas2_noRW	acq23456_noRW	3	23	0	0	300	300	857	46	0	1	1	blank2r.bmp	0	1	+	0	1	blank2r.bmp	252	1	YDDY	306	1	strafen	559	0	0	0	0	0	0	0	0	0	0	0	0	0	0	0	0	0	0	0	0	0	0	0	0	0	0	0	0	0	0	0	0	0	0	0	0	0	0	0
072219	14:36:05	14:43:20	434235	5.0.10.0	5_exp_noRW	74	Rpleas_acq	CS_B	MQQM	YDDY	VKKV	GWWG	JXXJ	BZZB	ehrlich	retten	treu	spielen	schön	fair	eitel	rächen	tot	strafen	schlecht	faul	53pct	acq_USpleas_CSpleas1_noRW	acq23456_noRW	3	24	0	0	300	300	611	50	0	1	1	blank2r.bmp	0	1	+	0	1	blank2r.bmp	252	1	MQQM	306	3	treu	559	0	0	0	0	0	0	0	0	0	0	0	0	0	0	0	0	0	0	0	0	0	0	0	0	0	0	0	0	0	0	0	0	0	0	0	0	0	0	0
072219	14:36:05	14:43:22	435888	5.0.10.0	5_exp_noRW	74	Rpleas_acq	CS_B	MQQM	YDDY	VKKV	GWWG	JXXJ	BZZB	ehrlich	retten	treu	spielen	schön	fair	eitel	rächen	tot	strafen	schlecht	faul	47pct	acq_USpleas_CSpleas2_noRW	acq23456_noRW	3	25	0	0	300	300	477	50	0	1	1	blank2r.bmp	0	1	+	0	1	blank2r.bmp	252	1	YDDY	306	3	fair	559	0	0	0	0	0	0	0	0	0	0	0	0	0	0	0	0	0	0	0	0	0	0	0	0	0	0	0	0	0	0	0	0	0	0	0	0	0	0	0
072219	14:36:05	14:43:23	437607	5.0.10.0	5_exp_noRW	74	Rpleas_acq	CS_B	MQQM	YDDY	VKKV	GWWG	JXXJ	BZZB	ehrlich	retten	treu	spielen	schön	fair	eitel	rächen	tot	strafen	schlecht	faul	47pct	acq_USunple_CSunple1_noRW	acq23456_noRW	3	26	0	0	300	300	534	46	0	1	1	blank2r.bmp	0	1	+	0	1	blank2r.bmp	252	1	VKKV	306	3	tot	559	0	0	0	0	0	0	0	0	0	0	0	0	0	0	0	0	0	0	0	0	0	0	0	0	0	0	0	0	0	0	0	0	0	0	0	0	0	0	0
072219	14:36:05	14:43:25	439233	5.0.10.0	5_exp_noRW	74	Rpleas_acq	CS_B	MQQM	YDDY	VKKV	GWWG	JXXJ	BZZB	ehrlich	retten	treu	spielen	schön	fair	eitel	rächen	tot	strafen	schlecht	faul	47pct	acq_USpleas_CSunple1_noRW	acq23456_noRW	3	27	0	0	300	300	459	50	0	1	1	blank2r.bmp	0	1	+	0	1	blank2r.bmp	252	1	VKKV	306	1	ehrlich	559	0	0	0	0	0	0	0	0	0	0	0	0	0	0	0	0	0	0	0	0	0	0	0	0	0	0	0	0	0	0	0	0	0	0	0	0	0	0	0
072219	14:36:05	14:43:27	440899	5.0.10.0	5_exp_noRW	74	Rpleas_acq	CS_B	MQQM	YDDY	VKKV	GWWG	JXXJ	BZZB	ehrlich	retten	treu	spielen	schön	fair	eitel	rächen	tot	strafen	schlecht	faul	53pct	acq_USunple_CSunple2_noRW	acq23456_noRW	3	28	0	0	300	300	492	46	0	1	1	blank2r.bmp	0	1	+	0	1	blank2r.bmp	252	1	GWWG	306	3	faul	559	0	0	0	0	0	0	0	0	0	0	0	0	0	0	0	0	0	0	0	0	0	0	0	0	0	0	0	0	0	0	0	0	0	0	0	0	0	0	0
072219	14:36:05	14:43:28	442405	5.0.10.0	5_exp_noRW	74	Rpleas_acq	CS_B	MQQM	YDDY	VKKV	GWWG	JXXJ	BZZB	ehrlich	retten	treu	spielen	schön	fair	eitel	rächen	tot	strafen	schlecht	faul	47pct	acq_USpleas_CSpleas2_noRW	acq23456_noRW	3	29	0	0	300	300	343	50	0	1	1	blank2r.bmp	0	1	+	0	1	blank2r.bmp	252	1	YDDY	306	2	schön	559	0	0	0	0	0	0	0	0	0	0	0	0	0	0	0	0	0	0	0	0	0	0	0	0	0	0	0	0	0	0	0	0	0	0	0	0	0	0	0
072219	14:36:05	14:43:30	444058	5.0.10.0	5_exp_noRW	74	Rpleas_acq	CS_B	MQQM	YDDY	VKKV	GWWG	JXXJ	BZZB	ehrlich	retten	treu	spielen	schön	fair	eitel	rächen	tot	strafen	schlecht	faul	47pct	acq_USpleas_CSunple2_noRW	acq23456_noRW	3	30	0	0	300	300	473	50	0	1	1	blank2r.bmp	0	1	+	0	1	blank2r.bmp	252	1	GWWG	306	1	spielen	559	0	0	0	0	0	0	0	0	0	0	0	0	0	0	0	0	0	0	0	0	0	0	0	0	0	0	0	0	0	0	0	0	0	0	0	0	0	0	0
072219	14:36:05	14:43:31	445764	5.0.10.0	5_exp_noRW	74	Rpleas_acq	CS_B	MQQM	YDDY	VKKV	GWWG	JXXJ	BZZB	ehrlich	retten	treu	spielen	schön	fair	eitel	rächen	tot	strafen	schlecht	faul	53pct	acq_USunple_CSunple2_noRW	acq23456_noRW	3	31	0	0	300	300	521	46	0	1	1	blank2r.bmp	0	1	+	0	1	blank2r.bmp	252	1	GWWG	306	1	strafen	559	0	0	0	0	0	0	0	0	0	0	0	0	0	0	0	0	0	0	0	0	0	0	0	0	0	0	0	0	0	0	0	0	0	0	0	0	0	0	0
072219	14:36:05	14:43:33	447443	5.0.10.0	5_exp_noRW	74	Rpleas_acq	CS_B	MQQM	YDDY	VKKV	GWWG	JXXJ	BZZB	ehrlich	retten	treu	spielen	schön	fair	eitel	rächen	tot	strafen	schlecht	faul	47pct	acq_USunple_CSunple1_noRW	acq23456_noRW	3	32	0	0	300	300	501	46	0	1	1	blank2r.bmp	0	1	+	0	1	blank2r.bmp	252	1	VKKV	306	2	rächen	559	0	0	0	0	0	0	0	0	0	0	0	0	0	0	0	0	0	0	0	0	0	0	0	0	0	0	0	0	0	0	0	0	0	0	0	0	0	0	0
072219	14:36:05	14:43:35	449082	5.0.10.0	5_exp_noRW	74	Rpleas_acq	CS_B	MQQM	YDDY	VKKV	GWWG	JXXJ	BZZB	ehrlich	retten	treu	spielen	schön	fair	eitel	rächen	tot	strafen	schlecht	faul	47pct	acq_USpleas_CSpleas2_noRW	acq23456_noRW	3	33	0	0	300	300	455	50	0	1	1	blank2r.bmp	0	1	+	0	1	blank2r.bmp	252	1	YDDY	306	1	spielen	559	0	0	0	0	0	0	0	0	0	0	0	0	0	0	0	0	0	0	0	0	0	0	0	0	0	0	0	0	0	0	0	0	0	0	0	0	0	0	0
072219	14:36:05	14:43:36	450735	5.0.10.0	5_exp_noRW	74	Rpleas_acq	CS_B	MQQM	YDDY	VKKV	GWWG	JXXJ	BZZB	ehrlich	retten	treu	spielen	schön	fair	eitel	rächen	tot	strafen	schlecht	faul	47pct	acq_USunple_CSpleas1_noRW	acq23456_noRW	3	34	0	0	300	300	490	46	0	1	1	blank2r.bmp	0	1	+	0	1	blank2r.bmp	252	1	MQQM	306	3	tot	559	0	0	0	0	0	0	0	0	0	0	0	0	0	0	0	0	0	0	0	0	0	0	0	0	0	0	0	0	0	0	0	0	0	0	0	0	0	0	0
072219	14:36:05	14:43:38	452321	5.0.10.0	5_exp_noRW	74	Rpleas_acq	CS_B	MQQM	YDDY	VKKV	GWWG	JXXJ	BZZB	ehrlich	retten	treu	spielen	schön	fair	eitel	rächen	tot	strafen	schlecht	faul	47pct	acq_USpleas_CSpleas1_noRW	acq23456_noRW	3	35	0	0	300	300	401	50	0	1	1	blank2r.bmp	0	1	+	0	1	blank2r.bmp	252	1	MQQM	306	1	ehrlich	559	0	0	0	0	0	0	0	0	0	0	0	0	0	0	0	0	0	0	0	0	0	0	0	0	0	0	0	0	0	0	0	0	0	0	0	0	0	0	0
072219	14:36:05	14:43:40	453920	5.0.10.0	5_exp_noRW	74	Rpleas_acq	CS_B	MQQM	YDDY	VKKV	GWWG	JXXJ	BZZB	ehrlich	retten	treu	spielen	schön	fair	eitel	rächen	tot	strafen	schlecht	faul	53pct	acq_USunple_CSunple1_noRW	acq23456_noRW	3	36	0	0	300	300	433	46	0	1	1	blank2r.bmp	0	1	+	0	1	blank2r.bmp	252	1	VKKV	306	2	rächen	559	0	0	0	0	0	0	0	0	0	0	0	0	0	0	0	0	0	0	0	0	0	0	0	0	0	0	0	0	0	0	0	0	0	0	0	0	0	0	0
072219	14:36:05	14:43:41	455653	5.0.10.0	5_exp_noRW	74	Rpleas_acq	CS_B	MQQM	YDDY	VKKV	GWWG	JXXJ	BZZB	ehrlich	retten	treu	spielen	schön	fair	eitel	rächen	tot	strafen	schlecht	faul	53pct	acq_USunple_CSunple2_noRW	acq23456_noRW	3	37	0	0	300	300	548	46	0	1	1	blank2r.bmp	0	1	+	0	1	blank2r.bmp	252	1	GWWG	306	2	schlecht	559	0	0	0	0	0	0	0	0	0	0	0	0	0	0	0	0	0	0	0	0	0	0	0	0	0	0	0	0	0	0	0	0	0	0	0	0	0	0	0
072219	14:36:05	14:43:43	457266	5.0.10.0	5_exp_noRW	74	Rpleas_acq	CS_B	MQQM	YDDY	VKKV	GWWG	JXXJ	BZZB	ehrlich	retten	treu	spielen	schön	fair	eitel	rächen	tot	strafen	schlecht	faul	47pct	acq_USpleas_CSpleas2_noRW	acq23456_noRW	3	38	0	0	300	300	429	50	0	1	1	blank2r.bmp	0	1	+	0	1	blank2r.bmp	252	1	YDDY	306	3	fair	559	0	0	0	0	0	0	0	0	0	0	0	0	0	0	0	0	0	0	0	0	0	0	0	0	0	0	0	0	0	0	0	0	0	0	0	0	0	0	0
072219	14:36:05	14:43:44	458825	5.0.10.0	5_exp_noRW	74	Rpleas_acq	CS_B	MQQM	YDDY	VKKV	GWWG	JXXJ	BZZB	ehrlich	retten	treu	spielen	schön	fair	eitel	rächen	tot	strafen	schlecht	faul	47pct	acq_USunple_CSunple2_noRW	acq23456_noRW	3	39	0	0	300	300	395	46	0	1	1	blank2r.bmp	0	1	+	0	1	blank2r.bmp	252	1	GWWG	306	3	faul	559	0	0	0	0	0	0	0	0	0	0	0	0	0	0	0	0	0	0	0	0	0	0	0	0	0	0	0	0	0	0	0	0	0	0	0	0	0	0	0
072219	14:36:05	14:43:47	461304	5.0.10.0	5_exp_noRW	74	Rpleas_acq	CS_B	MQQM	YDDY	VKKV	GWWG	JXXJ	BZZB	ehrlich	retten	treu	spielen	schön	fair	eitel	rächen	tot	strafen	schlecht	faul	53pct	acq_USpleas_CSpleas1_noRW	acq23456_noRW	3	40	0	0	300	300	1100	46	0	0	1	blank2r.bmp	0	1	+	0	1	blank2r.bmp	252	1	MQQM	306	2	retten	559	1	FEHLER	1692	0	0	0	0	0	0	0	0	0	0	0	0	0	0	0	0	0	0	0	0	0	0	0	0	0	0	0	0	0	0	0	0	0	0	0	0
072219	14:36:05	14:43:48	462757	5.0.10.0	5_exp_noRW	74	Rpleas_acq	CS_B	MQQM	YDDY	VKKV	GWWG	JXXJ	BZZB	ehrlich	retten	treu	spielen	schön	fair	eitel	rächen	tot	strafen	schlecht	faul	47pct	acq_USunple_CSunple1_noRW	acq23456_noRW	3	41	0	0	300	300	483	46	0	1	1	blank2r.bmp	0	1	+	0	1	blank2r.bmp	252	1	VKKV	306	1	eitel	559	0	0	0	0	0	0	0	0	0	0	0	0	0	0	0	0	0	0	0	0	0	0	0	0	0	0	0	0	0	0	0	0	0	0	0	0	0	0	0
072219	14:36:05	14:43:50	464343	5.0.10.0	5_exp_noRW	74	Rpleas_acq	CS_B	MQQM	YDDY	VKKV	GWWG	JXXJ	BZZB	ehrlich	retten	treu	spielen	schön	fair	eitel	rächen	tot	strafen	schlecht	faul	47pct	acq_USunple_CSunple2_noRW	acq23456_noRW	3	42	0	0	300	300	415	46	0	1	1	blank2r.bmp	0	1	+	0	1	blank2r.bmp	252	1	GWWG	306	2	schlecht	559	0	0	0	0	0	0	0	0	0	0	0	0	0	0	0	0	0	0	0	0	0	0	0	0	0	0	0	0	0	0	0	0	0	0	0	0	0	0	0
072219	14:36:05	14:43:52	465915	5.0.10.0	5_exp_noRW	74	Rpleas_acq	CS_B	MQQM	YDDY	VKKV	GWWG	JXXJ	BZZB	ehrlich	retten	treu	spielen	schön	fair	eitel	rächen	tot	strafen	schlecht	faul	47pct	acq_USunple_CSunple1_noRW	acq23456_noRW	3	43	0	0	300	300	397	46	0	1	1	blank2r.bmp	0	1	+	0	1	blank2r.bmp	252	1	VKKV	306	3	tot	559	0	0	0	0	0	0	0	0	0	0	0	0	0	0	0	0	0	0	0	0	0	0	0	0	0	0	0	0	0	0	0	0	0	0	0	0	0	0	0
072219	14:36:05	14:43:53	467475	5.0.10.0	5_exp_noRW	74	Rpleas_acq	CS_B	MQQM	YDDY	VKKV	GWWG	JXXJ	BZZB	ehrlich	retten	treu	spielen	schön	fair	eitel	rächen	tot	strafen	schlecht	faul	47pct	acq_USunple_CSunple1_noRW	acq23456_noRW	3	44	0	0	300	300	373	46	0	1	1	blank2r.bmp	0	1	+	0	1	blank2r.bmp	252	1	VKKV	306	3	tot	559	0	0	0	0	0	0	0	0	0	0	0	0	0	0	0	0	0	0	0	0	0	0	0	0	0	0	0	0	0	0	0	0	0	0	0	0	0	0	0
072219	14:36:05	14:43:55	469154	5.0.10.0	5_exp_noRW	74	Rpleas_acq	CS_B	MQQM	YDDY	VKKV	GWWG	JXXJ	BZZB	ehrlich	retten	treu	spielen	schön	fair	eitel	rächen	tot	strafen	schlecht	faul	53pct	acq_USunple_CSunple2_noRW	acq23456_noRW	3	45	0	0	300	300	304	50	0	0	1	blank2r.bmp	0	1	+	0	1	blank2r.bmp	252	1	GWWG	306	1	strafen	559	1	FEHLER	892	0	0	0	0	0	0	0	0	0	0	0	0	0	0	0	0	0	0	0	0	0	0	0	0	0	0	0	0	0	0	0	0	0	0	0	0
072219	14:36:05	14:43:56	470700	5.0.10.0	5_exp_noRW	74	Rpleas_acq	CS_B	MQQM	YDDY	VKKV	GWWG	JXXJ	BZZB	ehrlich	retten	treu	spielen	schön	fair	eitel	rächen	tot	strafen	schlecht	faul	47pct	acq_USunple_CSpleas2_noRW	acq23456_noRW	3	46	0	0	300	300	581	46	0	1	1	blank2r.bmp	0	1	+	0	1	blank2r.bmp	252	1	YDDY	306	2	schlecht	559	0	0	0	0	0	0	0	0	0	0	0	0	0	0	0	0	0	0	0	0	0	0	0	0	0	0	0	0	0	0	0	0	0	0	0	0	0	0	0
072219	14:36:05	14:43:58	472340	5.0.10.0	5_exp_noRW	74	Rpleas_acq	CS_B	MQQM	YDDY	VKKV	GWWG	JXXJ	BZZB	ehrlich	retten	treu	spielen	schön	fair	eitel	rächen	tot	strafen	schlecht	faul	53pct	acq_USpleas_CSpleas1_noRW	acq23456_noRW	3	47	0	0	300	300	462	50	0	1	1	blank2r.bmp	0	1	+	0	1	blank2r.bmp	252	1	MQQM	306	1	ehrlich	559	0	0	0	0	0	0	0	0	0	0	0	0	0	0	0	0	0	0	0	0	0	0	0	0	0	0	0	0	0	0	0	0	0	0	0	0	0	0	0
072219	14:36:05	14:44:00	474045	5.0.10.0	5_exp_noRW	74	Rpleas_acq	CS_B	MQQM	YDDY	VKKV	GWWG	JXXJ	BZZB	ehrlich	retten	treu	spielen	schön	fair	eitel	rächen	tot	strafen	schlecht	faul	53pct	acq_USpleas_CSpleas2_noRW	acq23456_noRW	3	48	0	0	300	300	527	50	0	1	1	blank2r.bmp	0	1	+	0	1	blank2r.bmp	252	1	YDDY	306	1	spielen	559	0	0	0	0	0	0	0	0	0	0	0	0	0	0	0	0	0	0	0	0	0	0	0	0	0	0	0	0	0	0	0	0	0	0	0	0	0	0	0
072219	14:36:05	14:44:01	475765	5.0.10.0	5_exp_noRW	74	Rpleas_acq	CS_B	MQQM	YDDY	VKKV	GWWG	JXXJ	BZZB	ehrlich	retten	treu	spielen	schön	fair	eitel	rächen	tot	strafen	schlecht	faul	47pct	acq_USunple_CSunple1_noRW	acq23456_noRW	3	49	0	0	300	300	543	46	0	1	1	blank2r.bmp	0	1	+	0	1	blank2r.bmp	252	1	VKKV	306	2	rächen	559	0	0	0	0	0	0	0	0	0	0	0	0	0	0	0	0	0	0	0	0	0	0	0	0	0	0	0	0	0	0	0	0	0	0	0	0	0	0	0
072219	14:36:05	14:44:03	477484	5.0.10.0	5_exp_noRW	74	Rpleas_acq	CS_B	MQQM	YDDY	VKKV	GWWG	JXXJ	BZZB	ehrlich	retten	treu	spielen	schön	fair	eitel	rächen	tot	strafen	schlecht	faul	53pct	acq_USpleas_CSpleas1_noRW	acq23456_noRW	3	50	0	0	300	300	545	50	0	1	1	blank2r.bmp	0	1	+	0	1	blank2r.bmp	252	1	MQQM	306	3	treu	559	0	0	0	0	0	0	0	0	0	0	0	0	0	0	0	0	0	0	0	0	0	0	0	0	0	0	0	0	0	0	0	0	0	0	0	0	0	0	0
072219	14:36:05	14:44:05	479203	5.0.10.0	5_exp_noRW	74	Rpleas_acq	CS_B	MQQM	YDDY	VKKV	GWWG	JXXJ	BZZB	ehrlich	retten	treu	spielen	schön	fair	eitel	rächen	tot	strafen	schlecht	faul	47pct	acq_USunple_CSpleas1_noRW	acq23456_noRW	3	51	0	0	300	300	549	46	0	1	1	blank2r.bmp	0	1	+	0	1	blank2r.bmp	252	1	MQQM	306	1	eitel	559	0	0	0	0	0	0	0	0	0	0	0	0	0	0	0	0	0	0	0	0	0	0	0	0	0	0	0	0	0	0	0	0	0	0	0	0	0	0	0
072219	14:36:05	14:44:07	480896	5.0.10.0	5_exp_noRW	74	Rpleas_acq	CS_B	MQQM	YDDY	VKKV	GWWG	JXXJ	BZZB	ehrlich	retten	treu	spielen	schön	fair	eitel	rächen	tot	strafen	schlecht	faul	53pct	acq_USpleas_CSunple1_noRW	acq23456_noRW	3	52	0	0	300	300	520	50	0	1	1	blank2r.bmp	0	1	+	0	1	blank2r.bmp	252	1	VKKV	306	3	treu	559	0	0	0	0	0	0	0	0	0	0	0	0	0	0	0	0	0	0	0	0	0	0	0	0	0	0	0	0	0	0	0	0	0	0	0	0	0	0	0
072219	14:36:05	14:44:08	482562	5.0.10.0	5_exp_noRW	74	Rpleas_acq	CS_B	MQQM	YDDY	VKKV	GWWG	JXXJ	BZZB	ehrlich	retten	treu	spielen	schön	fair	eitel	rächen	tot	strafen	schlecht	faul	53pct	acq_USunple_CSunple2_noRW	acq23456_noRW	3	53	0	0	300	300	485	46	0	1	1	blank2r.bmp	0	1	+	0	1	blank2r.bmp	252	1	GWWG	306	2	schlecht	559	0	0	0	0	0	0	0	0	0	0	0	0	0	0	0	0	0	0	0	0	0	0	0	0	0	0	0	0	0	0	0	0	0	0	0	0	0	0	0
072219	14:36:05	14:44:10	484148	5.0.10.0	5_exp_noRW	74	Rpleas_acq	CS_B	MQQM	YDDY	VKKV	GWWG	JXXJ	BZZB	ehrlich	retten	treu	spielen	schön	fair	eitel	rächen	tot	strafen	schlecht	faul	47pct	acq_USpleas_CSpleas2_noRW	acq23456_noRW	3	54	0	0	300	300	408	50	0	1	1	blank2r.bmp	0	1	+	0	1	blank2r.bmp	252	1	YDDY	306	2	schön	559	0	0	0	0	0	0	0	0	0	0	0	0	0	0	0	0	0	0	0	0	0	0	0	0	0	0	0	0	0	0	0	0	0	0	0	0	0	0	0
072219	14:36:05	14:44:11	485721	5.0.10.0	5_exp_noRW	74	Rpleas_acq	CS_B	MQQM	YDDY	VKKV	GWWG	JXXJ	BZZB	ehrlich	retten	treu	spielen	schön	fair	eitel	rächen	tot	strafen	schlecht	faul	53pct	acq_USpleas_CSunple2_noRW	acq23456_noRW	3	55	0	0	300	300	388	50	0	1	1	blank2r.bmp	0	1	+	0	1	blank2r.bmp	252	1	GWWG	306	3	fair	559	0	0	0	0	0	0	0	0	0	0	0	0	0	0	0	0	0	0	0	0	0	0	0	0	0	0	0	0	0	0	0	0	0	0	0	0	0	0	0
072219	14:36:05	14:44:13	487240	5.0.10.0	5_exp_noRW	74	Rpleas_acq	CS_B	MQQM	YDDY	VKKV	GWWG	JXXJ	BZZB	ehrlich	retten	treu	spielen	schön	fair	eitel	rächen	tot	strafen	schlecht	faul	47pct	acq_USpleas_CSpleas2_noRW	acq23456_noRW	3	56	0	0	300	300	349	50	0	1	1	blank2r.bmp	0	1	+	0	1	blank2r.bmp	252	1	YDDY	306	2	schön	559	0	0	0	0	0	0	0	0	0	0	0	0	0	0	0	0	0	0	0	0	0	0	0	0	0	0	0	0	0	0	0	0	0	0	0	0	0	0	0
072219	14:36:05	14:44:15	488919	5.0.10.0	5_exp_noRW	74	Rpleas_acq	CS_B	MQQM	YDDY	VKKV	GWWG	JXXJ	BZZB	ehrlich	retten	treu	spielen	schön	fair	eitel	rächen	tot	strafen	schlecht	faul	47pct	acq_USunple_CSunple2_noRW	acq23456_noRW	3	57	0	0	300	300	495	46	0	1	1	blank2r.bmp	0	1	+	0	1	blank2r.bmp	252	1	GWWG	306	1	strafen	559	0	0	0	0	0	0	0	0	0	0	0	0	0	0	0	0	0	0	0	0	0	0	0	0	0	0	0	0	0	0	0	0	0	0	0	0	0	0	0
072219	14:36:05	14:44:16	490465	5.0.10.0	5_exp_noRW	74	Rpleas_acq	CS_B	MQQM	YDDY	VKKV	GWWG	JXXJ	BZZB	ehrlich	retten	treu	spielen	schön	fair	eitel	rächen	tot	strafen	schlecht	faul	53pct	acq_USpleas_CSpleas1_noRW	acq23456_noRW	3	58	0	0	300	300	378	50	0	1	1	blank2r.bmp	0	1	+	0	1	blank2r.bmp	252	1	MQQM	306	2	retten	559	0	0	0	0	0	0	0	0	0	0	0	0	0	0	0	0	0	0	0	0	0	0	0	0	0	0	0	0	0	0	0	0	0	0	0	0	0	0	0
072219	14:36:05	14:44:18	492185	5.0.10.0	5_exp_noRW	74	Rpleas_acq	CS_B	MQQM	YDDY	VKKV	GWWG	JXXJ	BZZB	ehrlich	retten	treu	spielen	schön	fair	eitel	rächen	tot	strafen	schlecht	faul	47pct	acq_USpleas_CSpleas2_noRW	acq23456_noRW	3	59	0	0	300	300	553	50	0	1	1	blank2r.bmp	0	1	+	0	1	blank2r.bmp	252	1	YDDY	306	3	fair	559	0	0	0	0	0	0	0	0	0	0	0	0	0	0	0	0	0	0	0	0	0	0	0	0	0	0	0	0	0	0	0	0	0	0	0	0	0	0	0
072219	14:36:05	14:44:20	493997	5.0.10.0	5_exp_noRW	74	Rpleas_acq	CS_B	MQQM	YDDY	VKKV	GWWG	JXXJ	BZZB	ehrlich	retten	treu	spielen	schön	fair	eitel	rächen	tot	strafen	schlecht	faul	47pct	acq_USpleas_CSpleas1_noRW	acq23456_noRW	3	60	0	0	300	300	629	50	0	1	1	blank2r.bmp	0	1	+	0	1	blank2r.bmp	252	1	MQQM	306	1	ehrlich	559	0	0	0	0	0	0	0	0	0	0	0	0	0	0	0	0	0	0	0	0	0	0	0	0	0	0	0	0	0	0	0	0	0	0	0	0	0	0	0
072219	14:36:05	14:44:21	495517	5.0.10.0	5_exp_noRW	74	Rpleas_acq	CS_B	MQQM	YDDY	VKKV	GWWG	JXXJ	BZZB	ehrlich	retten	treu	spielen	schön	fair	eitel	rächen	tot	strafen	schlecht	faul	47pct	acq_USpleas_CSpleas2_noRW	acq23456_noRW	3	61	0	0	300	300	340	50	0	1	1	blank2r.bmp	0	1	+	0	1	blank2r.bmp	252	1	YDDY	306	1	spielen	559	0	0	0	0	0	0	0	0	0	0	0	0	0	0	0	0	0	0	0	0	0	0	0	0	0	0	0	0	0	0	0	0	0	0	0	0	0	0	0
072219	14:36:05	14:44:23	497196	5.0.10.0	5_exp_noRW	74	Rpleas_acq	CS_B	MQQM	YDDY	VKKV	GWWG	JXXJ	BZZB	ehrlich	retten	treu	spielen	schön	fair	eitel	rächen	tot	strafen	schlecht	faul	47pct	acq_USunple_CSunple2_noRW	acq23456_noRW	3	62	0	0	300	300	511	46	0	1	1	blank2r.bmp	0	1	+	0	1	blank2r.bmp	252	1	GWWG	306	3	faul	559	0	0	0	0	0	0	0	0	0	0	0	0	0	0	0	0	0	0	0	0	0	0	0	0	0	0	0	0	0	0	0	0	0	0	0	0	0	0	0
072219	14:36:05	14:44:25	499089	5.0.10.0	5_exp_noRW	74	Rpleas_acq	CS_B	MQQM	YDDY	VKKV	GWWG	JXXJ	BZZB	ehrlich	retten	treu	spielen	schön	fair	eitel	rächen	tot	strafen	schlecht	faul	47pct	acq_USunple_CSunple1_noRW	acq23456_noRW	3	63	0	0	300	300	707	46	0	1	1	blank2r.bmp	0	1	+	0	1	blank2r.bmp	252	1	VKKV	306	1	eitel	559	0	0	0	0	0	0	0	0	0	0	0	0	0	0	0	0	0	0	0	0	0	0	0	0	0	0	0	0	0	0	0	0	0	0	0	0	0	0	0
072219	14:36:05	14:44:26	500808	5.0.10.0	5_exp_noRW	74	Rpleas_acq	CS_B	MQQM	YDDY	VKKV	GWWG	JXXJ	BZZB	ehrlich	retten	treu	spielen	schön	fair	eitel	rächen	tot	strafen	schlecht	faul	53pct	acq_USpleas_CSpleas1_noRW	acq23456_noRW	3	64	0	0	300	300	557	50	0	1	1	blank2r.bmp	0	1	+	0	1	blank2r.bmp	252	1	MQQM	306	3	treu	559	0	0	0	0	0	0	0	0	0	0	0	0	0	0	0	0	0	0	0	0	0	0	0	0	0	0	0	0	0	0	0	0	0	0	0	0	0	0	0
072219	14:36:05	14:44:28	502394	5.0.10.0	5_exp_noRW	74	Rpleas_acq	CS_B	MQQM	YDDY	VKKV	GWWG	JXXJ	BZZB	ehrlich	retten	treu	spielen	schön	fair	eitel	rächen	tot	strafen	schlecht	faul	47pct	acq_USpleas_CSunple2_noRW	acq23456_noRW	3	65	0	0	300	300	401	50	0	1	1	blank2r.bmp	0	1	+	0	1	blank2r.bmp	252	1	GWWG	306	2	schön	559	0	0	0	0	0	0	0	0	0	0	0	0	0	0	0	0	0	0	0	0	0	0	0	0	0	0	0	0	0	0	0	0	0	0	0	0	0	0	0
072219	14:36:05	14:44:30	504047	5.0.10.0	5_exp_noRW	74	Rpleas_acq	CS_B	MQQM	YDDY	VKKV	GWWG	JXXJ	BZZB	ehrlich	retten	treu	spielen	schön	fair	eitel	rächen	tot	strafen	schlecht	faul	47pct	acq_USunple_CSunple2_noRW	acq23456_noRW	3	66	0	0	300	300	481	46	0	1	1	blank2r.bmp	0	1	+	0	1	blank2r.bmp	252	1	GWWG	306	3	faul	559	0	0	0	0	0	0	0	0	0	0	0	0	0	0	0	0	0	0	0	0	0	0	0	0	0	0	0	0	0	0	0	0	0	0	0	0	0	0	0
072219	14:36:05	14:44:31	505686	5.0.10.0	5_exp_noRW	74	Rpleas_acq	CS_B	MQQM	YDDY	VKKV	GWWG	JXXJ	BZZB	ehrlich	retten	treu	spielen	schön	fair	eitel	rächen	tot	strafen	schlecht	faul	47pct	acq_USpleas_CSpleas1_noRW	acq23456_noRW	3	67	0	0	300	300	463	50	0	1	1	blank2r.bmp	0	1	+	0	1	blank2r.bmp	252	1	MQQM	306	3	treu	559	0	0	0	0	0	0	0	0	0	0	0	0	0	0	0	0	0	0	0	0	0	0	0	0	0	0	0	0	0	0	0	0	0	0	0	0	0	0	0
072219	14:36:05	14:44:33	507339	5.0.10.0	5_exp_noRW	74	Rpleas_acq	CS_B	MQQM	YDDY	VKKV	GWWG	JXXJ	BZZB	ehrlich	retten	treu	spielen	schön	fair	eitel	rächen	tot	strafen	schlecht	faul	53pct	acq_USunple_CSunple1_noRW	acq23456_noRW	3	68	0	0	300	300	488	46	0	1	1	blank2r.bmp	0	1	+	0	1	blank2r.bmp	252	1	VKKV	306	3	tot	559	0	0	0	0	0	0	0	0	0	0	0	0	0	0	0	0	0	0	0	0	0	0	0	0	0	0	0	0	0	0	0	0	0	0	0	0	0	0	0
072219	14:36:05	14:44:35	508898	5.0.10.0	5_exp_noRW	74	Rpleas_acq	CS_B	MQQM	YDDY	VKKV	GWWG	JXXJ	BZZB	ehrlich	retten	treu	spielen	schön	fair	eitel	rächen	tot	strafen	schlecht	faul	47pct	acq_USpleas_CSpleas2_noRW	acq23456_noRW	3	69	0	0	300	300	396	50	0	1	1	blank2r.bmp	0	1	+	0	1	blank2r.bmp	252	1	YDDY	306	2	schön	559	0	0	0	0	0	0	0	0	0	0	0	0	0	0	0	0	0	0	0	0	0	0	0	0	0	0	0	0	0	0	0	0	0	0	0	0	0	0	0
072219	14:36:05	14:44:36	510604	5.0.10.0	5_exp_noRW	74	Rpleas_acq	CS_B	MQQM	YDDY	VKKV	GWWG	JXXJ	BZZB	ehrlich	retten	treu	spielen	schön	fair	eitel	rächen	tot	strafen	schlecht	faul	47pct	acq_USunple_CSunple2_noRW	acq23456_noRW	3	70	0	0	300	300	528	46	0	1	1	blank2r.bmp	0	1	+	0	1	blank2r.bmp	252	1	GWWG	306	2	schlecht	559	0	0	0	0	0	0	0	0	0	0	0	0	0	0	0	0	0	0	0	0	0	0	0	0	0	0	0	0	0	0	0	0	0	0	0	0	0	0	0
072219	14:36:05	14:44:38	512790	5.0.10.0	5_exp_noRW	74	Rpleas_acq	CS_B	MQQM	YDDY	VKKV	GWWG	JXXJ	BZZB	ehrlich	retten	treu	spielen	schön	fair	eitel	rächen	tot	strafen	schlecht	faul	47pct	acq_USunple_CSunple1_noRW	acq23456_noRW	3	71	0	0	300	300	798	50	0	0	1	blank2r.bmp	0	1	+	0	1	blank2r.bmp	252	1	VKKV	306	1	eitel	559	1	FEHLER	1386	0	0	0	0	0	0	0	0	0	0	0	0	0	0	0	0	0	0	0	0	0	0	0	0	0	0	0	0	0	0	0	0	0	0	0	0
072219	14:36:05	14:44:40	514296	5.0.10.0	5_exp_noRW	74	Rpleas_acq	CS_B	MQQM	YDDY	VKKV	GWWG	JXXJ	BZZB	ehrlich	retten	treu	spielen	schön	fair	eitel	rächen	tot	strafen	schlecht	faul	53pct	acq_USpleas_CSunple1_noRW	acq23456_noRW	3	72	0	0	300	300	545	50	0	1	1	blank2r.bmp	0	1	+	0	1	blank2r.bmp	252	1	VKKV	306	2	retten	559	0	0	0	0	0	0	0	0	0	0	0	0	0	0	0	0	0	0	0	0	0	0	0	0	0	0	0	0	0	0	0	0	0	0	0	0	0	0	0
072219	14:36:05	14:44:42	516095	5.0.10.0	5_exp_noRW	74	Rpleas_acq	CS_B	MQQM	YDDY	VKKV	GWWG	JXXJ	BZZB	ehrlich	retten	treu	spielen	schön	fair	eitel	rächen	tot	strafen	schlecht	faul	53pct	acq_USunple_CSpleas1_noRW	acq23456_noRW	3	73	0	0	300	300	619	46	0	1	1	blank2r.bmp	0	1	+	0	1	blank2r.bmp	252	1	MQQM	306	2	rächen	559	0	0	0	0	0	0	0	0	0	0	0	0	0	0	0	0	0	0	0	0	0	0	0	0	0	0	0	0	0	0	0	0	0	0	0	0	0	0	0
072219	14:36:05	14:44:43	517828	5.0.10.0	5_exp_noRW	74	Rpleas_acq	CS_B	MQQM	YDDY	VKKV	GWWG	JXXJ	BZZB	ehrlich	retten	treu	spielen	schön	fair	eitel	rächen	tot	strafen	schlecht	faul	53pct	acq_USpleas_CSpleas1_noRW	acq23456_noRW	3	74	0	0	300	300	570	50	0	1	1	blank2r.bmp	0	1	+	0	1	blank2r.bmp	252	1	MQQM	306	2	retten	559	0	0	0	0	0	0	0	0	0	0	0	0	0	0	0	0	0	0	0	0	0	0	0	0	0	0	0	0	0	0	0	0	0	0	0	0	0	0	0
072219	14:36:05	14:44:45	519480	5.0.10.0	5_exp_noRW	74	Rpleas_acq	CS_B	MQQM	YDDY	VKKV	GWWG	JXXJ	BZZB	ehrlich	retten	treu	spielen	schön	fair	eitel	rächen	tot	strafen	schlecht	faul	53pct	acq_USpleas_CSpleas2_noRW	acq23456_noRW	3	75	0	0	300	300	473	50	0	1	1	blank2r.bmp	0	1	+	0	1	blank2r.bmp	252	1	YDDY	306	3	fair	559	0	0	0	0	0	0	0	0	0	0	0	0	0	0	0	0	0	0	0	0	0	0	0	0	0	0	0	0	0	0	0	0	0	0	0	0	0	0	0
072219	14:36:05	14:44:47	521133	5.0.10.0	5_exp_noRW	74	Rpleas_acq	CS_B	MQQM	YDDY	VKKV	GWWG	JXXJ	BZZB	ehrlich	retten	treu	spielen	schön	fair	eitel	rächen	tot	strafen	schlecht	faul	47pct	acq_USunple_CSunple2_noRW	acq23456_noRW	3	76	0	0	300	300	484	46	0	1	1	blank2r.bmp	0	1	+	0	1	blank2r.bmp	252	1	GWWG	306	1	strafen	559	0	0	0	0	0	0	0	0	0	0	0	0	0	0	0	0	0	0	0	0	0	0	0	0	0	0	0	0	0	0	0	0	0	0	0	0	0	0	0
072219	14:36:05	14:44:48	522759	5.0.10.0	5_exp_noRW	74	Rpleas_acq	CS_B	MQQM	YDDY	VKKV	GWWG	JXXJ	BZZB	ehrlich	retten	treu	spielen	schön	fair	eitel	rächen	tot	strafen	schlecht	faul	53pct	acq_USpleas_CSpleas2_noRW	acq23456_noRW	3	77	0	0	300	300	455	50	0	1	1	blank2r.bmp	0	1	+	0	1	blank2r.bmp	252	1	YDDY	306	1	spielen	559	0	0	0	0	0	0	0	0	0	0	0	0	0	0	0	0	0	0	0	0	0	0	0	0	0	0	0	0	0	0	0	0	0	0	0	0	0	0	0
072219	14:36:05	14:44:50	524545	5.0.10.0	5_exp_noRW	74	Rpleas_acq	CS_B	MQQM	YDDY	VKKV	GWWG	JXXJ	BZZB	ehrlich	retten	treu	spielen	schön	fair	eitel	rächen	tot	strafen	schlecht	faul	53pct	acq_USunple_CSpleas2_noRW	acq23456_noRW	3	78	0	0	300	300	617	46	0	1	1	blank2r.bmp	0	1	+	0	1	blank2r.bmp	252	1	YDDY	306	3	faul	559	0	0	0	0	0	0	0	0	0	0	0	0	0	0	0	0	0	0	0	0	0	0	0	0	0	0	0	0	0	0	0	0	0	0	0	0	0	0	0
072219	14:36:05	14:44:52	526664	5.0.10.0	5_exp_noRW	74	Rpleas_acq	CS_B	MQQM	YDDY	VKKV	GWWG	JXXJ	BZZB	ehrlich	retten	treu	spielen	schön	fair	eitel	rächen	tot	strafen	schlecht	faul	53pct	acq_USunple_CSunple1_noRW	acq23456_noRW	3	79	0	0	300	300	941	46	0	1	1	blank2r.bmp	0	1	+	0	1	blank2r.bmp	252	1	VKKV	306	2	rächen	559	0	0	0	0	0	0	0	0	0	0	0	0	0	0	0	0	0	0	0	0	0	0	0	0	0	0	0	0	0	0	0	0	0	0	0	0	0	0	0
072219	14:36:05	14:44:54	528197	5.0.10.0	5_exp_noRW	74	Rpleas_acq	CS_B	MQQM	YDDY	VKKV	GWWG	JXXJ	BZZB	ehrlich	retten	treu	spielen	schön	fair	eitel	rächen	tot	strafen	schlecht	faul	47pct	acq_USpleas_CSpleas1_noRW	acq23456_noRW	3	80	0	0	300	300	357	50	0	1	1	blank2r.bmp	0	1	+	0	1	blank2r.bmp	252	1	MQQM	306	1	ehrlich	559	0	0	0	0	0	0	0	0	0	0	0	0	0	0	0	0	0	0	0	0	0	0	0	0	0	0	0	0	0	0	0	0	0	0	0	0	0	0	0
072219	14:36:05	14:45:11	545643	5.0.10.0	5_exp_noRW	74	Rpleas_acq	CS_B	MQQM	YDDY	VKKV	GWWG	JXXJ	BZZB	ehrlich	retten	treu	spielen	schön	fair	eitel	rächen	tot	strafen	schlecht	faul	53pct	acq_USpleas_CSpleas1_noRW	acq23456_noRW	4	1	0	0	300	300	440	50	0	1	1	blank2r.bmp	0	1	+	0	1	blank2r.bmp	252	1	MQQM	306	1	ehrlich	559	0	0	0	0	0	0	0	0	0	0	0	0	0	0	0	0	0	0	0	0	0	0	0	0	0	0	0	0	0	0	0	0	0	0	0	0	0	0	0
072219	14:36:05	14:45:13	547376	5.0.10.0	5_exp_noRW	74	Rpleas_acq	CS_B	MQQM	YDDY	VKKV	GWWG	JXXJ	BZZB	ehrlich	retten	treu	spielen	schön	fair	eitel	rächen	tot	strafen	schlecht	faul	47pct	acq_USpleas_CSpleas2_noRW	acq23456_noRW	4	2	0	0	300	300	567	50	0	1	1	blank2r.bmp	0	1	+	0	1	blank2r.bmp	252	1	YDDY	306	3	fair	559	0	0	0	0	0	0	0	0	0	0	0	0	0	0	0	0	0	0	0	0	0	0	0	0	0	0	0	0	0	0	0	0	0	0	0	0	0	0	0
072219	14:36:05	14:45:15	549095	5.0.10.0	5_exp_noRW	74	Rpleas_acq	CS_B	MQQM	YDDY	VKKV	GWWG	JXXJ	BZZB	ehrlich	retten	treu	spielen	schön	fair	eitel	rächen	tot	strafen	schlecht	faul	53pct	acq_USunple_CSunple2_noRW	acq23456_noRW	4	3	0	0	300	300	538	46	0	1	1	blank2r.bmp	0	1	+	0	1	blank2r.bmp	252	1	GWWG	306	1	strafen	559	0	0	0	0	0	0	0	0	0	0	0	0	0	0	0	0	0	0	0	0	0	0	0	0	0	0	0	0	0	0	0	0	0	0	0	0	0	0	0
072219	14:36:05	14:45:17	551041	5.0.10.0	5_exp_noRW	74	Rpleas_acq	CS_B	MQQM	YDDY	VKKV	GWWG	JXXJ	BZZB	ehrlich	retten	treu	spielen	schön	fair	eitel	rächen	tot	strafen	schlecht	faul	53pct	acq_USpleas_CSpleas1_noRW	acq23456_noRW	4	4	0	0	300	300	769	50	0	1	1	blank2r.bmp	0	1	+	0	1	blank2r.bmp	252	1	MQQM	306	2	retten	559	0	0	0	0	0	0	0	0	0	0	0	0	0	0	0	0	0	0	0	0	0	0	0	0	0	0	0	0	0	0	0	0	0	0	0	0	0	0	0
072219	14:36:05	14:45:18	552760	5.0.10.0	5_exp_noRW	74	Rpleas_acq	CS_B	MQQM	YDDY	VKKV	GWWG	JXXJ	BZZB	ehrlich	retten	treu	spielen	schön	fair	eitel	rächen	tot	strafen	schlecht	faul	47pct	acq_USunple_CSunple2_noRW	acq23456_noRW	4	5	0	0	300	300	532	46	0	1	1	blank2r.bmp	0	1	+	0	1	blank2r.bmp	252	1	GWWG	306	3	faul	559	0	0	0	0	0	0	0	0	0	0	0	0	0	0	0	0	0	0	0	0	0	0	0	0	0	0	0	0	0	0	0	0	0	0	0	0	0	0	0
072219	14:36:05	14:45:20	554319	5.0.10.0	5_exp_noRW	74	Rpleas_acq	CS_B	MQQM	YDDY	VKKV	GWWG	JXXJ	BZZB	ehrlich	retten	treu	spielen	schön	fair	eitel	rächen	tot	strafen	schlecht	faul	47pct	acq_USpleas_CSunple2_noRW	acq23456_noRW	4	6	0	0	300	300	395	50	0	1	1	blank2r.bmp	0	1	+	0	1	blank2r.bmp	252	1	GWWG	306	1	spielen	559	0	0	0	0	0	0	0	0	0	0	0	0	0	0	0	0	0	0	0	0	0	0	0	0	0	0	0	0	0	0	0	0	0	0	0	0	0	0	0
072219	14:36:05	14:45:22	555999	5.0.10.0	5_exp_noRW	74	Rpleas_acq	CS_B	MQQM	YDDY	VKKV	GWWG	JXXJ	BZZB	ehrlich	retten	treu	spielen	schön	fair	eitel	rächen	tot	strafen	schlecht	faul	47pct	acq_USunple_CSunple1_noRW	acq23456_noRW	4	7	0	0	300	300	498	46	0	1	1	blank2r.bmp	0	1	+	0	1	blank2r.bmp	252	1	VKKV	306	1	eitel	559	0	0	0	0	0	0	0	0	0	0	0	0	0	0	0	0	0	0	0	0	0	0	0	0	0	0	0	0	0	0	0	0	0	0	0	0	0	0	0
072219	14:36:05	14:45:24	557865	5.0.10.0	5_exp_noRW	74	Rpleas_acq	CS_B	MQQM	YDDY	VKKV	GWWG	JXXJ	BZZB	ehrlich	retten	treu	spielen	schön	fair	eitel	rächen	tot	strafen	schlecht	faul	53pct	acq_USunple_CSpleas2_noRW	acq23456_noRW	4	8	0	0	300	300	696	46	0	1	1	blank2r.bmp	0	1	+	0	1	blank2r.bmp	252	1	YDDY	306	2	schlecht	559	0	0	0	0	0	0	0	0	0	0	0	0	0	0	0	0	0	0	0	0	0	0	0	0	0	0	0	0	0	0	0	0	0	0	0	0	0	0	0
072219	14:36:05	14:45:26	559970	5.0.10.0	5_exp_noRW	74	Rpleas_acq	CS_B	MQQM	YDDY	VKKV	GWWG	JXXJ	BZZB	ehrlich	retten	treu	spielen	schön	fair	eitel	rächen	tot	strafen	schlecht	faul	53pct	acq_USpleas_CSpleas2_noRW	acq23456_noRW	4	9	0	0	300	300	922	50	0	1	1	blank2r.bmp	0	1	+	0	1	blank2r.bmp	252	1	YDDY	306	1	spielen	559	0	0	0	0	0	0	0	0	0	0	0	0	0	0	0	0	0	0	0	0	0	0	0	0	0	0	0	0	0	0	0	0	0	0	0	0	0	0	0
