date	time	script.currenttime	script.elapsedtime	build	script.currentexpt	subject	expressions.LRpleas_acq	expressions.conditionCS_A	expressions.CSpleas_1	expressions.CSpleas_2	expressions.CSunple_1	expressions.CSunple_2	expressions.distractor_1	expressions.distractor_2	expressions.US_pleas1	expressions.US_pleas2	expressions.US_pleas3	expressions.US_pleas4	expressions.US_pleas5	expressions.US_pleas6	expressions.US_unple1	expressions.US_unple2	expressions.US_unple3	expressions.US_unple4	expressions.US_unple5	expressions.US_unple6	counter.positions_noRW	trialcode	blockcode	blocknum	trialnum	windowcenter	inwindow	pretrialpause	posttrialpause	latency	response	expressions.correctedscore	correct	stimulusnumber1	stimulusitem1	stimulusonset1	stimulusnumber2	stimulusitem2	stimulusonset2	stimulusnumber3	stimulusitem3	stimulusonset3	stimulusnumber4	stimulusitem4	stimulusonset4	stimulusnumber5	stimulusitem5	stimulusonset5	stimulusnumber6	stimulusitem6	stimulusonset6	stimulusnumber7	stimulusitem7	stimulusonset7	stimulusnumber8	stimulusitem8	stimulusonset8	stimulusnumber9	stimulusitem9	stimulusonset9	stimulusnumber10	stimulusitem10	stimulusonset10	stimulusnumber11	stimulusitem11	stimulusonset11	stimulusnumber12	stimulusitem12	stimulusonset12	stimulusnumber13	stimulusitem13	stimulusonset13	stimulusnumber14	stimulusitem14	stimulusonset14	stimulusnumber15	stimulusitem15	stimulusonset15	stimulusnumber16	stimulusitem16	stimulusonset16	stimulusnumber17	stimulusitem17	stimulusonset17	stimulusnumber18	stimulusitem18	stimulusonset18
071019	10:46:43	10:48:23	99145	5.0.10.0	5_exp_noRW	34	Rpleas_acq	CS_A	CPPC	ZHHZ	LWWL	JQQJ	YFFY	DXXD	gütig	genießen	küssen	vertrauen	sonnig	träumen	gierig	gemein	krank	versagen	sterben	töten	53pct	acq_USpleas_CSpleas2_noRW	acq1_noRW	1	1	0	0	300	300	1374	50	0	1	1	blank2r.bmp	0	1	+	0	1	blank2r.bmp	252	1	ZHHZ	306	1	vertrauen	559	0	0	0	0	0	0	0	0	0	0	0	0	0	0	0	0	0	0	0	0	0	0	0	0	0	0	0	0	0	0	0	0	0	0	0	0	0	0	0
071019	10:46:43	10:48:25	101184	5.0.10.0	5_exp_noRW	34	Rpleas_acq	CS_A	CPPC	ZHHZ	LWWL	JQQJ	YFFY	DXXD	gütig	genießen	küssen	vertrauen	sonnig	träumen	gierig	gemein	krank	versagen	sterben	töten	47pct	acq_USunple_CSunple1_noRW	acq1_noRW	1	2	0	0	300	300	853	46	0	1	1	blank2r.bmp	0	1	+	0	1	blank2r.bmp	252	1	LWWL	306	2	gemein	559	0	0	0	0	0	0	0	0	0	0	0	0	0	0	0	0	0	0	0	0	0	0	0	0	0	0	0	0	0	0	0	0	0	0	0	0	0	0	0
071019	10:46:43	10:48:27	103450	5.0.10.0	5_exp_noRW	34	Rpleas_acq	CS_A	CPPC	ZHHZ	LWWL	JQQJ	YFFY	DXXD	gütig	genießen	küssen	vertrauen	sonnig	träumen	gierig	gemein	krank	versagen	sterben	töten	47pct	acq_USunple_CSpleas2_noRW	acq1_noRW	1	3	0	0	300	300	1100	46	0	1	1	blank2r.bmp	0	1	+	0	1	blank2r.bmp	252	1	ZHHZ	306	3	töten	559	0	0	0	0	0	0	0	0	0	0	0	0	0	0	0	0	0	0	0	0	0	0	0	0	0	0	0	0	0	0	0	0	0	0	0	0	0	0	0
071019	10:46:43	10:48:29	105343	5.0.10.0	5_exp_noRW	34	Rpleas_acq	CS_A	CPPC	ZHHZ	LWWL	JQQJ	YFFY	DXXD	gütig	genießen	küssen	vertrauen	sonnig	träumen	gierig	gemein	krank	versagen	sterben	töten	47pct	acq_USunple_CSunple2_noRW	acq1_noRW	1	4	0	0	300	300	706	46	0	1	1	blank2r.bmp	0	1	+	0	1	blank2r.bmp	252	1	JQQJ	306	1	versagen	559	0	0	0	0	0	0	0	0	0	0	0	0	0	0	0	0	0	0	0	0	0	0	0	0	0	0	0	0	0	0	0	0	0	0	0	0	0	0	0
071019	10:46:43	10:48:31	107182	5.0.10.0	5_exp_noRW	34	Rpleas_acq	CS_A	CPPC	ZHHZ	LWWL	JQQJ	YFFY	DXXD	gütig	genießen	küssen	vertrauen	sonnig	träumen	gierig	gemein	krank	versagen	sterben	töten	47pct	acq_USpleas_CSpleas2_noRW	acq1_noRW	1	5	0	0	300	300	663	50	0	1	1	blank2r.bmp	0	1	+	0	1	blank2r.bmp	252	1	ZHHZ	306	3	träumen	559	0	0	0	0	0	0	0	0	0	0	0	0	0	0	0	0	0	0	0	0	0	0	0	0	0	0	0	0	0	0	0	0	0	0	0	0	0	0	0
071019	10:46:43	10:48:33	108901	5.0.10.0	5_exp_noRW	34	Rpleas_acq	CS_A	CPPC	ZHHZ	LWWL	JQQJ	YFFY	DXXD	gütig	genießen	küssen	vertrauen	sonnig	träumen	gierig	gemein	krank	versagen	sterben	töten	47pct	acq_USunple_CSunple1_noRW	acq1_noRW	1	6	0	0	300	300	540	46	0	1	1	blank2r.bmp	0	1	+	0	1	blank2r.bmp	252	1	LWWL	306	1	gierig	559	0	0	0	0	0	0	0	0	0	0	0	0	0	0	0	0	0	0	0	0	0	0	0	0	0	0	0	0	0	0	0	0	0	0	0	0	0	0	0
071019	10:46:43	10:48:34	110647	5.0.10.0	5_exp_noRW	34	Rpleas_acq	CS_A	CPPC	ZHHZ	LWWL	JQQJ	YFFY	DXXD	gütig	genießen	küssen	vertrauen	sonnig	träumen	gierig	gemein	krank	versagen	sterben	töten	47pct	acq_USpleas_CSpleas1_noRW	acq1_noRW	1	7	0	0	300	300	576	50	0	1	1	blank2r.bmp	0	1	+	0	1	blank2r.bmp	252	1	CPPC	306	2	genießen	559	0	0	0	0	0	0	0	0	0	0	0	0	0	0	0	0	0	0	0	0	0	0	0	0	0	0	0	0	0	0	0	0	0	0	0	0	0	0	0
071019	10:46:43	10:48:36	112580	5.0.10.0	5_exp_noRW	34	Rpleas_acq	CS_A	CPPC	ZHHZ	LWWL	JQQJ	YFFY	DXXD	gütig	genießen	küssen	vertrauen	sonnig	träumen	gierig	gemein	krank	versagen	sterben	töten	53pct	acq_USpleas_CSpleas2_noRW	acq1_noRW	1	8	0	0	300	300	759	50	0	1	1	blank2r.bmp	0	1	+	0	1	blank2r.bmp	252	1	ZHHZ	306	2	sonnig	559	0	0	0	0	0	0	0	0	0	0	0	0	0	0	0	0	0	0	0	0	0	0	0	0	0	0	0	0	0	0	0	0	0	0	0	0	0	0	0
071019	10:46:43	10:48:38	114339	5.0.10.0	5_exp_noRW	34	Rpleas_acq	CS_A	CPPC	ZHHZ	LWWL	JQQJ	YFFY	DXXD	gütig	genießen	küssen	vertrauen	sonnig	träumen	gierig	gemein	krank	versagen	sterben	töten	47pct	acq_USunple_CSunple2_noRW	acq1_noRW	1	9	0	0	300	300	584	46	0	1	1	blank2r.bmp	0	1	+	0	1	blank2r.bmp	252	1	JQQJ	306	2	sterben	559	0	0	0	0	0	0	0	0	0	0	0	0	0	0	0	0	0	0	0	0	0	0	0	0	0	0	0	0	0	0	0	0	0	0	0	0	0	0	0
071019	10:46:43	10:48:40	116018	5.0.10.0	5_exp_noRW	34	Rpleas_acq	CS_A	CPPC	ZHHZ	LWWL	JQQJ	YFFY	DXXD	gütig	genießen	küssen	vertrauen	sonnig	träumen	gierig	gemein	krank	versagen	sterben	töten	53pct	acq_USunple_CSunple2_noRW	acq1_noRW	1	10	0	0	300	300	494	46	0	1	1	blank2r.bmp	0	1	+	0	1	blank2r.bmp	252	1	JQQJ	306	3	töten	559	0	0	0	0	0	0	0	0	0	0	0	0	0	0	0	0	0	0	0	0	0	0	0	0	0	0	0	0	0	0	0	0	0	0	0	0	0	0	0
071019	10:46:43	10:48:41	117818	5.0.10.0	5_exp_noRW	34	Rpleas_acq	CS_A	CPPC	ZHHZ	LWWL	JQQJ	YFFY	DXXD	gütig	genießen	küssen	vertrauen	sonnig	träumen	gierig	gemein	krank	versagen	sterben	töten	53pct	acq_USunple_CSpleas1_noRW	acq1_noRW	1	11	0	0	300	300	627	46	0	1	1	blank2r.bmp	0	1	+	0	1	blank2r.bmp	252	1	CPPC	306	3	krank	559	0	0	0	0	0	0	0	0	0	0	0	0	0	0	0	0	0	0	0	0	0	0	0	0	0	0	0	0	0	0	0	0	0	0	0	0	0	0	0
071019	10:46:43	10:48:43	119564	5.0.10.0	5_exp_noRW	34	Rpleas_acq	CS_A	CPPC	ZHHZ	LWWL	JQQJ	YFFY	DXXD	gütig	genießen	küssen	vertrauen	sonnig	träumen	gierig	gemein	krank	versagen	sterben	töten	53pct	acq_USpleas_CSunple1_noRW	acq1_noRW	1	12	0	0	300	300	583	50	0	1	1	blank2r.bmp	0	1	+	0	1	blank2r.bmp	252	1	LWWL	306	1	gütig	559	0	0	0	0	0	0	0	0	0	0	0	0	0	0	0	0	0	0	0	0	0	0	0	0	0	0	0	0	0	0	0	0	0	0	0	0	0	0	0
071019	10:46:43	10:48:45	121576	5.0.10.0	5_exp_noRW	34	Rpleas_acq	CS_A	CPPC	ZHHZ	LWWL	JQQJ	YFFY	DXXD	gütig	genießen	küssen	vertrauen	sonnig	träumen	gierig	gemein	krank	versagen	sterben	töten	47pct	acq_USpleas_CSpleas2_noRW	acq1_noRW	1	13	0	0	300	300	831	50	0	1	1	blank2r.bmp	0	1	+	0	1	blank2r.bmp	252	1	ZHHZ	306	3	träumen	559	0	0	0	0	0	0	0	0	0	0	0	0	0	0	0	0	0	0	0	0	0	0	0	0	0	0	0	0	0	0	0	0	0	0	0	0	0	0	0
071019	10:46:43	10:48:47	123602	5.0.10.0	5_exp_noRW	34	Rpleas_acq	CS_A	CPPC	ZHHZ	LWWL	JQQJ	YFFY	DXXD	gütig	genießen	küssen	vertrauen	sonnig	träumen	gierig	gemein	krank	versagen	sterben	töten	53pct	acq_USunple_CSunple2_noRW	acq1_noRW	1	14	0	0	300	300	841	46	0	1	1	blank2r.bmp	0	1	+	0	1	blank2r.bmp	252	1	JQQJ	306	1	versagen	559	0	0	0	0	0	0	0	0	0	0	0	0	0	0	0	0	0	0	0	0	0	0	0	0	0	0	0	0	0	0	0	0	0	0	0	0	0	0	0
071019	10:46:43	10:48:49	125721	5.0.10.0	5_exp_noRW	34	Rpleas_acq	CS_A	CPPC	ZHHZ	LWWL	JQQJ	YFFY	DXXD	gütig	genießen	küssen	vertrauen	sonnig	träumen	gierig	gemein	krank	versagen	sterben	töten	47pct	acq_USunple_CSunple1_noRW	acq1_noRW	1	15	0	0	300	300	945	46	0	1	1	blank2r.bmp	0	1	+	0	1	blank2r.bmp	252	1	LWWL	306	3	krank	559	0	0	0	0	0	0	0	0	0	0	0	0	0	0	0	0	0	0	0	0	0	0	0	0	0	0	0	0	0	0	0	0	0	0	0	0	0	0	0
071019	10:46:43	10:48:51	127587	5.0.10.0	5_exp_noRW	34	Rpleas_acq	CS_A	CPPC	ZHHZ	LWWL	JQQJ	YFFY	DXXD	gütig	genießen	küssen	vertrauen	sonnig	träumen	gierig	gemein	krank	versagen	sterben	töten	53pct	acq_USpleas_CSpleas1_noRW	acq1_noRW	1	16	0	0	300	300	695	50	0	1	1	blank2r.bmp	0	1	+	0	1	blank2r.bmp	252	1	CPPC	306	3	küssen	559	0	0	0	0	0	0	0	0	0	0	0	0	0	0	0	0	0	0	0	0	0	0	0	0	0	0	0	0	0	0	0	0	0	0	0	0	0	0	0
071019	10:46:43	10:48:55	131279	5.0.10.0	5_exp_noRW	34	Rpleas_acq	CS_A	CPPC	ZHHZ	LWWL	JQQJ	YFFY	DXXD	gütig	genießen	küssen	vertrauen	sonnig	träumen	gierig	gemein	krank	versagen	sterben	töten	47pct	acq_USpleas_CSunple2_noRW	acq1_noRW	1	17	0	0	300	300	2000	0	0	0	1	blank2r.bmp	0	1	+	0	1	blank2r.bmp	252	1	JQQJ	306	2	sonnig	559	1	FEHLER	2598	1	Schneller!	2598	0	0	0	0	0	0	0	0	0	0	0	0	0	0	0	0	0	0	0	0	0	0	0	0	0	0	0	0	0	0	0	0	0
071019	10:46:43	10:48:56	132718	5.0.10.0	5_exp_noRW	34	Rpleas_acq	CS_A	CPPC	ZHHZ	LWWL	JQQJ	YFFY	DXXD	gütig	genießen	küssen	vertrauen	sonnig	träumen	gierig	gemein	krank	versagen	sterben	töten	47pct	acq_USpleas_CSpleas1_noRW	acq1_noRW	1	18	0	0	300	300	538	50	0	1	1	blank2r.bmp	0	1	+	0	1	blank2r.bmp	252	1	CPPC	306	1	gütig	559	0	0	0	0	0	0	0	0	0	0	0	0	0	0	0	0	0	0	0	0	0	0	0	0	0	0	0	0	0	0	0	0	0	0	0	0	0	0	0
071019	10:46:43	10:48:58	134478	5.0.10.0	5_exp_noRW	34	Rpleas_acq	CS_A	CPPC	ZHHZ	LWWL	JQQJ	YFFY	DXXD	gütig	genießen	küssen	vertrauen	sonnig	träumen	gierig	gemein	krank	versagen	sterben	töten	53pct	acq_USpleas_CSpleas1_noRW	acq1_noRW	1	19	0	0	300	300	581	50	0	1	1	blank2r.bmp	0	1	+	0	1	blank2r.bmp	252	1	CPPC	306	3	küssen	559	0	0	0	0	0	0	0	0	0	0	0	0	0	0	0	0	0	0	0	0	0	0	0	0	0	0	0	0	0	0	0	0	0	0	0	0	0	0	0
071019	10:46:43	10:49:00	136183	5.0.10.0	5_exp_noRW	34	Rpleas_acq	CS_A	CPPC	ZHHZ	LWWL	JQQJ	YFFY	DXXD	gütig	genießen	küssen	vertrauen	sonnig	träumen	gierig	gemein	krank	versagen	sterben	töten	47pct	acq_USunple_CSunple1_noRW	acq1_noRW	1	20	0	0	300	300	316	50	0	0	1	blank2r.bmp	0	1	+	0	1	blank2r.bmp	252	1	LWWL	306	2	gemein	559	1	FEHLER	906	0	0	0	0	0	0	0	0	0	0	0	0	0	0	0	0	0	0	0	0	0	0	0	0	0	0	0	0	0	0	0	0	0	0	0	0
071019	10:46:43	10:49:01	137636	5.0.10.0	5_exp_noRW	34	Rpleas_acq	CS_A	CPPC	ZHHZ	LWWL	JQQJ	YFFY	DXXD	gütig	genießen	küssen	vertrauen	sonnig	träumen	gierig	gemein	krank	versagen	sterben	töten	53pct	acq_USpleas_CSpleas1_noRW	acq1_noRW	1	21	0	0	300	300	482	50	0	1	1	blank2r.bmp	0	1	+	0	1	blank2r.bmp	252	1	CPPC	306	1	gütig	559	0	0	0	0	0	0	0	0	0	0	0	0	0	0	0	0	0	0	0	0	0	0	0	0	0	0	0	0	0	0	0	0	0	0	0	0	0	0	0
071019	10:46:43	10:49:03	139236	5.0.10.0	5_exp_noRW	34	Rpleas_acq	CS_A	CPPC	ZHHZ	LWWL	JQQJ	YFFY	DXXD	gütig	genießen	küssen	vertrauen	sonnig	träumen	gierig	gemein	krank	versagen	sterben	töten	47pct	acq_USunple_CSunple2_noRW	acq1_noRW	1	22	0	0	300	300	431	46	0	1	1	blank2r.bmp	0	1	+	0	1	blank2r.bmp	252	1	JQQJ	306	2	sterben	559	0	0	0	0	0	0	0	0	0	0	0	0	0	0	0	0	0	0	0	0	0	0	0	0	0	0	0	0	0	0	0	0	0	0	0	0	0	0	0
071019	10:46:43	10:49:05	140955	5.0.10.0	5_exp_noRW	34	Rpleas_acq	CS_A	CPPC	ZHHZ	LWWL	JQQJ	YFFY	DXXD	gütig	genießen	küssen	vertrauen	sonnig	träumen	gierig	gemein	krank	versagen	sterben	töten	53pct	acq_USunple_CSpleas2_noRW	acq1_noRW	1	23	0	0	300	300	541	46	0	1	1	blank2r.bmp	0	1	+	0	1	blank2r.bmp	252	1	ZHHZ	306	1	versagen	559	0	0	0	0	0	0	0	0	0	0	0	0	0	0	0	0	0	0	0	0	0	0	0	0	0	0	0	0	0	0	0	0	0	0	0	0	0	0	0
071019	10:46:43	10:49:06	142647	5.0.10.0	5_exp_noRW	34	Rpleas_acq	CS_A	CPPC	ZHHZ	LWWL	JQQJ	YFFY	DXXD	gütig	genießen	küssen	vertrauen	sonnig	träumen	gierig	gemein	krank	versagen	sterben	töten	53pct	acq_USpleas_CSpleas2_noRW	acq1_noRW	1	24	0	0	300	300	507	50	0	1	1	blank2r.bmp	0	1	+	0	1	blank2r.bmp	252	1	ZHHZ	306	2	sonnig	559	0	0	0	0	0	0	0	0	0	0	0	0	0	0	0	0	0	0	0	0	0	0	0	0	0	0	0	0	0	0	0	0	0	0	0	0	0	0	0
071019	10:46:43	10:49:08	144433	5.0.10.0	5_exp_noRW	34	Rpleas_acq	CS_A	CPPC	ZHHZ	LWWL	JQQJ	YFFY	DXXD	gütig	genießen	küssen	vertrauen	sonnig	träumen	gierig	gemein	krank	versagen	sterben	töten	53pct	acq_USpleas_CSpleas1_noRW	acq1_noRW	1	25	0	0	300	300	613	50	0	1	1	blank2r.bmp	0	1	+	0	1	blank2r.bmp	252	1	CPPC	306	2	genießen	559	0	0	0	0	0	0	0	0	0	0	0	0	0	0	0	0	0	0	0	0	0	0	0	0	0	0	0	0	0	0	0	0	0	0	0	0	0	0	0
071019	10:46:43	10:49:10	146233	5.0.10.0	5_exp_noRW	34	Rpleas_acq	CS_A	CPPC	ZHHZ	LWWL	JQQJ	YFFY	DXXD	gütig	genießen	küssen	vertrauen	sonnig	träumen	gierig	gemein	krank	versagen	sterben	töten	47pct	acq_USpleas_CSpleas2_noRW	acq1_noRW	1	26	0	0	300	300	623	50	0	1	1	blank2r.bmp	0	1	+	0	1	blank2r.bmp	252	1	ZHHZ	306	1	vertrauen	559	0	0	0	0	0	0	0	0	0	0	0	0	0	0	0	0	0	0	0	0	0	0	0	0	0	0	0	0	0	0	0	0	0	0	0	0	0	0	0
071019	10:46:43	10:49:11	147805	5.0.10.0	5_exp_noRW	34	Rpleas_acq	CS_A	CPPC	ZHHZ	LWWL	JQQJ	YFFY	DXXD	gütig	genießen	küssen	vertrauen	sonnig	träumen	gierig	gemein	krank	versagen	sterben	töten	47pct	acq_USpleas_CSpleas2_noRW	acq1_noRW	1	27	0	0	300	300	394	50	0	1	1	blank2r.bmp	0	1	+	0	1	blank2r.bmp	252	1	ZHHZ	306	1	vertrauen	559	0	0	0	0	0	0	0	0	0	0	0	0	0	0	0	0	0	0	0	0	0	0	0	0	0	0	0	0	0	0	0	0	0	0	0	0	0	0	0
071019	10:46:43	10:49:13	149525	5.0.10.0	5_exp_noRW	34	Rpleas_acq	CS_A	CPPC	ZHHZ	LWWL	JQQJ	YFFY	DXXD	gütig	genießen	küssen	vertrauen	sonnig	träumen	gierig	gemein	krank	versagen	sterben	töten	47pct	acq_USunple_CSunple2_noRW	acq1_noRW	1	28	0	0	300	300	544	46	0	1	1	blank2r.bmp	0	1	+	0	1	blank2r.bmp	252	1	JQQJ	306	3	töten	559	0	0	0	0	0	0	0	0	0	0	0	0	0	0	0	0	0	0	0	0	0	0	0	0	0	0	0	0	0	0	0	0	0	0	0	0	0	0	0
071019	10:46:43	10:49:15	151084	5.0.10.0	5_exp_noRW	34	Rpleas_acq	CS_A	CPPC	ZHHZ	LWWL	JQQJ	YFFY	DXXD	gütig	genießen	küssen	vertrauen	sonnig	träumen	gierig	gemein	krank	versagen	sterben	töten	47pct	acq_USpleas_CSunple1_noRW	acq1_noRW	1	29	0	0	300	300	383	50	0	1	1	blank2r.bmp	0	1	+	0	1	blank2r.bmp	252	1	LWWL	306	3	küssen	559	0	0	0	0	0	0	0	0	0	0	0	0	0	0	0	0	0	0	0	0	0	0	0	0	0	0	0	0	0	0	0	0	0	0	0	0	0	0	0
071019	10:46:43	10:49:16	152710	5.0.10.0	5_exp_noRW	34	Rpleas_acq	CS_A	CPPC	ZHHZ	LWWL	JQQJ	YFFY	DXXD	gütig	genießen	küssen	vertrauen	sonnig	träumen	gierig	gemein	krank	versagen	sterben	töten	53pct	acq_USpleas_CSpleas1_noRW	acq1_noRW	1	30	0	0	300	300	432	50	0	1	1	blank2r.bmp	0	1	+	0	1	blank2r.bmp	252	1	CPPC	306	3	küssen	559	0	0	0	0	0	0	0	0	0	0	0	0	0	0	0	0	0	0	0	0	0	0	0	0	0	0	0	0	0	0	0	0	0	0	0	0	0	0	0
071019	10:46:43	10:49:18	154496	5.0.10.0	5_exp_noRW	34	Rpleas_acq	CS_A	CPPC	ZHHZ	LWWL	JQQJ	YFFY	DXXD	gütig	genießen	küssen	vertrauen	sonnig	träumen	gierig	gemein	krank	versagen	sterben	töten	53pct	acq_USpleas_CSpleas1_noRW	acq1_noRW	1	31	0	0	300	300	621	50	0	1	1	blank2r.bmp	0	1	+	0	1	blank2r.bmp	252	1	CPPC	306	2	genießen	559	0	0	0	0	0	0	0	0	0	0	0	0	0	0	0	0	0	0	0	0	0	0	0	0	0	0	0	0	0	0	0	0	0	0	0	0	0	0	0
071019	10:46:43	10:49:20	156548	5.0.10.0	5_exp_noRW	34	Rpleas_acq	CS_A	CPPC	ZHHZ	LWWL	JQQJ	YFFY	DXXD	gütig	genießen	küssen	vertrauen	sonnig	träumen	gierig	gemein	krank	versagen	sterben	töten	47pct	acq_USunple_CSunple1_noRW	acq1_noRW	1	32	0	0	300	300	675	50	0	0	1	blank2r.bmp	0	1	+	0	1	blank2r.bmp	252	1	LWWL	306	1	gierig	559	1	FEHLER	1266	0	0	0	0	0	0	0	0	0	0	0	0	0	0	0	0	0	0	0	0	0	0	0	0	0	0	0	0	0	0	0	0	0	0	0	0
071019	10:46:43	10:49:22	158201	5.0.10.0	5_exp_noRW	34	Rpleas_acq	CS_A	CPPC	ZHHZ	LWWL	JQQJ	YFFY	DXXD	gütig	genießen	küssen	vertrauen	sonnig	träumen	gierig	gemein	krank	versagen	sterben	töten	53pct	acq_USunple_CSunple1_noRW	acq1_noRW	1	33	0	0	300	300	666	46	0	1	1	blank2r.bmp	0	1	+	0	1	blank2r.bmp	252	1	LWWL	306	3	krank	559	0	0	0	0	0	0	0	0	0	0	0	0	0	0	0	0	0	0	0	0	0	0	0	0	0	0	0	0	0	0	0	0	0	0	0	0	0	0	0
071019	10:46:43	10:49:24	159974	5.0.10.0	5_exp_noRW	34	Rpleas_acq	CS_A	CPPC	ZHHZ	LWWL	JQQJ	YFFY	DXXD	gütig	genießen	küssen	vertrauen	sonnig	träumen	gierig	gemein	krank	versagen	sterben	töten	53pct	acq_USpleas_CSunple2_noRW	acq1_noRW	1	34	0	0	300	300	602	50	0	1	1	blank2r.bmp	0	1	+	0	1	blank2r.bmp	252	1	JQQJ	306	3	träumen	559	0	0	0	0	0	0	0	0	0	0	0	0	0	0	0	0	0	0	0	0	0	0	0	0	0	0	0	0	0	0	0	0	0	0	0	0	0	0	0
071019	10:46:43	10:49:25	161813	5.0.10.0	5_exp_noRW	34	Rpleas_acq	CS_A	CPPC	ZHHZ	LWWL	JQQJ	YFFY	DXXD	gütig	genießen	küssen	vertrauen	sonnig	träumen	gierig	gemein	krank	versagen	sterben	töten	47pct	acq_USunple_CSpleas1_noRW	acq1_noRW	1	35	0	0	300	300	657	46	0	1	1	blank2r.bmp	0	1	+	0	1	blank2r.bmp	252	1	CPPC	306	2	gemein	559	0	0	0	0	0	0	0	0	0	0	0	0	0	0	0	0	0	0	0	0	0	0	0	0	0	0	0	0	0	0	0	0	0	0	0	0	0	0	0
071019	10:46:43	10:49:28	164505	5.0.10.0	5_exp_noRW	34	Rpleas_acq	CS_A	CPPC	ZHHZ	LWWL	JQQJ	YFFY	DXXD	gütig	genießen	küssen	vertrauen	sonnig	träumen	gierig	gemein	krank	versagen	sterben	töten	53pct	acq_USunple_CSunple2_noRW	acq1_noRW	1	36	0	0	300	300	1514	46	0	1	1	blank2r.bmp	0	1	+	0	1	blank2r.bmp	252	1	JQQJ	306	3	töten	559	0	0	0	0	0	0	0	0	0	0	0	0	0	0	0	0	0	0	0	0	0	0	0	0	0	0	0	0	0	0	0	0	0	0	0	0	0	0	0
071019	10:46:43	10:49:30	166398	5.0.10.0	5_exp_noRW	34	Rpleas_acq	CS_A	CPPC	ZHHZ	LWWL	JQQJ	YFFY	DXXD	gütig	genießen	küssen	vertrauen	sonnig	träumen	gierig	gemein	krank	versagen	sterben	töten	47pct	acq_USunple_CSunple1_noRW	acq1_noRW	1	37	0	0	300	300	716	46	0	1	1	blank2r.bmp	0	1	+	0	1	blank2r.bmp	252	1	LWWL	306	1	gierig	559	0	0	0	0	0	0	0	0	0	0	0	0	0	0	0	0	0	0	0	0	0	0	0	0	0	0	0	0	0	0	0	0	0	0	0	0	0	0	0
071019	10:46:43	10:49:33	168917	5.0.10.0	5_exp_noRW	34	Rpleas_acq	CS_A	CPPC	ZHHZ	LWWL	JQQJ	YFFY	DXXD	gütig	genießen	küssen	vertrauen	sonnig	träumen	gierig	gemein	krank	versagen	sterben	töten	53pct	acq_USpleas_CSpleas2_noRW	acq1_noRW	1	38	0	0	300	300	1340	50	0	1	1	blank2r.bmp	0	1	+	0	1	blank2r.bmp	252	1	ZHHZ	306	3	träumen	559	0	0	0	0	0	0	0	0	0	0	0	0	0	0	0	0	0	0	0	0	0	0	0	0	0	0	0	0	0	0	0	0	0	0	0	0	0	0	0
071019	10:46:43	10:49:34	170583	5.0.10.0	5_exp_noRW	34	Rpleas_acq	CS_A	CPPC	ZHHZ	LWWL	JQQJ	YFFY	DXXD	gütig	genießen	küssen	vertrauen	sonnig	träumen	gierig	gemein	krank	versagen	sterben	töten	47pct	acq_USunple_CSunple1_noRW	acq1_noRW	1	39	0	0	300	300	494	46	0	1	1	blank2r.bmp	0	1	+	0	1	blank2r.bmp	252	1	LWWL	306	3	krank	559	0	0	0	0	0	0	0	0	0	0	0	0	0	0	0	0	0	0	0	0	0	0	0	0	0	0	0	0	0	0	0	0	0	0	0	0	0	0	0
071019	10:46:43	10:49:36	172182	5.0.10.0	5_exp_noRW	34	Rpleas_acq	CS_A	CPPC	ZHHZ	LWWL	JQQJ	YFFY	DXXD	gütig	genießen	küssen	vertrauen	sonnig	träumen	gierig	gemein	krank	versagen	sterben	töten	53pct	acq_USunple_CSunple2_noRW	acq1_noRW	1	40	0	0	300	300	437	46	0	1	1	blank2r.bmp	0	1	+	0	1	blank2r.bmp	252	1	JQQJ	306	2	sterben	559	0	0	0	0	0	0	0	0	0	0	0	0	0	0	0	0	0	0	0	0	0	0	0	0	0	0	0	0	0	0	0	0	0	0	0	0	0	0	0
071019	10:46:43	10:49:38	173915	5.0.10.0	5_exp_noRW	34	Rpleas_acq	CS_A	CPPC	ZHHZ	LWWL	JQQJ	YFFY	DXXD	gütig	genießen	küssen	vertrauen	sonnig	träumen	gierig	gemein	krank	versagen	sterben	töten	53pct	acq_USunple_CSunple2_noRW	acq1_noRW	1	41	0	0	300	300	554	46	0	1	1	blank2r.bmp	0	1	+	0	1	blank2r.bmp	252	1	JQQJ	306	1	versagen	559	0	0	0	0	0	0	0	0	0	0	0	0	0	0	0	0	0	0	0	0	0	0	0	0	0	0	0	0	0	0	0	0	0	0	0	0	0	0	0
071019	10:46:43	10:49:40	176354	5.0.10.0	5_exp_noRW	34	Rpleas_acq	CS_A	CPPC	ZHHZ	LWWL	JQQJ	YFFY	DXXD	gütig	genießen	küssen	vertrauen	sonnig	träumen	gierig	gemein	krank	versagen	sterben	töten	53pct	acq_USpleas_CSpleas1_noRW	acq1_noRW	1	42	0	0	300	300	1262	50	0	1	1	blank2r.bmp	0	1	+	0	1	blank2r.bmp	252	1	CPPC	306	1	gütig	559	0	0	0	0	0	0	0	0	0	0	0	0	0	0	0	0	0	0	0	0	0	0	0	0	0	0	0	0	0	0	0	0	0	0	0	0	0	0	0
071019	10:46:43	10:49:42	178086	5.0.10.0	5_exp_noRW	34	Rpleas_acq	CS_A	CPPC	ZHHZ	LWWL	JQQJ	YFFY	DXXD	gütig	genießen	küssen	vertrauen	sonnig	träumen	gierig	gemein	krank	versagen	sterben	töten	53pct	acq_USpleas_CSpleas2_noRW	acq1_noRW	1	43	0	0	300	300	548	50	0	1	1	blank2r.bmp	0	1	+	0	1	blank2r.bmp	252	1	ZHHZ	306	2	sonnig	559	0	0	0	0	0	0	0	0	0	0	0	0	0	0	0	0	0	0	0	0	0	0	0	0	0	0	0	0	0	0	0	0	0	0	0	0	0	0	0
071019	10:46:43	10:49:43	179806	5.0.10.0	5_exp_noRW	34	Rpleas_acq	CS_A	CPPC	ZHHZ	LWWL	JQQJ	YFFY	DXXD	gütig	genießen	küssen	vertrauen	sonnig	träumen	gierig	gemein	krank	versagen	sterben	töten	53pct	acq_USunple_CSunple2_noRW	acq1_noRW	1	44	0	0	300	300	557	46	0	1	1	blank2r.bmp	0	1	+	0	1	blank2r.bmp	252	1	JQQJ	306	2	sterben	559	0	0	0	0	0	0	0	0	0	0	0	0	0	0	0	0	0	0	0	0	0	0	0	0	0	0	0	0	0	0	0	0	0	0	0	0	0	0	0
071019	10:46:43	10:49:45	181285	5.0.10.0	5_exp_noRW	34	Rpleas_acq	CS_A	CPPC	ZHHZ	LWWL	JQQJ	YFFY	DXXD	gütig	genießen	küssen	vertrauen	sonnig	träumen	gierig	gemein	krank	versagen	sterben	töten	53pct	acq_USunple_CSpleas2_noRW	acq1_noRW	1	45	0	0	300	300	294	46	0	1	1	blank2r.bmp	0	1	+	0	1	blank2r.bmp	252	1	ZHHZ	306	2	sterben	559	0	0	0	0	0	0	0	0	0	0	0	0	0	0	0	0	0	0	0	0	0	0	0	0	0	0	0	0	0	0	0	0	0	0	0	0	0	0	0
071019	10:46:43	10:49:47	183058	5.0.10.0	5_exp_noRW	34	Rpleas_acq	CS_A	CPPC	ZHHZ	LWWL	JQQJ	YFFY	DXXD	gütig	genießen	küssen	vertrauen	sonnig	träumen	gierig	gemein	krank	versagen	sterben	töten	47pct	acq_USpleas_CSpleas1_noRW	acq1_noRW	1	46	0	0	300	300	386	46	0	0	1	blank2r.bmp	0	1	+	0	1	blank2r.bmp	252	1	CPPC	306	2	genießen	559	1	FEHLER	986	0	0	0	0	0	0	0	0	0	0	0	0	0	0	0	0	0	0	0	0	0	0	0	0	0	0	0	0	0	0	0	0	0	0	0	0
071019	10:46:43	10:49:48	184630	5.0.10.0	5_exp_noRW	34	Rpleas_acq	CS_A	CPPC	ZHHZ	LWWL	JQQJ	YFFY	DXXD	gütig	genießen	küssen	vertrauen	sonnig	träumen	gierig	gemein	krank	versagen	sterben	töten	47pct	acq_USunple_CSunple1_noRW	acq1_noRW	1	47	0	0	300	300	614	46	0	1	1	blank2r.bmp	0	1	+	0	1	blank2r.bmp	252	1	LWWL	306	2	gemein	559	0	0	0	0	0	0	0	0	0	0	0	0	0	0	0	0	0	0	0	0	0	0	0	0	0	0	0	0	0	0	0	0	0	0	0	0	0	0	0
071019	10:46:43	10:49:50	186723	5.0.10.0	5_exp_noRW	34	Rpleas_acq	CS_A	CPPC	ZHHZ	LWWL	JQQJ	YFFY	DXXD	gütig	genießen	küssen	vertrauen	sonnig	träumen	gierig	gemein	krank	versagen	sterben	töten	53pct	acq_USunple_CSunple1_noRW	acq1_noRW	1	48	0	0	300	300	924	46	0	1	1	blank2r.bmp	0	1	+	0	1	blank2r.bmp	252	1	LWWL	306	2	gemein	559	0	0	0	0	0	0	0	0	0	0	0	0	0	0	0	0	0	0	0	0	0	0	0	0	0	0	0	0	0	0	0	0	0	0	0	0	0	0	0
071019	10:46:43	10:49:52	188442	5.0.10.0	5_exp_noRW	34	Rpleas_acq	CS_A	CPPC	ZHHZ	LWWL	JQQJ	YFFY	DXXD	gütig	genießen	küssen	vertrauen	sonnig	träumen	gierig	gemein	krank	versagen	sterben	töten	53pct	acq_USunple_CSunple1_noRW	acq1_noRW	1	49	0	0	300	300	543	46	0	1	1	blank2r.bmp	0	1	+	0	1	blank2r.bmp	252	1	LWWL	306	1	gierig	559	0	0	0	0	0	0	0	0	0	0	0	0	0	0	0	0	0	0	0	0	0	0	0	0	0	0	0	0	0	0	0	0	0	0	0	0	0	0	0
071019	10:46:43	10:49:54	190108	5.0.10.0	5_exp_noRW	34	Rpleas_acq	CS_A	CPPC	ZHHZ	LWWL	JQQJ	YFFY	DXXD	gütig	genießen	küssen	vertrauen	sonnig	träumen	gierig	gemein	krank	versagen	sterben	töten	53pct	acq_USpleas_CSpleas1_noRW	acq1_noRW	1	50	0	0	300	300	484	50	0	1	1	blank2r.bmp	0	1	+	0	1	blank2r.bmp	252	1	CPPC	306	1	gütig	559	0	0	0	0	0	0	0	0	0	0	0	0	0	0	0	0	0	0	0	0	0	0	0	0	0	0	0	0	0	0	0	0	0	0	0	0	0	0	0
071019	10:46:43	10:49:56	191921	5.0.10.0	5_exp_noRW	34	Rpleas_acq	CS_A	CPPC	ZHHZ	LWWL	JQQJ	YFFY	DXXD	gütig	genießen	küssen	vertrauen	sonnig	träumen	gierig	gemein	krank	versagen	sterben	töten	47pct	acq_USunple_CSpleas1_noRW	acq1_noRW	1	51	0	0	300	300	630	46	0	1	1	blank2r.bmp	0	1	+	0	1	blank2r.bmp	252	1	CPPC	306	1	gierig	559	0	0	0	0	0	0	0	0	0	0	0	0	0	0	0	0	0	0	0	0	0	0	0	0	0	0	0	0	0	0	0	0	0	0	0	0	0	0	0
071019	10:46:43	10:49:57	193653	5.0.10.0	5_exp_noRW	34	Rpleas_acq	CS_A	CPPC	ZHHZ	LWWL	JQQJ	YFFY	DXXD	gütig	genießen	küssen	vertrauen	sonnig	träumen	gierig	gemein	krank	versagen	sterben	töten	47pct	acq_USunple_CSunple1_noRW	acq1_noRW	1	52	0	0	300	300	552	46	0	1	1	blank2r.bmp	0	1	+	0	1	blank2r.bmp	252	1	LWWL	306	3	krank	559	0	0	0	0	0	0	0	0	0	0	0	0	0	0	0	0	0	0	0	0	0	0	0	0	0	0	0	0	0	0	0	0	0	0	0	0	0	0	0
071019	10:46:43	10:49:59	195319	5.0.10.0	5_exp_noRW	34	Rpleas_acq	CS_A	CPPC	ZHHZ	LWWL	JQQJ	YFFY	DXXD	gütig	genießen	küssen	vertrauen	sonnig	träumen	gierig	gemein	krank	versagen	sterben	töten	53pct	acq_USpleas_CSpleas2_noRW	acq1_noRW	1	53	0	0	300	300	487	50	0	1	1	blank2r.bmp	0	1	+	0	1	blank2r.bmp	252	1	ZHHZ	306	3	träumen	559	0	0	0	0	0	0	0	0	0	0	0	0	0	0	0	0	0	0	0	0	0	0	0	0	0	0	0	0	0	0	0	0	0	0	0	0	0	0	0
071019	10:46:43	10:50:01	197252	5.0.10.0	5_exp_noRW	34	Rpleas_acq	CS_A	CPPC	ZHHZ	LWWL	JQQJ	YFFY	DXXD	gütig	genießen	küssen	vertrauen	sonnig	träumen	gierig	gemein	krank	versagen	sterben	töten	53pct	acq_USunple_CSunple2_noRW	acq1_noRW	1	54	0	0	300	300	748	46	0	1	1	blank2r.bmp	0	1	+	0	1	blank2r.bmp	252	1	JQQJ	306	1	versagen	559	0	0	0	0	0	0	0	0	0	0	0	0	0	0	0	0	0	0	0	0	0	0	0	0	0	0	0	0	0	0	0	0	0	0	0	0	0	0	0
071019	10:46:43	10:50:03	199198	5.0.10.0	5_exp_noRW	34	Rpleas_acq	CS_A	CPPC	ZHHZ	LWWL	JQQJ	YFFY	DXXD	gütig	genießen	küssen	vertrauen	sonnig	träumen	gierig	gemein	krank	versagen	sterben	töten	53pct	acq_USunple_CSunple2_noRW	acq1_noRW	1	55	0	0	300	300	564	50	0	0	1	blank2r.bmp	0	1	+	0	1	blank2r.bmp	252	1	JQQJ	306	3	töten	559	1	FEHLER	1159	0	0	0	0	0	0	0	0	0	0	0	0	0	0	0	0	0	0	0	0	0	0	0	0	0	0	0	0	0	0	0	0	0	0	0	0
071019	10:46:43	10:50:04	200757	5.0.10.0	5_exp_noRW	34	Rpleas_acq	CS_A	CPPC	ZHHZ	LWWL	JQQJ	YFFY	DXXD	gütig	genießen	küssen	vertrauen	sonnig	träumen	gierig	gemein	krank	versagen	sterben	töten	53pct	acq_USpleas_CSpleas1_noRW	acq1_noRW	1	56	0	0	300	300	585	50	0	1	1	blank2r.bmp	0	1	+	0	1	blank2r.bmp	252	1	CPPC	306	3	küssen	559	0	0	0	0	0	0	0	0	0	0	0	0	0	0	0	0	0	0	0	0	0	0	0	0	0	0	0	0	0	0	0	0	0	0	0	0	0	0	0
071019	10:46:43	10:50:06	202490	5.0.10.0	5_exp_noRW	34	Rpleas_acq	CS_A	CPPC	ZHHZ	LWWL	JQQJ	YFFY	DXXD	gütig	genießen	küssen	vertrauen	sonnig	träumen	gierig	gemein	krank	versagen	sterben	töten	53pct	acq_USpleas_CSpleas2_noRW	acq1_noRW	1	57	0	0	300	300	569	50	0	1	1	blank2r.bmp	0	1	+	0	1	blank2r.bmp	252	1	ZHHZ	306	1	vertrauen	559	0	0	0	0	0	0	0	0	0	0	0	0	0	0	0	0	0	0	0	0	0	0	0	0	0	0	0	0	0	0	0	0	0	0	0	0	0	0	0
071019	10:46:43	10:50:08	204369	5.0.10.0	5_exp_noRW	34	Rpleas_acq	CS_A	CPPC	ZHHZ	LWWL	JQQJ	YFFY	DXXD	gütig	genießen	küssen	vertrauen	sonnig	träumen	gierig	gemein	krank	versagen	sterben	töten	47pct	acq_USpleas_CSpleas2_noRW	acq1_noRW	1	58	0	0	300	300	703	50	0	1	1	blank2r.bmp	0	1	+	0	1	blank2r.bmp	252	1	ZHHZ	306	2	sonnig	559	0	0	0	0	0	0	0	0	0	0	0	0	0	0	0	0	0	0	0	0	0	0	0	0	0	0	0	0	0	0	0	0	0	0	0	0	0	0	0
071019	10:46:43	10:50:10	206008	5.0.10.0	5_exp_noRW	34	Rpleas_acq	CS_A	CPPC	ZHHZ	LWWL	JQQJ	YFFY	DXXD	gütig	genießen	küssen	vertrauen	sonnig	träumen	gierig	gemein	krank	versagen	sterben	töten	47pct	acq_USpleas_CSunple2_noRW	acq1_noRW	1	59	0	0	300	300	464	50	0	1	1	blank2r.bmp	0	1	+	0	1	blank2r.bmp	252	1	JQQJ	306	1	vertrauen	559	0	0	0	0	0	0	0	0	0	0	0	0	0	0	0	0	0	0	0	0	0	0	0	0	0	0	0	0	0	0	0	0	0	0	0	0	0	0	0
071019	10:46:43	10:50:11	207754	5.0.10.0	5_exp_noRW	34	Rpleas_acq	CS_A	CPPC	ZHHZ	LWWL	JQQJ	YFFY	DXXD	gütig	genießen	küssen	vertrauen	sonnig	träumen	gierig	gemein	krank	versagen	sterben	töten	53pct	acq_USpleas_CSunple1_noRW	acq1_noRW	1	60	0	0	300	300	567	50	0	1	1	blank2r.bmp	0	1	+	0	1	blank2r.bmp	252	1	LWWL	306	2	genießen	559	0	0	0	0	0	0	0	0	0	0	0	0	0	0	0	0	0	0	0	0	0	0	0	0	0	0	0	0	0	0	0	0	0	0	0	0	0	0	0
071019	10:46:43	10:50:13	209380	5.0.10.0	5_exp_noRW	34	Rpleas_acq	CS_A	CPPC	ZHHZ	LWWL	JQQJ	YFFY	DXXD	gütig	genießen	küssen	vertrauen	sonnig	träumen	gierig	gemein	krank	versagen	sterben	töten	53pct	acq_USpleas_CSpleas1_noRW	acq1_noRW	1	61	0	0	300	300	445	50	0	1	1	blank2r.bmp	0	1	+	0	1	blank2r.bmp	252	1	CPPC	306	3	küssen	559	0	0	0	0	0	0	0	0	0	0	0	0	0	0	0	0	0	0	0	0	0	0	0	0	0	0	0	0	0	0	0	0	0	0	0	0	0	0	0
071019	10:46:43	10:50:15	210980	5.0.10.0	5_exp_noRW	34	Rpleas_acq	CS_A	CPPC	ZHHZ	LWWL	JQQJ	YFFY	DXXD	gütig	genießen	küssen	vertrauen	sonnig	träumen	gierig	gemein	krank	versagen	sterben	töten	53pct	acq_USpleas_CSpleas2_noRW	acq1_noRW	1	62	0	0	300	300	427	50	0	1	1	blank2r.bmp	0	1	+	0	1	blank2r.bmp	252	1	ZHHZ	306	3	träumen	559	0	0	0	0	0	0	0	0	0	0	0	0	0	0	0	0	0	0	0	0	0	0	0	0	0	0	0	0	0	0	0	0	0	0	0	0	0	0	0
071019	10:46:43	10:50:16	212739	5.0.10.0	5_exp_noRW	34	Rpleas_acq	CS_A	CPPC	ZHHZ	LWWL	JQQJ	YFFY	DXXD	gütig	genießen	küssen	vertrauen	sonnig	träumen	gierig	gemein	krank	versagen	sterben	töten	47pct	acq_USunple_CSunple2_noRW	acq1_noRW	1	63	0	0	300	300	598	46	0	1	1	blank2r.bmp	0	1	+	0	1	blank2r.bmp	252	1	JQQJ	306	1	versagen	559	0	0	0	0	0	0	0	0	0	0	0	0	0	0	0	0	0	0	0	0	0	0	0	0	0	0	0	0	0	0	0	0	0	0	0	0	0	0	0
071019	10:46:43	10:50:18	214378	5.0.10.0	5_exp_noRW	34	Rpleas_acq	CS_A	CPPC	ZHHZ	LWWL	JQQJ	YFFY	DXXD	gütig	genießen	küssen	vertrauen	sonnig	träumen	gierig	gemein	krank	versagen	sterben	töten	47pct	acq_USunple_CSunple1_noRW	acq1_noRW	1	64	0	0	300	300	455	46	0	1	1	blank2r.bmp	0	1	+	0	1	blank2r.bmp	252	1	LWWL	306	1	gierig	559	0	0	0	0	0	0	0	0	0	0	0	0	0	0	0	0	0	0	0	0	0	0	0	0	0	0	0	0	0	0	0	0	0	0	0	0	0	0	0
071019	10:46:43	10:50:20	216071	5.0.10.0	5_exp_noRW	34	Rpleas_acq	CS_A	CPPC	ZHHZ	LWWL	JQQJ	YFFY	DXXD	gütig	genießen	küssen	vertrauen	sonnig	träumen	gierig	gemein	krank	versagen	sterben	töten	47pct	acq_USunple_CSunple2_noRW	acq1_noRW	1	65	0	0	300	300	525	46	0	1	1	blank2r.bmp	0	1	+	0	1	blank2r.bmp	252	1	JQQJ	306	3	töten	559	0	0	0	0	0	0	0	0	0	0	0	0	0	0	0	0	0	0	0	0	0	0	0	0	0	0	0	0	0	0	0	0	0	0	0	0	0	0	0
071019	10:46:43	10:50:22	217870	5.0.10.0	5_exp_noRW	34	Rpleas_acq	CS_A	CPPC	ZHHZ	LWWL	JQQJ	YFFY	DXXD	gütig	genießen	küssen	vertrauen	sonnig	träumen	gierig	gemein	krank	versagen	sterben	töten	53pct	acq_USpleas_CSunple2_noRW	acq1_noRW	1	66	0	0	300	300	619	50	0	1	1	blank2r.bmp	0	1	+	0	1	blank2r.bmp	252	1	JQQJ	306	1	vertrauen	559	0	0	0	0	0	0	0	0	0	0	0	0	0	0	0	0	0	0	0	0	0	0	0	0	0	0	0	0	0	0	0	0	0	0	0	0	0	0	0
071019	10:46:43	10:50:23	219563	5.0.10.0	5_exp_noRW	34	Rpleas_acq	CS_A	CPPC	ZHHZ	LWWL	JQQJ	YFFY	DXXD	gütig	genießen	küssen	vertrauen	sonnig	träumen	gierig	gemein	krank	versagen	sterben	töten	53pct	acq_USunple_CSpleas1_noRW	acq1_noRW	1	67	0	0	300	300	521	46	0	1	1	blank2r.bmp	0	1	+	0	1	blank2r.bmp	252	1	CPPC	306	3	krank	559	0	0	0	0	0	0	0	0	0	0	0	0	0	0	0	0	0	0	0	0	0	0	0	0	0	0	0	0	0	0	0	0	0	0	0	0	0	0	0
071019	10:46:43	10:50:25	221175	5.0.10.0	5_exp_noRW	34	Rpleas_acq	CS_A	CPPC	ZHHZ	LWWL	JQQJ	YFFY	DXXD	gütig	genießen	küssen	vertrauen	sonnig	träumen	gierig	gemein	krank	versagen	sterben	töten	47pct	acq_USpleas_CSpleas1_noRW	acq1_noRW	1	68	0	0	300	300	429	50	0	1	1	blank2r.bmp	0	1	+	0	1	blank2r.bmp	252	1	CPPC	306	1	gütig	559	0	0	0	0	0	0	0	0	0	0	0	0	0	0	0	0	0	0	0	0	0	0	0	0	0	0	0	0	0	0	0	0	0	0	0	0	0	0	0
071019	10:46:43	10:50:27	222881	5.0.10.0	5_exp_noRW	34	Rpleas_acq	CS_A	CPPC	ZHHZ	LWWL	JQQJ	YFFY	DXXD	gütig	genießen	küssen	vertrauen	sonnig	träumen	gierig	gemein	krank	versagen	sterben	töten	53pct	acq_USpleas_CSpleas2_noRW	acq1_noRW	1	69	0	0	300	300	535	50	0	1	1	blank2r.bmp	0	1	+	0	1	blank2r.bmp	252	1	ZHHZ	306	1	vertrauen	559	0	0	0	0	0	0	0	0	0	0	0	0	0	0	0	0	0	0	0	0	0	0	0	0	0	0	0	0	0	0	0	0	0	0	0	0	0	0	0
071019	10:46:43	10:50:28	224587	5.0.10.0	5_exp_noRW	34	Rpleas_acq	CS_A	CPPC	ZHHZ	LWWL	JQQJ	YFFY	DXXD	gütig	genießen	küssen	vertrauen	sonnig	träumen	gierig	gemein	krank	versagen	sterben	töten	53pct	acq_USunple_CSunple2_noRW	acq1_noRW	1	70	0	0	300	300	534	46	0	1	1	blank2r.bmp	0	1	+	0	1	blank2r.bmp	252	1	JQQJ	306	2	sterben	559	0	0	0	0	0	0	0	0	0	0	0	0	0	0	0	0	0	0	0	0	0	0	0	0	0	0	0	0	0	0	0	0	0	0	0	0	0	0	0
071019	10:46:43	10:50:30	226200	5.0.10.0	5_exp_noRW	34	Rpleas_acq	CS_A	CPPC	ZHHZ	LWWL	JQQJ	YFFY	DXXD	gütig	genießen	küssen	vertrauen	sonnig	träumen	gierig	gemein	krank	versagen	sterben	töten	53pct	acq_USunple_CSunple2_noRW	acq1_noRW	1	71	0	0	300	300	425	46	0	1	1	blank2r.bmp	0	1	+	0	1	blank2r.bmp	252	1	JQQJ	306	2	sterben	559	0	0	0	0	0	0	0	0	0	0	0	0	0	0	0	0	0	0	0	0	0	0	0	0	0	0	0	0	0	0	0	0	0	0	0	0	0	0	0
071019	10:46:43	10:50:32	228079	5.0.10.0	5_exp_noRW	34	Rpleas_acq	CS_A	CPPC	ZHHZ	LWWL	JQQJ	YFFY	DXXD	gütig	genießen	küssen	vertrauen	sonnig	träumen	gierig	gemein	krank	versagen	sterben	töten	53pct	acq_USpleas_CSpleas1_noRW	acq1_noRW	1	72	0	0	300	300	713	50	0	1	1	blank2r.bmp	0	1	+	0	1	blank2r.bmp	252	1	CPPC	306	2	genießen	559	0	0	0	0	0	0	0	0	0	0	0	0	0	0	0	0	0	0	0	0	0	0	0	0	0	0	0	0	0	0	0	0	0	0	0	0	0	0	0
071019	10:46:43	10:50:33	229798	5.0.10.0	5_exp_noRW	34	Rpleas_acq	CS_A	CPPC	ZHHZ	LWWL	JQQJ	YFFY	DXXD	gütig	genießen	küssen	vertrauen	sonnig	träumen	gierig	gemein	krank	versagen	sterben	töten	53pct	acq_USunple_CSpleas2_noRW	acq1_noRW	1	73	0	0	300	300	331	50	0	0	1	blank2r.bmp	0	1	+	0	1	blank2r.bmp	252	1	ZHHZ	306	2	sterben	559	1	FEHLER	919	0	0	0	0	0	0	0	0	0	0	0	0	0	0	0	0	0	0	0	0	0	0	0	0	0	0	0	0	0	0	0	0	0	0	0	0
071019	10:46:43	10:50:35	231478	5.0.10.0	5_exp_noRW	34	Rpleas_acq	CS_A	CPPC	ZHHZ	LWWL	JQQJ	YFFY	DXXD	gütig	genießen	küssen	vertrauen	sonnig	träumen	gierig	gemein	krank	versagen	sterben	töten	53pct	acq_USpleas_CSpleas1_noRW	acq1_noRW	1	74	0	0	300	300	713	50	0	1	1	blank2r.bmp	0	1	+	0	1	blank2r.bmp	252	1	CPPC	306	2	genießen	559	0	0	0	0	0	0	0	0	0	0	0	0	0	0	0	0	0	0	0	0	0	0	0	0	0	0	0	0	0	0	0	0	0	0	0	0	0	0	0
071019	10:46:43	10:50:37	233064	5.0.10.0	5_exp_noRW	34	Rpleas_acq	CS_A	CPPC	ZHHZ	LWWL	JQQJ	YFFY	DXXD	gütig	genießen	küssen	vertrauen	sonnig	träumen	gierig	gemein	krank	versagen	sterben	töten	53pct	acq_USpleas_CSunple1_noRW	acq1_noRW	1	75	0	0	300	300	403	50	0	1	1	blank2r.bmp	0	1	+	0	1	blank2r.bmp	252	1	LWWL	306	2	genießen	559	0	0	0	0	0	0	0	0	0	0	0	0	0	0	0	0	0	0	0	0	0	0	0	0	0	0	0	0	0	0	0	0	0	0	0	0	0	0	0
071019	10:46:43	10:50:38	234770	5.0.10.0	5_exp_noRW	34	Rpleas_acq	CS_A	CPPC	ZHHZ	LWWL	JQQJ	YFFY	DXXD	gütig	genießen	küssen	vertrauen	sonnig	träumen	gierig	gemein	krank	versagen	sterben	töten	47pct	acq_USunple_CSunple1_noRW	acq1_noRW	1	76	0	0	300	300	539	46	0	1	1	blank2r.bmp	0	1	+	0	1	blank2r.bmp	252	1	LWWL	306	2	gemein	559	0	0	0	0	0	0	0	0	0	0	0	0	0	0	0	0	0	0	0	0	0	0	0	0	0	0	0	0	0	0	0	0	0	0	0	0	0	0	0
071019	10:46:43	10:50:40	236809	5.0.10.0	5_exp_noRW	34	Rpleas_acq	CS_A	CPPC	ZHHZ	LWWL	JQQJ	YFFY	DXXD	gütig	genießen	küssen	vertrauen	sonnig	träumen	gierig	gemein	krank	versagen	sterben	töten	47pct	acq_USunple_CSunple1_noRW	acq1_noRW	1	77	0	0	300	300	861	46	0	1	1	blank2r.bmp	0	1	+	0	1	blank2r.bmp	252	1	LWWL	306	3	krank	559	0	0	0	0	0	0	0	0	0	0	0	0	0	0	0	0	0	0	0	0	0	0	0	0	0	0	0	0	0	0	0	0	0	0	0	0	0	0	0
071019	10:46:43	10:50:42	238582	5.0.10.0	5_exp_noRW	34	Rpleas_acq	CS_A	CPPC	ZHHZ	LWWL	JQQJ	YFFY	DXXD	gütig	genießen	küssen	vertrauen	sonnig	träumen	gierig	gemein	krank	versagen	sterben	töten	53pct	acq_USpleas_CSpleas2_noRW	acq1_noRW	1	78	0	0	300	300	590	50	0	1	1	blank2r.bmp	0	1	+	0	1	blank2r.bmp	252	1	ZHHZ	306	2	sonnig	559	0	0	0	0	0	0	0	0	0	0	0	0	0	0	0	0	0	0	0	0	0	0	0	0	0	0	0	0	0	0	0	0	0	0	0	0	0	0	0
071019	10:46:43	10:50:44	240301	5.0.10.0	5_exp_noRW	34	Rpleas_acq	CS_A	CPPC	ZHHZ	LWWL	JQQJ	YFFY	DXXD	gütig	genießen	küssen	vertrauen	sonnig	träumen	gierig	gemein	krank	versagen	sterben	töten	53pct	acq_USunple_CSunple1_noRW	acq1_noRW	1	79	0	0	300	300	543	46	0	1	1	blank2r.bmp	0	1	+	0	1	blank2r.bmp	252	1	LWWL	306	2	gemein	559	0	0	0	0	0	0	0	0	0	0	0	0	0	0	0	0	0	0	0	0	0	0	0	0	0	0	0	0	0	0	0	0	0	0	0	0	0	0	0
071019	10:46:43	10:50:46	242393	5.0.10.0	5_exp_noRW	34	Rpleas_acq	CS_A	CPPC	ZHHZ	LWWL	JQQJ	YFFY	DXXD	gütig	genießen	küssen	vertrauen	sonnig	träumen	gierig	gemein	krank	versagen	sterben	töten	53pct	acq_USpleas_CSpleas2_noRW	acq1_noRW	1	80	0	0	300	300	908	50	0	1	1	blank2r.bmp	0	1	+	0	1	blank2r.bmp	252	1	ZHHZ	306	2	sonnig	559	0	0	0	0	0	0	0	0	0	0	0	0	0	0	0	0	0	0	0	0	0	0	0	0	0	0	0	0	0	0	0	0	0	0	0	0	0	0	0
071019	10:46:43	10:50:58	254015	5.0.10.0	5_exp_noRW	34	Rpleas_acq	CS_A	CPPC	ZHHZ	LWWL	JQQJ	YFFY	DXXD	gütig	genießen	küssen	vertrauen	sonnig	träumen	gierig	gemein	krank	versagen	sterben	töten	53pct	acq_USunple_CSpleas1_noRW	acq23456_noRW	2	1	0	0	300	300	1168	46	0	1	1	blank2r.bmp	0	1	+	0	1	blank2r.bmp	252	1	CPPC	306	1	gierig	559	0	0	0	0	0	0	0	0	0	0	0	0	0	0	0	0	0	0	0	0	0	0	0	0	0	0	0	0	0	0	0	0	0	0	0	0	0	0	0
071019	10:46:43	10:50:59	255601	5.0.10.0	5_exp_noRW	34	Rpleas_acq	CS_A	CPPC	ZHHZ	LWWL	JQQJ	YFFY	DXXD	gütig	genießen	küssen	vertrauen	sonnig	träumen	gierig	gemein	krank	versagen	sterben	töten	53pct	acq_USunple_CSunple2_noRW	acq23456_noRW	2	2	0	0	300	300	400	46	0	1	1	blank2r.bmp	0	1	+	0	1	blank2r.bmp	252	1	JQQJ	306	3	töten	559	0	0	0	0	0	0	0	0	0	0	0	0	0	0	0	0	0	0	0	0	0	0	0	0	0	0	0	0	0	0	0	0	0	0	0	0	0	0	0
071019	10:46:43	10:51:01	257374	5.0.10.0	5_exp_noRW	34	Rpleas_acq	CS_A	CPPC	ZHHZ	LWWL	JQQJ	YFFY	DXXD	gütig	genießen	küssen	vertrauen	sonnig	träumen	gierig	gemein	krank	versagen	sterben	töten	47pct	acq_USunple_CSunple1_noRW	acq23456_noRW	2	3	0	0	300	300	604	46	0	1	1	blank2r.bmp	0	1	+	0	1	blank2r.bmp	252	1	LWWL	306	1	gierig	559	0	0	0	0	0	0	0	0	0	0	0	0	0	0	0	0	0	0	0	0	0	0	0	0	0	0	0	0	0	0	0	0	0	0	0	0	0	0	0
071019	10:46:43	10:51:03	259040	5.0.10.0	5_exp_noRW	34	Rpleas_acq	CS_A	CPPC	ZHHZ	LWWL	JQQJ	YFFY	DXXD	gütig	genießen	küssen	vertrauen	sonnig	träumen	gierig	gemein	krank	versagen	sterben	töten	53pct	acq_USunple_CSunple1_noRW	acq23456_noRW	2	4	0	0	300	300	491	46	0	1	1	blank2r.bmp	0	1	+	0	1	blank2r.bmp	252	1	LWWL	306	3	krank	559	0	0	0	0	0	0	0	0	0	0	0	0	0	0	0	0	0	0	0	0	0	0	0	0	0	0	0	0	0	0	0	0	0	0	0	0	0	0	0
071019	10:46:43	10:51:05	261812	5.0.10.0	5_exp_noRW	34	Rpleas_acq	CS_A	CPPC	ZHHZ	LWWL	JQQJ	YFFY	DXXD	gütig	genießen	küssen	vertrauen	sonnig	träumen	gierig	gemein	krank	versagen	sterben	töten	47pct	acq_USunple_CSunple2_noRW	acq23456_noRW	2	5	0	0	300	300	1591	46	0	1	1	blank2r.bmp	0	1	+	0	1	blank2r.bmp	252	1	JQQJ	306	1	versagen	559	0	0	0	0	0	0	0	0	0	0	0	0	0	0	0	0	0	0	0	0	0	0	0	0	0	0	0	0	0	0	0	0	0	0	0	0	0	0	0
071019	10:46:43	10:51:07	263411	5.0.10.0	5_exp_noRW	34	Rpleas_acq	CS_A	CPPC	ZHHZ	LWWL	JQQJ	YFFY	DXXD	gütig	genießen	küssen	vertrauen	sonnig	träumen	gierig	gemein	krank	versagen	sterben	töten	53pct	acq_USunple_CSunple1_noRW	acq23456_noRW	2	6	0	0	300	300	437	46	0	1	1	blank2r.bmp	0	1	+	0	1	blank2r.bmp	252	1	LWWL	306	1	gierig	559	0	0	0	0	0	0	0	0	0	0	0	0	0	0	0	0	0	0	0	0	0	0	0	0	0	0	0	0	0	0	0	0	0	0	0	0	0	0	0
071019	10:46:43	10:51:09	265237	5.0.10.0	5_exp_noRW	34	Rpleas_acq	CS_A	CPPC	ZHHZ	LWWL	JQQJ	YFFY	DXXD	gütig	genießen	küssen	vertrauen	sonnig	träumen	gierig	gemein	krank	versagen	sterben	töten	53pct	acq_USpleas_CSpleas2_noRW	acq23456_noRW	2	7	0	0	300	300	647	50	0	1	1	blank2r.bmp	0	1	+	0	1	blank2r.bmp	252	1	ZHHZ	306	1	vertrauen	559	0	0	0	0	0	0	0	0	0	0	0	0	0	0	0	0	0	0	0	0	0	0	0	0	0	0	0	0	0	0	0	0	0	0	0	0	0	0	0
071019	10:46:43	10:51:11	266930	5.0.10.0	5_exp_noRW	34	Rpleas_acq	CS_A	CPPC	ZHHZ	LWWL	JQQJ	YFFY	DXXD	gütig	genießen	küssen	vertrauen	sonnig	träumen	gierig	gemein	krank	versagen	sterben	töten	53pct	acq_USunple_CSpleas2_noRW	acq23456_noRW	2	8	0	0	300	300	515	46	0	1	1	blank2r.bmp	0	1	+	0	1	blank2r.bmp	252	1	ZHHZ	306	3	töten	559	0	0	0	0	0	0	0	0	0	0	0	0	0	0	0	0	0	0	0	0	0	0	0	0	0	0	0	0	0	0	0	0	0	0	0	0	0	0	0
071019	10:46:43	10:51:12	268783	5.0.10.0	5_exp_noRW	34	Rpleas_acq	CS_A	CPPC	ZHHZ	LWWL	JQQJ	YFFY	DXXD	gütig	genießen	küssen	vertrauen	sonnig	träumen	gierig	gemein	krank	versagen	sterben	töten	53pct	acq_USpleas_CSpleas1_noRW	acq23456_noRW	2	9	0	0	300	300	682	50	0	1	1	blank2r.bmp	0	1	+	0	1	blank2r.bmp	252	1	CPPC	306	1	gütig	559	0	0	0	0	0	0	0	0	0	0	0	0	0	0	0	0	0	0	0	0	0	0	0	0	0	0	0	0	0	0	0	0	0	0	0	0	0	0	0
071019	10:46:43	10:51:14	270528	5.0.10.0	5_exp_noRW	34	Rpleas_acq	CS_A	CPPC	ZHHZ	LWWL	JQQJ	YFFY	DXXD	gütig	genießen	küssen	vertrauen	sonnig	träumen	gierig	gemein	krank	versagen	sterben	töten	53pct	acq_USunple_CSunple2_noRW	acq23456_noRW	2	10	0	0	300	300	562	46	0	1	1	blank2r.bmp	0	1	+	0	1	blank2r.bmp	252	1	JQQJ	306	2	sterben	559	0	0	0	0	0	0	0	0	0	0	0	0	0	0	0	0	0	0	0	0	0	0	0	0	0	0	0	0	0	0	0	0	0	0	0	0	0	0	0
071019	10:46:43	10:51:16	272248	5.0.10.0	5_exp_noRW	34	Rpleas_acq	CS_A	CPPC	ZHHZ	LWWL	JQQJ	YFFY	DXXD	gütig	genießen	küssen	vertrauen	sonnig	träumen	gierig	gemein	krank	versagen	sterben	töten	53pct	acq_USpleas_CSunple2_noRW	acq23456_noRW	2	11	0	0	300	300	534	50	0	1	1	blank2r.bmp	0	1	+	0	1	blank2r.bmp	252	1	JQQJ	306	2	sonnig	559	0	0	0	0	0	0	0	0	0	0	0	0	0	0	0	0	0	0	0	0	0	0	0	0	0	0	0	0	0	0	0	0	0	0	0	0	0	0	0
071019	10:46:43	10:51:18	273887	5.0.10.0	5_exp_noRW	34	Rpleas_acq	CS_A	CPPC	ZHHZ	LWWL	JQQJ	YFFY	DXXD	gütig	genießen	küssen	vertrauen	sonnig	träumen	gierig	gemein	krank	versagen	sterben	töten	53pct	acq_USpleas_CSpleas1_noRW	acq23456_noRW	2	12	0	0	300	300	471	50	0	1	1	blank2r.bmp	0	1	+	0	1	blank2r.bmp	252	1	CPPC	306	3	küssen	559	0	0	0	0	0	0	0	0	0	0	0	0	0	0	0	0	0	0	0	0	0	0	0	0	0	0	0	0	0	0	0	0	0	0	0	0	0	0	0
071019	10:46:43	10:51:19	275593	5.0.10.0	5_exp_noRW	34	Rpleas_acq	CS_A	CPPC	ZHHZ	LWWL	JQQJ	YFFY	DXXD	gütig	genießen	küssen	vertrauen	sonnig	träumen	gierig	gemein	krank	versagen	sterben	töten	47pct	acq_USunple_CSunple2_noRW	acq23456_noRW	2	13	0	0	300	300	536	46	0	1	1	blank2r.bmp	0	1	+	0	1	blank2r.bmp	252	1	JQQJ	306	1	versagen	559	0	0	0	0	0	0	0	0	0	0	0	0	0	0	0	0	0	0	0	0	0	0	0	0	0	0	0	0	0	0	0	0	0	0	0	0	0	0	0
071019	10:46:43	10:51:21	277179	5.0.10.0	5_exp_noRW	34	Rpleas_acq	CS_A	CPPC	ZHHZ	LWWL	JQQJ	YFFY	DXXD	gütig	genießen	küssen	vertrauen	sonnig	träumen	gierig	gemein	krank	versagen	sterben	töten	47pct	acq_USpleas_CSpleas1_noRW	acq23456_noRW	2	14	0	0	300	300	424	50	0	1	1	blank2r.bmp	0	1	+	0	1	blank2r.bmp	252	1	CPPC	306	3	küssen	559	0	0	0	0	0	0	0	0	0	0	0	0	0	0	0	0	0	0	0	0	0	0	0	0	0	0	0	0	0	0	0	0	0	0	0	0	0	0	0
071019	10:46:43	10:51:22	278845	5.0.10.0	5_exp_noRW	34	Rpleas_acq	CS_A	CPPC	ZHHZ	LWWL	JQQJ	YFFY	DXXD	gütig	genießen	küssen	vertrauen	sonnig	träumen	gierig	gemein	krank	versagen	sterben	töten	47pct	acq_USunple_CSunple1_noRW	acq23456_noRW	2	15	0	0	300	300	483	46	0	1	1	blank2r.bmp	0	1	+	0	1	blank2r.bmp	252	1	LWWL	306	3	krank	559	0	0	0	0	0	0	0	0	0	0	0	0	0	0	0	0	0	0	0	0	0	0	0	0	0	0	0	0	0	0	0	0	0	0	0	0	0	0	0
071019	10:46:43	10:51:24	280458	5.0.10.0	5_exp_noRW	34	Rpleas_acq	CS_A	CPPC	ZHHZ	LWWL	JQQJ	YFFY	DXXD	gütig	genießen	küssen	vertrauen	sonnig	träumen	gierig	gemein	krank	versagen	sterben	töten	47pct	acq_USpleas_CSunple1_noRW	acq23456_noRW	2	16	0	0	300	300	440	50	0	1	1	blank2r.bmp	0	1	+	0	1	blank2r.bmp	252	1	LWWL	306	3	küssen	559	0	0	0	0	0	0	0	0	0	0	0	0	0	0	0	0	0	0	0	0	0	0	0	0	0	0	0	0	0	0	0	0	0	0	0	0	0	0	0
071019	10:46:43	10:51:26	282137	5.0.10.0	5_exp_noRW	34	Rpleas_acq	CS_A	CPPC	ZHHZ	LWWL	JQQJ	YFFY	DXXD	gütig	genießen	küssen	vertrauen	sonnig	träumen	gierig	gemein	krank	versagen	sterben	töten	47pct	acq_USpleas_CSpleas2_noRW	acq23456_noRW	2	17	0	0	300	300	506	50	0	1	1	blank2r.bmp	0	1	+	0	1	blank2r.bmp	252	1	ZHHZ	306	3	träumen	559	0	0	0	0	0	0	0	0	0	0	0	0	0	0	0	0	0	0	0	0	0	0	0	0	0	0	0	0	0	0	0	0	0	0	0	0	0	0	0
071019	10:46:43	10:51:28	283896	5.0.10.0	5_exp_noRW	34	Rpleas_acq	CS_A	CPPC	ZHHZ	LWWL	JQQJ	YFFY	DXXD	gütig	genießen	küssen	vertrauen	sonnig	träumen	gierig	gemein	krank	versagen	sterben	töten	47pct	acq_USpleas_CSpleas1_noRW	acq23456_noRW	2	18	0	0	300	300	596	50	0	1	1	blank2r.bmp	0	1	+	0	1	blank2r.bmp	252	1	CPPC	306	2	genießen	559	0	0	0	0	0	0	0	0	0	0	0	0	0	0	0	0	0	0	0	0	0	0	0	0	0	0	0	0	0	0	0	0	0	0	0	0	0	0	0
071019	10:46:43	10:51:29	285362	5.0.10.0	5_exp_noRW	34	Rpleas_acq	CS_A	CPPC	ZHHZ	LWWL	JQQJ	YFFY	DXXD	gütig	genießen	küssen	vertrauen	sonnig	träumen	gierig	gemein	krank	versagen	sterben	töten	47pct	acq_USpleas_CSpleas2_noRW	acq23456_noRW	2	19	0	0	300	300	279	50	0	1	1	blank2r.bmp	0	1	+	0	1	blank2r.bmp	252	1	ZHHZ	306	3	träumen	559	0	0	0	0	0	0	0	0	0	0	0	0	0	0	0	0	0	0	0	0	0	0	0	0	0	0	0	0	0	0	0	0	0	0	0	0	0	0	0
071019	10:46:43	10:51:31	287028	5.0.10.0	5_exp_noRW	34	Rpleas_acq	CS_A	CPPC	ZHHZ	LWWL	JQQJ	YFFY	DXXD	gütig	genießen	küssen	vertrauen	sonnig	träumen	gierig	gemein	krank	versagen	sterben	töten	47pct	acq_USpleas_CSpleas2_noRW	acq23456_noRW	2	20	0	0	300	300	495	50	0	1	1	blank2r.bmp	0	1	+	0	1	blank2r.bmp	252	1	ZHHZ	306	2	sonnig	559	0	0	0	0	0	0	0	0	0	0	0	0	0	0	0	0	0	0	0	0	0	0	0	0	0	0	0	0	0	0	0	0	0	0	0	0	0	0	0
071019	10:46:43	10:51:32	288708	5.0.10.0	5_exp_noRW	34	Rpleas_acq	CS_A	CPPC	ZHHZ	LWWL	JQQJ	YFFY	DXXD	gütig	genießen	küssen	vertrauen	sonnig	träumen	gierig	gemein	krank	versagen	sterben	töten	47pct	acq_USunple_CSpleas1_noRW	acq23456_noRW	2	21	0	0	300	300	303	50	0	0	1	blank2r.bmp	0	1	+	0	1	blank2r.bmp	252	1	CPPC	306	2	gemein	559	1	FEHLER	892	0	0	0	0	0	0	0	0	0	0	0	0	0	0	0	0	0	0	0	0	0	0	0	0	0	0	0	0	0	0	0	0	0	0	0	0
071019	10:46:43	10:51:34	290294	5.0.10.0	5_exp_noRW	34	Rpleas_acq	CS_A	CPPC	ZHHZ	LWWL	JQQJ	YFFY	DXXD	gütig	genießen	küssen	vertrauen	sonnig	träumen	gierig	gemein	krank	versagen	sterben	töten	47pct	acq_USpleas_CSunple2_noRW	acq23456_noRW	2	22	0	0	300	300	612	50	0	1	1	blank2r.bmp	0	1	+	0	1	blank2r.bmp	252	1	JQQJ	306	3	träumen	559	0	0	0	0	0	0	0	0	0	0	0	0	0	0	0	0	0	0	0	0	0	0	0	0	0	0	0	0	0	0	0	0	0	0	0	0	0	0	0
071019	10:46:43	10:51:36	292053	5.0.10.0	5_exp_noRW	34	Rpleas_acq	CS_A	CPPC	ZHHZ	LWWL	JQQJ	YFFY	DXXD	gütig	genießen	küssen	vertrauen	sonnig	träumen	gierig	gemein	krank	versagen	sterben	töten	53pct	acq_USunple_CSunple1_noRW	acq23456_noRW	2	23	0	0	300	300	582	46	0	1	1	blank2r.bmp	0	1	+	0	1	blank2r.bmp	252	1	LWWL	306	2	gemein	559	0	0	0	0	0	0	0	0	0	0	0	0	0	0	0	0	0	0	0	0	0	0	0	0	0	0	0	0	0	0	0	0	0	0	0	0	0	0	0
071019	10:46:43	10:51:37	293666	5.0.10.0	5_exp_noRW	34	Rpleas_acq	CS_A	CPPC	ZHHZ	LWWL	JQQJ	YFFY	DXXD	gütig	genießen	küssen	vertrauen	sonnig	träumen	gierig	gemein	krank	versagen	sterben	töten	53pct	acq_USunple_CSpleas2_noRW	acq23456_noRW	2	24	0	0	300	300	432	46	0	1	1	blank2r.bmp	0	1	+	0	1	blank2r.bmp	252	1	ZHHZ	306	1	versagen	559	0	0	0	0	0	0	0	0	0	0	0	0	0	0	0	0	0	0	0	0	0	0	0	0	0	0	0	0	0	0	0	0	0	0	0	0	0	0	0
071019	10:46:43	10:51:39	295305	5.0.10.0	5_exp_noRW	34	Rpleas_acq	CS_A	CPPC	ZHHZ	LWWL	JQQJ	YFFY	DXXD	gütig	genießen	küssen	vertrauen	sonnig	träumen	gierig	gemein	krank	versagen	sterben	töten	53pct	acq_USunple_CSunple2_noRW	acq23456_noRW	2	25	0	0	300	300	476	46	0	1	1	blank2r.bmp	0	1	+	0	1	blank2r.bmp	252	1	JQQJ	306	3	töten	559	0	0	0	0	0	0	0	0	0	0	0	0	0	0	0	0	0	0	0	0	0	0	0	0	0	0	0	0	0	0	0	0	0	0	0	0	0	0	0
071019	10:46:43	10:51:41	296944	5.0.10.0	5_exp_noRW	34	Rpleas_acq	CS_A	CPPC	ZHHZ	LWWL	JQQJ	YFFY	DXXD	gütig	genießen	küssen	vertrauen	sonnig	träumen	gierig	gemein	krank	versagen	sterben	töten	47pct	acq_USpleas_CSpleas1_noRW	acq23456_noRW	2	26	0	0	300	300	470	50	0	1	1	blank2r.bmp	0	1	+	0	1	blank2r.bmp	252	1	CPPC	306	1	gütig	559	0	0	0	0	0	0	0	0	0	0	0	0	0	0	0	0	0	0	0	0	0	0	0	0	0	0	0	0	0	0	0	0	0	0	0	0	0	0	0
071019	10:46:43	10:51:42	298544	5.0.10.0	5_exp_noRW	34	Rpleas_acq	CS_A	CPPC	ZHHZ	LWWL	JQQJ	YFFY	DXXD	gütig	genießen	küssen	vertrauen	sonnig	träumen	gierig	gemein	krank	versagen	sterben	töten	53pct	acq_USpleas_CSpleas2_noRW	acq23456_noRW	2	27	0	0	300	300	431	50	0	1	1	blank2r.bmp	0	1	+	0	1	blank2r.bmp	252	1	ZHHZ	306	1	vertrauen	559	0	0	0	0	0	0	0	0	0	0	0	0	0	0	0	0	0	0	0	0	0	0	0	0	0	0	0	0	0	0	0	0	0	0	0	0	0	0	0
071019	10:46:43	10:51:44	300210	5.0.10.0	5_exp_noRW	34	Rpleas_acq	CS_A	CPPC	ZHHZ	LWWL	JQQJ	YFFY	DXXD	gütig	genießen	küssen	vertrauen	sonnig	träumen	gierig	gemein	krank	versagen	sterben	töten	53pct	acq_USpleas_CSpleas2_noRW	acq23456_noRW	2	28	0	0	300	300	479	50	0	1	1	blank2r.bmp	0	1	+	0	1	blank2r.bmp	252	1	ZHHZ	306	3	träumen	559	0	0	0	0	0	0	0	0	0	0	0	0	0	0	0	0	0	0	0	0	0	0	0	0	0	0	0	0	0	0	0	0	0	0	0	0	0	0	0
071019	10:46:43	10:51:46	301876	5.0.10.0	5_exp_noRW	34	Rpleas_acq	CS_A	CPPC	ZHHZ	LWWL	JQQJ	YFFY	DXXD	gütig	genießen	küssen	vertrauen	sonnig	träumen	gierig	gemein	krank	versagen	sterben	töten	47pct	acq_USunple_CSunple1_noRW	acq23456_noRW	2	29	0	0	300	300	500	46	0	1	1	blank2r.bmp	0	1	+	0	1	blank2r.bmp	252	1	LWWL	306	1	gierig	559	0	0	0	0	0	0	0	0	0	0	0	0	0	0	0	0	0	0	0	0	0	0	0	0	0	0	0	0	0	0	0	0	0	0	0	0	0	0	0
071019	10:46:43	10:51:48	303915	5.0.10.0	5_exp_noRW	34	Rpleas_acq	CS_A	CPPC	ZHHZ	LWWL	JQQJ	YFFY	DXXD	gütig	genießen	küssen	vertrauen	sonnig	träumen	gierig	gemein	krank	versagen	sterben	töten	47pct	acq_USunple_CSunple1_noRW	acq23456_noRW	2	30	0	0	300	300	854	46	0	1	1	blank2r.bmp	0	1	+	0	1	blank2r.bmp	252	1	LWWL	306	3	krank	559	0	0	0	0	0	0	0	0	0	0	0	0	0	0	0	0	0	0	0	0	0	0	0	0	0	0	0	0	0	0	0	0	0	0	0	0	0	0	0
071019	10:46:43	10:51:49	305674	5.0.10.0	5_exp_noRW	34	Rpleas_acq	CS_A	CPPC	ZHHZ	LWWL	JQQJ	YFFY	DXXD	gütig	genießen	küssen	vertrauen	sonnig	träumen	gierig	gemein	krank	versagen	sterben	töten	53pct	acq_USpleas_CSpleas2_noRW	acq23456_noRW	2	31	0	0	300	300	591	50	0	1	1	blank2r.bmp	0	1	+	0	1	blank2r.bmp	252	1	ZHHZ	306	1	vertrauen	559	0	0	0	0	0	0	0	0	0	0	0	0	0	0	0	0	0	0	0	0	0	0	0	0	0	0	0	0	0	0	0	0	0	0	0	0	0	0	0
071019	10:46:43	10:51:51	307273	5.0.10.0	5_exp_noRW	34	Rpleas_acq	CS_A	CPPC	ZHHZ	LWWL	JQQJ	YFFY	DXXD	gütig	genießen	küssen	vertrauen	sonnig	träumen	gierig	gemein	krank	versagen	sterben	töten	53pct	acq_USpleas_CSpleas1_noRW	acq23456_noRW	2	32	0	0	300	300	423	50	0	1	1	blank2r.bmp	0	1	+	0	1	blank2r.bmp	252	1	CPPC	306	3	küssen	559	0	0	0	0	0	0	0	0	0	0	0	0	0	0	0	0	0	0	0	0	0	0	0	0	0	0	0	0	0	0	0	0	0	0	0	0	0	0	0
071019	10:46:43	10:51:53	308939	5.0.10.0	5_exp_noRW	34	Rpleas_acq	CS_A	CPPC	ZHHZ	LWWL	JQQJ	YFFY	DXXD	gütig	genießen	küssen	vertrauen	sonnig	träumen	gierig	gemein	krank	versagen	sterben	töten	47pct	acq_USunple_CSunple2_noRW	acq23456_noRW	2	33	0	0	300	300	480	46	0	1	1	blank2r.bmp	0	1	+	0	1	blank2r.bmp	252	1	JQQJ	306	2	sterben	559	0	0	0	0	0	0	0	0	0	0	0	0	0	0	0	0	0	0	0	0	0	0	0	0	0	0	0	0	0	0	0	0	0	0	0	0	0	0	0
071019	10:46:43	10:51:54	310739	5.0.10.0	5_exp_noRW	34	Rpleas_acq	CS_A	CPPC	ZHHZ	LWWL	JQQJ	YFFY	DXXD	gütig	genießen	küssen	vertrauen	sonnig	träumen	gierig	gemein	krank	versagen	sterben	töten	47pct	acq_USunple_CSunple1_noRW	acq23456_noRW	2	34	0	0	300	300	631	46	0	1	1	blank2r.bmp	0	1	+	0	1	blank2r.bmp	252	1	LWWL	306	2	gemein	559	0	0	0	0	0	0	0	0	0	0	0	0	0	0	0	0	0	0	0	0	0	0	0	0	0	0	0	0	0	0	0	0	0	0	0	0	0	0	0
071019	10:46:43	10:51:56	312338	5.0.10.0	5_exp_noRW	34	Rpleas_acq	CS_A	CPPC	ZHHZ	LWWL	JQQJ	YFFY	DXXD	gütig	genießen	küssen	vertrauen	sonnig	träumen	gierig	gemein	krank	versagen	sterben	töten	47pct	acq_USpleas_CSpleas1_noRW	acq23456_noRW	2	35	0	0	300	300	431	50	0	1	1	blank2r.bmp	0	1	+	0	1	blank2r.bmp	252	1	CPPC	306	1	gütig	559	0	0	0	0	0	0	0	0	0	0	0	0	0	0	0	0	0	0	0	0	0	0	0	0	0	0	0	0	0	0	0	0	0	0	0	0	0	0	0
071019	10:46:43	10:51:58	314031	5.0.10.0	5_exp_noRW	34	Rpleas_acq	CS_A	CPPC	ZHHZ	LWWL	JQQJ	YFFY	DXXD	gütig	genießen	küssen	vertrauen	sonnig	träumen	gierig	gemein	krank	versagen	sterben	töten	53pct	acq_USpleas_CSpleas2_noRW	acq23456_noRW	2	36	0	0	300	300	518	50	0	1	1	blank2r.bmp	0	1	+	0	1	blank2r.bmp	252	1	ZHHZ	306	2	sonnig	559	0	0	0	0	0	0	0	0	0	0	0	0	0	0	0	0	0	0	0	0	0	0	0	0	0	0	0	0	0	0	0	0	0	0	0	0	0	0	0
071019	10:46:43	10:51:59	315630	5.0.10.0	5_exp_noRW	34	Rpleas_acq	CS_A	CPPC	ZHHZ	LWWL	JQQJ	YFFY	DXXD	gütig	genießen	küssen	vertrauen	sonnig	träumen	gierig	gemein	krank	versagen	sterben	töten	53pct	acq_USpleas_CSpleas1_noRW	acq23456_noRW	2	37	0	0	300	300	433	50	0	1	1	blank2r.bmp	0	1	+	0	1	blank2r.bmp	252	1	CPPC	306	2	genießen	559	0	0	0	0	0	0	0	0	0	0	0	0	0	0	0	0	0	0	0	0	0	0	0	0	0	0	0	0	0	0	0	0	0	0	0	0	0	0	0
071019	10:46:43	10:52:01	317389	5.0.10.0	5_exp_noRW	34	Rpleas_acq	CS_A	CPPC	ZHHZ	LWWL	JQQJ	YFFY	DXXD	gütig	genießen	küssen	vertrauen	sonnig	träumen	gierig	gemein	krank	versagen	sterben	töten	53pct	acq_USunple_CSunple2_noRW	acq23456_noRW	2	38	0	0	300	300	384	50	0	0	1	blank2r.bmp	0	1	+	0	1	blank2r.bmp	252	1	JQQJ	306	1	versagen	559	1	FEHLER	972	0	0	0	0	0	0	0	0	0	0	0	0	0	0	0	0	0	0	0	0	0	0	0	0	0	0	0	0	0	0	0	0	0	0	0	0
071019	10:46:43	10:52:03	318882	5.0.10.0	5_exp_noRW	34	Rpleas_acq	CS_A	CPPC	ZHHZ	LWWL	JQQJ	YFFY	DXXD	gütig	genießen	küssen	vertrauen	sonnig	träumen	gierig	gemein	krank	versagen	sterben	töten	47pct	acq_USunple_CSunple2_noRW	acq23456_noRW	2	39	0	0	300	300	514	46	0	1	1	blank2r.bmp	0	1	+	0	1	blank2r.bmp	252	1	JQQJ	306	3	töten	559	0	0	0	0	0	0	0	0	0	0	0	0	0	0	0	0	0	0	0	0	0	0	0	0	0	0	0	0	0	0	0	0	0	0	0	0	0	0	0
071019	10:46:43	10:52:04	320615	5.0.10.0	5_exp_noRW	34	Rpleas_acq	CS_A	CPPC	ZHHZ	LWWL	JQQJ	YFFY	DXXD	gütig	genießen	küssen	vertrauen	sonnig	träumen	gierig	gemein	krank	versagen	sterben	töten	47pct	acq_USpleas_CSunple1_noRW	acq23456_noRW	2	40	0	0	300	300	553	50	0	1	1	blank2r.bmp	0	1	+	0	1	blank2r.bmp	252	1	LWWL	306	1	gütig	559	0	0	0	0	0	0	0	0	0	0	0	0	0	0	0	0	0	0	0	0	0	0	0	0	0	0	0	0	0	0	0	0	0	0	0	0	0	0	0
071019	10:46:43	10:52:06	322067	5.0.10.0	5_exp_noRW	34	Rpleas_acq	CS_A	CPPC	ZHHZ	LWWL	JQQJ	YFFY	DXXD	gütig	genießen	küssen	vertrauen	sonnig	träumen	gierig	gemein	krank	versagen	sterben	töten	53pct	acq_USunple_CSpleas2_noRW	acq23456_noRW	2	41	0	0	300	300	267	46	0	1	1	blank2r.bmp	0	1	+	0	1	blank2r.bmp	252	1	ZHHZ	306	1	versagen	559	0	0	0	0	0	0	0	0	0	0	0	0	0	0	0	0	0	0	0	0	0	0	0	0	0	0	0	0	0	0	0	0	0	0	0	0	0	0	0
071019	10:46:43	10:52:07	323627	5.0.10.0	5_exp_noRW	34	Rpleas_acq	CS_A	CPPC	ZHHZ	LWWL	JQQJ	YFFY	DXXD	gütig	genießen	küssen	vertrauen	sonnig	träumen	gierig	gemein	krank	versagen	sterben	töten	53pct	acq_USpleas_CSpleas2_noRW	acq23456_noRW	2	42	0	0	300	300	385	50	0	1	1	blank2r.bmp	0	1	+	0	1	blank2r.bmp	252	1	ZHHZ	306	1	vertrauen	559	0	0	0	0	0	0	0	0	0	0	0	0	0	0	0	0	0	0	0	0	0	0	0	0	0	0	0	0	0	0	0	0	0	0	0	0	0	0	0
071019	10:46:43	10:52:09	325439	5.0.10.0	5_exp_noRW	34	Rpleas_acq	CS_A	CPPC	ZHHZ	LWWL	JQQJ	YFFY	DXXD	gütig	genießen	küssen	vertrauen	sonnig	träumen	gierig	gemein	krank	versagen	sterben	töten	53pct	acq_USpleas_CSpleas1_noRW	acq23456_noRW	2	43	0	0	300	300	425	46	0	0	1	blank2r.bmp	0	1	+	0	1	blank2r.bmp	252	1	CPPC	306	1	gütig	559	1	FEHLER	1026	0	0	0	0	0	0	0	0	0	0	0	0	0	0	0	0	0	0	0	0	0	0	0	0	0	0	0	0	0	0	0	0	0	0	0	0
071019	10:46:43	10:52:11	327465	5.0.10.0	5_exp_noRW	34	Rpleas_acq	CS_A	CPPC	ZHHZ	LWWL	JQQJ	YFFY	DXXD	gütig	genießen	küssen	vertrauen	sonnig	träumen	gierig	gemein	krank	versagen	sterben	töten	47pct	acq_USunple_CSunple2_noRW	acq23456_noRW	2	44	0	0	300	300	1069	46	0	1	1	blank2r.bmp	0	1	+	0	1	blank2r.bmp	252	1	JQQJ	306	1	versagen	559	0	0	0	0	0	0	0	0	0	0	0	0	0	0	0	0	0	0	0	0	0	0	0	0	0	0	0	0	0	0	0	0	0	0	0	0	0	0	0
071019	10:46:43	10:52:13	329291	5.0.10.0	5_exp_noRW	34	Rpleas_acq	CS_A	CPPC	ZHHZ	LWWL	JQQJ	YFFY	DXXD	gütig	genießen	küssen	vertrauen	sonnig	träumen	gierig	gemein	krank	versagen	sterben	töten	53pct	acq_USunple_CSunple1_noRW	acq23456_noRW	2	45	0	0	300	300	650	46	0	1	1	blank2r.bmp	0	1	+	0	1	blank2r.bmp	252	1	LWWL	306	1	gierig	559	0	0	0	0	0	0	0	0	0	0	0	0	0	0	0	0	0	0	0	0	0	0	0	0	0	0	0	0	0	0	0	0	0	0	0	0	0	0	0
071019	10:46:43	10:52:15	331130	5.0.10.0	5_exp_noRW	34	Rpleas_acq	CS_A	CPPC	ZHHZ	LWWL	JQQJ	YFFY	DXXD	gütig	genießen	küssen	vertrauen	sonnig	träumen	gierig	gemein	krank	versagen	sterben	töten	53pct	acq_USpleas_CSunple1_noRW	acq23456_noRW	2	46	0	0	300	300	651	50	0	1	1	blank2r.bmp	0	1	+	0	1	blank2r.bmp	252	1	LWWL	306	1	gütig	559	0	0	0	0	0	0	0	0	0	0	0	0	0	0	0	0	0	0	0	0	0	0	0	0	0	0	0	0	0	0	0	0	0	0	0	0	0	0	0
071019	10:46:43	10:52:17	332983	5.0.10.0	5_exp_noRW	34	Rpleas_acq	CS_A	CPPC	ZHHZ	LWWL	JQQJ	YFFY	DXXD	gütig	genießen	küssen	vertrauen	sonnig	träumen	gierig	gemein	krank	versagen	sterben	töten	47pct	acq_USunple_CSpleas1_noRW	acq23456_noRW	2	47	0	0	300	300	684	46	0	1	1	blank2r.bmp	0	1	+	0	1	blank2r.bmp	252	1	CPPC	306	1	gierig	559	0	0	0	0	0	0	0	0	0	0	0	0	0	0	0	0	0	0	0	0	0	0	0	0	0	0	0	0	0	0	0	0	0	0	0	0	0	0	0
071019	10:46:43	10:52:18	334636	5.0.10.0	5_exp_noRW	34	Rpleas_acq	CS_A	CPPC	ZHHZ	LWWL	JQQJ	YFFY	DXXD	gütig	genießen	küssen	vertrauen	sonnig	träumen	gierig	gemein	krank	versagen	sterben	töten	53pct	acq_USpleas_CSpleas2_noRW	acq23456_noRW	2	48	0	0	300	300	491	50	0	1	1	blank2r.bmp	0	1	+	0	1	blank2r.bmp	252	1	ZHHZ	306	2	sonnig	559	0	0	0	0	0	0	0	0	0	0	0	0	0	0	0	0	0	0	0	0	0	0	0	0	0	0	0	0	0	0	0	0	0	0	0	0	0	0	0
071019	10:46:43	10:52:20	336462	5.0.10.0	5_exp_noRW	34	Rpleas_acq	CS_A	CPPC	ZHHZ	LWWL	JQQJ	YFFY	DXXD	gütig	genießen	küssen	vertrauen	sonnig	träumen	gierig	gemein	krank	versagen	sterben	töten	53pct	acq_USpleas_CSpleas1_noRW	acq23456_noRW	2	49	0	0	300	300	640	50	0	1	1	blank2r.bmp	0	1	+	0	1	blank2r.bmp	252	1	CPPC	306	3	küssen	559	0	0	0	0	0	0	0	0	0	0	0	0	0	0	0	0	0	0	0	0	0	0	0	0	0	0	0	0	0	0	0	0	0	0	0	0	0	0	0
071019	10:46:43	10:52:22	338234	5.0.10.0	5_exp_noRW	34	Rpleas_acq	CS_A	CPPC	ZHHZ	LWWL	JQQJ	YFFY	DXXD	gütig	genießen	küssen	vertrauen	sonnig	träumen	gierig	gemein	krank	versagen	sterben	töten	53pct	acq_USpleas_CSunple2_noRW	acq23456_noRW	2	50	0	0	300	300	602	50	0	1	1	blank2r.bmp	0	1	+	0	1	blank2r.bmp	252	1	JQQJ	306	2	sonnig	559	0	0	0	0	0	0	0	0	0	0	0	0	0	0	0	0	0	0	0	0	0	0	0	0	0	0	0	0	0	0	0	0	0	0	0	0	0	0	0
071019	10:46:43	10:52:24	339967	5.0.10.0	5_exp_noRW	34	Rpleas_acq	CS_A	CPPC	ZHHZ	LWWL	JQQJ	YFFY	DXXD	gütig	genießen	küssen	vertrauen	sonnig	träumen	gierig	gemein	krank	versagen	sterben	töten	47pct	acq_USunple_CSunple1_noRW	acq23456_noRW	2	51	0	0	300	300	562	46	0	1	1	blank2r.bmp	0	1	+	0	1	blank2r.bmp	252	1	LWWL	306	2	gemein	559	0	0	0	0	0	0	0	0	0	0	0	0	0	0	0	0	0	0	0	0	0	0	0	0	0	0	0	0	0	0	0	0	0	0	0	0	0	0	0
071019	10:46:43	10:52:25	341593	5.0.10.0	5_exp_noRW	34	Rpleas_acq	CS_A	CPPC	ZHHZ	LWWL	JQQJ	YFFY	DXXD	gütig	genießen	küssen	vertrauen	sonnig	träumen	gierig	gemein	krank	versagen	sterben	töten	53pct	acq_USpleas_CSpleas1_noRW	acq23456_noRW	2	52	0	0	300	300	459	50	0	1	1	blank2r.bmp	0	1	+	0	1	blank2r.bmp	252	1	CPPC	306	2	genießen	559	0	0	0	0	0	0	0	0	0	0	0	0	0	0	0	0	0	0	0	0	0	0	0	0	0	0	0	0	0	0	0	0	0	0	0	0	0	0	0
071019	10:46:43	10:52:27	343499	5.0.10.0	5_exp_noRW	34	Rpleas_acq	CS_A	CPPC	ZHHZ	LWWL	JQQJ	YFFY	DXXD	gütig	genießen	küssen	vertrauen	sonnig	träumen	gierig	gemein	krank	versagen	sterben	töten	53pct	acq_USunple_CSunple1_noRW	acq23456_noRW	2	53	0	0	300	300	736	46	0	1	1	blank2r.bmp	0	1	+	0	1	blank2r.bmp	252	1	LWWL	306	3	krank	559	0	0	0	0	0	0	0	0	0	0	0	0	0	0	0	0	0	0	0	0	0	0	0	0	0	0	0	0	0	0	0	0	0	0	0	0	0	0	0
071019	10:46:43	10:52:29	345338	5.0.10.0	5_exp_noRW	34	Rpleas_acq	CS_A	CPPC	ZHHZ	LWWL	JQQJ	YFFY	DXXD	gütig	genießen	küssen	vertrauen	sonnig	träumen	gierig	gemein	krank	versagen	sterben	töten	53pct	acq_USunple_CSunple1_noRW	acq23456_noRW	2	54	0	0	300	300	677	46	0	1	1	blank2r.bmp	0	1	+	0	1	blank2r.bmp	252	1	LWWL	306	2	gemein	559	0	0	0	0	0	0	0	0	0	0	0	0	0	0	0	0	0	0	0	0	0	0	0	0	0	0	0	0	0	0	0	0	0	0	0	0	0	0	0
071019	10:46:43	10:52:31	347004	5.0.10.0	5_exp_noRW	34	Rpleas_acq	CS_A	CPPC	ZHHZ	LWWL	JQQJ	YFFY	DXXD	gütig	genießen	küssen	vertrauen	sonnig	träumen	gierig	gemein	krank	versagen	sterben	töten	47pct	acq_USpleas_CSpleas2_noRW	acq23456_noRW	2	55	0	0	300	300	478	50	0	1	1	blank2r.bmp	0	1	+	0	1	blank2r.bmp	252	1	ZHHZ	306	3	träumen	559	0	0	0	0	0	0	0	0	0	0	0	0	0	0	0	0	0	0	0	0	0	0	0	0	0	0	0	0	0	0	0	0	0	0	0	0	0	0	0
071019	10:46:43	10:52:32	348723	5.0.10.0	5_exp_noRW	34	Rpleas_acq	CS_A	CPPC	ZHHZ	LWWL	JQQJ	YFFY	DXXD	gütig	genießen	küssen	vertrauen	sonnig	träumen	gierig	gemein	krank	versagen	sterben	töten	53pct	acq_USpleas_CSpleas2_noRW	acq23456_noRW	2	56	0	0	300	300	552	50	0	1	1	blank2r.bmp	0	1	+	0	1	blank2r.bmp	252	1	ZHHZ	306	2	sonnig	559	0	0	0	0	0	0	0	0	0	0	0	0	0	0	0	0	0	0	0	0	0	0	0	0	0	0	0	0	0	0	0	0	0	0	0	0	0	0	0
071019	10:46:43	10:52:34	350402	5.0.10.0	5_exp_noRW	34	Rpleas_acq	CS_A	CPPC	ZHHZ	LWWL	JQQJ	YFFY	DXXD	gütig	genießen	küssen	vertrauen	sonnig	träumen	gierig	gemein	krank	versagen	sterben	töten	53pct	acq_USunple_CSunple2_noRW	acq23456_noRW	2	57	0	0	300	300	513	46	0	1	1	blank2r.bmp	0	1	+	0	1	blank2r.bmp	252	1	JQQJ	306	3	töten	559	0	0	0	0	0	0	0	0	0	0	0	0	0	0	0	0	0	0	0	0	0	0	0	0	0	0	0	0	0	0	0	0	0	0	0	0	0	0	0
071019	10:46:43	10:52:36	352068	5.0.10.0	5_exp_noRW	34	Rpleas_acq	CS_A	CPPC	ZHHZ	LWWL	JQQJ	YFFY	DXXD	gütig	genießen	küssen	vertrauen	sonnig	träumen	gierig	gemein	krank	versagen	sterben	töten	47pct	acq_USpleas_CSpleas1_noRW	acq23456_noRW	2	58	0	0	300	300	493	50	0	1	1	blank2r.bmp	0	1	+	0	1	blank2r.bmp	252	1	CPPC	306	3	küssen	559	0	0	0	0	0	0	0	0	0	0	0	0	0	0	0	0	0	0	0	0	0	0	0	0	0	0	0	0	0	0	0	0	0	0	0	0	0	0	0
071019	10:46:43	10:52:37	353734	5.0.10.0	5_exp_noRW	34	Rpleas_acq	CS_A	CPPC	ZHHZ	LWWL	JQQJ	YFFY	DXXD	gütig	genießen	küssen	vertrauen	sonnig	träumen	gierig	gemein	krank	versagen	sterben	töten	53pct	acq_USunple_CSunple2_noRW	acq23456_noRW	2	59	0	0	300	300	484	46	0	1	1	blank2r.bmp	0	1	+	0	1	blank2r.bmp	252	1	JQQJ	306	2	sterben	559	0	0	0	0	0	0	0	0	0	0	0	0	0	0	0	0	0	0	0	0	0	0	0	0	0	0	0	0	0	0	0	0	0	0	0	0	0	0	0
071019	10:46:43	10:52:39	355574	5.0.10.0	5_exp_noRW	34	Rpleas_acq	CS_A	CPPC	ZHHZ	LWWL	JQQJ	YFFY	DXXD	gütig	genießen	küssen	vertrauen	sonnig	träumen	gierig	gemein	krank	versagen	sterben	töten	53pct	acq_USunple_CSunple2_noRW	acq23456_noRW	2	60	0	0	300	300	450	50	0	0	1	blank2r.bmp	0	1	+	0	1	blank2r.bmp	252	1	JQQJ	306	3	töten	559	1	FEHLER	1039	0	0	0	0	0	0	0	0	0	0	0	0	0	0	0	0	0	0	0	0	0	0	0	0	0	0	0	0	0	0	0	0	0	0	0	0
071019	10:46:43	10:52:41	357000	5.0.10.0	5_exp_noRW	34	Rpleas_acq	CS_A	CPPC	ZHHZ	LWWL	JQQJ	YFFY	DXXD	gütig	genießen	küssen	vertrauen	sonnig	träumen	gierig	gemein	krank	versagen	sterben	töten	47pct	acq_USpleas_CSpleas2_noRW	acq23456_noRW	2	61	0	0	300	300	460	50	0	1	1	blank2r.bmp	0	1	+	0	1	blank2r.bmp	252	1	ZHHZ	306	3	träumen	559	0	0	0	0	0	0	0	0	0	0	0	0	0	0	0	0	0	0	0	0	0	0	0	0	0	0	0	0	0	0	0	0	0	0	0	0	0	0	0
071019	10:46:43	10:52:43	358879	5.0.10.0	5_exp_noRW	34	Rpleas_acq	CS_A	CPPC	ZHHZ	LWWL	JQQJ	YFFY	DXXD	gütig	genießen	küssen	vertrauen	sonnig	träumen	gierig	gemein	krank	versagen	sterben	töten	47pct	acq_USunple_CSunple1_noRW	acq23456_noRW	2	62	0	0	300	300	703	46	0	1	1	blank2r.bmp	0	1	+	0	1	blank2r.bmp	252	1	LWWL	306	3	krank	559	0	0	0	0	0	0	0	0	0	0	0	0	0	0	0	0	0	0	0	0	0	0	0	0	0	0	0	0	0	0	0	0	0	0	0	0	0	0	0
071019	10:46:43	10:52:44	360572	5.0.10.0	5_exp_noRW	34	Rpleas_acq	CS_A	CPPC	ZHHZ	LWWL	JQQJ	YFFY	DXXD	gütig	genießen	küssen	vertrauen	sonnig	träumen	gierig	gemein	krank	versagen	sterben	töten	53pct	acq_USpleas_CSpleas2_noRW	acq23456_noRW	2	63	0	0	300	300	507	50	0	1	1	blank2r.bmp	0	1	+	0	1	blank2r.bmp	252	1	ZHHZ	306	1	vertrauen	559	0	0	0	0	0	0	0	0	0	0	0	0	0	0	0	0	0	0	0	0	0	0	0	0	0	0	0	0	0	0	0	0	0	0	0	0	0	0	0
071019	10:46:43	10:52:46	362251	5.0.10.0	5_exp_noRW	34	Rpleas_acq	CS_A	CPPC	ZHHZ	LWWL	JQQJ	YFFY	DXXD	gütig	genießen	küssen	vertrauen	sonnig	träumen	gierig	gemein	krank	versagen	sterben	töten	53pct	acq_USpleas_CSunple2_noRW	acq23456_noRW	2	64	0	0	300	300	496	50	0	1	1	blank2r.bmp	0	1	+	0	1	blank2r.bmp	252	1	JQQJ	306	1	vertrauen	559	0	0	0	0	0	0	0	0	0	0	0	0	0	0	0	0	0	0	0	0	0	0	0	0	0	0	0	0	0	0	0	0	0	0	0	0	0	0	0
071019	10:46:43	10:52:48	363957	5.0.10.0	5_exp_noRW	34	Rpleas_acq	CS_A	CPPC	ZHHZ	LWWL	JQQJ	YFFY	DXXD	gütig	genießen	küssen	vertrauen	sonnig	träumen	gierig	gemein	krank	versagen	sterben	töten	53pct	acq_USunple_CSunple2_noRW	acq23456_noRW	2	65	0	0	300	300	540	46	0	1	1	blank2r.bmp	0	1	+	0	1	blank2r.bmp	252	1	JQQJ	306	1	versagen	559	0	0	0	0	0	0	0	0	0	0	0	0	0	0	0	0	0	0	0	0	0	0	0	0	0	0	0	0	0	0	0	0	0	0	0	0	0	0	0
071019	10:46:43	10:52:49	365809	5.0.10.0	5_exp_noRW	34	Rpleas_acq	CS_A	CPPC	ZHHZ	LWWL	JQQJ	YFFY	DXXD	gütig	genießen	küssen	vertrauen	sonnig	träumen	gierig	gemein	krank	versagen	sterben	töten	53pct	acq_USunple_CSunple1_noRW	acq23456_noRW	2	66	0	0	300	300	665	46	0	1	1	blank2r.bmp	0	1	+	0	1	blank2r.bmp	252	1	LWWL	306	1	gierig	559	0	0	0	0	0	0	0	0	0	0	0	0	0	0	0	0	0	0	0	0	0	0	0	0	0	0	0	0	0	0	0	0	0	0	0	0	0	0	0
071019	10:46:43	10:52:51	367475	5.0.10.0	5_exp_noRW	34	Rpleas_acq	CS_A	CPPC	ZHHZ	LWWL	JQQJ	YFFY	DXXD	gütig	genießen	küssen	vertrauen	sonnig	träumen	gierig	gemein	krank	versagen	sterben	töten	47pct	acq_USpleas_CSpleas1_noRW	acq23456_noRW	2	67	0	0	300	300	498	50	0	1	1	blank2r.bmp	0	1	+	0	1	blank2r.bmp	252	1	CPPC	306	2	genießen	559	0	0	0	0	0	0	0	0	0	0	0	0	0	0	0	0	0	0	0	0	0	0	0	0	0	0	0	0	0	0	0	0	0	0	0	0	0	0	0
071019	10:46:43	10:52:53	369155	5.0.10.0	5_exp_noRW	34	Rpleas_acq	CS_A	CPPC	ZHHZ	LWWL	JQQJ	YFFY	DXXD	gütig	genießen	küssen	vertrauen	sonnig	träumen	gierig	gemein	krank	versagen	sterben	töten	53pct	acq_USpleas_CSunple1_noRW	acq23456_noRW	2	68	0	0	300	300	508	50	0	1	1	blank2r.bmp	0	1	+	0	1	blank2r.bmp	252	1	LWWL	306	3	küssen	559	0	0	0	0	0	0	0	0	0	0	0	0	0	0	0	0	0	0	0	0	0	0	0	0	0	0	0	0	0	0	0	0	0	0	0	0	0	0	0
071019	10:46:43	10:52:54	370754	5.0.10.0	5_exp_noRW	34	Rpleas_acq	CS_A	CPPC	ZHHZ	LWWL	JQQJ	YFFY	DXXD	gütig	genießen	küssen	vertrauen	sonnig	träumen	gierig	gemein	krank	versagen	sterben	töten	53pct	acq_USpleas_CSpleas2_noRW	acq23456_noRW	2	69	0	0	300	300	427	50	0	1	1	blank2r.bmp	0	1	+	0	1	blank2r.bmp	252	1	ZHHZ	306	3	träumen	559	0	0	0	0	0	0	0	0	0	0	0	0	0	0	0	0	0	0	0	0	0	0	0	0	0	0	0	0	0	0	0	0	0	0	0	0	0	0	0
071019	10:46:43	10:52:56	372407	5.0.10.0	5_exp_noRW	34	Rpleas_acq	CS_A	CPPC	ZHHZ	LWWL	JQQJ	YFFY	DXXD	gütig	genießen	küssen	vertrauen	sonnig	träumen	gierig	gemein	krank	versagen	sterben	töten	53pct	acq_USpleas_CSpleas1_noRW	acq23456_noRW	2	70	0	0	300	300	490	50	0	1	1	blank2r.bmp	0	1	+	0	1	blank2r.bmp	252	1	CPPC	306	1	gütig	559	0	0	0	0	0	0	0	0	0	0	0	0	0	0	0	0	0	0	0	0	0	0	0	0	0	0	0	0	0	0	0	0	0	0	0	0	0	0	0
071019	10:46:43	10:52:58	374193	5.0.10.0	5_exp_noRW	34	Rpleas_acq	CS_A	CPPC	ZHHZ	LWWL	JQQJ	YFFY	DXXD	gütig	genießen	küssen	vertrauen	sonnig	träumen	gierig	gemein	krank	versagen	sterben	töten	47pct	acq_USunple_CSunple1_noRW	acq23456_noRW	2	71	0	0	300	300	601	46	0	1	1	blank2r.bmp	0	1	+	0	1	blank2r.bmp	252	1	LWWL	306	1	gierig	559	0	0	0	0	0	0	0	0	0	0	0	0	0	0	0	0	0	0	0	0	0	0	0	0	0	0	0	0	0	0	0	0	0	0	0	0	0	0	0
071019	10:46:43	10:52:59	375712	5.0.10.0	5_exp_noRW	34	Rpleas_acq	CS_A	CPPC	ZHHZ	LWWL	JQQJ	YFFY	DXXD	gütig	genießen	küssen	vertrauen	sonnig	träumen	gierig	gemein	krank	versagen	sterben	töten	47pct	acq_USunple_CSpleas1_noRW	acq23456_noRW	2	72	0	0	300	300	347	46	0	1	1	blank2r.bmp	0	1	+	0	1	blank2r.bmp	252	1	CPPC	306	3	krank	559	0	0	0	0	0	0	0	0	0	0	0	0	0	0	0	0	0	0	0	0	0	0	0	0	0	0	0	0	0	0	0	0	0	0	0	0	0	0	0
071019	10:46:43	10:53:01	377232	5.0.10.0	5_exp_noRW	34	Rpleas_acq	CS_A	CPPC	ZHHZ	LWWL	JQQJ	YFFY	DXXD	gütig	genießen	küssen	vertrauen	sonnig	träumen	gierig	gemein	krank	versagen	sterben	töten	47pct	acq_USunple_CSunple2_noRW	acq23456_noRW	2	73	0	0	300	300	355	46	0	1	1	blank2r.bmp	0	1	+	0	1	blank2r.bmp	252	1	JQQJ	306	2	sterben	559	0	0	0	0	0	0	0	0	0	0	0	0	0	0	0	0	0	0	0	0	0	0	0	0	0	0	0	0	0	0	0	0	0	0	0	0	0	0	0
071019	10:46:43	10:53:03	378977	5.0.10.0	5_exp_noRW	34	Rpleas_acq	CS_A	CPPC	ZHHZ	LWWL	JQQJ	YFFY	DXXD	gütig	genießen	küssen	vertrauen	sonnig	träumen	gierig	gemein	krank	versagen	sterben	töten	53pct	acq_USunple_CSunple1_noRW	acq23456_noRW	2	74	0	0	300	300	560	46	0	1	1	blank2r.bmp	0	1	+	0	1	blank2r.bmp	252	1	LWWL	306	3	krank	559	0	0	0	0	0	0	0	0	0	0	0	0	0	0	0	0	0	0	0	0	0	0	0	0	0	0	0	0	0	0	0	0	0	0	0	0	0	0	0
071019	10:46:43	10:53:04	380750	5.0.10.0	5_exp_noRW	34	Rpleas_acq	CS_A	CPPC	ZHHZ	LWWL	JQQJ	YFFY	DXXD	gütig	genießen	küssen	vertrauen	sonnig	träumen	gierig	gemein	krank	versagen	sterben	töten	47pct	acq_USpleas_CSpleas1_noRW	acq23456_noRW	2	75	0	0	300	300	585	50	0	1	1	blank2r.bmp	0	1	+	0	1	blank2r.bmp	252	1	CPPC	306	2	genießen	559	0	0	0	0	0	0	0	0	0	0	0	0	0	0	0	0	0	0	0	0	0	0	0	0	0	0	0	0	0	0	0	0	0	0	0	0	0	0	0
071019	10:46:43	10:53:06	382469	5.0.10.0	5_exp_noRW	34	Rpleas_acq	CS_A	CPPC	ZHHZ	LWWL	JQQJ	YFFY	DXXD	gütig	genießen	küssen	vertrauen	sonnig	träumen	gierig	gemein	krank	versagen	sterben	töten	47pct	acq_USunple_CSpleas2_noRW	acq23456_noRW	2	76	0	0	300	300	552	46	0	1	1	blank2r.bmp	0	1	+	0	1	blank2r.bmp	252	1	ZHHZ	306	2	sterben	559	0	0	0	0	0	0	0	0	0	0	0	0	0	0	0	0	0	0	0	0	0	0	0	0	0	0	0	0	0	0	0	0	0	0	0	0	0	0	0
071019	10:46:43	10:53:08	384349	5.0.10.0	5_exp_noRW	34	Rpleas_acq	CS_A	CPPC	ZHHZ	LWWL	JQQJ	YFFY	DXXD	gütig	genießen	küssen	vertrauen	sonnig	träumen	gierig	gemein	krank	versagen	sterben	töten	53pct	acq_USpleas_CSpleas2_noRW	acq23456_noRW	2	77	0	0	300	300	692	50	0	1	1	blank2r.bmp	0	1	+	0	1	blank2r.bmp	252	1	ZHHZ	306	1	vertrauen	559	0	0	0	0	0	0	0	0	0	0	0	0	0	0	0	0	0	0	0	0	0	0	0	0	0	0	0	0	0	0	0	0	0	0	0	0	0	0	0
071019	10:46:43	10:53:10	386574	5.0.10.0	5_exp_noRW	34	Rpleas_acq	CS_A	CPPC	ZHHZ	LWWL	JQQJ	YFFY	DXXD	gütig	genießen	küssen	vertrauen	sonnig	träumen	gierig	gemein	krank	versagen	sterben	töten	53pct	acq_USunple_CSunple2_noRW	acq23456_noRW	2	78	0	0	300	300	1063	46	0	1	1	blank2r.bmp	0	1	+	0	1	blank2r.bmp	252	1	JQQJ	306	3	töten	559	0	0	0	0	0	0	0	0	0	0	0	0	0	0	0	0	0	0	0	0	0	0	0	0	0	0	0	0	0	0	0	0	0	0	0	0	0	0	0
071019	10:46:43	10:53:12	388174	5.0.10.0	5_exp_noRW	34	Rpleas_acq	CS_A	CPPC	ZHHZ	LWWL	JQQJ	YFFY	DXXD	gütig	genießen	küssen	vertrauen	sonnig	träumen	gierig	gemein	krank	versagen	sterben	töten	53pct	acq_USpleas_CSpleas1_noRW	acq23456_noRW	2	79	0	0	300	300	412	50	0	1	1	blank2r.bmp	0	1	+	0	1	blank2r.bmp	252	1	CPPC	306	1	gütig	559	0	0	0	0	0	0	0	0	0	0	0	0	0	0	0	0	0	0	0	0	0	0	0	0	0	0	0	0	0	0	0	0	0	0	0	0	0	0	0
071019	10:46:43	10:53:14	389893	5.0.10.0	5_exp_noRW	34	Rpleas_acq	CS_A	CPPC	ZHHZ	LWWL	JQQJ	YFFY	DXXD	gütig	genießen	küssen	vertrauen	sonnig	träumen	gierig	gemein	krank	versagen	sterben	töten	53pct	acq_USunple_CSunple2_noRW	acq23456_noRW	2	80	0	0	300	300	555	46	0	1	1	blank2r.bmp	0	1	+	0	1	blank2r.bmp	252	1	JQQJ	306	2	sterben	559	0	0	0	0	0	0	0	0	0	0	0	0	0	0	0	0	0	0	0	0	0	0	0	0	0	0	0	0	0	0	0	0	0	0	0	0	0	0	0
071019	10:46:43	10:53:29	404847	5.0.10.0	5_exp_noRW	34	Rpleas_acq	CS_A	CPPC	ZHHZ	LWWL	JQQJ	YFFY	DXXD	gütig	genießen	küssen	vertrauen	sonnig	träumen	gierig	gemein	krank	versagen	sterben	töten	47pct	acq_USunple_CSunple2_noRW	acq23456_noRW	3	1	0	0	300	300	720	46	0	1	1	blank2r.bmp	0	1	+	0	1	blank2r.bmp	252	1	JQQJ	306	1	versagen	559	0	0	0	0	0	0	0	0	0	0	0	0	0	0	0	0	0	0	0	0	0	0	0	0	0	0	0	0	0	0	0	0	0	0	0	0	0	0	0
071019	10:46:43	10:53:30	406473	5.0.10.0	5_exp_noRW	34	Rpleas_acq	CS_A	CPPC	ZHHZ	LWWL	JQQJ	YFFY	DXXD	gütig	genießen	küssen	vertrauen	sonnig	träumen	gierig	gemein	krank	versagen	sterben	töten	47pct	acq_USpleas_CSpleas1_noRW	acq23456_noRW	3	2	0	0	300	300	456	50	0	1	1	blank2r.bmp	0	1	+	0	1	blank2r.bmp	252	1	CPPC	306	3	küssen	559	0	0	0	0	0	0	0	0	0	0	0	0	0	0	0	0	0	0	0	0	0	0	0	0	0	0	0	0	0	0	0	0	0	0	0	0	0	0	0
071019	10:46:43	10:53:32	408245	5.0.10.0	5_exp_noRW	34	Rpleas_acq	CS_A	CPPC	ZHHZ	LWWL	JQQJ	YFFY	DXXD	gütig	genießen	küssen	vertrauen	sonnig	träumen	gierig	gemein	krank	versagen	sterben	töten	53pct	acq_USunple_CSpleas2_noRW	acq23456_noRW	3	3	0	0	300	300	611	46	0	1	1	blank2r.bmp	0	1	+	0	1	blank2r.bmp	252	1	ZHHZ	306	3	töten	559	0	0	0	0	0	0	0	0	0	0	0	0	0	0	0	0	0	0	0	0	0	0	0	0	0	0	0	0	0	0	0	0	0	0	0	0	0	0	0
071019	10:46:43	10:53:34	410005	5.0.10.0	5_exp_noRW	34	Rpleas_acq	CS_A	CPPC	ZHHZ	LWWL	JQQJ	YFFY	DXXD	gütig	genießen	küssen	vertrauen	sonnig	träumen	gierig	gemein	krank	versagen	sterben	töten	53pct	acq_USpleas_CSpleas1_noRW	acq23456_noRW	3	4	0	0	300	300	574	50	0	1	1	blank2r.bmp	0	1	+	0	1	blank2r.bmp	252	1	CPPC	306	2	genießen	559	0	0	0	0	0	0	0	0	0	0	0	0	0	0	0	0	0	0	0	0	0	0	0	0	0	0	0	0	0	0	0	0	0	0	0	0	0	0	0
071019	10:46:43	10:53:35	411697	5.0.10.0	5_exp_noRW	34	Rpleas_acq	CS_A	CPPC	ZHHZ	LWWL	JQQJ	YFFY	DXXD	gütig	genießen	küssen	vertrauen	sonnig	träumen	gierig	gemein	krank	versagen	sterben	töten	53pct	acq_USpleas_CSunple1_noRW	acq23456_noRW	3	5	0	0	300	300	514	50	0	1	1	blank2r.bmp	0	1	+	0	1	blank2r.bmp	252	1	LWWL	306	2	genießen	559	0	0	0	0	0	0	0	0	0	0	0	0	0	0	0	0	0	0	0	0	0	0	0	0	0	0	0	0	0	0	0	0	0	0	0	0	0	0	0
071019	10:46:43	10:53:38	414083	5.0.10.0	5_exp_noRW	34	Rpleas_acq	CS_A	CPPC	ZHHZ	LWWL	JQQJ	YFFY	DXXD	gütig	genießen	küssen	vertrauen	sonnig	träumen	gierig	gemein	krank	versagen	sterben	töten	47pct	acq_USpleas_CSunple2_noRW	acq23456_noRW	3	6	0	0	300	300	1204	50	0	1	1	blank2r.bmp	0	1	+	0	1	blank2r.bmp	252	1	JQQJ	306	3	träumen	559	0	0	0	0	0	0	0	0	0	0	0	0	0	0	0	0	0	0	0	0	0	0	0	0	0	0	0	0	0	0	0	0	0	0	0	0	0	0	0
071019	10:46:43	10:53:39	415816	5.0.10.0	5_exp_noRW	34	Rpleas_acq	CS_A	CPPC	ZHHZ	LWWL	JQQJ	YFFY	DXXD	gütig	genießen	küssen	vertrauen	sonnig	träumen	gierig	gemein	krank	versagen	sterben	töten	47pct	acq_USunple_CSpleas1_noRW	acq23456_noRW	3	7	0	0	300	300	563	46	0	1	1	blank2r.bmp	0	1	+	0	1	blank2r.bmp	252	1	CPPC	306	2	gemein	559	0	0	0	0	0	0	0	0	0	0	0	0	0	0	0	0	0	0	0	0	0	0	0	0	0	0	0	0	0	0	0	0	0	0	0	0	0	0	0
071019	10:46:43	10:53:41	417415	5.0.10.0	5_exp_noRW	34	Rpleas_acq	CS_A	CPPC	ZHHZ	LWWL	JQQJ	YFFY	DXXD	gütig	genießen	küssen	vertrauen	sonnig	träumen	gierig	gemein	krank	versagen	sterben	töten	47pct	acq_USunple_CSunple1_noRW	acq23456_noRW	3	8	0	0	300	300	430	46	0	1	1	blank2r.bmp	0	1	+	0	1	blank2r.bmp	252	1	LWWL	306	2	gemein	559	0	0	0	0	0	0	0	0	0	0	0	0	0	0	0	0	0	0	0	0	0	0	0	0	0	0	0	0	0	0	0	0	0	0	0	0	0	0	0
071019	10:46:43	10:53:43	419241	5.0.10.0	5_exp_noRW	34	Rpleas_acq	CS_A	CPPC	ZHHZ	LWWL	JQQJ	YFFY	DXXD	gütig	genießen	küssen	vertrauen	sonnig	träumen	gierig	gemein	krank	versagen	sterben	töten	47pct	acq_USunple_CSunple2_noRW	acq23456_noRW	3	9	0	0	300	300	644	46	0	1	1	blank2r.bmp	0	1	+	0	1	blank2r.bmp	252	1	JQQJ	306	1	versagen	559	0	0	0	0	0	0	0	0	0	0	0	0	0	0	0	0	0	0	0	0	0	0	0	0	0	0	0	0	0	0	0	0	0	0	0	0	0	0	0
071019	10:46:43	10:53:46	421893	5.0.10.0	5_exp_noRW	34	Rpleas_acq	CS_A	CPPC	ZHHZ	LWWL	JQQJ	YFFY	DXXD	gütig	genießen	küssen	vertrauen	sonnig	träumen	gierig	gemein	krank	versagen	sterben	töten	53pct	acq_USpleas_CSpleas1_noRW	acq23456_noRW	3	10	0	0	300	300	1473	50	0	1	1	blank2r.bmp	0	1	+	0	1	blank2r.bmp	252	1	CPPC	306	3	küssen	559	0	0	0	0	0	0	0	0	0	0	0	0	0	0	0	0	0	0	0	0	0	0	0	0	0	0	0	0	0	0	0	0	0	0	0	0	0	0	0
071019	10:46:43	10:53:48	423866	5.0.10.0	5_exp_noRW	34	Rpleas_acq	CS_A	CPPC	ZHHZ	LWWL	JQQJ	YFFY	DXXD	gütig	genießen	küssen	vertrauen	sonnig	träumen	gierig	gemein	krank	versagen	sterben	töten	53pct	acq_USpleas_CSpleas2_noRW	acq23456_noRW	3	11	0	0	300	300	786	50	0	1	1	blank2r.bmp	0	1	+	0	1	blank2r.bmp	252	1	ZHHZ	306	2	sonnig	559	0	0	0	0	0	0	0	0	0	0	0	0	0	0	0	0	0	0	0	0	0	0	0	0	0	0	0	0	0	0	0	0	0	0	0	0	0	0	0
071019	10:46:43	10:53:49	425518	5.0.10.0	5_exp_noRW	34	Rpleas_acq	CS_A	CPPC	ZHHZ	LWWL	JQQJ	YFFY	DXXD	gütig	genießen	küssen	vertrauen	sonnig	träumen	gierig	gemein	krank	versagen	sterben	töten	53pct	acq_USpleas_CSpleas1_noRW	acq23456_noRW	3	12	0	0	300	300	480	50	0	1	1	blank2r.bmp	0	1	+	0	1	blank2r.bmp	252	1	CPPC	306	1	gütig	559	0	0	0	0	0	0	0	0	0	0	0	0	0	0	0	0	0	0	0	0	0	0	0	0	0	0	0	0	0	0	0	0	0	0	0	0	0	0	0
071019	10:46:43	10:53:51	427224	5.0.10.0	5_exp_noRW	34	Rpleas_acq	CS_A	CPPC	ZHHZ	LWWL	JQQJ	YFFY	DXXD	gütig	genießen	küssen	vertrauen	sonnig	träumen	gierig	gemein	krank	versagen	sterben	töten	53pct	acq_USunple_CSunple1_noRW	acq23456_noRW	3	13	0	0	300	300	541	46	0	1	1	blank2r.bmp	0	1	+	0	1	blank2r.bmp	252	1	LWWL	306	3	krank	559	0	0	0	0	0	0	0	0	0	0	0	0	0	0	0	0	0	0	0	0	0	0	0	0	0	0	0	0	0	0	0	0	0	0	0	0	0	0	0
071019	10:46:43	10:53:52	428837	5.0.10.0	5_exp_noRW	34	Rpleas_acq	CS_A	CPPC	ZHHZ	LWWL	JQQJ	YFFY	DXXD	gütig	genießen	küssen	vertrauen	sonnig	träumen	gierig	gemein	krank	versagen	sterben	töten	53pct	acq_USpleas_CSpleas2_noRW	acq23456_noRW	3	14	0	0	300	300	434	50	0	1	1	blank2r.bmp	0	1	+	0	1	blank2r.bmp	252	1	ZHHZ	306	2	sonnig	559	0	0	0	0	0	0	0	0	0	0	0	0	0	0	0	0	0	0	0	0	0	0	0	0	0	0	0	0	0	0	0	0	0	0	0	0	0	0	0
071019	10:46:43	10:53:54	430583	5.0.10.0	5_exp_noRW	34	Rpleas_acq	CS_A	CPPC	ZHHZ	LWWL	JQQJ	YFFY	DXXD	gütig	genießen	küssen	vertrauen	sonnig	träumen	gierig	gemein	krank	versagen	sterben	töten	47pct	acq_USunple_CSunple2_noRW	acq23456_noRW	3	15	0	0	300	300	565	46	0	1	1	blank2r.bmp	0	1	+	0	1	blank2r.bmp	252	1	JQQJ	306	3	töten	559	0	0	0	0	0	0	0	0	0	0	0	0	0	0	0	0	0	0	0	0	0	0	0	0	0	0	0	0	0	0	0	0	0	0	0	0	0	0	0
071019	10:46:43	10:53:56	432396	5.0.10.0	5_exp_noRW	34	Rpleas_acq	CS_A	CPPC	ZHHZ	LWWL	JQQJ	YFFY	DXXD	gütig	genießen	küssen	vertrauen	sonnig	träumen	gierig	gemein	krank	versagen	sterben	töten	53pct	acq_USpleas_CSpleas2_noRW	acq23456_noRW	3	16	0	0	300	300	633	50	0	1	1	blank2r.bmp	0	1	+	0	1	blank2r.bmp	252	1	ZHHZ	306	1	vertrauen	559	0	0	0	0	0	0	0	0	0	0	0	0	0	0	0	0	0	0	0	0	0	0	0	0	0	0	0	0	0	0	0	0	0	0	0	0	0	0	0
071019	10:46:43	10:53:58	434341	5.0.10.0	5_exp_noRW	34	Rpleas_acq	CS_A	CPPC	ZHHZ	LWWL	JQQJ	YFFY	DXXD	gütig	genießen	küssen	vertrauen	sonnig	träumen	gierig	gemein	krank	versagen	sterben	töten	53pct	acq_USunple_CSunple2_noRW	acq23456_noRW	3	17	0	0	300	300	779	46	0	1	1	blank2r.bmp	0	1	+	0	1	blank2r.bmp	252	1	JQQJ	306	2	sterben	559	0	0	0	0	0	0	0	0	0	0	0	0	0	0	0	0	0	0	0	0	0	0	0	0	0	0	0	0	0	0	0	0	0	0	0	0	0	0	0
071019	10:46:43	10:54:00	436407	5.0.10.0	5_exp_noRW	34	Rpleas_acq	CS_A	CPPC	ZHHZ	LWWL	JQQJ	YFFY	DXXD	gütig	genießen	küssen	vertrauen	sonnig	träumen	gierig	gemein	krank	versagen	sterben	töten	53pct	acq_USpleas_CSpleas2_noRW	acq23456_noRW	3	18	0	0	300	300	879	50	0	1	1	blank2r.bmp	0	1	+	0	1	blank2r.bmp	252	1	ZHHZ	306	3	träumen	559	0	0	0	0	0	0	0	0	0	0	0	0	0	0	0	0	0	0	0	0	0	0	0	0	0	0	0	0	0	0	0	0	0	0	0	0	0	0	0
071019	10:46:43	10:54:02	438180	5.0.10.0	5_exp_noRW	34	Rpleas_acq	CS_A	CPPC	ZHHZ	LWWL	JQQJ	YFFY	DXXD	gütig	genießen	küssen	vertrauen	sonnig	träumen	gierig	gemein	krank	versagen	sterben	töten	47pct	acq_USunple_CSunple1_noRW	acq23456_noRW	3	19	0	0	300	300	603	46	0	1	1	blank2r.bmp	0	1	+	0	1	blank2r.bmp	252	1	LWWL	306	1	gierig	559	0	0	0	0	0	0	0	0	0	0	0	0	0	0	0	0	0	0	0	0	0	0	0	0	0	0	0	0	0	0	0	0	0	0	0	0	0	0	0
071019	10:46:43	10:54:04	439899	5.0.10.0	5_exp_noRW	34	Rpleas_acq	CS_A	CPPC	ZHHZ	LWWL	JQQJ	YFFY	DXXD	gütig	genießen	küssen	vertrauen	sonnig	träumen	gierig	gemein	krank	versagen	sterben	töten	47pct	acq_USunple_CSunple1_noRW	acq23456_noRW	3	20	0	0	300	300	533	46	0	1	1	blank2r.bmp	0	1	+	0	1	blank2r.bmp	252	1	LWWL	306	2	gemein	559	0	0	0	0	0	0	0	0	0	0	0	0	0	0	0	0	0	0	0	0	0	0	0	0	0	0	0	0	0	0	0	0	0	0	0	0	0	0	0
071019	10:46:43	10:54:05	441605	5.0.10.0	5_exp_noRW	34	Rpleas_acq	CS_A	CPPC	ZHHZ	LWWL	JQQJ	YFFY	DXXD	gütig	genießen	küssen	vertrauen	sonnig	träumen	gierig	gemein	krank	versagen	sterben	töten	53pct	acq_USpleas_CSpleas2_noRW	acq23456_noRW	3	21	0	0	300	300	532	50	0	1	1	blank2r.bmp	0	1	+	0	1	blank2r.bmp	252	1	ZHHZ	306	1	vertrauen	559	0	0	0	0	0	0	0	0	0	0	0	0	0	0	0	0	0	0	0	0	0	0	0	0	0	0	0	0	0	0	0	0	0	0	0	0	0	0	0
071019	10:46:43	10:54:07	443231	5.0.10.0	5_exp_noRW	34	Rpleas_acq	CS_A	CPPC	ZHHZ	LWWL	JQQJ	YFFY	DXXD	gütig	genießen	küssen	vertrauen	sonnig	träumen	gierig	gemein	krank	versagen	sterben	töten	53pct	acq_USpleas_CSpleas2_noRW	acq23456_noRW	3	22	0	0	300	300	452	50	0	1	1	blank2r.bmp	0	1	+	0	1	blank2r.bmp	252	1	ZHHZ	306	2	sonnig	559	0	0	0	0	0	0	0	0	0	0	0	0	0	0	0	0	0	0	0	0	0	0	0	0	0	0	0	0	0	0	0	0	0	0	0	0	0	0	0
071019	10:46:43	10:54:09	445004	5.0.10.0	5_exp_noRW	34	Rpleas_acq	CS_A	CPPC	ZHHZ	LWWL	JQQJ	YFFY	DXXD	gütig	genießen	küssen	vertrauen	sonnig	träumen	gierig	gemein	krank	versagen	sterben	töten	53pct	acq_USunple_CSunple1_noRW	acq23456_noRW	3	23	0	0	300	300	598	46	0	1	1	blank2r.bmp	0	1	+	0	1	blank2r.bmp	252	1	LWWL	306	2	gemein	559	0	0	0	0	0	0	0	0	0	0	0	0	0	0	0	0	0	0	0	0	0	0	0	0	0	0	0	0	0	0	0	0	0	0	0	0	0	0	0
071019	10:46:43	10:54:11	446936	5.0.10.0	5_exp_noRW	34	Rpleas_acq	CS_A	CPPC	ZHHZ	LWWL	JQQJ	YFFY	DXXD	gütig	genießen	küssen	vertrauen	sonnig	träumen	gierig	gemein	krank	versagen	sterben	töten	53pct	acq_USunple_CSpleas2_noRW	acq23456_noRW	3	24	0	0	300	300	764	46	0	1	1	blank2r.bmp	0	1	+	0	1	blank2r.bmp	252	1	ZHHZ	306	1	versagen	559	0	0	0	0	0	0	0	0	0	0	0	0	0	0	0	0	0	0	0	0	0	0	0	0	0	0	0	0	0	0	0	0	0	0	0	0	0	0	0
071019	10:46:43	10:54:12	448536	5.0.10.0	5_exp_noRW	34	Rpleas_acq	CS_A	CPPC	ZHHZ	LWWL	JQQJ	YFFY	DXXD	gütig	genießen	küssen	vertrauen	sonnig	träumen	gierig	gemein	krank	versagen	sterben	töten	47pct	acq_USpleas_CSunple1_noRW	acq23456_noRW	3	25	0	0	300	300	430	50	0	1	1	blank2r.bmp	0	1	+	0	1	blank2r.bmp	252	1	LWWL	306	2	genießen	559	0	0	0	0	0	0	0	0	0	0	0	0	0	0	0	0	0	0	0	0	0	0	0	0	0	0	0	0	0	0	0	0	0	0	0	0	0	0	0
071019	10:46:43	10:54:14	450175	5.0.10.0	5_exp_noRW	34	Rpleas_acq	CS_A	CPPC	ZHHZ	LWWL	JQQJ	YFFY	DXXD	gütig	genießen	küssen	vertrauen	sonnig	träumen	gierig	gemein	krank	versagen	sterben	töten	47pct	acq_USpleas_CSpleas1_noRW	acq23456_noRW	3	26	0	0	300	300	452	50	0	1	1	blank2r.bmp	0	1	+	0	1	blank2r.bmp	252	1	CPPC	306	2	genießen	559	0	0	0	0	0	0	0	0	0	0	0	0	0	0	0	0	0	0	0	0	0	0	0	0	0	0	0	0	0	0	0	0	0	0	0	0	0	0	0
071019	10:46:43	10:54:16	451854	5.0.10.0	5_exp_noRW	34	Rpleas_acq	CS_A	CPPC	ZHHZ	LWWL	JQQJ	YFFY	DXXD	gütig	genießen	küssen	vertrauen	sonnig	träumen	gierig	gemein	krank	versagen	sterben	töten	47pct	acq_USunple_CSunple1_noRW	acq23456_noRW	3	27	0	0	300	300	515	46	0	1	1	blank2r.bmp	0	1	+	0	1	blank2r.bmp	252	1	LWWL	306	3	krank	559	0	0	0	0	0	0	0	0	0	0	0	0	0	0	0	0	0	0	0	0	0	0	0	0	0	0	0	0	0	0	0	0	0	0	0	0	0	0	0
071019	10:46:43	10:54:17	453574	5.0.10.0	5_exp_noRW	34	Rpleas_acq	CS_A	CPPC	ZHHZ	LWWL	JQQJ	YFFY	DXXD	gütig	genießen	küssen	vertrauen	sonnig	träumen	gierig	gemein	krank	versagen	sterben	töten	47pct	acq_USpleas_CSpleas1_noRW	acq23456_noRW	3	28	0	0	300	300	541	50	0	1	1	blank2r.bmp	0	1	+	0	1	blank2r.bmp	252	1	CPPC	306	1	gütig	559	0	0	0	0	0	0	0	0	0	0	0	0	0	0	0	0	0	0	0	0	0	0	0	0	0	0	0	0	0	0	0	0	0	0	0	0	0	0	0
071019	10:46:43	10:54:19	455519	5.0.10.0	5_exp_noRW	34	Rpleas_acq	CS_A	CPPC	ZHHZ	LWWL	JQQJ	YFFY	DXXD	gütig	genießen	küssen	vertrauen	sonnig	träumen	gierig	gemein	krank	versagen	sterben	töten	53pct	acq_USunple_CSunple2_noRW	acq23456_noRW	3	29	0	0	300	300	561	50	0	0	1	blank2r.bmp	0	1	+	0	1	blank2r.bmp	252	1	JQQJ	306	3	töten	559	1	FEHLER	1159	0	0	0	0	0	0	0	0	0	0	0	0	0	0	0	0	0	0	0	0	0	0	0	0	0	0	0	0	0	0	0	0	0	0	0	0
071019	10:46:43	10:54:21	457105	5.0.10.0	5_exp_noRW	34	Rpleas_acq	CS_A	CPPC	ZHHZ	LWWL	JQQJ	YFFY	DXXD	gütig	genießen	küssen	vertrauen	sonnig	träumen	gierig	gemein	krank	versagen	sterben	töten	53pct	acq_USunple_CSunple2_noRW	acq23456_noRW	3	30	0	0	300	300	619	46	0	1	1	blank2r.bmp	0	1	+	0	1	blank2r.bmp	252	1	JQQJ	306	2	sterben	559	0	0	0	0	0	0	0	0	0	0	0	0	0	0	0	0	0	0	0	0	0	0	0	0	0	0	0	0	0	0	0	0	0	0	0	0	0	0	0
071019	10:46:43	10:54:23	458918	5.0.10.0	5_exp_noRW	34	Rpleas_acq	CS_A	CPPC	ZHHZ	LWWL	JQQJ	YFFY	DXXD	gütig	genießen	küssen	vertrauen	sonnig	träumen	gierig	gemein	krank	versagen	sterben	töten	47pct	acq_USunple_CSunple1_noRW	acq23456_noRW	3	31	0	0	300	300	644	46	0	1	1	blank2r.bmp	0	1	+	0	1	blank2r.bmp	252	1	LWWL	306	1	gierig	559	0	0	0	0	0	0	0	0	0	0	0	0	0	0	0	0	0	0	0	0	0	0	0	0	0	0	0	0	0	0	0	0	0	0	0	0	0	0	0
071019	10:46:43	10:54:24	460491	5.0.10.0	5_exp_noRW	34	Rpleas_acq	CS_A	CPPC	ZHHZ	LWWL	JQQJ	YFFY	DXXD	gütig	genießen	küssen	vertrauen	sonnig	träumen	gierig	gemein	krank	versagen	sterben	töten	47pct	acq_USunple_CSpleas1_noRW	acq23456_noRW	3	32	0	0	300	300	400	46	0	1	1	blank2r.bmp	0	1	+	0	1	blank2r.bmp	252	1	CPPC	306	1	gierig	559	0	0	0	0	0	0	0	0	0	0	0	0	0	0	0	0	0	0	0	0	0	0	0	0	0	0	0	0	0	0	0	0	0	0	0	0	0	0	0
071019	10:46:43	10:54:26	462143	5.0.10.0	5_exp_noRW	34	Rpleas_acq	CS_A	CPPC	ZHHZ	LWWL	JQQJ	YFFY	DXXD	gütig	genießen	küssen	vertrauen	sonnig	träumen	gierig	gemein	krank	versagen	sterben	töten	47pct	acq_USpleas_CSpleas1_noRW	acq23456_noRW	3	33	0	0	300	300	483	50	0	1	1	blank2r.bmp	0	1	+	0	1	blank2r.bmp	252	1	CPPC	306	3	küssen	559	0	0	0	0	0	0	0	0	0	0	0	0	0	0	0	0	0	0	0	0	0	0	0	0	0	0	0	0	0	0	0	0	0	0	0	0	0	0	0
071019	10:46:43	10:54:28	464676	5.0.10.0	5_exp_noRW	34	Rpleas_acq	CS_A	CPPC	ZHHZ	LWWL	JQQJ	YFFY	DXXD	gütig	genießen	küssen	vertrauen	sonnig	träumen	gierig	gemein	krank	versagen	sterben	töten	53pct	acq_USunple_CSunple2_noRW	acq23456_noRW	3	34	0	0	300	300	1351	46	0	1	1	blank2r.bmp	0	1	+	0	1	blank2r.bmp	252	1	JQQJ	306	1	versagen	559	0	0	0	0	0	0	0	0	0	0	0	0	0	0	0	0	0	0	0	0	0	0	0	0	0	0	0	0	0	0	0	0	0	0	0	0	0	0	0
071019	10:46:43	10:54:30	466688	5.0.10.0	5_exp_noRW	34	Rpleas_acq	CS_A	CPPC	ZHHZ	LWWL	JQQJ	YFFY	DXXD	gütig	genießen	küssen	vertrauen	sonnig	träumen	gierig	gemein	krank	versagen	sterben	töten	47pct	acq_USpleas_CSunple2_noRW	acq23456_noRW	3	35	0	0	300	300	840	50	0	1	1	blank2r.bmp	0	1	+	0	1	blank2r.bmp	252	1	JQQJ	306	1	vertrauen	559	0	0	0	0	0	0	0	0	0	0	0	0	0	0	0	0	0	0	0	0	0	0	0	0	0	0	0	0	0	0	0	0	0	0	0	0	0	0	0
071019	10:46:43	10:54:32	468607	5.0.10.0	5_exp_noRW	34	Rpleas_acq	CS_A	CPPC	ZHHZ	LWWL	JQQJ	YFFY	DXXD	gütig	genießen	küssen	vertrauen	sonnig	träumen	gierig	gemein	krank	versagen	sterben	töten	53pct	acq_USpleas_CSpleas2_noRW	acq23456_noRW	3	36	0	0	300	300	533	46	0	0	1	blank2r.bmp	0	1	+	0	1	blank2r.bmp	252	1	ZHHZ	306	3	träumen	559	1	FEHLER	1132	0	0	0	0	0	0	0	0	0	0	0	0	0	0	0	0	0	0	0	0	0	0	0	0	0	0	0	0	0	0	0	0	0	0	0	0
071019	10:46:43	10:54:34	470073	5.0.10.0	5_exp_noRW	34	Rpleas_acq	CS_A	CPPC	ZHHZ	LWWL	JQQJ	YFFY	DXXD	gütig	genießen	küssen	vertrauen	sonnig	träumen	gierig	gemein	krank	versagen	sterben	töten	47pct	acq_USunple_CSunple1_noRW	acq23456_noRW	3	37	0	0	300	300	515	46	0	1	1	blank2r.bmp	0	1	+	0	1	blank2r.bmp	252	1	LWWL	306	3	krank	559	0	0	0	0	0	0	0	0	0	0	0	0	0	0	0	0	0	0	0	0	0	0	0	0	0	0	0	0	0	0	0	0	0	0	0	0	0	0	0
071019	10:46:43	10:54:36	472006	5.0.10.0	5_exp_noRW	34	Rpleas_acq	CS_A	CPPC	ZHHZ	LWWL	JQQJ	YFFY	DXXD	gütig	genießen	küssen	vertrauen	sonnig	träumen	gierig	gemein	krank	versagen	sterben	töten	47pct	acq_USunple_CSunple2_noRW	acq23456_noRW	3	38	0	0	300	300	745	46	0	1	1	blank2r.bmp	0	1	+	0	1	blank2r.bmp	252	1	JQQJ	306	3	töten	559	0	0	0	0	0	0	0	0	0	0	0	0	0	0	0	0	0	0	0	0	0	0	0	0	0	0	0	0	0	0	0	0	0	0	0	0	0	0	0
071019	10:46:43	10:54:37	473699	5.0.10.0	5_exp_noRW	34	Rpleas_acq	CS_A	CPPC	ZHHZ	LWWL	JQQJ	YFFY	DXXD	gütig	genießen	küssen	vertrauen	sonnig	träumen	gierig	gemein	krank	versagen	sterben	töten	47pct	acq_USpleas_CSpleas1_noRW	acq23456_noRW	3	39	0	0	300	300	524	50	0	1	1	blank2r.bmp	0	1	+	0	1	blank2r.bmp	252	1	CPPC	306	2	genießen	559	0	0	0	0	0	0	0	0	0	0	0	0	0	0	0	0	0	0	0	0	0	0	0	0	0	0	0	0	0	0	0	0	0	0	0	0	0	0	0
071019	10:46:43	10:54:39	475511	5.0.10.0	5_exp_noRW	34	Rpleas_acq	CS_A	CPPC	ZHHZ	LWWL	JQQJ	YFFY	DXXD	gütig	genießen	küssen	vertrauen	sonnig	träumen	gierig	gemein	krank	versagen	sterben	töten	47pct	acq_USpleas_CSpleas2_noRW	acq23456_noRW	3	40	0	0	300	300	635	50	0	1	1	blank2r.bmp	0	1	+	0	1	blank2r.bmp	252	1	ZHHZ	306	1	vertrauen	559	0	0	0	0	0	0	0	0	0	0	0	0	0	0	0	0	0	0	0	0	0	0	0	0	0	0	0	0	0	0	0	0	0	0	0	0	0	0	0
071019	10:46:43	10:54:41	477297	5.0.10.0	5_exp_noRW	34	Rpleas_acq	CS_A	CPPC	ZHHZ	LWWL	JQQJ	YFFY	DXXD	gütig	genießen	küssen	vertrauen	sonnig	träumen	gierig	gemein	krank	versagen	sterben	töten	47pct	acq_USunple_CSunple1_noRW	acq23456_noRW	3	41	0	0	300	300	609	46	0	1	1	blank2r.bmp	0	1	+	0	1	blank2r.bmp	252	1	LWWL	306	1	gierig	559	0	0	0	0	0	0	0	0	0	0	0	0	0	0	0	0	0	0	0	0	0	0	0	0	0	0	0	0	0	0	0	0	0	0	0	0	0	0	0
071019	10:46:43	10:54:43	479030	5.0.10.0	5_exp_noRW	34	Rpleas_acq	CS_A	CPPC	ZHHZ	LWWL	JQQJ	YFFY	DXXD	gütig	genießen	küssen	vertrauen	sonnig	träumen	gierig	gemein	krank	versagen	sterben	töten	53pct	acq_USpleas_CSpleas1_noRW	acq23456_noRW	3	42	0	0	300	300	556	50	0	1	1	blank2r.bmp	0	1	+	0	1	blank2r.bmp	252	1	CPPC	306	3	küssen	559	0	0	0	0	0	0	0	0	0	0	0	0	0	0	0	0	0	0	0	0	0	0	0	0	0	0	0	0	0	0	0	0	0	0	0	0	0	0	0
071019	10:46:43	10:54:44	480722	5.0.10.0	5_exp_noRW	34	Rpleas_acq	CS_A	CPPC	ZHHZ	LWWL	JQQJ	YFFY	DXXD	gütig	genießen	küssen	vertrauen	sonnig	träumen	gierig	gemein	krank	versagen	sterben	töten	53pct	acq_USunple_CSunple2_noRW	acq23456_noRW	3	43	0	0	300	300	512	46	0	1	1	blank2r.bmp	0	1	+	0	1	blank2r.bmp	252	1	JQQJ	306	2	sterben	559	0	0	0	0	0	0	0	0	0	0	0	0	0	0	0	0	0	0	0	0	0	0	0	0	0	0	0	0	0	0	0	0	0	0	0	0	0	0	0
071019	10:46:43	10:54:46	482402	5.0.10.0	5_exp_noRW	34	Rpleas_acq	CS_A	CPPC	ZHHZ	LWWL	JQQJ	YFFY	DXXD	gütig	genießen	küssen	vertrauen	sonnig	träumen	gierig	gemein	krank	versagen	sterben	töten	53pct	acq_USunple_CSunple1_noRW	acq23456_noRW	3	44	0	0	300	300	494	46	0	1	1	blank2r.bmp	0	1	+	0	1	blank2r.bmp	252	1	LWWL	306	2	gemein	559	0	0	0	0	0	0	0	0	0	0	0	0	0	0	0	0	0	0	0	0	0	0	0	0	0	0	0	0	0	0	0	0	0	0	0	0	0	0	0
071019	10:46:43	10:54:48	484134	5.0.10.0	5_exp_noRW	34	Rpleas_acq	CS_A	CPPC	ZHHZ	LWWL	JQQJ	YFFY	DXXD	gütig	genießen	küssen	vertrauen	sonnig	träumen	gierig	gemein	krank	versagen	sterben	töten	53pct	acq_USunple_CSunple2_noRW	acq23456_noRW	3	45	0	0	300	300	566	46	0	1	1	blank2r.bmp	0	1	+	0	1	blank2r.bmp	252	1	JQQJ	306	1	versagen	559	0	0	0	0	0	0	0	0	0	0	0	0	0	0	0	0	0	0	0	0	0	0	0	0	0	0	0	0	0	0	0	0	0	0	0	0	0	0	0
071019	10:46:43	10:54:49	485787	5.0.10.0	5_exp_noRW	34	Rpleas_acq	CS_A	CPPC	ZHHZ	LWWL	JQQJ	YFFY	DXXD	gütig	genießen	küssen	vertrauen	sonnig	träumen	gierig	gemein	krank	versagen	sterben	töten	47pct	acq_USunple_CSunple2_noRW	acq23456_noRW	3	46	0	0	300	300	468	46	0	1	1	blank2r.bmp	0	1	+	0	1	blank2r.bmp	252	1	JQQJ	306	2	sterben	559	0	0	0	0	0	0	0	0	0	0	0	0	0	0	0	0	0	0	0	0	0	0	0	0	0	0	0	0	0	0	0	0	0	0	0	0	0	0	0
071019	10:46:43	10:54:51	487480	5.0.10.0	5_exp_noRW	34	Rpleas_acq	CS_A	CPPC	ZHHZ	LWWL	JQQJ	YFFY	DXXD	gütig	genießen	küssen	vertrauen	sonnig	träumen	gierig	gemein	krank	versagen	sterben	töten	53pct	acq_USpleas_CSpleas2_noRW	acq23456_noRW	3	47	0	0	300	300	520	50	0	1	1	blank2r.bmp	0	1	+	0	1	blank2r.bmp	252	1	ZHHZ	306	2	sonnig	559	0	0	0	0	0	0	0	0	0	0	0	0	0	0	0	0	0	0	0	0	0	0	0	0	0	0	0	0	0	0	0	0	0	0	0	0	0	0	0
071019	10:46:43	10:54:53	489212	5.0.10.0	5_exp_noRW	34	Rpleas_acq	CS_A	CPPC	ZHHZ	LWWL	JQQJ	YFFY	DXXD	gütig	genießen	küssen	vertrauen	sonnig	träumen	gierig	gemein	krank	versagen	sterben	töten	47pct	acq_USunple_CSpleas1_noRW	acq23456_noRW	3	48	0	0	300	300	565	46	0	1	1	blank2r.bmp	0	1	+	0	1	blank2r.bmp	252	1	CPPC	306	2	gemein	559	0	0	0	0	0	0	0	0	0	0	0	0	0	0	0	0	0	0	0	0	0	0	0	0	0	0	0	0	0	0	0	0	0	0	0	0	0	0	0
071019	10:46:43	10:54:54	490812	5.0.10.0	5_exp_noRW	34	Rpleas_acq	CS_A	CPPC	ZHHZ	LWWL	JQQJ	YFFY	DXXD	gütig	genießen	küssen	vertrauen	sonnig	träumen	gierig	gemein	krank	versagen	sterben	töten	53pct	acq_USpleas_CSunple2_noRW	acq23456_noRW	3	49	0	0	300	300	437	50	0	1	1	blank2r.bmp	0	1	+	0	1	blank2r.bmp	252	1	JQQJ	306	2	sonnig	559	0	0	0	0	0	0	0	0	0	0	0	0	0	0	0	0	0	0	0	0	0	0	0	0	0	0	0	0	0	0	0	0	0	0	0	0	0	0	0
071019	10:46:43	10:54:56	492424	5.0.10.0	5_exp_noRW	34	Rpleas_acq	CS_A	CPPC	ZHHZ	LWWL	JQQJ	YFFY	DXXD	gütig	genießen	küssen	vertrauen	sonnig	träumen	gierig	gemein	krank	versagen	sterben	töten	47pct	acq_USpleas_CSunple1_noRW	acq23456_noRW	3	50	0	0	300	300	433	50	0	1	1	blank2r.bmp	0	1	+	0	1	blank2r.bmp	252	1	LWWL	306	3	küssen	559	0	0	0	0	0	0	0	0	0	0	0	0	0	0	0	0	0	0	0	0	0	0	0	0	0	0	0	0	0	0	0	0	0	0	0	0	0	0	0
071019	10:46:43	10:54:58	494130	5.0.10.0	5_exp_noRW	34	Rpleas_acq	CS_A	CPPC	ZHHZ	LWWL	JQQJ	YFFY	DXXD	gütig	genießen	küssen	vertrauen	sonnig	träumen	gierig	gemein	krank	versagen	sterben	töten	53pct	acq_USpleas_CSpleas2_noRW	acq23456_noRW	3	51	0	0	300	300	535	50	0	1	1	blank2r.bmp	0	1	+	0	1	blank2r.bmp	252	1	ZHHZ	306	3	träumen	559	0	0	0	0	0	0	0	0	0	0	0	0	0	0	0	0	0	0	0	0	0	0	0	0	0	0	0	0	0	0	0	0	0	0	0	0	0	0	0
071019	10:46:43	10:54:59	495730	5.0.10.0	5_exp_noRW	34	Rpleas_acq	CS_A	CPPC	ZHHZ	LWWL	JQQJ	YFFY	DXXD	gütig	genießen	küssen	vertrauen	sonnig	träumen	gierig	gemein	krank	versagen	sterben	töten	53pct	acq_USpleas_CSpleas1_noRW	acq23456_noRW	3	52	0	0	300	300	426	50	0	1	1	blank2r.bmp	0	1	+	0	1	blank2r.bmp	252	1	CPPC	306	1	gütig	559	0	0	0	0	0	0	0	0	0	0	0	0	0	0	0	0	0	0	0	0	0	0	0	0	0	0	0	0	0	0	0	0	0	0	0	0	0	0	0
071019	10:46:43	10:55:01	497449	5.0.10.0	5_exp_noRW	34	Rpleas_acq	CS_A	CPPC	ZHHZ	LWWL	JQQJ	YFFY	DXXD	gütig	genießen	küssen	vertrauen	sonnig	träumen	gierig	gemein	krank	versagen	sterben	töten	53pct	acq_USunple_CSunple2_noRW	acq23456_noRW	3	53	0	0	300	300	331	50	0	0	1	blank2r.bmp	0	1	+	0	1	blank2r.bmp	252	1	JQQJ	306	1	versagen	559	1	FEHLER	919	0	0	0	0	0	0	0	0	0	0	0	0	0	0	0	0	0	0	0	0	0	0	0	0	0	0	0	0	0	0	0	0	0	0	0	0
071019	10:46:43	10:55:03	498915	5.0.10.0	5_exp_noRW	34	Rpleas_acq	CS_A	CPPC	ZHHZ	LWWL	JQQJ	YFFY	DXXD	gütig	genießen	küssen	vertrauen	sonnig	träumen	gierig	gemein	krank	versagen	sterben	töten	47pct	acq_USpleas_CSpleas1_noRW	acq23456_noRW	3	54	0	0	300	300	504	50	0	1	1	blank2r.bmp	0	1	+	0	1	blank2r.bmp	252	1	CPPC	306	3	küssen	559	0	0	0	0	0	0	0	0	0	0	0	0	0	0	0	0	0	0	0	0	0	0	0	0	0	0	0	0	0	0	0	0	0	0	0	0	0	0	0
071019	10:46:43	10:55:04	500781	5.0.10.0	5_exp_noRW	34	Rpleas_acq	CS_A	CPPC	ZHHZ	LWWL	JQQJ	YFFY	DXXD	gütig	genießen	küssen	vertrauen	sonnig	träumen	gierig	gemein	krank	versagen	sterben	töten	53pct	acq_USpleas_CSpleas2_noRW	acq23456_noRW	3	55	0	0	300	300	680	50	0	1	1	blank2r.bmp	0	1	+	0	1	blank2r.bmp	252	1	ZHHZ	306	3	träumen	559	0	0	0	0	0	0	0	0	0	0	0	0	0	0	0	0	0	0	0	0	0	0	0	0	0	0	0	0	0	0	0	0	0	0	0	0	0	0	0
071019	10:46:43	10:55:06	502554	5.0.10.0	5_exp_noRW	34	Rpleas_acq	CS_A	CPPC	ZHHZ	LWWL	JQQJ	YFFY	DXXD	gütig	genießen	küssen	vertrauen	sonnig	träumen	gierig	gemein	krank	versagen	sterben	töten	47pct	acq_USpleas_CSpleas2_noRW	acq23456_noRW	3	56	0	0	300	300	601	50	0	1	1	blank2r.bmp	0	1	+	0	1	blank2r.bmp	252	1	ZHHZ	306	2	sonnig	559	0	0	0	0	0	0	0	0	0	0	0	0	0	0	0	0	0	0	0	0	0	0	0	0	0	0	0	0	0	0	0	0	0	0	0	0	0	0	0
071019	10:46:43	10:55:08	504339	5.0.10.0	5_exp_noRW	34	Rpleas_acq	CS_A	CPPC	ZHHZ	LWWL	JQQJ	YFFY	DXXD	gütig	genießen	küssen	vertrauen	sonnig	träumen	gierig	gemein	krank	versagen	sterben	töten	53pct	acq_USunple_CSunple1_noRW	acq23456_noRW	3	57	0	0	300	300	405	50	0	0	1	blank2r.bmp	0	1	+	0	1	blank2r.bmp	252	1	LWWL	306	1	gierig	559	1	FEHLER	999	0	0	0	0	0	0	0	0	0	0	0	0	0	0	0	0	0	0	0	0	0	0	0	0	0	0	0	0	0	0	0	0	0	0	0	0
071019	10:46:43	10:55:09	505819	5.0.10.0	5_exp_noRW	34	Rpleas_acq	CS_A	CPPC	ZHHZ	LWWL	JQQJ	YFFY	DXXD	gütig	genießen	küssen	vertrauen	sonnig	träumen	gierig	gemein	krank	versagen	sterben	töten	53pct	acq_USunple_CSpleas2_noRW	acq23456_noRW	3	58	0	0	300	300	526	46	0	1	1	blank2r.bmp	0	1	+	0	1	blank2r.bmp	252	1	ZHHZ	306	2	sterben	559	0	0	0	0	0	0	0	0	0	0	0	0	0	0	0	0	0	0	0	0	0	0	0	0	0	0	0	0	0	0	0	0	0	0	0	0	0	0	0
071019	10:46:43	10:55:11	507711	5.0.10.0	5_exp_noRW	34	Rpleas_acq	CS_A	CPPC	ZHHZ	LWWL	JQQJ	YFFY	DXXD	gütig	genießen	küssen	vertrauen	sonnig	träumen	gierig	gemein	krank	versagen	sterben	töten	53pct	acq_USunple_CSunple1_noRW	acq23456_noRW	3	59	0	0	300	300	705	46	0	1	1	blank2r.bmp	0	1	+	0	1	blank2r.bmp	252	1	LWWL	306	3	krank	559	0	0	0	0	0	0	0	0	0	0	0	0	0	0	0	0	0	0	0	0	0	0	0	0	0	0	0	0	0	0	0	0	0	0	0	0	0	0	0
071019	10:46:43	10:55:13	509591	5.0.10.0	5_exp_noRW	34	Rpleas_acq	CS_A	CPPC	ZHHZ	LWWL	JQQJ	YFFY	DXXD	gütig	genießen	küssen	vertrauen	sonnig	träumen	gierig	gemein	krank	versagen	sterben	töten	53pct	acq_USpleas_CSpleas1_noRW	acq23456_noRW	3	60	0	0	300	300	501	46	0	0	1	blank2r.bmp	0	1	+	0	1	blank2r.bmp	252	1	CPPC	306	1	gütig	559	1	FEHLER	1092	0	0	0	0	0	0	0	0	0	0	0	0	0	0	0	0	0	0	0	0	0	0	0	0	0	0	0	0	0	0	0	0	0	0	0	0
071019	10:46:43	10:55:15	511083	5.0.10.0	5_exp_noRW	34	Rpleas_acq	CS_A	CPPC	ZHHZ	LWWL	JQQJ	YFFY	DXXD	gütig	genießen	küssen	vertrauen	sonnig	träumen	gierig	gemein	krank	versagen	sterben	töten	53pct	acq_USpleas_CSunple1_noRW	acq23456_noRW	3	61	0	0	300	300	523	50	0	1	1	blank2r.bmp	0	1	+	0	1	blank2r.bmp	252	1	LWWL	306	1	gütig	559	0	0	0	0	0	0	0	0	0	0	0	0	0	0	0	0	0	0	0	0	0	0	0	0	0	0	0	0	0	0	0	0	0	0	0	0	0	0	0
071019	10:46:43	10:55:16	512789	5.0.10.0	5_exp_noRW	34	Rpleas_acq	CS_A	CPPC	ZHHZ	LWWL	JQQJ	YFFY	DXXD	gütig	genießen	küssen	vertrauen	sonnig	träumen	gierig	gemein	krank	versagen	sterben	töten	53pct	acq_USunple_CSunple2_noRW	acq23456_noRW	3	62	0	0	300	300	535	46	0	1	1	blank2r.bmp	0	1	+	0	1	blank2r.bmp	252	1	JQQJ	306	3	töten	559	0	0	0	0	0	0	0	0	0	0	0	0	0	0	0	0	0	0	0	0	0	0	0	0	0	0	0	0	0	0	0	0	0	0	0	0	0	0	0
071019	10:46:43	10:55:18	514695	5.0.10.0	5_exp_noRW	34	Rpleas_acq	CS_A	CPPC	ZHHZ	LWWL	JQQJ	YFFY	DXXD	gütig	genießen	küssen	vertrauen	sonnig	träumen	gierig	gemein	krank	versagen	sterben	töten	47pct	acq_USpleas_CSpleas2_noRW	acq23456_noRW	3	63	0	0	300	300	740	50	0	1	1	blank2r.bmp	0	1	+	0	1	blank2r.bmp	252	1	ZHHZ	306	1	vertrauen	559	0	0	0	0	0	0	0	0	0	0	0	0	0	0	0	0	0	0	0	0	0	0	0	0	0	0	0	0	0	0	0	0	0	0	0	0	0	0	0
071019	10:46:43	10:55:20	516548	5.0.10.0	5_exp_noRW	34	Rpleas_acq	CS_A	CPPC	ZHHZ	LWWL	JQQJ	YFFY	DXXD	gütig	genießen	küssen	vertrauen	sonnig	träumen	gierig	gemein	krank	versagen	sterben	töten	53pct	acq_USunple_CSunple2_noRW	acq23456_noRW	3	64	0	0	300	300	675	46	0	1	1	blank2r.bmp	0	1	+	0	1	blank2r.bmp	252	1	JQQJ	306	2	sterben	559	0	0	0	0	0	0	0	0	0	0	0	0	0	0	0	0	0	0	0	0	0	0	0	0	0	0	0	0	0	0	0	0	0	0	0	0	0	0	0
071019	10:46:43	10:55:22	518267	5.0.10.0	5_exp_noRW	34	Rpleas_acq	CS_A	CPPC	ZHHZ	LWWL	JQQJ	YFFY	DXXD	gütig	genießen	küssen	vertrauen	sonnig	träumen	gierig	gemein	krank	versagen	sterben	töten	47pct	acq_USpleas_CSpleas1_noRW	acq23456_noRW	3	65	0	0	300	300	543	50	0	1	1	blank2r.bmp	0	1	+	0	1	blank2r.bmp	252	1	CPPC	306	2	genießen	559	0	0	0	0	0	0	0	0	0	0	0	0	0	0	0	0	0	0	0	0	0	0	0	0	0	0	0	0	0	0	0	0	0	0	0	0	0	0	0
071019	10:46:43	10:55:24	519973	5.0.10.0	5_exp_noRW	34	Rpleas_acq	CS_A	CPPC	ZHHZ	LWWL	JQQJ	YFFY	DXXD	gütig	genießen	küssen	vertrauen	sonnig	träumen	gierig	gemein	krank	versagen	sterben	töten	47pct	acq_USunple_CSunple1_noRW	acq23456_noRW	3	66	0	0	300	300	524	46	0	1	1	blank2r.bmp	0	1	+	0	1	blank2r.bmp	252	1	LWWL	306	2	gemein	559	0	0	0	0	0	0	0	0	0	0	0	0	0	0	0	0	0	0	0	0	0	0	0	0	0	0	0	0	0	0	0	0	0	0	0	0	0	0	0
071019	10:46:43	10:55:26	522146	5.0.10.0	5_exp_noRW	34	Rpleas_acq	CS_A	CPPC	ZHHZ	LWWL	JQQJ	YFFY	DXXD	gütig	genießen	küssen	vertrauen	sonnig	träumen	gierig	gemein	krank	versagen	sterben	töten	47pct	acq_USunple_CSpleas1_noRW	acq23456_noRW	3	67	0	0	300	300	1005	46	0	1	1	blank2r.bmp	0	1	+	0	1	blank2r.bmp	252	1	CPPC	306	3	krank	559	0	0	0	0	0	0	0	0	0	0	0	0	0	0	0	0	0	0	0	0	0	0	0	0	0	0	0	0	0	0	0	0	0	0	0	0	0	0	0
071019	10:46:43	10:55:27	523825	5.0.10.0	5_exp_noRW	34	Rpleas_acq	CS_A	CPPC	ZHHZ	LWWL	JQQJ	YFFY	DXXD	gütig	genießen	küssen	vertrauen	sonnig	träumen	gierig	gemein	krank	versagen	sterben	töten	47pct	acq_USpleas_CSpleas1_noRW	acq23456_noRW	3	68	0	0	300	300	506	50	0	1	1	blank2r.bmp	0	1	+	0	1	blank2r.bmp	252	1	CPPC	306	3	küssen	559	0	0	0	0	0	0	0	0	0	0	0	0	0	0	0	0	0	0	0	0	0	0	0	0	0	0	0	0	0	0	0	0	0	0	0	0	0	0	0
071019	10:46:43	10:55:29	525504	5.0.10.0	5_exp_noRW	34	Rpleas_acq	CS_A	CPPC	ZHHZ	LWWL	JQQJ	YFFY	DXXD	gütig	genießen	küssen	vertrauen	sonnig	träumen	gierig	gemein	krank	versagen	sterben	töten	53pct	acq_USunple_CSunple1_noRW	acq23456_noRW	3	69	0	0	300	300	492	46	0	1	1	blank2r.bmp	0	1	+	0	1	blank2r.bmp	252	1	LWWL	306	2	gemein	559	0	0	0	0	0	0	0	0	0	0	0	0	0	0	0	0	0	0	0	0	0	0	0	0	0	0	0	0	0	0	0	0	0	0	0	0	0	0	0
071019	10:46:43	10:55:31	527317	5.0.10.0	5_exp_noRW	34	Rpleas_acq	CS_A	CPPC	ZHHZ	LWWL	JQQJ	YFFY	DXXD	gütig	genießen	küssen	vertrauen	sonnig	träumen	gierig	gemein	krank	versagen	sterben	töten	47pct	acq_USpleas_CSpleas2_noRW	acq23456_noRW	3	70	0	0	300	300	650	50	0	1	1	blank2r.bmp	0	1	+	0	1	blank2r.bmp	252	1	ZHHZ	306	2	sonnig	559	0	0	0	0	0	0	0	0	0	0	0	0	0	0	0	0	0	0	0	0	0	0	0	0	0	0	0	0	0	0	0	0	0	0	0	0	0	0	0
071019	10:46:43	10:55:33	529196	5.0.10.0	5_exp_noRW	34	Rpleas_acq	CS_A	CPPC	ZHHZ	LWWL	JQQJ	YFFY	DXXD	gütig	genießen	küssen	vertrauen	sonnig	träumen	gierig	gemein	krank	versagen	sterben	töten	47pct	acq_USpleas_CSpleas1_noRW	acq23456_noRW	3	71	0	0	300	300	479	46	0	0	1	blank2r.bmp	0	1	+	0	1	blank2r.bmp	252	1	CPPC	306	1	gütig	559	1	FEHLER	1079	0	0	0	0	0	0	0	0	0	0	0	0	0	0	0	0	0	0	0	0	0	0	0	0	0	0	0	0	0	0	0	0	0	0	0	0
071019	10:46:43	10:55:35	530849	5.0.10.0	5_exp_noRW	34	Rpleas_acq	CS_A	CPPC	ZHHZ	LWWL	JQQJ	YFFY	DXXD	gütig	genießen	küssen	vertrauen	sonnig	träumen	gierig	gemein	krank	versagen	sterben	töten	53pct	acq_USpleas_CSpleas2_noRW	acq23456_noRW	3	72	0	0	300	300	702	50	0	1	1	blank2r.bmp	0	1	+	0	1	blank2r.bmp	252	1	ZHHZ	306	3	träumen	559	0	0	0	0	0	0	0	0	0	0	0	0	0	0	0	0	0	0	0	0	0	0	0	0	0	0	0	0	0	0	0	0	0	0	0	0	0	0	0
071019	10:46:43	10:55:36	532555	5.0.10.0	5_exp_noRW	34	Rpleas_acq	CS_A	CPPC	ZHHZ	LWWL	JQQJ	YFFY	DXXD	gütig	genießen	küssen	vertrauen	sonnig	träumen	gierig	gemein	krank	versagen	sterben	töten	53pct	acq_USunple_CSunple1_noRW	acq23456_noRW	3	73	0	0	300	300	519	46	0	1	1	blank2r.bmp	0	1	+	0	1	blank2r.bmp	252	1	LWWL	306	1	gierig	559	0	0	0	0	0	0	0	0	0	0	0	0	0	0	0	0	0	0	0	0	0	0	0	0	0	0	0	0	0	0	0	0	0	0	0	0	0	0	0
071019	10:46:43	10:55:38	534421	5.0.10.0	5_exp_noRW	34	Rpleas_acq	CS_A	CPPC	ZHHZ	LWWL	JQQJ	YFFY	DXXD	gütig	genießen	küssen	vertrauen	sonnig	träumen	gierig	gemein	krank	versagen	sterben	töten	47pct	acq_USpleas_CSpleas2_noRW	acq23456_noRW	3	74	0	0	300	300	699	50	0	1	1	blank2r.bmp	0	1	+	0	1	blank2r.bmp	252	1	ZHHZ	306	1	vertrauen	559	0	0	0	0	0	0	0	0	0	0	0	0	0	0	0	0	0	0	0	0	0	0	0	0	0	0	0	0	0	0	0	0	0	0	0	0	0	0	0
071019	10:46:43	10:55:40	536366	5.0.10.0	5_exp_noRW	34	Rpleas_acq	CS_A	CPPC	ZHHZ	LWWL	JQQJ	YFFY	DXXD	gütig	genießen	küssen	vertrauen	sonnig	träumen	gierig	gemein	krank	versagen	sterben	töten	47pct	acq_USunple_CSunple2_noRW	acq23456_noRW	3	75	0	0	300	300	779	46	0	1	1	blank2r.bmp	0	1	+	0	1	blank2r.bmp	252	1	JQQJ	306	1	versagen	559	0	0	0	0	0	0	0	0	0	0	0	0	0	0	0	0	0	0	0	0	0	0	0	0	0	0	0	0	0	0	0	0	0	0	0	0	0	0	0
071019	10:46:43	10:55:42	538019	5.0.10.0	5_exp_noRW	34	Rpleas_acq	CS_A	CPPC	ZHHZ	LWWL	JQQJ	YFFY	DXXD	gütig	genießen	küssen	vertrauen	sonnig	träumen	gierig	gemein	krank	versagen	sterben	töten	47pct	acq_USpleas_CSpleas1_noRW	acq23456_noRW	3	76	0	0	300	300	466	50	0	1	1	blank2r.bmp	0	1	+	0	1	blank2r.bmp	252	1	CPPC	306	2	genießen	559	0	0	0	0	0	0	0	0	0	0	0	0	0	0	0	0	0	0	0	0	0	0	0	0	0	0	0	0	0	0	0	0	0	0	0	0	0	0	0
071019	10:46:43	10:55:44	539872	5.0.10.0	5_exp_noRW	34	Rpleas_acq	CS_A	CPPC	ZHHZ	LWWL	JQQJ	YFFY	DXXD	gütig	genießen	küssen	vertrauen	sonnig	träumen	gierig	gemein	krank	versagen	sterben	töten	53pct	acq_USunple_CSpleas2_noRW	acq23456_noRW	3	77	0	0	300	300	668	46	0	1	1	blank2r.bmp	0	1	+	0	1	blank2r.bmp	252	1	ZHHZ	306	3	töten	559	0	0	0	0	0	0	0	0	0	0	0	0	0	0	0	0	0	0	0	0	0	0	0	0	0	0	0	0	0	0	0	0	0	0	0	0	0	0	0
071019	10:46:43	10:55:45	541684	5.0.10.0	5_exp_noRW	34	Rpleas_acq	CS_A	CPPC	ZHHZ	LWWL	JQQJ	YFFY	DXXD	gütig	genießen	küssen	vertrauen	sonnig	träumen	gierig	gemein	krank	versagen	sterben	töten	53pct	acq_USpleas_CSunple2_noRW	acq23456_noRW	3	78	0	0	300	300	647	50	0	1	1	blank2r.bmp	0	1	+	0	1	blank2r.bmp	252	1	JQQJ	306	3	träumen	559	0	0	0	0	0	0	0	0	0	0	0	0	0	0	0	0	0	0	0	0	0	0	0	0	0	0	0	0	0	0	0	0	0	0	0	0	0	0	0
071019	10:46:43	10:55:47	543443	5.0.10.0	5_exp_noRW	34	Rpleas_acq	CS_A	CPPC	ZHHZ	LWWL	JQQJ	YFFY	DXXD	gütig	genießen	küssen	vertrauen	sonnig	träumen	gierig	gemein	krank	versagen	sterben	töten	47pct	acq_USunple_CSunple1_noRW	acq23456_noRW	3	79	0	0	300	300	575	46	0	1	1	blank2r.bmp	0	1	+	0	1	blank2r.bmp	252	1	LWWL	306	3	krank	559	0	0	0	0	0	0	0	0	0	0	0	0	0	0	0	0	0	0	0	0	0	0	0	0	0	0	0	0	0	0	0	0	0	0	0	0	0	0	0
071019	10:46:43	10:55:49	545269	5.0.10.0	5_exp_noRW	34	Rpleas_acq	CS_A	CPPC	ZHHZ	LWWL	JQQJ	YFFY	DXXD	gütig	genießen	küssen	vertrauen	sonnig	träumen	gierig	gemein	krank	versagen	sterben	töten	47pct	acq_USunple_CSunple2_noRW	acq23456_noRW	3	80	0	0	300	300	656	46	0	1	1	blank2r.bmp	0	1	+	0	1	blank2r.bmp	252	1	JQQJ	306	3	töten	559	0	0	0	0	0	0	0	0	0	0	0	0	0	0	0	0	0	0	0	0	0	0	0	0	0	0	0	0	0	0	0	0	0	0	0	0	0	0	0
071019	10:46:43	10:56:13	568993	5.0.10.0	5_exp_noRW	34	Rpleas_acq	CS_A	CPPC	ZHHZ	LWWL	JQQJ	YFFY	DXXD	gütig	genießen	küssen	vertrauen	sonnig	träumen	gierig	gemein	krank	versagen	sterben	töten	47pct	acq_USpleas_CSpleas2_noRW	acq23456_noRW	4	1	0	0	300	300	931	50	0	1	1	blank2r.bmp	0	1	+	0	1	blank2r.bmp	252	1	ZHHZ	306	2	sonnig	559	0	0	0	0	0	0	0	0	0	0	0	0	0	0	0	0	0	0	0	0	0	0	0	0	0	0	0	0	0	0	0	0	0	0	0	0	0	0	0
