date	time	script.currenttime	script.elapsedtime	build	script.currentexpt	subject	expressions.LRpleas_acq	expressions.conditionCS_A	expressions.CSpleas_1	expressions.CSpleas_2	expressions.CSunple_1	expressions.CSunple_2	expressions.distractor_1	expressions.distractor_2	expressions.US_pleas1	expressions.US_pleas2	expressions.US_pleas3	expressions.US_pleas4	expressions.US_pleas5	expressions.US_pleas6	expressions.US_unple1	expressions.US_unple2	expressions.US_unple3	expressions.US_unple4	expressions.US_unple5	expressions.US_unple6	counter.positions_noRW	trialcode	blockcode	blocknum	trialnum	windowcenter	inwindow	pretrialpause	posttrialpause	latency	response	expressions.correctedscore	correct	stimulusnumber1	stimulusitem1	stimulusonset1	stimulusnumber2	stimulusitem2	stimulusonset2	stimulusnumber3	stimulusitem3	stimulusonset3	stimulusnumber4	stimulusitem4	stimulusonset4	stimulusnumber5	stimulusitem5	stimulusonset5	stimulusnumber6	stimulusitem6	stimulusonset6	stimulusnumber7	stimulusitem7	stimulusonset7	stimulusnumber8	stimulusitem8	stimulusonset8	stimulusnumber9	stimulusitem9	stimulusonset9	stimulusnumber10	stimulusitem10	stimulusonset10	stimulusnumber11	stimulusitem11	stimulusonset11	stimulusnumber12	stimulusitem12	stimulusonset12	stimulusnumber13	stimulusitem13	stimulusonset13	stimulusnumber14	stimulusitem14	stimulusonset14	stimulusnumber15	stimulusitem15	stimulusonset15	stimulusnumber16	stimulusitem16	stimulusonset16	stimulusnumber17	stimulusitem17	stimulusonset17	stimulusnumber18	stimulusitem18	stimulusonset18
082719	10:42:21	10:43:14	51084	5.0.10.0	5_exp_RW	115	Rpleas_acq	CS_A	CPPC	LWWL	JQQJ	YFFY	DXXD	ZHHZ	sonnig	vertrauen	küssen	genießen	träumen	gütig	sterben	versagen	krank	gemein	töten	gierig	1	acq_USpleas_CSpleas2_RW	acq1_RW	1	1	0	0	300	300	1655	50	0	1	1	blank2r.bmp	0	1	+	0	1	blank2r.bmp	492	1	LWWL	492	1	blank2r.bmp	572	2	träumen	866	0	0	0	0	0	0	0	0	0	0	0	0	0	0	0	0	0	0	0	0	0	0	0	0	0	0	0	0	0	0	0	0	0	0	0	0
082719	10:42:21	10:43:17	53737	5.0.10.0	5_exp_RW	115	Rpleas_acq	CS_A	CPPC	LWWL	JQQJ	YFFY	DXXD	ZHHZ	sonnig	vertrauen	küssen	genießen	träumen	gütig	sterben	versagen	krank	gemein	töten	gierig	1	acq_USpleas_CSpleas1_RW	acq1_RW	1	2	0	0	300	300	1174	50	0	1	1	blank2r.bmp	0	1	+	0	1	blank2r.bmp	492	1	CPPC	492	1	blank2r.bmp	572	2	vertrauen	866	0	0	0	0	0	0	0	0	0	0	0	0	0	0	0	0	0	0	0	0	0	0	0	0	0	0	0	0	0	0	0	0	0	0	0	0
082719	10:42:21	10:43:19	56455	5.0.10.0	5_exp_RW	115	Rpleas_acq	CS_A	CPPC	LWWL	JQQJ	YFFY	DXXD	ZHHZ	sonnig	vertrauen	küssen	genießen	träumen	gütig	sterben	versagen	krank	gemein	töten	gierig	1	acq_USpleas_CSpleas2_RW	acq1_RW	1	3	0	0	300	300	1245	50	0	1	1	blank2r.bmp	0	1	+	0	1	blank2r.bmp	492	1	LWWL	492	1	blank2r.bmp	572	3	gütig	866	0	0	0	0	0	0	0	0	0	0	0	0	0	0	0	0	0	0	0	0	0	0	0	0	0	0	0	0	0	0	0	0	0	0	0	0
082719	10:42:21	10:43:21	58548	5.0.10.0	5_exp_RW	115	Rpleas_acq	CS_A	CPPC	LWWL	JQQJ	YFFY	DXXD	ZHHZ	sonnig	vertrauen	küssen	genießen	träumen	gütig	sterben	versagen	krank	gemein	töten	gierig	1	acq_USpleas_CSpleas2_RW	acq1_RW	1	4	0	0	300	300	600	50	0	1	1	blank2r.bmp	0	1	+	0	1	blank2r.bmp	492	1	LWWL	492	1	blank2r.bmp	572	1	genießen	866	0	0	0	0	0	0	0	0	0	0	0	0	0	0	0	0	0	0	0	0	0	0	0	0	0	0	0	0	0	0	0	0	0	0	0	0
082719	10:42:21	10:43:24	60747	5.0.10.0	5_exp_RW	115	Rpleas_acq	CS_A	CPPC	LWWL	JQQJ	YFFY	DXXD	ZHHZ	sonnig	vertrauen	küssen	genießen	träumen	gütig	sterben	versagen	krank	gemein	töten	gierig	1	acq_USunple_CSunple1_RW	acq1_RW	1	5	0	0	300	300	717	46	0	1	1	blank2r.bmp	0	1	+	0	1	blank2r.bmp	492	1	JQQJ	492	1	blank2r.bmp	572	3	krank	866	0	0	0	0	0	0	0	0	0	0	0	0	0	0	0	0	0	0	0	0	0	0	0	0	0	0	0	0	0	0	0	0	0	0	0	0
082719	10:42:21	10:43:26	62759	5.0.10.0	5_exp_RW	115	Rpleas_acq	CS_A	CPPC	LWWL	JQQJ	YFFY	DXXD	ZHHZ	sonnig	vertrauen	küssen	genießen	träumen	gütig	sterben	versagen	krank	gemein	töten	gierig	1	acq_USpleas_CSpleas1_RW	acq1_RW	1	6	0	0	300	300	523	50	0	1	1	blank2r.bmp	0	1	+	0	1	blank2r.bmp	492	1	CPPC	492	1	blank2r.bmp	572	3	küssen	866	0	0	0	0	0	0	0	0	0	0	0	0	0	0	0	0	0	0	0	0	0	0	0	0	0	0	0	0	0	0	0	0	0	0	0	0
082719	10:42:21	10:43:28	64958	5.0.10.0	5_exp_RW	115	Rpleas_acq	CS_A	CPPC	LWWL	JQQJ	YFFY	DXXD	ZHHZ	sonnig	vertrauen	küssen	genießen	träumen	gütig	sterben	versagen	krank	gemein	töten	gierig	1	acq_USpleas_CSpleas2_RW	acq1_RW	1	7	0	0	300	300	712	50	0	1	1	blank2r.bmp	0	1	+	0	1	blank2r.bmp	492	1	LWWL	492	1	blank2r.bmp	572	3	gütig	866	0	0	0	0	0	0	0	0	0	0	0	0	0	0	0	0	0	0	0	0	0	0	0	0	0	0	0	0	0	0	0	0	0	0	0	0
082719	10:42:21	10:43:30	66971	5.0.10.0	5_exp_RW	115	Rpleas_acq	CS_A	CPPC	LWWL	JQQJ	YFFY	DXXD	ZHHZ	sonnig	vertrauen	küssen	genießen	träumen	gütig	sterben	versagen	krank	gemein	töten	gierig	1	acq_USunple_CSunple2_RW	acq1_RW	1	8	0	0	300	300	520	46	0	1	1	blank2r.bmp	0	1	+	0	1	blank2r.bmp	492	1	YFFY	492	1	blank2r.bmp	572	3	gierig	866	0	0	0	0	0	0	0	0	0	0	0	0	0	0	0	0	0	0	0	0	0	0	0	0	0	0	0	0	0	0	0	0	0	0	0	0
082719	10:42:21	10:43:32	69103	5.0.10.0	5_exp_RW	115	Rpleas_acq	CS_A	CPPC	LWWL	JQQJ	YFFY	DXXD	ZHHZ	sonnig	vertrauen	küssen	genießen	träumen	gütig	sterben	versagen	krank	gemein	töten	gierig	1	acq_USunple_CSunple1_RW	acq1_RW	1	9	0	0	300	300	646	46	0	1	1	blank2r.bmp	0	1	+	0	1	blank2r.bmp	492	1	JQQJ	492	1	blank2r.bmp	572	1	sterben	866	0	0	0	0	0	0	0	0	0	0	0	0	0	0	0	0	0	0	0	0	0	0	0	0	0	0	0	0	0	0	0	0	0	0	0	0
082719	10:42:21	10:43:34	71156	5.0.10.0	5_exp_RW	115	Rpleas_acq	CS_A	CPPC	LWWL	JQQJ	YFFY	DXXD	ZHHZ	sonnig	vertrauen	küssen	genießen	träumen	gütig	sterben	versagen	krank	gemein	töten	gierig	1	acq_USunple_CSunple1_RW	acq1_RW	1	10	0	0	300	300	568	46	0	1	1	blank2r.bmp	0	1	+	0	1	blank2r.bmp	492	1	JQQJ	492	1	blank2r.bmp	572	2	versagen	866	0	0	0	0	0	0	0	0	0	0	0	0	0	0	0	0	0	0	0	0	0	0	0	0	0	0	0	0	0	0	0	0	0	0	0	0
082719	10:42:21	10:43:36	73075	5.0.10.0	5_exp_RW	115	Rpleas_acq	CS_A	CPPC	LWWL	JQQJ	YFFY	DXXD	ZHHZ	sonnig	vertrauen	küssen	genießen	träumen	gütig	sterben	versagen	krank	gemein	töten	gierig	1	acq_USpleas_CSpleas1_RW	acq1_RW	1	11	0	0	300	300	446	50	0	1	1	blank2r.bmp	0	1	+	0	1	blank2r.bmp	492	1	CPPC	492	1	blank2r.bmp	572	1	sonnig	866	0	0	0	0	0	0	0	0	0	0	0	0	0	0	0	0	0	0	0	0	0	0	0	0	0	0	0	0	0	0	0	0	0	0	0	0
082719	10:42:21	10:43:38	74954	5.0.10.0	5_exp_RW	115	Rpleas_acq	CS_A	CPPC	LWWL	JQQJ	YFFY	DXXD	ZHHZ	sonnig	vertrauen	küssen	genießen	träumen	gütig	sterben	versagen	krank	gemein	töten	gierig	1	acq_USpleas_CSpleas1_RW	acq1_RW	1	12	0	0	300	300	406	50	0	1	1	blank2r.bmp	0	1	+	0	1	blank2r.bmp	492	1	CPPC	492	1	blank2r.bmp	572	2	vertrauen	866	0	0	0	0	0	0	0	0	0	0	0	0	0	0	0	0	0	0	0	0	0	0	0	0	0	0	0	0	0	0	0	0	0	0	0	0
082719	10:42:21	10:43:40	76967	5.0.10.0	5_exp_RW	115	Rpleas_acq	CS_A	CPPC	LWWL	JQQJ	YFFY	DXXD	ZHHZ	sonnig	vertrauen	küssen	genießen	träumen	gütig	sterben	versagen	krank	gemein	töten	gierig	1	acq_USunple_CSunple1_RW	acq1_RW	1	13	0	0	300	300	529	46	0	1	1	blank2r.bmp	0	1	+	0	1	blank2r.bmp	492	1	JQQJ	492	1	blank2r.bmp	572	3	krank	866	0	0	0	0	0	0	0	0	0	0	0	0	0	0	0	0	0	0	0	0	0	0	0	0	0	0	0	0	0	0	0	0	0	0	0	0
082719	10:42:21	10:43:42	78886	5.0.10.0	5_exp_RW	115	Rpleas_acq	CS_A	CPPC	LWWL	JQQJ	YFFY	DXXD	ZHHZ	sonnig	vertrauen	küssen	genießen	träumen	gütig	sterben	versagen	krank	gemein	töten	gierig	1	acq_USunple_CSunple2_RW	acq1_RW	1	14	0	0	300	300	427	46	0	1	1	blank2r.bmp	0	1	+	0	1	blank2r.bmp	492	1	YFFY	492	1	blank2r.bmp	572	1	gemein	866	0	0	0	0	0	0	0	0	0	0	0	0	0	0	0	0	0	0	0	0	0	0	0	0	0	0	0	0	0	0	0	0	0	0	0	0
082719	10:42:21	10:43:44	80698	5.0.10.0	5_exp_RW	115	Rpleas_acq	CS_A	CPPC	LWWL	JQQJ	YFFY	DXXD	ZHHZ	sonnig	vertrauen	küssen	genießen	träumen	gütig	sterben	versagen	krank	gemein	töten	gierig	1	acq_USunple_CSunple2_RW	acq1_RW	1	15	0	0	300	300	336	46	0	1	1	blank2r.bmp	0	1	+	0	1	blank2r.bmp	492	1	YFFY	492	1	blank2r.bmp	572	2	töten	866	0	0	0	0	0	0	0	0	0	0	0	0	0	0	0	0	0	0	0	0	0	0	0	0	0	0	0	0	0	0	0	0	0	0	0	0
082719	10:42:21	10:43:45	82564	5.0.10.0	5_exp_RW	115	Rpleas_acq	CS_A	CPPC	LWWL	JQQJ	YFFY	DXXD	ZHHZ	sonnig	vertrauen	küssen	genießen	träumen	gütig	sterben	versagen	krank	gemein	töten	gierig	1	acq_USunple_CSunple2_RW	acq1_RW	1	16	0	0	300	300	383	46	0	1	1	blank2r.bmp	0	1	+	0	1	blank2r.bmp	492	1	YFFY	492	1	blank2r.bmp	572	1	gemein	866	0	0	0	0	0	0	0	0	0	0	0	0	0	0	0	0	0	0	0	0	0	0	0	0	0	0	0	0	0	0	0	0	0	0	0	0
082719	10:42:21	10:44:08	105115	5.0.10.0	5_exp_RW	115	Rpleas_acq	CS_A	CPPC	LWWL	JQQJ	YFFY	DXXD	ZHHZ	sonnig	vertrauen	küssen	genießen	träumen	gütig	sterben	versagen	krank	gemein	töten	gierig	1	acq_USpleas_CSpleas2_RW	acq2_RW	2	1	480	0	300	300	848	50	0	1	1	blank2r.bmp	0	1	+	0	1	blank2r.bmp	492	1	LWWL	492	1	blank2r.bmp	572	1	genießen	866	1	!	1319	1	!	-1	0	0	0	0	0	0	0	0	0	0	0	0	0	0	0	0	0	0	0	0	0	0	0	0	0	0	0	0	0	0
082719	10:42:21	10:44:10	107394	5.0.10.0	5_exp_RW	115	Rpleas_acq	CS_A	CPPC	LWWL	JQQJ	YFFY	DXXD	ZHHZ	sonnig	vertrauen	küssen	genießen	träumen	gütig	sterben	versagen	krank	gemein	töten	gierig	1	acq_USpleas_CSpleas1_RW	acq2_RW	2	2	480	1	300	300	455	50	0	1	1	blank2r.bmp	0	1	+	0	1	blank2r.bmp	492	1	CPPC	492	1	blank2r.bmp	572	3	küssen	866	1	!	1319	1	!	1359	0	0	0	0	0	0	0	0	0	0	0	0	0	0	0	0	0	0	0	0	0	0	0	0	0	0	0	0	0	0
082719	10:42:21	10:44:13	109726	5.0.10.0	5_exp_RW	115	Rpleas_acq	CS_A	CPPC	LWWL	JQQJ	YFFY	DXXD	ZHHZ	sonnig	vertrauen	küssen	genießen	träumen	gütig	sterben	versagen	krank	gemein	töten	gierig	1	acq_USunple_CSunple1_RW	acq2_RW	2	3	480	0	300	300	571	46	0	1	1	blank2r.bmp	0	1	+	0	1	blank2r.bmp	492	1	JQQJ	492	1	blank2r.bmp	572	1	sterben	866	1	!	1319	1	!	-1	0	0	0	0	0	0	0	0	0	0	0	0	0	0	0	0	0	0	0	0	0	0	0	0	0	0	0	0	0	0
082719	10:42:21	10:44:15	112019	5.0.10.0	5_exp_RW	115	Rpleas_acq	CS_A	CPPC	LWWL	JQQJ	YFFY	DXXD	ZHHZ	sonnig	vertrauen	küssen	genießen	träumen	gütig	sterben	versagen	krank	gemein	töten	gierig	1	acq_USunple_CSunple1_RW	acq2_RW	2	4	480	1	300	300	480	46	0	1	1	blank2r.bmp	0	1	+	0	1	blank2r.bmp	492	1	JQQJ	492	1	blank2r.bmp	572	2	versagen	866	1	!	1319	1	!	1386	0	0	0	0	0	0	0	0	0	0	0	0	0	0	0	0	0	0	0	0	0	0	0	0	0	0	0	0	0	0
082719	10:42:21	10:44:17	114138	5.0.10.0	5_exp_RW	115	Rpleas_acq	CS_A	CPPC	LWWL	JQQJ	YFFY	DXXD	ZHHZ	sonnig	vertrauen	küssen	genießen	träumen	gütig	sterben	versagen	krank	gemein	töten	gierig	1	acq_USpleas_CSpleas2_RW	acq2_RW	2	5	480	0	300	300	351	50	0	1	1	blank2r.bmp	0	1	+	0	1	blank2r.bmp	492	1	LWWL	492	1	blank2r.bmp	572	2	träumen	866	1	!	-1	1	!	-1	0	0	0	0	0	0	0	0	0	0	0	0	0	0	0	0	0	0	0	0	0	0	0	0	0	0	0	0	0	0
082719	10:42:21	10:44:19	116403	5.0.10.0	5_exp_RW	115	Rpleas_acq	CS_A	CPPC	LWWL	JQQJ	YFFY	DXXD	ZHHZ	sonnig	vertrauen	küssen	genießen	träumen	gütig	sterben	versagen	krank	gemein	töten	gierig	1	acq_USunple_CSunple1_RW	acq2_RW	2	6	480	1	300	300	461	46	0	1	1	blank2r.bmp	0	1	+	0	1	blank2r.bmp	492	1	JQQJ	492	1	blank2r.bmp	572	3	krank	866	1	!	1319	1	!	1359	0	0	0	0	0	0	0	0	0	0	0	0	0	0	0	0	0	0	0	0	0	0	0	0	0	0	0	0	0	0
082719	10:42:21	10:44:22	118802	5.0.10.0	5_exp_RW	115	Rpleas_acq	CS_A	CPPC	LWWL	JQQJ	YFFY	DXXD	ZHHZ	sonnig	vertrauen	küssen	genießen	träumen	gütig	sterben	versagen	krank	gemein	töten	gierig	1	acq_USunple_CSunple2_RW	acq2_RW	2	7	480	0	300	300	635	46	0	1	1	blank2r.bmp	0	1	+	0	1	blank2r.bmp	492	1	YFFY	492	1	blank2r.bmp	572	2	töten	866	1	!	1319	1	!	-1	0	0	0	0	0	0	0	0	0	0	0	0	0	0	0	0	0	0	0	0	0	0	0	0	0	0	0	0	0	0
082719	10:42:21	10:44:24	120895	5.0.10.0	5_exp_RW	115	Rpleas_acq	CS_A	CPPC	LWWL	JQQJ	YFFY	DXXD	ZHHZ	sonnig	vertrauen	küssen	genießen	träumen	gütig	sterben	versagen	krank	gemein	töten	gierig	1	acq_USunple_CSunple1_RW	acq2_RW	2	8	480	0	300	300	305	46	0	1	1	blank2r.bmp	0	1	+	0	1	blank2r.bmp	492	1	JQQJ	492	1	blank2r.bmp	572	1	sterben	866	1	!	-1	1	!	-1	0	0	0	0	0	0	0	0	0	0	0	0	0	0	0	0	0	0	0	0	0	0	0	0	0	0	0	0	0	0
082719	10:42:21	10:44:26	123240	5.0.10.0	5_exp_RW	115	Rpleas_acq	CS_A	CPPC	LWWL	JQQJ	YFFY	DXXD	ZHHZ	sonnig	vertrauen	küssen	genießen	träumen	gütig	sterben	versagen	krank	gemein	töten	gierig	1	acq_USunple_CSunple1_RW	acq2_RW	2	9	480	0	300	300	568	46	0	1	1	blank2r.bmp	0	1	+	0	1	blank2r.bmp	492	1	JQQJ	492	1	blank2r.bmp	572	2	versagen	866	1	!	1319	1	!	-1	0	0	0	0	0	0	0	0	0	0	0	0	0	0	0	0	0	0	0	0	0	0	0	0	0	0	0	0	0	0
082719	10:42:21	10:44:28	125480	5.0.10.0	5_exp_RW	115	Rpleas_acq	CS_A	CPPC	LWWL	JQQJ	YFFY	DXXD	ZHHZ	sonnig	vertrauen	küssen	genießen	träumen	gütig	sterben	versagen	krank	gemein	töten	gierig	1	acq_USpleas_CSpleas1_RW	acq2_RW	2	10	480	1	300	300	426	50	0	1	1	blank2r.bmp	0	1	+	0	1	blank2r.bmp	492	1	CPPC	492	1	blank2r.bmp	572	1	sonnig	866	1	!	1319	1	!	1332	0	0	0	0	0	0	0	0	0	0	0	0	0	0	0	0	0	0	0	0	0	0	0	0	0	0	0	0	0	0
082719	10:42:21	10:44:31	127812	5.0.10.0	5_exp_RW	115	Rpleas_acq	CS_A	CPPC	LWWL	JQQJ	YFFY	DXXD	ZHHZ	sonnig	vertrauen	küssen	genießen	träumen	gütig	sterben	versagen	krank	gemein	töten	gierig	1	acq_USpleas_CSpleas1_RW	acq2_RW	2	11	480	0	300	300	559	50	0	1	1	blank2r.bmp	0	1	+	0	1	blank2r.bmp	492	1	CPPC	492	1	blank2r.bmp	572	2	vertrauen	866	1	!	1319	1	!	-1	0	0	0	0	0	0	0	0	0	0	0	0	0	0	0	0	0	0	0	0	0	0	0	0	0	0	0	0	0	0
082719	10:42:21	10:44:33	129998	5.0.10.0	5_exp_RW	115	Rpleas_acq	CS_A	CPPC	LWWL	JQQJ	YFFY	DXXD	ZHHZ	sonnig	vertrauen	küssen	genießen	träumen	gütig	sterben	versagen	krank	gemein	töten	gierig	1	acq_USpleas_CSpleas2_RW	acq2_RW	2	12	480	0	300	300	391	50	0	1	1	blank2r.bmp	0	1	+	0	1	blank2r.bmp	492	1	LWWL	492	1	blank2r.bmp	572	2	träumen	866	1	!	-1	1	!	-1	0	0	0	0	0	0	0	0	0	0	0	0	0	0	0	0	0	0	0	0	0	0	0	0	0	0	0	0	0	0
082719	10:42:21	10:44:35	132303	5.0.10.0	5_exp_RW	115	Rpleas_acq	CS_A	CPPC	LWWL	JQQJ	YFFY	DXXD	ZHHZ	sonnig	vertrauen	küssen	genießen	träumen	gütig	sterben	versagen	krank	gemein	töten	gierig	1	acq_USpleas_CSpleas2_RW	acq2_RW	2	13	480	1	300	300	479	50	0	1	1	blank2r.bmp	0	1	+	0	1	blank2r.bmp	492	1	LWWL	492	1	blank2r.bmp	572	1	genießen	866	1	!	1319	1	!	1386	0	0	0	0	0	0	0	0	0	0	0	0	0	0	0	0	0	0	0	0	0	0	0	0	0	0	0	0	0	0
082719	10:42:21	10:44:37	134649	5.0.10.0	5_exp_RW	115	Rpleas_acq	CS_A	CPPC	LWWL	JQQJ	YFFY	DXXD	ZHHZ	sonnig	vertrauen	küssen	genießen	träumen	gütig	sterben	versagen	krank	gemein	töten	gierig	1	acq_USunple_CSunple2_RW	acq2_RW	2	14	480	1	300	300	539	46	0	1	1	blank2r.bmp	0	1	+	0	1	blank2r.bmp	492	1	YFFY	492	1	blank2r.bmp	572	3	gierig	866	1	!	1319	1	!	1439	0	0	0	0	0	0	0	0	0	0	0	0	0	0	0	0	0	0	0	0	0	0	0	0	0	0	0	0	0	0
082719	10:42:21	10:44:40	136941	5.0.10.0	5_exp_RW	115	Rpleas_acq	CS_A	CPPC	LWWL	JQQJ	YFFY	DXXD	ZHHZ	sonnig	vertrauen	küssen	genießen	träumen	gütig	sterben	versagen	krank	gemein	töten	gierig	1	acq_USunple_CSunple2_RW	acq2_RW	2	15	480	1	300	300	499	46	0	1	1	blank2r.bmp	0	1	+	0	1	blank2r.bmp	492	1	YFFY	492	1	blank2r.bmp	572	3	gierig	866	1	!	1319	1	!	1399	0	0	0	0	0	0	0	0	0	0	0	0	0	0	0	0	0	0	0	0	0	0	0	0	0	0	0	0	0	0
082719	10:42:21	10:44:42	139167	5.0.10.0	5_exp_RW	115	Rpleas_acq	CS_A	CPPC	LWWL	JQQJ	YFFY	DXXD	ZHHZ	sonnig	vertrauen	küssen	genießen	träumen	gütig	sterben	versagen	krank	gemein	töten	gierig	1	acq_USunple_CSunple2_RW	acq2_RW	2	16	480	1	300	300	426	46	0	1	1	blank2r.bmp	0	1	+	0	1	blank2r.bmp	492	1	YFFY	492	1	blank2r.bmp	572	1	gemein	866	1	!	1319	1	!	1332	0	0	0	0	0	0	0	0	0	0	0	0	0	0	0	0	0	0	0	0	0	0	0	0	0	0	0	0	0	0
082719	10:42:21	10:44:44	141673	5.0.10.0	5_exp_RW	115	Rpleas_acq	CS_A	CPPC	LWWL	JQQJ	YFFY	DXXD	ZHHZ	sonnig	vertrauen	küssen	genießen	träumen	gütig	sterben	versagen	krank	gemein	töten	gierig	1	acq_USunple_CSunple2_RW	acq2_RW	2	17	480	1	300	300	484	50	0	0	1	blank2r.bmp	0	1	+	0	1	blank2r.bmp	492	1	YFFY	492	1	blank2r.bmp	572	2	töten	866	1	FEHLER	1705	1	!	1319	1	!	1386	0	0	0	0	0	0	0	0	0	0	0	0	0	0	0	0	0	0	0	0	0	0	0	0	0	0	0
082719	10:42:21	10:44:46	143632	5.0.10.0	5_exp_RW	115	Rpleas_acq	CS_A	CPPC	LWWL	JQQJ	YFFY	DXXD	ZHHZ	sonnig	vertrauen	küssen	genießen	träumen	gütig	sterben	versagen	krank	gemein	töten	gierig	1	acq_USunple_CSunple2_RW	acq2_RW	2	18	480	0	300	300	401	46	0	1	1	blank2r.bmp	0	1	+	0	1	blank2r.bmp	492	1	YFFY	492	1	blank2r.bmp	572	2	töten	866	1	!	-1	1	!	-1	0	0	0	0	0	0	0	0	0	0	0	0	0	0	0	0	0	0	0	0	0	0	0	0	0	0	0	0	0	0
082719	10:42:21	10:44:49	146071	5.0.10.0	5_exp_RW	115	Rpleas_acq	CS_A	CPPC	LWWL	JQQJ	YFFY	DXXD	ZHHZ	sonnig	vertrauen	küssen	genießen	träumen	gütig	sterben	versagen	krank	gemein	töten	gierig	1	acq_USpleas_CSpleas1_RW	acq2_RW	2	19	480	0	300	300	641	50	0	1	1	blank2r.bmp	0	1	+	0	1	blank2r.bmp	492	1	CPPC	492	1	blank2r.bmp	572	1	sonnig	866	1	!	1319	1	!	-1	0	0	0	0	0	0	0	0	0	0	0	0	0	0	0	0	0	0	0	0	0	0	0	0	0	0	0	0	0	0
082719	10:42:21	10:44:51	148643	5.0.10.0	5_exp_RW	115	Rpleas_acq	CS_A	CPPC	LWWL	JQQJ	YFFY	DXXD	ZHHZ	sonnig	vertrauen	küssen	genießen	träumen	gütig	sterben	versagen	krank	gemein	töten	gierig	1	acq_USpleas_CSpleas2_RW	acq2_RW	2	20	480	0	300	300	562	46	0	0	1	blank2r.bmp	0	1	+	0	1	blank2r.bmp	492	1	LWWL	492	1	blank2r.bmp	572	3	gütig	866	1	FEHLER	1772	1	!	1319	1	!	-1	0	0	0	0	0	0	0	0	0	0	0	0	0	0	0	0	0	0	0	0	0	0	0	0	0	0	0
082719	10:42:21	10:44:53	150536	5.0.10.0	5_exp_RW	115	Rpleas_acq	CS_A	CPPC	LWWL	JQQJ	YFFY	DXXD	ZHHZ	sonnig	vertrauen	küssen	genießen	träumen	gütig	sterben	versagen	krank	gemein	töten	gierig	1	acq_USpleas_CSpleas1_RW	acq2_RW	2	21	480	0	300	300	336	50	0	1	1	blank2r.bmp	0	1	+	0	1	blank2r.bmp	492	1	CPPC	492	1	blank2r.bmp	572	3	küssen	866	1	!	-1	1	!	-1	0	0	0	0	0	0	0	0	0	0	0	0	0	0	0	0	0	0	0	0	0	0	0	0	0	0	0	0	0	0
082719	10:42:21	10:44:56	152801	5.0.10.0	5_exp_RW	115	Rpleas_acq	CS_A	CPPC	LWWL	JQQJ	YFFY	DXXD	ZHHZ	sonnig	vertrauen	küssen	genießen	träumen	gütig	sterben	versagen	krank	gemein	töten	gierig	1	acq_USpleas_CSpleas2_RW	acq2_RW	2	22	480	1	300	300	465	50	0	1	1	blank2r.bmp	0	1	+	0	1	blank2r.bmp	492	1	LWWL	492	1	blank2r.bmp	572	2	träumen	866	1	!	1319	1	!	1359	0	0	0	0	0	0	0	0	0	0	0	0	0	0	0	0	0	0	0	0	0	0	0	0	0	0	0	0	0	0
082719	10:42:21	10:44:58	155107	5.0.10.0	5_exp_RW	115	Rpleas_acq	CS_A	CPPC	LWWL	JQQJ	YFFY	DXXD	ZHHZ	sonnig	vertrauen	küssen	genießen	träumen	gütig	sterben	versagen	krank	gemein	töten	gierig	1	acq_USunple_CSunple1_RW	acq2_RW	2	23	480	1	300	300	500	46	0	1	1	blank2r.bmp	0	1	+	0	1	blank2r.bmp	492	1	JQQJ	492	1	blank2r.bmp	572	1	sterben	866	1	!	1319	1	!	1399	0	0	0	0	0	0	0	0	0	0	0	0	0	0	0	0	0	0	0	0	0	0	0	0	0	0	0	0	0	0
082719	10:42:21	10:45:00	157479	5.0.10.0	5_exp_RW	115	Rpleas_acq	CS_A	CPPC	LWWL	JQQJ	YFFY	DXXD	ZHHZ	sonnig	vertrauen	küssen	genießen	träumen	gütig	sterben	versagen	krank	gemein	töten	gierig	1	acq_USpleas_CSpleas1_RW	acq2_RW	2	24	480	0	300	300	606	50	0	1	1	blank2r.bmp	0	1	+	0	1	blank2r.bmp	492	1	CPPC	492	1	blank2r.bmp	572	2	vertrauen	866	1	!	1319	1	!	-1	0	0	0	0	0	0	0	0	0	0	0	0	0	0	0	0	0	0	0	0	0	0	0	0	0	0	0	0	0	0
082719	10:42:21	10:45:14	171233	5.0.10.0	5_exp_RW	115	Rpleas_acq	CS_A	CPPC	LWWL	JQQJ	YFFY	DXXD	ZHHZ	sonnig	vertrauen	küssen	genießen	träumen	gütig	sterben	versagen	krank	gemein	töten	gierig	1	acq_USpleas_CSpleas1_RW	acq3_RW	3	1	453	1	300	300	417	50	0	1	1	blank2r.bmp	0	1	+	0	1	blank2r.bmp	492	1	CPPC	492	1	blank2r.bmp	572	1	sonnig	866	1	!	1292	1	!	1319	0	0	0	0	0	0	0	0	0	0	0	0	0	0	0	0	0	0	0	0	0	0	0	0	0	0	0	0	0	0
082719	10:42:21	10:45:16	173672	5.0.10.0	5_exp_RW	115	Rpleas_acq	CS_A	CPPC	LWWL	JQQJ	YFFY	DXXD	ZHHZ	sonnig	vertrauen	küssen	genießen	träumen	gütig	sterben	versagen	krank	gemein	töten	gierig	1	acq_USpleas_CSpleas2_RW	acq3_RW	3	2	453	1	300	300	431	46	0	0	1	blank2r.bmp	0	1	+	0	1	blank2r.bmp	492	1	LWWL	492	1	blank2r.bmp	572	3	gütig	866	1	FEHLER	1652	1	!	1292	1	!	1332	0	0	0	0	0	0	0	0	0	0	0	0	0	0	0	0	0	0	0	0	0	0	0	0	0	0	0
082719	10:42:21	10:45:19	175792	5.0.10.0	5_exp_RW	115	Rpleas_acq	CS_A	CPPC	LWWL	JQQJ	YFFY	DXXD	ZHHZ	sonnig	vertrauen	küssen	genießen	träumen	gütig	sterben	versagen	krank	gemein	töten	gierig	1	acq_USunple_CSunple2_RW	acq3_RW	3	3	453	0	300	300	560	46	0	1	1	blank2r.bmp	0	1	+	0	1	blank2r.bmp	492	1	YFFY	492	1	blank2r.bmp	572	1	gemein	866	1	!	1292	1	!	-1	0	0	0	0	0	0	0	0	0	0	0	0	0	0	0	0	0	0	0	0	0	0	0	0	0	0	0	0	0	0
082719	10:42:21	10:45:21	178124	5.0.10.0	5_exp_RW	115	Rpleas_acq	CS_A	CPPC	LWWL	JQQJ	YFFY	DXXD	ZHHZ	sonnig	vertrauen	küssen	genießen	träumen	gütig	sterben	versagen	krank	gemein	töten	gierig	1	acq_USpleas_CSpleas2_RW	acq3_RW	3	4	453	0	300	300	555	50	0	1	1	blank2r.bmp	0	1	+	0	1	blank2r.bmp	492	1	LWWL	492	1	blank2r.bmp	572	1	genießen	866	1	!	1292	1	!	-1	0	0	0	0	0	0	0	0	0	0	0	0	0	0	0	0	0	0	0	0	0	0	0	0	0	0	0	0	0	0
082719	10:42:21	10:45:23	180350	5.0.10.0	5_exp_RW	115	Rpleas_acq	CS_A	CPPC	LWWL	JQQJ	YFFY	DXXD	ZHHZ	sonnig	vertrauen	küssen	genießen	träumen	gütig	sterben	versagen	krank	gemein	töten	gierig	1	acq_USunple_CSunple1_RW	acq3_RW	3	5	453	1	300	300	399	46	0	1	1	blank2r.bmp	0	1	+	0	1	blank2r.bmp	492	1	JQQJ	492	1	blank2r.bmp	572	3	krank	866	1	!	1292	1	!	1306	0	0	0	0	0	0	0	0	0	0	0	0	0	0	0	0	0	0	0	0	0	0	0	0	0	0	0	0	0	0
082719	10:42:21	10:45:26	182709	5.0.10.0	5_exp_RW	115	Rpleas_acq	CS_A	CPPC	LWWL	JQQJ	YFFY	DXXD	ZHHZ	sonnig	vertrauen	küssen	genießen	träumen	gütig	sterben	versagen	krank	gemein	töten	gierig	1	acq_USunple_CSunple1_RW	acq3_RW	3	6	453	0	300	300	370	50	0	0	1	blank2r.bmp	0	1	+	0	1	blank2r.bmp	492	1	JQQJ	492	1	blank2r.bmp	572	2	versagen	866	1	FEHLER	1572	1	!	-1	1	!	-1	0	0	0	0	0	0	0	0	0	0	0	0	0	0	0	0	0	0	0	0	0	0	0	0	0	0	0
082719	10:42:21	10:45:27	184694	5.0.10.0	5_exp_RW	115	Rpleas_acq	CS_A	CPPC	LWWL	JQQJ	YFFY	DXXD	ZHHZ	sonnig	vertrauen	küssen	genießen	träumen	gütig	sterben	versagen	krank	gemein	töten	gierig	1	acq_USpleas_CSpleas2_RW	acq3_RW	3	7	453	1	300	300	399	50	0	1	1	blank2r.bmp	0	1	+	0	1	blank2r.bmp	492	1	LWWL	492	1	blank2r.bmp	572	2	träumen	866	1	!	1292	1	!	1306	0	0	0	0	0	0	0	0	0	0	0	0	0	0	0	0	0	0	0	0	0	0	0	0	0	0	0	0	0	0
082719	10:42:21	10:45:30	186960	5.0.10.0	5_exp_RW	115	Rpleas_acq	CS_A	CPPC	LWWL	JQQJ	YFFY	DXXD	ZHHZ	sonnig	vertrauen	küssen	genießen	träumen	gütig	sterben	versagen	krank	gemein	töten	gierig	1	acq_USpleas_CSpleas1_RW	acq3_RW	3	8	453	0	300	300	277	46	0	0	1	blank2r.bmp	0	1	+	0	1	blank2r.bmp	492	1	CPPC	492	1	blank2r.bmp	572	3	küssen	866	1	FEHLER	1479	1	!	-1	1	!	-1	0	0	0	0	0	0	0	0	0	0	0	0	0	0	0	0	0	0	0	0	0	0	0	0	0	0	0
082719	10:42:21	10:45:32	189053	5.0.10.0	5_exp_RW	115	Rpleas_acq	CS_A	CPPC	LWWL	JQQJ	YFFY	DXXD	ZHHZ	sonnig	vertrauen	küssen	genießen	träumen	gütig	sterben	versagen	krank	gemein	töten	gierig	1	acq_USpleas_CSpleas1_RW	acq3_RW	3	9	453	1	300	300	492	50	0	1	1	blank2r.bmp	0	1	+	0	1	blank2r.bmp	492	1	CPPC	492	1	blank2r.bmp	572	2	vertrauen	866	1	!	1292	1	!	1399	0	0	0	0	0	0	0	0	0	0	0	0	0	0	0	0	0	0	0	0	0	0	0	0	0	0	0	0	0	0
082719	10:42:21	10:45:34	191252	5.0.10.0	5_exp_RW	115	Rpleas_acq	CS_A	CPPC	LWWL	JQQJ	YFFY	DXXD	ZHHZ	sonnig	vertrauen	küssen	genießen	träumen	gütig	sterben	versagen	krank	gemein	töten	gierig	1	acq_USunple_CSunple2_RW	acq3_RW	3	10	453	1	300	300	399	46	0	1	1	blank2r.bmp	0	1	+	0	1	blank2r.bmp	492	1	YFFY	492	1	blank2r.bmp	572	3	gierig	866	1	!	1292	1	!	1306	0	0	0	0	0	0	0	0	0	0	0	0	0	0	0	0	0	0	0	0	0	0	0	0	0	0	0	0	0	0
082719	10:42:21	10:45:36	193464	5.0.10.0	5_exp_RW	115	Rpleas_acq	CS_A	CPPC	LWWL	JQQJ	YFFY	DXXD	ZHHZ	sonnig	vertrauen	küssen	genießen	träumen	gütig	sterben	versagen	krank	gemein	töten	gierig	1	acq_USpleas_CSpleas1_RW	acq3_RW	3	11	453	1	300	300	415	50	0	1	1	blank2r.bmp	0	1	+	0	1	blank2r.bmp	492	1	CPPC	492	1	blank2r.bmp	572	3	küssen	866	1	!	1292	1	!	1319	0	0	0	0	0	0	0	0	0	0	0	0	0	0	0	0	0	0	0	0	0	0	0	0	0	0	0	0	0	0
082719	10:42:21	10:45:39	195730	5.0.10.0	5_exp_RW	115	Rpleas_acq	CS_A	CPPC	LWWL	JQQJ	YFFY	DXXD	ZHHZ	sonnig	vertrauen	küssen	genießen	träumen	gütig	sterben	versagen	krank	gemein	töten	gierig	1	acq_USunple_CSunple2_RW	acq3_RW	3	12	453	1	300	300	475	46	0	1	1	blank2r.bmp	0	1	+	0	1	blank2r.bmp	492	1	YFFY	492	1	blank2r.bmp	572	2	töten	866	1	!	1292	1	!	1372	0	0	0	0	0	0	0	0	0	0	0	0	0	0	0	0	0	0	0	0	0	0	0	0	0	0	0	0	0	0
082719	10:42:21	10:45:41	197956	5.0.10.0	5_exp_RW	115	Rpleas_acq	CS_A	CPPC	LWWL	JQQJ	YFFY	DXXD	ZHHZ	sonnig	vertrauen	küssen	genießen	träumen	gütig	sterben	versagen	krank	gemein	töten	gierig	1	acq_USunple_CSunple1_RW	acq3_RW	3	13	453	1	300	300	437	46	0	1	1	blank2r.bmp	0	1	+	0	1	blank2r.bmp	492	1	JQQJ	492	1	blank2r.bmp	572	2	versagen	866	1	!	1292	1	!	1332	0	0	0	0	0	0	0	0	0	0	0	0	0	0	0	0	0	0	0	0	0	0	0	0	0	0	0	0	0	0
082719	10:42:21	10:45:43	200261	5.0.10.0	5_exp_RW	115	Rpleas_acq	CS_A	CPPC	LWWL	JQQJ	YFFY	DXXD	ZHHZ	sonnig	vertrauen	küssen	genießen	träumen	gütig	sterben	versagen	krank	gemein	töten	gierig	1	acq_USpleas_CSpleas2_RW	acq3_RW	3	14	453	1	300	300	506	50	0	1	1	blank2r.bmp	0	1	+	0	1	blank2r.bmp	492	1	LWWL	492	1	blank2r.bmp	572	1	genießen	866	1	!	1292	1	!	1412	0	0	0	0	0	0	0	0	0	0	0	0	0	0	0	0	0	0	0	0	0	0	0	0	0	0	0	0	0	0
082719	10:42:21	10:45:45	202460	5.0.10.0	5_exp_RW	115	Rpleas_acq	CS_A	CPPC	LWWL	JQQJ	YFFY	DXXD	ZHHZ	sonnig	vertrauen	küssen	genießen	träumen	gütig	sterben	versagen	krank	gemein	töten	gierig	1	acq_USunple_CSunple2_RW	acq3_RW	3	15	453	1	300	300	399	46	0	1	1	blank2r.bmp	0	1	+	0	1	blank2r.bmp	492	1	YFFY	492	1	blank2r.bmp	572	3	gierig	866	1	!	1292	1	!	1306	0	0	0	0	0	0	0	0	0	0	0	0	0	0	0	0	0	0	0	0	0	0	0	0	0	0	0	0	0	0
082719	10:42:21	10:45:47	204593	5.0.10.0	5_exp_RW	115	Rpleas_acq	CS_A	CPPC	LWWL	JQQJ	YFFY	DXXD	ZHHZ	sonnig	vertrauen	küssen	genießen	träumen	gütig	sterben	versagen	krank	gemein	töten	gierig	1	acq_USpleas_CSpleas2_RW	acq3_RW	3	16	453	0	300	300	371	50	0	1	1	blank2r.bmp	0	1	+	0	1	blank2r.bmp	492	1	LWWL	492	1	blank2r.bmp	572	3	gütig	866	1	!	-1	1	!	-1	0	0	0	0	0	0	0	0	0	0	0	0	0	0	0	0	0	0	0	0	0	0	0	0	0	0	0	0	0	0
082719	10:42:21	10:45:50	206805	5.0.10.0	5_exp_RW	115	Rpleas_acq	CS_A	CPPC	LWWL	JQQJ	YFFY	DXXD	ZHHZ	sonnig	vertrauen	küssen	genießen	träumen	gütig	sterben	versagen	krank	gemein	töten	gierig	1	acq_USpleas_CSpleas2_RW	acq3_RW	3	17	453	1	300	300	401	50	0	1	1	blank2r.bmp	0	1	+	0	1	blank2r.bmp	492	1	LWWL	492	1	blank2r.bmp	572	3	gütig	866	1	!	1292	1	!	1306	0	0	0	0	0	0	0	0	0	0	0	0	0	0	0	0	0	0	0	0	0	0	0	0	0	0	0	0	0	0
082719	10:42:21	10:45:52	209044	5.0.10.0	5_exp_RW	115	Rpleas_acq	CS_A	CPPC	LWWL	JQQJ	YFFY	DXXD	ZHHZ	sonnig	vertrauen	küssen	genießen	träumen	gütig	sterben	versagen	krank	gemein	töten	gierig	1	acq_USunple_CSunple1_RW	acq3_RW	3	18	453	1	300	300	445	46	0	1	1	blank2r.bmp	0	1	+	0	1	blank2r.bmp	492	1	JQQJ	492	1	blank2r.bmp	572	3	krank	866	1	!	1292	1	!	1346	0	0	0	0	0	0	0	0	0	0	0	0	0	0	0	0	0	0	0	0	0	0	0	0	0	0	0	0	0	0
082719	10:42:21	10:45:54	211350	5.0.10.0	5_exp_RW	115	Rpleas_acq	CS_A	CPPC	LWWL	JQQJ	YFFY	DXXD	ZHHZ	sonnig	vertrauen	küssen	genießen	träumen	gütig	sterben	versagen	krank	gemein	töten	gierig	1	acq_USunple_CSunple1_RW	acq3_RW	3	19	453	0	300	300	542	46	0	1	1	blank2r.bmp	0	1	+	0	1	blank2r.bmp	492	1	JQQJ	492	1	blank2r.bmp	572	1	sterben	866	1	!	1292	1	!	-1	0	0	0	0	0	0	0	0	0	0	0	0	0	0	0	0	0	0	0	0	0	0	0	0	0	0	0	0	0	0
082719	10:42:21	10:45:56	213589	5.0.10.0	5_exp_RW	115	Rpleas_acq	CS_A	CPPC	LWWL	JQQJ	YFFY	DXXD	ZHHZ	sonnig	vertrauen	küssen	genießen	träumen	gütig	sterben	versagen	krank	gemein	töten	gierig	1	acq_USunple_CSunple2_RW	acq3_RW	3	20	453	1	300	300	425	46	0	1	1	blank2r.bmp	0	1	+	0	1	blank2r.bmp	492	1	YFFY	492	1	blank2r.bmp	572	1	gemein	866	1	!	1292	1	!	1319	0	0	0	0	0	0	0	0	0	0	0	0	0	0	0	0	0	0	0	0	0	0	0	0	0	0	0	0	0	0
082719	10:42:21	10:45:58	215695	5.0.10.0	5_exp_RW	115	Rpleas_acq	CS_A	CPPC	LWWL	JQQJ	YFFY	DXXD	ZHHZ	sonnig	vertrauen	küssen	genießen	träumen	gütig	sterben	versagen	krank	gemein	töten	gierig	1	acq_USunple_CSunple1_RW	acq3_RW	3	21	453	0	300	300	333	46	0	1	1	blank2r.bmp	0	1	+	0	1	blank2r.bmp	492	1	JQQJ	492	1	blank2r.bmp	572	3	krank	866	1	!	-1	1	!	-1	0	0	0	0	0	0	0	0	0	0	0	0	0	0	0	0	0	0	0	0	0	0	0	0	0	0	0	0	0	0
082719	10:42:21	10:46:01	217934	5.0.10.0	5_exp_RW	115	Rpleas_acq	CS_A	CPPC	LWWL	JQQJ	YFFY	DXXD	ZHHZ	sonnig	vertrauen	küssen	genießen	träumen	gütig	sterben	versagen	krank	gemein	töten	gierig	1	acq_USpleas_CSpleas1_RW	acq3_RW	3	22	453	1	300	300	438	50	0	1	1	blank2r.bmp	0	1	+	0	1	blank2r.bmp	492	1	CPPC	492	1	blank2r.bmp	572	1	sonnig	866	1	!	1292	1	!	1332	0	0	0	0	0	0	0	0	0	0	0	0	0	0	0	0	0	0	0	0	0	0	0	0	0	0	0	0	0	0
082719	10:42:21	10:46:03	220159	5.0.10.0	5_exp_RW	115	Rpleas_acq	CS_A	CPPC	LWWL	JQQJ	YFFY	DXXD	ZHHZ	sonnig	vertrauen	küssen	genießen	träumen	gütig	sterben	versagen	krank	gemein	töten	gierig	1	acq_USpleas_CSpleas1_RW	acq3_RW	3	23	453	1	300	300	436	50	0	1	1	blank2r.bmp	0	1	+	0	1	blank2r.bmp	492	1	CPPC	492	1	blank2r.bmp	572	3	küssen	866	1	!	1292	1	!	1332	0	0	0	0	0	0	0	0	0	0	0	0	0	0	0	0	0	0	0	0	0	0	0	0	0	0	0	0	0	0
082719	10:42:21	10:46:05	222399	5.0.10.0	5_exp_RW	115	Rpleas_acq	CS_A	CPPC	LWWL	JQQJ	YFFY	DXXD	ZHHZ	sonnig	vertrauen	küssen	genießen	träumen	gütig	sterben	versagen	krank	gemein	töten	gierig	1	acq_USunple_CSunple2_RW	acq3_RW	3	24	453	1	300	300	443	46	0	1	1	blank2r.bmp	0	1	+	0	1	blank2r.bmp	492	1	YFFY	492	1	blank2r.bmp	572	2	töten	866	1	!	1292	1	!	1346	0	0	0	0	0	0	0	0	0	0	0	0	0	0	0	0	0	0	0	0	0	0	0	0	0	0	0	0	0	0
082719	10:42:21	10:46:20	236912	5.0.10.0	5_exp_RW	115	Rpleas_acq	CS_A	CPPC	LWWL	JQQJ	YFFY	DXXD	ZHHZ	sonnig	vertrauen	küssen	genießen	träumen	gütig	sterben	versagen	krank	gemein	töten	gierig	1	acq_USunple_CSunple1_RW	acq4567_RW	4	1	400	1	300	300	371	50	0	0	1	blank2r.bmp	0	1	+	0	1	blank2r.bmp	492	1	JQQJ	492	1	blank2r.bmp	572	1	sterben	866	1	!	1239	1	!	1266	0	0	0	0	0	0	0	0	0	0	0	0	0	0	0	0	0	0	0	0	0	0	0	0	0	0	0	0	0	0
082719	10:42:21	10:46:22	239151	5.0.10.0	5_exp_RW	115	Rpleas_acq	CS_A	CPPC	LWWL	JQQJ	YFFY	DXXD	ZHHZ	sonnig	vertrauen	küssen	genießen	träumen	gütig	sterben	versagen	krank	gemein	töten	gierig	1	acq_USunple_CSunple2_RW	acq4567_RW	4	2	400	1	300	300	451	46	0	1	1	blank2r.bmp	0	1	+	0	1	blank2r.bmp	492	1	YFFY	492	1	blank2r.bmp	572	3	gierig	866	1	!	1239	1	!	1346	0	0	0	0	0	0	0	0	0	0	0	0	0	0	0	0	0	0	0	0	0	0	0	0	0	0	0	0	0	0
082719	10:42:21	10:46:24	241350	5.0.10.0	5_exp_RW	115	Rpleas_acq	CS_A	CPPC	LWWL	JQQJ	YFFY	DXXD	ZHHZ	sonnig	vertrauen	küssen	genießen	träumen	gütig	sterben	versagen	krank	gemein	töten	gierig	1	acq_USpleas_CSpleas1_RW	acq4567_RW	4	3	400	1	300	300	400	50	0	1	1	blank2r.bmp	0	1	+	0	1	blank2r.bmp	492	1	CPPC	492	1	blank2r.bmp	572	2	vertrauen	866	1	!	1239	1	!	1306	0	0	0	0	0	0	0	0	0	0	0	0	0	0	0	0	0	0	0	0	0	0	0	0	0	0	0	0	0	0
082719	10:42:21	10:46:26	243643	5.0.10.0	5_exp_RW	115	Rpleas_acq	CS_A	CPPC	LWWL	JQQJ	YFFY	DXXD	ZHHZ	sonnig	vertrauen	küssen	genießen	träumen	gütig	sterben	versagen	krank	gemein	töten	gierig	1	acq_USpleas_CSpleas1_RW	acq4567_RW	4	4	400	0	300	300	519	50	0	1	1	blank2r.bmp	0	1	+	0	1	blank2r.bmp	492	1	CPPC	492	1	blank2r.bmp	572	1	sonnig	866	1	!	1239	1	!	-1	0	0	0	0	0	0	0	0	0	0	0	0	0	0	0	0	0	0	0	0	0	0	0	0	0	0	0	0	0	0
082719	10:42:21	10:46:29	245895	5.0.10.0	5_exp_RW	115	Rpleas_acq	CS_A	CPPC	LWWL	JQQJ	YFFY	DXXD	ZHHZ	sonnig	vertrauen	küssen	genießen	träumen	gütig	sterben	versagen	krank	gemein	töten	gierig	1	acq_USpleas_CSpleas2_RW	acq4567_RW	4	5	400	1	300	300	434	50	0	1	1	blank2r.bmp	0	1	+	0	1	blank2r.bmp	492	1	LWWL	492	1	blank2r.bmp	572	1	genießen	866	1	!	1239	1	!	1332	0	0	0	0	0	0	0	0	0	0	0	0	0	0	0	0	0	0	0	0	0	0	0	0	0	0	0	0	0	0
082719	10:42:21	10:46:31	247934	5.0.10.0	5_exp_RW	115	Rpleas_acq	CS_A	CPPC	LWWL	JQQJ	YFFY	DXXD	ZHHZ	sonnig	vertrauen	küssen	genießen	träumen	gütig	sterben	versagen	krank	gemein	töten	gierig	1	acq_USunple_CSunple1_RW	acq4567_RW	4	6	400	0	300	300	277	46	0	1	1	blank2r.bmp	0	1	+	0	1	blank2r.bmp	492	1	JQQJ	492	1	blank2r.bmp	572	2	versagen	866	1	!	-1	1	!	-1	0	0	0	0	0	0	0	0	0	0	0	0	0	0	0	0	0	0	0	0	0	0	0	0	0	0	0	0	0	0
082719	10:42:21	10:46:33	250133	5.0.10.0	5_exp_RW	115	Rpleas_acq	CS_A	CPPC	LWWL	JQQJ	YFFY	DXXD	ZHHZ	sonnig	vertrauen	küssen	genießen	träumen	gütig	sterben	versagen	krank	gemein	töten	gierig	1	acq_USpleas_CSpleas1_RW	acq4567_RW	4	7	400	1	300	300	392	50	0	1	1	blank2r.bmp	0	1	+	0	1	blank2r.bmp	492	1	CPPC	492	1	blank2r.bmp	572	1	sonnig	866	1	!	1239	1	!	1292	0	0	0	0	0	0	0	0	0	0	0	0	0	0	0	0	0	0	0	0	0	0	0	0	0	0	0	0	0	0
082719	10:42:21	10:46:35	252239	5.0.10.0	5_exp_RW	115	Rpleas_acq	CS_A	CPPC	LWWL	JQQJ	YFFY	DXXD	ZHHZ	sonnig	vertrauen	küssen	genießen	träumen	gütig	sterben	versagen	krank	gemein	töten	gierig	1	acq_USpleas_CSpleas1_RW	acq4567_RW	4	8	400	0	300	300	333	50	0	1	1	blank2r.bmp	0	1	+	0	1	blank2r.bmp	492	1	CPPC	492	1	blank2r.bmp	572	3	küssen	866	1	!	-1	1	!	-1	0	0	0	0	0	0	0	0	0	0	0	0	0	0	0	0	0	0	0	0	0	0	0	0	0	0	0	0	0	0
082719	10:42:21	10:46:37	254518	5.0.10.0	5_exp_RW	115	Rpleas_acq	CS_A	CPPC	LWWL	JQQJ	YFFY	DXXD	ZHHZ	sonnig	vertrauen	küssen	genießen	träumen	gütig	sterben	versagen	krank	gemein	töten	gierig	1	acq_USunple_CSunple1_RW	acq4567_RW	4	9	400	1	300	300	465	46	0	1	1	blank2r.bmp	0	1	+	0	1	blank2r.bmp	492	1	JQQJ	492	1	blank2r.bmp	572	3	krank	866	1	!	1239	1	!	1359	0	0	0	0	0	0	0	0	0	0	0	0	0	0	0	0	0	0	0	0	0	0	0	0	0	0	0	0	0	0
082719	10:42:21	10:46:40	256744	5.0.10.0	5_exp_RW	115	Rpleas_acq	CS_A	CPPC	LWWL	JQQJ	YFFY	DXXD	ZHHZ	sonnig	vertrauen	küssen	genießen	träumen	gütig	sterben	versagen	krank	gemein	töten	gierig	1	acq_USunple_CSunple2_RW	acq4567_RW	4	10	400	1	300	300	431	46	0	1	1	blank2r.bmp	0	1	+	0	1	blank2r.bmp	492	1	YFFY	492	1	blank2r.bmp	572	1	gemein	866	1	!	1239	1	!	1332	0	0	0	0	0	0	0	0	0	0	0	0	0	0	0	0	0	0	0	0	0	0	0	0	0	0	0	0	0	0
082719	10:42:21	10:46:42	258996	5.0.10.0	5_exp_RW	115	Rpleas_acq	CS_A	CPPC	LWWL	JQQJ	YFFY	DXXD	ZHHZ	sonnig	vertrauen	küssen	genießen	träumen	gütig	sterben	versagen	krank	gemein	töten	gierig	1	acq_USpleas_CSpleas2_RW	acq4567_RW	4	11	400	1	300	300	442	50	0	1	1	blank2r.bmp	0	1	+	0	1	blank2r.bmp	492	1	LWWL	492	1	blank2r.bmp	572	2	träumen	866	1	!	1239	1	!	1346	0	0	0	0	0	0	0	0	0	0	0	0	0	0	0	0	0	0	0	0	0	0	0	0	0	0	0	0	0	0
082719	10:42:21	10:46:44	261235	5.0.10.0	5_exp_RW	115	Rpleas_acq	CS_A	CPPC	LWWL	JQQJ	YFFY	DXXD	ZHHZ	sonnig	vertrauen	küssen	genießen	träumen	gütig	sterben	versagen	krank	gemein	töten	gierig	1	acq_USpleas_CSpleas2_RW	acq4567_RW	4	12	400	1	300	300	446	50	0	1	1	blank2r.bmp	0	1	+	0	1	blank2r.bmp	492	1	LWWL	492	1	blank2r.bmp	572	1	genießen	866	1	!	1239	1	!	1346	0	0	0	0	0	0	0	0	0	0	0	0	0	0	0	0	0	0	0	0	0	0	0	0	0	0	0	0	0	0
082719	10:42:21	10:46:46	263328	5.0.10.0	5_exp_RW	115	Rpleas_acq	CS_A	CPPC	LWWL	JQQJ	YFFY	DXXD	ZHHZ	sonnig	vertrauen	küssen	genießen	träumen	gütig	sterben	versagen	krank	gemein	töten	gierig	1	acq_USpleas_CSpleas2_RW	acq4567_RW	4	13	400	0	300	300	316	46	0	0	1	blank2r.bmp	0	1	+	0	1	blank2r.bmp	492	1	LWWL	492	1	blank2r.bmp	572	3	gütig	866	1	!	-1	1	!	-1	0	0	0	0	0	0	0	0	0	0	0	0	0	0	0	0	0	0	0	0	0	0	0	0	0	0	0	0	0	0
082719	10:42:21	10:46:48	265527	5.0.10.0	5_exp_RW	115	Rpleas_acq	CS_A	CPPC	LWWL	JQQJ	YFFY	DXXD	ZHHZ	sonnig	vertrauen	küssen	genießen	träumen	gütig	sterben	versagen	krank	gemein	töten	gierig	1	acq_USunple_CSunple1_RW	acq4567_RW	4	14	400	1	300	300	376	46	0	1	1	blank2r.bmp	0	1	+	0	1	blank2r.bmp	492	1	JQQJ	492	1	blank2r.bmp	572	2	versagen	866	1	!	1239	1	!	1279	0	0	0	0	0	0	0	0	0	0	0	0	0	0	0	0	0	0	0	0	0	0	0	0	0	0	0	0	0	0
082719	10:42:21	10:46:50	267686	5.0.10.0	5_exp_RW	115	Rpleas_acq	CS_A	CPPC	LWWL	JQQJ	YFFY	DXXD	ZHHZ	sonnig	vertrauen	küssen	genießen	träumen	gütig	sterben	versagen	krank	gemein	töten	gierig	1	acq_USunple_CSunple2_RW	acq4567_RW	4	15	400	1	300	300	355	50	0	0	1	blank2r.bmp	0	1	+	0	1	blank2r.bmp	492	1	YFFY	492	1	blank2r.bmp	572	1	gemein	866	1	!	1239	1	!	1252	0	0	0	0	0	0	0	0	0	0	0	0	0	0	0	0	0	0	0	0	0	0	0	0	0	0	0	0	0	0
082719	10:42:21	10:46:53	269778	5.0.10.0	5_exp_RW	115	Rpleas_acq	CS_A	CPPC	LWWL	JQQJ	YFFY	DXXD	ZHHZ	sonnig	vertrauen	küssen	genießen	träumen	gütig	sterben	versagen	krank	gemein	töten	gierig	1	acq_USunple_CSunple2_RW	acq4567_RW	4	16	400	0	300	300	324	50	0	0	1	blank2r.bmp	0	1	+	0	1	blank2r.bmp	492	1	YFFY	492	1	blank2r.bmp	572	3	gierig	866	1	!	-1	1	!	-1	0	0	0	0	0	0	0	0	0	0	0	0	0	0	0	0	0	0	0	0	0	0	0	0	0	0	0	0	0	0
082719	10:42:21	10:46:59	275976	5.0.10.0	5_exp_RW	115	Rpleas_acq	CS_A	CPPC	LWWL	JQQJ	YFFY	DXXD	ZHHZ	sonnig	vertrauen	küssen	genießen	träumen	gütig	sterben	versagen	krank	gemein	töten	gierig	1	acq_USunple_CSunple2_RW	acq4567_RW	4	17	400	0	300	300	4422	50	0	0	1	blank2r.bmp	0	1	+	0	1	blank2r.bmp	492	1	YFFY	492	1	blank2r.bmp	572	2	töten	866	1	!	1239	1	!	-1	0	0	0	0	0	0	0	0	0	0	0	0	0	0	0	0	0	0	0	0	0	0	0	0	0	0	0	0	0	0
082719	10:42:21	10:47:01	278215	5.0.10.0	5_exp_RW	115	Rpleas_acq	CS_A	CPPC	LWWL	JQQJ	YFFY	DXXD	ZHHZ	sonnig	vertrauen	küssen	genießen	träumen	gütig	sterben	versagen	krank	gemein	töten	gierig	1	acq_USpleas_CSpleas2_RW	acq4567_RW	4	18	400	1	300	300	434	50	0	1	1	blank2r.bmp	0	1	+	0	1	blank2r.bmp	492	1	LWWL	492	1	blank2r.bmp	572	2	träumen	866	1	!	1239	1	!	1332	0	0	0	0	0	0	0	0	0	0	0	0	0	0	0	0	0	0	0	0	0	0	0	0	0	0	0	0	0	0
082719	10:42:21	10:47:03	280267	5.0.10.0	5_exp_RW	115	Rpleas_acq	CS_A	CPPC	LWWL	JQQJ	YFFY	DXXD	ZHHZ	sonnig	vertrauen	küssen	genießen	träumen	gütig	sterben	versagen	krank	gemein	töten	gierig	1	acq_USunple_CSunple1_RW	acq4567_RW	4	19	400	0	300	300	290	46	0	1	1	blank2r.bmp	0	1	+	0	1	blank2r.bmp	492	1	JQQJ	492	1	blank2r.bmp	572	1	sterben	866	1	!	-1	1	!	-1	0	0	0	0	0	0	0	0	0	0	0	0	0	0	0	0	0	0	0	0	0	0	0	0	0	0	0	0	0	0
082719	10:42:21	10:47:05	282480	5.0.10.0	5_exp_RW	115	Rpleas_acq	CS_A	CPPC	LWWL	JQQJ	YFFY	DXXD	ZHHZ	sonnig	vertrauen	küssen	genießen	träumen	gütig	sterben	versagen	krank	gemein	töten	gierig	1	acq_USpleas_CSpleas1_RW	acq4567_RW	4	20	400	1	300	300	404	50	0	1	1	blank2r.bmp	0	1	+	0	1	blank2r.bmp	492	1	CPPC	492	1	blank2r.bmp	572	2	vertrauen	866	1	!	1239	1	!	1306	0	0	0	0	0	0	0	0	0	0	0	0	0	0	0	0	0	0	0	0	0	0	0	0	0	0	0	0	0	0
082719	10:42:21	10:47:07	284559	5.0.10.0	5_exp_RW	115	Rpleas_acq	CS_A	CPPC	LWWL	JQQJ	YFFY	DXXD	ZHHZ	sonnig	vertrauen	küssen	genießen	träumen	gütig	sterben	versagen	krank	gemein	töten	gierig	1	acq_USpleas_CSpleas2_RW	acq4567_RW	4	21	400	0	300	300	312	46	0	0	1	blank2r.bmp	0	1	+	0	1	blank2r.bmp	492	1	LWWL	492	1	blank2r.bmp	572	3	gütig	866	1	!	-1	1	!	-1	0	0	0	0	0	0	0	0	0	0	0	0	0	0	0	0	0	0	0	0	0	0	0	0	0	0	0	0	0	0
082719	10:42:21	10:47:10	286785	5.0.10.0	5_exp_RW	115	Rpleas_acq	CS_A	CPPC	LWWL	JQQJ	YFFY	DXXD	ZHHZ	sonnig	vertrauen	küssen	genießen	träumen	gütig	sterben	versagen	krank	gemein	töten	gierig	1	acq_USunple_CSunple2_RW	acq4567_RW	4	22	400	1	300	300	416	46	0	1	1	blank2r.bmp	0	1	+	0	1	blank2r.bmp	492	1	YFFY	492	1	blank2r.bmp	572	1	gemein	866	1	!	1239	1	!	1319	0	0	0	0	0	0	0	0	0	0	0	0	0	0	0	0	0	0	0	0	0	0	0	0	0	0	0	0	0	0
082719	10:42:21	10:47:12	288944	5.0.10.0	5_exp_RW	115	Rpleas_acq	CS_A	CPPC	LWWL	JQQJ	YFFY	DXXD	ZHHZ	sonnig	vertrauen	küssen	genießen	träumen	gütig	sterben	versagen	krank	gemein	töten	gierig	1	acq_USpleas_CSpleas1_RW	acq4567_RW	4	23	400	1	300	300	359	50	0	1	1	blank2r.bmp	0	1	+	0	1	blank2r.bmp	492	1	CPPC	492	1	blank2r.bmp	572	1	sonnig	866	1	!	1239	1	!	1266	0	0	0	0	0	0	0	0	0	0	0	0	0	0	0	0	0	0	0	0	0	0	0	0	0	0	0	0	0	0
082719	10:42:21	10:47:14	291089	5.0.10.0	5_exp_RW	115	Rpleas_acq	CS_A	CPPC	LWWL	JQQJ	YFFY	DXXD	ZHHZ	sonnig	vertrauen	küssen	genießen	träumen	gütig	sterben	versagen	krank	gemein	töten	gierig	1	acq_USpleas_CSpleas1_RW	acq4567_RW	4	24	400	1	300	300	352	50	0	1	1	blank2r.bmp	0	1	+	0	1	blank2r.bmp	492	1	CPPC	492	1	blank2r.bmp	572	3	küssen	866	1	!	1239	1	!	1252	0	0	0	0	0	0	0	0	0	0	0	0	0	0	0	0	0	0	0	0	0	0	0	0	0	0	0	0	0	0
082719	10:42:21	10:47:16	293302	5.0.10.0	5_exp_RW	115	Rpleas_acq	CS_A	CPPC	LWWL	JQQJ	YFFY	DXXD	ZHHZ	sonnig	vertrauen	küssen	genießen	träumen	gütig	sterben	versagen	krank	gemein	töten	gierig	1	acq_USunple_CSunple2_RW	acq4567_RW	4	25	400	1	300	300	424	50	0	0	1	blank2r.bmp	0	1	+	0	1	blank2r.bmp	492	1	YFFY	492	1	blank2r.bmp	572	2	töten	866	1	!	1239	1	!	1319	0	0	0	0	0	0	0	0	0	0	0	0	0	0	0	0	0	0	0	0	0	0	0	0	0	0	0	0	0	0
082719	10:42:21	10:47:18	295514	5.0.10.0	5_exp_RW	115	Rpleas_acq	CS_A	CPPC	LWWL	JQQJ	YFFY	DXXD	ZHHZ	sonnig	vertrauen	küssen	genießen	träumen	gütig	sterben	versagen	krank	gemein	töten	gierig	1	acq_USunple_CSunple1_RW	acq4567_RW	4	26	400	1	300	300	420	46	0	1	1	blank2r.bmp	0	1	+	0	1	blank2r.bmp	492	1	JQQJ	492	1	blank2r.bmp	572	2	versagen	866	1	!	1239	1	!	1319	0	0	0	0	0	0	0	0	0	0	0	0	0	0	0	0	0	0	0	0	0	0	0	0	0	0	0	0	0	0
082719	10:42:21	10:47:21	297767	5.0.10.0	5_exp_RW	115	Rpleas_acq	CS_A	CPPC	LWWL	JQQJ	YFFY	DXXD	ZHHZ	sonnig	vertrauen	küssen	genießen	träumen	gütig	sterben	versagen	krank	gemein	töten	gierig	1	acq_USpleas_CSpleas1_RW	acq4567_RW	4	27	400	1	300	300	461	50	0	1	1	blank2r.bmp	0	1	+	0	1	blank2r.bmp	492	1	CPPC	492	1	blank2r.bmp	572	2	vertrauen	866	1	!	1239	1	!	1359	0	0	0	0	0	0	0	0	0	0	0	0	0	0	0	0	0	0	0	0	0	0	0	0	0	0	0	0	0	0
082719	10:42:21	10:47:23	299966	5.0.10.0	5_exp_RW	115	Rpleas_acq	CS_A	CPPC	LWWL	JQQJ	YFFY	DXXD	ZHHZ	sonnig	vertrauen	küssen	genießen	träumen	gütig	sterben	versagen	krank	gemein	töten	gierig	1	acq_USunple_CSunple2_RW	acq4567_RW	4	28	400	1	300	300	408	46	0	1	1	blank2r.bmp	0	1	+	0	1	blank2r.bmp	492	1	YFFY	492	1	blank2r.bmp	572	3	gierig	866	1	!	1239	1	!	1306	0	0	0	0	0	0	0	0	0	0	0	0	0	0	0	0	0	0	0	0	0	0	0	0	0	0	0	0	0	0
082719	10:42:21	10:47:25	302178	5.0.10.0	5_exp_RW	115	Rpleas_acq	CS_A	CPPC	LWWL	JQQJ	YFFY	DXXD	ZHHZ	sonnig	vertrauen	küssen	genießen	träumen	gütig	sterben	versagen	krank	gemein	töten	gierig	1	acq_USunple_CSunple1_RW	acq4567_RW	4	29	400	1	300	300	415	46	0	1	1	blank2r.bmp	0	1	+	0	1	blank2r.bmp	492	1	JQQJ	492	1	blank2r.bmp	572	3	krank	866	1	!	1239	1	!	1319	0	0	0	0	0	0	0	0	0	0	0	0	0	0	0	0	0	0	0	0	0	0	0	0	0	0	0	0	0	0
082719	10:42:21	10:47:27	304390	5.0.10.0	5_exp_RW	115	Rpleas_acq	CS_A	CPPC	LWWL	JQQJ	YFFY	DXXD	ZHHZ	sonnig	vertrauen	küssen	genießen	träumen	gütig	sterben	versagen	krank	gemein	töten	gierig	1	acq_USpleas_CSpleas1_RW	acq4567_RW	4	30	400	1	300	300	422	50	0	1	1	blank2r.bmp	0	1	+	0	1	blank2r.bmp	492	1	CPPC	492	1	blank2r.bmp	572	3	küssen	866	1	!	1239	1	!	1319	0	0	0	0	0	0	0	0	0	0	0	0	0	0	0	0	0	0	0	0	0	0	0	0	0	0	0	0	0	0
082719	10:42:21	10:47:29	306483	5.0.10.0	5_exp_RW	115	Rpleas_acq	CS_A	CPPC	LWWL	JQQJ	YFFY	DXXD	ZHHZ	sonnig	vertrauen	küssen	genießen	träumen	gütig	sterben	versagen	krank	gemein	töten	gierig	1	acq_USunple_CSunple1_RW	acq4567_RW	4	31	400	0	300	300	331	50	0	0	1	blank2r.bmp	0	1	+	0	1	blank2r.bmp	492	1	JQQJ	492	1	blank2r.bmp	572	1	sterben	866	1	!	-1	1	!	-1	0	0	0	0	0	0	0	0	0	0	0	0	0	0	0	0	0	0	0	0	0	0	0	0	0	0	0	0	0	0
082719	10:42:21	10:47:31	308655	5.0.10.0	5_exp_RW	115	Rpleas_acq	CS_A	CPPC	LWWL	JQQJ	YFFY	DXXD	ZHHZ	sonnig	vertrauen	küssen	genießen	träumen	gütig	sterben	versagen	krank	gemein	töten	gierig	1	acq_USpleas_CSpleas1_RW	acq4567_RW	4	32	400	1	300	300	367	46	0	0	1	blank2r.bmp	0	1	+	0	1	blank2r.bmp	492	1	CPPC	492	1	blank2r.bmp	572	2	vertrauen	866	1	!	1239	1	!	1266	0	0	0	0	0	0	0	0	0	0	0	0	0	0	0	0	0	0	0	0	0	0	0	0	0	0	0	0	0	0
082719	10:42:21	10:47:34	310801	5.0.10.0	5_exp_RW	115	Rpleas_acq	CS_A	CPPC	LWWL	JQQJ	YFFY	DXXD	ZHHZ	sonnig	vertrauen	küssen	genießen	träumen	gütig	sterben	versagen	krank	gemein	töten	gierig	1	acq_USunple_CSunple1_RW	acq4567_RW	4	33	400	1	300	300	355	46	0	1	1	blank2r.bmp	0	1	+	0	1	blank2r.bmp	492	1	JQQJ	492	1	blank2r.bmp	572	3	krank	866	1	!	1239	1	!	1252	0	0	0	0	0	0	0	0	0	0	0	0	0	0	0	0	0	0	0	0	0	0	0	0	0	0	0	0	0	0
082719	10:42:21	10:47:36	313040	5.0.10.0	5_exp_RW	115	Rpleas_acq	CS_A	CPPC	LWWL	JQQJ	YFFY	DXXD	ZHHZ	sonnig	vertrauen	küssen	genießen	träumen	gütig	sterben	versagen	krank	gemein	töten	gierig	1	acq_USunple_CSunple1_RW	acq4567_RW	4	34	400	1	300	300	445	46	0	1	1	blank2r.bmp	0	1	+	0	1	blank2r.bmp	492	1	JQQJ	492	1	blank2r.bmp	572	2	versagen	866	1	!	1239	1	!	1346	0	0	0	0	0	0	0	0	0	0	0	0	0	0	0	0	0	0	0	0	0	0	0	0	0	0	0	0	0	0
082719	10:42:21	10:47:38	315279	5.0.10.0	5_exp_RW	115	Rpleas_acq	CS_A	CPPC	LWWL	JQQJ	YFFY	DXXD	ZHHZ	sonnig	vertrauen	küssen	genießen	träumen	gütig	sterben	versagen	krank	gemein	töten	gierig	1	acq_USpleas_CSpleas2_RW	acq4567_RW	4	35	400	1	300	300	444	50	0	1	1	blank2r.bmp	0	1	+	0	1	blank2r.bmp	492	1	LWWL	492	1	blank2r.bmp	572	2	träumen	866	1	!	1239	1	!	1346	0	0	0	0	0	0	0	0	0	0	0	0	0	0	0	0	0	0	0	0	0	0	0	0	0	0	0	0	0	0
082719	10:42:21	10:47:40	317478	5.0.10.0	5_exp_RW	115	Rpleas_acq	CS_A	CPPC	LWWL	JQQJ	YFFY	DXXD	ZHHZ	sonnig	vertrauen	küssen	genießen	träumen	gütig	sterben	versagen	krank	gemein	töten	gierig	1	acq_USpleas_CSpleas2_RW	acq4567_RW	4	36	400	1	300	300	401	50	0	1	1	blank2r.bmp	0	1	+	0	1	blank2r.bmp	492	1	LWWL	492	1	blank2r.bmp	572	1	genießen	866	1	!	1239	1	!	1306	0	0	0	0	0	0	0	0	0	0	0	0	0	0	0	0	0	0	0	0	0	0	0	0	0	0	0	0	0	0
082719	10:42:21	10:47:42	319544	5.0.10.0	5_exp_RW	115	Rpleas_acq	CS_A	CPPC	LWWL	JQQJ	YFFY	DXXD	ZHHZ	sonnig	vertrauen	küssen	genießen	träumen	gütig	sterben	versagen	krank	gemein	töten	gierig	1	acq_USunple_CSunple2_RW	acq4567_RW	4	37	400	0	300	300	300	46	0	1	1	blank2r.bmp	0	1	+	0	1	blank2r.bmp	492	1	YFFY	492	1	blank2r.bmp	572	2	töten	866	1	!	-1	1	!	-1	0	0	0	0	0	0	0	0	0	0	0	0	0	0	0	0	0	0	0	0	0	0	0	0	0	0	0	0	0	0
082719	10:42:21	10:47:44	321650	5.0.10.0	5_exp_RW	115	Rpleas_acq	CS_A	CPPC	LWWL	JQQJ	YFFY	DXXD	ZHHZ	sonnig	vertrauen	küssen	genießen	träumen	gütig	sterben	versagen	krank	gemein	töten	gierig	1	acq_USpleas_CSpleas2_RW	acq4567_RW	4	38	400	0	300	300	322	46	0	0	1	blank2r.bmp	0	1	+	0	1	blank2r.bmp	492	1	LWWL	492	1	blank2r.bmp	572	3	gütig	866	1	!	-1	1	!	-1	0	0	0	0	0	0	0	0	0	0	0	0	0	0	0	0	0	0	0	0	0	0	0	0	0	0	0	0	0	0
082719	10:42:21	10:47:47	323809	5.0.10.0	5_exp_RW	115	Rpleas_acq	CS_A	CPPC	LWWL	JQQJ	YFFY	DXXD	ZHHZ	sonnig	vertrauen	küssen	genießen	träumen	gütig	sterben	versagen	krank	gemein	töten	gierig	1	acq_USpleas_CSpleas2_RW	acq4567_RW	4	39	400	1	300	300	354	50	0	1	1	blank2r.bmp	0	1	+	0	1	blank2r.bmp	492	1	LWWL	492	1	blank2r.bmp	572	1	genießen	866	1	!	1239	1	!	1252	0	0	0	0	0	0	0	0	0	0	0	0	0	0	0	0	0	0	0	0	0	0	0	0	0	0	0	0	0	0
082719	10:42:21	10:47:49	326075	5.0.10.0	5_exp_RW	115	Rpleas_acq	CS_A	CPPC	LWWL	JQQJ	YFFY	DXXD	ZHHZ	sonnig	vertrauen	küssen	genießen	träumen	gütig	sterben	versagen	krank	gemein	töten	gierig	1	acq_USunple_CSunple2_RW	acq4567_RW	4	40	400	0	300	300	491	46	0	1	1	blank2r.bmp	0	1	+	0	1	blank2r.bmp	492	1	YFFY	492	1	blank2r.bmp	572	3	gierig	866	1	!	1239	1	!	-1	0	0	0	0	0	0	0	0	0	0	0	0	0	0	0	0	0	0	0	0	0	0	0	0	0	0	0	0	0	0
082719	10:42:21	10:47:51	328167	5.0.10.0	5_exp_RW	115	Rpleas_acq	CS_A	CPPC	LWWL	JQQJ	YFFY	DXXD	ZHHZ	sonnig	vertrauen	küssen	genießen	träumen	gütig	sterben	versagen	krank	gemein	töten	gierig	1	acq_USpleas_CSpleas2_RW	acq4567_RW	4	41	400	0	300	300	315	50	0	1	1	blank2r.bmp	0	1	+	0	1	blank2r.bmp	492	1	LWWL	492	1	blank2r.bmp	572	2	träumen	866	1	!	-1	1	!	-1	0	0	0	0	0	0	0	0	0	0	0	0	0	0	0	0	0	0	0	0	0	0	0	0	0	0	0	0	0	0
082719	10:42:21	10:47:53	330326	5.0.10.0	5_exp_RW	115	Rpleas_acq	CS_A	CPPC	LWWL	JQQJ	YFFY	DXXD	ZHHZ	sonnig	vertrauen	küssen	genießen	träumen	gütig	sterben	versagen	krank	gemein	töten	gierig	1	acq_USpleas_CSpleas2_RW	acq4567_RW	4	42	400	1	300	300	353	50	0	1	1	blank2r.bmp	0	1	+	0	1	blank2r.bmp	492	1	LWWL	492	1	blank2r.bmp	572	1	genießen	866	1	!	1239	1	!	1252	0	0	0	0	0	0	0	0	0	0	0	0	0	0	0	0	0	0	0	0	0	0	0	0	0	0	0	0	0	0
082719	10:42:21	10:47:55	332579	5.0.10.0	5_exp_RW	115	Rpleas_acq	CS_A	CPPC	LWWL	JQQJ	YFFY	DXXD	ZHHZ	sonnig	vertrauen	küssen	genießen	träumen	gütig	sterben	versagen	krank	gemein	töten	gierig	1	acq_USpleas_CSpleas2_RW	acq4567_RW	4	43	400	0	300	300	479	46	0	0	1	blank2r.bmp	0	1	+	0	1	blank2r.bmp	492	1	LWWL	492	1	blank2r.bmp	572	3	gütig	866	1	!	1239	1	!	-1	0	0	0	0	0	0	0	0	0	0	0	0	0	0	0	0	0	0	0	0	0	0	0	0	0	0	0	0	0	0
082719	10:42:21	10:47:58	334751	5.0.10.0	5_exp_RW	115	Rpleas_acq	CS_A	CPPC	LWWL	JQQJ	YFFY	DXXD	ZHHZ	sonnig	vertrauen	küssen	genießen	träumen	gütig	sterben	versagen	krank	gemein	töten	gierig	1	acq_USunple_CSunple1_RW	acq4567_RW	4	44	400	1	300	300	356	50	0	0	1	blank2r.bmp	0	1	+	0	1	blank2r.bmp	492	1	JQQJ	492	1	blank2r.bmp	572	1	sterben	866	1	!	1239	1	!	1252	0	0	0	0	0	0	0	0	0	0	0	0	0	0	0	0	0	0	0	0	0	0	0	0	0	0	0	0	0	0
082719	10:42:21	10:48:00	336963	5.0.10.0	5_exp_RW	115	Rpleas_acq	CS_A	CPPC	LWWL	JQQJ	YFFY	DXXD	ZHHZ	sonnig	vertrauen	küssen	genießen	träumen	gütig	sterben	versagen	krank	gemein	töten	gierig	1	acq_USunple_CSunple1_RW	acq4567_RW	4	45	400	1	300	300	420	50	0	0	1	blank2r.bmp	0	1	+	0	1	blank2r.bmp	492	1	JQQJ	492	1	blank2r.bmp	572	2	versagen	866	1	!	1239	1	!	1319	0	0	0	0	0	0	0	0	0	0	0	0	0	0	0	0	0	0	0	0	0	0	0	0	0	0	0	0	0	0
082719	10:42:21	10:48:02	339136	5.0.10.0	5_exp_RW	115	Rpleas_acq	CS_A	CPPC	LWWL	JQQJ	YFFY	DXXD	ZHHZ	sonnig	vertrauen	küssen	genießen	träumen	gütig	sterben	versagen	krank	gemein	töten	gierig	1	acq_USpleas_CSpleas2_RW	acq4567_RW	4	46	400	1	300	300	377	50	0	1	1	blank2r.bmp	0	1	+	0	1	blank2r.bmp	492	1	LWWL	492	1	blank2r.bmp	572	2	träumen	866	1	!	1239	1	!	1279	0	0	0	0	0	0	0	0	0	0	0	0	0	0	0	0	0	0	0	0	0	0	0	0	0	0	0	0	0	0
082719	10:42:21	10:48:04	341202	5.0.10.0	5_exp_RW	115	Rpleas_acq	CS_A	CPPC	LWWL	JQQJ	YFFY	DXXD	ZHHZ	sonnig	vertrauen	küssen	genießen	träumen	gütig	sterben	versagen	krank	gemein	töten	gierig	1	acq_USunple_CSunple1_RW	acq4567_RW	4	47	400	0	300	300	297	46	0	1	1	blank2r.bmp	0	1	+	0	1	blank2r.bmp	492	1	JQQJ	492	1	blank2r.bmp	572	3	krank	866	1	!	-1	1	!	-1	0	0	0	0	0	0	0	0	0	0	0	0	0	0	0	0	0	0	0	0	0	0	0	0	0	0	0	0	0	0
082719	10:42:21	10:48:06	343374	5.0.10.0	5_exp_RW	115	Rpleas_acq	CS_A	CPPC	LWWL	JQQJ	YFFY	DXXD	ZHHZ	sonnig	vertrauen	küssen	genießen	träumen	gütig	sterben	versagen	krank	gemein	töten	gierig	1	acq_USunple_CSunple2_RW	acq4567_RW	4	48	400	1	300	300	370	46	0	1	1	blank2r.bmp	0	1	+	0	1	blank2r.bmp	492	1	YFFY	492	1	blank2r.bmp	572	1	gemein	866	1	!	1239	1	!	1266	0	0	0	0	0	0	0	0	0	0	0	0	0	0	0	0	0	0	0	0	0	0	0	0	0	0	0	0	0	0
082719	10:42:21	10:48:08	345560	5.0.10.0	5_exp_RW	115	Rpleas_acq	CS_A	CPPC	LWWL	JQQJ	YFFY	DXXD	ZHHZ	sonnig	vertrauen	küssen	genießen	träumen	gütig	sterben	versagen	krank	gemein	töten	gierig	1	acq_USpleas_CSpleas1_RW	acq4567_RW	4	49	400	1	300	300	391	50	0	1	1	blank2r.bmp	0	1	+	0	1	blank2r.bmp	492	1	CPPC	492	1	blank2r.bmp	572	1	sonnig	866	1	!	1239	1	!	1292	0	0	0	0	0	0	0	0	0	0	0	0	0	0	0	0	0	0	0	0	0	0	0	0	0	0	0	0	0	0
082719	10:42:21	10:48:10	347639	5.0.10.0	5_exp_RW	115	Rpleas_acq	CS_A	CPPC	LWWL	JQQJ	YFFY	DXXD	ZHHZ	sonnig	vertrauen	küssen	genießen	träumen	gütig	sterben	versagen	krank	gemein	töten	gierig	1	acq_USpleas_CSpleas1_RW	acq4567_RW	4	50	400	0	300	300	312	50	0	1	1	blank2r.bmp	0	1	+	0	1	blank2r.bmp	492	1	CPPC	492	1	blank2r.bmp	572	1	sonnig	866	1	!	-1	1	!	-1	0	0	0	0	0	0	0	0	0	0	0	0	0	0	0	0	0	0	0	0	0	0	0	0	0	0	0	0	0	0
082719	10:42:21	10:48:13	349745	5.0.10.0	5_exp_RW	115	Rpleas_acq	CS_A	CPPC	LWWL	JQQJ	YFFY	DXXD	ZHHZ	sonnig	vertrauen	küssen	genießen	träumen	gütig	sterben	versagen	krank	gemein	töten	gierig	1	acq_USunple_CSunple2_RW	acq4567_RW	4	51	400	0	300	300	324	46	0	1	1	blank2r.bmp	0	1	+	0	1	blank2r.bmp	492	1	YFFY	492	1	blank2r.bmp	572	2	töten	866	1	!	-1	1	!	-1	0	0	0	0	0	0	0	0	0	0	0	0	0	0	0	0	0	0	0	0	0	0	0	0	0	0	0	0	0	0
082719	10:42:21	10:48:15	352077	5.0.10.0	5_exp_RW	115	Rpleas_acq	CS_A	CPPC	LWWL	JQQJ	YFFY	DXXD	ZHHZ	sonnig	vertrauen	küssen	genießen	träumen	gütig	sterben	versagen	krank	gemein	töten	gierig	1	acq_USunple_CSunple2_RW	acq4567_RW	4	52	400	0	300	300	555	46	0	1	1	blank2r.bmp	0	1	+	0	1	blank2r.bmp	492	1	YFFY	492	1	blank2r.bmp	572	1	gemein	866	1	!	1239	1	!	-1	0	0	0	0	0	0	0	0	0	0	0	0	0	0	0	0	0	0	0	0	0	0	0	0	0	0	0	0	0	0
082719	10:42:21	10:48:17	354156	5.0.10.0	5_exp_RW	115	Rpleas_acq	CS_A	CPPC	LWWL	JQQJ	YFFY	DXXD	ZHHZ	sonnig	vertrauen	küssen	genießen	träumen	gütig	sterben	versagen	krank	gemein	töten	gierig	1	acq_USunple_CSunple1_RW	acq4567_RW	4	53	400	0	300	300	288	46	0	1	1	blank2r.bmp	0	1	+	0	1	blank2r.bmp	492	1	JQQJ	492	1	blank2r.bmp	572	1	sterben	866	1	!	-1	1	!	-1	0	0	0	0	0	0	0	0	0	0	0	0	0	0	0	0	0	0	0	0	0	0	0	0	0	0	0	0	0	0
082719	10:42:21	10:48:19	356448	5.0.10.0	5_exp_RW	115	Rpleas_acq	CS_A	CPPC	LWWL	JQQJ	YFFY	DXXD	ZHHZ	sonnig	vertrauen	küssen	genießen	träumen	gütig	sterben	versagen	krank	gemein	töten	gierig	1	acq_USpleas_CSpleas1_RW	acq4567_RW	4	54	400	0	300	300	511	50	0	1	1	blank2r.bmp	0	1	+	0	1	blank2r.bmp	492	1	CPPC	492	1	blank2r.bmp	572	3	küssen	866	1	!	1239	1	!	-1	0	0	0	0	0	0	0	0	0	0	0	0	0	0	0	0	0	0	0	0	0	0	0	0	0	0	0	0	0	0
082719	10:42:21	10:48:21	358608	5.0.10.0	5_exp_RW	115	Rpleas_acq	CS_A	CPPC	LWWL	JQQJ	YFFY	DXXD	ZHHZ	sonnig	vertrauen	küssen	genießen	träumen	gütig	sterben	versagen	krank	gemein	töten	gierig	1	acq_USpleas_CSpleas1_RW	acq4567_RW	4	55	400	1	300	300	357	50	0	1	1	blank2r.bmp	0	1	+	0	1	blank2r.bmp	492	1	CPPC	492	1	blank2r.bmp	572	2	vertrauen	866	1	!	1239	1	!	1252	0	0	0	0	0	0	0	0	0	0	0	0	0	0	0	0	0	0	0	0	0	0	0	0	0	0	0	0	0	0
082719	10:42:21	10:48:24	360900	5.0.10.0	5_exp_RW	115	Rpleas_acq	CS_A	CPPC	LWWL	JQQJ	YFFY	DXXD	ZHHZ	sonnig	vertrauen	küssen	genießen	träumen	gütig	sterben	versagen	krank	gemein	töten	gierig	1	acq_USunple_CSunple2_RW	acq4567_RW	4	56	400	0	300	300	532	46	0	1	1	blank2r.bmp	0	1	+	0	1	blank2r.bmp	492	1	YFFY	492	1	blank2r.bmp	572	3	gierig	866	1	!	1239	1	!	-1	0	0	0	0	0	0	0	0	0	0	0	0	0	0	0	0	0	0	0	0	0	0	0	0	0	0	0	0	0	0
082719	10:42:21	10:48:26	363086	5.0.10.0	5_exp_RW	115	Rpleas_acq	CS_A	CPPC	LWWL	JQQJ	YFFY	DXXD	ZHHZ	sonnig	vertrauen	küssen	genießen	träumen	gütig	sterben	versagen	krank	gemein	töten	gierig	1	acq_USpleas_CSpleas1_RW	acq4567_RW	4	57	400	1	300	300	373	50	0	1	1	blank2r.bmp	0	1	+	0	1	blank2r.bmp	492	1	CPPC	492	1	blank2r.bmp	572	3	küssen	866	1	!	1239	1	!	1279	0	0	0	0	0	0	0	0	0	0	0	0	0	0	0	0	0	0	0	0	0	0	0	0	0	0	0	0	0	0
082719	10:42:21	10:48:28	365325	5.0.10.0	5_exp_RW	115	Rpleas_acq	CS_A	CPPC	LWWL	JQQJ	YFFY	DXXD	ZHHZ	sonnig	vertrauen	küssen	genießen	träumen	gütig	sterben	versagen	krank	gemein	töten	gierig	1	acq_USunple_CSunple2_RW	acq4567_RW	4	58	400	1	300	300	447	46	0	1	1	blank2r.bmp	0	1	+	0	1	blank2r.bmp	492	1	YFFY	492	1	blank2r.bmp	572	1	gemein	866	1	!	1239	1	!	1346	0	0	0	0	0	0	0	0	0	0	0	0	0	0	0	0	0	0	0	0	0	0	0	0	0	0	0	0	0	0
082719	10:42:21	10:48:30	367657	5.0.10.0	5_exp_RW	115	Rpleas_acq	CS_A	CPPC	LWWL	JQQJ	YFFY	DXXD	ZHHZ	sonnig	vertrauen	küssen	genießen	träumen	gütig	sterben	versagen	krank	gemein	töten	gierig	1	acq_USpleas_CSpleas2_RW	acq4567_RW	4	59	400	0	300	300	559	50	0	1	1	blank2r.bmp	0	1	+	0	1	blank2r.bmp	492	1	LWWL	492	1	blank2r.bmp	572	3	gütig	866	1	!	1239	1	!	-1	0	0	0	0	0	0	0	0	0	0	0	0	0	0	0	0	0	0	0	0	0	0	0	0	0	0	0	0	0	0
082719	10:42:21	10:48:33	369749	5.0.10.0	5_exp_RW	115	Rpleas_acq	CS_A	CPPC	LWWL	JQQJ	YFFY	DXXD	ZHHZ	sonnig	vertrauen	küssen	genießen	träumen	gütig	sterben	versagen	krank	gemein	töten	gierig	1	acq_USunple_CSunple1_RW	acq4567_RW	4	60	400	0	300	300	317	46	0	1	1	blank2r.bmp	0	1	+	0	1	blank2r.bmp	492	1	JQQJ	492	1	blank2r.bmp	572	1	sterben	866	1	!	-1	1	!	-1	0	0	0	0	0	0	0	0	0	0	0	0	0	0	0	0	0	0	0	0	0	0	0	0	0	0	0	0	0	0
082719	10:42:21	10:48:35	372015	5.0.10.0	5_exp_RW	115	Rpleas_acq	CS_A	CPPC	LWWL	JQQJ	YFFY	DXXD	ZHHZ	sonnig	vertrauen	küssen	genießen	träumen	gütig	sterben	versagen	krank	gemein	töten	gierig	1	acq_USpleas_CSpleas1_RW	acq4567_RW	4	61	400	0	300	300	479	50	0	1	1	blank2r.bmp	0	1	+	0	1	blank2r.bmp	492	1	CPPC	492	1	blank2r.bmp	572	2	vertrauen	866	1	!	1239	1	!	-1	0	0	0	0	0	0	0	0	0	0	0	0	0	0	0	0	0	0	0	0	0	0	0	0	0	0	0	0	0	0
082719	10:42:21	10:48:37	374294	5.0.10.0	5_exp_RW	115	Rpleas_acq	CS_A	CPPC	LWWL	JQQJ	YFFY	DXXD	ZHHZ	sonnig	vertrauen	küssen	genießen	träumen	gütig	sterben	versagen	krank	gemein	töten	gierig	1	acq_USunple_CSunple1_RW	acq4567_RW	4	62	400	0	300	300	479	46	0	1	1	blank2r.bmp	0	1	+	0	1	blank2r.bmp	492	1	JQQJ	492	1	blank2r.bmp	572	2	versagen	866	1	!	1239	1	!	-1	0	0	0	0	0	0	0	0	0	0	0	0	0	0	0	0	0	0	0	0	0	0	0	0	0	0	0	0	0	0
082719	10:42:21	10:48:39	376467	5.0.10.0	5_exp_RW	115	Rpleas_acq	CS_A	CPPC	LWWL	JQQJ	YFFY	DXXD	ZHHZ	sonnig	vertrauen	küssen	genießen	träumen	gütig	sterben	versagen	krank	gemein	töten	gierig	1	acq_USunple_CSunple2_RW	acq4567_RW	4	63	400	1	300	300	364	46	0	1	1	blank2r.bmp	0	1	+	0	1	blank2r.bmp	492	1	YFFY	492	1	blank2r.bmp	572	2	töten	866	1	!	1239	1	!	1266	0	0	0	0	0	0	0	0	0	0	0	0	0	0	0	0	0	0	0	0	0	0	0	0	0	0	0	0	0	0
082719	10:42:21	10:48:41	378532	5.0.10.0	5_exp_RW	115	Rpleas_acq	CS_A	CPPC	LWWL	JQQJ	YFFY	DXXD	ZHHZ	sonnig	vertrauen	küssen	genießen	träumen	gütig	sterben	versagen	krank	gemein	töten	gierig	1	acq_USpleas_CSpleas2_RW	acq4567_RW	4	64	400	0	300	300	293	46	0	0	1	blank2r.bmp	0	1	+	0	1	blank2r.bmp	492	1	LWWL	492	1	blank2r.bmp	572	1	genießen	866	1	!	-1	1	!	-1	0	0	0	0	0	0	0	0	0	0	0	0	0	0	0	0	0	0	0	0	0	0	0	0	0	0	0	0	0	0
082719	10:42:21	10:48:44	380718	5.0.10.0	5_exp_RW	115	Rpleas_acq	CS_A	CPPC	LWWL	JQQJ	YFFY	DXXD	ZHHZ	sonnig	vertrauen	küssen	genießen	träumen	gütig	sterben	versagen	krank	gemein	töten	gierig	1	acq_USpleas_CSpleas1_RW	acq4567_RW	4	65	400	1	300	300	374	50	0	1	1	blank2r.bmp	0	1	+	0	1	blank2r.bmp	492	1	CPPC	492	1	blank2r.bmp	572	1	sonnig	866	1	!	1239	1	!	1279	0	0	0	0	0	0	0	0	0	0	0	0	0	0	0	0	0	0	0	0	0	0	0	0	0	0	0	0	0	0
082719	10:42:21	10:48:46	382771	5.0.10.0	5_exp_RW	115	Rpleas_acq	CS_A	CPPC	LWWL	JQQJ	YFFY	DXXD	ZHHZ	sonnig	vertrauen	küssen	genießen	träumen	gütig	sterben	versagen	krank	gemein	töten	gierig	1	acq_USunple_CSunple1_RW	acq4567_RW	4	66	400	0	300	300	284	46	0	1	1	blank2r.bmp	0	1	+	0	1	blank2r.bmp	492	1	JQQJ	492	1	blank2r.bmp	572	3	krank	866	1	!	-1	1	!	-1	0	0	0	0	0	0	0	0	0	0	0	0	0	0	0	0	0	0	0	0	0	0	0	0	0	0	0	0	0	0
082719	10:42:21	10:48:48	384863	5.0.10.0	5_exp_RW	115	Rpleas_acq	CS_A	CPPC	LWWL	JQQJ	YFFY	DXXD	ZHHZ	sonnig	vertrauen	küssen	genießen	träumen	gütig	sterben	versagen	krank	gemein	töten	gierig	1	acq_USunple_CSunple2_RW	acq4567_RW	4	67	400	0	300	300	308	46	0	1	1	blank2r.bmp	0	1	+	0	1	blank2r.bmp	492	1	YFFY	492	1	blank2r.bmp	572	3	gierig	866	1	!	-1	1	!	-1	0	0	0	0	0	0	0	0	0	0	0	0	0	0	0	0	0	0	0	0	0	0	0	0	0	0	0	0	0	0
082719	10:42:21	10:48:50	387129	5.0.10.0	5_exp_RW	115	Rpleas_acq	CS_A	CPPC	LWWL	JQQJ	YFFY	DXXD	ZHHZ	sonnig	vertrauen	küssen	genießen	träumen	gütig	sterben	versagen	krank	gemein	töten	gierig	1	acq_USunple_CSunple1_RW	acq4567_RW	4	68	400	1	300	300	457	46	0	1	1	blank2r.bmp	0	1	+	0	1	blank2r.bmp	492	1	JQQJ	492	1	blank2r.bmp	572	1	sterben	866	1	!	1239	1	!	1359	0	0	0	0	0	0	0	0	0	0	0	0	0	0	0	0	0	0	0	0	0	0	0	0	0	0	0	0	0	0
082719	10:42:21	10:48:52	389395	5.0.10.0	5_exp_RW	115	Rpleas_acq	CS_A	CPPC	LWWL	JQQJ	YFFY	DXXD	ZHHZ	sonnig	vertrauen	küssen	genießen	träumen	gütig	sterben	versagen	krank	gemein	töten	gierig	1	acq_USunple_CSunple2_RW	acq4567_RW	4	69	400	0	300	300	479	46	0	1	1	blank2r.bmp	0	1	+	0	1	blank2r.bmp	492	1	YFFY	492	1	blank2r.bmp	572	1	gemein	866	1	!	1239	1	!	-1	0	0	0	0	0	0	0	0	0	0	0	0	0	0	0	0	0	0	0	0	0	0	0	0	0	0	0	0	0	0
082719	10:42:21	10:48:54	391594	5.0.10.0	5_exp_RW	115	Rpleas_acq	CS_A	CPPC	LWWL	JQQJ	YFFY	DXXD	ZHHZ	sonnig	vertrauen	küssen	genießen	träumen	gütig	sterben	versagen	krank	gemein	töten	gierig	1	acq_USpleas_CSpleas1_RW	acq4567_RW	4	70	400	1	300	300	392	50	0	1	1	blank2r.bmp	0	1	+	0	1	blank2r.bmp	492	1	CPPC	492	1	blank2r.bmp	572	1	sonnig	866	1	!	1239	1	!	1292	0	0	0	0	0	0	0	0	0	0	0	0	0	0	0	0	0	0	0	0	0	0	0	0	0	0	0	0	0	0
082719	10:42:21	10:48:57	393819	5.0.10.0	5_exp_RW	115	Rpleas_acq	CS_A	CPPC	LWWL	JQQJ	YFFY	DXXD	ZHHZ	sonnig	vertrauen	küssen	genießen	träumen	gütig	sterben	versagen	krank	gemein	töten	gierig	1	acq_USunple_CSunple1_RW	acq4567_RW	4	71	400	1	300	300	435	50	0	0	1	blank2r.bmp	0	1	+	0	1	blank2r.bmp	492	1	JQQJ	492	1	blank2r.bmp	572	2	versagen	866	1	!	1239	1	!	1332	0	0	0	0	0	0	0	0	0	0	0	0	0	0	0	0	0	0	0	0	0	0	0	0	0	0	0	0	0	0
082719	10:42:21	10:48:59	395992	5.0.10.0	5_exp_RW	115	Rpleas_acq	CS_A	CPPC	LWWL	JQQJ	YFFY	DXXD	ZHHZ	sonnig	vertrauen	küssen	genießen	träumen	gütig	sterben	versagen	krank	gemein	töten	gierig	1	acq_USunple_CSunple2_RW	acq4567_RW	4	72	400	1	300	300	371	46	0	1	1	blank2r.bmp	0	1	+	0	1	blank2r.bmp	492	1	YFFY	492	1	blank2r.bmp	572	2	töten	866	1	!	1239	1	!	1266	0	0	0	0	0	0	0	0	0	0	0	0	0	0	0	0	0	0	0	0	0	0	0	0	0	0	0	0	0	0
082719	10:42:21	10:49:01	398244	5.0.10.0	5_exp_RW	115	Rpleas_acq	CS_A	CPPC	LWWL	JQQJ	YFFY	DXXD	ZHHZ	sonnig	vertrauen	küssen	genießen	träumen	gütig	sterben	versagen	krank	gemein	töten	gierig	1	acq_USpleas_CSpleas1_RW	acq4567_RW	4	73	400	0	300	300	488	50	0	1	1	blank2r.bmp	0	1	+	0	1	blank2r.bmp	492	1	CPPC	492	1	blank2r.bmp	572	3	küssen	866	1	!	1239	1	!	-1	0	0	0	0	0	0	0	0	0	0	0	0	0	0	0	0	0	0	0	0	0	0	0	0	0	0	0	0	0	0
082719	10:42:21	10:49:03	400496	5.0.10.0	5_exp_RW	115	Rpleas_acq	CS_A	CPPC	LWWL	JQQJ	YFFY	DXXD	ZHHZ	sonnig	vertrauen	küssen	genießen	träumen	gütig	sterben	versagen	krank	gemein	töten	gierig	1	acq_USunple_CSunple2_RW	acq4567_RW	4	74	400	1	300	300	449	46	0	1	1	blank2r.bmp	0	1	+	0	1	blank2r.bmp	492	1	YFFY	492	1	blank2r.bmp	572	3	gierig	866	1	!	1239	1	!	1346	0	0	0	0	0	0	0	0	0	0	0	0	0	0	0	0	0	0	0	0	0	0	0	0	0	0	0	0	0	0
082719	10:42:21	10:49:05	402589	5.0.10.0	5_exp_RW	115	Rpleas_acq	CS_A	CPPC	LWWL	JQQJ	YFFY	DXXD	ZHHZ	sonnig	vertrauen	küssen	genießen	träumen	gütig	sterben	versagen	krank	gemein	töten	gierig	1	acq_USpleas_CSpleas2_RW	acq4567_RW	4	75	400	0	300	300	306	50	0	1	1	blank2r.bmp	0	1	+	0	1	blank2r.bmp	492	1	LWWL	492	1	blank2r.bmp	572	2	träumen	866	1	!	-1	1	!	-1	0	0	0	0	0	0	0	0	0	0	0	0	0	0	0	0	0	0	0	0	0	0	0	0	0	0	0	0	0	0
082719	10:42:21	10:49:08	404708	5.0.10.0	5_exp_RW	115	Rpleas_acq	CS_A	CPPC	LWWL	JQQJ	YFFY	DXXD	ZHHZ	sonnig	vertrauen	küssen	genießen	träumen	gütig	sterben	versagen	krank	gemein	töten	gierig	1	acq_USpleas_CSpleas2_RW	acq4567_RW	4	76	400	0	300	300	325	46	0	0	1	blank2r.bmp	0	1	+	0	1	blank2r.bmp	492	1	LWWL	492	1	blank2r.bmp	572	3	gütig	866	1	!	-1	1	!	-1	0	0	0	0	0	0	0	0	0	0	0	0	0	0	0	0	0	0	0	0	0	0	0	0	0	0	0	0	0	0
082719	10:42:21	10:49:10	406947	5.0.10.0	5_exp_RW	115	Rpleas_acq	CS_A	CPPC	LWWL	JQQJ	YFFY	DXXD	ZHHZ	sonnig	vertrauen	küssen	genießen	träumen	gütig	sterben	versagen	krank	gemein	töten	gierig	1	acq_USpleas_CSpleas2_RW	acq4567_RW	4	77	400	1	300	300	438	50	0	1	1	blank2r.bmp	0	1	+	0	1	blank2r.bmp	492	1	LWWL	492	1	blank2r.bmp	572	1	genießen	866	1	!	1239	1	!	1332	0	0	0	0	0	0	0	0	0	0	0	0	0	0	0	0	0	0	0	0	0	0	0	0	0	0	0	0	0	0
082719	10:42:21	10:49:12	409199	5.0.10.0	5_exp_RW	115	Rpleas_acq	CS_A	CPPC	LWWL	JQQJ	YFFY	DXXD	ZHHZ	sonnig	vertrauen	küssen	genießen	träumen	gütig	sterben	versagen	krank	gemein	töten	gierig	1	acq_USunple_CSunple1_RW	acq4567_RW	4	78	400	1	300	300	461	46	0	1	1	blank2r.bmp	0	1	+	0	1	blank2r.bmp	492	1	JQQJ	492	1	blank2r.bmp	572	3	krank	866	1	!	1239	1	!	1359	0	0	0	0	0	0	0	0	0	0	0	0	0	0	0	0	0	0	0	0	0	0	0	0	0	0	0	0	0	0
082719	10:42:21	10:49:14	411345	5.0.10.0	5_exp_RW	115	Rpleas_acq	CS_A	CPPC	LWWL	JQQJ	YFFY	DXXD	ZHHZ	sonnig	vertrauen	küssen	genießen	träumen	gütig	sterben	versagen	krank	gemein	töten	gierig	1	acq_USpleas_CSpleas1_RW	acq4567_RW	4	79	400	1	300	300	349	50	0	1	1	blank2r.bmp	0	1	+	0	1	blank2r.bmp	492	1	CPPC	492	1	blank2r.bmp	572	2	vertrauen	866	1	!	1239	1	!	1252	0	0	0	0	0	0	0	0	0	0	0	0	0	0	0	0	0	0	0	0	0	0	0	0	0	0	0	0	0	0
082719	10:42:21	10:49:16	413518	5.0.10.0	5_exp_RW	115	Rpleas_acq	CS_A	CPPC	LWWL	JQQJ	YFFY	DXXD	ZHHZ	sonnig	vertrauen	küssen	genießen	träumen	gütig	sterben	versagen	krank	gemein	töten	gierig	1	acq_USpleas_CSpleas2_RW	acq4567_RW	4	80	400	1	300	300	382	50	0	1	1	blank2r.bmp	0	1	+	0	1	blank2r.bmp	492	1	LWWL	492	1	blank2r.bmp	572	2	träumen	866	1	!	1239	1	!	1279	0	0	0	0	0	0	0	0	0	0	0	0	0	0	0	0	0	0	0	0	0	0	0	0	0	0	0	0	0	0
082719	10:42:21	10:49:29	426046	5.0.10.0	5_exp_RW	115	Rpleas_acq	CS_A	CPPC	LWWL	JQQJ	YFFY	DXXD	ZHHZ	sonnig	vertrauen	küssen	genießen	träumen	gütig	sterben	versagen	krank	gemein	töten	gierig	1	acq_USunple_CSunple2_RW	acq4567_RW	5	1	400	0	300	300	479	46	0	1	1	blank2r.bmp	0	1	+	0	1	blank2r.bmp	492	1	YFFY	492	1	blank2r.bmp	572	1	gemein	866	1	!	1239	1	!	-1	0	0	0	0	0	0	0	0	0	0	0	0	0	0	0	0	0	0	0	0	0	0	0	0	0	0	0	0	0	0
082719	10:42:21	10:49:31	428205	5.0.10.0	5_exp_RW	115	Rpleas_acq	CS_A	CPPC	LWWL	JQQJ	YFFY	DXXD	ZHHZ	sonnig	vertrauen	küssen	genießen	träumen	gütig	sterben	versagen	krank	gemein	töten	gierig	1	acq_USunple_CSunple1_RW	acq4567_RW	5	2	400	1	300	300	358	46	0	1	1	blank2r.bmp	0	1	+	0	1	blank2r.bmp	492	1	JQQJ	492	1	blank2r.bmp	572	3	krank	866	1	!	1239	1	!	1252	0	0	0	0	0	0	0	0	0	0	0	0	0	0	0	0	0	0	0	0	0	0	0	0	0	0	0	0	0	0
082719	10:42:21	10:49:33	430297	5.0.10.0	5_exp_RW	115	Rpleas_acq	CS_A	CPPC	LWWL	JQQJ	YFFY	DXXD	ZHHZ	sonnig	vertrauen	küssen	genießen	träumen	gütig	sterben	versagen	krank	gemein	töten	gierig	1	acq_USpleas_CSpleas1_RW	acq4567_RW	5	3	400	0	300	300	331	50	0	1	1	blank2r.bmp	0	1	+	0	1	blank2r.bmp	492	1	CPPC	492	1	blank2r.bmp	572	1	sonnig	866	1	!	-1	1	!	-1	0	0	0	0	0	0	0	0	0	0	0	0	0	0	0	0	0	0	0	0	0	0	0	0	0	0	0	0	0	0
082719	10:42:21	10:49:35	432456	5.0.10.0	5_exp_RW	115	Rpleas_acq	CS_A	CPPC	LWWL	JQQJ	YFFY	DXXD	ZHHZ	sonnig	vertrauen	küssen	genießen	träumen	gütig	sterben	versagen	krank	gemein	töten	gierig	1	acq_USpleas_CSpleas2_RW	acq4567_RW	5	4	400	1	300	300	350	50	0	1	1	blank2r.bmp	0	1	+	0	1	blank2r.bmp	492	1	LWWL	492	1	blank2r.bmp	572	3	gütig	866	1	!	1239	1	!	1252	0	0	0	0	0	0	0	0	0	0	0	0	0	0	0	0	0	0	0	0	0	0	0	0	0	0	0	0	0	0
082719	10:42:21	10:49:38	434709	5.0.10.0	5_exp_RW	115	Rpleas_acq	CS_A	CPPC	LWWL	JQQJ	YFFY	DXXD	ZHHZ	sonnig	vertrauen	küssen	genießen	träumen	gütig	sterben	versagen	krank	gemein	töten	gierig	1	acq_USunple_CSunple2_RW	acq4567_RW	5	5	400	1	300	300	463	46	0	1	1	blank2r.bmp	0	1	+	0	1	blank2r.bmp	492	1	YFFY	492	1	blank2r.bmp	572	3	gierig	866	1	!	1239	1	!	1359	0	0	0	0	0	0	0	0	0	0	0	0	0	0	0	0	0	0	0	0	0	0	0	0	0	0	0	0	0	0
082719	10:42:21	10:49:40	436908	5.0.10.0	5_exp_RW	115	Rpleas_acq	CS_A	CPPC	LWWL	JQQJ	YFFY	DXXD	ZHHZ	sonnig	vertrauen	küssen	genießen	träumen	gütig	sterben	versagen	krank	gemein	töten	gierig	1	acq_USunple_CSunple1_RW	acq4567_RW	5	6	400	1	300	300	386	50	0	0	1	blank2r.bmp	0	1	+	0	1	blank2r.bmp	492	1	JQQJ	492	1	blank2r.bmp	572	1	sterben	866	1	!	1239	1	!	1292	0	0	0	0	0	0	0	0	0	0	0	0	0	0	0	0	0	0	0	0	0	0	0	0	0	0	0	0	0	0
082719	10:42:21	10:49:42	439067	5.0.10.0	5_exp_RW	115	Rpleas_acq	CS_A	CPPC	LWWL	JQQJ	YFFY	DXXD	ZHHZ	sonnig	vertrauen	küssen	genießen	träumen	gütig	sterben	versagen	krank	gemein	töten	gierig	1	acq_USunple_CSunple2_RW	acq4567_RW	5	7	400	1	300	300	346	46	0	1	1	blank2r.bmp	0	1	+	0	1	blank2r.bmp	492	1	YFFY	492	1	blank2r.bmp	572	2	töten	866	1	!	1239	1	!	1252	0	0	0	0	0	0	0	0	0	0	0	0	0	0	0	0	0	0	0	0	0	0	0	0	0	0	0	0	0	0
082719	10:42:21	10:49:44	441253	5.0.10.0	5_exp_RW	115	Rpleas_acq	CS_A	CPPC	LWWL	JQQJ	YFFY	DXXD	ZHHZ	sonnig	vertrauen	küssen	genießen	träumen	gütig	sterben	versagen	krank	gemein	töten	gierig	1	acq_USpleas_CSpleas2_RW	acq4567_RW	5	8	400	1	300	300	391	50	0	1	1	blank2r.bmp	0	1	+	0	1	blank2r.bmp	492	1	LWWL	492	1	blank2r.bmp	572	2	träumen	866	1	!	1239	1	!	1292	0	0	0	0	0	0	0	0	0	0	0	0	0	0	0	0	0	0	0	0	0	0	0	0	0	0	0	0	0	0
082719	10:42:21	10:49:46	443398	5.0.10.0	5_exp_RW	115	Rpleas_acq	CS_A	CPPC	LWWL	JQQJ	YFFY	DXXD	ZHHZ	sonnig	vertrauen	küssen	genießen	träumen	gütig	sterben	versagen	krank	gemein	töten	gierig	1	acq_USpleas_CSpleas1_RW	acq4567_RW	5	9	400	1	300	300	347	50	0	1	1	blank2r.bmp	0	1	+	0	1	blank2r.bmp	492	1	CPPC	492	1	blank2r.bmp	572	2	vertrauen	866	1	!	1239	1	!	1252	0	0	0	0	0	0	0	0	0	0	0	0	0	0	0	0	0	0	0	0	0	0	0	0	0	0	0	0	0	0
082719	10:42:21	10:49:48	445544	5.0.10.0	5_exp_RW	115	Rpleas_acq	CS_A	CPPC	LWWL	JQQJ	YFFY	DXXD	ZHHZ	sonnig	vertrauen	küssen	genießen	träumen	gütig	sterben	versagen	krank	gemein	töten	gierig	1	acq_USpleas_CSpleas1_RW	acq4567_RW	5	10	400	1	300	300	348	50	0	1	1	blank2r.bmp	0	1	+	0	1	blank2r.bmp	492	1	CPPC	492	1	blank2r.bmp	572	3	küssen	866	1	!	1239	1	!	1252	0	0	0	0	0	0	0	0	0	0	0	0	0	0	0	0	0	0	0	0	0	0	0	0	0	0	0	0	0	0
082719	10:42:21	10:49:50	447637	5.0.10.0	5_exp_RW	115	Rpleas_acq	CS_A	CPPC	LWWL	JQQJ	YFFY	DXXD	ZHHZ	sonnig	vertrauen	küssen	genießen	träumen	gütig	sterben	versagen	krank	gemein	töten	gierig	1	acq_USunple_CSunple1_RW	acq4567_RW	5	11	400	0	300	300	321	46	0	1	1	blank2r.bmp	0	1	+	0	1	blank2r.bmp	492	1	JQQJ	492	1	blank2r.bmp	572	2	versagen	866	1	!	-1	1	!	-1	0	0	0	0	0	0	0	0	0	0	0	0	0	0	0	0	0	0	0	0	0	0	0	0	0	0	0	0	0	0
082719	10:42:21	10:49:53	449902	5.0.10.0	5_exp_RW	115	Rpleas_acq	CS_A	CPPC	LWWL	JQQJ	YFFY	DXXD	ZHHZ	sonnig	vertrauen	küssen	genießen	träumen	gütig	sterben	versagen	krank	gemein	töten	gierig	1	acq_USpleas_CSpleas2_RW	acq4567_RW	5	12	400	1	300	300	462	50	0	1	1	blank2r.bmp	0	1	+	0	1	blank2r.bmp	492	1	LWWL	492	1	blank2r.bmp	572	1	genießen	866	1	!	1239	1	!	1359	0	0	0	0	0	0	0	0	0	0	0	0	0	0	0	0	0	0	0	0	0	0	0	0	0	0	0	0	0	0
082719	10:42:21	10:49:55	451968	5.0.10.0	5_exp_RW	115	Rpleas_acq	CS_A	CPPC	LWWL	JQQJ	YFFY	DXXD	ZHHZ	sonnig	vertrauen	küssen	genießen	träumen	gütig	sterben	versagen	krank	gemein	töten	gierig	1	acq_USunple_CSunple1_RW	acq4567_RW	5	13	400	0	300	300	290	46	0	1	1	blank2r.bmp	0	1	+	0	1	blank2r.bmp	492	1	JQQJ	492	1	blank2r.bmp	572	1	sterben	866	1	!	-1	1	!	-1	0	0	0	0	0	0	0	0	0	0	0	0	0	0	0	0	0	0	0	0	0	0	0	0	0	0	0	0	0	0
082719	10:42:21	10:49:57	454207	5.0.10.0	5_exp_RW	115	Rpleas_acq	CS_A	CPPC	LWWL	JQQJ	YFFY	DXXD	ZHHZ	sonnig	vertrauen	küssen	genießen	träumen	gütig	sterben	versagen	krank	gemein	töten	gierig	1	acq_USunple_CSunple2_RW	acq4567_RW	5	14	400	1	300	300	435	46	0	1	1	blank2r.bmp	0	1	+	0	1	blank2r.bmp	492	1	YFFY	492	1	blank2r.bmp	572	3	gierig	866	1	!	1239	1	!	1332	0	0	0	0	0	0	0	0	0	0	0	0	0	0	0	0	0	0	0	0	0	0	0	0	0	0	0	0	0	0
082719	10:42:21	10:49:59	456513	5.0.10.0	5_exp_RW	115	Rpleas_acq	CS_A	CPPC	LWWL	JQQJ	YFFY	DXXD	ZHHZ	sonnig	vertrauen	küssen	genießen	träumen	gütig	sterben	versagen	krank	gemein	töten	gierig	1	acq_USpleas_CSpleas2_RW	acq4567_RW	5	15	400	0	300	300	528	50	0	1	1	blank2r.bmp	0	1	+	0	1	blank2r.bmp	492	1	LWWL	492	1	blank2r.bmp	572	1	genießen	866	1	!	1239	1	!	-1	0	0	0	0	0	0	0	0	0	0	0	0	0	0	0	0	0	0	0	0	0	0	0	0	0	0	0	0	0	0
082719	10:42:21	10:50:02	458699	5.0.10.0	5_exp_RW	115	Rpleas_acq	CS_A	CPPC	LWWL	JQQJ	YFFY	DXXD	ZHHZ	sonnig	vertrauen	küssen	genießen	träumen	gütig	sterben	versagen	krank	gemein	töten	gierig	1	acq_USpleas_CSpleas1_RW	acq4567_RW	5	16	400	1	300	300	378	50	0	1	1	blank2r.bmp	0	1	+	0	1	blank2r.bmp	492	1	CPPC	492	1	blank2r.bmp	572	3	küssen	866	1	!	1239	1	!	1279	0	0	0	0	0	0	0	0	0	0	0	0	0	0	0	0	0	0	0	0	0	0	0	0	0	0	0	0	0	0
082719	10:42:21	10:50:04	460938	5.0.10.0	5_exp_RW	115	Rpleas_acq	CS_A	CPPC	LWWL	JQQJ	YFFY	DXXD	ZHHZ	sonnig	vertrauen	küssen	genießen	träumen	gütig	sterben	versagen	krank	gemein	töten	gierig	1	acq_USpleas_CSpleas1_RW	acq4567_RW	5	17	400	1	300	300	443	50	0	1	1	blank2r.bmp	0	1	+	0	1	blank2r.bmp	492	1	CPPC	492	1	blank2r.bmp	572	2	vertrauen	866	1	!	1239	1	!	1346	0	0	0	0	0	0	0	0	0	0	0	0	0	0	0	0	0	0	0	0	0	0	0	0	0	0	0	0	0	0
082719	10:42:21	10:50:06	463217	5.0.10.0	5_exp_RW	115	Rpleas_acq	CS_A	CPPC	LWWL	JQQJ	YFFY	DXXD	ZHHZ	sonnig	vertrauen	küssen	genießen	träumen	gütig	sterben	versagen	krank	gemein	töten	gierig	1	acq_USunple_CSunple1_RW	acq4567_RW	5	18	400	0	300	300	516	46	0	1	1	blank2r.bmp	0	1	+	0	1	blank2r.bmp	492	1	JQQJ	492	1	blank2r.bmp	572	2	versagen	866	1	!	1239	1	!	-1	0	0	0	0	0	0	0	0	0	0	0	0	0	0	0	0	0	0	0	0	0	0	0	0	0	0	0	0	0	0
082719	10:42:21	10:50:08	465496	5.0.10.0	5_exp_RW	115	Rpleas_acq	CS_A	CPPC	LWWL	JQQJ	YFFY	DXXD	ZHHZ	sonnig	vertrauen	küssen	genießen	träumen	gütig	sterben	versagen	krank	gemein	töten	gierig	1	acq_USunple_CSunple2_RW	acq4567_RW	5	19	400	0	300	300	502	46	0	1	1	blank2r.bmp	0	1	+	0	1	blank2r.bmp	492	1	YFFY	492	1	blank2r.bmp	572	1	gemein	866	1	!	1239	1	!	-1	0	0	0	0	0	0	0	0	0	0	0	0	0	0	0	0	0	0	0	0	0	0	0	0	0	0	0	0	0	0
082719	10:42:21	10:50:11	467761	5.0.10.0	5_exp_RW	115	Rpleas_acq	CS_A	CPPC	LWWL	JQQJ	YFFY	DXXD	ZHHZ	sonnig	vertrauen	küssen	genießen	träumen	gütig	sterben	versagen	krank	gemein	töten	gierig	1	acq_USpleas_CSpleas2_RW	acq4567_RW	5	20	400	0	300	300	479	50	0	1	1	blank2r.bmp	0	1	+	0	1	blank2r.bmp	492	1	LWWL	492	1	blank2r.bmp	572	3	gütig	866	1	!	1239	1	!	-1	0	0	0	0	0	0	0	0	0	0	0	0	0	0	0	0	0	0	0	0	0	0	0	0	0	0	0	0	0	0
082719	10:42:21	10:50:13	469947	5.0.10.0	5_exp_RW	115	Rpleas_acq	CS_A	CPPC	LWWL	JQQJ	YFFY	DXXD	ZHHZ	sonnig	vertrauen	küssen	genießen	träumen	gütig	sterben	versagen	krank	gemein	töten	gierig	1	acq_USpleas_CSpleas1_RW	acq4567_RW	5	21	400	1	300	300	378	50	0	1	1	blank2r.bmp	0	1	+	0	1	blank2r.bmp	492	1	CPPC	492	1	blank2r.bmp	572	1	sonnig	866	1	!	1239	1	!	1279	0	0	0	0	0	0	0	0	0	0	0	0	0	0	0	0	0	0	0	0	0	0	0	0	0	0	0	0	0	0
082719	10:42:21	10:50:15	472026	5.0.10.0	5_exp_RW	115	Rpleas_acq	CS_A	CPPC	LWWL	JQQJ	YFFY	DXXD	ZHHZ	sonnig	vertrauen	küssen	genießen	träumen	gütig	sterben	versagen	krank	gemein	töten	gierig	1	acq_USunple_CSunple1_RW	acq4567_RW	5	22	400	0	300	300	300	46	0	1	1	blank2r.bmp	0	1	+	0	1	blank2r.bmp	492	1	JQQJ	492	1	blank2r.bmp	572	3	krank	866	1	!	-1	1	!	-1	0	0	0	0	0	0	0	0	0	0	0	0	0	0	0	0	0	0	0	0	0	0	0	0	0	0	0	0	0	0
082719	10:42:21	10:50:17	474185	5.0.10.0	5_exp_RW	115	Rpleas_acq	CS_A	CPPC	LWWL	JQQJ	YFFY	DXXD	ZHHZ	sonnig	vertrauen	küssen	genießen	träumen	gütig	sterben	versagen	krank	gemein	töten	gierig	1	acq_USunple_CSunple2_RW	acq4567_RW	5	23	400	1	300	300	346	46	0	1	1	blank2r.bmp	0	1	+	0	1	blank2r.bmp	492	1	YFFY	492	1	blank2r.bmp	572	2	töten	866	1	!	1239	1	!	1252	0	0	0	0	0	0	0	0	0	0	0	0	0	0	0	0	0	0	0	0	0	0	0	0	0	0	0	0	0	0
082719	10:42:21	10:50:19	476478	5.0.10.0	5_exp_RW	115	Rpleas_acq	CS_A	CPPC	LWWL	JQQJ	YFFY	DXXD	ZHHZ	sonnig	vertrauen	küssen	genießen	träumen	gütig	sterben	versagen	krank	gemein	töten	gierig	1	acq_USunple_CSunple1_RW	acq4567_RW	5	24	400	0	300	300	520	46	0	1	1	blank2r.bmp	0	1	+	0	1	blank2r.bmp	492	1	JQQJ	492	1	blank2r.bmp	572	3	krank	866	1	!	1239	1	!	-1	0	0	0	0	0	0	0	0	0	0	0	0	0	0	0	0	0	0	0	0	0	0	0	0	0	0	0	0	0	0
082719	10:42:21	10:50:22	478730	5.0.10.0	5_exp_RW	115	Rpleas_acq	CS_A	CPPC	LWWL	JQQJ	YFFY	DXXD	ZHHZ	sonnig	vertrauen	küssen	genießen	träumen	gütig	sterben	versagen	krank	gemein	töten	gierig	1	acq_USpleas_CSpleas1_RW	acq4567_RW	5	25	400	1	300	300	447	50	0	1	1	blank2r.bmp	0	1	+	0	1	blank2r.bmp	492	1	CPPC	492	1	blank2r.bmp	572	1	sonnig	866	1	!	1239	1	!	1346	0	0	0	0	0	0	0	0	0	0	0	0	0	0	0	0	0	0	0	0	0	0	0	0	0	0	0	0	0	0
082719	10:42:21	10:50:24	480916	5.0.10.0	5_exp_RW	115	Rpleas_acq	CS_A	CPPC	LWWL	JQQJ	YFFY	DXXD	ZHHZ	sonnig	vertrauen	küssen	genießen	träumen	gütig	sterben	versagen	krank	gemein	töten	gierig	1	acq_USpleas_CSpleas2_RW	acq4567_RW	5	26	400	1	300	300	383	50	0	1	1	blank2r.bmp	0	1	+	0	1	blank2r.bmp	492	1	LWWL	492	1	blank2r.bmp	572	2	träumen	866	1	!	1239	1	!	1279	0	0	0	0	0	0	0	0	0	0	0	0	0	0	0	0	0	0	0	0	0	0	0	0	0	0	0	0	0	0
082719	10:42:21	10:50:26	483128	5.0.10.0	5_exp_RW	115	Rpleas_acq	CS_A	CPPC	LWWL	JQQJ	YFFY	DXXD	ZHHZ	sonnig	vertrauen	küssen	genießen	träumen	gütig	sterben	versagen	krank	gemein	töten	gierig	1	acq_USunple_CSunple2_RW	acq4567_RW	5	27	400	1	300	300	425	46	0	1	1	blank2r.bmp	0	1	+	0	1	blank2r.bmp	492	1	YFFY	492	1	blank2r.bmp	572	2	töten	866	1	!	1239	1	!	1319	0	0	0	0	0	0	0	0	0	0	0	0	0	0	0	0	0	0	0	0	0	0	0	0	0	0	0	0	0	0
082719	10:42:21	10:50:28	485381	5.0.10.0	5_exp_RW	115	Rpleas_acq	CS_A	CPPC	LWWL	JQQJ	YFFY	DXXD	ZHHZ	sonnig	vertrauen	küssen	genießen	träumen	gütig	sterben	versagen	krank	gemein	töten	gierig	1	acq_USunple_CSunple1_RW	acq4567_RW	5	28	400	1	300	300	439	46	0	1	1	blank2r.bmp	0	1	+	0	1	blank2r.bmp	492	1	JQQJ	492	1	blank2r.bmp	572	2	versagen	866	1	!	1239	1	!	1346	0	0	0	0	0	0	0	0	0	0	0	0	0	0	0	0	0	0	0	0	0	0	0	0	0	0	0	0	0	0
082719	10:42:21	10:50:30	487446	5.0.10.0	5_exp_RW	115	Rpleas_acq	CS_A	CPPC	LWWL	JQQJ	YFFY	DXXD	ZHHZ	sonnig	vertrauen	küssen	genießen	träumen	gütig	sterben	versagen	krank	gemein	töten	gierig	1	acq_USunple_CSunple1_RW	acq4567_RW	5	29	400	0	300	300	292	46	0	1	1	blank2r.bmp	0	1	+	0	1	blank2r.bmp	492	1	JQQJ	492	1	blank2r.bmp	572	1	sterben	866	1	!	-1	1	!	-1	0	0	0	0	0	0	0	0	0	0	0	0	0	0	0	0	0	0	0	0	0	0	0	0	0	0	0	0	0	0
082719	10:42:21	10:50:33	489699	5.0.10.0	5_exp_RW	115	Rpleas_acq	CS_A	CPPC	LWWL	JQQJ	YFFY	DXXD	ZHHZ	sonnig	vertrauen	küssen	genießen	träumen	gütig	sterben	versagen	krank	gemein	töten	gierig	1	acq_USunple_CSunple2_RW	acq4567_RW	5	30	400	1	300	300	441	46	0	1	1	blank2r.bmp	0	1	+	0	1	blank2r.bmp	492	1	YFFY	492	1	blank2r.bmp	572	3	gierig	866	1	!	1239	1	!	1346	0	0	0	0	0	0	0	0	0	0	0	0	0	0	0	0	0	0	0	0	0	0	0	0	0	0	0	0	0	0
082719	10:42:21	10:50:35	491951	5.0.10.0	5_exp_RW	115	Rpleas_acq	CS_A	CPPC	LWWL	JQQJ	YFFY	DXXD	ZHHZ	sonnig	vertrauen	küssen	genießen	träumen	gütig	sterben	versagen	krank	gemein	töten	gierig	1	acq_USunple_CSunple1_RW	acq4567_RW	5	31	400	0	300	300	479	46	0	1	1	blank2r.bmp	0	1	+	0	1	blank2r.bmp	492	1	JQQJ	492	1	blank2r.bmp	572	2	versagen	866	1	!	1239	1	!	-1	0	0	0	0	0	0	0	0	0	0	0	0	0	0	0	0	0	0	0	0	0	0	0	0	0	0	0	0	0	0
082719	10:42:21	10:50:37	494230	5.0.10.0	5_exp_RW	115	Rpleas_acq	CS_A	CPPC	LWWL	JQQJ	YFFY	DXXD	ZHHZ	sonnig	vertrauen	küssen	genießen	träumen	gütig	sterben	versagen	krank	gemein	töten	gierig	1	acq_USpleas_CSpleas2_RW	acq4567_RW	5	32	400	0	300	300	497	50	0	1	1	blank2r.bmp	0	1	+	0	1	blank2r.bmp	492	1	LWWL	492	1	blank2r.bmp	572	2	träumen	866	1	!	1239	1	!	-1	0	0	0	0	0	0	0	0	0	0	0	0	0	0	0	0	0	0	0	0	0	0	0	0	0	0	0	0	0	0
082719	10:42:21	10:50:39	496429	5.0.10.0	5_exp_RW	115	Rpleas_acq	CS_A	CPPC	LWWL	JQQJ	YFFY	DXXD	ZHHZ	sonnig	vertrauen	küssen	genießen	träumen	gütig	sterben	versagen	krank	gemein	töten	gierig	1	acq_USunple_CSunple2_RW	acq4567_RW	5	33	400	1	300	300	395	46	0	1	1	blank2r.bmp	0	1	+	0	1	blank2r.bmp	492	1	YFFY	492	1	blank2r.bmp	572	1	gemein	866	1	!	1239	1	!	1292	0	0	0	0	0	0	0	0	0	0	0	0	0	0	0	0	0	0	0	0	0	0	0	0	0	0	0	0	0	0
082719	10:42:21	10:50:41	498602	5.0.10.0	5_exp_RW	115	Rpleas_acq	CS_A	CPPC	LWWL	JQQJ	YFFY	DXXD	ZHHZ	sonnig	vertrauen	küssen	genießen	träumen	gütig	sterben	versagen	krank	gemein	töten	gierig	1	acq_USpleas_CSpleas1_RW	acq4567_RW	5	34	400	1	300	300	377	50	0	1	1	blank2r.bmp	0	1	+	0	1	blank2r.bmp	492	1	CPPC	492	1	blank2r.bmp	572	3	küssen	866	1	!	1239	1	!	1279	0	0	0	0	0	0	0	0	0	0	0	0	0	0	0	0	0	0	0	0	0	0	0	0	0	0	0	0	0	0
082719	10:42:21	10:50:43	500681	5.0.10.0	5_exp_RW	115	Rpleas_acq	CS_A	CPPC	LWWL	JQQJ	YFFY	DXXD	ZHHZ	sonnig	vertrauen	küssen	genießen	träumen	gütig	sterben	versagen	krank	gemein	töten	gierig	1	acq_USunple_CSunple2_RW	acq4567_RW	5	35	400	0	300	300	314	46	0	1	1	blank2r.bmp	0	1	+	0	1	blank2r.bmp	492	1	YFFY	492	1	blank2r.bmp	572	3	gierig	866	1	!	-1	1	!	-1	0	0	0	0	0	0	0	0	0	0	0	0	0	0	0	0	0	0	0	0	0	0	0	0	0	0	0	0	0	0
082719	10:42:21	10:50:46	502880	5.0.10.0	5_exp_RW	115	Rpleas_acq	CS_A	CPPC	LWWL	JQQJ	YFFY	DXXD	ZHHZ	sonnig	vertrauen	küssen	genießen	träumen	gütig	sterben	versagen	krank	gemein	töten	gierig	1	acq_USpleas_CSpleas2_RW	acq4567_RW	5	36	400	1	300	300	386	50	0	1	1	blank2r.bmp	0	1	+	0	1	blank2r.bmp	492	1	LWWL	492	1	blank2r.bmp	572	1	genießen	866	1	!	1239	1	!	1292	0	0	0	0	0	0	0	0	0	0	0	0	0	0	0	0	0	0	0	0	0	0	0	0	0	0	0	0	0	0
082719	10:42:21	10:50:48	504986	5.0.10.0	5_exp_RW	115	Rpleas_acq	CS_A	CPPC	LWWL	JQQJ	YFFY	DXXD	ZHHZ	sonnig	vertrauen	küssen	genießen	träumen	gütig	sterben	versagen	krank	gemein	töten	gierig	1	acq_USpleas_CSpleas2_RW	acq4567_RW	5	37	400	0	300	300	325	46	0	0	1	blank2r.bmp	0	1	+	0	1	blank2r.bmp	492	1	LWWL	492	1	blank2r.bmp	572	3	gütig	866	1	!	-1	1	!	-1	0	0	0	0	0	0	0	0	0	0	0	0	0	0	0	0	0	0	0	0	0	0	0	0	0	0	0	0	0	0
082719	10:42:21	10:50:50	507198	5.0.10.0	5_exp_RW	115	Rpleas_acq	CS_A	CPPC	LWWL	JQQJ	YFFY	DXXD	ZHHZ	sonnig	vertrauen	küssen	genießen	träumen	gütig	sterben	versagen	krank	gemein	töten	gierig	1	acq_USpleas_CSpleas1_RW	acq4567_RW	5	38	400	1	300	300	400	50	0	1	1	blank2r.bmp	0	1	+	0	1	blank2r.bmp	492	1	CPPC	492	1	blank2r.bmp	572	2	vertrauen	866	1	!	1239	1	!	1306	0	0	0	0	0	0	0	0	0	0	0	0	0	0	0	0	0	0	0	0	0	0	0	0	0	0	0	0	0	0
082719	10:42:21	10:50:52	509370	5.0.10.0	5_exp_RW	115	Rpleas_acq	CS_A	CPPC	LWWL	JQQJ	YFFY	DXXD	ZHHZ	sonnig	vertrauen	küssen	genießen	träumen	gütig	sterben	versagen	krank	gemein	töten	gierig	1	acq_USpleas_CSpleas2_RW	acq4567_RW	5	39	400	1	300	300	379	50	0	1	1	blank2r.bmp	0	1	+	0	1	blank2r.bmp	492	1	LWWL	492	1	blank2r.bmp	572	2	träumen	866	1	!	1239	1	!	1279	0	0	0	0	0	0	0	0	0	0	0	0	0	0	0	0	0	0	0	0	0	0	0	0	0	0	0	0	0	0
082719	10:42:21	10:50:54	511623	5.0.10.0	5_exp_RW	115	Rpleas_acq	CS_A	CPPC	LWWL	JQQJ	YFFY	DXXD	ZHHZ	sonnig	vertrauen	küssen	genießen	träumen	gütig	sterben	versagen	krank	gemein	töten	gierig	1	acq_USpleas_CSpleas1_RW	acq4567_RW	5	40	400	0	300	300	479	50	0	1	1	blank2r.bmp	0	1	+	0	1	blank2r.bmp	492	1	CPPC	492	1	blank2r.bmp	572	2	vertrauen	866	1	!	1239	1	!	-1	0	0	0	0	0	0	0	0	0	0	0	0	0	0	0	0	0	0	0	0	0	0	0	0	0	0	0	0	0	0
082719	10:42:21	10:50:57	513888	5.0.10.0	5_exp_RW	115	Rpleas_acq	CS_A	CPPC	LWWL	JQQJ	YFFY	DXXD	ZHHZ	sonnig	vertrauen	küssen	genießen	träumen	gütig	sterben	versagen	krank	gemein	töten	gierig	1	acq_USpleas_CSpleas2_RW	acq4567_RW	5	41	400	1	300	300	463	46	0	0	1	blank2r.bmp	0	1	+	0	1	blank2r.bmp	492	1	LWWL	492	1	blank2r.bmp	572	3	gütig	866	1	!	1239	1	!	1359	0	0	0	0	0	0	0	0	0	0	0	0	0	0	0	0	0	0	0	0	0	0	0	0	0	0	0	0	0	0
082719	10:42:21	10:50:59	516128	5.0.10.0	5_exp_RW	115	Rpleas_acq	CS_A	CPPC	LWWL	JQQJ	YFFY	DXXD	ZHHZ	sonnig	vertrauen	küssen	genießen	träumen	gütig	sterben	versagen	krank	gemein	töten	gierig	1	acq_USunple_CSunple1_RW	acq4567_RW	5	42	400	1	300	300	450	46	0	1	1	blank2r.bmp	0	1	+	0	1	blank2r.bmp	492	1	JQQJ	492	1	blank2r.bmp	572	1	sterben	866	1	!	1239	1	!	1346	0	0	0	0	0	0	0	0	0	0	0	0	0	0	0	0	0	0	0	0	0	0	0	0	0	0	0	0	0	0
082719	10:42:21	10:51:01	518327	5.0.10.0	5_exp_RW	115	Rpleas_acq	CS_A	CPPC	LWWL	JQQJ	YFFY	DXXD	ZHHZ	sonnig	vertrauen	küssen	genießen	träumen	gütig	sterben	versagen	krank	gemein	töten	gierig	1	acq_USpleas_CSpleas1_RW	acq4567_RW	5	43	400	1	300	300	401	50	0	1	1	blank2r.bmp	0	1	+	0	1	blank2r.bmp	492	1	CPPC	492	1	blank2r.bmp	572	1	sonnig	866	1	!	1239	1	!	1306	0	0	0	0	0	0	0	0	0	0	0	0	0	0	0	0	0	0	0	0	0	0	0	0	0	0	0	0	0	0
082719	10:42:21	10:51:03	520579	5.0.10.0	5_exp_RW	115	Rpleas_acq	CS_A	CPPC	LWWL	JQQJ	YFFY	DXXD	ZHHZ	sonnig	vertrauen	küssen	genießen	träumen	gütig	sterben	versagen	krank	gemein	töten	gierig	1	acq_USpleas_CSpleas2_RW	acq4567_RW	5	44	400	0	300	300	488	50	0	1	1	blank2r.bmp	0	1	+	0	1	blank2r.bmp	492	1	LWWL	492	1	blank2r.bmp	572	1	genießen	866	1	!	1239	1	!	-1	0	0	0	0	0	0	0	0	0	0	0	0	0	0	0	0	0	0	0	0	0	0	0	0	0	0	0	0	0	0
082719	10:42:21	10:51:06	522751	5.0.10.0	5_exp_RW	115	Rpleas_acq	CS_A	CPPC	LWWL	JQQJ	YFFY	DXXD	ZHHZ	sonnig	vertrauen	küssen	genießen	träumen	gütig	sterben	versagen	krank	gemein	töten	gierig	1	acq_USpleas_CSpleas2_RW	acq4567_RW	5	45	400	1	300	300	369	50	0	1	1	blank2r.bmp	0	1	+	0	1	blank2r.bmp	492	1	LWWL	492	1	blank2r.bmp	572	1	genießen	866	1	!	1239	1	!	1266	0	0	0	0	0	0	0	0	0	0	0	0	0	0	0	0	0	0	0	0	0	0	0	0	0	0	0	0	0	0
082719	10:42:21	10:51:08	524924	5.0.10.0	5_exp_RW	115	Rpleas_acq	CS_A	CPPC	LWWL	JQQJ	YFFY	DXXD	ZHHZ	sonnig	vertrauen	küssen	genießen	träumen	gütig	sterben	versagen	krank	gemein	töten	gierig	1	acq_USpleas_CSpleas1_RW	acq4567_RW	5	46	400	1	300	300	375	50	0	1	1	blank2r.bmp	0	1	+	0	1	blank2r.bmp	492	1	CPPC	492	1	blank2r.bmp	572	3	küssen	866	1	!	1239	1	!	1279	0	0	0	0	0	0	0	0	0	0	0	0	0	0	0	0	0	0	0	0	0	0	0	0	0	0	0	0	0	0
082719	10:42:21	10:51:10	527083	5.0.10.0	5_exp_RW	115	Rpleas_acq	CS_A	CPPC	LWWL	JQQJ	YFFY	DXXD	ZHHZ	sonnig	vertrauen	küssen	genießen	träumen	gütig	sterben	versagen	krank	gemein	töten	gierig	1	acq_USunple_CSunple1_RW	acq4567_RW	5	47	400	1	300	300	368	46	0	1	1	blank2r.bmp	0	1	+	0	1	blank2r.bmp	492	1	JQQJ	492	1	blank2r.bmp	572	3	krank	866	1	!	1239	1	!	1266	0	0	0	0	0	0	0	0	0	0	0	0	0	0	0	0	0	0	0	0	0	0	0	0	0	0	0	0	0	0
082719	10:42:21	10:51:12	529229	5.0.10.0	5_exp_RW	115	Rpleas_acq	CS_A	CPPC	LWWL	JQQJ	YFFY	DXXD	ZHHZ	sonnig	vertrauen	küssen	genießen	träumen	gütig	sterben	versagen	krank	gemein	töten	gierig	1	acq_USunple_CSunple2_RW	acq4567_RW	5	48	400	1	300	300	357	46	0	1	1	blank2r.bmp	0	1	+	0	1	blank2r.bmp	492	1	YFFY	492	1	blank2r.bmp	572	1	gemein	866	1	!	1239	1	!	1252	0	0	0	0	0	0	0	0	0	0	0	0	0	0	0	0	0	0	0	0	0	0	0	0	0	0	0	0	0	0
082719	10:42:21	10:51:14	531321	5.0.10.0	5_exp_RW	115	Rpleas_acq	CS_A	CPPC	LWWL	JQQJ	YFFY	DXXD	ZHHZ	sonnig	vertrauen	küssen	genießen	träumen	gütig	sterben	versagen	krank	gemein	töten	gierig	1	acq_USunple_CSunple2_RW	acq4567_RW	5	49	400	0	300	300	326	46	0	1	1	blank2r.bmp	0	1	+	0	1	blank2r.bmp	492	1	YFFY	492	1	blank2r.bmp	572	2	töten	866	1	!	-1	1	!	-1	0	0	0	0	0	0	0	0	0	0	0	0	0	0	0	0	0	0	0	0	0	0	0	0	0	0	0	0	0	0
082719	10:42:21	10:51:16	533560	5.0.10.0	5_exp_RW	115	Rpleas_acq	CS_A	CPPC	LWWL	JQQJ	YFFY	DXXD	ZHHZ	sonnig	vertrauen	küssen	genießen	träumen	gütig	sterben	versagen	krank	gemein	töten	gierig	1	acq_USunple_CSunple1_RW	acq4567_RW	5	50	400	1	300	300	417	46	0	1	1	blank2r.bmp	0	1	+	0	1	blank2r.bmp	492	1	JQQJ	492	1	blank2r.bmp	572	2	versagen	866	1	!	1239	1	!	1319	0	0	0	0	0	0	0	0	0	0	0	0	0	0	0	0	0	0	0	0	0	0	0	0	0	0	0	0	0	0
082719	10:42:21	10:51:19	535813	5.0.10.0	5_exp_RW	115	Rpleas_acq	CS_A	CPPC	LWWL	JQQJ	YFFY	DXXD	ZHHZ	sonnig	vertrauen	küssen	genießen	träumen	gütig	sterben	versagen	krank	gemein	töten	gierig	1	acq_USunple_CSunple2_RW	acq4567_RW	5	51	400	0	300	300	488	46	0	1	1	blank2r.bmp	0	1	+	0	1	blank2r.bmp	492	1	YFFY	492	1	blank2r.bmp	572	2	töten	866	1	!	1239	1	!	-1	0	0	0	0	0	0	0	0	0	0	0	0	0	0	0	0	0	0	0	0	0	0	0	0	0	0	0	0	0	0
082719	10:42:21	10:51:21	538052	5.0.10.0	5_exp_RW	115	Rpleas_acq	CS_A	CPPC	LWWL	JQQJ	YFFY	DXXD	ZHHZ	sonnig	vertrauen	küssen	genießen	träumen	gütig	sterben	versagen	krank	gemein	töten	gierig	1	acq_USpleas_CSpleas1_RW	acq4567_RW	5	52	400	1	300	300	423	50	0	1	1	blank2r.bmp	0	1	+	0	1	blank2r.bmp	492	1	CPPC	492	1	blank2r.bmp	572	2	vertrauen	866	1	!	1239	1	!	1319	0	0	0	0	0	0	0	0	0	0	0	0	0	0	0	0	0	0	0	0	0	0	0	0	0	0	0	0	0	0
082719	10:42:21	10:51:23	540104	5.0.10.0	5_exp_RW	115	Rpleas_acq	CS_A	CPPC	LWWL	JQQJ	YFFY	DXXD	ZHHZ	sonnig	vertrauen	küssen	genießen	träumen	gütig	sterben	versagen	krank	gemein	töten	gierig	1	acq_USpleas_CSpleas2_RW	acq4567_RW	5	53	400	0	300	300	282	50	0	1	1	blank2r.bmp	0	1	+	0	1	blank2r.bmp	492	1	LWWL	492	1	blank2r.bmp	572	2	träumen	866	1	!	-1	1	!	-1	0	0	0	0	0	0	0	0	0	0	0	0	0	0	0	0	0	0	0	0	0	0	0	0	0	0	0	0	0	0
082719	10:42:21	10:51:25	542210	5.0.10.0	5_exp_RW	115	Rpleas_acq	CS_A	CPPC	LWWL	JQQJ	YFFY	DXXD	ZHHZ	sonnig	vertrauen	küssen	genießen	träumen	gütig	sterben	versagen	krank	gemein	töten	gierig	1	acq_USpleas_CSpleas2_RW	acq4567_RW	5	54	400	0	300	300	331	46	0	0	1	blank2r.bmp	0	1	+	0	1	blank2r.bmp	492	1	LWWL	492	1	blank2r.bmp	572	3	gütig	866	1	!	-1	1	!	-1	0	0	0	0	0	0	0	0	0	0	0	0	0	0	0	0	0	0	0	0	0	0	0	0	0	0	0	0	0	0
082719	10:42:21	10:51:27	544409	5.0.10.0	5_exp_RW	115	Rpleas_acq	CS_A	CPPC	LWWL	JQQJ	YFFY	DXXD	ZHHZ	sonnig	vertrauen	küssen	genießen	träumen	gütig	sterben	versagen	krank	gemein	töten	gierig	1	acq_USpleas_CSpleas1_RW	acq4567_RW	5	55	400	1	300	300	375	50	0	1	1	blank2r.bmp	0	1	+	0	1	blank2r.bmp	492	1	CPPC	492	1	blank2r.bmp	572	1	sonnig	866	1	!	1239	1	!	1279	0	0	0	0	0	0	0	0	0	0	0	0	0	0	0	0	0	0	0	0	0	0	0	0	0	0	0	0	0	0
082719	10:42:21	10:51:29	546488	5.0.10.0	5_exp_RW	115	Rpleas_acq	CS_A	CPPC	LWWL	JQQJ	YFFY	DXXD	ZHHZ	sonnig	vertrauen	küssen	genießen	träumen	gütig	sterben	versagen	krank	gemein	töten	gierig	1	acq_USunple_CSunple2_RW	acq4567_RW	5	56	400	0	300	300	309	50	0	0	1	blank2r.bmp	0	1	+	0	1	blank2r.bmp	492	1	YFFY	492	1	blank2r.bmp	572	3	gierig	866	1	!	-1	1	!	-1	0	0	0	0	0	0	0	0	0	0	0	0	0	0	0	0	0	0	0	0	0	0	0	0	0	0	0	0	0	0
082719	10:42:21	10:51:32	548714	5.0.10.0	5_exp_RW	115	Rpleas_acq	CS_A	CPPC	LWWL	JQQJ	YFFY	DXXD	ZHHZ	sonnig	vertrauen	küssen	genießen	träumen	gütig	sterben	versagen	krank	gemein	töten	gierig	1	acq_USunple_CSunple2_RW	acq4567_RW	5	57	400	1	300	300	420	50	0	0	1	blank2r.bmp	0	1	+	0	1	blank2r.bmp	492	1	YFFY	492	1	blank2r.bmp	572	1	gemein	866	1	!	1239	1	!	1319	0	0	0	0	0	0	0	0	0	0	0	0	0	0	0	0	0	0	0	0	0	0	0	0	0	0	0	0	0	0
082719	10:42:21	10:51:34	550873	5.0.10.0	5_exp_RW	115	Rpleas_acq	CS_A	CPPC	LWWL	JQQJ	YFFY	DXXD	ZHHZ	sonnig	vertrauen	küssen	genießen	träumen	gütig	sterben	versagen	krank	gemein	töten	gierig	1	acq_USpleas_CSpleas1_RW	acq4567_RW	5	58	400	1	300	300	370	50	0	1	1	blank2r.bmp	0	1	+	0	1	blank2r.bmp	492	1	CPPC	492	1	blank2r.bmp	572	3	küssen	866	1	!	1239	1	!	1266	0	0	0	0	0	0	0	0	0	0	0	0	0	0	0	0	0	0	0	0	0	0	0	0	0	0	0	0	0	0
082719	10:42:21	10:51:36	553019	5.0.10.0	5_exp_RW	115	Rpleas_acq	CS_A	CPPC	LWWL	JQQJ	YFFY	DXXD	ZHHZ	sonnig	vertrauen	küssen	genießen	träumen	gütig	sterben	versagen	krank	gemein	töten	gierig	1	acq_USunple_CSunple1_RW	acq4567_RW	5	59	400	1	300	300	346	46	0	1	1	blank2r.bmp	0	1	+	0	1	blank2r.bmp	492	1	JQQJ	492	1	blank2r.bmp	572	3	krank	866	1	!	1239	1	!	1252	0	0	0	0	0	0	0	0	0	0	0	0	0	0	0	0	0	0	0	0	0	0	0	0	0	0	0	0	0	0
082719	10:42:21	10:51:38	555164	5.0.10.0	5_exp_RW	115	Rpleas_acq	CS_A	CPPC	LWWL	JQQJ	YFFY	DXXD	ZHHZ	sonnig	vertrauen	küssen	genießen	träumen	gütig	sterben	versagen	krank	gemein	töten	gierig	1	acq_USunple_CSunple1_RW	acq4567_RW	5	60	400	1	300	300	346	50	0	0	1	blank2r.bmp	0	1	+	0	1	blank2r.bmp	492	1	JQQJ	492	1	blank2r.bmp	572	1	sterben	866	1	!	1239	1	!	1252	0	0	0	0	0	0	0	0	0	0	0	0	0	0	0	0	0	0	0	0	0	0	0	0	0	0	0	0	0	0
082719	10:42:21	10:51:40	557243	5.0.10.0	5_exp_RW	115	Rpleas_acq	CS_A	CPPC	LWWL	JQQJ	YFFY	DXXD	ZHHZ	sonnig	vertrauen	küssen	genießen	träumen	gütig	sterben	versagen	krank	gemein	töten	gierig	1	acq_USunple_CSunple1_RW	acq4567_RW	5	61	400	0	300	300	314	46	0	1	1	blank2r.bmp	0	1	+	0	1	blank2r.bmp	492	1	JQQJ	492	1	blank2r.bmp	572	1	sterben	866	1	!	-1	1	!	-1	0	0	0	0	0	0	0	0	0	0	0	0	0	0	0	0	0	0	0	0	0	0	0	0	0	0	0	0	0	0
082719	10:42:21	10:51:42	559416	5.0.10.0	5_exp_RW	115	Rpleas_acq	CS_A	CPPC	LWWL	JQQJ	YFFY	DXXD	ZHHZ	sonnig	vertrauen	küssen	genießen	träumen	gütig	sterben	versagen	krank	gemein	töten	gierig	1	acq_USpleas_CSpleas2_RW	acq4567_RW	5	62	400	1	300	300	368	50	0	1	1	blank2r.bmp	0	1	+	0	1	blank2r.bmp	492	1	LWWL	492	1	blank2r.bmp	572	2	träumen	866	1	!	1239	1	!	1266	0	0	0	0	0	0	0	0	0	0	0	0	0	0	0	0	0	0	0	0	0	0	0	0	0	0	0	0	0	0
082719	10:42:21	10:51:44	561615	5.0.10.0	5_exp_RW	115	Rpleas_acq	CS_A	CPPC	LWWL	JQQJ	YFFY	DXXD	ZHHZ	sonnig	vertrauen	küssen	genießen	träumen	gütig	sterben	versagen	krank	gemein	töten	gierig	1	acq_USunple_CSunple1_RW	acq4567_RW	5	63	400	1	300	300	410	46	0	1	1	blank2r.bmp	0	1	+	0	1	blank2r.bmp	492	1	JQQJ	492	1	blank2r.bmp	572	3	krank	866	1	!	1239	1	!	1306	0	0	0	0	0	0	0	0	0	0	0	0	0	0	0	0	0	0	0	0	0	0	0	0	0	0	0	0	0	0
082719	10:42:21	10:51:47	563801	5.0.10.0	5_exp_RW	115	Rpleas_acq	CS_A	CPPC	LWWL	JQQJ	YFFY	DXXD	ZHHZ	sonnig	vertrauen	küssen	genießen	träumen	gütig	sterben	versagen	krank	gemein	töten	gierig	1	acq_USpleas_CSpleas1_RW	acq4567_RW	5	64	400	1	300	300	385	50	0	1	1	blank2r.bmp	0	1	+	0	1	blank2r.bmp	492	1	CPPC	492	1	blank2r.bmp	572	3	küssen	866	1	!	1239	1	!	1292	0	0	0	0	0	0	0	0	0	0	0	0	0	0	0	0	0	0	0	0	0	0	0	0	0	0	0	0	0	0
082719	10:42:21	10:51:49	565973	5.0.10.0	5_exp_RW	115	Rpleas_acq	CS_A	CPPC	LWWL	JQQJ	YFFY	DXXD	ZHHZ	sonnig	vertrauen	küssen	genießen	träumen	gütig	sterben	versagen	krank	gemein	töten	gierig	1	acq_USpleas_CSpleas2_RW	acq4567_RW	5	65	400	1	300	300	382	46	0	0	1	blank2r.bmp	0	1	+	0	1	blank2r.bmp	492	1	LWWL	492	1	blank2r.bmp	572	1	genießen	866	1	!	1239	1	!	1279	0	0	0	0	0	0	0	0	0	0	0	0	0	0	0	0	0	0	0	0	0	0	0	0	0	0	0	0	0	0
082719	10:42:21	10:51:51	568225	5.0.10.0	5_exp_RW	115	Rpleas_acq	CS_A	CPPC	LWWL	JQQJ	YFFY	DXXD	ZHHZ	sonnig	vertrauen	küssen	genießen	träumen	gütig	sterben	versagen	krank	gemein	töten	gierig	1	acq_USunple_CSunple2_RW	acq4567_RW	5	66	400	1	300	300	457	46	0	1	1	blank2r.bmp	0	1	+	0	1	blank2r.bmp	492	1	YFFY	492	1	blank2r.bmp	572	3	gierig	866	1	!	1239	1	!	1359	0	0	0	0	0	0	0	0	0	0	0	0	0	0	0	0	0	0	0	0	0	0	0	0	0	0	0	0	0	0
082719	10:42:21	10:51:53	570664	5.0.10.0	5_exp_RW	115	Rpleas_acq	CS_A	CPPC	LWWL	JQQJ	YFFY	DXXD	ZHHZ	sonnig	vertrauen	küssen	genießen	träumen	gütig	sterben	versagen	krank	gemein	töten	gierig	1	acq_USunple_CSunple1_RW	acq4567_RW	5	67	400	0	300	300	666	46	0	1	1	blank2r.bmp	0	1	+	0	1	blank2r.bmp	492	1	JQQJ	492	1	blank2r.bmp	572	2	versagen	866	1	!	1239	1	!	-1	0	0	0	0	0	0	0	0	0	0	0	0	0	0	0	0	0	0	0	0	0	0	0	0	0	0	0	0	0	0
082719	10:42:21	10:51:56	572917	5.0.10.0	5_exp_RW	115	Rpleas_acq	CS_A	CPPC	LWWL	JQQJ	YFFY	DXXD	ZHHZ	sonnig	vertrauen	küssen	genießen	träumen	gütig	sterben	versagen	krank	gemein	töten	gierig	1	acq_USpleas_CSpleas1_RW	acq4567_RW	5	68	400	1	300	300	448	50	0	1	1	blank2r.bmp	0	1	+	0	1	blank2r.bmp	492	1	CPPC	492	1	blank2r.bmp	572	2	vertrauen	866	1	!	1239	1	!	1346	0	0	0	0	0	0	0	0	0	0	0	0	0	0	0	0	0	0	0	0	0	0	0	0	0	0	0	0	0	0
082719	10:42:21	10:51:58	575103	5.0.10.0	5_exp_RW	115	Rpleas_acq	CS_A	CPPC	LWWL	JQQJ	YFFY	DXXD	ZHHZ	sonnig	vertrauen	küssen	genießen	träumen	gütig	sterben	versagen	krank	gemein	töten	gierig	1	acq_USpleas_CSpleas2_RW	acq4567_RW	5	69	400	1	300	300	393	50	0	1	1	blank2r.bmp	0	1	+	0	1	blank2r.bmp	492	1	LWWL	492	1	blank2r.bmp	572	3	gütig	866	1	!	1239	1	!	1292	0	0	0	0	0	0	0	0	0	0	0	0	0	0	0	0	0	0	0	0	0	0	0	0	0	0	0	0	0	0
082719	10:42:21	10:52:00	577302	5.0.10.0	5_exp_RW	115	Rpleas_acq	CS_A	CPPC	LWWL	JQQJ	YFFY	DXXD	ZHHZ	sonnig	vertrauen	küssen	genießen	träumen	gütig	sterben	versagen	krank	gemein	töten	gierig	1	acq_USpleas_CSpleas2_RW	acq4567_RW	5	70	400	1	300	300	402	50	0	1	1	blank2r.bmp	0	1	+	0	1	blank2r.bmp	492	1	LWWL	492	1	blank2r.bmp	572	1	genießen	866	1	!	1239	1	!	1306	0	0	0	0	0	0	0	0	0	0	0	0	0	0	0	0	0	0	0	0	0	0	0	0	0	0	0	0	0	0
082719	10:42:21	10:52:02	579394	5.0.10.0	5_exp_RW	115	Rpleas_acq	CS_A	CPPC	LWWL	JQQJ	YFFY	DXXD	ZHHZ	sonnig	vertrauen	küssen	genießen	träumen	gütig	sterben	versagen	krank	gemein	töten	gierig	1	acq_USunple_CSunple1_RW	acq4567_RW	5	71	400	0	300	300	321	46	0	1	1	blank2r.bmp	0	1	+	0	1	blank2r.bmp	492	1	JQQJ	492	1	blank2r.bmp	572	3	krank	866	1	!	-1	1	!	-1	0	0	0	0	0	0	0	0	0	0	0	0	0	0	0	0	0	0	0	0	0	0	0	0	0	0	0	0	0	0
082719	10:42:21	10:52:04	581500	5.0.10.0	5_exp_RW	115	Rpleas_acq	CS_A	CPPC	LWWL	JQQJ	YFFY	DXXD	ZHHZ	sonnig	vertrauen	küssen	genießen	träumen	gütig	sterben	versagen	krank	gemein	töten	gierig	1	acq_USunple_CSunple2_RW	acq4567_RW	5	72	400	0	300	300	330	46	0	1	1	blank2r.bmp	0	1	+	0	1	blank2r.bmp	492	1	YFFY	492	1	blank2r.bmp	572	1	gemein	866	1	!	-1	1	!	-1	0	0	0	0	0	0	0	0	0	0	0	0	0	0	0	0	0	0	0	0	0	0	0	0	0	0	0	0	0	0
082719	10:42:21	10:52:07	583766	5.0.10.0	5_exp_RW	115	Rpleas_acq	CS_A	CPPC	LWWL	JQQJ	YFFY	DXXD	ZHHZ	sonnig	vertrauen	küssen	genießen	träumen	gütig	sterben	versagen	krank	gemein	töten	gierig	1	acq_USpleas_CSpleas2_RW	acq4567_RW	5	73	400	0	300	300	479	46	0	0	1	blank2r.bmp	0	1	+	0	1	blank2r.bmp	492	1	LWWL	492	1	blank2r.bmp	572	3	gütig	866	1	!	1239	1	!	-1	0	0	0	0	0	0	0	0	0	0	0	0	0	0	0	0	0	0	0	0	0	0	0	0	0	0	0	0	0	0
082719	10:42:21	10:52:09	586018	5.0.10.0	5_exp_RW	115	Rpleas_acq	CS_A	CPPC	LWWL	JQQJ	YFFY	DXXD	ZHHZ	sonnig	vertrauen	küssen	genießen	träumen	gütig	sterben	versagen	krank	gemein	töten	gierig	1	acq_USunple_CSunple2_RW	acq4567_RW	5	74	400	1	300	300	441	46	0	1	1	blank2r.bmp	0	1	+	0	1	blank2r.bmp	492	1	YFFY	492	1	blank2r.bmp	572	2	töten	866	1	!	1239	1	!	1346	0	0	0	0	0	0	0	0	0	0	0	0	0	0	0	0	0	0	0	0	0	0	0	0	0	0	0	0	0	0
082719	10:42:21	10:52:11	588244	5.0.10.0	5_exp_RW	115	Rpleas_acq	CS_A	CPPC	LWWL	JQQJ	YFFY	DXXD	ZHHZ	sonnig	vertrauen	küssen	genießen	träumen	gütig	sterben	versagen	krank	gemein	töten	gierig	1	acq_USunple_CSunple2_RW	acq4567_RW	5	75	400	1	300	300	438	46	0	1	1	blank2r.bmp	0	1	+	0	1	blank2r.bmp	492	1	YFFY	492	1	blank2r.bmp	572	2	töten	866	1	!	1239	1	!	1332	0	0	0	0	0	0	0	0	0	0	0	0	0	0	0	0	0	0	0	0	0	0	0	0	0	0	0	0	0	0
082719	10:42:21	10:52:13	590509	5.0.10.0	5_exp_RW	115	Rpleas_acq	CS_A	CPPC	LWWL	JQQJ	YFFY	DXXD	ZHHZ	sonnig	vertrauen	küssen	genießen	träumen	gütig	sterben	versagen	krank	gemein	töten	gierig	1	acq_USpleas_CSpleas1_RW	acq4567_RW	5	76	400	0	300	300	502	50	0	1	1	blank2r.bmp	0	1	+	0	1	blank2r.bmp	492	1	CPPC	492	1	blank2r.bmp	572	1	sonnig	866	1	!	1239	1	!	-1	0	0	0	0	0	0	0	0	0	0	0	0	0	0	0	0	0	0	0	0	0	0	0	0	0	0	0	0	0	0
082719	10:42:21	10:52:15	592615	5.0.10.0	5_exp_RW	115	Rpleas_acq	CS_A	CPPC	LWWL	JQQJ	YFFY	DXXD	ZHHZ	sonnig	vertrauen	küssen	genießen	träumen	gütig	sterben	versagen	krank	gemein	töten	gierig	1	acq_USpleas_CSpleas1_RW	acq4567_RW	5	77	400	0	300	300	330	50	0	1	1	blank2r.bmp	0	1	+	0	1	blank2r.bmp	492	1	CPPC	492	1	blank2r.bmp	572	2	vertrauen	866	1	!	-1	1	!	-1	0	0	0	0	0	0	0	0	0	0	0	0	0	0	0	0	0	0	0	0	0	0	0	0	0	0	0	0	0	0
082719	10:42:21	10:52:18	594814	5.0.10.0	5_exp_RW	115	Rpleas_acq	CS_A	CPPC	LWWL	JQQJ	YFFY	DXXD	ZHHZ	sonnig	vertrauen	küssen	genießen	träumen	gütig	sterben	versagen	krank	gemein	töten	gierig	1	acq_USpleas_CSpleas1_RW	acq4567_RW	5	78	400	1	300	300	395	50	0	1	1	blank2r.bmp	0	1	+	0	1	blank2r.bmp	492	1	CPPC	492	1	blank2r.bmp	572	3	küssen	866	1	!	1239	1	!	1292	0	0	0	0	0	0	0	0	0	0	0	0	0	0	0	0	0	0	0	0	0	0	0	0	0	0	0	0	0	0
082719	10:42:21	10:52:20	596907	5.0.10.0	5_exp_RW	115	Rpleas_acq	CS_A	CPPC	LWWL	JQQJ	YFFY	DXXD	ZHHZ	sonnig	vertrauen	küssen	genießen	träumen	gütig	sterben	versagen	krank	gemein	töten	gierig	1	acq_USunple_CSunple1_RW	acq4567_RW	5	79	400	0	300	300	318	46	0	1	1	blank2r.bmp	0	1	+	0	1	blank2r.bmp	492	1	JQQJ	492	1	blank2r.bmp	572	2	versagen	866	1	!	-1	1	!	-1	0	0	0	0	0	0	0	0	0	0	0	0	0	0	0	0	0	0	0	0	0	0	0	0	0	0	0	0	0	0
082719	10:42:21	10:52:22	599252	5.0.10.0	5_exp_RW	115	Rpleas_acq	CS_A	CPPC	LWWL	JQQJ	YFFY	DXXD	ZHHZ	sonnig	vertrauen	küssen	genießen	träumen	gütig	sterben	versagen	krank	gemein	töten	gierig	1	acq_USunple_CSunple2_RW	acq4567_RW	5	80	400	0	300	300	563	46	0	1	1	blank2r.bmp	0	1	+	0	1	blank2r.bmp	492	1	YFFY	492	1	blank2r.bmp	572	3	gierig	866	1	!	1239	1	!	-1	0	0	0	0	0	0	0	0	0	0	0	0	0	0	0	0	0	0	0	0	0	0	0	0	0	0	0	0	0	0
082719	10:42:21	10:52:31	607715	5.0.10.0	5_exp_RW	115	Rpleas_acq	CS_A	CPPC	LWWL	JQQJ	YFFY	DXXD	ZHHZ	sonnig	vertrauen	küssen	genießen	träumen	gütig	sterben	versagen	krank	gemein	töten	gierig	1	acq_USpleas_CSpleas2_RW	acq4567_RW	6	1	400	1	300	300	402	50	0	1	1	blank2r.bmp	0	1	+	0	1	blank2r.bmp	492	1	LWWL	492	1	blank2r.bmp	572	2	träumen	866	1	!	1239	1	!	1306	0	0	0	0	0	0	0	0	0	0	0	0	0	0	0	0	0	0	0	0	0	0	0	0	0	0	0	0	0	0
082719	10:42:21	10:52:33	609901	5.0.10.0	5_exp_RW	115	Rpleas_acq	CS_A	CPPC	LWWL	JQQJ	YFFY	DXXD	ZHHZ	sonnig	vertrauen	küssen	genießen	träumen	gütig	sterben	versagen	krank	gemein	töten	gierig	1	acq_USunple_CSunple1_RW	acq4567_RW	6	2	400	1	300	300	396	46	0	1	1	blank2r.bmp	0	1	+	0	1	blank2r.bmp	492	1	JQQJ	492	1	blank2r.bmp	572	1	sterben	866	1	!	1239	1	!	1292	0	0	0	0	0	0	0	0	0	0	0	0	0	0	0	0	0	0	0	0	0	0	0	0	0	0	0	0	0	0
082719	10:42:21	10:52:35	611967	5.0.10.0	5_exp_RW	115	Rpleas_acq	CS_A	CPPC	LWWL	JQQJ	YFFY	DXXD	ZHHZ	sonnig	vertrauen	küssen	genießen	träumen	gütig	sterben	versagen	krank	gemein	töten	gierig	1	acq_USunple_CSunple2_RW	acq4567_RW	6	3	400	0	300	300	301	46	0	1	1	blank2r.bmp	0	1	+	0	1	blank2r.bmp	492	1	YFFY	492	1	blank2r.bmp	572	1	gemein	866	1	!	-1	1	!	-1	0	0	0	0	0	0	0	0	0	0	0	0	0	0	0	0	0	0	0	0	0	0	0	0	0	0	0	0	0	0
082719	10:42:21	10:52:37	614033	5.0.10.0	5_exp_RW	115	Rpleas_acq	CS_A	CPPC	LWWL	JQQJ	YFFY	DXXD	ZHHZ	sonnig	vertrauen	küssen	genießen	träumen	gütig	sterben	versagen	krank	gemein	töten	gierig	1	acq_USpleas_CSpleas1_RW	acq4567_RW	6	4	400	0	300	300	291	50	0	1	1	blank2r.bmp	0	1	+	0	1	blank2r.bmp	492	1	CPPC	492	1	blank2r.bmp	572	1	sonnig	866	1	!	-1	1	!	-1	0	0	0	0	0	0	0	0	0	0	0	0	0	0	0	0	0	0	0	0	0	0	0	0	0	0	0	0	0	0
082719	10:42:21	10:52:39	616232	5.0.10.0	5_exp_RW	115	Rpleas_acq	CS_A	CPPC	LWWL	JQQJ	YFFY	DXXD	ZHHZ	sonnig	vertrauen	küssen	genießen	träumen	gütig	sterben	versagen	krank	gemein	töten	gierig	1	acq_USpleas_CSpleas2_RW	acq4567_RW	6	5	400	1	300	300	397	50	0	1	1	blank2r.bmp	0	1	+	0	1	blank2r.bmp	492	1	LWWL	492	1	blank2r.bmp	572	3	gütig	866	1	!	1239	1	!	1292	0	0	0	0	0	0	0	0	0	0	0	0	0	0	0	0	0	0	0	0	0	0	0	0	0	0	0	0	0	0
082719	10:42:21	10:52:41	618378	5.0.10.0	5_exp_RW	115	Rpleas_acq	CS_A	CPPC	LWWL	JQQJ	YFFY	DXXD	ZHHZ	sonnig	vertrauen	küssen	genießen	träumen	gütig	sterben	versagen	krank	gemein	töten	gierig	1	acq_USpleas_CSpleas1_RW	acq4567_RW	6	6	400	1	300	300	348	50	0	1	1	blank2r.bmp	0	1	+	0	1	blank2r.bmp	492	1	CPPC	492	1	blank2r.bmp	572	1	sonnig	866	1	!	1239	1	!	1252	0	0	0	0	0	0	0	0	0	0	0	0	0	0	0	0	0	0	0	0	0	0	0	0	0	0	0	0	0	0
082719	10:42:21	10:52:43	620630	5.0.10.0	5_exp_RW	115	Rpleas_acq	CS_A	CPPC	LWWL	JQQJ	YFFY	DXXD	ZHHZ	sonnig	vertrauen	küssen	genießen	träumen	gütig	sterben	versagen	krank	gemein	töten	gierig	1	acq_USunple_CSunple2_RW	acq4567_RW	6	7	400	0	300	300	483	46	0	1	1	blank2r.bmp	0	1	+	0	1	blank2r.bmp	492	1	YFFY	492	1	blank2r.bmp	572	2	töten	866	1	!	1239	1	!	-1	0	0	0	0	0	0	0	0	0	0	0	0	0	0	0	0	0	0	0	0	0	0	0	0	0	0	0	0	0	0
082719	10:42:21	10:52:46	622909	5.0.10.0	5_exp_RW	115	Rpleas_acq	CS_A	CPPC	LWWL	JQQJ	YFFY	DXXD	ZHHZ	sonnig	vertrauen	küssen	genießen	träumen	gütig	sterben	versagen	krank	gemein	töten	gierig	1	acq_USpleas_CSpleas2_RW	acq4567_RW	6	8	400	0	300	300	480	50	0	1	1	blank2r.bmp	0	1	+	0	1	blank2r.bmp	492	1	LWWL	492	1	blank2r.bmp	572	1	genießen	866	1	!	1239	1	!	-1	0	0	0	0	0	0	0	0	0	0	0	0	0	0	0	0	0	0	0	0	0	0	0	0	0	0	0	0	0	0
082719	10:42:21	10:52:48	625015	5.0.10.0	5_exp_RW	115	Rpleas_acq	CS_A	CPPC	LWWL	JQQJ	YFFY	DXXD	ZHHZ	sonnig	vertrauen	küssen	genießen	träumen	gütig	sterben	versagen	krank	gemein	töten	gierig	1	acq_USunple_CSunple1_RW	acq4567_RW	6	9	400	0	300	300	318	46	0	1	1	blank2r.bmp	0	1	+	0	1	blank2r.bmp	492	1	JQQJ	492	1	blank2r.bmp	572	3	krank	866	1	!	-1	1	!	-1	0	0	0	0	0	0	0	0	0	0	0	0	0	0	0	0	0	0	0	0	0	0	0	0	0	0	0	0	0	0
082719	10:42:21	10:52:50	627320	5.0.10.0	5_exp_RW	115	Rpleas_acq	CS_A	CPPC	LWWL	JQQJ	YFFY	DXXD	ZHHZ	sonnig	vertrauen	küssen	genießen	träumen	gütig	sterben	versagen	krank	gemein	töten	gierig	1	acq_USunple_CSunple2_RW	acq4567_RW	6	10	400	0	300	300	530	46	0	1	1	blank2r.bmp	0	1	+	0	1	blank2r.bmp	492	1	YFFY	492	1	blank2r.bmp	572	1	gemein	866	1	!	1239	1	!	-1	0	0	0	0	0	0	0	0	0	0	0	0	0	0	0	0	0	0	0	0	0	0	0	0	0	0	0	0	0	0
082719	10:42:21	10:52:52	629560	5.0.10.0	5_exp_RW	115	Rpleas_acq	CS_A	CPPC	LWWL	JQQJ	YFFY	DXXD	ZHHZ	sonnig	vertrauen	küssen	genießen	träumen	gütig	sterben	versagen	krank	gemein	töten	gierig	1	acq_USpleas_CSpleas1_RW	acq4567_RW	6	11	400	1	300	300	434	50	0	1	1	blank2r.bmp	0	1	+	0	1	blank2r.bmp	492	1	CPPC	492	1	blank2r.bmp	572	2	vertrauen	866	1	!	1239	1	!	1332	0	0	0	0	0	0	0	0	0	0	0	0	0	0	0	0	0	0	0	0	0	0	0	0	0	0	0	0	0	0
082719	10:42:21	10:52:55	631812	5.0.10.0	5_exp_RW	115	Rpleas_acq	CS_A	CPPC	LWWL	JQQJ	YFFY	DXXD	ZHHZ	sonnig	vertrauen	küssen	genießen	träumen	gütig	sterben	versagen	krank	gemein	töten	gierig	1	acq_USunple_CSunple1_RW	acq4567_RW	6	12	400	0	300	300	479	46	0	1	1	blank2r.bmp	0	1	+	0	1	blank2r.bmp	492	1	JQQJ	492	1	blank2r.bmp	572	1	sterben	866	1	!	1239	1	!	-1	0	0	0	0	0	0	0	0	0	0	0	0	0	0	0	0	0	0	0	0	0	0	0	0	0	0	0	0	0	0
