date	time	script.currenttime	script.elapsedtime	build	script.currentexpt	subject	expressions.LRpleas_acq	expressions.conditionCS_A	expressions.CSpleas_1	expressions.CSpleas_2	expressions.CSunple_1	expressions.CSunple_2	expressions.distractor_1	expressions.distractor_2	expressions.US_pleas1	expressions.US_pleas2	expressions.US_pleas3	expressions.US_pleas4	expressions.US_pleas5	expressions.US_pleas6	expressions.US_unple1	expressions.US_unple2	expressions.US_unple3	expressions.US_unple4	expressions.US_unple5	expressions.US_unple6	counter.positions_noRW	trialcode	blockcode	blocknum	trialnum	windowcenter	inwindow	pretrialpause	posttrialpause	latency	response	expressions.correctedscore	correct	stimulusnumber1	stimulusitem1	stimulusonset1	stimulusnumber2	stimulusitem2	stimulusonset2	stimulusnumber3	stimulusitem3	stimulusonset3	stimulusnumber4	stimulusitem4	stimulusonset4	stimulusnumber5	stimulusitem5	stimulusonset5	stimulusnumber6	stimulusitem6	stimulusonset6	stimulusnumber7	stimulusitem7	stimulusonset7	stimulusnumber8	stimulusitem8	stimulusonset8	stimulusnumber9	stimulusitem9	stimulusonset9	stimulusnumber10	stimulusitem10	stimulusonset10	stimulusnumber11	stimulusitem11	stimulusonset11	stimulusnumber12	stimulusitem12	stimulusonset12	stimulusnumber13	stimulusitem13	stimulusonset13	stimulusnumber14	stimulusitem14	stimulusonset14	stimulusnumber15	stimulusitem15	stimulusonset15	stimulusnumber16	stimulusitem16	stimulusonset16	stimulusnumber17	stimulusitem17	stimulusonset17	stimulusnumber18	stimulusitem18	stimulusonset18
081419	14:22:16	14:24:07	110487	5.0.10.0	5_exp_noRW	100	Rpleas_acq	CS_A	CPPC	ZHHZ	YFFY	DXXD	JQQJ	LWWL	küssen	sonnig	vertrauen	träumen	gütig	genießen	krank	sterben	versagen	töten	gierig	gemein	53pct	acq_USunple_CSunple1_noRW	acq1_noRW	1	1	0	0	300	300	1320	46	0	1	1	blank2r.bmp	0	1	+	0	1	blank2r.bmp	252	1	YFFY	306	3	versagen	559	0	0	0	0	0	0	0	0	0	0	0	0	0	0	0	0	0	0	0	0	0	0	0	0	0	0	0	0	0	0	0	0	0	0	0	0	0	0	0
081419	14:22:16	14:24:08	112220	5.0.10.0	5_exp_noRW	100	Rpleas_acq	CS_A	CPPC	ZHHZ	YFFY	DXXD	JQQJ	LWWL	küssen	sonnig	vertrauen	träumen	gütig	genießen	krank	sterben	versagen	töten	gierig	gemein	53pct	acq_USpleas_CSpleas2_noRW	acq1_noRW	1	2	0	0	300	300	552	50	0	1	1	blank2r.bmp	0	1	+	0	1	blank2r.bmp	252	1	ZHHZ	306	1	träumen	559	0	0	0	0	0	0	0	0	0	0	0	0	0	0	0	0	0	0	0	0	0	0	0	0	0	0	0	0	0	0	0	0	0	0	0	0	0	0	0
081419	14:22:16	14:24:10	113899	5.0.10.0	5_exp_noRW	100	Rpleas_acq	CS_A	CPPC	ZHHZ	YFFY	DXXD	JQQJ	LWWL	küssen	sonnig	vertrauen	träumen	gütig	genießen	krank	sterben	versagen	töten	gierig	gemein	53pct	acq_USpleas_CSpleas1_noRW	acq1_noRW	1	3	0	0	300	300	499	50	0	1	1	blank2r.bmp	0	1	+	0	1	blank2r.bmp	252	1	CPPC	306	2	sonnig	559	0	0	0	0	0	0	0	0	0	0	0	0	0	0	0	0	0	0	0	0	0	0	0	0	0	0	0	0	0	0	0	0	0	0	0	0	0	0	0
081419	14:22:16	14:24:12	115579	5.0.10.0	5_exp_noRW	100	Rpleas_acq	CS_A	CPPC	ZHHZ	YFFY	DXXD	JQQJ	LWWL	küssen	sonnig	vertrauen	träumen	gütig	genießen	krank	sterben	versagen	töten	gierig	gemein	53pct	acq_USpleas_CSpleas2_noRW	acq1_noRW	1	4	0	0	300	300	494	50	0	1	1	blank2r.bmp	0	1	+	0	1	blank2r.bmp	252	1	ZHHZ	306	3	genießen	559	0	0	0	0	0	0	0	0	0	0	0	0	0	0	0	0	0	0	0	0	0	0	0	0	0	0	0	0	0	0	0	0	0	0	0	0	0	0	0
081419	14:22:16	14:24:13	117178	5.0.10.0	5_exp_noRW	100	Rpleas_acq	CS_A	CPPC	ZHHZ	YFFY	DXXD	JQQJ	LWWL	küssen	sonnig	vertrauen	träumen	gütig	genießen	krank	sterben	versagen	töten	gierig	gemein	47pct	acq_USunple_CSunple2_noRW	acq1_noRW	1	5	0	0	300	300	433	46	0	1	1	blank2r.bmp	0	1	+	0	1	blank2r.bmp	252	1	DXXD	306	1	töten	559	0	0	0	0	0	0	0	0	0	0	0	0	0	0	0	0	0	0	0	0	0	0	0	0	0	0	0	0	0	0	0	0	0	0	0	0	0	0	0
081419	14:22:16	14:24:15	118791	5.0.10.0	5_exp_noRW	100	Rpleas_acq	CS_A	CPPC	ZHHZ	YFFY	DXXD	JQQJ	LWWL	küssen	sonnig	vertrauen	träumen	gütig	genießen	krank	sterben	versagen	töten	gierig	gemein	53pct	acq_USpleas_CSunple1_noRW	acq1_noRW	1	6	0	0	300	300	434	50	0	1	1	blank2r.bmp	0	1	+	0	1	blank2r.bmp	252	1	YFFY	306	1	küssen	559	0	0	0	0	0	0	0	0	0	0	0	0	0	0	0	0	0	0	0	0	0	0	0	0	0	0	0	0	0	0	0	0	0	0	0	0	0	0	0
081419	14:22:16	14:24:17	120616	5.0.10.0	5_exp_noRW	100	Rpleas_acq	CS_A	CPPC	ZHHZ	YFFY	DXXD	JQQJ	LWWL	küssen	sonnig	vertrauen	träumen	gütig	genießen	krank	sterben	versagen	töten	gierig	gemein	47pct	acq_USpleas_CSpleas2_noRW	acq1_noRW	1	7	0	0	300	300	444	46	0	0	1	blank2r.bmp	0	1	+	0	1	blank2r.bmp	252	1	ZHHZ	306	2	gütig	559	1	FEHLER	1039	0	0	0	0	0	0	0	0	0	0	0	0	0	0	0	0	0	0	0	0	0	0	0	0	0	0	0	0	0	0	0	0	0	0	0	0
081419	14:22:16	14:24:18	122136	5.0.10.0	5_exp_noRW	100	Rpleas_acq	CS_A	CPPC	ZHHZ	YFFY	DXXD	JQQJ	LWWL	küssen	sonnig	vertrauen	träumen	gütig	genießen	krank	sterben	versagen	töten	gierig	gemein	47pct	acq_USunple_CSunple2_noRW	acq1_noRW	1	8	0	0	300	300	549	46	0	1	1	blank2r.bmp	0	1	+	0	1	blank2r.bmp	252	1	DXXD	306	3	gemein	559	0	0	0	0	0	0	0	0	0	0	0	0	0	0	0	0	0	0	0	0	0	0	0	0	0	0	0	0	0	0	0	0	0	0	0	0	0	0	0
081419	14:22:16	14:24:20	123828	5.0.10.0	5_exp_noRW	100	Rpleas_acq	CS_A	CPPC	ZHHZ	YFFY	DXXD	JQQJ	LWWL	küssen	sonnig	vertrauen	träumen	gütig	genießen	krank	sterben	versagen	töten	gierig	gemein	47pct	acq_USunple_CSpleas2_noRW	acq1_noRW	1	9	0	0	300	300	527	46	0	1	1	blank2r.bmp	0	1	+	0	1	blank2r.bmp	252	1	ZHHZ	306	3	gemein	559	0	0	0	0	0	0	0	0	0	0	0	0	0	0	0	0	0	0	0	0	0	0	0	0	0	0	0	0	0	0	0	0	0	0	0	0	0	0	0
081419	14:22:16	14:24:22	125508	5.0.10.0	5_exp_noRW	100	Rpleas_acq	CS_A	CPPC	ZHHZ	YFFY	DXXD	JQQJ	LWWL	küssen	sonnig	vertrauen	träumen	gütig	genießen	krank	sterben	versagen	töten	gierig	gemein	53pct	acq_USunple_CSunple1_noRW	acq1_noRW	1	10	0	0	300	300	512	46	0	1	1	blank2r.bmp	0	1	+	0	1	blank2r.bmp	252	1	YFFY	306	2	sterben	559	0	0	0	0	0	0	0	0	0	0	0	0	0	0	0	0	0	0	0	0	0	0	0	0	0	0	0	0	0	0	0	0	0	0	0	0	0	0	0
081419	14:22:16	14:24:23	127227	5.0.10.0	5_exp_noRW	100	Rpleas_acq	CS_A	CPPC	ZHHZ	YFFY	DXXD	JQQJ	LWWL	küssen	sonnig	vertrauen	träumen	gütig	genießen	krank	sterben	versagen	töten	gierig	gemein	53pct	acq_USunple_CSunple1_noRW	acq1_noRW	1	11	0	0	300	300	534	46	0	1	1	blank2r.bmp	0	1	+	0	1	blank2r.bmp	252	1	YFFY	306	1	krank	559	0	0	0	0	0	0	0	0	0	0	0	0	0	0	0	0	0	0	0	0	0	0	0	0	0	0	0	0	0	0	0	0	0	0	0	0	0	0	0
081419	14:22:16	14:24:25	128880	5.0.10.0	5_exp_noRW	100	Rpleas_acq	CS_A	CPPC	ZHHZ	YFFY	DXXD	JQQJ	LWWL	küssen	sonnig	vertrauen	träumen	gütig	genießen	krank	sterben	versagen	töten	gierig	gemein	53pct	acq_USpleas_CSpleas2_noRW	acq1_noRW	1	12	0	0	300	300	473	50	0	1	1	blank2r.bmp	0	1	+	0	1	blank2r.bmp	252	1	ZHHZ	306	2	gütig	559	0	0	0	0	0	0	0	0	0	0	0	0	0	0	0	0	0	0	0	0	0	0	0	0	0	0	0	0	0	0	0	0	0	0	0	0	0	0	0
081419	14:22:16	14:24:27	130399	5.0.10.0	5_exp_noRW	100	Rpleas_acq	CS_A	CPPC	ZHHZ	YFFY	DXXD	JQQJ	LWWL	küssen	sonnig	vertrauen	träumen	gütig	genießen	krank	sterben	versagen	töten	gierig	gemein	53pct	acq_USpleas_CSunple2_noRW	acq1_noRW	1	13	0	0	300	300	334	50	0	1	1	blank2r.bmp	0	1	+	0	1	blank2r.bmp	252	1	DXXD	306	2	gütig	559	0	0	0	0	0	0	0	0	0	0	0	0	0	0	0	0	0	0	0	0	0	0	0	0	0	0	0	0	0	0	0	0	0	0	0	0	0	0	0
081419	14:22:16	14:24:29	132305	5.0.10.0	5_exp_noRW	100	Rpleas_acq	CS_A	CPPC	ZHHZ	YFFY	DXXD	JQQJ	LWWL	küssen	sonnig	vertrauen	träumen	gütig	genießen	krank	sterben	versagen	töten	gierig	gemein	47pct	acq_USunple_CSunple2_noRW	acq1_noRW	1	14	0	0	300	300	526	50	0	0	1	blank2r.bmp	0	1	+	0	1	blank2r.bmp	252	1	DXXD	306	2	gierig	559	1	FEHLER	1119	0	0	0	0	0	0	0	0	0	0	0	0	0	0	0	0	0	0	0	0	0	0	0	0	0	0	0	0	0	0	0	0	0	0	0	0
081419	14:22:16	14:24:30	133771	5.0.10.0	5_exp_noRW	100	Rpleas_acq	CS_A	CPPC	ZHHZ	YFFY	DXXD	JQQJ	LWWL	küssen	sonnig	vertrauen	träumen	gütig	genießen	krank	sterben	versagen	töten	gierig	gemein	53pct	acq_USunple_CSunple1_noRW	acq1_noRW	1	15	0	0	300	300	504	46	0	1	1	blank2r.bmp	0	1	+	0	1	blank2r.bmp	252	1	YFFY	306	2	sterben	559	0	0	0	0	0	0	0	0	0	0	0	0	0	0	0	0	0	0	0	0	0	0	0	0	0	0	0	0	0	0	0	0	0	0	0	0	0	0	0
081419	14:22:16	14:24:32	135330	5.0.10.0	5_exp_noRW	100	Rpleas_acq	CS_A	CPPC	ZHHZ	YFFY	DXXD	JQQJ	LWWL	küssen	sonnig	vertrauen	träumen	gütig	genießen	krank	sterben	versagen	töten	gierig	gemein	47pct	acq_USpleas_CSpleas1_noRW	acq1_noRW	1	16	0	0	300	300	378	50	0	1	1	blank2r.bmp	0	1	+	0	1	blank2r.bmp	252	1	CPPC	306	1	küssen	559	0	0	0	0	0	0	0	0	0	0	0	0	0	0	0	0	0	0	0	0	0	0	0	0	0	0	0	0	0	0	0	0	0	0	0	0	0	0	0
081419	14:22:16	14:24:33	137090	5.0.10.0	5_exp_noRW	100	Rpleas_acq	CS_A	CPPC	ZHHZ	YFFY	DXXD	JQQJ	LWWL	küssen	sonnig	vertrauen	träumen	gütig	genießen	krank	sterben	versagen	töten	gierig	gemein	53pct	acq_USpleas_CSpleas1_noRW	acq1_noRW	1	17	0	0	300	300	372	46	0	0	1	blank2r.bmp	0	1	+	0	1	blank2r.bmp	252	1	CPPC	306	3	vertrauen	559	1	FEHLER	972	0	0	0	0	0	0	0	0	0	0	0	0	0	0	0	0	0	0	0	0	0	0	0	0	0	0	0	0	0	0	0	0	0	0	0	0
081419	14:22:16	14:24:35	138449	5.0.10.0	5_exp_noRW	100	Rpleas_acq	CS_A	CPPC	ZHHZ	YFFY	DXXD	JQQJ	LWWL	küssen	sonnig	vertrauen	träumen	gütig	genießen	krank	sterben	versagen	töten	gierig	gemein	47pct	acq_USpleas_CSpleas1_noRW	acq1_noRW	1	18	0	0	300	300	404	50	0	1	1	blank2r.bmp	0	1	+	0	1	blank2r.bmp	252	1	CPPC	306	1	küssen	559	0	0	0	0	0	0	0	0	0	0	0	0	0	0	0	0	0	0	0	0	0	0	0	0	0	0	0	0	0	0	0	0	0	0	0	0	0	0	0
081419	14:22:16	14:24:36	140168	5.0.10.0	5_exp_noRW	100	Rpleas_acq	CS_A	CPPC	ZHHZ	YFFY	DXXD	JQQJ	LWWL	küssen	sonnig	vertrauen	träumen	gütig	genießen	krank	sterben	versagen	töten	gierig	gemein	53pct	acq_USunple_CSunple2_noRW	acq1_noRW	1	19	0	0	300	300	333	50	0	0	1	blank2r.bmp	0	1	+	0	1	blank2r.bmp	252	1	DXXD	306	2	gierig	559	1	FEHLER	932	0	0	0	0	0	0	0	0	0	0	0	0	0	0	0	0	0	0	0	0	0	0	0	0	0	0	0	0	0	0	0	0	0	0	0	0
081419	14:22:16	14:24:38	141714	5.0.10.0	5_exp_noRW	100	Rpleas_acq	CS_A	CPPC	ZHHZ	YFFY	DXXD	JQQJ	LWWL	küssen	sonnig	vertrauen	träumen	gütig	genießen	krank	sterben	versagen	töten	gierig	gemein	47pct	acq_USunple_CSpleas1_noRW	acq1_noRW	1	20	0	0	300	300	575	46	0	1	1	blank2r.bmp	0	1	+	0	1	blank2r.bmp	252	1	CPPC	306	3	versagen	559	0	0	0	0	0	0	0	0	0	0	0	0	0	0	0	0	0	0	0	0	0	0	0	0	0	0	0	0	0	0	0	0	0	0	0	0	0	0	0
081419	14:22:16	14:24:40	143287	5.0.10.0	5_exp_noRW	100	Rpleas_acq	CS_A	CPPC	ZHHZ	YFFY	DXXD	JQQJ	LWWL	küssen	sonnig	vertrauen	träumen	gütig	genießen	krank	sterben	versagen	töten	gierig	gemein	53pct	acq_USunple_CSunple1_noRW	acq1_noRW	1	21	0	0	300	300	385	46	0	1	1	blank2r.bmp	0	1	+	0	1	blank2r.bmp	252	1	YFFY	306	3	versagen	559	0	0	0	0	0	0	0	0	0	0	0	0	0	0	0	0	0	0	0	0	0	0	0	0	0	0	0	0	0	0	0	0	0	0	0	0	0	0	0
081419	14:22:16	14:24:41	144966	5.0.10.0	5_exp_noRW	100	Rpleas_acq	CS_A	CPPC	ZHHZ	YFFY	DXXD	JQQJ	LWWL	küssen	sonnig	vertrauen	träumen	gütig	genießen	krank	sterben	versagen	töten	gierig	gemein	53pct	acq_USunple_CSpleas2_noRW	acq1_noRW	1	22	0	0	300	300	511	46	0	1	1	blank2r.bmp	0	1	+	0	1	blank2r.bmp	252	1	ZHHZ	306	2	gierig	559	0	0	0	0	0	0	0	0	0	0	0	0	0	0	0	0	0	0	0	0	0	0	0	0	0	0	0	0	0	0	0	0	0	0	0	0	0	0	0
081419	14:22:16	14:24:43	146592	5.0.10.0	5_exp_noRW	100	Rpleas_acq	CS_A	CPPC	ZHHZ	YFFY	DXXD	JQQJ	LWWL	küssen	sonnig	vertrauen	träumen	gütig	genießen	krank	sterben	versagen	töten	gierig	gemein	47pct	acq_USunple_CSunple2_noRW	acq1_noRW	1	23	0	0	300	300	453	46	0	1	1	blank2r.bmp	0	1	+	0	1	blank2r.bmp	252	1	DXXD	306	3	gemein	559	0	0	0	0	0	0	0	0	0	0	0	0	0	0	0	0	0	0	0	0	0	0	0	0	0	0	0	0	0	0	0	0	0	0	0	0	0	0	0
081419	14:22:16	14:24:44	148085	5.0.10.0	5_exp_noRW	100	Rpleas_acq	CS_A	CPPC	ZHHZ	YFFY	DXXD	JQQJ	LWWL	küssen	sonnig	vertrauen	träumen	gütig	genießen	krank	sterben	versagen	töten	gierig	gemein	53pct	acq_USpleas_CSunple1_noRW	acq1_noRW	1	24	0	0	300	300	321	50	0	1	1	blank2r.bmp	0	1	+	0	1	blank2r.bmp	252	1	YFFY	306	2	sonnig	559	0	0	0	0	0	0	0	0	0	0	0	0	0	0	0	0	0	0	0	0	0	0	0	0	0	0	0	0	0	0	0	0	0	0	0	0	0	0	0
081419	14:22:16	14:24:46	149871	5.0.10.0	5_exp_noRW	100	Rpleas_acq	CS_A	CPPC	ZHHZ	YFFY	DXXD	JQQJ	LWWL	küssen	sonnig	vertrauen	träumen	gütig	genießen	krank	sterben	versagen	töten	gierig	gemein	47pct	acq_USpleas_CSpleas1_noRW	acq1_noRW	1	25	0	0	300	300	405	46	0	0	1	blank2r.bmp	0	1	+	0	1	blank2r.bmp	252	1	CPPC	306	3	vertrauen	559	1	FEHLER	999	0	0	0	0	0	0	0	0	0	0	0	0	0	0	0	0	0	0	0	0	0	0	0	0	0	0	0	0	0	0	0	0	0	0	0	0
081419	14:22:16	14:24:48	151297	5.0.10.0	5_exp_noRW	100	Rpleas_acq	CS_A	CPPC	ZHHZ	YFFY	DXXD	JQQJ	LWWL	küssen	sonnig	vertrauen	träumen	gütig	genießen	krank	sterben	versagen	töten	gierig	gemein	47pct	acq_USunple_CSunple1_noRW	acq1_noRW	1	26	0	0	300	300	461	46	0	1	1	blank2r.bmp	0	1	+	0	1	blank2r.bmp	252	1	YFFY	306	1	krank	559	0	0	0	0	0	0	0	0	0	0	0	0	0	0	0	0	0	0	0	0	0	0	0	0	0	0	0	0	0	0	0	0	0	0	0	0	0	0	0
081419	14:22:16	14:24:49	152937	5.0.10.0	5_exp_noRW	100	Rpleas_acq	CS_A	CPPC	ZHHZ	YFFY	DXXD	JQQJ	LWWL	küssen	sonnig	vertrauen	träumen	gütig	genießen	krank	sterben	versagen	töten	gierig	gemein	47pct	acq_USunple_CSunple1_noRW	acq1_noRW	1	27	0	0	300	300	453	46	0	1	1	blank2r.bmp	0	1	+	0	1	blank2r.bmp	252	1	YFFY	306	3	versagen	559	0	0	0	0	0	0	0	0	0	0	0	0	0	0	0	0	0	0	0	0	0	0	0	0	0	0	0	0	0	0	0	0	0	0	0	0	0	0	0
081419	14:22:16	14:24:51	154549	5.0.10.0	5_exp_noRW	100	Rpleas_acq	CS_A	CPPC	ZHHZ	YFFY	DXXD	JQQJ	LWWL	küssen	sonnig	vertrauen	träumen	gütig	genießen	krank	sterben	versagen	töten	gierig	gemein	53pct	acq_USpleas_CSpleas1_noRW	acq1_noRW	1	28	0	0	300	300	432	50	0	1	1	blank2r.bmp	0	1	+	0	1	blank2r.bmp	252	1	CPPC	306	2	sonnig	559	0	0	0	0	0	0	0	0	0	0	0	0	0	0	0	0	0	0	0	0	0	0	0	0	0	0	0	0	0	0	0	0	0	0	0	0	0	0	0
081419	14:22:16	14:24:52	156282	5.0.10.0	5_exp_noRW	100	Rpleas_acq	CS_A	CPPC	ZHHZ	YFFY	DXXD	JQQJ	LWWL	küssen	sonnig	vertrauen	träumen	gütig	genießen	krank	sterben	versagen	töten	gierig	gemein	53pct	acq_USpleas_CSpleas1_noRW	acq1_noRW	1	29	0	0	300	300	564	50	0	1	1	blank2r.bmp	0	1	+	0	1	blank2r.bmp	252	1	CPPC	306	2	sonnig	559	0	0	0	0	0	0	0	0	0	0	0	0	0	0	0	0	0	0	0	0	0	0	0	0	0	0	0	0	0	0	0	0	0	0	0	0	0	0	0
081419	14:22:16	14:24:54	158148	5.0.10.0	5_exp_noRW	100	Rpleas_acq	CS_A	CPPC	ZHHZ	YFFY	DXXD	JQQJ	LWWL	küssen	sonnig	vertrauen	träumen	gütig	genießen	krank	sterben	versagen	töten	gierig	gemein	53pct	acq_USpleas_CSpleas1_noRW	acq1_noRW	1	30	0	0	300	300	700	50	0	1	1	blank2r.bmp	0	1	+	0	1	blank2r.bmp	252	1	CPPC	306	1	küssen	559	0	0	0	0	0	0	0	0	0	0	0	0	0	0	0	0	0	0	0	0	0	0	0	0	0	0	0	0	0	0	0	0	0	0	0	0	0	0	0
081419	14:22:16	14:24:56	159800	5.0.10.0	5_exp_noRW	100	Rpleas_acq	CS_A	CPPC	ZHHZ	YFFY	DXXD	JQQJ	LWWL	küssen	sonnig	vertrauen	träumen	gütig	genießen	krank	sterben	versagen	töten	gierig	gemein	47pct	acq_USunple_CSunple2_noRW	acq1_noRW	1	31	0	0	300	300	487	46	0	1	1	blank2r.bmp	0	1	+	0	1	blank2r.bmp	252	1	DXXD	306	1	töten	559	0	0	0	0	0	0	0	0	0	0	0	0	0	0	0	0	0	0	0	0	0	0	0	0	0	0	0	0	0	0	0	0	0	0	0	0	0	0	0
081419	14:22:16	14:24:58	161346	5.0.10.0	5_exp_noRW	100	Rpleas_acq	CS_A	CPPC	ZHHZ	YFFY	DXXD	JQQJ	LWWL	küssen	sonnig	vertrauen	träumen	gütig	genießen	krank	sterben	versagen	töten	gierig	gemein	47pct	acq_USunple_CSpleas1_noRW	acq1_noRW	1	32	0	0	300	300	359	46	0	1	1	blank2r.bmp	0	1	+	0	1	blank2r.bmp	252	1	CPPC	306	2	sterben	559	0	0	0	0	0	0	0	0	0	0	0	0	0	0	0	0	0	0	0	0	0	0	0	0	0	0	0	0	0	0	0	0	0	0	0	0	0	0	0
081419	14:22:16	14:24:59	162906	5.0.10.0	5_exp_noRW	100	Rpleas_acq	CS_A	CPPC	ZHHZ	YFFY	DXXD	JQQJ	LWWL	küssen	sonnig	vertrauen	träumen	gütig	genießen	krank	sterben	versagen	töten	gierig	gemein	47pct	acq_USpleas_CSpleas2_noRW	acq1_noRW	1	33	0	0	300	300	398	50	0	1	1	blank2r.bmp	0	1	+	0	1	blank2r.bmp	252	1	ZHHZ	306	3	genießen	559	0	0	0	0	0	0	0	0	0	0	0	0	0	0	0	0	0	0	0	0	0	0	0	0	0	0	0	0	0	0	0	0	0	0	0	0	0	0	0
081419	14:22:16	14:25:01	164412	5.0.10.0	5_exp_noRW	100	Rpleas_acq	CS_A	CPPC	ZHHZ	YFFY	DXXD	JQQJ	LWWL	küssen	sonnig	vertrauen	träumen	gütig	genießen	krank	sterben	versagen	töten	gierig	gemein	53pct	acq_USunple_CSunple2_noRW	acq1_noRW	1	34	0	0	300	300	336	46	0	1	1	blank2r.bmp	0	1	+	0	1	blank2r.bmp	252	1	DXXD	306	3	gemein	559	0	0	0	0	0	0	0	0	0	0	0	0	0	0	0	0	0	0	0	0	0	0	0	0	0	0	0	0	0	0	0	0	0	0	0	0	0	0	0
081419	14:22:16	14:25:02	165931	5.0.10.0	5_exp_noRW	100	Rpleas_acq	CS_A	CPPC	ZHHZ	YFFY	DXXD	JQQJ	LWWL	küssen	sonnig	vertrauen	träumen	gütig	genießen	krank	sterben	versagen	töten	gierig	gemein	47pct	acq_USunple_CSunple2_noRW	acq1_noRW	1	35	0	0	300	300	340	46	0	1	1	blank2r.bmp	0	1	+	0	1	blank2r.bmp	253	1	DXXD	306	1	töten	559	0	0	0	0	0	0	0	0	0	0	0	0	0	0	0	0	0	0	0	0	0	0	0	0	0	0	0	0	0	0	0	0	0	0	0	0	0	0	0
081419	14:22:16	14:25:04	167597	5.0.10.0	5_exp_noRW	100	Rpleas_acq	CS_A	CPPC	ZHHZ	YFFY	DXXD	JQQJ	LWWL	küssen	sonnig	vertrauen	träumen	gütig	genießen	krank	sterben	versagen	töten	gierig	gemein	47pct	acq_USpleas_CSunple2_noRW	acq1_noRW	1	36	0	0	300	300	478	50	0	1	1	blank2r.bmp	0	1	+	0	1	blank2r.bmp	252	1	DXXD	306	3	genießen	559	0	0	0	0	0	0	0	0	0	0	0	0	0	0	0	0	0	0	0	0	0	0	0	0	0	0	0	0	0	0	0	0	0	0	0	0	0	0	0
081419	14:22:16	14:25:06	169290	5.0.10.0	5_exp_noRW	100	Rpleas_acq	CS_A	CPPC	ZHHZ	YFFY	DXXD	JQQJ	LWWL	küssen	sonnig	vertrauen	träumen	gütig	genießen	krank	sterben	versagen	töten	gierig	gemein	53pct	acq_USpleas_CSpleas2_noRW	acq1_noRW	1	37	0	0	300	300	519	50	0	1	1	blank2r.bmp	0	1	+	0	1	blank2r.bmp	252	1	ZHHZ	306	1	träumen	559	0	0	0	0	0	0	0	0	0	0	0	0	0	0	0	0	0	0	0	0	0	0	0	0	0	0	0	0	0	0	0	0	0	0	0	0	0	0	0
081419	14:22:16	14:25:07	171129	5.0.10.0	5_exp_noRW	100	Rpleas_acq	CS_A	CPPC	ZHHZ	YFFY	DXXD	JQQJ	LWWL	küssen	sonnig	vertrauen	träumen	gütig	genießen	krank	sterben	versagen	töten	gierig	gemein	53pct	acq_USpleas_CSpleas2_noRW	acq1_noRW	1	38	0	0	300	300	456	46	0	0	1	blank2r.bmp	0	1	+	0	1	blank2r.bmp	252	1	ZHHZ	306	2	gütig	559	1	FEHLER	1052	0	0	0	0	0	0	0	0	0	0	0	0	0	0	0	0	0	0	0	0	0	0	0	0	0	0	0	0	0	0	0	0	0	0	0	0
081419	14:22:16	14:25:09	172768	5.0.10.0	5_exp_noRW	100	Rpleas_acq	CS_A	CPPC	ZHHZ	YFFY	DXXD	JQQJ	LWWL	küssen	sonnig	vertrauen	träumen	gütig	genießen	krank	sterben	versagen	töten	gierig	gemein	53pct	acq_USpleas_CSpleas2_noRW	acq1_noRW	1	39	0	0	300	300	480	46	0	0	1	blank2r.bmp	0	1	+	0	1	blank2r.bmp	252	1	ZHHZ	306	1	träumen	559	1	FEHLER	1079	0	0	0	0	0	0	0	0	0	0	0	0	0	0	0	0	0	0	0	0	0	0	0	0	0	0	0	0	0	0	0	0	0	0	0	0
081419	14:22:16	14:25:10	174221	5.0.10.0	5_exp_noRW	100	Rpleas_acq	CS_A	CPPC	ZHHZ	YFFY	DXXD	JQQJ	LWWL	küssen	sonnig	vertrauen	träumen	gütig	genießen	krank	sterben	versagen	töten	gierig	gemein	47pct	acq_USunple_CSunple1_noRW	acq1_noRW	1	40	0	0	300	300	481	46	0	1	1	blank2r.bmp	0	1	+	0	1	blank2r.bmp	252	1	YFFY	306	1	krank	559	0	0	0	0	0	0	0	0	0	0	0	0	0	0	0	0	0	0	0	0	0	0	0	0	0	0	0	0	0	0	0	0	0	0	0	0	0	0	0
081419	14:22:16	14:25:12	175780	5.0.10.0	5_exp_noRW	100	Rpleas_acq	CS_A	CPPC	ZHHZ	YFFY	DXXD	JQQJ	LWWL	küssen	sonnig	vertrauen	träumen	gütig	genießen	krank	sterben	versagen	töten	gierig	gemein	47pct	acq_USunple_CSunple1_noRW	acq1_noRW	1	41	0	0	300	300	389	46	0	1	1	blank2r.bmp	0	1	+	0	1	blank2r.bmp	252	1	YFFY	306	2	sterben	559	0	0	0	0	0	0	0	0	0	0	0	0	0	0	0	0	0	0	0	0	0	0	0	0	0	0	0	0	0	0	0	0	0	0	0	0	0	0	0
081419	14:22:16	14:25:14	177820	5.0.10.0	5_exp_noRW	100	Rpleas_acq	CS_A	CPPC	ZHHZ	YFFY	DXXD	JQQJ	LWWL	küssen	sonnig	vertrauen	träumen	gütig	genießen	krank	sterben	versagen	töten	gierig	gemein	47pct	acq_USunple_CSunple2_noRW	acq1_noRW	1	42	0	0	300	300	872	46	0	1	1	blank2r.bmp	0	1	+	0	1	blank2r.bmp	252	1	DXXD	306	2	gierig	559	0	0	0	0	0	0	0	0	0	0	0	0	0	0	0	0	0	0	0	0	0	0	0	0	0	0	0	0	0	0	0	0	0	0	0	0	0	0	0
081419	14:22:16	14:25:16	179512	5.0.10.0	5_exp_noRW	100	Rpleas_acq	CS_A	CPPC	ZHHZ	YFFY	DXXD	JQQJ	LWWL	küssen	sonnig	vertrauen	träumen	gütig	genießen	krank	sterben	versagen	töten	gierig	gemein	53pct	acq_USunple_CSunple1_noRW	acq1_noRW	1	43	0	0	300	300	525	46	0	1	1	blank2r.bmp	0	1	+	0	1	blank2r.bmp	252	1	YFFY	306	1	krank	559	0	0	0	0	0	0	0	0	0	0	0	0	0	0	0	0	0	0	0	0	0	0	0	0	0	0	0	0	0	0	0	0	0	0	0	0	0	0	0
081419	14:22:16	14:25:18	181472	5.0.10.0	5_exp_noRW	100	Rpleas_acq	CS_A	CPPC	ZHHZ	YFFY	DXXD	JQQJ	LWWL	küssen	sonnig	vertrauen	träumen	gütig	genießen	krank	sterben	versagen	töten	gierig	gemein	47pct	acq_USunple_CSunple2_noRW	acq1_noRW	1	44	0	0	300	300	563	50	0	0	1	blank2r.bmp	0	1	+	0	1	blank2r.bmp	252	1	DXXD	306	2	gierig	559	1	FEHLER	1159	0	0	0	0	0	0	0	0	0	0	0	0	0	0	0	0	0	0	0	0	0	0	0	0	0	0	0	0	0	0	0	0	0	0	0	0
081419	14:22:16	14:25:19	182991	5.0.10.0	5_exp_noRW	100	Rpleas_acq	CS_A	CPPC	ZHHZ	YFFY	DXXD	JQQJ	LWWL	küssen	sonnig	vertrauen	träumen	gütig	genießen	krank	sterben	versagen	töten	gierig	gemein	47pct	acq_USpleas_CSpleas1_noRW	acq1_noRW	1	45	0	0	300	300	571	50	0	1	1	blank2r.bmp	0	1	+	0	1	blank2r.bmp	252	1	CPPC	306	3	vertrauen	559	0	0	0	0	0	0	0	0	0	0	0	0	0	0	0	0	0	0	0	0	0	0	0	0	0	0	0	0	0	0	0	0	0	0	0	0	0	0	0
081419	14:22:16	14:25:21	184790	5.0.10.0	5_exp_noRW	100	Rpleas_acq	CS_A	CPPC	ZHHZ	YFFY	DXXD	JQQJ	LWWL	küssen	sonnig	vertrauen	träumen	gütig	genießen	krank	sterben	versagen	töten	gierig	gemein	47pct	acq_USunple_CSunple1_noRW	acq1_noRW	1	46	0	0	300	300	612	46	0	1	1	blank2r.bmp	0	1	+	0	1	blank2r.bmp	252	1	YFFY	306	3	versagen	559	0	0	0	0	0	0	0	0	0	0	0	0	0	0	0	0	0	0	0	0	0	0	0	0	0	0	0	0	0	0	0	0	0	0	0	0	0	0	0
081419	14:22:16	14:25:23	186589	5.0.10.0	5_exp_noRW	100	Rpleas_acq	CS_A	CPPC	ZHHZ	YFFY	DXXD	JQQJ	LWWL	küssen	sonnig	vertrauen	träumen	gütig	genießen	krank	sterben	versagen	töten	gierig	gemein	47pct	acq_USunple_CSunple1_noRW	acq1_noRW	1	47	0	0	300	300	613	46	0	1	1	blank2r.bmp	0	1	+	0	1	blank2r.bmp	252	1	YFFY	306	2	sterben	559	0	0	0	0	0	0	0	0	0	0	0	0	0	0	0	0	0	0	0	0	0	0	0	0	0	0	0	0	0	0	0	0	0	0	0	0	0	0	0
081419	14:22:16	14:25:25	188615	5.0.10.0	5_exp_noRW	100	Rpleas_acq	CS_A	CPPC	ZHHZ	YFFY	DXXD	JQQJ	LWWL	küssen	sonnig	vertrauen	träumen	gütig	genießen	krank	sterben	versagen	töten	gierig	gemein	47pct	acq_USunple_CSpleas1_noRW	acq1_noRW	1	48	0	0	300	300	854	46	0	1	1	blank2r.bmp	0	1	+	0	1	blank2r.bmp	252	1	CPPC	306	1	krank	559	0	0	0	0	0	0	0	0	0	0	0	0	0	0	0	0	0	0	0	0	0	0	0	0	0	0	0	0	0	0	0	0	0	0	0	0	0	0	0
081419	14:22:16	14:25:26	190175	5.0.10.0	5_exp_noRW	100	Rpleas_acq	CS_A	CPPC	ZHHZ	YFFY	DXXD	JQQJ	LWWL	küssen	sonnig	vertrauen	träumen	gütig	genießen	krank	sterben	versagen	töten	gierig	gemein	53pct	acq_USunple_CSunple2_noRW	acq1_noRW	1	49	0	0	300	300	385	46	0	1	1	blank2r.bmp	0	1	+	0	1	blank2r.bmp	252	1	DXXD	306	3	gemein	559	0	0	0	0	0	0	0	0	0	0	0	0	0	0	0	0	0	0	0	0	0	0	0	0	0	0	0	0	0	0	0	0	0	0	0	0	0	0	0
081419	14:22:16	14:25:28	191841	5.0.10.0	5_exp_noRW	100	Rpleas_acq	CS_A	CPPC	ZHHZ	YFFY	DXXD	JQQJ	LWWL	küssen	sonnig	vertrauen	träumen	gütig	genießen	krank	sterben	versagen	töten	gierig	gemein	53pct	acq_USpleas_CSpleas2_noRW	acq1_noRW	1	50	0	0	300	300	503	50	0	1	1	blank2r.bmp	0	1	+	0	1	blank2r.bmp	252	1	ZHHZ	306	3	genießen	559	0	0	0	0	0	0	0	0	0	0	0	0	0	0	0	0	0	0	0	0	0	0	0	0	0	0	0	0	0	0	0	0	0	0	0	0	0	0	0
081419	14:22:16	14:25:30	193400	5.0.10.0	5_exp_noRW	100	Rpleas_acq	CS_A	CPPC	ZHHZ	YFFY	DXXD	JQQJ	LWWL	küssen	sonnig	vertrauen	träumen	gütig	genießen	krank	sterben	versagen	töten	gierig	gemein	47pct	acq_USpleas_CSpleas1_noRW	acq1_noRW	1	51	0	0	300	300	378	50	0	1	1	blank2r.bmp	0	1	+	0	1	blank2r.bmp	252	1	CPPC	306	2	sonnig	559	0	0	0	0	0	0	0	0	0	0	0	0	0	0	0	0	0	0	0	0	0	0	0	0	0	0	0	0	0	0	0	0	0	0	0	0	0	0	0
081419	14:22:16	14:25:31	195079	5.0.10.0	5_exp_noRW	100	Rpleas_acq	CS_A	CPPC	ZHHZ	YFFY	DXXD	JQQJ	LWWL	küssen	sonnig	vertrauen	träumen	gütig	genießen	krank	sterben	versagen	töten	gierig	gemein	47pct	acq_USpleas_CSunple1_noRW	acq1_noRW	1	52	0	0	300	300	498	50	0	1	1	blank2r.bmp	0	1	+	0	1	blank2r.bmp	252	1	YFFY	306	3	vertrauen	559	0	0	0	0	0	0	0	0	0	0	0	0	0	0	0	0	0	0	0	0	0	0	0	0	0	0	0	0	0	0	0	0	0	0	0	0	0	0	0
081419	14:22:16	14:25:33	196825	5.0.10.0	5_exp_noRW	100	Rpleas_acq	CS_A	CPPC	ZHHZ	YFFY	DXXD	JQQJ	LWWL	küssen	sonnig	vertrauen	träumen	gütig	genießen	krank	sterben	versagen	töten	gierig	gemein	53pct	acq_USpleas_CSunple2_noRW	acq1_noRW	1	53	0	0	300	300	568	50	0	1	1	blank2r.bmp	0	1	+	0	1	blank2r.bmp	252	1	DXXD	306	1	träumen	559	0	0	0	0	0	0	0	0	0	0	0	0	0	0	0	0	0	0	0	0	0	0	0	0	0	0	0	0	0	0	0	0	0	0	0	0	0	0	0
081419	14:22:16	14:25:35	198678	5.0.10.0	5_exp_noRW	100	Rpleas_acq	CS_A	CPPC	ZHHZ	YFFY	DXXD	JQQJ	LWWL	küssen	sonnig	vertrauen	träumen	gütig	genießen	krank	sterben	versagen	töten	gierig	gemein	53pct	acq_USpleas_CSpleas1_noRW	acq1_noRW	1	54	0	0	300	300	678	50	0	1	1	blank2r.bmp	0	1	+	0	1	blank2r.bmp	252	1	CPPC	306	3	vertrauen	559	0	0	0	0	0	0	0	0	0	0	0	0	0	0	0	0	0	0	0	0	0	0	0	0	0	0	0	0	0	0	0	0	0	0	0	0	0	0	0
081419	14:22:16	14:25:37	200330	5.0.10.0	5_exp_noRW	100	Rpleas_acq	CS_A	CPPC	ZHHZ	YFFY	DXXD	JQQJ	LWWL	küssen	sonnig	vertrauen	träumen	gütig	genießen	krank	sterben	versagen	töten	gierig	gemein	47pct	acq_USunple_CSpleas2_noRW	acq1_noRW	1	55	0	0	300	300	455	46	0	1	1	blank2r.bmp	0	1	+	0	1	blank2r.bmp	252	1	ZHHZ	306	1	töten	559	0	0	0	0	0	0	0	0	0	0	0	0	0	0	0	0	0	0	0	0	0	0	0	0	0	0	0	0	0	0	0	0	0	0	0	0	0	0	0
081419	14:22:16	14:25:38	202156	5.0.10.0	5_exp_noRW	100	Rpleas_acq	CS_A	CPPC	ZHHZ	YFFY	DXXD	JQQJ	LWWL	küssen	sonnig	vertrauen	träumen	gütig	genießen	krank	sterben	versagen	töten	gierig	gemein	47pct	acq_USpleas_CSpleas2_noRW	acq1_noRW	1	56	0	0	300	300	657	50	0	1	1	blank2r.bmp	0	1	+	0	1	blank2r.bmp	252	1	ZHHZ	306	2	gütig	559	0	0	0	0	0	0	0	0	0	0	0	0	0	0	0	0	0	0	0	0	0	0	0	0	0	0	0	0	0	0	0	0	0	0	0	0	0	0	0
081419	14:22:16	14:25:40	203809	5.0.10.0	5_exp_noRW	100	Rpleas_acq	CS_A	CPPC	ZHHZ	YFFY	DXXD	JQQJ	LWWL	küssen	sonnig	vertrauen	träumen	gütig	genießen	krank	sterben	versagen	töten	gierig	gemein	47pct	acq_USpleas_CSpleas2_noRW	acq1_noRW	1	57	0	0	300	300	479	50	0	1	1	blank2r.bmp	0	1	+	0	1	blank2r.bmp	252	1	ZHHZ	306	3	genießen	559	0	0	0	0	0	0	0	0	0	0	0	0	0	0	0	0	0	0	0	0	0	0	0	0	0	0	0	0	0	0	0	0	0	0	0	0	0	0	0
081419	14:22:16	14:25:42	205435	5.0.10.0	5_exp_noRW	100	Rpleas_acq	CS_A	CPPC	ZHHZ	YFFY	DXXD	JQQJ	LWWL	küssen	sonnig	vertrauen	träumen	gütig	genießen	krank	sterben	versagen	töten	gierig	gemein	47pct	acq_USpleas_CSpleas1_noRW	acq1_noRW	1	58	0	0	300	300	464	50	0	1	1	blank2r.bmp	0	1	+	0	1	blank2r.bmp	252	1	CPPC	306	1	küssen	559	0	0	0	0	0	0	0	0	0	0	0	0	0	0	0	0	0	0	0	0	0	0	0	0	0	0	0	0	0	0	0	0	0	0	0	0	0	0	0
081419	14:22:16	14:25:43	206994	5.0.10.0	5_exp_noRW	100	Rpleas_acq	CS_A	CPPC	ZHHZ	YFFY	DXXD	JQQJ	LWWL	küssen	sonnig	vertrauen	träumen	gütig	genießen	krank	sterben	versagen	töten	gierig	gemein	47pct	acq_USpleas_CSpleas2_noRW	acq1_noRW	1	59	0	0	300	300	381	50	0	1	1	blank2r.bmp	0	1	+	0	1	blank2r.bmp	252	1	ZHHZ	306	1	träumen	559	0	0	0	0	0	0	0	0	0	0	0	0	0	0	0	0	0	0	0	0	0	0	0	0	0	0	0	0	0	0	0	0	0	0	0	0	0	0	0
081419	14:22:16	14:25:45	208874	5.0.10.0	5_exp_noRW	100	Rpleas_acq	CS_A	CPPC	ZHHZ	YFFY	DXXD	JQQJ	LWWL	küssen	sonnig	vertrauen	träumen	gütig	genießen	krank	sterben	versagen	töten	gierig	gemein	47pct	acq_USunple_CSunple2_noRW	acq1_noRW	1	60	0	0	300	300	490	50	0	0	1	blank2r.bmp	0	1	+	0	1	blank2r.bmp	252	1	DXXD	306	1	töten	559	1	FEHLER	1079	0	0	0	0	0	0	0	0	0	0	0	0	0	0	0	0	0	0	0	0	0	0	0	0	0	0	0	0	0	0	0	0	0	0	0	0
081419	14:22:16	14:25:47	210393	5.0.10.0	5_exp_noRW	100	Rpleas_acq	CS_A	CPPC	ZHHZ	YFFY	DXXD	JQQJ	LWWL	küssen	sonnig	vertrauen	träumen	gütig	genießen	krank	sterben	versagen	töten	gierig	gemein	53pct	acq_USunple_CSpleas1_noRW	acq1_noRW	1	61	0	0	300	300	535	46	0	1	1	blank2r.bmp	0	1	+	0	1	blank2r.bmp	252	1	CPPC	306	1	krank	559	0	0	0	0	0	0	0	0	0	0	0	0	0	0	0	0	0	0	0	0	0	0	0	0	0	0	0	0	0	0	0	0	0	0	0	0	0	0	0
081419	14:22:16	14:25:48	212206	5.0.10.0	5_exp_noRW	100	Rpleas_acq	CS_A	CPPC	ZHHZ	YFFY	DXXD	JQQJ	LWWL	küssen	sonnig	vertrauen	träumen	gütig	genießen	krank	sterben	versagen	töten	gierig	gemein	47pct	acq_USpleas_CSpleas1_noRW	acq1_noRW	1	62	0	0	300	300	649	50	0	1	1	blank2r.bmp	0	1	+	0	1	blank2r.bmp	252	1	CPPC	306	1	küssen	559	0	0	0	0	0	0	0	0	0	0	0	0	0	0	0	0	0	0	0	0	0	0	0	0	0	0	0	0	0	0	0	0	0	0	0	0	0	0	0
081419	14:22:16	14:25:50	213965	5.0.10.0	5_exp_noRW	100	Rpleas_acq	CS_A	CPPC	ZHHZ	YFFY	DXXD	JQQJ	LWWL	küssen	sonnig	vertrauen	träumen	gütig	genießen	krank	sterben	versagen	töten	gierig	gemein	53pct	acq_USunple_CSunple1_noRW	acq1_noRW	1	63	0	0	300	300	574	46	0	1	1	blank2r.bmp	0	1	+	0	1	blank2r.bmp	252	1	YFFY	306	1	krank	559	0	0	0	0	0	0	0	0	0	0	0	0	0	0	0	0	0	0	0	0	0	0	0	0	0	0	0	0	0	0	0	0	0	0	0	0	0	0	0
081419	14:22:16	14:25:52	215711	5.0.10.0	5_exp_noRW	100	Rpleas_acq	CS_A	CPPC	ZHHZ	YFFY	DXXD	JQQJ	LWWL	küssen	sonnig	vertrauen	träumen	gütig	genießen	krank	sterben	versagen	töten	gierig	gemein	47pct	acq_USpleas_CSpleas1_noRW	acq1_noRW	1	64	0	0	300	300	584	50	0	1	1	blank2r.bmp	0	1	+	0	1	blank2r.bmp	252	1	CPPC	306	3	vertrauen	559	0	0	0	0	0	0	0	0	0	0	0	0	0	0	0	0	0	0	0	0	0	0	0	0	0	0	0	0	0	0	0	0	0	0	0	0	0	0	0
081419	14:22:16	14:25:54	217510	5.0.10.0	5_exp_noRW	100	Rpleas_acq	CS_A	CPPC	ZHHZ	YFFY	DXXD	JQQJ	LWWL	küssen	sonnig	vertrauen	träumen	gütig	genießen	krank	sterben	versagen	töten	gierig	gemein	53pct	acq_USpleas_CSpleas1_noRW	acq1_noRW	1	65	0	0	300	300	629	50	0	1	1	blank2r.bmp	0	1	+	0	1	blank2r.bmp	252	1	CPPC	306	2	sonnig	559	0	0	0	0	0	0	0	0	0	0	0	0	0	0	0	0	0	0	0	0	0	0	0	0	0	0	0	0	0	0	0	0	0	0	0	0	0	0	0
081419	14:22:16	14:25:55	219056	5.0.10.0	5_exp_noRW	100	Rpleas_acq	CS_A	CPPC	ZHHZ	YFFY	DXXD	JQQJ	LWWL	küssen	sonnig	vertrauen	träumen	gütig	genießen	krank	sterben	versagen	töten	gierig	gemein	47pct	acq_USunple_CSunple2_noRW	acq1_noRW	1	66	0	0	300	300	374	46	0	1	1	blank2r.bmp	0	1	+	0	1	blank2r.bmp	252	1	DXXD	306	2	gierig	559	0	0	0	0	0	0	0	0	0	0	0	0	0	0	0	0	0	0	0	0	0	0	0	0	0	0	0	0	0	0	0	0	0	0	0	0	0	0	0
081419	14:22:16	14:25:57	220815	5.0.10.0	5_exp_noRW	100	Rpleas_acq	CS_A	CPPC	ZHHZ	YFFY	DXXD	JQQJ	LWWL	küssen	sonnig	vertrauen	träumen	gütig	genießen	krank	sterben	versagen	töten	gierig	gemein	53pct	acq_USpleas_CSpleas1_noRW	acq1_noRW	1	67	0	0	300	300	586	50	0	1	1	blank2r.bmp	0	1	+	0	1	blank2r.bmp	252	1	CPPC	306	3	vertrauen	559	0	0	0	0	0	0	0	0	0	0	0	0	0	0	0	0	0	0	0	0	0	0	0	0	0	0	0	0	0	0	0	0	0	0	0	0	0	0	0
081419	14:22:16	14:25:59	222441	5.0.10.0	5_exp_noRW	100	Rpleas_acq	CS_A	CPPC	ZHHZ	YFFY	DXXD	JQQJ	LWWL	küssen	sonnig	vertrauen	träumen	gütig	genießen	krank	sterben	versagen	töten	gierig	gemein	53pct	acq_USpleas_CSunple2_noRW	acq1_noRW	1	68	0	0	300	300	460	50	0	1	1	blank2r.bmp	0	1	+	0	1	blank2r.bmp	252	1	DXXD	306	3	genießen	559	0	0	0	0	0	0	0	0	0	0	0	0	0	0	0	0	0	0	0	0	0	0	0	0	0	0	0	0	0	0	0	0	0	0	0	0	0	0	0
081419	14:22:16	14:26:00	224147	5.0.10.0	5_exp_noRW	100	Rpleas_acq	CS_A	CPPC	ZHHZ	YFFY	DXXD	JQQJ	LWWL	küssen	sonnig	vertrauen	träumen	gütig	genießen	krank	sterben	versagen	töten	gierig	gemein	47pct	acq_USpleas_CSpleas2_noRW	acq1_noRW	1	69	0	0	300	300	528	50	0	1	1	blank2r.bmp	0	1	+	0	1	blank2r.bmp	252	1	ZHHZ	306	2	gütig	559	0	0	0	0	0	0	0	0	0	0	0	0	0	0	0	0	0	0	0	0	0	0	0	0	0	0	0	0	0	0	0	0	0	0	0	0	0	0	0
081419	14:22:16	14:26:02	225987	5.0.10.0	5_exp_noRW	100	Rpleas_acq	CS_A	CPPC	ZHHZ	YFFY	DXXD	JQQJ	LWWL	küssen	sonnig	vertrauen	träumen	gütig	genießen	krank	sterben	versagen	töten	gierig	gemein	53pct	acq_USunple_CSunple2_noRW	acq1_noRW	1	70	0	0	300	300	441	50	0	0	1	blank2r.bmp	0	1	+	0	1	blank2r.bmp	252	1	DXXD	306	3	gemein	559	1	FEHLER	1039	0	0	0	0	0	0	0	0	0	0	0	0	0	0	0	0	0	0	0	0	0	0	0	0	0	0	0	0	0	0	0	0	0	0	0	0
081419	14:22:16	14:26:04	227413	5.0.10.0	5_exp_noRW	100	Rpleas_acq	CS_A	CPPC	ZHHZ	YFFY	DXXD	JQQJ	LWWL	küssen	sonnig	vertrauen	träumen	gütig	genießen	krank	sterben	versagen	töten	gierig	gemein	47pct	acq_USpleas_CSpleas2_noRW	acq1_noRW	1	71	0	0	300	300	467	50	0	1	1	blank2r.bmp	0	1	+	0	1	blank2r.bmp	252	1	ZHHZ	306	3	genießen	559	0	0	0	0	0	0	0	0	0	0	0	0	0	0	0	0	0	0	0	0	0	0	0	0	0	0	0	0	0	0	0	0	0	0	0	0	0	0	0
081419	14:22:16	14:26:05	228945	5.0.10.0	5_exp_noRW	100	Rpleas_acq	CS_A	CPPC	ZHHZ	YFFY	DXXD	JQQJ	LWWL	küssen	sonnig	vertrauen	träumen	gütig	genießen	krank	sterben	versagen	töten	gierig	gemein	47pct	acq_USunple_CSunple2_noRW	acq1_noRW	1	72	0	0	300	300	361	46	0	1	1	blank2r.bmp	0	1	+	0	1	blank2r.bmp	252	1	DXXD	306	1	töten	559	0	0	0	0	0	0	0	0	0	0	0	0	0	0	0	0	0	0	0	0	0	0	0	0	0	0	0	0	0	0	0	0	0	0	0	0	0	0	0
081419	14:22:16	14:26:07	230798	5.0.10.0	5_exp_noRW	100	Rpleas_acq	CS_A	CPPC	ZHHZ	YFFY	DXXD	JQQJ	LWWL	küssen	sonnig	vertrauen	träumen	gütig	genießen	krank	sterben	versagen	töten	gierig	gemein	53pct	acq_USunple_CSunple2_noRW	acq1_noRW	1	73	0	0	300	300	467	50	0	0	1	blank2r.bmp	0	1	+	0	1	blank2r.bmp	252	1	DXXD	306	2	gierig	559	1	FEHLER	1066	0	0	0	0	0	0	0	0	0	0	0	0	0	0	0	0	0	0	0	0	0	0	0	0	0	0	0	0	0	0	0	0	0	0	0	0
081419	14:22:16	14:26:09	232424	5.0.10.0	5_exp_noRW	100	Rpleas_acq	CS_A	CPPC	ZHHZ	YFFY	DXXD	JQQJ	LWWL	küssen	sonnig	vertrauen	träumen	gütig	genießen	krank	sterben	versagen	töten	gierig	gemein	47pct	acq_USpleas_CSpleas2_noRW	acq1_noRW	1	74	0	0	300	300	665	50	0	1	1	blank2r.bmp	0	1	+	0	1	blank2r.bmp	252	1	ZHHZ	306	1	träumen	559	0	0	0	0	0	0	0	0	0	0	0	0	0	0	0	0	0	0	0	0	0	0	0	0	0	0	0	0	0	0	0	0	0	0	0	0	0	0	0
081419	14:22:16	14:26:10	234103	5.0.10.0	5_exp_noRW	100	Rpleas_acq	CS_A	CPPC	ZHHZ	YFFY	DXXD	JQQJ	LWWL	küssen	sonnig	vertrauen	träumen	gütig	genießen	krank	sterben	versagen	töten	gierig	gemein	47pct	acq_USpleas_CSunple1_noRW	acq1_noRW	1	75	0	0	300	300	517	50	0	1	1	blank2r.bmp	0	1	+	0	1	blank2r.bmp	252	1	YFFY	306	2	sonnig	559	0	0	0	0	0	0	0	0	0	0	0	0	0	0	0	0	0	0	0	0	0	0	0	0	0	0	0	0	0	0	0	0	0	0	0	0	0	0	0
081419	14:22:16	14:26:12	235636	5.0.10.0	5_exp_noRW	100	Rpleas_acq	CS_A	CPPC	ZHHZ	YFFY	DXXD	JQQJ	LWWL	küssen	sonnig	vertrauen	träumen	gütig	genießen	krank	sterben	versagen	töten	gierig	gemein	53pct	acq_USunple_CSunple1_noRW	acq1_noRW	1	76	0	0	300	300	360	46	0	1	1	blank2r.bmp	0	1	+	0	1	blank2r.bmp	252	1	YFFY	306	2	sterben	559	0	0	0	0	0	0	0	0	0	0	0	0	0	0	0	0	0	0	0	0	0	0	0	0	0	0	0	0	0	0	0	0	0	0	0	0	0	0	0
081419	14:22:16	14:26:14	237409	5.0.10.0	5_exp_noRW	100	Rpleas_acq	CS_A	CPPC	ZHHZ	YFFY	DXXD	JQQJ	LWWL	küssen	sonnig	vertrauen	träumen	gütig	genießen	krank	sterben	versagen	töten	gierig	gemein	47pct	acq_USunple_CSpleas2_noRW	acq1_noRW	1	77	0	0	300	300	611	46	0	1	1	blank2r.bmp	0	1	+	0	1	blank2r.bmp	252	1	ZHHZ	306	2	gierig	559	0	0	0	0	0	0	0	0	0	0	0	0	0	0	0	0	0	0	0	0	0	0	0	0	0	0	0	0	0	0	0	0	0	0	0	0	0	0	0
081419	14:22:16	14:26:15	239274	5.0.10.0	5_exp_noRW	100	Rpleas_acq	CS_A	CPPC	ZHHZ	YFFY	DXXD	JQQJ	LWWL	küssen	sonnig	vertrauen	träumen	gütig	genießen	krank	sterben	versagen	töten	gierig	gemein	53pct	acq_USunple_CSunple1_noRW	acq1_noRW	1	78	0	0	300	300	681	46	0	1	1	blank2r.bmp	0	1	+	0	1	blank2r.bmp	252	1	YFFY	306	3	versagen	559	0	0	0	0	0	0	0	0	0	0	0	0	0	0	0	0	0	0	0	0	0	0	0	0	0	0	0	0	0	0	0	0	0	0	0	0	0	0	0
081419	14:22:16	14:26:17	241034	5.0.10.0	5_exp_noRW	100	Rpleas_acq	CS_A	CPPC	ZHHZ	YFFY	DXXD	JQQJ	LWWL	küssen	sonnig	vertrauen	träumen	gütig	genießen	krank	sterben	versagen	töten	gierig	gemein	47pct	acq_USpleas_CSpleas2_noRW	acq1_noRW	1	79	0	0	300	300	591	50	0	1	1	blank2r.bmp	0	1	+	0	1	blank2r.bmp	252	1	ZHHZ	306	3	genießen	559	0	0	0	0	0	0	0	0	0	0	0	0	0	0	0	0	0	0	0	0	0	0	0	0	0	0	0	0	0	0	0	0	0	0	0	0	0	0	0
081419	14:22:16	14:26:19	242753	5.0.10.0	5_exp_noRW	100	Rpleas_acq	CS_A	CPPC	ZHHZ	YFFY	DXXD	JQQJ	LWWL	küssen	sonnig	vertrauen	träumen	gütig	genießen	krank	sterben	versagen	töten	gierig	gemein	47pct	acq_USunple_CSunple1_noRW	acq1_noRW	1	80	0	0	300	300	553	46	0	1	1	blank2r.bmp	0	1	+	0	1	blank2r.bmp	252	1	YFFY	306	3	versagen	559	0	0	0	0	0	0	0	0	0	0	0	0	0	0	0	0	0	0	0	0	0	0	0	0	0	0	0	0	0	0	0	0	0	0	0	0	0	0	0
081419	14:22:16	14:26:33	256494	5.0.10.0	5_exp_noRW	100	Rpleas_acq	CS_A	CPPC	ZHHZ	YFFY	DXXD	JQQJ	LWWL	küssen	sonnig	vertrauen	träumen	gütig	genießen	krank	sterben	versagen	töten	gierig	gemein	47pct	acq_USunple_CSunple1_noRW	acq23456_noRW	2	1	0	0	300	300	593	46	0	1	1	blank2r.bmp	0	1	+	0	1	blank2r.bmp	252	1	YFFY	306	1	krank	559	0	0	0	0	0	0	0	0	0	0	0	0	0	0	0	0	0	0	0	0	0	0	0	0	0	0	0	0	0	0	0	0	0	0	0	0	0	0	0
081419	14:22:16	14:26:34	258147	5.0.10.0	5_exp_noRW	100	Rpleas_acq	CS_A	CPPC	ZHHZ	YFFY	DXXD	JQQJ	LWWL	küssen	sonnig	vertrauen	träumen	gütig	genießen	krank	sterben	versagen	töten	gierig	gemein	47pct	acq_USpleas_CSunple1_noRW	acq23456_noRW	2	2	0	0	300	300	485	50	0	1	1	blank2r.bmp	0	1	+	0	1	blank2r.bmp	252	1	YFFY	306	3	vertrauen	559	0	0	0	0	0	0	0	0	0	0	0	0	0	0	0	0	0	0	0	0	0	0	0	0	0	0	0	0	0	0	0	0	0	0	0	0	0	0	0
081419	14:22:16	14:26:36	259946	5.0.10.0	5_exp_noRW	100	Rpleas_acq	CS_A	CPPC	ZHHZ	YFFY	DXXD	JQQJ	LWWL	küssen	sonnig	vertrauen	träumen	gütig	genießen	krank	sterben	versagen	töten	gierig	gemein	47pct	acq_USpleas_CSpleas2_noRW	acq23456_noRW	2	3	0	0	300	300	414	46	0	0	1	blank2r.bmp	0	1	+	0	1	blank2r.bmp	252	1	ZHHZ	306	2	gütig	559	1	FEHLER	1012	0	0	0	0	0	0	0	0	0	0	0	0	0	0	0	0	0	0	0	0	0	0	0	0	0	0	0	0	0	0	0	0	0	0	0	0
081419	14:22:16	14:26:38	261452	5.0.10.0	5_exp_noRW	100	Rpleas_acq	CS_A	CPPC	ZHHZ	YFFY	DXXD	JQQJ	LWWL	küssen	sonnig	vertrauen	träumen	gütig	genießen	krank	sterben	versagen	töten	gierig	gemein	47pct	acq_USunple_CSunple2_noRW	acq23456_noRW	2	4	0	0	300	300	537	46	0	1	1	blank2r.bmp	0	1	+	0	1	blank2r.bmp	252	1	DXXD	306	1	töten	559	0	0	0	0	0	0	0	0	0	0	0	0	0	0	0	0	0	0	0	0	0	0	0	0	0	0	0	0	0	0	0	0	0	0	0	0	0	0	0
081419	14:22:16	14:26:39	263105	5.0.10.0	5_exp_noRW	100	Rpleas_acq	CS_A	CPPC	ZHHZ	YFFY	DXXD	JQQJ	LWWL	küssen	sonnig	vertrauen	träumen	gütig	genießen	krank	sterben	versagen	töten	gierig	gemein	47pct	acq_USunple_CSunple1_noRW	acq23456_noRW	2	5	0	0	300	300	480	46	0	1	1	blank2r.bmp	0	1	+	0	1	blank2r.bmp	252	1	YFFY	306	2	sterben	559	0	0	0	0	0	0	0	0	0	0	0	0	0	0	0	0	0	0	0	0	0	0	0	0	0	0	0	0	0	0	0	0	0	0	0	0	0	0	0
081419	14:22:16	14:26:41	264691	5.0.10.0	5_exp_noRW	100	Rpleas_acq	CS_A	CPPC	ZHHZ	YFFY	DXXD	JQQJ	LWWL	küssen	sonnig	vertrauen	träumen	gütig	genießen	krank	sterben	versagen	töten	gierig	gemein	47pct	acq_USpleas_CSpleas1_noRW	acq23456_noRW	2	6	0	0	300	300	424	50	0	1	1	blank2r.bmp	0	1	+	0	1	blank2r.bmp	252	1	CPPC	306	2	sonnig	559	0	0	0	0	0	0	0	0	0	0	0	0	0	0	0	0	0	0	0	0	0	0	0	0	0	0	0	0	0	0	0	0	0	0	0	0	0	0	0
081419	14:22:16	14:26:43	266610	5.0.10.0	5_exp_noRW	100	Rpleas_acq	CS_A	CPPC	ZHHZ	YFFY	DXXD	JQQJ	LWWL	küssen	sonnig	vertrauen	träumen	gütig	genießen	krank	sterben	versagen	töten	gierig	gemein	47pct	acq_USunple_CSunple1_noRW	acq23456_noRW	2	7	0	0	300	300	738	46	0	1	1	blank2r.bmp	0	1	+	0	1	blank2r.bmp	252	1	YFFY	306	2	sterben	559	0	0	0	0	0	0	0	0	0	0	0	0	0	0	0	0	0	0	0	0	0	0	0	0	0	0	0	0	0	0	0	0	0	0	0	0	0	0	0
081419	14:22:16	14:26:45	268343	5.0.10.0	5_exp_noRW	100	Rpleas_acq	CS_A	CPPC	ZHHZ	YFFY	DXXD	JQQJ	LWWL	küssen	sonnig	vertrauen	träumen	gütig	genießen	krank	sterben	versagen	töten	gierig	gemein	47pct	acq_USunple_CSunple2_noRW	acq23456_noRW	2	8	0	0	300	300	545	46	0	1	1	blank2r.bmp	0	1	+	0	1	blank2r.bmp	252	1	DXXD	306	3	gemein	559	0	0	0	0	0	0	0	0	0	0	0	0	0	0	0	0	0	0	0	0	0	0	0	0	0	0	0	0	0	0	0	0	0	0	0	0	0	0	0
081419	14:22:16	14:26:46	269995	5.0.10.0	5_exp_noRW	100	Rpleas_acq	CS_A	CPPC	ZHHZ	YFFY	DXXD	JQQJ	LWWL	küssen	sonnig	vertrauen	träumen	gütig	genießen	krank	sterben	versagen	töten	gierig	gemein	53pct	acq_USpleas_CSunple2_noRW	acq23456_noRW	2	9	0	0	300	300	468	50	0	1	1	blank2r.bmp	0	1	+	0	1	blank2r.bmp	252	1	DXXD	306	1	träumen	559	0	0	0	0	0	0	0	0	0	0	0	0	0	0	0	0	0	0	0	0	0	0	0	0	0	0	0	0	0	0	0	0	0	0	0	0	0	0	0
081419	14:22:16	14:26:48	271568	5.0.10.0	5_exp_noRW	100	Rpleas_acq	CS_A	CPPC	ZHHZ	YFFY	DXXD	JQQJ	LWWL	küssen	sonnig	vertrauen	träumen	gütig	genießen	krank	sterben	versagen	töten	gierig	gemein	47pct	acq_USunple_CSunple2_noRW	acq23456_noRW	2	10	0	0	300	300	392	46	0	1	1	blank2r.bmp	0	1	+	0	1	blank2r.bmp	252	1	DXXD	306	1	töten	559	0	0	0	0	0	0	0	0	0	0	0	0	0	0	0	0	0	0	0	0	0	0	0	0	0	0	0	0	0	0	0	0	0	0	0	0	0	0	0
081419	14:22:16	14:26:50	273274	5.0.10.0	5_exp_noRW	100	Rpleas_acq	CS_A	CPPC	ZHHZ	YFFY	DXXD	JQQJ	LWWL	küssen	sonnig	vertrauen	träumen	gütig	genießen	krank	sterben	versagen	töten	gierig	gemein	53pct	acq_USunple_CSunple1_noRW	acq23456_noRW	2	11	0	0	300	300	525	46	0	1	1	blank2r.bmp	0	1	+	0	1	blank2r.bmp	252	1	YFFY	306	3	versagen	559	0	0	0	0	0	0	0	0	0	0	0	0	0	0	0	0	0	0	0	0	0	0	0	0	0	0	0	0	0	0	0	0	0	0	0	0	0	0	0
081419	14:22:16	14:26:51	274913	5.0.10.0	5_exp_noRW	100	Rpleas_acq	CS_A	CPPC	ZHHZ	YFFY	DXXD	JQQJ	LWWL	küssen	sonnig	vertrauen	träumen	gütig	genießen	krank	sterben	versagen	töten	gierig	gemein	53pct	acq_USpleas_CSpleas2_noRW	acq23456_noRW	2	12	0	0	300	300	456	50	0	1	1	blank2r.bmp	0	1	+	0	1	blank2r.bmp	252	1	ZHHZ	306	1	träumen	559	0	0	0	0	0	0	0	0	0	0	0	0	0	0	0	0	0	0	0	0	0	0	0	0	0	0	0	0	0	0	0	0	0	0	0	0	0	0	0
081419	14:22:16	14:26:53	276539	5.0.10.0	5_exp_noRW	100	Rpleas_acq	CS_A	CPPC	ZHHZ	YFFY	DXXD	JQQJ	LWWL	küssen	sonnig	vertrauen	träumen	gütig	genießen	krank	sterben	versagen	töten	gierig	gemein	53pct	acq_USpleas_CSpleas1_noRW	acq23456_noRW	2	13	0	0	300	300	455	50	0	1	1	blank2r.bmp	0	1	+	0	1	blank2r.bmp	252	1	CPPC	306	1	küssen	559	0	0	0	0	0	0	0	0	0	0	0	0	0	0	0	0	0	0	0	0	0	0	0	0	0	0	0	0	0	0	0	0	0	0	0	0	0	0	0
081419	14:22:16	14:26:54	278099	5.0.10.0	5_exp_noRW	100	Rpleas_acq	CS_A	CPPC	ZHHZ	YFFY	DXXD	JQQJ	LWWL	küssen	sonnig	vertrauen	träumen	gütig	genießen	krank	sterben	versagen	töten	gierig	gemein	53pct	acq_USpleas_CSpleas1_noRW	acq23456_noRW	2	14	0	0	300	300	391	50	0	1	1	blank2r.bmp	0	1	+	0	1	blank2r.bmp	252	1	CPPC	306	2	sonnig	559	0	0	0	0	0	0	0	0	0	0	0	0	0	0	0	0	0	0	0	0	0	0	0	0	0	0	0	0	0	0	0	0	0	0	0	0	0	0	0
081419	14:22:16	14:26:56	279711	5.0.10.0	5_exp_noRW	100	Rpleas_acq	CS_A	CPPC	ZHHZ	YFFY	DXXD	JQQJ	LWWL	küssen	sonnig	vertrauen	träumen	gütig	genießen	krank	sterben	versagen	töten	gierig	gemein	47pct	acq_USunple_CSpleas1_noRW	acq23456_noRW	2	15	0	0	300	300	444	46	0	1	1	blank2r.bmp	0	1	+	0	1	blank2r.bmp	252	1	CPPC	306	3	versagen	559	0	0	0	0	0	0	0	0	0	0	0	0	0	0	0	0	0	0	0	0	0	0	0	0	0	0	0	0	0	0	0	0	0	0	0	0	0	0	0
081419	14:22:16	14:26:58	281697	5.0.10.0	5_exp_noRW	100	Rpleas_acq	CS_A	CPPC	ZHHZ	YFFY	DXXD	JQQJ	LWWL	küssen	sonnig	vertrauen	träumen	gütig	genießen	krank	sterben	versagen	töten	gierig	gemein	53pct	acq_USpleas_CSpleas1_noRW	acq23456_noRW	2	16	0	0	300	300	809	50	0	1	1	blank2r.bmp	0	1	+	0	1	blank2r.bmp	252	1	CPPC	306	3	vertrauen	559	0	0	0	0	0	0	0	0	0	0	0	0	0	0	0	0	0	0	0	0	0	0	0	0	0	0	0	0	0	0	0	0	0	0	0	0	0	0	0
081419	14:22:16	14:27:00	283443	5.0.10.0	5_exp_noRW	100	Rpleas_acq	CS_A	CPPC	ZHHZ	YFFY	DXXD	JQQJ	LWWL	küssen	sonnig	vertrauen	träumen	gütig	genießen	krank	sterben	versagen	töten	gierig	gemein	53pct	acq_USunple_CSunple2_noRW	acq23456_noRW	2	17	0	0	300	300	570	46	0	1	1	blank2r.bmp	0	1	+	0	1	blank2r.bmp	252	1	DXXD	306	2	gierig	559	0	0	0	0	0	0	0	0	0	0	0	0	0	0	0	0	0	0	0	0	0	0	0	0	0	0	0	0	0	0	0	0	0	0	0	0	0	0	0
081419	14:22:16	14:27:01	285056	5.0.10.0	5_exp_noRW	100	Rpleas_acq	CS_A	CPPC	ZHHZ	YFFY	DXXD	JQQJ	LWWL	küssen	sonnig	vertrauen	träumen	gütig	genießen	krank	sterben	versagen	töten	gierig	gemein	53pct	acq_USunple_CSpleas2_noRW	acq23456_noRW	2	18	0	0	300	300	432	46	0	1	1	blank2r.bmp	0	1	+	0	1	blank2r.bmp	252	1	ZHHZ	306	3	gemein	559	0	0	0	0	0	0	0	0	0	0	0	0	0	0	0	0	0	0	0	0	0	0	0	0	0	0	0	0	0	0	0	0	0	0	0	0	0	0	0
081419	14:22:16	14:27:03	287055	5.0.10.0	5_exp_noRW	100	Rpleas_acq	CS_A	CPPC	ZHHZ	YFFY	DXXD	JQQJ	LWWL	küssen	sonnig	vertrauen	träumen	gütig	genießen	krank	sterben	versagen	töten	gierig	gemein	47pct	acq_USpleas_CSpleas2_noRW	acq23456_noRW	2	19	0	0	300	300	836	50	0	1	1	blank2r.bmp	0	1	+	0	1	blank2r.bmp	252	1	ZHHZ	306	2	gütig	559	0	0	0	0	0	0	0	0	0	0	0	0	0	0	0	0	0	0	0	0	0	0	0	0	0	0	0	0	0	0	0	0	0	0	0	0	0	0	0
081419	14:22:16	14:27:05	288628	5.0.10.0	5_exp_noRW	100	Rpleas_acq	CS_A	CPPC	ZHHZ	YFFY	DXXD	JQQJ	LWWL	küssen	sonnig	vertrauen	träumen	gütig	genießen	krank	sterben	versagen	töten	gierig	gemein	47pct	acq_USpleas_CSpleas2_noRW	acq23456_noRW	2	20	0	0	300	300	398	50	0	1	1	blank2r.bmp	0	1	+	0	1	blank2r.bmp	252	1	ZHHZ	306	3	genießen	559	0	0	0	0	0	0	0	0	0	0	0	0	0	0	0	0	0	0	0	0	0	0	0	0	0	0	0	0	0	0	0	0	0	0	0	0	0	0	0
081419	14:22:16	14:27:06	290240	5.0.10.0	5_exp_noRW	100	Rpleas_acq	CS_A	CPPC	ZHHZ	YFFY	DXXD	JQQJ	LWWL	küssen	sonnig	vertrauen	träumen	gütig	genießen	krank	sterben	versagen	töten	gierig	gemein	53pct	acq_USunple_CSunple2_noRW	acq23456_noRW	2	21	0	0	300	300	427	46	0	1	1	blank2r.bmp	0	1	+	0	1	blank2r.bmp	252	1	DXXD	306	3	gemein	559	0	0	0	0	0	0	0	0	0	0	0	0	0	0	0	0	0	0	0	0	0	0	0	0	0	0	0	0	0	0	0	0	0	0	0	0	0	0	0
081419	14:22:16	14:27:08	291760	5.0.10.0	5_exp_noRW	100	Rpleas_acq	CS_A	CPPC	ZHHZ	YFFY	DXXD	JQQJ	LWWL	küssen	sonnig	vertrauen	träumen	gütig	genießen	krank	sterben	versagen	töten	gierig	gemein	53pct	acq_USpleas_CSpleas1_noRW	acq23456_noRW	2	22	0	0	300	300	345	50	0	1	1	blank2r.bmp	0	1	+	0	1	blank2r.bmp	252	1	CPPC	306	1	küssen	559	0	0	0	0	0	0	0	0	0	0	0	0	0	0	0	0	0	0	0	0	0	0	0	0	0	0	0	0	0	0	0	0	0	0	0	0	0	0	0
081419	14:22:16	14:27:10	293572	5.0.10.0	5_exp_noRW	100	Rpleas_acq	CS_A	CPPC	ZHHZ	YFFY	DXXD	JQQJ	LWWL	küssen	sonnig	vertrauen	träumen	gütig	genießen	krank	sterben	versagen	töten	gierig	gemein	53pct	acq_USpleas_CSpleas2_noRW	acq23456_noRW	2	23	0	0	300	300	626	50	0	1	1	blank2r.bmp	0	1	+	0	1	blank2r.bmp	252	1	ZHHZ	306	1	träumen	559	0	0	0	0	0	0	0	0	0	0	0	0	0	0	0	0	0	0	0	0	0	0	0	0	0	0	0	0	0	0	0	0	0	0	0	0	0	0	0
081419	14:22:16	14:27:11	295238	5.0.10.0	5_exp_noRW	100	Rpleas_acq	CS_A	CPPC	ZHHZ	YFFY	DXXD	JQQJ	LWWL	küssen	sonnig	vertrauen	träumen	gütig	genießen	krank	sterben	versagen	töten	gierig	gemein	53pct	acq_USunple_CSunple1_noRW	acq23456_noRW	2	24	0	0	300	300	494	46	0	1	1	blank2r.bmp	0	1	+	0	1	blank2r.bmp	252	1	YFFY	306	1	krank	559	0	0	0	0	0	0	0	0	0	0	0	0	0	0	0	0	0	0	0	0	0	0	0	0	0	0	0	0	0	0	0	0	0	0	0	0	0	0	0
081419	14:22:16	14:27:13	296824	5.0.10.0	5_exp_noRW	100	Rpleas_acq	CS_A	CPPC	ZHHZ	YFFY	DXXD	JQQJ	LWWL	küssen	sonnig	vertrauen	träumen	gütig	genießen	krank	sterben	versagen	töten	gierig	gemein	53pct	acq_USpleas_CSpleas2_noRW	acq23456_noRW	2	25	0	0	300	300	404	50	0	1	1	blank2r.bmp	0	1	+	0	1	blank2r.bmp	252	1	ZHHZ	306	3	genießen	559	0	0	0	0	0	0	0	0	0	0	0	0	0	0	0	0	0	0	0	0	0	0	0	0	0	0	0	0	0	0	0	0	0	0	0	0	0	0	0
081419	14:22:16	14:27:15	298317	5.0.10.0	5_exp_noRW	100	Rpleas_acq	CS_A	CPPC	ZHHZ	YFFY	DXXD	JQQJ	LWWL	küssen	sonnig	vertrauen	träumen	gütig	genießen	krank	sterben	versagen	töten	gierig	gemein	53pct	acq_USunple_CSunple1_noRW	acq23456_noRW	2	26	0	0	300	300	318	46	0	1	1	blank2r.bmp	0	1	+	0	1	blank2r.bmp	252	1	YFFY	306	1	krank	559	0	0	0	0	0	0	0	0	0	0	0	0	0	0	0	0	0	0	0	0	0	0	0	0	0	0	0	0	0	0	0	0	0	0	0	0	0	0	0
081419	14:22:16	14:27:16	299970	5.0.10.0	5_exp_noRW	100	Rpleas_acq	CS_A	CPPC	ZHHZ	YFFY	DXXD	JQQJ	LWWL	küssen	sonnig	vertrauen	träumen	gütig	genießen	krank	sterben	versagen	töten	gierig	gemein	47pct	acq_USunple_CSpleas1_noRW	acq23456_noRW	2	27	0	0	300	300	472	46	0	1	1	blank2r.bmp	0	1	+	0	1	blank2r.bmp	252	1	CPPC	306	2	sterben	559	0	0	0	0	0	0	0	0	0	0	0	0	0	0	0	0	0	0	0	0	0	0	0	0	0	0	0	0	0	0	0	0	0	0	0	0	0	0	0
081419	14:22:16	14:27:18	301569	5.0.10.0	5_exp_noRW	100	Rpleas_acq	CS_A	CPPC	ZHHZ	YFFY	DXXD	JQQJ	LWWL	küssen	sonnig	vertrauen	träumen	gütig	genießen	krank	sterben	versagen	töten	gierig	gemein	47pct	acq_USpleas_CSpleas2_noRW	acq23456_noRW	2	28	0	0	300	300	435	50	0	1	1	blank2r.bmp	0	1	+	0	1	blank2r.bmp	252	1	ZHHZ	306	2	gütig	559	0	0	0	0	0	0	0	0	0	0	0	0	0	0	0	0	0	0	0	0	0	0	0	0	0	0	0	0	0	0	0	0	0	0	0	0	0	0	0
081419	14:22:16	14:27:19	303195	5.0.10.0	5_exp_noRW	100	Rpleas_acq	CS_A	CPPC	ZHHZ	YFFY	DXXD	JQQJ	LWWL	küssen	sonnig	vertrauen	träumen	gütig	genießen	krank	sterben	versagen	töten	gierig	gemein	47pct	acq_USpleas_CSpleas2_noRW	acq23456_noRW	2	29	0	0	300	300	451	50	0	1	1	blank2r.bmp	0	1	+	0	1	blank2r.bmp	252	1	ZHHZ	306	1	träumen	559	0	0	0	0	0	0	0	0	0	0	0	0	0	0	0	0	0	0	0	0	0	0	0	0	0	0	0	0	0	0	0	0	0	0	0	0	0	0	0
081419	14:22:16	14:27:21	304861	5.0.10.0	5_exp_noRW	100	Rpleas_acq	CS_A	CPPC	ZHHZ	YFFY	DXXD	JQQJ	LWWL	küssen	sonnig	vertrauen	träumen	gütig	genießen	krank	sterben	versagen	töten	gierig	gemein	53pct	acq_USunple_CSunple1_noRW	acq23456_noRW	2	30	0	0	300	300	502	46	0	1	1	blank2r.bmp	0	1	+	0	1	blank2r.bmp	252	1	YFFY	306	3	versagen	559	0	0	0	0	0	0	0	0	0	0	0	0	0	0	0	0	0	0	0	0	0	0	0	0	0	0	0	0	0	0	0	0	0	0	0	0	0	0	0
081419	14:22:16	14:27:23	306474	5.0.10.0	5_exp_noRW	100	Rpleas_acq	CS_A	CPPC	ZHHZ	YFFY	DXXD	JQQJ	LWWL	küssen	sonnig	vertrauen	träumen	gütig	genießen	krank	sterben	versagen	töten	gierig	gemein	47pct	acq_USunple_CSunple1_noRW	acq23456_noRW	2	31	0	0	300	300	430	46	0	1	1	blank2r.bmp	0	1	+	0	1	blank2r.bmp	252	1	YFFY	306	2	sterben	559	0	0	0	0	0	0	0	0	0	0	0	0	0	0	0	0	0	0	0	0	0	0	0	0	0	0	0	0	0	0	0	0	0	0	0	0	0	0	0
081419	14:22:16	14:27:24	308113	5.0.10.0	5_exp_noRW	100	Rpleas_acq	CS_A	CPPC	ZHHZ	YFFY	DXXD	JQQJ	LWWL	küssen	sonnig	vertrauen	träumen	gütig	genießen	krank	sterben	versagen	töten	gierig	gemein	47pct	acq_USpleas_CSpleas1_noRW	acq23456_noRW	2	32	0	0	300	300	474	50	0	1	1	blank2r.bmp	0	1	+	0	1	blank2r.bmp	252	1	CPPC	306	1	küssen	559	0	0	0	0	0	0	0	0	0	0	0	0	0	0	0	0	0	0	0	0	0	0	0	0	0	0	0	0	0	0	0	0	0	0	0	0	0	0	0
081419	14:22:16	14:27:26	310006	5.0.10.0	5_exp_noRW	100	Rpleas_acq	CS_A	CPPC	ZHHZ	YFFY	DXXD	JQQJ	LWWL	küssen	sonnig	vertrauen	träumen	gütig	genießen	krank	sterben	versagen	töten	gierig	gemein	53pct	acq_USpleas_CSpleas1_noRW	acq23456_noRW	2	33	0	0	300	300	514	46	0	0	1	blank2r.bmp	0	1	+	0	1	blank2r.bmp	252	1	CPPC	306	3	vertrauen	559	1	FEHLER	1106	0	0	0	0	0	0	0	0	0	0	0	0	0	0	0	0	0	0	0	0	0	0	0	0	0	0	0	0	0	0	0	0	0	0	0	0
081419	14:22:16	14:27:28	311512	5.0.10.0	5_exp_noRW	100	Rpleas_acq	CS_A	CPPC	ZHHZ	YFFY	DXXD	JQQJ	LWWL	küssen	sonnig	vertrauen	träumen	gütig	genießen	krank	sterben	versagen	töten	gierig	gemein	47pct	acq_USunple_CSunple2_noRW	acq23456_noRW	2	34	0	0	300	300	543	46	0	1	1	blank2r.bmp	0	1	+	0	1	blank2r.bmp	252	1	DXXD	306	2	gierig	559	0	0	0	0	0	0	0	0	0	0	0	0	0	0	0	0	0	0	0	0	0	0	0	0	0	0	0	0	0	0	0	0	0	0	0	0	0	0	0
081419	14:22:16	14:27:30	313377	5.0.10.0	5_exp_noRW	100	Rpleas_acq	CS_A	CPPC	ZHHZ	YFFY	DXXD	JQQJ	LWWL	küssen	sonnig	vertrauen	träumen	gütig	genießen	krank	sterben	versagen	töten	gierig	gemein	53pct	acq_USunple_CSunple2_noRW	acq23456_noRW	2	35	0	0	300	300	676	46	0	1	1	blank2r.bmp	0	1	+	0	1	blank2r.bmp	252	1	DXXD	306	1	töten	559	0	0	0	0	0	0	0	0	0	0	0	0	0	0	0	0	0	0	0	0	0	0	0	0	0	0	0	0	0	0	0	0	0	0	0	0	0	0	0
081419	14:22:16	14:27:31	315030	5.0.10.0	5_exp_noRW	100	Rpleas_acq	CS_A	CPPC	ZHHZ	YFFY	DXXD	JQQJ	LWWL	küssen	sonnig	vertrauen	träumen	gütig	genießen	krank	sterben	versagen	töten	gierig	gemein	47pct	acq_USunple_CSpleas2_noRW	acq23456_noRW	2	36	0	0	300	300	472	46	0	1	1	blank2r.bmp	0	1	+	0	1	blank2r.bmp	252	1	ZHHZ	306	1	töten	559	0	0	0	0	0	0	0	0	0	0	0	0	0	0	0	0	0	0	0	0	0	0	0	0	0	0	0	0	0	0	0	0	0	0	0	0	0	0	0
081419	14:22:16	14:27:33	316696	5.0.10.0	5_exp_noRW	100	Rpleas_acq	CS_A	CPPC	ZHHZ	YFFY	DXXD	JQQJ	LWWL	küssen	sonnig	vertrauen	träumen	gütig	genießen	krank	sterben	versagen	töten	gierig	gemein	53pct	acq_USpleas_CSpleas1_noRW	acq23456_noRW	2	37	0	0	300	300	484	50	0	1	1	blank2r.bmp	0	1	+	0	1	blank2r.bmp	252	1	CPPC	306	2	sonnig	559	0	0	0	0	0	0	0	0	0	0	0	0	0	0	0	0	0	0	0	0	0	0	0	0	0	0	0	0	0	0	0	0	0	0	0	0	0	0	0
081419	14:22:16	14:27:35	318709	5.0.10.0	5_exp_noRW	100	Rpleas_acq	CS_A	CPPC	ZHHZ	YFFY	DXXD	JQQJ	LWWL	küssen	sonnig	vertrauen	träumen	gütig	genießen	krank	sterben	versagen	töten	gierig	gemein	47pct	acq_USunple_CSunple2_noRW	acq23456_noRW	2	38	0	0	300	300	849	46	0	1	1	blank2r.bmp	0	1	+	0	1	blank2r.bmp	252	1	DXXD	306	3	gemein	559	0	0	0	0	0	0	0	0	0	0	0	0	0	0	0	0	0	0	0	0	0	0	0	0	0	0	0	0	0	0	0	0	0	0	0	0	0	0	0
081419	14:22:16	14:27:37	320508	5.0.10.0	5_exp_noRW	100	Rpleas_acq	CS_A	CPPC	ZHHZ	YFFY	DXXD	JQQJ	LWWL	küssen	sonnig	vertrauen	träumen	gütig	genießen	krank	sterben	versagen	töten	gierig	gemein	53pct	acq_USpleas_CSunple2_noRW	acq23456_noRW	2	39	0	0	300	300	623	50	0	1	1	blank2r.bmp	0	1	+	0	1	blank2r.bmp	252	1	DXXD	306	2	gütig	559	0	0	0	0	0	0	0	0	0	0	0	0	0	0	0	0	0	0	0	0	0	0	0	0	0	0	0	0	0	0	0	0	0	0	0	0	0	0	0
081419	14:22:16	14:27:38	322214	5.0.10.0	5_exp_noRW	100	Rpleas_acq	CS_A	CPPC	ZHHZ	YFFY	DXXD	JQQJ	LWWL	küssen	sonnig	vertrauen	träumen	gütig	genießen	krank	sterben	versagen	töten	gierig	gemein	53pct	acq_USpleas_CSunple1_noRW	acq23456_noRW	2	40	0	0	300	300	526	50	0	1	1	blank2r.bmp	0	1	+	0	1	blank2r.bmp	252	1	YFFY	306	1	küssen	559	0	0	0	0	0	0	0	0	0	0	0	0	0	0	0	0	0	0	0	0	0	0	0	0	0	0	0	0	0	0	0	0	0	0	0	0	0	0	0
081419	14:22:16	14:27:40	323813	5.0.10.0	5_exp_noRW	100	Rpleas_acq	CS_A	CPPC	ZHHZ	YFFY	DXXD	JQQJ	LWWL	küssen	sonnig	vertrauen	träumen	gütig	genießen	krank	sterben	versagen	töten	gierig	gemein	47pct	acq_USpleas_CSpleas2_noRW	acq23456_noRW	2	41	0	0	300	300	433	50	0	1	1	blank2r.bmp	0	1	+	0	1	blank2r.bmp	252	1	ZHHZ	306	2	gütig	559	0	0	0	0	0	0	0	0	0	0	0	0	0	0	0	0	0	0	0	0	0	0	0	0	0	0	0	0	0	0	0	0	0	0	0	0	0	0	0
081419	14:22:16	14:27:42	325373	5.0.10.0	5_exp_noRW	100	Rpleas_acq	CS_A	CPPC	ZHHZ	YFFY	DXXD	JQQJ	LWWL	küssen	sonnig	vertrauen	träumen	gütig	genießen	krank	sterben	versagen	töten	gierig	gemein	47pct	acq_USunple_CSunple1_noRW	acq23456_noRW	2	42	0	0	300	300	376	46	0	1	1	blank2r.bmp	0	1	+	0	1	blank2r.bmp	252	1	YFFY	306	1	krank	559	0	0	0	0	0	0	0	0	0	0	0	0	0	0	0	0	0	0	0	0	0	0	0	0	0	0	0	0	0	0	0	0	0	0	0	0	0	0	0
081419	14:22:16	14:27:43	326932	5.0.10.0	5_exp_noRW	100	Rpleas_acq	CS_A	CPPC	ZHHZ	YFFY	DXXD	JQQJ	LWWL	küssen	sonnig	vertrauen	träumen	gütig	genießen	krank	sterben	versagen	töten	gierig	gemein	47pct	acq_USpleas_CSpleas2_noRW	acq23456_noRW	2	43	0	0	300	300	380	50	0	1	1	blank2r.bmp	0	1	+	0	1	blank2r.bmp	252	1	ZHHZ	306	1	träumen	559	0	0	0	0	0	0	0	0	0	0	0	0	0	0	0	0	0	0	0	0	0	0	0	0	0	0	0	0	0	0	0	0	0	0	0	0	0	0	0
081419	14:22:16	14:27:45	328505	5.0.10.0	5_exp_noRW	100	Rpleas_acq	CS_A	CPPC	ZHHZ	YFFY	DXXD	JQQJ	LWWL	küssen	sonnig	vertrauen	träumen	gütig	genießen	krank	sterben	versagen	töten	gierig	gemein	47pct	acq_USpleas_CSunple2_noRW	acq23456_noRW	2	44	0	0	300	300	388	50	0	1	1	blank2r.bmp	0	1	+	0	1	blank2r.bmp	252	1	DXXD	306	1	träumen	559	0	0	0	0	0	0	0	0	0	0	0	0	0	0	0	0	0	0	0	0	0	0	0	0	0	0	0	0	0	0	0	0	0	0	0	0	0	0	0
081419	14:22:16	14:27:46	330157	5.0.10.0	5_exp_noRW	100	Rpleas_acq	CS_A	CPPC	ZHHZ	YFFY	DXXD	JQQJ	LWWL	küssen	sonnig	vertrauen	träumen	gütig	genießen	krank	sterben	versagen	töten	gierig	gemein	53pct	acq_USunple_CSpleas2_noRW	acq23456_noRW	2	45	0	0	300	300	483	46	0	1	1	blank2r.bmp	0	1	+	0	1	blank2r.bmp	252	1	ZHHZ	306	2	gierig	559	0	0	0	0	0	0	0	0	0	0	0	0	0	0	0	0	0	0	0	0	0	0	0	0	0	0	0	0	0	0	0	0	0	0	0	0	0	0	0
081419	14:22:16	14:27:48	332116	5.0.10.0	5_exp_noRW	100	Rpleas_acq	CS_A	CPPC	ZHHZ	YFFY	DXXD	JQQJ	LWWL	küssen	sonnig	vertrauen	träumen	gütig	genießen	krank	sterben	versagen	töten	gierig	gemein	47pct	acq_USpleas_CSpleas1_noRW	acq23456_noRW	2	46	0	0	300	300	790	50	0	1	1	blank2r.bmp	0	1	+	0	1	blank2r.bmp	252	1	CPPC	306	3	vertrauen	559	0	0	0	0	0	0	0	0	0	0	0	0	0	0	0	0	0	0	0	0	0	0	0	0	0	0	0	0	0	0	0	0	0	0	0	0	0	0	0
081419	14:22:16	14:27:50	333916	5.0.10.0	5_exp_noRW	100	Rpleas_acq	CS_A	CPPC	ZHHZ	YFFY	DXXD	JQQJ	LWWL	küssen	sonnig	vertrauen	träumen	gütig	genießen	krank	sterben	versagen	töten	gierig	gemein	47pct	acq_USpleas_CSpleas2_noRW	acq23456_noRW	2	47	0	0	300	300	618	50	0	1	1	blank2r.bmp	0	1	+	0	1	blank2r.bmp	252	1	ZHHZ	306	3	genießen	559	0	0	0	0	0	0	0	0	0	0	0	0	0	0	0	0	0	0	0	0	0	0	0	0	0	0	0	0	0	0	0	0	0	0	0	0	0	0	0
081419	14:22:16	14:27:52	335582	5.0.10.0	5_exp_noRW	100	Rpleas_acq	CS_A	CPPC	ZHHZ	YFFY	DXXD	JQQJ	LWWL	küssen	sonnig	vertrauen	träumen	gütig	genießen	krank	sterben	versagen	töten	gierig	gemein	47pct	acq_USunple_CSunple1_noRW	acq23456_noRW	2	48	0	0	300	300	502	46	0	1	1	blank2r.bmp	0	1	+	0	1	blank2r.bmp	252	1	YFFY	306	2	sterben	559	0	0	0	0	0	0	0	0	0	0	0	0	0	0	0	0	0	0	0	0	0	0	0	0	0	0	0	0	0	0	0	0	0	0	0	0	0	0	0
081419	14:22:16	14:27:53	337221	5.0.10.0	5_exp_noRW	100	Rpleas_acq	CS_A	CPPC	ZHHZ	YFFY	DXXD	JQQJ	LWWL	küssen	sonnig	vertrauen	träumen	gütig	genießen	krank	sterben	versagen	töten	gierig	gemein	53pct	acq_USpleas_CSpleas1_noRW	acq23456_noRW	2	49	0	0	300	300	468	50	0	1	1	blank2r.bmp	0	1	+	0	1	blank2r.bmp	252	1	CPPC	306	2	sonnig	559	0	0	0	0	0	0	0	0	0	0	0	0	0	0	0	0	0	0	0	0	0	0	0	0	0	0	0	0	0	0	0	0	0	0	0	0	0	0	0
081419	14:22:16	14:27:55	338900	5.0.10.0	5_exp_noRW	100	Rpleas_acq	CS_A	CPPC	ZHHZ	YFFY	DXXD	JQQJ	LWWL	küssen	sonnig	vertrauen	träumen	gütig	genießen	krank	sterben	versagen	töten	gierig	gemein	53pct	acq_USunple_CSunple1_noRW	acq23456_noRW	2	50	0	0	300	300	507	46	0	1	1	blank2r.bmp	0	1	+	0	1	blank2r.bmp	252	1	YFFY	306	3	versagen	559	0	0	0	0	0	0	0	0	0	0	0	0	0	0	0	0	0	0	0	0	0	0	0	0	0	0	0	0	0	0	0	0	0	0	0	0	0	0	0
081419	14:22:16	14:27:57	340620	5.0.10.0	5_exp_noRW	100	Rpleas_acq	CS_A	CPPC	ZHHZ	YFFY	DXXD	JQQJ	LWWL	küssen	sonnig	vertrauen	träumen	gütig	genießen	krank	sterben	versagen	töten	gierig	gemein	53pct	acq_USunple_CSunple2_noRW	acq23456_noRW	2	51	0	0	300	300	538	46	0	1	1	blank2r.bmp	0	1	+	0	1	blank2r.bmp	252	1	DXXD	306	3	gemein	559	0	0	0	0	0	0	0	0	0	0	0	0	0	0	0	0	0	0	0	0	0	0	0	0	0	0	0	0	0	0	0	0	0	0	0	0	0	0	0
081419	14:22:16	14:27:59	342512	5.0.10.0	5_exp_noRW	100	Rpleas_acq	CS_A	CPPC	ZHHZ	YFFY	DXXD	JQQJ	LWWL	küssen	sonnig	vertrauen	träumen	gütig	genießen	krank	sterben	versagen	töten	gierig	gemein	53pct	acq_USpleas_CSpleas2_noRW	acq23456_noRW	2	52	0	0	300	300	718	50	0	1	1	blank2r.bmp	0	1	+	0	1	blank2r.bmp	252	1	ZHHZ	306	2	gütig	559	0	0	0	0	0	0	0	0	0	0	0	0	0	0	0	0	0	0	0	0	0	0	0	0	0	0	0	0	0	0	0	0	0	0	0	0	0	0	0
081419	14:22:16	14:28:00	344191	5.0.10.0	5_exp_noRW	100	Rpleas_acq	CS_A	CPPC	ZHHZ	YFFY	DXXD	JQQJ	LWWL	küssen	sonnig	vertrauen	träumen	gütig	genießen	krank	sterben	versagen	töten	gierig	gemein	47pct	acq_USpleas_CSunple1_noRW	acq23456_noRW	2	53	0	0	300	300	510	50	0	1	1	blank2r.bmp	0	1	+	0	1	blank2r.bmp	252	1	YFFY	306	2	sonnig	559	0	0	0	0	0	0	0	0	0	0	0	0	0	0	0	0	0	0	0	0	0	0	0	0	0	0	0	0	0	0	0	0	0	0	0	0	0	0	0
081419	14:22:16	14:28:02	345858	5.0.10.0	5_exp_noRW	100	Rpleas_acq	CS_A	CPPC	ZHHZ	YFFY	DXXD	JQQJ	LWWL	küssen	sonnig	vertrauen	träumen	gütig	genießen	krank	sterben	versagen	töten	gierig	gemein	47pct	acq_USunple_CSunple2_noRW	acq23456_noRW	2	54	0	0	300	300	501	46	0	1	1	blank2r.bmp	0	1	+	0	1	blank2r.bmp	252	1	DXXD	306	1	töten	559	0	0	0	0	0	0	0	0	0	0	0	0	0	0	0	0	0	0	0	0	0	0	0	0	0	0	0	0	0	0	0	0	0	0	0	0	0	0	0
081419	14:22:16	14:28:04	347817	5.0.10.0	5_exp_noRW	100	Rpleas_acq	CS_A	CPPC	ZHHZ	YFFY	DXXD	JQQJ	LWWL	küssen	sonnig	vertrauen	träumen	gütig	genießen	krank	sterben	versagen	töten	gierig	gemein	53pct	acq_USunple_CSunple2_noRW	acq23456_noRW	2	55	0	0	300	300	773	46	0	1	1	blank2r.bmp	0	1	+	0	1	blank2r.bmp	252	1	DXXD	306	2	gierig	559	0	0	0	0	0	0	0	0	0	0	0	0	0	0	0	0	0	0	0	0	0	0	0	0	0	0	0	0	0	0	0	0	0	0	0	0	0	0	0
081419	14:22:16	14:28:06	349643	5.0.10.0	5_exp_noRW	100	Rpleas_acq	CS_A	CPPC	ZHHZ	YFFY	DXXD	JQQJ	LWWL	küssen	sonnig	vertrauen	träumen	gütig	genießen	krank	sterben	versagen	töten	gierig	gemein	53pct	acq_USunple_CSpleas1_noRW	acq23456_noRW	2	56	0	0	300	300	658	46	0	1	1	blank2r.bmp	0	1	+	0	1	blank2r.bmp	252	1	CPPC	306	2	sterben	559	0	0	0	0	0	0	0	0	0	0	0	0	0	0	0	0	0	0	0	0	0	0	0	0	0	0	0	0	0	0	0	0	0	0	0	0	0	0	0
081419	14:22:16	14:28:08	351988	5.0.10.0	5_exp_noRW	100	Rpleas_acq	CS_A	CPPC	ZHHZ	YFFY	DXXD	JQQJ	LWWL	küssen	sonnig	vertrauen	träumen	gütig	genießen	krank	sterben	versagen	töten	gierig	gemein	53pct	acq_USunple_CSunple2_noRW	acq23456_noRW	2	57	0	0	300	300	1179	46	0	1	1	blank2r.bmp	0	1	+	0	1	blank2r.bmp	252	1	DXXD	306	1	töten	559	0	0	0	0	0	0	0	0	0	0	0	0	0	0	0	0	0	0	0	0	0	0	0	0	0	0	0	0	0	0	0	0	0	0	0	0	0	0	0
081419	14:22:16	14:28:10	353641	5.0.10.0	5_exp_noRW	100	Rpleas_acq	CS_A	CPPC	ZHHZ	YFFY	DXXD	JQQJ	LWWL	küssen	sonnig	vertrauen	träumen	gütig	genießen	krank	sterben	versagen	töten	gierig	gemein	53pct	acq_USunple_CSunple1_noRW	acq23456_noRW	2	58	0	0	300	300	474	46	0	1	1	blank2r.bmp	0	1	+	0	1	blank2r.bmp	252	1	YFFY	306	1	krank	559	0	0	0	0	0	0	0	0	0	0	0	0	0	0	0	0	0	0	0	0	0	0	0	0	0	0	0	0	0	0	0	0	0	0	0	0	0	0	0
081419	14:22:16	14:28:12	355920	5.0.10.0	5_exp_noRW	100	Rpleas_acq	CS_A	CPPC	ZHHZ	YFFY	DXXD	JQQJ	LWWL	küssen	sonnig	vertrauen	träumen	gütig	genießen	krank	sterben	versagen	töten	gierig	gemein	53pct	acq_USpleas_CSpleas1_noRW	acq23456_noRW	2	59	0	0	300	300	1096	50	0	1	1	blank2r.bmp	0	1	+	0	1	blank2r.bmp	252	1	CPPC	306	1	küssen	559	0	0	0	0	0	0	0	0	0	0	0	0	0	0	0	0	0	0	0	0	0	0	0	0	0	0	0	0	0	0	0	0	0	0	0	0	0	0	0
081419	14:22:16	14:28:14	357493	5.0.10.0	5_exp_noRW	100	Rpleas_acq	CS_A	CPPC	ZHHZ	YFFY	DXXD	JQQJ	LWWL	küssen	sonnig	vertrauen	träumen	gütig	genießen	krank	sterben	versagen	töten	gierig	gemein	53pct	acq_USpleas_CSpleas1_noRW	acq23456_noRW	2	60	0	0	300	300	387	50	0	1	1	blank2r.bmp	0	1	+	0	1	blank2r.bmp	252	1	CPPC	306	2	sonnig	559	0	0	0	0	0	0	0	0	0	0	0	0	0	0	0	0	0	0	0	0	0	0	0	0	0	0	0	0	0	0	0	0	0	0	0	0	0	0	0
081419	14:22:16	14:28:15	359185	5.0.10.0	5_exp_noRW	100	Rpleas_acq	CS_A	CPPC	ZHHZ	YFFY	DXXD	JQQJ	LWWL	küssen	sonnig	vertrauen	träumen	gütig	genießen	krank	sterben	versagen	töten	gierig	gemein	53pct	acq_USpleas_CSpleas2_noRW	acq23456_noRW	2	61	0	0	300	300	529	50	0	1	1	blank2r.bmp	0	1	+	0	1	blank2r.bmp	252	1	ZHHZ	306	3	genießen	559	0	0	0	0	0	0	0	0	0	0	0	0	0	0	0	0	0	0	0	0	0	0	0	0	0	0	0	0	0	0	0	0	0	0	0	0	0	0	0
081419	14:22:16	14:28:17	360785	5.0.10.0	5_exp_noRW	100	Rpleas_acq	CS_A	CPPC	ZHHZ	YFFY	DXXD	JQQJ	LWWL	küssen	sonnig	vertrauen	träumen	gütig	genießen	krank	sterben	versagen	töten	gierig	gemein	47pct	acq_USpleas_CSpleas1_noRW	acq23456_noRW	2	62	0	0	300	300	433	50	0	1	1	blank2r.bmp	0	1	+	0	1	blank2r.bmp	252	1	CPPC	306	1	küssen	559	0	0	0	0	0	0	0	0	0	0	0	0	0	0	0	0	0	0	0	0	0	0	0	0	0	0	0	0	0	0	0	0	0	0	0	0	0	0	0
081419	14:22:16	14:28:19	362437	5.0.10.0	5_exp_noRW	100	Rpleas_acq	CS_A	CPPC	ZHHZ	YFFY	DXXD	JQQJ	LWWL	küssen	sonnig	vertrauen	träumen	gütig	genießen	krank	sterben	versagen	töten	gierig	gemein	47pct	acq_USunple_CSpleas2_noRW	acq23456_noRW	2	63	0	0	300	300	471	46	0	1	1	blank2r.bmp	0	1	+	0	1	blank2r.bmp	252	1	ZHHZ	306	1	töten	559	0	0	0	0	0	0	0	0	0	0	0	0	0	0	0	0	0	0	0	0	0	0	0	0	0	0	0	0	0	0	0	0	0	0	0	0	0	0	0
081419	14:22:16	14:28:20	364130	5.0.10.0	5_exp_noRW	100	Rpleas_acq	CS_A	CPPC	ZHHZ	YFFY	DXXD	JQQJ	LWWL	küssen	sonnig	vertrauen	träumen	gütig	genießen	krank	sterben	versagen	töten	gierig	gemein	53pct	acq_USunple_CSunple2_noRW	acq23456_noRW	2	64	0	0	300	300	508	46	0	1	1	blank2r.bmp	0	1	+	0	1	blank2r.bmp	252	1	DXXD	306	2	gierig	559	0	0	0	0	0	0	0	0	0	0	0	0	0	0	0	0	0	0	0	0	0	0	0	0	0	0	0	0	0	0	0	0	0	0	0	0	0	0	0
081419	14:22:16	14:28:22	366036	5.0.10.0	5_exp_noRW	100	Rpleas_acq	CS_A	CPPC	ZHHZ	YFFY	DXXD	JQQJ	LWWL	küssen	sonnig	vertrauen	träumen	gütig	genießen	krank	sterben	versagen	töten	gierig	gemein	47pct	acq_USunple_CSunple1_noRW	acq23456_noRW	2	65	0	0	300	300	741	46	0	1	1	blank2r.bmp	0	1	+	0	1	blank2r.bmp	252	1	YFFY	306	3	versagen	559	0	0	0	0	0	0	0	0	0	0	0	0	0	0	0	0	0	0	0	0	0	0	0	0	0	0	0	0	0	0	0	0	0	0	0	0	0	0	0
081419	14:22:16	14:28:24	367689	5.0.10.0	5_exp_noRW	100	Rpleas_acq	CS_A	CPPC	ZHHZ	YFFY	DXXD	JQQJ	LWWL	küssen	sonnig	vertrauen	träumen	gütig	genießen	krank	sterben	versagen	töten	gierig	gemein	53pct	acq_USunple_CSunple2_noRW	acq23456_noRW	2	66	0	0	300	300	470	46	0	1	1	blank2r.bmp	0	1	+	0	1	blank2r.bmp	252	1	DXXD	306	3	gemein	559	0	0	0	0	0	0	0	0	0	0	0	0	0	0	0	0	0	0	0	0	0	0	0	0	0	0	0	0	0	0	0	0	0	0	0	0	0	0	0
081419	14:22:16	14:28:26	369421	5.0.10.0	5_exp_noRW	100	Rpleas_acq	CS_A	CPPC	ZHHZ	YFFY	DXXD	JQQJ	LWWL	küssen	sonnig	vertrauen	träumen	gütig	genießen	krank	sterben	versagen	töten	gierig	gemein	53pct	acq_USpleas_CSunple1_noRW	acq23456_noRW	2	67	0	0	300	300	558	50	0	1	1	blank2r.bmp	0	1	+	0	1	blank2r.bmp	252	1	YFFY	306	3	vertrauen	559	0	0	0	0	0	0	0	0	0	0	0	0	0	0	0	0	0	0	0	0	0	0	0	0	0	0	0	0	0	0	0	0	0	0	0	0	0	0	0
081419	14:22:16	14:28:27	371194	5.0.10.0	5_exp_noRW	100	Rpleas_acq	CS_A	CPPC	ZHHZ	YFFY	DXXD	JQQJ	LWWL	küssen	sonnig	vertrauen	träumen	gütig	genießen	krank	sterben	versagen	töten	gierig	gemein	53pct	acq_USpleas_CSpleas2_noRW	acq23456_noRW	2	68	0	0	300	300	608	50	0	1	1	blank2r.bmp	0	1	+	0	1	blank2r.bmp	252	1	ZHHZ	306	1	träumen	559	0	0	0	0	0	0	0	0	0	0	0	0	0	0	0	0	0	0	0	0	0	0	0	0	0	0	0	0	0	0	0	0	0	0	0	0	0	0	0
081419	14:22:16	14:28:30	373326	5.0.10.0	5_exp_noRW	100	Rpleas_acq	CS_A	CPPC	ZHHZ	YFFY	DXXD	JQQJ	LWWL	küssen	sonnig	vertrauen	träumen	gütig	genießen	krank	sterben	versagen	töten	gierig	gemein	47pct	acq_USpleas_CSpleas1_noRW	acq23456_noRW	2	69	0	0	300	300	955	50	0	1	1	blank2r.bmp	0	1	+	0	1	blank2r.bmp	252	1	CPPC	306	3	vertrauen	559	0	0	0	0	0	0	0	0	0	0	0	0	0	0	0	0	0	0	0	0	0	0	0	0	0	0	0	0	0	0	0	0	0	0	0	0	0	0	0
081419	14:22:16	14:28:31	374926	5.0.10.0	5_exp_noRW	100	Rpleas_acq	CS_A	CPPC	ZHHZ	YFFY	DXXD	JQQJ	LWWL	küssen	sonnig	vertrauen	träumen	gütig	genießen	krank	sterben	versagen	töten	gierig	gemein	47pct	acq_USunple_CSunple1_noRW	acq23456_noRW	2	70	0	0	300	300	419	46	0	1	1	blank2r.bmp	0	1	+	0	1	blank2r.bmp	252	1	YFFY	306	2	sterben	559	0	0	0	0	0	0	0	0	0	0	0	0	0	0	0	0	0	0	0	0	0	0	0	0	0	0	0	0	0	0	0	0	0	0	0	0	0	0	0
081419	14:22:16	14:28:33	376845	5.0.10.0	5_exp_noRW	100	Rpleas_acq	CS_A	CPPC	ZHHZ	YFFY	DXXD	JQQJ	LWWL	küssen	sonnig	vertrauen	träumen	gütig	genießen	krank	sterben	versagen	töten	gierig	gemein	53pct	acq_USunple_CSunple1_noRW	acq23456_noRW	2	71	0	0	300	300	747	46	0	1	1	blank2r.bmp	0	1	+	0	1	blank2r.bmp	252	1	YFFY	306	3	versagen	559	0	0	0	0	0	0	0	0	0	0	0	0	0	0	0	0	0	0	0	0	0	0	0	0	0	0	0	0	0	0	0	0	0	0	0	0	0	0	0
081419	14:22:16	14:28:35	379044	5.0.10.0	5_exp_noRW	100	Rpleas_acq	CS_A	CPPC	ZHHZ	YFFY	DXXD	JQQJ	LWWL	küssen	sonnig	vertrauen	träumen	gütig	genießen	krank	sterben	versagen	töten	gierig	gemein	53pct	acq_USpleas_CSpleas1_noRW	acq23456_noRW	2	72	0	0	300	300	1028	50	0	1	1	blank2r.bmp	0	1	+	0	1	blank2r.bmp	252	1	CPPC	306	1	küssen	559	0	0	0	0	0	0	0	0	0	0	0	0	0	0	0	0	0	0	0	0	0	0	0	0	0	0	0	0	0	0	0	0	0	0	0	0	0	0	0
081419	14:22:16	14:28:37	380697	5.0.10.0	5_exp_noRW	100	Rpleas_acq	CS_A	CPPC	ZHHZ	YFFY	DXXD	JQQJ	LWWL	küssen	sonnig	vertrauen	träumen	gütig	genießen	krank	sterben	versagen	töten	gierig	gemein	47pct	acq_USunple_CSunple2_noRW	acq23456_noRW	2	73	0	0	300	300	480	46	0	1	1	blank2r.bmp	0	1	+	0	1	blank2r.bmp	252	1	DXXD	306	3	gemein	559	0	0	0	0	0	0	0	0	0	0	0	0	0	0	0	0	0	0	0	0	0	0	0	0	0	0	0	0	0	0	0	0	0	0	0	0	0	0	0
081419	14:22:16	14:28:39	382616	5.0.10.0	5_exp_noRW	100	Rpleas_acq	CS_A	CPPC	ZHHZ	YFFY	DXXD	JQQJ	LWWL	küssen	sonnig	vertrauen	träumen	gütig	genießen	krank	sterben	versagen	töten	gierig	gemein	53pct	acq_USpleas_CSpleas2_noRW	acq23456_noRW	2	74	0	0	300	300	755	50	0	1	1	blank2r.bmp	0	1	+	0	1	blank2r.bmp	252	1	ZHHZ	306	2	gütig	559	0	0	0	0	0	0	0	0	0	0	0	0	0	0	0	0	0	0	0	0	0	0	0	0	0	0	0	0	0	0	0	0	0	0	0	0	0	0	0
081419	14:22:16	14:28:40	384255	5.0.10.0	5_exp_noRW	100	Rpleas_acq	CS_A	CPPC	ZHHZ	YFFY	DXXD	JQQJ	LWWL	küssen	sonnig	vertrauen	träumen	gütig	genießen	krank	sterben	versagen	töten	gierig	gemein	47pct	acq_USunple_CSunple2_noRW	acq23456_noRW	2	75	0	0	300	300	476	46	0	1	1	blank2r.bmp	0	1	+	0	1	blank2r.bmp	252	1	DXXD	306	1	töten	559	0	0	0	0	0	0	0	0	0	0	0	0	0	0	0	0	0	0	0	0	0	0	0	0	0	0	0	0	0	0	0	0	0	0	0	0	0	0	0
081419	14:22:16	14:28:42	385974	5.0.10.0	5_exp_noRW	100	Rpleas_acq	CS_A	CPPC	ZHHZ	YFFY	DXXD	JQQJ	LWWL	küssen	sonnig	vertrauen	träumen	gütig	genießen	krank	sterben	versagen	töten	gierig	gemein	47pct	acq_USunple_CSunple1_noRW	acq23456_noRW	2	76	0	0	300	300	534	46	0	1	1	blank2r.bmp	0	1	+	0	1	blank2r.bmp	252	1	YFFY	306	2	sterben	559	0	0	0	0	0	0	0	0	0	0	0	0	0	0	0	0	0	0	0	0	0	0	0	0	0	0	0	0	0	0	0	0	0	0	0	0	0	0	0
081419	14:22:16	14:28:44	387934	5.0.10.0	5_exp_noRW	100	Rpleas_acq	CS_A	CPPC	ZHHZ	YFFY	DXXD	JQQJ	LWWL	küssen	sonnig	vertrauen	träumen	gütig	genießen	krank	sterben	versagen	töten	gierig	gemein	47pct	acq_USunple_CSpleas1_noRW	acq23456_noRW	2	77	0	0	300	300	790	46	0	1	1	blank2r.bmp	0	1	+	0	1	blank2r.bmp	252	1	CPPC	306	1	krank	559	0	0	0	0	0	0	0	0	0	0	0	0	0	0	0	0	0	0	0	0	0	0	0	0	0	0	0	0	0	0	0	0	0	0	0	0	0	0	0
081419	14:22:16	14:28:46	389693	5.0.10.0	5_exp_noRW	100	Rpleas_acq	CS_A	CPPC	ZHHZ	YFFY	DXXD	JQQJ	LWWL	küssen	sonnig	vertrauen	träumen	gütig	genießen	krank	sterben	versagen	töten	gierig	gemein	47pct	acq_USpleas_CSpleas1_noRW	acq23456_noRW	2	78	0	0	300	300	597	50	0	1	1	blank2r.bmp	0	1	+	0	1	blank2r.bmp	252	1	CPPC	306	2	sonnig	559	0	0	0	0	0	0	0	0	0	0	0	0	0	0	0	0	0	0	0	0	0	0	0	0	0	0	0	0	0	0	0	0	0	0	0	0	0	0	0
081419	14:22:16	14:28:48	391452	5.0.10.0	5_exp_noRW	100	Rpleas_acq	CS_A	CPPC	ZHHZ	YFFY	DXXD	JQQJ	LWWL	küssen	sonnig	vertrauen	träumen	gütig	genießen	krank	sterben	versagen	töten	gierig	gemein	53pct	acq_USpleas_CSpleas2_noRW	acq23456_noRW	2	79	0	0	300	300	576	50	0	1	1	blank2r.bmp	0	1	+	0	1	blank2r.bmp	252	1	ZHHZ	306	1	träumen	559	0	0	0	0	0	0	0	0	0	0	0	0	0	0	0	0	0	0	0	0	0	0	0	0	0	0	0	0	0	0	0	0	0	0	0	0	0	0	0
081419	14:22:16	14:28:49	393278	5.0.10.0	5_exp_noRW	100	Rpleas_acq	CS_A	CPPC	ZHHZ	YFFY	DXXD	JQQJ	LWWL	küssen	sonnig	vertrauen	träumen	gütig	genießen	krank	sterben	versagen	töten	gierig	gemein	53pct	acq_USpleas_CSunple2_noRW	acq23456_noRW	2	80	0	0	300	300	638	50	0	1	1	blank2r.bmp	0	1	+	0	1	blank2r.bmp	252	1	DXXD	306	2	gütig	559	0	0	0	0	0	0	0	0	0	0	0	0	0	0	0	0	0	0	0	0	0	0	0	0	0	0	0	0	0	0	0	0	0	0	0	0	0	0	0
081419	14:22:16	14:28:58	401381	5.0.10.0	5_exp_noRW	100	Rpleas_acq	CS_A	CPPC	ZHHZ	YFFY	DXXD	JQQJ	LWWL	küssen	sonnig	vertrauen	träumen	gütig	genießen	krank	sterben	versagen	töten	gierig	gemein	47pct	acq_USunple_CSunple1_noRW	acq23456_noRW	3	1	0	0	300	300	444	46	0	1	1	blank2r.bmp	0	1	+	0	1	blank2r.bmp	252	1	YFFY	306	1	krank	559	0	0	0	0	0	0	0	0	0	0	0	0	0	0	0	0	0	0	0	0	0	0	0	0	0	0	0	0	0	0	0	0	0	0	0	0	0	0	0
081419	14:22:16	14:28:59	403114	5.0.10.0	5_exp_noRW	100	Rpleas_acq	CS_A	CPPC	ZHHZ	YFFY	DXXD	JQQJ	LWWL	küssen	sonnig	vertrauen	träumen	gütig	genießen	krank	sterben	versagen	töten	gierig	gemein	53pct	acq_USpleas_CSpleas2_noRW	acq23456_noRW	3	2	0	0	300	300	559	50	0	1	1	blank2r.bmp	0	1	+	0	1	blank2r.bmp	252	1	ZHHZ	306	3	genießen	559	0	0	0	0	0	0	0	0	0	0	0	0	0	0	0	0	0	0	0	0	0	0	0	0	0	0	0	0	0	0	0	0	0	0	0	0	0	0	0
081419	14:22:16	14:29:01	404727	5.0.10.0	5_exp_noRW	100	Rpleas_acq	CS_A	CPPC	ZHHZ	YFFY	DXXD	JQQJ	LWWL	küssen	sonnig	vertrauen	träumen	gütig	genießen	krank	sterben	versagen	töten	gierig	gemein	47pct	acq_USpleas_CSpleas2_noRW	acq23456_noRW	3	3	0	0	300	300	444	50	0	1	1	blank2r.bmp	0	1	+	0	1	blank2r.bmp	252	1	ZHHZ	306	2	gütig	559	0	0	0	0	0	0	0	0	0	0	0	0	0	0	0	0	0	0	0	0	0	0	0	0	0	0	0	0	0	0	0	0	0	0	0	0	0	0	0
081419	14:22:16	14:29:03	406433	5.0.10.0	5_exp_noRW	100	Rpleas_acq	CS_A	CPPC	ZHHZ	YFFY	DXXD	JQQJ	LWWL	küssen	sonnig	vertrauen	träumen	gütig	genießen	krank	sterben	versagen	töten	gierig	gemein	53pct	acq_USunple_CSunple1_noRW	acq23456_noRW	3	4	0	0	300	300	544	46	0	1	1	blank2r.bmp	0	1	+	0	1	blank2r.bmp	252	1	YFFY	306	3	versagen	559	0	0	0	0	0	0	0	0	0	0	0	0	0	0	0	0	0	0	0	0	0	0	0	0	0	0	0	0	0	0	0	0	0	0	0	0	0	0	0
081419	14:22:16	14:29:04	408125	5.0.10.0	5_exp_noRW	100	Rpleas_acq	CS_A	CPPC	ZHHZ	YFFY	DXXD	JQQJ	LWWL	küssen	sonnig	vertrauen	träumen	gütig	genießen	krank	sterben	versagen	töten	gierig	gemein	53pct	acq_USpleas_CSunple2_noRW	acq23456_noRW	3	5	0	0	300	300	518	50	0	1	1	blank2r.bmp	0	1	+	0	1	blank2r.bmp	252	1	DXXD	306	3	genießen	559	0	0	0	0	0	0	0	0	0	0	0	0	0	0	0	0	0	0	0	0	0	0	0	0	0	0	0	0	0	0	0	0	0	0	0	0	0	0	0
081419	14:22:16	14:29:06	409978	5.0.10.0	5_exp_noRW	100	Rpleas_acq	CS_A	CPPC	ZHHZ	YFFY	DXXD	JQQJ	LWWL	küssen	sonnig	vertrauen	träumen	gütig	genießen	krank	sterben	versagen	töten	gierig	gemein	53pct	acq_USpleas_CSpleas1_noRW	acq23456_noRW	3	6	0	0	300	300	665	50	0	1	1	blank2r.bmp	0	1	+	0	1	blank2r.bmp	252	1	CPPC	306	3	vertrauen	559	0	0	0	0	0	0	0	0	0	0	0	0	0	0	0	0	0	0	0	0	0	0	0	0	0	0	0	0	0	0	0	0	0	0	0	0	0	0	0
081419	14:22:16	14:29:08	411711	5.0.10.0	5_exp_noRW	100	Rpleas_acq	CS_A	CPPC	ZHHZ	YFFY	DXXD	JQQJ	LWWL	küssen	sonnig	vertrauen	träumen	gütig	genießen	krank	sterben	versagen	töten	gierig	gemein	47pct	acq_USpleas_CSpleas2_noRW	acq23456_noRW	3	7	0	0	300	300	567	50	0	1	1	blank2r.bmp	0	1	+	0	1	blank2r.bmp	252	1	ZHHZ	306	3	genießen	559	0	0	0	0	0	0	0	0	0	0	0	0	0	0	0	0	0	0	0	0	0	0	0	0	0	0	0	0	0	0	0	0	0	0	0	0	0	0	0
081419	14:22:16	14:29:10	413310	5.0.10.0	5_exp_noRW	100	Rpleas_acq	CS_A	CPPC	ZHHZ	YFFY	DXXD	JQQJ	LWWL	küssen	sonnig	vertrauen	träumen	gütig	genießen	krank	sterben	versagen	töten	gierig	gemein	53pct	acq_USpleas_CSpleas2_noRW	acq23456_noRW	3	8	0	0	300	300	432	50	0	1	1	blank2r.bmp	0	1	+	0	1	blank2r.bmp	252	1	ZHHZ	306	1	träumen	559	0	0	0	0	0	0	0	0	0	0	0	0	0	0	0	0	0	0	0	0	0	0	0	0	0	0	0	0	0	0	0	0	0	0	0	0	0	0	0
081419	14:22:16	14:29:12	415296	5.0.10.0	5_exp_noRW	100	Rpleas_acq	CS_A	CPPC	ZHHZ	YFFY	DXXD	JQQJ	LWWL	küssen	sonnig	vertrauen	träumen	gütig	genießen	krank	sterben	versagen	töten	gierig	gemein	47pct	acq_USunple_CSunple2_noRW	acq23456_noRW	3	9	0	0	300	300	808	46	0	1	1	blank2r.bmp	0	1	+	0	1	blank2r.bmp	252	1	DXXD	306	2	gierig	559	0	0	0	0	0	0	0	0	0	0	0	0	0	0	0	0	0	0	0	0	0	0	0	0	0	0	0	0	0	0	0	0	0	0	0	0	0	0	0
081419	14:22:16	14:29:13	417015	5.0.10.0	5_exp_noRW	100	Rpleas_acq	CS_A	CPPC	ZHHZ	YFFY	DXXD	JQQJ	LWWL	küssen	sonnig	vertrauen	träumen	gütig	genießen	krank	sterben	versagen	töten	gierig	gemein	47pct	acq_USpleas_CSpleas1_noRW	acq23456_noRW	3	10	0	0	300	300	547	50	0	1	1	blank2r.bmp	0	1	+	0	1	blank2r.bmp	252	1	CPPC	306	3	vertrauen	559	0	0	0	0	0	0	0	0	0	0	0	0	0	0	0	0	0	0	0	0	0	0	0	0	0	0	0	0	0	0	0	0	0	0	0	0	0	0	0
081419	14:22:16	14:29:15	418721	5.0.10.0	5_exp_noRW	100	Rpleas_acq	CS_A	CPPC	ZHHZ	YFFY	DXXD	JQQJ	LWWL	küssen	sonnig	vertrauen	träumen	gütig	genießen	krank	sterben	versagen	töten	gierig	gemein	53pct	acq_USpleas_CSunple1_noRW	acq23456_noRW	3	11	0	0	300	300	545	50	0	1	1	blank2r.bmp	0	1	+	0	1	blank2r.bmp	252	1	YFFY	306	1	küssen	559	0	0	0	0	0	0	0	0	0	0	0	0	0	0	0	0	0	0	0	0	0	0	0	0	0	0	0	0	0	0	0	0	0	0	0	0	0	0	0
081419	14:22:16	14:29:17	420440	5.0.10.0	5_exp_noRW	100	Rpleas_acq	CS_A	CPPC	ZHHZ	YFFY	DXXD	JQQJ	LWWL	küssen	sonnig	vertrauen	träumen	gütig	genießen	krank	sterben	versagen	töten	gierig	gemein	53pct	acq_USunple_CSpleas2_noRW	acq23456_noRW	3	12	0	0	300	300	533	46	0	1	1	blank2r.bmp	0	1	+	0	1	blank2r.bmp	252	1	ZHHZ	306	3	gemein	559	0	0	0	0	0	0	0	0	0	0	0	0	0	0	0	0	0	0	0	0	0	0	0	0	0	0	0	0	0	0	0	0	0	0	0	0	0	0	0
081419	14:22:16	14:29:18	422026	5.0.10.0	5_exp_noRW	100	Rpleas_acq	CS_A	CPPC	ZHHZ	YFFY	DXXD	JQQJ	LWWL	küssen	sonnig	vertrauen	träumen	gütig	genießen	krank	sterben	versagen	töten	gierig	gemein	47pct	acq_USpleas_CSpleas1_noRW	acq23456_noRW	3	13	0	0	300	300	398	50	0	1	1	blank2r.bmp	0	1	+	0	1	blank2r.bmp	252	1	CPPC	306	1	küssen	559	0	0	0	0	0	0	0	0	0	0	0	0	0	0	0	0	0	0	0	0	0	0	0	0	0	0	0	0	0	0	0	0	0	0	0	0	0	0	0
081419	14:22:16	14:29:20	423719	5.0.10.0	5_exp_noRW	100	Rpleas_acq	CS_A	CPPC	ZHHZ	YFFY	DXXD	JQQJ	LWWL	küssen	sonnig	vertrauen	träumen	gütig	genießen	krank	sterben	versagen	töten	gierig	gemein	53pct	acq_USunple_CSpleas1_noRW	acq23456_noRW	3	14	0	0	300	300	526	46	0	1	1	blank2r.bmp	0	1	+	0	1	blank2r.bmp	252	1	CPPC	306	3	versagen	559	0	0	0	0	0	0	0	0	0	0	0	0	0	0	0	0	0	0	0	0	0	0	0	0	0	0	0	0	0	0	0	0	0	0	0	0	0	0	0
081419	14:22:16	14:29:22	425398	5.0.10.0	5_exp_noRW	100	Rpleas_acq	CS_A	CPPC	ZHHZ	YFFY	DXXD	JQQJ	LWWL	küssen	sonnig	vertrauen	träumen	gütig	genießen	krank	sterben	versagen	töten	gierig	gemein	47pct	acq_USunple_CSunple2_noRW	acq23456_noRW	3	15	0	0	300	300	496	46	0	1	1	blank2r.bmp	0	1	+	0	1	blank2r.bmp	252	1	DXXD	306	3	gemein	559	0	0	0	0	0	0	0	0	0	0	0	0	0	0	0	0	0	0	0	0	0	0	0	0	0	0	0	0	0	0	0	0	0	0	0	0	0	0	0
081419	14:22:16	14:29:24	427291	5.0.10.0	5_exp_noRW	100	Rpleas_acq	CS_A	CPPC	ZHHZ	YFFY	DXXD	JQQJ	LWWL	küssen	sonnig	vertrauen	träumen	gütig	genießen	krank	sterben	versagen	töten	gierig	gemein	53pct	acq_USunple_CSunple2_noRW	acq23456_noRW	3	16	0	0	300	300	720	46	0	1	1	blank2r.bmp	0	1	+	0	1	blank2r.bmp	252	1	DXXD	306	1	töten	559	0	0	0	0	0	0	0	0	0	0	0	0	0	0	0	0	0	0	0	0	0	0	0	0	0	0	0	0	0	0	0	0	0	0	0	0	0	0	0
081419	14:22:16	14:29:25	429010	5.0.10.0	5_exp_noRW	100	Rpleas_acq	CS_A	CPPC	ZHHZ	YFFY	DXXD	JQQJ	LWWL	küssen	sonnig	vertrauen	träumen	gütig	genießen	krank	sterben	versagen	töten	gierig	gemein	47pct	acq_USunple_CSunple2_noRW	acq23456_noRW	3	17	0	0	300	300	537	46	0	1	1	blank2r.bmp	0	1	+	0	1	blank2r.bmp	252	1	DXXD	306	2	gierig	559	0	0	0	0	0	0	0	0	0	0	0	0	0	0	0	0	0	0	0	0	0	0	0	0	0	0	0	0	0	0	0	0	0	0	0	0	0	0	0
081419	14:22:16	14:29:27	430596	5.0.10.0	5_exp_noRW	100	Rpleas_acq	CS_A	CPPC	ZHHZ	YFFY	DXXD	JQQJ	LWWL	küssen	sonnig	vertrauen	träumen	gütig	genießen	krank	sterben	versagen	töten	gierig	gemein	53pct	acq_USpleas_CSpleas1_noRW	acq23456_noRW	3	18	0	0	300	300	418	50	0	1	1	blank2r.bmp	0	1	+	0	1	blank2r.bmp	252	1	CPPC	306	2	sonnig	559	0	0	0	0	0	0	0	0	0	0	0	0	0	0	0	0	0	0	0	0	0	0	0	0	0	0	0	0	0	0	0	0	0	0	0	0	0	0	0
081419	14:22:16	14:29:28	432262	5.0.10.0	5_exp_noRW	100	Rpleas_acq	CS_A	CPPC	ZHHZ	YFFY	DXXD	JQQJ	LWWL	küssen	sonnig	vertrauen	träumen	gütig	genießen	krank	sterben	versagen	töten	gierig	gemein	47pct	acq_USunple_CSunple1_noRW	acq23456_noRW	3	19	0	0	300	300	489	46	0	1	1	blank2r.bmp	0	1	+	0	1	blank2r.bmp	252	1	YFFY	306	2	sterben	559	0	0	0	0	0	0	0	0	0	0	0	0	0	0	0	0	0	0	0	0	0	0	0	0	0	0	0	0	0	0	0	0	0	0	0	0	0	0	0
081419	14:22:16	14:29:30	433955	5.0.10.0	5_exp_noRW	100	Rpleas_acq	CS_A	CPPC	ZHHZ	YFFY	DXXD	JQQJ	LWWL	küssen	sonnig	vertrauen	träumen	gütig	genießen	krank	sterben	versagen	töten	gierig	gemein	47pct	acq_USunple_CSunple1_noRW	acq23456_noRW	3	20	0	0	300	300	510	46	0	1	1	blank2r.bmp	0	1	+	0	1	blank2r.bmp	252	1	YFFY	306	1	krank	559	0	0	0	0	0	0	0	0	0	0	0	0	0	0	0	0	0	0	0	0	0	0	0	0	0	0	0	0	0	0	0	0	0	0	0	0	0	0	0
081419	14:22:16	14:29:32	435594	5.0.10.0	5_exp_noRW	100	Rpleas_acq	CS_A	CPPC	ZHHZ	YFFY	DXXD	JQQJ	LWWL	küssen	sonnig	vertrauen	träumen	gütig	genießen	krank	sterben	versagen	töten	gierig	gemein	47pct	acq_USunple_CSunple2_noRW	acq23456_noRW	3	21	0	0	300	300	474	46	0	1	1	blank2r.bmp	0	1	+	0	1	blank2r.bmp	252	1	DXXD	306	1	töten	559	0	0	0	0	0	0	0	0	0	0	0	0	0	0	0	0	0	0	0	0	0	0	0	0	0	0	0	0	0	0	0	0	0	0	0	0	0	0	0
081419	14:22:16	14:29:34	437313	5.0.10.0	5_exp_noRW	100	Rpleas_acq	CS_A	CPPC	ZHHZ	YFFY	DXXD	JQQJ	LWWL	küssen	sonnig	vertrauen	träumen	gütig	genießen	krank	sterben	versagen	töten	gierig	gemein	53pct	acq_USunple_CSunple1_noRW	acq23456_noRW	3	22	0	0	300	300	552	46	0	1	1	blank2r.bmp	0	1	+	0	1	blank2r.bmp	252	1	YFFY	306	1	krank	559	0	0	0	0	0	0	0	0	0	0	0	0	0	0	0	0	0	0	0	0	0	0	0	0	0	0	0	0	0	0	0	0	0	0	0	0	0	0	0
081419	14:22:16	14:29:35	438886	5.0.10.0	5_exp_noRW	100	Rpleas_acq	CS_A	CPPC	ZHHZ	YFFY	DXXD	JQQJ	LWWL	küssen	sonnig	vertrauen	träumen	gütig	genießen	krank	sterben	versagen	töten	gierig	gemein	53pct	acq_USpleas_CSpleas2_noRW	acq23456_noRW	3	23	0	0	300	300	391	50	0	1	1	blank2r.bmp	0	1	+	0	1	blank2r.bmp	252	1	ZHHZ	306	1	träumen	559	0	0	0	0	0	0	0	0	0	0	0	0	0	0	0	0	0	0	0	0	0	0	0	0	0	0	0	0	0	0	0	0	0	0	0	0	0	0	0
081419	14:22:16	14:29:37	440525	5.0.10.0	5_exp_noRW	100	Rpleas_acq	CS_A	CPPC	ZHHZ	YFFY	DXXD	JQQJ	LWWL	küssen	sonnig	vertrauen	träumen	gütig	genießen	krank	sterben	versagen	töten	gierig	gemein	53pct	acq_USpleas_CSunple1_noRW	acq23456_noRW	3	24	0	0	300	300	465	50	0	1	1	blank2r.bmp	0	1	+	0	1	blank2r.bmp	252	1	YFFY	306	2	sonnig	559	0	0	0	0	0	0	0	0	0	0	0	0	0	0	0	0	0	0	0	0	0	0	0	0	0	0	0	0	0	0	0	0	0	0	0	0	0	0	0
081419	14:22:16	14:29:38	442271	5.0.10.0	5_exp_noRW	100	Rpleas_acq	CS_A	CPPC	ZHHZ	YFFY	DXXD	JQQJ	LWWL	küssen	sonnig	vertrauen	träumen	gütig	genießen	krank	sterben	versagen	töten	gierig	gemein	47pct	acq_USunple_CSunple2_noRW	acq23456_noRW	3	25	0	0	300	300	574	46	0	1	1	blank2r.bmp	0	1	+	0	1	blank2r.bmp	252	1	DXXD	306	2	gierig	559	0	0	0	0	0	0	0	0	0	0	0	0	0	0	0	0	0	0	0	0	0	0	0	0	0	0	0	0	0	0	0	0	0	0	0	0	0	0	0
081419	14:22:16	14:29:40	443884	5.0.10.0	5_exp_noRW	100	Rpleas_acq	CS_A	CPPC	ZHHZ	YFFY	DXXD	JQQJ	LWWL	küssen	sonnig	vertrauen	träumen	gütig	genießen	krank	sterben	versagen	töten	gierig	gemein	53pct	acq_USunple_CSunple1_noRW	acq23456_noRW	3	26	0	0	300	300	443	46	0	1	1	blank2r.bmp	0	1	+	0	1	blank2r.bmp	252	1	YFFY	306	3	versagen	559	0	0	0	0	0	0	0	0	0	0	0	0	0	0	0	0	0	0	0	0	0	0	0	0	0	0	0	0	0	0	0	0	0	0	0	0	0	0	0
081419	14:22:16	14:29:42	445817	5.0.10.0	5_exp_noRW	100	Rpleas_acq	CS_A	CPPC	ZHHZ	YFFY	DXXD	JQQJ	LWWL	küssen	sonnig	vertrauen	träumen	gütig	genießen	krank	sterben	versagen	töten	gierig	gemein	53pct	acq_USunple_CSunple2_noRW	acq23456_noRW	3	27	0	0	300	300	756	46	0	1	1	blank2r.bmp	0	1	+	0	1	blank2r.bmp	252	1	DXXD	306	3	gemein	559	0	0	0	0	0	0	0	0	0	0	0	0	0	0	0	0	0	0	0	0	0	0	0	0	0	0	0	0	0	0	0	0	0	0	0	0	0	0	0
081419	14:22:16	14:29:44	447549	5.0.10.0	5_exp_noRW	100	Rpleas_acq	CS_A	CPPC	ZHHZ	YFFY	DXXD	JQQJ	LWWL	küssen	sonnig	vertrauen	träumen	gütig	genießen	krank	sterben	versagen	töten	gierig	gemein	53pct	acq_USpleas_CSunple2_noRW	acq23456_noRW	3	28	0	0	300	300	550	50	0	1	1	blank2r.bmp	0	1	+	0	1	blank2r.bmp	252	1	DXXD	306	1	träumen	559	0	0	0	0	0	0	0	0	0	0	0	0	0	0	0	0	0	0	0	0	0	0	0	0	0	0	0	0	0	0	0	0	0	0	0	0	0	0	0
081419	14:22:16	14:29:46	449548	5.0.10.0	5_exp_noRW	100	Rpleas_acq	CS_A	CPPC	ZHHZ	YFFY	DXXD	JQQJ	LWWL	küssen	sonnig	vertrauen	träumen	gütig	genießen	krank	sterben	versagen	töten	gierig	gemein	47pct	acq_USpleas_CSpleas1_noRW	acq23456_noRW	3	29	0	0	300	300	812	50	0	1	1	blank2r.bmp	0	1	+	0	1	blank2r.bmp	252	1	CPPC	306	3	vertrauen	559	0	0	0	0	0	0	0	0	0	0	0	0	0	0	0	0	0	0	0	0	0	0	0	0	0	0	0	0	0	0	0	0	0	0	0	0	0	0	0
081419	14:22:16	14:29:47	451108	5.0.10.0	5_exp_noRW	100	Rpleas_acq	CS_A	CPPC	ZHHZ	YFFY	DXXD	JQQJ	LWWL	küssen	sonnig	vertrauen	träumen	gütig	genießen	krank	sterben	versagen	töten	gierig	gemein	53pct	acq_USpleas_CSpleas1_noRW	acq23456_noRW	3	30	0	0	300	300	396	50	0	1	1	blank2r.bmp	0	1	+	0	1	blank2r.bmp	252	1	CPPC	306	1	küssen	559	0	0	0	0	0	0	0	0	0	0	0	0	0	0	0	0	0	0	0	0	0	0	0	0	0	0	0	0	0	0	0	0	0	0	0	0	0	0	0
081419	14:22:16	14:29:49	452934	5.0.10.0	5_exp_noRW	100	Rpleas_acq	CS_A	CPPC	ZHHZ	YFFY	DXXD	JQQJ	LWWL	küssen	sonnig	vertrauen	träumen	gütig	genießen	krank	sterben	versagen	töten	gierig	gemein	47pct	acq_USunple_CSunple1_noRW	acq23456_noRW	3	31	0	0	300	300	639	46	0	1	1	blank2r.bmp	0	1	+	0	1	blank2r.bmp	252	1	YFFY	306	2	sterben	559	0	0	0	0	0	0	0	0	0	0	0	0	0	0	0	0	0	0	0	0	0	0	0	0	0	0	0	0	0	0	0	0	0	0	0	0	0	0	0
081419	14:22:16	14:29:51	454600	5.0.10.0	5_exp_noRW	100	Rpleas_acq	CS_A	CPPC	ZHHZ	YFFY	DXXD	JQQJ	LWWL	küssen	sonnig	vertrauen	träumen	gütig	genießen	krank	sterben	versagen	töten	gierig	gemein	47pct	acq_USpleas_CSpleas1_noRW	acq23456_noRW	3	32	0	0	300	300	502	50	0	1	1	blank2r.bmp	0	1	+	0	1	blank2r.bmp	252	1	CPPC	306	2	sonnig	559	0	0	0	0	0	0	0	0	0	0	0	0	0	0	0	0	0	0	0	0	0	0	0	0	0	0	0	0	0	0	0	0	0	0	0	0	0	0	0
081419	14:22:16	14:29:53	456426	5.0.10.0	5_exp_noRW	100	Rpleas_acq	CS_A	CPPC	ZHHZ	YFFY	DXXD	JQQJ	LWWL	küssen	sonnig	vertrauen	träumen	gütig	genießen	krank	sterben	versagen	töten	gierig	gemein	47pct	acq_USpleas_CSpleas2_noRW	acq23456_noRW	3	33	0	0	300	300	644	50	0	1	1	blank2r.bmp	0	1	+	0	1	blank2r.bmp	252	1	ZHHZ	306	3	genießen	559	0	0	0	0	0	0	0	0	0	0	0	0	0	0	0	0	0	0	0	0	0	0	0	0	0	0	0	0	0	0	0	0	0	0	0	0	0	0	0
081419	14:22:16	14:29:54	458145	5.0.10.0	5_exp_noRW	100	Rpleas_acq	CS_A	CPPC	ZHHZ	YFFY	DXXD	JQQJ	LWWL	küssen	sonnig	vertrauen	träumen	gütig	genießen	krank	sterben	versagen	töten	gierig	gemein	47pct	acq_USunple_CSpleas1_noRW	acq23456_noRW	3	34	0	0	300	300	538	46	0	1	1	blank2r.bmp	0	1	+	0	1	blank2r.bmp	252	1	CPPC	306	3	versagen	559	0	0	0	0	0	0	0	0	0	0	0	0	0	0	0	0	0	0	0	0	0	0	0	0	0	0	0	0	0	0	0	0	0	0	0	0	0	0	0
081419	14:22:16	14:29:57	460544	5.0.10.0	5_exp_noRW	100	Rpleas_acq	CS_A	CPPC	ZHHZ	YFFY	DXXD	JQQJ	LWWL	küssen	sonnig	vertrauen	träumen	gütig	genießen	krank	sterben	versagen	töten	gierig	gemein	47pct	acq_USpleas_CSpleas2_noRW	acq23456_noRW	3	35	0	0	300	300	1222	50	0	1	1	blank2r.bmp	0	1	+	0	1	blank2r.bmp	252	1	ZHHZ	306	2	gütig	559	0	0	0	0	0	0	0	0	0	0	0	0	0	0	0	0	0	0	0	0	0	0	0	0	0	0	0	0	0	0	0	0	0	0	0	0	0	0	0
081419	14:22:16	14:29:58	462183	5.0.10.0	5_exp_noRW	100	Rpleas_acq	CS_A	CPPC	ZHHZ	YFFY	DXXD	JQQJ	LWWL	küssen	sonnig	vertrauen	träumen	gütig	genießen	krank	sterben	versagen	töten	gierig	gemein	53pct	acq_USpleas_CSpleas1_noRW	acq23456_noRW	3	36	0	0	300	300	454	50	0	1	1	blank2r.bmp	0	1	+	0	1	blank2r.bmp	252	1	CPPC	306	3	vertrauen	559	0	0	0	0	0	0	0	0	0	0	0	0	0	0	0	0	0	0	0	0	0	0	0	0	0	0	0	0	0	0	0	0	0	0	0	0	0	0	0
081419	14:22:16	14:30:00	463782	5.0.10.0	5_exp_noRW	100	Rpleas_acq	CS_A	CPPC	ZHHZ	YFFY	DXXD	JQQJ	LWWL	küssen	sonnig	vertrauen	träumen	gütig	genießen	krank	sterben	versagen	töten	gierig	gemein	53pct	acq_USunple_CSpleas2_noRW	acq23456_noRW	3	37	0	0	300	300	426	46	0	1	1	blank2r.bmp	0	1	+	0	1	blank2r.bmp	252	1	ZHHZ	306	1	töten	559	0	0	0	0	0	0	0	0	0	0	0	0	0	0	0	0	0	0	0	0	0	0	0	0	0	0	0	0	0	0	0	0	0	0	0	0	0	0	0
081419	14:22:16	14:30:02	465462	5.0.10.0	5_exp_noRW	100	Rpleas_acq	CS_A	CPPC	ZHHZ	YFFY	DXXD	JQQJ	LWWL	küssen	sonnig	vertrauen	träumen	gütig	genießen	krank	sterben	versagen	töten	gierig	gemein	53pct	acq_USunple_CSunple2_noRW	acq23456_noRW	3	38	0	0	300	300	516	46	0	1	1	blank2r.bmp	0	1	+	0	1	blank2r.bmp	252	1	DXXD	306	3	gemein	559	0	0	0	0	0	0	0	0	0	0	0	0	0	0	0	0	0	0	0	0	0	0	0	0	0	0	0	0	0	0	0	0	0	0	0	0	0	0	0
081419	14:22:16	14:30:03	467114	5.0.10.0	5_exp_noRW	100	Rpleas_acq	CS_A	CPPC	ZHHZ	YFFY	DXXD	JQQJ	LWWL	küssen	sonnig	vertrauen	träumen	gütig	genießen	krank	sterben	versagen	töten	gierig	gemein	47pct	acq_USunple_CSunple1_noRW	acq23456_noRW	3	39	0	0	300	300	474	46	0	1	1	blank2r.bmp	0	1	+	0	1	blank2r.bmp	252	1	YFFY	306	1	krank	559	0	0	0	0	0	0	0	0	0	0	0	0	0	0	0	0	0	0	0	0	0	0	0	0	0	0	0	0	0	0	0	0	0	0	0	0	0	0	0
081419	14:22:16	14:30:05	468847	5.0.10.0	5_exp_noRW	100	Rpleas_acq	CS_A	CPPC	ZHHZ	YFFY	DXXD	JQQJ	LWWL	küssen	sonnig	vertrauen	träumen	gütig	genießen	krank	sterben	versagen	töten	gierig	gemein	47pct	acq_USpleas_CSpleas2_noRW	acq23456_noRW	3	40	0	0	300	300	554	50	0	1	1	blank2r.bmp	0	1	+	0	1	blank2r.bmp	252	1	ZHHZ	306	3	genießen	559	0	0	0	0	0	0	0	0	0	0	0	0	0	0	0	0	0	0	0	0	0	0	0	0	0	0	0	0	0	0	0	0	0	0	0	0	0	0	0
081419	14:22:16	14:30:07	470566	5.0.10.0	5_exp_noRW	100	Rpleas_acq	CS_A	CPPC	ZHHZ	YFFY	DXXD	JQQJ	LWWL	küssen	sonnig	vertrauen	träumen	gütig	genießen	krank	sterben	versagen	töten	gierig	gemein	53pct	acq_USunple_CSunple1_noRW	acq23456_noRW	3	41	0	0	300	300	535	46	0	1	1	blank2r.bmp	0	1	+	0	1	blank2r.bmp	252	1	YFFY	306	3	versagen	559	0	0	0	0	0	0	0	0	0	0	0	0	0	0	0	0	0	0	0	0	0	0	0	0	0	0	0	0	0	0	0	0	0	0	0	0	0	0	0
081419	14:22:16	14:30:08	472179	5.0.10.0	5_exp_noRW	100	Rpleas_acq	CS_A	CPPC	ZHHZ	YFFY	DXXD	JQQJ	LWWL	küssen	sonnig	vertrauen	träumen	gütig	genießen	krank	sterben	versagen	töten	gierig	gemein	53pct	acq_USunple_CSunple2_noRW	acq23456_noRW	3	42	0	0	300	300	449	46	0	1	1	blank2r.bmp	0	1	+	0	1	blank2r.bmp	252	1	DXXD	306	1	töten	559	0	0	0	0	0	0	0	0	0	0	0	0	0	0	0	0	0	0	0	0	0	0	0	0	0	0	0	0	0	0	0	0	0	0	0	0	0	0	0
081419	14:22:16	14:30:10	473832	5.0.10.0	5_exp_noRW	100	Rpleas_acq	CS_A	CPPC	ZHHZ	YFFY	DXXD	JQQJ	LWWL	küssen	sonnig	vertrauen	träumen	gütig	genießen	krank	sterben	versagen	töten	gierig	gemein	53pct	acq_USunple_CSunple1_noRW	acq23456_noRW	3	43	0	0	300	300	476	46	0	1	1	blank2r.bmp	0	1	+	0	1	blank2r.bmp	252	1	YFFY	306	2	sterben	559	0	0	0	0	0	0	0	0	0	0	0	0	0	0	0	0	0	0	0	0	0	0	0	0	0	0	0	0	0	0	0	0	0	0	0	0	0	0	0
081419	14:22:16	14:30:12	475938	5.0.10.0	5_exp_noRW	100	Rpleas_acq	CS_A	CPPC	ZHHZ	YFFY	DXXD	JQQJ	LWWL	küssen	sonnig	vertrauen	träumen	gütig	genießen	krank	sterben	versagen	töten	gierig	gemein	47pct	acq_USpleas_CSpleas2_noRW	acq23456_noRW	3	44	0	0	300	300	920	50	0	1	1	blank2r.bmp	0	1	+	0	1	blank2r.bmp	252	1	ZHHZ	306	2	gütig	559	0	0	0	0	0	0	0	0	0	0	0	0	0	0	0	0	0	0	0	0	0	0	0	0	0	0	0	0	0	0	0	0	0	0	0	0	0	0	0
081419	14:22:16	14:30:14	477550	5.0.10.0	5_exp_noRW	100	Rpleas_acq	CS_A	CPPC	ZHHZ	YFFY	DXXD	JQQJ	LWWL	küssen	sonnig	vertrauen	träumen	gütig	genießen	krank	sterben	versagen	töten	gierig	gemein	53pct	acq_USunple_CSpleas1_noRW	acq23456_noRW	3	45	0	0	300	300	446	46	0	1	1	blank2r.bmp	0	1	+	0	1	blank2r.bmp	252	1	CPPC	306	1	krank	559	0	0	0	0	0	0	0	0	0	0	0	0	0	0	0	0	0	0	0	0	0	0	0	0	0	0	0	0	0	0	0	0	0	0	0	0	0	0	0
081419	14:22:16	14:30:15	479269	5.0.10.0	5_exp_noRW	100	Rpleas_acq	CS_A	CPPC	ZHHZ	YFFY	DXXD	JQQJ	LWWL	küssen	sonnig	vertrauen	träumen	gütig	genießen	krank	sterben	versagen	töten	gierig	gemein	53pct	acq_USpleas_CSpleas2_noRW	acq23456_noRW	3	46	0	0	300	300	535	50	0	1	1	blank2r.bmp	0	1	+	0	1	blank2r.bmp	252	1	ZHHZ	306	1	träumen	559	0	0	0	0	0	0	0	0	0	0	0	0	0	0	0	0	0	0	0	0	0	0	0	0	0	0	0	0	0	0	0	0	0	0	0	0	0	0	0
081419	14:22:16	14:30:17	480975	5.0.10.0	5_exp_noRW	100	Rpleas_acq	CS_A	CPPC	ZHHZ	YFFY	DXXD	JQQJ	LWWL	küssen	sonnig	vertrauen	träumen	gütig	genießen	krank	sterben	versagen	töten	gierig	gemein	53pct	acq_USunple_CSpleas2_noRW	acq23456_noRW	3	47	0	0	300	300	530	46	0	1	1	blank2r.bmp	0	1	+	0	1	blank2r.bmp	252	1	ZHHZ	306	2	gierig	559	0	0	0	0	0	0	0	0	0	0	0	0	0	0	0	0	0	0	0	0	0	0	0	0	0	0	0	0	0	0	0	0	0	0	0	0	0	0	0
081419	14:22:16	14:30:19	482695	5.0.10.0	5_exp_noRW	100	Rpleas_acq	CS_A	CPPC	ZHHZ	YFFY	DXXD	JQQJ	LWWL	küssen	sonnig	vertrauen	träumen	gütig	genießen	krank	sterben	versagen	töten	gierig	gemein	47pct	acq_USpleas_CSpleas1_noRW	acq23456_noRW	3	48	0	0	300	300	542	50	0	1	1	blank2r.bmp	0	1	+	0	1	blank2r.bmp	252	1	CPPC	306	2	sonnig	559	0	0	0	0	0	0	0	0	0	0	0	0	0	0	0	0	0	0	0	0	0	0	0	0	0	0	0	0	0	0	0	0	0	0	0	0	0	0	0
081419	14:22:16	14:30:21	484841	5.0.10.0	5_exp_noRW	100	Rpleas_acq	CS_A	CPPC	ZHHZ	YFFY	DXXD	JQQJ	LWWL	küssen	sonnig	vertrauen	träumen	gütig	genießen	krank	sterben	versagen	töten	gierig	gemein	53pct	acq_USpleas_CSpleas2_noRW	acq23456_noRW	3	49	0	0	300	300	962	50	0	1	1	blank2r.bmp	0	1	+	0	1	blank2r.bmp	252	1	ZHHZ	306	3	genießen	559	0	0	0	0	0	0	0	0	0	0	0	0	0	0	0	0	0	0	0	0	0	0	0	0	0	0	0	0	0	0	0	0	0	0	0	0	0	0	0
081419	14:22:16	14:30:23	487213	5.0.10.0	5_exp_noRW	100	Rpleas_acq	CS_A	CPPC	ZHHZ	YFFY	DXXD	JQQJ	LWWL	küssen	sonnig	vertrauen	träumen	gütig	genießen	krank	sterben	versagen	töten	gierig	gemein	47pct	acq_USunple_CSunple1_noRW	acq23456_noRW	3	50	0	0	300	300	989	50	0	0	1	blank2r.bmp	0	1	+	0	1	blank2r.bmp	252	1	YFFY	306	3	versagen	559	1	FEHLER	1586	0	0	0	0	0	0	0	0	0	0	0	0	0	0	0	0	0	0	0	0	0	0	0	0	0	0	0	0	0	0	0	0	0	0	0	0
081419	14:22:16	14:30:25	488706	5.0.10.0	5_exp_noRW	100	Rpleas_acq	CS_A	CPPC	ZHHZ	YFFY	DXXD	JQQJ	LWWL	küssen	sonnig	vertrauen	träumen	gütig	genießen	krank	sterben	versagen	töten	gierig	gemein	47pct	acq_USpleas_CSpleas2_noRW	acq23456_noRW	3	51	0	0	300	300	542	50	0	1	1	blank2r.bmp	0	1	+	0	1	blank2r.bmp	252	1	ZHHZ	306	1	träumen	559	0	0	0	0	0	0	0	0	0	0	0	0	0	0	0	0	0	0	0	0	0	0	0	0	0	0	0	0	0	0	0	0	0	0	0	0	0	0	0
081419	14:22:16	14:30:27	490572	5.0.10.0	5_exp_noRW	100	Rpleas_acq	CS_A	CPPC	ZHHZ	YFFY	DXXD	JQQJ	LWWL	küssen	sonnig	vertrauen	träumen	gütig	genießen	krank	sterben	versagen	töten	gierig	gemein	53pct	acq_USunple_CSunple2_noRW	acq23456_noRW	3	52	0	0	300	300	689	46	0	1	1	blank2r.bmp	0	1	+	0	1	blank2r.bmp	252	1	DXXD	306	2	gierig	559	0	0	0	0	0	0	0	0	0	0	0	0	0	0	0	0	0	0	0	0	0	0	0	0	0	0	0	0	0	0	0	0	0	0	0	0	0	0	0
081419	14:22:16	14:30:29	492504	5.0.10.0	5_exp_noRW	100	Rpleas_acq	CS_A	CPPC	ZHHZ	YFFY	DXXD	JQQJ	LWWL	küssen	sonnig	vertrauen	träumen	gütig	genießen	krank	sterben	versagen	töten	gierig	gemein	47pct	acq_USpleas_CSunple2_noRW	acq23456_noRW	3	53	0	0	300	300	746	50	0	1	1	blank2r.bmp	0	1	+	0	1	blank2r.bmp	252	1	DXXD	306	2	gütig	559	0	0	0	0	0	0	0	0	0	0	0	0	0	0	0	0	0	0	0	0	0	0	0	0	0	0	0	0	0	0	0	0	0	0	0	0	0	0	0
081419	14:22:16	14:30:30	494210	5.0.10.0	5_exp_noRW	100	Rpleas_acq	CS_A	CPPC	ZHHZ	YFFY	DXXD	JQQJ	LWWL	küssen	sonnig	vertrauen	träumen	gütig	genießen	krank	sterben	versagen	töten	gierig	gemein	47pct	acq_USpleas_CSpleas1_noRW	acq23456_noRW	3	54	0	0	300	300	532	50	0	1	1	blank2r.bmp	0	1	+	0	1	blank2r.bmp	252	1	CPPC	306	1	küssen	559	0	0	0	0	0	0	0	0	0	0	0	0	0	0	0	0	0	0	0	0	0	0	0	0	0	0	0	0	0	0	0	0	0	0	0	0	0	0	0
081419	14:22:16	14:30:32	495863	5.0.10.0	5_exp_noRW	100	Rpleas_acq	CS_A	CPPC	ZHHZ	YFFY	DXXD	JQQJ	LWWL	küssen	sonnig	vertrauen	träumen	gütig	genießen	krank	sterben	versagen	töten	gierig	gemein	53pct	acq_USpleas_CSpleas1_noRW	acq23456_noRW	3	55	0	0	300	300	481	50	0	1	1	blank2r.bmp	0	1	+	0	1	blank2r.bmp	252	1	CPPC	306	2	sonnig	559	0	0	0	0	0	0	0	0	0	0	0	0	0	0	0	0	0	0	0	0	0	0	0	0	0	0	0	0	0	0	0	0	0	0	0	0	0	0	0
081419	14:22:16	14:30:34	497609	5.0.10.0	5_exp_noRW	100	Rpleas_acq	CS_A	CPPC	ZHHZ	YFFY	DXXD	JQQJ	LWWL	küssen	sonnig	vertrauen	träumen	gütig	genießen	krank	sterben	versagen	töten	gierig	gemein	47pct	acq_USunple_CSunple2_noRW	acq23456_noRW	3	56	0	0	300	300	575	46	0	1	1	blank2r.bmp	0	1	+	0	1	blank2r.bmp	252	1	DXXD	306	1	töten	559	0	0	0	0	0	0	0	0	0	0	0	0	0	0	0	0	0	0	0	0	0	0	0	0	0	0	0	0	0	0	0	0	0	0	0	0	0	0	0
081419	14:22:16	14:30:36	499315	5.0.10.0	5_exp_noRW	100	Rpleas_acq	CS_A	CPPC	ZHHZ	YFFY	DXXD	JQQJ	LWWL	küssen	sonnig	vertrauen	träumen	gütig	genießen	krank	sterben	versagen	töten	gierig	gemein	47pct	acq_USpleas_CSpleas1_noRW	acq23456_noRW	3	57	0	0	300	300	537	50	0	1	1	blank2r.bmp	0	1	+	0	1	blank2r.bmp	252	1	CPPC	306	1	küssen	559	0	0	0	0	0	0	0	0	0	0	0	0	0	0	0	0	0	0	0	0	0	0	0	0	0	0	0	0	0	0	0	0	0	0	0	0	0	0	0
081419	14:22:16	14:30:37	501114	5.0.10.0	5_exp_noRW	100	Rpleas_acq	CS_A	CPPC	ZHHZ	YFFY	DXXD	JQQJ	LWWL	küssen	sonnig	vertrauen	träumen	gütig	genießen	krank	sterben	versagen	töten	gierig	gemein	47pct	acq_USpleas_CSunple1_noRW	acq23456_noRW	3	58	0	0	300	300	623	50	0	1	1	blank2r.bmp	0	1	+	0	1	blank2r.bmp	252	1	YFFY	306	3	vertrauen	559	0	0	0	0	0	0	0	0	0	0	0	0	0	0	0	0	0	0	0	0	0	0	0	0	0	0	0	0	0	0	0	0	0	0	0	0	0	0	0
081419	14:22:16	14:30:39	503166	5.0.10.0	5_exp_noRW	100	Rpleas_acq	CS_A	CPPC	ZHHZ	YFFY	DXXD	JQQJ	LWWL	küssen	sonnig	vertrauen	träumen	gütig	genießen	krank	sterben	versagen	töten	gierig	gemein	53pct	acq_USunple_CSunple2_noRW	acq23456_noRW	3	59	0	0	300	300	865	46	0	1	1	blank2r.bmp	0	1	+	0	1	blank2r.bmp	252	1	DXXD	306	2	gierig	559	0	0	0	0	0	0	0	0	0	0	0	0	0	0	0	0	0	0	0	0	0	0	0	0	0	0	0	0	0	0	0	0	0	0	0	0	0	0	0
081419	14:22:16	14:30:41	504819	5.0.10.0	5_exp_noRW	100	Rpleas_acq	CS_A	CPPC	ZHHZ	YFFY	DXXD	JQQJ	LWWL	küssen	sonnig	vertrauen	träumen	gütig	genießen	krank	sterben	versagen	töten	gierig	gemein	53pct	acq_USunple_CSunple1_noRW	acq23456_noRW	3	60	0	0	300	300	487	46	0	1	1	blank2r.bmp	0	1	+	0	1	blank2r.bmp	252	1	YFFY	306	2	sterben	559	0	0	0	0	0	0	0	0	0	0	0	0	0	0	0	0	0	0	0	0	0	0	0	0	0	0	0	0	0	0	0	0	0	0	0	0	0	0	0
081419	14:22:16	14:30:43	506392	5.0.10.0	5_exp_noRW	100	Rpleas_acq	CS_A	CPPC	ZHHZ	YFFY	DXXD	JQQJ	LWWL	küssen	sonnig	vertrauen	träumen	gütig	genießen	krank	sterben	versagen	töten	gierig	gemein	53pct	acq_USunple_CSunple1_noRW	acq23456_noRW	3	61	0	0	300	300	397	46	0	1	1	blank2r.bmp	0	1	+	0	1	blank2r.bmp	252	1	YFFY	306	1	krank	559	0	0	0	0	0	0	0	0	0	0	0	0	0	0	0	0	0	0	0	0	0	0	0	0	0	0	0	0	0	0	0	0	0	0	0	0	0	0	0
081419	14:22:16	14:30:44	508098	5.0.10.0	5_exp_noRW	100	Rpleas_acq	CS_A	CPPC	ZHHZ	YFFY	DXXD	JQQJ	LWWL	küssen	sonnig	vertrauen	träumen	gütig	genießen	krank	sterben	versagen	töten	gierig	gemein	47pct	acq_USunple_CSunple2_noRW	acq23456_noRW	3	62	0	0	300	300	530	46	0	1	1	blank2r.bmp	0	1	+	0	1	blank2r.bmp	252	1	DXXD	306	3	gemein	559	0	0	0	0	0	0	0	0	0	0	0	0	0	0	0	0	0	0	0	0	0	0	0	0	0	0	0	0	0	0	0	0	0	0	0	0	0	0	0
081419	14:22:16	14:30:46	509777	5.0.10.0	5_exp_noRW	100	Rpleas_acq	CS_A	CPPC	ZHHZ	YFFY	DXXD	JQQJ	LWWL	küssen	sonnig	vertrauen	träumen	gütig	genießen	krank	sterben	versagen	töten	gierig	gemein	53pct	acq_USunple_CSunple1_noRW	acq23456_noRW	3	63	0	0	300	300	496	46	0	1	1	blank2r.bmp	0	1	+	0	1	blank2r.bmp	252	1	YFFY	306	1	krank	559	0	0	0	0	0	0	0	0	0	0	0	0	0	0	0	0	0	0	0	0	0	0	0	0	0	0	0	0	0	0	0	0	0	0	0	0	0	0	0
081419	14:22:16	14:30:48	511883	5.0.10.0	5_exp_noRW	100	Rpleas_acq	CS_A	CPPC	ZHHZ	YFFY	DXXD	JQQJ	LWWL	küssen	sonnig	vertrauen	träumen	gütig	genießen	krank	sterben	versagen	töten	gierig	gemein	53pct	acq_USunple_CSpleas2_noRW	acq23456_noRW	3	64	0	0	300	300	931	46	0	1	1	blank2r.bmp	0	1	+	0	1	blank2r.bmp	252	1	ZHHZ	306	3	gemein	559	0	0	0	0	0	0	0	0	0	0	0	0	0	0	0	0	0	0	0	0	0	0	0	0	0	0	0	0	0	0	0	0	0	0	0	0	0	0	0
081419	14:22:16	14:30:50	513589	5.0.10.0	5_exp_noRW	100	Rpleas_acq	CS_A	CPPC	ZHHZ	YFFY	DXXD	JQQJ	LWWL	küssen	sonnig	vertrauen	träumen	gütig	genießen	krank	sterben	versagen	töten	gierig	gemein	47pct	acq_USpleas_CSpleas2_noRW	acq23456_noRW	3	65	0	0	300	300	542	50	0	1	1	blank2r.bmp	0	1	+	0	1	blank2r.bmp	252	1	ZHHZ	306	2	gütig	559	0	0	0	0	0	0	0	0	0	0	0	0	0	0	0	0	0	0	0	0	0	0	0	0	0	0	0	0	0	0	0	0	0	0	0	0	0	0	0
081419	14:22:16	14:30:51	515241	5.0.10.0	5_exp_noRW	100	Rpleas_acq	CS_A	CPPC	ZHHZ	YFFY	DXXD	JQQJ	LWWL	küssen	sonnig	vertrauen	träumen	gütig	genießen	krank	sterben	versagen	töten	gierig	gemein	53pct	acq_USunple_CSunple2_noRW	acq23456_noRW	3	66	0	0	300	300	477	46	0	1	1	blank2r.bmp	0	1	+	0	1	blank2r.bmp	252	1	DXXD	306	3	gemein	559	0	0	0	0	0	0	0	0	0	0	0	0	0	0	0	0	0	0	0	0	0	0	0	0	0	0	0	0	0	0	0	0	0	0	0	0	0	0	0
081419	14:22:16	14:30:53	516987	5.0.10.0	5_exp_noRW	100	Rpleas_acq	CS_A	CPPC	ZHHZ	YFFY	DXXD	JQQJ	LWWL	küssen	sonnig	vertrauen	träumen	gütig	genießen	krank	sterben	versagen	töten	gierig	gemein	53pct	acq_USunple_CSunple1_noRW	acq23456_noRW	3	67	0	0	300	300	559	46	0	1	1	blank2r.bmp	0	1	+	0	1	blank2r.bmp	252	1	YFFY	306	3	versagen	559	0	0	0	0	0	0	0	0	0	0	0	0	0	0	0	0	0	0	0	0	0	0	0	0	0	0	0	0	0	0	0	0	0	0	0	0	0	0	0
081419	14:22:16	14:30:55	518653	5.0.10.0	5_exp_noRW	100	Rpleas_acq	CS_A	CPPC	ZHHZ	YFFY	DXXD	JQQJ	LWWL	küssen	sonnig	vertrauen	träumen	gütig	genießen	krank	sterben	versagen	töten	gierig	gemein	47pct	acq_USpleas_CSpleas2_noRW	acq23456_noRW	3	68	0	0	300	300	492	50	0	1	1	blank2r.bmp	0	1	+	0	1	blank2r.bmp	252	1	ZHHZ	306	2	gütig	559	0	0	0	0	0	0	0	0	0	0	0	0	0	0	0	0	0	0	0	0	0	0	0	0	0	0	0	0	0	0	0	0	0	0	0	0	0	0	0
081419	14:22:16	14:30:56	520253	5.0.10.0	5_exp_noRW	100	Rpleas_acq	CS_A	CPPC	ZHHZ	YFFY	DXXD	JQQJ	LWWL	küssen	sonnig	vertrauen	träumen	gütig	genießen	krank	sterben	versagen	töten	gierig	gemein	53pct	acq_USpleas_CSunple1_noRW	acq23456_noRW	3	69	0	0	300	300	432	50	0	1	1	blank2r.bmp	0	1	+	0	1	blank2r.bmp	252	1	YFFY	306	1	küssen	559	0	0	0	0	0	0	0	0	0	0	0	0	0	0	0	0	0	0	0	0	0	0	0	0	0	0	0	0	0	0	0	0	0	0	0	0	0	0	0
081419	14:22:16	14:30:58	521972	5.0.10.0	5_exp_noRW	100	Rpleas_acq	CS_A	CPPC	ZHHZ	YFFY	DXXD	JQQJ	LWWL	küssen	sonnig	vertrauen	träumen	gütig	genießen	krank	sterben	versagen	töten	gierig	gemein	47pct	acq_USunple_CSunple2_noRW	acq23456_noRW	3	70	0	0	300	300	546	46	0	1	1	blank2r.bmp	0	1	+	0	1	blank2r.bmp	252	1	DXXD	306	1	töten	559	0	0	0	0	0	0	0	0	0	0	0	0	0	0	0	0	0	0	0	0	0	0	0	0	0	0	0	0	0	0	0	0	0	0	0	0	0	0	0
081419	14:22:16	14:31:00	523638	5.0.10.0	5_exp_noRW	100	Rpleas_acq	CS_A	CPPC	ZHHZ	YFFY	DXXD	JQQJ	LWWL	küssen	sonnig	vertrauen	träumen	gütig	genießen	krank	sterben	versagen	töten	gierig	gemein	47pct	acq_USunple_CSpleas1_noRW	acq23456_noRW	3	71	0	0	300	300	502	46	0	1	1	blank2r.bmp	0	1	+	0	1	blank2r.bmp	252	1	CPPC	306	2	sterben	559	0	0	0	0	0	0	0	0	0	0	0	0	0	0	0	0	0	0	0	0	0	0	0	0	0	0	0	0	0	0	0	0	0	0	0	0	0	0	0
081419	14:22:16	14:31:02	525411	5.0.10.0	5_exp_noRW	100	Rpleas_acq	CS_A	CPPC	ZHHZ	YFFY	DXXD	JQQJ	LWWL	küssen	sonnig	vertrauen	träumen	gütig	genießen	krank	sterben	versagen	töten	gierig	gemein	53pct	acq_USpleas_CSpleas1_noRW	acq23456_noRW	3	72	0	0	300	300	599	50	0	1	1	blank2r.bmp	0	1	+	0	1	blank2r.bmp	252	1	CPPC	306	3	vertrauen	559	0	0	0	0	0	0	0	0	0	0	0	0	0	0	0	0	0	0	0	0	0	0	0	0	0	0	0	0	0	0	0	0	0	0	0	0	0	0	0
081419	14:22:16	14:31:03	527103	5.0.10.0	5_exp_noRW	100	Rpleas_acq	CS_A	CPPC	ZHHZ	YFFY	DXXD	JQQJ	LWWL	küssen	sonnig	vertrauen	träumen	gütig	genießen	krank	sterben	versagen	töten	gierig	gemein	47pct	acq_USpleas_CSpleas1_noRW	acq23456_noRW	3	73	0	0	300	300	520	50	0	1	1	blank2r.bmp	0	1	+	0	1	blank2r.bmp	252	1	CPPC	306	1	küssen	559	0	0	0	0	0	0	0	0	0	0	0	0	0	0	0	0	0	0	0	0	0	0	0	0	0	0	0	0	0	0	0	0	0	0	0	0	0	0	0
081419	14:22:16	14:31:05	528729	5.0.10.0	5_exp_noRW	100	Rpleas_acq	CS_A	CPPC	ZHHZ	YFFY	DXXD	JQQJ	LWWL	küssen	sonnig	vertrauen	träumen	gütig	genießen	krank	sterben	versagen	töten	gierig	gemein	53pct	acq_USunple_CSunple1_noRW	acq23456_noRW	3	74	0	0	300	300	455	46	0	1	1	blank2r.bmp	0	1	+	0	1	blank2r.bmp	252	1	YFFY	306	2	sterben	559	0	0	0	0	0	0	0	0	0	0	0	0	0	0	0	0	0	0	0	0	0	0	0	0	0	0	0	0	0	0	0	0	0	0	0	0	0	0	0
081419	14:22:16	14:31:07	530355	5.0.10.0	5_exp_noRW	100	Rpleas_acq	CS_A	CPPC	ZHHZ	YFFY	DXXD	JQQJ	LWWL	küssen	sonnig	vertrauen	träumen	gütig	genießen	krank	sterben	versagen	töten	gierig	gemein	53pct	acq_USpleas_CSpleas2_noRW	acq23456_noRW	3	75	0	0	300	300	461	50	0	1	1	blank2r.bmp	0	1	+	0	1	blank2r.bmp	252	1	ZHHZ	306	1	träumen	559	0	0	0	0	0	0	0	0	0	0	0	0	0	0	0	0	0	0	0	0	0	0	0	0	0	0	0	0	0	0	0	0	0	0	0	0	0	0	0
081419	14:22:16	14:31:09	532634	5.0.10.0	5_exp_noRW	100	Rpleas_acq	CS_A	CPPC	ZHHZ	YFFY	DXXD	JQQJ	LWWL	küssen	sonnig	vertrauen	träumen	gütig	genießen	krank	sterben	versagen	töten	gierig	gemein	53pct	acq_USpleas_CSpleas1_noRW	acq23456_noRW	3	76	0	0	300	300	1096	50	0	1	1	blank2r.bmp	0	1	+	0	1	blank2r.bmp	252	1	CPPC	306	3	vertrauen	559	0	0	0	0	0	0	0	0	0	0	0	0	0	0	0	0	0	0	0	0	0	0	0	0	0	0	0	0	0	0	0	0	0	0	0	0	0	0	0
081419	14:22:16	14:31:11	534500	5.0.10.0	5_exp_noRW	100	Rpleas_acq	CS_A	CPPC	ZHHZ	YFFY	DXXD	JQQJ	LWWL	küssen	sonnig	vertrauen	träumen	gütig	genießen	krank	sterben	versagen	töten	gierig	gemein	53pct	acq_USpleas_CSpleas1_noRW	acq23456_noRW	3	77	0	0	300	300	683	50	0	1	1	blank2r.bmp	0	1	+	0	1	blank2r.bmp	252	1	CPPC	306	2	sonnig	559	0	0	0	0	0	0	0	0	0	0	0	0	0	0	0	0	0	0	0	0	0	0	0	0	0	0	0	0	0	0	0	0	0	0	0	0	0	0	0
081419	14:22:16	14:31:13	536646	5.0.10.0	5_exp_noRW	100	Rpleas_acq	CS_A	CPPC	ZHHZ	YFFY	DXXD	JQQJ	LWWL	küssen	sonnig	vertrauen	träumen	gütig	genießen	krank	sterben	versagen	töten	gierig	gemein	53pct	acq_USpleas_CSpleas2_noRW	acq23456_noRW	3	78	0	0	300	300	974	50	0	1	1	blank2r.bmp	0	1	+	0	1	blank2r.bmp	252	1	ZHHZ	306	3	genießen	559	0	0	0	0	0	0	0	0	0	0	0	0	0	0	0	0	0	0	0	0	0	0	0	0	0	0	0	0	0	0	0	0	0	0	0	0	0	0	0
081419	14:22:16	14:31:15	538419	5.0.10.0	5_exp_noRW	100	Rpleas_acq	CS_A	CPPC	ZHHZ	YFFY	DXXD	JQQJ	LWWL	küssen	sonnig	vertrauen	träumen	gütig	genießen	krank	sterben	versagen	töten	gierig	gemein	47pct	acq_USunple_CSunple2_noRW	acq23456_noRW	3	79	0	0	300	300	597	46	0	1	1	blank2r.bmp	0	1	+	0	1	blank2r.bmp	252	1	DXXD	306	2	gierig	559	0	0	0	0	0	0	0	0	0	0	0	0	0	0	0	0	0	0	0	0	0	0	0	0	0	0	0	0	0	0	0	0	0	0	0	0	0	0	0
081419	14:22:16	14:31:17	540511	5.0.10.0	5_exp_noRW	100	Rpleas_acq	CS_A	CPPC	ZHHZ	YFFY	DXXD	JQQJ	LWWL	küssen	sonnig	vertrauen	träumen	gütig	genießen	krank	sterben	versagen	töten	gierig	gemein	47pct	acq_USpleas_CSunple2_noRW	acq23456_noRW	3	80	0	0	300	300	908	50	0	1	1	blank2r.bmp	0	1	+	0	1	blank2r.bmp	252	1	DXXD	306	3	genießen	559	0	0	0	0	0	0	0	0	0	0	0	0	0	0	0	0	0	0	0	0	0	0	0	0	0	0	0	0	0	0	0	0	0	0	0	0	0	0	0
081419	14:22:16	14:31:25	548734	5.0.10.0	5_exp_noRW	100	Rpleas_acq	CS_A	CPPC	ZHHZ	YFFY	DXXD	JQQJ	LWWL	küssen	sonnig	vertrauen	träumen	gütig	genießen	krank	sterben	versagen	töten	gierig	gemein	47pct	acq_USpleas_CSpleas1_noRW	acq23456_noRW	4	1	0	0	300	300	461	50	0	1	1	blank2r.bmp	0	1	+	0	1	blank2r.bmp	252	1	CPPC	306	1	küssen	559	0	0	0	0	0	0	0	0	0	0	0	0	0	0	0	0	0	0	0	0	0	0	0	0	0	0	0	0	0	0	0	0	0	0	0	0	0	0	0
