date	time	script.currenttime	script.elapsedtime	build	script.currentexpt	subject	expressions.LRpleas_acq	expressions.conditionCS_A	expressions.CSpleas_1	expressions.CSpleas_2	expressions.CSunple_1	expressions.CSunple_2	expressions.distractor_1	expressions.distractor_2	expressions.US_pleas1	expressions.US_pleas2	expressions.US_pleas3	expressions.US_pleas4	expressions.US_pleas5	expressions.US_pleas6	expressions.US_unple1	expressions.US_unple2	expressions.US_unple3	expressions.US_unple4	expressions.US_unple5	expressions.US_unple6	counter.positions_noRW	trialcode	blockcode	blocknum	trialnum	windowcenter	inwindow	pretrialpause	posttrialpause	latency	response	expressions.correctedscore	correct	stimulusnumber1	stimulusitem1	stimulusonset1	stimulusnumber2	stimulusitem2	stimulusonset2	stimulusnumber3	stimulusitem3	stimulusonset3	stimulusnumber4	stimulusitem4	stimulusonset4	stimulusnumber5	stimulusitem5	stimulusonset5	stimulusnumber6	stimulusitem6	stimulusonset6	stimulusnumber7	stimulusitem7	stimulusonset7	stimulusnumber8	stimulusitem8	stimulusonset8	stimulusnumber9	stimulusitem9	stimulusonset9	stimulusnumber10	stimulusitem10	stimulusonset10	stimulusnumber11	stimulusitem11	stimulusonset11	stimulusnumber12	stimulusitem12	stimulusonset12	stimulusnumber13	stimulusitem13	stimulusonset13	stimulusnumber14	stimulusitem14	stimulusonset14	stimulusnumber15	stimulusitem15	stimulusonset15	stimulusnumber16	stimulusitem16	stimulusonset16	stimulusnumber17	stimulusitem17	stimulusonset17	stimulusnumber18	stimulusitem18	stimulusonset18
082619	17:08:41	17:09:42	61054	5.0.10.0	5_exp_RW	113	Rpleas_acq	CS_A	LWWL	JQQJ	YFFY	ZHHZ	CPPC	DXXD	vertrauen	küssen	gütig	träumen	genießen	sonnig	versagen	krank	gierig	töten	gemein	sterben	1	acq_USpleas_CSpleas2_RW	acq1_RW	1	1	0	0	300	300	1108	50	0	1	1	blank2r.bmp	0	1	+	0	1	blank2r.bmp	492	1	JQQJ	492	1	blank2r.bmp	572	1	träumen	866	0	0	0	0	0	0	0	0	0	0	0	0	0	0	0	0	0	0	0	0	0	0	0	0	0	0	0	0	0	0	0	0	0	0	0	0
082619	17:08:41	17:09:44	63160	5.0.10.0	5_exp_RW	113	Rpleas_acq	CS_A	LWWL	JQQJ	YFFY	ZHHZ	CPPC	DXXD	vertrauen	küssen	gütig	träumen	genießen	sonnig	versagen	krank	gierig	töten	gemein	sterben	1	acq_USunple_CSunple2_RW	acq1_RW	1	2	0	0	300	300	635	46	0	1	1	blank2r.bmp	0	1	+	0	1	blank2r.bmp	492	1	ZHHZ	492	1	blank2r.bmp	572	1	töten	866	0	0	0	0	0	0	0	0	0	0	0	0	0	0	0	0	0	0	0	0	0	0	0	0	0	0	0	0	0	0	0	0	0	0	0	0
082619	17:08:41	17:09:46	65173	5.0.10.0	5_exp_RW	113	Rpleas_acq	CS_A	LWWL	JQQJ	YFFY	ZHHZ	CPPC	DXXD	vertrauen	küssen	gütig	träumen	genießen	sonnig	versagen	krank	gierig	töten	gemein	sterben	1	acq_USpleas_CSpleas1_RW	acq1_RW	1	3	0	0	300	300	542	50	0	1	1	blank2r.bmp	0	1	+	0	1	blank2r.bmp	492	1	LWWL	492	1	blank2r.bmp	572	3	gütig	866	0	0	0	0	0	0	0	0	0	0	0	0	0	0	0	0	0	0	0	0	0	0	0	0	0	0	0	0	0	0	0	0	0	0	0	0
082619	17:08:41	17:09:49	67518	5.0.10.0	5_exp_RW	113	Rpleas_acq	CS_A	LWWL	JQQJ	YFFY	ZHHZ	CPPC	DXXD	vertrauen	küssen	gütig	träumen	genießen	sonnig	versagen	krank	gierig	töten	gemein	sterben	1	acq_USpleas_CSpleas2_RW	acq1_RW	1	4	0	0	300	300	859	50	0	1	1	blank2r.bmp	0	1	+	0	1	blank2r.bmp	492	1	JQQJ	492	1	blank2r.bmp	572	2	genießen	866	0	0	0	0	0	0	0	0	0	0	0	0	0	0	0	0	0	0	0	0	0	0	0	0	0	0	0	0	0	0	0	0	0	0	0	0
082619	17:08:41	17:09:52	70397	5.0.10.0	5_exp_RW	113	Rpleas_acq	CS_A	LWWL	JQQJ	YFFY	ZHHZ	CPPC	DXXD	vertrauen	küssen	gütig	träumen	genießen	sonnig	versagen	krank	gierig	töten	gemein	sterben	1	acq_USunple_CSunple1_RW	acq1_RW	1	5	0	0	300	300	1396	46	0	1	1	blank2r.bmp	0	1	+	0	1	blank2r.bmp	492	1	YFFY	492	1	blank2r.bmp	572	2	krank	866	0	0	0	0	0	0	0	0	0	0	0	0	0	0	0	0	0	0	0	0	0	0	0	0	0	0	0	0	0	0	0	0	0	0	0	0
082619	17:08:41	17:09:54	72543	5.0.10.0	5_exp_RW	113	Rpleas_acq	CS_A	LWWL	JQQJ	YFFY	ZHHZ	CPPC	DXXD	vertrauen	küssen	gütig	träumen	genießen	sonnig	versagen	krank	gierig	töten	gemein	sterben	1	acq_USpleas_CSpleas1_RW	acq1_RW	1	6	0	0	300	300	667	50	0	1	1	blank2r.bmp	0	1	+	0	1	blank2r.bmp	492	1	LWWL	492	1	blank2r.bmp	572	1	vertrauen	866	0	0	0	0	0	0	0	0	0	0	0	0	0	0	0	0	0	0	0	0	0	0	0	0	0	0	0	0	0	0	0	0	0	0	0	0
082619	17:08:41	17:09:56	74755	5.0.10.0	5_exp_RW	113	Rpleas_acq	CS_A	LWWL	JQQJ	YFFY	ZHHZ	CPPC	DXXD	vertrauen	küssen	gütig	träumen	genießen	sonnig	versagen	krank	gierig	töten	gemein	sterben	1	acq_USpleas_CSpleas1_RW	acq1_RW	1	7	0	0	300	300	723	50	0	1	1	blank2r.bmp	0	1	+	0	1	blank2r.bmp	492	1	LWWL	492	1	blank2r.bmp	572	2	küssen	866	0	0	0	0	0	0	0	0	0	0	0	0	0	0	0	0	0	0	0	0	0	0	0	0	0	0	0	0	0	0	0	0	0	0	0	0
082619	17:08:41	17:09:58	76595	5.0.10.0	5_exp_RW	113	Rpleas_acq	CS_A	LWWL	JQQJ	YFFY	ZHHZ	CPPC	DXXD	vertrauen	küssen	gütig	träumen	genießen	sonnig	versagen	krank	gierig	töten	gemein	sterben	1	acq_USunple_CSunple2_RW	acq1_RW	1	8	0	0	300	300	352	46	0	1	1	blank2r.bmp	0	1	+	0	1	blank2r.bmp	492	1	ZHHZ	492	1	blank2r.bmp	572	3	sterben	866	0	0	0	0	0	0	0	0	0	0	0	0	0	0	0	0	0	0	0	0	0	0	0	0	0	0	0	0	0	0	0	0	0	0	0	0
082619	17:08:41	17:10:00	78327	5.0.10.0	5_exp_RW	113	Rpleas_acq	CS_A	LWWL	JQQJ	YFFY	ZHHZ	CPPC	DXXD	vertrauen	küssen	gütig	träumen	genießen	sonnig	versagen	krank	gierig	töten	gemein	sterben	1	acq_USunple_CSunple2_RW	acq1_RW	1	9	0	0	300	300	51	50	0	0	1	blank2r.bmp	0	1	+	0	1	blank2r.bmp	492	1	ZHHZ	492	1	blank2r.bmp	572	2	gemein	866	1	FEHLER	946	0	0	0	0	0	0	0	0	0	0	0	0	0	0	0	0	0	0	0	0	0	0	0	0	0	0	0	0	0	0	0	0	0
082619	17:08:41	17:10:01	80140	5.0.10.0	5_exp_RW	113	Rpleas_acq	CS_A	LWWL	JQQJ	YFFY	ZHHZ	CPPC	DXXD	vertrauen	küssen	gütig	träumen	genießen	sonnig	versagen	krank	gierig	töten	gemein	sterben	1	acq_USunple_CSunple1_RW	acq1_RW	1	10	0	0	300	300	535	46	0	1	1	blank2r.bmp	0	1	+	0	1	blank2r.bmp	492	1	YFFY	492	1	blank2r.bmp	572	1	versagen	866	0	0	0	0	0	0	0	0	0	0	0	0	0	0	0	0	0	0	0	0	0	0	0	0	0	0	0	0	0	0	0	0	0	0	0	0
082619	17:08:41	17:10:03	82152	5.0.10.0	5_exp_RW	113	Rpleas_acq	CS_A	LWWL	JQQJ	YFFY	ZHHZ	CPPC	DXXD	vertrauen	küssen	gütig	träumen	genießen	sonnig	versagen	krank	gierig	töten	gemein	sterben	1	acq_USpleas_CSpleas1_RW	acq1_RW	1	11	0	0	300	300	525	50	0	1	1	blank2r.bmp	0	1	+	0	1	blank2r.bmp	492	1	LWWL	492	1	blank2r.bmp	572	3	gütig	866	0	0	0	0	0	0	0	0	0	0	0	0	0	0	0	0	0	0	0	0	0	0	0	0	0	0	0	0	0	0	0	0	0	0	0	0
082619	17:08:41	17:10:06	84631	5.0.10.0	5_exp_RW	113	Rpleas_acq	CS_A	LWWL	JQQJ	YFFY	ZHHZ	CPPC	DXXD	vertrauen	küssen	gütig	träumen	genießen	sonnig	versagen	krank	gierig	töten	gemein	sterben	1	acq_USunple_CSunple1_RW	acq1_RW	1	12	0	0	300	300	777	50	0	0	1	blank2r.bmp	0	1	+	0	1	blank2r.bmp	492	1	YFFY	492	1	blank2r.bmp	572	3	gierig	866	1	FEHLER	1679	0	0	0	0	0	0	0	0	0	0	0	0	0	0	0	0	0	0	0	0	0	0	0	0	0	0	0	0	0	0	0	0	0
082619	17:08:41	17:10:08	86511	5.0.10.0	5_exp_RW	113	Rpleas_acq	CS_A	LWWL	JQQJ	YFFY	ZHHZ	CPPC	DXXD	vertrauen	küssen	gütig	träumen	genießen	sonnig	versagen	krank	gierig	töten	gemein	sterben	1	acq_USunple_CSunple1_RW	acq1_RW	1	13	0	0	300	300	599	46	0	1	1	blank2r.bmp	0	1	+	0	1	blank2r.bmp	492	1	YFFY	492	1	blank2r.bmp	572	2	krank	866	0	0	0	0	0	0	0	0	0	0	0	0	0	0	0	0	0	0	0	0	0	0	0	0	0	0	0	0	0	0	0	0	0	0	0	0
082619	17:08:41	17:10:10	88470	5.0.10.0	5_exp_RW	113	Rpleas_acq	CS_A	LWWL	JQQJ	YFFY	ZHHZ	CPPC	DXXD	vertrauen	küssen	gütig	träumen	genießen	sonnig	versagen	krank	gierig	töten	gemein	sterben	1	acq_USpleas_CSpleas2_RW	acq1_RW	1	14	0	0	300	300	482	50	0	1	1	blank2r.bmp	0	1	+	0	1	blank2r.bmp	492	1	JQQJ	492	1	blank2r.bmp	572	3	sonnig	866	0	0	0	0	0	0	0	0	0	0	0	0	0	0	0	0	0	0	0	0	0	0	0	0	0	0	0	0	0	0	0	0	0	0	0	0
082619	17:08:41	17:10:12	90536	5.0.10.0	5_exp_RW	113	Rpleas_acq	CS_A	LWWL	JQQJ	YFFY	ZHHZ	CPPC	DXXD	vertrauen	küssen	gütig	träumen	genießen	sonnig	versagen	krank	gierig	töten	gemein	sterben	1	acq_USunple_CSunple2_RW	acq1_RW	1	15	0	0	300	300	583	46	0	1	1	blank2r.bmp	0	1	+	0	1	blank2r.bmp	492	1	ZHHZ	492	1	blank2r.bmp	572	2	gemein	866	0	0	0	0	0	0	0	0	0	0	0	0	0	0	0	0	0	0	0	0	0	0	0	0	0	0	0	0	0	0	0	0	0	0	0	0
082619	17:08:41	17:10:14	92641	5.0.10.0	5_exp_RW	113	Rpleas_acq	CS_A	LWWL	JQQJ	YFFY	ZHHZ	CPPC	DXXD	vertrauen	küssen	gütig	träumen	genießen	sonnig	versagen	krank	gierig	töten	gemein	sterben	1	acq_USpleas_CSpleas2_RW	acq1_RW	1	16	0	0	300	300	626	50	0	1	1	blank2r.bmp	0	1	+	0	1	blank2r.bmp	492	1	JQQJ	492	1	blank2r.bmp	572	2	genießen	866	0	0	0	0	0	0	0	0	0	0	0	0	0	0	0	0	0	0	0	0	0	0	0	0	0	0	0	0	0	0	0	0	0	0	0	0
082619	17:08:41	17:10:46	124815	5.0.10.0	5_exp_RW	113	Rpleas_acq	CS_A	LWWL	JQQJ	YFFY	ZHHZ	CPPC	DXXD	vertrauen	küssen	gütig	träumen	genießen	sonnig	versagen	krank	gierig	töten	gemein	sterben	1	acq_USpleas_CSpleas2_RW	acq2_RW	2	1	480	0	300	300	593	50	0	1	1	blank2r.bmp	0	1	+	0	1	blank2r.bmp	492	1	JQQJ	492	1	blank2r.bmp	572	1	träumen	866	1	!	1319	1	!	-1	0	0	0	0	0	0	0	0	0	0	0	0	0	0	0	0	0	0	0	0	0	0	0	0	0	0	0	0	0	0
082619	17:08:41	17:10:48	127054	5.0.10.0	5_exp_RW	113	Rpleas_acq	CS_A	LWWL	JQQJ	YFFY	ZHHZ	CPPC	DXXD	vertrauen	küssen	gütig	träumen	genießen	sonnig	versagen	krank	gierig	töten	gemein	sterben	1	acq_USunple_CSunple1_RW	acq2_RW	2	2	480	1	300	300	426	46	0	1	1	blank2r.bmp	0	1	+	0	1	blank2r.bmp	492	1	YFFY	492	1	blank2r.bmp	572	3	gierig	866	1	!	1319	1	!	1332	0	0	0	0	0	0	0	0	0	0	0	0	0	0	0	0	0	0	0	0	0	0	0	0	0	0	0	0	0	0
082619	17:08:41	17:10:51	129306	5.0.10.0	5_exp_RW	113	Rpleas_acq	CS_A	LWWL	JQQJ	YFFY	ZHHZ	CPPC	DXXD	vertrauen	küssen	gütig	träumen	genießen	sonnig	versagen	krank	gierig	töten	gemein	sterben	1	acq_USunple_CSunple1_RW	acq2_RW	2	3	480	1	300	300	454	46	0	1	1	blank2r.bmp	0	1	+	0	1	blank2r.bmp	492	1	YFFY	492	1	blank2r.bmp	572	1	versagen	866	1	!	1319	1	!	1359	0	0	0	0	0	0	0	0	0	0	0	0	0	0	0	0	0	0	0	0	0	0	0	0	0	0	0	0	0	0
082619	17:08:41	17:10:53	131785	5.0.10.0	5_exp_RW	113	Rpleas_acq	CS_A	LWWL	JQQJ	YFFY	ZHHZ	CPPC	DXXD	vertrauen	küssen	gütig	träumen	genießen	sonnig	versagen	krank	gierig	töten	gemein	sterben	1	acq_USpleas_CSpleas2_RW	acq2_RW	2	4	480	1	300	300	472	46	0	0	1	blank2r.bmp	0	1	+	0	1	blank2r.bmp	492	1	JQQJ	492	1	blank2r.bmp	572	3	sonnig	866	1	FEHLER	1692	1	!	1319	1	!	1372	0	0	0	0	0	0	0	0	0	0	0	0	0	0	0	0	0	0	0	0	0	0	0	0	0	0	0
082619	17:08:41	17:10:55	133798	5.0.10.0	5_exp_RW	113	Rpleas_acq	CS_A	LWWL	JQQJ	YFFY	ZHHZ	CPPC	DXXD	vertrauen	küssen	gütig	träumen	genießen	sonnig	versagen	krank	gierig	töten	gemein	sterben	1	acq_USunple_CSunple2_RW	acq2_RW	2	5	480	1	300	300	426	46	0	1	1	blank2r.bmp	0	1	+	0	1	blank2r.bmp	492	1	ZHHZ	492	1	blank2r.bmp	572	3	sterben	866	1	!	1319	1	!	1332	0	0	0	0	0	0	0	0	0	0	0	0	0	0	0	0	0	0	0	0	0	0	0	0	0	0	0	0	0	0
082619	17:08:41	17:10:57	136037	5.0.10.0	5_exp_RW	113	Rpleas_acq	CS_A	LWWL	JQQJ	YFFY	ZHHZ	CPPC	DXXD	vertrauen	küssen	gütig	träumen	genießen	sonnig	versagen	krank	gierig	töten	gemein	sterben	1	acq_USunple_CSunple2_RW	acq2_RW	2	6	480	1	300	300	441	46	0	1	1	blank2r.bmp	0	1	+	0	1	blank2r.bmp	492	1	ZHHZ	492	1	blank2r.bmp	572	1	töten	866	1	!	1319	1	!	1346	0	0	0	0	0	0	0	0	0	0	0	0	0	0	0	0	0	0	0	0	0	0	0	0	0	0	0	0	0	0
082619	17:08:41	17:10:59	138169	5.0.10.0	5_exp_RW	113	Rpleas_acq	CS_A	LWWL	JQQJ	YFFY	ZHHZ	CPPC	DXXD	vertrauen	küssen	gütig	träumen	genießen	sonnig	versagen	krank	gierig	töten	gemein	sterben	1	acq_USpleas_CSpleas2_RW	acq2_RW	2	7	480	0	300	300	353	50	0	1	1	blank2r.bmp	0	1	+	0	1	blank2r.bmp	492	1	JQQJ	492	1	blank2r.bmp	572	2	genießen	866	1	!	-1	1	!	-1	0	0	0	0	0	0	0	0	0	0	0	0	0	0	0	0	0	0	0	0	0	0	0	0	0	0	0	0	0	0
082619	17:08:41	17:11:02	140462	5.0.10.0	5_exp_RW	113	Rpleas_acq	CS_A	LWWL	JQQJ	YFFY	ZHHZ	CPPC	DXXD	vertrauen	küssen	gütig	träumen	genießen	sonnig	versagen	krank	gierig	töten	gemein	sterben	1	acq_USpleas_CSpleas2_RW	acq2_RW	2	8	480	1	300	300	488	50	0	1	1	blank2r.bmp	0	1	+	0	1	blank2r.bmp	492	1	JQQJ	492	1	blank2r.bmp	572	3	sonnig	866	1	!	1319	1	!	1386	0	0	0	0	0	0	0	0	0	0	0	0	0	0	0	0	0	0	0	0	0	0	0	0	0	0	0	0	0	0
082619	17:08:41	17:11:04	142941	5.0.10.0	5_exp_RW	113	Rpleas_acq	CS_A	LWWL	JQQJ	YFFY	ZHHZ	CPPC	DXXD	vertrauen	küssen	gütig	träumen	genießen	sonnig	versagen	krank	gierig	töten	gemein	sterben	1	acq_USunple_CSunple1_RW	acq2_RW	2	9	480	0	300	300	710	46	0	1	1	blank2r.bmp	0	1	+	0	1	blank2r.bmp	492	1	YFFY	492	1	blank2r.bmp	572	3	gierig	866	1	!	1319	1	!	-1	0	0	0	0	0	0	0	0	0	0	0	0	0	0	0	0	0	0	0	0	0	0	0	0	0	0	0	0	0	0
082619	17:08:41	17:11:06	145260	5.0.10.0	5_exp_RW	113	Rpleas_acq	CS_A	LWWL	JQQJ	YFFY	ZHHZ	CPPC	DXXD	vertrauen	küssen	gütig	träumen	genießen	sonnig	versagen	krank	gierig	töten	gemein	sterben	1	acq_USpleas_CSpleas1_RW	acq2_RW	2	10	480	1	300	300	516	50	0	1	1	blank2r.bmp	0	1	+	0	1	blank2r.bmp	492	1	LWWL	492	1	blank2r.bmp	572	1	vertrauen	866	1	!	1319	1	!	1412	0	0	0	0	0	0	0	0	0	0	0	0	0	0	0	0	0	0	0	0	0	0	0	0	0	0	0	0	0	0
082619	17:08:41	17:11:09	147432	5.0.10.0	5_exp_RW	113	Rpleas_acq	CS_A	LWWL	JQQJ	YFFY	ZHHZ	CPPC	DXXD	vertrauen	küssen	gütig	träumen	genießen	sonnig	versagen	krank	gierig	töten	gemein	sterben	1	acq_USpleas_CSpleas1_RW	acq2_RW	2	11	480	0	300	300	401	50	0	1	1	blank2r.bmp	0	1	+	0	1	blank2r.bmp	492	1	LWWL	492	1	blank2r.bmp	572	2	küssen	866	1	!	-1	1	!	-1	0	0	0	0	0	0	0	0	0	0	0	0	0	0	0	0	0	0	0	0	0	0	0	0	0	0	0	0	0	0
082619	17:08:41	17:11:11	149938	5.0.10.0	5_exp_RW	113	Rpleas_acq	CS_A	LWWL	JQQJ	YFFY	ZHHZ	CPPC	DXXD	vertrauen	küssen	gütig	träumen	genießen	sonnig	versagen	krank	gierig	töten	gemein	sterben	1	acq_USpleas_CSpleas2_RW	acq2_RW	2	12	480	1	300	300	482	46	0	0	1	blank2r.bmp	0	1	+	0	1	blank2r.bmp	492	1	JQQJ	492	1	blank2r.bmp	572	1	träumen	866	1	FEHLER	1705	1	!	1319	1	!	1386	0	0	0	0	0	0	0	0	0	0	0	0	0	0	0	0	0	0	0	0	0	0	0	0	0	0	0
082619	17:08:41	17:11:13	152097	5.0.10.0	5_exp_RW	113	Rpleas_acq	CS_A	LWWL	JQQJ	YFFY	ZHHZ	CPPC	DXXD	vertrauen	küssen	gütig	träumen	genießen	sonnig	versagen	krank	gierig	töten	gemein	sterben	1	acq_USpleas_CSpleas1_RW	acq2_RW	2	13	480	0	300	300	373	46	0	0	1	blank2r.bmp	0	1	+	0	1	blank2r.bmp	492	1	LWWL	492	1	blank2r.bmp	572	3	gütig	866	1	FEHLER	1586	1	!	-1	1	!	-1	0	0	0	0	0	0	0	0	0	0	0	0	0	0	0	0	0	0	0	0	0	0	0	0	0	0	0
082619	17:08:41	17:11:16	154336	5.0.10.0	5_exp_RW	113	Rpleas_acq	CS_A	LWWL	JQQJ	YFFY	ZHHZ	CPPC	DXXD	vertrauen	küssen	gütig	träumen	genießen	sonnig	versagen	krank	gierig	töten	gemein	sterben	1	acq_USunple_CSunple2_RW	acq2_RW	2	14	480	1	300	300	449	50	0	0	1	blank2r.bmp	0	1	+	0	1	blank2r.bmp	492	1	ZHHZ	492	1	blank2r.bmp	572	2	gemein	866	1	FEHLER	1665	1	!	1319	1	!	1346	0	0	0	0	0	0	0	0	0	0	0	0	0	0	0	0	0	0	0	0	0	0	0	0	0	0	0
082619	17:08:41	17:11:18	156402	5.0.10.0	5_exp_RW	113	Rpleas_acq	CS_A	LWWL	JQQJ	YFFY	ZHHZ	CPPC	DXXD	vertrauen	küssen	gütig	träumen	genießen	sonnig	versagen	krank	gierig	töten	gemein	sterben	1	acq_USunple_CSunple1_RW	acq2_RW	2	15	480	1	300	300	490	46	0	1	1	blank2r.bmp	0	1	+	0	1	blank2r.bmp	492	1	YFFY	492	1	blank2r.bmp	572	2	krank	866	1	!	1319	1	!	1386	0	0	0	0	0	0	0	0	0	0	0	0	0	0	0	0	0	0	0	0	0	0	0	0	0	0	0	0	0	0
082619	17:08:41	17:11:20	158641	5.0.10.0	5_exp_RW	113	Rpleas_acq	CS_A	LWWL	JQQJ	YFFY	ZHHZ	CPPC	DXXD	vertrauen	küssen	gütig	träumen	genießen	sonnig	versagen	krank	gierig	töten	gemein	sterben	1	acq_USunple_CSunple2_RW	acq2_RW	2	16	480	1	300	300	444	46	0	1	1	blank2r.bmp	0	1	+	0	1	blank2r.bmp	492	1	ZHHZ	492	1	blank2r.bmp	572	3	sterben	866	1	!	1319	1	!	1346	0	0	0	0	0	0	0	0	0	0	0	0	0	0	0	0	0	0	0	0	0	0	0	0	0	0	0	0	0	0
082619	17:08:41	17:11:22	160880	5.0.10.0	5_exp_RW	113	Rpleas_acq	CS_A	LWWL	JQQJ	YFFY	ZHHZ	CPPC	DXXD	vertrauen	küssen	gütig	träumen	genießen	sonnig	versagen	krank	gierig	töten	gemein	sterben	1	acq_USpleas_CSpleas1_RW	acq2_RW	2	17	480	1	300	300	426	50	0	1	1	blank2r.bmp	0	1	+	0	1	blank2r.bmp	492	1	LWWL	492	1	blank2r.bmp	572	1	vertrauen	866	1	!	1319	1	!	1332	0	0	0	0	0	0	0	0	0	0	0	0	0	0	0	0	0	0	0	0	0	0	0	0	0	0	0	0	0	0
082619	17:08:41	17:11:24	163119	5.0.10.0	5_exp_RW	113	Rpleas_acq	CS_A	LWWL	JQQJ	YFFY	ZHHZ	CPPC	DXXD	vertrauen	küssen	gütig	träumen	genießen	sonnig	versagen	krank	gierig	töten	gemein	sterben	1	acq_USunple_CSunple2_RW	acq2_RW	2	18	480	1	300	300	439	46	0	1	1	blank2r.bmp	0	1	+	0	1	blank2r.bmp	492	1	ZHHZ	492	1	blank2r.bmp	572	1	töten	866	1	!	1319	1	!	1346	0	0	0	0	0	0	0	0	0	0	0	0	0	0	0	0	0	0	0	0	0	0	0	0	0	0	0	0	0	0
082619	17:08:41	17:11:27	165478	5.0.10.0	5_exp_RW	113	Rpleas_acq	CS_A	LWWL	JQQJ	YFFY	ZHHZ	CPPC	DXXD	vertrauen	küssen	gütig	träumen	genießen	sonnig	versagen	krank	gierig	töten	gemein	sterben	1	acq_USunple_CSunple1_RW	acq2_RW	2	19	480	0	300	300	355	50	0	0	1	blank2r.bmp	0	1	+	0	1	blank2r.bmp	492	1	YFFY	492	1	blank2r.bmp	572	1	versagen	866	1	FEHLER	1559	1	!	-1	1	!	-1	0	0	0	0	0	0	0	0	0	0	0	0	0	0	0	0	0	0	0	0	0	0	0	0	0	0	0
082619	17:08:41	17:11:29	167491	5.0.10.0	5_exp_RW	113	Rpleas_acq	CS_A	LWWL	JQQJ	YFFY	ZHHZ	CPPC	DXXD	vertrauen	küssen	gütig	träumen	genießen	sonnig	versagen	krank	gierig	töten	gemein	sterben	1	acq_USpleas_CSpleas1_RW	acq2_RW	2	20	480	1	300	300	434	50	0	1	1	blank2r.bmp	0	1	+	0	1	blank2r.bmp	492	1	LWWL	492	1	blank2r.bmp	572	2	küssen	866	1	!	1319	1	!	1332	0	0	0	0	0	0	0	0	0	0	0	0	0	0	0	0	0	0	0	0	0	0	0	0	0	0	0	0	0	0
082619	17:08:41	17:11:31	169650	5.0.10.0	5_exp_RW	113	Rpleas_acq	CS_A	LWWL	JQQJ	YFFY	ZHHZ	CPPC	DXXD	vertrauen	küssen	gütig	träumen	genießen	sonnig	versagen	krank	gierig	töten	gemein	sterben	1	acq_USpleas_CSpleas1_RW	acq2_RW	2	21	480	0	300	300	388	50	0	1	1	blank2r.bmp	0	1	+	0	1	blank2r.bmp	492	1	LWWL	492	1	blank2r.bmp	572	3	gütig	866	1	!	-1	1	!	-1	0	0	0	0	0	0	0	0	0	0	0	0	0	0	0	0	0	0	0	0	0	0	0	0	0	0	0	0	0	0
082619	17:08:41	17:11:33	171836	5.0.10.0	5_exp_RW	113	Rpleas_acq	CS_A	LWWL	JQQJ	YFFY	ZHHZ	CPPC	DXXD	vertrauen	küssen	gütig	träumen	genießen	sonnig	versagen	krank	gierig	töten	gemein	sterben	1	acq_USunple_CSunple1_RW	acq2_RW	2	22	480	0	300	300	410	46	0	1	1	blank2r.bmp	0	1	+	0	1	blank2r.bmp	492	1	YFFY	492	1	blank2r.bmp	572	2	krank	866	1	!	-1	1	!	-1	0	0	0	0	0	0	0	0	0	0	0	0	0	0	0	0	0	0	0	0	0	0	0	0	0	0	0	0	0	0
082619	17:08:41	17:11:36	174515	5.0.10.0	5_exp_RW	113	Rpleas_acq	CS_A	LWWL	JQQJ	YFFY	ZHHZ	CPPC	DXXD	vertrauen	küssen	gütig	träumen	genießen	sonnig	versagen	krank	gierig	töten	gemein	sterben	1	acq_USunple_CSunple2_RW	acq2_RW	2	23	480	0	300	300	668	50	0	0	1	blank2r.bmp	0	1	+	0	1	blank2r.bmp	492	1	ZHHZ	492	1	blank2r.bmp	572	2	gemein	866	1	FEHLER	1879	1	!	1319	1	!	-1	0	0	0	0	0	0	0	0	0	0	0	0	0	0	0	0	0	0	0	0	0	0	0	0	0	0	0
082619	17:08:41	17:11:38	176434	5.0.10.0	5_exp_RW	113	Rpleas_acq	CS_A	LWWL	JQQJ	YFFY	ZHHZ	CPPC	DXXD	vertrauen	küssen	gütig	träumen	genießen	sonnig	versagen	krank	gierig	töten	gemein	sterben	1	acq_USpleas_CSpleas2_RW	acq2_RW	2	24	480	0	300	300	364	50	0	1	1	blank2r.bmp	0	1	+	0	1	blank2r.bmp	492	1	JQQJ	492	1	blank2r.bmp	572	3	sonnig	866	1	!	-1	1	!	-1	0	0	0	0	0	0	0	0	0	0	0	0	0	0	0	0	0	0	0	0	0	0	0	0	0	0	0	0	0	0
082619	17:08:41	17:11:51	189548	5.0.10.0	5_exp_RW	113	Rpleas_acq	CS_A	LWWL	JQQJ	YFFY	ZHHZ	CPPC	DXXD	vertrauen	küssen	gütig	träumen	genießen	sonnig	versagen	krank	gierig	töten	gemein	sterben	1	acq_USunple_CSunple1_RW	acq3_RW	3	1	453	1	300	300	423	46	0	1	1	blank2r.bmp	0	1	+	0	1	blank2r.bmp	492	1	YFFY	492	1	blank2r.bmp	572	1	versagen	866	1	!	1292	1	!	1319	0	0	0	0	0	0	0	0	0	0	0	0	0	0	0	0	0	0	0	0	0	0	0	0	0	0	0	0	0	0
082619	17:08:41	17:11:53	191694	5.0.10.0	5_exp_RW	113	Rpleas_acq	CS_A	LWWL	JQQJ	YFFY	ZHHZ	CPPC	DXXD	vertrauen	küssen	gütig	träumen	genießen	sonnig	versagen	krank	gierig	töten	gemein	sterben	1	acq_USpleas_CSpleas1_RW	acq3_RW	3	2	453	0	300	300	384	50	0	1	1	blank2r.bmp	0	1	+	0	1	blank2r.bmp	492	1	LWWL	492	1	blank2r.bmp	572	2	küssen	866	1	!	-1	1	!	-1	0	0	0	0	0	0	0	0	0	0	0	0	0	0	0	0	0	0	0	0	0	0	0	0	0	0	0	0	0	0
082619	17:08:41	17:11:55	193853	5.0.10.0	5_exp_RW	113	Rpleas_acq	CS_A	LWWL	JQQJ	YFFY	ZHHZ	CPPC	DXXD	vertrauen	küssen	gütig	träumen	genießen	sonnig	versagen	krank	gierig	töten	gemein	sterben	1	acq_USpleas_CSpleas2_RW	acq3_RW	3	3	453	0	300	300	377	50	0	1	1	blank2r.bmp	0	1	+	0	1	blank2r.bmp	492	1	JQQJ	492	1	blank2r.bmp	572	1	träumen	866	1	!	-1	1	!	-1	0	0	0	0	0	0	0	0	0	0	0	0	0	0	0	0	0	0	0	0	0	0	0	0	0	0	0	0	0	0
082619	17:08:41	17:11:57	195986	5.0.10.0	5_exp_RW	113	Rpleas_acq	CS_A	LWWL	JQQJ	YFFY	ZHHZ	CPPC	DXXD	vertrauen	küssen	gütig	träumen	genießen	sonnig	versagen	krank	gierig	töten	gemein	sterben	1	acq_USpleas_CSpleas1_RW	acq3_RW	3	4	453	0	300	300	341	50	0	1	1	blank2r.bmp	0	1	+	0	1	blank2r.bmp	492	1	LWWL	492	1	blank2r.bmp	572	1	vertrauen	866	1	!	-1	1	!	-1	0	0	0	0	0	0	0	0	0	0	0	0	0	0	0	0	0	0	0	0	0	0	0	0	0	0	0	0	0	0
082619	17:08:41	17:11:59	198105	5.0.10.0	5_exp_RW	113	Rpleas_acq	CS_A	LWWL	JQQJ	YFFY	ZHHZ	CPPC	DXXD	vertrauen	küssen	gütig	träumen	genießen	sonnig	versagen	krank	gierig	töten	gemein	sterben	1	acq_USpleas_CSpleas2_RW	acq3_RW	3	5	453	0	300	300	336	50	0	1	1	blank2r.bmp	0	1	+	0	1	blank2r.bmp	492	1	JQQJ	492	1	blank2r.bmp	572	2	genießen	866	1	!	-1	1	!	-1	0	0	0	0	0	0	0	0	0	0	0	0	0	0	0	0	0	0	0	0	0	0	0	0	0	0	0	0	0	0
082619	17:08:41	17:12:01	200171	5.0.10.0	5_exp_RW	113	Rpleas_acq	CS_A	LWWL	JQQJ	YFFY	ZHHZ	CPPC	DXXD	vertrauen	küssen	gütig	träumen	genießen	sonnig	versagen	krank	gierig	töten	gemein	sterben	1	acq_USpleas_CSpleas2_RW	acq3_RW	3	6	453	0	300	300	280	50	0	1	1	blank2r.bmp	0	1	+	0	1	blank2r.bmp	492	1	JQQJ	492	1	blank2r.bmp	572	3	sonnig	866	1	!	-1	1	!	-1	0	0	0	0	0	0	0	0	0	0	0	0	0	0	0	0	0	0	0	0	0	0	0	0	0	0	0	0	0	0
082619	17:08:41	17:12:04	202543	5.0.10.0	5_exp_RW	113	Rpleas_acq	CS_A	LWWL	JQQJ	YFFY	ZHHZ	CPPC	DXXD	vertrauen	küssen	gütig	träumen	genießen	sonnig	versagen	krank	gierig	töten	gemein	sterben	1	acq_USpleas_CSpleas2_RW	acq3_RW	3	7	453	0	300	300	579	50	0	1	1	blank2r.bmp	0	1	+	0	1	blank2r.bmp	492	1	JQQJ	492	1	blank2r.bmp	572	2	genießen	866	1	!	1292	1	!	-1	0	0	0	0	0	0	0	0	0	0	0	0	0	0	0	0	0	0	0	0	0	0	0	0	0	0	0	0	0	0
082619	17:08:41	17:12:06	204796	5.0.10.0	5_exp_RW	113	Rpleas_acq	CS_A	LWWL	JQQJ	YFFY	ZHHZ	CPPC	DXXD	vertrauen	küssen	gütig	träumen	genießen	sonnig	versagen	krank	gierig	töten	gemein	sterben	1	acq_USunple_CSunple1_RW	acq3_RW	3	8	453	1	300	300	436	46	0	1	1	blank2r.bmp	0	1	+	0	1	blank2r.bmp	492	1	YFFY	492	1	blank2r.bmp	572	3	gierig	866	1	!	1292	1	!	1332	0	0	0	0	0	0	0	0	0	0	0	0	0	0	0	0	0	0	0	0	0	0	0	0	0	0	0	0	0	0
082619	17:08:41	17:12:08	207035	5.0.10.0	5_exp_RW	113	Rpleas_acq	CS_A	LWWL	JQQJ	YFFY	ZHHZ	CPPC	DXXD	vertrauen	küssen	gütig	träumen	genießen	sonnig	versagen	krank	gierig	töten	gemein	sterben	1	acq_USunple_CSunple2_RW	acq3_RW	3	9	453	1	300	300	439	46	0	1	1	blank2r.bmp	0	1	+	0	1	blank2r.bmp	492	1	ZHHZ	492	1	blank2r.bmp	572	3	sterben	866	1	!	1292	1	!	1346	0	0	0	0	0	0	0	0	0	0	0	0	0	0	0	0	0	0	0	0	0	0	0	0	0	0	0	0	0	0
082619	17:08:41	17:12:10	209234	5.0.10.0	5_exp_RW	113	Rpleas_acq	CS_A	LWWL	JQQJ	YFFY	ZHHZ	CPPC	DXXD	vertrauen	küssen	gütig	träumen	genießen	sonnig	versagen	krank	gierig	töten	gemein	sterben	1	acq_USunple_CSunple2_RW	acq3_RW	3	10	453	1	300	300	399	46	0	1	1	blank2r.bmp	0	1	+	0	1	blank2r.bmp	492	1	ZHHZ	492	1	blank2r.bmp	572	1	töten	866	1	!	1292	1	!	1306	0	0	0	0	0	0	0	0	0	0	0	0	0	0	0	0	0	0	0	0	0	0	0	0	0	0	0	0	0	0
082619	17:08:41	17:12:13	211366	5.0.10.0	5_exp_RW	113	Rpleas_acq	CS_A	LWWL	JQQJ	YFFY	ZHHZ	CPPC	DXXD	vertrauen	küssen	gütig	träumen	genießen	sonnig	versagen	krank	gierig	töten	gemein	sterben	1	acq_USunple_CSunple1_RW	acq3_RW	3	11	453	0	300	300	348	46	0	1	1	blank2r.bmp	0	1	+	0	1	blank2r.bmp	492	1	YFFY	492	1	blank2r.bmp	572	3	gierig	866	1	!	-1	1	!	-1	0	0	0	0	0	0	0	0	0	0	0	0	0	0	0	0	0	0	0	0	0	0	0	0	0	0	0	0	0	0
082619	17:08:41	17:12:15	213659	5.0.10.0	5_exp_RW	113	Rpleas_acq	CS_A	LWWL	JQQJ	YFFY	ZHHZ	CPPC	DXXD	vertrauen	küssen	gütig	träumen	genießen	sonnig	versagen	krank	gierig	töten	gemein	sterben	1	acq_USunple_CSunple2_RW	acq3_RW	3	12	453	1	300	300	484	46	0	1	1	blank2r.bmp	0	1	+	0	1	blank2r.bmp	492	1	ZHHZ	492	1	blank2r.bmp	572	3	sterben	866	1	!	1292	1	!	1386	0	0	0	0	0	0	0	0	0	0	0	0	0	0	0	0	0	0	0	0	0	0	0	0	0	0	0	0	0	0
082619	17:08:41	17:12:17	215791	5.0.10.0	5_exp_RW	113	Rpleas_acq	CS_A	LWWL	JQQJ	YFFY	ZHHZ	CPPC	DXXD	vertrauen	küssen	gütig	träumen	genießen	sonnig	versagen	krank	gierig	töten	gemein	sterben	1	acq_USunple_CSunple2_RW	acq3_RW	3	13	453	0	300	300	368	46	0	1	1	blank2r.bmp	0	1	+	0	1	blank2r.bmp	492	1	ZHHZ	492	1	blank2r.bmp	572	1	töten	866	1	!	-1	1	!	-1	0	0	0	0	0	0	0	0	0	0	0	0	0	0	0	0	0	0	0	0	0	0	0	0	0	0	0	0	0	0
082619	17:08:41	17:12:19	218097	5.0.10.0	5_exp_RW	113	Rpleas_acq	CS_A	LWWL	JQQJ	YFFY	ZHHZ	CPPC	DXXD	vertrauen	küssen	gütig	träumen	genießen	sonnig	versagen	krank	gierig	töten	gemein	sterben	1	acq_USpleas_CSpleas2_RW	acq3_RW	3	14	453	0	300	300	299	46	0	0	1	blank2r.bmp	0	1	+	0	1	blank2r.bmp	492	1	JQQJ	492	1	blank2r.bmp	572	1	träumen	866	1	FEHLER	1506	1	!	-1	1	!	-1	0	0	0	0	0	0	0	0	0	0	0	0	0	0	0	0	0	0	0	0	0	0	0	0	0	0	0
082619	17:08:41	17:12:22	220376	5.0.10.0	5_exp_RW	113	Rpleas_acq	CS_A	LWWL	JQQJ	YFFY	ZHHZ	CPPC	DXXD	vertrauen	küssen	gütig	träumen	genießen	sonnig	versagen	krank	gierig	töten	gemein	sterben	1	acq_USunple_CSunple1_RW	acq3_RW	3	15	453	1	300	300	480	50	0	0	1	blank2r.bmp	0	1	+	0	1	blank2r.bmp	492	1	YFFY	492	1	blank2r.bmp	572	2	krank	866	1	FEHLER	1705	1	!	1292	1	!	1386	0	0	0	0	0	0	0	0	0	0	0	0	0	0	0	0	0	0	0	0	0	0	0	0	0	0	0
082619	17:08:41	17:12:23	222242	5.0.10.0	5_exp_RW	113	Rpleas_acq	CS_A	LWWL	JQQJ	YFFY	ZHHZ	CPPC	DXXD	vertrauen	küssen	gütig	träumen	genießen	sonnig	versagen	krank	gierig	töten	gemein	sterben	1	acq_USunple_CSunple2_RW	acq3_RW	3	16	453	0	300	300	308	46	0	1	1	blank2r.bmp	0	1	+	0	1	blank2r.bmp	492	1	ZHHZ	492	1	blank2r.bmp	572	2	gemein	866	1	!	-1	1	!	-1	0	0	0	0	0	0	0	0	0	0	0	0	0	0	0	0	0	0	0	0	0	0	0	0	0	0	0	0	0	0
082619	17:08:41	17:12:26	224334	5.0.10.0	5_exp_RW	113	Rpleas_acq	CS_A	LWWL	JQQJ	YFFY	ZHHZ	CPPC	DXXD	vertrauen	küssen	gütig	träumen	genießen	sonnig	versagen	krank	gierig	töten	gemein	sterben	1	acq_USpleas_CSpleas1_RW	acq3_RW	3	17	453	0	300	300	313	50	0	1	1	blank2r.bmp	0	1	+	0	1	blank2r.bmp	492	1	LWWL	492	1	blank2r.bmp	572	1	vertrauen	866	1	!	-1	1	!	-1	0	0	0	0	0	0	0	0	0	0	0	0	0	0	0	0	0	0	0	0	0	0	0	0	0	0	0	0	0	0
082619	17:08:41	17:12:28	226867	5.0.10.0	5_exp_RW	113	Rpleas_acq	CS_A	LWWL	JQQJ	YFFY	ZHHZ	CPPC	DXXD	vertrauen	küssen	gütig	träumen	genießen	sonnig	versagen	krank	gierig	töten	gemein	sterben	1	acq_USpleas_CSpleas1_RW	acq3_RW	3	18	453	1	300	300	509	46	0	0	1	blank2r.bmp	0	1	+	0	1	blank2r.bmp	492	1	LWWL	492	1	blank2r.bmp	572	2	küssen	866	1	FEHLER	1732	1	!	1292	1	!	1412	0	0	0	0	0	0	0	0	0	0	0	0	0	0	0	0	0	0	0	0	0	0	0	0	0	0	0
082619	17:08:41	17:12:30	228959	5.0.10.0	5_exp_RW	113	Rpleas_acq	CS_A	LWWL	JQQJ	YFFY	ZHHZ	CPPC	DXXD	vertrauen	küssen	gütig	träumen	genießen	sonnig	versagen	krank	gierig	töten	gemein	sterben	1	acq_USpleas_CSpleas1_RW	acq3_RW	3	19	453	0	300	300	314	46	0	0	1	blank2r.bmp	0	1	+	0	1	blank2r.bmp	492	1	LWWL	492	1	blank2r.bmp	572	3	gütig	866	1	FEHLER	1519	1	!	-1	1	!	-1	0	0	0	0	0	0	0	0	0	0	0	0	0	0	0	0	0	0	0	0	0	0	0	0	0	0	0
082619	17:08:41	17:12:32	230852	5.0.10.0	5_exp_RW	113	Rpleas_acq	CS_A	LWWL	JQQJ	YFFY	ZHHZ	CPPC	DXXD	vertrauen	küssen	gütig	träumen	genießen	sonnig	versagen	krank	gierig	töten	gemein	sterben	1	acq_USpleas_CSpleas1_RW	acq3_RW	3	20	453	0	300	300	336	50	0	1	1	blank2r.bmp	0	1	+	0	1	blank2r.bmp	492	1	LWWL	492	1	blank2r.bmp	572	1	vertrauen	866	1	!	-1	1	!	-1	0	0	0	0	0	0	0	0	0	0	0	0	0	0	0	0	0	0	0	0	0	0	0	0	0	0	0	0	0	0
082619	17:08:41	17:12:34	233104	5.0.10.0	5_exp_RW	113	Rpleas_acq	CS_A	LWWL	JQQJ	YFFY	ZHHZ	CPPC	DXXD	vertrauen	küssen	gütig	träumen	genießen	sonnig	versagen	krank	gierig	töten	gemein	sterben	1	acq_USunple_CSunple2_RW	acq3_RW	3	21	453	1	300	300	442	46	0	1	1	blank2r.bmp	0	1	+	0	1	blank2r.bmp	492	1	ZHHZ	492	1	blank2r.bmp	572	3	sterben	866	1	!	1292	1	!	1346	0	0	0	0	0	0	0	0	0	0	0	0	0	0	0	0	0	0	0	0	0	0	0	0	0	0	0	0	0	0
082619	17:08:41	17:12:37	235383	5.0.10.0	5_exp_RW	113	Rpleas_acq	CS_A	LWWL	JQQJ	YFFY	ZHHZ	CPPC	DXXD	vertrauen	küssen	gütig	träumen	genießen	sonnig	versagen	krank	gierig	töten	gemein	sterben	1	acq_USunple_CSunple1_RW	acq3_RW	3	22	453	0	300	300	278	50	0	0	1	blank2r.bmp	0	1	+	0	1	blank2r.bmp	492	1	YFFY	492	1	blank2r.bmp	572	1	versagen	866	1	FEHLER	1492	1	!	-1	1	!	-1	0	0	0	0	0	0	0	0	0	0	0	0	0	0	0	0	0	0	0	0	0	0	0	0	0	0	0
082619	17:08:41	17:12:39	237396	5.0.10.0	5_exp_RW	113	Rpleas_acq	CS_A	LWWL	JQQJ	YFFY	ZHHZ	CPPC	DXXD	vertrauen	küssen	gütig	träumen	genießen	sonnig	versagen	krank	gierig	töten	gemein	sterben	1	acq_USpleas_CSpleas2_RW	acq3_RW	3	23	453	1	300	300	430	50	0	1	1	blank2r.bmp	0	1	+	0	1	blank2r.bmp	492	1	JQQJ	492	1	blank2r.bmp	572	1	träumen	866	1	!	1292	1	!	1332	0	0	0	0	0	0	0	0	0	0	0	0	0	0	0	0	0	0	0	0	0	0	0	0	0	0	0	0	0	0
082619	17:08:41	17:12:41	239595	5.0.10.0	5_exp_RW	113	Rpleas_acq	CS_A	LWWL	JQQJ	YFFY	ZHHZ	CPPC	DXXD	vertrauen	küssen	gütig	träumen	genießen	sonnig	versagen	krank	gierig	töten	gemein	sterben	1	acq_USunple_CSunple1_RW	acq3_RW	3	24	453	1	300	300	401	46	0	1	1	blank2r.bmp	0	1	+	0	1	blank2r.bmp	492	1	YFFY	492	1	blank2r.bmp	572	2	krank	866	1	!	1292	1	!	1306	0	0	0	0	0	0	0	0	0	0	0	0	0	0	0	0	0	0	0	0	0	0	0	0	0	0	0	0	0	0
082619	17:08:41	17:12:53	251950	5.0.10.0	5_exp_RW	113	Rpleas_acq	CS_A	LWWL	JQQJ	YFFY	ZHHZ	CPPC	DXXD	vertrauen	küssen	gütig	träumen	genießen	sonnig	versagen	krank	gierig	töten	gemein	sterben	1	acq_USunple_CSunple1_RW	acq4567_RW	4	1	400	1	300	300	397	46	0	1	1	blank2r.bmp	0	1	+	0	1	blank2r.bmp	492	1	YFFY	492	1	blank2r.bmp	572	3	gierig	866	1	!	1239	1	!	1292	0	0	0	0	0	0	0	0	0	0	0	0	0	0	0	0	0	0	0	0	0	0	0	0	0	0	0	0	0	0
082619	17:08:41	17:12:55	254122	5.0.10.0	5_exp_RW	113	Rpleas_acq	CS_A	LWWL	JQQJ	YFFY	ZHHZ	CPPC	DXXD	vertrauen	küssen	gütig	träumen	genießen	sonnig	versagen	krank	gierig	töten	gemein	sterben	1	acq_USpleas_CSpleas1_RW	acq4567_RW	4	2	400	1	300	300	380	50	0	1	1	blank2r.bmp	0	1	+	0	1	blank2r.bmp	492	1	LWWL	492	1	blank2r.bmp	572	3	gütig	866	1	!	1239	1	!	1279	0	0	0	0	0	0	0	0	0	0	0	0	0	0	0	0	0	0	0	0	0	0	0	0	0	0	0	0	0	0
082619	17:08:41	17:12:58	256281	5.0.10.0	5_exp_RW	113	Rpleas_acq	CS_A	LWWL	JQQJ	YFFY	ZHHZ	CPPC	DXXD	vertrauen	küssen	gütig	träumen	genießen	sonnig	versagen	krank	gierig	töten	gemein	sterben	1	acq_USunple_CSunple2_RW	acq4567_RW	4	3	400	1	300	300	372	50	0	0	1	blank2r.bmp	0	1	+	0	1	blank2r.bmp	492	1	ZHHZ	492	1	blank2r.bmp	572	1	töten	866	1	!	1239	1	!	1266	0	0	0	0	0	0	0	0	0	0	0	0	0	0	0	0	0	0	0	0	0	0	0	0	0	0	0	0	0	0
082619	17:08:41	17:13:00	258334	5.0.10.0	5_exp_RW	113	Rpleas_acq	CS_A	LWWL	JQQJ	YFFY	ZHHZ	CPPC	DXXD	vertrauen	küssen	gütig	träumen	genießen	sonnig	versagen	krank	gierig	töten	gemein	sterben	1	acq_USpleas_CSpleas1_RW	acq4567_RW	4	4	400	0	300	300	266	46	0	0	1	blank2r.bmp	0	1	+	0	1	blank2r.bmp	492	1	LWWL	492	1	blank2r.bmp	572	2	küssen	866	1	!	-1	1	!	-1	0	0	0	0	0	0	0	0	0	0	0	0	0	0	0	0	0	0	0	0	0	0	0	0	0	0	0	0	0	0
082619	17:08:41	17:13:05	263518	5.0.10.0	5_exp_RW	113	Rpleas_acq	CS_A	LWWL	JQQJ	YFFY	ZHHZ	CPPC	DXXD	vertrauen	küssen	gütig	träumen	genießen	sonnig	versagen	krank	gierig	töten	gemein	sterben	1	acq_USpleas_CSpleas2_RW	acq4567_RW	4	5	400	0	300	300	3405	50	0	1	1	blank2r.bmp	0	1	+	0	1	blank2r.bmp	492	1	JQQJ	492	1	blank2r.bmp	572	3	sonnig	866	1	!	1239	1	!	-1	0	0	0	0	0	0	0	0	0	0	0	0	0	0	0	0	0	0	0	0	0	0	0	0	0	0	0	0	0	0
082619	17:08:41	17:13:07	265891	5.0.10.0	5_exp_RW	113	Rpleas_acq	CS_A	LWWL	JQQJ	YFFY	ZHHZ	CPPC	DXXD	vertrauen	küssen	gütig	träumen	genießen	sonnig	versagen	krank	gierig	töten	gemein	sterben	1	acq_USunple_CSunple1_RW	acq4567_RW	4	6	400	0	300	300	588	46	0	1	1	blank2r.bmp	0	1	+	0	1	blank2r.bmp	492	1	YFFY	492	1	blank2r.bmp	572	1	versagen	866	1	!	1239	1	!	-1	0	0	0	0	0	0	0	0	0	0	0	0	0	0	0	0	0	0	0	0	0	0	0	0	0	0	0	0	0	0
082619	17:08:41	17:13:09	268116	5.0.10.0	5_exp_RW	113	Rpleas_acq	CS_A	LWWL	JQQJ	YFFY	ZHHZ	CPPC	DXXD	vertrauen	küssen	gütig	träumen	genießen	sonnig	versagen	krank	gierig	töten	gemein	sterben	1	acq_USunple_CSunple2_RW	acq4567_RW	4	7	400	1	300	300	425	46	0	1	1	blank2r.bmp	0	1	+	0	1	blank2r.bmp	492	1	ZHHZ	492	1	blank2r.bmp	572	2	gemein	866	1	!	1239	1	!	1319	0	0	0	0	0	0	0	0	0	0	0	0	0	0	0	0	0	0	0	0	0	0	0	0	0	0	0	0	0	0
082619	17:08:41	17:13:12	270315	5.0.10.0	5_exp_RW	113	Rpleas_acq	CS_A	LWWL	JQQJ	YFFY	ZHHZ	CPPC	DXXD	vertrauen	küssen	gütig	träumen	genießen	sonnig	versagen	krank	gierig	töten	gemein	sterben	1	acq_USpleas_CSpleas2_RW	acq4567_RW	4	8	400	1	300	300	401	46	0	0	1	blank2r.bmp	0	1	+	0	1	blank2r.bmp	492	1	JQQJ	492	1	blank2r.bmp	572	2	genießen	866	1	!	1239	1	!	1306	0	0	0	0	0	0	0	0	0	0	0	0	0	0	0	0	0	0	0	0	0	0	0	0	0	0	0	0	0	0
082619	17:08:41	17:13:14	272608	5.0.10.0	5_exp_RW	113	Rpleas_acq	CS_A	LWWL	JQQJ	YFFY	ZHHZ	CPPC	DXXD	vertrauen	küssen	gütig	träumen	genießen	sonnig	versagen	krank	gierig	töten	gemein	sterben	1	acq_USunple_CSunple1_RW	acq4567_RW	4	9	400	0	300	300	525	46	0	1	1	blank2r.bmp	0	1	+	0	1	blank2r.bmp	492	1	YFFY	492	1	blank2r.bmp	572	1	versagen	866	1	!	1239	1	!	-1	0	0	0	0	0	0	0	0	0	0	0	0	0	0	0	0	0	0	0	0	0	0	0	0	0	0	0	0	0	0
082619	17:08:41	17:13:16	274807	5.0.10.0	5_exp_RW	113	Rpleas_acq	CS_A	LWWL	JQQJ	YFFY	ZHHZ	CPPC	DXXD	vertrauen	küssen	gütig	träumen	genießen	sonnig	versagen	krank	gierig	töten	gemein	sterben	1	acq_USunple_CSunple2_RW	acq4567_RW	4	10	400	1	300	300	388	46	0	1	1	blank2r.bmp	0	1	+	0	1	blank2r.bmp	492	1	ZHHZ	492	1	blank2r.bmp	572	2	gemein	866	1	!	1239	1	!	1292	0	0	0	0	0	0	0	0	0	0	0	0	0	0	0	0	0	0	0	0	0	0	0	0	0	0	0	0	0	0
082619	17:08:41	17:13:18	277059	5.0.10.0	5_exp_RW	113	Rpleas_acq	CS_A	LWWL	JQQJ	YFFY	ZHHZ	CPPC	DXXD	vertrauen	küssen	gütig	träumen	genießen	sonnig	versagen	krank	gierig	töten	gemein	sterben	1	acq_USpleas_CSpleas2_RW	acq4567_RW	4	11	400	1	300	300	464	50	0	1	1	blank2r.bmp	0	1	+	0	1	blank2r.bmp	492	1	JQQJ	492	1	blank2r.bmp	572	2	genießen	866	1	!	1239	1	!	1359	0	0	0	0	0	0	0	0	0	0	0	0	0	0	0	0	0	0	0	0	0	0	0	0	0	0	0	0	0	0
082619	17:08:41	17:13:20	279152	5.0.10.0	5_exp_RW	113	Rpleas_acq	CS_A	LWWL	JQQJ	YFFY	ZHHZ	CPPC	DXXD	vertrauen	küssen	gütig	träumen	genießen	sonnig	versagen	krank	gierig	töten	gemein	sterben	1	acq_USpleas_CSpleas2_RW	acq4567_RW	4	12	400	0	300	300	329	50	0	1	1	blank2r.bmp	0	1	+	0	1	blank2r.bmp	492	1	JQQJ	492	1	blank2r.bmp	572	3	sonnig	866	1	!	-1	1	!	-1	0	0	0	0	0	0	0	0	0	0	0	0	0	0	0	0	0	0	0	0	0	0	0	0	0	0	0	0	0	0
082619	17:08:41	17:13:23	281311	5.0.10.0	5_exp_RW	113	Rpleas_acq	CS_A	LWWL	JQQJ	YFFY	ZHHZ	CPPC	DXXD	vertrauen	küssen	gütig	träumen	genießen	sonnig	versagen	krank	gierig	töten	gemein	sterben	1	acq_USpleas_CSpleas1_RW	acq4567_RW	4	13	400	1	300	300	348	50	0	1	1	blank2r.bmp	0	1	+	0	1	blank2r.bmp	492	1	LWWL	492	1	blank2r.bmp	572	2	küssen	866	1	!	1239	1	!	1252	0	0	0	0	0	0	0	0	0	0	0	0	0	0	0	0	0	0	0	0	0	0	0	0	0	0	0	0	0	0
082619	17:08:41	17:13:25	283497	5.0.10.0	5_exp_RW	113	Rpleas_acq	CS_A	LWWL	JQQJ	YFFY	ZHHZ	CPPC	DXXD	vertrauen	küssen	gütig	träumen	genießen	sonnig	versagen	krank	gierig	töten	gemein	sterben	1	acq_USpleas_CSpleas2_RW	acq4567_RW	4	14	400	1	300	300	395	50	0	1	1	blank2r.bmp	0	1	+	0	1	blank2r.bmp	492	1	JQQJ	492	1	blank2r.bmp	572	1	träumen	866	1	!	1239	1	!	1292	0	0	0	0	0	0	0	0	0	0	0	0	0	0	0	0	0	0	0	0	0	0	0	0	0	0	0	0	0	0
082619	17:08:41	17:13:27	285643	5.0.10.0	5_exp_RW	113	Rpleas_acq	CS_A	LWWL	JQQJ	YFFY	ZHHZ	CPPC	DXXD	vertrauen	küssen	gütig	träumen	genießen	sonnig	versagen	krank	gierig	töten	gemein	sterben	1	acq_USpleas_CSpleas1_RW	acq4567_RW	4	15	400	1	300	300	346	50	0	1	1	blank2r.bmp	0	1	+	0	1	blank2r.bmp	492	1	LWWL	492	1	blank2r.bmp	572	3	gütig	866	1	!	1239	1	!	1252	0	0	0	0	0	0	0	0	0	0	0	0	0	0	0	0	0	0	0	0	0	0	0	0	0	0	0	0	0	0
082619	17:08:41	17:13:29	287855	5.0.10.0	5_exp_RW	113	Rpleas_acq	CS_A	LWWL	JQQJ	YFFY	ZHHZ	CPPC	DXXD	vertrauen	küssen	gütig	träumen	genießen	sonnig	versagen	krank	gierig	töten	gemein	sterben	1	acq_USunple_CSunple1_RW	acq4567_RW	4	16	400	1	300	300	418	46	0	1	1	blank2r.bmp	0	1	+	0	1	blank2r.bmp	492	1	YFFY	492	1	blank2r.bmp	572	3	gierig	866	1	!	1239	1	!	1319	0	0	0	0	0	0	0	0	0	0	0	0	0	0	0	0	0	0	0	0	0	0	0	0	0	0	0	0	0	0
082619	17:08:41	17:13:31	290121	5.0.10.0	5_exp_RW	113	Rpleas_acq	CS_A	LWWL	JQQJ	YFFY	ZHHZ	CPPC	DXXD	vertrauen	küssen	gütig	träumen	genießen	sonnig	versagen	krank	gierig	töten	gemein	sterben	1	acq_USunple_CSunple2_RW	acq4567_RW	4	17	400	1	300	300	461	50	0	0	1	blank2r.bmp	0	1	+	0	1	blank2r.bmp	492	1	ZHHZ	492	1	blank2r.bmp	572	1	töten	866	1	!	1239	1	!	1359	0	0	0	0	0	0	0	0	0	0	0	0	0	0	0	0	0	0	0	0	0	0	0	0	0	0	0	0	0	0
082619	17:08:41	17:13:34	292346	5.0.10.0	5_exp_RW	113	Rpleas_acq	CS_A	LWWL	JQQJ	YFFY	ZHHZ	CPPC	DXXD	vertrauen	küssen	gütig	träumen	genießen	sonnig	versagen	krank	gierig	töten	gemein	sterben	1	acq_USpleas_CSpleas1_RW	acq4567_RW	4	18	400	1	300	300	428	50	0	1	1	blank2r.bmp	0	1	+	0	1	blank2r.bmp	492	1	LWWL	492	1	blank2r.bmp	572	1	vertrauen	866	1	!	1239	1	!	1332	0	0	0	0	0	0	0	0	0	0	0	0	0	0	0	0	0	0	0	0	0	0	0	0	0	0	0	0	0	0
082619	17:08:41	17:13:36	294519	5.0.10.0	5_exp_RW	113	Rpleas_acq	CS_A	LWWL	JQQJ	YFFY	ZHHZ	CPPC	DXXD	vertrauen	küssen	gütig	träumen	genießen	sonnig	versagen	krank	gierig	töten	gemein	sterben	1	acq_USunple_CSunple1_RW	acq4567_RW	4	19	400	1	300	300	375	46	0	1	1	blank2r.bmp	0	1	+	0	1	blank2r.bmp	492	1	YFFY	492	1	blank2r.bmp	572	2	krank	866	1	!	1239	1	!	1279	0	0	0	0	0	0	0	0	0	0	0	0	0	0	0	0	0	0	0	0	0	0	0	0	0	0	0	0	0	0
082619	17:08:41	17:13:38	296771	5.0.10.0	5_exp_RW	113	Rpleas_acq	CS_A	LWWL	JQQJ	YFFY	ZHHZ	CPPC	DXXD	vertrauen	küssen	gütig	träumen	genießen	sonnig	versagen	krank	gierig	töten	gemein	sterben	1	acq_USunple_CSunple2_RW	acq4567_RW	4	20	400	1	300	300	464	46	0	1	1	blank2r.bmp	0	1	+	0	1	blank2r.bmp	492	1	ZHHZ	492	1	blank2r.bmp	572	3	sterben	866	1	!	1239	1	!	1359	0	0	0	0	0	0	0	0	0	0	0	0	0	0	0	0	0	0	0	0	0	0	0	0	0	0	0	0	0	0
082619	17:08:41	17:13:40	298850	5.0.10.0	5_exp_RW	113	Rpleas_acq	CS_A	LWWL	JQQJ	YFFY	ZHHZ	CPPC	DXXD	vertrauen	küssen	gütig	träumen	genießen	sonnig	versagen	krank	gierig	töten	gemein	sterben	1	acq_USunple_CSunple2_RW	acq4567_RW	4	21	400	0	300	300	314	50	0	0	1	blank2r.bmp	0	1	+	0	1	blank2r.bmp	492	1	ZHHZ	492	1	blank2r.bmp	572	2	gemein	866	1	!	-1	1	!	-1	0	0	0	0	0	0	0	0	0	0	0	0	0	0	0	0	0	0	0	0	0	0	0	0	0	0	0	0	0	0
082619	17:08:41	17:13:42	301036	5.0.10.0	5_exp_RW	113	Rpleas_acq	CS_A	LWWL	JQQJ	YFFY	ZHHZ	CPPC	DXXD	vertrauen	küssen	gütig	träumen	genießen	sonnig	versagen	krank	gierig	töten	gemein	sterben	1	acq_USpleas_CSpleas2_RW	acq4567_RW	4	22	400	1	300	300	377	50	0	1	1	blank2r.bmp	0	1	+	0	1	blank2r.bmp	492	1	JQQJ	492	1	blank2r.bmp	572	3	sonnig	866	1	!	1239	1	!	1279	0	0	0	0	0	0	0	0	0	0	0	0	0	0	0	0	0	0	0	0	0	0	0	0	0	0	0	0	0	0
082619	17:08:41	17:13:45	303289	5.0.10.0	5_exp_RW	113	Rpleas_acq	CS_A	LWWL	JQQJ	YFFY	ZHHZ	CPPC	DXXD	vertrauen	küssen	gütig	träumen	genießen	sonnig	versagen	krank	gierig	töten	gemein	sterben	1	acq_USunple_CSunple1_RW	acq4567_RW	4	23	400	0	300	300	479	46	0	1	1	blank2r.bmp	0	1	+	0	1	blank2r.bmp	492	1	YFFY	492	1	blank2r.bmp	572	2	krank	866	1	!	1239	1	!	-1	0	0	0	0	0	0	0	0	0	0	0	0	0	0	0	0	0	0	0	0	0	0	0	0	0	0	0	0	0	0
082619	17:08:41	17:13:47	305501	5.0.10.0	5_exp_RW	113	Rpleas_acq	CS_A	LWWL	JQQJ	YFFY	ZHHZ	CPPC	DXXD	vertrauen	küssen	gütig	träumen	genießen	sonnig	versagen	krank	gierig	töten	gemein	sterben	1	acq_USunple_CSunple1_RW	acq4567_RW	4	24	400	1	300	300	411	46	0	1	1	blank2r.bmp	0	1	+	0	1	blank2r.bmp	492	1	YFFY	492	1	blank2r.bmp	572	1	versagen	866	1	!	1239	1	!	1306	0	0	0	0	0	0	0	0	0	0	0	0	0	0	0	0	0	0	0	0	0	0	0	0	0	0	0	0	0	0
082619	17:08:41	17:13:49	307714	5.0.10.0	5_exp_RW	113	Rpleas_acq	CS_A	LWWL	JQQJ	YFFY	ZHHZ	CPPC	DXXD	vertrauen	küssen	gütig	träumen	genießen	sonnig	versagen	krank	gierig	töten	gemein	sterben	1	acq_USpleas_CSpleas2_RW	acq4567_RW	4	25	400	1	300	300	403	50	0	1	1	blank2r.bmp	0	1	+	0	1	blank2r.bmp	492	1	JQQJ	492	1	blank2r.bmp	572	2	genießen	866	1	!	1239	1	!	1306	0	0	0	0	0	0	0	0	0	0	0	0	0	0	0	0	0	0	0	0	0	0	0	0	0	0	0	0	0	0
082619	17:08:41	17:13:51	309953	5.0.10.0	5_exp_RW	113	Rpleas_acq	CS_A	LWWL	JQQJ	YFFY	ZHHZ	CPPC	DXXD	vertrauen	küssen	gütig	träumen	genießen	sonnig	versagen	krank	gierig	töten	gemein	sterben	1	acq_USpleas_CSpleas1_RW	acq4567_RW	4	26	400	1	300	300	435	46	0	0	1	blank2r.bmp	0	1	+	0	1	blank2r.bmp	492	1	LWWL	492	1	blank2r.bmp	572	3	gütig	866	1	!	1239	1	!	1332	0	0	0	0	0	0	0	0	0	0	0	0	0	0	0	0	0	0	0	0	0	0	0	0	0	0	0	0	0	0
082619	17:08:41	17:13:53	312218	5.0.10.0	5_exp_RW	113	Rpleas_acq	CS_A	LWWL	JQQJ	YFFY	ZHHZ	CPPC	DXXD	vertrauen	küssen	gütig	träumen	genießen	sonnig	versagen	krank	gierig	töten	gemein	sterben	1	acq_USunple_CSunple2_RW	acq4567_RW	4	27	400	0	300	300	501	50	0	0	1	blank2r.bmp	0	1	+	0	1	blank2r.bmp	492	1	ZHHZ	492	1	blank2r.bmp	572	1	töten	866	1	!	1239	1	!	-1	0	0	0	0	0	0	0	0	0	0	0	0	0	0	0	0	0	0	0	0	0	0	0	0	0	0	0	0	0	0
082619	17:08:41	17:13:56	314471	5.0.10.0	5_exp_RW	113	Rpleas_acq	CS_A	LWWL	JQQJ	YFFY	ZHHZ	CPPC	DXXD	vertrauen	küssen	gütig	träumen	genießen	sonnig	versagen	krank	gierig	töten	gemein	sterben	1	acq_USunple_CSunple1_RW	acq4567_RW	4	28	400	1	300	300	442	46	0	1	1	blank2r.bmp	0	1	+	0	1	blank2r.bmp	492	1	YFFY	492	1	blank2r.bmp	572	3	gierig	866	1	!	1239	1	!	1346	0	0	0	0	0	0	0	0	0	0	0	0	0	0	0	0	0	0	0	0	0	0	0	0	0	0	0	0	0	0
082619	17:08:41	17:13:58	316657	5.0.10.0	5_exp_RW	113	Rpleas_acq	CS_A	LWWL	JQQJ	YFFY	ZHHZ	CPPC	DXXD	vertrauen	küssen	gütig	träumen	genießen	sonnig	versagen	krank	gierig	töten	gemein	sterben	1	acq_USpleas_CSpleas2_RW	acq4567_RW	4	29	400	1	300	300	373	50	0	1	1	blank2r.bmp	0	1	+	0	1	blank2r.bmp	492	1	JQQJ	492	1	blank2r.bmp	572	1	träumen	866	1	!	1239	1	!	1279	0	0	0	0	0	0	0	0	0	0	0	0	0	0	0	0	0	0	0	0	0	0	0	0	0	0	0	0	0	0
082619	17:08:41	17:14:00	318962	5.0.10.0	5_exp_RW	113	Rpleas_acq	CS_A	LWWL	JQQJ	YFFY	ZHHZ	CPPC	DXXD	vertrauen	küssen	gütig	träumen	genießen	sonnig	versagen	krank	gierig	töten	gemein	sterben	1	acq_USpleas_CSpleas1_RW	acq4567_RW	4	30	400	0	300	300	534	46	0	0	1	blank2r.bmp	0	1	+	0	1	blank2r.bmp	492	1	LWWL	492	1	blank2r.bmp	572	1	vertrauen	866	1	!	1239	1	!	-1	0	0	0	0	0	0	0	0	0	0	0	0	0	0	0	0	0	0	0	0	0	0	0	0	0	0	0	0	0	0
082619	17:08:41	17:14:02	321228	5.0.10.0	5_exp_RW	113	Rpleas_acq	CS_A	LWWL	JQQJ	YFFY	ZHHZ	CPPC	DXXD	vertrauen	küssen	gütig	träumen	genießen	sonnig	versagen	krank	gierig	töten	gemein	sterben	1	acq_USpleas_CSpleas1_RW	acq4567_RW	4	31	400	0	300	300	490	50	0	1	1	blank2r.bmp	0	1	+	0	1	blank2r.bmp	492	1	LWWL	492	1	blank2r.bmp	572	2	küssen	866	1	!	1239	1	!	-1	0	0	0	0	0	0	0	0	0	0	0	0	0	0	0	0	0	0	0	0	0	0	0	0	0	0	0	0	0	0
082619	17:08:41	17:14:05	323467	5.0.10.0	5_exp_RW	113	Rpleas_acq	CS_A	LWWL	JQQJ	YFFY	ZHHZ	CPPC	DXXD	vertrauen	küssen	gütig	träumen	genießen	sonnig	versagen	krank	gierig	töten	gemein	sterben	1	acq_USunple_CSunple2_RW	acq4567_RW	4	32	400	1	300	300	433	46	0	1	1	blank2r.bmp	0	1	+	0	1	blank2r.bmp	492	1	ZHHZ	492	1	blank2r.bmp	572	3	sterben	866	1	!	1239	1	!	1332	0	0	0	0	0	0	0	0	0	0	0	0	0	0	0	0	0	0	0	0	0	0	0	0	0	0	0	0	0	0
082619	17:08:41	17:14:07	325626	5.0.10.0	5_exp_RW	113	Rpleas_acq	CS_A	LWWL	JQQJ	YFFY	ZHHZ	CPPC	DXXD	vertrauen	küssen	gütig	träumen	genießen	sonnig	versagen	krank	gierig	töten	gemein	sterben	1	acq_USpleas_CSpleas1_RW	acq4567_RW	4	33	400	1	300	300	363	50	0	1	1	blank2r.bmp	0	1	+	0	1	blank2r.bmp	492	1	LWWL	492	1	blank2r.bmp	572	2	küssen	866	1	!	1239	1	!	1266	0	0	0	0	0	0	0	0	0	0	0	0	0	0	0	0	0	0	0	0	0	0	0	0	0	0	0	0	0	0
082619	17:08:41	17:14:09	327865	5.0.10.0	5_exp_RW	113	Rpleas_acq	CS_A	LWWL	JQQJ	YFFY	ZHHZ	CPPC	DXXD	vertrauen	küssen	gütig	träumen	genießen	sonnig	versagen	krank	gierig	töten	gemein	sterben	1	acq_USunple_CSunple1_RW	acq4567_RW	4	34	400	1	300	300	451	46	0	1	1	blank2r.bmp	0	1	+	0	1	blank2r.bmp	492	1	YFFY	492	1	blank2r.bmp	572	1	versagen	866	1	!	1239	1	!	1346	0	0	0	0	0	0	0	0	0	0	0	0	0	0	0	0	0	0	0	0	0	0	0	0	0	0	0	0	0	0
082619	17:08:41	17:14:11	330171	5.0.10.0	5_exp_RW	113	Rpleas_acq	CS_A	LWWL	JQQJ	YFFY	ZHHZ	CPPC	DXXD	vertrauen	küssen	gütig	träumen	genießen	sonnig	versagen	krank	gierig	töten	gemein	sterben	1	acq_USpleas_CSpleas2_RW	acq4567_RW	4	35	400	0	300	300	534	50	0	1	1	blank2r.bmp	0	1	+	0	1	blank2r.bmp	492	1	JQQJ	492	1	blank2r.bmp	572	3	sonnig	866	1	!	1239	1	!	-1	0	0	0	0	0	0	0	0	0	0	0	0	0	0	0	0	0	0	0	0	0	0	0	0	0	0	0	0	0	0
082619	17:08:41	17:14:14	332357	5.0.10.0	5_exp_RW	113	Rpleas_acq	CS_A	LWWL	JQQJ	YFFY	ZHHZ	CPPC	DXXD	vertrauen	küssen	gütig	träumen	genießen	sonnig	versagen	krank	gierig	töten	gemein	sterben	1	acq_USunple_CSunple2_RW	acq4567_RW	4	36	400	1	300	300	374	50	0	0	1	blank2r.bmp	0	1	+	0	1	blank2r.bmp	492	1	ZHHZ	492	1	blank2r.bmp	572	1	töten	866	1	!	1239	1	!	1279	0	0	0	0	0	0	0	0	0	0	0	0	0	0	0	0	0	0	0	0	0	0	0	0	0	0	0	0	0	0
082619	17:08:41	17:14:16	334556	5.0.10.0	5_exp_RW	113	Rpleas_acq	CS_A	LWWL	JQQJ	YFFY	ZHHZ	CPPC	DXXD	vertrauen	küssen	gütig	träumen	genießen	sonnig	versagen	krank	gierig	töten	gemein	sterben	1	acq_USpleas_CSpleas1_RW	acq4567_RW	4	37	400	1	300	300	406	50	0	1	1	blank2r.bmp	0	1	+	0	1	blank2r.bmp	492	1	LWWL	492	1	blank2r.bmp	572	1	vertrauen	866	1	!	1239	1	!	1306	0	0	0	0	0	0	0	0	0	0	0	0	0	0	0	0	0	0	0	0	0	0	0	0	0	0	0	0	0	0
082619	17:08:41	17:14:18	336782	5.0.10.0	5_exp_RW	113	Rpleas_acq	CS_A	LWWL	JQQJ	YFFY	ZHHZ	CPPC	DXXD	vertrauen	küssen	gütig	träumen	genießen	sonnig	versagen	krank	gierig	töten	gemein	sterben	1	acq_USpleas_CSpleas2_RW	acq4567_RW	4	38	400	1	300	300	427	50	0	1	1	blank2r.bmp	0	1	+	0	1	blank2r.bmp	492	1	JQQJ	492	1	blank2r.bmp	572	2	genießen	866	1	!	1239	1	!	1332	0	0	0	0	0	0	0	0	0	0	0	0	0	0	0	0	0	0	0	0	0	0	0	0	0	0	0	0	0	0
082619	17:08:41	17:14:20	338981	5.0.10.0	5_exp_RW	113	Rpleas_acq	CS_A	LWWL	JQQJ	YFFY	ZHHZ	CPPC	DXXD	vertrauen	küssen	gütig	träumen	genießen	sonnig	versagen	krank	gierig	töten	gemein	sterben	1	acq_USunple_CSunple1_RW	acq4567_RW	4	39	400	1	300	300	407	46	0	1	1	blank2r.bmp	0	1	+	0	1	blank2r.bmp	492	1	YFFY	492	1	blank2r.bmp	572	2	krank	866	1	!	1239	1	!	1306	0	0	0	0	0	0	0	0	0	0	0	0	0	0	0	0	0	0	0	0	0	0	0	0	0	0	0	0	0	0
082619	17:08:41	17:14:22	341180	5.0.10.0	5_exp_RW	113	Rpleas_acq	CS_A	LWWL	JQQJ	YFFY	ZHHZ	CPPC	DXXD	vertrauen	küssen	gütig	träumen	genießen	sonnig	versagen	krank	gierig	töten	gemein	sterben	1	acq_USunple_CSunple2_RW	acq4567_RW	4	40	400	1	300	300	400	50	0	0	1	blank2r.bmp	0	1	+	0	1	blank2r.bmp	492	1	ZHHZ	492	1	blank2r.bmp	572	2	gemein	866	1	!	1239	1	!	1306	0	0	0	0	0	0	0	0	0	0	0	0	0	0	0	0	0	0	0	0	0	0	0	0	0	0	0	0	0	0
082619	17:08:41	17:14:26	344565	5.0.10.0	5_exp_RW	113	Rpleas_acq	CS_A	LWWL	JQQJ	YFFY	ZHHZ	CPPC	DXXD	vertrauen	küssen	gütig	träumen	genießen	sonnig	versagen	krank	gierig	töten	gemein	sterben	1	acq_USunple_CSunple1_RW	acq4567_RW	4	41	400	0	300	300	1623	46	0	1	1	blank2r.bmp	0	1	+	0	1	blank2r.bmp	492	1	YFFY	492	1	blank2r.bmp	572	3	gierig	866	1	!	1239	1	!	-1	0	0	0	0	0	0	0	0	0	0	0	0	0	0	0	0	0	0	0	0	0	0	0	0	0	0	0	0	0	0
082619	17:08:41	17:14:28	346778	5.0.10.0	5_exp_RW	113	Rpleas_acq	CS_A	LWWL	JQQJ	YFFY	ZHHZ	CPPC	DXXD	vertrauen	küssen	gütig	träumen	genießen	sonnig	versagen	krank	gierig	töten	gemein	sterben	1	acq_USunple_CSunple2_RW	acq4567_RW	4	42	400	1	300	300	386	46	0	1	1	blank2r.bmp	0	1	+	0	1	blank2r.bmp	492	1	ZHHZ	492	1	blank2r.bmp	572	3	sterben	866	1	!	1239	1	!	1292	0	0	0	0	0	0	0	0	0	0	0	0	0	0	0	0	0	0	0	0	0	0	0	0	0	0	0	0	0	0
082619	17:08:41	17:14:30	348897	5.0.10.0	5_exp_RW	113	Rpleas_acq	CS_A	LWWL	JQQJ	YFFY	ZHHZ	CPPC	DXXD	vertrauen	küssen	gütig	träumen	genießen	sonnig	versagen	krank	gierig	töten	gemein	sterben	1	acq_USunple_CSunple2_RW	acq4567_RW	4	43	400	0	300	300	333	46	0	1	1	blank2r.bmp	0	1	+	0	1	blank2r.bmp	492	1	ZHHZ	492	1	blank2r.bmp	572	3	sterben	866	1	!	-1	1	!	-1	0	0	0	0	0	0	0	0	0	0	0	0	0	0	0	0	0	0	0	0	0	0	0	0	0	0	0	0	0	0
082619	17:08:41	17:14:32	351082	5.0.10.0	5_exp_RW	113	Rpleas_acq	CS_A	LWWL	JQQJ	YFFY	ZHHZ	CPPC	DXXD	vertrauen	küssen	gütig	träumen	genießen	sonnig	versagen	krank	gierig	töten	gemein	sterben	1	acq_USunple_CSunple1_RW	acq4567_RW	4	44	400	1	300	300	376	46	0	1	1	blank2r.bmp	0	1	+	0	1	blank2r.bmp	492	1	YFFY	492	1	blank2r.bmp	572	3	gierig	866	1	!	1239	1	!	1279	0	0	0	0	0	0	0	0	0	0	0	0	0	0	0	0	0	0	0	0	0	0	0	0	0	0	0	0	0	0
082619	17:08:41	17:14:34	353242	5.0.10.0	5_exp_RW	113	Rpleas_acq	CS_A	LWWL	JQQJ	YFFY	ZHHZ	CPPC	DXXD	vertrauen	küssen	gütig	träumen	genießen	sonnig	versagen	krank	gierig	töten	gemein	sterben	1	acq_USpleas_CSpleas2_RW	acq4567_RW	4	45	400	1	300	300	346	50	0	1	1	blank2r.bmp	0	1	+	0	1	blank2r.bmp	492	1	JQQJ	492	1	blank2r.bmp	572	1	träumen	866	1	!	1239	1	!	1252	0	0	0	0	0	0	0	0	0	0	0	0	0	0	0	0	0	0	0	0	0	0	0	0	0	0	0	0	0	0
082619	17:08:41	17:14:37	355427	5.0.10.0	5_exp_RW	113	Rpleas_acq	CS_A	LWWL	JQQJ	YFFY	ZHHZ	CPPC	DXXD	vertrauen	küssen	gütig	träumen	genießen	sonnig	versagen	krank	gierig	töten	gemein	sterben	1	acq_USpleas_CSpleas2_RW	acq4567_RW	4	46	400	1	300	300	393	50	0	1	1	blank2r.bmp	0	1	+	0	1	blank2r.bmp	492	1	JQQJ	492	1	blank2r.bmp	572	1	träumen	866	1	!	1239	1	!	1292	0	0	0	0	0	0	0	0	0	0	0	0	0	0	0	0	0	0	0	0	0	0	0	0	0	0	0	0	0	0
082619	17:08:41	17:14:39	357573	5.0.10.0	5_exp_RW	113	Rpleas_acq	CS_A	LWWL	JQQJ	YFFY	ZHHZ	CPPC	DXXD	vertrauen	küssen	gütig	träumen	genießen	sonnig	versagen	krank	gierig	töten	gemein	sterben	1	acq_USunple_CSunple1_RW	acq4567_RW	4	47	400	1	300	300	346	46	0	1	1	blank2r.bmp	0	1	+	0	1	blank2r.bmp	492	1	YFFY	492	1	blank2r.bmp	572	2	krank	866	1	!	1239	1	!	1252	0	0	0	0	0	0	0	0	0	0	0	0	0	0	0	0	0	0	0	0	0	0	0	0	0	0	0	0	0	0
082619	17:08:41	17:14:41	359826	5.0.10.0	5_exp_RW	113	Rpleas_acq	CS_A	LWWL	JQQJ	YFFY	ZHHZ	CPPC	DXXD	vertrauen	küssen	gütig	träumen	genießen	sonnig	versagen	krank	gierig	töten	gemein	sterben	1	acq_USunple_CSunple1_RW	acq4567_RW	4	48	400	1	300	300	438	46	0	1	1	blank2r.bmp	0	1	+	0	1	blank2r.bmp	492	1	YFFY	492	1	blank2r.bmp	572	1	versagen	866	1	!	1239	1	!	1346	0	0	0	0	0	0	0	0	0	0	0	0	0	0	0	0	0	0	0	0	0	0	0	0	0	0	0	0	0	0
082619	17:08:41	17:14:43	362038	5.0.10.0	5_exp_RW	113	Rpleas_acq	CS_A	LWWL	JQQJ	YFFY	ZHHZ	CPPC	DXXD	vertrauen	küssen	gütig	träumen	genießen	sonnig	versagen	krank	gierig	töten	gemein	sterben	1	acq_USunple_CSunple2_RW	acq4567_RW	4	49	400	1	300	300	416	46	0	1	1	blank2r.bmp	0	1	+	0	1	blank2r.bmp	492	1	ZHHZ	492	1	blank2r.bmp	572	1	töten	866	1	!	1239	1	!	1319	0	0	0	0	0	0	0	0	0	0	0	0	0	0	0	0	0	0	0	0	0	0	0	0	0	0	0	0	0	0
082619	17:08:41	17:14:45	364184	5.0.10.0	5_exp_RW	113	Rpleas_acq	CS_A	LWWL	JQQJ	YFFY	ZHHZ	CPPC	DXXD	vertrauen	küssen	gütig	träumen	genießen	sonnig	versagen	krank	gierig	töten	gemein	sterben	1	acq_USunple_CSunple1_RW	acq4567_RW	4	50	400	1	300	300	346	46	0	1	1	blank2r.bmp	0	1	+	0	1	blank2r.bmp	492	1	YFFY	492	1	blank2r.bmp	572	2	krank	866	1	!	1239	1	!	1252	0	0	0	0	0	0	0	0	0	0	0	0	0	0	0	0	0	0	0	0	0	0	0	0	0	0	0	0	0	0
082619	17:08:41	17:14:47	366250	5.0.10.0	5_exp_RW	113	Rpleas_acq	CS_A	LWWL	JQQJ	YFFY	ZHHZ	CPPC	DXXD	vertrauen	küssen	gütig	träumen	genießen	sonnig	versagen	krank	gierig	töten	gemein	sterben	1	acq_USpleas_CSpleas1_RW	acq4567_RW	4	51	400	0	300	300	297	46	0	0	1	blank2r.bmp	0	1	+	0	1	blank2r.bmp	492	1	LWWL	492	1	blank2r.bmp	572	3	gütig	866	1	!	-1	1	!	-1	0	0	0	0	0	0	0	0	0	0	0	0	0	0	0	0	0	0	0	0	0	0	0	0	0	0	0	0	0	0
082619	17:08:41	17:14:50	368542	5.0.10.0	5_exp_RW	113	Rpleas_acq	CS_A	LWWL	JQQJ	YFFY	ZHHZ	CPPC	DXXD	vertrauen	küssen	gütig	träumen	genießen	sonnig	versagen	krank	gierig	töten	gemein	sterben	1	acq_USpleas_CSpleas1_RW	acq4567_RW	4	52	400	0	300	300	511	50	0	1	1	blank2r.bmp	0	1	+	0	1	blank2r.bmp	492	1	LWWL	492	1	blank2r.bmp	572	3	gütig	866	1	!	1239	1	!	-1	0	0	0	0	0	0	0	0	0	0	0	0	0	0	0	0	0	0	0	0	0	0	0	0	0	0	0	0	0	0
082619	17:08:41	17:14:52	370648	5.0.10.0	5_exp_RW	113	Rpleas_acq	CS_A	LWWL	JQQJ	YFFY	ZHHZ	CPPC	DXXD	vertrauen	küssen	gütig	träumen	genießen	sonnig	versagen	krank	gierig	töten	gemein	sterben	1	acq_USpleas_CSpleas2_RW	acq4567_RW	4	53	400	0	300	300	310	50	0	1	1	blank2r.bmp	0	1	+	0	1	blank2r.bmp	492	1	JQQJ	492	1	blank2r.bmp	572	3	sonnig	866	1	!	-1	1	!	-1	0	0	0	0	0	0	0	0	0	0	0	0	0	0	0	0	0	0	0	0	0	0	0	0	0	0	0	0	0	0
082619	17:08:41	17:14:54	372834	5.0.10.0	5_exp_RW	113	Rpleas_acq	CS_A	LWWL	JQQJ	YFFY	ZHHZ	CPPC	DXXD	vertrauen	küssen	gütig	träumen	genießen	sonnig	versagen	krank	gierig	töten	gemein	sterben	1	acq_USpleas_CSpleas2_RW	acq4567_RW	4	54	400	1	300	300	370	50	0	1	1	blank2r.bmp	0	1	+	0	1	blank2r.bmp	492	1	JQQJ	492	1	blank2r.bmp	572	2	genießen	866	1	!	1239	1	!	1266	0	0	0	0	0	0	0	0	0	0	0	0	0	0	0	0	0	0	0	0	0	0	0	0	0	0	0	0	0	0
082619	17:08:41	17:14:56	375006	5.0.10.0	5_exp_RW	113	Rpleas_acq	CS_A	LWWL	JQQJ	YFFY	ZHHZ	CPPC	DXXD	vertrauen	küssen	gütig	träumen	genießen	sonnig	versagen	krank	gierig	töten	gemein	sterben	1	acq_USpleas_CSpleas1_RW	acq4567_RW	4	55	400	1	300	300	373	46	0	0	1	blank2r.bmp	0	1	+	0	1	blank2r.bmp	492	1	LWWL	492	1	blank2r.bmp	572	1	vertrauen	866	1	!	1239	1	!	1279	0	0	0	0	0	0	0	0	0	0	0	0	0	0	0	0	0	0	0	0	0	0	0	0	0	0	0	0	0	0
082619	17:08:41	17:14:58	377258	5.0.10.0	5_exp_RW	113	Rpleas_acq	CS_A	LWWL	JQQJ	YFFY	ZHHZ	CPPC	DXXD	vertrauen	küssen	gütig	träumen	genießen	sonnig	versagen	krank	gierig	töten	gemein	sterben	1	acq_USpleas_CSpleas2_RW	acq4567_RW	4	56	400	0	300	300	483	50	0	1	1	blank2r.bmp	0	1	+	0	1	blank2r.bmp	492	1	JQQJ	492	1	blank2r.bmp	572	2	genießen	866	1	!	1239	1	!	-1	0	0	0	0	0	0	0	0	0	0	0	0	0	0	0	0	0	0	0	0	0	0	0	0	0	0	0	0	0	0
082619	17:08:41	17:15:01	379431	5.0.10.0	5_exp_RW	113	Rpleas_acq	CS_A	LWWL	JQQJ	YFFY	ZHHZ	CPPC	DXXD	vertrauen	küssen	gütig	träumen	genießen	sonnig	versagen	krank	gierig	töten	gemein	sterben	1	acq_USpleas_CSpleas1_RW	acq4567_RW	4	57	400	1	300	300	370	50	0	1	1	blank2r.bmp	0	1	+	0	1	blank2r.bmp	492	1	LWWL	492	1	blank2r.bmp	572	2	küssen	866	1	!	1239	1	!	1266	0	0	0	0	0	0	0	0	0	0	0	0	0	0	0	0	0	0	0	0	0	0	0	0	0	0	0	0	0	0
082619	17:08:41	17:15:03	381670	5.0.10.0	5_exp_RW	113	Rpleas_acq	CS_A	LWWL	JQQJ	YFFY	ZHHZ	CPPC	DXXD	vertrauen	küssen	gütig	träumen	genießen	sonnig	versagen	krank	gierig	töten	gemein	sterben	1	acq_USunple_CSunple2_RW	acq4567_RW	4	58	400	1	300	300	439	50	0	0	1	blank2r.bmp	0	1	+	0	1	blank2r.bmp	492	1	ZHHZ	492	1	blank2r.bmp	572	2	gemein	866	1	!	1239	1	!	1346	0	0	0	0	0	0	0	0	0	0	0	0	0	0	0	0	0	0	0	0	0	0	0	0	0	0	0	0	0	0
082619	17:08:41	17:15:05	383896	5.0.10.0	5_exp_RW	113	Rpleas_acq	CS_A	LWWL	JQQJ	YFFY	ZHHZ	CPPC	DXXD	vertrauen	küssen	gütig	träumen	genießen	sonnig	versagen	krank	gierig	töten	gemein	sterben	1	acq_USunple_CSunple2_RW	acq4567_RW	4	59	400	1	300	300	436	50	0	0	1	blank2r.bmp	0	1	+	0	1	blank2r.bmp	492	1	ZHHZ	492	1	blank2r.bmp	572	3	sterben	866	1	!	1239	1	!	1332	0	0	0	0	0	0	0	0	0	0	0	0	0	0	0	0	0	0	0	0	0	0	0	0	0	0	0	0	0	0
082619	17:08:41	17:15:07	386082	5.0.10.0	5_exp_RW	113	Rpleas_acq	CS_A	LWWL	JQQJ	YFFY	ZHHZ	CPPC	DXXD	vertrauen	küssen	gütig	träumen	genießen	sonnig	versagen	krank	gierig	töten	gemein	sterben	1	acq_USpleas_CSpleas1_RW	acq4567_RW	4	60	400	1	300	300	396	50	0	1	1	blank2r.bmp	0	1	+	0	1	blank2r.bmp	492	1	LWWL	492	1	blank2r.bmp	572	2	küssen	866	1	!	1239	1	!	1292	0	0	0	0	0	0	0	0	0	0	0	0	0	0	0	0	0	0	0	0	0	0	0	0	0	0	0	0	0	0
082619	17:08:41	17:15:10	388294	5.0.10.0	5_exp_RW	113	Rpleas_acq	CS_A	LWWL	JQQJ	YFFY	ZHHZ	CPPC	DXXD	vertrauen	küssen	gütig	träumen	genießen	sonnig	versagen	krank	gierig	töten	gemein	sterben	1	acq_USunple_CSunple1_RW	acq4567_RW	4	61	400	1	300	300	424	46	0	1	1	blank2r.bmp	0	1	+	0	1	blank2r.bmp	492	1	YFFY	492	1	blank2r.bmp	572	3	gierig	866	1	!	1239	1	!	1319	0	0	0	0	0	0	0	0	0	0	0	0	0	0	0	0	0	0	0	0	0	0	0	0	0	0	0	0	0	0
082619	17:08:41	17:15:12	390506	5.0.10.0	5_exp_RW	113	Rpleas_acq	CS_A	LWWL	JQQJ	YFFY	ZHHZ	CPPC	DXXD	vertrauen	küssen	gütig	träumen	genießen	sonnig	versagen	krank	gierig	töten	gemein	sterben	1	acq_USpleas_CSpleas2_RW	acq4567_RW	4	62	400	1	300	300	424	50	0	1	1	blank2r.bmp	0	1	+	0	1	blank2r.bmp	492	1	JQQJ	492	1	blank2r.bmp	572	1	träumen	866	1	!	1239	1	!	1319	0	0	0	0	0	0	0	0	0	0	0	0	0	0	0	0	0	0	0	0	0	0	0	0	0	0	0	0	0	0
082619	17:08:41	17:15:14	392732	5.0.10.0	5_exp_RW	113	Rpleas_acq	CS_A	LWWL	JQQJ	YFFY	ZHHZ	CPPC	DXXD	vertrauen	küssen	gütig	träumen	genießen	sonnig	versagen	krank	gierig	töten	gemein	sterben	1	acq_USpleas_CSpleas2_RW	acq4567_RW	4	63	400	1	300	300	433	50	0	1	1	blank2r.bmp	0	1	+	0	1	blank2r.bmp	492	1	JQQJ	492	1	blank2r.bmp	572	3	sonnig	866	1	!	1239	1	!	1332	0	0	0	0	0	0	0	0	0	0	0	0	0	0	0	0	0	0	0	0	0	0	0	0	0	0	0	0	0	0
082619	17:08:41	17:15:16	394971	5.0.10.0	5_exp_RW	113	Rpleas_acq	CS_A	LWWL	JQQJ	YFFY	ZHHZ	CPPC	DXXD	vertrauen	küssen	gütig	träumen	genießen	sonnig	versagen	krank	gierig	töten	gemein	sterben	1	acq_USpleas_CSpleas1_RW	acq4567_RW	4	64	400	1	300	300	450	50	0	1	1	blank2r.bmp	0	1	+	0	1	blank2r.bmp	492	1	LWWL	492	1	blank2r.bmp	572	1	vertrauen	866	1	!	1239	1	!	1346	0	0	0	0	0	0	0	0	0	0	0	0	0	0	0	0	0	0	0	0	0	0	0	0	0	0	0	0	0	0
082619	17:08:41	17:15:18	397184	5.0.10.0	5_exp_RW	113	Rpleas_acq	CS_A	LWWL	JQQJ	YFFY	ZHHZ	CPPC	DXXD	vertrauen	küssen	gütig	träumen	genießen	sonnig	versagen	krank	gierig	töten	gemein	sterben	1	acq_USunple_CSunple1_RW	acq4567_RW	4	65	400	1	300	300	419	46	0	1	1	blank2r.bmp	0	1	+	0	1	blank2r.bmp	492	1	YFFY	492	1	blank2r.bmp	572	1	versagen	866	1	!	1239	1	!	1319	0	0	0	0	0	0	0	0	0	0	0	0	0	0	0	0	0	0	0	0	0	0	0	0	0	0	0	0	0	0
082619	17:08:41	17:15:20	399276	5.0.10.0	5_exp_RW	113	Rpleas_acq	CS_A	LWWL	JQQJ	YFFY	ZHHZ	CPPC	DXXD	vertrauen	küssen	gütig	träumen	genießen	sonnig	versagen	krank	gierig	töten	gemein	sterben	1	acq_USunple_CSunple2_RW	acq4567_RW	4	66	400	0	300	300	328	46	0	1	1	blank2r.bmp	0	1	+	0	1	blank2r.bmp	492	1	ZHHZ	492	1	blank2r.bmp	572	1	töten	866	1	!	-1	1	!	-1	0	0	0	0	0	0	0	0	0	0	0	0	0	0	0	0	0	0	0	0	0	0	0	0	0	0	0	0	0	0
082619	17:08:41	17:15:23	401529	5.0.10.0	5_exp_RW	113	Rpleas_acq	CS_A	LWWL	JQQJ	YFFY	ZHHZ	CPPC	DXXD	vertrauen	küssen	gütig	träumen	genießen	sonnig	versagen	krank	gierig	töten	gemein	sterben	1	acq_USunple_CSunple1_RW	acq4567_RW	4	67	400	1	300	300	438	46	0	1	1	blank2r.bmp	0	1	+	0	1	blank2r.bmp	492	1	YFFY	492	1	blank2r.bmp	572	1	versagen	866	1	!	1239	1	!	1346	0	0	0	0	0	0	0	0	0	0	0	0	0	0	0	0	0	0	0	0	0	0	0	0	0	0	0	0	0	0
082619	17:08:41	17:15:25	403608	5.0.10.0	5_exp_RW	113	Rpleas_acq	CS_A	LWWL	JQQJ	YFFY	ZHHZ	CPPC	DXXD	vertrauen	küssen	gütig	träumen	genießen	sonnig	versagen	krank	gierig	töten	gemein	sterben	1	acq_USpleas_CSpleas1_RW	acq4567_RW	4	68	400	0	300	300	314	46	0	0	1	blank2r.bmp	0	1	+	0	1	blank2r.bmp	492	1	LWWL	492	1	blank2r.bmp	572	3	gütig	866	1	!	-1	1	!	-1	0	0	0	0	0	0	0	0	0	0	0	0	0	0	0	0	0	0	0	0	0	0	0	0	0	0	0	0	0	0
082619	17:08:41	17:15:27	405860	5.0.10.0	5_exp_RW	113	Rpleas_acq	CS_A	LWWL	JQQJ	YFFY	ZHHZ	CPPC	DXXD	vertrauen	küssen	gütig	träumen	genießen	sonnig	versagen	krank	gierig	töten	gemein	sterben	1	acq_USunple_CSunple2_RW	acq4567_RW	4	69	400	1	300	300	439	46	0	1	1	blank2r.bmp	0	1	+	0	1	blank2r.bmp	492	1	ZHHZ	492	1	blank2r.bmp	572	2	gemein	866	1	!	1239	1	!	1346	0	0	0	0	0	0	0	0	0	0	0	0	0	0	0	0	0	0	0	0	0	0	0	0	0	0	0	0	0	0
082619	17:08:41	17:15:29	408046	5.0.10.0	5_exp_RW	113	Rpleas_acq	CS_A	LWWL	JQQJ	YFFY	ZHHZ	CPPC	DXXD	vertrauen	küssen	gütig	träumen	genießen	sonnig	versagen	krank	gierig	töten	gemein	sterben	1	acq_USunple_CSunple2_RW	acq4567_RW	4	70	400	1	300	300	390	46	0	1	1	blank2r.bmp	0	1	+	0	1	blank2r.bmp	492	1	ZHHZ	492	1	blank2r.bmp	572	3	sterben	866	1	!	1239	1	!	1292	0	0	0	0	0	0	0	0	0	0	0	0	0	0	0	0	0	0	0	0	0	0	0	0	0	0	0	0	0	0
082619	17:08:41	17:15:31	410205	5.0.10.0	5_exp_RW	113	Rpleas_acq	CS_A	LWWL	JQQJ	YFFY	ZHHZ	CPPC	DXXD	vertrauen	küssen	gütig	träumen	genießen	sonnig	versagen	krank	gierig	töten	gemein	sterben	1	acq_USunple_CSunple2_RW	acq4567_RW	4	71	400	1	300	300	367	46	0	1	1	blank2r.bmp	0	1	+	0	1	blank2r.bmp	492	1	ZHHZ	492	1	blank2r.bmp	572	2	gemein	866	1	!	1239	1	!	1266	0	0	0	0	0	0	0	0	0	0	0	0	0	0	0	0	0	0	0	0	0	0	0	0	0	0	0	0	0	0
082619	17:08:41	17:15:34	412417	5.0.10.0	5_exp_RW	113	Rpleas_acq	CS_A	LWWL	JQQJ	YFFY	ZHHZ	CPPC	DXXD	vertrauen	küssen	gütig	träumen	genießen	sonnig	versagen	krank	gierig	töten	gemein	sterben	1	acq_USpleas_CSpleas1_RW	acq4567_RW	4	72	400	1	300	300	402	50	0	1	1	blank2r.bmp	0	1	+	0	1	blank2r.bmp	492	1	LWWL	492	1	blank2r.bmp	572	2	küssen	866	1	!	1239	1	!	1306	0	0	0	0	0	0	0	0	0	0	0	0	0	0	0	0	0	0	0	0	0	0	0	0	0	0	0	0	0	0
082619	17:08:41	17:15:36	414577	5.0.10.0	5_exp_RW	113	Rpleas_acq	CS_A	LWWL	JQQJ	YFFY	ZHHZ	CPPC	DXXD	vertrauen	küssen	gütig	träumen	genießen	sonnig	versagen	krank	gierig	töten	gemein	sterben	1	acq_USpleas_CSpleas2_RW	acq4567_RW	4	73	400	1	300	300	367	50	0	1	1	blank2r.bmp	0	1	+	0	1	blank2r.bmp	492	1	JQQJ	492	1	blank2r.bmp	572	3	sonnig	866	1	!	1239	1	!	1266	0	0	0	0	0	0	0	0	0	0	0	0	0	0	0	0	0	0	0	0	0	0	0	0	0	0	0	0	0	0
082619	17:08:41	17:15:38	416736	5.0.10.0	5_exp_RW	113	Rpleas_acq	CS_A	LWWL	JQQJ	YFFY	ZHHZ	CPPC	DXXD	vertrauen	küssen	gütig	träumen	genießen	sonnig	versagen	krank	gierig	töten	gemein	sterben	1	acq_USunple_CSunple2_RW	acq4567_RW	4	74	400	1	300	300	359	46	0	1	1	blank2r.bmp	0	1	+	0	1	blank2r.bmp	492	1	ZHHZ	492	1	blank2r.bmp	572	1	töten	866	1	!	1239	1	!	1266	0	0	0	0	0	0	0	0	0	0	0	0	0	0	0	0	0	0	0	0	0	0	0	0	0	0	0	0	0	0
082619	17:08:41	17:15:40	418988	5.0.10.0	5_exp_RW	113	Rpleas_acq	CS_A	LWWL	JQQJ	YFFY	ZHHZ	CPPC	DXXD	vertrauen	küssen	gütig	träumen	genießen	sonnig	versagen	krank	gierig	töten	gemein	sterben	1	acq_USpleas_CSpleas1_RW	acq4567_RW	4	75	400	0	300	300	479	46	0	0	1	blank2r.bmp	0	1	+	0	1	blank2r.bmp	492	1	LWWL	492	1	blank2r.bmp	572	1	vertrauen	866	1	!	1239	1	!	-1	0	0	0	0	0	0	0	0	0	0	0	0	0	0	0	0	0	0	0	0	0	0	0	0	0	0	0	0	0	0
082619	17:08:41	17:15:42	421254	5.0.10.0	5_exp_RW	113	Rpleas_acq	CS_A	LWWL	JQQJ	YFFY	ZHHZ	CPPC	DXXD	vertrauen	küssen	gütig	träumen	genießen	sonnig	versagen	krank	gierig	töten	gemein	sterben	1	acq_USpleas_CSpleas1_RW	acq4567_RW	4	76	400	0	300	300	479	46	0	0	1	blank2r.bmp	0	1	+	0	1	blank2r.bmp	492	1	LWWL	492	1	blank2r.bmp	572	3	gütig	866	1	!	1239	1	!	-1	0	0	0	0	0	0	0	0	0	0	0	0	0	0	0	0	0	0	0	0	0	0	0	0	0	0	0	0	0	0
082619	17:08:41	17:15:45	423493	5.0.10.0	5_exp_RW	113	Rpleas_acq	CS_A	LWWL	JQQJ	YFFY	ZHHZ	CPPC	DXXD	vertrauen	küssen	gütig	träumen	genießen	sonnig	versagen	krank	gierig	töten	gemein	sterben	1	acq_USunple_CSunple1_RW	acq4567_RW	4	77	400	1	300	300	416	46	0	1	1	blank2r.bmp	0	1	+	0	1	blank2r.bmp	492	1	YFFY	492	1	blank2r.bmp	572	3	gierig	866	1	!	1239	1	!	1319	0	0	0	0	0	0	0	0	0	0	0	0	0	0	0	0	0	0	0	0	0	0	0	0	0	0	0	0	0	0
082619	17:08:41	17:15:47	425745	5.0.10.0	5_exp_RW	113	Rpleas_acq	CS_A	LWWL	JQQJ	YFFY	ZHHZ	CPPC	DXXD	vertrauen	küssen	gütig	träumen	genießen	sonnig	versagen	krank	gierig	töten	gemein	sterben	1	acq_USpleas_CSpleas2_RW	acq4567_RW	4	78	400	1	300	300	454	50	0	1	1	blank2r.bmp	0	1	+	0	1	blank2r.bmp	492	1	JQQJ	492	1	blank2r.bmp	572	2	genießen	866	1	!	1239	1	!	1359	0	0	0	0	0	0	0	0	0	0	0	0	0	0	0	0	0	0	0	0	0	0	0	0	0	0	0	0	0	0
082619	17:08:41	17:15:49	427998	5.0.10.0	5_exp_RW	113	Rpleas_acq	CS_A	LWWL	JQQJ	YFFY	ZHHZ	CPPC	DXXD	vertrauen	küssen	gütig	träumen	genießen	sonnig	versagen	krank	gierig	töten	gemein	sterben	1	acq_USunple_CSunple1_RW	acq4567_RW	4	79	400	0	300	300	479	50	0	0	1	blank2r.bmp	0	1	+	0	1	blank2r.bmp	492	1	YFFY	492	1	blank2r.bmp	572	2	krank	866	1	!	1239	1	!	-1	0	0	0	0	0	0	0	0	0	0	0	0	0	0	0	0	0	0	0	0	0	0	0	0	0	0	0	0	0	0
082619	17:08:41	17:15:51	430264	5.0.10.0	5_exp_RW	113	Rpleas_acq	CS_A	LWWL	JQQJ	YFFY	ZHHZ	CPPC	DXXD	vertrauen	küssen	gütig	träumen	genießen	sonnig	versagen	krank	gierig	töten	gemein	sterben	1	acq_USpleas_CSpleas2_RW	acq4567_RW	4	80	400	0	300	300	479	50	0	1	1	blank2r.bmp	0	1	+	0	1	blank2r.bmp	492	1	JQQJ	492	1	blank2r.bmp	572	1	träumen	866	1	!	1239	1	!	-1	0	0	0	0	0	0	0	0	0	0	0	0	0	0	0	0	0	0	0	0	0	0	0	0	0	0	0	0	0	0
082619	17:08:41	17:15:59	437341	5.0.10.0	5_exp_RW	113	Rpleas_acq	CS_A	LWWL	JQQJ	YFFY	ZHHZ	CPPC	DXXD	vertrauen	küssen	gütig	träumen	genießen	sonnig	versagen	krank	gierig	töten	gemein	sterben	1	acq_USpleas_CSpleas1_RW	acq4567_RW	5	1	400	0	300	300	608	50	0	1	1	blank2r.bmp	0	1	+	0	1	blank2r.bmp	492	1	LWWL	492	1	blank2r.bmp	572	1	vertrauen	866	1	!	1239	1	!	-1	0	0	0	0	0	0	0	0	0	0	0	0	0	0	0	0	0	0	0	0	0	0	0	0	0	0	0	0	0	0
082619	17:08:41	17:16:01	439553	5.0.10.0	5_exp_RW	113	Rpleas_acq	CS_A	LWWL	JQQJ	YFFY	ZHHZ	CPPC	DXXD	vertrauen	küssen	gütig	träumen	genießen	sonnig	versagen	krank	gierig	töten	gemein	sterben	1	acq_USpleas_CSpleas1_RW	acq4567_RW	5	2	400	1	300	300	399	50	0	1	1	blank2r.bmp	0	1	+	0	1	blank2r.bmp	492	1	LWWL	492	1	blank2r.bmp	572	3	gütig	866	1	!	1239	1	!	1306	0	0	0	0	0	0	0	0	0	0	0	0	0	0	0	0	0	0	0	0	0	0	0	0	0	0	0	0	0	0
082619	17:08:41	17:16:03	441632	5.0.10.0	5_exp_RW	113	Rpleas_acq	CS_A	LWWL	JQQJ	YFFY	ZHHZ	CPPC	DXXD	vertrauen	küssen	gütig	träumen	genießen	sonnig	versagen	krank	gierig	töten	gemein	sterben	1	acq_USpleas_CSpleas1_RW	acq4567_RW	5	3	400	0	300	300	305	50	0	1	1	blank2r.bmp	0	1	+	0	1	blank2r.bmp	492	1	LWWL	492	1	blank2r.bmp	572	2	küssen	866	1	!	-1	1	!	-1	0	0	0	0	0	0	0	0	0	0	0	0	0	0	0	0	0	0	0	0	0	0	0	0	0	0	0	0	0	0
082619	17:08:41	17:16:05	443791	5.0.10.0	5_exp_RW	113	Rpleas_acq	CS_A	LWWL	JQQJ	YFFY	ZHHZ	CPPC	DXXD	vertrauen	küssen	gütig	träumen	genießen	sonnig	versagen	krank	gierig	töten	gemein	sterben	1	acq_USunple_CSunple1_RW	acq4567_RW	5	4	400	1	300	300	356	46	0	1	1	blank2r.bmp	0	1	+	0	1	blank2r.bmp	492	1	YFFY	492	1	blank2r.bmp	572	1	versagen	866	1	!	1239	1	!	1252	0	0	0	0	0	0	0	0	0	0	0	0	0	0	0	0	0	0	0	0	0	0	0	0	0	0	0	0	0	0
082619	17:08:41	17:16:07	445950	5.0.10.0	5_exp_RW	113	Rpleas_acq	CS_A	LWWL	JQQJ	YFFY	ZHHZ	CPPC	DXXD	vertrauen	küssen	gütig	träumen	genießen	sonnig	versagen	krank	gierig	töten	gemein	sterben	1	acq_USpleas_CSpleas1_RW	acq4567_RW	5	5	400	1	300	300	356	46	0	0	1	blank2r.bmp	0	1	+	0	1	blank2r.bmp	492	1	LWWL	492	1	blank2r.bmp	572	2	küssen	866	1	!	1239	1	!	1252	0	0	0	0	0	0	0	0	0	0	0	0	0	0	0	0	0	0	0	0	0	0	0	0	0	0	0	0	0	0
082619	17:08:41	17:16:09	448030	5.0.10.0	5_exp_RW	113	Rpleas_acq	CS_A	LWWL	JQQJ	YFFY	ZHHZ	CPPC	DXXD	vertrauen	küssen	gütig	träumen	genießen	sonnig	versagen	krank	gierig	töten	gemein	sterben	1	acq_USpleas_CSpleas2_RW	acq4567_RW	5	6	400	0	300	300	309	50	0	1	1	blank2r.bmp	0	1	+	0	1	blank2r.bmp	492	1	JQQJ	492	1	blank2r.bmp	572	1	träumen	866	1	!	-1	1	!	-1	0	0	0	0	0	0	0	0	0	0	0	0	0	0	0	0	0	0	0	0	0	0	0	0	0	0	0	0	0	0
082619	17:08:41	17:16:11	450229	5.0.10.0	5_exp_RW	113	Rpleas_acq	CS_A	LWWL	JQQJ	YFFY	ZHHZ	CPPC	DXXD	vertrauen	küssen	gütig	träumen	genießen	sonnig	versagen	krank	gierig	töten	gemein	sterben	1	acq_USunple_CSunple2_RW	acq4567_RW	5	7	400	1	300	300	389	46	0	1	1	blank2r.bmp	0	1	+	0	1	blank2r.bmp	492	1	ZHHZ	492	1	blank2r.bmp	572	3	sterben	866	1	!	1239	1	!	1292	0	0	0	0	0	0	0	0	0	0	0	0	0	0	0	0	0	0	0	0	0	0	0	0	0	0	0	0	0	0
082619	17:08:41	17:16:14	452588	5.0.10.0	5_exp_RW	113	Rpleas_acq	CS_A	LWWL	JQQJ	YFFY	ZHHZ	CPPC	DXXD	vertrauen	küssen	gütig	träumen	genießen	sonnig	versagen	krank	gierig	töten	gemein	sterben	1	acq_USunple_CSunple2_RW	acq4567_RW	5	8	400	0	300	300	587	50	0	0	1	blank2r.bmp	0	1	+	0	1	blank2r.bmp	492	1	ZHHZ	492	1	blank2r.bmp	572	2	gemein	866	1	!	1239	1	!	-1	0	0	0	0	0	0	0	0	0	0	0	0	0	0	0	0	0	0	0	0	0	0	0	0	0	0	0	0	0	0
082619	17:08:41	17:16:16	454773	5.0.10.0	5_exp_RW	113	Rpleas_acq	CS_A	LWWL	JQQJ	YFFY	ZHHZ	CPPC	DXXD	vertrauen	küssen	gütig	träumen	genießen	sonnig	versagen	krank	gierig	töten	gemein	sterben	1	acq_USpleas_CSpleas1_RW	acq4567_RW	5	9	400	1	300	300	382	46	0	0	1	blank2r.bmp	0	1	+	0	1	blank2r.bmp	492	1	LWWL	492	1	blank2r.bmp	572	3	gütig	866	1	!	1239	1	!	1279	0	0	0	0	0	0	0	0	0	0	0	0	0	0	0	0	0	0	0	0	0	0	0	0	0	0	0	0	0	0
082619	17:08:41	17:16:18	457026	5.0.10.0	5_exp_RW	113	Rpleas_acq	CS_A	LWWL	JQQJ	YFFY	ZHHZ	CPPC	DXXD	vertrauen	küssen	gütig	träumen	genießen	sonnig	versagen	krank	gierig	töten	gemein	sterben	1	acq_USpleas_CSpleas2_RW	acq4567_RW	5	10	400	1	300	300	454	50	0	1	1	blank2r.bmp	0	1	+	0	1	blank2r.bmp	492	1	JQQJ	492	1	blank2r.bmp	572	3	sonnig	866	1	!	1239	1	!	1359	0	0	0	0	0	0	0	0	0	0	0	0	0	0	0	0	0	0	0	0	0	0	0	0	0	0	0	0	0	0
082619	17:08:41	17:16:20	459252	5.0.10.0	5_exp_RW	113	Rpleas_acq	CS_A	LWWL	JQQJ	YFFY	ZHHZ	CPPC	DXXD	vertrauen	küssen	gütig	träumen	genießen	sonnig	versagen	krank	gierig	töten	gemein	sterben	1	acq_USunple_CSunple1_RW	acq4567_RW	5	11	400	1	300	300	426	46	0	1	1	blank2r.bmp	0	1	+	0	1	blank2r.bmp	492	1	YFFY	492	1	blank2r.bmp	572	2	krank	866	1	!	1239	1	!	1332	0	0	0	0	0	0	0	0	0	0	0	0	0	0	0	0	0	0	0	0	0	0	0	0	0	0	0	0	0	0
082619	17:08:41	17:16:23	461517	5.0.10.0	5_exp_RW	113	Rpleas_acq	CS_A	LWWL	JQQJ	YFFY	ZHHZ	CPPC	DXXD	vertrauen	küssen	gütig	träumen	genießen	sonnig	versagen	krank	gierig	töten	gemein	sterben	1	acq_USunple_CSunple2_RW	acq4567_RW	5	12	400	0	300	300	482	46	0	1	1	blank2r.bmp	0	1	+	0	1	blank2r.bmp	492	1	ZHHZ	492	1	blank2r.bmp	572	1	töten	866	1	!	1239	1	!	-1	0	0	0	0	0	0	0	0	0	0	0	0	0	0	0	0	0	0	0	0	0	0	0	0	0	0	0	0	0	0
082619	17:08:41	17:16:25	463796	5.0.10.0	5_exp_RW	113	Rpleas_acq	CS_A	LWWL	JQQJ	YFFY	ZHHZ	CPPC	DXXD	vertrauen	küssen	gütig	träumen	genießen	sonnig	versagen	krank	gierig	töten	gemein	sterben	1	acq_USpleas_CSpleas2_RW	acq4567_RW	5	13	400	1	300	300	459	50	0	1	1	blank2r.bmp	0	1	+	0	1	blank2r.bmp	492	1	JQQJ	492	1	blank2r.bmp	572	2	genießen	866	1	!	1239	1	!	1359	0	0	0	0	0	0	0	0	0	0	0	0	0	0	0	0	0	0	0	0	0	0	0	0	0	0	0	0	0	0
082619	17:08:41	17:16:27	465982	5.0.10.0	5_exp_RW	113	Rpleas_acq	CS_A	LWWL	JQQJ	YFFY	ZHHZ	CPPC	DXXD	vertrauen	küssen	gütig	träumen	genießen	sonnig	versagen	krank	gierig	töten	gemein	sterben	1	acq_USunple_CSunple1_RW	acq4567_RW	5	14	400	1	300	300	388	46	0	1	1	blank2r.bmp	0	1	+	0	1	blank2r.bmp	492	1	YFFY	492	1	blank2r.bmp	572	3	gierig	866	1	!	1239	1	!	1292	0	0	0	0	0	0	0	0	0	0	0	0	0	0	0	0	0	0	0	0	0	0	0	0	0	0	0	0	0	0
082619	17:08:41	17:16:29	468048	5.0.10.0	5_exp_RW	113	Rpleas_acq	CS_A	LWWL	JQQJ	YFFY	ZHHZ	CPPC	DXXD	vertrauen	küssen	gütig	träumen	genießen	sonnig	versagen	krank	gierig	töten	gemein	sterben	1	acq_USpleas_CSpleas2_RW	acq4567_RW	5	15	400	0	300	300	297	46	0	0	1	blank2r.bmp	0	1	+	0	1	blank2r.bmp	492	1	JQQJ	492	1	blank2r.bmp	572	1	träumen	866	1	!	-1	1	!	-1	0	0	0	0	0	0	0	0	0	0	0	0	0	0	0	0	0	0	0	0	0	0	0	0	0	0	0	0	0	0
082619	17:08:41	17:16:31	470247	5.0.10.0	5_exp_RW	113	Rpleas_acq	CS_A	LWWL	JQQJ	YFFY	ZHHZ	CPPC	DXXD	vertrauen	küssen	gütig	träumen	genießen	sonnig	versagen	krank	gierig	töten	gemein	sterben	1	acq_USunple_CSunple1_RW	acq4567_RW	5	16	400	1	300	300	394	50	0	0	1	blank2r.bmp	0	1	+	0	1	blank2r.bmp	492	1	YFFY	492	1	blank2r.bmp	572	2	krank	866	1	!	1239	1	!	1292	0	0	0	0	0	0	0	0	0	0	0	0	0	0	0	0	0	0	0	0	0	0	0	0	0	0	0	0	0	0
082619	17:08:41	17:16:34	472393	5.0.10.0	5_exp_RW	113	Rpleas_acq	CS_A	LWWL	JQQJ	YFFY	ZHHZ	CPPC	DXXD	vertrauen	küssen	gütig	träumen	genießen	sonnig	versagen	krank	gierig	töten	gemein	sterben	1	acq_USpleas_CSpleas2_RW	acq4567_RW	5	17	400	1	300	300	353	46	0	0	1	blank2r.bmp	0	1	+	0	1	blank2r.bmp	492	1	JQQJ	492	1	blank2r.bmp	572	2	genießen	866	1	!	1239	1	!	1252	0	0	0	0	0	0	0	0	0	0	0	0	0	0	0	0	0	0	0	0	0	0	0	0	0	0	0	0	0	0
082619	17:08:41	17:16:36	474632	5.0.10.0	5_exp_RW	113	Rpleas_acq	CS_A	LWWL	JQQJ	YFFY	ZHHZ	CPPC	DXXD	vertrauen	küssen	gütig	träumen	genießen	sonnig	versagen	krank	gierig	töten	gemein	sterben	1	acq_USunple_CSunple1_RW	acq4567_RW	5	18	400	1	300	300	448	46	0	1	1	blank2r.bmp	0	1	+	0	1	blank2r.bmp	492	1	YFFY	492	1	blank2r.bmp	572	3	gierig	866	1	!	1239	1	!	1346	0	0	0	0	0	0	0	0	0	0	0	0	0	0	0	0	0	0	0	0	0	0	0	0	0	0	0	0	0	0
082619	17:08:41	17:16:38	476818	5.0.10.0	5_exp_RW	113	Rpleas_acq	CS_A	LWWL	JQQJ	YFFY	ZHHZ	CPPC	DXXD	vertrauen	küssen	gütig	träumen	genießen	sonnig	versagen	krank	gierig	töten	gemein	sterben	1	acq_USunple_CSunple2_RW	acq4567_RW	5	19	400	1	300	300	384	46	0	1	1	blank2r.bmp	0	1	+	0	1	blank2r.bmp	492	1	ZHHZ	492	1	blank2r.bmp	572	1	töten	866	1	!	1239	1	!	1279	0	0	0	0	0	0	0	0	0	0	0	0	0	0	0	0	0	0	0	0	0	0	0	0	0	0	0	0	0	0
082619	17:08:41	17:16:40	479084	5.0.10.0	5_exp_RW	113	Rpleas_acq	CS_A	LWWL	JQQJ	YFFY	ZHHZ	CPPC	DXXD	vertrauen	küssen	gütig	träumen	genießen	sonnig	versagen	krank	gierig	töten	gemein	sterben	1	acq_USunple_CSunple2_RW	acq4567_RW	5	20	400	0	300	300	479	46	0	1	1	blank2r.bmp	0	1	+	0	1	blank2r.bmp	492	1	ZHHZ	492	1	blank2r.bmp	572	2	gemein	866	1	!	1239	1	!	-1	0	0	0	0	0	0	0	0	0	0	0	0	0	0	0	0	0	0	0	0	0	0	0	0	0	0	0	0	0	0
082619	17:08:41	17:16:42	481243	5.0.10.0	5_exp_RW	113	Rpleas_acq	CS_A	LWWL	JQQJ	YFFY	ZHHZ	CPPC	DXXD	vertrauen	küssen	gütig	träumen	genießen	sonnig	versagen	krank	gierig	töten	gemein	sterben	1	acq_USpleas_CSpleas1_RW	acq4567_RW	5	21	400	1	300	300	354	50	0	1	1	blank2r.bmp	0	1	+	0	1	blank2r.bmp	492	1	LWWL	492	1	blank2r.bmp	572	1	vertrauen	866	1	!	1239	1	!	1252	0	0	0	0	0	0	0	0	0	0	0	0	0	0	0	0	0	0	0	0	0	0	0	0	0	0	0	0	0	0
082619	17:08:41	17:16:45	483482	5.0.10.0	5_exp_RW	113	Rpleas_acq	CS_A	LWWL	JQQJ	YFFY	ZHHZ	CPPC	DXXD	vertrauen	küssen	gütig	träumen	genießen	sonnig	versagen	krank	gierig	töten	gemein	sterben	1	acq_USunple_CSunple1_RW	acq4567_RW	5	22	400	1	300	300	448	46	0	1	1	blank2r.bmp	0	1	+	0	1	blank2r.bmp	492	1	YFFY	492	1	blank2r.bmp	572	1	versagen	866	1	!	1239	1	!	1346	0	0	0	0	0	0	0	0	0	0	0	0	0	0	0	0	0	0	0	0	0	0	0	0	0	0	0	0	0	0
082619	17:08:41	17:16:47	485641	5.0.10.0	5_exp_RW	113	Rpleas_acq	CS_A	LWWL	JQQJ	YFFY	ZHHZ	CPPC	DXXD	vertrauen	küssen	gütig	träumen	genießen	sonnig	versagen	krank	gierig	töten	gemein	sterben	1	acq_USpleas_CSpleas2_RW	acq4567_RW	5	23	400	1	300	300	363	50	0	1	1	blank2r.bmp	0	1	+	0	1	blank2r.bmp	492	1	JQQJ	492	1	blank2r.bmp	572	3	sonnig	866	1	!	1239	1	!	1266	0	0	0	0	0	0	0	0	0	0	0	0	0	0	0	0	0	0	0	0	0	0	0	0	0	0	0	0	0	0
082619	17:08:41	17:16:49	487867	5.0.10.0	5_exp_RW	113	Rpleas_acq	CS_A	LWWL	JQQJ	YFFY	ZHHZ	CPPC	DXXD	vertrauen	küssen	gütig	träumen	genießen	sonnig	versagen	krank	gierig	töten	gemein	sterben	1	acq_USunple_CSunple2_RW	acq4567_RW	5	24	400	1	300	300	432	46	0	1	1	blank2r.bmp	0	1	+	0	1	blank2r.bmp	492	1	ZHHZ	492	1	blank2r.bmp	572	3	sterben	866	1	!	1239	1	!	1332	0	0	0	0	0	0	0	0	0	0	0	0	0	0	0	0	0	0	0	0	0	0	0	0	0	0	0	0	0	0
082619	17:08:41	17:16:51	490012	5.0.10.0	5_exp_RW	113	Rpleas_acq	CS_A	LWWL	JQQJ	YFFY	ZHHZ	CPPC	DXXD	vertrauen	küssen	gütig	träumen	genießen	sonnig	versagen	krank	gierig	töten	gemein	sterben	1	acq_USpleas_CSpleas2_RW	acq4567_RW	5	25	400	1	300	300	355	50	0	1	1	blank2r.bmp	0	1	+	0	1	blank2r.bmp	492	1	JQQJ	492	1	blank2r.bmp	572	3	sonnig	866	1	!	1239	1	!	1252	0	0	0	0	0	0	0	0	0	0	0	0	0	0	0	0	0	0	0	0	0	0	0	0	0	0	0	0	0	0
082619	17:08:41	17:16:53	492238	5.0.10.0	5_exp_RW	113	Rpleas_acq	CS_A	LWWL	JQQJ	YFFY	ZHHZ	CPPC	DXXD	vertrauen	küssen	gütig	träumen	genießen	sonnig	versagen	krank	gierig	töten	gemein	sterben	1	acq_USpleas_CSpleas2_RW	acq4567_RW	5	26	400	1	300	300	437	46	0	0	1	blank2r.bmp	0	1	+	0	1	blank2r.bmp	492	1	JQQJ	492	1	blank2r.bmp	572	2	genießen	866	1	!	1239	1	!	1332	0	0	0	0	0	0	0	0	0	0	0	0	0	0	0	0	0	0	0	0	0	0	0	0	0	0	0	0	0	0
082619	17:08:41	17:16:56	494317	5.0.10.0	5_exp_RW	113	Rpleas_acq	CS_A	LWWL	JQQJ	YFFY	ZHHZ	CPPC	DXXD	vertrauen	küssen	gütig	träumen	genießen	sonnig	versagen	krank	gierig	töten	gemein	sterben	1	acq_USunple_CSunple2_RW	acq4567_RW	5	27	400	0	300	300	307	46	0	1	1	blank2r.bmp	0	1	+	0	1	blank2r.bmp	492	1	ZHHZ	492	1	blank2r.bmp	572	2	gemein	866	1	!	-1	1	!	-1	0	0	0	0	0	0	0	0	0	0	0	0	0	0	0	0	0	0	0	0	0	0	0	0	0	0	0	0	0	0
082619	17:08:41	17:16:58	496503	5.0.10.0	5_exp_RW	113	Rpleas_acq	CS_A	LWWL	JQQJ	YFFY	ZHHZ	CPPC	DXXD	vertrauen	küssen	gütig	träumen	genießen	sonnig	versagen	krank	gierig	töten	gemein	sterben	1	acq_USunple_CSunple1_RW	acq4567_RW	5	28	400	1	300	300	374	46	0	1	1	blank2r.bmp	0	1	+	0	1	blank2r.bmp	492	1	YFFY	492	1	blank2r.bmp	572	2	krank	866	1	!	1239	1	!	1279	0	0	0	0	0	0	0	0	0	0	0	0	0	0	0	0	0	0	0	0	0	0	0	0	0	0	0	0	0	0
082619	17:08:41	17:17:00	498596	5.0.10.0	5_exp_RW	113	Rpleas_acq	CS_A	LWWL	JQQJ	YFFY	ZHHZ	CPPC	DXXD	vertrauen	küssen	gütig	träumen	genießen	sonnig	versagen	krank	gierig	töten	gemein	sterben	1	acq_USunple_CSunple1_RW	acq4567_RW	5	29	400	0	300	300	318	50	0	0	1	blank2r.bmp	0	1	+	0	1	blank2r.bmp	492	1	YFFY	492	1	blank2r.bmp	572	1	versagen	866	1	!	-1	1	!	-1	0	0	0	0	0	0	0	0	0	0	0	0	0	0	0	0	0	0	0	0	0	0	0	0	0	0	0	0	0	0
082619	17:08:41	17:17:02	500768	5.0.10.0	5_exp_RW	113	Rpleas_acq	CS_A	LWWL	JQQJ	YFFY	ZHHZ	CPPC	DXXD	vertrauen	küssen	gütig	träumen	genießen	sonnig	versagen	krank	gierig	töten	gemein	sterben	1	acq_USunple_CSunple2_RW	acq4567_RW	5	30	400	1	300	300	363	46	0	1	1	blank2r.bmp	0	1	+	0	1	blank2r.bmp	492	1	ZHHZ	492	1	blank2r.bmp	572	1	töten	866	1	!	1239	1	!	1266	0	0	0	0	0	0	0	0	0	0	0	0	0	0	0	0	0	0	0	0	0	0	0	0	0	0	0	0	0	0
082619	17:08:41	17:17:04	502914	5.0.10.0	5_exp_RW	113	Rpleas_acq	CS_A	LWWL	JQQJ	YFFY	ZHHZ	CPPC	DXXD	vertrauen	küssen	gütig	träumen	genießen	sonnig	versagen	krank	gierig	töten	gemein	sterben	1	acq_USpleas_CSpleas1_RW	acq4567_RW	5	31	400	1	300	300	354	50	0	1	1	blank2r.bmp	0	1	+	0	1	blank2r.bmp	492	1	LWWL	492	1	blank2r.bmp	572	2	küssen	866	1	!	1239	1	!	1252	0	0	0	0	0	0	0	0	0	0	0	0	0	0	0	0	0	0	0	0	0	0	0	0	0	0	0	0	0	0
082619	17:08:41	17:17:06	504900	5.0.10.0	5_exp_RW	113	Rpleas_acq	CS_A	LWWL	JQQJ	YFFY	ZHHZ	CPPC	DXXD	vertrauen	küssen	gütig	träumen	genießen	sonnig	versagen	krank	gierig	töten	gemein	sterben	1	acq_USunple_CSunple1_RW	acq4567_RW	5	32	400	0	300	300	216	46	0	1	1	blank2r.bmp	0	1	+	0	1	blank2r.bmp	492	1	YFFY	492	1	blank2r.bmp	572	3	gierig	866	1	!	-1	1	!	-1	0	0	0	0	0	0	0	0	0	0	0	0	0	0	0	0	0	0	0	0	0	0	0	0	0	0	0	0	0	0
082619	17:08:41	17:17:08	507005	5.0.10.0	5_exp_RW	113	Rpleas_acq	CS_A	LWWL	JQQJ	YFFY	ZHHZ	CPPC	DXXD	vertrauen	küssen	gütig	träumen	genießen	sonnig	versagen	krank	gierig	töten	gemein	sterben	1	acq_USunple_CSunple2_RW	acq4567_RW	5	33	400	0	300	300	317	46	0	1	1	blank2r.bmp	0	1	+	0	1	blank2r.bmp	492	1	ZHHZ	492	1	blank2r.bmp	572	3	sterben	866	1	!	-1	1	!	-1	0	0	0	0	0	0	0	0	0	0	0	0	0	0	0	0	0	0	0	0	0	0	0	0	0	0	0	0	0	0
082619	17:08:41	17:17:11	509351	5.0.10.0	5_exp_RW	113	Rpleas_acq	CS_A	LWWL	JQQJ	YFFY	ZHHZ	CPPC	DXXD	vertrauen	küssen	gütig	träumen	genießen	sonnig	versagen	krank	gierig	töten	gemein	sterben	1	acq_USpleas_CSpleas1_RW	acq4567_RW	5	34	400	0	300	300	553	50	0	1	1	blank2r.bmp	0	1	+	0	1	blank2r.bmp	492	1	LWWL	492	1	blank2r.bmp	572	3	gütig	866	1	!	1239	1	!	-1	0	0	0	0	0	0	0	0	0	0	0	0	0	0	0	0	0	0	0	0	0	0	0	0	0	0	0	0	0	0
082619	17:08:41	17:17:13	511577	5.0.10.0	5_exp_RW	113	Rpleas_acq	CS_A	LWWL	JQQJ	YFFY	ZHHZ	CPPC	DXXD	vertrauen	küssen	gütig	träumen	genießen	sonnig	versagen	krank	gierig	töten	gemein	sterben	1	acq_USpleas_CSpleas2_RW	acq4567_RW	5	35	400	1	300	300	421	50	0	1	1	blank2r.bmp	0	1	+	0	1	blank2r.bmp	492	1	JQQJ	492	1	blank2r.bmp	572	1	träumen	866	1	!	1239	1	!	1319	0	0	0	0	0	0	0	0	0	0	0	0	0	0	0	0	0	0	0	0	0	0	0	0	0	0	0	0	0	0
082619	17:08:41	17:17:15	513763	5.0.10.0	5_exp_RW	113	Rpleas_acq	CS_A	LWWL	JQQJ	YFFY	ZHHZ	CPPC	DXXD	vertrauen	küssen	gütig	träumen	genießen	sonnig	versagen	krank	gierig	töten	gemein	sterben	1	acq_USunple_CSunple1_RW	acq4567_RW	5	36	400	1	300	300	391	46	0	1	1	blank2r.bmp	0	1	+	0	1	blank2r.bmp	492	1	YFFY	492	1	blank2r.bmp	572	3	gierig	866	1	!	1239	1	!	1292	0	0	0	0	0	0	0	0	0	0	0	0	0	0	0	0	0	0	0	0	0	0	0	0	0	0	0	0	0	0
082619	17:08:41	17:17:17	516028	5.0.10.0	5_exp_RW	113	Rpleas_acq	CS_A	LWWL	JQQJ	YFFY	ZHHZ	CPPC	DXXD	vertrauen	küssen	gütig	träumen	genießen	sonnig	versagen	krank	gierig	töten	gemein	sterben	1	acq_USunple_CSunple2_RW	acq4567_RW	5	37	400	0	300	300	493	46	0	1	1	blank2r.bmp	0	1	+	0	1	blank2r.bmp	492	1	ZHHZ	492	1	blank2r.bmp	572	1	töten	866	1	!	1239	1	!	-1	0	0	0	0	0	0	0	0	0	0	0	0	0	0	0	0	0	0	0	0	0	0	0	0	0	0	0	0	0	0
082619	17:08:41	17:17:19	518108	5.0.10.0	5_exp_RW	113	Rpleas_acq	CS_A	LWWL	JQQJ	YFFY	ZHHZ	CPPC	DXXD	vertrauen	küssen	gütig	träumen	genießen	sonnig	versagen	krank	gierig	töten	gemein	sterben	1	acq_USpleas_CSpleas2_RW	acq4567_RW	5	38	400	0	300	300	303	50	0	1	1	blank2r.bmp	0	1	+	0	1	blank2r.bmp	492	1	JQQJ	492	1	blank2r.bmp	572	1	träumen	866	1	!	-1	1	!	-1	0	0	0	0	0	0	0	0	0	0	0	0	0	0	0	0	0	0	0	0	0	0	0	0	0	0	0	0	0	0
082619	17:08:41	17:17:22	520280	5.0.10.0	5_exp_RW	113	Rpleas_acq	CS_A	LWWL	JQQJ	YFFY	ZHHZ	CPPC	DXXD	vertrauen	küssen	gütig	träumen	genießen	sonnig	versagen	krank	gierig	töten	gemein	sterben	1	acq_USpleas_CSpleas1_RW	acq4567_RW	5	39	400	1	300	300	363	46	0	0	1	blank2r.bmp	0	1	+	0	1	blank2r.bmp	492	1	LWWL	492	1	blank2r.bmp	572	1	vertrauen	866	1	!	1239	1	!	1266	0	0	0	0	0	0	0	0	0	0	0	0	0	0	0	0	0	0	0	0	0	0	0	0	0	0	0	0	0	0
082619	17:08:41	17:17:24	522373	5.0.10.0	5_exp_RW	113	Rpleas_acq	CS_A	LWWL	JQQJ	YFFY	ZHHZ	CPPC	DXXD	vertrauen	küssen	gütig	träumen	genießen	sonnig	versagen	krank	gierig	töten	gemein	sterben	1	acq_USpleas_CSpleas1_RW	acq4567_RW	5	40	400	0	300	300	306	46	0	0	1	blank2r.bmp	0	1	+	0	1	blank2r.bmp	492	1	LWWL	492	1	blank2r.bmp	572	1	vertrauen	866	1	!	-1	1	!	-1	0	0	0	0	0	0	0	0	0	0	0	0	0	0	0	0	0	0	0	0	0	0	0	0	0	0	0	0	0	0
082619	17:08:41	17:17:26	524545	5.0.10.0	5_exp_RW	113	Rpleas_acq	CS_A	LWWL	JQQJ	YFFY	ZHHZ	CPPC	DXXD	vertrauen	küssen	gütig	träumen	genießen	sonnig	versagen	krank	gierig	töten	gemein	sterben	1	acq_USpleas_CSpleas2_RW	acq4567_RW	5	41	400	1	300	300	346	46	0	0	1	blank2r.bmp	0	1	+	0	1	blank2r.bmp	492	1	JQQJ	492	1	blank2r.bmp	572	3	sonnig	866	1	!	1239	1	!	1252	0	0	0	0	0	0	0	0	0	0	0	0	0	0	0	0	0	0	0	0	0	0	0	0	0	0	0	0	0	0
082619	17:08:41	17:17:28	526757	5.0.10.0	5_exp_RW	113	Rpleas_acq	CS_A	LWWL	JQQJ	YFFY	ZHHZ	CPPC	DXXD	vertrauen	küssen	gütig	träumen	genießen	sonnig	versagen	krank	gierig	töten	gemein	sterben	1	acq_USunple_CSunple2_RW	acq4567_RW	5	42	400	1	300	300	415	46	0	1	1	blank2r.bmp	0	1	+	0	1	blank2r.bmp	492	1	ZHHZ	492	1	blank2r.bmp	572	2	gemein	866	1	!	1239	1	!	1319	0	0	0	0	0	0	0	0	0	0	0	0	0	0	0	0	0	0	0	0	0	0	0	0	0	0	0	0	0	0
082619	17:08:41	17:17:30	528943	5.0.10.0	5_exp_RW	113	Rpleas_acq	CS_A	LWWL	JQQJ	YFFY	ZHHZ	CPPC	DXXD	vertrauen	küssen	gütig	träumen	genießen	sonnig	versagen	krank	gierig	töten	gemein	sterben	1	acq_USpleas_CSpleas2_RW	acq4567_RW	5	43	400	1	300	300	394	46	0	0	1	blank2r.bmp	0	1	+	0	1	blank2r.bmp	492	1	JQQJ	492	1	blank2r.bmp	572	2	genießen	866	1	!	1239	1	!	1292	0	0	0	0	0	0	0	0	0	0	0	0	0	0	0	0	0	0	0	0	0	0	0	0	0	0	0	0	0	0
082619	17:08:41	17:17:32	531142	5.0.10.0	5_exp_RW	113	Rpleas_acq	CS_A	LWWL	JQQJ	YFFY	ZHHZ	CPPC	DXXD	vertrauen	küssen	gütig	träumen	genießen	sonnig	versagen	krank	gierig	töten	gemein	sterben	1	acq_USunple_CSunple1_RW	acq4567_RW	5	44	400	1	300	300	401	46	0	1	1	blank2r.bmp	0	1	+	0	1	blank2r.bmp	492	1	YFFY	492	1	blank2r.bmp	572	1	versagen	866	1	!	1239	1	!	1306	0	0	0	0	0	0	0	0	0	0	0	0	0	0	0	0	0	0	0	0	0	0	0	0	0	0	0	0	0	0
082619	17:08:41	17:17:35	533381	5.0.10.0	5_exp_RW	113	Rpleas_acq	CS_A	LWWL	JQQJ	YFFY	ZHHZ	CPPC	DXXD	vertrauen	küssen	gütig	träumen	genießen	sonnig	versagen	krank	gierig	töten	gemein	sterben	1	acq_USunple_CSunple1_RW	acq4567_RW	5	45	400	1	300	300	443	46	0	1	1	blank2r.bmp	0	1	+	0	1	blank2r.bmp	492	1	YFFY	492	1	blank2r.bmp	572	2	krank	866	1	!	1239	1	!	1346	0	0	0	0	0	0	0	0	0	0	0	0	0	0	0	0	0	0	0	0	0	0	0	0	0	0	0	0	0	0
082619	17:08:41	17:17:37	535567	5.0.10.0	5_exp_RW	113	Rpleas_acq	CS_A	LWWL	JQQJ	YFFY	ZHHZ	CPPC	DXXD	vertrauen	küssen	gütig	träumen	genießen	sonnig	versagen	krank	gierig	töten	gemein	sterben	1	acq_USunple_CSunple1_RW	acq4567_RW	5	46	400	1	300	300	374	46	0	1	1	blank2r.bmp	0	1	+	0	1	blank2r.bmp	492	1	YFFY	492	1	blank2r.bmp	572	1	versagen	866	1	!	1239	1	!	1279	0	0	0	0	0	0	0	0	0	0	0	0	0	0	0	0	0	0	0	0	0	0	0	0	0	0	0	0	0	0
082619	17:08:41	17:17:39	537726	5.0.10.0	5_exp_RW	113	Rpleas_acq	CS_A	LWWL	JQQJ	YFFY	ZHHZ	CPPC	DXXD	vertrauen	küssen	gütig	träumen	genießen	sonnig	versagen	krank	gierig	töten	gemein	sterben	1	acq_USpleas_CSpleas1_RW	acq4567_RW	5	47	400	1	300	300	353	50	0	1	1	blank2r.bmp	0	1	+	0	1	blank2r.bmp	492	1	LWWL	492	1	blank2r.bmp	572	2	küssen	866	1	!	1239	1	!	1252	0	0	0	0	0	0	0	0	0	0	0	0	0	0	0	0	0	0	0	0	0	0	0	0	0	0	0	0	0	0
082619	17:08:41	17:17:41	540005	5.0.10.0	5_exp_RW	113	Rpleas_acq	CS_A	LWWL	JQQJ	YFFY	ZHHZ	CPPC	DXXD	vertrauen	küssen	gütig	träumen	genießen	sonnig	versagen	krank	gierig	töten	gemein	sterben	1	acq_USunple_CSunple2_RW	acq4567_RW	5	48	400	0	300	300	512	46	0	1	1	blank2r.bmp	0	1	+	0	1	blank2r.bmp	492	1	ZHHZ	492	1	blank2r.bmp	572	3	sterben	866	1	!	1239	1	!	-1	0	0	0	0	0	0	0	0	0	0	0	0	0	0	0	0	0	0	0	0	0	0	0	0	0	0	0	0	0	0
082619	17:08:41	17:17:43	542204	5.0.10.0	5_exp_RW	113	Rpleas_acq	CS_A	LWWL	JQQJ	YFFY	ZHHZ	CPPC	DXXD	vertrauen	küssen	gütig	träumen	genießen	sonnig	versagen	krank	gierig	töten	gemein	sterben	1	acq_USpleas_CSpleas2_RW	acq4567_RW	5	49	400	1	300	300	387	50	0	1	1	blank2r.bmp	0	1	+	0	1	blank2r.bmp	492	1	JQQJ	492	1	blank2r.bmp	572	1	träumen	866	1	!	1239	1	!	1292	0	0	0	0	0	0	0	0	0	0	0	0	0	0	0	0	0	0	0	0	0	0	0	0	0	0	0	0	0	0
082619	17:08:41	17:17:46	544350	5.0.10.0	5_exp_RW	113	Rpleas_acq	CS_A	LWWL	JQQJ	YFFY	ZHHZ	CPPC	DXXD	vertrauen	küssen	gütig	träumen	genießen	sonnig	versagen	krank	gierig	töten	gemein	sterben	1	acq_USpleas_CSpleas2_RW	acq4567_RW	5	50	400	1	300	300	350	46	0	0	1	blank2r.bmp	0	1	+	0	1	blank2r.bmp	492	1	JQQJ	492	1	blank2r.bmp	572	2	genießen	866	1	!	1239	1	!	1252	0	0	0	0	0	0	0	0	0	0	0	0	0	0	0	0	0	0	0	0	0	0	0	0	0	0	0	0	0	0
082619	17:08:41	17:17:48	546616	5.0.10.0	5_exp_RW	113	Rpleas_acq	CS_A	LWWL	JQQJ	YFFY	ZHHZ	CPPC	DXXD	vertrauen	küssen	gütig	träumen	genießen	sonnig	versagen	krank	gierig	töten	gemein	sterben	1	acq_USunple_CSunple2_RW	acq4567_RW	5	51	400	1	300	300	457	46	0	1	1	blank2r.bmp	0	1	+	0	1	blank2r.bmp	492	1	ZHHZ	492	1	blank2r.bmp	572	3	sterben	866	1	!	1239	1	!	1359	0	0	0	0	0	0	0	0	0	0	0	0	0	0	0	0	0	0	0	0	0	0	0	0	0	0	0	0	0	0
082619	17:08:41	17:17:50	548882	5.0.10.0	5_exp_RW	113	Rpleas_acq	CS_A	LWWL	JQQJ	YFFY	ZHHZ	CPPC	DXXD	vertrauen	küssen	gütig	träumen	genießen	sonnig	versagen	krank	gierig	töten	gemein	sterben	1	acq_USunple_CSunple2_RW	acq4567_RW	5	52	400	0	300	300	494	46	0	1	1	blank2r.bmp	0	1	+	0	1	blank2r.bmp	492	1	ZHHZ	492	1	blank2r.bmp	572	2	gemein	866	1	!	1239	1	!	-1	0	0	0	0	0	0	0	0	0	0	0	0	0	0	0	0	0	0	0	0	0	0	0	0	0	0	0	0	0	0
082619	17:08:41	17:17:52	550961	5.0.10.0	5_exp_RW	113	Rpleas_acq	CS_A	LWWL	JQQJ	YFFY	ZHHZ	CPPC	DXXD	vertrauen	küssen	gütig	träumen	genießen	sonnig	versagen	krank	gierig	töten	gemein	sterben	1	acq_USpleas_CSpleas1_RW	acq4567_RW	5	53	400	0	300	300	299	50	0	1	1	blank2r.bmp	0	1	+	0	1	blank2r.bmp	492	1	LWWL	492	1	blank2r.bmp	572	3	gütig	866	1	!	-1	1	!	-1	0	0	0	0	0	0	0	0	0	0	0	0	0	0	0	0	0	0	0	0	0	0	0	0	0	0	0	0	0	0
082619	17:08:41	17:17:54	553120	5.0.10.0	5_exp_RW	113	Rpleas_acq	CS_A	LWWL	JQQJ	YFFY	ZHHZ	CPPC	DXXD	vertrauen	küssen	gütig	träumen	genießen	sonnig	versagen	krank	gierig	töten	gemein	sterben	1	acq_USpleas_CSpleas1_RW	acq4567_RW	5	54	400	1	300	300	353	50	0	1	1	blank2r.bmp	0	1	+	0	1	blank2r.bmp	492	1	LWWL	492	1	blank2r.bmp	572	2	küssen	866	1	!	1239	1	!	1252	0	0	0	0	0	0	0	0	0	0	0	0	0	0	0	0	0	0	0	0	0	0	0	0	0	0	0	0	0	0
082619	17:08:41	17:17:56	555159	5.0.10.0	5_exp_RW	113	Rpleas_acq	CS_A	LWWL	JQQJ	YFFY	ZHHZ	CPPC	DXXD	vertrauen	küssen	gütig	träumen	genießen	sonnig	versagen	krank	gierig	töten	gemein	sterben	1	acq_USpleas_CSpleas2_RW	acq4567_RW	5	55	400	0	300	300	274	50	0	1	1	blank2r.bmp	0	1	+	0	1	blank2r.bmp	492	1	JQQJ	492	1	blank2r.bmp	572	3	sonnig	866	1	!	-1	1	!	-1	0	0	0	0	0	0	0	0	0	0	0	0	0	0	0	0	0	0	0	0	0	0	0	0	0	0	0	0	0	0
082619	17:08:41	17:17:59	557318	5.0.10.0	5_exp_RW	113	Rpleas_acq	CS_A	LWWL	JQQJ	YFFY	ZHHZ	CPPC	DXXD	vertrauen	küssen	gütig	träumen	genießen	sonnig	versagen	krank	gierig	töten	gemein	sterben	1	acq_USpleas_CSpleas1_RW	acq4567_RW	5	56	400	1	300	300	346	50	0	1	1	blank2r.bmp	0	1	+	0	1	blank2r.bmp	492	1	LWWL	492	1	blank2r.bmp	572	1	vertrauen	866	1	!	1239	1	!	1252	0	0	0	0	0	0	0	0	0	0	0	0	0	0	0	0	0	0	0	0	0	0	0	0	0	0	0	0	0	0
082619	17:08:41	17:18:01	559357	5.0.10.0	5_exp_RW	113	Rpleas_acq	CS_A	LWWL	JQQJ	YFFY	ZHHZ	CPPC	DXXD	vertrauen	küssen	gütig	träumen	genießen	sonnig	versagen	krank	gierig	töten	gemein	sterben	1	acq_USpleas_CSpleas1_RW	acq4567_RW	5	57	400	0	300	300	274	50	0	1	1	blank2r.bmp	0	1	+	0	1	blank2r.bmp	492	1	LWWL	492	1	blank2r.bmp	572	3	gütig	866	1	!	-1	1	!	-1	0	0	0	0	0	0	0	0	0	0	0	0	0	0	0	0	0	0	0	0	0	0	0	0	0	0	0	0	0	0
082619	17:08:41	17:18:03	561557	5.0.10.0	5_exp_RW	113	Rpleas_acq	CS_A	LWWL	JQQJ	YFFY	ZHHZ	CPPC	DXXD	vertrauen	küssen	gütig	träumen	genießen	sonnig	versagen	krank	gierig	töten	gemein	sterben	1	acq_USunple_CSunple1_RW	acq4567_RW	5	58	400	1	300	300	389	46	0	1	1	blank2r.bmp	0	1	+	0	1	blank2r.bmp	492	1	YFFY	492	1	blank2r.bmp	572	2	krank	866	1	!	1239	1	!	1292	0	0	0	0	0	0	0	0	0	0	0	0	0	0	0	0	0	0	0	0	0	0	0	0	0	0	0	0	0	0
082619	17:08:41	17:18:05	563742	5.0.10.0	5_exp_RW	113	Rpleas_acq	CS_A	LWWL	JQQJ	YFFY	ZHHZ	CPPC	DXXD	vertrauen	küssen	gütig	träumen	genießen	sonnig	versagen	krank	gierig	töten	gemein	sterben	1	acq_USunple_CSunple1_RW	acq4567_RW	5	59	400	1	300	300	374	46	0	1	1	blank2r.bmp	0	1	+	0	1	blank2r.bmp	492	1	YFFY	492	1	blank2r.bmp	572	3	gierig	866	1	!	1239	1	!	1279	0	0	0	0	0	0	0	0	0	0	0	0	0	0	0	0	0	0	0	0	0	0	0	0	0	0	0	0	0	0
082619	17:08:41	17:18:07	565808	5.0.10.0	5_exp_RW	113	Rpleas_acq	CS_A	LWWL	JQQJ	YFFY	ZHHZ	CPPC	DXXD	vertrauen	küssen	gütig	träumen	genießen	sonnig	versagen	krank	gierig	töten	gemein	sterben	1	acq_USunple_CSunple2_RW	acq4567_RW	5	60	400	0	300	300	298	46	0	1	1	blank2r.bmp	0	1	+	0	1	blank2r.bmp	492	1	ZHHZ	492	1	blank2r.bmp	572	1	töten	866	1	!	-1	1	!	-1	0	0	0	0	0	0	0	0	0	0	0	0	0	0	0	0	0	0	0	0	0	0	0	0	0	0	0	0	0	0
082619	17:08:41	17:18:09	567887	5.0.10.0	5_exp_RW	113	Rpleas_acq	CS_A	LWWL	JQQJ	YFFY	ZHHZ	CPPC	DXXD	vertrauen	küssen	gütig	träumen	genießen	sonnig	versagen	krank	gierig	töten	gemein	sterben	1	acq_USpleas_CSpleas1_RW	acq4567_RW	5	61	400	0	300	300	294	46	0	0	1	blank2r.bmp	0	1	+	0	1	blank2r.bmp	492	1	LWWL	492	1	blank2r.bmp	572	3	gütig	866	1	!	-1	1	!	-1	0	0	0	0	0	0	0	0	0	0	0	0	0	0	0	0	0	0	0	0	0	0	0	0	0	0	0	0	0	0
082619	17:08:41	17:18:11	569807	5.0.10.0	5_exp_RW	113	Rpleas_acq	CS_A	LWWL	JQQJ	YFFY	ZHHZ	CPPC	DXXD	vertrauen	küssen	gütig	träumen	genießen	sonnig	versagen	krank	gierig	töten	gemein	sterben	1	acq_USpleas_CSpleas2_RW	acq4567_RW	5	62	400	0	300	300	142	50	0	1	1	blank2r.bmp	0	1	+	0	1	blank2r.bmp	492	1	JQQJ	492	1	blank2r.bmp	572	3	sonnig	866	1	!	-1	1	!	-1	0	0	0	0	0	0	0	0	0	0	0	0	0	0	0	0	0	0	0	0	0	0	0	0	0	0	0	0	0	0
082619	17:08:41	17:18:13	571966	5.0.10.0	5_exp_RW	113	Rpleas_acq	CS_A	LWWL	JQQJ	YFFY	ZHHZ	CPPC	DXXD	vertrauen	küssen	gütig	träumen	genießen	sonnig	versagen	krank	gierig	töten	gemein	sterben	1	acq_USunple_CSunple2_RW	acq4567_RW	5	63	400	1	300	300	350	46	0	1	1	blank2r.bmp	0	1	+	0	1	blank2r.bmp	492	1	ZHHZ	492	1	blank2r.bmp	572	1	töten	866	1	!	1239	1	!	1252	0	0	0	0	0	0	0	0	0	0	0	0	0	0	0	0	0	0	0	0	0	0	0	0	0	0	0	0	0	0
082619	17:08:41	17:18:15	573965	5.0.10.0	5_exp_RW	113	Rpleas_acq	CS_A	LWWL	JQQJ	YFFY	ZHHZ	CPPC	DXXD	vertrauen	küssen	gütig	träumen	genießen	sonnig	versagen	krank	gierig	töten	gemein	sterben	1	acq_USunple_CSunple2_RW	acq4567_RW	5	64	400	0	300	300	225	46	0	1	1	blank2r.bmp	0	1	+	0	1	blank2r.bmp	492	1	ZHHZ	492	1	blank2r.bmp	572	2	gemein	866	1	!	-1	1	!	-1	0	0	0	0	0	0	0	0	0	0	0	0	0	0	0	0	0	0	0	0	0	0	0	0	0	0	0	0	0	0
082619	17:08:41	17:18:18	576324	5.0.10.0	5_exp_RW	113	Rpleas_acq	CS_A	LWWL	JQQJ	YFFY	ZHHZ	CPPC	DXXD	vertrauen	küssen	gütig	träumen	genießen	sonnig	versagen	krank	gierig	töten	gemein	sterben	1	acq_USpleas_CSpleas2_RW	acq4567_RW	5	65	400	0	300	300	573	50	0	1	1	blank2r.bmp	0	1	+	0	1	blank2r.bmp	492	1	JQQJ	492	1	blank2r.bmp	572	2	genießen	866	1	!	1239	1	!	-1	0	0	0	0	0	0	0	0	0	0	0	0	0	0	0	0	0	0	0	0	0	0	0	0	0	0	0	0	0	0
082619	17:08:41	17:18:20	578403	5.0.10.0	5_exp_RW	113	Rpleas_acq	CS_A	LWWL	JQQJ	YFFY	ZHHZ	CPPC	DXXD	vertrauen	küssen	gütig	träumen	genießen	sonnig	versagen	krank	gierig	töten	gemein	sterben	1	acq_USunple_CSunple2_RW	acq4567_RW	5	66	400	0	300	300	292	46	0	1	1	blank2r.bmp	0	1	+	0	1	blank2r.bmp	492	1	ZHHZ	492	1	blank2r.bmp	572	3	sterben	866	1	!	-1	1	!	-1	0	0	0	0	0	0	0	0	0	0	0	0	0	0	0	0	0	0	0	0	0	0	0	0	0	0	0	0	0	0
082619	17:08:41	17:18:22	580455	5.0.10.0	5_exp_RW	113	Rpleas_acq	CS_A	LWWL	JQQJ	YFFY	ZHHZ	CPPC	DXXD	vertrauen	küssen	gütig	träumen	genießen	sonnig	versagen	krank	gierig	töten	gemein	sterben	1	acq_USpleas_CSpleas1_RW	acq4567_RW	5	67	400	0	300	300	277	50	0	1	1	blank2r.bmp	0	1	+	0	1	blank2r.bmp	492	1	LWWL	492	1	blank2r.bmp	572	2	küssen	866	1	!	-1	1	!	-1	0	0	0	0	0	0	0	0	0	0	0	0	0	0	0	0	0	0	0	0	0	0	0	0	0	0	0	0	0	0
082619	17:08:41	17:18:24	582708	5.0.10.0	5_exp_RW	113	Rpleas_acq	CS_A	LWWL	JQQJ	YFFY	ZHHZ	CPPC	DXXD	vertrauen	küssen	gütig	träumen	genießen	sonnig	versagen	krank	gierig	töten	gemein	sterben	1	acq_USpleas_CSpleas2_RW	acq4567_RW	5	68	400	1	300	300	440	50	0	1	1	blank2r.bmp	0	1	+	0	1	blank2r.bmp	492	1	JQQJ	492	1	blank2r.bmp	572	1	träumen	866	1	!	1239	1	!	1346	0	0	0	0	0	0	0	0	0	0	0	0	0	0	0	0	0	0	0	0	0	0	0	0	0	0	0	0	0	0
082619	17:08:41	17:18:26	584707	5.0.10.0	5_exp_RW	113	Rpleas_acq	CS_A	LWWL	JQQJ	YFFY	ZHHZ	CPPC	DXXD	vertrauen	küssen	gütig	träumen	genießen	sonnig	versagen	krank	gierig	töten	gemein	sterben	1	acq_USunple_CSunple1_RW	acq4567_RW	5	69	400	0	300	300	236	46	0	1	1	blank2r.bmp	0	1	+	0	1	blank2r.bmp	492	1	YFFY	492	1	blank2r.bmp	572	1	versagen	866	1	!	-1	1	!	-1	0	0	0	0	0	0	0	0	0	0	0	0	0	0	0	0	0	0	0	0	0	0	0	0	0	0	0	0	0	0
082619	17:08:41	17:18:28	586786	5.0.10.0	5_exp_RW	113	Rpleas_acq	CS_A	LWWL	JQQJ	YFFY	ZHHZ	CPPC	DXXD	vertrauen	küssen	gütig	träumen	genießen	sonnig	versagen	krank	gierig	töten	gemein	sterben	1	acq_USpleas_CSpleas2_RW	acq4567_RW	5	70	400	0	300	300	303	50	0	1	1	blank2r.bmp	0	1	+	0	1	blank2r.bmp	492	1	JQQJ	492	1	blank2r.bmp	572	3	sonnig	866	1	!	-1	1	!	-1	0	0	0	0	0	0	0	0	0	0	0	0	0	0	0	0	0	0	0	0	0	0	0	0	0	0	0	0	0	0
082619	17:08:41	17:18:30	589025	5.0.10.0	5_exp_RW	113	Rpleas_acq	CS_A	LWWL	JQQJ	YFFY	ZHHZ	CPPC	DXXD	vertrauen	küssen	gütig	träumen	genießen	sonnig	versagen	krank	gierig	töten	gemein	sterben	1	acq_USpleas_CSpleas1_RW	acq4567_RW	5	71	400	1	300	300	434	50	0	1	1	blank2r.bmp	0	1	+	0	1	blank2r.bmp	492	1	LWWL	492	1	blank2r.bmp	572	1	vertrauen	866	1	!	1239	1	!	1332	0	0	0	0	0	0	0	0	0	0	0	0	0	0	0	0	0	0	0	0	0	0	0	0	0	0	0	0	0	0
082619	17:08:41	17:18:32	591064	5.0.10.0	5_exp_RW	113	Rpleas_acq	CS_A	LWWL	JQQJ	YFFY	ZHHZ	CPPC	DXXD	vertrauen	küssen	gütig	träumen	genießen	sonnig	versagen	krank	gierig	töten	gemein	sterben	1	acq_USunple_CSunple2_RW	acq4567_RW	5	72	400	0	300	300	274	50	0	0	1	blank2r.bmp	0	1	+	0	1	blank2r.bmp	492	1	ZHHZ	492	1	blank2r.bmp	572	3	sterben	866	1	!	-1	1	!	-1	0	0	0	0	0	0	0	0	0	0	0	0	0	0	0	0	0	0	0	0	0	0	0	0	0	0	0	0	0	0
082619	17:08:41	17:18:35	593290	5.0.10.0	5_exp_RW	113	Rpleas_acq	CS_A	LWWL	JQQJ	YFFY	ZHHZ	CPPC	DXXD	vertrauen	küssen	gütig	träumen	genießen	sonnig	versagen	krank	gierig	töten	gemein	sterben	1	acq_USunple_CSunple1_RW	acq4567_RW	5	73	400	1	300	300	421	46	0	1	1	blank2r.bmp	0	1	+	0	1	blank2r.bmp	492	1	YFFY	492	1	blank2r.bmp	572	2	krank	866	1	!	1239	1	!	1319	0	0	0	0	0	0	0	0	0	0	0	0	0	0	0	0	0	0	0	0	0	0	0	0	0	0	0	0	0	0
082619	17:08:41	17:18:37	595343	5.0.10.0	5_exp_RW	113	Rpleas_acq	CS_A	LWWL	JQQJ	YFFY	ZHHZ	CPPC	DXXD	vertrauen	küssen	gütig	träumen	genießen	sonnig	versagen	krank	gierig	töten	gemein	sterben	1	acq_USunple_CSunple2_RW	acq4567_RW	5	74	400	0	300	300	283	46	0	1	1	blank2r.bmp	0	1	+	0	1	blank2r.bmp	492	1	ZHHZ	492	1	blank2r.bmp	572	1	töten	866	1	!	-1	1	!	-1	0	0	0	0	0	0	0	0	0	0	0	0	0	0	0	0	0	0	0	0	0	0	0	0	0	0	0	0	0	0
082619	17:08:41	17:18:39	597515	5.0.10.0	5_exp_RW	113	Rpleas_acq	CS_A	LWWL	JQQJ	YFFY	ZHHZ	CPPC	DXXD	vertrauen	küssen	gütig	träumen	genießen	sonnig	versagen	krank	gierig	töten	gemein	sterben	1	acq_USpleas_CSpleas1_RW	acq4567_RW	5	75	400	1	300	300	367	50	0	1	1	blank2r.bmp	0	1	+	0	1	blank2r.bmp	492	1	LWWL	492	1	blank2r.bmp	572	3	gütig	866	1	!	1239	1	!	1266	0	0	0	0	0	0	0	0	0	0	0	0	0	0	0	0	0	0	0	0	0	0	0	0	0	0	0	0	0	0
082619	17:08:41	17:18:41	599621	5.0.10.0	5_exp_RW	113	Rpleas_acq	CS_A	LWWL	JQQJ	YFFY	ZHHZ	CPPC	DXXD	vertrauen	küssen	gütig	träumen	genießen	sonnig	versagen	krank	gierig	töten	gemein	sterben	1	acq_USunple_CSunple1_RW	acq4567_RW	5	76	400	0	300	300	331	50	0	0	1	blank2r.bmp	0	1	+	0	1	blank2r.bmp	492	1	YFFY	492	1	blank2r.bmp	572	3	gierig	866	1	!	-1	1	!	-1	0	0	0	0	0	0	0	0	0	0	0	0	0	0	0	0	0	0	0	0	0	0	0	0	0	0	0	0	0	0
082619	17:08:41	17:18:43	601793	5.0.10.0	5_exp_RW	113	Rpleas_acq	CS_A	LWWL	JQQJ	YFFY	ZHHZ	CPPC	DXXD	vertrauen	küssen	gütig	träumen	genießen	sonnig	versagen	krank	gierig	töten	gemein	sterben	1	acq_USpleas_CSpleas1_RW	acq4567_RW	5	77	400	1	300	300	346	50	0	1	1	blank2r.bmp	0	1	+	0	1	blank2r.bmp	492	1	LWWL	492	1	blank2r.bmp	572	1	vertrauen	866	1	!	1239	1	!	1252	0	0	0	0	0	0	0	0	0	0	0	0	0	0	0	0	0	0	0	0	0	0	0	0	0	0	0	0	0	0
082619	17:08:41	17:18:45	603939	5.0.10.0	5_exp_RW	113	Rpleas_acq	CS_A	LWWL	JQQJ	YFFY	ZHHZ	CPPC	DXXD	vertrauen	küssen	gütig	träumen	genießen	sonnig	versagen	krank	gierig	töten	gemein	sterben	1	acq_USunple_CSunple1_RW	acq4567_RW	5	78	400	1	300	300	346	46	0	1	1	blank2r.bmp	0	1	+	0	1	blank2r.bmp	492	1	YFFY	492	1	blank2r.bmp	572	2	krank	866	1	!	1239	1	!	1252	0	0	0	0	0	0	0	0	0	0	0	0	0	0	0	0	0	0	0	0	0	0	0	0	0	0	0	0	0	0
082619	17:08:41	17:18:47	606045	5.0.10.0	5_exp_RW	113	Rpleas_acq	CS_A	LWWL	JQQJ	YFFY	ZHHZ	CPPC	DXXD	vertrauen	küssen	gütig	träumen	genießen	sonnig	versagen	krank	gierig	töten	gemein	sterben	1	acq_USpleas_CSpleas2_RW	acq4567_RW	5	79	400	0	300	300	333	46	0	0	1	blank2r.bmp	0	1	+	0	1	blank2r.bmp	492	1	JQQJ	492	1	blank2r.bmp	572	2	genießen	866	1	!	-1	1	!	-1	0	0	0	0	0	0	0	0	0	0	0	0	0	0	0	0	0	0	0	0	0	0	0	0	0	0	0	0	0	0
082619	17:08:41	17:18:50	608311	5.0.10.0	5_exp_RW	113	Rpleas_acq	CS_A	LWWL	JQQJ	YFFY	ZHHZ	CPPC	DXXD	vertrauen	küssen	gütig	träumen	genießen	sonnig	versagen	krank	gierig	töten	gemein	sterben	1	acq_USunple_CSunple1_RW	acq4567_RW	5	80	400	1	300	300	463	46	0	1	1	blank2r.bmp	0	1	+	0	1	blank2r.bmp	492	1	YFFY	492	1	blank2r.bmp	572	1	versagen	866	1	!	1239	1	!	1359	0	0	0	0	0	0	0	0	0	0	0	0	0	0	0	0	0	0	0	0	0	0	0	0	0	0	0	0	0	0
082619	17:08:41	17:18:59	617334	5.0.10.0	5_exp_RW	113	Rpleas_acq	CS_A	LWWL	JQQJ	YFFY	ZHHZ	CPPC	DXXD	vertrauen	küssen	gütig	träumen	genießen	sonnig	versagen	krank	gierig	töten	gemein	sterben	1	acq_USpleas_CSpleas2_RW	acq4567_RW	6	1	400	0	300	300	328	50	0	1	1	blank2r.bmp	0	1	+	0	1	blank2r.bmp	492	1	JQQJ	492	1	blank2r.bmp	572	1	träumen	866	1	!	-1	1	!	-1	0	0	0	0	0	0	0	0	0	0	0	0	0	0	0	0	0	0	0	0	0	0	0	0	0	0	0	0	0	0
082619	17:08:41	17:19:01	619413	5.0.10.0	5_exp_RW	113	Rpleas_acq	CS_A	LWWL	JQQJ	YFFY	ZHHZ	CPPC	DXXD	vertrauen	küssen	gütig	träumen	genießen	sonnig	versagen	krank	gierig	töten	gemein	sterben	1	acq_USunple_CSunple2_RW	acq4567_RW	6	2	400	0	300	300	292	46	0	1	1	blank2r.bmp	0	1	+	0	1	blank2r.bmp	492	1	ZHHZ	492	1	blank2r.bmp	572	2	gemein	866	1	!	-1	1	!	-1	0	0	0	0	0	0	0	0	0	0	0	0	0	0	0	0	0	0	0	0	0	0	0	0	0	0	0	0	0	0
082619	17:08:41	17:19:03	621612	5.0.10.0	5_exp_RW	113	Rpleas_acq	CS_A	LWWL	JQQJ	YFFY	ZHHZ	CPPC	DXXD	vertrauen	küssen	gütig	träumen	genießen	sonnig	versagen	krank	gierig	töten	gemein	sterben	1	acq_USpleas_CSpleas2_RW	acq4567_RW	6	3	400	1	300	300	389	50	0	1	1	blank2r.bmp	0	1	+	0	1	blank2r.bmp	492	1	JQQJ	492	1	blank2r.bmp	572	3	sonnig	866	1	!	1239	1	!	1292	0	0	0	0	0	0	0	0	0	0	0	0	0	0	0	0	0	0	0	0	0	0	0	0	0	0	0	0	0	0
082619	17:08:41	17:19:05	623758	5.0.10.0	5_exp_RW	113	Rpleas_acq	CS_A	LWWL	JQQJ	YFFY	ZHHZ	CPPC	DXXD	vertrauen	küssen	gütig	träumen	genießen	sonnig	versagen	krank	gierig	töten	gemein	sterben	1	acq_USpleas_CSpleas1_RW	acq4567_RW	6	4	400	1	300	300	348	50	0	1	1	blank2r.bmp	0	1	+	0	1	blank2r.bmp	492	1	LWWL	492	1	blank2r.bmp	572	2	küssen	866	1	!	1239	1	!	1252	0	0	0	0	0	0	0	0	0	0	0	0	0	0	0	0	0	0	0	0	0	0	0	0	0	0	0	0	0	0
082619	17:08:41	17:19:07	625904	5.0.10.0	5_exp_RW	113	Rpleas_acq	CS_A	LWWL	JQQJ	YFFY	ZHHZ	CPPC	DXXD	vertrauen	küssen	gütig	träumen	genießen	sonnig	versagen	krank	gierig	töten	gemein	sterben	1	acq_USunple_CSunple1_RW	acq4567_RW	6	5	400	1	300	300	349	46	0	1	1	blank2r.bmp	0	1	+	0	1	blank2r.bmp	492	1	YFFY	492	1	blank2r.bmp	572	3	gierig	866	1	!	1239	1	!	1252	0	0	0	0	0	0	0	0	0	0	0	0	0	0	0	0	0	0	0	0	0	0	0	0	0	0	0	0	0	0
082619	17:08:41	17:19:09	628103	5.0.10.0	5_exp_RW	113	Rpleas_acq	CS_A	LWWL	JQQJ	YFFY	ZHHZ	CPPC	DXXD	vertrauen	küssen	gütig	träumen	genießen	sonnig	versagen	krank	gierig	töten	gemein	sterben	1	acq_USpleas_CSpleas1_RW	acq4567_RW	6	6	400	1	300	300	401	50	0	1	1	blank2r.bmp	0	1	+	0	1	blank2r.bmp	492	1	LWWL	492	1	blank2r.bmp	572	3	gütig	866	1	!	1239	1	!	1306	0	0	0	0	0	0	0	0	0	0	0	0	0	0	0	0	0	0	0	0	0	0	0	0	0	0	0	0	0	0
082619	17:08:41	17:19:11	630195	5.0.10.0	5_exp_RW	113	Rpleas_acq	CS_A	LWWL	JQQJ	YFFY	ZHHZ	CPPC	DXXD	vertrauen	küssen	gütig	träumen	genießen	sonnig	versagen	krank	gierig	töten	gemein	sterben	1	acq_USpleas_CSpleas1_RW	acq4567_RW	6	7	400	0	300	300	326	50	0	1	1	blank2r.bmp	0	1	+	0	1	blank2r.bmp	492	1	LWWL	492	1	blank2r.bmp	572	2	küssen	866	1	!	-1	1	!	-1	0	0	0	0	0	0	0	0	0	0	0	0	0	0	0	0	0	0	0	0	0	0	0	0	0	0	0	0	0	0
082619	17:08:41	17:19:14	632368	5.0.10.0	5_exp_RW	113	Rpleas_acq	CS_A	LWWL	JQQJ	YFFY	ZHHZ	CPPC	DXXD	vertrauen	küssen	gütig	träumen	genießen	sonnig	versagen	krank	gierig	töten	gemein	sterben	1	acq_USpleas_CSpleas2_RW	acq4567_RW	6	8	400	1	300	300	365	50	0	1	1	blank2r.bmp	0	1	+	0	1	blank2r.bmp	492	1	JQQJ	492	1	blank2r.bmp	572	2	genießen	866	1	!	1239	1	!	1266	0	0	0	0	0	0	0	0	0	0	0	0	0	0	0	0	0	0	0	0	0	0	0	0	0	0	0	0	0	0
082619	17:08:41	17:19:16	634380	5.0.10.0	5_exp_RW	113	Rpleas_acq	CS_A	LWWL	JQQJ	YFFY	ZHHZ	CPPC	DXXD	vertrauen	küssen	gütig	träumen	genießen	sonnig	versagen	krank	gierig	töten	gemein	sterben	1	acq_USunple_CSunple1_RW	acq4567_RW	6	9	400	0	300	300	249	46	0	1	1	blank2r.bmp	0	1	+	0	1	blank2r.bmp	492	1	YFFY	492	1	blank2r.bmp	572	1	versagen	866	1	!	-1	1	!	-1	0	0	0	0	0	0	0	0	0	0	0	0	0	0	0	0	0	0	0	0	0	0	0	0	0	0	0	0	0	0
082619	17:08:41	17:19:18	636473	5.0.10.0	5_exp_RW	113	Rpleas_acq	CS_A	LWWL	JQQJ	YFFY	ZHHZ	CPPC	DXXD	vertrauen	küssen	gütig	träumen	genießen	sonnig	versagen	krank	gierig	töten	gemein	sterben	1	acq_USpleas_CSpleas2_RW	acq4567_RW	6	10	400	0	300	300	311	50	0	1	1	blank2r.bmp	0	1	+	0	1	blank2r.bmp	492	1	JQQJ	492	1	blank2r.bmp	572	1	träumen	866	1	!	-1	1	!	-1	0	0	0	0	0	0	0	0	0	0	0	0	0	0	0	0	0	0	0	0	0	0	0	0	0	0	0	0	0	0
082619	17:08:41	17:19:20	638525	5.0.10.0	5_exp_RW	113	Rpleas_acq	CS_A	LWWL	JQQJ	YFFY	ZHHZ	CPPC	DXXD	vertrauen	küssen	gütig	träumen	genießen	sonnig	versagen	krank	gierig	töten	gemein	sterben	1	acq_USpleas_CSpleas2_RW	acq4567_RW	6	11	400	0	300	300	276	46	0	0	1	blank2r.bmp	0	1	+	0	1	blank2r.bmp	492	1	JQQJ	492	1	blank2r.bmp	572	3	sonnig	866	1	!	-1	1	!	-1	0	0	0	0	0	0	0	0	0	0	0	0	0	0	0	0	0	0	0	0	0	0	0	0	0	0	0	0	0	0
082619	17:08:41	17:19:22	640591	5.0.10.0	5_exp_RW	113	Rpleas_acq	CS_A	LWWL	JQQJ	YFFY	ZHHZ	CPPC	DXXD	vertrauen	küssen	gütig	träumen	genießen	sonnig	versagen	krank	gierig	töten	gemein	sterben	1	acq_USpleas_CSpleas1_RW	acq4567_RW	6	12	400	0	300	300	283	50	0	1	1	blank2r.bmp	0	1	+	0	1	blank2r.bmp	492	1	LWWL	492	1	blank2r.bmp	572	1	vertrauen	866	1	!	-1	1	!	-1	0	0	0	0	0	0	0	0	0	0	0	0	0	0	0	0	0	0	0	0	0	0	0	0	0	0	0	0	0	0
