date	time	script.currenttime	script.elapsedtime	build	script.currentexpt	subject	expressions.LRpleas_acq	expressions.conditionCS_A	expressions.CSpleas_1	expressions.CSpleas_2	expressions.CSunple_1	expressions.CSunple_2	expressions.distractor_1	expressions.distractor_2	expressions.US_pleas1	expressions.US_pleas2	expressions.US_pleas3	expressions.US_pleas4	expressions.US_pleas5	expressions.US_pleas6	expressions.US_unple1	expressions.US_unple2	expressions.US_unple3	expressions.US_unple4	expressions.US_unple5	expressions.US_unple6	counter.positions_noRW	trialcode	blockcode	blocknum	trialnum	windowcenter	inwindow	pretrialpause	posttrialpause	latency	response	expressions.correctedscore	correct	stimulusnumber1	stimulusitem1	stimulusonset1	stimulusnumber2	stimulusitem2	stimulusonset2	stimulusnumber3	stimulusitem3	stimulusonset3	stimulusnumber4	stimulusitem4	stimulusonset4	stimulusnumber5	stimulusitem5	stimulusonset5	stimulusnumber6	stimulusitem6	stimulusonset6	stimulusnumber7	stimulusitem7	stimulusonset7	stimulusnumber8	stimulusitem8	stimulusonset8	stimulusnumber9	stimulusitem9	stimulusonset9	stimulusnumber10	stimulusitem10	stimulusonset10	stimulusnumber11	stimulusitem11	stimulusonset11	stimulusnumber12	stimulusitem12	stimulusonset12	stimulusnumber13	stimulusitem13	stimulusonset13	stimulusnumber14	stimulusitem14	stimulusonset14	stimulusnumber15	stimulusitem15	stimulusonset15	stimulusnumber16	stimulusitem16	stimulusonset16	stimulusnumber17	stimulusitem17	stimulusonset17	stimulusnumber18	stimulusitem18	stimulusonset18
071519	11:02:52	11:04:23	90095	5.0.10.0	5_exp_noRW	46	Rpleas_acq	CS_A	CPPC	DXXD	ZHHZ	JQQJ	YFFY	LWWL	küssen	genießen	träumen	vertrauen	gütig	sonnig	krank	gemein	töten	versagen	gierig	sterben	53pct	acq_USunple_CSunple1_noRW	acq1_noRW	1	1	0	0	300	300	783	46	0	1	1	blank2r.bmp	0	1	+	0	1	blank2r.bmp	252	1	ZHHZ	306	1	krank	559	0	0	0	0	0	0	0	0	0	0	0	0	0	0	0	0	0	0	0	0	0	0	0	0	0	0	0	0	0	0	0	0	0	0	0	0	0	0	0
071519	11:02:52	11:04:24	91841	5.0.10.0	5_exp_noRW	46	Rpleas_acq	CS_A	CPPC	DXXD	ZHHZ	JQQJ	YFFY	LWWL	küssen	genießen	träumen	vertrauen	gütig	sonnig	krank	gemein	töten	versagen	gierig	sterben	53pct	acq_USpleas_CSpleas2_noRW	acq1_noRW	1	2	0	0	300	300	563	50	0	1	1	blank2r.bmp	0	1	+	0	1	blank2r.bmp	252	1	DXXD	306	3	sonnig	559	0	0	0	0	0	0	0	0	0	0	0	0	0	0	0	0	0	0	0	0	0	0	0	0	0	0	0	0	0	0	0	0	0	0	0	0	0	0	0
071519	11:02:52	11:04:26	93560	5.0.10.0	5_exp_noRW	46	Rpleas_acq	CS_A	CPPC	DXXD	ZHHZ	JQQJ	YFFY	LWWL	küssen	genießen	träumen	vertrauen	gütig	sonnig	krank	gemein	töten	versagen	gierig	sterben	47pct	acq_USpleas_CSpleas1_noRW	acq1_noRW	1	3	0	0	300	300	546	50	0	1	1	blank2r.bmp	0	1	+	0	1	blank2r.bmp	252	1	CPPC	306	1	küssen	559	0	0	0	0	0	0	0	0	0	0	0	0	0	0	0	0	0	0	0	0	0	0	0	0	0	0	0	0	0	0	0	0	0	0	0	0	0	0	0
071519	11:02:52	11:04:28	95279	5.0.10.0	5_exp_noRW	46	Rpleas_acq	CS_A	CPPC	DXXD	ZHHZ	JQQJ	YFFY	LWWL	küssen	genießen	träumen	vertrauen	gütig	sonnig	krank	gemein	töten	versagen	gierig	sterben	47pct	acq_USunple_CSunple2_noRW	acq1_noRW	1	4	0	0	300	300	551	46	0	1	1	blank2r.bmp	0	1	+	0	1	blank2r.bmp	252	1	JQQJ	306	1	versagen	559	0	0	0	0	0	0	0	0	0	0	0	0	0	0	0	0	0	0	0	0	0	0	0	0	0	0	0	0	0	0	0	0	0	0	0	0	0	0	0
071519	11:02:52	11:04:30	97065	5.0.10.0	5_exp_noRW	46	Rpleas_acq	CS_A	CPPC	DXXD	ZHHZ	JQQJ	YFFY	LWWL	küssen	genießen	träumen	vertrauen	gütig	sonnig	krank	gemein	töten	versagen	gierig	sterben	47pct	acq_USpleas_CSunple2_noRW	acq1_noRW	1	5	0	0	300	300	604	50	0	1	1	blank2r.bmp	0	1	+	0	1	blank2r.bmp	252	1	JQQJ	306	2	gütig	559	0	0	0	0	0	0	0	0	0	0	0	0	0	0	0	0	0	0	0	0	0	0	0	0	0	0	0	0	0	0	0	0	0	0	0	0	0	0	0
071519	11:02:52	11:04:31	98718	5.0.10.0	5_exp_noRW	46	Rpleas_acq	CS_A	CPPC	DXXD	ZHHZ	JQQJ	YFFY	LWWL	küssen	genießen	träumen	vertrauen	gütig	sonnig	krank	gemein	töten	versagen	gierig	sterben	47pct	acq_USpleas_CSpleas2_noRW	acq1_noRW	1	6	0	0	300	300	488	50	0	1	1	blank2r.bmp	0	1	+	0	1	blank2r.bmp	252	1	DXXD	306	1	vertrauen	559	0	0	0	0	0	0	0	0	0	0	0	0	0	0	0	0	0	0	0	0	0	0	0	0	0	0	0	0	0	0	0	0	0	0	0	0	0	0	0
071519	11:02:52	11:04:33	100464	5.0.10.0	5_exp_noRW	46	Rpleas_acq	CS_A	CPPC	DXXD	ZHHZ	JQQJ	YFFY	LWWL	küssen	genießen	träumen	vertrauen	gütig	sonnig	krank	gemein	töten	versagen	gierig	sterben	53pct	acq_USunple_CSpleas2_noRW	acq1_noRW	1	7	0	0	300	300	574	46	0	1	1	blank2r.bmp	0	1	+	0	1	blank2r.bmp	252	1	DXXD	306	1	versagen	559	0	0	0	0	0	0	0	0	0	0	0	0	0	0	0	0	0	0	0	0	0	0	0	0	0	0	0	0	0	0	0	0	0	0	0	0	0	0	0
071519	11:02:52	11:04:35	102183	5.0.10.0	5_exp_noRW	46	Rpleas_acq	CS_A	CPPC	DXXD	ZHHZ	JQQJ	YFFY	LWWL	küssen	genießen	träumen	vertrauen	gütig	sonnig	krank	gemein	töten	versagen	gierig	sterben	47pct	acq_USunple_CSpleas1_noRW	acq1_noRW	1	8	0	0	300	300	557	46	0	1	1	blank2r.bmp	0	1	+	0	1	blank2r.bmp	252	1	CPPC	306	3	töten	559	0	0	0	0	0	0	0	0	0	0	0	0	0	0	0	0	0	0	0	0	0	0	0	0	0	0	0	0	0	0	0	0	0	0	0	0	0	0	0
071519	11:02:52	11:04:36	103822	5.0.10.0	5_exp_noRW	46	Rpleas_acq	CS_A	CPPC	DXXD	ZHHZ	JQQJ	YFFY	LWWL	küssen	genießen	träumen	vertrauen	gütig	sonnig	krank	gemein	töten	versagen	gierig	sterben	53pct	acq_USpleas_CSpleas2_noRW	acq1_noRW	1	9	0	0	300	300	464	50	0	1	1	blank2r.bmp	0	1	+	0	1	blank2r.bmp	252	1	DXXD	306	2	gütig	559	0	0	0	0	0	0	0	0	0	0	0	0	0	0	0	0	0	0	0	0	0	0	0	0	0	0	0	0	0	0	0	0	0	0	0	0	0	0	0
071519	11:02:52	11:04:38	105435	5.0.10.0	5_exp_noRW	46	Rpleas_acq	CS_A	CPPC	DXXD	ZHHZ	JQQJ	YFFY	LWWL	küssen	genießen	träumen	vertrauen	gütig	sonnig	krank	gemein	töten	versagen	gierig	sterben	53pct	acq_USpleas_CSunple1_noRW	acq1_noRW	1	10	0	0	300	300	426	50	0	1	1	blank2r.bmp	0	1	+	0	1	blank2r.bmp	252	1	ZHHZ	306	1	küssen	559	0	0	0	0	0	0	0	0	0	0	0	0	0	0	0	0	0	0	0	0	0	0	0	0	0	0	0	0	0	0	0	0	0	0	0	0	0	0	0
071519	11:02:52	11:04:40	107674	5.0.10.0	5_exp_noRW	46	Rpleas_acq	CS_A	CPPC	DXXD	ZHHZ	JQQJ	YFFY	LWWL	küssen	genießen	träumen	vertrauen	gütig	sonnig	krank	gemein	töten	versagen	gierig	sterben	47pct	acq_USunple_CSunple2_noRW	acq1_noRW	1	11	0	0	300	300	864	50	0	0	1	blank2r.bmp	0	1	+	0	1	blank2r.bmp	252	1	JQQJ	306	2	gierig	559	1	FEHLER	1452	0	0	0	0	0	0	0	0	0	0	0	0	0	0	0	0	0	0	0	0	0	0	0	0	0	0	0	0	0	0	0	0	0	0	0	0
071519	11:02:52	11:04:42	109114	5.0.10.0	5_exp_noRW	46	Rpleas_acq	CS_A	CPPC	DXXD	ZHHZ	JQQJ	YFFY	LWWL	küssen	genießen	träumen	vertrauen	gütig	sonnig	krank	gemein	töten	versagen	gierig	sterben	53pct	acq_USunple_CSunple1_noRW	acq1_noRW	1	12	0	0	300	300	471	46	0	1	1	blank2r.bmp	0	1	+	0	1	blank2r.bmp	252	1	ZHHZ	306	3	töten	559	0	0	0	0	0	0	0	0	0	0	0	0	0	0	0	0	0	0	0	0	0	0	0	0	0	0	0	0	0	0	0	0	0	0	0	0	0	0	0
071519	11:02:52	11:04:43	110740	5.0.10.0	5_exp_noRW	46	Rpleas_acq	CS_A	CPPC	DXXD	ZHHZ	JQQJ	YFFY	LWWL	küssen	genießen	träumen	vertrauen	gütig	sonnig	krank	gemein	töten	versagen	gierig	sterben	53pct	acq_USunple_CSunple2_noRW	acq1_noRW	1	13	0	0	300	300	459	46	0	1	1	blank2r.bmp	0	1	+	0	1	blank2r.bmp	252	1	JQQJ	306	3	sterben	559	0	0	0	0	0	0	0	0	0	0	0	0	0	0	0	0	0	0	0	0	0	0	0	0	0	0	0	0	0	0	0	0	0	0	0	0	0	0	0
071519	11:02:52	11:04:45	112499	5.0.10.0	5_exp_noRW	46	Rpleas_acq	CS_A	CPPC	DXXD	ZHHZ	JQQJ	YFFY	LWWL	küssen	genießen	träumen	vertrauen	gütig	sonnig	krank	gemein	töten	versagen	gierig	sterben	53pct	acq_USpleas_CSpleas1_noRW	acq1_noRW	1	14	0	0	300	300	582	50	0	1	1	blank2r.bmp	0	1	+	0	1	blank2r.bmp	252	1	CPPC	306	2	genießen	559	0	0	0	0	0	0	0	0	0	0	0	0	0	0	0	0	0	0	0	0	0	0	0	0	0	0	0	0	0	0	0	0	0	0	0	0	0	0	0
071519	11:02:52	11:04:47	114258	5.0.10.0	5_exp_noRW	46	Rpleas_acq	CS_A	CPPC	DXXD	ZHHZ	JQQJ	YFFY	LWWL	küssen	genießen	träumen	vertrauen	gütig	sonnig	krank	gemein	töten	versagen	gierig	sterben	53pct	acq_USunple_CSunple2_noRW	acq1_noRW	1	15	0	0	300	300	578	46	0	1	1	blank2r.bmp	0	1	+	0	1	blank2r.bmp	252	1	JQQJ	306	3	sterben	559	0	0	0	0	0	0	0	0	0	0	0	0	0	0	0	0	0	0	0	0	0	0	0	0	0	0	0	0	0	0	0	0	0	0	0	0	0	0	0
071519	11:02:52	11:04:49	116004	5.0.10.0	5_exp_noRW	46	Rpleas_acq	CS_A	CPPC	DXXD	ZHHZ	JQQJ	YFFY	LWWL	küssen	genießen	träumen	vertrauen	gütig	sonnig	krank	gemein	töten	versagen	gierig	sterben	53pct	acq_USpleas_CSpleas2_noRW	acq1_noRW	1	16	0	0	300	300	578	50	0	1	1	blank2r.bmp	0	1	+	0	1	blank2r.bmp	252	1	DXXD	306	2	gütig	559	0	0	0	0	0	0	0	0	0	0	0	0	0	0	0	0	0	0	0	0	0	0	0	0	0	0	0	0	0	0	0	0	0	0	0	0	0	0	0
071519	11:02:52	11:04:50	117830	5.0.10.0	5_exp_noRW	46	Rpleas_acq	CS_A	CPPC	DXXD	ZHHZ	JQQJ	YFFY	LWWL	küssen	genießen	träumen	vertrauen	gütig	sonnig	krank	gemein	töten	versagen	gierig	sterben	47pct	acq_USunple_CSunple1_noRW	acq1_noRW	1	17	0	0	300	300	663	46	0	1	1	blank2r.bmp	0	1	+	0	1	blank2r.bmp	252	1	ZHHZ	306	2	gemein	559	0	0	0	0	0	0	0	0	0	0	0	0	0	0	0	0	0	0	0	0	0	0	0	0	0	0	0	0	0	0	0	0	0	0	0	0	0	0	0
071519	11:02:52	11:04:52	119682	5.0.10.0	5_exp_noRW	46	Rpleas_acq	CS_A	CPPC	DXXD	ZHHZ	JQQJ	YFFY	LWWL	küssen	genießen	träumen	vertrauen	gütig	sonnig	krank	gemein	töten	versagen	gierig	sterben	47pct	acq_USpleas_CSpleas1_noRW	acq1_noRW	1	18	0	0	300	300	665	50	0	1	1	blank2r.bmp	0	1	+	0	1	blank2r.bmp	252	1	CPPC	306	3	träumen	559	0	0	0	0	0	0	0	0	0	0	0	0	0	0	0	0	0	0	0	0	0	0	0	0	0	0	0	0	0	0	0	0	0	0	0	0	0	0	0
071519	11:02:52	11:04:54	121335	5.0.10.0	5_exp_noRW	46	Rpleas_acq	CS_A	CPPC	DXXD	ZHHZ	JQQJ	YFFY	LWWL	küssen	genießen	träumen	vertrauen	gütig	sonnig	krank	gemein	töten	versagen	gierig	sterben	47pct	acq_USpleas_CSpleas1_noRW	acq1_noRW	1	19	0	0	300	300	466	50	0	1	1	blank2r.bmp	0	1	+	0	1	blank2r.bmp	252	1	CPPC	306	2	genießen	559	0	0	0	0	0	0	0	0	0	0	0	0	0	0	0	0	0	0	0	0	0	0	0	0	0	0	0	0	0	0	0	0	0	0	0	0	0	0	0
071519	11:02:52	11:04:56	122974	5.0.10.0	5_exp_noRW	46	Rpleas_acq	CS_A	CPPC	DXXD	ZHHZ	JQQJ	YFFY	LWWL	küssen	genießen	träumen	vertrauen	gütig	sonnig	krank	gemein	töten	versagen	gierig	sterben	53pct	acq_USunple_CSunple1_noRW	acq1_noRW	1	20	0	0	300	300	455	46	0	1	1	blank2r.bmp	0	1	+	0	1	blank2r.bmp	252	1	ZHHZ	306	1	krank	559	0	0	0	0	0	0	0	0	0	0	0	0	0	0	0	0	0	0	0	0	0	0	0	0	0	0	0	0	0	0	0	0	0	0	0	0	0	0	0
071519	11:02:52	11:04:57	124640	5.0.10.0	5_exp_noRW	46	Rpleas_acq	CS_A	CPPC	DXXD	ZHHZ	JQQJ	YFFY	LWWL	küssen	genießen	träumen	vertrauen	gütig	sonnig	krank	gemein	töten	versagen	gierig	sterben	53pct	acq_USpleas_CSunple2_noRW	acq1_noRW	1	21	0	0	300	300	495	50	0	1	1	blank2r.bmp	0	1	+	0	1	blank2r.bmp	252	1	JQQJ	306	1	vertrauen	559	0	0	0	0	0	0	0	0	0	0	0	0	0	0	0	0	0	0	0	0	0	0	0	0	0	0	0	0	0	0	0	0	0	0	0	0	0	0	0
071519	11:02:52	11:04:59	126266	5.0.10.0	5_exp_noRW	46	Rpleas_acq	CS_A	CPPC	DXXD	ZHHZ	JQQJ	YFFY	LWWL	küssen	genießen	träumen	vertrauen	gütig	sonnig	krank	gemein	töten	versagen	gierig	sterben	47pct	acq_USpleas_CSunple1_noRW	acq1_noRW	1	22	0	0	300	300	446	50	0	1	1	blank2r.bmp	0	1	+	0	1	blank2r.bmp	252	1	ZHHZ	306	3	träumen	559	0	0	0	0	0	0	0	0	0	0	0	0	0	0	0	0	0	0	0	0	0	0	0	0	0	0	0	0	0	0	0	0	0	0	0	0	0	0	0
071519	11:02:52	11:05:01	127932	5.0.10.0	5_exp_noRW	46	Rpleas_acq	CS_A	CPPC	DXXD	ZHHZ	JQQJ	YFFY	LWWL	küssen	genießen	träumen	vertrauen	gütig	sonnig	krank	gemein	töten	versagen	gierig	sterben	53pct	acq_USpleas_CSpleas2_noRW	acq1_noRW	1	23	0	0	300	300	495	50	0	1	1	blank2r.bmp	0	1	+	0	1	blank2r.bmp	252	1	DXXD	306	1	vertrauen	559	0	0	0	0	0	0	0	0	0	0	0	0	0	0	0	0	0	0	0	0	0	0	0	0	0	0	0	0	0	0	0	0	0	0	0	0	0	0	0
071519	11:02:52	11:05:02	129572	5.0.10.0	5_exp_noRW	46	Rpleas_acq	CS_A	CPPC	DXXD	ZHHZ	JQQJ	YFFY	LWWL	küssen	genießen	träumen	vertrauen	gütig	sonnig	krank	gemein	töten	versagen	gierig	sterben	47pct	acq_USunple_CSunple1_noRW	acq1_noRW	1	24	0	0	300	300	461	46	0	1	1	blank2r.bmp	0	1	+	0	1	blank2r.bmp	252	1	ZHHZ	306	3	töten	559	0	0	0	0	0	0	0	0	0	0	0	0	0	0	0	0	0	0	0	0	0	0	0	0	0	0	0	0	0	0	0	0	0	0	0	0	0	0	0
071519	11:02:52	11:05:04	131304	5.0.10.0	5_exp_noRW	46	Rpleas_acq	CS_A	CPPC	DXXD	ZHHZ	JQQJ	YFFY	LWWL	küssen	genießen	träumen	vertrauen	gütig	sonnig	krank	gemein	töten	versagen	gierig	sterben	47pct	acq_USunple_CSpleas1_noRW	acq1_noRW	1	25	0	0	300	300	546	46	0	1	1	blank2r.bmp	0	1	+	0	1	blank2r.bmp	252	1	CPPC	306	1	krank	559	0	0	0	0	0	0	0	0	0	0	0	0	0	0	0	0	0	0	0	0	0	0	0	0	0	0	0	0	0	0	0	0	0	0	0	0	0	0	0
071519	11:02:52	11:05:06	133117	5.0.10.0	5_exp_noRW	46	Rpleas_acq	CS_A	CPPC	DXXD	ZHHZ	JQQJ	YFFY	LWWL	küssen	genießen	träumen	vertrauen	gütig	sonnig	krank	gemein	töten	versagen	gierig	sterben	47pct	acq_USunple_CSunple2_noRW	acq1_noRW	1	26	0	0	300	300	628	46	0	1	1	blank2r.bmp	0	1	+	0	1	blank2r.bmp	252	1	JQQJ	306	2	gierig	559	0	0	0	0	0	0	0	0	0	0	0	0	0	0	0	0	0	0	0	0	0	0	0	0	0	0	0	0	0	0	0	0	0	0	0	0	0	0	0
071519	11:02:52	11:05:07	134809	5.0.10.0	5_exp_noRW	46	Rpleas_acq	CS_A	CPPC	DXXD	ZHHZ	JQQJ	YFFY	LWWL	küssen	genießen	träumen	vertrauen	gütig	sonnig	krank	gemein	töten	versagen	gierig	sterben	47pct	acq_USunple_CSunple2_noRW	acq1_noRW	1	27	0	0	300	300	530	46	0	1	1	blank2r.bmp	0	1	+	0	1	blank2r.bmp	252	1	JQQJ	306	1	versagen	559	0	0	0	0	0	0	0	0	0	0	0	0	0	0	0	0	0	0	0	0	0	0	0	0	0	0	0	0	0	0	0	0	0	0	0	0	0	0	0
071519	11:02:52	11:05:09	136435	5.0.10.0	5_exp_noRW	46	Rpleas_acq	CS_A	CPPC	DXXD	ZHHZ	JQQJ	YFFY	LWWL	küssen	genießen	träumen	vertrauen	gütig	sonnig	krank	gemein	töten	versagen	gierig	sterben	53pct	acq_USpleas_CSpleas2_noRW	acq1_noRW	1	28	0	0	300	300	450	50	0	1	1	blank2r.bmp	0	1	+	0	1	blank2r.bmp	252	1	DXXD	306	3	sonnig	559	0	0	0	0	0	0	0	0	0	0	0	0	0	0	0	0	0	0	0	0	0	0	0	0	0	0	0	0	0	0	0	0	0	0	0	0	0	0	0
071519	11:02:52	11:05:11	138061	5.0.10.0	5_exp_noRW	46	Rpleas_acq	CS_A	CPPC	DXXD	ZHHZ	JQQJ	YFFY	LWWL	küssen	genießen	träumen	vertrauen	gütig	sonnig	krank	gemein	töten	versagen	gierig	sterben	47pct	acq_USpleas_CSpleas1_noRW	acq1_noRW	1	29	0	0	300	300	441	50	0	1	1	blank2r.bmp	0	1	+	0	1	blank2r.bmp	252	1	CPPC	306	3	träumen	559	0	0	0	0	0	0	0	0	0	0	0	0	0	0	0	0	0	0	0	0	0	0	0	0	0	0	0	0	0	0	0	0	0	0	0	0	0	0	0
071519	11:02:52	11:05:12	139754	5.0.10.0	5_exp_noRW	46	Rpleas_acq	CS_A	CPPC	DXXD	ZHHZ	JQQJ	YFFY	LWWL	küssen	genießen	träumen	vertrauen	gütig	sonnig	krank	gemein	töten	versagen	gierig	sterben	53pct	acq_USunple_CSunple1_noRW	acq1_noRW	1	30	0	0	300	300	519	46	0	1	1	blank2r.bmp	0	1	+	0	1	blank2r.bmp	252	1	ZHHZ	306	2	gemein	559	0	0	0	0	0	0	0	0	0	0	0	0	0	0	0	0	0	0	0	0	0	0	0	0	0	0	0	0	0	0	0	0	0	0	0	0	0	0	0
071519	11:02:52	11:05:14	141367	5.0.10.0	5_exp_noRW	46	Rpleas_acq	CS_A	CPPC	DXXD	ZHHZ	JQQJ	YFFY	LWWL	küssen	genießen	träumen	vertrauen	gütig	sonnig	krank	gemein	töten	versagen	gierig	sterben	53pct	acq_USpleas_CSpleas1_noRW	acq1_noRW	1	31	0	0	300	300	449	50	0	1	1	blank2r.bmp	0	1	+	0	1	blank2r.bmp	252	1	CPPC	306	1	küssen	559	0	0	0	0	0	0	0	0	0	0	0	0	0	0	0	0	0	0	0	0	0	0	0	0	0	0	0	0	0	0	0	0	0	0	0	0	0	0	0
071519	11:02:52	11:05:16	143006	5.0.10.0	5_exp_noRW	46	Rpleas_acq	CS_A	CPPC	DXXD	ZHHZ	JQQJ	YFFY	LWWL	küssen	genießen	träumen	vertrauen	gütig	sonnig	krank	gemein	töten	versagen	gierig	sterben	47pct	acq_USunple_CSunple2_noRW	acq1_noRW	1	32	0	0	300	300	475	46	0	1	1	blank2r.bmp	0	1	+	0	1	blank2r.bmp	252	1	JQQJ	306	2	gierig	559	0	0	0	0	0	0	0	0	0	0	0	0	0	0	0	0	0	0	0	0	0	0	0	0	0	0	0	0	0	0	0	0	0	0	0	0	0	0	0
071519	11:02:52	11:05:17	144605	5.0.10.0	5_exp_noRW	46	Rpleas_acq	CS_A	CPPC	DXXD	ZHHZ	JQQJ	YFFY	LWWL	küssen	genießen	träumen	vertrauen	gütig	sonnig	krank	gemein	töten	versagen	gierig	sterben	53pct	acq_USpleas_CSpleas2_noRW	acq1_noRW	1	33	0	0	300	300	425	50	0	1	1	blank2r.bmp	0	1	+	0	1	blank2r.bmp	252	1	DXXD	306	3	sonnig	559	0	0	0	0	0	0	0	0	0	0	0	0	0	0	0	0	0	0	0	0	0	0	0	0	0	0	0	0	0	0	0	0	0	0	0	0	0	0	0
071519	11:02:52	11:05:19	146191	5.0.10.0	5_exp_noRW	46	Rpleas_acq	CS_A	CPPC	DXXD	ZHHZ	JQQJ	YFFY	LWWL	küssen	genießen	träumen	vertrauen	gütig	sonnig	krank	gemein	töten	versagen	gierig	sterben	53pct	acq_USunple_CSpleas2_noRW	acq1_noRW	1	34	0	0	300	300	413	46	0	1	1	blank2r.bmp	0	1	+	0	1	blank2r.bmp	252	1	DXXD	306	3	sterben	559	0	0	0	0	0	0	0	0	0	0	0	0	0	0	0	0	0	0	0	0	0	0	0	0	0	0	0	0	0	0	0	0	0	0	0	0	0	0	0
071519	11:02:52	11:05:20	147831	5.0.10.0	5_exp_noRW	46	Rpleas_acq	CS_A	CPPC	DXXD	ZHHZ	JQQJ	YFFY	LWWL	küssen	genießen	träumen	vertrauen	gütig	sonnig	krank	gemein	töten	versagen	gierig	sterben	53pct	acq_USunple_CSunple1_noRW	acq1_noRW	1	35	0	0	300	300	469	46	0	1	1	blank2r.bmp	0	1	+	0	1	blank2r.bmp	252	1	ZHHZ	306	3	töten	559	0	0	0	0	0	0	0	0	0	0	0	0	0	0	0	0	0	0	0	0	0	0	0	0	0	0	0	0	0	0	0	0	0	0	0	0	0	0	0
071519	11:02:52	11:05:22	149457	5.0.10.0	5_exp_noRW	46	Rpleas_acq	CS_A	CPPC	DXXD	ZHHZ	JQQJ	YFFY	LWWL	küssen	genießen	träumen	vertrauen	gütig	sonnig	krank	gemein	töten	versagen	gierig	sterben	53pct	acq_USunple_CSunple2_noRW	acq1_noRW	1	36	0	0	300	300	464	46	0	1	1	blank2r.bmp	0	1	+	0	1	blank2r.bmp	252	1	JQQJ	306	1	versagen	559	0	0	0	0	0	0	0	0	0	0	0	0	0	0	0	0	0	0	0	0	0	0	0	0	0	0	0	0	0	0	0	0	0	0	0	0	0	0	0
071519	11:02:52	11:05:24	151189	5.0.10.0	5_exp_noRW	46	Rpleas_acq	CS_A	CPPC	DXXD	ZHHZ	JQQJ	YFFY	LWWL	küssen	genießen	träumen	vertrauen	gütig	sonnig	krank	gemein	töten	versagen	gierig	sterben	53pct	acq_USunple_CSunple1_noRW	acq1_noRW	1	37	0	0	300	300	555	46	0	1	1	blank2r.bmp	0	1	+	0	1	blank2r.bmp	252	1	ZHHZ	306	1	krank	559	0	0	0	0	0	0	0	0	0	0	0	0	0	0	0	0	0	0	0	0	0	0	0	0	0	0	0	0	0	0	0	0	0	0	0	0	0	0	0
071519	11:02:52	11:05:25	152775	5.0.10.0	5_exp_noRW	46	Rpleas_acq	CS_A	CPPC	DXXD	ZHHZ	JQQJ	YFFY	LWWL	küssen	genießen	träumen	vertrauen	gütig	sonnig	krank	gemein	töten	versagen	gierig	sterben	53pct	acq_USpleas_CSpleas1_noRW	acq1_noRW	1	38	0	0	300	300	398	50	0	1	1	blank2r.bmp	0	1	+	0	1	blank2r.bmp	252	1	CPPC	306	3	träumen	559	0	0	0	0	0	0	0	0	0	0	0	0	0	0	0	0	0	0	0	0	0	0	0	0	0	0	0	0	0	0	0	0	0	0	0	0	0	0	0
071519	11:02:52	11:05:27	154588	5.0.10.0	5_exp_noRW	46	Rpleas_acq	CS_A	CPPC	DXXD	ZHHZ	JQQJ	YFFY	LWWL	küssen	genießen	träumen	vertrauen	gütig	sonnig	krank	gemein	töten	versagen	gierig	sterben	53pct	acq_USpleas_CSpleas2_noRW	acq1_noRW	1	39	0	0	300	300	647	50	0	1	1	blank2r.bmp	0	1	+	0	1	blank2r.bmp	252	1	DXXD	306	2	gütig	559	0	0	0	0	0	0	0	0	0	0	0	0	0	0	0	0	0	0	0	0	0	0	0	0	0	0	0	0	0	0	0	0	0	0	0	0	0	0	0
071519	11:02:52	11:05:29	156161	5.0.10.0	5_exp_noRW	46	Rpleas_acq	CS_A	CPPC	DXXD	ZHHZ	JQQJ	YFFY	LWWL	küssen	genießen	träumen	vertrauen	gütig	sonnig	krank	gemein	töten	versagen	gierig	sterben	53pct	acq_USpleas_CSpleas1_noRW	acq1_noRW	1	40	0	0	300	300	395	50	0	1	1	blank2r.bmp	0	1	+	0	1	blank2r.bmp	252	1	CPPC	306	1	küssen	559	0	0	0	0	0	0	0	0	0	0	0	0	0	0	0	0	0	0	0	0	0	0	0	0	0	0	0	0	0	0	0	0	0	0	0	0	0	0	0
071519	11:02:52	11:05:30	157773	5.0.10.0	5_exp_noRW	46	Rpleas_acq	CS_A	CPPC	DXXD	ZHHZ	JQQJ	YFFY	LWWL	küssen	genießen	träumen	vertrauen	gütig	sonnig	krank	gemein	töten	versagen	gierig	sterben	53pct	acq_USpleas_CSpleas2_noRW	acq1_noRW	1	41	0	0	300	300	437	50	0	1	1	blank2r.bmp	0	1	+	0	1	blank2r.bmp	252	1	DXXD	306	1	vertrauen	559	0	0	0	0	0	0	0	0	0	0	0	0	0	0	0	0	0	0	0	0	0	0	0	0	0	0	0	0	0	0	0	0	0	0	0	0	0	0	0
071519	11:02:52	11:05:32	159466	5.0.10.0	5_exp_noRW	46	Rpleas_acq	CS_A	CPPC	DXXD	ZHHZ	JQQJ	YFFY	LWWL	küssen	genießen	träumen	vertrauen	gütig	sonnig	krank	gemein	töten	versagen	gierig	sterben	47pct	acq_USpleas_CSpleas2_noRW	acq1_noRW	1	42	0	0	300	300	516	50	0	1	1	blank2r.bmp	0	1	+	0	1	blank2r.bmp	252	1	DXXD	306	2	gütig	559	0	0	0	0	0	0	0	0	0	0	0	0	0	0	0	0	0	0	0	0	0	0	0	0	0	0	0	0	0	0	0	0	0	0	0	0	0	0	0
071519	11:02:52	11:05:34	161092	5.0.10.0	5_exp_noRW	46	Rpleas_acq	CS_A	CPPC	DXXD	ZHHZ	JQQJ	YFFY	LWWL	küssen	genießen	träumen	vertrauen	gütig	sonnig	krank	gemein	töten	versagen	gierig	sterben	53pct	acq_USpleas_CSpleas1_noRW	acq1_noRW	1	43	0	0	300	300	439	50	0	1	1	blank2r.bmp	0	1	+	0	1	blank2r.bmp	252	1	CPPC	306	2	genießen	559	0	0	0	0	0	0	0	0	0	0	0	0	0	0	0	0	0	0	0	0	0	0	0	0	0	0	0	0	0	0	0	0	0	0	0	0	0	0	0
071519	11:02:52	11:05:35	162704	5.0.10.0	5_exp_noRW	46	Rpleas_acq	CS_A	CPPC	DXXD	ZHHZ	JQQJ	YFFY	LWWL	küssen	genießen	träumen	vertrauen	gütig	sonnig	krank	gemein	töten	versagen	gierig	sterben	47pct	acq_USpleas_CSpleas2_noRW	acq1_noRW	1	44	0	0	300	300	450	50	0	1	1	blank2r.bmp	0	1	+	0	1	blank2r.bmp	252	1	DXXD	306	1	vertrauen	559	0	0	0	0	0	0	0	0	0	0	0	0	0	0	0	0	0	0	0	0	0	0	0	0	0	0	0	0	0	0	0	0	0	0	0	0	0	0	0
071519	11:02:52	11:05:37	164330	5.0.10.0	5_exp_noRW	46	Rpleas_acq	CS_A	CPPC	DXXD	ZHHZ	JQQJ	YFFY	LWWL	küssen	genießen	träumen	vertrauen	gütig	sonnig	krank	gemein	töten	versagen	gierig	sterben	53pct	acq_USpleas_CSpleas2_noRW	acq1_noRW	1	45	0	0	300	300	448	50	0	1	1	blank2r.bmp	0	1	+	0	1	blank2r.bmp	252	1	DXXD	306	3	sonnig	559	0	0	0	0	0	0	0	0	0	0	0	0	0	0	0	0	0	0	0	0	0	0	0	0	0	0	0	0	0	0	0	0	0	0	0	0	0	0	0
071519	11:02:52	11:05:39	165943	5.0.10.0	5_exp_noRW	46	Rpleas_acq	CS_A	CPPC	DXXD	ZHHZ	JQQJ	YFFY	LWWL	küssen	genießen	träumen	vertrauen	gütig	sonnig	krank	gemein	töten	versagen	gierig	sterben	53pct	acq_USpleas_CSpleas1_noRW	acq1_noRW	1	46	0	0	300	300	451	50	0	1	1	blank2r.bmp	0	1	+	0	1	blank2r.bmp	252	1	CPPC	306	1	küssen	559	0	0	0	0	0	0	0	0	0	0	0	0	0	0	0	0	0	0	0	0	0	0	0	0	0	0	0	0	0	0	0	0	0	0	0	0	0	0	0
071519	11:02:52	11:05:40	167596	5.0.10.0	5_exp_noRW	46	Rpleas_acq	CS_A	CPPC	DXXD	ZHHZ	JQQJ	YFFY	LWWL	küssen	genießen	träumen	vertrauen	gütig	sonnig	krank	gemein	töten	versagen	gierig	sterben	53pct	acq_USunple_CSunple2_noRW	acq1_noRW	1	47	0	0	300	300	471	46	0	1	1	blank2r.bmp	0	1	+	0	1	blank2r.bmp	252	1	JQQJ	306	3	sterben	559	0	0	0	0	0	0	0	0	0	0	0	0	0	0	0	0	0	0	0	0	0	0	0	0	0	0	0	0	0	0	0	0	0	0	0	0	0	0	0
071519	11:02:52	11:05:42	169435	5.0.10.0	5_exp_noRW	46	Rpleas_acq	CS_A	CPPC	DXXD	ZHHZ	JQQJ	YFFY	LWWL	küssen	genießen	träumen	vertrauen	gütig	sonnig	krank	gemein	töten	versagen	gierig	sterben	47pct	acq_USunple_CSunple1_noRW	acq1_noRW	1	48	0	0	300	300	459	50	0	0	1	blank2r.bmp	0	1	+	0	1	blank2r.bmp	252	1	ZHHZ	306	2	gemein	559	1	FEHLER	1052	0	0	0	0	0	0	0	0	0	0	0	0	0	0	0	0	0	0	0	0	0	0	0	0	0	0	0	0	0	0	0	0	0	0	0	0
071519	11:02:52	11:05:44	170914	5.0.10.0	5_exp_noRW	46	Rpleas_acq	CS_A	CPPC	DXXD	ZHHZ	JQQJ	YFFY	LWWL	küssen	genießen	träumen	vertrauen	gütig	sonnig	krank	gemein	töten	versagen	gierig	sterben	47pct	acq_USunple_CSunple1_noRW	acq1_noRW	1	49	0	0	300	300	512	46	0	1	1	blank2r.bmp	0	1	+	0	1	blank2r.bmp	252	1	ZHHZ	306	1	krank	559	0	0	0	0	0	0	0	0	0	0	0	0	0	0	0	0	0	0	0	0	0	0	0	0	0	0	0	0	0	0	0	0	0	0	0	0	0	0	0
071519	11:02:52	11:05:45	172567	5.0.10.0	5_exp_noRW	46	Rpleas_acq	CS_A	CPPC	DXXD	ZHHZ	JQQJ	YFFY	LWWL	küssen	genießen	träumen	vertrauen	gütig	sonnig	krank	gemein	töten	versagen	gierig	sterben	47pct	acq_USunple_CSunple2_noRW	acq1_noRW	1	50	0	0	300	300	487	46	0	1	1	blank2r.bmp	0	1	+	0	1	blank2r.bmp	252	1	JQQJ	306	1	versagen	559	0	0	0	0	0	0	0	0	0	0	0	0	0	0	0	0	0	0	0	0	0	0	0	0	0	0	0	0	0	0	0	0	0	0	0	0	0	0	0
071519	11:02:52	11:05:47	174246	5.0.10.0	5_exp_noRW	46	Rpleas_acq	CS_A	CPPC	DXXD	ZHHZ	JQQJ	YFFY	LWWL	küssen	genießen	träumen	vertrauen	gütig	sonnig	krank	gemein	töten	versagen	gierig	sterben	47pct	acq_USunple_CSpleas1_noRW	acq1_noRW	1	51	0	0	300	300	511	46	0	1	1	blank2r.bmp	0	1	+	0	1	blank2r.bmp	252	1	CPPC	306	2	gemein	559	0	0	0	0	0	0	0	0	0	0	0	0	0	0	0	0	0	0	0	0	0	0	0	0	0	0	0	0	0	0	0	0	0	0	0	0	0	0	0
071519	11:02:52	11:05:49	176232	5.0.10.0	5_exp_noRW	46	Rpleas_acq	CS_A	CPPC	DXXD	ZHHZ	JQQJ	YFFY	LWWL	küssen	genießen	träumen	vertrauen	gütig	sonnig	krank	gemein	töten	versagen	gierig	sterben	53pct	acq_USpleas_CSunple1_noRW	acq1_noRW	1	52	0	0	300	300	809	50	0	1	1	blank2r.bmp	0	1	+	0	1	blank2r.bmp	252	1	ZHHZ	306	2	genießen	559	0	0	0	0	0	0	0	0	0	0	0	0	0	0	0	0	0	0	0	0	0	0	0	0	0	0	0	0	0	0	0	0	0	0	0	0	0	0	0
071519	11:02:52	11:05:51	177911	5.0.10.0	5_exp_noRW	46	Rpleas_acq	CS_A	CPPC	DXXD	ZHHZ	JQQJ	YFFY	LWWL	küssen	genießen	träumen	vertrauen	gütig	sonnig	krank	gemein	töten	versagen	gierig	sterben	53pct	acq_USpleas_CSpleas1_noRW	acq1_noRW	1	53	0	0	300	300	495	50	0	1	1	blank2r.bmp	0	1	+	0	1	blank2r.bmp	252	1	CPPC	306	2	genießen	559	0	0	0	0	0	0	0	0	0	0	0	0	0	0	0	0	0	0	0	0	0	0	0	0	0	0	0	0	0	0	0	0	0	0	0	0	0	0	0
071519	11:02:52	11:05:52	179577	5.0.10.0	5_exp_noRW	46	Rpleas_acq	CS_A	CPPC	DXXD	ZHHZ	JQQJ	YFFY	LWWL	küssen	genießen	träumen	vertrauen	gütig	sonnig	krank	gemein	töten	versagen	gierig	sterben	53pct	acq_USpleas_CSpleas1_noRW	acq1_noRW	1	54	0	0	300	300	481	50	0	1	1	blank2r.bmp	0	1	+	0	1	blank2r.bmp	252	1	CPPC	306	3	träumen	559	0	0	0	0	0	0	0	0	0	0	0	0	0	0	0	0	0	0	0	0	0	0	0	0	0	0	0	0	0	0	0	0	0	0	0	0	0	0	0
071519	11:02:52	11:05:54	181283	5.0.10.0	5_exp_noRW	46	Rpleas_acq	CS_A	CPPC	DXXD	ZHHZ	JQQJ	YFFY	LWWL	küssen	genießen	träumen	vertrauen	gütig	sonnig	krank	gemein	töten	versagen	gierig	sterben	53pct	acq_USunple_CSpleas2_noRW	acq1_noRW	1	55	0	0	300	300	539	46	0	1	1	blank2r.bmp	0	1	+	0	1	blank2r.bmp	252	1	DXXD	306	2	gierig	559	0	0	0	0	0	0	0	0	0	0	0	0	0	0	0	0	0	0	0	0	0	0	0	0	0	0	0	0	0	0	0	0	0	0	0	0	0	0	0
071519	11:02:52	11:05:55	182869	5.0.10.0	5_exp_noRW	46	Rpleas_acq	CS_A	CPPC	DXXD	ZHHZ	JQQJ	YFFY	LWWL	küssen	genießen	träumen	vertrauen	gütig	sonnig	krank	gemein	töten	versagen	gierig	sterben	53pct	acq_USunple_CSunple2_noRW	acq1_noRW	1	56	0	0	300	300	408	46	0	1	1	blank2r.bmp	0	1	+	0	1	blank2r.bmp	252	1	JQQJ	306	3	sterben	559	0	0	0	0	0	0	0	0	0	0	0	0	0	0	0	0	0	0	0	0	0	0	0	0	0	0	0	0	0	0	0	0	0	0	0	0	0	0	0
071519	11:02:52	11:05:57	184549	5.0.10.0	5_exp_noRW	46	Rpleas_acq	CS_A	CPPC	DXXD	ZHHZ	JQQJ	YFFY	LWWL	küssen	genießen	träumen	vertrauen	gütig	sonnig	krank	gemein	töten	versagen	gierig	sterben	53pct	acq_USunple_CSunple1_noRW	acq1_noRW	1	57	0	0	300	300	494	46	0	1	1	blank2r.bmp	0	1	+	0	1	blank2r.bmp	252	1	ZHHZ	306	2	gemein	559	0	0	0	0	0	0	0	0	0	0	0	0	0	0	0	0	0	0	0	0	0	0	0	0	0	0	0	0	0	0	0	0	0	0	0	0	0	0	0
071519	11:02:52	11:05:59	186268	5.0.10.0	5_exp_noRW	46	Rpleas_acq	CS_A	CPPC	DXXD	ZHHZ	JQQJ	YFFY	LWWL	küssen	genießen	träumen	vertrauen	gütig	sonnig	krank	gemein	töten	versagen	gierig	sterben	47pct	acq_USunple_CSunple2_noRW	acq1_noRW	1	58	0	0	300	300	546	46	0	1	1	blank2r.bmp	0	1	+	0	1	blank2r.bmp	252	1	JQQJ	306	2	gierig	559	0	0	0	0	0	0	0	0	0	0	0	0	0	0	0	0	0	0	0	0	0	0	0	0	0	0	0	0	0	0	0	0	0	0	0	0	0	0	0
071519	11:02:52	11:06:01	187867	5.0.10.0	5_exp_noRW	46	Rpleas_acq	CS_A	CPPC	DXXD	ZHHZ	JQQJ	YFFY	LWWL	küssen	genießen	träumen	vertrauen	gütig	sonnig	krank	gemein	töten	versagen	gierig	sterben	53pct	acq_USunple_CSunple1_noRW	acq1_noRW	1	59	0	0	300	300	432	46	0	1	1	blank2r.bmp	0	1	+	0	1	blank2r.bmp	252	1	ZHHZ	306	3	töten	559	0	0	0	0	0	0	0	0	0	0	0	0	0	0	0	0	0	0	0	0	0	0	0	0	0	0	0	0	0	0	0	0	0	0	0	0	0	0	0
071519	11:02:52	11:06:02	189493	5.0.10.0	5_exp_noRW	46	Rpleas_acq	CS_A	CPPC	DXXD	ZHHZ	JQQJ	YFFY	LWWL	küssen	genießen	träumen	vertrauen	gütig	sonnig	krank	gemein	töten	versagen	gierig	sterben	47pct	acq_USpleas_CSunple2_noRW	acq1_noRW	1	60	0	0	300	300	451	50	0	1	1	blank2r.bmp	0	1	+	0	1	blank2r.bmp	252	1	JQQJ	306	3	sonnig	559	0	0	0	0	0	0	0	0	0	0	0	0	0	0	0	0	0	0	0	0	0	0	0	0	0	0	0	0	0	0	0	0	0	0	0	0	0	0	0
071519	11:02:52	11:06:04	191173	5.0.10.0	5_exp_noRW	46	Rpleas_acq	CS_A	CPPC	DXXD	ZHHZ	JQQJ	YFFY	LWWL	küssen	genießen	träumen	vertrauen	gütig	sonnig	krank	gemein	töten	versagen	gierig	sterben	53pct	acq_USunple_CSpleas1_noRW	acq1_noRW	1	61	0	0	300	300	479	46	0	1	1	blank2r.bmp	0	1	+	0	1	blank2r.bmp	252	1	CPPC	306	3	töten	559	0	0	0	0	0	0	0	0	0	0	0	0	0	0	0	0	0	0	0	0	0	0	0	0	0	0	0	0	0	0	0	0	0	0	0	0	0	0	0
071519	11:02:52	11:06:06	192879	5.0.10.0	5_exp_noRW	46	Rpleas_acq	CS_A	CPPC	DXXD	ZHHZ	JQQJ	YFFY	LWWL	küssen	genießen	träumen	vertrauen	gütig	sonnig	krank	gemein	töten	versagen	gierig	sterben	53pct	acq_USunple_CSunple2_noRW	acq1_noRW	1	62	0	0	300	300	532	46	0	1	1	blank2r.bmp	0	1	+	0	1	blank2r.bmp	252	1	JQQJ	306	3	sterben	559	0	0	0	0	0	0	0	0	0	0	0	0	0	0	0	0	0	0	0	0	0	0	0	0	0	0	0	0	0	0	0	0	0	0	0	0	0	0	0
071519	11:02:52	11:06:07	194558	5.0.10.0	5_exp_noRW	46	Rpleas_acq	CS_A	CPPC	DXXD	ZHHZ	JQQJ	YFFY	LWWL	küssen	genießen	träumen	vertrauen	gütig	sonnig	krank	gemein	töten	versagen	gierig	sterben	53pct	acq_USpleas_CSpleas1_noRW	acq1_noRW	1	63	0	0	300	300	506	50	0	1	1	blank2r.bmp	0	1	+	0	1	blank2r.bmp	252	1	CPPC	306	1	küssen	559	0	0	0	0	0	0	0	0	0	0	0	0	0	0	0	0	0	0	0	0	0	0	0	0	0	0	0	0	0	0	0	0	0	0	0	0	0	0	0
071519	11:02:52	11:06:09	196157	5.0.10.0	5_exp_noRW	46	Rpleas_acq	CS_A	CPPC	DXXD	ZHHZ	JQQJ	YFFY	LWWL	küssen	genießen	träumen	vertrauen	gütig	sonnig	krank	gemein	töten	versagen	gierig	sterben	47pct	acq_USunple_CSunple1_noRW	acq1_noRW	1	64	0	0	300	300	432	46	0	1	1	blank2r.bmp	0	1	+	0	1	blank2r.bmp	252	1	ZHHZ	306	1	krank	559	0	0	0	0	0	0	0	0	0	0	0	0	0	0	0	0	0	0	0	0	0	0	0	0	0	0	0	0	0	0	0	0	0	0	0	0	0	0	0
071519	11:02:52	11:06:11	198076	5.0.10.0	5_exp_noRW	46	Rpleas_acq	CS_A	CPPC	DXXD	ZHHZ	JQQJ	YFFY	LWWL	küssen	genießen	träumen	vertrauen	gütig	sonnig	krank	gemein	töten	versagen	gierig	sterben	53pct	acq_USpleas_CSpleas2_noRW	acq1_noRW	1	65	0	0	300	300	751	50	0	1	1	blank2r.bmp	0	1	+	0	1	blank2r.bmp	252	1	DXXD	306	2	gütig	559	0	0	0	0	0	0	0	0	0	0	0	0	0	0	0	0	0	0	0	0	0	0	0	0	0	0	0	0	0	0	0	0	0	0	0	0	0	0	0
071519	11:02:52	11:06:12	199676	5.0.10.0	5_exp_noRW	46	Rpleas_acq	CS_A	CPPC	DXXD	ZHHZ	JQQJ	YFFY	LWWL	küssen	genießen	träumen	vertrauen	gütig	sonnig	krank	gemein	töten	versagen	gierig	sterben	53pct	acq_USunple_CSunple2_noRW	acq1_noRW	1	66	0	0	300	300	432	46	0	1	1	blank2r.bmp	0	1	+	0	1	blank2r.bmp	252	1	JQQJ	306	2	gierig	559	0	0	0	0	0	0	0	0	0	0	0	0	0	0	0	0	0	0	0	0	0	0	0	0	0	0	0	0	0	0	0	0	0	0	0	0	0	0	0
071519	11:02:52	11:06:14	201368	5.0.10.0	5_exp_noRW	46	Rpleas_acq	CS_A	CPPC	DXXD	ZHHZ	JQQJ	YFFY	LWWL	küssen	genießen	träumen	vertrauen	gütig	sonnig	krank	gemein	töten	versagen	gierig	sterben	53pct	acq_USunple_CSunple2_noRW	acq1_noRW	1	67	0	0	300	300	514	46	0	1	1	blank2r.bmp	0	1	+	0	1	blank2r.bmp	252	1	JQQJ	306	1	versagen	559	0	0	0	0	0	0	0	0	0	0	0	0	0	0	0	0	0	0	0	0	0	0	0	0	0	0	0	0	0	0	0	0	0	0	0	0	0	0	0
071519	11:02:52	11:06:16	203128	5.0.10.0	5_exp_noRW	46	Rpleas_acq	CS_A	CPPC	DXXD	ZHHZ	JQQJ	YFFY	LWWL	küssen	genießen	träumen	vertrauen	gütig	sonnig	krank	gemein	töten	versagen	gierig	sterben	53pct	acq_USpleas_CSunple1_noRW	acq1_noRW	1	68	0	0	300	300	586	50	0	1	1	blank2r.bmp	0	1	+	0	1	blank2r.bmp	252	1	ZHHZ	306	1	küssen	559	0	0	0	0	0	0	0	0	0	0	0	0	0	0	0	0	0	0	0	0	0	0	0	0	0	0	0	0	0	0	0	0	0	0	0	0	0	0	0
071519	11:02:52	11:06:18	205007	5.0.10.0	5_exp_noRW	46	Rpleas_acq	CS_A	CPPC	DXXD	ZHHZ	JQQJ	YFFY	LWWL	küssen	genießen	träumen	vertrauen	gütig	sonnig	krank	gemein	töten	versagen	gierig	sterben	47pct	acq_USpleas_CSpleas1_noRW	acq1_noRW	1	69	0	0	300	300	710	50	0	1	1	blank2r.bmp	0	1	+	0	1	blank2r.bmp	252	1	CPPC	306	3	träumen	559	0	0	0	0	0	0	0	0	0	0	0	0	0	0	0	0	0	0	0	0	0	0	0	0	0	0	0	0	0	0	0	0	0	0	0	0	0	0	0
071519	11:02:52	11:06:19	206606	5.0.10.0	5_exp_noRW	46	Rpleas_acq	CS_A	CPPC	DXXD	ZHHZ	JQQJ	YFFY	LWWL	küssen	genießen	träumen	vertrauen	gütig	sonnig	krank	gemein	töten	versagen	gierig	sterben	47pct	acq_USunple_CSunple1_noRW	acq1_noRW	1	70	0	0	300	300	416	46	0	1	1	blank2r.bmp	0	1	+	0	1	blank2r.bmp	252	1	ZHHZ	306	3	töten	559	0	0	0	0	0	0	0	0	0	0	0	0	0	0	0	0	0	0	0	0	0	0	0	0	0	0	0	0	0	0	0	0	0	0	0	0	0	0	0
071519	11:02:52	11:06:21	208205	5.0.10.0	5_exp_noRW	46	Rpleas_acq	CS_A	CPPC	DXXD	ZHHZ	JQQJ	YFFY	LWWL	küssen	genießen	träumen	vertrauen	gütig	sonnig	krank	gemein	töten	versagen	gierig	sterben	47pct	acq_USpleas_CSpleas2_noRW	acq1_noRW	1	71	0	0	300	300	435	50	0	1	1	blank2r.bmp	0	1	+	0	1	blank2r.bmp	252	1	DXXD	306	3	sonnig	559	0	0	0	0	0	0	0	0	0	0	0	0	0	0	0	0	0	0	0	0	0	0	0	0	0	0	0	0	0	0	0	0	0	0	0	0	0	0	0
071519	11:02:52	11:06:23	209885	5.0.10.0	5_exp_noRW	46	Rpleas_acq	CS_A	CPPC	DXXD	ZHHZ	JQQJ	YFFY	LWWL	küssen	genießen	träumen	vertrauen	gütig	sonnig	krank	gemein	töten	versagen	gierig	sterben	53pct	acq_USunple_CSunple1_noRW	acq1_noRW	1	72	0	0	300	300	504	46	0	1	1	blank2r.bmp	0	1	+	0	1	blank2r.bmp	252	1	ZHHZ	306	2	gemein	559	0	0	0	0	0	0	0	0	0	0	0	0	0	0	0	0	0	0	0	0	0	0	0	0	0	0	0	0	0	0	0	0	0	0	0	0	0	0	0
071519	11:02:52	11:06:24	211564	5.0.10.0	5_exp_noRW	46	Rpleas_acq	CS_A	CPPC	DXXD	ZHHZ	JQQJ	YFFY	LWWL	küssen	genießen	träumen	vertrauen	gütig	sonnig	krank	gemein	töten	versagen	gierig	sterben	53pct	acq_USpleas_CSpleas1_noRW	acq1_noRW	1	73	0	0	300	300	499	50	0	1	1	blank2r.bmp	0	1	+	0	1	blank2r.bmp	252	1	CPPC	306	2	genießen	559	0	0	0	0	0	0	0	0	0	0	0	0	0	0	0	0	0	0	0	0	0	0	0	0	0	0	0	0	0	0	0	0	0	0	0	0	0	0	0
071519	11:02:52	11:06:26	213203	5.0.10.0	5_exp_noRW	46	Rpleas_acq	CS_A	CPPC	DXXD	ZHHZ	JQQJ	YFFY	LWWL	küssen	genießen	träumen	vertrauen	gütig	sonnig	krank	gemein	töten	versagen	gierig	sterben	47pct	acq_USunple_CSpleas2_noRW	acq1_noRW	1	74	0	0	300	300	453	46	0	1	1	blank2r.bmp	0	1	+	0	1	blank2r.bmp	252	1	DXXD	306	1	versagen	559	0	0	0	0	0	0	0	0	0	0	0	0	0	0	0	0	0	0	0	0	0	0	0	0	0	0	0	0	0	0	0	0	0	0	0	0	0	0	0
071519	11:02:52	11:06:27	214803	5.0.10.0	5_exp_noRW	46	Rpleas_acq	CS_A	CPPC	DXXD	ZHHZ	JQQJ	YFFY	LWWL	küssen	genießen	träumen	vertrauen	gütig	sonnig	krank	gemein	töten	versagen	gierig	sterben	53pct	acq_USpleas_CSpleas2_noRW	acq1_noRW	1	75	0	0	300	300	412	50	0	1	1	blank2r.bmp	0	1	+	0	1	blank2r.bmp	252	1	DXXD	306	1	vertrauen	559	0	0	0	0	0	0	0	0	0	0	0	0	0	0	0	0	0	0	0	0	0	0	0	0	0	0	0	0	0	0	0	0	0	0	0	0	0	0	0
071519	11:02:52	11:06:29	216375	5.0.10.0	5_exp_noRW	46	Rpleas_acq	CS_A	CPPC	DXXD	ZHHZ	JQQJ	YFFY	LWWL	küssen	genießen	träumen	vertrauen	gütig	sonnig	krank	gemein	töten	versagen	gierig	sterben	53pct	acq_USpleas_CSunple2_noRW	acq1_noRW	1	76	0	0	300	300	402	50	0	1	1	blank2r.bmp	0	1	+	0	1	blank2r.bmp	252	1	JQQJ	306	3	sonnig	559	0	0	0	0	0	0	0	0	0	0	0	0	0	0	0	0	0	0	0	0	0	0	0	0	0	0	0	0	0	0	0	0	0	0	0	0	0	0	0
071519	11:02:52	11:06:31	217948	5.0.10.0	5_exp_noRW	46	Rpleas_acq	CS_A	CPPC	DXXD	ZHHZ	JQQJ	YFFY	LWWL	küssen	genießen	träumen	vertrauen	gütig	sonnig	krank	gemein	töten	versagen	gierig	sterben	47pct	acq_USunple_CSunple1_noRW	acq1_noRW	1	77	0	0	300	300	407	46	0	1	1	blank2r.bmp	0	1	+	0	1	blank2r.bmp	252	1	ZHHZ	306	3	töten	559	0	0	0	0	0	0	0	0	0	0	0	0	0	0	0	0	0	0	0	0	0	0	0	0	0	0	0	0	0	0	0	0	0	0	0	0	0	0	0
071519	11:02:52	11:06:32	219601	5.0.10.0	5_exp_noRW	46	Rpleas_acq	CS_A	CPPC	DXXD	ZHHZ	JQQJ	YFFY	LWWL	küssen	genießen	träumen	vertrauen	gütig	sonnig	krank	gemein	töten	versagen	gierig	sterben	47pct	acq_USpleas_CSpleas1_noRW	acq1_noRW	1	78	0	0	300	300	482	50	0	1	1	blank2r.bmp	0	1	+	0	1	blank2r.bmp	252	1	CPPC	306	3	träumen	559	0	0	0	0	0	0	0	0	0	0	0	0	0	0	0	0	0	0	0	0	0	0	0	0	0	0	0	0	0	0	0	0	0	0	0	0	0	0	0
071519	11:02:52	11:06:34	221227	5.0.10.0	5_exp_noRW	46	Rpleas_acq	CS_A	CPPC	DXXD	ZHHZ	JQQJ	YFFY	LWWL	küssen	genießen	träumen	vertrauen	gütig	sonnig	krank	gemein	töten	versagen	gierig	sterben	47pct	acq_USpleas_CSpleas2_noRW	acq1_noRW	1	79	0	0	300	300	462	50	0	1	1	blank2r.bmp	0	1	+	0	1	blank2r.bmp	252	1	DXXD	306	3	sonnig	559	0	0	0	0	0	0	0	0	0	0	0	0	0	0	0	0	0	0	0	0	0	0	0	0	0	0	0	0	0	0	0	0	0	0	0	0	0	0	0
071519	11:02:52	11:06:35	222839	5.0.10.0	5_exp_noRW	46	Rpleas_acq	CS_A	CPPC	DXXD	ZHHZ	JQQJ	YFFY	LWWL	küssen	genießen	träumen	vertrauen	gütig	sonnig	krank	gemein	töten	versagen	gierig	sterben	47pct	acq_USunple_CSunple2_noRW	acq1_noRW	1	80	0	0	300	300	435	46	0	1	1	blank2r.bmp	0	1	+	0	1	blank2r.bmp	252	1	JQQJ	306	3	sterben	559	0	0	0	0	0	0	0	0	0	0	0	0	0	0	0	0	0	0	0	0	0	0	0	0	0	0	0	0	0	0	0	0	0	0	0	0	0	0	0
071519	11:02:52	11:06:46	233128	5.0.10.0	5_exp_noRW	46	Rpleas_acq	CS_A	CPPC	DXXD	ZHHZ	JQQJ	YFFY	LWWL	küssen	genießen	träumen	vertrauen	gütig	sonnig	krank	gemein	töten	versagen	gierig	sterben	53pct	acq_USpleas_CSunple2_noRW	acq23456_noRW	2	1	0	0	300	300	577	50	0	1	1	blank2r.bmp	0	1	+	0	1	blank2r.bmp	252	1	JQQJ	306	2	gütig	559	0	0	0	0	0	0	0	0	0	0	0	0	0	0	0	0	0	0	0	0	0	0	0	0	0	0	0	0	0	0	0	0	0	0	0	0	0	0	0
071519	11:02:52	11:06:47	234754	5.0.10.0	5_exp_noRW	46	Rpleas_acq	CS_A	CPPC	DXXD	ZHHZ	JQQJ	YFFY	LWWL	küssen	genießen	träumen	vertrauen	gütig	sonnig	krank	gemein	töten	versagen	gierig	sterben	47pct	acq_USunple_CSunple2_noRW	acq23456_noRW	2	2	0	0	300	300	457	46	0	1	1	blank2r.bmp	0	1	+	0	1	blank2r.bmp	252	1	JQQJ	306	1	versagen	559	0	0	0	0	0	0	0	0	0	0	0	0	0	0	0	0	0	0	0	0	0	0	0	0	0	0	0	0	0	0	0	0	0	0	0	0	0	0	0
071519	11:02:52	11:06:49	236394	5.0.10.0	5_exp_noRW	46	Rpleas_acq	CS_A	CPPC	DXXD	ZHHZ	JQQJ	YFFY	LWWL	küssen	genießen	träumen	vertrauen	gütig	sonnig	krank	gemein	töten	versagen	gierig	sterben	47pct	acq_USpleas_CSpleas1_noRW	acq23456_noRW	2	3	0	0	300	300	475	50	0	1	1	blank2r.bmp	0	1	+	0	1	blank2r.bmp	252	1	CPPC	306	2	genießen	559	0	0	0	0	0	0	0	0	0	0	0	0	0	0	0	0	0	0	0	0	0	0	0	0	0	0	0	0	0	0	0	0	0	0	0	0	0	0	0
071519	11:02:52	11:06:51	238246	5.0.10.0	5_exp_noRW	46	Rpleas_acq	CS_A	CPPC	DXXD	ZHHZ	JQQJ	YFFY	LWWL	küssen	genießen	träumen	vertrauen	gütig	sonnig	krank	gemein	töten	versagen	gierig	sterben	53pct	acq_USunple_CSunple1_noRW	acq23456_noRW	2	4	0	0	300	300	669	46	0	1	1	blank2r.bmp	0	1	+	0	1	blank2r.bmp	252	1	ZHHZ	306	1	krank	559	0	0	0	0	0	0	0	0	0	0	0	0	0	0	0	0	0	0	0	0	0	0	0	0	0	0	0	0	0	0	0	0	0	0	0	0	0	0	0
071519	11:02:52	11:06:52	239872	5.0.10.0	5_exp_noRW	46	Rpleas_acq	CS_A	CPPC	DXXD	ZHHZ	JQQJ	YFFY	LWWL	küssen	genießen	träumen	vertrauen	gütig	sonnig	krank	gemein	töten	versagen	gierig	sterben	47pct	acq_USpleas_CSpleas2_noRW	acq23456_noRW	2	5	0	0	300	300	462	50	0	1	1	blank2r.bmp	0	1	+	0	1	blank2r.bmp	252	1	DXXD	306	2	gütig	559	0	0	0	0	0	0	0	0	0	0	0	0	0	0	0	0	0	0	0	0	0	0	0	0	0	0	0	0	0	0	0	0	0	0	0	0	0	0	0
071519	11:02:52	11:06:54	241498	5.0.10.0	5_exp_noRW	46	Rpleas_acq	CS_A	CPPC	DXXD	ZHHZ	JQQJ	YFFY	LWWL	küssen	genießen	träumen	vertrauen	gütig	sonnig	krank	gemein	töten	versagen	gierig	sterben	47pct	acq_USpleas_CSunple1_noRW	acq23456_noRW	2	6	0	0	300	300	441	50	0	1	1	blank2r.bmp	0	1	+	0	1	blank2r.bmp	252	1	ZHHZ	306	3	träumen	559	0	0	0	0	0	0	0	0	0	0	0	0	0	0	0	0	0	0	0	0	0	0	0	0	0	0	0	0	0	0	0	0	0	0	0	0	0	0	0
071519	11:02:52	11:06:56	243217	5.0.10.0	5_exp_noRW	46	Rpleas_acq	CS_A	CPPC	DXXD	ZHHZ	JQQJ	YFFY	LWWL	küssen	genießen	träumen	vertrauen	gütig	sonnig	krank	gemein	töten	versagen	gierig	sterben	53pct	acq_USunple_CSunple2_noRW	acq23456_noRW	2	7	0	0	300	300	534	46	0	1	1	blank2r.bmp	0	1	+	0	1	blank2r.bmp	252	1	JQQJ	306	2	gierig	559	0	0	0	0	0	0	0	0	0	0	0	0	0	0	0	0	0	0	0	0	0	0	0	0	0	0	0	0	0	0	0	0	0	0	0	0	0	0	0
071519	11:02:52	11:06:57	244843	5.0.10.0	5_exp_noRW	46	Rpleas_acq	CS_A	CPPC	DXXD	ZHHZ	JQQJ	YFFY	LWWL	küssen	genießen	träumen	vertrauen	gütig	sonnig	krank	gemein	töten	versagen	gierig	sterben	53pct	acq_USpleas_CSpleas1_noRW	acq23456_noRW	2	8	0	0	300	300	450	50	0	1	1	blank2r.bmp	0	1	+	0	1	blank2r.bmp	252	1	CPPC	306	1	küssen	559	0	0	0	0	0	0	0	0	0	0	0	0	0	0	0	0	0	0	0	0	0	0	0	0	0	0	0	0	0	0	0	0	0	0	0	0	0	0	0
071519	11:02:52	11:06:59	246483	5.0.10.0	5_exp_noRW	46	Rpleas_acq	CS_A	CPPC	DXXD	ZHHZ	JQQJ	YFFY	LWWL	küssen	genießen	träumen	vertrauen	gütig	sonnig	krank	gemein	töten	versagen	gierig	sterben	47pct	acq_USpleas_CSpleas1_noRW	acq23456_noRW	2	9	0	0	300	300	460	50	0	1	1	blank2r.bmp	0	1	+	0	1	blank2r.bmp	252	1	CPPC	306	1	küssen	559	0	0	0	0	0	0	0	0	0	0	0	0	0	0	0	0	0	0	0	0	0	0	0	0	0	0	0	0	0	0	0	0	0	0	0	0	0	0	0
071519	11:02:52	11:07:01	248095	5.0.10.0	5_exp_noRW	46	Rpleas_acq	CS_A	CPPC	DXXD	ZHHZ	JQQJ	YFFY	LWWL	küssen	genießen	träumen	vertrauen	gütig	sonnig	krank	gemein	töten	versagen	gierig	sterben	47pct	acq_USunple_CSunple2_noRW	acq23456_noRW	2	10	0	0	300	300	442	46	0	1	1	blank2r.bmp	0	1	+	0	1	blank2r.bmp	252	1	JQQJ	306	3	sterben	559	0	0	0	0	0	0	0	0	0	0	0	0	0	0	0	0	0	0	0	0	0	0	0	0	0	0	0	0	0	0	0	0	0	0	0	0	0	0	0
071519	11:02:52	11:07:02	249708	5.0.10.0	5_exp_noRW	46	Rpleas_acq	CS_A	CPPC	DXXD	ZHHZ	JQQJ	YFFY	LWWL	küssen	genießen	träumen	vertrauen	gütig	sonnig	krank	gemein	töten	versagen	gierig	sterben	47pct	acq_USunple_CSunple2_noRW	acq23456_noRW	2	11	0	0	300	300	438	46	0	1	1	blank2r.bmp	0	1	+	0	1	blank2r.bmp	252	1	JQQJ	306	2	gierig	559	0	0	0	0	0	0	0	0	0	0	0	0	0	0	0	0	0	0	0	0	0	0	0	0	0	0	0	0	0	0	0	0	0	0	0	0	0	0	0
071519	11:02:52	11:07:04	251294	5.0.10.0	5_exp_noRW	46	Rpleas_acq	CS_A	CPPC	DXXD	ZHHZ	JQQJ	YFFY	LWWL	küssen	genießen	träumen	vertrauen	gütig	sonnig	krank	gemein	töten	versagen	gierig	sterben	47pct	acq_USpleas_CSpleas2_noRW	acq23456_noRW	2	12	0	0	300	300	401	50	0	1	1	blank2r.bmp	0	1	+	0	1	blank2r.bmp	252	1	DXXD	306	1	vertrauen	559	0	0	0	0	0	0	0	0	0	0	0	0	0	0	0	0	0	0	0	0	0	0	0	0	0	0	0	0	0	0	0	0	0	0	0	0	0	0	0
071519	11:02:52	11:07:06	253040	5.0.10.0	5_exp_noRW	46	Rpleas_acq	CS_A	CPPC	DXXD	ZHHZ	JQQJ	YFFY	LWWL	küssen	genießen	träumen	vertrauen	gütig	sonnig	krank	gemein	töten	versagen	gierig	sterben	47pct	acq_USunple_CSpleas1_noRW	acq23456_noRW	2	13	0	0	300	300	574	46	0	1	1	blank2r.bmp	0	1	+	0	1	blank2r.bmp	252	1	CPPC	306	2	gemein	559	0	0	0	0	0	0	0	0	0	0	0	0	0	0	0	0	0	0	0	0	0	0	0	0	0	0	0	0	0	0	0	0	0	0	0	0	0	0	0
071519	11:02:52	11:07:07	254746	5.0.10.0	5_exp_noRW	46	Rpleas_acq	CS_A	CPPC	DXXD	ZHHZ	JQQJ	YFFY	LWWL	küssen	genießen	träumen	vertrauen	gütig	sonnig	krank	gemein	töten	versagen	gierig	sterben	53pct	acq_USunple_CSunple1_noRW	acq23456_noRW	2	14	0	0	300	300	543	46	0	1	1	blank2r.bmp	0	1	+	0	1	blank2r.bmp	252	1	ZHHZ	306	2	gemein	559	0	0	0	0	0	0	0	0	0	0	0	0	0	0	0	0	0	0	0	0	0	0	0	0	0	0	0	0	0	0	0	0	0	0	0	0	0	0	0
071519	11:02:52	11:07:09	256412	5.0.10.0	5_exp_noRW	46	Rpleas_acq	CS_A	CPPC	DXXD	ZHHZ	JQQJ	YFFY	LWWL	küssen	genießen	träumen	vertrauen	gütig	sonnig	krank	gemein	töten	versagen	gierig	sterben	53pct	acq_USunple_CSunple1_noRW	acq23456_noRW	2	15	0	0	300	300	482	46	0	1	1	blank2r.bmp	0	1	+	0	1	blank2r.bmp	252	1	ZHHZ	306	3	töten	559	0	0	0	0	0	0	0	0	0	0	0	0	0	0	0	0	0	0	0	0	0	0	0	0	0	0	0	0	0	0	0	0	0	0	0	0	0	0	0
071519	11:02:52	11:07:11	258078	5.0.10.0	5_exp_noRW	46	Rpleas_acq	CS_A	CPPC	DXXD	ZHHZ	JQQJ	YFFY	LWWL	küssen	genießen	träumen	vertrauen	gütig	sonnig	krank	gemein	töten	versagen	gierig	sterben	53pct	acq_USunple_CSpleas2_noRW	acq23456_noRW	2	16	0	0	300	300	478	46	0	1	1	blank2r.bmp	0	1	+	0	1	blank2r.bmp	252	1	DXXD	306	3	sterben	559	0	0	0	0	0	0	0	0	0	0	0	0	0	0	0	0	0	0	0	0	0	0	0	0	0	0	0	0	0	0	0	0	0	0	0	0	0	0	0
071519	11:02:52	11:07:12	259730	5.0.10.0	5_exp_noRW	46	Rpleas_acq	CS_A	CPPC	DXXD	ZHHZ	JQQJ	YFFY	LWWL	küssen	genießen	träumen	vertrauen	gütig	sonnig	krank	gemein	töten	versagen	gierig	sterben	53pct	acq_USpleas_CSpleas2_noRW	acq23456_noRW	2	17	0	0	300	300	482	50	0	1	1	blank2r.bmp	0	1	+	0	1	blank2r.bmp	252	1	DXXD	306	2	gütig	559	0	0	0	0	0	0	0	0	0	0	0	0	0	0	0	0	0	0	0	0	0	0	0	0	0	0	0	0	0	0	0	0	0	0	0	0	0	0	0
071519	11:02:52	11:07:14	261370	5.0.10.0	5_exp_noRW	46	Rpleas_acq	CS_A	CPPC	DXXD	ZHHZ	JQQJ	YFFY	LWWL	küssen	genießen	träumen	vertrauen	gütig	sonnig	krank	gemein	töten	versagen	gierig	sterben	53pct	acq_USunple_CSunple1_noRW	acq23456_noRW	2	18	0	0	300	300	472	46	0	1	1	blank2r.bmp	0	1	+	0	1	blank2r.bmp	252	1	ZHHZ	306	2	gemein	559	0	0	0	0	0	0	0	0	0	0	0	0	0	0	0	0	0	0	0	0	0	0	0	0	0	0	0	0	0	0	0	0	0	0	0	0	0	0	0
071519	11:02:52	11:07:16	263009	5.0.10.0	5_exp_noRW	46	Rpleas_acq	CS_A	CPPC	DXXD	ZHHZ	JQQJ	YFFY	LWWL	küssen	genießen	träumen	vertrauen	gütig	sonnig	krank	gemein	töten	versagen	gierig	sterben	47pct	acq_USpleas_CSpleas2_noRW	acq23456_noRW	2	19	0	0	300	300	464	50	0	1	1	blank2r.bmp	0	1	+	0	1	blank2r.bmp	252	1	DXXD	306	1	vertrauen	559	0	0	0	0	0	0	0	0	0	0	0	0	0	0	0	0	0	0	0	0	0	0	0	0	0	0	0	0	0	0	0	0	0	0	0	0	0	0	0
071519	11:02:52	11:07:17	264675	5.0.10.0	5_exp_noRW	46	Rpleas_acq	CS_A	CPPC	DXXD	ZHHZ	JQQJ	YFFY	LWWL	küssen	genießen	träumen	vertrauen	gütig	sonnig	krank	gemein	töten	versagen	gierig	sterben	53pct	acq_USpleas_CSpleas1_noRW	acq23456_noRW	2	20	0	0	300	300	481	50	0	1	1	blank2r.bmp	0	1	+	0	1	blank2r.bmp	252	1	CPPC	306	2	genießen	559	0	0	0	0	0	0	0	0	0	0	0	0	0	0	0	0	0	0	0	0	0	0	0	0	0	0	0	0	0	0	0	0	0	0	0	0	0	0	0
071519	11:02:52	11:07:19	266314	5.0.10.0	5_exp_noRW	46	Rpleas_acq	CS_A	CPPC	DXXD	ZHHZ	JQQJ	YFFY	LWWL	küssen	genießen	träumen	vertrauen	gütig	sonnig	krank	gemein	töten	versagen	gierig	sterben	47pct	acq_USunple_CSunple2_noRW	acq23456_noRW	2	21	0	0	300	300	469	46	0	1	1	blank2r.bmp	0	1	+	0	1	blank2r.bmp	252	1	JQQJ	306	1	versagen	559	0	0	0	0	0	0	0	0	0	0	0	0	0	0	0	0	0	0	0	0	0	0	0	0	0	0	0	0	0	0	0	0	0	0	0	0	0	0	0
071519	11:02:52	11:07:21	267967	5.0.10.0	5_exp_noRW	46	Rpleas_acq	CS_A	CPPC	DXXD	ZHHZ	JQQJ	YFFY	LWWL	küssen	genießen	träumen	vertrauen	gütig	sonnig	krank	gemein	töten	versagen	gierig	sterben	53pct	acq_USpleas_CSpleas1_noRW	acq23456_noRW	2	22	0	0	300	300	489	50	0	1	1	blank2r.bmp	0	1	+	0	1	blank2r.bmp	252	1	CPPC	306	3	träumen	559	0	0	0	0	0	0	0	0	0	0	0	0	0	0	0	0	0	0	0	0	0	0	0	0	0	0	0	0	0	0	0	0	0	0	0	0	0	0	0
071519	11:02:52	11:07:22	269700	5.0.10.0	5_exp_noRW	46	Rpleas_acq	CS_A	CPPC	DXXD	ZHHZ	JQQJ	YFFY	LWWL	küssen	genießen	träumen	vertrauen	gütig	sonnig	krank	gemein	töten	versagen	gierig	sterben	47pct	acq_USpleas_CSpleas2_noRW	acq23456_noRW	2	23	0	0	300	300	552	50	0	1	1	blank2r.bmp	0	1	+	0	1	blank2r.bmp	252	1	DXXD	306	3	sonnig	559	0	0	0	0	0	0	0	0	0	0	0	0	0	0	0	0	0	0	0	0	0	0	0	0	0	0	0	0	0	0	0	0	0	0	0	0	0	0	0
071519	11:02:52	11:07:24	271312	5.0.10.0	5_exp_noRW	46	Rpleas_acq	CS_A	CPPC	DXXD	ZHHZ	JQQJ	YFFY	LWWL	küssen	genießen	träumen	vertrauen	gütig	sonnig	krank	gemein	töten	versagen	gierig	sterben	53pct	acq_USunple_CSunple1_noRW	acq23456_noRW	2	24	0	0	300	300	429	46	0	1	1	blank2r.bmp	0	1	+	0	1	blank2r.bmp	252	1	ZHHZ	306	1	krank	559	0	0	0	0	0	0	0	0	0	0	0	0	0	0	0	0	0	0	0	0	0	0	0	0	0	0	0	0	0	0	0	0	0	0	0	0	0	0	0
071519	11:02:52	11:07:26	272938	5.0.10.0	5_exp_noRW	46	Rpleas_acq	CS_A	CPPC	DXXD	ZHHZ	JQQJ	YFFY	LWWL	küssen	genießen	träumen	vertrauen	gütig	sonnig	krank	gemein	töten	versagen	gierig	sterben	47pct	acq_USunple_CSunple2_noRW	acq23456_noRW	2	25	0	0	300	300	441	46	0	1	1	blank2r.bmp	0	1	+	0	1	blank2r.bmp	252	1	JQQJ	306	1	versagen	559	0	0	0	0	0	0	0	0	0	0	0	0	0	0	0	0	0	0	0	0	0	0	0	0	0	0	0	0	0	0	0	0	0	0	0	0	0	0	0
071519	11:02:52	11:07:27	274564	5.0.10.0	5_exp_noRW	46	Rpleas_acq	CS_A	CPPC	DXXD	ZHHZ	JQQJ	YFFY	LWWL	küssen	genießen	träumen	vertrauen	gütig	sonnig	krank	gemein	töten	versagen	gierig	sterben	53pct	acq_USpleas_CSpleas2_noRW	acq23456_noRW	2	26	0	0	300	300	454	50	0	1	1	blank2r.bmp	0	1	+	0	1	blank2r.bmp	252	1	DXXD	306	1	vertrauen	559	0	0	0	0	0	0	0	0	0	0	0	0	0	0	0	0	0	0	0	0	0	0	0	0	0	0	0	0	0	0	0	0	0	0	0	0	0	0	0
071519	11:02:52	11:07:29	276177	5.0.10.0	5_exp_noRW	46	Rpleas_acq	CS_A	CPPC	DXXD	ZHHZ	JQQJ	YFFY	LWWL	küssen	genießen	träumen	vertrauen	gütig	sonnig	krank	gemein	töten	versagen	gierig	sterben	47pct	acq_USunple_CSunple2_noRW	acq23456_noRW	2	27	0	0	300	300	439	46	0	1	1	blank2r.bmp	0	1	+	0	1	blank2r.bmp	252	1	JQQJ	306	3	sterben	559	0	0	0	0	0	0	0	0	0	0	0	0	0	0	0	0	0	0	0	0	0	0	0	0	0	0	0	0	0	0	0	0	0	0	0	0	0	0	0
071519	11:02:52	11:07:30	277830	5.0.10.0	5_exp_noRW	46	Rpleas_acq	CS_A	CPPC	DXXD	ZHHZ	JQQJ	YFFY	LWWL	küssen	genießen	träumen	vertrauen	gütig	sonnig	krank	gemein	töten	versagen	gierig	sterben	53pct	acq_USpleas_CSunple1_noRW	acq23456_noRW	2	28	0	0	300	300	486	50	0	1	1	blank2r.bmp	0	1	+	0	1	blank2r.bmp	252	1	ZHHZ	306	2	genießen	559	0	0	0	0	0	0	0	0	0	0	0	0	0	0	0	0	0	0	0	0	0	0	0	0	0	0	0	0	0	0	0	0	0	0	0	0	0	0	0
071519	11:02:52	11:07:32	279442	5.0.10.0	5_exp_noRW	46	Rpleas_acq	CS_A	CPPC	DXXD	ZHHZ	JQQJ	YFFY	LWWL	küssen	genießen	träumen	vertrauen	gütig	sonnig	krank	gemein	töten	versagen	gierig	sterben	53pct	acq_USunple_CSpleas1_noRW	acq23456_noRW	2	29	0	0	300	300	437	46	0	1	1	blank2r.bmp	0	1	+	0	1	blank2r.bmp	252	1	CPPC	306	1	krank	559	0	0	0	0	0	0	0	0	0	0	0	0	0	0	0	0	0	0	0	0	0	0	0	0	0	0	0	0	0	0	0	0	0	0	0	0	0	0	0
071519	11:02:52	11:07:34	281388	5.0.10.0	5_exp_noRW	46	Rpleas_acq	CS_A	CPPC	DXXD	ZHHZ	JQQJ	YFFY	LWWL	küssen	genießen	träumen	vertrauen	gütig	sonnig	krank	gemein	töten	versagen	gierig	sterben	53pct	acq_USunple_CSunple2_noRW	acq23456_noRW	2	30	0	0	300	300	745	46	0	1	1	blank2r.bmp	0	1	+	0	1	blank2r.bmp	252	1	JQQJ	306	2	gierig	559	0	0	0	0	0	0	0	0	0	0	0	0	0	0	0	0	0	0	0	0	0	0	0	0	0	0	0	0	0	0	0	0	0	0	0	0	0	0	0
071519	11:02:52	11:07:36	283014	5.0.10.0	5_exp_noRW	46	Rpleas_acq	CS_A	CPPC	DXXD	ZHHZ	JQQJ	YFFY	LWWL	küssen	genießen	träumen	vertrauen	gütig	sonnig	krank	gemein	töten	versagen	gierig	sterben	47pct	acq_USpleas_CSpleas1_noRW	acq23456_noRW	2	31	0	0	300	300	458	50	0	1	1	blank2r.bmp	0	1	+	0	1	blank2r.bmp	252	1	CPPC	306	3	träumen	559	0	0	0	0	0	0	0	0	0	0	0	0	0	0	0	0	0	0	0	0	0	0	0	0	0	0	0	0	0	0	0	0	0	0	0	0	0	0	0
071519	11:02:52	11:07:37	284707	5.0.10.0	5_exp_noRW	46	Rpleas_acq	CS_A	CPPC	DXXD	ZHHZ	JQQJ	YFFY	LWWL	küssen	genießen	träumen	vertrauen	gütig	sonnig	krank	gemein	töten	versagen	gierig	sterben	47pct	acq_USunple_CSunple1_noRW	acq23456_noRW	2	32	0	0	300	300	530	46	0	1	1	blank2r.bmp	0	1	+	0	1	blank2r.bmp	252	1	ZHHZ	306	2	gemein	559	0	0	0	0	0	0	0	0	0	0	0	0	0	0	0	0	0	0	0	0	0	0	0	0	0	0	0	0	0	0	0	0	0	0	0	0	0	0	0
071519	11:02:52	11:07:39	286386	5.0.10.0	5_exp_noRW	46	Rpleas_acq	CS_A	CPPC	DXXD	ZHHZ	JQQJ	YFFY	LWWL	küssen	genießen	träumen	vertrauen	gütig	sonnig	krank	gemein	töten	versagen	gierig	sterben	47pct	acq_USunple_CSunple1_noRW	acq23456_noRW	2	33	0	0	300	300	493	46	0	1	1	blank2r.bmp	0	1	+	0	1	blank2r.bmp	252	1	ZHHZ	306	1	krank	559	0	0	0	0	0	0	0	0	0	0	0	0	0	0	0	0	0	0	0	0	0	0	0	0	0	0	0	0	0	0	0	0	0	0	0	0	0	0	0
071519	11:02:52	11:07:41	288372	5.0.10.0	5_exp_noRW	46	Rpleas_acq	CS_A	CPPC	DXXD	ZHHZ	JQQJ	YFFY	LWWL	küssen	genießen	träumen	vertrauen	gütig	sonnig	krank	gemein	töten	versagen	gierig	sterben	47pct	acq_USunple_CSunple1_noRW	acq23456_noRW	2	34	0	0	300	300	821	46	0	1	1	blank2r.bmp	0	1	+	0	1	blank2r.bmp	252	1	ZHHZ	306	3	töten	559	0	0	0	0	0	0	0	0	0	0	0	0	0	0	0	0	0	0	0	0	0	0	0	0	0	0	0	0	0	0	0	0	0	0	0	0	0	0	0
071519	11:02:52	11:07:43	290104	5.0.10.0	5_exp_noRW	46	Rpleas_acq	CS_A	CPPC	DXXD	ZHHZ	JQQJ	YFFY	LWWL	küssen	genießen	träumen	vertrauen	gütig	sonnig	krank	gemein	töten	versagen	gierig	sterben	47pct	acq_USpleas_CSpleas2_noRW	acq23456_noRW	2	35	0	0	300	300	546	50	0	1	1	blank2r.bmp	0	1	+	0	1	blank2r.bmp	252	1	DXXD	306	3	sonnig	559	0	0	0	0	0	0	0	0	0	0	0	0	0	0	0	0	0	0	0	0	0	0	0	0	0	0	0	0	0	0	0	0	0	0	0	0	0	0	0
071519	11:02:52	11:07:44	291744	5.0.10.0	5_exp_noRW	46	Rpleas_acq	CS_A	CPPC	DXXD	ZHHZ	JQQJ	YFFY	LWWL	küssen	genießen	träumen	vertrauen	gütig	sonnig	krank	gemein	töten	versagen	gierig	sterben	53pct	acq_USunple_CSpleas2_noRW	acq23456_noRW	2	36	0	0	300	300	475	46	0	1	1	blank2r.bmp	0	1	+	0	1	blank2r.bmp	252	1	DXXD	306	2	gierig	559	0	0	0	0	0	0	0	0	0	0	0	0	0	0	0	0	0	0	0	0	0	0	0	0	0	0	0	0	0	0	0	0	0	0	0	0	0	0	0
071519	11:02:52	11:07:46	293396	5.0.10.0	5_exp_noRW	46	Rpleas_acq	CS_A	CPPC	DXXD	ZHHZ	JQQJ	YFFY	LWWL	küssen	genießen	träumen	vertrauen	gütig	sonnig	krank	gemein	töten	versagen	gierig	sterben	53pct	acq_USpleas_CSpleas1_noRW	acq23456_noRW	2	37	0	0	300	300	466	50	0	1	1	blank2r.bmp	0	1	+	0	1	blank2r.bmp	252	1	CPPC	306	2	genießen	559	0	0	0	0	0	0	0	0	0	0	0	0	0	0	0	0	0	0	0	0	0	0	0	0	0	0	0	0	0	0	0	0	0	0	0	0	0	0	0
071519	11:02:52	11:07:48	295062	5.0.10.0	5_exp_noRW	46	Rpleas_acq	CS_A	CPPC	DXXD	ZHHZ	JQQJ	YFFY	LWWL	küssen	genießen	träumen	vertrauen	gütig	sonnig	krank	gemein	töten	versagen	gierig	sterben	53pct	acq_USpleas_CSunple2_noRW	acq23456_noRW	2	38	0	0	300	300	496	50	0	1	1	blank2r.bmp	0	1	+	0	1	blank2r.bmp	252	1	JQQJ	306	1	vertrauen	559	0	0	0	0	0	0	0	0	0	0	0	0	0	0	0	0	0	0	0	0	0	0	0	0	0	0	0	0	0	0	0	0	0	0	0	0	0	0	0
071519	11:02:52	11:07:49	296835	5.0.10.0	5_exp_noRW	46	Rpleas_acq	CS_A	CPPC	DXXD	ZHHZ	JQQJ	YFFY	LWWL	küssen	genießen	träumen	vertrauen	gütig	sonnig	krank	gemein	töten	versagen	gierig	sterben	53pct	acq_USpleas_CSpleas2_noRW	acq23456_noRW	2	39	0	0	300	300	605	50	0	1	1	blank2r.bmp	0	1	+	0	1	blank2r.bmp	252	1	DXXD	306	2	gütig	559	0	0	0	0	0	0	0	0	0	0	0	0	0	0	0	0	0	0	0	0	0	0	0	0	0	0	0	0	0	0	0	0	0	0	0	0	0	0	0
071519	11:02:52	11:07:51	298488	5.0.10.0	5_exp_noRW	46	Rpleas_acq	CS_A	CPPC	DXXD	ZHHZ	JQQJ	YFFY	LWWL	küssen	genießen	träumen	vertrauen	gütig	sonnig	krank	gemein	töten	versagen	gierig	sterben	53pct	acq_USpleas_CSpleas1_noRW	acq23456_noRW	2	40	0	0	300	300	475	50	0	1	1	blank2r.bmp	0	1	+	0	1	blank2r.bmp	252	1	CPPC	306	1	küssen	559	0	0	0	0	0	0	0	0	0	0	0	0	0	0	0	0	0	0	0	0	0	0	0	0	0	0	0	0	0	0	0	0	0	0	0	0	0	0	0
071519	11:02:52	11:07:53	300180	5.0.10.0	5_exp_noRW	46	Rpleas_acq	CS_A	CPPC	DXXD	ZHHZ	JQQJ	YFFY	LWWL	küssen	genießen	träumen	vertrauen	gütig	sonnig	krank	gemein	töten	versagen	gierig	sterben	47pct	acq_USunple_CSunple1_noRW	acq23456_noRW	2	41	0	0	300	300	514	46	0	1	1	blank2r.bmp	0	1	+	0	1	blank2r.bmp	252	1	ZHHZ	306	1	krank	559	0	0	0	0	0	0	0	0	0	0	0	0	0	0	0	0	0	0	0	0	0	0	0	0	0	0	0	0	0	0	0	0	0	0	0	0	0	0	0
071519	11:02:52	11:07:54	301780	5.0.10.0	5_exp_noRW	46	Rpleas_acq	CS_A	CPPC	DXXD	ZHHZ	JQQJ	YFFY	LWWL	küssen	genießen	träumen	vertrauen	gütig	sonnig	krank	gemein	töten	versagen	gierig	sterben	47pct	acq_USpleas_CSpleas2_noRW	acq23456_noRW	2	42	0	0	300	300	418	50	0	1	1	blank2r.bmp	0	1	+	0	1	blank2r.bmp	252	1	DXXD	306	2	gütig	559	0	0	0	0	0	0	0	0	0	0	0	0	0	0	0	0	0	0	0	0	0	0	0	0	0	0	0	0	0	0	0	0	0	0	0	0	0	0	0
071519	11:02:52	11:07:56	303406	5.0.10.0	5_exp_noRW	46	Rpleas_acq	CS_A	CPPC	DXXD	ZHHZ	JQQJ	YFFY	LWWL	küssen	genießen	träumen	vertrauen	gütig	sonnig	krank	gemein	töten	versagen	gierig	sterben	47pct	acq_USpleas_CSpleas2_noRW	acq23456_noRW	2	43	0	0	300	300	443	50	0	1	1	blank2r.bmp	0	1	+	0	1	blank2r.bmp	252	1	DXXD	306	1	vertrauen	559	0	0	0	0	0	0	0	0	0	0	0	0	0	0	0	0	0	0	0	0	0	0	0	0	0	0	0	0	0	0	0	0	0	0	0	0	0	0	0
071519	11:02:52	11:07:58	305005	5.0.10.0	5_exp_noRW	46	Rpleas_acq	CS_A	CPPC	DXXD	ZHHZ	JQQJ	YFFY	LWWL	küssen	genießen	träumen	vertrauen	gütig	sonnig	krank	gemein	töten	versagen	gierig	sterben	47pct	acq_USpleas_CSpleas1_noRW	acq23456_noRW	2	44	0	0	300	300	436	50	0	1	1	blank2r.bmp	0	1	+	0	1	blank2r.bmp	252	1	CPPC	306	3	träumen	559	0	0	0	0	0	0	0	0	0	0	0	0	0	0	0	0	0	0	0	0	0	0	0	0	0	0	0	0	0	0	0	0	0	0	0	0	0	0	0
071519	11:02:52	11:07:59	306751	5.0.10.0	5_exp_noRW	46	Rpleas_acq	CS_A	CPPC	DXXD	ZHHZ	JQQJ	YFFY	LWWL	küssen	genießen	träumen	vertrauen	gütig	sonnig	krank	gemein	töten	versagen	gierig	sterben	47pct	acq_USunple_CSunple2_noRW	acq23456_noRW	2	45	0	0	300	300	567	46	0	1	1	blank2r.bmp	0	1	+	0	1	blank2r.bmp	252	1	JQQJ	306	1	versagen	559	0	0	0	0	0	0	0	0	0	0	0	0	0	0	0	0	0	0	0	0	0	0	0	0	0	0	0	0	0	0	0	0	0	0	0	0	0	0	0
071519	11:02:52	11:08:01	308403	5.0.10.0	5_exp_noRW	46	Rpleas_acq	CS_A	CPPC	DXXD	ZHHZ	JQQJ	YFFY	LWWL	küssen	genießen	träumen	vertrauen	gütig	sonnig	krank	gemein	töten	versagen	gierig	sterben	53pct	acq_USpleas_CSpleas1_noRW	acq23456_noRW	2	46	0	0	300	300	469	50	0	1	1	blank2r.bmp	0	1	+	0	1	blank2r.bmp	252	1	CPPC	306	2	genießen	559	0	0	0	0	0	0	0	0	0	0	0	0	0	0	0	0	0	0	0	0	0	0	0	0	0	0	0	0	0	0	0	0	0	0	0	0	0	0	0
071519	11:02:52	11:08:03	310216	5.0.10.0	5_exp_noRW	46	Rpleas_acq	CS_A	CPPC	DXXD	ZHHZ	JQQJ	YFFY	LWWL	küssen	genießen	träumen	vertrauen	gütig	sonnig	krank	gemein	töten	versagen	gierig	sterben	47pct	acq_USpleas_CSpleas2_noRW	acq23456_noRW	2	47	0	0	300	300	631	50	0	1	1	blank2r.bmp	0	1	+	0	1	blank2r.bmp	252	1	DXXD	306	3	sonnig	559	0	0	0	0	0	0	0	0	0	0	0	0	0	0	0	0	0	0	0	0	0	0	0	0	0	0	0	0	0	0	0	0	0	0	0	0	0	0	0
071519	11:02:52	11:08:04	311855	5.0.10.0	5_exp_noRW	46	Rpleas_acq	CS_A	CPPC	DXXD	ZHHZ	JQQJ	YFFY	LWWL	küssen	genießen	träumen	vertrauen	gütig	sonnig	krank	gemein	töten	versagen	gierig	sterben	47pct	acq_USpleas_CSpleas1_noRW	acq23456_noRW	2	48	0	0	300	300	458	50	0	1	1	blank2r.bmp	0	1	+	0	1	blank2r.bmp	252	1	CPPC	306	1	küssen	559	0	0	0	0	0	0	0	0	0	0	0	0	0	0	0	0	0	0	0	0	0	0	0	0	0	0	0	0	0	0	0	0	0	0	0	0	0	0	0
071519	11:02:52	11:08:06	313468	5.0.10.0	5_exp_noRW	46	Rpleas_acq	CS_A	CPPC	DXXD	ZHHZ	JQQJ	YFFY	LWWL	küssen	genießen	träumen	vertrauen	gütig	sonnig	krank	gemein	töten	versagen	gierig	sterben	47pct	acq_USunple_CSunple1_noRW	acq23456_noRW	2	49	0	0	300	300	434	46	0	1	1	blank2r.bmp	0	1	+	0	1	blank2r.bmp	252	1	ZHHZ	306	3	töten	559	0	0	0	0	0	0	0	0	0	0	0	0	0	0	0	0	0	0	0	0	0	0	0	0	0	0	0	0	0	0	0	0	0	0	0	0	0	0	0
071519	11:02:52	11:08:08	315161	5.0.10.0	5_exp_noRW	46	Rpleas_acq	CS_A	CPPC	DXXD	ZHHZ	JQQJ	YFFY	LWWL	küssen	genießen	träumen	vertrauen	gütig	sonnig	krank	gemein	töten	versagen	gierig	sterben	53pct	acq_USunple_CSunple1_noRW	acq23456_noRW	2	50	0	0	300	300	529	46	0	1	1	blank2r.bmp	0	1	+	0	1	blank2r.bmp	252	1	ZHHZ	306	2	gemein	559	0	0	0	0	0	0	0	0	0	0	0	0	0	0	0	0	0	0	0	0	0	0	0	0	0	0	0	0	0	0	0	0	0	0	0	0	0	0	0
071519	11:02:52	11:08:09	316773	5.0.10.0	5_exp_noRW	46	Rpleas_acq	CS_A	CPPC	DXXD	ZHHZ	JQQJ	YFFY	LWWL	küssen	genießen	träumen	vertrauen	gütig	sonnig	krank	gemein	töten	versagen	gierig	sterben	47pct	acq_USpleas_CSpleas2_noRW	acq23456_noRW	2	51	0	0	300	300	429	50	0	1	1	blank2r.bmp	0	1	+	0	1	blank2r.bmp	252	1	DXXD	306	2	gütig	559	0	0	0	0	0	0	0	0	0	0	0	0	0	0	0	0	0	0	0	0	0	0	0	0	0	0	0	0	0	0	0	0	0	0	0	0	0	0	0
071519	11:02:52	11:08:11	318493	5.0.10.0	5_exp_noRW	46	Rpleas_acq	CS_A	CPPC	DXXD	ZHHZ	JQQJ	YFFY	LWWL	küssen	genießen	träumen	vertrauen	gütig	sonnig	krank	gemein	töten	versagen	gierig	sterben	47pct	acq_USunple_CSunple2_noRW	acq23456_noRW	2	52	0	0	300	300	555	46	0	1	1	blank2r.bmp	0	1	+	0	1	blank2r.bmp	252	1	JQQJ	306	2	gierig	559	0	0	0	0	0	0	0	0	0	0	0	0	0	0	0	0	0	0	0	0	0	0	0	0	0	0	0	0	0	0	0	0	0	0	0	0	0	0	0
071519	11:02:52	11:08:13	320159	5.0.10.0	5_exp_noRW	46	Rpleas_acq	CS_A	CPPC	DXXD	ZHHZ	JQQJ	YFFY	LWWL	küssen	genießen	träumen	vertrauen	gütig	sonnig	krank	gemein	töten	versagen	gierig	sterben	47pct	acq_USunple_CSunple2_noRW	acq23456_noRW	2	53	0	0	300	300	487	46	0	1	1	blank2r.bmp	0	1	+	0	1	blank2r.bmp	252	1	JQQJ	306	3	sterben	559	0	0	0	0	0	0	0	0	0	0	0	0	0	0	0	0	0	0	0	0	0	0	0	0	0	0	0	0	0	0	0	0	0	0	0	0	0	0	0
071519	11:02:52	11:08:14	321825	5.0.10.0	5_exp_noRW	46	Rpleas_acq	CS_A	CPPC	DXXD	ZHHZ	JQQJ	YFFY	LWWL	küssen	genießen	träumen	vertrauen	gütig	sonnig	krank	gemein	töten	versagen	gierig	sterben	47pct	acq_USunple_CSpleas1_noRW	acq23456_noRW	2	54	0	0	300	300	503	46	0	1	1	blank2r.bmp	0	1	+	0	1	blank2r.bmp	252	1	CPPC	306	2	gemein	559	0	0	0	0	0	0	0	0	0	0	0	0	0	0	0	0	0	0	0	0	0	0	0	0	0	0	0	0	0	0	0	0	0	0	0	0	0	0	0
071519	11:02:52	11:08:16	323477	5.0.10.0	5_exp_noRW	46	Rpleas_acq	CS_A	CPPC	DXXD	ZHHZ	JQQJ	YFFY	LWWL	küssen	genießen	träumen	vertrauen	gütig	sonnig	krank	gemein	töten	versagen	gierig	sterben	53pct	acq_USpleas_CSpleas1_noRW	acq23456_noRW	2	55	0	0	300	300	468	50	0	1	1	blank2r.bmp	0	1	+	0	1	blank2r.bmp	252	1	CPPC	306	1	küssen	559	0	0	0	0	0	0	0	0	0	0	0	0	0	0	0	0	0	0	0	0	0	0	0	0	0	0	0	0	0	0	0	0	0	0	0	0	0	0	0
071519	11:02:52	11:08:18	325236	5.0.10.0	5_exp_noRW	46	Rpleas_acq	CS_A	CPPC	DXXD	ZHHZ	JQQJ	YFFY	LWWL	küssen	genießen	träumen	vertrauen	gütig	sonnig	krank	gemein	töten	versagen	gierig	sterben	53pct	acq_USpleas_CSunple1_noRW	acq23456_noRW	2	56	0	0	300	300	574	50	0	1	1	blank2r.bmp	0	1	+	0	1	blank2r.bmp	252	1	ZHHZ	306	1	küssen	559	0	0	0	0	0	0	0	0	0	0	0	0	0	0	0	0	0	0	0	0	0	0	0	0	0	0	0	0	0	0	0	0	0	0	0	0	0	0	0
071519	11:02:52	11:08:19	326822	5.0.10.0	5_exp_noRW	46	Rpleas_acq	CS_A	CPPC	DXXD	ZHHZ	JQQJ	YFFY	LWWL	küssen	genießen	träumen	vertrauen	gütig	sonnig	krank	gemein	töten	versagen	gierig	sterben	47pct	acq_USunple_CSpleas2_noRW	acq23456_noRW	2	57	0	0	300	300	414	46	0	1	1	blank2r.bmp	0	1	+	0	1	blank2r.bmp	252	1	DXXD	306	3	sterben	559	0	0	0	0	0	0	0	0	0	0	0	0	0	0	0	0	0	0	0	0	0	0	0	0	0	0	0	0	0	0	0	0	0	0	0	0	0	0	0
071519	11:02:52	11:08:21	328488	5.0.10.0	5_exp_noRW	46	Rpleas_acq	CS_A	CPPC	DXXD	ZHHZ	JQQJ	YFFY	LWWL	küssen	genießen	träumen	vertrauen	gütig	sonnig	krank	gemein	töten	versagen	gierig	sterben	53pct	acq_USunple_CSunple2_noRW	acq23456_noRW	2	58	0	0	300	300	496	46	0	1	1	blank2r.bmp	0	1	+	0	1	blank2r.bmp	252	1	JQQJ	306	1	versagen	559	0	0	0	0	0	0	0	0	0	0	0	0	0	0	0	0	0	0	0	0	0	0	0	0	0	0	0	0	0	0	0	0	0	0	0	0	0	0	0
071519	11:02:52	11:08:23	330061	5.0.10.0	5_exp_noRW	46	Rpleas_acq	CS_A	CPPC	DXXD	ZHHZ	JQQJ	YFFY	LWWL	küssen	genießen	träumen	vertrauen	gütig	sonnig	krank	gemein	töten	versagen	gierig	sterben	53pct	acq_USunple_CSunple1_noRW	acq23456_noRW	2	59	0	0	300	300	411	46	0	1	1	blank2r.bmp	0	1	+	0	1	blank2r.bmp	252	1	ZHHZ	306	3	töten	559	0	0	0	0	0	0	0	0	0	0	0	0	0	0	0	0	0	0	0	0	0	0	0	0	0	0	0	0	0	0	0	0	0	0	0	0	0	0	0
071519	11:02:52	11:08:24	331794	5.0.10.0	5_exp_noRW	46	Rpleas_acq	CS_A	CPPC	DXXD	ZHHZ	JQQJ	YFFY	LWWL	küssen	genießen	träumen	vertrauen	gütig	sonnig	krank	gemein	töten	versagen	gierig	sterben	53pct	acq_USpleas_CSunple2_noRW	acq23456_noRW	2	60	0	0	300	300	549	50	0	1	1	blank2r.bmp	0	1	+	0	1	blank2r.bmp	252	1	JQQJ	306	2	gütig	559	0	0	0	0	0	0	0	0	0	0	0	0	0	0	0	0	0	0	0	0	0	0	0	0	0	0	0	0	0	0	0	0	0	0	0	0	0	0	0
071519	11:02:52	11:08:26	333446	5.0.10.0	5_exp_noRW	46	Rpleas_acq	CS_A	CPPC	DXXD	ZHHZ	JQQJ	YFFY	LWWL	küssen	genießen	träumen	vertrauen	gütig	sonnig	krank	gemein	töten	versagen	gierig	sterben	53pct	acq_USpleas_CSpleas2_noRW	acq23456_noRW	2	61	0	0	300	300	470	50	0	1	1	blank2r.bmp	0	1	+	0	1	blank2r.bmp	252	1	DXXD	306	1	vertrauen	559	0	0	0	0	0	0	0	0	0	0	0	0	0	0	0	0	0	0	0	0	0	0	0	0	0	0	0	0	0	0	0	0	0	0	0	0	0	0	0
071519	11:02:52	11:08:28	335099	5.0.10.0	5_exp_noRW	46	Rpleas_acq	CS_A	CPPC	DXXD	ZHHZ	JQQJ	YFFY	LWWL	küssen	genießen	träumen	vertrauen	gütig	sonnig	krank	gemein	töten	versagen	gierig	sterben	53pct	acq_USpleas_CSpleas2_noRW	acq23456_noRW	2	62	0	0	300	300	473	50	0	1	1	blank2r.bmp	0	1	+	0	1	blank2r.bmp	252	1	DXXD	306	3	sonnig	559	0	0	0	0	0	0	0	0	0	0	0	0	0	0	0	0	0	0	0	0	0	0	0	0	0	0	0	0	0	0	0	0	0	0	0	0	0	0	0
071519	11:02:52	11:08:29	336738	5.0.10.0	5_exp_noRW	46	Rpleas_acq	CS_A	CPPC	DXXD	ZHHZ	JQQJ	YFFY	LWWL	küssen	genießen	träumen	vertrauen	gütig	sonnig	krank	gemein	töten	versagen	gierig	sterben	53pct	acq_USunple_CSunple2_noRW	acq23456_noRW	2	63	0	0	300	300	462	46	0	1	1	blank2r.bmp	0	1	+	0	1	blank2r.bmp	252	1	JQQJ	306	3	sterben	559	0	0	0	0	0	0	0	0	0	0	0	0	0	0	0	0	0	0	0	0	0	0	0	0	0	0	0	0	0	0	0	0	0	0	0	0	0	0	0
071519	11:02:52	11:08:31	338378	5.0.10.0	5_exp_noRW	46	Rpleas_acq	CS_A	CPPC	DXXD	ZHHZ	JQQJ	YFFY	LWWL	küssen	genießen	träumen	vertrauen	gütig	sonnig	krank	gemein	töten	versagen	gierig	sterben	47pct	acq_USunple_CSunple1_noRW	acq23456_noRW	2	64	0	0	300	300	460	46	0	1	1	blank2r.bmp	0	1	+	0	1	blank2r.bmp	252	1	ZHHZ	306	1	krank	559	0	0	0	0	0	0	0	0	0	0	0	0	0	0	0	0	0	0	0	0	0	0	0	0	0	0	0	0	0	0	0	0	0	0	0	0	0	0	0
071519	11:02:52	11:08:33	339977	5.0.10.0	5_exp_noRW	46	Rpleas_acq	CS_A	CPPC	DXXD	ZHHZ	JQQJ	YFFY	LWWL	küssen	genießen	träumen	vertrauen	gütig	sonnig	krank	gemein	töten	versagen	gierig	sterben	53pct	acq_USpleas_CSunple1_noRW	acq23456_noRW	2	65	0	0	300	300	432	50	0	1	1	blank2r.bmp	0	1	+	0	1	blank2r.bmp	252	1	ZHHZ	306	3	träumen	559	0	0	0	0	0	0	0	0	0	0	0	0	0	0	0	0	0	0	0	0	0	0	0	0	0	0	0	0	0	0	0	0	0	0	0	0	0	0	0
071519	11:02:52	11:08:34	341590	5.0.10.0	5_exp_noRW	46	Rpleas_acq	CS_A	CPPC	DXXD	ZHHZ	JQQJ	YFFY	LWWL	küssen	genießen	träumen	vertrauen	gütig	sonnig	krank	gemein	töten	versagen	gierig	sterben	47pct	acq_USpleas_CSpleas1_noRW	acq23456_noRW	2	66	0	0	300	300	429	50	0	1	1	blank2r.bmp	0	1	+	0	1	blank2r.bmp	252	1	CPPC	306	2	genießen	559	0	0	0	0	0	0	0	0	0	0	0	0	0	0	0	0	0	0	0	0	0	0	0	0	0	0	0	0	0	0	0	0	0	0	0	0	0	0	0
071519	11:02:52	11:08:36	343322	5.0.10.0	5_exp_noRW	46	Rpleas_acq	CS_A	CPPC	DXXD	ZHHZ	JQQJ	YFFY	LWWL	küssen	genießen	träumen	vertrauen	gütig	sonnig	krank	gemein	töten	versagen	gierig	sterben	53pct	acq_USunple_CSunple1_noRW	acq23456_noRW	2	67	0	0	300	300	552	46	0	1	1	blank2r.bmp	0	1	+	0	1	blank2r.bmp	252	1	ZHHZ	306	2	gemein	559	0	0	0	0	0	0	0	0	0	0	0	0	0	0	0	0	0	0	0	0	0	0	0	0	0	0	0	0	0	0	0	0	0	0	0	0	0	0	0
071519	11:02:52	11:08:38	345068	5.0.10.0	5_exp_noRW	46	Rpleas_acq	CS_A	CPPC	DXXD	ZHHZ	JQQJ	YFFY	LWWL	küssen	genießen	träumen	vertrauen	gütig	sonnig	krank	gemein	töten	versagen	gierig	sterben	47pct	acq_USunple_CSunple2_noRW	acq23456_noRW	2	68	0	0	300	300	561	46	0	1	1	blank2r.bmp	0	1	+	0	1	blank2r.bmp	252	1	JQQJ	306	2	gierig	559	0	0	0	0	0	0	0	0	0	0	0	0	0	0	0	0	0	0	0	0	0	0	0	0	0	0	0	0	0	0	0	0	0	0	0	0	0	0	0
071519	11:02:52	11:08:40	347321	5.0.10.0	5_exp_noRW	46	Rpleas_acq	CS_A	CPPC	DXXD	ZHHZ	JQQJ	YFFY	LWWL	küssen	genießen	träumen	vertrauen	gütig	sonnig	krank	gemein	töten	versagen	gierig	sterben	53pct	acq_USpleas_CSpleas2_noRW	acq23456_noRW	2	69	0	0	300	300	1067	50	0	1	1	blank2r.bmp	0	1	+	0	1	blank2r.bmp	252	1	DXXD	306	2	gütig	559	0	0	0	0	0	0	0	0	0	0	0	0	0	0	0	0	0	0	0	0	0	0	0	0	0	0	0	0	0	0	0	0	0	0	0	0	0	0	0
071519	11:02:52	11:08:42	349000	5.0.10.0	5_exp_noRW	46	Rpleas_acq	CS_A	CPPC	DXXD	ZHHZ	JQQJ	YFFY	LWWL	küssen	genießen	träumen	vertrauen	gütig	sonnig	krank	gemein	töten	versagen	gierig	sterben	53pct	acq_USpleas_CSpleas1_noRW	acq23456_noRW	2	70	0	0	300	300	508	50	0	1	1	blank2r.bmp	0	1	+	0	1	blank2r.bmp	252	1	CPPC	306	3	träumen	559	0	0	0	0	0	0	0	0	0	0	0	0	0	0	0	0	0	0	0	0	0	0	0	0	0	0	0	0	0	0	0	0	0	0	0	0	0	0	0
071519	11:02:52	11:08:43	350786	5.0.10.0	5_exp_noRW	46	Rpleas_acq	CS_A	CPPC	DXXD	ZHHZ	JQQJ	YFFY	LWWL	küssen	genießen	träumen	vertrauen	gütig	sonnig	krank	gemein	töten	versagen	gierig	sterben	53pct	acq_USunple_CSunple1_noRW	acq23456_noRW	2	71	0	0	300	300	605	46	0	1	1	blank2r.bmp	0	1	+	0	1	blank2r.bmp	252	1	ZHHZ	306	2	gemein	559	0	0	0	0	0	0	0	0	0	0	0	0	0	0	0	0	0	0	0	0	0	0	0	0	0	0	0	0	0	0	0	0	0	0	0	0	0	0	0
071519	11:02:52	11:08:46	352905	5.0.10.0	5_exp_noRW	46	Rpleas_acq	CS_A	CPPC	DXXD	ZHHZ	JQQJ	YFFY	LWWL	küssen	genießen	träumen	vertrauen	gütig	sonnig	krank	gemein	töten	versagen	gierig	sterben	53pct	acq_USunple_CSunple2_noRW	acq23456_noRW	2	72	0	0	300	300	946	46	0	1	1	blank2r.bmp	0	1	+	0	1	blank2r.bmp	252	1	JQQJ	306	1	versagen	559	0	0	0	0	0	0	0	0	0	0	0	0	0	0	0	0	0	0	0	0	0	0	0	0	0	0	0	0	0	0	0	0	0	0	0	0	0	0	0
071519	11:02:52	11:08:47	354611	5.0.10.0	5_exp_noRW	46	Rpleas_acq	CS_A	CPPC	DXXD	ZHHZ	JQQJ	YFFY	LWWL	küssen	genießen	träumen	vertrauen	gütig	sonnig	krank	gemein	töten	versagen	gierig	sterben	47pct	acq_USpleas_CSpleas1_noRW	acq23456_noRW	2	73	0	0	300	300	532	50	0	1	1	blank2r.bmp	0	1	+	0	1	blank2r.bmp	252	1	CPPC	306	2	genießen	559	0	0	0	0	0	0	0	0	0	0	0	0	0	0	0	0	0	0	0	0	0	0	0	0	0	0	0	0	0	0	0	0	0	0	0	0	0	0	0
071519	11:02:52	11:08:49	356383	5.0.10.0	5_exp_noRW	46	Rpleas_acq	CS_A	CPPC	DXXD	ZHHZ	JQQJ	YFFY	LWWL	küssen	genießen	träumen	vertrauen	gütig	sonnig	krank	gemein	töten	versagen	gierig	sterben	53pct	acq_USpleas_CSpleas1_noRW	acq23456_noRW	2	74	0	0	300	300	608	50	0	1	1	blank2r.bmp	0	1	+	0	1	blank2r.bmp	252	1	CPPC	306	3	träumen	559	0	0	0	0	0	0	0	0	0	0	0	0	0	0	0	0	0	0	0	0	0	0	0	0	0	0	0	0	0	0	0	0	0	0	0	0	0	0	0
071519	11:02:52	11:08:51	358009	5.0.10.0	5_exp_noRW	46	Rpleas_acq	CS_A	CPPC	DXXD	ZHHZ	JQQJ	YFFY	LWWL	küssen	genießen	träumen	vertrauen	gütig	sonnig	krank	gemein	töten	versagen	gierig	sterben	53pct	acq_USpleas_CSpleas2_noRW	acq23456_noRW	2	75	0	0	300	300	461	50	0	1	1	blank2r.bmp	0	1	+	0	1	blank2r.bmp	252	1	DXXD	306	1	vertrauen	559	0	0	0	0	0	0	0	0	0	0	0	0	0	0	0	0	0	0	0	0	0	0	0	0	0	0	0	0	0	0	0	0	0	0	0	0	0	0	0
071519	11:02:52	11:08:52	359755	5.0.10.0	5_exp_noRW	46	Rpleas_acq	CS_A	CPPC	DXXD	ZHHZ	JQQJ	YFFY	LWWL	küssen	genießen	träumen	vertrauen	gütig	sonnig	krank	gemein	töten	versagen	gierig	sterben	47pct	acq_USunple_CSunple1_noRW	acq23456_noRW	2	76	0	0	300	300	569	46	0	1	1	blank2r.bmp	0	1	+	0	1	blank2r.bmp	252	1	ZHHZ	306	1	krank	559	0	0	0	0	0	0	0	0	0	0	0	0	0	0	0	0	0	0	0	0	0	0	0	0	0	0	0	0	0	0	0	0	0	0	0	0	0	0	0
071519	11:02:52	11:08:54	361754	5.0.10.0	5_exp_noRW	46	Rpleas_acq	CS_A	CPPC	DXXD	ZHHZ	JQQJ	YFFY	LWWL	küssen	genießen	träumen	vertrauen	gütig	sonnig	krank	gemein	töten	versagen	gierig	sterben	47pct	acq_USpleas_CSunple2_noRW	acq23456_noRW	2	77	0	0	300	300	812	50	0	1	1	blank2r.bmp	0	1	+	0	1	blank2r.bmp	252	1	JQQJ	306	1	vertrauen	559	0	0	0	0	0	0	0	0	0	0	0	0	0	0	0	0	0	0	0	0	0	0	0	0	0	0	0	0	0	0	0	0	0	0	0	0	0	0	0
071519	11:02:52	11:08:56	363420	5.0.10.0	5_exp_noRW	46	Rpleas_acq	CS_A	CPPC	DXXD	ZHHZ	JQQJ	YFFY	LWWL	küssen	genießen	träumen	vertrauen	gütig	sonnig	krank	gemein	töten	versagen	gierig	sterben	53pct	acq_USunple_CSpleas2_noRW	acq23456_noRW	2	78	0	0	300	300	503	46	0	1	1	blank2r.bmp	0	1	+	0	1	blank2r.bmp	252	1	DXXD	306	1	versagen	559	0	0	0	0	0	0	0	0	0	0	0	0	0	0	0	0	0	0	0	0	0	0	0	0	0	0	0	0	0	0	0	0	0	0	0	0	0	0	0
071519	11:02:52	11:08:58	365086	5.0.10.0	5_exp_noRW	46	Rpleas_acq	CS_A	CPPC	DXXD	ZHHZ	JQQJ	YFFY	LWWL	küssen	genießen	träumen	vertrauen	gütig	sonnig	krank	gemein	töten	versagen	gierig	sterben	53pct	acq_USunple_CSpleas1_noRW	acq23456_noRW	2	79	0	0	300	300	487	46	0	1	1	blank2r.bmp	0	1	+	0	1	blank2r.bmp	252	1	CPPC	306	1	krank	559	0	0	0	0	0	0	0	0	0	0	0	0	0	0	0	0	0	0	0	0	0	0	0	0	0	0	0	0	0	0	0	0	0	0	0	0	0	0	0
071519	11:02:52	11:08:59	366766	5.0.10.0	5_exp_noRW	46	Rpleas_acq	CS_A	CPPC	DXXD	ZHHZ	JQQJ	YFFY	LWWL	küssen	genießen	träumen	vertrauen	gütig	sonnig	krank	gemein	töten	versagen	gierig	sterben	53pct	acq_USunple_CSunple2_noRW	acq23456_noRW	2	80	0	0	300	300	511	46	0	1	1	blank2r.bmp	0	1	+	0	1	blank2r.bmp	252	1	JQQJ	306	3	sterben	559	0	0	0	0	0	0	0	0	0	0	0	0	0	0	0	0	0	0	0	0	0	0	0	0	0	0	0	0	0	0	0	0	0	0	0	0	0	0	0
071519	11:02:52	11:09:08	375655	5.0.10.0	5_exp_noRW	46	Rpleas_acq	CS_A	CPPC	DXXD	ZHHZ	JQQJ	YFFY	LWWL	küssen	genießen	träumen	vertrauen	gütig	sonnig	krank	gemein	töten	versagen	gierig	sterben	47pct	acq_USpleas_CSpleas1_noRW	acq23456_noRW	3	1	0	0	300	300	483	50	0	1	1	blank2r.bmp	0	1	+	0	1	blank2r.bmp	252	1	CPPC	306	1	küssen	559	0	0	0	0	0	0	0	0	0	0	0	0	0	0	0	0	0	0	0	0	0	0	0	0	0	0	0	0	0	0	0	0	0	0	0	0	0	0	0
071519	11:02:52	11:09:10	377255	5.0.10.0	5_exp_noRW	46	Rpleas_acq	CS_A	CPPC	DXXD	ZHHZ	JQQJ	YFFY	LWWL	küssen	genießen	träumen	vertrauen	gütig	sonnig	krank	gemein	töten	versagen	gierig	sterben	53pct	acq_USunple_CSpleas1_noRW	acq23456_noRW	3	2	0	0	300	300	416	46	0	1	1	blank2r.bmp	0	1	+	0	1	blank2r.bmp	252	1	CPPC	306	3	töten	559	0	0	0	0	0	0	0	0	0	0	0	0	0	0	0	0	0	0	0	0	0	0	0	0	0	0	0	0	0	0	0	0	0	0	0	0	0	0	0
071519	11:02:52	11:09:12	378907	5.0.10.0	5_exp_noRW	46	Rpleas_acq	CS_A	CPPC	DXXD	ZHHZ	JQQJ	YFFY	LWWL	küssen	genießen	träumen	vertrauen	gütig	sonnig	krank	gemein	töten	versagen	gierig	sterben	53pct	acq_USpleas_CSpleas1_noRW	acq23456_noRW	3	3	0	0	300	300	483	50	0	1	1	blank2r.bmp	0	1	+	0	1	blank2r.bmp	252	1	CPPC	306	3	träumen	559	0	0	0	0	0	0	0	0	0	0	0	0	0	0	0	0	0	0	0	0	0	0	0	0	0	0	0	0	0	0	0	0	0	0	0	0	0	0	0
071519	11:02:52	11:09:13	380480	5.0.10.0	5_exp_noRW	46	Rpleas_acq	CS_A	CPPC	DXXD	ZHHZ	JQQJ	YFFY	LWWL	küssen	genießen	träumen	vertrauen	gütig	sonnig	krank	gemein	töten	versagen	gierig	sterben	47pct	acq_USpleas_CSpleas2_noRW	acq23456_noRW	3	4	0	0	300	300	402	50	0	1	1	blank2r.bmp	0	1	+	0	1	blank2r.bmp	252	1	DXXD	306	3	sonnig	559	0	0	0	0	0	0	0	0	0	0	0	0	0	0	0	0	0	0	0	0	0	0	0	0	0	0	0	0	0	0	0	0	0	0	0	0	0	0	0
071519	11:02:52	11:09:15	382053	5.0.10.0	5_exp_noRW	46	Rpleas_acq	CS_A	CPPC	DXXD	ZHHZ	JQQJ	YFFY	LWWL	küssen	genießen	träumen	vertrauen	gütig	sonnig	krank	gemein	töten	versagen	gierig	sterben	47pct	acq_USpleas_CSunple2_noRW	acq23456_noRW	3	5	0	0	300	300	398	50	0	1	1	blank2r.bmp	0	1	+	0	1	blank2r.bmp	252	1	JQQJ	306	3	sonnig	559	0	0	0	0	0	0	0	0	0	0	0	0	0	0	0	0	0	0	0	0	0	0	0	0	0	0	0	0	0	0	0	0	0	0	0	0	0	0	0
071519	11:02:52	11:09:16	383612	5.0.10.0	5_exp_noRW	46	Rpleas_acq	CS_A	CPPC	DXXD	ZHHZ	JQQJ	YFFY	LWWL	küssen	genießen	träumen	vertrauen	gütig	sonnig	krank	gemein	töten	versagen	gierig	sterben	47pct	acq_USpleas_CSpleas1_noRW	acq23456_noRW	3	6	0	0	300	300	383	50	0	1	1	blank2r.bmp	0	1	+	0	1	blank2r.bmp	252	1	CPPC	306	2	genießen	559	0	0	0	0	0	0	0	0	0	0	0	0	0	0	0	0	0	0	0	0	0	0	0	0	0	0	0	0	0	0	0	0	0	0	0	0	0	0	0
071519	11:02:52	11:09:18	385171	5.0.10.0	5_exp_noRW	46	Rpleas_acq	CS_A	CPPC	DXXD	ZHHZ	JQQJ	YFFY	LWWL	küssen	genießen	träumen	vertrauen	gütig	sonnig	krank	gemein	töten	versagen	gierig	sterben	53pct	acq_USpleas_CSpleas2_noRW	acq23456_noRW	3	7	0	0	300	300	374	50	0	1	1	blank2r.bmp	0	1	+	0	1	blank2r.bmp	252	1	DXXD	306	1	vertrauen	559	0	0	0	0	0	0	0	0	0	0	0	0	0	0	0	0	0	0	0	0	0	0	0	0	0	0	0	0	0	0	0	0	0	0	0	0	0	0	0
071519	11:02:52	11:09:19	386704	5.0.10.0	5_exp_noRW	46	Rpleas_acq	CS_A	CPPC	DXXD	ZHHZ	JQQJ	YFFY	LWWL	küssen	genießen	träumen	vertrauen	gütig	sonnig	krank	gemein	töten	versagen	gierig	sterben	53pct	acq_USpleas_CSpleas2_noRW	acq23456_noRW	3	8	0	0	300	300	361	50	0	1	1	blank2r.bmp	0	1	+	0	1	blank2r.bmp	252	1	DXXD	306	2	gütig	559	0	0	0	0	0	0	0	0	0	0	0	0	0	0	0	0	0	0	0	0	0	0	0	0	0	0	0	0	0	0	0	0	0	0	0	0	0	0	0
071519	11:02:52	11:09:21	388370	5.0.10.0	5_exp_noRW	46	Rpleas_acq	CS_A	CPPC	DXXD	ZHHZ	JQQJ	YFFY	LWWL	küssen	genießen	träumen	vertrauen	gütig	sonnig	krank	gemein	töten	versagen	gierig	sterben	53pct	acq_USunple_CSunple2_noRW	acq23456_noRW	3	9	0	0	300	300	490	46	0	1	1	blank2r.bmp	0	1	+	0	1	blank2r.bmp	252	1	JQQJ	306	2	gierig	559	0	0	0	0	0	0	0	0	0	0	0	0	0	0	0	0	0	0	0	0	0	0	0	0	0	0	0	0	0	0	0	0	0	0	0	0	0	0	0
071519	11:02:52	11:09:23	389969	5.0.10.0	5_exp_noRW	46	Rpleas_acq	CS_A	CPPC	DXXD	ZHHZ	JQQJ	YFFY	LWWL	küssen	genießen	träumen	vertrauen	gütig	sonnig	krank	gemein	töten	versagen	gierig	sterben	53pct	acq_USunple_CSunple1_noRW	acq23456_noRW	3	10	0	0	300	300	422	46	0	1	1	blank2r.bmp	0	1	+	0	1	blank2r.bmp	252	1	ZHHZ	306	3	töten	559	0	0	0	0	0	0	0	0	0	0	0	0	0	0	0	0	0	0	0	0	0	0	0	0	0	0	0	0	0	0	0	0	0	0	0	0	0	0	0
071519	11:02:52	11:09:24	391662	5.0.10.0	5_exp_noRW	46	Rpleas_acq	CS_A	CPPC	DXXD	ZHHZ	JQQJ	YFFY	LWWL	küssen	genießen	träumen	vertrauen	gütig	sonnig	krank	gemein	töten	versagen	gierig	sterben	53pct	acq_USunple_CSunple2_noRW	acq23456_noRW	3	11	0	0	300	300	510	46	0	1	1	blank2r.bmp	0	1	+	0	1	blank2r.bmp	252	1	JQQJ	306	3	sterben	559	0	0	0	0	0	0	0	0	0	0	0	0	0	0	0	0	0	0	0	0	0	0	0	0	0	0	0	0	0	0	0	0	0	0	0	0	0	0	0
071519	11:02:52	11:09:26	393301	5.0.10.0	5_exp_noRW	46	Rpleas_acq	CS_A	CPPC	DXXD	ZHHZ	JQQJ	YFFY	LWWL	küssen	genießen	träumen	vertrauen	gütig	sonnig	krank	gemein	töten	versagen	gierig	sterben	47pct	acq_USunple_CSunple1_noRW	acq23456_noRW	3	12	0	0	300	300	461	46	0	1	1	blank2r.bmp	0	1	+	0	1	blank2r.bmp	252	1	ZHHZ	306	3	töten	559	0	0	0	0	0	0	0	0	0	0	0	0	0	0	0	0	0	0	0	0	0	0	0	0	0	0	0	0	0	0	0	0	0	0	0	0	0	0	0
071519	11:02:52	11:09:28	395074	5.0.10.0	5_exp_noRW	46	Rpleas_acq	CS_A	CPPC	DXXD	ZHHZ	JQQJ	YFFY	LWWL	küssen	genießen	träumen	vertrauen	gütig	sonnig	krank	gemein	töten	versagen	gierig	sterben	53pct	acq_USunple_CSunple1_noRW	acq23456_noRW	3	13	0	0	300	300	587	46	0	1	1	blank2r.bmp	0	1	+	0	1	blank2r.bmp	252	1	ZHHZ	306	2	gemein	559	0	0	0	0	0	0	0	0	0	0	0	0	0	0	0	0	0	0	0	0	0	0	0	0	0	0	0	0	0	0	0	0	0	0	0	0	0	0	0
071519	11:02:52	11:09:29	396767	5.0.10.0	5_exp_noRW	46	Rpleas_acq	CS_A	CPPC	DXXD	ZHHZ	JQQJ	YFFY	LWWL	küssen	genießen	träumen	vertrauen	gütig	sonnig	krank	gemein	töten	versagen	gierig	sterben	53pct	acq_USunple_CSunple2_noRW	acq23456_noRW	3	14	0	0	300	300	529	46	0	1	1	blank2r.bmp	0	1	+	0	1	blank2r.bmp	252	1	JQQJ	306	1	versagen	559	0	0	0	0	0	0	0	0	0	0	0	0	0	0	0	0	0	0	0	0	0	0	0	0	0	0	0	0	0	0	0	0	0	0	0	0	0	0	0
071519	11:02:52	11:09:32	399139	5.0.10.0	5_exp_noRW	46	Rpleas_acq	CS_A	CPPC	DXXD	ZHHZ	JQQJ	YFFY	LWWL	küssen	genießen	träumen	vertrauen	gütig	sonnig	krank	gemein	töten	versagen	gierig	sterben	53pct	acq_USpleas_CSunple1_noRW	acq23456_noRW	3	15	0	0	300	300	1186	50	0	1	1	blank2r.bmp	0	1	+	0	1	blank2r.bmp	252	1	ZHHZ	306	2	genießen	559	0	0	0	0	0	0	0	0	0	0	0	0	0	0	0	0	0	0	0	0	0	0	0	0	0	0	0	0	0	0	0	0	0	0	0	0	0	0	0
071519	11:02:52	11:09:33	400712	5.0.10.0	5_exp_noRW	46	Rpleas_acq	CS_A	CPPC	DXXD	ZHHZ	JQQJ	YFFY	LWWL	küssen	genießen	träumen	vertrauen	gütig	sonnig	krank	gemein	töten	versagen	gierig	sterben	53pct	acq_USunple_CSunple2_noRW	acq23456_noRW	3	16	0	0	300	300	393	46	0	1	1	blank2r.bmp	0	1	+	0	1	blank2r.bmp	252	1	JQQJ	306	2	gierig	559	0	0	0	0	0	0	0	0	0	0	0	0	0	0	0	0	0	0	0	0	0	0	0	0	0	0	0	0	0	0	0	0	0	0	0	0	0	0	0
071519	11:02:52	11:09:35	402671	5.0.10.0	5_exp_noRW	46	Rpleas_acq	CS_A	CPPC	DXXD	ZHHZ	JQQJ	YFFY	LWWL	küssen	genießen	träumen	vertrauen	gütig	sonnig	krank	gemein	töten	versagen	gierig	sterben	53pct	acq_USunple_CSpleas2_noRW	acq23456_noRW	3	17	0	0	300	300	781	46	0	1	1	blank2r.bmp	0	1	+	0	1	blank2r.bmp	252	1	DXXD	306	2	gierig	559	0	0	0	0	0	0	0	0	0	0	0	0	0	0	0	0	0	0	0	0	0	0	0	0	0	0	0	0	0	0	0	0	0	0	0	0	0	0	0
071519	11:02:52	11:09:37	404430	5.0.10.0	5_exp_noRW	46	Rpleas_acq	CS_A	CPPC	DXXD	ZHHZ	JQQJ	YFFY	LWWL	küssen	genießen	träumen	vertrauen	gütig	sonnig	krank	gemein	töten	versagen	gierig	sterben	47pct	acq_USpleas_CSpleas1_noRW	acq23456_noRW	3	18	0	0	300	300	574	50	0	1	1	blank2r.bmp	0	1	+	0	1	blank2r.bmp	252	1	CPPC	306	1	küssen	559	0	0	0	0	0	0	0	0	0	0	0	0	0	0	0	0	0	0	0	0	0	0	0	0	0	0	0	0	0	0	0	0	0	0	0	0	0	0	0
071519	11:02:52	11:09:39	406656	5.0.10.0	5_exp_noRW	46	Rpleas_acq	CS_A	CPPC	DXXD	ZHHZ	JQQJ	YFFY	LWWL	küssen	genießen	träumen	vertrauen	gütig	sonnig	krank	gemein	töten	versagen	gierig	sterben	53pct	acq_USunple_CSunple1_noRW	acq23456_noRW	3	19	0	0	300	300	841	50	0	0	1	blank2r.bmp	0	1	+	0	1	blank2r.bmp	252	1	ZHHZ	306	1	krank	559	1	FEHLER	1439	0	0	0	0	0	0	0	0	0	0	0	0	0	0	0	0	0	0	0	0	0	0	0	0	0	0	0	0	0	0	0	0	0	0	0	0
071519	11:02:52	11:09:41	408175	5.0.10.0	5_exp_noRW	46	Rpleas_acq	CS_A	CPPC	DXXD	ZHHZ	JQQJ	YFFY	LWWL	küssen	genießen	träumen	vertrauen	gütig	sonnig	krank	gemein	töten	versagen	gierig	sterben	53pct	acq_USpleas_CSpleas2_noRW	acq23456_noRW	3	20	0	0	300	300	560	50	0	1	1	blank2r.bmp	0	1	+	0	1	blank2r.bmp	252	1	DXXD	306	3	sonnig	559	0	0	0	0	0	0	0	0	0	0	0	0	0	0	0	0	0	0	0	0	0	0	0	0	0	0	0	0	0	0	0	0	0	0	0	0	0	0	0
071519	11:02:52	11:09:42	409788	5.0.10.0	5_exp_noRW	46	Rpleas_acq	CS_A	CPPC	DXXD	ZHHZ	JQQJ	YFFY	LWWL	küssen	genießen	träumen	vertrauen	gütig	sonnig	krank	gemein	töten	versagen	gierig	sterben	53pct	acq_USpleas_CSpleas1_noRW	acq23456_noRW	3	21	0	0	300	300	449	50	0	1	1	blank2r.bmp	0	1	+	0	1	blank2r.bmp	252	1	CPPC	306	2	genießen	559	0	0	0	0	0	0	0	0	0	0	0	0	0	0	0	0	0	0	0	0	0	0	0	0	0	0	0	0	0	0	0	0	0	0	0	0	0	0	0
071519	11:02:52	11:09:44	411454	5.0.10.0	5_exp_noRW	46	Rpleas_acq	CS_A	CPPC	DXXD	ZHHZ	JQQJ	YFFY	LWWL	küssen	genießen	träumen	vertrauen	gütig	sonnig	krank	gemein	töten	versagen	gierig	sterben	47pct	acq_USunple_CSunple2_noRW	acq23456_noRW	3	22	0	0	300	300	479	46	0	1	1	blank2r.bmp	0	1	+	0	1	blank2r.bmp	252	1	JQQJ	306	3	sterben	559	0	0	0	0	0	0	0	0	0	0	0	0	0	0	0	0	0	0	0	0	0	0	0	0	0	0	0	0	0	0	0	0	0	0	0	0	0	0	0
071519	11:02:52	11:09:46	413120	5.0.10.0	5_exp_noRW	46	Rpleas_acq	CS_A	CPPC	DXXD	ZHHZ	JQQJ	YFFY	LWWL	küssen	genießen	träumen	vertrauen	gütig	sonnig	krank	gemein	töten	versagen	gierig	sterben	47pct	acq_USunple_CSunple2_noRW	acq23456_noRW	3	23	0	0	300	300	504	46	0	1	1	blank2r.bmp	0	1	+	0	1	blank2r.bmp	252	1	JQQJ	306	1	versagen	559	0	0	0	0	0	0	0	0	0	0	0	0	0	0	0	0	0	0	0	0	0	0	0	0	0	0	0	0	0	0	0	0	0	0	0	0	0	0	0
071519	11:02:52	11:09:47	414679	5.0.10.0	5_exp_noRW	46	Rpleas_acq	CS_A	CPPC	DXXD	ZHHZ	JQQJ	YFFY	LWWL	küssen	genießen	träumen	vertrauen	gütig	sonnig	krank	gemein	töten	versagen	gierig	sterben	53pct	acq_USunple_CSunple1_noRW	acq23456_noRW	3	24	0	0	300	300	372	46	0	1	1	blank2r.bmp	0	1	+	0	1	blank2r.bmp	252	1	ZHHZ	306	1	krank	559	0	0	0	0	0	0	0	0	0	0	0	0	0	0	0	0	0	0	0	0	0	0	0	0	0	0	0	0	0	0	0	0	0	0	0	0	0	0	0
071519	11:02:52	11:09:49	416265	5.0.10.0	5_exp_noRW	46	Rpleas_acq	CS_A	CPPC	DXXD	ZHHZ	JQQJ	YFFY	LWWL	küssen	genießen	träumen	vertrauen	gütig	sonnig	krank	gemein	töten	versagen	gierig	sterben	53pct	acq_USunple_CSpleas2_noRW	acq23456_noRW	3	25	0	0	300	300	415	46	0	1	1	blank2r.bmp	0	1	+	0	1	blank2r.bmp	252	1	DXXD	306	1	versagen	559	0	0	0	0	0	0	0	0	0	0	0	0	0	0	0	0	0	0	0	0	0	0	0	0	0	0	0	0	0	0	0	0	0	0	0	0	0	0	0
071519	11:02:52	11:09:51	417904	5.0.10.0	5_exp_noRW	46	Rpleas_acq	CS_A	CPPC	DXXD	ZHHZ	JQQJ	YFFY	LWWL	küssen	genießen	träumen	vertrauen	gütig	sonnig	krank	gemein	töten	versagen	gierig	sterben	53pct	acq_USpleas_CSpleas2_noRW	acq23456_noRW	3	26	0	0	300	300	456	50	0	1	1	blank2r.bmp	0	1	+	0	1	blank2r.bmp	252	1	DXXD	306	1	vertrauen	559	0	0	0	0	0	0	0	0	0	0	0	0	0	0	0	0	0	0	0	0	0	0	0	0	0	0	0	0	0	0	0	0	0	0	0	0	0	0	0
071519	11:02:52	11:09:52	419517	5.0.10.0	5_exp_noRW	46	Rpleas_acq	CS_A	CPPC	DXXD	ZHHZ	JQQJ	YFFY	LWWL	küssen	genießen	träumen	vertrauen	gütig	sonnig	krank	gemein	töten	versagen	gierig	sterben	47pct	acq_USpleas_CSpleas2_noRW	acq23456_noRW	3	27	0	0	300	300	437	50	0	1	1	blank2r.bmp	0	1	+	0	1	blank2r.bmp	252	1	DXXD	306	2	gütig	559	0	0	0	0	0	0	0	0	0	0	0	0	0	0	0	0	0	0	0	0	0	0	0	0	0	0	0	0	0	0	0	0	0	0	0	0	0	0	0
071519	11:02:52	11:09:54	421143	5.0.10.0	5_exp_noRW	46	Rpleas_acq	CS_A	CPPC	DXXD	ZHHZ	JQQJ	YFFY	LWWL	küssen	genießen	träumen	vertrauen	gütig	sonnig	krank	gemein	töten	versagen	gierig	sterben	47pct	acq_USpleas_CSunple2_noRW	acq23456_noRW	3	28	0	0	300	300	451	50	0	1	1	blank2r.bmp	0	1	+	0	1	blank2r.bmp	252	1	JQQJ	306	3	sonnig	559	0	0	0	0	0	0	0	0	0	0	0	0	0	0	0	0	0	0	0	0	0	0	0	0	0	0	0	0	0	0	0	0	0	0	0	0	0	0	0
071519	11:02:52	11:09:55	422689	5.0.10.0	5_exp_noRW	46	Rpleas_acq	CS_A	CPPC	DXXD	ZHHZ	JQQJ	YFFY	LWWL	küssen	genießen	träumen	vertrauen	gütig	sonnig	krank	gemein	töten	versagen	gierig	sterben	47pct	acq_USunple_CSpleas1_noRW	acq23456_noRW	3	29	0	0	300	300	367	46	0	1	1	blank2r.bmp	0	1	+	0	1	blank2r.bmp	252	1	CPPC	306	3	töten	559	0	0	0	0	0	0	0	0	0	0	0	0	0	0	0	0	0	0	0	0	0	0	0	0	0	0	0	0	0	0	0	0	0	0	0	0	0	0	0
071519	11:02:52	11:09:57	424288	5.0.10.0	5_exp_noRW	46	Rpleas_acq	CS_A	CPPC	DXXD	ZHHZ	JQQJ	YFFY	LWWL	küssen	genießen	träumen	vertrauen	gütig	sonnig	krank	gemein	töten	versagen	gierig	sterben	53pct	acq_USunple_CSunple1_noRW	acq23456_noRW	3	30	0	0	300	300	419	46	0	1	1	blank2r.bmp	0	1	+	0	1	blank2r.bmp	252	1	ZHHZ	306	3	töten	559	0	0	0	0	0	0	0	0	0	0	0	0	0	0	0	0	0	0	0	0	0	0	0	0	0	0	0	0	0	0	0	0	0	0	0	0	0	0	0
071519	11:02:52	11:09:59	425981	5.0.10.0	5_exp_noRW	46	Rpleas_acq	CS_A	CPPC	DXXD	ZHHZ	JQQJ	YFFY	LWWL	küssen	genießen	träumen	vertrauen	gütig	sonnig	krank	gemein	töten	versagen	gierig	sterben	53pct	acq_USunple_CSunple1_noRW	acq23456_noRW	3	31	0	0	300	300	521	46	0	1	1	blank2r.bmp	0	1	+	0	1	blank2r.bmp	252	1	ZHHZ	306	2	gemein	559	0	0	0	0	0	0	0	0	0	0	0	0	0	0	0	0	0	0	0	0	0	0	0	0	0	0	0	0	0	0	0	0	0	0	0	0	0	0	0
071519	11:02:52	11:10:00	427567	5.0.10.0	5_exp_noRW	46	Rpleas_acq	CS_A	CPPC	DXXD	ZHHZ	JQQJ	YFFY	LWWL	küssen	genießen	träumen	vertrauen	gütig	sonnig	krank	gemein	töten	versagen	gierig	sterben	47pct	acq_USunple_CSunple2_noRW	acq23456_noRW	3	32	0	0	300	300	422	46	0	1	1	blank2r.bmp	0	1	+	0	1	blank2r.bmp	252	1	JQQJ	306	2	gierig	559	0	0	0	0	0	0	0	0	0	0	0	0	0	0	0	0	0	0	0	0	0	0	0	0	0	0	0	0	0	0	0	0	0	0	0	0	0	0	0
071519	11:02:52	11:10:02	429193	5.0.10.0	5_exp_noRW	46	Rpleas_acq	CS_A	CPPC	DXXD	ZHHZ	JQQJ	YFFY	LWWL	küssen	genießen	träumen	vertrauen	gütig	sonnig	krank	gemein	töten	versagen	gierig	sterben	53pct	acq_USpleas_CSpleas1_noRW	acq23456_noRW	3	33	0	0	300	300	438	50	0	1	1	blank2r.bmp	0	1	+	0	1	blank2r.bmp	252	1	CPPC	306	1	küssen	559	0	0	0	0	0	0	0	0	0	0	0	0	0	0	0	0	0	0	0	0	0	0	0	0	0	0	0	0	0	0	0	0	0	0	0	0	0	0	0
071519	11:02:52	11:10:03	430766	5.0.10.0	5_exp_noRW	46	Rpleas_acq	CS_A	CPPC	DXXD	ZHHZ	JQQJ	YFFY	LWWL	küssen	genießen	träumen	vertrauen	gütig	sonnig	krank	gemein	töten	versagen	gierig	sterben	47pct	acq_USunple_CSunple1_noRW	acq23456_noRW	3	34	0	0	300	300	399	46	0	1	1	blank2r.bmp	0	1	+	0	1	blank2r.bmp	252	1	ZHHZ	306	3	töten	559	0	0	0	0	0	0	0	0	0	0	0	0	0	0	0	0	0	0	0	0	0	0	0	0	0	0	0	0	0	0	0	0	0	0	0	0	0	0	0
071519	11:02:52	11:10:05	432418	5.0.10.0	5_exp_noRW	46	Rpleas_acq	CS_A	CPPC	DXXD	ZHHZ	JQQJ	YFFY	LWWL	küssen	genießen	träumen	vertrauen	gütig	sonnig	krank	gemein	töten	versagen	gierig	sterben	47pct	acq_USpleas_CSpleas2_noRW	acq23456_noRW	3	35	0	0	300	300	481	50	0	1	1	blank2r.bmp	0	1	+	0	1	blank2r.bmp	252	1	DXXD	306	3	sonnig	559	0	0	0	0	0	0	0	0	0	0	0	0	0	0	0	0	0	0	0	0	0	0	0	0	0	0	0	0	0	0	0	0	0	0	0	0	0	0	0
071519	11:02:52	11:10:07	434164	5.0.10.0	5_exp_noRW	46	Rpleas_acq	CS_A	CPPC	DXXD	ZHHZ	JQQJ	YFFY	LWWL	küssen	genießen	träumen	vertrauen	gütig	sonnig	krank	gemein	töten	versagen	gierig	sterben	47pct	acq_USunple_CSunple2_noRW	acq23456_noRW	3	36	0	0	300	300	572	46	0	1	1	blank2r.bmp	0	1	+	0	1	blank2r.bmp	252	1	JQQJ	306	3	sterben	559	0	0	0	0	0	0	0	0	0	0	0	0	0	0	0	0	0	0	0	0	0	0	0	0	0	0	0	0	0	0	0	0	0	0	0	0	0	0	0
071519	11:02:52	11:10:08	435817	5.0.10.0	5_exp_noRW	46	Rpleas_acq	CS_A	CPPC	DXXD	ZHHZ	JQQJ	YFFY	LWWL	küssen	genießen	träumen	vertrauen	gütig	sonnig	krank	gemein	töten	versagen	gierig	sterben	47pct	acq_USpleas_CSunple1_noRW	acq23456_noRW	3	37	0	0	300	300	478	50	0	1	1	blank2r.bmp	0	1	+	0	1	blank2r.bmp	252	1	ZHHZ	306	2	genießen	559	0	0	0	0	0	0	0	0	0	0	0	0	0	0	0	0	0	0	0	0	0	0	0	0	0	0	0	0	0	0	0	0	0	0	0	0	0	0	0
071519	11:02:52	11:10:10	437483	5.0.10.0	5_exp_noRW	46	Rpleas_acq	CS_A	CPPC	DXXD	ZHHZ	JQQJ	YFFY	LWWL	küssen	genießen	träumen	vertrauen	gütig	sonnig	krank	gemein	töten	versagen	gierig	sterben	53pct	acq_USpleas_CSpleas2_noRW	acq23456_noRW	3	38	0	0	300	300	492	50	0	1	1	blank2r.bmp	0	1	+	0	1	blank2r.bmp	252	1	DXXD	306	2	gütig	559	0	0	0	0	0	0	0	0	0	0	0	0	0	0	0	0	0	0	0	0	0	0	0	0	0	0	0	0	0	0	0	0	0	0	0	0	0	0	0
071519	11:02:52	11:10:12	439215	5.0.10.0	5_exp_noRW	46	Rpleas_acq	CS_A	CPPC	DXXD	ZHHZ	JQQJ	YFFY	LWWL	küssen	genießen	träumen	vertrauen	gütig	sonnig	krank	gemein	töten	versagen	gierig	sterben	53pct	acq_USpleas_CSpleas1_noRW	acq23456_noRW	3	39	0	0	300	300	546	50	0	1	1	blank2r.bmp	0	1	+	0	1	blank2r.bmp	252	1	CPPC	306	3	träumen	559	0	0	0	0	0	0	0	0	0	0	0	0	0	0	0	0	0	0	0	0	0	0	0	0	0	0	0	0	0	0	0	0	0	0	0	0	0	0	0
071519	11:02:52	11:10:14	440961	5.0.10.0	5_exp_noRW	46	Rpleas_acq	CS_A	CPPC	DXXD	ZHHZ	JQQJ	YFFY	LWWL	küssen	genießen	träumen	vertrauen	gütig	sonnig	krank	gemein	töten	versagen	gierig	sterben	53pct	acq_USpleas_CSpleas1_noRW	acq23456_noRW	3	40	0	0	300	300	578	50	0	1	1	blank2r.bmp	0	1	+	0	1	blank2r.bmp	252	1	CPPC	306	2	genießen	559	0	0	0	0	0	0	0	0	0	0	0	0	0	0	0	0	0	0	0	0	0	0	0	0	0	0	0	0	0	0	0	0	0	0	0	0	0	0	0
071519	11:02:52	11:10:15	442814	5.0.10.0	5_exp_noRW	46	Rpleas_acq	CS_A	CPPC	DXXD	ZHHZ	JQQJ	YFFY	LWWL	küssen	genießen	träumen	vertrauen	gütig	sonnig	krank	gemein	töten	versagen	gierig	sterben	53pct	acq_USpleas_CSpleas2_noRW	acq23456_noRW	3	41	0	0	300	300	677	50	0	1	1	blank2r.bmp	0	1	+	0	1	blank2r.bmp	252	1	DXXD	306	3	sonnig	559	0	0	0	0	0	0	0	0	0	0	0	0	0	0	0	0	0	0	0	0	0	0	0	0	0	0	0	0	0	0	0	0	0	0	0	0	0	0	0
071519	11:02:52	11:10:17	444666	5.0.10.0	5_exp_noRW	46	Rpleas_acq	CS_A	CPPC	DXXD	ZHHZ	JQQJ	YFFY	LWWL	küssen	genießen	träumen	vertrauen	gütig	sonnig	krank	gemein	töten	versagen	gierig	sterben	47pct	acq_USunple_CSunple2_noRW	acq23456_noRW	3	42	0	0	300	300	669	46	0	1	1	blank2r.bmp	0	1	+	0	1	blank2r.bmp	252	1	JQQJ	306	1	versagen	559	0	0	0	0	0	0	0	0	0	0	0	0	0	0	0	0	0	0	0	0	0	0	0	0	0	0	0	0	0	0	0	0	0	0	0	0	0	0	0
071519	11:02:52	11:10:19	446332	5.0.10.0	5_exp_noRW	46	Rpleas_acq	CS_A	CPPC	DXXD	ZHHZ	JQQJ	YFFY	LWWL	küssen	genießen	träumen	vertrauen	gütig	sonnig	krank	gemein	töten	versagen	gierig	sterben	53pct	acq_USunple_CSunple1_noRW	acq23456_noRW	3	43	0	0	300	300	499	46	0	1	1	blank2r.bmp	0	1	+	0	1	blank2r.bmp	252	1	ZHHZ	306	2	gemein	559	0	0	0	0	0	0	0	0	0	0	0	0	0	0	0	0	0	0	0	0	0	0	0	0	0	0	0	0	0	0	0	0	0	0	0	0	0	0	0
071519	11:02:52	11:10:21	448092	5.0.10.0	5_exp_noRW	46	Rpleas_acq	CS_A	CPPC	DXXD	ZHHZ	JQQJ	YFFY	LWWL	küssen	genießen	träumen	vertrauen	gütig	sonnig	krank	gemein	töten	versagen	gierig	sterben	53pct	acq_USunple_CSunple2_noRW	acq23456_noRW	3	44	0	0	300	300	590	46	0	1	1	blank2r.bmp	0	1	+	0	1	blank2r.bmp	252	1	JQQJ	306	2	gierig	559	0	0	0	0	0	0	0	0	0	0	0	0	0	0	0	0	0	0	0	0	0	0	0	0	0	0	0	0	0	0	0	0	0	0	0	0	0	0	0
071519	11:02:52	11:10:22	449718	5.0.10.0	5_exp_noRW	46	Rpleas_acq	CS_A	CPPC	DXXD	ZHHZ	JQQJ	YFFY	LWWL	küssen	genießen	träumen	vertrauen	gütig	sonnig	krank	gemein	töten	versagen	gierig	sterben	47pct	acq_USunple_CSunple2_noRW	acq23456_noRW	3	45	0	0	300	300	461	46	0	1	1	blank2r.bmp	0	1	+	0	1	blank2r.bmp	252	1	JQQJ	306	1	versagen	559	0	0	0	0	0	0	0	0	0	0	0	0	0	0	0	0	0	0	0	0	0	0	0	0	0	0	0	0	0	0	0	0	0	0	0	0	0	0	0
071519	11:02:52	11:10:24	451437	5.0.10.0	5_exp_noRW	46	Rpleas_acq	CS_A	CPPC	DXXD	ZHHZ	JQQJ	YFFY	LWWL	küssen	genießen	träumen	vertrauen	gütig	sonnig	krank	gemein	töten	versagen	gierig	sterben	47pct	acq_USpleas_CSpleas2_noRW	acq23456_noRW	3	46	0	0	300	300	557	50	0	1	1	blank2r.bmp	0	1	+	0	1	blank2r.bmp	252	1	DXXD	306	1	vertrauen	559	0	0	0	0	0	0	0	0	0	0	0	0	0	0	0	0	0	0	0	0	0	0	0	0	0	0	0	0	0	0	0	0	0	0	0	0	0	0	0
071519	11:02:52	11:10:26	453023	5.0.10.0	5_exp_noRW	46	Rpleas_acq	CS_A	CPPC	DXXD	ZHHZ	JQQJ	YFFY	LWWL	küssen	genießen	träumen	vertrauen	gütig	sonnig	krank	gemein	töten	versagen	gierig	sterben	47pct	acq_USpleas_CSpleas2_noRW	acq23456_noRW	3	47	0	0	300	300	410	50	0	1	1	blank2r.bmp	0	1	+	0	1	blank2r.bmp	252	1	DXXD	306	3	sonnig	559	0	0	0	0	0	0	0	0	0	0	0	0	0	0	0	0	0	0	0	0	0	0	0	0	0	0	0	0	0	0	0	0	0	0	0	0	0	0	0
071519	11:02:52	11:10:27	454622	5.0.10.0	5_exp_noRW	46	Rpleas_acq	CS_A	CPPC	DXXD	ZHHZ	JQQJ	YFFY	LWWL	küssen	genießen	träumen	vertrauen	gütig	sonnig	krank	gemein	töten	versagen	gierig	sterben	47pct	acq_USunple_CSunple1_noRW	acq23456_noRW	3	48	0	0	300	300	429	46	0	1	1	blank2r.bmp	0	1	+	0	1	blank2r.bmp	252	1	ZHHZ	306	1	krank	559	0	0	0	0	0	0	0	0	0	0	0	0	0	0	0	0	0	0	0	0	0	0	0	0	0	0	0	0	0	0	0	0	0	0	0	0	0	0	0
071519	11:02:52	11:10:29	456315	5.0.10.0	5_exp_noRW	46	Rpleas_acq	CS_A	CPPC	DXXD	ZHHZ	JQQJ	YFFY	LWWL	küssen	genießen	träumen	vertrauen	gütig	sonnig	krank	gemein	töten	versagen	gierig	sterben	53pct	acq_USunple_CSunple1_noRW	acq23456_noRW	3	49	0	0	300	300	510	46	0	1	1	blank2r.bmp	0	1	+	0	1	blank2r.bmp	252	1	ZHHZ	306	3	töten	559	0	0	0	0	0	0	0	0	0	0	0	0	0	0	0	0	0	0	0	0	0	0	0	0	0	0	0	0	0	0	0	0	0	0	0	0	0	0	0
071519	11:02:52	11:10:31	458141	5.0.10.0	5_exp_noRW	46	Rpleas_acq	CS_A	CPPC	DXXD	ZHHZ	JQQJ	YFFY	LWWL	küssen	genießen	träumen	vertrauen	gütig	sonnig	krank	gemein	töten	versagen	gierig	sterben	53pct	acq_USpleas_CSunple2_noRW	acq23456_noRW	3	50	0	0	300	300	651	50	0	1	1	blank2r.bmp	0	1	+	0	1	blank2r.bmp	252	1	JQQJ	306	2	gütig	559	0	0	0	0	0	0	0	0	0	0	0	0	0	0	0	0	0	0	0	0	0	0	0	0	0	0	0	0	0	0	0	0	0	0	0	0	0	0	0
071519	11:02:52	11:10:33	459940	5.0.10.0	5_exp_noRW	46	Rpleas_acq	CS_A	CPPC	DXXD	ZHHZ	JQQJ	YFFY	LWWL	küssen	genießen	träumen	vertrauen	gütig	sonnig	krank	gemein	töten	versagen	gierig	sterben	47pct	acq_USpleas_CSpleas2_noRW	acq23456_noRW	3	51	0	0	300	300	635	50	0	1	1	blank2r.bmp	0	1	+	0	1	blank2r.bmp	252	1	DXXD	306	1	vertrauen	559	0	0	0	0	0	0	0	0	0	0	0	0	0	0	0	0	0	0	0	0	0	0	0	0	0	0	0	0	0	0	0	0	0	0	0	0	0	0	0
071519	11:02:52	11:10:34	461579	5.0.10.0	5_exp_noRW	46	Rpleas_acq	CS_A	CPPC	DXXD	ZHHZ	JQQJ	YFFY	LWWL	küssen	genießen	träumen	vertrauen	gütig	sonnig	krank	gemein	töten	versagen	gierig	sterben	53pct	acq_USunple_CSpleas1_noRW	acq23456_noRW	3	52	0	0	300	300	456	46	0	1	1	blank2r.bmp	0	1	+	0	1	blank2r.bmp	252	1	CPPC	306	2	gemein	559	0	0	0	0	0	0	0	0	0	0	0	0	0	0	0	0	0	0	0	0	0	0	0	0	0	0	0	0	0	0	0	0	0	0	0	0	0	0	0
071519	11:02:52	11:10:36	463272	5.0.10.0	5_exp_noRW	46	Rpleas_acq	CS_A	CPPC	DXXD	ZHHZ	JQQJ	YFFY	LWWL	küssen	genießen	träumen	vertrauen	gütig	sonnig	krank	gemein	töten	versagen	gierig	sterben	53pct	acq_USpleas_CSpleas1_noRW	acq23456_noRW	3	53	0	0	300	300	512	50	0	1	1	blank2r.bmp	0	1	+	0	1	blank2r.bmp	252	1	CPPC	306	1	küssen	559	0	0	0	0	0	0	0	0	0	0	0	0	0	0	0	0	0	0	0	0	0	0	0	0	0	0	0	0	0	0	0	0	0	0	0	0	0	0	0
071519	11:02:52	11:10:38	464965	5.0.10.0	5_exp_noRW	46	Rpleas_acq	CS_A	CPPC	DXXD	ZHHZ	JQQJ	YFFY	LWWL	küssen	genießen	träumen	vertrauen	gütig	sonnig	krank	gemein	töten	versagen	gierig	sterben	47pct	acq_USunple_CSunple1_noRW	acq23456_noRW	3	54	0	0	300	300	520	46	0	1	1	blank2r.bmp	0	1	+	0	1	blank2r.bmp	252	1	ZHHZ	306	2	gemein	559	0	0	0	0	0	0	0	0	0	0	0	0	0	0	0	0	0	0	0	0	0	0	0	0	0	0	0	0	0	0	0	0	0	0	0	0	0	0	0
071519	11:02:52	11:10:39	466657	5.0.10.0	5_exp_noRW	46	Rpleas_acq	CS_A	CPPC	DXXD	ZHHZ	JQQJ	YFFY	LWWL	küssen	genießen	träumen	vertrauen	gütig	sonnig	krank	gemein	töten	versagen	gierig	sterben	53pct	acq_USunple_CSunple2_noRW	acq23456_noRW	3	55	0	0	300	300	526	46	0	1	1	blank2r.bmp	0	1	+	0	1	blank2r.bmp	252	1	JQQJ	306	2	gierig	559	0	0	0	0	0	0	0	0	0	0	0	0	0	0	0	0	0	0	0	0	0	0	0	0	0	0	0	0	0	0	0	0	0	0	0	0	0	0	0
071519	11:02:52	11:10:41	468243	5.0.10.0	5_exp_noRW	46	Rpleas_acq	CS_A	CPPC	DXXD	ZHHZ	JQQJ	YFFY	LWWL	küssen	genießen	träumen	vertrauen	gütig	sonnig	krank	gemein	töten	versagen	gierig	sterben	53pct	acq_USpleas_CSpleas1_noRW	acq23456_noRW	3	56	0	0	300	300	420	50	0	1	1	blank2r.bmp	0	1	+	0	1	blank2r.bmp	252	1	CPPC	306	3	träumen	559	0	0	0	0	0	0	0	0	0	0	0	0	0	0	0	0	0	0	0	0	0	0	0	0	0	0	0	0	0	0	0	0	0	0	0	0	0	0	0
071519	11:02:52	11:10:42	469856	5.0.10.0	5_exp_noRW	46	Rpleas_acq	CS_A	CPPC	DXXD	ZHHZ	JQQJ	YFFY	LWWL	küssen	genießen	träumen	vertrauen	gütig	sonnig	krank	gemein	töten	versagen	gierig	sterben	53pct	acq_USpleas_CSpleas1_noRW	acq23456_noRW	3	57	0	0	300	300	429	50	0	1	1	blank2r.bmp	0	1	+	0	1	blank2r.bmp	252	1	CPPC	306	2	genießen	559	0	0	0	0	0	0	0	0	0	0	0	0	0	0	0	0	0	0	0	0	0	0	0	0	0	0	0	0	0	0	0	0	0	0	0	0	0	0	0
071519	11:02:52	11:10:44	471495	5.0.10.0	5_exp_noRW	46	Rpleas_acq	CS_A	CPPC	DXXD	ZHHZ	JQQJ	YFFY	LWWL	küssen	genießen	träumen	vertrauen	gütig	sonnig	krank	gemein	töten	versagen	gierig	sterben	47pct	acq_USpleas_CSunple1_noRW	acq23456_noRW	3	58	0	0	300	300	475	50	0	1	1	blank2r.bmp	0	1	+	0	1	blank2r.bmp	252	1	ZHHZ	306	1	küssen	559	0	0	0	0	0	0	0	0	0	0	0	0	0	0	0	0	0	0	0	0	0	0	0	0	0	0	0	0	0	0	0	0	0	0	0	0	0	0	0
071519	11:02:52	11:10:46	473055	5.0.10.0	5_exp_noRW	46	Rpleas_acq	CS_A	CPPC	DXXD	ZHHZ	JQQJ	YFFY	LWWL	küssen	genießen	träumen	vertrauen	gütig	sonnig	krank	gemein	töten	versagen	gierig	sterben	47pct	acq_USpleas_CSpleas1_noRW	acq23456_noRW	3	59	0	0	300	300	376	50	0	1	1	blank2r.bmp	0	1	+	0	1	blank2r.bmp	252	1	CPPC	306	1	küssen	559	0	0	0	0	0	0	0	0	0	0	0	0	0	0	0	0	0	0	0	0	0	0	0	0	0	0	0	0	0	0	0	0	0	0	0	0	0	0	0
071519	11:02:52	11:10:47	474681	5.0.10.0	5_exp_noRW	46	Rpleas_acq	CS_A	CPPC	DXXD	ZHHZ	JQQJ	YFFY	LWWL	küssen	genießen	träumen	vertrauen	gütig	sonnig	krank	gemein	töten	versagen	gierig	sterben	53pct	acq_USunple_CSpleas2_noRW	acq23456_noRW	3	60	0	0	300	300	464	46	0	1	1	blank2r.bmp	0	1	+	0	1	blank2r.bmp	252	1	DXXD	306	3	sterben	559	0	0	0	0	0	0	0	0	0	0	0	0	0	0	0	0	0	0	0	0	0	0	0	0	0	0	0	0	0	0	0	0	0	0	0	0	0	0	0
071519	11:02:52	11:10:49	476293	5.0.10.0	5_exp_noRW	46	Rpleas_acq	CS_A	CPPC	DXXD	ZHHZ	JQQJ	YFFY	LWWL	küssen	genießen	träumen	vertrauen	gütig	sonnig	krank	gemein	töten	versagen	gierig	sterben	47pct	acq_USunple_CSunple1_noRW	acq23456_noRW	3	61	0	0	300	300	429	46	0	1	1	blank2r.bmp	0	1	+	0	1	blank2r.bmp	252	1	ZHHZ	306	1	krank	559	0	0	0	0	0	0	0	0	0	0	0	0	0	0	0	0	0	0	0	0	0	0	0	0	0	0	0	0	0	0	0	0	0	0	0	0	0	0	0
071519	11:02:52	11:10:51	477893	5.0.10.0	5_exp_noRW	46	Rpleas_acq	CS_A	CPPC	DXXD	ZHHZ	JQQJ	YFFY	LWWL	küssen	genießen	träumen	vertrauen	gütig	sonnig	krank	gemein	töten	versagen	gierig	sterben	47pct	acq_USpleas_CSunple1_noRW	acq23456_noRW	3	62	0	0	300	300	413	50	0	1	1	blank2r.bmp	0	1	+	0	1	blank2r.bmp	252	1	ZHHZ	306	3	träumen	559	0	0	0	0	0	0	0	0	0	0	0	0	0	0	0	0	0	0	0	0	0	0	0	0	0	0	0	0	0	0	0	0	0	0	0	0	0	0	0
071519	11:02:52	11:10:52	479439	5.0.10.0	5_exp_noRW	46	Rpleas_acq	CS_A	CPPC	DXXD	ZHHZ	JQQJ	YFFY	LWWL	küssen	genießen	träumen	vertrauen	gütig	sonnig	krank	gemein	töten	versagen	gierig	sterben	47pct	acq_USunple_CSunple1_noRW	acq23456_noRW	3	63	0	0	300	300	373	46	0	1	1	blank2r.bmp	0	1	+	0	1	blank2r.bmp	252	1	ZHHZ	306	3	töten	559	0	0	0	0	0	0	0	0	0	0	0	0	0	0	0	0	0	0	0	0	0	0	0	0	0	0	0	0	0	0	0	0	0	0	0	0	0	0	0
071519	11:02:52	11:10:54	481038	5.0.10.0	5_exp_noRW	46	Rpleas_acq	CS_A	CPPC	DXXD	ZHHZ	JQQJ	YFFY	LWWL	küssen	genießen	träumen	vertrauen	gütig	sonnig	krank	gemein	töten	versagen	gierig	sterben	53pct	acq_USpleas_CSpleas2_noRW	acq23456_noRW	3	64	0	0	300	300	435	50	0	1	1	blank2r.bmp	0	1	+	0	1	blank2r.bmp	252	1	DXXD	306	2	gütig	559	0	0	0	0	0	0	0	0	0	0	0	0	0	0	0	0	0	0	0	0	0	0	0	0	0	0	0	0	0	0	0	0	0	0	0	0	0	0	0
071519	11:02:52	11:10:56	482970	5.0.10.0	5_exp_noRW	46	Rpleas_acq	CS_A	CPPC	DXXD	ZHHZ	JQQJ	YFFY	LWWL	küssen	genießen	träumen	vertrauen	gütig	sonnig	krank	gemein	töten	versagen	gierig	sterben	47pct	acq_USpleas_CSpleas2_noRW	acq23456_noRW	3	65	0	0	300	300	532	46	0	0	1	blank2r.bmp	0	1	+	0	1	blank2r.bmp	252	1	DXXD	306	3	sonnig	559	1	FEHLER	1132	0	0	0	0	0	0	0	0	0	0	0	0	0	0	0	0	0	0	0	0	0	0	0	0	0	0	0	0	0	0	0	0	0	0	0	0
071519	11:02:52	11:10:57	484436	5.0.10.0	5_exp_noRW	46	Rpleas_acq	CS_A	CPPC	DXXD	ZHHZ	JQQJ	YFFY	LWWL	küssen	genießen	träumen	vertrauen	gütig	sonnig	krank	gemein	töten	versagen	gierig	sterben	47pct	acq_USpleas_CSpleas1_noRW	acq23456_noRW	3	66	0	0	300	300	516	50	0	1	1	blank2r.bmp	0	1	+	0	1	blank2r.bmp	252	1	CPPC	306	3	träumen	559	0	0	0	0	0	0	0	0	0	0	0	0	0	0	0	0	0	0	0	0	0	0	0	0	0	0	0	0	0	0	0	0	0	0	0	0	0	0	0
071519	11:02:52	11:10:59	486022	5.0.10.0	5_exp_noRW	46	Rpleas_acq	CS_A	CPPC	DXXD	ZHHZ	JQQJ	YFFY	LWWL	küssen	genießen	träumen	vertrauen	gütig	sonnig	krank	gemein	töten	versagen	gierig	sterben	53pct	acq_USunple_CSpleas2_noRW	acq23456_noRW	3	67	0	0	300	300	407	46	0	1	1	blank2r.bmp	0	1	+	0	1	blank2r.bmp	252	1	DXXD	306	2	gierig	559	0	0	0	0	0	0	0	0	0	0	0	0	0	0	0	0	0	0	0	0	0	0	0	0	0	0	0	0	0	0	0	0	0	0	0	0	0	0	0
071519	11:02:52	11:11:00	487648	5.0.10.0	5_exp_noRW	46	Rpleas_acq	CS_A	CPPC	DXXD	ZHHZ	JQQJ	YFFY	LWWL	küssen	genießen	träumen	vertrauen	gütig	sonnig	krank	gemein	töten	versagen	gierig	sterben	47pct	acq_USunple_CSunple1_noRW	acq23456_noRW	3	68	0	0	300	300	442	46	0	1	1	blank2r.bmp	0	1	+	0	1	blank2r.bmp	252	1	ZHHZ	306	1	krank	559	0	0	0	0	0	0	0	0	0	0	0	0	0	0	0	0	0	0	0	0	0	0	0	0	0	0	0	0	0	0	0	0	0	0	0	0	0	0	0
071519	11:02:52	11:11:02	489341	5.0.10.0	5_exp_noRW	46	Rpleas_acq	CS_A	CPPC	DXXD	ZHHZ	JQQJ	YFFY	LWWL	küssen	genießen	träumen	vertrauen	gütig	sonnig	krank	gemein	töten	versagen	gierig	sterben	53pct	acq_USunple_CSunple2_noRW	acq23456_noRW	3	69	0	0	300	300	514	46	0	1	1	blank2r.bmp	0	1	+	0	1	blank2r.bmp	252	1	JQQJ	306	3	sterben	559	0	0	0	0	0	0	0	0	0	0	0	0	0	0	0	0	0	0	0	0	0	0	0	0	0	0	0	0	0	0	0	0	0	0	0	0	0	0	0
071519	11:02:52	11:11:04	490940	5.0.10.0	5_exp_noRW	46	Rpleas_acq	CS_A	CPPC	DXXD	ZHHZ	JQQJ	YFFY	LWWL	küssen	genießen	träumen	vertrauen	gütig	sonnig	krank	gemein	töten	versagen	gierig	sterben	47pct	acq_USpleas_CSpleas2_noRW	acq23456_noRW	3	70	0	0	300	300	433	50	0	1	1	blank2r.bmp	0	1	+	0	1	blank2r.bmp	252	1	DXXD	306	1	vertrauen	559	0	0	0	0	0	0	0	0	0	0	0	0	0	0	0	0	0	0	0	0	0	0	0	0	0	0	0	0	0	0	0	0	0	0	0	0	0	0	0
071519	11:02:52	11:11:05	492553	5.0.10.0	5_exp_noRW	46	Rpleas_acq	CS_A	CPPC	DXXD	ZHHZ	JQQJ	YFFY	LWWL	küssen	genießen	träumen	vertrauen	gütig	sonnig	krank	gemein	töten	versagen	gierig	sterben	53pct	acq_USunple_CSunple2_noRW	acq23456_noRW	3	71	0	0	300	300	425	46	0	1	1	blank2r.bmp	0	1	+	0	1	blank2r.bmp	252	1	JQQJ	306	3	sterben	559	0	0	0	0	0	0	0	0	0	0	0	0	0	0	0	0	0	0	0	0	0	0	0	0	0	0	0	0	0	0	0	0	0	0	0	0	0	0	0
071519	11:02:52	11:11:07	494192	5.0.10.0	5_exp_noRW	46	Rpleas_acq	CS_A	CPPC	DXXD	ZHHZ	JQQJ	YFFY	LWWL	küssen	genießen	träumen	vertrauen	gütig	sonnig	krank	gemein	töten	versagen	gierig	sterben	47pct	acq_USpleas_CSpleas1_noRW	acq23456_noRW	3	72	0	0	300	300	474	50	0	1	1	blank2r.bmp	0	1	+	0	1	blank2r.bmp	252	1	CPPC	306	1	küssen	559	0	0	0	0	0	0	0	0	0	0	0	0	0	0	0	0	0	0	0	0	0	0	0	0	0	0	0	0	0	0	0	0	0	0	0	0	0	0	0
071519	11:02:52	11:11:08	495765	5.0.10.0	5_exp_noRW	46	Rpleas_acq	CS_A	CPPC	DXXD	ZHHZ	JQQJ	YFFY	LWWL	küssen	genießen	träumen	vertrauen	gütig	sonnig	krank	gemein	töten	versagen	gierig	sterben	53pct	acq_USunple_CSpleas1_noRW	acq23456_noRW	3	73	0	0	300	300	407	46	0	1	1	blank2r.bmp	0	1	+	0	1	blank2r.bmp	252	1	CPPC	306	1	krank	559	0	0	0	0	0	0	0	0	0	0	0	0	0	0	0	0	0	0	0	0	0	0	0	0	0	0	0	0	0	0	0	0	0	0	0	0	0	0	0
071519	11:02:52	11:11:10	497351	5.0.10.0	5_exp_noRW	46	Rpleas_acq	CS_A	CPPC	DXXD	ZHHZ	JQQJ	YFFY	LWWL	küssen	genießen	träumen	vertrauen	gütig	sonnig	krank	gemein	töten	versagen	gierig	sterben	47pct	acq_USpleas_CSpleas2_noRW	acq23456_noRW	3	74	0	0	300	300	417	50	0	1	1	blank2r.bmp	0	1	+	0	1	blank2r.bmp	252	1	DXXD	306	2	gütig	559	0	0	0	0	0	0	0	0	0	0	0	0	0	0	0	0	0	0	0	0	0	0	0	0	0	0	0	0	0	0	0	0	0	0	0	0	0	0	0
071519	11:02:52	11:11:12	498937	5.0.10.0	5_exp_noRW	46	Rpleas_acq	CS_A	CPPC	DXXD	ZHHZ	JQQJ	YFFY	LWWL	küssen	genießen	träumen	vertrauen	gütig	sonnig	krank	gemein	töten	versagen	gierig	sterben	53pct	acq_USunple_CSunple2_noRW	acq23456_noRW	3	75	0	0	300	300	400	46	0	1	1	blank2r.bmp	0	1	+	0	1	blank2r.bmp	252	1	JQQJ	306	2	gierig	559	0	0	0	0	0	0	0	0	0	0	0	0	0	0	0	0	0	0	0	0	0	0	0	0	0	0	0	0	0	0	0	0	0	0	0	0	0	0	0
071519	11:02:52	11:11:13	500496	5.0.10.0	5_exp_noRW	46	Rpleas_acq	CS_A	CPPC	DXXD	ZHHZ	JQQJ	YFFY	LWWL	küssen	genießen	träumen	vertrauen	gütig	sonnig	krank	gemein	töten	versagen	gierig	sterben	47pct	acq_USpleas_CSpleas1_noRW	acq23456_noRW	3	76	0	0	300	300	395	50	0	1	1	blank2r.bmp	0	1	+	0	1	blank2r.bmp	252	1	CPPC	306	3	träumen	559	0	0	0	0	0	0	0	0	0	0	0	0	0	0	0	0	0	0	0	0	0	0	0	0	0	0	0	0	0	0	0	0	0	0	0	0	0	0	0
071519	11:02:52	11:11:15	502122	5.0.10.0	5_exp_noRW	46	Rpleas_acq	CS_A	CPPC	DXXD	ZHHZ	JQQJ	YFFY	LWWL	küssen	genießen	träumen	vertrauen	gütig	sonnig	krank	gemein	töten	versagen	gierig	sterben	53pct	acq_USpleas_CSpleas1_noRW	acq23456_noRW	3	77	0	0	300	300	445	50	0	1	1	blank2r.bmp	0	1	+	0	1	blank2r.bmp	252	1	CPPC	306	2	genießen	559	0	0	0	0	0	0	0	0	0	0	0	0	0	0	0	0	0	0	0	0	0	0	0	0	0	0	0	0	0	0	0	0	0	0	0	0	0	0	0
071519	11:02:52	11:11:16	503788	5.0.10.0	5_exp_noRW	46	Rpleas_acq	CS_A	CPPC	DXXD	ZHHZ	JQQJ	YFFY	LWWL	küssen	genießen	träumen	vertrauen	gütig	sonnig	krank	gemein	töten	versagen	gierig	sterben	53pct	acq_USunple_CSunple1_noRW	acq23456_noRW	3	78	0	0	300	300	479	46	0	1	1	blank2r.bmp	0	1	+	0	1	blank2r.bmp	252	1	ZHHZ	306	2	gemein	559	0	0	0	0	0	0	0	0	0	0	0	0	0	0	0	0	0	0	0	0	0	0	0	0	0	0	0	0	0	0	0	0	0	0	0	0	0	0	0
071519	11:02:52	11:11:18	505494	5.0.10.0	5_exp_noRW	46	Rpleas_acq	CS_A	CPPC	DXXD	ZHHZ	JQQJ	YFFY	LWWL	küssen	genießen	träumen	vertrauen	gütig	sonnig	krank	gemein	töten	versagen	gierig	sterben	47pct	acq_USpleas_CSunple2_noRW	acq23456_noRW	3	79	0	0	300	300	536	50	0	1	1	blank2r.bmp	0	1	+	0	1	blank2r.bmp	252	1	JQQJ	306	1	vertrauen	559	0	0	0	0	0	0	0	0	0	0	0	0	0	0	0	0	0	0	0	0	0	0	0	0	0	0	0	0	0	0	0	0	0	0	0	0	0	0	0
071519	11:02:52	11:11:20	507160	5.0.10.0	5_exp_noRW	46	Rpleas_acq	CS_A	CPPC	DXXD	ZHHZ	JQQJ	YFFY	LWWL	küssen	genießen	träumen	vertrauen	gütig	sonnig	krank	gemein	töten	versagen	gierig	sterben	53pct	acq_USunple_CSunple2_noRW	acq23456_noRW	3	80	0	0	300	300	489	46	0	1	1	blank2r.bmp	0	1	+	0	1	blank2r.bmp	252	1	JQQJ	306	1	versagen	559	0	0	0	0	0	0	0	0	0	0	0	0	0	0	0	0	0	0	0	0	0	0	0	0	0	0	0	0	0	0	0	0	0	0	0	0	0	0	0
071519	11:02:52	11:11:33	520035	5.0.10.0	5_exp_noRW	46	Rpleas_acq	CS_A	CPPC	DXXD	ZHHZ	JQQJ	YFFY	LWWL	küssen	genießen	träumen	vertrauen	gütig	sonnig	krank	gemein	töten	versagen	gierig	sterben	53pct	acq_USpleas_CSpleas2_noRW	acq23456_noRW	4	1	0	0	300	300	471	50	0	1	1	blank2r.bmp	0	1	+	0	1	blank2r.bmp	252	1	DXXD	306	1	vertrauen	559	0	0	0	0	0	0	0	0	0	0	0	0	0	0	0	0	0	0	0	0	0	0	0	0	0	0	0	0	0	0	0	0	0	0	0	0	0	0	0
