date	time	script.currenttime	script.elapsedtime	build	script.currentexpt	subject	expressions.LRpleas_acq	expressions.conditionCS_A	expressions.CSpleas_1	expressions.CSpleas_2	expressions.CSunple_1	expressions.CSunple_2	expressions.distractor_1	expressions.distractor_2	expressions.US_pleas1	expressions.US_pleas2	expressions.US_pleas3	expressions.US_pleas4	expressions.US_pleas5	expressions.US_pleas6	expressions.US_unple1	expressions.US_unple2	expressions.US_unple3	expressions.US_unple4	expressions.US_unple5	expressions.US_unple6	counter.positions_noRW	trialcode	blockcode	blocknum	trialnum	windowcenter	inwindow	pretrialpause	posttrialpause	latency	response	expressions.correctedscore	correct	stimulusnumber1	stimulusitem1	stimulusonset1	stimulusnumber2	stimulusitem2	stimulusonset2	stimulusnumber3	stimulusitem3	stimulusonset3	stimulusnumber4	stimulusitem4	stimulusonset4	stimulusnumber5	stimulusitem5	stimulusonset5	stimulusnumber6	stimulusitem6	stimulusonset6	stimulusnumber7	stimulusitem7	stimulusonset7	stimulusnumber8	stimulusitem8	stimulusonset8	stimulusnumber9	stimulusitem9	stimulusonset9	stimulusnumber10	stimulusitem10	stimulusonset10	stimulusnumber11	stimulusitem11	stimulusonset11	stimulusnumber12	stimulusitem12	stimulusonset12	stimulusnumber13	stimulusitem13	stimulusonset13	stimulusnumber14	stimulusitem14	stimulusonset14	stimulusnumber15	stimulusitem15	stimulusonset15	stimulusnumber16	stimulusitem16	stimulusonset16	stimulusnumber17	stimulusitem17	stimulusonset17	stimulusnumber18	stimulusitem18	stimulusonset18
071519	09:54:26	09:56:11	104010	5.0.10.0	5_exp_RW	45	Rpleas_acq	CS_A	JQQJ	YFFY	DXXD	ZHHZ	LWWL	CPPC	küssen	vertrauen	genießen	gütig	sonnig	träumen	krank	versagen	gemein	gierig	sterben	töten	1	acq_USpleas_CSpleas2_RW	acq1_RW	1	1	0	0	300	300	1840	46	0	0	1	blank2r.bmp	0	1	+	0	1	blank2r.bmp	492	1	YFFY	492	1	blank2r.bmp	572	1	gütig	866	1	FEHLER	2745	0	0	0	0	0	0	0	0	0	0	0	0	0	0	0	0	0	0	0	0	0	0	0	0	0	0	0	0	0	0	0	0	0
071519	09:54:26	09:56:14	106475	5.0.10.0	5_exp_RW	45	Rpleas_acq	CS_A	JQQJ	YFFY	DXXD	ZHHZ	LWWL	CPPC	küssen	vertrauen	genießen	gütig	sonnig	träumen	krank	versagen	gemein	gierig	sterben	töten	1	acq_USunple_CSunple2_RW	acq1_RW	1	2	0	0	300	300	1008	50	0	0	1	blank2r.bmp	0	1	+	0	1	blank2r.bmp	492	1	ZHHZ	492	1	blank2r.bmp	572	1	gierig	866	1	FEHLER	1905	0	0	0	0	0	0	0	0	0	0	0	0	0	0	0	0	0	0	0	0	0	0	0	0	0	0	0	0	0	0	0	0	0
071519	09:54:26	09:56:16	108861	5.0.10.0	5_exp_RW	45	Rpleas_acq	CS_A	JQQJ	YFFY	DXXD	ZHHZ	LWWL	CPPC	küssen	vertrauen	genießen	gütig	sonnig	träumen	krank	versagen	gemein	gierig	sterben	töten	1	acq_USunple_CSunple1_RW	acq1_RW	1	3	0	0	300	300	1096	46	0	1	1	blank2r.bmp	0	1	+	0	1	blank2r.bmp	492	1	DXXD	492	1	blank2r.bmp	572	2	versagen	866	0	0	0	0	0	0	0	0	0	0	0	0	0	0	0	0	0	0	0	0	0	0	0	0	0	0	0	0	0	0	0	0	0	0	0	0
071519	09:54:26	09:56:19	111580	5.0.10.0	5_exp_RW	45	Rpleas_acq	CS_A	JQQJ	YFFY	DXXD	ZHHZ	LWWL	CPPC	küssen	vertrauen	genießen	gütig	sonnig	träumen	krank	versagen	gemein	gierig	sterben	töten	1	acq_USunple_CSunple1_RW	acq1_RW	1	4	0	0	300	300	1030	50	0	0	1	blank2r.bmp	0	1	+	0	1	blank2r.bmp	492	1	DXXD	492	1	blank2r.bmp	572	3	gemein	866	1	FEHLER	1932	0	0	0	0	0	0	0	0	0	0	0	0	0	0	0	0	0	0	0	0	0	0	0	0	0	0	0	0	0	0	0	0	0
071519	09:54:26	09:56:21	114272	5.0.10.0	5_exp_RW	45	Rpleas_acq	CS_A	JQQJ	YFFY	DXXD	ZHHZ	LWWL	CPPC	küssen	vertrauen	genießen	gütig	sonnig	träumen	krank	versagen	gemein	gierig	sterben	töten	1	acq_USunple_CSunple2_RW	acq1_RW	1	5	0	0	300	300	1417	46	0	1	1	blank2r.bmp	0	1	+	0	1	blank2r.bmp	492	1	ZHHZ	492	1	blank2r.bmp	572	2	sterben	866	0	0	0	0	0	0	0	0	0	0	0	0	0	0	0	0	0	0	0	0	0	0	0	0	0	0	0	0	0	0	0	0	0	0	0	0
071519	09:54:26	09:56:24	116898	5.0.10.0	5_exp_RW	45	Rpleas_acq	CS_A	JQQJ	YFFY	DXXD	ZHHZ	LWWL	CPPC	küssen	vertrauen	genießen	gütig	sonnig	träumen	krank	versagen	gemein	gierig	sterben	töten	1	acq_USpleas_CSpleas2_RW	acq1_RW	1	6	0	0	300	300	1133	50	0	1	1	blank2r.bmp	0	1	+	0	1	blank2r.bmp	492	1	YFFY	492	1	blank2r.bmp	572	3	träumen	866	0	0	0	0	0	0	0	0	0	0	0	0	0	0	0	0	0	0	0	0	0	0	0	0	0	0	0	0	0	0	0	0	0	0	0	0
071519	09:54:26	09:56:27	119550	5.0.10.0	5_exp_RW	45	Rpleas_acq	CS_A	JQQJ	YFFY	DXXD	ZHHZ	LWWL	CPPC	küssen	vertrauen	genießen	gütig	sonnig	träumen	krank	versagen	gemein	gierig	sterben	töten	1	acq_USpleas_CSpleas1_RW	acq1_RW	1	7	0	0	300	300	1172	50	0	1	1	blank2r.bmp	0	1	+	0	1	blank2r.bmp	492	1	JQQJ	492	1	blank2r.bmp	572	1	küssen	866	0	0	0	0	0	0	0	0	0	0	0	0	0	0	0	0	0	0	0	0	0	0	0	0	0	0	0	0	0	0	0	0	0	0	0	0
071519	09:54:26	09:56:30	122749	5.0.10.0	5_exp_RW	45	Rpleas_acq	CS_A	JQQJ	YFFY	DXXD	ZHHZ	LWWL	CPPC	küssen	vertrauen	genießen	gütig	sonnig	träumen	krank	versagen	gemein	gierig	sterben	töten	1	acq_USpleas_CSpleas1_RW	acq1_RW	1	8	0	0	300	300	1725	50	0	1	1	blank2r.bmp	0	1	+	0	1	blank2r.bmp	492	1	JQQJ	492	1	blank2r.bmp	572	3	genießen	866	0	0	0	0	0	0	0	0	0	0	0	0	0	0	0	0	0	0	0	0	0	0	0	0	0	0	0	0	0	0	0	0	0	0	0	0
071519	09:54:26	09:56:33	125894	5.0.10.0	5_exp_RW	45	Rpleas_acq	CS_A	JQQJ	YFFY	DXXD	ZHHZ	LWWL	CPPC	küssen	vertrauen	genießen	gütig	sonnig	träumen	krank	versagen	gemein	gierig	sterben	töten	1	acq_USunple_CSunple2_RW	acq1_RW	1	9	0	0	300	300	1671	46	0	1	1	blank2r.bmp	0	1	+	0	1	blank2r.bmp	492	1	ZHHZ	492	1	blank2r.bmp	572	3	töten	866	0	0	0	0	0	0	0	0	0	0	0	0	0	0	0	0	0	0	0	0	0	0	0	0	0	0	0	0	0	0	0	0	0	0	0	0
071519	09:54:26	09:56:35	128360	5.0.10.0	5_exp_RW	45	Rpleas_acq	CS_A	JQQJ	YFFY	DXXD	ZHHZ	LWWL	CPPC	küssen	vertrauen	genießen	gütig	sonnig	träumen	krank	versagen	gemein	gierig	sterben	töten	1	acq_USpleas_CSpleas1_RW	acq1_RW	1	10	0	0	300	300	972	50	0	1	1	blank2r.bmp	0	1	+	0	1	blank2r.bmp	492	1	JQQJ	492	1	blank2r.bmp	572	2	vertrauen	866	0	0	0	0	0	0	0	0	0	0	0	0	0	0	0	0	0	0	0	0	0	0	0	0	0	0	0	0	0	0	0	0	0	0	0	0
071519	09:54:26	09:56:38	130785	5.0.10.0	5_exp_RW	45	Rpleas_acq	CS_A	JQQJ	YFFY	DXXD	ZHHZ	LWWL	CPPC	küssen	vertrauen	genießen	gütig	sonnig	träumen	krank	versagen	gemein	gierig	sterben	töten	1	acq_USunple_CSunple2_RW	acq1_RW	1	11	0	0	300	300	938	46	0	1	1	blank2r.bmp	0	1	+	0	1	blank2r.bmp	492	1	ZHHZ	492	1	blank2r.bmp	572	3	töten	866	0	0	0	0	0	0	0	0	0	0	0	0	0	0	0	0	0	0	0	0	0	0	0	0	0	0	0	0	0	0	0	0	0	0	0	0
071519	09:54:26	09:56:40	133038	5.0.10.0	5_exp_RW	45	Rpleas_acq	CS_A	JQQJ	YFFY	DXXD	ZHHZ	LWWL	CPPC	küssen	vertrauen	genießen	gütig	sonnig	träumen	krank	versagen	gemein	gierig	sterben	töten	1	acq_USunple_CSunple1_RW	acq1_RW	1	12	0	0	300	300	773	46	0	1	1	blank2r.bmp	0	1	+	0	1	blank2r.bmp	492	1	DXXD	492	1	blank2r.bmp	572	1	krank	866	0	0	0	0	0	0	0	0	0	0	0	0	0	0	0	0	0	0	0	0	0	0	0	0	0	0	0	0	0	0	0	0	0	0	0	0
071519	09:54:26	09:56:42	135277	5.0.10.0	5_exp_RW	45	Rpleas_acq	CS_A	JQQJ	YFFY	DXXD	ZHHZ	LWWL	CPPC	küssen	vertrauen	genießen	gütig	sonnig	träumen	krank	versagen	gemein	gierig	sterben	töten	1	acq_USpleas_CSpleas2_RW	acq1_RW	1	13	0	0	300	300	752	50	0	1	1	blank2r.bmp	0	1	+	0	1	blank2r.bmp	492	1	YFFY	492	1	blank2r.bmp	572	2	sonnig	866	0	0	0	0	0	0	0	0	0	0	0	0	0	0	0	0	0	0	0	0	0	0	0	0	0	0	0	0	0	0	0	0	0	0	0	0
071519	09:54:26	09:56:45	137556	5.0.10.0	5_exp_RW	45	Rpleas_acq	CS_A	JQQJ	YFFY	DXXD	ZHHZ	LWWL	CPPC	küssen	vertrauen	genießen	gütig	sonnig	träumen	krank	versagen	gemein	gierig	sterben	töten	1	acq_USpleas_CSpleas2_RW	acq1_RW	1	14	0	0	300	300	799	50	0	1	1	blank2r.bmp	0	1	+	0	1	blank2r.bmp	492	1	YFFY	492	1	blank2r.bmp	572	3	träumen	866	0	0	0	0	0	0	0	0	0	0	0	0	0	0	0	0	0	0	0	0	0	0	0	0	0	0	0	0	0	0	0	0	0	0	0	0
071519	09:54:26	09:56:47	139888	5.0.10.0	5_exp_RW	45	Rpleas_acq	CS_A	JQQJ	YFFY	DXXD	ZHHZ	LWWL	CPPC	küssen	vertrauen	genießen	gütig	sonnig	träumen	krank	versagen	gemein	gierig	sterben	töten	1	acq_USunple_CSunple1_RW	acq1_RW	1	15	0	0	300	300	855	46	0	1	1	blank2r.bmp	0	1	+	0	1	blank2r.bmp	492	1	DXXD	492	1	blank2r.bmp	572	3	gemein	866	0	0	0	0	0	0	0	0	0	0	0	0	0	0	0	0	0	0	0	0	0	0	0	0	0	0	0	0	0	0	0	0	0	0	0	0
071519	09:54:26	09:56:49	142088	5.0.10.0	5_exp_RW	45	Rpleas_acq	CS_A	JQQJ	YFFY	DXXD	ZHHZ	LWWL	CPPC	küssen	vertrauen	genießen	gütig	sonnig	träumen	krank	versagen	gemein	gierig	sterben	töten	1	acq_USpleas_CSpleas1_RW	acq1_RW	1	16	0	0	300	300	714	50	0	1	1	blank2r.bmp	0	1	+	0	1	blank2r.bmp	492	1	JQQJ	492	1	blank2r.bmp	572	2	vertrauen	866	0	0	0	0	0	0	0	0	0	0	0	0	0	0	0	0	0	0	0	0	0	0	0	0	0	0	0	0	0	0	0	0	0	0	0	0
071519	09:54:26	09:58:05	217670	5.0.10.0	5_exp_RW	45	Rpleas_acq	CS_A	JQQJ	YFFY	DXXD	ZHHZ	LWWL	CPPC	küssen	vertrauen	genießen	gütig	sonnig	träumen	krank	versagen	gemein	gierig	sterben	töten	1	acq_USpleas_CSpleas1_RW	acq2_RW	2	1	480	0	300	300	865	50	0	1	1	blank2r.bmp	0	1	+	0	1	blank2r.bmp	492	1	JQQJ	492	1	blank2r.bmp	572	3	genießen	866	1	!	1319	1	!	-1	0	0	0	0	0	0	0	0	0	0	0	0	0	0	0	0	0	0	0	0	0	0	0	0	0	0	0	0	0	0
071519	09:54:26	09:58:07	220095	5.0.10.0	5_exp_RW	45	Rpleas_acq	CS_A	JQQJ	YFFY	DXXD	ZHHZ	LWWL	CPPC	küssen	vertrauen	genießen	gütig	sonnig	träumen	krank	versagen	gemein	gierig	sterben	töten	1	acq_USpleas_CSpleas1_RW	acq2_RW	2	2	480	0	300	300	631	50	0	1	1	blank2r.bmp	0	1	+	0	1	blank2r.bmp	492	1	JQQJ	492	1	blank2r.bmp	572	1	küssen	866	1	!	1319	1	!	-1	0	0	0	0	0	0	0	0	0	0	0	0	0	0	0	0	0	0	0	0	0	0	0	0	0	0	0	0	0	0
071519	09:54:26	09:58:10	222548	5.0.10.0	5_exp_RW	45	Rpleas_acq	CS_A	JQQJ	YFFY	DXXD	ZHHZ	LWWL	CPPC	küssen	vertrauen	genießen	gütig	sonnig	träumen	krank	versagen	gemein	gierig	sterben	töten	1	acq_USunple_CSunple2_RW	acq2_RW	2	3	480	0	300	300	671	46	0	1	1	blank2r.bmp	0	1	+	0	1	blank2r.bmp	492	1	ZHHZ	492	1	blank2r.bmp	572	1	gierig	866	1	!	1319	1	!	-1	0	0	0	0	0	0	0	0	0	0	0	0	0	0	0	0	0	0	0	0	0	0	0	0	0	0	0	0	0	0
071519	09:54:26	09:58:12	224973	5.0.10.0	5_exp_RW	45	Rpleas_acq	CS_A	JQQJ	YFFY	DXXD	ZHHZ	LWWL	CPPC	küssen	vertrauen	genießen	gütig	sonnig	träumen	krank	versagen	gemein	gierig	sterben	töten	1	acq_USpleas_CSpleas2_RW	acq2_RW	2	4	480	0	300	300	643	50	0	1	1	blank2r.bmp	0	1	+	0	1	blank2r.bmp	492	1	YFFY	492	1	blank2r.bmp	572	2	sonnig	866	1	!	1319	1	!	-1	0	0	0	0	0	0	0	0	0	0	0	0	0	0	0	0	0	0	0	0	0	0	0	0	0	0	0	0	0	0
071519	09:54:26	09:58:14	227319	5.0.10.0	5_exp_RW	45	Rpleas_acq	CS_A	JQQJ	YFFY	DXXD	ZHHZ	LWWL	CPPC	küssen	vertrauen	genießen	gütig	sonnig	träumen	krank	versagen	gemein	gierig	sterben	töten	1	acq_USpleas_CSpleas2_RW	acq2_RW	2	5	480	0	300	300	559	50	0	1	1	blank2r.bmp	0	1	+	0	1	blank2r.bmp	492	1	YFFY	492	1	blank2r.bmp	572	1	gütig	866	1	!	1319	1	!	-1	0	0	0	0	0	0	0	0	0	0	0	0	0	0	0	0	0	0	0	0	0	0	0	0	0	0	0	0	0	0
071519	09:54:26	09:58:17	229785	5.0.10.0	5_exp_RW	45	Rpleas_acq	CS_A	JQQJ	YFFY	DXXD	ZHHZ	LWWL	CPPC	küssen	vertrauen	genießen	gütig	sonnig	träumen	krank	versagen	gemein	gierig	sterben	töten	1	acq_USunple_CSunple1_RW	acq2_RW	2	6	480	0	300	300	683	46	0	1	1	blank2r.bmp	0	1	+	0	1	blank2r.bmp	492	1	DXXD	492	1	blank2r.bmp	572	2	versagen	866	1	!	1319	1	!	-1	0	0	0	0	0	0	0	0	0	0	0	0	0	0	0	0	0	0	0	0	0	0	0	0	0	0	0	0	0	0
071519	09:54:26	09:58:19	232304	5.0.10.0	5_exp_RW	45	Rpleas_acq	CS_A	JQQJ	YFFY	DXXD	ZHHZ	LWWL	CPPC	küssen	vertrauen	genießen	gütig	sonnig	träumen	krank	versagen	gemein	gierig	sterben	töten	1	acq_USpleas_CSpleas1_RW	acq2_RW	2	7	480	0	300	300	739	50	0	1	1	blank2r.bmp	0	1	+	0	1	blank2r.bmp	492	1	JQQJ	492	1	blank2r.bmp	572	1	küssen	866	1	!	1319	1	!	-1	0	0	0	0	0	0	0	0	0	0	0	0	0	0	0	0	0	0	0	0	0	0	0	0	0	0	0	0	0	0
071519	09:54:26	09:58:22	234849	5.0.10.0	5_exp_RW	45	Rpleas_acq	CS_A	JQQJ	YFFY	DXXD	ZHHZ	LWWL	CPPC	küssen	vertrauen	genießen	gütig	sonnig	träumen	krank	versagen	gemein	gierig	sterben	töten	1	acq_USpleas_CSpleas1_RW	acq2_RW	2	8	480	1	300	300	511	46	0	0	1	blank2r.bmp	0	1	+	0	1	blank2r.bmp	492	1	JQQJ	492	1	blank2r.bmp	572	2	vertrauen	866	1	FEHLER	1732	1	!	1319	1	!	1412	0	0	0	0	0	0	0	0	0	0	0	0	0	0	0	0	0	0	0	0	0	0	0	0	0	0	0
071519	09:54:26	09:58:24	237208	5.0.10.0	5_exp_RW	45	Rpleas_acq	CS_A	JQQJ	YFFY	DXXD	ZHHZ	LWWL	CPPC	küssen	vertrauen	genießen	gütig	sonnig	träumen	krank	versagen	gemein	gierig	sterben	töten	1	acq_USunple_CSunple2_RW	acq2_RW	2	9	480	0	300	300	576	50	0	0	1	blank2r.bmp	0	1	+	0	1	blank2r.bmp	492	1	ZHHZ	492	1	blank2r.bmp	572	2	sterben	866	1	FEHLER	1785	1	!	1319	1	!	-1	0	0	0	0	0	0	0	0	0	0	0	0	0	0	0	0	0	0	0	0	0	0	0	0	0	0	0
071519	09:54:26	09:58:27	239448	5.0.10.0	5_exp_RW	45	Rpleas_acq	CS_A	JQQJ	YFFY	DXXD	ZHHZ	LWWL	CPPC	küssen	vertrauen	genießen	gütig	sonnig	träumen	krank	versagen	gemein	gierig	sterben	töten	1	acq_USunple_CSunple2_RW	acq2_RW	2	10	480	0	300	300	681	46	0	1	1	blank2r.bmp	0	1	+	0	1	blank2r.bmp	492	1	ZHHZ	492	1	blank2r.bmp	572	1	gierig	866	1	!	1319	1	!	-1	0	0	0	0	0	0	0	0	0	0	0	0	0	0	0	0	0	0	0	0	0	0	0	0	0	0	0	0	0	0
071519	09:54:26	09:58:29	241793	5.0.10.0	5_exp_RW	45	Rpleas_acq	CS_A	JQQJ	YFFY	DXXD	ZHHZ	LWWL	CPPC	küssen	vertrauen	genießen	gütig	sonnig	träumen	krank	versagen	gemein	gierig	sterben	töten	1	acq_USunple_CSunple1_RW	acq2_RW	2	11	480	1	300	300	525	46	0	1	1	blank2r.bmp	0	1	+	0	1	blank2r.bmp	492	1	DXXD	492	1	blank2r.bmp	572	1	krank	866	1	!	1319	1	!	1426	0	0	0	0	0	0	0	0	0	0	0	0	0	0	0	0	0	0	0	0	0	0	0	0	0	0	0	0	0	0
071519	09:54:26	09:58:31	244192	5.0.10.0	5_exp_RW	45	Rpleas_acq	CS_A	JQQJ	YFFY	DXXD	ZHHZ	LWWL	CPPC	küssen	vertrauen	genießen	gütig	sonnig	träumen	krank	versagen	gemein	gierig	sterben	töten	1	acq_USunple_CSunple2_RW	acq2_RW	2	12	480	0	300	300	627	46	0	1	1	blank2r.bmp	0	1	+	0	1	blank2r.bmp	492	1	ZHHZ	492	1	blank2r.bmp	572	2	sterben	866	1	!	1319	1	!	-1	0	0	0	0	0	0	0	0	0	0	0	0	0	0	0	0	0	0	0	0	0	0	0	0	0	0	0	0	0	0
071519	09:54:26	09:58:34	246924	5.0.10.0	5_exp_RW	45	Rpleas_acq	CS_A	JQQJ	YFFY	DXXD	ZHHZ	LWWL	CPPC	küssen	vertrauen	genießen	gütig	sonnig	träumen	krank	versagen	gemein	gierig	sterben	töten	1	acq_USunple_CSunple1_RW	acq2_RW	2	13	480	0	300	300	710	50	0	0	1	blank2r.bmp	0	1	+	0	1	blank2r.bmp	492	1	DXXD	492	1	blank2r.bmp	572	3	gemein	866	1	FEHLER	1919	1	!	1319	1	!	-1	0	0	0	0	0	0	0	0	0	0	0	0	0	0	0	0	0	0	0	0	0	0	0	0	0	0	0
071519	09:54:26	09:58:36	249097	5.0.10.0	5_exp_RW	45	Rpleas_acq	CS_A	JQQJ	YFFY	DXXD	ZHHZ	LWWL	CPPC	küssen	vertrauen	genießen	gütig	sonnig	träumen	krank	versagen	gemein	gierig	sterben	töten	1	acq_USpleas_CSpleas2_RW	acq2_RW	2	14	480	0	300	300	612	50	0	1	1	blank2r.bmp	0	1	+	0	1	blank2r.bmp	492	1	YFFY	492	1	blank2r.bmp	572	2	sonnig	866	1	!	1319	1	!	-1	0	0	0	0	0	0	0	0	0	0	0	0	0	0	0	0	0	0	0	0	0	0	0	0	0	0	0	0	0	0
071519	09:54:26	09:58:39	251523	5.0.10.0	5_exp_RW	45	Rpleas_acq	CS_A	JQQJ	YFFY	DXXD	ZHHZ	LWWL	CPPC	küssen	vertrauen	genießen	gütig	sonnig	träumen	krank	versagen	gemein	gierig	sterben	töten	1	acq_USunple_CSunple1_RW	acq2_RW	2	15	480	0	300	300	648	46	0	1	1	blank2r.bmp	0	1	+	0	1	blank2r.bmp	492	1	DXXD	492	1	blank2r.bmp	572	1	krank	866	1	!	1319	1	!	-1	0	0	0	0	0	0	0	0	0	0	0	0	0	0	0	0	0	0	0	0	0	0	0	0	0	0	0	0	0	0
071519	09:54:26	09:58:41	254335	5.0.10.0	5_exp_RW	45	Rpleas_acq	CS_A	JQQJ	YFFY	DXXD	ZHHZ	LWWL	CPPC	küssen	vertrauen	genießen	gütig	sonnig	träumen	krank	versagen	gemein	gierig	sterben	töten	1	acq_USpleas_CSpleas2_RW	acq2_RW	2	16	480	0	300	300	1012	50	0	1	1	blank2r.bmp	0	1	+	0	1	blank2r.bmp	492	1	YFFY	492	1	blank2r.bmp	572	1	gütig	866	1	!	1319	1	!	-1	0	0	0	0	0	0	0	0	0	0	0	0	0	0	0	0	0	0	0	0	0	0	0	0	0	0	0	0	0	0
071519	09:54:26	09:58:44	256720	5.0.10.0	5_exp_RW	45	Rpleas_acq	CS_A	JQQJ	YFFY	DXXD	ZHHZ	LWWL	CPPC	küssen	vertrauen	genießen	gütig	sonnig	träumen	krank	versagen	gemein	gierig	sterben	töten	1	acq_USunple_CSunple1_RW	acq2_RW	2	17	480	0	300	300	600	46	0	1	1	blank2r.bmp	0	1	+	0	1	blank2r.bmp	492	1	DXXD	492	1	blank2r.bmp	572	2	versagen	866	1	!	1319	1	!	-1	0	0	0	0	0	0	0	0	0	0	0	0	0	0	0	0	0	0	0	0	0	0	0	0	0	0	0	0	0	0
071519	09:54:26	09:58:46	259133	5.0.10.0	5_exp_RW	45	Rpleas_acq	CS_A	JQQJ	YFFY	DXXD	ZHHZ	LWWL	CPPC	küssen	vertrauen	genießen	gütig	sonnig	träumen	krank	versagen	gemein	gierig	sterben	töten	1	acq_USunple_CSunple2_RW	acq2_RW	2	18	480	0	300	300	637	46	0	1	1	blank2r.bmp	0	1	+	0	1	blank2r.bmp	492	1	ZHHZ	492	1	blank2r.bmp	572	3	töten	866	1	!	1319	1	!	-1	0	0	0	0	0	0	0	0	0	0	0	0	0	0	0	0	0	0	0	0	0	0	0	0	0	0	0	0	0	0
071519	09:54:26	09:58:49	261865	5.0.10.0	5_exp_RW	45	Rpleas_acq	CS_A	JQQJ	YFFY	DXXD	ZHHZ	LWWL	CPPC	küssen	vertrauen	genießen	gütig	sonnig	träumen	krank	versagen	gemein	gierig	sterben	töten	1	acq_USunple_CSunple2_RW	acq2_RW	2	19	480	0	300	300	951	46	0	1	1	blank2r.bmp	0	1	+	0	1	blank2r.bmp	492	1	ZHHZ	492	1	blank2r.bmp	572	1	gierig	866	1	!	1319	1	!	-1	0	0	0	0	0	0	0	0	0	0	0	0	0	0	0	0	0	0	0	0	0	0	0	0	0	0	0	0	0	0
071519	09:54:26	09:58:51	264264	5.0.10.0	5_exp_RW	45	Rpleas_acq	CS_A	JQQJ	YFFY	DXXD	ZHHZ	LWWL	CPPC	küssen	vertrauen	genießen	gütig	sonnig	träumen	krank	versagen	gemein	gierig	sterben	töten	1	acq_USpleas_CSpleas1_RW	acq2_RW	2	20	480	0	300	300	601	50	0	1	1	blank2r.bmp	0	1	+	0	1	blank2r.bmp	492	1	JQQJ	492	1	blank2r.bmp	572	3	genießen	866	1	!	1319	1	!	-1	0	0	0	0	0	0	0	0	0	0	0	0	0	0	0	0	0	0	0	0	0	0	0	0	0	0	0	0	0	0
071519	09:54:26	09:58:54	266570	5.0.10.0	5_exp_RW	45	Rpleas_acq	CS_A	JQQJ	YFFY	DXXD	ZHHZ	LWWL	CPPC	küssen	vertrauen	genießen	gütig	sonnig	träumen	krank	versagen	gemein	gierig	sterben	töten	1	acq_USpleas_CSpleas1_RW	acq2_RW	2	21	480	1	300	300	495	50	0	1	1	blank2r.bmp	0	1	+	0	1	blank2r.bmp	492	1	JQQJ	492	1	blank2r.bmp	572	1	küssen	866	1	!	1319	1	!	1399	0	0	0	0	0	0	0	0	0	0	0	0	0	0	0	0	0	0	0	0	0	0	0	0	0	0	0	0	0	0
071519	09:54:26	09:58:56	268969	5.0.10.0	5_exp_RW	45	Rpleas_acq	CS_A	JQQJ	YFFY	DXXD	ZHHZ	LWWL	CPPC	küssen	vertrauen	genießen	gütig	sonnig	träumen	krank	versagen	gemein	gierig	sterben	töten	1	acq_USunple_CSunple1_RW	acq2_RW	2	22	480	0	300	300	626	46	0	1	1	blank2r.bmp	0	1	+	0	1	blank2r.bmp	492	1	DXXD	492	1	blank2r.bmp	572	3	gemein	866	1	!	1319	1	!	-1	0	0	0	0	0	0	0	0	0	0	0	0	0	0	0	0	0	0	0	0	0	0	0	0	0	0	0	0	0	0
071519	09:54:26	09:59:03	276286	5.0.10.0	5_exp_RW	45	Rpleas_acq	CS_A	JQQJ	YFFY	DXXD	ZHHZ	LWWL	CPPC	küssen	vertrauen	genießen	gütig	sonnig	träumen	krank	versagen	gemein	gierig	sterben	töten	1	acq_USpleas_CSpleas2_RW	acq2_RW	2	23	480	0	300	300	5542	50	0	1	1	blank2r.bmp	0	1	+	0	1	blank2r.bmp	492	1	YFFY	492	1	blank2r.bmp	572	3	träumen	866	1	!	1319	1	!	-1	0	0	0	0	0	0	0	0	0	0	0	0	0	0	0	0	0	0	0	0	0	0	0	0	0	0	0	0	0	0
071519	09:54:26	09:59:06	279311	5.0.10.0	5_exp_RW	45	Rpleas_acq	CS_A	JQQJ	YFFY	DXXD	ZHHZ	LWWL	CPPC	küssen	vertrauen	genießen	gütig	sonnig	träumen	krank	versagen	gemein	gierig	sterben	töten	1	acq_USpleas_CSpleas2_RW	acq2_RW	2	24	480	0	300	300	1242	50	0	1	1	blank2r.bmp	0	1	+	0	1	blank2r.bmp	492	1	YFFY	492	1	blank2r.bmp	572	1	gütig	866	1	!	1319	1	!	-1	0	0	0	0	0	0	0	0	0	0	0	0	0	0	0	0	0	0	0	0	0	0	0	0	0	0	0	0	0	0
071519	09:54:26	09:59:31	304248	5.0.10.0	5_exp_RW	45	Rpleas_acq	CS_A	JQQJ	YFFY	DXXD	ZHHZ	LWWL	CPPC	küssen	vertrauen	genießen	gütig	sonnig	träumen	krank	versagen	gemein	gierig	sterben	töten	1	acq_USpleas_CSpleas2_RW	acq3_RW	3	1	453	0	300	300	730	50	0	1	1	blank2r.bmp	0	1	+	0	1	blank2r.bmp	492	1	YFFY	492	1	blank2r.bmp	572	2	sonnig	866	1	!	1292	1	!	-1	0	0	0	0	0	0	0	0	0	0	0	0	0	0	0	0	0	0	0	0	0	0	0	0	0	0	0	0	0	0
071519	09:54:26	09:59:34	306700	5.0.10.0	5_exp_RW	45	Rpleas_acq	CS_A	JQQJ	YFFY	DXXD	ZHHZ	LWWL	CPPC	küssen	vertrauen	genießen	gütig	sonnig	träumen	krank	versagen	gemein	gierig	sterben	töten	1	acq_USpleas_CSpleas2_RW	acq3_RW	3	2	453	0	300	300	667	50	0	1	1	blank2r.bmp	0	1	+	0	1	blank2r.bmp	492	1	YFFY	492	1	blank2r.bmp	572	3	träumen	866	1	!	1292	1	!	-1	0	0	0	0	0	0	0	0	0	0	0	0	0	0	0	0	0	0	0	0	0	0	0	0	0	0	0	0	0	0
071519	09:54:26	09:59:36	309179	5.0.10.0	5_exp_RW	45	Rpleas_acq	CS_A	JQQJ	YFFY	DXXD	ZHHZ	LWWL	CPPC	küssen	vertrauen	genießen	gütig	sonnig	träumen	krank	versagen	gemein	gierig	sterben	töten	1	acq_USpleas_CSpleas1_RW	acq3_RW	3	3	453	0	300	300	684	50	0	1	1	blank2r.bmp	0	1	+	0	1	blank2r.bmp	492	1	JQQJ	492	1	blank2r.bmp	572	2	vertrauen	866	1	!	1292	1	!	-1	0	0	0	0	0	0	0	0	0	0	0	0	0	0	0	0	0	0	0	0	0	0	0	0	0	0	0	0	0	0
071519	09:54:26	09:59:39	311551	5.0.10.0	5_exp_RW	45	Rpleas_acq	CS_A	JQQJ	YFFY	DXXD	ZHHZ	LWWL	CPPC	küssen	vertrauen	genießen	gütig	sonnig	träumen	krank	versagen	gemein	gierig	sterben	töten	1	acq_USpleas_CSpleas1_RW	acq3_RW	3	4	453	0	300	300	574	50	0	1	1	blank2r.bmp	0	1	+	0	1	blank2r.bmp	492	1	JQQJ	492	1	blank2r.bmp	572	3	genießen	866	1	!	1292	1	!	-1	0	0	0	0	0	0	0	0	0	0	0	0	0	0	0	0	0	0	0	0	0	0	0	0	0	0	0	0	0	0
071519	09:54:26	09:59:41	313884	5.0.10.0	5_exp_RW	45	Rpleas_acq	CS_A	JQQJ	YFFY	DXXD	ZHHZ	LWWL	CPPC	küssen	vertrauen	genießen	gütig	sonnig	träumen	krank	versagen	gemein	gierig	sterben	töten	1	acq_USunple_CSunple2_RW	acq3_RW	3	5	453	1	300	300	513	46	0	1	1	blank2r.bmp	0	1	+	0	1	blank2r.bmp	492	1	ZHHZ	492	1	blank2r.bmp	572	3	töten	866	1	!	1292	1	!	1412	0	0	0	0	0	0	0	0	0	0	0	0	0	0	0	0	0	0	0	0	0	0	0	0	0	0	0	0	0	0
071519	09:54:26	09:59:43	316203	5.0.10.0	5_exp_RW	45	Rpleas_acq	CS_A	JQQJ	YFFY	DXXD	ZHHZ	LWWL	CPPC	küssen	vertrauen	genießen	gütig	sonnig	träumen	krank	versagen	gemein	gierig	sterben	töten	1	acq_USpleas_CSpleas1_RW	acq3_RW	3	6	453	0	300	300	557	50	0	1	1	blank2r.bmp	0	1	+	0	1	blank2r.bmp	492	1	JQQJ	492	1	blank2r.bmp	572	2	vertrauen	866	1	!	1292	1	!	-1	0	0	0	0	0	0	0	0	0	0	0	0	0	0	0	0	0	0	0	0	0	0	0	0	0	0	0	0	0	0
071519	09:54:26	09:59:46	318522	5.0.10.0	5_exp_RW	45	Rpleas_acq	CS_A	JQQJ	YFFY	DXXD	ZHHZ	LWWL	CPPC	küssen	vertrauen	genießen	gütig	sonnig	träumen	krank	versagen	gemein	gierig	sterben	töten	1	acq_USpleas_CSpleas2_RW	acq3_RW	3	7	453	1	300	300	518	50	0	1	1	blank2r.bmp	0	1	+	0	1	blank2r.bmp	492	1	YFFY	492	1	blank2r.bmp	572	3	träumen	866	1	!	1292	1	!	1412	0	0	0	0	0	0	0	0	0	0	0	0	0	0	0	0	0	0	0	0	0	0	0	0	0	0	0	0	0	0
071519	09:54:26	09:59:48	321027	5.0.10.0	5_exp_RW	45	Rpleas_acq	CS_A	JQQJ	YFFY	DXXD	ZHHZ	LWWL	CPPC	küssen	vertrauen	genießen	gütig	sonnig	träumen	krank	versagen	gemein	gierig	sterben	töten	1	acq_USunple_CSunple1_RW	acq3_RW	3	8	453	0	300	300	725	46	0	1	1	blank2r.bmp	0	1	+	0	1	blank2r.bmp	492	1	DXXD	492	1	blank2r.bmp	572	1	krank	866	1	!	1292	1	!	-1	0	0	0	0	0	0	0	0	0	0	0	0	0	0	0	0	0	0	0	0	0	0	0	0	0	0	0	0	0	0
071519	09:54:26	09:59:51	323640	5.0.10.0	5_exp_RW	45	Rpleas_acq	CS_A	JQQJ	YFFY	DXXD	ZHHZ	LWWL	CPPC	küssen	vertrauen	genießen	gütig	sonnig	träumen	krank	versagen	gemein	gierig	sterben	töten	1	acq_USunple_CSunple1_RW	acq3_RW	3	9	453	0	300	300	610	50	0	0	1	blank2r.bmp	0	1	+	0	1	blank2r.bmp	492	1	DXXD	492	1	blank2r.bmp	572	2	versagen	866	1	FEHLER	1812	1	!	1292	1	!	-1	0	0	0	0	0	0	0	0	0	0	0	0	0	0	0	0	0	0	0	0	0	0	0	0	0	0	0
071519	09:54:26	09:59:53	325799	5.0.10.0	5_exp_RW	45	Rpleas_acq	CS_A	JQQJ	YFFY	DXXD	ZHHZ	LWWL	CPPC	küssen	vertrauen	genießen	gütig	sonnig	träumen	krank	versagen	gemein	gierig	sterben	töten	1	acq_USunple_CSunple2_RW	acq3_RW	3	10	453	0	300	300	602	46	0	1	1	blank2r.bmp	0	1	+	0	1	blank2r.bmp	492	1	ZHHZ	492	1	blank2r.bmp	572	2	sterben	866	1	!	1292	1	!	-1	0	0	0	0	0	0	0	0	0	0	0	0	0	0	0	0	0	0	0	0	0	0	0	0	0	0	0	0	0	0
071519	09:54:26	09:59:55	328184	5.0.10.0	5_exp_RW	45	Rpleas_acq	CS_A	JQQJ	YFFY	DXXD	ZHHZ	LWWL	CPPC	küssen	vertrauen	genießen	gütig	sonnig	träumen	krank	versagen	gemein	gierig	sterben	töten	1	acq_USunple_CSunple1_RW	acq3_RW	3	11	453	0	300	300	608	46	0	1	1	blank2r.bmp	0	1	+	0	1	blank2r.bmp	492	1	DXXD	492	1	blank2r.bmp	572	1	krank	866	1	!	1292	1	!	-1	0	0	0	0	0	0	0	0	0	0	0	0	0	0	0	0	0	0	0	0	0	0	0	0	0	0	0	0	0	0
071519	09:54:26	09:59:58	330823	5.0.10.0	5_exp_RW	45	Rpleas_acq	CS_A	JQQJ	YFFY	DXXD	ZHHZ	LWWL	CPPC	küssen	vertrauen	genießen	gütig	sonnig	träumen	krank	versagen	gemein	gierig	sterben	töten	1	acq_USunple_CSunple2_RW	acq3_RW	3	12	453	0	300	300	634	50	0	0	1	blank2r.bmp	0	1	+	0	1	blank2r.bmp	492	1	ZHHZ	492	1	blank2r.bmp	572	1	gierig	866	1	FEHLER	1839	1	!	1292	1	!	-1	0	0	0	0	0	0	0	0	0	0	0	0	0	0	0	0	0	0	0	0	0	0	0	0	0	0	0
071519	09:54:26	10:00:00	333182	5.0.10.0	5_exp_RW	45	Rpleas_acq	CS_A	JQQJ	YFFY	DXXD	ZHHZ	LWWL	CPPC	küssen	vertrauen	genießen	gütig	sonnig	träumen	krank	versagen	gemein	gierig	sterben	töten	1	acq_USunple_CSunple1_RW	acq3_RW	3	13	453	0	300	300	806	46	0	1	1	blank2r.bmp	0	1	+	0	1	blank2r.bmp	492	1	DXXD	492	1	blank2r.bmp	572	2	versagen	866	1	!	1292	1	!	-1	0	0	0	0	0	0	0	0	0	0	0	0	0	0	0	0	0	0	0	0	0	0	0	0	0	0	0	0	0	0
071519	09:54:26	10:00:03	335635	5.0.10.0	5_exp_RW	45	Rpleas_acq	CS_A	JQQJ	YFFY	DXXD	ZHHZ	LWWL	CPPC	küssen	vertrauen	genießen	gütig	sonnig	träumen	krank	versagen	gemein	gierig	sterben	töten	1	acq_USpleas_CSpleas2_RW	acq3_RW	3	14	453	0	300	300	673	50	0	1	1	blank2r.bmp	0	1	+	0	1	blank2r.bmp	492	1	YFFY	492	1	blank2r.bmp	572	1	gütig	866	1	!	1292	1	!	-1	0	0	0	0	0	0	0	0	0	0	0	0	0	0	0	0	0	0	0	0	0	0	0	0	0	0	0	0	0	0
071519	09:54:26	10:00:05	337954	5.0.10.0	5_exp_RW	45	Rpleas_acq	CS_A	JQQJ	YFFY	DXXD	ZHHZ	LWWL	CPPC	küssen	vertrauen	genießen	gütig	sonnig	träumen	krank	versagen	gemein	gierig	sterben	töten	1	acq_USpleas_CSpleas2_RW	acq3_RW	3	15	453	0	300	300	539	50	0	1	1	blank2r.bmp	0	1	+	0	1	blank2r.bmp	492	1	YFFY	492	1	blank2r.bmp	572	2	sonnig	866	1	!	1292	1	!	-1	0	0	0	0	0	0	0	0	0	0	0	0	0	0	0	0	0	0	0	0	0	0	0	0	0	0	0	0	0	0
071519	09:54:26	10:00:08	340446	5.0.10.0	5_exp_RW	45	Rpleas_acq	CS_A	JQQJ	YFFY	DXXD	ZHHZ	LWWL	CPPC	küssen	vertrauen	genießen	gütig	sonnig	träumen	krank	versagen	gemein	gierig	sterben	töten	1	acq_USpleas_CSpleas2_RW	acq3_RW	3	16	453	0	300	300	709	50	0	1	1	blank2r.bmp	0	1	+	0	1	blank2r.bmp	492	1	YFFY	492	1	blank2r.bmp	572	3	träumen	866	1	!	1292	1	!	-1	0	0	0	0	0	0	0	0	0	0	0	0	0	0	0	0	0	0	0	0	0	0	0	0	0	0	0	0	0	0
071519	09:54:26	10:00:10	343045	5.0.10.0	5_exp_RW	45	Rpleas_acq	CS_A	JQQJ	YFFY	DXXD	ZHHZ	LWWL	CPPC	küssen	vertrauen	genießen	gütig	sonnig	träumen	krank	versagen	gemein	gierig	sterben	töten	1	acq_USunple_CSunple1_RW	acq3_RW	3	17	453	0	300	300	593	50	0	0	1	blank2r.bmp	0	1	+	0	1	blank2r.bmp	492	1	DXXD	492	1	blank2r.bmp	572	3	gemein	866	1	FEHLER	1799	1	!	1292	1	!	-1	0	0	0	0	0	0	0	0	0	0	0	0	0	0	0	0	0	0	0	0	0	0	0	0	0	0	0
071519	09:54:26	10:00:12	345151	5.0.10.0	5_exp_RW	45	Rpleas_acq	CS_A	JQQJ	YFFY	DXXD	ZHHZ	LWWL	CPPC	küssen	vertrauen	genießen	gütig	sonnig	träumen	krank	versagen	gemein	gierig	sterben	töten	1	acq_USunple_CSunple2_RW	acq3_RW	3	18	453	1	300	300	519	46	0	1	1	blank2r.bmp	0	1	+	0	1	blank2r.bmp	492	1	ZHHZ	492	1	blank2r.bmp	572	2	sterben	866	1	!	1292	1	!	1426	0	0	0	0	0	0	0	0	0	0	0	0	0	0	0	0	0	0	0	0	0	0	0	0	0	0	0	0	0	0
071519	09:54:26	10:00:15	347470	5.0.10.0	5_exp_RW	45	Rpleas_acq	CS_A	JQQJ	YFFY	DXXD	ZHHZ	LWWL	CPPC	küssen	vertrauen	genießen	gütig	sonnig	träumen	krank	versagen	gemein	gierig	sterben	töten	1	acq_USunple_CSunple2_RW	acq3_RW	3	19	453	1	300	300	514	46	0	1	1	blank2r.bmp	0	1	+	0	1	blank2r.bmp	492	1	ZHHZ	492	1	blank2r.bmp	572	3	töten	866	1	!	1292	1	!	1412	0	0	0	0	0	0	0	0	0	0	0	0	0	0	0	0	0	0	0	0	0	0	0	0	0	0	0	0	0	0
071519	09:54:26	10:00:17	349816	5.0.10.0	5_exp_RW	45	Rpleas_acq	CS_A	JQQJ	YFFY	DXXD	ZHHZ	LWWL	CPPC	küssen	vertrauen	genießen	gütig	sonnig	träumen	krank	versagen	gemein	gierig	sterben	töten	1	acq_USunple_CSunple1_RW	acq3_RW	3	20	453	0	300	300	583	46	0	1	1	blank2r.bmp	0	1	+	0	1	blank2r.bmp	492	1	DXXD	492	1	blank2r.bmp	572	1	krank	866	1	!	1292	1	!	-1	0	0	0	0	0	0	0	0	0	0	0	0	0	0	0	0	0	0	0	0	0	0	0	0	0	0	0	0	0	0
071519	09:54:26	10:00:19	352228	5.0.10.0	5_exp_RW	45	Rpleas_acq	CS_A	JQQJ	YFFY	DXXD	ZHHZ	LWWL	CPPC	küssen	vertrauen	genießen	gütig	sonnig	träumen	krank	versagen	gemein	gierig	sterben	töten	1	acq_USpleas_CSpleas1_RW	acq3_RW	3	21	453	0	300	300	626	50	0	1	1	blank2r.bmp	0	1	+	0	1	blank2r.bmp	492	1	JQQJ	492	1	blank2r.bmp	572	1	küssen	866	1	!	1292	1	!	-1	0	0	0	0	0	0	0	0	0	0	0	0	0	0	0	0	0	0	0	0	0	0	0	0	0	0	0	0	0	0
071519	09:54:26	10:00:22	354694	5.0.10.0	5_exp_RW	45	Rpleas_acq	CS_A	JQQJ	YFFY	DXXD	ZHHZ	LWWL	CPPC	küssen	vertrauen	genießen	gütig	sonnig	träumen	krank	versagen	gemein	gierig	sterben	töten	1	acq_USpleas_CSpleas1_RW	acq3_RW	3	22	453	0	300	300	684	50	0	1	1	blank2r.bmp	0	1	+	0	1	blank2r.bmp	492	1	JQQJ	492	1	blank2r.bmp	572	3	genießen	866	1	!	1292	1	!	-1	0	0	0	0	0	0	0	0	0	0	0	0	0	0	0	0	0	0	0	0	0	0	0	0	0	0	0	0	0	0
071519	09:54:26	10:00:24	357173	5.0.10.0	5_exp_RW	45	Rpleas_acq	CS_A	JQQJ	YFFY	DXXD	ZHHZ	LWWL	CPPC	küssen	vertrauen	genießen	gütig	sonnig	träumen	krank	versagen	gemein	gierig	sterben	töten	1	acq_USunple_CSunple2_RW	acq3_RW	3	23	453	1	300	300	454	50	0	0	1	blank2r.bmp	0	1	+	0	1	blank2r.bmp	492	1	ZHHZ	492	1	blank2r.bmp	572	3	töten	866	1	FEHLER	1679	1	!	1292	1	!	1359	0	0	0	0	0	0	0	0	0	0	0	0	0	0	0	0	0	0	0	0	0	0	0	0	0	0	0
071519	09:54:26	10:00:26	359345	5.0.10.0	5_exp_RW	45	Rpleas_acq	CS_A	JQQJ	YFFY	DXXD	ZHHZ	LWWL	CPPC	küssen	vertrauen	genießen	gütig	sonnig	träumen	krank	versagen	gemein	gierig	sterben	töten	1	acq_USpleas_CSpleas1_RW	acq3_RW	3	24	453	0	300	300	600	50	0	1	1	blank2r.bmp	0	1	+	0	1	blank2r.bmp	492	1	JQQJ	492	1	blank2r.bmp	572	1	küssen	866	1	!	1292	1	!	-1	0	0	0	0	0	0	0	0	0	0	0	0	0	0	0	0	0	0	0	0	0	0	0	0	0	0	0	0	0	0
071519	09:54:26	10:00:51	384068	5.0.10.0	5_exp_RW	45	Rpleas_acq	CS_A	JQQJ	YFFY	DXXD	ZHHZ	LWWL	CPPC	küssen	vertrauen	genießen	gütig	sonnig	träumen	krank	versagen	gemein	gierig	sterben	töten	1	acq_USpleas_CSpleas1_RW	acq4567_RW	4	1	400	0	300	300	2084	50	0	1	1	blank2r.bmp	0	1	+	0	1	blank2r.bmp	492	1	JQQJ	492	1	blank2r.bmp	572	3	genießen	866	1	!	1239	1	!	-1	0	0	0	0	0	0	0	0	0	0	0	0	0	0	0	0	0	0	0	0	0	0	0	0	0	0	0	0	0	0
071519	09:54:26	10:00:54	386401	5.0.10.0	5_exp_RW	45	Rpleas_acq	CS_A	JQQJ	YFFY	DXXD	ZHHZ	LWWL	CPPC	küssen	vertrauen	genießen	gütig	sonnig	träumen	krank	versagen	gemein	gierig	sterben	töten	1	acq_USunple_CSunple1_RW	acq4567_RW	4	2	400	0	300	300	554	46	0	1	1	blank2r.bmp	0	1	+	0	1	blank2r.bmp	492	1	DXXD	492	1	blank2r.bmp	572	2	versagen	866	1	!	1239	1	!	-1	0	0	0	0	0	0	0	0	0	0	0	0	0	0	0	0	0	0	0	0	0	0	0	0	0	0	0	0	0	0
071519	09:54:26	10:00:56	388760	5.0.10.0	5_exp_RW	45	Rpleas_acq	CS_A	JQQJ	YFFY	DXXD	ZHHZ	LWWL	CPPC	küssen	vertrauen	genießen	gütig	sonnig	träumen	krank	versagen	gemein	gierig	sterben	töten	1	acq_USpleas_CSpleas1_RW	acq4567_RW	4	3	400	0	300	300	559	46	0	0	1	blank2r.bmp	0	1	+	0	1	blank2r.bmp	492	1	JQQJ	492	1	blank2r.bmp	572	2	vertrauen	866	1	!	1239	1	!	-1	0	0	0	0	0	0	0	0	0	0	0	0	0	0	0	0	0	0	0	0	0	0	0	0	0	0	0	0	0	0
071519	09:54:26	10:00:58	391065	5.0.10.0	5_exp_RW	45	Rpleas_acq	CS_A	JQQJ	YFFY	DXXD	ZHHZ	LWWL	CPPC	küssen	vertrauen	genießen	gütig	sonnig	träumen	krank	versagen	gemein	gierig	sterben	töten	1	acq_USunple_CSunple2_RW	acq4567_RW	4	4	400	0	300	300	528	50	0	0	1	blank2r.bmp	0	1	+	0	1	blank2r.bmp	492	1	ZHHZ	492	1	blank2r.bmp	572	1	gierig	866	1	!	1239	1	!	-1	0	0	0	0	0	0	0	0	0	0	0	0	0	0	0	0	0	0	0	0	0	0	0	0	0	0	0	0	0	0
071519	09:54:26	10:01:01	393438	5.0.10.0	5_exp_RW	45	Rpleas_acq	CS_A	JQQJ	YFFY	DXXD	ZHHZ	LWWL	CPPC	küssen	vertrauen	genießen	gütig	sonnig	träumen	krank	versagen	gemein	gierig	sterben	töten	1	acq_USpleas_CSpleas1_RW	acq4567_RW	4	5	400	0	300	300	586	50	0	1	1	blank2r.bmp	0	1	+	0	1	blank2r.bmp	492	1	JQQJ	492	1	blank2r.bmp	572	2	vertrauen	866	1	!	1239	1	!	-1	0	0	0	0	0	0	0	0	0	0	0	0	0	0	0	0	0	0	0	0	0	0	0	0	0	0	0	0	0	0
071519	09:54:26	10:01:03	395703	5.0.10.0	5_exp_RW	45	Rpleas_acq	CS_A	JQQJ	YFFY	DXXD	ZHHZ	LWWL	CPPC	küssen	vertrauen	genießen	gütig	sonnig	träumen	krank	versagen	gemein	gierig	sterben	töten	1	acq_USpleas_CSpleas1_RW	acq4567_RW	4	6	400	0	300	300	490	50	0	1	1	blank2r.bmp	0	1	+	0	1	blank2r.bmp	492	1	JQQJ	492	1	blank2r.bmp	572	1	küssen	866	1	!	1239	1	!	-1	0	0	0	0	0	0	0	0	0	0	0	0	0	0	0	0	0	0	0	0	0	0	0	0	0	0	0	0	0	0
071519	09:54:26	10:01:05	397969	5.0.10.0	5_exp_RW	45	Rpleas_acq	CS_A	JQQJ	YFFY	DXXD	ZHHZ	LWWL	CPPC	küssen	vertrauen	genießen	gütig	sonnig	träumen	krank	versagen	gemein	gierig	sterben	töten	1	acq_USunple_CSunple1_RW	acq4567_RW	4	7	400	0	300	300	479	46	0	1	1	blank2r.bmp	0	1	+	0	1	blank2r.bmp	492	1	DXXD	492	1	blank2r.bmp	572	3	gemein	866	1	!	1239	1	!	-1	0	0	0	0	0	0	0	0	0	0	0	0	0	0	0	0	0	0	0	0	0	0	0	0	0	0	0	0	0	0
071519	09:54:26	10:01:08	400541	5.0.10.0	5_exp_RW	45	Rpleas_acq	CS_A	JQQJ	YFFY	DXXD	ZHHZ	LWWL	CPPC	küssen	vertrauen	genießen	gütig	sonnig	träumen	krank	versagen	gemein	gierig	sterben	töten	1	acq_USpleas_CSpleas2_RW	acq4567_RW	4	8	400	0	300	300	792	50	0	1	1	blank2r.bmp	0	1	+	0	1	blank2r.bmp	492	1	YFFY	492	1	blank2r.bmp	572	2	sonnig	866	1	!	1239	1	!	-1	0	0	0	0	0	0	0	0	0	0	0	0	0	0	0	0	0	0	0	0	0	0	0	0	0	0	0	0	0	0
071519	09:54:26	10:01:10	402861	5.0.10.0	5_exp_RW	45	Rpleas_acq	CS_A	JQQJ	YFFY	DXXD	ZHHZ	LWWL	CPPC	küssen	vertrauen	genießen	gütig	sonnig	träumen	krank	versagen	gemein	gierig	sterben	töten	1	acq_USunple_CSunple2_RW	acq4567_RW	4	9	400	0	300	300	537	46	0	1	1	blank2r.bmp	0	1	+	0	1	blank2r.bmp	492	1	ZHHZ	492	1	blank2r.bmp	572	2	sterben	866	1	!	1239	1	!	-1	0	0	0	0	0	0	0	0	0	0	0	0	0	0	0	0	0	0	0	0	0	0	0	0	0	0	0	0	0	0
071519	09:54:26	10:01:13	405379	5.0.10.0	5_exp_RW	45	Rpleas_acq	CS_A	JQQJ	YFFY	DXXD	ZHHZ	LWWL	CPPC	küssen	vertrauen	genießen	gütig	sonnig	träumen	krank	versagen	gemein	gierig	sterben	töten	1	acq_USpleas_CSpleas2_RW	acq4567_RW	4	10	400	0	300	300	740	50	0	1	1	blank2r.bmp	0	1	+	0	1	blank2r.bmp	492	1	YFFY	492	1	blank2r.bmp	572	1	gütig	866	1	!	1239	1	!	-1	0	0	0	0	0	0	0	0	0	0	0	0	0	0	0	0	0	0	0	0	0	0	0	0	0	0	0	0	0	0
071519	09:54:26	10:01:15	407645	5.0.10.0	5_exp_RW	45	Rpleas_acq	CS_A	JQQJ	YFFY	DXXD	ZHHZ	LWWL	CPPC	küssen	vertrauen	genießen	gütig	sonnig	träumen	krank	versagen	gemein	gierig	sterben	töten	1	acq_USpleas_CSpleas2_RW	acq4567_RW	4	11	400	0	300	300	487	50	0	1	1	blank2r.bmp	0	1	+	0	1	blank2r.bmp	492	1	YFFY	492	1	blank2r.bmp	572	1	gütig	866	1	!	1239	1	!	-1	0	0	0	0	0	0	0	0	0	0	0	0	0	0	0	0	0	0	0	0	0	0	0	0	0	0	0	0	0	0
071519	09:54:26	10:01:17	409938	5.0.10.0	5_exp_RW	45	Rpleas_acq	CS_A	JQQJ	YFFY	DXXD	ZHHZ	LWWL	CPPC	küssen	vertrauen	genießen	gütig	sonnig	träumen	krank	versagen	gemein	gierig	sterben	töten	1	acq_USunple_CSunple1_RW	acq4567_RW	4	12	400	0	300	300	501	46	0	1	1	blank2r.bmp	0	1	+	0	1	blank2r.bmp	492	1	DXXD	492	1	blank2r.bmp	572	1	krank	866	1	!	1239	1	!	-1	0	0	0	0	0	0	0	0	0	0	0	0	0	0	0	0	0	0	0	0	0	0	0	0	0	0	0	0	0	0
071519	09:54:26	10:01:19	412363	5.0.10.0	5_exp_RW	45	Rpleas_acq	CS_A	JQQJ	YFFY	DXXD	ZHHZ	LWWL	CPPC	küssen	vertrauen	genießen	gütig	sonnig	träumen	krank	versagen	gemein	gierig	sterben	töten	1	acq_USunple_CSunple2_RW	acq4567_RW	4	13	400	0	300	300	638	46	0	1	1	blank2r.bmp	0	1	+	0	1	blank2r.bmp	492	1	ZHHZ	492	1	blank2r.bmp	572	1	gierig	866	1	!	1239	1	!	-1	0	0	0	0	0	0	0	0	0	0	0	0	0	0	0	0	0	0	0	0	0	0	0	0	0	0	0	0	0	0
071519	09:54:26	10:01:22	414682	5.0.10.0	5_exp_RW	45	Rpleas_acq	CS_A	JQQJ	YFFY	DXXD	ZHHZ	LWWL	CPPC	küssen	vertrauen	genießen	gütig	sonnig	träumen	krank	versagen	gemein	gierig	sterben	töten	1	acq_USunple_CSunple1_RW	acq4567_RW	4	14	400	0	300	300	533	46	0	1	1	blank2r.bmp	0	1	+	0	1	blank2r.bmp	492	1	DXXD	492	1	blank2r.bmp	572	2	versagen	866	1	!	1239	1	!	-1	0	0	0	0	0	0	0	0	0	0	0	0	0	0	0	0	0	0	0	0	0	0	0	0	0	0	0	0	0	0
071519	09:54:26	10:01:24	417041	5.0.10.0	5_exp_RW	45	Rpleas_acq	CS_A	JQQJ	YFFY	DXXD	ZHHZ	LWWL	CPPC	küssen	vertrauen	genießen	gütig	sonnig	träumen	krank	versagen	gemein	gierig	sterben	töten	1	acq_USpleas_CSpleas2_RW	acq4567_RW	4	15	400	0	300	300	566	50	0	1	1	blank2r.bmp	0	1	+	0	1	blank2r.bmp	492	1	YFFY	492	1	blank2r.bmp	572	3	träumen	866	1	!	1239	1	!	-1	0	0	0	0	0	0	0	0	0	0	0	0	0	0	0	0	0	0	0	0	0	0	0	0	0	0	0	0	0	0
071519	09:54:26	10:01:26	419280	5.0.10.0	5_exp_RW	45	Rpleas_acq	CS_A	JQQJ	YFFY	DXXD	ZHHZ	LWWL	CPPC	küssen	vertrauen	genießen	gütig	sonnig	träumen	krank	versagen	gemein	gierig	sterben	töten	1	acq_USunple_CSunple2_RW	acq4567_RW	4	16	400	1	300	300	432	50	0	0	1	blank2r.bmp	0	1	+	0	1	blank2r.bmp	492	1	ZHHZ	492	1	blank2r.bmp	572	2	sterben	866	1	!	1239	1	!	1332	0	0	0	0	0	0	0	0	0	0	0	0	0	0	0	0	0	0	0	0	0	0	0	0	0	0	0	0	0	0
071519	09:54:26	10:01:29	421546	5.0.10.0	5_exp_RW	45	Rpleas_acq	CS_A	JQQJ	YFFY	DXXD	ZHHZ	LWWL	CPPC	küssen	vertrauen	genießen	gütig	sonnig	träumen	krank	versagen	gemein	gierig	sterben	töten	1	acq_USpleas_CSpleas2_RW	acq4567_RW	4	17	400	0	300	300	491	50	0	1	1	blank2r.bmp	0	1	+	0	1	blank2r.bmp	492	1	YFFY	492	1	blank2r.bmp	572	2	sonnig	866	1	!	1239	1	!	-1	0	0	0	0	0	0	0	0	0	0	0	0	0	0	0	0	0	0	0	0	0	0	0	0	0	0	0	0	0	0
071519	09:54:26	10:01:31	423905	5.0.10.0	5_exp_RW	45	Rpleas_acq	CS_A	JQQJ	YFFY	DXXD	ZHHZ	LWWL	CPPC	küssen	vertrauen	genießen	gütig	sonnig	träumen	krank	versagen	gemein	gierig	sterben	töten	1	acq_USpleas_CSpleas1_RW	acq4567_RW	4	18	400	0	300	300	569	50	0	1	1	blank2r.bmp	0	1	+	0	1	blank2r.bmp	492	1	JQQJ	492	1	blank2r.bmp	572	3	genießen	866	1	!	1239	1	!	-1	0	0	0	0	0	0	0	0	0	0	0	0	0	0	0	0	0	0	0	0	0	0	0	0	0	0	0	0	0	0
071519	09:54:26	10:01:33	426144	5.0.10.0	5_exp_RW	45	Rpleas_acq	CS_A	JQQJ	YFFY	DXXD	ZHHZ	LWWL	CPPC	küssen	vertrauen	genießen	gütig	sonnig	träumen	krank	versagen	gemein	gierig	sterben	töten	1	acq_USunple_CSunple1_RW	acq4567_RW	4	19	400	1	300	300	426	50	0	0	1	blank2r.bmp	0	1	+	0	1	blank2r.bmp	492	1	DXXD	492	1	blank2r.bmp	572	3	gemein	866	1	!	1239	1	!	1332	0	0	0	0	0	0	0	0	0	0	0	0	0	0	0	0	0	0	0	0	0	0	0	0	0	0	0	0	0	0
071519	09:54:26	10:01:36	428397	5.0.10.0	5_exp_RW	45	Rpleas_acq	CS_A	JQQJ	YFFY	DXXD	ZHHZ	LWWL	CPPC	küssen	vertrauen	genießen	gütig	sonnig	träumen	krank	versagen	gemein	gierig	sterben	töten	1	acq_USunple_CSunple2_RW	acq4567_RW	4	20	400	1	300	300	439	46	0	1	1	blank2r.bmp	0	1	+	0	1	blank2r.bmp	492	1	ZHHZ	492	1	blank2r.bmp	572	3	töten	866	1	!	1239	1	!	1346	0	0	0	0	0	0	0	0	0	0	0	0	0	0	0	0	0	0	0	0	0	0	0	0	0	0	0	0	0	0
071519	09:54:26	10:01:38	430862	5.0.10.0	5_exp_RW	45	Rpleas_acq	CS_A	JQQJ	YFFY	DXXD	ZHHZ	LWWL	CPPC	küssen	vertrauen	genießen	gütig	sonnig	träumen	krank	versagen	gemein	gierig	sterben	töten	1	acq_USpleas_CSpleas1_RW	acq4567_RW	4	21	400	0	300	300	704	50	0	1	1	blank2r.bmp	0	1	+	0	1	blank2r.bmp	492	1	JQQJ	492	1	blank2r.bmp	572	1	küssen	866	1	!	1239	1	!	-1	0	0	0	0	0	0	0	0	0	0	0	0	0	0	0	0	0	0	0	0	0	0	0	0	0	0	0	0	0	0
071519	09:54:26	10:01:40	433088	5.0.10.0	5_exp_RW	45	Rpleas_acq	CS_A	JQQJ	YFFY	DXXD	ZHHZ	LWWL	CPPC	küssen	vertrauen	genießen	gütig	sonnig	träumen	krank	versagen	gemein	gierig	sterben	töten	1	acq_USunple_CSunple2_RW	acq4567_RW	4	22	400	1	300	300	419	46	0	1	1	blank2r.bmp	0	1	+	0	1	blank2r.bmp	492	1	ZHHZ	492	1	blank2r.bmp	572	3	töten	866	1	!	1239	1	!	1319	0	0	0	0	0	0	0	0	0	0	0	0	0	0	0	0	0	0	0	0	0	0	0	0	0	0	0	0	0	0
071519	09:54:26	10:01:42	435354	5.0.10.0	5_exp_RW	45	Rpleas_acq	CS_A	JQQJ	YFFY	DXXD	ZHHZ	LWWL	CPPC	küssen	vertrauen	genießen	gütig	sonnig	träumen	krank	versagen	gemein	gierig	sterben	töten	1	acq_USpleas_CSpleas2_RW	acq4567_RW	4	23	400	1	300	300	452	50	0	1	1	blank2r.bmp	0	1	+	0	1	blank2r.bmp	492	1	YFFY	492	1	blank2r.bmp	572	2	sonnig	866	1	!	1239	1	!	1359	0	0	0	0	0	0	0	0	0	0	0	0	0	0	0	0	0	0	0	0	0	0	0	0	0	0	0	0	0	0
071519	09:54:26	10:01:45	437606	5.0.10.0	5_exp_RW	45	Rpleas_acq	CS_A	JQQJ	YFFY	DXXD	ZHHZ	LWWL	CPPC	küssen	vertrauen	genießen	gütig	sonnig	träumen	krank	versagen	gemein	gierig	sterben	töten	1	acq_USpleas_CSpleas2_RW	acq4567_RW	4	24	400	1	300	300	464	46	0	0	1	blank2r.bmp	0	1	+	0	1	blank2r.bmp	492	1	YFFY	492	1	blank2r.bmp	572	3	träumen	866	1	!	1239	1	!	1359	0	0	0	0	0	0	0	0	0	0	0	0	0	0	0	0	0	0	0	0	0	0	0	0	0	0	0	0	0	0
071519	09:54:26	10:01:47	439979	5.0.10.0	5_exp_RW	45	Rpleas_acq	CS_A	JQQJ	YFFY	DXXD	ZHHZ	LWWL	CPPC	küssen	vertrauen	genießen	gütig	sonnig	träumen	krank	versagen	gemein	gierig	sterben	töten	1	acq_USunple_CSunple2_RW	acq4567_RW	4	25	400	0	300	300	602	46	0	1	1	blank2r.bmp	0	1	+	0	1	blank2r.bmp	492	1	ZHHZ	492	1	blank2r.bmp	572	2	sterben	866	1	!	1239	1	!	-1	0	0	0	0	0	0	0	0	0	0	0	0	0	0	0	0	0	0	0	0	0	0	0	0	0	0	0	0	0	0
071519	09:54:26	10:01:49	442204	5.0.10.0	5_exp_RW	45	Rpleas_acq	CS_A	JQQJ	YFFY	DXXD	ZHHZ	LWWL	CPPC	küssen	vertrauen	genießen	gütig	sonnig	träumen	krank	versagen	gemein	gierig	sterben	töten	1	acq_USpleas_CSpleas1_RW	acq4567_RW	4	26	400	1	300	300	417	50	0	1	1	blank2r.bmp	0	1	+	0	1	blank2r.bmp	492	1	JQQJ	492	1	blank2r.bmp	572	3	genießen	866	1	!	1239	1	!	1319	0	0	0	0	0	0	0	0	0	0	0	0	0	0	0	0	0	0	0	0	0	0	0	0	0	0	0	0	0	0
071519	09:54:26	10:01:52	444483	5.0.10.0	5_exp_RW	45	Rpleas_acq	CS_A	JQQJ	YFFY	DXXD	ZHHZ	LWWL	CPPC	küssen	vertrauen	genießen	gütig	sonnig	träumen	krank	versagen	gemein	gierig	sterben	töten	1	acq_USunple_CSunple2_RW	acq4567_RW	4	27	400	0	300	300	510	50	0	0	1	blank2r.bmp	0	1	+	0	1	blank2r.bmp	492	1	ZHHZ	492	1	blank2r.bmp	572	1	gierig	866	1	!	1239	1	!	-1	0	0	0	0	0	0	0	0	0	0	0	0	0	0	0	0	0	0	0	0	0	0	0	0	0	0	0	0	0	0
071519	09:54:26	10:01:54	446803	5.0.10.0	5_exp_RW	45	Rpleas_acq	CS_A	JQQJ	YFFY	DXXD	ZHHZ	LWWL	CPPC	küssen	vertrauen	genießen	gütig	sonnig	träumen	krank	versagen	gemein	gierig	sterben	töten	1	acq_USunple_CSunple1_RW	acq4567_RW	4	28	400	0	300	300	544	46	0	1	1	blank2r.bmp	0	1	+	0	1	blank2r.bmp	492	1	DXXD	492	1	blank2r.bmp	572	2	versagen	866	1	!	1239	1	!	-1	0	0	0	0	0	0	0	0	0	0	0	0	0	0	0	0	0	0	0	0	0	0	0	0	0	0	0	0	0	0
071519	09:54:26	10:01:56	449055	5.0.10.0	5_exp_RW	45	Rpleas_acq	CS_A	JQQJ	YFFY	DXXD	ZHHZ	LWWL	CPPC	küssen	vertrauen	genießen	gütig	sonnig	träumen	krank	versagen	gemein	gierig	sterben	töten	1	acq_USunple_CSunple1_RW	acq4567_RW	4	29	400	1	300	300	436	50	0	0	1	blank2r.bmp	0	1	+	0	1	blank2r.bmp	492	1	DXXD	492	1	blank2r.bmp	572	1	krank	866	1	!	1239	1	!	1332	0	0	0	0	0	0	0	0	0	0	0	0	0	0	0	0	0	0	0	0	0	0	0	0	0	0	0	0	0	0
071519	09:54:26	10:01:58	451294	5.0.10.0	5_exp_RW	45	Rpleas_acq	CS_A	JQQJ	YFFY	DXXD	ZHHZ	LWWL	CPPC	küssen	vertrauen	genießen	gütig	sonnig	träumen	krank	versagen	gemein	gierig	sterben	töten	1	acq_USunple_CSunple2_RW	acq4567_RW	4	30	400	1	300	300	446	46	0	1	1	blank2r.bmp	0	1	+	0	1	blank2r.bmp	492	1	ZHHZ	492	1	blank2r.bmp	572	1	gierig	866	1	!	1239	1	!	1346	0	0	0	0	0	0	0	0	0	0	0	0	0	0	0	0	0	0	0	0	0	0	0	0	0	0	0	0	0	0
071519	09:54:26	10:02:01	453586	5.0.10.0	5_exp_RW	45	Rpleas_acq	CS_A	JQQJ	YFFY	DXXD	ZHHZ	LWWL	CPPC	küssen	vertrauen	genießen	gütig	sonnig	träumen	krank	versagen	gemein	gierig	sterben	töten	1	acq_USpleas_CSpleas1_RW	acq4567_RW	4	31	400	0	300	300	530	50	0	1	1	blank2r.bmp	0	1	+	0	1	blank2r.bmp	492	1	JQQJ	492	1	blank2r.bmp	572	2	vertrauen	866	1	!	1239	1	!	-1	0	0	0	0	0	0	0	0	0	0	0	0	0	0	0	0	0	0	0	0	0	0	0	0	0	0	0	0	0	0
071519	09:54:26	10:02:03	455839	5.0.10.0	5_exp_RW	45	Rpleas_acq	CS_A	JQQJ	YFFY	DXXD	ZHHZ	LWWL	CPPC	küssen	vertrauen	genießen	gütig	sonnig	träumen	krank	versagen	gemein	gierig	sterben	töten	1	acq_USunple_CSunple1_RW	acq4567_RW	4	32	400	1	300	300	449	46	0	1	1	blank2r.bmp	0	1	+	0	1	blank2r.bmp	492	1	DXXD	492	1	blank2r.bmp	572	3	gemein	866	1	!	1239	1	!	1346	0	0	0	0	0	0	0	0	0	0	0	0	0	0	0	0	0	0	0	0	0	0	0	0	0	0	0	0	0	0
071519	09:54:26	10:02:05	458091	5.0.10.0	5_exp_RW	45	Rpleas_acq	CS_A	JQQJ	YFFY	DXXD	ZHHZ	LWWL	CPPC	küssen	vertrauen	genießen	gütig	sonnig	träumen	krank	versagen	gemein	gierig	sterben	töten	1	acq_USpleas_CSpleas2_RW	acq4567_RW	4	33	400	0	300	300	486	50	0	1	1	blank2r.bmp	0	1	+	0	1	blank2r.bmp	492	1	YFFY	492	1	blank2r.bmp	572	1	gütig	866	1	!	1239	1	!	-1	0	0	0	0	0	0	0	0	0	0	0	0	0	0	0	0	0	0	0	0	0	0	0	0	0	0	0	0	0	0
071519	09:54:26	10:02:08	460384	5.0.10.0	5_exp_RW	45	Rpleas_acq	CS_A	JQQJ	YFFY	DXXD	ZHHZ	LWWL	CPPC	küssen	vertrauen	genießen	gütig	sonnig	träumen	krank	versagen	gemein	gierig	sterben	töten	1	acq_USpleas_CSpleas1_RW	acq4567_RW	4	34	400	0	300	300	518	46	0	0	1	blank2r.bmp	0	1	+	0	1	blank2r.bmp	492	1	JQQJ	492	1	blank2r.bmp	572	3	genießen	866	1	!	1239	1	!	-1	0	0	0	0	0	0	0	0	0	0	0	0	0	0	0	0	0	0	0	0	0	0	0	0	0	0	0	0	0	0
071519	09:54:26	10:02:10	462609	5.0.10.0	5_exp_RW	45	Rpleas_acq	CS_A	JQQJ	YFFY	DXXD	ZHHZ	LWWL	CPPC	küssen	vertrauen	genießen	gütig	sonnig	träumen	krank	versagen	gemein	gierig	sterben	töten	1	acq_USpleas_CSpleas2_RW	acq4567_RW	4	35	400	1	300	300	425	46	0	0	1	blank2r.bmp	0	1	+	0	1	blank2r.bmp	492	1	YFFY	492	1	blank2r.bmp	572	2	sonnig	866	1	!	1239	1	!	1319	0	0	0	0	0	0	0	0	0	0	0	0	0	0	0	0	0	0	0	0	0	0	0	0	0	0	0	0	0	0
071519	09:54:26	10:02:12	464915	5.0.10.0	5_exp_RW	45	Rpleas_acq	CS_A	JQQJ	YFFY	DXXD	ZHHZ	LWWL	CPPC	küssen	vertrauen	genießen	gütig	sonnig	träumen	krank	versagen	gemein	gierig	sterben	töten	1	acq_USunple_CSunple2_RW	acq4567_RW	4	36	400	0	300	300	539	46	0	1	1	blank2r.bmp	0	1	+	0	1	blank2r.bmp	492	1	ZHHZ	492	1	blank2r.bmp	572	2	sterben	866	1	!	1239	1	!	-1	0	0	0	0	0	0	0	0	0	0	0	0	0	0	0	0	0	0	0	0	0	0	0	0	0	0	0	0	0	0
071519	09:54:26	10:02:14	467167	5.0.10.0	5_exp_RW	45	Rpleas_acq	CS_A	JQQJ	YFFY	DXXD	ZHHZ	LWWL	CPPC	küssen	vertrauen	genießen	gütig	sonnig	träumen	krank	versagen	gemein	gierig	sterben	töten	1	acq_USpleas_CSpleas1_RW	acq4567_RW	4	37	400	1	300	300	444	50	0	1	1	blank2r.bmp	0	1	+	0	1	blank2r.bmp	492	1	JQQJ	492	1	blank2r.bmp	572	1	küssen	866	1	!	1239	1	!	1346	0	0	0	0	0	0	0	0	0	0	0	0	0	0	0	0	0	0	0	0	0	0	0	0	0	0	0	0	0	0
071519	09:54:26	10:02:17	469447	5.0.10.0	5_exp_RW	45	Rpleas_acq	CS_A	JQQJ	YFFY	DXXD	ZHHZ	LWWL	CPPC	küssen	vertrauen	genießen	gütig	sonnig	träumen	krank	versagen	gemein	gierig	sterben	töten	1	acq_USpleas_CSpleas2_RW	acq4567_RW	4	38	400	0	300	300	518	50	0	1	1	blank2r.bmp	0	1	+	0	1	blank2r.bmp	492	1	YFFY	492	1	blank2r.bmp	572	1	gütig	866	1	!	1239	1	!	-1	0	0	0	0	0	0	0	0	0	0	0	0	0	0	0	0	0	0	0	0	0	0	0	0	0	0	0	0	0	0
071519	09:54:26	10:02:19	471752	5.0.10.0	5_exp_RW	45	Rpleas_acq	CS_A	JQQJ	YFFY	DXXD	ZHHZ	LWWL	CPPC	küssen	vertrauen	genießen	gütig	sonnig	träumen	krank	versagen	gemein	gierig	sterben	töten	1	acq_USunple_CSunple1_RW	acq4567_RW	4	39	400	0	300	300	529	50	0	0	1	blank2r.bmp	0	1	+	0	1	blank2r.bmp	492	1	DXXD	492	1	blank2r.bmp	572	3	gemein	866	1	!	1239	1	!	-1	0	0	0	0	0	0	0	0	0	0	0	0	0	0	0	0	0	0	0	0	0	0	0	0	0	0	0	0	0	0
071519	09:54:26	10:02:21	474031	5.0.10.0	5_exp_RW	45	Rpleas_acq	CS_A	JQQJ	YFFY	DXXD	ZHHZ	LWWL	CPPC	küssen	vertrauen	genießen	gütig	sonnig	träumen	krank	versagen	gemein	gierig	sterben	töten	1	acq_USunple_CSunple1_RW	acq4567_RW	4	40	400	0	300	300	492	46	0	1	1	blank2r.bmp	0	1	+	0	1	blank2r.bmp	492	1	DXXD	492	1	blank2r.bmp	572	2	versagen	866	1	!	1239	1	!	-1	0	0	0	0	0	0	0	0	0	0	0	0	0	0	0	0	0	0	0	0	0	0	0	0	0	0	0	0	0	0
071519	09:54:26	10:02:23	476297	5.0.10.0	5_exp_RW	45	Rpleas_acq	CS_A	JQQJ	YFFY	DXXD	ZHHZ	LWWL	CPPC	küssen	vertrauen	genießen	gütig	sonnig	träumen	krank	versagen	gemein	gierig	sterben	töten	1	acq_USunple_CSunple2_RW	acq4567_RW	4	41	400	0	300	300	480	46	0	1	1	blank2r.bmp	0	1	+	0	1	blank2r.bmp	492	1	ZHHZ	492	1	blank2r.bmp	572	3	töten	866	1	!	1239	1	!	-1	0	0	0	0	0	0	0	0	0	0	0	0	0	0	0	0	0	0	0	0	0	0	0	0	0	0	0	0	0	0
071519	09:54:26	10:02:26	478563	5.0.10.0	5_exp_RW	45	Rpleas_acq	CS_A	JQQJ	YFFY	DXXD	ZHHZ	LWWL	CPPC	küssen	vertrauen	genießen	gütig	sonnig	träumen	krank	versagen	gemein	gierig	sterben	töten	1	acq_USpleas_CSpleas1_RW	acq4567_RW	4	42	400	0	300	300	486	46	0	0	1	blank2r.bmp	0	1	+	0	1	blank2r.bmp	492	1	JQQJ	492	1	blank2r.bmp	572	2	vertrauen	866	1	!	1239	1	!	-1	0	0	0	0	0	0	0	0	0	0	0	0	0	0	0	0	0	0	0	0	0	0	0	0	0	0	0	0	0	0
071519	09:54:26	10:02:28	480882	5.0.10.0	5_exp_RW	45	Rpleas_acq	CS_A	JQQJ	YFFY	DXXD	ZHHZ	LWWL	CPPC	küssen	vertrauen	genießen	gütig	sonnig	träumen	krank	versagen	gemein	gierig	sterben	töten	1	acq_USunple_CSunple1_RW	acq4567_RW	4	43	400	0	300	300	522	46	0	1	1	blank2r.bmp	0	1	+	0	1	blank2r.bmp	492	1	DXXD	492	1	blank2r.bmp	572	1	krank	866	1	!	1239	1	!	-1	0	0	0	0	0	0	0	0	0	0	0	0	0	0	0	0	0	0	0	0	0	0	0	0	0	0	0	0	0	0
071519	09:54:26	10:02:30	483134	5.0.10.0	5_exp_RW	45	Rpleas_acq	CS_A	JQQJ	YFFY	DXXD	ZHHZ	LWWL	CPPC	küssen	vertrauen	genießen	gütig	sonnig	träumen	krank	versagen	gemein	gierig	sterben	töten	1	acq_USunple_CSunple2_RW	acq4567_RW	4	44	400	1	300	300	451	46	0	1	1	blank2r.bmp	0	1	+	0	1	blank2r.bmp	492	1	ZHHZ	492	1	blank2r.bmp	572	3	töten	866	1	!	1239	1	!	1346	0	0	0	0	0	0	0	0	0	0	0	0	0	0	0	0	0	0	0	0	0	0	0	0	0	0	0	0	0	0
071519	09:54:26	10:02:33	485373	5.0.10.0	5_exp_RW	45	Rpleas_acq	CS_A	JQQJ	YFFY	DXXD	ZHHZ	LWWL	CPPC	küssen	vertrauen	genießen	gütig	sonnig	träumen	krank	versagen	gemein	gierig	sterben	töten	1	acq_USpleas_CSpleas2_RW	acq4567_RW	4	45	400	1	300	300	451	50	0	1	1	blank2r.bmp	0	1	+	0	1	blank2r.bmp	492	1	YFFY	492	1	blank2r.bmp	572	3	träumen	866	1	!	1239	1	!	1346	0	0	0	0	0	0	0	0	0	0	0	0	0	0	0	0	0	0	0	0	0	0	0	0	0	0	0	0	0	0
071519	09:54:26	10:02:35	487626	5.0.10.0	5_exp_RW	45	Rpleas_acq	CS_A	JQQJ	YFFY	DXXD	ZHHZ	LWWL	CPPC	küssen	vertrauen	genießen	gütig	sonnig	träumen	krank	versagen	gemein	gierig	sterben	töten	1	acq_USpleas_CSpleas2_RW	acq4567_RW	4	46	400	0	300	300	479	50	0	1	1	blank2r.bmp	0	1	+	0	1	blank2r.bmp	492	1	YFFY	492	1	blank2r.bmp	572	3	träumen	866	1	!	1239	1	!	-1	0	0	0	0	0	0	0	0	0	0	0	0	0	0	0	0	0	0	0	0	0	0	0	0	0	0	0	0	0	0
071519	09:54:26	10:02:37	489918	5.0.10.0	5_exp_RW	45	Rpleas_acq	CS_A	JQQJ	YFFY	DXXD	ZHHZ	LWWL	CPPC	küssen	vertrauen	genießen	gütig	sonnig	träumen	krank	versagen	gemein	gierig	sterben	töten	1	acq_USpleas_CSpleas1_RW	acq4567_RW	4	47	400	0	300	300	508	50	0	1	1	blank2r.bmp	0	1	+	0	1	blank2r.bmp	492	1	JQQJ	492	1	blank2r.bmp	572	3	genießen	866	1	!	1239	1	!	-1	0	0	0	0	0	0	0	0	0	0	0	0	0	0	0	0	0	0	0	0	0	0	0	0	0	0	0	0	0	0
071519	09:54:26	10:02:39	492184	5.0.10.0	5_exp_RW	45	Rpleas_acq	CS_A	JQQJ	YFFY	DXXD	ZHHZ	LWWL	CPPC	küssen	vertrauen	genießen	gütig	sonnig	träumen	krank	versagen	gemein	gierig	sterben	töten	1	acq_USpleas_CSpleas2_RW	acq4567_RW	4	48	400	1	300	300	462	50	0	1	1	blank2r.bmp	0	1	+	0	1	blank2r.bmp	492	1	YFFY	492	1	blank2r.bmp	572	2	sonnig	866	1	!	1239	1	!	1359	0	0	0	0	0	0	0	0	0	0	0	0	0	0	0	0	0	0	0	0	0	0	0	0	0	0	0	0	0	0
071519	09:54:26	10:02:42	494410	5.0.10.0	5_exp_RW	45	Rpleas_acq	CS_A	JQQJ	YFFY	DXXD	ZHHZ	LWWL	CPPC	küssen	vertrauen	genießen	gütig	sonnig	träumen	krank	versagen	gemein	gierig	sterben	töten	1	acq_USpleas_CSpleas1_RW	acq4567_RW	4	49	400	1	300	300	437	46	0	0	1	blank2r.bmp	0	1	+	0	1	blank2r.bmp	492	1	JQQJ	492	1	blank2r.bmp	572	1	küssen	866	1	!	1239	1	!	1332	0	0	0	0	0	0	0	0	0	0	0	0	0	0	0	0	0	0	0	0	0	0	0	0	0	0	0	0	0	0
071519	09:54:26	10:02:44	496902	5.0.10.0	5_exp_RW	45	Rpleas_acq	CS_A	JQQJ	YFFY	DXXD	ZHHZ	LWWL	CPPC	küssen	vertrauen	genießen	gütig	sonnig	träumen	krank	versagen	gemein	gierig	sterben	töten	1	acq_USpleas_CSpleas1_RW	acq4567_RW	4	50	400	0	300	300	707	50	0	1	1	blank2r.bmp	0	1	+	0	1	blank2r.bmp	492	1	JQQJ	492	1	blank2r.bmp	572	2	vertrauen	866	1	!	1239	1	!	-1	0	0	0	0	0	0	0	0	0	0	0	0	0	0	0	0	0	0	0	0	0	0	0	0	0	0	0	0	0	0
071519	09:54:26	10:02:46	499248	5.0.10.0	5_exp_RW	45	Rpleas_acq	CS_A	JQQJ	YFFY	DXXD	ZHHZ	LWWL	CPPC	küssen	vertrauen	genießen	gütig	sonnig	träumen	krank	versagen	gemein	gierig	sterben	töten	1	acq_USpleas_CSpleas1_RW	acq4567_RW	4	51	400	0	300	300	563	50	0	1	1	blank2r.bmp	0	1	+	0	1	blank2r.bmp	492	1	JQQJ	492	1	blank2r.bmp	572	3	genießen	866	1	!	1239	1	!	-1	0	0	0	0	0	0	0	0	0	0	0	0	0	0	0	0	0	0	0	0	0	0	0	0	0	0	0	0	0	0
071519	09:54:26	10:02:49	501407	5.0.10.0	5_exp_RW	45	Rpleas_acq	CS_A	JQQJ	YFFY	DXXD	ZHHZ	LWWL	CPPC	küssen	vertrauen	genießen	gütig	sonnig	träumen	krank	versagen	gemein	gierig	sterben	töten	1	acq_USunple_CSunple2_RW	acq4567_RW	4	52	400	1	300	300	346	46	0	1	1	blank2r.bmp	0	1	+	0	1	blank2r.bmp	492	1	ZHHZ	492	1	blank2r.bmp	572	2	sterben	866	1	!	1239	1	!	1252	0	0	0	0	0	0	0	0	0	0	0	0	0	0	0	0	0	0	0	0	0	0	0	0	0	0	0	0	0	0
071519	09:54:26	10:02:51	503606	5.0.10.0	5_exp_RW	45	Rpleas_acq	CS_A	JQQJ	YFFY	DXXD	ZHHZ	LWWL	CPPC	küssen	vertrauen	genießen	gütig	sonnig	träumen	krank	versagen	gemein	gierig	sterben	töten	1	acq_USunple_CSunple1_RW	acq4567_RW	4	53	400	1	300	300	406	50	0	0	1	blank2r.bmp	0	1	+	0	1	blank2r.bmp	492	1	DXXD	492	1	blank2r.bmp	572	3	gemein	866	1	!	1239	1	!	1306	0	0	0	0	0	0	0	0	0	0	0	0	0	0	0	0	0	0	0	0	0	0	0	0	0	0	0	0	0	0
071519	09:54:26	10:02:53	505858	5.0.10.0	5_exp_RW	45	Rpleas_acq	CS_A	JQQJ	YFFY	DXXD	ZHHZ	LWWL	CPPC	küssen	vertrauen	genießen	gütig	sonnig	träumen	krank	versagen	gemein	gierig	sterben	töten	1	acq_USpleas_CSpleas2_RW	acq4567_RW	4	54	400	0	300	300	479	50	0	1	1	blank2r.bmp	0	1	+	0	1	blank2r.bmp	492	1	YFFY	492	1	blank2r.bmp	572	1	gütig	866	1	!	1239	1	!	-1	0	0	0	0	0	0	0	0	0	0	0	0	0	0	0	0	0	0	0	0	0	0	0	0	0	0	0	0	0	0
071519	09:54:26	10:02:55	508191	5.0.10.0	5_exp_RW	45	Rpleas_acq	CS_A	JQQJ	YFFY	DXXD	ZHHZ	LWWL	CPPC	küssen	vertrauen	genießen	gütig	sonnig	träumen	krank	versagen	gemein	gierig	sterben	töten	1	acq_USunple_CSunple2_RW	acq4567_RW	4	55	400	0	300	300	549	50	0	0	1	blank2r.bmp	0	1	+	0	1	blank2r.bmp	492	1	ZHHZ	492	1	blank2r.bmp	572	1	gierig	866	1	!	1239	1	!	-1	0	0	0	0	0	0	0	0	0	0	0	0	0	0	0	0	0	0	0	0	0	0	0	0	0	0	0	0	0	0
071519	09:54:26	10:02:58	510390	5.0.10.0	5_exp_RW	45	Rpleas_acq	CS_A	JQQJ	YFFY	DXXD	ZHHZ	LWWL	CPPC	küssen	vertrauen	genießen	gütig	sonnig	träumen	krank	versagen	gemein	gierig	sterben	töten	1	acq_USunple_CSunple1_RW	acq4567_RW	4	56	400	1	300	300	386	46	0	1	1	blank2r.bmp	0	1	+	0	1	blank2r.bmp	492	1	DXXD	492	1	blank2r.bmp	572	1	krank	866	1	!	1239	1	!	1292	0	0	0	0	0	0	0	0	0	0	0	0	0	0	0	0	0	0	0	0	0	0	0	0	0	0	0	0	0	0
071519	09:54:26	10:03:00	512815	5.0.10.0	5_exp_RW	45	Rpleas_acq	CS_A	JQQJ	YFFY	DXXD	ZHHZ	LWWL	CPPC	küssen	vertrauen	genießen	gütig	sonnig	träumen	krank	versagen	gemein	gierig	sterben	töten	1	acq_USunple_CSunple1_RW	acq4567_RW	4	57	400	0	300	300	651	46	0	1	1	blank2r.bmp	0	1	+	0	1	blank2r.bmp	492	1	DXXD	492	1	blank2r.bmp	572	2	versagen	866	1	!	1239	1	!	-1	0	0	0	0	0	0	0	0	0	0	0	0	0	0	0	0	0	0	0	0	0	0	0	0	0	0	0	0	0	0
071519	09:54:26	10:03:02	515108	5.0.10.0	5_exp_RW	45	Rpleas_acq	CS_A	JQQJ	YFFY	DXXD	ZHHZ	LWWL	CPPC	küssen	vertrauen	genießen	gütig	sonnig	träumen	krank	versagen	gemein	gierig	sterben	töten	1	acq_USunple_CSunple1_RW	acq4567_RW	4	58	400	0	300	300	518	46	0	1	1	blank2r.bmp	0	1	+	0	1	blank2r.bmp	492	1	DXXD	492	1	blank2r.bmp	572	1	krank	866	1	!	1239	1	!	-1	0	0	0	0	0	0	0	0	0	0	0	0	0	0	0	0	0	0	0	0	0	0	0	0	0	0	0	0	0	0
071519	09:54:26	10:03:05	517374	5.0.10.0	5_exp_RW	45	Rpleas_acq	CS_A	JQQJ	YFFY	DXXD	ZHHZ	LWWL	CPPC	küssen	vertrauen	genießen	gütig	sonnig	träumen	krank	versagen	gemein	gierig	sterben	töten	1	acq_USpleas_CSpleas2_RW	acq4567_RW	4	59	400	0	300	300	491	50	0	1	1	blank2r.bmp	0	1	+	0	1	blank2r.bmp	492	1	YFFY	492	1	blank2r.bmp	572	3	träumen	866	1	!	1239	1	!	-1	0	0	0	0	0	0	0	0	0	0	0	0	0	0	0	0	0	0	0	0	0	0	0	0	0	0	0	0	0	0
071519	09:54:26	10:03:07	519733	5.0.10.0	5_exp_RW	45	Rpleas_acq	CS_A	JQQJ	YFFY	DXXD	ZHHZ	LWWL	CPPC	küssen	vertrauen	genießen	gütig	sonnig	träumen	krank	versagen	gemein	gierig	sterben	töten	1	acq_USunple_CSunple2_RW	acq4567_RW	4	60	400	0	300	300	575	46	0	1	1	blank2r.bmp	0	1	+	0	1	blank2r.bmp	492	1	ZHHZ	492	1	blank2r.bmp	572	3	töten	866	1	!	1239	1	!	-1	0	0	0	0	0	0	0	0	0	0	0	0	0	0	0	0	0	0	0	0	0	0	0	0	0	0	0	0	0	0
071519	09:54:26	10:03:09	521972	5.0.10.0	5_exp_RW	45	Rpleas_acq	CS_A	JQQJ	YFFY	DXXD	ZHHZ	LWWL	CPPC	küssen	vertrauen	genießen	gütig	sonnig	träumen	krank	versagen	gemein	gierig	sterben	töten	1	acq_USunple_CSunple2_RW	acq4567_RW	4	61	400	1	300	300	415	46	0	1	1	blank2r.bmp	0	1	+	0	1	blank2r.bmp	492	1	ZHHZ	492	1	blank2r.bmp	572	2	sterben	866	1	!	1239	1	!	1319	0	0	0	0	0	0	0	0	0	0	0	0	0	0	0	0	0	0	0	0	0	0	0	0	0	0	0	0	0	0
071519	09:54:26	10:03:11	524144	5.0.10.0	5_exp_RW	45	Rpleas_acq	CS_A	JQQJ	YFFY	DXXD	ZHHZ	LWWL	CPPC	küssen	vertrauen	genießen	gütig	sonnig	träumen	krank	versagen	gemein	gierig	sterben	töten	1	acq_USpleas_CSpleas2_RW	acq4567_RW	4	62	400	1	300	300	383	50	0	1	1	blank2r.bmp	0	1	+	0	1	blank2r.bmp	492	1	YFFY	492	1	blank2r.bmp	572	2	sonnig	866	1	!	1239	1	!	1279	0	0	0	0	0	0	0	0	0	0	0	0	0	0	0	0	0	0	0	0	0	0	0	0	0	0	0	0	0	0
071519	09:54:26	10:03:14	526410	5.0.10.0	5_exp_RW	45	Rpleas_acq	CS_A	JQQJ	YFFY	DXXD	ZHHZ	LWWL	CPPC	küssen	vertrauen	genießen	gütig	sonnig	träumen	krank	versagen	gemein	gierig	sterben	töten	1	acq_USpleas_CSpleas2_RW	acq4567_RW	4	63	400	0	300	300	479	50	0	1	1	blank2r.bmp	0	1	+	0	1	blank2r.bmp	492	1	YFFY	492	1	blank2r.bmp	572	1	gütig	866	1	!	1239	1	!	-1	0	0	0	0	0	0	0	0	0	0	0	0	0	0	0	0	0	0	0	0	0	0	0	0	0	0	0	0	0	0
071519	09:54:26	10:03:16	528676	5.0.10.0	5_exp_RW	45	Rpleas_acq	CS_A	JQQJ	YFFY	DXXD	ZHHZ	LWWL	CPPC	küssen	vertrauen	genießen	gütig	sonnig	träumen	krank	versagen	gemein	gierig	sterben	töten	1	acq_USunple_CSunple2_RW	acq4567_RW	4	64	400	0	300	300	479	50	0	0	1	blank2r.bmp	0	1	+	0	1	blank2r.bmp	492	1	ZHHZ	492	1	blank2r.bmp	572	1	gierig	866	1	!	1239	1	!	-1	0	0	0	0	0	0	0	0	0	0	0	0	0	0	0	0	0	0	0	0	0	0	0	0	0	0	0	0	0	0
071519	09:54:26	10:03:18	531141	5.0.10.0	5_exp_RW	45	Rpleas_acq	CS_A	JQQJ	YFFY	DXXD	ZHHZ	LWWL	CPPC	küssen	vertrauen	genießen	gütig	sonnig	träumen	krank	versagen	gemein	gierig	sterben	töten	1	acq_USpleas_CSpleas2_RW	acq4567_RW	4	65	400	0	300	300	686	50	0	1	1	blank2r.bmp	0	1	+	0	1	blank2r.bmp	492	1	YFFY	492	1	blank2r.bmp	572	2	sonnig	866	1	!	1239	1	!	-1	0	0	0	0	0	0	0	0	0	0	0	0	0	0	0	0	0	0	0	0	0	0	0	0	0	0	0	0	0	0
071519	09:54:26	10:03:21	533420	5.0.10.0	5_exp_RW	45	Rpleas_acq	CS_A	JQQJ	YFFY	DXXD	ZHHZ	LWWL	CPPC	küssen	vertrauen	genießen	gütig	sonnig	träumen	krank	versagen	gemein	gierig	sterben	töten	1	acq_USpleas_CSpleas1_RW	acq4567_RW	4	66	400	0	300	300	494	50	0	1	1	blank2r.bmp	0	1	+	0	1	blank2r.bmp	492	1	JQQJ	492	1	blank2r.bmp	572	1	küssen	866	1	!	1239	1	!	-1	0	0	0	0	0	0	0	0	0	0	0	0	0	0	0	0	0	0	0	0	0	0	0	0	0	0	0	0	0	0
071519	09:54:26	10:03:23	535646	5.0.10.0	5_exp_RW	45	Rpleas_acq	CS_A	JQQJ	YFFY	DXXD	ZHHZ	LWWL	CPPC	küssen	vertrauen	genießen	gütig	sonnig	träumen	krank	versagen	gemein	gierig	sterben	töten	1	acq_USpleas_CSpleas1_RW	acq4567_RW	4	67	400	1	300	300	416	46	0	0	1	blank2r.bmp	0	1	+	0	1	blank2r.bmp	492	1	JQQJ	492	1	blank2r.bmp	572	2	vertrauen	866	1	!	1239	1	!	1319	0	0	0	0	0	0	0	0	0	0	0	0	0	0	0	0	0	0	0	0	0	0	0	0	0	0	0	0	0	0
071519	09:54:26	10:03:25	537925	5.0.10.0	5_exp_RW	45	Rpleas_acq	CS_A	JQQJ	YFFY	DXXD	ZHHZ	LWWL	CPPC	küssen	vertrauen	genießen	gütig	sonnig	träumen	krank	versagen	gemein	gierig	sterben	töten	1	acq_USpleas_CSpleas1_RW	acq4567_RW	4	68	400	0	300	300	506	50	0	1	1	blank2r.bmp	0	1	+	0	1	blank2r.bmp	492	1	JQQJ	492	1	blank2r.bmp	572	3	genießen	866	1	!	1239	1	!	-1	0	0	0	0	0	0	0	0	0	0	0	0	0	0	0	0	0	0	0	0	0	0	0	0	0	0	0	0	0	0
071519	09:54:26	10:03:27	540218	5.0.10.0	5_exp_RW	45	Rpleas_acq	CS_A	JQQJ	YFFY	DXXD	ZHHZ	LWWL	CPPC	küssen	vertrauen	genießen	gütig	sonnig	träumen	krank	versagen	gemein	gierig	sterben	töten	1	acq_USunple_CSunple1_RW	acq4567_RW	4	69	400	0	300	300	513	46	0	1	1	blank2r.bmp	0	1	+	0	1	blank2r.bmp	492	1	DXXD	492	1	blank2r.bmp	572	3	gemein	866	1	!	1239	1	!	-1	0	0	0	0	0	0	0	0	0	0	0	0	0	0	0	0	0	0	0	0	0	0	0	0	0	0	0	0	0	0
071519	09:54:26	10:03:30	542497	5.0.10.0	5_exp_RW	45	Rpleas_acq	CS_A	JQQJ	YFFY	DXXD	ZHHZ	LWWL	CPPC	küssen	vertrauen	genießen	gütig	sonnig	träumen	krank	versagen	gemein	gierig	sterben	töten	1	acq_USunple_CSunple2_RW	acq4567_RW	4	70	400	0	300	300	496	50	0	0	1	blank2r.bmp	0	1	+	0	1	blank2r.bmp	492	1	ZHHZ	492	1	blank2r.bmp	572	1	gierig	866	1	!	1239	1	!	-1	0	0	0	0	0	0	0	0	0	0	0	0	0	0	0	0	0	0	0	0	0	0	0	0	0	0	0	0	0	0
071519	09:54:26	10:03:32	544762	5.0.10.0	5_exp_RW	45	Rpleas_acq	CS_A	JQQJ	YFFY	DXXD	ZHHZ	LWWL	CPPC	küssen	vertrauen	genießen	gütig	sonnig	träumen	krank	versagen	gemein	gierig	sterben	töten	1	acq_USpleas_CSpleas2_RW	acq4567_RW	4	71	400	0	300	300	485	46	0	0	1	blank2r.bmp	0	1	+	0	1	blank2r.bmp	492	1	YFFY	492	1	blank2r.bmp	572	3	träumen	866	1	!	1239	1	!	-1	0	0	0	0	0	0	0	0	0	0	0	0	0	0	0	0	0	0	0	0	0	0	0	0	0	0	0	0	0	0
071519	09:54:26	10:03:34	547068	5.0.10.0	5_exp_RW	45	Rpleas_acq	CS_A	JQQJ	YFFY	DXXD	ZHHZ	LWWL	CPPC	küssen	vertrauen	genießen	gütig	sonnig	träumen	krank	versagen	gemein	gierig	sterben	töten	1	acq_USunple_CSunple2_RW	acq4567_RW	4	72	400	0	300	300	524	46	0	1	1	blank2r.bmp	0	1	+	0	1	blank2r.bmp	492	1	ZHHZ	492	1	blank2r.bmp	572	2	sterben	866	1	!	1239	1	!	-1	0	0	0	0	0	0	0	0	0	0	0	0	0	0	0	0	0	0	0	0	0	0	0	0	0	0	0	0	0	0
071519	09:54:26	10:03:37	549507	5.0.10.0	5_exp_RW	45	Rpleas_acq	CS_A	JQQJ	YFFY	DXXD	ZHHZ	LWWL	CPPC	küssen	vertrauen	genießen	gütig	sonnig	träumen	krank	versagen	gemein	gierig	sterben	töten	1	acq_USunple_CSunple1_RW	acq4567_RW	4	73	400	0	300	300	657	46	0	1	1	blank2r.bmp	0	1	+	0	1	blank2r.bmp	492	1	DXXD	492	1	blank2r.bmp	572	2	versagen	866	1	!	1239	1	!	-1	0	0	0	0	0	0	0	0	0	0	0	0	0	0	0	0	0	0	0	0	0	0	0	0	0	0	0	0	0	0
071519	09:54:26	10:03:39	551866	5.0.10.0	5_exp_RW	45	Rpleas_acq	CS_A	JQQJ	YFFY	DXXD	ZHHZ	LWWL	CPPC	küssen	vertrauen	genießen	gütig	sonnig	träumen	krank	versagen	gemein	gierig	sterben	töten	1	acq_USunple_CSunple1_RW	acq4567_RW	4	74	400	0	300	300	584	46	0	1	1	blank2r.bmp	0	1	+	0	1	blank2r.bmp	492	1	DXXD	492	1	blank2r.bmp	572	3	gemein	866	1	!	1239	1	!	-1	0	0	0	0	0	0	0	0	0	0	0	0	0	0	0	0	0	0	0	0	0	0	0	0	0	0	0	0	0	0
071519	09:54:26	10:03:42	554358	5.0.10.0	5_exp_RW	45	Rpleas_acq	CS_A	JQQJ	YFFY	DXXD	ZHHZ	LWWL	CPPC	küssen	vertrauen	genießen	gütig	sonnig	träumen	krank	versagen	gemein	gierig	sterben	töten	1	acq_USpleas_CSpleas1_RW	acq4567_RW	4	75	400	0	300	300	695	50	0	1	1	blank2r.bmp	0	1	+	0	1	blank2r.bmp	492	1	JQQJ	492	1	blank2r.bmp	572	2	vertrauen	866	1	!	1239	1	!	-1	0	0	0	0	0	0	0	0	0	0	0	0	0	0	0	0	0	0	0	0	0	0	0	0	0	0	0	0	0	0
071519	09:54:26	10:03:44	556624	5.0.10.0	5_exp_RW	45	Rpleas_acq	CS_A	JQQJ	YFFY	DXXD	ZHHZ	LWWL	CPPC	küssen	vertrauen	genießen	gütig	sonnig	träumen	krank	versagen	gemein	gierig	sterben	töten	1	acq_USunple_CSunple2_RW	acq4567_RW	4	76	400	0	300	300	486	46	0	1	1	blank2r.bmp	0	1	+	0	1	blank2r.bmp	492	1	ZHHZ	492	1	blank2r.bmp	572	3	töten	866	1	!	1239	1	!	-1	0	0	0	0	0	0	0	0	0	0	0	0	0	0	0	0	0	0	0	0	0	0	0	0	0	0	0	0	0	0
071519	09:54:26	10:03:46	558810	5.0.10.0	5_exp_RW	45	Rpleas_acq	CS_A	JQQJ	YFFY	DXXD	ZHHZ	LWWL	CPPC	küssen	vertrauen	genießen	gütig	sonnig	träumen	krank	versagen	gemein	gierig	sterben	töten	1	acq_USpleas_CSpleas2_RW	acq4567_RW	4	77	400	1	300	300	361	46	0	0	1	blank2r.bmp	0	1	+	0	1	blank2r.bmp	492	1	YFFY	492	1	blank2r.bmp	572	1	gütig	866	1	!	1239	1	!	1266	0	0	0	0	0	0	0	0	0	0	0	0	0	0	0	0	0	0	0	0	0	0	0	0	0	0	0	0	0	0
071519	09:54:26	10:03:48	561222	5.0.10.0	5_exp_RW	45	Rpleas_acq	CS_A	JQQJ	YFFY	DXXD	ZHHZ	LWWL	CPPC	küssen	vertrauen	genießen	gütig	sonnig	träumen	krank	versagen	gemein	gierig	sterben	töten	1	acq_USunple_CSunple1_RW	acq4567_RW	4	78	400	0	300	300	644	46	0	1	1	blank2r.bmp	0	1	+	0	1	blank2r.bmp	492	1	DXXD	492	1	blank2r.bmp	572	1	krank	866	1	!	1239	1	!	-1	0	0	0	0	0	0	0	0	0	0	0	0	0	0	0	0	0	0	0	0	0	0	0	0	0	0	0	0	0	0
071519	09:54:26	10:03:51	563515	5.0.10.0	5_exp_RW	45	Rpleas_acq	CS_A	JQQJ	YFFY	DXXD	ZHHZ	LWWL	CPPC	küssen	vertrauen	genießen	gütig	sonnig	träumen	krank	versagen	gemein	gierig	sterben	töten	1	acq_USunple_CSunple1_RW	acq4567_RW	4	79	400	0	300	300	507	46	0	1	1	blank2r.bmp	0	1	+	0	1	blank2r.bmp	492	1	DXXD	492	1	blank2r.bmp	572	2	versagen	866	1	!	1239	1	!	-1	0	0	0	0	0	0	0	0	0	0	0	0	0	0	0	0	0	0	0	0	0	0	0	0	0	0	0	0	0	0
071519	09:54:26	10:03:53	565767	5.0.10.0	5_exp_RW	45	Rpleas_acq	CS_A	JQQJ	YFFY	DXXD	ZHHZ	LWWL	CPPC	küssen	vertrauen	genießen	gütig	sonnig	träumen	krank	versagen	gemein	gierig	sterben	töten	1	acq_USpleas_CSpleas1_RW	acq4567_RW	4	80	400	1	300	300	446	46	0	0	1	blank2r.bmp	0	1	+	0	1	blank2r.bmp	492	1	JQQJ	492	1	blank2r.bmp	572	1	küssen	866	1	!	1239	1	!	1346	0	0	0	0	0	0	0	0	0	0	0	0	0	0	0	0	0	0	0	0	0	0	0	0	0	0	0	0	0	0
071519	09:54:26	10:04:16	589251	5.0.10.0	5_exp_RW	45	Rpleas_acq	CS_A	JQQJ	YFFY	DXXD	ZHHZ	LWWL	CPPC	küssen	vertrauen	genießen	gütig	sonnig	träumen	krank	versagen	gemein	gierig	sterben	töten	1	acq_USpleas_CSpleas1_RW	acq4567_RW	5	1	400	0	300	300	806	50	0	1	1	blank2r.bmp	0	1	+	0	1	blank2r.bmp	492	1	JQQJ	492	1	blank2r.bmp	572	2	vertrauen	866	1	!	1239	1	!	-1	0	0	0	0	0	0	0	0	0	0	0	0	0	0	0	0	0	0	0	0	0	0	0	0	0	0	0	0	0	0
071519	09:54:26	10:04:19	591650	5.0.10.0	5_exp_RW	45	Rpleas_acq	CS_A	JQQJ	YFFY	DXXD	ZHHZ	LWWL	CPPC	küssen	vertrauen	genießen	gütig	sonnig	träumen	krank	versagen	gemein	gierig	sterben	töten	1	acq_USunple_CSunple2_RW	acq4567_RW	5	2	400	0	300	300	612	46	0	1	1	blank2r.bmp	0	1	+	0	1	blank2r.bmp	492	1	ZHHZ	492	1	blank2r.bmp	572	3	töten	866	1	!	1239	1	!	-1	0	0	0	0	0	0	0	0	0	0	0	0	0	0	0	0	0	0	0	0	0	0	0	0	0	0	0	0	0	0
071519	09:54:26	10:04:21	593916	5.0.10.0	5_exp_RW	45	Rpleas_acq	CS_A	JQQJ	YFFY	DXXD	ZHHZ	LWWL	CPPC	küssen	vertrauen	genießen	gütig	sonnig	träumen	krank	versagen	gemein	gierig	sterben	töten	1	acq_USunple_CSunple1_RW	acq4567_RW	5	3	400	0	300	300	482	50	0	0	1	blank2r.bmp	0	1	+	0	1	blank2r.bmp	492	1	DXXD	492	1	blank2r.bmp	572	1	krank	866	1	!	1239	1	!	-1	0	0	0	0	0	0	0	0	0	0	0	0	0	0	0	0	0	0	0	0	0	0	0	0	0	0	0	0	0	0
071519	09:54:26	10:04:23	596128	5.0.10.0	5_exp_RW	45	Rpleas_acq	CS_A	JQQJ	YFFY	DXXD	ZHHZ	LWWL	CPPC	küssen	vertrauen	genießen	gütig	sonnig	träumen	krank	versagen	gemein	gierig	sterben	töten	1	acq_USpleas_CSpleas2_RW	acq4567_RW	5	4	400	1	300	300	405	50	0	1	1	blank2r.bmp	0	1	+	0	1	blank2r.bmp	492	1	YFFY	492	1	blank2r.bmp	572	1	gütig	866	1	!	1239	1	!	1306	0	0	0	0	0	0	0	0	0	0	0	0	0	0	0	0	0	0	0	0	0	0	0	0	0	0	0	0	0	0
071519	09:54:26	10:04:25	598340	5.0.10.0	5_exp_RW	45	Rpleas_acq	CS_A	JQQJ	YFFY	DXXD	ZHHZ	LWWL	CPPC	küssen	vertrauen	genießen	gütig	sonnig	träumen	krank	versagen	gemein	gierig	sterben	töten	1	acq_USunple_CSunple1_RW	acq4567_RW	5	5	400	1	300	300	421	46	0	1	1	blank2r.bmp	0	1	+	0	1	blank2r.bmp	492	1	DXXD	492	1	blank2r.bmp	572	3	gemein	866	1	!	1239	1	!	1319	0	0	0	0	0	0	0	0	0	0	0	0	0	0	0	0	0	0	0	0	0	0	0	0	0	0	0	0	0	0
071519	09:54:26	10:04:28	600739	5.0.10.0	5_exp_RW	45	Rpleas_acq	CS_A	JQQJ	YFFY	DXXD	ZHHZ	LWWL	CPPC	küssen	vertrauen	genießen	gütig	sonnig	träumen	krank	versagen	gemein	gierig	sterben	töten	1	acq_USunple_CSunple2_RW	acq4567_RW	5	6	400	0	300	300	626	46	0	1	1	blank2r.bmp	0	1	+	0	1	blank2r.bmp	492	1	ZHHZ	492	1	blank2r.bmp	572	2	sterben	866	1	!	1239	1	!	-1	0	0	0	0	0	0	0	0	0	0	0	0	0	0	0	0	0	0	0	0	0	0	0	0	0	0	0	0	0	0
071519	09:54:26	10:04:30	603005	5.0.10.0	5_exp_RW	45	Rpleas_acq	CS_A	JQQJ	YFFY	DXXD	ZHHZ	LWWL	CPPC	küssen	vertrauen	genießen	gütig	sonnig	träumen	krank	versagen	gemein	gierig	sterben	töten	1	acq_USunple_CSunple1_RW	acq4567_RW	5	7	400	0	300	300	484	46	0	1	1	blank2r.bmp	0	1	+	0	1	blank2r.bmp	492	1	DXXD	492	1	blank2r.bmp	572	2	versagen	866	1	!	1239	1	!	-1	0	0	0	0	0	0	0	0	0	0	0	0	0	0	0	0	0	0	0	0	0	0	0	0	0	0	0	0	0	0
071519	09:54:26	10:04:32	605204	5.0.10.0	5_exp_RW	45	Rpleas_acq	CS_A	JQQJ	YFFY	DXXD	ZHHZ	LWWL	CPPC	küssen	vertrauen	genießen	gütig	sonnig	träumen	krank	versagen	gemein	gierig	sterben	töten	1	acq_USunple_CSunple2_RW	acq4567_RW	5	8	400	1	300	300	394	50	0	0	1	blank2r.bmp	0	1	+	0	1	blank2r.bmp	492	1	ZHHZ	492	1	blank2r.bmp	572	1	gierig	866	1	!	1239	1	!	1292	0	0	0	0	0	0	0	0	0	0	0	0	0	0	0	0	0	0	0	0	0	0	0	0	0	0	0	0	0	0
071519	09:54:26	10:04:35	607430	5.0.10.0	5_exp_RW	45	Rpleas_acq	CS_A	JQQJ	YFFY	DXXD	ZHHZ	LWWL	CPPC	küssen	vertrauen	genießen	gütig	sonnig	träumen	krank	versagen	gemein	gierig	sterben	töten	1	acq_USunple_CSunple1_RW	acq4567_RW	5	9	400	1	300	300	433	46	0	1	1	blank2r.bmp	0	1	+	0	1	blank2r.bmp	492	1	DXXD	492	1	blank2r.bmp	572	1	krank	866	1	!	1239	1	!	1332	0	0	0	0	0	0	0	0	0	0	0	0	0	0	0	0	0	0	0	0	0	0	0	0	0	0	0	0	0	0
071519	09:54:26	10:04:37	609696	5.0.10.0	5_exp_RW	45	Rpleas_acq	CS_A	JQQJ	YFFY	DXXD	ZHHZ	LWWL	CPPC	küssen	vertrauen	genießen	gütig	sonnig	träumen	krank	versagen	gemein	gierig	sterben	töten	1	acq_USpleas_CSpleas1_RW	acq4567_RW	5	10	400	0	300	300	479	50	0	1	1	blank2r.bmp	0	1	+	0	1	blank2r.bmp	492	1	JQQJ	492	1	blank2r.bmp	572	3	genießen	866	1	!	1239	1	!	-1	0	0	0	0	0	0	0	0	0	0	0	0	0	0	0	0	0	0	0	0	0	0	0	0	0	0	0	0	0	0
071519	09:54:26	10:04:39	611948	5.0.10.0	5_exp_RW	45	Rpleas_acq	CS_A	JQQJ	YFFY	DXXD	ZHHZ	LWWL	CPPC	küssen	vertrauen	genießen	gütig	sonnig	träumen	krank	versagen	gemein	gierig	sterben	töten	1	acq_USunple_CSunple1_RW	acq4567_RW	5	11	400	1	300	300	427	46	0	1	1	blank2r.bmp	0	1	+	0	1	blank2r.bmp	492	1	DXXD	492	1	blank2r.bmp	572	2	versagen	866	1	!	1239	1	!	1332	0	0	0	0	0	0	0	0	0	0	0	0	0	0	0	0	0	0	0	0	0	0	0	0	0	0	0	0	0	0
071519	09:54:26	10:04:42	614361	5.0.10.0	5_exp_RW	45	Rpleas_acq	CS_A	JQQJ	YFFY	DXXD	ZHHZ	LWWL	CPPC	küssen	vertrauen	genießen	gütig	sonnig	träumen	krank	versagen	gemein	gierig	sterben	töten	1	acq_USunple_CSunple2_RW	acq4567_RW	5	12	400	0	300	300	651	46	0	1	1	blank2r.bmp	0	1	+	0	1	blank2r.bmp	492	1	ZHHZ	492	1	blank2r.bmp	572	1	gierig	866	1	!	1239	1	!	-1	0	0	0	0	0	0	0	0	0	0	0	0	0	0	0	0	0	0	0	0	0	0	0	0	0	0	0	0	0	0
071519	09:54:26	10:04:44	616573	5.0.10.0	5_exp_RW	45	Rpleas_acq	CS_A	JQQJ	YFFY	DXXD	ZHHZ	LWWL	CPPC	küssen	vertrauen	genießen	gütig	sonnig	träumen	krank	versagen	gemein	gierig	sterben	töten	1	acq_USunple_CSunple2_RW	acq4567_RW	5	13	400	1	300	300	396	46	0	1	1	blank2r.bmp	0	1	+	0	1	blank2r.bmp	492	1	ZHHZ	492	1	blank2r.bmp	572	3	töten	866	1	!	1239	1	!	1292	0	0	0	0	0	0	0	0	0	0	0	0	0	0	0	0	0	0	0	0	0	0	0	0	0	0	0	0	0	0
071519	09:54:26	10:04:46	618839	5.0.10.0	5_exp_RW	45	Rpleas_acq	CS_A	JQQJ	YFFY	DXXD	ZHHZ	LWWL	CPPC	küssen	vertrauen	genießen	gütig	sonnig	träumen	krank	versagen	gemein	gierig	sterben	töten	1	acq_USpleas_CSpleas1_RW	acq4567_RW	5	14	400	1	300	300	453	50	0	1	1	blank2r.bmp	0	1	+	0	1	blank2r.bmp	492	1	JQQJ	492	1	blank2r.bmp	572	1	küssen	866	1	!	1239	1	!	1359	0	0	0	0	0	0	0	0	0	0	0	0	0	0	0	0	0	0	0	0	0	0	0	0	0	0	0	0	0	0
071519	09:54:26	10:04:48	621078	5.0.10.0	5_exp_RW	45	Rpleas_acq	CS_A	JQQJ	YFFY	DXXD	ZHHZ	LWWL	CPPC	küssen	vertrauen	genießen	gütig	sonnig	träumen	krank	versagen	gemein	gierig	sterben	töten	1	acq_USpleas_CSpleas2_RW	acq4567_RW	5	15	400	1	300	300	446	46	0	0	1	blank2r.bmp	0	1	+	0	1	blank2r.bmp	492	1	YFFY	492	1	blank2r.bmp	572	3	träumen	866	1	!	1239	1	!	1346	0	0	0	0	0	0	0	0	0	0	0	0	0	0	0	0	0	0	0	0	0	0	0	0	0	0	0	0	0	0
071519	09:54:26	10:04:51	623370	5.0.10.0	5_exp_RW	45	Rpleas_acq	CS_A	JQQJ	YFFY	DXXD	ZHHZ	LWWL	CPPC	küssen	vertrauen	genießen	gütig	sonnig	träumen	krank	versagen	gemein	gierig	sterben	töten	1	acq_USpleas_CSpleas2_RW	acq4567_RW	5	16	400	0	300	300	525	46	0	0	1	blank2r.bmp	0	1	+	0	1	blank2r.bmp	492	1	YFFY	492	1	blank2r.bmp	572	2	sonnig	866	1	!	1239	1	!	-1	0	0	0	0	0	0	0	0	0	0	0	0	0	0	0	0	0	0	0	0	0	0	0	0	0	0	0	0	0	0
071519	09:54:26	10:04:53	625729	5.0.10.0	5_exp_RW	45	Rpleas_acq	CS_A	JQQJ	YFFY	DXXD	ZHHZ	LWWL	CPPC	küssen	vertrauen	genießen	gütig	sonnig	träumen	krank	versagen	gemein	gierig	sterben	töten	1	acq_USpleas_CSpleas2_RW	acq4567_RW	5	17	400	0	300	300	572	50	0	1	1	blank2r.bmp	0	1	+	0	1	blank2r.bmp	492	1	YFFY	492	1	blank2r.bmp	572	2	sonnig	866	1	!	1239	1	!	-1	0	0	0	0	0	0	0	0	0	0	0	0	0	0	0	0	0	0	0	0	0	0	0	0	0	0	0	0	0	0
071519	09:54:26	10:04:55	627995	5.0.10.0	5_exp_RW	45	Rpleas_acq	CS_A	JQQJ	YFFY	DXXD	ZHHZ	LWWL	CPPC	küssen	vertrauen	genießen	gütig	sonnig	träumen	krank	versagen	gemein	gierig	sterben	töten	1	acq_USpleas_CSpleas2_RW	acq4567_RW	5	18	400	0	300	300	481	50	0	1	1	blank2r.bmp	0	1	+	0	1	blank2r.bmp	492	1	YFFY	492	1	blank2r.bmp	572	1	gütig	870	1	!	1239	1	!	-1	0	0	0	0	0	0	0	0	0	0	0	0	0	0	0	0	0	0	0	0	0	0	0	0	0	0	0	0	0	0
071519	09:54:26	10:04:57	630234	5.0.10.0	5_exp_RW	45	Rpleas_acq	CS_A	JQQJ	YFFY	DXXD	ZHHZ	LWWL	CPPC	küssen	vertrauen	genießen	gütig	sonnig	träumen	krank	versagen	gemein	gierig	sterben	töten	1	acq_USpleas_CSpleas1_RW	acq4567_RW	5	19	400	1	300	300	424	46	0	0	1	blank2r.bmp	0	1	+	0	1	blank2r.bmp	492	1	JQQJ	492	1	blank2r.bmp	572	2	vertrauen	866	1	!	1239	1	!	1319	0	0	0	0	0	0	0	0	0	0	0	0	0	0	0	0	0	0	0	0	0	0	0	0	0	0	0	0	0	0
071519	09:54:26	10:05:00	632566	5.0.10.0	5_exp_RW	45	Rpleas_acq	CS_A	JQQJ	YFFY	DXXD	ZHHZ	LWWL	CPPC	küssen	vertrauen	genießen	gütig	sonnig	träumen	krank	versagen	gemein	gierig	sterben	töten	1	acq_USpleas_CSpleas1_RW	acq4567_RW	5	20	400	0	300	300	567	46	0	0	1	blank2r.bmp	0	1	+	0	1	blank2r.bmp	492	1	JQQJ	492	1	blank2r.bmp	572	3	genießen	866	1	!	1239	1	!	-1	0	0	0	0	0	0	0	0	0	0	0	0	0	0	0	0	0	0	0	0	0	0	0	0	0	0	0	0	0	0
071519	09:54:26	10:05:02	635219	5.0.10.0	5_exp_RW	45	Rpleas_acq	CS_A	JQQJ	YFFY	DXXD	ZHHZ	LWWL	CPPC	küssen	vertrauen	genießen	gütig	sonnig	träumen	krank	versagen	gemein	gierig	sterben	töten	1	acq_USunple_CSunple1_RW	acq4567_RW	5	21	400	0	300	300	861	46	0	1	1	blank2r.bmp	0	1	+	0	1	blank2r.bmp	492	1	DXXD	492	1	blank2r.bmp	572	3	gemein	866	1	!	1239	1	!	-1	0	0	0	0	0	0	0	0	0	0	0	0	0	0	0	0	0	0	0	0	0	0	0	0	0	0	0	0	0	0
071519	09:54:26	10:05:05	637578	5.0.10.0	5_exp_RW	45	Rpleas_acq	CS_A	JQQJ	YFFY	DXXD	ZHHZ	LWWL	CPPC	küssen	vertrauen	genießen	gütig	sonnig	träumen	krank	versagen	gemein	gierig	sterben	töten	1	acq_USpleas_CSpleas2_RW	acq4567_RW	5	22	400	0	300	300	559	50	0	1	1	blank2r.bmp	0	1	+	0	1	blank2r.bmp	492	1	YFFY	492	1	blank2r.bmp	572	3	träumen	866	1	!	1239	1	!	-1	0	0	0	0	0	0	0	0	0	0	0	0	0	0	0	0	0	0	0	0	0	0	0	0	0	0	0	0	0	0
071519	09:54:26	10:05:07	639857	5.0.10.0	5_exp_RW	45	Rpleas_acq	CS_A	JQQJ	YFFY	DXXD	ZHHZ	LWWL	CPPC	küssen	vertrauen	genießen	gütig	sonnig	träumen	krank	versagen	gemein	gierig	sterben	töten	1	acq_USunple_CSunple2_RW	acq4567_RW	5	23	400	0	300	300	495	46	0	1	1	blank2r.bmp	0	1	+	0	1	blank2r.bmp	492	1	ZHHZ	492	1	blank2r.bmp	572	2	sterben	866	1	!	1239	1	!	-1	0	0	0	0	0	0	0	0	0	0	0	0	0	0	0	0	0	0	0	0	0	0	0	0	0	0	0	0	0	0
071519	09:54:26	10:05:09	642149	5.0.10.0	5_exp_RW	45	Rpleas_acq	CS_A	JQQJ	YFFY	DXXD	ZHHZ	LWWL	CPPC	küssen	vertrauen	genießen	gütig	sonnig	träumen	krank	versagen	gemein	gierig	sterben	töten	1	acq_USpleas_CSpleas2_RW	acq4567_RW	5	24	400	0	300	300	508	50	0	1	1	blank2r.bmp	0	1	+	0	1	blank2r.bmp	492	1	YFFY	492	1	blank2r.bmp	572	1	gütig	866	1	!	1239	1	!	-1	0	0	0	0	0	0	0	0	0	0	0	0	0	0	0	0	0	0	0	0	0	0	0	0	0	0	0	0	0	0
071519	09:54:26	10:05:12	644415	5.0.10.0	5_exp_RW	45	Rpleas_acq	CS_A	JQQJ	YFFY	DXXD	ZHHZ	LWWL	CPPC	küssen	vertrauen	genießen	gütig	sonnig	träumen	krank	versagen	gemein	gierig	sterben	töten	1	acq_USpleas_CSpleas1_RW	acq4567_RW	5	25	400	1	300	300	458	50	0	1	1	blank2r.bmp	0	1	+	0	1	blank2r.bmp	492	1	JQQJ	492	1	blank2r.bmp	572	1	küssen	866	1	!	1239	1	!	1359	0	0	0	0	0	0	0	0	0	0	0	0	0	0	0	0	0	0	0	0	0	0	0	0	0	0	0	0	0	0
071519	09:54:26	10:05:14	646667	5.0.10.0	5_exp_RW	45	Rpleas_acq	CS_A	JQQJ	YFFY	DXXD	ZHHZ	LWWL	CPPC	küssen	vertrauen	genießen	gütig	sonnig	träumen	krank	versagen	gemein	gierig	sterben	töten	1	acq_USpleas_CSpleas2_RW	acq4567_RW	5	26	400	0	300	300	479	50	0	1	1	blank2r.bmp	0	1	+	0	1	blank2r.bmp	492	1	YFFY	492	1	blank2r.bmp	572	3	träumen	866	1	!	1239	1	!	-1	0	0	0	0	0	0	0	0	0	0	0	0	0	0	0	0	0	0	0	0	0	0	0	0	0	0	0	0	0	0
071519	09:54:26	10:05:16	648960	5.0.10.0	5_exp_RW	45	Rpleas_acq	CS_A	JQQJ	YFFY	DXXD	ZHHZ	LWWL	CPPC	küssen	vertrauen	genießen	gütig	sonnig	träumen	krank	versagen	gemein	gierig	sterben	töten	1	acq_USpleas_CSpleas2_RW	acq4567_RW	5	27	400	1	300	300	466	50	0	1	1	blank2r.bmp	0	1	+	0	1	blank2r.bmp	492	1	YFFY	492	1	blank2r.bmp	572	2	sonnig	866	1	!	1239	1	!	1372	0	0	0	0	0	0	0	0	0	0	0	0	0	0	0	0	0	0	0	0	0	0	0	0	0	0	0	0	0	0
071519	09:54:26	10:05:18	651279	5.0.10.0	5_exp_RW	45	Rpleas_acq	CS_A	JQQJ	YFFY	DXXD	ZHHZ	LWWL	CPPC	küssen	vertrauen	genießen	gütig	sonnig	träumen	krank	versagen	gemein	gierig	sterben	töten	1	acq_USpleas_CSpleas1_RW	acq4567_RW	5	28	400	0	300	300	541	50	0	1	1	blank2r.bmp	0	1	+	0	1	blank2r.bmp	492	1	JQQJ	492	1	blank2r.bmp	572	3	genießen	866	1	!	1239	1	!	-1	0	0	0	0	0	0	0	0	0	0	0	0	0	0	0	0	0	0	0	0	0	0	0	0	0	0	0	0	0	0
071519	09:54:26	10:05:21	653598	5.0.10.0	5_exp_RW	45	Rpleas_acq	CS_A	JQQJ	YFFY	DXXD	ZHHZ	LWWL	CPPC	küssen	vertrauen	genießen	gütig	sonnig	träumen	krank	versagen	gemein	gierig	sterben	töten	1	acq_USunple_CSunple1_RW	acq4567_RW	5	29	400	0	300	300	539	50	0	0	1	blank2r.bmp	0	1	+	0	1	blank2r.bmp	492	1	DXXD	492	1	blank2r.bmp	572	1	krank	866	1	!	1239	1	!	-1	0	0	0	0	0	0	0	0	0	0	0	0	0	0	0	0	0	0	0	0	0	0	0	0	0	0	0	0	0	0
071519	09:54:26	10:05:23	656103	5.0.10.0	5_exp_RW	45	Rpleas_acq	CS_A	JQQJ	YFFY	DXXD	ZHHZ	LWWL	CPPC	küssen	vertrauen	genießen	gütig	sonnig	träumen	krank	versagen	gemein	gierig	sterben	töten	1	acq_USpleas_CSpleas2_RW	acq4567_RW	5	30	400	0	300	300	723	50	0	1	1	blank2r.bmp	0	1	+	0	1	blank2r.bmp	492	1	YFFY	492	1	blank2r.bmp	572	3	träumen	866	1	!	1239	1	!	-1	0	0	0	0	0	0	0	0	0	0	0	0	0	0	0	0	0	0	0	0	0	0	0	0	0	0	0	0	0	0
071519	09:54:26	10:05:26	658396	5.0.10.0	5_exp_RW	45	Rpleas_acq	CS_A	JQQJ	YFFY	DXXD	ZHHZ	LWWL	CPPC	küssen	vertrauen	genießen	gütig	sonnig	träumen	krank	versagen	gemein	gierig	sterben	töten	1	acq_USunple_CSunple1_RW	acq4567_RW	5	31	400	0	300	300	507	50	0	0	1	blank2r.bmp	0	1	+	0	1	blank2r.bmp	492	1	DXXD	492	1	blank2r.bmp	572	2	versagen	866	1	!	1239	1	!	-1	0	0	0	0	0	0	0	0	0	0	0	0	0	0	0	0	0	0	0	0	0	0	0	0	0	0	0	0	0	0
071519	09:54:26	10:05:28	660728	5.0.10.0	5_exp_RW	45	Rpleas_acq	CS_A	JQQJ	YFFY	DXXD	ZHHZ	LWWL	CPPC	küssen	vertrauen	genießen	gütig	sonnig	träumen	krank	versagen	gemein	gierig	sterben	töten	1	acq_USunple_CSunple1_RW	acq4567_RW	5	32	400	0	300	300	545	46	0	1	1	blank2r.bmp	0	1	+	0	1	blank2r.bmp	492	1	DXXD	492	1	blank2r.bmp	572	3	gemein	866	1	!	1239	1	!	-1	0	0	0	0	0	0	0	0	0	0	0	0	0	0	0	0	0	0	0	0	0	0	0	0	0	0	0	0	0	0
071519	09:54:26	10:05:30	663087	5.0.10.0	5_exp_RW	45	Rpleas_acq	CS_A	JQQJ	YFFY	DXXD	ZHHZ	LWWL	CPPC	küssen	vertrauen	genießen	gütig	sonnig	träumen	krank	versagen	gemein	gierig	sterben	töten	1	acq_USunple_CSunple1_RW	acq4567_RW	5	33	400	0	300	300	568	46	0	1	1	blank2r.bmp	0	1	+	0	1	blank2r.bmp	492	1	DXXD	492	1	blank2r.bmp	572	3	gemein	866	1	!	1239	1	!	-1	0	0	0	0	0	0	0	0	0	0	0	0	0	0	0	0	0	0	0	0	0	0	0	0	0	0	0	0	0	0
071519	09:54:26	10:05:33	665500	5.0.10.0	5_exp_RW	45	Rpleas_acq	CS_A	JQQJ	YFFY	DXXD	ZHHZ	LWWL	CPPC	küssen	vertrauen	genießen	gütig	sonnig	träumen	krank	versagen	gemein	gierig	sterben	töten	1	acq_USunple_CSunple2_RW	acq4567_RW	5	34	400	0	300	300	649	46	0	1	1	blank2r.bmp	0	1	+	0	1	blank2r.bmp	492	1	ZHHZ	492	1	blank2r.bmp	572	2	sterben	866	1	!	1239	1	!	-1	0	0	0	0	0	0	0	0	0	0	0	0	0	0	0	0	0	0	0	0	0	0	0	0	0	0	0	0	0	0
071519	09:54:26	10:05:35	667805	5.0.10.0	5_exp_RW	45	Rpleas_acq	CS_A	JQQJ	YFFY	DXXD	ZHHZ	LWWL	CPPC	küssen	vertrauen	genießen	gütig	sonnig	träumen	krank	versagen	gemein	gierig	sterben	töten	1	acq_USpleas_CSpleas1_RW	acq4567_RW	5	35	400	0	300	300	521	50	0	1	1	blank2r.bmp	0	1	+	0	1	blank2r.bmp	492	1	JQQJ	492	1	blank2r.bmp	572	2	vertrauen	866	1	!	1239	1	!	-1	0	0	0	0	0	0	0	0	0	0	0	0	0	0	0	0	0	0	0	0	0	0	0	0	0	0	0	0	0	0
071519	09:54:26	10:05:37	670138	5.0.10.0	5_exp_RW	45	Rpleas_acq	CS_A	JQQJ	YFFY	DXXD	ZHHZ	LWWL	CPPC	küssen	vertrauen	genießen	gütig	sonnig	träumen	krank	versagen	gemein	gierig	sterben	töten	1	acq_USpleas_CSpleas1_RW	acq4567_RW	5	36	400	0	300	300	533	50	0	1	1	blank2r.bmp	0	1	+	0	1	blank2r.bmp	492	1	JQQJ	492	1	blank2r.bmp	572	1	küssen	866	1	!	1239	1	!	-1	0	0	0	0	0	0	0	0	0	0	0	0	0	0	0	0	0	0	0	0	0	0	0	0	0	0	0	0	0	0
071519	09:54:26	10:05:40	672403	5.0.10.0	5_exp_RW	45	Rpleas_acq	CS_A	JQQJ	YFFY	DXXD	ZHHZ	LWWL	CPPC	küssen	vertrauen	genießen	gütig	sonnig	träumen	krank	versagen	gemein	gierig	sterben	töten	1	acq_USunple_CSunple2_RW	acq4567_RW	5	37	400	0	300	300	480	46	0	1	1	blank2r.bmp	0	1	+	0	1	blank2r.bmp	492	1	ZHHZ	492	1	blank2r.bmp	572	3	töten	866	1	!	1239	1	!	-1	0	0	0	0	0	0	0	0	0	0	0	0	0	0	0	0	0	0	0	0	0	0	0	0	0	0	0	0	0	0
071519	09:54:26	10:05:42	674709	5.0.10.0	5_exp_RW	45	Rpleas_acq	CS_A	JQQJ	YFFY	DXXD	ZHHZ	LWWL	CPPC	küssen	vertrauen	genießen	gütig	sonnig	träumen	krank	versagen	gemein	gierig	sterben	töten	1	acq_USpleas_CSpleas1_RW	acq4567_RW	5	38	400	0	300	300	529	46	0	0	1	blank2r.bmp	0	1	+	0	1	blank2r.bmp	492	1	JQQJ	492	1	blank2r.bmp	572	2	vertrauen	866	1	!	1239	1	!	-1	0	0	0	0	0	0	0	0	0	0	0	0	0	0	0	0	0	0	0	0	0	0	0	0	0	0	0	0	0	0
071519	09:54:26	10:05:44	676962	5.0.10.0	5_exp_RW	45	Rpleas_acq	CS_A	JQQJ	YFFY	DXXD	ZHHZ	LWWL	CPPC	küssen	vertrauen	genießen	gütig	sonnig	träumen	krank	versagen	gemein	gierig	sterben	töten	1	acq_USunple_CSunple2_RW	acq4567_RW	5	39	400	1	300	300	451	46	0	1	1	blank2r.bmp	0	1	+	0	1	blank2r.bmp	492	1	ZHHZ	492	1	blank2r.bmp	572	1	gierig	866	1	!	1239	1	!	1346	0	0	0	0	0	0	0	0	0	0	0	0	0	0	0	0	0	0	0	0	0	0	0	0	0	0	0	0	0	0
071519	09:54:26	10:05:46	679227	5.0.10.0	5_exp_RW	45	Rpleas_acq	CS_A	JQQJ	YFFY	DXXD	ZHHZ	LWWL	CPPC	küssen	vertrauen	genießen	gütig	sonnig	träumen	krank	versagen	gemein	gierig	sterben	töten	1	acq_USunple_CSunple2_RW	acq4567_RW	5	40	400	0	300	300	488	46	0	1	1	blank2r.bmp	0	1	+	0	1	blank2r.bmp	492	1	ZHHZ	492	1	blank2r.bmp	572	1	gierig	866	1	!	1239	1	!	-1	0	0	0	0	0	0	0	0	0	0	0	0	0	0	0	0	0	0	0	0	0	0	0	0	0	0	0	0	0	0
071519	09:54:26	10:05:49	681560	5.0.10.0	5_exp_RW	45	Rpleas_acq	CS_A	JQQJ	YFFY	DXXD	ZHHZ	LWWL	CPPC	küssen	vertrauen	genießen	gütig	sonnig	träumen	krank	versagen	gemein	gierig	sterben	töten	1	acq_USunple_CSunple2_RW	acq4567_RW	5	41	400	0	300	300	552	46	0	1	1	blank2r.bmp	0	1	+	0	1	blank2r.bmp	492	1	ZHHZ	492	1	blank2r.bmp	572	3	töten	866	1	!	1239	1	!	-1	0	0	0	0	0	0	0	0	0	0	0	0	0	0	0	0	0	0	0	0	0	0	0	0	0	0	0	0	0	0
071519	09:54:26	10:05:51	683759	5.0.10.0	5_exp_RW	45	Rpleas_acq	CS_A	JQQJ	YFFY	DXXD	ZHHZ	LWWL	CPPC	küssen	vertrauen	genießen	gütig	sonnig	träumen	krank	versagen	gemein	gierig	sterben	töten	1	acq_USpleas_CSpleas1_RW	acq4567_RW	5	42	400	1	300	300	398	50	0	1	1	blank2r.bmp	0	1	+	0	1	blank2r.bmp	492	1	JQQJ	492	1	blank2r.bmp	572	1	küssen	866	1	!	1239	1	!	1292	0	0	0	0	0	0	0	0	0	0	0	0	0	0	0	0	0	0	0	0	0	0	0	0	0	0	0	0	0	0
071519	09:54:26	10:05:53	686024	5.0.10.0	5_exp_RW	45	Rpleas_acq	CS_A	JQQJ	YFFY	DXXD	ZHHZ	LWWL	CPPC	küssen	vertrauen	genießen	gütig	sonnig	träumen	krank	versagen	gemein	gierig	sterben	töten	1	acq_USunple_CSunple2_RW	acq4567_RW	5	43	400	0	300	300	495	46	0	1	1	blank2r.bmp	0	1	+	0	1	blank2r.bmp	492	1	ZHHZ	492	1	blank2r.bmp	572	2	sterben	866	1	!	1239	1	!	-1	0	0	0	0	0	0	0	0	0	0	0	0	0	0	0	0	0	0	0	0	0	0	0	0	0	0	0	0	0	0
071519	09:54:26	10:05:55	688224	5.0.10.0	5_exp_RW	45	Rpleas_acq	CS_A	JQQJ	YFFY	DXXD	ZHHZ	LWWL	CPPC	küssen	vertrauen	genießen	gütig	sonnig	träumen	krank	versagen	gemein	gierig	sterben	töten	1	acq_USunple_CSunple1_RW	acq4567_RW	5	44	400	1	300	300	393	46	0	1	1	blank2r.bmp	0	1	+	0	1	blank2r.bmp	492	1	DXXD	492	1	blank2r.bmp	572	1	krank	866	1	!	1239	1	!	1292	0	0	0	0	0	0	0	0	0	0	0	0	0	0	0	0	0	0	0	0	0	0	0	0	0	0	0	0	0	0
071519	09:54:26	10:05:58	690489	5.0.10.0	5_exp_RW	45	Rpleas_acq	CS_A	JQQJ	YFFY	DXXD	ZHHZ	LWWL	CPPC	küssen	vertrauen	genießen	gütig	sonnig	träumen	krank	versagen	gemein	gierig	sterben	töten	1	acq_USunple_CSunple1_RW	acq4567_RW	5	45	400	0	300	300	479	46	0	1	1	blank2r.bmp	0	1	+	0	1	blank2r.bmp	492	1	DXXD	492	1	blank2r.bmp	572	2	versagen	866	1	!	1239	1	!	-1	0	0	0	0	0	0	0	0	0	0	0	0	0	0	0	0	0	0	0	0	0	0	0	0	0	0	0	0	0	0
071519	09:54:26	10:06:00	692728	5.0.10.0	5_exp_RW	45	Rpleas_acq	CS_A	JQQJ	YFFY	DXXD	ZHHZ	LWWL	CPPC	küssen	vertrauen	genießen	gütig	sonnig	träumen	krank	versagen	gemein	gierig	sterben	töten	1	acq_USpleas_CSpleas1_RW	acq4567_RW	5	46	400	1	300	300	430	50	0	1	1	blank2r.bmp	0	1	+	0	1	blank2r.bmp	492	1	JQQJ	492	1	blank2r.bmp	572	3	genießen	866	1	!	1239	1	!	1332	0	0	0	0	0	0	0	0	0	0	0	0	0	0	0	0	0	0	0	0	0	0	0	0	0	0	0	0	0	0
071519	09:54:26	10:06:02	695221	5.0.10.0	5_exp_RW	45	Rpleas_acq	CS_A	JQQJ	YFFY	DXXD	ZHHZ	LWWL	CPPC	küssen	vertrauen	genießen	gütig	sonnig	träumen	krank	versagen	gemein	gierig	sterben	töten	1	acq_USpleas_CSpleas1_RW	acq4567_RW	5	47	400	0	300	300	722	50	0	1	1	blank2r.bmp	0	1	+	0	1	blank2r.bmp	492	1	JQQJ	492	1	blank2r.bmp	572	2	vertrauen	866	1	!	1239	1	!	-1	0	0	0	0	0	0	0	0	0	0	0	0	0	0	0	0	0	0	0	0	0	0	0	0	0	0	0	0	0	0
071519	09:54:26	10:06:05	697433	5.0.10.0	5_exp_RW	45	Rpleas_acq	CS_A	JQQJ	YFFY	DXXD	ZHHZ	LWWL	CPPC	küssen	vertrauen	genießen	gütig	sonnig	träumen	krank	versagen	gemein	gierig	sterben	töten	1	acq_USpleas_CSpleas2_RW	acq4567_RW	5	48	400	1	300	300	410	50	0	1	1	blank2r.bmp	0	1	+	0	1	blank2r.bmp	492	1	YFFY	492	1	blank2r.bmp	572	2	sonnig	866	1	!	1239	1	!	1306	0	0	0	0	0	0	0	0	0	0	0	0	0	0	0	0	0	0	0	0	0	0	0	0	0	0	0	0	0	0
071519	09:54:26	10:06:07	699619	5.0.10.0	5_exp_RW	45	Rpleas_acq	CS_A	JQQJ	YFFY	DXXD	ZHHZ	LWWL	CPPC	küssen	vertrauen	genießen	gütig	sonnig	träumen	krank	versagen	gemein	gierig	sterben	töten	1	acq_USunple_CSunple2_RW	acq4567_RW	5	49	400	1	300	300	393	46	0	1	1	blank2r.bmp	0	1	+	0	1	blank2r.bmp	492	1	ZHHZ	492	1	blank2r.bmp	572	2	sterben	866	1	!	1239	1	!	1292	0	0	0	0	0	0	0	0	0	0	0	0	0	0	0	0	0	0	0	0	0	0	0	0	0	0	0	0	0	0
071519	09:54:26	10:06:09	701925	5.0.10.0	5_exp_RW	45	Rpleas_acq	CS_A	JQQJ	YFFY	DXXD	ZHHZ	LWWL	CPPC	küssen	vertrauen	genießen	gütig	sonnig	träumen	krank	versagen	gemein	gierig	sterben	töten	1	acq_USpleas_CSpleas2_RW	acq4567_RW	5	50	400	0	300	300	538	50	0	1	1	blank2r.bmp	0	1	+	0	1	blank2r.bmp	492	1	YFFY	492	1	blank2r.bmp	572	1	gütig	866	1	!	1239	1	!	-1	0	0	0	0	0	0	0	0	0	0	0	0	0	0	0	0	0	0	0	0	0	0	0	0	0	0	0	0	0	0
071519	09:54:26	10:06:11	704124	5.0.10.0	5_exp_RW	45	Rpleas_acq	CS_A	JQQJ	YFFY	DXXD	ZHHZ	LWWL	CPPC	küssen	vertrauen	genießen	gütig	sonnig	träumen	krank	versagen	gemein	gierig	sterben	töten	1	acq_USpleas_CSpleas2_RW	acq4567_RW	5	51	400	1	300	300	392	50	0	1	1	blank2r.bmp	0	1	+	0	1	blank2r.bmp	492	1	YFFY	492	1	blank2r.bmp	572	1	gütig	866	1	!	1239	1	!	1292	0	0	0	0	0	0	0	0	0	0	0	0	0	0	0	0	0	0	0	0	0	0	0	0	0	0	0	0	0	0
071519	09:54:26	10:06:14	706483	5.0.10.0	5_exp_RW	45	Rpleas_acq	CS_A	JQQJ	YFFY	DXXD	ZHHZ	LWWL	CPPC	küssen	vertrauen	genießen	gütig	sonnig	träumen	krank	versagen	gemein	gierig	sterben	töten	1	acq_USpleas_CSpleas2_RW	acq4567_RW	5	52	400	0	300	300	592	50	0	1	1	blank2r.bmp	0	1	+	0	1	blank2r.bmp	492	1	YFFY	492	1	blank2r.bmp	572	3	träumen	866	1	!	1239	1	!	-1	0	0	0	0	0	0	0	0	0	0	0	0	0	0	0	0	0	0	0	0	0	0	0	0	0	0	0	0	0	0
071519	09:54:26	10:06:16	708669	5.0.10.0	5_exp_RW	45	Rpleas_acq	CS_A	JQQJ	YFFY	DXXD	ZHHZ	LWWL	CPPC	küssen	vertrauen	genießen	gütig	sonnig	träumen	krank	versagen	gemein	gierig	sterben	töten	1	acq_USpleas_CSpleas1_RW	acq4567_RW	5	53	400	1	300	300	380	46	0	0	1	blank2r.bmp	0	1	+	0	1	blank2r.bmp	492	1	JQQJ	492	1	blank2r.bmp	572	1	küssen	866	1	!	1239	1	!	1279	0	0	0	0	0	0	0	0	0	0	0	0	0	0	0	0	0	0	0	0	0	0	0	0	0	0	0	0	0	0
071519	09:54:26	10:06:18	711121	5.0.10.0	5_exp_RW	45	Rpleas_acq	CS_A	JQQJ	YFFY	DXXD	ZHHZ	LWWL	CPPC	küssen	vertrauen	genießen	gütig	sonnig	träumen	krank	versagen	gemein	gierig	sterben	töten	1	acq_USpleas_CSpleas2_RW	acq4567_RW	5	54	400	0	300	300	682	50	0	1	1	blank2r.bmp	0	1	+	0	1	blank2r.bmp	492	1	YFFY	492	1	blank2r.bmp	572	2	sonnig	866	1	!	1239	1	!	-1	0	0	0	0	0	0	0	0	0	0	0	0	0	0	0	0	0	0	0	0	0	0	0	0	0	0	0	0	0	0
071519	09:54:26	10:06:21	713373	5.0.10.0	5_exp_RW	45	Rpleas_acq	CS_A	JQQJ	YFFY	DXXD	ZHHZ	LWWL	CPPC	küssen	vertrauen	genießen	gütig	sonnig	träumen	krank	versagen	gemein	gierig	sterben	töten	1	acq_USunple_CSunple1_RW	acq4567_RW	5	55	400	1	300	300	446	46	0	1	1	blank2r.bmp	0	1	+	0	1	blank2r.bmp	492	1	DXXD	492	1	blank2r.bmp	572	2	versagen	866	1	!	1239	1	!	1346	0	0	0	0	0	0	0	0	0	0	0	0	0	0	0	0	0	0	0	0	0	0	0	0	0	0	0	0	0	0
071519	09:54:26	10:06:23	715612	5.0.10.0	5_exp_RW	45	Rpleas_acq	CS_A	JQQJ	YFFY	DXXD	ZHHZ	LWWL	CPPC	küssen	vertrauen	genießen	gütig	sonnig	träumen	krank	versagen	gemein	gierig	sterben	töten	1	acq_USunple_CSunple2_RW	acq4567_RW	5	56	400	1	300	300	451	50	0	0	1	blank2r.bmp	0	1	+	0	1	blank2r.bmp	492	1	ZHHZ	492	1	blank2r.bmp	572	1	gierig	866	1	!	1239	1	!	1346	0	0	0	0	0	0	0	0	0	0	0	0	0	0	0	0	0	0	0	0	0	0	0	0	0	0	0	0	0	0
071519	09:54:26	10:06:25	718185	5.0.10.0	5_exp_RW	45	Rpleas_acq	CS_A	JQQJ	YFFY	DXXD	ZHHZ	LWWL	CPPC	küssen	vertrauen	genießen	gütig	sonnig	träumen	krank	versagen	gemein	gierig	sterben	töten	1	acq_USunple_CSunple1_RW	acq4567_RW	5	57	400	0	300	300	799	46	0	1	1	blank2r.bmp	0	1	+	0	1	blank2r.bmp	492	1	DXXD	492	1	blank2r.bmp	572	3	gemein	866	1	!	1239	1	!	-1	0	0	0	0	0	0	0	0	0	0	0	0	0	0	0	0	0	0	0	0	0	0	0	0	0	0	0	0	0	0
071519	09:54:26	10:06:28	720450	5.0.10.0	5_exp_RW	45	Rpleas_acq	CS_A	JQQJ	YFFY	DXXD	ZHHZ	LWWL	CPPC	küssen	vertrauen	genießen	gütig	sonnig	träumen	krank	versagen	gemein	gierig	sterben	töten	1	acq_USunple_CSunple2_RW	acq4567_RW	5	58	400	0	300	300	479	46	0	1	1	blank2r.bmp	0	1	+	0	1	blank2r.bmp	492	1	ZHHZ	492	1	blank2r.bmp	572	3	töten	866	1	!	1239	1	!	-1	0	0	0	0	0	0	0	0	0	0	0	0	0	0	0	0	0	0	0	0	0	0	0	0	0	0	0	0	0	0
071519	09:54:26	10:06:30	722689	5.0.10.0	5_exp_RW	45	Rpleas_acq	CS_A	JQQJ	YFFY	DXXD	ZHHZ	LWWL	CPPC	küssen	vertrauen	genießen	gütig	sonnig	träumen	krank	versagen	gemein	gierig	sterben	töten	1	acq_USpleas_CSpleas1_RW	acq4567_RW	5	59	400	1	300	300	427	50	0	1	1	blank2r.bmp	0	1	+	0	1	blank2r.bmp	492	1	JQQJ	492	1	blank2r.bmp	572	3	genießen	866	1	!	1239	1	!	1332	0	0	0	0	0	0	0	0	0	0	0	0	0	0	0	0	0	0	0	0	0	0	0	0	0	0	0	0	0	0
071519	09:54:26	10:06:32	725128	5.0.10.0	5_exp_RW	45	Rpleas_acq	CS_A	JQQJ	YFFY	DXXD	ZHHZ	LWWL	CPPC	küssen	vertrauen	genießen	gütig	sonnig	träumen	krank	versagen	gemein	gierig	sterben	töten	1	acq_USunple_CSunple1_RW	acq4567_RW	5	60	400	0	300	300	675	46	0	1	1	blank2r.bmp	0	1	+	0	1	blank2r.bmp	492	1	DXXD	492	1	blank2r.bmp	572	1	krank	866	1	!	1239	1	!	-1	0	0	0	0	0	0	0	0	0	0	0	0	0	0	0	0	0	0	0	0	0	0	0	0	0	0	0	0	0	0
071519	09:54:26	10:06:35	727581	5.0.10.0	5_exp_RW	45	Rpleas_acq	CS_A	JQQJ	YFFY	DXXD	ZHHZ	LWWL	CPPC	küssen	vertrauen	genießen	gütig	sonnig	träumen	krank	versagen	gemein	gierig	sterben	töten	1	acq_USunple_CSunple1_RW	acq4567_RW	5	61	400	0	300	300	674	46	0	1	1	blank2r.bmp	0	1	+	0	1	blank2r.bmp	492	1	DXXD	492	1	blank2r.bmp	572	2	versagen	866	1	!	1239	1	!	-1	0	0	0	0	0	0	0	0	0	0	0	0	0	0	0	0	0	0	0	0	0	0	0	0	0	0	0	0	0	0
071519	09:54:26	10:06:37	729860	5.0.10.0	5_exp_RW	45	Rpleas_acq	CS_A	JQQJ	YFFY	DXXD	ZHHZ	LWWL	CPPC	küssen	vertrauen	genießen	gütig	sonnig	träumen	krank	versagen	gemein	gierig	sterben	töten	1	acq_USunple_CSunple2_RW	acq4567_RW	5	62	400	0	300	300	495	46	0	1	1	blank2r.bmp	0	1	+	0	1	blank2r.bmp	492	1	ZHHZ	492	1	blank2r.bmp	572	1	gierig	866	1	!	1239	1	!	-1	0	0	0	0	0	0	0	0	0	0	0	0	0	0	0	0	0	0	0	0	0	0	0	0	0	0	0	0	0	0
071519	09:54:26	10:06:39	732099	5.0.10.0	5_exp_RW	45	Rpleas_acq	CS_A	JQQJ	YFFY	DXXD	ZHHZ	LWWL	CPPC	küssen	vertrauen	genießen	gütig	sonnig	träumen	krank	versagen	gemein	gierig	sterben	töten	1	acq_USunple_CSunple1_RW	acq4567_RW	5	63	400	1	300	300	426	46	0	1	1	blank2r.bmp	0	1	+	0	1	blank2r.bmp	492	1	DXXD	492	1	blank2r.bmp	572	1	krank	866	1	!	1239	1	!	1332	0	0	0	0	0	0	0	0	0	0	0	0	0	0	0	0	0	0	0	0	0	0	0	0	0	0	0	0	0	0
071519	09:54:26	10:06:41	734325	5.0.10.0	5_exp_RW	45	Rpleas_acq	CS_A	JQQJ	YFFY	DXXD	ZHHZ	LWWL	CPPC	küssen	vertrauen	genießen	gütig	sonnig	träumen	krank	versagen	gemein	gierig	sterben	töten	1	acq_USpleas_CSpleas1_RW	acq4567_RW	5	64	400	1	300	300	429	50	0	1	1	blank2r.bmp	0	1	+	0	1	blank2r.bmp	492	1	JQQJ	492	1	blank2r.bmp	572	1	küssen	866	1	!	1239	1	!	1332	0	0	0	0	0	0	0	0	0	0	0	0	0	0	0	0	0	0	0	0	0	0	0	0	0	0	0	0	0	0
071519	09:54:26	10:06:44	736644	5.0.10.0	5_exp_RW	45	Rpleas_acq	CS_A	JQQJ	YFFY	DXXD	ZHHZ	LWWL	CPPC	küssen	vertrauen	genießen	gütig	sonnig	träumen	krank	versagen	gemein	gierig	sterben	töten	1	acq_USunple_CSunple2_RW	acq4567_RW	5	65	400	0	300	300	556	46	0	1	1	blank2r.bmp	0	1	+	0	1	blank2r.bmp	492	1	ZHHZ	492	1	blank2r.bmp	572	2	sterben	866	1	!	1239	1	!	-1	0	0	0	0	0	0	0	0	0	0	0	0	0	0	0	0	0	0	0	0	0	0	0	0	0	0	0	0	0	0
071519	09:54:26	10:06:46	739016	5.0.10.0	5_exp_RW	45	Rpleas_acq	CS_A	JQQJ	YFFY	DXXD	ZHHZ	LWWL	CPPC	küssen	vertrauen	genießen	gütig	sonnig	träumen	krank	versagen	gemein	gierig	sterben	töten	1	acq_USunple_CSunple2_RW	acq4567_RW	5	66	400	0	300	300	591	46	0	1	1	blank2r.bmp	0	1	+	0	1	blank2r.bmp	492	1	ZHHZ	492	1	blank2r.bmp	572	3	töten	866	1	!	1239	1	!	-1	0	0	0	0	0	0	0	0	0	0	0	0	0	0	0	0	0	0	0	0	0	0	0	0	0	0	0	0	0	0
071519	09:54:26	10:06:49	741415	5.0.10.0	5_exp_RW	45	Rpleas_acq	CS_A	JQQJ	YFFY	DXXD	ZHHZ	LWWL	CPPC	küssen	vertrauen	genießen	gütig	sonnig	träumen	krank	versagen	gemein	gierig	sterben	töten	1	acq_USpleas_CSpleas2_RW	acq4567_RW	5	67	400	0	300	300	599	46	0	0	1	blank2r.bmp	0	1	+	0	1	blank2r.bmp	492	1	YFFY	492	1	blank2r.bmp	572	3	träumen	866	1	!	1239	1	!	-1	0	0	0	0	0	0	0	0	0	0	0	0	0	0	0	0	0	0	0	0	0	0	0	0	0	0	0	0	0	0
071519	09:54:26	10:06:51	743854	5.0.10.0	5_exp_RW	45	Rpleas_acq	CS_A	JQQJ	YFFY	DXXD	ZHHZ	LWWL	CPPC	küssen	vertrauen	genießen	gütig	sonnig	träumen	krank	versagen	gemein	gierig	sterben	töten	1	acq_USpleas_CSpleas1_RW	acq4567_RW	5	68	400	0	300	300	666	50	0	1	1	blank2r.bmp	0	1	+	0	1	blank2r.bmp	492	1	JQQJ	492	1	blank2r.bmp	572	2	vertrauen	866	1	!	1239	1	!	-1	0	0	0	0	0	0	0	0	0	0	0	0	0	0	0	0	0	0	0	0	0	0	0	0	0	0	0	0	0	0
071519	09:54:26	10:06:53	746280	5.0.10.0	5_exp_RW	45	Rpleas_acq	CS_A	JQQJ	YFFY	DXXD	ZHHZ	LWWL	CPPC	küssen	vertrauen	genießen	gütig	sonnig	träumen	krank	versagen	gemein	gierig	sterben	töten	1	acq_USunple_CSunple1_RW	acq4567_RW	5	69	400	0	300	300	637	46	0	1	1	blank2r.bmp	0	1	+	0	1	blank2r.bmp	492	1	DXXD	492	1	blank2r.bmp	572	3	gemein	866	1	!	1239	1	!	-1	0	0	0	0	0	0	0	0	0	0	0	0	0	0	0	0	0	0	0	0	0	0	0	0	0	0	0	0	0	0
071519	09:54:26	10:06:56	748639	5.0.10.0	5_exp_RW	45	Rpleas_acq	CS_A	JQQJ	YFFY	DXXD	ZHHZ	LWWL	CPPC	küssen	vertrauen	genießen	gütig	sonnig	träumen	krank	versagen	gemein	gierig	sterben	töten	1	acq_USunple_CSunple1_RW	acq4567_RW	5	70	400	0	300	300	580	46	0	1	1	blank2r.bmp	0	1	+	0	1	blank2r.bmp	492	1	DXXD	492	1	blank2r.bmp	572	2	versagen	866	1	!	1239	1	!	-1	0	0	0	0	0	0	0	0	0	0	0	0	0	0	0	0	0	0	0	0	0	0	0	0	0	0	0	0	0	0
071519	09:54:26	10:06:58	750945	5.0.10.0	5_exp_RW	45	Rpleas_acq	CS_A	JQQJ	YFFY	DXXD	ZHHZ	LWWL	CPPC	küssen	vertrauen	genießen	gütig	sonnig	träumen	krank	versagen	gemein	gierig	sterben	töten	1	acq_USpleas_CSpleas1_RW	acq4567_RW	5	71	400	0	300	300	528	50	0	1	1	blank2r.bmp	0	1	+	0	1	blank2r.bmp	492	1	JQQJ	492	1	blank2r.bmp	572	3	genießen	866	1	!	1239	1	!	-1	0	0	0	0	0	0	0	0	0	0	0	0	0	0	0	0	0	0	0	0	0	0	0	0	0	0	0	0	0	0
071519	09:54:26	10:07:00	753264	5.0.10.0	5_exp_RW	45	Rpleas_acq	CS_A	JQQJ	YFFY	DXXD	ZHHZ	LWWL	CPPC	küssen	vertrauen	genießen	gütig	sonnig	träumen	krank	versagen	gemein	gierig	sterben	töten	1	acq_USpleas_CSpleas2_RW	acq4567_RW	5	72	400	0	300	300	539	50	0	1	1	blank2r.bmp	0	1	+	0	1	blank2r.bmp	492	1	YFFY	492	1	blank2r.bmp	572	2	sonnig	866	1	!	1239	1	!	-1	0	0	0	0	0	0	0	0	0	0	0	0	0	0	0	0	0	0	0	0	0	0	0	0	0	0	0	0	0	0
071519	09:54:26	10:07:03	755503	5.0.10.0	5_exp_RW	45	Rpleas_acq	CS_A	JQQJ	YFFY	DXXD	ZHHZ	LWWL	CPPC	küssen	vertrauen	genießen	gütig	sonnig	träumen	krank	versagen	gemein	gierig	sterben	töten	1	acq_USunple_CSunple1_RW	acq4567_RW	5	73	400	1	300	300	435	46	0	1	1	blank2r.bmp	0	1	+	0	1	blank2r.bmp	492	1	DXXD	492	1	blank2r.bmp	572	3	gemein	866	1	!	1239	1	!	1332	0	0	0	0	0	0	0	0	0	0	0	0	0	0	0	0	0	0	0	0	0	0	0	0	0	0	0	0	0	0
071519	09:54:26	10:07:05	757915	5.0.10.0	5_exp_RW	45	Rpleas_acq	CS_A	JQQJ	YFFY	DXXD	ZHHZ	LWWL	CPPC	küssen	vertrauen	genießen	gütig	sonnig	träumen	krank	versagen	gemein	gierig	sterben	töten	1	acq_USpleas_CSpleas2_RW	acq4567_RW	5	74	400	0	300	300	638	50	0	1	1	blank2r.bmp	0	1	+	0	1	blank2r.bmp	492	1	YFFY	492	1	blank2r.bmp	572	1	gütig	866	1	!	1239	1	!	-1	0	0	0	0	0	0	0	0	0	0	0	0	0	0	0	0	0	0	0	0	0	0	0	0	0	0	0	0	0	0
071519	09:54:26	10:07:07	760181	5.0.10.0	5_exp_RW	45	Rpleas_acq	CS_A	JQQJ	YFFY	DXXD	ZHHZ	LWWL	CPPC	küssen	vertrauen	genießen	gütig	sonnig	träumen	krank	versagen	gemein	gierig	sterben	töten	1	acq_USpleas_CSpleas2_RW	acq4567_RW	5	75	400	0	300	300	479	50	0	1	1	blank2r.bmp	0	1	+	0	1	blank2r.bmp	492	1	YFFY	492	1	blank2r.bmp	572	1	gütig	866	1	!	1239	1	!	-1	0	0	0	0	0	0	0	0	0	0	0	0	0	0	0	0	0	0	0	0	0	0	0	0	0	0	0	0	0	0
071519	09:54:26	10:07:09	762340	5.0.10.0	5_exp_RW	45	Rpleas_acq	CS_A	JQQJ	YFFY	DXXD	ZHHZ	LWWL	CPPC	küssen	vertrauen	genießen	gütig	sonnig	träumen	krank	versagen	gemein	gierig	sterben	töten	1	acq_USunple_CSunple2_RW	acq4567_RW	5	76	400	1	300	300	348	50	0	0	1	blank2r.bmp	0	1	+	0	1	blank2r.bmp	492	1	ZHHZ	492	1	blank2r.bmp	572	1	gierig	866	1	!	1239	1	!	1252	0	0	0	0	0	0	0	0	0	0	0	0	0	0	0	0	0	0	0	0	0	0	0	0	0	0	0	0	0	0
071519	09:54:26	10:07:12	764792	5.0.10.0	5_exp_RW	45	Rpleas_acq	CS_A	JQQJ	YFFY	DXXD	ZHHZ	LWWL	CPPC	küssen	vertrauen	genießen	gütig	sonnig	träumen	krank	versagen	gemein	gierig	sterben	töten	1	acq_USpleas_CSpleas2_RW	acq4567_RW	5	77	400	0	300	300	665	50	0	1	1	blank2r.bmp	0	1	+	0	1	blank2r.bmp	492	1	YFFY	492	1	blank2r.bmp	572	3	träumen	866	1	!	1239	1	!	-1	0	0	0	0	0	0	0	0	0	0	0	0	0	0	0	0	0	0	0	0	0	0	0	0	0	0	0	0	0	0
071519	09:54:26	10:07:14	767058	5.0.10.0	5_exp_RW	45	Rpleas_acq	CS_A	JQQJ	YFFY	DXXD	ZHHZ	LWWL	CPPC	küssen	vertrauen	genießen	gütig	sonnig	träumen	krank	versagen	gemein	gierig	sterben	töten	1	acq_USpleas_CSpleas1_RW	acq4567_RW	5	78	400	1	300	300	464	50	0	1	1	blank2r.bmp	0	1	+	0	1	blank2r.bmp	492	1	JQQJ	492	1	blank2r.bmp	572	1	küssen	866	1	!	1239	1	!	1359	0	0	0	0	0	0	0	0	0	0	0	0	0	0	0	0	0	0	0	0	0	0	0	0	0	0	0	0	0	0
071519	09:54:26	10:07:16	769310	5.0.10.0	5_exp_RW	45	Rpleas_acq	CS_A	JQQJ	YFFY	DXXD	ZHHZ	LWWL	CPPC	küssen	vertrauen	genießen	gütig	sonnig	träumen	krank	versagen	gemein	gierig	sterben	töten	1	acq_USunple_CSunple2_RW	acq4567_RW	5	79	400	0	300	300	479	46	0	1	1	blank2r.bmp	0	1	+	0	1	blank2r.bmp	492	1	ZHHZ	492	1	blank2r.bmp	572	2	sterben	866	1	!	1239	1	!	-1	0	0	0	0	0	0	0	0	0	0	0	0	0	0	0	0	0	0	0	0	0	0	0	0	0	0	0	0	0	0
071519	09:54:26	10:07:19	771603	5.0.10.0	5_exp_RW	45	Rpleas_acq	CS_A	JQQJ	YFFY	DXXD	ZHHZ	LWWL	CPPC	küssen	vertrauen	genießen	gütig	sonnig	träumen	krank	versagen	gemein	gierig	sterben	töten	1	acq_USpleas_CSpleas1_RW	acq4567_RW	5	80	400	0	300	300	513	50	0	1	1	blank2r.bmp	0	1	+	0	1	blank2r.bmp	492	1	JQQJ	492	1	blank2r.bmp	572	2	vertrauen	866	1	!	1239	1	!	-1	0	0	0	0	0	0	0	0	0	0	0	0	0	0	0	0	0	0	0	0	0	0	0	0	0	0	0	0	0	0
071519	09:54:26	10:07:41	794220	5.0.10.0	5_exp_RW	45	Rpleas_acq	CS_A	JQQJ	YFFY	DXXD	ZHHZ	LWWL	CPPC	küssen	vertrauen	genießen	gütig	sonnig	träumen	krank	versagen	gemein	gierig	sterben	töten	1	acq_USunple_CSunple1_RW	acq4567_RW	6	1	400	0	300	300	505	46	0	1	1	blank2r.bmp	0	1	+	0	1	blank2r.bmp	492	1	DXXD	492	1	blank2r.bmp	572	1	krank	866	1	!	1239	1	!	-1	0	0	0	0	0	0	0	0	0	0	0	0	0	0	0	0	0	0	0	0	0	0	0	0	0	0	0	0	0	0
071519	09:54:26	10:07:44	796539	5.0.10.0	5_exp_RW	45	Rpleas_acq	CS_A	JQQJ	YFFY	DXXD	ZHHZ	LWWL	CPPC	küssen	vertrauen	genießen	gütig	sonnig	träumen	krank	versagen	gemein	gierig	sterben	töten	1	acq_USpleas_CSpleas1_RW	acq4567_RW	6	2	400	0	300	300	536	50	0	1	1	blank2r.bmp	0	1	+	0	1	blank2r.bmp	492	1	JQQJ	492	1	blank2r.bmp	572	3	genießen	866	1	!	1239	1	!	-1	0	0	0	0	0	0	0	0	0	0	0	0	0	0	0	0	0	0	0	0	0	0	0	0	0	0	0	0	0	0
071519	09:54:26	10:07:46	798805	5.0.10.0	5_exp_RW	45	Rpleas_acq	CS_A	JQQJ	YFFY	DXXD	ZHHZ	LWWL	CPPC	küssen	vertrauen	genießen	gütig	sonnig	träumen	krank	versagen	gemein	gierig	sterben	töten	1	acq_USpleas_CSpleas2_RW	acq4567_RW	6	3	400	1	300	300	454	50	0	1	1	blank2r.bmp	0	1	+	0	1	blank2r.bmp	492	1	YFFY	492	1	blank2r.bmp	572	2	sonnig	866	1	!	1239	1	!	1359	0	0	0	0	0	0	0	0	0	0	0	0	0	0	0	0	0	0	0	0	0	0	0	0	0	0	0	0	0	0
071519	09:54:26	10:07:48	801031	5.0.10.0	5_exp_RW	45	Rpleas_acq	CS_A	JQQJ	YFFY	DXXD	ZHHZ	LWWL	CPPC	küssen	vertrauen	genießen	gütig	sonnig	träumen	krank	versagen	gemein	gierig	sterben	töten	1	acq_USpleas_CSpleas1_RW	acq4567_RW	6	4	400	1	300	300	433	50	0	1	1	blank2r.bmp	0	1	+	0	1	blank2r.bmp	492	1	JQQJ	492	1	blank2r.bmp	572	3	genießen	866	1	!	1239	1	!	1332	0	0	0	0	0	0	0	0	0	0	0	0	0	0	0	0	0	0	0	0	0	0	0	0	0	0	0	0	0	0
071519	09:54:26	10:07:50	803216	5.0.10.0	5_exp_RW	45	Rpleas_acq	CS_A	JQQJ	YFFY	DXXD	ZHHZ	LWWL	CPPC	küssen	vertrauen	genießen	gütig	sonnig	träumen	krank	versagen	gemein	gierig	sterben	töten	1	acq_USunple_CSunple2_RW	acq4567_RW	6	5	400	1	300	300	387	46	0	1	1	blank2r.bmp	0	1	+	0	1	blank2r.bmp	492	1	ZHHZ	492	1	blank2r.bmp	572	3	töten	866	1	!	1239	1	!	1292	0	0	0	0	0	0	0	0	0	0	0	0	0	0	0	0	0	0	0	0	0	0	0	0	0	0	0	0	0	0
071519	09:54:26	10:07:53	805482	5.0.10.0	5_exp_RW	45	Rpleas_acq	CS_A	JQQJ	YFFY	DXXD	ZHHZ	LWWL	CPPC	küssen	vertrauen	genießen	gütig	sonnig	träumen	krank	versagen	gemein	gierig	sterben	töten	1	acq_USunple_CSunple1_RW	acq4567_RW	6	6	400	0	300	300	492	46	0	1	1	blank2r.bmp	0	1	+	0	1	blank2r.bmp	492	1	DXXD	492	1	blank2r.bmp	572	3	gemein	866	1	!	1239	1	!	-1	0	0	0	0	0	0	0	0	0	0	0	0	0	0	0	0	0	0	0	0	0	0	0	0	0	0	0	0	0	0
071519	09:54:26	10:07:55	807588	5.0.10.0	5_exp_RW	45	Rpleas_acq	CS_A	JQQJ	YFFY	DXXD	ZHHZ	LWWL	CPPC	küssen	vertrauen	genießen	gütig	sonnig	träumen	krank	versagen	gemein	gierig	sterben	töten	1	acq_USpleas_CSpleas1_RW	acq4567_RW	6	7	400	0	300	300	327	50	0	1	1	blank2r.bmp	0	1	+	0	1	blank2r.bmp	492	1	JQQJ	492	1	blank2r.bmp	572	1	küssen	866	1	!	-1	1	!	-1	0	0	0	0	0	0	0	0	0	0	0	0	0	0	0	0	0	0	0	0	0	0	0	0	0	0	0	0	0	0
071519	09:54:26	10:07:57	809947	5.0.10.0	5_exp_RW	45	Rpleas_acq	CS_A	JQQJ	YFFY	DXXD	ZHHZ	LWWL	CPPC	küssen	vertrauen	genießen	gütig	sonnig	träumen	krank	versagen	gemein	gierig	sterben	töten	1	acq_USunple_CSunple2_RW	acq4567_RW	6	8	400	0	300	300	576	46	0	1	1	blank2r.bmp	0	1	+	0	1	blank2r.bmp	492	1	ZHHZ	492	1	blank2r.bmp	572	2	sterben	866	1	!	1239	1	!	-1	0	0	0	0	0	0	0	0	0	0	0	0	0	0	0	0	0	0	0	0	0	0	0	0	0	0	0	0	0	0
071519	09:54:26	10:07:59	812213	5.0.10.0	5_exp_RW	45	Rpleas_acq	CS_A	JQQJ	YFFY	DXXD	ZHHZ	LWWL	CPPC	küssen	vertrauen	genießen	gütig	sonnig	träumen	krank	versagen	gemein	gierig	sterben	töten	1	acq_USunple_CSunple2_RW	acq4567_RW	6	9	400	0	300	300	479	46	0	1	1	blank2r.bmp	0	1	+	0	1	blank2r.bmp	492	1	ZHHZ	492	1	blank2r.bmp	572	3	töten	866	1	!	1239	1	!	-1	0	0	0	0	0	0	0	0	0	0	0	0	0	0	0	0	0	0	0	0	0	0	0	0	0	0	0	0	0	0
071519	09:54:26	10:08:02	814678	5.0.10.0	5_exp_RW	45	Rpleas_acq	CS_A	JQQJ	YFFY	DXXD	ZHHZ	LWWL	CPPC	küssen	vertrauen	genießen	gütig	sonnig	träumen	krank	versagen	gemein	gierig	sterben	töten	1	acq_USunple_CSunple1_RW	acq4567_RW	6	10	400	0	300	300	689	46	0	1	1	blank2r.bmp	0	1	+	0	1	blank2r.bmp	492	1	DXXD	492	1	blank2r.bmp	572	2	versagen	866	1	!	1239	1	!	-1	0	0	0	0	0	0	0	0	0	0	0	0	0	0	0	0	0	0	0	0	0	0	0	0	0	0	0	0	0	0
071519	09:54:26	10:08:04	816984	5.0.10.0	5_exp_RW	45	Rpleas_acq	CS_A	JQQJ	YFFY	DXXD	ZHHZ	LWWL	CPPC	küssen	vertrauen	genießen	gütig	sonnig	träumen	krank	versagen	gemein	gierig	sterben	töten	1	acq_USpleas_CSpleas2_RW	acq4567_RW	6	11	400	0	300	300	508	50	0	1	1	blank2r.bmp	0	1	+	0	1	blank2r.bmp	492	1	YFFY	492	1	blank2r.bmp	572	2	sonnig	866	1	!	1239	1	!	-1	0	0	0	0	0	0	0	0	0	0	0	0	0	0	0	0	0	0	0	0	0	0	0	0	0	0	0	0	0	0
071519	09:54:26	10:08:07	819357	5.0.10.0	5_exp_RW	45	Rpleas_acq	CS_A	JQQJ	YFFY	DXXD	ZHHZ	LWWL	CPPC	küssen	vertrauen	genießen	gütig	sonnig	träumen	krank	versagen	gemein	gierig	sterben	töten	1	acq_USpleas_CSpleas2_RW	acq4567_RW	6	12	400	0	300	300	596	46	0	0	1	blank2r.bmp	0	1	+	0	1	blank2r.bmp	492	1	YFFY	492	1	blank2r.bmp	572	3	träumen	866	1	!	1239	1	!	-1	0	0	0	0	0	0	0	0	0	0	0	0	0	0	0	0	0	0	0	0	0	0	0	0	0	0	0	0	0	0
071519	09:54:26	10:08:09	821662	5.0.10.0	5_exp_RW	45	Rpleas_acq	CS_A	JQQJ	YFFY	DXXD	ZHHZ	LWWL	CPPC	küssen	vertrauen	genießen	gütig	sonnig	träumen	krank	versagen	gemein	gierig	sterben	töten	1	acq_USpleas_CSpleas2_RW	acq4567_RW	6	13	400	0	300	300	521	50	0	1	1	blank2r.bmp	0	1	+	0	1	blank2r.bmp	492	1	YFFY	492	1	blank2r.bmp	572	1	gütig	866	1	!	1239	1	!	-1	0	0	0	0	0	0	0	0	0	0	0	0	0	0	0	0	0	0	0	0	0	0	0	0	0	0	0	0	0	0
