date	time	script.currenttime	script.elapsedtime	build	script.currentexpt	subject	expressions.LRpleas_acq	expressions.conditionCS_A	expressions.CSpleas_1	expressions.CSpleas_2	expressions.CSunple_1	expressions.CSunple_2	expressions.distractor_1	expressions.distractor_2	expressions.US_pleas1	expressions.US_pleas2	expressions.US_pleas3	expressions.US_pleas4	expressions.US_pleas5	expressions.US_pleas6	expressions.US_unple1	expressions.US_unple2	expressions.US_unple3	expressions.US_unple4	expressions.US_unple5	expressions.US_unple6	counter.positions_noRW	trialcode	blockcode	blocknum	trialnum	windowcenter	inwindow	pretrialpause	posttrialpause	latency	response	expressions.correctedscore	correct	stimulusnumber1	stimulusitem1	stimulusonset1	stimulusnumber2	stimulusitem2	stimulusonset2	stimulusnumber3	stimulusitem3	stimulusonset3	stimulusnumber4	stimulusitem4	stimulusonset4	stimulusnumber5	stimulusitem5	stimulusonset5	stimulusnumber6	stimulusitem6	stimulusonset6	stimulusnumber7	stimulusitem7	stimulusonset7	stimulusnumber8	stimulusitem8	stimulusonset8	stimulusnumber9	stimulusitem9	stimulusonset9	stimulusnumber10	stimulusitem10	stimulusonset10	stimulusnumber11	stimulusitem11	stimulusonset11	stimulusnumber12	stimulusitem12	stimulusonset12	stimulusnumber13	stimulusitem13	stimulusonset13	stimulusnumber14	stimulusitem14	stimulusonset14	stimulusnumber15	stimulusitem15	stimulusonset15	stimulusnumber16	stimulusitem16	stimulusonset16	stimulusnumber17	stimulusitem17	stimulusonset17	stimulusnumber18	stimulusitem18	stimulusonset18
071619	10:10:55	10:12:49	113872	5.0.10.0	5_exp_noRW	52	Rpleas_acq	CS_B	VKKV	YDDY	GWWG	MQQM	BZZB	JXXJ	treu	retten	fair	spielen	ehrlich	schön	tot	rächen	faul	strafen	eitel	schlecht	47pct	acq_USpleas_CSpleas2_noRW	acq1_noRW	1	1	0	0	300	300	2000	0	0	0	1	blank2r.bmp	0	1	+	0	1	blank2r.bmp	252	1	YDDY	306	1	spielen	559	1	FEHLER	2598	1	Schneller!	2598	0	0	0	0	0	0	0	0	0	0	0	0	0	0	0	0	0	0	0	0	0	0	0	0	0	0	0	0	0	0	0	0	0
071619	10:10:55	10:12:52	116391	5.0.10.0	5_exp_noRW	52	Rpleas_acq	CS_B	VKKV	YDDY	GWWG	MQQM	BZZB	JXXJ	treu	retten	fair	spielen	ehrlich	schön	tot	rächen	faul	strafen	eitel	schlecht	53pct	acq_USunple_CSunple1_noRW	acq1_noRW	1	2	0	0	300	300	1615	46	0	1	1	blank2r.bmp	0	1	+	0	1	blank2r.bmp	252	1	GWWG	306	1	tot	559	0	0	0	0	0	0	0	0	0	0	0	0	0	0	0	0	0	0	0	0	0	0	0	0	0	0	0	0	0	0	0	0	0	0	0	0	0	0	0
071619	10:10:55	10:12:54	118296	5.0.10.0	5_exp_noRW	52	Rpleas_acq	CS_B	VKKV	YDDY	GWWG	MQQM	BZZB	JXXJ	treu	retten	fair	spielen	ehrlich	schön	tot	rächen	faul	strafen	eitel	schlecht	53pct	acq_USunple_CSunple1_noRW	acq1_noRW	1	3	0	0	300	300	736	46	0	1	1	blank2r.bmp	0	1	+	0	1	blank2r.bmp	252	1	GWWG	306	2	rächen	559	0	0	0	0	0	0	0	0	0	0	0	0	0	0	0	0	0	0	0	0	0	0	0	0	0	0	0	0	0	0	0	0	0	0	0	0	0	0	0
071619	10:10:55	10:12:55	120176	5.0.10.0	5_exp_noRW	52	Rpleas_acq	CS_B	VKKV	YDDY	GWWG	MQQM	BZZB	JXXJ	treu	retten	fair	spielen	ehrlich	schön	tot	rächen	faul	strafen	eitel	schlecht	53pct	acq_USunple_CSunple2_noRW	acq1_noRW	1	4	0	0	300	300	711	46	0	1	1	blank2r.bmp	0	1	+	0	1	blank2r.bmp	252	1	MQQM	306	1	strafen	559	0	0	0	0	0	0	0	0	0	0	0	0	0	0	0	0	0	0	0	0	0	0	0	0	0	0	0	0	0	0	0	0	0	0	0	0	0	0	0
071619	10:10:55	10:12:57	122015	5.0.10.0	5_exp_noRW	52	Rpleas_acq	CS_B	VKKV	YDDY	GWWG	MQQM	BZZB	JXXJ	treu	retten	fair	spielen	ehrlich	schön	tot	rächen	faul	strafen	eitel	schlecht	53pct	acq_USpleas_CSunple1_noRW	acq1_noRW	1	5	0	0	300	300	653	50	0	1	1	blank2r.bmp	0	1	+	0	1	blank2r.bmp	252	1	GWWG	306	2	retten	559	0	0	0	0	0	0	0	0	0	0	0	0	0	0	0	0	0	0	0	0	0	0	0	0	0	0	0	0	0	0	0	0	0	0	0	0	0	0	0
071619	10:10:55	10:13:00	124534	5.0.10.0	5_exp_noRW	52	Rpleas_acq	CS_B	VKKV	YDDY	GWWG	MQQM	BZZB	JXXJ	treu	retten	fair	spielen	ehrlich	schön	tot	rächen	faul	strafen	eitel	schlecht	47pct	acq_USunple_CSunple1_noRW	acq1_noRW	1	6	0	0	300	300	1348	46	0	1	1	blank2r.bmp	0	1	+	0	1	blank2r.bmp	252	1	GWWG	306	3	faul	559	0	0	0	0	0	0	0	0	0	0	0	0	0	0	0	0	0	0	0	0	0	0	0	0	0	0	0	0	0	0	0	0	0	0	0	0	0	0	0
071619	10:10:55	10:13:02	126706	5.0.10.0	5_exp_noRW	52	Rpleas_acq	CS_B	VKKV	YDDY	GWWG	MQQM	BZZB	JXXJ	treu	retten	fair	spielen	ehrlich	schön	tot	rächen	faul	strafen	eitel	schlecht	47pct	acq_USunple_CSunple2_noRW	acq1_noRW	1	7	0	0	300	300	1007	46	0	1	1	blank2r.bmp	0	1	+	0	1	blank2r.bmp	252	1	MQQM	306	2	eitel	559	0	0	0	0	0	0	0	0	0	0	0	0	0	0	0	0	0	0	0	0	0	0	0	0	0	0	0	0	0	0	0	0	0	0	0	0	0	0	0
071619	10:10:55	10:13:04	128545	5.0.10.0	5_exp_noRW	52	Rpleas_acq	CS_B	VKKV	YDDY	GWWG	MQQM	BZZB	JXXJ	treu	retten	fair	spielen	ehrlich	schön	tot	rächen	faul	strafen	eitel	schlecht	47pct	acq_USunple_CSpleas1_noRW	acq1_noRW	1	8	0	0	300	300	659	46	0	1	1	blank2r.bmp	0	1	+	0	1	blank2r.bmp	252	1	VKKV	306	2	rächen	559	0	0	0	0	0	0	0	0	0	0	0	0	0	0	0	0	0	0	0	0	0	0	0	0	0	0	0	0	0	0	0	0	0	0	0	0	0	0	0
071619	10:10:55	10:13:06	130318	5.0.10.0	5_exp_noRW	52	Rpleas_acq	CS_B	VKKV	YDDY	GWWG	MQQM	BZZB	JXXJ	treu	retten	fair	spielen	ehrlich	schön	tot	rächen	faul	strafen	eitel	schlecht	53pct	acq_USunple_CSunple1_noRW	acq1_noRW	1	9	0	0	300	300	610	46	0	1	1	blank2r.bmp	0	1	+	0	1	blank2r.bmp	252	1	GWWG	306	2	rächen	559	0	0	0	0	0	0	0	0	0	0	0	0	0	0	0	0	0	0	0	0	0	0	0	0	0	0	0	0	0	0	0	0	0	0	0	0	0	0	0
071619	10:10:55	10:13:07	132184	5.0.10.0	5_exp_noRW	52	Rpleas_acq	CS_B	VKKV	YDDY	GWWG	MQQM	BZZB	JXXJ	treu	retten	fair	spielen	ehrlich	schön	tot	rächen	faul	strafen	eitel	schlecht	53pct	acq_USpleas_CSunple2_noRW	acq1_noRW	1	10	0	0	300	300	679	50	0	1	1	blank2r.bmp	0	1	+	0	1	blank2r.bmp	252	1	MQQM	306	1	spielen	559	0	0	0	0	0	0	0	0	0	0	0	0	0	0	0	0	0	0	0	0	0	0	0	0	0	0	0	0	0	0	0	0	0	0	0	0	0	0	0
071619	10:10:55	10:13:09	134196	5.0.10.0	5_exp_noRW	52	Rpleas_acq	CS_B	VKKV	YDDY	GWWG	MQQM	BZZB	JXXJ	treu	retten	fair	spielen	ehrlich	schön	tot	rächen	faul	strafen	eitel	schlecht	53pct	acq_USunple_CSpleas2_noRW	acq1_noRW	1	11	0	0	300	300	846	46	0	1	1	blank2r.bmp	0	1	+	0	1	blank2r.bmp	252	1	YDDY	306	1	strafen	559	0	0	0	0	0	0	0	0	0	0	0	0	0	0	0	0	0	0	0	0	0	0	0	0	0	0	0	0	0	0	0	0	0	0	0	0	0	0	0
071619	10:10:55	10:13:11	136049	5.0.10.0	5_exp_noRW	52	Rpleas_acq	CS_B	VKKV	YDDY	GWWG	MQQM	BZZB	JXXJ	treu	retten	fair	spielen	ehrlich	schön	tot	rächen	faul	strafen	eitel	schlecht	53pct	acq_USpleas_CSpleas1_noRW	acq1_noRW	1	12	0	0	300	300	668	50	0	1	1	blank2r.bmp	0	1	+	0	1	blank2r.bmp	252	1	VKKV	306	2	retten	559	0	0	0	0	0	0	0	0	0	0	0	0	0	0	0	0	0	0	0	0	0	0	0	0	0	0	0	0	0	0	0	0	0	0	0	0	0	0	0
071619	10:10:55	10:13:13	138008	5.0.10.0	5_exp_noRW	52	Rpleas_acq	CS_B	VKKV	YDDY	GWWG	MQQM	BZZB	JXXJ	treu	retten	fair	spielen	ehrlich	schön	tot	rächen	faul	strafen	eitel	schlecht	53pct	acq_USunple_CSunple2_noRW	acq1_noRW	1	13	0	0	300	300	581	50	0	0	1	blank2r.bmp	0	1	+	0	1	blank2r.bmp	252	1	MQQM	306	3	schlecht	559	1	FEHLER	1172	0	0	0	0	0	0	0	0	0	0	0	0	0	0	0	0	0	0	0	0	0	0	0	0	0	0	0	0	0	0	0	0	0	0	0	0
071619	10:10:55	10:13:15	139594	5.0.10.0	5_exp_noRW	52	Rpleas_acq	CS_B	VKKV	YDDY	GWWG	MQQM	BZZB	JXXJ	treu	retten	fair	spielen	ehrlich	schön	tot	rächen	faul	strafen	eitel	schlecht	53pct	acq_USpleas_CSpleas1_noRW	acq1_noRW	1	14	0	0	300	300	421	46	0	0	1	blank2r.bmp	0	1	+	0	1	blank2r.bmp	252	1	VKKV	306	3	fair	559	1	FEHLER	1012	0	0	0	0	0	0	0	0	0	0	0	0	0	0	0	0	0	0	0	0	0	0	0	0	0	0	0	0	0	0	0	0	0	0	0	0
071619	10:10:55	10:13:17	141260	5.0.10.0	5_exp_noRW	52	Rpleas_acq	CS_B	VKKV	YDDY	GWWG	MQQM	BZZB	JXXJ	treu	retten	fair	spielen	ehrlich	schön	tot	rächen	faul	strafen	eitel	schlecht	53pct	acq_USunple_CSunple2_noRW	acq1_noRW	1	15	0	0	300	300	702	46	0	1	1	blank2r.bmp	0	1	+	0	1	blank2r.bmp	252	1	MQQM	306	3	schlecht	559	0	0	0	0	0	0	0	0	0	0	0	0	0	0	0	0	0	0	0	0	0	0	0	0	0	0	0	0	0	0	0	0	0	0	0	0	0	0	0
071619	10:10:55	10:13:18	142966	5.0.10.0	5_exp_noRW	52	Rpleas_acq	CS_B	VKKV	YDDY	GWWG	MQQM	BZZB	JXXJ	treu	retten	fair	spielen	ehrlich	schön	tot	rächen	faul	strafen	eitel	schlecht	53pct	acq_USpleas_CSpleas2_noRW	acq1_noRW	1	16	0	0	300	300	524	50	0	1	1	blank2r.bmp	0	1	+	0	1	blank2r.bmp	252	1	YDDY	306	2	ehrlich	559	0	0	0	0	0	0	0	0	0	0	0	0	0	0	0	0	0	0	0	0	0	0	0	0	0	0	0	0	0	0	0	0	0	0	0	0	0	0	0
071619	10:10:55	10:13:20	144619	5.0.10.0	5_exp_noRW	52	Rpleas_acq	CS_B	VKKV	YDDY	GWWG	MQQM	BZZB	JXXJ	treu	retten	fair	spielen	ehrlich	schön	tot	rächen	faul	strafen	eitel	schlecht	53pct	acq_USpleas_CSpleas2_noRW	acq1_noRW	1	17	0	0	300	300	472	50	0	1	1	blank2r.bmp	0	1	+	0	1	blank2r.bmp	252	1	YDDY	306	3	schön	559	0	0	0	0	0	0	0	0	0	0	0	0	0	0	0	0	0	0	0	0	0	0	0	0	0	0	0	0	0	0	0	0	0	0	0	0	0	0	0
071619	10:10:55	10:13:22	146258	5.0.10.0	5_exp_noRW	52	Rpleas_acq	CS_B	VKKV	YDDY	GWWG	MQQM	BZZB	JXXJ	treu	retten	fair	spielen	ehrlich	schön	tot	rächen	faul	strafen	eitel	schlecht	47pct	acq_USpleas_CSpleas1_noRW	acq1_noRW	1	18	0	0	300	300	461	50	0	1	1	blank2r.bmp	0	1	+	0	1	blank2r.bmp	252	1	VKKV	306	1	treu	559	0	0	0	0	0	0	0	0	0	0	0	0	0	0	0	0	0	0	0	0	0	0	0	0	0	0	0	0	0	0	0	0	0	0	0	0	0	0	0
071619	10:10:55	10:13:23	147844	5.0.10.0	5_exp_noRW	52	Rpleas_acq	CS_B	VKKV	YDDY	GWWG	MQQM	BZZB	JXXJ	treu	retten	fair	spielen	ehrlich	schön	tot	rächen	faul	strafen	eitel	schlecht	47pct	acq_USpleas_CSpleas2_noRW	acq1_noRW	1	19	0	0	300	300	401	50	0	1	1	blank2r.bmp	0	1	+	0	1	blank2r.bmp	252	1	YDDY	306	1	spielen	559	0	0	0	0	0	0	0	0	0	0	0	0	0	0	0	0	0	0	0	0	0	0	0	0	0	0	0	0	0	0	0	0	0	0	0	0	0	0	0
071619	10:10:55	10:13:25	149403	5.0.10.0	5_exp_noRW	52	Rpleas_acq	CS_B	VKKV	YDDY	GWWG	MQQM	BZZB	JXXJ	treu	retten	fair	spielen	ehrlich	schön	tot	rächen	faul	strafen	eitel	schlecht	53pct	acq_USpleas_CSpleas1_noRW	acq1_noRW	1	20	0	0	300	300	394	50	0	1	1	blank2r.bmp	0	1	+	0	1	blank2r.bmp	252	1	VKKV	306	1	treu	559	0	0	0	0	0	0	0	0	0	0	0	0	0	0	0	0	0	0	0	0	0	0	0	0	0	0	0	0	0	0	0	0	0	0	0	0	0	0	0
071619	10:10:55	10:13:26	151029	5.0.10.0	5_exp_noRW	52	Rpleas_acq	CS_B	VKKV	YDDY	GWWG	MQQM	BZZB	JXXJ	treu	retten	fair	spielen	ehrlich	schön	tot	rächen	faul	strafen	eitel	schlecht	47pct	acq_USunple_CSunple1_noRW	acq1_noRW	1	21	0	0	300	300	454	46	0	1	1	blank2r.bmp	0	1	+	0	1	blank2r.bmp	252	1	GWWG	306	1	tot	559	0	0	0	0	0	0	0	0	0	0	0	0	0	0	0	0	0	0	0	0	0	0	0	0	0	0	0	0	0	0	0	0	0	0	0	0	0	0	0
071619	10:10:55	10:13:28	152735	5.0.10.0	5_exp_noRW	52	Rpleas_acq	CS_B	VKKV	YDDY	GWWG	MQQM	BZZB	JXXJ	treu	retten	fair	spielen	ehrlich	schön	tot	rächen	faul	strafen	eitel	schlecht	53pct	acq_USunple_CSunple2_noRW	acq1_noRW	1	22	0	0	300	300	539	46	0	1	1	blank2r.bmp	0	1	+	0	1	blank2r.bmp	252	1	MQQM	306	2	eitel	559	0	0	0	0	0	0	0	0	0	0	0	0	0	0	0	0	0	0	0	0	0	0	0	0	0	0	0	0	0	0	0	0	0	0	0	0	0	0	0
071619	10:10:55	10:13:30	154308	5.0.10.0	5_exp_noRW	52	Rpleas_acq	CS_B	VKKV	YDDY	GWWG	MQQM	BZZB	JXXJ	treu	retten	fair	spielen	ehrlich	schön	tot	rächen	faul	strafen	eitel	schlecht	53pct	acq_USunple_CSpleas2_noRW	acq1_noRW	1	23	0	0	300	300	391	46	0	1	1	blank2r.bmp	0	1	+	0	1	blank2r.bmp	252	1	YDDY	306	2	eitel	559	0	0	0	0	0	0	0	0	0	0	0	0	0	0	0	0	0	0	0	0	0	0	0	0	0	0	0	0	0	0	0	0	0	0	0	0	0	0	0
071619	10:10:55	10:13:31	155987	5.0.10.0	5_exp_noRW	52	Rpleas_acq	CS_B	VKKV	YDDY	GWWG	MQQM	BZZB	JXXJ	treu	retten	fair	spielen	ehrlich	schön	tot	rächen	faul	strafen	eitel	schlecht	47pct	acq_USpleas_CSpleas1_noRW	acq1_noRW	1	24	0	0	300	300	502	50	0	1	1	blank2r.bmp	0	1	+	0	1	blank2r.bmp	252	1	VKKV	306	3	fair	559	0	0	0	0	0	0	0	0	0	0	0	0	0	0	0	0	0	0	0	0	0	0	0	0	0	0	0	0	0	0	0	0	0	0	0	0	0	0	0
071619	10:10:55	10:13:33	157600	5.0.10.0	5_exp_noRW	52	Rpleas_acq	CS_B	VKKV	YDDY	GWWG	MQQM	BZZB	JXXJ	treu	retten	fair	spielen	ehrlich	schön	tot	rächen	faul	strafen	eitel	schlecht	47pct	acq_USpleas_CSpleas1_noRW	acq1_noRW	1	25	0	0	300	300	428	50	0	1	1	blank2r.bmp	0	1	+	0	1	blank2r.bmp	252	1	VKKV	306	2	retten	559	0	0	0	0	0	0	0	0	0	0	0	0	0	0	0	0	0	0	0	0	0	0	0	0	0	0	0	0	0	0	0	0	0	0	0	0	0	0	0
071619	10:10:55	10:13:35	159226	5.0.10.0	5_exp_noRW	52	Rpleas_acq	CS_B	VKKV	YDDY	GWWG	MQQM	BZZB	JXXJ	treu	retten	fair	spielen	ehrlich	schön	tot	rächen	faul	strafen	eitel	schlecht	47pct	acq_USpleas_CSunple2_noRW	acq1_noRW	1	26	0	0	300	300	451	50	0	1	1	blank2r.bmp	0	1	+	0	1	blank2r.bmp	252	1	MQQM	306	3	schön	559	0	0	0	0	0	0	0	0	0	0	0	0	0	0	0	0	0	0	0	0	0	0	0	0	0	0	0	0	0	0	0	0	0	0	0	0	0	0	0
071619	10:10:55	10:13:36	160825	5.0.10.0	5_exp_noRW	52	Rpleas_acq	CS_B	VKKV	YDDY	GWWG	MQQM	BZZB	JXXJ	treu	retten	fair	spielen	ehrlich	schön	tot	rächen	faul	strafen	eitel	schlecht	47pct	acq_USpleas_CSpleas1_noRW	acq1_noRW	1	27	0	0	300	300	414	50	0	1	1	blank2r.bmp	0	1	+	0	1	blank2r.bmp	252	1	VKKV	306	3	fair	559	0	0	0	0	0	0	0	0	0	0	0	0	0	0	0	0	0	0	0	0	0	0	0	0	0	0	0	0	0	0	0	0	0	0	0	0	0	0	0
071619	10:10:55	10:13:38	162531	5.0.10.0	5_exp_noRW	52	Rpleas_acq	CS_B	VKKV	YDDY	GWWG	MQQM	BZZB	JXXJ	treu	retten	fair	spielen	ehrlich	schön	tot	rächen	faul	strafen	eitel	schlecht	47pct	acq_USunple_CSunple1_noRW	acq1_noRW	1	28	0	0	300	300	535	46	0	1	1	blank2r.bmp	0	1	+	0	1	blank2r.bmp	252	1	GWWG	306	3	faul	559	0	0	0	0	0	0	0	0	0	0	0	0	0	0	0	0	0	0	0	0	0	0	0	0	0	0	0	0	0	0	0	0	0	0	0	0	0	0	0
071619	10:10:55	10:13:39	164091	5.0.10.0	5_exp_noRW	52	Rpleas_acq	CS_B	VKKV	YDDY	GWWG	MQQM	BZZB	JXXJ	treu	retten	fair	spielen	ehrlich	schön	tot	rächen	faul	strafen	eitel	schlecht	53pct	acq_USunple_CSpleas1_noRW	acq1_noRW	1	29	0	0	300	300	372	46	0	1	1	blank2r.bmp	0	1	+	0	1	blank2r.bmp	252	1	VKKV	306	1	tot	559	0	0	0	0	0	0	0	0	0	0	0	0	0	0	0	0	0	0	0	0	0	0	0	0	0	0	0	0	0	0	0	0	0	0	0	0	0	0	0
071619	10:10:55	10:13:41	165717	5.0.10.0	5_exp_noRW	52	Rpleas_acq	CS_B	VKKV	YDDY	GWWG	MQQM	BZZB	JXXJ	treu	retten	fair	spielen	ehrlich	schön	tot	rächen	faul	strafen	eitel	schlecht	53pct	acq_USpleas_CSpleas2_noRW	acq1_noRW	1	30	0	0	300	300	456	50	0	1	1	blank2r.bmp	0	1	+	0	1	blank2r.bmp	252	1	YDDY	306	2	ehrlich	559	0	0	0	0	0	0	0	0	0	0	0	0	0	0	0	0	0	0	0	0	0	0	0	0	0	0	0	0	0	0	0	0	0	0	0	0	0	0	0
071619	10:10:55	10:13:43	167436	5.0.10.0	5_exp_noRW	52	Rpleas_acq	CS_B	VKKV	YDDY	GWWG	MQQM	BZZB	JXXJ	treu	retten	fair	spielen	ehrlich	schön	tot	rächen	faul	strafen	eitel	schlecht	47pct	acq_USunple_CSunple1_noRW	acq1_noRW	1	31	0	0	300	300	552	46	0	1	1	blank2r.bmp	0	1	+	0	1	blank2r.bmp	252	1	GWWG	306	1	tot	559	0	0	0	0	0	0	0	0	0	0	0	0	0	0	0	0	0	0	0	0	0	0	0	0	0	0	0	0	0	0	0	0	0	0	0	0	0	0	0
071619	10:10:55	10:13:45	169222	5.0.10.0	5_exp_noRW	52	Rpleas_acq	CS_B	VKKV	YDDY	GWWG	MQQM	BZZB	JXXJ	treu	retten	fair	spielen	ehrlich	schön	tot	rächen	faul	strafen	eitel	schlecht	47pct	acq_USpleas_CSunple1_noRW	acq1_noRW	1	32	0	0	300	300	410	46	0	0	1	blank2r.bmp	0	1	+	0	1	blank2r.bmp	252	1	GWWG	306	3	fair	559	1	FEHLER	999	0	0	0	0	0	0	0	0	0	0	0	0	0	0	0	0	0	0	0	0	0	0	0	0	0	0	0	0	0	0	0	0	0	0	0	0
071619	10:10:55	10:13:46	170501	5.0.10.0	5_exp_noRW	52	Rpleas_acq	CS_B	VKKV	YDDY	GWWG	MQQM	BZZB	JXXJ	treu	retten	fair	spielen	ehrlich	schön	tot	rächen	faul	strafen	eitel	schlecht	53pct	acq_USpleas_CSpleas2_noRW	acq1_noRW	1	33	0	0	300	300	328	50	0	1	1	blank2r.bmp	0	1	+	0	1	blank2r.bmp	252	1	YDDY	306	3	schön	559	0	0	0	0	0	0	0	0	0	0	0	0	0	0	0	0	0	0	0	0	0	0	0	0	0	0	0	0	0	0	0	0	0	0	0	0	0	0	0
071619	10:10:55	10:13:47	172167	5.0.10.0	5_exp_noRW	52	Rpleas_acq	CS_B	VKKV	YDDY	GWWG	MQQM	BZZB	JXXJ	treu	retten	fair	spielen	ehrlich	schön	tot	rächen	faul	strafen	eitel	schlecht	47pct	acq_USunple_CSunple2_noRW	acq1_noRW	1	34	0	0	300	300	479	46	0	1	1	blank2r.bmp	0	1	+	0	1	blank2r.bmp	252	1	MQQM	306	1	strafen	559	0	0	0	0	0	0	0	0	0	0	0	0	0	0	0	0	0	0	0	0	0	0	0	0	0	0	0	0	0	0	0	0	0	0	0	0	0	0	0
071619	10:10:55	10:13:49	173767	5.0.10.0	5_exp_noRW	52	Rpleas_acq	CS_B	VKKV	YDDY	GWWG	MQQM	BZZB	JXXJ	treu	retten	fair	spielen	ehrlich	schön	tot	rächen	faul	strafen	eitel	schlecht	47pct	acq_USpleas_CSpleas2_noRW	acq1_noRW	1	35	0	0	300	300	431	50	0	1	1	blank2r.bmp	0	1	+	0	1	blank2r.bmp	252	1	YDDY	306	3	schön	559	0	0	0	0	0	0	0	0	0	0	0	0	0	0	0	0	0	0	0	0	0	0	0	0	0	0	0	0	0	0	0	0	0	0	0	0	0	0	0
071619	10:10:55	10:13:51	175699	5.0.10.0	5_exp_noRW	52	Rpleas_acq	CS_B	VKKV	YDDY	GWWG	MQQM	BZZB	JXXJ	treu	retten	fair	spielen	ehrlich	schön	tot	rächen	faul	strafen	eitel	schlecht	53pct	acq_USunple_CSunple1_noRW	acq1_noRW	1	36	0	0	300	300	551	50	0	0	1	blank2r.bmp	0	1	+	0	1	blank2r.bmp	252	1	GWWG	306	3	faul	559	1	FEHLER	1146	0	0	0	0	0	0	0	0	0	0	0	0	0	0	0	0	0	0	0	0	0	0	0	0	0	0	0	0	0	0	0	0	0	0	0	0
071619	10:10:55	10:13:53	177392	5.0.10.0	5_exp_noRW	52	Rpleas_acq	CS_B	VKKV	YDDY	GWWG	MQQM	BZZB	JXXJ	treu	retten	fair	spielen	ehrlich	schön	tot	rächen	faul	strafen	eitel	schlecht	53pct	acq_USunple_CSunple2_noRW	acq1_noRW	1	37	0	0	300	300	737	46	0	1	1	blank2r.bmp	0	1	+	0	1	blank2r.bmp	252	1	MQQM	306	1	strafen	559	0	0	0	0	0	0	0	0	0	0	0	0	0	0	0	0	0	0	0	0	0	0	0	0	0	0	0	0	0	0	0	0	0	0	0	0	0	0	0
071619	10:10:55	10:13:54	179191	5.0.10.0	5_exp_noRW	52	Rpleas_acq	CS_B	VKKV	YDDY	GWWG	MQQM	BZZB	JXXJ	treu	retten	fair	spielen	ehrlich	schön	tot	rächen	faul	strafen	eitel	schlecht	53pct	acq_USpleas_CSpleas1_noRW	acq1_noRW	1	38	0	0	300	300	636	50	0	1	1	blank2r.bmp	0	1	+	0	1	blank2r.bmp	252	1	VKKV	306	1	treu	559	0	0	0	0	0	0	0	0	0	0	0	0	0	0	0	0	0	0	0	0	0	0	0	0	0	0	0	0	0	0	0	0	0	0	0	0	0	0	0
071619	10:10:55	10:13:57	181270	5.0.10.0	5_exp_noRW	52	Rpleas_acq	CS_B	VKKV	YDDY	GWWG	MQQM	BZZB	JXXJ	treu	retten	fair	spielen	ehrlich	schön	tot	rächen	faul	strafen	eitel	schlecht	53pct	acq_USunple_CSunple2_noRW	acq1_noRW	1	39	0	0	300	300	896	46	0	1	1	blank2r.bmp	0	1	+	0	1	blank2r.bmp	252	1	MQQM	306	2	eitel	559	0	0	0	0	0	0	0	0	0	0	0	0	0	0	0	0	0	0	0	0	0	0	0	0	0	0	0	0	0	0	0	0	0	0	0	0	0	0	0
071619	10:10:55	10:13:58	183003	5.0.10.0	5_exp_noRW	52	Rpleas_acq	CS_B	VKKV	YDDY	GWWG	MQQM	BZZB	JXXJ	treu	retten	fair	spielen	ehrlich	schön	tot	rächen	faul	strafen	eitel	schlecht	47pct	acq_USpleas_CSpleas2_noRW	acq1_noRW	1	40	0	0	300	300	571	50	0	1	1	blank2r.bmp	0	1	+	0	1	blank2r.bmp	252	1	YDDY	306	2	ehrlich	559	0	0	0	0	0	0	0	0	0	0	0	0	0	0	0	0	0	0	0	0	0	0	0	0	0	0	0	0	0	0	0	0	0	0	0	0	0	0	0
071619	10:10:55	10:14:00	184789	5.0.10.0	5_exp_noRW	52	Rpleas_acq	CS_B	VKKV	YDDY	GWWG	MQQM	BZZB	JXXJ	treu	retten	fair	spielen	ehrlich	schön	tot	rächen	faul	strafen	eitel	schlecht	47pct	acq_USunple_CSunple2_noRW	acq1_noRW	1	41	0	0	300	300	595	46	0	1	1	blank2r.bmp	0	1	+	0	1	blank2r.bmp	252	1	MQQM	306	3	schlecht	559	0	0	0	0	0	0	0	0	0	0	0	0	0	0	0	0	0	0	0	0	0	0	0	0	0	0	0	0	0	0	0	0	0	0	0	0	0	0	0
071619	10:10:55	10:14:02	186441	5.0.10.0	5_exp_noRW	52	Rpleas_acq	CS_B	VKKV	YDDY	GWWG	MQQM	BZZB	JXXJ	treu	retten	fair	spielen	ehrlich	schön	tot	rächen	faul	strafen	eitel	schlecht	47pct	acq_USunple_CSpleas2_noRW	acq1_noRW	1	42	0	0	300	300	473	46	0	1	1	blank2r.bmp	0	1	+	0	1	blank2r.bmp	252	1	YDDY	306	3	schlecht	559	0	0	0	0	0	0	0	0	0	0	0	0	0	0	0	0	0	0	0	0	0	0	0	0	0	0	0	0	0	0	0	0	0	0	0	0	0	0	0
071619	10:10:55	10:14:04	188307	5.0.10.0	5_exp_noRW	52	Rpleas_acq	CS_B	VKKV	YDDY	GWWG	MQQM	BZZB	JXXJ	treu	retten	fair	spielen	ehrlich	schön	tot	rächen	faul	strafen	eitel	schlecht	53pct	acq_USunple_CSpleas1_noRW	acq1_noRW	1	43	0	0	300	300	679	46	0	1	1	blank2r.bmp	0	1	+	0	1	blank2r.bmp	252	1	VKKV	306	3	faul	559	0	0	0	0	0	0	0	0	0	0	0	0	0	0	0	0	0	0	0	0	0	0	0	0	0	0	0	0	0	0	0	0	0	0	0	0	0	0	0
071619	10:10:55	10:14:05	190106	5.0.10.0	5_exp_noRW	52	Rpleas_acq	CS_B	VKKV	YDDY	GWWG	MQQM	BZZB	JXXJ	treu	retten	fair	spielen	ehrlich	schön	tot	rächen	faul	strafen	eitel	schlecht	47pct	acq_USunple_CSunple1_noRW	acq1_noRW	1	44	0	0	300	300	625	46	0	1	1	blank2r.bmp	0	1	+	0	1	blank2r.bmp	252	1	GWWG	306	2	rächen	559	0	0	0	0	0	0	0	0	0	0	0	0	0	0	0	0	0	0	0	0	0	0	0	0	0	0	0	0	0	0	0	0	0	0	0	0	0	0	0
071619	10:10:55	10:14:07	192012	5.0.10.0	5_exp_noRW	52	Rpleas_acq	CS_B	VKKV	YDDY	GWWG	MQQM	BZZB	JXXJ	treu	retten	fair	spielen	ehrlich	schön	tot	rächen	faul	strafen	eitel	schlecht	53pct	acq_USunple_CSunple2_noRW	acq1_noRW	1	45	0	0	300	300	744	46	0	1	1	blank2r.bmp	0	1	+	0	1	blank2r.bmp	252	1	MQQM	306	1	strafen	559	0	0	0	0	0	0	0	0	0	0	0	0	0	0	0	0	0	0	0	0	0	0	0	0	0	0	0	0	0	0	0	0	0	0	0	0	0	0	0
071619	10:10:55	10:14:09	194065	5.0.10.0	5_exp_noRW	52	Rpleas_acq	CS_B	VKKV	YDDY	GWWG	MQQM	BZZB	JXXJ	treu	retten	fair	spielen	ehrlich	schön	tot	rächen	faul	strafen	eitel	schlecht	53pct	acq_USpleas_CSpleas1_noRW	acq1_noRW	1	46	0	0	300	300	870	50	0	1	1	blank2r.bmp	0	1	+	0	1	blank2r.bmp	252	1	VKKV	306	2	retten	559	0	0	0	0	0	0	0	0	0	0	0	0	0	0	0	0	0	0	0	0	0	0	0	0	0	0	0	0	0	0	0	0	0	0	0	0	0	0	0
071619	10:10:55	10:14:11	195744	5.0.10.0	5_exp_noRW	52	Rpleas_acq	CS_B	VKKV	YDDY	GWWG	MQQM	BZZB	JXXJ	treu	retten	fair	spielen	ehrlich	schön	tot	rächen	faul	strafen	eitel	schlecht	47pct	acq_USpleas_CSunple1_noRW	acq1_noRW	1	47	0	0	300	300	509	50	0	1	1	blank2r.bmp	0	1	+	0	1	blank2r.bmp	252	1	GWWG	306	1	treu	559	0	0	0	0	0	0	0	0	0	0	0	0	0	0	0	0	0	0	0	0	0	0	0	0	0	0	0	0	0	0	0	0	0	0	0	0	0	0	0
071619	10:10:55	10:14:13	197357	5.0.10.0	5_exp_noRW	52	Rpleas_acq	CS_B	VKKV	YDDY	GWWG	MQQM	BZZB	JXXJ	treu	retten	fair	spielen	ehrlich	schön	tot	rächen	faul	strafen	eitel	schlecht	53pct	acq_USpleas_CSpleas1_noRW	acq1_noRW	1	48	0	0	300	300	428	50	0	1	1	blank2r.bmp	0	1	+	0	1	blank2r.bmp	252	1	VKKV	306	1	treu	559	0	0	0	0	0	0	0	0	0	0	0	0	0	0	0	0	0	0	0	0	0	0	0	0	0	0	0	0	0	0	0	0	0	0	0	0	0	0	0
071619	10:10:55	10:14:14	199036	5.0.10.0	5_exp_noRW	52	Rpleas_acq	CS_B	VKKV	YDDY	GWWG	MQQM	BZZB	JXXJ	treu	retten	fair	spielen	ehrlich	schön	tot	rächen	faul	strafen	eitel	schlecht	53pct	acq_USpleas_CSpleas1_noRW	acq1_noRW	1	49	0	0	300	300	507	50	0	1	1	blank2r.bmp	0	1	+	0	1	blank2r.bmp	252	1	VKKV	306	2	retten	559	0	0	0	0	0	0	0	0	0	0	0	0	0	0	0	0	0	0	0	0	0	0	0	0	0	0	0	0	0	0	0	0	0	0	0	0	0	0	0
071619	10:10:55	10:14:16	200662	5.0.10.0	5_exp_noRW	52	Rpleas_acq	CS_B	VKKV	YDDY	GWWG	MQQM	BZZB	JXXJ	treu	retten	fair	spielen	ehrlich	schön	tot	rächen	faul	strafen	eitel	schlecht	53pct	acq_USpleas_CSpleas2_noRW	acq1_noRW	1	50	0	0	300	300	441	50	0	1	1	blank2r.bmp	0	1	+	0	1	blank2r.bmp	252	1	YDDY	306	1	spielen	559	0	0	0	0	0	0	0	0	0	0	0	0	0	0	0	0	0	0	0	0	0	0	0	0	0	0	0	0	0	0	0	0	0	0	0	0	0	0	0
071619	10:10:55	10:14:18	202595	5.0.10.0	5_exp_noRW	52	Rpleas_acq	CS_B	VKKV	YDDY	GWWG	MQQM	BZZB	JXXJ	treu	retten	fair	spielen	ehrlich	schön	tot	rächen	faul	strafen	eitel	schlecht	47pct	acq_USpleas_CSunple2_noRW	acq1_noRW	1	51	0	0	300	300	764	50	0	1	1	blank2r.bmp	0	1	+	0	1	blank2r.bmp	252	1	MQQM	306	2	ehrlich	559	0	0	0	0	0	0	0	0	0	0	0	0	0	0	0	0	0	0	0	0	0	0	0	0	0	0	0	0	0	0	0	0	0	0	0	0	0	0	0
071619	10:10:55	10:14:19	204194	5.0.10.0	5_exp_noRW	52	Rpleas_acq	CS_B	VKKV	YDDY	GWWG	MQQM	BZZB	JXXJ	treu	retten	fair	spielen	ehrlich	schön	tot	rächen	faul	strafen	eitel	schlecht	47pct	acq_USunple_CSunple1_noRW	acq1_noRW	1	52	0	0	300	300	430	46	0	1	1	blank2r.bmp	0	1	+	0	1	blank2r.bmp	252	1	GWWG	306	2	rächen	559	0	0	0	0	0	0	0	0	0	0	0	0	0	0	0	0	0	0	0	0	0	0	0	0	0	0	0	0	0	0	0	0	0	0	0	0	0	0	0
071619	10:10:55	10:14:21	205886	5.0.10.0	5_exp_noRW	52	Rpleas_acq	CS_B	VKKV	YDDY	GWWG	MQQM	BZZB	JXXJ	treu	retten	fair	spielen	ehrlich	schön	tot	rächen	faul	strafen	eitel	schlecht	53pct	acq_USpleas_CSpleas2_noRW	acq1_noRW	1	53	0	0	300	300	516	50	0	1	1	blank2r.bmp	0	1	+	0	1	blank2r.bmp	252	1	YDDY	306	3	schön	559	0	0	0	0	0	0	0	0	0	0	0	0	0	0	0	0	0	0	0	0	0	0	0	0	0	0	0	0	0	0	0	0	0	0	0	0	0	0	0
071619	10:10:55	10:14:23	207566	5.0.10.0	5_exp_noRW	52	Rpleas_acq	CS_B	VKKV	YDDY	GWWG	MQQM	BZZB	JXXJ	treu	retten	fair	spielen	ehrlich	schön	tot	rächen	faul	strafen	eitel	schlecht	53pct	acq_USpleas_CSpleas1_noRW	acq1_noRW	1	54	0	0	300	300	518	50	0	1	1	blank2r.bmp	0	1	+	0	1	blank2r.bmp	252	1	VKKV	306	3	fair	559	0	0	0	0	0	0	0	0	0	0	0	0	0	0	0	0	0	0	0	0	0	0	0	0	0	0	0	0	0	0	0	0	0	0	0	0	0	0	0
071619	10:10:55	10:14:25	209245	5.0.10.0	5_exp_noRW	52	Rpleas_acq	CS_B	VKKV	YDDY	GWWG	MQQM	BZZB	JXXJ	treu	retten	fair	spielen	ehrlich	schön	tot	rächen	faul	strafen	eitel	schlecht	47pct	acq_USpleas_CSpleas2_noRW	acq1_noRW	1	55	0	0	300	300	495	50	0	1	1	blank2r.bmp	0	1	+	0	1	blank2r.bmp	252	1	YDDY	306	2	ehrlich	559	0	0	0	0	0	0	0	0	0	0	0	0	0	0	0	0	0	0	0	0	0	0	0	0	0	0	0	0	0	0	0	0	0	0	0	0	0	0	0
071619	10:10:55	10:14:26	210938	5.0.10.0	5_exp_noRW	52	Rpleas_acq	CS_B	VKKV	YDDY	GWWG	MQQM	BZZB	JXXJ	treu	retten	fair	spielen	ehrlich	schön	tot	rächen	faul	strafen	eitel	schlecht	53pct	acq_USunple_CSunple1_noRW	acq1_noRW	1	56	0	0	300	300	522	46	0	1	1	blank2r.bmp	0	1	+	0	1	blank2r.bmp	252	1	GWWG	306	1	tot	559	0	0	0	0	0	0	0	0	0	0	0	0	0	0	0	0	0	0	0	0	0	0	0	0	0	0	0	0	0	0	0	0	0	0	0	0	0	0	0
071619	10:10:55	10:14:28	212537	5.0.10.0	5_exp_noRW	52	Rpleas_acq	CS_B	VKKV	YDDY	GWWG	MQQM	BZZB	JXXJ	treu	retten	fair	spielen	ehrlich	schön	tot	rächen	faul	strafen	eitel	schlecht	47pct	acq_USpleas_CSpleas2_noRW	acq1_noRW	1	57	0	0	300	300	419	50	0	1	1	blank2r.bmp	0	1	+	0	1	blank2r.bmp	252	1	YDDY	306	1	spielen	559	0	0	0	0	0	0	0	0	0	0	0	0	0	0	0	0	0	0	0	0	0	0	0	0	0	0	0	0	0	0	0	0	0	0	0	0	0	0	0
071619	10:10:55	10:14:30	214230	5.0.10.0	5_exp_noRW	52	Rpleas_acq	CS_B	VKKV	YDDY	GWWG	MQQM	BZZB	JXXJ	treu	retten	fair	spielen	ehrlich	schön	tot	rächen	faul	strafen	eitel	schlecht	53pct	acq_USunple_CSunple1_noRW	acq1_noRW	1	58	0	0	300	300	510	46	0	1	1	blank2r.bmp	0	1	+	0	1	blank2r.bmp	252	1	GWWG	306	3	faul	559	0	0	0	0	0	0	0	0	0	0	0	0	0	0	0	0	0	0	0	0	0	0	0	0	0	0	0	0	0	0	0	0	0	0	0	0	0	0	0
071619	10:10:55	10:14:32	216335	5.0.10.0	5_exp_noRW	52	Rpleas_acq	CS_B	VKKV	YDDY	GWWG	MQQM	BZZB	JXXJ	treu	retten	fair	spielen	ehrlich	schön	tot	rächen	faul	strafen	eitel	schlecht	47pct	acq_USunple_CSunple2_noRW	acq1_noRW	1	59	0	0	300	300	721	50	0	0	1	blank2r.bmp	0	1	+	0	1	blank2r.bmp	252	1	MQQM	306	2	eitel	559	1	FEHLER	1319	0	0	0	0	0	0	0	0	0	0	0	0	0	0	0	0	0	0	0	0	0	0	0	0	0	0	0	0	0	0	0	0	0	0	0	0
071619	10:10:55	10:14:33	218081	5.0.10.0	5_exp_noRW	52	Rpleas_acq	CS_B	VKKV	YDDY	GWWG	MQQM	BZZB	JXXJ	treu	retten	fair	spielen	ehrlich	schön	tot	rächen	faul	strafen	eitel	schlecht	47pct	acq_USunple_CSunple2_noRW	acq1_noRW	1	60	0	0	300	300	772	46	0	1	1	blank2r.bmp	0	1	+	0	1	blank2r.bmp	252	1	MQQM	306	3	schlecht	559	0	0	0	0	0	0	0	0	0	0	0	0	0	0	0	0	0	0	0	0	0	0	0	0	0	0	0	0	0	0	0	0	0	0	0	0	0	0	0
071619	10:10:55	10:14:36	220294	5.0.10.0	5_exp_noRW	52	Rpleas_acq	CS_B	VKKV	YDDY	GWWG	MQQM	BZZB	JXXJ	treu	retten	fair	spielen	ehrlich	schön	tot	rächen	faul	strafen	eitel	schlecht	47pct	acq_USunple_CSunple1_noRW	acq1_noRW	1	61	0	0	300	300	1042	46	0	1	1	blank2r.bmp	0	1	+	0	1	blank2r.bmp	252	1	GWWG	306	3	faul	559	0	0	0	0	0	0	0	0	0	0	0	0	0	0	0	0	0	0	0	0	0	0	0	0	0	0	0	0	0	0	0	0	0	0	0	0	0	0	0
071619	10:10:55	10:14:37	222053	5.0.10.0	5_exp_noRW	52	Rpleas_acq	CS_B	VKKV	YDDY	GWWG	MQQM	BZZB	JXXJ	treu	retten	fair	spielen	ehrlich	schön	tot	rächen	faul	strafen	eitel	schlecht	47pct	acq_USunple_CSunple1_noRW	acq1_noRW	1	62	0	0	300	300	571	46	0	1	1	blank2r.bmp	0	1	+	0	1	blank2r.bmp	252	1	GWWG	306	2	rächen	559	0	0	0	0	0	0	0	0	0	0	0	0	0	0	0	0	0	0	0	0	0	0	0	0	0	0	0	0	0	0	0	0	0	0	0	0	0	0	0
071619	10:10:55	10:14:39	223706	5.0.10.0	5_exp_noRW	52	Rpleas_acq	CS_B	VKKV	YDDY	GWWG	MQQM	BZZB	JXXJ	treu	retten	fair	spielen	ehrlich	schön	tot	rächen	faul	strafen	eitel	schlecht	53pct	acq_USpleas_CSpleas2_noRW	acq1_noRW	1	63	0	0	300	300	478	50	0	1	1	blank2r.bmp	0	1	+	0	1	blank2r.bmp	252	1	YDDY	306	1	spielen	559	0	0	0	0	0	0	0	0	0	0	0	0	0	0	0	0	0	0	0	0	0	0	0	0	0	0	0	0	0	0	0	0	0	0	0	0	0	0	0
071619	10:10:55	10:14:41	225918	5.0.10.0	5_exp_noRW	52	Rpleas_acq	CS_B	VKKV	YDDY	GWWG	MQQM	BZZB	JXXJ	treu	retten	fair	spielen	ehrlich	schön	tot	rächen	faul	strafen	eitel	schlecht	47pct	acq_USpleas_CSpleas1_noRW	acq1_noRW	1	64	0	0	300	300	825	46	0	0	1	blank2r.bmp	0	1	+	0	1	blank2r.bmp	252	1	VKKV	306	2	retten	559	1	FEHLER	1426	0	0	0	0	0	0	0	0	0	0	0	0	0	0	0	0	0	0	0	0	0	0	0	0	0	0	0	0	0	0	0	0	0	0	0	0
071619	10:10:55	10:14:43	227397	5.0.10.0	5_exp_noRW	52	Rpleas_acq	CS_B	VKKV	YDDY	GWWG	MQQM	BZZB	JXXJ	treu	retten	fair	spielen	ehrlich	schön	tot	rächen	faul	strafen	eitel	schlecht	47pct	acq_USpleas_CSpleas1_noRW	acq1_noRW	1	65	0	0	300	300	529	50	0	1	1	blank2r.bmp	0	1	+	0	1	blank2r.bmp	252	1	VKKV	306	3	fair	559	0	0	0	0	0	0	0	0	0	0	0	0	0	0	0	0	0	0	0	0	0	0	0	0	0	0	0	0	0	0	0	0	0	0	0	0	0	0	0
071619	10:10:55	10:14:44	229130	5.0.10.0	5_exp_noRW	52	Rpleas_acq	CS_B	VKKV	YDDY	GWWG	MQQM	BZZB	JXXJ	treu	retten	fair	spielen	ehrlich	schön	tot	rächen	faul	strafen	eitel	schlecht	47pct	acq_USunple_CSunple1_noRW	acq1_noRW	1	66	0	0	300	300	557	46	0	1	1	blank2r.bmp	0	1	+	0	1	blank2r.bmp	252	1	GWWG	306	1	tot	559	0	0	0	0	0	0	0	0	0	0	0	0	0	0	0	0	0	0	0	0	0	0	0	0	0	0	0	0	0	0	0	0	0	0	0	0	0	0	0
071619	10:10:55	10:14:47	231409	5.0.10.0	5_exp_noRW	52	Rpleas_acq	CS_B	VKKV	YDDY	GWWG	MQQM	BZZB	JXXJ	treu	retten	fair	spielen	ehrlich	schön	tot	rächen	faul	strafen	eitel	schlecht	53pct	acq_USunple_CSpleas1_noRW	acq1_noRW	1	67	0	0	300	300	1114	46	0	1	1	blank2r.bmp	0	1	+	0	1	blank2r.bmp	252	1	VKKV	306	3	faul	559	0	0	0	0	0	0	0	0	0	0	0	0	0	0	0	0	0	0	0	0	0	0	0	0	0	0	0	0	0	0	0	0	0	0	0	0	0	0	0
071619	10:10:55	10:14:48	233142	5.0.10.0	5_exp_noRW	52	Rpleas_acq	CS_B	VKKV	YDDY	GWWG	MQQM	BZZB	JXXJ	treu	retten	fair	spielen	ehrlich	schön	tot	rächen	faul	strafen	eitel	schlecht	47pct	acq_USpleas_CSpleas2_noRW	acq1_noRW	1	68	0	0	300	300	569	50	0	1	1	blank2r.bmp	0	1	+	0	1	blank2r.bmp	252	1	YDDY	306	3	schön	559	0	0	0	0	0	0	0	0	0	0	0	0	0	0	0	0	0	0	0	0	0	0	0	0	0	0	0	0	0	0	0	0	0	0	0	0	0	0	0
071619	10:10:55	10:14:50	234981	5.0.10.0	5_exp_noRW	52	Rpleas_acq	CS_B	VKKV	YDDY	GWWG	MQQM	BZZB	JXXJ	treu	retten	fair	spielen	ehrlich	schön	tot	rächen	faul	strafen	eitel	schlecht	47pct	acq_USunple_CSunple2_noRW	acq1_noRW	1	69	0	0	300	300	672	46	0	1	1	blank2r.bmp	0	1	+	0	1	blank2r.bmp	252	1	MQQM	306	3	schlecht	559	0	0	0	0	0	0	0	0	0	0	0	0	0	0	0	0	0	0	0	0	0	0	0	0	0	0	0	0	0	0	0	0	0	0	0	0	0	0	0
071619	10:10:55	10:14:52	236834	5.0.10.0	5_exp_noRW	52	Rpleas_acq	CS_B	VKKV	YDDY	GWWG	MQQM	BZZB	JXXJ	treu	retten	fair	spielen	ehrlich	schön	tot	rächen	faul	strafen	eitel	schlecht	47pct	acq_USunple_CSunple2_noRW	acq1_noRW	1	70	0	0	300	300	688	46	0	1	1	blank2r.bmp	0	1	+	0	1	blank2r.bmp	252	1	MQQM	306	2	eitel	559	0	0	0	0	0	0	0	0	0	0	0	0	0	0	0	0	0	0	0	0	0	0	0	0	0	0	0	0	0	0	0	0	0	0	0	0	0	0	0
071619	10:10:55	10:14:54	238473	5.0.10.0	5_exp_noRW	52	Rpleas_acq	CS_B	VKKV	YDDY	GWWG	MQQM	BZZB	JXXJ	treu	retten	fair	spielen	ehrlich	schön	tot	rächen	faul	strafen	eitel	schlecht	53pct	acq_USpleas_CSpleas2_noRW	acq1_noRW	1	71	0	0	300	300	461	50	0	1	1	blank2r.bmp	0	1	+	0	1	blank2r.bmp	252	1	YDDY	306	2	ehrlich	559	0	0	0	0	0	0	0	0	0	0	0	0	0	0	0	0	0	0	0	0	0	0	0	0	0	0	0	0	0	0	0	0	0	0	0	0	0	0	0
071619	10:10:55	10:14:56	240205	5.0.10.0	5_exp_noRW	52	Rpleas_acq	CS_B	VKKV	YDDY	GWWG	MQQM	BZZB	JXXJ	treu	retten	fair	spielen	ehrlich	schön	tot	rächen	faul	strafen	eitel	schlecht	53pct	acq_USunple_CSpleas2_noRW	acq1_noRW	1	72	0	0	300	300	546	46	0	1	1	blank2r.bmp	0	1	+	0	1	blank2r.bmp	252	1	YDDY	306	1	strafen	559	0	0	0	0	0	0	0	0	0	0	0	0	0	0	0	0	0	0	0	0	0	0	0	0	0	0	0	0	0	0	0	0	0	0	0	0	0	0	0
071619	10:10:55	10:14:57	241978	5.0.10.0	5_exp_noRW	52	Rpleas_acq	CS_B	VKKV	YDDY	GWWG	MQQM	BZZB	JXXJ	treu	retten	fair	spielen	ehrlich	schön	tot	rächen	faul	strafen	eitel	schlecht	53pct	acq_USpleas_CSunple1_noRW	acq1_noRW	1	73	0	0	300	300	597	50	0	1	1	blank2r.bmp	0	1	+	0	1	blank2r.bmp	252	1	GWWG	306	2	retten	559	0	0	0	0	0	0	0	0	0	0	0	0	0	0	0	0	0	0	0	0	0	0	0	0	0	0	0	0	0	0	0	0	0	0	0	0	0	0	0
071619	10:10:55	10:14:59	243897	5.0.10.0	5_exp_noRW	52	Rpleas_acq	CS_B	VKKV	YDDY	GWWG	MQQM	BZZB	JXXJ	treu	retten	fair	spielen	ehrlich	schön	tot	rächen	faul	strafen	eitel	schlecht	47pct	acq_USpleas_CSpleas1_noRW	acq1_noRW	1	74	0	0	300	300	526	46	0	0	1	blank2r.bmp	0	1	+	0	1	blank2r.bmp	252	1	VKKV	306	1	treu	559	1	FEHLER	1119	0	0	0	0	0	0	0	0	0	0	0	0	0	0	0	0	0	0	0	0	0	0	0	0	0	0	0	0	0	0	0	0	0	0	0	0
071619	10:10:55	10:15:01	245510	5.0.10.0	5_exp_noRW	52	Rpleas_acq	CS_B	VKKV	YDDY	GWWG	MQQM	BZZB	JXXJ	treu	retten	fair	spielen	ehrlich	schön	tot	rächen	faul	strafen	eitel	schlecht	47pct	acq_USunple_CSunple2_noRW	acq1_noRW	1	75	0	0	300	300	650	46	0	1	1	blank2r.bmp	0	1	+	0	1	blank2r.bmp	252	1	MQQM	306	1	strafen	559	0	0	0	0	0	0	0	0	0	0	0	0	0	0	0	0	0	0	0	0	0	0	0	0	0	0	0	0	0	0	0	0	0	0	0	0	0	0	0
071619	10:10:55	10:15:03	247309	5.0.10.0	5_exp_noRW	52	Rpleas_acq	CS_B	VKKV	YDDY	GWWG	MQQM	BZZB	JXXJ	treu	retten	fair	spielen	ehrlich	schön	tot	rächen	faul	strafen	eitel	schlecht	53pct	acq_USpleas_CSpleas2_noRW	acq1_noRW	1	76	0	0	300	300	637	50	0	1	1	blank2r.bmp	0	1	+	0	1	blank2r.bmp	252	1	YDDY	306	1	spielen	559	0	0	0	0	0	0	0	0	0	0	0	0	0	0	0	0	0	0	0	0	0	0	0	0	0	0	0	0	0	0	0	0	0	0	0	0	0	0	0
071619	10:10:55	10:15:04	249068	5.0.10.0	5_exp_noRW	52	Rpleas_acq	CS_B	VKKV	YDDY	GWWG	MQQM	BZZB	JXXJ	treu	retten	fair	spielen	ehrlich	schön	tot	rächen	faul	strafen	eitel	schlecht	47pct	acq_USunple_CSunple1_noRW	acq1_noRW	1	77	0	0	300	300	574	46	0	1	1	blank2r.bmp	0	1	+	0	1	blank2r.bmp	252	1	GWWG	306	2	rächen	559	0	0	0	0	0	0	0	0	0	0	0	0	0	0	0	0	0	0	0	0	0	0	0	0	0	0	0	0	0	0	0	0	0	0	0	0	0	0	0
071619	10:10:55	10:15:06	250801	5.0.10.0	5_exp_noRW	52	Rpleas_acq	CS_B	VKKV	YDDY	GWWG	MQQM	BZZB	JXXJ	treu	retten	fair	spielen	ehrlich	schön	tot	rächen	faul	strafen	eitel	schlecht	53pct	acq_USunple_CSunple2_noRW	acq1_noRW	1	78	0	0	300	300	570	46	0	1	1	blank2r.bmp	0	1	+	0	1	blank2r.bmp	252	1	MQQM	306	3	schlecht	559	0	0	0	0	0	0	0	0	0	0	0	0	0	0	0	0	0	0	0	0	0	0	0	0	0	0	0	0	0	0	0	0	0	0	0	0	0	0	0
071619	10:10:55	10:15:08	252467	5.0.10.0	5_exp_noRW	52	Rpleas_acq	CS_B	VKKV	YDDY	GWWG	MQQM	BZZB	JXXJ	treu	retten	fair	spielen	ehrlich	schön	tot	rächen	faul	strafen	eitel	schlecht	47pct	acq_USpleas_CSunple2_noRW	acq1_noRW	1	79	0	0	300	300	483	50	0	1	1	blank2r.bmp	0	1	+	0	1	blank2r.bmp	252	1	MQQM	306	3	schön	559	0	0	0	0	0	0	0	0	0	0	0	0	0	0	0	0	0	0	0	0	0	0	0	0	0	0	0	0	0	0	0	0	0	0	0	0	0	0	0
071619	10:10:55	10:15:10	254213	5.0.10.0	5_exp_noRW	52	Rpleas_acq	CS_B	VKKV	YDDY	GWWG	MQQM	BZZB	JXXJ	treu	retten	fair	spielen	ehrlich	schön	tot	rächen	faul	strafen	eitel	schlecht	47pct	acq_USpleas_CSpleas1_noRW	acq1_noRW	1	80	0	0	300	300	564	50	0	1	1	blank2r.bmp	0	1	+	0	1	blank2r.bmp	252	1	VKKV	306	3	fair	559	0	0	0	0	0	0	0	0	0	0	0	0	0	0	0	0	0	0	0	0	0	0	0	0	0	0	0	0	0	0	0	0	0	0	0	0	0	0	0
071619	10:10:55	10:15:19	263902	5.0.10.0	5_exp_noRW	52	Rpleas_acq	CS_B	VKKV	YDDY	GWWG	MQQM	BZZB	JXXJ	treu	retten	fair	spielen	ehrlich	schön	tot	rächen	faul	strafen	eitel	schlecht	53pct	acq_USpleas_CSpleas2_noRW	acq23456_noRW	2	1	0	0	300	300	455	50	0	1	1	blank2r.bmp	0	1	+	0	1	blank2r.bmp	252	1	YDDY	306	2	ehrlich	559	0	0	0	0	0	0	0	0	0	0	0	0	0	0	0	0	0	0	0	0	0	0	0	0	0	0	0	0	0	0	0	0	0	0	0	0	0	0	0
071619	10:10:55	10:15:21	265568	5.0.10.0	5_exp_noRW	52	Rpleas_acq	CS_B	VKKV	YDDY	GWWG	MQQM	BZZB	JXXJ	treu	retten	fair	spielen	ehrlich	schön	tot	rächen	faul	strafen	eitel	schlecht	53pct	acq_USunple_CSunple1_noRW	acq23456_noRW	2	2	0	0	300	300	492	46	0	1	1	blank2r.bmp	0	1	+	0	1	blank2r.bmp	252	1	GWWG	306	1	tot	559	0	0	0	0	0	0	0	0	0	0	0	0	0	0	0	0	0	0	0	0	0	0	0	0	0	0	0	0	0	0	0	0	0	0	0	0	0	0	0
071619	10:10:55	10:15:23	267287	5.0.10.0	5_exp_noRW	52	Rpleas_acq	CS_B	VKKV	YDDY	GWWG	MQQM	BZZB	JXXJ	treu	retten	fair	spielen	ehrlich	schön	tot	rächen	faul	strafen	eitel	schlecht	53pct	acq_USunple_CSunple1_noRW	acq23456_noRW	2	3	0	0	300	300	546	46	0	1	1	blank2r.bmp	0	1	+	0	1	blank2r.bmp	252	1	GWWG	306	3	faul	559	0	0	0	0	0	0	0	0	0	0	0	0	0	0	0	0	0	0	0	0	0	0	0	0	0	0	0	0	0	0	0	0	0	0	0	0	0	0	0
071619	10:10:55	10:15:24	268913	5.0.10.0	5_exp_noRW	52	Rpleas_acq	CS_B	VKKV	YDDY	GWWG	MQQM	BZZB	JXXJ	treu	retten	fair	spielen	ehrlich	schön	tot	rächen	faul	strafen	eitel	schlecht	53pct	acq_USpleas_CSunple2_noRW	acq23456_noRW	2	4	0	0	300	300	459	50	0	1	1	blank2r.bmp	0	1	+	0	1	blank2r.bmp	252	1	MQQM	306	1	spielen	559	0	0	0	0	0	0	0	0	0	0	0	0	0	0	0	0	0	0	0	0	0	0	0	0	0	0	0	0	0	0	0	0	0	0	0	0	0	0	0
071619	10:10:55	10:15:26	270646	5.0.10.0	5_exp_noRW	52	Rpleas_acq	CS_B	VKKV	YDDY	GWWG	MQQM	BZZB	JXXJ	treu	retten	fair	spielen	ehrlich	schön	tot	rächen	faul	strafen	eitel	schlecht	47pct	acq_USunple_CSunple2_noRW	acq23456_noRW	2	5	0	0	300	300	559	46	0	1	1	blank2r.bmp	0	1	+	0	1	blank2r.bmp	252	1	MQQM	306	2	eitel	559	0	0	0	0	0	0	0	0	0	0	0	0	0	0	0	0	0	0	0	0	0	0	0	0	0	0	0	0	0	0	0	0	0	0	0	0	0	0	0
071619	10:10:55	10:15:28	272512	5.0.10.0	5_exp_noRW	52	Rpleas_acq	CS_B	VKKV	YDDY	GWWG	MQQM	BZZB	JXXJ	treu	retten	fair	spielen	ehrlich	schön	tot	rächen	faul	strafen	eitel	schlecht	47pct	acq_USunple_CSunple2_noRW	acq23456_noRW	2	6	0	0	300	300	481	50	0	0	1	blank2r.bmp	0	1	+	0	1	blank2r.bmp	252	1	MQQM	306	1	strafen	559	1	FEHLER	1079	0	0	0	0	0	0	0	0	0	0	0	0	0	0	0	0	0	0	0	0	0	0	0	0	0	0	0	0	0	0	0	0	0	0	0	0
071619	10:10:55	10:15:29	273978	5.0.10.0	5_exp_noRW	52	Rpleas_acq	CS_B	VKKV	YDDY	GWWG	MQQM	BZZB	JXXJ	treu	retten	fair	spielen	ehrlich	schön	tot	rächen	faul	strafen	eitel	schlecht	53pct	acq_USunple_CSunple2_noRW	acq23456_noRW	2	7	0	0	300	300	512	46	0	1	1	blank2r.bmp	0	1	+	0	1	blank2r.bmp	252	1	MQQM	306	2	eitel	559	0	0	0	0	0	0	0	0	0	0	0	0	0	0	0	0	0	0	0	0	0	0	0	0	0	0	0	0	0	0	0	0	0	0	0	0	0	0	0
071619	10:10:55	10:15:31	275591	5.0.10.0	5_exp_noRW	52	Rpleas_acq	CS_B	VKKV	YDDY	GWWG	MQQM	BZZB	JXXJ	treu	retten	fair	spielen	ehrlich	schön	tot	rächen	faul	strafen	eitel	schlecht	47pct	acq_USpleas_CSpleas2_noRW	acq23456_noRW	2	8	0	0	300	300	430	50	0	1	1	blank2r.bmp	0	1	+	0	1	blank2r.bmp	252	1	YDDY	306	3	schön	559	0	0	0	0	0	0	0	0	0	0	0	0	0	0	0	0	0	0	0	0	0	0	0	0	0	0	0	0	0	0	0	0	0	0	0	0	0	0	0
071619	10:10:55	10:15:33	277363	5.0.10.0	5_exp_noRW	52	Rpleas_acq	CS_B	VKKV	YDDY	GWWG	MQQM	BZZB	JXXJ	treu	retten	fair	spielen	ehrlich	schön	tot	rächen	faul	strafen	eitel	schlecht	47pct	acq_USpleas_CSpleas1_noRW	acq23456_noRW	2	9	0	0	300	300	598	50	0	1	1	blank2r.bmp	0	1	+	0	1	blank2r.bmp	252	1	VKKV	306	2	retten	559	0	0	0	0	0	0	0	0	0	0	0	0	0	0	0	0	0	0	0	0	0	0	0	0	0	0	0	0	0	0	0	0	0	0	0	0	0	0	0
071619	10:10:55	10:15:34	279109	5.0.10.0	5_exp_noRW	52	Rpleas_acq	CS_B	VKKV	YDDY	GWWG	MQQM	BZZB	JXXJ	treu	retten	fair	spielen	ehrlich	schön	tot	rächen	faul	strafen	eitel	schlecht	47pct	acq_USunple_CSunple1_noRW	acq23456_noRW	2	10	0	0	300	300	571	46	0	1	1	blank2r.bmp	0	1	+	0	1	blank2r.bmp	252	1	GWWG	306	2	rächen	559	0	0	0	0	0	0	0	0	0	0	0	0	0	0	0	0	0	0	0	0	0	0	0	0	0	0	0	0	0	0	0	0	0	0	0	0	0	0	0
071619	10:10:55	10:15:36	280802	5.0.10.0	5_exp_noRW	52	Rpleas_acq	CS_B	VKKV	YDDY	GWWG	MQQM	BZZB	JXXJ	treu	retten	fair	spielen	ehrlich	schön	tot	rächen	faul	strafen	eitel	schlecht	47pct	acq_USpleas_CSpleas2_noRW	acq23456_noRW	2	11	0	0	300	300	513	50	0	1	1	blank2r.bmp	0	1	+	0	1	blank2r.bmp	252	1	YDDY	306	1	spielen	559	0	0	0	0	0	0	0	0	0	0	0	0	0	0	0	0	0	0	0	0	0	0	0	0	0	0	0	0	0	0	0	0	0	0	0	0	0	0	0
071619	10:10:55	10:15:38	282508	5.0.10.0	5_exp_noRW	52	Rpleas_acq	CS_B	VKKV	YDDY	GWWG	MQQM	BZZB	JXXJ	treu	retten	fair	spielen	ehrlich	schön	tot	rächen	faul	strafen	eitel	schlecht	47pct	acq_USunple_CSpleas2_noRW	acq23456_noRW	2	12	0	0	300	300	524	46	0	1	1	blank2r.bmp	0	1	+	0	1	blank2r.bmp	252	1	YDDY	306	3	schlecht	559	0	0	0	0	0	0	0	0	0	0	0	0	0	0	0	0	0	0	0	0	0	0	0	0	0	0	0	0	0	0	0	0	0	0	0	0	0	0	0
071619	10:10:55	10:15:40	284214	5.0.10.0	5_exp_noRW	52	Rpleas_acq	CS_B	VKKV	YDDY	GWWG	MQQM	BZZB	JXXJ	treu	retten	fair	spielen	ehrlich	schön	tot	rächen	faul	strafen	eitel	schlecht	53pct	acq_USunple_CSpleas1_noRW	acq23456_noRW	2	13	0	0	300	300	523	46	0	1	1	blank2r.bmp	0	1	+	0	1	blank2r.bmp	252	1	VKKV	306	2	rächen	559	0	0	0	0	0	0	0	0	0	0	0	0	0	0	0	0	0	0	0	0	0	0	0	0	0	0	0	0	0	0	0	0	0	0	0	0	0	0	0
071619	10:10:55	10:15:41	285986	5.0.10.0	5_exp_noRW	52	Rpleas_acq	CS_B	VKKV	YDDY	GWWG	MQQM	BZZB	JXXJ	treu	retten	fair	spielen	ehrlich	schön	tot	rächen	faul	strafen	eitel	schlecht	47pct	acq_USpleas_CSpleas1_noRW	acq23456_noRW	2	14	0	0	300	300	606	50	0	1	1	blank2r.bmp	0	1	+	0	1	blank2r.bmp	252	1	VKKV	306	1	treu	559	0	0	0	0	0	0	0	0	0	0	0	0	0	0	0	0	0	0	0	0	0	0	0	0	0	0	0	0	0	0	0	0	0	0	0	0	0	0	0
071619	10:10:55	10:15:43	287839	5.0.10.0	5_exp_noRW	52	Rpleas_acq	CS_B	VKKV	YDDY	GWWG	MQQM	BZZB	JXXJ	treu	retten	fair	spielen	ehrlich	schön	tot	rächen	faul	strafen	eitel	schlecht	53pct	acq_USpleas_CSunple1_noRW	acq23456_noRW	2	15	0	0	300	300	671	50	0	1	1	blank2r.bmp	0	1	+	0	1	blank2r.bmp	252	1	GWWG	306	1	treu	559	0	0	0	0	0	0	0	0	0	0	0	0	0	0	0	0	0	0	0	0	0	0	0	0	0	0	0	0	0	0	0	0	0	0	0	0	0	0	0
071619	10:10:55	10:15:45	289478	5.0.10.0	5_exp_noRW	52	Rpleas_acq	CS_B	VKKV	YDDY	GWWG	MQQM	BZZB	JXXJ	treu	retten	fair	spielen	ehrlich	schön	tot	rächen	faul	strafen	eitel	schlecht	53pct	acq_USpleas_CSpleas2_noRW	acq23456_noRW	2	16	0	0	300	300	478	50	0	1	1	blank2r.bmp	0	1	+	0	1	blank2r.bmp	252	1	YDDY	306	3	schön	559	0	0	0	0	0	0	0	0	0	0	0	0	0	0	0	0	0	0	0	0	0	0	0	0	0	0	0	0	0	0	0	0	0	0	0	0	0	0	0
071619	10:10:55	10:15:46	291197	5.0.10.0	5_exp_noRW	52	Rpleas_acq	CS_B	VKKV	YDDY	GWWG	MQQM	BZZB	JXXJ	treu	retten	fair	spielen	ehrlich	schön	tot	rächen	faul	strafen	eitel	schlecht	53pct	acq_USpleas_CSpleas1_noRW	acq23456_noRW	2	17	0	0	300	300	536	50	0	1	1	blank2r.bmp	0	1	+	0	1	blank2r.bmp	252	1	VKKV	306	3	fair	559	0	0	0	0	0	0	0	0	0	0	0	0	0	0	0	0	0	0	0	0	0	0	0	0	0	0	0	0	0	0	0	0	0	0	0	0	0	0	0
071619	10:10:55	10:15:48	292943	5.0.10.0	5_exp_noRW	52	Rpleas_acq	CS_B	VKKV	YDDY	GWWG	MQQM	BZZB	JXXJ	treu	retten	fair	spielen	ehrlich	schön	tot	rächen	faul	strafen	eitel	schlecht	47pct	acq_USunple_CSunple2_noRW	acq23456_noRW	2	18	0	0	300	300	560	46	0	1	1	blank2r.bmp	0	1	+	0	1	blank2r.bmp	252	1	MQQM	306	1	strafen	559	0	0	0	0	0	0	0	0	0	0	0	0	0	0	0	0	0	0	0	0	0	0	0	0	0	0	0	0	0	0	0	0	0	0	0	0	0	0	0
071619	10:10:55	10:15:50	294716	5.0.10.0	5_exp_noRW	52	Rpleas_acq	CS_B	VKKV	YDDY	GWWG	MQQM	BZZB	JXXJ	treu	retten	fair	spielen	ehrlich	schön	tot	rächen	faul	strafen	eitel	schlecht	53pct	acq_USunple_CSunple1_noRW	acq23456_noRW	2	19	0	0	300	300	611	46	0	1	1	blank2r.bmp	0	1	+	0	1	blank2r.bmp	252	1	GWWG	306	3	faul	559	0	0	0	0	0	0	0	0	0	0	0	0	0	0	0	0	0	0	0	0	0	0	0	0	0	0	0	0	0	0	0	0	0	0	0	0	0	0	0
071619	10:10:55	10:15:52	296489	5.0.10.0	5_exp_noRW	52	Rpleas_acq	CS_B	VKKV	YDDY	GWWG	MQQM	BZZB	JXXJ	treu	retten	fair	spielen	ehrlich	schön	tot	rächen	faul	strafen	eitel	schlecht	47pct	acq_USpleas_CSpleas1_noRW	acq23456_noRW	2	20	0	0	300	300	587	50	0	1	1	blank2r.bmp	0	1	+	0	1	blank2r.bmp	252	1	VKKV	306	1	treu	559	0	0	0	0	0	0	0	0	0	0	0	0	0	0	0	0	0	0	0	0	0	0	0	0	0	0	0	0	0	0	0	0	0	0	0	0	0	0	0
071619	10:10:55	10:15:54	298288	5.0.10.0	5_exp_noRW	52	Rpleas_acq	CS_B	VKKV	YDDY	GWWG	MQQM	BZZB	JXXJ	treu	retten	fair	spielen	ehrlich	schön	tot	rächen	faul	strafen	eitel	schlecht	53pct	acq_USpleas_CSpleas1_noRW	acq23456_noRW	2	21	0	0	300	300	622	50	0	1	1	blank2r.bmp	0	1	+	0	1	blank2r.bmp	252	1	VKKV	306	2	retten	559	0	0	0	0	0	0	0	0	0	0	0	0	0	0	0	0	0	0	0	0	0	0	0	0	0	0	0	0	0	0	0	0	0	0	0	0	0	0	0
071619	10:10:55	10:15:55	300007	5.0.10.0	5_exp_noRW	52	Rpleas_acq	CS_B	VKKV	YDDY	GWWG	MQQM	BZZB	JXXJ	treu	retten	fair	spielen	ehrlich	schön	tot	rächen	faul	strafen	eitel	schlecht	53pct	acq_USpleas_CSunple2_noRW	acq23456_noRW	2	22	0	0	300	300	532	50	0	1	1	blank2r.bmp	0	1	+	0	1	blank2r.bmp	252	1	MQQM	306	2	ehrlich	559	0	0	0	0	0	0	0	0	0	0	0	0	0	0	0	0	0	0	0	0	0	0	0	0	0	0	0	0	0	0	0	0	0	0	0	0	0	0	0
071619	10:10:55	10:15:57	301753	5.0.10.0	5_exp_noRW	52	Rpleas_acq	CS_B	VKKV	YDDY	GWWG	MQQM	BZZB	JXXJ	treu	retten	fair	spielen	ehrlich	schön	tot	rächen	faul	strafen	eitel	schlecht	53pct	acq_USpleas_CSpleas1_noRW	acq23456_noRW	2	23	0	0	300	300	580	50	0	1	1	blank2r.bmp	0	1	+	0	1	blank2r.bmp	252	1	VKKV	306	2	retten	559	0	0	0	0	0	0	0	0	0	0	0	0	0	0	0	0	0	0	0	0	0	0	0	0	0	0	0	0	0	0	0	0	0	0	0	0	0	0	0
071619	10:10:55	10:15:59	303472	5.0.10.0	5_exp_noRW	52	Rpleas_acq	CS_B	VKKV	YDDY	GWWG	MQQM	BZZB	JXXJ	treu	retten	fair	spielen	ehrlich	schön	tot	rächen	faul	strafen	eitel	schlecht	53pct	acq_USunple_CSpleas2_noRW	acq23456_noRW	2	24	0	0	300	300	540	46	0	1	1	blank2r.bmp	0	1	+	0	1	blank2r.bmp	252	1	YDDY	306	2	eitel	559	0	0	0	0	0	0	0	0	0	0	0	0	0	0	0	0	0	0	0	0	0	0	0	0	0	0	0	0	0	0	0	0	0	0	0	0	0	0	0
071619	10:10:55	10:16:01	305445	5.0.10.0	5_exp_noRW	52	Rpleas_acq	CS_B	VKKV	YDDY	GWWG	MQQM	BZZB	JXXJ	treu	retten	fair	spielen	ehrlich	schön	tot	rächen	faul	strafen	eitel	schlecht	47pct	acq_USunple_CSunple2_noRW	acq23456_noRW	2	25	0	0	300	300	788	46	0	1	1	blank2r.bmp	0	1	+	0	1	blank2r.bmp	252	1	MQQM	306	3	schlecht	559	0	0	0	0	0	0	0	0	0	0	0	0	0	0	0	0	0	0	0	0	0	0	0	0	0	0	0	0	0	0	0	0	0	0	0	0	0	0	0
071619	10:10:55	10:16:02	307124	5.0.10.0	5_exp_noRW	52	Rpleas_acq	CS_B	VKKV	YDDY	GWWG	MQQM	BZZB	JXXJ	treu	retten	fair	spielen	ehrlich	schön	tot	rächen	faul	strafen	eitel	schlecht	47pct	acq_USunple_CSunple1_noRW	acq23456_noRW	2	26	0	0	300	300	506	46	0	1	1	blank2r.bmp	0	1	+	0	1	blank2r.bmp	252	1	GWWG	306	1	tot	559	0	0	0	0	0	0	0	0	0	0	0	0	0	0	0	0	0	0	0	0	0	0	0	0	0	0	0	0	0	0	0	0	0	0	0	0	0	0	0
071619	10:10:55	10:16:04	308790	5.0.10.0	5_exp_noRW	52	Rpleas_acq	CS_B	VKKV	YDDY	GWWG	MQQM	BZZB	JXXJ	treu	retten	fair	spielen	ehrlich	schön	tot	rächen	faul	strafen	eitel	schlecht	47pct	acq_USunple_CSunple2_noRW	acq23456_noRW	2	27	0	0	300	300	501	46	0	1	1	blank2r.bmp	0	1	+	0	1	blank2r.bmp	252	1	MQQM	306	2	eitel	559	0	0	0	0	0	0	0	0	0	0	0	0	0	0	0	0	0	0	0	0	0	0	0	0	0	0	0	0	0	0	0	0	0	0	0	0	0	0	0
071619	10:10:55	10:16:06	310456	5.0.10.0	5_exp_noRW	52	Rpleas_acq	CS_B	VKKV	YDDY	GWWG	MQQM	BZZB	JXXJ	treu	retten	fair	spielen	ehrlich	schön	tot	rächen	faul	strafen	eitel	schlecht	47pct	acq_USpleas_CSpleas1_noRW	acq23456_noRW	2	28	0	0	300	300	484	50	0	1	1	blank2r.bmp	0	1	+	0	1	blank2r.bmp	252	1	VKKV	306	1	treu	559	0	0	0	0	0	0	0	0	0	0	0	0	0	0	0	0	0	0	0	0	0	0	0	0	0	0	0	0	0	0	0	0	0	0	0	0	0	0	0
071619	10:10:55	10:16:07	312189	5.0.10.0	5_exp_noRW	52	Rpleas_acq	CS_B	VKKV	YDDY	GWWG	MQQM	BZZB	JXXJ	treu	retten	fair	spielen	ehrlich	schön	tot	rächen	faul	strafen	eitel	schlecht	53pct	acq_USunple_CSunple1_noRW	acq23456_noRW	2	29	0	0	300	300	568	46	0	1	1	blank2r.bmp	0	1	+	0	1	blank2r.bmp	252	1	GWWG	306	3	faul	559	0	0	0	0	0	0	0	0	0	0	0	0	0	0	0	0	0	0	0	0	0	0	0	0	0	0	0	0	0	0	0	0	0	0	0	0	0	0	0
071619	10:10:55	10:16:09	314161	5.0.10.0	5_exp_noRW	52	Rpleas_acq	CS_B	VKKV	YDDY	GWWG	MQQM	BZZB	JXXJ	treu	retten	fair	spielen	ehrlich	schön	tot	rächen	faul	strafen	eitel	schlecht	53pct	acq_USunple_CSunple2_noRW	acq23456_noRW	2	30	0	0	300	300	796	46	0	1	1	blank2r.bmp	0	1	+	0	1	blank2r.bmp	252	1	MQQM	306	1	strafen	559	0	0	0	0	0	0	0	0	0	0	0	0	0	0	0	0	0	0	0	0	0	0	0	0	0	0	0	0	0	0	0	0	0	0	0	0	0	0	0
071619	10:10:55	10:16:11	315920	5.0.10.0	5_exp_noRW	52	Rpleas_acq	CS_B	VKKV	YDDY	GWWG	MQQM	BZZB	JXXJ	treu	retten	fair	spielen	ehrlich	schön	tot	rächen	faul	strafen	eitel	schlecht	47pct	acq_USpleas_CSpleas2_noRW	acq23456_noRW	2	31	0	0	300	300	580	50	0	1	1	blank2r.bmp	0	1	+	0	1	blank2r.bmp	252	1	YDDY	306	2	ehrlich	559	0	0	0	0	0	0	0	0	0	0	0	0	0	0	0	0	0	0	0	0	0	0	0	0	0	0	0	0	0	0	0	0	0	0	0	0	0	0	0
071619	10:10:55	10:16:13	317800	5.0.10.0	5_exp_noRW	52	Rpleas_acq	CS_B	VKKV	YDDY	GWWG	MQQM	BZZB	JXXJ	treu	retten	fair	spielen	ehrlich	schön	tot	rächen	faul	strafen	eitel	schlecht	53pct	acq_USunple_CSunple2_noRW	acq23456_noRW	2	32	0	0	300	300	700	46	0	1	1	blank2r.bmp	0	1	+	0	1	blank2r.bmp	252	1	MQQM	306	3	schlecht	559	0	0	0	0	0	0	0	0	0	0	0	0	0	0	0	0	0	0	0	0	0	0	0	0	0	0	0	0	0	0	0	0	0	0	0	0	0	0	0
071619	10:10:55	10:16:15	319586	5.0.10.0	5_exp_noRW	52	Rpleas_acq	CS_B	VKKV	YDDY	GWWG	MQQM	BZZB	JXXJ	treu	retten	fair	spielen	ehrlich	schön	tot	rächen	faul	strafen	eitel	schlecht	47pct	acq_USpleas_CSpleas2_noRW	acq23456_noRW	2	33	0	0	300	300	616	50	0	1	1	blank2r.bmp	0	1	+	0	1	blank2r.bmp	252	1	YDDY	306	1	spielen	559	0	0	0	0	0	0	0	0	0	0	0	0	0	0	0	0	0	0	0	0	0	0	0	0	0	0	0	0	0	0	0	0	0	0	0	0	0	0	0
071619	10:10:55	10:16:17	321318	5.0.10.0	5_exp_noRW	52	Rpleas_acq	CS_B	VKKV	YDDY	GWWG	MQQM	BZZB	JXXJ	treu	retten	fair	spielen	ehrlich	schön	tot	rächen	faul	strafen	eitel	schlecht	47pct	acq_USpleas_CSpleas1_noRW	acq23456_noRW	2	34	0	0	300	300	564	50	0	1	1	blank2r.bmp	0	1	+	0	1	blank2r.bmp	252	1	VKKV	306	3	fair	559	0	0	0	0	0	0	0	0	0	0	0	0	0	0	0	0	0	0	0	0	0	0	0	0	0	0	0	0	0	0	0	0	0	0	0	0	0	0	0
071619	10:10:55	10:16:18	323037	5.0.10.0	5_exp_noRW	52	Rpleas_acq	CS_B	VKKV	YDDY	GWWG	MQQM	BZZB	JXXJ	treu	retten	fair	spielen	ehrlich	schön	tot	rächen	faul	strafen	eitel	schlecht	53pct	acq_USunple_CSpleas1_noRW	acq23456_noRW	2	35	0	0	300	300	541	46	0	1	1	blank2r.bmp	0	1	+	0	1	blank2r.bmp	252	1	VKKV	306	1	tot	559	0	0	0	0	0	0	0	0	0	0	0	0	0	0	0	0	0	0	0	0	0	0	0	0	0	0	0	0	0	0	0	0	0	0	0	0	0	0	0
071619	10:10:55	10:16:20	324703	5.0.10.0	5_exp_noRW	52	Rpleas_acq	CS_B	VKKV	YDDY	GWWG	MQQM	BZZB	JXXJ	treu	retten	fair	spielen	ehrlich	schön	tot	rächen	faul	strafen	eitel	schlecht	53pct	acq_USpleas_CSpleas2_noRW	acq23456_noRW	2	36	0	0	300	300	489	50	0	1	1	blank2r.bmp	0	1	+	0	1	blank2r.bmp	252	1	YDDY	306	3	schön	559	0	0	0	0	0	0	0	0	0	0	0	0	0	0	0	0	0	0	0	0	0	0	0	0	0	0	0	0	0	0	0	0	0	0	0	0	0	0	0
071619	10:10:55	10:16:22	326729	5.0.10.0	5_exp_noRW	52	Rpleas_acq	CS_B	VKKV	YDDY	GWWG	MQQM	BZZB	JXXJ	treu	retten	fair	spielen	ehrlich	schön	tot	rächen	faul	strafen	eitel	schlecht	53pct	acq_USpleas_CSunple1_noRW	acq23456_noRW	2	37	0	0	300	300	839	50	0	1	1	blank2r.bmp	0	1	+	0	1	blank2r.bmp	252	1	GWWG	306	3	fair	559	0	0	0	0	0	0	0	0	0	0	0	0	0	0	0	0	0	0	0	0	0	0	0	0	0	0	0	0	0	0	0	0	0	0	0	0	0	0	0
071619	10:10:55	10:16:24	328409	5.0.10.0	5_exp_noRW	52	Rpleas_acq	CS_B	VKKV	YDDY	GWWG	MQQM	BZZB	JXXJ	treu	retten	fair	spielen	ehrlich	schön	tot	rächen	faul	strafen	eitel	schlecht	53pct	acq_USpleas_CSpleas2_noRW	acq23456_noRW	2	38	0	0	300	300	507	50	0	1	1	blank2r.bmp	0	1	+	0	1	blank2r.bmp	252	1	YDDY	306	2	ehrlich	559	0	0	0	0	0	0	0	0	0	0	0	0	0	0	0	0	0	0	0	0	0	0	0	0	0	0	0	0	0	0	0	0	0	0	0	0	0	0	0
071619	10:10:55	10:16:25	330021	5.0.10.0	5_exp_noRW	52	Rpleas_acq	CS_B	VKKV	YDDY	GWWG	MQQM	BZZB	JXXJ	treu	retten	fair	spielen	ehrlich	schön	tot	rächen	faul	strafen	eitel	schlecht	53pct	acq_USunple_CSunple1_noRW	acq23456_noRW	2	39	0	0	300	300	451	46	0	1	1	blank2r.bmp	0	1	+	0	1	blank2r.bmp	252	1	GWWG	306	1	tot	559	0	0	0	0	0	0	0	0	0	0	0	0	0	0	0	0	0	0	0	0	0	0	0	0	0	0	0	0	0	0	0	0	0	0	0	0	0	0	0
071619	10:10:55	10:16:27	331794	5.0.10.0	5_exp_noRW	52	Rpleas_acq	CS_B	VKKV	YDDY	GWWG	MQQM	BZZB	JXXJ	treu	retten	fair	spielen	ehrlich	schön	tot	rächen	faul	strafen	eitel	schlecht	53pct	acq_USunple_CSunple1_noRW	acq23456_noRW	2	40	0	0	300	300	597	46	0	1	1	blank2r.bmp	0	1	+	0	1	blank2r.bmp	252	1	GWWG	306	2	rächen	559	0	0	0	0	0	0	0	0	0	0	0	0	0	0	0	0	0	0	0	0	0	0	0	0	0	0	0	0	0	0	0	0	0	0	0	0	0	0	0
071619	10:10:55	10:16:29	333446	5.0.10.0	5_exp_noRW	52	Rpleas_acq	CS_B	VKKV	YDDY	GWWG	MQQM	BZZB	JXXJ	treu	retten	fair	spielen	ehrlich	schön	tot	rächen	faul	strafen	eitel	schlecht	53pct	acq_USpleas_CSpleas1_noRW	acq23456_noRW	2	41	0	0	300	300	457	50	0	1	1	blank2r.bmp	0	1	+	0	1	blank2r.bmp	252	1	VKKV	306	2	retten	559	0	0	0	0	0	0	0	0	0	0	0	0	0	0	0	0	0	0	0	0	0	0	0	0	0	0	0	0	0	0	0	0	0	0	0	0	0	0	0
071619	10:10:55	10:16:31	335552	5.0.10.0	5_exp_noRW	52	Rpleas_acq	CS_B	VKKV	YDDY	GWWG	MQQM	BZZB	JXXJ	treu	retten	fair	spielen	ehrlich	schön	tot	rächen	faul	strafen	eitel	schlecht	47pct	acq_USpleas_CSpleas2_noRW	acq23456_noRW	2	42	0	0	300	300	726	46	0	0	1	blank2r.bmp	0	1	+	0	1	blank2r.bmp	252	1	YDDY	306	3	schön	559	1	FEHLER	1319	0	0	0	0	0	0	0	0	0	0	0	0	0	0	0	0	0	0	0	0	0	0	0	0	0	0	0	0	0	0	0	0	0	0	0	0
071619	10:10:55	10:16:32	336952	5.0.10.0	5_exp_noRW	52	Rpleas_acq	CS_B	VKKV	YDDY	GWWG	MQQM	BZZB	JXXJ	treu	retten	fair	spielen	ehrlich	schön	tot	rächen	faul	strafen	eitel	schlecht	53pct	acq_USpleas_CSpleas1_noRW	acq23456_noRW	2	43	0	0	300	300	438	50	0	1	1	blank2r.bmp	0	1	+	0	1	blank2r.bmp	252	1	VKKV	306	1	treu	559	0	0	0	0	0	0	0	0	0	0	0	0	0	0	0	0	0	0	0	0	0	0	0	0	0	0	0	0	0	0	0	0	0	0	0	0	0	0	0
071619	10:10:55	10:16:34	338791	5.0.10.0	5_exp_noRW	52	Rpleas_acq	CS_B	VKKV	YDDY	GWWG	MQQM	BZZB	JXXJ	treu	retten	fair	spielen	ehrlich	schön	tot	rächen	faul	strafen	eitel	schlecht	47pct	acq_USunple_CSunple1_noRW	acq23456_noRW	2	44	0	0	300	300	671	46	0	1	1	blank2r.bmp	0	1	+	0	1	blank2r.bmp	252	1	GWWG	306	3	faul	559	0	0	0	0	0	0	0	0	0	0	0	0	0	0	0	0	0	0	0	0	0	0	0	0	0	0	0	0	0	0	0	0	0	0	0	0	0	0	0
071619	10:10:55	10:16:36	340590	5.0.10.0	5_exp_noRW	52	Rpleas_acq	CS_B	VKKV	YDDY	GWWG	MQQM	BZZB	JXXJ	treu	retten	fair	spielen	ehrlich	schön	tot	rächen	faul	strafen	eitel	schlecht	47pct	acq_USpleas_CSpleas1_noRW	acq23456_noRW	2	45	0	0	300	300	623	50	0	1	1	blank2r.bmp	0	1	+	0	1	blank2r.bmp	252	1	VKKV	306	3	fair	559	0	0	0	0	0	0	0	0	0	0	0	0	0	0	0	0	0	0	0	0	0	0	0	0	0	0	0	0	0	0	0	0	0	0	0	0	0	0	0
071619	10:10:55	10:16:38	342376	5.0.10.0	5_exp_noRW	52	Rpleas_acq	CS_B	VKKV	YDDY	GWWG	MQQM	BZZB	JXXJ	treu	retten	fair	spielen	ehrlich	schön	tot	rächen	faul	strafen	eitel	schlecht	47pct	acq_USpleas_CSpleas1_noRW	acq23456_noRW	2	46	0	0	300	300	600	50	0	1	1	blank2r.bmp	0	1	+	0	1	blank2r.bmp	252	1	VKKV	306	1	treu	559	0	0	0	0	0	0	0	0	0	0	0	0	0	0	0	0	0	0	0	0	0	0	0	0	0	0	0	0	0	0	0	0	0	0	0	0	0	0	0
071619	10:10:55	10:16:40	344229	5.0.10.0	5_exp_noRW	52	Rpleas_acq	CS_B	VKKV	YDDY	GWWG	MQQM	BZZB	JXXJ	treu	retten	fair	spielen	ehrlich	schön	tot	rächen	faul	strafen	eitel	schlecht	53pct	acq_USunple_CSunple1_noRW	acq23456_noRW	2	47	0	0	300	300	689	46	0	1	1	blank2r.bmp	0	1	+	0	1	blank2r.bmp	252	1	GWWG	306	2	rächen	559	0	0	0	0	0	0	0	0	0	0	0	0	0	0	0	0	0	0	0	0	0	0	0	0	0	0	0	0	0	0	0	0	0	0	0	0	0	0	0
071619	10:10:55	10:16:41	345775	5.0.10.0	5_exp_noRW	52	Rpleas_acq	CS_B	VKKV	YDDY	GWWG	MQQM	BZZB	JXXJ	treu	retten	fair	spielen	ehrlich	schön	tot	rächen	faul	strafen	eitel	schlecht	47pct	acq_USunple_CSunple1_noRW	acq23456_noRW	2	48	0	0	300	300	376	46	0	1	1	blank2r.bmp	0	1	+	0	1	blank2r.bmp	252	1	GWWG	306	1	tot	559	0	0	0	0	0	0	0	0	0	0	0	0	0	0	0	0	0	0	0	0	0	0	0	0	0	0	0	0	0	0	0	0	0	0	0	0	0	0	0
071619	10:10:55	10:16:43	347894	5.0.10.0	5_exp_noRW	52	Rpleas_acq	CS_B	VKKV	YDDY	GWWG	MQQM	BZZB	JXXJ	treu	retten	fair	spielen	ehrlich	schön	tot	rächen	faul	strafen	eitel	schlecht	53pct	acq_USunple_CSunple2_noRW	acq23456_noRW	2	49	0	0	300	300	953	46	0	1	1	blank2r.bmp	0	1	+	0	1	blank2r.bmp	252	1	MQQM	306	1	strafen	559	0	0	0	0	0	0	0	0	0	0	0	0	0	0	0	0	0	0	0	0	0	0	0	0	0	0	0	0	0	0	0	0	0	0	0	0	0	0	0
071619	10:10:55	10:16:45	349720	5.0.10.0	5_exp_noRW	52	Rpleas_acq	CS_B	VKKV	YDDY	GWWG	MQQM	BZZB	JXXJ	treu	retten	fair	spielen	ehrlich	schön	tot	rächen	faul	strafen	eitel	schlecht	47pct	acq_USunple_CSunple2_noRW	acq23456_noRW	2	50	0	0	300	300	657	46	0	1	1	blank2r.bmp	0	1	+	0	1	blank2r.bmp	252	1	MQQM	306	3	schlecht	559	0	0	0	0	0	0	0	0	0	0	0	0	0	0	0	0	0	0	0	0	0	0	0	0	0	0	0	0	0	0	0	0	0	0	0	0	0	0	0
071619	10:10:55	10:16:47	351452	5.0.10.0	5_exp_noRW	52	Rpleas_acq	CS_B	VKKV	YDDY	GWWG	MQQM	BZZB	JXXJ	treu	retten	fair	spielen	ehrlich	schön	tot	rächen	faul	strafen	eitel	schlecht	53pct	acq_USpleas_CSpleas2_noRW	acq23456_noRW	2	51	0	0	300	300	560	50	0	1	1	blank2r.bmp	0	1	+	0	1	blank2r.bmp	252	1	YDDY	306	1	spielen	559	0	0	0	0	0	0	0	0	0	0	0	0	0	0	0	0	0	0	0	0	0	0	0	0	0	0	0	0	0	0	0	0	0	0	0	0	0	0	0
071619	10:10:55	10:16:49	353225	5.0.10.0	5_exp_noRW	52	Rpleas_acq	CS_B	VKKV	YDDY	GWWG	MQQM	BZZB	JXXJ	treu	retten	fair	spielen	ehrlich	schön	tot	rächen	faul	strafen	eitel	schlecht	47pct	acq_USpleas_CSunple1_noRW	acq23456_noRW	2	52	0	0	300	300	610	50	0	1	1	blank2r.bmp	0	1	+	0	1	blank2r.bmp	252	1	GWWG	306	3	fair	559	0	0	0	0	0	0	0	0	0	0	0	0	0	0	0	0	0	0	0	0	0	0	0	0	0	0	0	0	0	0	0	0	0	0	0	0	0	0	0
071619	10:10:55	10:16:50	355131	5.0.10.0	5_exp_noRW	52	Rpleas_acq	CS_B	VKKV	YDDY	GWWG	MQQM	BZZB	JXXJ	treu	retten	fair	spielen	ehrlich	schön	tot	rächen	faul	strafen	eitel	schlecht	47pct	acq_USpleas_CSpleas2_noRW	acq23456_noRW	2	53	0	0	300	300	728	50	0	1	1	blank2r.bmp	0	1	+	0	1	blank2r.bmp	252	1	YDDY	306	2	ehrlich	559	0	0	0	0	0	0	0	0	0	0	0	0	0	0	0	0	0	0	0	0	0	0	0	0	0	0	0	0	0	0	0	0	0	0	0	0	0	0	0
071619	10:10:55	10:16:52	356877	5.0.10.0	5_exp_noRW	52	Rpleas_acq	CS_B	VKKV	YDDY	GWWG	MQQM	BZZB	JXXJ	treu	retten	fair	spielen	ehrlich	schön	tot	rächen	faul	strafen	eitel	schlecht	47pct	acq_USunple_CSpleas2_noRW	acq23456_noRW	2	54	0	0	300	300	583	46	0	1	1	blank2r.bmp	0	1	+	0	1	blank2r.bmp	252	1	YDDY	306	1	strafen	559	0	0	0	0	0	0	0	0	0	0	0	0	0	0	0	0	0	0	0	0	0	0	0	0	0	0	0	0	0	0	0	0	0	0	0	0	0	0	0
071619	10:10:55	10:16:54	358649	5.0.10.0	5_exp_noRW	52	Rpleas_acq	CS_B	VKKV	YDDY	GWWG	MQQM	BZZB	JXXJ	treu	retten	fair	spielen	ehrlich	schön	tot	rächen	faul	strafen	eitel	schlecht	53pct	acq_USpleas_CSpleas2_noRW	acq23456_noRW	2	55	0	0	300	300	590	50	0	1	1	blank2r.bmp	0	1	+	0	1	blank2r.bmp	252	1	YDDY	306	2	ehrlich	559	0	0	0	0	0	0	0	0	0	0	0	0	0	0	0	0	0	0	0	0	0	0	0	0	0	0	0	0	0	0	0	0	0	0	0	0	0	0	0
071619	10:10:55	10:16:56	360528	5.0.10.0	5_exp_noRW	52	Rpleas_acq	CS_B	VKKV	YDDY	GWWG	MQQM	BZZB	JXXJ	treu	retten	fair	spielen	ehrlich	schön	tot	rächen	faul	strafen	eitel	schlecht	53pct	acq_USunple_CSpleas1_noRW	acq23456_noRW	2	56	0	0	300	300	695	46	0	1	1	blank2r.bmp	0	1	+	0	1	blank2r.bmp	252	1	VKKV	306	2	rächen	559	0	0	0	0	0	0	0	0	0	0	0	0	0	0	0	0	0	0	0	0	0	0	0	0	0	0	0	0	0	0	0	0	0	0	0	0	0	0	0
071619	10:10:55	10:16:58	362408	5.0.10.0	5_exp_noRW	52	Rpleas_acq	CS_B	VKKV	YDDY	GWWG	MQQM	BZZB	JXXJ	treu	retten	fair	spielen	ehrlich	schön	tot	rächen	faul	strafen	eitel	schlecht	53pct	acq_USunple_CSunple2_noRW	acq23456_noRW	2	57	0	0	300	300	501	50	0	0	1	blank2r.bmp	0	1	+	0	1	blank2r.bmp	252	1	MQQM	306	2	eitel	559	1	FEHLER	1092	0	0	0	0	0	0	0	0	0	0	0	0	0	0	0	0	0	0	0	0	0	0	0	0	0	0	0	0	0	0	0	0	0	0	0	0
071619	10:10:55	10:16:59	363940	5.0.10.0	5_exp_noRW	52	Rpleas_acq	CS_B	VKKV	YDDY	GWWG	MQQM	BZZB	JXXJ	treu	retten	fair	spielen	ehrlich	schön	tot	rächen	faul	strafen	eitel	schlecht	47pct	acq_USpleas_CSunple2_noRW	acq23456_noRW	2	58	0	0	300	300	568	50	0	1	1	blank2r.bmp	0	1	+	0	1	blank2r.bmp	252	1	MQQM	306	2	ehrlich	559	0	0	0	0	0	0	0	0	0	0	0	0	0	0	0	0	0	0	0	0	0	0	0	0	0	0	0	0	0	0	0	0	0	0	0	0	0	0	0
071619	10:10:55	10:17:01	365713	5.0.10.0	5_exp_noRW	52	Rpleas_acq	CS_B	VKKV	YDDY	GWWG	MQQM	BZZB	JXXJ	treu	retten	fair	spielen	ehrlich	schön	tot	rächen	faul	strafen	eitel	schlecht	53pct	acq_USunple_CSunple2_noRW	acq23456_noRW	2	59	0	0	300	300	592	46	0	1	1	blank2r.bmp	0	1	+	0	1	blank2r.bmp	252	1	MQQM	306	3	schlecht	559	0	0	0	0	0	0	0	0	0	0	0	0	0	0	0	0	0	0	0	0	0	0	0	0	0	0	0	0	0	0	0	0	0	0	0	0	0	0	0
071619	10:10:55	10:17:03	367379	5.0.10.0	5_exp_noRW	52	Rpleas_acq	CS_B	VKKV	YDDY	GWWG	MQQM	BZZB	JXXJ	treu	retten	fair	spielen	ehrlich	schön	tot	rächen	faul	strafen	eitel	schlecht	47pct	acq_USunple_CSunple1_noRW	acq23456_noRW	2	60	0	0	300	300	498	46	0	1	1	blank2r.bmp	0	1	+	0	1	blank2r.bmp	252	1	GWWG	306	1	tot	559	0	0	0	0	0	0	0	0	0	0	0	0	0	0	0	0	0	0	0	0	0	0	0	0	0	0	0	0	0	0	0	0	0	0	0	0	0	0	0
071619	10:10:55	10:17:04	369018	5.0.10.0	5_exp_noRW	52	Rpleas_acq	CS_B	VKKV	YDDY	GWWG	MQQM	BZZB	JXXJ	treu	retten	fair	spielen	ehrlich	schön	tot	rächen	faul	strafen	eitel	schlecht	53pct	acq_USpleas_CSpleas2_noRW	acq23456_noRW	2	61	0	0	300	300	469	50	0	1	1	blank2r.bmp	0	1	+	0	1	blank2r.bmp	252	1	YDDY	306	1	spielen	559	0	0	0	0	0	0	0	0	0	0	0	0	0	0	0	0	0	0	0	0	0	0	0	0	0	0	0	0	0	0	0	0	0	0	0	0	0	0	0
071619	10:10:55	10:17:06	370751	5.0.10.0	5_exp_noRW	52	Rpleas_acq	CS_B	VKKV	YDDY	GWWG	MQQM	BZZB	JXXJ	treu	retten	fair	spielen	ehrlich	schön	tot	rächen	faul	strafen	eitel	schlecht	53pct	acq_USpleas_CSpleas2_noRW	acq23456_noRW	2	62	0	0	300	300	563	50	0	1	1	blank2r.bmp	0	1	+	0	1	blank2r.bmp	252	1	YDDY	306	3	schön	559	0	0	0	0	0	0	0	0	0	0	0	0	0	0	0	0	0	0	0	0	0	0	0	0	0	0	0	0	0	0	0	0	0	0	0	0	0	0	0
071619	10:10:55	10:17:08	372843	5.0.10.0	5_exp_noRW	52	Rpleas_acq	CS_B	VKKV	YDDY	GWWG	MQQM	BZZB	JXXJ	treu	retten	fair	spielen	ehrlich	schön	tot	rächen	faul	strafen	eitel	schlecht	47pct	acq_USunple_CSpleas2_noRW	acq23456_noRW	2	63	0	0	300	300	716	50	0	0	1	blank2r.bmp	0	1	+	0	1	blank2r.bmp	252	1	YDDY	306	2	eitel	559	1	FEHLER	1306	0	0	0	0	0	0	0	0	0	0	0	0	0	0	0	0	0	0	0	0	0	0	0	0	0	0	0	0	0	0	0	0	0	0	0	0
071619	10:10:55	10:17:10	374523	5.0.10.0	5_exp_noRW	52	Rpleas_acq	CS_B	VKKV	YDDY	GWWG	MQQM	BZZB	JXXJ	treu	retten	fair	spielen	ehrlich	schön	tot	rächen	faul	strafen	eitel	schlecht	47pct	acq_USpleas_CSpleas2_noRW	acq23456_noRW	2	64	0	0	300	300	707	50	0	1	1	blank2r.bmp	0	1	+	0	1	blank2r.bmp	252	1	YDDY	306	2	ehrlich	559	0	0	0	0	0	0	0	0	0	0	0	0	0	0	0	0	0	0	0	0	0	0	0	0	0	0	0	0	0	0	0	0	0	0	0	0	0	0	0
071619	10:10:55	10:17:12	376335	5.0.10.0	5_exp_noRW	52	Rpleas_acq	CS_B	VKKV	YDDY	GWWG	MQQM	BZZB	JXXJ	treu	retten	fair	spielen	ehrlich	schön	tot	rächen	faul	strafen	eitel	schlecht	47pct	acq_USpleas_CSunple1_noRW	acq23456_noRW	2	65	0	0	300	300	642	50	0	1	1	blank2r.bmp	0	1	+	0	1	blank2r.bmp	252	1	GWWG	306	1	treu	559	0	0	0	0	0	0	0	0	0	0	0	0	0	0	0	0	0	0	0	0	0	0	0	0	0	0	0	0	0	0	0	0	0	0	0	0	0	0	0
071619	10:10:55	10:17:13	378014	5.0.10.0	5_exp_noRW	52	Rpleas_acq	CS_B	VKKV	YDDY	GWWG	MQQM	BZZB	JXXJ	treu	retten	fair	spielen	ehrlich	schön	tot	rächen	faul	strafen	eitel	schlecht	47pct	acq_USunple_CSunple1_noRW	acq23456_noRW	2	66	0	0	300	300	508	46	0	1	1	blank2r.bmp	0	1	+	0	1	blank2r.bmp	252	1	GWWG	306	3	faul	559	0	0	0	0	0	0	0	0	0	0	0	0	0	0	0	0	0	0	0	0	0	0	0	0	0	0	0	0	0	0	0	0	0	0	0	0	0	0	0
071619	10:10:55	10:17:15	380174	5.0.10.0	5_exp_noRW	52	Rpleas_acq	CS_B	VKKV	YDDY	GWWG	MQQM	BZZB	JXXJ	treu	retten	fair	spielen	ehrlich	schön	tot	rächen	faul	strafen	eitel	schlecht	53pct	acq_USunple_CSunple2_noRW	acq23456_noRW	2	67	0	0	300	300	976	46	0	1	1	blank2r.bmp	0	1	+	0	1	blank2r.bmp	252	1	MQQM	306	2	eitel	559	0	0	0	0	0	0	0	0	0	0	0	0	0	0	0	0	0	0	0	0	0	0	0	0	0	0	0	0	0	0	0	0	0	0	0	0	0	0	0
071619	10:10:55	10:17:17	382066	5.0.10.0	5_exp_noRW	52	Rpleas_acq	CS_B	VKKV	YDDY	GWWG	MQQM	BZZB	JXXJ	treu	retten	fair	spielen	ehrlich	schön	tot	rächen	faul	strafen	eitel	schlecht	47pct	acq_USpleas_CSpleas1_noRW	acq23456_noRW	2	68	0	0	300	300	725	50	0	1	1	blank2r.bmp	0	1	+	0	1	blank2r.bmp	252	1	VKKV	306	3	fair	559	0	0	0	0	0	0	0	0	0	0	0	0	0	0	0	0	0	0	0	0	0	0	0	0	0	0	0	0	0	0	0	0	0	0	0	0	0	0	0
071619	10:10:55	10:17:20	384305	5.0.10.0	5_exp_noRW	52	Rpleas_acq	CS_B	VKKV	YDDY	GWWG	MQQM	BZZB	JXXJ	treu	retten	fair	spielen	ehrlich	schön	tot	rächen	faul	strafen	eitel	schlecht	47pct	acq_USpleas_CSpleas1_noRW	acq23456_noRW	2	69	0	0	300	300	840	46	0	0	1	blank2r.bmp	0	1	+	0	1	blank2r.bmp	252	1	VKKV	306	2	retten	559	1	FEHLER	1439	0	0	0	0	0	0	0	0	0	0	0	0	0	0	0	0	0	0	0	0	0	0	0	0	0	0	0	0	0	0	0	0	0	0	0	0
071619	10:10:55	10:17:21	386024	5.0.10.0	5_exp_noRW	52	Rpleas_acq	CS_B	VKKV	YDDY	GWWG	MQQM	BZZB	JXXJ	treu	retten	fair	spielen	ehrlich	schön	tot	rächen	faul	strafen	eitel	schlecht	47pct	acq_USunple_CSunple2_noRW	acq23456_noRW	2	70	0	0	300	300	767	46	0	1	1	blank2r.bmp	0	1	+	0	1	blank2r.bmp	252	1	MQQM	306	1	strafen	559	0	0	0	0	0	0	0	0	0	0	0	0	0	0	0	0	0	0	0	0	0	0	0	0	0	0	0	0	0	0	0	0	0	0	0	0	0	0	0
071619	10:10:55	10:17:23	387784	5.0.10.0	5_exp_noRW	52	Rpleas_acq	CS_B	VKKV	YDDY	GWWG	MQQM	BZZB	JXXJ	treu	retten	fair	spielen	ehrlich	schön	tot	rächen	faul	strafen	eitel	schlecht	53pct	acq_USpleas_CSpleas1_noRW	acq23456_noRW	2	71	0	0	300	300	583	50	0	1	1	blank2r.bmp	0	1	+	0	1	blank2r.bmp	252	1	VKKV	306	1	treu	559	0	0	0	0	0	0	0	0	0	0	0	0	0	0	0	0	0	0	0	0	0	0	0	0	0	0	0	0	0	0	0	0	0	0	0	0	0	0	0
071619	10:10:55	10:17:25	389876	5.0.10.0	5_exp_noRW	52	Rpleas_acq	CS_B	VKKV	YDDY	GWWG	MQQM	BZZB	JXXJ	treu	retten	fair	spielen	ehrlich	schön	tot	rächen	faul	strafen	eitel	schlecht	53pct	acq_USunple_CSpleas1_noRW	acq23456_noRW	2	72	0	0	300	300	905	46	0	1	1	blank2r.bmp	0	1	+	0	1	blank2r.bmp	252	1	VKKV	306	3	faul	559	0	0	0	0	0	0	0	0	0	0	0	0	0	0	0	0	0	0	0	0	0	0	0	0	0	0	0	0	0	0	0	0	0	0	0	0	0	0	0
071619	10:10:55	10:17:27	391902	5.0.10.0	5_exp_noRW	52	Rpleas_acq	CS_B	VKKV	YDDY	GWWG	MQQM	BZZB	JXXJ	treu	retten	fair	spielen	ehrlich	schön	tot	rächen	faul	strafen	eitel	schlecht	53pct	acq_USunple_CSunple2_noRW	acq23456_noRW	2	73	0	0	300	300	642	50	0	0	1	blank2r.bmp	0	1	+	0	1	blank2r.bmp	252	1	MQQM	306	2	eitel	559	1	FEHLER	1239	0	0	0	0	0	0	0	0	0	0	0	0	0	0	0	0	0	0	0	0	0	0	0	0	0	0	0	0	0	0	0	0	0	0	0	0
071619	10:10:55	10:17:29	393475	5.0.10.0	5_exp_noRW	52	Rpleas_acq	CS_B	VKKV	YDDY	GWWG	MQQM	BZZB	JXXJ	treu	retten	fair	spielen	ehrlich	schön	tot	rächen	faul	strafen	eitel	schlecht	47pct	acq_USpleas_CSpleas2_noRW	acq23456_noRW	2	74	0	0	300	300	612	50	0	1	1	blank2r.bmp	0	1	+	0	1	blank2r.bmp	252	1	YDDY	306	1	spielen	559	0	0	0	0	0	0	0	0	0	0	0	0	0	0	0	0	0	0	0	0	0	0	0	0	0	0	0	0	0	0	0	0	0	0	0	0	0	0	0
071619	10:10:55	10:17:31	395794	5.0.10.0	5_exp_noRW	52	Rpleas_acq	CS_B	VKKV	YDDY	GWWG	MQQM	BZZB	JXXJ	treu	retten	fair	spielen	ehrlich	schön	tot	rächen	faul	strafen	eitel	schlecht	53pct	acq_USunple_CSunple2_noRW	acq23456_noRW	2	75	0	0	300	300	1157	46	0	1	1	blank2r.bmp	0	1	+	0	1	blank2r.bmp	252	1	MQQM	306	3	schlecht	559	0	0	0	0	0	0	0	0	0	0	0	0	0	0	0	0	0	0	0	0	0	0	0	0	0	0	0	0	0	0	0	0	0	0	0	0	0	0	0
071619	10:10:55	10:17:33	398193	5.0.10.0	5_exp_noRW	52	Rpleas_acq	CS_B	VKKV	YDDY	GWWG	MQQM	BZZB	JXXJ	treu	retten	fair	spielen	ehrlich	schön	tot	rächen	faul	strafen	eitel	schlecht	53pct	acq_USpleas_CSunple2_noRW	acq23456_noRW	2	76	0	0	300	300	1222	50	0	1	1	blank2r.bmp	0	1	+	0	1	blank2r.bmp	252	1	MQQM	306	1	spielen	559	0	0	0	0	0	0	0	0	0	0	0	0	0	0	0	0	0	0	0	0	0	0	0	0	0	0	0	0	0	0	0	0	0	0	0	0	0	0	0
071619	10:10:55	10:17:35	400059	5.0.10.0	5_exp_noRW	52	Rpleas_acq	CS_B	VKKV	YDDY	GWWG	MQQM	BZZB	JXXJ	treu	retten	fair	spielen	ehrlich	schön	tot	rächen	faul	strafen	eitel	schlecht	53pct	acq_USunple_CSunple1_noRW	acq23456_noRW	2	77	0	0	300	300	690	46	0	1	1	blank2r.bmp	0	1	+	0	1	blank2r.bmp	252	1	GWWG	306	2	rächen	559	0	0	0	0	0	0	0	0	0	0	0	0	0	0	0	0	0	0	0	0	0	0	0	0	0	0	0	0	0	0	0	0	0	0	0	0	0	0	0
071619	10:10:55	10:17:37	401924	5.0.10.0	5_exp_noRW	52	Rpleas_acq	CS_B	VKKV	YDDY	GWWG	MQQM	BZZB	JXXJ	treu	retten	fair	spielen	ehrlich	schön	tot	rächen	faul	strafen	eitel	schlecht	47pct	acq_USunple_CSunple1_noRW	acq23456_noRW	2	78	0	0	300	300	693	46	0	1	1	blank2r.bmp	0	1	+	0	1	blank2r.bmp	252	1	GWWG	306	2	rächen	559	0	0	0	0	0	0	0	0	0	0	0	0	0	0	0	0	0	0	0	0	0	0	0	0	0	0	0	0	0	0	0	0	0	0	0	0	0	0	0
071619	10:10:55	10:17:39	403657	5.0.10.0	5_exp_noRW	52	Rpleas_acq	CS_B	VKKV	YDDY	GWWG	MQQM	BZZB	JXXJ	treu	retten	fair	spielen	ehrlich	schön	tot	rächen	faul	strafen	eitel	schlecht	47pct	acq_USunple_CSunple1_noRW	acq23456_noRW	2	79	0	0	300	300	558	46	0	1	1	blank2r.bmp	0	1	+	0	1	blank2r.bmp	252	1	GWWG	306	3	faul	559	0	0	0	0	0	0	0	0	0	0	0	0	0	0	0	0	0	0	0	0	0	0	0	0	0	0	0	0	0	0	0	0	0	0	0	0	0	0	0
071619	10:10:55	10:17:41	405403	5.0.10.0	5_exp_noRW	52	Rpleas_acq	CS_B	VKKV	YDDY	GWWG	MQQM	BZZB	JXXJ	treu	retten	fair	spielen	ehrlich	schön	tot	rächen	faul	strafen	eitel	schlecht	47pct	acq_USpleas_CSpleas1_noRW	acq23456_noRW	2	80	0	0	300	300	577	50	0	1	1	blank2r.bmp	0	1	+	0	1	blank2r.bmp	252	1	VKKV	306	3	fair	559	0	0	0	0	0	0	0	0	0	0	0	0	0	0	0	0	0	0	0	0	0	0	0	0	0	0	0	0	0	0	0	0	0	0	0	0	0	0	0
071619	10:10:55	10:17:48	412947	5.0.10.0	5_exp_noRW	52	Rpleas_acq	CS_B	VKKV	YDDY	GWWG	MQQM	BZZB	JXXJ	treu	retten	fair	spielen	ehrlich	schön	tot	rächen	faul	strafen	eitel	schlecht	53pct	acq_USpleas_CSpleas1_noRW	acq23456_noRW	3	1	0	0	300	300	844	50	0	1	1	blank2r.bmp	0	1	+	0	1	blank2r.bmp	252	1	VKKV	306	2	retten	559	0	0	0	0	0	0	0	0	0	0	0	0	0	0	0	0	0	0	0	0	0	0	0	0	0	0	0	0	0	0	0	0	0	0	0	0	0	0	0
071619	10:10:55	10:17:50	414613	5.0.10.0	5_exp_noRW	52	Rpleas_acq	CS_B	VKKV	YDDY	GWWG	MQQM	BZZB	JXXJ	treu	retten	fair	spielen	ehrlich	schön	tot	rächen	faul	strafen	eitel	schlecht	47pct	acq_USpleas_CSunple2_noRW	acq23456_noRW	3	2	0	0	300	300	501	50	0	1	1	blank2r.bmp	0	1	+	0	1	blank2r.bmp	252	1	MQQM	306	3	schön	559	0	0	0	0	0	0	0	0	0	0	0	0	0	0	0	0	0	0	0	0	0	0	0	0	0	0	0	0	0	0	0	0	0	0	0	0	0	0	0
071619	10:10:55	10:17:52	416252	5.0.10.0	5_exp_noRW	52	Rpleas_acq	CS_B	VKKV	YDDY	GWWG	MQQM	BZZB	JXXJ	treu	retten	fair	spielen	ehrlich	schön	tot	rächen	faul	strafen	eitel	schlecht	53pct	acq_USunple_CSunple1_noRW	acq23456_noRW	3	3	0	0	300	300	473	46	0	1	1	blank2r.bmp	0	1	+	0	1	blank2r.bmp	252	1	GWWG	306	1	tot	559	0	0	0	0	0	0	0	0	0	0	0	0	0	0	0	0	0	0	0	0	0	0	0	0	0	0	0	0	0	0	0	0	0	0	0	0	0	0	0
071619	10:10:55	10:17:53	418064	5.0.10.0	5_exp_noRW	52	Rpleas_acq	CS_B	VKKV	YDDY	GWWG	MQQM	BZZB	JXXJ	treu	retten	fair	spielen	ehrlich	schön	tot	rächen	faul	strafen	eitel	schlecht	47pct	acq_USpleas_CSpleas2_noRW	acq23456_noRW	3	4	0	0	300	300	647	50	0	1	1	blank2r.bmp	0	1	+	0	1	blank2r.bmp	252	1	YDDY	306	3	schön	559	0	0	0	0	0	0	0	0	0	0	0	0	0	0	0	0	0	0	0	0	0	0	0	0	0	0	0	0	0	0	0	0	0	0	0	0	0	0	0
071619	10:10:55	10:17:55	420077	5.0.10.0	5_exp_noRW	52	Rpleas_acq	CS_B	VKKV	YDDY	GWWG	MQQM	BZZB	JXXJ	treu	retten	fair	spielen	ehrlich	schön	tot	rächen	faul	strafen	eitel	schlecht	47pct	acq_USunple_CSunple1_noRW	acq23456_noRW	3	5	0	0	300	300	634	50	0	0	1	blank2r.bmp	0	1	+	0	1	blank2r.bmp	252	1	GWWG	306	3	faul	559	1	FEHLER	1226	0	0	0	0	0	0	0	0	0	0	0	0	0	0	0	0	0	0	0	0	0	0	0	0	0	0	0	0	0	0	0	0	0	0	0	0
071619	10:10:55	10:17:57	422076	5.0.10.0	5_exp_noRW	52	Rpleas_acq	CS_B	VKKV	YDDY	GWWG	MQQM	BZZB	JXXJ	treu	retten	fair	spielen	ehrlich	schön	tot	rächen	faul	strafen	eitel	schlecht	53pct	acq_USunple_CSpleas2_noRW	acq23456_noRW	3	6	0	0	300	300	1034	46	0	1	1	blank2r.bmp	0	1	+	0	1	blank2r.bmp	252	1	YDDY	306	3	schlecht	559	0	0	0	0	0	0	0	0	0	0	0	0	0	0	0	0	0	0	0	0	0	0	0	0	0	0	0	0	0	0	0	0	0	0	0	0	0	0	0
071619	10:10:55	10:17:59	424129	5.0.10.0	5_exp_noRW	52	Rpleas_acq	CS_B	VKKV	YDDY	GWWG	MQQM	BZZB	JXXJ	treu	retten	fair	spielen	ehrlich	schön	tot	rächen	faul	strafen	eitel	schlecht	53pct	acq_USpleas_CSpleas1_noRW	acq23456_noRW	3	7	0	0	300	300	873	50	0	1	1	blank2r.bmp	0	1	+	0	1	blank2r.bmp	252	1	VKKV	306	1	treu	559	0	0	0	0	0	0	0	0	0	0	0	0	0	0	0	0	0	0	0	0	0	0	0	0	0	0	0	0	0	0	0	0	0	0	0	0	0	0	0
071619	10:10:55	10:18:01	425928	5.0.10.0	5_exp_noRW	52	Rpleas_acq	CS_B	VKKV	YDDY	GWWG	MQQM	BZZB	JXXJ	treu	retten	fair	spielen	ehrlich	schön	tot	rächen	faul	strafen	eitel	schlecht	53pct	acq_USpleas_CSpleas1_noRW	acq23456_noRW	3	8	0	0	300	300	627	50	0	1	1	blank2r.bmp	0	1	+	0	1	blank2r.bmp	252	1	VKKV	306	2	retten	559	0	0	0	0	0	0	0	0	0	0	0	0	0	0	0	0	0	0	0	0	0	0	0	0	0	0	0	0	0	0	0	0	0	0	0	0	0	0	0
071619	10:10:55	10:18:03	427580	5.0.10.0	5_exp_noRW	52	Rpleas_acq	CS_B	VKKV	YDDY	GWWG	MQQM	BZZB	JXXJ	treu	retten	fair	spielen	ehrlich	schön	tot	rächen	faul	strafen	eitel	schlecht	53pct	acq_USpleas_CSpleas1_noRW	acq23456_noRW	3	9	0	0	300	300	484	50	0	1	1	blank2r.bmp	0	1	+	0	1	blank2r.bmp	252	1	VKKV	306	3	fair	559	0	0	0	0	0	0	0	0	0	0	0	0	0	0	0	0	0	0	0	0	0	0	0	0	0	0	0	0	0	0	0	0	0	0	0	0	0	0	0
071619	10:10:55	10:18:05	429286	5.0.10.0	5_exp_noRW	52	Rpleas_acq	CS_B	VKKV	YDDY	GWWG	MQQM	BZZB	JXXJ	treu	retten	fair	spielen	ehrlich	schön	tot	rächen	faul	strafen	eitel	schlecht	53pct	acq_USpleas_CSpleas2_noRW	acq23456_noRW	3	10	0	0	300	300	541	50	0	1	1	blank2r.bmp	0	1	+	0	1	blank2r.bmp	252	1	YDDY	306	1	spielen	559	0	0	0	0	0	0	0	0	0	0	0	0	0	0	0	0	0	0	0	0	0	0	0	0	0	0	0	0	0	0	0	0	0	0	0	0	0	0	0
071619	10:10:55	10:18:07	431765	5.0.10.0	5_exp_noRW	52	Rpleas_acq	CS_B	VKKV	YDDY	GWWG	MQQM	BZZB	JXXJ	treu	retten	fair	spielen	ehrlich	schön	tot	rächen	faul	strafen	eitel	schlecht	47pct	acq_USunple_CSunple2_noRW	acq23456_noRW	3	11	0	0	300	300	1297	46	0	1	1	blank2r.bmp	0	1	+	0	1	blank2r.bmp	252	1	MQQM	306	1	strafen	559	0	0	0	0	0	0	0	0	0	0	0	0	0	0	0	0	0	0	0	0	0	0	0	0	0	0	0	0	0	0	0	0	0	0	0	0	0	0	0
071619	10:10:55	10:18:09	433804	5.0.10.0	5_exp_noRW	52	Rpleas_acq	CS_B	VKKV	YDDY	GWWG	MQQM	BZZB	JXXJ	treu	retten	fair	spielen	ehrlich	schön	tot	rächen	faul	strafen	eitel	schlecht	53pct	acq_USunple_CSunple1_noRW	acq23456_noRW	3	12	0	0	300	300	853	46	0	1	1	blank2r.bmp	0	1	+	0	1	blank2r.bmp	252	1	GWWG	306	2	rächen	559	0	0	0	0	0	0	0	0	0	0	0	0	0	0	0	0	0	0	0	0	0	0	0	0	0	0	0	0	0	0	0	0	0	0	0	0	0	0	0
071619	10:10:55	10:18:11	435524	5.0.10.0	5_exp_noRW	52	Rpleas_acq	CS_B	VKKV	YDDY	GWWG	MQQM	BZZB	JXXJ	treu	retten	fair	spielen	ehrlich	schön	tot	rächen	faul	strafen	eitel	schlecht	53pct	acq_USunple_CSunple1_noRW	acq23456_noRW	3	13	0	0	300	300	549	46	0	1	1	blank2r.bmp	0	1	+	0	1	blank2r.bmp	252	1	GWWG	306	1	tot	559	0	0	0	0	0	0	0	0	0	0	0	0	0	0	0	0	0	0	0	0	0	0	0	0	0	0	0	0	0	0	0	0	0	0	0	0	0	0	0
071619	10:10:55	10:18:13	437363	5.0.10.0	5_exp_noRW	52	Rpleas_acq	CS_B	VKKV	YDDY	GWWG	MQQM	BZZB	JXXJ	treu	retten	fair	spielen	ehrlich	schön	tot	rächen	faul	strafen	eitel	schlecht	53pct	acq_USunple_CSunple2_noRW	acq23456_noRW	3	14	0	0	300	300	677	46	0	1	1	blank2r.bmp	0	1	+	0	1	blank2r.bmp	252	1	MQQM	306	2	eitel	559	0	0	0	0	0	0	0	0	0	0	0	0	0	0	0	0	0	0	0	0	0	0	0	0	0	0	0	0	0	0	0	0	0	0	0	0	0	0	0
071619	10:10:55	10:18:15	439229	5.0.10.0	5_exp_noRW	52	Rpleas_acq	CS_B	VKKV	YDDY	GWWG	MQQM	BZZB	JXXJ	treu	retten	fair	spielen	ehrlich	schön	tot	rächen	faul	strafen	eitel	schlecht	53pct	acq_USpleas_CSpleas2_noRW	acq23456_noRW	3	15	0	0	300	300	681	50	0	1	1	blank2r.bmp	0	1	+	0	1	blank2r.bmp	252	1	YDDY	306	3	schön	559	0	0	0	0	0	0	0	0	0	0	0	0	0	0	0	0	0	0	0	0	0	0	0	0	0	0	0	0	0	0	0	0	0	0	0	0	0	0	0
071619	10:10:55	10:18:16	441201	5.0.10.0	5_exp_noRW	52	Rpleas_acq	CS_B	VKKV	YDDY	GWWG	MQQM	BZZB	JXXJ	treu	retten	fair	spielen	ehrlich	schön	tot	rächen	faul	strafen	eitel	schlecht	47pct	acq_USpleas_CSunple1_noRW	acq23456_noRW	3	16	0	0	300	300	792	50	0	1	1	blank2r.bmp	0	1	+	0	1	blank2r.bmp	252	1	GWWG	306	2	retten	559	0	0	0	0	0	0	0	0	0	0	0	0	0	0	0	0	0	0	0	0	0	0	0	0	0	0	0	0	0	0	0	0	0	0	0	0	0	0	0
071619	10:10:55	10:18:18	442934	5.0.10.0	5_exp_noRW	52	Rpleas_acq	CS_B	VKKV	YDDY	GWWG	MQQM	BZZB	JXXJ	treu	retten	fair	spielen	ehrlich	schön	tot	rächen	faul	strafen	eitel	schlecht	47pct	acq_USunple_CSunple2_noRW	acq23456_noRW	3	17	0	0	300	300	553	46	0	1	1	blank2r.bmp	0	1	+	0	1	blank2r.bmp	252	1	MQQM	306	1	strafen	559	0	0	0	0	0	0	0	0	0	0	0	0	0	0	0	0	0	0	0	0	0	0	0	0	0	0	0	0	0	0	0	0	0	0	0	0	0	0	0
071619	10:10:55	10:18:20	444853	5.0.10.0	5_exp_noRW	52	Rpleas_acq	CS_B	VKKV	YDDY	GWWG	MQQM	BZZB	JXXJ	treu	retten	fair	spielen	ehrlich	schön	tot	rächen	faul	strafen	eitel	schlecht	47pct	acq_USunple_CSpleas1_noRW	acq23456_noRW	3	18	0	0	300	300	743	46	0	1	1	blank2r.bmp	0	1	+	0	1	blank2r.bmp	252	1	VKKV	306	1	tot	559	0	0	0	0	0	0	0	0	0	0	0	0	0	0	0	0	0	0	0	0	0	0	0	0	0	0	0	0	0	0	0	0	0	0	0	0	0	0	0
071619	10:10:55	10:18:22	446639	5.0.10.0	5_exp_noRW	52	Rpleas_acq	CS_B	VKKV	YDDY	GWWG	MQQM	BZZB	JXXJ	treu	retten	fair	spielen	ehrlich	schön	tot	rächen	faul	strafen	eitel	schlecht	47pct	acq_USunple_CSunple2_noRW	acq23456_noRW	3	19	0	0	300	300	599	46	0	1	1	blank2r.bmp	0	1	+	0	1	blank2r.bmp	252	1	MQQM	306	3	schlecht	559	0	0	0	0	0	0	0	0	0	0	0	0	0	0	0	0	0	0	0	0	0	0	0	0	0	0	0	0	0	0	0	0	0	0	0	0	0	0	0
071619	10:10:55	10:18:24	448398	5.0.10.0	5_exp_noRW	52	Rpleas_acq	CS_B	VKKV	YDDY	GWWG	MQQM	BZZB	JXXJ	treu	retten	fair	spielen	ehrlich	schön	tot	rächen	faul	strafen	eitel	schlecht	53pct	acq_USpleas_CSpleas2_noRW	acq23456_noRW	3	20	0	0	300	300	598	50	0	1	1	blank2r.bmp	0	1	+	0	1	blank2r.bmp	252	1	YDDY	306	2	ehrlich	559	0	0	0	0	0	0	0	0	0	0	0	0	0	0	0	0	0	0	0	0	0	0	0	0	0	0	0	0	0	0	0	0	0	0	0	0	0	0	0
071619	10:10:55	10:18:27	451464	5.0.10.0	5_exp_noRW	52	Rpleas_acq	CS_B	VKKV	YDDY	GWWG	MQQM	BZZB	JXXJ	treu	retten	fair	spielen	ehrlich	schön	tot	rächen	faul	strafen	eitel	schlecht	53pct	acq_USunple_CSunple2_noRW	acq23456_noRW	3	21	0	0	300	300	1887	46	0	1	1	blank2r.bmp	0	1	+	0	1	blank2r.bmp	252	1	MQQM	306	1	strafen	559	0	0	0	0	0	0	0	0	0	0	0	0	0	0	0	0	0	0	0	0	0	0	0	0	0	0	0	0	0	0	0	0	0	0	0	0	0	0	0
071619	10:10:55	10:18:28	453143	5.0.10.0	5_exp_noRW	52	Rpleas_acq	CS_B	VKKV	YDDY	GWWG	MQQM	BZZB	JXXJ	treu	retten	fair	spielen	ehrlich	schön	tot	rächen	faul	strafen	eitel	schlecht	47pct	acq_USpleas_CSpleas1_noRW	acq23456_noRW	3	22	0	0	300	300	496	50	0	1	1	blank2r.bmp	0	1	+	0	1	blank2r.bmp	252	1	VKKV	306	2	retten	559	0	0	0	0	0	0	0	0	0	0	0	0	0	0	0	0	0	0	0	0	0	0	0	0	0	0	0	0	0	0	0	0	0	0	0	0	0	0	0
071619	10:10:55	10:18:30	455129	5.0.10.0	5_exp_noRW	52	Rpleas_acq	CS_B	VKKV	YDDY	GWWG	MQQM	BZZB	JXXJ	treu	retten	fair	spielen	ehrlich	schön	tot	rächen	faul	strafen	eitel	schlecht	53pct	acq_USpleas_CSpleas2_noRW	acq23456_noRW	3	23	0	0	300	300	808	50	0	1	1	blank2r.bmp	0	1	+	0	1	blank2r.bmp	252	1	YDDY	306	2	ehrlich	559	0	0	0	0	0	0	0	0	0	0	0	0	0	0	0	0	0	0	0	0	0	0	0	0	0	0	0	0	0	0	0	0	0	0	0	0	0	0	0
071619	10:10:55	10:18:32	457208	5.0.10.0	5_exp_noRW	52	Rpleas_acq	CS_B	VKKV	YDDY	GWWG	MQQM	BZZB	JXXJ	treu	retten	fair	spielen	ehrlich	schön	tot	rächen	faul	strafen	eitel	schlecht	53pct	acq_USunple_CSunple2_noRW	acq23456_noRW	3	24	0	0	300	300	893	46	0	1	1	blank2r.bmp	0	1	+	0	1	blank2r.bmp	252	1	MQQM	306	3	schlecht	559	0	0	0	0	0	0	0	0	0	0	0	0	0	0	0	0	0	0	0	0	0	0	0	0	0	0	0	0	0	0	0	0	0	0	0	0	0	0	0
071619	10:10:55	10:18:35	459247	5.0.10.0	5_exp_noRW	52	Rpleas_acq	CS_B	VKKV	YDDY	GWWG	MQQM	BZZB	JXXJ	treu	retten	fair	spielen	ehrlich	schön	tot	rächen	faul	strafen	eitel	schlecht	47pct	acq_USunple_CSunple1_noRW	acq23456_noRW	3	25	0	0	300	300	875	46	0	1	1	blank2r.bmp	0	1	+	0	1	blank2r.bmp	252	1	GWWG	306	1	tot	559	0	0	0	0	0	0	0	0	0	0	0	0	0	0	0	0	0	0	0	0	0	0	0	0	0	0	0	0	0	0	0	0	0	0	0	0	0	0	0
071619	10:10:55	10:18:36	461086	5.0.10.0	5_exp_noRW	52	Rpleas_acq	CS_B	VKKV	YDDY	GWWG	MQQM	BZZB	JXXJ	treu	retten	fair	spielen	ehrlich	schön	tot	rächen	faul	strafen	eitel	schlecht	53pct	acq_USunple_CSunple2_noRW	acq23456_noRW	3	26	0	0	300	300	659	46	0	1	1	blank2r.bmp	0	1	+	0	1	blank2r.bmp	252	1	MQQM	306	2	eitel	559	0	0	0	0	0	0	0	0	0	0	0	0	0	0	0	0	0	0	0	0	0	0	0	0	0	0	0	0	0	0	0	0	0	0	0	0	0	0	0
071619	10:10:55	10:18:38	462686	5.0.10.0	5_exp_noRW	52	Rpleas_acq	CS_B	VKKV	YDDY	GWWG	MQQM	BZZB	JXXJ	treu	retten	fair	spielen	ehrlich	schön	tot	rächen	faul	strafen	eitel	schlecht	47pct	acq_USpleas_CSpleas2_noRW	acq23456_noRW	3	27	0	0	300	300	429	50	0	1	1	blank2r.bmp	0	1	+	0	1	blank2r.bmp	252	1	YDDY	306	1	spielen	559	0	0	0	0	0	0	0	0	0	0	0	0	0	0	0	0	0	0	0	0	0	0	0	0	0	0	0	0	0	0	0	0	0	0	0	0	0	0	0
071619	10:10:55	10:18:40	464432	5.0.10.0	5_exp_noRW	52	Rpleas_acq	CS_B	VKKV	YDDY	GWWG	MQQM	BZZB	JXXJ	treu	retten	fair	spielen	ehrlich	schön	tot	rächen	faul	strafen	eitel	schlecht	47pct	acq_USpleas_CSpleas2_noRW	acq23456_noRW	3	28	0	0	300	300	567	50	0	1	1	blank2r.bmp	0	1	+	0	1	blank2r.bmp	252	1	YDDY	306	3	schön	559	0	0	0	0	0	0	0	0	0	0	0	0	0	0	0	0	0	0	0	0	0	0	0	0	0	0	0	0	0	0	0	0	0	0	0	0	0	0	0
071619	10:10:55	10:18:41	466164	5.0.10.0	5_exp_noRW	52	Rpleas_acq	CS_B	VKKV	YDDY	GWWG	MQQM	BZZB	JXXJ	treu	retten	fair	spielen	ehrlich	schön	tot	rächen	faul	strafen	eitel	schlecht	53pct	acq_USpleas_CSpleas1_noRW	acq23456_noRW	3	29	0	0	300	300	554	50	0	1	1	blank2r.bmp	0	1	+	0	1	blank2r.bmp	252	1	VKKV	306	1	treu	559	0	0	0	0	0	0	0	0	0	0	0	0	0	0	0	0	0	0	0	0	0	0	0	0	0	0	0	0	0	0	0	0	0	0	0	0	0	0	0
071619	10:10:55	10:18:43	467777	5.0.10.0	5_exp_noRW	52	Rpleas_acq	CS_B	VKKV	YDDY	GWWG	MQQM	BZZB	JXXJ	treu	retten	fair	spielen	ehrlich	schön	tot	rächen	faul	strafen	eitel	schlecht	47pct	acq_USpleas_CSpleas1_noRW	acq23456_noRW	3	30	0	0	300	300	428	50	0	1	1	blank2r.bmp	0	1	+	0	1	blank2r.bmp	252	1	VKKV	306	3	fair	559	0	0	0	0	0	0	0	0	0	0	0	0	0	0	0	0	0	0	0	0	0	0	0	0	0	0	0	0	0	0	0	0	0	0	0	0	0	0	0
071619	10:10:55	10:18:45	469456	5.0.10.0	5_exp_noRW	52	Rpleas_acq	CS_B	VKKV	YDDY	GWWG	MQQM	BZZB	JXXJ	treu	retten	fair	spielen	ehrlich	schön	tot	rächen	faul	strafen	eitel	schlecht	47pct	acq_USunple_CSpleas2_noRW	acq23456_noRW	3	31	0	0	300	300	507	46	0	1	1	blank2r.bmp	0	1	+	0	1	blank2r.bmp	252	1	YDDY	306	1	strafen	559	0	0	0	0	0	0	0	0	0	0	0	0	0	0	0	0	0	0	0	0	0	0	0	0	0	0	0	0	0	0	0	0	0	0	0	0	0	0	0
071619	10:10:55	10:18:46	471176	5.0.10.0	5_exp_noRW	52	Rpleas_acq	CS_B	VKKV	YDDY	GWWG	MQQM	BZZB	JXXJ	treu	retten	fair	spielen	ehrlich	schön	tot	rächen	faul	strafen	eitel	schlecht	47pct	acq_USpleas_CSpleas1_noRW	acq23456_noRW	3	32	0	0	300	300	552	50	0	1	1	blank2r.bmp	0	1	+	0	1	blank2r.bmp	252	1	VKKV	306	2	retten	559	0	0	0	0	0	0	0	0	0	0	0	0	0	0	0	0	0	0	0	0	0	0	0	0	0	0	0	0	0	0	0	0	0	0	0	0	0	0	0
071619	10:10:55	10:18:48	473028	5.0.10.0	5_exp_noRW	52	Rpleas_acq	CS_B	VKKV	YDDY	GWWG	MQQM	BZZB	JXXJ	treu	retten	fair	spielen	ehrlich	schön	tot	rächen	faul	strafen	eitel	schlecht	53pct	acq_USunple_CSunple1_noRW	acq23456_noRW	3	33	0	0	300	300	674	46	0	1	1	blank2r.bmp	0	1	+	0	1	blank2r.bmp	252	1	GWWG	306	3	faul	559	0	0	0	0	0	0	0	0	0	0	0	0	0	0	0	0	0	0	0	0	0	0	0	0	0	0	0	0	0	0	0	0	0	0	0	0	0	0	0
071619	10:10:55	10:18:50	474787	5.0.10.0	5_exp_noRW	52	Rpleas_acq	CS_B	VKKV	YDDY	GWWG	MQQM	BZZB	JXXJ	treu	retten	fair	spielen	ehrlich	schön	tot	rächen	faul	strafen	eitel	schlecht	53pct	acq_USunple_CSunple2_noRW	acq23456_noRW	3	34	0	0	300	300	577	46	0	1	1	blank2r.bmp	0	1	+	0	1	blank2r.bmp	252	1	MQQM	306	1	strafen	559	0	0	0	0	0	0	0	0	0	0	0	0	0	0	0	0	0	0	0	0	0	0	0	0	0	0	0	0	0	0	0	0	0	0	0	0	0	0	0
071619	10:10:55	10:18:52	476680	5.0.10.0	5_exp_noRW	52	Rpleas_acq	CS_B	VKKV	YDDY	GWWG	MQQM	BZZB	JXXJ	treu	retten	fair	spielen	ehrlich	schön	tot	rächen	faul	strafen	eitel	schlecht	53pct	acq_USunple_CSunple1_noRW	acq23456_noRW	3	35	0	0	300	300	727	46	0	1	1	blank2r.bmp	0	1	+	0	1	blank2r.bmp	252	1	GWWG	306	2	rächen	559	0	0	0	0	0	0	0	0	0	0	0	0	0	0	0	0	0	0	0	0	0	0	0	0	0	0	0	0	0	0	0	0	0	0	0	0	0	0	0
071619	10:10:55	10:18:54	478586	5.0.10.0	5_exp_noRW	52	Rpleas_acq	CS_B	VKKV	YDDY	GWWG	MQQM	BZZB	JXXJ	treu	retten	fair	spielen	ehrlich	schön	tot	rächen	faul	strafen	eitel	schlecht	47pct	acq_USunple_CSunple1_noRW	acq23456_noRW	3	36	0	0	300	300	730	46	0	1	1	blank2r.bmp	0	1	+	0	1	blank2r.bmp	252	1	GWWG	306	3	faul	559	0	0	0	0	0	0	0	0	0	0	0	0	0	0	0	0	0	0	0	0	0	0	0	0	0	0	0	0	0	0	0	0	0	0	0	0	0	0	0
071619	10:10:55	10:18:56	480545	5.0.10.0	5_exp_noRW	52	Rpleas_acq	CS_B	VKKV	YDDY	GWWG	MQQM	BZZB	JXXJ	treu	retten	fair	spielen	ehrlich	schön	tot	rächen	faul	strafen	eitel	schlecht	47pct	acq_USpleas_CSunple1_noRW	acq23456_noRW	3	37	0	0	300	300	564	46	0	0	1	blank2r.bmp	0	1	+	0	1	blank2r.bmp	252	1	GWWG	306	1	treu	559	1	FEHLER	1159	0	0	0	0	0	0	0	0	0	0	0	0	0	0	0	0	0	0	0	0	0	0	0	0	0	0	0	0	0	0	0	0	0	0	0	0
071619	10:10:55	10:18:57	482118	5.0.10.0	5_exp_noRW	52	Rpleas_acq	CS_B	VKKV	YDDY	GWWG	MQQM	BZZB	JXXJ	treu	retten	fair	spielen	ehrlich	schön	tot	rächen	faul	strafen	eitel	schlecht	53pct	acq_USunple_CSpleas1_noRW	acq23456_noRW	3	38	0	0	300	300	606	46	0	1	1	blank2r.bmp	0	1	+	0	1	blank2r.bmp	252	1	VKKV	306	1	tot	559	0	0	0	0	0	0	0	0	0	0	0	0	0	0	0	0	0	0	0	0	0	0	0	0	0	0	0	0	0	0	0	0	0	0	0	0	0	0	0
071619	10:10:55	10:18:59	483784	5.0.10.0	5_exp_noRW	52	Rpleas_acq	CS_B	VKKV	YDDY	GWWG	MQQM	BZZB	JXXJ	treu	retten	fair	spielen	ehrlich	schön	tot	rächen	faul	strafen	eitel	schlecht	53pct	acq_USpleas_CSunple2_noRW	acq23456_noRW	3	39	0	0	300	300	493	50	0	1	1	blank2r.bmp	0	1	+	0	1	blank2r.bmp	252	1	MQQM	306	1	spielen	559	0	0	0	0	0	0	0	0	0	0	0	0	0	0	0	0	0	0	0	0	0	0	0	0	0	0	0	0	0	0	0	0	0	0	0	0	0	0	0
071619	10:10:55	10:19:01	485410	5.0.10.0	5_exp_noRW	52	Rpleas_acq	CS_B	VKKV	YDDY	GWWG	MQQM	BZZB	JXXJ	treu	retten	fair	spielen	ehrlich	schön	tot	rächen	faul	strafen	eitel	schlecht	53pct	acq_USpleas_CSpleas2_noRW	acq23456_noRW	3	40	0	0	300	300	457	50	0	1	1	blank2r.bmp	0	1	+	0	1	blank2r.bmp	252	1	YDDY	306	3	schön	559	0	0	0	0	0	0	0	0	0	0	0	0	0	0	0	0	0	0	0	0	0	0	0	0	0	0	0	0	0	0	0	0	0	0	0	0	0	0	0
071619	10:10:55	10:19:02	487129	5.0.10.0	5_exp_noRW	52	Rpleas_acq	CS_B	VKKV	YDDY	GWWG	MQQM	BZZB	JXXJ	treu	retten	fair	spielen	ehrlich	schön	tot	rächen	faul	strafen	eitel	schlecht	47pct	acq_USpleas_CSpleas1_noRW	acq23456_noRW	3	41	0	0	300	300	549	50	0	1	1	blank2r.bmp	0	1	+	0	1	blank2r.bmp	252	1	VKKV	306	3	fair	559	0	0	0	0	0	0	0	0	0	0	0	0	0	0	0	0	0	0	0	0	0	0	0	0	0	0	0	0	0	0	0	0	0	0	0	0	0	0	0
071619	10:10:55	10:19:04	488835	5.0.10.0	5_exp_noRW	52	Rpleas_acq	CS_B	VKKV	YDDY	GWWG	MQQM	BZZB	JXXJ	treu	retten	fair	spielen	ehrlich	schön	tot	rächen	faul	strafen	eitel	schlecht	47pct	acq_USpleas_CSpleas1_noRW	acq23456_noRW	3	42	0	0	300	300	539	50	0	1	1	blank2r.bmp	0	1	+	0	1	blank2r.bmp	252	1	VKKV	306	1	treu	559	0	0	0	0	0	0	0	0	0	0	0	0	0	0	0	0	0	0	0	0	0	0	0	0	0	0	0	0	0	0	0	0	0	0	0	0	0	0	0
071619	10:10:55	10:19:06	490567	5.0.10.0	5_exp_noRW	52	Rpleas_acq	CS_B	VKKV	YDDY	GWWG	MQQM	BZZB	JXXJ	treu	retten	fair	spielen	ehrlich	schön	tot	rächen	faul	strafen	eitel	schlecht	47pct	acq_USunple_CSunple1_noRW	acq23456_noRW	3	43	0	0	300	300	550	46	0	1	1	blank2r.bmp	0	1	+	0	1	blank2r.bmp	252	1	GWWG	306	2	rächen	559	0	0	0	0	0	0	0	0	0	0	0	0	0	0	0	0	0	0	0	0	0	0	0	0	0	0	0	0	0	0	0	0	0	0	0	0	0	0	0
071619	10:10:55	10:19:08	492287	5.0.10.0	5_exp_noRW	52	Rpleas_acq	CS_B	VKKV	YDDY	GWWG	MQQM	BZZB	JXXJ	treu	retten	fair	spielen	ehrlich	schön	tot	rächen	faul	strafen	eitel	schlecht	53pct	acq_USpleas_CSpleas2_noRW	acq23456_noRW	3	44	0	0	300	300	541	50	0	1	1	blank2r.bmp	0	1	+	0	1	blank2r.bmp	252	1	YDDY	306	1	spielen	559	0	0	0	0	0	0	0	0	0	0	0	0	0	0	0	0	0	0	0	0	0	0	0	0	0	0	0	0	0	0	0	0	0	0	0	0	0	0	0
071619	10:10:55	10:19:09	494193	5.0.10.0	5_exp_noRW	52	Rpleas_acq	CS_B	VKKV	YDDY	GWWG	MQQM	BZZB	JXXJ	treu	retten	fair	spielen	ehrlich	schön	tot	rächen	faul	strafen	eitel	schlecht	53pct	acq_USunple_CSunple1_noRW	acq23456_noRW	3	45	0	0	300	300	740	46	0	1	1	blank2r.bmp	0	1	+	0	1	blank2r.bmp	252	1	GWWG	306	1	tot	559	0	0	0	0	0	0	0	0	0	0	0	0	0	0	0	0	0	0	0	0	0	0	0	0	0	0	0	0	0	0	0	0	0	0	0	0	0	0	0
071619	10:10:55	10:19:11	495978	5.0.10.0	5_exp_noRW	52	Rpleas_acq	CS_B	VKKV	YDDY	GWWG	MQQM	BZZB	JXXJ	treu	retten	fair	spielen	ehrlich	schön	tot	rächen	faul	strafen	eitel	schlecht	53pct	acq_USpleas_CSunple2_noRW	acq23456_noRW	3	46	0	0	300	300	601	50	0	1	1	blank2r.bmp	0	1	+	0	1	blank2r.bmp	252	1	MQQM	306	2	ehrlich	559	0	0	0	0	0	0	0	0	0	0	0	0	0	0	0	0	0	0	0	0	0	0	0	0	0	0	0	0	0	0	0	0	0	0	0	0	0	0	0
071619	10:10:55	10:19:13	497724	5.0.10.0	5_exp_noRW	52	Rpleas_acq	CS_B	VKKV	YDDY	GWWG	MQQM	BZZB	JXXJ	treu	retten	fair	spielen	ehrlich	schön	tot	rächen	faul	strafen	eitel	schlecht	53pct	acq_USpleas_CSpleas2_noRW	acq23456_noRW	3	47	0	0	300	300	565	50	0	1	1	blank2r.bmp	0	1	+	0	1	blank2r.bmp	252	1	YDDY	306	2	ehrlich	559	0	0	0	0	0	0	0	0	0	0	0	0	0	0	0	0	0	0	0	0	0	0	0	0	0	0	0	0	0	0	0	0	0	0	0	0	0	0	0
071619	10:10:55	10:19:15	499617	5.0.10.0	5_exp_noRW	52	Rpleas_acq	CS_B	VKKV	YDDY	GWWG	MQQM	BZZB	JXXJ	treu	retten	fair	spielen	ehrlich	schön	tot	rächen	faul	strafen	eitel	schlecht	47pct	acq_USunple_CSpleas2_noRW	acq23456_noRW	3	48	0	0	300	300	718	46	0	1	1	blank2r.bmp	0	1	+	0	1	blank2r.bmp	252	1	YDDY	306	3	schlecht	559	0	0	0	0	0	0	0	0	0	0	0	0	0	0	0	0	0	0	0	0	0	0	0	0	0	0	0	0	0	0	0	0	0	0	0	0	0	0	0
071619	10:10:55	10:19:17	501776	5.0.10.0	5_exp_noRW	52	Rpleas_acq	CS_B	VKKV	YDDY	GWWG	MQQM	BZZB	JXXJ	treu	retten	fair	spielen	ehrlich	schön	tot	rächen	faul	strafen	eitel	schlecht	47pct	acq_USpleas_CSpleas1_noRW	acq23456_noRW	3	49	0	0	300	300	960	50	0	1	1	blank2r.bmp	0	1	+	0	1	blank2r.bmp	252	1	VKKV	306	2	retten	559	0	0	0	0	0	0	0	0	0	0	0	0	0	0	0	0	0	0	0	0	0	0	0	0	0	0	0	0	0	0	0	0	0	0	0	0	0	0	0
071619	10:10:55	10:19:19	503509	5.0.10.0	5_exp_noRW	52	Rpleas_acq	CS_B	VKKV	YDDY	GWWG	MQQM	BZZB	JXXJ	treu	retten	fair	spielen	ehrlich	schön	tot	rächen	faul	strafen	eitel	schlecht	47pct	acq_USunple_CSunple1_noRW	acq23456_noRW	3	50	0	0	300	300	563	46	0	1	1	blank2r.bmp	0	1	+	0	1	blank2r.bmp	252	1	GWWG	306	1	tot	559	0	0	0	0	0	0	0	0	0	0	0	0	0	0	0	0	0	0	0	0	0	0	0	0	0	0	0	0	0	0	0	0	0	0	0	0	0	0	0
071619	10:10:55	10:19:21	505641	5.0.10.0	5_exp_noRW	52	Rpleas_acq	CS_B	VKKV	YDDY	GWWG	MQQM	BZZB	JXXJ	treu	retten	fair	spielen	ehrlich	schön	tot	rächen	faul	strafen	eitel	schlecht	53pct	acq_USunple_CSunple2_noRW	acq23456_noRW	3	51	0	0	300	300	746	50	0	0	1	blank2r.bmp	0	1	+	0	1	blank2r.bmp	252	1	MQQM	306	3	schlecht	559	1	FEHLER	1346	0	0	0	0	0	0	0	0	0	0	0	0	0	0	0	0	0	0	0	0	0	0	0	0	0	0	0	0	0	0	0	0	0	0	0	0
071619	10:10:55	10:19:22	507067	5.0.10.0	5_exp_noRW	52	Rpleas_acq	CS_B	VKKV	YDDY	GWWG	MQQM	BZZB	JXXJ	treu	retten	fair	spielen	ehrlich	schön	tot	rächen	faul	strafen	eitel	schlecht	47pct	acq_USpleas_CSpleas1_noRW	acq23456_noRW	3	52	0	0	300	300	467	50	0	1	1	blank2r.bmp	0	1	+	0	1	blank2r.bmp	252	1	VKKV	306	3	fair	559	0	0	0	0	0	0	0	0	0	0	0	0	0	0	0	0	0	0	0	0	0	0	0	0	0	0	0	0	0	0	0	0	0	0	0	0	0	0	0
071619	10:10:55	10:19:25	509333	5.0.10.0	5_exp_noRW	52	Rpleas_acq	CS_B	VKKV	YDDY	GWWG	MQQM	BZZB	JXXJ	treu	retten	fair	spielen	ehrlich	schön	tot	rächen	faul	strafen	eitel	schlecht	47pct	acq_USpleas_CSpleas2_noRW	acq23456_noRW	3	53	0	0	300	300	882	46	0	0	1	blank2r.bmp	0	1	+	0	1	blank2r.bmp	252	1	YDDY	306	2	ehrlich	559	1	FEHLER	1479	0	0	0	0	0	0	0	0	0	0	0	0	0	0	0	0	0	0	0	0	0	0	0	0	0	0	0	0	0	0	0	0	0	0	0	0
071619	10:10:55	10:19:26	510906	5.0.10.0	5_exp_noRW	52	Rpleas_acq	CS_B	VKKV	YDDY	GWWG	MQQM	BZZB	JXXJ	treu	retten	fair	spielen	ehrlich	schön	tot	rächen	faul	strafen	eitel	schlecht	47pct	acq_USunple_CSpleas1_noRW	acq23456_noRW	3	54	0	0	300	300	615	46	0	1	1	blank2r.bmp	0	1	+	0	1	blank2r.bmp	252	1	VKKV	306	2	rächen	559	0	0	0	0	0	0	0	0	0	0	0	0	0	0	0	0	0	0	0	0	0	0	0	0	0	0	0	0	0	0	0	0	0	0	0	0	0	0	0
071619	10:10:55	10:19:28	512638	5.0.10.0	5_exp_noRW	52	Rpleas_acq	CS_B	VKKV	YDDY	GWWG	MQQM	BZZB	JXXJ	treu	retten	fair	spielen	ehrlich	schön	tot	rächen	faul	strafen	eitel	schlecht	47pct	acq_USpleas_CSpleas2_noRW	acq23456_noRW	3	55	0	0	300	300	553	50	0	1	1	blank2r.bmp	0	1	+	0	1	blank2r.bmp	252	1	YDDY	306	1	spielen	559	0	0	0	0	0	0	0	0	0	0	0	0	0	0	0	0	0	0	0	0	0	0	0	0	0	0	0	0	0	0	0	0	0	0	0	0	0	0	0
071619	10:10:55	10:19:30	514424	5.0.10.0	5_exp_noRW	52	Rpleas_acq	CS_B	VKKV	YDDY	GWWG	MQQM	BZZB	JXXJ	treu	retten	fair	spielen	ehrlich	schön	tot	rächen	faul	strafen	eitel	schlecht	53pct	acq_USpleas_CSunple1_noRW	acq23456_noRW	3	56	0	0	300	300	610	50	0	1	1	blank2r.bmp	0	1	+	0	1	blank2r.bmp	252	1	GWWG	306	2	retten	559	0	0	0	0	0	0	0	0	0	0	0	0	0	0	0	0	0	0	0	0	0	0	0	0	0	0	0	0	0	0	0	0	0	0	0	0	0	0	0
071619	10:10:55	10:19:31	516170	5.0.10.0	5_exp_noRW	52	Rpleas_acq	CS_B	VKKV	YDDY	GWWG	MQQM	BZZB	JXXJ	treu	retten	fair	spielen	ehrlich	schön	tot	rächen	faul	strafen	eitel	schlecht	53pct	acq_USunple_CSunple2_noRW	acq23456_noRW	3	57	0	0	300	300	560	46	0	1	1	blank2r.bmp	0	1	+	0	1	blank2r.bmp	252	1	MQQM	306	2	eitel	559	0	0	0	0	0	0	0	0	0	0	0	0	0	0	0	0	0	0	0	0	0	0	0	0	0	0	0	0	0	0	0	0	0	0	0	0	0	0	0
071619	10:10:55	10:19:33	518049	5.0.10.0	5_exp_noRW	52	Rpleas_acq	CS_B	VKKV	YDDY	GWWG	MQQM	BZZB	JXXJ	treu	retten	fair	spielen	ehrlich	schön	tot	rächen	faul	strafen	eitel	schlecht	47pct	acq_USunple_CSunple1_noRW	acq23456_noRW	3	58	0	0	300	300	715	46	0	1	1	blank2r.bmp	0	1	+	0	1	blank2r.bmp	252	1	GWWG	306	3	faul	559	0	0	0	0	0	0	0	0	0	0	0	0	0	0	0	0	0	0	0	0	0	0	0	0	0	0	0	0	0	0	0	0	0	0	0	0	0	0	0
071619	10:10:55	10:19:35	519902	5.0.10.0	5_exp_noRW	52	Rpleas_acq	CS_B	VKKV	YDDY	GWWG	MQQM	BZZB	JXXJ	treu	retten	fair	spielen	ehrlich	schön	tot	rächen	faul	strafen	eitel	schlecht	53pct	acq_USunple_CSunple2_noRW	acq23456_noRW	3	59	0	0	300	300	668	46	0	1	1	blank2r.bmp	0	1	+	0	1	blank2r.bmp	252	1	MQQM	306	1	strafen	559	0	0	0	0	0	0	0	0	0	0	0	0	0	0	0	0	0	0	0	0	0	0	0	0	0	0	0	0	0	0	0	0	0	0	0	0	0	0	0
071619	10:10:55	10:19:37	521701	5.0.10.0	5_exp_noRW	52	Rpleas_acq	CS_B	VKKV	YDDY	GWWG	MQQM	BZZB	JXXJ	treu	retten	fair	spielen	ehrlich	schön	tot	rächen	faul	strafen	eitel	schlecht	53pct	acq_USunple_CSunple2_noRW	acq23456_noRW	3	60	0	0	300	300	628	46	0	1	1	blank2r.bmp	0	1	+	0	1	blank2r.bmp	252	1	MQQM	306	2	eitel	559	0	0	0	0	0	0	0	0	0	0	0	0	0	0	0	0	0	0	0	0	0	0	0	0	0	0	0	0	0	0	0	0	0	0	0	0	0	0	0
071619	10:10:55	10:19:39	523340	5.0.10.0	5_exp_noRW	52	Rpleas_acq	CS_B	VKKV	YDDY	GWWG	MQQM	BZZB	JXXJ	treu	retten	fair	spielen	ehrlich	schön	tot	rächen	faul	strafen	eitel	schlecht	53pct	acq_USunple_CSpleas1_noRW	acq23456_noRW	3	61	0	0	300	300	460	46	0	1	1	blank2r.bmp	0	1	+	0	1	blank2r.bmp	252	1	VKKV	306	3	faul	559	0	0	0	0	0	0	0	0	0	0	0	0	0	0	0	0	0	0	0	0	0	0	0	0	0	0	0	0	0	0	0	0	0	0	0	0	0	0	0
071619	10:10:55	10:19:40	525100	5.0.10.0	5_exp_noRW	52	Rpleas_acq	CS_B	VKKV	YDDY	GWWG	MQQM	BZZB	JXXJ	treu	retten	fair	spielen	ehrlich	schön	tot	rächen	faul	strafen	eitel	schlecht	47pct	acq_USunple_CSunple2_noRW	acq23456_noRW	3	62	0	0	300	300	579	46	0	1	1	blank2r.bmp	0	1	+	0	1	blank2r.bmp	252	1	MQQM	306	3	schlecht	559	0	0	0	0	0	0	0	0	0	0	0	0	0	0	0	0	0	0	0	0	0	0	0	0	0	0	0	0	0	0	0	0	0	0	0	0	0	0	0
071619	10:10:55	10:19:42	526779	5.0.10.0	5_exp_noRW	52	Rpleas_acq	CS_B	VKKV	YDDY	GWWG	MQQM	BZZB	JXXJ	treu	retten	fair	spielen	ehrlich	schön	tot	rächen	faul	strafen	eitel	schlecht	47pct	acq_USpleas_CSpleas2_noRW	acq23456_noRW	3	63	0	0	300	300	496	50	0	1	1	blank2r.bmp	0	1	+	0	1	blank2r.bmp	252	1	YDDY	306	3	schön	559	0	0	0	0	0	0	0	0	0	0	0	0	0	0	0	0	0	0	0	0	0	0	0	0	0	0	0	0	0	0	0	0	0	0	0	0	0	0	0
071619	10:10:55	10:19:44	528405	5.0.10.0	5_exp_noRW	52	Rpleas_acq	CS_B	VKKV	YDDY	GWWG	MQQM	BZZB	JXXJ	treu	retten	fair	spielen	ehrlich	schön	tot	rächen	faul	strafen	eitel	schlecht	53pct	acq_USpleas_CSpleas2_noRW	acq23456_noRW	3	64	0	0	300	300	461	50	0	1	1	blank2r.bmp	0	1	+	0	1	blank2r.bmp	252	1	YDDY	306	3	schön	559	0	0	0	0	0	0	0	0	0	0	0	0	0	0	0	0	0	0	0	0	0	0	0	0	0	0	0	0	0	0	0	0	0	0	0	0	0	0	0
071619	10:10:55	10:19:46	530337	5.0.10.0	5_exp_noRW	52	Rpleas_acq	CS_B	VKKV	YDDY	GWWG	MQQM	BZZB	JXXJ	treu	retten	fair	spielen	ehrlich	schön	tot	rächen	faul	strafen	eitel	schlecht	47pct	acq_USunple_CSpleas2_noRW	acq23456_noRW	3	65	0	0	300	300	556	50	0	0	1	blank2r.bmp	0	1	+	0	1	blank2r.bmp	252	1	YDDY	306	2	eitel	559	1	FEHLER	1146	0	0	0	0	0	0	0	0	0	0	0	0	0	0	0	0	0	0	0	0	0	0	0	0	0	0	0	0	0	0	0	0	0	0	0	0
071619	10:10:55	10:19:47	531910	5.0.10.0	5_exp_noRW	52	Rpleas_acq	CS_B	VKKV	YDDY	GWWG	MQQM	BZZB	JXXJ	treu	retten	fair	spielen	ehrlich	schön	tot	rächen	faul	strafen	eitel	schlecht	53pct	acq_USunple_CSunple1_noRW	acq23456_noRW	3	66	0	0	300	300	588	46	0	1	1	blank2r.bmp	0	1	+	0	1	blank2r.bmp	252	1	GWWG	306	2	rächen	559	0	0	0	0	0	0	0	0	0	0	0	0	0	0	0	0	0	0	0	0	0	0	0	0	0	0	0	0	0	0	0	0	0	0	0	0	0	0	0
071619	10:10:55	10:19:49	533589	5.0.10.0	5_exp_noRW	52	Rpleas_acq	CS_B	VKKV	YDDY	GWWG	MQQM	BZZB	JXXJ	treu	retten	fair	spielen	ehrlich	schön	tot	rächen	faul	strafen	eitel	schlecht	53pct	acq_USunple_CSunple2_noRW	acq23456_noRW	3	67	0	0	300	300	505	46	0	1	1	blank2r.bmp	0	1	+	0	1	blank2r.bmp	252	1	MQQM	306	2	eitel	559	0	0	0	0	0	0	0	0	0	0	0	0	0	0	0	0	0	0	0	0	0	0	0	0	0	0	0	0	0	0	0	0	0	0	0	0	0	0	0
071619	10:10:55	10:19:51	535375	5.0.10.0	5_exp_noRW	52	Rpleas_acq	CS_B	VKKV	YDDY	GWWG	MQQM	BZZB	JXXJ	treu	retten	fair	spielen	ehrlich	schön	tot	rächen	faul	strafen	eitel	schlecht	47pct	acq_USunple_CSunple2_noRW	acq23456_noRW	3	68	0	0	300	300	618	46	0	1	1	blank2r.bmp	0	1	+	0	1	blank2r.bmp	252	1	MQQM	306	1	strafen	559	0	0	0	0	0	0	0	0	0	0	0	0	0	0	0	0	0	0	0	0	0	0	0	0	0	0	0	0	0	0	0	0	0	0	0	0	0	0	0
071619	10:10:55	10:19:53	537228	5.0.10.0	5_exp_noRW	52	Rpleas_acq	CS_B	VKKV	YDDY	GWWG	MQQM	BZZB	JXXJ	treu	retten	fair	spielen	ehrlich	schön	tot	rächen	faul	strafen	eitel	schlecht	47pct	acq_USunple_CSunple1_noRW	acq23456_noRW	3	69	0	0	300	300	680	46	0	1	1	blank2r.bmp	0	1	+	0	1	blank2r.bmp	252	1	GWWG	306	3	faul	559	0	0	0	0	0	0	0	0	0	0	0	0	0	0	0	0	0	0	0	0	0	0	0	0	0	0	0	0	0	0	0	0	0	0	0	0	0	0	0
071619	10:10:55	10:19:56	540920	5.0.10.0	5_exp_noRW	52	Rpleas_acq	CS_B	VKKV	YDDY	GWWG	MQQM	BZZB	JXXJ	treu	retten	fair	spielen	ehrlich	schön	tot	rächen	faul	strafen	eitel	schlecht	53pct	acq_USpleas_CSpleas1_noRW	acq23456_noRW	3	70	0	0	300	300	2000	0	0	0	1	blank2r.bmp	0	1	+	0	1	blank2r.bmp	252	1	VKKV	306	1	treu	559	1	FEHLER	2598	1	Schneller!	2598	0	0	0	0	0	0	0	0	0	0	0	0	0	0	0	0	0	0	0	0	0	0	0	0	0	0	0	0	0	0	0	0	0
071619	10:10:55	10:19:58	542359	5.0.10.0	5_exp_noRW	52	Rpleas_acq	CS_B	VKKV	YDDY	GWWG	MQQM	BZZB	JXXJ	treu	retten	fair	spielen	ehrlich	schön	tot	rächen	faul	strafen	eitel	schlecht	53pct	acq_USunple_CSunple1_noRW	acq23456_noRW	3	71	0	0	300	300	539	46	0	1	1	blank2r.bmp	0	1	+	0	1	blank2r.bmp	252	1	GWWG	306	1	tot	559	0	0	0	0	0	0	0	0	0	0	0	0	0	0	0	0	0	0	0	0	0	0	0	0	0	0	0	0	0	0	0	0	0	0	0	0	0	0	0
071619	10:10:55	10:20:00	544425	5.0.10.0	5_exp_noRW	52	Rpleas_acq	CS_B	VKKV	YDDY	GWWG	MQQM	BZZB	JXXJ	treu	retten	fair	spielen	ehrlich	schön	tot	rächen	faul	strafen	eitel	schlecht	53pct	acq_USunple_CSunple2_noRW	acq23456_noRW	3	72	0	0	300	300	888	46	0	1	1	blank2r.bmp	0	1	+	0	1	blank2r.bmp	252	1	MQQM	306	3	schlecht	559	0	0	0	0	0	0	0	0	0	0	0	0	0	0	0	0	0	0	0	0	0	0	0	0	0	0	0	0	0	0	0	0	0	0	0	0	0	0	0
071619	10:10:55	10:20:02	546304	5.0.10.0	5_exp_noRW	52	Rpleas_acq	CS_B	VKKV	YDDY	GWWG	MQQM	BZZB	JXXJ	treu	retten	fair	spielen	ehrlich	schön	tot	rächen	faul	strafen	eitel	schlecht	53pct	acq_USpleas_CSpleas1_noRW	acq23456_noRW	3	73	0	0	300	300	695	50	0	1	1	blank2r.bmp	0	1	+	0	1	blank2r.bmp	252	1	VKKV	306	2	retten	559	0	0	0	0	0	0	0	0	0	0	0	0	0	0	0	0	0	0	0	0	0	0	0	0	0	0	0	0	0	0	0	0	0	0	0	0	0	0	0
071619	10:10:55	10:20:04	548370	5.0.10.0	5_exp_noRW	52	Rpleas_acq	CS_B	VKKV	YDDY	GWWG	MQQM	BZZB	JXXJ	treu	retten	fair	spielen	ehrlich	schön	tot	rächen	faul	strafen	eitel	schlecht	53pct	acq_USpleas_CSunple2_noRW	acq23456_noRW	3	74	0	0	300	300	890	50	0	1	1	blank2r.bmp	0	1	+	0	1	blank2r.bmp	252	1	MQQM	306	3	schön	559	0	0	0	0	0	0	0	0	0	0	0	0	0	0	0	0	0	0	0	0	0	0	0	0	0	0	0	0	0	0	0	0	0	0	0	0	0	0	0
071619	10:10:55	10:20:05	550143	5.0.10.0	5_exp_noRW	52	Rpleas_acq	CS_B	VKKV	YDDY	GWWG	MQQM	BZZB	JXXJ	treu	retten	fair	spielen	ehrlich	schön	tot	rächen	faul	strafen	eitel	schlecht	47pct	acq_USpleas_CSpleas1_noRW	acq23456_noRW	3	75	0	0	300	300	586	50	0	1	1	blank2r.bmp	0	1	+	0	1	blank2r.bmp	252	1	VKKV	306	1	treu	559	0	0	0	0	0	0	0	0	0	0	0	0	0	0	0	0	0	0	0	0	0	0	0	0	0	0	0	0	0	0	0	0	0	0	0	0	0	0	0
071619	10:10:55	10:20:07	551755	5.0.10.0	5_exp_noRW	52	Rpleas_acq	CS_B	VKKV	YDDY	GWWG	MQQM	BZZB	JXXJ	treu	retten	fair	spielen	ehrlich	schön	tot	rächen	faul	strafen	eitel	schlecht	53pct	acq_USpleas_CSunple1_noRW	acq23456_noRW	3	76	0	0	300	300	432	50	0	1	1	blank2r.bmp	0	1	+	0	1	blank2r.bmp	252	1	GWWG	306	3	fair	559	0	0	0	0	0	0	0	0	0	0	0	0	0	0	0	0	0	0	0	0	0	0	0	0	0	0	0	0	0	0	0	0	0	0	0	0	0	0	0
071619	10:10:55	10:20:09	553341	5.0.10.0	5_exp_noRW	52	Rpleas_acq	CS_B	VKKV	YDDY	GWWG	MQQM	BZZB	JXXJ	treu	retten	fair	spielen	ehrlich	schön	tot	rächen	faul	strafen	eitel	schlecht	47pct	acq_USpleas_CSpleas1_noRW	acq23456_noRW	3	77	0	0	300	300	424	50	0	1	1	blank2r.bmp	0	1	+	0	1	blank2r.bmp	252	1	VKKV	306	3	fair	559	0	0	0	0	0	0	0	0	0	0	0	0	0	0	0	0	0	0	0	0	0	0	0	0	0	0	0	0	0	0	0	0	0	0	0	0	0	0	0
071619	10:10:55	10:20:10	555154	5.0.10.0	5_exp_noRW	52	Rpleas_acq	CS_B	VKKV	YDDY	GWWG	MQQM	BZZB	JXXJ	treu	retten	fair	spielen	ehrlich	schön	tot	rächen	faul	strafen	eitel	schlecht	53pct	acq_USpleas_CSpleas2_noRW	acq23456_noRW	3	78	0	0	300	300	634	50	0	1	1	blank2r.bmp	0	1	+	0	1	blank2r.bmp	252	1	YDDY	306	2	ehrlich	559	0	0	0	0	0	0	0	0	0	0	0	0	0	0	0	0	0	0	0	0	0	0	0	0	0	0	0	0	0	0	0	0	0	0	0	0	0	0	0
071619	10:10:55	10:20:13	557393	5.0.10.0	5_exp_noRW	52	Rpleas_acq	CS_B	VKKV	YDDY	GWWG	MQQM	BZZB	JXXJ	treu	retten	fair	spielen	ehrlich	schön	tot	rächen	faul	strafen	eitel	schlecht	53pct	acq_USpleas_CSpleas2_noRW	acq23456_noRW	3	79	0	0	300	300	1069	50	0	1	1	blank2r.bmp	0	1	+	0	1	blank2r.bmp	252	1	YDDY	306	1	spielen	559	0	0	0	0	0	0	0	0	0	0	0	0	0	0	0	0	0	0	0	0	0	0	0	0	0	0	0	0	0	0	0	0	0	0	0	0	0	0	0
071619	10:10:55	10:20:14	559179	5.0.10.0	5_exp_noRW	52	Rpleas_acq	CS_B	VKKV	YDDY	GWWG	MQQM	BZZB	JXXJ	treu	retten	fair	spielen	ehrlich	schön	tot	rächen	faul	strafen	eitel	schlecht	47pct	acq_USunple_CSunple1_noRW	acq23456_noRW	3	80	0	0	300	300	600	46	0	1	1	blank2r.bmp	0	1	+	0	1	blank2r.bmp	252	1	GWWG	306	2	rächen	559	0	0	0	0	0	0	0	0	0	0	0	0	0	0	0	0	0	0	0	0	0	0	0	0	0	0	0	0	0	0	0	0	0	0	0	0	0	0	0
071619	10:10:55	10:20:20	565163	5.0.10.0	5_exp_noRW	52	Rpleas_acq	CS_B	VKKV	YDDY	GWWG	MQQM	BZZB	JXXJ	treu	retten	fair	spielen	ehrlich	schön	tot	rächen	faul	strafen	eitel	schlecht	47pct	acq_USunple_CSpleas2_noRW	acq23456_noRW	4	1	0	0	300	300	577	46	0	1	1	blank2r.bmp	0	1	+	0	1	blank2r.bmp	252	1	YDDY	306	1	strafen	559	0	0	0	0	0	0	0	0	0	0	0	0	0	0	0	0	0	0	0	0	0	0	0	0	0	0	0	0	0	0	0	0	0	0	0	0	0	0	0
071619	10:10:55	10:20:23	567868	5.0.10.0	5_exp_noRW	52	Rpleas_acq	CS_B	VKKV	YDDY	GWWG	MQQM	BZZB	JXXJ	treu	retten	fair	spielen	ehrlich	schön	tot	rächen	faul	strafen	eitel	schlecht	47pct	acq_USpleas_CSpleas2_noRW	acq23456_noRW	4	2	0	0	300	300	1530	50	0	1	1	blank2r.bmp	0	1	+	0	1	blank2r.bmp	252	1	YDDY	306	2	ehrlich	559	0	0	0	0	0	0	0	0	0	0	0	0	0	0	0	0	0	0	0	0	0	0	0	0	0	0	0	0	0	0	0	0	0	0	0	0	0	0	0
071619	10:10:55	10:20:25	569614	5.0.10.0	5_exp_noRW	52	Rpleas_acq	CS_B	VKKV	YDDY	GWWG	MQQM	BZZB	JXXJ	treu	retten	fair	spielen	ehrlich	schön	tot	rächen	faul	strafen	eitel	schlecht	47pct	acq_USunple_CSunple1_noRW	acq23456_noRW	4	3	0	0	300	300	559	46	0	1	1	blank2r.bmp	0	1	+	0	1	blank2r.bmp	252	1	GWWG	306	1	tot	559	0	0	0	0	0	0	0	0	0	0	0	0	0	0	0	0	0	0	0	0	0	0	0	0	0	0	0	0	0	0	0	0	0	0	0	0	0	0	0
071619	10:10:55	10:20:27	571400	5.0.10.0	5_exp_noRW	52	Rpleas_acq	CS_B	VKKV	YDDY	GWWG	MQQM	BZZB	JXXJ	treu	retten	fair	spielen	ehrlich	schön	tot	rächen	faul	strafen	eitel	schlecht	47pct	acq_USunple_CSpleas1_noRW	acq23456_noRW	4	4	0	0	300	300	620	46	0	1	1	blank2r.bmp	0	1	+	0	1	blank2r.bmp	252	1	VKKV	306	2	rächen	559	0	0	0	0	0	0	0	0	0	0	0	0	0	0	0	0	0	0	0	0	0	0	0	0	0	0	0	0	0	0	0	0	0	0	0	0	0	0	0
071619	10:10:55	10:20:28	573040	5.0.10.0	5_exp_noRW	52	Rpleas_acq	CS_B	VKKV	YDDY	GWWG	MQQM	BZZB	JXXJ	treu	retten	fair	spielen	ehrlich	schön	tot	rächen	faul	strafen	eitel	schlecht	53pct	acq_USunple_CSunple1_noRW	acq23456_noRW	4	5	0	0	300	300	456	46	0	1	1	blank2r.bmp	0	1	+	0	1	blank2r.bmp	252	1	GWWG	306	2	rächen	559	0	0	0	0	0	0	0	0	0	0	0	0	0	0	0	0	0	0	0	0	0	0	0	0	0	0	0	0	0	0	0	0	0	0	0	0	0	0	0
071619	10:10:55	10:20:30	574839	5.0.10.0	5_exp_noRW	52	Rpleas_acq	CS_B	VKKV	YDDY	GWWG	MQQM	BZZB	JXXJ	treu	retten	fair	spielen	ehrlich	schön	tot	rächen	faul	strafen	eitel	schlecht	53pct	acq_USunple_CSunple1_noRW	acq23456_noRW	4	6	0	0	300	300	616	46	0	1	1	blank2r.bmp	0	1	+	0	1	blank2r.bmp	252	1	GWWG	306	3	faul	559	0	0	0	0	0	0	0	0	0	0	0	0	0	0	0	0	0	0	0	0	0	0	0	0	0	0	0	0	0	0	0	0	0	0	0	0	0	0	0
071619	10:10:55	10:20:32	576571	5.0.10.0	5_exp_noRW	52	Rpleas_acq	CS_B	VKKV	YDDY	GWWG	MQQM	BZZB	JXXJ	treu	retten	fair	spielen	ehrlich	schön	tot	rächen	faul	strafen	eitel	schlecht	53pct	acq_USpleas_CSpleas1_noRW	acq23456_noRW	4	7	0	0	300	300	562	50	0	1	1	blank2r.bmp	0	1	+	0	1	blank2r.bmp	252	1	VKKV	306	3	fair	559	0	0	0	0	0	0	0	0	0	0	0	0	0	0	0	0	0	0	0	0	0	0	0	0	0	0	0	0	0	0	0	0	0	0	0	0	0	0	0
071619	10:10:55	10:20:34	578731	5.0.10.0	5_exp_noRW	52	Rpleas_acq	CS_B	VKKV	YDDY	GWWG	MQQM	BZZB	JXXJ	treu	retten	fair	spielen	ehrlich	schön	tot	rächen	faul	strafen	eitel	schlecht	47pct	acq_USunple_CSunple2_noRW	acq23456_noRW	4	8	0	0	300	300	985	46	0	1	1	blank2r.bmp	0	1	+	0	1	blank2r.bmp	252	1	MQQM	306	2	eitel	559	0	0	0	0	0	0	0	0	0	0	0	0	0	0	0	0	0	0	0	0	0	0	0	0	0	0	0	0	0	0	0	0	0	0	0	0	0	0	0
071619	10:10:55	10:20:36	580450	5.0.10.0	5_exp_noRW	52	Rpleas_acq	CS_B	VKKV	YDDY	GWWG	MQQM	BZZB	JXXJ	treu	retten	fair	spielen	ehrlich	schön	tot	rächen	faul	strafen	eitel	schlecht	47pct	acq_USunple_CSunple1_noRW	acq23456_noRW	4	9	0	0	300	300	552	46	0	1	1	blank2r.bmp	0	1	+	0	1	blank2r.bmp	252	1	GWWG	306	1	tot	559	0	0	0	0	0	0	0	0	0	0	0	0	0	0	0	0	0	0	0	0	0	0	0	0	0	0	0	0	0	0	0	0	0	0	0	0	0	0	0
