date	time	script.currenttime	script.elapsedtime	build	script.currentexpt	subject	expressions.LRpleas_acq	expressions.conditionCS_A	expressions.CSpleas_1	expressions.CSpleas_2	expressions.CSunple_1	expressions.CSunple_2	expressions.distractor_1	expressions.distractor_2	expressions.US_pleas1	expressions.US_pleas2	expressions.US_pleas3	expressions.US_pleas4	expressions.US_pleas5	expressions.US_pleas6	expressions.US_unple1	expressions.US_unple2	expressions.US_unple3	expressions.US_unple4	expressions.US_unple5	expressions.US_unple6	counter.positions_noRW	trialcode	blockcode	blocknum	trialnum	windowcenter	inwindow	pretrialpause	posttrialpause	latency	response	expressions.correctedscore	correct	stimulusnumber1	stimulusitem1	stimulusonset1	stimulusnumber2	stimulusitem2	stimulusonset2	stimulusnumber3	stimulusitem3	stimulusonset3	stimulusnumber4	stimulusitem4	stimulusonset4	stimulusnumber5	stimulusitem5	stimulusonset5	stimulusnumber6	stimulusitem6	stimulusonset6	stimulusnumber7	stimulusitem7	stimulusonset7	stimulusnumber8	stimulusitem8	stimulusonset8	stimulusnumber9	stimulusitem9	stimulusonset9	stimulusnumber10	stimulusitem10	stimulusonset10	stimulusnumber11	stimulusitem11	stimulusonset11	stimulusnumber12	stimulusitem12	stimulusonset12	stimulusnumber13	stimulusitem13	stimulusonset13	stimulusnumber14	stimulusitem14	stimulusonset14	stimulusnumber15	stimulusitem15	stimulusonset15	stimulusnumber16	stimulusitem16	stimulusonset16	stimulusnumber17	stimulusitem17	stimulusonset17	stimulusnumber18	stimulusitem18	stimulusonset18
071619	16:50:34	16:53:12	156494	5.0.10.0	5_exp_RW	59	Rpleas_acq	CS_B	BZZB	JXXJ	YDDY	MQQM	GWWG	VKKV	fair	spielen	schön	treu	ehrlich	retten	faul	strafen	schlecht	tot	eitel	rächen	1	acq_USunple_CSunple1_RW	acq1_RW	1	1	0	0	300	300	5367	46	0	1	1	blank2r.bmp	0	1	+	0	1	blank2r.bmp	492	1	YDDY	492	1	blank2r.bmp	572	2	strafen	866	0	0	0	0	0	0	0	0	0	0	0	0	0	0	0	0	0	0	0	0	0	0	0	0	0	0	0	0	0	0	0	0	0	0	0	0
071619	16:50:34	16:53:14	159373	5.0.10.0	5_exp_RW	59	Rpleas_acq	CS_B	BZZB	JXXJ	YDDY	MQQM	GWWG	VKKV	fair	spielen	schön	treu	ehrlich	retten	faul	strafen	schlecht	tot	eitel	rächen	1	acq_USpleas_CSpleas2_RW	acq1_RW	1	2	0	0	300	300	1395	50	0	1	1	blank2r.bmp	0	1	+	0	1	blank2r.bmp	492	1	JXXJ	492	1	blank2r.bmp	572	3	retten	866	0	0	0	0	0	0	0	0	0	0	0	0	0	0	0	0	0	0	0	0	0	0	0	0	0	0	0	0	0	0	0	0	0	0	0	0
071619	16:50:34	16:53:17	161878	5.0.10.0	5_exp_RW	59	Rpleas_acq	CS_B	BZZB	JXXJ	YDDY	MQQM	GWWG	VKKV	fair	spielen	schön	treu	ehrlich	retten	faul	strafen	schlecht	tot	eitel	rächen	1	acq_USunple_CSunple2_RW	acq1_RW	1	3	0	0	300	300	1022	46	0	1	1	blank2r.bmp	0	1	+	0	1	blank2r.bmp	492	1	MQQM	492	1	blank2r.bmp	572	1	tot	866	0	0	0	0	0	0	0	0	0	0	0	0	0	0	0	0	0	0	0	0	0	0	0	0	0	0	0	0	0	0	0	0	0	0	0	0
071619	16:50:34	16:53:21	165850	5.0.10.0	5_exp_RW	59	Rpleas_acq	CS_B	BZZB	JXXJ	YDDY	MQQM	GWWG	VKKV	fair	spielen	schön	treu	ehrlich	retten	faul	strafen	schlecht	tot	eitel	rächen	1	acq_USunple_CSunple2_RW	acq1_RW	1	4	0	0	300	300	2494	46	0	1	1	blank2r.bmp	0	1	+	0	1	blank2r.bmp	492	1	MQQM	492	1	blank2r.bmp	572	2	eitel	866	0	0	0	0	0	0	0	0	0	0	0	0	0	0	0	0	0	0	0	0	0	0	0	0	0	0	0	0	0	0	0	0	0	0	0	0
071619	16:50:34	16:53:23	168076	5.0.10.0	5_exp_RW	59	Rpleas_acq	CS_B	BZZB	JXXJ	YDDY	MQQM	GWWG	VKKV	fair	spielen	schön	treu	ehrlich	retten	faul	strafen	schlecht	tot	eitel	rächen	1	acq_USpleas_CSpleas1_RW	acq1_RW	1	5	0	0	300	300	733	50	0	1	1	blank2r.bmp	0	1	+	0	1	blank2r.bmp	492	1	BZZB	492	1	blank2r.bmp	572	3	schön	866	0	0	0	0	0	0	0	0	0	0	0	0	0	0	0	0	0	0	0	0	0	0	0	0	0	0	0	0	0	0	0	0	0	0	0	0
071619	16:50:34	16:53:25	170341	5.0.10.0	5_exp_RW	59	Rpleas_acq	CS_B	BZZB	JXXJ	YDDY	MQQM	GWWG	VKKV	fair	spielen	schön	treu	ehrlich	retten	faul	strafen	schlecht	tot	eitel	rächen	1	acq_USpleas_CSpleas2_RW	acq1_RW	1	6	0	0	300	300	789	50	0	1	1	blank2r.bmp	0	1	+	0	1	blank2r.bmp	492	1	JXXJ	492	1	blank2r.bmp	572	2	ehrlich	866	0	0	0	0	0	0	0	0	0	0	0	0	0	0	0	0	0	0	0	0	0	0	0	0	0	0	0	0	0	0	0	0	0	0	0	0
071619	16:50:34	16:53:28	172754	5.0.10.0	5_exp_RW	59	Rpleas_acq	CS_B	BZZB	JXXJ	YDDY	MQQM	GWWG	VKKV	fair	spielen	schön	treu	ehrlich	retten	faul	strafen	schlecht	tot	eitel	rächen	1	acq_USunple_CSunple2_RW	acq1_RW	1	7	0	0	300	300	920	46	0	1	1	blank2r.bmp	0	1	+	0	1	blank2r.bmp	492	1	MQQM	492	1	blank2r.bmp	572	3	rächen	866	0	0	0	0	0	0	0	0	0	0	0	0	0	0	0	0	0	0	0	0	0	0	0	0	0	0	0	0	0	0	0	0	0	0	0	0
071619	16:50:34	16:53:30	175406	5.0.10.0	5_exp_RW	59	Rpleas_acq	CS_B	BZZB	JXXJ	YDDY	MQQM	GWWG	VKKV	fair	spielen	schön	treu	ehrlich	retten	faul	strafen	schlecht	tot	eitel	rächen	1	acq_USpleas_CSpleas1_RW	acq1_RW	1	8	0	0	300	300	1173	50	0	1	1	blank2r.bmp	0	1	+	0	1	blank2r.bmp	492	1	BZZB	492	1	blank2r.bmp	572	2	spielen	866	0	0	0	0	0	0	0	0	0	0	0	0	0	0	0	0	0	0	0	0	0	0	0	0	0	0	0	0	0	0	0	0	0	0	0	0
071619	16:50:34	16:53:33	177512	5.0.10.0	5_exp_RW	59	Rpleas_acq	CS_B	BZZB	JXXJ	YDDY	MQQM	GWWG	VKKV	fair	spielen	schön	treu	ehrlich	retten	faul	strafen	schlecht	tot	eitel	rächen	1	acq_USunple_CSunple2_RW	acq1_RW	1	9	0	0	300	300	633	46	0	1	1	blank2r.bmp	0	1	+	0	1	blank2r.bmp	492	1	MQQM	492	1	blank2r.bmp	572	1	tot	866	0	0	0	0	0	0	0	0	0	0	0	0	0	0	0	0	0	0	0	0	0	0	0	0	0	0	0	0	0	0	0	0	0	0	0	0
071619	16:50:34	16:53:35	180017	5.0.10.0	5_exp_RW	59	Rpleas_acq	CS_B	BZZB	JXXJ	YDDY	MQQM	GWWG	VKKV	fair	spielen	schön	treu	ehrlich	retten	faul	strafen	schlecht	tot	eitel	rächen	1	acq_USpleas_CSpleas1_RW	acq1_RW	1	10	0	0	300	300	1028	50	0	1	1	blank2r.bmp	0	1	+	0	1	blank2r.bmp	492	1	BZZB	492	1	blank2r.bmp	572	1	fair	866	0	0	0	0	0	0	0	0	0	0	0	0	0	0	0	0	0	0	0	0	0	0	0	0	0	0	0	0	0	0	0	0	0	0	0	0
071619	16:50:34	16:53:38	182709	5.0.10.0	5_exp_RW	59	Rpleas_acq	CS_B	BZZB	JXXJ	YDDY	MQQM	GWWG	VKKV	fair	spielen	schön	treu	ehrlich	retten	faul	strafen	schlecht	tot	eitel	rächen	1	acq_USunple_CSunple1_RW	acq1_RW	1	11	0	0	300	300	1207	46	0	1	1	blank2r.bmp	0	1	+	0	1	blank2r.bmp	492	1	YDDY	492	1	blank2r.bmp	572	3	schlecht	866	0	0	0	0	0	0	0	0	0	0	0	0	0	0	0	0	0	0	0	0	0	0	0	0	0	0	0	0	0	0	0	0	0	0	0	0
071619	16:50:34	16:53:40	185215	5.0.10.0	5_exp_RW	59	Rpleas_acq	CS_B	BZZB	JXXJ	YDDY	MQQM	GWWG	VKKV	fair	spielen	schön	treu	ehrlich	retten	faul	strafen	schlecht	tot	eitel	rächen	1	acq_USpleas_CSpleas2_RW	acq1_RW	1	12	0	0	300	300	1015	50	0	1	1	blank2r.bmp	0	1	+	0	1	blank2r.bmp	492	1	JXXJ	492	1	blank2r.bmp	572	1	treu	866	0	0	0	0	0	0	0	0	0	0	0	0	0	0	0	0	0	0	0	0	0	0	0	0	0	0	0	0	0	0	0	0	0	0	0	0
071619	16:50:34	16:53:43	187774	5.0.10.0	5_exp_RW	59	Rpleas_acq	CS_B	BZZB	JXXJ	YDDY	MQQM	GWWG	VKKV	fair	spielen	schön	treu	ehrlich	retten	faul	strafen	schlecht	tot	eitel	rächen	1	acq_USunple_CSunple1_RW	acq1_RW	1	13	0	0	300	300	1084	46	0	1	1	blank2r.bmp	0	1	+	0	1	blank2r.bmp	492	1	YDDY	492	1	blank2r.bmp	572	1	faul	866	0	0	0	0	0	0	0	0	0	0	0	0	0	0	0	0	0	0	0	0	0	0	0	0	0	0	0	0	0	0	0	0	0	0	0	0
071619	16:50:34	16:53:45	190400	5.0.10.0	5_exp_RW	59	Rpleas_acq	CS_B	BZZB	JXXJ	YDDY	MQQM	GWWG	VKKV	fair	spielen	schön	treu	ehrlich	retten	faul	strafen	schlecht	tot	eitel	rächen	1	acq_USunple_CSunple1_RW	acq1_RW	1	14	0	0	300	300	1152	46	0	1	1	blank2r.bmp	0	1	+	0	1	blank2r.bmp	492	1	YDDY	492	1	blank2r.bmp	572	3	schlecht	866	0	0	0	0	0	0	0	0	0	0	0	0	0	0	0	0	0	0	0	0	0	0	0	0	0	0	0	0	0	0	0	0	0	0	0	0
071619	16:50:34	16:53:48	192679	5.0.10.0	5_exp_RW	59	Rpleas_acq	CS_B	BZZB	JXXJ	YDDY	MQQM	GWWG	VKKV	fair	spielen	schön	treu	ehrlich	retten	faul	strafen	schlecht	tot	eitel	rächen	1	acq_USpleas_CSpleas2_RW	acq1_RW	1	15	0	0	300	300	803	50	0	1	1	blank2r.bmp	0	1	+	0	1	blank2r.bmp	492	1	JXXJ	492	1	blank2r.bmp	572	1	treu	866	0	0	0	0	0	0	0	0	0	0	0	0	0	0	0	0	0	0	0	0	0	0	0	0	0	0	0	0	0	0	0	0	0	0	0	0
071619	16:50:34	16:53:50	195184	5.0.10.0	5_exp_RW	59	Rpleas_acq	CS_B	BZZB	JXXJ	YDDY	MQQM	GWWG	VKKV	fair	spielen	schön	treu	ehrlich	retten	faul	strafen	schlecht	tot	eitel	rächen	1	acq_USpleas_CSpleas1_RW	acq1_RW	1	16	0	0	300	300	1028	50	0	1	1	blank2r.bmp	0	1	+	0	1	blank2r.bmp	492	1	BZZB	492	1	blank2r.bmp	572	2	spielen	866	0	0	0	0	0	0	0	0	0	0	0	0	0	0	0	0	0	0	0	0	0	0	0	0	0	0	0	0	0	0	0	0	0	0	0	0
071619	16:50:34	16:55:54	318653	5.0.10.0	5_exp_RW	59	Rpleas_acq	CS_B	BZZB	JXXJ	YDDY	MQQM	GWWG	VKKV	fair	spielen	schön	treu	ehrlich	retten	faul	strafen	schlecht	tot	eitel	rächen	1	acq_USpleas_CSpleas2_RW	acq2_RW	2	1	480	0	300	300	3479	50	0	1	1	blank2r.bmp	0	1	+	0	1	blank2r.bmp	492	1	JXXJ	492	1	blank2r.bmp	572	2	ehrlich	866	1	!	1319	1	!	-1	0	0	0	0	0	0	0	0	0	0	0	0	0	0	0	0	0	0	0	0	0	0	0	0	0	0	0	0	0	0
071619	16:50:34	16:55:56	321038	5.0.10.0	5_exp_RW	59	Rpleas_acq	CS_B	BZZB	JXXJ	YDDY	MQQM	GWWG	VKKV	fair	spielen	schön	treu	ehrlich	retten	faul	strafen	schlecht	tot	eitel	rächen	1	acq_USpleas_CSpleas2_RW	acq2_RW	2	2	480	0	300	300	600	50	0	1	1	blank2r.bmp	0	1	+	0	1	blank2r.bmp	492	1	JXXJ	492	1	blank2r.bmp	572	3	retten	866	1	!	1319	1	!	-1	0	0	0	0	0	0	0	0	0	0	0	0	0	0	0	0	0	0	0	0	0	0	0	0	0	0	0	0	0	0
071619	16:50:34	16:55:58	323291	5.0.10.0	5_exp_RW	59	Rpleas_acq	CS_B	BZZB	JXXJ	YDDY	MQQM	GWWG	VKKV	fair	spielen	schön	treu	ehrlich	retten	faul	strafen	schlecht	tot	eitel	rächen	1	acq_USpleas_CSpleas2_RW	acq2_RW	2	3	480	1	300	300	451	50	0	1	1	blank2r.bmp	0	1	+	0	1	blank2r.bmp	492	1	JXXJ	492	1	blank2r.bmp	572	3	retten	866	1	!	1319	1	!	1346	0	0	0	0	0	0	0	0	0	0	0	0	0	0	0	0	0	0	0	0	0	0	0	0	0	0	0	0	0	0
071619	16:50:34	16:56:01	325636	5.0.10.0	5_exp_RW	59	Rpleas_acq	CS_B	BZZB	JXXJ	YDDY	MQQM	GWWG	VKKV	fair	spielen	schön	treu	ehrlich	retten	faul	strafen	schlecht	tot	eitel	rächen	1	acq_USunple_CSunple1_RW	acq2_RW	2	4	480	0	300	300	573	46	0	1	1	blank2r.bmp	0	1	+	0	1	blank2r.bmp	492	1	YDDY	492	1	blank2r.bmp	572	2	strafen	866	1	!	1319	1	!	-1	0	0	0	0	0	0	0	0	0	0	0	0	0	0	0	0	0	0	0	0	0	0	0	0	0	0	0	0	0	0
071619	16:50:34	16:56:06	331127	5.0.10.0	5_exp_RW	59	Rpleas_acq	CS_B	BZZB	JXXJ	YDDY	MQQM	GWWG	VKKV	fair	spielen	schön	treu	ehrlich	retten	faul	strafen	schlecht	tot	eitel	rächen	1	acq_USpleas_CSpleas1_RW	acq2_RW	2	5	480	0	300	300	3709	50	0	1	1	blank2r.bmp	0	1	+	0	1	blank2r.bmp	492	1	BZZB	492	1	blank2r.bmp	572	3	schön	866	1	!	1319	1	!	-1	0	0	0	0	0	0	0	0	0	0	0	0	0	0	0	0	0	0	0	0	0	0	0	0	0	0	0	0	0	0
071619	16:50:34	16:56:09	333500	5.0.10.0	5_exp_RW	59	Rpleas_acq	CS_B	BZZB	JXXJ	YDDY	MQQM	GWWG	VKKV	fair	spielen	schön	treu	ehrlich	retten	faul	strafen	schlecht	tot	eitel	rächen	1	acq_USpleas_CSpleas2_RW	acq2_RW	2	6	480	0	300	300	586	50	0	1	1	blank2r.bmp	0	1	+	0	1	blank2r.bmp	492	1	JXXJ	492	1	blank2r.bmp	572	1	treu	866	1	!	1319	1	!	-1	0	0	0	0	0	0	0	0	0	0	0	0	0	0	0	0	0	0	0	0	0	0	0	0	0	0	0	0	0	0
071619	16:50:34	16:56:11	335845	5.0.10.0	5_exp_RW	59	Rpleas_acq	CS_B	BZZB	JXXJ	YDDY	MQQM	GWWG	VKKV	fair	spielen	schön	treu	ehrlich	retten	faul	strafen	schlecht	tot	eitel	rächen	1	acq_USunple_CSunple2_RW	acq2_RW	2	7	480	1	300	300	536	46	0	1	1	blank2r.bmp	0	1	+	0	1	blank2r.bmp	492	1	MQQM	492	1	blank2r.bmp	572	3	rächen	866	1	!	1319	1	!	1439	0	0	0	0	0	0	0	0	0	0	0	0	0	0	0	0	0	0	0	0	0	0	0	0	0	0	0	0	0	0
071619	16:50:34	16:56:13	338204	5.0.10.0	5_exp_RW	59	Rpleas_acq	CS_B	BZZB	JXXJ	YDDY	MQQM	GWWG	VKKV	fair	spielen	schön	treu	ehrlich	retten	faul	strafen	schlecht	tot	eitel	rächen	1	acq_USunple_CSunple2_RW	acq2_RW	2	8	480	0	300	300	580	46	0	1	1	blank2r.bmp	0	1	+	0	1	blank2r.bmp	492	1	MQQM	492	1	blank2r.bmp	572	2	eitel	866	1	!	1319	1	!	-1	0	0	0	0	0	0	0	0	0	0	0	0	0	0	0	0	0	0	0	0	0	0	0	0	0	0	0	0	0	0
071619	16:50:34	16:56:16	340590	5.0.10.0	5_exp_RW	59	Rpleas_acq	CS_B	BZZB	JXXJ	YDDY	MQQM	GWWG	VKKV	fair	spielen	schön	treu	ehrlich	retten	faul	strafen	schlecht	tot	eitel	rächen	1	acq_USpleas_CSpleas2_RW	acq2_RW	2	9	480	0	300	300	589	50	0	1	1	blank2r.bmp	0	1	+	0	1	blank2r.bmp	492	1	JXXJ	492	1	blank2r.bmp	572	2	ehrlich	866	1	!	1319	1	!	-1	0	0	0	0	0	0	0	0	0	0	0	0	0	0	0	0	0	0	0	0	0	0	0	0	0	0	0	0	0	0
071619	16:50:34	16:56:18	342949	5.0.10.0	5_exp_RW	59	Rpleas_acq	CS_B	BZZB	JXXJ	YDDY	MQQM	GWWG	VKKV	fair	spielen	schön	treu	ehrlich	retten	faul	strafen	schlecht	tot	eitel	rächen	1	acq_USunple_CSunple1_RW	acq2_RW	2	10	480	0	300	300	565	46	0	1	1	blank2r.bmp	0	1	+	0	1	blank2r.bmp	492	1	YDDY	492	1	blank2r.bmp	572	1	faul	866	1	!	1319	1	!	-1	0	0	0	0	0	0	0	0	0	0	0	0	0	0	0	0	0	0	0	0	0	0	0	0	0	0	0	0	0	0
071619	16:50:34	16:56:21	345535	5.0.10.0	5_exp_RW	59	Rpleas_acq	CS_B	BZZB	JXXJ	YDDY	MQQM	GWWG	VKKV	fair	spielen	schön	treu	ehrlich	retten	faul	strafen	schlecht	tot	eitel	rächen	1	acq_USpleas_CSpleas1_RW	acq2_RW	2	11	480	0	300	300	805	50	0	1	1	blank2r.bmp	0	1	+	0	1	blank2r.bmp	492	1	BZZB	492	1	blank2r.bmp	572	1	fair	866	1	!	1319	1	!	-1	0	0	0	0	0	0	0	0	0	0	0	0	0	0	0	0	0	0	0	0	0	0	0	0	0	0	0	0	0	0
071619	16:50:34	16:56:23	347814	5.0.10.0	5_exp_RW	59	Rpleas_acq	CS_B	BZZB	JXXJ	YDDY	MQQM	GWWG	VKKV	fair	spielen	schön	treu	ehrlich	retten	faul	strafen	schlecht	tot	eitel	rächen	1	acq_USunple_CSunple2_RW	acq2_RW	2	12	480	1	300	300	487	46	0	1	1	blank2r.bmp	0	1	+	0	1	blank2r.bmp	492	1	MQQM	492	1	blank2r.bmp	572	3	rächen	866	1	!	1319	1	!	1386	0	0	0	0	0	0	0	0	0	0	0	0	0	0	0	0	0	0	0	0	0	0	0	0	0	0	0	0	0	0
071619	16:50:34	16:56:25	350159	5.0.10.0	5_exp_RW	59	Rpleas_acq	CS_B	BZZB	JXXJ	YDDY	MQQM	GWWG	VKKV	fair	spielen	schön	treu	ehrlich	retten	faul	strafen	schlecht	tot	eitel	rächen	1	acq_USunple_CSunple1_RW	acq2_RW	2	13	480	0	300	300	573	46	0	1	1	blank2r.bmp	0	1	+	0	1	blank2r.bmp	492	1	YDDY	492	1	blank2r.bmp	572	1	faul	866	1	!	1319	1	!	-1	0	0	0	0	0	0	0	0	0	0	0	0	0	0	0	0	0	0	0	0	0	0	0	0	0	0	0	0	0	0
071619	16:50:34	16:56:28	353345	5.0.10.0	5_exp_RW	59	Rpleas_acq	CS_B	BZZB	JXXJ	YDDY	MQQM	GWWG	VKKV	fair	spielen	schön	treu	ehrlich	retten	faul	strafen	schlecht	tot	eitel	rächen	1	acq_USpleas_CSpleas1_RW	acq2_RW	2	14	480	0	300	300	1398	50	0	1	1	blank2r.bmp	0	1	+	0	1	blank2r.bmp	492	1	BZZB	492	1	blank2r.bmp	572	3	schön	866	1	!	1319	1	!	-1	0	0	0	0	0	0	0	0	0	0	0	0	0	0	0	0	0	0	0	0	0	0	0	0	0	0	0	0	0	0
071619	16:50:34	16:56:33	358276	5.0.10.0	5_exp_RW	59	Rpleas_acq	CS_B	BZZB	JXXJ	YDDY	MQQM	GWWG	VKKV	fair	spielen	schön	treu	ehrlich	retten	faul	strafen	schlecht	tot	eitel	rächen	1	acq_USpleas_CSpleas2_RW	acq2_RW	2	15	480	0	300	300	3152	50	0	1	1	blank2r.bmp	0	1	+	0	1	blank2r.bmp	492	1	JXXJ	492	1	blank2r.bmp	572	3	retten	866	1	!	1319	1	!	-1	0	0	0	0	0	0	0	0	0	0	0	0	0	0	0	0	0	0	0	0	0	0	0	0	0	0	0	0	0	0
071619	16:50:34	16:56:36	360715	5.0.10.0	5_exp_RW	59	Rpleas_acq	CS_B	BZZB	JXXJ	YDDY	MQQM	GWWG	VKKV	fair	spielen	schön	treu	ehrlich	retten	faul	strafen	schlecht	tot	eitel	rächen	1	acq_USunple_CSunple1_RW	acq2_RW	2	16	480	0	300	300	652	46	0	1	1	blank2r.bmp	0	1	+	0	1	blank2r.bmp	492	1	YDDY	492	1	blank2r.bmp	572	3	schlecht	866	1	!	1319	1	!	-1	0	0	0	0	0	0	0	0	0	0	0	0	0	0	0	0	0	0	0	0	0	0	0	0	0	0	0	0	0	0
071619	16:50:34	16:56:38	363061	5.0.10.0	5_exp_RW	59	Rpleas_acq	CS_B	BZZB	JXXJ	YDDY	MQQM	GWWG	VKKV	fair	spielen	schön	treu	ehrlich	retten	faul	strafen	schlecht	tot	eitel	rächen	1	acq_USunple_CSunple2_RW	acq2_RW	2	17	480	1	300	300	520	46	0	1	1	blank2r.bmp	0	1	+	0	1	blank2r.bmp	492	1	MQQM	492	1	blank2r.bmp	572	1	tot	866	1	!	1319	1	!	1426	0	0	0	0	0	0	0	0	0	0	0	0	0	0	0	0	0	0	0	0	0	0	0	0	0	0	0	0	0	0
071619	16:50:34	16:56:41	365553	5.0.10.0	5_exp_RW	59	Rpleas_acq	CS_B	BZZB	JXXJ	YDDY	MQQM	GWWG	VKKV	fair	spielen	schön	treu	ehrlich	retten	faul	strafen	schlecht	tot	eitel	rächen	1	acq_USunple_CSunple1_RW	acq2_RW	2	18	480	0	300	300	730	46	0	1	1	blank2r.bmp	0	1	+	0	1	blank2r.bmp	492	1	YDDY	492	1	blank2r.bmp	572	2	strafen	866	1	!	1319	1	!	-1	0	0	0	0	0	0	0	0	0	0	0	0	0	0	0	0	0	0	0	0	0	0	0	0	0	0	0	0	0	0
071619	16:50:34	16:56:43	367872	5.0.10.0	5_exp_RW	59	Rpleas_acq	CS_B	BZZB	JXXJ	YDDY	MQQM	GWWG	VKKV	fair	spielen	schön	treu	ehrlich	retten	faul	strafen	schlecht	tot	eitel	rächen	1	acq_USunple_CSunple1_RW	acq2_RW	2	19	480	1	300	300	514	46	0	1	1	blank2r.bmp	0	1	+	0	1	blank2r.bmp	492	1	YDDY	492	1	blank2r.bmp	572	3	schlecht	866	1	!	1319	1	!	1412	0	0	0	0	0	0	0	0	0	0	0	0	0	0	0	0	0	0	0	0	0	0	0	0	0	0	0	0	0	0
071619	16:50:34	16:56:45	370138	5.0.10.0	5_exp_RW	59	Rpleas_acq	CS_B	BZZB	JXXJ	YDDY	MQQM	GWWG	VKKV	fair	spielen	schön	treu	ehrlich	retten	faul	strafen	schlecht	tot	eitel	rächen	1	acq_USunple_CSunple2_RW	acq2_RW	2	20	480	1	300	300	464	46	0	1	1	blank2r.bmp	0	1	+	0	1	blank2r.bmp	492	1	MQQM	492	1	blank2r.bmp	572	2	eitel	866	1	!	1319	1	!	1359	0	0	0	0	0	0	0	0	0	0	0	0	0	0	0	0	0	0	0	0	0	0	0	0	0	0	0	0	0	0
071619	16:50:34	16:56:48	372457	5.0.10.0	5_exp_RW	59	Rpleas_acq	CS_B	BZZB	JXXJ	YDDY	MQQM	GWWG	VKKV	fair	spielen	schön	treu	ehrlich	retten	faul	strafen	schlecht	tot	eitel	rächen	1	acq_USunple_CSunple2_RW	acq2_RW	2	21	480	1	300	300	518	46	0	1	1	blank2r.bmp	0	1	+	0	1	blank2r.bmp	492	1	MQQM	492	1	blank2r.bmp	572	3	rächen	866	1	!	1319	1	!	1426	0	0	0	0	0	0	0	0	0	0	0	0	0	0	0	0	0	0	0	0	0	0	0	0	0	0	0	0	0	0
071619	16:50:34	16:56:50	374776	5.0.10.0	5_exp_RW	59	Rpleas_acq	CS_B	BZZB	JXXJ	YDDY	MQQM	GWWG	VKKV	fair	spielen	schön	treu	ehrlich	retten	faul	strafen	schlecht	tot	eitel	rächen	1	acq_USpleas_CSpleas1_RW	acq2_RW	2	22	480	1	300	300	527	50	0	1	1	blank2r.bmp	0	1	+	0	1	blank2r.bmp	492	1	BZZB	492	1	blank2r.bmp	572	2	spielen	866	1	!	1319	1	!	1426	0	0	0	0	0	0	0	0	0	0	0	0	0	0	0	0	0	0	0	0	0	0	0	0	0	0	0	0	0	0
071619	16:50:34	16:56:52	377295	5.0.10.0	5_exp_RW	59	Rpleas_acq	CS_B	BZZB	JXXJ	YDDY	MQQM	GWWG	VKKV	fair	spielen	schön	treu	ehrlich	retten	faul	strafen	schlecht	tot	eitel	rächen	1	acq_USpleas_CSpleas1_RW	acq2_RW	2	23	480	0	300	300	756	50	0	1	1	blank2r.bmp	0	1	+	0	1	blank2r.bmp	492	1	BZZB	492	1	blank2r.bmp	572	1	fair	866	1	!	1319	1	!	-1	0	0	0	0	0	0	0	0	0	0	0	0	0	0	0	0	0	0	0	0	0	0	0	0	0	0	0	0	0	0
071619	16:50:34	16:56:55	379600	5.0.10.0	5_exp_RW	59	Rpleas_acq	CS_B	BZZB	JXXJ	YDDY	MQQM	GWWG	VKKV	fair	spielen	schön	treu	ehrlich	retten	faul	strafen	schlecht	tot	eitel	rächen	1	acq_USpleas_CSpleas1_RW	acq2_RW	2	24	480	1	300	300	499	50	0	1	1	blank2r.bmp	0	1	+	0	1	blank2r.bmp	492	1	BZZB	492	1	blank2r.bmp	572	1	fair	866	1	!	1319	1	!	1399	0	0	0	0	0	0	0	0	0	0	0	0	0	0	0	0	0	0	0	0	0	0	0	0	0	0	0	0	0	0
071619	16:50:34	16:57:18	403324	5.0.10.0	5_exp_RW	59	Rpleas_acq	CS_B	BZZB	JXXJ	YDDY	MQQM	GWWG	VKKV	fair	spielen	schön	treu	ehrlich	retten	faul	strafen	schlecht	tot	eitel	rächen	1	acq_USunple_CSunple1_RW	acq3_RW	3	1	453	0	300	300	684	46	0	1	1	blank2r.bmp	0	1	+	0	1	blank2r.bmp	492	1	YDDY	492	1	blank2r.bmp	572	2	strafen	866	1	!	1292	1	!	-1	0	0	0	0	0	0	0	0	0	0	0	0	0	0	0	0	0	0	0	0	0	0	0	0	0	0	0	0	0	0
071619	16:50:34	16:57:21	405536	5.0.10.0	5_exp_RW	59	Rpleas_acq	CS_B	BZZB	JXXJ	YDDY	MQQM	GWWG	VKKV	fair	spielen	schön	treu	ehrlich	retten	faul	strafen	schlecht	tot	eitel	rächen	1	acq_USunple_CSunple2_RW	acq3_RW	3	2	453	1	300	300	399	46	0	1	1	blank2r.bmp	0	1	+	0	1	blank2r.bmp	492	1	MQQM	492	1	blank2r.bmp	572	1	tot	866	1	!	1292	1	!	1306	0	0	0	0	0	0	0	0	0	0	0	0	0	0	0	0	0	0	0	0	0	0	0	0	0	0	0	0	0	0
071619	16:50:34	16:57:23	407775	5.0.10.0	5_exp_RW	59	Rpleas_acq	CS_B	BZZB	JXXJ	YDDY	MQQM	GWWG	VKKV	fair	spielen	schön	treu	ehrlich	retten	faul	strafen	schlecht	tot	eitel	rächen	1	acq_USunple_CSunple2_RW	acq3_RW	3	3	453	1	300	300	445	46	0	1	1	blank2r.bmp	0	1	+	0	1	blank2r.bmp	492	1	MQQM	492	1	blank2r.bmp	572	2	eitel	866	1	!	1292	1	!	1346	0	0	0	0	0	0	0	0	0	0	0	0	0	0	0	0	0	0	0	0	0	0	0	0	0	0	0	0	0	0
071619	16:50:34	16:57:25	409841	5.0.10.0	5_exp_RW	59	Rpleas_acq	CS_B	BZZB	JXXJ	YDDY	MQQM	GWWG	VKKV	fair	spielen	schön	treu	ehrlich	retten	faul	strafen	schlecht	tot	eitel	rächen	1	acq_USpleas_CSpleas1_RW	acq3_RW	3	4	453	0	300	300	290	50	0	1	1	blank2r.bmp	0	1	+	0	1	blank2r.bmp	492	1	BZZB	492	1	blank2r.bmp	572	3	schön	866	1	!	-1	1	!	-1	0	0	0	0	0	0	0	0	0	0	0	0	0	0	0	0	0	0	0	0	0	0	0	0	0	0	0	0	0	0
071619	16:50:34	16:57:27	412093	5.0.10.0	5_exp_RW	59	Rpleas_acq	CS_B	BZZB	JXXJ	YDDY	MQQM	GWWG	VKKV	fair	spielen	schön	treu	ehrlich	retten	faul	strafen	schlecht	tot	eitel	rächen	1	acq_USunple_CSunple1_RW	acq3_RW	3	5	453	1	300	300	441	46	0	1	1	blank2r.bmp	0	1	+	0	1	blank2r.bmp	492	1	YDDY	492	1	blank2r.bmp	572	1	faul	866	1	!	1292	1	!	1346	0	0	0	0	0	0	0	0	0	0	0	0	0	0	0	0	0	0	0	0	0	0	0	0	0	0	0	0	0	0
071619	16:50:34	16:57:29	414373	5.0.10.0	5_exp_RW	59	Rpleas_acq	CS_B	BZZB	JXXJ	YDDY	MQQM	GWWG	VKKV	fair	spielen	schön	treu	ehrlich	retten	faul	strafen	schlecht	tot	eitel	rächen	1	acq_USpleas_CSpleas1_RW	acq3_RW	3	6	453	1	300	300	480	50	0	1	1	blank2r.bmp	0	1	+	0	1	blank2r.bmp	492	1	BZZB	492	1	blank2r.bmp	572	2	spielen	866	1	!	1292	1	!	1386	0	0	0	0	0	0	0	0	0	0	0	0	0	0	0	0	0	0	0	0	0	0	0	0	0	0	0	0	0	0
071619	16:50:34	16:57:32	416825	5.0.10.0	5_exp_RW	59	Rpleas_acq	CS_B	BZZB	JXXJ	YDDY	MQQM	GWWG	VKKV	fair	spielen	schön	treu	ehrlich	retten	faul	strafen	schlecht	tot	eitel	rächen	1	acq_USpleas_CSpleas1_RW	acq3_RW	3	7	453	0	300	300	679	50	0	1	1	blank2r.bmp	0	1	+	0	1	blank2r.bmp	492	1	BZZB	492	1	blank2r.bmp	572	1	fair	866	1	!	1292	1	!	-1	0	0	0	0	0	0	0	0	0	0	0	0	0	0	0	0	0	0	0	0	0	0	0	0	0	0	0	0	0	0
071619	16:50:34	16:57:34	419144	5.0.10.0	5_exp_RW	59	Rpleas_acq	CS_B	BZZB	JXXJ	YDDY	MQQM	GWWG	VKKV	fair	spielen	schön	treu	ehrlich	retten	faul	strafen	schlecht	tot	eitel	rächen	1	acq_USpleas_CSpleas1_RW	acq3_RW	3	8	453	0	300	300	532	50	0	1	1	blank2r.bmp	0	1	+	0	1	blank2r.bmp	492	1	BZZB	492	1	blank2r.bmp	572	2	spielen	866	1	!	1292	1	!	-1	0	0	0	0	0	0	0	0	0	0	0	0	0	0	0	0	0	0	0	0	0	0	0	0	0	0	0	0	0	0
071619	16:50:34	16:57:37	421463	5.0.10.0	5_exp_RW	59	Rpleas_acq	CS_B	BZZB	JXXJ	YDDY	MQQM	GWWG	VKKV	fair	spielen	schön	treu	ehrlich	retten	faul	strafen	schlecht	tot	eitel	rächen	1	acq_USunple_CSunple1_RW	acq3_RW	3	9	453	1	300	300	511	46	0	1	1	blank2r.bmp	0	1	+	0	1	blank2r.bmp	492	1	YDDY	492	1	blank2r.bmp	572	2	strafen	866	1	!	1292	1	!	1412	0	0	0	0	0	0	0	0	0	0	0	0	0	0	0	0	0	0	0	0	0	0	0	0	0	0	0	0	0	0
071619	16:50:34	16:57:39	423715	5.0.10.0	5_exp_RW	59	Rpleas_acq	CS_B	BZZB	JXXJ	YDDY	MQQM	GWWG	VKKV	fair	spielen	schön	treu	ehrlich	retten	faul	strafen	schlecht	tot	eitel	rächen	1	acq_USunple_CSunple1_RW	acq3_RW	3	10	453	1	300	300	454	46	0	1	1	blank2r.bmp	0	1	+	0	1	blank2r.bmp	492	1	YDDY	492	1	blank2r.bmp	572	1	faul	866	1	!	1292	1	!	1359	0	0	0	0	0	0	0	0	0	0	0	0	0	0	0	0	0	0	0	0	0	0	0	0	0	0	0	0	0	0
071619	16:50:34	16:57:41	425994	5.0.10.0	5_exp_RW	59	Rpleas_acq	CS_B	BZZB	JXXJ	YDDY	MQQM	GWWG	VKKV	fair	spielen	schön	treu	ehrlich	retten	faul	strafen	schlecht	tot	eitel	rächen	1	acq_USpleas_CSpleas2_RW	acq3_RW	3	11	453	1	300	300	480	50	0	1	1	blank2r.bmp	0	1	+	0	1	blank2r.bmp	492	1	JXXJ	492	1	blank2r.bmp	572	1	treu	866	1	!	1292	1	!	1386	0	0	0	0	0	0	0	0	0	0	0	0	0	0	0	0	0	0	0	0	0	0	0	0	0	0	0	0	0	0
071619	16:50:34	16:57:43	428300	5.0.10.0	5_exp_RW	59	Rpleas_acq	CS_B	BZZB	JXXJ	YDDY	MQQM	GWWG	VKKV	fair	spielen	schön	treu	ehrlich	retten	faul	strafen	schlecht	tot	eitel	rächen	1	acq_USpleas_CSpleas2_RW	acq3_RW	3	12	453	0	300	300	532	50	0	1	1	blank2r.bmp	0	1	+	0	1	blank2r.bmp	492	1	JXXJ	492	1	blank2r.bmp	572	2	ehrlich	866	1	!	1292	1	!	-1	0	0	0	0	0	0	0	0	0	0	0	0	0	0	0	0	0	0	0	0	0	0	0	0	0	0	0	0	0	0
071619	16:50:34	16:57:46	430566	5.0.10.0	5_exp_RW	59	Rpleas_acq	CS_B	BZZB	JXXJ	YDDY	MQQM	GWWG	VKKV	fair	spielen	schön	treu	ehrlich	retten	faul	strafen	schlecht	tot	eitel	rächen	1	acq_USunple_CSunple2_RW	acq3_RW	3	13	453	1	300	300	462	46	0	1	1	blank2r.bmp	0	1	+	0	1	blank2r.bmp	492	1	MQQM	492	1	blank2r.bmp	572	1	tot	866	1	!	1292	1	!	1359	0	0	0	0	0	0	0	0	0	0	0	0	0	0	0	0	0	0	0	0	0	0	0	0	0	0	0	0	0	0
071619	16:50:34	16:57:48	432845	5.0.10.0	5_exp_RW	59	Rpleas_acq	CS_B	BZZB	JXXJ	YDDY	MQQM	GWWG	VKKV	fair	spielen	schön	treu	ehrlich	retten	faul	strafen	schlecht	tot	eitel	rächen	1	acq_USpleas_CSpleas1_RW	acq3_RW	3	14	453	1	300	300	487	50	0	1	1	blank2r.bmp	0	1	+	0	1	blank2r.bmp	492	1	BZZB	492	1	blank2r.bmp	572	3	schön	866	1	!	1292	1	!	1386	0	0	0	0	0	0	0	0	0	0	0	0	0	0	0	0	0	0	0	0	0	0	0	0	0	0	0	0	0	0
071619	16:50:34	16:57:50	435177	5.0.10.0	5_exp_RW	59	Rpleas_acq	CS_B	BZZB	JXXJ	YDDY	MQQM	GWWG	VKKV	fair	spielen	schön	treu	ehrlich	retten	faul	strafen	schlecht	tot	eitel	rächen	1	acq_USpleas_CSpleas1_RW	acq3_RW	3	15	453	0	300	300	547	50	0	1	1	blank2r.bmp	0	1	+	0	1	blank2r.bmp	492	1	BZZB	492	1	blank2r.bmp	572	1	fair	866	1	!	1292	1	!	-1	0	0	0	0	0	0	0	0	0	0	0	0	0	0	0	0	0	0	0	0	0	0	0	0	0	0	0	0	0	0
071619	16:50:34	16:57:53	437470	5.0.10.0	5_exp_RW	59	Rpleas_acq	CS_B	BZZB	JXXJ	YDDY	MQQM	GWWG	VKKV	fair	spielen	schön	treu	ehrlich	retten	faul	strafen	schlecht	tot	eitel	rächen	1	acq_USunple_CSunple1_RW	acq3_RW	3	16	453	1	300	300	485	46	0	1	1	blank2r.bmp	0	1	+	0	1	blank2r.bmp	492	1	YDDY	492	1	blank2r.bmp	572	3	schlecht	866	1	!	1292	1	!	1386	0	0	0	0	0	0	0	0	0	0	0	0	0	0	0	0	0	0	0	0	0	0	0	0	0	0	0	0	0	0
071619	16:50:34	16:57:55	439749	5.0.10.0	5_exp_RW	59	Rpleas_acq	CS_B	BZZB	JXXJ	YDDY	MQQM	GWWG	VKKV	fair	spielen	schön	treu	ehrlich	retten	faul	strafen	schlecht	tot	eitel	rächen	1	acq_USunple_CSunple2_RW	acq3_RW	3	17	453	1	300	300	488	46	0	1	1	blank2r.bmp	0	1	+	0	1	blank2r.bmp	492	1	MQQM	492	1	blank2r.bmp	572	2	eitel	866	1	!	1292	1	!	1386	0	0	0	0	0	0	0	0	0	0	0	0	0	0	0	0	0	0	0	0	0	0	0	0	0	0	0	0	0	0
071619	16:50:34	16:57:57	441948	5.0.10.0	5_exp_RW	59	Rpleas_acq	CS_B	BZZB	JXXJ	YDDY	MQQM	GWWG	VKKV	fair	spielen	schön	treu	ehrlich	retten	faul	strafen	schlecht	tot	eitel	rächen	1	acq_USpleas_CSpleas2_RW	acq3_RW	3	18	453	1	300	300	404	50	0	1	1	blank2r.bmp	0	1	+	0	1	blank2r.bmp	492	1	JXXJ	492	1	blank2r.bmp	572	1	treu	866	1	!	1292	1	!	1306	0	0	0	0	0	0	0	0	0	0	0	0	0	0	0	0	0	0	0	0	0	0	0	0	0	0	0	0	0	0
071619	16:50:34	16:57:59	444253	5.0.10.0	5_exp_RW	59	Rpleas_acq	CS_B	BZZB	JXXJ	YDDY	MQQM	GWWG	VKKV	fair	spielen	schön	treu	ehrlich	retten	faul	strafen	schlecht	tot	eitel	rächen	1	acq_USpleas_CSpleas2_RW	acq3_RW	3	19	453	0	300	300	536	50	0	1	1	blank2r.bmp	0	1	+	0	1	blank2r.bmp	492	1	JXXJ	492	1	blank2r.bmp	572	3	retten	866	1	!	1292	1	!	-1	0	0	0	0	0	0	0	0	0	0	0	0	0	0	0	0	0	0	0	0	0	0	0	0	0	0	0	0	0	0
071619	16:50:34	16:58:02	446572	5.0.10.0	5_exp_RW	59	Rpleas_acq	CS_B	BZZB	JXXJ	YDDY	MQQM	GWWG	VKKV	fair	spielen	schön	treu	ehrlich	retten	faul	strafen	schlecht	tot	eitel	rächen	1	acq_USunple_CSunple1_RW	acq3_RW	3	20	453	0	300	300	532	46	0	1	1	blank2r.bmp	0	1	+	0	1	blank2r.bmp	492	1	YDDY	492	1	blank2r.bmp	572	2	strafen	866	1	!	1292	1	!	-1	0	0	0	0	0	0	0	0	0	0	0	0	0	0	0	0	0	0	0	0	0	0	0	0	0	0	0	0	0	0
071619	16:50:34	16:58:04	448891	5.0.10.0	5_exp_RW	59	Rpleas_acq	CS_B	BZZB	JXXJ	YDDY	MQQM	GWWG	VKKV	fair	spielen	schön	treu	ehrlich	retten	faul	strafen	schlecht	tot	eitel	rächen	1	acq_USunple_CSunple2_RW	acq3_RW	3	21	453	0	300	300	542	46	0	1	1	blank2r.bmp	0	1	+	0	1	blank2r.bmp	492	1	MQQM	492	1	blank2r.bmp	572	3	rächen	866	1	!	1292	1	!	-1	0	0	0	0	0	0	0	0	0	0	0	0	0	0	0	0	0	0	0	0	0	0	0	0	0	0	0	0	0	0
071619	16:50:34	16:58:06	451197	5.0.10.0	5_exp_RW	59	Rpleas_acq	CS_B	BZZB	JXXJ	YDDY	MQQM	GWWG	VKKV	fair	spielen	schön	treu	ehrlich	retten	faul	strafen	schlecht	tot	eitel	rächen	1	acq_USunple_CSunple2_RW	acq3_RW	3	22	453	1	300	300	493	46	0	1	1	blank2r.bmp	0	1	+	0	1	blank2r.bmp	492	1	MQQM	492	1	blank2r.bmp	572	1	tot	866	1	!	1292	1	!	1399	0	0	0	0	0	0	0	0	0	0	0	0	0	0	0	0	0	0	0	0	0	0	0	0	0	0	0	0	0	0
071619	16:50:34	16:58:08	453316	5.0.10.0	5_exp_RW	59	Rpleas_acq	CS_B	BZZB	JXXJ	YDDY	MQQM	GWWG	VKKV	fair	spielen	schön	treu	ehrlich	retten	faul	strafen	schlecht	tot	eitel	rächen	1	acq_USpleas_CSpleas2_RW	acq3_RW	3	23	453	0	300	300	356	50	0	1	1	blank2r.bmp	0	1	+	0	1	blank2r.bmp	492	1	JXXJ	492	1	blank2r.bmp	572	2	ehrlich	866	1	!	-1	1	!	-1	0	0	0	0	0	0	0	0	0	0	0	0	0	0	0	0	0	0	0	0	0	0	0	0	0	0	0	0	0	0
071619	16:50:34	16:58:11	455649	5.0.10.0	5_exp_RW	59	Rpleas_acq	CS_B	BZZB	JXXJ	YDDY	MQQM	GWWG	VKKV	fair	spielen	schön	treu	ehrlich	retten	faul	strafen	schlecht	tot	eitel	rächen	1	acq_USpleas_CSpleas2_RW	acq3_RW	3	24	453	0	300	300	537	50	0	1	1	blank2r.bmp	0	1	+	0	1	blank2r.bmp	492	1	JXXJ	492	1	blank2r.bmp	572	3	retten	866	1	!	1292	1	!	-1	0	0	0	0	0	0	0	0	0	0	0	0	0	0	0	0	0	0	0	0	0	0	0	0	0	0	0	0	0	0
071619	16:50:34	16:58:26	470602	5.0.10.0	5_exp_RW	59	Rpleas_acq	CS_B	BZZB	JXXJ	YDDY	MQQM	GWWG	VKKV	fair	spielen	schön	treu	ehrlich	retten	faul	strafen	schlecht	tot	eitel	rächen	1	acq_USunple_CSunple1_RW	acq4567_RW	4	1	400	0	300	300	2449	46	0	1	1	blank2r.bmp	0	1	+	0	1	blank2r.bmp	492	1	YDDY	492	1	blank2r.bmp	572	1	faul	866	1	!	1239	1	!	-1	0	0	0	0	0	0	0	0	0	0	0	0	0	0	0	0	0	0	0	0	0	0	0	0	0	0	0	0	0	0
071619	16:50:34	16:58:28	473068	5.0.10.0	5_exp_RW	59	Rpleas_acq	CS_B	BZZB	JXXJ	YDDY	MQQM	GWWG	VKKV	fair	spielen	schön	treu	ehrlich	retten	faul	strafen	schlecht	tot	eitel	rächen	1	acq_USpleas_CSpleas2_RW	acq4567_RW	4	2	400	0	300	300	690	50	0	1	1	blank2r.bmp	0	1	+	0	1	blank2r.bmp	492	1	JXXJ	492	1	blank2r.bmp	572	2	ehrlich	866	1	!	1239	1	!	-1	0	0	0	0	0	0	0	0	0	0	0	0	0	0	0	0	0	0	0	0	0	0	0	0	0	0	0	0	0	0
071619	16:50:34	16:58:31	475454	5.0.10.0	5_exp_RW	59	Rpleas_acq	CS_B	BZZB	JXXJ	YDDY	MQQM	GWWG	VKKV	fair	spielen	schön	treu	ehrlich	retten	faul	strafen	schlecht	tot	eitel	rächen	1	acq_USunple_CSunple1_RW	acq4567_RW	4	3	400	0	300	300	606	46	0	1	1	blank2r.bmp	0	1	+	0	1	blank2r.bmp	492	1	YDDY	492	1	blank2r.bmp	572	3	schlecht	866	1	!	1239	1	!	-1	0	0	0	0	0	0	0	0	0	0	0	0	0	0	0	0	0	0	0	0	0	0	0	0	0	0	0	0	0	0
071619	16:50:34	16:58:33	477826	5.0.10.0	5_exp_RW	59	Rpleas_acq	CS_B	BZZB	JXXJ	YDDY	MQQM	GWWG	VKKV	fair	spielen	schön	treu	ehrlich	retten	faul	strafen	schlecht	tot	eitel	rächen	1	acq_USpleas_CSpleas2_RW	acq4567_RW	4	4	400	0	300	300	586	50	0	1	1	blank2r.bmp	0	1	+	0	1	blank2r.bmp	492	1	JXXJ	492	1	blank2r.bmp	572	1	treu	866	1	!	1239	1	!	-1	0	0	0	0	0	0	0	0	0	0	0	0	0	0	0	0	0	0	0	0	0	0	0	0	0	0	0	0	0	0
071619	16:50:34	16:58:35	480185	5.0.10.0	5_exp_RW	59	Rpleas_acq	CS_B	BZZB	JXXJ	YDDY	MQQM	GWWG	VKKV	fair	spielen	schön	treu	ehrlich	retten	faul	strafen	schlecht	tot	eitel	rächen	1	acq_USunple_CSunple1_RW	acq4567_RW	4	5	400	0	300	300	574	46	0	1	1	blank2r.bmp	0	1	+	0	1	blank2r.bmp	492	1	YDDY	492	1	blank2r.bmp	572	1	faul	866	1	!	1239	1	!	-1	0	0	0	0	0	0	0	0	0	0	0	0	0	0	0	0	0	0	0	0	0	0	0	0	0	0	0	0	0	0
071619	16:50:34	16:58:38	482597	5.0.10.0	5_exp_RW	59	Rpleas_acq	CS_B	BZZB	JXXJ	YDDY	MQQM	GWWG	VKKV	fair	spielen	schön	treu	ehrlich	retten	faul	strafen	schlecht	tot	eitel	rächen	1	acq_USpleas_CSpleas1_RW	acq4567_RW	4	6	400	0	300	300	628	50	0	1	1	blank2r.bmp	0	1	+	0	1	blank2r.bmp	492	1	BZZB	492	1	blank2r.bmp	572	3	schön	866	1	!	1239	1	!	-1	0	0	0	0	0	0	0	0	0	0	0	0	0	0	0	0	0	0	0	0	0	0	0	0	0	0	0	0	0	0
071619	16:50:34	16:58:40	485023	5.0.10.0	5_exp_RW	59	Rpleas_acq	CS_B	BZZB	JXXJ	YDDY	MQQM	GWWG	VKKV	fair	spielen	schön	treu	ehrlich	retten	faul	strafen	schlecht	tot	eitel	rächen	1	acq_USunple_CSunple2_RW	acq4567_RW	4	7	400	0	300	300	626	46	0	1	1	blank2r.bmp	0	1	+	0	1	blank2r.bmp	492	1	MQQM	492	1	blank2r.bmp	572	3	rächen	866	1	!	1239	1	!	-1	0	0	0	0	0	0	0	0	0	0	0	0	0	0	0	0	0	0	0	0	0	0	0	0	0	0	0	0	0	0
071619	16:50:34	16:58:43	487449	5.0.10.0	5_exp_RW	59	Rpleas_acq	CS_B	BZZB	JXXJ	YDDY	MQQM	GWWG	VKKV	fair	spielen	schön	treu	ehrlich	retten	faul	strafen	schlecht	tot	eitel	rächen	1	acq_USpleas_CSpleas1_RW	acq4567_RW	4	8	400	0	300	300	645	50	0	1	1	blank2r.bmp	0	1	+	0	1	blank2r.bmp	492	1	BZZB	492	1	blank2r.bmp	572	2	spielen	866	1	!	1239	1	!	-1	0	0	0	0	0	0	0	0	0	0	0	0	0	0	0	0	0	0	0	0	0	0	0	0	0	0	0	0	0	0
071619	16:50:34	16:58:45	489928	5.0.10.0	5_exp_RW	59	Rpleas_acq	CS_B	BZZB	JXXJ	YDDY	MQQM	GWWG	VKKV	fair	spielen	schön	treu	ehrlich	retten	faul	strafen	schlecht	tot	eitel	rächen	1	acq_USpleas_CSpleas1_RW	acq4567_RW	4	9	400	0	300	300	681	50	0	1	1	blank2r.bmp	0	1	+	0	1	blank2r.bmp	492	1	BZZB	492	1	blank2r.bmp	572	3	schön	866	1	!	1239	1	!	-1	0	0	0	0	0	0	0	0	0	0	0	0	0	0	0	0	0	0	0	0	0	0	0	0	0	0	0	0	0	0
071619	16:50:34	16:58:47	492353	5.0.10.0	5_exp_RW	59	Rpleas_acq	CS_B	BZZB	JXXJ	YDDY	MQQM	GWWG	VKKV	fair	spielen	schön	treu	ehrlich	retten	faul	strafen	schlecht	tot	eitel	rächen	1	acq_USunple_CSunple2_RW	acq4567_RW	4	10	400	0	300	300	633	46	0	1	1	blank2r.bmp	0	1	+	0	1	blank2r.bmp	492	1	MQQM	492	1	blank2r.bmp	572	2	eitel	866	1	!	1239	1	!	-1	0	0	0	0	0	0	0	0	0	0	0	0	0	0	0	0	0	0	0	0	0	0	0	0	0	0	0	0	0	0
071619	16:50:34	16:58:50	494832	5.0.10.0	5_exp_RW	59	Rpleas_acq	CS_B	BZZB	JXXJ	YDDY	MQQM	GWWG	VKKV	fair	spielen	schön	treu	ehrlich	retten	faul	strafen	schlecht	tot	eitel	rächen	1	acq_USunple_CSunple1_RW	acq4567_RW	4	11	400	0	300	300	697	46	0	1	1	blank2r.bmp	0	1	+	0	1	blank2r.bmp	492	1	YDDY	492	1	blank2r.bmp	572	3	schlecht	866	1	!	1239	1	!	-1	0	0	0	0	0	0	0	0	0	0	0	0	0	0	0	0	0	0	0	0	0	0	0	0	0	0	0	0	0	0
071619	16:50:34	16:58:52	497085	5.0.10.0	5_exp_RW	59	Rpleas_acq	CS_B	BZZB	JXXJ	YDDY	MQQM	GWWG	VKKV	fair	spielen	schön	treu	ehrlich	retten	faul	strafen	schlecht	tot	eitel	rächen	1	acq_USunple_CSunple2_RW	acq4567_RW	4	12	400	1	300	300	446	46	0	1	1	blank2r.bmp	0	1	+	0	1	blank2r.bmp	492	1	MQQM	492	1	blank2r.bmp	572	3	rächen	866	1	!	1239	1	!	1346	0	0	0	0	0	0	0	0	0	0	0	0	0	0	0	0	0	0	0	0	0	0	0	0	0	0	0	0	0	0
071619	16:50:34	16:58:55	499777	5.0.10.0	5_exp_RW	59	Rpleas_acq	CS_B	BZZB	JXXJ	YDDY	MQQM	GWWG	VKKV	fair	spielen	schön	treu	ehrlich	retten	faul	strafen	schlecht	tot	eitel	rächen	1	acq_USpleas_CSpleas1_RW	acq4567_RW	4	13	400	0	300	300	919	50	0	1	1	blank2r.bmp	0	1	+	0	1	blank2r.bmp	492	1	BZZB	492	1	blank2r.bmp	572	1	fair	866	1	!	1239	1	!	-1	0	0	0	0	0	0	0	0	0	0	0	0	0	0	0	0	0	0	0	0	0	0	0	0	0	0	0	0	0	0
071619	16:50:34	16:58:57	502216	5.0.10.0	5_exp_RW	59	Rpleas_acq	CS_B	BZZB	JXXJ	YDDY	MQQM	GWWG	VKKV	fair	spielen	schön	treu	ehrlich	retten	faul	strafen	schlecht	tot	eitel	rächen	1	acq_USpleas_CSpleas2_RW	acq4567_RW	4	14	400	0	300	300	660	50	0	1	1	blank2r.bmp	0	1	+	0	1	blank2r.bmp	492	1	JXXJ	492	1	blank2r.bmp	572	1	treu	866	1	!	1239	1	!	-1	0	0	0	0	0	0	0	0	0	0	0	0	0	0	0	0	0	0	0	0	0	0	0	0	0	0	0	0	0	0
071619	16:50:34	16:59:00	504641	5.0.10.0	5_exp_RW	59	Rpleas_acq	CS_B	BZZB	JXXJ	YDDY	MQQM	GWWG	VKKV	fair	spielen	schön	treu	ehrlich	retten	faul	strafen	schlecht	tot	eitel	rächen	1	acq_USunple_CSunple2_RW	acq4567_RW	4	15	400	0	300	300	648	46	0	1	1	blank2r.bmp	0	1	+	0	1	blank2r.bmp	492	1	MQQM	492	1	blank2r.bmp	572	2	eitel	866	1	!	1239	1	!	-1	0	0	0	0	0	0	0	0	0	0	0	0	0	0	0	0	0	0	0	0	0	0	0	0	0	0	0	0	0	0
071619	16:50:34	16:59:02	507120	5.0.10.0	5_exp_RW	59	Rpleas_acq	CS_B	BZZB	JXXJ	YDDY	MQQM	GWWG	VKKV	fair	spielen	schön	treu	ehrlich	retten	faul	strafen	schlecht	tot	eitel	rächen	1	acq_USpleas_CSpleas1_RW	acq4567_RW	4	16	400	0	300	300	694	50	0	1	1	blank2r.bmp	0	1	+	0	1	blank2r.bmp	492	1	BZZB	492	1	blank2r.bmp	572	2	spielen	866	1	!	1239	1	!	-1	0	0	0	0	0	0	0	0	0	0	0	0	0	0	0	0	0	0	0	0	0	0	0	0	0	0	0	0	0	0
071619	16:50:34	16:59:05	509546	5.0.10.0	5_exp_RW	59	Rpleas_acq	CS_B	BZZB	JXXJ	YDDY	MQQM	GWWG	VKKV	fair	spielen	schön	treu	ehrlich	retten	faul	strafen	schlecht	tot	eitel	rächen	1	acq_USunple_CSunple1_RW	acq4567_RW	4	17	400	0	300	300	627	46	0	1	1	blank2r.bmp	0	1	+	0	1	blank2r.bmp	492	1	YDDY	492	1	blank2r.bmp	572	2	strafen	866	1	!	1239	1	!	-1	0	0	0	0	0	0	0	0	0	0	0	0	0	0	0	0	0	0	0	0	0	0	0	0	0	0	0	0	0	0
071619	16:50:34	16:59:07	511758	5.0.10.0	5_exp_RW	59	Rpleas_acq	CS_B	BZZB	JXXJ	YDDY	MQQM	GWWG	VKKV	fair	spielen	schön	treu	ehrlich	retten	faul	strafen	schlecht	tot	eitel	rächen	1	acq_USpleas_CSpleas2_RW	acq4567_RW	4	18	400	1	300	300	401	50	0	1	1	blank2r.bmp	0	1	+	0	1	blank2r.bmp	492	1	JXXJ	492	1	blank2r.bmp	572	2	ehrlich	866	1	!	1239	1	!	1306	0	0	0	0	0	0	0	0	0	0	0	0	0	0	0	0	0	0	0	0	0	0	0	0	0	0	0	0	0	0
071619	16:50:34	16:59:09	513998	5.0.10.0	5_exp_RW	59	Rpleas_acq	CS_B	BZZB	JXXJ	YDDY	MQQM	GWWG	VKKV	fair	spielen	schön	treu	ehrlich	retten	faul	strafen	schlecht	tot	eitel	rächen	1	acq_USpleas_CSpleas2_RW	acq4567_RW	4	19	400	1	300	300	451	50	0	1	1	blank2r.bmp	0	1	+	0	1	blank2r.bmp	492	1	JXXJ	492	1	blank2r.bmp	572	3	retten	866	1	!	1239	1	!	1346	0	0	0	0	0	0	0	0	0	0	0	0	0	0	0	0	0	0	0	0	0	0	0	0	0	0	0	0	0	0
071619	16:50:34	16:59:11	516157	5.0.10.0	5_exp_RW	59	Rpleas_acq	CS_B	BZZB	JXXJ	YDDY	MQQM	GWWG	VKKV	fair	spielen	schön	treu	ehrlich	retten	faul	strafen	schlecht	tot	eitel	rächen	1	acq_USunple_CSunple2_RW	acq4567_RW	4	20	400	1	300	300	355	46	0	1	1	blank2r.bmp	0	1	+	0	1	blank2r.bmp	492	1	MQQM	492	1	blank2r.bmp	572	1	tot	866	1	!	1239	1	!	1252	0	0	0	0	0	0	0	0	0	0	0	0	0	0	0	0	0	0	0	0	0	0	0	0	0	0	0	0	0	0
071619	16:50:34	16:59:14	518529	5.0.10.0	5_exp_RW	59	Rpleas_acq	CS_B	BZZB	JXXJ	YDDY	MQQM	GWWG	VKKV	fair	spielen	schön	treu	ehrlich	retten	faul	strafen	schlecht	tot	eitel	rächen	1	acq_USunple_CSunple2_RW	acq4567_RW	4	21	400	0	300	300	599	46	0	1	1	blank2r.bmp	0	1	+	0	1	blank2r.bmp	492	1	MQQM	492	1	blank2r.bmp	572	3	rächen	866	1	!	1239	1	!	-1	0	0	0	0	0	0	0	0	0	0	0	0	0	0	0	0	0	0	0	0	0	0	0	0	0	0	0	0	0	0
071619	16:50:34	16:59:16	520821	5.0.10.0	5_exp_RW	59	Rpleas_acq	CS_B	BZZB	JXXJ	YDDY	MQQM	GWWG	VKKV	fair	spielen	schön	treu	ehrlich	retten	faul	strafen	schlecht	tot	eitel	rächen	1	acq_USunple_CSunple1_RW	acq4567_RW	4	22	400	0	300	300	518	46	0	1	1	blank2r.bmp	0	1	+	0	1	blank2r.bmp	492	1	YDDY	492	1	blank2r.bmp	572	1	faul	866	1	!	1239	1	!	-1	0	0	0	0	0	0	0	0	0	0	0	0	0	0	0	0	0	0	0	0	0	0	0	0	0	0	0	0	0	0
071619	16:50:34	16:59:18	523207	5.0.10.0	5_exp_RW	59	Rpleas_acq	CS_B	BZZB	JXXJ	YDDY	MQQM	GWWG	VKKV	fair	spielen	schön	treu	ehrlich	retten	faul	strafen	schlecht	tot	eitel	rächen	1	acq_USpleas_CSpleas2_RW	acq4567_RW	4	23	400	0	300	300	609	50	0	1	1	blank2r.bmp	0	1	+	0	1	blank2r.bmp	492	1	JXXJ	492	1	blank2r.bmp	572	1	treu	866	1	!	1239	1	!	-1	0	0	0	0	0	0	0	0	0	0	0	0	0	0	0	0	0	0	0	0	0	0	0	0	0	0	0	0	0	0
071619	16:50:34	16:59:21	525499	5.0.10.0	5_exp_RW	59	Rpleas_acq	CS_B	BZZB	JXXJ	YDDY	MQQM	GWWG	VKKV	fair	spielen	schön	treu	ehrlich	retten	faul	strafen	schlecht	tot	eitel	rächen	1	acq_USpleas_CSpleas1_RW	acq4567_RW	4	24	400	0	300	300	518	50	0	1	1	blank2r.bmp	0	1	+	0	1	blank2r.bmp	492	1	BZZB	492	1	blank2r.bmp	572	2	spielen	866	1	!	1239	1	!	-1	0	0	0	0	0	0	0	0	0	0	0	0	0	0	0	0	0	0	0	0	0	0	0	0	0	0	0	0	0	0
071619	16:50:34	16:59:23	527858	5.0.10.0	5_exp_RW	59	Rpleas_acq	CS_B	BZZB	JXXJ	YDDY	MQQM	GWWG	VKKV	fair	spielen	schön	treu	ehrlich	retten	faul	strafen	schlecht	tot	eitel	rächen	1	acq_USpleas_CSpleas1_RW	acq4567_RW	4	25	400	0	300	300	580	50	0	1	1	blank2r.bmp	0	1	+	0	1	blank2r.bmp	492	1	BZZB	492	1	blank2r.bmp	572	1	fair	866	1	!	1239	1	!	-1	0	0	0	0	0	0	0	0	0	0	0	0	0	0	0	0	0	0	0	0	0	0	0	0	0	0	0	0	0	0
071619	16:50:34	16:59:25	530231	5.0.10.0	5_exp_RW	59	Rpleas_acq	CS_B	BZZB	JXXJ	YDDY	MQQM	GWWG	VKKV	fair	spielen	schön	treu	ehrlich	retten	faul	strafen	schlecht	tot	eitel	rächen	1	acq_USunple_CSunple1_RW	acq4567_RW	4	26	400	0	300	300	589	46	0	1	1	blank2r.bmp	0	1	+	0	1	blank2r.bmp	492	1	YDDY	492	1	blank2r.bmp	572	3	schlecht	866	1	!	1239	1	!	-1	0	0	0	0	0	0	0	0	0	0	0	0	0	0	0	0	0	0	0	0	0	0	0	0	0	0	0	0	0	0
071619	16:50:34	16:59:28	532510	5.0.10.0	5_exp_RW	59	Rpleas_acq	CS_B	BZZB	JXXJ	YDDY	MQQM	GWWG	VKKV	fair	spielen	schön	treu	ehrlich	retten	faul	strafen	schlecht	tot	eitel	rächen	1	acq_USunple_CSunple2_RW	acq4567_RW	4	27	400	0	300	300	502	46	0	1	1	blank2r.bmp	0	1	+	0	1	blank2r.bmp	492	1	MQQM	492	1	blank2r.bmp	572	1	tot	866	1	!	1239	1	!	-1	0	0	0	0	0	0	0	0	0	0	0	0	0	0	0	0	0	0	0	0	0	0	0	0	0	0	0	0	0	0
071619	16:50:34	16:59:30	534909	5.0.10.0	5_exp_RW	59	Rpleas_acq	CS_B	BZZB	JXXJ	YDDY	MQQM	GWWG	VKKV	fair	spielen	schön	treu	ehrlich	retten	faul	strafen	schlecht	tot	eitel	rächen	1	acq_USpleas_CSpleas2_RW	acq4567_RW	4	28	400	0	300	300	618	50	0	1	1	blank2r.bmp	0	1	+	0	1	blank2r.bmp	492	1	JXXJ	492	1	blank2r.bmp	572	2	ehrlich	866	1	!	1239	1	!	-1	0	0	0	0	0	0	0	0	0	0	0	0	0	0	0	0	0	0	0	0	0	0	0	0	0	0	0	0	0	0
071619	16:50:34	16:59:32	537348	5.0.10.0	5_exp_RW	59	Rpleas_acq	CS_B	BZZB	JXXJ	YDDY	MQQM	GWWG	VKKV	fair	spielen	schön	treu	ehrlich	retten	faul	strafen	schlecht	tot	eitel	rächen	1	acq_USunple_CSunple1_RW	acq4567_RW	4	29	400	0	300	300	653	46	0	1	1	blank2r.bmp	0	1	+	0	1	blank2r.bmp	492	1	YDDY	492	1	blank2r.bmp	572	2	strafen	866	1	!	1239	1	!	-1	0	0	0	0	0	0	0	0	0	0	0	0	0	0	0	0	0	0	0	0	0	0	0	0	0	0	0	0	0	0
071619	16:50:34	16:59:35	539614	5.0.10.0	5_exp_RW	59	Rpleas_acq	CS_B	BZZB	JXXJ	YDDY	MQQM	GWWG	VKKV	fair	spielen	schön	treu	ehrlich	retten	faul	strafen	schlecht	tot	eitel	rächen	1	acq_USpleas_CSpleas1_RW	acq4567_RW	4	30	400	0	300	300	480	50	0	1	1	blank2r.bmp	0	1	+	0	1	blank2r.bmp	492	1	BZZB	492	1	blank2r.bmp	572	3	schön	866	1	!	1239	1	!	-1	0	0	0	0	0	0	0	0	0	0	0	0	0	0	0	0	0	0	0	0	0	0	0	0	0	0	0	0	0	0
071619	16:50:34	16:59:37	541973	5.0.10.0	5_exp_RW	59	Rpleas_acq	CS_B	BZZB	JXXJ	YDDY	MQQM	GWWG	VKKV	fair	spielen	schön	treu	ehrlich	retten	faul	strafen	schlecht	tot	eitel	rächen	1	acq_USpleas_CSpleas2_RW	acq4567_RW	4	31	400	0	300	300	565	50	0	1	1	blank2r.bmp	0	1	+	0	1	blank2r.bmp	492	1	JXXJ	492	1	blank2r.bmp	572	3	retten	866	1	!	1239	1	!	-1	0	0	0	0	0	0	0	0	0	0	0	0	0	0	0	0	0	0	0	0	0	0	0	0	0	0	0	0	0	0
071619	16:50:34	16:59:39	544278	5.0.10.0	5_exp_RW	59	Rpleas_acq	CS_B	BZZB	JXXJ	YDDY	MQQM	GWWG	VKKV	fair	spielen	schön	treu	ehrlich	retten	faul	strafen	schlecht	tot	eitel	rächen	1	acq_USpleas_CSpleas2_RW	acq4567_RW	4	32	400	0	300	300	531	50	0	1	1	blank2r.bmp	0	1	+	0	1	blank2r.bmp	492	1	JXXJ	492	1	blank2r.bmp	572	1	treu	866	1	!	1239	1	!	-1	0	0	0	0	0	0	0	0	0	0	0	0	0	0	0	0	0	0	0	0	0	0	0	0	0	0	0	0	0	0
071619	16:50:34	16:59:42	546651	5.0.10.0	5_exp_RW	59	Rpleas_acq	CS_B	BZZB	JXXJ	YDDY	MQQM	GWWG	VKKV	fair	spielen	schön	treu	ehrlich	retten	faul	strafen	schlecht	tot	eitel	rächen	1	acq_USunple_CSunple2_RW	acq4567_RW	4	33	400	0	300	300	574	46	0	1	1	blank2r.bmp	0	1	+	0	1	blank2r.bmp	492	1	MQQM	492	1	blank2r.bmp	572	2	eitel	866	1	!	1239	1	!	-1	0	0	0	0	0	0	0	0	0	0	0	0	0	0	0	0	0	0	0	0	0	0	0	0	0	0	0	0	0	0
071619	16:50:34	16:59:44	549023	5.0.10.0	5_exp_RW	59	Rpleas_acq	CS_B	BZZB	JXXJ	YDDY	MQQM	GWWG	VKKV	fair	spielen	schön	treu	ehrlich	retten	faul	strafen	schlecht	tot	eitel	rächen	1	acq_USunple_CSunple2_RW	acq4567_RW	4	34	400	0	300	300	582	46	0	1	1	blank2r.bmp	0	1	+	0	1	blank2r.bmp	492	1	MQQM	492	1	blank2r.bmp	572	1	tot	866	1	!	1239	1	!	-1	0	0	0	0	0	0	0	0	0	0	0	0	0	0	0	0	0	0	0	0	0	0	0	0	0	0	0	0	0	0
071619	16:50:34	16:59:46	551329	5.0.10.0	5_exp_RW	59	Rpleas_acq	CS_B	BZZB	JXXJ	YDDY	MQQM	GWWG	VKKV	fair	spielen	schön	treu	ehrlich	retten	faul	strafen	schlecht	tot	eitel	rächen	1	acq_USunple_CSunple2_RW	acq4567_RW	4	35	400	0	300	300	529	46	0	1	1	blank2r.bmp	0	1	+	0	1	blank2r.bmp	492	1	MQQM	492	1	blank2r.bmp	572	2	eitel	866	1	!	1239	1	!	-1	0	0	0	0	0	0	0	0	0	0	0	0	0	0	0	0	0	0	0	0	0	0	0	0	0	0	0	0	0	0
071619	16:50:34	16:59:49	553981	5.0.10.0	5_exp_RW	59	Rpleas_acq	CS_B	BZZB	JXXJ	YDDY	MQQM	GWWG	VKKV	fair	spielen	schön	treu	ehrlich	retten	faul	strafen	schlecht	tot	eitel	rächen	1	acq_USpleas_CSpleas1_RW	acq4567_RW	4	36	400	0	300	300	853	50	0	1	1	blank2r.bmp	0	1	+	0	1	blank2r.bmp	492	1	BZZB	492	1	blank2r.bmp	572	1	fair	866	1	!	1239	1	!	-1	0	0	0	0	0	0	0	0	0	0	0	0	0	0	0	0	0	0	0	0	0	0	0	0	0	0	0	0	0	0
071619	16:50:34	16:59:51	556380	5.0.10.0	5_exp_RW	59	Rpleas_acq	CS_B	BZZB	JXXJ	YDDY	MQQM	GWWG	VKKV	fair	spielen	schön	treu	ehrlich	retten	faul	strafen	schlecht	tot	eitel	rächen	1	acq_USunple_CSunple1_RW	acq4567_RW	4	37	400	0	300	300	603	46	0	1	1	blank2r.bmp	0	1	+	0	1	blank2r.bmp	492	1	YDDY	492	1	blank2r.bmp	572	1	faul	866	1	!	1239	1	!	-1	0	0	0	0	0	0	0	0	0	0	0	0	0	0	0	0	0	0	0	0	0	0	0	0	0	0	0	0	0	0
071619	16:50:34	16:59:54	558712	5.0.10.0	5_exp_RW	59	Rpleas_acq	CS_B	BZZB	JXXJ	YDDY	MQQM	GWWG	VKKV	fair	spielen	schön	treu	ehrlich	retten	faul	strafen	schlecht	tot	eitel	rächen	1	acq_USpleas_CSpleas1_RW	acq4567_RW	4	38	400	0	300	300	547	50	0	1	1	blank2r.bmp	0	1	+	0	1	blank2r.bmp	492	1	BZZB	492	1	blank2r.bmp	572	3	schön	866	1	!	1239	1	!	-1	0	0	0	0	0	0	0	0	0	0	0	0	0	0	0	0	0	0	0	0	0	0	0	0	0	0	0	0	0	0
071619	16:50:34	16:59:56	561378	5.0.10.0	5_exp_RW	59	Rpleas_acq	CS_B	BZZB	JXXJ	YDDY	MQQM	GWWG	VKKV	fair	spielen	schön	treu	ehrlich	retten	faul	strafen	schlecht	tot	eitel	rächen	1	acq_USunple_CSunple1_RW	acq4567_RW	4	39	400	0	300	300	888	46	0	1	1	blank2r.bmp	0	1	+	0	1	blank2r.bmp	492	1	YDDY	492	1	blank2r.bmp	572	2	strafen	866	1	!	1239	1	!	-1	0	0	0	0	0	0	0	0	0	0	0	0	0	0	0	0	0	0	0	0	0	0	0	0	0	0	0	0	0	0
071619	16:50:34	16:59:59	563710	5.0.10.0	5_exp_RW	59	Rpleas_acq	CS_B	BZZB	JXXJ	YDDY	MQQM	GWWG	VKKV	fair	spielen	schön	treu	ehrlich	retten	faul	strafen	schlecht	tot	eitel	rächen	1	acq_USpleas_CSpleas2_RW	acq4567_RW	4	40	400	0	300	300	550	50	0	1	1	blank2r.bmp	0	1	+	0	1	blank2r.bmp	492	1	JXXJ	492	1	blank2r.bmp	572	2	ehrlich	866	1	!	1239	1	!	-1	0	0	0	0	0	0	0	0	0	0	0	0	0	0	0	0	0	0	0	0	0	0	0	0	0	0	0	0	0	0
071619	16:50:34	17:00:01	565976	5.0.10.0	5_exp_RW	59	Rpleas_acq	CS_B	BZZB	JXXJ	YDDY	MQQM	GWWG	VKKV	fair	spielen	schön	treu	ehrlich	retten	faul	strafen	schlecht	tot	eitel	rächen	1	acq_USunple_CSunple1_RW	acq4567_RW	4	41	400	0	300	300	488	46	0	1	1	blank2r.bmp	0	1	+	0	1	blank2r.bmp	492	1	YDDY	492	1	blank2r.bmp	572	3	schlecht	866	1	!	1239	1	!	-1	0	0	0	0	0	0	0	0	0	0	0	0	0	0	0	0	0	0	0	0	0	0	0	0	0	0	0	0	0	0
071619	16:50:34	17:00:04	568655	5.0.10.0	5_exp_RW	59	Rpleas_acq	CS_B	BZZB	JXXJ	YDDY	MQQM	GWWG	VKKV	fair	spielen	schön	treu	ehrlich	retten	faul	strafen	schlecht	tot	eitel	rächen	1	acq_USunple_CSunple1_RW	acq4567_RW	4	42	400	0	300	300	888	46	0	1	1	blank2r.bmp	0	1	+	0	1	blank2r.bmp	492	1	YDDY	492	1	blank2r.bmp	572	2	strafen	866	1	!	1239	1	!	-1	0	0	0	0	0	0	0	0	0	0	0	0	0	0	0	0	0	0	0	0	0	0	0	0	0	0	0	0	0	0
071619	16:50:34	17:00:06	570920	5.0.10.0	5_exp_RW	59	Rpleas_acq	CS_B	BZZB	JXXJ	YDDY	MQQM	GWWG	VKKV	fair	spielen	schön	treu	ehrlich	retten	faul	strafen	schlecht	tot	eitel	rächen	1	acq_USunple_CSunple1_RW	acq4567_RW	4	43	400	0	300	300	481	46	0	1	1	blank2r.bmp	0	1	+	0	1	blank2r.bmp	492	1	YDDY	492	1	blank2r.bmp	572	3	schlecht	866	1	!	1239	1	!	-1	0	0	0	0	0	0	0	0	0	0	0	0	0	0	0	0	0	0	0	0	0	0	0	0	0	0	0	0	0	0
071619	16:50:34	17:00:10	574705	5.0.10.0	5_exp_RW	59	Rpleas_acq	CS_B	BZZB	JXXJ	YDDY	MQQM	GWWG	VKKV	fair	spielen	schön	treu	ehrlich	retten	faul	strafen	schlecht	tot	eitel	rächen	1	acq_USpleas_CSpleas1_RW	acq4567_RW	4	44	400	0	300	300	2007	50	0	1	1	blank2r.bmp	0	1	+	0	1	blank2r.bmp	492	1	BZZB	492	1	blank2r.bmp	572	2	spielen	866	1	!	1239	1	!	-1	0	0	0	0	0	0	0	0	0	0	0	0	0	0	0	0	0	0	0	0	0	0	0	0	0	0	0	0	0	0
071619	16:50:34	17:00:12	577025	5.0.10.0	5_exp_RW	59	Rpleas_acq	CS_B	BZZB	JXXJ	YDDY	MQQM	GWWG	VKKV	fair	spielen	schön	treu	ehrlich	retten	faul	strafen	schlecht	tot	eitel	rächen	1	acq_USunple_CSunple2_RW	acq4567_RW	4	45	400	0	300	300	533	46	0	1	1	blank2r.bmp	0	1	+	0	1	blank2r.bmp	492	1	MQQM	492	1	blank2r.bmp	572	3	rächen	866	1	!	1239	1	!	-1	0	0	0	0	0	0	0	0	0	0	0	0	0	0	0	0	0	0	0	0	0	0	0	0	0	0	0	0	0	0
071619	16:50:34	17:00:15	579450	5.0.10.0	5_exp_RW	59	Rpleas_acq	CS_B	BZZB	JXXJ	YDDY	MQQM	GWWG	VKKV	fair	spielen	schön	treu	ehrlich	retten	faul	strafen	schlecht	tot	eitel	rächen	1	acq_USpleas_CSpleas2_RW	acq4567_RW	4	46	400	0	300	300	640	50	0	1	1	blank2r.bmp	0	1	+	0	1	blank2r.bmp	492	1	JXXJ	492	1	blank2r.bmp	572	3	retten	866	1	!	1239	1	!	-1	0	0	0	0	0	0	0	0	0	0	0	0	0	0	0	0	0	0	0	0	0	0	0	0	0	0	0	0	0	0
071619	16:50:34	17:00:17	581796	5.0.10.0	5_exp_RW	59	Rpleas_acq	CS_B	BZZB	JXXJ	YDDY	MQQM	GWWG	VKKV	fair	spielen	schön	treu	ehrlich	retten	faul	strafen	schlecht	tot	eitel	rächen	1	acq_USpleas_CSpleas1_RW	acq4567_RW	4	47	400	0	300	300	567	50	0	1	1	blank2r.bmp	0	1	+	0	1	blank2r.bmp	492	1	BZZB	492	1	blank2r.bmp	572	1	fair	866	1	!	1239	1	!	-1	0	0	0	0	0	0	0	0	0	0	0	0	0	0	0	0	0	0	0	0	0	0	0	0	0	0	0	0	0	0
071619	16:50:34	17:00:19	584075	5.0.10.0	5_exp_RW	59	Rpleas_acq	CS_B	BZZB	JXXJ	YDDY	MQQM	GWWG	VKKV	fair	spielen	schön	treu	ehrlich	retten	faul	strafen	schlecht	tot	eitel	rächen	1	acq_USpleas_CSpleas2_RW	acq4567_RW	4	48	400	0	300	300	480	50	0	1	1	blank2r.bmp	0	1	+	0	1	blank2r.bmp	492	1	JXXJ	492	1	blank2r.bmp	572	1	treu	866	1	!	1239	1	!	-1	0	0	0	0	0	0	0	0	0	0	0	0	0	0	0	0	0	0	0	0	0	0	0	0	0	0	0	0	0	0
071619	16:50:34	17:00:21	586141	5.0.10.0	5_exp_RW	59	Rpleas_acq	CS_B	BZZB	JXXJ	YDDY	MQQM	GWWG	VKKV	fair	spielen	schön	treu	ehrlich	retten	faul	strafen	schlecht	tot	eitel	rächen	1	acq_USunple_CSunple2_RW	acq4567_RW	4	49	400	0	300	300	287	46	0	1	1	blank2r.bmp	0	1	+	0	1	blank2r.bmp	492	1	MQQM	492	1	blank2r.bmp	572	1	tot	866	1	!	-1	1	!	-1	0	0	0	0	0	0	0	0	0	0	0	0	0	0	0	0	0	0	0	0	0	0	0	0	0	0	0	0	0	0
071619	16:50:34	17:00:24	588513	5.0.10.0	5_exp_RW	59	Rpleas_acq	CS_B	BZZB	JXXJ	YDDY	MQQM	GWWG	VKKV	fair	spielen	schön	treu	ehrlich	retten	faul	strafen	schlecht	tot	eitel	rächen	1	acq_USunple_CSunple2_RW	acq4567_RW	4	50	400	0	300	300	588	46	0	1	1	blank2r.bmp	0	1	+	0	1	blank2r.bmp	492	1	MQQM	492	1	blank2r.bmp	572	2	eitel	866	1	!	1239	1	!	-1	0	0	0	0	0	0	0	0	0	0	0	0	0	0	0	0	0	0	0	0	0	0	0	0	0	0	0	0	0	0
071619	16:50:34	17:00:26	591205	5.0.10.0	5_exp_RW	59	Rpleas_acq	CS_B	BZZB	JXXJ	YDDY	MQQM	GWWG	VKKV	fair	spielen	schön	treu	ehrlich	retten	faul	strafen	schlecht	tot	eitel	rächen	1	acq_USpleas_CSpleas2_RW	acq4567_RW	4	51	400	0	300	300	912	50	0	1	1	blank2r.bmp	0	1	+	0	1	blank2r.bmp	492	1	JXXJ	492	1	blank2r.bmp	572	2	ehrlich	866	1	!	1239	1	!	-1	0	0	0	0	0	0	0	0	0	0	0	0	0	0	0	0	0	0	0	0	0	0	0	0	0	0	0	0	0	0
071619	16:50:34	17:00:29	593591	5.0.10.0	5_exp_RW	59	Rpleas_acq	CS_B	BZZB	JXXJ	YDDY	MQQM	GWWG	VKKV	fair	spielen	schön	treu	ehrlich	retten	faul	strafen	schlecht	tot	eitel	rächen	1	acq_USpleas_CSpleas1_RW	acq4567_RW	4	52	400	0	300	300	610	50	0	1	1	blank2r.bmp	0	1	+	0	1	blank2r.bmp	492	1	BZZB	492	1	blank2r.bmp	572	2	spielen	866	1	!	1239	1	!	-1	0	0	0	0	0	0	0	0	0	0	0	0	0	0	0	0	0	0	0	0	0	0	0	0	0	0	0	0	0	0
071619	16:50:34	17:00:31	596097	5.0.10.0	5_exp_RW	59	Rpleas_acq	CS_B	BZZB	JXXJ	YDDY	MQQM	GWWG	VKKV	fair	spielen	schön	treu	ehrlich	retten	faul	strafen	schlecht	tot	eitel	rächen	1	acq_USunple_CSunple1_RW	acq4567_RW	4	53	400	0	300	300	727	50	0	0	1	blank2r.bmp	0	1	+	0	1	blank2r.bmp	492	1	YDDY	492	1	blank2r.bmp	572	1	faul	866	1	!	1239	1	!	-1	0	0	0	0	0	0	0	0	0	0	0	0	0	0	0	0	0	0	0	0	0	0	0	0	0	0	0	0	0	0
071619	16:50:34	17:00:34	598615	5.0.10.0	5_exp_RW	59	Rpleas_acq	CS_B	BZZB	JXXJ	YDDY	MQQM	GWWG	VKKV	fair	spielen	schön	treu	ehrlich	retten	faul	strafen	schlecht	tot	eitel	rächen	1	acq_USunple_CSunple2_RW	acq4567_RW	4	54	400	0	300	300	742	46	0	1	1	blank2r.bmp	0	1	+	0	1	blank2r.bmp	492	1	MQQM	492	1	blank2r.bmp	572	3	rächen	866	1	!	1239	1	!	-1	0	0	0	0	0	0	0	0	0	0	0	0	0	0	0	0	0	0	0	0	0	0	0	0	0	0	0	0	0	0
071619	16:50:34	17:00:36	601134	5.0.10.0	5_exp_RW	59	Rpleas_acq	CS_B	BZZB	JXXJ	YDDY	MQQM	GWWG	VKKV	fair	spielen	schön	treu	ehrlich	retten	faul	strafen	schlecht	tot	eitel	rächen	1	acq_USpleas_CSpleas1_RW	acq4567_RW	4	55	400	0	300	300	742	50	0	1	1	blank2r.bmp	0	1	+	0	1	blank2r.bmp	492	1	BZZB	492	1	blank2r.bmp	572	3	schön	866	1	!	1239	1	!	-1	0	0	0	0	0	0	0	0	0	0	0	0	0	0	0	0	0	0	0	0	0	0	0	0	0	0	0	0	0	0
071619	16:50:34	17:00:39	603667	5.0.10.0	5_exp_RW	59	Rpleas_acq	CS_B	BZZB	JXXJ	YDDY	MQQM	GWWG	VKKV	fair	spielen	schön	treu	ehrlich	retten	faul	strafen	schlecht	tot	eitel	rächen	1	acq_USpleas_CSpleas2_RW	acq4567_RW	4	56	400	0	300	300	749	50	0	1	1	blank2r.bmp	0	1	+	0	1	blank2r.bmp	492	1	JXXJ	492	1	blank2r.bmp	572	3	retten	866	1	!	1239	1	!	-1	0	0	0	0	0	0	0	0	0	0	0	0	0	0	0	0	0	0	0	0	0	0	0	0	0	0	0	0	0	0
071619	16:50:34	17:00:41	606039	5.0.10.0	5_exp_RW	59	Rpleas_acq	CS_B	BZZB	JXXJ	YDDY	MQQM	GWWG	VKKV	fair	spielen	schön	treu	ehrlich	retten	faul	strafen	schlecht	tot	eitel	rächen	1	acq_USunple_CSunple2_RW	acq4567_RW	4	57	400	0	300	300	584	46	0	1	1	blank2r.bmp	0	1	+	0	1	blank2r.bmp	492	1	MQQM	492	1	blank2r.bmp	572	2	eitel	866	1	!	1239	1	!	-1	0	0	0	0	0	0	0	0	0	0	0	0	0	0	0	0	0	0	0	0	0	0	0	0	0	0	0	0	0	0
071619	16:50:34	17:00:44	608811	5.0.10.0	5_exp_RW	59	Rpleas_acq	CS_B	BZZB	JXXJ	YDDY	MQQM	GWWG	VKKV	fair	spielen	schön	treu	ehrlich	retten	faul	strafen	schlecht	tot	eitel	rächen	1	acq_USpleas_CSpleas1_RW	acq4567_RW	4	58	400	0	300	300	983	50	0	1	1	blank2r.bmp	0	1	+	0	1	blank2r.bmp	492	1	BZZB	492	1	blank2r.bmp	572	1	fair	866	1	!	1239	1	!	-1	0	0	0	0	0	0	0	0	0	0	0	0	0	0	0	0	0	0	0	0	0	0	0	0	0	0	0	0	0	0
071619	16:50:34	17:00:46	611277	5.0.10.0	5_exp_RW	59	Rpleas_acq	CS_B	BZZB	JXXJ	YDDY	MQQM	GWWG	VKKV	fair	spielen	schön	treu	ehrlich	retten	faul	strafen	schlecht	tot	eitel	rächen	1	acq_USpleas_CSpleas2_RW	acq4567_RW	4	59	400	0	300	300	683	50	0	1	1	blank2r.bmp	0	1	+	0	1	blank2r.bmp	492	1	JXXJ	492	1	blank2r.bmp	572	3	retten	866	1	!	1239	1	!	-1	0	0	0	0	0	0	0	0	0	0	0	0	0	0	0	0	0	0	0	0	0	0	0	0	0	0	0	0	0	0
071619	16:50:34	17:00:49	613583	5.0.10.0	5_exp_RW	59	Rpleas_acq	CS_B	BZZB	JXXJ	YDDY	MQQM	GWWG	VKKV	fair	spielen	schön	treu	ehrlich	retten	faul	strafen	schlecht	tot	eitel	rächen	1	acq_USunple_CSunple1_RW	acq4567_RW	4	60	400	0	300	300	528	46	0	1	1	blank2r.bmp	0	1	+	0	1	blank2r.bmp	492	1	YDDY	492	1	blank2r.bmp	572	2	strafen	866	1	!	1239	1	!	-1	0	0	0	0	0	0	0	0	0	0	0	0	0	0	0	0	0	0	0	0	0	0	0	0	0	0	0	0	0	0
071619	16:50:34	17:00:51	616115	5.0.10.0	5_exp_RW	59	Rpleas_acq	CS_B	BZZB	JXXJ	YDDY	MQQM	GWWG	VKKV	fair	spielen	schön	treu	ehrlich	retten	faul	strafen	schlecht	tot	eitel	rächen	1	acq_USpleas_CSpleas2_RW	acq4567_RW	4	61	400	0	300	300	750	50	0	1	1	blank2r.bmp	0	1	+	0	1	blank2r.bmp	492	1	JXXJ	492	1	blank2r.bmp	572	2	ehrlich	866	1	!	1239	1	!	-1	0	0	0	0	0	0	0	0	0	0	0	0	0	0	0	0	0	0	0	0	0	0	0	0	0	0	0	0	0	0
071619	16:50:34	17:00:54	618554	5.0.10.0	5_exp_RW	59	Rpleas_acq	CS_B	BZZB	JXXJ	YDDY	MQQM	GWWG	VKKV	fair	spielen	schön	treu	ehrlich	retten	faul	strafen	schlecht	tot	eitel	rächen	1	acq_USunple_CSunple2_RW	acq4567_RW	4	62	400	0	300	300	644	46	0	1	1	blank2r.bmp	0	1	+	0	1	blank2r.bmp	492	1	MQQM	492	1	blank2r.bmp	572	1	tot	866	1	!	1239	1	!	-1	0	0	0	0	0	0	0	0	0	0	0	0	0	0	0	0	0	0	0	0	0	0	0	0	0	0	0	0	0	0
071619	16:50:34	17:00:56	621139	5.0.10.0	5_exp_RW	59	Rpleas_acq	CS_B	BZZB	JXXJ	YDDY	MQQM	GWWG	VKKV	fair	spielen	schön	treu	ehrlich	retten	faul	strafen	schlecht	tot	eitel	rächen	1	acq_USpleas_CSpleas1_RW	acq4567_RW	4	63	400	0	300	300	810	50	0	1	1	blank2r.bmp	0	1	+	0	1	blank2r.bmp	492	1	BZZB	492	1	blank2r.bmp	572	2	spielen	866	1	!	1239	1	!	-1	0	0	0	0	0	0	0	0	0	0	0	0	0	0	0	0	0	0	0	0	0	0	0	0	0	0	0	0	0	0
071619	16:50:34	17:00:59	623645	5.0.10.0	5_exp_RW	59	Rpleas_acq	CS_B	BZZB	JXXJ	YDDY	MQQM	GWWG	VKKV	fair	spielen	schön	treu	ehrlich	retten	faul	strafen	schlecht	tot	eitel	rächen	1	acq_USunple_CSunple2_RW	acq4567_RW	4	64	400	0	300	300	711	46	0	1	1	blank2r.bmp	0	1	+	0	1	blank2r.bmp	492	1	MQQM	492	1	blank2r.bmp	572	3	rächen	866	1	!	1239	1	!	-1	0	0	0	0	0	0	0	0	0	0	0	0	0	0	0	0	0	0	0	0	0	0	0	0	0	0	0	0	0	0
071619	16:50:34	17:01:01	626337	5.0.10.0	5_exp_RW	59	Rpleas_acq	CS_B	BZZB	JXXJ	YDDY	MQQM	GWWG	VKKV	fair	spielen	schön	treu	ehrlich	retten	faul	strafen	schlecht	tot	eitel	rächen	1	acq_USpleas_CSpleas1_RW	acq4567_RW	4	65	400	0	300	300	908	50	0	1	1	blank2r.bmp	0	1	+	0	1	blank2r.bmp	492	1	BZZB	492	1	blank2r.bmp	572	3	schön	866	1	!	1239	1	!	-1	0	0	0	0	0	0	0	0	0	0	0	0	0	0	0	0	0	0	0	0	0	0	0	0	0	0	0	0	0	0
071619	16:50:34	17:01:04	628936	5.0.10.0	5_exp_RW	59	Rpleas_acq	CS_B	BZZB	JXXJ	YDDY	MQQM	GWWG	VKKV	fair	spielen	schön	treu	ehrlich	retten	faul	strafen	schlecht	tot	eitel	rächen	1	acq_USunple_CSunple2_RW	acq4567_RW	4	66	400	0	300	300	822	46	0	1	1	blank2r.bmp	0	1	+	0	1	blank2r.bmp	492	1	MQQM	492	1	blank2r.bmp	572	2	eitel	866	1	!	1239	1	!	-1	0	0	0	0	0	0	0	0	0	0	0	0	0	0	0	0	0	0	0	0	0	0	0	0	0	0	0	0	0	0
071619	16:50:34	17:01:07	631828	5.0.10.0	5_exp_RW	59	Rpleas_acq	CS_B	BZZB	JXXJ	YDDY	MQQM	GWWG	VKKV	fair	spielen	schön	treu	ehrlich	retten	faul	strafen	schlecht	tot	eitel	rächen	1	acq_USpleas_CSpleas2_RW	acq4567_RW	4	67	400	0	300	300	1112	50	0	1	1	blank2r.bmp	0	1	+	0	1	blank2r.bmp	492	1	JXXJ	492	1	blank2r.bmp	572	1	treu	866	1	!	1239	1	!	-1	0	0	0	0	0	0	0	0	0	0	0	0	0	0	0	0	0	0	0	0	0	0	0	0	0	0	0	0	0	0
071619	16:50:34	17:01:10	634574	5.0.10.0	5_exp_RW	59	Rpleas_acq	CS_B	BZZB	JXXJ	YDDY	MQQM	GWWG	VKKV	fair	spielen	schön	treu	ehrlich	retten	faul	strafen	schlecht	tot	eitel	rächen	1	acq_USpleas_CSpleas1_RW	acq4567_RW	4	68	400	0	300	300	968	50	0	1	1	blank2r.bmp	0	1	+	0	1	blank2r.bmp	492	1	BZZB	492	1	blank2r.bmp	572	1	fair	866	1	!	1239	1	!	-1	0	0	0	0	0	0	0	0	0	0	0	0	0	0	0	0	0	0	0	0	0	0	0	0	0	0	0	0	0	0
071619	16:50:34	17:01:13	637506	5.0.10.0	5_exp_RW	59	Rpleas_acq	CS_B	BZZB	JXXJ	YDDY	MQQM	GWWG	VKKV	fair	spielen	schön	treu	ehrlich	retten	faul	strafen	schlecht	tot	eitel	rächen	1	acq_USunple_CSunple1_RW	acq4567_RW	4	69	400	0	300	300	1145	46	0	1	1	blank2r.bmp	0	1	+	0	1	blank2r.bmp	492	1	YDDY	492	1	blank2r.bmp	572	3	schlecht	866	1	!	1239	1	!	-1	0	0	0	0	0	0	0	0	0	0	0	0	0	0	0	0	0	0	0	0	0	0	0	0	0	0	0	0	0	0
071619	16:50:34	17:01:15	640131	5.0.10.0	5_exp_RW	59	Rpleas_acq	CS_B	BZZB	JXXJ	YDDY	MQQM	GWWG	VKKV	fair	spielen	schön	treu	ehrlich	retten	faul	strafen	schlecht	tot	eitel	rächen	1	acq_USunple_CSunple1_RW	acq4567_RW	4	70	400	0	300	300	847	46	0	1	1	blank2r.bmp	0	1	+	0	1	blank2r.bmp	492	1	YDDY	492	1	blank2r.bmp	572	1	faul	866	1	!	1239	1	!	-1	0	0	0	0	0	0	0	0	0	0	0	0	0	0	0	0	0	0	0	0	0	0	0	0	0	0	0	0	0	0
071619	16:50:34	17:01:18	642477	5.0.10.0	5_exp_RW	59	Rpleas_acq	CS_B	BZZB	JXXJ	YDDY	MQQM	GWWG	VKKV	fair	spielen	schön	treu	ehrlich	retten	faul	strafen	schlecht	tot	eitel	rächen	1	acq_USpleas_CSpleas2_RW	acq4567_RW	4	71	400	0	300	300	559	50	0	1	1	blank2r.bmp	0	1	+	0	1	blank2r.bmp	492	1	JXXJ	492	1	blank2r.bmp	572	1	treu	866	1	!	1239	1	!	-1	0	0	0	0	0	0	0	0	0	0	0	0	0	0	0	0	0	0	0	0	0	0	0	0	0	0	0	0	0	0
071619	16:50:34	17:01:20	645356	5.0.10.0	5_exp_RW	59	Rpleas_acq	CS_B	BZZB	JXXJ	YDDY	MQQM	GWWG	VKKV	fair	spielen	schön	treu	ehrlich	retten	faul	strafen	schlecht	tot	eitel	rächen	1	acq_USunple_CSunple1_RW	acq4567_RW	4	72	400	0	300	300	1092	46	0	1	1	blank2r.bmp	0	1	+	0	1	blank2r.bmp	492	1	YDDY	492	1	blank2r.bmp	572	2	strafen	866	1	!	1239	1	!	-1	0	0	0	0	0	0	0	0	0	0	0	0	0	0	0	0	0	0	0	0	0	0	0	0	0	0	0	0	0	0
071619	16:50:34	17:01:23	647715	5.0.10.0	5_exp_RW	59	Rpleas_acq	CS_B	BZZB	JXXJ	YDDY	MQQM	GWWG	VKKV	fair	spielen	schön	treu	ehrlich	retten	faul	strafen	schlecht	tot	eitel	rächen	1	acq_USpleas_CSpleas1_RW	acq4567_RW	4	73	400	0	300	300	572	50	0	1	1	blank2r.bmp	0	1	+	0	1	blank2r.bmp	492	1	BZZB	492	1	blank2r.bmp	572	2	spielen	866	1	!	1239	1	!	-1	0	0	0	0	0	0	0	0	0	0	0	0	0	0	0	0	0	0	0	0	0	0	0	0	0	0	0	0	0	0
071619	16:50:34	17:01:25	650354	5.0.10.0	5_exp_RW	59	Rpleas_acq	CS_B	BZZB	JXXJ	YDDY	MQQM	GWWG	VKKV	fair	spielen	schön	treu	ehrlich	retten	faul	strafen	schlecht	tot	eitel	rächen	1	acq_USunple_CSunple1_RW	acq4567_RW	4	74	400	0	300	300	861	46	0	1	1	blank2r.bmp	0	1	+	0	1	blank2r.bmp	492	1	YDDY	492	1	blank2r.bmp	572	1	faul	866	1	!	1239	1	!	-1	0	0	0	0	0	0	0	0	0	0	0	0	0	0	0	0	0	0	0	0	0	0	0	0	0	0	0	0	0	0
071619	16:50:34	17:01:28	652700	5.0.10.0	5_exp_RW	59	Rpleas_acq	CS_B	BZZB	JXXJ	YDDY	MQQM	GWWG	VKKV	fair	spielen	schön	treu	ehrlich	retten	faul	strafen	schlecht	tot	eitel	rächen	1	acq_USpleas_CSpleas2_RW	acq4567_RW	4	75	400	0	300	300	559	50	0	1	1	blank2r.bmp	0	1	+	0	1	blank2r.bmp	492	1	JXXJ	492	1	blank2r.bmp	572	3	retten	866	1	!	1239	1	!	-1	0	0	0	0	0	0	0	0	0	0	0	0	0	0	0	0	0	0	0	0	0	0	0	0	0	0	0	0	0	0
071619	16:50:34	17:01:30	655205	5.0.10.0	5_exp_RW	59	Rpleas_acq	CS_B	BZZB	JXXJ	YDDY	MQQM	GWWG	VKKV	fair	spielen	schön	treu	ehrlich	retten	faul	strafen	schlecht	tot	eitel	rächen	1	acq_USpleas_CSpleas1_RW	acq4567_RW	4	76	400	0	300	300	718	50	0	1	1	blank2r.bmp	0	1	+	0	1	blank2r.bmp	492	1	BZZB	492	1	blank2r.bmp	572	3	schön	866	1	!	1239	1	!	-1	0	0	0	0	0	0	0	0	0	0	0	0	0	0	0	0	0	0	0	0	0	0	0	0	0	0	0	0	0	0
071619	16:50:34	17:01:33	657644	5.0.10.0	5_exp_RW	59	Rpleas_acq	CS_B	BZZB	JXXJ	YDDY	MQQM	GWWG	VKKV	fair	spielen	schön	treu	ehrlich	retten	faul	strafen	schlecht	tot	eitel	rächen	1	acq_USpleas_CSpleas2_RW	acq4567_RW	4	77	400	0	300	300	661	50	0	1	1	blank2r.bmp	0	1	+	0	1	blank2r.bmp	492	1	JXXJ	492	1	blank2r.bmp	572	2	ehrlich	866	1	!	1239	1	!	-1	0	0	0	0	0	0	0	0	0	0	0	0	0	0	0	0	0	0	0	0	0	0	0	0	0	0	0	0	0	0
071619	16:50:34	17:01:35	660096	5.0.10.0	5_exp_RW	59	Rpleas_acq	CS_B	BZZB	JXXJ	YDDY	MQQM	GWWG	VKKV	fair	spielen	schön	treu	ehrlich	retten	faul	strafen	schlecht	tot	eitel	rächen	1	acq_USunple_CSunple2_RW	acq4567_RW	4	78	400	0	300	300	677	46	0	1	1	blank2r.bmp	0	1	+	0	1	blank2r.bmp	492	1	MQQM	492	1	blank2r.bmp	572	3	rächen	866	1	!	1239	1	!	-1	0	0	0	0	0	0	0	0	0	0	0	0	0	0	0	0	0	0	0	0	0	0	0	0	0	0	0	0	0	0
071619	16:50:34	17:01:38	662762	5.0.10.0	5_exp_RW	59	Rpleas_acq	CS_B	BZZB	JXXJ	YDDY	MQQM	GWWG	VKKV	fair	spielen	schön	treu	ehrlich	retten	faul	strafen	schlecht	tot	eitel	rächen	1	acq_USunple_CSunple2_RW	acq4567_RW	4	79	400	0	300	300	878	46	0	1	1	blank2r.bmp	0	1	+	0	1	blank2r.bmp	492	1	MQQM	492	1	blank2r.bmp	572	1	tot	866	1	!	1239	1	!	-1	0	0	0	0	0	0	0	0	0	0	0	0	0	0	0	0	0	0	0	0	0	0	0	0	0	0	0	0	0	0
071619	16:50:34	17:01:40	665134	5.0.10.0	5_exp_RW	59	Rpleas_acq	CS_B	BZZB	JXXJ	YDDY	MQQM	GWWG	VKKV	fair	spielen	schön	treu	ehrlich	retten	faul	strafen	schlecht	tot	eitel	rächen	1	acq_USunple_CSunple1_RW	acq4567_RW	4	80	400	0	300	300	592	46	0	1	1	blank2r.bmp	0	1	+	0	1	blank2r.bmp	492	1	YDDY	492	1	blank2r.bmp	572	3	schlecht	866	1	!	1239	1	!	-1	0	0	0	0	0	0	0	0	0	0	0	0	0	0	0	0	0	0	0	0	0	0	0	0	0	0	0	0	0	0
071619	16:50:34	17:02:00	685179	5.0.10.0	5_exp_RW	59	Rpleas_acq	CS_B	BZZB	JXXJ	YDDY	MQQM	GWWG	VKKV	fair	spielen	schön	treu	ehrlich	retten	faul	strafen	schlecht	tot	eitel	rächen	1	acq_USunple_CSunple2_RW	acq4567_RW	5	1	400	0	300	300	3009	46	0	1	1	blank2r.bmp	0	1	+	0	1	blank2r.bmp	492	1	MQQM	492	1	blank2r.bmp	572	1	tot	866	1	!	1239	1	!	-1	0	0	0	0	0	0	0	0	0	0	0	0	0	0	0	0	0	0	0	0	0	0	0	0	0	0	0	0	0	0
071619	16:50:34	17:02:03	687605	5.0.10.0	5_exp_RW	59	Rpleas_acq	CS_B	BZZB	JXXJ	YDDY	MQQM	GWWG	VKKV	fair	spielen	schön	treu	ehrlich	retten	faul	strafen	schlecht	tot	eitel	rächen	1	acq_USunple_CSunple2_RW	acq4567_RW	5	2	400	0	300	300	642	46	0	1	1	blank2r.bmp	0	1	+	0	1	blank2r.bmp	492	1	MQQM	492	1	blank2r.bmp	572	3	rächen	866	1	!	1239	1	!	-1	0	0	0	0	0	0	0	0	0	0	0	0	0	0	0	0	0	0	0	0	0	0	0	0	0	0	0	0	0	0
071619	16:50:34	17:02:05	690004	5.0.10.0	5_exp_RW	59	Rpleas_acq	CS_B	BZZB	JXXJ	YDDY	MQQM	GWWG	VKKV	fair	spielen	schön	treu	ehrlich	retten	faul	strafen	schlecht	tot	eitel	rächen	1	acq_USunple_CSunple2_RW	acq4567_RW	5	3	400	0	300	300	620	46	0	1	1	blank2r.bmp	0	1	+	0	1	blank2r.bmp	492	1	MQQM	492	1	blank2r.bmp	572	2	eitel	866	1	!	1239	1	!	-1	0	0	0	0	0	0	0	0	0	0	0	0	0	0	0	0	0	0	0	0	0	0	0	0	0	0	0	0	0	0
071619	16:50:34	17:02:07	692270	5.0.10.0	5_exp_RW	59	Rpleas_acq	CS_B	BZZB	JXXJ	YDDY	MQQM	GWWG	VKKV	fair	spielen	schön	treu	ehrlich	retten	faul	strafen	schlecht	tot	eitel	rächen	1	acq_USpleas_CSpleas2_RW	acq4567_RW	5	4	400	0	300	300	479	50	0	1	1	blank2r.bmp	0	1	+	0	1	blank2r.bmp	492	1	JXXJ	492	1	blank2r.bmp	572	2	ehrlich	866	1	!	1239	1	!	-1	0	0	0	0	0	0	0	0	0	0	0	0	0	0	0	0	0	0	0	0	0	0	0	0	0	0	0	0	0	0
071619	16:50:34	17:02:10	694722	5.0.10.0	5_exp_RW	59	Rpleas_acq	CS_B	BZZB	JXXJ	YDDY	MQQM	GWWG	VKKV	fair	spielen	schön	treu	ehrlich	retten	faul	strafen	schlecht	tot	eitel	rächen	1	acq_USunple_CSunple1_RW	acq4567_RW	5	5	400	0	300	300	667	46	0	1	1	blank2r.bmp	0	1	+	0	1	blank2r.bmp	492	1	YDDY	492	1	blank2r.bmp	572	2	strafen	866	1	!	1239	1	!	-1	0	0	0	0	0	0	0	0	0	0	0	0	0	0	0	0	0	0	0	0	0	0	0	0	0	0	0	0	0	0
071619	16:50:34	17:02:12	697108	5.0.10.0	5_exp_RW	59	Rpleas_acq	CS_B	BZZB	JXXJ	YDDY	MQQM	GWWG	VKKV	fair	spielen	schön	treu	ehrlich	retten	faul	strafen	schlecht	tot	eitel	rächen	1	acq_USpleas_CSpleas1_RW	acq4567_RW	5	6	400	0	300	300	589	50	0	1	1	blank2r.bmp	0	1	+	0	1	blank2r.bmp	492	1	BZZB	492	1	blank2r.bmp	572	3	schön	866	1	!	1239	1	!	-1	0	0	0	0	0	0	0	0	0	0	0	0	0	0	0	0	0	0	0	0	0	0	0	0	0	0	0	0	0	0
071619	16:50:34	17:02:15	699547	5.0.10.0	5_exp_RW	59	Rpleas_acq	CS_B	BZZB	JXXJ	YDDY	MQQM	GWWG	VKKV	fair	spielen	schön	treu	ehrlich	retten	faul	strafen	schlecht	tot	eitel	rächen	1	acq_USunple_CSunple1_RW	acq4567_RW	5	7	400	0	300	300	655	46	0	1	1	blank2r.bmp	0	1	+	0	1	blank2r.bmp	492	1	YDDY	492	1	blank2r.bmp	572	3	schlecht	866	1	!	1239	1	!	-1	0	0	0	0	0	0	0	0	0	0	0	0	0	0	0	0	0	0	0	0	0	0	0	0	0	0	0	0	0	0
071619	16:50:34	17:02:17	701959	5.0.10.0	5_exp_RW	59	Rpleas_acq	CS_B	BZZB	JXXJ	YDDY	MQQM	GWWG	VKKV	fair	spielen	schön	treu	ehrlich	retten	faul	strafen	schlecht	tot	eitel	rächen	1	acq_USpleas_CSpleas2_RW	acq4567_RW	5	8	400	0	300	300	633	50	0	1	1	blank2r.bmp	0	1	+	0	1	blank2r.bmp	492	1	JXXJ	492	1	blank2r.bmp	572	1	treu	866	1	!	1239	1	!	-1	0	0	0	0	0	0	0	0	0	0	0	0	0	0	0	0	0	0	0	0	0	0	0	0	0	0	0	0	0	0
071619	16:50:34	17:02:20	704558	5.0.10.0	5_exp_RW	59	Rpleas_acq	CS_B	BZZB	JXXJ	YDDY	MQQM	GWWG	VKKV	fair	spielen	schön	treu	ehrlich	retten	faul	strafen	schlecht	tot	eitel	rächen	1	acq_USpleas_CSpleas2_RW	acq4567_RW	5	9	400	0	300	300	817	50	0	1	1	blank2r.bmp	0	1	+	0	1	blank2r.bmp	492	1	JXXJ	492	1	blank2r.bmp	572	3	retten	866	1	!	1239	1	!	-1	0	0	0	0	0	0	0	0	0	0	0	0	0	0	0	0	0	0	0	0	0	0	0	0	0	0	0	0	0	0
071619	16:50:34	17:02:22	706837	5.0.10.0	5_exp_RW	59	Rpleas_acq	CS_B	BZZB	JXXJ	YDDY	MQQM	GWWG	VKKV	fair	spielen	schön	treu	ehrlich	retten	faul	strafen	schlecht	tot	eitel	rächen	1	acq_USpleas_CSpleas1_RW	acq4567_RW	5	10	400	0	300	300	497	50	0	1	1	blank2r.bmp	0	1	+	0	1	blank2r.bmp	492	1	BZZB	492	1	blank2r.bmp	572	2	spielen	866	1	!	1239	1	!	-1	0	0	0	0	0	0	0	0	0	0	0	0	0	0	0	0	0	0	0	0	0	0	0	0	0	0	0	0	0	0
071619	16:50:34	17:02:24	709223	5.0.10.0	5_exp_RW	59	Rpleas_acq	CS_B	BZZB	JXXJ	YDDY	MQQM	GWWG	VKKV	fair	spielen	schön	treu	ehrlich	retten	faul	strafen	schlecht	tot	eitel	rächen	1	acq_USunple_CSunple2_RW	acq4567_RW	5	11	400	0	300	300	610	46	0	1	1	blank2r.bmp	0	1	+	0	1	blank2r.bmp	492	1	MQQM	492	1	blank2r.bmp	572	2	eitel	866	1	!	1239	1	!	-1	0	0	0	0	0	0	0	0	0	0	0	0	0	0	0	0	0	0	0	0	0	0	0	0	0	0	0	0	0	0
071619	16:50:34	17:02:27	711435	5.0.10.0	5_exp_RW	59	Rpleas_acq	CS_B	BZZB	JXXJ	YDDY	MQQM	GWWG	VKKV	fair	spielen	schön	treu	ehrlich	retten	faul	strafen	schlecht	tot	eitel	rächen	1	acq_USunple_CSunple2_RW	acq4567_RW	5	12	400	1	300	300	403	46	0	1	1	blank2r.bmp	0	1	+	0	1	blank2r.bmp	492	1	MQQM	492	1	blank2r.bmp	572	1	tot	866	1	!	1239	1	!	1306	0	0	0	0	0	0	0	0	0	0	0	0	0	0	0	0	0	0	0	0	0	0	0	0	0	0	0	0	0	0
071619	16:50:34	17:02:29	713767	5.0.10.0	5_exp_RW	59	Rpleas_acq	CS_B	BZZB	JXXJ	YDDY	MQQM	GWWG	VKKV	fair	spielen	schön	treu	ehrlich	retten	faul	strafen	schlecht	tot	eitel	rächen	1	acq_USunple_CSunple1_RW	acq4567_RW	5	13	400	0	300	300	558	46	0	1	1	blank2r.bmp	0	1	+	0	1	blank2r.bmp	492	1	YDDY	492	1	blank2r.bmp	572	1	faul	866	1	!	1239	1	!	-1	0	0	0	0	0	0	0	0	0	0	0	0	0	0	0	0	0	0	0	0	0	0	0	0	0	0	0	0	0	0
071619	16:50:34	17:02:31	716246	5.0.10.0	5_exp_RW	59	Rpleas_acq	CS_B	BZZB	JXXJ	YDDY	MQQM	GWWG	VKKV	fair	spielen	schön	treu	ehrlich	retten	faul	strafen	schlecht	tot	eitel	rächen	1	acq_USpleas_CSpleas2_RW	acq4567_RW	5	14	400	0	300	300	691	50	0	1	1	blank2r.bmp	0	1	+	0	1	blank2r.bmp	492	1	JXXJ	492	1	blank2r.bmp	572	2	ehrlich	866	1	!	1239	1	!	-1	0	0	0	0	0	0	0	0	0	0	0	0	0	0	0	0	0	0	0	0	0	0	0	0	0	0	0	0	0	0
071619	16:50:34	17:02:34	718605	5.0.10.0	5_exp_RW	59	Rpleas_acq	CS_B	BZZB	JXXJ	YDDY	MQQM	GWWG	VKKV	fair	spielen	schön	treu	ehrlich	retten	faul	strafen	schlecht	tot	eitel	rächen	1	acq_USpleas_CSpleas2_RW	acq4567_RW	5	15	400	0	300	300	581	50	0	1	1	blank2r.bmp	0	1	+	0	1	blank2r.bmp	492	1	JXXJ	492	1	blank2r.bmp	572	3	retten	866	1	!	1239	1	!	-1	0	0	0	0	0	0	0	0	0	0	0	0	0	0	0	0	0	0	0	0	0	0	0	0	0	0	0	0	0	0
071619	16:50:34	17:02:36	721164	5.0.10.0	5_exp_RW	59	Rpleas_acq	CS_B	BZZB	JXXJ	YDDY	MQQM	GWWG	VKKV	fair	spielen	schön	treu	ehrlich	retten	faul	strafen	schlecht	tot	eitel	rächen	1	acq_USunple_CSunple1_RW	acq4567_RW	5	16	400	0	300	300	777	46	0	1	1	blank2r.bmp	0	1	+	0	1	blank2r.bmp	492	1	YDDY	492	1	blank2r.bmp	572	2	strafen	866	1	!	1239	1	!	-1	0	0	0	0	0	0	0	0	0	0	0	0	0	0	0	0	0	0	0	0	0	0	0	0	0	0	0	0	0	0
071619	16:50:34	17:02:39	723683	5.0.10.0	5_exp_RW	59	Rpleas_acq	CS_B	BZZB	JXXJ	YDDY	MQQM	GWWG	VKKV	fair	spielen	schön	treu	ehrlich	retten	faul	strafen	schlecht	tot	eitel	rächen	1	acq_USpleas_CSpleas1_RW	acq4567_RW	5	17	400	0	300	300	730	50	0	1	1	blank2r.bmp	0	1	+	0	1	blank2r.bmp	492	1	BZZB	492	1	blank2r.bmp	572	1	fair	866	1	!	1239	1	!	-1	0	0	0	0	0	0	0	0	0	0	0	0	0	0	0	0	0	0	0	0	0	0	0	0	0	0	0	0	0	0
071619	16:50:34	17:02:41	726149	5.0.10.0	5_exp_RW	59	Rpleas_acq	CS_B	BZZB	JXXJ	YDDY	MQQM	GWWG	VKKV	fair	spielen	schön	treu	ehrlich	retten	faul	strafen	schlecht	tot	eitel	rächen	1	acq_USunple_CSunple1_RW	acq4567_RW	5	18	400	0	300	300	690	46	0	1	1	blank2r.bmp	0	1	+	0	1	blank2r.bmp	492	1	YDDY	492	1	blank2r.bmp	572	3	schlecht	866	1	!	1239	1	!	-1	0	0	0	0	0	0	0	0	0	0	0	0	0	0	0	0	0	0	0	0	0	0	0	0	0	0	0	0	0	0
071619	16:50:34	17:02:44	728494	5.0.10.0	5_exp_RW	59	Rpleas_acq	CS_B	BZZB	JXXJ	YDDY	MQQM	GWWG	VKKV	fair	spielen	schön	treu	ehrlich	retten	faul	strafen	schlecht	tot	eitel	rächen	1	acq_USpleas_CSpleas1_RW	acq4567_RW	5	19	400	0	300	300	560	50	0	1	1	blank2r.bmp	0	1	+	0	1	blank2r.bmp	492	1	BZZB	492	1	blank2r.bmp	572	2	spielen	866	1	!	1239	1	!	-1	0	0	0	0	0	0	0	0	0	0	0	0	0	0	0	0	0	0	0	0	0	0	0	0	0	0	0	0	0	0
071619	16:50:34	17:02:46	730920	5.0.10.0	5_exp_RW	59	Rpleas_acq	CS_B	BZZB	JXXJ	YDDY	MQQM	GWWG	VKKV	fair	spielen	schön	treu	ehrlich	retten	faul	strafen	schlecht	tot	eitel	rächen	1	acq_USpleas_CSpleas1_RW	acq4567_RW	5	20	400	0	300	300	639	50	0	1	1	blank2r.bmp	0	1	+	0	1	blank2r.bmp	492	1	BZZB	492	1	blank2r.bmp	572	3	schön	866	1	!	1239	1	!	-1	0	0	0	0	0	0	0	0	0	0	0	0	0	0	0	0	0	0	0	0	0	0	0	0	0	0	0	0	0	0
071619	16:50:34	17:02:48	733332	5.0.10.0	5_exp_RW	59	Rpleas_acq	CS_B	BZZB	JXXJ	YDDY	MQQM	GWWG	VKKV	fair	spielen	schön	treu	ehrlich	retten	faul	strafen	schlecht	tot	eitel	rächen	1	acq_USpleas_CSpleas1_RW	acq4567_RW	5	21	400	0	300	300	636	50	0	1	1	blank2r.bmp	0	1	+	0	1	blank2r.bmp	492	1	BZZB	492	1	blank2r.bmp	572	1	fair	866	1	!	1239	1	!	-1	0	0	0	0	0	0	0	0	0	0	0	0	0	0	0	0	0	0	0	0	0	0	0	0	0	0	0	0	0	0
071619	16:50:34	17:02:51	735572	5.0.10.0	5_exp_RW	59	Rpleas_acq	CS_B	BZZB	JXXJ	YDDY	MQQM	GWWG	VKKV	fair	spielen	schön	treu	ehrlich	retten	faul	strafen	schlecht	tot	eitel	rächen	1	acq_USpleas_CSpleas1_RW	acq4567_RW	5	22	400	1	300	300	421	50	0	1	1	blank2r.bmp	0	1	+	0	1	blank2r.bmp	492	1	BZZB	492	1	blank2r.bmp	572	3	schön	866	1	!	1239	1	!	1319	0	0	0	0	0	0	0	0	0	0	0	0	0	0	0	0	0	0	0	0	0	0	0	0	0	0	0	0	0	0
071619	16:50:34	17:02:53	738011	5.0.10.0	5_exp_RW	59	Rpleas_acq	CS_B	BZZB	JXXJ	YDDY	MQQM	GWWG	VKKV	fair	spielen	schön	treu	ehrlich	retten	faul	strafen	schlecht	tot	eitel	rächen	1	acq_USunple_CSunple2_RW	acq4567_RW	5	23	400	0	300	300	669	46	0	1	1	blank2r.bmp	0	1	+	0	1	blank2r.bmp	492	1	MQQM	492	1	blank2r.bmp	572	3	rächen	866	1	!	1239	1	!	-1	0	0	0	0	0	0	0	0	0	0	0	0	0	0	0	0	0	0	0	0	0	0	0	0	0	0	0	0	0	0
071619	16:50:34	17:02:56	740476	5.0.10.0	5_exp_RW	59	Rpleas_acq	CS_B	BZZB	JXXJ	YDDY	MQQM	GWWG	VKKV	fair	spielen	schön	treu	ehrlich	retten	faul	strafen	schlecht	tot	eitel	rächen	1	acq_USpleas_CSpleas1_RW	acq4567_RW	5	24	400	0	300	300	678	50	0	1	1	blank2r.bmp	0	1	+	0	1	blank2r.bmp	492	1	BZZB	492	1	blank2r.bmp	572	2	spielen	866	1	!	1239	1	!	-1	0	0	0	0	0	0	0	0	0	0	0	0	0	0	0	0	0	0	0	0	0	0	0	0	0	0	0	0	0	0
071619	16:50:34	17:02:58	742662	5.0.10.0	5_exp_RW	59	Rpleas_acq	CS_B	BZZB	JXXJ	YDDY	MQQM	GWWG	VKKV	fair	spielen	schön	treu	ehrlich	retten	faul	strafen	schlecht	tot	eitel	rächen	1	acq_USpleas_CSpleas2_RW	acq4567_RW	5	25	400	1	300	300	376	50	0	1	1	blank2r.bmp	0	1	+	0	1	blank2r.bmp	492	1	JXXJ	492	1	blank2r.bmp	572	1	treu	866	1	!	1239	1	!	1279	0	0	0	0	0	0	0	0	0	0	0	0	0	0	0	0	0	0	0	0	0	0	0	0	0	0	0	0	0	0
071619	16:50:34	17:03:00	745061	5.0.10.0	5_exp_RW	59	Rpleas_acq	CS_B	BZZB	JXXJ	YDDY	MQQM	GWWG	VKKV	fair	spielen	schön	treu	ehrlich	retten	faul	strafen	schlecht	tot	eitel	rächen	1	acq_USpleas_CSpleas1_RW	acq4567_RW	5	26	400	0	300	300	635	50	0	1	1	blank2r.bmp	0	1	+	0	1	blank2r.bmp	492	1	BZZB	492	1	blank2r.bmp	572	1	fair	866	1	!	1239	1	!	-1	0	0	0	0	0	0	0	0	0	0	0	0	0	0	0	0	0	0	0	0	0	0	0	0	0	0	0	0	0	0
071619	16:50:34	17:03:03	747567	5.0.10.0	5_exp_RW	59	Rpleas_acq	CS_B	BZZB	JXXJ	YDDY	MQQM	GWWG	VKKV	fair	spielen	schön	treu	ehrlich	retten	faul	strafen	schlecht	tot	eitel	rächen	1	acq_USunple_CSunple2_RW	acq4567_RW	5	27	400	0	300	300	727	46	0	1	1	blank2r.bmp	0	1	+	0	1	blank2r.bmp	492	1	MQQM	492	1	blank2r.bmp	572	3	rächen	866	1	!	1239	1	!	-1	0	0	0	0	0	0	0	0	0	0	0	0	0	0	0	0	0	0	0	0	0	0	0	0	0	0	0	0	0	0
071619	16:50:34	17:03:05	750006	5.0.10.0	5_exp_RW	59	Rpleas_acq	CS_B	BZZB	JXXJ	YDDY	MQQM	GWWG	VKKV	fair	spielen	schön	treu	ehrlich	retten	faul	strafen	schlecht	tot	eitel	rächen	1	acq_USunple_CSunple1_RW	acq4567_RW	5	28	400	0	300	300	662	46	0	1	1	blank2r.bmp	0	1	+	0	1	blank2r.bmp	492	1	YDDY	492	1	blank2r.bmp	572	1	faul	866	1	!	1239	1	!	-1	0	0	0	0	0	0	0	0	0	0	0	0	0	0	0	0	0	0	0	0	0	0	0	0	0	0	0	0	0	0
071619	16:50:34	17:03:07	752351	5.0.10.0	5_exp_RW	59	Rpleas_acq	CS_B	BZZB	JXXJ	YDDY	MQQM	GWWG	VKKV	fair	spielen	schön	treu	ehrlich	retten	faul	strafen	schlecht	tot	eitel	rächen	1	acq_USunple_CSunple2_RW	acq4567_RW	5	29	400	0	300	300	565	46	0	1	1	blank2r.bmp	0	1	+	0	1	blank2r.bmp	492	1	MQQM	492	1	blank2r.bmp	572	1	tot	866	1	!	1239	1	!	-1	0	0	0	0	0	0	0	0	0	0	0	0	0	0	0	0	0	0	0	0	0	0	0	0	0	0	0	0	0	0
071619	16:50:34	17:03:10	754790	5.0.10.0	5_exp_RW	59	Rpleas_acq	CS_B	BZZB	JXXJ	YDDY	MQQM	GWWG	VKKV	fair	spielen	schön	treu	ehrlich	retten	faul	strafen	schlecht	tot	eitel	rächen	1	acq_USpleas_CSpleas1_RW	acq4567_RW	5	30	400	0	300	300	660	50	0	1	1	blank2r.bmp	0	1	+	0	1	blank2r.bmp	492	1	BZZB	492	1	blank2r.bmp	572	2	spielen	866	1	!	1239	1	!	-1	0	0	0	0	0	0	0	0	0	0	0	0	0	0	0	0	0	0	0	0	0	0	0	0	0	0	0	0	0	0
071619	16:50:34	17:03:12	757349	5.0.10.0	5_exp_RW	59	Rpleas_acq	CS_B	BZZB	JXXJ	YDDY	MQQM	GWWG	VKKV	fair	spielen	schön	treu	ehrlich	retten	faul	strafen	schlecht	tot	eitel	rächen	1	acq_USpleas_CSpleas2_RW	acq4567_RW	5	31	400	0	300	300	783	50	0	1	1	blank2r.bmp	0	1	+	0	1	blank2r.bmp	492	1	JXXJ	492	1	blank2r.bmp	572	3	retten	866	1	!	1239	1	!	-1	0	0	0	0	0	0	0	0	0	0	0	0	0	0	0	0	0	0	0	0	0	0	0	0	0	0	0	0	0	0
071619	16:50:34	17:03:15	759868	5.0.10.0	5_exp_RW	59	Rpleas_acq	CS_B	BZZB	JXXJ	YDDY	MQQM	GWWG	VKKV	fair	spielen	schön	treu	ehrlich	retten	faul	strafen	schlecht	tot	eitel	rächen	1	acq_USunple_CSunple1_RW	acq4567_RW	5	32	400	0	300	300	737	46	0	1	1	blank2r.bmp	0	1	+	0	1	blank2r.bmp	492	1	YDDY	492	1	blank2r.bmp	572	1	faul	866	1	!	1239	1	!	-1	0	0	0	0	0	0	0	0	0	0	0	0	0	0	0	0	0	0	0	0	0	0	0	0	0	0	0	0	0	0
071619	16:50:34	17:03:18	762560	5.0.10.0	5_exp_RW	59	Rpleas_acq	CS_B	BZZB	JXXJ	YDDY	MQQM	GWWG	VKKV	fair	spielen	schön	treu	ehrlich	retten	faul	strafen	schlecht	tot	eitel	rächen	1	acq_USpleas_CSpleas2_RW	acq4567_RW	5	33	400	0	300	300	901	50	0	1	1	blank2r.bmp	0	1	+	0	1	blank2r.bmp	492	1	JXXJ	492	1	blank2r.bmp	572	2	ehrlich	866	1	!	1239	1	!	-1	0	0	0	0	0	0	0	0	0	0	0	0	0	0	0	0	0	0	0	0	0	0	0	0	0	0	0	0	0	0
071619	16:50:34	17:03:21	765559	5.0.10.0	5_exp_RW	59	Rpleas_acq	CS_B	BZZB	JXXJ	YDDY	MQQM	GWWG	VKKV	fair	spielen	schön	treu	ehrlich	retten	faul	strafen	schlecht	tot	eitel	rächen	1	acq_USpleas_CSpleas2_RW	acq4567_RW	5	34	400	0	300	300	1215	50	0	1	1	blank2r.bmp	0	1	+	0	1	blank2r.bmp	492	1	JXXJ	492	1	blank2r.bmp	572	1	treu	866	1	!	1239	1	!	-1	0	0	0	0	0	0	0	0	0	0	0	0	0	0	0	0	0	0	0	0	0	0	0	0	0	0	0	0	0	0
071619	16:50:34	17:03:23	767838	5.0.10.0	5_exp_RW	59	Rpleas_acq	CS_B	BZZB	JXXJ	YDDY	MQQM	GWWG	VKKV	fair	spielen	schön	treu	ehrlich	retten	faul	strafen	schlecht	tot	eitel	rächen	1	acq_USunple_CSunple2_RW	acq4567_RW	5	35	400	0	300	300	503	46	0	1	1	blank2r.bmp	0	1	+	0	1	blank2r.bmp	492	1	MQQM	492	1	blank2r.bmp	572	2	eitel	866	1	!	1239	1	!	-1	0	0	0	0	0	0	0	0	0	0	0	0	0	0	0	0	0	0	0	0	0	0	0	0	0	0	0	0	0	0
071619	16:50:34	17:03:25	770237	5.0.10.0	5_exp_RW	59	Rpleas_acq	CS_B	BZZB	JXXJ	YDDY	MQQM	GWWG	VKKV	fair	spielen	schön	treu	ehrlich	retten	faul	strafen	schlecht	tot	eitel	rächen	1	acq_USunple_CSunple1_RW	acq4567_RW	5	36	400	0	300	300	621	46	0	1	1	blank2r.bmp	0	1	+	0	1	blank2r.bmp	492	1	YDDY	492	1	blank2r.bmp	572	2	strafen	866	1	!	1239	1	!	-1	0	0	0	0	0	0	0	0	0	0	0	0	0	0	0	0	0	0	0	0	0	0	0	0	0	0	0	0	0	0
071619	16:50:34	17:03:28	772756	5.0.10.0	5_exp_RW	59	Rpleas_acq	CS_B	BZZB	JXXJ	YDDY	MQQM	GWWG	VKKV	fair	spielen	schön	treu	ehrlich	retten	faul	strafen	schlecht	tot	eitel	rächen	1	acq_USpleas_CSpleas2_RW	acq4567_RW	5	37	400	0	300	300	737	50	0	1	1	blank2r.bmp	0	1	+	0	1	blank2r.bmp	492	1	JXXJ	492	1	blank2r.bmp	572	3	retten	866	1	!	1239	1	!	-1	0	0	0	0	0	0	0	0	0	0	0	0	0	0	0	0	0	0	0	0	0	0	0	0	0	0	0	0	0	0
071619	16:50:34	17:03:30	775288	5.0.10.0	5_exp_RW	59	Rpleas_acq	CS_B	BZZB	JXXJ	YDDY	MQQM	GWWG	VKKV	fair	spielen	schön	treu	ehrlich	retten	faul	strafen	schlecht	tot	eitel	rächen	1	acq_USunple_CSunple1_RW	acq4567_RW	5	38	400	0	300	300	745	46	0	1	1	blank2r.bmp	0	1	+	0	1	blank2r.bmp	492	1	YDDY	492	1	blank2r.bmp	572	3	schlecht	866	1	!	1239	1	!	-1	0	0	0	0	0	0	0	0	0	0	0	0	0	0	0	0	0	0	0	0	0	0	0	0	0	0	0	0	0	0
071619	16:50:34	17:03:33	777687	5.0.10.0	5_exp_RW	59	Rpleas_acq	CS_B	BZZB	JXXJ	YDDY	MQQM	GWWG	VKKV	fair	spielen	schön	treu	ehrlich	retten	faul	strafen	schlecht	tot	eitel	rächen	1	acq_USunple_CSunple2_RW	acq4567_RW	5	39	400	0	300	300	620	46	0	1	1	blank2r.bmp	0	1	+	0	1	blank2r.bmp	492	1	MQQM	492	1	blank2r.bmp	572	2	eitel	866	1	!	1239	1	!	-1	0	0	0	0	0	0	0	0	0	0	0	0	0	0	0	0	0	0	0	0	0	0	0	0	0	0	0	0	0	0
071619	16:50:34	17:03:35	780153	5.0.10.0	5_exp_RW	59	Rpleas_acq	CS_B	BZZB	JXXJ	YDDY	MQQM	GWWG	VKKV	fair	spielen	schön	treu	ehrlich	retten	faul	strafen	schlecht	tot	eitel	rächen	1	acq_USunple_CSunple1_RW	acq4567_RW	5	40	400	0	300	300	684	46	0	1	1	blank2r.bmp	0	1	+	0	1	blank2r.bmp	492	1	YDDY	492	1	blank2r.bmp	572	2	strafen	866	1	!	1239	1	!	-1	0	0	0	0	0	0	0	0	0	0	0	0	0	0	0	0	0	0	0	0	0	0	0	0	0	0	0	0	0	0
071619	16:50:34	17:03:38	782725	5.0.10.0	5_exp_RW	59	Rpleas_acq	CS_B	BZZB	JXXJ	YDDY	MQQM	GWWG	VKKV	fair	spielen	schön	treu	ehrlich	retten	faul	strafen	schlecht	tot	eitel	rächen	1	acq_USpleas_CSpleas2_RW	acq4567_RW	5	41	400	0	300	300	793	50	0	1	1	blank2r.bmp	0	1	+	0	1	blank2r.bmp	492	1	JXXJ	492	1	blank2r.bmp	572	1	treu	866	1	!	1239	1	!	-1	0	0	0	0	0	0	0	0	0	0	0	0	0	0	0	0	0	0	0	0	0	0	0	0	0	0	0	0	0	0
071619	16:50:34	17:03:40	785257	5.0.10.0	5_exp_RW	59	Rpleas_acq	CS_B	BZZB	JXXJ	YDDY	MQQM	GWWG	VKKV	fair	spielen	schön	treu	ehrlich	retten	faul	strafen	schlecht	tot	eitel	rächen	1	acq_USunple_CSunple2_RW	acq4567_RW	5	42	400	0	300	300	749	46	0	1	1	blank2r.bmp	0	1	+	0	1	blank2r.bmp	492	1	MQQM	492	1	blank2r.bmp	572	3	rächen	866	1	!	1239	1	!	-1	0	0	0	0	0	0	0	0	0	0	0	0	0	0	0	0	0	0	0	0	0	0	0	0	0	0	0	0	0	0
071619	16:50:34	17:03:46	790882	5.0.10.0	5_exp_RW	59	Rpleas_acq	CS_B	BZZB	JXXJ	YDDY	MQQM	GWWG	VKKV	fair	spielen	schön	treu	ehrlich	retten	faul	strafen	schlecht	tot	eitel	rächen	1	acq_USunple_CSunple1_RW	acq4567_RW	5	43	400	0	300	300	3840	46	0	1	1	blank2r.bmp	0	1	+	0	1	blank2r.bmp	492	1	YDDY	492	1	blank2r.bmp	572	3	schlecht	866	1	!	1239	1	!	-1	0	0	0	0	0	0	0	0	0	0	0	0	0	0	0	0	0	0	0	0	0	0	0	0	0	0	0	0	0	0
071619	16:50:34	17:03:48	793161	5.0.10.0	5_exp_RW	59	Rpleas_acq	CS_B	BZZB	JXXJ	YDDY	MQQM	GWWG	VKKV	fair	spielen	schön	treu	ehrlich	retten	faul	strafen	schlecht	tot	eitel	rächen	1	acq_USunple_CSunple2_RW	acq4567_RW	5	44	400	0	300	300	479	46	0	1	1	blank2r.bmp	0	1	+	0	1	blank2r.bmp	492	1	MQQM	492	1	blank2r.bmp	572	1	tot	866	1	!	1239	1	!	-1	0	0	0	0	0	0	0	0	0	0	0	0	0	0	0	0	0	0	0	0	0	0	0	0	0	0	0	0	0	0
071619	16:50:34	17:03:51	795933	5.0.10.0	5_exp_RW	59	Rpleas_acq	CS_B	BZZB	JXXJ	YDDY	MQQM	GWWG	VKKV	fair	spielen	schön	treu	ehrlich	retten	faul	strafen	schlecht	tot	eitel	rächen	1	acq_USunple_CSunple1_RW	acq4567_RW	5	45	400	0	300	300	989	46	0	1	1	blank2r.bmp	0	1	+	0	1	blank2r.bmp	492	1	YDDY	492	1	blank2r.bmp	572	1	faul	866	1	!	1239	1	!	-1	0	0	0	0	0	0	0	0	0	0	0	0	0	0	0	0	0	0	0	0	0	0	0	0	0	0	0	0	0	0
071619	16:50:34	17:03:53	798385	5.0.10.0	5_exp_RW	59	Rpleas_acq	CS_B	BZZB	JXXJ	YDDY	MQQM	GWWG	VKKV	fair	spielen	schön	treu	ehrlich	retten	faul	strafen	schlecht	tot	eitel	rächen	1	acq_USpleas_CSpleas2_RW	acq4567_RW	5	46	400	0	300	300	676	50	0	1	1	blank2r.bmp	0	1	+	0	1	blank2r.bmp	492	1	JXXJ	492	1	blank2r.bmp	572	2	ehrlich	866	1	!	1239	1	!	-1	0	0	0	0	0	0	0	0	0	0	0	0	0	0	0	0	0	0	0	0	0	0	0	0	0	0	0	0	0	0
071619	16:50:34	17:03:56	800944	5.0.10.0	5_exp_RW	59	Rpleas_acq	CS_B	BZZB	JXXJ	YDDY	MQQM	GWWG	VKKV	fair	spielen	schön	treu	ehrlich	retten	faul	strafen	schlecht	tot	eitel	rächen	1	acq_USunple_CSunple1_RW	acq4567_RW	5	47	400	0	300	300	764	46	0	1	1	blank2r.bmp	0	1	+	0	1	blank2r.bmp	492	1	YDDY	492	1	blank2r.bmp	572	1	faul	866	1	!	1239	1	!	-1	0	0	0	0	0	0	0	0	0	0	0	0	0	0	0	0	0	0	0	0	0	0	0	0	0	0	0	0	0	0
071619	16:50:34	17:03:59	803516	5.0.10.0	5_exp_RW	59	Rpleas_acq	CS_B	BZZB	JXXJ	YDDY	MQQM	GWWG	VKKV	fair	spielen	schön	treu	ehrlich	retten	faul	strafen	schlecht	tot	eitel	rächen	1	acq_USpleas_CSpleas1_RW	acq4567_RW	5	48	400	0	300	300	778	50	0	1	1	blank2r.bmp	0	1	+	0	1	blank2r.bmp	492	1	BZZB	492	1	blank2r.bmp	572	1	fair	866	1	!	1239	1	!	-1	0	0	0	0	0	0	0	0	0	0	0	0	0	0	0	0	0	0	0	0	0	0	0	0	0	0	0	0	0	0
071619	16:50:34	17:04:04	808981	5.0.10.0	5_exp_RW	59	Rpleas_acq	CS_B	BZZB	JXXJ	YDDY	MQQM	GWWG	VKKV	fair	spielen	schön	treu	ehrlich	retten	faul	strafen	schlecht	tot	eitel	rächen	1	acq_USpleas_CSpleas1_RW	acq4567_RW	5	49	400	0	300	300	3666	50	0	1	1	blank2r.bmp	0	1	+	0	1	blank2r.bmp	492	1	BZZB	492	1	blank2r.bmp	572	3	schön	866	1	!	1239	1	!	-1	0	0	0	0	0	0	0	0	0	0	0	0	0	0	0	0	0	0	0	0	0	0	0	0	0	0	0	0	0	0
071619	16:50:34	17:04:07	811446	5.0.10.0	5_exp_RW	59	Rpleas_acq	CS_B	BZZB	JXXJ	YDDY	MQQM	GWWG	VKKV	fair	spielen	schön	treu	ehrlich	retten	faul	strafen	schlecht	tot	eitel	rächen	1	acq_USunple_CSunple1_RW	acq4567_RW	5	50	400	0	300	300	680	46	0	1	1	blank2r.bmp	0	1	+	0	1	blank2r.bmp	492	1	YDDY	492	1	blank2r.bmp	572	3	schlecht	866	1	!	1239	1	!	-1	0	0	0	0	0	0	0	0	0	0	0	0	0	0	0	0	0	0	0	0	0	0	0	0	0	0	0	0	0	0
071619	16:50:34	17:04:09	813752	5.0.10.0	5_exp_RW	59	Rpleas_acq	CS_B	BZZB	JXXJ	YDDY	MQQM	GWWG	VKKV	fair	spielen	schön	treu	ehrlich	retten	faul	strafen	schlecht	tot	eitel	rächen	1	acq_USunple_CSunple2_RW	acq4567_RW	5	51	400	0	300	300	520	46	0	1	1	blank2r.bmp	0	1	+	0	1	blank2r.bmp	492	1	MQQM	492	1	blank2r.bmp	572	2	eitel	866	1	!	1239	1	!	-1	0	0	0	0	0	0	0	0	0	0	0	0	0	0	0	0	0	0	0	0	0	0	0	0	0	0	0	0	0	0
071619	16:50:34	17:04:11	816045	5.0.10.0	5_exp_RW	59	Rpleas_acq	CS_B	BZZB	JXXJ	YDDY	MQQM	GWWG	VKKV	fair	spielen	schön	treu	ehrlich	retten	faul	strafen	schlecht	tot	eitel	rächen	1	acq_USpleas_CSpleas2_RW	acq4567_RW	5	52	400	0	300	300	511	50	0	1	1	blank2r.bmp	0	1	+	0	1	blank2r.bmp	492	1	JXXJ	492	1	blank2r.bmp	572	1	treu	866	1	!	1239	1	!	-1	0	0	0	0	0	0	0	0	0	0	0	0	0	0	0	0	0	0	0	0	0	0	0	0	0	0	0	0	0	0
071619	16:50:34	17:04:13	818390	5.0.10.0	5_exp_RW	59	Rpleas_acq	CS_B	BZZB	JXXJ	YDDY	MQQM	GWWG	VKKV	fair	spielen	schön	treu	ehrlich	retten	faul	strafen	schlecht	tot	eitel	rächen	1	acq_USpleas_CSpleas1_RW	acq4567_RW	5	53	400	0	300	300	549	50	0	1	1	blank2r.bmp	0	1	+	0	1	blank2r.bmp	492	1	BZZB	492	1	blank2r.bmp	572	2	spielen	866	1	!	1239	1	!	-1	0	0	0	0	0	0	0	0	0	0	0	0	0	0	0	0	0	0	0	0	0	0	0	0	0	0	0	0	0	0
071619	16:50:34	17:04:16	820843	5.0.10.0	5_exp_RW	59	Rpleas_acq	CS_B	BZZB	JXXJ	YDDY	MQQM	GWWG	VKKV	fair	spielen	schön	treu	ehrlich	retten	faul	strafen	schlecht	tot	eitel	rächen	1	acq_USunple_CSunple2_RW	acq4567_RW	5	54	400	0	300	300	670	46	0	1	1	blank2r.bmp	0	1	+	0	1	blank2r.bmp	492	1	MQQM	492	1	blank2r.bmp	572	1	tot	866	1	!	1239	1	!	-1	0	0	0	0	0	0	0	0	0	0	0	0	0	0	0	0	0	0	0	0	0	0	0	0	0	0	0	0	0	0
071619	16:50:34	17:04:18	823268	5.0.10.0	5_exp_RW	59	Rpleas_acq	CS_B	BZZB	JXXJ	YDDY	MQQM	GWWG	VKKV	fair	spielen	schön	treu	ehrlich	retten	faul	strafen	schlecht	tot	eitel	rächen	1	acq_USunple_CSunple1_RW	acq4567_RW	5	55	400	0	300	300	640	46	0	1	1	blank2r.bmp	0	1	+	0	1	blank2r.bmp	492	1	YDDY	492	1	blank2r.bmp	572	2	strafen	866	1	!	1239	1	!	-1	0	0	0	0	0	0	0	0	0	0	0	0	0	0	0	0	0	0	0	0	0	0	0	0	0	0	0	0	0	0
071619	16:50:34	17:04:21	825694	5.0.10.0	5_exp_RW	59	Rpleas_acq	CS_B	BZZB	JXXJ	YDDY	MQQM	GWWG	VKKV	fair	spielen	schön	treu	ehrlich	retten	faul	strafen	schlecht	tot	eitel	rächen	1	acq_USpleas_CSpleas1_RW	acq4567_RW	5	56	400	0	300	300	649	50	0	1	1	blank2r.bmp	0	1	+	0	1	blank2r.bmp	492	1	BZZB	492	1	blank2r.bmp	572	1	fair	866	1	!	1239	1	!	-1	0	0	0	0	0	0	0	0	0	0	0	0	0	0	0	0	0	0	0	0	0	0	0	0	0	0	0	0	0	0
071619	16:50:34	17:04:23	828106	5.0.10.0	5_exp_RW	59	Rpleas_acq	CS_B	BZZB	JXXJ	YDDY	MQQM	GWWG	VKKV	fair	spielen	schön	treu	ehrlich	retten	faul	strafen	schlecht	tot	eitel	rächen	1	acq_USpleas_CSpleas2_RW	acq4567_RW	5	57	400	0	300	300	628	50	0	1	1	blank2r.bmp	0	1	+	0	1	blank2r.bmp	492	1	JXXJ	492	1	blank2r.bmp	572	2	ehrlich	866	1	!	1239	1	!	-1	0	0	0	0	0	0	0	0	0	0	0	0	0	0	0	0	0	0	0	0	0	0	0	0	0	0	0	0	0	0
071619	16:50:34	17:04:26	830612	5.0.10.0	5_exp_RW	59	Rpleas_acq	CS_B	BZZB	JXXJ	YDDY	MQQM	GWWG	VKKV	fair	spielen	schön	treu	ehrlich	retten	faul	strafen	schlecht	tot	eitel	rächen	1	acq_USpleas_CSpleas1_RW	acq4567_RW	5	58	400	0	300	300	730	50	0	1	1	blank2r.bmp	0	1	+	0	1	blank2r.bmp	492	1	BZZB	492	1	blank2r.bmp	572	3	schön	866	1	!	1239	1	!	-1	0	0	0	0	0	0	0	0	0	0	0	0	0	0	0	0	0	0	0	0	0	0	0	0	0	0	0	0	0	0
071619	16:50:34	17:04:28	833077	5.0.10.0	5_exp_RW	59	Rpleas_acq	CS_B	BZZB	JXXJ	YDDY	MQQM	GWWG	VKKV	fair	spielen	schön	treu	ehrlich	retten	faul	strafen	schlecht	tot	eitel	rächen	1	acq_USunple_CSunple2_RW	acq4567_RW	5	59	400	0	300	300	686	46	0	1	1	blank2r.bmp	0	1	+	0	1	blank2r.bmp	492	1	MQQM	492	1	blank2r.bmp	572	3	rächen	866	1	!	1239	1	!	-1	0	0	0	0	0	0	0	0	0	0	0	0	0	0	0	0	0	0	0	0	0	0	0	0	0	0	0	0	0	0
071619	16:50:34	17:04:31	835703	5.0.10.0	5_exp_RW	59	Rpleas_acq	CS_B	BZZB	JXXJ	YDDY	MQQM	GWWG	VKKV	fair	spielen	schön	treu	ehrlich	retten	faul	strafen	schlecht	tot	eitel	rächen	1	acq_USpleas_CSpleas2_RW	acq4567_RW	5	60	400	0	300	300	843	50	0	1	1	blank2r.bmp	0	1	+	0	1	blank2r.bmp	492	1	JXXJ	492	1	blank2r.bmp	572	3	retten	866	1	!	1239	1	!	-1	0	0	0	0	0	0	0	0	0	0	0	0	0	0	0	0	0	0	0	0	0	0	0	0	0	0	0	0	0	0
071619	16:50:34	17:04:34	838688	5.0.10.0	5_exp_RW	59	Rpleas_acq	CS_B	BZZB	JXXJ	YDDY	MQQM	GWWG	VKKV	fair	spielen	schön	treu	ehrlich	retten	faul	strafen	schlecht	tot	eitel	rächen	1	acq_USpleas_CSpleas1_RW	acq4567_RW	5	61	400	0	300	300	1199	50	0	1	1	blank2r.bmp	0	1	+	0	1	blank2r.bmp	492	1	BZZB	492	1	blank2r.bmp	572	1	fair	866	1	!	1239	1	!	-1	0	0	0	0	0	0	0	0	0	0	0	0	0	0	0	0	0	0	0	0	0	0	0	0	0	0	0	0	0	0
071619	16:50:34	17:04:36	841061	5.0.10.0	5_exp_RW	59	Rpleas_acq	CS_B	BZZB	JXXJ	YDDY	MQQM	GWWG	VKKV	fair	spielen	schön	treu	ehrlich	retten	faul	strafen	schlecht	tot	eitel	rächen	1	acq_USunple_CSunple1_RW	acq4567_RW	5	62	400	0	300	300	597	46	0	1	1	blank2r.bmp	0	1	+	0	1	blank2r.bmp	492	1	YDDY	492	1	blank2r.bmp	572	3	schlecht	866	1	!	1239	1	!	-1	0	0	0	0	0	0	0	0	0	0	0	0	0	0	0	0	0	0	0	0	0	0	0	0	0	0	0	0	0	0
071619	16:50:34	17:04:39	843753	5.0.10.0	5_exp_RW	59	Rpleas_acq	CS_B	BZZB	JXXJ	YDDY	MQQM	GWWG	VKKV	fair	spielen	schön	treu	ehrlich	retten	faul	strafen	schlecht	tot	eitel	rächen	1	acq_USunple_CSunple2_RW	acq4567_RW	5	63	400	0	300	300	908	46	0	1	1	blank2r.bmp	0	1	+	0	1	blank2r.bmp	492	1	MQQM	492	1	blank2r.bmp	572	3	rächen	866	1	!	1239	1	!	-1	0	0	0	0	0	0	0	0	0	0	0	0	0	0	0	0	0	0	0	0	0	0	0	0	0	0	0	0	0	0
071619	16:50:34	17:04:41	846085	5.0.10.0	5_exp_RW	59	Rpleas_acq	CS_B	BZZB	JXXJ	YDDY	MQQM	GWWG	VKKV	fair	spielen	schön	treu	ehrlich	retten	faul	strafen	schlecht	tot	eitel	rächen	1	acq_USunple_CSunple2_RW	acq4567_RW	5	64	400	0	300	300	550	46	0	1	1	blank2r.bmp	0	1	+	0	1	blank2r.bmp	492	1	MQQM	492	1	blank2r.bmp	572	1	tot	866	1	!	1239	1	!	-1	0	0	0	0	0	0	0	0	0	0	0	0	0	0	0	0	0	0	0	0	0	0	0	0	0	0	0	0	0	0
071619	16:50:34	17:04:44	848551	5.0.10.0	5_exp_RW	59	Rpleas_acq	CS_B	BZZB	JXXJ	YDDY	MQQM	GWWG	VKKV	fair	spielen	schön	treu	ehrlich	retten	faul	strafen	schlecht	tot	eitel	rächen	1	acq_USpleas_CSpleas1_RW	acq4567_RW	5	65	400	0	300	300	678	50	0	1	1	blank2r.bmp	0	1	+	0	1	blank2r.bmp	492	1	BZZB	492	1	blank2r.bmp	572	3	schön	866	1	!	1239	1	!	-1	0	0	0	0	0	0	0	0	0	0	0	0	0	0	0	0	0	0	0	0	0	0	0	0	0	0	0	0	0	0
071619	16:50:34	17:04:46	851057	5.0.10.0	5_exp_RW	59	Rpleas_acq	CS_B	BZZB	JXXJ	YDDY	MQQM	GWWG	VKKV	fair	spielen	schön	treu	ehrlich	retten	faul	strafen	schlecht	tot	eitel	rächen	1	acq_USpleas_CSpleas2_RW	acq4567_RW	5	66	400	0	300	300	722	50	0	1	1	blank2r.bmp	0	1	+	0	1	blank2r.bmp	492	1	JXXJ	492	1	blank2r.bmp	572	3	retten	866	1	!	1239	1	!	-1	0	0	0	0	0	0	0	0	0	0	0	0	0	0	0	0	0	0	0	0	0	0	0	0	0	0	0	0	0	0
071619	16:50:34	17:04:49	853536	5.0.10.0	5_exp_RW	59	Rpleas_acq	CS_B	BZZB	JXXJ	YDDY	MQQM	GWWG	VKKV	fair	spielen	schön	treu	ehrlich	retten	faul	strafen	schlecht	tot	eitel	rächen	1	acq_USpleas_CSpleas2_RW	acq4567_RW	5	67	400	0	300	300	692	50	0	1	1	blank2r.bmp	0	1	+	0	1	blank2r.bmp	492	1	JXXJ	492	1	blank2r.bmp	572	2	ehrlich	866	1	!	1239	1	!	-1	0	0	0	0	0	0	0	0	0	0	0	0	0	0	0	0	0	0	0	0	0	0	0	0	0	0	0	0	0	0
071619	16:50:34	17:04:51	855975	5.0.10.0	5_exp_RW	59	Rpleas_acq	CS_B	BZZB	JXXJ	YDDY	MQQM	GWWG	VKKV	fair	spielen	schön	treu	ehrlich	retten	faul	strafen	schlecht	tot	eitel	rächen	1	acq_USpleas_CSpleas2_RW	acq4567_RW	5	68	400	0	300	300	661	50	0	1	1	blank2r.bmp	0	1	+	0	1	blank2r.bmp	492	1	JXXJ	492	1	blank2r.bmp	572	1	treu	866	1	!	1239	1	!	-1	0	0	0	0	0	0	0	0	0	0	0	0	0	0	0	0	0	0	0	0	0	0	0	0	0	0	0	0	0	0
071619	16:50:34	17:04:53	858413	5.0.10.0	5_exp_RW	59	Rpleas_acq	CS_B	BZZB	JXXJ	YDDY	MQQM	GWWG	VKKV	fair	spielen	schön	treu	ehrlich	retten	faul	strafen	schlecht	tot	eitel	rächen	1	acq_USunple_CSunple2_RW	acq4567_RW	5	69	400	0	300	300	661	46	0	1	1	blank2r.bmp	0	1	+	0	1	blank2r.bmp	492	1	MQQM	492	1	blank2r.bmp	572	2	eitel	866	1	!	1239	1	!	-1	0	0	0	0	0	0	0	0	0	0	0	0	0	0	0	0	0	0	0	0	0	0	0	0	0	0	0	0	0	0
071619	16:50:34	17:04:56	861199	5.0.10.0	5_exp_RW	59	Rpleas_acq	CS_B	BZZB	JXXJ	YDDY	MQQM	GWWG	VKKV	fair	spielen	schön	treu	ehrlich	retten	faul	strafen	schlecht	tot	eitel	rächen	1	acq_USunple_CSunple2_RW	acq4567_RW	5	70	400	0	300	300	990	46	0	1	1	blank2r.bmp	0	1	+	0	1	blank2r.bmp	492	1	MQQM	492	1	blank2r.bmp	572	2	eitel	866	1	!	1239	1	!	-1	0	0	0	0	0	0	0	0	0	0	0	0	0	0	0	0	0	0	0	0	0	0	0	0	0	0	0	0	0	0
071619	16:50:34	17:04:59	863651	5.0.10.0	5_exp_RW	59	Rpleas_acq	CS_B	BZZB	JXXJ	YDDY	MQQM	GWWG	VKKV	fair	spielen	schön	treu	ehrlich	retten	faul	strafen	schlecht	tot	eitel	rächen	1	acq_USunple_CSunple1_RW	acq4567_RW	5	71	400	0	300	300	674	46	0	1	1	blank2r.bmp	0	1	+	0	1	blank2r.bmp	492	1	YDDY	492	1	blank2r.bmp	572	1	faul	866	1	!	1239	1	!	-1	0	0	0	0	0	0	0	0	0	0	0	0	0	0	0	0	0	0	0	0	0	0	0	0	0	0	0	0	0	0
071619	16:50:34	17:05:01	866064	5.0.10.0	5_exp_RW	59	Rpleas_acq	CS_B	BZZB	JXXJ	YDDY	MQQM	GWWG	VKKV	fair	spielen	schön	treu	ehrlich	retten	faul	strafen	schlecht	tot	eitel	rächen	1	acq_USunple_CSunple2_RW	acq4567_RW	5	72	400	0	300	300	633	46	0	1	1	blank2r.bmp	0	1	+	0	1	blank2r.bmp	492	1	MQQM	492	1	blank2r.bmp	572	1	tot	866	1	!	1239	1	!	-1	0	0	0	0	0	0	0	0	0	0	0	0	0	0	0	0	0	0	0	0	0	0	0	0	0	0	0	0	0	0
071619	16:50:34	17:05:04	868463	5.0.10.0	5_exp_RW	59	Rpleas_acq	CS_B	BZZB	JXXJ	YDDY	MQQM	GWWG	VKKV	fair	spielen	schön	treu	ehrlich	retten	faul	strafen	schlecht	tot	eitel	rächen	1	acq_USpleas_CSpleas1_RW	acq4567_RW	5	73	400	0	300	300	624	50	0	1	1	blank2r.bmp	0	1	+	0	1	blank2r.bmp	492	1	BZZB	492	1	blank2r.bmp	572	2	spielen	866	1	!	1239	1	!	-1	0	0	0	0	0	0	0	0	0	0	0	0	0	0	0	0	0	0	0	0	0	0	0	0	0	0	0	0	0	0
071619	16:50:34	17:05:06	870942	5.0.10.0	5_exp_RW	59	Rpleas_acq	CS_B	BZZB	JXXJ	YDDY	MQQM	GWWG	VKKV	fair	spielen	schön	treu	ehrlich	retten	faul	strafen	schlecht	tot	eitel	rächen	1	acq_USunple_CSunple1_RW	acq4567_RW	5	74	400	0	300	300	704	46	0	1	1	blank2r.bmp	0	1	+	0	1	blank2r.bmp	492	1	YDDY	492	1	blank2r.bmp	572	2	strafen	866	1	!	1239	1	!	-1	0	0	0	0	0	0	0	0	0	0	0	0	0	0	0	0	0	0	0	0	0	0	0	0	0	0	0	0	0	0
071619	16:50:34	17:05:09	873727	5.0.10.0	5_exp_RW	59	Rpleas_acq	CS_B	BZZB	JXXJ	YDDY	MQQM	GWWG	VKKV	fair	spielen	schön	treu	ehrlich	retten	faul	strafen	schlecht	tot	eitel	rächen	1	acq_USpleas_CSpleas2_RW	acq4567_RW	5	75	400	0	300	300	1000	50	0	1	1	blank2r.bmp	0	1	+	0	1	blank2r.bmp	492	1	JXXJ	492	1	blank2r.bmp	572	3	retten	866	1	!	1239	1	!	-1	0	0	0	0	0	0	0	0	0	0	0	0	0	0	0	0	0	0	0	0	0	0	0	0	0	0	0	0	0	0
071619	16:50:34	17:05:11	876126	5.0.10.0	5_exp_RW	59	Rpleas_acq	CS_B	BZZB	JXXJ	YDDY	MQQM	GWWG	VKKV	fair	spielen	schön	treu	ehrlich	retten	faul	strafen	schlecht	tot	eitel	rächen	1	acq_USpleas_CSpleas1_RW	acq4567_RW	5	76	400	0	300	300	614	50	0	1	1	blank2r.bmp	0	1	+	0	1	blank2r.bmp	492	1	BZZB	492	1	blank2r.bmp	572	3	schön	866	1	!	1239	1	!	-1	0	0	0	0	0	0	0	0	0	0	0	0	0	0	0	0	0	0	0	0	0	0	0	0	0	0	0	0	0	0
071619	16:50:34	17:05:14	878525	5.0.10.0	5_exp_RW	59	Rpleas_acq	CS_B	BZZB	JXXJ	YDDY	MQQM	GWWG	VKKV	fair	spielen	schön	treu	ehrlich	retten	faul	strafen	schlecht	tot	eitel	rächen	1	acq_USpleas_CSpleas2_RW	acq4567_RW	5	77	400	0	300	300	614	50	0	1	1	blank2r.bmp	0	1	+	0	1	blank2r.bmp	492	1	JXXJ	492	1	blank2r.bmp	572	1	treu	866	1	!	1239	1	!	-1	0	0	0	0	0	0	0	0	0	0	0	0	0	0	0	0	0	0	0	0	0	0	0	0	0	0	0	0	0	0
071619	16:50:34	17:05:16	880897	5.0.10.0	5_exp_RW	59	Rpleas_acq	CS_B	BZZB	JXXJ	YDDY	MQQM	GWWG	VKKV	fair	spielen	schön	treu	ehrlich	retten	faul	strafen	schlecht	tot	eitel	rächen	1	acq_USpleas_CSpleas1_RW	acq4567_RW	5	78	400	0	300	300	595	50	0	1	1	blank2r.bmp	0	1	+	0	1	blank2r.bmp	492	1	BZZB	492	1	blank2r.bmp	572	1	fair	866	1	!	1239	1	!	-1	0	0	0	0	0	0	0	0	0	0	0	0	0	0	0	0	0	0	0	0	0	0	0	0	0	0	0	0	0	0
071619	16:50:34	17:05:18	883310	5.0.10.0	5_exp_RW	59	Rpleas_acq	CS_B	BZZB	JXXJ	YDDY	MQQM	GWWG	VKKV	fair	spielen	schön	treu	ehrlich	retten	faul	strafen	schlecht	tot	eitel	rächen	1	acq_USunple_CSunple1_RW	acq4567_RW	5	79	400	0	300	300	626	46	0	1	1	blank2r.bmp	0	1	+	0	1	blank2r.bmp	492	1	YDDY	492	1	blank2r.bmp	572	3	schlecht	866	1	!	1239	1	!	-1	0	0	0	0	0	0	0	0	0	0	0	0	0	0	0	0	0	0	0	0	0	0	0	0	0	0	0	0	0	0
071619	16:50:34	17:05:21	885589	5.0.10.0	5_exp_RW	59	Rpleas_acq	CS_B	BZZB	JXXJ	YDDY	MQQM	GWWG	VKKV	fair	spielen	schön	treu	ehrlich	retten	faul	strafen	schlecht	tot	eitel	rächen	1	acq_USunple_CSunple1_RW	acq4567_RW	5	80	400	0	300	300	485	46	0	1	1	blank2r.bmp	0	1	+	0	1	blank2r.bmp	492	1	YDDY	492	1	blank2r.bmp	572	2	strafen	866	1	!	1239	1	!	-1	0	0	0	0	0	0	0	0	0	0	0	0	0	0	0	0	0	0	0	0	0	0	0	0	0	0	0	0	0	0
071619	16:50:34	17:06:42	967075	5.0.10.0	5_exp_RW	59	Rpleas_acq	CS_B	BZZB	JXXJ	YDDY	MQQM	GWWG	VKKV	fair	spielen	schön	treu	ehrlich	retten	faul	strafen	schlecht	tot	eitel	rächen	1	acq_USunple_CSunple1_RW	acq4567_RW	6	1	400	0	300	300	664	46	0	1	1	blank2r.bmp	0	1	+	0	1	blank2r.bmp	492	1	YDDY	492	1	blank2r.bmp	572	1	faul	866	1	!	1239	1	!	-1	0	0	0	0	0	0	0	0	0	0	0	0	0	0	0	0	0	0	0	0	0	0	0	0	0	0	0	0	0	0
071619	16:50:34	17:06:45	969740	5.0.10.0	5_exp_RW	59	Rpleas_acq	CS_B	BZZB	JXXJ	YDDY	MQQM	GWWG	VKKV	fair	spielen	schön	treu	ehrlich	retten	faul	strafen	schlecht	tot	eitel	rächen	1	acq_USunple_CSunple2_RW	acq4567_RW	6	2	400	0	300	300	886	46	0	1	1	blank2r.bmp	0	1	+	0	1	blank2r.bmp	492	1	MQQM	492	1	blank2r.bmp	572	3	rächen	866	1	!	1239	1	!	-1	0	0	0	0	0	0	0	0	0	0	0	0	0	0	0	0	0	0	0	0	0	0	0	0	0	0	0	0	0	0
071619	16:50:34	17:06:47	972219	5.0.10.0	5_exp_RW	59	Rpleas_acq	CS_B	BZZB	JXXJ	YDDY	MQQM	GWWG	VKKV	fair	spielen	schön	treu	ehrlich	retten	faul	strafen	schlecht	tot	eitel	rächen	1	acq_USunple_CSunple1_RW	acq4567_RW	6	3	400	0	300	300	697	46	0	1	1	blank2r.bmp	0	1	+	0	1	blank2r.bmp	492	1	YDDY	492	1	blank2r.bmp	572	2	strafen	866	1	!	1239	1	!	-1	0	0	0	0	0	0	0	0	0	0	0	0	0	0	0	0	0	0	0	0	0	0	0	0	0	0	0	0	0	0
071619	16:50:34	17:06:49	974405	5.0.10.0	5_exp_RW	59	Rpleas_acq	CS_B	BZZB	JXXJ	YDDY	MQQM	GWWG	VKKV	fair	spielen	schön	treu	ehrlich	retten	faul	strafen	schlecht	tot	eitel	rächen	1	acq_USpleas_CSpleas1_RW	acq4567_RW	6	4	400	1	300	300	384	50	0	1	1	blank2r.bmp	0	1	+	0	1	blank2r.bmp	492	1	BZZB	492	1	blank2r.bmp	572	2	spielen	866	1	!	1239	1	!	1279	0	0	0	0	0	0	0	0	0	0	0	0	0	0	0	0	0	0	0	0	0	0	0	0	0	0	0	0	0	0
071619	16:50:34	17:06:52	976604	5.0.10.0	5_exp_RW	59	Rpleas_acq	CS_B	BZZB	JXXJ	YDDY	MQQM	GWWG	VKKV	fair	spielen	schön	treu	ehrlich	retten	faul	strafen	schlecht	tot	eitel	rächen	1	acq_USpleas_CSpleas2_RW	acq4567_RW	6	5	400	1	300	300	411	50	0	1	1	blank2r.bmp	0	1	+	0	1	blank2r.bmp	492	1	JXXJ	492	1	blank2r.bmp	572	2	ehrlich	866	1	!	1239	1	!	1306	0	0	0	0	0	0	0	0	0	0	0	0	0	0	0	0	0	0	0	0	0	0	0	0	0	0	0	0	0	0
071619	16:50:34	17:06:54	978936	5.0.10.0	5_exp_RW	59	Rpleas_acq	CS_B	BZZB	JXXJ	YDDY	MQQM	GWWG	VKKV	fair	spielen	schön	treu	ehrlich	retten	faul	strafen	schlecht	tot	eitel	rächen	1	acq_USunple_CSunple2_RW	acq4567_RW	6	6	400	0	300	300	567	46	0	1	1	blank2r.bmp	0	1	+	0	1	blank2r.bmp	492	1	MQQM	492	1	blank2r.bmp	572	3	rächen	866	1	!	1239	1	!	-1	0	0	0	0	0	0	0	0	0	0	0	0	0	0	0	0	0	0	0	0	0	0	0	0	0	0	0	0	0	0
071619	16:50:34	17:06:56	981189	5.0.10.0	5_exp_RW	59	Rpleas_acq	CS_B	BZZB	JXXJ	YDDY	MQQM	GWWG	VKKV	fair	spielen	schön	treu	ehrlich	retten	faul	strafen	schlecht	tot	eitel	rächen	1	acq_USpleas_CSpleas1_RW	acq4567_RW	6	7	400	1	300	300	449	50	0	1	1	blank2r.bmp	0	1	+	0	1	blank2r.bmp	492	1	BZZB	492	1	blank2r.bmp	572	2	spielen	866	1	!	1239	1	!	1346	0	0	0	0	0	0	0	0	0	0	0	0	0	0	0	0	0	0	0	0	0	0	0	0	0	0	0	0	0	0
071619	16:50:34	17:06:59	983441	5.0.10.0	5_exp_RW	59	Rpleas_acq	CS_B	BZZB	JXXJ	YDDY	MQQM	GWWG	VKKV	fair	spielen	schön	treu	ehrlich	retten	faul	strafen	schlecht	tot	eitel	rächen	1	acq_USpleas_CSpleas2_RW	acq4567_RW	6	8	400	0	300	300	484	50	0	1	1	blank2r.bmp	0	1	+	0	1	blank2r.bmp	492	1	JXXJ	492	1	blank2r.bmp	572	3	retten	866	1	!	1239	1	!	-1	0	0	0	0	0	0	0	0	0	0	0	0	0	0	0	0	0	0	0	0	0	0	0	0	0	0	0	0	0	0
071619	16:50:34	17:07:01	985747	5.0.10.0	5_exp_RW	59	Rpleas_acq	CS_B	BZZB	JXXJ	YDDY	MQQM	GWWG	VKKV	fair	spielen	schön	treu	ehrlich	retten	faul	strafen	schlecht	tot	eitel	rächen	1	acq_USpleas_CSpleas2_RW	acq4567_RW	6	9	400	0	300	300	521	50	0	1	1	blank2r.bmp	0	1	+	0	1	blank2r.bmp	492	1	JXXJ	492	1	blank2r.bmp	572	1	treu	866	1	!	1239	1	!	-1	0	0	0	0	0	0	0	0	0	0	0	0	0	0	0	0	0	0	0	0	0	0	0	0	0	0	0	0	0	0
071619	16:50:34	17:07:03	988013	5.0.10.0	5_exp_RW	59	Rpleas_acq	CS_B	BZZB	JXXJ	YDDY	MQQM	GWWG	VKKV	fair	spielen	schön	treu	ehrlich	retten	faul	strafen	schlecht	tot	eitel	rächen	1	acq_USpleas_CSpleas1_RW	acq4567_RW	6	10	400	0	300	300	490	50	0	1	1	blank2r.bmp	0	1	+	0	1	blank2r.bmp	492	1	BZZB	492	1	blank2r.bmp	572	3	schön	866	1	!	1239	1	!	-1	0	0	0	0	0	0	0	0	0	0	0	0	0	0	0	0	0	0	0	0	0	0	0	0	0	0	0	0	0	0
071619	16:50:34	17:07:05	990278	5.0.10.0	5_exp_RW	59	Rpleas_acq	CS_B	BZZB	JXXJ	YDDY	MQQM	GWWG	VKKV	fair	spielen	schön	treu	ehrlich	retten	faul	strafen	schlecht	tot	eitel	rächen	1	acq_USpleas_CSpleas2_RW	acq4567_RW	6	11	400	1	300	300	462	50	0	1	1	blank2r.bmp	0	1	+	0	1	blank2r.bmp	492	1	JXXJ	492	1	blank2r.bmp	572	2	ehrlich	866	1	!	1239	1	!	1359	0	0	0	0	0	0	0	0	0	0	0	0	0	0	0	0	0	0	0	0	0	0	0	0	0	0	0	0	0	0
071619	16:50:34	17:07:08	992504	5.0.10.0	5_exp_RW	59	Rpleas_acq	CS_B	BZZB	JXXJ	YDDY	MQQM	GWWG	VKKV	fair	spielen	schön	treu	ehrlich	retten	faul	strafen	schlecht	tot	eitel	rächen	1	acq_USunple_CSunple1_RW	acq4567_RW	6	12	400	1	300	300	432	46	0	1	1	blank2r.bmp	0	1	+	0	1	blank2r.bmp	492	1	YDDY	492	1	blank2r.bmp	572	3	schlecht	866	1	!	1239	1	!	1332	0	0	0	0	0	0	0	0	0	0	0	0	0	0	0	0	0	0	0	0	0	0	0	0	0	0	0	0	0	0
071619	16:50:34	17:07:10	994703	5.0.10.0	5_exp_RW	59	Rpleas_acq	CS_B	BZZB	JXXJ	YDDY	MQQM	GWWG	VKKV	fair	spielen	schön	treu	ehrlich	retten	faul	strafen	schlecht	tot	eitel	rächen	1	acq_USpleas_CSpleas1_RW	acq4567_RW	6	13	400	1	300	300	401	50	0	1	1	blank2r.bmp	0	1	+	0	1	blank2r.bmp	492	1	BZZB	492	1	blank2r.bmp	572	1	fair	866	1	!	1239	1	!	1306	0	0	0	0	0	0	0	0	0	0	0	0	0	0	0	0	0	0	0	0	0	0	0	0	0	0	0	0	0	0
071619	16:50:34	17:07:12	996956	5.0.10.0	5_exp_RW	59	Rpleas_acq	CS_B	BZZB	JXXJ	YDDY	MQQM	GWWG	VKKV	fair	spielen	schön	treu	ehrlich	retten	faul	strafen	schlecht	tot	eitel	rächen	1	acq_USpleas_CSpleas1_RW	acq4567_RW	6	14	400	0	300	300	479	50	0	1	1	blank2r.bmp	0	1	+	0	1	blank2r.bmp	492	1	BZZB	492	1	blank2r.bmp	572	1	fair	866	1	!	1239	1	!	-1	0	0	0	0	0	0	0	0	0	0	0	0	0	0	0	0	0	0	0	0	0	0	0	0	0	0	0	0	0	0
071619	16:50:34	17:07:14	999355	5.0.10.0	5_exp_RW	59	Rpleas_acq	CS_B	BZZB	JXXJ	YDDY	MQQM	GWWG	VKKV	fair	spielen	schön	treu	ehrlich	retten	faul	strafen	schlecht	tot	eitel	rächen	1	acq_USunple_CSunple1_RW	acq4567_RW	6	15	400	0	300	300	601	50	0	0	1	blank2r.bmp	0	1	+	0	1	blank2r.bmp	492	1	YDDY	492	1	blank2r.bmp	572	1	faul	866	1	!	1239	1	!	-1	0	0	0	0	0	0	0	0	0	0	0	0	0	0	0	0	0	0	0	0	0	0	0	0	0	0	0	0	0	0
071619	16:50:34	17:07:17	1002020	5.0.10.0	5_exp_RW	59	Rpleas_acq	CS_B	BZZB	JXXJ	YDDY	MQQM	GWWG	VKKV	fair	spielen	schön	treu	ehrlich	retten	faul	strafen	schlecht	tot	eitel	rächen	1	acq_USpleas_CSpleas2_RW	acq4567_RW	6	16	400	0	300	300	879	50	0	1	1	blank2r.bmp	0	1	+	0	1	blank2r.bmp	492	1	JXXJ	492	1	blank2r.bmp	572	3	retten	866	1	!	1239	1	!	-1	0	0	0	0	0	0	0	0	0	0	0	0	0	0	0	0	0	0	0	0	0	0	0	0	0	0	0	0	0	0
071619	16:50:34	17:07:20	1004499	5.0.10.0	5_exp_RW	59	Rpleas_acq	CS_B	BZZB	JXXJ	YDDY	MQQM	GWWG	VKKV	fair	spielen	schön	treu	ehrlich	retten	faul	strafen	schlecht	tot	eitel	rächen	1	acq_USunple_CSunple2_RW	acq4567_RW	6	17	400	0	300	300	698	46	0	1	1	blank2r.bmp	0	1	+	0	1	blank2r.bmp	492	1	MQQM	492	1	blank2r.bmp	572	2	eitel	866	1	!	1239	1	!	-1	0	0	0	0	0	0	0	0	0	0	0	0	0	0	0	0	0	0	0	0	0	0	0	0	0	0	0	0	0	0
071619	16:50:34	17:07:22	1007125	5.0.10.0	5_exp_RW	59	Rpleas_acq	CS_B	BZZB	JXXJ	YDDY	MQQM	GWWG	VKKV	fair	spielen	schön	treu	ehrlich	retten	faul	strafen	schlecht	tot	eitel	rächen	1	acq_USunple_CSunple1_RW	acq4567_RW	6	18	400	0	300	300	844	46	0	1	1	blank2r.bmp	0	1	+	0	1	blank2r.bmp	492	1	YDDY	492	1	blank2r.bmp	572	3	schlecht	866	1	!	1239	1	!	-1	0	0	0	0	0	0	0	0	0	0	0	0	0	0	0	0	0	0	0	0	0	0	0	0	0	0	0	0	0	0
071619	16:50:34	17:07:25	1009604	5.0.10.0	5_exp_RW	59	Rpleas_acq	CS_B	BZZB	JXXJ	YDDY	MQQM	GWWG	VKKV	fair	spielen	schön	treu	ehrlich	retten	faul	strafen	schlecht	tot	eitel	rächen	1	acq_USunple_CSunple2_RW	acq4567_RW	6	19	400	0	300	300	703	46	0	1	1	blank2r.bmp	0	1	+	0	1	blank2r.bmp	492	1	MQQM	492	1	blank2r.bmp	572	1	tot	866	1	!	1239	1	!	-1	0	0	0	0	0	0	0	0	0	0	0	0	0	0	0	0	0	0	0	0	0	0	0	0	0	0	0	0	0	0
071619	16:50:34	17:07:29	1013642	5.0.10.0	5_exp_RW	59	Rpleas_acq	CS_B	BZZB	JXXJ	YDDY	MQQM	GWWG	VKKV	fair	spielen	schön	treu	ehrlich	retten	faul	strafen	schlecht	tot	eitel	rächen	1	acq_USunple_CSunple2_RW	acq4567_RW	6	20	400	0	300	300	2254	46	0	1	1	blank2r.bmp	0	1	+	0	1	blank2r.bmp	492	1	MQQM	492	1	blank2r.bmp	572	3	rächen	866	1	!	1239	1	!	-1	0	0	0	0	0	0	0	0	0	0	0	0	0	0	0	0	0	0	0	0	0	0	0	0	0	0	0	0	0	0
071619	16:50:34	17:07:31	1016241	5.0.10.0	5_exp_RW	59	Rpleas_acq	CS_B	BZZB	JXXJ	YDDY	MQQM	GWWG	VKKV	fair	spielen	schön	treu	ehrlich	retten	faul	strafen	schlecht	tot	eitel	rächen	1	acq_USunple_CSunple1_RW	acq4567_RW	6	21	400	0	300	300	817	46	0	1	1	blank2r.bmp	0	1	+	0	1	blank2r.bmp	492	1	YDDY	492	1	blank2r.bmp	572	1	faul	866	1	!	1239	1	!	-1	0	0	0	0	0	0	0	0	0	0	0	0	0	0	0	0	0	0	0	0	0	0	0	0	0	0	0	0	0	0
