date	time	script.currenttime	script.elapsedtime	build	script.currentexpt	subject	expressions.LRpleas_acq	expressions.conditionCS_A	expressions.CSpleas_1	expressions.CSpleas_2	expressions.CSunple_1	expressions.CSunple_2	expressions.distractor_1	expressions.distractor_2	expressions.US_pleas1	expressions.US_pleas2	expressions.US_pleas3	expressions.US_pleas4	expressions.US_pleas5	expressions.US_pleas6	expressions.US_unple1	expressions.US_unple2	expressions.US_unple3	expressions.US_unple4	expressions.US_unple5	expressions.US_unple6	counter.positions_noRW	trialcode	blockcode	blocknum	trialnum	windowcenter	inwindow	pretrialpause	posttrialpause	latency	response	expressions.correctedscore	correct	stimulusnumber1	stimulusitem1	stimulusonset1	stimulusnumber2	stimulusitem2	stimulusonset2	stimulusnumber3	stimulusitem3	stimulusonset3	stimulusnumber4	stimulusitem4	stimulusonset4	stimulusnumber5	stimulusitem5	stimulusonset5	stimulusnumber6	stimulusitem6	stimulusonset6	stimulusnumber7	stimulusitem7	stimulusonset7	stimulusnumber8	stimulusitem8	stimulusonset8	stimulusnumber9	stimulusitem9	stimulusonset9	stimulusnumber10	stimulusitem10	stimulusonset10	stimulusnumber11	stimulusitem11	stimulusonset11	stimulusnumber12	stimulusitem12	stimulusonset12	stimulusnumber13	stimulusitem13	stimulusonset13	stimulusnumber14	stimulusitem14	stimulusonset14	stimulusnumber15	stimulusitem15	stimulusonset15	stimulusnumber16	stimulusitem16	stimulusonset16	stimulusnumber17	stimulusitem17	stimulusonset17	stimulusnumber18	stimulusitem18	stimulusonset18
081219	11:34:40	11:36:13	91641	5.0.10.0	5_exp_RW	95	Rpleas_acq	CS_B	GWWG	YDDY	MQQM	BZZB	VKKV	JXXJ	schön	ehrlich	treu	spielen	retten	fair	schlecht	eitel	tot	strafen	rächen	faul	1	acq_USpleas_CSpleas1_RW	acq1_RW	1	1	0	0	300	300	848	46	0	0	1	blank2r.bmp	0	1	+	0	1	blank2r.bmp	492	1	GWWG	492	1	blank2r.bmp	572	1	schön	866	1	FEHLER	1745	0	0	0	0	0	0	0	0	0	0	0	0	0	0	0	0	0	0	0	0	0	0	0	0	0	0	0	0	0	0	0	0	0
081219	11:34:40	11:36:15	93533	5.0.10.0	5_exp_RW	95	Rpleas_acq	CS_B	GWWG	YDDY	MQQM	BZZB	VKKV	JXXJ	schön	ehrlich	treu	spielen	retten	fair	schlecht	eitel	tot	strafen	rächen	faul	1	acq_USpleas_CSpleas2_RW	acq1_RW	1	2	0	0	300	300	614	50	0	1	1	blank2r.bmp	0	1	+	0	1	blank2r.bmp	492	1	YDDY	492	1	blank2r.bmp	572	3	fair	866	0	0	0	0	0	0	0	0	0	0	0	0	0	0	0	0	0	0	0	0	0	0	0	0	0	0	0	0	0	0	0	0	0	0	0	0
081219	11:34:40	11:36:18	95906	5.0.10.0	5_exp_RW	95	Rpleas_acq	CS_B	GWWG	YDDY	MQQM	BZZB	VKKV	JXXJ	schön	ehrlich	treu	spielen	retten	fair	schlecht	eitel	tot	strafen	rächen	faul	1	acq_USunple_CSunple2_RW	acq1_RW	1	3	0	0	300	300	878	46	0	1	1	blank2r.bmp	0	1	+	0	1	blank2r.bmp	492	1	BZZB	492	1	blank2r.bmp	572	2	rächen	866	0	0	0	0	0	0	0	0	0	0	0	0	0	0	0	0	0	0	0	0	0	0	0	0	0	0	0	0	0	0	0	0	0	0	0	0
081219	11:34:40	11:36:20	98318	5.0.10.0	5_exp_RW	95	Rpleas_acq	CS_B	GWWG	YDDY	MQQM	BZZB	VKKV	JXXJ	schön	ehrlich	treu	spielen	retten	fair	schlecht	eitel	tot	strafen	rächen	faul	1	acq_USunple_CSunple2_RW	acq1_RW	1	4	0	0	300	300	713	50	0	0	1	blank2r.bmp	0	1	+	0	1	blank2r.bmp	492	1	BZZB	492	1	blank2r.bmp	572	3	faul	866	1	FEHLER	1612	0	0	0	0	0	0	0	0	0	0	0	0	0	0	0	0	0	0	0	0	0	0	0	0	0	0	0	0	0	0	0	0	0
081219	11:34:40	11:36:22	100117	5.0.10.0	5_exp_RW	95	Rpleas_acq	CS_B	GWWG	YDDY	MQQM	BZZB	VKKV	JXXJ	schön	ehrlich	treu	spielen	retten	fair	schlecht	eitel	tot	strafen	rächen	faul	1	acq_USpleas_CSpleas1_RW	acq1_RW	1	5	0	0	300	300	313	46	0	0	1	blank2r.bmp	0	1	+	0	1	blank2r.bmp	492	1	GWWG	492	1	blank2r.bmp	572	3	treu	866	1	FEHLER	1212	0	0	0	0	0	0	0	0	0	0	0	0	0	0	0	0	0	0	0	0	0	0	0	0	0	0	0	0	0	0	0	0	0
081219	11:34:40	11:36:24	102050	5.0.10.0	5_exp_RW	95	Rpleas_acq	CS_B	GWWG	YDDY	MQQM	BZZB	VKKV	JXXJ	schön	ehrlich	treu	spielen	retten	fair	schlecht	eitel	tot	strafen	rächen	faul	1	acq_USunple_CSunple2_RW	acq1_RW	1	6	0	0	300	300	457	50	0	0	1	blank2r.bmp	0	1	+	0	1	blank2r.bmp	492	1	BZZB	492	1	blank2r.bmp	572	1	strafen	866	1	FEHLER	1359	0	0	0	0	0	0	0	0	0	0	0	0	0	0	0	0	0	0	0	0	0	0	0	0	0	0	0	0	0	0	0	0	0
081219	11:34:40	11:36:26	104022	5.0.10.0	5_exp_RW	95	Rpleas_acq	CS_B	GWWG	YDDY	MQQM	BZZB	VKKV	JXXJ	schön	ehrlich	treu	spielen	retten	fair	schlecht	eitel	tot	strafen	rächen	faul	1	acq_USunple_CSunple1_RW	acq1_RW	1	7	0	0	300	300	707	46	0	1	1	blank2r.bmp	0	1	+	0	1	blank2r.bmp	492	1	MQQM	492	1	blank2r.bmp	572	1	schlecht	866	0	0	0	0	0	0	0	0	0	0	0	0	0	0	0	0	0	0	0	0	0	0	0	0	0	0	0	0	0	0	0	0	0	0	0	0
081219	11:34:40	11:36:28	106062	5.0.10.0	5_exp_RW	95	Rpleas_acq	CS_B	GWWG	YDDY	MQQM	BZZB	VKKV	JXXJ	schön	ehrlich	treu	spielen	retten	fair	schlecht	eitel	tot	strafen	rächen	faul	1	acq_USunple_CSunple2_RW	acq1_RW	1	8	0	0	300	300	563	46	0	1	1	blank2r.bmp	0	1	+	0	1	blank2r.bmp	492	1	BZZB	492	1	blank2r.bmp	572	1	strafen	866	0	0	0	0	0	0	0	0	0	0	0	0	0	0	0	0	0	0	0	0	0	0	0	0	0	0	0	0	0	0	0	0	0	0	0	0
081219	11:34:40	11:36:30	108074	5.0.10.0	5_exp_RW	95	Rpleas_acq	CS_B	GWWG	YDDY	MQQM	BZZB	VKKV	JXXJ	schön	ehrlich	treu	spielen	retten	fair	schlecht	eitel	tot	strafen	rächen	faul	1	acq_USpleas_CSpleas2_RW	acq1_RW	1	9	0	0	300	300	522	50	0	1	1	blank2r.bmp	0	1	+	0	1	blank2r.bmp	492	1	YDDY	492	1	blank2r.bmp	572	2	retten	866	0	0	0	0	0	0	0	0	0	0	0	0	0	0	0	0	0	0	0	0	0	0	0	0	0	0	0	0	0	0	0	0	0	0	0	0
081219	11:34:40	11:36:32	110033	5.0.10.0	5_exp_RW	95	Rpleas_acq	CS_B	GWWG	YDDY	MQQM	BZZB	VKKV	JXXJ	schön	ehrlich	treu	spielen	retten	fair	schlecht	eitel	tot	strafen	rächen	faul	1	acq_USunple_CSunple1_RW	acq1_RW	1	10	0	0	300	300	477	46	0	1	1	blank2r.bmp	0	1	+	0	1	blank2r.bmp	492	1	MQQM	492	1	blank2r.bmp	572	3	tot	866	0	0	0	0	0	0	0	0	0	0	0	0	0	0	0	0	0	0	0	0	0	0	0	0	0	0	0	0	0	0	0	0	0	0	0	0
081219	11:34:40	11:36:34	112019	5.0.10.0	5_exp_RW	95	Rpleas_acq	CS_B	GWWG	YDDY	MQQM	BZZB	VKKV	JXXJ	schön	ehrlich	treu	spielen	retten	fair	schlecht	eitel	tot	strafen	rächen	faul	1	acq_USunple_CSunple1_RW	acq1_RW	1	11	0	0	300	300	285	50	0	0	1	blank2r.bmp	0	1	+	0	1	blank2r.bmp	492	1	MQQM	492	1	blank2r.bmp	572	2	eitel	866	1	FEHLER	1186	0	0	0	0	0	0	0	0	0	0	0	0	0	0	0	0	0	0	0	0	0	0	0	0	0	0	0	0	0	0	0	0	0
081219	11:34:40	11:36:36	113992	5.0.10.0	5_exp_RW	95	Rpleas_acq	CS_B	GWWG	YDDY	MQQM	BZZB	VKKV	JXXJ	schön	ehrlich	treu	spielen	retten	fair	schlecht	eitel	tot	strafen	rächen	faul	1	acq_USunple_CSunple1_RW	acq1_RW	1	12	0	0	300	300	500	50	0	0	1	blank2r.bmp	0	1	+	0	1	blank2r.bmp	492	1	MQQM	492	1	blank2r.bmp	572	1	schlecht	866	1	FEHLER	1399	0	0	0	0	0	0	0	0	0	0	0	0	0	0	0	0	0	0	0	0	0	0	0	0	0	0	0	0	0	0	0	0	0
081219	11:34:40	11:36:38	116097	5.0.10.0	5_exp_RW	95	Rpleas_acq	CS_B	GWWG	YDDY	MQQM	BZZB	VKKV	JXXJ	schön	ehrlich	treu	spielen	retten	fair	schlecht	eitel	tot	strafen	rächen	faul	1	acq_USpleas_CSpleas2_RW	acq1_RW	1	13	0	0	300	300	833	50	0	1	1	blank2r.bmp	0	1	+	0	1	blank2r.bmp	492	1	YDDY	492	1	blank2r.bmp	572	1	spielen	866	0	0	0	0	0	0	0	0	0	0	0	0	0	0	0	0	0	0	0	0	0	0	0	0	0	0	0	0	0	0	0	0	0	0	0	0
081219	11:34:40	11:36:40	118083	5.0.10.0	5_exp_RW	95	Rpleas_acq	CS_B	GWWG	YDDY	MQQM	BZZB	VKKV	JXXJ	schön	ehrlich	treu	spielen	retten	fair	schlecht	eitel	tot	strafen	rächen	faul	1	acq_USpleas_CSpleas1_RW	acq1_RW	1	14	0	0	300	300	517	50	0	1	1	blank2r.bmp	0	1	+	0	1	blank2r.bmp	492	1	GWWG	492	1	blank2r.bmp	572	2	ehrlich	866	0	0	0	0	0	0	0	0	0	0	0	0	0	0	0	0	0	0	0	0	0	0	0	0	0	0	0	0	0	0	0	0	0	0	0	0
081219	11:34:40	11:36:42	120189	5.0.10.0	5_exp_RW	95	Rpleas_acq	CS_B	GWWG	YDDY	MQQM	BZZB	VKKV	JXXJ	schön	ehrlich	treu	spielen	retten	fair	schlecht	eitel	tot	strafen	rächen	faul	1	acq_USpleas_CSpleas2_RW	acq1_RW	1	15	0	0	300	300	618	50	0	1	1	blank2r.bmp	0	1	+	0	1	blank2r.bmp	492	1	YDDY	492	1	blank2r.bmp	572	2	retten	866	0	0	0	0	0	0	0	0	0	0	0	0	0	0	0	0	0	0	0	0	0	0	0	0	0	0	0	0	0	0	0	0	0	0	0	0
081219	11:34:40	11:36:44	121908	5.0.10.0	5_exp_RW	95	Rpleas_acq	CS_B	GWWG	YDDY	MQQM	BZZB	VKKV	JXXJ	schön	ehrlich	treu	spielen	retten	fair	schlecht	eitel	tot	strafen	rächen	faul	1	acq_USpleas_CSpleas1_RW	acq1_RW	1	16	0	0	300	300	237	50	0	1	1	blank2r.bmp	0	1	+	0	1	blank2r.bmp	492	1	GWWG	492	1	blank2r.bmp	572	3	treu	866	0	0	0	0	0	0	0	0	0	0	0	0	0	0	0	0	0	0	0	0	0	0	0	0	0	0	0	0	0	0	0	0	0	0	0	0
081219	11:34:40	11:37:26	163944	5.0.10.0	5_exp_RW	95	Rpleas_acq	CS_B	GWWG	YDDY	MQQM	BZZB	VKKV	JXXJ	schön	ehrlich	treu	spielen	retten	fair	schlecht	eitel	tot	strafen	rächen	faul	1	acq_USpleas_CSpleas2_RW	acq2_RW	2	1	480	1	300	300	507	50	0	1	1	blank2r.bmp	0	1	+	0	1	blank2r.bmp	492	1	YDDY	492	1	blank2r.bmp	572	1	spielen	866	1	!	1319	1	!	1412	0	0	0	0	0	0	0	0	0	0	0	0	0	0	0	0	0	0	0	0	0	0	0	0	0	0	0	0	0	0
081219	11:34:40	11:37:28	166170	5.0.10.0	5_exp_RW	95	Rpleas_acq	CS_B	GWWG	YDDY	MQQM	BZZB	VKKV	JXXJ	schön	ehrlich	treu	spielen	retten	fair	schlecht	eitel	tot	strafen	rächen	faul	1	acq_USpleas_CSpleas2_RW	acq2_RW	2	2	480	1	300	300	426	50	0	1	1	blank2r.bmp	0	1	+	0	1	blank2r.bmp	492	1	YDDY	492	1	blank2r.bmp	572	3	fair	866	1	!	1319	1	!	1332	0	0	0	0	0	0	0	0	0	0	0	0	0	0	0	0	0	0	0	0	0	0	0	0	0	0	0	0	0	0
081219	11:34:40	11:37:30	168395	5.0.10.0	5_exp_RW	95	Rpleas_acq	CS_B	GWWG	YDDY	MQQM	BZZB	VKKV	JXXJ	schön	ehrlich	treu	spielen	retten	fair	schlecht	eitel	tot	strafen	rächen	faul	1	acq_USpleas_CSpleas2_RW	acq2_RW	2	3	480	1	300	300	429	50	0	1	1	blank2r.bmp	0	1	+	0	1	blank2r.bmp	492	1	YDDY	492	1	blank2r.bmp	572	1	spielen	866	1	!	1319	1	!	1332	0	0	0	0	0	0	0	0	0	0	0	0	0	0	0	0	0	0	0	0	0	0	0	0	0	0	0	0	0	0
081219	11:34:40	11:37:32	170568	5.0.10.0	5_exp_RW	95	Rpleas_acq	CS_B	GWWG	YDDY	MQQM	BZZB	VKKV	JXXJ	schön	ehrlich	treu	spielen	retten	fair	schlecht	eitel	tot	strafen	rächen	faul	1	acq_USunple_CSunple2_RW	acq2_RW	2	4	480	0	300	300	400	46	0	1	1	blank2r.bmp	0	1	+	0	1	blank2r.bmp	492	1	BZZB	492	1	blank2r.bmp	572	2	rächen	866	1	!	-1	1	!	-1	0	0	0	0	0	0	0	0	0	0	0	0	0	0	0	0	0	0	0	0	0	0	0	0	0	0	0	0	0	0
081219	11:34:40	11:37:35	173167	5.0.10.0	5_exp_RW	95	Rpleas_acq	CS_B	GWWG	YDDY	MQQM	BZZB	VKKV	JXXJ	schön	ehrlich	treu	spielen	retten	fair	schlecht	eitel	tot	strafen	rächen	faul	1	acq_USpleas_CSpleas1_RW	acq2_RW	2	5	480	0	300	300	802	50	0	1	1	blank2r.bmp	0	1	+	0	1	blank2r.bmp	492	1	GWWG	492	1	blank2r.bmp	572	1	schön	866	1	!	1319	1	!	-1	0	0	0	0	0	0	0	0	0	0	0	0	0	0	0	0	0	0	0	0	0	0	0	0	0	0	0	0	0	0
081219	11:34:40	11:37:37	175526	5.0.10.0	5_exp_RW	95	Rpleas_acq	CS_B	GWWG	YDDY	MQQM	BZZB	VKKV	JXXJ	schön	ehrlich	treu	spielen	retten	fair	schlecht	eitel	tot	strafen	rächen	faul	1	acq_USunple_CSunple1_RW	acq2_RW	2	6	480	0	300	300	350	50	0	0	1	blank2r.bmp	0	1	+	0	1	blank2r.bmp	492	1	MQQM	492	1	blank2r.bmp	572	2	eitel	866	1	FEHLER	1559	1	!	-1	1	!	-1	0	0	0	0	0	0	0	0	0	0	0	0	0	0	0	0	0	0	0	0	0	0	0	0	0	0	0
081219	11:34:40	11:37:40	177925	5.0.10.0	5_exp_RW	95	Rpleas_acq	CS_B	GWWG	YDDY	MQQM	BZZB	VKKV	JXXJ	schön	ehrlich	treu	spielen	retten	fair	schlecht	eitel	tot	strafen	rächen	faul	1	acq_USunple_CSunple2_RW	acq2_RW	2	7	480	0	300	300	612	50	0	0	1	blank2r.bmp	0	1	+	0	1	blank2r.bmp	492	1	BZZB	492	1	blank2r.bmp	572	3	faul	866	1	FEHLER	1825	1	!	1319	1	!	-1	0	0	0	0	0	0	0	0	0	0	0	0	0	0	0	0	0	0	0	0	0	0	0	0	0	0	0
081219	11:34:40	11:37:42	179857	5.0.10.0	5_exp_RW	95	Rpleas_acq	CS_B	GWWG	YDDY	MQQM	BZZB	VKKV	JXXJ	schön	ehrlich	treu	spielen	retten	fair	schlecht	eitel	tot	strafen	rächen	faul	1	acq_USunple_CSunple1_RW	acq2_RW	2	8	480	0	300	300	362	46	0	1	1	blank2r.bmp	0	1	+	0	1	blank2r.bmp	492	1	MQQM	492	1	blank2r.bmp	572	3	tot	866	1	!	-1	1	!	-1	0	0	0	0	0	0	0	0	0	0	0	0	0	0	0	0	0	0	0	0	0	0	0	0	0	0	0	0	0	0
081219	11:34:40	11:37:44	182150	5.0.10.0	5_exp_RW	95	Rpleas_acq	CS_B	GWWG	YDDY	MQQM	BZZB	VKKV	JXXJ	schön	ehrlich	treu	spielen	retten	fair	schlecht	eitel	tot	strafen	rächen	faul	1	acq_USpleas_CSpleas2_RW	acq2_RW	2	9	480	1	300	300	489	50	0	1	1	blank2r.bmp	0	1	+	0	1	blank2r.bmp	492	1	YDDY	492	1	blank2r.bmp	572	3	fair	866	1	!	1319	1	!	1386	0	0	0	0	0	0	0	0	0	0	0	0	0	0	0	0	0	0	0	0	0	0	0	0	0	0	0	0	0	0
081219	11:34:40	11:37:46	184322	5.0.10.0	5_exp_RW	95	Rpleas_acq	CS_B	GWWG	YDDY	MQQM	BZZB	VKKV	JXXJ	schön	ehrlich	treu	spielen	retten	fair	schlecht	eitel	tot	strafen	rächen	faul	1	acq_USunple_CSunple2_RW	acq2_RW	2	10	480	0	300	300	409	46	0	1	1	blank2r.bmp	0	1	+	0	1	blank2r.bmp	492	1	BZZB	492	1	blank2r.bmp	572	1	strafen	866	1	!	-1	1	!	-1	0	0	0	0	0	0	0	0	0	0	0	0	0	0	0	0	0	0	0	0	0	0	0	0	0	0	0	0	0	0
081219	11:34:40	11:37:49	186734	5.0.10.0	5_exp_RW	95	Rpleas_acq	CS_B	GWWG	YDDY	MQQM	BZZB	VKKV	JXXJ	schön	ehrlich	treu	spielen	retten	fair	schlecht	eitel	tot	strafen	rächen	faul	1	acq_USpleas_CSpleas2_RW	acq2_RW	2	11	480	0	300	300	407	46	0	0	1	blank2r.bmp	0	1	+	0	1	blank2r.bmp	492	1	YDDY	492	1	blank2r.bmp	572	2	retten	866	1	FEHLER	1612	1	!	-1	1	!	-1	0	0	0	0	0	0	0	0	0	0	0	0	0	0	0	0	0	0	0	0	0	0	0	0	0	0	0
081219	11:34:40	11:37:51	189014	5.0.10.0	5_exp_RW	95	Rpleas_acq	CS_B	GWWG	YDDY	MQQM	BZZB	VKKV	JXXJ	schön	ehrlich	treu	spielen	retten	fair	schlecht	eitel	tot	strafen	rächen	faul	1	acq_USpleas_CSpleas2_RW	acq2_RW	2	12	480	1	300	300	485	46	0	0	1	blank2r.bmp	0	1	+	0	1	blank2r.bmp	492	1	YDDY	492	1	blank2r.bmp	572	2	retten	866	1	FEHLER	1705	1	!	1319	1	!	1386	0	0	0	0	0	0	0	0	0	0	0	0	0	0	0	0	0	0	0	0	0	0	0	0	0	0	0
081219	11:34:40	11:37:53	191279	5.0.10.0	5_exp_RW	95	Rpleas_acq	CS_B	GWWG	YDDY	MQQM	BZZB	VKKV	JXXJ	schön	ehrlich	treu	spielen	retten	fair	schlecht	eitel	tot	strafen	rächen	faul	1	acq_USunple_CSunple2_RW	acq2_RW	2	13	480	0	300	300	706	46	0	1	1	blank2r.bmp	0	1	+	0	1	blank2r.bmp	492	1	BZZB	492	1	blank2r.bmp	572	3	faul	866	1	!	1319	1	!	-1	0	0	0	0	0	0	0	0	0	0	0	0	0	0	0	0	0	0	0	0	0	0	0	0	0	0	0	0	0	0
081219	11:34:40	11:37:55	193558	5.0.10.0	5_exp_RW	95	Rpleas_acq	CS_B	GWWG	YDDY	MQQM	BZZB	VKKV	JXXJ	schön	ehrlich	treu	spielen	retten	fair	schlecht	eitel	tot	strafen	rächen	faul	1	acq_USunple_CSunple2_RW	acq2_RW	2	14	480	1	300	300	466	46	0	1	1	blank2r.bmp	0	1	+	0	1	blank2r.bmp	492	1	BZZB	492	1	blank2r.bmp	572	2	rächen	866	1	!	1319	1	!	1372	0	0	0	0	0	0	0	0	0	0	0	0	0	0	0	0	0	0	0	0	0	0	0	0	0	0	0	0	0	0
081219	11:34:40	11:37:58	195784	5.0.10.0	5_exp_RW	95	Rpleas_acq	CS_B	GWWG	YDDY	MQQM	BZZB	VKKV	JXXJ	schön	ehrlich	treu	spielen	retten	fair	schlecht	eitel	tot	strafen	rächen	faul	1	acq_USunple_CSunple1_RW	acq2_RW	2	15	480	1	300	300	433	46	0	1	1	blank2r.bmp	0	1	+	0	1	blank2r.bmp	492	1	MQQM	492	1	blank2r.bmp	572	3	tot	866	1	!	1319	1	!	1332	0	0	0	0	0	0	0	0	0	0	0	0	0	0	0	0	0	0	0	0	0	0	0	0	0	0	0	0	0	0
081219	11:34:40	11:38:00	197850	5.0.10.0	5_exp_RW	95	Rpleas_acq	CS_B	GWWG	YDDY	MQQM	BZZB	VKKV	JXXJ	schön	ehrlich	treu	spielen	retten	fair	schlecht	eitel	tot	strafen	rächen	faul	1	acq_USunple_CSunple2_RW	acq2_RW	2	16	480	0	300	300	292	46	0	1	1	blank2r.bmp	0	1	+	0	1	blank2r.bmp	492	1	BZZB	492	1	blank2r.bmp	572	1	strafen	866	1	!	-1	1	!	-1	0	0	0	0	0	0	0	0	0	0	0	0	0	0	0	0	0	0	0	0	0	0	0	0	0	0	0	0	0	0
081219	11:34:40	11:38:02	200142	5.0.10.0	5_exp_RW	95	Rpleas_acq	CS_B	GWWG	YDDY	MQQM	BZZB	VKKV	JXXJ	schön	ehrlich	treu	spielen	retten	fair	schlecht	eitel	tot	strafen	rächen	faul	1	acq_USpleas_CSpleas1_RW	acq2_RW	2	17	480	1	300	300	481	50	0	1	1	blank2r.bmp	0	1	+	0	1	blank2r.bmp	492	1	GWWG	492	1	blank2r.bmp	572	2	ehrlich	866	1	!	1319	1	!	1386	0	0	0	0	0	0	0	0	0	0	0	0	0	0	0	0	0	0	0	0	0	0	0	0	0	0	0	0	0	0
081219	11:34:40	11:38:04	202448	5.0.10.0	5_exp_RW	95	Rpleas_acq	CS_B	GWWG	YDDY	MQQM	BZZB	VKKV	JXXJ	schön	ehrlich	treu	spielen	retten	fair	schlecht	eitel	tot	strafen	rächen	faul	1	acq_USunple_CSunple1_RW	acq2_RW	2	18	480	1	300	300	502	46	0	1	1	blank2r.bmp	0	1	+	0	1	blank2r.bmp	492	1	MQQM	492	1	blank2r.bmp	572	2	eitel	866	1	!	1319	1	!	1399	0	0	0	0	0	0	0	0	0	0	0	0	0	0	0	0	0	0	0	0	0	0	0	0	0	0	0	0	0	0
081219	11:34:40	11:38:07	204700	5.0.10.0	5_exp_RW	95	Rpleas_acq	CS_B	GWWG	YDDY	MQQM	BZZB	VKKV	JXXJ	schön	ehrlich	treu	spielen	retten	fair	schlecht	eitel	tot	strafen	rächen	faul	1	acq_USunple_CSunple1_RW	acq2_RW	2	19	480	1	300	300	454	46	0	1	1	blank2r.bmp	0	1	+	0	1	blank2r.bmp	492	1	MQQM	492	1	blank2r.bmp	572	1	schlecht	866	1	!	1319	1	!	1359	0	0	0	0	0	0	0	0	0	0	0	0	0	0	0	0	0	0	0	0	0	0	0	0	0	0	0	0	0	0
081219	11:34:40	11:38:09	206859	5.0.10.0	5_exp_RW	95	Rpleas_acq	CS_B	GWWG	YDDY	MQQM	BZZB	VKKV	JXXJ	schön	ehrlich	treu	spielen	retten	fair	schlecht	eitel	tot	strafen	rächen	faul	1	acq_USunple_CSunple1_RW	acq2_RW	2	20	480	0	300	300	373	46	0	1	1	blank2r.bmp	0	1	+	0	1	blank2r.bmp	492	1	MQQM	492	1	blank2r.bmp	572	1	schlecht	866	1	!	-1	1	!	-1	0	0	0	0	0	0	0	0	0	0	0	0	0	0	0	0	0	0	0	0	0	0	0	0	0	0	0	0	0	0
081219	11:34:40	11:38:11	209045	5.0.10.0	5_exp_RW	95	Rpleas_acq	CS_B	GWWG	YDDY	MQQM	BZZB	VKKV	JXXJ	schön	ehrlich	treu	spielen	retten	fair	schlecht	eitel	tot	strafen	rächen	faul	1	acq_USpleas_CSpleas1_RW	acq2_RW	2	21	480	0	300	300	405	50	0	1	1	blank2r.bmp	0	1	+	0	1	blank2r.bmp	492	1	GWWG	492	1	blank2r.bmp	572	1	schön	866	1	!	-1	1	!	-1	0	0	0	0	0	0	0	0	0	0	0	0	0	0	0	0	0	0	0	0	0	0	0	0	0	0	0	0	0	0
081219	11:34:40	11:38:13	211284	5.0.10.0	5_exp_RW	95	Rpleas_acq	CS_B	GWWG	YDDY	MQQM	BZZB	VKKV	JXXJ	schön	ehrlich	treu	spielen	retten	fair	schlecht	eitel	tot	strafen	rächen	faul	1	acq_USpleas_CSpleas1_RW	acq2_RW	2	22	480	1	300	300	426	50	0	1	1	blank2r.bmp	0	1	+	0	1	blank2r.bmp	492	1	GWWG	492	1	blank2r.bmp	572	3	treu	866	1	!	1319	1	!	1332	0	0	0	0	0	0	0	0	0	0	0	0	0	0	0	0	0	0	0	0	0	0	0	0	0	0	0	0	0	0
081219	11:34:40	11:38:15	213430	5.0.10.0	5_exp_RW	95	Rpleas_acq	CS_B	GWWG	YDDY	MQQM	BZZB	VKKV	JXXJ	schön	ehrlich	treu	spielen	retten	fair	schlecht	eitel	tot	strafen	rächen	faul	1	acq_USpleas_CSpleas1_RW	acq2_RW	2	23	480	0	300	300	374	50	0	1	1	blank2r.bmp	0	1	+	0	1	blank2r.bmp	492	1	GWWG	492	1	blank2r.bmp	572	2	ehrlich	866	1	!	-1	1	!	-1	0	0	0	0	0	0	0	0	0	0	0	0	0	0	0	0	0	0	0	0	0	0	0	0	0	0	0	0	0	0
081219	11:34:40	11:38:17	215589	5.0.10.0	5_exp_RW	95	Rpleas_acq	CS_B	GWWG	YDDY	MQQM	BZZB	VKKV	JXXJ	schön	ehrlich	treu	spielen	retten	fair	schlecht	eitel	tot	strafen	rächen	faul	1	acq_USpleas_CSpleas1_RW	acq2_RW	2	24	480	0	300	300	378	50	0	1	1	blank2r.bmp	0	1	+	0	1	blank2r.bmp	492	1	GWWG	492	1	blank2r.bmp	572	3	treu	866	1	!	-1	1	!	-1	0	0	0	0	0	0	0	0	0	0	0	0	0	0	0	0	0	0	0	0	0	0	0	0	0	0	0	0	0	0
081219	11:34:40	11:38:38	236287	5.0.10.0	5_exp_RW	95	Rpleas_acq	CS_B	GWWG	YDDY	MQQM	BZZB	VKKV	JXXJ	schön	ehrlich	treu	spielen	retten	fair	schlecht	eitel	tot	strafen	rächen	faul	1	acq_USunple_CSunple1_RW	acq3_RW	3	1	453	1	300	300	434	46	0	1	1	blank2r.bmp	0	1	+	0	1	blank2r.bmp	492	1	MQQM	492	1	blank2r.bmp	572	2	eitel	866	1	!	1292	1	!	1332	0	0	0	0	0	0	0	0	0	0	0	0	0	0	0	0	0	0	0	0	0	0	0	0	0	0	0	0	0	0
081219	11:34:40	11:38:40	238393	5.0.10.0	5_exp_RW	95	Rpleas_acq	CS_B	GWWG	YDDY	MQQM	BZZB	VKKV	JXXJ	schön	ehrlich	treu	spielen	retten	fair	schlecht	eitel	tot	strafen	rächen	faul	1	acq_USunple_CSunple1_RW	acq3_RW	3	2	453	0	300	300	325	46	0	1	1	blank2r.bmp	0	1	+	0	1	blank2r.bmp	492	1	MQQM	492	1	blank2r.bmp	572	3	tot	866	1	!	-1	1	!	-1	0	0	0	0	0	0	0	0	0	0	0	0	0	0	0	0	0	0	0	0	0	0	0	0	0	0	0	0	0	0
081219	11:34:40	11:38:43	240685	5.0.10.0	5_exp_RW	95	Rpleas_acq	CS_B	GWWG	YDDY	MQQM	BZZB	VKKV	JXXJ	schön	ehrlich	treu	spielen	retten	fair	schlecht	eitel	tot	strafen	rächen	faul	1	acq_USpleas_CSpleas2_RW	acq3_RW	3	3	453	1	300	300	479	50	0	1	1	blank2r.bmp	0	1	+	0	1	blank2r.bmp	492	1	YDDY	492	1	blank2r.bmp	572	3	fair	866	1	!	1292	1	!	1386	0	0	0	0	0	0	0	0	0	0	0	0	0	0	0	0	0	0	0	0	0	0	0	0	0	0	0	0	0	0
081219	11:34:40	11:38:45	242778	5.0.10.0	5_exp_RW	95	Rpleas_acq	CS_B	GWWG	YDDY	MQQM	BZZB	VKKV	JXXJ	schön	ehrlich	treu	spielen	retten	fair	schlecht	eitel	tot	strafen	rächen	faul	1	acq_USpleas_CSpleas1_RW	acq3_RW	3	4	453	0	300	300	330	50	0	1	1	blank2r.bmp	0	1	+	0	1	blank2r.bmp	492	1	GWWG	492	1	blank2r.bmp	572	2	ehrlich	866	1	!	-1	1	!	-1	0	0	0	0	0	0	0	0	0	0	0	0	0	0	0	0	0	0	0	0	0	0	0	0	0	0	0	0	0	0
081219	11:34:40	11:38:47	245057	5.0.10.0	5_exp_RW	95	Rpleas_acq	CS_B	GWWG	YDDY	MQQM	BZZB	VKKV	JXXJ	schön	ehrlich	treu	spielen	retten	fair	schlecht	eitel	tot	strafen	rächen	faul	1	acq_USunple_CSunple2_RW	acq3_RW	3	5	453	1	300	300	473	46	0	1	1	blank2r.bmp	0	1	+	0	1	blank2r.bmp	492	1	BZZB	492	1	blank2r.bmp	572	2	rächen	866	1	!	1292	1	!	1372	0	0	0	0	0	0	0	0	0	0	0	0	0	0	0	0	0	0	0	0	0	0	0	0	0	0	0	0	0	0
081219	11:34:40	11:38:49	247296	5.0.10.0	5_exp_RW	95	Rpleas_acq	CS_B	GWWG	YDDY	MQQM	BZZB	VKKV	JXXJ	schön	ehrlich	treu	spielen	retten	fair	schlecht	eitel	tot	strafen	rächen	faul	1	acq_USpleas_CSpleas2_RW	acq3_RW	3	6	453	1	300	300	437	50	0	1	1	blank2r.bmp	0	1	+	0	1	blank2r.bmp	492	1	YDDY	492	1	blank2r.bmp	572	1	spielen	866	1	!	1292	1	!	1332	0	0	0	0	0	0	0	0	0	0	0	0	0	0	0	0	0	0	0	0	0	0	0	0	0	0	0	0	0	0
081219	11:34:40	11:38:51	249548	5.0.10.0	5_exp_RW	95	Rpleas_acq	CS_B	GWWG	YDDY	MQQM	BZZB	VKKV	JXXJ	schön	ehrlich	treu	spielen	retten	fair	schlecht	eitel	tot	strafen	rächen	faul	1	acq_USpleas_CSpleas1_RW	acq3_RW	3	7	453	1	300	300	455	50	0	1	1	blank2r.bmp	0	1	+	0	1	blank2r.bmp	492	1	GWWG	492	1	blank2r.bmp	572	1	schön	866	1	!	1292	1	!	1359	0	0	0	0	0	0	0	0	0	0	0	0	0	0	0	0	0	0	0	0	0	0	0	0	0	0	0	0	0	0
081219	11:34:40	11:38:54	252001	5.0.10.0	5_exp_RW	95	Rpleas_acq	CS_B	GWWG	YDDY	MQQM	BZZB	VKKV	JXXJ	schön	ehrlich	treu	spielen	retten	fair	schlecht	eitel	tot	strafen	rächen	faul	1	acq_USpleas_CSpleas1_RW	acq3_RW	3	8	453	0	300	300	665	50	0	1	1	blank2r.bmp	0	1	+	0	1	blank2r.bmp	492	1	GWWG	492	1	blank2r.bmp	572	2	ehrlich	866	1	!	1292	1	!	-1	0	0	0	0	0	0	0	0	0	0	0	0	0	0	0	0	0	0	0	0	0	0	0	0	0	0	0	0	0	0
081219	11:34:40	11:38:56	254040	5.0.10.0	5_exp_RW	95	Rpleas_acq	CS_B	GWWG	YDDY	MQQM	BZZB	VKKV	JXXJ	schön	ehrlich	treu	spielen	retten	fair	schlecht	eitel	tot	strafen	rächen	faul	1	acq_USunple_CSunple1_RW	acq3_RW	3	9	453	0	300	300	248	46	0	1	1	blank2r.bmp	0	1	+	0	1	blank2r.bmp	492	1	MQQM	492	1	blank2r.bmp	572	2	eitel	866	1	!	-1	1	!	-1	0	0	0	0	0	0	0	0	0	0	0	0	0	0	0	0	0	0	0	0	0	0	0	0	0	0	0	0	0	0
081219	11:34:40	11:38:58	256145	5.0.10.0	5_exp_RW	95	Rpleas_acq	CS_B	GWWG	YDDY	MQQM	BZZB	VKKV	JXXJ	schön	ehrlich	treu	spielen	retten	fair	schlecht	eitel	tot	strafen	rächen	faul	1	acq_USpleas_CSpleas1_RW	acq3_RW	3	10	453	0	300	300	323	50	0	1	1	blank2r.bmp	0	1	+	0	1	blank2r.bmp	492	1	GWWG	492	1	blank2r.bmp	572	1	schön	866	1	!	-1	1	!	-1	0	0	0	0	0	0	0	0	0	0	0	0	0	0	0	0	0	0	0	0	0	0	0	0	0	0	0	0	0	0
081219	11:34:40	11:39:00	258518	5.0.10.0	5_exp_RW	95	Rpleas_acq	CS_B	GWWG	YDDY	MQQM	BZZB	VKKV	JXXJ	schön	ehrlich	treu	spielen	retten	fair	schlecht	eitel	tot	strafen	rächen	faul	1	acq_USpleas_CSpleas2_RW	acq3_RW	3	11	453	0	300	300	587	50	0	1	1	blank2r.bmp	0	1	+	0	1	blank2r.bmp	492	1	YDDY	492	1	blank2r.bmp	572	2	retten	866	1	!	1292	1	!	-1	0	0	0	0	0	0	0	0	0	0	0	0	0	0	0	0	0	0	0	0	0	0	0	0	0	0	0	0	0	0
081219	11:34:40	11:39:03	260850	5.0.10.0	5_exp_RW	95	Rpleas_acq	CS_B	GWWG	YDDY	MQQM	BZZB	VKKV	JXXJ	schön	ehrlich	treu	spielen	retten	fair	schlecht	eitel	tot	strafen	rächen	faul	1	acq_USunple_CSunple2_RW	acq3_RW	3	12	453	0	300	300	330	50	0	0	1	blank2r.bmp	0	1	+	0	1	blank2r.bmp	492	1	BZZB	492	1	blank2r.bmp	572	3	faul	866	1	FEHLER	1532	1	!	-1	1	!	-1	0	0	0	0	0	0	0	0	0	0	0	0	0	0	0	0	0	0	0	0	0	0	0	0	0	0	0
081219	11:34:40	11:39:05	262929	5.0.10.0	5_exp_RW	95	Rpleas_acq	CS_B	GWWG	YDDY	MQQM	BZZB	VKKV	JXXJ	schön	ehrlich	treu	spielen	retten	fair	schlecht	eitel	tot	strafen	rächen	faul	1	acq_USpleas_CSpleas2_RW	acq3_RW	3	13	453	1	300	300	498	50	0	1	1	blank2r.bmp	0	1	+	0	1	blank2r.bmp	492	1	YDDY	492	1	blank2r.bmp	572	3	fair	866	1	!	1292	1	!	1399	0	0	0	0	0	0	0	0	0	0	0	0	0	0	0	0	0	0	0	0	0	0	0	0	0	0	0	0	0	0
081219	11:34:40	11:39:07	265222	5.0.10.0	5_exp_RW	95	Rpleas_acq	CS_B	GWWG	YDDY	MQQM	BZZB	VKKV	JXXJ	schön	ehrlich	treu	spielen	retten	fair	schlecht	eitel	tot	strafen	rächen	faul	1	acq_USpleas_CSpleas1_RW	acq3_RW	3	14	453	0	300	300	294	46	0	0	1	blank2r.bmp	0	1	+	0	1	blank2r.bmp	492	1	GWWG	492	1	blank2r.bmp	572	3	treu	866	1	FEHLER	1506	1	!	-1	1	!	-1	0	0	0	0	0	0	0	0	0	0	0	0	0	0	0	0	0	0	0	0	0	0	0	0	0	0	0
081219	11:34:40	11:39:09	267314	5.0.10.0	5_exp_RW	95	Rpleas_acq	CS_B	GWWG	YDDY	MQQM	BZZB	VKKV	JXXJ	schön	ehrlich	treu	spielen	retten	fair	schlecht	eitel	tot	strafen	rächen	faul	1	acq_USunple_CSunple1_RW	acq3_RW	3	15	453	1	300	300	498	46	0	1	1	blank2r.bmp	0	1	+	0	1	blank2r.bmp	492	1	MQQM	492	1	blank2r.bmp	572	1	schlecht	866	1	!	1292	1	!	1399	0	0	0	0	0	0	0	0	0	0	0	0	0	0	0	0	0	0	0	0	0	0	0	0	0	0	0	0	0	0
081219	11:34:40	11:39:11	269527	5.0.10.0	5_exp_RW	95	Rpleas_acq	CS_B	GWWG	YDDY	MQQM	BZZB	VKKV	JXXJ	schön	ehrlich	treu	spielen	retten	fair	schlecht	eitel	tot	strafen	rächen	faul	1	acq_USpleas_CSpleas1_RW	acq3_RW	3	16	453	1	300	300	418	50	0	1	1	blank2r.bmp	0	1	+	0	1	blank2r.bmp	492	1	GWWG	492	1	blank2r.bmp	572	3	treu	866	1	!	1292	1	!	1319	0	0	0	0	0	0	0	0	0	0	0	0	0	0	0	0	0	0	0	0	0	0	0	0	0	0	0	0	0	0
081219	11:34:40	11:39:14	271659	5.0.10.0	5_exp_RW	95	Rpleas_acq	CS_B	GWWG	YDDY	MQQM	BZZB	VKKV	JXXJ	schön	ehrlich	treu	spielen	retten	fair	schlecht	eitel	tot	strafen	rächen	faul	1	acq_USpleas_CSpleas2_RW	acq3_RW	3	17	453	0	300	300	369	50	0	1	1	blank2r.bmp	0	1	+	0	1	blank2r.bmp	492	1	YDDY	492	1	blank2r.bmp	572	1	spielen	866	1	!	-1	1	!	-1	0	0	0	0	0	0	0	0	0	0	0	0	0	0	0	0	0	0	0	0	0	0	0	0	0	0	0	0	0	0
081219	11:34:40	11:39:16	273911	5.0.10.0	5_exp_RW	95	Rpleas_acq	CS_B	GWWG	YDDY	MQQM	BZZB	VKKV	JXXJ	schön	ehrlich	treu	spielen	retten	fair	schlecht	eitel	tot	strafen	rächen	faul	1	acq_USpleas_CSpleas2_RW	acq3_RW	3	18	453	1	300	300	447	50	0	1	1	blank2r.bmp	0	1	+	0	1	blank2r.bmp	492	1	YDDY	492	1	blank2r.bmp	572	2	retten	866	1	!	1292	1	!	1346	0	0	0	0	0	0	0	0	0	0	0	0	0	0	0	0	0	0	0	0	0	0	0	0	0	0	0	0	0	0
081219	11:34:40	11:39:18	276270	5.0.10.0	5_exp_RW	95	Rpleas_acq	CS_B	GWWG	YDDY	MQQM	BZZB	VKKV	JXXJ	schön	ehrlich	treu	spielen	retten	fair	schlecht	eitel	tot	strafen	rächen	faul	1	acq_USunple_CSunple2_RW	acq3_RW	3	19	453	0	300	300	366	50	0	0	1	blank2r.bmp	0	1	+	0	1	blank2r.bmp	492	1	BZZB	492	1	blank2r.bmp	572	2	rächen	866	1	FEHLER	1572	1	!	-1	1	!	-1	0	0	0	0	0	0	0	0	0	0	0	0	0	0	0	0	0	0	0	0	0	0	0	0	0	0	0
081219	11:34:40	11:39:20	278469	5.0.10.0	5_exp_RW	95	Rpleas_acq	CS_B	GWWG	YDDY	MQQM	BZZB	VKKV	JXXJ	schön	ehrlich	treu	spielen	retten	fair	schlecht	eitel	tot	strafen	rächen	faul	1	acq_USunple_CSunple2_RW	acq3_RW	3	20	453	1	300	300	411	50	0	0	1	blank2r.bmp	0	1	+	0	1	blank2r.bmp	492	1	BZZB	492	1	blank2r.bmp	572	1	strafen	866	1	FEHLER	1625	1	!	1292	1	!	1306	0	0	0	0	0	0	0	0	0	0	0	0	0	0	0	0	0	0	0	0	0	0	0	0	0	0	0
081219	11:34:40	11:39:22	280389	5.0.10.0	5_exp_RW	95	Rpleas_acq	CS_B	GWWG	YDDY	MQQM	BZZB	VKKV	JXXJ	schön	ehrlich	treu	spielen	retten	fair	schlecht	eitel	tot	strafen	rächen	faul	1	acq_USunple_CSunple2_RW	acq3_RW	3	21	453	0	300	300	366	46	0	1	1	blank2r.bmp	0	1	+	0	1	blank2r.bmp	492	1	BZZB	492	1	blank2r.bmp	572	3	faul	866	1	!	-1	1	!	-1	0	0	0	0	0	0	0	0	0	0	0	0	0	0	0	0	0	0	0	0	0	0	0	0	0	0	0	0	0	0
081219	11:34:40	11:39:24	282601	5.0.10.0	5_exp_RW	95	Rpleas_acq	CS_B	GWWG	YDDY	MQQM	BZZB	VKKV	JXXJ	schön	ehrlich	treu	spielen	retten	fair	schlecht	eitel	tot	strafen	rächen	faul	1	acq_USunple_CSunple1_RW	acq3_RW	3	22	453	1	300	300	399	46	0	1	1	blank2r.bmp	0	1	+	0	1	blank2r.bmp	492	1	MQQM	492	1	blank2r.bmp	572	3	tot	866	1	!	1292	1	!	1306	0	0	0	0	0	0	0	0	0	0	0	0	0	0	0	0	0	0	0	0	0	0	0	0	0	0	0	0	0	0
081219	11:34:40	11:39:27	284827	5.0.10.0	5_exp_RW	95	Rpleas_acq	CS_B	GWWG	YDDY	MQQM	BZZB	VKKV	JXXJ	schön	ehrlich	treu	spielen	retten	fair	schlecht	eitel	tot	strafen	rächen	faul	1	acq_USunple_CSunple1_RW	acq3_RW	3	23	453	1	300	300	427	46	0	1	1	blank2r.bmp	0	1	+	0	1	blank2r.bmp	492	1	MQQM	492	1	blank2r.bmp	572	2	eitel	866	1	!	1292	1	!	1332	0	0	0	0	0	0	0	0	0	0	0	0	0	0	0	0	0	0	0	0	0	0	0	0	0	0	0	0	0	0
081219	11:34:40	11:39:29	287199	5.0.10.0	5_exp_RW	95	Rpleas_acq	CS_B	GWWG	YDDY	MQQM	BZZB	VKKV	JXXJ	schön	ehrlich	treu	spielen	retten	fair	schlecht	eitel	tot	strafen	rächen	faul	1	acq_USunple_CSunple2_RW	acq3_RW	3	24	453	0	300	300	374	50	0	0	1	blank2r.bmp	0	1	+	0	1	blank2r.bmp	492	1	BZZB	492	1	blank2r.bmp	572	1	strafen	866	1	FEHLER	1585	1	!	-1	1	!	-1	0	0	0	0	0	0	0	0	0	0	0	0	0	0	0	0	0	0	0	0	0	0	0	0	0	0	0
081219	11:34:40	11:39:43	301633	5.0.10.0	5_exp_RW	95	Rpleas_acq	CS_B	GWWG	YDDY	MQQM	BZZB	VKKV	JXXJ	schön	ehrlich	treu	spielen	retten	fair	schlecht	eitel	tot	strafen	rächen	faul	1	acq_USunple_CSunple2_RW	acq4567_RW	4	1	400	1	300	300	434	46	0	1	1	blank2r.bmp	0	1	+	0	1	blank2r.bmp	492	1	BZZB	492	1	blank2r.bmp	572	3	faul	866	1	!	1239	1	!	1332	0	0	0	0	0	0	0	0	0	0	0	0	0	0	0	0	0	0	0	0	0	0	0	0	0	0	0	0	0	0
081219	11:34:40	11:39:46	303819	5.0.10.0	5_exp_RW	95	Rpleas_acq	CS_B	GWWG	YDDY	MQQM	BZZB	VKKV	JXXJ	schön	ehrlich	treu	spielen	retten	fair	schlecht	eitel	tot	strafen	rächen	faul	1	acq_USpleas_CSpleas2_RW	acq4567_RW	4	2	400	1	300	300	390	50	0	1	1	blank2r.bmp	0	1	+	0	1	blank2r.bmp	492	1	YDDY	492	1	blank2r.bmp	572	1	spielen	866	1	!	1239	1	!	1292	0	0	0	0	0	0	0	0	0	0	0	0	0	0	0	0	0	0	0	0	0	0	0	0	0	0	0	0	0	0
081219	11:34:40	11:39:48	305965	5.0.10.0	5_exp_RW	95	Rpleas_acq	CS_B	GWWG	YDDY	MQQM	BZZB	VKKV	JXXJ	schön	ehrlich	treu	spielen	retten	fair	schlecht	eitel	tot	strafen	rächen	faul	1	acq_USunple_CSunple2_RW	acq4567_RW	4	3	400	1	300	300	351	46	0	1	1	blank2r.bmp	0	1	+	0	1	blank2r.bmp	492	1	BZZB	492	1	blank2r.bmp	572	2	rächen	866	1	!	1239	1	!	1252	0	0	0	0	0	0	0	0	0	0	0	0	0	0	0	0	0	0	0	0	0	0	0	0	0	0	0	0	0	0
081219	11:34:40	11:39:50	308137	5.0.10.0	5_exp_RW	95	Rpleas_acq	CS_B	GWWG	YDDY	MQQM	BZZB	VKKV	JXXJ	schön	ehrlich	treu	spielen	retten	fair	schlecht	eitel	tot	strafen	rächen	faul	1	acq_USpleas_CSpleas2_RW	acq4567_RW	4	4	400	1	300	300	380	46	0	0	1	blank2r.bmp	0	1	+	0	1	blank2r.bmp	492	1	YDDY	492	1	blank2r.bmp	572	3	fair	866	1	!	1239	1	!	1279	0	0	0	0	0	0	0	0	0	0	0	0	0	0	0	0	0	0	0	0	0	0	0	0	0	0	0	0	0	0
081219	11:34:40	11:39:52	310309	5.0.10.0	5_exp_RW	95	Rpleas_acq	CS_B	GWWG	YDDY	MQQM	BZZB	VKKV	JXXJ	schön	ehrlich	treu	spielen	retten	fair	schlecht	eitel	tot	strafen	rächen	faul	1	acq_USunple_CSunple2_RW	acq4567_RW	4	5	400	1	300	300	374	46	0	1	1	blank2r.bmp	0	1	+	0	1	blank2r.bmp	492	1	BZZB	492	1	blank2r.bmp	572	3	faul	866	1	!	1239	1	!	1279	0	0	0	0	0	0	0	0	0	0	0	0	0	0	0	0	0	0	0	0	0	0	0	0	0	0	0	0	0	0
081219	11:34:40	11:39:54	312495	5.0.10.0	5_exp_RW	95	Rpleas_acq	CS_B	GWWG	YDDY	MQQM	BZZB	VKKV	JXXJ	schön	ehrlich	treu	spielen	retten	fair	schlecht	eitel	tot	strafen	rächen	faul	1	acq_USpleas_CSpleas1_RW	acq4567_RW	4	6	400	1	300	300	376	50	0	1	1	blank2r.bmp	0	1	+	0	1	blank2r.bmp	492	1	GWWG	492	1	blank2r.bmp	572	1	schön	866	1	!	1239	1	!	1279	0	0	0	0	0	0	0	0	0	0	0	0	0	0	0	0	0	0	0	0	0	0	0	0	0	0	0	0	0	0
081219	11:34:40	11:39:57	314681	5.0.10.0	5_exp_RW	95	Rpleas_acq	CS_B	GWWG	YDDY	MQQM	BZZB	VKKV	JXXJ	schön	ehrlich	treu	spielen	retten	fair	schlecht	eitel	tot	strafen	rächen	faul	1	acq_USunple_CSunple1_RW	acq4567_RW	4	7	400	1	300	300	379	46	0	1	1	blank2r.bmp	0	1	+	0	1	blank2r.bmp	492	1	MQQM	492	1	blank2r.bmp	572	1	schlecht	866	1	!	1239	1	!	1279	0	0	0	0	0	0	0	0	0	0	0	0	0	0	0	0	0	0	0	0	0	0	0	0	0	0	0	0	0	0
081219	11:34:40	11:39:59	316773	5.0.10.0	5_exp_RW	95	Rpleas_acq	CS_B	GWWG	YDDY	MQQM	BZZB	VKKV	JXXJ	schön	ehrlich	treu	spielen	retten	fair	schlecht	eitel	tot	strafen	rächen	faul	1	acq_USpleas_CSpleas2_RW	acq4567_RW	4	8	400	0	300	300	322	50	0	1	1	blank2r.bmp	0	1	+	0	1	blank2r.bmp	492	1	YDDY	492	1	blank2r.bmp	572	2	retten	866	1	!	-1	1	!	-1	0	0	0	0	0	0	0	0	0	0	0	0	0	0	0	0	0	0	0	0	0	0	0	0	0	0	0	0	0	0
081219	11:34:40	11:40:01	319026	5.0.10.0	5_exp_RW	95	Rpleas_acq	CS_B	GWWG	YDDY	MQQM	BZZB	VKKV	JXXJ	schön	ehrlich	treu	spielen	retten	fair	schlecht	eitel	tot	strafen	rächen	faul	1	acq_USunple_CSunple1_RW	acq4567_RW	4	9	400	1	300	300	449	46	0	1	1	blank2r.bmp	0	1	+	0	1	blank2r.bmp	492	1	MQQM	492	1	blank2r.bmp	572	3	tot	866	1	!	1239	1	!	1346	0	0	0	0	0	0	0	0	0	0	0	0	0	0	0	0	0	0	0	0	0	0	0	0	0	0	0	0	0	0
081219	11:34:40	11:40:03	321265	5.0.10.0	5_exp_RW	95	Rpleas_acq	CS_B	GWWG	YDDY	MQQM	BZZB	VKKV	JXXJ	schön	ehrlich	treu	spielen	retten	fair	schlecht	eitel	tot	strafen	rächen	faul	1	acq_USunple_CSunple1_RW	acq4567_RW	4	10	400	1	300	300	447	46	0	1	1	blank2r.bmp	0	1	+	0	1	blank2r.bmp	492	1	MQQM	492	1	blank2r.bmp	572	3	tot	866	1	!	1239	1	!	1346	0	0	0	0	0	0	0	0	0	0	0	0	0	0	0	0	0	0	0	0	0	0	0	0	0	0	0	0	0	0
081219	11:34:40	11:40:05	323437	5.0.10.0	5_exp_RW	95	Rpleas_acq	CS_B	GWWG	YDDY	MQQM	BZZB	VKKV	JXXJ	schön	ehrlich	treu	spielen	retten	fair	schlecht	eitel	tot	strafen	rächen	faul	1	acq_USpleas_CSpleas2_RW	acq4567_RW	4	11	400	1	300	300	384	50	0	1	1	blank2r.bmp	0	1	+	0	1	blank2r.bmp	492	1	YDDY	492	1	blank2r.bmp	572	1	spielen	866	1	!	1239	1	!	1279	0	0	0	0	0	0	0	0	0	0	0	0	0	0	0	0	0	0	0	0	0	0	0	0	0	0	0	0	0	0
081219	11:34:40	11:40:07	325610	5.0.10.0	5_exp_RW	95	Rpleas_acq	CS_B	GWWG	YDDY	MQQM	BZZB	VKKV	JXXJ	schön	ehrlich	treu	spielen	retten	fair	schlecht	eitel	tot	strafen	rächen	faul	1	acq_USunple_CSunple2_RW	acq4567_RW	4	12	400	1	300	300	380	50	0	0	1	blank2r.bmp	0	1	+	0	1	blank2r.bmp	492	1	BZZB	492	1	blank2r.bmp	572	1	strafen	866	1	!	1239	1	!	1279	0	0	0	0	0	0	0	0	0	0	0	0	0	0	0	0	0	0	0	0	0	0	0	0	0	0	0	0	0	0
081219	11:34:40	11:40:10	327902	5.0.10.0	5_exp_RW	95	Rpleas_acq	CS_B	GWWG	YDDY	MQQM	BZZB	VKKV	JXXJ	schön	ehrlich	treu	spielen	retten	fair	schlecht	eitel	tot	strafen	rächen	faul	1	acq_USunple_CSunple2_RW	acq4567_RW	4	13	400	0	300	300	525	46	0	1	1	blank2r.bmp	0	1	+	0	1	blank2r.bmp	492	1	BZZB	492	1	blank2r.bmp	572	2	rächen	866	1	!	1239	1	!	-1	0	0	0	0	0	0	0	0	0	0	0	0	0	0	0	0	0	0	0	0	0	0	0	0	0	0	0	0	0	0
081219	11:34:40	11:40:12	330154	5.0.10.0	5_exp_RW	95	Rpleas_acq	CS_B	GWWG	YDDY	MQQM	BZZB	VKKV	JXXJ	schön	ehrlich	treu	spielen	retten	fair	schlecht	eitel	tot	strafen	rächen	faul	1	acq_USpleas_CSpleas1_RW	acq4567_RW	4	14	400	1	300	300	448	50	0	1	1	blank2r.bmp	0	1	+	0	1	blank2r.bmp	492	1	GWWG	492	1	blank2r.bmp	572	2	ehrlich	866	1	!	1239	1	!	1346	0	0	0	0	0	0	0	0	0	0	0	0	0	0	0	0	0	0	0	0	0	0	0	0	0	0	0	0	0	0
081219	11:34:40	11:40:14	332394	5.0.10.0	5_exp_RW	95	Rpleas_acq	CS_B	GWWG	YDDY	MQQM	BZZB	VKKV	JXXJ	schön	ehrlich	treu	spielen	retten	fair	schlecht	eitel	tot	strafen	rächen	faul	1	acq_USpleas_CSpleas2_RW	acq4567_RW	4	15	400	1	300	300	436	50	0	1	1	blank2r.bmp	0	1	+	0	1	blank2r.bmp	492	1	YDDY	492	1	blank2r.bmp	572	3	fair	866	1	!	1239	1	!	1332	0	0	0	0	0	0	0	0	0	0	0	0	0	0	0	0	0	0	0	0	0	0	0	0	0	0	0	0	0	0
081219	11:34:40	11:40:16	334566	5.0.10.0	5_exp_RW	95	Rpleas_acq	CS_B	GWWG	YDDY	MQQM	BZZB	VKKV	JXXJ	schön	ehrlich	treu	spielen	retten	fair	schlecht	eitel	tot	strafen	rächen	faul	1	acq_USpleas_CSpleas1_RW	acq4567_RW	4	16	400	1	300	300	376	50	0	1	1	blank2r.bmp	0	1	+	0	1	blank2r.bmp	492	1	GWWG	492	1	blank2r.bmp	572	1	schön	866	1	!	1239	1	!	1279	0	0	0	0	0	0	0	0	0	0	0	0	0	0	0	0	0	0	0	0	0	0	0	0	0	0	0	0	0	0
081219	11:34:40	11:40:19	336712	5.0.10.0	5_exp_RW	95	Rpleas_acq	CS_B	GWWG	YDDY	MQQM	BZZB	VKKV	JXXJ	schön	ehrlich	treu	spielen	retten	fair	schlecht	eitel	tot	strafen	rächen	faul	1	acq_USpleas_CSpleas1_RW	acq4567_RW	4	17	400	1	300	300	346	46	0	0	1	blank2r.bmp	0	1	+	0	1	blank2r.bmp	492	1	GWWG	492	1	blank2r.bmp	572	2	ehrlich	866	1	!	1239	1	!	1252	0	0	0	0	0	0	0	0	0	0	0	0	0	0	0	0	0	0	0	0	0	0	0	0	0	0	0	0	0	0
081219	11:34:40	11:40:21	338858	5.0.10.0	5_exp_RW	95	Rpleas_acq	CS_B	GWWG	YDDY	MQQM	BZZB	VKKV	JXXJ	schön	ehrlich	treu	spielen	retten	fair	schlecht	eitel	tot	strafen	rächen	faul	1	acq_USunple_CSunple1_RW	acq4567_RW	4	18	400	1	300	300	346	50	0	0	1	blank2r.bmp	0	1	+	0	1	blank2r.bmp	492	1	MQQM	492	1	blank2r.bmp	572	1	schlecht	866	1	!	1239	1	!	1252	0	0	0	0	0	0	0	0	0	0	0	0	0	0	0	0	0	0	0	0	0	0	0	0	0	0	0	0	0	0
081219	11:34:40	11:40:23	341177	5.0.10.0	5_exp_RW	95	Rpleas_acq	CS_B	GWWG	YDDY	MQQM	BZZB	VKKV	JXXJ	schön	ehrlich	treu	spielen	retten	fair	schlecht	eitel	tot	strafen	rächen	faul	1	acq_USpleas_CSpleas1_RW	acq4567_RW	4	19	400	0	300	300	533	50	0	1	1	blank2r.bmp	0	1	+	0	1	blank2r.bmp	492	1	GWWG	492	1	blank2r.bmp	572	3	treu	866	1	!	1239	1	!	-1	0	0	0	0	0	0	0	0	0	0	0	0	0	0	0	0	0	0	0	0	0	0	0	0	0	0	0	0	0	0
081219	11:34:40	11:40:25	343402	5.0.10.0	5_exp_RW	95	Rpleas_acq	CS_B	GWWG	YDDY	MQQM	BZZB	VKKV	JXXJ	schön	ehrlich	treu	spielen	retten	fair	schlecht	eitel	tot	strafen	rächen	faul	1	acq_USunple_CSunple1_RW	acq4567_RW	4	20	400	1	300	300	424	50	0	0	1	blank2r.bmp	0	1	+	0	1	blank2r.bmp	492	1	MQQM	492	1	blank2r.bmp	572	2	eitel	866	1	!	1239	1	!	1319	0	0	0	0	0	0	0	0	0	0	0	0	0	0	0	0	0	0	0	0	0	0	0	0	0	0	0	0	0	0
081219	11:34:40	11:40:27	345588	5.0.10.0	5_exp_RW	95	Rpleas_acq	CS_B	GWWG	YDDY	MQQM	BZZB	VKKV	JXXJ	schön	ehrlich	treu	spielen	retten	fair	schlecht	eitel	tot	strafen	rächen	faul	1	acq_USunple_CSunple1_RW	acq4567_RW	4	21	400	1	300	300	390	46	0	1	1	blank2r.bmp	0	1	+	0	1	blank2r.bmp	492	1	MQQM	492	1	blank2r.bmp	572	3	tot	866	1	!	1239	1	!	1292	0	0	0	0	0	0	0	0	0	0	0	0	0	0	0	0	0	0	0	0	0	0	0	0	0	0	0	0	0	0
081219	11:34:40	11:40:30	347987	5.0.10.0	5_exp_RW	95	Rpleas_acq	CS_B	GWWG	YDDY	MQQM	BZZB	VKKV	JXXJ	schön	ehrlich	treu	spielen	retten	fair	schlecht	eitel	tot	strafen	rächen	faul	1	acq_USunple_CSunple1_RW	acq4567_RW	4	22	400	0	300	300	628	46	0	1	1	blank2r.bmp	0	1	+	0	1	blank2r.bmp	492	1	MQQM	492	1	blank2r.bmp	572	1	schlecht	866	1	!	1239	1	!	-1	0	0	0	0	0	0	0	0	0	0	0	0	0	0	0	0	0	0	0	0	0	0	0	0	0	0	0	0	0	0
081219	11:34:40	11:40:32	350066	5.0.10.0	5_exp_RW	95	Rpleas_acq	CS_B	GWWG	YDDY	MQQM	BZZB	VKKV	JXXJ	schön	ehrlich	treu	spielen	retten	fair	schlecht	eitel	tot	strafen	rächen	faul	1	acq_USunple_CSunple2_RW	acq4567_RW	4	23	400	0	300	300	286	46	0	1	1	blank2r.bmp	0	1	+	0	1	blank2r.bmp	492	1	BZZB	492	1	blank2r.bmp	572	2	rächen	866	1	!	-1	1	!	-1	0	0	0	0	0	0	0	0	0	0	0	0	0	0	0	0	0	0	0	0	0	0	0	0	0	0	0	0	0	0
081219	11:34:40	11:40:34	352332	5.0.10.0	5_exp_RW	95	Rpleas_acq	CS_B	GWWG	YDDY	MQQM	BZZB	VKKV	JXXJ	schön	ehrlich	treu	spielen	retten	fair	schlecht	eitel	tot	strafen	rächen	faul	1	acq_USunple_CSunple1_RW	acq4567_RW	4	24	400	1	300	300	454	46	0	1	1	blank2r.bmp	0	1	+	0	1	blank2r.bmp	492	1	MQQM	492	1	blank2r.bmp	572	2	eitel	866	1	!	1239	1	!	1359	0	0	0	0	0	0	0	0	0	0	0	0	0	0	0	0	0	0	0	0	0	0	0	0	0	0	0	0	0	0
081219	11:34:40	11:40:36	354424	5.0.10.0	5_exp_RW	95	Rpleas_acq	CS_B	GWWG	YDDY	MQQM	BZZB	VKKV	JXXJ	schön	ehrlich	treu	spielen	retten	fair	schlecht	eitel	tot	strafen	rächen	faul	1	acq_USunple_CSunple2_RW	acq4567_RW	4	25	400	0	300	300	331	46	0	1	1	blank2r.bmp	0	1	+	0	1	blank2r.bmp	492	1	BZZB	492	1	blank2r.bmp	572	3	faul	866	1	!	-1	1	!	-1	0	0	0	0	0	0	0	0	0	0	0	0	0	0	0	0	0	0	0	0	0	0	0	0	0	0	0	0	0	0
081219	11:34:40	11:40:38	356637	5.0.10.0	5_exp_RW	95	Rpleas_acq	CS_B	GWWG	YDDY	MQQM	BZZB	VKKV	JXXJ	schön	ehrlich	treu	spielen	retten	fair	schlecht	eitel	tot	strafen	rächen	faul	1	acq_USunple_CSunple2_RW	acq4567_RW	4	26	400	1	300	300	409	46	0	1	1	blank2r.bmp	0	1	+	0	1	blank2r.bmp	492	1	BZZB	492	1	blank2r.bmp	572	1	strafen	866	1	!	1239	1	!	1306	0	0	0	0	0	0	0	0	0	0	0	0	0	0	0	0	0	0	0	0	0	0	0	0	0	0	0	0	0	0
081219	11:34:40	11:40:41	358809	5.0.10.0	5_exp_RW	95	Rpleas_acq	CS_B	GWWG	YDDY	MQQM	BZZB	VKKV	JXXJ	schön	ehrlich	treu	spielen	retten	fair	schlecht	eitel	tot	strafen	rächen	faul	1	acq_USpleas_CSpleas1_RW	acq4567_RW	4	27	400	1	300	300	381	50	0	1	1	blank2r.bmp	0	1	+	0	1	blank2r.bmp	492	1	GWWG	492	1	blank2r.bmp	572	3	treu	866	1	!	1239	1	!	1279	0	0	0	0	0	0	0	0	0	0	0	0	0	0	0	0	0	0	0	0	0	0	0	0	0	0	0	0	0	0
081219	11:34:40	11:40:43	361022	5.0.10.0	5_exp_RW	95	Rpleas_acq	CS_B	GWWG	YDDY	MQQM	BZZB	VKKV	JXXJ	schön	ehrlich	treu	spielen	retten	fair	schlecht	eitel	tot	strafen	rächen	faul	1	acq_USpleas_CSpleas2_RW	acq4567_RW	4	28	400	1	300	300	402	50	0	1	1	blank2r.bmp	0	1	+	0	1	blank2r.bmp	492	1	YDDY	492	1	blank2r.bmp	572	2	retten	866	1	!	1239	1	!	1306	0	0	0	0	0	0	0	0	0	0	0	0	0	0	0	0	0	0	0	0	0	0	0	0	0	0	0	0	0	0
081219	11:34:40	11:40:45	363061	5.0.10.0	5_exp_RW	95	Rpleas_acq	CS_B	GWWG	YDDY	MQQM	BZZB	VKKV	JXXJ	schön	ehrlich	treu	spielen	retten	fair	schlecht	eitel	tot	strafen	rächen	faul	1	acq_USpleas_CSpleas2_RW	acq4567_RW	4	29	400	0	300	300	269	50	0	1	1	blank2r.bmp	0	1	+	0	1	blank2r.bmp	492	1	YDDY	492	1	blank2r.bmp	572	1	spielen	866	1	!	-1	1	!	-1	0	0	0	0	0	0	0	0	0	0	0	0	0	0	0	0	0	0	0	0	0	0	0	0	0	0	0	0	0	0
081219	11:34:40	11:40:47	365273	5.0.10.0	5_exp_RW	95	Rpleas_acq	CS_B	GWWG	YDDY	MQQM	BZZB	VKKV	JXXJ	schön	ehrlich	treu	spielen	retten	fair	schlecht	eitel	tot	strafen	rächen	faul	1	acq_USunple_CSunple2_RW	acq4567_RW	4	30	400	1	300	300	404	46	0	1	1	blank2r.bmp	0	1	+	0	1	blank2r.bmp	492	1	BZZB	492	1	blank2r.bmp	572	1	strafen	866	1	!	1239	1	!	1306	0	0	0	0	0	0	0	0	0	0	0	0	0	0	0	0	0	0	0	0	0	0	0	0	0	0	0	0	0	0
081219	11:34:40	11:40:49	367512	5.0.10.0	5_exp_RW	95	Rpleas_acq	CS_B	GWWG	YDDY	MQQM	BZZB	VKKV	JXXJ	schön	ehrlich	treu	spielen	retten	fair	schlecht	eitel	tot	strafen	rächen	faul	1	acq_USpleas_CSpleas2_RW	acq4567_RW	4	31	400	1	300	300	444	46	0	0	1	blank2r.bmp	0	1	+	0	1	blank2r.bmp	492	1	YDDY	492	1	blank2r.bmp	572	3	fair	866	1	!	1239	1	!	1346	0	0	0	0	0	0	0	0	0	0	0	0	0	0	0	0	0	0	0	0	0	0	0	0	0	0	0	0	0	0
081219	11:34:40	11:40:52	369725	5.0.10.0	5_exp_RW	95	Rpleas_acq	CS_B	GWWG	YDDY	MQQM	BZZB	VKKV	JXXJ	schön	ehrlich	treu	spielen	retten	fair	schlecht	eitel	tot	strafen	rächen	faul	1	acq_USunple_CSunple2_RW	acq4567_RW	4	32	400	1	300	300	423	46	0	1	1	blank2r.bmp	0	1	+	0	1	blank2r.bmp	492	1	BZZB	492	1	blank2r.bmp	572	2	rächen	866	1	!	1239	1	!	1319	0	0	0	0	0	0	0	0	0	0	0	0	0	0	0	0	0	0	0	0	0	0	0	0	0	0	0	0	0	0
081219	11:34:40	11:40:54	371937	5.0.10.0	5_exp_RW	95	Rpleas_acq	CS_B	GWWG	YDDY	MQQM	BZZB	VKKV	JXXJ	schön	ehrlich	treu	spielen	retten	fair	schlecht	eitel	tot	strafen	rächen	faul	1	acq_USpleas_CSpleas2_RW	acq4567_RW	4	33	400	1	300	300	414	50	0	1	1	blank2r.bmp	0	1	+	0	1	blank2r.bmp	492	1	YDDY	492	1	blank2r.bmp	572	2	retten	866	1	!	1239	1	!	1319	0	0	0	0	0	0	0	0	0	0	0	0	0	0	0	0	0	0	0	0	0	0	0	0	0	0	0	0	0	0
081219	11:34:40	11:40:56	374189	5.0.10.0	5_exp_RW	95	Rpleas_acq	CS_B	GWWG	YDDY	MQQM	BZZB	VKKV	JXXJ	schön	ehrlich	treu	spielen	retten	fair	schlecht	eitel	tot	strafen	rächen	faul	1	acq_USunple_CSunple1_RW	acq4567_RW	4	34	400	0	300	300	480	46	0	1	1	blank2r.bmp	0	1	+	0	1	blank2r.bmp	492	1	MQQM	492	1	blank2r.bmp	572	3	tot	866	1	!	1239	1	!	-1	0	0	0	0	0	0	0	0	0	0	0	0	0	0	0	0	0	0	0	0	0	0	0	0	0	0	0	0	0	0
081219	11:34:40	11:40:58	376468	5.0.10.0	5_exp_RW	95	Rpleas_acq	CS_B	GWWG	YDDY	MQQM	BZZB	VKKV	JXXJ	schön	ehrlich	treu	spielen	retten	fair	schlecht	eitel	tot	strafen	rächen	faul	1	acq_USpleas_CSpleas1_RW	acq4567_RW	4	35	400	0	300	300	494	50	0	1	1	blank2r.bmp	0	1	+	0	1	blank2r.bmp	492	1	GWWG	492	1	blank2r.bmp	572	2	ehrlich	866	1	!	1239	1	!	-1	0	0	0	0	0	0	0	0	0	0	0	0	0	0	0	0	0	0	0	0	0	0	0	0	0	0	0	0	0	0
081219	11:34:40	11:41:01	378641	5.0.10.0	5_exp_RW	95	Rpleas_acq	CS_B	GWWG	YDDY	MQQM	BZZB	VKKV	JXXJ	schön	ehrlich	treu	spielen	retten	fair	schlecht	eitel	tot	strafen	rächen	faul	1	acq_USpleas_CSpleas1_RW	acq4567_RW	4	36	400	1	300	300	363	50	0	1	1	blank2r.bmp	0	1	+	0	1	blank2r.bmp	492	1	GWWG	492	1	blank2r.bmp	572	1	schön	866	1	!	1239	1	!	1266	0	0	0	0	0	0	0	0	0	0	0	0	0	0	0	0	0	0	0	0	0	0	0	0	0	0	0	0	0	0
081219	11:34:40	11:41:03	380800	5.0.10.0	5_exp_RW	95	Rpleas_acq	CS_B	GWWG	YDDY	MQQM	BZZB	VKKV	JXXJ	schön	ehrlich	treu	spielen	retten	fair	schlecht	eitel	tot	strafen	rächen	faul	1	acq_USunple_CSunple1_RW	acq4567_RW	4	37	400	1	300	300	361	50	0	0	1	blank2r.bmp	0	1	+	0	1	blank2r.bmp	492	1	MQQM	492	1	blank2r.bmp	572	2	eitel	866	1	!	1239	1	!	1266	0	0	0	0	0	0	0	0	0	0	0	0	0	0	0	0	0	0	0	0	0	0	0	0	0	0	0	0	0	0
081219	11:34:40	11:41:05	382986	5.0.10.0	5_exp_RW	95	Rpleas_acq	CS_B	GWWG	YDDY	MQQM	BZZB	VKKV	JXXJ	schön	ehrlich	treu	spielen	retten	fair	schlecht	eitel	tot	strafen	rächen	faul	1	acq_USpleas_CSpleas1_RW	acq4567_RW	4	38	400	1	300	300	393	46	0	0	1	blank2r.bmp	0	1	+	0	1	blank2r.bmp	492	1	GWWG	492	1	blank2r.bmp	572	3	treu	866	1	!	1239	1	!	1292	0	0	0	0	0	0	0	0	0	0	0	0	0	0	0	0	0	0	0	0	0	0	0	0	0	0	0	0	0	0
081219	11:34:40	11:41:07	385318	5.0.10.0	5_exp_RW	95	Rpleas_acq	CS_B	GWWG	YDDY	MQQM	BZZB	VKKV	JXXJ	schön	ehrlich	treu	spielen	retten	fair	schlecht	eitel	tot	strafen	rächen	faul	1	acq_USpleas_CSpleas1_RW	acq4567_RW	4	39	400	0	300	300	563	46	0	0	1	blank2r.bmp	0	1	+	0	1	blank2r.bmp	492	1	GWWG	492	1	blank2r.bmp	572	1	schön	866	1	!	1239	1	!	-1	0	0	0	0	0	0	0	0	0	0	0	0	0	0	0	0	0	0	0	0	0	0	0	0	0	0	0	0	0	0
081219	11:34:40	11:41:09	387570	5.0.10.0	5_exp_RW	95	Rpleas_acq	CS_B	GWWG	YDDY	MQQM	BZZB	VKKV	JXXJ	schön	ehrlich	treu	spielen	retten	fair	schlecht	eitel	tot	strafen	rächen	faul	1	acq_USpleas_CSpleas2_RW	acq4567_RW	4	40	400	1	300	300	448	50	0	1	1	blank2r.bmp	0	1	+	0	1	blank2r.bmp	492	1	YDDY	492	1	blank2r.bmp	572	3	fair	866	1	!	1239	1	!	1346	0	0	0	0	0	0	0	0	0	0	0	0	0	0	0	0	0	0	0	0	0	0	0	0	0	0	0	0	0	0
081219	11:34:40	11:41:12	389743	5.0.10.0	5_exp_RW	95	Rpleas_acq	CS_B	GWWG	YDDY	MQQM	BZZB	VKKV	JXXJ	schön	ehrlich	treu	spielen	retten	fair	schlecht	eitel	tot	strafen	rächen	faul	1	acq_USpleas_CSpleas1_RW	acq4567_RW	4	41	400	1	300	300	378	50	0	1	1	blank2r.bmp	0	1	+	0	1	blank2r.bmp	492	1	GWWG	492	1	blank2r.bmp	572	2	ehrlich	866	1	!	1239	1	!	1279	0	0	0	0	0	0	0	0	0	0	0	0	0	0	0	0	0	0	0	0	0	0	0	0	0	0	0	0	0	0
081219	11:34:40	11:41:14	391929	5.0.10.0	5_exp_RW	95	Rpleas_acq	CS_B	GWWG	YDDY	MQQM	BZZB	VKKV	JXXJ	schön	ehrlich	treu	spielen	retten	fair	schlecht	eitel	tot	strafen	rächen	faul	1	acq_USpleas_CSpleas2_RW	acq4567_RW	4	42	400	1	300	300	373	50	0	1	1	blank2r.bmp	0	1	+	0	1	blank2r.bmp	492	1	YDDY	492	1	blank2r.bmp	572	1	spielen	866	1	!	1239	1	!	1279	0	0	0	0	0	0	0	0	0	0	0	0	0	0	0	0	0	0	0	0	0	0	0	0	0	0	0	0	0	0
081219	11:34:40	11:41:16	394194	5.0.10.0	5_exp_RW	95	Rpleas_acq	CS_B	GWWG	YDDY	MQQM	BZZB	VKKV	JXXJ	schön	ehrlich	treu	spielen	retten	fair	schlecht	eitel	tot	strafen	rächen	faul	1	acq_USunple_CSunple1_RW	acq4567_RW	4	43	400	1	300	300	458	46	0	1	1	blank2r.bmp	0	1	+	0	1	blank2r.bmp	492	1	MQQM	492	1	blank2r.bmp	572	1	schlecht	866	1	!	1239	1	!	1359	0	0	0	0	0	0	0	0	0	0	0	0	0	0	0	0	0	0	0	0	0	0	0	0	0	0	0	0	0	0
081219	11:34:40	11:41:18	396487	5.0.10.0	5_exp_RW	95	Rpleas_acq	CS_B	GWWG	YDDY	MQQM	BZZB	VKKV	JXXJ	schön	ehrlich	treu	spielen	retten	fair	schlecht	eitel	tot	strafen	rächen	faul	1	acq_USpleas_CSpleas1_RW	acq4567_RW	4	44	400	0	300	300	530	50	0	1	1	blank2r.bmp	0	1	+	0	1	blank2r.bmp	492	1	GWWG	492	1	blank2r.bmp	572	3	treu	866	1	!	1239	1	!	-1	0	0	0	0	0	0	0	0	0	0	0	0	0	0	0	0	0	0	0	0	0	0	0	0	0	0	0	0	0	0
081219	11:34:40	11:41:21	398659	5.0.10.0	5_exp_RW	95	Rpleas_acq	CS_B	GWWG	YDDY	MQQM	BZZB	VKKV	JXXJ	schön	ehrlich	treu	spielen	retten	fair	schlecht	eitel	tot	strafen	rächen	faul	1	acq_USpleas_CSpleas1_RW	acq4567_RW	4	45	400	1	300	300	350	50	0	1	1	blank2r.bmp	0	1	+	0	1	blank2r.bmp	492	1	GWWG	492	1	blank2r.bmp	572	1	schön	866	1	!	1239	1	!	1252	0	0	0	0	0	0	0	0	0	0	0	0	0	0	0	0	0	0	0	0	0	0	0	0	0	0	0	0	0	0
081219	11:34:40	11:41:23	400818	5.0.10.0	5_exp_RW	95	Rpleas_acq	CS_B	GWWG	YDDY	MQQM	BZZB	VKKV	JXXJ	schön	ehrlich	treu	spielen	retten	fair	schlecht	eitel	tot	strafen	rächen	faul	1	acq_USunple_CSunple1_RW	acq4567_RW	4	46	400	1	300	300	365	46	0	1	1	blank2r.bmp	0	1	+	0	1	blank2r.bmp	492	1	MQQM	492	1	blank2r.bmp	572	1	schlecht	866	1	!	1239	1	!	1266	0	0	0	0	0	0	0	0	0	0	0	0	0	0	0	0	0	0	0	0	0	0	0	0	0	0	0	0	0	0
081219	11:34:40	11:41:25	402884	5.0.10.0	5_exp_RW	95	Rpleas_acq	CS_B	GWWG	YDDY	MQQM	BZZB	VKKV	JXXJ	schön	ehrlich	treu	spielen	retten	fair	schlecht	eitel	tot	strafen	rächen	faul	1	acq_USpleas_CSpleas2_RW	acq4567_RW	4	47	400	0	300	300	295	50	0	1	1	blank2r.bmp	0	1	+	0	1	blank2r.bmp	492	1	YDDY	492	1	blank2r.bmp	572	2	retten	866	1	!	-1	1	!	-1	0	0	0	0	0	0	0	0	0	0	0	0	0	0	0	0	0	0	0	0	0	0	0	0	0	0	0	0	0	0
081219	11:34:40	11:41:27	405096	5.0.10.0	5_exp_RW	95	Rpleas_acq	CS_B	GWWG	YDDY	MQQM	BZZB	VKKV	JXXJ	schön	ehrlich	treu	spielen	retten	fair	schlecht	eitel	tot	strafen	rächen	faul	1	acq_USunple_CSunple1_RW	acq4567_RW	4	48	400	1	300	300	400	46	0	1	1	blank2r.bmp	0	1	+	0	1	blank2r.bmp	492	1	MQQM	492	1	blank2r.bmp	572	2	eitel	866	1	!	1239	1	!	1306	0	0	0	0	0	0	0	0	0	0	0	0	0	0	0	0	0	0	0	0	0	0	0	0	0	0	0	0	0	0
081219	11:34:40	11:41:29	407322	5.0.10.0	5_exp_RW	95	Rpleas_acq	CS_B	GWWG	YDDY	MQQM	BZZB	VKKV	JXXJ	schön	ehrlich	treu	spielen	retten	fair	schlecht	eitel	tot	strafen	rächen	faul	1	acq_USpleas_CSpleas1_RW	acq4567_RW	4	49	400	1	300	300	434	50	0	1	1	blank2r.bmp	0	1	+	0	1	blank2r.bmp	492	1	GWWG	492	1	blank2r.bmp	572	2	ehrlich	866	1	!	1239	1	!	1332	0	0	0	0	0	0	0	0	0	0	0	0	0	0	0	0	0	0	0	0	0	0	0	0	0	0	0	0	0	0
081219	11:34:40	11:41:31	409561	5.0.10.0	5_exp_RW	95	Rpleas_acq	CS_B	GWWG	YDDY	MQQM	BZZB	VKKV	JXXJ	schön	ehrlich	treu	spielen	retten	fair	schlecht	eitel	tot	strafen	rächen	faul	1	acq_USpleas_CSpleas1_RW	acq4567_RW	4	50	400	1	300	300	443	50	0	1	1	blank2r.bmp	0	1	+	0	1	blank2r.bmp	492	1	GWWG	492	1	blank2r.bmp	572	2	ehrlich	866	1	!	1239	1	!	1346	0	0	0	0	0	0	0	0	0	0	0	0	0	0	0	0	0	0	0	0	0	0	0	0	0	0	0	0	0	0
081219	11:34:40	11:41:34	411760	5.0.10.0	5_exp_RW	95	Rpleas_acq	CS_B	GWWG	YDDY	MQQM	BZZB	VKKV	JXXJ	schön	ehrlich	treu	spielen	retten	fair	schlecht	eitel	tot	strafen	rächen	faul	1	acq_USpleas_CSpleas2_RW	acq4567_RW	4	51	400	1	300	300	411	50	0	1	1	blank2r.bmp	0	1	+	0	1	blank2r.bmp	492	1	YDDY	492	1	blank2r.bmp	572	1	spielen	866	1	!	1239	1	!	1306	0	0	0	0	0	0	0	0	0	0	0	0	0	0	0	0	0	0	0	0	0	0	0	0	0	0	0	0	0	0
081219	11:34:40	11:41:36	413906	5.0.10.0	5_exp_RW	95	Rpleas_acq	CS_B	GWWG	YDDY	MQQM	BZZB	VKKV	JXXJ	schön	ehrlich	treu	spielen	retten	fair	schlecht	eitel	tot	strafen	rächen	faul	1	acq_USunple_CSunple2_RW	acq4567_RW	4	52	400	1	300	300	346	46	0	1	1	blank2r.bmp	0	1	+	0	1	blank2r.bmp	492	1	BZZB	492	1	blank2r.bmp	572	3	faul	866	1	!	1239	1	!	1252	0	0	0	0	0	0	0	0	0	0	0	0	0	0	0	0	0	0	0	0	0	0	0	0	0	0	0	0	0	0
081219	11:34:40	11:41:38	416065	5.0.10.0	5_exp_RW	95	Rpleas_acq	CS_B	GWWG	YDDY	MQQM	BZZB	VKKV	JXXJ	schön	ehrlich	treu	spielen	retten	fair	schlecht	eitel	tot	strafen	rächen	faul	1	acq_USunple_CSunple2_RW	acq4567_RW	4	53	400	1	300	300	361	46	0	1	1	blank2r.bmp	0	1	+	0	1	blank2r.bmp	492	1	BZZB	492	1	blank2r.bmp	572	3	faul	866	1	!	1239	1	!	1266	0	0	0	0	0	0	0	0	0	0	0	0	0	0	0	0	0	0	0	0	0	0	0	0	0	0	0	0	0	0
081219	11:34:40	11:41:40	418318	5.0.10.0	5_exp_RW	95	Rpleas_acq	CS_B	GWWG	YDDY	MQQM	BZZB	VKKV	JXXJ	schön	ehrlich	treu	spielen	retten	fair	schlecht	eitel	tot	strafen	rächen	faul	1	acq_USunple_CSunple2_RW	acq4567_RW	4	54	400	1	300	300	464	50	0	0	1	blank2r.bmp	0	1	+	0	1	blank2r.bmp	492	1	BZZB	492	1	blank2r.bmp	572	2	rächen	866	1	!	1239	1	!	1359	0	0	0	0	0	0	0	0	0	0	0	0	0	0	0	0	0	0	0	0	0	0	0	0	0	0	0	0	0	0
081219	11:34:40	11:41:42	420583	5.0.10.0	5_exp_RW	95	Rpleas_acq	CS_B	GWWG	YDDY	MQQM	BZZB	VKKV	JXXJ	schön	ehrlich	treu	spielen	retten	fair	schlecht	eitel	tot	strafen	rächen	faul	1	acq_USunple_CSunple1_RW	acq4567_RW	4	55	400	0	300	300	501	50	0	0	1	blank2r.bmp	0	1	+	0	1	blank2r.bmp	492	1	MQQM	492	1	blank2r.bmp	572	3	tot	866	1	!	1239	1	!	-1	0	0	0	0	0	0	0	0	0	0	0	0	0	0	0	0	0	0	0	0	0	0	0	0	0	0	0	0	0	0
081219	11:34:40	11:41:45	423049	5.0.10.0	5_exp_RW	95	Rpleas_acq	CS_B	GWWG	YDDY	MQQM	BZZB	VKKV	JXXJ	schön	ehrlich	treu	spielen	retten	fair	schlecht	eitel	tot	strafen	rächen	faul	1	acq_USpleas_CSpleas2_RW	acq4567_RW	4	56	400	0	300	300	683	50	0	1	1	blank2r.bmp	0	1	+	0	1	blank2r.bmp	492	1	YDDY	492	1	blank2r.bmp	572	3	fair	866	1	!	1239	1	!	-1	0	0	0	0	0	0	0	0	0	0	0	0	0	0	0	0	0	0	0	0	0	0	0	0	0	0	0	0	0	0
081219	11:34:40	11:41:47	425128	5.0.10.0	5_exp_RW	95	Rpleas_acq	CS_B	GWWG	YDDY	MQQM	BZZB	VKKV	JXXJ	schön	ehrlich	treu	spielen	retten	fair	schlecht	eitel	tot	strafen	rächen	faul	1	acq_USunple_CSunple2_RW	acq4567_RW	4	57	400	0	300	300	296	46	0	1	1	blank2r.bmp	0	1	+	0	1	blank2r.bmp	492	1	BZZB	492	1	blank2r.bmp	572	1	strafen	866	1	!	-1	1	!	-1	0	0	0	0	0	0	0	0	0	0	0	0	0	0	0	0	0	0	0	0	0	0	0	0	0	0	0	0	0	0
081219	11:34:40	11:41:49	427407	5.0.10.0	5_exp_RW	95	Rpleas_acq	CS_B	GWWG	YDDY	MQQM	BZZB	VKKV	JXXJ	schön	ehrlich	treu	spielen	retten	fair	schlecht	eitel	tot	strafen	rächen	faul	1	acq_USpleas_CSpleas2_RW	acq4567_RW	4	58	400	0	300	300	479	50	0	1	1	blank2r.bmp	0	1	+	0	1	blank2r.bmp	492	1	YDDY	492	1	blank2r.bmp	572	1	spielen	866	1	!	1239	1	!	-1	0	0	0	0	0	0	0	0	0	0	0	0	0	0	0	0	0	0	0	0	0	0	0	0	0	0	0	0	0	0
081219	11:34:40	11:41:52	429873	5.0.10.0	5_exp_RW	95	Rpleas_acq	CS_B	GWWG	YDDY	MQQM	BZZB	VKKV	JXXJ	schön	ehrlich	treu	spielen	retten	fair	schlecht	eitel	tot	strafen	rächen	faul	1	acq_USunple_CSunple1_RW	acq4567_RW	4	59	400	0	300	300	688	46	0	1	1	blank2r.bmp	0	1	+	0	1	blank2r.bmp	492	1	MQQM	492	1	blank2r.bmp	572	2	eitel	866	1	!	1239	1	!	-1	0	0	0	0	0	0	0	0	0	0	0	0	0	0	0	0	0	0	0	0	0	0	0	0	0	0	0	0	0	0
081219	11:34:40	11:41:54	432072	5.0.10.0	5_exp_RW	95	Rpleas_acq	CS_B	GWWG	YDDY	MQQM	BZZB	VKKV	JXXJ	schön	ehrlich	treu	spielen	retten	fair	schlecht	eitel	tot	strafen	rächen	faul	1	acq_USunple_CSunple2_RW	acq4567_RW	4	60	400	1	300	300	394	46	0	1	1	blank2r.bmp	0	1	+	0	1	blank2r.bmp	492	1	BZZB	492	1	blank2r.bmp	572	3	faul	866	1	!	1239	1	!	1292	0	0	0	0	0	0	0	0	0	0	0	0	0	0	0	0	0	0	0	0	0	0	0	0	0	0	0	0	0	0
081219	11:34:40	11:41:56	434218	5.0.10.0	5_exp_RW	95	Rpleas_acq	CS_B	GWWG	YDDY	MQQM	BZZB	VKKV	JXXJ	schön	ehrlich	treu	spielen	retten	fair	schlecht	eitel	tot	strafen	rächen	faul	1	acq_USpleas_CSpleas2_RW	acq4567_RW	4	61	400	1	300	300	350	46	0	0	1	blank2r.bmp	0	1	+	0	1	blank2r.bmp	492	1	YDDY	492	1	blank2r.bmp	572	2	retten	866	1	!	1239	1	!	1252	0	0	0	0	0	0	0	0	0	0	0	0	0	0	0	0	0	0	0	0	0	0	0	0	0	0	0	0	0	0
081219	11:34:40	11:41:58	436470	5.0.10.0	5_exp_RW	95	Rpleas_acq	CS_B	GWWG	YDDY	MQQM	BZZB	VKKV	JXXJ	schön	ehrlich	treu	spielen	retten	fair	schlecht	eitel	tot	strafen	rächen	faul	1	acq_USpleas_CSpleas2_RW	acq4567_RW	4	62	400	0	300	300	488	50	0	1	1	blank2r.bmp	0	1	+	0	1	blank2r.bmp	492	1	YDDY	492	1	blank2r.bmp	572	3	fair	866	1	!	1239	1	!	-1	0	0	0	0	0	0	0	0	0	0	0	0	0	0	0	0	0	0	0	0	0	0	0	0	0	0	0	0	0	0
081219	11:34:40	11:42:00	438629	5.0.10.0	5_exp_RW	95	Rpleas_acq	CS_B	GWWG	YDDY	MQQM	BZZB	VKKV	JXXJ	schön	ehrlich	treu	spielen	retten	fair	schlecht	eitel	tot	strafen	rächen	faul	1	acq_USunple_CSunple2_RW	acq4567_RW	4	63	400	1	300	300	346	50	0	0	1	blank2r.bmp	0	1	+	0	1	blank2r.bmp	492	1	BZZB	492	1	blank2r.bmp	572	2	rächen	866	1	!	1239	1	!	1252	0	0	0	0	0	0	0	0	0	0	0	0	0	0	0	0	0	0	0	0	0	0	0	0	0	0	0	0	0	0
081219	11:34:40	11:42:03	440855	5.0.10.0	5_exp_RW	95	Rpleas_acq	CS_B	GWWG	YDDY	MQQM	BZZB	VKKV	JXXJ	schön	ehrlich	treu	spielen	retten	fair	schlecht	eitel	tot	strafen	rächen	faul	1	acq_USunple_CSunple1_RW	acq4567_RW	4	64	400	1	300	300	437	46	0	1	1	blank2r.bmp	0	1	+	0	1	blank2r.bmp	492	1	MQQM	492	1	blank2r.bmp	572	1	schlecht	866	1	!	1239	1	!	1332	0	0	0	0	0	0	0	0	0	0	0	0	0	0	0	0	0	0	0	0	0	0	0	0	0	0	0	0	0	0
081219	11:34:40	11:42:05	443121	5.0.10.0	5_exp_RW	95	Rpleas_acq	CS_B	GWWG	YDDY	MQQM	BZZB	VKKV	JXXJ	schön	ehrlich	treu	spielen	retten	fair	schlecht	eitel	tot	strafen	rächen	faul	1	acq_USpleas_CSpleas1_RW	acq4567_RW	4	65	400	0	300	300	502	50	0	1	1	blank2r.bmp	0	1	+	0	1	blank2r.bmp	492	1	GWWG	492	1	blank2r.bmp	572	3	treu	866	1	!	1239	1	!	-1	0	0	0	0	0	0	0	0	0	0	0	0	0	0	0	0	0	0	0	0	0	0	0	0	0	0	0	0	0	0
081219	11:34:40	11:42:07	445386	5.0.10.0	5_exp_RW	95	Rpleas_acq	CS_B	GWWG	YDDY	MQQM	BZZB	VKKV	JXXJ	schön	ehrlich	treu	spielen	retten	fair	schlecht	eitel	tot	strafen	rächen	faul	1	acq_USunple_CSunple1_RW	acq4567_RW	4	66	400	1	300	300	458	46	0	1	1	blank2r.bmp	0	1	+	0	1	blank2r.bmp	492	1	MQQM	492	1	blank2r.bmp	572	3	tot	866	1	!	1239	1	!	1359	0	0	0	0	0	0	0	0	0	0	0	0	0	0	0	0	0	0	0	0	0	0	0	0	0	0	0	0	0	0
081219	11:34:40	11:42:09	447625	5.0.10.0	5_exp_RW	95	Rpleas_acq	CS_B	GWWG	YDDY	MQQM	BZZB	VKKV	JXXJ	schön	ehrlich	treu	spielen	retten	fair	schlecht	eitel	tot	strafen	rächen	faul	1	acq_USpleas_CSpleas2_RW	acq4567_RW	4	67	400	1	300	300	450	50	0	1	1	blank2r.bmp	0	1	+	0	1	blank2r.bmp	492	1	YDDY	492	1	blank2r.bmp	572	1	spielen	866	1	!	1239	1	!	1346	0	0	0	0	0	0	0	0	0	0	0	0	0	0	0	0	0	0	0	0	0	0	0	0	0	0	0	0	0	0
081219	11:34:40	11:42:12	449878	5.0.10.0	5_exp_RW	95	Rpleas_acq	CS_B	GWWG	YDDY	MQQM	BZZB	VKKV	JXXJ	schön	ehrlich	treu	spielen	retten	fair	schlecht	eitel	tot	strafen	rächen	faul	1	acq_USunple_CSunple2_RW	acq4567_RW	4	68	400	1	300	300	459	50	0	0	1	blank2r.bmp	0	1	+	0	1	blank2r.bmp	492	1	BZZB	492	1	blank2r.bmp	572	1	strafen	866	1	!	1239	1	!	1359	0	0	0	0	0	0	0	0	0	0	0	0	0	0	0	0	0	0	0	0	0	0	0	0	0	0	0	0	0	0
081219	11:34:40	11:42:14	452197	5.0.10.0	5_exp_RW	95	Rpleas_acq	CS_B	GWWG	YDDY	MQQM	BZZB	VKKV	JXXJ	schön	ehrlich	treu	spielen	retten	fair	schlecht	eitel	tot	strafen	rächen	faul	1	acq_USpleas_CSpleas1_RW	acq4567_RW	4	69	400	0	300	300	552	46	0	0	1	blank2r.bmp	0	1	+	0	1	blank2r.bmp	492	1	GWWG	492	1	blank2r.bmp	572	1	schön	866	1	!	1239	1	!	-1	0	0	0	0	0	0	0	0	0	0	0	0	0	0	0	0	0	0	0	0	0	0	0	0	0	0	0	0	0	0
081219	11:34:40	11:42:16	454409	5.0.10.0	5_exp_RW	95	Rpleas_acq	CS_B	GWWG	YDDY	MQQM	BZZB	VKKV	JXXJ	schön	ehrlich	treu	spielen	retten	fair	schlecht	eitel	tot	strafen	rächen	faul	1	acq_USunple_CSunple2_RW	acq4567_RW	4	70	400	1	300	300	404	46	0	1	1	blank2r.bmp	0	1	+	0	1	blank2r.bmp	492	1	BZZB	492	1	blank2r.bmp	572	1	strafen	866	1	!	1239	1	!	1306	0	0	0	0	0	0	0	0	0	0	0	0	0	0	0	0	0	0	0	0	0	0	0	0	0	0	0	0	0	0
081219	11:34:40	11:42:19	456688	5.0.10.0	5_exp_RW	95	Rpleas_acq	CS_B	GWWG	YDDY	MQQM	BZZB	VKKV	JXXJ	schön	ehrlich	treu	spielen	retten	fair	schlecht	eitel	tot	strafen	rächen	faul	1	acq_USpleas_CSpleas2_RW	acq4567_RW	4	71	400	0	300	300	518	50	0	1	1	blank2r.bmp	0	1	+	0	1	blank2r.bmp	492	1	YDDY	492	1	blank2r.bmp	572	2	retten	866	1	!	1239	1	!	-1	0	0	0	0	0	0	0	0	0	0	0	0	0	0	0	0	0	0	0	0	0	0	0	0	0	0	0	0	0	0
081219	11:34:40	11:42:21	458967	5.0.10.0	5_exp_RW	95	Rpleas_acq	CS_B	GWWG	YDDY	MQQM	BZZB	VKKV	JXXJ	schön	ehrlich	treu	spielen	retten	fair	schlecht	eitel	tot	strafen	rächen	faul	1	acq_USunple_CSunple1_RW	acq4567_RW	4	72	400	0	300	300	501	46	0	1	1	blank2r.bmp	0	1	+	0	1	blank2r.bmp	492	1	MQQM	492	1	blank2r.bmp	572	1	schlecht	866	1	!	1239	1	!	-1	0	0	0	0	0	0	0	0	0	0	0	0	0	0	0	0	0	0	0	0	0	0	0	0	0	0	0	0	0	0
081219	11:34:40	11:42:23	461220	5.0.10.0	5_exp_RW	95	Rpleas_acq	CS_B	GWWG	YDDY	MQQM	BZZB	VKKV	JXXJ	schön	ehrlich	treu	spielen	retten	fair	schlecht	eitel	tot	strafen	rächen	faul	1	acq_USunple_CSunple1_RW	acq4567_RW	4	73	400	1	300	300	448	46	0	1	1	blank2r.bmp	0	1	+	0	1	blank2r.bmp	492	1	MQQM	492	1	blank2r.bmp	572	3	tot	866	1	!	1239	1	!	1346	0	0	0	0	0	0	0	0	0	0	0	0	0	0	0	0	0	0	0	0	0	0	0	0	0	0	0	0	0	0
081219	11:34:40	11:42:25	463499	5.0.10.0	5_exp_RW	95	Rpleas_acq	CS_B	GWWG	YDDY	MQQM	BZZB	VKKV	JXXJ	schön	ehrlich	treu	spielen	retten	fair	schlecht	eitel	tot	strafen	rächen	faul	1	acq_USunple_CSunple2_RW	acq4567_RW	4	74	400	0	300	300	509	50	0	0	1	blank2r.bmp	0	1	+	0	1	blank2r.bmp	492	1	BZZB	492	1	blank2r.bmp	572	3	faul	866	1	!	1239	1	!	-1	0	0	0	0	0	0	0	0	0	0	0	0	0	0	0	0	0	0	0	0	0	0	0	0	0	0	0	0	0	0
081219	11:34:40	11:42:28	465778	5.0.10.0	5_exp_RW	95	Rpleas_acq	CS_B	GWWG	YDDY	MQQM	BZZB	VKKV	JXXJ	schön	ehrlich	treu	spielen	retten	fair	schlecht	eitel	tot	strafen	rächen	faul	1	acq_USunple_CSunple1_RW	acq4567_RW	4	75	400	0	300	300	494	46	0	1	1	blank2r.bmp	0	1	+	0	1	blank2r.bmp	492	1	MQQM	492	1	blank2r.bmp	572	2	eitel	866	1	!	1239	1	!	-1	0	0	0	0	0	0	0	0	0	0	0	0	0	0	0	0	0	0	0	0	0	0	0	0	0	0	0	0	0	0
081219	11:34:40	11:42:30	467977	5.0.10.0	5_exp_RW	95	Rpleas_acq	CS_B	GWWG	YDDY	MQQM	BZZB	VKKV	JXXJ	schön	ehrlich	treu	spielen	retten	fair	schlecht	eitel	tot	strafen	rächen	faul	1	acq_USpleas_CSpleas1_RW	acq4567_RW	4	76	400	1	300	300	387	46	0	0	1	blank2r.bmp	0	1	+	0	1	blank2r.bmp	492	1	GWWG	492	1	blank2r.bmp	572	3	treu	866	1	!	1239	1	!	1292	0	0	0	0	0	0	0	0	0	0	0	0	0	0	0	0	0	0	0	0	0	0	0	0	0	0	0	0	0	0
081219	11:34:40	11:42:32	470203	5.0.10.0	5_exp_RW	95	Rpleas_acq	CS_B	GWWG	YDDY	MQQM	BZZB	VKKV	JXXJ	schön	ehrlich	treu	spielen	retten	fair	schlecht	eitel	tot	strafen	rächen	faul	1	acq_USunple_CSunple2_RW	acq4567_RW	4	77	400	1	300	300	434	46	0	1	1	blank2r.bmp	0	1	+	0	1	blank2r.bmp	492	1	BZZB	492	1	blank2r.bmp	572	2	rächen	866	1	!	1239	1	!	1332	0	0	0	0	0	0	0	0	0	0	0	0	0	0	0	0	0	0	0	0	0	0	0	0	0	0	0	0	0	0
081219	11:34:40	11:42:34	472295	5.0.10.0	5_exp_RW	95	Rpleas_acq	CS_B	GWWG	YDDY	MQQM	BZZB	VKKV	JXXJ	schön	ehrlich	treu	spielen	retten	fair	schlecht	eitel	tot	strafen	rächen	faul	1	acq_USpleas_CSpleas1_RW	acq4567_RW	4	78	400	0	300	300	328	50	0	1	1	blank2r.bmp	0	1	+	0	1	blank2r.bmp	492	1	GWWG	492	1	blank2r.bmp	572	1	schön	866	1	!	-1	1	!	-1	0	0	0	0	0	0	0	0	0	0	0	0	0	0	0	0	0	0	0	0	0	0	0	0	0	0	0	0	0	0
081219	11:34:40	11:42:36	474561	5.0.10.0	5_exp_RW	95	Rpleas_acq	CS_B	GWWG	YDDY	MQQM	BZZB	VKKV	JXXJ	schön	ehrlich	treu	spielen	retten	fair	schlecht	eitel	tot	strafen	rächen	faul	1	acq_USpleas_CSpleas2_RW	acq4567_RW	4	79	400	1	300	300	458	50	0	1	1	blank2r.bmp	0	1	+	0	1	blank2r.bmp	492	1	YDDY	492	1	blank2r.bmp	572	3	fair	866	1	!	1239	1	!	1359	0	0	0	0	0	0	0	0	0	0	0	0	0	0	0	0	0	0	0	0	0	0	0	0	0	0	0	0	0	0
081219	11:34:40	11:42:39	476893	5.0.10.0	5_exp_RW	95	Rpleas_acq	CS_B	GWWG	YDDY	MQQM	BZZB	VKKV	JXXJ	schön	ehrlich	treu	spielen	retten	fair	schlecht	eitel	tot	strafen	rächen	faul	1	acq_USpleas_CSpleas1_RW	acq4567_RW	4	80	400	0	300	300	546	50	0	1	1	blank2r.bmp	0	1	+	0	1	blank2r.bmp	492	1	GWWG	492	1	blank2r.bmp	572	2	ehrlich	866	1	!	1239	1	!	-1	0	0	0	0	0	0	0	0	0	0	0	0	0	0	0	0	0	0	0	0	0	0	0	0	0	0	0	0	0	0
081219	11:34:40	11:42:57	494739	5.0.10.0	5_exp_RW	95	Rpleas_acq	CS_B	GWWG	YDDY	MQQM	BZZB	VKKV	JXXJ	schön	ehrlich	treu	spielen	retten	fair	schlecht	eitel	tot	strafen	rächen	faul	1	acq_USpleas_CSpleas2_RW	acq4567_RW	5	1	400	0	300	300	795	50	0	1	1	blank2r.bmp	0	1	+	0	1	blank2r.bmp	492	1	YDDY	492	1	blank2r.bmp	572	1	spielen	866	1	!	1239	1	!	-1	0	0	0	0	0	0	0	0	0	0	0	0	0	0	0	0	0	0	0	0	0	0	0	0	0	0	0	0	0	0
081219	11:34:40	11:42:59	496938	5.0.10.0	5_exp_RW	95	Rpleas_acq	CS_B	GWWG	YDDY	MQQM	BZZB	VKKV	JXXJ	schön	ehrlich	treu	spielen	retten	fair	schlecht	eitel	tot	strafen	rächen	faul	1	acq_USunple_CSunple2_RW	acq4567_RW	5	2	400	1	300	300	392	46	0	1	1	blank2r.bmp	0	1	+	0	1	blank2r.bmp	492	1	BZZB	492	1	blank2r.bmp	572	2	rächen	866	1	!	1239	1	!	1292	0	0	0	0	0	0	0	0	0	0	0	0	0	0	0	0	0	0	0	0	0	0	0	0	0	0	0	0	0	0
081219	11:34:40	11:43:01	499111	5.0.10.0	5_exp_RW	95	Rpleas_acq	CS_B	GWWG	YDDY	MQQM	BZZB	VKKV	JXXJ	schön	ehrlich	treu	spielen	retten	fair	schlecht	eitel	tot	strafen	rächen	faul	1	acq_USpleas_CSpleas1_RW	acq4567_RW	5	3	400	1	300	300	378	50	0	1	1	blank2r.bmp	0	1	+	0	1	blank2r.bmp	492	1	GWWG	492	1	blank2r.bmp	572	1	schön	866	1	!	1239	1	!	1279	0	0	0	0	0	0	0	0	0	0	0	0	0	0	0	0	0	0	0	0	0	0	0	0	0	0	0	0	0	0
081219	11:34:40	11:43:03	501256	5.0.10.0	5_exp_RW	95	Rpleas_acq	CS_B	GWWG	YDDY	MQQM	BZZB	VKKV	JXXJ	schön	ehrlich	treu	spielen	retten	fair	schlecht	eitel	tot	strafen	rächen	faul	1	acq_USunple_CSunple2_RW	acq4567_RW	5	4	400	1	300	300	346	46	0	1	1	blank2r.bmp	0	1	+	0	1	blank2r.bmp	492	1	BZZB	492	1	blank2r.bmp	572	1	strafen	866	1	!	1239	1	!	1252	0	0	0	0	0	0	0	0	0	0	0	0	0	0	0	0	0	0	0	0	0	0	0	0	0	0	0	0	0	0
081219	11:34:40	11:43:05	503335	5.0.10.0	5_exp_RW	95	Rpleas_acq	CS_B	GWWG	YDDY	MQQM	BZZB	VKKV	JXXJ	schön	ehrlich	treu	spielen	retten	fair	schlecht	eitel	tot	strafen	rächen	faul	1	acq_USunple_CSunple2_RW	acq4567_RW	5	5	400	0	300	300	317	46	0	1	1	blank2r.bmp	0	1	+	0	1	blank2r.bmp	492	1	BZZB	492	1	blank2r.bmp	572	3	faul	866	1	!	-1	1	!	-1	0	0	0	0	0	0	0	0	0	0	0	0	0	0	0	0	0	0	0	0	0	0	0	0	0	0	0	0	0	0
081219	11:34:40	11:43:07	505548	5.0.10.0	5_exp_RW	95	Rpleas_acq	CS_B	GWWG	YDDY	MQQM	BZZB	VKKV	JXXJ	schön	ehrlich	treu	spielen	retten	fair	schlecht	eitel	tot	strafen	rächen	faul	1	acq_USpleas_CSpleas1_RW	acq4567_RW	5	6	400	1	300	300	401	50	0	1	1	blank2r.bmp	0	1	+	0	1	blank2r.bmp	492	1	GWWG	492	1	blank2r.bmp	572	3	treu	866	1	!	1239	1	!	1306	0	0	0	0	0	0	0	0	0	0	0	0	0	0	0	0	0	0	0	0	0	0	0	0	0	0	0	0	0	0
081219	11:34:40	11:43:10	507774	5.0.10.0	5_exp_RW	95	Rpleas_acq	CS_B	GWWG	YDDY	MQQM	BZZB	VKKV	JXXJ	schön	ehrlich	treu	spielen	retten	fair	schlecht	eitel	tot	strafen	rächen	faul	1	acq_USpleas_CSpleas1_RW	acq4567_RW	5	7	400	1	300	300	437	50	0	1	1	blank2r.bmp	0	1	+	0	1	blank2r.bmp	492	1	GWWG	492	1	blank2r.bmp	572	2	ehrlich	866	1	!	1239	1	!	1332	0	0	0	0	0	0	0	0	0	0	0	0	0	0	0	0	0	0	0	0	0	0	0	0	0	0	0	0	0	0
081219	11:34:40	11:43:12	509933	5.0.10.0	5_exp_RW	95	Rpleas_acq	CS_B	GWWG	YDDY	MQQM	BZZB	VKKV	JXXJ	schön	ehrlich	treu	spielen	retten	fair	schlecht	eitel	tot	strafen	rächen	faul	1	acq_USunple_CSunple2_RW	acq4567_RW	5	8	400	1	300	300	354	46	0	1	1	blank2r.bmp	0	1	+	0	1	blank2r.bmp	492	1	BZZB	492	1	blank2r.bmp	572	1	strafen	866	1	!	1239	1	!	1252	0	0	0	0	0	0	0	0	0	0	0	0	0	0	0	0	0	0	0	0	0	0	0	0	0	0	0	0	0	0
081219	11:34:40	11:43:14	512012	5.0.10.0	5_exp_RW	95	Rpleas_acq	CS_B	GWWG	YDDY	MQQM	BZZB	VKKV	JXXJ	schön	ehrlich	treu	spielen	retten	fair	schlecht	eitel	tot	strafen	rächen	faul	1	acq_USpleas_CSpleas2_RW	acq4567_RW	5	9	400	0	300	300	305	50	0	1	1	blank2r.bmp	0	1	+	0	1	blank2r.bmp	492	1	YDDY	492	1	blank2r.bmp	572	3	fair	866	1	!	-1	1	!	-1	0	0	0	0	0	0	0	0	0	0	0	0	0	0	0	0	0	0	0	0	0	0	0	0	0	0	0	0	0	0
081219	11:34:40	11:43:16	514264	5.0.10.0	5_exp_RW	95	Rpleas_acq	CS_B	GWWG	YDDY	MQQM	BZZB	VKKV	JXXJ	schön	ehrlich	treu	spielen	retten	fair	schlecht	eitel	tot	strafen	rächen	faul	1	acq_USunple_CSunple1_RW	acq4567_RW	5	10	400	1	300	300	450	50	0	0	1	blank2r.bmp	0	1	+	0	1	blank2r.bmp	492	1	MQQM	492	1	blank2r.bmp	572	2	eitel	866	1	!	1239	1	!	1346	0	0	0	0	0	0	0	0	0	0	0	0	0	0	0	0	0	0	0	0	0	0	0	0	0	0	0	0	0	0
081219	11:34:40	11:43:18	516530	5.0.10.0	5_exp_RW	95	Rpleas_acq	CS_B	GWWG	YDDY	MQQM	BZZB	VKKV	JXXJ	schön	ehrlich	treu	spielen	retten	fair	schlecht	eitel	tot	strafen	rächen	faul	1	acq_USunple_CSunple1_RW	acq4567_RW	5	11	400	1	300	300	463	46	0	1	1	blank2r.bmp	0	1	+	0	1	blank2r.bmp	492	1	MQQM	492	1	blank2r.bmp	572	3	tot	866	1	!	1239	1	!	1359	0	0	0	0	0	0	0	0	0	0	0	0	0	0	0	0	0	0	0	0	0	0	0	0	0	0	0	0	0	0
081219	11:34:40	11:43:20	518622	5.0.10.0	5_exp_RW	95	Rpleas_acq	CS_B	GWWG	YDDY	MQQM	BZZB	VKKV	JXXJ	schön	ehrlich	treu	spielen	retten	fair	schlecht	eitel	tot	strafen	rächen	faul	1	acq_USpleas_CSpleas2_RW	acq4567_RW	5	12	400	0	300	300	320	46	0	0	1	blank2r.bmp	0	1	+	0	1	blank2r.bmp	492	1	YDDY	492	1	blank2r.bmp	572	2	retten	866	1	!	-1	1	!	-1	0	0	0	0	0	0	0	0	0	0	0	0	0	0	0	0	0	0	0	0	0	0	0	0	0	0	0	0	0	0
081219	11:34:40	11:43:23	520955	5.0.10.0	5_exp_RW	95	Rpleas_acq	CS_B	GWWG	YDDY	MQQM	BZZB	VKKV	JXXJ	schön	ehrlich	treu	spielen	retten	fair	schlecht	eitel	tot	strafen	rächen	faul	1	acq_USpleas_CSpleas1_RW	acq4567_RW	5	13	400	0	300	300	557	50	0	1	1	blank2r.bmp	0	1	+	0	1	blank2r.bmp	492	1	GWWG	492	1	blank2r.bmp	572	3	treu	866	1	!	1239	1	!	-1	0	0	0	0	0	0	0	0	0	0	0	0	0	0	0	0	0	0	0	0	0	0	0	0	0	0	0	0	0	0
081219	11:34:40	11:43:25	523154	5.0.10.0	5_exp_RW	95	Rpleas_acq	CS_B	GWWG	YDDY	MQQM	BZZB	VKKV	JXXJ	schön	ehrlich	treu	spielen	retten	fair	schlecht	eitel	tot	strafen	rächen	faul	1	acq_USunple_CSunple1_RW	acq4567_RW	5	14	400	1	300	300	393	46	0	1	1	blank2r.bmp	0	1	+	0	1	blank2r.bmp	492	1	MQQM	492	1	blank2r.bmp	572	1	schlecht	866	1	!	1239	1	!	1292	0	0	0	0	0	0	0	0	0	0	0	0	0	0	0	0	0	0	0	0	0	0	0	0	0	0	0	0	0	0
081219	11:34:40	11:43:27	525313	5.0.10.0	5_exp_RW	95	Rpleas_acq	CS_B	GWWG	YDDY	MQQM	BZZB	VKKV	JXXJ	schön	ehrlich	treu	spielen	retten	fair	schlecht	eitel	tot	strafen	rächen	faul	1	acq_USunple_CSunple1_RW	acq4567_RW	5	15	400	1	300	300	364	46	0	1	1	blank2r.bmp	0	1	+	0	1	blank2r.bmp	492	1	MQQM	492	1	blank2r.bmp	572	3	tot	866	1	!	1239	1	!	1266	0	0	0	0	0	0	0	0	0	0	0	0	0	0	0	0	0	0	0	0	0	0	0	0	0	0	0	0	0	0
081219	11:34:40	11:43:29	527579	5.0.10.0	5_exp_RW	95	Rpleas_acq	CS_B	GWWG	YDDY	MQQM	BZZB	VKKV	JXXJ	schön	ehrlich	treu	spielen	retten	fair	schlecht	eitel	tot	strafen	rächen	faul	1	acq_USpleas_CSpleas2_RW	acq4567_RW	5	16	400	0	300	300	502	50	0	1	1	blank2r.bmp	0	1	+	0	1	blank2r.bmp	492	1	YDDY	492	1	blank2r.bmp	572	1	spielen	866	1	!	1239	1	!	-1	0	0	0	0	0	0	0	0	0	0	0	0	0	0	0	0	0	0	0	0	0	0	0	0	0	0	0	0	0	0
081219	11:34:40	11:43:32	529818	5.0.10.0	5_exp_RW	95	Rpleas_acq	CS_B	GWWG	YDDY	MQQM	BZZB	VKKV	JXXJ	schön	ehrlich	treu	spielen	retten	fair	schlecht	eitel	tot	strafen	rächen	faul	1	acq_USunple_CSunple2_RW	acq4567_RW	5	17	400	1	300	300	433	46	0	1	1	blank2r.bmp	0	1	+	0	1	blank2r.bmp	492	1	BZZB	492	1	blank2r.bmp	572	2	rächen	866	1	!	1239	1	!	1332	0	0	0	0	0	0	0	0	0	0	0	0	0	0	0	0	0	0	0	0	0	0	0	0	0	0	0	0	0	0
081219	11:34:40	11:43:34	532017	5.0.10.0	5_exp_RW	95	Rpleas_acq	CS_B	GWWG	YDDY	MQQM	BZZB	VKKV	JXXJ	schön	ehrlich	treu	spielen	retten	fair	schlecht	eitel	tot	strafen	rächen	faul	1	acq_USpleas_CSpleas2_RW	acq4567_RW	5	18	400	1	300	300	407	50	0	1	1	blank2r.bmp	0	1	+	0	1	blank2r.bmp	492	1	YDDY	492	1	blank2r.bmp	572	3	fair	866	1	!	1239	1	!	1306	0	0	0	0	0	0	0	0	0	0	0	0	0	0	0	0	0	0	0	0	0	0	0	0	0	0	0	0	0	0
081219	11:34:40	11:43:36	534296	5.0.10.0	5_exp_RW	95	Rpleas_acq	CS_B	GWWG	YDDY	MQQM	BZZB	VKKV	JXXJ	schön	ehrlich	treu	spielen	retten	fair	schlecht	eitel	tot	strafen	rächen	faul	1	acq_USpleas_CSpleas1_RW	acq4567_RW	5	19	400	0	300	300	495	50	0	1	1	blank2r.bmp	0	1	+	0	1	blank2r.bmp	492	1	GWWG	492	1	blank2r.bmp	572	2	ehrlich	866	1	!	1239	1	!	-1	0	0	0	0	0	0	0	0	0	0	0	0	0	0	0	0	0	0	0	0	0	0	0	0	0	0	0	0	0	0
081219	11:34:40	11:43:38	536402	5.0.10.0	5_exp_RW	95	Rpleas_acq	CS_B	GWWG	YDDY	MQQM	BZZB	VKKV	JXXJ	schön	ehrlich	treu	spielen	retten	fair	schlecht	eitel	tot	strafen	rächen	faul	1	acq_USunple_CSunple1_RW	acq4567_RW	5	20	400	0	300	300	311	46	0	1	1	blank2r.bmp	0	1	+	0	1	blank2r.bmp	492	1	MQQM	492	1	blank2r.bmp	572	1	schlecht	866	1	!	-1	1	!	-1	0	0	0	0	0	0	0	0	0	0	0	0	0	0	0	0	0	0	0	0	0	0	0	0	0	0	0	0	0	0
081219	11:34:40	11:43:40	538614	5.0.10.0	5_exp_RW	95	Rpleas_acq	CS_B	GWWG	YDDY	MQQM	BZZB	VKKV	JXXJ	schön	ehrlich	treu	spielen	retten	fair	schlecht	eitel	tot	strafen	rächen	faul	1	acq_USunple_CSunple2_RW	acq4567_RW	5	21	400	1	300	300	391	46	0	1	1	blank2r.bmp	0	1	+	0	1	blank2r.bmp	492	1	BZZB	492	1	blank2r.bmp	572	3	faul	866	1	!	1239	1	!	1292	0	0	0	0	0	0	0	0	0	0	0	0	0	0	0	0	0	0	0	0	0	0	0	0	0	0	0	0	0	0
081219	11:34:40	11:43:43	540973	5.0.10.0	5_exp_RW	95	Rpleas_acq	CS_B	GWWG	YDDY	MQQM	BZZB	VKKV	JXXJ	schön	ehrlich	treu	spielen	retten	fair	schlecht	eitel	tot	strafen	rächen	faul	1	acq_USunple_CSunple2_RW	acq4567_RW	5	22	400	0	300	300	572	46	0	1	1	blank2r.bmp	0	1	+	0	1	blank2r.bmp	492	1	BZZB	492	1	blank2r.bmp	572	3	faul	866	1	!	1239	1	!	-1	0	0	0	0	0	0	0	0	0	0	0	0	0	0	0	0	0	0	0	0	0	0	0	0	0	0	0	0	0	0
081219	11:34:40	11:43:45	543039	5.0.10.0	5_exp_RW	95	Rpleas_acq	CS_B	GWWG	YDDY	MQQM	BZZB	VKKV	JXXJ	schön	ehrlich	treu	spielen	retten	fair	schlecht	eitel	tot	strafen	rächen	faul	1	acq_USpleas_CSpleas1_RW	acq4567_RW	5	23	400	0	300	300	268	50	0	1	1	blank2r.bmp	0	1	+	0	1	blank2r.bmp	492	1	GWWG	492	1	blank2r.bmp	572	1	schön	866	1	!	-1	1	!	-1	0	0	0	0	0	0	0	0	0	0	0	0	0	0	0	0	0	0	0	0	0	0	0	0	0	0	0	0	0	0
081219	11:34:40	11:43:47	545131	5.0.10.0	5_exp_RW	95	Rpleas_acq	CS_B	GWWG	YDDY	MQQM	BZZB	VKKV	JXXJ	schön	ehrlich	treu	spielen	retten	fair	schlecht	eitel	tot	strafen	rächen	faul	1	acq_USpleas_CSpleas2_RW	acq4567_RW	5	24	400	0	300	300	306	50	0	1	1	blank2r.bmp	0	1	+	0	1	blank2r.bmp	492	1	YDDY	492	1	blank2r.bmp	572	2	retten	866	1	!	-1	1	!	-1	0	0	0	0	0	0	0	0	0	0	0	0	0	0	0	0	0	0	0	0	0	0	0	0	0	0	0	0	0	0
081219	11:34:40	11:43:49	547330	5.0.10.0	5_exp_RW	95	Rpleas_acq	CS_B	GWWG	YDDY	MQQM	BZZB	VKKV	JXXJ	schön	ehrlich	treu	spielen	retten	fair	schlecht	eitel	tot	strafen	rächen	faul	1	acq_USunple_CSunple1_RW	acq4567_RW	5	25	400	1	300	300	391	50	0	0	1	blank2r.bmp	0	1	+	0	1	blank2r.bmp	492	1	MQQM	492	1	blank2r.bmp	572	2	eitel	866	1	!	1239	1	!	1292	0	0	0	0	0	0	0	0	0	0	0	0	0	0	0	0	0	0	0	0	0	0	0	0	0	0	0	0	0	0
081219	11:34:40	11:43:51	549609	5.0.10.0	5_exp_RW	95	Rpleas_acq	CS_B	GWWG	YDDY	MQQM	BZZB	VKKV	JXXJ	schön	ehrlich	treu	spielen	retten	fair	schlecht	eitel	tot	strafen	rächen	faul	1	acq_USunple_CSunple1_RW	acq4567_RW	5	26	400	0	300	300	514	46	0	1	1	blank2r.bmp	0	1	+	0	1	blank2r.bmp	492	1	MQQM	492	1	blank2r.bmp	572	2	eitel	866	1	!	1239	1	!	-1	0	0	0	0	0	0	0	0	0	0	0	0	0	0	0	0	0	0	0	0	0	0	0	0	0	0	0	0	0	0
081219	11:34:40	11:43:54	551822	5.0.10.0	5_exp_RW	95	Rpleas_acq	CS_B	GWWG	YDDY	MQQM	BZZB	VKKV	JXXJ	schön	ehrlich	treu	spielen	retten	fair	schlecht	eitel	tot	strafen	rächen	faul	1	acq_USpleas_CSpleas1_RW	acq4567_RW	5	27	400	1	300	300	412	46	0	0	1	blank2r.bmp	0	1	+	0	1	blank2r.bmp	492	1	GWWG	492	1	blank2r.bmp	572	2	ehrlich	866	1	!	1239	1	!	1306	0	0	0	0	0	0	0	0	0	0	0	0	0	0	0	0	0	0	0	0	0	0	0	0	0	0	0	0	0	0
081219	11:34:40	11:43:56	554061	5.0.10.0	5_exp_RW	95	Rpleas_acq	CS_B	GWWG	YDDY	MQQM	BZZB	VKKV	JXXJ	schön	ehrlich	treu	spielen	retten	fair	schlecht	eitel	tot	strafen	rächen	faul	1	acq_USunple_CSunple1_RW	acq4567_RW	5	28	400	1	300	300	441	46	0	1	1	blank2r.bmp	0	1	+	0	1	blank2r.bmp	492	1	MQQM	492	1	blank2r.bmp	572	3	tot	866	1	!	1239	1	!	1346	0	0	0	0	0	0	0	0	0	0	0	0	0	0	0	0	0	0	0	0	0	0	0	0	0	0	0	0	0	0
081219	11:34:40	11:43:58	556273	5.0.10.0	5_exp_RW	95	Rpleas_acq	CS_B	GWWG	YDDY	MQQM	BZZB	VKKV	JXXJ	schön	ehrlich	treu	spielen	retten	fair	schlecht	eitel	tot	strafen	rächen	faul	1	acq_USunple_CSunple1_RW	acq4567_RW	5	29	400	1	300	300	415	50	0	0	1	blank2r.bmp	0	1	+	0	1	blank2r.bmp	492	1	MQQM	492	1	blank2r.bmp	572	1	schlecht	866	1	!	1239	1	!	1319	0	0	0	0	0	0	0	0	0	0	0	0	0	0	0	0	0	0	0	0	0	0	0	0	0	0	0	0	0	0
081219	11:34:40	11:44:00	558392	5.0.10.0	5_exp_RW	95	Rpleas_acq	CS_B	GWWG	YDDY	MQQM	BZZB	VKKV	JXXJ	schön	ehrlich	treu	spielen	retten	fair	schlecht	eitel	tot	strafen	rächen	faul	1	acq_USpleas_CSpleas1_RW	acq4567_RW	5	30	400	0	300	300	331	50	0	1	1	blank2r.bmp	0	1	+	0	1	blank2r.bmp	492	1	GWWG	492	1	blank2r.bmp	572	1	schön	866	1	!	-1	1	!	-1	0	0	0	0	0	0	0	0	0	0	0	0	0	0	0	0	0	0	0	0	0	0	0	0	0	0	0	0	0	0
081219	11:34:40	11:44:02	560618	5.0.10.0	5_exp_RW	95	Rpleas_acq	CS_B	GWWG	YDDY	MQQM	BZZB	VKKV	JXXJ	schön	ehrlich	treu	spielen	retten	fair	schlecht	eitel	tot	strafen	rächen	faul	1	acq_USpleas_CSpleas1_RW	acq4567_RW	5	31	400	1	300	300	412	50	0	1	1	blank2r.bmp	0	1	+	0	1	blank2r.bmp	492	1	GWWG	492	1	blank2r.bmp	572	3	treu	866	1	!	1239	1	!	1319	0	0	0	0	0	0	0	0	0	0	0	0	0	0	0	0	0	0	0	0	0	0	0	0	0	0	0	0	0	0
081219	11:34:40	11:44:05	562764	5.0.10.0	5_exp_RW	95	Rpleas_acq	CS_B	GWWG	YDDY	MQQM	BZZB	VKKV	JXXJ	schön	ehrlich	treu	spielen	retten	fair	schlecht	eitel	tot	strafen	rächen	faul	1	acq_USpleas_CSpleas2_RW	acq4567_RW	5	32	400	1	300	300	355	50	0	1	1	blank2r.bmp	0	1	+	0	1	blank2r.bmp	492	1	YDDY	492	1	blank2r.bmp	572	2	retten	866	1	!	1239	1	!	1252	0	0	0	0	0	0	0	0	0	0	0	0	0	0	0	0	0	0	0	0	0	0	0	0	0	0	0	0	0	0
081219	11:34:40	11:44:07	564936	5.0.10.0	5_exp_RW	95	Rpleas_acq	CS_B	GWWG	YDDY	MQQM	BZZB	VKKV	JXXJ	schön	ehrlich	treu	spielen	retten	fair	schlecht	eitel	tot	strafen	rächen	faul	1	acq_USpleas_CSpleas2_RW	acq4567_RW	5	33	400	1	300	300	364	50	0	1	1	blank2r.bmp	0	1	+	0	1	blank2r.bmp	492	1	YDDY	492	1	blank2r.bmp	572	3	fair	866	1	!	1239	1	!	1266	0	0	0	0	0	0	0	0	0	0	0	0	0	0	0	0	0	0	0	0	0	0	0	0	0	0	0	0	0	0
081219	11:34:40	11:44:09	567162	5.0.10.0	5_exp_RW	95	Rpleas_acq	CS_B	GWWG	YDDY	MQQM	BZZB	VKKV	JXXJ	schön	ehrlich	treu	spielen	retten	fair	schlecht	eitel	tot	strafen	rächen	faul	1	acq_USunple_CSunple1_RW	acq4567_RW	5	34	400	1	300	300	436	46	0	1	1	blank2r.bmp	0	1	+	0	1	blank2r.bmp	492	1	MQQM	492	1	blank2r.bmp	572	3	tot	866	1	!	1239	1	!	1332	0	0	0	0	0	0	0	0	0	0	0	0	0	0	0	0	0	0	0	0	0	0	0	0	0	0	0	0	0	0
081219	11:34:40	11:44:11	569521	5.0.10.0	5_exp_RW	95	Rpleas_acq	CS_B	GWWG	YDDY	MQQM	BZZB	VKKV	JXXJ	schön	ehrlich	treu	spielen	retten	fair	schlecht	eitel	tot	strafen	rächen	faul	1	acq_USunple_CSunple2_RW	acq4567_RW	5	35	400	0	300	300	578	46	0	1	1	blank2r.bmp	0	1	+	0	1	blank2r.bmp	492	1	BZZB	492	1	blank2r.bmp	572	2	rächen	866	1	!	1239	1	!	-1	0	0	0	0	0	0	0	0	0	0	0	0	0	0	0	0	0	0	0	0	0	0	0	0	0	0	0	0	0	0
081219	11:34:40	11:44:13	571560	5.0.10.0	5_exp_RW	95	Rpleas_acq	CS_B	GWWG	YDDY	MQQM	BZZB	VKKV	JXXJ	schön	ehrlich	treu	spielen	retten	fair	schlecht	eitel	tot	strafen	rächen	faul	1	acq_USunple_CSunple2_RW	acq4567_RW	5	36	400	0	300	300	238	50	0	0	1	blank2r.bmp	0	1	+	0	1	blank2r.bmp	492	1	BZZB	492	1	blank2r.bmp	572	1	strafen	866	1	!	-1	1	!	-1	0	0	0	0	0	0	0	0	0	0	0	0	0	0	0	0	0	0	0	0	0	0	0	0	0	0	0	0	0	0
081219	11:34:40	11:44:16	573719	5.0.10.0	5_exp_RW	95	Rpleas_acq	CS_B	GWWG	YDDY	MQQM	BZZB	VKKV	JXXJ	schön	ehrlich	treu	spielen	retten	fair	schlecht	eitel	tot	strafen	rächen	faul	1	acq_USpleas_CSpleas1_RW	acq4567_RW	5	37	400	1	300	300	351	50	0	1	1	blank2r.bmp	0	1	+	0	1	blank2r.bmp	492	1	GWWG	492	1	blank2r.bmp	572	3	treu	866	1	!	1239	1	!	1252	0	0	0	0	0	0	0	0	0	0	0	0	0	0	0	0	0	0	0	0	0	0	0	0	0	0	0	0	0	0
081219	11:34:40	11:44:18	575998	5.0.10.0	5_exp_RW	95	Rpleas_acq	CS_B	GWWG	YDDY	MQQM	BZZB	VKKV	JXXJ	schön	ehrlich	treu	spielen	retten	fair	schlecht	eitel	tot	strafen	rächen	faul	1	acq_USunple_CSunple2_RW	acq4567_RW	5	38	400	0	300	300	511	46	0	1	1	blank2r.bmp	0	1	+	0	1	blank2r.bmp	492	1	BZZB	492	1	blank2r.bmp	572	2	rächen	866	1	!	1239	1	!	-1	0	0	0	0	0	0	0	0	0	0	0	0	0	0	0	0	0	0	0	0	0	0	0	0	0	0	0	0	0	0
081219	11:34:40	11:44:20	578197	5.0.10.0	5_exp_RW	95	Rpleas_acq	CS_B	GWWG	YDDY	MQQM	BZZB	VKKV	JXXJ	schön	ehrlich	treu	spielen	retten	fair	schlecht	eitel	tot	strafen	rächen	faul	1	acq_USpleas_CSpleas2_RW	acq4567_RW	5	39	400	1	300	300	395	46	0	0	1	blank2r.bmp	0	1	+	0	1	blank2r.bmp	492	1	YDDY	492	1	blank2r.bmp	572	1	spielen	866	1	!	1239	1	!	1292	0	0	0	0	0	0	0	0	0	0	0	0	0	0	0	0	0	0	0	0	0	0	0	0	0	0	0	0	0	0
081219	11:34:40	11:44:22	580410	5.0.10.0	5_exp_RW	95	Rpleas_acq	CS_B	GWWG	YDDY	MQQM	BZZB	VKKV	JXXJ	schön	ehrlich	treu	spielen	retten	fair	schlecht	eitel	tot	strafen	rächen	faul	1	acq_USpleas_CSpleas2_RW	acq4567_RW	5	40	400	1	300	300	416	50	0	1	1	blank2r.bmp	0	1	+	0	1	blank2r.bmp	492	1	YDDY	492	1	blank2r.bmp	572	2	retten	866	1	!	1239	1	!	1319	0	0	0	0	0	0	0	0	0	0	0	0	0	0	0	0	0	0	0	0	0	0	0	0	0	0	0	0	0	0
081219	11:34:40	11:44:24	582569	5.0.10.0	5_exp_RW	95	Rpleas_acq	CS_B	GWWG	YDDY	MQQM	BZZB	VKKV	JXXJ	schön	ehrlich	treu	spielen	retten	fair	schlecht	eitel	tot	strafen	rächen	faul	1	acq_USunple_CSunple2_RW	acq4567_RW	5	41	400	1	300	300	361	46	0	1	1	blank2r.bmp	0	1	+	0	1	blank2r.bmp	492	1	BZZB	492	1	blank2r.bmp	572	1	strafen	866	1	!	1239	1	!	1266	0	0	0	0	0	0	0	0	0	0	0	0	0	0	0	0	0	0	0	0	0	0	0	0	0	0	0	0	0	0
081219	11:34:40	11:44:27	584768	5.0.10.0	5_exp_RW	95	Rpleas_acq	CS_B	GWWG	YDDY	MQQM	BZZB	VKKV	JXXJ	schön	ehrlich	treu	spielen	retten	fair	schlecht	eitel	tot	strafen	rächen	faul	1	acq_USpleas_CSpleas2_RW	acq4567_RW	5	42	400	1	300	300	408	50	0	1	1	blank2r.bmp	0	1	+	0	1	blank2r.bmp	492	1	YDDY	492	1	blank2r.bmp	572	1	spielen	866	1	!	1239	1	!	1306	0	0	0	0	0	0	0	0	0	0	0	0	0	0	0	0	0	0	0	0	0	0	0	0	0	0	0	0	0	0
081219	11:34:40	11:44:29	586954	5.0.10.0	5_exp_RW	95	Rpleas_acq	CS_B	GWWG	YDDY	MQQM	BZZB	VKKV	JXXJ	schön	ehrlich	treu	spielen	retten	fair	schlecht	eitel	tot	strafen	rächen	faul	1	acq_USpleas_CSpleas1_RW	acq4567_RW	5	43	400	1	300	300	387	50	0	1	1	blank2r.bmp	0	1	+	0	1	blank2r.bmp	492	1	GWWG	492	1	blank2r.bmp	572	2	ehrlich	866	1	!	1239	1	!	1292	0	0	0	0	0	0	0	0	0	0	0	0	0	0	0	0	0	0	0	0	0	0	0	0	0	0	0	0	0	0
081219	11:34:40	11:44:31	589153	5.0.10.0	5_exp_RW	95	Rpleas_acq	CS_B	GWWG	YDDY	MQQM	BZZB	VKKV	JXXJ	schön	ehrlich	treu	spielen	retten	fair	schlecht	eitel	tot	strafen	rächen	faul	1	acq_USunple_CSunple1_RW	acq4567_RW	5	44	400	1	300	300	407	46	0	1	1	blank2r.bmp	0	1	+	0	1	blank2r.bmp	492	1	MQQM	492	1	blank2r.bmp	572	1	schlecht	866	1	!	1239	1	!	1306	0	0	0	0	0	0	0	0	0	0	0	0	0	0	0	0	0	0	0	0	0	0	0	0	0	0	0	0	0	0
081219	11:34:40	11:44:33	591259	5.0.10.0	5_exp_RW	95	Rpleas_acq	CS_B	GWWG	YDDY	MQQM	BZZB	VKKV	JXXJ	schön	ehrlich	treu	spielen	retten	fair	schlecht	eitel	tot	strafen	rächen	faul	1	acq_USunple_CSunple2_RW	acq4567_RW	5	45	400	0	300	300	332	46	0	1	1	blank2r.bmp	0	1	+	0	1	blank2r.bmp	492	1	BZZB	492	1	blank2r.bmp	572	3	faul	866	1	!	-1	1	!	-1	0	0	0	0	0	0	0	0	0	0	0	0	0	0	0	0	0	0	0	0	0	0	0	0	0	0	0	0	0	0
081219	11:34:40	11:44:35	593338	5.0.10.0	5_exp_RW	95	Rpleas_acq	CS_B	GWWG	YDDY	MQQM	BZZB	VKKV	JXXJ	schön	ehrlich	treu	spielen	retten	fair	schlecht	eitel	tot	strafen	rächen	faul	1	acq_USunple_CSunple2_RW	acq4567_RW	5	46	400	0	300	300	294	46	0	1	1	blank2r.bmp	0	1	+	0	1	blank2r.bmp	492	1	BZZB	492	1	blank2r.bmp	572	2	rächen	866	1	!	-1	1	!	-1	0	0	0	0	0	0	0	0	0	0	0	0	0	0	0	0	0	0	0	0	0	0	0	0	0	0	0	0	0	0
081219	11:34:40	11:44:37	595444	5.0.10.0	5_exp_RW	95	Rpleas_acq	CS_B	GWWG	YDDY	MQQM	BZZB	VKKV	JXXJ	schön	ehrlich	treu	spielen	retten	fair	schlecht	eitel	tot	strafen	rächen	faul	1	acq_USpleas_CSpleas1_RW	acq4567_RW	5	47	400	0	300	300	321	50	0	1	1	blank2r.bmp	0	1	+	0	1	blank2r.bmp	492	1	GWWG	492	1	blank2r.bmp	572	1	schön	866	1	!	-1	1	!	-1	0	0	0	0	0	0	0	0	0	0	0	0	0	0	0	0	0	0	0	0	0	0	0	0	0	0	0	0	0	0
081219	11:34:40	11:44:40	597736	5.0.10.0	5_exp_RW	95	Rpleas_acq	CS_B	GWWG	YDDY	MQQM	BZZB	VKKV	JXXJ	schön	ehrlich	treu	spielen	retten	fair	schlecht	eitel	tot	strafen	rächen	faul	1	acq_USpleas_CSpleas1_RW	acq4567_RW	5	48	400	0	300	300	516	50	0	1	1	blank2r.bmp	0	1	+	0	1	blank2r.bmp	492	1	GWWG	492	1	blank2r.bmp	572	3	treu	866	1	!	1239	1	!	-1	0	0	0	0	0	0	0	0	0	0	0	0	0	0	0	0	0	0	0	0	0	0	0	0	0	0	0	0	0	0
081219	11:34:40	11:44:42	600002	5.0.10.0	5_exp_RW	95	Rpleas_acq	CS_B	GWWG	YDDY	MQQM	BZZB	VKKV	JXXJ	schön	ehrlich	treu	spielen	retten	fair	schlecht	eitel	tot	strafen	rächen	faul	1	acq_USunple_CSunple1_RW	acq4567_RW	5	49	400	0	300	300	479	46	0	1	1	blank2r.bmp	0	1	+	0	1	blank2r.bmp	492	1	MQQM	492	1	blank2r.bmp	572	2	eitel	866	1	!	1239	1	!	-1	0	0	0	0	0	0	0	0	0	0	0	0	0	0	0	0	0	0	0	0	0	0	0	0	0	0	0	0	0	0
081219	11:34:40	11:44:44	602174	5.0.10.0	5_exp_RW	95	Rpleas_acq	CS_B	GWWG	YDDY	MQQM	BZZB	VKKV	JXXJ	schön	ehrlich	treu	spielen	retten	fair	schlecht	eitel	tot	strafen	rächen	faul	1	acq_USunple_CSunple2_RW	acq4567_RW	5	50	400	1	300	300	352	50	0	0	1	blank2r.bmp	0	1	+	0	1	blank2r.bmp	492	1	BZZB	492	1	blank2r.bmp	572	3	faul	866	1	!	1239	1	!	1252	0	0	0	0	0	0	0	0	0	0	0	0	0	0	0	0	0	0	0	0	0	0	0	0	0	0	0	0	0	0
081219	11:34:40	11:44:46	604400	5.0.10.0	5_exp_RW	95	Rpleas_acq	CS_B	GWWG	YDDY	MQQM	BZZB	VKKV	JXXJ	schön	ehrlich	treu	spielen	retten	fair	schlecht	eitel	tot	strafen	rächen	faul	1	acq_USpleas_CSpleas2_RW	acq4567_RW	5	51	400	1	300	300	437	50	0	1	1	blank2r.bmp	0	1	+	0	1	blank2r.bmp	492	1	YDDY	492	1	blank2r.bmp	572	3	fair	866	1	!	1239	1	!	1332	0	0	0	0	0	0	0	0	0	0	0	0	0	0	0	0	0	0	0	0	0	0	0	0	0	0	0	0	0	0
081219	11:34:40	11:44:48	606466	5.0.10.0	5_exp_RW	95	Rpleas_acq	CS_B	GWWG	YDDY	MQQM	BZZB	VKKV	JXXJ	schön	ehrlich	treu	spielen	retten	fair	schlecht	eitel	tot	strafen	rächen	faul	1	acq_USpleas_CSpleas1_RW	acq4567_RW	5	52	400	0	300	300	284	46	0	0	1	blank2r.bmp	0	1	+	0	1	blank2r.bmp	492	1	GWWG	492	1	blank2r.bmp	572	1	schön	866	1	!	-1	1	!	-1	0	0	0	0	0	0	0	0	0	0	0	0	0	0	0	0	0	0	0	0	0	0	0	0	0	0	0	0	0	0
081219	11:34:40	11:44:51	608731	5.0.10.0	5_exp_RW	95	Rpleas_acq	CS_B	GWWG	YDDY	MQQM	BZZB	VKKV	JXXJ	schön	ehrlich	treu	spielen	retten	fair	schlecht	eitel	tot	strafen	rächen	faul	1	acq_USunple_CSunple1_RW	acq4567_RW	5	53	400	0	300	300	479	46	0	1	1	blank2r.bmp	0	1	+	0	1	blank2r.bmp	492	1	MQQM	492	1	blank2r.bmp	572	3	tot	866	1	!	1239	1	!	-1	0	0	0	0	0	0	0	0	0	0	0	0	0	0	0	0	0	0	0	0	0	0	0	0	0	0	0	0	0	0
081219	11:34:40	11:44:53	610957	5.0.10.0	5_exp_RW	95	Rpleas_acq	CS_B	GWWG	YDDY	MQQM	BZZB	VKKV	JXXJ	schön	ehrlich	treu	spielen	retten	fair	schlecht	eitel	tot	strafen	rächen	faul	1	acq_USunple_CSunple1_RW	acq4567_RW	5	54	400	1	300	300	424	46	0	1	1	blank2r.bmp	0	1	+	0	1	blank2r.bmp	492	1	MQQM	492	1	blank2r.bmp	572	2	eitel	866	1	!	1239	1	!	1319	0	0	0	0	0	0	0	0	0	0	0	0	0	0	0	0	0	0	0	0	0	0	0	0	0	0	0	0	0	0
081219	11:34:40	11:44:55	613343	5.0.10.0	5_exp_RW	95	Rpleas_acq	CS_B	GWWG	YDDY	MQQM	BZZB	VKKV	JXXJ	schön	ehrlich	treu	spielen	retten	fair	schlecht	eitel	tot	strafen	rächen	faul	1	acq_USunple_CSunple1_RW	acq4567_RW	5	55	400	0	300	300	612	46	0	1	1	blank2r.bmp	0	1	+	0	1	blank2r.bmp	492	1	MQQM	492	1	blank2r.bmp	572	1	schlecht	866	1	!	1239	1	!	-1	0	0	0	0	0	0	0	0	0	0	0	0	0	0	0	0	0	0	0	0	0	0	0	0	0	0	0	0	0	0
081219	11:34:40	11:44:57	615369	5.0.10.0	5_exp_RW	95	Rpleas_acq	CS_B	GWWG	YDDY	MQQM	BZZB	VKKV	JXXJ	schön	ehrlich	treu	spielen	retten	fair	schlecht	eitel	tot	strafen	rächen	faul	1	acq_USpleas_CSpleas2_RW	acq4567_RW	5	56	400	0	300	300	243	50	0	1	1	blank2r.bmp	0	1	+	0	1	blank2r.bmp	492	1	YDDY	492	1	blank2r.bmp	572	3	fair	866	1	!	-1	1	!	-1	0	0	0	0	0	0	0	0	0	0	0	0	0	0	0	0	0	0	0	0	0	0	0	0	0	0	0	0	0	0
081219	11:34:40	11:45:00	617674	5.0.10.0	5_exp_RW	95	Rpleas_acq	CS_B	GWWG	YDDY	MQQM	BZZB	VKKV	JXXJ	schön	ehrlich	treu	spielen	retten	fair	schlecht	eitel	tot	strafen	rächen	faul	1	acq_USunple_CSunple2_RW	acq4567_RW	5	57	400	0	300	300	509	46	0	1	1	blank2r.bmp	0	1	+	0	1	blank2r.bmp	492	1	BZZB	492	1	blank2r.bmp	572	1	strafen	866	1	!	1239	1	!	-1	0	0	0	0	0	0	0	0	0	0	0	0	0	0	0	0	0	0	0	0	0	0	0	0	0	0	0	0	0	0
081219	11:34:40	11:45:02	619967	5.0.10.0	5_exp_RW	95	Rpleas_acq	CS_B	GWWG	YDDY	MQQM	BZZB	VKKV	JXXJ	schön	ehrlich	treu	spielen	retten	fair	schlecht	eitel	tot	strafen	rächen	faul	1	acq_USpleas_CSpleas2_RW	acq4567_RW	5	58	400	0	300	300	512	50	0	1	1	blank2r.bmp	0	1	+	0	1	blank2r.bmp	492	1	YDDY	492	1	blank2r.bmp	572	1	spielen	866	1	!	1239	1	!	-1	0	0	0	0	0	0	0	0	0	0	0	0	0	0	0	0	0	0	0	0	0	0	0	0	0	0	0	0	0	0
081219	11:34:40	11:45:04	622206	5.0.10.0	5_exp_RW	95	Rpleas_acq	CS_B	GWWG	YDDY	MQQM	BZZB	VKKV	JXXJ	schön	ehrlich	treu	spielen	retten	fair	schlecht	eitel	tot	strafen	rächen	faul	1	acq_USpleas_CSpleas1_RW	acq4567_RW	5	59	400	1	300	300	431	50	0	1	1	blank2r.bmp	0	1	+	0	1	blank2r.bmp	492	1	GWWG	492	1	blank2r.bmp	572	2	ehrlich	866	1	!	1239	1	!	1332	0	0	0	0	0	0	0	0	0	0	0	0	0	0	0	0	0	0	0	0	0	0	0	0	0	0	0	0	0	0
081219	11:34:40	11:45:06	624458	5.0.10.0	5_exp_RW	95	Rpleas_acq	CS_B	GWWG	YDDY	MQQM	BZZB	VKKV	JXXJ	schön	ehrlich	treu	spielen	retten	fair	schlecht	eitel	tot	strafen	rächen	faul	1	acq_USpleas_CSpleas2_RW	acq4567_RW	5	60	400	0	300	300	479	46	0	0	1	blank2r.bmp	0	1	+	0	1	blank2r.bmp	492	1	YDDY	492	1	blank2r.bmp	572	2	retten	866	1	!	1239	1	!	-1	0	0	0	0	0	0	0	0	0	0	0	0	0	0	0	0	0	0	0	0	0	0	0	0	0	0	0	0	0	0
081219	11:34:40	11:45:09	626710	5.0.10.0	5_exp_RW	95	Rpleas_acq	CS_B	GWWG	YDDY	MQQM	BZZB	VKKV	JXXJ	schön	ehrlich	treu	spielen	retten	fair	schlecht	eitel	tot	strafen	rächen	faul	1	acq_USpleas_CSpleas1_RW	acq4567_RW	5	61	400	1	300	300	443	50	0	1	1	blank2r.bmp	0	1	+	0	1	blank2r.bmp	492	1	GWWG	492	1	blank2r.bmp	572	2	ehrlich	866	1	!	1239	1	!	1346	0	0	0	0	0	0	0	0	0	0	0	0	0	0	0	0	0	0	0	0	0	0	0	0	0	0	0	0	0	0
081219	11:34:40	11:45:11	628790	5.0.10.0	5_exp_RW	95	Rpleas_acq	CS_B	GWWG	YDDY	MQQM	BZZB	VKKV	JXXJ	schön	ehrlich	treu	spielen	retten	fair	schlecht	eitel	tot	strafen	rächen	faul	1	acq_USpleas_CSpleas2_RW	acq4567_RW	5	62	400	0	300	300	312	50	0	1	1	blank2r.bmp	0	1	+	0	1	blank2r.bmp	492	1	YDDY	492	1	blank2r.bmp	572	2	retten	866	1	!	-1	1	!	-1	0	0	0	0	0	0	0	0	0	0	0	0	0	0	0	0	0	0	0	0	0	0	0	0	0	0	0	0	0	0
081219	11:34:40	11:45:13	630962	5.0.10.0	5_exp_RW	95	Rpleas_acq	CS_B	GWWG	YDDY	MQQM	BZZB	VKKV	JXXJ	schön	ehrlich	treu	spielen	retten	fair	schlecht	eitel	tot	strafen	rächen	faul	1	acq_USpleas_CSpleas1_RW	acq4567_RW	5	63	400	1	300	300	369	50	0	1	1	blank2r.bmp	0	1	+	0	1	blank2r.bmp	492	1	GWWG	492	1	blank2r.bmp	572	1	schön	866	1	!	1239	1	!	1266	0	0	0	0	0	0	0	0	0	0	0	0	0	0	0	0	0	0	0	0	0	0	0	0	0	0	0	0	0	0
081219	11:34:40	11:45:15	633108	5.0.10.0	5_exp_RW	95	Rpleas_acq	CS_B	GWWG	YDDY	MQQM	BZZB	VKKV	JXXJ	schön	ehrlich	treu	spielen	retten	fair	schlecht	eitel	tot	strafen	rächen	faul	1	acq_USpleas_CSpleas2_RW	acq4567_RW	5	64	400	1	300	300	348	50	0	1	1	blank2r.bmp	0	1	+	0	1	blank2r.bmp	492	1	YDDY	492	1	blank2r.bmp	572	3	fair	866	1	!	1239	1	!	1252	0	0	0	0	0	0	0	0	0	0	0	0	0	0	0	0	0	0	0	0	0	0	0	0	0	0	0	0	0	0
081219	11:34:40	11:45:17	635187	5.0.10.0	5_exp_RW	95	Rpleas_acq	CS_B	GWWG	YDDY	MQQM	BZZB	VKKV	JXXJ	schön	ehrlich	treu	spielen	retten	fair	schlecht	eitel	tot	strafen	rächen	faul	1	acq_USunple_CSunple1_RW	acq4567_RW	5	65	400	0	300	300	317	46	0	1	1	blank2r.bmp	0	1	+	0	1	blank2r.bmp	492	1	MQQM	492	1	blank2r.bmp	572	1	schlecht	866	1	!	-1	1	!	-1	0	0	0	0	0	0	0	0	0	0	0	0	0	0	0	0	0	0	0	0	0	0	0	0	0	0	0	0	0	0
081219	11:34:40	11:45:19	637439	5.0.10.0	5_exp_RW	95	Rpleas_acq	CS_B	GWWG	YDDY	MQQM	BZZB	VKKV	JXXJ	schön	ehrlich	treu	spielen	retten	fair	schlecht	eitel	tot	strafen	rächen	faul	1	acq_USunple_CSunple2_RW	acq4567_RW	5	66	400	1	300	300	440	50	0	0	1	blank2r.bmp	0	1	+	0	1	blank2r.bmp	492	1	BZZB	492	1	blank2r.bmp	572	1	strafen	866	1	!	1239	1	!	1346	0	0	0	0	0	0	0	0	0	0	0	0	0	0	0	0	0	0	0	0	0	0	0	0	0	0	0	0	0	0
081219	11:34:40	11:45:22	639705	5.0.10.0	5_exp_RW	95	Rpleas_acq	CS_B	GWWG	YDDY	MQQM	BZZB	VKKV	JXXJ	schön	ehrlich	treu	spielen	retten	fair	schlecht	eitel	tot	strafen	rächen	faul	1	acq_USunple_CSunple2_RW	acq4567_RW	5	67	400	0	300	300	487	46	0	1	1	blank2r.bmp	0	1	+	0	1	blank2r.bmp	492	1	BZZB	492	1	blank2r.bmp	572	3	faul	866	1	!	1239	1	!	-1	0	0	0	0	0	0	0	0	0	0	0	0	0	0	0	0	0	0	0	0	0	0	0	0	0	0	0	0	0	0
081219	11:34:40	11:45:24	641877	5.0.10.0	5_exp_RW	95	Rpleas_acq	CS_B	GWWG	YDDY	MQQM	BZZB	VKKV	JXXJ	schön	ehrlich	treu	spielen	retten	fair	schlecht	eitel	tot	strafen	rächen	faul	1	acq_USunple_CSunple2_RW	acq4567_RW	5	68	400	1	300	300	355	46	0	1	1	blank2r.bmp	0	1	+	0	1	blank2r.bmp	492	1	BZZB	492	1	blank2r.bmp	572	2	rächen	866	1	!	1239	1	!	1252	0	0	0	0	0	0	0	0	0	0	0	0	0	0	0	0	0	0	0	0	0	0	0	0	0	0	0	0	0	0
081219	11:34:40	11:45:26	643917	5.0.10.0	5_exp_RW	95	Rpleas_acq	CS_B	GWWG	YDDY	MQQM	BZZB	VKKV	JXXJ	schön	ehrlich	treu	spielen	retten	fair	schlecht	eitel	tot	strafen	rächen	faul	1	acq_USpleas_CSpleas2_RW	acq4567_RW	5	69	400	0	300	300	274	46	0	0	1	blank2r.bmp	0	1	+	0	1	blank2r.bmp	492	1	YDDY	492	1	blank2r.bmp	572	1	spielen	866	1	!	-1	1	!	-1	0	0	0	0	0	0	0	0	0	0	0	0	0	0	0	0	0	0	0	0	0	0	0	0	0	0	0	0	0	0
081219	11:34:40	11:45:28	646196	5.0.10.0	5_exp_RW	95	Rpleas_acq	CS_B	GWWG	YDDY	MQQM	BZZB	VKKV	JXXJ	schön	ehrlich	treu	spielen	retten	fair	schlecht	eitel	tot	strafen	rächen	faul	1	acq_USunple_CSunple1_RW	acq4567_RW	5	70	400	0	300	300	480	46	0	1	1	blank2r.bmp	0	1	+	0	1	blank2r.bmp	492	1	MQQM	492	1	blank2r.bmp	572	3	tot	866	1	!	1239	1	!	-1	0	0	0	0	0	0	0	0	0	0	0	0	0	0	0	0	0	0	0	0	0	0	0	0	0	0	0	0	0	0
081219	11:34:40	11:45:30	648248	5.0.10.0	5_exp_RW	95	Rpleas_acq	CS_B	GWWG	YDDY	MQQM	BZZB	VKKV	JXXJ	schön	ehrlich	treu	spielen	retten	fair	schlecht	eitel	tot	strafen	rächen	faul	1	acq_USunple_CSunple2_RW	acq4567_RW	5	71	400	0	300	300	275	50	0	0	1	blank2r.bmp	0	1	+	0	1	blank2r.bmp	492	1	BZZB	492	1	blank2r.bmp	572	3	faul	866	1	!	-1	1	!	-1	0	0	0	0	0	0	0	0	0	0	0	0	0	0	0	0	0	0	0	0	0	0	0	0	0	0	0	0	0	0
081219	11:34:40	11:45:35	653446	5.0.10.0	5_exp_RW	95	Rpleas_acq	CS_B	GWWG	YDDY	MQQM	BZZB	VKKV	JXXJ	schön	ehrlich	treu	spielen	retten	fair	schlecht	eitel	tot	strafen	rächen	faul	1	acq_USpleas_CSpleas1_RW	acq4567_RW	5	72	400	0	300	300	3419	50	0	1	1	blank2r.bmp	0	1	+	0	1	blank2r.bmp	492	1	GWWG	492	1	blank2r.bmp	572	3	treu	866	1	!	1239	1	!	-1	0	0	0	0	0	0	0	0	0	0	0	0	0	0	0	0	0	0	0	0	0	0	0	0	0	0	0	0	0	0
081219	11:34:40	11:45:38	655685	5.0.10.0	5_exp_RW	95	Rpleas_acq	CS_B	GWWG	YDDY	MQQM	BZZB	VKKV	JXXJ	schön	ehrlich	treu	spielen	retten	fair	schlecht	eitel	tot	strafen	rächen	faul	1	acq_USunple_CSunple1_RW	acq4567_RW	5	73	400	1	300	300	422	50	0	0	1	blank2r.bmp	0	1	+	0	1	blank2r.bmp	492	1	MQQM	492	1	blank2r.bmp	572	2	eitel	866	1	!	1239	1	!	1319	0	0	0	0	0	0	0	0	0	0	0	0	0	0	0	0	0	0	0	0	0	0	0	0	0	0	0	0	0	0
081219	11:34:40	11:45:40	657964	5.0.10.0	5_exp_RW	95	Rpleas_acq	CS_B	GWWG	YDDY	MQQM	BZZB	VKKV	JXXJ	schön	ehrlich	treu	spielen	retten	fair	schlecht	eitel	tot	strafen	rächen	faul	1	acq_USunple_CSunple2_RW	acq4567_RW	5	74	400	0	300	300	510	46	0	1	1	blank2r.bmp	0	1	+	0	1	blank2r.bmp	492	1	BZZB	492	1	blank2r.bmp	572	1	strafen	866	1	!	1239	1	!	-1	0	0	0	0	0	0	0	0	0	0	0	0	0	0	0	0	0	0	0	0	0	0	0	0	0	0	0	0	0	0
081219	11:34:40	11:45:42	660230	5.0.10.0	5_exp_RW	95	Rpleas_acq	CS_B	GWWG	YDDY	MQQM	BZZB	VKKV	JXXJ	schön	ehrlich	treu	spielen	retten	fair	schlecht	eitel	tot	strafen	rächen	faul	1	acq_USpleas_CSpleas1_RW	acq4567_RW	5	75	400	0	300	300	491	50	0	1	1	blank2r.bmp	0	1	+	0	1	blank2r.bmp	492	1	GWWG	492	1	blank2r.bmp	572	2	ehrlich	866	1	!	1239	1	!	-1	0	0	0	0	0	0	0	0	0	0	0	0	0	0	0	0	0	0	0	0	0	0	0	0	0	0	0	0	0	0
081219	11:34:40	11:45:44	662509	5.0.10.0	5_exp_RW	95	Rpleas_acq	CS_B	GWWG	YDDY	MQQM	BZZB	VKKV	JXXJ	schön	ehrlich	treu	spielen	retten	fair	schlecht	eitel	tot	strafen	rächen	faul	1	acq_USunple_CSunple1_RW	acq4567_RW	5	76	400	0	300	300	505	46	0	1	1	blank2r.bmp	0	1	+	0	1	blank2r.bmp	492	1	MQQM	492	1	blank2r.bmp	572	1	schlecht	866	1	!	1239	1	!	-1	0	0	0	0	0	0	0	0	0	0	0	0	0	0	0	0	0	0	0	0	0	0	0	0	0	0	0	0	0	0
081219	11:34:40	11:45:47	664695	5.0.10.0	5_exp_RW	95	Rpleas_acq	CS_B	GWWG	YDDY	MQQM	BZZB	VKKV	JXXJ	schön	ehrlich	treu	spielen	retten	fair	schlecht	eitel	tot	strafen	rächen	faul	1	acq_USpleas_CSpleas2_RW	acq4567_RW	5	77	400	1	300	300	384	50	0	1	1	blank2r.bmp	0	1	+	0	1	blank2r.bmp	492	1	YDDY	492	1	blank2r.bmp	572	1	spielen	866	1	!	1239	1	!	1279	0	0	0	0	0	0	0	0	0	0	0	0	0	0	0	0	0	0	0	0	0	0	0	0	0	0	0	0	0	0
081219	11:34:40	11:45:49	666907	5.0.10.0	5_exp_RW	95	Rpleas_acq	CS_B	GWWG	YDDY	MQQM	BZZB	VKKV	JXXJ	schön	ehrlich	treu	spielen	retten	fair	schlecht	eitel	tot	strafen	rächen	faul	1	acq_USpleas_CSpleas2_RW	acq4567_RW	5	78	400	1	300	300	418	50	0	1	1	blank2r.bmp	0	1	+	0	1	blank2r.bmp	492	1	YDDY	492	1	blank2r.bmp	572	3	fair	866	1	!	1239	1	!	1319	0	0	0	0	0	0	0	0	0	0	0	0	0	0	0	0	0	0	0	0	0	0	0	0	0	0	0	0	0	0
081219	11:34:40	11:45:51	668986	5.0.10.0	5_exp_RW	95	Rpleas_acq	CS_B	GWWG	YDDY	MQQM	BZZB	VKKV	JXXJ	schön	ehrlich	treu	spielen	retten	fair	schlecht	eitel	tot	strafen	rächen	faul	1	acq_USpleas_CSpleas1_RW	acq4567_RW	5	79	400	0	300	300	293	50	0	1	1	blank2r.bmp	0	1	+	0	1	blank2r.bmp	492	1	GWWG	492	1	blank2r.bmp	572	1	schön	866	1	!	-1	1	!	-1	0	0	0	0	0	0	0	0	0	0	0	0	0	0	0	0	0	0	0	0	0	0	0	0	0	0	0	0	0	0
081219	11:34:40	11:45:53	671265	5.0.10.0	5_exp_RW	95	Rpleas_acq	CS_B	GWWG	YDDY	MQQM	BZZB	VKKV	JXXJ	schön	ehrlich	treu	spielen	retten	fair	schlecht	eitel	tot	strafen	rächen	faul	1	acq_USunple_CSunple1_RW	acq4567_RW	5	80	400	0	300	300	487	46	0	1	1	blank2r.bmp	0	1	+	0	1	blank2r.bmp	492	1	MQQM	492	1	blank2r.bmp	572	3	tot	866	1	!	1239	1	!	-1	0	0	0	0	0	0	0	0	0	0	0	0	0	0	0	0	0	0	0	0	0	0	0	0	0	0	0	0	0	0
081219	11:34:40	11:46:06	684126	5.0.10.0	5_exp_RW	95	Rpleas_acq	CS_B	GWWG	YDDY	MQQM	BZZB	VKKV	JXXJ	schön	ehrlich	treu	spielen	retten	fair	schlecht	eitel	tot	strafen	rächen	faul	1	acq_USunple_CSunple2_RW	acq4567_RW	6	1	400	1	300	300	464	46	0	1	1	blank2r.bmp	0	1	+	0	1	blank2r.bmp	492	1	BZZB	492	1	blank2r.bmp	572	2	rächen	866	1	!	1239	1	!	1359	0	0	0	0	0	0	0	0	0	0	0	0	0	0	0	0	0	0	0	0	0	0	0	0	0	0	0	0	0	0
081219	11:34:40	11:46:08	686326	5.0.10.0	5_exp_RW	95	Rpleas_acq	CS_B	GWWG	YDDY	MQQM	BZZB	VKKV	JXXJ	schön	ehrlich	treu	spielen	retten	fair	schlecht	eitel	tot	strafen	rächen	faul	1	acq_USpleas_CSpleas2_RW	acq4567_RW	6	2	400	1	300	300	404	46	0	0	1	blank2r.bmp	0	1	+	0	1	blank2r.bmp	492	1	YDDY	492	1	blank2r.bmp	572	2	retten	866	1	!	1239	1	!	1306	0	0	0	0	0	0	0	0	0	0	0	0	0	0	0	0	0	0	0	0	0	0	0	0	0	0	0	0	0	0
081219	11:34:40	11:46:10	688551	5.0.10.0	5_exp_RW	95	Rpleas_acq	CS_B	GWWG	YDDY	MQQM	BZZB	VKKV	JXXJ	schön	ehrlich	treu	spielen	retten	fair	schlecht	eitel	tot	strafen	rächen	faul	1	acq_USunple_CSunple2_RW	acq4567_RW	6	3	400	1	300	300	429	46	0	1	1	blank2r.bmp	0	1	+	0	1	blank2r.bmp	492	1	BZZB	492	1	blank2r.bmp	572	1	strafen	866	1	!	1239	1	!	1332	0	0	0	0	0	0	0	0	0	0	0	0	0	0	0	0	0	0	0	0	0	0	0	0	0	0	0	0	0	0
081219	11:34:40	11:46:13	690777	5.0.10.0	5_exp_RW	95	Rpleas_acq	CS_B	GWWG	YDDY	MQQM	BZZB	VKKV	JXXJ	schön	ehrlich	treu	spielen	retten	fair	schlecht	eitel	tot	strafen	rächen	faul	1	acq_USunple_CSunple1_RW	acq4567_RW	6	4	400	1	300	300	426	50	0	0	1	blank2r.bmp	0	1	+	0	1	blank2r.bmp	492	1	MQQM	492	1	blank2r.bmp	572	2	eitel	866	1	!	1239	1	!	1332	0	0	0	0	0	0	0	0	0	0	0	0	0	0	0	0	0	0	0	0	0	0	0	0	0	0	0	0	0	0
081219	11:34:40	11:46:15	693243	5.0.10.0	5_exp_RW	95	Rpleas_acq	CS_B	GWWG	YDDY	MQQM	BZZB	VKKV	JXXJ	schön	ehrlich	treu	spielen	retten	fair	schlecht	eitel	tot	strafen	rächen	faul	1	acq_USpleas_CSpleas2_RW	acq4567_RW	6	5	400	0	300	300	686	50	0	1	1	blank2r.bmp	0	1	+	0	1	blank2r.bmp	492	1	YDDY	492	1	blank2r.bmp	572	2	retten	866	1	!	1239	1	!	-1	0	0	0	0	0	0	0	0	0	0	0	0	0	0	0	0	0	0	0	0	0	0	0	0	0	0	0	0	0	0
081219	11:34:40	11:46:17	695602	5.0.10.0	5_exp_RW	95	Rpleas_acq	CS_B	GWWG	YDDY	MQQM	BZZB	VKKV	JXXJ	schön	ehrlich	treu	spielen	retten	fair	schlecht	eitel	tot	strafen	rächen	faul	1	acq_USunple_CSunple1_RW	acq4567_RW	6	6	400	0	300	300	569	46	0	1	1	blank2r.bmp	0	1	+	0	1	blank2r.bmp	492	1	MQQM	492	1	blank2r.bmp	572	2	eitel	866	1	!	1239	1	!	-1	0	0	0	0	0	0	0	0	0	0	0	0	0	0	0	0	0	0	0	0	0	0	0	0	0	0	0	0	0	0
081219	11:34:40	11:46:20	697841	5.0.10.0	5_exp_RW	95	Rpleas_acq	CS_B	GWWG	YDDY	MQQM	BZZB	VKKV	JXXJ	schön	ehrlich	treu	spielen	retten	fair	schlecht	eitel	tot	strafen	rächen	faul	1	acq_USunple_CSunple1_RW	acq4567_RW	6	7	400	1	300	300	425	46	0	1	1	blank2r.bmp	0	1	+	0	1	blank2r.bmp	492	1	MQQM	492	1	blank2r.bmp	572	3	tot	866	1	!	1239	1	!	1332	0	0	0	0	0	0	0	0	0	0	0	0	0	0	0	0	0	0	0	0	0	0	0	0	0	0	0	0	0	0
081219	11:34:40	11:46:22	700040	5.0.10.0	5_exp_RW	95	Rpleas_acq	CS_B	GWWG	YDDY	MQQM	BZZB	VKKV	JXXJ	schön	ehrlich	treu	spielen	retten	fair	schlecht	eitel	tot	strafen	rächen	faul	1	acq_USpleas_CSpleas2_RW	acq4567_RW	6	8	400	1	300	300	406	46	0	0	1	blank2r.bmp	0	1	+	0	1	blank2r.bmp	492	1	YDDY	492	1	blank2r.bmp	572	1	spielen	866	1	!	1239	1	!	1306	0	0	0	0	0	0	0	0	0	0	0	0	0	0	0	0	0	0	0	0	0	0	0	0	0	0	0	0	0	0
081219	11:34:40	11:46:24	702252	5.0.10.0	5_exp_RW	95	Rpleas_acq	CS_B	GWWG	YDDY	MQQM	BZZB	VKKV	JXXJ	schön	ehrlich	treu	spielen	retten	fair	schlecht	eitel	tot	strafen	rächen	faul	1	acq_USunple_CSunple2_RW	acq4567_RW	6	9	400	1	300	300	417	46	0	1	1	blank2r.bmp	0	1	+	0	1	blank2r.bmp	492	1	BZZB	492	1	blank2r.bmp	572	3	faul	866	1	!	1239	1	!	1319	0	0	0	0	0	0	0	0	0	0	0	0	0	0	0	0	0	0	0	0	0	0	0	0	0	0	0	0	0	0
081219	11:34:40	11:46:26	704465	5.0.10.0	5_exp_RW	95	Rpleas_acq	CS_B	GWWG	YDDY	MQQM	BZZB	VKKV	JXXJ	schön	ehrlich	treu	spielen	retten	fair	schlecht	eitel	tot	strafen	rächen	faul	1	acq_USpleas_CSpleas1_RW	acq4567_RW	6	10	400	1	300	300	424	50	0	1	1	blank2r.bmp	0	1	+	0	1	blank2r.bmp	492	1	GWWG	492	1	blank2r.bmp	572	3	treu	866	1	!	1239	1	!	1319	0	0	0	0	0	0	0	0	0	0	0	0	0	0	0	0	0	0	0	0	0	0	0	0	0	0	0	0	0	0
081219	11:34:40	11:46:29	706690	5.0.10.0	5_exp_RW	95	Rpleas_acq	CS_B	GWWG	YDDY	MQQM	BZZB	VKKV	JXXJ	schön	ehrlich	treu	spielen	retten	fair	schlecht	eitel	tot	strafen	rächen	faul	1	acq_USpleas_CSpleas2_RW	acq4567_RW	6	11	400	1	300	300	426	50	0	1	1	blank2r.bmp	0	1	+	0	1	blank2r.bmp	492	1	YDDY	492	1	blank2r.bmp	572	3	fair	866	1	!	1239	1	!	1332	0	0	0	0	0	0	0	0	0	0	0	0	0	0	0	0	0	0	0	0	0	0	0	0	0	0	0	0	0	0
081219	11:34:40	11:46:31	708756	5.0.10.0	5_exp_RW	95	Rpleas_acq	CS_B	GWWG	YDDY	MQQM	BZZB	VKKV	JXXJ	schön	ehrlich	treu	spielen	retten	fair	schlecht	eitel	tot	strafen	rächen	faul	1	acq_USpleas_CSpleas1_RW	acq4567_RW	6	12	400	0	300	300	297	50	0	1	1	blank2r.bmp	0	1	+	0	1	blank2r.bmp	492	1	GWWG	492	1	blank2r.bmp	572	2	ehrlich	866	1	!	-1	1	!	-1	0	0	0	0	0	0	0	0	0	0	0	0	0	0	0	0	0	0	0	0	0	0	0	0	0	0	0	0	0	0
081219	11:34:40	11:46:33	710929	5.0.10.0	5_exp_RW	95	Rpleas_acq	CS_B	GWWG	YDDY	MQQM	BZZB	VKKV	JXXJ	schön	ehrlich	treu	spielen	retten	fair	schlecht	eitel	tot	strafen	rächen	faul	1	acq_USunple_CSunple1_RW	acq4567_RW	6	13	400	1	300	300	362	46	0	1	1	blank2r.bmp	0	1	+	0	1	blank2r.bmp	492	1	MQQM	492	1	blank2r.bmp	572	1	schlecht	866	1	!	1239	1	!	1266	0	0	0	0	0	0	0	0	0	0	0	0	0	0	0	0	0	0	0	0	0	0	0	0	0	0	0	0	0	0
081219	11:34:40	11:46:35	713114	5.0.10.0	5_exp_RW	95	Rpleas_acq	CS_B	GWWG	YDDY	MQQM	BZZB	VKKV	JXXJ	schön	ehrlich	treu	spielen	retten	fair	schlecht	eitel	tot	strafen	rächen	faul	1	acq_USpleas_CSpleas1_RW	acq4567_RW	6	14	400	1	300	300	395	50	0	1	1	blank2r.bmp	0	1	+	0	1	blank2r.bmp	492	1	GWWG	492	1	blank2r.bmp	572	1	schön	866	1	!	1239	1	!	1292	0	0	0	0	0	0	0	0	0	0	0	0	0	0	0	0	0	0	0	0	0	0	0	0	0	0	0	0	0	0
081219	11:34:40	11:46:37	715273	5.0.10.0	5_exp_RW	95	Rpleas_acq	CS_B	GWWG	YDDY	MQQM	BZZB	VKKV	JXXJ	schön	ehrlich	treu	spielen	retten	fair	schlecht	eitel	tot	strafen	rächen	faul	1	acq_USpleas_CSpleas1_RW	acq4567_RW	6	15	400	1	300	300	351	50	0	1	1	blank2r.bmp	0	1	+	0	1	blank2r.bmp	492	1	GWWG	492	1	blank2r.bmp	572	3	treu	866	1	!	1239	1	!	1252	0	0	0	0	0	0	0	0	0	0	0	0	0	0	0	0	0	0	0	0	0	0	0	0	0	0	0	0	0	0
081219	11:34:40	11:46:39	717313	5.0.10.0	5_exp_RW	95	Rpleas_acq	CS_B	GWWG	YDDY	MQQM	BZZB	VKKV	JXXJ	schön	ehrlich	treu	spielen	retten	fair	schlecht	eitel	tot	strafen	rächen	faul	1	acq_USunple_CSunple2_RW	acq4567_RW	6	16	400	0	300	300	273	50	0	0	1	blank2r.bmp	0	1	+	0	1	blank2r.bmp	492	1	BZZB	492	1	blank2r.bmp	572	2	rächen	866	1	!	-1	1	!	-1	0	0	0	0	0	0	0	0	0	0	0	0	0	0	0	0	0	0	0	0	0	0	0	0	0	0	0	0	0	0
081219	11:34:40	11:46:41	719498	5.0.10.0	5_exp_RW	95	Rpleas_acq	CS_B	GWWG	YDDY	MQQM	BZZB	VKKV	JXXJ	schön	ehrlich	treu	spielen	retten	fair	schlecht	eitel	tot	strafen	rächen	faul	1	acq_USunple_CSunple2_RW	acq4567_RW	6	17	400	1	300	300	368	50	0	0	1	blank2r.bmp	0	1	+	0	1	blank2r.bmp	492	1	BZZB	492	1	blank2r.bmp	572	3	faul	866	1	!	1239	1	!	1266	0	0	0	0	0	0	0	0	0	0	0	0	0	0	0	0	0	0	0	0	0	0	0	0	0	0	0	0	0	0
081219	11:34:40	11:46:44	721657	5.0.10.0	5_exp_RW	95	Rpleas_acq	CS_B	GWWG	YDDY	MQQM	BZZB	VKKV	JXXJ	schön	ehrlich	treu	spielen	retten	fair	schlecht	eitel	tot	strafen	rächen	faul	1	acq_USpleas_CSpleas2_RW	acq4567_RW	6	18	400	1	300	300	364	50	0	1	1	blank2r.bmp	0	1	+	0	1	blank2r.bmp	492	1	YDDY	492	1	blank2r.bmp	572	3	fair	866	1	!	1239	1	!	1266	0	0	0	0	0	0	0	0	0	0	0	0	0	0	0	0	0	0	0	0	0	0	0	0	0	0	0	0	0	0
081219	11:34:40	11:46:46	723803	5.0.10.0	5_exp_RW	95	Rpleas_acq	CS_B	GWWG	YDDY	MQQM	BZZB	VKKV	JXXJ	schön	ehrlich	treu	spielen	retten	fair	schlecht	eitel	tot	strafen	rächen	faul	1	acq_USunple_CSunple1_RW	acq4567_RW	6	19	400	1	300	300	354	46	0	1	1	blank2r.bmp	0	1	+	0	1	blank2r.bmp	492	1	MQQM	492	1	blank2r.bmp	572	2	eitel	866	1	!	1239	1	!	1252	0	0	0	0	0	0	0	0	0	0	0	0	0	0	0	0	0	0	0	0	0	0	0	0	0	0	0	0	0	0
081219	11:34:40	11:46:48	726056	5.0.10.0	5_exp_RW	95	Rpleas_acq	CS_B	GWWG	YDDY	MQQM	BZZB	VKKV	JXXJ	schön	ehrlich	treu	spielen	retten	fair	schlecht	eitel	tot	strafen	rächen	faul	1	acq_USpleas_CSpleas1_RW	acq4567_RW	6	20	400	0	300	300	488	46	0	0	1	blank2r.bmp	0	1	+	0	1	blank2r.bmp	492	1	GWWG	492	1	blank2r.bmp	572	3	treu	866	1	!	1239	1	!	-1	0	0	0	0	0	0	0	0	0	0	0	0	0	0	0	0	0	0	0	0	0	0	0	0	0	0	0	0	0	0
