date	time	script.currenttime	script.elapsedtime	build	script.currentexpt	subject	expressions.LRpleas_acq	expressions.conditionCS_A	expressions.CSpleas_1	expressions.CSpleas_2	expressions.CSunple_1	expressions.CSunple_2	expressions.distractor_1	expressions.distractor_2	expressions.US_pleas1	expressions.US_pleas2	expressions.US_pleas3	expressions.US_pleas4	expressions.US_pleas5	expressions.US_pleas6	expressions.US_unple1	expressions.US_unple2	expressions.US_unple3	expressions.US_unple4	expressions.US_unple5	expressions.US_unple6	counter.positions_noRW	trialcode	blockcode	blocknum	trialnum	windowcenter	inwindow	pretrialpause	posttrialpause	latency	response	expressions.correctedscore	correct	stimulusnumber1	stimulusitem1	stimulusonset1	stimulusnumber2	stimulusitem2	stimulusonset2	stimulusnumber3	stimulusitem3	stimulusonset3	stimulusnumber4	stimulusitem4	stimulusonset4	stimulusnumber5	stimulusitem5	stimulusonset5	stimulusnumber6	stimulusitem6	stimulusonset6	stimulusnumber7	stimulusitem7	stimulusonset7	stimulusnumber8	stimulusitem8	stimulusonset8	stimulusnumber9	stimulusitem9	stimulusonset9	stimulusnumber10	stimulusitem10	stimulusonset10	stimulusnumber11	stimulusitem11	stimulusonset11	stimulusnumber12	stimulusitem12	stimulusonset12	stimulusnumber13	stimulusitem13	stimulusonset13	stimulusnumber14	stimulusitem14	stimulusonset14	stimulusnumber15	stimulusitem15	stimulusonset15	stimulusnumber16	stimulusitem16	stimulusonset16	stimulusnumber17	stimulusitem17	stimulusonset17	stimulusnumber18	stimulusitem18	stimulusonset18
072319	13:14:16	13:15:20	63173	5.0.10.0	5_exp_RW	999	Rpleas_acq	CS_B	BZZB	JXXJ	GWWG	VKKV	MQQM	YDDY	retten	schön	fair	spielen	ehrlich	treu	rächen	schlecht	faul	strafen	eitel	tot	1	acq_USunple_CSunple1_RW	acq1_RW	1	1	0	0	300	300	652	50	0	0	1	blank2r.bmp	0	1	+	0	1	blank2r.bmp	492	1	GWWG	492	1	blank2r.bmp	574	1	rächen	866	1	FEHLER	1559	0	0	0	0	0	0	0	0	0	0	0	0	0	0	0	0	0	0	0	0	0	0	0	0	0	0	0	0	0	0	0	0	0
072319	13:14:16	13:15:22	65226	5.0.10.0	5_exp_RW	999	Rpleas_acq	CS_B	BZZB	JXXJ	GWWG	VKKV	MQQM	YDDY	retten	schön	fair	spielen	ehrlich	treu	rächen	schlecht	faul	strafen	eitel	tot	1	acq_USpleas_CSpleas2_RW	acq1_RW	1	2	0	0	300	300	788	50	0	1	1	blank2r.bmp	0	1	+	0	1	blank2r.bmp	492	1	JXXJ	492	1	blank2r.bmp	578	1	spielen	866	0	0	0	0	0	0	0	0	0	0	0	0	0	0	0	0	0	0	0	0	0	0	0	0	0	0	0	0	0	0	0	0	0	0	0	0
072319	13:14:16	13:15:24	67118	5.0.10.0	5_exp_RW	999	Rpleas_acq	CS_B	BZZB	JXXJ	GWWG	VKKV	MQQM	YDDY	retten	schön	fair	spielen	ehrlich	treu	rächen	schlecht	faul	strafen	eitel	tot	1	acq_USpleas_CSpleas2_RW	acq1_RW	1	3	0	0	300	300	417	50	0	1	1	blank2r.bmp	0	1	+	0	1	blank2r.bmp	492	1	JXXJ	492	1	blank2r.bmp	572	3	treu	866	0	0	0	0	0	0	0	0	0	0	0	0	0	0	0	0	0	0	0	0	0	0	0	0	0	0	0	0	0	0	0	0	0	0	0	0
072319	13:14:16	13:15:26	69331	5.0.10.0	5_exp_RW	999	Rpleas_acq	CS_B	BZZB	JXXJ	GWWG	VKKV	MQQM	YDDY	retten	schön	fair	spielen	ehrlich	treu	rächen	schlecht	faul	strafen	eitel	tot	1	acq_USunple_CSunple1_RW	acq1_RW	1	4	0	0	300	300	743	46	0	1	1	blank2r.bmp	0	1	+	0	1	blank2r.bmp	492	1	GWWG	492	1	blank2r.bmp	572	2	schlecht	866	0	0	0	0	0	0	0	0	0	0	0	0	0	0	0	0	0	0	0	0	0	0	0	0	0	0	0	0	0	0	0	0	0	0	0	0
072319	13:14:16	13:15:28	71357	5.0.10.0	5_exp_RW	999	Rpleas_acq	CS_B	BZZB	JXXJ	GWWG	VKKV	MQQM	YDDY	retten	schön	fair	spielen	ehrlich	treu	rächen	schlecht	faul	strafen	eitel	tot	1	acq_USunple_CSunple2_RW	acq1_RW	1	5	0	0	300	300	549	46	0	1	1	blank2r.bmp	0	1	+	0	1	blank2r.bmp	492	1	VKKV	492	1	blank2r.bmp	572	1	strafen	866	0	0	0	0	0	0	0	0	0	0	0	0	0	0	0	0	0	0	0	0	0	0	0	0	0	0	0	0	0	0	0	0	0	0	0	0
072319	13:14:16	13:15:30	73356	5.0.10.0	5_exp_RW	999	Rpleas_acq	CS_B	BZZB	JXXJ	GWWG	VKKV	MQQM	YDDY	retten	schön	fair	spielen	ehrlich	treu	rächen	schlecht	faul	strafen	eitel	tot	1	acq_USpleas_CSpleas1_RW	acq1_RW	1	6	0	0	300	300	522	50	0	1	1	blank2r.bmp	0	1	+	0	1	blank2r.bmp	492	1	BZZB	492	1	blank2r.bmp	572	1	retten	866	0	0	0	0	0	0	0	0	0	0	0	0	0	0	0	0	0	0	0	0	0	0	0	0	0	0	0	0	0	0	0	0	0	0	0	0
072319	13:14:16	13:15:32	75235	5.0.10.0	5_exp_RW	999	Rpleas_acq	CS_B	BZZB	JXXJ	GWWG	VKKV	MQQM	YDDY	retten	schön	fair	spielen	ehrlich	treu	rächen	schlecht	faul	strafen	eitel	tot	1	acq_USpleas_CSpleas1_RW	acq1_RW	1	7	0	0	300	300	407	50	0	1	1	blank2r.bmp	0	1	+	0	1	blank2r.bmp	492	1	BZZB	492	1	blank2r.bmp	572	3	fair	866	0	0	0	0	0	0	0	0	0	0	0	0	0	0	0	0	0	0	0	0	0	0	0	0	0	0	0	0	0	0	0	0	0	0	0	0
072319	13:14:16	13:15:34	77487	5.0.10.0	5_exp_RW	999	Rpleas_acq	CS_B	BZZB	JXXJ	GWWG	VKKV	MQQM	YDDY	retten	schön	fair	spielen	ehrlich	treu	rächen	schlecht	faul	strafen	eitel	tot	1	acq_USunple_CSunple2_RW	acq1_RW	1	8	0	0	300	300	558	50	0	0	1	blank2r.bmp	4	1	+	4	1	blank2r.bmp	492	1	VKKV	492	1	blank2r.bmp	572	2	eitel	871	1	FEHLER	1466	0	0	0	0	0	0	0	0	0	0	0	0	0	0	0	0	0	0	0	0	0	0	0	0	0	0	0	0	0	0	0	0	0
072319	13:14:16	13:15:36	79220	5.0.10.0	5_exp_RW	999	Rpleas_acq	CS_B	BZZB	JXXJ	GWWG	VKKV	MQQM	YDDY	retten	schön	fair	spielen	ehrlich	treu	rächen	schlecht	faul	strafen	eitel	tot	1	acq_USpleas_CSpleas1_RW	acq1_RW	1	9	0	0	300	300	466	50	0	1	1	blank2r.bmp	0	1	+	0	1	blank2r.bmp	492	1	BZZB	492	1	blank2r.bmp	573	2	schön	866	0	0	0	0	0	0	0	0	0	0	0	0	0	0	0	0	0	0	0	0	0	0	0	0	0	0	0	0	0	0	0	0	0	0	0	0
072319	13:14:16	13:15:38	81139	5.0.10.0	5_exp_RW	999	Rpleas_acq	CS_B	BZZB	JXXJ	GWWG	VKKV	MQQM	YDDY	retten	schön	fair	spielen	ehrlich	treu	rächen	schlecht	faul	strafen	eitel	tot	1	acq_USunple_CSunple2_RW	acq1_RW	1	10	0	0	300	300	441	46	0	1	1	blank2r.bmp	0	1	+	0	1	blank2r.bmp	492	1	VKKV	492	1	blank2r.bmp	572	3	tot	866	0	0	0	0	0	0	0	0	0	0	0	0	0	0	0	0	0	0	0	0	0	0	0	0	0	0	0	0	0	0	0	0	0	0	0	0
072319	13:14:16	13:15:40	83072	5.0.10.0	5_exp_RW	999	Rpleas_acq	CS_B	BZZB	JXXJ	GWWG	VKKV	MQQM	YDDY	retten	schön	fair	spielen	ehrlich	treu	rächen	schlecht	faul	strafen	eitel	tot	1	acq_USpleas_CSpleas2_RW	acq1_RW	1	11	0	0	300	300	455	50	0	1	1	blank2r.bmp	0	1	+	0	1	blank2r.bmp	492	1	JXXJ	492	1	blank2r.bmp	572	2	ehrlich	866	0	0	0	0	0	0	0	0	0	0	0	0	0	0	0	0	0	0	0	0	0	0	0	0	0	0	0	0	0	0	0	0	0	0	0	0
072319	13:14:16	13:15:42	85084	5.0.10.0	5_exp_RW	999	Rpleas_acq	CS_B	BZZB	JXXJ	GWWG	VKKV	MQQM	YDDY	retten	schön	fair	spielen	ehrlich	treu	rächen	schlecht	faul	strafen	eitel	tot	1	acq_USpleas_CSpleas2_RW	acq1_RW	1	12	0	0	300	300	540	50	0	1	1	blank2r.bmp	0	1	+	0	1	blank2r.bmp	492	1	JXXJ	492	1	blank2r.bmp	572	3	treu	866	0	0	0	0	0	0	0	0	0	0	0	0	0	0	0	0	0	0	0	0	0	0	0	0	0	0	0	0	0	0	0	0	0	0	0	0
072319	13:14:16	13:15:44	87070	5.0.10.0	5_exp_RW	999	Rpleas_acq	CS_B	BZZB	JXXJ	GWWG	VKKV	MQQM	YDDY	retten	schön	fair	spielen	ehrlich	treu	rächen	schlecht	faul	strafen	eitel	tot	1	acq_USunple_CSunple1_RW	acq1_RW	1	13	0	0	300	300	511	46	0	1	1	blank2r.bmp	0	1	+	0	1	blank2r.bmp	492	1	GWWG	492	1	blank2r.bmp	572	3	faul	866	0	0	0	0	0	0	0	0	0	0	0	0	0	0	0	0	0	0	0	0	0	0	0	0	0	0	0	0	0	0	0	0	0	0	0	0
072319	13:14:16	13:15:46	88963	5.0.10.0	5_exp_RW	999	Rpleas_acq	CS_B	BZZB	JXXJ	GWWG	VKKV	MQQM	YDDY	retten	schön	fair	spielen	ehrlich	treu	rächen	schlecht	faul	strafen	eitel	tot	1	acq_USunple_CSunple1_RW	acq1_RW	1	14	0	0	300	300	422	46	0	1	1	blank2r.bmp	0	1	+	0	1	blank2r.bmp	496	1	GWWG	496	1	blank2r.bmp	576	2	schlecht	866	0	0	0	0	0	0	0	0	0	0	0	0	0	0	0	0	0	0	0	0	0	0	0	0	0	0	0	0	0	0	0	0	0	0	0	0
072319	13:14:16	13:15:48	90842	5.0.10.0	5_exp_RW	999	Rpleas_acq	CS_B	BZZB	JXXJ	GWWG	VKKV	MQQM	YDDY	retten	schön	fair	spielen	ehrlich	treu	rächen	schlecht	faul	strafen	eitel	tot	1	acq_USpleas_CSpleas1_RW	acq1_RW	1	15	0	0	300	300	399	50	0	1	1	blank2r.bmp	0	1	+	0	1	blank2r.bmp	492	1	BZZB	492	1	blank2r.bmp	572	3	fair	866	0	0	0	0	0	0	0	0	0	0	0	0	0	0	0	0	0	0	0	0	0	0	0	0	0	0	0	0	0	0	0	0	0	0	0	0
072319	13:14:16	13:15:50	92815	5.0.10.0	5_exp_RW	999	Rpleas_acq	CS_B	BZZB	JXXJ	GWWG	VKKV	MQQM	YDDY	retten	schön	fair	spielen	ehrlich	treu	rächen	schlecht	faul	strafen	eitel	tot	1	acq_USunple_CSunple2_RW	acq1_RW	1	16	0	0	300	300	500	46	0	1	1	blank2r.bmp	0	1	+	0	1	blank2r.bmp	492	1	VKKV	492	1	blank2r.bmp	572	2	eitel	866	0	0	0	0	0	0	0	0	0	0	0	0	0	0	0	0	0	0	0	0	0	0	0	0	0	0	0	0	0	0	0	0	0	0	0	0
072319	13:14:16	13:16:17	120590	5.0.10.0	5_exp_RW	999	Rpleas_acq	CS_B	BZZB	JXXJ	GWWG	VKKV	MQQM	YDDY	retten	schön	fair	spielen	ehrlich	treu	rächen	schlecht	faul	strafen	eitel	tot	1	acq_USpleas_CSpleas2_RW	acq2_RW	2	1	480	1	300	300	465	50	0	1	1	blank2r.bmp	0	1	+	0	1	blank2r.bmp	492	1	JXXJ	492	1	blank2r.bmp	572	1	spielen	866	1	!	1319	1	!	1372	0	0	0	0	0	0	0	0	0	0	0	0	0	0	0	0	0	0	0	0	0	0	0	0	0	0	0	0	0	0
072319	13:14:16	13:16:20	122762	5.0.10.0	5_exp_RW	999	Rpleas_acq	CS_B	BZZB	JXXJ	GWWG	VKKV	MQQM	YDDY	retten	schön	fair	spielen	ehrlich	treu	rächen	schlecht	faul	strafen	eitel	tot	1	acq_USpleas_CSpleas2_RW	acq2_RW	2	2	480	0	300	300	405	50	0	1	1	blank2r.bmp	0	1	+	0	1	blank2r.bmp	492	1	JXXJ	492	1	blank2r.bmp	572	2	ehrlich	866	1	!	-1	1	!	-1	0	0	0	0	0	0	0	0	0	0	0	0	0	0	0	0	0	0	0	0	0	0	0	0	0	0	0	0	0	0
072319	13:14:16	13:16:22	125161	5.0.10.0	5_exp_RW	999	Rpleas_acq	CS_B	BZZB	JXXJ	GWWG	VKKV	MQQM	YDDY	retten	schön	fair	spielen	ehrlich	treu	rächen	schlecht	faul	strafen	eitel	tot	1	acq_USunple_CSunple1_RW	acq2_RW	2	3	480	0	300	300	622	46	0	1	1	blank2r.bmp	0	1	+	0	1	blank2r.bmp	492	1	GWWG	492	1	blank2r.bmp	572	3	faul	866	1	!	1319	1	!	-1	0	0	0	0	0	0	0	0	0	0	0	0	0	0	0	0	0	0	0	0	0	0	0	0	0	0	0	0	0	0
072319	13:14:16	13:16:24	127427	5.0.10.0	5_exp_RW	999	Rpleas_acq	CS_B	BZZB	JXXJ	GWWG	VKKV	MQQM	YDDY	retten	schön	fair	spielen	ehrlich	treu	rächen	schlecht	faul	strafen	eitel	tot	1	acq_USunple_CSunple1_RW	acq2_RW	2	4	480	1	300	300	464	46	0	1	1	blank2r.bmp	0	1	+	0	1	blank2r.bmp	492	1	GWWG	492	1	blank2r.bmp	573	1	rächen	866	1	!	1319	1	!	1359	0	0	0	0	0	0	0	0	0	0	0	0	0	0	0	0	0	0	0	0	0	0	0	0	0	0	0	0	0	0
072319	13:14:16	13:16:27	129733	5.0.10.0	5_exp_RW	999	Rpleas_acq	CS_B	BZZB	JXXJ	GWWG	VKKV	MQQM	YDDY	retten	schön	fair	spielen	ehrlich	treu	rächen	schlecht	faul	strafen	eitel	tot	1	acq_USpleas_CSpleas2_RW	acq2_RW	2	5	480	1	300	300	507	50	0	1	1	blank2r.bmp	0	1	+	0	1	blank2r.bmp	492	1	JXXJ	492	1	blank2r.bmp	572	3	treu	866	1	!	1319	1	!	1412	0	0	0	0	0	0	0	0	0	0	0	0	0	0	0	0	0	0	0	0	0	0	0	0	0	0	0	0	0	0
072319	13:14:16	13:16:29	132105	5.0.10.0	5_exp_RW	999	Rpleas_acq	CS_B	BZZB	JXXJ	GWWG	VKKV	MQQM	YDDY	retten	schön	fair	spielen	ehrlich	treu	rächen	schlecht	faul	strafen	eitel	tot	1	acq_USunple_CSunple2_RW	acq2_RW	2	6	480	0	300	300	602	46	0	1	1	blank2r.bmp	5	1	+	5	1	blank2r.bmp	492	1	VKKV	492	1	blank2r.bmp	572	3	tot	866	1	!	1319	1	!	-1	0	0	0	0	0	0	0	0	0	0	0	0	0	0	0	0	0	0	0	0	0	0	0	0	0	0	0	0	0	0
072319	13:14:16	13:16:31	134304	5.0.10.0	5_exp_RW	999	Rpleas_acq	CS_B	BZZB	JXXJ	GWWG	VKKV	MQQM	YDDY	retten	schön	fair	spielen	ehrlich	treu	rächen	schlecht	faul	strafen	eitel	tot	1	acq_USunple_CSunple2_RW	acq2_RW	2	7	480	0	300	300	404	46	0	1	1	blank2r.bmp	0	1	+	0	1	blank2r.bmp	492	1	VKKV	492	1	blank2r.bmp	572	1	strafen	866	1	!	-1	1	!	-1	0	0	0	0	0	0	0	0	0	0	0	0	0	0	0	0	0	0	0	0	0	0	0	0	0	0	0	0	0	0
072319	13:14:16	13:16:33	136530	5.0.10.0	5_exp_RW	999	Rpleas_acq	CS_B	BZZB	JXXJ	GWWG	VKKV	MQQM	YDDY	retten	schön	fair	spielen	ehrlich	treu	rächen	schlecht	faul	strafen	eitel	tot	1	acq_USpleas_CSpleas2_RW	acq2_RW	2	8	480	1	300	300	426	50	0	1	1	blank2r.bmp	0	1	+	0	1	blank2r.bmp	492	1	JXXJ	492	1	blank2r.bmp	572	2	ehrlich	866	1	!	1319	1	!	1332	0	0	0	0	0	0	0	0	0	0	0	0	0	0	0	0	0	0	0	0	0	0	0	0	0	0	0	0	0	0
072319	13:14:16	13:16:36	138756	5.0.10.0	5_exp_RW	999	Rpleas_acq	CS_B	BZZB	JXXJ	GWWG	VKKV	MQQM	YDDY	retten	schön	fair	spielen	ehrlich	treu	rächen	schlecht	faul	strafen	eitel	tot	1	acq_USpleas_CSpleas1_RW	acq2_RW	2	9	480	1	300	300	424	50	0	1	1	blank2r.bmp	0	1	+	0	1	blank2r.bmp	492	1	BZZB	492	1	blank2r.bmp	572	2	schön	866	1	!	1319	1	!	1332	0	0	0	0	0	0	0	0	0	0	0	0	0	0	0	0	0	0	0	0	0	0	0	0	0	0	0	0	0	0
072319	13:14:16	13:16:38	140981	5.0.10.0	5_exp_RW	999	Rpleas_acq	CS_B	BZZB	JXXJ	GWWG	VKKV	MQQM	YDDY	retten	schön	fair	spielen	ehrlich	treu	rächen	schlecht	faul	strafen	eitel	tot	1	acq_USpleas_CSpleas1_RW	acq2_RW	2	10	480	1	300	300	427	50	0	1	1	blank2r.bmp	0	1	+	0	1	blank2r.bmp	492	1	BZZB	492	1	blank2r.bmp	573	1	retten	866	1	!	1319	1	!	1332	0	0	0	0	0	0	0	0	0	0	0	0	0	0	0	0	0	0	0	0	0	0	0	0	0	0	0	0	0	0
072319	13:14:16	13:16:40	143234	5.0.10.0	5_exp_RW	999	Rpleas_acq	CS_B	BZZB	JXXJ	GWWG	VKKV	MQQM	YDDY	retten	schön	fair	spielen	ehrlich	treu	rächen	schlecht	faul	strafen	eitel	tot	1	acq_USpleas_CSpleas2_RW	acq2_RW	2	11	480	1	300	300	457	50	0	1	1	blank2r.bmp	0	1	+	0	1	blank2r.bmp	492	1	JXXJ	492	1	blank2r.bmp	573	1	spielen	866	1	!	1319	1	!	1359	0	0	0	0	0	0	0	0	0	0	0	0	0	0	0	0	0	0	0	0	0	0	0	0	0	0	0	0	0	0
072319	13:14:16	13:16:42	145486	5.0.10.0	5_exp_RW	999	Rpleas_acq	CS_B	BZZB	JXXJ	GWWG	VKKV	MQQM	YDDY	retten	schön	fair	spielen	ehrlich	treu	rächen	schlecht	faul	strafen	eitel	tot	1	acq_USunple_CSunple1_RW	acq2_RW	2	12	480	1	300	300	452	46	0	1	1	blank2r.bmp	4	1	+	4	1	blank2r.bmp	492	1	GWWG	492	1	blank2r.bmp	572	3	faul	868	1	!	1319	1	!	1359	0	0	0	0	0	0	0	0	0	0	0	0	0	0	0	0	0	0	0	0	0	0	0	0	0	0	0	0	0	0
072319	13:14:16	13:16:45	147765	5.0.10.0	5_exp_RW	999	Rpleas_acq	CS_B	BZZB	JXXJ	GWWG	VKKV	MQQM	YDDY	retten	schön	fair	spielen	ehrlich	treu	rächen	schlecht	faul	strafen	eitel	tot	1	acq_USpleas_CSpleas1_RW	acq2_RW	2	13	480	1	300	300	491	50	0	1	1	blank2r.bmp	0	1	+	0	1	blank2r.bmp	492	1	BZZB	492	1	blank2r.bmp	572	2	schön	866	1	!	1319	1	!	1386	0	0	0	0	0	0	0	0	0	0	0	0	0	0	0	0	0	0	0	0	0	0	0	0	0	0	0	0	0	0
072319	13:14:16	13:16:47	150031	5.0.10.0	5_exp_RW	999	Rpleas_acq	CS_B	BZZB	JXXJ	GWWG	VKKV	MQQM	YDDY	retten	schön	fair	spielen	ehrlich	treu	rächen	schlecht	faul	strafen	eitel	tot	1	acq_USpleas_CSpleas1_RW	acq2_RW	2	14	480	1	300	300	475	50	0	1	1	blank2r.bmp	0	1	+	0	1	blank2r.bmp	492	1	BZZB	492	1	blank2r.bmp	572	3	fair	866	1	!	1319	1	!	1372	0	0	0	0	0	0	0	0	0	0	0	0	0	0	0	0	0	0	0	0	0	0	0	0	0	0	0	0	0	0
072319	13:14:16	13:16:49	152257	5.0.10.0	5_exp_RW	999	Rpleas_acq	CS_B	BZZB	JXXJ	GWWG	VKKV	MQQM	YDDY	retten	schön	fair	spielen	ehrlich	treu	rächen	schlecht	faul	strafen	eitel	tot	1	acq_USunple_CSunple1_RW	acq2_RW	2	15	480	1	300	300	431	46	0	1	1	blank2r.bmp	0	1	+	0	1	blank2r.bmp	492	1	GWWG	492	1	blank2r.bmp	572	1	rächen	866	1	!	1319	1	!	1332	0	0	0	0	0	0	0	0	0	0	0	0	0	0	0	0	0	0	0	0	0	0	0	0	0	0	0	0	0	0
072319	13:14:16	13:16:51	154536	5.0.10.0	5_exp_RW	999	Rpleas_acq	CS_B	BZZB	JXXJ	GWWG	VKKV	MQQM	YDDY	retten	schön	fair	spielen	ehrlich	treu	rächen	schlecht	faul	strafen	eitel	tot	1	acq_USpleas_CSpleas1_RW	acq2_RW	2	16	480	1	300	300	479	50	0	1	1	blank2r.bmp	0	1	+	0	1	blank2r.bmp	492	1	BZZB	492	1	blank2r.bmp	572	1	retten	866	1	!	1319	1	!	1386	0	0	0	0	0	0	0	0	0	0	0	0	0	0	0	0	0	0	0	0	0	0	0	0	0	0	0	0	0	0
072319	13:14:16	13:16:54	156762	5.0.10.0	5_exp_RW	999	Rpleas_acq	CS_B	BZZB	JXXJ	GWWG	VKKV	MQQM	YDDY	retten	schön	fair	spielen	ehrlich	treu	rächen	schlecht	faul	strafen	eitel	tot	1	acq_USunple_CSunple1_RW	acq2_RW	2	17	480	1	300	300	425	46	0	1	1	blank2r.bmp	0	1	+	0	1	blank2r.bmp	494	1	GWWG	494	1	blank2r.bmp	572	2	schlecht	866	1	!	1319	1	!	1332	0	0	0	0	0	0	0	0	0	0	0	0	0	0	0	0	0	0	0	0	0	0	0	0	0	0	0	0	0	0
072319	13:14:16	13:16:56	159094	5.0.10.0	5_exp_RW	999	Rpleas_acq	CS_B	BZZB	JXXJ	GWWG	VKKV	MQQM	YDDY	retten	schön	fair	spielen	ehrlich	treu	rächen	schlecht	faul	strafen	eitel	tot	1	acq_USpleas_CSpleas1_RW	acq2_RW	2	18	480	1	300	300	538	50	0	1	1	blank2r.bmp	0	1	+	0	1	blank2r.bmp	492	1	BZZB	492	1	blank2r.bmp	574	1	retten	866	1	!	1319	1	!	1439	0	0	0	0	0	0	0	0	0	0	0	0	0	0	0	0	0	0	0	0	0	0	0	0	0	0	0	0	0	0
072319	13:14:16	13:16:58	161360	5.0.10.0	5_exp_RW	999	Rpleas_acq	CS_B	BZZB	JXXJ	GWWG	VKKV	MQQM	YDDY	retten	schön	fair	spielen	ehrlich	treu	rächen	schlecht	faul	strafen	eitel	tot	1	acq_USunple_CSunple2_RW	acq2_RW	2	19	480	1	300	300	475	46	0	1	1	blank2r.bmp	0	1	+	0	1	blank2r.bmp	492	1	VKKV	492	1	blank2r.bmp	573	3	tot	866	1	!	1319	1	!	1372	0	0	0	0	0	0	0	0	0	0	0	0	0	0	0	0	0	0	0	0	0	0	0	0	0	0	0	0	0	0
072319	13:14:16	13:17:00	163626	5.0.10.0	5_exp_RW	999	Rpleas_acq	CS_B	BZZB	JXXJ	GWWG	VKKV	MQQM	YDDY	retten	schön	fair	spielen	ehrlich	treu	rächen	schlecht	faul	strafen	eitel	tot	1	acq_USunple_CSunple2_RW	acq2_RW	2	20	480	1	300	300	467	46	0	1	1	blank2r.bmp	0	1	+	0	1	blank2r.bmp	492	1	VKKV	492	1	blank2r.bmp	572	2	eitel	866	1	!	1319	1	!	1372	0	0	0	0	0	0	0	0	0	0	0	0	0	0	0	0	0	0	0	0	0	0	0	0	0	0	0	0	0	0
072319	13:14:16	13:17:03	165931	5.0.10.0	5_exp_RW	999	Rpleas_acq	CS_B	BZZB	JXXJ	GWWG	VKKV	MQQM	YDDY	retten	schön	fair	spielen	ehrlich	treu	rächen	schlecht	faul	strafen	eitel	tot	1	acq_USunple_CSunple2_RW	acq2_RW	2	21	480	1	300	300	506	46	0	1	1	blank2r.bmp	0	1	+	0	1	blank2r.bmp	492	1	VKKV	492	1	blank2r.bmp	572	1	strafen	866	1	!	1319	1	!	1412	0	0	0	0	0	0	0	0	0	0	0	0	0	0	0	0	0	0	0	0	0	0	0	0	0	0	0	0	0	0
072319	13:14:16	13:17:05	168237	5.0.10.0	5_exp_RW	999	Rpleas_acq	CS_B	BZZB	JXXJ	GWWG	VKKV	MQQM	YDDY	retten	schön	fair	spielen	ehrlich	treu	rächen	schlecht	faul	strafen	eitel	tot	1	acq_USunple_CSunple2_RW	acq2_RW	2	22	480	1	300	300	515	46	0	1	1	blank2r.bmp	0	1	+	0	1	blank2r.bmp	492	1	VKKV	492	1	blank2r.bmp	572	2	eitel	866	1	!	1319	1	!	1412	0	0	0	0	0	0	0	0	0	0	0	0	0	0	0	0	0	0	0	0	0	0	0	0	0	0	0	0	0	0
072319	13:14:16	13:17:07	170516	5.0.10.0	5_exp_RW	999	Rpleas_acq	CS_B	BZZB	JXXJ	GWWG	VKKV	MQQM	YDDY	retten	schön	fair	spielen	ehrlich	treu	rächen	schlecht	faul	strafen	eitel	tot	1	acq_USunple_CSunple1_RW	acq2_RW	2	23	480	1	300	300	486	46	0	1	1	blank2r.bmp	0	1	+	0	1	blank2r.bmp	493	1	GWWG	493	1	blank2r.bmp	572	3	faul	866	1	!	1319	1	!	1386	0	0	0	0	0	0	0	0	0	0	0	0	0	0	0	0	0	0	0	0	0	0	0	0	0	0	0	0	0	0
072319	13:14:16	13:17:10	172742	5.0.10.0	5_exp_RW	999	Rpleas_acq	CS_B	BZZB	JXXJ	GWWG	VKKV	MQQM	YDDY	retten	schön	fair	spielen	ehrlich	treu	rächen	schlecht	faul	strafen	eitel	tot	1	acq_USpleas_CSpleas2_RW	acq2_RW	2	24	480	1	300	300	421	50	0	1	1	blank2r.bmp	0	1	+	0	1	blank2r.bmp	492	1	JXXJ	492	1	blank2r.bmp	572	2	ehrlich	866	1	!	1319	1	!	1332	0	0	0	0	0	0	0	0	0	0	0	0	0	0	0	0	0	0	0	0	0	0	0	0	0	0	0	0	0	0
072319	13:14:16	13:17:28	191601	5.0.10.0	5_exp_RW	999	Rpleas_acq	CS_B	BZZB	JXXJ	GWWG	VKKV	MQQM	YDDY	retten	schön	fair	spielen	ehrlich	treu	rächen	schlecht	faul	strafen	eitel	tot	1	acq_USpleas_CSpleas1_RW	acq3_RW	3	1	453	0	300	300	331	50	0	1	1	blank2r.bmp	0	1	+	0	1	blank2r.bmp	492	1	BZZB	492	1	blank2r.bmp	577	2	schön	866	1	!	-1	1	!	-1	0	0	0	0	0	0	0	0	0	0	0	0	0	0	0	0	0	0	0	0	0	0	0	0	0	0	0	0	0	0
072319	13:14:16	13:17:31	193920	5.0.10.0	5_exp_RW	999	Rpleas_acq	CS_B	BZZB	JXXJ	GWWG	VKKV	MQQM	YDDY	retten	schön	fair	spielen	ehrlich	treu	rächen	schlecht	faul	strafen	eitel	tot	1	acq_USpleas_CSpleas1_RW	acq3_RW	3	2	453	0	300	300	556	50	0	1	1	blank2r.bmp	2	1	+	2	1	blank2r.bmp	492	1	BZZB	492	1	blank2r.bmp	572	3	fair	870	1	!	1292	1	!	-1	0	0	0	0	0	0	0	0	0	0	0	0	0	0	0	0	0	0	0	0	0	0	0	0	0	0	0	0	0	0
072319	13:14:16	13:17:33	196172	5.0.10.0	5_exp_RW	999	Rpleas_acq	CS_B	BZZB	JXXJ	GWWG	VKKV	MQQM	YDDY	retten	schön	fair	spielen	ehrlich	treu	rächen	schlecht	faul	strafen	eitel	tot	1	acq_USpleas_CSpleas1_RW	acq3_RW	3	3	453	1	300	300	440	50	0	1	1	blank2r.bmp	0	1	+	0	1	blank2r.bmp	492	1	BZZB	492	1	blank2r.bmp	572	2	schön	866	1	!	1292	1	!	1346	0	0	0	0	0	0	0	0	0	0	0	0	0	0	0	0	0	0	0	0	0	0	0	0	0	0	0	0	0	0
072319	13:14:16	13:17:35	198425	5.0.10.0	5_exp_RW	999	Rpleas_acq	CS_B	BZZB	JXXJ	GWWG	VKKV	MQQM	YDDY	retten	schön	fair	spielen	ehrlich	treu	rächen	schlecht	faul	strafen	eitel	tot	1	acq_USunple_CSunple2_RW	acq3_RW	3	4	453	1	300	300	457	46	0	1	1	blank2r.bmp	0	1	+	0	1	blank2r.bmp	492	1	VKKV	492	1	blank2r.bmp	572	3	tot	866	1	!	1292	1	!	1359	0	0	0	0	0	0	0	0	0	0	0	0	0	0	0	0	0	0	0	0	0	0	0	0	0	0	0	0	0	0
072319	13:14:16	13:17:37	200704	5.0.10.0	5_exp_RW	999	Rpleas_acq	CS_B	BZZB	JXXJ	GWWG	VKKV	MQQM	YDDY	retten	schön	fair	spielen	ehrlich	treu	rächen	schlecht	faul	strafen	eitel	tot	1	acq_USpleas_CSpleas2_RW	acq3_RW	3	5	453	1	300	300	482	50	0	1	1	blank2r.bmp	0	1	+	0	1	blank2r.bmp	492	1	JXXJ	492	1	blank2r.bmp	573	3	treu	866	1	!	1292	1	!	1386	0	0	0	0	0	0	0	0	0	0	0	0	0	0	0	0	0	0	0	0	0	0	0	0	0	0	0	0	0	0
072319	13:14:16	13:17:40	203036	5.0.10.0	5_exp_RW	999	Rpleas_acq	CS_B	BZZB	JXXJ	GWWG	VKKV	MQQM	YDDY	retten	schön	fair	spielen	ehrlich	treu	rächen	schlecht	faul	strafen	eitel	tot	1	acq_USunple_CSunple1_RW	acq3_RW	3	6	453	0	300	300	543	46	0	1	1	blank2r.bmp	0	1	+	0	1	blank2r.bmp	493	1	GWWG	493	1	blank2r.bmp	572	1	rächen	866	1	!	1292	1	!	-1	0	0	0	0	0	0	0	0	0	0	0	0	0	0	0	0	0	0	0	0	0	0	0	0	0	0	0	0	0	0
072319	13:14:16	13:17:42	205249	5.0.10.0	5_exp_RW	999	Rpleas_acq	CS_B	BZZB	JXXJ	GWWG	VKKV	MQQM	YDDY	retten	schön	fair	spielen	ehrlich	treu	rächen	schlecht	faul	strafen	eitel	tot	1	acq_USpleas_CSpleas2_RW	acq3_RW	3	7	453	1	300	300	423	50	0	1	1	blank2r.bmp	0	1	+	0	1	blank2r.bmp	492	1	JXXJ	492	1	blank2r.bmp	572	1	spielen	866	1	!	1292	1	!	1319	0	0	0	0	0	0	0	0	0	0	0	0	0	0	0	0	0	0	0	0	0	0	0	0	0	0	0	0	0	0
072319	13:14:16	13:17:44	207448	5.0.10.0	5_exp_RW	999	Rpleas_acq	CS_B	BZZB	JXXJ	GWWG	VKKV	MQQM	YDDY	retten	schön	fair	spielen	ehrlich	treu	rächen	schlecht	faul	strafen	eitel	tot	1	acq_USpleas_CSpleas2_RW	acq3_RW	3	8	453	1	300	300	408	50	0	1	1	blank2r.bmp	0	1	+	0	1	blank2r.bmp	492	1	JXXJ	492	1	blank2r.bmp	572	1	spielen	866	1	!	1293	1	!	1306	0	0	0	0	0	0	0	0	0	0	0	0	0	0	0	0	0	0	0	0	0	0	0	0	0	0	0	0	0	0
072319	13:14:16	13:17:46	209647	5.0.10.0	5_exp_RW	999	Rpleas_acq	CS_B	BZZB	JXXJ	GWWG	VKKV	MQQM	YDDY	retten	schön	fair	spielen	ehrlich	treu	rächen	schlecht	faul	strafen	eitel	tot	1	acq_USpleas_CSpleas1_RW	acq3_RW	3	9	453	1	300	300	401	50	0	1	1	blank2r.bmp	0	1	+	0	1	blank2r.bmp	492	1	BZZB	492	1	blank2r.bmp	572	3	fair	867	1	!	1293	1	!	1306	0	0	0	0	0	0	0	0	0	0	0	0	0	0	0	0	0	0	0	0	0	0	0	0	0	0	0	0	0	0
072319	13:14:16	13:17:49	211859	5.0.10.0	5_exp_RW	999	Rpleas_acq	CS_B	BZZB	JXXJ	GWWG	VKKV	MQQM	YDDY	retten	schön	fair	spielen	ehrlich	treu	rächen	schlecht	faul	strafen	eitel	tot	1	acq_USunple_CSunple1_RW	acq3_RW	3	10	453	1	300	300	419	46	0	1	1	blank2r.bmp	0	1	+	0	1	blank2r.bmp	492	1	GWWG	492	1	blank2r.bmp	572	2	schlecht	866	1	!	1292	1	!	1319	0	0	0	0	0	0	0	0	0	0	0	0	0	0	0	0	0	0	0	0	0	0	0	0	0	0	0	0	0	0
072319	13:14:16	13:17:51	214085	5.0.10.0	5_exp_RW	999	Rpleas_acq	CS_B	BZZB	JXXJ	GWWG	VKKV	MQQM	YDDY	retten	schön	fair	spielen	ehrlich	treu	rächen	schlecht	faul	strafen	eitel	tot	1	acq_USpleas_CSpleas2_RW	acq3_RW	3	11	453	1	300	300	438	50	0	1	1	blank2r.bmp	0	1	+	0	1	blank2r.bmp	492	1	JXXJ	492	1	blank2r.bmp	572	3	treu	866	1	!	1292	1	!	1332	0	0	0	0	0	0	0	0	0	0	0	0	0	0	0	0	0	0	0	0	0	0	0	0	0	0	0	0	0	0
072319	13:14:16	13:17:53	216284	5.0.10.0	5_exp_RW	999	Rpleas_acq	CS_B	BZZB	JXXJ	GWWG	VKKV	MQQM	YDDY	retten	schön	fair	spielen	ehrlich	treu	rächen	schlecht	faul	strafen	eitel	tot	1	acq_USpleas_CSpleas2_RW	acq3_RW	3	12	453	1	300	300	408	50	0	1	1	blank2r.bmp	0	1	+	0	1	blank2r.bmp	492	1	JXXJ	492	1	blank2r.bmp	572	2	ehrlich	866	1	!	1292	1	!	1306	0	0	0	0	0	0	0	0	0	0	0	0	0	0	0	0	0	0	0	0	0	0	0	0	0	0	0	0	0	0
072319	13:14:16	13:17:55	218550	5.0.10.0	5_exp_RW	999	Rpleas_acq	CS_B	BZZB	JXXJ	GWWG	VKKV	MQQM	YDDY	retten	schön	fair	spielen	ehrlich	treu	rächen	schlecht	faul	strafen	eitel	tot	1	acq_USunple_CSunple1_RW	acq3_RW	3	13	453	1	300	300	476	46	0	1	1	blank2r.bmp	0	1	+	0	1	blank2r.bmp	492	1	GWWG	492	1	blank2r.bmp	572	1	rächen	866	1	!	1292	1	!	1372	0	0	0	0	0	0	0	0	0	0	0	0	0	0	0	0	0	0	0	0	0	0	0	0	0	0	0	0	0	0
072319	13:14:16	13:17:58	220802	5.0.10.0	5_exp_RW	999	Rpleas_acq	CS_B	BZZB	JXXJ	GWWG	VKKV	MQQM	YDDY	retten	schön	fair	spielen	ehrlich	treu	rächen	schlecht	faul	strafen	eitel	tot	1	acq_USunple_CSunple2_RW	acq3_RW	3	14	453	1	300	300	457	46	0	1	1	blank2r.bmp	0	1	+	0	1	blank2r.bmp	492	1	VKKV	492	1	blank2r.bmp	572	1	strafen	866	1	!	1292	1	!	1359	0	0	0	0	0	0	0	0	0	0	0	0	0	0	0	0	0	0	0	0	0	0	0	0	0	0	0	0	0	0
072319	13:14:16	13:18:00	222895	5.0.10.0	5_exp_RW	999	Rpleas_acq	CS_B	BZZB	JXXJ	GWWG	VKKV	MQQM	YDDY	retten	schön	fair	spielen	ehrlich	treu	rächen	schlecht	faul	strafen	eitel	tot	1	acq_USpleas_CSpleas2_RW	acq3_RW	3	15	453	0	300	300	312	50	0	1	1	blank2r.bmp	0	1	+	0	1	blank2r.bmp	492	1	JXXJ	492	1	blank2r.bmp	573	1	spielen	866	1	!	-1	1	!	-1	0	0	0	0	0	0	0	0	0	0	0	0	0	0	0	0	0	0	0	0	0	0	0	0	0	0	0	0	0	0
072319	13:14:16	13:18:02	225267	5.0.10.0	5_exp_RW	999	Rpleas_acq	CS_B	BZZB	JXXJ	GWWG	VKKV	MQQM	YDDY	retten	schön	fair	spielen	ehrlich	treu	rächen	schlecht	faul	strafen	eitel	tot	1	acq_USpleas_CSpleas1_RW	acq3_RW	3	16	453	0	300	300	372	46	0	0	1	blank2r.bmp	0	1	+	0	1	blank2r.bmp	492	1	BZZB	492	1	blank2r.bmp	577	1	retten	866	1	FEHLER	1586	1	!	-1	1	!	-1	0	0	0	0	0	0	0	0	0	0	0	0	0	0	0	0	0	0	0	0	0	0	0	0	0	0	0
072319	13:14:16	13:18:06	229172	5.0.10.0	5_exp_RW	999	Rpleas_acq	CS_B	BZZB	JXXJ	GWWG	VKKV	MQQM	YDDY	retten	schön	fair	spielen	ehrlich	treu	rächen	schlecht	faul	strafen	eitel	tot	1	acq_USunple_CSunple1_RW	acq3_RW	3	17	453	0	300	300	2333	46	0	1	1	blank2r.bmp	0	1	+	0	1	blank2r.bmp	492	1	GWWG	492	1	blank2r.bmp	573	2	schlecht	866	1	!	1292	1	!	-1	0	0	0	0	0	0	0	0	0	0	0	0	0	0	0	0	0	0	0	0	0	0	0	0	0	0	0	0	0	0
072319	13:14:16	13:18:08	231438	5.0.10.0	5_exp_RW	999	Rpleas_acq	CS_B	BZZB	JXXJ	GWWG	VKKV	MQQM	YDDY	retten	schön	fair	spielen	ehrlich	treu	rächen	schlecht	faul	strafen	eitel	tot	1	acq_USunple_CSunple1_RW	acq3_RW	3	18	453	1	300	300	474	46	0	1	1	blank2r.bmp	0	1	+	0	1	blank2r.bmp	492	1	GWWG	492	1	blank2r.bmp	573	3	faul	866	1	!	1292	1	!	1372	0	0	0	0	0	0	0	0	0	0	0	0	0	0	0	0	0	0	0	0	0	0	0	0	0	0	0	0	0	0
072319	13:14:16	13:18:11	233730	5.0.10.0	5_exp_RW	999	Rpleas_acq	CS_B	BZZB	JXXJ	GWWG	VKKV	MQQM	YDDY	retten	schön	fair	spielen	ehrlich	treu	rächen	schlecht	faul	strafen	eitel	tot	1	acq_USunple_CSunple2_RW	acq3_RW	3	19	453	1	300	300	497	46	0	1	1	blank2r.bmp	0	1	+	0	1	blank2r.bmp	492	1	VKKV	492	1	blank2r.bmp	572	1	strafen	866	1	!	1292	1	!	1399	0	0	0	0	0	0	0	0	0	0	0	0	0	0	0	0	0	0	0	0	0	0	0	0	0	0	0	0	0	0
072319	13:14:16	13:18:13	235983	5.0.10.0	5_exp_RW	999	Rpleas_acq	CS_B	BZZB	JXXJ	GWWG	VKKV	MQQM	YDDY	retten	schön	fair	spielen	ehrlich	treu	rächen	schlecht	faul	strafen	eitel	tot	1	acq_USpleas_CSpleas1_RW	acq3_RW	3	20	453	1	300	300	460	50	0	1	1	blank2r.bmp	0	1	+	0	1	blank2r.bmp	492	1	BZZB	492	1	blank2r.bmp	572	1	retten	866	1	!	1292	1	!	1359	0	0	0	0	0	0	0	0	0	0	0	0	0	0	0	0	0	0	0	0	0	0	0	0	0	0	0	0	0	0
072319	13:14:16	13:18:15	238208	5.0.10.0	5_exp_RW	999	Rpleas_acq	CS_B	BZZB	JXXJ	GWWG	VKKV	MQQM	YDDY	retten	schön	fair	spielen	ehrlich	treu	rächen	schlecht	faul	strafen	eitel	tot	1	acq_USunple_CSunple1_RW	acq3_RW	3	21	453	1	300	300	429	46	0	1	1	blank2r.bmp	0	1	+	0	1	blank2r.bmp	492	1	GWWG	492	1	blank2r.bmp	572	1	rächen	866	1	!	1292	1	!	1332	0	0	0	0	0	0	0	0	0	0	0	0	0	0	0	0	0	0	0	0	0	0	0	0	0	0	0	0	0	0
072319	13:14:16	13:18:17	240647	5.0.10.0	5_exp_RW	999	Rpleas_acq	CS_B	BZZB	JXXJ	GWWG	VKKV	MQQM	YDDY	retten	schön	fair	spielen	ehrlich	treu	rächen	schlecht	faul	strafen	eitel	tot	1	acq_USunple_CSunple2_RW	acq3_RW	3	22	453	1	300	300	434	50	0	0	1	blank2r.bmp	0	1	+	0	1	blank2r.bmp	495	1	VKKV	495	1	blank2r.bmp	572	2	eitel	867	1	FEHLER	1652	1	!	1292	1	!	1332	0	0	0	0	0	0	0	0	0	0	0	0	0	0	0	0	0	0	0	0	0	0	0	0	0	0	0
072319	13:14:16	13:18:19	242687	5.0.10.0	5_exp_RW	999	Rpleas_acq	CS_B	BZZB	JXXJ	GWWG	VKKV	MQQM	YDDY	retten	schön	fair	spielen	ehrlich	treu	rächen	schlecht	faul	strafen	eitel	tot	1	acq_USunple_CSunple2_RW	acq3_RW	3	23	453	1	300	300	454	46	0	1	1	blank2r.bmp	0	1	+	0	1	blank2r.bmp	492	1	VKKV	492	1	blank2r.bmp	572	3	tot	866	1	!	1292	1	!	1359	0	0	0	0	0	0	0	0	0	0	0	0	0	0	0	0	0	0	0	0	0	0	0	0	0	0	0	0	0	0
072319	13:14:16	13:18:22	245232	5.0.10.0	5_exp_RW	999	Rpleas_acq	CS_B	BZZB	JXXJ	GWWG	VKKV	MQQM	YDDY	retten	schön	fair	spielen	ehrlich	treu	rächen	schlecht	faul	strafen	eitel	tot	1	acq_USunple_CSunple2_RW	acq3_RW	3	24	453	1	300	300	513	50	0	0	1	blank2r.bmp	0	1	+	0	1	blank2r.bmp	492	1	VKKV	492	1	blank2r.bmp	572	2	eitel	866	1	FEHLER	1759	1	!	1292	1	!	1426	0	0	0	0	0	0	0	0	0	0	0	0	0	0	0	0	0	0	0	0	0	0	0	0	0	0	0
072319	13:14:16	13:18:36	259360	5.0.10.0	5_exp_RW	999	Rpleas_acq	CS_B	BZZB	JXXJ	GWWG	VKKV	MQQM	YDDY	retten	schön	fair	spielen	ehrlich	treu	rächen	schlecht	faul	strafen	eitel	tot	1	acq_USunple_CSunple1_RW	acq4567_RW	4	1	400	0	300	300	480	46	0	1	1	blank2r.bmp	0	1	+	0	1	blank2r.bmp	493	1	GWWG	493	1	blank2r.bmp	572	2	schlecht	866	1	!	1239	1	!	-1	0	0	0	0	0	0	0	0	0	0	0	0	0	0	0	0	0	0	0	0	0	0	0	0	0	0	0	0	0	0
072319	13:14:16	13:18:38	261532	5.0.10.0	5_exp_RW	999	Rpleas_acq	CS_B	BZZB	JXXJ	GWWG	VKKV	MQQM	YDDY	retten	schön	fair	spielen	ehrlich	treu	rächen	schlecht	faul	strafen	eitel	tot	1	acq_USunple_CSunple1_RW	acq4567_RW	4	2	400	1	300	300	371	46	0	1	1	blank2r.bmp	0	1	+	0	1	blank2r.bmp	492	1	GWWG	492	1	blank2r.bmp	572	3	faul	866	1	!	1239	1	!	1266	0	0	0	0	0	0	0	0	0	0	0	0	0	0	0	0	0	0	0	0	0	0	0	0	0	0	0	0	0	0
072319	13:14:16	13:18:41	263731	5.0.10.0	5_exp_RW	999	Rpleas_acq	CS_B	BZZB	JXXJ	GWWG	VKKV	MQQM	YDDY	retten	schön	fair	spielen	ehrlich	treu	rächen	schlecht	faul	strafen	eitel	tot	1	acq_USunple_CSunple1_RW	acq4567_RW	4	3	400	1	300	300	405	46	0	1	1	blank2r.bmp	0	1	+	0	1	blank2r.bmp	492	1	GWWG	492	1	blank2r.bmp	572	2	schlecht	866	1	!	1239	1	!	1306	0	0	0	0	0	0	0	0	0	0	0	0	0	0	0	0	0	0	0	0	0	0	0	0	0	0	0	0	0	0
072319	13:14:16	13:18:43	265957	5.0.10.0	5_exp_RW	999	Rpleas_acq	CS_B	BZZB	JXXJ	GWWG	VKKV	MQQM	YDDY	retten	schön	fair	spielen	ehrlich	treu	rächen	schlecht	faul	strafen	eitel	tot	1	acq_USpleas_CSpleas1_RW	acq4567_RW	4	4	400	1	300	300	431	50	0	1	1	blank2r.bmp	0	1	+	0	1	blank2r.bmp	492	1	BZZB	492	1	blank2r.bmp	572	2	schön	866	1	!	1239	1	!	1332	0	0	0	0	0	0	0	0	0	0	0	0	0	0	0	0	0	0	0	0	0	0	0	0	0	0	0	0	0	0
072319	13:14:16	13:18:45	268156	5.0.10.0	5_exp_RW	999	Rpleas_acq	CS_B	BZZB	JXXJ	GWWG	VKKV	MQQM	YDDY	retten	schön	fair	spielen	ehrlich	treu	rächen	schlecht	faul	strafen	eitel	tot	1	acq_USpleas_CSpleas1_RW	acq4567_RW	4	5	400	1	300	300	400	50	0	1	1	blank2r.bmp	0	1	+	0	1	blank2r.bmp	492	1	BZZB	492	1	blank2r.bmp	573	3	fair	866	1	!	1239	1	!	1306	0	0	0	0	0	0	0	0	0	0	0	0	0	0	0	0	0	0	0	0	0	0	0	0	0	0	0	0	0	0
072319	13:14:16	13:18:47	270355	5.0.10.0	5_exp_RW	999	Rpleas_acq	CS_B	BZZB	JXXJ	GWWG	VKKV	MQQM	YDDY	retten	schön	fair	spielen	ehrlich	treu	rächen	schlecht	faul	strafen	eitel	tot	1	acq_USunple_CSunple2_RW	acq4567_RW	4	6	400	1	300	300	402	46	0	1	1	blank2r.bmp	0	1	+	0	1	blank2r.bmp	492	1	VKKV	492	1	blank2r.bmp	572	1	strafen	866	1	!	1239	1	!	1306	0	0	0	0	0	0	0	0	0	0	0	0	0	0	0	0	0	0	0	0	0	0	0	0	0	0	0	0	0	0
072319	13:14:16	13:18:49	272594	5.0.10.0	5_exp_RW	999	Rpleas_acq	CS_B	BZZB	JXXJ	GWWG	VKKV	MQQM	YDDY	retten	schön	fair	spielen	ehrlich	treu	rächen	schlecht	faul	strafen	eitel	tot	1	acq_USpleas_CSpleas1_RW	acq4567_RW	4	7	400	1	300	300	428	50	0	1	1	blank2r.bmp	0	1	+	0	1	blank2r.bmp	492	1	BZZB	492	1	blank2r.bmp	572	3	fair	866	1	!	1252	1	!	1346	0	0	0	0	0	0	0	0	0	0	0	0	0	0	0	0	0	0	0	0	0	0	0	0	0	0	0	0	0	0
072319	13:14:16	13:18:52	274754	5.0.10.0	5_exp_RW	999	Rpleas_acq	CS_B	BZZB	JXXJ	GWWG	VKKV	MQQM	YDDY	retten	schön	fair	spielen	ehrlich	treu	rächen	schlecht	faul	strafen	eitel	tot	1	acq_USunple_CSunple1_RW	acq4567_RW	4	8	400	1	300	300	368	46	0	1	1	blank2r.bmp	0	1	+	0	1	blank2r.bmp	492	1	GWWG	492	1	blank2r.bmp	572	3	faul	866	1	!	1239	1	!	1266	0	0	0	0	0	0	0	0	0	0	0	0	0	0	0	0	0	0	0	0	0	0	0	0	0	0	0	0	0	0
072319	13:14:16	13:18:54	277019	5.0.10.0	5_exp_RW	999	Rpleas_acq	CS_B	BZZB	JXXJ	GWWG	VKKV	MQQM	YDDY	retten	schön	fair	spielen	ehrlich	treu	rächen	schlecht	faul	strafen	eitel	tot	1	acq_USunple_CSunple2_RW	acq4567_RW	4	9	400	0	300	300	481	46	0	1	1	blank2r.bmp	0	1	+	0	1	blank2r.bmp	492	1	VKKV	492	1	blank2r.bmp	572	3	tot	866	1	!	1239	1	!	-1	0	0	0	0	0	0	0	0	0	0	0	0	0	0	0	0	0	0	0	0	0	0	0	0	0	0	0	0	0	0
072319	13:14:16	13:18:56	279125	5.0.10.0	5_exp_RW	999	Rpleas_acq	CS_B	BZZB	JXXJ	GWWG	VKKV	MQQM	YDDY	retten	schön	fair	spielen	ehrlich	treu	rächen	schlecht	faul	strafen	eitel	tot	1	acq_USunple_CSunple2_RW	acq4567_RW	4	10	400	0	300	300	320	46	0	1	1	blank2r.bmp	0	1	+	0	1	blank2r.bmp	492	1	VKKV	492	1	blank2r.bmp	572	3	tot	866	1	!	-1	1	!	-1	0	0	0	0	0	0	0	0	0	0	0	0	0	0	0	0	0	0	0	0	0	0	0	0	0	0	0	0	0	0
072319	13:14:16	13:18:58	281364	5.0.10.0	5_exp_RW	999	Rpleas_acq	CS_B	BZZB	JXXJ	GWWG	VKKV	MQQM	YDDY	retten	schön	fair	spielen	ehrlich	treu	rächen	schlecht	faul	strafen	eitel	tot	1	acq_USpleas_CSpleas2_RW	acq4567_RW	4	11	400	1	300	300	445	50	0	1	1	blank2r.bmp	0	1	+	0	1	blank2r.bmp	492	1	JXXJ	492	1	blank2r.bmp	572	2	ehrlich	866	1	!	1239	1	!	1346	0	0	0	0	0	0	0	0	0	0	0	0	0	0	0	0	0	0	0	0	0	0	0	0	0	0	0	0	0	0
072319	13:14:16	13:19:00	283617	5.0.10.0	5_exp_RW	999	Rpleas_acq	CS_B	BZZB	JXXJ	GWWG	VKKV	MQQM	YDDY	retten	schön	fair	spielen	ehrlich	treu	rächen	schlecht	faul	strafen	eitel	tot	1	acq_USpleas_CSpleas2_RW	acq4567_RW	4	12	400	1	300	300	462	50	0	1	1	blank2r.bmp	0	1	+	0	1	blank2r.bmp	492	1	JXXJ	492	1	blank2r.bmp	572	3	treu	866	1	!	1239	1	!	1359	0	0	0	0	0	0	0	0	0	0	0	0	0	0	0	0	0	0	0	0	0	0	0	0	0	0	0	0	0	0
072319	13:14:16	13:19:03	286056	5.0.10.0	5_exp_RW	999	Rpleas_acq	CS_B	BZZB	JXXJ	GWWG	VKKV	MQQM	YDDY	retten	schön	fair	spielen	ehrlich	treu	rächen	schlecht	faul	strafen	eitel	tot	1	acq_USunple_CSunple1_RW	acq4567_RW	4	13	400	0	300	300	659	46	0	1	1	blank2r.bmp	0	1	+	0	1	blank2r.bmp	492	1	GWWG	492	1	blank2r.bmp	572	1	rächen	866	1	!	1239	1	!	-1	0	0	0	0	0	0	0	0	0	0	0	0	0	0	0	0	0	0	0	0	0	0	0	0	0	0	0	0	0	0
072319	13:14:16	13:19:05	288268	5.0.10.0	5_exp_RW	999	Rpleas_acq	CS_B	BZZB	JXXJ	GWWG	VKKV	MQQM	YDDY	retten	schön	fair	spielen	ehrlich	treu	rächen	schlecht	faul	strafen	eitel	tot	1	acq_USpleas_CSpleas1_RW	acq4567_RW	4	14	400	1	300	300	422	50	0	1	1	blank2r.bmp	0	1	+	0	1	blank2r.bmp	492	1	BZZB	492	1	blank2r.bmp	572	2	schön	866	1	!	1239	1	!	1319	0	0	0	0	0	0	0	0	0	0	0	0	0	0	0	0	0	0	0	0	0	0	0	0	0	0	0	0	0	0
072319	13:14:16	13:19:07	290480	5.0.10.0	5_exp_RW	999	Rpleas_acq	CS_B	BZZB	JXXJ	GWWG	VKKV	MQQM	YDDY	retten	schön	fair	spielen	ehrlich	treu	rächen	schlecht	faul	strafen	eitel	tot	1	acq_USpleas_CSpleas2_RW	acq4567_RW	4	15	400	1	300	300	412	50	0	1	1	blank2r.bmp	0	1	+	0	1	blank2r.bmp	492	1	JXXJ	492	1	blank2r.bmp	572	3	treu	866	1	!	1239	1	!	1319	0	0	0	0	0	0	0	0	0	0	0	0	0	0	0	0	0	0	0	0	0	0	0	0	0	0	0	0	0	0
072319	13:14:16	13:19:09	292666	5.0.10.0	5_exp_RW	999	Rpleas_acq	CS_B	BZZB	JXXJ	GWWG	VKKV	MQQM	YDDY	retten	schön	fair	spielen	ehrlich	treu	rächen	schlecht	faul	strafen	eitel	tot	1	acq_USunple_CSunple2_RW	acq4567_RW	4	16	400	1	300	300	388	46	0	1	1	blank2r.bmp	0	1	+	0	1	blank2r.bmp	492	1	VKKV	492	1	blank2r.bmp	572	1	strafen	867	1	!	1239	1	!	1292	0	0	0	0	0	0	0	0	0	0	0	0	0	0	0	0	0	0	0	0	0	0	0	0	0	0	0	0	0	0
072319	13:14:16	13:19:12	294852	5.0.10.0	5_exp_RW	999	Rpleas_acq	CS_B	BZZB	JXXJ	GWWG	VKKV	MQQM	YDDY	retten	schön	fair	spielen	ehrlich	treu	rächen	schlecht	faul	strafen	eitel	tot	1	acq_USpleas_CSpleas2_RW	acq4567_RW	4	17	400	1	300	300	392	50	0	1	1	blank2r.bmp	0	1	+	0	1	blank2r.bmp	492	1	JXXJ	492	1	blank2r.bmp	572	2	ehrlich	866	1	!	1239	1	!	1292	0	0	0	0	0	0	0	0	0	0	0	0	0	0	0	0	0	0	0	0	0	0	0	0	0	0	0	0	0	0
072319	13:14:16	13:19:14	297118	5.0.10.0	5_exp_RW	999	Rpleas_acq	CS_B	BZZB	JXXJ	GWWG	VKKV	MQQM	YDDY	retten	schön	fair	spielen	ehrlich	treu	rächen	schlecht	faul	strafen	eitel	tot	1	acq_USunple_CSunple2_RW	acq4567_RW	4	18	400	1	300	300	463	46	0	1	1	blank2r.bmp	0	1	+	0	1	blank2r.bmp	492	1	VKKV	492	1	blank2r.bmp	572	2	eitel	866	1	!	1239	1	!	1372	0	0	0	0	0	0	0	0	0	0	0	0	0	0	0	0	0	0	0	0	0	0	0	0	0	0	0	0	0	0
072319	13:14:16	13:19:16	299370	5.0.10.0	5_exp_RW	999	Rpleas_acq	CS_B	BZZB	JXXJ	GWWG	VKKV	MQQM	YDDY	retten	schön	fair	spielen	ehrlich	treu	rächen	schlecht	faul	strafen	eitel	tot	1	acq_USpleas_CSpleas2_RW	acq4567_RW	4	19	400	1	300	300	454	46	0	0	1	blank2r.bmp	0	1	+	0	1	blank2r.bmp	492	1	JXXJ	492	1	blank2r.bmp	572	1	spielen	866	1	!	1239	1	!	1359	0	0	0	0	0	0	0	0	0	0	0	0	0	0	0	0	0	0	0	0	0	0	0	0	0	0	0	0	0	0
072319	13:14:16	13:19:18	301569	5.0.10.0	5_exp_RW	999	Rpleas_acq	CS_B	BZZB	JXXJ	GWWG	VKKV	MQQM	YDDY	retten	schön	fair	spielen	ehrlich	treu	rächen	schlecht	faul	strafen	eitel	tot	1	acq_USpleas_CSpleas1_RW	acq4567_RW	4	20	400	1	300	300	401	46	0	0	1	blank2r.bmp	0	1	+	0	1	blank2r.bmp	492	1	BZZB	492	1	blank2r.bmp	572	1	retten	866	1	!	1239	1	!	1306	0	0	0	0	0	0	0	0	0	0	0	0	0	0	0	0	0	0	0	0	0	0	0	0	0	0	0	0	0	0
072319	13:14:16	13:19:20	303662	5.0.10.0	5_exp_RW	999	Rpleas_acq	CS_B	BZZB	JXXJ	GWWG	VKKV	MQQM	YDDY	retten	schön	fair	spielen	ehrlich	treu	rächen	schlecht	faul	strafen	eitel	tot	1	acq_USpleas_CSpleas2_RW	acq4567_RW	4	21	400	0	300	300	328	50	0	1	1	blank2r.bmp	0	1	+	0	1	blank2r.bmp	492	1	JXXJ	492	1	blank2r.bmp	572	3	treu	866	1	!	-1	1	!	-1	0	0	0	0	0	0	0	0	0	0	0	0	0	0	0	0	0	0	0	0	0	0	0	0	0	0	0	0	0	0
072319	13:14:16	13:19:23	305954	5.0.10.0	5_exp_RW	999	Rpleas_acq	CS_B	BZZB	JXXJ	GWWG	VKKV	MQQM	YDDY	retten	schön	fair	spielen	ehrlich	treu	rächen	schlecht	faul	strafen	eitel	tot	1	acq_USpleas_CSpleas1_RW	acq4567_RW	4	22	400	0	300	300	496	50	0	1	1	blank2r.bmp	0	1	+	0	1	blank2r.bmp	496	1	BZZB	496	1	blank2r.bmp	572	2	schön	866	1	!	1239	1	!	-1	0	0	0	0	0	0	0	0	0	0	0	0	0	0	0	0	0	0	0	0	0	0	0	0	0	0	0	0	0	0
072319	13:14:16	13:19:25	308100	5.0.10.0	5_exp_RW	999	Rpleas_acq	CS_B	BZZB	JXXJ	GWWG	VKKV	MQQM	YDDY	retten	schön	fair	spielen	ehrlich	treu	rächen	schlecht	faul	strafen	eitel	tot	1	acq_USunple_CSunple2_RW	acq4567_RW	4	23	400	1	300	300	346	46	0	1	1	blank2r.bmp	0	1	+	0	1	blank2r.bmp	492	1	VKKV	492	1	blank2r.bmp	572	3	tot	866	1	!	1239	1	!	1252	0	0	0	0	0	0	0	0	0	0	0	0	0	0	0	0	0	0	0	0	0	0	0	0	0	0	0	0	0	0
072319	13:14:16	13:19:27	310206	5.0.10.0	5_exp_RW	999	Rpleas_acq	CS_B	BZZB	JXXJ	GWWG	VKKV	MQQM	YDDY	retten	schön	fair	spielen	ehrlich	treu	rächen	schlecht	faul	strafen	eitel	tot	1	acq_USpleas_CSpleas1_RW	acq4567_RW	4	24	400	0	300	300	329	50	0	1	1	blank2r.bmp	0	1	+	0	1	blank2r.bmp	492	1	BZZB	492	1	blank2r.bmp	572	3	fair	866	1	!	-1	1	!	-1	0	0	0	0	0	0	0	0	0	0	0	0	0	0	0	0	0	0	0	0	0	0	0	0	0	0	0	0	0	0
072319	13:14:16	13:19:29	312458	5.0.10.0	5_exp_RW	999	Rpleas_acq	CS_B	BZZB	JXXJ	GWWG	VKKV	MQQM	YDDY	retten	schön	fair	spielen	ehrlich	treu	rächen	schlecht	faul	strafen	eitel	tot	1	acq_USunple_CSunple1_RW	acq4567_RW	4	25	400	0	300	300	479	46	0	1	1	blank2r.bmp	0	1	+	0	1	blank2r.bmp	492	1	GWWG	492	1	blank2r.bmp	572	3	faul	866	1	!	1239	1	!	-1	0	0	0	0	0	0	0	0	0	0	0	0	0	0	0	0	0	0	0	0	0	0	0	0	0	0	0	0	0	0
072319	13:14:16	13:19:31	314684	5.0.10.0	5_exp_RW	999	Rpleas_acq	CS_B	BZZB	JXXJ	GWWG	VKKV	MQQM	YDDY	retten	schön	fair	spielen	ehrlich	treu	rächen	schlecht	faul	strafen	eitel	tot	1	acq_USunple_CSunple1_RW	acq4567_RW	4	26	400	1	300	300	415	46	0	1	1	blank2r.bmp	0	1	+	0	1	blank2r.bmp	492	1	GWWG	492	1	blank2r.bmp	572	2	schlecht	866	1	!	1239	1	!	1319	0	0	0	0	0	0	0	0	0	0	0	0	0	0	0	0	0	0	0	0	0	0	0	0	0	0	0	0	0	0
072319	13:14:16	13:19:34	316910	5.0.10.0	5_exp_RW	999	Rpleas_acq	CS_B	BZZB	JXXJ	GWWG	VKKV	MQQM	YDDY	retten	schön	fair	spielen	ehrlich	treu	rächen	schlecht	faul	strafen	eitel	tot	1	acq_USpleas_CSpleas1_RW	acq4567_RW	4	27	400	1	300	300	427	50	0	1	1	blank2r.bmp	0	1	+	0	1	blank2r.bmp	492	1	BZZB	492	1	blank2r.bmp	572	1	retten	866	1	!	1239	1	!	1332	0	0	0	0	0	0	0	0	0	0	0	0	0	0	0	0	0	0	0	0	0	0	0	0	0	0	0	0	0	0
072319	13:14:16	13:19:36	319109	5.0.10.0	5_exp_RW	999	Rpleas_acq	CS_B	BZZB	JXXJ	GWWG	VKKV	MQQM	YDDY	retten	schön	fair	spielen	ehrlich	treu	rächen	schlecht	faul	strafen	eitel	tot	1	acq_USpleas_CSpleas2_RW	acq4567_RW	4	28	400	1	300	300	405	50	0	1	1	blank2r.bmp	0	1	+	0	1	blank2r.bmp	492	1	JXXJ	492	1	blank2r.bmp	573	2	ehrlich	866	1	!	1239	1	!	1306	0	0	0	0	0	0	0	0	0	0	0	0	0	0	0	0	0	0	0	0	0	0	0	0	0	0	0	0	0	0
072319	13:14:16	13:19:38	321375	5.0.10.0	5_exp_RW	999	Rpleas_acq	CS_B	BZZB	JXXJ	GWWG	VKKV	MQQM	YDDY	retten	schön	fair	spielen	ehrlich	treu	rächen	schlecht	faul	strafen	eitel	tot	1	acq_USpleas_CSpleas2_RW	acq4567_RW	4	29	400	0	300	300	479	50	0	1	1	blank2r.bmp	0	1	+	0	1	blank2r.bmp	492	1	JXXJ	492	1	blank2r.bmp	572	1	spielen	867	1	!	1239	1	!	-1	0	0	0	0	0	0	0	0	0	0	0	0	0	0	0	0	0	0	0	0	0	0	0	0	0	0	0	0	0	0
072319	13:14:16	13:19:40	323534	5.0.10.0	5_exp_RW	999	Rpleas_acq	CS_B	BZZB	JXXJ	GWWG	VKKV	MQQM	YDDY	retten	schön	fair	spielen	ehrlich	treu	rächen	schlecht	faul	strafen	eitel	tot	1	acq_USunple_CSunple1_RW	acq4567_RW	4	30	400	1	300	300	367	46	0	1	1	blank2r.bmp	0	1	+	0	1	blank2r.bmp	492	1	GWWG	492	1	blank2r.bmp	572	1	rächen	866	1	!	1239	1	!	1266	0	0	0	0	0	0	0	0	0	0	0	0	0	0	0	0	0	0	0	0	0	0	0	0	0	0	0	0	0	0
072319	13:14:16	13:19:42	325626	5.0.10.0	5_exp_RW	999	Rpleas_acq	CS_B	BZZB	JXXJ	GWWG	VKKV	MQQM	YDDY	retten	schön	fair	spielen	ehrlich	treu	rächen	schlecht	faul	strafen	eitel	tot	1	acq_USunple_CSunple2_RW	acq4567_RW	4	31	400	0	300	300	305	46	0	1	1	blank2r.bmp	13	1	+	13	1	blank2r.bmp	492	1	VKKV	492	1	blank2r.bmp	572	2	eitel	867	1	!	-1	1	!	-1	0	0	0	0	0	0	0	0	0	0	0	0	0	0	0	0	0	0	0	0	0	0	0	0	0	0	0	0	0	0
072319	13:14:16	13:19:45	327918	5.0.10.0	5_exp_RW	999	Rpleas_acq	CS_B	BZZB	JXXJ	GWWG	VKKV	MQQM	YDDY	retten	schön	fair	spielen	ehrlich	treu	rächen	schlecht	faul	strafen	eitel	tot	1	acq_USunple_CSunple1_RW	acq4567_RW	4	32	400	0	300	300	503	46	0	1	1	blank2r.bmp	0	1	+	0	1	blank2r.bmp	492	1	GWWG	492	1	blank2r.bmp	578	1	rächen	866	1	!	1239	1	!	-1	0	0	0	0	0	0	0	0	0	0	0	0	0	0	0	0	0	0	0	0	0	0	0	0	0	0	0	0	0	0
072319	13:14:16	13:19:47	330158	5.0.10.0	5_exp_RW	999	Rpleas_acq	CS_B	BZZB	JXXJ	GWWG	VKKV	MQQM	YDDY	retten	schön	fair	spielen	ehrlich	treu	rächen	schlecht	faul	strafen	eitel	tot	1	acq_USunple_CSunple1_RW	acq4567_RW	4	33	400	1	300	300	450	46	0	1	1	blank2r.bmp	0	1	+	0	1	blank2r.bmp	492	1	GWWG	492	1	blank2r.bmp	572	3	faul	866	1	!	1239	1	!	1346	0	0	0	0	0	0	0	0	0	0	0	0	0	0	0	0	0	0	0	0	0	0	0	0	0	0	0	0	0	0
072319	13:14:16	13:19:49	332477	5.0.10.0	5_exp_RW	999	Rpleas_acq	CS_B	BZZB	JXXJ	GWWG	VKKV	MQQM	YDDY	retten	schön	fair	spielen	ehrlich	treu	rächen	schlecht	faul	strafen	eitel	tot	1	acq_USunple_CSunple2_RW	acq4567_RW	4	34	400	0	300	300	537	46	0	1	1	blank2r.bmp	0	1	+	0	1	blank2r.bmp	492	1	VKKV	492	1	blank2r.bmp	572	1	strafen	866	1	!	1239	1	!	-1	0	0	0	0	0	0	0	0	0	0	0	0	0	0	0	0	0	0	0	0	0	0	0	0	0	0	0	0	0	0
072319	13:14:16	13:19:51	334676	5.0.10.0	5_exp_RW	999	Rpleas_acq	CS_B	BZZB	JXXJ	GWWG	VKKV	MQQM	YDDY	retten	schön	fair	spielen	ehrlich	treu	rächen	schlecht	faul	strafen	eitel	tot	1	acq_USpleas_CSpleas2_RW	acq4567_RW	4	35	400	1	300	300	406	50	0	1	1	blank2r.bmp	0	1	+	0	1	blank2r.bmp	492	1	JXXJ	492	1	blank2r.bmp	573	3	treu	866	1	!	1239	1	!	1306	0	0	0	0	0	0	0	0	0	0	0	0	0	0	0	0	0	0	0	0	0	0	0	0	0	0	0	0	0	0
072319	13:14:16	13:19:54	336995	5.0.10.0	5_exp_RW	999	Rpleas_acq	CS_B	BZZB	JXXJ	GWWG	VKKV	MQQM	YDDY	retten	schön	fair	spielen	ehrlich	treu	rächen	schlecht	faul	strafen	eitel	tot	1	acq_USunple_CSunple2_RW	acq4567_RW	4	36	400	0	300	300	533	46	0	1	1	blank2r.bmp	0	1	+	0	1	blank2r.bmp	492	1	VKKV	492	1	blank2r.bmp	573	3	tot	866	1	!	1239	1	!	-1	0	0	0	0	0	0	0	0	0	0	0	0	0	0	0	0	0	0	0	0	0	0	0	0	0	0	0	0	0	0
072319	13:14:16	13:19:56	339234	5.0.10.0	5_exp_RW	999	Rpleas_acq	CS_B	BZZB	JXXJ	GWWG	VKKV	MQQM	YDDY	retten	schön	fair	spielen	ehrlich	treu	rächen	schlecht	faul	strafen	eitel	tot	1	acq_USpleas_CSpleas1_RW	acq4567_RW	4	37	400	1	300	300	444	50	0	1	1	blank2r.bmp	0	1	+	0	1	blank2r.bmp	492	1	BZZB	492	1	blank2r.bmp	572	2	schön	866	1	!	1239	1	!	1346	0	0	0	0	0	0	0	0	0	0	0	0	0	0	0	0	0	0	0	0	0	0	0	0	0	0	0	0	0	0
072319	13:14:16	13:19:58	341473	5.0.10.0	5_exp_RW	999	Rpleas_acq	CS_B	BZZB	JXXJ	GWWG	VKKV	MQQM	YDDY	retten	schön	fair	spielen	ehrlich	treu	rächen	schlecht	faul	strafen	eitel	tot	1	acq_USpleas_CSpleas2_RW	acq4567_RW	4	38	400	1	300	300	437	50	0	1	1	blank2r.bmp	0	1	+	0	1	blank2r.bmp	492	1	JXXJ	492	1	blank2r.bmp	572	2	ehrlich	866	1	!	1239	1	!	1346	0	0	0	0	0	0	0	0	0	0	0	0	0	0	0	0	0	0	0	0	0	0	0	0	0	0	0	0	0	0
072319	13:14:16	13:20:00	343685	5.0.10.0	5_exp_RW	999	Rpleas_acq	CS_B	BZZB	JXXJ	GWWG	VKKV	MQQM	YDDY	retten	schön	fair	spielen	ehrlich	treu	rächen	schlecht	faul	strafen	eitel	tot	1	acq_USpleas_CSpleas1_RW	acq4567_RW	4	39	400	1	300	300	422	50	0	1	1	blank2r.bmp	0	1	+	0	1	blank2r.bmp	492	1	BZZB	492	1	blank2r.bmp	572	3	fair	866	1	!	1239	1	!	1319	0	0	0	0	0	0	0	0	0	0	0	0	0	0	0	0	0	0	0	0	0	0	0	0	0	0	0	0	0	0
072319	13:14:16	13:20:03	345938	5.0.10.0	5_exp_RW	999	Rpleas_acq	CS_B	BZZB	JXXJ	GWWG	VKKV	MQQM	YDDY	retten	schön	fair	spielen	ehrlich	treu	rächen	schlecht	faul	strafen	eitel	tot	1	acq_USunple_CSunple2_RW	acq4567_RW	4	40	400	1	300	300	450	46	0	1	1	blank2r.bmp	0	1	+	0	1	blank2r.bmp	492	1	VKKV	492	1	blank2r.bmp	572	2	eitel	866	1	!	1240	1	!	1359	0	0	0	0	0	0	0	0	0	0	0	0	0	0	0	0	0	0	0	0	0	0	0	0	0	0	0	0	0	0
072319	13:14:16	13:20:05	348004	5.0.10.0	5_exp_RW	999	Rpleas_acq	CS_B	BZZB	JXXJ	GWWG	VKKV	MQQM	YDDY	retten	schön	fair	spielen	ehrlich	treu	rächen	schlecht	faul	strafen	eitel	tot	1	acq_USpleas_CSpleas2_RW	acq4567_RW	4	41	400	0	300	300	290	50	0	1	1	blank2r.bmp	0	1	+	0	1	blank2r.bmp	492	1	JXXJ	492	1	blank2r.bmp	572	1	spielen	866	1	!	-1	1	!	-1	0	0	0	0	0	0	0	0	0	0	0	0	0	0	0	0	0	0	0	0	0	0	0	0	0	0	0	0	0	0
072319	13:14:16	13:20:07	350283	5.0.10.0	5_exp_RW	999	Rpleas_acq	CS_B	BZZB	JXXJ	GWWG	VKKV	MQQM	YDDY	retten	schön	fair	spielen	ehrlich	treu	rächen	schlecht	faul	strafen	eitel	tot	1	acq_USpleas_CSpleas1_RW	acq4567_RW	4	42	400	0	300	300	479	50	0	1	1	blank2r.bmp	0	1	+	0	1	blank2r.bmp	492	1	BZZB	492	1	blank2r.bmp	572	1	retten	866	1	!	1239	1	!	-1	0	0	0	0	0	0	0	0	0	0	0	0	0	0	0	0	0	0	0	0	0	0	0	0	0	0	0	0	0	0
072319	13:14:16	13:20:09	352468	5.0.10.0	5_exp_RW	999	Rpleas_acq	CS_B	BZZB	JXXJ	GWWG	VKKV	MQQM	YDDY	retten	schön	fair	spielen	ehrlich	treu	rächen	schlecht	faul	strafen	eitel	tot	1	acq_USpleas_CSpleas1_RW	acq4567_RW	4	43	400	1	300	300	387	50	0	1	1	blank2r.bmp	0	1	+	0	1	blank2r.bmp	492	1	BZZB	492	1	blank2r.bmp	572	3	fair	866	1	!	1239	1	!	1292	0	0	0	0	0	0	0	0	0	0	0	0	0	0	0	0	0	0	0	0	0	0	0	0	0	0	0	0	0	0
072319	13:14:16	13:20:11	354574	5.0.10.0	5_exp_RW	999	Rpleas_acq	CS_B	BZZB	JXXJ	GWWG	VKKV	MQQM	YDDY	retten	schön	fair	spielen	ehrlich	treu	rächen	schlecht	faul	strafen	eitel	tot	1	acq_USpleas_CSpleas1_RW	acq4567_RW	4	44	400	0	300	300	323	46	0	0	1	blank2r.bmp	0	1	+	0	1	blank2r.bmp	492	1	BZZB	492	1	blank2r.bmp	572	1	retten	866	1	!	-1	1	!	-1	0	0	0	0	0	0	0	0	0	0	0	0	0	0	0	0	0	0	0	0	0	0	0	0	0	0	0	0	0	0
072319	13:14:16	13:20:14	356800	5.0.10.0	5_exp_RW	999	Rpleas_acq	CS_B	BZZB	JXXJ	GWWG	VKKV	MQQM	YDDY	retten	schön	fair	spielen	ehrlich	treu	rächen	schlecht	faul	strafen	eitel	tot	1	acq_USunple_CSunple1_RW	acq4567_RW	4	45	400	1	300	300	438	46	0	1	1	blank2r.bmp	0	1	+	0	1	blank2r.bmp	492	1	GWWG	492	1	blank2r.bmp	572	2	schlecht	866	1	!	1239	1	!	1332	0	0	0	0	0	0	0	0	0	0	0	0	0	0	0	0	0	0	0	0	0	0	0	0	0	0	0	0	0	0
072319	13:14:16	13:20:16	359079	5.0.10.0	5_exp_RW	999	Rpleas_acq	CS_B	BZZB	JXXJ	GWWG	VKKV	MQQM	YDDY	retten	schön	fair	spielen	ehrlich	treu	rächen	schlecht	faul	strafen	eitel	tot	1	acq_USpleas_CSpleas1_RW	acq4567_RW	4	46	400	0	300	300	499	50	0	1	1	blank2r.bmp	2	1	+	2	1	blank2r.bmp	492	1	BZZB	492	1	blank2r.bmp	572	2	schön	872	1	!	1239	1	!	-1	0	0	0	0	0	0	0	0	0	0	0	0	0	0	0	0	0	0	0	0	0	0	0	0	0	0	0	0	0	0
072319	13:14:16	13:20:18	361318	5.0.10.0	5_exp_RW	999	Rpleas_acq	CS_B	BZZB	JXXJ	GWWG	VKKV	MQQM	YDDY	retten	schön	fair	spielen	ehrlich	treu	rächen	schlecht	faul	strafen	eitel	tot	1	acq_USunple_CSunple2_RW	acq4567_RW	4	47	400	1	300	300	446	46	0	1	1	blank2r.bmp	0	1	+	0	1	blank2r.bmp	492	1	VKKV	492	1	blank2r.bmp	572	1	strafen	866	1	!	1239	1	!	1346	0	0	0	0	0	0	0	0	0	0	0	0	0	0	0	0	0	0	0	0	0	0	0	0	0	0	0	0	0	0
072319	13:14:16	13:20:20	363571	5.0.10.0	5_exp_RW	999	Rpleas_acq	CS_B	BZZB	JXXJ	GWWG	VKKV	MQQM	YDDY	retten	schön	fair	spielen	ehrlich	treu	rächen	schlecht	faul	strafen	eitel	tot	1	acq_USpleas_CSpleas2_RW	acq4567_RW	4	48	400	0	300	300	479	50	0	1	1	blank2r.bmp	0	1	+	0	1	blank2r.bmp	492	1	JXXJ	492	1	blank2r.bmp	572	2	ehrlich	866	1	!	1239	1	!	-1	0	0	0	0	0	0	0	0	0	0	0	0	0	0	0	0	0	0	0	0	0	0	0	0	0	0	0	0	0	0
072319	13:14:16	13:20:23	365810	5.0.10.0	5_exp_RW	999	Rpleas_acq	CS_B	BZZB	JXXJ	GWWG	VKKV	MQQM	YDDY	retten	schön	fair	spielen	ehrlich	treu	rächen	schlecht	faul	strafen	eitel	tot	1	acq_USunple_CSunple1_RW	acq4567_RW	4	49	400	1	300	300	426	46	0	1	1	blank2r.bmp	0	1	+	0	1	blank2r.bmp	492	1	GWWG	492	1	blank2r.bmp	572	1	rächen	866	1	!	1240	1	!	1332	0	0	0	0	0	0	0	0	0	0	0	0	0	0	0	0	0	0	0	0	0	0	0	0	0	0	0	0	0	0
072319	13:14:16	13:20:25	368009	5.0.10.0	5_exp_RW	999	Rpleas_acq	CS_B	BZZB	JXXJ	GWWG	VKKV	MQQM	YDDY	retten	schön	fair	spielen	ehrlich	treu	rächen	schlecht	faul	strafen	eitel	tot	1	acq_USunple_CSunple1_RW	acq4567_RW	4	50	400	1	300	300	405	46	0	1	1	blank2r.bmp	0	1	+	0	1	blank2r.bmp	492	1	GWWG	492	1	blank2r.bmp	572	3	faul	866	1	!	1239	1	!	1306	0	0	0	0	0	0	0	0	0	0	0	0	0	0	0	0	0	0	0	0	0	0	0	0	0	0	0	0	0	0
072319	13:14:16	13:20:27	370328	5.0.10.0	5_exp_RW	999	Rpleas_acq	CS_B	BZZB	JXXJ	GWWG	VKKV	MQQM	YDDY	retten	schön	fair	spielen	ehrlich	treu	rächen	schlecht	faul	strafen	eitel	tot	1	acq_USpleas_CSpleas1_RW	acq4567_RW	4	51	400	0	300	300	539	50	0	1	1	blank2r.bmp	0	1	+	0	1	blank2r.bmp	505	1	BZZB	505	1	blank2r.bmp	572	3	fair	866	1	!	1239	1	!	-1	0	0	0	0	0	0	0	0	0	0	0	0	0	0	0	0	0	0	0	0	0	0	0	0	0	0	0	0	0	0
072319	13:14:16	13:20:29	372527	5.0.10.0	5_exp_RW	999	Rpleas_acq	CS_B	BZZB	JXXJ	GWWG	VKKV	MQQM	YDDY	retten	schön	fair	spielen	ehrlich	treu	rächen	schlecht	faul	strafen	eitel	tot	1	acq_USpleas_CSpleas2_RW	acq4567_RW	4	52	400	1	300	300	402	50	0	1	1	blank2r.bmp	0	1	+	0	1	blank2r.bmp	492	1	JXXJ	492	1	blank2r.bmp	577	3	treu	866	1	!	1239	1	!	1306	0	0	0	0	0	0	0	0	0	0	0	0	0	0	0	0	0	0	0	0	0	0	0	0	0	0	0	0	0	0
072319	13:14:16	13:20:32	374766	5.0.10.0	5_exp_RW	999	Rpleas_acq	CS_B	BZZB	JXXJ	GWWG	VKKV	MQQM	YDDY	retten	schön	fair	spielen	ehrlich	treu	rächen	schlecht	faul	strafen	eitel	tot	1	acq_USunple_CSunple2_RW	acq4567_RW	4	53	400	1	300	300	443	46	0	1	1	blank2r.bmp	0	1	+	0	1	blank2r.bmp	492	1	VKKV	492	1	blank2r.bmp	572	3	tot	866	1	!	1239	1	!	1346	0	0	0	0	0	0	0	0	0	0	0	0	0	0	0	0	0	0	0	0	0	0	0	0	0	0	0	0	0	0
072319	13:14:16	13:20:34	376992	5.0.10.0	5_exp_RW	999	Rpleas_acq	CS_B	BZZB	JXXJ	GWWG	VKKV	MQQM	YDDY	retten	schön	fair	spielen	ehrlich	treu	rächen	schlecht	faul	strafen	eitel	tot	1	acq_USunple_CSunple1_RW	acq4567_RW	4	54	400	1	300	300	435	46	0	1	1	blank2r.bmp	0	1	+	0	1	blank2r.bmp	492	1	GWWG	492	1	blank2r.bmp	572	2	schlecht	866	1	!	1239	1	!	1332	0	0	0	0	0	0	0	0	0	0	0	0	0	0	0	0	0	0	0	0	0	0	0	0	0	0	0	0	0	0
072319	13:14:16	13:20:36	379178	5.0.10.0	5_exp_RW	999	Rpleas_acq	CS_B	BZZB	JXXJ	GWWG	VKKV	MQQM	YDDY	retten	schön	fair	spielen	ehrlich	treu	rächen	schlecht	faul	strafen	eitel	tot	1	acq_USpleas_CSpleas2_RW	acq4567_RW	4	55	400	1	300	300	396	50	0	1	1	blank2r.bmp	0	1	+	0	1	blank2r.bmp	492	1	JXXJ	492	1	blank2r.bmp	572	1	spielen	866	1	!	1239	1	!	1292	0	0	0	0	0	0	0	0	0	0	0	0	0	0	0	0	0	0	0	0	0	0	0	0	0	0	0	0	0	0
072319	13:14:16	13:20:38	381430	5.0.10.0	5_exp_RW	999	Rpleas_acq	CS_B	BZZB	JXXJ	GWWG	VKKV	MQQM	YDDY	retten	schön	fair	spielen	ehrlich	treu	rächen	schlecht	faul	strafen	eitel	tot	1	acq_USpleas_CSpleas2_RW	acq4567_RW	4	56	400	0	300	300	480	50	0	1	1	blank2r.bmp	0	1	+	0	1	blank2r.bmp	492	1	JXXJ	492	1	blank2r.bmp	572	3	treu	866	1	!	1239	1	!	-1	0	0	0	0	0	0	0	0	0	0	0	0	0	0	0	0	0	0	0	0	0	0	0	0	0	0	0	0	0	0
072319	13:14:16	13:20:40	383696	5.0.10.0	5_exp_RW	999	Rpleas_acq	CS_B	BZZB	JXXJ	GWWG	VKKV	MQQM	YDDY	retten	schön	fair	spielen	ehrlich	treu	rächen	schlecht	faul	strafen	eitel	tot	1	acq_USunple_CSunple2_RW	acq4567_RW	4	57	400	1	300	300	462	46	0	1	1	blank2r.bmp	0	1	+	0	1	blank2r.bmp	492	1	VKKV	492	1	blank2r.bmp	572	2	eitel	866	1	!	1239	1	!	1359	0	0	0	0	0	0	0	0	0	0	0	0	0	0	0	0	0	0	0	0	0	0	0	0	0	0	0	0	0	0
072319	13:14:16	13:20:43	385922	5.0.10.0	5_exp_RW	999	Rpleas_acq	CS_B	BZZB	JXXJ	GWWG	VKKV	MQQM	YDDY	retten	schön	fair	spielen	ehrlich	treu	rächen	schlecht	faul	strafen	eitel	tot	1	acq_USunple_CSunple1_RW	acq4567_RW	4	58	400	1	300	300	433	46	0	1	1	blank2r.bmp	0	1	+	0	1	blank2r.bmp	492	1	GWWG	492	1	blank2r.bmp	572	1	rächen	866	1	!	1239	1	!	1332	0	0	0	0	0	0	0	0	0	0	0	0	0	0	0	0	0	0	0	0	0	0	0	0	0	0	0	0	0	0
072319	13:14:16	13:20:45	388174	5.0.10.0	5_exp_RW	999	Rpleas_acq	CS_B	BZZB	JXXJ	GWWG	VKKV	MQQM	YDDY	retten	schön	fair	spielen	ehrlich	treu	rächen	schlecht	faul	strafen	eitel	tot	1	acq_USunple_CSunple2_RW	acq4567_RW	4	59	400	1	300	300	442	46	0	1	1	blank2r.bmp	0	1	+	0	1	blank2r.bmp	492	1	VKKV	492	1	blank2r.bmp	572	1	strafen	866	1	!	1239	1	!	1346	0	0	0	0	0	0	0	0	0	0	0	0	0	0	0	0	0	0	0	0	0	0	0	0	0	0	0	0	0	0
072319	13:14:16	13:20:47	390400	5.0.10.0	5_exp_RW	999	Rpleas_acq	CS_B	BZZB	JXXJ	GWWG	VKKV	MQQM	YDDY	retten	schön	fair	spielen	ehrlich	treu	rächen	schlecht	faul	strafen	eitel	tot	1	acq_USunple_CSunple2_RW	acq4567_RW	4	60	400	1	300	300	441	46	0	1	1	blank2r.bmp	0	1	+	0	1	blank2r.bmp	492	1	VKKV	492	1	blank2r.bmp	573	1	strafen	866	1	!	1239	1	!	1346	0	0	0	0	0	0	0	0	0	0	0	0	0	0	0	0	0	0	0	0	0	0	0	0	0	0	0	0	0	0
072319	13:14:16	13:20:49	392665	5.0.10.0	5_exp_RW	999	Rpleas_acq	CS_B	BZZB	JXXJ	GWWG	VKKV	MQQM	YDDY	retten	schön	fair	spielen	ehrlich	treu	rächen	schlecht	faul	strafen	eitel	tot	1	acq_USpleas_CSpleas1_RW	acq4567_RW	4	61	400	1	300	300	464	50	0	1	1	blank2r.bmp	5	1	+	5	1	blank2r.bmp	492	1	BZZB	492	1	blank2r.bmp	572	2	schön	866	1	!	1241	1	!	1372	0	0	0	0	0	0	0	0	0	0	0	0	0	0	0	0	0	0	0	0	0	0	0	0	0	0	0	0	0	0
072319	13:14:16	13:20:52	394971	5.0.10.0	5_exp_RW	999	Rpleas_acq	CS_B	BZZB	JXXJ	GWWG	VKKV	MQQM	YDDY	retten	schön	fair	spielen	ehrlich	treu	rächen	schlecht	faul	strafen	eitel	tot	1	acq_USunple_CSunple2_RW	acq4567_RW	4	62	400	0	300	300	529	46	0	1	1	blank2r.bmp	0	1	+	0	1	blank2r.bmp	492	1	VKKV	492	1	blank2r.bmp	572	2	eitel	866	1	!	1239	1	!	-1	0	0	0	0	0	0	0	0	0	0	0	0	0	0	0	0	0	0	0	0	0	0	0	0	0	0	0	0	0	0
072319	13:14:16	13:20:54	397157	5.0.10.0	5_exp_RW	999	Rpleas_acq	CS_B	BZZB	JXXJ	GWWG	VKKV	MQQM	YDDY	retten	schön	fair	spielen	ehrlich	treu	rächen	schlecht	faul	strafen	eitel	tot	1	acq_USunple_CSunple1_RW	acq4567_RW	4	63	400	1	300	300	397	46	0	1	1	blank2r.bmp	0	1	+	0	1	blank2r.bmp	492	1	GWWG	492	1	blank2r.bmp	572	3	faul	866	1	!	1239	1	!	1292	0	0	0	0	0	0	0	0	0	0	0	0	0	0	0	0	0	0	0	0	0	0	0	0	0	0	0	0	0	0
072319	13:14:16	13:20:56	399356	5.0.10.0	5_exp_RW	999	Rpleas_acq	CS_B	BZZB	JXXJ	GWWG	VKKV	MQQM	YDDY	retten	schön	fair	spielen	ehrlich	treu	rächen	schlecht	faul	strafen	eitel	tot	1	acq_USpleas_CSpleas2_RW	acq4567_RW	4	64	400	1	300	300	399	50	0	1	1	blank2r.bmp	0	1	+	0	1	blank2r.bmp	492	1	JXXJ	492	1	blank2r.bmp	572	1	spielen	866	1	!	1239	1	!	1306	0	0	0	0	0	0	0	0	0	0	0	0	0	0	0	0	0	0	0	0	0	0	0	0	0	0	0	0	0	0
072319	13:14:16	13:20:58	401582	5.0.10.0	5_exp_RW	999	Rpleas_acq	CS_B	BZZB	JXXJ	GWWG	VKKV	MQQM	YDDY	retten	schön	fair	spielen	ehrlich	treu	rächen	schlecht	faul	strafen	eitel	tot	1	acq_USpleas_CSpleas1_RW	acq4567_RW	4	65	400	1	300	300	428	50	0	1	1	blank2r.bmp	0	1	+	0	1	blank2r.bmp	492	1	BZZB	492	1	blank2r.bmp	572	1	retten	866	1	!	1239	1	!	1332	0	0	0	0	0	0	0	0	0	0	0	0	0	0	0	0	0	0	0	0	0	0	0	0	0	0	0	0	0	0
072319	13:14:16	13:21:01	403808	5.0.10.0	5_exp_RW	999	Rpleas_acq	CS_B	BZZB	JXXJ	GWWG	VKKV	MQQM	YDDY	retten	schön	fair	spielen	ehrlich	treu	rächen	schlecht	faul	strafen	eitel	tot	1	acq_USpleas_CSpleas1_RW	acq4567_RW	4	66	400	1	300	300	427	50	0	1	1	blank2r.bmp	0	1	+	0	1	blank2r.bmp	492	1	BZZB	492	1	blank2r.bmp	572	3	fair	866	1	!	1239	1	!	1332	0	0	0	0	0	0	0	0	0	0	0	0	0	0	0	0	0	0	0	0	0	0	0	0	0	0	0	0	0	0
072319	13:14:16	13:21:03	406007	5.0.10.0	5_exp_RW	999	Rpleas_acq	CS_B	BZZB	JXXJ	GWWG	VKKV	MQQM	YDDY	retten	schön	fair	spielen	ehrlich	treu	rächen	schlecht	faul	strafen	eitel	tot	1	acq_USunple_CSunple1_RW	acq4567_RW	4	67	400	1	300	300	407	46	0	1	1	blank2r.bmp	0	1	+	0	1	blank2r.bmp	492	1	GWWG	492	1	blank2r.bmp	572	2	schlecht	866	1	!	1239	1	!	1306	0	0	0	0	0	0	0	0	0	0	0	0	0	0	0	0	0	0	0	0	0	0	0	0	0	0	0	0	0	0
072319	13:14:16	13:21:05	408232	5.0.10.0	5_exp_RW	999	Rpleas_acq	CS_B	BZZB	JXXJ	GWWG	VKKV	MQQM	YDDY	retten	schön	fair	spielen	ehrlich	treu	rächen	schlecht	faul	strafen	eitel	tot	1	acq_USunple_CSunple2_RW	acq4567_RW	4	68	400	1	300	300	434	46	0	1	1	blank2r.bmp	0	1	+	0	1	blank2r.bmp	492	1	VKKV	492	1	blank2r.bmp	572	3	tot	866	1	!	1239	1	!	1332	0	0	0	0	0	0	0	0	0	0	0	0	0	0	0	0	0	0	0	0	0	0	0	0	0	0	0	0	0	0
072319	13:14:16	13:21:07	410445	5.0.10.0	5_exp_RW	999	Rpleas_acq	CS_B	BZZB	JXXJ	GWWG	VKKV	MQQM	YDDY	retten	schön	fair	spielen	ehrlich	treu	rächen	schlecht	faul	strafen	eitel	tot	1	acq_USpleas_CSpleas2_RW	acq4567_RW	4	69	400	1	300	300	411	50	0	1	1	blank2r.bmp	0	1	+	0	1	blank2r.bmp	492	1	JXXJ	492	1	blank2r.bmp	573	2	ehrlich	867	1	!	1239	1	!	1319	0	0	0	0	0	0	0	0	0	0	0	0	0	0	0	0	0	0	0	0	0	0	0	0	0	0	0	0	0	0
072319	13:14:16	13:21:09	412631	5.0.10.0	5_exp_RW	999	Rpleas_acq	CS_B	BZZB	JXXJ	GWWG	VKKV	MQQM	YDDY	retten	schön	fair	spielen	ehrlich	treu	rächen	schlecht	faul	strafen	eitel	tot	1	acq_USunple_CSunple1_RW	acq4567_RW	4	70	400	1	300	300	390	46	0	1	1	blank2r.bmp	0	1	+	0	1	blank2r.bmp	492	1	GWWG	492	1	blank2r.bmp	572	3	faul	866	1	!	1239	1	!	1292	0	0	0	0	0	0	0	0	0	0	0	0	0	0	0	0	0	0	0	0	0	0	0	0	0	0	0	0	0	0
072319	13:14:16	13:21:12	414803	5.0.10.0	5_exp_RW	999	Rpleas_acq	CS_B	BZZB	JXXJ	GWWG	VKKV	MQQM	YDDY	retten	schön	fair	spielen	ehrlich	treu	rächen	schlecht	faul	strafen	eitel	tot	1	acq_USunple_CSunple1_RW	acq4567_RW	4	71	400	1	300	300	367	50	0	0	1	blank2r.bmp	0	1	+	0	1	blank2r.bmp	492	1	GWWG	492	1	blank2r.bmp	572	1	rächen	866	1	!	1239	1	!	1266	0	0	0	0	0	0	0	0	0	0	0	0	0	0	0	0	0	0	0	0	0	0	0	0	0	0	0	0	0	0
072319	13:14:16	13:21:14	416869	5.0.10.0	5_exp_RW	999	Rpleas_acq	CS_B	BZZB	JXXJ	GWWG	VKKV	MQQM	YDDY	retten	schön	fair	spielen	ehrlich	treu	rächen	schlecht	faul	strafen	eitel	tot	1	acq_USpleas_CSpleas2_RW	acq4567_RW	4	72	400	0	300	300	315	50	0	1	1	blank2r.bmp	0	1	+	0	1	blank2r.bmp	492	1	JXXJ	492	1	blank2r.bmp	572	1	spielen	866	1	!	-1	1	!	-1	0	0	0	0	0	0	0	0	0	0	0	0	0	0	0	0	0	0	0	0	0	0	0	0	0	0	0	0	0	0
072319	13:14:16	13:21:16	419081	5.0.10.0	5_exp_RW	999	Rpleas_acq	CS_B	BZZB	JXXJ	GWWG	VKKV	MQQM	YDDY	retten	schön	fair	spielen	ehrlich	treu	rächen	schlecht	faul	strafen	eitel	tot	1	acq_USpleas_CSpleas1_RW	acq4567_RW	4	73	400	1	300	300	404	50	0	1	1	blank2r.bmp	0	1	+	0	1	blank2r.bmp	492	1	BZZB	492	1	blank2r.bmp	572	1	retten	866	1	!	1239	1	!	1306	0	0	0	0	0	0	0	0	0	0	0	0	0	0	0	0	0	0	0	0	0	0	0	0	0	0	0	0	0	0
072319	13:14:16	13:21:18	421240	5.0.10.0	5_exp_RW	999	Rpleas_acq	CS_B	BZZB	JXXJ	GWWG	VKKV	MQQM	YDDY	retten	schön	fair	spielen	ehrlich	treu	rächen	schlecht	faul	strafen	eitel	tot	1	acq_USpleas_CSpleas2_RW	acq4567_RW	4	74	400	1	300	300	363	46	0	0	1	blank2r.bmp	0	1	+	0	1	blank2r.bmp	492	1	JXXJ	492	1	blank2r.bmp	572	2	ehrlich	866	1	!	1239	1	!	1266	0	0	0	0	0	0	0	0	0	0	0	0	0	0	0	0	0	0	0	0	0	0	0	0	0	0	0	0	0	0
072319	13:14:16	13:21:20	423506	5.0.10.0	5_exp_RW	999	Rpleas_acq	CS_B	BZZB	JXXJ	GWWG	VKKV	MQQM	YDDY	retten	schön	fair	spielen	ehrlich	treu	rächen	schlecht	faul	strafen	eitel	tot	1	acq_USunple_CSunple2_RW	acq4567_RW	4	75	400	0	300	300	479	46	0	1	1	blank2r.bmp	0	1	+	0	1	blank2r.bmp	492	1	VKKV	492	1	blank2r.bmp	572	2	eitel	866	1	!	1239	1	!	-1	0	0	0	0	0	0	0	0	0	0	0	0	0	0	0	0	0	0	0	0	0	0	0	0	0	0	0	0	0	0
072319	13:14:16	13:21:22	425692	5.0.10.0	5_exp_RW	999	Rpleas_acq	CS_B	BZZB	JXXJ	GWWG	VKKV	MQQM	YDDY	retten	schön	fair	spielen	ehrlich	treu	rächen	schlecht	faul	strafen	eitel	tot	1	acq_USunple_CSunple1_RW	acq4567_RW	4	76	400	1	300	300	386	46	0	1	1	blank2r.bmp	0	1	+	0	1	blank2r.bmp	492	1	GWWG	492	1	blank2r.bmp	572	2	schlecht	866	1	!	1239	1	!	1292	0	0	0	0	0	0	0	0	0	0	0	0	0	0	0	0	0	0	0	0	0	0	0	0	0	0	0	0	0	0
072319	13:14:16	13:21:25	427931	5.0.10.0	5_exp_RW	999	Rpleas_acq	CS_B	BZZB	JXXJ	GWWG	VKKV	MQQM	YDDY	retten	schön	fair	spielen	ehrlich	treu	rächen	schlecht	faul	strafen	eitel	tot	1	acq_USunple_CSunple2_RW	acq4567_RW	4	77	400	1	300	300	439	50	0	0	1	blank2r.bmp	0	1	+	0	1	blank2r.bmp	492	1	VKKV	492	1	blank2r.bmp	572	1	strafen	866	1	!	1239	1	!	1346	0	0	0	0	0	0	0	0	0	0	0	0	0	0	0	0	0	0	0	0	0	0	0	0	0	0	0	0	0	0
072319	13:14:16	13:21:27	430117	5.0.10.0	5_exp_RW	999	Rpleas_acq	CS_B	BZZB	JXXJ	GWWG	VKKV	MQQM	YDDY	retten	schön	fair	spielen	ehrlich	treu	rächen	schlecht	faul	strafen	eitel	tot	1	acq_USpleas_CSpleas2_RW	acq4567_RW	4	78	400	1	300	300	391	50	0	1	1	blank2r.bmp	0	1	+	0	1	blank2r.bmp	492	1	JXXJ	492	1	blank2r.bmp	572	3	treu	866	1	!	1239	1	!	1292	0	0	0	0	0	0	0	0	0	0	0	0	0	0	0	0	0	0	0	0	0	0	0	0	0	0	0	0	0	0
072319	13:14:16	13:21:29	432369	5.0.10.0	5_exp_RW	999	Rpleas_acq	CS_B	BZZB	JXXJ	GWWG	VKKV	MQQM	YDDY	retten	schön	fair	spielen	ehrlich	treu	rächen	schlecht	faul	strafen	eitel	tot	1	acq_USunple_CSunple2_RW	acq4567_RW	4	79	400	1	300	300	450	46	0	1	1	blank2r.bmp	0	1	+	0	1	blank2r.bmp	492	1	VKKV	492	1	blank2r.bmp	572	3	tot	866	1	!	1239	1	!	1359	0	0	0	0	0	0	0	0	0	0	0	0	0	0	0	0	0	0	0	0	0	0	0	0	0	0	0	0	0	0
072319	13:14:16	13:21:31	434622	5.0.10.0	5_exp_RW	999	Rpleas_acq	CS_B	BZZB	JXXJ	GWWG	VKKV	MQQM	YDDY	retten	schön	fair	spielen	ehrlich	treu	rächen	schlecht	faul	strafen	eitel	tot	1	acq_USpleas_CSpleas1_RW	acq4567_RW	4	80	400	1	300	300	454	50	0	1	1	blank2r.bmp	0	1	+	0	1	blank2r.bmp	492	1	BZZB	492	1	blank2r.bmp	572	2	schön	866	1	!	1239	1	!	1359	0	0	0	0	0	0	0	0	0	0	0	0	0	0	0	0	0	0	0	0	0	0	0	0	0	0	0	0	0	0
072319	13:14:16	13:21:44	447323	5.0.10.0	5_exp_RW	999	Rpleas_acq	CS_B	BZZB	JXXJ	GWWG	VKKV	MQQM	YDDY	retten	schön	fair	spielen	ehrlich	treu	rächen	schlecht	faul	strafen	eitel	tot	1	acq_USunple_CSunple1_RW	acq4567_RW	5	1	400	1	300	300	388	46	0	1	1	blank2r.bmp	0	1	+	0	1	blank2r.bmp	495	1	GWWG	495	1	blank2r.bmp	572	2	schlecht	866	1	!	1239	1	!	1292	0	0	0	0	0	0	0	0	0	0	0	0	0	0	0	0	0	0	0	0	0	0	0	0	0	0	0	0	0	0
072319	13:14:16	13:21:46	449562	5.0.10.0	5_exp_RW	999	Rpleas_acq	CS_B	BZZB	JXXJ	GWWG	VKKV	MQQM	YDDY	retten	schön	fair	spielen	ehrlich	treu	rächen	schlecht	faul	strafen	eitel	tot	1	acq_USunple_CSunple1_RW	acq4567_RW	5	2	400	1	300	300	436	46	0	1	1	blank2r.bmp	0	1	+	0	1	blank2r.bmp	492	1	GWWG	492	1	blank2r.bmp	572	1	rächen	866	1	!	1239	1	!	1346	0	0	0	0	0	0	0	0	0	0	0	0	0	0	0	0	0	0	0	0	0	0	0	0	0	0	0	0	0	0
072319	13:14:16	13:21:49	451761	5.0.10.0	5_exp_RW	999	Rpleas_acq	CS_B	BZZB	JXXJ	GWWG	VKKV	MQQM	YDDY	retten	schön	fair	spielen	ehrlich	treu	rächen	schlecht	faul	strafen	eitel	tot	1	acq_USpleas_CSpleas1_RW	acq4567_RW	5	3	400	1	300	300	405	50	0	1	1	blank2r.bmp	0	1	+	0	1	blank2r.bmp	492	1	BZZB	492	1	blank2r.bmp	572	1	retten	866	1	!	1239	1	!	1306	0	0	0	0	0	0	0	0	0	0	0	0	0	0	0	0	0	0	0	0	0	0	0	0	0	0	0	0	0	0
072319	13:14:16	13:21:51	453934	5.0.10.0	5_exp_RW	999	Rpleas_acq	CS_B	BZZB	JXXJ	GWWG	VKKV	MQQM	YDDY	retten	schön	fair	spielen	ehrlich	treu	rächen	schlecht	faul	strafen	eitel	tot	1	acq_USpleas_CSpleas2_RW	acq4567_RW	5	4	400	1	300	300	378	50	0	1	1	blank2r.bmp	0	1	+	0	1	blank2r.bmp	492	1	JXXJ	492	1	blank2r.bmp	572	3	treu	866	1	!	1239	1	!	1279	0	0	0	0	0	0	0	0	0	0	0	0	0	0	0	0	0	0	0	0	0	0	0	0	0	0	0	0	0	0
072319	13:14:16	13:21:53	456146	5.0.10.0	5_exp_RW	999	Rpleas_acq	CS_B	BZZB	JXXJ	GWWG	VKKV	MQQM	YDDY	retten	schön	fair	spielen	ehrlich	treu	rächen	schlecht	faul	strafen	eitel	tot	1	acq_USpleas_CSpleas2_RW	acq4567_RW	5	5	400	1	300	300	420	50	0	1	1	blank2r.bmp	0	1	+	0	1	blank2r.bmp	492	1	JXXJ	492	1	blank2r.bmp	572	2	ehrlich	866	1	!	1239	1	!	1319	0	0	0	0	0	0	0	0	0	0	0	0	0	0	0	0	0	0	0	0	0	0	0	0	0	0	0	0	0	0
072319	13:14:16	13:21:55	458292	5.0.10.0	5_exp_RW	999	Rpleas_acq	CS_B	BZZB	JXXJ	GWWG	VKKV	MQQM	YDDY	retten	schön	fair	spielen	ehrlich	treu	rächen	schlecht	faul	strafen	eitel	tot	1	acq_USpleas_CSpleas1_RW	acq4567_RW	5	6	400	1	300	300	346	50	0	1	1	blank2r.bmp	0	1	+	0	1	blank2r.bmp	492	1	BZZB	492	1	blank2r.bmp	572	3	fair	866	1	!	1239	1	!	1252	0	0	0	0	0	0	0	0	0	0	0	0	0	0	0	0	0	0	0	0	0	0	0	0	0	0	0	0	0	0
072319	13:14:16	13:21:57	460438	5.0.10.0	5_exp_RW	999	Rpleas_acq	CS_B	BZZB	JXXJ	GWWG	VKKV	MQQM	YDDY	retten	schön	fair	spielen	ehrlich	treu	rächen	schlecht	faul	strafen	eitel	tot	1	acq_USpleas_CSpleas2_RW	acq4567_RW	5	7	400	1	300	300	354	50	0	1	1	blank2r.bmp	0	1	+	0	1	blank2r.bmp	494	1	JXXJ	494	1	blank2r.bmp	572	1	spielen	866	1	!	1239	1	!	1252	0	0	0	0	0	0	0	0	0	0	0	0	0	0	0	0	0	0	0	0	0	0	0	0	0	0	0	0	0	0
072319	13:14:16	13:21:59	462650	5.0.10.0	5_exp_RW	999	Rpleas_acq	CS_B	BZZB	JXXJ	GWWG	VKKV	MQQM	YDDY	retten	schön	fair	spielen	ehrlich	treu	rächen	schlecht	faul	strafen	eitel	tot	1	acq_USpleas_CSpleas2_RW	acq4567_RW	5	8	400	1	300	300	423	50	0	1	1	blank2r.bmp	0	1	+	0	1	blank2r.bmp	492	1	JXXJ	492	1	blank2r.bmp	572	1	spielen	866	1	!	1239	1	!	1319	0	0	0	0	0	0	0	0	0	0	0	0	0	0	0	0	0	0	0	0	0	0	0	0	0	0	0	0	0	0
072319	13:14:16	13:22:02	464796	5.0.10.0	5_exp_RW	999	Rpleas_acq	CS_B	BZZB	JXXJ	GWWG	VKKV	MQQM	YDDY	retten	schön	fair	spielen	ehrlich	treu	rächen	schlecht	faul	strafen	eitel	tot	1	acq_USpleas_CSpleas1_RW	acq4567_RW	5	9	400	1	300	300	349	50	0	1	1	blank2r.bmp	0	1	+	0	1	blank2r.bmp	492	1	BZZB	492	1	blank2r.bmp	572	2	schön	871	1	!	1239	1	!	1252	0	0	0	0	0	0	0	0	0	0	0	0	0	0	0	0	0	0	0	0	0	0	0	0	0	0	0	0	0	0
072319	13:14:16	13:22:04	467035	5.0.10.0	5_exp_RW	999	Rpleas_acq	CS_B	BZZB	JXXJ	GWWG	VKKV	MQQM	YDDY	retten	schön	fair	spielen	ehrlich	treu	rächen	schlecht	faul	strafen	eitel	tot	1	acq_USunple_CSunple2_RW	acq4567_RW	5	10	400	1	300	300	449	50	0	0	1	blank2r.bmp	0	1	+	0	1	blank2r.bmp	492	1	VKKV	492	1	blank2r.bmp	572	2	eitel	866	1	!	1239	1	!	1346	0	0	0	0	0	0	0	0	0	0	0	0	0	0	0	0	0	0	0	0	0	0	0	0	0	0	0	0	0	0
072319	13:14:16	13:22:06	469261	5.0.10.0	5_exp_RW	999	Rpleas_acq	CS_B	BZZB	JXXJ	GWWG	VKKV	MQQM	YDDY	retten	schön	fair	spielen	ehrlich	treu	rächen	schlecht	faul	strafen	eitel	tot	1	acq_USunple_CSunple2_RW	acq4567_RW	5	11	400	1	300	300	425	46	0	1	1	blank2r.bmp	0	1	+	0	1	blank2r.bmp	492	1	VKKV	492	1	blank2r.bmp	572	3	tot	866	1	!	1239	1	!	1333	0	0	0	0	0	0	0	0	0	0	0	0	0	0	0	0	0	0	0	0	0	0	0	0	0	0	0	0	0	0
072319	13:14:16	13:22:08	471473	5.0.10.0	5_exp_RW	999	Rpleas_acq	CS_B	BZZB	JXXJ	GWWG	VKKV	MQQM	YDDY	retten	schön	fair	spielen	ehrlich	treu	rächen	schlecht	faul	strafen	eitel	tot	1	acq_USunple_CSunple2_RW	acq4567_RW	5	12	400	1	300	300	422	46	0	1	1	blank2r.bmp	0	1	+	0	1	blank2r.bmp	492	1	VKKV	492	1	blank2r.bmp	572	1	strafen	866	1	!	1239	1	!	1319	0	0	0	0	0	0	0	0	0	0	0	0	0	0	0	0	0	0	0	0	0	0	0	0	0	0	0	0	0	0
072319	13:14:16	13:22:10	473646	5.0.10.0	5_exp_RW	999	Rpleas_acq	CS_B	BZZB	JXXJ	GWWG	VKKV	MQQM	YDDY	retten	schön	fair	spielen	ehrlich	treu	rächen	schlecht	faul	strafen	eitel	tot	1	acq_USunple_CSunple1_RW	acq4567_RW	5	13	400	1	300	300	381	46	0	1	1	blank2r.bmp	0	1	+	0	1	blank2r.bmp	493	1	GWWG	493	1	blank2r.bmp	572	3	faul	866	1	!	1239	1	!	1279	0	0	0	0	0	0	0	0	0	0	0	0	0	0	0	0	0	0	0	0	0	0	0	0	0	0	0	0	0	0
072319	13:14:16	13:22:13	475818	5.0.10.0	5_exp_RW	999	Rpleas_acq	CS_B	BZZB	JXXJ	GWWG	VKKV	MQQM	YDDY	retten	schön	fair	spielen	ehrlich	treu	rächen	schlecht	faul	strafen	eitel	tot	1	acq_USunple_CSunple1_RW	acq4567_RW	5	14	400	1	300	300	378	46	0	1	1	blank2r.bmp	0	1	+	0	1	blank2r.bmp	492	1	GWWG	492	1	blank2r.bmp	572	1	rächen	866	1	!	1239	1	!	1279	0	0	0	0	0	0	0	0	0	0	0	0	0	0	0	0	0	0	0	0	0	0	0	0	0	0	0	0	0	0
072319	13:14:16	13:22:15	478031	5.0.10.0	5_exp_RW	999	Rpleas_acq	CS_B	BZZB	JXXJ	GWWG	VKKV	MQQM	YDDY	retten	schön	fair	spielen	ehrlich	treu	rächen	schlecht	faul	strafen	eitel	tot	1	acq_USpleas_CSpleas1_RW	acq4567_RW	5	15	400	1	300	300	415	50	0	1	1	blank2r.bmp	3	1	+	3	1	blank2r.bmp	492	1	BZZB	492	1	blank2r.bmp	572	1	retten	866	1	!	1239	1	!	1319	0	0	0	0	0	0	0	0	0	0	0	0	0	0	0	0	0	0	0	0	0	0	0	0	0	0	0	0	0	0
072319	13:14:16	13:22:17	480256	5.0.10.0	5_exp_RW	999	Rpleas_acq	CS_B	BZZB	JXXJ	GWWG	VKKV	MQQM	YDDY	retten	schön	fair	spielen	ehrlich	treu	rächen	schlecht	faul	strafen	eitel	tot	1	acq_USpleas_CSpleas1_RW	acq4567_RW	5	16	400	1	300	300	432	50	0	1	1	blank2r.bmp	0	1	+	0	1	blank2r.bmp	492	1	BZZB	492	1	blank2r.bmp	572	3	fair	866	1	!	1239	1	!	1332	0	0	0	0	0	0	0	0	0	0	0	0	0	0	0	0	0	0	0	0	0	0	0	0	0	0	0	0	0	0
072319	13:14:16	13:22:19	482455	5.0.10.0	5_exp_RW	999	Rpleas_acq	CS_B	BZZB	JXXJ	GWWG	VKKV	MQQM	YDDY	retten	schön	fair	spielen	ehrlich	treu	rächen	schlecht	faul	strafen	eitel	tot	1	acq_USunple_CSunple2_RW	acq4567_RW	5	17	400	1	300	300	396	46	0	1	1	blank2r.bmp	0	1	+	0	1	blank2r.bmp	492	1	VKKV	492	1	blank2r.bmp	572	3	tot	866	1	!	1239	1	!	1306	0	0	0	0	0	0	0	0	0	0	0	0	0	0	0	0	0	0	0	0	0	0	0	0	0	0	0	0	0	0
072319	13:14:16	13:22:21	484641	5.0.10.0	5_exp_RW	999	Rpleas_acq	CS_B	BZZB	JXXJ	GWWG	VKKV	MQQM	YDDY	retten	schön	fair	spielen	ehrlich	treu	rächen	schlecht	faul	strafen	eitel	tot	1	acq_USpleas_CSpleas2_RW	acq4567_RW	5	18	400	1	300	300	395	50	0	1	1	blank2r.bmp	0	1	+	0	1	blank2r.bmp	493	1	JXXJ	493	1	blank2r.bmp	572	2	ehrlich	866	1	!	1239	1	!	1292	0	0	0	0	0	0	0	0	0	0	0	0	0	0	0	0	0	0	0	0	0	0	0	0	0	0	0	0	0	0
072319	13:14:16	13:22:24	486854	5.0.10.0	5_exp_RW	999	Rpleas_acq	CS_B	BZZB	JXXJ	GWWG	VKKV	MQQM	YDDY	retten	schön	fair	spielen	ehrlich	treu	rächen	schlecht	faul	strafen	eitel	tot	1	acq_USunple_CSunple1_RW	acq4567_RW	5	19	400	1	300	300	420	46	0	1	1	blank2r.bmp	0	1	+	0	1	blank2r.bmp	492	1	GWWG	492	1	blank2r.bmp	573	3	faul	866	1	!	1239	1	!	1319	0	0	0	0	0	0	0	0	0	0	0	0	0	0	0	0	0	0	0	0	0	0	0	0	0	0	0	0	0	0
072319	13:14:16	13:22:26	489106	5.0.10.0	5_exp_RW	999	Rpleas_acq	CS_B	BZZB	JXXJ	GWWG	VKKV	MQQM	YDDY	retten	schön	fair	spielen	ehrlich	treu	rächen	schlecht	faul	strafen	eitel	tot	1	acq_USunple_CSunple2_RW	acq4567_RW	5	20	400	0	300	300	480	46	0	1	1	blank2r.bmp	0	1	+	0	1	blank2r.bmp	492	1	VKKV	492	1	blank2r.bmp	573	2	eitel	866	1	!	1239	1	!	-1	0	0	0	0	0	0	0	0	0	0	0	0	0	0	0	0	0	0	0	0	0	0	0	0	0	0	0	0	0	0
072319	13:14:16	13:22:28	491292	5.0.10.0	5_exp_RW	999	Rpleas_acq	CS_B	BZZB	JXXJ	GWWG	VKKV	MQQM	YDDY	retten	schön	fair	spielen	ehrlich	treu	rächen	schlecht	faul	strafen	eitel	tot	1	acq_USunple_CSunple1_RW	acq4567_RW	5	21	400	1	300	300	380	46	0	1	1	blank2r.bmp	0	1	+	0	1	blank2r.bmp	494	1	GWWG	494	1	blank2r.bmp	572	2	schlecht	866	1	!	1239	1	!	1279	0	0	0	0	0	0	0	0	0	0	0	0	0	0	0	0	0	0	0	0	0	0	0	0	0	0	0	0	0	0
072319	13:14:16	13:22:30	493478	5.0.10.0	5_exp_RW	999	Rpleas_acq	CS_B	BZZB	JXXJ	GWWG	VKKV	MQQM	YDDY	retten	schön	fair	spielen	ehrlich	treu	rächen	schlecht	faul	strafen	eitel	tot	1	acq_USpleas_CSpleas2_RW	acq4567_RW	5	22	400	1	300	300	397	46	0	0	1	blank2r.bmp	0	1	+	0	1	blank2r.bmp	497	1	JXXJ	497	1	blank2r.bmp	572	3	treu	866	1	!	1239	1	!	1292	0	0	0	0	0	0	0	0	0	0	0	0	0	0	0	0	0	0	0	0	0	0	0	0	0	0	0	0	0	0
072319	13:14:16	13:22:32	495690	5.0.10.0	5_exp_RW	999	Rpleas_acq	CS_B	BZZB	JXXJ	GWWG	VKKV	MQQM	YDDY	retten	schön	fair	spielen	ehrlich	treu	rächen	schlecht	faul	strafen	eitel	tot	1	acq_USunple_CSunple2_RW	acq4567_RW	5	23	400	1	300	300	423	46	0	1	1	blank2r.bmp	0	1	+	0	1	blank2r.bmp	492	1	VKKV	492	1	blank2r.bmp	572	1	strafen	866	1	!	1239	1	!	1319	0	0	0	0	0	0	0	0	0	0	0	0	0	0	0	0	0	0	0	0	0	0	0	0	0	0	0	0	0	0
072319	13:14:16	13:22:35	497876	5.0.10.0	5_exp_RW	999	Rpleas_acq	CS_B	BZZB	JXXJ	GWWG	VKKV	MQQM	YDDY	retten	schön	fair	spielen	ehrlich	treu	rächen	schlecht	faul	strafen	eitel	tot	1	acq_USpleas_CSpleas2_RW	acq4567_RW	5	24	400	1	300	300	394	50	0	1	1	blank2r.bmp	0	1	+	0	1	blank2r.bmp	493	1	JXXJ	493	1	blank2r.bmp	572	2	ehrlich	866	1	!	1239	1	!	1292	0	0	0	0	0	0	0	0	0	0	0	0	0	0	0	0	0	0	0	0	0	0	0	0	0	0	0	0	0	0
072319	13:14:16	13:22:37	500022	5.0.10.0	5_exp_RW	999	Rpleas_acq	CS_B	BZZB	JXXJ	GWWG	VKKV	MQQM	YDDY	retten	schön	fair	spielen	ehrlich	treu	rächen	schlecht	faul	strafen	eitel	tot	1	acq_USpleas_CSpleas2_RW	acq4567_RW	5	25	400	1	300	300	346	50	0	1	1	blank2r.bmp	0	1	+	0	1	blank2r.bmp	492	1	JXXJ	492	1	blank2r.bmp	572	1	spielen	866	1	!	1239	1	!	1252	0	0	0	0	0	0	0	0	0	0	0	0	0	0	0	0	0	0	0	0	0	0	0	0	0	0	0	0	0	0
072319	13:14:16	13:22:39	502221	5.0.10.0	5_exp_RW	999	Rpleas_acq	CS_B	BZZB	JXXJ	GWWG	VKKV	MQQM	YDDY	retten	schön	fair	spielen	ehrlich	treu	rächen	schlecht	faul	strafen	eitel	tot	1	acq_USunple_CSunple1_RW	acq4567_RW	5	26	400	1	300	300	394	46	0	1	1	blank2r.bmp	0	1	+	0	1	blank2r.bmp	492	1	GWWG	492	1	blank2r.bmp	572	2	schlecht	866	1	!	1240	1	!	1292	0	0	0	0	0	0	0	0	0	0	0	0	0	0	0	0	0	0	0	0	0	0	0	0	0	0	0	0	0	0
072319	13:14:16	13:22:41	504380	5.0.10.0	5_exp_RW	999	Rpleas_acq	CS_B	BZZB	JXXJ	GWWG	VKKV	MQQM	YDDY	retten	schön	fair	spielen	ehrlich	treu	rächen	schlecht	faul	strafen	eitel	tot	1	acq_USpleas_CSpleas1_RW	acq4567_RW	5	27	400	1	300	300	379	50	0	1	1	blank2r.bmp	0	1	+	0	1	blank2r.bmp	492	1	BZZB	492	1	blank2r.bmp	572	2	schön	866	1	!	1239	1	!	1279	0	0	0	0	0	0	0	0	0	0	0	0	0	0	0	0	0	0	0	0	0	0	0	0	0	0	0	0	0	0
072319	13:14:16	13:22:43	506659	5.0.10.0	5_exp_RW	999	Rpleas_acq	CS_B	BZZB	JXXJ	GWWG	VKKV	MQQM	YDDY	retten	schön	fair	spielen	ehrlich	treu	rächen	schlecht	faul	strafen	eitel	tot	1	acq_USunple_CSunple2_RW	acq4567_RW	5	28	400	0	300	300	499	46	0	1	1	blank2r.bmp	0	1	+	0	1	blank2r.bmp	492	1	VKKV	492	1	blank2r.bmp	572	2	eitel	866	1	!	1239	1	!	-1	0	0	0	0	0	0	0	0	0	0	0	0	0	0	0	0	0	0	0	0	0	0	0	0	0	0	0	0	0	0
072319	13:14:16	13:22:46	508911	5.0.10.0	5_exp_RW	999	Rpleas_acq	CS_B	BZZB	JXXJ	GWWG	VKKV	MQQM	YDDY	retten	schön	fair	spielen	ehrlich	treu	rächen	schlecht	faul	strafen	eitel	tot	1	acq_USunple_CSunple1_RW	acq4567_RW	5	29	400	1	300	300	455	46	0	1	1	blank2r.bmp	0	1	+	0	1	blank2r.bmp	492	1	GWWG	492	1	blank2r.bmp	572	3	faul	866	1	!	1239	1	!	1359	0	0	0	0	0	0	0	0	0	0	0	0	0	0	0	0	0	0	0	0	0	0	0	0	0	0	0	0	0	0
072319	13:14:16	13:22:48	511057	5.0.10.0	5_exp_RW	999	Rpleas_acq	CS_B	BZZB	JXXJ	GWWG	VKKV	MQQM	YDDY	retten	schön	fair	spielen	ehrlich	treu	rächen	schlecht	faul	strafen	eitel	tot	1	acq_USunple_CSunple2_RW	acq4567_RW	5	30	400	1	300	300	354	46	0	1	1	blank2r.bmp	0	1	+	0	1	blank2r.bmp	492	1	VKKV	492	1	blank2r.bmp	577	1	strafen	866	1	!	1239	1	!	1252	0	0	0	0	0	0	0	0	0	0	0	0	0	0	0	0	0	0	0	0	0	0	0	0	0	0	0	0	0	0
072319	13:14:16	13:22:50	513203	5.0.10.0	5_exp_RW	999	Rpleas_acq	CS_B	BZZB	JXXJ	GWWG	VKKV	MQQM	YDDY	retten	schön	fair	spielen	ehrlich	treu	rächen	schlecht	faul	strafen	eitel	tot	1	acq_USpleas_CSpleas1_RW	acq4567_RW	5	31	400	1	300	300	354	50	0	1	1	blank2r.bmp	0	1	+	0	1	blank2r.bmp	498	1	BZZB	498	1	blank2r.bmp	572	2	schön	866	1	!	1239	1	!	1252	0	0	0	0	0	0	0	0	0	0	0	0	0	0	0	0	0	0	0	0	0	0	0	0	0	0	0	0	0	0
072319	13:14:16	13:22:52	515362	5.0.10.0	5_exp_RW	999	Rpleas_acq	CS_B	BZZB	JXXJ	GWWG	VKKV	MQQM	YDDY	retten	schön	fair	spielen	ehrlich	treu	rächen	schlecht	faul	strafen	eitel	tot	1	acq_USunple_CSunple2_RW	acq4567_RW	5	32	400	1	300	300	365	46	0	1	1	blank2r.bmp	0	1	+	0	1	blank2r.bmp	492	1	VKKV	492	1	blank2r.bmp	572	3	tot	866	1	!	1239	1	!	1266	0	0	0	0	0	0	0	0	0	0	0	0	0	0	0	0	0	0	0	0	0	0	0	0	0	0	0	0	0	0
072319	13:14:16	13:22:54	517601	5.0.10.0	5_exp_RW	999	Rpleas_acq	CS_B	BZZB	JXXJ	GWWG	VKKV	MQQM	YDDY	retten	schön	fair	spielen	ehrlich	treu	rächen	schlecht	faul	strafen	eitel	tot	1	acq_USunple_CSunple1_RW	acq4567_RW	5	33	400	1	300	300	435	46	0	1	1	blank2r.bmp	0	1	+	0	1	blank2r.bmp	492	1	GWWG	492	1	blank2r.bmp	572	1	rächen	866	1	!	1239	1	!	1346	0	0	0	0	0	0	0	0	0	0	0	0	0	0	0	0	0	0	0	0	0	0	0	0	0	0	0	0	0	0
072319	13:14:16	13:22:57	519747	5.0.10.0	5_exp_RW	999	Rpleas_acq	CS_B	BZZB	JXXJ	GWWG	VKKV	MQQM	YDDY	retten	schön	fair	spielen	ehrlich	treu	rächen	schlecht	faul	strafen	eitel	tot	1	acq_USunple_CSunple1_RW	acq4567_RW	5	34	400	1	300	300	344	46	0	1	1	blank2r.bmp	0	1	+	0	1	blank2r.bmp	492	1	GWWG	492	1	blank2r.bmp	572	2	schlecht	866	1	!	1239	1	!	1252	0	0	0	0	0	0	0	0	0	0	0	0	0	0	0	0	0	0	0	0	0	0	0	0	0	0	0	0	0	0
072319	13:14:16	13:22:59	521986	5.0.10.0	5_exp_RW	999	Rpleas_acq	CS_B	BZZB	JXXJ	GWWG	VKKV	MQQM	YDDY	retten	schön	fair	spielen	ehrlich	treu	rächen	schlecht	faul	strafen	eitel	tot	1	acq_USpleas_CSpleas1_RW	acq4567_RW	5	35	400	1	300	300	445	50	0	1	1	blank2r.bmp	0	1	+	0	1	blank2r.bmp	492	1	BZZB	492	1	blank2r.bmp	572	3	fair	866	1	!	1239	1	!	1346	0	0	0	0	0	0	0	0	0	0	0	0	0	0	0	0	0	0	0	0	0	0	0	0	0	0	0	0	0	0
072319	13:14:16	13:23:01	524145	5.0.10.0	5_exp_RW	999	Rpleas_acq	CS_B	BZZB	JXXJ	GWWG	VKKV	MQQM	YDDY	retten	schön	fair	spielen	ehrlich	treu	rächen	schlecht	faul	strafen	eitel	tot	1	acq_USunple_CSunple2_RW	acq4567_RW	5	36	400	1	300	300	362	46	0	1	1	blank2r.bmp	0	1	+	0	1	blank2r.bmp	492	1	VKKV	492	1	blank2r.bmp	573	3	tot	866	1	!	1239	1	!	1266	0	0	0	0	0	0	0	0	0	0	0	0	0	0	0	0	0	0	0	0	0	0	0	0	0	0	0	0	0	0
072319	13:14:16	13:23:03	526251	5.0.10.0	5_exp_RW	999	Rpleas_acq	CS_B	BZZB	JXXJ	GWWG	VKKV	MQQM	YDDY	retten	schön	fair	spielen	ehrlich	treu	rächen	schlecht	faul	strafen	eitel	tot	1	acq_USpleas_CSpleas1_RW	acq4567_RW	5	37	400	0	300	300	330	50	0	1	1	blank2r.bmp	0	1	+	0	1	blank2r.bmp	492	1	BZZB	492	1	blank2r.bmp	574	1	retten	866	1	!	-1	1	!	-1	0	0	0	0	0	0	0	0	0	0	0	0	0	0	0	0	0	0	0	0	0	0	0	0	0	0	0	0	0	0
072319	13:14:16	13:23:05	528477	5.0.10.0	5_exp_RW	999	Rpleas_acq	CS_B	BZZB	JXXJ	GWWG	VKKV	MQQM	YDDY	retten	schön	fair	spielen	ehrlich	treu	rächen	schlecht	faul	strafen	eitel	tot	1	acq_USpleas_CSpleas1_RW	acq4567_RW	5	38	400	1	300	300	434	50	0	1	1	blank2r.bmp	0	1	+	0	1	blank2r.bmp	492	1	BZZB	492	1	blank2r.bmp	572	2	schön	866	1	!	1239	1	!	1332	0	0	0	0	0	0	0	0	0	0	0	0	0	0	0	0	0	0	0	0	0	0	0	0	0	0	0	0	0	0
072319	13:14:16	13:23:07	530662	5.0.10.0	5_exp_RW	999	Rpleas_acq	CS_B	BZZB	JXXJ	GWWG	VKKV	MQQM	YDDY	retten	schön	fair	spielen	ehrlich	treu	rächen	schlecht	faul	strafen	eitel	tot	1	acq_USpleas_CSpleas2_RW	acq4567_RW	5	39	400	1	300	300	397	50	0	1	1	blank2r.bmp	0	1	+	0	1	blank2r.bmp	492	1	JXXJ	492	1	blank2r.bmp	572	3	treu	866	1	!	1239	1	!	1292	0	0	0	0	0	0	0	0	0	0	0	0	0	0	0	0	0	0	0	0	0	0	0	0	0	0	0	0	0	0
072319	13:14:16	13:23:10	532848	5.0.10.0	5_exp_RW	999	Rpleas_acq	CS_B	BZZB	JXXJ	GWWG	VKKV	MQQM	YDDY	retten	schön	fair	spielen	ehrlich	treu	rächen	schlecht	faul	strafen	eitel	tot	1	acq_USpleas_CSpleas2_RW	acq4567_RW	5	40	400	1	300	300	388	50	0	1	1	blank2r.bmp	0	1	+	0	1	blank2r.bmp	492	1	JXXJ	492	1	blank2r.bmp	572	1	spielen	866	1	!	1239	1	!	1292	0	0	0	0	0	0	0	0	0	0	0	0	0	0	0	0	0	0	0	0	0	0	0	0	0	0	0	0	0	0
072319	13:14:16	13:23:12	535021	5.0.10.0	5_exp_RW	999	Rpleas_acq	CS_B	BZZB	JXXJ	GWWG	VKKV	MQQM	YDDY	retten	schön	fair	spielen	ehrlich	treu	rächen	schlecht	faul	strafen	eitel	tot	1	acq_USunple_CSunple1_RW	acq4567_RW	5	41	400	1	300	300	385	46	0	1	1	blank2r.bmp	0	1	+	0	1	blank2r.bmp	492	1	GWWG	492	1	blank2r.bmp	572	1	rächen	866	1	!	1239	1	!	1279	0	0	0	0	0	0	0	0	0	0	0	0	0	0	0	0	0	0	0	0	0	0	0	0	0	0	0	0	0	0
072319	13:14:16	13:23:14	537220	5.0.10.0	5_exp_RW	999	Rpleas_acq	CS_B	BZZB	JXXJ	GWWG	VKKV	MQQM	YDDY	retten	schön	fair	spielen	ehrlich	treu	rächen	schlecht	faul	strafen	eitel	tot	1	acq_USpleas_CSpleas2_RW	acq4567_RW	5	42	400	1	300	300	401	50	0	1	1	blank2r.bmp	0	1	+	0	1	blank2r.bmp	493	1	JXXJ	493	1	blank2r.bmp	572	2	ehrlich	866	1	!	1239	1	!	1306	0	0	0	0	0	0	0	0	0	0	0	0	0	0	0	0	0	0	0	0	0	0	0	0	0	0	0	0	0	0
072319	13:14:16	13:23:16	539432	5.0.10.0	5_exp_RW	999	Rpleas_acq	CS_B	BZZB	JXXJ	GWWG	VKKV	MQQM	YDDY	retten	schön	fair	spielen	ehrlich	treu	rächen	schlecht	faul	strafen	eitel	tot	1	acq_USunple_CSunple2_RW	acq4567_RW	5	43	400	1	300	300	413	46	0	1	1	blank2r.bmp	0	1	+	0	1	blank2r.bmp	492	1	VKKV	492	1	blank2r.bmp	572	1	strafen	866	1	!	1239	1	!	1319	0	0	0	0	0	0	0	0	0	0	0	0	0	0	0	0	0	0	0	0	0	0	0	0	0	0	0	0	0	0
072319	13:14:16	13:23:18	541578	5.0.10.0	5_exp_RW	999	Rpleas_acq	CS_B	BZZB	JXXJ	GWWG	VKKV	MQQM	YDDY	retten	schön	fair	spielen	ehrlich	treu	rächen	schlecht	faul	strafen	eitel	tot	1	acq_USunple_CSunple2_RW	acq4567_RW	5	44	400	1	300	300	341	50	0	0	1	blank2r.bmp	0	1	+	0	1	blank2r.bmp	494	1	VKKV	494	1	blank2r.bmp	572	2	eitel	866	1	!	1239	1	!	1252	0	0	0	0	0	0	0	0	0	0	0	0	0	0	0	0	0	0	0	0	0	0	0	0	0	0	0	0	0	0
072319	13:14:16	13:23:21	543737	5.0.10.0	5_exp_RW	999	Rpleas_acq	CS_B	BZZB	JXXJ	GWWG	VKKV	MQQM	YDDY	retten	schön	fair	spielen	ehrlich	treu	rächen	schlecht	faul	strafen	eitel	tot	1	acq_USpleas_CSpleas2_RW	acq4567_RW	5	45	400	1	300	300	367	50	0	1	1	blank2r.bmp	0	1	+	0	1	blank2r.bmp	492	1	JXXJ	492	1	blank2r.bmp	572	3	treu	866	1	!	1239	1	!	1266	0	0	0	0	0	0	0	0	0	0	0	0	0	0	0	0	0	0	0	0	0	0	0	0	0	0	0	0	0	0
072319	13:14:16	13:23:23	545896	5.0.10.0	5_exp_RW	999	Rpleas_acq	CS_B	BZZB	JXXJ	GWWG	VKKV	MQQM	YDDY	retten	schön	fair	spielen	ehrlich	treu	rächen	schlecht	faul	strafen	eitel	tot	1	acq_USpleas_CSpleas1_RW	acq4567_RW	5	46	400	1	300	300	357	50	0	1	1	blank2r.bmp	0	1	+	0	1	blank2r.bmp	492	1	BZZB	492	1	blank2r.bmp	572	3	fair	866	1	!	1239	1	!	1266	0	0	0	0	0	0	0	0	0	0	0	0	0	0	0	0	0	0	0	0	0	0	0	0	0	0	0	0	0	0
072319	13:14:16	13:23:25	548109	5.0.10.0	5_exp_RW	999	Rpleas_acq	CS_B	BZZB	JXXJ	GWWG	VKKV	MQQM	YDDY	retten	schön	fair	spielen	ehrlich	treu	rächen	schlecht	faul	strafen	eitel	tot	1	acq_USunple_CSunple2_RW	acq4567_RW	5	47	400	1	300	300	419	46	0	1	1	blank2r.bmp	0	1	+	0	1	blank2r.bmp	492	1	VKKV	492	1	blank2r.bmp	572	1	strafen	866	1	!	1239	1	!	1319	0	0	0	0	0	0	0	0	0	0	0	0	0	0	0	0	0	0	0	0	0	0	0	0	0	0	0	0	0	0
072319	13:14:16	13:23:27	550361	5.0.10.0	5_exp_RW	999	Rpleas_acq	CS_B	BZZB	JXXJ	GWWG	VKKV	MQQM	YDDY	retten	schön	fair	spielen	ehrlich	treu	rächen	schlecht	faul	strafen	eitel	tot	1	acq_USunple_CSunple2_RW	acq4567_RW	5	48	400	1	300	300	449	46	0	1	1	blank2r.bmp	0	1	+	0	1	blank2r.bmp	492	1	VKKV	492	1	blank2r.bmp	573	2	eitel	866	1	!	1239	1	!	1359	0	0	0	0	0	0	0	0	0	0	0	0	0	0	0	0	0	0	0	0	0	0	0	0	0	0	0	0	0	0
072319	13:14:16	13:23:29	552613	5.0.10.0	5_exp_RW	999	Rpleas_acq	CS_B	BZZB	JXXJ	GWWG	VKKV	MQQM	YDDY	retten	schön	fair	spielen	ehrlich	treu	rächen	schlecht	faul	strafen	eitel	tot	1	acq_USpleas_CSpleas1_RW	acq4567_RW	5	49	400	1	300	300	456	46	0	0	1	blank2r.bmp	0	1	+	0	1	blank2r.bmp	492	1	BZZB	492	1	blank2r.bmp	572	1	retten	866	1	!	1239	1	!	1359	0	0	0	0	0	0	0	0	0	0	0	0	0	0	0	0	0	0	0	0	0	0	0	0	0	0	0	0	0	0
072319	13:14:16	13:23:32	554759	5.0.10.0	5_exp_RW	999	Rpleas_acq	CS_B	BZZB	JXXJ	GWWG	VKKV	MQQM	YDDY	retten	schön	fair	spielen	ehrlich	treu	rächen	schlecht	faul	strafen	eitel	tot	1	acq_USunple_CSunple1_RW	acq4567_RW	5	50	400	1	300	300	356	46	0	1	1	blank2r.bmp	0	1	+	0	1	blank2r.bmp	492	1	GWWG	492	1	blank2r.bmp	572	3	faul	866	1	!	1239	1	!	1252	0	0	0	0	0	0	0	0	0	0	0	0	0	0	0	0	0	0	0	0	0	0	0	0	0	0	0	0	0	0
072319	13:14:16	13:23:34	556919	5.0.10.0	5_exp_RW	999	Rpleas_acq	CS_B	BZZB	JXXJ	GWWG	VKKV	MQQM	YDDY	retten	schön	fair	spielen	ehrlich	treu	rächen	schlecht	faul	strafen	eitel	tot	1	acq_USpleas_CSpleas2_RW	acq4567_RW	5	51	400	1	300	300	370	50	0	1	1	blank2r.bmp	0	1	+	0	1	blank2r.bmp	492	1	JXXJ	492	1	blank2r.bmp	572	2	ehrlich	866	1	!	1239	1	!	1266	0	0	0	0	0	0	0	0	0	0	0	0	0	0	0	0	0	0	0	0	0	0	0	0	0	0	0	0	0	0
072319	13:14:16	13:23:36	559104	5.0.10.0	5_exp_RW	999	Rpleas_acq	CS_B	BZZB	JXXJ	GWWG	VKKV	MQQM	YDDY	retten	schön	fair	spielen	ehrlich	treu	rächen	schlecht	faul	strafen	eitel	tot	1	acq_USpleas_CSpleas1_RW	acq4567_RW	5	52	400	1	300	300	397	50	0	1	1	blank2r.bmp	0	1	+	0	1	blank2r.bmp	492	1	BZZB	492	1	blank2r.bmp	572	3	fair	866	1	!	1239	1	!	1292	0	0	0	0	0	0	0	0	0	0	0	0	0	0	0	0	0	0	0	0	0	0	0	0	0	0	0	0	0	0
072319	13:14:16	13:23:38	561370	5.0.10.0	5_exp_RW	999	Rpleas_acq	CS_B	BZZB	JXXJ	GWWG	VKKV	MQQM	YDDY	retten	schön	fair	spielen	ehrlich	treu	rächen	schlecht	faul	strafen	eitel	tot	1	acq_USunple_CSunple2_RW	acq4567_RW	5	53	400	0	300	300	479	46	0	1	1	blank2r.bmp	0	1	+	0	1	blank2r.bmp	492	1	VKKV	492	1	blank2r.bmp	572	3	tot	866	1	!	1239	1	!	-1	0	0	0	0	0	0	0	0	0	0	0	0	0	0	0	0	0	0	0	0	0	0	0	0	0	0	0	0	0	0
072319	13:14:16	13:23:40	563476	5.0.10.0	5_exp_RW	999	Rpleas_acq	CS_B	BZZB	JXXJ	GWWG	VKKV	MQQM	YDDY	retten	schön	fair	spielen	ehrlich	treu	rächen	schlecht	faul	strafen	eitel	tot	1	acq_USpleas_CSpleas1_RW	acq4567_RW	5	54	400	0	300	300	331	50	0	1	1	blank2r.bmp	0	1	+	0	1	blank2r.bmp	492	1	BZZB	492	1	blank2r.bmp	572	2	schön	866	1	!	-1	1	!	-1	0	0	0	0	0	0	0	0	0	0	0	0	0	0	0	0	0	0	0	0	0	0	0	0	0	0	0	0	0	0
072319	13:14:16	13:23:42	565715	5.0.10.0	5_exp_RW	999	Rpleas_acq	CS_B	BZZB	JXXJ	GWWG	VKKV	MQQM	YDDY	retten	schön	fair	spielen	ehrlich	treu	rächen	schlecht	faul	strafen	eitel	tot	1	acq_USunple_CSunple1_RW	acq4567_RW	5	55	400	1	300	300	430	46	0	1	1	blank2r.bmp	0	1	+	0	1	blank2r.bmp	492	1	GWWG	492	1	blank2r.bmp	572	2	schlecht	866	1	!	1239	1	!	1332	0	0	0	0	0	0	0	0	0	0	0	0	0	0	0	0	0	0	0	0	0	0	0	0	0	0	0	0	0	0
072319	13:14:16	13:23:45	567927	5.0.10.0	5_exp_RW	999	Rpleas_acq	CS_B	BZZB	JXXJ	GWWG	VKKV	MQQM	YDDY	retten	schön	fair	spielen	ehrlich	treu	rächen	schlecht	faul	strafen	eitel	tot	1	acq_USunple_CSunple1_RW	acq4567_RW	5	56	400	1	300	300	421	46	0	1	1	blank2r.bmp	0	1	+	0	1	blank2r.bmp	492	1	GWWG	492	1	blank2r.bmp	572	3	faul	866	1	!	1239	1	!	1319	0	0	0	0	0	0	0	0	0	0	0	0	0	0	0	0	0	0	0	0	0	0	0	0	0	0	0	0	0	0
072319	13:14:16	13:23:47	570126	5.0.10.0	5_exp_RW	999	Rpleas_acq	CS_B	BZZB	JXXJ	GWWG	VKKV	MQQM	YDDY	retten	schön	fair	spielen	ehrlich	treu	rächen	schlecht	faul	strafen	eitel	tot	1	acq_USunple_CSunple1_RW	acq4567_RW	5	57	400	1	300	300	399	46	0	1	1	blank2r.bmp	0	1	+	0	1	blank2r.bmp	492	1	GWWG	492	1	blank2r.bmp	572	1	rächen	866	1	!	1239	1	!	1306	0	0	0	0	0	0	0	0	0	0	0	0	0	0	0	0	0	0	0	0	0	0	0	0	0	0	0	0	0	0
072319	13:14:16	13:23:49	572325	5.0.10.0	5_exp_RW	999	Rpleas_acq	CS_B	BZZB	JXXJ	GWWG	VKKV	MQQM	YDDY	retten	schön	fair	spielen	ehrlich	treu	rächen	schlecht	faul	strafen	eitel	tot	1	acq_USpleas_CSpleas2_RW	acq4567_RW	5	58	400	1	300	300	399	50	0	1	1	blank2r.bmp	0	1	+	0	1	blank2r.bmp	492	1	JXXJ	492	1	blank2r.bmp	572	1	spielen	866	1	!	1239	1	!	1306	0	0	0	0	0	0	0	0	0	0	0	0	0	0	0	0	0	0	0	0	0	0	0	0	0	0	0	0	0	0
072319	13:14:16	13:23:51	574418	5.0.10.0	5_exp_RW	999	Rpleas_acq	CS_B	BZZB	JXXJ	GWWG	VKKV	MQQM	YDDY	retten	schön	fair	spielen	ehrlich	treu	rächen	schlecht	faul	strafen	eitel	tot	1	acq_USpleas_CSpleas2_RW	acq4567_RW	5	59	400	0	300	300	316	46	0	0	1	blank2r.bmp	0	1	+	0	1	blank2r.bmp	492	1	JXXJ	492	1	blank2r.bmp	573	3	treu	866	1	!	-1	1	!	-1	0	0	0	0	0	0	0	0	0	0	0	0	0	0	0	0	0	0	0	0	0	0	0	0	0	0	0	0	0	0
072319	13:14:16	13:23:53	576604	5.0.10.0	5_exp_RW	999	Rpleas_acq	CS_B	BZZB	JXXJ	GWWG	VKKV	MQQM	YDDY	retten	schön	fair	spielen	ehrlich	treu	rächen	schlecht	faul	strafen	eitel	tot	1	acq_USpleas_CSpleas1_RW	acq4567_RW	5	60	400	1	300	300	373	46	0	0	1	blank2r.bmp	0	1	+	0	1	blank2r.bmp	492	1	BZZB	492	1	blank2r.bmp	572	1	retten	866	1	!	1239	1	!	1279	0	0	0	0	0	0	0	0	0	0	0	0	0	0	0	0	0	0	0	0	0	0	0	0	0	0	0	0	0	0
072319	13:14:16	13:23:56	578816	5.0.10.0	5_exp_RW	999	Rpleas_acq	CS_B	BZZB	JXXJ	GWWG	VKKV	MQQM	YDDY	retten	schön	fair	spielen	ehrlich	treu	rächen	schlecht	faul	strafen	eitel	tot	1	acq_USunple_CSunple1_RW	acq4567_RW	5	61	400	1	300	300	411	46	0	1	1	blank2r.bmp	0	1	+	0	1	blank2r.bmp	492	1	GWWG	492	1	blank2r.bmp	572	2	schlecht	866	1	!	1239	1	!	1319	0	0	0	0	0	0	0	0	0	0	0	0	0	0	0	0	0	0	0	0	0	0	0	0	0	0	0	0	0	0
072319	13:14:16	13:23:58	581055	5.0.10.0	5_exp_RW	999	Rpleas_acq	CS_B	BZZB	JXXJ	GWWG	VKKV	MQQM	YDDY	retten	schön	fair	spielen	ehrlich	treu	rächen	schlecht	faul	strafen	eitel	tot	1	acq_USunple_CSunple1_RW	acq4567_RW	5	62	400	1	300	300	450	46	0	1	1	blank2r.bmp	0	1	+	0	1	blank2r.bmp	492	1	GWWG	492	1	blank2r.bmp	572	3	faul	870	1	!	1239	1	!	1346	0	0	0	0	0	0	0	0	0	0	0	0	0	0	0	0	0	0	0	0	0	0	0	0	0	0	0	0	0	0
072319	13:14:16	13:24:00	583161	5.0.10.0	5_exp_RW	999	Rpleas_acq	CS_B	BZZB	JXXJ	GWWG	VKKV	MQQM	YDDY	retten	schön	fair	spielen	ehrlich	treu	rächen	schlecht	faul	strafen	eitel	tot	1	acq_USpleas_CSpleas2_RW	acq4567_RW	5	63	400	0	300	300	327	50	0	1	1	blank2r.bmp	0	1	+	0	1	blank2r.bmp	492	1	JXXJ	492	1	blank2r.bmp	572	3	treu	866	1	!	-1	1	!	-1	0	0	0	0	0	0	0	0	0	0	0	0	0	0	0	0	0	0	0	0	0	0	0	0	0	0	0	0	0	0
072319	13:14:16	13:24:02	585413	5.0.10.0	5_exp_RW	999	Rpleas_acq	CS_B	BZZB	JXXJ	GWWG	VKKV	MQQM	YDDY	retten	schön	fair	spielen	ehrlich	treu	rächen	schlecht	faul	strafen	eitel	tot	1	acq_USunple_CSunple2_RW	acq4567_RW	5	64	400	1	300	300	457	46	0	1	1	blank2r.bmp	0	1	+	0	1	blank2r.bmp	492	1	VKKV	492	1	blank2r.bmp	572	3	tot	866	1	!	1239	1	!	1359	0	0	0	0	0	0	0	0	0	0	0	0	0	0	0	0	0	0	0	0	0	0	0	0	0	0	0	0	0	0
072319	13:14:16	13:24:04	587493	5.0.10.0	5_exp_RW	999	Rpleas_acq	CS_B	BZZB	JXXJ	GWWG	VKKV	MQQM	YDDY	retten	schön	fair	spielen	ehrlich	treu	rächen	schlecht	faul	strafen	eitel	tot	1	acq_USpleas_CSpleas1_RW	acq4567_RW	5	65	400	0	300	300	296	50	0	1	1	blank2r.bmp	0	1	+	0	1	blank2r.bmp	492	1	BZZB	492	1	blank2r.bmp	572	2	schön	866	1	!	-1	1	!	-1	0	0	0	0	0	0	0	0	0	0	0	0	0	0	0	0	0	0	0	0	0	0	0	0	0	0	0	0	0	0
072319	13:14:16	13:24:07	589745	5.0.10.0	5_exp_RW	999	Rpleas_acq	CS_B	BZZB	JXXJ	GWWG	VKKV	MQQM	YDDY	retten	schön	fair	spielen	ehrlich	treu	rächen	schlecht	faul	strafen	eitel	tot	1	acq_USpleas_CSpleas2_RW	acq4567_RW	5	66	400	1	300	300	452	50	0	1	1	blank2r.bmp	0	1	+	0	1	blank2r.bmp	492	1	JXXJ	492	1	blank2r.bmp	572	2	ehrlich	866	1	!	1239	1	!	1359	0	0	0	0	0	0	0	0	0	0	0	0	0	0	0	0	0	0	0	0	0	0	0	0	0	0	0	0	0	0
072319	13:14:16	13:24:09	592024	5.0.10.0	5_exp_RW	999	Rpleas_acq	CS_B	BZZB	JXXJ	GWWG	VKKV	MQQM	YDDY	retten	schön	fair	spielen	ehrlich	treu	rächen	schlecht	faul	strafen	eitel	tot	1	acq_USpleas_CSpleas2_RW	acq4567_RW	5	67	400	0	300	300	482	50	0	1	1	blank2r.bmp	0	1	+	0	1	blank2r.bmp	492	1	JXXJ	492	1	blank2r.bmp	577	1	spielen	866	1	!	1239	1	!	-1	0	0	0	0	0	0	0	0	0	0	0	0	0	0	0	0	0	0	0	0	0	0	0	0	0	0	0	0	0	0
072319	13:14:16	13:24:11	594223	5.0.10.0	5_exp_RW	999	Rpleas_acq	CS_B	BZZB	JXXJ	GWWG	VKKV	MQQM	YDDY	retten	schön	fair	spielen	ehrlich	treu	rächen	schlecht	faul	strafen	eitel	tot	1	acq_USpleas_CSpleas1_RW	acq4567_RW	5	68	400	1	300	300	404	50	0	1	1	blank2r.bmp	0	1	+	0	1	blank2r.bmp	492	1	BZZB	492	1	blank2r.bmp	572	3	fair	866	1	!	1239	1	!	1306	0	0	0	0	0	0	0	0	0	0	0	0	0	0	0	0	0	0	0	0	0	0	0	0	0	0	0	0	0	0
072319	13:14:16	13:24:13	596449	5.0.10.0	5_exp_RW	999	Rpleas_acq	CS_B	BZZB	JXXJ	GWWG	VKKV	MQQM	YDDY	retten	schön	fair	spielen	ehrlich	treu	rächen	schlecht	faul	strafen	eitel	tot	1	acq_USunple_CSunple1_RW	acq4567_RW	5	69	400	1	300	300	428	46	0	1	1	blank2r.bmp	0	1	+	0	1	blank2r.bmp	492	1	GWWG	492	1	blank2r.bmp	572	1	rächen	866	1	!	1239	1	!	1332	0	0	0	0	0	0	0	0	0	0	0	0	0	0	0	0	0	0	0	0	0	0	0	0	0	0	0	0	0	0
072319	13:14:16	13:24:15	598715	5.0.10.0	5_exp_RW	999	Rpleas_acq	CS_B	BZZB	JXXJ	GWWG	VKKV	MQQM	YDDY	retten	schön	fair	spielen	ehrlich	treu	rächen	schlecht	faul	strafen	eitel	tot	1	acq_USunple_CSunple2_RW	acq4567_RW	5	70	400	0	300	300	481	46	0	1	1	blank2r.bmp	0	1	+	0	1	blank2r.bmp	492	1	VKKV	492	1	blank2r.bmp	572	2	eitel	866	1	!	1239	1	!	-1	0	0	0	0	0	0	0	0	0	0	0	0	0	0	0	0	0	0	0	0	0	0	0	0	0	0	0	0	0	0
072319	13:14:16	13:24:18	600794	5.0.10.0	5_exp_RW	999	Rpleas_acq	CS_B	BZZB	JXXJ	GWWG	VKKV	MQQM	YDDY	retten	schön	fair	spielen	ehrlich	treu	rächen	schlecht	faul	strafen	eitel	tot	1	acq_USpleas_CSpleas2_RW	acq4567_RW	5	71	400	0	300	300	308	50	0	1	1	blank2r.bmp	0	1	+	0	1	blank2r.bmp	492	1	JXXJ	492	1	blank2r.bmp	572	2	ehrlich	866	1	!	-1	1	!	-1	0	0	0	0	0	0	0	0	0	0	0	0	0	0	0	0	0	0	0	0	0	0	0	0	0	0	0	0	0	0
072319	13:14:16	13:24:20	603060	5.0.10.0	5_exp_RW	999	Rpleas_acq	CS_B	BZZB	JXXJ	GWWG	VKKV	MQQM	YDDY	retten	schön	fair	spielen	ehrlich	treu	rächen	schlecht	faul	strafen	eitel	tot	1	acq_USpleas_CSpleas1_RW	acq4567_RW	5	72	400	0	300	300	477	50	0	1	1	blank2r.bmp	0	1	+	0	1	blank2r.bmp	492	1	BZZB	492	1	blank2r.bmp	572	1	retten	866	1	!	1239	1	!	-1	0	0	0	0	0	0	0	0	0	0	0	0	0	0	0	0	0	0	0	0	0	0	0	0	0	0	0	0	0	0
072319	13:14:16	13:24:22	605219	5.0.10.0	5_exp_RW	999	Rpleas_acq	CS_B	BZZB	JXXJ	GWWG	VKKV	MQQM	YDDY	retten	schön	fair	spielen	ehrlich	treu	rächen	schlecht	faul	strafen	eitel	tot	1	acq_USpleas_CSpleas1_RW	acq4567_RW	5	73	400	1	300	300	344	50	0	1	1	blank2r.bmp	0	1	+	0	1	blank2r.bmp	492	1	BZZB	492	1	blank2r.bmp	572	2	schön	866	1	!	1239	1	!	1252	0	0	0	0	0	0	0	0	0	0	0	0	0	0	0	0	0	0	0	0	0	0	0	0	0	0	0	0	0	0
072319	13:14:16	13:24:24	607471	5.0.10.0	5_exp_RW	999	Rpleas_acq	CS_B	BZZB	JXXJ	GWWG	VKKV	MQQM	YDDY	retten	schön	fair	spielen	ehrlich	treu	rächen	schlecht	faul	strafen	eitel	tot	1	acq_USunple_CSunple2_RW	acq4567_RW	5	74	400	1	300	300	464	46	0	1	1	blank2r.bmp	0	1	+	0	1	blank2r.bmp	492	1	VKKV	492	1	blank2r.bmp	572	1	strafen	866	1	!	1239	1	!	1359	0	0	0	0	0	0	0	0	0	0	0	0	0	0	0	0	0	0	0	0	0	0	0	0	0	0	0	0	0	0
072319	13:14:16	13:24:26	609697	5.0.10.0	5_exp_RW	999	Rpleas_acq	CS_B	BZZB	JXXJ	GWWG	VKKV	MQQM	YDDY	retten	schön	fair	spielen	ehrlich	treu	rächen	schlecht	faul	strafen	eitel	tot	1	acq_USunple_CSunple2_RW	acq4567_RW	5	75	400	1	300	300	431	46	0	1	1	blank2r.bmp	0	1	+	0	1	blank2r.bmp	492	1	VKKV	492	1	blank2r.bmp	573	2	eitel	866	1	!	1239	1	!	1332	0	0	0	0	0	0	0	0	0	0	0	0	0	0	0	0	0	0	0	0	0	0	0	0	0	0	0	0	0	0
072319	13:14:16	13:24:29	611896	5.0.10.0	5_exp_RW	999	Rpleas_acq	CS_B	BZZB	JXXJ	GWWG	VKKV	MQQM	YDDY	retten	schön	fair	spielen	ehrlich	treu	rächen	schlecht	faul	strafen	eitel	tot	1	acq_USunple_CSunple1_RW	acq4567_RW	5	76	400	1	300	300	398	46	0	1	1	blank2r.bmp	0	1	+	0	1	blank2r.bmp	492	1	GWWG	492	1	blank2r.bmp	572	3	faul	866	1	!	1239	1	!	1306	0	0	0	0	0	0	0	0	0	0	0	0	0	0	0	0	0	0	0	0	0	0	0	0	0	0	0	0	0	0
072319	13:14:16	13:24:31	614148	5.0.10.0	5_exp_RW	999	Rpleas_acq	CS_B	BZZB	JXXJ	GWWG	VKKV	MQQM	YDDY	retten	schön	fair	spielen	ehrlich	treu	rächen	schlecht	faul	strafen	eitel	tot	1	acq_USunple_CSunple2_RW	acq4567_RW	5	77	400	1	300	300	457	46	0	1	1	blank2r.bmp	0	1	+	0	1	blank2r.bmp	492	1	VKKV	492	1	blank2r.bmp	572	3	tot	866	1	!	1239	1	!	1359	0	0	0	0	0	0	0	0	0	0	0	0	0	0	0	0	0	0	0	0	0	0	0	0	0	0	0	0	0	0
072319	13:14:16	13:24:33	616307	5.0.10.0	5_exp_RW	999	Rpleas_acq	CS_B	BZZB	JXXJ	GWWG	VKKV	MQQM	YDDY	retten	schön	fair	spielen	ehrlich	treu	rächen	schlecht	faul	strafen	eitel	tot	1	acq_USpleas_CSpleas2_RW	acq4567_RW	5	78	400	1	300	300	370	46	0	0	1	blank2r.bmp	0	1	+	0	1	blank2r.bmp	492	1	JXXJ	492	1	blank2r.bmp	572	3	treu	866	1	!	1239	1	!	1266	0	0	0	0	0	0	0	0	0	0	0	0	0	0	0	0	0	0	0	0	0	0	0	0	0	0	0	0	0	0
072319	13:14:16	13:24:35	618507	5.0.10.0	5_exp_RW	999	Rpleas_acq	CS_B	BZZB	JXXJ	GWWG	VKKV	MQQM	YDDY	retten	schön	fair	spielen	ehrlich	treu	rächen	schlecht	faul	strafen	eitel	tot	1	acq_USpleas_CSpleas1_RW	acq4567_RW	5	79	400	1	300	300	399	50	0	1	1	blank2r.bmp	0	1	+	0	1	blank2r.bmp	492	1	BZZB	492	1	blank2r.bmp	572	3	fair	866	1	!	1239	1	!	1306	0	0	0	0	0	0	0	0	0	0	0	0	0	0	0	0	0	0	0	0	0	0	0	0	0	0	0	0	0	0
072319	13:14:16	13:24:37	620706	5.0.10.0	5_exp_RW	999	Rpleas_acq	CS_B	BZZB	JXXJ	GWWG	VKKV	MQQM	YDDY	retten	schön	fair	spielen	ehrlich	treu	rächen	schlecht	faul	strafen	eitel	tot	1	acq_USunple_CSunple1_RW	acq4567_RW	5	80	400	1	300	300	398	46	0	1	1	blank2r.bmp	0	1	+	0	1	blank2r.bmp	492	1	GWWG	492	1	blank2r.bmp	573	1	rächen	866	1	!	1239	1	!	1306	0	0	0	0	0	0	0	0	0	0	0	0	0	0	0	0	0	0	0	0	0	0	0	0	0	0	0	0	0	0
072319	13:14:16	13:24:50	633274	5.0.10.0	5_exp_RW	999	Rpleas_acq	CS_B	BZZB	JXXJ	GWWG	VKKV	MQQM	YDDY	retten	schön	fair	spielen	ehrlich	treu	rächen	schlecht	faul	strafen	eitel	tot	1	acq_USunple_CSunple1_RW	acq4567_RW	6	1	400	1	300	300	378	46	0	1	1	blank2r.bmp	0	1	+	0	1	blank2r.bmp	492	1	GWWG	492	1	blank2r.bmp	572	2	schlecht	866	1	!	1239	1	!	1279	0	0	0	0	0	0	0	0	0	0	0	0	0	0	0	0	0	0	0	0	0	0	0	0	0	0	0	0	0	0
072319	13:14:16	13:24:52	635366	5.0.10.0	5_exp_RW	999	Rpleas_acq	CS_B	BZZB	JXXJ	GWWG	VKKV	MQQM	YDDY	retten	schön	fair	spielen	ehrlich	treu	rächen	schlecht	faul	strafen	eitel	tot	1	acq_USpleas_CSpleas1_RW	acq4567_RW	6	2	400	0	300	300	319	46	0	0	1	blank2r.bmp	0	1	+	0	1	blank2r.bmp	495	1	BZZB	495	1	blank2r.bmp	573	1	retten	866	1	!	-1	1	!	-1	0	0	0	0	0	0	0	0	0	0	0	0	0	0	0	0	0	0	0	0	0	0	0	0	0	0	0	0	0	0
072319	13:14:16	13:24:54	637632	5.0.10.0	5_exp_RW	999	Rpleas_acq	CS_B	BZZB	JXXJ	GWWG	VKKV	MQQM	YDDY	retten	schön	fair	spielen	ehrlich	treu	rächen	schlecht	faul	strafen	eitel	tot	1	acq_USunple_CSunple2_RW	acq4567_RW	6	3	400	1	300	300	452	46	0	1	1	blank2r.bmp	0	1	+	0	1	blank2r.bmp	492	1	VKKV	492	1	blank2r.bmp	572	1	strafen	866	1	!	1239	1	!	1359	0	0	0	0	0	0	0	0	0	0	0	0	0	0	0	0	0	0	0	0	0	0	0	0	0	0	0	0	0	0
072319	13:14:16	13:24:57	639818	5.0.10.0	5_exp_RW	999	Rpleas_acq	CS_B	BZZB	JXXJ	GWWG	VKKV	MQQM	YDDY	retten	schön	fair	spielen	ehrlich	treu	rächen	schlecht	faul	strafen	eitel	tot	1	acq_USpleas_CSpleas1_RW	acq4567_RW	6	4	400	1	300	300	397	50	0	1	1	blank2r.bmp	0	1	+	0	1	blank2r.bmp	492	1	BZZB	492	1	blank2r.bmp	572	2	schön	866	1	!	1239	1	!	1292	0	0	0	0	0	0	0	0	0	0	0	0	0	0	0	0	0	0	0	0	0	0	0	0	0	0	0	0	0	0
072319	13:14:16	13:24:59	641990	5.0.10.0	5_exp_RW	999	Rpleas_acq	CS_B	BZZB	JXXJ	GWWG	VKKV	MQQM	YDDY	retten	schön	fair	spielen	ehrlich	treu	rächen	schlecht	faul	strafen	eitel	tot	1	acq_USunple_CSunple2_RW	acq4567_RW	6	5	400	1	300	300	363	46	0	1	1	blank2r.bmp	0	1	+	0	1	blank2r.bmp	492	1	VKKV	492	1	blank2r.bmp	572	3	tot	866	1	!	1239	1	!	1266	0	0	0	0	0	0	0	0	0	0	0	0	0	0	0	0	0	0	0	0	0	0	0	0	0	0	0	0	0	0
072319	13:14:16	13:25:01	644189	5.0.10.0	5_exp_RW	999	Rpleas_acq	CS_B	BZZB	JXXJ	GWWG	VKKV	MQQM	YDDY	retten	schön	fair	spielen	ehrlich	treu	rächen	schlecht	faul	strafen	eitel	tot	1	acq_USpleas_CSpleas2_RW	acq4567_RW	6	6	400	1	300	300	417	50	0	1	1	blank2r.bmp	0	1	+	0	1	blank2r.bmp	492	1	JXXJ	492	1	blank2r.bmp	573	1	spielen	866	1	!	1239	1	!	1319	0	0	0	0	0	0	0	0	0	0	0	0	0	0	0	0	0	0	0	0	0	0	0	0	0	0	0	0	0	0
072319	13:14:16	13:25:03	646429	5.0.10.0	5_exp_RW	999	Rpleas_acq	CS_B	BZZB	JXXJ	GWWG	VKKV	MQQM	YDDY	retten	schön	fair	spielen	ehrlich	treu	rächen	schlecht	faul	strafen	eitel	tot	1	acq_USunple_CSunple1_RW	acq4567_RW	6	7	400	1	300	300	444	46	0	1	1	blank2r.bmp	0	1	+	0	1	blank2r.bmp	492	1	GWWG	492	1	blank2r.bmp	572	3	faul	866	1	!	1239	1	!	1346	0	0	0	0	0	0	0	0	0	0	0	0	0	0	0	0	0	0	0	0	0	0	0	0	0	0	0	0	0	0
072319	13:14:16	13:25:05	648694	5.0.10.0	5_exp_RW	999	Rpleas_acq	CS_B	BZZB	JXXJ	GWWG	VKKV	MQQM	YDDY	retten	schön	fair	spielen	ehrlich	treu	rächen	schlecht	faul	strafen	eitel	tot	1	acq_USunple_CSunple2_RW	acq4567_RW	6	8	400	0	300	300	479	46	0	1	1	blank2r.bmp	0	1	+	0	1	blank2r.bmp	492	1	VKKV	492	1	blank2r.bmp	573	2	eitel	866	1	!	1239	1	!	-1	0	0	0	0	0	0	0	0	0	0	0	0	0	0	0	0	0	0	0	0	0	0	0	0	0	0	0	0	0	0
072319	13:14:16	13:25:08	650840	5.0.10.0	5_exp_RW	999	Rpleas_acq	CS_B	BZZB	JXXJ	GWWG	VKKV	MQQM	YDDY	retten	schön	fair	spielen	ehrlich	treu	rächen	schlecht	faul	strafen	eitel	tot	1	acq_USunple_CSunple2_RW	acq4567_RW	6	9	400	1	300	300	350	46	0	1	1	blank2r.bmp	0	1	+	0	1	blank2r.bmp	492	1	VKKV	492	1	blank2r.bmp	577	1	strafen	866	1	!	1239	1	!	1252	0	0	0	0	0	0	0	0	0	0	0	0	0	0	0	0	0	0	0	0	0	0	0	0	0	0	0	0	0	0
072319	13:14:16	13:25:10	653052	5.0.10.0	5_exp_RW	999	Rpleas_acq	CS_B	BZZB	JXXJ	GWWG	VKKV	MQQM	YDDY	retten	schön	fair	spielen	ehrlich	treu	rächen	schlecht	faul	strafen	eitel	tot	1	acq_USunple_CSunple1_RW	acq4567_RW	6	10	400	1	300	300	414	46	0	1	1	blank2r.bmp	0	1	+	0	1	blank2r.bmp	493	1	GWWG	493	1	blank2r.bmp	573	1	rächen	866	1	!	1239	1	!	1319	0	0	0	0	0	0	0	0	0	0	0	0	0	0	0	0	0	0	0	0	0	0	0	0	0	0	0	0	0	0
072319	13:14:16	13:34:00	1182836	5.0.10.0	5_exp_RW	999	Rpleas_acq	CS_B	BZZB	JXXJ	GWWG	VKKV	MQQM	YDDY	retten	schön	fair	spielen	ehrlich	treu	rächen	schlecht	faul	strafen	eitel	tot	1	acq_USunple_CSunple1_RW	acq4567_RW	6	11	400	0	300	300	528010	Ctrl+'Q'	0	1	1	blank2r.bmp	0	1	+	0	1	blank2r.bmp	492	1	GWWG	492	1	blank2r.bmp	572	2	schlecht	866	1	!	1239	1	!	-1	0	0	0	0	0	0	0	0	0	0	0	0	0	0	0	0	0	0	0	0	0	0	0	0	0	0	0	0	0	0
