date	time	script.currenttime	script.elapsedtime	build	script.currentexpt	subject	expressions.LRpleas_acq	expressions.conditionCS_A	expressions.CSpleas_1	expressions.CSpleas_2	expressions.CSunple_1	expressions.CSunple_2	expressions.distractor_1	expressions.distractor_2	expressions.US_pleas1	expressions.US_pleas2	expressions.US_pleas3	expressions.US_pleas4	expressions.US_pleas5	expressions.US_pleas6	expressions.US_unple1	expressions.US_unple2	expressions.US_unple3	expressions.US_unple4	expressions.US_unple5	expressions.US_unple6	counter.positions_noRW	trialcode	blockcode	blocknum	trialnum	windowcenter	inwindow	pretrialpause	posttrialpause	latency	response	expressions.correctedscore	correct	stimulusnumber1	stimulusitem1	stimulusonset1	stimulusnumber2	stimulusitem2	stimulusonset2	stimulusnumber3	stimulusitem3	stimulusonset3	stimulusnumber4	stimulusitem4	stimulusonset4	stimulusnumber5	stimulusitem5	stimulusonset5	stimulusnumber6	stimulusitem6	stimulusonset6	stimulusnumber7	stimulusitem7	stimulusonset7	stimulusnumber8	stimulusitem8	stimulusonset8	stimulusnumber9	stimulusitem9	stimulusonset9	stimulusnumber10	stimulusitem10	stimulusonset10	stimulusnumber11	stimulusitem11	stimulusonset11	stimulusnumber12	stimulusitem12	stimulusonset12	stimulusnumber13	stimulusitem13	stimulusonset13	stimulusnumber14	stimulusitem14	stimulusonset14	stimulusnumber15	stimulusitem15	stimulusonset15	stimulusnumber16	stimulusitem16	stimulusonset16	stimulusnumber17	stimulusitem17	stimulusonset17	stimulusnumber18	stimulusitem18	stimulusonset18
082119	15:25:03	15:26:29	85711	5.0.10.0	5_exp_noRW	110	Rpleas_acq	CS_A	CPPC	JQQJ	ZHHZ	YFFY	LWWL	DXXD	küssen	gütig	sonnig	genießen	träumen	vertrauen	krank	gierig	sterben	gemein	töten	versagen	53pct	acq_USpleas_CSpleas2_noRW	acq1_noRW	1	1	0	0	300	300	2000	0	0	0	1	blank2r.bmp	0	1	+	0	1	blank2r.bmp	252	1	JQQJ	306	1	genießen	559	1	FEHLER	2598	1	Schneller!	2598	0	0	0	0	0	0	0	0	0	0	0	0	0	0	0	0	0	0	0	0	0	0	0	0	0	0	0	0	0	0	0	0	0
082119	15:25:03	15:26:33	89123	5.0.10.0	5_exp_noRW	110	Rpleas_acq	CS_A	CPPC	JQQJ	ZHHZ	YFFY	LWWL	DXXD	küssen	gütig	sonnig	genießen	träumen	vertrauen	krank	gierig	sterben	gemein	töten	versagen	47pct	acq_USpleas_CSpleas1_noRW	acq1_noRW	1	2	0	0	300	300	2000	0	0	0	1	blank2r.bmp	0	1	+	0	1	blank2r.bmp	252	1	CPPC	306	3	sonnig	559	1	FEHLER	2598	1	Schneller!	2598	0	0	0	0	0	0	0	0	0	0	0	0	0	0	0	0	0	0	0	0	0	0	0	0	0	0	0	0	0	0	0	0	0
082119	15:25:03	15:26:34	90429	5.0.10.0	5_exp_noRW	110	Rpleas_acq	CS_A	CPPC	JQQJ	ZHHZ	YFFY	LWWL	DXXD	küssen	gütig	sonnig	genießen	träumen	vertrauen	krank	gierig	sterben	gemein	töten	versagen	53pct	acq_USunple_CSunple2_noRW	acq1_noRW	1	3	0	0	300	300	196	50	0	0	1	blank2r.bmp	0	1	+	0	1	blank2r.bmp	252	1	YFFY	306	2	töten	559	1	FEHLER	786	0	0	0	0	0	0	0	0	0	0	0	0	0	0	0	0	0	0	0	0	0	0	0	0	0	0	0	0	0	0	0	0	0	0	0	0
082119	15:25:03	15:26:36	92188	5.0.10.0	5_exp_noRW	110	Rpleas_acq	CS_A	CPPC	JQQJ	ZHHZ	YFFY	LWWL	DXXD	küssen	gütig	sonnig	genießen	träumen	vertrauen	krank	gierig	sterben	gemein	töten	versagen	53pct	acq_USunple_CSpleas1_noRW	acq1_noRW	1	4	0	0	300	300	794	46	0	1	1	blank2r.bmp	0	1	+	0	1	blank2r.bmp	252	1	CPPC	306	2	gierig	559	0	0	0	0	0	0	0	0	0	0	0	0	0	0	0	0	0	0	0	0	0	0	0	0	0	0	0	0	0	0	0	0	0	0	0	0	0	0	0
082119	15:25:03	15:26:38	94241	5.0.10.0	5_exp_noRW	110	Rpleas_acq	CS_A	CPPC	JQQJ	ZHHZ	YFFY	LWWL	DXXD	küssen	gütig	sonnig	genießen	träumen	vertrauen	krank	gierig	sterben	gemein	töten	versagen	53pct	acq_USunple_CSunple2_noRW	acq1_noRW	1	5	0	0	300	300	868	46	0	1	1	blank2r.bmp	0	1	+	0	1	blank2r.bmp	252	1	YFFY	306	3	versagen	559	0	0	0	0	0	0	0	0	0	0	0	0	0	0	0	0	0	0	0	0	0	0	0	0	0	0	0	0	0	0	0	0	0	0	0	0	0	0	0
082119	15:25:03	15:26:40	96107	5.0.10.0	5_exp_noRW	110	Rpleas_acq	CS_A	CPPC	JQQJ	ZHHZ	YFFY	LWWL	DXXD	küssen	gütig	sonnig	genießen	träumen	vertrauen	krank	gierig	sterben	gemein	töten	versagen	47pct	acq_USunple_CSunple1_noRW	acq1_noRW	1	6	0	0	300	300	704	46	0	1	1	blank2r.bmp	0	1	+	0	1	blank2r.bmp	252	1	ZHHZ	306	2	gierig	559	0	0	0	0	0	0	0	0	0	0	0	0	0	0	0	0	0	0	0	0	0	0	0	0	0	0	0	0	0	0	0	0	0	0	0	0	0	0	0
082119	15:25:03	15:26:42	98199	5.0.10.0	5_exp_noRW	110	Rpleas_acq	CS_A	CPPC	JQQJ	ZHHZ	YFFY	LWWL	DXXD	küssen	gütig	sonnig	genießen	träumen	vertrauen	krank	gierig	sterben	gemein	töten	versagen	53pct	acq_USpleas_CSunple2_noRW	acq1_noRW	1	7	0	0	300	300	930	50	0	1	1	blank2r.bmp	0	1	+	0	1	blank2r.bmp	252	1	YFFY	306	3	vertrauen	559	0	0	0	0	0	0	0	0	0	0	0	0	0	0	0	0	0	0	0	0	0	0	0	0	0	0	0	0	0	0	0	0	0	0	0	0	0	0	0
082119	15:25:03	15:26:44	100012	5.0.10.0	5_exp_noRW	110	Rpleas_acq	CS_A	CPPC	JQQJ	ZHHZ	YFFY	LWWL	DXXD	küssen	gütig	sonnig	genießen	träumen	vertrauen	krank	gierig	sterben	gemein	töten	versagen	53pct	acq_USunple_CSunple1_noRW	acq1_noRW	1	8	0	0	300	300	637	46	0	1	1	blank2r.bmp	0	1	+	0	1	blank2r.bmp	252	1	ZHHZ	306	1	krank	559	0	0	0	0	0	0	0	0	0	0	0	0	0	0	0	0	0	0	0	0	0	0	0	0	0	0	0	0	0	0	0	0	0	0	0	0	0	0	0
082119	15:25:03	15:26:46	101944	5.0.10.0	5_exp_noRW	110	Rpleas_acq	CS_A	CPPC	JQQJ	ZHHZ	YFFY	LWWL	DXXD	küssen	gütig	sonnig	genießen	träumen	vertrauen	krank	gierig	sterben	gemein	töten	versagen	47pct	acq_USunple_CSunple1_noRW	acq1_noRW	1	9	0	0	300	300	745	46	0	1	1	blank2r.bmp	0	1	+	0	1	blank2r.bmp	252	1	ZHHZ	306	3	sterben	559	0	0	0	0	0	0	0	0	0	0	0	0	0	0	0	0	0	0	0	0	0	0	0	0	0	0	0	0	0	0	0	0	0	0	0	0	0	0	0
082119	15:25:03	15:26:48	103863	5.0.10.0	5_exp_noRW	110	Rpleas_acq	CS_A	CPPC	JQQJ	ZHHZ	YFFY	LWWL	DXXD	küssen	gütig	sonnig	genießen	träumen	vertrauen	krank	gierig	sterben	gemein	töten	versagen	53pct	acq_USunple_CSunple2_noRW	acq1_noRW	1	10	0	0	300	300	746	46	0	1	1	blank2r.bmp	0	1	+	0	1	blank2r.bmp	252	1	YFFY	306	1	gemein	559	0	0	0	0	0	0	0	0	0	0	0	0	0	0	0	0	0	0	0	0	0	0	0	0	0	0	0	0	0	0	0	0	0	0	0	0	0	0	0
082119	15:25:03	15:26:50	105916	5.0.10.0	5_exp_noRW	110	Rpleas_acq	CS_A	CPPC	JQQJ	ZHHZ	YFFY	LWWL	DXXD	küssen	gütig	sonnig	genießen	träumen	vertrauen	krank	gierig	sterben	gemein	töten	versagen	53pct	acq_USpleas_CSpleas2_noRW	acq1_noRW	1	11	0	0	300	300	887	50	0	1	1	blank2r.bmp	0	1	+	0	1	blank2r.bmp	252	1	JQQJ	306	3	vertrauen	559	0	0	0	0	0	0	0	0	0	0	0	0	0	0	0	0	0	0	0	0	0	0	0	0	0	0	0	0	0	0	0	0	0	0	0	0	0	0	0
082119	15:25:03	15:26:52	107968	5.0.10.0	5_exp_noRW	110	Rpleas_acq	CS_A	CPPC	JQQJ	ZHHZ	YFFY	LWWL	DXXD	küssen	gütig	sonnig	genießen	träumen	vertrauen	krank	gierig	sterben	gemein	töten	versagen	47pct	acq_USpleas_CSpleas2_noRW	acq1_noRW	1	12	0	0	300	300	877	50	0	1	1	blank2r.bmp	0	1	+	0	1	blank2r.bmp	252	1	JQQJ	306	2	träumen	559	0	0	0	0	0	0	0	0	0	0	0	0	0	0	0	0	0	0	0	0	0	0	0	0	0	0	0	0	0	0	0	0	0	0	0	0	0	0	0
082119	15:25:03	15:26:53	109834	5.0.10.0	5_exp_noRW	110	Rpleas_acq	CS_A	CPPC	JQQJ	ZHHZ	YFFY	LWWL	DXXD	küssen	gütig	sonnig	genießen	träumen	vertrauen	krank	gierig	sterben	gemein	töten	versagen	47pct	acq_USpleas_CSpleas1_noRW	acq1_noRW	1	13	0	0	300	300	690	50	0	1	1	blank2r.bmp	0	1	+	0	1	blank2r.bmp	252	1	CPPC	306	2	gütig	559	0	0	0	0	0	0	0	0	0	0	0	0	0	0	0	0	0	0	0	0	0	0	0	0	0	0	0	0	0	0	0	0	0	0	0	0	0	0	0
082119	15:25:03	15:26:55	111527	5.0.10.0	5_exp_noRW	110	Rpleas_acq	CS_A	CPPC	JQQJ	ZHHZ	YFFY	LWWL	DXXD	küssen	gütig	sonnig	genießen	träumen	vertrauen	krank	gierig	sterben	gemein	töten	versagen	53pct	acq_USunple_CSunple1_noRW	acq1_noRW	1	14	0	0	300	300	531	46	0	1	1	blank2r.bmp	0	1	+	0	1	blank2r.bmp	252	1	ZHHZ	306	3	sterben	559	0	0	0	0	0	0	0	0	0	0	0	0	0	0	0	0	0	0	0	0	0	0	0	0	0	0	0	0	0	0	0	0	0	0	0	0	0	0	0
082119	15:25:03	15:26:57	113406	5.0.10.0	5_exp_noRW	110	Rpleas_acq	CS_A	CPPC	JQQJ	ZHHZ	YFFY	LWWL	DXXD	küssen	gütig	sonnig	genießen	träumen	vertrauen	krank	gierig	sterben	gemein	töten	versagen	53pct	acq_USpleas_CSpleas2_noRW	acq1_noRW	1	15	0	0	300	300	704	50	0	1	1	blank2r.bmp	0	1	+	0	1	blank2r.bmp	252	1	JQQJ	306	3	vertrauen	559	0	0	0	0	0	0	0	0	0	0	0	0	0	0	0	0	0	0	0	0	0	0	0	0	0	0	0	0	0	0	0	0	0	0	0	0	0	0	0
082119	15:25:03	15:26:59	115192	5.0.10.0	5_exp_noRW	110	Rpleas_acq	CS_A	CPPC	JQQJ	ZHHZ	YFFY	LWWL	DXXD	küssen	gütig	sonnig	genießen	träumen	vertrauen	krank	gierig	sterben	gemein	töten	versagen	53pct	acq_USpleas_CSpleas1_noRW	acq1_noRW	1	16	0	0	300	300	605	50	0	1	1	blank2r.bmp	0	1	+	0	1	blank2r.bmp	252	1	CPPC	306	1	küssen	559	0	0	0	0	0	0	0	0	0	0	0	0	0	0	0	0	0	0	0	0	0	0	0	0	0	0	0	0	0	0	0	0	0	0	0	0	0	0	0
082119	15:25:03	15:27:01	117045	5.0.10.0	5_exp_noRW	110	Rpleas_acq	CS_A	CPPC	JQQJ	ZHHZ	YFFY	LWWL	DXXD	küssen	gütig	sonnig	genießen	träumen	vertrauen	krank	gierig	sterben	gemein	töten	versagen	47pct	acq_USpleas_CSpleas1_noRW	acq1_noRW	1	17	0	0	300	300	669	50	0	1	1	blank2r.bmp	0	1	+	0	1	blank2r.bmp	252	1	CPPC	306	2	gütig	559	0	0	0	0	0	0	0	0	0	0	0	0	0	0	0	0	0	0	0	0	0	0	0	0	0	0	0	0	0	0	0	0	0	0	0	0	0	0	0
082119	15:25:03	15:27:02	118844	5.0.10.0	5_exp_noRW	110	Rpleas_acq	CS_A	CPPC	JQQJ	ZHHZ	YFFY	LWWL	DXXD	küssen	gütig	sonnig	genießen	träumen	vertrauen	krank	gierig	sterben	gemein	töten	versagen	53pct	acq_USunple_CSunple2_noRW	acq1_noRW	1	18	0	0	300	300	634	46	0	1	1	blank2r.bmp	0	1	+	0	1	blank2r.bmp	252	1	YFFY	306	1	gemein	559	0	0	0	0	0	0	0	0	0	0	0	0	0	0	0	0	0	0	0	0	0	0	0	0	0	0	0	0	0	0	0	0	0	0	0	0	0	0	0
082119	15:25:03	15:27:05	120963	5.0.10.0	5_exp_noRW	110	Rpleas_acq	CS_A	CPPC	JQQJ	ZHHZ	YFFY	LWWL	DXXD	küssen	gütig	sonnig	genießen	träumen	vertrauen	krank	gierig	sterben	gemein	töten	versagen	53pct	acq_USunple_CSpleas2_noRW	acq1_noRW	1	19	0	0	300	300	937	46	0	1	1	blank2r.bmp	0	1	+	0	1	blank2r.bmp	252	1	JQQJ	306	3	versagen	559	0	0	0	0	0	0	0	0	0	0	0	0	0	0	0	0	0	0	0	0	0	0	0	0	0	0	0	0	0	0	0	0	0	0	0	0	0	0	0
082119	15:25:03	15:27:07	122922	5.0.10.0	5_exp_noRW	110	Rpleas_acq	CS_A	CPPC	JQQJ	ZHHZ	YFFY	LWWL	DXXD	küssen	gütig	sonnig	genießen	träumen	vertrauen	krank	gierig	sterben	gemein	töten	versagen	47pct	acq_USpleas_CSunple1_noRW	acq1_noRW	1	20	0	0	300	300	793	50	0	1	1	blank2r.bmp	0	1	+	0	1	blank2r.bmp	252	1	ZHHZ	306	3	sonnig	559	0	0	0	0	0	0	0	0	0	0	0	0	0	0	0	0	0	0	0	0	0	0	0	0	0	0	0	0	0	0	0	0	0	0	0	0	0	0	0
082119	15:25:03	15:27:08	124801	5.0.10.0	5_exp_noRW	110	Rpleas_acq	CS_A	CPPC	JQQJ	ZHHZ	YFFY	LWWL	DXXD	küssen	gütig	sonnig	genießen	träumen	vertrauen	krank	gierig	sterben	gemein	töten	versagen	47pct	acq_USunple_CSunple2_noRW	acq1_noRW	1	21	0	0	300	300	696	46	0	1	1	blank2r.bmp	0	1	+	0	1	blank2r.bmp	252	1	YFFY	306	3	versagen	559	0	0	0	0	0	0	0	0	0	0	0	0	0	0	0	0	0	0	0	0	0	0	0	0	0	0	0	0	0	0	0	0	0	0	0	0	0	0	0
082119	15:25:03	15:27:10	126694	5.0.10.0	5_exp_noRW	110	Rpleas_acq	CS_A	CPPC	JQQJ	ZHHZ	YFFY	LWWL	DXXD	küssen	gütig	sonnig	genießen	träumen	vertrauen	krank	gierig	sterben	gemein	töten	versagen	53pct	acq_USpleas_CSpleas1_noRW	acq1_noRW	1	22	0	0	300	300	730	50	0	1	1	blank2r.bmp	0	1	+	0	1	blank2r.bmp	252	1	CPPC	306	1	küssen	559	0	0	0	0	0	0	0	0	0	0	0	0	0	0	0	0	0	0	0	0	0	0	0	0	0	0	0	0	0	0	0	0	0	0	0	0	0	0	0
082119	15:25:03	15:27:12	128373	5.0.10.0	5_exp_noRW	110	Rpleas_acq	CS_A	CPPC	JQQJ	ZHHZ	YFFY	LWWL	DXXD	küssen	gütig	sonnig	genießen	träumen	vertrauen	krank	gierig	sterben	gemein	töten	versagen	53pct	acq_USunple_CSunple1_noRW	acq1_noRW	1	23	0	0	300	300	502	46	0	1	1	blank2r.bmp	0	1	+	0	1	blank2r.bmp	252	1	ZHHZ	306	1	krank	559	0	0	0	0	0	0	0	0	0	0	0	0	0	0	0	0	0	0	0	0	0	0	0	0	0	0	0	0	0	0	0	0	0	0	0	0	0	0	0
082119	15:25:03	15:27:14	130133	5.0.10.0	5_exp_noRW	110	Rpleas_acq	CS_A	CPPC	JQQJ	ZHHZ	YFFY	LWWL	DXXD	küssen	gütig	sonnig	genießen	träumen	vertrauen	krank	gierig	sterben	gemein	töten	versagen	53pct	acq_USpleas_CSpleas1_noRW	acq1_noRW	1	24	0	0	300	300	574	50	0	1	1	blank2r.bmp	0	1	+	0	1	blank2r.bmp	252	1	CPPC	306	3	sonnig	559	0	0	0	0	0	0	0	0	0	0	0	0	0	0	0	0	0	0	0	0	0	0	0	0	0	0	0	0	0	0	0	0	0	0	0	0	0	0	0
082119	15:25:03	15:27:16	131985	5.0.10.0	5_exp_noRW	110	Rpleas_acq	CS_A	CPPC	JQQJ	ZHHZ	YFFY	LWWL	DXXD	küssen	gütig	sonnig	genießen	träumen	vertrauen	krank	gierig	sterben	gemein	töten	versagen	53pct	acq_USunple_CSunple1_noRW	acq1_noRW	1	25	0	0	300	300	690	46	0	1	1	blank2r.bmp	0	1	+	0	1	blank2r.bmp	252	1	ZHHZ	306	2	gierig	559	0	0	0	0	0	0	0	0	0	0	0	0	0	0	0	0	0	0	0	0	0	0	0	0	0	0	0	0	0	0	0	0	0	0	0	0	0	0	0
082119	15:25:03	15:27:18	133984	5.0.10.0	5_exp_noRW	110	Rpleas_acq	CS_A	CPPC	JQQJ	ZHHZ	YFFY	LWWL	DXXD	küssen	gütig	sonnig	genießen	träumen	vertrauen	krank	gierig	sterben	gemein	töten	versagen	53pct	acq_USpleas_CSpleas2_noRW	acq1_noRW	1	26	0	0	300	300	816	50	0	1	1	blank2r.bmp	0	1	+	0	1	blank2r.bmp	252	1	JQQJ	306	2	träumen	559	0	0	0	0	0	0	0	0	0	0	0	0	0	0	0	0	0	0	0	0	0	0	0	0	0	0	0	0	0	0	0	0	0	0	0	0	0	0	0
082119	15:25:03	15:27:19	135664	5.0.10.0	5_exp_noRW	110	Rpleas_acq	CS_A	CPPC	JQQJ	ZHHZ	YFFY	LWWL	DXXD	küssen	gütig	sonnig	genießen	träumen	vertrauen	krank	gierig	sterben	gemein	töten	versagen	53pct	acq_USunple_CSunple1_noRW	acq1_noRW	1	27	0	0	300	300	517	46	0	1	1	blank2r.bmp	0	1	+	0	1	blank2r.bmp	252	1	ZHHZ	306	3	sterben	559	0	0	0	0	0	0	0	0	0	0	0	0	0	0	0	0	0	0	0	0	0	0	0	0	0	0	0	0	0	0	0	0	0	0	0	0	0	0	0
082119	15:25:03	15:27:21	137836	5.0.10.0	5_exp_noRW	110	Rpleas_acq	CS_A	CPPC	JQQJ	ZHHZ	YFFY	LWWL	DXXD	küssen	gütig	sonnig	genießen	träumen	vertrauen	krank	gierig	sterben	gemein	töten	versagen	47pct	acq_USpleas_CSpleas2_noRW	acq1_noRW	1	28	0	0	300	300	990	50	0	1	1	blank2r.bmp	0	1	+	0	1	blank2r.bmp	252	1	JQQJ	306	1	genießen	559	0	0	0	0	0	0	0	0	0	0	0	0	0	0	0	0	0	0	0	0	0	0	0	0	0	0	0	0	0	0	0	0	0	0	0	0	0	0	0
082119	15:25:03	15:27:23	139595	5.0.10.0	5_exp_noRW	110	Rpleas_acq	CS_A	CPPC	JQQJ	ZHHZ	YFFY	LWWL	DXXD	küssen	gütig	sonnig	genießen	träumen	vertrauen	krank	gierig	sterben	gemein	töten	versagen	47pct	acq_USunple_CSunple2_noRW	acq1_noRW	1	29	0	0	300	300	590	46	0	1	1	blank2r.bmp	0	1	+	0	1	blank2r.bmp	252	1	YFFY	306	2	töten	559	0	0	0	0	0	0	0	0	0	0	0	0	0	0	0	0	0	0	0	0	0	0	0	0	0	0	0	0	0	0	0	0	0	0	0	0	0	0	0
082119	15:25:03	15:27:25	141421	5.0.10.0	5_exp_noRW	110	Rpleas_acq	CS_A	CPPC	JQQJ	ZHHZ	YFFY	LWWL	DXXD	küssen	gütig	sonnig	genießen	träumen	vertrauen	krank	gierig	sterben	gemein	töten	versagen	53pct	acq_USpleas_CSunple1_noRW	acq1_noRW	1	30	0	0	300	300	639	50	0	1	1	blank2r.bmp	0	1	+	0	1	blank2r.bmp	252	1	ZHHZ	306	2	gütig	559	0	0	0	0	0	0	0	0	0	0	0	0	0	0	0	0	0	0	0	0	0	0	0	0	0	0	0	0	0	0	0	0	0	0	0	0	0	0	0
082119	15:25:03	15:27:27	143647	5.0.10.0	5_exp_noRW	110	Rpleas_acq	CS_A	CPPC	JQQJ	ZHHZ	YFFY	LWWL	DXXD	küssen	gütig	sonnig	genießen	träumen	vertrauen	krank	gierig	sterben	gemein	töten	versagen	47pct	acq_USpleas_CSpleas1_noRW	acq1_noRW	1	31	0	0	300	300	1043	50	0	1	1	blank2r.bmp	0	1	+	0	1	blank2r.bmp	252	1	CPPC	306	3	sonnig	559	0	0	0	0	0	0	0	0	0	0	0	0	0	0	0	0	0	0	0	0	0	0	0	0	0	0	0	0	0	0	0	0	0	0	0	0	0	0	0
082119	15:25:03	15:27:29	145433	5.0.10.0	5_exp_noRW	110	Rpleas_acq	CS_A	CPPC	JQQJ	ZHHZ	YFFY	LWWL	DXXD	küssen	gütig	sonnig	genießen	träumen	vertrauen	krank	gierig	sterben	gemein	töten	versagen	53pct	acq_USunple_CSpleas2_noRW	acq1_noRW	1	32	0	0	300	300	624	46	0	1	1	blank2r.bmp	0	1	+	0	1	blank2r.bmp	252	1	JQQJ	306	1	gemein	559	0	0	0	0	0	0	0	0	0	0	0	0	0	0	0	0	0	0	0	0	0	0	0	0	0	0	0	0	0	0	0	0	0	0	0	0	0	0	0
082119	15:25:03	15:27:31	147419	5.0.10.0	5_exp_noRW	110	Rpleas_acq	CS_A	CPPC	JQQJ	ZHHZ	YFFY	LWWL	DXXD	küssen	gütig	sonnig	genießen	träumen	vertrauen	krank	gierig	sterben	gemein	töten	versagen	47pct	acq_USunple_CSunple2_noRW	acq1_noRW	1	33	0	0	300	300	812	46	0	1	1	blank2r.bmp	0	1	+	0	1	blank2r.bmp	252	1	YFFY	306	3	versagen	559	0	0	0	0	0	0	0	0	0	0	0	0	0	0	0	0	0	0	0	0	0	0	0	0	0	0	0	0	0	0	0	0	0	0	0	0	0	0	0
082119	15:25:03	15:27:33	149298	5.0.10.0	5_exp_noRW	110	Rpleas_acq	CS_A	CPPC	JQQJ	ZHHZ	YFFY	LWWL	DXXD	küssen	gütig	sonnig	genießen	träumen	vertrauen	krank	gierig	sterben	gemein	töten	versagen	53pct	acq_USunple_CSpleas1_noRW	acq1_noRW	1	34	0	0	300	300	715	46	0	1	1	blank2r.bmp	0	1	+	0	1	blank2r.bmp	252	1	CPPC	306	3	sterben	559	0	0	0	0	0	0	0	0	0	0	0	0	0	0	0	0	0	0	0	0	0	0	0	0	0	0	0	0	0	0	0	0	0	0	0	0	0	0	0
082119	15:25:03	15:27:35	151164	5.0.10.0	5_exp_noRW	110	Rpleas_acq	CS_A	CPPC	JQQJ	ZHHZ	YFFY	LWWL	DXXD	küssen	gütig	sonnig	genießen	träumen	vertrauen	krank	gierig	sterben	gemein	töten	versagen	53pct	acq_USunple_CSunple2_noRW	acq1_noRW	1	35	0	0	300	300	684	46	0	1	1	blank2r.bmp	0	1	+	0	1	blank2r.bmp	252	1	YFFY	306	2	töten	559	0	0	0	0	0	0	0	0	0	0	0	0	0	0	0	0	0	0	0	0	0	0	0	0	0	0	0	0	0	0	0	0	0	0	0	0	0	0	0
082119	15:25:03	15:27:37	153057	5.0.10.0	5_exp_noRW	110	Rpleas_acq	CS_A	CPPC	JQQJ	ZHHZ	YFFY	LWWL	DXXD	küssen	gütig	sonnig	genießen	träumen	vertrauen	krank	gierig	sterben	gemein	töten	versagen	47pct	acq_USpleas_CSpleas2_noRW	acq1_noRW	1	36	0	0	300	300	730	50	0	1	1	blank2r.bmp	0	1	+	0	1	blank2r.bmp	252	1	JQQJ	306	2	träumen	559	0	0	0	0	0	0	0	0	0	0	0	0	0	0	0	0	0	0	0	0	0	0	0	0	0	0	0	0	0	0	0	0	0	0	0	0	0	0	0
082119	15:25:03	15:27:39	155269	5.0.10.0	5_exp_noRW	110	Rpleas_acq	CS_A	CPPC	JQQJ	ZHHZ	YFFY	LWWL	DXXD	küssen	gütig	sonnig	genießen	träumen	vertrauen	krank	gierig	sterben	gemein	töten	versagen	53pct	acq_USpleas_CSunple2_noRW	acq1_noRW	1	37	0	0	300	300	1037	50	0	1	1	blank2r.bmp	0	1	+	0	1	blank2r.bmp	252	1	YFFY	306	2	träumen	559	0	0	0	0	0	0	0	0	0	0	0	0	0	0	0	0	0	0	0	0	0	0	0	0	0	0	0	0	0	0	0	0	0	0	0	0	0	0	0
082119	15:25:03	15:27:41	156962	5.0.10.0	5_exp_noRW	110	Rpleas_acq	CS_A	CPPC	JQQJ	ZHHZ	YFFY	LWWL	DXXD	küssen	gütig	sonnig	genießen	träumen	vertrauen	krank	gierig	sterben	gemein	töten	versagen	53pct	acq_USpleas_CSpleas1_noRW	acq1_noRW	1	38	0	0	300	300	516	50	0	1	1	blank2r.bmp	0	1	+	0	1	blank2r.bmp	252	1	CPPC	306	1	küssen	559	0	0	0	0	0	0	0	0	0	0	0	0	0	0	0	0	0	0	0	0	0	0	0	0	0	0	0	0	0	0	0	0	0	0	0	0	0	0	0
082119	15:25:03	15:27:42	158681	5.0.10.0	5_exp_noRW	110	Rpleas_acq	CS_A	CPPC	JQQJ	ZHHZ	YFFY	LWWL	DXXD	küssen	gütig	sonnig	genießen	träumen	vertrauen	krank	gierig	sterben	gemein	töten	versagen	53pct	acq_USunple_CSunple1_noRW	acq1_noRW	1	39	0	0	300	300	551	46	0	1	1	blank2r.bmp	0	1	+	0	1	blank2r.bmp	252	1	ZHHZ	306	1	krank	559	0	0	0	0	0	0	0	0	0	0	0	0	0	0	0	0	0	0	0	0	0	0	0	0	0	0	0	0	0	0	0	0	0	0	0	0	0	0	0
082119	15:25:03	15:27:44	160654	5.0.10.0	5_exp_noRW	110	Rpleas_acq	CS_A	CPPC	JQQJ	ZHHZ	YFFY	LWWL	DXXD	küssen	gütig	sonnig	genießen	träumen	vertrauen	krank	gierig	sterben	gemein	töten	versagen	47pct	acq_USpleas_CSpleas2_noRW	acq1_noRW	1	40	0	0	300	300	808	50	0	1	1	blank2r.bmp	0	1	+	0	1	blank2r.bmp	252	1	JQQJ	306	3	vertrauen	559	0	0	0	0	0	0	0	0	0	0	0	0	0	0	0	0	0	0	0	0	0	0	0	0	0	0	0	0	0	0	0	0	0	0	0	0	0	0	0
082119	15:25:03	15:27:46	162399	5.0.10.0	5_exp_noRW	110	Rpleas_acq	CS_A	CPPC	JQQJ	ZHHZ	YFFY	LWWL	DXXD	küssen	gütig	sonnig	genießen	träumen	vertrauen	krank	gierig	sterben	gemein	töten	versagen	53pct	acq_USunple_CSunple2_noRW	acq1_noRW	1	41	0	0	300	300	568	46	0	1	1	blank2r.bmp	0	1	+	0	1	blank2r.bmp	252	1	YFFY	306	1	gemein	559	0	0	0	0	0	0	0	0	0	0	0	0	0	0	0	0	0	0	0	0	0	0	0	0	0	0	0	0	0	0	0	0	0	0	0	0	0	0	0
082119	15:25:03	15:27:48	164812	5.0.10.0	5_exp_noRW	110	Rpleas_acq	CS_A	CPPC	JQQJ	ZHHZ	YFFY	LWWL	DXXD	küssen	gütig	sonnig	genießen	träumen	vertrauen	krank	gierig	sterben	gemein	töten	versagen	47pct	acq_USunple_CSpleas1_noRW	acq1_noRW	1	42	0	0	300	300	1231	46	0	1	1	blank2r.bmp	0	1	+	0	1	blank2r.bmp	252	1	CPPC	306	1	krank	559	0	0	0	0	0	0	0	0	0	0	0	0	0	0	0	0	0	0	0	0	0	0	0	0	0	0	0	0	0	0	0	0	0	0	0	0	0	0	0
082119	15:25:03	15:27:51	167464	5.0.10.0	5_exp_noRW	110	Rpleas_acq	CS_A	CPPC	JQQJ	ZHHZ	YFFY	LWWL	DXXD	küssen	gütig	sonnig	genießen	träumen	vertrauen	krank	gierig	sterben	gemein	töten	versagen	47pct	acq_USunple_CSunple2_noRW	acq1_noRW	1	43	0	0	300	300	1489	46	0	1	1	blank2r.bmp	0	1	+	0	1	blank2r.bmp	252	1	YFFY	306	2	töten	559	0	0	0	0	0	0	0	0	0	0	0	0	0	0	0	0	0	0	0	0	0	0	0	0	0	0	0	0	0	0	0	0	0	0	0	0	0	0	0
082119	15:25:03	15:27:53	169263	5.0.10.0	5_exp_noRW	110	Rpleas_acq	CS_A	CPPC	JQQJ	ZHHZ	YFFY	LWWL	DXXD	küssen	gütig	sonnig	genießen	träumen	vertrauen	krank	gierig	sterben	gemein	töten	versagen	53pct	acq_USpleas_CSunple1_noRW	acq1_noRW	1	44	0	0	300	300	621	50	0	1	1	blank2r.bmp	0	1	+	0	1	blank2r.bmp	252	1	ZHHZ	306	1	küssen	559	0	0	0	0	0	0	0	0	0	0	0	0	0	0	0	0	0	0	0	0	0	0	0	0	0	0	0	0	0	0	0	0	0	0	0	0	0	0	0
082119	15:25:03	15:27:55	171262	5.0.10.0	5_exp_noRW	110	Rpleas_acq	CS_A	CPPC	JQQJ	ZHHZ	YFFY	LWWL	DXXD	küssen	gütig	sonnig	genießen	träumen	vertrauen	krank	gierig	sterben	gemein	töten	versagen	53pct	acq_USunple_CSunple2_noRW	acq1_noRW	1	45	0	0	300	300	816	46	0	1	1	blank2r.bmp	0	1	+	0	1	blank2r.bmp	252	1	YFFY	306	1	gemein	559	0	0	0	0	0	0	0	0	0	0	0	0	0	0	0	0	0	0	0	0	0	0	0	0	0	0	0	0	0	0	0	0	0	0	0	0	0	0	0
082119	15:25:03	15:27:57	173395	5.0.10.0	5_exp_noRW	110	Rpleas_acq	CS_A	CPPC	JQQJ	ZHHZ	YFFY	LWWL	DXXD	küssen	gütig	sonnig	genießen	träumen	vertrauen	krank	gierig	sterben	gemein	töten	versagen	53pct	acq_USunple_CSpleas2_noRW	acq1_noRW	1	46	0	0	300	300	949	46	0	1	1	blank2r.bmp	0	1	+	0	1	blank2r.bmp	252	1	JQQJ	306	2	töten	559	0	0	0	0	0	0	0	0	0	0	0	0	0	0	0	0	0	0	0	0	0	0	0	0	0	0	0	0	0	0	0	0	0	0	0	0	0	0	0
082119	15:25:03	15:27:59	175101	5.0.10.0	5_exp_noRW	110	Rpleas_acq	CS_A	CPPC	JQQJ	ZHHZ	YFFY	LWWL	DXXD	küssen	gütig	sonnig	genießen	träumen	vertrauen	krank	gierig	sterben	gemein	töten	versagen	53pct	acq_USpleas_CSpleas1_noRW	acq1_noRW	1	47	0	0	300	300	534	50	0	1	1	blank2r.bmp	0	1	+	0	1	blank2r.bmp	252	1	CPPC	306	2	gütig	559	0	0	0	0	0	0	0	0	0	0	0	0	0	0	0	0	0	0	0	0	0	0	0	0	0	0	0	0	0	0	0	0	0	0	0	0	0	0	0
082119	15:25:03	15:28:01	177140	5.0.10.0	5_exp_noRW	110	Rpleas_acq	CS_A	CPPC	JQQJ	ZHHZ	YFFY	LWWL	DXXD	küssen	gütig	sonnig	genießen	träumen	vertrauen	krank	gierig	sterben	gemein	töten	versagen	53pct	acq_USpleas_CSpleas1_noRW	acq1_noRW	1	48	0	0	300	300	857	50	0	1	1	blank2r.bmp	0	1	+	0	1	blank2r.bmp	252	1	CPPC	306	1	küssen	559	0	0	0	0	0	0	0	0	0	0	0	0	0	0	0	0	0	0	0	0	0	0	0	0	0	0	0	0	0	0	0	0	0	0	0	0	0	0	0
082119	15:25:03	15:28:03	179073	5.0.10.0	5_exp_noRW	110	Rpleas_acq	CS_A	CPPC	JQQJ	ZHHZ	YFFY	LWWL	DXXD	küssen	gütig	sonnig	genießen	träumen	vertrauen	krank	gierig	sterben	gemein	töten	versagen	53pct	acq_USunple_CSunple1_noRW	acq1_noRW	1	49	0	0	300	300	747	46	0	1	1	blank2r.bmp	0	1	+	0	1	blank2r.bmp	252	1	ZHHZ	306	2	gierig	559	0	0	0	0	0	0	0	0	0	0	0	0	0	0	0	0	0	0	0	0	0	0	0	0	0	0	0	0	0	0	0	0	0	0	0	0	0	0	0
082119	15:25:03	15:28:05	181258	5.0.10.0	5_exp_noRW	110	Rpleas_acq	CS_A	CPPC	JQQJ	ZHHZ	YFFY	LWWL	DXXD	küssen	gütig	sonnig	genießen	träumen	vertrauen	krank	gierig	sterben	gemein	töten	versagen	47pct	acq_USpleas_CSunple2_noRW	acq1_noRW	1	50	0	0	300	300	1024	50	0	1	1	blank2r.bmp	0	1	+	0	1	blank2r.bmp	252	1	YFFY	306	1	genießen	559	0	0	0	0	0	0	0	0	0	0	0	0	0	0	0	0	0	0	0	0	0	0	0	0	0	0	0	0	0	0	0	0	0	0	0	0	0	0	0
082119	15:25:03	15:28:07	182964	5.0.10.0	5_exp_noRW	110	Rpleas_acq	CS_A	CPPC	JQQJ	ZHHZ	YFFY	LWWL	DXXD	küssen	gütig	sonnig	genießen	träumen	vertrauen	krank	gierig	sterben	gemein	töten	versagen	53pct	acq_USpleas_CSpleas2_noRW	acq1_noRW	1	51	0	0	300	300	530	50	0	1	1	blank2r.bmp	0	1	+	0	1	blank2r.bmp	252	1	JQQJ	306	1	genießen	559	0	0	0	0	0	0	0	0	0	0	0	0	0	0	0	0	0	0	0	0	0	0	0	0	0	0	0	0	0	0	0	0	0	0	0	0	0	0	0
082119	15:25:03	15:28:08	184724	5.0.10.0	5_exp_noRW	110	Rpleas_acq	CS_A	CPPC	JQQJ	ZHHZ	YFFY	LWWL	DXXD	küssen	gütig	sonnig	genießen	träumen	vertrauen	krank	gierig	sterben	gemein	töten	versagen	47pct	acq_USpleas_CSpleas2_noRW	acq1_noRW	1	52	0	0	300	300	577	50	0	1	1	blank2r.bmp	0	1	+	0	1	blank2r.bmp	252	1	JQQJ	306	3	vertrauen	559	0	0	0	0	0	0	0	0	0	0	0	0	0	0	0	0	0	0	0	0	0	0	0	0	0	0	0	0	0	0	0	0	0	0	0	0	0	0	0
082119	15:25:03	15:28:10	186510	5.0.10.0	5_exp_noRW	110	Rpleas_acq	CS_A	CPPC	JQQJ	ZHHZ	YFFY	LWWL	DXXD	küssen	gütig	sonnig	genießen	träumen	vertrauen	krank	gierig	sterben	gemein	töten	versagen	47pct	acq_USpleas_CSpleas1_noRW	acq1_noRW	1	53	0	0	300	300	599	50	0	1	1	blank2r.bmp	0	1	+	0	1	blank2r.bmp	252	1	CPPC	306	3	sonnig	559	0	0	0	0	0	0	0	0	0	0	0	0	0	0	0	0	0	0	0	0	0	0	0	0	0	0	0	0	0	0	0	0	0	0	0	0	0	0	0
082119	15:25:03	15:28:12	188256	5.0.10.0	5_exp_noRW	110	Rpleas_acq	CS_A	CPPC	JQQJ	ZHHZ	YFFY	LWWL	DXXD	küssen	gütig	sonnig	genießen	träumen	vertrauen	krank	gierig	sterben	gemein	töten	versagen	53pct	acq_USunple_CSunple1_noRW	acq1_noRW	1	54	0	0	300	300	581	46	0	1	1	blank2r.bmp	0	1	+	0	1	blank2r.bmp	252	1	ZHHZ	306	3	sterben	559	0	0	0	0	0	0	0	0	0	0	0	0	0	0	0	0	0	0	0	0	0	0	0	0	0	0	0	0	0	0	0	0	0	0	0	0	0	0	0
082119	15:25:03	15:28:14	190228	5.0.10.0	5_exp_noRW	110	Rpleas_acq	CS_A	CPPC	JQQJ	ZHHZ	YFFY	LWWL	DXXD	küssen	gütig	sonnig	genießen	träumen	vertrauen	krank	gierig	sterben	gemein	töten	versagen	47pct	acq_USpleas_CSpleas2_noRW	acq1_noRW	1	55	0	0	300	300	810	50	0	1	1	blank2r.bmp	0	1	+	0	1	blank2r.bmp	252	1	JQQJ	306	1	genießen	559	0	0	0	0	0	0	0	0	0	0	0	0	0	0	0	0	0	0	0	0	0	0	0	0	0	0	0	0	0	0	0	0	0	0	0	0	0	0	0
082119	15:25:03	15:28:16	192001	5.0.10.0	5_exp_noRW	110	Rpleas_acq	CS_A	CPPC	JQQJ	ZHHZ	YFFY	LWWL	DXXD	küssen	gütig	sonnig	genießen	träumen	vertrauen	krank	gierig	sterben	gemein	töten	versagen	53pct	acq_USunple_CSunple1_noRW	acq1_noRW	1	56	0	0	300	300	591	46	0	1	1	blank2r.bmp	0	1	+	0	1	blank2r.bmp	252	1	ZHHZ	306	2	gierig	559	0	0	0	0	0	0	0	0	0	0	0	0	0	0	0	0	0	0	0	0	0	0	0	0	0	0	0	0	0	0	0	0	0	0	0	0	0	0	0
082119	15:25:03	15:28:17	193813	5.0.10.0	5_exp_noRW	110	Rpleas_acq	CS_A	CPPC	JQQJ	ZHHZ	YFFY	LWWL	DXXD	küssen	gütig	sonnig	genießen	träumen	vertrauen	krank	gierig	sterben	gemein	töten	versagen	53pct	acq_USpleas_CSpleas2_noRW	acq1_noRW	1	57	0	0	300	300	640	50	0	1	1	blank2r.bmp	0	1	+	0	1	blank2r.bmp	252	1	JQQJ	306	2	träumen	559	0	0	0	0	0	0	0	0	0	0	0	0	0	0	0	0	0	0	0	0	0	0	0	0	0	0	0	0	0	0	0	0	0	0	0	0	0	0	0
082119	15:25:03	15:28:19	195506	5.0.10.0	5_exp_noRW	110	Rpleas_acq	CS_A	CPPC	JQQJ	ZHHZ	YFFY	LWWL	DXXD	küssen	gütig	sonnig	genießen	träumen	vertrauen	krank	gierig	sterben	gemein	töten	versagen	53pct	acq_USpleas_CSpleas1_noRW	acq1_noRW	1	58	0	0	300	300	526	50	0	1	1	blank2r.bmp	0	1	+	0	1	blank2r.bmp	252	1	CPPC	306	2	gütig	559	0	0	0	0	0	0	0	0	0	0	0	0	0	0	0	0	0	0	0	0	0	0	0	0	0	0	0	0	0	0	0	0	0	0	0	0	0	0	0
082119	15:25:03	15:28:21	197652	5.0.10.0	5_exp_noRW	110	Rpleas_acq	CS_A	CPPC	JQQJ	ZHHZ	YFFY	LWWL	DXXD	küssen	gütig	sonnig	genießen	träumen	vertrauen	krank	gierig	sterben	gemein	töten	versagen	47pct	acq_USunple_CSunple2_noRW	acq1_noRW	1	59	0	0	300	300	967	46	0	1	1	blank2r.bmp	0	1	+	0	1	blank2r.bmp	252	1	YFFY	306	3	versagen	559	0	0	0	0	0	0	0	0	0	0	0	0	0	0	0	0	0	0	0	0	0	0	0	0	0	0	0	0	0	0	0	0	0	0	0	0	0	0	0
082119	15:25:03	15:28:23	199398	5.0.10.0	5_exp_noRW	110	Rpleas_acq	CS_A	CPPC	JQQJ	ZHHZ	YFFY	LWWL	DXXD	küssen	gütig	sonnig	genießen	träumen	vertrauen	krank	gierig	sterben	gemein	töten	versagen	47pct	acq_USunple_CSunple1_noRW	acq1_noRW	1	60	0	0	300	300	561	46	0	1	1	blank2r.bmp	0	1	+	0	1	blank2r.bmp	252	1	ZHHZ	306	1	krank	559	0	0	0	0	0	0	0	0	0	0	0	0	0	0	0	0	0	0	0	0	0	0	0	0	0	0	0	0	0	0	0	0	0	0	0	0	0	0	0
082119	15:25:03	15:28:25	201250	5.0.10.0	5_exp_noRW	110	Rpleas_acq	CS_A	CPPC	JQQJ	ZHHZ	YFFY	LWWL	DXXD	küssen	gütig	sonnig	genießen	träumen	vertrauen	krank	gierig	sterben	gemein	töten	versagen	47pct	acq_USpleas_CSpleas1_noRW	acq1_noRW	1	61	0	0	300	300	686	50	0	1	1	blank2r.bmp	0	1	+	0	1	blank2r.bmp	252	1	CPPC	306	2	gütig	559	0	0	0	0	0	0	0	0	0	0	0	0	0	0	0	0	0	0	0	0	0	0	0	0	0	0	0	0	0	0	0	0	0	0	0	0	0	0	0
082119	15:25:03	15:28:27	203089	5.0.10.0	5_exp_noRW	110	Rpleas_acq	CS_A	CPPC	JQQJ	ZHHZ	YFFY	LWWL	DXXD	küssen	gütig	sonnig	genießen	träumen	vertrauen	krank	gierig	sterben	gemein	töten	versagen	47pct	acq_USunple_CSunple1_noRW	acq1_noRW	1	62	0	0	300	300	673	46	0	1	1	blank2r.bmp	0	1	+	0	1	blank2r.bmp	252	1	ZHHZ	306	1	krank	559	0	0	0	0	0	0	0	0	0	0	0	0	0	0	0	0	0	0	0	0	0	0	0	0	0	0	0	0	0	0	0	0	0	0	0	0	0	0	0
082119	15:25:03	15:28:28	204795	5.0.10.0	5_exp_noRW	110	Rpleas_acq	CS_A	CPPC	JQQJ	ZHHZ	YFFY	LWWL	DXXD	küssen	gütig	sonnig	genießen	träumen	vertrauen	krank	gierig	sterben	gemein	töten	versagen	53pct	acq_USpleas_CSpleas2_noRW	acq1_noRW	1	63	0	0	300	300	527	50	0	1	1	blank2r.bmp	0	1	+	0	1	blank2r.bmp	252	1	JQQJ	306	1	genießen	559	0	0	0	0	0	0	0	0	0	0	0	0	0	0	0	0	0	0	0	0	0	0	0	0	0	0	0	0	0	0	0	0	0	0	0	0	0	0	0
082119	15:25:03	15:28:30	206541	5.0.10.0	5_exp_noRW	110	Rpleas_acq	CS_A	CPPC	JQQJ	ZHHZ	YFFY	LWWL	DXXD	küssen	gütig	sonnig	genießen	träumen	vertrauen	krank	gierig	sterben	gemein	töten	versagen	53pct	acq_USunple_CSpleas1_noRW	acq1_noRW	1	64	0	0	300	300	566	46	0	1	1	blank2r.bmp	0	1	+	0	1	blank2r.bmp	252	1	CPPC	306	1	krank	559	0	0	0	0	0	0	0	0	0	0	0	0	0	0	0	0	0	0	0	0	0	0	0	0	0	0	0	0	0	0	0	0	0	0	0	0	0	0	0
082119	15:25:03	15:28:32	208394	5.0.10.0	5_exp_noRW	110	Rpleas_acq	CS_A	CPPC	JQQJ	ZHHZ	YFFY	LWWL	DXXD	küssen	gütig	sonnig	genießen	träumen	vertrauen	krank	gierig	sterben	gemein	töten	versagen	53pct	acq_USunple_CSpleas2_noRW	acq1_noRW	1	65	0	0	300	300	683	46	0	1	1	blank2r.bmp	0	1	+	0	1	blank2r.bmp	252	1	JQQJ	306	1	gemein	559	0	0	0	0	0	0	0	0	0	0	0	0	0	0	0	0	0	0	0	0	0	0	0	0	0	0	0	0	0	0	0	0	0	0	0	0	0	0	0
082119	15:25:03	15:28:34	210353	5.0.10.0	5_exp_noRW	110	Rpleas_acq	CS_A	CPPC	JQQJ	ZHHZ	YFFY	LWWL	DXXD	küssen	gütig	sonnig	genießen	träumen	vertrauen	krank	gierig	sterben	gemein	töten	versagen	53pct	acq_USunple_CSunple1_noRW	acq1_noRW	1	66	0	0	300	300	779	46	0	1	1	blank2r.bmp	0	1	+	0	1	blank2r.bmp	252	1	ZHHZ	306	2	gierig	559	0	0	0	0	0	0	0	0	0	0	0	0	0	0	0	0	0	0	0	0	0	0	0	0	0	0	0	0	0	0	0	0	0	0	0	0	0	0	0
082119	15:25:03	15:28:36	212099	5.0.10.0	5_exp_noRW	110	Rpleas_acq	CS_A	CPPC	JQQJ	ZHHZ	YFFY	LWWL	DXXD	küssen	gütig	sonnig	genießen	träumen	vertrauen	krank	gierig	sterben	gemein	töten	versagen	47pct	acq_USunple_CSunple1_noRW	acq1_noRW	1	67	0	0	300	300	570	46	0	1	1	blank2r.bmp	0	1	+	0	1	blank2r.bmp	252	1	ZHHZ	306	3	sterben	559	0	0	0	0	0	0	0	0	0	0	0	0	0	0	0	0	0	0	0	0	0	0	0	0	0	0	0	0	0	0	0	0	0	0	0	0	0	0	0
082119	15:25:03	15:28:38	213898	5.0.10.0	5_exp_noRW	110	Rpleas_acq	CS_A	CPPC	JQQJ	ZHHZ	YFFY	LWWL	DXXD	küssen	gütig	sonnig	genießen	träumen	vertrauen	krank	gierig	sterben	gemein	töten	versagen	47pct	acq_USunple_CSunple1_noRW	acq1_noRW	1	68	0	0	300	300	613	46	0	1	1	blank2r.bmp	0	1	+	0	1	blank2r.bmp	252	1	ZHHZ	306	1	krank	559	0	0	0	0	0	0	0	0	0	0	0	0	0	0	0	0	0	0	0	0	0	0	0	0	0	0	0	0	0	0	0	0	0	0	0	0	0	0	0
082119	15:25:03	15:28:39	215644	5.0.10.0	5_exp_noRW	110	Rpleas_acq	CS_A	CPPC	JQQJ	ZHHZ	YFFY	LWWL	DXXD	küssen	gütig	sonnig	genießen	träumen	vertrauen	krank	gierig	sterben	gemein	töten	versagen	47pct	acq_USpleas_CSpleas2_noRW	acq1_noRW	1	69	0	0	300	300	566	50	0	1	1	blank2r.bmp	0	1	+	0	1	blank2r.bmp	252	1	JQQJ	306	2	träumen	559	0	0	0	0	0	0	0	0	0	0	0	0	0	0	0	0	0	0	0	0	0	0	0	0	0	0	0	0	0	0	0	0	0	0	0	0	0	0	0
082119	15:25:03	15:28:41	217377	5.0.10.0	5_exp_noRW	110	Rpleas_acq	CS_A	CPPC	JQQJ	ZHHZ	YFFY	LWWL	DXXD	küssen	gütig	sonnig	genießen	träumen	vertrauen	krank	gierig	sterben	gemein	töten	versagen	53pct	acq_USpleas_CSpleas1_noRW	acq1_noRW	1	70	0	0	300	300	553	50	0	1	1	blank2r.bmp	0	1	+	0	1	blank2r.bmp	252	1	CPPC	306	1	küssen	559	0	0	0	0	0	0	0	0	0	0	0	0	0	0	0	0	0	0	0	0	0	0	0	0	0	0	0	0	0	0	0	0	0	0	0	0	0	0	0
082119	15:25:03	15:28:43	219030	5.0.10.0	5_exp_noRW	110	Rpleas_acq	CS_A	CPPC	JQQJ	ZHHZ	YFFY	LWWL	DXXD	küssen	gütig	sonnig	genießen	träumen	vertrauen	krank	gierig	sterben	gemein	töten	versagen	47pct	acq_USunple_CSunple2_noRW	acq1_noRW	1	71	0	0	300	300	476	46	0	1	1	blank2r.bmp	0	1	+	0	1	blank2r.bmp	252	1	YFFY	306	1	gemein	559	0	0	0	0	0	0	0	0	0	0	0	0	0	0	0	0	0	0	0	0	0	0	0	0	0	0	0	0	0	0	0	0	0	0	0	0	0	0	0
082119	15:25:03	15:28:45	220896	5.0.10.0	5_exp_noRW	110	Rpleas_acq	CS_A	CPPC	JQQJ	ZHHZ	YFFY	LWWL	DXXD	küssen	gütig	sonnig	genießen	träumen	vertrauen	krank	gierig	sterben	gemein	töten	versagen	53pct	acq_USunple_CSunple2_noRW	acq1_noRW	1	72	0	0	300	300	680	46	0	1	1	blank2r.bmp	0	1	+	0	1	blank2r.bmp	252	1	YFFY	306	3	versagen	559	0	0	0	0	0	0	0	0	0	0	0	0	0	0	0	0	0	0	0	0	0	0	0	0	0	0	0	0	0	0	0	0	0	0	0	0	0	0	0
082119	15:25:03	15:28:46	222641	5.0.10.0	5_exp_noRW	110	Rpleas_acq	CS_A	CPPC	JQQJ	ZHHZ	YFFY	LWWL	DXXD	küssen	gütig	sonnig	genießen	träumen	vertrauen	krank	gierig	sterben	gemein	töten	versagen	53pct	acq_USunple_CSunple2_noRW	acq1_noRW	1	73	0	0	300	300	578	46	0	1	1	blank2r.bmp	0	1	+	0	1	blank2r.bmp	252	1	YFFY	306	2	töten	559	0	0	0	0	0	0	0	0	0	0	0	0	0	0	0	0	0	0	0	0	0	0	0	0	0	0	0	0	0	0	0	0	0	0	0	0	0	0	0
082119	15:25:03	15:28:48	224267	5.0.10.0	5_exp_noRW	110	Rpleas_acq	CS_A	CPPC	JQQJ	ZHHZ	YFFY	LWWL	DXXD	küssen	gütig	sonnig	genießen	träumen	vertrauen	krank	gierig	sterben	gemein	töten	versagen	47pct	acq_USunple_CSunple2_noRW	acq1_noRW	1	74	0	0	300	300	455	46	0	1	1	blank2r.bmp	0	1	+	0	1	blank2r.bmp	252	1	YFFY	306	2	töten	559	0	0	0	0	0	0	0	0	0	0	0	0	0	0	0	0	0	0	0	0	0	0	0	0	0	0	0	0	0	0	0	0	0	0	0	0	0	0	0
082119	15:25:03	15:28:50	226013	5.0.10.0	5_exp_noRW	110	Rpleas_acq	CS_A	CPPC	JQQJ	ZHHZ	YFFY	LWWL	DXXD	küssen	gütig	sonnig	genießen	träumen	vertrauen	krank	gierig	sterben	gemein	töten	versagen	53pct	acq_USpleas_CSpleas2_noRW	acq1_noRW	1	75	0	0	300	300	577	50	0	1	1	blank2r.bmp	0	1	+	0	1	blank2r.bmp	252	1	JQQJ	306	3	vertrauen	559	0	0	0	0	0	0	0	0	0	0	0	0	0	0	0	0	0	0	0	0	0	0	0	0	0	0	0	0	0	0	0	0	0	0	0	0	0	0	0
082119	15:25:03	15:28:51	227746	5.0.10.0	5_exp_noRW	110	Rpleas_acq	CS_A	CPPC	JQQJ	ZHHZ	YFFY	LWWL	DXXD	küssen	gütig	sonnig	genießen	träumen	vertrauen	krank	gierig	sterben	gemein	töten	versagen	53pct	acq_USpleas_CSunple1_noRW	acq1_noRW	1	76	0	0	300	300	558	50	0	1	1	blank2r.bmp	0	1	+	0	1	blank2r.bmp	252	1	ZHHZ	306	1	küssen	559	0	0	0	0	0	0	0	0	0	0	0	0	0	0	0	0	0	0	0	0	0	0	0	0	0	0	0	0	0	0	0	0	0	0	0	0	0	0	0
082119	15:25:03	15:28:53	229559	5.0.10.0	5_exp_noRW	110	Rpleas_acq	CS_A	CPPC	JQQJ	ZHHZ	YFFY	LWWL	DXXD	küssen	gütig	sonnig	genießen	träumen	vertrauen	krank	gierig	sterben	gemein	töten	versagen	53pct	acq_USpleas_CSpleas1_noRW	acq1_noRW	1	77	0	0	300	300	642	50	0	1	1	blank2r.bmp	0	1	+	0	1	blank2r.bmp	252	1	CPPC	306	3	sonnig	559	0	0	0	0	0	0	0	0	0	0	0	0	0	0	0	0	0	0	0	0	0	0	0	0	0	0	0	0	0	0	0	0	0	0	0	0	0	0	0
082119	15:25:03	15:28:55	231278	5.0.10.0	5_exp_noRW	110	Rpleas_acq	CS_A	CPPC	JQQJ	ZHHZ	YFFY	LWWL	DXXD	küssen	gütig	sonnig	genießen	träumen	vertrauen	krank	gierig	sterben	gemein	töten	versagen	53pct	acq_USpleas_CSunple2_noRW	acq1_noRW	1	78	0	0	300	300	534	50	0	1	1	blank2r.bmp	0	1	+	0	1	blank2r.bmp	252	1	YFFY	306	1	genießen	559	0	0	0	0	0	0	0	0	0	0	0	0	0	0	0	0	0	0	0	0	0	0	0	0	0	0	0	0	0	0	0	0	0	0	0	0	0	0	0
082119	15:25:03	15:28:57	233037	5.0.10.0	5_exp_noRW	110	Rpleas_acq	CS_A	CPPC	JQQJ	ZHHZ	YFFY	LWWL	DXXD	küssen	gütig	sonnig	genießen	träumen	vertrauen	krank	gierig	sterben	gemein	töten	versagen	53pct	acq_USpleas_CSpleas2_noRW	acq1_noRW	1	79	0	0	300	300	582	50	0	1	1	blank2r.bmp	0	1	+	0	1	blank2r.bmp	252	1	JQQJ	306	2	träumen	559	0	0	0	0	0	0	0	0	0	0	0	0	0	0	0	0	0	0	0	0	0	0	0	0	0	0	0	0	0	0	0	0	0	0	0	0	0	0	0
082119	15:25:03	15:28:58	234796	5.0.10.0	5_exp_noRW	110	Rpleas_acq	CS_A	CPPC	JQQJ	ZHHZ	YFFY	LWWL	DXXD	küssen	gütig	sonnig	genießen	träumen	vertrauen	krank	gierig	sterben	gemein	töten	versagen	47pct	acq_USpleas_CSpleas1_noRW	acq1_noRW	1	80	0	0	300	300	574	50	0	1	1	blank2r.bmp	0	1	+	0	1	blank2r.bmp	252	1	CPPC	306	3	sonnig	559	0	0	0	0	0	0	0	0	0	0	0	0	0	0	0	0	0	0	0	0	0	0	0	0	0	0	0	0	0	0	0	0	0	0	0	0	0	0	0
082119	15:25:03	15:29:09	245406	5.0.10.0	5_exp_noRW	110	Rpleas_acq	CS_A	CPPC	JQQJ	ZHHZ	YFFY	LWWL	DXXD	küssen	gütig	sonnig	genießen	träumen	vertrauen	krank	gierig	sterben	gemein	töten	versagen	47pct	acq_USpleas_CSpleas1_noRW	acq23456_noRW	2	1	0	0	300	300	632	50	0	1	1	blank2r.bmp	0	1	+	0	1	blank2r.bmp	252	1	CPPC	306	1	küssen	559	0	0	0	0	0	0	0	0	0	0	0	0	0	0	0	0	0	0	0	0	0	0	0	0	0	0	0	0	0	0	0	0	0	0	0	0	0	0	0
082119	15:25:03	15:29:11	247298	5.0.10.0	5_exp_noRW	110	Rpleas_acq	CS_A	CPPC	JQQJ	ZHHZ	YFFY	LWWL	DXXD	küssen	gütig	sonnig	genießen	träumen	vertrauen	krank	gierig	sterben	gemein	töten	versagen	53pct	acq_USunple_CSunple1_noRW	acq23456_noRW	2	2	0	0	300	300	711	46	0	1	1	blank2r.bmp	0	1	+	0	1	blank2r.bmp	252	1	ZHHZ	306	3	sterben	559	0	0	0	0	0	0	0	0	0	0	0	0	0	0	0	0	0	0	0	0	0	0	0	0	0	0	0	0	0	0	0	0	0	0	0	0	0	0	0
082119	15:25:03	15:29:13	249124	5.0.10.0	5_exp_noRW	110	Rpleas_acq	CS_A	CPPC	JQQJ	ZHHZ	YFFY	LWWL	DXXD	küssen	gütig	sonnig	genießen	träumen	vertrauen	krank	gierig	sterben	gemein	töten	versagen	47pct	acq_USpleas_CSpleas2_noRW	acq23456_noRW	2	3	0	0	300	300	640	50	0	1	1	blank2r.bmp	0	1	+	0	1	blank2r.bmp	252	1	JQQJ	306	3	vertrauen	559	0	0	0	0	0	0	0	0	0	0	0	0	0	0	0	0	0	0	0	0	0	0	0	0	0	0	0	0	0	0	0	0	0	0	0	0	0	0	0
082119	15:25:03	15:29:15	251470	5.0.10.0	5_exp_noRW	110	Rpleas_acq	CS_A	CPPC	JQQJ	ZHHZ	YFFY	LWWL	DXXD	küssen	gütig	sonnig	genießen	träumen	vertrauen	krank	gierig	sterben	gemein	töten	versagen	53pct	acq_USunple_CSunple2_noRW	acq23456_noRW	2	4	0	0	300	300	1161	46	0	1	1	blank2r.bmp	0	1	+	0	1	blank2r.bmp	252	1	YFFY	306	3	versagen	559	0	0	0	0	0	0	0	0	0	0	0	0	0	0	0	0	0	0	0	0	0	0	0	0	0	0	0	0	0	0	0	0	0	0	0	0	0	0	0
082119	15:25:03	15:29:17	253336	5.0.10.0	5_exp_noRW	110	Rpleas_acq	CS_A	CPPC	JQQJ	ZHHZ	YFFY	LWWL	DXXD	küssen	gütig	sonnig	genießen	träumen	vertrauen	krank	gierig	sterben	gemein	töten	versagen	47pct	acq_USpleas_CSpleas2_noRW	acq23456_noRW	2	5	0	0	300	300	701	50	0	1	1	blank2r.bmp	0	1	+	0	1	blank2r.bmp	252	1	JQQJ	306	1	genießen	559	0	0	0	0	0	0	0	0	0	0	0	0	0	0	0	0	0	0	0	0	0	0	0	0	0	0	0	0	0	0	0	0	0	0	0	0	0	0	0
082119	15:25:03	15:29:19	255108	5.0.10.0	5_exp_noRW	110	Rpleas_acq	CS_A	CPPC	JQQJ	ZHHZ	YFFY	LWWL	DXXD	küssen	gütig	sonnig	genießen	träumen	vertrauen	krank	gierig	sterben	gemein	töten	versagen	53pct	acq_USunple_CSunple1_noRW	acq23456_noRW	2	6	0	0	300	300	592	46	0	1	1	blank2r.bmp	0	1	+	0	1	blank2r.bmp	252	1	ZHHZ	306	2	gierig	559	0	0	0	0	0	0	0	0	0	0	0	0	0	0	0	0	0	0	0	0	0	0	0	0	0	0	0	0	0	0	0	0	0	0	0	0	0	0	0
082119	15:25:03	15:29:21	256867	5.0.10.0	5_exp_noRW	110	Rpleas_acq	CS_A	CPPC	JQQJ	ZHHZ	YFFY	LWWL	DXXD	küssen	gütig	sonnig	genießen	träumen	vertrauen	krank	gierig	sterben	gemein	töten	versagen	53pct	acq_USunple_CSunple1_noRW	acq23456_noRW	2	7	0	0	300	300	575	46	0	1	1	blank2r.bmp	0	1	+	0	1	blank2r.bmp	252	1	ZHHZ	306	1	krank	559	0	0	0	0	0	0	0	0	0	0	0	0	0	0	0	0	0	0	0	0	0	0	0	0	0	0	0	0	0	0	0	0	0	0	0	0	0	0	0
082119	15:25:03	15:29:22	258667	5.0.10.0	5_exp_noRW	110	Rpleas_acq	CS_A	CPPC	JQQJ	ZHHZ	YFFY	LWWL	DXXD	küssen	gütig	sonnig	genießen	träumen	vertrauen	krank	gierig	sterben	gemein	töten	versagen	47pct	acq_USpleas_CSunple2_noRW	acq23456_noRW	2	8	0	0	300	300	637	50	0	1	1	blank2r.bmp	0	1	+	0	1	blank2r.bmp	252	1	YFFY	306	2	träumen	559	0	0	0	0	0	0	0	0	0	0	0	0	0	0	0	0	0	0	0	0	0	0	0	0	0	0	0	0	0	0	0	0	0	0	0	0	0	0	0
082119	15:25:03	15:29:24	260399	5.0.10.0	5_exp_noRW	110	Rpleas_acq	CS_A	CPPC	JQQJ	ZHHZ	YFFY	LWWL	DXXD	küssen	gütig	sonnig	genießen	träumen	vertrauen	krank	gierig	sterben	gemein	töten	versagen	53pct	acq_USunple_CSunple2_noRW	acq23456_noRW	2	9	0	0	300	300	550	46	0	1	1	blank2r.bmp	0	1	+	0	1	blank2r.bmp	252	1	YFFY	306	1	gemein	559	0	0	0	0	0	0	0	0	0	0	0	0	0	0	0	0	0	0	0	0	0	0	0	0	0	0	0	0	0	0	0	0	0	0	0	0	0	0	0
082119	15:25:03	15:29:26	262172	5.0.10.0	5_exp_noRW	110	Rpleas_acq	CS_A	CPPC	JQQJ	ZHHZ	YFFY	LWWL	DXXD	küssen	gütig	sonnig	genießen	träumen	vertrauen	krank	gierig	sterben	gemein	töten	versagen	53pct	acq_USpleas_CSunple1_noRW	acq23456_noRW	2	10	0	0	300	300	591	50	0	1	1	blank2r.bmp	0	1	+	0	1	blank2r.bmp	252	1	ZHHZ	306	2	gütig	559	0	0	0	0	0	0	0	0	0	0	0	0	0	0	0	0	0	0	0	0	0	0	0	0	0	0	0	0	0	0	0	0	0	0	0	0	0	0	0
082119	15:25:03	15:29:28	263878	5.0.10.0	5_exp_noRW	110	Rpleas_acq	CS_A	CPPC	JQQJ	ZHHZ	YFFY	LWWL	DXXD	küssen	gütig	sonnig	genießen	träumen	vertrauen	krank	gierig	sterben	gemein	töten	versagen	53pct	acq_USunple_CSunple2_noRW	acq23456_noRW	2	11	0	0	300	300	543	46	0	1	1	blank2r.bmp	0	1	+	0	1	blank2r.bmp	252	1	YFFY	306	2	töten	559	0	0	0	0	0	0	0	0	0	0	0	0	0	0	0	0	0	0	0	0	0	0	0	0	0	0	0	0	0	0	0	0	0	0	0	0	0	0	0
082119	15:25:03	15:29:30	266290	5.0.10.0	5_exp_noRW	110	Rpleas_acq	CS_A	CPPC	JQQJ	ZHHZ	YFFY	LWWL	DXXD	küssen	gütig	sonnig	genießen	träumen	vertrauen	krank	gierig	sterben	gemein	töten	versagen	47pct	acq_USpleas_CSpleas1_noRW	acq23456_noRW	2	12	0	0	300	300	1226	50	0	1	1	blank2r.bmp	0	1	+	0	1	blank2r.bmp	252	1	CPPC	306	2	gütig	559	0	0	0	0	0	0	0	0	0	0	0	0	0	0	0	0	0	0	0	0	0	0	0	0	0	0	0	0	0	0	0	0	0	0	0	0	0	0	0
082119	15:25:03	15:29:32	268036	5.0.10.0	5_exp_noRW	110	Rpleas_acq	CS_A	CPPC	JQQJ	ZHHZ	YFFY	LWWL	DXXD	küssen	gütig	sonnig	genießen	träumen	vertrauen	krank	gierig	sterben	gemein	töten	versagen	47pct	acq_USpleas_CSpleas1_noRW	acq23456_noRW	2	13	0	0	300	300	577	50	0	1	1	blank2r.bmp	0	1	+	0	1	blank2r.bmp	252	1	CPPC	306	3	sonnig	559	0	0	0	0	0	0	0	0	0	0	0	0	0	0	0	0	0	0	0	0	0	0	0	0	0	0	0	0	0	0	0	0	0	0	0	0	0	0	0
082119	15:25:03	15:29:33	269782	5.0.10.0	5_exp_noRW	110	Rpleas_acq	CS_A	CPPC	JQQJ	ZHHZ	YFFY	LWWL	DXXD	küssen	gütig	sonnig	genießen	träumen	vertrauen	krank	gierig	sterben	gemein	töten	versagen	53pct	acq_USpleas_CSpleas2_noRW	acq23456_noRW	2	14	0	0	300	300	580	50	0	1	1	blank2r.bmp	0	1	+	0	1	blank2r.bmp	252	1	JQQJ	306	2	träumen	559	0	0	0	0	0	0	0	0	0	0	0	0	0	0	0	0	0	0	0	0	0	0	0	0	0	0	0	0	0	0	0	0	0	0	0	0	0	0	0
082119	15:25:03	15:29:35	271515	5.0.10.0	5_exp_noRW	110	Rpleas_acq	CS_A	CPPC	JQQJ	ZHHZ	YFFY	LWWL	DXXD	küssen	gütig	sonnig	genießen	träumen	vertrauen	krank	gierig	sterben	gemein	töten	versagen	47pct	acq_USunple_CSpleas2_noRW	acq23456_noRW	2	15	0	0	300	300	559	46	0	1	1	blank2r.bmp	0	1	+	0	1	blank2r.bmp	252	1	JQQJ	306	3	versagen	559	0	0	0	0	0	0	0	0	0	0	0	0	0	0	0	0	0	0	0	0	0	0	0	0	0	0	0	0	0	0	0	0	0	0	0	0	0	0	0
082119	15:25:03	15:29:37	273567	5.0.10.0	5_exp_noRW	110	Rpleas_acq	CS_A	CPPC	JQQJ	ZHHZ	YFFY	LWWL	DXXD	küssen	gütig	sonnig	genießen	träumen	vertrauen	krank	gierig	sterben	gemein	töten	versagen	47pct	acq_USunple_CSunple1_noRW	acq23456_noRW	2	16	0	0	300	300	880	46	0	1	1	blank2r.bmp	0	1	+	0	1	blank2r.bmp	252	1	ZHHZ	306	2	gierig	559	0	0	0	0	0	0	0	0	0	0	0	0	0	0	0	0	0	0	0	0	0	0	0	0	0	0	0	0	0	0	0	0	0	0	0	0	0	0	0
082119	15:25:03	15:29:39	275340	5.0.10.0	5_exp_noRW	110	Rpleas_acq	CS_A	CPPC	JQQJ	ZHHZ	YFFY	LWWL	DXXD	küssen	gütig	sonnig	genießen	träumen	vertrauen	krank	gierig	sterben	gemein	töten	versagen	47pct	acq_USunple_CSunple2_noRW	acq23456_noRW	2	17	0	0	300	300	585	46	0	1	1	blank2r.bmp	0	1	+	0	1	blank2r.bmp	252	1	YFFY	306	1	gemein	559	0	0	0	0	0	0	0	0	0	0	0	0	0	0	0	0	0	0	0	0	0	0	0	0	0	0	0	0	0	0	0	0	0	0	0	0	0	0	0
082119	15:25:03	15:29:41	277139	5.0.10.0	5_exp_noRW	110	Rpleas_acq	CS_A	CPPC	JQQJ	ZHHZ	YFFY	LWWL	DXXD	küssen	gütig	sonnig	genießen	träumen	vertrauen	krank	gierig	sterben	gemein	töten	versagen	53pct	acq_USpleas_CSpleas2_noRW	acq23456_noRW	2	18	0	0	300	300	626	50	0	1	1	blank2r.bmp	0	1	+	0	1	blank2r.bmp	252	1	JQQJ	306	3	vertrauen	559	0	0	0	0	0	0	0	0	0	0	0	0	0	0	0	0	0	0	0	0	0	0	0	0	0	0	0	0	0	0	0	0	0	0	0	0	0	0	0
082119	15:25:03	15:29:43	278912	5.0.10.0	5_exp_noRW	110	Rpleas_acq	CS_A	CPPC	JQQJ	ZHHZ	YFFY	LWWL	DXXD	küssen	gütig	sonnig	genießen	träumen	vertrauen	krank	gierig	sterben	gemein	töten	versagen	47pct	acq_USpleas_CSpleas1_noRW	acq23456_noRW	2	19	0	0	300	300	592	50	0	1	1	blank2r.bmp	0	1	+	0	1	blank2r.bmp	252	1	CPPC	306	1	küssen	559	0	0	0	0	0	0	0	0	0	0	0	0	0	0	0	0	0	0	0	0	0	0	0	0	0	0	0	0	0	0	0	0	0	0	0	0	0	0	0
082119	15:25:03	15:29:44	280618	5.0.10.0	5_exp_noRW	110	Rpleas_acq	CS_A	CPPC	JQQJ	ZHHZ	YFFY	LWWL	DXXD	küssen	gütig	sonnig	genießen	träumen	vertrauen	krank	gierig	sterben	gemein	töten	versagen	53pct	acq_USunple_CSpleas1_noRW	acq23456_noRW	2	20	0	0	300	300	528	46	0	1	1	blank2r.bmp	0	1	+	0	1	blank2r.bmp	252	1	CPPC	306	2	gierig	559	0	0	0	0	0	0	0	0	0	0	0	0	0	0	0	0	0	0	0	0	0	0	0	0	0	0	0	0	0	0	0	0	0	0	0	0	0	0	0
082119	15:25:03	15:29:46	282417	5.0.10.0	5_exp_noRW	110	Rpleas_acq	CS_A	CPPC	JQQJ	ZHHZ	YFFY	LWWL	DXXD	küssen	gütig	sonnig	genießen	träumen	vertrauen	krank	gierig	sterben	gemein	töten	versagen	47pct	acq_USpleas_CSpleas1_noRW	acq23456_noRW	2	21	0	0	300	300	615	50	0	1	1	blank2r.bmp	0	1	+	0	1	blank2r.bmp	252	1	CPPC	306	2	gütig	559	0	0	0	0	0	0	0	0	0	0	0	0	0	0	0	0	0	0	0	0	0	0	0	0	0	0	0	0	0	0	0	0	0	0	0	0	0	0	0
082119	15:25:03	15:29:48	284150	5.0.10.0	5_exp_noRW	110	Rpleas_acq	CS_A	CPPC	JQQJ	ZHHZ	YFFY	LWWL	DXXD	küssen	gütig	sonnig	genießen	träumen	vertrauen	krank	gierig	sterben	gemein	töten	versagen	53pct	acq_USpleas_CSpleas2_noRW	acq23456_noRW	2	22	0	0	300	300	563	50	0	1	1	blank2r.bmp	0	1	+	0	1	blank2r.bmp	252	1	JQQJ	306	1	genießen	559	0	0	0	0	0	0	0	0	0	0	0	0	0	0	0	0	0	0	0	0	0	0	0	0	0	0	0	0	0	0	0	0	0	0	0	0	0	0	0
082119	15:25:03	15:29:49	285802	5.0.10.0	5_exp_noRW	110	Rpleas_acq	CS_A	CPPC	JQQJ	ZHHZ	YFFY	LWWL	DXXD	küssen	gütig	sonnig	genießen	träumen	vertrauen	krank	gierig	sterben	gemein	töten	versagen	47pct	acq_USunple_CSunple1_noRW	acq23456_noRW	2	23	0	0	300	300	478	46	0	1	1	blank2r.bmp	0	1	+	0	1	blank2r.bmp	252	1	ZHHZ	306	3	sterben	559	0	0	0	0	0	0	0	0	0	0	0	0	0	0	0	0	0	0	0	0	0	0	0	0	0	0	0	0	0	0	0	0	0	0	0	0	0	0	0
082119	15:25:03	15:29:51	287482	5.0.10.0	5_exp_noRW	110	Rpleas_acq	CS_A	CPPC	JQQJ	ZHHZ	YFFY	LWWL	DXXD	küssen	gütig	sonnig	genießen	träumen	vertrauen	krank	gierig	sterben	gemein	töten	versagen	47pct	acq_USunple_CSpleas2_noRW	acq23456_noRW	2	24	0	0	300	300	517	46	0	1	1	blank2r.bmp	0	1	+	0	1	blank2r.bmp	252	1	JQQJ	306	2	töten	559	0	0	0	0	0	0	0	0	0	0	0	0	0	0	0	0	0	0	0	0	0	0	0	0	0	0	0	0	0	0	0	0	0	0	0	0	0	0	0
082119	15:25:03	15:29:54	289881	5.0.10.0	5_exp_noRW	110	Rpleas_acq	CS_A	CPPC	JQQJ	ZHHZ	YFFY	LWWL	DXXD	küssen	gütig	sonnig	genießen	träumen	vertrauen	krank	gierig	sterben	gemein	töten	versagen	53pct	acq_USunple_CSunple2_noRW	acq23456_noRW	2	25	0	0	300	300	1222	46	0	1	1	blank2r.bmp	0	1	+	0	1	blank2r.bmp	252	1	YFFY	306	3	versagen	559	0	0	0	0	0	0	0	0	0	0	0	0	0	0	0	0	0	0	0	0	0	0	0	0	0	0	0	0	0	0	0	0	0	0	0	0	0	0	0
082119	15:25:03	15:29:55	291613	5.0.10.0	5_exp_noRW	110	Rpleas_acq	CS_A	CPPC	JQQJ	ZHHZ	YFFY	LWWL	DXXD	küssen	gütig	sonnig	genießen	träumen	vertrauen	krank	gierig	sterben	gemein	töten	versagen	47pct	acq_USunple_CSunple2_noRW	acq23456_noRW	2	26	0	0	300	300	548	46	0	1	1	blank2r.bmp	0	1	+	0	1	blank2r.bmp	252	1	YFFY	306	3	versagen	559	0	0	0	0	0	0	0	0	0	0	0	0	0	0	0	0	0	0	0	0	0	0	0	0	0	0	0	0	0	0	0	0	0	0	0	0	0	0	0
082119	15:25:03	15:29:57	293293	5.0.10.0	5_exp_noRW	110	Rpleas_acq	CS_A	CPPC	JQQJ	ZHHZ	YFFY	LWWL	DXXD	küssen	gütig	sonnig	genießen	träumen	vertrauen	krank	gierig	sterben	gemein	töten	versagen	47pct	acq_USunple_CSunple1_noRW	acq23456_noRW	2	27	0	0	300	300	506	46	0	1	1	blank2r.bmp	0	1	+	0	1	blank2r.bmp	252	1	ZHHZ	306	1	krank	559	0	0	0	0	0	0	0	0	0	0	0	0	0	0	0	0	0	0	0	0	0	0	0	0	0	0	0	0	0	0	0	0	0	0	0	0	0	0	0
082119	15:25:03	15:29:59	294959	5.0.10.0	5_exp_noRW	110	Rpleas_acq	CS_A	CPPC	JQQJ	ZHHZ	YFFY	LWWL	DXXD	küssen	gütig	sonnig	genießen	träumen	vertrauen	krank	gierig	sterben	gemein	töten	versagen	47pct	acq_USpleas_CSpleas1_noRW	acq23456_noRW	2	28	0	0	300	300	495	50	0	1	1	blank2r.bmp	0	1	+	0	1	blank2r.bmp	252	1	CPPC	306	3	sonnig	559	0	0	0	0	0	0	0	0	0	0	0	0	0	0	0	0	0	0	0	0	0	0	0	0	0	0	0	0	0	0	0	0	0	0	0	0	0	0	0
082119	15:25:03	15:30:01	297091	5.0.10.0	5_exp_noRW	110	Rpleas_acq	CS_A	CPPC	JQQJ	ZHHZ	YFFY	LWWL	DXXD	küssen	gütig	sonnig	genießen	träumen	vertrauen	krank	gierig	sterben	gemein	töten	versagen	53pct	acq_USpleas_CSpleas1_noRW	acq23456_noRW	2	29	0	0	300	300	971	50	0	1	1	blank2r.bmp	0	1	+	0	1	blank2r.bmp	252	1	CPPC	306	1	küssen	559	0	0	0	0	0	0	0	0	0	0	0	0	0	0	0	0	0	0	0	0	0	0	0	0	0	0	0	0	0	0	0	0	0	0	0	0	0	0	0
082119	15:25:03	15:30:02	298824	5.0.10.0	5_exp_noRW	110	Rpleas_acq	CS_A	CPPC	JQQJ	ZHHZ	YFFY	LWWL	DXXD	küssen	gütig	sonnig	genießen	träumen	vertrauen	krank	gierig	sterben	gemein	töten	versagen	53pct	acq_USpleas_CSpleas2_noRW	acq23456_noRW	2	30	0	0	300	300	548	50	0	1	1	blank2r.bmp	0	1	+	0	1	blank2r.bmp	252	1	JQQJ	306	2	träumen	559	0	0	0	0	0	0	0	0	0	0	0	0	0	0	0	0	0	0	0	0	0	0	0	0	0	0	0	0	0	0	0	0	0	0	0	0	0	0	0
082119	15:25:03	15:30:04	300596	5.0.10.0	5_exp_noRW	110	Rpleas_acq	CS_A	CPPC	JQQJ	ZHHZ	YFFY	LWWL	DXXD	küssen	gütig	sonnig	genießen	träumen	vertrauen	krank	gierig	sterben	gemein	töten	versagen	47pct	acq_USunple_CSunple1_noRW	acq23456_noRW	2	31	0	0	300	300	595	46	0	1	1	blank2r.bmp	0	1	+	0	1	blank2r.bmp	252	1	ZHHZ	306	2	gierig	559	0	0	0	0	0	0	0	0	0	0	0	0	0	0	0	0	0	0	0	0	0	0	0	0	0	0	0	0	0	0	0	0	0	0	0	0	0	0	0
082119	15:25:03	15:30:06	302502	5.0.10.0	5_exp_noRW	110	Rpleas_acq	CS_A	CPPC	JQQJ	ZHHZ	YFFY	LWWL	DXXD	küssen	gütig	sonnig	genießen	träumen	vertrauen	krank	gierig	sterben	gemein	töten	versagen	47pct	acq_USpleas_CSpleas2_noRW	acq23456_noRW	2	32	0	0	300	300	719	50	0	1	1	blank2r.bmp	0	1	+	0	1	blank2r.bmp	252	1	JQQJ	306	3	vertrauen	559	0	0	0	0	0	0	0	0	0	0	0	0	0	0	0	0	0	0	0	0	0	0	0	0	0	0	0	0	0	0	0	0	0	0	0	0	0	0	0
082119	15:25:03	15:30:08	304795	5.0.10.0	5_exp_noRW	110	Rpleas_acq	CS_A	CPPC	JQQJ	ZHHZ	YFFY	LWWL	DXXD	küssen	gütig	sonnig	genießen	träumen	vertrauen	krank	gierig	sterben	gemein	töten	versagen	53pct	acq_USpleas_CSpleas2_noRW	acq23456_noRW	2	33	0	0	300	300	1128	50	0	1	1	blank2r.bmp	0	1	+	0	1	blank2r.bmp	252	1	JQQJ	306	1	genießen	559	0	0	0	0	0	0	0	0	0	0	0	0	0	0	0	0	0	0	0	0	0	0	0	0	0	0	0	0	0	0	0	0	0	0	0	0	0	0	0
082119	15:25:03	15:30:10	306554	5.0.10.0	5_exp_noRW	110	Rpleas_acq	CS_A	CPPC	JQQJ	ZHHZ	YFFY	LWWL	DXXD	küssen	gütig	sonnig	genießen	träumen	vertrauen	krank	gierig	sterben	gemein	töten	versagen	47pct	acq_USpleas_CSpleas1_noRW	acq23456_noRW	2	34	0	0	300	300	576	50	0	1	1	blank2r.bmp	0	1	+	0	1	blank2r.bmp	252	1	CPPC	306	2	gütig	559	0	0	0	0	0	0	0	0	0	0	0	0	0	0	0	0	0	0	0	0	0	0	0	0	0	0	0	0	0	0	0	0	0	0	0	0	0	0	0
082119	15:25:03	15:30:12	308606	5.0.10.0	5_exp_noRW	110	Rpleas_acq	CS_A	CPPC	JQQJ	ZHHZ	YFFY	LWWL	DXXD	küssen	gütig	sonnig	genießen	träumen	vertrauen	krank	gierig	sterben	gemein	töten	versagen	47pct	acq_USunple_CSunple2_noRW	acq23456_noRW	2	35	0	0	300	300	890	46	0	1	1	blank2r.bmp	0	1	+	0	1	blank2r.bmp	252	1	YFFY	306	2	töten	559	0	0	0	0	0	0	0	0	0	0	0	0	0	0	0	0	0	0	0	0	0	0	0	0	0	0	0	0	0	0	0	0	0	0	0	0	0	0	0
082119	15:25:03	15:30:15	311725	5.0.10.0	5_exp_noRW	110	Rpleas_acq	CS_A	CPPC	JQQJ	ZHHZ	YFFY	LWWL	DXXD	küssen	gütig	sonnig	genießen	träumen	vertrauen	krank	gierig	sterben	gemein	töten	versagen	47pct	acq_USunple_CSunple1_noRW	acq23456_noRW	2	36	0	0	300	300	1941	46	0	1	1	blank2r.bmp	0	1	+	0	1	blank2r.bmp	252	1	ZHHZ	306	3	sterben	559	0	0	0	0	0	0	0	0	0	0	0	0	0	0	0	0	0	0	0	0	0	0	0	0	0	0	0	0	0	0	0	0	0	0	0	0	0	0	0
082119	15:25:03	15:30:18	313897	5.0.10.0	5_exp_noRW	110	Rpleas_acq	CS_A	CPPC	JQQJ	ZHHZ	YFFY	LWWL	DXXD	küssen	gütig	sonnig	genießen	träumen	vertrauen	krank	gierig	sterben	gemein	töten	versagen	47pct	acq_USpleas_CSunple2_noRW	acq23456_noRW	2	37	0	0	300	300	992	50	0	1	1	blank2r.bmp	0	1	+	0	1	blank2r.bmp	252	1	YFFY	306	3	vertrauen	559	0	0	0	0	0	0	0	0	0	0	0	0	0	0	0	0	0	0	0	0	0	0	0	0	0	0	0	0	0	0	0	0	0	0	0	0	0	0	0
082119	15:25:03	15:30:19	315590	5.0.10.0	5_exp_noRW	110	Rpleas_acq	CS_A	CPPC	JQQJ	ZHHZ	YFFY	LWWL	DXXD	küssen	gütig	sonnig	genießen	träumen	vertrauen	krank	gierig	sterben	gemein	töten	versagen	53pct	acq_USpleas_CSunple1_noRW	acq23456_noRW	2	38	0	0	300	300	525	50	0	1	1	blank2r.bmp	0	1	+	0	1	blank2r.bmp	252	1	ZHHZ	306	3	sonnig	559	0	0	0	0	0	0	0	0	0	0	0	0	0	0	0	0	0	0	0	0	0	0	0	0	0	0	0	0	0	0	0	0	0	0	0	0	0	0	0
082119	15:25:03	15:30:21	317296	5.0.10.0	5_exp_noRW	110	Rpleas_acq	CS_A	CPPC	JQQJ	ZHHZ	YFFY	LWWL	DXXD	küssen	gütig	sonnig	genießen	träumen	vertrauen	krank	gierig	sterben	gemein	töten	versagen	47pct	acq_USunple_CSpleas1_noRW	acq23456_noRW	2	39	0	0	300	300	523	46	0	1	1	blank2r.bmp	0	1	+	0	1	blank2r.bmp	252	1	CPPC	306	3	sterben	559	0	0	0	0	0	0	0	0	0	0	0	0	0	0	0	0	0	0	0	0	0	0	0	0	0	0	0	0	0	0	0	0	0	0	0	0	0	0	0
082119	15:25:03	15:30:23	319095	5.0.10.0	5_exp_noRW	110	Rpleas_acq	CS_A	CPPC	JQQJ	ZHHZ	YFFY	LWWL	DXXD	küssen	gütig	sonnig	genießen	träumen	vertrauen	krank	gierig	sterben	gemein	töten	versagen	47pct	acq_USunple_CSunple2_noRW	acq23456_noRW	2	40	0	0	300	300	622	46	0	1	1	blank2r.bmp	0	1	+	0	1	blank2r.bmp	252	1	YFFY	306	1	gemein	559	0	0	0	0	0	0	0	0	0	0	0	0	0	0	0	0	0	0	0	0	0	0	0	0	0	0	0	0	0	0	0	0	0	0	0	0	0	0	0
082119	15:25:03	15:30:25	320988	5.0.10.0	5_exp_noRW	110	Rpleas_acq	CS_A	CPPC	JQQJ	ZHHZ	YFFY	LWWL	DXXD	küssen	gütig	sonnig	genießen	träumen	vertrauen	krank	gierig	sterben	gemein	töten	versagen	47pct	acq_USunple_CSunple2_noRW	acq23456_noRW	2	41	0	0	300	300	714	46	0	1	1	blank2r.bmp	0	1	+	0	1	blank2r.bmp	252	1	YFFY	306	1	gemein	559	0	0	0	0	0	0	0	0	0	0	0	0	0	0	0	0	0	0	0	0	0	0	0	0	0	0	0	0	0	0	0	0	0	0	0	0	0	0	0
082119	15:25:03	15:30:26	322694	5.0.10.0	5_exp_noRW	110	Rpleas_acq	CS_A	CPPC	JQQJ	ZHHZ	YFFY	LWWL	DXXD	küssen	gütig	sonnig	genießen	träumen	vertrauen	krank	gierig	sterben	gemein	töten	versagen	47pct	acq_USpleas_CSpleas2_noRW	acq23456_noRW	2	42	0	0	300	300	526	50	0	1	1	blank2r.bmp	0	1	+	0	1	blank2r.bmp	252	1	JQQJ	306	3	vertrauen	559	0	0	0	0	0	0	0	0	0	0	0	0	0	0	0	0	0	0	0	0	0	0	0	0	0	0	0	0	0	0	0	0	0	0	0	0	0	0	0
082119	15:25:03	15:30:29	324960	5.0.10.0	5_exp_noRW	110	Rpleas_acq	CS_A	CPPC	JQQJ	ZHHZ	YFFY	LWWL	DXXD	küssen	gütig	sonnig	genießen	träumen	vertrauen	krank	gierig	sterben	gemein	töten	versagen	47pct	acq_USunple_CSunple1_noRW	acq23456_noRW	2	43	0	0	300	300	1088	46	0	1	1	blank2r.bmp	0	1	+	0	1	blank2r.bmp	252	1	ZHHZ	306	1	krank	559	0	0	0	0	0	0	0	0	0	0	0	0	0	0	0	0	0	0	0	0	0	0	0	0	0	0	0	0	0	0	0	0	0	0	0	0	0	0	0
082119	15:25:03	15:30:30	326546	5.0.10.0	5_exp_noRW	110	Rpleas_acq	CS_A	CPPC	JQQJ	ZHHZ	YFFY	LWWL	DXXD	küssen	gütig	sonnig	genießen	träumen	vertrauen	krank	gierig	sterben	gemein	töten	versagen	47pct	acq_USunple_CSunple2_noRW	acq23456_noRW	2	44	0	0	300	300	405	46	0	1	1	blank2r.bmp	0	1	+	0	1	blank2r.bmp	252	1	YFFY	306	2	töten	559	0	0	0	0	0	0	0	0	0	0	0	0	0	0	0	0	0	0	0	0	0	0	0	0	0	0	0	0	0	0	0	0	0	0	0	0	0	0	0
082119	15:25:03	15:30:32	328265	5.0.10.0	5_exp_noRW	110	Rpleas_acq	CS_A	CPPC	JQQJ	ZHHZ	YFFY	LWWL	DXXD	küssen	gütig	sonnig	genießen	träumen	vertrauen	krank	gierig	sterben	gemein	töten	versagen	47pct	acq_USpleas_CSunple2_noRW	acq23456_noRW	2	45	0	0	300	300	534	50	0	1	1	blank2r.bmp	0	1	+	0	1	blank2r.bmp	252	1	YFFY	306	1	genießen	559	0	0	0	0	0	0	0	0	0	0	0	0	0	0	0	0	0	0	0	0	0	0	0	0	0	0	0	0	0	0	0	0	0	0	0	0	0	0	0
082119	15:25:03	15:30:34	330051	5.0.10.0	5_exp_noRW	110	Rpleas_acq	CS_A	CPPC	JQQJ	ZHHZ	YFFY	LWWL	DXXD	küssen	gütig	sonnig	genießen	träumen	vertrauen	krank	gierig	sterben	gemein	töten	versagen	47pct	acq_USunple_CSunple2_noRW	acq23456_noRW	2	46	0	0	300	300	616	46	0	1	1	blank2r.bmp	0	1	+	0	1	blank2r.bmp	252	1	YFFY	306	3	versagen	559	0	0	0	0	0	0	0	0	0	0	0	0	0	0	0	0	0	0	0	0	0	0	0	0	0	0	0	0	0	0	0	0	0	0	0	0	0	0	0
082119	15:25:03	15:30:35	331704	5.0.10.0	5_exp_noRW	110	Rpleas_acq	CS_A	CPPC	JQQJ	ZHHZ	YFFY	LWWL	DXXD	küssen	gütig	sonnig	genießen	träumen	vertrauen	krank	gierig	sterben	gemein	töten	versagen	47pct	acq_USpleas_CSpleas1_noRW	acq23456_noRW	2	47	0	0	300	300	486	50	0	1	1	blank2r.bmp	0	1	+	0	1	blank2r.bmp	252	1	CPPC	306	3	sonnig	559	0	0	0	0	0	0	0	0	0	0	0	0	0	0	0	0	0	0	0	0	0	0	0	0	0	0	0	0	0	0	0	0	0	0	0	0	0	0	0
082119	15:25:03	15:30:37	333343	5.0.10.0	5_exp_noRW	110	Rpleas_acq	CS_A	CPPC	JQQJ	ZHHZ	YFFY	LWWL	DXXD	küssen	gütig	sonnig	genießen	träumen	vertrauen	krank	gierig	sterben	gemein	töten	versagen	47pct	acq_USunple_CSpleas2_noRW	acq23456_noRW	2	48	0	0	300	300	456	46	0	1	1	blank2r.bmp	0	1	+	0	1	blank2r.bmp	252	1	JQQJ	306	1	gemein	559	0	0	0	0	0	0	0	0	0	0	0	0	0	0	0	0	0	0	0	0	0	0	0	0	0	0	0	0	0	0	0	0	0	0	0	0	0	0	0
082119	15:25:03	15:30:39	335102	5.0.10.0	5_exp_noRW	110	Rpleas_acq	CS_A	CPPC	JQQJ	ZHHZ	YFFY	LWWL	DXXD	küssen	gütig	sonnig	genießen	träumen	vertrauen	krank	gierig	sterben	gemein	töten	versagen	47pct	acq_USunple_CSunple1_noRW	acq23456_noRW	2	49	0	0	300	300	590	46	0	1	1	blank2r.bmp	0	1	+	0	1	blank2r.bmp	252	1	ZHHZ	306	2	gierig	559	0	0	0	0	0	0	0	0	0	0	0	0	0	0	0	0	0	0	0	0	0	0	0	0	0	0	0	0	0	0	0	0	0	0	0	0	0	0	0
082119	15:25:03	15:30:41	336875	5.0.10.0	5_exp_noRW	110	Rpleas_acq	CS_A	CPPC	JQQJ	ZHHZ	YFFY	LWWL	DXXD	küssen	gütig	sonnig	genießen	träumen	vertrauen	krank	gierig	sterben	gemein	töten	versagen	47pct	acq_USpleas_CSpleas2_noRW	acq23456_noRW	2	50	0	0	300	300	610	50	0	1	1	blank2r.bmp	0	1	+	0	1	blank2r.bmp	252	1	JQQJ	306	1	genießen	559	0	0	0	0	0	0	0	0	0	0	0	0	0	0	0	0	0	0	0	0	0	0	0	0	0	0	0	0	0	0	0	0	0	0	0	0	0	0	0
082119	15:25:03	15:30:42	338767	5.0.10.0	5_exp_noRW	110	Rpleas_acq	CS_A	CPPC	JQQJ	ZHHZ	YFFY	LWWL	DXXD	küssen	gütig	sonnig	genießen	träumen	vertrauen	krank	gierig	sterben	gemein	töten	versagen	53pct	acq_USunple_CSunple1_noRW	acq23456_noRW	2	51	0	0	300	300	706	46	0	1	1	blank2r.bmp	0	1	+	0	1	blank2r.bmp	252	1	ZHHZ	306	3	sterben	559	0	0	0	0	0	0	0	0	0	0	0	0	0	0	0	0	0	0	0	0	0	0	0	0	0	0	0	0	0	0	0	0	0	0	0	0	0	0	0
082119	15:25:03	15:30:44	340553	5.0.10.0	5_exp_noRW	110	Rpleas_acq	CS_A	CPPC	JQQJ	ZHHZ	YFFY	LWWL	DXXD	küssen	gütig	sonnig	genießen	träumen	vertrauen	krank	gierig	sterben	gemein	töten	versagen	47pct	acq_USpleas_CSpleas2_noRW	acq23456_noRW	2	52	0	0	300	300	620	50	0	1	1	blank2r.bmp	0	1	+	0	1	blank2r.bmp	252	1	JQQJ	306	2	träumen	559	0	0	0	0	0	0	0	0	0	0	0	0	0	0	0	0	0	0	0	0	0	0	0	0	0	0	0	0	0	0	0	0	0	0	0	0	0	0	0
082119	15:25:03	15:30:46	342379	5.0.10.0	5_exp_noRW	110	Rpleas_acq	CS_A	CPPC	JQQJ	ZHHZ	YFFY	LWWL	DXXD	küssen	gütig	sonnig	genießen	träumen	vertrauen	krank	gierig	sterben	gemein	töten	versagen	53pct	acq_USpleas_CSpleas1_noRW	acq23456_noRW	2	53	0	0	300	300	649	50	0	1	1	blank2r.bmp	0	1	+	0	1	blank2r.bmp	252	1	CPPC	306	2	gütig	559	0	0	0	0	0	0	0	0	0	0	0	0	0	0	0	0	0	0	0	0	0	0	0	0	0	0	0	0	0	0	0	0	0	0	0	0	0	0	0
082119	15:25:03	15:30:48	344192	5.0.10.0	5_exp_noRW	110	Rpleas_acq	CS_A	CPPC	JQQJ	ZHHZ	YFFY	LWWL	DXXD	küssen	gütig	sonnig	genießen	träumen	vertrauen	krank	gierig	sterben	gemein	töten	versagen	47pct	acq_USpleas_CSpleas2_noRW	acq23456_noRW	2	54	0	0	300	300	636	50	0	1	1	blank2r.bmp	0	1	+	0	1	blank2r.bmp	252	1	JQQJ	306	3	vertrauen	559	0	0	0	0	0	0	0	0	0	0	0	0	0	0	0	0	0	0	0	0	0	0	0	0	0	0	0	0	0	0	0	0	0	0	0	0	0	0	0
082119	15:25:03	15:30:50	345911	5.0.10.0	5_exp_noRW	110	Rpleas_acq	CS_A	CPPC	JQQJ	ZHHZ	YFFY	LWWL	DXXD	küssen	gütig	sonnig	genießen	träumen	vertrauen	krank	gierig	sterben	gemein	töten	versagen	53pct	acq_USpleas_CSpleas1_noRW	acq23456_noRW	2	55	0	0	300	300	552	50	0	1	1	blank2r.bmp	0	1	+	0	1	blank2r.bmp	252	1	CPPC	306	1	küssen	559	0	0	0	0	0	0	0	0	0	0	0	0	0	0	0	0	0	0	0	0	0	0	0	0	0	0	0	0	0	0	0	0	0	0	0	0	0	0	0
082119	15:25:03	15:30:51	347590	5.0.10.0	5_exp_noRW	110	Rpleas_acq	CS_A	CPPC	JQQJ	ZHHZ	YFFY	LWWL	DXXD	küssen	gütig	sonnig	genießen	träumen	vertrauen	krank	gierig	sterben	gemein	töten	versagen	47pct	acq_USunple_CSpleas1_noRW	acq23456_noRW	2	56	0	0	300	300	514	46	0	1	1	blank2r.bmp	0	1	+	0	1	blank2r.bmp	252	1	CPPC	306	1	krank	559	0	0	0	0	0	0	0	0	0	0	0	0	0	0	0	0	0	0	0	0	0	0	0	0	0	0	0	0	0	0	0	0	0	0	0	0	0	0	0
082119	15:25:03	15:30:53	349323	5.0.10.0	5_exp_noRW	110	Rpleas_acq	CS_A	CPPC	JQQJ	ZHHZ	YFFY	LWWL	DXXD	küssen	gütig	sonnig	genießen	träumen	vertrauen	krank	gierig	sterben	gemein	töten	versagen	47pct	acq_USpleas_CSpleas1_noRW	acq23456_noRW	2	57	0	0	300	300	554	50	0	1	1	blank2r.bmp	0	1	+	0	1	blank2r.bmp	252	1	CPPC	306	2	gütig	559	0	0	0	0	0	0	0	0	0	0	0	0	0	0	0	0	0	0	0	0	0	0	0	0	0	0	0	0	0	0	0	0	0	0	0	0	0	0	0
082119	15:25:03	15:30:55	351029	5.0.10.0	5_exp_noRW	110	Rpleas_acq	CS_A	CPPC	JQQJ	ZHHZ	YFFY	LWWL	DXXD	küssen	gütig	sonnig	genießen	träumen	vertrauen	krank	gierig	sterben	gemein	töten	versagen	53pct	acq_USpleas_CSunple1_noRW	acq23456_noRW	2	58	0	0	300	300	522	50	0	1	1	blank2r.bmp	0	1	+	0	1	blank2r.bmp	252	1	ZHHZ	306	1	küssen	559	0	0	0	0	0	0	0	0	0	0	0	0	0	0	0	0	0	0	0	0	0	0	0	0	0	0	0	0	0	0	0	0	0	0	0	0	0	0	0
082119	15:25:03	15:30:56	352788	5.0.10.0	5_exp_noRW	110	Rpleas_acq	CS_A	CPPC	JQQJ	ZHHZ	YFFY	LWWL	DXXD	küssen	gütig	sonnig	genießen	träumen	vertrauen	krank	gierig	sterben	gemein	töten	versagen	53pct	acq_USunple_CSunple1_noRW	acq23456_noRW	2	59	0	0	300	300	588	46	0	1	1	blank2r.bmp	0	1	+	0	1	blank2r.bmp	252	1	ZHHZ	306	3	sterben	559	0	0	0	0	0	0	0	0	0	0	0	0	0	0	0	0	0	0	0	0	0	0	0	0	0	0	0	0	0	0	0	0	0	0	0	0	0	0	0
082119	15:25:03	15:30:58	354548	5.0.10.0	5_exp_noRW	110	Rpleas_acq	CS_A	CPPC	JQQJ	ZHHZ	YFFY	LWWL	DXXD	küssen	gütig	sonnig	genießen	träumen	vertrauen	krank	gierig	sterben	gemein	töten	versagen	47pct	acq_USunple_CSunple2_noRW	acq23456_noRW	2	60	0	0	300	300	592	46	0	1	1	blank2r.bmp	0	1	+	0	1	blank2r.bmp	252	1	YFFY	306	1	gemein	559	0	0	0	0	0	0	0	0	0	0	0	0	0	0	0	0	0	0	0	0	0	0	0	0	0	0	0	0	0	0	0	0	0	0	0	0	0	0	0
082119	15:25:03	15:31:00	356253	5.0.10.0	5_exp_noRW	110	Rpleas_acq	CS_A	CPPC	JQQJ	ZHHZ	YFFY	LWWL	DXXD	küssen	gütig	sonnig	genießen	träumen	vertrauen	krank	gierig	sterben	gemein	töten	versagen	47pct	acq_USpleas_CSunple2_noRW	acq23456_noRW	2	61	0	0	300	300	525	50	0	1	1	blank2r.bmp	0	1	+	0	1	blank2r.bmp	252	1	YFFY	306	2	träumen	559	0	0	0	0	0	0	0	0	0	0	0	0	0	0	0	0	0	0	0	0	0	0	0	0	0	0	0	0	0	0	0	0	0	0	0	0	0	0	0
082119	15:25:03	15:31:02	357946	5.0.10.0	5_exp_noRW	110	Rpleas_acq	CS_A	CPPC	JQQJ	ZHHZ	YFFY	LWWL	DXXD	küssen	gütig	sonnig	genießen	träumen	vertrauen	krank	gierig	sterben	gemein	töten	versagen	47pct	acq_USpleas_CSpleas2_noRW	acq23456_noRW	2	62	0	0	300	300	519	50	0	1	1	blank2r.bmp	0	1	+	0	1	blank2r.bmp	252	1	JQQJ	306	2	träumen	559	0	0	0	0	0	0	0	0	0	0	0	0	0	0	0	0	0	0	0	0	0	0	0	0	0	0	0	0	0	0	0	0	0	0	0	0	0	0	0
082119	15:25:03	15:31:03	359585	5.0.10.0	5_exp_noRW	110	Rpleas_acq	CS_A	CPPC	JQQJ	ZHHZ	YFFY	LWWL	DXXD	küssen	gütig	sonnig	genießen	träumen	vertrauen	krank	gierig	sterben	gemein	töten	versagen	47pct	acq_USpleas_CSpleas1_noRW	acq23456_noRW	2	63	0	0	300	300	466	50	0	1	1	blank2r.bmp	0	1	+	0	1	blank2r.bmp	252	1	CPPC	306	1	küssen	559	0	0	0	0	0	0	0	0	0	0	0	0	0	0	0	0	0	0	0	0	0	0	0	0	0	0	0	0	0	0	0	0	0	0	0	0	0	0	0
082119	15:25:03	15:31:05	361598	5.0.10.0	5_exp_noRW	110	Rpleas_acq	CS_A	CPPC	JQQJ	ZHHZ	YFFY	LWWL	DXXD	küssen	gütig	sonnig	genießen	träumen	vertrauen	krank	gierig	sterben	gemein	töten	versagen	53pct	acq_USunple_CSpleas1_noRW	acq23456_noRW	2	64	0	0	300	300	843	46	0	1	1	blank2r.bmp	0	1	+	0	1	blank2r.bmp	252	1	CPPC	306	2	gierig	559	0	0	0	0	0	0	0	0	0	0	0	0	0	0	0	0	0	0	0	0	0	0	0	0	0	0	0	0	0	0	0	0	0	0	0	0	0	0	0
082119	15:25:03	15:31:07	363570	5.0.10.0	5_exp_noRW	110	Rpleas_acq	CS_A	CPPC	JQQJ	ZHHZ	YFFY	LWWL	DXXD	küssen	gütig	sonnig	genießen	träumen	vertrauen	krank	gierig	sterben	gemein	töten	versagen	53pct	acq_USpleas_CSunple1_noRW	acq23456_noRW	2	65	0	0	300	300	792	50	0	1	1	blank2r.bmp	0	1	+	0	1	blank2r.bmp	252	1	ZHHZ	306	2	gütig	559	0	0	0	0	0	0	0	0	0	0	0	0	0	0	0	0	0	0	0	0	0	0	0	0	0	0	0	0	0	0	0	0	0	0	0	0	0	0	0
082119	15:25:03	15:31:09	365690	5.0.10.0	5_exp_noRW	110	Rpleas_acq	CS_A	CPPC	JQQJ	ZHHZ	YFFY	LWWL	DXXD	küssen	gütig	sonnig	genießen	träumen	vertrauen	krank	gierig	sterben	gemein	töten	versagen	47pct	acq_USunple_CSpleas2_noRW	acq23456_noRW	2	66	0	0	300	300	947	46	0	1	1	blank2r.bmp	0	1	+	0	1	blank2r.bmp	252	1	JQQJ	306	3	versagen	559	0	0	0	0	0	0	0	0	0	0	0	0	0	0	0	0	0	0	0	0	0	0	0	0	0	0	0	0	0	0	0	0	0	0	0	0	0	0	0
082119	15:25:03	15:31:11	367436	5.0.10.0	5_exp_noRW	110	Rpleas_acq	CS_A	CPPC	JQQJ	ZHHZ	YFFY	LWWL	DXXD	küssen	gütig	sonnig	genießen	träumen	vertrauen	krank	gierig	sterben	gemein	töten	versagen	53pct	acq_USpleas_CSpleas2_noRW	acq23456_noRW	2	67	0	0	300	300	583	50	0	1	1	blank2r.bmp	0	1	+	0	1	blank2r.bmp	252	1	JQQJ	306	1	genießen	559	0	0	0	0	0	0	0	0	0	0	0	0	0	0	0	0	0	0	0	0	0	0	0	0	0	0	0	0	0	0	0	0	0	0	0	0	0	0	0
082119	15:25:03	15:31:13	369275	5.0.10.0	5_exp_noRW	110	Rpleas_acq	CS_A	CPPC	JQQJ	ZHHZ	YFFY	LWWL	DXXD	küssen	gütig	sonnig	genießen	träumen	vertrauen	krank	gierig	sterben	gemein	töten	versagen	47pct	acq_USunple_CSunple2_noRW	acq23456_noRW	2	68	0	0	300	300	665	46	0	1	1	blank2r.bmp	0	1	+	0	1	blank2r.bmp	252	1	YFFY	306	2	töten	559	0	0	0	0	0	0	0	0	0	0	0	0	0	0	0	0	0	0	0	0	0	0	0	0	0	0	0	0	0	0	0	0	0	0	0	0	0	0	0
082119	15:25:03	15:31:15	371087	5.0.10.0	5_exp_noRW	110	Rpleas_acq	CS_A	CPPC	JQQJ	ZHHZ	YFFY	LWWL	DXXD	küssen	gütig	sonnig	genießen	träumen	vertrauen	krank	gierig	sterben	gemein	töten	versagen	47pct	acq_USpleas_CSpleas1_noRW	acq23456_noRW	2	69	0	0	300	300	629	50	0	1	1	blank2r.bmp	0	1	+	0	1	blank2r.bmp	252	1	CPPC	306	3	sonnig	559	0	0	0	0	0	0	0	0	0	0	0	0	0	0	0	0	0	0	0	0	0	0	0	0	0	0	0	0	0	0	0	0	0	0	0	0	0	0	0
082119	15:25:03	15:31:17	372900	5.0.10.0	5_exp_noRW	110	Rpleas_acq	CS_A	CPPC	JQQJ	ZHHZ	YFFY	LWWL	DXXD	küssen	gütig	sonnig	genießen	träumen	vertrauen	krank	gierig	sterben	gemein	töten	versagen	47pct	acq_USpleas_CSpleas2_noRW	acq23456_noRW	2	70	0	0	300	300	642	50	0	1	1	blank2r.bmp	0	1	+	0	1	blank2r.bmp	252	1	JQQJ	306	2	träumen	559	0	0	0	0	0	0	0	0	0	0	0	0	0	0	0	0	0	0	0	0	0	0	0	0	0	0	0	0	0	0	0	0	0	0	0	0	0	0	0
082119	15:25:03	15:31:18	374793	5.0.10.0	5_exp_noRW	110	Rpleas_acq	CS_A	CPPC	JQQJ	ZHHZ	YFFY	LWWL	DXXD	küssen	gütig	sonnig	genießen	träumen	vertrauen	krank	gierig	sterben	gemein	töten	versagen	53pct	acq_USpleas_CSpleas2_noRW	acq23456_noRW	2	71	0	0	300	300	719	50	0	1	1	blank2r.bmp	0	1	+	0	1	blank2r.bmp	252	1	JQQJ	306	1	genießen	559	0	0	0	0	0	0	0	0	0	0	0	0	0	0	0	0	0	0	0	0	0	0	0	0	0	0	0	0	0	0	0	0	0	0	0	0	0	0	0
082119	15:25:03	15:31:20	376565	5.0.10.0	5_exp_noRW	110	Rpleas_acq	CS_A	CPPC	JQQJ	ZHHZ	YFFY	LWWL	DXXD	küssen	gütig	sonnig	genießen	träumen	vertrauen	krank	gierig	sterben	gemein	töten	versagen	47pct	acq_USpleas_CSpleas1_noRW	acq23456_noRW	2	72	0	0	300	300	608	50	0	1	1	blank2r.bmp	0	1	+	0	1	blank2r.bmp	252	1	CPPC	306	1	küssen	559	0	0	0	0	0	0	0	0	0	0	0	0	0	0	0	0	0	0	0	0	0	0	0	0	0	0	0	0	0	0	0	0	0	0	0	0	0	0	0
082119	15:25:03	15:31:22	378271	5.0.10.0	5_exp_noRW	110	Rpleas_acq	CS_A	CPPC	JQQJ	ZHHZ	YFFY	LWWL	DXXD	küssen	gütig	sonnig	genießen	träumen	vertrauen	krank	gierig	sterben	gemein	töten	versagen	47pct	acq_USunple_CSunple1_noRW	acq23456_noRW	2	73	0	0	300	300	520	46	0	1	1	blank2r.bmp	0	1	+	0	1	blank2r.bmp	252	1	ZHHZ	306	2	gierig	559	0	0	0	0	0	0	0	0	0	0	0	0	0	0	0	0	0	0	0	0	0	0	0	0	0	0	0	0	0	0	0	0	0	0	0	0	0	0	0
082119	15:25:03	15:31:24	380004	5.0.10.0	5_exp_noRW	110	Rpleas_acq	CS_A	CPPC	JQQJ	ZHHZ	YFFY	LWWL	DXXD	küssen	gütig	sonnig	genießen	träumen	vertrauen	krank	gierig	sterben	gemein	töten	versagen	47pct	acq_USunple_CSunple1_noRW	acq23456_noRW	2	74	0	0	300	300	569	46	0	1	1	blank2r.bmp	0	1	+	0	1	blank2r.bmp	252	1	ZHHZ	306	1	krank	559	0	0	0	0	0	0	0	0	0	0	0	0	0	0	0	0	0	0	0	0	0	0	0	0	0	0	0	0	0	0	0	0	0	0	0	0	0	0	0
082119	15:25:03	15:31:25	381816	5.0.10.0	5_exp_noRW	110	Rpleas_acq	CS_A	CPPC	JQQJ	ZHHZ	YFFY	LWWL	DXXD	küssen	gütig	sonnig	genießen	träumen	vertrauen	krank	gierig	sterben	gemein	töten	versagen	53pct	acq_USpleas_CSpleas1_noRW	acq23456_noRW	2	75	0	0	300	300	625	50	0	1	1	blank2r.bmp	0	1	+	0	1	blank2r.bmp	252	1	CPPC	306	3	sonnig	559	0	0	0	0	0	0	0	0	0	0	0	0	0	0	0	0	0	0	0	0	0	0	0	0	0	0	0	0	0	0	0	0	0	0	0	0	0	0	0
082119	15:25:03	15:31:27	383576	5.0.10.0	5_exp_noRW	110	Rpleas_acq	CS_A	CPPC	JQQJ	ZHHZ	YFFY	LWWL	DXXD	küssen	gütig	sonnig	genießen	träumen	vertrauen	krank	gierig	sterben	gemein	töten	versagen	53pct	acq_USunple_CSunple1_noRW	acq23456_noRW	2	76	0	0	300	300	580	46	0	1	1	blank2r.bmp	0	1	+	0	1	blank2r.bmp	252	1	ZHHZ	306	1	krank	559	0	0	0	0	0	0	0	0	0	0	0	0	0	0	0	0	0	0	0	0	0	0	0	0	0	0	0	0	0	0	0	0	0	0	0	0	0	0	0
082119	15:25:03	15:31:29	385615	5.0.10.0	5_exp_noRW	110	Rpleas_acq	CS_A	CPPC	JQQJ	ZHHZ	YFFY	LWWL	DXXD	küssen	gütig	sonnig	genießen	träumen	vertrauen	krank	gierig	sterben	gemein	töten	versagen	53pct	acq_USunple_CSunple1_noRW	acq23456_noRW	2	77	0	0	300	300	860	46	0	1	1	blank2r.bmp	0	1	+	0	1	blank2r.bmp	252	1	ZHHZ	306	2	gierig	559	0	0	0	0	0	0	0	0	0	0	0	0	0	0	0	0	0	0	0	0	0	0	0	0	0	0	0	0	0	0	0	0	0	0	0	0	0	0	0
082119	15:25:03	15:31:31	387467	5.0.10.0	5_exp_noRW	110	Rpleas_acq	CS_A	CPPC	JQQJ	ZHHZ	YFFY	LWWL	DXXD	küssen	gütig	sonnig	genießen	träumen	vertrauen	krank	gierig	sterben	gemein	töten	versagen	53pct	acq_USunple_CSunple2_noRW	acq23456_noRW	2	78	0	0	300	300	678	46	0	1	1	blank2r.bmp	0	1	+	0	1	blank2r.bmp	252	1	YFFY	306	3	versagen	559	0	0	0	0	0	0	0	0	0	0	0	0	0	0	0	0	0	0	0	0	0	0	0	0	0	0	0	0	0	0	0	0	0	0	0	0	0	0	0
082119	15:25:03	15:31:33	389373	5.0.10.0	5_exp_noRW	110	Rpleas_acq	CS_A	CPPC	JQQJ	ZHHZ	YFFY	LWWL	DXXD	küssen	gütig	sonnig	genießen	träumen	vertrauen	krank	gierig	sterben	gemein	töten	versagen	47pct	acq_USunple_CSunple2_noRW	acq23456_noRW	2	79	0	0	300	300	709	46	0	1	1	blank2r.bmp	0	1	+	0	1	blank2r.bmp	252	1	YFFY	306	2	töten	559	0	0	0	0	0	0	0	0	0	0	0	0	0	0	0	0	0	0	0	0	0	0	0	0	0	0	0	0	0	0	0	0	0	0	0	0	0	0	0
082119	15:25:03	15:31:35	391119	5.0.10.0	5_exp_noRW	110	Rpleas_acq	CS_A	CPPC	JQQJ	ZHHZ	YFFY	LWWL	DXXD	küssen	gütig	sonnig	genießen	träumen	vertrauen	krank	gierig	sterben	gemein	töten	versagen	47pct	acq_USunple_CSunple2_noRW	acq23456_noRW	2	80	0	0	300	300	574	46	0	1	1	blank2r.bmp	0	1	+	0	1	blank2r.bmp	252	1	YFFY	306	1	gemein	559	0	0	0	0	0	0	0	0	0	0	0	0	0	0	0	0	0	0	0	0	0	0	0	0	0	0	0	0	0	0	0	0	0	0	0	0	0	0	0
082119	15:25:03	15:32:06	422346	5.0.10.0	5_exp_noRW	110	Rpleas_acq	CS_A	CPPC	JQQJ	ZHHZ	YFFY	LWWL	DXXD	küssen	gütig	sonnig	genießen	träumen	vertrauen	krank	gierig	sterben	gemein	töten	versagen	47pct	acq_USunple_CSunple2_noRW	acq23456_noRW	3	1	0	0	300	300	2000	0	0	0	1	blank2r.bmp	0	1	+	0	1	blank2r.bmp	252	1	YFFY	306	3	versagen	559	1	FEHLER	2598	1	Schneller!	2598	0	0	0	0	0	0	0	0	0	0	0	0	0	0	0	0	0	0	0	0	0	0	0	0	0	0	0	0	0	0	0	0	0
082119	15:25:03	15:32:08	424052	5.0.10.0	5_exp_noRW	110	Rpleas_acq	CS_A	CPPC	JQQJ	ZHHZ	YFFY	LWWL	DXXD	küssen	gütig	sonnig	genießen	träumen	vertrauen	krank	gierig	sterben	gemein	töten	versagen	53pct	acq_USunple_CSpleas2_noRW	acq23456_noRW	3	2	0	0	300	300	819	46	0	1	1	blank2r.bmp	0	1	+	0	1	blank2r.bmp	252	1	JQQJ	306	2	töten	559	0	0	0	0	0	0	0	0	0	0	0	0	0	0	0	0	0	0	0	0	0	0	0	0	0	0	0	0	0	0	0	0	0	0	0	0	0	0	0
082119	15:25:03	15:32:10	426092	5.0.10.0	5_exp_noRW	110	Rpleas_acq	CS_A	CPPC	JQQJ	ZHHZ	YFFY	LWWL	DXXD	küssen	gütig	sonnig	genießen	träumen	vertrauen	krank	gierig	sterben	gemein	töten	versagen	53pct	acq_USpleas_CSunple2_noRW	acq23456_noRW	3	3	0	0	300	300	869	50	0	1	1	blank2r.bmp	0	1	+	0	1	blank2r.bmp	252	1	YFFY	306	3	vertrauen	559	0	0	0	0	0	0	0	0	0	0	0	0	0	0	0	0	0	0	0	0	0	0	0	0	0	0	0	0	0	0	0	0	0	0	0	0	0	0	0
082119	15:25:03	15:32:11	427811	5.0.10.0	5_exp_noRW	110	Rpleas_acq	CS_A	CPPC	JQQJ	ZHHZ	YFFY	LWWL	DXXD	küssen	gütig	sonnig	genießen	träumen	vertrauen	krank	gierig	sterben	gemein	töten	versagen	53pct	acq_USpleas_CSpleas1_noRW	acq23456_noRW	3	4	0	0	300	300	557	50	0	1	1	blank2r.bmp	0	1	+	0	1	blank2r.bmp	252	1	CPPC	306	2	gütig	559	0	0	0	0	0	0	0	0	0	0	0	0	0	0	0	0	0	0	0	0	0	0	0	0	0	0	0	0	0	0	0	0	0	0	0	0	0	0	0
082119	15:25:03	15:32:13	429717	5.0.10.0	5_exp_noRW	110	Rpleas_acq	CS_A	CPPC	JQQJ	ZHHZ	YFFY	LWWL	DXXD	küssen	gütig	sonnig	genießen	träumen	vertrauen	krank	gierig	sterben	gemein	töten	versagen	53pct	acq_USunple_CSunple2_noRW	acq23456_noRW	3	5	0	0	300	300	512	50	0	0	1	blank2r.bmp	0	1	+	0	1	blank2r.bmp	252	1	YFFY	306	1	gemein	559	1	FEHLER	1106	0	0	0	0	0	0	0	0	0	0	0	0	0	0	0	0	0	0	0	0	0	0	0	0	0	0	0	0	0	0	0	0	0	0	0	0
082119	15:25:03	15:32:15	431543	5.0.10.0	5_exp_noRW	110	Rpleas_acq	CS_A	CPPC	JQQJ	ZHHZ	YFFY	LWWL	DXXD	küssen	gütig	sonnig	genießen	träumen	vertrauen	krank	gierig	sterben	gemein	töten	versagen	53pct	acq_USpleas_CSpleas2_noRW	acq23456_noRW	3	6	0	0	300	300	854	50	0	1	1	blank2r.bmp	0	1	+	0	1	blank2r.bmp	252	1	JQQJ	306	3	vertrauen	559	0	0	0	0	0	0	0	0	0	0	0	0	0	0	0	0	0	0	0	0	0	0	0	0	0	0	0	0	0	0	0	0	0	0	0	0	0	0	0
082119	15:25:03	15:32:17	433275	5.0.10.0	5_exp_noRW	110	Rpleas_acq	CS_A	CPPC	JQQJ	ZHHZ	YFFY	LWWL	DXXD	küssen	gütig	sonnig	genießen	träumen	vertrauen	krank	gierig	sterben	gemein	töten	versagen	53pct	acq_USunple_CSunple1_noRW	acq23456_noRW	3	7	0	0	300	300	567	46	0	1	1	blank2r.bmp	0	1	+	0	1	blank2r.bmp	252	1	ZHHZ	306	3	sterben	559	0	0	0	0	0	0	0	0	0	0	0	0	0	0	0	0	0	0	0	0	0	0	0	0	0	0	0	0	0	0	0	0	0	0	0	0	0	0	0
082119	15:25:03	15:32:19	435274	5.0.10.0	5_exp_noRW	110	Rpleas_acq	CS_A	CPPC	JQQJ	ZHHZ	YFFY	LWWL	DXXD	küssen	gütig	sonnig	genießen	träumen	vertrauen	krank	gierig	sterben	gemein	töten	versagen	47pct	acq_USpleas_CSpleas2_noRW	acq23456_noRW	3	8	0	0	300	300	819	50	0	1	1	blank2r.bmp	0	1	+	0	1	blank2r.bmp	252	1	JQQJ	306	2	träumen	559	0	0	0	0	0	0	0	0	0	0	0	0	0	0	0	0	0	0	0	0	0	0	0	0	0	0	0	0	0	0	0	0	0	0	0	0	0	0	0
082119	15:25:03	15:32:21	436980	5.0.10.0	5_exp_noRW	110	Rpleas_acq	CS_A	CPPC	JQQJ	ZHHZ	YFFY	LWWL	DXXD	küssen	gütig	sonnig	genießen	träumen	vertrauen	krank	gierig	sterben	gemein	töten	versagen	53pct	acq_USunple_CSunple1_noRW	acq23456_noRW	3	9	0	0	300	300	530	46	0	1	1	blank2r.bmp	0	1	+	0	1	blank2r.bmp	252	1	ZHHZ	306	1	krank	559	0	0	0	0	0	0	0	0	0	0	0	0	0	0	0	0	0	0	0	0	0	0	0	0	0	0	0	0	0	0	0	0	0	0	0	0	0	0	0
082119	15:25:03	15:32:22	438713	5.0.10.0	5_exp_noRW	110	Rpleas_acq	CS_A	CPPC	JQQJ	ZHHZ	YFFY	LWWL	DXXD	küssen	gütig	sonnig	genießen	träumen	vertrauen	krank	gierig	sterben	gemein	töten	versagen	47pct	acq_USpleas_CSpleas1_noRW	acq23456_noRW	3	10	0	0	300	300	568	50	0	1	1	blank2r.bmp	0	1	+	0	1	blank2r.bmp	252	1	CPPC	306	2	gütig	559	0	0	0	0	0	0	0	0	0	0	0	0	0	0	0	0	0	0	0	0	0	0	0	0	0	0	0	0	0	0	0	0	0	0	0	0	0	0	0
082119	15:25:03	15:32:24	440659	5.0.10.0	5_exp_noRW	110	Rpleas_acq	CS_A	CPPC	JQQJ	ZHHZ	YFFY	LWWL	DXXD	küssen	gütig	sonnig	genießen	träumen	vertrauen	krank	gierig	sterben	gemein	töten	versagen	53pct	acq_USunple_CSunple2_noRW	acq23456_noRW	3	11	0	0	300	300	780	46	0	1	1	blank2r.bmp	0	1	+	0	1	blank2r.bmp	252	1	YFFY	306	3	versagen	559	0	0	0	0	0	0	0	0	0	0	0	0	0	0	0	0	0	0	0	0	0	0	0	0	0	0	0	0	0	0	0	0	0	0	0	0	0	0	0
082119	15:25:03	15:32:26	442432	5.0.10.0	5_exp_noRW	110	Rpleas_acq	CS_A	CPPC	JQQJ	ZHHZ	YFFY	LWWL	DXXD	küssen	gütig	sonnig	genießen	träumen	vertrauen	krank	gierig	sterben	gemein	töten	versagen	47pct	acq_USunple_CSunple1_noRW	acq23456_noRW	3	12	0	0	300	300	594	46	0	1	1	blank2r.bmp	0	1	+	0	1	blank2r.bmp	252	1	ZHHZ	306	2	gierig	559	0	0	0	0	0	0	0	0	0	0	0	0	0	0	0	0	0	0	0	0	0	0	0	0	0	0	0	0	0	0	0	0	0	0	0	0	0	0	0
082119	15:25:03	15:32:28	444191	5.0.10.0	5_exp_noRW	110	Rpleas_acq	CS_A	CPPC	JQQJ	ZHHZ	YFFY	LWWL	DXXD	küssen	gütig	sonnig	genießen	träumen	vertrauen	krank	gierig	sterben	gemein	töten	versagen	53pct	acq_USunple_CSunple2_noRW	acq23456_noRW	3	13	0	0	300	300	573	46	0	1	1	blank2r.bmp	0	1	+	0	1	blank2r.bmp	252	1	YFFY	306	2	töten	559	0	0	0	0	0	0	0	0	0	0	0	0	0	0	0	0	0	0	0	0	0	0	0	0	0	0	0	0	0	0	0	0	0	0	0	0	0	0	0
082119	15:25:03	15:32:30	445963	5.0.10.0	5_exp_noRW	110	Rpleas_acq	CS_A	CPPC	JQQJ	ZHHZ	YFFY	LWWL	DXXD	küssen	gütig	sonnig	genießen	träumen	vertrauen	krank	gierig	sterben	gemein	töten	versagen	47pct	acq_USunple_CSpleas1_noRW	acq23456_noRW	3	14	0	0	300	300	605	46	0	1	1	blank2r.bmp	0	1	+	0	1	blank2r.bmp	252	1	CPPC	306	3	sterben	559	0	0	0	0	0	0	0	0	0	0	0	0	0	0	0	0	0	0	0	0	0	0	0	0	0	0	0	0	0	0	0	0	0	0	0	0	0	0	0
082119	15:25:03	15:32:32	447883	5.0.10.0	5_exp_noRW	110	Rpleas_acq	CS_A	CPPC	JQQJ	ZHHZ	YFFY	LWWL	DXXD	küssen	gütig	sonnig	genießen	träumen	vertrauen	krank	gierig	sterben	gemein	töten	versagen	53pct	acq_USpleas_CSpleas2_noRW	acq23456_noRW	3	15	0	0	300	300	744	50	0	1	1	blank2r.bmp	0	1	+	0	1	blank2r.bmp	252	1	JQQJ	306	1	genießen	559	0	0	0	0	0	0	0	0	0	0	0	0	0	0	0	0	0	0	0	0	0	0	0	0	0	0	0	0	0	0	0	0	0	0	0	0	0	0	0
082119	15:25:03	15:32:33	449589	5.0.10.0	5_exp_noRW	110	Rpleas_acq	CS_A	CPPC	JQQJ	ZHHZ	YFFY	LWWL	DXXD	küssen	gütig	sonnig	genießen	träumen	vertrauen	krank	gierig	sterben	gemein	töten	versagen	47pct	acq_USunple_CSunple1_noRW	acq23456_noRW	3	16	0	0	300	300	526	46	0	1	1	blank2r.bmp	0	1	+	0	1	blank2r.bmp	252	1	ZHHZ	306	3	sterben	559	0	0	0	0	0	0	0	0	0	0	0	0	0	0	0	0	0	0	0	0	0	0	0	0	0	0	0	0	0	0	0	0	0	0	0	0	0	0	0
082119	15:25:03	15:32:35	451588	5.0.10.0	5_exp_noRW	110	Rpleas_acq	CS_A	CPPC	JQQJ	ZHHZ	YFFY	LWWL	DXXD	küssen	gütig	sonnig	genießen	träumen	vertrauen	krank	gierig	sterben	gemein	töten	versagen	53pct	acq_USpleas_CSpleas1_noRW	acq23456_noRW	3	17	0	0	300	300	831	50	0	1	1	blank2r.bmp	0	1	+	0	1	blank2r.bmp	252	1	CPPC	306	3	sonnig	559	0	0	0	0	0	0	0	0	0	0	0	0	0	0	0	0	0	0	0	0	0	0	0	0	0	0	0	0	0	0	0	0	0	0	0	0	0	0	0
082119	15:25:03	15:32:37	453747	5.0.10.0	5_exp_noRW	110	Rpleas_acq	CS_A	CPPC	JQQJ	ZHHZ	YFFY	LWWL	DXXD	küssen	gütig	sonnig	genießen	träumen	vertrauen	krank	gierig	sterben	gemein	töten	versagen	47pct	acq_USpleas_CSunple1_noRW	acq23456_noRW	3	18	0	0	300	300	987	50	0	1	1	blank2r.bmp	0	1	+	0	1	blank2r.bmp	252	1	ZHHZ	306	3	sonnig	559	0	0	0	0	0	0	0	0	0	0	0	0	0	0	0	0	0	0	0	0	0	0	0	0	0	0	0	0	0	0	0	0	0	0	0	0	0	0	0
082119	15:25:03	15:32:39	455626	5.0.10.0	5_exp_noRW	110	Rpleas_acq	CS_A	CPPC	JQQJ	ZHHZ	YFFY	LWWL	DXXD	küssen	gütig	sonnig	genießen	träumen	vertrauen	krank	gierig	sterben	gemein	töten	versagen	47pct	acq_USpleas_CSpleas2_noRW	acq23456_noRW	3	19	0	0	300	300	702	50	0	1	1	blank2r.bmp	0	1	+	0	1	blank2r.bmp	252	1	JQQJ	306	3	vertrauen	559	0	0	0	0	0	0	0	0	0	0	0	0	0	0	0	0	0	0	0	0	0	0	0	0	0	0	0	0	0	0	0	0	0	0	0	0	0	0	0
082119	15:25:03	15:32:41	457692	5.0.10.0	5_exp_noRW	110	Rpleas_acq	CS_A	CPPC	JQQJ	ZHHZ	YFFY	LWWL	DXXD	küssen	gütig	sonnig	genießen	träumen	vertrauen	krank	gierig	sterben	gemein	töten	versagen	53pct	acq_USpleas_CSpleas1_noRW	acq23456_noRW	3	20	0	0	300	300	879	50	0	1	1	blank2r.bmp	0	1	+	0	1	blank2r.bmp	252	1	CPPC	306	1	küssen	559	0	0	0	0	0	0	0	0	0	0	0	0	0	0	0	0	0	0	0	0	0	0	0	0	0	0	0	0	0	0	0	0	0	0	0	0	0	0	0
082119	15:25:03	15:32:43	459411	5.0.10.0	5_exp_noRW	110	Rpleas_acq	CS_A	CPPC	JQQJ	ZHHZ	YFFY	LWWL	DXXD	küssen	gütig	sonnig	genießen	träumen	vertrauen	krank	gierig	sterben	gemein	töten	versagen	53pct	acq_USunple_CSunple1_noRW	acq23456_noRW	3	21	0	0	300	300	548	46	0	1	1	blank2r.bmp	0	1	+	0	1	blank2r.bmp	252	1	ZHHZ	306	1	krank	559	0	0	0	0	0	0	0	0	0	0	0	0	0	0	0	0	0	0	0	0	0	0	0	0	0	0	0	0	0	0	0	0	0	0	0	0	0	0	0
082119	15:25:03	15:32:45	461357	5.0.10.0	5_exp_noRW	110	Rpleas_acq	CS_A	CPPC	JQQJ	ZHHZ	YFFY	LWWL	DXXD	küssen	gütig	sonnig	genießen	träumen	vertrauen	krank	gierig	sterben	gemein	töten	versagen	53pct	acq_USpleas_CSpleas2_noRW	acq23456_noRW	3	22	0	0	300	300	768	50	0	1	1	blank2r.bmp	0	1	+	0	1	blank2r.bmp	252	1	JQQJ	306	3	vertrauen	559	0	0	0	0	0	0	0	0	0	0	0	0	0	0	0	0	0	0	0	0	0	0	0	0	0	0	0	0	0	0	0	0	0	0	0	0	0	0	0
082119	15:25:03	15:32:47	463090	5.0.10.0	5_exp_noRW	110	Rpleas_acq	CS_A	CPPC	JQQJ	ZHHZ	YFFY	LWWL	DXXD	küssen	gütig	sonnig	genießen	träumen	vertrauen	krank	gierig	sterben	gemein	töten	versagen	47pct	acq_USunple_CSunple1_noRW	acq23456_noRW	3	23	0	0	300	300	552	46	0	1	1	blank2r.bmp	0	1	+	0	1	blank2r.bmp	252	1	ZHHZ	306	2	gierig	559	0	0	0	0	0	0	0	0	0	0	0	0	0	0	0	0	0	0	0	0	0	0	0	0	0	0	0	0	0	0	0	0	0	0	0	0	0	0	0
082119	15:25:03	15:32:49	465036	5.0.10.0	5_exp_noRW	110	Rpleas_acq	CS_A	CPPC	JQQJ	ZHHZ	YFFY	LWWL	DXXD	küssen	gütig	sonnig	genießen	träumen	vertrauen	krank	gierig	sterben	gemein	töten	versagen	53pct	acq_USpleas_CSpleas1_noRW	acq23456_noRW	3	24	0	0	300	300	553	46	0	0	1	blank2r.bmp	0	1	+	0	1	blank2r.bmp	252	1	CPPC	306	3	sonnig	559	1	FEHLER	1146	0	0	0	0	0	0	0	0	0	0	0	0	0	0	0	0	0	0	0	0	0	0	0	0	0	0	0	0	0	0	0	0	0	0	0	0
082119	15:25:03	15:32:50	466688	5.0.10.0	5_exp_noRW	110	Rpleas_acq	CS_A	CPPC	JQQJ	ZHHZ	YFFY	LWWL	DXXD	küssen	gütig	sonnig	genießen	träumen	vertrauen	krank	gierig	sterben	gemein	töten	versagen	53pct	acq_USunple_CSunple1_noRW	acq23456_noRW	3	25	0	0	300	300	687	46	0	1	1	blank2r.bmp	0	1	+	0	1	blank2r.bmp	252	1	ZHHZ	306	3	sterben	559	0	0	0	0	0	0	0	0	0	0	0	0	0	0	0	0	0	0	0	0	0	0	0	0	0	0	0	0	0	0	0	0	0	0	0	0	0	0	0
082119	15:25:03	15:32:52	468474	5.0.10.0	5_exp_noRW	110	Rpleas_acq	CS_A	CPPC	JQQJ	ZHHZ	YFFY	LWWL	DXXD	küssen	gütig	sonnig	genießen	träumen	vertrauen	krank	gierig	sterben	gemein	töten	versagen	47pct	acq_USpleas_CSunple2_noRW	acq23456_noRW	3	26	0	0	300	300	606	50	0	1	1	blank2r.bmp	0	1	+	0	1	blank2r.bmp	252	1	YFFY	306	1	genießen	559	0	0	0	0	0	0	0	0	0	0	0	0	0	0	0	0	0	0	0	0	0	0	0	0	0	0	0	0	0	0	0	0	0	0	0	0	0	0	0
082119	15:25:03	15:32:54	470780	5.0.10.0	5_exp_noRW	110	Rpleas_acq	CS_A	CPPC	JQQJ	ZHHZ	YFFY	LWWL	DXXD	küssen	gütig	sonnig	genießen	träumen	vertrauen	krank	gierig	sterben	gemein	töten	versagen	47pct	acq_USunple_CSunple2_noRW	acq23456_noRW	3	27	0	0	300	300	1129	46	0	1	1	blank2r.bmp	0	1	+	0	1	blank2r.bmp	252	1	YFFY	306	3	versagen	559	0	0	0	0	0	0	0	0	0	0	0	0	0	0	0	0	0	0	0	0	0	0	0	0	0	0	0	0	0	0	0	0	0	0	0	0	0	0	0
082119	15:25:03	15:32:56	472566	5.0.10.0	5_exp_noRW	110	Rpleas_acq	CS_A	CPPC	JQQJ	ZHHZ	YFFY	LWWL	DXXD	küssen	gütig	sonnig	genießen	träumen	vertrauen	krank	gierig	sterben	gemein	töten	versagen	53pct	acq_USpleas_CSpleas1_noRW	acq23456_noRW	3	28	0	0	300	300	604	50	0	1	1	blank2r.bmp	0	1	+	0	1	blank2r.bmp	252	1	CPPC	306	2	gütig	559	0	0	0	0	0	0	0	0	0	0	0	0	0	0	0	0	0	0	0	0	0	0	0	0	0	0	0	0	0	0	0	0	0	0	0	0	0	0	0
082119	15:25:03	15:32:58	474418	5.0.10.0	5_exp_noRW	110	Rpleas_acq	CS_A	CPPC	JQQJ	ZHHZ	YFFY	LWWL	DXXD	küssen	gütig	sonnig	genießen	träumen	vertrauen	krank	gierig	sterben	gemein	töten	versagen	53pct	acq_USpleas_CSunple1_noRW	acq23456_noRW	3	29	0	0	300	300	680	50	0	1	1	blank2r.bmp	0	1	+	0	1	blank2r.bmp	252	1	ZHHZ	306	1	küssen	559	0	0	0	0	0	0	0	0	0	0	0	0	0	0	0	0	0	0	0	0	0	0	0	0	0	0	0	0	0	0	0	0	0	0	0	0	0	0	0
082119	15:25:03	15:33:00	476791	5.0.10.0	5_exp_noRW	110	Rpleas_acq	CS_A	CPPC	JQQJ	ZHHZ	YFFY	LWWL	DXXD	küssen	gütig	sonnig	genießen	träumen	vertrauen	krank	gierig	sterben	gemein	töten	versagen	47pct	acq_USunple_CSpleas1_noRW	acq23456_noRW	3	30	0	0	300	300	1196	46	0	1	1	blank2r.bmp	0	1	+	0	1	blank2r.bmp	252	1	CPPC	306	2	gierig	559	0	0	0	0	0	0	0	0	0	0	0	0	0	0	0	0	0	0	0	0	0	0	0	0	0	0	0	0	0	0	0	0	0	0	0	0	0	0	0
082119	15:25:03	15:33:02	478523	5.0.10.0	5_exp_noRW	110	Rpleas_acq	CS_A	CPPC	JQQJ	ZHHZ	YFFY	LWWL	DXXD	küssen	gütig	sonnig	genießen	träumen	vertrauen	krank	gierig	sterben	gemein	töten	versagen	53pct	acq_USunple_CSunple1_noRW	acq23456_noRW	3	31	0	0	300	300	570	46	0	1	1	blank2r.bmp	0	1	+	0	1	blank2r.bmp	252	1	ZHHZ	306	3	sterben	559	0	0	0	0	0	0	0	0	0	0	0	0	0	0	0	0	0	0	0	0	0	0	0	0	0	0	0	0	0	0	0	0	0	0	0	0	0	0	0
082119	15:25:03	15:33:04	480216	5.0.10.0	5_exp_noRW	110	Rpleas_acq	CS_A	CPPC	JQQJ	ZHHZ	YFFY	LWWL	DXXD	küssen	gütig	sonnig	genießen	träumen	vertrauen	krank	gierig	sterben	gemein	töten	versagen	53pct	acq_USpleas_CSpleas2_noRW	acq23456_noRW	3	32	0	0	300	300	531	50	0	1	1	blank2r.bmp	0	1	+	0	1	blank2r.bmp	252	1	JQQJ	306	2	träumen	559	0	0	0	0	0	0	0	0	0	0	0	0	0	0	0	0	0	0	0	0	0	0	0	0	0	0	0	0	0	0	0	0	0	0	0	0	0	0	0
082119	15:25:03	15:33:06	481989	5.0.10.0	5_exp_noRW	110	Rpleas_acq	CS_A	CPPC	JQQJ	ZHHZ	YFFY	LWWL	DXXD	küssen	gütig	sonnig	genießen	träumen	vertrauen	krank	gierig	sterben	gemein	töten	versagen	47pct	acq_USunple_CSunple2_noRW	acq23456_noRW	3	33	0	0	300	300	592	46	0	1	1	blank2r.bmp	0	1	+	0	1	blank2r.bmp	252	1	YFFY	306	1	gemein	559	0	0	0	0	0	0	0	0	0	0	0	0	0	0	0	0	0	0	0	0	0	0	0	0	0	0	0	0	0	0	0	0	0	0	0	0	0	0	0
082119	15:25:03	15:33:08	484028	5.0.10.0	5_exp_noRW	110	Rpleas_acq	CS_A	CPPC	JQQJ	ZHHZ	YFFY	LWWL	DXXD	küssen	gütig	sonnig	genießen	träumen	vertrauen	krank	gierig	sterben	gemein	töten	versagen	53pct	acq_USunple_CSunple2_noRW	acq23456_noRW	3	34	0	0	300	300	873	46	0	1	1	blank2r.bmp	0	1	+	0	1	blank2r.bmp	252	1	YFFY	306	2	töten	559	0	0	0	0	0	0	0	0	0	0	0	0	0	0	0	0	0	0	0	0	0	0	0	0	0	0	0	0	0	0	0	0	0	0	0	0	0	0	0
082119	15:25:03	15:33:10	486200	5.0.10.0	5_exp_noRW	110	Rpleas_acq	CS_A	CPPC	JQQJ	ZHHZ	YFFY	LWWL	DXXD	küssen	gütig	sonnig	genießen	träumen	vertrauen	krank	gierig	sterben	gemein	töten	versagen	47pct	acq_USpleas_CSpleas1_noRW	acq23456_noRW	3	35	0	0	300	300	988	50	0	1	1	blank2r.bmp	0	1	+	0	1	blank2r.bmp	252	1	CPPC	306	1	küssen	559	0	0	0	0	0	0	0	0	0	0	0	0	0	0	0	0	0	0	0	0	0	0	0	0	0	0	0	0	0	0	0	0	0	0	0	0	0	0	0
082119	15:25:03	15:33:12	488653	5.0.10.0	5_exp_noRW	110	Rpleas_acq	CS_A	CPPC	JQQJ	ZHHZ	YFFY	LWWL	DXXD	küssen	gütig	sonnig	genießen	träumen	vertrauen	krank	gierig	sterben	gemein	töten	versagen	47pct	acq_USunple_CSpleas2_noRW	acq23456_noRW	3	36	0	0	300	300	1282	46	0	1	1	blank2r.bmp	0	1	+	0	1	blank2r.bmp	252	1	JQQJ	306	1	gemein	559	0	0	0	0	0	0	0	0	0	0	0	0	0	0	0	0	0	0	0	0	0	0	0	0	0	0	0	0	0	0	0	0	0	0	0	0	0	0	0
082119	15:25:03	15:33:14	490519	5.0.10.0	5_exp_noRW	110	Rpleas_acq	CS_A	CPPC	JQQJ	ZHHZ	YFFY	LWWL	DXXD	küssen	gütig	sonnig	genießen	träumen	vertrauen	krank	gierig	sterben	gemein	töten	versagen	53pct	acq_USpleas_CSpleas2_noRW	acq23456_noRW	3	37	0	0	300	300	692	50	0	1	1	blank2r.bmp	0	1	+	0	1	blank2r.bmp	252	1	JQQJ	306	1	genießen	559	0	0	0	0	0	0	0	0	0	0	0	0	0	0	0	0	0	0	0	0	0	0	0	0	0	0	0	0	0	0	0	0	0	0	0	0	0	0	0
082119	15:25:03	15:33:16	492398	5.0.10.0	5_exp_noRW	110	Rpleas_acq	CS_A	CPPC	JQQJ	ZHHZ	YFFY	LWWL	DXXD	küssen	gütig	sonnig	genießen	träumen	vertrauen	krank	gierig	sterben	gemein	töten	versagen	47pct	acq_USunple_CSunple2_noRW	acq23456_noRW	3	38	0	0	300	300	714	46	0	1	1	blank2r.bmp	0	1	+	0	1	blank2r.bmp	252	1	YFFY	306	2	töten	559	0	0	0	0	0	0	0	0	0	0	0	0	0	0	0	0	0	0	0	0	0	0	0	0	0	0	0	0	0	0	0	0	0	0	0	0	0	0	0
082119	15:25:03	15:33:18	494197	5.0.10.0	5_exp_noRW	110	Rpleas_acq	CS_A	CPPC	JQQJ	ZHHZ	YFFY	LWWL	DXXD	küssen	gütig	sonnig	genießen	träumen	vertrauen	krank	gierig	sterben	gemein	töten	versagen	47pct	acq_USpleas_CSpleas1_noRW	acq23456_noRW	3	39	0	0	300	300	623	50	0	1	1	blank2r.bmp	0	1	+	0	1	blank2r.bmp	252	1	CPPC	306	2	gütig	559	0	0	0	0	0	0	0	0	0	0	0	0	0	0	0	0	0	0	0	0	0	0	0	0	0	0	0	0	0	0	0	0	0	0	0	0	0	0	0
082119	15:25:03	15:33:20	496183	5.0.10.0	5_exp_noRW	110	Rpleas_acq	CS_A	CPPC	JQQJ	ZHHZ	YFFY	LWWL	DXXD	küssen	gütig	sonnig	genießen	träumen	vertrauen	krank	gierig	sterben	gemein	töten	versagen	53pct	acq_USpleas_CSpleas2_noRW	acq23456_noRW	3	40	0	0	300	300	809	50	0	1	1	blank2r.bmp	0	1	+	0	1	blank2r.bmp	252	1	JQQJ	306	1	genießen	559	0	0	0	0	0	0	0	0	0	0	0	0	0	0	0	0	0	0	0	0	0	0	0	0	0	0	0	0	0	0	0	0	0	0	0	0	0	0	0
082119	15:25:03	15:33:22	497929	5.0.10.0	5_exp_noRW	110	Rpleas_acq	CS_A	CPPC	JQQJ	ZHHZ	YFFY	LWWL	DXXD	küssen	gütig	sonnig	genießen	träumen	vertrauen	krank	gierig	sterben	gemein	töten	versagen	53pct	acq_USunple_CSpleas2_noRW	acq23456_noRW	3	41	0	0	300	300	582	46	0	1	1	blank2r.bmp	0	1	+	0	1	blank2r.bmp	252	1	JQQJ	306	2	töten	559	0	0	0	0	0	0	0	0	0	0	0	0	0	0	0	0	0	0	0	0	0	0	0	0	0	0	0	0	0	0	0	0	0	0	0	0	0	0	0
082119	15:25:03	15:33:23	499821	5.0.10.0	5_exp_noRW	110	Rpleas_acq	CS_A	CPPC	JQQJ	ZHHZ	YFFY	LWWL	DXXD	küssen	gütig	sonnig	genießen	träumen	vertrauen	krank	gierig	sterben	gemein	töten	versagen	53pct	acq_USpleas_CSunple2_noRW	acq23456_noRW	3	42	0	0	300	300	719	50	0	1	1	blank2r.bmp	0	1	+	0	1	blank2r.bmp	252	1	YFFY	306	3	vertrauen	559	0	0	0	0	0	0	0	0	0	0	0	0	0	0	0	0	0	0	0	0	0	0	0	0	0	0	0	0	0	0	0	0	0	0	0	0	0	0	0
082119	15:25:03	15:33:25	501687	5.0.10.0	5_exp_noRW	110	Rpleas_acq	CS_A	CPPC	JQQJ	ZHHZ	YFFY	LWWL	DXXD	küssen	gütig	sonnig	genießen	träumen	vertrauen	krank	gierig	sterben	gemein	töten	versagen	47pct	acq_USpleas_CSpleas2_noRW	acq23456_noRW	3	43	0	0	300	300	700	50	0	1	1	blank2r.bmp	0	1	+	0	1	blank2r.bmp	252	1	JQQJ	306	2	träumen	559	0	0	0	0	0	0	0	0	0	0	0	0	0	0	0	0	0	0	0	0	0	0	0	0	0	0	0	0	0	0	0	0	0	0	0	0	0	0	0
082119	15:25:03	15:33:27	503393	5.0.10.0	5_exp_noRW	110	Rpleas_acq	CS_A	CPPC	JQQJ	ZHHZ	YFFY	LWWL	DXXD	küssen	gütig	sonnig	genießen	träumen	vertrauen	krank	gierig	sterben	gemein	töten	versagen	53pct	acq_USunple_CSunple2_noRW	acq23456_noRW	3	44	0	0	300	300	523	46	0	1	1	blank2r.bmp	0	1	+	0	1	blank2r.bmp	252	1	YFFY	306	1	gemein	559	0	0	0	0	0	0	0	0	0	0	0	0	0	0	0	0	0	0	0	0	0	0	0	0	0	0	0	0	0	0	0	0	0	0	0	0	0	0	0
082119	15:25:03	15:33:29	505286	5.0.10.0	5_exp_noRW	110	Rpleas_acq	CS_A	CPPC	JQQJ	ZHHZ	YFFY	LWWL	DXXD	küssen	gütig	sonnig	genießen	träumen	vertrauen	krank	gierig	sterben	gemein	töten	versagen	47pct	acq_USunple_CSunple2_noRW	acq23456_noRW	3	45	0	0	300	300	724	46	0	1	1	blank2r.bmp	0	1	+	0	1	blank2r.bmp	252	1	YFFY	306	3	versagen	559	0	0	0	0	0	0	0	0	0	0	0	0	0	0	0	0	0	0	0	0	0	0	0	0	0	0	0	0	0	0	0	0	0	0	0	0	0	0	0
082119	15:25:03	15:33:31	507032	5.0.10.0	5_exp_noRW	110	Rpleas_acq	CS_A	CPPC	JQQJ	ZHHZ	YFFY	LWWL	DXXD	küssen	gütig	sonnig	genießen	träumen	vertrauen	krank	gierig	sterben	gemein	töten	versagen	53pct	acq_USpleas_CSpleas2_noRW	acq23456_noRW	3	46	0	0	300	300	562	50	0	1	1	blank2r.bmp	0	1	+	0	1	blank2r.bmp	252	1	JQQJ	306	3	vertrauen	559	0	0	0	0	0	0	0	0	0	0	0	0	0	0	0	0	0	0	0	0	0	0	0	0	0	0	0	0	0	0	0	0	0	0	0	0	0	0	0
082119	15:25:03	15:33:32	508751	5.0.10.0	5_exp_noRW	110	Rpleas_acq	CS_A	CPPC	JQQJ	ZHHZ	YFFY	LWWL	DXXD	küssen	gütig	sonnig	genießen	träumen	vertrauen	krank	gierig	sterben	gemein	töten	versagen	47pct	acq_USpleas_CSpleas1_noRW	acq23456_noRW	3	47	0	0	300	300	557	50	0	1	1	blank2r.bmp	0	1	+	0	1	blank2r.bmp	252	1	CPPC	306	3	sonnig	559	0	0	0	0	0	0	0	0	0	0	0	0	0	0	0	0	0	0	0	0	0	0	0	0	0	0	0	0	0	0	0	0	0	0	0	0	0	0	0
082119	15:25:03	15:33:34	510457	5.0.10.0	5_exp_noRW	110	Rpleas_acq	CS_A	CPPC	JQQJ	ZHHZ	YFFY	LWWL	DXXD	küssen	gütig	sonnig	genießen	träumen	vertrauen	krank	gierig	sterben	gemein	töten	versagen	53pct	acq_USpleas_CSpleas2_noRW	acq23456_noRW	3	48	0	0	300	300	524	50	0	1	1	blank2r.bmp	0	1	+	0	1	blank2r.bmp	252	1	JQQJ	306	1	genießen	559	0	0	0	0	0	0	0	0	0	0	0	0	0	0	0	0	0	0	0	0	0	0	0	0	0	0	0	0	0	0	0	0	0	0	0	0	0	0	0
082119	15:25:03	15:33:36	512256	5.0.10.0	5_exp_noRW	110	Rpleas_acq	CS_A	CPPC	JQQJ	ZHHZ	YFFY	LWWL	DXXD	küssen	gütig	sonnig	genießen	träumen	vertrauen	krank	gierig	sterben	gemein	töten	versagen	47pct	acq_USunple_CSpleas1_noRW	acq23456_noRW	3	49	0	0	300	300	633	46	0	1	1	blank2r.bmp	0	1	+	0	1	blank2r.bmp	252	1	CPPC	306	3	sterben	559	0	0	0	0	0	0	0	0	0	0	0	0	0	0	0	0	0	0	0	0	0	0	0	0	0	0	0	0	0	0	0	0	0	0	0	0	0	0	0
082119	15:25:03	15:33:38	513962	5.0.10.0	5_exp_noRW	110	Rpleas_acq	CS_A	CPPC	JQQJ	ZHHZ	YFFY	LWWL	DXXD	küssen	gütig	sonnig	genießen	träumen	vertrauen	krank	gierig	sterben	gemein	töten	versagen	53pct	acq_USpleas_CSpleas1_noRW	acq23456_noRW	3	50	0	0	300	300	531	50	0	1	1	blank2r.bmp	0	1	+	0	1	blank2r.bmp	252	1	CPPC	306	1	küssen	559	0	0	0	0	0	0	0	0	0	0	0	0	0	0	0	0	0	0	0	0	0	0	0	0	0	0	0	0	0	0	0	0	0	0	0	0	0	0	0
082119	15:25:03	15:33:39	515735	5.0.10.0	5_exp_noRW	110	Rpleas_acq	CS_A	CPPC	JQQJ	ZHHZ	YFFY	LWWL	DXXD	küssen	gütig	sonnig	genießen	träumen	vertrauen	krank	gierig	sterben	gemein	töten	versagen	53pct	acq_USpleas_CSpleas2_noRW	acq23456_noRW	3	51	0	0	300	300	593	50	0	1	1	blank2r.bmp	0	1	+	0	1	blank2r.bmp	252	1	JQQJ	306	3	vertrauen	559	0	0	0	0	0	0	0	0	0	0	0	0	0	0	0	0	0	0	0	0	0	0	0	0	0	0	0	0	0	0	0	0	0	0	0	0	0	0	0
082119	15:25:03	15:33:41	517414	5.0.10.0	5_exp_noRW	110	Rpleas_acq	CS_A	CPPC	JQQJ	ZHHZ	YFFY	LWWL	DXXD	küssen	gütig	sonnig	genießen	träumen	vertrauen	krank	gierig	sterben	gemein	töten	versagen	53pct	acq_USpleas_CSunple1_noRW	acq23456_noRW	3	52	0	0	300	300	499	50	0	1	1	blank2r.bmp	0	1	+	0	1	blank2r.bmp	252	1	ZHHZ	306	3	sonnig	559	0	0	0	0	0	0	0	0	0	0	0	0	0	0	0	0	0	0	0	0	0	0	0	0	0	0	0	0	0	0	0	0	0	0	0	0	0	0	0
082119	15:25:03	15:33:43	519187	5.0.10.0	5_exp_noRW	110	Rpleas_acq	CS_A	CPPC	JQQJ	ZHHZ	YFFY	LWWL	DXXD	küssen	gütig	sonnig	genießen	träumen	vertrauen	krank	gierig	sterben	gemein	töten	versagen	47pct	acq_USunple_CSunple2_noRW	acq23456_noRW	3	53	0	0	300	300	602	46	0	1	1	blank2r.bmp	0	1	+	0	1	blank2r.bmp	252	1	YFFY	306	2	töten	559	0	0	0	0	0	0	0	0	0	0	0	0	0	0	0	0	0	0	0	0	0	0	0	0	0	0	0	0	0	0	0	0	0	0	0	0	0	0	0
082119	15:25:03	15:33:45	520959	5.0.10.0	5_exp_noRW	110	Rpleas_acq	CS_A	CPPC	JQQJ	ZHHZ	YFFY	LWWL	DXXD	küssen	gütig	sonnig	genießen	träumen	vertrauen	krank	gierig	sterben	gemein	töten	versagen	47pct	acq_USpleas_CSpleas1_noRW	acq23456_noRW	3	54	0	0	300	300	589	50	0	1	1	blank2r.bmp	0	1	+	0	1	blank2r.bmp	252	1	CPPC	306	2	gütig	559	0	0	0	0	0	0	0	0	0	0	0	0	0	0	0	0	0	0	0	0	0	0	0	0	0	0	0	0	0	0	0	0	0	0	0	0	0	0	0
082119	15:25:03	15:33:47	522852	5.0.10.0	5_exp_noRW	110	Rpleas_acq	CS_A	CPPC	JQQJ	ZHHZ	YFFY	LWWL	DXXD	küssen	gütig	sonnig	genießen	träumen	vertrauen	krank	gierig	sterben	gemein	töten	versagen	47pct	acq_USunple_CSunple1_noRW	acq23456_noRW	3	55	0	0	300	300	729	46	0	1	1	blank2r.bmp	0	1	+	0	1	blank2r.bmp	252	1	ZHHZ	306	1	krank	559	0	0	0	0	0	0	0	0	0	0	0	0	0	0	0	0	0	0	0	0	0	0	0	0	0	0	0	0	0	0	0	0	0	0	0	0	0	0	0
082119	15:25:03	15:33:48	524678	5.0.10.0	5_exp_noRW	110	Rpleas_acq	CS_A	CPPC	JQQJ	ZHHZ	YFFY	LWWL	DXXD	küssen	gütig	sonnig	genießen	träumen	vertrauen	krank	gierig	sterben	gemein	töten	versagen	47pct	acq_USunple_CSunple2_noRW	acq23456_noRW	3	56	0	0	300	300	642	46	0	1	1	blank2r.bmp	0	1	+	0	1	blank2r.bmp	252	1	YFFY	306	1	gemein	559	0	0	0	0	0	0	0	0	0	0	0	0	0	0	0	0	0	0	0	0	0	0	0	0	0	0	0	0	0	0	0	0	0	0	0	0	0	0	0
082119	15:25:03	15:33:50	526477	5.0.10.0	5_exp_noRW	110	Rpleas_acq	CS_A	CPPC	JQQJ	ZHHZ	YFFY	LWWL	DXXD	küssen	gütig	sonnig	genießen	träumen	vertrauen	krank	gierig	sterben	gemein	töten	versagen	53pct	acq_USunple_CSunple1_noRW	acq23456_noRW	3	57	0	0	300	300	614	46	0	1	1	blank2r.bmp	0	1	+	0	1	blank2r.bmp	252	1	ZHHZ	306	2	gierig	559	0	0	0	0	0	0	0	0	0	0	0	0	0	0	0	0	0	0	0	0	0	0	0	0	0	0	0	0	0	0	0	0	0	0	0	0	0	0	0
082119	15:25:03	15:33:52	528276	5.0.10.0	5_exp_noRW	110	Rpleas_acq	CS_A	CPPC	JQQJ	ZHHZ	YFFY	LWWL	DXXD	küssen	gütig	sonnig	genießen	träumen	vertrauen	krank	gierig	sterben	gemein	töten	versagen	53pct	acq_USunple_CSunple1_noRW	acq23456_noRW	3	58	0	0	300	300	627	46	0	1	1	blank2r.bmp	0	1	+	0	1	blank2r.bmp	252	1	ZHHZ	306	2	gierig	559	0	0	0	0	0	0	0	0	0	0	0	0	0	0	0	0	0	0	0	0	0	0	0	0	0	0	0	0	0	0	0	0	0	0	0	0	0	0	0
082119	15:25:03	15:33:54	529942	5.0.10.0	5_exp_noRW	110	Rpleas_acq	CS_A	CPPC	JQQJ	ZHHZ	YFFY	LWWL	DXXD	küssen	gütig	sonnig	genießen	träumen	vertrauen	krank	gierig	sterben	gemein	töten	versagen	47pct	acq_USpleas_CSpleas1_noRW	acq23456_noRW	3	59	0	0	300	300	492	50	0	1	1	blank2r.bmp	0	1	+	0	1	blank2r.bmp	252	1	CPPC	306	1	küssen	559	0	0	0	0	0	0	0	0	0	0	0	0	0	0	0	0	0	0	0	0	0	0	0	0	0	0	0	0	0	0	0	0	0	0	0	0	0	0	0
082119	15:25:03	15:33:55	531648	5.0.10.0	5_exp_noRW	110	Rpleas_acq	CS_A	CPPC	JQQJ	ZHHZ	YFFY	LWWL	DXXD	küssen	gütig	sonnig	genießen	träumen	vertrauen	krank	gierig	sterben	gemein	töten	versagen	47pct	acq_USunple_CSunple1_noRW	acq23456_noRW	3	60	0	0	300	300	535	46	0	1	1	blank2r.bmp	0	1	+	0	1	blank2r.bmp	252	1	ZHHZ	306	3	sterben	559	0	0	0	0	0	0	0	0	0	0	0	0	0	0	0	0	0	0	0	0	0	0	0	0	0	0	0	0	0	0	0	0	0	0	0	0	0	0	0
082119	15:25:03	15:33:57	533381	5.0.10.0	5_exp_noRW	110	Rpleas_acq	CS_A	CPPC	JQQJ	ZHHZ	YFFY	LWWL	DXXD	küssen	gütig	sonnig	genießen	träumen	vertrauen	krank	gierig	sterben	gemein	töten	versagen	47pct	acq_USpleas_CSpleas2_noRW	acq23456_noRW	3	61	0	0	300	300	559	50	0	1	1	blank2r.bmp	0	1	+	0	1	blank2r.bmp	252	1	JQQJ	306	2	träumen	559	0	0	0	0	0	0	0	0	0	0	0	0	0	0	0	0	0	0	0	0	0	0	0	0	0	0	0	0	0	0	0	0	0	0	0	0	0	0	0
082119	15:25:03	15:33:59	535114	5.0.10.0	5_exp_noRW	110	Rpleas_acq	CS_A	CPPC	JQQJ	ZHHZ	YFFY	LWWL	DXXD	küssen	gütig	sonnig	genießen	träumen	vertrauen	krank	gierig	sterben	gemein	töten	versagen	47pct	acq_USunple_CSunple1_noRW	acq23456_noRW	3	62	0	0	300	300	567	46	0	1	1	blank2r.bmp	0	1	+	0	1	blank2r.bmp	252	1	ZHHZ	306	1	krank	559	0	0	0	0	0	0	0	0	0	0	0	0	0	0	0	0	0	0	0	0	0	0	0	0	0	0	0	0	0	0	0	0	0	0	0	0	0	0	0
082119	15:25:03	15:34:00	536806	5.0.10.0	5_exp_noRW	110	Rpleas_acq	CS_A	CPPC	JQQJ	ZHHZ	YFFY	LWWL	DXXD	küssen	gütig	sonnig	genießen	träumen	vertrauen	krank	gierig	sterben	gemein	töten	versagen	53pct	acq_USpleas_CSpleas2_noRW	acq23456_noRW	3	63	0	0	300	300	517	50	0	1	1	blank2r.bmp	0	1	+	0	1	blank2r.bmp	252	1	JQQJ	306	1	genießen	559	0	0	0	0	0	0	0	0	0	0	0	0	0	0	0	0	0	0	0	0	0	0	0	0	0	0	0	0	0	0	0	0	0	0	0	0	0	0	0
082119	15:25:03	15:34:02	538486	5.0.10.0	5_exp_noRW	110	Rpleas_acq	CS_A	CPPC	JQQJ	ZHHZ	YFFY	LWWL	DXXD	küssen	gütig	sonnig	genießen	träumen	vertrauen	krank	gierig	sterben	gemein	töten	versagen	53pct	acq_USpleas_CSpleas1_noRW	acq23456_noRW	3	64	0	0	300	300	500	50	0	1	1	blank2r.bmp	0	1	+	0	1	blank2r.bmp	252	1	CPPC	306	3	sonnig	559	0	0	0	0	0	0	0	0	0	0	0	0	0	0	0	0	0	0	0	0	0	0	0	0	0	0	0	0	0	0	0	0	0	0	0	0	0	0	0
082119	15:25:03	15:34:04	540205	5.0.10.0	5_exp_noRW	110	Rpleas_acq	CS_A	CPPC	JQQJ	ZHHZ	YFFY	LWWL	DXXD	küssen	gütig	sonnig	genießen	träumen	vertrauen	krank	gierig	sterben	gemein	töten	versagen	53pct	acq_USpleas_CSpleas2_noRW	acq23456_noRW	3	65	0	0	300	300	541	50	0	1	1	blank2r.bmp	0	1	+	0	1	blank2r.bmp	252	1	JQQJ	306	3	vertrauen	559	0	0	0	0	0	0	0	0	0	0	0	0	0	0	0	0	0	0	0	0	0	0	0	0	0	0	0	0	0	0	0	0	0	0	0	0	0	0	0
082119	15:25:03	15:34:06	541871	5.0.10.0	5_exp_noRW	110	Rpleas_acq	CS_A	CPPC	JQQJ	ZHHZ	YFFY	LWWL	DXXD	küssen	gütig	sonnig	genießen	träumen	vertrauen	krank	gierig	sterben	gemein	töten	versagen	53pct	acq_USpleas_CSunple2_noRW	acq23456_noRW	3	66	0	0	300	300	501	50	0	1	1	blank2r.bmp	0	1	+	0	1	blank2r.bmp	252	1	YFFY	306	2	träumen	559	0	0	0	0	0	0	0	0	0	0	0	0	0	0	0	0	0	0	0	0	0	0	0	0	0	0	0	0	0	0	0	0	0	0	0	0	0	0	0
082119	15:25:03	15:34:07	543484	5.0.10.0	5_exp_noRW	110	Rpleas_acq	CS_A	CPPC	JQQJ	ZHHZ	YFFY	LWWL	DXXD	küssen	gütig	sonnig	genießen	träumen	vertrauen	krank	gierig	sterben	gemein	töten	versagen	53pct	acq_USpleas_CSpleas1_noRW	acq23456_noRW	3	67	0	0	300	300	435	50	0	1	1	blank2r.bmp	0	1	+	0	1	blank2r.bmp	252	1	CPPC	306	1	küssen	559	0	0	0	0	0	0	0	0	0	0	0	0	0	0	0	0	0	0	0	0	0	0	0	0	0	0	0	0	0	0	0	0	0	0	0	0	0	0	0
082119	15:25:03	15:34:09	545150	5.0.10.0	5_exp_noRW	110	Rpleas_acq	CS_A	CPPC	JQQJ	ZHHZ	YFFY	LWWL	DXXD	küssen	gütig	sonnig	genießen	träumen	vertrauen	krank	gierig	sterben	gemein	töten	versagen	47pct	acq_USunple_CSunple1_noRW	acq23456_noRW	3	68	0	0	300	300	504	46	0	1	1	blank2r.bmp	0	1	+	0	1	blank2r.bmp	252	1	ZHHZ	306	3	sterben	559	0	0	0	0	0	0	0	0	0	0	0	0	0	0	0	0	0	0	0	0	0	0	0	0	0	0	0	0	0	0	0	0	0	0	0	0	0	0	0
082119	15:25:03	15:34:11	546869	5.0.10.0	5_exp_noRW	110	Rpleas_acq	CS_A	CPPC	JQQJ	ZHHZ	YFFY	LWWL	DXXD	küssen	gütig	sonnig	genießen	träumen	vertrauen	krank	gierig	sterben	gemein	töten	versagen	53pct	acq_USunple_CSunple1_noRW	acq23456_noRW	3	69	0	0	300	300	558	46	0	1	1	blank2r.bmp	0	1	+	0	1	blank2r.bmp	252	1	ZHHZ	306	1	krank	559	0	0	0	0	0	0	0	0	0	0	0	0	0	0	0	0	0	0	0	0	0	0	0	0	0	0	0	0	0	0	0	0	0	0	0	0	0	0	0
082119	15:25:03	15:34:12	548548	5.0.10.0	5_exp_noRW	110	Rpleas_acq	CS_A	CPPC	JQQJ	ZHHZ	YFFY	LWWL	DXXD	küssen	gütig	sonnig	genießen	träumen	vertrauen	krank	gierig	sterben	gemein	töten	versagen	47pct	acq_USpleas_CSpleas2_noRW	acq23456_noRW	3	70	0	0	300	300	500	50	0	1	1	blank2r.bmp	0	1	+	0	1	blank2r.bmp	252	1	JQQJ	306	2	träumen	559	0	0	0	0	0	0	0	0	0	0	0	0	0	0	0	0	0	0	0	0	0	0	0	0	0	0	0	0	0	0	0	0	0	0	0	0	0	0	0
082119	15:25:03	15:34:14	550334	5.0.10.0	5_exp_noRW	110	Rpleas_acq	CS_A	CPPC	JQQJ	ZHHZ	YFFY	LWWL	DXXD	küssen	gütig	sonnig	genießen	träumen	vertrauen	krank	gierig	sterben	gemein	töten	versagen	53pct	acq_USunple_CSunple2_noRW	acq23456_noRW	3	71	0	0	300	300	603	46	0	1	1	blank2r.bmp	0	1	+	0	1	blank2r.bmp	252	1	YFFY	306	3	versagen	559	0	0	0	0	0	0	0	0	0	0	0	0	0	0	0	0	0	0	0	0	0	0	0	0	0	0	0	0	0	0	0	0	0	0	0	0	0	0	0
082119	15:25:03	15:34:16	552027	5.0.10.0	5_exp_noRW	110	Rpleas_acq	CS_A	CPPC	JQQJ	ZHHZ	YFFY	LWWL	DXXD	küssen	gütig	sonnig	genießen	träumen	vertrauen	krank	gierig	sterben	gemein	töten	versagen	47pct	acq_USunple_CSunple2_noRW	acq23456_noRW	3	72	0	0	300	300	523	46	0	1	1	blank2r.bmp	0	1	+	0	1	blank2r.bmp	252	1	YFFY	306	3	versagen	559	0	0	0	0	0	0	0	0	0	0	0	0	0	0	0	0	0	0	0	0	0	0	0	0	0	0	0	0	0	0	0	0	0	0	0	0	0	0	0
082119	15:25:03	15:34:17	553826	5.0.10.0	5_exp_noRW	110	Rpleas_acq	CS_A	CPPC	JQQJ	ZHHZ	YFFY	LWWL	DXXD	küssen	gütig	sonnig	genießen	träumen	vertrauen	krank	gierig	sterben	gemein	töten	versagen	47pct	acq_USunple_CSunple2_noRW	acq23456_noRW	3	73	0	0	300	300	623	46	0	1	1	blank2r.bmp	0	1	+	0	1	blank2r.bmp	252	1	YFFY	306	1	gemein	559	0	0	0	0	0	0	0	0	0	0	0	0	0	0	0	0	0	0	0	0	0	0	0	0	0	0	0	0	0	0	0	0	0	0	0	0	0	0	0
082119	15:25:03	15:34:19	555519	5.0.10.0	5_exp_noRW	110	Rpleas_acq	CS_A	CPPC	JQQJ	ZHHZ	YFFY	LWWL	DXXD	küssen	gütig	sonnig	genießen	träumen	vertrauen	krank	gierig	sterben	gemein	töten	versagen	53pct	acq_USpleas_CSunple1_noRW	acq23456_noRW	3	74	0	0	300	300	512	50	0	1	1	blank2r.bmp	0	1	+	0	1	blank2r.bmp	252	1	ZHHZ	306	2	gütig	559	0	0	0	0	0	0	0	0	0	0	0	0	0	0	0	0	0	0	0	0	0	0	0	0	0	0	0	0	0	0	0	0	0	0	0	0	0	0	0
082119	15:25:03	15:34:21	557158	5.0.10.0	5_exp_noRW	110	Rpleas_acq	CS_A	CPPC	JQQJ	ZHHZ	YFFY	LWWL	DXXD	küssen	gütig	sonnig	genießen	träumen	vertrauen	krank	gierig	sterben	gemein	töten	versagen	47pct	acq_USpleas_CSpleas1_noRW	acq23456_noRW	3	75	0	0	300	300	454	50	0	1	1	blank2r.bmp	0	1	+	0	1	blank2r.bmp	252	1	CPPC	306	2	gütig	559	0	0	0	0	0	0	0	0	0	0	0	0	0	0	0	0	0	0	0	0	0	0	0	0	0	0	0	0	0	0	0	0	0	0	0	0	0	0	0
082119	15:25:03	15:34:22	558837	5.0.10.0	5_exp_noRW	110	Rpleas_acq	CS_A	CPPC	JQQJ	ZHHZ	YFFY	LWWL	DXXD	küssen	gütig	sonnig	genießen	träumen	vertrauen	krank	gierig	sterben	gemein	töten	versagen	47pct	acq_USunple_CSunple2_noRW	acq23456_noRW	3	76	0	0	300	300	494	46	0	1	1	blank2r.bmp	0	1	+	0	1	blank2r.bmp	252	1	YFFY	306	2	töten	559	0	0	0	0	0	0	0	0	0	0	0	0	0	0	0	0	0	0	0	0	0	0	0	0	0	0	0	0	0	0	0	0	0	0	0	0	0	0	0
082119	15:25:03	15:34:24	560650	5.0.10.0	5_exp_noRW	110	Rpleas_acq	CS_A	CPPC	JQQJ	ZHHZ	YFFY	LWWL	DXXD	küssen	gütig	sonnig	genießen	träumen	vertrauen	krank	gierig	sterben	gemein	töten	versagen	53pct	acq_USunple_CSpleas2_noRW	acq23456_noRW	3	77	0	0	300	300	647	46	0	1	1	blank2r.bmp	0	1	+	0	1	blank2r.bmp	252	1	JQQJ	306	3	versagen	559	0	0	0	0	0	0	0	0	0	0	0	0	0	0	0	0	0	0	0	0	0	0	0	0	0	0	0	0	0	0	0	0	0	0	0	0	0	0	0
082119	15:25:03	15:34:26	562329	5.0.10.0	5_exp_noRW	110	Rpleas_acq	CS_A	CPPC	JQQJ	ZHHZ	YFFY	LWWL	DXXD	küssen	gütig	sonnig	genießen	träumen	vertrauen	krank	gierig	sterben	gemein	töten	versagen	53pct	acq_USunple_CSpleas1_noRW	acq23456_noRW	3	78	0	0	300	300	504	46	0	1	1	blank2r.bmp	0	1	+	0	1	blank2r.bmp	252	1	CPPC	306	1	krank	559	0	0	0	0	0	0	0	0	0	0	0	0	0	0	0	0	0	0	0	0	0	0	0	0	0	0	0	0	0	0	0	0	0	0	0	0	0	0	0
082119	15:25:03	15:34:28	564182	5.0.10.0	5_exp_noRW	110	Rpleas_acq	CS_A	CPPC	JQQJ	ZHHZ	YFFY	LWWL	DXXD	küssen	gütig	sonnig	genießen	träumen	vertrauen	krank	gierig	sterben	gemein	töten	versagen	53pct	acq_USunple_CSunple1_noRW	acq23456_noRW	3	79	0	0	300	300	670	46	0	1	1	blank2r.bmp	0	1	+	0	1	blank2r.bmp	252	1	ZHHZ	306	2	gierig	559	0	0	0	0	0	0	0	0	0	0	0	0	0	0	0	0	0	0	0	0	0	0	0	0	0	0	0	0	0	0	0	0	0	0	0	0	0	0	0
082119	15:25:03	15:34:30	565901	5.0.10.0	5_exp_noRW	110	Rpleas_acq	CS_A	CPPC	JQQJ	ZHHZ	YFFY	LWWL	DXXD	küssen	gütig	sonnig	genießen	träumen	vertrauen	krank	gierig	sterben	gemein	töten	versagen	53pct	acq_USpleas_CSpleas1_noRW	acq23456_noRW	3	80	0	0	300	300	552	50	0	1	1	blank2r.bmp	0	1	+	0	1	blank2r.bmp	252	1	CPPC	306	3	sonnig	559	0	0	0	0	0	0	0	0	0	0	0	0	0	0	0	0	0	0	0	0	0	0	0	0	0	0	0	0	0	0	0	0	0	0	0	0	0	0	0
082119	15:25:03	15:34:35	571272	5.0.10.0	5_exp_noRW	110	Rpleas_acq	CS_A	CPPC	JQQJ	ZHHZ	YFFY	LWWL	DXXD	küssen	gütig	sonnig	genießen	träumen	vertrauen	krank	gierig	sterben	gemein	töten	versagen	53pct	acq_USunple_CSunple1_noRW	acq23456_noRW	4	1	0	0	300	300	577	46	0	1	1	blank2r.bmp	0	1	+	0	1	blank2r.bmp	252	1	ZHHZ	306	3	sterben	559	0	0	0	0	0	0	0	0	0	0	0	0	0	0	0	0	0	0	0	0	0	0	0	0	0	0	0	0	0	0	0	0	0	0	0	0	0	0	0
