date	time	script.currenttime	script.elapsedtime	build	script.currentexpt	subject	expressions.LRpleas_acq	expressions.conditionCS_A	expressions.CSpleas_1	expressions.CSpleas_2	expressions.CSunple_1	expressions.CSunple_2	expressions.distractor_1	expressions.distractor_2	expressions.US_pleas1	expressions.US_pleas2	expressions.US_pleas3	expressions.US_pleas4	expressions.US_pleas5	expressions.US_pleas6	expressions.US_unple1	expressions.US_unple2	expressions.US_unple3	expressions.US_unple4	expressions.US_unple5	expressions.US_unple6	counter.positions_noRW	trialcode	blockcode	blocknum	trialnum	windowcenter	inwindow	pretrialpause	posttrialpause	latency	response	expressions.correctedscore	correct	stimulusnumber1	stimulusitem1	stimulusonset1	stimulusnumber2	stimulusitem2	stimulusonset2	stimulusnumber3	stimulusitem3	stimulusonset3	stimulusnumber4	stimulusitem4	stimulusonset4	stimulusnumber5	stimulusitem5	stimulusonset5	stimulusnumber6	stimulusitem6	stimulusonset6	stimulusnumber7	stimulusitem7	stimulusonset7	stimulusnumber8	stimulusitem8	stimulusonset8	stimulusnumber9	stimulusitem9	stimulusonset9	stimulusnumber10	stimulusitem10	stimulusonset10	stimulusnumber11	stimulusitem11	stimulusonset11	stimulusnumber12	stimulusitem12	stimulusonset12	stimulusnumber13	stimulusitem13	stimulusonset13	stimulusnumber14	stimulusitem14	stimulusonset14	stimulusnumber15	stimulusitem15	stimulusonset15	stimulusnumber16	stimulusitem16	stimulusonset16	stimulusnumber17	stimulusitem17	stimulusonset17	stimulusnumber18	stimulusitem18	stimulusonset18
072419	10:08:30	10:10:13	101930	5.0.10.0	5_exp_RW	81	Rpleas_acq	CS_B	VKKV	YDDY	GWWG	MQQM	JXXJ	BZZB	retten	treu	ehrlich	spielen	schön	fair	rächen	tot	eitel	strafen	schlecht	faul	1	acq_USunple_CSunple2_RW	acq1_RW	1	1	0	0	300	300	1083	46	0	1	1	blank2r.bmp	0	1	+	0	1	blank2r.bmp	492	1	MQQM	492	1	blank2r.bmp	572	3	faul	866	0	0	0	0	0	0	0	0	0	0	0	0	0	0	0	0	0	0	0	0	0	0	0	0	0	0	0	0	0	0	0	0	0	0	0	0
072419	10:08:30	10:10:15	104103	5.0.10.0	5_exp_RW	81	Rpleas_acq	CS_B	VKKV	YDDY	GWWG	MQQM	JXXJ	BZZB	retten	treu	ehrlich	spielen	schön	fair	rächen	tot	eitel	strafen	schlecht	faul	1	acq_USunple_CSunple1_RW	acq1_RW	1	2	0	0	300	300	699	46	0	1	1	blank2r.bmp	0	1	+	0	1	blank2r.bmp	492	1	GWWG	492	1	blank2r.bmp	572	1	rächen	866	0	0	0	0	0	0	0	0	0	0	0	0	0	0	0	0	0	0	0	0	0	0	0	0	0	0	0	0	0	0	0	0	0	0	0	0
072419	10:08:30	10:10:17	106208	5.0.10.0	5_exp_RW	81	Rpleas_acq	CS_B	VKKV	YDDY	GWWG	MQQM	JXXJ	BZZB	retten	treu	ehrlich	spielen	schön	fair	rächen	tot	eitel	strafen	schlecht	faul	1	acq_USpleas_CSpleas2_RW	acq1_RW	1	3	0	0	300	300	614	50	0	1	1	blank2r.bmp	0	1	+	0	1	blank2r.bmp	492	1	YDDY	492	1	blank2r.bmp	572	1	spielen	866	0	0	0	0	0	0	0	0	0	0	0	0	0	0	0	0	0	0	0	0	0	0	0	0	0	0	0	0	0	0	0	0	0	0	0	0
072419	10:08:30	10:10:19	108394	5.0.10.0	5_exp_RW	81	Rpleas_acq	CS_B	VKKV	YDDY	GWWG	MQQM	JXXJ	BZZB	retten	treu	ehrlich	spielen	schön	fair	rächen	tot	eitel	strafen	schlecht	faul	1	acq_USpleas_CSpleas1_RW	acq1_RW	1	4	0	0	300	300	706	50	0	1	1	blank2r.bmp	0	1	+	0	1	blank2r.bmp	492	1	VKKV	492	1	blank2r.bmp	572	1	retten	866	0	0	0	0	0	0	0	0	0	0	0	0	0	0	0	0	0	0	0	0	0	0	0	0	0	0	0	0	0	0	0	0	0	0	0	0
072419	10:08:30	10:10:22	110807	5.0.10.0	5_exp_RW	81	Rpleas_acq	CS_B	VKKV	YDDY	GWWG	MQQM	JXXJ	BZZB	retten	treu	ehrlich	spielen	schön	fair	rächen	tot	eitel	strafen	schlecht	faul	1	acq_USunple_CSunple2_RW	acq1_RW	1	5	0	0	300	300	932	46	0	1	1	blank2r.bmp	0	1	+	0	1	blank2r.bmp	492	1	MQQM	492	1	blank2r.bmp	572	2	schlecht	866	0	0	0	0	0	0	0	0	0	0	0	0	0	0	0	0	0	0	0	0	0	0	0	0	0	0	0	0	0	0	0	0	0	0	0	0
072419	10:08:30	10:10:24	112926	5.0.10.0	5_exp_RW	81	Rpleas_acq	CS_B	VKKV	YDDY	GWWG	MQQM	JXXJ	BZZB	retten	treu	ehrlich	spielen	schön	fair	rächen	tot	eitel	strafen	schlecht	faul	1	acq_USpleas_CSpleas1_RW	acq1_RW	1	6	0	0	300	300	643	50	0	1	1	blank2r.bmp	0	1	+	0	1	blank2r.bmp	492	1	VKKV	492	1	blank2r.bmp	572	3	ehrlich	866	0	0	0	0	0	0	0	0	0	0	0	0	0	0	0	0	0	0	0	0	0	0	0	0	0	0	0	0	0	0	0	0	0	0	0	0
072419	10:08:30	10:10:26	114978	5.0.10.0	5_exp_RW	81	Rpleas_acq	CS_B	VKKV	YDDY	GWWG	MQQM	JXXJ	BZZB	retten	treu	ehrlich	spielen	schön	fair	rächen	tot	eitel	strafen	schlecht	faul	1	acq_USunple_CSunple1_RW	acq1_RW	1	7	0	0	300	300	573	46	0	1	1	blank2r.bmp	0	1	+	0	1	blank2r.bmp	492	1	GWWG	492	1	blank2r.bmp	572	2	tot	866	0	0	0	0	0	0	0	0	0	0	0	0	0	0	0	0	0	0	0	0	0	0	0	0	0	0	0	0	0	0	0	0	0	0	0	0
072419	10:08:30	10:10:28	116897	5.0.10.0	5_exp_RW	81	Rpleas_acq	CS_B	VKKV	YDDY	GWWG	MQQM	JXXJ	BZZB	retten	treu	ehrlich	spielen	schön	fair	rächen	tot	eitel	strafen	schlecht	faul	1	acq_USpleas_CSpleas2_RW	acq1_RW	1	8	0	0	300	300	451	50	0	1	1	blank2r.bmp	0	1	+	0	1	blank2r.bmp	492	1	YDDY	492	1	blank2r.bmp	572	2	schön	866	0	0	0	0	0	0	0	0	0	0	0	0	0	0	0	0	0	0	0	0	0	0	0	0	0	0	0	0	0	0	0	0	0	0	0	0
072419	10:08:30	10:10:30	119163	5.0.10.0	5_exp_RW	81	Rpleas_acq	CS_B	VKKV	YDDY	GWWG	MQQM	JXXJ	BZZB	retten	treu	ehrlich	spielen	schön	fair	rächen	tot	eitel	strafen	schlecht	faul	1	acq_USpleas_CSpleas2_RW	acq1_RW	1	9	0	0	300	300	776	50	0	1	1	blank2r.bmp	0	1	+	0	1	blank2r.bmp	492	1	YDDY	492	1	blank2r.bmp	572	3	fair	866	0	0	0	0	0	0	0	0	0	0	0	0	0	0	0	0	0	0	0	0	0	0	0	0	0	0	0	0	0	0	0	0	0	0	0	0
072419	10:08:30	10:10:32	121269	5.0.10.0	5_exp_RW	81	Rpleas_acq	CS_B	VKKV	YDDY	GWWG	MQQM	JXXJ	BZZB	retten	treu	ehrlich	spielen	schön	fair	rächen	tot	eitel	strafen	schlecht	faul	1	acq_USpleas_CSpleas1_RW	acq1_RW	1	10	0	0	300	300	614	50	0	1	1	blank2r.bmp	0	1	+	0	1	blank2r.bmp	492	1	VKKV	492	1	blank2r.bmp	572	2	treu	866	0	0	0	0	0	0	0	0	0	0	0	0	0	0	0	0	0	0	0	0	0	0	0	0	0	0	0	0	0	0	0	0	0	0	0	0
072419	10:08:30	10:10:35	124587	5.0.10.0	5_exp_RW	81	Rpleas_acq	CS_B	VKKV	YDDY	GWWG	MQQM	JXXJ	BZZB	retten	treu	ehrlich	spielen	schön	fair	rächen	tot	eitel	strafen	schlecht	faul	1	acq_USunple_CSunple1_RW	acq1_RW	1	11	0	0	300	300	1829	46	0	1	1	blank2r.bmp	0	1	+	0	1	blank2r.bmp	492	1	GWWG	492	1	blank2r.bmp	572	3	eitel	866	0	0	0	0	0	0	0	0	0	0	0	0	0	0	0	0	0	0	0	0	0	0	0	0	0	0	0	0	0	0	0	0	0	0	0	0
072419	10:08:30	10:10:38	126707	5.0.10.0	5_exp_RW	81	Rpleas_acq	CS_B	VKKV	YDDY	GWWG	MQQM	JXXJ	BZZB	retten	treu	ehrlich	spielen	schön	fair	rächen	tot	eitel	strafen	schlecht	faul	1	acq_USunple_CSunple1_RW	acq1_RW	1	12	0	0	300	300	628	46	0	1	1	blank2r.bmp	0	1	+	0	1	blank2r.bmp	492	1	GWWG	492	1	blank2r.bmp	572	1	rächen	866	0	0	0	0	0	0	0	0	0	0	0	0	0	0	0	0	0	0	0	0	0	0	0	0	0	0	0	0	0	0	0	0	0	0	0	0
072419	10:08:30	10:10:40	128759	5.0.10.0	5_exp_RW	81	Rpleas_acq	CS_B	VKKV	YDDY	GWWG	MQQM	JXXJ	BZZB	retten	treu	ehrlich	spielen	schön	fair	rächen	tot	eitel	strafen	schlecht	faul	1	acq_USunple_CSunple2_RW	acq1_RW	1	13	0	0	300	300	584	46	0	1	1	blank2r.bmp	0	1	+	0	1	blank2r.bmp	492	1	MQQM	492	1	blank2r.bmp	572	1	strafen	866	0	0	0	0	0	0	0	0	0	0	0	0	0	0	0	0	0	0	0	0	0	0	0	0	0	0	0	0	0	0	0	0	0	0	0	0
072419	10:08:30	10:10:42	130772	5.0.10.0	5_exp_RW	81	Rpleas_acq	CS_B	VKKV	YDDY	GWWG	MQQM	JXXJ	BZZB	retten	treu	ehrlich	spielen	schön	fair	rächen	tot	eitel	strafen	schlecht	faul	1	acq_USpleas_CSpleas2_RW	acq1_RW	1	14	0	0	300	300	514	50	0	1	1	blank2r.bmp	0	1	+	0	1	blank2r.bmp	492	1	YDDY	492	1	blank2r.bmp	572	2	schön	866	0	0	0	0	0	0	0	0	0	0	0	0	0	0	0	0	0	0	0	0	0	0	0	0	0	0	0	0	0	0	0	0	0	0	0	0
072419	10:08:30	10:10:44	132811	5.0.10.0	5_exp_RW	81	Rpleas_acq	CS_B	VKKV	YDDY	GWWG	MQQM	JXXJ	BZZB	retten	treu	ehrlich	spielen	schön	fair	rächen	tot	eitel	strafen	schlecht	faul	1	acq_USunple_CSunple2_RW	acq1_RW	1	15	0	0	300	300	569	46	0	1	1	blank2r.bmp	0	1	+	0	1	blank2r.bmp	492	1	MQQM	492	1	blank2r.bmp	572	1	strafen	866	0	0	0	0	0	0	0	0	0	0	0	0	0	0	0	0	0	0	0	0	0	0	0	0	0	0	0	0	0	0	0	0	0	0	0	0
072419	10:08:30	10:10:46	134877	5.0.10.0	5_exp_RW	81	Rpleas_acq	CS_B	VKKV	YDDY	GWWG	MQQM	JXXJ	BZZB	retten	treu	ehrlich	spielen	schön	fair	rächen	tot	eitel	strafen	schlecht	faul	1	acq_USpleas_CSpleas1_RW	acq1_RW	1	16	0	0	300	300	573	50	0	1	1	blank2r.bmp	0	1	+	0	1	blank2r.bmp	492	1	VKKV	492	1	blank2r.bmp	572	3	ehrlich	866	0	0	0	0	0	0	0	0	0	0	0	0	0	0	0	0	0	0	0	0	0	0	0	0	0	0	0	0	0	0	0	0	0	0	0	0
072419	10:08:30	10:11:48	197424	5.0.10.0	5_exp_RW	81	Rpleas_acq	CS_B	VKKV	YDDY	GWWG	MQQM	JXXJ	BZZB	retten	treu	ehrlich	spielen	schön	fair	rächen	tot	eitel	strafen	schlecht	faul	1	acq_USpleas_CSpleas2_RW	acq2_RW	2	1	480	0	300	300	6513	50	0	1	1	blank2r.bmp	0	1	+	0	1	blank2r.bmp	492	1	YDDY	492	1	blank2r.bmp	572	1	spielen	866	1	!	1319	1	!	-1	0	0	0	0	0	0	0	0	0	0	0	0	0	0	0	0	0	0	0	0	0	0	0	0	0	0	0	0	0	0
072419	10:08:30	10:11:51	199743	5.0.10.0	5_exp_RW	81	Rpleas_acq	CS_B	VKKV	YDDY	GWWG	MQQM	JXXJ	BZZB	retten	treu	ehrlich	spielen	schön	fair	rächen	tot	eitel	strafen	schlecht	faul	1	acq_USunple_CSunple2_RW	acq2_RW	2	2	480	1	300	300	513	46	0	1	1	blank2r.bmp	0	1	+	0	1	blank2r.bmp	492	1	MQQM	492	1	blank2r.bmp	572	3	faul	866	1	!	1319	1	!	1412	0	0	0	0	0	0	0	0	0	0	0	0	0	0	0	0	0	0	0	0	0	0	0	0	0	0	0	0	0	0
072419	10:08:30	10:11:53	201903	5.0.10.0	5_exp_RW	81	Rpleas_acq	CS_B	VKKV	YDDY	GWWG	MQQM	JXXJ	BZZB	retten	treu	ehrlich	spielen	schön	fair	rächen	tot	eitel	strafen	schlecht	faul	1	acq_USpleas_CSpleas2_RW	acq2_RW	2	3	480	0	300	300	394	50	0	1	1	blank2r.bmp	0	1	+	0	1	blank2r.bmp	492	1	YDDY	492	1	blank2r.bmp	572	3	fair	866	1	!	-1	1	!	-1	0	0	0	0	0	0	0	0	0	0	0	0	0	0	0	0	0	0	0	0	0	0	0	0	0	0	0	0	0	0
072419	10:08:30	10:11:56	205155	5.0.10.0	5_exp_RW	81	Rpleas_acq	CS_B	VKKV	YDDY	GWWG	MQQM	JXXJ	BZZB	retten	treu	ehrlich	spielen	schön	fair	rächen	tot	eitel	strafen	schlecht	faul	1	acq_USunple_CSunple1_RW	acq2_RW	2	4	480	0	300	300	1472	46	0	1	1	blank2r.bmp	0	1	+	0	1	blank2r.bmp	492	1	GWWG	492	1	blank2r.bmp	572	3	eitel	866	1	!	1319	1	!	-1	0	0	0	0	0	0	0	0	0	0	0	0	0	0	0	0	0	0	0	0	0	0	0	0	0	0	0	0	0	0
072419	10:08:30	10:11:59	207687	5.0.10.0	5_exp_RW	81	Rpleas_acq	CS_B	VKKV	YDDY	GWWG	MQQM	JXXJ	BZZB	retten	treu	ehrlich	spielen	schön	fair	rächen	tot	eitel	strafen	schlecht	faul	1	acq_USunple_CSunple1_RW	acq2_RW	2	5	480	0	300	300	750	46	0	1	1	blank2r.bmp	0	1	+	0	1	blank2r.bmp	492	1	GWWG	492	1	blank2r.bmp	572	2	tot	866	1	!	1319	1	!	-1	0	0	0	0	0	0	0	0	0	0	0	0	0	0	0	0	0	0	0	0	0	0	0	0	0	0	0	0	0	0
072419	10:08:30	10:12:01	209993	5.0.10.0	5_exp_RW	81	Rpleas_acq	CS_B	VKKV	YDDY	GWWG	MQQM	JXXJ	BZZB	retten	treu	ehrlich	spielen	schön	fair	rächen	tot	eitel	strafen	schlecht	faul	1	acq_USpleas_CSpleas2_RW	acq2_RW	2	6	480	1	300	300	492	50	0	1	1	blank2r.bmp	0	1	+	0	1	blank2r.bmp	492	1	YDDY	492	1	blank2r.bmp	572	2	schön	866	1	!	1319	1	!	1399	0	0	0	0	0	0	0	0	0	0	0	0	0	0	0	0	0	0	0	0	0	0	0	0	0	0	0	0	0	0
072419	10:08:30	10:12:03	212232	5.0.10.0	5_exp_RW	81	Rpleas_acq	CS_B	VKKV	YDDY	GWWG	MQQM	JXXJ	BZZB	retten	treu	ehrlich	spielen	schön	fair	rächen	tot	eitel	strafen	schlecht	faul	1	acq_USpleas_CSpleas1_RW	acq2_RW	2	7	480	1	300	300	440	50	0	1	1	blank2r.bmp	0	1	+	0	1	blank2r.bmp	492	1	VKKV	492	1	blank2r.bmp	572	2	treu	866	1	!	1319	1	!	1346	0	0	0	0	0	0	0	0	0	0	0	0	0	0	0	0	0	0	0	0	0	0	0	0	0	0	0	0	0	0
072419	10:08:30	10:12:06	214671	5.0.10.0	5_exp_RW	81	Rpleas_acq	CS_B	VKKV	YDDY	GWWG	MQQM	JXXJ	BZZB	retten	treu	ehrlich	spielen	schön	fair	rächen	tot	eitel	strafen	schlecht	faul	1	acq_USpleas_CSpleas1_RW	acq2_RW	2	8	480	0	300	300	654	50	0	1	1	blank2r.bmp	0	1	+	0	1	blank2r.bmp	492	1	VKKV	492	1	blank2r.bmp	572	1	retten	866	1	!	1319	1	!	-1	0	0	0	0	0	0	0	0	0	0	0	0	0	0	0	0	0	0	0	0	0	0	0	0	0	0	0	0	0	0
072419	10:08:30	10:12:08	217230	5.0.10.0	5_exp_RW	81	Rpleas_acq	CS_B	VKKV	YDDY	GWWG	MQQM	JXXJ	BZZB	retten	treu	ehrlich	spielen	schön	fair	rächen	tot	eitel	strafen	schlecht	faul	1	acq_USunple_CSunple1_RW	acq2_RW	2	9	480	1	300	300	543	50	0	0	1	blank2r.bmp	0	1	+	0	1	blank2r.bmp	492	1	GWWG	492	1	blank2r.bmp	572	1	rächen	866	1	FEHLER	1759	1	!	1319	1	!	1439	0	0	0	0	0	0	0	0	0	0	0	0	0	0	0	0	0	0	0	0	0	0	0	0	0	0	0
072419	10:08:30	10:12:10	219349	5.0.10.0	5_exp_RW	81	Rpleas_acq	CS_B	VKKV	YDDY	GWWG	MQQM	JXXJ	BZZB	retten	treu	ehrlich	spielen	schön	fair	rächen	tot	eitel	strafen	schlecht	faul	1	acq_USunple_CSunple1_RW	acq2_RW	2	10	480	0	300	300	559	46	0	1	1	blank2r.bmp	0	1	+	0	1	blank2r.bmp	492	1	GWWG	492	1	blank2r.bmp	572	3	eitel	866	1	!	1319	1	!	-1	0	0	0	0	0	0	0	0	0	0	0	0	0	0	0	0	0	0	0	0	0	0	0	0	0	0	0	0	0	0
072419	10:08:30	10:12:13	221654	5.0.10.0	5_exp_RW	81	Rpleas_acq	CS_B	VKKV	YDDY	GWWG	MQQM	JXXJ	BZZB	retten	treu	ehrlich	spielen	schön	fair	rächen	tot	eitel	strafen	schlecht	faul	1	acq_USunple_CSunple1_RW	acq2_RW	2	11	480	1	300	300	500	46	0	1	1	blank2r.bmp	0	1	+	0	1	blank2r.bmp	492	1	GWWG	492	1	blank2r.bmp	572	2	tot	866	1	!	1319	1	!	1399	0	0	0	0	0	0	0	0	0	0	0	0	0	0	0	0	0	0	0	0	0	0	0	0	0	0	0	0	0	0
072419	10:08:30	10:12:15	224000	5.0.10.0	5_exp_RW	81	Rpleas_acq	CS_B	VKKV	YDDY	GWWG	MQQM	JXXJ	BZZB	retten	treu	ehrlich	spielen	schön	fair	rächen	tot	eitel	strafen	schlecht	faul	1	acq_USpleas_CSpleas1_RW	acq2_RW	2	12	480	0	300	300	576	50	0	1	1	blank2r.bmp	0	1	+	0	1	blank2r.bmp	492	1	VKKV	492	1	blank2r.bmp	572	1	retten	866	1	!	1319	1	!	-1	0	0	0	0	0	0	0	0	0	0	0	0	0	0	0	0	0	0	0	0	0	0	0	0	0	0	0	0	0	0
072419	10:08:30	10:12:17	226093	5.0.10.0	5_exp_RW	81	Rpleas_acq	CS_B	VKKV	YDDY	GWWG	MQQM	JXXJ	BZZB	retten	treu	ehrlich	spielen	schön	fair	rächen	tot	eitel	strafen	schlecht	faul	1	acq_USunple_CSunple2_RW	acq2_RW	2	13	480	0	300	300	311	46	0	1	1	blank2r.bmp	0	1	+	0	1	blank2r.bmp	492	1	MQQM	492	1	blank2r.bmp	572	2	schlecht	866	1	!	-1	1	!	-1	0	0	0	0	0	0	0	0	0	0	0	0	0	0	0	0	0	0	0	0	0	0	0	0	0	0	0	0	0	0
072419	10:08:30	10:12:20	228665	5.0.10.0	5_exp_RW	81	Rpleas_acq	CS_B	VKKV	YDDY	GWWG	MQQM	JXXJ	BZZB	retten	treu	ehrlich	spielen	schön	fair	rächen	tot	eitel	strafen	schlecht	faul	1	acq_USunple_CSunple1_RW	acq2_RW	2	14	480	0	300	300	565	50	0	0	1	blank2r.bmp	0	1	+	0	1	blank2r.bmp	492	1	GWWG	492	1	blank2r.bmp	572	3	eitel	866	1	FEHLER	1772	1	!	1319	1	!	-1	0	0	0	0	0	0	0	0	0	0	0	0	0	0	0	0	0	0	0	0	0	0	0	0	0	0	0
072419	10:08:30	10:12:21	230598	5.0.10.0	5_exp_RW	81	Rpleas_acq	CS_B	VKKV	YDDY	GWWG	MQQM	JXXJ	BZZB	retten	treu	ehrlich	spielen	schön	fair	rächen	tot	eitel	strafen	schlecht	faul	1	acq_USpleas_CSpleas2_RW	acq2_RW	2	15	480	0	300	300	375	50	0	1	1	blank2r.bmp	0	1	+	0	1	blank2r.bmp	492	1	YDDY	492	1	blank2r.bmp	572	1	spielen	866	1	!	-1	1	!	-1	0	0	0	0	0	0	0	0	0	0	0	0	0	0	0	0	0	0	0	0	0	0	0	0	0	0	0	0	0	0
072419	10:08:30	10:12:24	233010	5.0.10.0	5_exp_RW	81	Rpleas_acq	CS_B	VKKV	YDDY	GWWG	MQQM	JXXJ	BZZB	retten	treu	ehrlich	spielen	schön	fair	rächen	tot	eitel	strafen	schlecht	faul	1	acq_USpleas_CSpleas1_RW	acq2_RW	2	16	480	0	300	300	631	50	0	1	1	blank2r.bmp	0	1	+	0	1	blank2r.bmp	492	1	VKKV	492	1	blank2r.bmp	572	3	ehrlich	866	1	!	1319	1	!	-1	0	0	0	0	0	0	0	0	0	0	0	0	0	0	0	0	0	0	0	0	0	0	0	0	0	0	0	0	0	0
072419	10:08:30	10:12:26	235262	5.0.10.0	5_exp_RW	81	Rpleas_acq	CS_B	VKKV	YDDY	GWWG	MQQM	JXXJ	BZZB	retten	treu	ehrlich	spielen	schön	fair	rächen	tot	eitel	strafen	schlecht	faul	1	acq_USunple_CSunple2_RW	acq2_RW	2	17	480	1	300	300	441	46	0	1	1	blank2r.bmp	0	1	+	0	1	blank2r.bmp	492	1	MQQM	492	1	blank2r.bmp	572	1	strafen	866	1	!	1319	1	!	1346	0	0	0	0	0	0	0	0	0	0	0	0	0	0	0	0	0	0	0	0	0	0	0	0	0	0	0	0	0	0
072419	10:08:30	10:12:28	237515	5.0.10.0	5_exp_RW	81	Rpleas_acq	CS_B	VKKV	YDDY	GWWG	MQQM	JXXJ	BZZB	retten	treu	ehrlich	spielen	schön	fair	rächen	tot	eitel	strafen	schlecht	faul	1	acq_USunple_CSunple2_RW	acq2_RW	2	18	480	1	300	300	460	46	0	1	1	blank2r.bmp	0	1	+	0	1	blank2r.bmp	492	1	MQQM	492	1	blank2r.bmp	572	3	faul	866	1	!	1319	1	!	1359	0	0	0	0	0	0	0	0	0	0	0	0	0	0	0	0	0	0	0	0	0	0	0	0	0	0	0	0	0	0
072419	10:08:30	10:12:31	239754	5.0.10.0	5_exp_RW	81	Rpleas_acq	CS_B	VKKV	YDDY	GWWG	MQQM	JXXJ	BZZB	retten	treu	ehrlich	spielen	schön	fair	rächen	tot	eitel	strafen	schlecht	faul	1	acq_USpleas_CSpleas1_RW	acq2_RW	2	19	480	1	300	300	439	50	0	1	1	blank2r.bmp	0	1	+	0	1	blank2r.bmp	492	1	VKKV	492	1	blank2r.bmp	572	2	treu	866	1	!	1319	1	!	1346	0	0	0	0	0	0	0	0	0	0	0	0	0	0	0	0	0	0	0	0	0	0	0	0	0	0	0	0	0	0
072419	10:08:30	10:12:33	242033	5.0.10.0	5_exp_RW	81	Rpleas_acq	CS_B	VKKV	YDDY	GWWG	MQQM	JXXJ	BZZB	retten	treu	ehrlich	spielen	schön	fair	rächen	tot	eitel	strafen	schlecht	faul	1	acq_USpleas_CSpleas2_RW	acq2_RW	2	20	480	1	300	300	489	50	0	1	1	blank2r.bmp	0	1	+	0	1	blank2r.bmp	492	1	YDDY	492	1	blank2r.bmp	572	3	fair	866	1	!	1319	1	!	1386	0	0	0	0	0	0	0	0	0	0	0	0	0	0	0	0	0	0	0	0	0	0	0	0	0	0	0	0	0	0
072419	10:08:30	10:12:35	244112	5.0.10.0	5_exp_RW	81	Rpleas_acq	CS_B	VKKV	YDDY	GWWG	MQQM	JXXJ	BZZB	retten	treu	ehrlich	spielen	schön	fair	rächen	tot	eitel	strafen	schlecht	faul	1	acq_USunple_CSunple2_RW	acq2_RW	2	21	480	0	300	300	317	46	0	1	1	blank2r.bmp	0	1	+	0	1	blank2r.bmp	492	1	MQQM	492	1	blank2r.bmp	572	2	schlecht	866	1	!	-1	1	!	-1	0	0	0	0	0	0	0	0	0	0	0	0	0	0	0	0	0	0	0	0	0	0	0	0	0	0	0	0	0	0
072419	10:08:30	10:12:37	246431	5.0.10.0	5_exp_RW	81	Rpleas_acq	CS_B	VKKV	YDDY	GWWG	MQQM	JXXJ	BZZB	retten	treu	ehrlich	spielen	schön	fair	rächen	tot	eitel	strafen	schlecht	faul	1	acq_USpleas_CSpleas2_RW	acq2_RW	2	22	480	1	300	300	516	50	0	1	1	blank2r.bmp	0	1	+	0	1	blank2r.bmp	492	1	YDDY	492	1	blank2r.bmp	572	1	spielen	866	1	!	1319	1	!	1412	0	0	0	0	0	0	0	0	0	0	0	0	0	0	0	0	0	0	0	0	0	0	0	0	0	0	0	0	0	0
072419	10:08:30	10:12:40	248697	5.0.10.0	5_exp_RW	81	Rpleas_acq	CS_B	VKKV	YDDY	GWWG	MQQM	JXXJ	BZZB	retten	treu	ehrlich	spielen	schön	fair	rächen	tot	eitel	strafen	schlecht	faul	1	acq_USunple_CSunple2_RW	acq2_RW	2	23	480	1	300	300	470	46	0	1	1	blank2r.bmp	0	1	+	0	1	blank2r.bmp	492	1	MQQM	492	1	blank2r.bmp	572	2	schlecht	866	1	!	1319	1	!	1372	0	0	0	0	0	0	0	0	0	0	0	0	0	0	0	0	0	0	0	0	0	0	0	0	0	0	0	0	0	0
072419	10:08:30	10:12:42	250963	5.0.10.0	5_exp_RW	81	Rpleas_acq	CS_B	VKKV	YDDY	GWWG	MQQM	JXXJ	BZZB	retten	treu	ehrlich	spielen	schön	fair	rächen	tot	eitel	strafen	schlecht	faul	1	acq_USpleas_CSpleas1_RW	acq2_RW	2	24	480	1	300	300	467	50	0	1	1	blank2r.bmp	0	1	+	0	1	blank2r.bmp	492	1	VKKV	492	1	blank2r.bmp	572	1	retten	866	1	!	1319	1	!	1372	0	0	0	0	0	0	0	0	0	0	0	0	0	0	0	0	0	0	0	0	0	0	0	0	0	0	0	0	0	0
072419	10:08:30	10:13:07	276619	5.0.10.0	5_exp_RW	81	Rpleas_acq	CS_B	VKKV	YDDY	GWWG	MQQM	JXXJ	BZZB	retten	treu	ehrlich	spielen	schön	fair	rächen	tot	eitel	strafen	schlecht	faul	1	acq_USunple_CSunple1_RW	acq3_RW	3	1	453	1	300	300	399	46	0	1	1	blank2r.bmp	0	1	+	0	1	blank2r.bmp	492	1	GWWG	492	1	blank2r.bmp	572	2	tot	866	1	!	1292	1	!	1306	0	0	0	0	0	0	0	0	0	0	0	0	0	0	0	0	0	0	0	0	0	0	0	0	0	0	0	0	0	0
072419	10:08:30	10:13:10	278911	5.0.10.0	5_exp_RW	81	Rpleas_acq	CS_B	VKKV	YDDY	GWWG	MQQM	JXXJ	BZZB	retten	treu	ehrlich	spielen	schön	fair	rächen	tot	eitel	strafen	schlecht	faul	1	acq_USpleas_CSpleas1_RW	acq3_RW	3	2	453	1	300	300	493	50	0	1	1	blank2r.bmp	0	1	+	0	1	blank2r.bmp	492	1	VKKV	492	1	blank2r.bmp	572	3	ehrlich	866	1	!	1292	1	!	1399	0	0	0	0	0	0	0	0	0	0	0	0	0	0	0	0	0	0	0	0	0	0	0	0	0	0	0	0	0	0
072419	10:08:30	10:13:12	281177	5.0.10.0	5_exp_RW	81	Rpleas_acq	CS_B	VKKV	YDDY	GWWG	MQQM	JXXJ	BZZB	retten	treu	ehrlich	spielen	schön	fair	rächen	tot	eitel	strafen	schlecht	faul	1	acq_USunple_CSunple2_RW	acq3_RW	3	3	453	1	300	300	468	46	0	1	1	blank2r.bmp	0	1	+	0	1	blank2r.bmp	492	1	MQQM	492	1	blank2r.bmp	572	1	strafen	866	1	!	1292	1	!	1372	0	0	0	0	0	0	0	0	0	0	0	0	0	0	0	0	0	0	0	0	0	0	0	0	0	0	0	0	0	0
072419	10:08:30	10:13:14	283456	5.0.10.0	5_exp_RW	81	Rpleas_acq	CS_B	VKKV	YDDY	GWWG	MQQM	JXXJ	BZZB	retten	treu	ehrlich	spielen	schön	fair	rächen	tot	eitel	strafen	schlecht	faul	1	acq_USpleas_CSpleas2_RW	acq3_RW	3	4	453	1	300	300	484	50	0	1	1	blank2r.bmp	0	1	+	0	1	blank2r.bmp	492	1	YDDY	492	1	blank2r.bmp	572	2	schön	866	1	!	1292	1	!	1386	0	0	0	0	0	0	0	0	0	0	0	0	0	0	0	0	0	0	0	0	0	0	0	0	0	0	0	0	0	0
072419	10:08:30	10:13:17	285762	5.0.10.0	5_exp_RW	81	Rpleas_acq	CS_B	VKKV	YDDY	GWWG	MQQM	JXXJ	BZZB	retten	treu	ehrlich	spielen	schön	fair	rächen	tot	eitel	strafen	schlecht	faul	1	acq_USpleas_CSpleas1_RW	acq3_RW	3	5	453	1	300	300	514	50	0	1	1	blank2r.bmp	0	1	+	0	1	blank2r.bmp	492	1	VKKV	492	1	blank2r.bmp	572	2	treu	866	1	!	1292	1	!	1412	0	0	0	0	0	0	0	0	0	0	0	0	0	0	0	0	0	0	0	0	0	0	0	0	0	0	0	0	0	0
072419	10:08:30	10:13:19	288041	5.0.10.0	5_exp_RW	81	Rpleas_acq	CS_B	VKKV	YDDY	GWWG	MQQM	JXXJ	BZZB	retten	treu	ehrlich	spielen	schön	fair	rächen	tot	eitel	strafen	schlecht	faul	1	acq_USunple_CSunple1_RW	acq3_RW	3	6	453	1	300	300	492	46	0	1	1	blank2r.bmp	0	1	+	0	1	blank2r.bmp	492	1	GWWG	492	1	blank2r.bmp	572	1	rächen	866	1	!	1292	1	!	1386	0	0	0	0	0	0	0	0	0	0	0	0	0	0	0	0	0	0	0	0	0	0	0	0	0	0	0	0	0	0
072419	10:08:30	10:13:21	290347	5.0.10.0	5_exp_RW	81	Rpleas_acq	CS_B	VKKV	YDDY	GWWG	MQQM	JXXJ	BZZB	retten	treu	ehrlich	spielen	schön	fair	rächen	tot	eitel	strafen	schlecht	faul	1	acq_USunple_CSunple2_RW	acq3_RW	3	7	453	0	300	300	536	46	0	1	1	blank2r.bmp	0	1	+	0	1	blank2r.bmp	492	1	MQQM	492	1	blank2r.bmp	572	3	faul	866	1	!	1292	1	!	-1	0	0	0	0	0	0	0	0	0	0	0	0	0	0	0	0	0	0	0	0	0	0	0	0	0	0	0	0	0	0
072419	10:08:30	10:13:24	292666	5.0.10.0	5_exp_RW	81	Rpleas_acq	CS_B	VKKV	YDDY	GWWG	MQQM	JXXJ	BZZB	retten	treu	ehrlich	spielen	schön	fair	rächen	tot	eitel	strafen	schlecht	faul	1	acq_USunple_CSunple1_RW	acq3_RW	3	8	453	0	300	300	311	50	0	0	1	blank2r.bmp	0	1	+	0	1	blank2r.bmp	492	1	GWWG	492	1	blank2r.bmp	572	2	tot	866	1	FEHLER	1519	1	!	-1	1	!	-1	0	0	0	0	0	0	0	0	0	0	0	0	0	0	0	0	0	0	0	0	0	0	0	0	0	0	0
072419	10:08:30	10:13:26	294718	5.0.10.0	5_exp_RW	81	Rpleas_acq	CS_B	VKKV	YDDY	GWWG	MQQM	JXXJ	BZZB	retten	treu	ehrlich	spielen	schön	fair	rächen	tot	eitel	strafen	schlecht	faul	1	acq_USunple_CSunple1_RW	acq3_RW	3	9	453	1	300	300	472	46	0	1	1	blank2r.bmp	0	1	+	0	1	blank2r.bmp	492	1	GWWG	492	1	blank2r.bmp	572	1	rächen	866	1	!	1292	1	!	1372	0	0	0	0	0	0	0	0	0	0	0	0	0	0	0	0	0	0	0	0	0	0	0	0	0	0	0	0	0	0
072419	10:08:30	10:13:28	297024	5.0.10.0	5_exp_RW	81	Rpleas_acq	CS_B	VKKV	YDDY	GWWG	MQQM	JXXJ	BZZB	retten	treu	ehrlich	spielen	schön	fair	rächen	tot	eitel	strafen	schlecht	faul	1	acq_USpleas_CSpleas2_RW	acq3_RW	3	10	453	0	300	300	532	50	0	1	1	blank2r.bmp	0	1	+	0	1	blank2r.bmp	492	1	YDDY	492	1	blank2r.bmp	572	3	fair	866	1	!	1292	1	!	-1	0	0	0	0	0	0	0	0	0	0	0	0	0	0	0	0	0	0	0	0	0	0	0	0	0	0	0	0	0	0
072419	10:08:30	10:13:30	299303	5.0.10.0	5_exp_RW	81	Rpleas_acq	CS_B	VKKV	YDDY	GWWG	MQQM	JXXJ	BZZB	retten	treu	ehrlich	spielen	schön	fair	rächen	tot	eitel	strafen	schlecht	faul	1	acq_USunple_CSunple2_RW	acq3_RW	3	11	453	1	300	300	475	46	0	1	1	blank2r.bmp	0	1	+	0	1	blank2r.bmp	492	1	MQQM	492	1	blank2r.bmp	572	2	schlecht	866	1	!	1292	1	!	1372	0	0	0	0	0	0	0	0	0	0	0	0	0	0	0	0	0	0	0	0	0	0	0	0	0	0	0	0	0	0
072419	10:08:30	10:13:32	301582	5.0.10.0	5_exp_RW	81	Rpleas_acq	CS_B	VKKV	YDDY	GWWG	MQQM	JXXJ	BZZB	retten	treu	ehrlich	spielen	schön	fair	rächen	tot	eitel	strafen	schlecht	faul	1	acq_USpleas_CSpleas2_RW	acq3_RW	3	12	453	1	300	300	490	50	0	1	1	blank2r.bmp	0	1	+	0	1	blank2r.bmp	492	1	YDDY	492	1	blank2r.bmp	572	3	fair	866	1	!	1292	1	!	1386	0	0	0	0	0	0	0	0	0	0	0	0	0	0	0	0	0	0	0	0	0	0	0	0	0	0	0	0	0	0
072419	10:08:30	10:13:35	303874	5.0.10.0	5_exp_RW	81	Rpleas_acq	CS_B	VKKV	YDDY	GWWG	MQQM	JXXJ	BZZB	retten	treu	ehrlich	spielen	schön	fair	rächen	tot	eitel	strafen	schlecht	faul	1	acq_USpleas_CSpleas2_RW	acq3_RW	3	13	453	1	300	300	500	50	0	1	1	blank2r.bmp	0	1	+	0	1	blank2r.bmp	492	1	YDDY	492	1	blank2r.bmp	572	2	schön	866	1	!	1292	1	!	1399	0	0	0	0	0	0	0	0	0	0	0	0	0	0	0	0	0	0	0	0	0	0	0	0	0	0	0	0	0	0
072419	10:08:30	10:13:37	306087	5.0.10.0	5_exp_RW	81	Rpleas_acq	CS_B	VKKV	YDDY	GWWG	MQQM	JXXJ	BZZB	retten	treu	ehrlich	spielen	schön	fair	rächen	tot	eitel	strafen	schlecht	faul	1	acq_USunple_CSunple2_RW	acq3_RW	3	14	453	1	300	300	412	46	0	1	1	blank2r.bmp	0	1	+	0	1	blank2r.bmp	492	1	MQQM	492	1	blank2r.bmp	572	1	strafen	866	1	!	1292	1	!	1319	0	0	0	0	0	0	0	0	0	0	0	0	0	0	0	0	0	0	0	0	0	0	0	0	0	0	0	0	0	0
072419	10:08:30	10:13:39	308366	5.0.10.0	5_exp_RW	81	Rpleas_acq	CS_B	VKKV	YDDY	GWWG	MQQM	JXXJ	BZZB	retten	treu	ehrlich	spielen	schön	fair	rächen	tot	eitel	strafen	schlecht	faul	1	acq_USunple_CSunple2_RW	acq3_RW	3	15	453	1	300	300	482	46	0	1	1	blank2r.bmp	0	1	+	0	1	blank2r.bmp	492	1	MQQM	492	1	blank2r.bmp	572	3	faul	866	1	!	1292	1	!	1386	0	0	0	0	0	0	0	0	0	0	0	0	0	0	0	0	0	0	0	0	0	0	0	0	0	0	0	0	0	0
072419	10:08:30	10:13:41	310472	5.0.10.0	5_exp_RW	81	Rpleas_acq	CS_B	VKKV	YDDY	GWWG	MQQM	JXXJ	BZZB	retten	treu	ehrlich	spielen	schön	fair	rächen	tot	eitel	strafen	schlecht	faul	1	acq_USpleas_CSpleas1_RW	acq3_RW	3	16	453	0	300	300	336	50	0	1	1	blank2r.bmp	0	1	+	0	1	blank2r.bmp	492	1	VKKV	492	1	blank2r.bmp	572	3	ehrlich	866	1	!	-1	1	!	-1	0	0	0	0	0	0	0	0	0	0	0	0	0	0	0	0	0	0	0	0	0	0	0	0	0	0	0	0	0	0
072419	10:08:30	10:13:43	312577	5.0.10.0	5_exp_RW	81	Rpleas_acq	CS_B	VKKV	YDDY	GWWG	MQQM	JXXJ	BZZB	retten	treu	ehrlich	spielen	schön	fair	rächen	tot	eitel	strafen	schlecht	faul	1	acq_USpleas_CSpleas1_RW	acq3_RW	3	17	453	0	300	300	331	50	0	1	1	blank2r.bmp	0	1	+	0	1	blank2r.bmp	492	1	VKKV	492	1	blank2r.bmp	572	2	treu	866	1	!	-1	1	!	-1	0	0	0	0	0	0	0	0	0	0	0	0	0	0	0	0	0	0	0	0	0	0	0	0	0	0	0	0	0	0
072419	10:08:30	10:13:46	314896	5.0.10.0	5_exp_RW	81	Rpleas_acq	CS_B	VKKV	YDDY	GWWG	MQQM	JXXJ	BZZB	retten	treu	ehrlich	spielen	schön	fair	rächen	tot	eitel	strafen	schlecht	faul	1	acq_USunple_CSunple1_RW	acq3_RW	3	18	453	1	300	300	506	46	0	1	1	blank2r.bmp	0	1	+	0	1	blank2r.bmp	492	1	GWWG	492	1	blank2r.bmp	572	3	eitel	866	1	!	1292	1	!	1412	0	0	0	0	0	0	0	0	0	0	0	0	0	0	0	0	0	0	0	0	0	0	0	0	0	0	0	0	0	0
072419	10:08:30	10:13:48	317229	5.0.10.0	5_exp_RW	81	Rpleas_acq	CS_B	VKKV	YDDY	GWWG	MQQM	JXXJ	BZZB	retten	treu	ehrlich	spielen	schön	fair	rächen	tot	eitel	strafen	schlecht	faul	1	acq_USunple_CSunple2_RW	acq3_RW	3	19	453	0	300	300	565	46	0	1	1	blank2r.bmp	0	1	+	0	1	blank2r.bmp	492	1	MQQM	492	1	blank2r.bmp	572	2	schlecht	866	1	!	1292	1	!	-1	0	0	0	0	0	0	0	0	0	0	0	0	0	0	0	0	0	0	0	0	0	0	0	0	0	0	0	0	0	0
072419	10:08:30	10:13:50	319521	5.0.10.0	5_exp_RW	81	Rpleas_acq	CS_B	VKKV	YDDY	GWWG	MQQM	JXXJ	BZZB	retten	treu	ehrlich	spielen	schön	fair	rächen	tot	eitel	strafen	schlecht	faul	1	acq_USpleas_CSpleas2_RW	acq3_RW	3	20	453	1	300	300	481	50	0	1	1	blank2r.bmp	0	1	+	0	1	blank2r.bmp	492	1	YDDY	492	1	blank2r.bmp	572	1	spielen	866	1	!	1292	1	!	1386	0	0	0	0	0	0	0	0	0	0	0	0	0	0	0	0	0	0	0	0	0	0	0	0	0	0	0	0	0	0
072419	10:08:30	10:13:53	321787	5.0.10.0	5_exp_RW	81	Rpleas_acq	CS_B	VKKV	YDDY	GWWG	MQQM	JXXJ	BZZB	retten	treu	ehrlich	spielen	schön	fair	rächen	tot	eitel	strafen	schlecht	faul	1	acq_USpleas_CSpleas1_RW	acq3_RW	3	21	453	1	300	300	469	50	0	1	1	blank2r.bmp	0	1	+	0	1	blank2r.bmp	492	1	VKKV	492	1	blank2r.bmp	572	1	retten	866	1	!	1292	1	!	1372	0	0	0	0	0	0	0	0	0	0	0	0	0	0	0	0	0	0	0	0	0	0	0	0	0	0	0	0	0	0
072419	10:08:30	10:13:55	324266	5.0.10.0	5_exp_RW	81	Rpleas_acq	CS_B	VKKV	YDDY	GWWG	MQQM	JXXJ	BZZB	retten	treu	ehrlich	spielen	schön	fair	rächen	tot	eitel	strafen	schlecht	faul	1	acq_USpleas_CSpleas2_RW	acq3_RW	3	22	453	1	300	300	454	46	0	0	1	blank2r.bmp	0	1	+	0	1	blank2r.bmp	492	1	YDDY	492	1	blank2r.bmp	572	1	spielen	866	1	FEHLER	1679	1	!	1292	1	!	1359	0	0	0	0	0	0	0	0	0	0	0	0	0	0	0	0	0	0	0	0	0	0	0	0	0	0	0
072419	10:08:30	10:13:57	326492	5.0.10.0	5_exp_RW	81	Rpleas_acq	CS_B	VKKV	YDDY	GWWG	MQQM	JXXJ	BZZB	retten	treu	ehrlich	spielen	schön	fair	rächen	tot	eitel	strafen	schlecht	faul	1	acq_USunple_CSunple1_RW	acq3_RW	3	23	453	0	300	300	673	46	0	1	1	blank2r.bmp	0	1	+	0	1	blank2r.bmp	492	1	GWWG	492	1	blank2r.bmp	572	3	eitel	866	1	!	1292	1	!	-1	0	0	0	0	0	0	0	0	0	0	0	0	0	0	0	0	0	0	0	0	0	0	0	0	0	0	0	0	0	0
072419	10:08:30	10:14:00	328758	5.0.10.0	5_exp_RW	81	Rpleas_acq	CS_B	VKKV	YDDY	GWWG	MQQM	JXXJ	BZZB	retten	treu	ehrlich	spielen	schön	fair	rächen	tot	eitel	strafen	schlecht	faul	1	acq_USpleas_CSpleas1_RW	acq3_RW	3	24	453	1	300	300	462	50	0	1	1	blank2r.bmp	0	1	+	0	1	blank2r.bmp	492	1	VKKV	492	1	blank2r.bmp	572	2	treu	866	1	!	1292	1	!	1359	0	0	0	0	0	0	0	0	0	0	0	0	0	0	0	0	0	0	0	0	0	0	0	0	0	0	0	0	0	0
072419	10:08:30	10:14:11	340539	5.0.10.0	5_exp_RW	81	Rpleas_acq	CS_B	VKKV	YDDY	GWWG	MQQM	JXXJ	BZZB	retten	treu	ehrlich	spielen	schön	fair	rächen	tot	eitel	strafen	schlecht	faul	1	acq_USpleas_CSpleas1_RW	acq4567_RW	4	1	400	1	300	300	419	50	0	1	1	blank2r.bmp	0	1	+	0	1	blank2r.bmp	492	1	VKKV	492	1	blank2r.bmp	572	1	retten	866	1	!	1239	1	!	1319	0	0	0	0	0	0	0	0	0	0	0	0	0	0	0	0	0	0	0	0	0	0	0	0	0	0	0	0	0	0
072419	10:08:30	10:14:14	342698	5.0.10.0	5_exp_RW	81	Rpleas_acq	CS_B	VKKV	YDDY	GWWG	MQQM	JXXJ	BZZB	retten	treu	ehrlich	spielen	schön	fair	rächen	tot	eitel	strafen	schlecht	faul	1	acq_USunple_CSunple2_RW	acq4567_RW	4	2	400	1	300	300	346	46	0	1	1	blank2r.bmp	0	1	+	0	1	blank2r.bmp	492	1	MQQM	492	1	blank2r.bmp	572	3	faul	866	1	!	1239	1	!	1252	0	0	0	0	0	0	0	0	0	0	0	0	0	0	0	0	0	0	0	0	0	0	0	0	0	0	0	0	0	0
072419	10:08:30	10:14:16	344711	5.0.10.0	5_exp_RW	81	Rpleas_acq	CS_B	VKKV	YDDY	GWWG	MQQM	JXXJ	BZZB	retten	treu	ehrlich	spielen	schön	fair	rächen	tot	eitel	strafen	schlecht	faul	1	acq_USunple_CSunple2_RW	acq4567_RW	4	3	400	0	300	300	246	50	0	0	1	blank2r.bmp	0	1	+	0	1	blank2r.bmp	492	1	MQQM	492	1	blank2r.bmp	572	1	strafen	866	1	!	-1	1	!	-1	0	0	0	0	0	0	0	0	0	0	0	0	0	0	0	0	0	0	0	0	0	0	0	0	0	0	0	0	0	0
072419	10:08:30	10:14:18	346923	5.0.10.0	5_exp_RW	81	Rpleas_acq	CS_B	VKKV	YDDY	GWWG	MQQM	JXXJ	BZZB	retten	treu	ehrlich	spielen	schön	fair	rächen	tot	eitel	strafen	schlecht	faul	1	acq_USpleas_CSpleas1_RW	acq4567_RW	4	4	400	1	300	300	410	50	0	1	1	blank2r.bmp	0	1	+	0	1	blank2r.bmp	492	1	VKKV	492	1	blank2r.bmp	572	3	ehrlich	866	1	!	1239	1	!	1306	0	0	0	0	0	0	0	0	0	0	0	0	0	0	0	0	0	0	0	0	0	0	0	0	0	0	0	0	0	0
072419	10:08:30	10:14:20	349096	5.0.10.0	5_exp_RW	81	Rpleas_acq	CS_B	VKKV	YDDY	GWWG	MQQM	JXXJ	BZZB	retten	treu	ehrlich	spielen	schön	fair	rächen	tot	eitel	strafen	schlecht	faul	1	acq_USunple_CSunple1_RW	acq4567_RW	4	5	400	1	300	300	376	46	0	1	1	blank2r.bmp	0	1	+	0	1	blank2r.bmp	492	1	GWWG	492	1	blank2r.bmp	572	1	rächen	866	1	!	1239	1	!	1279	0	0	0	0	0	0	0	0	0	0	0	0	0	0	0	0	0	0	0	0	0	0	0	0	0	0	0	0	0	0
072419	10:08:30	10:14:22	351322	5.0.10.0	5_exp_RW	81	Rpleas_acq	CS_B	VKKV	YDDY	GWWG	MQQM	JXXJ	BZZB	retten	treu	ehrlich	spielen	schön	fair	rächen	tot	eitel	strafen	schlecht	faul	1	acq_USunple_CSunple2_RW	acq4567_RW	4	6	400	1	300	300	427	46	0	1	1	blank2r.bmp	0	1	+	0	1	blank2r.bmp	492	1	MQQM	492	1	blank2r.bmp	572	2	schlecht	866	1	!	1239	1	!	1332	0	0	0	0	0	0	0	0	0	0	0	0	0	0	0	0	0	0	0	0	0	0	0	0	0	0	0	0	0	0
072419	10:08:30	10:14:24	353467	5.0.10.0	5_exp_RW	81	Rpleas_acq	CS_B	VKKV	YDDY	GWWG	MQQM	JXXJ	BZZB	retten	treu	ehrlich	spielen	schön	fair	rächen	tot	eitel	strafen	schlecht	faul	1	acq_USpleas_CSpleas2_RW	acq4567_RW	4	7	400	1	300	300	352	50	0	1	1	blank2r.bmp	0	1	+	0	1	blank2r.bmp	492	1	YDDY	492	1	blank2r.bmp	572	2	schön	866	1	!	1239	1	!	1252	0	0	0	0	0	0	0	0	0	0	0	0	0	0	0	0	0	0	0	0	0	0	0	0	0	0	0	0	0	0
072419	10:08:30	10:14:26	355613	5.0.10.0	5_exp_RW	81	Rpleas_acq	CS_B	VKKV	YDDY	GWWG	MQQM	JXXJ	BZZB	retten	treu	ehrlich	spielen	schön	fair	rächen	tot	eitel	strafen	schlecht	faul	1	acq_USunple_CSunple2_RW	acq4567_RW	4	8	400	1	300	300	346	46	0	1	1	blank2r.bmp	0	1	+	0	1	blank2r.bmp	492	1	MQQM	492	1	blank2r.bmp	572	1	strafen	866	1	!	1239	1	!	1252	0	0	0	0	0	0	0	0	0	0	0	0	0	0	0	0	0	0	0	0	0	0	0	0	0	0	0	0	0	0
072419	10:08:30	10:14:29	357826	5.0.10.0	5_exp_RW	81	Rpleas_acq	CS_B	VKKV	YDDY	GWWG	MQQM	JXXJ	BZZB	retten	treu	ehrlich	spielen	schön	fair	rächen	tot	eitel	strafen	schlecht	faul	1	acq_USpleas_CSpleas2_RW	acq4567_RW	4	9	400	1	300	300	418	50	0	1	1	blank2r.bmp	0	1	+	0	1	blank2r.bmp	492	1	YDDY	492	1	blank2r.bmp	572	3	fair	866	1	!	1239	1	!	1319	0	0	0	0	0	0	0	0	0	0	0	0	0	0	0	0	0	0	0	0	0	0	0	0	0	0	0	0	0	0
072419	10:08:30	10:14:31	360051	5.0.10.0	5_exp_RW	81	Rpleas_acq	CS_B	VKKV	YDDY	GWWG	MQQM	JXXJ	BZZB	retten	treu	ehrlich	spielen	schön	fair	rächen	tot	eitel	strafen	schlecht	faul	1	acq_USunple_CSunple1_RW	acq4567_RW	4	10	400	1	300	300	423	46	0	1	1	blank2r.bmp	0	1	+	0	1	blank2r.bmp	492	1	GWWG	492	1	blank2r.bmp	572	2	tot	866	1	!	1239	1	!	1319	0	0	0	0	0	0	0	0	0	0	0	0	0	0	0	0	0	0	0	0	0	0	0	0	0	0	0	0	0	0
072419	10:08:30	10:14:33	362251	5.0.10.0	5_exp_RW	81	Rpleas_acq	CS_B	VKKV	YDDY	GWWG	MQQM	JXXJ	BZZB	retten	treu	ehrlich	spielen	schön	fair	rächen	tot	eitel	strafen	schlecht	faul	1	acq_USpleas_CSpleas1_RW	acq4567_RW	4	11	400	1	300	300	401	50	0	1	1	blank2r.bmp	0	1	+	0	1	blank2r.bmp	492	1	VKKV	492	1	blank2r.bmp	572	1	retten	866	1	!	1239	1	!	1306	0	0	0	0	0	0	0	0	0	0	0	0	0	0	0	0	0	0	0	0	0	0	0	0	0	0	0	0	0	0
072419	10:08:30	10:14:35	364476	5.0.10.0	5_exp_RW	81	Rpleas_acq	CS_B	VKKV	YDDY	GWWG	MQQM	JXXJ	BZZB	retten	treu	ehrlich	spielen	schön	fair	rächen	tot	eitel	strafen	schlecht	faul	1	acq_USpleas_CSpleas1_RW	acq4567_RW	4	12	400	1	300	300	427	46	0	0	1	blank2r.bmp	0	1	+	0	1	blank2r.bmp	492	1	VKKV	492	1	blank2r.bmp	572	3	ehrlich	866	1	!	1239	1	!	1332	0	0	0	0	0	0	0	0	0	0	0	0	0	0	0	0	0	0	0	0	0	0	0	0	0	0	0	0	0	0
072419	10:08:30	10:14:38	366755	5.0.10.0	5_exp_RW	81	Rpleas_acq	CS_B	VKKV	YDDY	GWWG	MQQM	JXXJ	BZZB	retten	treu	ehrlich	spielen	schön	fair	rächen	tot	eitel	strafen	schlecht	faul	1	acq_USpleas_CSpleas2_RW	acq4567_RW	4	13	400	0	300	300	506	50	0	1	1	blank2r.bmp	0	1	+	0	1	blank2r.bmp	492	1	YDDY	492	1	blank2r.bmp	572	3	fair	866	1	!	1239	1	!	-1	0	0	0	0	0	0	0	0	0	0	0	0	0	0	0	0	0	0	0	0	0	0	0	0	0	0	0	0	0	0
072419	10:08:30	10:14:40	369048	5.0.10.0	5_exp_RW	81	Rpleas_acq	CS_B	VKKV	YDDY	GWWG	MQQM	JXXJ	BZZB	retten	treu	ehrlich	spielen	schön	fair	rächen	tot	eitel	strafen	schlecht	faul	1	acq_USpleas_CSpleas2_RW	acq4567_RW	4	14	400	0	300	300	509	50	0	1	1	blank2r.bmp	0	1	+	0	1	blank2r.bmp	492	1	YDDY	492	1	blank2r.bmp	572	1	spielen	866	1	!	1239	1	!	-1	0	0	0	0	0	0	0	0	0	0	0	0	0	0	0	0	0	0	0	0	0	0	0	0	0	0	0	0	0	0
072419	10:08:30	10:14:42	371247	5.0.10.0	5_exp_RW	81	Rpleas_acq	CS_B	VKKV	YDDY	GWWG	MQQM	JXXJ	BZZB	retten	treu	ehrlich	spielen	schön	fair	rächen	tot	eitel	strafen	schlecht	faul	1	acq_USunple_CSunple2_RW	acq4567_RW	4	15	400	1	300	300	389	50	0	0	1	blank2r.bmp	0	1	+	0	1	blank2r.bmp	492	1	MQQM	492	1	blank2r.bmp	572	3	faul	866	1	!	1239	1	!	1292	0	0	0	0	0	0	0	0	0	0	0	0	0	0	0	0	0	0	0	0	0	0	0	0	0	0	0	0	0	0
072419	10:08:30	10:14:44	373406	5.0.10.0	5_exp_RW	81	Rpleas_acq	CS_B	VKKV	YDDY	GWWG	MQQM	JXXJ	BZZB	retten	treu	ehrlich	spielen	schön	fair	rächen	tot	eitel	strafen	schlecht	faul	1	acq_USpleas_CSpleas1_RW	acq4567_RW	4	16	400	1	300	300	370	50	0	1	1	blank2r.bmp	0	1	+	0	1	blank2r.bmp	492	1	VKKV	492	1	blank2r.bmp	572	2	treu	866	1	!	1239	1	!	1266	0	0	0	0	0	0	0	0	0	0	0	0	0	0	0	0	0	0	0	0	0	0	0	0	0	0	0	0	0	0
072419	10:08:30	10:14:46	375432	5.0.10.0	5_exp_RW	81	Rpleas_acq	CS_B	VKKV	YDDY	GWWG	MQQM	JXXJ	BZZB	retten	treu	ehrlich	spielen	schön	fair	rächen	tot	eitel	strafen	schlecht	faul	1	acq_USunple_CSunple1_RW	acq4567_RW	4	17	400	0	300	300	264	46	0	1	1	blank2r.bmp	0	1	+	0	1	blank2r.bmp	492	1	GWWG	492	1	blank2r.bmp	572	3	eitel	866	1	!	-1	1	!	-1	0	0	0	0	0	0	0	0	0	0	0	0	0	0	0	0	0	0	0	0	0	0	0	0	0	0	0	0	0	0
072419	10:08:30	10:14:49	377658	5.0.10.0	5_exp_RW	81	Rpleas_acq	CS_B	VKKV	YDDY	GWWG	MQQM	JXXJ	BZZB	retten	treu	ehrlich	spielen	schön	fair	rächen	tot	eitel	strafen	schlecht	faul	1	acq_USpleas_CSpleas2_RW	acq4567_RW	4	18	400	1	300	300	413	50	0	1	1	blank2r.bmp	0	1	+	0	1	blank2r.bmp	492	1	YDDY	492	1	blank2r.bmp	572	2	schön	866	1	!	1239	1	!	1319	0	0	0	0	0	0	0	0	0	0	0	0	0	0	0	0	0	0	0	0	0	0	0	0	0	0	0	0	0	0
072419	10:08:30	10:14:51	379897	5.0.10.0	5_exp_RW	81	Rpleas_acq	CS_B	VKKV	YDDY	GWWG	MQQM	JXXJ	BZZB	retten	treu	ehrlich	spielen	schön	fair	rächen	tot	eitel	strafen	schlecht	faul	1	acq_USunple_CSunple1_RW	acq4567_RW	4	19	400	1	300	300	451	46	0	1	1	blank2r.bmp	0	1	+	0	1	blank2r.bmp	492	1	GWWG	492	1	blank2r.bmp	572	2	tot	866	1	!	1239	1	!	1346	0	0	0	0	0	0	0	0	0	0	0	0	0	0	0	0	0	0	0	0	0	0	0	0	0	0	0	0	0	0
072419	10:08:30	10:14:56	384681	5.0.10.0	5_exp_RW	81	Rpleas_acq	CS_B	VKKV	YDDY	GWWG	MQQM	JXXJ	BZZB	retten	treu	ehrlich	spielen	schön	fair	rächen	tot	eitel	strafen	schlecht	faul	1	acq_USunple_CSunple1_RW	acq4567_RW	4	20	400	0	300	300	3016	46	0	1	1	blank2r.bmp	0	1	+	0	1	blank2r.bmp	492	1	GWWG	492	1	blank2r.bmp	572	1	rächen	866	1	!	1239	1	!	-1	0	0	0	0	0	0	0	0	0	0	0	0	0	0	0	0	0	0	0	0	0	0	0	0	0	0	0	0	0	0
072419	10:08:30	10:14:58	386947	5.0.10.0	5_exp_RW	81	Rpleas_acq	CS_B	VKKV	YDDY	GWWG	MQQM	JXXJ	BZZB	retten	treu	ehrlich	spielen	schön	fair	rächen	tot	eitel	strafen	schlecht	faul	1	acq_USunple_CSunple2_RW	acq4567_RW	4	21	400	1	300	300	459	46	0	1	1	blank2r.bmp	0	1	+	0	1	blank2r.bmp	492	1	MQQM	492	1	blank2r.bmp	572	1	strafen	866	1	!	1239	1	!	1359	0	0	0	0	0	0	0	0	0	0	0	0	0	0	0	0	0	0	0	0	0	0	0	0	0	0	0	0	0	0
072419	10:08:30	10:15:00	389506	5.0.10.0	5_exp_RW	81	Rpleas_acq	CS_B	VKKV	YDDY	GWWG	MQQM	JXXJ	BZZB	retten	treu	ehrlich	spielen	schön	fair	rächen	tot	eitel	strafen	schlecht	faul	1	acq_USunple_CSunple2_RW	acq4567_RW	4	22	400	0	300	300	795	46	0	1	1	blank2r.bmp	0	1	+	0	1	blank2r.bmp	492	1	MQQM	492	1	blank2r.bmp	572	3	faul	866	1	!	1239	1	!	-1	0	0	0	0	0	0	0	0	0	0	0	0	0	0	0	0	0	0	0	0	0	0	0	0	0	0	0	0	0	0
072419	10:08:30	10:15:03	391772	5.0.10.0	5_exp_RW	81	Rpleas_acq	CS_B	VKKV	YDDY	GWWG	MQQM	JXXJ	BZZB	retten	treu	ehrlich	spielen	schön	fair	rächen	tot	eitel	strafen	schlecht	faul	1	acq_USpleas_CSpleas1_RW	acq4567_RW	4	23	400	1	300	300	458	50	0	1	1	blank2r.bmp	0	1	+	0	1	blank2r.bmp	492	1	VKKV	492	1	blank2r.bmp	572	3	ehrlich	866	1	!	1239	1	!	1359	0	0	0	0	0	0	0	0	0	0	0	0	0	0	0	0	0	0	0	0	0	0	0	0	0	0	0	0	0	0
072419	10:08:30	10:15:05	393984	5.0.10.0	5_exp_RW	81	Rpleas_acq	CS_B	VKKV	YDDY	GWWG	MQQM	JXXJ	BZZB	retten	treu	ehrlich	spielen	schön	fair	rächen	tot	eitel	strafen	schlecht	faul	1	acq_USpleas_CSpleas2_RW	acq4567_RW	4	24	400	1	300	300	413	50	0	1	1	blank2r.bmp	0	1	+	0	1	blank2r.bmp	492	1	YDDY	492	1	blank2r.bmp	572	1	spielen	866	1	!	1239	1	!	1319	0	0	0	0	0	0	0	0	0	0	0	0	0	0	0	0	0	0	0	0	0	0	0	0	0	0	0	0	0	0
072419	10:08:30	10:15:07	396290	5.0.10.0	5_exp_RW	81	Rpleas_acq	CS_B	VKKV	YDDY	GWWG	MQQM	JXXJ	BZZB	retten	treu	ehrlich	spielen	schön	fair	rächen	tot	eitel	strafen	schlecht	faul	1	acq_USpleas_CSpleas2_RW	acq4567_RW	4	25	400	0	300	300	522	50	0	1	1	blank2r.bmp	0	1	+	0	1	blank2r.bmp	492	1	YDDY	492	1	blank2r.bmp	572	3	fair	866	1	!	1239	1	!	-1	0	0	0	0	0	0	0	0	0	0	0	0	0	0	0	0	0	0	0	0	0	0	0	0	0	0	0	0	0	0
072419	10:08:30	10:15:09	398556	5.0.10.0	5_exp_RW	81	Rpleas_acq	CS_B	VKKV	YDDY	GWWG	MQQM	JXXJ	BZZB	retten	treu	ehrlich	spielen	schön	fair	rächen	tot	eitel	strafen	schlecht	faul	1	acq_USunple_CSunple1_RW	acq4567_RW	4	26	400	1	300	300	464	46	0	1	1	blank2r.bmp	0	1	+	0	1	blank2r.bmp	492	1	GWWG	492	1	blank2r.bmp	572	3	eitel	866	1	!	1239	1	!	1359	0	0	0	0	0	0	0	0	0	0	0	0	0	0	0	0	0	0	0	0	0	0	0	0	0	0	0	0	0	0
072419	10:08:30	10:15:12	400808	5.0.10.0	5_exp_RW	81	Rpleas_acq	CS_B	VKKV	YDDY	GWWG	MQQM	JXXJ	BZZB	retten	treu	ehrlich	spielen	schön	fair	rächen	tot	eitel	strafen	schlecht	faul	1	acq_USpleas_CSpleas2_RW	acq4567_RW	4	27	400	1	300	300	446	50	0	1	1	blank2r.bmp	0	1	+	0	1	blank2r.bmp	492	1	YDDY	492	1	blank2r.bmp	572	2	schön	866	1	!	1239	1	!	1346	0	0	0	0	0	0	0	0	0	0	0	0	0	0	0	0	0	0	0	0	0	0	0	0	0	0	0	0	0	0
072419	10:08:30	10:15:14	403007	5.0.10.0	5_exp_RW	81	Rpleas_acq	CS_B	VKKV	YDDY	GWWG	MQQM	JXXJ	BZZB	retten	treu	ehrlich	spielen	schön	fair	rächen	tot	eitel	strafen	schlecht	faul	1	acq_USpleas_CSpleas1_RW	acq4567_RW	4	28	400	1	300	300	399	50	0	1	1	blank2r.bmp	0	1	+	0	1	blank2r.bmp	492	1	VKKV	492	1	blank2r.bmp	572	1	retten	866	1	!	1239	1	!	1306	0	0	0	0	0	0	0	0	0	0	0	0	0	0	0	0	0	0	0	0	0	0	0	0	0	0	0	0	0	0
072419	10:08:30	10:15:16	405220	5.0.10.0	5_exp_RW	81	Rpleas_acq	CS_B	VKKV	YDDY	GWWG	MQQM	JXXJ	BZZB	retten	treu	ehrlich	spielen	schön	fair	rächen	tot	eitel	strafen	schlecht	faul	1	acq_USpleas_CSpleas1_RW	acq4567_RW	4	29	400	1	300	300	416	50	0	1	1	blank2r.bmp	0	1	+	0	1	blank2r.bmp	492	1	VKKV	492	1	blank2r.bmp	572	2	treu	866	1	!	1239	1	!	1319	0	0	0	0	0	0	0	0	0	0	0	0	0	0	0	0	0	0	0	0	0	0	0	0	0	0	0	0	0	0
072419	10:08:30	10:15:18	407432	5.0.10.0	5_exp_RW	81	Rpleas_acq	CS_B	VKKV	YDDY	GWWG	MQQM	JXXJ	BZZB	retten	treu	ehrlich	spielen	schön	fair	rächen	tot	eitel	strafen	schlecht	faul	1	acq_USunple_CSunple1_RW	acq4567_RW	4	30	400	1	300	300	419	46	0	1	1	blank2r.bmp	0	1	+	0	1	blank2r.bmp	492	1	GWWG	492	1	blank2r.bmp	572	1	rächen	866	1	!	1239	1	!	1319	0	0	0	0	0	0	0	0	0	0	0	0	0	0	0	0	0	0	0	0	0	0	0	0	0	0	0	0	0	0
072419	10:08:30	10:15:21	409658	5.0.10.0	5_exp_RW	81	Rpleas_acq	CS_B	VKKV	YDDY	GWWG	MQQM	JXXJ	BZZB	retten	treu	ehrlich	spielen	schön	fair	rächen	tot	eitel	strafen	schlecht	faul	1	acq_USunple_CSunple1_RW	acq4567_RW	4	31	400	1	300	300	425	46	0	1	1	blank2r.bmp	0	1	+	0	1	blank2r.bmp	492	1	GWWG	492	1	blank2r.bmp	572	2	tot	866	1	!	1239	1	!	1319	0	0	0	0	0	0	0	0	0	0	0	0	0	0	0	0	0	0	0	0	0	0	0	0	0	0	0	0	0	0
072419	10:08:30	10:15:23	411830	5.0.10.0	5_exp_RW	81	Rpleas_acq	CS_B	VKKV	YDDY	GWWG	MQQM	JXXJ	BZZB	retten	treu	ehrlich	spielen	schön	fair	rächen	tot	eitel	strafen	schlecht	faul	1	acq_USunple_CSunple2_RW	acq4567_RW	4	32	400	1	300	300	383	46	0	1	1	blank2r.bmp	0	1	+	0	1	blank2r.bmp	492	1	MQQM	492	1	blank2r.bmp	572	2	schlecht	866	1	!	1239	1	!	1279	0	0	0	0	0	0	0	0	0	0	0	0	0	0	0	0	0	0	0	0	0	0	0	0	0	0	0	0	0	0
072419	10:08:30	10:15:25	414016	5.0.10.0	5_exp_RW	81	Rpleas_acq	CS_B	VKKV	YDDY	GWWG	MQQM	JXXJ	BZZB	retten	treu	ehrlich	spielen	schön	fair	rächen	tot	eitel	strafen	schlecht	faul	1	acq_USpleas_CSpleas2_RW	acq4567_RW	4	33	400	1	300	300	384	50	0	1	1	blank2r.bmp	0	1	+	0	1	blank2r.bmp	492	1	YDDY	492	1	blank2r.bmp	572	2	schön	866	1	!	1239	1	!	1279	0	0	0	0	0	0	0	0	0	0	0	0	0	0	0	0	0	0	0	0	0	0	0	0	0	0	0	0	0	0
072419	10:08:30	10:15:27	416229	5.0.10.0	5_exp_RW	81	Rpleas_acq	CS_B	VKKV	YDDY	GWWG	MQQM	JXXJ	BZZB	retten	treu	ehrlich	spielen	schön	fair	rächen	tot	eitel	strafen	schlecht	faul	1	acq_USpleas_CSpleas2_RW	acq4567_RW	4	34	400	1	300	300	399	50	0	1	1	blank2r.bmp	0	1	+	0	1	blank2r.bmp	492	1	YDDY	492	1	blank2r.bmp	572	1	spielen	866	1	!	1239	1	!	1306	0	0	0	0	0	0	0	0	0	0	0	0	0	0	0	0	0	0	0	0	0	0	0	0	0	0	0	0	0	0
072419	10:08:30	10:15:29	418481	5.0.10.0	5_exp_RW	81	Rpleas_acq	CS_B	VKKV	YDDY	GWWG	MQQM	JXXJ	BZZB	retten	treu	ehrlich	spielen	schön	fair	rächen	tot	eitel	strafen	schlecht	faul	1	acq_USunple_CSunple2_RW	acq4567_RW	4	35	400	0	300	300	479	46	0	1	1	blank2r.bmp	0	1	+	0	1	blank2r.bmp	492	1	MQQM	492	1	blank2r.bmp	572	1	strafen	866	1	!	1239	1	!	-1	0	0	0	0	0	0	0	0	0	0	0	0	0	0	0	0	0	0	0	0	0	0	0	0	0	0	0	0	0	0
072419	10:08:30	10:15:31	420587	5.0.10.0	5_exp_RW	81	Rpleas_acq	CS_B	VKKV	YDDY	GWWG	MQQM	JXXJ	BZZB	retten	treu	ehrlich	spielen	schön	fair	rächen	tot	eitel	strafen	schlecht	faul	1	acq_USpleas_CSpleas1_RW	acq4567_RW	4	36	400	0	300	300	321	50	0	1	1	blank2r.bmp	0	1	+	0	1	blank2r.bmp	492	1	VKKV	492	1	blank2r.bmp	572	3	ehrlich	866	1	!	-1	1	!	-1	0	0	0	0	0	0	0	0	0	0	0	0	0	0	0	0	0	0	0	0	0	0	0	0	0	0	0	0	0	0
072419	10:08:30	10:15:34	422853	5.0.10.0	5_exp_RW	81	Rpleas_acq	CS_B	VKKV	YDDY	GWWG	MQQM	JXXJ	BZZB	retten	treu	ehrlich	spielen	schön	fair	rächen	tot	eitel	strafen	schlecht	faul	1	acq_USunple_CSunple1_RW	acq4567_RW	4	37	400	1	300	300	453	46	0	1	1	blank2r.bmp	0	1	+	0	1	blank2r.bmp	492	1	GWWG	492	1	blank2r.bmp	572	2	tot	866	1	!	1239	1	!	1359	0	0	0	0	0	0	0	0	0	0	0	0	0	0	0	0	0	0	0	0	0	0	0	0	0	0	0	0	0	0
072419	10:08:30	10:15:36	425065	5.0.10.0	5_exp_RW	81	Rpleas_acq	CS_B	VKKV	YDDY	GWWG	MQQM	JXXJ	BZZB	retten	treu	ehrlich	spielen	schön	fair	rächen	tot	eitel	strafen	schlecht	faul	1	acq_USunple_CSunple2_RW	acq4567_RW	4	38	400	1	300	300	412	46	0	1	1	blank2r.bmp	0	1	+	0	1	blank2r.bmp	492	1	MQQM	492	1	blank2r.bmp	572	2	schlecht	866	1	!	1239	1	!	1319	0	0	0	0	0	0	0	0	0	0	0	0	0	0	0	0	0	0	0	0	0	0	0	0	0	0	0	0	0	0
072419	10:08:30	10:15:38	427344	5.0.10.0	5_exp_RW	81	Rpleas_acq	CS_B	VKKV	YDDY	GWWG	MQQM	JXXJ	BZZB	retten	treu	ehrlich	spielen	schön	fair	rächen	tot	eitel	strafen	schlecht	faul	1	acq_USunple_CSunple1_RW	acq4567_RW	4	39	400	0	300	300	518	46	0	1	1	blank2r.bmp	0	1	+	0	1	blank2r.bmp	492	1	GWWG	492	1	blank2r.bmp	572	1	rächen	866	1	!	1239	1	!	-1	0	0	0	0	0	0	0	0	0	0	0	0	0	0	0	0	0	0	0	0	0	0	0	0	0	0	0	0	0	0
072419	10:08:30	10:15:41	429676	5.0.10.0	5_exp_RW	81	Rpleas_acq	CS_B	VKKV	YDDY	GWWG	MQQM	JXXJ	BZZB	retten	treu	ehrlich	spielen	schön	fair	rächen	tot	eitel	strafen	schlecht	faul	1	acq_USpleas_CSpleas1_RW	acq4567_RW	4	40	400	0	300	300	550	50	0	1	1	blank2r.bmp	0	1	+	0	1	blank2r.bmp	492	1	VKKV	492	1	blank2r.bmp	572	1	retten	866	1	!	1239	1	!	-1	0	0	0	0	0	0	0	0	0	0	0	0	0	0	0	0	0	0	0	0	0	0	0	0	0	0	0	0	0	0
072419	10:08:30	10:15:43	431902	5.0.10.0	5_exp_RW	81	Rpleas_acq	CS_B	VKKV	YDDY	GWWG	MQQM	JXXJ	BZZB	retten	treu	ehrlich	spielen	schön	fair	rächen	tot	eitel	strafen	schlecht	faul	1	acq_USpleas_CSpleas2_RW	acq4567_RW	4	41	400	1	300	300	417	46	0	0	1	blank2r.bmp	0	1	+	0	1	blank2r.bmp	492	1	YDDY	492	1	blank2r.bmp	572	3	fair	866	1	!	1239	1	!	1319	0	0	0	0	0	0	0	0	0	0	0	0	0	0	0	0	0	0	0	0	0	0	0	0	0	0	0	0	0	0
072419	10:08:30	10:15:45	434115	5.0.10.0	5_exp_RW	81	Rpleas_acq	CS_B	VKKV	YDDY	GWWG	MQQM	JXXJ	BZZB	retten	treu	ehrlich	spielen	schön	fair	rächen	tot	eitel	strafen	schlecht	faul	1	acq_USunple_CSunple1_RW	acq4567_RW	4	42	400	1	300	300	419	46	0	1	1	blank2r.bmp	0	1	+	0	1	blank2r.bmp	492	1	GWWG	492	1	blank2r.bmp	572	3	eitel	866	1	!	1239	1	!	1319	0	0	0	0	0	0	0	0	0	0	0	0	0	0	0	0	0	0	0	0	0	0	0	0	0	0	0	0	0	0
072419	10:08:30	10:15:47	436340	5.0.10.0	5_exp_RW	81	Rpleas_acq	CS_B	VKKV	YDDY	GWWG	MQQM	JXXJ	BZZB	retten	treu	ehrlich	spielen	schön	fair	rächen	tot	eitel	strafen	schlecht	faul	1	acq_USunple_CSunple1_RW	acq4567_RW	4	43	400	1	300	300	432	46	0	1	1	blank2r.bmp	0	1	+	0	1	blank2r.bmp	492	1	GWWG	492	1	blank2r.bmp	572	1	rächen	866	1	!	1239	1	!	1332	0	0	0	0	0	0	0	0	0	0	0	0	0	0	0	0	0	0	0	0	0	0	0	0	0	0	0	0	0	0
072419	10:08:30	10:15:49	438433	5.0.10.0	5_exp_RW	81	Rpleas_acq	CS_B	VKKV	YDDY	GWWG	MQQM	JXXJ	BZZB	retten	treu	ehrlich	spielen	schön	fair	rächen	tot	eitel	strafen	schlecht	faul	1	acq_USunple_CSunple1_RW	acq4567_RW	4	44	400	0	300	300	319	46	0	1	1	blank2r.bmp	0	1	+	0	1	blank2r.bmp	492	1	GWWG	492	1	blank2r.bmp	572	3	eitel	866	1	!	-1	1	!	-1	0	0	0	0	0	0	0	0	0	0	0	0	0	0	0	0	0	0	0	0	0	0	0	0	0	0	0	0	0	0
072419	10:08:30	10:15:52	441378	5.0.10.0	5_exp_RW	81	Rpleas_acq	CS_B	VKKV	YDDY	GWWG	MQQM	JXXJ	BZZB	retten	treu	ehrlich	spielen	schön	fair	rächen	tot	eitel	strafen	schlecht	faul	1	acq_USunple_CSunple2_RW	acq4567_RW	4	45	400	0	300	300	1165	46	0	1	1	blank2r.bmp	0	1	+	0	1	blank2r.bmp	492	1	MQQM	492	1	blank2r.bmp	572	3	faul	866	1	!	1239	1	!	-1	0	0	0	0	0	0	0	0	0	0	0	0	0	0	0	0	0	0	0	0	0	0	0	0	0	0	0	0	0	0
072419	10:08:30	10:15:55	443737	5.0.10.0	5_exp_RW	81	Rpleas_acq	CS_B	VKKV	YDDY	GWWG	MQQM	JXXJ	BZZB	retten	treu	ehrlich	spielen	schön	fair	rächen	tot	eitel	strafen	schlecht	faul	1	acq_USpleas_CSpleas1_RW	acq4567_RW	4	46	400	0	300	300	581	50	0	1	1	blank2r.bmp	0	1	+	0	1	blank2r.bmp	492	1	VKKV	492	1	blank2r.bmp	572	2	treu	866	1	!	1239	1	!	-1	0	0	0	0	0	0	0	0	0	0	0	0	0	0	0	0	0	0	0	0	0	0	0	0	0	0	0	0	0	0
072419	10:08:30	10:15:57	445976	5.0.10.0	5_exp_RW	81	Rpleas_acq	CS_B	VKKV	YDDY	GWWG	MQQM	JXXJ	BZZB	retten	treu	ehrlich	spielen	schön	fair	rächen	tot	eitel	strafen	schlecht	faul	1	acq_USpleas_CSpleas1_RW	acq4567_RW	4	47	400	1	300	300	437	50	0	1	1	blank2r.bmp	0	1	+	0	1	blank2r.bmp	492	1	VKKV	492	1	blank2r.bmp	572	3	ehrlich	866	1	!	1239	1	!	1332	0	0	0	0	0	0	0	0	0	0	0	0	0	0	0	0	0	0	0	0	0	0	0	0	0	0	0	0	0	0
072419	10:08:30	10:15:59	448229	5.0.10.0	5_exp_RW	81	Rpleas_acq	CS_B	VKKV	YDDY	GWWG	MQQM	JXXJ	BZZB	retten	treu	ehrlich	spielen	schön	fair	rächen	tot	eitel	strafen	schlecht	faul	1	acq_USunple_CSunple2_RW	acq4567_RW	4	48	400	1	300	300	465	46	0	1	1	blank2r.bmp	0	1	+	0	1	blank2r.bmp	492	1	MQQM	492	1	blank2r.bmp	572	2	schlecht	866	1	!	1239	1	!	1359	0	0	0	0	0	0	0	0	0	0	0	0	0	0	0	0	0	0	0	0	0	0	0	0	0	0	0	0	0	0
072419	10:08:30	10:16:01	450441	5.0.10.0	5_exp_RW	81	Rpleas_acq	CS_B	VKKV	YDDY	GWWG	MQQM	JXXJ	BZZB	retten	treu	ehrlich	spielen	schön	fair	rächen	tot	eitel	strafen	schlecht	faul	1	acq_USunple_CSunple2_RW	acq4567_RW	4	49	400	1	300	300	419	46	0	1	1	blank2r.bmp	0	1	+	0	1	blank2r.bmp	492	1	MQQM	492	1	blank2r.bmp	572	3	faul	866	1	!	1239	1	!	1319	0	0	0	0	0	0	0	0	0	0	0	0	0	0	0	0	0	0	0	0	0	0	0	0	0	0	0	0	0	0
072419	10:08:30	10:16:04	452694	5.0.10.0	5_exp_RW	81	Rpleas_acq	CS_B	VKKV	YDDY	GWWG	MQQM	JXXJ	BZZB	retten	treu	ehrlich	spielen	schön	fair	rächen	tot	eitel	strafen	schlecht	faul	1	acq_USpleas_CSpleas1_RW	acq4567_RW	4	50	400	1	300	300	451	50	0	1	1	blank2r.bmp	0	1	+	0	1	blank2r.bmp	492	1	VKKV	492	1	blank2r.bmp	572	1	retten	866	1	!	1239	1	!	1346	0	0	0	0	0	0	0	0	0	0	0	0	0	0	0	0	0	0	0	0	0	0	0	0	0	0	0	0	0	0
072419	10:08:30	10:16:06	454866	5.0.10.0	5_exp_RW	81	Rpleas_acq	CS_B	VKKV	YDDY	GWWG	MQQM	JXXJ	BZZB	retten	treu	ehrlich	spielen	schön	fair	rächen	tot	eitel	strafen	schlecht	faul	1	acq_USpleas_CSpleas2_RW	acq4567_RW	4	51	400	1	300	300	383	50	0	1	1	blank2r.bmp	0	1	+	0	1	blank2r.bmp	492	1	YDDY	492	1	blank2r.bmp	572	1	spielen	866	1	!	1239	1	!	1279	0	0	0	0	0	0	0	0	0	0	0	0	0	0	0	0	0	0	0	0	0	0	0	0	0	0	0	0	0	0
072419	10:08:30	10:16:08	457012	5.0.10.0	5_exp_RW	81	Rpleas_acq	CS_B	VKKV	YDDY	GWWG	MQQM	JXXJ	BZZB	retten	treu	ehrlich	spielen	schön	fair	rächen	tot	eitel	strafen	schlecht	faul	1	acq_USpleas_CSpleas1_RW	acq4567_RW	4	52	400	1	300	300	353	46	0	0	1	blank2r.bmp	0	1	+	0	1	blank2r.bmp	492	1	VKKV	492	1	blank2r.bmp	572	2	treu	866	1	!	1239	1	!	1252	0	0	0	0	0	0	0	0	0	0	0	0	0	0	0	0	0	0	0	0	0	0	0	0	0	0	0	0	0	0
072419	10:08:30	10:16:10	459104	5.0.10.0	5_exp_RW	81	Rpleas_acq	CS_B	VKKV	YDDY	GWWG	MQQM	JXXJ	BZZB	retten	treu	ehrlich	spielen	schön	fair	rächen	tot	eitel	strafen	schlecht	faul	1	acq_USunple_CSunple2_RW	acq4567_RW	4	53	400	0	300	300	326	46	0	1	1	blank2r.bmp	0	1	+	0	1	blank2r.bmp	492	1	MQQM	492	1	blank2r.bmp	572	1	strafen	866	1	!	-1	1	!	-1	0	0	0	0	0	0	0	0	0	0	0	0	0	0	0	0	0	0	0	0	0	0	0	0	0	0	0	0	0	0
072419	10:08:30	10:16:12	461304	5.0.10.0	5_exp_RW	81	Rpleas_acq	CS_B	VKKV	YDDY	GWWG	MQQM	JXXJ	BZZB	retten	treu	ehrlich	spielen	schön	fair	rächen	tot	eitel	strafen	schlecht	faul	1	acq_USpleas_CSpleas2_RW	acq4567_RW	4	54	400	1	300	300	393	50	0	1	1	blank2r.bmp	0	1	+	0	1	blank2r.bmp	492	1	YDDY	492	1	blank2r.bmp	572	2	schön	866	1	!	1239	1	!	1292	0	0	0	0	0	0	0	0	0	0	0	0	0	0	0	0	0	0	0	0	0	0	0	0	0	0	0	0	0	0
072419	10:08:30	10:16:14	463476	5.0.10.0	5_exp_RW	81	Rpleas_acq	CS_B	VKKV	YDDY	GWWG	MQQM	JXXJ	BZZB	retten	treu	ehrlich	spielen	schön	fair	rächen	tot	eitel	strafen	schlecht	faul	1	acq_USunple_CSunple1_RW	acq4567_RW	4	55	400	1	300	300	377	50	0	0	1	blank2r.bmp	0	1	+	0	1	blank2r.bmp	492	1	GWWG	492	1	blank2r.bmp	572	2	tot	866	1	!	1239	1	!	1279	0	0	0	0	0	0	0	0	0	0	0	0	0	0	0	0	0	0	0	0	0	0	0	0	0	0	0	0	0	0
072419	10:08:30	10:16:17	465675	5.0.10.0	5_exp_RW	81	Rpleas_acq	CS_B	VKKV	YDDY	GWWG	MQQM	JXXJ	BZZB	retten	treu	ehrlich	spielen	schön	fair	rächen	tot	eitel	strafen	schlecht	faul	1	acq_USunple_CSunple1_RW	acq4567_RW	4	56	400	1	300	300	409	50	0	0	1	blank2r.bmp	0	1	+	0	1	blank2r.bmp	492	1	GWWG	492	1	blank2r.bmp	572	1	rächen	866	1	!	1239	1	!	1306	0	0	0	0	0	0	0	0	0	0	0	0	0	0	0	0	0	0	0	0	0	0	0	0	0	0	0	0	0	0
072419	10:08:30	10:16:19	467887	5.0.10.0	5_exp_RW	81	Rpleas_acq	CS_B	VKKV	YDDY	GWWG	MQQM	JXXJ	BZZB	retten	treu	ehrlich	spielen	schön	fair	rächen	tot	eitel	strafen	schlecht	faul	1	acq_USpleas_CSpleas2_RW	acq4567_RW	4	57	400	1	300	300	417	50	0	1	1	blank2r.bmp	0	1	+	0	1	blank2r.bmp	492	1	YDDY	492	1	blank2r.bmp	572	3	fair	866	1	!	1239	1	!	1319	0	0	0	0	0	0	0	0	0	0	0	0	0	0	0	0	0	0	0	0	0	0	0	0	0	0	0	0	0	0
072419	10:08:30	10:16:21	470300	5.0.10.0	5_exp_RW	81	Rpleas_acq	CS_B	VKKV	YDDY	GWWG	MQQM	JXXJ	BZZB	retten	treu	ehrlich	spielen	schön	fair	rächen	tot	eitel	strafen	schlecht	faul	1	acq_USpleas_CSpleas1_RW	acq4567_RW	4	58	400	0	300	300	648	50	0	1	1	blank2r.bmp	0	1	+	0	1	blank2r.bmp	492	1	VKKV	492	1	blank2r.bmp	572	1	retten	866	1	!	1239	1	!	-1	0	0	0	0	0	0	0	0	0	0	0	0	0	0	0	0	0	0	0	0	0	0	0	0	0	0	0	0	0	0
072419	10:08:30	10:16:23	472526	5.0.10.0	5_exp_RW	81	Rpleas_acq	CS_B	VKKV	YDDY	GWWG	MQQM	JXXJ	BZZB	retten	treu	ehrlich	spielen	schön	fair	rächen	tot	eitel	strafen	schlecht	faul	1	acq_USunple_CSunple2_RW	acq4567_RW	4	59	400	1	300	300	415	46	0	1	1	blank2r.bmp	0	1	+	0	1	blank2r.bmp	492	1	MQQM	492	1	blank2r.bmp	572	2	schlecht	866	1	!	1239	1	!	1319	0	0	0	0	0	0	0	0	0	0	0	0	0	0	0	0	0	0	0	0	0	0	0	0	0	0	0	0	0	0
072419	10:08:30	10:16:26	474805	5.0.10.0	5_exp_RW	81	Rpleas_acq	CS_B	VKKV	YDDY	GWWG	MQQM	JXXJ	BZZB	retten	treu	ehrlich	spielen	schön	fair	rächen	tot	eitel	strafen	schlecht	faul	1	acq_USpleas_CSpleas2_RW	acq4567_RW	4	60	400	0	300	300	507	50	0	1	1	blank2r.bmp	0	1	+	0	1	blank2r.bmp	492	1	YDDY	492	1	blank2r.bmp	572	2	schön	866	1	!	1239	1	!	-1	0	0	0	0	0	0	0	0	0	0	0	0	0	0	0	0	0	0	0	0	0	0	0	0	0	0	0	0	0	0
072419	10:08:30	10:16:28	477070	5.0.10.0	5_exp_RW	81	Rpleas_acq	CS_B	VKKV	YDDY	GWWG	MQQM	JXXJ	BZZB	retten	treu	ehrlich	spielen	schön	fair	rächen	tot	eitel	strafen	schlecht	faul	1	acq_USunple_CSunple1_RW	acq4567_RW	4	61	400	0	300	300	479	46	0	1	1	blank2r.bmp	0	1	+	0	1	blank2r.bmp	492	1	GWWG	492	1	blank2r.bmp	572	3	eitel	866	1	!	1239	1	!	-1	0	0	0	0	0	0	0	0	0	0	0	0	0	0	0	0	0	0	0	0	0	0	0	0	0	0	0	0	0	0
072419	10:08:30	10:16:30	479389	5.0.10.0	5_exp_RW	81	Rpleas_acq	CS_B	VKKV	YDDY	GWWG	MQQM	JXXJ	BZZB	retten	treu	ehrlich	spielen	schön	fair	rächen	tot	eitel	strafen	schlecht	faul	1	acq_USunple_CSunple2_RW	acq4567_RW	4	62	400	0	300	300	534	46	0	1	1	blank2r.bmp	0	1	+	0	1	blank2r.bmp	492	1	MQQM	492	1	blank2r.bmp	572	1	strafen	866	1	!	1239	1	!	-1	0	0	0	0	0	0	0	0	0	0	0	0	0	0	0	0	0	0	0	0	0	0	0	0	0	0	0	0	0	0
072419	10:08:30	10:16:32	481562	5.0.10.0	5_exp_RW	81	Rpleas_acq	CS_B	VKKV	YDDY	GWWG	MQQM	JXXJ	BZZB	retten	treu	ehrlich	spielen	schön	fair	rächen	tot	eitel	strafen	schlecht	faul	1	acq_USpleas_CSpleas1_RW	acq4567_RW	4	63	400	1	300	300	368	50	0	1	1	blank2r.bmp	0	1	+	0	1	blank2r.bmp	492	1	VKKV	492	1	blank2r.bmp	572	2	treu	866	1	!	1239	1	!	1266	0	0	0	0	0	0	0	0	0	0	0	0	0	0	0	0	0	0	0	0	0	0	0	0	0	0	0	0	0	0
072419	10:08:30	10:16:35	483654	5.0.10.0	5_exp_RW	81	Rpleas_acq	CS_B	VKKV	YDDY	GWWG	MQQM	JXXJ	BZZB	retten	treu	ehrlich	spielen	schön	fair	rächen	tot	eitel	strafen	schlecht	faul	1	acq_USunple_CSunple1_RW	acq4567_RW	4	64	400	0	300	300	315	46	0	1	1	blank2r.bmp	0	1	+	0	1	blank2r.bmp	492	1	GWWG	492	1	blank2r.bmp	572	2	tot	866	1	!	-1	1	!	-1	0	0	0	0	0	0	0	0	0	0	0	0	0	0	0	0	0	0	0	0	0	0	0	0	0	0	0	0	0	0
072419	10:08:30	10:16:37	486040	5.0.10.0	5_exp_RW	81	Rpleas_acq	CS_B	VKKV	YDDY	GWWG	MQQM	JXXJ	BZZB	retten	treu	ehrlich	spielen	schön	fair	rächen	tot	eitel	strafen	schlecht	faul	1	acq_USunple_CSunple1_RW	acq4567_RW	4	65	400	0	300	300	588	46	0	1	1	blank2r.bmp	0	1	+	0	1	blank2r.bmp	492	1	GWWG	492	1	blank2r.bmp	572	1	rächen	866	1	!	1239	1	!	-1	0	0	0	0	0	0	0	0	0	0	0	0	0	0	0	0	0	0	0	0	0	0	0	0	0	0	0	0	0	0
072419	10:08:30	10:16:39	488293	5.0.10.0	5_exp_RW	81	Rpleas_acq	CS_B	VKKV	YDDY	GWWG	MQQM	JXXJ	BZZB	retten	treu	ehrlich	spielen	schön	fair	rächen	tot	eitel	strafen	schlecht	faul	1	acq_USpleas_CSpleas2_RW	acq4567_RW	4	66	400	1	300	300	441	50	0	1	1	blank2r.bmp	0	1	+	0	1	blank2r.bmp	492	1	YDDY	492	1	blank2r.bmp	572	3	fair	866	1	!	1239	1	!	1346	0	0	0	0	0	0	0	0	0	0	0	0	0	0	0	0	0	0	0	0	0	0	0	0	0	0	0	0	0	0
072419	10:08:30	10:16:43	492238	5.0.10.0	5_exp_RW	81	Rpleas_acq	CS_B	VKKV	YDDY	GWWG	MQQM	JXXJ	BZZB	retten	treu	ehrlich	spielen	schön	fair	rächen	tot	eitel	strafen	schlecht	faul	1	acq_USunple_CSunple2_RW	acq4567_RW	4	67	400	0	300	300	2177	46	0	1	1	blank2r.bmp	0	1	+	0	1	blank2r.bmp	492	1	MQQM	492	1	blank2r.bmp	572	3	faul	866	1	!	1239	1	!	-1	0	0	0	0	0	0	0	0	0	0	0	0	0	0	0	0	0	0	0	0	0	0	0	0	0	0	0	0	0	0
072419	10:08:30	10:16:45	494463	5.0.10.0	5_exp_RW	81	Rpleas_acq	CS_B	VKKV	YDDY	GWWG	MQQM	JXXJ	BZZB	retten	treu	ehrlich	spielen	schön	fair	rächen	tot	eitel	strafen	schlecht	faul	1	acq_USpleas_CSpleas2_RW	acq4567_RW	4	68	400	1	300	300	418	50	0	1	1	blank2r.bmp	0	1	+	0	1	blank2r.bmp	492	1	YDDY	492	1	blank2r.bmp	572	1	spielen	866	1	!	1239	1	!	1319	0	0	0	0	0	0	0	0	0	0	0	0	0	0	0	0	0	0	0	0	0	0	0	0	0	0	0	0	0	0
072419	10:08:30	10:16:48	496662	5.0.10.0	5_exp_RW	81	Rpleas_acq	CS_B	VKKV	YDDY	GWWG	MQQM	JXXJ	BZZB	retten	treu	ehrlich	spielen	schön	fair	rächen	tot	eitel	strafen	schlecht	faul	1	acq_USunple_CSunple2_RW	acq4567_RW	4	69	400	1	300	300	398	46	0	1	1	blank2r.bmp	0	1	+	0	1	blank2r.bmp	492	1	MQQM	492	1	blank2r.bmp	572	1	strafen	866	1	!	1239	1	!	1292	0	0	0	0	0	0	0	0	0	0	0	0	0	0	0	0	0	0	0	0	0	0	0	0	0	0	0	0	0	0
072419	10:08:30	10:16:50	498822	5.0.10.0	5_exp_RW	81	Rpleas_acq	CS_B	VKKV	YDDY	GWWG	MQQM	JXXJ	BZZB	retten	treu	ehrlich	spielen	schön	fair	rächen	tot	eitel	strafen	schlecht	faul	1	acq_USpleas_CSpleas1_RW	acq4567_RW	4	70	400	1	300	300	346	50	0	1	1	blank2r.bmp	0	1	+	0	1	blank2r.bmp	492	1	VKKV	492	1	blank2r.bmp	572	3	ehrlich	866	1	!	1239	1	!	1252	0	0	0	0	0	0	0	0	0	0	0	0	0	0	0	0	0	0	0	0	0	0	0	0	0	0	0	0	0	0
072419	10:08:30	10:16:52	501007	5.0.10.0	5_exp_RW	81	Rpleas_acq	CS_B	VKKV	YDDY	GWWG	MQQM	JXXJ	BZZB	retten	treu	ehrlich	spielen	schön	fair	rächen	tot	eitel	strafen	schlecht	faul	1	acq_USpleas_CSpleas1_RW	acq4567_RW	4	71	400	1	300	300	389	50	0	1	1	blank2r.bmp	0	1	+	0	1	blank2r.bmp	492	1	VKKV	492	1	blank2r.bmp	572	3	ehrlich	866	1	!	1239	1	!	1292	0	0	0	0	0	0	0	0	0	0	0	0	0	0	0	0	0	0	0	0	0	0	0	0	0	0	0	0	0	0
072419	10:08:30	10:16:54	503246	5.0.10.0	5_exp_RW	81	Rpleas_acq	CS_B	VKKV	YDDY	GWWG	MQQM	JXXJ	BZZB	retten	treu	ehrlich	spielen	schön	fair	rächen	tot	eitel	strafen	schlecht	faul	1	acq_USpleas_CSpleas2_RW	acq4567_RW	4	72	400	1	300	300	449	50	0	1	1	blank2r.bmp	0	1	+	0	1	blank2r.bmp	492	1	YDDY	492	1	blank2r.bmp	572	1	spielen	866	1	!	1239	1	!	1346	0	0	0	0	0	0	0	0	0	0	0	0	0	0	0	0	0	0	0	0	0	0	0	0	0	0	0	0	0	0
072419	10:08:30	10:16:56	505512	5.0.10.0	5_exp_RW	81	Rpleas_acq	CS_B	VKKV	YDDY	GWWG	MQQM	JXXJ	BZZB	retten	treu	ehrlich	spielen	schön	fair	rächen	tot	eitel	strafen	schlecht	faul	1	acq_USunple_CSunple2_RW	acq4567_RW	4	73	400	0	300	300	490	46	0	1	1	blank2r.bmp	0	1	+	0	1	blank2r.bmp	492	1	MQQM	492	1	blank2r.bmp	572	3	faul	866	1	!	1239	1	!	-1	0	0	0	0	0	0	0	0	0	0	0	0	0	0	0	0	0	0	0	0	0	0	0	0	0	0	0	0	0	0
072419	10:08:30	10:16:59	507685	5.0.10.0	5_exp_RW	81	Rpleas_acq	CS_B	VKKV	YDDY	GWWG	MQQM	JXXJ	BZZB	retten	treu	ehrlich	spielen	schön	fair	rächen	tot	eitel	strafen	schlecht	faul	1	acq_USpleas_CSpleas2_RW	acq4567_RW	4	74	400	1	300	300	346	50	0	1	1	blank2r.bmp	0	1	+	0	1	blank2r.bmp	492	1	YDDY	492	1	blank2r.bmp	572	2	schön	866	1	!	1239	1	!	1252	0	0	0	0	0	0	0	0	0	0	0	0	0	0	0	0	0	0	0	0	0	0	0	0	0	0	0	0	0	0
072419	10:08:30	10:17:01	509870	5.0.10.0	5_exp_RW	81	Rpleas_acq	CS_B	VKKV	YDDY	GWWG	MQQM	JXXJ	BZZB	retten	treu	ehrlich	spielen	schön	fair	rächen	tot	eitel	strafen	schlecht	faul	1	acq_USunple_CSunple2_RW	acq4567_RW	4	75	400	1	300	300	393	46	0	1	1	blank2r.bmp	0	1	+	0	1	blank2r.bmp	492	1	MQQM	492	1	blank2r.bmp	572	2	schlecht	866	1	!	1239	1	!	1292	0	0	0	0	0	0	0	0	0	0	0	0	0	0	0	0	0	0	0	0	0	0	0	0	0	0	0	0	0	0
072419	10:08:30	10:17:03	512029	5.0.10.0	5_exp_RW	81	Rpleas_acq	CS_B	VKKV	YDDY	GWWG	MQQM	JXXJ	BZZB	retten	treu	ehrlich	spielen	schön	fair	rächen	tot	eitel	strafen	schlecht	faul	1	acq_USunple_CSunple1_RW	acq4567_RW	4	76	400	1	300	300	361	50	0	0	1	blank2r.bmp	0	1	+	0	1	blank2r.bmp	492	1	GWWG	492	1	blank2r.bmp	572	3	eitel	866	1	!	1239	1	!	1266	0	0	0	0	0	0	0	0	0	0	0	0	0	0	0	0	0	0	0	0	0	0	0	0	0	0	0	0	0	0
072419	10:08:30	10:17:05	514322	5.0.10.0	5_exp_RW	81	Rpleas_acq	CS_B	VKKV	YDDY	GWWG	MQQM	JXXJ	BZZB	retten	treu	ehrlich	spielen	schön	fair	rächen	tot	eitel	strafen	schlecht	faul	1	acq_USunple_CSunple1_RW	acq4567_RW	4	77	400	0	300	300	506	46	0	1	1	blank2r.bmp	0	1	+	0	1	blank2r.bmp	492	1	GWWG	492	1	blank2r.bmp	572	2	tot	866	1	!	1239	1	!	-1	0	0	0	0	0	0	0	0	0	0	0	0	0	0	0	0	0	0	0	0	0	0	0	0	0	0	0	0	0	0
072419	10:08:30	10:17:07	516548	5.0.10.0	5_exp_RW	81	Rpleas_acq	CS_B	VKKV	YDDY	GWWG	MQQM	JXXJ	BZZB	retten	treu	ehrlich	spielen	schön	fair	rächen	tot	eitel	strafen	schlecht	faul	1	acq_USpleas_CSpleas1_RW	acq4567_RW	4	78	400	1	300	300	414	50	0	1	1	blank2r.bmp	0	1	+	0	1	blank2r.bmp	492	1	VKKV	492	1	blank2r.bmp	572	1	retten	866	1	!	1239	1	!	1319	0	0	0	0	0	0	0	0	0	0	0	0	0	0	0	0	0	0	0	0	0	0	0	0	0	0	0	0	0	0
072419	10:08:30	10:17:10	518800	5.0.10.0	5_exp_RW	81	Rpleas_acq	CS_B	VKKV	YDDY	GWWG	MQQM	JXXJ	BZZB	retten	treu	ehrlich	spielen	schön	fair	rächen	tot	eitel	strafen	schlecht	faul	1	acq_USpleas_CSpleas2_RW	acq4567_RW	4	79	400	0	300	300	479	50	0	1	1	blank2r.bmp	0	1	+	0	1	blank2r.bmp	492	1	YDDY	492	1	blank2r.bmp	572	3	fair	866	1	!	1239	1	!	-1	0	0	0	0	0	0	0	0	0	0	0	0	0	0	0	0	0	0	0	0	0	0	0	0	0	0	0	0	0	0
072419	10:08:30	10:17:12	520906	5.0.10.0	5_exp_RW	81	Rpleas_acq	CS_B	VKKV	YDDY	GWWG	MQQM	JXXJ	BZZB	retten	treu	ehrlich	spielen	schön	fair	rächen	tot	eitel	strafen	schlecht	faul	1	acq_USpleas_CSpleas1_RW	acq4567_RW	4	80	400	0	300	300	331	46	0	0	1	blank2r.bmp	0	1	+	0	1	blank2r.bmp	492	1	VKKV	492	1	blank2r.bmp	572	2	treu	866	1	!	-1	1	!	-1	0	0	0	0	0	0	0	0	0	0	0	0	0	0	0	0	0	0	0	0	0	0	0	0	0	0	0	0	0	0
072419	10:08:30	10:17:38	547122	5.0.10.0	5_exp_RW	81	Rpleas_acq	CS_B	VKKV	YDDY	GWWG	MQQM	JXXJ	BZZB	retten	treu	ehrlich	spielen	schön	fair	rächen	tot	eitel	strafen	schlecht	faul	1	acq_USpleas_CSpleas2_RW	acq4567_RW	5	1	400	1	300	300	459	50	0	1	1	blank2r.bmp	0	1	+	0	1	blank2r.bmp	492	1	YDDY	492	1	blank2r.bmp	572	2	schön	866	1	!	1239	1	!	1359	0	0	0	0	0	0	0	0	0	0	0	0	0	0	0	0	0	0	0	0	0	0	0	0	0	0	0	0	0	0
072419	10:08:30	10:17:40	549374	5.0.10.0	5_exp_RW	81	Rpleas_acq	CS_B	VKKV	YDDY	GWWG	MQQM	JXXJ	BZZB	retten	treu	ehrlich	spielen	schön	fair	rächen	tot	eitel	strafen	schlecht	faul	1	acq_USpleas_CSpleas2_RW	acq4567_RW	5	2	400	1	300	300	465	50	0	1	1	blank2r.bmp	0	1	+	0	1	blank2r.bmp	492	1	YDDY	492	1	blank2r.bmp	572	1	spielen	866	1	!	1239	1	!	1359	0	0	0	0	0	0	0	0	0	0	0	0	0	0	0	0	0	0	0	0	0	0	0	0	0	0	0	0	0	0
072419	10:08:30	10:17:42	551587	5.0.10.0	5_exp_RW	81	Rpleas_acq	CS_B	VKKV	YDDY	GWWG	MQQM	JXXJ	BZZB	retten	treu	ehrlich	spielen	schön	fair	rächen	tot	eitel	strafen	schlecht	faul	1	acq_USunple_CSunple2_RW	acq4567_RW	5	3	400	1	300	300	408	46	0	1	1	blank2r.bmp	0	1	+	0	1	blank2r.bmp	492	1	MQQM	492	1	blank2r.bmp	572	2	schlecht	866	1	!	1239	1	!	1306	0	0	0	0	0	0	0	0	0	0	0	0	0	0	0	0	0	0	0	0	0	0	0	0	0	0	0	0	0	0
072419	10:08:30	10:17:45	553839	5.0.10.0	5_exp_RW	81	Rpleas_acq	CS_B	VKKV	YDDY	GWWG	MQQM	JXXJ	BZZB	retten	treu	ehrlich	spielen	schön	fair	rächen	tot	eitel	strafen	schlecht	faul	1	acq_USpleas_CSpleas1_RW	acq4567_RW	5	4	400	0	300	300	479	50	0	1	1	blank2r.bmp	0	1	+	0	1	blank2r.bmp	492	1	VKKV	492	1	blank2r.bmp	572	1	retten	866	1	!	1239	1	!	-1	0	0	0	0	0	0	0	0	0	0	0	0	0	0	0	0	0	0	0	0	0	0	0	0	0	0	0	0	0	0
072419	10:08:30	10:17:47	556052	5.0.10.0	5_exp_RW	81	Rpleas_acq	CS_B	VKKV	YDDY	GWWG	MQQM	JXXJ	BZZB	retten	treu	ehrlich	spielen	schön	fair	rächen	tot	eitel	strafen	schlecht	faul	1	acq_USunple_CSunple2_RW	acq4567_RW	5	5	400	1	300	300	387	46	0	1	1	blank2r.bmp	0	1	+	0	1	blank2r.bmp	492	1	MQQM	492	1	blank2r.bmp	572	1	strafen	866	1	!	1239	1	!	1292	0	0	0	0	0	0	0	0	0	0	0	0	0	0	0	0	0	0	0	0	0	0	0	0	0	0	0	0	0	0
072419	10:08:30	10:17:49	558277	5.0.10.0	5_exp_RW	81	Rpleas_acq	CS_B	VKKV	YDDY	GWWG	MQQM	JXXJ	BZZB	retten	treu	ehrlich	spielen	schön	fair	rächen	tot	eitel	strafen	schlecht	faul	1	acq_USunple_CSunple1_RW	acq4567_RW	5	6	400	1	300	300	417	46	0	1	1	blank2r.bmp	0	1	+	0	1	blank2r.bmp	492	1	GWWG	492	1	blank2r.bmp	572	2	tot	866	1	!	1239	1	!	1319	0	0	0	0	0	0	0	0	0	0	0	0	0	0	0	0	0	0	0	0	0	0	0	0	0	0	0	0	0	0
072419	10:08:30	10:17:51	560543	5.0.10.0	5_exp_RW	81	Rpleas_acq	CS_B	VKKV	YDDY	GWWG	MQQM	JXXJ	BZZB	retten	treu	ehrlich	spielen	schön	fair	rächen	tot	eitel	strafen	schlecht	faul	1	acq_USunple_CSunple2_RW	acq4567_RW	5	7	400	0	300	300	499	46	0	1	1	blank2r.bmp	0	1	+	0	1	blank2r.bmp	492	1	MQQM	492	1	blank2r.bmp	572	3	faul	866	1	!	1239	1	!	-1	0	0	0	0	0	0	0	0	0	0	0	0	0	0	0	0	0	0	0	0	0	0	0	0	0	0	0	0	0	0
072419	10:08:30	10:17:54	562809	5.0.10.0	5_exp_RW	81	Rpleas_acq	CS_B	VKKV	YDDY	GWWG	MQQM	JXXJ	BZZB	retten	treu	ehrlich	spielen	schön	fair	rächen	tot	eitel	strafen	schlecht	faul	1	acq_USunple_CSunple1_RW	acq4567_RW	5	8	400	0	300	300	484	46	0	1	1	blank2r.bmp	0	1	+	0	1	blank2r.bmp	492	1	GWWG	492	1	blank2r.bmp	572	1	rächen	866	1	!	1239	1	!	-1	0	0	0	0	0	0	0	0	0	0	0	0	0	0	0	0	0	0	0	0	0	0	0	0	0	0	0	0	0	0
072419	10:08:30	10:17:56	565048	5.0.10.0	5_exp_RW	81	Rpleas_acq	CS_B	VKKV	YDDY	GWWG	MQQM	JXXJ	BZZB	retten	treu	ehrlich	spielen	schön	fair	rächen	tot	eitel	strafen	schlecht	faul	1	acq_USpleas_CSpleas1_RW	acq4567_RW	5	9	400	1	300	300	421	50	0	1	1	blank2r.bmp	0	1	+	0	1	blank2r.bmp	492	1	VKKV	492	1	blank2r.bmp	572	3	ehrlich	866	1	!	1239	1	!	1319	0	0	0	0	0	0	0	0	0	0	0	0	0	0	0	0	0	0	0	0	0	0	0	0	0	0	0	0	0	0
072419	10:08:30	10:17:58	567274	5.0.10.0	5_exp_RW	81	Rpleas_acq	CS_B	VKKV	YDDY	GWWG	MQQM	JXXJ	BZZB	retten	treu	ehrlich	spielen	schön	fair	rächen	tot	eitel	strafen	schlecht	faul	1	acq_USpleas_CSpleas1_RW	acq4567_RW	5	10	400	1	300	300	429	50	0	1	1	blank2r.bmp	0	1	+	0	1	blank2r.bmp	492	1	VKKV	492	1	blank2r.bmp	572	2	treu	866	1	!	1239	1	!	1332	0	0	0	0	0	0	0	0	0	0	0	0	0	0	0	0	0	0	0	0	0	0	0	0	0	0	0	0	0	0
072419	10:08:30	10:18:00	569366	5.0.10.0	5_exp_RW	81	Rpleas_acq	CS_B	VKKV	YDDY	GWWG	MQQM	JXXJ	BZZB	retten	treu	ehrlich	spielen	schön	fair	rächen	tot	eitel	strafen	schlecht	faul	1	acq_USpleas_CSpleas2_RW	acq4567_RW	5	11	400	0	300	300	328	50	0	1	1	blank2r.bmp	0	1	+	0	1	blank2r.bmp	492	1	YDDY	492	1	blank2r.bmp	572	3	fair	866	1	!	-1	1	!	-1	0	0	0	0	0	0	0	0	0	0	0	0	0	0	0	0	0	0	0	0	0	0	0	0	0	0	0	0	0	0
072419	10:08:30	10:18:03	571619	5.0.10.0	5_exp_RW	81	Rpleas_acq	CS_B	VKKV	YDDY	GWWG	MQQM	JXXJ	BZZB	retten	treu	ehrlich	spielen	schön	fair	rächen	tot	eitel	strafen	schlecht	faul	1	acq_USunple_CSunple1_RW	acq4567_RW	5	12	400	1	300	300	446	46	0	1	1	blank2r.bmp	0	1	+	0	1	blank2r.bmp	492	1	GWWG	492	1	blank2r.bmp	572	3	eitel	866	1	!	1239	1	!	1346	0	0	0	0	0	0	0	0	0	0	0	0	0	0	0	0	0	0	0	0	0	0	0	0	0	0	0	0	0	0
072419	10:08:30	10:18:05	573871	5.0.10.0	5_exp_RW	81	Rpleas_acq	CS_B	VKKV	YDDY	GWWG	MQQM	JXXJ	BZZB	retten	treu	ehrlich	spielen	schön	fair	rächen	tot	eitel	strafen	schlecht	faul	1	acq_USunple_CSunple2_RW	acq4567_RW	5	13	400	0	300	300	490	46	0	1	1	blank2r.bmp	0	1	+	0	1	blank2r.bmp	492	1	MQQM	492	1	blank2r.bmp	572	1	strafen	866	1	!	1239	1	!	-1	0	0	0	0	0	0	0	0	0	0	0	0	0	0	0	0	0	0	0	0	0	0	0	0	0	0	0	0	0	0
072419	10:08:30	10:18:07	576057	5.0.10.0	5_exp_RW	81	Rpleas_acq	CS_B	VKKV	YDDY	GWWG	MQQM	JXXJ	BZZB	retten	treu	ehrlich	spielen	schön	fair	rächen	tot	eitel	strafen	schlecht	faul	1	acq_USpleas_CSpleas2_RW	acq4567_RW	5	14	400	1	300	300	370	46	0	0	1	blank2r.bmp	0	1	+	0	1	blank2r.bmp	492	1	YDDY	492	1	blank2r.bmp	572	1	spielen	866	1	!	1239	1	!	1266	0	0	0	0	0	0	0	0	0	0	0	0	0	0	0	0	0	0	0	0	0	0	0	0	0	0	0	0	0	0
072419	10:08:30	10:18:10	578776	5.0.10.0	5_exp_RW	81	Rpleas_acq	CS_B	VKKV	YDDY	GWWG	MQQM	JXXJ	BZZB	retten	treu	ehrlich	spielen	schön	fair	rächen	tot	eitel	strafen	schlecht	faul	1	acq_USunple_CSunple1_RW	acq4567_RW	5	15	400	0	300	300	945	46	0	1	1	blank2r.bmp	0	1	+	0	1	blank2r.bmp	492	1	GWWG	492	1	blank2r.bmp	572	1	rächen	866	1	!	1239	1	!	-1	0	0	0	0	0	0	0	0	0	0	0	0	0	0	0	0	0	0	0	0	0	0	0	0	0	0	0	0	0	0
072419	10:08:30	10:18:12	580881	5.0.10.0	5_exp_RW	81	Rpleas_acq	CS_B	VKKV	YDDY	GWWG	MQQM	JXXJ	BZZB	retten	treu	ehrlich	spielen	schön	fair	rächen	tot	eitel	strafen	schlecht	faul	1	acq_USpleas_CSpleas2_RW	acq4567_RW	5	16	400	0	300	300	330	50	0	1	1	blank2r.bmp	0	1	+	0	1	blank2r.bmp	492	1	YDDY	492	1	blank2r.bmp	572	3	fair	866	1	!	-1	1	!	-1	0	0	0	0	0	0	0	0	0	0	0	0	0	0	0	0	0	0	0	0	0	0	0	0	0	0	0	0	0	0
072419	10:08:30	10:18:14	583107	5.0.10.0	5_exp_RW	81	Rpleas_acq	CS_B	VKKV	YDDY	GWWG	MQQM	JXXJ	BZZB	retten	treu	ehrlich	spielen	schön	fair	rächen	tot	eitel	strafen	schlecht	faul	1	acq_USunple_CSunple1_RW	acq4567_RW	5	17	400	1	300	300	413	46	0	1	1	blank2r.bmp	0	1	+	0	1	blank2r.bmp	492	1	GWWG	492	1	blank2r.bmp	572	3	eitel	866	1	!	1239	1	!	1319	0	0	0	0	0	0	0	0	0	0	0	0	0	0	0	0	0	0	0	0	0	0	0	0	0	0	0	0	0	0
072419	10:08:30	10:18:16	585360	5.0.10.0	5_exp_RW	81	Rpleas_acq	CS_B	VKKV	YDDY	GWWG	MQQM	JXXJ	BZZB	retten	treu	ehrlich	spielen	schön	fair	rächen	tot	eitel	strafen	schlecht	faul	1	acq_USpleas_CSpleas1_RW	acq4567_RW	5	18	400	0	300	300	479	50	0	1	1	blank2r.bmp	0	1	+	0	1	blank2r.bmp	492	1	VKKV	492	1	blank2r.bmp	572	1	retten	866	1	!	1239	1	!	-1	0	0	0	0	0	0	0	0	0	0	0	0	0	0	0	0	0	0	0	0	0	0	0	0	0	0	0	0	0	0
072419	10:08:30	10:18:18	587545	5.0.10.0	5_exp_RW	81	Rpleas_acq	CS_B	VKKV	YDDY	GWWG	MQQM	JXXJ	BZZB	retten	treu	ehrlich	spielen	schön	fair	rächen	tot	eitel	strafen	schlecht	faul	1	acq_USpleas_CSpleas1_RW	acq4567_RW	5	19	400	1	300	300	383	46	0	0	1	blank2r.bmp	0	1	+	0	1	blank2r.bmp	492	1	VKKV	492	1	blank2r.bmp	572	3	ehrlich	866	1	!	1239	1	!	1279	0	0	0	0	0	0	0	0	0	0	0	0	0	0	0	0	0	0	0	0	0	0	0	0	0	0	0	0	0	0
072419	10:08:30	10:18:21	589904	5.0.10.0	5_exp_RW	81	Rpleas_acq	CS_B	VKKV	YDDY	GWWG	MQQM	JXXJ	BZZB	retten	treu	ehrlich	spielen	schön	fair	rächen	tot	eitel	strafen	schlecht	faul	1	acq_USunple_CSunple2_RW	acq4567_RW	5	20	400	0	300	300	586	46	0	1	1	blank2r.bmp	0	1	+	0	1	blank2r.bmp	492	1	MQQM	492	1	blank2r.bmp	572	2	schlecht	866	1	!	1239	1	!	-1	0	0	0	0	0	0	0	0	0	0	0	0	0	0	0	0	0	0	0	0	0	0	0	0	0	0	0	0	0	0
072419	10:08:30	10:18:23	592170	5.0.10.0	5_exp_RW	81	Rpleas_acq	CS_B	VKKV	YDDY	GWWG	MQQM	JXXJ	BZZB	retten	treu	ehrlich	spielen	schön	fair	rächen	tot	eitel	strafen	schlecht	faul	1	acq_USunple_CSunple2_RW	acq4567_RW	5	21	400	1	300	300	442	50	0	0	1	blank2r.bmp	0	1	+	0	1	blank2r.bmp	492	1	MQQM	492	1	blank2r.bmp	572	3	faul	866	1	!	1239	1	!	1346	0	0	0	0	0	0	0	0	0	0	0	0	0	0	0	0	0	0	0	0	0	0	0	0	0	0	0	0	0	0
072419	10:08:30	10:18:25	594316	5.0.10.0	5_exp_RW	81	Rpleas_acq	CS_B	VKKV	YDDY	GWWG	MQQM	JXXJ	BZZB	retten	treu	ehrlich	spielen	schön	fair	rächen	tot	eitel	strafen	schlecht	faul	1	acq_USpleas_CSpleas2_RW	acq4567_RW	5	22	400	1	300	300	351	50	0	1	1	blank2r.bmp	0	1	+	0	1	blank2r.bmp	492	1	YDDY	492	1	blank2r.bmp	572	2	schön	866	1	!	1239	1	!	1252	0	0	0	0	0	0	0	0	0	0	0	0	0	0	0	0	0	0	0	0	0	0	0	0	0	0	0	0	0	0
072419	10:08:30	10:18:28	596648	5.0.10.0	5_exp_RW	81	Rpleas_acq	CS_B	VKKV	YDDY	GWWG	MQQM	JXXJ	BZZB	retten	treu	ehrlich	spielen	schön	fair	rächen	tot	eitel	strafen	schlecht	faul	1	acq_USunple_CSunple2_RW	acq4567_RW	5	23	400	0	300	300	560	50	0	0	1	blank2r.bmp	0	1	+	0	1	blank2r.bmp	492	1	MQQM	492	1	blank2r.bmp	572	3	faul	866	1	!	1239	1	!	-1	0	0	0	0	0	0	0	0	0	0	0	0	0	0	0	0	0	0	0	0	0	0	0	0	0	0	0	0	0	0
072419	10:08:30	10:18:30	598754	5.0.10.0	5_exp_RW	81	Rpleas_acq	CS_B	VKKV	YDDY	GWWG	MQQM	JXXJ	BZZB	retten	treu	ehrlich	spielen	schön	fair	rächen	tot	eitel	strafen	schlecht	faul	1	acq_USpleas_CSpleas1_RW	acq4567_RW	5	24	400	0	300	300	323	50	0	1	1	blank2r.bmp	0	1	+	0	1	blank2r.bmp	492	1	VKKV	492	1	blank2r.bmp	572	2	treu	866	1	!	-1	1	!	-1	0	0	0	0	0	0	0	0	0	0	0	0	0	0	0	0	0	0	0	0	0	0	0	0	0	0	0	0	0	0
072419	10:08:30	10:18:32	601060	5.0.10.0	5_exp_RW	81	Rpleas_acq	CS_B	VKKV	YDDY	GWWG	MQQM	JXXJ	BZZB	retten	treu	ehrlich	spielen	schön	fair	rächen	tot	eitel	strafen	schlecht	faul	1	acq_USunple_CSunple1_RW	acq4567_RW	5	25	400	0	300	300	521	46	0	1	1	blank2r.bmp	0	1	+	0	1	blank2r.bmp	492	1	GWWG	492	1	blank2r.bmp	572	2	tot	866	1	!	1239	1	!	-1	0	0	0	0	0	0	0	0	0	0	0	0	0	0	0	0	0	0	0	0	0	0	0	0	0	0	0	0	0	0
072419	10:08:30	10:18:34	603326	5.0.10.0	5_exp_RW	81	Rpleas_acq	CS_B	VKKV	YDDY	GWWG	MQQM	JXXJ	BZZB	retten	treu	ehrlich	spielen	schön	fair	rächen	tot	eitel	strafen	schlecht	faul	1	acq_USunple_CSunple1_RW	acq4567_RW	5	26	400	1	300	300	441	46	0	1	1	blank2r.bmp	0	1	+	0	1	blank2r.bmp	492	1	GWWG	492	1	blank2r.bmp	572	2	tot	866	1	!	1239	1	!	1346	0	0	0	0	0	0	0	0	0	0	0	0	0	0	0	0	0	0	0	0	0	0	0	0	0	0	0	0	0	0
072419	10:08:30	10:18:37	605658	5.0.10.0	5_exp_RW	81	Rpleas_acq	CS_B	VKKV	YDDY	GWWG	MQQM	JXXJ	BZZB	retten	treu	ehrlich	spielen	schön	fair	rächen	tot	eitel	strafen	schlecht	faul	1	acq_USunple_CSunple2_RW	acq4567_RW	5	27	400	0	300	300	565	46	0	1	1	blank2r.bmp	0	1	+	0	1	blank2r.bmp	492	1	MQQM	492	1	blank2r.bmp	572	2	schlecht	866	1	!	1239	1	!	-1	0	0	0	0	0	0	0	0	0	0	0	0	0	0	0	0	0	0	0	0	0	0	0	0	0	0	0	0	0	0
072419	10:08:30	10:18:39	607870	5.0.10.0	5_exp_RW	81	Rpleas_acq	CS_B	VKKV	YDDY	GWWG	MQQM	JXXJ	BZZB	retten	treu	ehrlich	spielen	schön	fair	rächen	tot	eitel	strafen	schlecht	faul	1	acq_USunple_CSunple1_RW	acq4567_RW	5	28	400	1	300	300	409	46	0	1	1	blank2r.bmp	0	1	+	0	1	blank2r.bmp	492	1	GWWG	492	1	blank2r.bmp	572	3	eitel	866	1	!	1239	1	!	1306	0	0	0	0	0	0	0	0	0	0	0	0	0	0	0	0	0	0	0	0	0	0	0	0	0	0	0	0	0	0
072419	10:08:30	10:18:41	610070	5.0.10.0	5_exp_RW	81	Rpleas_acq	CS_B	VKKV	YDDY	GWWG	MQQM	JXXJ	BZZB	retten	treu	ehrlich	spielen	schön	fair	rächen	tot	eitel	strafen	schlecht	faul	1	acq_USpleas_CSpleas1_RW	acq4567_RW	5	29	400	1	300	300	404	50	0	1	1	blank2r.bmp	0	1	+	0	1	blank2r.bmp	492	1	VKKV	492	1	blank2r.bmp	572	3	ehrlich	866	1	!	1239	1	!	1306	0	0	0	0	0	0	0	0	0	0	0	0	0	0	0	0	0	0	0	0	0	0	0	0	0	0	0	0	0	0
072419	10:08:30	10:18:43	612495	5.0.10.0	5_exp_RW	81	Rpleas_acq	CS_B	VKKV	YDDY	GWWG	MQQM	JXXJ	BZZB	retten	treu	ehrlich	spielen	schön	fair	rächen	tot	eitel	strafen	schlecht	faul	1	acq_USunple_CSunple1_RW	acq4567_RW	5	30	400	0	300	300	664	46	0	1	1	blank2r.bmp	0	1	+	0	1	blank2r.bmp	492	1	GWWG	492	1	blank2r.bmp	572	1	rächen	866	1	!	1239	1	!	-1	0	0	0	0	0	0	0	0	0	0	0	0	0	0	0	0	0	0	0	0	0	0	0	0	0	0	0	0	0	0
072419	10:08:30	10:18:46	614614	5.0.10.0	5_exp_RW	81	Rpleas_acq	CS_B	VKKV	YDDY	GWWG	MQQM	JXXJ	BZZB	retten	treu	ehrlich	spielen	schön	fair	rächen	tot	eitel	strafen	schlecht	faul	1	acq_USpleas_CSpleas1_RW	acq4567_RW	5	31	400	0	300	300	324	50	0	1	1	blank2r.bmp	0	1	+	0	1	blank2r.bmp	492	1	VKKV	492	1	blank2r.bmp	572	1	retten	866	1	!	-1	1	!	-1	0	0	0	0	0	0	0	0	0	0	0	0	0	0	0	0	0	0	0	0	0	0	0	0	0	0	0	0	0	0
072419	10:08:30	10:18:48	616880	5.0.10.0	5_exp_RW	81	Rpleas_acq	CS_B	VKKV	YDDY	GWWG	MQQM	JXXJ	BZZB	retten	treu	ehrlich	spielen	schön	fair	rächen	tot	eitel	strafen	schlecht	faul	1	acq_USpleas_CSpleas2_RW	acq4567_RW	5	32	400	0	300	300	481	50	0	1	1	blank2r.bmp	0	1	+	0	1	blank2r.bmp	492	1	YDDY	492	1	blank2r.bmp	572	2	schön	866	1	!	1239	1	!	-1	0	0	0	0	0	0	0	0	0	0	0	0	0	0	0	0	0	0	0	0	0	0	0	0	0	0	0	0	0	0
072419	10:08:30	10:18:50	618919	5.0.10.0	5_exp_RW	81	Rpleas_acq	CS_B	VKKV	YDDY	GWWG	MQQM	JXXJ	BZZB	retten	treu	ehrlich	spielen	schön	fair	rächen	tot	eitel	strafen	schlecht	faul	1	acq_USpleas_CSpleas2_RW	acq4567_RW	5	33	400	0	300	300	256	46	0	0	1	blank2r.bmp	0	1	+	0	1	blank2r.bmp	492	1	YDDY	492	1	blank2r.bmp	572	1	spielen	866	1	!	-1	1	!	-1	0	0	0	0	0	0	0	0	0	0	0	0	0	0	0	0	0	0	0	0	0	0	0	0	0	0	0	0	0	0
072419	10:08:30	10:18:52	621185	5.0.10.0	5_exp_RW	81	Rpleas_acq	CS_B	VKKV	YDDY	GWWG	MQQM	JXXJ	BZZB	retten	treu	ehrlich	spielen	schön	fair	rächen	tot	eitel	strafen	schlecht	faul	1	acq_USunple_CSunple2_RW	acq4567_RW	5	34	400	1	300	300	459	46	0	1	1	blank2r.bmp	0	1	+	0	1	blank2r.bmp	492	1	MQQM	492	1	blank2r.bmp	572	1	strafen	866	1	!	1239	1	!	1359	0	0	0	0	0	0	0	0	0	0	0	0	0	0	0	0	0	0	0	0	0	0	0	0	0	0	0	0	0	0
072419	10:08:30	10:18:54	623517	5.0.10.0	5_exp_RW	81	Rpleas_acq	CS_B	VKKV	YDDY	GWWG	MQQM	JXXJ	BZZB	retten	treu	ehrlich	spielen	schön	fair	rächen	tot	eitel	strafen	schlecht	faul	1	acq_USunple_CSunple2_RW	acq4567_RW	5	35	400	0	300	300	564	50	0	0	1	blank2r.bmp	0	1	+	0	1	blank2r.bmp	492	1	MQQM	492	1	blank2r.bmp	572	3	faul	866	1	!	1239	1	!	-1	0	0	0	0	0	0	0	0	0	0	0	0	0	0	0	0	0	0	0	0	0	0	0	0	0	0	0	0	0	0
072419	10:08:30	10:18:57	625770	5.0.10.0	5_exp_RW	81	Rpleas_acq	CS_B	VKKV	YDDY	GWWG	MQQM	JXXJ	BZZB	retten	treu	ehrlich	spielen	schön	fair	rächen	tot	eitel	strafen	schlecht	faul	1	acq_USunple_CSunple1_RW	acq4567_RW	5	36	400	1	300	300	440	46	0	1	1	blank2r.bmp	0	1	+	0	1	blank2r.bmp	492	1	GWWG	492	1	blank2r.bmp	572	1	rächen	866	1	!	1239	1	!	1346	0	0	0	0	0	0	0	0	0	0	0	0	0	0	0	0	0	0	0	0	0	0	0	0	0	0	0	0	0	0
072419	10:08:30	10:18:59	627969	5.0.10.0	5_exp_RW	81	Rpleas_acq	CS_B	VKKV	YDDY	GWWG	MQQM	JXXJ	BZZB	retten	treu	ehrlich	spielen	schön	fair	rächen	tot	eitel	strafen	schlecht	faul	1	acq_USpleas_CSpleas1_RW	acq4567_RW	5	37	400	1	300	300	407	50	0	1	1	blank2r.bmp	0	1	+	0	1	blank2r.bmp	492	1	VKKV	492	1	blank2r.bmp	572	2	treu	866	1	!	1239	1	!	1306	0	0	0	0	0	0	0	0	0	0	0	0	0	0	0	0	0	0	0	0	0	0	0	0	0	0	0	0	0	0
072419	10:08:30	10:19:01	630235	5.0.10.0	5_exp_RW	81	Rpleas_acq	CS_B	VKKV	YDDY	GWWG	MQQM	JXXJ	BZZB	retten	treu	ehrlich	spielen	schön	fair	rächen	tot	eitel	strafen	schlecht	faul	1	acq_USpleas_CSpleas2_RW	acq4567_RW	5	38	400	0	300	300	484	50	0	1	1	blank2r.bmp	0	1	+	0	1	blank2r.bmp	492	1	YDDY	492	1	blank2r.bmp	572	3	fair	866	1	!	1239	1	!	-1	0	0	0	0	0	0	0	0	0	0	0	0	0	0	0	0	0	0	0	0	0	0	0	0	0	0	0	0	0	0
072419	10:08:30	10:19:03	632500	5.0.10.0	5_exp_RW	81	Rpleas_acq	CS_B	VKKV	YDDY	GWWG	MQQM	JXXJ	BZZB	retten	treu	ehrlich	spielen	schön	fair	rächen	tot	eitel	strafen	schlecht	faul	1	acq_USpleas_CSpleas2_RW	acq4567_RW	5	39	400	1	300	300	460	50	0	1	1	blank2r.bmp	0	1	+	0	1	blank2r.bmp	492	1	YDDY	492	1	blank2r.bmp	572	3	fair	866	1	!	1239	1	!	1359	0	0	0	0	0	0	0	0	0	0	0	0	0	0	0	0	0	0	0	0	0	0	0	0	0	0	0	0	0	0
072419	10:08:30	10:19:06	634753	5.0.10.0	5_exp_RW	81	Rpleas_acq	CS_B	VKKV	YDDY	GWWG	MQQM	JXXJ	BZZB	retten	treu	ehrlich	spielen	schön	fair	rächen	tot	eitel	strafen	schlecht	faul	1	acq_USpleas_CSpleas1_RW	acq4567_RW	5	40	400	0	300	300	479	50	0	1	1	blank2r.bmp	0	1	+	0	1	blank2r.bmp	492	1	VKKV	492	1	blank2r.bmp	572	2	treu	866	1	!	1239	1	!	-1	0	0	0	0	0	0	0	0	0	0	0	0	0	0	0	0	0	0	0	0	0	0	0	0	0	0	0	0	0	0
072419	10:08:30	10:19:08	636925	5.0.10.0	5_exp_RW	81	Rpleas_acq	CS_B	VKKV	YDDY	GWWG	MQQM	JXXJ	BZZB	retten	treu	ehrlich	spielen	schön	fair	rächen	tot	eitel	strafen	schlecht	faul	1	acq_USunple_CSunple2_RW	acq4567_RW	5	41	400	1	300	300	368	46	0	1	1	blank2r.bmp	0	1	+	0	1	blank2r.bmp	492	1	MQQM	492	1	blank2r.bmp	572	1	strafen	866	1	!	1239	1	!	1266	0	0	0	0	0	0	0	0	0	0	0	0	0	0	0	0	0	0	0	0	0	0	0	0	0	0	0	0	0	0
072419	10:08:30	10:19:10	639191	5.0.10.0	5_exp_RW	81	Rpleas_acq	CS_B	VKKV	YDDY	GWWG	MQQM	JXXJ	BZZB	retten	treu	ehrlich	spielen	schön	fair	rächen	tot	eitel	strafen	schlecht	faul	1	acq_USunple_CSunple1_RW	acq4567_RW	5	42	400	0	300	300	494	46	0	1	1	blank2r.bmp	0	1	+	0	1	blank2r.bmp	492	1	GWWG	492	1	blank2r.bmp	572	3	eitel	866	1	!	1239	1	!	-1	0	0	0	0	0	0	0	0	0	0	0	0	0	0	0	0	0	0	0	0	0	0	0	0	0	0	0	0	0	0
072419	10:08:30	10:19:12	641363	5.0.10.0	5_exp_RW	81	Rpleas_acq	CS_B	VKKV	YDDY	GWWG	MQQM	JXXJ	BZZB	retten	treu	ehrlich	spielen	schön	fair	rächen	tot	eitel	strafen	schlecht	faul	1	acq_USpleas_CSpleas2_RW	acq4567_RW	5	43	400	1	300	300	362	50	0	1	1	blank2r.bmp	0	1	+	0	1	blank2r.bmp	492	1	YDDY	492	1	blank2r.bmp	572	2	schön	866	1	!	1239	1	!	1266	0	0	0	0	0	0	0	0	0	0	0	0	0	0	0	0	0	0	0	0	0	0	0	0	0	0	0	0	0	0
072419	10:08:30	10:19:14	643509	5.0.10.0	5_exp_RW	81	Rpleas_acq	CS_B	VKKV	YDDY	GWWG	MQQM	JXXJ	BZZB	retten	treu	ehrlich	spielen	schön	fair	rächen	tot	eitel	strafen	schlecht	faul	1	acq_USunple_CSunple1_RW	acq4567_RW	5	44	400	1	300	300	346	46	0	1	1	blank2r.bmp	0	1	+	0	1	blank2r.bmp	492	1	GWWG	492	1	blank2r.bmp	572	2	tot	866	1	!	1239	1	!	1252	0	0	0	0	0	0	0	0	0	0	0	0	0	0	0	0	0	0	0	0	0	0	0	0	0	0	0	0	0	0
072419	10:08:30	10:19:17	645762	5.0.10.0	5_exp_RW	81	Rpleas_acq	CS_B	VKKV	YDDY	GWWG	MQQM	JXXJ	BZZB	retten	treu	ehrlich	spielen	schön	fair	rächen	tot	eitel	strafen	schlecht	faul	1	acq_USpleas_CSpleas1_RW	acq4567_RW	5	45	400	0	300	300	479	50	0	1	1	blank2r.bmp	0	1	+	0	1	blank2r.bmp	492	1	VKKV	492	1	blank2r.bmp	572	3	ehrlich	866	1	!	1239	1	!	-1	0	0	0	0	0	0	0	0	0	0	0	0	0	0	0	0	0	0	0	0	0	0	0	0	0	0	0	0	0	0
072419	10:08:30	10:19:19	648001	5.0.10.0	5_exp_RW	81	Rpleas_acq	CS_B	VKKV	YDDY	GWWG	MQQM	JXXJ	BZZB	retten	treu	ehrlich	spielen	schön	fair	rächen	tot	eitel	strafen	schlecht	faul	1	acq_USunple_CSunple1_RW	acq4567_RW	5	46	400	1	300	300	431	46	0	1	1	blank2r.bmp	0	1	+	0	1	blank2r.bmp	492	1	GWWG	492	1	blank2r.bmp	572	2	tot	866	1	!	1239	1	!	1332	0	0	0	0	0	0	0	0	0	0	0	0	0	0	0	0	0	0	0	0	0	0	0	0	0	0	0	0	0	0
072419	10:08:30	10:19:21	650280	5.0.10.0	5_exp_RW	81	Rpleas_acq	CS_B	VKKV	YDDY	GWWG	MQQM	JXXJ	BZZB	retten	treu	ehrlich	spielen	schön	fair	rächen	tot	eitel	strafen	schlecht	faul	1	acq_USpleas_CSpleas2_RW	acq4567_RW	5	47	400	0	300	300	518	50	0	1	1	blank2r.bmp	0	1	+	0	1	blank2r.bmp	492	1	YDDY	492	1	blank2r.bmp	572	1	spielen	866	1	!	1239	1	!	-1	0	0	0	0	0	0	0	0	0	0	0	0	0	0	0	0	0	0	0	0	0	0	0	0	0	0	0	0	0	0
072419	10:08:30	10:19:23	652559	5.0.10.0	5_exp_RW	81	Rpleas_acq	CS_B	VKKV	YDDY	GWWG	MQQM	JXXJ	BZZB	retten	treu	ehrlich	spielen	schön	fair	rächen	tot	eitel	strafen	schlecht	faul	1	acq_USpleas_CSpleas2_RW	acq4567_RW	5	48	400	0	300	300	494	50	0	1	1	blank2r.bmp	0	1	+	0	1	blank2r.bmp	492	1	YDDY	492	1	blank2r.bmp	572	1	spielen	866	1	!	1239	1	!	-1	0	0	0	0	0	0	0	0	0	0	0	0	0	0	0	0	0	0	0	0	0	0	0	0	0	0	0	0	0	0
072419	10:08:30	10:19:26	654825	5.0.10.0	5_exp_RW	81	Rpleas_acq	CS_B	VKKV	YDDY	GWWG	MQQM	JXXJ	BZZB	retten	treu	ehrlich	spielen	schön	fair	rächen	tot	eitel	strafen	schlecht	faul	1	acq_USpleas_CSpleas1_RW	acq4567_RW	5	49	400	1	300	300	454	46	0	0	1	blank2r.bmp	0	1	+	0	1	blank2r.bmp	492	1	VKKV	492	1	blank2r.bmp	572	1	retten	866	1	!	1239	1	!	1359	0	0	0	0	0	0	0	0	0	0	0	0	0	0	0	0	0	0	0	0	0	0	0	0	0	0	0	0	0	0
072419	10:08:30	10:19:28	657064	5.0.10.0	5_exp_RW	81	Rpleas_acq	CS_B	VKKV	YDDY	GWWG	MQQM	JXXJ	BZZB	retten	treu	ehrlich	spielen	schön	fair	rächen	tot	eitel	strafen	schlecht	faul	1	acq_USunple_CSunple2_RW	acq4567_RW	5	50	400	1	300	300	449	46	0	1	1	blank2r.bmp	0	1	+	0	1	blank2r.bmp	492	1	MQQM	492	1	blank2r.bmp	572	2	schlecht	866	1	!	1239	1	!	1346	0	0	0	0	0	0	0	0	0	0	0	0	0	0	0	0	0	0	0	0	0	0	0	0	0	0	0	0	0	0
072419	10:08:30	10:19:30	659356	5.0.10.0	5_exp_RW	81	Rpleas_acq	CS_B	VKKV	YDDY	GWWG	MQQM	JXXJ	BZZB	retten	treu	ehrlich	spielen	schön	fair	rächen	tot	eitel	strafen	schlecht	faul	1	acq_USunple_CSunple1_RW	acq4567_RW	5	51	400	0	300	300	524	46	0	1	1	blank2r.bmp	0	1	+	0	1	blank2r.bmp	492	1	GWWG	492	1	blank2r.bmp	572	3	eitel	866	1	!	1239	1	!	-1	0	0	0	0	0	0	0	0	0	0	0	0	0	0	0	0	0	0	0	0	0	0	0	0	0	0	0	0	0	0
072419	10:08:30	10:19:32	661609	5.0.10.0	5_exp_RW	81	Rpleas_acq	CS_B	VKKV	YDDY	GWWG	MQQM	JXXJ	BZZB	retten	treu	ehrlich	spielen	schön	fair	rächen	tot	eitel	strafen	schlecht	faul	1	acq_USpleas_CSpleas1_RW	acq4567_RW	5	52	400	1	300	300	428	50	0	1	1	blank2r.bmp	0	1	+	0	1	blank2r.bmp	492	1	VKKV	492	1	blank2r.bmp	572	3	ehrlich	866	1	!	1239	1	!	1332	0	0	0	0	0	0	0	0	0	0	0	0	0	0	0	0	0	0	0	0	0	0	0	0	0	0	0	0	0	0
072419	10:08:30	10:19:35	663954	5.0.10.0	5_exp_RW	81	Rpleas_acq	CS_B	VKKV	YDDY	GWWG	MQQM	JXXJ	BZZB	retten	treu	ehrlich	spielen	schön	fair	rächen	tot	eitel	strafen	schlecht	faul	1	acq_USunple_CSunple2_RW	acq4567_RW	5	53	400	0	300	300	574	46	0	1	1	blank2r.bmp	0	1	+	0	1	blank2r.bmp	492	1	MQQM	492	1	blank2r.bmp	572	2	schlecht	866	1	!	1239	1	!	-1	0	0	0	0	0	0	0	0	0	0	0	0	0	0	0	0	0	0	0	0	0	0	0	0	0	0	0	0	0	0
072419	10:08:30	10:19:37	666060	5.0.10.0	5_exp_RW	81	Rpleas_acq	CS_B	VKKV	YDDY	GWWG	MQQM	JXXJ	BZZB	retten	treu	ehrlich	spielen	schön	fair	rächen	tot	eitel	strafen	schlecht	faul	1	acq_USpleas_CSpleas1_RW	acq4567_RW	5	54	400	0	300	300	321	50	0	1	1	blank2r.bmp	0	1	+	0	1	blank2r.bmp	492	1	VKKV	492	1	blank2r.bmp	572	2	treu	866	1	!	-1	1	!	-1	0	0	0	0	0	0	0	0	0	0	0	0	0	0	0	0	0	0	0	0	0	0	0	0	0	0	0	0	0	0
072419	10:08:30	10:19:39	668219	5.0.10.0	5_exp_RW	81	Rpleas_acq	CS_B	VKKV	YDDY	GWWG	MQQM	JXXJ	BZZB	retten	treu	ehrlich	spielen	schön	fair	rächen	tot	eitel	strafen	schlecht	faul	1	acq_USunple_CSunple2_RW	acq4567_RW	5	55	400	1	300	300	357	46	0	1	1	blank2r.bmp	0	1	+	0	1	blank2r.bmp	492	1	MQQM	492	1	blank2r.bmp	572	1	strafen	866	1	!	1239	1	!	1252	0	0	0	0	0	0	0	0	0	0	0	0	0	0	0	0	0	0	0	0	0	0	0	0	0	0	0	0	0	0
072419	10:08:30	10:19:41	670445	5.0.10.0	5_exp_RW	81	Rpleas_acq	CS_B	VKKV	YDDY	GWWG	MQQM	JXXJ	BZZB	retten	treu	ehrlich	spielen	schön	fair	rächen	tot	eitel	strafen	schlecht	faul	1	acq_USunple_CSunple1_RW	acq4567_RW	5	56	400	1	300	300	437	46	0	1	1	blank2r.bmp	0	1	+	0	1	blank2r.bmp	492	1	GWWG	492	1	blank2r.bmp	572	1	rächen	866	1	!	1239	1	!	1332	0	0	0	0	0	0	0	0	0	0	0	0	0	0	0	0	0	0	0	0	0	0	0	0	0	0	0	0	0	0
072419	10:08:30	10:19:44	672711	5.0.10.0	5_exp_RW	81	Rpleas_acq	CS_B	VKKV	YDDY	GWWG	MQQM	JXXJ	BZZB	retten	treu	ehrlich	spielen	schön	fair	rächen	tot	eitel	strafen	schlecht	faul	1	acq_USpleas_CSpleas1_RW	acq4567_RW	5	57	400	0	300	300	479	50	0	1	1	blank2r.bmp	0	1	+	0	1	blank2r.bmp	492	1	VKKV	492	1	blank2r.bmp	572	1	retten	866	1	!	1239	1	!	-1	0	0	0	0	0	0	0	0	0	0	0	0	0	0	0	0	0	0	0	0	0	0	0	0	0	0	0	0	0	0
072419	10:08:30	10:19:46	675070	5.0.10.0	5_exp_RW	81	Rpleas_acq	CS_B	VKKV	YDDY	GWWG	MQQM	JXXJ	BZZB	retten	treu	ehrlich	spielen	schön	fair	rächen	tot	eitel	strafen	schlecht	faul	1	acq_USpleas_CSpleas2_RW	acq4567_RW	5	58	400	0	300	300	560	50	0	1	1	blank2r.bmp	0	1	+	0	1	blank2r.bmp	492	1	YDDY	492	1	blank2r.bmp	572	3	fair	866	1	!	1239	1	!	-1	0	0	0	0	0	0	0	0	0	0	0	0	0	0	0	0	0	0	0	0	0	0	0	0	0	0	0	0	0	0
072419	10:08:30	10:19:48	677389	5.0.10.0	5_exp_RW	81	Rpleas_acq	CS_B	VKKV	YDDY	GWWG	MQQM	JXXJ	BZZB	retten	treu	ehrlich	spielen	schön	fair	rächen	tot	eitel	strafen	schlecht	faul	1	acq_USpleas_CSpleas2_RW	acq4567_RW	5	59	400	0	300	300	536	50	0	1	1	blank2r.bmp	0	1	+	0	1	blank2r.bmp	492	1	YDDY	492	1	blank2r.bmp	572	2	schön	866	1	!	1239	1	!	-1	0	0	0	0	0	0	0	0	0	0	0	0	0	0	0	0	0	0	0	0	0	0	0	0	0	0	0	0	0	0
072419	10:08:30	10:19:50	679428	5.0.10.0	5_exp_RW	81	Rpleas_acq	CS_B	VKKV	YDDY	GWWG	MQQM	JXXJ	BZZB	retten	treu	ehrlich	spielen	schön	fair	rächen	tot	eitel	strafen	schlecht	faul	1	acq_USunple_CSunple2_RW	acq4567_RW	5	60	400	0	300	300	252	50	0	0	1	blank2r.bmp	0	1	+	0	1	blank2r.bmp	492	1	MQQM	492	1	blank2r.bmp	572	3	faul	866	1	!	-1	1	!	-1	0	0	0	0	0	0	0	0	0	0	0	0	0	0	0	0	0	0	0	0	0	0	0	0	0	0	0	0	0	0
072419	10:08:30	10:19:52	681587	5.0.10.0	5_exp_RW	81	Rpleas_acq	CS_B	VKKV	YDDY	GWWG	MQQM	JXXJ	BZZB	retten	treu	ehrlich	spielen	schön	fair	rächen	tot	eitel	strafen	schlecht	faul	1	acq_USunple_CSunple1_RW	acq4567_RW	5	61	400	1	300	300	353	46	0	1	1	blank2r.bmp	0	1	+	0	1	blank2r.bmp	492	1	GWWG	492	1	blank2r.bmp	572	1	rächen	866	1	!	1239	1	!	1252	0	0	0	0	0	0	0	0	0	0	0	0	0	0	0	0	0	0	0	0	0	0	0	0	0	0	0	0	0	0
072419	10:08:30	10:19:55	683826	5.0.10.0	5_exp_RW	81	Rpleas_acq	CS_B	VKKV	YDDY	GWWG	MQQM	JXXJ	BZZB	retten	treu	ehrlich	spielen	schön	fair	rächen	tot	eitel	strafen	schlecht	faul	1	acq_USpleas_CSpleas1_RW	acq4567_RW	5	62	400	1	300	300	449	50	0	1	1	blank2r.bmp	0	1	+	0	1	blank2r.bmp	492	1	VKKV	492	1	blank2r.bmp	572	2	treu	866	1	!	1239	1	!	1346	0	0	0	0	0	0	0	0	0	0	0	0	0	0	0	0	0	0	0	0	0	0	0	0	0	0	0	0	0	0
072419	10:08:30	10:19:57	686065	5.0.10.0	5_exp_RW	81	Rpleas_acq	CS_B	VKKV	YDDY	GWWG	MQQM	JXXJ	BZZB	retten	treu	ehrlich	spielen	schön	fair	rächen	tot	eitel	strafen	schlecht	faul	1	acq_USpleas_CSpleas1_RW	acq4567_RW	5	63	400	1	300	300	441	46	0	0	1	blank2r.bmp	0	1	+	0	1	blank2r.bmp	492	1	VKKV	492	1	blank2r.bmp	572	3	ehrlich	866	1	!	1239	1	!	1346	0	0	0	0	0	0	0	0	0	0	0	0	0	0	0	0	0	0	0	0	0	0	0	0	0	0	0	0	0	0
072419	10:08:30	10:19:59	688304	5.0.10.0	5_exp_RW	81	Rpleas_acq	CS_B	VKKV	YDDY	GWWG	MQQM	JXXJ	BZZB	retten	treu	ehrlich	spielen	schön	fair	rächen	tot	eitel	strafen	schlecht	faul	1	acq_USunple_CSunple2_RW	acq4567_RW	5	64	400	1	300	300	445	46	0	1	1	blank2r.bmp	0	1	+	0	1	blank2r.bmp	492	1	MQQM	492	1	blank2r.bmp	572	3	faul	866	1	!	1239	1	!	1346	0	0	0	0	0	0	0	0	0	0	0	0	0	0	0	0	0	0	0	0	0	0	0	0	0	0	0	0	0	0
072419	10:08:30	10:20:01	690583	5.0.10.0	5_exp_RW	81	Rpleas_acq	CS_B	VKKV	YDDY	GWWG	MQQM	JXXJ	BZZB	retten	treu	ehrlich	spielen	schön	fair	rächen	tot	eitel	strafen	schlecht	faul	1	acq_USpleas_CSpleas1_RW	acq4567_RW	5	65	400	0	300	300	517	50	0	1	1	blank2r.bmp	0	1	+	0	1	blank2r.bmp	492	1	VKKV	492	1	blank2r.bmp	572	1	retten	866	1	!	1239	1	!	-1	0	0	0	0	0	0	0	0	0	0	0	0	0	0	0	0	0	0	0	0	0	0	0	0	0	0	0	0	0	0
072419	10:08:30	10:20:04	692782	5.0.10.0	5_exp_RW	81	Rpleas_acq	CS_B	VKKV	YDDY	GWWG	MQQM	JXXJ	BZZB	retten	treu	ehrlich	spielen	schön	fair	rächen	tot	eitel	strafen	schlecht	faul	1	acq_USpleas_CSpleas1_RW	acq4567_RW	5	66	400	1	300	300	393	50	0	1	1	blank2r.bmp	0	1	+	0	1	blank2r.bmp	492	1	VKKV	492	1	blank2r.bmp	572	3	ehrlich	866	1	!	1239	1	!	1292	0	0	0	0	0	0	0	0	0	0	0	0	0	0	0	0	0	0	0	0	0	0	0	0	0	0	0	0	0	0
072419	10:08:30	10:20:06	695022	5.0.10.0	5_exp_RW	81	Rpleas_acq	CS_B	VKKV	YDDY	GWWG	MQQM	JXXJ	BZZB	retten	treu	ehrlich	spielen	schön	fair	rächen	tot	eitel	strafen	schlecht	faul	1	acq_USpleas_CSpleas2_RW	acq4567_RW	5	67	400	1	300	300	445	50	0	1	1	blank2r.bmp	0	1	+	0	1	blank2r.bmp	492	1	YDDY	492	1	blank2r.bmp	572	3	fair	866	1	!	1239	1	!	1346	0	0	0	0	0	0	0	0	0	0	0	0	0	0	0	0	0	0	0	0	0	0	0	0	0	0	0	0	0	0
072419	10:08:30	10:20:08	697234	5.0.10.0	5_exp_RW	81	Rpleas_acq	CS_B	VKKV	YDDY	GWWG	MQQM	JXXJ	BZZB	retten	treu	ehrlich	spielen	schön	fair	rächen	tot	eitel	strafen	schlecht	faul	1	acq_USunple_CSunple1_RW	acq4567_RW	5	68	400	1	300	300	417	46	0	1	1	blank2r.bmp	0	1	+	0	1	blank2r.bmp	492	1	GWWG	492	1	blank2r.bmp	572	3	eitel	866	1	!	1239	1	!	1319	0	0	0	0	0	0	0	0	0	0	0	0	0	0	0	0	0	0	0	0	0	0	0	0	0	0	0	0	0	0
072419	10:08:30	10:20:10	699486	5.0.10.0	5_exp_RW	81	Rpleas_acq	CS_B	VKKV	YDDY	GWWG	MQQM	JXXJ	BZZB	retten	treu	ehrlich	spielen	schön	fair	rächen	tot	eitel	strafen	schlecht	faul	1	acq_USunple_CSunple2_RW	acq4567_RW	5	69	400	0	300	300	485	46	0	1	1	blank2r.bmp	0	1	+	0	1	blank2r.bmp	492	1	MQQM	492	1	blank2r.bmp	572	1	strafen	866	1	!	1239	1	!	-1	0	0	0	0	0	0	0	0	0	0	0	0	0	0	0	0	0	0	0	0	0	0	0	0	0	0	0	0	0	0
072419	10:08:30	10:20:13	701739	5.0.10.0	5_exp_RW	81	Rpleas_acq	CS_B	VKKV	YDDY	GWWG	MQQM	JXXJ	BZZB	retten	treu	ehrlich	spielen	schön	fair	rächen	tot	eitel	strafen	schlecht	faul	1	acq_USunple_CSunple1_RW	acq4567_RW	5	70	400	1	300	300	443	46	0	1	1	blank2r.bmp	0	1	+	0	1	blank2r.bmp	492	1	GWWG	492	1	blank2r.bmp	572	2	tot	866	1	!	1239	1	!	1346	0	0	0	0	0	0	0	0	0	0	0	0	0	0	0	0	0	0	0	0	0	0	0	0	0	0	0	0	0	0
072419	10:08:30	10:20:15	703898	5.0.10.0	5_exp_RW	81	Rpleas_acq	CS_B	VKKV	YDDY	GWWG	MQQM	JXXJ	BZZB	retten	treu	ehrlich	spielen	schön	fair	rächen	tot	eitel	strafen	schlecht	faul	1	acq_USpleas_CSpleas2_RW	acq4567_RW	5	71	400	1	300	300	358	50	0	1	1	blank2r.bmp	0	1	+	0	1	blank2r.bmp	492	1	YDDY	492	1	blank2r.bmp	572	2	schön	866	1	!	1239	1	!	1252	0	0	0	0	0	0	0	0	0	0	0	0	0	0	0	0	0	0	0	0	0	0	0	0	0	0	0	0	0	0
072419	10:08:30	10:20:17	706150	5.0.10.0	5_exp_RW	81	Rpleas_acq	CS_B	VKKV	YDDY	GWWG	MQQM	JXXJ	BZZB	retten	treu	ehrlich	spielen	schön	fair	rächen	tot	eitel	strafen	schlecht	faul	1	acq_USpleas_CSpleas2_RW	acq4567_RW	5	72	400	0	300	300	479	50	0	1	1	blank2r.bmp	0	1	+	0	1	blank2r.bmp	492	1	YDDY	492	1	blank2r.bmp	572	1	spielen	866	1	!	1239	1	!	-1	0	0	0	0	0	0	0	0	0	0	0	0	0	0	0	0	0	0	0	0	0	0	0	0	0	0	0	0	0	0
072419	10:08:30	10:20:19	708336	5.0.10.0	5_exp_RW	81	Rpleas_acq	CS_B	VKKV	YDDY	GWWG	MQQM	JXXJ	BZZB	retten	treu	ehrlich	spielen	schön	fair	rächen	tot	eitel	strafen	schlecht	faul	1	acq_USpleas_CSpleas2_RW	acq4567_RW	5	73	400	1	300	300	380	50	0	1	1	blank2r.bmp	0	1	+	0	1	blank2r.bmp	492	1	YDDY	492	1	blank2r.bmp	572	1	spielen	866	1	!	1239	1	!	1279	0	0	0	0	0	0	0	0	0	0	0	0	0	0	0	0	0	0	0	0	0	0	0	0	0	0	0	0	0	0
072419	10:08:30	10:20:21	710429	5.0.10.0	5_exp_RW	81	Rpleas_acq	CS_B	VKKV	YDDY	GWWG	MQQM	JXXJ	BZZB	retten	treu	ehrlich	spielen	schön	fair	rächen	tot	eitel	strafen	schlecht	faul	1	acq_USunple_CSunple2_RW	acq4567_RW	5	74	400	0	300	300	321	46	0	1	1	blank2r.bmp	0	1	+	0	1	blank2r.bmp	492	1	MQQM	492	1	blank2r.bmp	572	2	schlecht	866	1	!	-1	1	!	-1	0	0	0	0	0	0	0	0	0	0	0	0	0	0	0	0	0	0	0	0	0	0	0	0	0	0	0	0	0	0
072419	10:08:30	10:20:24	712641	5.0.10.0	5_exp_RW	81	Rpleas_acq	CS_B	VKKV	YDDY	GWWG	MQQM	JXXJ	BZZB	retten	treu	ehrlich	spielen	schön	fair	rächen	tot	eitel	strafen	schlecht	faul	1	acq_USunple_CSunple2_RW	acq4567_RW	5	75	400	1	300	300	399	46	0	1	1	blank2r.bmp	0	1	+	0	1	blank2r.bmp	492	1	MQQM	492	1	blank2r.bmp	572	2	schlecht	866	1	!	1239	1	!	1306	0	0	0	0	0	0	0	0	0	0	0	0	0	0	0	0	0	0	0	0	0	0	0	0	0	0	0	0	0	0
072419	10:08:30	10:20:26	714894	5.0.10.0	5_exp_RW	81	Rpleas_acq	CS_B	VKKV	YDDY	GWWG	MQQM	JXXJ	BZZB	retten	treu	ehrlich	spielen	schön	fair	rächen	tot	eitel	strafen	schlecht	faul	1	acq_USunple_CSunple2_RW	acq4567_RW	5	76	400	0	300	300	479	50	0	0	1	blank2r.bmp	0	1	+	0	1	blank2r.bmp	492	1	MQQM	492	1	blank2r.bmp	572	3	faul	866	1	!	1239	1	!	-1	0	0	0	0	0	0	0	0	0	0	0	0	0	0	0	0	0	0	0	0	0	0	0	0	0	0	0	0	0	0
072419	10:08:30	10:20:28	717173	5.0.10.0	5_exp_RW	81	Rpleas_acq	CS_B	VKKV	YDDY	GWWG	MQQM	JXXJ	BZZB	retten	treu	ehrlich	spielen	schön	fair	rächen	tot	eitel	strafen	schlecht	faul	1	acq_USpleas_CSpleas1_RW	acq4567_RW	5	77	400	0	300	300	479	50	0	1	1	blank2r.bmp	0	1	+	0	1	blank2r.bmp	492	1	VKKV	492	1	blank2r.bmp	572	2	treu	866	1	!	1239	1	!	-1	0	0	0	0	0	0	0	0	0	0	0	0	0	0	0	0	0	0	0	0	0	0	0	0	0	0	0	0	0	0
072419	10:08:30	10:20:30	719505	5.0.10.0	5_exp_RW	81	Rpleas_acq	CS_B	VKKV	YDDY	GWWG	MQQM	JXXJ	BZZB	retten	treu	ehrlich	spielen	schön	fair	rächen	tot	eitel	strafen	schlecht	faul	1	acq_USpleas_CSpleas2_RW	acq4567_RW	5	78	400	0	300	300	550	50	0	1	1	blank2r.bmp	0	1	+	0	1	blank2r.bmp	492	1	YDDY	492	1	blank2r.bmp	572	2	schön	866	1	!	1239	1	!	-1	0	0	0	0	0	0	0	0	0	0	0	0	0	0	0	0	0	0	0	0	0	0	0	0	0	0	0	0	0	0
072419	10:08:30	10:20:33	721691	5.0.10.0	5_exp_RW	81	Rpleas_acq	CS_B	VKKV	YDDY	GWWG	MQQM	JXXJ	BZZB	retten	treu	ehrlich	spielen	schön	fair	rächen	tot	eitel	strafen	schlecht	faul	1	acq_USunple_CSunple1_RW	acq4567_RW	5	79	400	1	300	300	375	46	0	1	1	blank2r.bmp	0	1	+	0	1	blank2r.bmp	492	1	GWWG	492	1	blank2r.bmp	572	1	rächen	866	1	!	1239	1	!	1279	0	0	0	0	0	0	0	0	0	0	0	0	0	0	0	0	0	0	0	0	0	0	0	0	0	0	0	0	0	0
072419	10:08:30	10:20:35	723903	5.0.10.0	5_exp_RW	81	Rpleas_acq	CS_B	VKKV	YDDY	GWWG	MQQM	JXXJ	BZZB	retten	treu	ehrlich	spielen	schön	fair	rächen	tot	eitel	strafen	schlecht	faul	1	acq_USunple_CSunple1_RW	acq4567_RW	5	80	400	1	300	300	411	46	0	1	1	blank2r.bmp	0	1	+	0	1	blank2r.bmp	492	1	GWWG	492	1	blank2r.bmp	572	3	eitel	866	1	!	1239	1	!	1306	0	0	0	0	0	0	0	0	0	0	0	0	0	0	0	0	0	0	0	0	0	0	0	0	0	0	0	0	0	0
072419	10:08:30	10:20:46	735365	5.0.10.0	5_exp_RW	81	Rpleas_acq	CS_B	VKKV	YDDY	GWWG	MQQM	JXXJ	BZZB	retten	treu	ehrlich	spielen	schön	fair	rächen	tot	eitel	strafen	schlecht	faul	1	acq_USunple_CSunple2_RW	acq4567_RW	6	1	400	1	300	300	395	46	0	1	1	blank2r.bmp	0	1	+	0	1	blank2r.bmp	492	1	MQQM	492	1	blank2r.bmp	572	1	strafen	866	1	!	1239	1	!	1292	0	0	0	0	0	0	0	0	0	0	0	0	0	0	0	0	0	0	0	0	0	0	0	0	0	0	0	0	0	0
072419	10:08:30	10:20:49	737618	5.0.10.0	5_exp_RW	81	Rpleas_acq	CS_B	VKKV	YDDY	GWWG	MQQM	JXXJ	BZZB	retten	treu	ehrlich	spielen	schön	fair	rächen	tot	eitel	strafen	schlecht	faul	1	acq_USunple_CSunple1_RW	acq4567_RW	6	2	400	1	300	300	454	46	0	1	1	blank2r.bmp	0	1	+	0	1	blank2r.bmp	492	1	GWWG	492	1	blank2r.bmp	572	2	tot	866	1	!	1239	1	!	1359	0	0	0	0	0	0	0	0	0	0	0	0	0	0	0	0	0	0	0	0	0	0	0	0	0	0	0	0	0	0
072419	10:08:30	10:20:51	739790	5.0.10.0	5_exp_RW	81	Rpleas_acq	CS_B	VKKV	YDDY	GWWG	MQQM	JXXJ	BZZB	retten	treu	ehrlich	spielen	schön	fair	rächen	tot	eitel	strafen	schlecht	faul	1	acq_USunple_CSunple2_RW	acq4567_RW	6	3	400	1	300	300	376	46	0	1	1	blank2r.bmp	0	1	+	0	1	blank2r.bmp	492	1	MQQM	492	1	blank2r.bmp	572	3	faul	866	1	!	1239	1	!	1279	0	0	0	0	0	0	0	0	0	0	0	0	0	0	0	0	0	0	0	0	0	0	0	0	0	0	0	0	0	0
072419	10:08:30	10:20:53	742016	5.0.10.0	5_exp_RW	81	Rpleas_acq	CS_B	VKKV	YDDY	GWWG	MQQM	JXXJ	BZZB	retten	treu	ehrlich	spielen	schön	fair	rächen	tot	eitel	strafen	schlecht	faul	1	acq_USpleas_CSpleas1_RW	acq4567_RW	6	4	400	1	300	300	426	46	0	0	1	blank2r.bmp	0	1	+	0	1	blank2r.bmp	492	1	VKKV	492	1	blank2r.bmp	572	1	retten	866	1	!	1239	1	!	1332	0	0	0	0	0	0	0	0	0	0	0	0	0	0	0	0	0	0	0	0	0	0	0	0	0	0	0	0	0	0
072419	10:08:30	10:20:55	744228	5.0.10.0	5_exp_RW	81	Rpleas_acq	CS_B	VKKV	YDDY	GWWG	MQQM	JXXJ	BZZB	retten	treu	ehrlich	spielen	schön	fair	rächen	tot	eitel	strafen	schlecht	faul	1	acq_USpleas_CSpleas1_RW	acq4567_RW	6	5	400	1	300	300	424	50	0	1	1	blank2r.bmp	0	1	+	0	1	blank2r.bmp	492	1	VKKV	492	1	blank2r.bmp	572	1	retten	866	1	!	1239	1	!	1319	0	0	0	0	0	0	0	0	0	0	0	0	0	0	0	0	0	0	0	0	0	0	0	0	0	0	0	0	0	0
072419	10:08:30	10:20:57	746401	5.0.10.0	5_exp_RW	81	Rpleas_acq	CS_B	VKKV	YDDY	GWWG	MQQM	JXXJ	BZZB	retten	treu	ehrlich	spielen	schön	fair	rächen	tot	eitel	strafen	schlecht	faul	1	acq_USpleas_CSpleas2_RW	acq4567_RW	6	6	400	1	300	300	372	50	0	1	1	blank2r.bmp	0	1	+	0	1	blank2r.bmp	492	1	YDDY	492	1	blank2r.bmp	572	3	fair	866	1	!	1239	1	!	1279	0	0	0	0	0	0	0	0	0	0	0	0	0	0	0	0	0	0	0	0	0	0	0	0	0	0	0	0	0	0
072419	10:08:30	10:20:59	748480	5.0.10.0	5_exp_RW	81	Rpleas_acq	CS_B	VKKV	YDDY	GWWG	MQQM	JXXJ	BZZB	retten	treu	ehrlich	spielen	schön	fair	rächen	tot	eitel	strafen	schlecht	faul	1	acq_USunple_CSunple2_RW	acq4567_RW	6	7	400	0	300	300	306	46	0	1	1	blank2r.bmp	0	1	+	0	1	blank2r.bmp	492	1	MQQM	492	1	blank2r.bmp	572	2	schlecht	866	1	!	-1	1	!	-1	0	0	0	0	0	0	0	0	0	0	0	0	0	0	0	0	0	0	0	0	0	0	0	0	0	0	0	0	0	0
072419	10:08:30	10:21:02	750812	5.0.10.0	5_exp_RW	81	Rpleas_acq	CS_B	VKKV	YDDY	GWWG	MQQM	JXXJ	BZZB	retten	treu	ehrlich	spielen	schön	fair	rächen	tot	eitel	strafen	schlecht	faul	1	acq_USunple_CSunple1_RW	acq4567_RW	6	8	400	0	300	300	525	46	0	1	1	blank2r.bmp	0	1	+	0	1	blank2r.bmp	492	1	GWWG	492	1	blank2r.bmp	572	3	eitel	866	1	!	1239	1	!	-1	0	0	0	0	0	0	0	0	0	0	0	0	0	0	0	0	0	0	0	0	0	0	0	0	0	0	0	0	0	0
072419	10:08:30	10:21:04	753091	5.0.10.0	5_exp_RW	81	Rpleas_acq	CS_B	VKKV	YDDY	GWWG	MQQM	JXXJ	BZZB	retten	treu	ehrlich	spielen	schön	fair	rächen	tot	eitel	strafen	schlecht	faul	1	acq_USunple_CSunple1_RW	acq4567_RW	6	9	400	0	300	300	517	46	0	1	1	blank2r.bmp	0	1	+	0	1	blank2r.bmp	492	1	GWWG	492	1	blank2r.bmp	572	1	rächen	866	1	!	1239	1	!	-1	0	0	0	0	0	0	0	0	0	0	0	0	0	0	0	0	0	0	0	0	0	0	0	0	0	0	0	0	0	0
072419	10:08:30	10:21:06	755250	5.0.10.0	5_exp_RW	81	Rpleas_acq	CS_B	VKKV	YDDY	GWWG	MQQM	JXXJ	BZZB	retten	treu	ehrlich	spielen	schön	fair	rächen	tot	eitel	strafen	schlecht	faul	1	acq_USpleas_CSpleas1_RW	acq4567_RW	6	10	400	1	300	300	346	50	0	1	1	blank2r.bmp	0	1	+	0	1	blank2r.bmp	492	1	VKKV	492	1	blank2r.bmp	572	2	treu	866	1	!	1239	1	!	1252	0	0	0	0	0	0	0	0	0	0	0	0	0	0	0	0	0	0	0	0	0	0	0	0	0	0	0	0	0	0
072419	10:08:30	10:21:08	757423	5.0.10.0	5_exp_RW	81	Rpleas_acq	CS_B	VKKV	YDDY	GWWG	MQQM	JXXJ	BZZB	retten	treu	ehrlich	spielen	schön	fair	rächen	tot	eitel	strafen	schlecht	faul	1	acq_USunple_CSunple2_RW	acq4567_RW	6	11	400	1	300	300	382	46	0	1	1	blank2r.bmp	0	1	+	0	1	blank2r.bmp	492	1	MQQM	492	1	blank2r.bmp	572	1	strafen	866	1	!	1239	1	!	1279	0	0	0	0	0	0	0	0	0	0	0	0	0	0	0	0	0	0	0	0	0	0	0	0	0	0	0	0	0	0
072419	10:08:30	10:21:10	759569	5.0.10.0	5_exp_RW	81	Rpleas_acq	CS_B	VKKV	YDDY	GWWG	MQQM	JXXJ	BZZB	retten	treu	ehrlich	spielen	schön	fair	rächen	tot	eitel	strafen	schlecht	faul	1	acq_USpleas_CSpleas2_RW	acq4567_RW	6	12	400	1	300	300	346	50	0	1	1	blank2r.bmp	0	1	+	0	1	blank2r.bmp	492	1	YDDY	492	1	blank2r.bmp	572	3	fair	866	1	!	1239	1	!	1252	0	0	0	0	0	0	0	0	0	0	0	0	0	0	0	0	0	0	0	0	0	0	0	0	0	0	0	0	0	0
072419	10:08:30	10:21:13	761754	5.0.10.0	5_exp_RW	81	Rpleas_acq	CS_B	VKKV	YDDY	GWWG	MQQM	JXXJ	BZZB	retten	treu	ehrlich	spielen	schön	fair	rächen	tot	eitel	strafen	schlecht	faul	1	acq_USpleas_CSpleas1_RW	acq4567_RW	6	13	400	1	300	300	373	50	0	1	1	blank2r.bmp	0	1	+	0	1	blank2r.bmp	492	1	VKKV	492	1	blank2r.bmp	572	3	ehrlich	866	1	!	1239	1	!	1279	0	0	0	0	0	0	0	0	0	0	0	0	0	0	0	0	0	0	0	0	0	0	0	0	0	0	0	0	0	0
072419	10:08:30	10:21:15	764020	5.0.10.0	5_exp_RW	81	Rpleas_acq	CS_B	VKKV	YDDY	GWWG	MQQM	JXXJ	BZZB	retten	treu	ehrlich	spielen	schön	fair	rächen	tot	eitel	strafen	schlecht	faul	1	acq_USpleas_CSpleas2_RW	acq4567_RW	6	14	400	0	300	300	505	50	0	1	1	blank2r.bmp	0	1	+	0	1	blank2r.bmp	492	1	YDDY	492	1	blank2r.bmp	572	2	schön	866	1	!	1239	1	!	-1	0	0	0	0	0	0	0	0	0	0	0	0	0	0	0	0	0	0	0	0	0	0	0	0	0	0	0	0	0	0
072419	10:08:30	10:21:17	766259	5.0.10.0	5_exp_RW	81	Rpleas_acq	CS_B	VKKV	YDDY	GWWG	MQQM	JXXJ	BZZB	retten	treu	ehrlich	spielen	schön	fair	rächen	tot	eitel	strafen	schlecht	faul	1	acq_USpleas_CSpleas2_RW	acq4567_RW	6	15	400	1	300	300	438	50	0	1	1	blank2r.bmp	0	1	+	0	1	blank2r.bmp	492	1	YDDY	492	1	blank2r.bmp	572	1	spielen	866	1	!	1239	1	!	1332	0	0	0	0	0	0	0	0	0	0	0	0	0	0	0	0	0	0	0	0	0	0	0	0	0	0	0	0	0	0
072419	10:08:30	10:21:19	768525	5.0.10.0	5_exp_RW	81	Rpleas_acq	CS_B	VKKV	YDDY	GWWG	MQQM	JXXJ	BZZB	retten	treu	ehrlich	spielen	schön	fair	rächen	tot	eitel	strafen	schlecht	faul	1	acq_USunple_CSunple1_RW	acq4567_RW	6	16	400	0	300	300	479	46	0	1	1	blank2r.bmp	0	1	+	0	1	blank2r.bmp	492	1	GWWG	492	1	blank2r.bmp	572	2	tot	866	1	!	1239	1	!	-1	0	0	0	0	0	0	0	0	0	0	0	0	0	0	0	0	0	0	0	0	0	0	0	0	0	0	0	0	0	0
072419	10:08:30	10:21:21	770591	5.0.10.0	5_exp_RW	81	Rpleas_acq	CS_B	VKKV	YDDY	GWWG	MQQM	JXXJ	BZZB	retten	treu	ehrlich	spielen	schön	fair	rächen	tot	eitel	strafen	schlecht	faul	1	acq_USpleas_CSpleas1_RW	acq4567_RW	6	17	400	0	300	300	267	50	0	1	1	blank2r.bmp	0	1	+	0	1	blank2r.bmp	492	1	VKKV	492	1	blank2r.bmp	572	1	retten	866	1	!	-1	1	!	-1	0	0	0	0	0	0	0	0	0	0	0	0	0	0	0	0	0	0	0	0	0	0	0	0	0	0	0	0	0	0
072419	10:08:30	10:21:24	772830	5.0.10.0	5_exp_RW	81	Rpleas_acq	CS_B	VKKV	YDDY	GWWG	MQQM	JXXJ	BZZB	retten	treu	ehrlich	spielen	schön	fair	rächen	tot	eitel	strafen	schlecht	faul	1	acq_USunple_CSunple1_RW	acq4567_RW	6	18	400	1	300	300	437	46	0	1	1	blank2r.bmp	0	1	+	0	1	blank2r.bmp	492	1	GWWG	492	1	blank2r.bmp	572	2	tot	866	1	!	1239	1	!	1332	0	0	0	0	0	0	0	0	0	0	0	0	0	0	0	0	0	0	0	0	0	0	0	0	0	0	0	0	0	0
072419	10:08:30	10:21:26	775002	5.0.10.0	5_exp_RW	81	Rpleas_acq	CS_B	VKKV	YDDY	GWWG	MQQM	JXXJ	BZZB	retten	treu	ehrlich	spielen	schön	fair	rächen	tot	eitel	strafen	schlecht	faul	1	acq_USpleas_CSpleas2_RW	acq4567_RW	6	19	400	1	300	300	373	50	0	1	1	blank2r.bmp	0	1	+	0	1	blank2r.bmp	492	1	YDDY	492	1	blank2r.bmp	572	2	schön	866	1	!	1239	1	!	1279	0	0	0	0	0	0	0	0	0	0	0	0	0	0	0	0	0	0	0	0	0	0	0	0	0	0	0	0	0	0
072419	10:08:30	10:21:28	777228	5.0.10.0	5_exp_RW	81	Rpleas_acq	CS_B	VKKV	YDDY	GWWG	MQQM	JXXJ	BZZB	retten	treu	ehrlich	spielen	schön	fair	rächen	tot	eitel	strafen	schlecht	faul	1	acq_USunple_CSunple2_RW	acq4567_RW	6	20	400	1	300	300	433	46	0	1	1	blank2r.bmp	0	1	+	0	1	blank2r.bmp	492	1	MQQM	492	1	blank2r.bmp	572	1	strafen	866	1	!	1239	1	!	1332	0	0	0	0	0	0	0	0	0	0	0	0	0	0	0	0	0	0	0	0	0	0	0	0	0	0	0	0	0	0
