date	time	script.currenttime	script.elapsedtime	build	script.currentexpt	subject	expressions.LRpleas_acq	expressions.conditionCS_A	expressions.CSpleas_1	expressions.CSpleas_2	expressions.CSunple_1	expressions.CSunple_2	expressions.distractor_1	expressions.distractor_2	expressions.US_pleas1	expressions.US_pleas2	expressions.US_pleas3	expressions.US_pleas4	expressions.US_pleas5	expressions.US_pleas6	expressions.US_unple1	expressions.US_unple2	expressions.US_unple3	expressions.US_unple4	expressions.US_unple5	expressions.US_unple6	counter.positions_noRW	trialcode	blockcode	blocknum	trialnum	windowcenter	inwindow	pretrialpause	posttrialpause	latency	response	expressions.correctedscore	correct	stimulusnumber1	stimulusitem1	stimulusonset1	stimulusnumber2	stimulusitem2	stimulusonset2	stimulusnumber3	stimulusitem3	stimulusonset3	stimulusnumber4	stimulusitem4	stimulusonset4	stimulusnumber5	stimulusitem5	stimulusonset5	stimulusnumber6	stimulusitem6	stimulusonset6	stimulusnumber7	stimulusitem7	stimulusonset7	stimulusnumber8	stimulusitem8	stimulusonset8	stimulusnumber9	stimulusitem9	stimulusonset9	stimulusnumber10	stimulusitem10	stimulusonset10	stimulusnumber11	stimulusitem11	stimulusonset11	stimulusnumber12	stimulusitem12	stimulusonset12	stimulusnumber13	stimulusitem13	stimulusonset13	stimulusnumber14	stimulusitem14	stimulusonset14	stimulusnumber15	stimulusitem15	stimulusonset15	stimulusnumber16	stimulusitem16	stimulusonset16	stimulusnumber17	stimulusitem17	stimulusonset17	stimulusnumber18	stimulusitem18	stimulusonset18
070319	12:30:13	12:31:38	84231	5.0.10.0	5_exp_noRW	8	Rpleas_acq	CS_A	ZHHZ	JQQJ	LWWL	DXXD	CPPC	YFFY	vertrauen	küssen	träumen	sonnig	genießen	gütig	versagen	krank	töten	sterben	gemein	gierig	47pct	acq_USunple_CSunple1_noRW	acq1_noRW	1	1	0	0	300	300	955	46	0	1	1	blank2r.bmp	0	1	+	0	1	blank2r.bmp	252	1	LWWL	306	1	versagen	559	0	0	0	0	0	0	0	0	0	0	0	0	0	0	0	0	0	0	0	0	0	0	0	0	0	0	0	0	0	0	0	0	0	0	0	0	0	0	0
070319	12:30:13	12:31:40	86123	5.0.10.0	5_exp_noRW	8	Rpleas_acq	CS_A	ZHHZ	JQQJ	LWWL	DXXD	CPPC	YFFY	vertrauen	küssen	träumen	sonnig	genießen	gütig	versagen	krank	töten	sterben	gemein	gierig	53pct	acq_USunple_CSunple1_noRW	acq1_noRW	1	2	0	0	300	300	710	46	0	1	1	blank2r.bmp	0	1	+	0	1	blank2r.bmp	252	1	LWWL	306	3	töten	559	0	0	0	0	0	0	0	0	0	0	0	0	0	0	0	0	0	0	0	0	0	0	0	0	0	0	0	0	0	0	0	0	0	0	0	0	0	0	0
070319	12:30:13	12:31:42	88069	5.0.10.0	5_exp_noRW	8	Rpleas_acq	CS_A	ZHHZ	JQQJ	LWWL	DXXD	CPPC	YFFY	vertrauen	küssen	träumen	sonnig	genießen	gütig	versagen	krank	töten	sterben	gemein	gierig	47pct	acq_USpleas_CSpleas1_noRW	acq1_noRW	1	3	0	0	300	300	761	50	0	1	1	blank2r.bmp	0	1	+	0	1	blank2r.bmp	252	1	ZHHZ	306	3	träumen	559	0	0	0	0	0	0	0	0	0	0	0	0	0	0	0	0	0	0	0	0	0	0	0	0	0	0	0	0	0	0	0	0	0	0	0	0	0	0	0
070319	12:30:13	12:31:43	89695	5.0.10.0	5_exp_noRW	8	Rpleas_acq	CS_A	ZHHZ	JQQJ	LWWL	DXXD	CPPC	YFFY	vertrauen	küssen	träumen	sonnig	genießen	gütig	versagen	krank	töten	sterben	gemein	gierig	53pct	acq_USunple_CSunple2_noRW	acq1_noRW	1	4	0	0	300	300	462	46	0	1	1	blank2r.bmp	0	1	+	0	1	blank2r.bmp	252	1	DXXD	306	1	sterben	559	0	0	0	0	0	0	0	0	0	0	0	0	0	0	0	0	0	0	0	0	0	0	0	0	0	0	0	0	0	0	0	0	0	0	0	0	0	0	0
070319	12:30:13	12:31:45	91388	5.0.10.0	5_exp_noRW	8	Rpleas_acq	CS_A	ZHHZ	JQQJ	LWWL	DXXD	CPPC	YFFY	vertrauen	küssen	träumen	sonnig	genießen	gütig	versagen	krank	töten	sterben	gemein	gierig	53pct	acq_USunple_CSunple1_noRW	acq1_noRW	1	5	0	0	300	300	516	46	0	1	1	blank2r.bmp	0	1	+	0	1	blank2r.bmp	252	1	LWWL	306	2	krank	559	0	0	0	0	0	0	0	0	0	0	0	0	0	0	0	0	0	0	0	0	0	0	0	0	0	0	0	0	0	0	0	0	0	0	0	0	0	0	0
070319	12:30:13	12:31:47	93094	5.0.10.0	5_exp_noRW	8	Rpleas_acq	CS_A	ZHHZ	JQQJ	LWWL	DXXD	CPPC	YFFY	vertrauen	küssen	träumen	sonnig	genießen	gütig	versagen	krank	töten	sterben	gemein	gierig	47pct	acq_USunple_CSunple2_noRW	acq1_noRW	1	6	0	0	300	300	521	46	0	1	1	blank2r.bmp	0	1	+	0	1	blank2r.bmp	252	1	DXXD	306	3	gierig	559	0	0	0	0	0	0	0	0	0	0	0	0	0	0	0	0	0	0	0	0	0	0	0	0	0	0	0	0	0	0	0	0	0	0	0	0	0	0	0
070319	12:30:13	12:31:48	94600	5.0.10.0	5_exp_noRW	8	Rpleas_acq	CS_A	ZHHZ	JQQJ	LWWL	DXXD	CPPC	YFFY	vertrauen	küssen	träumen	sonnig	genießen	gütig	versagen	krank	töten	sterben	gemein	gierig	53pct	acq_USpleas_CSpleas1_noRW	acq1_noRW	1	7	0	0	300	300	333	50	0	1	1	blank2r.bmp	0	1	+	0	1	blank2r.bmp	252	1	ZHHZ	306	2	küssen	559	0	0	0	0	0	0	0	0	0	0	0	0	0	0	0	0	0	0	0	0	0	0	0	0	0	0	0	0	0	0	0	0	0	0	0	0	0	0	0
070319	12:30:13	12:31:50	96266	5.0.10.0	5_exp_noRW	8	Rpleas_acq	CS_A	ZHHZ	JQQJ	LWWL	DXXD	CPPC	YFFY	vertrauen	küssen	träumen	sonnig	genießen	gütig	versagen	krank	töten	sterben	gemein	gierig	47pct	acq_USpleas_CSpleas2_noRW	acq1_noRW	1	8	0	0	300	300	284	46	0	0	1	blank2r.bmp	0	1	+	0	1	blank2r.bmp	252	1	JQQJ	306	1	sonnig	559	1	FEHLER	879	0	0	0	0	0	0	0	0	0	0	0	0	0	0	0	0	0	0	0	0	0	0	0	0	0	0	0	0	0	0	0	0	0	0	0	0
070319	12:30:13	12:31:51	97785	5.0.10.0	5_exp_noRW	8	Rpleas_acq	CS_A	ZHHZ	JQQJ	LWWL	DXXD	CPPC	YFFY	vertrauen	küssen	träumen	sonnig	genießen	gütig	versagen	krank	töten	sterben	gemein	gierig	53pct	acq_USpleas_CSpleas1_noRW	acq1_noRW	1	9	0	0	300	300	349	46	0	0	1	blank2r.bmp	0	1	+	0	1	blank2r.bmp	252	1	ZHHZ	306	1	vertrauen	559	1	FEHLER	946	0	0	0	0	0	0	0	0	0	0	0	0	0	0	0	0	0	0	0	0	0	0	0	0	0	0	0	0	0	0	0	0	0	0	0	0
070319	12:30:13	12:31:53	99131	5.0.10.0	5_exp_noRW	8	Rpleas_acq	CS_A	ZHHZ	JQQJ	LWWL	DXXD	CPPC	YFFY	vertrauen	küssen	träumen	sonnig	genießen	gütig	versagen	krank	töten	sterben	gemein	gierig	47pct	acq_USpleas_CSpleas2_noRW	acq1_noRW	1	10	0	0	300	300	376	50	0	1	1	blank2r.bmp	0	1	+	0	1	blank2r.bmp	252	1	JQQJ	306	3	gütig	559	0	0	0	0	0	0	0	0	0	0	0	0	0	0	0	0	0	0	0	0	0	0	0	0	0	0	0	0	0	0	0	0	0	0	0	0	0	0	0
070319	12:30:13	12:31:54	100810	5.0.10.0	5_exp_noRW	8	Rpleas_acq	CS_A	ZHHZ	JQQJ	LWWL	DXXD	CPPC	YFFY	vertrauen	küssen	träumen	sonnig	genießen	gütig	versagen	krank	töten	sterben	gemein	gierig	53pct	acq_USunple_CSpleas1_noRW	acq1_noRW	1	11	0	0	300	300	305	50	0	0	1	blank2r.bmp	0	1	+	0	1	blank2r.bmp	252	1	ZHHZ	306	1	versagen	559	1	FEHLER	892	0	0	0	0	0	0	0	0	0	0	0	0	0	0	0	0	0	0	0	0	0	0	0	0	0	0	0	0	0	0	0	0	0	0	0	0
070319	12:30:13	12:31:56	102356	5.0.10.0	5_exp_noRW	8	Rpleas_acq	CS_A	ZHHZ	JQQJ	LWWL	DXXD	CPPC	YFFY	vertrauen	küssen	träumen	sonnig	genießen	gütig	versagen	krank	töten	sterben	gemein	gierig	47pct	acq_USunple_CSunple2_noRW	acq1_noRW	1	12	0	0	300	300	363	50	0	0	1	blank2r.bmp	0	1	+	0	1	blank2r.bmp	252	1	DXXD	306	2	gemein	559	1	FEHLER	959	0	0	0	0	0	0	0	0	0	0	0	0	0	0	0	0	0	0	0	0	0	0	0	0	0	0	0	0	0	0	0	0	0	0	0	0
070319	12:30:13	12:31:57	103902	5.0.10.0	5_exp_noRW	8	Rpleas_acq	CS_A	ZHHZ	JQQJ	LWWL	DXXD	CPPC	YFFY	vertrauen	küssen	träumen	sonnig	genießen	gütig	versagen	krank	töten	sterben	gemein	gierig	47pct	acq_USpleas_CSpleas2_noRW	acq1_noRW	1	13	0	0	300	300	362	46	0	0	1	blank2r.bmp	0	1	+	0	1	blank2r.bmp	252	1	JQQJ	306	2	genießen	559	1	FEHLER	959	0	0	0	0	0	0	0	0	0	0	0	0	0	0	0	0	0	0	0	0	0	0	0	0	0	0	0	0	0	0	0	0	0	0	0	0
070319	12:30:13	12:31:59	105422	5.0.10.0	5_exp_noRW	8	Rpleas_acq	CS_A	ZHHZ	JQQJ	LWWL	DXXD	CPPC	YFFY	vertrauen	küssen	träumen	sonnig	genießen	gütig	versagen	krank	töten	sterben	gemein	gierig	47pct	acq_USpleas_CSpleas2_noRW	acq1_noRW	1	14	0	0	300	300	549	50	0	1	1	blank2r.bmp	0	1	+	0	1	blank2r.bmp	252	1	JQQJ	306	1	sonnig	559	0	0	0	0	0	0	0	0	0	0	0	0	0	0	0	0	0	0	0	0	0	0	0	0	0	0	0	0	0	0	0	0	0	0	0	0	0	0	0
070319	12:30:13	12:32:01	106955	5.0.10.0	5_exp_noRW	8	Rpleas_acq	CS_A	ZHHZ	JQQJ	LWWL	DXXD	CPPC	YFFY	vertrauen	küssen	träumen	sonnig	genießen	gütig	versagen	krank	töten	sterben	gemein	gierig	47pct	acq_USpleas_CSunple1_noRW	acq1_noRW	1	15	0	0	300	300	353	50	0	1	1	blank2r.bmp	0	1	+	0	1	blank2r.bmp	252	1	LWWL	306	3	träumen	559	0	0	0	0	0	0	0	0	0	0	0	0	0	0	0	0	0	0	0	0	0	0	0	0	0	0	0	0	0	0	0	0	0	0	0	0	0	0	0
070319	12:30:13	12:32:03	108954	5.0.10.0	5_exp_noRW	8	Rpleas_acq	CS_A	ZHHZ	JQQJ	LWWL	DXXD	CPPC	YFFY	vertrauen	küssen	träumen	sonnig	genießen	gütig	versagen	krank	töten	sterben	gemein	gierig	47pct	acq_USpleas_CSunple2_noRW	acq1_noRW	1	16	0	0	300	300	834	50	0	1	1	blank2r.bmp	0	1	+	0	1	blank2r.bmp	252	1	DXXD	306	1	sonnig	559	0	0	0	0	0	0	0	0	0	0	0	0	0	0	0	0	0	0	0	0	0	0	0	0	0	0	0	0	0	0	0	0	0	0	0	0	0	0	0
070319	12:30:13	12:32:04	110513	5.0.10.0	5_exp_noRW	8	Rpleas_acq	CS_A	ZHHZ	JQQJ	LWWL	DXXD	CPPC	YFFY	vertrauen	küssen	träumen	sonnig	genießen	gütig	versagen	krank	töten	sterben	gemein	gierig	53pct	acq_USunple_CSpleas2_noRW	acq1_noRW	1	17	0	0	300	300	389	46	0	1	1	blank2r.bmp	0	1	+	0	1	blank2r.bmp	252	1	JQQJ	306	1	sterben	559	0	0	0	0	0	0	0	0	0	0	0	0	0	0	0	0	0	0	0	0	0	0	0	0	0	0	0	0	0	0	0	0	0	0	0	0	0	0	0
070319	12:30:13	12:32:06	112113	5.0.10.0	5_exp_noRW	8	Rpleas_acq	CS_A	ZHHZ	JQQJ	LWWL	DXXD	CPPC	YFFY	vertrauen	küssen	träumen	sonnig	genießen	gütig	versagen	krank	töten	sterben	gemein	gierig	47pct	acq_USunple_CSunple1_noRW	acq1_noRW	1	18	0	0	300	300	436	46	0	1	1	blank2r.bmp	0	1	+	0	1	blank2r.bmp	252	1	LWWL	306	1	versagen	559	0	0	0	0	0	0	0	0	0	0	0	0	0	0	0	0	0	0	0	0	0	0	0	0	0	0	0	0	0	0	0	0	0	0	0	0	0	0	0
070319	12:30:13	12:32:07	113645	5.0.10.0	5_exp_noRW	8	Rpleas_acq	CS_A	ZHHZ	JQQJ	LWWL	DXXD	CPPC	YFFY	vertrauen	küssen	träumen	sonnig	genießen	gütig	versagen	krank	töten	sterben	gemein	gierig	47pct	acq_USunple_CSunple2_noRW	acq1_noRW	1	19	0	0	300	300	351	46	0	1	1	blank2r.bmp	0	1	+	0	1	blank2r.bmp	252	1	DXXD	306	3	gierig	559	0	0	0	0	0	0	0	0	0	0	0	0	0	0	0	0	0	0	0	0	0	0	0	0	0	0	0	0	0	0	0	0	0	0	0	0	0	0	0
070319	12:30:13	12:32:09	115284	5.0.10.0	5_exp_noRW	8	Rpleas_acq	CS_A	ZHHZ	JQQJ	LWWL	DXXD	CPPC	YFFY	vertrauen	küssen	träumen	sonnig	genießen	gütig	versagen	krank	töten	sterben	gemein	gierig	47pct	acq_USpleas_CSpleas1_noRW	acq1_noRW	1	20	0	0	300	300	454	50	0	1	1	blank2r.bmp	0	1	+	0	1	blank2r.bmp	252	1	ZHHZ	306	2	küssen	559	0	0	0	0	0	0	0	0	0	0	0	0	0	0	0	0	0	0	0	0	0	0	0	0	0	0	0	0	0	0	0	0	0	0	0	0	0	0	0
070319	12:30:13	12:32:11	117084	5.0.10.0	5_exp_noRW	8	Rpleas_acq	CS_A	ZHHZ	JQQJ	LWWL	DXXD	CPPC	YFFY	vertrauen	küssen	träumen	sonnig	genießen	gütig	versagen	krank	töten	sterben	gemein	gierig	53pct	acq_USunple_CSunple1_noRW	acq1_noRW	1	21	0	0	300	300	625	46	0	1	1	blank2r.bmp	0	1	+	0	1	blank2r.bmp	252	1	LWWL	306	3	töten	559	0	0	0	0	0	0	0	0	0	0	0	0	0	0	0	0	0	0	0	0	0	0	0	0	0	0	0	0	0	0	0	0	0	0	0	0	0	0	0
070319	12:30:13	12:32:12	118736	5.0.10.0	5_exp_noRW	8	Rpleas_acq	CS_A	ZHHZ	JQQJ	LWWL	DXXD	CPPC	YFFY	vertrauen	küssen	träumen	sonnig	genießen	gütig	versagen	krank	töten	sterben	gemein	gierig	47pct	acq_USpleas_CSpleas2_noRW	acq1_noRW	1	22	0	0	300	300	479	50	0	1	1	blank2r.bmp	0	1	+	0	1	blank2r.bmp	252	1	JQQJ	306	3	gütig	559	0	0	0	0	0	0	0	0	0	0	0	0	0	0	0	0	0	0	0	0	0	0	0	0	0	0	0	0	0	0	0	0	0	0	0	0	0	0	0
070319	12:30:13	12:32:14	120269	5.0.10.0	5_exp_noRW	8	Rpleas_acq	CS_A	ZHHZ	JQQJ	LWWL	DXXD	CPPC	YFFY	vertrauen	küssen	träumen	sonnig	genießen	gütig	versagen	krank	töten	sterben	gemein	gierig	53pct	acq_USunple_CSpleas1_noRW	acq1_noRW	1	23	0	0	300	300	364	46	0	1	1	blank2r.bmp	0	1	+	0	1	blank2r.bmp	252	1	ZHHZ	306	3	töten	559	0	0	0	0	0	0	0	0	0	0	0	0	0	0	0	0	0	0	0	0	0	0	0	0	0	0	0	0	0	0	0	0	0	0	0	0	0	0	0
070319	12:30:13	12:32:16	121948	5.0.10.0	5_exp_noRW	8	Rpleas_acq	CS_A	ZHHZ	JQQJ	LWWL	DXXD	CPPC	YFFY	vertrauen	küssen	träumen	sonnig	genießen	gütig	versagen	krank	töten	sterben	gemein	gierig	53pct	acq_USunple_CSunple1_noRW	acq1_noRW	1	24	0	0	300	300	498	46	0	1	1	blank2r.bmp	0	1	+	0	1	blank2r.bmp	252	1	LWWL	306	2	krank	559	0	0	0	0	0	0	0	0	0	0	0	0	0	0	0	0	0	0	0	0	0	0	0	0	0	0	0	0	0	0	0	0	0	0	0	0	0	0	0
070319	12:30:13	12:32:17	123534	5.0.10.0	5_exp_noRW	8	Rpleas_acq	CS_A	ZHHZ	JQQJ	LWWL	DXXD	CPPC	YFFY	vertrauen	küssen	träumen	sonnig	genießen	gütig	versagen	krank	töten	sterben	gemein	gierig	53pct	acq_USpleas_CSpleas2_noRW	acq1_noRW	1	25	0	0	300	300	420	50	0	1	1	blank2r.bmp	0	1	+	0	1	blank2r.bmp	252	1	JQQJ	306	2	genießen	559	0	0	0	0	0	0	0	0	0	0	0	0	0	0	0	0	0	0	0	0	0	0	0	0	0	0	0	0	0	0	0	0	0	0	0	0	0	0	0
070319	12:30:13	12:32:19	125107	5.0.10.0	5_exp_noRW	8	Rpleas_acq	CS_A	ZHHZ	JQQJ	LWWL	DXXD	CPPC	YFFY	vertrauen	küssen	träumen	sonnig	genießen	gütig	versagen	krank	töten	sterben	gemein	gierig	47pct	acq_USpleas_CSunple1_noRW	acq1_noRW	1	26	0	0	300	300	385	50	0	1	1	blank2r.bmp	0	1	+	0	1	blank2r.bmp	252	1	LWWL	306	1	vertrauen	559	0	0	0	0	0	0	0	0	0	0	0	0	0	0	0	0	0	0	0	0	0	0	0	0	0	0	0	0	0	0	0	0	0	0	0	0	0	0	0
070319	12:30:13	12:32:20	126546	5.0.10.0	5_exp_noRW	8	Rpleas_acq	CS_A	ZHHZ	JQQJ	LWWL	DXXD	CPPC	YFFY	vertrauen	küssen	träumen	sonnig	genießen	gütig	versagen	krank	töten	sterben	gemein	gierig	53pct	acq_USpleas_CSpleas1_noRW	acq1_noRW	1	27	0	0	300	300	276	50	0	1	1	blank2r.bmp	0	1	+	0	1	blank2r.bmp	252	1	ZHHZ	306	1	vertrauen	559	0	0	0	0	0	0	0	0	0	0	0	0	0	0	0	0	0	0	0	0	0	0	0	0	0	0	0	0	0	0	0	0	0	0	0	0	0	0	0
070319	12:30:13	12:32:22	128146	5.0.10.0	5_exp_noRW	8	Rpleas_acq	CS_A	ZHHZ	JQQJ	LWWL	DXXD	CPPC	YFFY	vertrauen	küssen	träumen	sonnig	genießen	gütig	versagen	krank	töten	sterben	gemein	gierig	53pct	acq_USunple_CSunple1_noRW	acq1_noRW	1	28	0	0	300	300	421	46	0	1	1	blank2r.bmp	0	1	+	0	1	blank2r.bmp	252	1	LWWL	306	2	krank	559	0	0	0	0	0	0	0	0	0	0	0	0	0	0	0	0	0	0	0	0	0	0	0	0	0	0	0	0	0	0	0	0	0	0	0	0	0	0	0
070319	12:30:13	12:32:23	129838	5.0.10.0	5_exp_noRW	8	Rpleas_acq	CS_A	ZHHZ	JQQJ	LWWL	DXXD	CPPC	YFFY	vertrauen	küssen	träumen	sonnig	genießen	gütig	versagen	krank	töten	sterben	gemein	gierig	53pct	acq_USunple_CSpleas2_noRW	acq1_noRW	1	29	0	0	300	300	515	46	0	1	1	blank2r.bmp	0	1	+	0	1	blank2r.bmp	252	1	JQQJ	306	3	gierig	559	0	0	0	0	0	0	0	0	0	0	0	0	0	0	0	0	0	0	0	0	0	0	0	0	0	0	0	0	0	0	0	0	0	0	0	0	0	0	0
070319	12:30:13	12:32:25	131464	5.0.10.0	5_exp_noRW	8	Rpleas_acq	CS_A	ZHHZ	JQQJ	LWWL	DXXD	CPPC	YFFY	vertrauen	küssen	träumen	sonnig	genießen	gütig	versagen	krank	töten	sterben	gemein	gierig	53pct	acq_USunple_CSunple2_noRW	acq1_noRW	1	30	0	0	300	300	464	46	0	1	1	blank2r.bmp	0	1	+	0	1	blank2r.bmp	252	1	DXXD	306	2	gemein	559	0	0	0	0	0	0	0	0	0	0	0	0	0	0	0	0	0	0	0	0	0	0	0	0	0	0	0	0	0	0	0	0	0	0	0	0	0	0	0
070319	12:30:13	12:32:27	133050	5.0.10.0	5_exp_noRW	8	Rpleas_acq	CS_A	ZHHZ	JQQJ	LWWL	DXXD	CPPC	YFFY	vertrauen	küssen	träumen	sonnig	genießen	gütig	versagen	krank	töten	sterben	gemein	gierig	47pct	acq_USunple_CSunple1_noRW	acq1_noRW	1	31	0	0	300	300	409	46	0	1	1	blank2r.bmp	0	1	+	0	1	blank2r.bmp	252	1	LWWL	306	1	versagen	559	0	0	0	0	0	0	0	0	0	0	0	0	0	0	0	0	0	0	0	0	0	0	0	0	0	0	0	0	0	0	0	0	0	0	0	0	0	0	0
070319	12:30:13	12:32:28	134636	5.0.10.0	5_exp_noRW	8	Rpleas_acq	CS_A	ZHHZ	JQQJ	LWWL	DXXD	CPPC	YFFY	vertrauen	küssen	träumen	sonnig	genießen	gütig	versagen	krank	töten	sterben	gemein	gierig	47pct	acq_USpleas_CSpleas1_noRW	acq1_noRW	1	32	0	0	300	300	398	50	0	1	1	blank2r.bmp	0	1	+	0	1	blank2r.bmp	252	1	ZHHZ	306	3	träumen	559	0	0	0	0	0	0	0	0	0	0	0	0	0	0	0	0	0	0	0	0	0	0	0	0	0	0	0	0	0	0	0	0	0	0	0	0	0	0	0
070319	12:30:13	12:32:30	136182	5.0.10.0	5_exp_noRW	8	Rpleas_acq	CS_A	ZHHZ	JQQJ	LWWL	DXXD	CPPC	YFFY	vertrauen	küssen	träumen	sonnig	genießen	gütig	versagen	krank	töten	sterben	gemein	gierig	47pct	acq_USpleas_CSpleas1_noRW	acq1_noRW	1	33	0	0	300	300	375	50	0	1	1	blank2r.bmp	0	1	+	0	1	blank2r.bmp	252	1	ZHHZ	306	1	vertrauen	559	0	0	0	0	0	0	0	0	0	0	0	0	0	0	0	0	0	0	0	0	0	0	0	0	0	0	0	0	0	0	0	0	0	0	0	0	0	0	0
070319	12:30:13	12:32:31	137715	5.0.10.0	5_exp_noRW	8	Rpleas_acq	CS_A	ZHHZ	JQQJ	LWWL	DXXD	CPPC	YFFY	vertrauen	küssen	träumen	sonnig	genießen	gütig	versagen	krank	töten	sterben	gemein	gierig	53pct	acq_USpleas_CSpleas2_noRW	acq1_noRW	1	34	0	0	300	300	358	50	0	1	1	blank2r.bmp	0	1	+	0	1	blank2r.bmp	252	1	JQQJ	306	3	gütig	559	0	0	0	0	0	0	0	0	0	0	0	0	0	0	0	0	0	0	0	0	0	0	0	0	0	0	0	0	0	0	0	0	0	0	0	0	0	0	0
070319	12:30:13	12:32:33	139354	5.0.10.0	5_exp_noRW	8	Rpleas_acq	CS_A	ZHHZ	JQQJ	LWWL	DXXD	CPPC	YFFY	vertrauen	küssen	träumen	sonnig	genießen	gütig	versagen	krank	töten	sterben	gemein	gierig	53pct	acq_USunple_CSunple2_noRW	acq1_noRW	1	35	0	0	300	300	464	46	0	1	1	blank2r.bmp	0	1	+	0	1	blank2r.bmp	252	1	DXXD	306	1	sterben	559	0	0	0	0	0	0	0	0	0	0	0	0	0	0	0	0	0	0	0	0	0	0	0	0	0	0	0	0	0	0	0	0	0	0	0	0	0	0	0
070319	12:30:13	12:32:35	141154	5.0.10.0	5_exp_noRW	8	Rpleas_acq	CS_A	ZHHZ	JQQJ	LWWL	DXXD	CPPC	YFFY	vertrauen	küssen	träumen	sonnig	genießen	gütig	versagen	krank	töten	sterben	gemein	gierig	53pct	acq_USpleas_CSpleas2_noRW	acq1_noRW	1	36	0	0	300	300	414	46	0	0	1	blank2r.bmp	0	1	+	0	1	blank2r.bmp	252	1	JQQJ	306	1	sonnig	559	1	FEHLER	1012	0	0	0	0	0	0	0	0	0	0	0	0	0	0	0	0	0	0	0	0	0	0	0	0	0	0	0	0	0	0	0	0	0	0	0	0
070319	12:30:13	12:32:36	142926	5.0.10.0	5_exp_noRW	8	Rpleas_acq	CS_A	ZHHZ	JQQJ	LWWL	DXXD	CPPC	YFFY	vertrauen	küssen	träumen	sonnig	genießen	gütig	versagen	krank	töten	sterben	gemein	gierig	47pct	acq_USunple_CSunple2_noRW	acq1_noRW	1	37	0	0	300	300	585	50	0	0	1	blank2r.bmp	0	1	+	0	1	blank2r.bmp	252	1	DXXD	306	3	gierig	559	1	FEHLER	1186	0	0	0	0	0	0	0	0	0	0	0	0	0	0	0	0	0	0	0	0	0	0	0	0	0	0	0	0	0	0	0	0	0	0	0	0
070319	12:30:13	12:32:38	144259	5.0.10.0	5_exp_noRW	8	Rpleas_acq	CS_A	ZHHZ	JQQJ	LWWL	DXXD	CPPC	YFFY	vertrauen	küssen	träumen	sonnig	genießen	gütig	versagen	krank	töten	sterben	gemein	gierig	47pct	acq_USpleas_CSunple2_noRW	acq1_noRW	1	38	0	0	300	300	381	50	0	1	1	blank2r.bmp	0	1	+	0	1	blank2r.bmp	252	1	DXXD	306	2	genießen	559	0	0	0	0	0	0	0	0	0	0	0	0	0	0	0	0	0	0	0	0	0	0	0	0	0	0	0	0	0	0	0	0	0	0	0	0	0	0	0
070319	12:30:13	12:32:39	145805	5.0.10.0	5_exp_noRW	8	Rpleas_acq	CS_A	ZHHZ	JQQJ	LWWL	DXXD	CPPC	YFFY	vertrauen	küssen	träumen	sonnig	genießen	gütig	versagen	krank	töten	sterben	gemein	gierig	53pct	acq_USpleas_CSpleas1_noRW	acq1_noRW	1	39	0	0	300	300	364	50	0	1	1	blank2r.bmp	0	1	+	0	1	blank2r.bmp	252	1	ZHHZ	306	2	küssen	559	0	0	0	0	0	0	0	0	0	0	0	0	0	0	0	0	0	0	0	0	0	0	0	0	0	0	0	0	0	0	0	0	0	0	0	0	0	0	0
070319	12:30:13	12:32:41	147471	5.0.10.0	5_exp_noRW	8	Rpleas_acq	CS_A	ZHHZ	JQQJ	LWWL	DXXD	CPPC	YFFY	vertrauen	küssen	träumen	sonnig	genießen	gütig	versagen	krank	töten	sterben	gemein	gierig	53pct	acq_USunple_CSunple2_noRW	acq1_noRW	1	40	0	0	300	300	479	46	0	1	1	blank2r.bmp	0	1	+	0	1	blank2r.bmp	252	1	DXXD	306	2	gemein	559	0	0	0	0	0	0	0	0	0	0	0	0	0	0	0	0	0	0	0	0	0	0	0	0	0	0	0	0	0	0	0	0	0	0	0	0	0	0	0
070319	12:30:13	12:32:43	149150	5.0.10.0	5_exp_noRW	8	Rpleas_acq	CS_A	ZHHZ	JQQJ	LWWL	DXXD	CPPC	YFFY	vertrauen	küssen	träumen	sonnig	genießen	gütig	versagen	krank	töten	sterben	gemein	gierig	47pct	acq_USpleas_CSpleas2_noRW	acq1_noRW	1	41	0	0	300	300	507	50	0	1	1	blank2r.bmp	0	1	+	0	1	blank2r.bmp	252	1	JQQJ	306	2	genießen	559	0	0	0	0	0	0	0	0	0	0	0	0	0	0	0	0	0	0	0	0	0	0	0	0	0	0	0	0	0	0	0	0	0	0	0	0	0	0	0
070319	12:30:13	12:32:44	150763	5.0.10.0	5_exp_noRW	8	Rpleas_acq	CS_A	ZHHZ	JQQJ	LWWL	DXXD	CPPC	YFFY	vertrauen	küssen	träumen	sonnig	genießen	gütig	versagen	krank	töten	sterben	gemein	gierig	53pct	acq_USpleas_CSpleas2_noRW	acq1_noRW	1	42	0	0	300	300	433	50	0	1	1	blank2r.bmp	0	1	+	0	1	blank2r.bmp	252	1	JQQJ	306	1	sonnig	559	0	0	0	0	0	0	0	0	0	0	0	0	0	0	0	0	0	0	0	0	0	0	0	0	0	0	0	0	0	0	0	0	0	0	0	0	0	0	0
070319	12:30:13	12:32:46	152482	5.0.10.0	5_exp_noRW	8	Rpleas_acq	CS_A	ZHHZ	JQQJ	LWWL	DXXD	CPPC	YFFY	vertrauen	küssen	träumen	sonnig	genießen	gütig	versagen	krank	töten	sterben	gemein	gierig	47pct	acq_USunple_CSunple2_noRW	acq1_noRW	1	43	0	0	300	300	538	46	0	1	1	blank2r.bmp	0	1	+	0	1	blank2r.bmp	252	1	DXXD	306	1	sterben	559	0	0	0	0	0	0	0	0	0	0	0	0	0	0	0	0	0	0	0	0	0	0	0	0	0	0	0	0	0	0	0	0	0	0	0	0	0	0	0
070319	12:30:13	12:32:48	154121	5.0.10.0	5_exp_noRW	8	Rpleas_acq	CS_A	ZHHZ	JQQJ	LWWL	DXXD	CPPC	YFFY	vertrauen	küssen	träumen	sonnig	genießen	gütig	versagen	krank	töten	sterben	gemein	gierig	47pct	acq_USunple_CSunple1_noRW	acq1_noRW	1	44	0	0	300	300	459	46	0	1	1	blank2r.bmp	0	1	+	0	1	blank2r.bmp	252	1	LWWL	306	3	töten	559	0	0	0	0	0	0	0	0	0	0	0	0	0	0	0	0	0	0	0	0	0	0	0	0	0	0	0	0	0	0	0	0	0	0	0	0	0	0	0
070319	12:30:13	12:32:50	155987	5.0.10.0	5_exp_noRW	8	Rpleas_acq	CS_A	ZHHZ	JQQJ	LWWL	DXXD	CPPC	YFFY	vertrauen	küssen	träumen	sonnig	genießen	gütig	versagen	krank	töten	sterben	gemein	gierig	47pct	acq_USpleas_CSpleas2_noRW	acq1_noRW	1	45	0	0	300	300	688	50	0	1	1	blank2r.bmp	0	1	+	0	1	blank2r.bmp	252	1	JQQJ	306	3	gütig	559	0	0	0	0	0	0	0	0	0	0	0	0	0	0	0	0	0	0	0	0	0	0	0	0	0	0	0	0	0	0	0	0	0	0	0	0	0	0	0
070319	12:30:13	12:32:51	157547	5.0.10.0	5_exp_noRW	8	Rpleas_acq	CS_A	ZHHZ	JQQJ	LWWL	DXXD	CPPC	YFFY	vertrauen	küssen	träumen	sonnig	genießen	gütig	versagen	krank	töten	sterben	gemein	gierig	53pct	acq_USpleas_CSpleas1_noRW	acq1_noRW	1	46	0	0	300	300	373	50	0	1	1	blank2r.bmp	0	1	+	0	1	blank2r.bmp	252	1	ZHHZ	306	3	träumen	559	0	0	0	0	0	0	0	0	0	0	0	0	0	0	0	0	0	0	0	0	0	0	0	0	0	0	0	0	0	0	0	0	0	0	0	0	0	0	0
070319	12:30:13	12:32:53	159079	5.0.10.0	5_exp_noRW	8	Rpleas_acq	CS_A	ZHHZ	JQQJ	LWWL	DXXD	CPPC	YFFY	vertrauen	küssen	träumen	sonnig	genießen	gütig	versagen	krank	töten	sterben	gemein	gierig	53pct	acq_USpleas_CSunple1_noRW	acq1_noRW	1	47	0	0	300	300	369	50	0	1	1	blank2r.bmp	0	1	+	0	1	blank2r.bmp	252	1	LWWL	306	2	küssen	559	0	0	0	0	0	0	0	0	0	0	0	0	0	0	0	0	0	0	0	0	0	0	0	0	0	0	0	0	0	0	0	0	0	0	0	0	0	0	0
070319	12:30:13	12:32:54	160719	5.0.10.0	5_exp_noRW	8	Rpleas_acq	CS_A	ZHHZ	JQQJ	LWWL	DXXD	CPPC	YFFY	vertrauen	küssen	träumen	sonnig	genießen	gütig	versagen	krank	töten	sterben	gemein	gierig	47pct	acq_USunple_CSunple1_noRW	acq1_noRW	1	48	0	0	300	300	454	46	0	1	1	blank2r.bmp	0	1	+	0	1	blank2r.bmp	252	1	LWWL	306	3	töten	559	0	0	0	0	0	0	0	0	0	0	0	0	0	0	0	0	0	0	0	0	0	0	0	0	0	0	0	0	0	0	0	0	0	0	0	0	0	0	0
070319	12:30:13	12:32:56	162918	5.0.10.0	5_exp_noRW	8	Rpleas_acq	CS_A	ZHHZ	JQQJ	LWWL	DXXD	CPPC	YFFY	vertrauen	küssen	träumen	sonnig	genießen	gütig	versagen	krank	töten	sterben	gemein	gierig	53pct	acq_USunple_CSunple2_noRW	acq1_noRW	1	49	0	0	300	300	1032	46	0	1	1	blank2r.bmp	0	1	+	0	1	blank2r.bmp	252	1	DXXD	306	1	sterben	559	0	0	0	0	0	0	0	0	0	0	0	0	0	0	0	0	0	0	0	0	0	0	0	0	0	0	0	0	0	0	0	0	0	0	0	0	0	0	0
070319	12:30:13	12:32:58	164530	5.0.10.0	5_exp_noRW	8	Rpleas_acq	CS_A	ZHHZ	JQQJ	LWWL	DXXD	CPPC	YFFY	vertrauen	küssen	träumen	sonnig	genießen	gütig	versagen	krank	töten	sterben	gemein	gierig	53pct	acq_USpleas_CSpleas1_noRW	acq1_noRW	1	50	0	0	300	300	432	50	0	1	1	blank2r.bmp	0	1	+	0	1	blank2r.bmp	252	1	ZHHZ	306	3	träumen	559	0	0	0	0	0	0	0	0	0	0	0	0	0	0	0	0	0	0	0	0	0	0	0	0	0	0	0	0	0	0	0	0	0	0	0	0	0	0	0
070319	12:30:13	12:33:00	166036	5.0.10.0	5_exp_noRW	8	Rpleas_acq	CS_A	ZHHZ	JQQJ	LWWL	DXXD	CPPC	YFFY	vertrauen	küssen	träumen	sonnig	genießen	gütig	versagen	krank	töten	sterben	gemein	gierig	47pct	acq_USpleas_CSpleas1_noRW	acq1_noRW	1	51	0	0	300	300	319	50	0	1	1	blank2r.bmp	0	1	+	0	1	blank2r.bmp	252	1	ZHHZ	306	1	vertrauen	559	0	0	0	0	0	0	0	0	0	0	0	0	0	0	0	0	0	0	0	0	0	0	0	0	0	0	0	0	0	0	0	0	0	0	0	0	0	0	0
070319	12:30:13	12:33:01	167583	5.0.10.0	5_exp_noRW	8	Rpleas_acq	CS_A	ZHHZ	JQQJ	LWWL	DXXD	CPPC	YFFY	vertrauen	küssen	träumen	sonnig	genießen	gütig	versagen	krank	töten	sterben	gemein	gierig	53pct	acq_USunple_CSunple2_noRW	acq1_noRW	1	52	0	0	300	300	378	46	0	1	1	blank2r.bmp	0	1	+	0	1	blank2r.bmp	252	1	DXXD	306	3	gierig	559	0	0	0	0	0	0	0	0	0	0	0	0	0	0	0	0	0	0	0	0	0	0	0	0	0	0	0	0	0	0	0	0	0	0	0	0	0	0	0
070319	12:30:13	12:33:03	169262	5.0.10.0	5_exp_noRW	8	Rpleas_acq	CS_A	ZHHZ	JQQJ	LWWL	DXXD	CPPC	YFFY	vertrauen	küssen	träumen	sonnig	genießen	gütig	versagen	krank	töten	sterben	gemein	gierig	47pct	acq_USunple_CSpleas1_noRW	acq1_noRW	1	53	0	0	300	300	492	46	0	1	1	blank2r.bmp	0	1	+	0	1	blank2r.bmp	252	1	ZHHZ	306	2	krank	559	0	0	0	0	0	0	0	0	0	0	0	0	0	0	0	0	0	0	0	0	0	0	0	0	0	0	0	0	0	0	0	0	0	0	0	0	0	0	0
070319	12:30:13	12:33:04	170741	5.0.10.0	5_exp_noRW	8	Rpleas_acq	CS_A	ZHHZ	JQQJ	LWWL	DXXD	CPPC	YFFY	vertrauen	küssen	träumen	sonnig	genießen	gütig	versagen	krank	töten	sterben	gemein	gierig	47pct	acq_USunple_CSunple2_noRW	acq1_noRW	1	54	0	0	300	300	305	46	0	1	1	blank2r.bmp	0	1	+	0	1	blank2r.bmp	252	1	DXXD	306	2	gemein	559	0	0	0	0	0	0	0	0	0	0	0	0	0	0	0	0	0	0	0	0	0	0	0	0	0	0	0	0	0	0	0	0	0	0	0	0	0	0	0
070319	12:30:13	12:33:06	172314	5.0.10.0	5_exp_noRW	8	Rpleas_acq	CS_A	ZHHZ	JQQJ	LWWL	DXXD	CPPC	YFFY	vertrauen	küssen	träumen	sonnig	genießen	gütig	versagen	krank	töten	sterben	gemein	gierig	47pct	acq_USpleas_CSunple2_noRW	acq1_noRW	1	55	0	0	300	300	406	50	0	1	1	blank2r.bmp	0	1	+	0	1	blank2r.bmp	252	1	DXXD	306	3	gütig	559	0	0	0	0	0	0	0	0	0	0	0	0	0	0	0	0	0	0	0	0	0	0	0	0	0	0	0	0	0	0	0	0	0	0	0	0	0	0	0
070319	12:30:13	12:33:08	173953	5.0.10.0	5_exp_noRW	8	Rpleas_acq	CS_A	ZHHZ	JQQJ	LWWL	DXXD	CPPC	YFFY	vertrauen	küssen	träumen	sonnig	genießen	gütig	versagen	krank	töten	sterben	gemein	gierig	53pct	acq_USunple_CSunple1_noRW	acq1_noRW	1	56	0	0	300	300	452	46	0	1	1	blank2r.bmp	0	1	+	0	1	blank2r.bmp	252	1	LWWL	306	1	versagen	559	0	0	0	0	0	0	0	0	0	0	0	0	0	0	0	0	0	0	0	0	0	0	0	0	0	0	0	0	0	0	0	0	0	0	0	0	0	0	0
070319	12:30:13	12:33:09	175526	5.0.10.0	5_exp_noRW	8	Rpleas_acq	CS_A	ZHHZ	JQQJ	LWWL	DXXD	CPPC	YFFY	vertrauen	küssen	träumen	sonnig	genießen	gütig	versagen	krank	töten	sterben	gemein	gierig	47pct	acq_USpleas_CSpleas1_noRW	acq1_noRW	1	57	0	0	300	300	392	50	0	1	1	blank2r.bmp	0	1	+	0	1	blank2r.bmp	252	1	ZHHZ	306	2	küssen	559	0	0	0	0	0	0	0	0	0	0	0	0	0	0	0	0	0	0	0	0	0	0	0	0	0	0	0	0	0	0	0	0	0	0	0	0	0	0	0
070319	12:30:13	12:33:11	177045	5.0.10.0	5_exp_noRW	8	Rpleas_acq	CS_A	ZHHZ	JQQJ	LWWL	DXXD	CPPC	YFFY	vertrauen	küssen	träumen	sonnig	genießen	gütig	versagen	krank	töten	sterben	gemein	gierig	47pct	acq_USpleas_CSpleas2_noRW	acq1_noRW	1	58	0	0	300	300	336	50	0	1	1	blank2r.bmp	0	1	+	0	1	blank2r.bmp	252	1	JQQJ	306	2	genießen	559	0	0	0	0	0	0	0	0	0	0	0	0	0	0	0	0	0	0	0	0	0	0	0	0	0	0	0	0	0	0	0	0	0	0	0	0	0	0	0
070319	12:30:13	12:33:12	178671	5.0.10.0	5_exp_noRW	8	Rpleas_acq	CS_A	ZHHZ	JQQJ	LWWL	DXXD	CPPC	YFFY	vertrauen	küssen	träumen	sonnig	genießen	gütig	versagen	krank	töten	sterben	gemein	gierig	47pct	acq_USunple_CSunple1_noRW	acq1_noRW	1	59	0	0	300	300	458	46	0	1	1	blank2r.bmp	0	1	+	0	1	blank2r.bmp	252	1	LWWL	306	2	krank	559	0	0	0	0	0	0	0	0	0	0	0	0	0	0	0	0	0	0	0	0	0	0	0	0	0	0	0	0	0	0	0	0	0	0	0	0	0	0	0
070319	12:30:13	12:33:14	180337	5.0.10.0	5_exp_noRW	8	Rpleas_acq	CS_A	ZHHZ	JQQJ	LWWL	DXXD	CPPC	YFFY	vertrauen	küssen	träumen	sonnig	genießen	gütig	versagen	krank	töten	sterben	gemein	gierig	47pct	acq_USunple_CSpleas2_noRW	acq1_noRW	1	60	0	0	300	300	493	46	0	1	1	blank2r.bmp	0	1	+	0	1	blank2r.bmp	252	1	JQQJ	306	2	gemein	559	0	0	0	0	0	0	0	0	0	0	0	0	0	0	0	0	0	0	0	0	0	0	0	0	0	0	0	0	0	0	0	0	0	0	0	0	0	0	0
070319	12:30:13	12:33:16	181976	5.0.10.0	5_exp_noRW	8	Rpleas_acq	CS_A	ZHHZ	JQQJ	LWWL	DXXD	CPPC	YFFY	vertrauen	küssen	träumen	sonnig	genießen	gütig	versagen	krank	töten	sterben	gemein	gierig	47pct	acq_USunple_CSunple2_noRW	acq1_noRW	1	61	0	0	300	300	469	46	0	1	1	blank2r.bmp	0	1	+	0	1	blank2r.bmp	252	1	DXXD	306	2	gemein	559	0	0	0	0	0	0	0	0	0	0	0	0	0	0	0	0	0	0	0	0	0	0	0	0	0	0	0	0	0	0	0	0	0	0	0	0	0	0	0
070319	12:30:13	12:33:17	183616	5.0.10.0	5_exp_noRW	8	Rpleas_acq	CS_A	ZHHZ	JQQJ	LWWL	DXXD	CPPC	YFFY	vertrauen	küssen	träumen	sonnig	genießen	gütig	versagen	krank	töten	sterben	gemein	gierig	53pct	acq_USunple_CSunple1_noRW	acq1_noRW	1	62	0	0	300	300	474	46	0	1	1	blank2r.bmp	0	1	+	0	1	blank2r.bmp	252	1	LWWL	306	3	töten	559	0	0	0	0	0	0	0	0	0	0	0	0	0	0	0	0	0	0	0	0	0	0	0	0	0	0	0	0	0	0	0	0	0	0	0	0	0	0	0
070319	12:30:13	12:33:19	185615	5.0.10.0	5_exp_noRW	8	Rpleas_acq	CS_A	ZHHZ	JQQJ	LWWL	DXXD	CPPC	YFFY	vertrauen	küssen	träumen	sonnig	genießen	gütig	versagen	krank	töten	sterben	gemein	gierig	47pct	acq_USpleas_CSpleas1_noRW	acq1_noRW	1	63	0	0	300	300	823	50	0	1	1	blank2r.bmp	0	1	+	0	1	blank2r.bmp	252	1	ZHHZ	306	3	träumen	559	0	0	0	0	0	0	0	0	0	0	0	0	0	0	0	0	0	0	0	0	0	0	0	0	0	0	0	0	0	0	0	0	0	0	0	0	0	0	0
070319	12:30:13	12:33:21	187188	5.0.10.0	5_exp_noRW	8	Rpleas_acq	CS_A	ZHHZ	JQQJ	LWWL	DXXD	CPPC	YFFY	vertrauen	küssen	träumen	sonnig	genießen	gütig	versagen	krank	töten	sterben	gemein	gierig	53pct	acq_USpleas_CSpleas1_noRW	acq1_noRW	1	64	0	0	300	300	386	50	0	1	1	blank2r.bmp	0	1	+	0	1	blank2r.bmp	252	1	ZHHZ	306	2	küssen	559	0	0	0	0	0	0	0	0	0	0	0	0	0	0	0	0	0	0	0	0	0	0	0	0	0	0	0	0	0	0	0	0	0	0	0	0	0	0	0
070319	12:30:13	12:33:22	188694	5.0.10.0	5_exp_noRW	8	Rpleas_acq	CS_A	ZHHZ	JQQJ	LWWL	DXXD	CPPC	YFFY	vertrauen	küssen	träumen	sonnig	genießen	gütig	versagen	krank	töten	sterben	gemein	gierig	47pct	acq_USpleas_CSpleas2_noRW	acq1_noRW	1	65	0	0	300	300	335	50	0	1	1	blank2r.bmp	0	1	+	0	1	blank2r.bmp	252	1	JQQJ	306	2	genießen	559	0	0	0	0	0	0	0	0	0	0	0	0	0	0	0	0	0	0	0	0	0	0	0	0	0	0	0	0	0	0	0	0	0	0	0	0	0	0	0
070319	12:30:13	12:33:24	190280	5.0.10.0	5_exp_noRW	8	Rpleas_acq	CS_A	ZHHZ	JQQJ	LWWL	DXXD	CPPC	YFFY	vertrauen	küssen	träumen	sonnig	genießen	gütig	versagen	krank	töten	sterben	gemein	gierig	53pct	acq_USpleas_CSpleas1_noRW	acq1_noRW	1	66	0	0	300	300	406	50	0	1	1	blank2r.bmp	0	1	+	0	1	blank2r.bmp	252	1	ZHHZ	306	1	vertrauen	559	0	0	0	0	0	0	0	0	0	0	0	0	0	0	0	0	0	0	0	0	0	0	0	0	0	0	0	0	0	0	0	0	0	0	0	0	0	0	0
070319	12:30:13	12:33:25	191839	5.0.10.0	5_exp_noRW	8	Rpleas_acq	CS_A	ZHHZ	JQQJ	LWWL	DXXD	CPPC	YFFY	vertrauen	küssen	träumen	sonnig	genießen	gütig	versagen	krank	töten	sterben	gemein	gierig	47pct	acq_USpleas_CSunple1_noRW	acq1_noRW	1	67	0	0	300	300	380	50	0	1	1	blank2r.bmp	0	1	+	0	1	blank2r.bmp	252	1	LWWL	306	2	küssen	559	0	0	0	0	0	0	0	0	0	0	0	0	0	0	0	0	0	0	0	0	0	0	0	0	0	0	0	0	0	0	0	0	0	0	0	0	0	0	0
070319	12:30:13	12:33:27	193598	5.0.10.0	5_exp_noRW	8	Rpleas_acq	CS_A	ZHHZ	JQQJ	LWWL	DXXD	CPPC	YFFY	vertrauen	küssen	träumen	sonnig	genießen	gütig	versagen	krank	töten	sterben	gemein	gierig	53pct	acq_USpleas_CSpleas2_noRW	acq1_noRW	1	68	0	0	300	300	581	50	0	1	1	blank2r.bmp	0	1	+	0	1	blank2r.bmp	252	1	JQQJ	306	1	sonnig	559	0	0	0	0	0	0	0	0	0	0	0	0	0	0	0	0	0	0	0	0	0	0	0	0	0	0	0	0	0	0	0	0	0	0	0	0	0	0	0
070319	12:30:13	12:33:29	195384	5.0.10.0	5_exp_noRW	8	Rpleas_acq	CS_A	ZHHZ	JQQJ	LWWL	DXXD	CPPC	YFFY	vertrauen	küssen	träumen	sonnig	genießen	gütig	versagen	krank	töten	sterben	gemein	gierig	47pct	acq_USunple_CSpleas2_noRW	acq1_noRW	1	69	0	0	300	300	396	50	0	0	1	blank2r.bmp	0	1	+	0	1	blank2r.bmp	252	1	JQQJ	306	1	sterben	559	1	FEHLER	986	0	0	0	0	0	0	0	0	0	0	0	0	0	0	0	0	0	0	0	0	0	0	0	0	0	0	0	0	0	0	0	0	0	0	0	0
070319	12:30:13	12:33:30	196757	5.0.10.0	5_exp_noRW	8	Rpleas_acq	CS_A	ZHHZ	JQQJ	LWWL	DXXD	CPPC	YFFY	vertrauen	küssen	träumen	sonnig	genießen	gütig	versagen	krank	töten	sterben	gemein	gierig	47pct	acq_USunple_CSunple1_noRW	acq1_noRW	1	70	0	0	300	300	418	46	0	1	1	blank2r.bmp	0	1	+	0	1	blank2r.bmp	252	1	LWWL	306	2	krank	559	0	0	0	0	0	0	0	0	0	0	0	0	0	0	0	0	0	0	0	0	0	0	0	0	0	0	0	0	0	0	0	0	0	0	0	0	0	0	0
070319	12:30:13	12:33:32	198250	5.0.10.0	5_exp_noRW	8	Rpleas_acq	CS_A	ZHHZ	JQQJ	LWWL	DXXD	CPPC	YFFY	vertrauen	küssen	träumen	sonnig	genießen	gütig	versagen	krank	töten	sterben	gemein	gierig	53pct	acq_USunple_CSunple2_noRW	acq1_noRW	1	71	0	0	300	300	312	46	0	1	1	blank2r.bmp	0	1	+	0	1	blank2r.bmp	252	1	DXXD	306	1	sterben	559	0	0	0	0	0	0	0	0	0	0	0	0	0	0	0	0	0	0	0	0	0	0	0	0	0	0	0	0	0	0	0	0	0	0	0	0	0	0	0
070319	12:30:13	12:33:33	199836	5.0.10.0	5_exp_noRW	8	Rpleas_acq	CS_A	ZHHZ	JQQJ	LWWL	DXXD	CPPC	YFFY	vertrauen	küssen	träumen	sonnig	genießen	gütig	versagen	krank	töten	sterben	gemein	gierig	53pct	acq_USpleas_CSunple2_noRW	acq1_noRW	1	72	0	0	300	300	424	50	0	1	1	blank2r.bmp	0	1	+	0	1	blank2r.bmp	252	1	DXXD	306	2	genießen	559	0	0	0	0	0	0	0	0	0	0	0	0	0	0	0	0	0	0	0	0	0	0	0	0	0	0	0	0	0	0	0	0	0	0	0	0	0	0	0
070319	12:30:13	12:33:35	201462	5.0.10.0	5_exp_noRW	8	Rpleas_acq	CS_A	ZHHZ	JQQJ	LWWL	DXXD	CPPC	YFFY	vertrauen	küssen	träumen	sonnig	genießen	gütig	versagen	krank	töten	sterben	gemein	gierig	53pct	acq_USpleas_CSpleas1_noRW	acq1_noRW	1	73	0	0	300	300	463	50	0	1	1	blank2r.bmp	0	1	+	0	1	blank2r.bmp	252	1	ZHHZ	306	1	vertrauen	559	0	0	0	0	0	0	0	0	0	0	0	0	0	0	0	0	0	0	0	0	0	0	0	0	0	0	0	0	0	0	0	0	0	0	0	0	0	0	0
070319	12:30:13	12:33:37	202994	5.0.10.0	5_exp_noRW	8	Rpleas_acq	CS_A	ZHHZ	JQQJ	LWWL	DXXD	CPPC	YFFY	vertrauen	küssen	träumen	sonnig	genießen	gütig	versagen	krank	töten	sterben	gemein	gierig	47pct	acq_USpleas_CSpleas2_noRW	acq1_noRW	1	74	0	0	300	300	346	50	0	1	1	blank2r.bmp	0	1	+	0	1	blank2r.bmp	252	1	JQQJ	306	3	gütig	559	0	0	0	0	0	0	0	0	0	0	0	0	0	0	0	0	0	0	0	0	0	0	0	0	0	0	0	0	0	0	0	0	0	0	0	0	0	0	0
070319	12:30:13	12:33:38	204647	5.0.10.0	5_exp_noRW	8	Rpleas_acq	CS_A	ZHHZ	JQQJ	LWWL	DXXD	CPPC	YFFY	vertrauen	küssen	träumen	sonnig	genießen	gütig	versagen	krank	töten	sterben	gemein	gierig	47pct	acq_USunple_CSunple2_noRW	acq1_noRW	1	75	0	0	300	300	482	46	0	1	1	blank2r.bmp	0	1	+	0	1	blank2r.bmp	252	1	DXXD	306	3	gierig	559	0	0	0	0	0	0	0	0	0	0	0	0	0	0	0	0	0	0	0	0	0	0	0	0	0	0	0	0	0	0	0	0	0	0	0	0	0	0	0
070319	12:30:13	12:33:40	206233	5.0.10.0	5_exp_noRW	8	Rpleas_acq	CS_A	ZHHZ	JQQJ	LWWL	DXXD	CPPC	YFFY	vertrauen	küssen	träumen	sonnig	genießen	gütig	versagen	krank	töten	sterben	gemein	gierig	47pct	acq_USpleas_CSpleas2_noRW	acq1_noRW	1	76	0	0	300	300	413	50	0	1	1	blank2r.bmp	0	1	+	0	1	blank2r.bmp	252	1	JQQJ	306	2	genießen	559	0	0	0	0	0	0	0	0	0	0	0	0	0	0	0	0	0	0	0	0	0	0	0	0	0	0	0	0	0	0	0	0	0	0	0	0	0	0	0
070319	12:30:13	12:33:42	208206	5.0.10.0	5_exp_noRW	8	Rpleas_acq	CS_A	ZHHZ	JQQJ	LWWL	DXXD	CPPC	YFFY	vertrauen	küssen	träumen	sonnig	genießen	gütig	versagen	krank	töten	sterben	gemein	gierig	47pct	acq_USunple_CSunple1_noRW	acq1_noRW	1	77	0	0	300	300	801	46	0	1	1	blank2r.bmp	0	1	+	0	1	blank2r.bmp	252	1	LWWL	306	1	versagen	559	0	0	0	0	0	0	0	0	0	0	0	0	0	0	0	0	0	0	0	0	0	0	0	0	0	0	0	0	0	0	0	0	0	0	0	0	0	0	0
070319	12:30:13	12:33:43	209778	5.0.10.0	5_exp_noRW	8	Rpleas_acq	CS_A	ZHHZ	JQQJ	LWWL	DXXD	CPPC	YFFY	vertrauen	küssen	träumen	sonnig	genießen	gütig	versagen	krank	töten	sterben	gemein	gierig	53pct	acq_USunple_CSunple1_noRW	acq1_noRW	1	78	0	0	300	300	405	46	0	1	1	blank2r.bmp	0	1	+	0	1	blank2r.bmp	252	1	LWWL	306	2	krank	559	0	0	0	0	0	0	0	0	0	0	0	0	0	0	0	0	0	0	0	0	0	0	0	0	0	0	0	0	0	0	0	0	0	0	0	0	0	0	0
070319	12:30:13	12:33:45	211258	5.0.10.0	5_exp_noRW	8	Rpleas_acq	CS_A	ZHHZ	JQQJ	LWWL	DXXD	CPPC	YFFY	vertrauen	küssen	träumen	sonnig	genießen	gütig	versagen	krank	töten	sterben	gemein	gierig	53pct	acq_USunple_CSpleas1_noRW	acq1_noRW	1	79	0	0	300	300	303	46	0	1	1	blank2r.bmp	0	1	+	0	1	blank2r.bmp	252	1	ZHHZ	306	2	krank	559	0	0	0	0	0	0	0	0	0	0	0	0	0	0	0	0	0	0	0	0	0	0	0	0	0	0	0	0	0	0	0	0	0	0	0	0	0	0	0
070319	12:30:13	12:33:46	212830	5.0.10.0	5_exp_noRW	8	Rpleas_acq	CS_A	ZHHZ	JQQJ	LWWL	DXXD	CPPC	YFFY	vertrauen	küssen	träumen	sonnig	genießen	gütig	versagen	krank	töten	sterben	gemein	gierig	47pct	acq_USunple_CSunple2_noRW	acq1_noRW	1	80	0	0	300	300	396	46	0	1	1	blank2r.bmp	0	1	+	0	1	blank2r.bmp	252	1	DXXD	306	2	gemein	559	0	0	0	0	0	0	0	0	0	0	0	0	0	0	0	0	0	0	0	0	0	0	0	0	0	0	0	0	0	0	0	0	0	0	0	0	0	0	0
070319	12:30:13	12:34:01	227571	5.0.10.0	5_exp_noRW	8	Rpleas_acq	CS_A	ZHHZ	JQQJ	LWWL	DXXD	CPPC	YFFY	vertrauen	küssen	träumen	sonnig	genießen	gütig	versagen	krank	töten	sterben	gemein	gierig	53pct	acq_USpleas_CSpleas2_noRW	acq23456_noRW	2	1	0	0	300	300	420	50	0	1	1	blank2r.bmp	0	1	+	0	1	blank2r.bmp	252	1	JQQJ	306	1	sonnig	559	0	0	0	0	0	0	0	0	0	0	0	0	0	0	0	0	0	0	0	0	0	0	0	0	0	0	0	0	0	0	0	0	0	0	0	0	0	0	0
070319	12:30:13	12:34:04	230223	5.0.10.0	5_exp_noRW	8	Rpleas_acq	CS_A	ZHHZ	JQQJ	LWWL	DXXD	CPPC	YFFY	vertrauen	küssen	träumen	sonnig	genießen	gütig	versagen	krank	töten	sterben	gemein	gierig	47pct	acq_USunple_CSunple1_noRW	acq23456_noRW	2	2	0	0	300	300	1472	46	0	1	1	blank2r.bmp	0	1	+	0	1	blank2r.bmp	252	1	LWWL	306	1	versagen	559	0	0	0	0	0	0	0	0	0	0	0	0	0	0	0	0	0	0	0	0	0	0	0	0	0	0	0	0	0	0	0	0	0	0	0	0	0	0	0
070319	12:30:13	12:34:05	231809	5.0.10.0	5_exp_noRW	8	Rpleas_acq	CS_A	ZHHZ	JQQJ	LWWL	DXXD	CPPC	YFFY	vertrauen	küssen	träumen	sonnig	genießen	gütig	versagen	krank	töten	sterben	gemein	gierig	47pct	acq_USpleas_CSpleas1_noRW	acq23456_noRW	2	3	0	0	300	300	407	50	0	1	1	blank2r.bmp	0	1	+	0	1	blank2r.bmp	252	1	ZHHZ	306	3	träumen	559	0	0	0	0	0	0	0	0	0	0	0	0	0	0	0	0	0	0	0	0	0	0	0	0	0	0	0	0	0	0	0	0	0	0	0	0	0	0	0
070319	12:30:13	12:34:07	233395	5.0.10.0	5_exp_noRW	8	Rpleas_acq	CS_A	ZHHZ	JQQJ	LWWL	DXXD	CPPC	YFFY	vertrauen	küssen	träumen	sonnig	genießen	gütig	versagen	krank	töten	sterben	gemein	gierig	53pct	acq_USpleas_CSpleas2_noRW	acq23456_noRW	2	4	0	0	300	300	401	50	0	1	1	blank2r.bmp	0	1	+	0	1	blank2r.bmp	252	1	JQQJ	306	3	gütig	559	0	0	0	0	0	0	0	0	0	0	0	0	0	0	0	0	0	0	0	0	0	0	0	0	0	0	0	0	0	0	0	0	0	0	0	0	0	0	0
070319	12:30:13	12:34:08	234914	5.0.10.0	5_exp_noRW	8	Rpleas_acq	CS_A	ZHHZ	JQQJ	LWWL	DXXD	CPPC	YFFY	vertrauen	küssen	träumen	sonnig	genießen	gütig	versagen	krank	töten	sterben	gemein	gierig	53pct	acq_USpleas_CSunple2_noRW	acq23456_noRW	2	5	0	0	300	300	356	50	0	1	1	blank2r.bmp	0	1	+	0	1	blank2r.bmp	252	1	DXXD	306	1	sonnig	559	0	0	0	0	0	0	0	0	0	0	0	0	0	0	0	0	0	0	0	0	0	0	0	0	0	0	0	0	0	0	0	0	0	0	0	0	0	0	0
070319	12:30:13	12:34:10	236554	5.0.10.0	5_exp_noRW	8	Rpleas_acq	CS_A	ZHHZ	JQQJ	LWWL	DXXD	CPPC	YFFY	vertrauen	küssen	träumen	sonnig	genießen	gütig	versagen	krank	töten	sterben	gemein	gierig	47pct	acq_USunple_CSunple1_noRW	acq23456_noRW	2	6	0	0	300	300	458	46	0	1	1	blank2r.bmp	0	1	+	0	1	blank2r.bmp	252	1	LWWL	306	3	töten	559	0	0	0	0	0	0	0	0	0	0	0	0	0	0	0	0	0	0	0	0	0	0	0	0	0	0	0	0	0	0	0	0	0	0	0	0	0	0	0
070319	12:30:13	12:34:12	238140	5.0.10.0	5_exp_noRW	8	Rpleas_acq	CS_A	ZHHZ	JQQJ	LWWL	DXXD	CPPC	YFFY	vertrauen	küssen	träumen	sonnig	genießen	gütig	versagen	krank	töten	sterben	gemein	gierig	53pct	acq_USunple_CSunple2_noRW	acq23456_noRW	2	7	0	0	300	300	407	46	0	1	1	blank2r.bmp	0	1	+	0	1	blank2r.bmp	252	1	DXXD	306	1	sterben	559	0	0	0	0	0	0	0	0	0	0	0	0	0	0	0	0	0	0	0	0	0	0	0	0	0	0	0	0	0	0	0	0	0	0	0	0	0	0	0
070319	12:30:13	12:34:13	239699	5.0.10.0	5_exp_noRW	8	Rpleas_acq	CS_A	ZHHZ	JQQJ	LWWL	DXXD	CPPC	YFFY	vertrauen	küssen	träumen	sonnig	genießen	gütig	versagen	krank	töten	sterben	gemein	gierig	53pct	acq_USpleas_CSpleas1_noRW	acq23456_noRW	2	8	0	0	300	300	371	50	0	1	1	blank2r.bmp	0	1	+	0	1	blank2r.bmp	252	1	ZHHZ	306	2	küssen	559	0	0	0	0	0	0	0	0	0	0	0	0	0	0	0	0	0	0	0	0	0	0	0	0	0	0	0	0	0	0	0	0	0	0	0	0	0	0	0
070319	12:30:13	12:34:15	241192	5.0.10.0	5_exp_noRW	8	Rpleas_acq	CS_A	ZHHZ	JQQJ	LWWL	DXXD	CPPC	YFFY	vertrauen	küssen	träumen	sonnig	genießen	gütig	versagen	krank	töten	sterben	gemein	gierig	47pct	acq_USpleas_CSpleas2_noRW	acq23456_noRW	2	9	0	0	300	300	324	50	0	1	1	blank2r.bmp	0	1	+	0	1	blank2r.bmp	252	1	JQQJ	306	2	genießen	559	0	0	0	0	0	0	0	0	0	0	0	0	0	0	0	0	0	0	0	0	0	0	0	0	0	0	0	0	0	0	0	0	0	0	0	0	0	0	0
070319	12:30:13	12:34:16	242764	5.0.10.0	5_exp_noRW	8	Rpleas_acq	CS_A	ZHHZ	JQQJ	LWWL	DXXD	CPPC	YFFY	vertrauen	küssen	träumen	sonnig	genießen	gütig	versagen	krank	töten	sterben	gemein	gierig	53pct	acq_USpleas_CSpleas1_noRW	acq23456_noRW	2	10	0	0	300	300	410	50	0	1	1	blank2r.bmp	0	1	+	0	1	blank2r.bmp	252	1	ZHHZ	306	2	küssen	559	0	0	0	0	0	0	0	0	0	0	0	0	0	0	0	0	0	0	0	0	0	0	0	0	0	0	0	0	0	0	0	0	0	0	0	0	0	0	0
070319	12:30:13	12:34:18	244337	5.0.10.0	5_exp_noRW	8	Rpleas_acq	CS_A	ZHHZ	JQQJ	LWWL	DXXD	CPPC	YFFY	vertrauen	küssen	träumen	sonnig	genießen	gütig	versagen	krank	töten	sterben	gemein	gierig	53pct	acq_USunple_CSunple1_noRW	acq23456_noRW	2	11	0	0	300	300	395	46	0	1	1	blank2r.bmp	0	1	+	0	1	blank2r.bmp	252	1	LWWL	306	2	krank	559	0	0	0	0	0	0	0	0	0	0	0	0	0	0	0	0	0	0	0	0	0	0	0	0	0	0	0	0	0	0	0	0	0	0	0	0	0	0	0
070319	12:30:13	12:34:19	245883	5.0.10.0	5_exp_noRW	8	Rpleas_acq	CS_A	ZHHZ	JQQJ	LWWL	DXXD	CPPC	YFFY	vertrauen	küssen	träumen	sonnig	genießen	gütig	versagen	krank	töten	sterben	gemein	gierig	47pct	acq_USpleas_CSpleas2_noRW	acq23456_noRW	2	12	0	0	300	300	367	50	0	1	1	blank2r.bmp	0	1	+	0	1	blank2r.bmp	252	1	JQQJ	306	3	gütig	559	0	0	0	0	0	0	0	0	0	0	0	0	0	0	0	0	0	0	0	0	0	0	0	0	0	0	0	0	0	0	0	0	0	0	0	0	0	0	0
070319	12:30:13	12:34:21	247416	5.0.10.0	5_exp_noRW	8	Rpleas_acq	CS_A	ZHHZ	JQQJ	LWWL	DXXD	CPPC	YFFY	vertrauen	küssen	träumen	sonnig	genießen	gütig	versagen	krank	töten	sterben	gemein	gierig	47pct	acq_USpleas_CSunple1_noRW	acq23456_noRW	2	13	0	0	300	300	354	50	0	1	1	blank2r.bmp	0	1	+	0	1	blank2r.bmp	252	1	LWWL	306	3	träumen	559	0	0	0	0	0	0	0	0	0	0	0	0	0	0	0	0	0	0	0	0	0	0	0	0	0	0	0	0	0	0	0	0	0	0	0	0	0	0	0
070319	12:30:13	12:34:23	249055	5.0.10.0	5_exp_noRW	8	Rpleas_acq	CS_A	ZHHZ	JQQJ	LWWL	DXXD	CPPC	YFFY	vertrauen	küssen	träumen	sonnig	genießen	gütig	versagen	krank	töten	sterben	gemein	gierig	53pct	acq_USunple_CSpleas2_noRW	acq23456_noRW	2	14	0	0	300	300	476	46	0	1	1	blank2r.bmp	0	1	+	0	1	blank2r.bmp	252	1	JQQJ	306	2	gemein	559	0	0	0	0	0	0	0	0	0	0	0	0	0	0	0	0	0	0	0	0	0	0	0	0	0	0	0	0	0	0	0	0	0	0	0	0	0	0	0
070319	12:30:13	12:34:24	250801	5.0.10.0	5_exp_noRW	8	Rpleas_acq	CS_A	ZHHZ	JQQJ	LWWL	DXXD	CPPC	YFFY	vertrauen	küssen	träumen	sonnig	genießen	gütig	versagen	krank	töten	sterben	gemein	gierig	47pct	acq_USunple_CSunple2_noRW	acq23456_noRW	2	15	0	0	300	300	351	50	0	0	1	blank2r.bmp	0	1	+	0	1	blank2r.bmp	252	1	DXXD	306	3	gierig	559	1	FEHLER	946	0	0	0	0	0	0	0	0	0	0	0	0	0	0	0	0	0	0	0	0	0	0	0	0	0	0	0	0	0	0	0	0	0	0	0	0
070319	12:30:13	12:34:26	252120	5.0.10.0	5_exp_noRW	8	Rpleas_acq	CS_A	ZHHZ	JQQJ	LWWL	DXXD	CPPC	YFFY	vertrauen	küssen	träumen	sonnig	genießen	gütig	versagen	krank	töten	sterben	gemein	gierig	53pct	acq_USunple_CSunple1_noRW	acq23456_noRW	2	16	0	0	300	300	369	46	0	1	1	blank2r.bmp	0	1	+	0	1	blank2r.bmp	252	1	LWWL	306	3	töten	559	0	0	0	0	0	0	0	0	0	0	0	0	0	0	0	0	0	0	0	0	0	0	0	0	0	0	0	0	0	0	0	0	0	0	0	0	0	0	0
070319	12:30:13	12:34:27	253720	5.0.10.0	5_exp_noRW	8	Rpleas_acq	CS_A	ZHHZ	JQQJ	LWWL	DXXD	CPPC	YFFY	vertrauen	küssen	träumen	sonnig	genießen	gütig	versagen	krank	töten	sterben	gemein	gierig	53pct	acq_USunple_CSunple2_noRW	acq23456_noRW	2	17	0	0	300	300	418	46	0	1	1	blank2r.bmp	0	1	+	0	1	blank2r.bmp	252	1	DXXD	306	3	gierig	559	0	0	0	0	0	0	0	0	0	0	0	0	0	0	0	0	0	0	0	0	0	0	0	0	0	0	0	0	0	0	0	0	0	0	0	0	0	0	0
070319	12:30:13	12:34:29	255399	5.0.10.0	5_exp_noRW	8	Rpleas_acq	CS_A	ZHHZ	JQQJ	LWWL	DXXD	CPPC	YFFY	vertrauen	küssen	träumen	sonnig	genießen	gütig	versagen	krank	töten	sterben	gemein	gierig	53pct	acq_USunple_CSunple2_noRW	acq23456_noRW	2	18	0	0	300	300	508	46	0	1	1	blank2r.bmp	0	1	+	0	1	blank2r.bmp	252	1	DXXD	306	1	sterben	559	0	0	0	0	0	0	0	0	0	0	0	0	0	0	0	0	0	0	0	0	0	0	0	0	0	0	0	0	0	0	0	0	0	0	0	0	0	0	0
070319	12:30:13	12:34:31	256958	5.0.10.0	5_exp_noRW	8	Rpleas_acq	CS_A	ZHHZ	JQQJ	LWWL	DXXD	CPPC	YFFY	vertrauen	küssen	träumen	sonnig	genießen	gütig	versagen	krank	töten	sterben	gemein	gierig	47pct	acq_USpleas_CSpleas1_noRW	acq23456_noRW	2	19	0	0	300	300	372	50	0	1	1	blank2r.bmp	0	1	+	0	1	blank2r.bmp	252	1	ZHHZ	306	1	vertrauen	559	0	0	0	0	0	0	0	0	0	0	0	0	0	0	0	0	0	0	0	0	0	0	0	0	0	0	0	0	0	0	0	0	0	0	0	0	0	0	0
070319	12:30:13	12:34:32	258504	5.0.10.0	5_exp_noRW	8	Rpleas_acq	CS_A	ZHHZ	JQQJ	LWWL	DXXD	CPPC	YFFY	vertrauen	küssen	träumen	sonnig	genießen	gütig	versagen	krank	töten	sterben	gemein	gierig	47pct	acq_USunple_CSpleas1_noRW	acq23456_noRW	2	20	0	0	300	300	373	46	0	1	1	blank2r.bmp	0	1	+	0	1	blank2r.bmp	252	1	ZHHZ	306	1	versagen	559	0	0	0	0	0	0	0	0	0	0	0	0	0	0	0	0	0	0	0	0	0	0	0	0	0	0	0	0	0	0	0	0	0	0	0	0	0	0	0
070319	12:30:13	12:34:34	260197	5.0.10.0	5_exp_noRW	8	Rpleas_acq	CS_A	ZHHZ	JQQJ	LWWL	DXXD	CPPC	YFFY	vertrauen	küssen	träumen	sonnig	genießen	gütig	versagen	krank	töten	sterben	gemein	gierig	53pct	acq_USunple_CSunple1_noRW	acq23456_noRW	2	21	0	0	300	300	513	46	0	1	1	blank2r.bmp	0	1	+	0	1	blank2r.bmp	252	1	LWWL	306	1	versagen	559	0	0	0	0	0	0	0	0	0	0	0	0	0	0	0	0	0	0	0	0	0	0	0	0	0	0	0	0	0	0	0	0	0	0	0	0	0	0	0
070319	12:30:13	12:34:35	261796	5.0.10.0	5_exp_noRW	8	Rpleas_acq	CS_A	ZHHZ	JQQJ	LWWL	DXXD	CPPC	YFFY	vertrauen	küssen	träumen	sonnig	genießen	gütig	versagen	krank	töten	sterben	gemein	gierig	47pct	acq_USpleas_CSpleas1_noRW	acq23456_noRW	2	22	0	0	300	300	422	50	0	1	1	blank2r.bmp	0	1	+	0	1	blank2r.bmp	252	1	ZHHZ	306	3	träumen	559	0	0	0	0	0	0	0	0	0	0	0	0	0	0	0	0	0	0	0	0	0	0	0	0	0	0	0	0	0	0	0	0	0	0	0	0	0	0	0
070319	12:30:13	12:34:37	263369	5.0.10.0	5_exp_noRW	8	Rpleas_acq	CS_A	ZHHZ	JQQJ	LWWL	DXXD	CPPC	YFFY	vertrauen	küssen	träumen	sonnig	genießen	gütig	versagen	krank	töten	sterben	gemein	gierig	53pct	acq_USpleas_CSpleas1_noRW	acq23456_noRW	2	23	0	0	300	300	391	50	0	1	1	blank2r.bmp	0	1	+	0	1	blank2r.bmp	252	1	ZHHZ	306	2	küssen	559	0	0	0	0	0	0	0	0	0	0	0	0	0	0	0	0	0	0	0	0	0	0	0	0	0	0	0	0	0	0	0	0	0	0	0	0	0	0	0
070319	12:30:13	12:34:39	264955	5.0.10.0	5_exp_noRW	8	Rpleas_acq	CS_A	ZHHZ	JQQJ	LWWL	DXXD	CPPC	YFFY	vertrauen	küssen	träumen	sonnig	genießen	gütig	versagen	krank	töten	sterben	gemein	gierig	47pct	acq_USpleas_CSpleas1_noRW	acq23456_noRW	2	24	0	0	300	300	407	50	0	1	1	blank2r.bmp	0	1	+	0	1	blank2r.bmp	252	1	ZHHZ	306	1	vertrauen	559	0	0	0	0	0	0	0	0	0	0	0	0	0	0	0	0	0	0	0	0	0	0	0	0	0	0	0	0	0	0	0	0	0	0	0	0	0	0	0
070319	12:30:13	12:34:40	266435	5.0.10.0	5_exp_noRW	8	Rpleas_acq	CS_A	ZHHZ	JQQJ	LWWL	DXXD	CPPC	YFFY	vertrauen	küssen	träumen	sonnig	genießen	gütig	versagen	krank	töten	sterben	gemein	gierig	47pct	acq_USpleas_CSpleas1_noRW	acq23456_noRW	2	25	0	0	300	300	300	50	0	1	1	blank2r.bmp	0	1	+	0	1	blank2r.bmp	252	1	ZHHZ	306	3	träumen	559	0	0	0	0	0	0	0	0	0	0	0	0	0	0	0	0	0	0	0	0	0	0	0	0	0	0	0	0	0	0	0	0	0	0	0	0	0	0	0
070319	12:30:13	12:34:41	267914	5.0.10.0	5_exp_noRW	8	Rpleas_acq	CS_A	ZHHZ	JQQJ	LWWL	DXXD	CPPC	YFFY	vertrauen	küssen	träumen	sonnig	genießen	gütig	versagen	krank	töten	sterben	gemein	gierig	53pct	acq_USunple_CSpleas2_noRW	acq23456_noRW	2	26	0	0	300	300	312	46	0	1	1	blank2r.bmp	0	1	+	0	1	blank2r.bmp	252	1	JQQJ	306	3	gierig	559	0	0	0	0	0	0	0	0	0	0	0	0	0	0	0	0	0	0	0	0	0	0	0	0	0	0	0	0	0	0	0	0	0	0	0	0	0	0	0
070319	12:30:13	12:34:43	269607	5.0.10.0	5_exp_noRW	8	Rpleas_acq	CS_A	ZHHZ	JQQJ	LWWL	DXXD	CPPC	YFFY	vertrauen	küssen	träumen	sonnig	genießen	gütig	versagen	krank	töten	sterben	gemein	gierig	53pct	acq_USpleas_CSunple2_noRW	acq23456_noRW	2	27	0	0	300	300	314	46	0	0	1	blank2r.bmp	0	1	+	0	1	blank2r.bmp	252	1	DXXD	306	3	gütig	559	1	FEHLER	906	0	0	0	0	0	0	0	0	0	0	0	0	0	0	0	0	0	0	0	0	0	0	0	0	0	0	0	0	0	0	0	0	0	0	0	0
070319	12:30:13	12:34:44	270899	5.0.10.0	5_exp_noRW	8	Rpleas_acq	CS_A	ZHHZ	JQQJ	LWWL	DXXD	CPPC	YFFY	vertrauen	küssen	träumen	sonnig	genießen	gütig	versagen	krank	töten	sterben	gemein	gierig	47pct	acq_USpleas_CSunple1_noRW	acq23456_noRW	2	28	0	0	300	300	331	50	0	1	1	blank2r.bmp	0	1	+	0	1	blank2r.bmp	252	1	LWWL	306	1	vertrauen	559	0	0	0	0	0	0	0	0	0	0	0	0	0	0	0	0	0	0	0	0	0	0	0	0	0	0	0	0	0	0	0	0	0	0	0	0	0	0	0
070319	12:30:13	12:34:46	272632	5.0.10.0	5_exp_noRW	8	Rpleas_acq	CS_A	ZHHZ	JQQJ	LWWL	DXXD	CPPC	YFFY	vertrauen	küssen	träumen	sonnig	genießen	gütig	versagen	krank	töten	sterben	gemein	gierig	53pct	acq_USunple_CSunple2_noRW	acq23456_noRW	2	29	0	0	300	300	555	46	0	1	1	blank2r.bmp	0	1	+	0	1	blank2r.bmp	252	1	DXXD	306	2	gemein	559	0	0	0	0	0	0	0	0	0	0	0	0	0	0	0	0	0	0	0	0	0	0	0	0	0	0	0	0	0	0	0	0	0	0	0	0	0	0	0
070319	12:30:13	12:34:48	274431	5.0.10.0	5_exp_noRW	8	Rpleas_acq	CS_A	ZHHZ	JQQJ	LWWL	DXXD	CPPC	YFFY	vertrauen	küssen	träumen	sonnig	genießen	gütig	versagen	krank	töten	sterben	gemein	gierig	53pct	acq_USunple_CSunple1_noRW	acq23456_noRW	2	30	0	0	300	300	408	50	0	0	1	blank2r.bmp	0	1	+	0	1	blank2r.bmp	252	1	LWWL	306	3	töten	559	1	FEHLER	999	0	0	0	0	0	0	0	0	0	0	0	0	0	0	0	0	0	0	0	0	0	0	0	0	0	0	0	0	0	0	0	0	0	0	0	0
070319	12:30:13	12:34:49	275791	5.0.10.0	5_exp_noRW	8	Rpleas_acq	CS_A	ZHHZ	JQQJ	LWWL	DXXD	CPPC	YFFY	vertrauen	küssen	träumen	sonnig	genießen	gütig	versagen	krank	töten	sterben	gemein	gierig	47pct	acq_USpleas_CSpleas2_noRW	acq23456_noRW	2	31	0	0	300	300	405	50	0	1	1	blank2r.bmp	0	1	+	0	1	blank2r.bmp	252	1	JQQJ	306	1	sonnig	559	0	0	0	0	0	0	0	0	0	0	0	0	0	0	0	0	0	0	0	0	0	0	0	0	0	0	0	0	0	0	0	0	0	0	0	0	0	0	0
070319	12:30:13	12:34:51	277417	5.0.10.0	5_exp_noRW	8	Rpleas_acq	CS_A	ZHHZ	JQQJ	LWWL	DXXD	CPPC	YFFY	vertrauen	küssen	träumen	sonnig	genießen	gütig	versagen	krank	töten	sterben	gemein	gierig	53pct	acq_USunple_CSunple2_noRW	acq23456_noRW	2	32	0	0	300	300	463	46	0	1	1	blank2r.bmp	0	1	+	0	1	blank2r.bmp	252	1	DXXD	306	1	sterben	559	0	0	0	0	0	0	0	0	0	0	0	0	0	0	0	0	0	0	0	0	0	0	0	0	0	0	0	0	0	0	0	0	0	0	0	0	0	0	0
070319	12:30:13	12:34:53	279016	5.0.10.0	5_exp_noRW	8	Rpleas_acq	CS_A	ZHHZ	JQQJ	LWWL	DXXD	CPPC	YFFY	vertrauen	küssen	träumen	sonnig	genießen	gütig	versagen	krank	töten	sterben	gemein	gierig	53pct	acq_USunple_CSunple1_noRW	acq23456_noRW	2	33	0	0	300	300	412	46	0	1	1	blank2r.bmp	0	1	+	0	1	blank2r.bmp	252	1	LWWL	306	1	versagen	559	0	0	0	0	0	0	0	0	0	0	0	0	0	0	0	0	0	0	0	0	0	0	0	0	0	0	0	0	0	0	0	0	0	0	0	0	0	0	0
070319	12:30:13	12:34:55	281015	5.0.10.0	5_exp_noRW	8	Rpleas_acq	CS_A	ZHHZ	JQQJ	LWWL	DXXD	CPPC	YFFY	vertrauen	küssen	träumen	sonnig	genießen	gütig	versagen	krank	töten	sterben	gemein	gierig	53pct	acq_USunple_CSunple2_noRW	acq23456_noRW	2	34	0	0	300	300	833	46	0	1	1	blank2r.bmp	0	1	+	0	1	blank2r.bmp	252	1	DXXD	306	3	gierig	559	0	0	0	0	0	0	0	0	0	0	0	0	0	0	0	0	0	0	0	0	0	0	0	0	0	0	0	0	0	0	0	0	0	0	0	0	0	0	0
070319	12:30:13	12:34:56	282588	5.0.10.0	5_exp_noRW	8	Rpleas_acq	CS_A	ZHHZ	JQQJ	LWWL	DXXD	CPPC	YFFY	vertrauen	küssen	träumen	sonnig	genießen	gütig	versagen	krank	töten	sterben	gemein	gierig	47pct	acq_USunple_CSunple1_noRW	acq23456_noRW	2	35	0	0	300	300	398	46	0	1	1	blank2r.bmp	0	1	+	0	1	blank2r.bmp	252	1	LWWL	306	2	krank	559	0	0	0	0	0	0	0	0	0	0	0	0	0	0	0	0	0	0	0	0	0	0	0	0	0	0	0	0	0	0	0	0	0	0	0	0	0	0	0
070319	12:30:13	12:34:58	284160	5.0.10.0	5_exp_noRW	8	Rpleas_acq	CS_A	ZHHZ	JQQJ	LWWL	DXXD	CPPC	YFFY	vertrauen	küssen	träumen	sonnig	genießen	gütig	versagen	krank	töten	sterben	gemein	gierig	47pct	acq_USpleas_CSpleas2_noRW	acq23456_noRW	2	36	0	0	300	300	391	50	0	1	1	blank2r.bmp	0	1	+	0	1	blank2r.bmp	252	1	JQQJ	306	2	genießen	559	0	0	0	0	0	0	0	0	0	0	0	0	0	0	0	0	0	0	0	0	0	0	0	0	0	0	0	0	0	0	0	0	0	0	0	0	0	0	0
070319	12:30:13	12:34:59	285786	5.0.10.0	5_exp_noRW	8	Rpleas_acq	CS_A	ZHHZ	JQQJ	LWWL	DXXD	CPPC	YFFY	vertrauen	küssen	träumen	sonnig	genießen	gütig	versagen	krank	töten	sterben	gemein	gierig	53pct	acq_USunple_CSpleas1_noRW	acq23456_noRW	2	37	0	0	300	300	450	46	0	1	1	blank2r.bmp	0	1	+	0	1	blank2r.bmp	252	1	ZHHZ	306	3	töten	559	0	0	0	0	0	0	0	0	0	0	0	0	0	0	0	0	0	0	0	0	0	0	0	0	0	0	0	0	0	0	0	0	0	0	0	0	0	0	0
070319	12:30:13	12:35:01	287319	5.0.10.0	5_exp_noRW	8	Rpleas_acq	CS_A	ZHHZ	JQQJ	LWWL	DXXD	CPPC	YFFY	vertrauen	küssen	träumen	sonnig	genießen	gütig	versagen	krank	töten	sterben	gemein	gierig	53pct	acq_USunple_CSunple2_noRW	acq23456_noRW	2	38	0	0	300	300	357	46	0	1	1	blank2r.bmp	0	1	+	0	1	blank2r.bmp	252	1	DXXD	306	2	gemein	559	0	0	0	0	0	0	0	0	0	0	0	0	0	0	0	0	0	0	0	0	0	0	0	0	0	0	0	0	0	0	0	0	0	0	0	0	0	0	0
070319	12:30:13	12:35:03	289092	5.0.10.0	5_exp_noRW	8	Rpleas_acq	CS_A	ZHHZ	JQQJ	LWWL	DXXD	CPPC	YFFY	vertrauen	küssen	träumen	sonnig	genießen	gütig	versagen	krank	töten	sterben	gemein	gierig	53pct	acq_USpleas_CSpleas2_noRW	acq23456_noRW	2	39	0	0	300	300	390	46	0	0	1	blank2r.bmp	0	1	+	0	1	blank2r.bmp	252	1	JQQJ	306	3	gütig	559	1	FEHLER	986	0	0	0	0	0	0	0	0	0	0	0	0	0	0	0	0	0	0	0	0	0	0	0	0	0	0	0	0	0	0	0	0	0	0	0	0
070319	12:30:13	12:35:04	290464	5.0.10.0	5_exp_noRW	8	Rpleas_acq	CS_A	ZHHZ	JQQJ	LWWL	DXXD	CPPC	YFFY	vertrauen	küssen	träumen	sonnig	genießen	gütig	versagen	krank	töten	sterben	gemein	gierig	47pct	acq_USpleas_CSpleas2_noRW	acq23456_noRW	2	40	0	0	300	300	406	50	0	1	1	blank2r.bmp	0	1	+	0	1	blank2r.bmp	252	1	JQQJ	306	1	sonnig	559	0	0	0	0	0	0	0	0	0	0	0	0	0	0	0	0	0	0	0	0	0	0	0	0	0	0	0	0	0	0	0	0	0	0	0	0	0	0	0
070319	12:30:13	12:35:06	292117	5.0.10.0	5_exp_noRW	8	Rpleas_acq	CS_A	ZHHZ	JQQJ	LWWL	DXXD	CPPC	YFFY	vertrauen	küssen	träumen	sonnig	genießen	gütig	versagen	krank	töten	sterben	gemein	gierig	53pct	acq_USunple_CSunple2_noRW	acq23456_noRW	2	41	0	0	300	300	471	46	0	1	1	blank2r.bmp	0	1	+	0	1	blank2r.bmp	252	1	DXXD	306	1	sterben	559	0	0	0	0	0	0	0	0	0	0	0	0	0	0	0	0	0	0	0	0	0	0	0	0	0	0	0	0	0	0	0	0	0	0	0	0	0	0	0
070319	12:30:13	12:35:07	293676	5.0.10.0	5_exp_noRW	8	Rpleas_acq	CS_A	ZHHZ	JQQJ	LWWL	DXXD	CPPC	YFFY	vertrauen	küssen	träumen	sonnig	genießen	gütig	versagen	krank	töten	sterben	gemein	gierig	47pct	acq_USpleas_CSunple1_noRW	acq23456_noRW	2	42	0	0	300	300	377	50	0	1	1	blank2r.bmp	0	1	+	0	1	blank2r.bmp	252	1	LWWL	306	2	küssen	559	0	0	0	0	0	0	0	0	0	0	0	0	0	0	0	0	0	0	0	0	0	0	0	0	0	0	0	0	0	0	0	0	0	0	0	0	0	0	0
070319	12:30:13	12:35:09	295289	5.0.10.0	5_exp_noRW	8	Rpleas_acq	CS_A	ZHHZ	JQQJ	LWWL	DXXD	CPPC	YFFY	vertrauen	küssen	träumen	sonnig	genießen	gütig	versagen	krank	töten	sterben	gemein	gierig	53pct	acq_USpleas_CSpleas2_noRW	acq23456_noRW	2	43	0	0	300	300	451	50	0	1	1	blank2r.bmp	0	1	+	0	1	blank2r.bmp	252	1	JQQJ	306	2	genießen	559	0	0	0	0	0	0	0	0	0	0	0	0	0	0	0	0	0	0	0	0	0	0	0	0	0	0	0	0	0	0	0	0	0	0	0	0	0	0	0
070319	12:30:13	12:35:11	297222	5.0.10.0	5_exp_noRW	8	Rpleas_acq	CS_A	ZHHZ	JQQJ	LWWL	DXXD	CPPC	YFFY	vertrauen	küssen	träumen	sonnig	genießen	gütig	versagen	krank	töten	sterben	gemein	gierig	53pct	acq_USunple_CSpleas2_noRW	acq23456_noRW	2	44	0	0	300	300	750	46	0	1	1	blank2r.bmp	0	1	+	0	1	blank2r.bmp	252	1	JQQJ	306	1	sterben	559	0	0	0	0	0	0	0	0	0	0	0	0	0	0	0	0	0	0	0	0	0	0	0	0	0	0	0	0	0	0	0	0	0	0	0	0	0	0	0
070319	12:30:13	12:35:12	298781	5.0.10.0	5_exp_noRW	8	Rpleas_acq	CS_A	ZHHZ	JQQJ	LWWL	DXXD	CPPC	YFFY	vertrauen	küssen	träumen	sonnig	genießen	gütig	versagen	krank	töten	sterben	gemein	gierig	53pct	acq_USunple_CSunple1_noRW	acq23456_noRW	2	45	0	0	300	300	382	46	0	1	1	blank2r.bmp	0	1	+	0	1	blank2r.bmp	252	1	LWWL	306	1	versagen	559	0	0	0	0	0	0	0	0	0	0	0	0	0	0	0	0	0	0	0	0	0	0	0	0	0	0	0	0	0	0	0	0	0	0	0	0	0	0	0
070319	12:30:13	12:35:14	300340	5.0.10.0	5_exp_noRW	8	Rpleas_acq	CS_A	ZHHZ	JQQJ	LWWL	DXXD	CPPC	YFFY	vertrauen	küssen	träumen	sonnig	genießen	gütig	versagen	krank	töten	sterben	gemein	gierig	47pct	acq_USpleas_CSpleas2_noRW	acq23456_noRW	2	46	0	0	300	300	384	50	0	1	1	blank2r.bmp	0	1	+	0	1	blank2r.bmp	252	1	JQQJ	306	3	gütig	559	0	0	0	0	0	0	0	0	0	0	0	0	0	0	0	0	0	0	0	0	0	0	0	0	0	0	0	0	0	0	0	0	0	0	0	0	0	0	0
070319	12:30:13	12:35:15	301833	5.0.10.0	5_exp_noRW	8	Rpleas_acq	CS_A	ZHHZ	JQQJ	LWWL	DXXD	CPPC	YFFY	vertrauen	küssen	träumen	sonnig	genießen	gütig	versagen	krank	töten	sterben	gemein	gierig	47pct	acq_USpleas_CSpleas1_noRW	acq23456_noRW	2	47	0	0	300	300	308	50	0	1	1	blank2r.bmp	0	1	+	0	1	blank2r.bmp	252	1	ZHHZ	306	1	vertrauen	559	0	0	0	0	0	0	0	0	0	0	0	0	0	0	0	0	0	0	0	0	0	0	0	0	0	0	0	0	0	0	0	0	0	0	0	0	0	0	0
070319	12:30:13	12:35:17	303366	5.0.10.0	5_exp_noRW	8	Rpleas_acq	CS_A	ZHHZ	JQQJ	LWWL	DXXD	CPPC	YFFY	vertrauen	küssen	träumen	sonnig	genießen	gütig	versagen	krank	töten	sterben	gemein	gierig	53pct	acq_USunple_CSunple1_noRW	acq23456_noRW	2	48	0	0	300	300	366	46	0	1	1	blank2r.bmp	0	1	+	0	1	blank2r.bmp	252	1	LWWL	306	2	krank	559	0	0	0	0	0	0	0	0	0	0	0	0	0	0	0	0	0	0	0	0	0	0	0	0	0	0	0	0	0	0	0	0	0	0	0	0	0	0	0
070319	12:30:13	12:35:18	304898	5.0.10.0	5_exp_noRW	8	Rpleas_acq	CS_A	ZHHZ	JQQJ	LWWL	DXXD	CPPC	YFFY	vertrauen	küssen	träumen	sonnig	genießen	gütig	versagen	krank	töten	sterben	gemein	gierig	53pct	acq_USunple_CSunple1_noRW	acq23456_noRW	2	49	0	0	300	300	347	46	0	1	1	blank2r.bmp	0	1	+	0	1	blank2r.bmp	252	1	LWWL	306	3	töten	559	0	0	0	0	0	0	0	0	0	0	0	0	0	0	0	0	0	0	0	0	0	0	0	0	0	0	0	0	0	0	0	0	0	0	0	0	0	0	0
070319	12:30:13	12:35:20	306471	5.0.10.0	5_exp_noRW	8	Rpleas_acq	CS_A	ZHHZ	JQQJ	LWWL	DXXD	CPPC	YFFY	vertrauen	küssen	träumen	sonnig	genießen	gütig	versagen	krank	töten	sterben	gemein	gierig	53pct	acq_USunple_CSunple2_noRW	acq23456_noRW	2	50	0	0	300	300	396	46	0	1	1	blank2r.bmp	0	1	+	0	1	blank2r.bmp	252	1	DXXD	306	3	gierig	559	0	0	0	0	0	0	0	0	0	0	0	0	0	0	0	0	0	0	0	0	0	0	0	0	0	0	0	0	0	0	0	0	0	0	0	0	0	0	0
070319	12:30:13	12:35:22	308030	5.0.10.0	5_exp_noRW	8	Rpleas_acq	CS_A	ZHHZ	JQQJ	LWWL	DXXD	CPPC	YFFY	vertrauen	küssen	träumen	sonnig	genießen	gütig	versagen	krank	töten	sterben	gemein	gierig	47pct	acq_USpleas_CSpleas1_noRW	acq23456_noRW	2	51	0	0	300	300	373	50	0	1	1	blank2r.bmp	0	1	+	0	1	blank2r.bmp	252	1	ZHHZ	306	3	träumen	559	0	0	0	0	0	0	0	0	0	0	0	0	0	0	0	0	0	0	0	0	0	0	0	0	0	0	0	0	0	0	0	0	0	0	0	0	0	0	0
070319	12:30:13	12:35:23	309590	5.0.10.0	5_exp_noRW	8	Rpleas_acq	CS_A	ZHHZ	JQQJ	LWWL	DXXD	CPPC	YFFY	vertrauen	küssen	träumen	sonnig	genießen	gütig	versagen	krank	töten	sterben	gemein	gierig	47pct	acq_USpleas_CSpleas2_noRW	acq23456_noRW	2	52	0	0	300	300	390	50	0	1	1	blank2r.bmp	0	1	+	0	1	blank2r.bmp	252	1	JQQJ	306	1	sonnig	559	0	0	0	0	0	0	0	0	0	0	0	0	0	0	0	0	0	0	0	0	0	0	0	0	0	0	0	0	0	0	0	0	0	0	0	0	0	0	0
070319	12:30:13	12:35:25	311136	5.0.10.0	5_exp_noRW	8	Rpleas_acq	CS_A	ZHHZ	JQQJ	LWWL	DXXD	CPPC	YFFY	vertrauen	küssen	träumen	sonnig	genießen	gütig	versagen	krank	töten	sterben	gemein	gierig	53pct	acq_USunple_CSpleas1_noRW	acq23456_noRW	2	53	0	0	300	300	358	46	0	1	1	blank2r.bmp	0	1	+	0	1	blank2r.bmp	252	1	ZHHZ	306	3	töten	559	0	0	0	0	0	0	0	0	0	0	0	0	0	0	0	0	0	0	0	0	0	0	0	0	0	0	0	0	0	0	0	0	0	0	0	0	0	0	0
070319	12:30:13	12:35:26	312642	5.0.10.0	5_exp_noRW	8	Rpleas_acq	CS_A	ZHHZ	JQQJ	LWWL	DXXD	CPPC	YFFY	vertrauen	küssen	träumen	sonnig	genießen	gütig	versagen	krank	töten	sterben	gemein	gierig	53pct	acq_USunple_CSunple1_noRW	acq23456_noRW	2	54	0	0	300	300	335	46	0	1	1	blank2r.bmp	0	1	+	0	1	blank2r.bmp	252	1	LWWL	306	1	versagen	559	0	0	0	0	0	0	0	0	0	0	0	0	0	0	0	0	0	0	0	0	0	0	0	0	0	0	0	0	0	0	0	0	0	0	0	0	0	0	0
070319	12:30:13	12:35:28	314201	5.0.10.0	5_exp_noRW	8	Rpleas_acq	CS_A	ZHHZ	JQQJ	LWWL	DXXD	CPPC	YFFY	vertrauen	küssen	träumen	sonnig	genießen	gütig	versagen	krank	töten	sterben	gemein	gierig	53pct	acq_USunple_CSunple2_noRW	acq23456_noRW	2	55	0	0	300	300	394	46	0	1	1	blank2r.bmp	0	1	+	0	1	blank2r.bmp	252	1	DXXD	306	2	gemein	559	0	0	0	0	0	0	0	0	0	0	0	0	0	0	0	0	0	0	0	0	0	0	0	0	0	0	0	0	0	0	0	0	0	0	0	0	0	0	0
070319	12:30:13	12:35:30	315987	5.0.10.0	5_exp_noRW	8	Rpleas_acq	CS_A	ZHHZ	JQQJ	LWWL	DXXD	CPPC	YFFY	vertrauen	küssen	träumen	sonnig	genießen	gütig	versagen	krank	töten	sterben	gemein	gierig	47pct	acq_USpleas_CSpleas1_noRW	acq23456_noRW	2	56	0	0	300	300	401	46	0	0	1	blank2r.bmp	0	1	+	0	1	blank2r.bmp	252	1	ZHHZ	306	2	küssen	559	1	FEHLER	999	0	0	0	0	0	0	0	0	0	0	0	0	0	0	0	0	0	0	0	0	0	0	0	0	0	0	0	0	0	0	0	0	0	0	0	0
070319	12:30:13	12:35:31	317320	5.0.10.0	5_exp_noRW	8	Rpleas_acq	CS_A	ZHHZ	JQQJ	LWWL	DXXD	CPPC	YFFY	vertrauen	küssen	träumen	sonnig	genießen	gütig	versagen	krank	töten	sterben	gemein	gierig	53pct	acq_USunple_CSunple2_noRW	acq23456_noRW	2	57	0	0	300	300	379	46	0	1	1	blank2r.bmp	0	1	+	0	1	blank2r.bmp	252	1	DXXD	306	2	gemein	559	0	0	0	0	0	0	0	0	0	0	0	0	0	0	0	0	0	0	0	0	0	0	0	0	0	0	0	0	0	0	0	0	0	0	0	0	0	0	0
070319	12:30:13	12:35:32	318826	5.0.10.0	5_exp_noRW	8	Rpleas_acq	CS_A	ZHHZ	JQQJ	LWWL	DXXD	CPPC	YFFY	vertrauen	küssen	träumen	sonnig	genießen	gütig	versagen	krank	töten	sterben	gemein	gierig	53pct	acq_USpleas_CSpleas1_noRW	acq23456_noRW	2	58	0	0	300	300	334	50	0	1	1	blank2r.bmp	0	1	+	0	1	blank2r.bmp	252	1	ZHHZ	306	2	küssen	559	0	0	0	0	0	0	0	0	0	0	0	0	0	0	0	0	0	0	0	0	0	0	0	0	0	0	0	0	0	0	0	0	0	0	0	0	0	0	0
070319	12:30:13	12:35:34	320319	5.0.10.0	5_exp_noRW	8	Rpleas_acq	CS_A	ZHHZ	JQQJ	LWWL	DXXD	CPPC	YFFY	vertrauen	küssen	träumen	sonnig	genießen	gütig	versagen	krank	töten	sterben	gemein	gierig	47pct	acq_USpleas_CSunple2_noRW	acq23456_noRW	2	59	0	0	300	300	329	50	0	1	1	blank2r.bmp	0	1	+	0	1	blank2r.bmp	252	1	DXXD	306	1	sonnig	559	0	0	0	0	0	0	0	0	0	0	0	0	0	0	0	0	0	0	0	0	0	0	0	0	0	0	0	0	0	0	0	0	0	0	0	0	0	0	0
070319	12:30:13	12:35:35	321891	5.0.10.0	5_exp_noRW	8	Rpleas_acq	CS_A	ZHHZ	JQQJ	LWWL	DXXD	CPPC	YFFY	vertrauen	küssen	träumen	sonnig	genießen	gütig	versagen	krank	töten	sterben	gemein	gierig	47pct	acq_USpleas_CSpleas2_noRW	acq23456_noRW	2	60	0	0	300	300	385	50	0	1	1	blank2r.bmp	0	1	+	0	1	blank2r.bmp	252	1	JQQJ	306	3	gütig	559	0	0	0	0	0	0	0	0	0	0	0	0	0	0	0	0	0	0	0	0	0	0	0	0	0	0	0	0	0	0	0	0	0	0	0	0	0	0	0
070319	12:30:13	12:35:37	323424	5.0.10.0	5_exp_noRW	8	Rpleas_acq	CS_A	ZHHZ	JQQJ	LWWL	DXXD	CPPC	YFFY	vertrauen	küssen	träumen	sonnig	genießen	gütig	versagen	krank	töten	sterben	gemein	gierig	53pct	acq_USpleas_CSpleas1_noRW	acq23456_noRW	2	61	0	0	300	300	360	50	0	1	1	blank2r.bmp	0	1	+	0	1	blank2r.bmp	252	1	ZHHZ	306	3	träumen	559	0	0	0	0	0	0	0	0	0	0	0	0	0	0	0	0	0	0	0	0	0	0	0	0	0	0	0	0	0	0	0	0	0	0	0	0	0	0	0
070319	12:30:13	12:35:39	325117	5.0.10.0	5_exp_noRW	8	Rpleas_acq	CS_A	ZHHZ	JQQJ	LWWL	DXXD	CPPC	YFFY	vertrauen	küssen	träumen	sonnig	genießen	gütig	versagen	krank	töten	sterben	gemein	gierig	47pct	acq_USunple_CSunple2_noRW	acq23456_noRW	2	62	0	0	300	300	527	46	0	1	1	blank2r.bmp	0	1	+	0	1	blank2r.bmp	252	1	DXXD	306	1	sterben	559	0	0	0	0	0	0	0	0	0	0	0	0	0	0	0	0	0	0	0	0	0	0	0	0	0	0	0	0	0	0	0	0	0	0	0	0	0	0	0
070319	12:30:13	12:35:40	326729	5.0.10.0	5_exp_noRW	8	Rpleas_acq	CS_A	ZHHZ	JQQJ	LWWL	DXXD	CPPC	YFFY	vertrauen	küssen	träumen	sonnig	genießen	gütig	versagen	krank	töten	sterben	gemein	gierig	53pct	acq_USpleas_CSunple2_noRW	acq23456_noRW	2	63	0	0	300	300	427	50	0	1	1	blank2r.bmp	0	1	+	0	1	blank2r.bmp	252	1	DXXD	306	2	genießen	559	0	0	0	0	0	0	0	0	0	0	0	0	0	0	0	0	0	0	0	0	0	0	0	0	0	0	0	0	0	0	0	0	0	0	0	0	0	0	0
070319	12:30:13	12:35:42	328342	5.0.10.0	5_exp_noRW	8	Rpleas_acq	CS_A	ZHHZ	JQQJ	LWWL	DXXD	CPPC	YFFY	vertrauen	küssen	träumen	sonnig	genießen	gütig	versagen	krank	töten	sterben	gemein	gierig	53pct	acq_USunple_CSpleas2_noRW	acq23456_noRW	2	64	0	0	300	300	440	46	0	1	1	blank2r.bmp	0	1	+	0	1	blank2r.bmp	252	1	JQQJ	306	2	gemein	559	0	0	0	0	0	0	0	0	0	0	0	0	0	0	0	0	0	0	0	0	0	0	0	0	0	0	0	0	0	0	0	0	0	0	0	0	0	0	0
070319	12:30:13	12:35:44	330008	5.0.10.0	5_exp_noRW	8	Rpleas_acq	CS_A	ZHHZ	JQQJ	LWWL	DXXD	CPPC	YFFY	vertrauen	küssen	träumen	sonnig	genießen	gütig	versagen	krank	töten	sterben	gemein	gierig	53pct	acq_USunple_CSunple1_noRW	acq23456_noRW	2	65	0	0	300	300	492	46	0	1	1	blank2r.bmp	0	1	+	0	1	blank2r.bmp	252	1	LWWL	306	3	töten	559	0	0	0	0	0	0	0	0	0	0	0	0	0	0	0	0	0	0	0	0	0	0	0	0	0	0	0	0	0	0	0	0	0	0	0	0	0	0	0
070319	12:30:13	12:35:45	331621	5.0.10.0	5_exp_noRW	8	Rpleas_acq	CS_A	ZHHZ	JQQJ	LWWL	DXXD	CPPC	YFFY	vertrauen	küssen	träumen	sonnig	genießen	gütig	versagen	krank	töten	sterben	gemein	gierig	53pct	acq_USpleas_CSpleas2_noRW	acq23456_noRW	2	66	0	0	300	300	449	50	0	1	1	blank2r.bmp	0	1	+	0	1	blank2r.bmp	252	1	JQQJ	306	2	genießen	559	0	0	0	0	0	0	0	0	0	0	0	0	0	0	0	0	0	0	0	0	0	0	0	0	0	0	0	0	0	0	0	0	0	0	0	0	0	0	0
070319	12:30:13	12:35:47	333287	5.0.10.0	5_exp_noRW	8	Rpleas_acq	CS_A	ZHHZ	JQQJ	LWWL	DXXD	CPPC	YFFY	vertrauen	küssen	träumen	sonnig	genießen	gütig	versagen	krank	töten	sterben	gemein	gierig	53pct	acq_USunple_CSunple2_noRW	acq23456_noRW	2	67	0	0	300	300	484	46	0	1	1	blank2r.bmp	0	1	+	0	1	blank2r.bmp	252	1	DXXD	306	3	gierig	559	0	0	0	0	0	0	0	0	0	0	0	0	0	0	0	0	0	0	0	0	0	0	0	0	0	0	0	0	0	0	0	0	0	0	0	0	0	0	0
070319	12:30:13	12:35:48	334819	5.0.10.0	5_exp_noRW	8	Rpleas_acq	CS_A	ZHHZ	JQQJ	LWWL	DXXD	CPPC	YFFY	vertrauen	küssen	träumen	sonnig	genießen	gütig	versagen	krank	töten	sterben	gemein	gierig	47pct	acq_USunple_CSunple2_noRW	acq23456_noRW	2	68	0	0	300	300	350	46	0	1	1	blank2r.bmp	0	1	+	0	1	blank2r.bmp	252	1	DXXD	306	3	gierig	559	0	0	0	0	0	0	0	0	0	0	0	0	0	0	0	0	0	0	0	0	0	0	0	0	0	0	0	0	0	0	0	0	0	0	0	0	0	0	0
070319	12:30:13	12:35:50	336485	5.0.10.0	5_exp_noRW	8	Rpleas_acq	CS_A	ZHHZ	JQQJ	LWWL	DXXD	CPPC	YFFY	vertrauen	küssen	träumen	sonnig	genießen	gütig	versagen	krank	töten	sterben	gemein	gierig	53pct	acq_USunple_CSunple1_noRW	acq23456_noRW	2	69	0	0	300	300	482	46	0	1	1	blank2r.bmp	0	1	+	0	1	blank2r.bmp	252	1	LWWL	306	2	krank	559	0	0	0	0	0	0	0	0	0	0	0	0	0	0	0	0	0	0	0	0	0	0	0	0	0	0	0	0	0	0	0	0	0	0	0	0	0	0	0
070319	12:30:13	12:35:52	338045	5.0.10.0	5_exp_noRW	8	Rpleas_acq	CS_A	ZHHZ	JQQJ	LWWL	DXXD	CPPC	YFFY	vertrauen	küssen	träumen	sonnig	genießen	gütig	versagen	krank	töten	sterben	gemein	gierig	53pct	acq_USpleas_CSpleas1_noRW	acq23456_noRW	2	70	0	0	300	300	373	50	0	1	1	blank2r.bmp	0	1	+	0	1	blank2r.bmp	252	1	ZHHZ	306	1	vertrauen	559	0	0	0	0	0	0	0	0	0	0	0	0	0	0	0	0	0	0	0	0	0	0	0	0	0	0	0	0	0	0	0	0	0	0	0	0	0	0	0
070319	12:30:13	12:35:53	339644	5.0.10.0	5_exp_noRW	8	Rpleas_acq	CS_A	ZHHZ	JQQJ	LWWL	DXXD	CPPC	YFFY	vertrauen	küssen	träumen	sonnig	genießen	gütig	versagen	krank	töten	sterben	gemein	gierig	53pct	acq_USunple_CSunple1_noRW	acq23456_noRW	2	71	0	0	300	300	436	46	0	1	1	blank2r.bmp	0	1	+	0	1	blank2r.bmp	252	1	LWWL	306	2	krank	559	0	0	0	0	0	0	0	0	0	0	0	0	0	0	0	0	0	0	0	0	0	0	0	0	0	0	0	0	0	0	0	0	0	0	0	0	0	0	0
070319	12:30:13	12:35:55	341257	5.0.10.0	5_exp_noRW	8	Rpleas_acq	CS_A	ZHHZ	JQQJ	LWWL	DXXD	CPPC	YFFY	vertrauen	küssen	träumen	sonnig	genießen	gütig	versagen	krank	töten	sterben	gemein	gierig	53pct	acq_USpleas_CSpleas1_noRW	acq23456_noRW	2	72	0	0	300	300	438	50	0	1	1	blank2r.bmp	0	1	+	0	1	blank2r.bmp	252	1	ZHHZ	306	3	träumen	559	0	0	0	0	0	0	0	0	0	0	0	0	0	0	0	0	0	0	0	0	0	0	0	0	0	0	0	0	0	0	0	0	0	0	0	0	0	0	0
070319	12:30:13	12:35:56	342816	5.0.10.0	5_exp_noRW	8	Rpleas_acq	CS_A	ZHHZ	JQQJ	LWWL	DXXD	CPPC	YFFY	vertrauen	küssen	träumen	sonnig	genießen	gütig	versagen	krank	töten	sterben	gemein	gierig	47pct	acq_USpleas_CSpleas2_noRW	acq23456_noRW	2	73	0	0	300	300	379	50	0	1	1	blank2r.bmp	0	1	+	0	1	blank2r.bmp	252	1	JQQJ	306	1	sonnig	559	0	0	0	0	0	0	0	0	0	0	0	0	0	0	0	0	0	0	0	0	0	0	0	0	0	0	0	0	0	0	0	0	0	0	0	0	0	0	0
070319	12:30:13	12:35:58	344389	5.0.10.0	5_exp_noRW	8	Rpleas_acq	CS_A	ZHHZ	JQQJ	LWWL	DXXD	CPPC	YFFY	vertrauen	küssen	träumen	sonnig	genießen	gütig	versagen	krank	töten	sterben	gemein	gierig	53pct	acq_USunple_CSunple2_noRW	acq23456_noRW	2	74	0	0	300	300	386	46	0	1	1	blank2r.bmp	0	1	+	0	1	blank2r.bmp	252	1	DXXD	306	2	gemein	559	0	0	0	0	0	0	0	0	0	0	0	0	0	0	0	0	0	0	0	0	0	0	0	0	0	0	0	0	0	0	0	0	0	0	0	0	0	0	0
070319	12:30:13	12:36:00	345975	5.0.10.0	5_exp_noRW	8	Rpleas_acq	CS_A	ZHHZ	JQQJ	LWWL	DXXD	CPPC	YFFY	vertrauen	küssen	träumen	sonnig	genießen	gütig	versagen	krank	töten	sterben	gemein	gierig	53pct	acq_USunple_CSunple1_noRW	acq23456_noRW	2	75	0	0	300	300	413	46	0	1	1	blank2r.bmp	0	1	+	0	1	blank2r.bmp	252	1	LWWL	306	1	versagen	559	0	0	0	0	0	0	0	0	0	0	0	0	0	0	0	0	0	0	0	0	0	0	0	0	0	0	0	0	0	0	0	0	0	0	0	0	0	0	0
070319	12:30:13	12:36:01	347587	5.0.10.0	5_exp_noRW	8	Rpleas_acq	CS_A	ZHHZ	JQQJ	LWWL	DXXD	CPPC	YFFY	vertrauen	küssen	träumen	sonnig	genießen	gütig	versagen	krank	töten	sterben	gemein	gierig	53pct	acq_USpleas_CSunple1_noRW	acq23456_noRW	2	76	0	0	300	300	446	50	0	1	1	blank2r.bmp	0	1	+	0	1	blank2r.bmp	252	1	LWWL	306	3	träumen	559	0	0	0	0	0	0	0	0	0	0	0	0	0	0	0	0	0	0	0	0	0	0	0	0	0	0	0	0	0	0	0	0	0	0	0	0	0	0	0
070319	12:30:13	12:36:03	349187	5.0.10.0	5_exp_noRW	8	Rpleas_acq	CS_A	ZHHZ	JQQJ	LWWL	DXXD	CPPC	YFFY	vertrauen	küssen	träumen	sonnig	genießen	gütig	versagen	krank	töten	sterben	gemein	gierig	53pct	acq_USpleas_CSpleas2_noRW	acq23456_noRW	2	77	0	0	300	300	422	50	0	1	1	blank2r.bmp	0	1	+	0	1	blank2r.bmp	252	1	JQQJ	306	3	gütig	559	0	0	0	0	0	0	0	0	0	0	0	0	0	0	0	0	0	0	0	0	0	0	0	0	0	0	0	0	0	0	0	0	0	0	0	0	0	0	0
070319	12:30:13	12:36:04	350786	5.0.10.0	5_exp_noRW	8	Rpleas_acq	CS_A	ZHHZ	JQQJ	LWWL	DXXD	CPPC	YFFY	vertrauen	küssen	träumen	sonnig	genießen	gütig	versagen	krank	töten	sterben	gemein	gierig	47pct	acq_USpleas_CSpleas1_noRW	acq23456_noRW	2	78	0	0	300	300	421	50	0	1	1	blank2r.bmp	0	1	+	0	1	blank2r.bmp	252	1	ZHHZ	306	1	vertrauen	559	0	0	0	0	0	0	0	0	0	0	0	0	0	0	0	0	0	0	0	0	0	0	0	0	0	0	0	0	0	0	0	0	0	0	0	0	0	0	0
070319	12:30:13	12:36:06	352319	5.0.10.0	5_exp_noRW	8	Rpleas_acq	CS_A	ZHHZ	JQQJ	LWWL	DXXD	CPPC	YFFY	vertrauen	küssen	träumen	sonnig	genießen	gütig	versagen	krank	töten	sterben	gemein	gierig	47pct	acq_USpleas_CSpleas2_noRW	acq23456_noRW	2	79	0	0	300	300	357	50	0	1	1	blank2r.bmp	0	1	+	0	1	blank2r.bmp	252	1	JQQJ	306	1	sonnig	559	0	0	0	0	0	0	0	0	0	0	0	0	0	0	0	0	0	0	0	0	0	0	0	0	0	0	0	0	0	0	0	0	0	0	0	0	0	0	0
070319	12:30:13	12:36:08	354145	5.0.10.0	5_exp_noRW	8	Rpleas_acq	CS_A	ZHHZ	JQQJ	LWWL	DXXD	CPPC	YFFY	vertrauen	küssen	träumen	sonnig	genießen	gütig	versagen	krank	töten	sterben	gemein	gierig	53pct	acq_USunple_CSpleas1_noRW	acq23456_noRW	2	80	0	0	300	300	641	46	0	1	1	blank2r.bmp	0	1	+	0	1	blank2r.bmp	252	1	ZHHZ	306	1	versagen	559	0	0	0	0	0	0	0	0	0	0	0	0	0	0	0	0	0	0	0	0	0	0	0	0	0	0	0	0	0	0	0	0	0	0	0	0	0	0	0
070319	12:30:13	12:36:16	361981	5.0.10.0	5_exp_noRW	8	Rpleas_acq	CS_A	ZHHZ	JQQJ	LWWL	DXXD	CPPC	YFFY	vertrauen	küssen	träumen	sonnig	genießen	gütig	versagen	krank	töten	sterben	gemein	gierig	47pct	acq_USpleas_CSunple1_noRW	acq23456_noRW	3	1	0	0	300	300	330	50	0	1	1	blank2r.bmp	0	1	+	0	1	blank2r.bmp	252	1	LWWL	306	1	vertrauen	559	0	0	0	0	0	0	0	0	0	0	0	0	0	0	0	0	0	0	0	0	0	0	0	0	0	0	0	0	0	0	0	0	0	0	0	0	0	0	0
070319	12:30:13	12:36:17	363567	5.0.10.0	5_exp_noRW	8	Rpleas_acq	CS_A	ZHHZ	JQQJ	LWWL	DXXD	CPPC	YFFY	vertrauen	küssen	träumen	sonnig	genießen	gütig	versagen	krank	töten	sterben	gemein	gierig	47pct	acq_USunple_CSunple1_noRW	acq23456_noRW	3	2	0	0	300	300	419	46	0	1	1	blank2r.bmp	0	1	+	0	1	blank2r.bmp	252	1	LWWL	306	3	töten	559	0	0	0	0	0	0	0	0	0	0	0	0	0	0	0	0	0	0	0	0	0	0	0	0	0	0	0	0	0	0	0	0	0	0	0	0	0	0	0
070319	12:30:13	12:36:19	365540	5.0.10.0	5_exp_noRW	8	Rpleas_acq	CS_A	ZHHZ	JQQJ	LWWL	DXXD	CPPC	YFFY	vertrauen	küssen	träumen	sonnig	genießen	gütig	versagen	krank	töten	sterben	gemein	gierig	53pct	acq_USpleas_CSunple2_noRW	acq23456_noRW	3	3	0	0	300	300	786	50	0	1	1	blank2r.bmp	0	1	+	0	1	blank2r.bmp	252	1	DXXD	306	3	gütig	559	0	0	0	0	0	0	0	0	0	0	0	0	0	0	0	0	0	0	0	0	0	0	0	0	0	0	0	0	0	0	0	0	0	0	0	0	0	0	0
070319	12:30:13	12:36:21	367086	5.0.10.0	5_exp_noRW	8	Rpleas_acq	CS_A	ZHHZ	JQQJ	LWWL	DXXD	CPPC	YFFY	vertrauen	küssen	träumen	sonnig	genießen	gütig	versagen	krank	töten	sterben	gemein	gierig	53pct	acq_USpleas_CSpleas2_noRW	acq23456_noRW	3	4	0	0	300	300	372	50	0	1	1	blank2r.bmp	0	1	+	0	1	blank2r.bmp	252	1	JQQJ	306	2	genießen	559	0	0	0	0	0	0	0	0	0	0	0	0	0	0	0	0	0	0	0	0	0	0	0	0	0	0	0	0	0	0	0	0	0	0	0	0	0	0	0
070319	12:30:13	12:36:22	368618	5.0.10.0	5_exp_noRW	8	Rpleas_acq	CS_A	ZHHZ	JQQJ	LWWL	DXXD	CPPC	YFFY	vertrauen	küssen	träumen	sonnig	genießen	gütig	versagen	krank	töten	sterben	gemein	gierig	47pct	acq_USpleas_CSpleas2_noRW	acq23456_noRW	3	5	0	0	300	300	361	50	0	1	1	blank2r.bmp	0	1	+	0	1	blank2r.bmp	252	1	JQQJ	306	2	genießen	559	0	0	0	0	0	0	0	0	0	0	0	0	0	0	0	0	0	0	0	0	0	0	0	0	0	0	0	0	0	0	0	0	0	0	0	0	0	0	0
070319	12:30:13	12:36:24	370244	5.0.10.0	5_exp_noRW	8	Rpleas_acq	CS_A	ZHHZ	JQQJ	LWWL	DXXD	CPPC	YFFY	vertrauen	küssen	träumen	sonnig	genießen	gütig	versagen	krank	töten	sterben	gemein	gierig	53pct	acq_USunple_CSpleas2_noRW	acq23456_noRW	3	6	0	0	300	300	463	46	0	1	1	blank2r.bmp	0	1	+	0	1	blank2r.bmp	252	1	JQQJ	306	3	gierig	559	0	0	0	0	0	0	0	0	0	0	0	0	0	0	0	0	0	0	0	0	0	0	0	0	0	0	0	0	0	0	0	0	0	0	0	0	0	0	0
070319	12:30:13	12:36:25	371924	5.0.10.0	5_exp_noRW	8	Rpleas_acq	CS_A	ZHHZ	JQQJ	LWWL	DXXD	CPPC	YFFY	vertrauen	küssen	träumen	sonnig	genießen	gütig	versagen	krank	töten	sterben	gemein	gierig	47pct	acq_USunple_CSunple2_noRW	acq23456_noRW	3	7	0	0	300	300	495	46	0	1	1	blank2r.bmp	0	1	+	0	1	blank2r.bmp	252	1	DXXD	306	1	sterben	559	0	0	0	0	0	0	0	0	0	0	0	0	0	0	0	0	0	0	0	0	0	0	0	0	0	0	0	0	0	0	0	0	0	0	0	0	0	0	0
070319	12:30:13	12:36:27	373523	5.0.10.0	5_exp_noRW	8	Rpleas_acq	CS_A	ZHHZ	JQQJ	LWWL	DXXD	CPPC	YFFY	vertrauen	küssen	träumen	sonnig	genießen	gütig	versagen	krank	töten	sterben	gemein	gierig	47pct	acq_USunple_CSunple2_noRW	acq23456_noRW	3	8	0	0	300	300	431	46	0	1	1	blank2r.bmp	0	1	+	0	1	blank2r.bmp	252	1	DXXD	306	2	gemein	559	0	0	0	0	0	0	0	0	0	0	0	0	0	0	0	0	0	0	0	0	0	0	0	0	0	0	0	0	0	0	0	0	0	0	0	0	0	0	0
070319	12:30:13	12:36:29	375162	5.0.10.0	5_exp_noRW	8	Rpleas_acq	CS_A	ZHHZ	JQQJ	LWWL	DXXD	CPPC	YFFY	vertrauen	küssen	träumen	sonnig	genießen	gütig	versagen	krank	töten	sterben	gemein	gierig	53pct	acq_USpleas_CSpleas2_noRW	acq23456_noRW	3	9	0	0	300	300	456	50	0	1	1	blank2r.bmp	0	1	+	0	1	blank2r.bmp	252	1	JQQJ	306	1	sonnig	559	0	0	0	0	0	0	0	0	0	0	0	0	0	0	0	0	0	0	0	0	0	0	0	0	0	0	0	0	0	0	0	0	0	0	0	0	0	0	0
070319	12:30:13	12:36:30	376708	5.0.10.0	5_exp_noRW	8	Rpleas_acq	CS_A	ZHHZ	JQQJ	LWWL	DXXD	CPPC	YFFY	vertrauen	küssen	träumen	sonnig	genießen	gütig	versagen	krank	töten	sterben	gemein	gierig	53pct	acq_USunple_CSunple1_noRW	acq23456_noRW	3	10	0	0	300	300	373	46	0	1	1	blank2r.bmp	0	1	+	0	1	blank2r.bmp	252	1	LWWL	306	3	töten	559	0	0	0	0	0	0	0	0	0	0	0	0	0	0	0	0	0	0	0	0	0	0	0	0	0	0	0	0	0	0	0	0	0	0	0	0	0	0	0
070319	12:30:13	12:36:32	378308	5.0.10.0	5_exp_noRW	8	Rpleas_acq	CS_A	ZHHZ	JQQJ	LWWL	DXXD	CPPC	YFFY	vertrauen	küssen	träumen	sonnig	genießen	gütig	versagen	krank	töten	sterben	gemein	gierig	47pct	acq_USpleas_CSpleas1_noRW	acq23456_noRW	3	11	0	0	300	300	430	50	0	1	1	blank2r.bmp	0	1	+	0	1	blank2r.bmp	252	1	ZHHZ	306	2	küssen	559	0	0	0	0	0	0	0	0	0	0	0	0	0	0	0	0	0	0	0	0	0	0	0	0	0	0	0	0	0	0	0	0	0	0	0	0	0	0	0
070319	12:30:13	12:36:33	379854	5.0.10.0	5_exp_noRW	8	Rpleas_acq	CS_A	ZHHZ	JQQJ	LWWL	DXXD	CPPC	YFFY	vertrauen	küssen	träumen	sonnig	genießen	gütig	versagen	krank	töten	sterben	gemein	gierig	53pct	acq_USunple_CSunple1_noRW	acq23456_noRW	3	12	0	0	300	300	358	46	0	1	1	blank2r.bmp	0	1	+	0	1	blank2r.bmp	252	1	LWWL	306	2	krank	559	0	0	0	0	0	0	0	0	0	0	0	0	0	0	0	0	0	0	0	0	0	0	0	0	0	0	0	0	0	0	0	0	0	0	0	0	0	0	0
070319	12:30:13	12:36:35	381466	5.0.10.0	5_exp_noRW	8	Rpleas_acq	CS_A	ZHHZ	JQQJ	LWWL	DXXD	CPPC	YFFY	vertrauen	küssen	träumen	sonnig	genießen	gütig	versagen	krank	töten	sterben	gemein	gierig	47pct	acq_USpleas_CSpleas1_noRW	acq23456_noRW	3	13	0	0	300	300	445	50	0	1	1	blank2r.bmp	0	1	+	0	1	blank2r.bmp	252	1	ZHHZ	306	2	küssen	559	0	0	0	0	0	0	0	0	0	0	0	0	0	0	0	0	0	0	0	0	0	0	0	0	0	0	0	0	0	0	0	0	0	0	0	0	0	0	0
070319	12:30:13	12:36:37	383039	5.0.10.0	5_exp_noRW	8	Rpleas_acq	CS_A	ZHHZ	JQQJ	LWWL	DXXD	CPPC	YFFY	vertrauen	küssen	träumen	sonnig	genießen	gütig	versagen	krank	töten	sterben	gemein	gierig	53pct	acq_USunple_CSunple2_noRW	acq23456_noRW	3	14	0	0	300	300	402	46	0	1	1	blank2r.bmp	0	1	+	0	1	blank2r.bmp	252	1	DXXD	306	3	gierig	559	0	0	0	0	0	0	0	0	0	0	0	0	0	0	0	0	0	0	0	0	0	0	0	0	0	0	0	0	0	0	0	0	0	0	0	0	0	0	0
070319	12:30:13	12:36:38	384638	5.0.10.0	5_exp_noRW	8	Rpleas_acq	CS_A	ZHHZ	JQQJ	LWWL	DXXD	CPPC	YFFY	vertrauen	küssen	träumen	sonnig	genießen	gütig	versagen	krank	töten	sterben	gemein	gierig	47pct	acq_USunple_CSpleas1_noRW	acq23456_noRW	3	15	0	0	300	300	420	46	0	1	1	blank2r.bmp	0	1	+	0	1	blank2r.bmp	252	1	ZHHZ	306	2	krank	559	0	0	0	0	0	0	0	0	0	0	0	0	0	0	0	0	0	0	0	0	0	0	0	0	0	0	0	0	0	0	0	0	0	0	0	0	0	0	0
070319	12:30:13	12:36:40	386264	5.0.10.0	5_exp_noRW	8	Rpleas_acq	CS_A	ZHHZ	JQQJ	LWWL	DXXD	CPPC	YFFY	vertrauen	küssen	träumen	sonnig	genießen	gütig	versagen	krank	töten	sterben	gemein	gierig	53pct	acq_USpleas_CSpleas1_noRW	acq23456_noRW	3	16	0	0	300	300	441	50	0	1	1	blank2r.bmp	0	1	+	0	1	blank2r.bmp	252	1	ZHHZ	306	3	träumen	559	0	0	0	0	0	0	0	0	0	0	0	0	0	0	0	0	0	0	0	0	0	0	0	0	0	0	0	0	0	0	0	0	0	0	0	0	0	0	0
070319	12:30:13	12:36:42	387944	5.0.10.0	5_exp_noRW	8	Rpleas_acq	CS_A	ZHHZ	JQQJ	LWWL	DXXD	CPPC	YFFY	vertrauen	küssen	träumen	sonnig	genießen	gütig	versagen	krank	töten	sterben	gemein	gierig	47pct	acq_USunple_CSunple1_noRW	acq23456_noRW	3	17	0	0	300	300	494	46	0	1	1	blank2r.bmp	0	1	+	0	1	blank2r.bmp	252	1	LWWL	306	1	versagen	559	0	0	0	0	0	0	0	0	0	0	0	0	0	0	0	0	0	0	0	0	0	0	0	0	0	0	0	0	0	0	0	0	0	0	0	0	0	0	0
070319	12:30:13	12:36:43	389556	5.0.10.0	5_exp_noRW	8	Rpleas_acq	CS_A	ZHHZ	JQQJ	LWWL	DXXD	CPPC	YFFY	vertrauen	küssen	träumen	sonnig	genießen	gütig	versagen	krank	töten	sterben	gemein	gierig	47pct	acq_USpleas_CSpleas2_noRW	acq23456_noRW	3	18	0	0	300	300	446	50	0	1	1	blank2r.bmp	0	1	+	0	1	blank2r.bmp	252	1	JQQJ	306	3	gütig	559	0	0	0	0	0	0	0	0	0	0	0	0	0	0	0	0	0	0	0	0	0	0	0	0	0	0	0	0	0	0	0	0	0	0	0	0	0	0	0
070319	12:30:13	12:36:45	391209	5.0.10.0	5_exp_noRW	8	Rpleas_acq	CS_A	ZHHZ	JQQJ	LWWL	DXXD	CPPC	YFFY	vertrauen	küssen	träumen	sonnig	genießen	gütig	versagen	krank	töten	sterben	gemein	gierig	47pct	acq_USunple_CSunple2_noRW	acq23456_noRW	3	19	0	0	300	300	476	46	0	1	1	blank2r.bmp	0	1	+	0	1	blank2r.bmp	252	1	DXXD	306	1	sterben	559	0	0	0	0	0	0	0	0	0	0	0	0	0	0	0	0	0	0	0	0	0	0	0	0	0	0	0	0	0	0	0	0	0	0	0	0	0	0	0
070319	12:30:13	12:36:46	392728	5.0.10.0	5_exp_noRW	8	Rpleas_acq	CS_A	ZHHZ	JQQJ	LWWL	DXXD	CPPC	YFFY	vertrauen	küssen	träumen	sonnig	genießen	gütig	versagen	krank	töten	sterben	gemein	gierig	53pct	acq_USpleas_CSpleas1_noRW	acq23456_noRW	3	20	0	0	300	300	339	50	0	1	1	blank2r.bmp	0	1	+	0	1	blank2r.bmp	252	1	ZHHZ	306	1	vertrauen	559	0	0	0	0	0	0	0	0	0	0	0	0	0	0	0	0	0	0	0	0	0	0	0	0	0	0	0	0	0	0	0	0	0	0	0	0	0	0	0
070319	12:30:13	12:36:48	394501	5.0.10.0	5_exp_noRW	8	Rpleas_acq	CS_A	ZHHZ	JQQJ	LWWL	DXXD	CPPC	YFFY	vertrauen	küssen	träumen	sonnig	genießen	gütig	versagen	krank	töten	sterben	gemein	gierig	47pct	acq_USpleas_CSpleas2_noRW	acq23456_noRW	3	21	0	0	300	300	385	46	0	0	1	blank2r.bmp	0	1	+	0	1	blank2r.bmp	252	1	JQQJ	306	3	gütig	559	1	FEHLER	986	0	0	0	0	0	0	0	0	0	0	0	0	0	0	0	0	0	0	0	0	0	0	0	0	0	0	0	0	0	0	0	0	0	0	0	0
070319	12:30:13	12:36:50	395994	5.0.10.0	5_exp_noRW	8	Rpleas_acq	CS_A	ZHHZ	JQQJ	LWWL	DXXD	CPPC	YFFY	vertrauen	küssen	träumen	sonnig	genießen	gütig	versagen	krank	töten	sterben	gemein	gierig	53pct	acq_USunple_CSunple2_noRW	acq23456_noRW	3	22	0	0	300	300	532	46	0	1	1	blank2r.bmp	0	1	+	0	1	blank2r.bmp	252	1	DXXD	306	2	gemein	559	0	0	0	0	0	0	0	0	0	0	0	0	0	0	0	0	0	0	0	0	0	0	0	0	0	0	0	0	0	0	0	0	0	0	0	0	0	0	0
070319	12:30:13	12:36:51	397633	5.0.10.0	5_exp_noRW	8	Rpleas_acq	CS_A	ZHHZ	JQQJ	LWWL	DXXD	CPPC	YFFY	vertrauen	küssen	träumen	sonnig	genießen	gütig	versagen	krank	töten	sterben	gemein	gierig	47pct	acq_USunple_CSunple1_noRW	acq23456_noRW	3	23	0	0	300	300	471	46	0	1	1	blank2r.bmp	0	1	+	0	1	blank2r.bmp	252	1	LWWL	306	3	töten	559	0	0	0	0	0	0	0	0	0	0	0	0	0	0	0	0	0	0	0	0	0	0	0	0	0	0	0	0	0	0	0	0	0	0	0	0	0	0	0
070319	12:30:13	12:36:53	399699	5.0.10.0	5_exp_noRW	8	Rpleas_acq	CS_A	ZHHZ	JQQJ	LWWL	DXXD	CPPC	YFFY	vertrauen	küssen	träumen	sonnig	genießen	gütig	versagen	krank	töten	sterben	gemein	gierig	47pct	acq_USunple_CSunple1_noRW	acq23456_noRW	3	24	0	0	300	300	667	50	0	0	1	blank2r.bmp	0	1	+	0	1	blank2r.bmp	252	1	LWWL	306	1	versagen	559	1	FEHLER	1266	0	0	0	0	0	0	0	0	0	0	0	0	0	0	0	0	0	0	0	0	0	0	0	0	0	0	0	0	0	0	0	0	0	0	0	0
070319	12:30:13	12:36:55	401112	5.0.10.0	5_exp_noRW	8	Rpleas_acq	CS_A	ZHHZ	JQQJ	LWWL	DXXD	CPPC	YFFY	vertrauen	küssen	träumen	sonnig	genießen	gütig	versagen	krank	töten	sterben	gemein	gierig	53pct	acq_USpleas_CSunple2_noRW	acq23456_noRW	3	25	0	0	300	300	457	50	0	1	1	blank2r.bmp	0	1	+	0	1	blank2r.bmp	252	1	DXXD	306	3	gütig	559	0	0	0	0	0	0	0	0	0	0	0	0	0	0	0	0	0	0	0	0	0	0	0	0	0	0	0	0	0	0	0	0	0	0	0	0	0	0	0
070319	12:30:13	12:36:56	402698	5.0.10.0	5_exp_noRW	8	Rpleas_acq	CS_A	ZHHZ	JQQJ	LWWL	DXXD	CPPC	YFFY	vertrauen	küssen	träumen	sonnig	genießen	gütig	versagen	krank	töten	sterben	gemein	gierig	47pct	acq_USunple_CSunple2_noRW	acq23456_noRW	3	26	0	0	300	300	421	46	0	1	1	blank2r.bmp	0	1	+	0	1	blank2r.bmp	252	1	DXXD	306	1	sterben	559	0	0	0	0	0	0	0	0	0	0	0	0	0	0	0	0	0	0	0	0	0	0	0	0	0	0	0	0	0	0	0	0	0	0	0	0	0	0	0
070319	12:30:13	12:36:58	404657	5.0.10.0	5_exp_noRW	8	Rpleas_acq	CS_A	ZHHZ	JQQJ	LWWL	DXXD	CPPC	YFFY	vertrauen	küssen	träumen	sonnig	genießen	gütig	versagen	krank	töten	sterben	gemein	gierig	53pct	acq_USunple_CSunple2_noRW	acq23456_noRW	3	27	0	0	300	300	790	46	0	1	1	blank2r.bmp	0	1	+	0	1	blank2r.bmp	252	1	DXXD	306	3	gierig	559	0	0	0	0	0	0	0	0	0	0	0	0	0	0	0	0	0	0	0	0	0	0	0	0	0	0	0	0	0	0	0	0	0	0	0	0	0	0	0
070319	12:30:13	12:37:00	406203	5.0.10.0	5_exp_noRW	8	Rpleas_acq	CS_A	ZHHZ	JQQJ	LWWL	DXXD	CPPC	YFFY	vertrauen	küssen	träumen	sonnig	genießen	gütig	versagen	krank	töten	sterben	gemein	gierig	47pct	acq_USpleas_CSpleas1_noRW	acq23456_noRW	3	28	0	0	300	300	370	50	0	1	1	blank2r.bmp	0	1	+	0	1	blank2r.bmp	252	1	ZHHZ	306	2	küssen	559	0	0	0	0	0	0	0	0	0	0	0	0	0	0	0	0	0	0	0	0	0	0	0	0	0	0	0	0	0	0	0	0	0	0	0	0	0	0	0
070319	12:30:13	12:37:01	407829	5.0.10.0	5_exp_noRW	8	Rpleas_acq	CS_A	ZHHZ	JQQJ	LWWL	DXXD	CPPC	YFFY	vertrauen	küssen	träumen	sonnig	genießen	gütig	versagen	krank	töten	sterben	gemein	gierig	47pct	acq_USunple_CSpleas1_noRW	acq23456_noRW	3	29	0	0	300	300	444	46	0	1	1	blank2r.bmp	0	1	+	0	1	blank2r.bmp	252	1	ZHHZ	306	2	krank	559	0	0	0	0	0	0	0	0	0	0	0	0	0	0	0	0	0	0	0	0	0	0	0	0	0	0	0	0	0	0	0	0	0	0	0	0	0	0	0
070319	12:30:13	12:37:03	409495	5.0.10.0	5_exp_noRW	8	Rpleas_acq	CS_A	ZHHZ	JQQJ	LWWL	DXXD	CPPC	YFFY	vertrauen	küssen	träumen	sonnig	genießen	gütig	versagen	krank	töten	sterben	gemein	gierig	47pct	acq_USunple_CSpleas2_noRW	acq23456_noRW	3	30	0	0	300	300	495	46	0	1	1	blank2r.bmp	0	1	+	0	1	blank2r.bmp	252	1	JQQJ	306	1	sterben	559	0	0	0	0	0	0	0	0	0	0	0	0	0	0	0	0	0	0	0	0	0	0	0	0	0	0	0	0	0	0	0	0	0	0	0	0	0	0	0
070319	12:30:13	12:37:05	411054	5.0.10.0	5_exp_noRW	8	Rpleas_acq	CS_A	ZHHZ	JQQJ	LWWL	DXXD	CPPC	YFFY	vertrauen	küssen	träumen	sonnig	genießen	gütig	versagen	krank	töten	sterben	gemein	gierig	53pct	acq_USpleas_CSpleas1_noRW	acq23456_noRW	3	31	0	0	300	300	379	50	0	1	1	blank2r.bmp	0	1	+	0	1	blank2r.bmp	252	1	ZHHZ	306	1	vertrauen	559	0	0	0	0	0	0	0	0	0	0	0	0	0	0	0	0	0	0	0	0	0	0	0	0	0	0	0	0	0	0	0	0	0	0	0	0	0	0	0
070319	12:30:13	12:37:06	412667	5.0.10.0	5_exp_noRW	8	Rpleas_acq	CS_A	ZHHZ	JQQJ	LWWL	DXXD	CPPC	YFFY	vertrauen	küssen	träumen	sonnig	genießen	gütig	versagen	krank	töten	sterben	gemein	gierig	47pct	acq_USunple_CSunple2_noRW	acq23456_noRW	3	32	0	0	300	300	427	46	0	1	1	blank2r.bmp	0	1	+	0	1	blank2r.bmp	252	1	DXXD	306	3	gierig	559	0	0	0	0	0	0	0	0	0	0	0	0	0	0	0	0	0	0	0	0	0	0	0	0	0	0	0	0	0	0	0	0	0	0	0	0	0	0	0
070319	12:30:13	12:37:08	414226	5.0.10.0	5_exp_noRW	8	Rpleas_acq	CS_A	ZHHZ	JQQJ	LWWL	DXXD	CPPC	YFFY	vertrauen	küssen	träumen	sonnig	genießen	gütig	versagen	krank	töten	sterben	gemein	gierig	53pct	acq_USpleas_CSpleas1_noRW	acq23456_noRW	3	33	0	0	300	300	398	50	0	1	1	blank2r.bmp	0	1	+	0	1	blank2r.bmp	252	1	ZHHZ	306	3	träumen	559	0	0	0	0	0	0	0	0	0	0	0	0	0	0	0	0	0	0	0	0	0	0	0	0	0	0	0	0	0	0	0	0	0	0	0	0	0	0	0
070319	12:30:13	12:37:09	415812	5.0.10.0	5_exp_noRW	8	Rpleas_acq	CS_A	ZHHZ	JQQJ	LWWL	DXXD	CPPC	YFFY	vertrauen	küssen	träumen	sonnig	genießen	gütig	versagen	krank	töten	sterben	gemein	gierig	47pct	acq_USunple_CSunple1_noRW	acq23456_noRW	3	34	0	0	300	300	401	46	0	1	1	blank2r.bmp	0	1	+	0	1	blank2r.bmp	252	1	LWWL	306	2	krank	559	0	0	0	0	0	0	0	0	0	0	0	0	0	0	0	0	0	0	0	0	0	0	0	0	0	0	0	0	0	0	0	0	0	0	0	0	0	0	0
070319	12:30:13	12:37:11	417411	5.0.10.0	5_exp_noRW	8	Rpleas_acq	CS_A	ZHHZ	JQQJ	LWWL	DXXD	CPPC	YFFY	vertrauen	küssen	träumen	sonnig	genießen	gütig	versagen	krank	töten	sterben	gemein	gierig	47pct	acq_USpleas_CSpleas2_noRW	acq23456_noRW	3	35	0	0	300	300	415	50	0	1	1	blank2r.bmp	0	1	+	0	1	blank2r.bmp	252	1	JQQJ	306	1	sonnig	559	0	0	0	0	0	0	0	0	0	0	0	0	0	0	0	0	0	0	0	0	0	0	0	0	0	0	0	0	0	0	0	0	0	0	0	0	0	0	0
070319	12:30:13	12:37:13	419011	5.0.10.0	5_exp_noRW	8	Rpleas_acq	CS_A	ZHHZ	JQQJ	LWWL	DXXD	CPPC	YFFY	vertrauen	küssen	träumen	sonnig	genießen	gütig	versagen	krank	töten	sterben	gemein	gierig	53pct	acq_USpleas_CSpleas2_noRW	acq23456_noRW	3	36	0	0	300	300	435	50	0	1	1	blank2r.bmp	0	1	+	0	1	blank2r.bmp	252	1	JQQJ	306	2	genießen	559	0	0	0	0	0	0	0	0	0	0	0	0	0	0	0	0	0	0	0	0	0	0	0	0	0	0	0	0	0	0	0	0	0	0	0	0	0	0	0
070319	12:30:13	12:37:14	420543	5.0.10.0	5_exp_noRW	8	Rpleas_acq	CS_A	ZHHZ	JQQJ	LWWL	DXXD	CPPC	YFFY	vertrauen	küssen	träumen	sonnig	genießen	gütig	versagen	krank	töten	sterben	gemein	gierig	53pct	acq_USpleas_CSpleas2_noRW	acq23456_noRW	3	37	0	0	300	300	350	50	0	1	1	blank2r.bmp	0	1	+	0	1	blank2r.bmp	252	1	JQQJ	306	1	sonnig	559	0	0	0	0	0	0	0	0	0	0	0	0	0	0	0	0	0	0	0	0	0	0	0	0	0	0	0	0	0	0	0	0	0	0	0	0	0	0	0
070319	12:30:13	12:37:16	422303	5.0.10.0	5_exp_noRW	8	Rpleas_acq	CS_A	ZHHZ	JQQJ	LWWL	DXXD	CPPC	YFFY	vertrauen	küssen	träumen	sonnig	genießen	gütig	versagen	krank	töten	sterben	gemein	gierig	47pct	acq_USpleas_CSpleas1_noRW	acq23456_noRW	3	38	0	0	300	300	592	50	0	1	1	blank2r.bmp	0	1	+	0	1	blank2r.bmp	252	1	ZHHZ	306	1	vertrauen	559	0	0	0	0	0	0	0	0	0	0	0	0	0	0	0	0	0	0	0	0	0	0	0	0	0	0	0	0	0	0	0	0	0	0	0	0	0	0	0
070319	12:30:13	12:37:18	424075	5.0.10.0	5_exp_noRW	8	Rpleas_acq	CS_A	ZHHZ	JQQJ	LWWL	DXXD	CPPC	YFFY	vertrauen	küssen	träumen	sonnig	genießen	gütig	versagen	krank	töten	sterben	gemein	gierig	53pct	acq_USpleas_CSunple1_noRW	acq23456_noRW	3	39	0	0	300	300	596	50	0	1	1	blank2r.bmp	0	1	+	0	1	blank2r.bmp	252	1	LWWL	306	1	vertrauen	559	0	0	0	0	0	0	0	0	0	0	0	0	0	0	0	0	0	0	0	0	0	0	0	0	0	0	0	0	0	0	0	0	0	0	0	0	0	0	0
070319	12:30:13	12:37:19	425755	5.0.10.0	5_exp_noRW	8	Rpleas_acq	CS_A	ZHHZ	JQQJ	LWWL	DXXD	CPPC	YFFY	vertrauen	küssen	träumen	sonnig	genießen	gütig	versagen	krank	töten	sterben	gemein	gierig	53pct	acq_USunple_CSunple1_noRW	acq23456_noRW	3	40	0	0	300	300	492	46	0	1	1	blank2r.bmp	0	1	+	0	1	blank2r.bmp	252	1	LWWL	306	1	versagen	559	0	0	0	0	0	0	0	0	0	0	0	0	0	0	0	0	0	0	0	0	0	0	0	0	0	0	0	0	0	0	0	0	0	0	0	0	0	0	0
070319	12:30:13	12:37:21	427407	5.0.10.0	5_exp_noRW	8	Rpleas_acq	CS_A	ZHHZ	JQQJ	LWWL	DXXD	CPPC	YFFY	vertrauen	küssen	träumen	sonnig	genießen	gütig	versagen	krank	töten	sterben	gemein	gierig	47pct	acq_USunple_CSunple1_noRW	acq23456_noRW	3	41	0	0	300	300	491	46	0	1	1	blank2r.bmp	0	1	+	0	1	blank2r.bmp	252	1	LWWL	306	3	töten	559	0	0	0	0	0	0	0	0	0	0	0	0	0	0	0	0	0	0	0	0	0	0	0	0	0	0	0	0	0	0	0	0	0	0	0	0	0	0	0
070319	12:30:13	12:37:23	429086	5.0.10.0	5_exp_noRW	8	Rpleas_acq	CS_A	ZHHZ	JQQJ	LWWL	DXXD	CPPC	YFFY	vertrauen	küssen	träumen	sonnig	genießen	gütig	versagen	krank	töten	sterben	gemein	gierig	47pct	acq_USpleas_CSpleas2_noRW	acq23456_noRW	3	42	0	0	300	300	482	50	0	1	1	blank2r.bmp	0	1	+	0	1	blank2r.bmp	252	1	JQQJ	306	2	genießen	559	0	0	0	0	0	0	0	0	0	0	0	0	0	0	0	0	0	0	0	0	0	0	0	0	0	0	0	0	0	0	0	0	0	0	0	0	0	0	0
070319	12:30:13	12:37:24	430726	5.0.10.0	5_exp_noRW	8	Rpleas_acq	CS_A	ZHHZ	JQQJ	LWWL	DXXD	CPPC	YFFY	vertrauen	küssen	träumen	sonnig	genießen	gütig	versagen	krank	töten	sterben	gemein	gierig	53pct	acq_USpleas_CSpleas2_noRW	acq23456_noRW	3	43	0	0	300	300	460	50	0	1	1	blank2r.bmp	0	1	+	0	1	blank2r.bmp	252	1	JQQJ	306	3	gütig	559	0	0	0	0	0	0	0	0	0	0	0	0	0	0	0	0	0	0	0	0	0	0	0	0	0	0	0	0	0	0	0	0	0	0	0	0	0	0	0
070319	12:30:13	12:37:26	432365	5.0.10.0	5_exp_noRW	8	Rpleas_acq	CS_A	ZHHZ	JQQJ	LWWL	DXXD	CPPC	YFFY	vertrauen	küssen	träumen	sonnig	genießen	gütig	versagen	krank	töten	sterben	gemein	gierig	47pct	acq_USpleas_CSpleas1_noRW	acq23456_noRW	3	44	0	0	300	300	455	50	0	1	1	blank2r.bmp	0	1	+	0	1	blank2r.bmp	252	1	ZHHZ	306	3	träumen	559	0	0	0	0	0	0	0	0	0	0	0	0	0	0	0	0	0	0	0	0	0	0	0	0	0	0	0	0	0	0	0	0	0	0	0	0	0	0	0
070319	12:30:13	12:37:28	434018	5.0.10.0	5_exp_noRW	8	Rpleas_acq	CS_A	ZHHZ	JQQJ	LWWL	DXXD	CPPC	YFFY	vertrauen	küssen	träumen	sonnig	genießen	gütig	versagen	krank	töten	sterben	gemein	gierig	53pct	acq_USunple_CSpleas1_noRW	acq23456_noRW	3	45	0	0	300	300	472	46	0	1	1	blank2r.bmp	0	1	+	0	1	blank2r.bmp	252	1	ZHHZ	306	3	töten	559	0	0	0	0	0	0	0	0	0	0	0	0	0	0	0	0	0	0	0	0	0	0	0	0	0	0	0	0	0	0	0	0	0	0	0	0	0	0	0
070319	12:30:13	12:37:29	435737	5.0.10.0	5_exp_noRW	8	Rpleas_acq	CS_A	ZHHZ	JQQJ	LWWL	DXXD	CPPC	YFFY	vertrauen	küssen	träumen	sonnig	genießen	gütig	versagen	krank	töten	sterben	gemein	gierig	53pct	acq_USunple_CSunple2_noRW	acq23456_noRW	3	46	0	0	300	300	532	46	0	1	1	blank2r.bmp	0	1	+	0	1	blank2r.bmp	252	1	DXXD	306	1	sterben	559	0	0	0	0	0	0	0	0	0	0	0	0	0	0	0	0	0	0	0	0	0	0	0	0	0	0	0	0	0	0	0	0	0	0	0	0	0	0	0
070319	12:30:13	12:37:31	437643	5.0.10.0	5_exp_noRW	8	Rpleas_acq	CS_A	ZHHZ	JQQJ	LWWL	DXXD	CPPC	YFFY	vertrauen	küssen	träumen	sonnig	genießen	gütig	versagen	krank	töten	sterben	gemein	gierig	53pct	acq_USunple_CSunple1_noRW	acq23456_noRW	3	47	0	0	300	300	741	46	0	1	1	blank2r.bmp	0	1	+	0	1	blank2r.bmp	252	1	LWWL	306	2	krank	559	0	0	0	0	0	0	0	0	0	0	0	0	0	0	0	0	0	0	0	0	0	0	0	0	0	0	0	0	0	0	0	0	0	0	0	0	0	0	0
070319	12:30:13	12:37:33	439349	5.0.10.0	5_exp_noRW	8	Rpleas_acq	CS_A	ZHHZ	JQQJ	LWWL	DXXD	CPPC	YFFY	vertrauen	küssen	träumen	sonnig	genießen	gütig	versagen	krank	töten	sterben	gemein	gierig	47pct	acq_USunple_CSunple1_noRW	acq23456_noRW	3	48	0	0	300	300	524	46	0	1	1	blank2r.bmp	0	1	+	0	1	blank2r.bmp	252	1	LWWL	306	1	versagen	559	0	0	0	0	0	0	0	0	0	0	0	0	0	0	0	0	0	0	0	0	0	0	0	0	0	0	0	0	0	0	0	0	0	0	0	0	0	0	0
070319	12:30:13	12:37:35	441215	5.0.10.0	5_exp_noRW	8	Rpleas_acq	CS_A	ZHHZ	JQQJ	LWWL	DXXD	CPPC	YFFY	vertrauen	küssen	träumen	sonnig	genießen	gütig	versagen	krank	töten	sterben	gemein	gierig	53pct	acq_USunple_CSunple2_noRW	acq23456_noRW	3	49	0	0	300	300	678	46	0	1	1	blank2r.bmp	0	1	+	0	1	blank2r.bmp	252	1	DXXD	306	2	gemein	559	0	0	0	0	0	0	0	0	0	0	0	0	0	0	0	0	0	0	0	0	0	0	0	0	0	0	0	0	0	0	0	0	0	0	0	0	0	0	0
070319	12:30:13	12:37:36	442867	5.0.10.0	5_exp_noRW	8	Rpleas_acq	CS_A	ZHHZ	JQQJ	LWWL	DXXD	CPPC	YFFY	vertrauen	küssen	träumen	sonnig	genießen	gütig	versagen	krank	töten	sterben	gemein	gierig	53pct	acq_USpleas_CSunple2_noRW	acq23456_noRW	3	50	0	0	300	300	478	50	0	1	1	blank2r.bmp	0	1	+	0	1	blank2r.bmp	252	1	DXXD	306	1	sonnig	559	0	0	0	0	0	0	0	0	0	0	0	0	0	0	0	0	0	0	0	0	0	0	0	0	0	0	0	0	0	0	0	0	0	0	0	0	0	0	0
070319	12:30:13	12:37:38	444453	5.0.10.0	5_exp_noRW	8	Rpleas_acq	CS_A	ZHHZ	JQQJ	LWWL	DXXD	CPPC	YFFY	vertrauen	küssen	träumen	sonnig	genießen	gütig	versagen	krank	töten	sterben	gemein	gierig	47pct	acq_USunple_CSunple2_noRW	acq23456_noRW	3	51	0	0	300	300	425	46	0	1	1	blank2r.bmp	0	1	+	0	1	blank2r.bmp	252	1	DXXD	306	3	gierig	559	0	0	0	0	0	0	0	0	0	0	0	0	0	0	0	0	0	0	0	0	0	0	0	0	0	0	0	0	0	0	0	0	0	0	0	0	0	0	0
070319	12:30:13	12:37:40	446213	5.0.10.0	5_exp_noRW	8	Rpleas_acq	CS_A	ZHHZ	JQQJ	LWWL	DXXD	CPPC	YFFY	vertrauen	küssen	träumen	sonnig	genießen	gütig	versagen	krank	töten	sterben	gemein	gierig	47pct	acq_USpleas_CSpleas2_noRW	acq23456_noRW	3	52	0	0	300	300	575	50	0	1	1	blank2r.bmp	0	1	+	0	1	blank2r.bmp	252	1	JQQJ	306	2	genießen	559	0	0	0	0	0	0	0	0	0	0	0	0	0	0	0	0	0	0	0	0	0	0	0	0	0	0	0	0	0	0	0	0	0	0	0	0	0	0	0
070319	12:30:13	12:37:41	447812	5.0.10.0	5_exp_noRW	8	Rpleas_acq	CS_A	ZHHZ	JQQJ	LWWL	DXXD	CPPC	YFFY	vertrauen	küssen	träumen	sonnig	genießen	gütig	versagen	krank	töten	sterben	gemein	gierig	47pct	acq_USpleas_CSpleas1_noRW	acq23456_noRW	3	53	0	0	300	300	435	50	0	1	1	blank2r.bmp	0	1	+	0	1	blank2r.bmp	252	1	ZHHZ	306	2	küssen	559	0	0	0	0	0	0	0	0	0	0	0	0	0	0	0	0	0	0	0	0	0	0	0	0	0	0	0	0	0	0	0	0	0	0	0	0	0	0	0
070319	12:30:13	12:37:43	449465	5.0.10.0	5_exp_noRW	8	Rpleas_acq	CS_A	ZHHZ	JQQJ	LWWL	DXXD	CPPC	YFFY	vertrauen	küssen	träumen	sonnig	genießen	gütig	versagen	krank	töten	sterben	gemein	gierig	53pct	acq_USunple_CSunple1_noRW	acq23456_noRW	3	54	0	0	300	300	490	46	0	1	1	blank2r.bmp	0	1	+	0	1	blank2r.bmp	252	1	LWWL	306	3	töten	559	0	0	0	0	0	0	0	0	0	0	0	0	0	0	0	0	0	0	0	0	0	0	0	0	0	0	0	0	0	0	0	0	0	0	0	0	0	0	0
070319	12:30:13	12:37:45	451077	5.0.10.0	5_exp_noRW	8	Rpleas_acq	CS_A	ZHHZ	JQQJ	LWWL	DXXD	CPPC	YFFY	vertrauen	küssen	träumen	sonnig	genießen	gütig	versagen	krank	töten	sterben	gemein	gierig	53pct	acq_USpleas_CSpleas2_noRW	acq23456_noRW	3	55	0	0	300	300	445	50	0	1	1	blank2r.bmp	0	1	+	0	1	blank2r.bmp	252	1	JQQJ	306	1	sonnig	559	0	0	0	0	0	0	0	0	0	0	0	0	0	0	0	0	0	0	0	0	0	0	0	0	0	0	0	0	0	0	0	0	0	0	0	0	0	0	0
070319	12:30:13	12:37:46	452663	5.0.10.0	5_exp_noRW	8	Rpleas_acq	CS_A	ZHHZ	JQQJ	LWWL	DXXD	CPPC	YFFY	vertrauen	küssen	träumen	sonnig	genießen	gütig	versagen	krank	töten	sterben	gemein	gierig	53pct	acq_USpleas_CSpleas1_noRW	acq23456_noRW	3	56	0	0	300	300	420	50	0	1	1	blank2r.bmp	0	1	+	0	1	blank2r.bmp	252	1	ZHHZ	306	3	träumen	559	0	0	0	0	0	0	0	0	0	0	0	0	0	0	0	0	0	0	0	0	0	0	0	0	0	0	0	0	0	0	0	0	0	0	0	0	0	0	0
070319	12:30:13	12:37:48	454209	5.0.10.0	5_exp_noRW	8	Rpleas_acq	CS_A	ZHHZ	JQQJ	LWWL	DXXD	CPPC	YFFY	vertrauen	küssen	träumen	sonnig	genießen	gütig	versagen	krank	töten	sterben	gemein	gierig	53pct	acq_USpleas_CSunple1_noRW	acq23456_noRW	3	57	0	0	300	300	377	50	0	1	1	blank2r.bmp	0	1	+	0	1	blank2r.bmp	252	1	LWWL	306	2	küssen	559	0	0	0	0	0	0	0	0	0	0	0	0	0	0	0	0	0	0	0	0	0	0	0	0	0	0	0	0	0	0	0	0	0	0	0	0	0	0	0
070319	12:30:13	12:37:49	455782	5.0.10.0	5_exp_noRW	8	Rpleas_acq	CS_A	ZHHZ	JQQJ	LWWL	DXXD	CPPC	YFFY	vertrauen	küssen	träumen	sonnig	genießen	gütig	versagen	krank	töten	sterben	gemein	gierig	53pct	acq_USpleas_CSpleas1_noRW	acq23456_noRW	3	58	0	0	300	300	399	50	0	1	1	blank2r.bmp	0	1	+	0	1	blank2r.bmp	252	1	ZHHZ	306	1	vertrauen	559	0	0	0	0	0	0	0	0	0	0	0	0	0	0	0	0	0	0	0	0	0	0	0	0	0	0	0	0	0	0	0	0	0	0	0	0	0	0	0
070319	12:30:13	12:37:51	457368	5.0.10.0	5_exp_noRW	8	Rpleas_acq	CS_A	ZHHZ	JQQJ	LWWL	DXXD	CPPC	YFFY	vertrauen	küssen	träumen	sonnig	genießen	gütig	versagen	krank	töten	sterben	gemein	gierig	47pct	acq_USunple_CSpleas2_noRW	acq23456_noRW	3	59	0	0	300	300	423	46	0	1	1	blank2r.bmp	0	1	+	0	1	blank2r.bmp	252	1	JQQJ	306	2	gemein	559	0	0	0	0	0	0	0	0	0	0	0	0	0	0	0	0	0	0	0	0	0	0	0	0	0	0	0	0	0	0	0	0	0	0	0	0	0	0	0
070319	12:30:13	12:37:52	458941	5.0.10.0	5_exp_noRW	8	Rpleas_acq	CS_A	ZHHZ	JQQJ	LWWL	DXXD	CPPC	YFFY	vertrauen	küssen	träumen	sonnig	genießen	gütig	versagen	krank	töten	sterben	gemein	gierig	53pct	acq_USunple_CSunple2_noRW	acq23456_noRW	3	60	0	0	300	300	391	46	0	1	1	blank2r.bmp	0	1	+	0	1	blank2r.bmp	252	1	DXXD	306	1	sterben	559	0	0	0	0	0	0	0	0	0	0	0	0	0	0	0	0	0	0	0	0	0	0	0	0	0	0	0	0	0	0	0	0	0	0	0	0	0	0	0
070319	12:30:13	12:37:54	460500	5.0.10.0	5_exp_noRW	8	Rpleas_acq	CS_A	ZHHZ	JQQJ	LWWL	DXXD	CPPC	YFFY	vertrauen	küssen	träumen	sonnig	genießen	gütig	versagen	krank	töten	sterben	gemein	gierig	47pct	acq_USunple_CSunple1_noRW	acq23456_noRW	3	61	0	0	300	300	379	46	0	1	1	blank2r.bmp	0	1	+	0	1	blank2r.bmp	252	1	LWWL	306	2	krank	559	0	0	0	0	0	0	0	0	0	0	0	0	0	0	0	0	0	0	0	0	0	0	0	0	0	0	0	0	0	0	0	0	0	0	0	0	0	0	0
070319	12:30:13	12:37:56	462153	5.0.10.0	5_exp_noRW	8	Rpleas_acq	CS_A	ZHHZ	JQQJ	LWWL	DXXD	CPPC	YFFY	vertrauen	küssen	träumen	sonnig	genießen	gütig	versagen	krank	töten	sterben	gemein	gierig	47pct	acq_USunple_CSunple2_noRW	acq23456_noRW	3	62	0	0	300	300	469	46	0	1	1	blank2r.bmp	0	1	+	0	1	blank2r.bmp	252	1	DXXD	306	2	gemein	559	0	0	0	0	0	0	0	0	0	0	0	0	0	0	0	0	0	0	0	0	0	0	0	0	0	0	0	0	0	0	0	0	0	0	0	0	0	0	0
070319	12:30:13	12:37:57	463885	5.0.10.0	5_exp_noRW	8	Rpleas_acq	CS_A	ZHHZ	JQQJ	LWWL	DXXD	CPPC	YFFY	vertrauen	küssen	träumen	sonnig	genießen	gütig	versagen	krank	töten	sterben	gemein	gierig	53pct	acq_USpleas_CSunple2_noRW	acq23456_noRW	3	63	0	0	300	300	560	50	0	1	1	blank2r.bmp	0	1	+	0	1	blank2r.bmp	252	1	DXXD	306	2	genießen	559	0	0	0	0	0	0	0	0	0	0	0	0	0	0	0	0	0	0	0	0	0	0	0	0	0	0	0	0	0	0	0	0	0	0	0	0	0	0	0
070319	12:30:13	12:37:59	465471	5.0.10.0	5_exp_noRW	8	Rpleas_acq	CS_A	ZHHZ	JQQJ	LWWL	DXXD	CPPC	YFFY	vertrauen	küssen	träumen	sonnig	genießen	gütig	versagen	krank	töten	sterben	gemein	gierig	47pct	acq_USpleas_CSpleas2_noRW	acq23456_noRW	3	64	0	0	300	300	423	50	0	1	1	blank2r.bmp	0	1	+	0	1	blank2r.bmp	252	1	JQQJ	306	3	gütig	559	0	0	0	0	0	0	0	0	0	0	0	0	0	0	0	0	0	0	0	0	0	0	0	0	0	0	0	0	0	0	0	0	0	0	0	0	0	0	0
070319	12:30:13	12:38:01	467017	5.0.10.0	5_exp_noRW	8	Rpleas_acq	CS_A	ZHHZ	JQQJ	LWWL	DXXD	CPPC	YFFY	vertrauen	küssen	träumen	sonnig	genießen	gütig	versagen	krank	töten	sterben	gemein	gierig	53pct	acq_USpleas_CSpleas1_noRW	acq23456_noRW	3	65	0	0	300	300	372	50	0	1	1	blank2r.bmp	0	1	+	0	1	blank2r.bmp	252	1	ZHHZ	306	2	küssen	559	0	0	0	0	0	0	0	0	0	0	0	0	0	0	0	0	0	0	0	0	0	0	0	0	0	0	0	0	0	0	0	0	0	0	0	0	0	0	0
070319	12:30:13	12:38:02	468590	5.0.10.0	5_exp_noRW	8	Rpleas_acq	CS_A	ZHHZ	JQQJ	LWWL	DXXD	CPPC	YFFY	vertrauen	küssen	träumen	sonnig	genießen	gütig	versagen	krank	töten	sterben	gemein	gierig	53pct	acq_USpleas_CSpleas2_noRW	acq23456_noRW	3	66	0	0	300	300	399	50	0	1	1	blank2r.bmp	0	1	+	0	1	blank2r.bmp	252	1	JQQJ	306	1	sonnig	559	0	0	0	0	0	0	0	0	0	0	0	0	0	0	0	0	0	0	0	0	0	0	0	0	0	0	0	0	0	0	0	0	0	0	0	0	0	0	0
070319	12:30:13	12:38:04	470189	5.0.10.0	5_exp_noRW	8	Rpleas_acq	CS_A	ZHHZ	JQQJ	LWWL	DXXD	CPPC	YFFY	vertrauen	küssen	träumen	sonnig	genießen	gütig	versagen	krank	töten	sterben	gemein	gierig	47pct	acq_USunple_CSpleas2_noRW	acq23456_noRW	3	67	0	0	300	300	434	46	0	1	1	blank2r.bmp	0	1	+	0	1	blank2r.bmp	252	1	JQQJ	306	3	gierig	559	0	0	0	0	0	0	0	0	0	0	0	0	0	0	0	0	0	0	0	0	0	0	0	0	0	0	0	0	0	0	0	0	0	0	0	0	0	0	0
070319	12:30:13	12:38:05	471735	5.0.10.0	5_exp_noRW	8	Rpleas_acq	CS_A	ZHHZ	JQQJ	LWWL	DXXD	CPPC	YFFY	vertrauen	küssen	träumen	sonnig	genießen	gütig	versagen	krank	töten	sterben	gemein	gierig	53pct	acq_USpleas_CSpleas2_noRW	acq23456_noRW	3	68	0	0	300	300	368	50	0	1	1	blank2r.bmp	0	1	+	0	1	blank2r.bmp	252	1	JQQJ	306	2	genießen	559	0	0	0	0	0	0	0	0	0	0	0	0	0	0	0	0	0	0	0	0	0	0	0	0	0	0	0	0	0	0	0	0	0	0	0	0	0	0	0
070319	12:30:13	12:38:07	473255	5.0.10.0	5_exp_noRW	8	Rpleas_acq	CS_A	ZHHZ	JQQJ	LWWL	DXXD	CPPC	YFFY	vertrauen	küssen	träumen	sonnig	genießen	gütig	versagen	krank	töten	sterben	gemein	gierig	53pct	acq_USpleas_CSpleas1_noRW	acq23456_noRW	3	69	0	0	300	300	333	50	0	1	1	blank2r.bmp	0	1	+	0	1	blank2r.bmp	252	1	ZHHZ	306	2	küssen	559	0	0	0	0	0	0	0	0	0	0	0	0	0	0	0	0	0	0	0	0	0	0	0	0	0	0	0	0	0	0	0	0	0	0	0	0	0	0	0
070319	12:30:13	12:38:08	474827	5.0.10.0	5_exp_noRW	8	Rpleas_acq	CS_A	ZHHZ	JQQJ	LWWL	DXXD	CPPC	YFFY	vertrauen	küssen	träumen	sonnig	genießen	gütig	versagen	krank	töten	sterben	gemein	gierig	53pct	acq_USunple_CSunple1_noRW	acq23456_noRW	3	70	0	0	300	300	399	46	0	1	1	blank2r.bmp	0	1	+	0	1	blank2r.bmp	252	1	LWWL	306	3	töten	559	0	0	0	0	0	0	0	0	0	0	0	0	0	0	0	0	0	0	0	0	0	0	0	0	0	0	0	0	0	0	0	0	0	0	0	0	0	0	0
070319	12:30:13	12:38:10	476560	5.0.10.0	5_exp_noRW	8	Rpleas_acq	CS_A	ZHHZ	JQQJ	LWWL	DXXD	CPPC	YFFY	vertrauen	küssen	träumen	sonnig	genießen	gütig	versagen	krank	töten	sterben	gemein	gierig	47pct	acq_USunple_CSpleas1_noRW	acq23456_noRW	3	71	0	0	300	300	547	46	0	1	1	blank2r.bmp	0	1	+	0	1	blank2r.bmp	252	1	ZHHZ	306	1	versagen	559	0	0	0	0	0	0	0	0	0	0	0	0	0	0	0	0	0	0	0	0	0	0	0	0	0	0	0	0	0	0	0	0	0	0	0	0	0	0	0
070319	12:30:13	12:38:12	478159	5.0.10.0	5_exp_noRW	8	Rpleas_acq	CS_A	ZHHZ	JQQJ	LWWL	DXXD	CPPC	YFFY	vertrauen	küssen	träumen	sonnig	genießen	gütig	versagen	krank	töten	sterben	gemein	gierig	53pct	acq_USunple_CSunple1_noRW	acq23456_noRW	3	72	0	0	300	300	424	46	0	1	1	blank2r.bmp	0	1	+	0	1	blank2r.bmp	252	1	LWWL	306	2	krank	559	0	0	0	0	0	0	0	0	0	0	0	0	0	0	0	0	0	0	0	0	0	0	0	0	0	0	0	0	0	0	0	0	0	0	0	0	0	0	0
070319	12:30:13	12:38:13	479745	5.0.10.0	5_exp_noRW	8	Rpleas_acq	CS_A	ZHHZ	JQQJ	LWWL	DXXD	CPPC	YFFY	vertrauen	küssen	träumen	sonnig	genießen	gütig	versagen	krank	töten	sterben	gemein	gierig	47pct	acq_USunple_CSunple2_noRW	acq23456_noRW	3	73	0	0	300	300	406	46	0	1	1	blank2r.bmp	0	1	+	0	1	blank2r.bmp	252	1	DXXD	306	3	gierig	559	0	0	0	0	0	0	0	0	0	0	0	0	0	0	0	0	0	0	0	0	0	0	0	0	0	0	0	0	0	0	0	0	0	0	0	0	0	0	0
070319	12:30:13	12:38:15	481491	5.0.10.0	5_exp_noRW	8	Rpleas_acq	CS_A	ZHHZ	JQQJ	LWWL	DXXD	CPPC	YFFY	vertrauen	küssen	träumen	sonnig	genießen	gütig	versagen	krank	töten	sterben	gemein	gierig	47pct	acq_USpleas_CSpleas2_noRW	acq23456_noRW	3	74	0	0	300	300	572	50	0	1	1	blank2r.bmp	0	1	+	0	1	blank2r.bmp	252	1	JQQJ	306	3	gütig	559	0	0	0	0	0	0	0	0	0	0	0	0	0	0	0	0	0	0	0	0	0	0	0	0	0	0	0	0	0	0	0	0	0	0	0	0	0	0	0
070319	12:30:13	12:38:17	483051	5.0.10.0	5_exp_noRW	8	Rpleas_acq	CS_A	ZHHZ	JQQJ	LWWL	DXXD	CPPC	YFFY	vertrauen	küssen	träumen	sonnig	genießen	gütig	versagen	krank	töten	sterben	gemein	gierig	47pct	acq_USpleas_CSpleas1_noRW	acq23456_noRW	3	75	0	0	300	300	394	50	0	1	1	blank2r.bmp	0	1	+	0	1	blank2r.bmp	252	1	ZHHZ	306	3	träumen	559	0	0	0	0	0	0	0	0	0	0	0	0	0	0	0	0	0	0	0	0	0	0	0	0	0	0	0	0	0	0	0	0	0	0	0	0	0	0	0
070319	12:30:13	12:38:18	484637	5.0.10.0	5_exp_noRW	8	Rpleas_acq	CS_A	ZHHZ	JQQJ	LWWL	DXXD	CPPC	YFFY	vertrauen	küssen	träumen	sonnig	genießen	gütig	versagen	krank	töten	sterben	gemein	gierig	47pct	acq_USpleas_CSpleas1_noRW	acq23456_noRW	3	76	0	0	300	300	417	50	0	1	1	blank2r.bmp	0	1	+	0	1	blank2r.bmp	252	1	ZHHZ	306	1	vertrauen	559	0	0	0	0	0	0	0	0	0	0	0	0	0	0	0	0	0	0	0	0	0	0	0	0	0	0	0	0	0	0	0	0	0	0	0	0	0	0	0
070319	12:30:13	12:38:20	486263	5.0.10.0	5_exp_noRW	8	Rpleas_acq	CS_A	ZHHZ	JQQJ	LWWL	DXXD	CPPC	YFFY	vertrauen	küssen	träumen	sonnig	genießen	gütig	versagen	krank	töten	sterben	gemein	gierig	47pct	acq_USunple_CSunple2_noRW	acq23456_noRW	3	77	0	0	300	300	447	46	0	1	1	blank2r.bmp	0	1	+	0	1	blank2r.bmp	252	1	DXXD	306	2	gemein	559	0	0	0	0	0	0	0	0	0	0	0	0	0	0	0	0	0	0	0	0	0	0	0	0	0	0	0	0	0	0	0	0	0	0	0	0	0	0	0
070319	12:30:13	12:38:22	488022	5.0.10.0	5_exp_noRW	8	Rpleas_acq	CS_A	ZHHZ	JQQJ	LWWL	DXXD	CPPC	YFFY	vertrauen	küssen	träumen	sonnig	genießen	gütig	versagen	krank	töten	sterben	gemein	gierig	53pct	acq_USunple_CSunple1_noRW	acq23456_noRW	3	78	0	0	300	300	365	50	0	0	1	blank2r.bmp	0	1	+	0	1	blank2r.bmp	252	1	LWWL	306	1	versagen	559	1	FEHLER	959	0	0	0	0	0	0	0	0	0	0	0	0	0	0	0	0	0	0	0	0	0	0	0	0	0	0	0	0	0	0	0	0	0	0	0	0
070319	12:30:13	12:38:23	489421	5.0.10.0	5_exp_noRW	8	Rpleas_acq	CS_A	ZHHZ	JQQJ	LWWL	DXXD	CPPC	YFFY	vertrauen	küssen	träumen	sonnig	genießen	gütig	versagen	krank	töten	sterben	gemein	gierig	53pct	acq_USpleas_CSunple1_noRW	acq23456_noRW	3	79	0	0	300	300	434	50	0	1	1	blank2r.bmp	0	1	+	0	1	blank2r.bmp	252	1	LWWL	306	3	träumen	559	0	0	0	0	0	0	0	0	0	0	0	0	0	0	0	0	0	0	0	0	0	0	0	0	0	0	0	0	0	0	0	0	0	0	0	0	0	0	0
070319	12:30:13	12:38:25	491021	5.0.10.0	5_exp_noRW	8	Rpleas_acq	CS_A	ZHHZ	JQQJ	LWWL	DXXD	CPPC	YFFY	vertrauen	küssen	träumen	sonnig	genießen	gütig	versagen	krank	töten	sterben	gemein	gierig	47pct	acq_USunple_CSunple2_noRW	acq23456_noRW	3	80	0	0	300	300	418	46	0	1	1	blank2r.bmp	0	1	+	0	1	blank2r.bmp	252	1	DXXD	306	1	sterben	559	0	0	0	0	0	0	0	0	0	0	0	0	0	0	0	0	0	0	0	0	0	0	0	0	0	0	0	0	0	0	0	0	0	0	0	0	0	0	0
070319	12:30:13	12:38:31	497338	5.0.10.0	5_exp_noRW	8	Rpleas_acq	CS_A	ZHHZ	JQQJ	LWWL	DXXD	CPPC	YFFY	vertrauen	küssen	träumen	sonnig	genießen	gütig	versagen	krank	töten	sterben	gemein	gierig	47pct	acq_USpleas_CSpleas1_noRW	acq23456_noRW	4	1	0	0	300	300	366	50	0	1	1	blank2r.bmp	0	1	+	0	1	blank2r.bmp	252	1	ZHHZ	306	3	träumen	559	0	0	0	0	0	0	0	0	0	0	0	0	0	0	0	0	0	0	0	0	0	0	0	0	0	0	0	0	0	0	0	0	0	0	0	0	0	0	0
070319	12:30:13	12:38:32	498817	5.0.10.0	5_exp_noRW	8	Rpleas_acq	CS_A	ZHHZ	JQQJ	LWWL	DXXD	CPPC	YFFY	vertrauen	küssen	träumen	sonnig	genießen	gütig	versagen	krank	töten	sterben	gemein	gierig	53pct	acq_USpleas_CSpleas2_noRW	acq23456_noRW	4	2	0	0	300	300	299	50	0	1	1	blank2r.bmp	0	1	+	0	1	blank2r.bmp	252	1	JQQJ	306	3	gütig	559	0	0	0	0	0	0	0	0	0	0	0	0	0	0	0	0	0	0	0	0	0	0	0	0	0	0	0	0	0	0	0	0	0	0	0	0	0	0	0
