date	time	script.currenttime	script.elapsedtime	build	script.currentexpt	subject	expressions.LRpleas_acq	expressions.conditionCS_A	expressions.CSpleas_1	expressions.CSpleas_2	expressions.CSunple_1	expressions.CSunple_2	expressions.distractor_1	expressions.distractor_2	expressions.US_pleas1	expressions.US_pleas2	expressions.US_pleas3	expressions.US_pleas4	expressions.US_pleas5	expressions.US_pleas6	expressions.US_unple1	expressions.US_unple2	expressions.US_unple3	expressions.US_unple4	expressions.US_unple5	expressions.US_unple6	counter.positions_noRW	trialcode	blockcode	blocknum	trialnum	windowcenter	inwindow	pretrialpause	posttrialpause	latency	response	expressions.correctedscore	correct	stimulusnumber1	stimulusitem1	stimulusonset1	stimulusnumber2	stimulusitem2	stimulusonset2	stimulusnumber3	stimulusitem3	stimulusonset3	stimulusnumber4	stimulusitem4	stimulusonset4	stimulusnumber5	stimulusitem5	stimulusonset5	stimulusnumber6	stimulusitem6	stimulusonset6	stimulusnumber7	stimulusitem7	stimulusonset7	stimulusnumber8	stimulusitem8	stimulusonset8	stimulusnumber9	stimulusitem9	stimulusonset9	stimulusnumber10	stimulusitem10	stimulusonset10	stimulusnumber11	stimulusitem11	stimulusonset11	stimulusnumber12	stimulusitem12	stimulusonset12	stimulusnumber13	stimulusitem13	stimulusonset13	stimulusnumber14	stimulusitem14	stimulusonset14	stimulusnumber15	stimulusitem15	stimulusonset15	stimulusnumber16	stimulusitem16	stimulusonset16	stimulusnumber17	stimulusitem17	stimulusonset17	stimulusnumber18	stimulusitem18	stimulusonset18
072419	15:24:57	15:26:32	94774	5.0.10.0	5_exp_RW	85	Rpleas_acq	CS_B	MQQM	BZZB	GWWG	YDDY	VKKV	JXXJ	treu	ehrlich	spielen	retten	schön	fair	tot	eitel	strafen	rächen	schlecht	faul	1	acq_USpleas_CSpleas1_RW	acq1_RW	1	1	0	0	300	300	1858	50	0	1	1	blank2r.bmp	0	1	+	0	1	blank2r.bmp	492	1	MQQM	492	1	blank2r.bmp	572	2	ehrlich	866	0	0	0	0	0	0	0	0	0	0	0	0	0	0	0	0	0	0	0	0	0	0	0	0	0	0	0	0	0	0	0	0	0	0	0	0
072419	15:24:57	15:26:35	97479	5.0.10.0	5_exp_RW	85	Rpleas_acq	CS_B	MQQM	BZZB	GWWG	YDDY	VKKV	JXXJ	treu	ehrlich	spielen	retten	schön	fair	tot	eitel	strafen	rächen	schlecht	faul	1	acq_USunple_CSunple1_RW	acq1_RW	1	2	0	0	300	300	1237	46	0	1	1	blank2r.bmp	0	1	+	0	1	blank2r.bmp	492	1	GWWG	492	1	blank2r.bmp	572	2	eitel	866	0	0	0	0	0	0	0	0	0	0	0	0	0	0	0	0	0	0	0	0	0	0	0	0	0	0	0	0	0	0	0	0	0	0	0	0
072419	15:24:57	15:26:37	99878	5.0.10.0	5_exp_RW	85	Rpleas_acq	CS_B	MQQM	BZZB	GWWG	YDDY	VKKV	JXXJ	treu	ehrlich	spielen	retten	schön	fair	tot	eitel	strafen	rächen	schlecht	faul	1	acq_USunple_CSunple1_RW	acq1_RW	1	3	0	0	300	300	907	46	0	1	1	blank2r.bmp	0	1	+	0	1	blank2r.bmp	492	1	GWWG	492	1	blank2r.bmp	572	1	tot	866	0	0	0	0	0	0	0	0	0	0	0	0	0	0	0	0	0	0	0	0	0	0	0	0	0	0	0	0	0	0	0	0	0	0	0	0
072419	15:24:57	15:26:40	102344	5.0.10.0	5_exp_RW	85	Rpleas_acq	CS_B	MQQM	BZZB	GWWG	YDDY	VKKV	JXXJ	treu	ehrlich	spielen	retten	schön	fair	tot	eitel	strafen	rächen	schlecht	faul	1	acq_USunple_CSunple1_RW	acq1_RW	1	4	0	0	300	300	992	46	0	1	1	blank2r.bmp	0	1	+	0	1	blank2r.bmp	492	1	GWWG	492	1	blank2r.bmp	572	3	strafen	866	0	0	0	0	0	0	0	0	0	0	0	0	0	0	0	0	0	0	0	0	0	0	0	0	0	0	0	0	0	0	0	0	0	0	0	0
072419	15:24:57	15:26:42	104383	5.0.10.0	5_exp_RW	85	Rpleas_acq	CS_B	MQQM	BZZB	GWWG	YDDY	VKKV	JXXJ	treu	ehrlich	spielen	retten	schön	fair	tot	eitel	strafen	rächen	schlecht	faul	1	acq_USunple_CSunple2_RW	acq1_RW	1	5	0	0	300	300	555	46	0	1	1	blank2r.bmp	0	1	+	0	1	blank2r.bmp	492	1	YDDY	492	1	blank2r.bmp	572	3	faul	866	0	0	0	0	0	0	0	0	0	0	0	0	0	0	0	0	0	0	0	0	0	0	0	0	0	0	0	0	0	0	0	0	0	0	0	0
072419	15:24:57	15:26:44	106409	5.0.10.0	5_exp_RW	85	Rpleas_acq	CS_B	MQQM	BZZB	GWWG	YDDY	VKKV	JXXJ	treu	ehrlich	spielen	retten	schön	fair	tot	eitel	strafen	rächen	schlecht	faul	1	acq_USunple_CSunple2_RW	acq1_RW	1	6	0	0	300	300	551	46	0	1	1	blank2r.bmp	0	1	+	0	1	blank2r.bmp	492	1	YDDY	492	1	blank2r.bmp	572	1	rächen	866	0	0	0	0	0	0	0	0	0	0	0	0	0	0	0	0	0	0	0	0	0	0	0	0	0	0	0	0	0	0	0	0	0	0	0	0
072419	15:24:57	15:26:46	108675	5.0.10.0	5_exp_RW	85	Rpleas_acq	CS_B	MQQM	BZZB	GWWG	YDDY	VKKV	JXXJ	treu	ehrlich	spielen	retten	schön	fair	tot	eitel	strafen	rächen	schlecht	faul	1	acq_USpleas_CSpleas1_RW	acq1_RW	1	7	0	0	300	300	790	50	0	1	1	blank2r.bmp	0	1	+	0	1	blank2r.bmp	492	1	MQQM	492	1	blank2r.bmp	572	1	treu	866	0	0	0	0	0	0	0	0	0	0	0	0	0	0	0	0	0	0	0	0	0	0	0	0	0	0	0	0	0	0	0	0	0	0	0	0
072419	15:24:57	15:26:48	111180	5.0.10.0	5_exp_RW	85	Rpleas_acq	CS_B	MQQM	BZZB	GWWG	YDDY	VKKV	JXXJ	treu	ehrlich	spielen	retten	schön	fair	tot	eitel	strafen	rächen	schlecht	faul	1	acq_USpleas_CSpleas1_RW	acq1_RW	1	8	0	0	300	300	1037	50	0	1	1	blank2r.bmp	0	1	+	0	1	blank2r.bmp	492	1	MQQM	492	1	blank2r.bmp	572	3	spielen	866	0	0	0	0	0	0	0	0	0	0	0	0	0	0	0	0	0	0	0	0	0	0	0	0	0	0	0	0	0	0	0	0	0	0	0	0
072419	15:24:57	15:26:50	113326	5.0.10.0	5_exp_RW	85	Rpleas_acq	CS_B	MQQM	BZZB	GWWG	YDDY	VKKV	JXXJ	treu	ehrlich	spielen	retten	schön	fair	tot	eitel	strafen	rächen	schlecht	faul	1	acq_USpleas_CSpleas2_RW	acq1_RW	1	9	0	0	300	300	659	50	0	1	1	blank2r.bmp	0	1	+	0	1	blank2r.bmp	492	1	BZZB	492	1	blank2r.bmp	572	3	fair	866	0	0	0	0	0	0	0	0	0	0	0	0	0	0	0	0	0	0	0	0	0	0	0	0	0	0	0	0	0	0	0	0	0	0	0	0
072419	15:24:57	15:26:53	115392	5.0.10.0	5_exp_RW	85	Rpleas_acq	CS_B	MQQM	BZZB	GWWG	YDDY	VKKV	JXXJ	treu	ehrlich	spielen	retten	schön	fair	tot	eitel	strafen	rächen	schlecht	faul	1	acq_USunple_CSunple2_RW	acq1_RW	1	10	0	0	300	300	576	46	0	1	1	blank2r.bmp	0	1	+	0	1	blank2r.bmp	492	1	YDDY	492	1	blank2r.bmp	572	2	schlecht	866	0	0	0	0	0	0	0	0	0	0	0	0	0	0	0	0	0	0	0	0	0	0	0	0	0	0	0	0	0	0	0	0	0	0	0	0
072419	15:24:57	15:26:55	117551	5.0.10.0	5_exp_RW	85	Rpleas_acq	CS_B	MQQM	BZZB	GWWG	YDDY	VKKV	JXXJ	treu	ehrlich	spielen	retten	schön	fair	tot	eitel	strafen	rächen	schlecht	faul	1	acq_USunple_CSunple1_RW	acq1_RW	1	11	0	0	300	300	665	46	0	1	1	blank2r.bmp	0	1	+	0	1	blank2r.bmp	492	1	GWWG	492	1	blank2r.bmp	572	3	strafen	866	0	0	0	0	0	0	0	0	0	0	0	0	0	0	0	0	0	0	0	0	0	0	0	0	0	0	0	0	0	0	0	0	0	0	0	0
072419	15:24:57	15:26:57	119564	5.0.10.0	5_exp_RW	85	Rpleas_acq	CS_B	MQQM	BZZB	GWWG	YDDY	VKKV	JXXJ	treu	ehrlich	spielen	retten	schön	fair	tot	eitel	strafen	rächen	schlecht	faul	1	acq_USpleas_CSpleas2_RW	acq1_RW	1	12	0	0	300	300	543	50	0	1	1	blank2r.bmp	0	1	+	0	1	blank2r.bmp	492	1	BZZB	492	1	blank2r.bmp	572	2	schön	866	0	0	0	0	0	0	0	0	0	0	0	0	0	0	0	0	0	0	0	0	0	0	0	0	0	0	0	0	0	0	0	0	0	0	0	0
072419	15:24:57	15:26:59	121803	5.0.10.0	5_exp_RW	85	Rpleas_acq	CS_B	MQQM	BZZB	GWWG	YDDY	VKKV	JXXJ	treu	ehrlich	spielen	retten	schön	fair	tot	eitel	strafen	rächen	schlecht	faul	1	acq_USpleas_CSpleas1_RW	acq1_RW	1	13	0	0	300	300	748	50	0	1	1	blank2r.bmp	0	1	+	0	1	blank2r.bmp	492	1	MQQM	492	1	blank2r.bmp	572	3	spielen	866	0	0	0	0	0	0	0	0	0	0	0	0	0	0	0	0	0	0	0	0	0	0	0	0	0	0	0	0	0	0	0	0	0	0	0	0
072419	15:24:57	15:27:01	124042	5.0.10.0	5_exp_RW	85	Rpleas_acq	CS_B	MQQM	BZZB	GWWG	YDDY	VKKV	JXXJ	treu	ehrlich	spielen	retten	schön	fair	tot	eitel	strafen	rächen	schlecht	faul	1	acq_USpleas_CSpleas2_RW	acq1_RW	1	14	0	0	300	300	752	50	0	1	1	blank2r.bmp	0	1	+	0	1	blank2r.bmp	492	1	BZZB	492	1	blank2r.bmp	572	1	retten	866	0	0	0	0	0	0	0	0	0	0	0	0	0	0	0	0	0	0	0	0	0	0	0	0	0	0	0	0	0	0	0	0	0	0	0	0
072419	15:24:57	15:27:03	126028	5.0.10.0	5_exp_RW	85	Rpleas_acq	CS_B	MQQM	BZZB	GWWG	YDDY	VKKV	JXXJ	treu	ehrlich	spielen	retten	schön	fair	tot	eitel	strafen	rächen	schlecht	faul	1	acq_USunple_CSunple2_RW	acq1_RW	1	15	0	0	300	300	511	46	0	1	1	blank2r.bmp	0	1	+	0	1	blank2r.bmp	492	1	YDDY	492	1	blank2r.bmp	572	1	rächen	866	0	0	0	0	0	0	0	0	0	0	0	0	0	0	0	0	0	0	0	0	0	0	0	0	0	0	0	0	0	0	0	0	0	0	0	0
072419	15:24:57	15:27:06	129320	5.0.10.0	5_exp_RW	85	Rpleas_acq	CS_B	MQQM	BZZB	GWWG	YDDY	VKKV	JXXJ	treu	ehrlich	spielen	retten	schön	fair	tot	eitel	strafen	rächen	schlecht	faul	1	acq_USpleas_CSpleas2_RW	acq1_RW	1	16	0	0	300	300	1798	50	0	1	1	blank2r.bmp	0	1	+	0	1	blank2r.bmp	492	1	BZZB	492	1	blank2r.bmp	572	1	retten	866	0	0	0	0	0	0	0	0	0	0	0	0	0	0	0	0	0	0	0	0	0	0	0	0	0	0	0	0	0	0	0	0	0	0	0	0
072419	15:24:57	15:27:53	175807	5.0.10.0	5_exp_RW	85	Rpleas_acq	CS_B	MQQM	BZZB	GWWG	YDDY	VKKV	JXXJ	treu	ehrlich	spielen	retten	schön	fair	tot	eitel	strafen	rächen	schlecht	faul	1	acq_USunple_CSunple1_RW	acq2_RW	2	1	480	0	300	300	950	46	0	1	1	blank2r.bmp	0	1	+	0	1	blank2r.bmp	492	1	GWWG	492	1	blank2r.bmp	572	1	tot	866	1	!	1319	1	!	-1	0	0	0	0	0	0	0	0	0	0	0	0	0	0	0	0	0	0	0	0	0	0	0	0	0	0	0	0	0	0
072419	15:24:57	15:27:55	178100	5.0.10.0	5_exp_RW	85	Rpleas_acq	CS_B	MQQM	BZZB	GWWG	YDDY	VKKV	JXXJ	treu	ehrlich	spielen	retten	schön	fair	tot	eitel	strafen	rächen	schlecht	faul	1	acq_USunple_CSunple2_RW	acq2_RW	2	2	480	0	300	300	281	50	0	0	1	blank2r.bmp	0	1	+	0	1	blank2r.bmp	492	1	YDDY	492	1	blank2r.bmp	572	2	schlecht	866	1	FEHLER	1492	1	!	-1	1	!	-1	0	0	0	0	0	0	0	0	0	0	0	0	0	0	0	0	0	0	0	0	0	0	0	0	0	0	0
072419	15:24:57	15:27:57	180179	5.0.10.0	5_exp_RW	85	Rpleas_acq	CS_B	MQQM	BZZB	GWWG	YDDY	VKKV	JXXJ	treu	ehrlich	spielen	retten	schön	fair	tot	eitel	strafen	rächen	schlecht	faul	1	acq_USpleas_CSpleas2_RW	acq2_RW	2	3	480	1	300	300	482	50	0	1	1	blank2r.bmp	0	1	+	0	1	blank2r.bmp	492	1	BZZB	492	1	blank2r.bmp	572	3	fair	866	1	!	1319	1	!	1386	0	0	0	0	0	0	0	0	0	0	0	0	0	0	0	0	0	0	0	0	0	0	0	0	0	0	0	0	0	0
072419	15:24:57	15:28:00	182538	5.0.10.0	5_exp_RW	85	Rpleas_acq	CS_B	MQQM	BZZB	GWWG	YDDY	VKKV	JXXJ	treu	ehrlich	spielen	retten	schön	fair	tot	eitel	strafen	rächen	schlecht	faul	1	acq_USpleas_CSpleas1_RW	acq2_RW	2	4	480	0	300	300	357	46	0	0	1	blank2r.bmp	0	1	+	0	1	blank2r.bmp	492	1	MQQM	492	1	blank2r.bmp	572	2	ehrlich	866	1	FEHLER	1559	1	!	-1	1	!	-1	0	0	0	0	0	0	0	0	0	0	0	0	0	0	0	0	0	0	0	0	0	0	0	0	0	0	0
072419	15:24:57	15:28:02	184870	5.0.10.0	5_exp_RW	85	Rpleas_acq	CS_B	MQQM	BZZB	GWWG	YDDY	VKKV	JXXJ	treu	ehrlich	spielen	retten	schön	fair	tot	eitel	strafen	rächen	schlecht	faul	1	acq_USpleas_CSpleas1_RW	acq2_RW	2	5	480	0	300	300	774	50	0	1	1	blank2r.bmp	0	1	+	0	1	blank2r.bmp	492	1	MQQM	492	1	blank2r.bmp	572	1	treu	866	1	!	1319	1	!	-1	0	0	0	0	0	0	0	0	0	0	0	0	0	0	0	0	0	0	0	0	0	0	0	0	0	0	0	0	0	0
072419	15:24:57	15:28:04	186989	5.0.10.0	5_exp_RW	85	Rpleas_acq	CS_B	MQQM	BZZB	GWWG	YDDY	VKKV	JXXJ	treu	ehrlich	spielen	retten	schön	fair	tot	eitel	strafen	rächen	schlecht	faul	1	acq_USpleas_CSpleas1_RW	acq2_RW	2	6	480	0	300	300	335	50	0	1	1	blank2r.bmp	0	1	+	0	1	blank2r.bmp	492	1	MQQM	492	1	blank2r.bmp	572	2	ehrlich	866	1	!	-1	1	!	-1	0	0	0	0	0	0	0	0	0	0	0	0	0	0	0	0	0	0	0	0	0	0	0	0	0	0	0	0	0	0
072419	15:24:57	15:28:07	189482	5.0.10.0	5_exp_RW	85	Rpleas_acq	CS_B	MQQM	BZZB	GWWG	YDDY	VKKV	JXXJ	treu	ehrlich	spielen	retten	schön	fair	tot	eitel	strafen	rächen	schlecht	faul	1	acq_USpleas_CSpleas1_RW	acq2_RW	2	7	480	0	300	300	713	50	0	1	1	blank2r.bmp	0	1	+	0	1	blank2r.bmp	492	1	MQQM	492	1	blank2r.bmp	572	3	spielen	866	1	!	1319	1	!	-1	0	0	0	0	0	0	0	0	0	0	0	0	0	0	0	0	0	0	0	0	0	0	0	0	0	0	0	0	0	0
072419	15:24:57	15:28:09	191961	5.0.10.0	5_exp_RW	85	Rpleas_acq	CS_B	MQQM	BZZB	GWWG	YDDY	VKKV	JXXJ	treu	ehrlich	spielen	retten	schön	fair	tot	eitel	strafen	rächen	schlecht	faul	1	acq_USpleas_CSpleas2_RW	acq2_RW	2	8	480	1	300	300	462	46	0	0	1	blank2r.bmp	0	1	+	0	1	blank2r.bmp	492	1	BZZB	492	1	blank2r.bmp	572	2	schön	866	1	FEHLER	1679	1	!	1319	1	!	1359	0	0	0	0	0	0	0	0	0	0	0	0	0	0	0	0	0	0	0	0	0	0	0	0	0	0	0
072419	15:24:57	15:28:11	194000	5.0.10.0	5_exp_RW	85	Rpleas_acq	CS_B	MQQM	BZZB	GWWG	YDDY	VKKV	JXXJ	treu	ehrlich	spielen	retten	schön	fair	tot	eitel	strafen	rächen	schlecht	faul	1	acq_USunple_CSunple1_RW	acq2_RW	2	9	480	1	300	300	462	46	0	1	1	blank2r.bmp	0	1	+	0	1	blank2r.bmp	492	1	GWWG	492	1	blank2r.bmp	572	2	eitel	866	1	!	1319	1	!	1359	0	0	0	0	0	0	0	0	0	0	0	0	0	0	0	0	0	0	0	0	0	0	0	0	0	0	0	0	0	0
072419	15:24:57	15:28:13	196132	5.0.10.0	5_exp_RW	85	Rpleas_acq	CS_B	MQQM	BZZB	GWWG	YDDY	VKKV	JXXJ	treu	ehrlich	spielen	retten	schön	fair	tot	eitel	strafen	rächen	schlecht	faul	1	acq_USunple_CSunple2_RW	acq2_RW	2	10	480	0	300	300	352	46	0	1	1	blank2r.bmp	0	1	+	0	1	blank2r.bmp	492	1	YDDY	492	1	blank2r.bmp	572	3	faul	866	1	!	-1	1	!	-1	0	0	0	0	0	0	0	0	0	0	0	0	0	0	0	0	0	0	0	0	0	0	0	0	0	0	0	0	0	0
072419	15:24:57	15:28:16	198385	5.0.10.0	5_exp_RW	85	Rpleas_acq	CS_B	MQQM	BZZB	GWWG	YDDY	VKKV	JXXJ	treu	ehrlich	spielen	retten	schön	fair	tot	eitel	strafen	rächen	schlecht	faul	1	acq_USunple_CSunple1_RW	acq2_RW	2	11	480	1	300	300	446	46	0	1	1	blank2r.bmp	0	1	+	0	1	blank2r.bmp	492	1	GWWG	492	1	blank2r.bmp	572	3	strafen	866	1	!	1319	1	!	1346	0	0	0	0	0	0	0	0	0	0	0	0	0	0	0	0	0	0	0	0	0	0	0	0	0	0	0	0	0	0
072419	15:24:57	15:28:18	200570	5.0.10.0	5_exp_RW	85	Rpleas_acq	CS_B	MQQM	BZZB	GWWG	YDDY	VKKV	JXXJ	treu	ehrlich	spielen	retten	schön	fair	tot	eitel	strafen	rächen	schlecht	faul	1	acq_USunple_CSunple1_RW	acq2_RW	2	12	480	0	300	300	408	46	0	1	1	blank2r.bmp	0	1	+	0	1	blank2r.bmp	492	1	GWWG	492	1	blank2r.bmp	572	2	eitel	866	1	!	-1	1	!	-1	0	0	0	0	0	0	0	0	0	0	0	0	0	0	0	0	0	0	0	0	0	0	0	0	0	0	0	0	0	0
072419	15:24:57	15:28:20	203009	5.0.10.0	5_exp_RW	85	Rpleas_acq	CS_B	MQQM	BZZB	GWWG	YDDY	VKKV	JXXJ	treu	ehrlich	spielen	retten	schön	fair	tot	eitel	strafen	rächen	schlecht	faul	1	acq_USunple_CSunple2_RW	acq2_RW	2	13	480	0	300	300	643	46	0	1	1	blank2r.bmp	0	1	+	0	1	blank2r.bmp	492	1	YDDY	492	1	blank2r.bmp	572	3	faul	866	1	!	1319	1	!	-1	0	0	0	0	0	0	0	0	0	0	0	0	0	0	0	0	0	0	0	0	0	0	0	0	0	0	0	0	0	0
072419	15:24:57	15:28:22	205102	5.0.10.0	5_exp_RW	85	Rpleas_acq	CS_B	MQQM	BZZB	GWWG	YDDY	VKKV	JXXJ	treu	ehrlich	spielen	retten	schön	fair	tot	eitel	strafen	rächen	schlecht	faul	1	acq_USunple_CSunple1_RW	acq2_RW	2	14	480	0	300	300	312	46	0	1	1	blank2r.bmp	0	1	+	0	1	blank2r.bmp	492	1	GWWG	492	1	blank2r.bmp	572	1	tot	866	1	!	-1	1	!	-1	0	0	0	0	0	0	0	0	0	0	0	0	0	0	0	0	0	0	0	0	0	0	0	0	0	0	0	0	0	0
072419	15:24:57	15:28:25	207394	5.0.10.0	5_exp_RW	85	Rpleas_acq	CS_B	MQQM	BZZB	GWWG	YDDY	VKKV	JXXJ	treu	ehrlich	spielen	retten	schön	fair	tot	eitel	strafen	rächen	schlecht	faul	1	acq_USpleas_CSpleas2_RW	acq2_RW	2	15	480	1	300	300	484	50	0	1	1	blank2r.bmp	0	1	+	0	1	blank2r.bmp	492	1	BZZB	492	1	blank2r.bmp	572	3	fair	866	1	!	1319	1	!	1386	0	0	0	0	0	0	0	0	0	0	0	0	0	0	0	0	0	0	0	0	0	0	0	0	0	0	0	0	0	0
072419	15:24:57	15:28:27	209473	5.0.10.0	5_exp_RW	85	Rpleas_acq	CS_B	MQQM	BZZB	GWWG	YDDY	VKKV	JXXJ	treu	ehrlich	spielen	retten	schön	fair	tot	eitel	strafen	rächen	schlecht	faul	1	acq_USunple_CSunple2_RW	acq2_RW	2	16	480	0	300	300	316	46	0	1	1	blank2r.bmp	0	1	+	0	1	blank2r.bmp	492	1	YDDY	492	1	blank2r.bmp	572	1	rächen	866	1	!	-1	1	!	-1	0	0	0	0	0	0	0	0	0	0	0	0	0	0	0	0	0	0	0	0	0	0	0	0	0	0	0	0	0	0
072419	15:24:57	15:28:29	211819	5.0.10.0	5_exp_RW	85	Rpleas_acq	CS_B	MQQM	BZZB	GWWG	YDDY	VKKV	JXXJ	treu	ehrlich	spielen	retten	schön	fair	tot	eitel	strafen	rächen	schlecht	faul	1	acq_USpleas_CSpleas1_RW	acq2_RW	2	17	480	0	300	300	570	50	0	1	1	blank2r.bmp	0	1	+	0	1	blank2r.bmp	492	1	MQQM	492	1	blank2r.bmp	572	1	treu	866	1	!	1319	1	!	-1	0	0	0	0	0	0	0	0	0	0	0	0	0	0	0	0	0	0	0	0	0	0	0	0	0	0	0	0	0	0
072419	15:24:57	15:28:31	213992	5.0.10.0	5_exp_RW	85	Rpleas_acq	CS_B	MQQM	BZZB	GWWG	YDDY	VKKV	JXXJ	treu	ehrlich	spielen	retten	schön	fair	tot	eitel	strafen	rächen	schlecht	faul	1	acq_USunple_CSunple1_RW	acq2_RW	2	18	480	0	300	300	385	46	0	1	1	blank2r.bmp	0	1	+	0	1	blank2r.bmp	492	1	GWWG	492	1	blank2r.bmp	572	3	strafen	866	1	!	-1	1	!	-1	0	0	0	0	0	0	0	0	0	0	0	0	0	0	0	0	0	0	0	0	0	0	0	0	0	0	0	0	0	0
072419	15:24:57	15:28:34	216697	5.0.10.0	5_exp_RW	85	Rpleas_acq	CS_B	MQQM	BZZB	GWWG	YDDY	VKKV	JXXJ	treu	ehrlich	spielen	retten	schön	fair	tot	eitel	strafen	rächen	schlecht	faul	1	acq_USpleas_CSpleas2_RW	acq2_RW	2	19	480	0	300	300	696	46	0	0	1	blank2r.bmp	0	1	+	0	1	blank2r.bmp	492	1	BZZB	492	1	blank2r.bmp	572	1	retten	866	1	FEHLER	1905	1	!	1319	1	!	-1	0	0	0	0	0	0	0	0	0	0	0	0	0	0	0	0	0	0	0	0	0	0	0	0	0	0	0
072419	15:24:57	15:28:36	218790	5.0.10.0	5_exp_RW	85	Rpleas_acq	CS_B	MQQM	BZZB	GWWG	YDDY	VKKV	JXXJ	treu	ehrlich	spielen	retten	schön	fair	tot	eitel	strafen	rächen	schlecht	faul	1	acq_USunple_CSunple2_RW	acq2_RW	2	20	480	1	300	300	509	46	0	1	1	blank2r.bmp	0	1	+	0	1	blank2r.bmp	492	1	YDDY	492	1	blank2r.bmp	572	2	schlecht	866	1	!	1319	1	!	1412	0	0	0	0	0	0	0	0	0	0	0	0	0	0	0	0	0	0	0	0	0	0	0	0	0	0	0	0	0	0
072419	15:24:57	15:28:38	220922	5.0.10.0	5_exp_RW	85	Rpleas_acq	CS_B	MQQM	BZZB	GWWG	YDDY	VKKV	JXXJ	treu	ehrlich	spielen	retten	schön	fair	tot	eitel	strafen	rächen	schlecht	faul	1	acq_USunple_CSunple2_RW	acq2_RW	2	21	480	0	300	300	349	46	0	1	1	blank2r.bmp	0	1	+	0	1	blank2r.bmp	492	1	YDDY	492	1	blank2r.bmp	572	2	schlecht	866	1	!	-1	1	!	-1	0	0	0	0	0	0	0	0	0	0	0	0	0	0	0	0	0	0	0	0	0	0	0	0	0	0	0	0	0	0
072419	15:24:57	15:28:40	223228	5.0.10.0	5_exp_RW	85	Rpleas_acq	CS_B	MQQM	BZZB	GWWG	YDDY	VKKV	JXXJ	treu	ehrlich	spielen	retten	schön	fair	tot	eitel	strafen	rächen	schlecht	faul	1	acq_USpleas_CSpleas2_RW	acq2_RW	2	22	480	1	300	300	495	50	0	1	1	blank2r.bmp	0	1	+	0	1	blank2r.bmp	492	1	BZZB	492	1	blank2r.bmp	572	2	schön	866	1	!	1319	1	!	1399	0	0	0	0	0	0	0	0	0	0	0	0	0	0	0	0	0	0	0	0	0	0	0	0	0	0	0	0	0	0
072419	15:24:57	15:28:43	225613	5.0.10.0	5_exp_RW	85	Rpleas_acq	CS_B	MQQM	BZZB	GWWG	YDDY	VKKV	JXXJ	treu	ehrlich	spielen	retten	schön	fair	tot	eitel	strafen	rächen	schlecht	faul	1	acq_USpleas_CSpleas2_RW	acq2_RW	2	23	480	0	300	300	396	46	0	0	1	blank2r.bmp	0	1	+	0	1	blank2r.bmp	492	1	BZZB	492	1	blank2r.bmp	572	1	retten	866	1	FEHLER	1599	1	!	-1	1	!	-1	0	0	0	0	0	0	0	0	0	0	0	0	0	0	0	0	0	0	0	0	0	0	0	0	0	0	0
072419	15:24:57	15:28:45	227746	5.0.10.0	5_exp_RW	85	Rpleas_acq	CS_B	MQQM	BZZB	GWWG	YDDY	VKKV	JXXJ	treu	ehrlich	spielen	retten	schön	fair	tot	eitel	strafen	rächen	schlecht	faul	1	acq_USpleas_CSpleas1_RW	acq2_RW	2	24	480	0	300	300	580	50	0	1	1	blank2r.bmp	0	1	+	0	1	blank2r.bmp	492	1	MQQM	492	1	blank2r.bmp	572	3	spielen	866	1	!	1319	1	!	-1	0	0	0	0	0	0	0	0	0	0	0	0	0	0	0	0	0	0	0	0	0	0	0	0	0	0	0	0	0	0
072419	15:24:57	15:29:36	279152	5.0.10.0	5_exp_RW	85	Rpleas_acq	CS_B	MQQM	BZZB	GWWG	YDDY	VKKV	JXXJ	treu	ehrlich	spielen	retten	schön	fair	tot	eitel	strafen	rächen	schlecht	faul	1	acq_USunple_CSunple1_RW	acq3_RW	3	1	453	0	300	300	17599	50	0	0	1	blank2r.bmp	0	1	+	0	1	blank2r.bmp	492	1	GWWG	492	1	blank2r.bmp	572	2	eitel	866	1	FEHLER	18805	1	!	1292	1	!	-1	0	0	0	0	0	0	0	0	0	0	0	0	0	0	0	0	0	0	0	0	0	0	0	0	0	0	0
072419	15:24:57	15:30:01	303408	5.0.10.0	5_exp_RW	85	Rpleas_acq	CS_B	MQQM	BZZB	GWWG	YDDY	VKKV	JXXJ	treu	ehrlich	spielen	retten	schön	fair	tot	eitel	strafen	rächen	schlecht	faul	1	acq_USunple_CSunple1_RW	acq3_RW	3	2	453	0	300	300	22704	46	0	1	1	blank2r.bmp	0	1	+	0	1	blank2r.bmp	492	1	GWWG	492	1	blank2r.bmp	572	1	tot	866	1	!	1292	1	!	-1	0	0	0	0	0	0	0	0	0	0	0	0	0	0	0	0	0	0	0	0	0	0	0	0	0	0	0	0	0	0
072419	15:24:57	15:30:03	305861	5.0.10.0	5_exp_RW	85	Rpleas_acq	CS_B	MQQM	BZZB	GWWG	YDDY	VKKV	JXXJ	treu	ehrlich	spielen	retten	schön	fair	tot	eitel	strafen	rächen	schlecht	faul	1	acq_USunple_CSunple1_RW	acq3_RW	3	3	453	0	300	300	671	46	0	1	1	blank2r.bmp	0	1	+	0	1	blank2r.bmp	492	1	GWWG	492	1	blank2r.bmp	572	2	eitel	866	1	!	1292	1	!	-1	0	0	0	0	0	0	0	0	0	0	0	0	0	0	0	0	0	0	0	0	0	0	0	0	0	0	0	0	0	0
072419	15:24:57	15:30:05	308086	5.0.10.0	5_exp_RW	85	Rpleas_acq	CS_B	MQQM	BZZB	GWWG	YDDY	VKKV	JXXJ	treu	ehrlich	spielen	retten	schön	fair	tot	eitel	strafen	rächen	schlecht	faul	1	acq_USpleas_CSpleas2_RW	acq3_RW	3	4	453	1	300	300	414	50	0	1	1	blank2r.bmp	0	1	+	0	1	blank2r.bmp	492	1	BZZB	492	1	blank2r.bmp	572	3	fair	866	1	!	1292	1	!	1319	0	0	0	0	0	0	0	0	0	0	0	0	0	0	0	0	0	0	0	0	0	0	0	0	0	0	0	0	0	0
072419	15:24:57	15:30:08	310525	5.0.10.0	5_exp_RW	85	Rpleas_acq	CS_B	MQQM	BZZB	GWWG	YDDY	VKKV	JXXJ	treu	ehrlich	spielen	retten	schön	fair	tot	eitel	strafen	rächen	schlecht	faul	1	acq_USunple_CSunple2_RW	acq3_RW	3	5	453	1	300	300	429	50	0	0	1	blank2r.bmp	0	1	+	0	1	blank2r.bmp	492	1	YDDY	492	1	blank2r.bmp	572	3	faul	866	1	FEHLER	1652	1	!	1292	1	!	1332	0	0	0	0	0	0	0	0	0	0	0	0	0	0	0	0	0	0	0	0	0	0	0	0	0	0	0
072419	15:24:57	15:30:10	312551	5.0.10.0	5_exp_RW	85	Rpleas_acq	CS_B	MQQM	BZZB	GWWG	YDDY	VKKV	JXXJ	treu	ehrlich	spielen	retten	schön	fair	tot	eitel	strafen	rächen	schlecht	faul	1	acq_USunple_CSunple2_RW	acq3_RW	3	6	453	1	300	300	430	46	0	1	1	blank2r.bmp	0	1	+	0	1	blank2r.bmp	492	1	YDDY	492	1	blank2r.bmp	572	1	rächen	866	1	!	1292	1	!	1332	0	0	0	0	0	0	0	0	0	0	0	0	0	0	0	0	0	0	0	0	0	0	0	0	0	0	0	0	0	0
072419	15:24:57	15:30:12	314764	5.0.10.0	5_exp_RW	85	Rpleas_acq	CS_B	MQQM	BZZB	GWWG	YDDY	VKKV	JXXJ	treu	ehrlich	spielen	retten	schön	fair	tot	eitel	strafen	rächen	schlecht	faul	1	acq_USpleas_CSpleas1_RW	acq3_RW	3	7	453	1	300	300	424	50	0	1	1	blank2r.bmp	0	1	+	0	1	blank2r.bmp	492	1	MQQM	492	1	blank2r.bmp	572	2	ehrlich	866	1	!	1292	1	!	1319	0	0	0	0	0	0	0	0	0	0	0	0	0	0	0	0	0	0	0	0	0	0	0	0	0	0	0	0	0	0
072419	15:24:57	15:30:14	317003	5.0.10.0	5_exp_RW	85	Rpleas_acq	CS_B	MQQM	BZZB	GWWG	YDDY	VKKV	JXXJ	treu	ehrlich	spielen	retten	schön	fair	tot	eitel	strafen	rächen	schlecht	faul	1	acq_USpleas_CSpleas2_RW	acq3_RW	3	8	453	1	300	300	443	50	0	1	1	blank2r.bmp	0	1	+	0	1	blank2r.bmp	492	1	BZZB	492	1	blank2r.bmp	572	2	schön	866	1	!	1292	1	!	1346	0	0	0	0	0	0	0	0	0	0	0	0	0	0	0	0	0	0	0	0	0	0	0	0	0	0	0	0	0	0
072419	15:24:57	15:30:16	319202	5.0.10.0	5_exp_RW	85	Rpleas_acq	CS_B	MQQM	BZZB	GWWG	YDDY	VKKV	JXXJ	treu	ehrlich	spielen	retten	schön	fair	tot	eitel	strafen	rächen	schlecht	faul	1	acq_USunple_CSunple1_RW	acq3_RW	3	9	453	1	300	300	407	46	0	1	1	blank2r.bmp	0	1	+	0	1	blank2r.bmp	492	1	GWWG	492	1	blank2r.bmp	572	3	strafen	866	1	!	1292	1	!	1306	0	0	0	0	0	0	0	0	0	0	0	0	0	0	0	0	0	0	0	0	0	0	0	0	0	0	0	0	0	0
072419	15:24:57	15:30:19	321507	5.0.10.0	5_exp_RW	85	Rpleas_acq	CS_B	MQQM	BZZB	GWWG	YDDY	VKKV	JXXJ	treu	ehrlich	spielen	retten	schön	fair	tot	eitel	strafen	rächen	schlecht	faul	1	acq_USunple_CSunple2_RW	acq3_RW	3	10	453	1	300	300	510	46	0	1	1	blank2r.bmp	0	1	+	0	1	blank2r.bmp	492	1	YDDY	492	1	blank2r.bmp	572	3	faul	866	1	!	1292	1	!	1412	0	0	0	0	0	0	0	0	0	0	0	0	0	0	0	0	0	0	0	0	0	0	0	0	0	0	0	0	0	0
072419	15:24:57	15:30:21	323853	5.0.10.0	5_exp_RW	85	Rpleas_acq	CS_B	MQQM	BZZB	GWWG	YDDY	VKKV	JXXJ	treu	ehrlich	spielen	retten	schön	fair	tot	eitel	strafen	rächen	schlecht	faul	1	acq_USunple_CSunple2_RW	acq3_RW	3	11	453	0	300	300	584	46	0	1	1	blank2r.bmp	0	1	+	0	1	blank2r.bmp	492	1	YDDY	492	1	blank2r.bmp	572	2	schlecht	866	1	!	1292	1	!	-1	0	0	0	0	0	0	0	0	0	0	0	0	0	0	0	0	0	0	0	0	0	0	0	0	0	0	0	0	0	0
072419	15:24:57	15:30:23	325932	5.0.10.0	5_exp_RW	85	Rpleas_acq	CS_B	MQQM	BZZB	GWWG	YDDY	VKKV	JXXJ	treu	ehrlich	spielen	retten	schön	fair	tot	eitel	strafen	rächen	schlecht	faul	1	acq_USunple_CSunple2_RW	acq3_RW	3	12	453	0	300	300	292	46	0	1	1	blank2r.bmp	0	1	+	0	1	blank2r.bmp	492	1	YDDY	492	1	blank2r.bmp	572	1	rächen	866	1	!	-1	1	!	-1	0	0	0	0	0	0	0	0	0	0	0	0	0	0	0	0	0	0	0	0	0	0	0	0	0	0	0	0	0	0
072419	15:24:57	15:30:26	328558	5.0.10.0	5_exp_RW	85	Rpleas_acq	CS_B	MQQM	BZZB	GWWG	YDDY	VKKV	JXXJ	treu	ehrlich	spielen	retten	schön	fair	tot	eitel	strafen	rächen	schlecht	faul	1	acq_USpleas_CSpleas2_RW	acq3_RW	3	13	453	0	300	300	613	46	0	0	1	blank2r.bmp	0	1	+	0	1	blank2r.bmp	492	1	BZZB	492	1	blank2r.bmp	572	3	fair	866	1	FEHLER	1825	1	!	1292	1	!	-1	0	0	0	0	0	0	0	0	0	0	0	0	0	0	0	0	0	0	0	0	0	0	0	0	0	0	0
072419	15:24:57	15:30:28	330650	5.0.10.0	5_exp_RW	85	Rpleas_acq	CS_B	MQQM	BZZB	GWWG	YDDY	VKKV	JXXJ	treu	ehrlich	spielen	retten	schön	fair	tot	eitel	strafen	rächen	schlecht	faul	1	acq_USpleas_CSpleas2_RW	acq3_RW	3	14	453	1	300	300	511	50	0	1	1	blank2r.bmp	0	1	+	0	1	blank2r.bmp	492	1	BZZB	492	1	blank2r.bmp	572	2	schön	866	1	!	1292	1	!	1412	0	0	0	0	0	0	0	0	0	0	0	0	0	0	0	0	0	0	0	0	0	0	0	0	0	0	0	0	0	0
072419	15:24:57	15:30:30	332956	5.0.10.0	5_exp_RW	85	Rpleas_acq	CS_B	MQQM	BZZB	GWWG	YDDY	VKKV	JXXJ	treu	ehrlich	spielen	retten	schön	fair	tot	eitel	strafen	rächen	schlecht	faul	1	acq_USpleas_CSpleas1_RW	acq3_RW	3	15	453	1	300	300	510	50	0	1	1	blank2r.bmp	0	1	+	0	1	blank2r.bmp	492	1	MQQM	492	1	blank2r.bmp	572	1	treu	866	1	!	1292	1	!	1412	0	0	0	0	0	0	0	0	0	0	0	0	0	0	0	0	0	0	0	0	0	0	0	0	0	0	0	0	0	0
072419	15:24:57	15:30:32	335209	5.0.10.0	5_exp_RW	85	Rpleas_acq	CS_B	MQQM	BZZB	GWWG	YDDY	VKKV	JXXJ	treu	ehrlich	spielen	retten	schön	fair	tot	eitel	strafen	rächen	schlecht	faul	1	acq_USpleas_CSpleas1_RW	acq3_RW	3	16	453	1	300	300	452	50	0	1	1	blank2r.bmp	0	1	+	0	1	blank2r.bmp	492	1	MQQM	492	1	blank2r.bmp	572	3	spielen	866	1	!	1292	1	!	1359	0	0	0	0	0	0	0	0	0	0	0	0	0	0	0	0	0	0	0	0	0	0	0	0	0	0	0	0	0	0
072419	15:24:57	15:30:35	337501	5.0.10.0	5_exp_RW	85	Rpleas_acq	CS_B	MQQM	BZZB	GWWG	YDDY	VKKV	JXXJ	treu	ehrlich	spielen	retten	schön	fair	tot	eitel	strafen	rächen	schlecht	faul	1	acq_USunple_CSunple1_RW	acq3_RW	3	17	453	1	300	300	502	46	0	1	1	blank2r.bmp	0	1	+	0	1	blank2r.bmp	492	1	GWWG	492	1	blank2r.bmp	572	1	tot	866	1	!	1292	1	!	1399	0	0	0	0	0	0	0	0	0	0	0	0	0	0	0	0	0	0	0	0	0	0	0	0	0	0	0	0	0	0
072419	15:24:57	15:30:37	339820	5.0.10.0	5_exp_RW	85	Rpleas_acq	CS_B	MQQM	BZZB	GWWG	YDDY	VKKV	JXXJ	treu	ehrlich	spielen	retten	schön	fair	tot	eitel	strafen	rächen	schlecht	faul	1	acq_USpleas_CSpleas1_RW	acq3_RW	3	18	453	1	300	300	519	50	0	1	1	blank2r.bmp	0	1	+	0	1	blank2r.bmp	492	1	MQQM	492	1	blank2r.bmp	572	2	ehrlich	866	1	!	1292	1	!	1426	0	0	0	0	0	0	0	0	0	0	0	0	0	0	0	0	0	0	0	0	0	0	0	0	0	0	0	0	0	0
072419	15:24:57	15:30:39	342166	5.0.10.0	5_exp_RW	85	Rpleas_acq	CS_B	MQQM	BZZB	GWWG	YDDY	VKKV	JXXJ	treu	ehrlich	spielen	retten	schön	fair	tot	eitel	strafen	rächen	schlecht	faul	1	acq_USpleas_CSpleas2_RW	acq3_RW	3	19	453	0	300	300	349	46	0	0	1	blank2r.bmp	0	1	+	0	1	blank2r.bmp	492	1	BZZB	492	1	blank2r.bmp	572	1	retten	866	1	FEHLER	1559	1	!	-1	1	!	-1	0	0	0	0	0	0	0	0	0	0	0	0	0	0	0	0	0	0	0	0	0	0	0	0	0	0	0
072419	15:24:57	15:30:41	344285	5.0.10.0	5_exp_RW	85	Rpleas_acq	CS_B	MQQM	BZZB	GWWG	YDDY	VKKV	JXXJ	treu	ehrlich	spielen	retten	schön	fair	tot	eitel	strafen	rächen	schlecht	faul	1	acq_USpleas_CSpleas2_RW	acq3_RW	3	20	453	0	300	300	568	50	0	1	1	blank2r.bmp	0	1	+	0	1	blank2r.bmp	492	1	BZZB	492	1	blank2r.bmp	572	2	schön	866	1	!	1292	1	!	-1	0	0	0	0	0	0	0	0	0	0	0	0	0	0	0	0	0	0	0	0	0	0	0	0	0	0	0	0	0	0
072419	15:24:57	15:30:44	346551	5.0.10.0	5_exp_RW	85	Rpleas_acq	CS_B	MQQM	BZZB	GWWG	YDDY	VKKV	JXXJ	treu	ehrlich	spielen	retten	schön	fair	tot	eitel	strafen	rächen	schlecht	faul	1	acq_USpleas_CSpleas1_RW	acq3_RW	3	21	453	1	300	300	464	50	0	1	1	blank2r.bmp	0	1	+	0	1	blank2r.bmp	492	1	MQQM	492	1	blank2r.bmp	572	1	treu	866	1	!	1292	1	!	1359	0	0	0	0	0	0	0	0	0	0	0	0	0	0	0	0	0	0	0	0	0	0	0	0	0	0	0	0	0	0
072419	15:24:57	15:30:46	348776	5.0.10.0	5_exp_RW	85	Rpleas_acq	CS_B	MQQM	BZZB	GWWG	YDDY	VKKV	JXXJ	treu	ehrlich	spielen	retten	schön	fair	tot	eitel	strafen	rächen	schlecht	faul	1	acq_USpleas_CSpleas1_RW	acq3_RW	3	22	453	1	300	300	414	50	0	1	1	blank2r.bmp	0	1	+	0	1	blank2r.bmp	492	1	MQQM	492	1	blank2r.bmp	572	2	ehrlich	866	1	!	1292	1	!	1319	0	0	0	0	0	0	0	0	0	0	0	0	0	0	0	0	0	0	0	0	0	0	0	0	0	0	0	0	0	0
072419	15:24:57	15:30:48	351082	5.0.10.0	5_exp_RW	85	Rpleas_acq	CS_B	MQQM	BZZB	GWWG	YDDY	VKKV	JXXJ	treu	ehrlich	spielen	retten	schön	fair	tot	eitel	strafen	rächen	schlecht	faul	1	acq_USunple_CSunple1_RW	acq3_RW	3	23	453	0	300	300	540	46	0	1	1	blank2r.bmp	0	1	+	0	1	blank2r.bmp	492	1	GWWG	492	1	blank2r.bmp	572	2	eitel	866	1	!	1292	1	!	-1	0	0	0	0	0	0	0	0	0	0	0	0	0	0	0	0	0	0	0	0	0	0	0	0	0	0	0	0	0	0
072419	15:24:57	15:30:51	353508	5.0.10.0	5_exp_RW	85	Rpleas_acq	CS_B	MQQM	BZZB	GWWG	YDDY	VKKV	JXXJ	treu	ehrlich	spielen	retten	schön	fair	tot	eitel	strafen	rächen	schlecht	faul	1	acq_USunple_CSunple2_RW	acq3_RW	3	24	453	1	300	300	412	50	0	0	1	blank2r.bmp	0	1	+	0	1	blank2r.bmp	492	1	YDDY	492	1	blank2r.bmp	572	1	rächen	866	1	FEHLER	1625	1	!	1292	1	!	1306	0	0	0	0	0	0	0	0	0	0	0	0	0	0	0	0	0	0	0	0	0	0	0	0	0	0	0
072419	15:24:57	15:31:13	375485	5.0.10.0	5_exp_RW	85	Rpleas_acq	CS_B	MQQM	BZZB	GWWG	YDDY	VKKV	JXXJ	treu	ehrlich	spielen	retten	schön	fair	tot	eitel	strafen	rächen	schlecht	faul	1	acq_USunple_CSunple2_RW	acq4567_RW	4	1	400	0	300	300	502	46	0	1	1	blank2r.bmp	0	1	+	0	1	blank2r.bmp	492	1	YDDY	492	1	blank2r.bmp	572	3	faul	866	1	!	1239	1	!	-1	0	0	0	0	0	0	0	0	0	0	0	0	0	0	0	0	0	0	0	0	0	0	0	0	0	0	0	0	0	0
072419	15:24:57	15:31:15	377751	5.0.10.0	5_exp_RW	85	Rpleas_acq	CS_B	MQQM	BZZB	GWWG	YDDY	VKKV	JXXJ	treu	ehrlich	spielen	retten	schön	fair	tot	eitel	strafen	rächen	schlecht	faul	1	acq_USpleas_CSpleas1_RW	acq4567_RW	4	2	400	0	300	300	479	50	0	1	1	blank2r.bmp	0	1	+	0	1	blank2r.bmp	492	1	MQQM	492	1	blank2r.bmp	572	1	treu	866	1	!	1239	1	!	-1	0	0	0	0	0	0	0	0	0	0	0	0	0	0	0	0	0	0	0	0	0	0	0	0	0	0	0	0	0	0
072419	15:24:57	15:31:17	380030	5.0.10.0	5_exp_RW	85	Rpleas_acq	CS_B	MQQM	BZZB	GWWG	YDDY	VKKV	JXXJ	treu	ehrlich	spielen	retten	schön	fair	tot	eitel	strafen	rächen	schlecht	faul	1	acq_USpleas_CSpleas2_RW	acq4567_RW	4	3	400	0	300	300	498	50	0	1	1	blank2r.bmp	0	1	+	0	1	blank2r.bmp	492	1	BZZB	492	1	blank2r.bmp	572	1	retten	866	1	!	1239	1	!	-1	0	0	0	0	0	0	0	0	0	0	0	0	0	0	0	0	0	0	0	0	0	0	0	0	0	0	0	0	0	0
072419	15:24:57	15:31:19	382123	5.0.10.0	5_exp_RW	85	Rpleas_acq	CS_B	MQQM	BZZB	GWWG	YDDY	VKKV	JXXJ	treu	ehrlich	spielen	retten	schön	fair	tot	eitel	strafen	rächen	schlecht	faul	1	acq_USpleas_CSpleas2_RW	acq4567_RW	4	4	400	0	300	300	301	50	0	1	1	blank2r.bmp	0	1	+	0	1	blank2r.bmp	492	1	BZZB	492	1	blank2r.bmp	572	3	fair	866	1	!	-1	1	!	-1	0	0	0	0	0	0	0	0	0	0	0	0	0	0	0	0	0	0	0	0	0	0	0	0	0	0	0	0	0	0
072419	15:24:57	15:31:22	384455	5.0.10.0	5_exp_RW	85	Rpleas_acq	CS_B	MQQM	BZZB	GWWG	YDDY	VKKV	JXXJ	treu	ehrlich	spielen	retten	schön	fair	tot	eitel	strafen	rächen	schlecht	faul	1	acq_USunple_CSunple1_RW	acq4567_RW	4	5	400	0	300	300	535	46	0	1	1	blank2r.bmp	0	1	+	0	1	blank2r.bmp	492	1	GWWG	492	1	blank2r.bmp	572	1	tot	866	1	!	1239	1	!	-1	0	0	0	0	0	0	0	0	0	0	0	0	0	0	0	0	0	0	0	0	0	0	0	0	0	0	0	0	0	0
072419	15:24:57	15:31:24	386641	5.0.10.0	5_exp_RW	85	Rpleas_acq	CS_B	MQQM	BZZB	GWWG	YDDY	VKKV	JXXJ	treu	ehrlich	spielen	retten	schön	fair	tot	eitel	strafen	rächen	schlecht	faul	1	acq_USpleas_CSpleas1_RW	acq4567_RW	4	6	400	1	300	300	374	50	0	1	1	blank2r.bmp	0	1	+	0	1	blank2r.bmp	492	1	MQQM	492	1	blank2r.bmp	572	3	spielen	866	1	!	1239	1	!	1279	0	0	0	0	0	0	0	0	0	0	0	0	0	0	0	0	0	0	0	0	0	0	0	0	0	0	0	0	0	0
072419	15:24:57	15:31:26	388866	5.0.10.0	5_exp_RW	85	Rpleas_acq	CS_B	MQQM	BZZB	GWWG	YDDY	VKKV	JXXJ	treu	ehrlich	spielen	retten	schön	fair	tot	eitel	strafen	rächen	schlecht	faul	1	acq_USunple_CSunple1_RW	acq4567_RW	4	7	400	1	300	300	433	46	0	1	1	blank2r.bmp	0	1	+	0	1	blank2r.bmp	492	1	GWWG	492	1	blank2r.bmp	572	3	strafen	866	1	!	1239	1	!	1332	0	0	0	0	0	0	0	0	0	0	0	0	0	0	0	0	0	0	0	0	0	0	0	0	0	0	0	0	0	0
072419	15:24:57	15:31:28	391012	5.0.10.0	5_exp_RW	85	Rpleas_acq	CS_B	MQQM	BZZB	GWWG	YDDY	VKKV	JXXJ	treu	ehrlich	spielen	retten	schön	fair	tot	eitel	strafen	rächen	schlecht	faul	1	acq_USunple_CSunple2_RW	acq4567_RW	4	8	400	1	300	300	346	46	0	1	1	blank2r.bmp	0	1	+	0	1	blank2r.bmp	492	1	YDDY	492	1	blank2r.bmp	572	2	schlecht	866	1	!	1239	1	!	1252	0	0	0	0	0	0	0	0	0	0	0	0	0	0	0	0	0	0	0	0	0	0	0	0	0	0	0	0	0	0
072419	15:24:57	15:31:30	393278	5.0.10.0	5_exp_RW	85	Rpleas_acq	CS_B	MQQM	BZZB	GWWG	YDDY	VKKV	JXXJ	treu	ehrlich	spielen	retten	schön	fair	tot	eitel	strafen	rächen	schlecht	faul	1	acq_USpleas_CSpleas2_RW	acq4567_RW	4	9	400	1	300	300	463	50	0	1	1	blank2r.bmp	0	1	+	0	1	blank2r.bmp	492	1	BZZB	492	1	blank2r.bmp	572	1	retten	866	1	!	1239	1	!	1359	0	0	0	0	0	0	0	0	0	0	0	0	0	0	0	0	0	0	0	0	0	0	0	0	0	0	0	0	0	0
072419	15:24:57	15:31:33	395490	5.0.10.0	5_exp_RW	85	Rpleas_acq	CS_B	MQQM	BZZB	GWWG	YDDY	VKKV	JXXJ	treu	ehrlich	spielen	retten	schön	fair	tot	eitel	strafen	rächen	schlecht	faul	1	acq_USpleas_CSpleas1_RW	acq4567_RW	4	10	400	1	300	300	420	50	0	1	1	blank2r.bmp	0	1	+	0	1	blank2r.bmp	492	1	MQQM	492	1	blank2r.bmp	572	3	spielen	866	1	!	1239	1	!	1319	0	0	0	0	0	0	0	0	0	0	0	0	0	0	0	0	0	0	0	0	0	0	0	0	0	0	0	0	0	0
072419	15:24:57	15:31:35	397730	5.0.10.0	5_exp_RW	85	Rpleas_acq	CS_B	MQQM	BZZB	GWWG	YDDY	VKKV	JXXJ	treu	ehrlich	spielen	retten	schön	fair	tot	eitel	strafen	rächen	schlecht	faul	1	acq_USunple_CSunple1_RW	acq4567_RW	4	11	400	1	300	300	451	46	0	1	1	blank2r.bmp	0	1	+	0	1	blank2r.bmp	492	1	GWWG	492	1	blank2r.bmp	572	3	strafen	866	1	!	1239	1	!	1346	0	0	0	0	0	0	0	0	0	0	0	0	0	0	0	0	0	0	0	0	0	0	0	0	0	0	0	0	0	0
072419	15:24:57	15:31:37	399902	5.0.10.0	5_exp_RW	85	Rpleas_acq	CS_B	MQQM	BZZB	GWWG	YDDY	VKKV	JXXJ	treu	ehrlich	spielen	retten	schön	fair	tot	eitel	strafen	rächen	schlecht	faul	1	acq_USpleas_CSpleas1_RW	acq4567_RW	4	12	400	1	300	300	377	50	0	1	1	blank2r.bmp	0	1	+	0	1	blank2r.bmp	492	1	MQQM	492	1	blank2r.bmp	572	1	treu	866	1	!	1239	1	!	1279	0	0	0	0	0	0	0	0	0	0	0	0	0	0	0	0	0	0	0	0	0	0	0	0	0	0	0	0	0	0
072419	15:24:57	15:31:39	402088	5.0.10.0	5_exp_RW	85	Rpleas_acq	CS_B	MQQM	BZZB	GWWG	YDDY	VKKV	JXXJ	treu	ehrlich	spielen	retten	schön	fair	tot	eitel	strafen	rächen	schlecht	faul	1	acq_USunple_CSunple2_RW	acq4567_RW	4	13	400	1	300	300	382	46	0	1	1	blank2r.bmp	0	1	+	0	1	blank2r.bmp	492	1	YDDY	492	1	blank2r.bmp	572	2	schlecht	866	1	!	1239	1	!	1279	0	0	0	0	0	0	0	0	0	0	0	0	0	0	0	0	0	0	0	0	0	0	0	0	0	0	0	0	0	0
072419	15:24:57	15:31:42	404447	5.0.10.0	5_exp_RW	85	Rpleas_acq	CS_B	MQQM	BZZB	GWWG	YDDY	VKKV	JXXJ	treu	ehrlich	spielen	retten	schön	fair	tot	eitel	strafen	rächen	schlecht	faul	1	acq_USunple_CSunple1_RW	acq4567_RW	4	14	400	0	300	300	572	50	0	0	1	blank2r.bmp	0	1	+	0	1	blank2r.bmp	492	1	GWWG	492	1	blank2r.bmp	572	2	eitel	866	1	!	1239	1	!	-1	0	0	0	0	0	0	0	0	0	0	0	0	0	0	0	0	0	0	0	0	0	0	0	0	0	0	0	0	0	0
072419	15:24:57	15:31:44	406673	5.0.10.0	5_exp_RW	85	Rpleas_acq	CS_B	MQQM	BZZB	GWWG	YDDY	VKKV	JXXJ	treu	ehrlich	spielen	retten	schön	fair	tot	eitel	strafen	rächen	schlecht	faul	1	acq_USunple_CSunple2_RW	acq4567_RW	4	15	400	1	300	300	428	50	0	0	1	blank2r.bmp	0	1	+	0	1	blank2r.bmp	492	1	YDDY	492	1	blank2r.bmp	572	3	faul	866	1	!	1239	1	!	1332	0	0	0	0	0	0	0	0	0	0	0	0	0	0	0	0	0	0	0	0	0	0	0	0	0	0	0	0	0	0
072419	15:24:57	15:31:46	408845	5.0.10.0	5_exp_RW	85	Rpleas_acq	CS_B	MQQM	BZZB	GWWG	YDDY	VKKV	JXXJ	treu	ehrlich	spielen	retten	schön	fair	tot	eitel	strafen	rächen	schlecht	faul	1	acq_USunple_CSunple2_RW	acq4567_RW	4	16	400	1	300	300	363	50	0	0	1	blank2r.bmp	0	1	+	0	1	blank2r.bmp	492	1	YDDY	492	1	blank2r.bmp	572	1	rächen	866	1	!	1239	1	!	1266	0	0	0	0	0	0	0	0	0	0	0	0	0	0	0	0	0	0	0	0	0	0	0	0	0	0	0	0	0	0
072419	15:24:57	15:31:48	410924	5.0.10.0	5_exp_RW	85	Rpleas_acq	CS_B	MQQM	BZZB	GWWG	YDDY	VKKV	JXXJ	treu	ehrlich	spielen	retten	schön	fair	tot	eitel	strafen	rächen	schlecht	faul	1	acq_USpleas_CSpleas2_RW	acq4567_RW	4	17	400	0	300	300	312	46	0	0	1	blank2r.bmp	0	1	+	0	1	blank2r.bmp	492	1	BZZB	492	1	blank2r.bmp	572	3	fair	866	1	!	-1	1	!	-1	0	0	0	0	0	0	0	0	0	0	0	0	0	0	0	0	0	0	0	0	0	0	0	0	0	0	0	0	0	0
072419	15:24:57	15:31:50	413137	5.0.10.0	5_exp_RW	85	Rpleas_acq	CS_B	MQQM	BZZB	GWWG	YDDY	VKKV	JXXJ	treu	ehrlich	spielen	retten	schön	fair	tot	eitel	strafen	rächen	schlecht	faul	1	acq_USunple_CSunple1_RW	acq4567_RW	4	18	400	1	300	300	404	46	0	1	1	blank2r.bmp	0	1	+	0	1	blank2r.bmp	492	1	GWWG	492	1	blank2r.bmp	572	1	tot	866	1	!	1239	1	!	1306	0	0	0	0	0	0	0	0	0	0	0	0	0	0	0	0	0	0	0	0	0	0	0	0	0	0	0	0	0	0
072419	15:24:57	15:31:53	415389	5.0.10.0	5_exp_RW	85	Rpleas_acq	CS_B	MQQM	BZZB	GWWG	YDDY	VKKV	JXXJ	treu	ehrlich	spielen	retten	schön	fair	tot	eitel	strafen	rächen	schlecht	faul	1	acq_USpleas_CSpleas1_RW	acq4567_RW	4	19	400	1	300	300	452	46	0	0	1	blank2r.bmp	0	1	+	0	1	blank2r.bmp	492	1	MQQM	492	1	blank2r.bmp	572	2	ehrlich	866	1	!	1239	1	!	1359	0	0	0	0	0	0	0	0	0	0	0	0	0	0	0	0	0	0	0	0	0	0	0	0	0	0	0	0	0	0
072419	15:24:57	15:31:55	417495	5.0.10.0	5_exp_RW	85	Rpleas_acq	CS_B	MQQM	BZZB	GWWG	YDDY	VKKV	JXXJ	treu	ehrlich	spielen	retten	schön	fair	tot	eitel	strafen	rächen	schlecht	faul	1	acq_USpleas_CSpleas2_RW	acq4567_RW	4	20	400	0	300	300	332	50	0	1	1	blank2r.bmp	0	1	+	0	1	blank2r.bmp	492	1	BZZB	492	1	blank2r.bmp	572	2	schön	866	1	!	-1	1	!	-1	0	0	0	0	0	0	0	0	0	0	0	0	0	0	0	0	0	0	0	0	0	0	0	0	0	0	0	0	0	0
072419	15:24:57	15:31:57	419721	5.0.10.0	5_exp_RW	85	Rpleas_acq	CS_B	MQQM	BZZB	GWWG	YDDY	VKKV	JXXJ	treu	ehrlich	spielen	retten	schön	fair	tot	eitel	strafen	rächen	schlecht	faul	1	acq_USpleas_CSpleas1_RW	acq4567_RW	4	21	400	1	300	300	419	46	0	0	1	blank2r.bmp	0	1	+	0	1	blank2r.bmp	492	1	MQQM	492	1	blank2r.bmp	572	1	treu	866	1	!	1239	1	!	1319	0	0	0	0	0	0	0	0	0	0	0	0	0	0	0	0	0	0	0	0	0	0	0	0	0	0	0	0	0	0
072419	15:24:57	15:32:01	423959	5.0.10.0	5_exp_RW	85	Rpleas_acq	CS_B	MQQM	BZZB	GWWG	YDDY	VKKV	JXXJ	treu	ehrlich	spielen	retten	schön	fair	tot	eitel	strafen	rächen	schlecht	faul	1	acq_USunple_CSunple2_RW	acq4567_RW	4	22	400	0	300	300	2464	46	0	1	1	blank2r.bmp	0	1	+	0	1	blank2r.bmp	492	1	YDDY	492	1	blank2r.bmp	572	3	faul	866	1	!	1239	1	!	-1	0	0	0	0	0	0	0	0	0	0	0	0	0	0	0	0	0	0	0	0	0	0	0	0	0	0	0	0	0	0
072419	15:24:57	15:32:03	426225	5.0.10.0	5_exp_RW	85	Rpleas_acq	CS_B	MQQM	BZZB	GWWG	YDDY	VKKV	JXXJ	treu	ehrlich	spielen	retten	schön	fair	tot	eitel	strafen	rächen	schlecht	faul	1	acq_USunple_CSunple2_RW	acq4567_RW	4	23	400	0	300	300	485	46	0	1	1	blank2r.bmp	0	1	+	0	1	blank2r.bmp	492	1	YDDY	492	1	blank2r.bmp	572	1	rächen	866	1	!	1239	1	!	-1	0	0	0	0	0	0	0	0	0	0	0	0	0	0	0	0	0	0	0	0	0	0	0	0	0	0	0	0	0	0
072419	15:24:57	15:32:06	428424	5.0.10.0	5_exp_RW	85	Rpleas_acq	CS_B	MQQM	BZZB	GWWG	YDDY	VKKV	JXXJ	treu	ehrlich	spielen	retten	schön	fair	tot	eitel	strafen	rächen	schlecht	faul	1	acq_USunple_CSunple2_RW	acq4567_RW	4	24	400	1	300	300	390	46	0	1	1	blank2r.bmp	0	1	+	0	1	blank2r.bmp	492	1	YDDY	492	1	blank2r.bmp	572	2	schlecht	866	1	!	1239	1	!	1292	0	0	0	0	0	0	0	0	0	0	0	0	0	0	0	0	0	0	0	0	0	0	0	0	0	0	0	0	0	0
072419	15:24:57	15:32:08	430583	5.0.10.0	5_exp_RW	85	Rpleas_acq	CS_B	MQQM	BZZB	GWWG	YDDY	VKKV	JXXJ	treu	ehrlich	spielen	retten	schön	fair	tot	eitel	strafen	rächen	schlecht	faul	1	acq_USpleas_CSpleas2_RW	acq4567_RW	4	25	400	1	300	300	359	50	0	1	1	blank2r.bmp	0	1	+	0	1	blank2r.bmp	492	1	BZZB	492	1	blank2r.bmp	572	3	fair	866	1	!	1239	1	!	1266	0	0	0	0	0	0	0	0	0	0	0	0	0	0	0	0	0	0	0	0	0	0	0	0	0	0	0	0	0	0
072419	15:24:57	15:32:10	432662	5.0.10.0	5_exp_RW	85	Rpleas_acq	CS_B	MQQM	BZZB	GWWG	YDDY	VKKV	JXXJ	treu	ehrlich	spielen	retten	schön	fair	tot	eitel	strafen	rächen	schlecht	faul	1	acq_USpleas_CSpleas2_RW	acq4567_RW	4	26	400	0	300	300	306	50	0	1	1	blank2r.bmp	0	1	+	0	1	blank2r.bmp	492	1	BZZB	492	1	blank2r.bmp	572	2	schön	866	1	!	-1	1	!	-1	0	0	0	0	0	0	0	0	0	0	0	0	0	0	0	0	0	0	0	0	0	0	0	0	0	0	0	0	0	0
072419	15:24:57	15:32:12	434741	5.0.10.0	5_exp_RW	85	Rpleas_acq	CS_B	MQQM	BZZB	GWWG	YDDY	VKKV	JXXJ	treu	ehrlich	spielen	retten	schön	fair	tot	eitel	strafen	rächen	schlecht	faul	1	acq_USunple_CSunple1_RW	acq4567_RW	4	27	400	0	300	300	293	46	0	1	1	blank2r.bmp	0	1	+	0	1	blank2r.bmp	492	1	GWWG	492	1	blank2r.bmp	572	2	eitel	866	1	!	-1	1	!	-1	0	0	0	0	0	0	0	0	0	0	0	0	0	0	0	0	0	0	0	0	0	0	0	0	0	0	0	0	0	0
072419	15:24:57	15:32:14	437060	5.0.10.0	5_exp_RW	85	Rpleas_acq	CS_B	MQQM	BZZB	GWWG	YDDY	VKKV	JXXJ	treu	ehrlich	spielen	retten	schön	fair	tot	eitel	strafen	rächen	schlecht	faul	1	acq_USpleas_CSpleas1_RW	acq4567_RW	4	28	400	0	300	300	530	50	0	1	1	blank2r.bmp	0	1	+	0	1	blank2r.bmp	492	1	MQQM	492	1	blank2r.bmp	572	3	spielen	866	1	!	1239	1	!	-1	0	0	0	0	0	0	0	0	0	0	0	0	0	0	0	0	0	0	0	0	0	0	0	0	0	0	0	0	0	0
072419	15:24:57	15:32:16	439272	5.0.10.0	5_exp_RW	85	Rpleas_acq	CS_B	MQQM	BZZB	GWWG	YDDY	VKKV	JXXJ	treu	ehrlich	spielen	retten	schön	fair	tot	eitel	strafen	rächen	schlecht	faul	1	acq_USpleas_CSpleas1_RW	acq4567_RW	4	29	400	1	300	300	400	46	0	0	1	blank2r.bmp	0	1	+	0	1	blank2r.bmp	492	1	MQQM	492	1	blank2r.bmp	572	2	ehrlich	866	1	!	1239	1	!	1306	0	0	0	0	0	0	0	0	0	0	0	0	0	0	0	0	0	0	0	0	0	0	0	0	0	0	0	0	0	0
072419	15:24:57	15:32:20	443004	5.0.10.0	5_exp_RW	85	Rpleas_acq	CS_B	MQQM	BZZB	GWWG	YDDY	VKKV	JXXJ	treu	ehrlich	spielen	retten	schön	fair	tot	eitel	strafen	rächen	schlecht	faul	1	acq_USunple_CSunple2_RW	acq4567_RW	4	30	400	0	300	300	1961	46	0	1	1	blank2r.bmp	0	1	+	0	1	blank2r.bmp	492	1	YDDY	492	1	blank2r.bmp	572	3	faul	866	1	!	1239	1	!	-1	0	0	0	0	0	0	0	0	0	0	0	0	0	0	0	0	0	0	0	0	0	0	0	0	0	0	0	0	0	0
072419	15:24:57	15:32:22	445217	5.0.10.0	5_exp_RW	85	Rpleas_acq	CS_B	MQQM	BZZB	GWWG	YDDY	VKKV	JXXJ	treu	ehrlich	spielen	retten	schön	fair	tot	eitel	strafen	rächen	schlecht	faul	1	acq_USpleas_CSpleas2_RW	acq4567_RW	4	31	400	1	300	300	408	46	0	0	1	blank2r.bmp	0	1	+	0	1	blank2r.bmp	492	1	BZZB	492	1	blank2r.bmp	572	1	retten	866	1	!	1239	1	!	1306	0	0	0	0	0	0	0	0	0	0	0	0	0	0	0	0	0	0	0	0	0	0	0	0	0	0	0	0	0	0
072419	15:24:57	15:32:25	447496	5.0.10.0	5_exp_RW	85	Rpleas_acq	CS_B	MQQM	BZZB	GWWG	YDDY	VKKV	JXXJ	treu	ehrlich	spielen	retten	schön	fair	tot	eitel	strafen	rächen	schlecht	faul	1	acq_USunple_CSunple1_RW	acq4567_RW	4	32	400	0	300	300	516	46	0	1	1	blank2r.bmp	0	1	+	0	1	blank2r.bmp	492	1	GWWG	492	1	blank2r.bmp	572	3	strafen	866	1	!	1239	1	!	-1	0	0	0	0	0	0	0	0	0	0	0	0	0	0	0	0	0	0	0	0	0	0	0	0	0	0	0	0	0	0
072419	15:24:57	15:32:27	449735	5.0.10.0	5_exp_RW	85	Rpleas_acq	CS_B	MQQM	BZZB	GWWG	YDDY	VKKV	JXXJ	treu	ehrlich	spielen	retten	schön	fair	tot	eitel	strafen	rächen	schlecht	faul	1	acq_USunple_CSunple1_RW	acq4567_RW	4	33	400	1	300	300	426	46	0	1	1	blank2r.bmp	0	1	+	0	1	blank2r.bmp	492	1	GWWG	492	1	blank2r.bmp	572	1	tot	866	1	!	1239	1	!	1332	0	0	0	0	0	0	0	0	0	0	0	0	0	0	0	0	0	0	0	0	0	0	0	0	0	0	0	0	0	0
072419	15:24:57	15:32:29	451841	5.0.10.0	5_exp_RW	85	Rpleas_acq	CS_B	MQQM	BZZB	GWWG	YDDY	VKKV	JXXJ	treu	ehrlich	spielen	retten	schön	fair	tot	eitel	strafen	rächen	schlecht	faul	1	acq_USpleas_CSpleas2_RW	acq4567_RW	4	34	400	0	300	300	332	50	0	1	1	blank2r.bmp	0	1	+	0	1	blank2r.bmp	492	1	BZZB	492	1	blank2r.bmp	572	2	schön	866	1	!	-1	1	!	-1	0	0	0	0	0	0	0	0	0	0	0	0	0	0	0	0	0	0	0	0	0	0	0	0	0	0	0	0	0	0
072419	15:24:57	15:32:31	454106	5.0.10.0	5_exp_RW	85	Rpleas_acq	CS_B	MQQM	BZZB	GWWG	YDDY	VKKV	JXXJ	treu	ehrlich	spielen	retten	schön	fair	tot	eitel	strafen	rächen	schlecht	faul	1	acq_USpleas_CSpleas1_RW	acq4567_RW	4	35	400	0	300	300	479	50	0	1	1	blank2r.bmp	0	1	+	0	1	blank2r.bmp	492	1	MQQM	492	1	blank2r.bmp	572	3	spielen	866	1	!	1239	1	!	-1	0	0	0	0	0	0	0	0	0	0	0	0	0	0	0	0	0	0	0	0	0	0	0	0	0	0	0	0	0	0
072419	15:24:57	15:32:33	456212	5.0.10.0	5_exp_RW	85	Rpleas_acq	CS_B	MQQM	BZZB	GWWG	YDDY	VKKV	JXXJ	treu	ehrlich	spielen	retten	schön	fair	tot	eitel	strafen	rächen	schlecht	faul	1	acq_USpleas_CSpleas1_RW	acq4567_RW	4	36	400	0	300	300	328	46	0	0	1	blank2r.bmp	0	1	+	0	1	blank2r.bmp	492	1	MQQM	492	1	blank2r.bmp	572	1	treu	866	1	!	-1	1	!	-1	0	0	0	0	0	0	0	0	0	0	0	0	0	0	0	0	0	0	0	0	0	0	0	0	0	0	0	0	0	0
072419	15:24:57	15:32:36	458478	5.0.10.0	5_exp_RW	85	Rpleas_acq	CS_B	MQQM	BZZB	GWWG	YDDY	VKKV	JXXJ	treu	ehrlich	spielen	retten	schön	fair	tot	eitel	strafen	rächen	schlecht	faul	1	acq_USunple_CSunple1_RW	acq4567_RW	4	37	400	1	300	300	459	46	0	1	1	blank2r.bmp	0	1	+	0	1	blank2r.bmp	492	1	GWWG	492	1	blank2r.bmp	572	2	eitel	866	1	!	1239	1	!	1359	0	0	0	0	0	0	0	0	0	0	0	0	0	0	0	0	0	0	0	0	0	0	0	0	0	0	0	0	0	0
072419	15:24:57	15:32:38	460570	5.0.10.0	5_exp_RW	85	Rpleas_acq	CS_B	MQQM	BZZB	GWWG	YDDY	VKKV	JXXJ	treu	ehrlich	spielen	retten	schön	fair	tot	eitel	strafen	rächen	schlecht	faul	1	acq_USunple_CSunple2_RW	acq4567_RW	4	38	400	0	300	300	322	46	0	1	1	blank2r.bmp	0	1	+	0	1	blank2r.bmp	492	1	YDDY	492	1	blank2r.bmp	572	2	schlecht	866	1	!	-1	1	!	-1	0	0	0	0	0	0	0	0	0	0	0	0	0	0	0	0	0	0	0	0	0	0	0	0	0	0	0	0	0	0
072419	15:24:57	15:32:40	462743	5.0.10.0	5_exp_RW	85	Rpleas_acq	CS_B	MQQM	BZZB	GWWG	YDDY	VKKV	JXXJ	treu	ehrlich	spielen	retten	schön	fair	tot	eitel	strafen	rächen	schlecht	faul	1	acq_USunple_CSunple1_RW	acq4567_RW	4	39	400	1	300	300	365	50	0	0	1	blank2r.bmp	0	1	+	0	1	blank2r.bmp	492	1	GWWG	492	1	blank2r.bmp	572	1	tot	866	1	!	1239	1	!	1266	0	0	0	0	0	0	0	0	0	0	0	0	0	0	0	0	0	0	0	0	0	0	0	0	0	0	0	0	0	0
072419	15:24:57	15:32:42	464955	5.0.10.0	5_exp_RW	85	Rpleas_acq	CS_B	MQQM	BZZB	GWWG	YDDY	VKKV	JXXJ	treu	ehrlich	spielen	retten	schön	fair	tot	eitel	strafen	rächen	schlecht	faul	1	acq_USpleas_CSpleas2_RW	acq4567_RW	4	40	400	1	300	300	418	46	0	0	1	blank2r.bmp	0	1	+	0	1	blank2r.bmp	492	1	BZZB	492	1	blank2r.bmp	572	1	retten	866	1	!	1239	1	!	1319	0	0	0	0	0	0	0	0	0	0	0	0	0	0	0	0	0	0	0	0	0	0	0	0	0	0	0	0	0	0
072419	15:24:57	15:32:46	468461	5.0.10.0	5_exp_RW	85	Rpleas_acq	CS_B	MQQM	BZZB	GWWG	YDDY	VKKV	JXXJ	treu	ehrlich	spielen	retten	schön	fair	tot	eitel	strafen	rächen	schlecht	faul	1	acq_USunple_CSunple2_RW	acq4567_RW	4	41	400	0	300	300	1720	46	0	1	1	blank2r.bmp	0	1	+	0	1	blank2r.bmp	492	1	YDDY	492	1	blank2r.bmp	572	1	rächen	866	1	!	1239	1	!	-1	0	0	0	0	0	0	0	0	0	0	0	0	0	0	0	0	0	0	0	0	0	0	0	0	0	0	0	0	0	0
072419	15:24:57	15:32:48	470686	5.0.10.0	5_exp_RW	85	Rpleas_acq	CS_B	MQQM	BZZB	GWWG	YDDY	VKKV	JXXJ	treu	ehrlich	spielen	retten	schön	fair	tot	eitel	strafen	rächen	schlecht	faul	1	acq_USpleas_CSpleas2_RW	acq4567_RW	4	42	400	1	300	300	423	50	0	1	1	blank2r.bmp	0	1	+	0	1	blank2r.bmp	492	1	BZZB	492	1	blank2r.bmp	572	3	fair	866	1	!	1239	1	!	1319	0	0	0	0	0	0	0	0	0	0	0	0	0	0	0	0	0	0	0	0	0	0	0	0	0	0	0	0	0	0
072419	15:24:57	15:32:50	472939	5.0.10.0	5_exp_RW	85	Rpleas_acq	CS_B	MQQM	BZZB	GWWG	YDDY	VKKV	JXXJ	treu	ehrlich	spielen	retten	schön	fair	tot	eitel	strafen	rächen	schlecht	faul	1	acq_USunple_CSunple2_RW	acq4567_RW	4	43	400	1	300	300	457	46	0	1	1	blank2r.bmp	0	1	+	0	1	blank2r.bmp	492	1	YDDY	492	1	blank2r.bmp	572	3	faul	866	1	!	1239	1	!	1359	0	0	0	0	0	0	0	0	0	0	0	0	0	0	0	0	0	0	0	0	0	0	0	0	0	0	0	0	0	0
072419	15:24:57	15:32:52	475191	5.0.10.0	5_exp_RW	85	Rpleas_acq	CS_B	MQQM	BZZB	GWWG	YDDY	VKKV	JXXJ	treu	ehrlich	spielen	retten	schön	fair	tot	eitel	strafen	rächen	schlecht	faul	1	acq_USunple_CSunple2_RW	acq4567_RW	4	44	400	0	300	300	479	50	0	0	1	blank2r.bmp	0	1	+	0	1	blank2r.bmp	492	1	YDDY	492	1	blank2r.bmp	572	1	rächen	866	1	!	1239	1	!	-1	0	0	0	0	0	0	0	0	0	0	0	0	0	0	0	0	0	0	0	0	0	0	0	0	0	0	0	0	0	0
072419	15:24:57	15:32:55	477430	5.0.10.0	5_exp_RW	85	Rpleas_acq	CS_B	MQQM	BZZB	GWWG	YDDY	VKKV	JXXJ	treu	ehrlich	spielen	retten	schön	fair	tot	eitel	strafen	rächen	schlecht	faul	1	acq_USpleas_CSpleas1_RW	acq4567_RW	4	45	400	1	300	300	424	46	0	0	1	blank2r.bmp	0	1	+	0	1	blank2r.bmp	492	1	MQQM	492	1	blank2r.bmp	572	2	ehrlich	866	1	!	1239	1	!	1319	0	0	0	0	0	0	0	0	0	0	0	0	0	0	0	0	0	0	0	0	0	0	0	0	0	0	0	0	0	0
072419	15:24:57	15:32:57	479683	5.0.10.0	5_exp_RW	85	Rpleas_acq	CS_B	MQQM	BZZB	GWWG	YDDY	VKKV	JXXJ	treu	ehrlich	spielen	retten	schön	fair	tot	eitel	strafen	rächen	schlecht	faul	1	acq_USpleas_CSpleas2_RW	acq4567_RW	4	46	400	0	300	300	479	50	0	1	1	blank2r.bmp	0	1	+	0	1	blank2r.bmp	492	1	BZZB	492	1	blank2r.bmp	572	1	retten	866	1	!	1239	1	!	-1	0	0	0	0	0	0	0	0	0	0	0	0	0	0	0	0	0	0	0	0	0	0	0	0	0	0	0	0	0	0
072419	15:24:57	15:32:59	481908	5.0.10.0	5_exp_RW	85	Rpleas_acq	CS_B	MQQM	BZZB	GWWG	YDDY	VKKV	JXXJ	treu	ehrlich	spielen	retten	schön	fair	tot	eitel	strafen	rächen	schlecht	faul	1	acq_USunple_CSunple2_RW	acq4567_RW	4	47	400	1	300	300	409	46	0	1	1	blank2r.bmp	0	1	+	0	1	blank2r.bmp	492	1	YDDY	492	1	blank2r.bmp	572	2	schlecht	866	1	!	1239	1	!	1306	0	0	0	0	0	0	0	0	0	0	0	0	0	0	0	0	0	0	0	0	0	0	0	0	0	0	0	0	0	0
072419	15:24:57	15:33:01	484161	5.0.10.0	5_exp_RW	85	Rpleas_acq	CS_B	MQQM	BZZB	GWWG	YDDY	VKKV	JXXJ	treu	ehrlich	spielen	retten	schön	fair	tot	eitel	strafen	rächen	schlecht	faul	1	acq_USunple_CSunple1_RW	acq4567_RW	4	48	400	1	300	300	463	46	0	1	1	blank2r.bmp	0	1	+	0	1	blank2r.bmp	492	1	GWWG	492	1	blank2r.bmp	572	3	strafen	866	1	!	1239	1	!	1359	0	0	0	0	0	0	0	0	0	0	0	0	0	0	0	0	0	0	0	0	0	0	0	0	0	0	0	0	0	0
072419	15:24:57	15:33:03	486240	5.0.10.0	5_exp_RW	85	Rpleas_acq	CS_B	MQQM	BZZB	GWWG	YDDY	VKKV	JXXJ	treu	ehrlich	spielen	retten	schön	fair	tot	eitel	strafen	rächen	schlecht	faul	1	acq_USunple_CSunple1_RW	acq4567_RW	4	49	400	0	300	300	305	50	0	0	1	blank2r.bmp	0	1	+	0	1	blank2r.bmp	492	1	GWWG	492	1	blank2r.bmp	572	1	tot	866	1	!	-1	1	!	-1	0	0	0	0	0	0	0	0	0	0	0	0	0	0	0	0	0	0	0	0	0	0	0	0	0	0	0	0	0	0
072419	15:24:57	15:33:06	488492	5.0.10.0	5_exp_RW	85	Rpleas_acq	CS_B	MQQM	BZZB	GWWG	YDDY	VKKV	JXXJ	treu	ehrlich	spielen	retten	schön	fair	tot	eitel	strafen	rächen	schlecht	faul	1	acq_USunple_CSunple1_RW	acq4567_RW	4	50	400	1	300	300	444	46	0	1	1	blank2r.bmp	0	1	+	0	1	blank2r.bmp	492	1	GWWG	492	1	blank2r.bmp	572	2	eitel	866	1	!	1239	1	!	1346	0	0	0	0	0	0	0	0	0	0	0	0	0	0	0	0	0	0	0	0	0	0	0	0	0	0	0	0	0	0
072419	15:24:57	15:33:08	490705	5.0.10.0	5_exp_RW	85	Rpleas_acq	CS_B	MQQM	BZZB	GWWG	YDDY	VKKV	JXXJ	treu	ehrlich	spielen	retten	schön	fair	tot	eitel	strafen	rächen	schlecht	faul	1	acq_USunple_CSunple2_RW	acq4567_RW	4	51	400	1	300	300	412	46	0	1	1	blank2r.bmp	0	1	+	0	1	blank2r.bmp	492	1	YDDY	492	1	blank2r.bmp	572	3	faul	866	1	!	1239	1	!	1319	0	0	0	0	0	0	0	0	0	0	0	0	0	0	0	0	0	0	0	0	0	0	0	0	0	0	0	0	0	0
072419	15:24:57	15:33:10	492784	5.0.10.0	5_exp_RW	85	Rpleas_acq	CS_B	MQQM	BZZB	GWWG	YDDY	VKKV	JXXJ	treu	ehrlich	spielen	retten	schön	fair	tot	eitel	strafen	rächen	schlecht	faul	1	acq_USpleas_CSpleas1_RW	acq4567_RW	4	52	400	0	300	300	310	46	0	0	1	blank2r.bmp	0	1	+	0	1	blank2r.bmp	492	1	MQQM	492	1	blank2r.bmp	572	1	treu	866	1	!	-1	1	!	-1	0	0	0	0	0	0	0	0	0	0	0	0	0	0	0	0	0	0	0	0	0	0	0	0	0	0	0	0	0	0
072419	15:24:57	15:33:12	494943	5.0.10.0	5_exp_RW	85	Rpleas_acq	CS_B	MQQM	BZZB	GWWG	YDDY	VKKV	JXXJ	treu	ehrlich	spielen	retten	schön	fair	tot	eitel	strafen	rächen	schlecht	faul	1	acq_USpleas_CSpleas2_RW	acq4567_RW	4	53	400	1	300	300	346	50	0	1	1	blank2r.bmp	0	1	+	0	1	blank2r.bmp	492	1	BZZB	492	1	blank2r.bmp	572	2	schön	866	1	!	1239	1	!	1252	0	0	0	0	0	0	0	0	0	0	0	0	0	0	0	0	0	0	0	0	0	0	0	0	0	0	0	0	0	0
072419	15:24:57	15:33:14	497209	5.0.10.0	5_exp_RW	85	Rpleas_acq	CS_B	MQQM	BZZB	GWWG	YDDY	VKKV	JXXJ	treu	ehrlich	spielen	retten	schön	fair	tot	eitel	strafen	rächen	schlecht	faul	1	acq_USpleas_CSpleas1_RW	acq4567_RW	4	54	400	0	300	300	498	46	0	0	1	blank2r.bmp	0	1	+	0	1	blank2r.bmp	492	1	MQQM	492	1	blank2r.bmp	572	3	spielen	866	1	!	1239	1	!	-1	0	0	0	0	0	0	0	0	0	0	0	0	0	0	0	0	0	0	0	0	0	0	0	0	0	0	0	0	0	0
072419	15:24:57	15:33:17	499434	5.0.10.0	5_exp_RW	85	Rpleas_acq	CS_B	MQQM	BZZB	GWWG	YDDY	VKKV	JXXJ	treu	ehrlich	spielen	retten	schön	fair	tot	eitel	strafen	rächen	schlecht	faul	1	acq_USpleas_CSpleas2_RW	acq4567_RW	4	55	400	1	300	300	423	50	0	1	1	blank2r.bmp	0	1	+	0	1	blank2r.bmp	492	1	BZZB	492	1	blank2r.bmp	572	3	fair	866	1	!	1239	1	!	1319	0	0	0	0	0	0	0	0	0	0	0	0	0	0	0	0	0	0	0	0	0	0	0	0	0	0	0	0	0	0
072419	15:24:57	15:33:20	502820	5.0.10.0	5_exp_RW	85	Rpleas_acq	CS_B	MQQM	BZZB	GWWG	YDDY	VKKV	JXXJ	treu	ehrlich	spielen	retten	schön	fair	tot	eitel	strafen	rächen	schlecht	faul	1	acq_USpleas_CSpleas2_RW	acq4567_RW	4	56	400	0	300	300	1621	50	0	1	1	blank2r.bmp	0	1	+	0	1	blank2r.bmp	492	1	BZZB	492	1	blank2r.bmp	572	2	schön	866	1	!	1239	1	!	-1	0	0	0	0	0	0	0	0	0	0	0	0	0	0	0	0	0	0	0	0	0	0	0	0	0	0	0	0	0	0
072419	15:24:57	15:33:22	505032	5.0.10.0	5_exp_RW	85	Rpleas_acq	CS_B	MQQM	BZZB	GWWG	YDDY	VKKV	JXXJ	treu	ehrlich	spielen	retten	schön	fair	tot	eitel	strafen	rächen	schlecht	faul	1	acq_USunple_CSunple1_RW	acq4567_RW	4	57	400	1	300	300	400	46	0	1	1	blank2r.bmp	0	1	+	0	1	blank2r.bmp	492	1	GWWG	492	1	blank2r.bmp	572	3	strafen	866	1	!	1239	1	!	1306	0	0	0	0	0	0	0	0	0	0	0	0	0	0	0	0	0	0	0	0	0	0	0	0	0	0	0	0	0	0
072419	15:24:57	15:33:24	507285	5.0.10.0	5_exp_RW	85	Rpleas_acq	CS_B	MQQM	BZZB	GWWG	YDDY	VKKV	JXXJ	treu	ehrlich	spielen	retten	schön	fair	tot	eitel	strafen	rächen	schlecht	faul	1	acq_USpleas_CSpleas1_RW	acq4567_RW	4	58	400	1	300	300	439	50	0	1	1	blank2r.bmp	0	1	+	0	1	blank2r.bmp	492	1	MQQM	492	1	blank2r.bmp	572	2	ehrlich	866	1	!	1239	1	!	1346	0	0	0	0	0	0	0	0	0	0	0	0	0	0	0	0	0	0	0	0	0	0	0	0	0	0	0	0	0	0
072419	15:24:57	15:33:27	509457	5.0.10.0	5_exp_RW	85	Rpleas_acq	CS_B	MQQM	BZZB	GWWG	YDDY	VKKV	JXXJ	treu	ehrlich	spielen	retten	schön	fair	tot	eitel	strafen	rächen	schlecht	faul	1	acq_USunple_CSunple1_RW	acq4567_RW	4	59	400	1	300	300	385	46	0	1	1	blank2r.bmp	0	1	+	0	1	blank2r.bmp	492	1	GWWG	492	1	blank2r.bmp	572	3	strafen	866	1	!	1239	1	!	1279	0	0	0	0	0	0	0	0	0	0	0	0	0	0	0	0	0	0	0	0	0	0	0	0	0	0	0	0	0	0
072419	15:24:57	15:33:29	511629	5.0.10.0	5_exp_RW	85	Rpleas_acq	CS_B	MQQM	BZZB	GWWG	YDDY	VKKV	JXXJ	treu	ehrlich	spielen	retten	schön	fair	tot	eitel	strafen	rächen	schlecht	faul	1	acq_USpleas_CSpleas1_RW	acq4567_RW	4	60	400	1	300	300	385	50	0	1	1	blank2r.bmp	0	1	+	0	1	blank2r.bmp	492	1	MQQM	492	1	blank2r.bmp	572	1	treu	866	1	!	1239	1	!	1279	0	0	0	0	0	0	0	0	0	0	0	0	0	0	0	0	0	0	0	0	0	0	0	0	0	0	0	0	0	0
072419	15:24:57	15:33:31	513709	5.0.10.0	5_exp_RW	85	Rpleas_acq	CS_B	MQQM	BZZB	GWWG	YDDY	VKKV	JXXJ	treu	ehrlich	spielen	retten	schön	fair	tot	eitel	strafen	rächen	schlecht	faul	1	acq_USpleas_CSpleas1_RW	acq4567_RW	4	61	400	0	300	300	301	46	0	0	1	blank2r.bmp	0	1	+	0	1	blank2r.bmp	492	1	MQQM	492	1	blank2r.bmp	572	3	spielen	866	1	!	-1	1	!	-1	0	0	0	0	0	0	0	0	0	0	0	0	0	0	0	0	0	0	0	0	0	0	0	0	0	0	0	0	0	0
072419	15:24:57	15:33:33	515961	5.0.10.0	5_exp_RW	85	Rpleas_acq	CS_B	MQQM	BZZB	GWWG	YDDY	VKKV	JXXJ	treu	ehrlich	spielen	retten	schön	fair	tot	eitel	strafen	rächen	schlecht	faul	1	acq_USpleas_CSpleas2_RW	acq4567_RW	4	62	400	1	300	300	441	50	0	1	1	blank2r.bmp	0	1	+	0	1	blank2r.bmp	492	1	BZZB	492	1	blank2r.bmp	572	1	retten	866	1	!	1239	1	!	1346	0	0	0	0	0	0	0	0	0	0	0	0	0	0	0	0	0	0	0	0	0	0	0	0	0	0	0	0	0	0
072419	15:24:57	15:33:35	518173	5.0.10.0	5_exp_RW	85	Rpleas_acq	CS_B	MQQM	BZZB	GWWG	YDDY	VKKV	JXXJ	treu	ehrlich	spielen	retten	schön	fair	tot	eitel	strafen	rächen	schlecht	faul	1	acq_USunple_CSunple2_RW	acq4567_RW	4	63	400	1	300	300	413	46	0	1	1	blank2r.bmp	0	1	+	0	1	blank2r.bmp	492	1	YDDY	492	1	blank2r.bmp	572	2	schlecht	866	1	!	1239	1	!	1319	0	0	0	0	0	0	0	0	0	0	0	0	0	0	0	0	0	0	0	0	0	0	0	0	0	0	0	0	0	0
072419	15:24:57	15:33:38	520346	5.0.10.0	5_exp_RW	85	Rpleas_acq	CS_B	MQQM	BZZB	GWWG	YDDY	VKKV	JXXJ	treu	ehrlich	spielen	retten	schön	fair	tot	eitel	strafen	rächen	schlecht	faul	1	acq_USpleas_CSpleas2_RW	acq4567_RW	4	64	400	1	300	300	385	50	0	1	1	blank2r.bmp	0	1	+	0	1	blank2r.bmp	492	1	BZZB	492	1	blank2r.bmp	572	3	fair	866	1	!	1239	1	!	1279	0	0	0	0	0	0	0	0	0	0	0	0	0	0	0	0	0	0	0	0	0	0	0	0	0	0	0	0	0	0
072419	15:24:57	15:33:40	522492	5.0.10.0	5_exp_RW	85	Rpleas_acq	CS_B	MQQM	BZZB	GWWG	YDDY	VKKV	JXXJ	treu	ehrlich	spielen	retten	schön	fair	tot	eitel	strafen	rächen	schlecht	faul	1	acq_USpleas_CSpleas1_RW	acq4567_RW	4	65	400	1	300	300	348	46	0	0	1	blank2r.bmp	0	1	+	0	1	blank2r.bmp	492	1	MQQM	492	1	blank2r.bmp	572	2	ehrlich	866	1	!	1239	1	!	1252	0	0	0	0	0	0	0	0	0	0	0	0	0	0	0	0	0	0	0	0	0	0	0	0	0	0	0	0	0	0
072419	15:24:57	15:33:42	524584	5.0.10.0	5_exp_RW	85	Rpleas_acq	CS_B	MQQM	BZZB	GWWG	YDDY	VKKV	JXXJ	treu	ehrlich	spielen	retten	schön	fair	tot	eitel	strafen	rächen	schlecht	faul	1	acq_USpleas_CSpleas2_RW	acq4567_RW	4	66	400	0	300	300	325	50	0	1	1	blank2r.bmp	0	1	+	0	1	blank2r.bmp	492	1	BZZB	492	1	blank2r.bmp	572	3	fair	866	1	!	-1	1	!	-1	0	0	0	0	0	0	0	0	0	0	0	0	0	0	0	0	0	0	0	0	0	0	0	0	0	0	0	0	0	0
072419	15:24:57	15:33:44	526850	5.0.10.0	5_exp_RW	85	Rpleas_acq	CS_B	MQQM	BZZB	GWWG	YDDY	VKKV	JXXJ	treu	ehrlich	spielen	retten	schön	fair	tot	eitel	strafen	rächen	schlecht	faul	1	acq_USunple_CSunple2_RW	acq4567_RW	4	67	400	1	300	300	462	46	0	1	1	blank2r.bmp	0	1	+	0	1	blank2r.bmp	492	1	YDDY	492	1	blank2r.bmp	572	1	rächen	866	1	!	1239	1	!	1359	0	0	0	0	0	0	0	0	0	0	0	0	0	0	0	0	0	0	0	0	0	0	0	0	0	0	0	0	0	0
072419	15:24:57	15:33:46	528996	5.0.10.0	5_exp_RW	85	Rpleas_acq	CS_B	MQQM	BZZB	GWWG	YDDY	VKKV	JXXJ	treu	ehrlich	spielen	retten	schön	fair	tot	eitel	strafen	rächen	schlecht	faul	1	acq_USpleas_CSpleas1_RW	acq4567_RW	4	68	400	1	300	300	346	50	0	1	1	blank2r.bmp	0	1	+	0	1	blank2r.bmp	492	1	MQQM	492	1	blank2r.bmp	572	3	spielen	866	1	!	1239	1	!	1252	0	0	0	0	0	0	0	0	0	0	0	0	0	0	0	0	0	0	0	0	0	0	0	0	0	0	0	0	0	0
072419	15:24:57	15:33:48	531208	5.0.10.0	5_exp_RW	85	Rpleas_acq	CS_B	MQQM	BZZB	GWWG	YDDY	VKKV	JXXJ	treu	ehrlich	spielen	retten	schön	fair	tot	eitel	strafen	rächen	schlecht	faul	1	acq_USunple_CSunple1_RW	acq4567_RW	4	69	400	1	300	300	421	46	0	1	1	blank2r.bmp	0	1	+	0	1	blank2r.bmp	492	1	GWWG	492	1	blank2r.bmp	572	1	tot	866	1	!	1239	1	!	1319	0	0	0	0	0	0	0	0	0	0	0	0	0	0	0	0	0	0	0	0	0	0	0	0	0	0	0	0	0	0
072419	15:24:57	15:33:51	533474	5.0.10.0	5_exp_RW	85	Rpleas_acq	CS_B	MQQM	BZZB	GWWG	YDDY	VKKV	JXXJ	treu	ehrlich	spielen	retten	schön	fair	tot	eitel	strafen	rächen	schlecht	faul	1	acq_USunple_CSunple2_RW	acq4567_RW	4	70	400	1	300	300	461	46	0	1	1	blank2r.bmp	0	1	+	0	1	blank2r.bmp	492	1	YDDY	492	1	blank2r.bmp	572	3	faul	866	1	!	1239	1	!	1359	0	0	0	0	0	0	0	0	0	0	0	0	0	0	0	0	0	0	0	0	0	0	0	0	0	0	0	0	0	0
072419	15:24:57	15:33:53	535540	5.0.10.0	5_exp_RW	85	Rpleas_acq	CS_B	MQQM	BZZB	GWWG	YDDY	VKKV	JXXJ	treu	ehrlich	spielen	retten	schön	fair	tot	eitel	strafen	rächen	schlecht	faul	1	acq_USunple_CSunple2_RW	acq4567_RW	4	71	400	0	300	300	293	46	0	1	1	blank2r.bmp	0	1	+	0	1	blank2r.bmp	492	1	YDDY	492	1	blank2r.bmp	572	1	rächen	866	1	!	-1	1	!	-1	0	0	0	0	0	0	0	0	0	0	0	0	0	0	0	0	0	0	0	0	0	0	0	0	0	0	0	0	0	0
072419	15:24:57	15:33:55	537792	5.0.10.0	5_exp_RW	85	Rpleas_acq	CS_B	MQQM	BZZB	GWWG	YDDY	VKKV	JXXJ	treu	ehrlich	spielen	retten	schön	fair	tot	eitel	strafen	rächen	schlecht	faul	1	acq_USunple_CSunple2_RW	acq4567_RW	4	72	400	1	300	300	446	50	0	0	1	blank2r.bmp	0	1	+	0	1	blank2r.bmp	492	1	YDDY	492	1	blank2r.bmp	572	2	schlecht	866	1	!	1239	1	!	1346	0	0	0	0	0	0	0	0	0	0	0	0	0	0	0	0	0	0	0	0	0	0	0	0	0	0	0	0	0	0
072419	15:24:57	15:33:57	539951	5.0.10.0	5_exp_RW	85	Rpleas_acq	CS_B	MQQM	BZZB	GWWG	YDDY	VKKV	JXXJ	treu	ehrlich	spielen	retten	schön	fair	tot	eitel	strafen	rächen	schlecht	faul	1	acq_USpleas_CSpleas2_RW	acq4567_RW	4	73	400	1	300	300	363	46	0	0	1	blank2r.bmp	0	1	+	0	1	blank2r.bmp	492	1	BZZB	492	1	blank2r.bmp	572	1	retten	866	1	!	1239	1	!	1266	0	0	0	0	0	0	0	0	0	0	0	0	0	0	0	0	0	0	0	0	0	0	0	0	0	0	0	0	0	0
072419	15:24:57	15:33:59	542097	5.0.10.0	5_exp_RW	85	Rpleas_acq	CS_B	MQQM	BZZB	GWWG	YDDY	VKKV	JXXJ	treu	ehrlich	spielen	retten	schön	fair	tot	eitel	strafen	rächen	schlecht	faul	1	acq_USpleas_CSpleas2_RW	acq4567_RW	4	74	400	1	300	300	357	50	0	1	1	blank2r.bmp	0	1	+	0	1	blank2r.bmp	492	1	BZZB	492	1	blank2r.bmp	572	2	schön	866	1	!	1239	1	!	1252	0	0	0	0	0	0	0	0	0	0	0	0	0	0	0	0	0	0	0	0	0	0	0	0	0	0	0	0	0	0
072419	15:24:57	15:34:01	544296	5.0.10.0	5_exp_RW	85	Rpleas_acq	CS_B	MQQM	BZZB	GWWG	YDDY	VKKV	JXXJ	treu	ehrlich	spielen	retten	schön	fair	tot	eitel	strafen	rächen	schlecht	faul	1	acq_USpleas_CSpleas1_RW	acq4567_RW	4	75	400	1	300	300	394	46	0	0	1	blank2r.bmp	0	1	+	0	1	blank2r.bmp	492	1	MQQM	492	1	blank2r.bmp	572	1	treu	866	1	!	1239	1	!	1292	0	0	0	0	0	0	0	0	0	0	0	0	0	0	0	0	0	0	0	0	0	0	0	0	0	0	0	0	0	0
072419	15:24:57	15:34:04	546389	5.0.10.0	5_exp_RW	85	Rpleas_acq	CS_B	MQQM	BZZB	GWWG	YDDY	VKKV	JXXJ	treu	ehrlich	spielen	retten	schön	fair	tot	eitel	strafen	rächen	schlecht	faul	1	acq_USunple_CSunple1_RW	acq4567_RW	4	76	400	0	300	300	318	50	0	0	1	blank2r.bmp	0	1	+	0	1	blank2r.bmp	492	1	GWWG	492	1	blank2r.bmp	572	2	eitel	866	1	!	-1	1	!	-1	0	0	0	0	0	0	0	0	0	0	0	0	0	0	0	0	0	0	0	0	0	0	0	0	0	0	0	0	0	0
072419	15:24:57	15:34:06	548628	5.0.10.0	5_exp_RW	85	Rpleas_acq	CS_B	MQQM	BZZB	GWWG	YDDY	VKKV	JXXJ	treu	ehrlich	spielen	retten	schön	fair	tot	eitel	strafen	rächen	schlecht	faul	1	acq_USunple_CSunple1_RW	acq4567_RW	4	77	400	1	300	300	417	50	0	0	1	blank2r.bmp	0	1	+	0	1	blank2r.bmp	492	1	GWWG	492	1	blank2r.bmp	572	2	eitel	866	1	!	1239	1	!	1319	0	0	0	0	0	0	0	0	0	0	0	0	0	0	0	0	0	0	0	0	0	0	0	0	0	0	0	0	0	0
072419	15:24:57	15:34:08	550840	5.0.10.0	5_exp_RW	85	Rpleas_acq	CS_B	MQQM	BZZB	GWWG	YDDY	VKKV	JXXJ	treu	ehrlich	spielen	retten	schön	fair	tot	eitel	strafen	rächen	schlecht	faul	1	acq_USunple_CSunple1_RW	acq4567_RW	4	78	400	1	300	300	412	46	0	1	1	blank2r.bmp	0	1	+	0	1	blank2r.bmp	492	1	GWWG	492	1	blank2r.bmp	572	1	tot	866	1	!	1239	1	!	1319	0	0	0	0	0	0	0	0	0	0	0	0	0	0	0	0	0	0	0	0	0	0	0	0	0	0	0	0	0	0
072419	15:24:57	15:34:10	553066	5.0.10.0	5_exp_RW	85	Rpleas_acq	CS_B	MQQM	BZZB	GWWG	YDDY	VKKV	JXXJ	treu	ehrlich	spielen	retten	schön	fair	tot	eitel	strafen	rächen	schlecht	faul	1	acq_USunple_CSunple1_RW	acq4567_RW	4	79	400	1	300	300	428	50	0	0	1	blank2r.bmp	0	1	+	0	1	blank2r.bmp	492	1	GWWG	492	1	blank2r.bmp	572	3	strafen	866	1	!	1239	1	!	1332	0	0	0	0	0	0	0	0	0	0	0	0	0	0	0	0	0	0	0	0	0	0	0	0	0	0	0	0	0	0
072419	15:24:57	15:34:12	555318	5.0.10.0	5_exp_RW	85	Rpleas_acq	CS_B	MQQM	BZZB	GWWG	YDDY	VKKV	JXXJ	treu	ehrlich	spielen	retten	schön	fair	tot	eitel	strafen	rächen	schlecht	faul	1	acq_USpleas_CSpleas1_RW	acq4567_RW	4	80	400	1	300	300	452	46	0	0	1	blank2r.bmp	0	1	+	0	1	blank2r.bmp	492	1	MQQM	492	1	blank2r.bmp	572	2	ehrlich	866	1	!	1239	1	!	1359	0	0	0	0	0	0	0	0	0	0	0	0	0	0	0	0	0	0	0	0	0	0	0	0	0	0	0	0	0	0
072419	15:24:57	15:34:39	581348	5.0.10.0	5_exp_RW	85	Rpleas_acq	CS_B	MQQM	BZZB	GWWG	YDDY	VKKV	JXXJ	treu	ehrlich	spielen	retten	schön	fair	tot	eitel	strafen	rächen	schlecht	faul	1	acq_USpleas_CSpleas2_RW	acq4567_RW	5	1	400	1	300	300	365	50	0	1	1	blank2r.bmp	0	1	+	0	1	blank2r.bmp	492	1	BZZB	492	1	blank2r.bmp	572	2	schön	866	1	!	1239	1	!	1266	0	0	0	0	0	0	0	0	0	0	0	0	0	0	0	0	0	0	0	0	0	0	0	0	0	0	0	0	0	0
072419	15:24:57	15:34:41	583547	5.0.10.0	5_exp_RW	85	Rpleas_acq	CS_B	MQQM	BZZB	GWWG	YDDY	VKKV	JXXJ	treu	ehrlich	spielen	retten	schön	fair	tot	eitel	strafen	rächen	schlecht	faul	1	acq_USpleas_CSpleas2_RW	acq4567_RW	5	2	400	1	300	300	405	50	0	1	1	blank2r.bmp	0	1	+	0	1	blank2r.bmp	492	1	BZZB	492	1	blank2r.bmp	572	3	fair	866	1	!	1239	1	!	1306	0	0	0	0	0	0	0	0	0	0	0	0	0	0	0	0	0	0	0	0	0	0	0	0	0	0	0	0	0	0
072419	15:24:57	15:34:43	585692	5.0.10.0	5_exp_RW	85	Rpleas_acq	CS_B	MQQM	BZZB	GWWG	YDDY	VKKV	JXXJ	treu	ehrlich	spielen	retten	schön	fair	tot	eitel	strafen	rächen	schlecht	faul	1	acq_USpleas_CSpleas1_RW	acq4567_RW	5	3	400	1	300	300	352	50	0	1	1	blank2r.bmp	0	1	+	0	1	blank2r.bmp	492	1	MQQM	492	1	blank2r.bmp	572	3	spielen	866	1	!	1239	1	!	1252	0	0	0	0	0	0	0	0	0	0	0	0	0	0	0	0	0	0	0	0	0	0	0	0	0	0	0	0	0	0
072419	15:24:57	15:34:45	587891	5.0.10.0	5_exp_RW	85	Rpleas_acq	CS_B	MQQM	BZZB	GWWG	YDDY	VKKV	JXXJ	treu	ehrlich	spielen	retten	schön	fair	tot	eitel	strafen	rächen	schlecht	faul	1	acq_USunple_CSunple1_RW	acq4567_RW	5	4	400	1	300	300	400	46	0	1	1	blank2r.bmp	0	1	+	0	1	blank2r.bmp	492	1	GWWG	492	1	blank2r.bmp	572	1	tot	866	1	!	1239	1	!	1306	0	0	0	0	0	0	0	0	0	0	0	0	0	0	0	0	0	0	0	0	0	0	0	0	0	0	0	0	0	0
072419	15:24:57	15:34:47	590064	5.0.10.0	5_exp_RW	85	Rpleas_acq	CS_B	MQQM	BZZB	GWWG	YDDY	VKKV	JXXJ	treu	ehrlich	spielen	retten	schön	fair	tot	eitel	strafen	rächen	schlecht	faul	1	acq_USunple_CSunple1_RW	acq4567_RW	5	5	400	1	300	300	385	50	0	0	1	blank2r.bmp	0	1	+	0	1	blank2r.bmp	492	1	GWWG	492	1	blank2r.bmp	572	2	eitel	866	1	!	1239	1	!	1279	0	0	0	0	0	0	0	0	0	0	0	0	0	0	0	0	0	0	0	0	0	0	0	0	0	0	0	0	0	0
072419	15:24:57	15:34:50	592330	5.0.10.0	5_exp_RW	85	Rpleas_acq	CS_B	MQQM	BZZB	GWWG	YDDY	VKKV	JXXJ	treu	ehrlich	spielen	retten	schön	fair	tot	eitel	strafen	rächen	schlecht	faul	1	acq_USpleas_CSpleas1_RW	acq4567_RW	5	6	400	1	300	300	455	46	0	0	1	blank2r.bmp	0	1	+	0	1	blank2r.bmp	492	1	MQQM	492	1	blank2r.bmp	572	1	treu	866	1	!	1239	1	!	1359	0	0	0	0	0	0	0	0	0	0	0	0	0	0	0	0	0	0	0	0	0	0	0	0	0	0	0	0	0	0
072419	15:24:57	15:34:52	594555	5.0.10.0	5_exp_RW	85	Rpleas_acq	CS_B	MQQM	BZZB	GWWG	YDDY	VKKV	JXXJ	treu	ehrlich	spielen	retten	schön	fair	tot	eitel	strafen	rächen	schlecht	faul	1	acq_USunple_CSunple2_RW	acq4567_RW	5	7	400	1	300	300	432	46	0	1	1	blank2r.bmp	0	1	+	0	1	blank2r.bmp	492	1	YDDY	492	1	blank2r.bmp	572	3	faul	866	1	!	1239	1	!	1332	0	0	0	0	0	0	0	0	0	0	0	0	0	0	0	0	0	0	0	0	0	0	0	0	0	0	0	0	0	0
072419	15:24:57	15:34:54	596741	5.0.10.0	5_exp_RW	85	Rpleas_acq	CS_B	MQQM	BZZB	GWWG	YDDY	VKKV	JXXJ	treu	ehrlich	spielen	retten	schön	fair	tot	eitel	strafen	rächen	schlecht	faul	1	acq_USunple_CSunple1_RW	acq4567_RW	5	8	400	1	300	300	387	46	0	1	1	blank2r.bmp	0	1	+	0	1	blank2r.bmp	492	1	GWWG	492	1	blank2r.bmp	572	3	strafen	866	1	!	1239	1	!	1292	0	0	0	0	0	0	0	0	0	0	0	0	0	0	0	0	0	0	0	0	0	0	0	0	0	0	0	0	0	0
072419	15:24:57	15:34:56	598940	5.0.10.0	5_exp_RW	85	Rpleas_acq	CS_B	MQQM	BZZB	GWWG	YDDY	VKKV	JXXJ	treu	ehrlich	spielen	retten	schön	fair	tot	eitel	strafen	rächen	schlecht	faul	1	acq_USunple_CSunple1_RW	acq4567_RW	5	9	400	1	300	300	389	46	0	1	1	blank2r.bmp	0	1	+	0	1	blank2r.bmp	492	1	GWWG	492	1	blank2r.bmp	572	3	strafen	866	1	!	1239	1	!	1292	0	0	0	0	0	0	0	0	0	0	0	0	0	0	0	0	0	0	0	0	0	0	0	0	0	0	0	0	0	0
072419	15:24:57	15:34:58	601046	5.0.10.0	5_exp_RW	85	Rpleas_acq	CS_B	MQQM	BZZB	GWWG	YDDY	VKKV	JXXJ	treu	ehrlich	spielen	retten	schön	fair	tot	eitel	strafen	rächen	schlecht	faul	1	acq_USpleas_CSpleas2_RW	acq4567_RW	5	10	400	0	300	300	331	50	0	1	1	blank2r.bmp	0	1	+	0	1	blank2r.bmp	492	1	BZZB	492	1	blank2r.bmp	572	1	retten	866	1	!	-1	1	!	-1	0	0	0	0	0	0	0	0	0	0	0	0	0	0	0	0	0	0	0	0	0	0	0	0	0	0	0	0	0	0
072419	15:24:57	15:35:00	603152	5.0.10.0	5_exp_RW	85	Rpleas_acq	CS_B	MQQM	BZZB	GWWG	YDDY	VKKV	JXXJ	treu	ehrlich	spielen	retten	schön	fair	tot	eitel	strafen	rächen	schlecht	faul	1	acq_USpleas_CSpleas1_RW	acq4567_RW	5	11	400	0	300	300	327	50	0	1	1	blank2r.bmp	0	1	+	0	1	blank2r.bmp	492	1	MQQM	492	1	blank2r.bmp	572	2	ehrlich	866	1	!	-1	1	!	-1	0	0	0	0	0	0	0	0	0	0	0	0	0	0	0	0	0	0	0	0	0	0	0	0	0	0	0	0	0	0
072419	15:24:57	15:35:03	605351	5.0.10.0	5_exp_RW	85	Rpleas_acq	CS_B	MQQM	BZZB	GWWG	YDDY	VKKV	JXXJ	treu	ehrlich	spielen	retten	schön	fair	tot	eitel	strafen	rächen	schlecht	faul	1	acq_USunple_CSunple2_RW	acq4567_RW	5	12	400	1	300	300	387	46	0	1	1	blank2r.bmp	0	1	+	0	1	blank2r.bmp	492	1	YDDY	492	1	blank2r.bmp	572	2	schlecht	866	1	!	1239	1	!	1292	0	0	0	0	0	0	0	0	0	0	0	0	0	0	0	0	0	0	0	0	0	0	0	0	0	0	0	0	0	0
072419	15:24:57	15:35:06	608563	5.0.10.0	5_exp_RW	85	Rpleas_acq	CS_B	MQQM	BZZB	GWWG	YDDY	VKKV	JXXJ	treu	ehrlich	spielen	retten	schön	fair	tot	eitel	strafen	rächen	schlecht	faul	1	acq_USunple_CSunple1_RW	acq4567_RW	5	13	400	0	300	300	1438	46	0	1	1	blank2r.bmp	0	1	+	0	1	blank2r.bmp	492	1	GWWG	492	1	blank2r.bmp	572	2	eitel	866	1	!	1239	1	!	-1	0	0	0	0	0	0	0	0	0	0	0	0	0	0	0	0	0	0	0	0	0	0	0	0	0	0	0	0	0	0
072419	15:24:57	15:35:08	610735	5.0.10.0	5_exp_RW	85	Rpleas_acq	CS_B	MQQM	BZZB	GWWG	YDDY	VKKV	JXXJ	treu	ehrlich	spielen	retten	schön	fair	tot	eitel	strafen	rächen	schlecht	faul	1	acq_USpleas_CSpleas2_RW	acq4567_RW	5	14	400	1	300	300	369	50	0	1	1	blank2r.bmp	0	1	+	0	1	blank2r.bmp	492	1	BZZB	492	1	blank2r.bmp	572	2	schön	866	1	!	1239	1	!	1266	0	0	0	0	0	0	0	0	0	0	0	0	0	0	0	0	0	0	0	0	0	0	0	0	0	0	0	0	0	0
072419	15:24:57	15:35:10	613001	5.0.10.0	5_exp_RW	85	Rpleas_acq	CS_B	MQQM	BZZB	GWWG	YDDY	VKKV	JXXJ	treu	ehrlich	spielen	retten	schön	fair	tot	eitel	strafen	rächen	schlecht	faul	1	acq_USunple_CSunple2_RW	acq4567_RW	5	15	400	0	300	300	479	46	0	1	1	blank2r.bmp	0	1	+	0	1	blank2r.bmp	492	1	YDDY	492	1	blank2r.bmp	572	1	rächen	866	1	!	1239	1	!	-1	0	0	0	0	0	0	0	0	0	0	0	0	0	0	0	0	0	0	0	0	0	0	0	0	0	0	0	0	0	0
072419	15:24:57	15:35:12	615227	5.0.10.0	5_exp_RW	85	Rpleas_acq	CS_B	MQQM	BZZB	GWWG	YDDY	VKKV	JXXJ	treu	ehrlich	spielen	retten	schön	fair	tot	eitel	strafen	rächen	schlecht	faul	1	acq_USunple_CSunple2_RW	acq4567_RW	5	16	400	1	300	300	416	46	0	1	1	blank2r.bmp	0	1	+	0	1	blank2r.bmp	492	1	YDDY	492	1	blank2r.bmp	572	3	faul	866	1	!	1239	1	!	1319	0	0	0	0	0	0	0	0	0	0	0	0	0	0	0	0	0	0	0	0	0	0	0	0	0	0	0	0	0	0
072419	15:24:57	15:35:15	617426	5.0.10.0	5_exp_RW	85	Rpleas_acq	CS_B	MQQM	BZZB	GWWG	YDDY	VKKV	JXXJ	treu	ehrlich	spielen	retten	schön	fair	tot	eitel	strafen	rächen	schlecht	faul	1	acq_USpleas_CSpleas1_RW	acq4567_RW	5	17	400	1	300	300	395	50	0	1	1	blank2r.bmp	0	1	+	0	1	blank2r.bmp	492	1	MQQM	492	1	blank2r.bmp	572	3	spielen	866	1	!	1239	1	!	1292	0	0	0	0	0	0	0	0	0	0	0	0	0	0	0	0	0	0	0	0	0	0	0	0	0	0	0	0	0	0
072419	15:24:57	15:35:17	619692	5.0.10.0	5_exp_RW	85	Rpleas_acq	CS_B	MQQM	BZZB	GWWG	YDDY	VKKV	JXXJ	treu	ehrlich	spielen	retten	schön	fair	tot	eitel	strafen	rächen	schlecht	faul	1	acq_USunple_CSunple2_RW	acq4567_RW	5	18	400	1	300	300	454	46	0	1	1	blank2r.bmp	0	1	+	0	1	blank2r.bmp	492	1	YDDY	492	1	blank2r.bmp	572	1	rächen	866	1	!	1239	1	!	1359	0	0	0	0	0	0	0	0	0	0	0	0	0	0	0	0	0	0	0	0	0	0	0	0	0	0	0	0	0	0
072419	15:24:57	15:35:19	621771	5.0.10.0	5_exp_RW	85	Rpleas_acq	CS_B	MQQM	BZZB	GWWG	YDDY	VKKV	JXXJ	treu	ehrlich	spielen	retten	schön	fair	tot	eitel	strafen	rächen	schlecht	faul	1	acq_USpleas_CSpleas2_RW	acq4567_RW	5	19	400	0	300	300	317	50	0	1	1	blank2r.bmp	0	1	+	0	1	blank2r.bmp	492	1	BZZB	492	1	blank2r.bmp	572	3	fair	866	1	!	-1	1	!	-1	0	0	0	0	0	0	0	0	0	0	0	0	0	0	0	0	0	0	0	0	0	0	0	0	0	0	0	0	0	0
072419	15:24:57	15:35:21	624117	5.0.10.0	5_exp_RW	85	Rpleas_acq	CS_B	MQQM	BZZB	GWWG	YDDY	VKKV	JXXJ	treu	ehrlich	spielen	retten	schön	fair	tot	eitel	strafen	rächen	schlecht	faul	1	acq_USpleas_CSpleas1_RW	acq4567_RW	5	20	400	0	300	300	559	50	0	1	1	blank2r.bmp	0	1	+	0	1	blank2r.bmp	492	1	MQQM	492	1	blank2r.bmp	572	2	ehrlich	866	1	!	1239	1	!	-1	0	0	0	0	0	0	0	0	0	0	0	0	0	0	0	0	0	0	0	0	0	0	0	0	0	0	0	0	0	0
072419	15:24:57	15:35:23	626316	5.0.10.0	5_exp_RW	85	Rpleas_acq	CS_B	MQQM	BZZB	GWWG	YDDY	VKKV	JXXJ	treu	ehrlich	spielen	retten	schön	fair	tot	eitel	strafen	rächen	schlecht	faul	1	acq_USpleas_CSpleas1_RW	acq4567_RW	5	21	400	1	300	300	397	46	0	0	1	blank2r.bmp	0	1	+	0	1	blank2r.bmp	492	1	MQQM	492	1	blank2r.bmp	572	1	treu	866	1	!	1239	1	!	1292	0	0	0	0	0	0	0	0	0	0	0	0	0	0	0	0	0	0	0	0	0	0	0	0	0	0	0	0	0	0
072419	15:24:57	15:35:26	628515	5.0.10.0	5_exp_RW	85	Rpleas_acq	CS_B	MQQM	BZZB	GWWG	YDDY	VKKV	JXXJ	treu	ehrlich	spielen	retten	schön	fair	tot	eitel	strafen	rächen	schlecht	faul	1	acq_USpleas_CSpleas1_RW	acq4567_RW	5	22	400	1	300	300	402	50	0	1	1	blank2r.bmp	0	1	+	0	1	blank2r.bmp	492	1	MQQM	492	1	blank2r.bmp	572	1	treu	866	1	!	1239	1	!	1306	0	0	0	0	0	0	0	0	0	0	0	0	0	0	0	0	0	0	0	0	0	0	0	0	0	0	0	0	0	0
072419	15:24:57	15:35:28	630687	5.0.10.0	5_exp_RW	85	Rpleas_acq	CS_B	MQQM	BZZB	GWWG	YDDY	VKKV	JXXJ	treu	ehrlich	spielen	retten	schön	fair	tot	eitel	strafen	rächen	schlecht	faul	1	acq_USunple_CSunple2_RW	acq4567_RW	5	23	400	1	300	300	375	46	0	1	1	blank2r.bmp	0	1	+	0	1	blank2r.bmp	492	1	YDDY	492	1	blank2r.bmp	572	2	schlecht	866	1	!	1239	1	!	1279	0	0	0	0	0	0	0	0	0	0	0	0	0	0	0	0	0	0	0	0	0	0	0	0	0	0	0	0	0	0
072419	15:24:57	15:35:30	632953	5.0.10.0	5_exp_RW	85	Rpleas_acq	CS_B	MQQM	BZZB	GWWG	YDDY	VKKV	JXXJ	treu	ehrlich	spielen	retten	schön	fair	tot	eitel	strafen	rächen	schlecht	faul	1	acq_USunple_CSunple1_RW	acq4567_RW	5	24	400	0	300	300	479	46	0	1	1	blank2r.bmp	0	1	+	0	1	blank2r.bmp	492	1	GWWG	492	1	blank2r.bmp	572	1	tot	866	1	!	1239	1	!	-1	0	0	0	0	0	0	0	0	0	0	0	0	0	0	0	0	0	0	0	0	0	0	0	0	0	0	0	0	0	0
072419	15:24:57	15:35:32	635125	5.0.10.0	5_exp_RW	85	Rpleas_acq	CS_B	MQQM	BZZB	GWWG	YDDY	VKKV	JXXJ	treu	ehrlich	spielen	retten	schön	fair	tot	eitel	strafen	rächen	schlecht	faul	1	acq_USunple_CSunple2_RW	acq4567_RW	5	25	400	1	300	300	346	46	0	1	1	blank2r.bmp	0	1	+	0	1	blank2r.bmp	492	1	YDDY	492	1	blank2r.bmp	572	1	rächen	866	1	!	1239	1	!	1252	0	0	0	0	0	0	0	0	0	0	0	0	0	0	0	0	0	0	0	0	0	0	0	0	0	0	0	0	0	0
072419	15:24:57	15:35:35	637351	5.0.10.0	5_exp_RW	85	Rpleas_acq	CS_B	MQQM	BZZB	GWWG	YDDY	VKKV	JXXJ	treu	ehrlich	spielen	retten	schön	fair	tot	eitel	strafen	rächen	schlecht	faul	1	acq_USunple_CSunple1_RW	acq4567_RW	5	26	400	1	300	300	436	46	0	1	1	blank2r.bmp	0	1	+	0	1	blank2r.bmp	492	1	GWWG	492	1	blank2r.bmp	572	3	strafen	866	1	!	1239	1	!	1332	0	0	0	0	0	0	0	0	0	0	0	0	0	0	0	0	0	0	0	0	0	0	0	0	0	0	0	0	0	0
072419	15:24:57	15:35:37	639604	5.0.10.0	5_exp_RW	85	Rpleas_acq	CS_B	MQQM	BZZB	GWWG	YDDY	VKKV	JXXJ	treu	ehrlich	spielen	retten	schön	fair	tot	eitel	strafen	rächen	schlecht	faul	1	acq_USunple_CSunple1_RW	acq4567_RW	5	27	400	1	300	300	458	46	0	1	1	blank2r.bmp	0	1	+	0	1	blank2r.bmp	492	1	GWWG	492	1	blank2r.bmp	572	1	tot	866	1	!	1239	1	!	1359	0	0	0	0	0	0	0	0	0	0	0	0	0	0	0	0	0	0	0	0	0	0	0	0	0	0	0	0	0	0
072419	15:24:57	15:35:39	641683	5.0.10.0	5_exp_RW	85	Rpleas_acq	CS_B	MQQM	BZZB	GWWG	YDDY	VKKV	JXXJ	treu	ehrlich	spielen	retten	schön	fair	tot	eitel	strafen	rächen	schlecht	faul	1	acq_USunple_CSunple1_RW	acq4567_RW	5	28	400	0	300	300	312	46	0	1	1	blank2r.bmp	0	1	+	0	1	blank2r.bmp	492	1	GWWG	492	1	blank2r.bmp	572	2	eitel	866	1	!	-1	1	!	-1	0	0	0	0	0	0	0	0	0	0	0	0	0	0	0	0	0	0	0	0	0	0	0	0	0	0	0	0	0	0
072419	15:24:57	15:35:41	643882	5.0.10.0	5_exp_RW	85	Rpleas_acq	CS_B	MQQM	BZZB	GWWG	YDDY	VKKV	JXXJ	treu	ehrlich	spielen	retten	schön	fair	tot	eitel	strafen	rächen	schlecht	faul	1	acq_USpleas_CSpleas2_RW	acq4567_RW	5	29	400	1	300	300	388	46	0	0	1	blank2r.bmp	0	1	+	0	1	blank2r.bmp	492	1	BZZB	492	1	blank2r.bmp	572	1	retten	866	1	!	1239	1	!	1292	0	0	0	0	0	0	0	0	0	0	0	0	0	0	0	0	0	0	0	0	0	0	0	0	0	0	0	0	0	0
072419	15:24:57	15:35:43	645948	5.0.10.0	5_exp_RW	85	Rpleas_acq	CS_B	MQQM	BZZB	GWWG	YDDY	VKKV	JXXJ	treu	ehrlich	spielen	retten	schön	fair	tot	eitel	strafen	rächen	schlecht	faul	1	acq_USpleas_CSpleas1_RW	acq4567_RW	5	30	400	0	300	300	303	50	0	1	1	blank2r.bmp	0	1	+	0	1	blank2r.bmp	492	1	MQQM	492	1	blank2r.bmp	572	3	spielen	866	1	!	-1	1	!	-1	0	0	0	0	0	0	0	0	0	0	0	0	0	0	0	0	0	0	0	0	0	0	0	0	0	0	0	0	0	0
072419	15:24:57	15:35:45	648240	5.0.10.0	5_exp_RW	85	Rpleas_acq	CS_B	MQQM	BZZB	GWWG	YDDY	VKKV	JXXJ	treu	ehrlich	spielen	retten	schön	fair	tot	eitel	strafen	rächen	schlecht	faul	1	acq_USpleas_CSpleas2_RW	acq4567_RW	5	31	400	0	300	300	499	50	0	1	1	blank2r.bmp	0	1	+	0	1	blank2r.bmp	492	1	BZZB	492	1	blank2r.bmp	572	1	retten	866	1	!	1239	1	!	-1	0	0	0	0	0	0	0	0	0	0	0	0	0	0	0	0	0	0	0	0	0	0	0	0	0	0	0	0	0	0
072419	15:24:57	15:35:48	650479	5.0.10.0	5_exp_RW	85	Rpleas_acq	CS_B	MQQM	BZZB	GWWG	YDDY	VKKV	JXXJ	treu	ehrlich	spielen	retten	schön	fair	tot	eitel	strafen	rächen	schlecht	faul	1	acq_USunple_CSunple2_RW	acq4567_RW	5	32	400	1	300	300	418	46	0	1	1	blank2r.bmp	0	1	+	0	1	blank2r.bmp	492	1	YDDY	492	1	blank2r.bmp	572	3	faul	866	1	!	1239	1	!	1319	0	0	0	0	0	0	0	0	0	0	0	0	0	0	0	0	0	0	0	0	0	0	0	0	0	0	0	0	0	0
072419	15:24:57	15:35:50	652558	5.0.10.0	5_exp_RW	85	Rpleas_acq	CS_B	MQQM	BZZB	GWWG	YDDY	VKKV	JXXJ	treu	ehrlich	spielen	retten	schön	fair	tot	eitel	strafen	rächen	schlecht	faul	1	acq_USpleas_CSpleas1_RW	acq4567_RW	5	33	400	0	300	300	316	50	0	1	1	blank2r.bmp	0	1	+	0	1	blank2r.bmp	492	1	MQQM	492	1	blank2r.bmp	572	2	ehrlich	866	1	!	-1	1	!	-1	0	0	0	0	0	0	0	0	0	0	0	0	0	0	0	0	0	0	0	0	0	0	0	0	0	0	0	0	0	0
072419	15:24:57	15:35:52	654851	5.0.10.0	5_exp_RW	85	Rpleas_acq	CS_B	MQQM	BZZB	GWWG	YDDY	VKKV	JXXJ	treu	ehrlich	spielen	retten	schön	fair	tot	eitel	strafen	rächen	schlecht	faul	1	acq_USunple_CSunple2_RW	acq4567_RW	5	34	400	0	300	300	518	46	0	1	1	blank2r.bmp	0	1	+	0	1	blank2r.bmp	492	1	YDDY	492	1	blank2r.bmp	572	2	schlecht	866	1	!	1239	1	!	-1	0	0	0	0	0	0	0	0	0	0	0	0	0	0	0	0	0	0	0	0	0	0	0	0	0	0	0	0	0	0
072419	15:24:57	15:35:54	657090	5.0.10.0	5_exp_RW	85	Rpleas_acq	CS_B	MQQM	BZZB	GWWG	YDDY	VKKV	JXXJ	treu	ehrlich	spielen	retten	schön	fair	tot	eitel	strafen	rächen	schlecht	faul	1	acq_USunple_CSunple2_RW	acq4567_RW	5	35	400	1	300	300	436	46	0	1	1	blank2r.bmp	0	1	+	0	1	blank2r.bmp	492	1	YDDY	492	1	blank2r.bmp	572	1	rächen	866	1	!	1239	1	!	1332	0	0	0	0	0	0	0	0	0	0	0	0	0	0	0	0	0	0	0	0	0	0	0	0	0	0	0	0	0	0
072419	15:24:57	15:35:56	659182	5.0.10.0	5_exp_RW	85	Rpleas_acq	CS_B	MQQM	BZZB	GWWG	YDDY	VKKV	JXXJ	treu	ehrlich	spielen	retten	schön	fair	tot	eitel	strafen	rächen	schlecht	faul	1	acq_USpleas_CSpleas1_RW	acq4567_RW	5	36	400	0	300	300	319	50	0	1	1	blank2r.bmp	0	1	+	0	1	blank2r.bmp	492	1	MQQM	492	1	blank2r.bmp	572	3	spielen	866	1	!	-1	1	!	-1	0	0	0	0	0	0	0	0	0	0	0	0	0	0	0	0	0	0	0	0	0	0	0	0	0	0	0	0	0	0
072419	15:24:57	15:35:59	661541	5.0.10.0	5_exp_RW	85	Rpleas_acq	CS_B	MQQM	BZZB	GWWG	YDDY	VKKV	JXXJ	treu	ehrlich	spielen	retten	schön	fair	tot	eitel	strafen	rächen	schlecht	faul	1	acq_USpleas_CSpleas2_RW	acq4567_RW	5	37	400	0	300	300	575	50	0	1	1	blank2r.bmp	0	1	+	0	1	blank2r.bmp	492	1	BZZB	492	1	blank2r.bmp	572	3	fair	866	1	!	1239	1	!	-1	0	0	0	0	0	0	0	0	0	0	0	0	0	0	0	0	0	0	0	0	0	0	0	0	0	0	0	0	0	0
072419	15:24:57	15:36:01	663700	5.0.10.0	5_exp_RW	85	Rpleas_acq	CS_B	MQQM	BZZB	GWWG	YDDY	VKKV	JXXJ	treu	ehrlich	spielen	retten	schön	fair	tot	eitel	strafen	rächen	schlecht	faul	1	acq_USpleas_CSpleas2_RW	acq4567_RW	5	38	400	1	300	300	346	46	0	0	1	blank2r.bmp	0	1	+	0	1	blank2r.bmp	492	1	BZZB	492	1	blank2r.bmp	572	2	schön	866	1	!	1239	1	!	1252	0	0	0	0	0	0	0	0	0	0	0	0	0	0	0	0	0	0	0	0	0	0	0	0	0	0	0	0	0	0
072419	15:24:57	15:36:03	665926	5.0.10.0	5_exp_RW	85	Rpleas_acq	CS_B	MQQM	BZZB	GWWG	YDDY	VKKV	JXXJ	treu	ehrlich	spielen	retten	schön	fair	tot	eitel	strafen	rächen	schlecht	faul	1	acq_USpleas_CSpleas2_RW	acq4567_RW	5	39	400	1	300	300	435	50	0	1	1	blank2r.bmp	0	1	+	0	1	blank2r.bmp	492	1	BZZB	492	1	blank2r.bmp	572	2	schön	866	1	!	1239	1	!	1332	0	0	0	0	0	0	0	0	0	0	0	0	0	0	0	0	0	0	0	0	0	0	0	0	0	0	0	0	0	0
072419	15:24:57	15:36:05	668152	5.0.10.0	5_exp_RW	85	Rpleas_acq	CS_B	MQQM	BZZB	GWWG	YDDY	VKKV	JXXJ	treu	ehrlich	spielen	retten	schön	fair	tot	eitel	strafen	rächen	schlecht	faul	1	acq_USunple_CSunple1_RW	acq4567_RW	5	40	400	1	300	300	423	46	0	1	1	blank2r.bmp	0	1	+	0	1	blank2r.bmp	492	1	GWWG	492	1	blank2r.bmp	572	1	tot	866	1	!	1239	1	!	1319	0	0	0	0	0	0	0	0	0	0	0	0	0	0	0	0	0	0	0	0	0	0	0	0	0	0	0	0	0	0
072419	15:24:57	15:36:08	670404	5.0.10.0	5_exp_RW	85	Rpleas_acq	CS_B	MQQM	BZZB	GWWG	YDDY	VKKV	JXXJ	treu	ehrlich	spielen	retten	schön	fair	tot	eitel	strafen	rächen	schlecht	faul	1	acq_USunple_CSunple1_RW	acq4567_RW	5	41	400	0	300	300	479	46	0	1	1	blank2r.bmp	0	1	+	0	1	blank2r.bmp	492	1	GWWG	492	1	blank2r.bmp	572	2	eitel	866	1	!	1239	1	!	-1	0	0	0	0	0	0	0	0	0	0	0	0	0	0	0	0	0	0	0	0	0	0	0	0	0	0	0	0	0	0
072419	15:24:57	15:36:10	672670	5.0.10.0	5_exp_RW	85	Rpleas_acq	CS_B	MQQM	BZZB	GWWG	YDDY	VKKV	JXXJ	treu	ehrlich	spielen	retten	schön	fair	tot	eitel	strafen	rächen	schlecht	faul	1	acq_USpleas_CSpleas1_RW	acq4567_RW	5	42	400	0	300	300	479	46	0	0	1	blank2r.bmp	0	1	+	0	1	blank2r.bmp	492	1	MQQM	492	1	blank2r.bmp	572	1	treu	866	1	!	1239	1	!	-1	0	0	0	0	0	0	0	0	0	0	0	0	0	0	0	0	0	0	0	0	0	0	0	0	0	0	0	0	0	0
072419	15:24:57	15:36:12	674922	5.0.10.0	5_exp_RW	85	Rpleas_acq	CS_B	MQQM	BZZB	GWWG	YDDY	VKKV	JXXJ	treu	ehrlich	spielen	retten	schön	fair	tot	eitel	strafen	rächen	schlecht	faul	1	acq_USpleas_CSpleas1_RW	acq4567_RW	5	43	400	1	300	300	429	46	0	0	1	blank2r.bmp	0	1	+	0	1	blank2r.bmp	492	1	MQQM	492	1	blank2r.bmp	572	2	ehrlich	866	1	!	1239	1	!	1332	0	0	0	0	0	0	0	0	0	0	0	0	0	0	0	0	0	0	0	0	0	0	0	0	0	0	0	0	0	0
072419	15:24:57	15:36:14	677148	5.0.10.0	5_exp_RW	85	Rpleas_acq	CS_B	MQQM	BZZB	GWWG	YDDY	VKKV	JXXJ	treu	ehrlich	spielen	retten	schön	fair	tot	eitel	strafen	rächen	schlecht	faul	1	acq_USunple_CSunple2_RW	acq4567_RW	5	44	400	1	300	300	438	46	0	1	1	blank2r.bmp	0	1	+	0	1	blank2r.bmp	492	1	YDDY	492	1	blank2r.bmp	572	2	schlecht	866	1	!	1239	1	!	1332	0	0	0	0	0	0	0	0	0	0	0	0	0	0	0	0	0	0	0	0	0	0	0	0	0	0	0	0	0	0
072419	15:24:57	15:36:17	679347	5.0.10.0	5_exp_RW	85	Rpleas_acq	CS_B	MQQM	BZZB	GWWG	YDDY	VKKV	JXXJ	treu	ehrlich	spielen	retten	schön	fair	tot	eitel	strafen	rächen	schlecht	faul	1	acq_USpleas_CSpleas1_RW	acq4567_RW	5	45	400	1	300	300	400	50	0	1	1	blank2r.bmp	0	1	+	0	1	blank2r.bmp	492	1	MQQM	492	1	blank2r.bmp	572	3	spielen	866	1	!	1239	1	!	1306	0	0	0	0	0	0	0	0	0	0	0	0	0	0	0	0	0	0	0	0	0	0	0	0	0	0	0	0	0	0
072419	15:24:57	15:36:19	681506	5.0.10.0	5_exp_RW	85	Rpleas_acq	CS_B	MQQM	BZZB	GWWG	YDDY	VKKV	JXXJ	treu	ehrlich	spielen	retten	schön	fair	tot	eitel	strafen	rächen	schlecht	faul	1	acq_USunple_CSunple1_RW	acq4567_RW	5	46	400	1	300	300	362	46	0	1	1	blank2r.bmp	0	1	+	0	1	blank2r.bmp	492	1	GWWG	492	1	blank2r.bmp	572	3	strafen	866	1	!	1239	1	!	1266	0	0	0	0	0	0	0	0	0	0	0	0	0	0	0	0	0	0	0	0	0	0	0	0	0	0	0	0	0	0
072419	15:24:57	15:36:21	683719	5.0.10.0	5_exp_RW	85	Rpleas_acq	CS_B	MQQM	BZZB	GWWG	YDDY	VKKV	JXXJ	treu	ehrlich	spielen	retten	schön	fair	tot	eitel	strafen	rächen	schlecht	faul	1	acq_USunple_CSunple2_RW	acq4567_RW	5	47	400	1	300	300	415	46	0	1	1	blank2r.bmp	0	1	+	0	1	blank2r.bmp	492	1	YDDY	492	1	blank2r.bmp	572	3	faul	866	1	!	1239	1	!	1319	0	0	0	0	0	0	0	0	0	0	0	0	0	0	0	0	0	0	0	0	0	0	0	0	0	0	0	0	0	0
072419	15:24:57	15:36:23	685811	5.0.10.0	5_exp_RW	85	Rpleas_acq	CS_B	MQQM	BZZB	GWWG	YDDY	VKKV	JXXJ	treu	ehrlich	spielen	retten	schön	fair	tot	eitel	strafen	rächen	schlecht	faul	1	acq_USunple_CSunple2_RW	acq4567_RW	5	48	400	0	300	300	325	46	0	1	1	blank2r.bmp	0	1	+	0	1	blank2r.bmp	492	1	YDDY	492	1	blank2r.bmp	572	3	faul	866	1	!	-1	1	!	-1	0	0	0	0	0	0	0	0	0	0	0	0	0	0	0	0	0	0	0	0	0	0	0	0	0	0	0	0	0	0
072419	15:24:57	15:36:25	688024	5.0.10.0	5_exp_RW	85	Rpleas_acq	CS_B	MQQM	BZZB	GWWG	YDDY	VKKV	JXXJ	treu	ehrlich	spielen	retten	schön	fair	tot	eitel	strafen	rächen	schlecht	faul	1	acq_USpleas_CSpleas2_RW	acq4567_RW	5	49	400	1	300	300	407	46	0	0	1	blank2r.bmp	0	1	+	0	1	blank2r.bmp	492	1	BZZB	492	1	blank2r.bmp	572	3	fair	866	1	!	1239	1	!	1306	0	0	0	0	0	0	0	0	0	0	0	0	0	0	0	0	0	0	0	0	0	0	0	0	0	0	0	0	0	0
072419	15:24:57	15:36:27	690170	5.0.10.0	5_exp_RW	85	Rpleas_acq	CS_B	MQQM	BZZB	GWWG	YDDY	VKKV	JXXJ	treu	ehrlich	spielen	retten	schön	fair	tot	eitel	strafen	rächen	schlecht	faul	1	acq_USpleas_CSpleas2_RW	acq4567_RW	5	50	400	1	300	300	351	46	0	0	1	blank2r.bmp	0	1	+	0	1	blank2r.bmp	492	1	BZZB	492	1	blank2r.bmp	572	1	retten	866	1	!	1239	1	!	1252	0	0	0	0	0	0	0	0	0	0	0	0	0	0	0	0	0	0	0	0	0	0	0	0	0	0	0	0	0	0
072419	15:24:57	15:36:30	692409	5.0.10.0	5_exp_RW	85	Rpleas_acq	CS_B	MQQM	BZZB	GWWG	YDDY	VKKV	JXXJ	treu	ehrlich	spielen	retten	schön	fair	tot	eitel	strafen	rächen	schlecht	faul	1	acq_USunple_CSunple1_RW	acq4567_RW	5	51	400	1	300	300	430	46	0	1	1	blank2r.bmp	0	1	+	0	1	blank2r.bmp	492	1	GWWG	492	1	blank2r.bmp	572	1	tot	866	1	!	1239	1	!	1332	0	0	0	0	0	0	0	0	0	0	0	0	0	0	0	0	0	0	0	0	0	0	0	0	0	0	0	0	0	0
072419	15:24:57	15:36:32	694568	5.0.10.0	5_exp_RW	85	Rpleas_acq	CS_B	MQQM	BZZB	GWWG	YDDY	VKKV	JXXJ	treu	ehrlich	spielen	retten	schön	fair	tot	eitel	strafen	rächen	schlecht	faul	1	acq_USpleas_CSpleas1_RW	acq4567_RW	5	52	400	1	300	300	364	50	0	1	1	blank2r.bmp	0	1	+	0	1	blank2r.bmp	492	1	MQQM	492	1	blank2r.bmp	572	2	ehrlich	866	1	!	1239	1	!	1266	0	0	0	0	0	0	0	0	0	0	0	0	0	0	0	0	0	0	0	0	0	0	0	0	0	0	0	0	0	0
072419	15:24:57	15:36:34	696767	5.0.10.0	5_exp_RW	85	Rpleas_acq	CS_B	MQQM	BZZB	GWWG	YDDY	VKKV	JXXJ	treu	ehrlich	spielen	retten	schön	fair	tot	eitel	strafen	rächen	schlecht	faul	1	acq_USunple_CSunple1_RW	acq4567_RW	5	53	400	1	300	300	402	46	0	1	1	blank2r.bmp	0	1	+	0	1	blank2r.bmp	492	1	GWWG	492	1	blank2r.bmp	572	3	strafen	866	1	!	1239	1	!	1306	0	0	0	0	0	0	0	0	0	0	0	0	0	0	0	0	0	0	0	0	0	0	0	0	0	0	0	0	0	0
072419	15:24:57	15:36:36	698979	5.0.10.0	5_exp_RW	85	Rpleas_acq	CS_B	MQQM	BZZB	GWWG	YDDY	VKKV	JXXJ	treu	ehrlich	spielen	retten	schön	fair	tot	eitel	strafen	rächen	schlecht	faul	1	acq_USpleas_CSpleas1_RW	acq4567_RW	5	54	400	1	300	300	416	46	0	0	1	blank2r.bmp	0	1	+	0	1	blank2r.bmp	492	1	MQQM	492	1	blank2r.bmp	572	1	treu	866	1	!	1239	1	!	1319	0	0	0	0	0	0	0	0	0	0	0	0	0	0	0	0	0	0	0	0	0	0	0	0	0	0	0	0	0	0
072419	15:24:57	15:36:38	701138	5.0.10.0	5_exp_RW	85	Rpleas_acq	CS_B	MQQM	BZZB	GWWG	YDDY	VKKV	JXXJ	treu	ehrlich	spielen	retten	schön	fair	tot	eitel	strafen	rächen	schlecht	faul	1	acq_USunple_CSunple2_RW	acq4567_RW	5	55	400	1	300	300	370	50	0	0	1	blank2r.bmp	0	1	+	0	1	blank2r.bmp	492	1	YDDY	492	1	blank2r.bmp	572	1	rächen	866	1	!	1239	1	!	1266	0	0	0	0	0	0	0	0	0	0	0	0	0	0	0	0	0	0	0	0	0	0	0	0	0	0	0	0	0	0
072419	15:24:57	15:36:41	703351	5.0.10.0	5_exp_RW	85	Rpleas_acq	CS_B	MQQM	BZZB	GWWG	YDDY	VKKV	JXXJ	treu	ehrlich	spielen	retten	schön	fair	tot	eitel	strafen	rächen	schlecht	faul	1	acq_USpleas_CSpleas2_RW	acq4567_RW	5	56	400	1	300	300	418	50	0	1	1	blank2r.bmp	0	1	+	0	1	blank2r.bmp	492	1	BZZB	492	1	blank2r.bmp	572	1	retten	866	1	!	1239	1	!	1319	0	0	0	0	0	0	0	0	0	0	0	0	0	0	0	0	0	0	0	0	0	0	0	0	0	0	0	0	0	0
072419	15:24:57	15:36:43	705523	5.0.10.0	5_exp_RW	85	Rpleas_acq	CS_B	MQQM	BZZB	GWWG	YDDY	VKKV	JXXJ	treu	ehrlich	spielen	retten	schön	fair	tot	eitel	strafen	rächen	schlecht	faul	1	acq_USpleas_CSpleas2_RW	acq4567_RW	5	57	400	1	300	300	373	50	0	1	1	blank2r.bmp	0	1	+	0	1	blank2r.bmp	492	1	BZZB	492	1	blank2r.bmp	572	2	schön	866	1	!	1239	1	!	1279	0	0	0	0	0	0	0	0	0	0	0	0	0	0	0	0	0	0	0	0	0	0	0	0	0	0	0	0	0	0
072419	15:24:57	15:36:45	707749	5.0.10.0	5_exp_RW	85	Rpleas_acq	CS_B	MQQM	BZZB	GWWG	YDDY	VKKV	JXXJ	treu	ehrlich	spielen	retten	schön	fair	tot	eitel	strafen	rächen	schlecht	faul	1	acq_USpleas_CSpleas2_RW	acq4567_RW	5	58	400	1	300	300	433	50	0	1	1	blank2r.bmp	0	1	+	0	1	blank2r.bmp	492	1	BZZB	492	1	blank2r.bmp	572	3	fair	866	1	!	1239	1	!	1332	0	0	0	0	0	0	0	0	0	0	0	0	0	0	0	0	0	0	0	0	0	0	0	0	0	0	0	0	0	0
072419	15:24:57	15:36:47	709908	5.0.10.0	5_exp_RW	85	Rpleas_acq	CS_B	MQQM	BZZB	GWWG	YDDY	VKKV	JXXJ	treu	ehrlich	spielen	retten	schön	fair	tot	eitel	strafen	rächen	schlecht	faul	1	acq_USunple_CSunple2_RW	acq4567_RW	5	59	400	1	300	300	362	46	0	1	1	blank2r.bmp	0	1	+	0	1	blank2r.bmp	492	1	YDDY	492	1	blank2r.bmp	572	2	schlecht	866	1	!	1239	1	!	1266	0	0	0	0	0	0	0	0	0	0	0	0	0	0	0	0	0	0	0	0	0	0	0	0	0	0	0	0	0	0
072419	15:24:57	15:36:49	712121	5.0.10.0	5_exp_RW	85	Rpleas_acq	CS_B	MQQM	BZZB	GWWG	YDDY	VKKV	JXXJ	treu	ehrlich	spielen	retten	schön	fair	tot	eitel	strafen	rächen	schlecht	faul	1	acq_USunple_CSunple1_RW	acq4567_RW	5	60	400	1	300	300	424	50	0	0	1	blank2r.bmp	0	1	+	0	1	blank2r.bmp	492	1	GWWG	492	1	blank2r.bmp	572	2	eitel	866	1	!	1239	1	!	1319	0	0	0	0	0	0	0	0	0	0	0	0	0	0	0	0	0	0	0	0	0	0	0	0	0	0	0	0	0	0
072419	15:24:57	15:36:52	714346	5.0.10.0	5_exp_RW	85	Rpleas_acq	CS_B	MQQM	BZZB	GWWG	YDDY	VKKV	JXXJ	treu	ehrlich	spielen	retten	schön	fair	tot	eitel	strafen	rächen	schlecht	faul	1	acq_USunple_CSunple2_RW	acq4567_RW	5	61	400	1	300	300	417	46	0	1	1	blank2r.bmp	0	1	+	0	1	blank2r.bmp	492	1	YDDY	492	1	blank2r.bmp	572	3	faul	866	1	!	1239	1	!	1319	0	0	0	0	0	0	0	0	0	0	0	0	0	0	0	0	0	0	0	0	0	0	0	0	0	0	0	0	0	0
072419	15:24:57	15:36:54	716519	5.0.10.0	5_exp_RW	85	Rpleas_acq	CS_B	MQQM	BZZB	GWWG	YDDY	VKKV	JXXJ	treu	ehrlich	spielen	retten	schön	fair	tot	eitel	strafen	rächen	schlecht	faul	1	acq_USpleas_CSpleas2_RW	acq4567_RW	5	62	400	1	300	300	374	50	0	1	1	blank2r.bmp	0	1	+	0	1	blank2r.bmp	492	1	BZZB	492	1	blank2r.bmp	572	2	schön	866	1	!	1239	1	!	1279	0	0	0	0	0	0	0	0	0	0	0	0	0	0	0	0	0	0	0	0	0	0	0	0	0	0	0	0	0	0
072419	15:24:57	15:36:56	718838	5.0.10.0	5_exp_RW	85	Rpleas_acq	CS_B	MQQM	BZZB	GWWG	YDDY	VKKV	JXXJ	treu	ehrlich	spielen	retten	schön	fair	tot	eitel	strafen	rächen	schlecht	faul	1	acq_USpleas_CSpleas1_RW	acq4567_RW	5	63	400	0	300	300	543	50	0	1	1	blank2r.bmp	0	1	+	0	1	blank2r.bmp	492	1	MQQM	492	1	blank2r.bmp	572	2	ehrlich	866	1	!	1239	1	!	-1	0	0	0	0	0	0	0	0	0	0	0	0	0	0	0	0	0	0	0	0	0	0	0	0	0	0	0	0	0	0
072419	15:24:57	15:36:58	720997	5.0.10.0	5_exp_RW	85	Rpleas_acq	CS_B	MQQM	BZZB	GWWG	YDDY	VKKV	JXXJ	treu	ehrlich	spielen	retten	schön	fair	tot	eitel	strafen	rächen	schlecht	faul	1	acq_USpleas_CSpleas2_RW	acq4567_RW	5	64	400	1	300	300	358	50	0	1	1	blank2r.bmp	0	1	+	0	1	blank2r.bmp	492	1	BZZB	492	1	blank2r.bmp	572	1	retten	866	1	!	1239	1	!	1252	0	0	0	0	0	0	0	0	0	0	0	0	0	0	0	0	0	0	0	0	0	0	0	0	0	0	0	0	0	0
072419	15:24:57	15:37:00	723223	5.0.10.0	5_exp_RW	85	Rpleas_acq	CS_B	MQQM	BZZB	GWWG	YDDY	VKKV	JXXJ	treu	ehrlich	spielen	retten	schön	fair	tot	eitel	strafen	rächen	schlecht	faul	1	acq_USunple_CSunple1_RW	acq4567_RW	5	65	400	1	300	300	438	46	0	1	1	blank2r.bmp	0	1	+	0	1	blank2r.bmp	492	1	GWWG	492	1	blank2r.bmp	572	3	strafen	866	1	!	1239	1	!	1332	0	0	0	0	0	0	0	0	0	0	0	0	0	0	0	0	0	0	0	0	0	0	0	0	0	0	0	0	0	0
072419	15:24:57	15:37:03	725435	5.0.10.0	5_exp_RW	85	Rpleas_acq	CS_B	MQQM	BZZB	GWWG	YDDY	VKKV	JXXJ	treu	ehrlich	spielen	retten	schön	fair	tot	eitel	strafen	rächen	schlecht	faul	1	acq_USunple_CSunple2_RW	acq4567_RW	5	66	400	1	300	300	417	46	0	1	1	blank2r.bmp	0	1	+	0	1	blank2r.bmp	492	1	YDDY	492	1	blank2r.bmp	572	2	schlecht	866	1	!	1239	1	!	1319	0	0	0	0	0	0	0	0	0	0	0	0	0	0	0	0	0	0	0	0	0	0	0	0	0	0	0	0	0	0
072419	15:24:57	15:37:05	727608	5.0.10.0	5_exp_RW	85	Rpleas_acq	CS_B	MQQM	BZZB	GWWG	YDDY	VKKV	JXXJ	treu	ehrlich	spielen	retten	schön	fair	tot	eitel	strafen	rächen	schlecht	faul	1	acq_USunple_CSunple2_RW	acq4567_RW	5	67	400	1	300	300	384	46	0	1	1	blank2r.bmp	0	1	+	0	1	blank2r.bmp	492	1	YDDY	492	1	blank2r.bmp	572	1	rächen	866	1	!	1239	1	!	1279	0	0	0	0	0	0	0	0	0	0	0	0	0	0	0	0	0	0	0	0	0	0	0	0	0	0	0	0	0	0
072419	15:24:57	15:37:07	729847	5.0.10.0	5_exp_RW	85	Rpleas_acq	CS_B	MQQM	BZZB	GWWG	YDDY	VKKV	JXXJ	treu	ehrlich	spielen	retten	schön	fair	tot	eitel	strafen	rächen	schlecht	faul	1	acq_USpleas_CSpleas2_RW	acq4567_RW	5	68	400	1	300	300	438	50	0	1	1	blank2r.bmp	0	1	+	0	1	blank2r.bmp	492	1	BZZB	492	1	blank2r.bmp	572	3	fair	866	1	!	1239	1	!	1346	0	0	0	0	0	0	0	0	0	0	0	0	0	0	0	0	0	0	0	0	0	0	0	0	0	0	0	0	0	0
072419	15:24:57	15:37:09	731939	5.0.10.0	5_exp_RW	85	Rpleas_acq	CS_B	MQQM	BZZB	GWWG	YDDY	VKKV	JXXJ	treu	ehrlich	spielen	retten	schön	fair	tot	eitel	strafen	rächen	schlecht	faul	1	acq_USpleas_CSpleas1_RW	acq4567_RW	5	69	400	0	300	300	325	46	0	0	1	blank2r.bmp	0	1	+	0	1	blank2r.bmp	492	1	MQQM	492	1	blank2r.bmp	572	3	spielen	866	1	!	-1	1	!	-1	0	0	0	0	0	0	0	0	0	0	0	0	0	0	0	0	0	0	0	0	0	0	0	0	0	0	0	0	0	0
072419	15:24:57	15:37:11	734178	5.0.10.0	5_exp_RW	85	Rpleas_acq	CS_B	MQQM	BZZB	GWWG	YDDY	VKKV	JXXJ	treu	ehrlich	spielen	retten	schön	fair	tot	eitel	strafen	rächen	schlecht	faul	1	acq_USunple_CSunple1_RW	acq4567_RW	5	70	400	1	300	300	425	46	0	1	1	blank2r.bmp	0	1	+	0	1	blank2r.bmp	492	1	GWWG	492	1	blank2r.bmp	572	1	tot	866	1	!	1239	1	!	1332	0	0	0	0	0	0	0	0	0	0	0	0	0	0	0	0	0	0	0	0	0	0	0	0	0	0	0	0	0	0
072419	15:24:57	15:37:14	736391	5.0.10.0	5_exp_RW	85	Rpleas_acq	CS_B	MQQM	BZZB	GWWG	YDDY	VKKV	JXXJ	treu	ehrlich	spielen	retten	schön	fair	tot	eitel	strafen	rächen	schlecht	faul	1	acq_USpleas_CSpleas2_RW	acq4567_RW	5	71	400	1	300	300	399	50	0	1	1	blank2r.bmp	0	1	+	0	1	blank2r.bmp	492	1	BZZB	492	1	blank2r.bmp	572	3	fair	866	1	!	1239	1	!	1306	0	0	0	0	0	0	0	0	0	0	0	0	0	0	0	0	0	0	0	0	0	0	0	0	0	0	0	0	0	0
072419	15:24:57	15:37:16	738536	5.0.10.0	5_exp_RW	85	Rpleas_acq	CS_B	MQQM	BZZB	GWWG	YDDY	VKKV	JXXJ	treu	ehrlich	spielen	retten	schön	fair	tot	eitel	strafen	rächen	schlecht	faul	1	acq_USunple_CSunple1_RW	acq4567_RW	5	72	400	1	300	300	351	46	0	1	1	blank2r.bmp	0	1	+	0	1	blank2r.bmp	492	1	GWWG	492	1	blank2r.bmp	572	2	eitel	866	1	!	1239	1	!	1252	0	0	0	0	0	0	0	0	0	0	0	0	0	0	0	0	0	0	0	0	0	0	0	0	0	0	0	0	0	0
072419	15:24:57	15:37:18	740682	5.0.10.0	5_exp_RW	85	Rpleas_acq	CS_B	MQQM	BZZB	GWWG	YDDY	VKKV	JXXJ	treu	ehrlich	spielen	retten	schön	fair	tot	eitel	strafen	rächen	schlecht	faul	1	acq_USunple_CSunple2_RW	acq4567_RW	5	73	400	1	300	300	351	50	0	0	1	blank2r.bmp	0	1	+	0	1	blank2r.bmp	492	1	YDDY	492	1	blank2r.bmp	572	1	rächen	866	1	!	1239	1	!	1252	0	0	0	0	0	0	0	0	0	0	0	0	0	0	0	0	0	0	0	0	0	0	0	0	0	0	0	0	0	0
072419	15:24:57	15:37:20	743028	5.0.10.0	5_exp_RW	85	Rpleas_acq	CS_B	MQQM	BZZB	GWWG	YDDY	VKKV	JXXJ	treu	ehrlich	spielen	retten	schön	fair	tot	eitel	strafen	rächen	schlecht	faul	1	acq_USpleas_CSpleas1_RW	acq4567_RW	5	74	400	0	300	300	566	50	0	1	1	blank2r.bmp	0	1	+	0	1	blank2r.bmp	492	1	MQQM	492	1	blank2r.bmp	572	1	treu	866	1	!	1239	1	!	-1	0	0	0	0	0	0	0	0	0	0	0	0	0	0	0	0	0	0	0	0	0	0	0	0	0	0	0	0	0	0
072419	15:24:57	15:37:22	745254	5.0.10.0	5_exp_RW	85	Rpleas_acq	CS_B	MQQM	BZZB	GWWG	YDDY	VKKV	JXXJ	treu	ehrlich	spielen	retten	schön	fair	tot	eitel	strafen	rächen	schlecht	faul	1	acq_USpleas_CSpleas1_RW	acq4567_RW	5	75	400	1	300	300	418	46	0	0	1	blank2r.bmp	0	1	+	0	1	blank2r.bmp	492	1	MQQM	492	1	blank2r.bmp	572	3	spielen	866	1	!	1239	1	!	1319	0	0	0	0	0	0	0	0	0	0	0	0	0	0	0	0	0	0	0	0	0	0	0	0	0	0	0	0	0	0
072419	15:24:57	15:37:25	747479	5.0.10.0	5_exp_RW	85	Rpleas_acq	CS_B	MQQM	BZZB	GWWG	YDDY	VKKV	JXXJ	treu	ehrlich	spielen	retten	schön	fair	tot	eitel	strafen	rächen	schlecht	faul	1	acq_USunple_CSunple2_RW	acq4567_RW	5	76	400	1	300	300	423	46	0	1	1	blank2r.bmp	0	1	+	0	1	blank2r.bmp	492	1	YDDY	492	1	blank2r.bmp	572	3	faul	866	1	!	1239	1	!	1319	0	0	0	0	0	0	0	0	0	0	0	0	0	0	0	0	0	0	0	0	0	0	0	0	0	0	0	0	0	0
072419	15:24:57	15:37:27	749532	5.0.10.0	5_exp_RW	85	Rpleas_acq	CS_B	MQQM	BZZB	GWWG	YDDY	VKKV	JXXJ	treu	ehrlich	spielen	retten	schön	fair	tot	eitel	strafen	rächen	schlecht	faul	1	acq_USpleas_CSpleas1_RW	acq4567_RW	5	77	400	0	300	300	284	50	0	1	1	blank2r.bmp	0	1	+	0	1	blank2r.bmp	492	1	MQQM	492	1	blank2r.bmp	572	2	ehrlich	866	1	!	-1	1	!	-1	0	0	0	0	0	0	0	0	0	0	0	0	0	0	0	0	0	0	0	0	0	0	0	0	0	0	0	0	0	0
072419	15:24:57	15:37:29	751624	5.0.10.0	5_exp_RW	85	Rpleas_acq	CS_B	MQQM	BZZB	GWWG	YDDY	VKKV	JXXJ	treu	ehrlich	spielen	retten	schön	fair	tot	eitel	strafen	rächen	schlecht	faul	1	acq_USunple_CSunple1_RW	acq4567_RW	5	78	400	0	300	300	309	46	0	1	1	blank2r.bmp	0	1	+	0	1	blank2r.bmp	492	1	GWWG	492	1	blank2r.bmp	572	3	strafen	866	1	!	-1	1	!	-1	0	0	0	0	0	0	0	0	0	0	0	0	0	0	0	0	0	0	0	0	0	0	0	0	0	0	0	0	0	0
072419	15:24:57	15:37:31	753783	5.0.10.0	5_exp_RW	85	Rpleas_acq	CS_B	MQQM	BZZB	GWWG	YDDY	VKKV	JXXJ	treu	ehrlich	spielen	retten	schön	fair	tot	eitel	strafen	rächen	schlecht	faul	1	acq_USpleas_CSpleas2_RW	acq4567_RW	5	79	400	1	300	300	358	50	0	1	1	blank2r.bmp	0	1	+	0	1	blank2r.bmp	492	1	BZZB	492	1	blank2r.bmp	572	1	retten	866	1	!	1239	1	!	1252	0	0	0	0	0	0	0	0	0	0	0	0	0	0	0	0	0	0	0	0	0	0	0	0	0	0	0	0	0	0
072419	15:24:57	15:37:33	756023	5.0.10.0	5_exp_RW	85	Rpleas_acq	CS_B	MQQM	BZZB	GWWG	YDDY	VKKV	JXXJ	treu	ehrlich	spielen	retten	schön	fair	tot	eitel	strafen	rächen	schlecht	faul	1	acq_USunple_CSunple1_RW	acq4567_RW	5	80	400	1	300	300	440	46	0	1	1	blank2r.bmp	0	1	+	0	1	blank2r.bmp	492	1	GWWG	492	1	blank2r.bmp	572	1	tot	866	1	!	1239	1	!	1346	0	0	0	0	0	0	0	0	0	0	0	0	0	0	0	0	0	0	0	0	0	0	0	0	0	0	0	0	0	0
072419	15:24:57	15:37:51	773735	5.0.10.0	5_exp_RW	85	Rpleas_acq	CS_B	MQQM	BZZB	GWWG	YDDY	VKKV	JXXJ	treu	ehrlich	spielen	retten	schön	fair	tot	eitel	strafen	rächen	schlecht	faul	1	acq_USunple_CSunple1_RW	acq4567_RW	6	1	400	1	300	300	379	50	0	0	1	blank2r.bmp	0	1	+	0	1	blank2r.bmp	492	1	GWWG	492	1	blank2r.bmp	572	2	eitel	866	1	!	1239	1	!	1279	0	0	0	0	0	0	0	0	0	0	0	0	0	0	0	0	0	0	0	0	0	0	0	0	0	0	0	0	0	0
072419	15:24:57	15:37:53	776268	5.0.10.0	5_exp_RW	85	Rpleas_acq	CS_B	MQQM	BZZB	GWWG	YDDY	VKKV	JXXJ	treu	ehrlich	spielen	retten	schön	fair	tot	eitel	strafen	rächen	schlecht	faul	1	acq_USunple_CSunple2_RW	acq4567_RW	6	2	400	0	300	300	764	46	0	1	1	blank2r.bmp	0	1	+	0	1	blank2r.bmp	492	1	YDDY	492	1	blank2r.bmp	572	2	schlecht	866	1	!	1239	1	!	-1	0	0	0	0	0	0	0	0	0	0	0	0	0	0	0	0	0	0	0	0	0	0	0	0	0	0	0	0	0	0
072419	15:24:57	15:37:56	778520	5.0.10.0	5_exp_RW	85	Rpleas_acq	CS_B	MQQM	BZZB	GWWG	YDDY	VKKV	JXXJ	treu	ehrlich	spielen	retten	schön	fair	tot	eitel	strafen	rächen	schlecht	faul	1	acq_USpleas_CSpleas2_RW	acq4567_RW	6	3	400	1	300	300	437	50	0	1	1	blank2r.bmp	0	1	+	0	1	blank2r.bmp	492	1	BZZB	492	1	blank2r.bmp	572	2	schön	866	1	!	1239	1	!	1332	0	0	0	0	0	0	0	0	0	0	0	0	0	0	0	0	0	0	0	0	0	0	0	0	0	0	0	0	0	0
072419	15:24:57	15:37:58	780799	5.0.10.0	5_exp_RW	85	Rpleas_acq	CS_B	MQQM	BZZB	GWWG	YDDY	VKKV	JXXJ	treu	ehrlich	spielen	retten	schön	fair	tot	eitel	strafen	rächen	schlecht	faul	1	acq_USunple_CSunple2_RW	acq4567_RW	6	4	400	0	300	300	514	46	0	1	1	blank2r.bmp	0	1	+	0	1	blank2r.bmp	492	1	YDDY	492	1	blank2r.bmp	572	1	rächen	866	1	!	1239	1	!	-1	0	0	0	0	0	0	0	0	0	0	0	0	0	0	0	0	0	0	0	0	0	0	0	0	0	0	0	0	0	0
072419	15:24:57	15:38:00	783105	5.0.10.0	5_exp_RW	85	Rpleas_acq	CS_B	MQQM	BZZB	GWWG	YDDY	VKKV	JXXJ	treu	ehrlich	spielen	retten	schön	fair	tot	eitel	strafen	rächen	schlecht	faul	1	acq_USpleas_CSpleas2_RW	acq4567_RW	6	5	400	0	300	300	524	50	0	1	1	blank2r.bmp	0	1	+	0	1	blank2r.bmp	492	1	BZZB	492	1	blank2r.bmp	572	1	retten	866	1	!	1239	1	!	-1	0	0	0	0	0	0	0	0	0	0	0	0	0	0	0	0	0	0	0	0	0	0	0	0	0	0	0	0	0	0
072419	15:24:57	15:38:02	785304	5.0.10.0	5_exp_RW	85	Rpleas_acq	CS_B	MQQM	BZZB	GWWG	YDDY	VKKV	JXXJ	treu	ehrlich	spielen	retten	schön	fair	tot	eitel	strafen	rächen	schlecht	faul	1	acq_USpleas_CSpleas1_RW	acq4567_RW	6	6	400	1	300	300	397	50	0	1	1	blank2r.bmp	0	1	+	0	1	blank2r.bmp	492	1	MQQM	492	1	blank2r.bmp	572	1	treu	866	1	!	1239	1	!	1292	0	0	0	0	0	0	0	0	0	0	0	0	0	0	0	0	0	0	0	0	0	0	0	0	0	0	0	0	0	0
072419	15:24:57	15:38:05	787556	5.0.10.0	5_exp_RW	85	Rpleas_acq	CS_B	MQQM	BZZB	GWWG	YDDY	VKKV	JXXJ	treu	ehrlich	spielen	retten	schön	fair	tot	eitel	strafen	rächen	schlecht	faul	1	acq_USunple_CSunple2_RW	acq4567_RW	6	7	400	0	300	300	486	46	0	1	1	blank2r.bmp	0	1	+	0	1	blank2r.bmp	492	1	YDDY	492	1	blank2r.bmp	572	2	schlecht	866	1	!	1239	1	!	-1	0	0	0	0	0	0	0	0	0	0	0	0	0	0	0	0	0	0	0	0	0	0	0	0	0	0	0	0	0	0
072419	15:24:57	15:38:07	789929	5.0.10.0	5_exp_RW	85	Rpleas_acq	CS_B	MQQM	BZZB	GWWG	YDDY	VKKV	JXXJ	treu	ehrlich	spielen	retten	schön	fair	tot	eitel	strafen	rächen	schlecht	faul	1	acq_USunple_CSunple2_RW	acq4567_RW	6	8	400	0	300	300	586	46	0	1	1	blank2r.bmp	0	1	+	0	1	blank2r.bmp	492	1	YDDY	492	1	blank2r.bmp	572	3	faul	866	1	!	1239	1	!	-1	0	0	0	0	0	0	0	0	0	0	0	0	0	0	0	0	0	0	0	0	0	0	0	0	0	0	0	0	0	0
072419	15:24:57	15:38:09	792168	5.0.10.0	5_exp_RW	85	Rpleas_acq	CS_B	MQQM	BZZB	GWWG	YDDY	VKKV	JXXJ	treu	ehrlich	spielen	retten	schön	fair	tot	eitel	strafen	rächen	schlecht	faul	1	acq_USunple_CSunple1_RW	acq4567_RW	6	9	400	1	300	300	434	46	0	1	1	blank2r.bmp	0	1	+	0	1	blank2r.bmp	492	1	GWWG	492	1	blank2r.bmp	572	3	strafen	866	1	!	1239	1	!	1332	0	0	0	0	0	0	0	0	0	0	0	0	0	0	0	0	0	0	0	0	0	0	0	0	0	0	0	0	0	0
072419	15:24:57	15:38:11	794207	5.0.10.0	5_exp_RW	85	Rpleas_acq	CS_B	MQQM	BZZB	GWWG	YDDY	VKKV	JXXJ	treu	ehrlich	spielen	retten	schön	fair	tot	eitel	strafen	rächen	schlecht	faul	1	acq_USunple_CSunple2_RW	acq4567_RW	6	10	400	0	300	300	273	46	0	1	1	blank2r.bmp	0	1	+	0	1	blank2r.bmp	492	1	YDDY	492	1	blank2r.bmp	572	1	rächen	866	1	!	-1	1	!	-1	0	0	0	0	0	0	0	0	0	0	0	0	0	0	0	0	0	0	0	0	0	0	0	0	0	0	0	0	0	0
072419	15:24:57	15:38:14	796419	5.0.10.0	5_exp_RW	85	Rpleas_acq	CS_B	MQQM	BZZB	GWWG	YDDY	VKKV	JXXJ	treu	ehrlich	spielen	retten	schön	fair	tot	eitel	strafen	rächen	schlecht	faul	1	acq_USunple_CSunple1_RW	acq4567_RW	6	11	400	1	300	300	394	46	0	1	1	blank2r.bmp	0	1	+	0	1	blank2r.bmp	492	1	GWWG	492	1	blank2r.bmp	572	2	eitel	866	1	!	1239	1	!	1292	0	0	0	0	0	0	0	0	0	0	0	0	0	0	0	0	0	0	0	0	0	0	0	0	0	0	0	0	0	0
072419	15:24:57	15:38:16	798645	5.0.10.0	5_exp_RW	85	Rpleas_acq	CS_B	MQQM	BZZB	GWWG	YDDY	VKKV	JXXJ	treu	ehrlich	spielen	retten	schön	fair	tot	eitel	strafen	rächen	schlecht	faul	1	acq_USpleas_CSpleas1_RW	acq4567_RW	6	12	400	1	300	300	430	46	0	0	1	blank2r.bmp	0	1	+	0	1	blank2r.bmp	492	1	MQQM	492	1	blank2r.bmp	572	1	treu	866	1	!	1239	1	!	1332	0	0	0	0	0	0	0	0	0	0	0	0	0	0	0	0	0	0	0	0	0	0	0	0	0	0	0	0	0	0
072419	15:24:57	15:38:18	800737	5.0.10.0	5_exp_RW	85	Rpleas_acq	CS_B	MQQM	BZZB	GWWG	YDDY	VKKV	JXXJ	treu	ehrlich	spielen	retten	schön	fair	tot	eitel	strafen	rächen	schlecht	faul	1	acq_USpleas_CSpleas2_RW	acq4567_RW	6	13	400	0	300	300	322	50	0	1	1	blank2r.bmp	0	1	+	0	1	blank2r.bmp	492	1	BZZB	492	1	blank2r.bmp	572	2	schön	866	1	!	-1	1	!	-1	0	0	0	0	0	0	0	0	0	0	0	0	0	0	0	0	0	0	0	0	0	0	0	0	0	0	0	0	0	0
072419	15:24:57	15:38:20	802990	5.0.10.0	5_exp_RW	85	Rpleas_acq	CS_B	MQQM	BZZB	GWWG	YDDY	VKKV	JXXJ	treu	ehrlich	spielen	retten	schön	fair	tot	eitel	strafen	rächen	schlecht	faul	1	acq_USunple_CSunple1_RW	acq4567_RW	6	14	400	1	300	300	445	46	0	1	1	blank2r.bmp	0	1	+	0	1	blank2r.bmp	492	1	GWWG	492	1	blank2r.bmp	572	1	tot	866	1	!	1239	1	!	1346	0	0	0	0	0	0	0	0	0	0	0	0	0	0	0	0	0	0	0	0	0	0	0	0	0	0	0	0	0	0
072419	15:24:57	15:38:22	805096	5.0.10.0	5_exp_RW	85	Rpleas_acq	CS_B	MQQM	BZZB	GWWG	YDDY	VKKV	JXXJ	treu	ehrlich	spielen	retten	schön	fair	tot	eitel	strafen	rächen	schlecht	faul	1	acq_USpleas_CSpleas1_RW	acq4567_RW	6	15	400	0	300	300	322	50	0	1	1	blank2r.bmp	0	1	+	0	1	blank2r.bmp	492	1	MQQM	492	1	blank2r.bmp	572	3	spielen	866	1	!	-1	1	!	-1	0	0	0	0	0	0	0	0	0	0	0	0	0	0	0	0	0	0	0	0	0	0	0	0	0	0	0	0	0	0
072419	15:24:57	15:38:24	807268	5.0.10.0	5_exp_RW	85	Rpleas_acq	CS_B	MQQM	BZZB	GWWG	YDDY	VKKV	JXXJ	treu	ehrlich	spielen	retten	schön	fair	tot	eitel	strafen	rächen	schlecht	faul	1	acq_USpleas_CSpleas2_RW	acq4567_RW	6	16	400	1	300	300	366	50	0	1	1	blank2r.bmp	0	1	+	0	1	blank2r.bmp	492	1	BZZB	492	1	blank2r.bmp	572	3	fair	866	1	!	1239	1	!	1266	0	0	0	0	0	0	0	0	0	0	0	0	0	0	0	0	0	0	0	0	0	0	0	0	0	0	0	0	0	0
072419	15:24:57	15:38:27	809507	5.0.10.0	5_exp_RW	85	Rpleas_acq	CS_B	MQQM	BZZB	GWWG	YDDY	VKKV	JXXJ	treu	ehrlich	spielen	retten	schön	fair	tot	eitel	strafen	rächen	schlecht	faul	1	acq_USpleas_CSpleas2_RW	acq4567_RW	6	17	400	1	300	300	443	50	0	1	1	blank2r.bmp	0	1	+	0	1	blank2r.bmp	492	1	BZZB	492	1	blank2r.bmp	572	2	schön	866	1	!	1239	1	!	1346	0	0	0	0	0	0	0	0	0	0	0	0	0	0	0	0	0	0	0	0	0	0	0	0	0	0	0	0	0	0
072419	15:24:57	15:38:29	811573	5.0.10.0	5_exp_RW	85	Rpleas_acq	CS_B	MQQM	BZZB	GWWG	YDDY	VKKV	JXXJ	treu	ehrlich	spielen	retten	schön	fair	tot	eitel	strafen	rächen	schlecht	faul	1	acq_USpleas_CSpleas1_RW	acq4567_RW	6	18	400	0	300	300	297	46	0	0	1	blank2r.bmp	0	1	+	0	1	blank2r.bmp	492	1	MQQM	492	1	blank2r.bmp	572	2	ehrlich	866	1	!	-1	1	!	-1	0	0	0	0	0	0	0	0	0	0	0	0	0	0	0	0	0	0	0	0	0	0	0	0	0	0	0	0	0	0
072419	15:24:57	15:38:31	813799	5.0.10.0	5_exp_RW	85	Rpleas_acq	CS_B	MQQM	BZZB	GWWG	YDDY	VKKV	JXXJ	treu	ehrlich	spielen	retten	schön	fair	tot	eitel	strafen	rächen	schlecht	faul	1	acq_USpleas_CSpleas1_RW	acq4567_RW	6	19	400	1	300	300	422	50	0	1	1	blank2r.bmp	0	1	+	0	1	blank2r.bmp	492	1	MQQM	492	1	blank2r.bmp	572	2	ehrlich	866	1	!	1239	1	!	1319	0	0	0	0	0	0	0	0	0	0	0	0	0	0	0	0	0	0	0	0	0	0	0	0	0	0	0	0	0	0
072419	15:24:57	15:38:33	816091	5.0.10.0	5_exp_RW	85	Rpleas_acq	CS_B	MQQM	BZZB	GWWG	YDDY	VKKV	JXXJ	treu	ehrlich	spielen	retten	schön	fair	tot	eitel	strafen	rächen	schlecht	faul	1	acq_USunple_CSunple1_RW	acq4567_RW	6	20	400	0	300	300	512	50	0	0	1	blank2r.bmp	0	1	+	0	1	blank2r.bmp	492	1	GWWG	492	1	blank2r.bmp	572	2	eitel	866	1	!	1239	1	!	-1	0	0	0	0	0	0	0	0	0	0	0	0	0	0	0	0	0	0	0	0	0	0	0	0	0	0	0	0	0	0
