date	time	script.currenttime	script.elapsedtime	build	script.currentexpt	subject	expressions.LRpleas_acq	expressions.conditionCS_A	expressions.CSpleas_1	expressions.CSpleas_2	expressions.CSunple_1	expressions.CSunple_2	expressions.distractor_1	expressions.distractor_2	expressions.US_pleas1	expressions.US_pleas2	expressions.US_pleas3	expressions.US_pleas4	expressions.US_pleas5	expressions.US_pleas6	expressions.US_unple1	expressions.US_unple2	expressions.US_unple3	expressions.US_unple4	expressions.US_unple5	expressions.US_unple6	counter.positions_noRW	trialcode	blockcode	blocknum	trialnum	windowcenter	inwindow	pretrialpause	posttrialpause	latency	response	expressions.correctedscore	correct	stimulusnumber1	stimulusitem1	stimulusonset1	stimulusnumber2	stimulusitem2	stimulusonset2	stimulusnumber3	stimulusitem3	stimulusonset3	stimulusnumber4	stimulusitem4	stimulusonset4	stimulusnumber5	stimulusitem5	stimulusonset5	stimulusnumber6	stimulusitem6	stimulusonset6	stimulusnumber7	stimulusitem7	stimulusonset7	stimulusnumber8	stimulusitem8	stimulusonset8	stimulusnumber9	stimulusitem9	stimulusonset9	stimulusnumber10	stimulusitem10	stimulusonset10	stimulusnumber11	stimulusitem11	stimulusonset11	stimulusnumber12	stimulusitem12	stimulusonset12	stimulusnumber13	stimulusitem13	stimulusonset13	stimulusnumber14	stimulusitem14	stimulusonset14	stimulusnumber15	stimulusitem15	stimulusonset15	stimulusnumber16	stimulusitem16	stimulusonset16	stimulusnumber17	stimulusitem17	stimulusonset17	stimulusnumber18	stimulusitem18	stimulusonset18
070319	12:32:36	12:34:02	85378	5.0.10.0	5_exp_RW	9	Rpleas_acq	CS_B	MQQM	VKKV	YDDY	BZZB	JXXJ	GWWG	treu	spielen	retten	fair	ehrlich	schön	tot	strafen	rächen	faul	eitel	schlecht	1	acq_USunple_CSunple2_RW	acq1_RW	1	1	0	0	300	300	316	46	0	1	1	blank2r.bmp	0	1	+	0	1	blank2r.bmp	492	1	BZZB	492	1	blank2r.bmp	572	2	eitel	866	0	0	0	0	0	0	0	0	0	0	0	0	0	0	0	0	0	0	0	0	0	0	0	0	0	0	0	0	0	0	0	0	0	0	0	0
070319	12:32:36	12:34:04	87364	5.0.10.0	5_exp_RW	9	Rpleas_acq	CS_B	MQQM	VKKV	YDDY	BZZB	JXXJ	GWWG	treu	spielen	retten	fair	ehrlich	schön	tot	strafen	rächen	faul	eitel	schlecht	1	acq_USpleas_CSpleas2_RW	acq1_RW	1	2	0	0	300	300	516	50	0	1	1	blank2r.bmp	0	1	+	0	1	blank2r.bmp	492	1	VKKV	492	1	blank2r.bmp	572	3	schön	866	0	0	0	0	0	0	0	0	0	0	0	0	0	0	0	0	0	0	0	0	0	0	0	0	0	0	0	0	0	0	0	0	0	0	0	0
070319	12:32:36	12:34:06	89216	5.0.10.0	5_exp_RW	9	Rpleas_acq	CS_B	MQQM	VKKV	YDDY	BZZB	JXXJ	GWWG	treu	spielen	retten	fair	ehrlich	schön	tot	strafen	rächen	faul	eitel	schlecht	1	acq_USunple_CSunple2_RW	acq1_RW	1	3	0	0	300	300	371	46	0	1	1	blank2r.bmp	0	1	+	0	1	blank2r.bmp	492	1	BZZB	492	1	blank2r.bmp	572	3	schlecht	866	0	0	0	0	0	0	0	0	0	0	0	0	0	0	0	0	0	0	0	0	0	0	0	0	0	0	0	0	0	0	0	0	0	0	0	0
070319	12:32:36	12:34:08	91216	5.0.10.0	5_exp_RW	9	Rpleas_acq	CS_B	MQQM	VKKV	YDDY	BZZB	JXXJ	GWWG	treu	spielen	retten	fair	ehrlich	schön	tot	strafen	rächen	faul	eitel	schlecht	1	acq_USunple_CSunple1_RW	acq1_RW	1	4	0	0	300	300	499	46	0	1	1	blank2r.bmp	0	1	+	0	1	blank2r.bmp	492	1	YDDY	492	1	blank2r.bmp	572	3	rächen	866	0	0	0	0	0	0	0	0	0	0	0	0	0	0	0	0	0	0	0	0	0	0	0	0	0	0	0	0	0	0	0	0	0	0	0	0
070319	12:32:36	12:34:10	93255	5.0.10.0	5_exp_RW	9	Rpleas_acq	CS_B	MQQM	VKKV	YDDY	BZZB	JXXJ	GWWG	treu	spielen	retten	fair	ehrlich	schön	tot	strafen	rächen	faul	eitel	schlecht	1	acq_USpleas_CSpleas1_RW	acq1_RW	1	5	0	0	300	300	571	50	0	1	1	blank2r.bmp	0	1	+	0	1	blank2r.bmp	492	1	MQQM	492	1	blank2r.bmp	572	3	retten	866	0	0	0	0	0	0	0	0	0	0	0	0	0	0	0	0	0	0	0	0	0	0	0	0	0	0	0	0	0	0	0	0	0	0	0	0
070319	12:32:36	12:34:12	95187	5.0.10.0	5_exp_RW	9	Rpleas_acq	CS_B	MQQM	VKKV	YDDY	BZZB	JXXJ	GWWG	treu	spielen	retten	fair	ehrlich	schön	tot	strafen	rächen	faul	eitel	schlecht	1	acq_USunple_CSunple1_RW	acq1_RW	1	6	0	0	300	300	440	46	0	1	1	blank2r.bmp	0	1	+	0	1	blank2r.bmp	492	1	YDDY	492	1	blank2r.bmp	572	2	strafen	866	0	0	0	0	0	0	0	0	0	0	0	0	0	0	0	0	0	0	0	0	0	0	0	0	0	0	0	0	0	0	0	0	0	0	0	0
070319	12:32:36	12:34:14	97187	5.0.10.0	5_exp_RW	9	Rpleas_acq	CS_B	MQQM	VKKV	YDDY	BZZB	JXXJ	GWWG	treu	spielen	retten	fair	ehrlich	schön	tot	strafen	rächen	faul	eitel	schlecht	1	acq_USpleas_CSpleas1_RW	acq1_RW	1	7	0	0	300	300	506	50	0	1	1	blank2r.bmp	0	1	+	0	1	blank2r.bmp	492	1	MQQM	492	1	blank2r.bmp	572	1	treu	866	0	0	0	0	0	0	0	0	0	0	0	0	0	0	0	0	0	0	0	0	0	0	0	0	0	0	0	0	0	0	0	0	0	0	0	0
070319	12:32:36	12:34:16	99266	5.0.10.0	5_exp_RW	9	Rpleas_acq	CS_B	MQQM	VKKV	YDDY	BZZB	JXXJ	GWWG	treu	spielen	retten	fair	ehrlich	schön	tot	strafen	rächen	faul	eitel	schlecht	1	acq_USpleas_CSpleas1_RW	acq1_RW	1	8	0	0	300	300	594	50	0	1	1	blank2r.bmp	0	1	+	0	1	blank2r.bmp	492	1	MQQM	492	1	blank2r.bmp	572	2	spielen	866	0	0	0	0	0	0	0	0	0	0	0	0	0	0	0	0	0	0	0	0	0	0	0	0	0	0	0	0	0	0	0	0	0	0	0	0
070319	12:32:36	12:34:18	101225	5.0.10.0	5_exp_RW	9	Rpleas_acq	CS_B	MQQM	VKKV	YDDY	BZZB	JXXJ	GWWG	treu	spielen	retten	fair	ehrlich	schön	tot	strafen	rächen	faul	eitel	schlecht	1	acq_USpleas_CSpleas2_RW	acq1_RW	1	9	0	0	300	300	484	50	0	1	1	blank2r.bmp	0	1	+	0	1	blank2r.bmp	492	1	VKKV	492	1	blank2r.bmp	572	1	fair	866	0	0	0	0	0	0	0	0	0	0	0	0	0	0	0	0	0	0	0	0	0	0	0	0	0	0	0	0	0	0	0	0	0	0	0	0
070319	12:32:36	12:34:20	103157	5.0.10.0	5_exp_RW	9	Rpleas_acq	CS_B	MQQM	VKKV	YDDY	BZZB	JXXJ	GWWG	treu	spielen	retten	fair	ehrlich	schön	tot	strafen	rächen	faul	eitel	schlecht	1	acq_USunple_CSunple1_RW	acq1_RW	1	10	0	0	300	300	448	46	0	1	1	blank2r.bmp	0	1	+	0	1	blank2r.bmp	492	1	YDDY	492	1	blank2r.bmp	572	1	tot	866	0	0	0	0	0	0	0	0	0	0	0	0	0	0	0	0	0	0	0	0	0	0	0	0	0	0	0	0	0	0	0	0	0	0	0	0
070319	12:32:36	12:34:21	105037	5.0.10.0	5_exp_RW	9	Rpleas_acq	CS_B	MQQM	VKKV	YDDY	BZZB	JXXJ	GWWG	treu	spielen	retten	fair	ehrlich	schön	tot	strafen	rächen	faul	eitel	schlecht	1	acq_USunple_CSunple1_RW	acq1_RW	1	11	0	0	300	300	394	46	0	1	1	blank2r.bmp	0	1	+	0	1	blank2r.bmp	492	1	YDDY	492	1	blank2r.bmp	572	2	strafen	866	0	0	0	0	0	0	0	0	0	0	0	0	0	0	0	0	0	0	0	0	0	0	0	0	0	0	0	0	0	0	0	0	0	0	0	0
070319	12:32:36	12:34:23	106916	5.0.10.0	5_exp_RW	9	Rpleas_acq	CS_B	MQQM	VKKV	YDDY	BZZB	JXXJ	GWWG	treu	spielen	retten	fair	ehrlich	schön	tot	strafen	rächen	faul	eitel	schlecht	1	acq_USunple_CSunple2_RW	acq1_RW	1	12	0	0	300	300	408	46	0	1	1	blank2r.bmp	0	1	+	0	1	blank2r.bmp	492	1	BZZB	492	1	blank2r.bmp	572	1	faul	866	0	0	0	0	0	0	0	0	0	0	0	0	0	0	0	0	0	0	0	0	0	0	0	0	0	0	0	0	0	0	0	0	0	0	0	0
070319	12:32:36	12:34:25	108915	5.0.10.0	5_exp_RW	9	Rpleas_acq	CS_B	MQQM	VKKV	YDDY	BZZB	JXXJ	GWWG	treu	spielen	retten	fair	ehrlich	schön	tot	strafen	rächen	faul	eitel	schlecht	1	acq_USpleas_CSpleas1_RW	acq1_RW	1	13	0	0	300	300	513	50	0	1	1	blank2r.bmp	0	1	+	0	1	blank2r.bmp	492	1	MQQM	492	1	blank2r.bmp	572	3	retten	866	0	0	0	0	0	0	0	0	0	0	0	0	0	0	0	0	0	0	0	0	0	0	0	0	0	0	0	0	0	0	0	0	0	0	0	0
070319	12:32:36	12:34:27	111061	5.0.10.0	5_exp_RW	9	Rpleas_acq	CS_B	MQQM	VKKV	YDDY	BZZB	JXXJ	GWWG	treu	spielen	retten	fair	ehrlich	schön	tot	strafen	rächen	faul	eitel	schlecht	1	acq_USunple_CSunple2_RW	acq1_RW	1	14	0	0	300	300	659	46	0	1	1	blank2r.bmp	0	1	+	0	1	blank2r.bmp	492	1	BZZB	492	1	blank2r.bmp	572	2	eitel	866	0	0	0	0	0	0	0	0	0	0	0	0	0	0	0	0	0	0	0	0	0	0	0	0	0	0	0	0	0	0	0	0	0	0	0	0
070319	12:32:36	12:34:29	112940	5.0.10.0	5_exp_RW	9	Rpleas_acq	CS_B	MQQM	VKKV	YDDY	BZZB	JXXJ	GWWG	treu	spielen	retten	fair	ehrlich	schön	tot	strafen	rächen	faul	eitel	schlecht	1	acq_USpleas_CSpleas2_RW	acq1_RW	1	15	0	0	300	300	399	50	0	1	1	blank2r.bmp	0	1	+	0	1	blank2r.bmp	492	1	VKKV	492	1	blank2r.bmp	572	2	ehrlich	866	0	0	0	0	0	0	0	0	0	0	0	0	0	0	0	0	0	0	0	0	0	0	0	0	0	0	0	0	0	0	0	0	0	0	0	0
070319	12:32:36	12:34:31	114793	5.0.10.0	5_exp_RW	9	Rpleas_acq	CS_B	MQQM	VKKV	YDDY	BZZB	JXXJ	GWWG	treu	spielen	retten	fair	ehrlich	schön	tot	strafen	rächen	faul	eitel	schlecht	1	acq_USpleas_CSpleas2_RW	acq1_RW	1	16	0	0	300	300	359	50	0	1	1	blank2r.bmp	0	1	+	0	1	blank2r.bmp	492	1	VKKV	492	1	blank2r.bmp	572	3	schön	866	0	0	0	0	0	0	0	0	0	0	0	0	0	0	0	0	0	0	0	0	0	0	0	0	0	0	0	0	0	0	0	0	0	0	0	0
070319	12:32:36	12:35:07	150765	5.0.10.0	5_exp_RW	9	Rpleas_acq	CS_B	MQQM	VKKV	YDDY	BZZB	JXXJ	GWWG	treu	spielen	retten	fair	ehrlich	schön	tot	strafen	rächen	faul	eitel	schlecht	1	acq_USpleas_CSpleas2_RW	acq2_RW	2	1	480	1	300	300	529	50	0	1	1	blank2r.bmp	0	1	+	0	1	blank2r.bmp	492	1	VKKV	492	1	blank2r.bmp	572	1	fair	866	1	!	1319	1	!	1426	0	0	0	0	0	0	0	0	0	0	0	0	0	0	0	0	0	0	0	0	0	0	0	0	0	0	0	0	0	0
070319	12:32:36	12:35:09	152884	5.0.10.0	5_exp_RW	9	Rpleas_acq	CS_B	MQQM	VKKV	YDDY	BZZB	JXXJ	GWWG	treu	spielen	retten	fair	ehrlich	schön	tot	strafen	rächen	faul	eitel	schlecht	1	acq_USunple_CSunple2_RW	acq2_RW	2	2	480	0	300	300	345	46	0	1	1	blank2r.bmp	0	1	+	0	1	blank2r.bmp	492	1	BZZB	492	1	blank2r.bmp	572	3	schlecht	866	1	!	-1	1	!	-1	0	0	0	0	0	0	0	0	0	0	0	0	0	0	0	0	0	0	0	0	0	0	0	0	0	0	0	0	0	0
070319	12:32:36	12:35:12	155163	5.0.10.0	5_exp_RW	9	Rpleas_acq	CS_B	MQQM	VKKV	YDDY	BZZB	JXXJ	GWWG	treu	spielen	retten	fair	ehrlich	schön	tot	strafen	rächen	faul	eitel	schlecht	1	acq_USpleas_CSpleas2_RW	acq2_RW	2	3	480	1	300	300	472	50	0	1	1	blank2r.bmp	0	1	+	0	1	blank2r.bmp	492	1	VKKV	492	1	blank2r.bmp	572	2	ehrlich	866	1	!	1319	1	!	1372	0	0	0	0	0	0	0	0	0	0	0	0	0	0	0	0	0	0	0	0	0	0	0	0	0	0	0	0	0	0
070319	12:32:36	12:35:14	157322	5.0.10.0	5_exp_RW	9	Rpleas_acq	CS_B	MQQM	VKKV	YDDY	BZZB	JXXJ	GWWG	treu	spielen	retten	fair	ehrlich	schön	tot	strafen	rächen	faul	eitel	schlecht	1	acq_USunple_CSunple2_RW	acq2_RW	2	4	480	0	300	300	394	46	0	1	1	blank2r.bmp	0	1	+	0	1	blank2r.bmp	492	1	BZZB	492	1	blank2r.bmp	572	1	faul	866	1	!	-1	1	!	-1	0	0	0	0	0	0	0	0	0	0	0	0	0	0	0	0	0	0	0	0	0	0	0	0	0	0	0	0	0	0
070319	12:32:36	12:35:16	159988	5.0.10.0	5_exp_RW	9	Rpleas_acq	CS_B	MQQM	VKKV	YDDY	BZZB	JXXJ	GWWG	treu	spielen	retten	fair	ehrlich	schön	tot	strafen	rächen	faul	eitel	schlecht	1	acq_USpleas_CSpleas2_RW	acq2_RW	2	5	480	0	300	300	880	50	0	1	1	blank2r.bmp	0	1	+	0	1	blank2r.bmp	492	1	VKKV	492	1	blank2r.bmp	572	3	schön	866	1	!	1319	1	!	-1	0	0	0	0	0	0	0	0	0	0	0	0	0	0	0	0	0	0	0	0	0	0	0	0	0	0	0	0	0	0
070319	12:32:36	12:35:18	162027	5.0.10.0	5_exp_RW	9	Rpleas_acq	CS_B	MQQM	VKKV	YDDY	BZZB	JXXJ	GWWG	treu	spielen	retten	fair	ehrlich	schön	tot	strafen	rächen	faul	eitel	schlecht	1	acq_USunple_CSunple2_RW	acq2_RW	2	6	480	0	300	300	263	46	0	1	1	blank2r.bmp	0	1	+	0	1	blank2r.bmp	492	1	BZZB	492	1	blank2r.bmp	572	1	faul	866	1	!	-1	1	!	-1	0	0	0	0	0	0	0	0	0	0	0	0	0	0	0	0	0	0	0	0	0	0	0	0	0	0	0	0	0	0
070319	12:32:36	12:35:21	164573	5.0.10.0	5_exp_RW	9	Rpleas_acq	CS_B	MQQM	VKKV	YDDY	BZZB	JXXJ	GWWG	treu	spielen	retten	fair	ehrlich	schön	tot	strafen	rächen	faul	eitel	schlecht	1	acq_USunple_CSunple1_RW	acq2_RW	2	7	480	0	300	300	762	46	0	1	1	blank2r.bmp	0	1	+	0	1	blank2r.bmp	492	1	YDDY	492	1	blank2r.bmp	572	1	tot	866	1	!	1319	1	!	-1	0	0	0	0	0	0	0	0	0	0	0	0	0	0	0	0	0	0	0	0	0	0	0	0	0	0	0	0	0	0
070319	12:32:36	12:35:23	166758	5.0.10.0	5_exp_RW	9	Rpleas_acq	CS_B	MQQM	VKKV	YDDY	BZZB	JXXJ	GWWG	treu	spielen	retten	fair	ehrlich	schön	tot	strafen	rächen	faul	eitel	schlecht	1	acq_USpleas_CSpleas2_RW	acq2_RW	2	8	480	0	300	300	406	50	0	1	1	blank2r.bmp	0	1	+	0	1	blank2r.bmp	492	1	VKKV	492	1	blank2r.bmp	572	1	fair	866	1	!	-1	1	!	-1	0	0	0	0	0	0	0	0	0	0	0	0	0	0	0	0	0	0	0	0	0	0	0	0	0	0	0	0	0	0
070319	12:32:36	12:35:26	169224	5.0.10.0	5_exp_RW	9	Rpleas_acq	CS_B	MQQM	VKKV	YDDY	BZZB	JXXJ	GWWG	treu	spielen	retten	fair	ehrlich	schön	tot	strafen	rächen	faul	eitel	schlecht	1	acq_USpleas_CSpleas1_RW	acq2_RW	2	9	480	0	300	300	682	50	0	1	1	blank2r.bmp	0	1	+	0	1	blank2r.bmp	492	1	MQQM	492	1	blank2r.bmp	572	1	treu	866	1	!	1319	1	!	-1	0	0	0	0	0	0	0	0	0	0	0	0	0	0	0	0	0	0	0	0	0	0	0	0	0	0	0	0	0	0
070319	12:32:36	12:35:28	171543	5.0.10.0	5_exp_RW	9	Rpleas_acq	CS_B	MQQM	VKKV	YDDY	BZZB	JXXJ	GWWG	treu	spielen	retten	fair	ehrlich	schön	tot	strafen	rächen	faul	eitel	schlecht	1	acq_USpleas_CSpleas1_RW	acq2_RW	2	10	480	1	300	300	507	50	0	1	1	blank2r.bmp	0	1	+	0	1	blank2r.bmp	492	1	MQQM	492	1	blank2r.bmp	572	2	spielen	866	1	!	1319	1	!	1412	0	0	0	0	0	0	0	0	0	0	0	0	0	0	0	0	0	0	0	0	0	0	0	0	0	0	0	0	0	0
070319	12:32:36	12:35:30	173662	5.0.10.0	5_exp_RW	9	Rpleas_acq	CS_B	MQQM	VKKV	YDDY	BZZB	JXXJ	GWWG	treu	spielen	retten	fair	ehrlich	schön	tot	strafen	rächen	faul	eitel	schlecht	1	acq_USunple_CSunple1_RW	acq2_RW	2	11	480	0	300	300	352	46	0	1	1	blank2r.bmp	0	1	+	0	1	blank2r.bmp	492	1	YDDY	492	1	blank2r.bmp	572	3	rächen	866	1	!	-1	1	!	-1	0	0	0	0	0	0	0	0	0	0	0	0	0	0	0	0	0	0	0	0	0	0	0	0	0	0	0	0	0	0
070319	12:32:36	12:35:32	176088	5.0.10.0	5_exp_RW	9	Rpleas_acq	CS_B	MQQM	VKKV	YDDY	BZZB	JXXJ	GWWG	treu	spielen	retten	fair	ehrlich	schön	tot	strafen	rächen	faul	eitel	schlecht	1	acq_USunple_CSunple2_RW	acq2_RW	2	12	480	0	300	300	646	46	0	1	1	blank2r.bmp	0	1	+	0	1	blank2r.bmp	492	1	BZZB	492	1	blank2r.bmp	572	3	schlecht	866	1	!	1319	1	!	-1	0	0	0	0	0	0	0	0	0	0	0	0	0	0	0	0	0	0	0	0	0	0	0	0	0	0	0	0	0	0
070319	12:32:36	12:35:35	178434	5.0.10.0	5_exp_RW	9	Rpleas_acq	CS_B	MQQM	VKKV	YDDY	BZZB	JXXJ	GWWG	treu	spielen	retten	fair	ehrlich	schön	tot	strafen	rächen	faul	eitel	schlecht	1	acq_USunple_CSunple2_RW	acq2_RW	2	13	480	0	300	300	559	46	0	1	1	blank2r.bmp	0	1	+	0	1	blank2r.bmp	492	1	BZZB	492	1	blank2r.bmp	572	2	eitel	866	1	!	1319	1	!	-1	0	0	0	0	0	0	0	0	0	0	0	0	0	0	0	0	0	0	0	0	0	0	0	0	0	0	0	0	0	0
070319	12:32:36	12:35:37	180673	5.0.10.0	5_exp_RW	9	Rpleas_acq	CS_B	MQQM	VKKV	YDDY	BZZB	JXXJ	GWWG	treu	spielen	retten	fair	ehrlich	schön	tot	strafen	rächen	faul	eitel	schlecht	1	acq_USpleas_CSpleas2_RW	acq2_RW	2	14	480	1	300	300	427	50	0	1	1	blank2r.bmp	0	1	+	0	1	blank2r.bmp	492	1	VKKV	492	1	blank2r.bmp	572	2	ehrlich	866	1	!	1319	1	!	1332	0	0	0	0	0	0	0	0	0	0	0	0	0	0	0	0	0	0	0	0	0	0	0	0	0	0	0	0	0	0
070319	12:32:36	12:35:39	182712	5.0.10.0	5_exp_RW	9	Rpleas_acq	CS_B	MQQM	VKKV	YDDY	BZZB	JXXJ	GWWG	treu	spielen	retten	fair	ehrlich	schön	tot	strafen	rächen	faul	eitel	schlecht	1	acq_USpleas_CSpleas1_RW	acq2_RW	2	15	480	0	300	300	274	50	0	1	1	blank2r.bmp	0	1	+	0	1	blank2r.bmp	492	1	MQQM	492	1	blank2r.bmp	572	1	treu	866	1	!	-1	1	!	-1	0	0	0	0	0	0	0	0	0	0	0	0	0	0	0	0	0	0	0	0	0	0	0	0	0	0	0	0	0	0
070319	12:32:36	12:35:41	185058	5.0.10.0	5_exp_RW	9	Rpleas_acq	CS_B	MQQM	VKKV	YDDY	BZZB	JXXJ	GWWG	treu	spielen	retten	fair	ehrlich	schön	tot	strafen	rächen	faul	eitel	schlecht	1	acq_USunple_CSunple1_RW	acq2_RW	2	16	480	0	300	300	570	46	0	1	1	blank2r.bmp	0	1	+	0	1	blank2r.bmp	492	1	YDDY	492	1	blank2r.bmp	572	1	tot	866	1	!	1319	1	!	-1	0	0	0	0	0	0	0	0	0	0	0	0	0	0	0	0	0	0	0	0	0	0	0	0	0	0	0	0	0	0
070319	12:32:36	12:35:44	187470	5.0.10.0	5_exp_RW	9	Rpleas_acq	CS_B	MQQM	VKKV	YDDY	BZZB	JXXJ	GWWG	treu	spielen	retten	fair	ehrlich	schön	tot	strafen	rächen	faul	eitel	schlecht	1	acq_USunple_CSunple1_RW	acq2_RW	2	17	480	0	300	300	400	50	0	0	1	blank2r.bmp	0	1	+	0	1	blank2r.bmp	492	1	YDDY	492	1	blank2r.bmp	572	3	rächen	866	1	FEHLER	1612	1	!	-1	1	!	-1	0	0	0	0	0	0	0	0	0	0	0	0	0	0	0	0	0	0	0	0	0	0	0	0	0	0	0
070319	12:32:36	12:35:46	189416	5.0.10.0	5_exp_RW	9	Rpleas_acq	CS_B	MQQM	VKKV	YDDY	BZZB	JXXJ	GWWG	treu	spielen	retten	fair	ehrlich	schön	tot	strafen	rächen	faul	eitel	schlecht	1	acq_USpleas_CSpleas1_RW	acq2_RW	2	18	480	0	300	300	394	50	0	1	1	blank2r.bmp	0	1	+	0	1	blank2r.bmp	492	1	MQQM	492	1	blank2r.bmp	572	2	spielen	866	1	!	-1	1	!	-1	0	0	0	0	0	0	0	0	0	0	0	0	0	0	0	0	0	0	0	0	0	0	0	0	0	0	0	0	0	0
070319	12:32:36	12:35:48	191548	5.0.10.0	5_exp_RW	9	Rpleas_acq	CS_B	MQQM	VKKV	YDDY	BZZB	JXXJ	GWWG	treu	spielen	retten	fair	ehrlich	schön	tot	strafen	rächen	faul	eitel	schlecht	1	acq_USunple_CSunple1_RW	acq2_RW	2	19	480	0	300	300	341	46	0	1	1	blank2r.bmp	0	1	+	0	1	blank2r.bmp	492	1	YDDY	492	1	blank2r.bmp	572	2	strafen	866	1	!	-1	1	!	-1	0	0	0	0	0	0	0	0	0	0	0	0	0	0	0	0	0	0	0	0	0	0	0	0	0	0	0	0	0	0
070319	12:32:36	12:35:50	193894	5.0.10.0	5_exp_RW	9	Rpleas_acq	CS_B	MQQM	VKKV	YDDY	BZZB	JXXJ	GWWG	treu	spielen	retten	fair	ehrlich	schön	tot	strafen	rächen	faul	eitel	schlecht	1	acq_USunple_CSunple2_RW	acq2_RW	2	20	480	0	300	300	570	46	0	1	1	blank2r.bmp	0	1	+	0	1	blank2r.bmp	492	1	BZZB	492	1	blank2r.bmp	572	1	faul	866	1	!	1319	1	!	-1	0	0	0	0	0	0	0	0	0	0	0	0	0	0	0	0	0	0	0	0	0	0	0	0	0	0	0	0	0	0
070319	12:32:36	12:35:53	196213	5.0.10.0	5_exp_RW	9	Rpleas_acq	CS_B	MQQM	VKKV	YDDY	BZZB	JXXJ	GWWG	treu	spielen	retten	fair	ehrlich	schön	tot	strafen	rächen	faul	eitel	schlecht	1	acq_USunple_CSunple1_RW	acq2_RW	2	21	480	0	300	300	312	50	0	0	1	blank2r.bmp	0	1	+	0	1	blank2r.bmp	492	1	YDDY	492	1	blank2r.bmp	572	2	strafen	866	1	FEHLER	1519	1	!	-1	1	!	-1	0	0	0	0	0	0	0	0	0	0	0	0	0	0	0	0	0	0	0	0	0	0	0	0	0	0	0
070319	12:32:36	12:35:55	198346	5.0.10.0	5_exp_RW	9	Rpleas_acq	CS_B	MQQM	VKKV	YDDY	BZZB	JXXJ	GWWG	treu	spielen	retten	fair	ehrlich	schön	tot	strafen	rächen	faul	eitel	schlecht	1	acq_USpleas_CSpleas1_RW	acq2_RW	2	22	480	0	300	300	357	46	0	0	1	blank2r.bmp	0	1	+	0	1	blank2r.bmp	492	1	MQQM	492	1	blank2r.bmp	572	3	retten	866	1	FEHLER	1559	1	!	-1	1	!	-1	0	0	0	0	0	0	0	0	0	0	0	0	0	0	0	0	0	0	0	0	0	0	0	0	0	0	0
070319	12:32:36	12:35:57	200398	5.0.10.0	5_exp_RW	9	Rpleas_acq	CS_B	MQQM	VKKV	YDDY	BZZB	JXXJ	GWWG	treu	spielen	retten	fair	ehrlich	schön	tot	strafen	rächen	faul	eitel	schlecht	1	acq_USpleas_CSpleas2_RW	acq2_RW	2	23	480	1	300	300	462	50	0	1	1	blank2r.bmp	0	1	+	0	1	blank2r.bmp	492	1	VKKV	492	1	blank2r.bmp	572	1	fair	866	1	!	1319	1	!	1359	0	0	0	0	0	0	0	0	0	0	0	0	0	0	0	0	0	0	0	0	0	0	0	0	0	0	0	0	0	0
070319	12:32:36	12:35:59	202624	5.0.10.0	5_exp_RW	9	Rpleas_acq	CS_B	MQQM	VKKV	YDDY	BZZB	JXXJ	GWWG	treu	spielen	retten	fair	ehrlich	schön	tot	strafen	rächen	faul	eitel	schlecht	1	acq_USpleas_CSpleas1_RW	acq2_RW	2	24	480	1	300	300	426	50	0	1	1	blank2r.bmp	0	1	+	0	1	blank2r.bmp	492	1	MQQM	492	1	blank2r.bmp	572	2	spielen	866	1	!	1319	1	!	1332	0	0	0	0	0	0	0	0	0	0	0	0	0	0	0	0	0	0	0	0	0	0	0	0	0	0	0	0	0	0
070319	12:32:36	12:36:15	218404	5.0.10.0	5_exp_RW	9	Rpleas_acq	CS_B	MQQM	VKKV	YDDY	BZZB	JXXJ	GWWG	treu	spielen	retten	fair	ehrlich	schön	tot	strafen	rächen	faul	eitel	schlecht	1	acq_USpleas_CSpleas2_RW	acq3_RW	3	1	453	0	300	300	309	46	0	0	1	blank2r.bmp	0	1	+	0	1	blank2r.bmp	492	1	VKKV	492	1	blank2r.bmp	572	2	ehrlich	866	1	FEHLER	1519	1	!	-1	1	!	-1	0	0	0	0	0	0	0	0	0	0	0	0	0	0	0	0	0	0	0	0	0	0	0	0	0	0	0
070319	12:32:36	12:36:17	220417	5.0.10.0	5_exp_RW	9	Rpleas_acq	CS_B	MQQM	VKKV	YDDY	BZZB	JXXJ	GWWG	treu	spielen	retten	fair	ehrlich	schön	tot	strafen	rächen	faul	eitel	schlecht	1	acq_USpleas_CSpleas2_RW	acq3_RW	3	2	453	1	300	300	432	50	0	1	1	blank2r.bmp	0	1	+	0	1	blank2r.bmp	492	1	VKKV	492	1	blank2r.bmp	572	3	schön	866	1	!	1292	1	!	1332	0	0	0	0	0	0	0	0	0	0	0	0	0	0	0	0	0	0	0	0	0	0	0	0	0	0	0	0	0	0
070319	12:32:36	12:36:19	222509	5.0.10.0	5_exp_RW	9	Rpleas_acq	CS_B	MQQM	VKKV	YDDY	BZZB	JXXJ	GWWG	treu	spielen	retten	fair	ehrlich	schön	tot	strafen	rächen	faul	eitel	schlecht	1	acq_USpleas_CSpleas1_RW	acq3_RW	3	3	453	0	300	300	329	50	0	1	1	blank2r.bmp	0	1	+	0	1	blank2r.bmp	492	1	MQQM	492	1	blank2r.bmp	572	3	retten	866	1	!	-1	1	!	-1	0	0	0	0	0	0	0	0	0	0	0	0	0	0	0	0	0	0	0	0	0	0	0	0	0	0	0	0	0	0
070319	12:32:36	12:36:21	224895	5.0.10.0	5_exp_RW	9	Rpleas_acq	CS_B	MQQM	VKKV	YDDY	BZZB	JXXJ	GWWG	treu	spielen	retten	fair	ehrlich	schön	tot	strafen	rächen	faul	eitel	schlecht	1	acq_USunple_CSunple2_RW	acq3_RW	3	4	453	0	300	300	602	46	0	1	1	blank2r.bmp	0	1	+	0	1	blank2r.bmp	492	1	BZZB	492	1	blank2r.bmp	572	2	eitel	866	1	!	1292	1	!	-1	0	0	0	0	0	0	0	0	0	0	0	0	0	0	0	0	0	0	0	0	0	0	0	0	0	0	0	0	0	0
070319	12:32:36	12:36:24	227240	5.0.10.0	5_exp_RW	9	Rpleas_acq	CS_B	MQQM	VKKV	YDDY	BZZB	JXXJ	GWWG	treu	spielen	retten	fair	ehrlich	schön	tot	strafen	rächen	faul	eitel	schlecht	1	acq_USunple_CSunple1_RW	acq3_RW	3	5	453	0	300	300	337	50	0	0	1	blank2r.bmp	0	1	+	0	1	blank2r.bmp	492	1	YDDY	492	1	blank2r.bmp	572	3	rächen	866	1	FEHLER	1546	1	!	-1	1	!	-1	0	0	0	0	0	0	0	0	0	0	0	0	0	0	0	0	0	0	0	0	0	0	0	0	0	0	0
070319	12:32:36	12:36:26	229160	5.0.10.0	5_exp_RW	9	Rpleas_acq	CS_B	MQQM	VKKV	YDDY	BZZB	JXXJ	GWWG	treu	spielen	retten	fair	ehrlich	schön	tot	strafen	rächen	faul	eitel	schlecht	1	acq_USunple_CSunple1_RW	acq3_RW	3	6	453	0	300	300	364	46	0	1	1	blank2r.bmp	0	1	+	0	1	blank2r.bmp	492	1	YDDY	492	1	blank2r.bmp	572	1	tot	866	1	!	-1	1	!	-1	0	0	0	0	0	0	0	0	0	0	0	0	0	0	0	0	0	0	0	0	0	0	0	0	0	0	0	0	0	0
070319	12:32:36	12:36:28	231479	5.0.10.0	5_exp_RW	9	Rpleas_acq	CS_B	MQQM	VKKV	YDDY	BZZB	JXXJ	GWWG	treu	spielen	retten	fair	ehrlich	schön	tot	strafen	rächen	faul	eitel	schlecht	1	acq_USunple_CSunple1_RW	acq3_RW	3	7	453	1	300	300	515	46	0	1	1	blank2r.bmp	0	1	+	0	1	blank2r.bmp	492	1	YDDY	492	1	blank2r.bmp	572	1	tot	866	1	!	1292	1	!	1412	0	0	0	0	0	0	0	0	0	0	0	0	0	0	0	0	0	0	0	0	0	0	0	0	0	0	0	0	0	0
070319	12:32:36	12:36:30	233545	5.0.10.0	5_exp_RW	9	Rpleas_acq	CS_B	MQQM	VKKV	YDDY	BZZB	JXXJ	GWWG	treu	spielen	retten	fair	ehrlich	schön	tot	strafen	rächen	faul	eitel	schlecht	1	acq_USunple_CSunple2_RW	acq3_RW	3	8	453	0	300	300	301	46	0	1	1	blank2r.bmp	0	1	+	0	1	blank2r.bmp	492	1	BZZB	492	1	blank2r.bmp	572	3	schlecht	866	1	!	-1	1	!	-1	0	0	0	0	0	0	0	0	0	0	0	0	0	0	0	0	0	0	0	0	0	0	0	0	0	0	0	0	0	0
070319	12:32:36	12:36:32	235704	5.0.10.0	5_exp_RW	9	Rpleas_acq	CS_B	MQQM	VKKV	YDDY	BZZB	JXXJ	GWWG	treu	spielen	retten	fair	ehrlich	schön	tot	strafen	rächen	faul	eitel	schlecht	1	acq_USunple_CSunple1_RW	acq3_RW	3	9	453	0	300	300	372	46	0	1	1	blank2r.bmp	0	1	+	0	1	blank2r.bmp	492	1	YDDY	492	1	blank2r.bmp	572	3	rächen	866	1	!	-1	1	!	-1	0	0	0	0	0	0	0	0	0	0	0	0	0	0	0	0	0	0	0	0	0	0	0	0	0	0	0	0	0	0
070319	12:32:36	12:36:34	237796	5.0.10.0	5_exp_RW	9	Rpleas_acq	CS_B	MQQM	VKKV	YDDY	BZZB	JXXJ	GWWG	treu	spielen	retten	fair	ehrlich	schön	tot	strafen	rächen	faul	eitel	schlecht	1	acq_USunple_CSunple2_RW	acq3_RW	3	10	453	0	300	300	312	46	0	1	1	blank2r.bmp	0	1	+	0	1	blank2r.bmp	492	1	BZZB	492	1	blank2r.bmp	572	1	faul	866	1	!	-1	1	!	-1	0	0	0	0	0	0	0	0	0	0	0	0	0	0	0	0	0	0	0	0	0	0	0	0	0	0	0	0	0	0
070319	12:32:36	12:36:37	240115	5.0.10.0	5_exp_RW	9	Rpleas_acq	CS_B	MQQM	VKKV	YDDY	BZZB	JXXJ	GWWG	treu	spielen	retten	fair	ehrlich	schön	tot	strafen	rächen	faul	eitel	schlecht	1	acq_USpleas_CSpleas1_RW	acq3_RW	3	11	453	0	300	300	539	50	0	1	1	blank2r.bmp	0	1	+	0	1	blank2r.bmp	492	1	MQQM	492	1	blank2r.bmp	572	1	treu	866	1	!	1292	1	!	-1	0	0	0	0	0	0	0	0	0	0	0	0	0	0	0	0	0	0	0	0	0	0	0	0	0	0	0	0	0	0
070319	12:32:36	12:36:39	242194	5.0.10.0	5_exp_RW	9	Rpleas_acq	CS_B	MQQM	VKKV	YDDY	BZZB	JXXJ	GWWG	treu	spielen	retten	fair	ehrlich	schön	tot	strafen	rächen	faul	eitel	schlecht	1	acq_USpleas_CSpleas1_RW	acq3_RW	3	12	453	0	300	300	291	50	0	1	1	blank2r.bmp	0	1	+	0	1	blank2r.bmp	492	1	MQQM	492	1	blank2r.bmp	572	2	spielen	866	1	!	-1	1	!	-1	0	0	0	0	0	0	0	0	0	0	0	0	0	0	0	0	0	0	0	0	0	0	0	0	0	0	0	0	0	0
070319	12:32:36	12:36:41	244553	5.0.10.0	5_exp_RW	9	Rpleas_acq	CS_B	MQQM	VKKV	YDDY	BZZB	JXXJ	GWWG	treu	spielen	retten	fair	ehrlich	schön	tot	strafen	rächen	faul	eitel	schlecht	1	acq_USpleas_CSpleas2_RW	acq3_RW	3	13	453	0	300	300	370	46	0	0	1	blank2r.bmp	0	1	+	0	1	blank2r.bmp	492	1	VKKV	492	1	blank2r.bmp	572	1	fair	866	1	FEHLER	1572	1	!	-1	1	!	-1	0	0	0	0	0	0	0	0	0	0	0	0	0	0	0	0	0	0	0	0	0	0	0	0	0	0	0
070319	12:32:36	12:36:43	246833	5.0.10.0	5_exp_RW	9	Rpleas_acq	CS_B	MQQM	VKKV	YDDY	BZZB	JXXJ	GWWG	treu	spielen	retten	fair	ehrlich	schön	tot	strafen	rächen	faul	eitel	schlecht	1	acq_USunple_CSunple2_RW	acq3_RW	3	14	453	1	300	300	477	50	0	0	1	blank2r.bmp	0	1	+	0	1	blank2r.bmp	492	1	BZZB	492	1	blank2r.bmp	572	2	eitel	866	1	FEHLER	1692	1	!	1292	1	!	1372	0	0	0	0	0	0	0	0	0	0	0	0	0	0	0	0	0	0	0	0	0	0	0	0	0	0	0
070319	12:32:36	12:36:45	249005	5.0.10.0	5_exp_RW	9	Rpleas_acq	CS_B	MQQM	VKKV	YDDY	BZZB	JXXJ	GWWG	treu	spielen	retten	fair	ehrlich	schön	tot	strafen	rächen	faul	eitel	schlecht	1	acq_USunple_CSunple1_RW	acq3_RW	3	15	453	0	300	300	616	46	0	1	1	blank2r.bmp	0	1	+	0	1	blank2r.bmp	492	1	YDDY	492	1	blank2r.bmp	572	2	strafen	866	1	!	1292	1	!	-1	0	0	0	0	0	0	0	0	0	0	0	0	0	0	0	0	0	0	0	0	0	0	0	0	0	0	0	0	0	0
070319	12:32:36	12:36:48	251337	5.0.10.0	5_exp_RW	9	Rpleas_acq	CS_B	MQQM	VKKV	YDDY	BZZB	JXXJ	GWWG	treu	spielen	retten	fair	ehrlich	schön	tot	strafen	rächen	faul	eitel	schlecht	1	acq_USpleas_CSpleas2_RW	acq3_RW	3	16	453	1	300	300	509	50	0	1	1	blank2r.bmp	0	1	+	0	1	blank2r.bmp	492	1	VKKV	492	1	blank2r.bmp	572	2	ehrlich	866	1	!	1292	1	!	1412	0	0	0	0	0	0	0	0	0	0	0	0	0	0	0	0	0	0	0	0	0	0	0	0	0	0	0	0	0	0
070319	12:32:36	12:36:50	253483	5.0.10.0	5_exp_RW	9	Rpleas_acq	CS_B	MQQM	VKKV	YDDY	BZZB	JXXJ	GWWG	treu	spielen	retten	fair	ehrlich	schön	tot	strafen	rächen	faul	eitel	schlecht	1	acq_USunple_CSunple1_RW	acq3_RW	3	17	453	0	300	300	384	46	0	1	1	blank2r.bmp	0	1	+	0	1	blank2r.bmp	492	1	YDDY	492	1	blank2r.bmp	572	1	tot	866	1	!	-1	1	!	-1	0	0	0	0	0	0	0	0	0	0	0	0	0	0	0	0	0	0	0	0	0	0	0	0	0	0	0	0	0	0
070319	12:32:36	12:36:52	255762	5.0.10.0	5_exp_RW	9	Rpleas_acq	CS_B	MQQM	VKKV	YDDY	BZZB	JXXJ	GWWG	treu	spielen	retten	fair	ehrlich	schön	tot	strafen	rächen	faul	eitel	schlecht	1	acq_USpleas_CSpleas1_RW	acq3_RW	3	18	453	1	300	300	459	50	0	1	1	blank2r.bmp	0	1	+	0	1	blank2r.bmp	492	1	MQQM	492	1	blank2r.bmp	572	3	retten	866	1	!	1292	1	!	1359	0	0	0	0	0	0	0	0	0	0	0	0	0	0	0	0	0	0	0	0	0	0	0	0	0	0	0	0	0	0
070319	12:32:36	12:36:54	257828	5.0.10.0	5_exp_RW	9	Rpleas_acq	CS_B	MQQM	VKKV	YDDY	BZZB	JXXJ	GWWG	treu	spielen	retten	fair	ehrlich	schön	tot	strafen	rächen	faul	eitel	schlecht	1	acq_USpleas_CSpleas2_RW	acq3_RW	3	19	453	0	300	300	296	50	0	1	1	blank2r.bmp	0	1	+	0	1	blank2r.bmp	492	1	VKKV	492	1	blank2r.bmp	572	3	schön	866	1	!	-1	1	!	-1	0	0	0	0	0	0	0	0	0	0	0	0	0	0	0	0	0	0	0	0	0	0	0	0	0	0	0	0	0	0
070319	12:32:36	12:36:57	260147	5.0.10.0	5_exp_RW	9	Rpleas_acq	CS_B	MQQM	VKKV	YDDY	BZZB	JXXJ	GWWG	treu	spielen	retten	fair	ehrlich	schön	tot	strafen	rächen	faul	eitel	schlecht	1	acq_USunple_CSunple2_RW	acq3_RW	3	20	453	0	300	300	542	46	0	1	1	blank2r.bmp	0	1	+	0	1	blank2r.bmp	492	1	BZZB	492	1	blank2r.bmp	572	3	schlecht	866	1	!	1292	1	!	-1	0	0	0	0	0	0	0	0	0	0	0	0	0	0	0	0	0	0	0	0	0	0	0	0	0	0	0	0	0	0
070319	12:32:36	12:36:59	262213	5.0.10.0	5_exp_RW	9	Rpleas_acq	CS_B	MQQM	VKKV	YDDY	BZZB	JXXJ	GWWG	treu	spielen	retten	fair	ehrlich	schön	tot	strafen	rächen	faul	eitel	schlecht	1	acq_USpleas_CSpleas2_RW	acq3_RW	3	21	453	0	300	300	281	50	0	1	1	blank2r.bmp	0	1	+	0	1	blank2r.bmp	492	1	VKKV	492	1	blank2r.bmp	572	2	ehrlich	866	1	!	-1	1	!	-1	0	0	0	0	0	0	0	0	0	0	0	0	0	0	0	0	0	0	0	0	0	0	0	0	0	0	0	0	0	0
070319	12:32:36	12:37:01	264545	5.0.10.0	5_exp_RW	9	Rpleas_acq	CS_B	MQQM	VKKV	YDDY	BZZB	JXXJ	GWWG	treu	spielen	retten	fair	ehrlich	schön	tot	strafen	rächen	faul	eitel	schlecht	1	acq_USunple_CSunple2_RW	acq3_RW	3	22	453	0	300	300	323	50	0	0	1	blank2r.bmp	0	1	+	0	1	blank2r.bmp	492	1	BZZB	492	1	blank2r.bmp	572	2	eitel	866	1	FEHLER	1532	1	!	-1	1	!	-1	0	0	0	0	0	0	0	0	0	0	0	0	0	0	0	0	0	0	0	0	0	0	0	0	0	0	0
070319	12:32:36	12:37:03	266531	5.0.10.0	5_exp_RW	9	Rpleas_acq	CS_B	MQQM	VKKV	YDDY	BZZB	JXXJ	GWWG	treu	spielen	retten	fair	ehrlich	schön	tot	strafen	rächen	faul	eitel	schlecht	1	acq_USpleas_CSpleas1_RW	acq3_RW	3	23	453	1	300	300	399	50	0	1	1	blank2r.bmp	0	1	+	0	1	blank2r.bmp	492	1	MQQM	492	1	blank2r.bmp	572	1	treu	866	1	!	1292	1	!	1306	0	0	0	0	0	0	0	0	0	0	0	0	0	0	0	0	0	0	0	0	0	0	0	0	0	0	0	0	0	0
070319	12:32:36	12:37:05	268810	5.0.10.0	5_exp_RW	9	Rpleas_acq	CS_B	MQQM	VKKV	YDDY	BZZB	JXXJ	GWWG	treu	spielen	retten	fair	ehrlich	schön	tot	strafen	rächen	faul	eitel	schlecht	1	acq_USpleas_CSpleas1_RW	acq3_RW	3	24	453	1	300	300	483	50	0	1	1	blank2r.bmp	0	1	+	0	1	blank2r.bmp	492	1	MQQM	492	1	blank2r.bmp	572	3	retten	866	1	!	1292	1	!	1386	0	0	0	0	0	0	0	0	0	0	0	0	0	0	0	0	0	0	0	0	0	0	0	0	0	0	0	0	0	0
070319	12:32:36	12:37:17	280805	5.0.10.0	5_exp_RW	9	Rpleas_acq	CS_B	MQQM	VKKV	YDDY	BZZB	JXXJ	GWWG	treu	spielen	retten	fair	ehrlich	schön	tot	strafen	rächen	faul	eitel	schlecht	1	acq_USunple_CSunple2_RW	acq4567_RW	4	1	400	0	300	300	316	46	0	1	1	blank2r.bmp	0	1	+	0	1	blank2r.bmp	492	1	BZZB	492	1	blank2r.bmp	572	1	faul	866	1	!	-1	1	!	-1	0	0	0	0	0	0	0	0	0	0	0	0	0	0	0	0	0	0	0	0	0	0	0	0	0	0	0	0	0	0
070319	12:32:36	12:37:19	282965	5.0.10.0	5_exp_RW	9	Rpleas_acq	CS_B	MQQM	VKKV	YDDY	BZZB	JXXJ	GWWG	treu	spielen	retten	fair	ehrlich	schön	tot	strafen	rächen	faul	eitel	schlecht	1	acq_USunple_CSunple2_RW	acq4567_RW	4	2	400	1	300	300	346	50	0	0	1	blank2r.bmp	0	1	+	0	1	blank2r.bmp	492	1	BZZB	492	1	blank2r.bmp	572	3	schlecht	866	1	!	1239	1	!	1252	0	0	0	0	0	0	0	0	0	0	0	0	0	0	0	0	0	0	0	0	0	0	0	0	0	0	0	0	0	0
070319	12:32:36	12:37:22	285177	5.0.10.0	5_exp_RW	9	Rpleas_acq	CS_B	MQQM	VKKV	YDDY	BZZB	JXXJ	GWWG	treu	spielen	retten	fair	ehrlich	schön	tot	strafen	rächen	faul	eitel	schlecht	1	acq_USunple_CSunple1_RW	acq4567_RW	4	3	400	1	300	300	406	46	0	1	1	blank2r.bmp	0	1	+	0	1	blank2r.bmp	492	1	YDDY	492	1	blank2r.bmp	572	3	rächen	866	1	!	1239	1	!	1306	0	0	0	0	0	0	0	0	0	0	0	0	0	0	0	0	0	0	0	0	0	0	0	0	0	0	0	0	0	0
070319	12:32:36	12:37:24	287256	5.0.10.0	5_exp_RW	9	Rpleas_acq	CS_B	MQQM	VKKV	YDDY	BZZB	JXXJ	GWWG	treu	spielen	retten	fair	ehrlich	schön	tot	strafen	rächen	faul	eitel	schlecht	1	acq_USunple_CSunple2_RW	acq4567_RW	4	4	400	0	300	300	312	50	0	0	1	blank2r.bmp	0	1	+	0	1	blank2r.bmp	492	1	BZZB	492	1	blank2r.bmp	572	2	eitel	866	1	!	-1	1	!	-1	0	0	0	0	0	0	0	0	0	0	0	0	0	0	0	0	0	0	0	0	0	0	0	0	0	0	0	0	0	0
070319	12:32:36	12:37:26	289495	5.0.10.0	5_exp_RW	9	Rpleas_acq	CS_B	MQQM	VKKV	YDDY	BZZB	JXXJ	GWWG	treu	spielen	retten	fair	ehrlich	schön	tot	strafen	rächen	faul	eitel	schlecht	1	acq_USpleas_CSpleas2_RW	acq4567_RW	4	5	400	1	300	300	414	50	0	1	1	blank2r.bmp	0	1	+	0	1	blank2r.bmp	492	1	VKKV	492	1	blank2r.bmp	572	1	fair	866	1	!	1239	1	!	1319	0	0	0	0	0	0	0	0	0	0	0	0	0	0	0	0	0	0	0	0	0	0	0	0	0	0	0	0	0	0
070319	12:32:36	12:37:28	291641	5.0.10.0	5_exp_RW	9	Rpleas_acq	CS_B	MQQM	VKKV	YDDY	BZZB	JXXJ	GWWG	treu	spielen	retten	fair	ehrlich	schön	tot	strafen	rächen	faul	eitel	schlecht	1	acq_USpleas_CSpleas2_RW	acq4567_RW	4	6	400	1	300	300	352	46	0	0	1	blank2r.bmp	0	1	+	0	1	blank2r.bmp	492	1	VKKV	492	1	blank2r.bmp	572	3	schön	866	1	!	1239	1	!	1252	0	0	0	0	0	0	0	0	0	0	0	0	0	0	0	0	0	0	0	0	0	0	0	0	0	0	0	0	0	0
070319	12:32:36	12:37:30	293893	5.0.10.0	5_exp_RW	9	Rpleas_acq	CS_B	MQQM	VKKV	YDDY	BZZB	JXXJ	GWWG	treu	spielen	retten	fair	ehrlich	schön	tot	strafen	rächen	faul	eitel	schlecht	1	acq_USunple_CSunple1_RW	acq4567_RW	4	7	400	1	300	300	459	46	0	1	1	blank2r.bmp	0	1	+	0	1	blank2r.bmp	492	1	YDDY	492	1	blank2r.bmp	572	2	strafen	866	1	!	1239	1	!	1359	0	0	0	0	0	0	0	0	0	0	0	0	0	0	0	0	0	0	0	0	0	0	0	0	0	0	0	0	0	0
070319	12:32:36	12:37:32	295959	5.0.10.0	5_exp_RW	9	Rpleas_acq	CS_B	MQQM	VKKV	YDDY	BZZB	JXXJ	GWWG	treu	spielen	retten	fair	ehrlich	schön	tot	strafen	rächen	faul	eitel	schlecht	1	acq_USpleas_CSpleas2_RW	acq4567_RW	4	8	400	0	300	300	297	50	0	1	1	blank2r.bmp	0	1	+	0	1	blank2r.bmp	492	1	VKKV	492	1	blank2r.bmp	572	3	schön	866	1	!	-1	1	!	-1	0	0	0	0	0	0	0	0	0	0	0	0	0	0	0	0	0	0	0	0	0	0	0	0	0	0	0	0	0	0
070319	12:32:36	12:37:35	298212	5.0.10.0	5_exp_RW	9	Rpleas_acq	CS_B	MQQM	VKKV	YDDY	BZZB	JXXJ	GWWG	treu	spielen	retten	fair	ehrlich	schön	tot	strafen	rächen	faul	eitel	schlecht	1	acq_USpleas_CSpleas1_RW	acq4567_RW	4	9	400	1	300	300	449	50	0	1	1	blank2r.bmp	0	1	+	0	1	blank2r.bmp	492	1	MQQM	492	1	blank2r.bmp	572	1	treu	866	1	!	1239	1	!	1346	0	0	0	0	0	0	0	0	0	0	0	0	0	0	0	0	0	0	0	0	0	0	0	0	0	0	0	0	0	0
070319	12:32:36	12:37:37	300358	5.0.10.0	5_exp_RW	9	Rpleas_acq	CS_B	MQQM	VKKV	YDDY	BZZB	JXXJ	GWWG	treu	spielen	retten	fair	ehrlich	schön	tot	strafen	rächen	faul	eitel	schlecht	1	acq_USunple_CSunple2_RW	acq4567_RW	4	10	400	1	300	300	349	46	0	1	1	blank2r.bmp	0	1	+	0	1	blank2r.bmp	492	1	BZZB	492	1	blank2r.bmp	572	1	faul	866	1	!	1239	1	!	1252	0	0	0	0	0	0	0	0	0	0	0	0	0	0	0	0	0	0	0	0	0	0	0	0	0	0	0	0	0	0
070319	12:32:36	12:37:39	302623	5.0.10.0	5_exp_RW	9	Rpleas_acq	CS_B	MQQM	VKKV	YDDY	BZZB	JXXJ	GWWG	treu	spielen	retten	fair	ehrlich	schön	tot	strafen	rächen	faul	eitel	schlecht	1	acq_USunple_CSunple1_RW	acq4567_RW	4	11	400	0	300	300	479	46	0	1	1	blank2r.bmp	0	1	+	0	1	blank2r.bmp	492	1	YDDY	492	1	blank2r.bmp	572	1	tot	866	1	!	1239	1	!	-1	0	0	0	0	0	0	0	0	0	0	0	0	0	0	0	0	0	0	0	0	0	0	0	0	0	0	0	0	0	0
070319	12:32:36	12:37:41	304836	5.0.10.0	5_exp_RW	9	Rpleas_acq	CS_B	MQQM	VKKV	YDDY	BZZB	JXXJ	GWWG	treu	spielen	retten	fair	ehrlich	schön	tot	strafen	rächen	faul	eitel	schlecht	1	acq_USpleas_CSpleas2_RW	acq4567_RW	4	12	400	1	300	300	386	46	0	0	1	blank2r.bmp	0	1	+	0	1	blank2r.bmp	492	1	VKKV	492	1	blank2r.bmp	572	1	fair	866	1	!	1239	1	!	1292	0	0	0	0	0	0	0	0	0	0	0	0	0	0	0	0	0	0	0	0	0	0	0	0	0	0	0	0	0	0
070319	12:32:36	12:37:43	306995	5.0.10.0	5_exp_RW	9	Rpleas_acq	CS_B	MQQM	VKKV	YDDY	BZZB	JXXJ	GWWG	treu	spielen	retten	fair	ehrlich	schön	tot	strafen	rächen	faul	eitel	schlecht	1	acq_USunple_CSunple1_RW	acq4567_RW	4	13	400	1	300	300	346	46	0	1	1	blank2r.bmp	0	1	+	0	1	blank2r.bmp	492	1	YDDY	492	1	blank2r.bmp	572	2	strafen	866	1	!	1239	1	!	1252	0	0	0	0	0	0	0	0	0	0	0	0	0	0	0	0	0	0	0	0	0	0	0	0	0	0	0	0	0	0
070319	12:32:36	12:37:46	309261	5.0.10.0	5_exp_RW	9	Rpleas_acq	CS_B	MQQM	VKKV	YDDY	BZZB	JXXJ	GWWG	treu	spielen	retten	fair	ehrlich	schön	tot	strafen	rächen	faul	eitel	schlecht	1	acq_USunple_CSunple1_RW	acq4567_RW	4	14	400	0	300	300	499	46	0	1	1	blank2r.bmp	0	1	+	0	1	blank2r.bmp	492	1	YDDY	492	1	blank2r.bmp	572	3	rächen	866	1	!	1239	1	!	-1	0	0	0	0	0	0	0	0	0	0	0	0	0	0	0	0	0	0	0	0	0	0	0	0	0	0	0	0	0	0
070319	12:32:36	12:37:48	311366	5.0.10.0	5_exp_RW	9	Rpleas_acq	CS_B	MQQM	VKKV	YDDY	BZZB	JXXJ	GWWG	treu	spielen	retten	fair	ehrlich	schön	tot	strafen	rächen	faul	eitel	schlecht	1	acq_USpleas_CSpleas1_RW	acq4567_RW	4	15	400	0	300	300	322	50	0	1	1	blank2r.bmp	0	1	+	0	1	blank2r.bmp	492	1	MQQM	492	1	blank2r.bmp	572	2	spielen	866	1	!	-1	1	!	-1	0	0	0	0	0	0	0	0	0	0	0	0	0	0	0	0	0	0	0	0	0	0	0	0	0	0	0	0	0	0
070319	12:32:36	12:37:50	313605	5.0.10.0	5_exp_RW	9	Rpleas_acq	CS_B	MQQM	VKKV	YDDY	BZZB	JXXJ	GWWG	treu	spielen	retten	fair	ehrlich	schön	tot	strafen	rächen	faul	eitel	schlecht	1	acq_USpleas_CSpleas1_RW	acq4567_RW	4	16	400	1	300	300	428	50	0	1	1	blank2r.bmp	0	1	+	0	1	blank2r.bmp	492	1	MQQM	492	1	blank2r.bmp	572	1	treu	866	1	!	1239	1	!	1332	0	0	0	0	0	0	0	0	0	0	0	0	0	0	0	0	0	0	0	0	0	0	0	0	0	0	0	0	0	0
070319	12:32:36	12:37:52	315751	5.0.10.0	5_exp_RW	9	Rpleas_acq	CS_B	MQQM	VKKV	YDDY	BZZB	JXXJ	GWWG	treu	spielen	retten	fair	ehrlich	schön	tot	strafen	rächen	faul	eitel	schlecht	1	acq_USpleas_CSpleas2_RW	acq4567_RW	4	17	400	1	300	300	354	50	0	1	1	blank2r.bmp	0	1	+	0	1	blank2r.bmp	492	1	VKKV	492	1	blank2r.bmp	572	2	ehrlich	866	1	!	1239	1	!	1252	0	0	0	0	0	0	0	0	0	0	0	0	0	0	0	0	0	0	0	0	0	0	0	0	0	0	0	0	0	0
070319	12:32:36	12:37:54	317897	5.0.10.0	5_exp_RW	9	Rpleas_acq	CS_B	MQQM	VKKV	YDDY	BZZB	JXXJ	GWWG	treu	spielen	retten	fair	ehrlich	schön	tot	strafen	rächen	faul	eitel	schlecht	1	acq_USpleas_CSpleas1_RW	acq4567_RW	4	18	400	1	300	300	346	50	0	1	1	blank2r.bmp	0	1	+	0	1	blank2r.bmp	492	1	MQQM	492	1	blank2r.bmp	572	2	spielen	866	1	!	1239	1	!	1252	0	0	0	0	0	0	0	0	0	0	0	0	0	0	0	0	0	0	0	0	0	0	0	0	0	0	0	0	0	0
070319	12:32:36	12:37:56	320083	5.0.10.0	5_exp_RW	9	Rpleas_acq	CS_B	MQQM	VKKV	YDDY	BZZB	JXXJ	GWWG	treu	spielen	retten	fair	ehrlich	schön	tot	strafen	rächen	faul	eitel	schlecht	1	acq_USunple_CSunple2_RW	acq4567_RW	4	19	400	1	300	300	388	46	0	1	1	blank2r.bmp	0	1	+	0	1	blank2r.bmp	492	1	BZZB	492	1	blank2r.bmp	572	3	schlecht	866	1	!	1239	1	!	1292	0	0	0	0	0	0	0	0	0	0	0	0	0	0	0	0	0	0	0	0	0	0	0	0	0	0	0	0	0	0
070319	12:32:36	12:37:59	322135	5.0.10.0	5_exp_RW	9	Rpleas_acq	CS_B	MQQM	VKKV	YDDY	BZZB	JXXJ	GWWG	treu	spielen	retten	fair	ehrlich	schön	tot	strafen	rächen	faul	eitel	schlecht	1	acq_USpleas_CSpleas1_RW	acq4567_RW	4	20	400	0	300	300	290	46	0	0	1	blank2r.bmp	0	1	+	0	1	blank2r.bmp	492	1	MQQM	492	1	blank2r.bmp	572	3	retten	866	1	!	-1	1	!	-1	0	0	0	0	0	0	0	0	0	0	0	0	0	0	0	0	0	0	0	0	0	0	0	0	0	0	0	0	0	0
070319	12:32:36	12:38:01	324308	5.0.10.0	5_exp_RW	9	Rpleas_acq	CS_B	MQQM	VKKV	YDDY	BZZB	JXXJ	GWWG	treu	spielen	retten	fair	ehrlich	schön	tot	strafen	rächen	faul	eitel	schlecht	1	acq_USunple_CSunple2_RW	acq4567_RW	4	21	400	1	300	300	371	46	0	1	1	blank2r.bmp	0	1	+	0	1	blank2r.bmp	492	1	BZZB	492	1	blank2r.bmp	572	1	faul	866	1	!	1239	1	!	1266	0	0	0	0	0	0	0	0	0	0	0	0	0	0	0	0	0	0	0	0	0	0	0	0	0	0	0	0	0	0
070319	12:32:36	12:38:03	326334	5.0.10.0	5_exp_RW	9	Rpleas_acq	CS_B	MQQM	VKKV	YDDY	BZZB	JXXJ	GWWG	treu	spielen	retten	fair	ehrlich	schön	tot	strafen	rächen	faul	eitel	schlecht	1	acq_USpleas_CSpleas2_RW	acq4567_RW	4	22	400	0	300	300	263	50	0	1	1	blank2r.bmp	0	1	+	0	1	blank2r.bmp	492	1	VKKV	492	1	blank2r.bmp	572	3	schön	866	1	!	-1	1	!	-1	0	0	0	0	0	0	0	0	0	0	0	0	0	0	0	0	0	0	0	0	0	0	0	0	0	0	0	0	0	0
070319	12:32:36	12:38:05	328573	5.0.10.0	5_exp_RW	9	Rpleas_acq	CS_B	MQQM	VKKV	YDDY	BZZB	JXXJ	GWWG	treu	spielen	retten	fair	ehrlich	schön	tot	strafen	rächen	faul	eitel	schlecht	1	acq_USpleas_CSpleas1_RW	acq4567_RW	4	23	400	1	300	300	430	50	0	1	1	blank2r.bmp	0	1	+	0	1	blank2r.bmp	492	1	MQQM	492	1	blank2r.bmp	572	3	retten	866	1	!	1239	1	!	1332	0	0	0	0	0	0	0	0	0	0	0	0	0	0	0	0	0	0	0	0	0	0	0	0	0	0	0	0	0	0
070319	12:32:36	12:38:07	330719	5.0.10.0	5_exp_RW	9	Rpleas_acq	CS_B	MQQM	VKKV	YDDY	BZZB	JXXJ	GWWG	treu	spielen	retten	fair	ehrlich	schön	tot	strafen	rächen	faul	eitel	schlecht	1	acq_USunple_CSunple2_RW	acq4567_RW	4	24	400	1	300	300	347	46	0	1	1	blank2r.bmp	0	1	+	0	1	blank2r.bmp	492	1	BZZB	492	1	blank2r.bmp	572	3	schlecht	866	1	!	1239	1	!	1252	0	0	0	0	0	0	0	0	0	0	0	0	0	0	0	0	0	0	0	0	0	0	0	0	0	0	0	0	0	0
070319	12:32:36	12:38:09	332771	5.0.10.0	5_exp_RW	9	Rpleas_acq	CS_B	MQQM	VKKV	YDDY	BZZB	JXXJ	GWWG	treu	spielen	retten	fair	ehrlich	schön	tot	strafen	rächen	faul	eitel	schlecht	1	acq_USpleas_CSpleas2_RW	acq4567_RW	4	25	400	0	300	300	284	50	0	1	1	blank2r.bmp	0	1	+	0	1	blank2r.bmp	492	1	VKKV	492	1	blank2r.bmp	572	1	fair	866	1	!	-1	1	!	-1	0	0	0	0	0	0	0	0	0	0	0	0	0	0	0	0	0	0	0	0	0	0	0	0	0	0	0	0	0	0
070319	12:32:36	12:38:11	334943	5.0.10.0	5_exp_RW	9	Rpleas_acq	CS_B	MQQM	VKKV	YDDY	BZZB	JXXJ	GWWG	treu	spielen	retten	fair	ehrlich	schön	tot	strafen	rächen	faul	eitel	schlecht	1	acq_USpleas_CSpleas1_RW	acq4567_RW	4	26	400	1	300	300	368	50	0	1	1	blank2r.bmp	0	1	+	0	1	blank2r.bmp	492	1	MQQM	492	1	blank2r.bmp	572	1	treu	866	1	!	1239	1	!	1266	0	0	0	0	0	0	0	0	0	0	0	0	0	0	0	0	0	0	0	0	0	0	0	0	0	0	0	0	0	0
070319	12:32:36	12:38:14	337103	5.0.10.0	5_exp_RW	9	Rpleas_acq	CS_B	MQQM	VKKV	YDDY	BZZB	JXXJ	GWWG	treu	spielen	retten	fair	ehrlich	schön	tot	strafen	rächen	faul	eitel	schlecht	1	acq_USpleas_CSpleas1_RW	acq4567_RW	4	27	400	1	300	300	350	50	0	1	1	blank2r.bmp	0	1	+	0	1	blank2r.bmp	492	1	MQQM	492	1	blank2r.bmp	572	2	spielen	866	1	!	1239	1	!	1252	0	0	0	0	0	0	0	0	0	0	0	0	0	0	0	0	0	0	0	0	0	0	0	0	0	0	0	0	0	0
070319	12:32:36	12:38:16	339315	5.0.10.0	5_exp_RW	9	Rpleas_acq	CS_B	MQQM	VKKV	YDDY	BZZB	JXXJ	GWWG	treu	spielen	retten	fair	ehrlich	schön	tot	strafen	rächen	faul	eitel	schlecht	1	acq_USunple_CSunple1_RW	acq4567_RW	4	28	400	1	300	300	415	46	0	1	1	blank2r.bmp	0	1	+	0	1	blank2r.bmp	492	1	YDDY	492	1	blank2r.bmp	572	1	tot	866	1	!	1239	1	!	1319	0	0	0	0	0	0	0	0	0	0	0	0	0	0	0	0	0	0	0	0	0	0	0	0	0	0	0	0	0	0
070319	12:32:36	12:38:18	341461	5.0.10.0	5_exp_RW	9	Rpleas_acq	CS_B	MQQM	VKKV	YDDY	BZZB	JXXJ	GWWG	treu	spielen	retten	fair	ehrlich	schön	tot	strafen	rächen	faul	eitel	schlecht	1	acq_USunple_CSunple2_RW	acq4567_RW	4	29	400	1	300	300	355	50	0	0	1	blank2r.bmp	0	1	+	0	1	blank2r.bmp	492	1	BZZB	492	1	blank2r.bmp	572	2	eitel	866	1	!	1239	1	!	1252	0	0	0	0	0	0	0	0	0	0	0	0	0	0	0	0	0	0	0	0	0	0	0	0	0	0	0	0	0	0
070319	12:32:36	12:38:20	343647	5.0.10.0	5_exp_RW	9	Rpleas_acq	CS_B	MQQM	VKKV	YDDY	BZZB	JXXJ	GWWG	treu	spielen	retten	fair	ehrlich	schön	tot	strafen	rächen	faul	eitel	schlecht	1	acq_USpleas_CSpleas1_RW	acq4567_RW	4	30	400	1	300	300	393	50	0	1	1	blank2r.bmp	0	1	+	0	1	blank2r.bmp	492	1	MQQM	492	1	blank2r.bmp	572	2	spielen	866	1	!	1239	1	!	1292	0	0	0	0	0	0	0	0	0	0	0	0	0	0	0	0	0	0	0	0	0	0	0	0	0	0	0	0	0	0
070319	12:32:36	12:38:22	345726	5.0.10.0	5_exp_RW	9	Rpleas_acq	CS_B	MQQM	VKKV	YDDY	BZZB	JXXJ	GWWG	treu	spielen	retten	fair	ehrlich	schön	tot	strafen	rächen	faul	eitel	schlecht	1	acq_USunple_CSunple2_RW	acq4567_RW	4	31	400	0	300	300	306	50	0	0	1	blank2r.bmp	0	1	+	0	1	blank2r.bmp	492	1	BZZB	492	1	blank2r.bmp	572	2	eitel	866	1	!	-1	1	!	-1	0	0	0	0	0	0	0	0	0	0	0	0	0	0	0	0	0	0	0	0	0	0	0	0	0	0	0	0	0	0
070319	12:32:36	12:38:24	348005	5.0.10.0	5_exp_RW	9	Rpleas_acq	CS_B	MQQM	VKKV	YDDY	BZZB	JXXJ	GWWG	treu	spielen	retten	fair	ehrlich	schön	tot	strafen	rächen	faul	eitel	schlecht	1	acq_USunple_CSunple1_RW	acq4567_RW	4	32	400	1	300	300	457	46	0	1	1	blank2r.bmp	0	1	+	0	1	blank2r.bmp	492	1	YDDY	492	1	blank2r.bmp	572	2	strafen	866	1	!	1239	1	!	1359	0	0	0	0	0	0	0	0	0	0	0	0	0	0	0	0	0	0	0	0	0	0	0	0	0	0	0	0	0	0
070319	12:32:36	12:38:27	350151	5.0.10.0	5_exp_RW	9	Rpleas_acq	CS_B	MQQM	VKKV	YDDY	BZZB	JXXJ	GWWG	treu	spielen	retten	fair	ehrlich	schön	tot	strafen	rächen	faul	eitel	schlecht	1	acq_USpleas_CSpleas2_RW	acq4567_RW	4	33	400	1	300	300	346	50	0	1	1	blank2r.bmp	0	1	+	0	1	blank2r.bmp	492	1	VKKV	492	1	blank2r.bmp	572	2	ehrlich	866	1	!	1239	1	!	1252	0	0	0	0	0	0	0	0	0	0	0	0	0	0	0	0	0	0	0	0	0	0	0	0	0	0	0	0	0	0
070319	12:32:36	12:38:29	352256	5.0.10.0	5_exp_RW	9	Rpleas_acq	CS_B	MQQM	VKKV	YDDY	BZZB	JXXJ	GWWG	treu	spielen	retten	fair	ehrlich	schön	tot	strafen	rächen	faul	eitel	schlecht	1	acq_USpleas_CSpleas2_RW	acq4567_RW	4	34	400	0	300	300	333	50	0	1	1	blank2r.bmp	0	1	+	0	1	blank2r.bmp	492	1	VKKV	492	1	blank2r.bmp	572	2	ehrlich	866	1	!	-1	1	!	-1	0	0	0	0	0	0	0	0	0	0	0	0	0	0	0	0	0	0	0	0	0	0	0	0	0	0	0	0	0	0
070319	12:32:36	12:38:31	354482	5.0.10.0	5_exp_RW	9	Rpleas_acq	CS_B	MQQM	VKKV	YDDY	BZZB	JXXJ	GWWG	treu	spielen	retten	fair	ehrlich	schön	tot	strafen	rächen	faul	eitel	schlecht	1	acq_USunple_CSunple1_RW	acq4567_RW	4	35	400	1	300	300	424	46	0	1	1	blank2r.bmp	0	1	+	0	1	blank2r.bmp	492	1	YDDY	492	1	blank2r.bmp	572	3	rächen	866	1	!	1239	1	!	1319	0	0	0	0	0	0	0	0	0	0	0	0	0	0	0	0	0	0	0	0	0	0	0	0	0	0	0	0	0	0
070319	12:32:36	12:38:33	356761	5.0.10.0	5_exp_RW	9	Rpleas_acq	CS_B	MQQM	VKKV	YDDY	BZZB	JXXJ	GWWG	treu	spielen	retten	fair	ehrlich	schön	tot	strafen	rächen	faul	eitel	schlecht	1	acq_USunple_CSunple2_RW	acq4567_RW	4	36	400	0	300	300	515	46	0	1	1	blank2r.bmp	0	1	+	0	1	blank2r.bmp	492	1	BZZB	492	1	blank2r.bmp	572	1	faul	866	1	!	1239	1	!	-1	0	0	0	0	0	0	0	0	0	0	0	0	0	0	0	0	0	0	0	0	0	0	0	0	0	0	0	0	0	0
070319	12:32:36	12:38:35	358920	5.0.10.0	5_exp_RW	9	Rpleas_acq	CS_B	MQQM	VKKV	YDDY	BZZB	JXXJ	GWWG	treu	spielen	retten	fair	ehrlich	schön	tot	strafen	rächen	faul	eitel	schlecht	1	acq_USunple_CSunple1_RW	acq4567_RW	4	37	400	1	300	300	346	46	0	1	1	blank2r.bmp	0	1	+	0	1	blank2r.bmp	492	1	YDDY	492	1	blank2r.bmp	572	3	rächen	866	1	!	1239	1	!	1252	0	0	0	0	0	0	0	0	0	0	0	0	0	0	0	0	0	0	0	0	0	0	0	0	0	0	0	0	0	0
070319	12:32:36	12:38:38	361093	5.0.10.0	5_exp_RW	9	Rpleas_acq	CS_B	MQQM	VKKV	YDDY	BZZB	JXXJ	GWWG	treu	spielen	retten	fair	ehrlich	schön	tot	strafen	rächen	faul	eitel	schlecht	1	acq_USpleas_CSpleas1_RW	acq4567_RW	4	38	400	1	300	300	361	46	0	0	1	blank2r.bmp	0	1	+	0	1	blank2r.bmp	492	1	MQQM	492	1	blank2r.bmp	572	1	treu	866	1	!	1239	1	!	1266	0	0	0	0	0	0	0	0	0	0	0	0	0	0	0	0	0	0	0	0	0	0	0	0	0	0	0	0	0	0
070319	12:32:36	12:38:40	363132	5.0.10.0	5_exp_RW	9	Rpleas_acq	CS_B	MQQM	VKKV	YDDY	BZZB	JXXJ	GWWG	treu	spielen	retten	fair	ehrlich	schön	tot	strafen	rächen	faul	eitel	schlecht	1	acq_USpleas_CSpleas2_RW	acq4567_RW	4	39	400	0	300	300	267	50	0	1	1	blank2r.bmp	0	1	+	0	1	blank2r.bmp	492	1	VKKV	492	1	blank2r.bmp	572	3	schön	866	1	!	-1	1	!	-1	0	0	0	0	0	0	0	0	0	0	0	0	0	0	0	0	0	0	0	0	0	0	0	0	0	0	0	0	0	0
070319	12:32:36	12:38:42	365211	5.0.10.0	5_exp_RW	9	Rpleas_acq	CS_B	MQQM	VKKV	YDDY	BZZB	JXXJ	GWWG	treu	spielen	retten	fair	ehrlich	schön	tot	strafen	rächen	faul	eitel	schlecht	1	acq_USunple_CSunple1_RW	acq4567_RW	4	40	400	0	300	300	302	46	0	1	1	blank2r.bmp	0	1	+	0	1	blank2r.bmp	492	1	YDDY	492	1	blank2r.bmp	572	1	tot	866	1	!	-1	1	!	-1	0	0	0	0	0	0	0	0	0	0	0	0	0	0	0	0	0	0	0	0	0	0	0	0	0	0	0	0	0	0
070319	12:32:36	12:38:44	367370	5.0.10.0	5_exp_RW	9	Rpleas_acq	CS_B	MQQM	VKKV	YDDY	BZZB	JXXJ	GWWG	treu	spielen	retten	fair	ehrlich	schön	tot	strafen	rächen	faul	eitel	schlecht	1	acq_USpleas_CSpleas1_RW	acq4567_RW	4	41	400	1	300	300	356	50	0	1	1	blank2r.bmp	0	1	+	0	1	blank2r.bmp	492	1	MQQM	492	1	blank2r.bmp	572	3	retten	866	1	!	1239	1	!	1252	0	0	0	0	0	0	0	0	0	0	0	0	0	0	0	0	0	0	0	0	0	0	0	0	0	0	0	0	0	0
070319	12:32:36	12:38:46	369569	5.0.10.0	5_exp_RW	9	Rpleas_acq	CS_B	MQQM	VKKV	YDDY	BZZB	JXXJ	GWWG	treu	spielen	retten	fair	ehrlich	schön	tot	strafen	rächen	faul	eitel	schlecht	1	acq_USunple_CSunple1_RW	acq4567_RW	4	42	400	1	300	300	400	50	0	0	1	blank2r.bmp	0	1	+	0	1	blank2r.bmp	492	1	YDDY	492	1	blank2r.bmp	572	2	strafen	866	1	!	1239	1	!	1306	0	0	0	0	0	0	0	0	0	0	0	0	0	0	0	0	0	0	0	0	0	0	0	0	0	0	0	0	0	0
070319	12:32:36	12:38:48	371769	5.0.10.0	5_exp_RW	9	Rpleas_acq	CS_B	MQQM	VKKV	YDDY	BZZB	JXXJ	GWWG	treu	spielen	retten	fair	ehrlich	schön	tot	strafen	rächen	faul	eitel	schlecht	1	acq_USunple_CSunple1_RW	acq4567_RW	4	43	400	1	300	300	401	46	0	1	1	blank2r.bmp	0	1	+	0	1	blank2r.bmp	492	1	YDDY	492	1	blank2r.bmp	572	3	rächen	866	1	!	1239	1	!	1306	0	0	0	0	0	0	0	0	0	0	0	0	0	0	0	0	0	0	0	0	0	0	0	0	0	0	0	0	0	0
070319	12:32:36	12:38:50	374034	5.0.10.0	5_exp_RW	9	Rpleas_acq	CS_B	MQQM	VKKV	YDDY	BZZB	JXXJ	GWWG	treu	spielen	retten	fair	ehrlich	schön	tot	strafen	rächen	faul	eitel	schlecht	1	acq_USunple_CSunple2_RW	acq4567_RW	4	44	400	0	300	300	499	46	0	1	1	blank2r.bmp	0	1	+	0	1	blank2r.bmp	492	1	BZZB	492	1	blank2r.bmp	572	3	schlecht	866	1	!	1239	1	!	-1	0	0	0	0	0	0	0	0	0	0	0	0	0	0	0	0	0	0	0	0	0	0	0	0	0	0	0	0	0	0
070319	12:32:36	12:38:53	376100	5.0.10.0	5_exp_RW	9	Rpleas_acq	CS_B	MQQM	VKKV	YDDY	BZZB	JXXJ	GWWG	treu	spielen	retten	fair	ehrlich	schön	tot	strafen	rächen	faul	eitel	schlecht	1	acq_USpleas_CSpleas2_RW	acq4567_RW	4	45	400	0	300	300	286	50	0	1	1	blank2r.bmp	0	1	+	0	1	blank2r.bmp	492	1	VKKV	492	1	blank2r.bmp	572	1	fair	866	1	!	-1	1	!	-1	0	0	0	0	0	0	0	0	0	0	0	0	0	0	0	0	0	0	0	0	0	0	0	0	0	0	0	0	0	0
070319	12:32:36	12:38:55	378259	5.0.10.0	5_exp_RW	9	Rpleas_acq	CS_B	MQQM	VKKV	YDDY	BZZB	JXXJ	GWWG	treu	spielen	retten	fair	ehrlich	schön	tot	strafen	rächen	faul	eitel	schlecht	1	acq_USunple_CSunple1_RW	acq4567_RW	4	46	400	1	300	300	346	46	0	1	1	blank2r.bmp	0	1	+	0	1	blank2r.bmp	492	1	YDDY	492	1	blank2r.bmp	572	1	tot	866	1	!	1239	1	!	1252	0	0	0	0	0	0	0	0	0	0	0	0	0	0	0	0	0	0	0	0	0	0	0	0	0	0	0	0	0	0
070319	12:32:36	12:38:57	380458	5.0.10.0	5_exp_RW	9	Rpleas_acq	CS_B	MQQM	VKKV	YDDY	BZZB	JXXJ	GWWG	treu	spielen	retten	fair	ehrlich	schön	tot	strafen	rächen	faul	eitel	schlecht	1	acq_USpleas_CSpleas1_RW	acq4567_RW	4	47	400	1	300	300	399	50	0	1	1	blank2r.bmp	0	1	+	0	1	blank2r.bmp	492	1	MQQM	492	1	blank2r.bmp	572	2	spielen	866	1	!	1239	1	!	1306	0	0	0	0	0	0	0	0	0	0	0	0	0	0	0	0	0	0	0	0	0	0	0	0	0	0	0	0	0	0
070319	12:32:36	12:38:59	382724	5.0.10.0	5_exp_RW	9	Rpleas_acq	CS_B	MQQM	VKKV	YDDY	BZZB	JXXJ	GWWG	treu	spielen	retten	fair	ehrlich	schön	tot	strafen	rächen	faul	eitel	schlecht	1	acq_USpleas_CSpleas2_RW	acq4567_RW	4	48	400	1	300	300	465	50	0	1	1	blank2r.bmp	0	1	+	0	1	blank2r.bmp	492	1	VKKV	492	1	blank2r.bmp	572	1	fair	866	1	!	1239	1	!	1372	0	0	0	0	0	0	0	0	0	0	0	0	0	0	0	0	0	0	0	0	0	0	0	0	0	0	0	0	0	0
070319	12:32:36	12:39:01	384790	5.0.10.0	5_exp_RW	9	Rpleas_acq	CS_B	MQQM	VKKV	YDDY	BZZB	JXXJ	GWWG	treu	spielen	retten	fair	ehrlich	schön	tot	strafen	rächen	faul	eitel	schlecht	1	acq_USpleas_CSpleas1_RW	acq4567_RW	4	49	400	0	300	300	303	46	0	0	1	blank2r.bmp	0	1	+	0	1	blank2r.bmp	492	1	MQQM	492	1	blank2r.bmp	572	1	treu	866	1	!	-1	1	!	-1	0	0	0	0	0	0	0	0	0	0	0	0	0	0	0	0	0	0	0	0	0	0	0	0	0	0	0	0	0	0
070319	12:32:36	12:39:03	386896	5.0.10.0	5_exp_RW	9	Rpleas_acq	CS_B	MQQM	VKKV	YDDY	BZZB	JXXJ	GWWG	treu	spielen	retten	fair	ehrlich	schön	tot	strafen	rächen	faul	eitel	schlecht	1	acq_USunple_CSunple1_RW	acq4567_RW	4	50	400	0	300	300	324	46	0	1	1	blank2r.bmp	0	1	+	0	1	blank2r.bmp	492	1	YDDY	492	1	blank2r.bmp	572	2	strafen	866	1	!	-1	1	!	-1	0	0	0	0	0	0	0	0	0	0	0	0	0	0	0	0	0	0	0	0	0	0	0	0	0	0	0	0	0	0
070319	12:32:36	12:39:06	389122	5.0.10.0	5_exp_RW	9	Rpleas_acq	CS_B	MQQM	VKKV	YDDY	BZZB	JXXJ	GWWG	treu	spielen	retten	fair	ehrlich	schön	tot	strafen	rächen	faul	eitel	schlecht	1	acq_USpleas_CSpleas2_RW	acq4567_RW	4	51	400	1	300	300	423	50	0	1	1	blank2r.bmp	0	1	+	0	1	blank2r.bmp	492	1	VKKV	492	1	blank2r.bmp	572	3	schön	866	1	!	1239	1	!	1319	0	0	0	0	0	0	0	0	0	0	0	0	0	0	0	0	0	0	0	0	0	0	0	0	0	0	0	0	0	0
070319	12:32:36	12:39:08	391374	5.0.10.0	5_exp_RW	9	Rpleas_acq	CS_B	MQQM	VKKV	YDDY	BZZB	JXXJ	GWWG	treu	spielen	retten	fair	ehrlich	schön	tot	strafen	rächen	faul	eitel	schlecht	1	acq_USunple_CSunple2_RW	acq4567_RW	4	52	400	1	300	300	450	46	0	1	1	blank2r.bmp	0	1	+	0	1	blank2r.bmp	492	1	BZZB	492	1	blank2r.bmp	572	1	faul	866	1	!	1239	1	!	1346	0	0	0	0	0	0	0	0	0	0	0	0	0	0	0	0	0	0	0	0	0	0	0	0	0	0	0	0	0	0
070319	12:32:36	12:39:10	393546	5.0.10.0	5_exp_RW	9	Rpleas_acq	CS_B	MQQM	VKKV	YDDY	BZZB	JXXJ	GWWG	treu	spielen	retten	fair	ehrlich	schön	tot	strafen	rächen	faul	eitel	schlecht	1	acq_USpleas_CSpleas2_RW	acq4567_RW	4	53	400	1	300	300	381	50	0	1	1	blank2r.bmp	0	1	+	0	1	blank2r.bmp	492	1	VKKV	492	1	blank2r.bmp	572	2	ehrlich	866	1	!	1239	1	!	1279	0	0	0	0	0	0	0	0	0	0	0	0	0	0	0	0	0	0	0	0	0	0	0	0	0	0	0	0	0	0
070319	12:32:36	12:39:12	395759	5.0.10.0	5_exp_RW	9	Rpleas_acq	CS_B	MQQM	VKKV	YDDY	BZZB	JXXJ	GWWG	treu	spielen	retten	fair	ehrlich	schön	tot	strafen	rächen	faul	eitel	schlecht	1	acq_USunple_CSunple2_RW	acq4567_RW	4	54	400	1	300	300	415	46	0	1	1	blank2r.bmp	0	1	+	0	1	blank2r.bmp	492	1	BZZB	492	1	blank2r.bmp	572	3	schlecht	866	1	!	1239	1	!	1319	0	0	0	0	0	0	0	0	0	0	0	0	0	0	0	0	0	0	0	0	0	0	0	0	0	0	0	0	0	0
070319	12:32:36	12:39:14	397838	5.0.10.0	5_exp_RW	9	Rpleas_acq	CS_B	MQQM	VKKV	YDDY	BZZB	JXXJ	GWWG	treu	spielen	retten	fair	ehrlich	schön	tot	strafen	rächen	faul	eitel	schlecht	1	acq_USpleas_CSpleas2_RW	acq4567_RW	4	55	400	0	300	300	306	50	0	1	1	blank2r.bmp	0	1	+	0	1	blank2r.bmp	492	1	VKKV	492	1	blank2r.bmp	572	3	schön	866	1	!	-1	1	!	-1	0	0	0	0	0	0	0	0	0	0	0	0	0	0	0	0	0	0	0	0	0	0	0	0	0	0	0	0	0	0
070319	12:32:36	12:39:17	400117	5.0.10.0	5_exp_RW	9	Rpleas_acq	CS_B	MQQM	VKKV	YDDY	BZZB	JXXJ	GWWG	treu	spielen	retten	fair	ehrlich	schön	tot	strafen	rächen	faul	eitel	schlecht	1	acq_USunple_CSunple2_RW	acq4567_RW	4	56	400	0	300	300	502	50	0	0	1	blank2r.bmp	0	1	+	0	1	blank2r.bmp	492	1	BZZB	492	1	blank2r.bmp	572	2	eitel	866	1	!	1239	1	!	-1	0	0	0	0	0	0	0	0	0	0	0	0	0	0	0	0	0	0	0	0	0	0	0	0	0	0	0	0	0	0
070319	12:32:36	12:39:19	402383	5.0.10.0	5_exp_RW	9	Rpleas_acq	CS_B	MQQM	VKKV	YDDY	BZZB	JXXJ	GWWG	treu	spielen	retten	fair	ehrlich	schön	tot	strafen	rächen	faul	eitel	schlecht	1	acq_USunple_CSunple2_RW	acq4567_RW	4	57	400	0	300	300	479	50	0	0	1	blank2r.bmp	0	1	+	0	1	blank2r.bmp	492	1	BZZB	492	1	blank2r.bmp	572	2	eitel	866	1	!	1239	1	!	-1	0	0	0	0	0	0	0	0	0	0	0	0	0	0	0	0	0	0	0	0	0	0	0	0	0	0	0	0	0	0
070319	12:32:36	12:39:21	404569	5.0.10.0	5_exp_RW	9	Rpleas_acq	CS_B	MQQM	VKKV	YDDY	BZZB	JXXJ	GWWG	treu	spielen	retten	fair	ehrlich	schön	tot	strafen	rächen	faul	eitel	schlecht	1	acq_USpleas_CSpleas1_RW	acq4567_RW	4	58	400	1	300	300	368	46	0	0	1	blank2r.bmp	0	1	+	0	1	blank2r.bmp	492	1	MQQM	492	1	blank2r.bmp	572	3	retten	866	1	!	1239	1	!	1266	0	0	0	0	0	0	0	0	0	0	0	0	0	0	0	0	0	0	0	0	0	0	0	0	0	0	0	0	0	0
070319	12:32:36	12:39:23	406808	5.0.10.0	5_exp_RW	9	Rpleas_acq	CS_B	MQQM	VKKV	YDDY	BZZB	JXXJ	GWWG	treu	spielen	retten	fair	ehrlich	schön	tot	strafen	rächen	faul	eitel	schlecht	1	acq_USpleas_CSpleas1_RW	acq4567_RW	4	59	400	1	300	300	450	50	0	1	1	blank2r.bmp	0	1	+	0	1	blank2r.bmp	492	1	MQQM	492	1	blank2r.bmp	572	3	retten	866	1	!	1239	1	!	1346	0	0	0	0	0	0	0	0	0	0	0	0	0	0	0	0	0	0	0	0	0	0	0	0	0	0	0	0	0	0
070319	12:32:36	12:39:25	409047	5.0.10.0	5_exp_RW	9	Rpleas_acq	CS_B	MQQM	VKKV	YDDY	BZZB	JXXJ	GWWG	treu	spielen	retten	fair	ehrlich	schön	tot	strafen	rächen	faul	eitel	schlecht	1	acq_USunple_CSunple1_RW	acq4567_RW	4	60	400	1	300	300	446	46	0	1	1	blank2r.bmp	0	1	+	0	1	blank2r.bmp	492	1	YDDY	492	1	blank2r.bmp	572	1	tot	866	1	!	1239	1	!	1346	0	0	0	0	0	0	0	0	0	0	0	0	0	0	0	0	0	0	0	0	0	0	0	0	0	0	0	0	0	0
070319	12:32:36	12:39:28	411299	5.0.10.0	5_exp_RW	9	Rpleas_acq	CS_B	MQQM	VKKV	YDDY	BZZB	JXXJ	GWWG	treu	spielen	retten	fair	ehrlich	schön	tot	strafen	rächen	faul	eitel	schlecht	1	acq_USpleas_CSpleas2_RW	acq4567_RW	4	61	400	0	300	300	479	50	0	1	1	blank2r.bmp	0	1	+	0	1	blank2r.bmp	492	1	VKKV	492	1	blank2r.bmp	572	1	fair	866	1	!	1239	1	!	-1	0	0	0	0	0	0	0	0	0	0	0	0	0	0	0	0	0	0	0	0	0	0	0	0	0	0	0	0	0	0
070319	12:32:36	12:39:30	413565	5.0.10.0	5_exp_RW	9	Rpleas_acq	CS_B	MQQM	VKKV	YDDY	BZZB	JXXJ	GWWG	treu	spielen	retten	fair	ehrlich	schön	tot	strafen	rächen	faul	eitel	schlecht	1	acq_USpleas_CSpleas2_RW	acq4567_RW	4	62	400	0	300	300	488	50	0	1	1	blank2r.bmp	0	1	+	0	1	blank2r.bmp	492	1	VKKV	492	1	blank2r.bmp	572	2	ehrlich	866	1	!	1239	1	!	-1	0	0	0	0	0	0	0	0	0	0	0	0	0	0	0	0	0	0	0	0	0	0	0	0	0	0	0	0	0	0
070319	12:32:36	12:39:32	415737	5.0.10.0	5_exp_RW	9	Rpleas_acq	CS_B	MQQM	VKKV	YDDY	BZZB	JXXJ	GWWG	treu	spielen	retten	fair	ehrlich	schön	tot	strafen	rächen	faul	eitel	schlecht	1	acq_USpleas_CSpleas1_RW	acq4567_RW	4	63	400	1	300	300	368	50	0	1	1	blank2r.bmp	0	1	+	0	1	blank2r.bmp	492	1	MQQM	492	1	blank2r.bmp	572	2	spielen	866	1	!	1239	1	!	1266	0	0	0	0	0	0	0	0	0	0	0	0	0	0	0	0	0	0	0	0	0	0	0	0	0	0	0	0	0	0
070319	12:32:36	12:39:34	417923	5.0.10.0	5_exp_RW	9	Rpleas_acq	CS_B	MQQM	VKKV	YDDY	BZZB	JXXJ	GWWG	treu	spielen	retten	fair	ehrlich	schön	tot	strafen	rächen	faul	eitel	schlecht	1	acq_USpleas_CSpleas1_RW	acq4567_RW	4	64	400	1	300	300	396	50	0	1	1	blank2r.bmp	0	1	+	0	1	blank2r.bmp	492	1	MQQM	492	1	blank2r.bmp	572	1	treu	866	1	!	1239	1	!	1292	0	0	0	0	0	0	0	0	0	0	0	0	0	0	0	0	0	0	0	0	0	0	0	0	0	0	0	0	0	0
070319	12:32:36	12:39:36	420069	5.0.10.0	5_exp_RW	9	Rpleas_acq	CS_B	MQQM	VKKV	YDDY	BZZB	JXXJ	GWWG	treu	spielen	retten	fair	ehrlich	schön	tot	strafen	rächen	faul	eitel	schlecht	1	acq_USunple_CSunple1_RW	acq4567_RW	4	65	400	1	300	300	346	46	0	1	1	blank2r.bmp	0	1	+	0	1	blank2r.bmp	492	1	YDDY	492	1	blank2r.bmp	572	2	strafen	866	1	!	1239	1	!	1252	0	0	0	0	0	0	0	0	0	0	0	0	0	0	0	0	0	0	0	0	0	0	0	0	0	0	0	0	0	0
070319	12:32:36	12:39:39	422215	5.0.10.0	5_exp_RW	9	Rpleas_acq	CS_B	MQQM	VKKV	YDDY	BZZB	JXXJ	GWWG	treu	spielen	retten	fair	ehrlich	schön	tot	strafen	rächen	faul	eitel	schlecht	1	acq_USunple_CSunple2_RW	acq4567_RW	4	66	400	1	300	300	346	46	0	1	1	blank2r.bmp	0	1	+	0	1	blank2r.bmp	492	1	BZZB	492	1	blank2r.bmp	572	1	faul	866	1	!	1239	1	!	1252	0	0	0	0	0	0	0	0	0	0	0	0	0	0	0	0	0	0	0	0	0	0	0	0	0	0	0	0	0	0
070319	12:32:36	12:39:41	424441	5.0.10.0	5_exp_RW	9	Rpleas_acq	CS_B	MQQM	VKKV	YDDY	BZZB	JXXJ	GWWG	treu	spielen	retten	fair	ehrlich	schön	tot	strafen	rächen	faul	eitel	schlecht	1	acq_USpleas_CSpleas1_RW	acq4567_RW	4	67	400	1	300	300	427	50	0	1	1	blank2r.bmp	0	1	+	0	1	blank2r.bmp	492	1	MQQM	492	1	blank2r.bmp	572	1	treu	866	1	!	1239	1	!	1332	0	0	0	0	0	0	0	0	0	0	0	0	0	0	0	0	0	0	0	0	0	0	0	0	0	0	0	0	0	0
070319	12:32:36	12:39:43	426720	5.0.10.0	5_exp_RW	9	Rpleas_acq	CS_B	MQQM	VKKV	YDDY	BZZB	JXXJ	GWWG	treu	spielen	retten	fair	ehrlich	schön	tot	strafen	rächen	faul	eitel	schlecht	1	acq_USpleas_CSpleas1_RW	acq4567_RW	4	68	400	1	300	300	465	50	0	1	1	blank2r.bmp	0	1	+	0	1	blank2r.bmp	492	1	MQQM	492	1	blank2r.bmp	572	2	spielen	866	1	!	1239	1	!	1372	0	0	0	0	0	0	0	0	0	0	0	0	0	0	0	0	0	0	0	0	0	0	0	0	0	0	0	0	0	0
070319	12:32:36	12:39:45	428919	5.0.10.0	5_exp_RW	9	Rpleas_acq	CS_B	MQQM	VKKV	YDDY	BZZB	JXXJ	GWWG	treu	spielen	retten	fair	ehrlich	schön	tot	strafen	rächen	faul	eitel	schlecht	1	acq_USunple_CSunple2_RW	acq4567_RW	4	69	400	1	300	300	405	46	0	1	1	blank2r.bmp	0	1	+	0	1	blank2r.bmp	492	1	BZZB	492	1	blank2r.bmp	572	3	schlecht	866	1	!	1239	1	!	1306	0	0	0	0	0	0	0	0	0	0	0	0	0	0	0	0	0	0	0	0	0	0	0	0	0	0	0	0	0	0
070319	12:32:36	12:39:47	431011	5.0.10.0	5_exp_RW	9	Rpleas_acq	CS_B	MQQM	VKKV	YDDY	BZZB	JXXJ	GWWG	treu	spielen	retten	fair	ehrlich	schön	tot	strafen	rächen	faul	eitel	schlecht	1	acq_USunple_CSunple1_RW	acq4567_RW	4	70	400	0	300	300	323	50	0	0	1	blank2r.bmp	0	1	+	0	1	blank2r.bmp	492	1	YDDY	492	1	blank2r.bmp	572	3	rächen	866	1	!	-1	1	!	-1	0	0	0	0	0	0	0	0	0	0	0	0	0	0	0	0	0	0	0	0	0	0	0	0	0	0	0	0	0	0
070319	12:32:36	12:39:50	433277	5.0.10.0	5_exp_RW	9	Rpleas_acq	CS_B	MQQM	VKKV	YDDY	BZZB	JXXJ	GWWG	treu	spielen	retten	fair	ehrlich	schön	tot	strafen	rächen	faul	eitel	schlecht	1	acq_USpleas_CSpleas1_RW	acq4567_RW	4	71	400	1	300	300	443	50	0	1	1	blank2r.bmp	0	1	+	0	1	blank2r.bmp	492	1	MQQM	492	1	blank2r.bmp	572	3	retten	866	1	!	1239	1	!	1346	0	0	0	0	0	0	0	0	0	0	0	0	0	0	0	0	0	0	0	0	0	0	0	0	0	0	0	0	0	0
070319	12:32:36	12:39:52	435356	5.0.10.0	5_exp_RW	9	Rpleas_acq	CS_B	MQQM	VKKV	YDDY	BZZB	JXXJ	GWWG	treu	spielen	retten	fair	ehrlich	schön	tot	strafen	rächen	faul	eitel	schlecht	1	acq_USunple_CSunple1_RW	acq4567_RW	4	72	400	0	300	300	306	46	0	1	1	blank2r.bmp	0	1	+	0	1	blank2r.bmp	492	1	YDDY	492	1	blank2r.bmp	572	1	tot	866	1	!	-1	1	!	-1	0	0	0	0	0	0	0	0	0	0	0	0	0	0	0	0	0	0	0	0	0	0	0	0	0	0	0	0	0	0
070319	12:32:36	12:39:54	437622	5.0.10.0	5_exp_RW	9	Rpleas_acq	CS_B	MQQM	VKKV	YDDY	BZZB	JXXJ	GWWG	treu	spielen	retten	fair	ehrlich	schön	tot	strafen	rächen	faul	eitel	schlecht	1	acq_USunple_CSunple1_RW	acq4567_RW	4	73	400	1	300	300	455	46	0	1	1	blank2r.bmp	0	1	+	0	1	blank2r.bmp	492	1	YDDY	492	1	blank2r.bmp	572	3	rächen	866	1	!	1239	1	!	1359	0	0	0	0	0	0	0	0	0	0	0	0	0	0	0	0	0	0	0	0	0	0	0	0	0	0	0	0	0	0
070319	12:32:36	12:39:56	439794	5.0.10.0	5_exp_RW	9	Rpleas_acq	CS_B	MQQM	VKKV	YDDY	BZZB	JXXJ	GWWG	treu	spielen	retten	fair	ehrlich	schön	tot	strafen	rächen	faul	eitel	schlecht	1	acq_USunple_CSunple2_RW	acq4567_RW	4	74	400	1	300	300	365	50	0	0	1	blank2r.bmp	0	1	+	0	1	blank2r.bmp	492	1	BZZB	492	1	blank2r.bmp	572	2	eitel	866	1	!	1239	1	!	1266	0	0	0	0	0	0	0	0	0	0	0	0	0	0	0	0	0	0	0	0	0	0	0	0	0	0	0	0	0	0
070319	12:32:36	12:39:59	442100	5.0.10.0	5_exp_RW	9	Rpleas_acq	CS_B	MQQM	VKKV	YDDY	BZZB	JXXJ	GWWG	treu	spielen	retten	fair	ehrlich	schön	tot	strafen	rächen	faul	eitel	schlecht	1	acq_USpleas_CSpleas2_RW	acq4567_RW	4	75	400	0	300	300	533	50	0	1	1	blank2r.bmp	0	1	+	0	1	blank2r.bmp	492	1	VKKV	492	1	blank2r.bmp	572	2	ehrlich	866	1	!	1239	1	!	-1	0	0	0	0	0	0	0	0	0	0	0	0	0	0	0	0	0	0	0	0	0	0	0	0	0	0	0	0	0	0
070319	12:32:36	12:40:01	444179	5.0.10.0	5_exp_RW	9	Rpleas_acq	CS_B	MQQM	VKKV	YDDY	BZZB	JXXJ	GWWG	treu	spielen	retten	fair	ehrlich	schön	tot	strafen	rächen	faul	eitel	schlecht	1	acq_USunple_CSunple1_RW	acq4567_RW	4	76	400	0	300	300	304	46	0	1	1	blank2r.bmp	0	1	+	0	1	blank2r.bmp	492	1	YDDY	492	1	blank2r.bmp	572	2	strafen	866	1	!	-1	1	!	-1	0	0	0	0	0	0	0	0	0	0	0	0	0	0	0	0	0	0	0	0	0	0	0	0	0	0	0	0	0	0
070319	12:32:36	12:40:03	446445	5.0.10.0	5_exp_RW	9	Rpleas_acq	CS_B	MQQM	VKKV	YDDY	BZZB	JXXJ	GWWG	treu	spielen	retten	fair	ehrlich	schön	tot	strafen	rächen	faul	eitel	schlecht	1	acq_USunple_CSunple2_RW	acq4567_RW	4	77	400	1	300	300	463	46	0	1	1	blank2r.bmp	0	1	+	0	1	blank2r.bmp	492	1	BZZB	492	1	blank2r.bmp	572	3	schlecht	866	1	!	1239	1	!	1359	0	0	0	0	0	0	0	0	0	0	0	0	0	0	0	0	0	0	0	0	0	0	0	0	0	0	0	0	0	0
070319	12:32:36	12:40:05	448697	5.0.10.0	5_exp_RW	9	Rpleas_acq	CS_B	MQQM	VKKV	YDDY	BZZB	JXXJ	GWWG	treu	spielen	retten	fair	ehrlich	schön	tot	strafen	rächen	faul	eitel	schlecht	1	acq_USpleas_CSpleas2_RW	acq4567_RW	4	78	400	1	300	300	463	50	0	1	1	blank2r.bmp	0	1	+	0	1	blank2r.bmp	492	1	VKKV	492	1	blank2r.bmp	572	1	fair	866	1	!	1239	1	!	1359	0	0	0	0	0	0	0	0	0	0	0	0	0	0	0	0	0	0	0	0	0	0	0	0	0	0	0	0	0	0
070319	12:32:36	12:40:07	450910	5.0.10.0	5_exp_RW	9	Rpleas_acq	CS_B	MQQM	VKKV	YDDY	BZZB	JXXJ	GWWG	treu	spielen	retten	fair	ehrlich	schön	tot	strafen	rächen	faul	eitel	schlecht	1	acq_USunple_CSunple2_RW	acq4567_RW	4	79	400	1	300	300	399	46	0	1	1	blank2r.bmp	0	1	+	0	1	blank2r.bmp	492	1	BZZB	492	1	blank2r.bmp	572	1	faul	866	1	!	1239	1	!	1306	0	0	0	0	0	0	0	0	0	0	0	0	0	0	0	0	0	0	0	0	0	0	0	0	0	0	0	0	0	0
070319	12:32:36	12:40:10	453096	5.0.10.0	5_exp_RW	9	Rpleas_acq	CS_B	MQQM	VKKV	YDDY	BZZB	JXXJ	GWWG	treu	spielen	retten	fair	ehrlich	schön	tot	strafen	rächen	faul	eitel	schlecht	1	acq_USpleas_CSpleas2_RW	acq4567_RW	4	80	400	1	300	300	396	50	0	1	1	blank2r.bmp	0	1	+	0	1	blank2r.bmp	492	1	VKKV	492	1	blank2r.bmp	572	3	schön	866	1	!	1239	1	!	1292	0	0	0	0	0	0	0	0	0	0	0	0	0	0	0	0	0	0	0	0	0	0	0	0	0	0	0	0	0	0
070319	12:32:36	12:40:23	467063	5.0.10.0	5_exp_RW	9	Rpleas_acq	CS_B	MQQM	VKKV	YDDY	BZZB	JXXJ	GWWG	treu	spielen	retten	fair	ehrlich	schön	tot	strafen	rächen	faul	eitel	schlecht	1	acq_USpleas_CSpleas2_RW	acq4567_RW	5	1	400	1	300	300	412	50	0	1	1	blank2r.bmp	0	1	+	0	1	blank2r.bmp	492	1	VKKV	492	1	blank2r.bmp	572	2	ehrlich	866	1	!	1239	1	!	1319	0	0	0	0	0	0	0	0	0	0	0	0	0	0	0	0	0	0	0	0	0	0	0	0	0	0	0	0	0	0
070319	12:32:36	12:40:26	469209	5.0.10.0	5_exp_RW	9	Rpleas_acq	CS_B	MQQM	VKKV	YDDY	BZZB	JXXJ	GWWG	treu	spielen	retten	fair	ehrlich	schön	tot	strafen	rächen	faul	eitel	schlecht	1	acq_USpleas_CSpleas1_RW	acq4567_RW	5	2	400	1	300	300	346	50	0	1	1	blank2r.bmp	0	1	+	0	1	blank2r.bmp	492	1	MQQM	492	1	blank2r.bmp	572	2	spielen	866	1	!	1239	1	!	1252	0	0	0	0	0	0	0	0	0	0	0	0	0	0	0	0	0	0	0	0	0	0	0	0	0	0	0	0	0	0
070319	12:32:36	12:40:28	471368	5.0.10.0	5_exp_RW	9	Rpleas_acq	CS_B	MQQM	VKKV	YDDY	BZZB	JXXJ	GWWG	treu	spielen	retten	fair	ehrlich	schön	tot	strafen	rächen	faul	eitel	schlecht	1	acq_USpleas_CSpleas2_RW	acq4567_RW	5	3	400	1	300	300	361	50	0	1	1	blank2r.bmp	0	1	+	0	1	blank2r.bmp	492	1	VKKV	492	1	blank2r.bmp	572	1	fair	866	1	!	1239	1	!	1266	0	0	0	0	0	0	0	0	0	0	0	0	0	0	0	0	0	0	0	0	0	0	0	0	0	0	0	0	0	0
070319	12:32:36	12:40:30	473581	5.0.10.0	5_exp_RW	9	Rpleas_acq	CS_B	MQQM	VKKV	YDDY	BZZB	JXXJ	GWWG	treu	spielen	retten	fair	ehrlich	schön	tot	strafen	rächen	faul	eitel	schlecht	1	acq_USpleas_CSpleas2_RW	acq4567_RW	5	4	400	1	300	300	422	50	0	1	1	blank2r.bmp	0	1	+	0	1	blank2r.bmp	492	1	VKKV	492	1	blank2r.bmp	572	3	schön	866	1	!	1239	1	!	1319	0	0	0	0	0	0	0	0	0	0	0	0	0	0	0	0	0	0	0	0	0	0	0	0	0	0	0	0	0	0
070319	12:32:36	12:40:32	475753	5.0.10.0	5_exp_RW	9	Rpleas_acq	CS_B	MQQM	VKKV	YDDY	BZZB	JXXJ	GWWG	treu	spielen	retten	fair	ehrlich	schön	tot	strafen	rächen	faul	eitel	schlecht	1	acq_USunple_CSunple2_RW	acq4567_RW	5	5	400	1	300	300	369	46	0	1	1	blank2r.bmp	0	1	+	0	1	blank2r.bmp	492	1	BZZB	492	1	blank2r.bmp	572	1	faul	866	1	!	1239	1	!	1266	0	0	0	0	0	0	0	0	0	0	0	0	0	0	0	0	0	0	0	0	0	0	0	0	0	0	0	0	0	0
070319	12:32:36	12:40:34	477966	5.0.10.0	5_exp_RW	9	Rpleas_acq	CS_B	MQQM	VKKV	YDDY	BZZB	JXXJ	GWWG	treu	spielen	retten	fair	ehrlich	schön	tot	strafen	rächen	faul	eitel	schlecht	1	acq_USunple_CSunple1_RW	acq4567_RW	5	6	400	1	300	300	413	46	0	1	1	blank2r.bmp	0	1	+	0	1	blank2r.bmp	492	1	YDDY	492	1	blank2r.bmp	572	3	rächen	866	1	!	1239	1	!	1319	0	0	0	0	0	0	0	0	0	0	0	0	0	0	0	0	0	0	0	0	0	0	0	0	0	0	0	0	0	0
070319	12:32:36	12:40:36	480058	5.0.10.0	5_exp_RW	9	Rpleas_acq	CS_B	MQQM	VKKV	YDDY	BZZB	JXXJ	GWWG	treu	spielen	retten	fair	ehrlich	schön	tot	strafen	rächen	faul	eitel	schlecht	1	acq_USunple_CSunple1_RW	acq4567_RW	5	7	400	0	300	300	331	46	0	1	1	blank2r.bmp	0	1	+	0	1	blank2r.bmp	492	1	YDDY	492	1	blank2r.bmp	572	2	strafen	866	1	!	-1	1	!	-1	0	0	0	0	0	0	0	0	0	0	0	0	0	0	0	0	0	0	0	0	0	0	0	0	0	0	0	0	0	0
070319	12:32:36	12:40:39	482230	5.0.10.0	5_exp_RW	9	Rpleas_acq	CS_B	MQQM	VKKV	YDDY	BZZB	JXXJ	GWWG	treu	spielen	retten	fair	ehrlich	schön	tot	strafen	rächen	faul	eitel	schlecht	1	acq_USunple_CSunple2_RW	acq4567_RW	5	8	400	1	300	300	360	46	0	1	1	blank2r.bmp	0	1	+	0	1	blank2r.bmp	492	1	BZZB	492	1	blank2r.bmp	572	3	schlecht	866	1	!	1239	1	!	1266	0	0	0	0	0	0	0	0	0	0	0	0	0	0	0	0	0	0	0	0	0	0	0	0	0	0	0	0	0	0
070319	12:32:36	12:40:41	484470	5.0.10.0	5_exp_RW	9	Rpleas_acq	CS_B	MQQM	VKKV	YDDY	BZZB	JXXJ	GWWG	treu	spielen	retten	fair	ehrlich	schön	tot	strafen	rächen	faul	eitel	schlecht	1	acq_USpleas_CSpleas2_RW	acq4567_RW	5	9	400	1	300	300	442	46	0	0	1	blank2r.bmp	0	1	+	0	1	blank2r.bmp	492	1	VKKV	492	1	blank2r.bmp	572	2	ehrlich	866	1	!	1239	1	!	1346	0	0	0	0	0	0	0	0	0	0	0	0	0	0	0	0	0	0	0	0	0	0	0	0	0	0	0	0	0	0
070319	12:32:36	12:40:43	486749	5.0.10.0	5_exp_RW	9	Rpleas_acq	CS_B	MQQM	VKKV	YDDY	BZZB	JXXJ	GWWG	treu	spielen	retten	fair	ehrlich	schön	tot	strafen	rächen	faul	eitel	schlecht	1	acq_USunple_CSunple2_RW	acq4567_RW	5	10	400	0	300	300	499	46	0	1	1	blank2r.bmp	0	1	+	0	1	blank2r.bmp	492	1	BZZB	492	1	blank2r.bmp	572	2	eitel	866	1	!	1239	1	!	-1	0	0	0	0	0	0	0	0	0	0	0	0	0	0	0	0	0	0	0	0	0	0	0	0	0	0	0	0	0	0
070319	12:32:36	12:40:45	488828	5.0.10.0	5_exp_RW	9	Rpleas_acq	CS_B	MQQM	VKKV	YDDY	BZZB	JXXJ	GWWG	treu	spielen	retten	fair	ehrlich	schön	tot	strafen	rächen	faul	eitel	schlecht	1	acq_USpleas_CSpleas2_RW	acq4567_RW	5	11	400	0	300	300	281	50	0	1	1	blank2r.bmp	0	1	+	0	1	blank2r.bmp	492	1	VKKV	492	1	blank2r.bmp	572	3	schön	866	1	!	-1	1	!	-1	0	0	0	0	0	0	0	0	0	0	0	0	0	0	0	0	0	0	0	0	0	0	0	0	0	0	0	0	0	0
070319	12:32:36	12:40:47	491014	5.0.10.0	5_exp_RW	9	Rpleas_acq	CS_B	MQQM	VKKV	YDDY	BZZB	JXXJ	GWWG	treu	spielen	retten	fair	ehrlich	schön	tot	strafen	rächen	faul	eitel	schlecht	1	acq_USpleas_CSpleas1_RW	acq4567_RW	5	12	400	1	300	300	373	50	0	1	1	blank2r.bmp	0	1	+	0	1	blank2r.bmp	492	1	MQQM	492	1	blank2r.bmp	572	3	retten	866	1	!	1239	1	!	1279	0	0	0	0	0	0	0	0	0	0	0	0	0	0	0	0	0	0	0	0	0	0	0	0	0	0	0	0	0	0
070319	12:32:36	12:40:50	493199	5.0.10.0	5_exp_RW	9	Rpleas_acq	CS_B	MQQM	VKKV	YDDY	BZZB	JXXJ	GWWG	treu	spielen	retten	fair	ehrlich	schön	tot	strafen	rächen	faul	eitel	schlecht	1	acq_USpleas_CSpleas1_RW	acq4567_RW	5	13	400	1	300	300	388	50	0	1	1	blank2r.bmp	0	1	+	0	1	blank2r.bmp	492	1	MQQM	492	1	blank2r.bmp	572	1	treu	866	1	!	1239	1	!	1292	0	0	0	0	0	0	0	0	0	0	0	0	0	0	0	0	0	0	0	0	0	0	0	0	0	0	0	0	0	0
070319	12:32:36	12:40:52	495372	5.0.10.0	5_exp_RW	9	Rpleas_acq	CS_B	MQQM	VKKV	YDDY	BZZB	JXXJ	GWWG	treu	spielen	retten	fair	ehrlich	schön	tot	strafen	rächen	faul	eitel	schlecht	1	acq_USunple_CSunple1_RW	acq4567_RW	5	14	400	1	300	300	375	50	0	0	1	blank2r.bmp	0	1	+	0	1	blank2r.bmp	492	1	YDDY	492	1	blank2r.bmp	572	1	tot	866	1	!	1239	1	!	1279	0	0	0	0	0	0	0	0	0	0	0	0	0	0	0	0	0	0	0	0	0	0	0	0	0	0	0	0	0	0
070319	12:32:36	12:40:54	497611	5.0.10.0	5_exp_RW	9	Rpleas_acq	CS_B	MQQM	VKKV	YDDY	BZZB	JXXJ	GWWG	treu	spielen	retten	fair	ehrlich	schön	tot	strafen	rächen	faul	eitel	schlecht	1	acq_USpleas_CSpleas1_RW	acq4567_RW	5	15	400	1	300	300	428	50	0	1	1	blank2r.bmp	0	1	+	0	1	blank2r.bmp	492	1	MQQM	492	1	blank2r.bmp	572	1	treu	866	1	!	1239	1	!	1332	0	0	0	0	0	0	0	0	0	0	0	0	0	0	0	0	0	0	0	0	0	0	0	0	0	0	0	0	0	0
070319	12:32:36	12:40:56	499823	5.0.10.0	5_exp_RW	9	Rpleas_acq	CS_B	MQQM	VKKV	YDDY	BZZB	JXXJ	GWWG	treu	spielen	retten	fair	ehrlich	schön	tot	strafen	rächen	faul	eitel	schlecht	1	acq_USunple_CSunple1_RW	acq4567_RW	5	16	400	1	300	300	413	46	0	1	1	blank2r.bmp	0	1	+	0	1	blank2r.bmp	492	1	YDDY	492	1	blank2r.bmp	572	2	strafen	866	1	!	1239	1	!	1319	0	0	0	0	0	0	0	0	0	0	0	0	0	0	0	0	0	0	0	0	0	0	0	0	0	0	0	0	0	0
070319	12:32:36	12:40:58	502049	5.0.10.0	5_exp_RW	9	Rpleas_acq	CS_B	MQQM	VKKV	YDDY	BZZB	JXXJ	GWWG	treu	spielen	retten	fair	ehrlich	schön	tot	strafen	rächen	faul	eitel	schlecht	1	acq_USunple_CSunple2_RW	acq4567_RW	5	17	400	1	300	300	430	46	0	1	1	blank2r.bmp	0	1	+	0	1	blank2r.bmp	492	1	BZZB	492	1	blank2r.bmp	572	1	faul	866	1	!	1239	1	!	1332	0	0	0	0	0	0	0	0	0	0	0	0	0	0	0	0	0	0	0	0	0	0	0	0	0	0	0	0	0	0
070319	12:32:36	12:41:01	504275	5.0.10.0	5_exp_RW	9	Rpleas_acq	CS_B	MQQM	VKKV	YDDY	BZZB	JXXJ	GWWG	treu	spielen	retten	fair	ehrlich	schön	tot	strafen	rächen	faul	eitel	schlecht	1	acq_USunple_CSunple2_RW	acq4567_RW	5	18	400	1	300	300	424	46	0	1	1	blank2r.bmp	0	1	+	0	1	blank2r.bmp	492	1	BZZB	492	1	blank2r.bmp	572	3	schlecht	866	1	!	1239	1	!	1319	0	0	0	0	0	0	0	0	0	0	0	0	0	0	0	0	0	0	0	0	0	0	0	0	0	0	0	0	0	0
070319	12:32:36	12:41:03	506461	5.0.10.0	5_exp_RW	9	Rpleas_acq	CS_B	MQQM	VKKV	YDDY	BZZB	JXXJ	GWWG	treu	spielen	retten	fair	ehrlich	schön	tot	strafen	rächen	faul	eitel	schlecht	1	acq_USunple_CSunple1_RW	acq4567_RW	5	19	400	1	300	300	394	46	0	1	1	blank2r.bmp	0	1	+	0	1	blank2r.bmp	492	1	YDDY	492	1	blank2r.bmp	572	3	rächen	866	1	!	1239	1	!	1292	0	0	0	0	0	0	0	0	0	0	0	0	0	0	0	0	0	0	0	0	0	0	0	0	0	0	0	0	0	0
070319	12:32:36	12:41:05	508606	5.0.10.0	5_exp_RW	9	Rpleas_acq	CS_B	MQQM	VKKV	YDDY	BZZB	JXXJ	GWWG	treu	spielen	retten	fair	ehrlich	schön	tot	strafen	rächen	faul	eitel	schlecht	1	acq_USpleas_CSpleas1_RW	acq4567_RW	5	20	400	1	300	300	346	50	0	1	1	blank2r.bmp	0	1	+	0	1	blank2r.bmp	492	1	MQQM	492	1	blank2r.bmp	572	2	spielen	866	1	!	1239	1	!	1252	0	0	0	0	0	0	0	0	0	0	0	0	0	0	0	0	0	0	0	0	0	0	0	0	0	0	0	0	0	0
070319	12:32:36	12:41:07	510859	5.0.10.0	5_exp_RW	9	Rpleas_acq	CS_B	MQQM	VKKV	YDDY	BZZB	JXXJ	GWWG	treu	spielen	retten	fair	ehrlich	schön	tot	strafen	rächen	faul	eitel	schlecht	1	acq_USunple_CSunple2_RW	acq4567_RW	5	21	400	1	300	300	456	50	0	0	1	blank2r.bmp	0	1	+	0	1	blank2r.bmp	492	1	BZZB	492	1	blank2r.bmp	572	2	eitel	866	1	!	1239	1	!	1359	0	0	0	0	0	0	0	0	0	0	0	0	0	0	0	0	0	0	0	0	0	0	0	0	0	0	0	0	0	0
070319	12:32:36	12:41:09	513005	5.0.10.0	5_exp_RW	9	Rpleas_acq	CS_B	MQQM	VKKV	YDDY	BZZB	JXXJ	GWWG	treu	spielen	retten	fair	ehrlich	schön	tot	strafen	rächen	faul	eitel	schlecht	1	acq_USunple_CSunple1_RW	acq4567_RW	5	22	400	1	300	300	347	46	0	1	1	blank2r.bmp	0	1	+	0	1	blank2r.bmp	492	1	YDDY	492	1	blank2r.bmp	572	1	tot	866	1	!	1239	1	!	1252	0	0	0	0	0	0	0	0	0	0	0	0	0	0	0	0	0	0	0	0	0	0	0	0	0	0	0	0	0	0
070319	12:32:36	12:41:12	515244	5.0.10.0	5_exp_RW	9	Rpleas_acq	CS_B	MQQM	VKKV	YDDY	BZZB	JXXJ	GWWG	treu	spielen	retten	fair	ehrlich	schön	tot	strafen	rächen	faul	eitel	schlecht	1	acq_USpleas_CSpleas2_RW	acq4567_RW	5	23	400	1	300	300	450	46	0	0	1	blank2r.bmp	0	1	+	0	1	blank2r.bmp	492	1	VKKV	492	1	blank2r.bmp	572	1	fair	866	1	!	1239	1	!	1346	0	0	0	0	0	0	0	0	0	0	0	0	0	0	0	0	0	0	0	0	0	0	0	0	0	0	0	0	0	0
070319	12:32:36	12:41:14	517683	5.0.10.0	5_exp_RW	9	Rpleas_acq	CS_B	MQQM	VKKV	YDDY	BZZB	JXXJ	GWWG	treu	spielen	retten	fair	ehrlich	schön	tot	strafen	rächen	faul	eitel	schlecht	1	acq_USpleas_CSpleas1_RW	acq4567_RW	5	24	400	0	300	300	670	50	0	1	1	blank2r.bmp	0	1	+	0	1	blank2r.bmp	492	1	MQQM	492	1	blank2r.bmp	572	3	retten	866	1	!	1239	1	!	-1	0	0	0	0	0	0	0	0	0	0	0	0	0	0	0	0	0	0	0	0	0	0	0	0	0	0	0	0	0	0
070319	12:32:36	12:41:16	519949	5.0.10.0	5_exp_RW	9	Rpleas_acq	CS_B	MQQM	VKKV	YDDY	BZZB	JXXJ	GWWG	treu	spielen	retten	fair	ehrlich	schön	tot	strafen	rächen	faul	eitel	schlecht	1	acq_USpleas_CSpleas1_RW	acq4567_RW	5	25	400	1	300	300	441	50	0	1	1	blank2r.bmp	0	1	+	0	1	blank2r.bmp	492	1	MQQM	492	1	blank2r.bmp	572	1	treu	866	1	!	1239	1	!	1346	0	0	0	0	0	0	0	0	0	0	0	0	0	0	0	0	0	0	0	0	0	0	0	0	0	0	0	0	0	0
070319	12:32:36	12:41:19	522121	5.0.10.0	5_exp_RW	9	Rpleas_acq	CS_B	MQQM	VKKV	YDDY	BZZB	JXXJ	GWWG	treu	spielen	retten	fair	ehrlich	schön	tot	strafen	rächen	faul	eitel	schlecht	1	acq_USunple_CSunple2_RW	acq4567_RW	5	26	400	1	300	300	376	46	0	1	1	blank2r.bmp	0	1	+	0	1	blank2r.bmp	492	1	BZZB	492	1	blank2r.bmp	572	3	schlecht	866	1	!	1239	1	!	1279	0	0	0	0	0	0	0	0	0	0	0	0	0	0	0	0	0	0	0	0	0	0	0	0	0	0	0	0	0	0
070319	12:32:36	12:41:21	524333	5.0.10.0	5_exp_RW	9	Rpleas_acq	CS_B	MQQM	VKKV	YDDY	BZZB	JXXJ	GWWG	treu	spielen	retten	fair	ehrlich	schön	tot	strafen	rächen	faul	eitel	schlecht	1	acq_USunple_CSunple1_RW	acq4567_RW	5	27	400	1	300	300	413	46	0	1	1	blank2r.bmp	0	1	+	0	1	blank2r.bmp	492	1	YDDY	492	1	blank2r.bmp	572	2	strafen	866	1	!	1239	1	!	1319	0	0	0	0	0	0	0	0	0	0	0	0	0	0	0	0	0	0	0	0	0	0	0	0	0	0	0	0	0	0
070319	12:32:36	12:41:23	526546	5.0.10.0	5_exp_RW	9	Rpleas_acq	CS_B	MQQM	VKKV	YDDY	BZZB	JXXJ	GWWG	treu	spielen	retten	fair	ehrlich	schön	tot	strafen	rächen	faul	eitel	schlecht	1	acq_USpleas_CSpleas2_RW	acq4567_RW	5	28	400	1	300	300	418	50	0	1	1	blank2r.bmp	0	1	+	0	1	blank2r.bmp	492	1	VKKV	492	1	blank2r.bmp	572	1	fair	866	1	!	1239	1	!	1319	0	0	0	0	0	0	0	0	0	0	0	0	0	0	0	0	0	0	0	0	0	0	0	0	0	0	0	0	0	0
070319	12:32:36	12:41:25	528772	5.0.10.0	5_exp_RW	9	Rpleas_acq	CS_B	MQQM	VKKV	YDDY	BZZB	JXXJ	GWWG	treu	spielen	retten	fair	ehrlich	schön	tot	strafen	rächen	faul	eitel	schlecht	1	acq_USunple_CSunple1_RW	acq4567_RW	5	29	400	1	300	300	428	46	0	1	1	blank2r.bmp	0	1	+	0	1	blank2r.bmp	492	1	YDDY	492	1	blank2r.bmp	572	3	rächen	866	1	!	1239	1	!	1332	0	0	0	0	0	0	0	0	0	0	0	0	0	0	0	0	0	0	0	0	0	0	0	0	0	0	0	0	0	0
070319	12:32:36	12:41:27	530957	5.0.10.0	5_exp_RW	9	Rpleas_acq	CS_B	MQQM	VKKV	YDDY	BZZB	JXXJ	GWWG	treu	spielen	retten	fair	ehrlich	schön	tot	strafen	rächen	faul	eitel	schlecht	1	acq_USpleas_CSpleas2_RW	acq4567_RW	5	30	400	1	300	300	384	50	0	1	1	blank2r.bmp	0	1	+	0	1	blank2r.bmp	492	1	VKKV	492	1	blank2r.bmp	572	3	schön	866	1	!	1239	1	!	1279	0	0	0	0	0	0	0	0	0	0	0	0	0	0	0	0	0	0	0	0	0	0	0	0	0	0	0	0	0	0
070319	12:32:36	12:41:30	533130	5.0.10.0	5_exp_RW	9	Rpleas_acq	CS_B	MQQM	VKKV	YDDY	BZZB	JXXJ	GWWG	treu	spielen	retten	fair	ehrlich	schön	tot	strafen	rächen	faul	eitel	schlecht	1	acq_USunple_CSunple1_RW	acq4567_RW	5	31	400	1	300	300	367	46	0	1	1	blank2r.bmp	0	1	+	0	1	blank2r.bmp	492	1	YDDY	492	1	blank2r.bmp	572	1	tot	866	1	!	1239	1	!	1266	0	0	0	0	0	0	0	0	0	0	0	0	0	0	0	0	0	0	0	0	0	0	0	0	0	0	0	0	0	0
070319	12:32:36	12:41:32	535382	5.0.10.0	5_exp_RW	9	Rpleas_acq	CS_B	MQQM	VKKV	YDDY	BZZB	JXXJ	GWWG	treu	spielen	retten	fair	ehrlich	schön	tot	strafen	rächen	faul	eitel	schlecht	1	acq_USunple_CSunple2_RW	acq4567_RW	5	32	400	1	300	300	453	46	0	1	1	blank2r.bmp	0	1	+	0	1	blank2r.bmp	492	1	BZZB	492	1	blank2r.bmp	572	1	faul	866	1	!	1239	1	!	1359	0	0	0	0	0	0	0	0	0	0	0	0	0	0	0	0	0	0	0	0	0	0	0	0	0	0	0	0	0	0
070319	12:32:36	12:41:34	537555	5.0.10.0	5_exp_RW	9	Rpleas_acq	CS_B	MQQM	VKKV	YDDY	BZZB	JXXJ	GWWG	treu	spielen	retten	fair	ehrlich	schön	tot	strafen	rächen	faul	eitel	schlecht	1	acq_USunple_CSunple2_RW	acq4567_RW	5	33	400	1	300	300	384	50	0	0	1	blank2r.bmp	0	1	+	0	1	blank2r.bmp	492	1	BZZB	492	1	blank2r.bmp	572	2	eitel	866	1	!	1239	1	!	1279	0	0	0	0	0	0	0	0	0	0	0	0	0	0	0	0	0	0	0	0	0	0	0	0	0	0	0	0	0	0
070319	12:32:36	12:41:36	539661	5.0.10.0	5_exp_RW	9	Rpleas_acq	CS_B	MQQM	VKKV	YDDY	BZZB	JXXJ	GWWG	treu	spielen	retten	fair	ehrlich	schön	tot	strafen	rächen	faul	eitel	schlecht	1	acq_USpleas_CSpleas1_RW	acq4567_RW	5	34	400	0	300	300	326	46	0	0	1	blank2r.bmp	0	1	+	0	1	blank2r.bmp	492	1	MQQM	492	1	blank2r.bmp	572	3	retten	866	1	!	-1	1	!	-1	0	0	0	0	0	0	0	0	0	0	0	0	0	0	0	0	0	0	0	0	0	0	0	0	0	0	0	0	0	0
070319	12:32:36	12:41:38	541820	5.0.10.0	5_exp_RW	9	Rpleas_acq	CS_B	MQQM	VKKV	YDDY	BZZB	JXXJ	GWWG	treu	spielen	retten	fair	ehrlich	schön	tot	strafen	rächen	faul	eitel	schlecht	1	acq_USpleas_CSpleas1_RW	acq4567_RW	5	35	400	1	300	300	346	50	0	1	1	blank2r.bmp	0	1	+	0	1	blank2r.bmp	492	1	MQQM	492	1	blank2r.bmp	572	2	spielen	866	1	!	1239	1	!	1252	0	0	0	0	0	0	0	0	0	0	0	0	0	0	0	0	0	0	0	0	0	0	0	0	0	0	0	0	0	0
070319	12:32:36	12:41:40	544032	5.0.10.0	5_exp_RW	9	Rpleas_acq	CS_B	MQQM	VKKV	YDDY	BZZB	JXXJ	GWWG	treu	spielen	retten	fair	ehrlich	schön	tot	strafen	rächen	faul	eitel	schlecht	1	acq_USpleas_CSpleas2_RW	acq4567_RW	5	36	400	1	300	300	423	50	0	1	1	blank2r.bmp	0	1	+	0	1	blank2r.bmp	492	1	VKKV	492	1	blank2r.bmp	572	2	ehrlich	866	1	!	1239	1	!	1319	0	0	0	0	0	0	0	0	0	0	0	0	0	0	0	0	0	0	0	0	0	0	0	0	0	0	0	0	0	0
070319	12:32:36	12:41:43	546284	5.0.10.0	5_exp_RW	9	Rpleas_acq	CS_B	MQQM	VKKV	YDDY	BZZB	JXXJ	GWWG	treu	spielen	retten	fair	ehrlich	schön	tot	strafen	rächen	faul	eitel	schlecht	1	acq_USpleas_CSpleas1_RW	acq4567_RW	5	37	400	1	300	300	462	50	0	1	1	blank2r.bmp	0	1	+	0	1	blank2r.bmp	492	1	MQQM	492	1	blank2r.bmp	572	2	spielen	866	1	!	1239	1	!	1359	0	0	0	0	0	0	0	0	0	0	0	0	0	0	0	0	0	0	0	0	0	0	0	0	0	0	0	0	0	0
070319	12:32:36	12:41:45	548537	5.0.10.0	5_exp_RW	9	Rpleas_acq	CS_B	MQQM	VKKV	YDDY	BZZB	JXXJ	GWWG	treu	spielen	retten	fair	ehrlich	schön	tot	strafen	rächen	faul	eitel	schlecht	1	acq_USpleas_CSpleas2_RW	acq4567_RW	5	38	400	1	300	300	456	50	0	1	1	blank2r.bmp	0	1	+	0	1	blank2r.bmp	492	1	VKKV	492	1	blank2r.bmp	572	1	fair	866	1	!	1239	1	!	1359	0	0	0	0	0	0	0	0	0	0	0	0	0	0	0	0	0	0	0	0	0	0	0	0	0	0	0	0	0	0
070319	12:32:36	12:41:47	550789	5.0.10.0	5_exp_RW	9	Rpleas_acq	CS_B	MQQM	VKKV	YDDY	BZZB	JXXJ	GWWG	treu	spielen	retten	fair	ehrlich	schön	tot	strafen	rächen	faul	eitel	schlecht	1	acq_USunple_CSunple1_RW	acq4567_RW	5	39	400	1	300	300	446	46	0	1	1	blank2r.bmp	0	1	+	0	1	blank2r.bmp	492	1	YDDY	492	1	blank2r.bmp	572	2	strafen	866	1	!	1239	1	!	1346	0	0	0	0	0	0	0	0	0	0	0	0	0	0	0	0	0	0	0	0	0	0	0	0	0	0	0	0	0	0
070319	12:32:36	12:41:49	553002	5.0.10.0	5_exp_RW	9	Rpleas_acq	CS_B	MQQM	VKKV	YDDY	BZZB	JXXJ	GWWG	treu	spielen	retten	fair	ehrlich	schön	tot	strafen	rächen	faul	eitel	schlecht	1	acq_USunple_CSunple2_RW	acq4567_RW	5	40	400	1	300	300	419	50	0	0	1	blank2r.bmp	0	1	+	0	1	blank2r.bmp	492	1	BZZB	492	1	blank2r.bmp	572	2	eitel	866	1	!	1239	1	!	1319	0	0	0	0	0	0	0	0	0	0	0	0	0	0	0	0	0	0	0	0	0	0	0	0	0	0	0	0	0	0
070319	12:32:36	12:41:52	555401	5.0.10.0	5_exp_RW	9	Rpleas_acq	CS_B	MQQM	VKKV	YDDY	BZZB	JXXJ	GWWG	treu	spielen	retten	fair	ehrlich	schön	tot	strafen	rächen	faul	eitel	schlecht	1	acq_USpleas_CSpleas1_RW	acq4567_RW	5	41	400	0	300	300	626	50	0	1	1	blank2r.bmp	0	1	+	0	1	blank2r.bmp	492	1	MQQM	492	1	blank2r.bmp	572	3	retten	866	1	!	1239	1	!	-1	0	0	0	0	0	0	0	0	0	0	0	0	0	0	0	0	0	0	0	0	0	0	0	0	0	0	0	0	0	0
070319	12:32:36	12:41:54	557613	5.0.10.0	5_exp_RW	9	Rpleas_acq	CS_B	MQQM	VKKV	YDDY	BZZB	JXXJ	GWWG	treu	spielen	retten	fair	ehrlich	schön	tot	strafen	rächen	faul	eitel	schlecht	1	acq_USunple_CSunple2_RW	acq4567_RW	5	42	400	1	300	300	403	46	0	1	1	blank2r.bmp	0	1	+	0	1	blank2r.bmp	492	1	BZZB	492	1	blank2r.bmp	572	1	faul	866	1	!	1239	1	!	1306	0	0	0	0	0	0	0	0	0	0	0	0	0	0	0	0	0	0	0	0	0	0	0	0	0	0	0	0	0	0
070319	12:32:36	12:41:56	559786	5.0.10.0	5_exp_RW	9	Rpleas_acq	CS_B	MQQM	VKKV	YDDY	BZZB	JXXJ	GWWG	treu	spielen	retten	fair	ehrlich	schön	tot	strafen	rächen	faul	eitel	schlecht	1	acq_USunple_CSunple1_RW	acq4567_RW	5	43	400	1	300	300	382	46	0	1	1	blank2r.bmp	0	1	+	0	1	blank2r.bmp	492	1	YDDY	492	1	blank2r.bmp	572	3	rächen	866	1	!	1239	1	!	1279	0	0	0	0	0	0	0	0	0	0	0	0	0	0	0	0	0	0	0	0	0	0	0	0	0	0	0	0	0	0
070319	12:32:36	12:41:58	561945	5.0.10.0	5_exp_RW	9	Rpleas_acq	CS_B	MQQM	VKKV	YDDY	BZZB	JXXJ	GWWG	treu	spielen	retten	fair	ehrlich	schön	tot	strafen	rächen	faul	eitel	schlecht	1	acq_USpleas_CSpleas2_RW	acq4567_RW	5	44	400	1	300	300	346	50	0	1	1	blank2r.bmp	0	1	+	0	1	blank2r.bmp	492	1	VKKV	492	1	blank2r.bmp	572	2	ehrlich	866	1	!	1239	1	!	1252	0	0	0	0	0	0	0	0	0	0	0	0	0	0	0	0	0	0	0	0	0	0	0	0	0	0	0	0	0	0
070319	12:32:36	12:42:00	564011	5.0.10.0	5_exp_RW	9	Rpleas_acq	CS_B	MQQM	VKKV	YDDY	BZZB	JXXJ	GWWG	treu	spielen	retten	fair	ehrlich	schön	tot	strafen	rächen	faul	eitel	schlecht	1	acq_USpleas_CSpleas1_RW	acq4567_RW	5	45	400	0	300	300	298	50	0	1	1	blank2r.bmp	0	1	+	0	1	blank2r.bmp	492	1	MQQM	492	1	blank2r.bmp	572	1	treu	866	1	!	-1	1	!	-1	0	0	0	0	0	0	0	0	0	0	0	0	0	0	0	0	0	0	0	0	0	0	0	0	0	0	0	0	0	0
070319	12:32:36	12:42:03	566210	5.0.10.0	5_exp_RW	9	Rpleas_acq	CS_B	MQQM	VKKV	YDDY	BZZB	JXXJ	GWWG	treu	spielen	retten	fair	ehrlich	schön	tot	strafen	rächen	faul	eitel	schlecht	1	acq_USunple_CSunple1_RW	acq4567_RW	5	46	400	1	300	300	396	46	0	1	1	blank2r.bmp	0	1	+	0	1	blank2r.bmp	492	1	YDDY	492	1	blank2r.bmp	572	1	tot	866	1	!	1239	1	!	1292	0	0	0	0	0	0	0	0	0	0	0	0	0	0	0	0	0	0	0	0	0	0	0	0	0	0	0	0	0	0
070319	12:32:36	12:42:05	568382	5.0.10.0	5_exp_RW	9	Rpleas_acq	CS_B	MQQM	VKKV	YDDY	BZZB	JXXJ	GWWG	treu	spielen	retten	fair	ehrlich	schön	tot	strafen	rächen	faul	eitel	schlecht	1	acq_USpleas_CSpleas1_RW	acq4567_RW	5	47	400	1	300	300	380	46	0	0	1	blank2r.bmp	0	1	+	0	1	blank2r.bmp	492	1	MQQM	492	1	blank2r.bmp	572	3	retten	866	1	!	1239	1	!	1279	0	0	0	0	0	0	0	0	0	0	0	0	0	0	0	0	0	0	0	0	0	0	0	0	0	0	0	0	0	0
070319	12:32:36	12:42:07	570648	5.0.10.0	5_exp_RW	9	Rpleas_acq	CS_B	MQQM	VKKV	YDDY	BZZB	JXXJ	GWWG	treu	spielen	retten	fair	ehrlich	schön	tot	strafen	rächen	faul	eitel	schlecht	1	acq_USpleas_CSpleas2_RW	acq4567_RW	5	48	400	0	300	300	495	50	0	1	1	blank2r.bmp	0	1	+	0	1	blank2r.bmp	492	1	VKKV	492	1	blank2r.bmp	572	3	schön	866	1	!	1239	1	!	-1	0	0	0	0	0	0	0	0	0	0	0	0	0	0	0	0	0	0	0	0	0	0	0	0	0	0	0	0	0	0
070319	12:32:36	12:42:09	572914	5.0.10.0	5_exp_RW	9	Rpleas_acq	CS_B	MQQM	VKKV	YDDY	BZZB	JXXJ	GWWG	treu	spielen	retten	fair	ehrlich	schön	tot	strafen	rächen	faul	eitel	schlecht	1	acq_USunple_CSunple1_RW	acq4567_RW	5	49	400	0	300	300	479	46	0	1	1	blank2r.bmp	0	1	+	0	1	blank2r.bmp	492	1	YDDY	492	1	blank2r.bmp	572	3	rächen	866	1	!	1239	1	!	-1	0	0	0	0	0	0	0	0	0	0	0	0	0	0	0	0	0	0	0	0	0	0	0	0	0	0	0	0	0	0
070319	12:32:36	12:42:12	575233	5.0.10.0	5_exp_RW	9	Rpleas_acq	CS_B	MQQM	VKKV	YDDY	BZZB	JXXJ	GWWG	treu	spielen	retten	fair	ehrlich	schön	tot	strafen	rächen	faul	eitel	schlecht	1	acq_USunple_CSunple2_RW	acq4567_RW	5	50	400	0	300	300	535	46	0	1	1	blank2r.bmp	0	1	+	0	1	blank2r.bmp	492	1	BZZB	492	1	blank2r.bmp	572	3	schlecht	866	1	!	1239	1	!	-1	0	0	0	0	0	0	0	0	0	0	0	0	0	0	0	0	0	0	0	0	0	0	0	0	0	0	0	0	0	0
070319	12:32:36	12:42:14	577445	5.0.10.0	5_exp_RW	9	Rpleas_acq	CS_B	MQQM	VKKV	YDDY	BZZB	JXXJ	GWWG	treu	spielen	retten	fair	ehrlich	schön	tot	strafen	rächen	faul	eitel	schlecht	1	acq_USpleas_CSpleas1_RW	acq4567_RW	5	51	400	1	300	300	404	50	0	1	1	blank2r.bmp	0	1	+	0	1	blank2r.bmp	492	1	MQQM	492	1	blank2r.bmp	572	2	spielen	866	1	!	1239	1	!	1306	0	0	0	0	0	0	0	0	0	0	0	0	0	0	0	0	0	0	0	0	0	0	0	0	0	0	0	0	0	0
070319	12:32:36	12:42:16	579698	5.0.10.0	5_exp_RW	9	Rpleas_acq	CS_B	MQQM	VKKV	YDDY	BZZB	JXXJ	GWWG	treu	spielen	retten	fair	ehrlich	schön	tot	strafen	rächen	faul	eitel	schlecht	1	acq_USunple_CSunple2_RW	acq4567_RW	5	52	400	0	300	300	479	46	0	1	1	blank2r.bmp	0	1	+	0	1	blank2r.bmp	492	1	BZZB	492	1	blank2r.bmp	572	3	schlecht	866	1	!	1239	1	!	-1	0	0	0	0	0	0	0	0	0	0	0	0	0	0	0	0	0	0	0	0	0	0	0	0	0	0	0	0	0	0
070319	12:32:36	12:42:18	581910	5.0.10.0	5_exp_RW	9	Rpleas_acq	CS_B	MQQM	VKKV	YDDY	BZZB	JXXJ	GWWG	treu	spielen	retten	fair	ehrlich	schön	tot	strafen	rächen	faul	eitel	schlecht	1	acq_USpleas_CSpleas2_RW	acq4567_RW	5	53	400	1	300	300	405	50	0	1	1	blank2r.bmp	0	1	+	0	1	blank2r.bmp	492	1	VKKV	492	1	blank2r.bmp	572	1	fair	866	1	!	1239	1	!	1306	0	0	0	0	0	0	0	0	0	0	0	0	0	0	0	0	0	0	0	0	0	0	0	0	0	0	0	0	0	0
070319	12:32:36	12:42:21	584149	5.0.10.0	5_exp_RW	9	Rpleas_acq	CS_B	MQQM	VKKV	YDDY	BZZB	JXXJ	GWWG	treu	spielen	retten	fair	ehrlich	schön	tot	strafen	rächen	faul	eitel	schlecht	1	acq_USpleas_CSpleas2_RW	acq4567_RW	5	54	400	1	300	300	443	50	0	1	1	blank2r.bmp	0	1	+	0	1	blank2r.bmp	492	1	VKKV	492	1	blank2r.bmp	572	2	ehrlich	866	1	!	1239	1	!	1346	0	0	0	0	0	0	0	0	0	0	0	0	0	0	0	0	0	0	0	0	0	0	0	0	0	0	0	0	0	0
070319	12:32:36	12:42:23	586242	5.0.10.0	5_exp_RW	9	Rpleas_acq	CS_B	MQQM	VKKV	YDDY	BZZB	JXXJ	GWWG	treu	spielen	retten	fair	ehrlich	schön	tot	strafen	rächen	faul	eitel	schlecht	1	acq_USpleas_CSpleas1_RW	acq4567_RW	5	55	400	0	300	300	322	50	0	1	1	blank2r.bmp	0	1	+	0	1	blank2r.bmp	492	1	MQQM	492	1	blank2r.bmp	572	1	treu	866	1	!	-1	1	!	-1	0	0	0	0	0	0	0	0	0	0	0	0	0	0	0	0	0	0	0	0	0	0	0	0	0	0	0	0	0	0
070319	12:32:36	12:42:25	588467	5.0.10.0	5_exp_RW	9	Rpleas_acq	CS_B	MQQM	VKKV	YDDY	BZZB	JXXJ	GWWG	treu	spielen	retten	fair	ehrlich	schön	tot	strafen	rächen	faul	eitel	schlecht	1	acq_USunple_CSunple1_RW	acq4567_RW	5	56	400	1	300	300	416	46	0	1	1	blank2r.bmp	0	1	+	0	1	blank2r.bmp	492	1	YDDY	492	1	blank2r.bmp	572	2	strafen	866	1	!	1239	1	!	1319	0	0	0	0	0	0	0	0	0	0	0	0	0	0	0	0	0	0	0	0	0	0	0	0	0	0	0	0	0	0
070319	12:32:36	12:42:27	590760	5.0.10.0	5_exp_RW	9	Rpleas_acq	CS_B	MQQM	VKKV	YDDY	BZZB	JXXJ	GWWG	treu	spielen	retten	fair	ehrlich	schön	tot	strafen	rächen	faul	eitel	schlecht	1	acq_USunple_CSunple2_RW	acq4567_RW	5	57	400	0	300	300	525	46	0	1	1	blank2r.bmp	0	1	+	0	1	blank2r.bmp	492	1	BZZB	492	1	blank2r.bmp	572	2	eitel	866	1	!	1239	1	!	-1	0	0	0	0	0	0	0	0	0	0	0	0	0	0	0	0	0	0	0	0	0	0	0	0	0	0	0	0	0	0
070319	12:32:36	12:42:29	592919	5.0.10.0	5_exp_RW	9	Rpleas_acq	CS_B	MQQM	VKKV	YDDY	BZZB	JXXJ	GWWG	treu	spielen	retten	fair	ehrlich	schön	tot	strafen	rächen	faul	eitel	schlecht	1	acq_USpleas_CSpleas2_RW	acq4567_RW	5	58	400	1	300	300	346	50	0	1	1	blank2r.bmp	0	1	+	0	1	blank2r.bmp	492	1	VKKV	492	1	blank2r.bmp	572	3	schön	866	1	!	1239	1	!	1252	0	0	0	0	0	0	0	0	0	0	0	0	0	0	0	0	0	0	0	0	0	0	0	0	0	0	0	0	0	0
070319	12:32:36	12:42:32	595105	5.0.10.0	5_exp_RW	9	Rpleas_acq	CS_B	MQQM	VKKV	YDDY	BZZB	JXXJ	GWWG	treu	spielen	retten	fair	ehrlich	schön	tot	strafen	rächen	faul	eitel	schlecht	1	acq_USunple_CSunple1_RW	acq4567_RW	5	59	400	1	300	300	380	46	0	1	1	blank2r.bmp	0	1	+	0	1	blank2r.bmp	492	1	YDDY	492	1	blank2r.bmp	572	1	tot	866	1	!	1239	1	!	1279	0	0	0	0	0	0	0	0	0	0	0	0	0	0	0	0	0	0	0	0	0	0	0	0	0	0	0	0	0	0
070319	12:32:36	12:42:34	597184	5.0.10.0	5_exp_RW	9	Rpleas_acq	CS_B	MQQM	VKKV	YDDY	BZZB	JXXJ	GWWG	treu	spielen	retten	fair	ehrlich	schön	tot	strafen	rächen	faul	eitel	schlecht	1	acq_USunple_CSunple2_RW	acq4567_RW	5	60	400	0	300	300	313	46	0	1	1	blank2r.bmp	0	1	+	0	1	blank2r.bmp	492	1	BZZB	492	1	blank2r.bmp	572	1	faul	866	1	!	-1	1	!	-1	0	0	0	0	0	0	0	0	0	0	0	0	0	0	0	0	0	0	0	0	0	0	0	0	0	0	0	0	0	0
070319	12:32:36	12:42:36	599410	5.0.10.0	5_exp_RW	9	Rpleas_acq	CS_B	MQQM	VKKV	YDDY	BZZB	JXXJ	GWWG	treu	spielen	retten	fair	ehrlich	schön	tot	strafen	rächen	faul	eitel	schlecht	1	acq_USunple_CSunple2_RW	acq4567_RW	5	61	400	1	300	300	424	46	0	1	1	blank2r.bmp	0	1	+	0	1	blank2r.bmp	492	1	BZZB	492	1	blank2r.bmp	572	2	eitel	866	1	!	1239	1	!	1319	0	0	0	0	0	0	0	0	0	0	0	0	0	0	0	0	0	0	0	0	0	0	0	0	0	0	0	0	0	0
070319	12:32:36	12:42:38	601649	5.0.10.0	5_exp_RW	9	Rpleas_acq	CS_B	MQQM	VKKV	YDDY	BZZB	JXXJ	GWWG	treu	spielen	retten	fair	ehrlich	schön	tot	strafen	rächen	faul	eitel	schlecht	1	acq_USpleas_CSpleas2_RW	acq4567_RW	5	62	400	1	300	300	427	50	0	1	1	blank2r.bmp	0	1	+	0	1	blank2r.bmp	492	1	VKKV	492	1	blank2r.bmp	572	2	ehrlich	866	1	!	1239	1	!	1332	0	0	0	0	0	0	0	0	0	0	0	0	0	0	0	0	0	0	0	0	0	0	0	0	0	0	0	0	0	0
070319	12:32:36	12:42:40	603808	5.0.10.0	5_exp_RW	9	Rpleas_acq	CS_B	MQQM	VKKV	YDDY	BZZB	JXXJ	GWWG	treu	spielen	retten	fair	ehrlich	schön	tot	strafen	rächen	faul	eitel	schlecht	1	acq_USunple_CSunple1_RW	acq4567_RW	5	63	400	1	300	300	368	46	0	1	1	blank2r.bmp	0	1	+	0	1	blank2r.bmp	492	1	YDDY	492	1	blank2r.bmp	572	2	strafen	866	1	!	1239	1	!	1266	0	0	0	0	0	0	0	0	0	0	0	0	0	0	0	0	0	0	0	0	0	0	0	0	0	0	0	0	0	0
070319	12:32:36	12:42:42	605887	5.0.10.0	5_exp_RW	9	Rpleas_acq	CS_B	MQQM	VKKV	YDDY	BZZB	JXXJ	GWWG	treu	spielen	retten	fair	ehrlich	schön	tot	strafen	rächen	faul	eitel	schlecht	1	acq_USpleas_CSpleas2_RW	acq4567_RW	5	64	400	0	300	300	302	50	0	1	1	blank2r.bmp	0	1	+	0	1	blank2r.bmp	492	1	VKKV	492	1	blank2r.bmp	572	3	schön	866	1	!	-1	1	!	-1	0	0	0	0	0	0	0	0	0	0	0	0	0	0	0	0	0	0	0	0	0	0	0	0	0	0	0	0	0	0
070319	12:32:36	12:42:48	611605	5.0.10.0	5_exp_RW	9	Rpleas_acq	CS_B	MQQM	VKKV	YDDY	BZZB	JXXJ	GWWG	treu	spielen	retten	fair	ehrlich	schön	tot	strafen	rächen	faul	eitel	schlecht	1	acq_USpleas_CSpleas1_RW	acq4567_RW	5	65	400	0	300	300	3932	50	0	1	1	blank2r.bmp	0	1	+	0	1	blank2r.bmp	492	1	MQQM	492	1	blank2r.bmp	572	1	treu	866	1	!	1239	1	!	-1	0	0	0	0	0	0	0	0	0	0	0	0	0	0	0	0	0	0	0	0	0	0	0	0	0	0	0	0	0	0
070319	12:32:36	12:42:50	614004	5.0.10.0	5_exp_RW	9	Rpleas_acq	CS_B	MQQM	VKKV	YDDY	BZZB	JXXJ	GWWG	treu	spielen	retten	fair	ehrlich	schön	tot	strafen	rächen	faul	eitel	schlecht	1	acq_USpleas_CSpleas1_RW	acq4567_RW	5	66	400	0	300	300	619	50	0	1	1	blank2r.bmp	0	1	+	0	1	blank2r.bmp	492	1	MQQM	492	1	blank2r.bmp	572	2	spielen	866	1	!	1239	1	!	-1	0	0	0	0	0	0	0	0	0	0	0	0	0	0	0	0	0	0	0	0	0	0	0	0	0	0	0	0	0	0
070319	12:32:36	12:42:53	616256	5.0.10.0	5_exp_RW	9	Rpleas_acq	CS_B	MQQM	VKKV	YDDY	BZZB	JXXJ	GWWG	treu	spielen	retten	fair	ehrlich	schön	tot	strafen	rächen	faul	eitel	schlecht	1	acq_USpleas_CSpleas1_RW	acq4567_RW	5	67	400	1	300	300	451	50	0	1	1	blank2r.bmp	0	1	+	0	1	blank2r.bmp	492	1	MQQM	492	1	blank2r.bmp	572	3	retten	866	1	!	1239	1	!	1346	0	0	0	0	0	0	0	0	0	0	0	0	0	0	0	0	0	0	0	0	0	0	0	0	0	0	0	0	0	0
070319	12:32:36	12:42:56	619708	5.0.10.0	5_exp_RW	9	Rpleas_acq	CS_B	MQQM	VKKV	YDDY	BZZB	JXXJ	GWWG	treu	spielen	retten	fair	ehrlich	schön	tot	strafen	rächen	faul	eitel	schlecht	1	acq_USunple_CSunple1_RW	acq4567_RW	5	68	400	0	300	300	1668	46	0	1	1	blank2r.bmp	0	1	+	0	1	blank2r.bmp	492	1	YDDY	492	1	blank2r.bmp	572	1	tot	866	1	!	1239	1	!	-1	0	0	0	0	0	0	0	0	0	0	0	0	0	0	0	0	0	0	0	0	0	0	0	0	0	0	0	0	0	0
070319	12:32:36	12:42:58	621947	5.0.10.0	5_exp_RW	9	Rpleas_acq	CS_B	MQQM	VKKV	YDDY	BZZB	JXXJ	GWWG	treu	spielen	retten	fair	ehrlich	schön	tot	strafen	rächen	faul	eitel	schlecht	1	acq_USunple_CSunple2_RW	acq4567_RW	5	69	400	1	300	300	429	46	0	1	1	blank2r.bmp	0	1	+	0	1	blank2r.bmp	492	1	BZZB	492	1	blank2r.bmp	572	3	schlecht	866	1	!	1239	1	!	1332	0	0	0	0	0	0	0	0	0	0	0	0	0	0	0	0	0	0	0	0	0	0	0	0	0	0	0	0	0	0
070319	12:32:36	12:43:01	624093	5.0.10.0	5_exp_RW	9	Rpleas_acq	CS_B	MQQM	VKKV	YDDY	BZZB	JXXJ	GWWG	treu	spielen	retten	fair	ehrlich	schön	tot	strafen	rächen	faul	eitel	schlecht	1	acq_USunple_CSunple2_RW	acq4567_RW	5	70	400	1	300	300	346	46	0	1	1	blank2r.bmp	0	1	+	0	1	blank2r.bmp	492	1	BZZB	492	1	blank2r.bmp	572	1	faul	866	1	!	1239	1	!	1252	0	0	0	0	0	0	0	0	0	0	0	0	0	0	0	0	0	0	0	0	0	0	0	0	0	0	0	0	0	0
070319	12:32:36	12:43:03	626239	5.0.10.0	5_exp_RW	9	Rpleas_acq	CS_B	MQQM	VKKV	YDDY	BZZB	JXXJ	GWWG	treu	spielen	retten	fair	ehrlich	schön	tot	strafen	rächen	faul	eitel	schlecht	1	acq_USpleas_CSpleas1_RW	acq4567_RW	5	71	400	1	300	300	356	50	0	1	1	blank2r.bmp	0	1	+	0	1	blank2r.bmp	492	1	MQQM	492	1	blank2r.bmp	572	2	spielen	866	1	!	1239	1	!	1252	0	0	0	0	0	0	0	0	0	0	0	0	0	0	0	0	0	0	0	0	0	0	0	0	0	0	0	0	0	0
070319	12:32:36	12:43:05	628411	5.0.10.0	5_exp_RW	9	Rpleas_acq	CS_B	MQQM	VKKV	YDDY	BZZB	JXXJ	GWWG	treu	spielen	retten	fair	ehrlich	schön	tot	strafen	rächen	faul	eitel	schlecht	1	acq_USunple_CSunple2_RW	acq4567_RW	5	72	400	1	300	300	378	46	0	1	1	blank2r.bmp	0	1	+	0	1	blank2r.bmp	492	1	BZZB	492	1	blank2r.bmp	572	3	schlecht	866	1	!	1239	1	!	1279	0	0	0	0	0	0	0	0	0	0	0	0	0	0	0	0	0	0	0	0	0	0	0	0	0	0	0	0	0	0
070319	12:32:36	12:43:07	630650	5.0.10.0	5_exp_RW	9	Rpleas_acq	CS_B	MQQM	VKKV	YDDY	BZZB	JXXJ	GWWG	treu	spielen	retten	fair	ehrlich	schön	tot	strafen	rächen	faul	eitel	schlecht	1	acq_USpleas_CSpleas1_RW	acq4567_RW	5	73	400	1	300	300	439	50	0	1	1	blank2r.bmp	0	1	+	0	1	blank2r.bmp	492	1	MQQM	492	1	blank2r.bmp	572	3	retten	866	1	!	1239	1	!	1346	0	0	0	0	0	0	0	0	0	0	0	0	0	0	0	0	0	0	0	0	0	0	0	0	0	0	0	0	0	0
070319	12:32:36	12:43:09	632876	5.0.10.0	5_exp_RW	9	Rpleas_acq	CS_B	MQQM	VKKV	YDDY	BZZB	JXXJ	GWWG	treu	spielen	retten	fair	ehrlich	schön	tot	strafen	rächen	faul	eitel	schlecht	1	acq_USunple_CSunple1_RW	acq4567_RW	5	74	400	1	300	300	436	46	0	1	1	blank2r.bmp	0	1	+	0	1	blank2r.bmp	492	1	YDDY	492	1	blank2r.bmp	572	3	rächen	866	1	!	1239	1	!	1332	0	0	0	0	0	0	0	0	0	0	0	0	0	0	0	0	0	0	0	0	0	0	0	0	0	0	0	0	0	0
070319	12:32:36	12:43:12	635102	5.0.10.0	5_exp_RW	9	Rpleas_acq	CS_B	MQQM	VKKV	YDDY	BZZB	JXXJ	GWWG	treu	spielen	retten	fair	ehrlich	schön	tot	strafen	rächen	faul	eitel	schlecht	1	acq_USpleas_CSpleas2_RW	acq4567_RW	5	75	400	1	300	300	436	50	0	1	1	blank2r.bmp	0	1	+	0	1	blank2r.bmp	492	1	VKKV	492	1	blank2r.bmp	572	1	fair	866	1	!	1239	1	!	1332	0	0	0	0	0	0	0	0	0	0	0	0	0	0	0	0	0	0	0	0	0	0	0	0	0	0	0	0	0	0
070319	12:32:36	12:43:14	637448	5.0.10.0	5_exp_RW	9	Rpleas_acq	CS_B	MQQM	VKKV	YDDY	BZZB	JXXJ	GWWG	treu	spielen	retten	fair	ehrlich	schön	tot	strafen	rächen	faul	eitel	schlecht	1	acq_USunple_CSunple2_RW	acq4567_RW	5	76	400	0	300	300	562	46	0	1	1	blank2r.bmp	0	1	+	0	1	blank2r.bmp	492	1	BZZB	492	1	blank2r.bmp	572	2	eitel	866	1	!	1239	1	!	-1	0	0	0	0	0	0	0	0	0	0	0	0	0	0	0	0	0	0	0	0	0	0	0	0	0	0	0	0	0	0
070319	12:32:36	12:43:16	639540	5.0.10.0	5_exp_RW	9	Rpleas_acq	CS_B	MQQM	VKKV	YDDY	BZZB	JXXJ	GWWG	treu	spielen	retten	fair	ehrlich	schön	tot	strafen	rächen	faul	eitel	schlecht	1	acq_USpleas_CSpleas2_RW	acq4567_RW	5	77	400	0	300	300	307	50	0	1	1	blank2r.bmp	0	1	+	0	1	blank2r.bmp	492	1	VKKV	492	1	blank2r.bmp	572	1	fair	866	1	!	-1	1	!	-1	0	0	0	0	0	0	0	0	0	0	0	0	0	0	0	0	0	0	0	0	0	0	0	0	0	0	0	0	0	0
070319	12:32:36	12:43:18	641633	5.0.10.0	5_exp_RW	9	Rpleas_acq	CS_B	MQQM	VKKV	YDDY	BZZB	JXXJ	GWWG	treu	spielen	retten	fair	ehrlich	schön	tot	strafen	rächen	faul	eitel	schlecht	1	acq_USunple_CSunple1_RW	acq4567_RW	5	78	400	0	300	300	309	46	0	1	1	blank2r.bmp	0	1	+	0	1	blank2r.bmp	492	1	YDDY	492	1	blank2r.bmp	572	2	strafen	866	1	!	-1	1	!	-1	0	0	0	0	0	0	0	0	0	0	0	0	0	0	0	0	0	0	0	0	0	0	0	0	0	0	0	0	0	0
070319	12:32:36	12:43:20	643898	5.0.10.0	5_exp_RW	9	Rpleas_acq	CS_B	MQQM	VKKV	YDDY	BZZB	JXXJ	GWWG	treu	spielen	retten	fair	ehrlich	schön	tot	strafen	rächen	faul	eitel	schlecht	1	acq_USpleas_CSpleas2_RW	acq4567_RW	5	79	400	0	300	300	487	50	0	1	1	blank2r.bmp	0	1	+	0	1	blank2r.bmp	492	1	VKKV	492	1	blank2r.bmp	572	2	ehrlich	866	1	!	1239	1	!	-1	0	0	0	0	0	0	0	0	0	0	0	0	0	0	0	0	0	0	0	0	0	0	0	0	0	0	0	0	0	0
070319	12:32:36	12:43:22	646057	5.0.10.0	5_exp_RW	9	Rpleas_acq	CS_B	MQQM	VKKV	YDDY	BZZB	JXXJ	GWWG	treu	spielen	retten	fair	ehrlich	schön	tot	strafen	rächen	faul	eitel	schlecht	1	acq_USunple_CSunple1_RW	acq4567_RW	5	80	400	1	300	300	346	46	0	1	1	blank2r.bmp	0	1	+	0	1	blank2r.bmp	492	1	YDDY	492	1	blank2r.bmp	572	3	rächen	866	1	!	1239	1	!	1252	0	0	0	0	0	0	0	0	0	0	0	0	0	0	0	0	0	0	0	0	0	0	0	0	0	0	0	0	0	0
070319	12:32:36	12:43:39	663064	5.0.10.0	5_exp_RW	9	Rpleas_acq	CS_B	MQQM	VKKV	YDDY	BZZB	JXXJ	GWWG	treu	spielen	retten	fair	ehrlich	schön	tot	strafen	rächen	faul	eitel	schlecht	1	acq_USpleas_CSpleas2_RW	acq4567_RW	6	1	400	0	300	300	311	50	0	1	1	blank2r.bmp	0	1	+	0	1	blank2r.bmp	492	1	VKKV	492	1	blank2r.bmp	572	3	schön	866	1	!	-1	1	!	-1	0	0	0	0	0	0	0	0	0	0	0	0	0	0	0	0	0	0	0	0	0	0	0	0	0	0	0	0	0	0
070319	12:32:36	12:43:42	665330	5.0.10.0	5_exp_RW	9	Rpleas_acq	CS_B	MQQM	VKKV	YDDY	BZZB	JXXJ	GWWG	treu	spielen	retten	fair	ehrlich	schön	tot	strafen	rächen	faul	eitel	schlecht	1	acq_USpleas_CSpleas2_RW	acq4567_RW	6	2	400	1	300	300	455	50	0	1	1	blank2r.bmp	0	1	+	0	1	blank2r.bmp	492	1	VKKV	492	1	blank2r.bmp	572	1	fair	866	1	!	1239	1	!	1359	0	0	0	0	0	0	0	0	0	0	0	0	0	0	0	0	0	0	0	0	0	0	0	0	0	0	0	0	0	0
070319	12:32:36	12:43:44	667422	5.0.10.0	5_exp_RW	9	Rpleas_acq	CS_B	MQQM	VKKV	YDDY	BZZB	JXXJ	GWWG	treu	spielen	retten	fair	ehrlich	schön	tot	strafen	rächen	faul	eitel	schlecht	1	acq_USunple_CSunple1_RW	acq4567_RW	6	3	400	0	300	300	327	46	0	1	1	blank2r.bmp	0	1	+	0	1	blank2r.bmp	492	1	YDDY	492	1	blank2r.bmp	572	1	tot	866	1	!	-1	1	!	-1	0	0	0	0	0	0	0	0	0	0	0	0	0	0	0	0	0	0	0	0	0	0	0	0	0	0	0	0	0	0
070319	12:32:36	12:43:46	669661	5.0.10.0	5_exp_RW	9	Rpleas_acq	CS_B	MQQM	VKKV	YDDY	BZZB	JXXJ	GWWG	treu	spielen	retten	fair	ehrlich	schön	tot	strafen	rächen	faul	eitel	schlecht	1	acq_USunple_CSunple2_RW	acq4567_RW	6	4	400	1	300	300	428	46	0	1	1	blank2r.bmp	0	1	+	0	1	blank2r.bmp	492	1	BZZB	492	1	blank2r.bmp	572	1	faul	866	1	!	1239	1	!	1332	0	0	0	0	0	0	0	0	0	0	0	0	0	0	0	0	0	0	0	0	0	0	0	0	0	0	0	0	0	0
070319	12:32:36	12:43:48	671727	5.0.10.0	5_exp_RW	9	Rpleas_acq	CS_B	MQQM	VKKV	YDDY	BZZB	JXXJ	GWWG	treu	spielen	retten	fair	ehrlich	schön	tot	strafen	rächen	faul	eitel	schlecht	1	acq_USunple_CSunple2_RW	acq4567_RW	6	5	400	0	300	300	305	46	0	1	1	blank2r.bmp	0	1	+	0	1	blank2r.bmp	492	1	BZZB	492	1	blank2r.bmp	572	1	faul	866	1	!	-1	1	!	-1	0	0	0	0	0	0	0	0	0	0	0	0	0	0	0	0	0	0	0	0	0	0	0	0	0	0	0	0	0	0
070319	12:32:36	12:43:50	673993	5.0.10.0	5_exp_RW	9	Rpleas_acq	CS_B	MQQM	VKKV	YDDY	BZZB	JXXJ	GWWG	treu	spielen	retten	fair	ehrlich	schön	tot	strafen	rächen	faul	eitel	schlecht	1	acq_USunple_CSunple2_RW	acq4567_RW	6	6	400	0	300	300	479	46	0	1	1	blank2r.bmp	0	1	+	0	1	blank2r.bmp	492	1	BZZB	492	1	blank2r.bmp	572	3	schlecht	866	1	!	1239	1	!	-1	0	0	0	0	0	0	0	0	0	0	0	0	0	0	0	0	0	0	0	0	0	0	0	0	0	0	0	0	0	0
070319	12:32:36	12:43:53	676285	5.0.10.0	5_exp_RW	9	Rpleas_acq	CS_B	MQQM	VKKV	YDDY	BZZB	JXXJ	GWWG	treu	spielen	retten	fair	ehrlich	schön	tot	strafen	rächen	faul	eitel	schlecht	1	acq_USpleas_CSpleas1_RW	acq4567_RW	6	7	400	0	300	300	516	50	0	1	1	blank2r.bmp	0	1	+	0	1	blank2r.bmp	492	1	MQQM	492	1	blank2r.bmp	572	1	treu	866	1	!	1239	1	!	-1	0	0	0	0	0	0	0	0	0	0	0	0	0	0	0	0	0	0	0	0	0	0	0	0	0	0	0	0	0	0
070319	12:32:36	12:43:55	678378	5.0.10.0	5_exp_RW	9	Rpleas_acq	CS_B	MQQM	VKKV	YDDY	BZZB	JXXJ	GWWG	treu	spielen	retten	fair	ehrlich	schön	tot	strafen	rächen	faul	eitel	schlecht	1	acq_USunple_CSunple2_RW	acq4567_RW	6	8	400	0	300	300	306	50	0	0	1	blank2r.bmp	0	1	+	0	1	blank2r.bmp	492	1	BZZB	492	1	blank2r.bmp	572	2	eitel	866	1	!	-1	1	!	-1	0	0	0	0	0	0	0	0	0	0	0	0	0	0	0	0	0	0	0	0	0	0	0	0	0	0	0	0	0	0
070319	12:32:36	12:43:57	680723	5.0.10.0	5_exp_RW	9	Rpleas_acq	CS_B	MQQM	VKKV	YDDY	BZZB	JXXJ	GWWG	treu	spielen	retten	fair	ehrlich	schön	tot	strafen	rächen	faul	eitel	schlecht	1	acq_USunple_CSunple2_RW	acq4567_RW	6	9	400	0	300	300	545	46	0	1	1	blank2r.bmp	0	1	+	0	1	blank2r.bmp	492	1	BZZB	492	1	blank2r.bmp	572	2	eitel	866	1	!	1239	1	!	-1	0	0	0	0	0	0	0	0	0	0	0	0	0	0	0	0	0	0	0	0	0	0	0	0	0	0	0	0	0	0
070319	12:32:36	12:43:59	682909	5.0.10.0	5_exp_RW	9	Rpleas_acq	CS_B	MQQM	VKKV	YDDY	BZZB	JXXJ	GWWG	treu	spielen	retten	fair	ehrlich	schön	tot	strafen	rächen	faul	eitel	schlecht	1	acq_USpleas_CSpleas1_RW	acq4567_RW	6	10	400	1	300	300	384	50	0	1	1	blank2r.bmp	0	1	+	0	1	blank2r.bmp	492	1	MQQM	492	1	blank2r.bmp	572	2	spielen	866	1	!	1239	1	!	1279	0	0	0	0	0	0	0	0	0	0	0	0	0	0	0	0	0	0	0	0	0	0	0	0	0	0	0	0	0	0
070319	12:32:36	12:44:01	685068	5.0.10.0	5_exp_RW	9	Rpleas_acq	CS_B	MQQM	VKKV	YDDY	BZZB	JXXJ	GWWG	treu	spielen	retten	fair	ehrlich	schön	tot	strafen	rächen	faul	eitel	schlecht	1	acq_USpleas_CSpleas2_RW	acq4567_RW	6	11	400	1	300	300	370	50	0	1	1	blank2r.bmp	0	1	+	0	1	blank2r.bmp	492	1	VKKV	492	1	blank2r.bmp	572	3	schön	866	1	!	1239	1	!	1266	0	0	0	0	0	0	0	0	0	0	0	0	0	0	0	0	0	0	0	0	0	0	0	0	0	0	0	0	0	0
070319	12:32:36	12:44:04	687307	5.0.10.0	5_exp_RW	9	Rpleas_acq	CS_B	MQQM	VKKV	YDDY	BZZB	JXXJ	GWWG	treu	spielen	retten	fair	ehrlich	schön	tot	strafen	rächen	faul	eitel	schlecht	1	acq_USpleas_CSpleas1_RW	acq4567_RW	6	12	400	1	300	300	425	50	0	1	1	blank2r.bmp	0	1	+	0	1	blank2r.bmp	492	1	MQQM	492	1	blank2r.bmp	572	1	treu	866	1	!	1239	1	!	1332	0	0	0	0	0	0	0	0	0	0	0	0	0	0	0	0	0	0	0	0	0	0	0	0	0	0	0	0	0	0
070319	12:32:36	12:44:06	689453	5.0.10.0	5_exp_RW	9	Rpleas_acq	CS_B	MQQM	VKKV	YDDY	BZZB	JXXJ	GWWG	treu	spielen	retten	fair	ehrlich	schön	tot	strafen	rächen	faul	eitel	schlecht	1	acq_USpleas_CSpleas2_RW	acq4567_RW	6	13	400	1	300	300	351	50	0	1	1	blank2r.bmp	0	1	+	0	1	blank2r.bmp	492	1	VKKV	492	1	blank2r.bmp	572	2	ehrlich	866	1	!	1239	1	!	1252	0	0	0	0	0	0	0	0	0	0	0	0	0	0	0	0	0	0	0	0	0	0	0	0	0	0	0	0	0	0
070319	12:32:36	12:44:08	691546	5.0.10.0	5_exp_RW	9	Rpleas_acq	CS_B	MQQM	VKKV	YDDY	BZZB	JXXJ	GWWG	treu	spielen	retten	fair	ehrlich	schön	tot	strafen	rächen	faul	eitel	schlecht	1	acq_USunple_CSunple1_RW	acq4567_RW	6	14	400	0	300	300	327	46	0	1	1	blank2r.bmp	0	1	+	0	1	blank2r.bmp	492	1	YDDY	492	1	blank2r.bmp	572	1	tot	866	1	!	-1	1	!	-1	0	0	0	0	0	0	0	0	0	0	0	0	0	0	0	0	0	0	0	0	0	0	0	0	0	0	0	0	0	0
070319	12:32:36	12:44:10	693705	5.0.10.0	5_exp_RW	9	Rpleas_acq	CS_B	MQQM	VKKV	YDDY	BZZB	JXXJ	GWWG	treu	spielen	retten	fair	ehrlich	schön	tot	strafen	rächen	faul	eitel	schlecht	1	acq_USpleas_CSpleas2_RW	acq4567_RW	6	15	400	1	300	300	350	50	0	1	1	blank2r.bmp	0	1	+	0	1	blank2r.bmp	492	1	VKKV	492	1	blank2r.bmp	572	3	schön	866	1	!	1239	1	!	1252	0	0	0	0	0	0	0	0	0	0	0	0	0	0	0	0	0	0	0	0	0	0	0	0	0	0	0	0	0	0
070319	12:32:36	12:44:12	695944	5.0.10.0	5_exp_RW	9	Rpleas_acq	CS_B	MQQM	VKKV	YDDY	BZZB	JXXJ	GWWG	treu	spielen	retten	fair	ehrlich	schön	tot	strafen	rächen	faul	eitel	schlecht	1	acq_USpleas_CSpleas1_RW	acq4567_RW	6	16	400	1	300	300	444	50	0	1	1	blank2r.bmp	0	1	+	0	1	blank2r.bmp	492	1	MQQM	492	1	blank2r.bmp	572	3	retten	866	1	!	1239	1	!	1346	0	0	0	0	0	0	0	0	0	0	0	0	0	0	0	0	0	0	0	0	0	0	0	0	0	0	0	0	0	0
070319	12:32:36	12:44:15	698196	5.0.10.0	5_exp_RW	9	Rpleas_acq	CS_B	MQQM	VKKV	YDDY	BZZB	JXXJ	GWWG	treu	spielen	retten	fair	ehrlich	schön	tot	strafen	rächen	faul	eitel	schlecht	1	acq_USunple_CSunple1_RW	acq4567_RW	6	17	400	0	300	300	486	46	0	1	1	blank2r.bmp	0	1	+	0	1	blank2r.bmp	492	1	YDDY	492	1	blank2r.bmp	572	3	rächen	866	1	!	1239	1	!	-1	0	0	0	0	0	0	0	0	0	0	0	0	0	0	0	0	0	0	0	0	0	0	0	0	0	0	0	0	0	0
070319	12:32:36	12:44:17	700462	5.0.10.0	5_exp_RW	9	Rpleas_acq	CS_B	MQQM	VKKV	YDDY	BZZB	JXXJ	GWWG	treu	spielen	retten	fair	ehrlich	schön	tot	strafen	rächen	faul	eitel	schlecht	1	acq_USunple_CSunple1_RW	acq4567_RW	6	18	400	1	300	300	463	46	0	1	1	blank2r.bmp	0	1	+	0	1	blank2r.bmp	492	1	YDDY	492	1	blank2r.bmp	572	2	strafen	866	1	!	1239	1	!	1359	0	0	0	0	0	0	0	0	0	0	0	0	0	0	0	0	0	0	0	0	0	0	0	0	0	0	0	0	0	0
070319	12:32:36	12:44:19	702608	5.0.10.0	5_exp_RW	9	Rpleas_acq	CS_B	MQQM	VKKV	YDDY	BZZB	JXXJ	GWWG	treu	spielen	retten	fair	ehrlich	schön	tot	strafen	rächen	faul	eitel	schlecht	1	acq_USunple_CSunple1_RW	acq4567_RW	6	19	400	1	300	300	346	46	0	1	1	blank2r.bmp	0	1	+	0	1	blank2r.bmp	492	1	YDDY	492	1	blank2r.bmp	572	1	tot	866	1	!	1239	1	!	1252	0	0	0	0	0	0	0	0	0	0	0	0	0	0	0	0	0	0	0	0	0	0	0	0	0	0	0	0	0	0
070319	12:32:36	12:44:21	704834	5.0.10.0	5_exp_RW	9	Rpleas_acq	CS_B	MQQM	VKKV	YDDY	BZZB	JXXJ	GWWG	treu	spielen	retten	fair	ehrlich	schön	tot	strafen	rächen	faul	eitel	schlecht	1	acq_USpleas_CSpleas1_RW	acq4567_RW	6	20	400	1	300	300	429	50	0	1	1	blank2r.bmp	0	1	+	0	1	blank2r.bmp	492	1	MQQM	492	1	blank2r.bmp	572	3	retten	866	1	!	1239	1	!	1332	0	0	0	0	0	0	0	0	0	0	0	0	0	0	0	0	0	0	0	0	0	0	0	0	0	0	0	0	0	0
070319	12:32:36	12:44:23	707059	5.0.10.0	5_exp_RW	9	Rpleas_acq	CS_B	MQQM	VKKV	YDDY	BZZB	JXXJ	GWWG	treu	spielen	retten	fair	ehrlich	schön	tot	strafen	rächen	faul	eitel	schlecht	1	acq_USunple_CSunple2_RW	acq4567_RW	6	21	400	1	300	300	415	46	0	1	1	blank2r.bmp	0	1	+	0	1	blank2r.bmp	492	1	BZZB	492	1	blank2r.bmp	572	3	schlecht	866	1	!	1239	1	!	1319	0	0	0	0	0	0	0	0	0	0	0	0	0	0	0	0	0	0	0	0	0	0	0	0	0	0	0	0	0	0
