date	time	script.currenttime	script.elapsedtime	build	script.currentexpt	subject	expressions.LRpleas_acq	expressions.conditionCS_A	expressions.CSpleas_1	expressions.CSpleas_2	expressions.CSunple_1	expressions.CSunple_2	expressions.distractor_1	expressions.distractor_2	expressions.US_pleas1	expressions.US_pleas2	expressions.US_pleas3	expressions.US_pleas4	expressions.US_pleas5	expressions.US_pleas6	expressions.US_unple1	expressions.US_unple2	expressions.US_unple3	expressions.US_unple4	expressions.US_unple5	expressions.US_unple6	counter.positions_noRW	trialcode	blockcode	blocknum	trialnum	windowcenter	inwindow	pretrialpause	posttrialpause	latency	response	expressions.correctedscore	correct	stimulusnumber1	stimulusitem1	stimulusonset1	stimulusnumber2	stimulusitem2	stimulusonset2	stimulusnumber3	stimulusitem3	stimulusonset3	stimulusnumber4	stimulusitem4	stimulusonset4	stimulusnumber5	stimulusitem5	stimulusonset5	stimulusnumber6	stimulusitem6	stimulusonset6	stimulusnumber7	stimulusitem7	stimulusonset7	stimulusnumber8	stimulusitem8	stimulusonset8	stimulusnumber9	stimulusitem9	stimulusonset9	stimulusnumber10	stimulusitem10	stimulusonset10	stimulusnumber11	stimulusitem11	stimulusonset11	stimulusnumber12	stimulusitem12	stimulusonset12	stimulusnumber13	stimulusitem13	stimulusonset13	stimulusnumber14	stimulusitem14	stimulusonset14	stimulusnumber15	stimulusitem15	stimulusonset15	stimulusnumber16	stimulusitem16	stimulusonset16	stimulusnumber17	stimulusitem17	stimulusonset17	stimulusnumber18	stimulusitem18	stimulusonset18
071619	15:16:30	15:18:14	103743	5.0.10.0	5_exp_RW	57	Rpleas_acq	CS_B	GWWG	BZZB	VKKV	JXXJ	MQQM	YDDY	treu	retten	fair	spielen	ehrlich	schön	tot	rächen	faul	strafen	eitel	schlecht	1	acq_USpleas_CSpleas1_RW	acq1_RW	1	1	0	0	300	300	2199	50	0	1	1	blank2r.bmp	0	1	+	0	1	blank2r.bmp	492	1	GWWG	492	1	blank2r.bmp	572	1	treu	866	0	0	0	0	0	0	0	0	0	0	0	0	0	0	0	0	0	0	0	0	0	0	0	0	0	0	0	0	0	0	0	0	0	0	0	0
071619	15:16:30	15:18:17	106915	5.0.10.0	5_exp_RW	57	Rpleas_acq	CS_B	GWWG	BZZB	VKKV	JXXJ	MQQM	YDDY	treu	retten	fair	spielen	ehrlich	schön	tot	rächen	faul	strafen	eitel	schlecht	1	acq_USunple_CSunple2_RW	acq1_RW	1	2	0	0	300	300	1680	46	0	1	1	blank2r.bmp	0	1	+	0	1	blank2r.bmp	492	1	JXXJ	492	1	blank2r.bmp	572	3	schlecht	866	0	0	0	0	0	0	0	0	0	0	0	0	0	0	0	0	0	0	0	0	0	0	0	0	0	0	0	0	0	0	0	0	0	0	0	0
071619	15:16:30	15:18:20	109288	5.0.10.0	5_exp_RW	57	Rpleas_acq	CS_B	GWWG	BZZB	VKKV	JXXJ	MQQM	YDDY	treu	retten	fair	spielen	ehrlich	schön	tot	rächen	faul	strafen	eitel	schlecht	1	acq_USpleas_CSpleas1_RW	acq1_RW	1	3	0	0	300	300	896	50	0	1	1	blank2r.bmp	0	1	+	0	1	blank2r.bmp	492	1	GWWG	492	1	blank2r.bmp	572	2	retten	866	0	0	0	0	0	0	0	0	0	0	0	0	0	0	0	0	0	0	0	0	0	0	0	0	0	0	0	0	0	0	0	0	0	0	0	0
071619	15:16:30	15:18:22	111713	5.0.10.0	5_exp_RW	57	Rpleas_acq	CS_B	GWWG	BZZB	VKKV	JXXJ	MQQM	YDDY	treu	retten	fair	spielen	ehrlich	schön	tot	rächen	faul	strafen	eitel	schlecht	1	acq_USunple_CSunple1_RW	acq1_RW	1	4	0	0	300	300	950	46	0	1	1	blank2r.bmp	0	1	+	0	1	blank2r.bmp	492	1	VKKV	492	1	blank2r.bmp	572	3	faul	866	0	0	0	0	0	0	0	0	0	0	0	0	0	0	0	0	0	0	0	0	0	0	0	0	0	0	0	0	0	0	0	0	0	0	0	0
071619	15:16:30	15:18:26	115219	5.0.10.0	5_exp_RW	57	Rpleas_acq	CS_B	GWWG	BZZB	VKKV	JXXJ	MQQM	YDDY	treu	retten	fair	spielen	ehrlich	schön	tot	rächen	faul	strafen	eitel	schlecht	1	acq_USpleas_CSpleas2_RW	acq1_RW	1	5	0	0	300	300	2012	50	0	1	1	blank2r.bmp	0	1	+	0	1	blank2r.bmp	492	1	BZZB	492	1	blank2r.bmp	572	2	ehrlich	866	0	0	0	0	0	0	0	0	0	0	0	0	0	0	0	0	0	0	0	0	0	0	0	0	0	0	0	0	0	0	0	0	0	0	0	0
071619	15:16:30	15:18:29	118444	5.0.10.0	5_exp_RW	57	Rpleas_acq	CS_B	GWWG	BZZB	VKKV	JXXJ	MQQM	YDDY	treu	retten	fair	spielen	ehrlich	schön	tot	rächen	faul	strafen	eitel	schlecht	1	acq_USunple_CSunple1_RW	acq1_RW	1	6	0	0	300	300	1753	46	0	1	1	blank2r.bmp	0	1	+	0	1	blank2r.bmp	492	1	VKKV	492	1	blank2r.bmp	572	1	tot	866	0	0	0	0	0	0	0	0	0	0	0	0	0	0	0	0	0	0	0	0	0	0	0	0	0	0	0	0	0	0	0	0	0	0	0	0
071619	15:16:30	15:18:31	121016	5.0.10.0	5_exp_RW	57	Rpleas_acq	CS_B	GWWG	BZZB	VKKV	JXXJ	MQQM	YDDY	treu	retten	fair	spielen	ehrlich	schön	tot	rächen	faul	strafen	eitel	schlecht	1	acq_USunple_CSunple2_RW	acq1_RW	1	7	0	0	300	300	890	50	0	0	1	blank2r.bmp	0	1	+	0	1	blank2r.bmp	492	1	JXXJ	492	1	blank2r.bmp	572	2	eitel	866	1	FEHLER	1785	0	0	0	0	0	0	0	0	0	0	0	0	0	0	0	0	0	0	0	0	0	0	0	0	0	0	0	0	0	0	0	0	0
071619	15:16:30	15:18:34	123709	5.0.10.0	5_exp_RW	57	Rpleas_acq	CS_B	GWWG	BZZB	VKKV	JXXJ	MQQM	YDDY	treu	retten	fair	spielen	ehrlich	schön	tot	rächen	faul	strafen	eitel	schlecht	1	acq_USpleas_CSpleas2_RW	acq1_RW	1	8	0	0	300	300	1421	50	0	1	1	blank2r.bmp	0	1	+	0	1	blank2r.bmp	492	1	BZZB	492	1	blank2r.bmp	572	3	schön	866	0	0	0	0	0	0	0	0	0	0	0	0	0	0	0	0	0	0	0	0	0	0	0	0	0	0	0	0	0	0	0	0	0	0	0	0
071619	15:16:30	15:18:36	125934	5.0.10.0	5_exp_RW	57	Rpleas_acq	CS_B	GWWG	BZZB	VKKV	JXXJ	MQQM	YDDY	treu	retten	fair	spielen	ehrlich	schön	tot	rächen	faul	strafen	eitel	schlecht	1	acq_USpleas_CSpleas1_RW	acq1_RW	1	9	0	0	300	300	744	50	0	1	1	blank2r.bmp	0	1	+	0	1	blank2r.bmp	492	1	GWWG	492	1	blank2r.bmp	572	3	fair	866	0	0	0	0	0	0	0	0	0	0	0	0	0	0	0	0	0	0	0	0	0	0	0	0	0	0	0	0	0	0	0	0	0	0	0	0
071619	15:16:30	15:18:39	128667	5.0.10.0	5_exp_RW	57	Rpleas_acq	CS_B	GWWG	BZZB	VKKV	JXXJ	MQQM	YDDY	treu	retten	fair	spielen	ehrlich	schön	tot	rächen	faul	strafen	eitel	schlecht	1	acq_USunple_CSunple1_RW	acq1_RW	1	10	0	0	300	300	1247	46	0	1	1	blank2r.bmp	0	1	+	0	1	blank2r.bmp	492	1	VKKV	492	1	blank2r.bmp	572	2	rächen	866	0	0	0	0	0	0	0	0	0	0	0	0	0	0	0	0	0	0	0	0	0	0	0	0	0	0	0	0	0	0	0	0	0	0	0	0
071619	15:16:30	15:18:41	131052	5.0.10.0	5_exp_RW	57	Rpleas_acq	CS_B	GWWG	BZZB	VKKV	JXXJ	MQQM	YDDY	treu	retten	fair	spielen	ehrlich	schön	tot	rächen	faul	strafen	eitel	schlecht	1	acq_USpleas_CSpleas2_RW	acq1_RW	1	11	0	0	300	300	904	50	0	1	1	blank2r.bmp	0	1	+	0	1	blank2r.bmp	492	1	BZZB	492	1	blank2r.bmp	572	1	spielen	866	0	0	0	0	0	0	0	0	0	0	0	0	0	0	0	0	0	0	0	0	0	0	0	0	0	0	0	0	0	0	0	0	0	0	0	0
071619	15:16:30	15:18:44	133358	5.0.10.0	5_exp_RW	57	Rpleas_acq	CS_B	GWWG	BZZB	VKKV	JXXJ	MQQM	YDDY	treu	retten	fair	spielen	ehrlich	schön	tot	rächen	faul	strafen	eitel	schlecht	1	acq_USpleas_CSpleas2_RW	acq1_RW	1	12	0	0	300	300	821	50	0	1	1	blank2r.bmp	0	1	+	0	1	blank2r.bmp	492	1	BZZB	492	1	blank2r.bmp	572	3	schön	866	0	0	0	0	0	0	0	0	0	0	0	0	0	0	0	0	0	0	0	0	0	0	0	0	0	0	0	0	0	0	0	0	0	0	0	0
071619	15:16:30	15:18:46	135717	5.0.10.0	5_exp_RW	57	Rpleas_acq	CS_B	GWWG	BZZB	VKKV	JXXJ	MQQM	YDDY	treu	retten	fair	spielen	ehrlich	schön	tot	rächen	faul	strafen	eitel	schlecht	1	acq_USunple_CSunple1_RW	acq1_RW	1	13	0	0	300	300	871	46	0	1	1	blank2r.bmp	0	1	+	0	1	blank2r.bmp	492	1	VKKV	492	1	blank2r.bmp	572	2	rächen	866	0	0	0	0	0	0	0	0	0	0	0	0	0	0	0	0	0	0	0	0	0	0	0	0	0	0	0	0	0	0	0	0	0	0	0	0
071619	15:16:30	15:18:48	137996	5.0.10.0	5_exp_RW	57	Rpleas_acq	CS_B	GWWG	BZZB	VKKV	JXXJ	MQQM	YDDY	treu	retten	fair	spielen	ehrlich	schön	tot	rächen	faul	strafen	eitel	schlecht	1	acq_USpleas_CSpleas1_RW	acq1_RW	1	14	0	0	300	300	793	50	0	1	1	blank2r.bmp	0	1	+	0	1	blank2r.bmp	492	1	GWWG	492	1	blank2r.bmp	572	1	treu	866	0	0	0	0	0	0	0	0	0	0	0	0	0	0	0	0	0	0	0	0	0	0	0	0	0	0	0	0	0	0	0	0	0	0	0	0
071619	15:16:30	15:18:51	140502	5.0.10.0	5_exp_RW	57	Rpleas_acq	CS_B	GWWG	BZZB	VKKV	JXXJ	MQQM	YDDY	treu	retten	fair	spielen	ehrlich	schön	tot	rächen	faul	strafen	eitel	schlecht	1	acq_USunple_CSunple2_RW	acq1_RW	1	15	0	0	300	300	1013	46	0	1	1	blank2r.bmp	0	1	+	0	1	blank2r.bmp	492	1	JXXJ	492	1	blank2r.bmp	572	1	strafen	866	0	0	0	0	0	0	0	0	0	0	0	0	0	0	0	0	0	0	0	0	0	0	0	0	0	0	0	0	0	0	0	0	0	0	0	0
071619	15:16:30	15:18:54	143394	5.0.10.0	5_exp_RW	57	Rpleas_acq	CS_B	GWWG	BZZB	VKKV	JXXJ	MQQM	YDDY	treu	retten	fair	spielen	ehrlich	schön	tot	rächen	faul	strafen	eitel	schlecht	1	acq_USunple_CSunple2_RW	acq1_RW	1	16	0	0	300	300	1420	46	0	1	1	blank2r.bmp	0	1	+	0	1	blank2r.bmp	492	1	JXXJ	492	1	blank2r.bmp	572	3	schlecht	866	0	0	0	0	0	0	0	0	0	0	0	0	0	0	0	0	0	0	0	0	0	0	0	0	0	0	0	0	0	0	0	0	0	0	0	0
071619	15:16:30	15:19:29	179113	5.0.10.0	5_exp_RW	57	Rpleas_acq	CS_B	GWWG	BZZB	VKKV	JXXJ	MQQM	YDDY	treu	retten	fair	spielen	ehrlich	schön	tot	rächen	faul	strafen	eitel	schlecht	1	acq_USpleas_CSpleas1_RW	acq2_RW	2	1	480	0	300	300	1246	50	0	1	1	blank2r.bmp	0	1	+	0	1	blank2r.bmp	492	1	GWWG	492	1	blank2r.bmp	572	3	fair	866	1	!	1319	1	!	-1	0	0	0	0	0	0	0	0	0	0	0	0	0	0	0	0	0	0	0	0	0	0	0	0	0	0	0	0	0	0
071619	15:16:30	15:19:32	181858	5.0.10.0	5_exp_RW	57	Rpleas_acq	CS_B	GWWG	BZZB	VKKV	JXXJ	MQQM	YDDY	treu	retten	fair	spielen	ehrlich	schön	tot	rächen	faul	strafen	eitel	schlecht	1	acq_USunple_CSunple1_RW	acq2_RW	2	2	480	0	300	300	967	46	0	1	1	blank2r.bmp	0	1	+	0	1	blank2r.bmp	492	1	VKKV	492	1	blank2r.bmp	572	1	tot	866	1	!	1319	1	!	-1	0	0	0	0	0	0	0	0	0	0	0	0	0	0	0	0	0	0	0	0	0	0	0	0	0	0	0	0	0	0
071619	15:16:30	15:19:35	184377	5.0.10.0	5_exp_RW	57	Rpleas_acq	CS_B	GWWG	BZZB	VKKV	JXXJ	MQQM	YDDY	treu	retten	fair	spielen	ehrlich	schön	tot	rächen	faul	strafen	eitel	schlecht	1	acq_USpleas_CSpleas2_RW	acq2_RW	2	3	480	0	300	300	734	50	0	1	1	blank2r.bmp	0	1	+	0	1	blank2r.bmp	492	1	BZZB	492	1	blank2r.bmp	572	2	ehrlich	866	1	!	1319	1	!	-1	0	0	0	0	0	0	0	0	0	0	0	0	0	0	0	0	0	0	0	0	0	0	0	0	0	0	0	0	0	0
071619	15:16:30	15:19:37	186563	5.0.10.0	5_exp_RW	57	Rpleas_acq	CS_B	GWWG	BZZB	VKKV	JXXJ	MQQM	YDDY	treu	retten	fair	spielen	ehrlich	schön	tot	rächen	faul	strafen	eitel	schlecht	1	acq_USunple_CSunple2_RW	acq2_RW	2	4	480	0	300	300	398	46	0	1	1	blank2r.bmp	0	1	+	0	1	blank2r.bmp	492	1	JXXJ	492	1	blank2r.bmp	572	2	eitel	866	1	!	-1	1	!	-1	0	0	0	0	0	0	0	0	0	0	0	0	0	0	0	0	0	0	0	0	0	0	0	0	0	0	0	0	0	0
071619	15:16:30	15:19:39	188962	5.0.10.0	5_exp_RW	57	Rpleas_acq	CS_B	GWWG	BZZB	VKKV	JXXJ	MQQM	YDDY	treu	retten	fair	spielen	ehrlich	schön	tot	rächen	faul	strafen	eitel	schlecht	1	acq_USpleas_CSpleas1_RW	acq2_RW	2	5	480	0	300	300	617	50	0	1	1	blank2r.bmp	0	1	+	0	1	blank2r.bmp	492	1	GWWG	492	1	blank2r.bmp	572	2	retten	866	1	!	1319	1	!	-1	0	0	0	0	0	0	0	0	0	0	0	0	0	0	0	0	0	0	0	0	0	0	0	0	0	0	0	0	0	0
071619	15:16:30	15:19:42	191374	5.0.10.0	5_exp_RW	57	Rpleas_acq	CS_B	GWWG	BZZB	VKKV	JXXJ	MQQM	YDDY	treu	retten	fair	spielen	ehrlich	schön	tot	rächen	faul	strafen	eitel	schlecht	1	acq_USpleas_CSpleas2_RW	acq2_RW	2	6	480	0	300	300	626	50	0	1	1	blank2r.bmp	0	1	+	0	1	blank2r.bmp	492	1	BZZB	492	1	blank2r.bmp	572	1	spielen	866	1	!	1319	1	!	-1	0	0	0	0	0	0	0	0	0	0	0	0	0	0	0	0	0	0	0	0	0	0	0	0	0	0	0	0	0	0
071619	15:16:30	15:19:44	193613	5.0.10.0	5_exp_RW	57	Rpleas_acq	CS_B	GWWG	BZZB	VKKV	JXXJ	MQQM	YDDY	treu	retten	fair	spielen	ehrlich	schön	tot	rächen	faul	strafen	eitel	schlecht	1	acq_USpleas_CSpleas2_RW	acq2_RW	2	7	480	1	300	300	427	50	0	1	1	blank2r.bmp	0	1	+	0	1	blank2r.bmp	492	1	BZZB	492	1	blank2r.bmp	572	1	spielen	866	1	!	1319	1	!	1332	0	0	0	0	0	0	0	0	0	0	0	0	0	0	0	0	0	0	0	0	0	0	0	0	0	0	0	0	0	0
071619	15:16:30	15:19:46	196066	5.0.10.0	5_exp_RW	57	Rpleas_acq	CS_B	GWWG	BZZB	VKKV	JXXJ	MQQM	YDDY	treu	retten	fair	spielen	ehrlich	schön	tot	rächen	faul	strafen	eitel	schlecht	1	acq_USpleas_CSpleas1_RW	acq2_RW	2	8	480	0	300	300	690	50	0	1	1	blank2r.bmp	0	1	+	0	1	blank2r.bmp	492	1	GWWG	492	1	blank2r.bmp	572	3	fair	866	1	!	1319	1	!	-1	0	0	0	0	0	0	0	0	0	0	0	0	0	0	0	0	0	0	0	0	0	0	0	0	0	0	0	0	0	0
071619	15:16:30	15:19:49	198371	5.0.10.0	5_exp_RW	57	Rpleas_acq	CS_B	GWWG	BZZB	VKKV	JXXJ	MQQM	YDDY	treu	retten	fair	spielen	ehrlich	schön	tot	rächen	faul	strafen	eitel	schlecht	1	acq_USpleas_CSpleas1_RW	acq2_RW	2	9	480	1	300	300	487	50	0	1	1	blank2r.bmp	0	1	+	0	1	blank2r.bmp	492	1	GWWG	492	1	blank2r.bmp	572	1	treu	866	1	!	1319	1	!	1386	0	0	0	0	0	0	0	0	0	0	0	0	0	0	0	0	0	0	0	0	0	0	0	0	0	0	0	0	0	0
071619	15:16:30	15:19:51	200730	5.0.10.0	5_exp_RW	57	Rpleas_acq	CS_B	GWWG	BZZB	VKKV	JXXJ	MQQM	YDDY	treu	retten	fair	spielen	ehrlich	schön	tot	rächen	faul	strafen	eitel	schlecht	1	acq_USpleas_CSpleas1_RW	acq2_RW	2	10	480	0	300	300	586	50	0	1	1	blank2r.bmp	0	1	+	0	1	blank2r.bmp	492	1	GWWG	492	1	blank2r.bmp	572	2	retten	866	1	!	1319	1	!	-1	0	0	0	0	0	0	0	0	0	0	0	0	0	0	0	0	0	0	0	0	0	0	0	0	0	0	0	0	0	0
071619	15:16:30	15:19:53	202983	5.0.10.0	5_exp_RW	57	Rpleas_acq	CS_B	GWWG	BZZB	VKKV	JXXJ	MQQM	YDDY	treu	retten	fair	spielen	ehrlich	schön	tot	rächen	faul	strafen	eitel	schlecht	1	acq_USpleas_CSpleas1_RW	acq2_RW	2	11	480	1	300	300	438	50	0	1	1	blank2r.bmp	0	1	+	0	1	blank2r.bmp	492	1	GWWG	492	1	blank2r.bmp	572	3	fair	866	1	!	1319	1	!	1332	0	0	0	0	0	0	0	0	0	0	0	0	0	0	0	0	0	0	0	0	0	0	0	0	0	0	0	0	0	0
071619	15:16:30	15:19:56	205288	5.0.10.0	5_exp_RW	57	Rpleas_acq	CS_B	GWWG	BZZB	VKKV	JXXJ	MQQM	YDDY	treu	retten	fair	spielen	ehrlich	schön	tot	rächen	faul	strafen	eitel	schlecht	1	acq_USpleas_CSpleas2_RW	acq2_RW	2	12	480	1	300	300	511	50	0	1	1	blank2r.bmp	0	1	+	0	1	blank2r.bmp	492	1	BZZB	492	1	blank2r.bmp	572	2	ehrlich	866	1	!	1319	1	!	1412	0	0	0	0	0	0	0	0	0	0	0	0	0	0	0	0	0	0	0	0	0	0	0	0	0	0	0	0	0	0
071619	15:16:30	15:19:58	207581	5.0.10.0	5_exp_RW	57	Rpleas_acq	CS_B	GWWG	BZZB	VKKV	JXXJ	MQQM	YDDY	treu	retten	fair	spielen	ehrlich	schön	tot	rächen	faul	strafen	eitel	schlecht	1	acq_USpleas_CSpleas2_RW	acq2_RW	2	13	480	1	300	300	492	50	0	1	1	blank2r.bmp	0	1	+	0	1	blank2r.bmp	492	1	BZZB	492	1	blank2r.bmp	572	3	schön	866	1	!	1319	1	!	1399	0	0	0	0	0	0	0	0	0	0	0	0	0	0	0	0	0	0	0	0	0	0	0	0	0	0	0	0	0	0
071619	15:16:30	15:20:00	209927	5.0.10.0	5_exp_RW	57	Rpleas_acq	CS_B	GWWG	BZZB	VKKV	JXXJ	MQQM	YDDY	treu	retten	fair	spielen	ehrlich	schön	tot	rächen	faul	strafen	eitel	schlecht	1	acq_USunple_CSunple1_RW	acq2_RW	2	14	480	0	300	300	579	46	0	1	1	blank2r.bmp	0	1	+	0	1	blank2r.bmp	492	1	VKKV	492	1	blank2r.bmp	572	3	faul	866	1	!	1319	1	!	-1	0	0	0	0	0	0	0	0	0	0	0	0	0	0	0	0	0	0	0	0	0	0	0	0	0	0	0	0	0	0
071619	15:16:30	15:20:03	212565	5.0.10.0	5_exp_RW	57	Rpleas_acq	CS_B	GWWG	BZZB	VKKV	JXXJ	MQQM	YDDY	treu	retten	fair	spielen	ehrlich	schön	tot	rächen	faul	strafen	eitel	schlecht	1	acq_USunple_CSunple1_RW	acq2_RW	2	15	480	0	300	300	636	50	0	0	1	blank2r.bmp	0	1	+	0	1	blank2r.bmp	492	1	VKKV	492	1	blank2r.bmp	572	1	tot	866	1	FEHLER	1839	1	!	1319	1	!	-1	0	0	0	0	0	0	0	0	0	0	0	0	0	0	0	0	0	0	0	0	0	0	0	0	0	0	0
071619	15:16:30	15:20:05	214845	5.0.10.0	5_exp_RW	57	Rpleas_acq	CS_B	GWWG	BZZB	VKKV	JXXJ	MQQM	YDDY	treu	retten	fair	spielen	ehrlich	schön	tot	rächen	faul	strafen	eitel	schlecht	1	acq_USunple_CSunple2_RW	acq2_RW	2	16	480	0	300	300	726	46	0	1	1	blank2r.bmp	0	1	+	0	1	blank2r.bmp	492	1	JXXJ	492	1	blank2r.bmp	572	1	strafen	866	1	!	1319	1	!	-1	0	0	0	0	0	0	0	0	0	0	0	0	0	0	0	0	0	0	0	0	0	0	0	0	0	0	0	0	0	0
071619	15:16:30	15:20:09	218843	5.0.10.0	5_exp_RW	57	Rpleas_acq	CS_B	GWWG	BZZB	VKKV	JXXJ	MQQM	YDDY	treu	retten	fair	spielen	ehrlich	schön	tot	rächen	faul	strafen	eitel	schlecht	1	acq_USunple_CSunple2_RW	acq2_RW	2	17	480	0	300	300	2218	46	0	1	1	blank2r.bmp	0	1	+	0	1	blank2r.bmp	492	1	JXXJ	492	1	blank2r.bmp	572	3	schlecht	866	1	!	1319	1	!	-1	0	0	0	0	0	0	0	0	0	0	0	0	0	0	0	0	0	0	0	0	0	0	0	0	0	0	0	0	0	0
071619	15:16:30	15:20:12	221429	5.0.10.0	5_exp_RW	57	Rpleas_acq	CS_B	GWWG	BZZB	VKKV	JXXJ	MQQM	YDDY	treu	retten	fair	spielen	ehrlich	schön	tot	rächen	faul	strafen	eitel	schlecht	1	acq_USunple_CSunple2_RW	acq2_RW	2	18	480	0	300	300	788	46	0	1	1	blank2r.bmp	0	1	+	0	1	blank2r.bmp	492	1	JXXJ	492	1	blank2r.bmp	572	1	strafen	866	1	!	1319	1	!	-1	0	0	0	0	0	0	0	0	0	0	0	0	0	0	0	0	0	0	0	0	0	0	0	0	0	0	0	0	0	0
071619	15:16:30	15:20:14	223961	5.0.10.0	5_exp_RW	57	Rpleas_acq	CS_B	GWWG	BZZB	VKKV	JXXJ	MQQM	YDDY	treu	retten	fair	spielen	ehrlich	schön	tot	rächen	faul	strafen	eitel	schlecht	1	acq_USunple_CSunple1_RW	acq2_RW	2	19	480	1	300	300	510	50	0	0	1	blank2r.bmp	0	1	+	0	1	blank2r.bmp	492	1	VKKV	492	1	blank2r.bmp	572	2	rächen	866	1	FEHLER	1732	1	!	1319	1	!	1412	0	0	0	0	0	0	0	0	0	0	0	0	0	0	0	0	0	0	0	0	0	0	0	0	0	0	0
071619	15:16:30	15:20:16	226173	5.0.10.0	5_exp_RW	57	Rpleas_acq	CS_B	GWWG	BZZB	VKKV	JXXJ	MQQM	YDDY	treu	retten	fair	spielen	ehrlich	schön	tot	rächen	faul	strafen	eitel	schlecht	1	acq_USunple_CSunple2_RW	acq2_RW	2	20	480	0	300	300	658	46	0	1	1	blank2r.bmp	0	1	+	0	1	blank2r.bmp	492	1	JXXJ	492	1	blank2r.bmp	572	2	eitel	866	1	!	1319	1	!	-1	0	0	0	0	0	0	0	0	0	0	0	0	0	0	0	0	0	0	0	0	0	0	0	0	0	0	0	0	0	0
071619	15:16:30	15:20:19	228559	5.0.10.0	5_exp_RW	57	Rpleas_acq	CS_B	GWWG	BZZB	VKKV	JXXJ	MQQM	YDDY	treu	retten	fair	spielen	ehrlich	schön	tot	rächen	faul	strafen	eitel	schlecht	1	acq_USunple_CSunple2_RW	acq2_RW	2	21	480	0	300	300	370	50	0	0	1	blank2r.bmp	0	1	+	0	1	blank2r.bmp	492	1	JXXJ	492	1	blank2r.bmp	572	3	schlecht	866	1	FEHLER	1572	1	!	-1	1	!	-1	0	0	0	0	0	0	0	0	0	0	0	0	0	0	0	0	0	0	0	0	0	0	0	0	0	0	0
071619	15:16:30	15:20:21	230931	5.0.10.0	5_exp_RW	57	Rpleas_acq	CS_B	GWWG	BZZB	VKKV	JXXJ	MQQM	YDDY	treu	retten	fair	spielen	ehrlich	schön	tot	rächen	faul	strafen	eitel	schlecht	1	acq_USpleas_CSpleas2_RW	acq2_RW	2	22	480	0	300	300	591	46	0	0	1	blank2r.bmp	0	1	+	0	1	blank2r.bmp	492	1	BZZB	492	1	blank2r.bmp	572	3	schön	866	1	FEHLER	1799	1	!	1319	1	!	-1	0	0	0	0	0	0	0	0	0	0	0	0	0	0	0	0	0	0	0	0	0	0	0	0	0	0	0
071619	15:16:30	15:20:30	239861	5.0.10.0	5_exp_RW	57	Rpleas_acq	CS_B	GWWG	BZZB	VKKV	JXXJ	MQQM	YDDY	treu	retten	fair	spielen	ehrlich	schön	tot	rächen	faul	strafen	eitel	schlecht	1	acq_USunple_CSunple1_RW	acq2_RW	2	23	480	0	300	300	7149	50	0	0	1	blank2r.bmp	0	1	+	0	1	blank2r.bmp	492	1	VKKV	492	1	blank2r.bmp	572	3	faul	866	1	FEHLER	8356	1	!	1319	1	!	-1	0	0	0	0	0	0	0	0	0	0	0	0	0	0	0	0	0	0	0	0	0	0	0	0	0	0	0
071619	15:16:30	15:20:32	242127	5.0.10.0	5_exp_RW	57	Rpleas_acq	CS_B	GWWG	BZZB	VKKV	JXXJ	MQQM	YDDY	treu	retten	fair	spielen	ehrlich	schön	tot	rächen	faul	strafen	eitel	schlecht	1	acq_USunple_CSunple1_RW	acq2_RW	2	24	480	0	300	300	707	46	0	1	1	blank2r.bmp	0	1	+	0	1	blank2r.bmp	492	1	VKKV	492	1	blank2r.bmp	572	2	rächen	866	1	!	1319	1	!	-1	0	0	0	0	0	0	0	0	0	0	0	0	0	0	0	0	0	0	0	0	0	0	0	0	0	0	0	0	0	0
071619	15:16:30	15:21:06	276033	5.0.10.0	5_exp_RW	57	Rpleas_acq	CS_B	GWWG	BZZB	VKKV	JXXJ	MQQM	YDDY	treu	retten	fair	spielen	ehrlich	schön	tot	rächen	faul	strafen	eitel	schlecht	1	acq_USunple_CSunple1_RW	acq3_RW	3	1	453	0	300	300	600	46	0	1	1	blank2r.bmp	0	1	+	0	1	blank2r.bmp	492	1	VKKV	492	1	blank2r.bmp	572	3	faul	866	1	!	1292	1	!	-1	0	0	0	0	0	0	0	0	0	0	0	0	0	0	0	0	0	0	0	0	0	0	0	0	0	0	0	0	0	0
071619	15:16:30	15:21:09	278419	5.0.10.0	5_exp_RW	57	Rpleas_acq	CS_B	GWWG	BZZB	VKKV	JXXJ	MQQM	YDDY	treu	retten	fair	spielen	ehrlich	schön	tot	rächen	faul	strafen	eitel	schlecht	1	acq_USpleas_CSpleas1_RW	acq3_RW	3	2	453	0	300	300	607	50	0	1	1	blank2r.bmp	0	1	+	0	1	blank2r.bmp	492	1	GWWG	492	1	blank2r.bmp	572	1	treu	866	1	!	1292	1	!	-1	0	0	0	0	0	0	0	0	0	0	0	0	0	0	0	0	0	0	0	0	0	0	0	0	0	0	0	0	0	0
071619	15:16:30	15:21:11	280791	5.0.10.0	5_exp_RW	57	Rpleas_acq	CS_B	GWWG	BZZB	VKKV	JXXJ	MQQM	YDDY	treu	retten	fair	spielen	ehrlich	schön	tot	rächen	faul	strafen	eitel	schlecht	1	acq_USpleas_CSpleas2_RW	acq3_RW	3	3	453	0	300	300	581	50	0	1	1	blank2r.bmp	0	1	+	0	1	blank2r.bmp	492	1	BZZB	492	1	blank2r.bmp	572	1	spielen	866	1	!	1292	1	!	-1	0	0	0	0	0	0	0	0	0	0	0	0	0	0	0	0	0	0	0	0	0	0	0	0	0	0	0	0	0	0
071619	15:16:30	15:21:13	283057	5.0.10.0	5_exp_RW	57	Rpleas_acq	CS_B	GWWG	BZZB	VKKV	JXXJ	MQQM	YDDY	treu	retten	fair	spielen	ehrlich	schön	tot	rächen	faul	strafen	eitel	schlecht	1	acq_USunple_CSunple1_RW	acq3_RW	3	4	453	1	300	300	453	46	0	1	1	blank2r.bmp	0	1	+	0	1	blank2r.bmp	492	1	VKKV	492	1	blank2r.bmp	572	1	tot	866	1	!	1292	1	!	1359	0	0	0	0	0	0	0	0	0	0	0	0	0	0	0	0	0	0	0	0	0	0	0	0	0	0	0	0	0	0
071619	15:16:30	15:21:16	285256	5.0.10.0	5_exp_RW	57	Rpleas_acq	CS_B	GWWG	BZZB	VKKV	JXXJ	MQQM	YDDY	treu	retten	fair	spielen	ehrlich	schön	tot	rächen	faul	strafen	eitel	schlecht	1	acq_USpleas_CSpleas2_RW	acq3_RW	3	5	453	1	300	300	405	50	0	1	1	blank2r.bmp	0	1	+	0	1	blank2r.bmp	492	1	BZZB	492	1	blank2r.bmp	572	2	ehrlich	866	1	!	1292	1	!	1306	0	0	0	0	0	0	0	0	0	0	0	0	0	0	0	0	0	0	0	0	0	0	0	0	0	0	0	0	0	0
071619	15:16:30	15:21:18	287681	5.0.10.0	5_exp_RW	57	Rpleas_acq	CS_B	GWWG	BZZB	VKKV	JXXJ	MQQM	YDDY	treu	retten	fair	spielen	ehrlich	schön	tot	rächen	faul	strafen	eitel	schlecht	1	acq_USunple_CSunple1_RW	acq3_RW	3	6	453	0	300	300	661	46	0	1	1	blank2r.bmp	0	1	+	0	1	blank2r.bmp	492	1	VKKV	492	1	blank2r.bmp	572	3	faul	866	1	!	1292	1	!	-1	0	0	0	0	0	0	0	0	0	0	0	0	0	0	0	0	0	0	0	0	0	0	0	0	0	0	0	0	0	0
071619	15:16:30	15:21:20	290000	5.0.10.0	5_exp_RW	57	Rpleas_acq	CS_B	GWWG	BZZB	VKKV	JXXJ	MQQM	YDDY	treu	retten	fair	spielen	ehrlich	schön	tot	rächen	faul	strafen	eitel	schlecht	1	acq_USpleas_CSpleas1_RW	acq3_RW	3	7	453	0	300	300	545	50	0	1	1	blank2r.bmp	0	1	+	0	1	blank2r.bmp	492	1	GWWG	492	1	blank2r.bmp	572	2	retten	866	1	!	1292	1	!	-1	0	0	0	0	0	0	0	0	0	0	0	0	0	0	0	0	0	0	0	0	0	0	0	0	0	0	0	0	0	0
071619	15:16:30	15:21:23	292226	5.0.10.0	5_exp_RW	57	Rpleas_acq	CS_B	GWWG	BZZB	VKKV	JXXJ	MQQM	YDDY	treu	retten	fair	spielen	ehrlich	schön	tot	rächen	faul	strafen	eitel	schlecht	1	acq_USpleas_CSpleas2_RW	acq3_RW	3	8	453	1	300	300	414	50	0	1	1	blank2r.bmp	0	1	+	0	1	blank2r.bmp	492	1	BZZB	492	1	blank2r.bmp	572	2	ehrlich	866	1	!	1292	1	!	1319	0	0	0	0	0	0	0	0	0	0	0	0	0	0	0	0	0	0	0	0	0	0	0	0	0	0	0	0	0	0
071619	15:16:30	15:21:25	294479	5.0.10.0	5_exp_RW	57	Rpleas_acq	CS_B	GWWG	BZZB	VKKV	JXXJ	MQQM	YDDY	treu	retten	fair	spielen	ehrlich	schön	tot	rächen	faul	strafen	eitel	schlecht	1	acq_USunple_CSunple2_RW	acq3_RW	3	9	453	1	300	300	454	46	0	1	1	blank2r.bmp	0	1	+	0	1	blank2r.bmp	492	1	JXXJ	492	1	blank2r.bmp	572	2	eitel	866	1	!	1292	1	!	1359	0	0	0	0	0	0	0	0	0	0	0	0	0	0	0	0	0	0	0	0	0	0	0	0	0	0	0	0	0	0
071619	15:16:30	15:21:27	296731	5.0.10.0	5_exp_RW	57	Rpleas_acq	CS_B	GWWG	BZZB	VKKV	JXXJ	MQQM	YDDY	treu	retten	fair	spielen	ehrlich	schön	tot	rächen	faul	strafen	eitel	schlecht	1	acq_USunple_CSunple2_RW	acq3_RW	3	10	453	0	300	300	257	50	0	0	1	blank2r.bmp	0	1	+	0	1	blank2r.bmp	492	1	JXXJ	492	1	blank2r.bmp	572	1	strafen	866	1	FEHLER	1466	1	!	-1	1	!	-1	0	0	0	0	0	0	0	0	0	0	0	0	0	0	0	0	0	0	0	0	0	0	0	0	0	0	0
071619	15:16:30	15:21:29	299063	5.0.10.0	5_exp_RW	57	Rpleas_acq	CS_B	GWWG	BZZB	VKKV	JXXJ	MQQM	YDDY	treu	retten	fair	spielen	ehrlich	schön	tot	rächen	faul	strafen	eitel	schlecht	1	acq_USpleas_CSpleas2_RW	acq3_RW	3	11	453	0	300	300	552	46	0	0	1	blank2r.bmp	0	1	+	0	1	blank2r.bmp	492	1	BZZB	492	1	blank2r.bmp	572	3	schön	866	1	FEHLER	1759	1	!	1292	1	!	-1	0	0	0	0	0	0	0	0	0	0	0	0	0	0	0	0	0	0	0	0	0	0	0	0	0	0	0
071619	15:16:30	15:21:35	304821	5.0.10.0	5_exp_RW	57	Rpleas_acq	CS_B	GWWG	BZZB	VKKV	JXXJ	MQQM	YDDY	treu	retten	fair	spielen	ehrlich	schön	tot	rächen	faul	strafen	eitel	schlecht	1	acq_USpleas_CSpleas1_RW	acq3_RW	3	12	453	0	300	300	4183	50	0	1	1	blank2r.bmp	0	1	+	0	1	blank2r.bmp	492	1	GWWG	492	1	blank2r.bmp	572	1	treu	866	1	!	1292	1	!	-1	0	0	0	0	0	0	0	0	0	0	0	0	0	0	0	0	0	0	0	0	0	0	0	0	0	0	0	0	0	0
071619	15:16:30	15:21:38	307300	5.0.10.0	5_exp_RW	57	Rpleas_acq	CS_B	GWWG	BZZB	VKKV	JXXJ	MQQM	YDDY	treu	retten	fair	spielen	ehrlich	schön	tot	rächen	faul	strafen	eitel	schlecht	1	acq_USunple_CSunple1_RW	acq3_RW	3	13	453	1	300	300	458	50	0	0	1	blank2r.bmp	0	1	+	0	1	blank2r.bmp	492	1	VKKV	492	1	blank2r.bmp	572	1	tot	866	1	FEHLER	1679	1	!	1292	1	!	1359	0	0	0	0	0	0	0	0	0	0	0	0	0	0	0	0	0	0	0	0	0	0	0	0	0	0	0
071619	15:16:30	15:21:43	313164	5.0.10.0	5_exp_RW	57	Rpleas_acq	CS_B	GWWG	BZZB	VKKV	JXXJ	MQQM	YDDY	treu	retten	fair	spielen	ehrlich	schön	tot	rächen	faul	strafen	eitel	schlecht	1	acq_USunple_CSunple2_RW	acq3_RW	3	14	453	0	300	300	4078	50	0	0	1	blank2r.bmp	0	1	+	0	1	blank2r.bmp	492	1	JXXJ	492	1	blank2r.bmp	572	3	schlecht	866	1	FEHLER	5291	1	!	1292	1	!	-1	0	0	0	0	0	0	0	0	0	0	0	0	0	0	0	0	0	0	0	0	0	0	0	0	0	0	0
071619	15:16:30	15:21:46	315443	5.0.10.0	5_exp_RW	57	Rpleas_acq	CS_B	GWWG	BZZB	VKKV	JXXJ	MQQM	YDDY	treu	retten	fair	spielen	ehrlich	schön	tot	rächen	faul	strafen	eitel	schlecht	1	acq_USpleas_CSpleas1_RW	acq3_RW	3	15	453	1	300	300	481	46	0	0	1	blank2r.bmp	0	1	+	0	1	blank2r.bmp	492	1	GWWG	492	1	blank2r.bmp	572	2	retten	866	1	FEHLER	1705	1	!	1292	1	!	1386	0	0	0	0	0	0	0	0	0	0	0	0	0	0	0	0	0	0	0	0	0	0	0	0	0	0	0
071619	15:16:30	15:21:52	322214	5.0.10.0	5_exp_RW	57	Rpleas_acq	CS_B	GWWG	BZZB	VKKV	JXXJ	MQQM	YDDY	treu	retten	fair	spielen	ehrlich	schön	tot	rächen	faul	strafen	eitel	schlecht	1	acq_USunple_CSunple2_RW	acq3_RW	3	16	453	0	300	300	4971	50	0	0	1	blank2r.bmp	0	1	+	0	1	blank2r.bmp	492	1	JXXJ	492	1	blank2r.bmp	572	1	strafen	866	1	FEHLER	6184	1	!	1292	1	!	-1	0	0	0	0	0	0	0	0	0	0	0	0	0	0	0	0	0	0	0	0	0	0	0	0	0	0	0
071619	15:16:30	15:21:55	324413	5.0.10.0	5_exp_RW	57	Rpleas_acq	CS_B	GWWG	BZZB	VKKV	JXXJ	MQQM	YDDY	treu	retten	fair	spielen	ehrlich	schön	tot	rächen	faul	strafen	eitel	schlecht	1	acq_USunple_CSunple2_RW	acq3_RW	3	17	453	0	300	300	647	46	0	1	1	blank2r.bmp	0	1	+	0	1	blank2r.bmp	492	1	JXXJ	492	1	blank2r.bmp	572	2	eitel	866	1	!	1292	1	!	-1	0	0	0	0	0	0	0	0	0	0	0	0	0	0	0	0	0	0	0	0	0	0	0	0	0	0	0	0	0	0
071619	15:16:30	15:21:57	327092	5.0.10.0	5_exp_RW	57	Rpleas_acq	CS_B	GWWG	BZZB	VKKV	JXXJ	MQQM	YDDY	treu	retten	fair	spielen	ehrlich	schön	tot	rächen	faul	strafen	eitel	schlecht	1	acq_USunple_CSunple1_RW	acq3_RW	3	18	453	0	300	300	673	50	0	0	1	blank2r.bmp	0	1	+	0	1	blank2r.bmp	492	1	VKKV	492	1	blank2r.bmp	572	2	rächen	866	1	FEHLER	1879	1	!	1292	1	!	-1	0	0	0	0	0	0	0	0	0	0	0	0	0	0	0	0	0	0	0	0	0	0	0	0	0	0	0
071619	15:16:30	15:22:00	329771	5.0.10.0	5_exp_RW	57	Rpleas_acq	CS_B	GWWG	BZZB	VKKV	JXXJ	MQQM	YDDY	treu	retten	fair	spielen	ehrlich	schön	tot	rächen	faul	strafen	eitel	schlecht	1	acq_USpleas_CSpleas2_RW	acq3_RW	3	19	453	0	300	300	1128	50	0	1	1	blank2r.bmp	0	1	+	0	1	blank2r.bmp	492	1	BZZB	492	1	blank2r.bmp	572	1	spielen	866	1	!	1292	1	!	-1	0	0	0	0	0	0	0	0	0	0	0	0	0	0	0	0	0	0	0	0	0	0	0	0	0	0	0	0	0	0
071619	15:16:30	15:22:02	332103	5.0.10.0	5_exp_RW	57	Rpleas_acq	CS_B	GWWG	BZZB	VKKV	JXXJ	MQQM	YDDY	treu	retten	fair	spielen	ehrlich	schön	tot	rächen	faul	strafen	eitel	schlecht	1	acq_USunple_CSunple2_RW	acq3_RW	3	20	453	0	300	300	548	46	0	1	1	blank2r.bmp	0	1	+	0	1	blank2r.bmp	492	1	JXXJ	492	1	blank2r.bmp	572	1	strafen	866	1	!	1292	1	!	-1	0	0	0	0	0	0	0	0	0	0	0	0	0	0	0	0	0	0	0	0	0	0	0	0	0	0	0	0	0	0
071619	15:16:30	15:22:05	334316	5.0.10.0	5_exp_RW	57	Rpleas_acq	CS_B	GWWG	BZZB	VKKV	JXXJ	MQQM	YDDY	treu	retten	fair	spielen	ehrlich	schön	tot	rächen	faul	strafen	eitel	schlecht	1	acq_USpleas_CSpleas2_RW	acq3_RW	3	21	453	1	300	300	400	50	0	1	1	blank2r.bmp	0	1	+	0	1	blank2r.bmp	492	1	BZZB	492	1	blank2r.bmp	572	2	ehrlich	866	1	!	1292	1	!	1306	0	0	0	0	0	0	0	0	0	0	0	0	0	0	0	0	0	0	0	0	0	0	0	0	0	0	0	0	0	0
071619	15:16:30	15:22:07	336621	5.0.10.0	5_exp_RW	57	Rpleas_acq	CS_B	GWWG	BZZB	VKKV	JXXJ	MQQM	YDDY	treu	retten	fair	spielen	ehrlich	schön	tot	rächen	faul	strafen	eitel	schlecht	1	acq_USunple_CSunple1_RW	acq3_RW	3	22	453	0	300	300	539	46	0	1	1	blank2r.bmp	0	1	+	0	1	blank2r.bmp	492	1	VKKV	492	1	blank2r.bmp	572	2	rächen	866	1	!	1292	1	!	-1	0	0	0	0	0	0	0	0	0	0	0	0	0	0	0	0	0	0	0	0	0	0	0	0	0	0	0	0	0	0
071619	15:16:30	15:22:09	338927	5.0.10.0	5_exp_RW	57	Rpleas_acq	CS_B	GWWG	BZZB	VKKV	JXXJ	MQQM	YDDY	treu	retten	fair	spielen	ehrlich	schön	tot	rächen	faul	strafen	eitel	schlecht	1	acq_USpleas_CSpleas1_RW	acq3_RW	3	23	453	1	300	300	490	50	0	1	1	blank2r.bmp	0	1	+	0	1	blank2r.bmp	492	1	GWWG	492	1	blank2r.bmp	572	3	fair	866	1	!	1292	1	!	1386	0	0	0	0	0	0	0	0	0	0	0	0	0	0	0	0	0	0	0	0	0	0	0	0	0	0	0	0	0	0
071619	15:16:30	15:22:11	341193	5.0.10.0	5_exp_RW	57	Rpleas_acq	CS_B	GWWG	BZZB	VKKV	JXXJ	MQQM	YDDY	treu	retten	fair	spielen	ehrlich	schön	tot	rächen	faul	strafen	eitel	schlecht	1	acq_USpleas_CSpleas1_RW	acq3_RW	3	24	453	1	300	300	458	50	0	1	1	blank2r.bmp	0	1	+	0	1	blank2r.bmp	492	1	GWWG	492	1	blank2r.bmp	572	3	fair	866	1	!	1292	1	!	1359	0	0	0	0	0	0	0	0	0	0	0	0	0	0	0	0	0	0	0	0	0	0	0	0	0	0	0	0	0	0
071619	15:16:30	15:22:26	355267	5.0.10.0	5_exp_RW	57	Rpleas_acq	CS_B	GWWG	BZZB	VKKV	JXXJ	MQQM	YDDY	treu	retten	fair	spielen	ehrlich	schön	tot	rächen	faul	strafen	eitel	schlecht	1	acq_USunple_CSunple2_RW	acq4567_RW	4	1	400	0	300	300	611	46	0	1	1	blank2r.bmp	0	1	+	0	1	blank2r.bmp	492	1	JXXJ	492	1	blank2r.bmp	572	2	eitel	866	1	!	1239	1	!	-1	0	0	0	0	0	0	0	0	0	0	0	0	0	0	0	0	0	0	0	0	0	0	0	0	0	0	0	0	0	0
071619	15:16:30	15:22:28	357693	5.0.10.0	5_exp_RW	57	Rpleas_acq	CS_B	GWWG	BZZB	VKKV	JXXJ	MQQM	YDDY	treu	retten	fair	spielen	ehrlich	schön	tot	rächen	faul	strafen	eitel	schlecht	1	acq_USunple_CSunple2_RW	acq4567_RW	4	2	400	0	300	300	641	46	0	1	1	blank2r.bmp	0	1	+	0	1	blank2r.bmp	492	1	JXXJ	492	1	blank2r.bmp	572	3	schlecht	866	1	!	1239	1	!	-1	0	0	0	0	0	0	0	0	0	0	0	0	0	0	0	0	0	0	0	0	0	0	0	0	0	0	0	0	0	0
071619	15:16:30	15:22:30	359985	5.0.10.0	5_exp_RW	57	Rpleas_acq	CS_B	GWWG	BZZB	VKKV	JXXJ	MQQM	YDDY	treu	retten	fair	spielen	ehrlich	schön	tot	rächen	faul	strafen	eitel	schlecht	1	acq_USunple_CSunple1_RW	acq4567_RW	4	3	400	0	300	300	506	46	0	1	1	blank2r.bmp	0	1	+	0	1	blank2r.bmp	492	1	VKKV	492	1	blank2r.bmp	572	1	tot	866	1	!	1239	1	!	-1	0	0	0	0	0	0	0	0	0	0	0	0	0	0	0	0	0	0	0	0	0	0	0	0	0	0	0	0	0	0
071619	15:16:30	15:22:32	362091	5.0.10.0	5_exp_RW	57	Rpleas_acq	CS_B	GWWG	BZZB	VKKV	JXXJ	MQQM	YDDY	treu	retten	fair	spielen	ehrlich	schön	tot	rächen	faul	strafen	eitel	schlecht	1	acq_USunple_CSunple2_RW	acq4567_RW	4	4	400	0	300	300	320	46	0	1	1	blank2r.bmp	0	1	+	0	1	blank2r.bmp	492	1	JXXJ	492	1	blank2r.bmp	572	3	schlecht	866	1	!	-1	1	!	-1	0	0	0	0	0	0	0	0	0	0	0	0	0	0	0	0	0	0	0	0	0	0	0	0	0	0	0	0	0	0
071619	15:16:30	15:22:35	364357	5.0.10.0	5_exp_RW	57	Rpleas_acq	CS_B	GWWG	BZZB	VKKV	JXXJ	MQQM	YDDY	treu	retten	fair	spielen	ehrlich	schön	tot	rächen	faul	strafen	eitel	schlecht	1	acq_USpleas_CSpleas1_RW	acq4567_RW	4	5	400	0	300	300	486	50	0	1	1	blank2r.bmp	0	1	+	0	1	blank2r.bmp	492	1	GWWG	492	1	blank2r.bmp	572	1	treu	866	1	!	1239	1	!	-1	0	0	0	0	0	0	0	0	0	0	0	0	0	0	0	0	0	0	0	0	0	0	0	0	0	0	0	0	0	0
071619	15:16:30	15:22:37	366556	5.0.10.0	5_exp_RW	57	Rpleas_acq	CS_B	GWWG	BZZB	VKKV	JXXJ	MQQM	YDDY	treu	retten	fair	spielen	ehrlich	schön	tot	rächen	faul	strafen	eitel	schlecht	1	acq_USunple_CSunple2_RW	acq4567_RW	4	6	400	1	300	300	387	50	0	0	1	blank2r.bmp	0	1	+	0	1	blank2r.bmp	492	1	JXXJ	492	1	blank2r.bmp	572	2	eitel	866	1	!	1239	1	!	1292	0	0	0	0	0	0	0	0	0	0	0	0	0	0	0	0	0	0	0	0	0	0	0	0	0	0	0	0	0	0
071619	15:16:30	15:22:39	368795	5.0.10.0	5_exp_RW	57	Rpleas_acq	CS_B	GWWG	BZZB	VKKV	JXXJ	MQQM	YDDY	treu	retten	fair	spielen	ehrlich	schön	tot	rächen	faul	strafen	eitel	schlecht	1	acq_USunple_CSunple1_RW	acq4567_RW	4	7	400	1	300	300	431	46	0	1	1	blank2r.bmp	0	1	+	0	1	blank2r.bmp	492	1	VKKV	492	1	blank2r.bmp	572	3	faul	866	1	!	1239	1	!	1332	0	0	0	0	0	0	0	0	0	0	0	0	0	0	0	0	0	0	0	0	0	0	0	0	0	0	0	0	0	0
071619	15:16:30	15:22:41	371061	5.0.10.0	5_exp_RW	57	Rpleas_acq	CS_B	GWWG	BZZB	VKKV	JXXJ	MQQM	YDDY	treu	retten	fair	spielen	ehrlich	schön	tot	rächen	faul	strafen	eitel	schlecht	1	acq_USpleas_CSpleas1_RW	acq4567_RW	4	8	400	0	300	300	505	50	0	1	1	blank2r.bmp	0	1	+	0	1	blank2r.bmp	492	1	GWWG	492	1	blank2r.bmp	572	2	retten	866	1	!	1239	1	!	-1	0	0	0	0	0	0	0	0	0	0	0	0	0	0	0	0	0	0	0	0	0	0	0	0	0	0	0	0	0	0
071619	15:16:30	15:22:44	373326	5.0.10.0	5_exp_RW	57	Rpleas_acq	CS_B	GWWG	BZZB	VKKV	JXXJ	MQQM	YDDY	treu	retten	fair	spielen	ehrlich	schön	tot	rächen	faul	strafen	eitel	schlecht	1	acq_USpleas_CSpleas2_RW	acq4567_RW	4	9	400	0	300	300	479	50	0	1	1	blank2r.bmp	0	1	+	0	1	blank2r.bmp	492	1	BZZB	492	1	blank2r.bmp	572	1	spielen	866	1	!	1239	1	!	-1	0	0	0	0	0	0	0	0	0	0	0	0	0	0	0	0	0	0	0	0	0	0	0	0	0	0	0	0	0	0
071619	15:16:30	15:22:46	375525	5.0.10.0	5_exp_RW	57	Rpleas_acq	CS_B	GWWG	BZZB	VKKV	JXXJ	MQQM	YDDY	treu	retten	fair	spielen	ehrlich	schön	tot	rächen	faul	strafen	eitel	schlecht	1	acq_USpleas_CSpleas2_RW	acq4567_RW	4	10	400	1	300	300	398	50	0	1	1	blank2r.bmp	0	1	+	0	1	blank2r.bmp	492	1	BZZB	492	1	blank2r.bmp	572	3	schön	866	1	!	1239	1	!	1292	0	0	0	0	0	0	0	0	0	0	0	0	0	0	0	0	0	0	0	0	0	0	0	0	0	0	0	0	0	0
071619	15:16:30	15:22:48	377791	5.0.10.0	5_exp_RW	57	Rpleas_acq	CS_B	GWWG	BZZB	VKKV	JXXJ	MQQM	YDDY	treu	retten	fair	spielen	ehrlich	schön	tot	rächen	faul	strafen	eitel	schlecht	1	acq_USunple_CSunple1_RW	acq4567_RW	4	11	400	1	300	300	464	46	0	1	1	blank2r.bmp	0	1	+	0	1	blank2r.bmp	492	1	VKKV	492	1	blank2r.bmp	572	2	rächen	866	1	!	1239	1	!	1359	0	0	0	0	0	0	0	0	0	0	0	0	0	0	0	0	0	0	0	0	0	0	0	0	0	0	0	0	0	0
071619	15:16:30	15:22:50	380004	5.0.10.0	5_exp_RW	57	Rpleas_acq	CS_B	GWWG	BZZB	VKKV	JXXJ	MQQM	YDDY	treu	retten	fair	spielen	ehrlich	schön	tot	rächen	faul	strafen	eitel	schlecht	1	acq_USpleas_CSpleas1_RW	acq4567_RW	4	12	400	1	300	300	415	50	0	1	1	blank2r.bmp	0	1	+	0	1	blank2r.bmp	492	1	GWWG	492	1	blank2r.bmp	572	2	retten	866	1	!	1239	1	!	1319	0	0	0	0	0	0	0	0	0	0	0	0	0	0	0	0	0	0	0	0	0	0	0	0	0	0	0	0	0	0
071619	15:16:30	15:22:52	382203	5.0.10.0	5_exp_RW	57	Rpleas_acq	CS_B	GWWG	BZZB	VKKV	JXXJ	MQQM	YDDY	treu	retten	fair	spielen	ehrlich	schön	tot	rächen	faul	strafen	eitel	schlecht	1	acq_USunple_CSunple1_RW	acq4567_RW	4	13	400	1	300	300	386	50	0	0	1	blank2r.bmp	0	1	+	0	1	blank2r.bmp	492	1	VKKV	492	1	blank2r.bmp	572	3	faul	866	1	!	1239	1	!	1292	0	0	0	0	0	0	0	0	0	0	0	0	0	0	0	0	0	0	0	0	0	0	0	0	0	0	0	0	0	0
071619	15:16:30	15:22:55	384362	5.0.10.0	5_exp_RW	57	Rpleas_acq	CS_B	GWWG	BZZB	VKKV	JXXJ	MQQM	YDDY	treu	retten	fair	spielen	ehrlich	schön	tot	rächen	faul	strafen	eitel	schlecht	1	acq_USpleas_CSpleas2_RW	acq4567_RW	4	14	400	1	300	300	358	50	0	1	1	blank2r.bmp	0	1	+	0	1	blank2r.bmp	492	1	BZZB	492	1	blank2r.bmp	572	3	schön	866	1	!	1239	1	!	1252	0	0	0	0	0	0	0	0	0	0	0	0	0	0	0	0	0	0	0	0	0	0	0	0	0	0	0	0	0	0
071619	15:16:30	15:22:57	386601	5.0.10.0	5_exp_RW	57	Rpleas_acq	CS_B	GWWG	BZZB	VKKV	JXXJ	MQQM	YDDY	treu	retten	fair	spielen	ehrlich	schön	tot	rächen	faul	strafen	eitel	schlecht	1	acq_USpleas_CSpleas1_RW	acq4567_RW	4	15	400	1	300	300	448	50	0	1	1	blank2r.bmp	0	1	+	0	1	blank2r.bmp	492	1	GWWG	492	1	blank2r.bmp	572	1	treu	866	1	!	1239	1	!	1346	0	0	0	0	0	0	0	0	0	0	0	0	0	0	0	0	0	0	0	0	0	0	0	0	0	0	0	0	0	0
071619	15:16:30	15:22:59	388867	5.0.10.0	5_exp_RW	57	Rpleas_acq	CS_B	GWWG	BZZB	VKKV	JXXJ	MQQM	YDDY	treu	retten	fair	spielen	ehrlich	schön	tot	rächen	faul	strafen	eitel	schlecht	1	acq_USunple_CSunple2_RW	acq4567_RW	4	16	400	1	300	300	453	50	0	0	1	blank2r.bmp	0	1	+	0	1	blank2r.bmp	492	1	JXXJ	492	1	blank2r.bmp	572	1	strafen	866	1	!	1239	1	!	1359	0	0	0	0	0	0	0	0	0	0	0	0	0	0	0	0	0	0	0	0	0	0	0	0	0	0	0	0	0	0
071619	15:16:30	15:23:01	391026	5.0.10.0	5_exp_RW	57	Rpleas_acq	CS_B	GWWG	BZZB	VKKV	JXXJ	MQQM	YDDY	treu	retten	fair	spielen	ehrlich	schön	tot	rächen	faul	strafen	eitel	schlecht	1	acq_USpleas_CSpleas1_RW	acq4567_RW	4	17	400	1	300	300	367	46	0	0	1	blank2r.bmp	0	1	+	0	1	blank2r.bmp	492	1	GWWG	492	1	blank2r.bmp	572	3	fair	866	1	!	1239	1	!	1266	0	0	0	0	0	0	0	0	0	0	0	0	0	0	0	0	0	0	0	0	0	0	0	0	0	0	0	0	0	0
071619	15:16:30	15:23:04	393518	5.0.10.0	5_exp_RW	57	Rpleas_acq	CS_B	GWWG	BZZB	VKKV	JXXJ	MQQM	YDDY	treu	retten	fair	spielen	ehrlich	schön	tot	rächen	faul	strafen	eitel	schlecht	1	acq_USunple_CSunple1_RW	acq4567_RW	4	18	400	0	300	300	723	50	0	0	1	blank2r.bmp	0	1	+	0	1	blank2r.bmp	492	1	VKKV	492	1	blank2r.bmp	572	1	tot	866	1	!	1239	1	!	-1	0	0	0	0	0	0	0	0	0	0	0	0	0	0	0	0	0	0	0	0	0	0	0	0	0	0	0	0	0	0
071619	15:16:30	15:23:06	395784	5.0.10.0	5_exp_RW	57	Rpleas_acq	CS_B	GWWG	BZZB	VKKV	JXXJ	MQQM	YDDY	treu	retten	fair	spielen	ehrlich	schön	tot	rächen	faul	strafen	eitel	schlecht	1	acq_USpleas_CSpleas2_RW	acq4567_RW	4	19	400	0	300	300	487	50	0	1	1	blank2r.bmp	0	1	+	0	1	blank2r.bmp	492	1	BZZB	492	1	blank2r.bmp	572	1	spielen	866	1	!	1239	1	!	-1	0	0	0	0	0	0	0	0	0	0	0	0	0	0	0	0	0	0	0	0	0	0	0	0	0	0	0	0	0	0
071619	15:16:30	15:23:08	398023	5.0.10.0	5_exp_RW	57	Rpleas_acq	CS_B	GWWG	BZZB	VKKV	JXXJ	MQQM	YDDY	treu	retten	fair	spielen	ehrlich	schön	tot	rächen	faul	strafen	eitel	schlecht	1	acq_USpleas_CSpleas2_RW	acq4567_RW	4	20	400	1	300	300	429	46	0	0	1	blank2r.bmp	0	1	+	0	1	blank2r.bmp	492	1	BZZB	492	1	blank2r.bmp	572	2	ehrlich	866	1	!	1239	1	!	1332	0	0	0	0	0	0	0	0	0	0	0	0	0	0	0	0	0	0	0	0	0	0	0	0	0	0	0	0	0	0
071619	15:16:30	15:23:16	405420	5.0.10.0	5_exp_RW	57	Rpleas_acq	CS_B	GWWG	BZZB	VKKV	JXXJ	MQQM	YDDY	treu	retten	fair	spielen	ehrlich	schön	tot	rächen	faul	strafen	eitel	schlecht	1	acq_USunple_CSunple1_RW	acq4567_RW	4	21	400	0	300	300	5630	50	0	0	1	blank2r.bmp	0	1	+	0	1	blank2r.bmp	492	1	VKKV	492	1	blank2r.bmp	572	3	faul	866	1	!	1239	1	!	-1	0	0	0	0	0	0	0	0	0	0	0	0	0	0	0	0	0	0	0	0	0	0	0	0	0	0	0	0	0	0
071619	15:16:30	15:23:18	407632	5.0.10.0	5_exp_RW	57	Rpleas_acq	CS_B	GWWG	BZZB	VKKV	JXXJ	MQQM	YDDY	treu	retten	fair	spielen	ehrlich	schön	tot	rächen	faul	strafen	eitel	schlecht	1	acq_USpleas_CSpleas2_RW	acq4567_RW	4	22	400	1	300	300	401	50	0	1	1	blank2r.bmp	0	1	+	0	1	blank2r.bmp	492	1	BZZB	492	1	blank2r.bmp	572	2	ehrlich	866	1	!	1239	1	!	1306	0	0	0	0	0	0	0	0	0	0	0	0	0	0	0	0	0	0	0	0	0	0	0	0	0	0	0	0	0	0
071619	15:16:30	15:23:20	409791	5.0.10.0	5_exp_RW	57	Rpleas_acq	CS_B	GWWG	BZZB	VKKV	JXXJ	MQQM	YDDY	treu	retten	fair	spielen	ehrlich	schön	tot	rächen	faul	strafen	eitel	schlecht	1	acq_USunple_CSunple2_RW	acq4567_RW	4	23	400	1	300	300	368	50	0	0	1	blank2r.bmp	0	1	+	0	1	blank2r.bmp	492	1	JXXJ	492	1	blank2r.bmp	572	2	eitel	866	1	!	1239	1	!	1266	0	0	0	0	0	0	0	0	0	0	0	0	0	0	0	0	0	0	0	0	0	0	0	0	0	0	0	0	0	0
071619	15:16:30	15:23:22	412044	5.0.10.0	5_exp_RW	57	Rpleas_acq	CS_B	GWWG	BZZB	VKKV	JXXJ	MQQM	YDDY	treu	retten	fair	spielen	ehrlich	schön	tot	rächen	faul	strafen	eitel	schlecht	1	acq_USpleas_CSpleas1_RW	acq4567_RW	4	24	400	1	300	300	460	50	0	1	1	blank2r.bmp	0	1	+	0	1	blank2r.bmp	492	1	GWWG	492	1	blank2r.bmp	572	3	fair	866	1	!	1239	1	!	1359	0	0	0	0	0	0	0	0	0	0	0	0	0	0	0	0	0	0	0	0	0	0	0	0	0	0	0	0	0	0
071619	15:16:30	15:23:25	414350	5.0.10.0	5_exp_RW	57	Rpleas_acq	CS_B	GWWG	BZZB	VKKV	JXXJ	MQQM	YDDY	treu	retten	fair	spielen	ehrlich	schön	tot	rächen	faul	strafen	eitel	schlecht	1	acq_USunple_CSunple2_RW	acq4567_RW	4	25	400	0	300	300	531	46	0	1	1	blank2r.bmp	0	1	+	0	1	blank2r.bmp	492	1	JXXJ	492	1	blank2r.bmp	572	3	schlecht	866	1	!	1239	1	!	-1	0	0	0	0	0	0	0	0	0	0	0	0	0	0	0	0	0	0	0	0	0	0	0	0	0	0	0	0	0	0
071619	15:16:30	15:23:27	416535	5.0.10.0	5_exp_RW	57	Rpleas_acq	CS_B	GWWG	BZZB	VKKV	JXXJ	MQQM	YDDY	treu	retten	fair	spielen	ehrlich	schön	tot	rächen	faul	strafen	eitel	schlecht	1	acq_USpleas_CSpleas1_RW	acq4567_RW	4	26	400	1	300	300	374	50	0	1	1	blank2r.bmp	0	1	+	0	1	blank2r.bmp	492	1	GWWG	492	1	blank2r.bmp	572	2	retten	866	1	!	1239	1	!	1279	0	0	0	0	0	0	0	0	0	0	0	0	0	0	0	0	0	0	0	0	0	0	0	0	0	0	0	0	0	0
071619	15:16:30	15:23:29	418641	5.0.10.0	5_exp_RW	57	Rpleas_acq	CS_B	GWWG	BZZB	VKKV	JXXJ	MQQM	YDDY	treu	retten	fair	spielen	ehrlich	schön	tot	rächen	faul	strafen	eitel	schlecht	1	acq_USpleas_CSpleas2_RW	acq4567_RW	4	27	400	0	300	300	332	50	0	1	1	blank2r.bmp	0	1	+	0	1	blank2r.bmp	492	1	BZZB	492	1	blank2r.bmp	572	3	schön	866	1	!	-1	1	!	-1	0	0	0	0	0	0	0	0	0	0	0	0	0	0	0	0	0	0	0	0	0	0	0	0	0	0	0	0	0	0
071619	15:16:30	15:23:31	420707	5.0.10.0	5_exp_RW	57	Rpleas_acq	CS_B	GWWG	BZZB	VKKV	JXXJ	MQQM	YDDY	treu	retten	fair	spielen	ehrlich	schön	tot	rächen	faul	strafen	eitel	schlecht	1	acq_USpleas_CSpleas1_RW	acq4567_RW	4	28	400	0	300	300	287	50	0	1	1	blank2r.bmp	0	1	+	0	1	blank2r.bmp	492	1	GWWG	492	1	blank2r.bmp	572	1	treu	866	1	!	-1	1	!	-1	0	0	0	0	0	0	0	0	0	0	0	0	0	0	0	0	0	0	0	0	0	0	0	0	0	0	0	0	0	0
071619	15:16:30	15:23:33	422813	5.0.10.0	5_exp_RW	57	Rpleas_acq	CS_B	GWWG	BZZB	VKKV	JXXJ	MQQM	YDDY	treu	retten	fair	spielen	ehrlich	schön	tot	rächen	faul	strafen	eitel	schlecht	1	acq_USpleas_CSpleas2_RW	acq4567_RW	4	29	400	0	300	300	325	50	0	1	1	blank2r.bmp	0	1	+	0	1	blank2r.bmp	492	1	BZZB	492	1	blank2r.bmp	572	1	spielen	866	1	!	-1	1	!	-1	0	0	0	0	0	0	0	0	0	0	0	0	0	0	0	0	0	0	0	0	0	0	0	0	0	0	0	0	0	0
071619	15:16:30	15:23:35	424879	5.0.10.0	5_exp_RW	57	Rpleas_acq	CS_B	GWWG	BZZB	VKKV	JXXJ	MQQM	YDDY	treu	retten	fair	spielen	ehrlich	schön	tot	rächen	faul	strafen	eitel	schlecht	1	acq_USunple_CSunple2_RW	acq4567_RW	4	30	400	0	300	300	287	50	0	0	1	blank2r.bmp	0	1	+	0	1	blank2r.bmp	492	1	JXXJ	492	1	blank2r.bmp	572	1	strafen	866	1	!	-1	1	!	-1	0	0	0	0	0	0	0	0	0	0	0	0	0	0	0	0	0	0	0	0	0	0	0	0	0	0	0	0	0	0
071619	15:16:30	15:23:40	430050	5.0.10.0	5_exp_RW	57	Rpleas_acq	CS_B	GWWG	BZZB	VKKV	JXXJ	MQQM	YDDY	treu	retten	fair	spielen	ehrlich	schön	tot	rächen	faul	strafen	eitel	schlecht	1	acq_USpleas_CSpleas1_RW	acq4567_RW	4	31	400	0	300	300	3392	50	0	1	1	blank2r.bmp	0	1	+	0	1	blank2r.bmp	492	1	GWWG	492	1	blank2r.bmp	572	2	retten	866	1	!	1239	1	!	-1	0	0	0	0	0	0	0	0	0	0	0	0	0	0	0	0	0	0	0	0	0	0	0	0	0	0	0	0	0	0
071619	15:16:30	15:23:43	432316	5.0.10.0	5_exp_RW	57	Rpleas_acq	CS_B	GWWG	BZZB	VKKV	JXXJ	MQQM	YDDY	treu	retten	fair	spielen	ehrlich	schön	tot	rächen	faul	strafen	eitel	schlecht	1	acq_USunple_CSunple1_RW	acq4567_RW	4	32	400	1	300	300	442	46	0	1	1	blank2r.bmp	0	1	+	0	1	blank2r.bmp	492	1	VKKV	492	1	blank2r.bmp	572	2	rächen	866	1	!	1239	1	!	1346	0	0	0	0	0	0	0	0	0	0	0	0	0	0	0	0	0	0	0	0	0	0	0	0	0	0	0	0	0	0
071619	15:16:30	15:23:46	435874	5.0.10.0	5_exp_RW	57	Rpleas_acq	CS_B	GWWG	BZZB	VKKV	JXXJ	MQQM	YDDY	treu	retten	fair	spielen	ehrlich	schön	tot	rächen	faul	strafen	eitel	schlecht	1	acq_USunple_CSunple1_RW	acq4567_RW	4	33	400	0	300	300	1793	46	0	1	1	blank2r.bmp	0	1	+	0	1	blank2r.bmp	492	1	VKKV	492	1	blank2r.bmp	572	1	tot	866	1	!	1239	1	!	-1	0	0	0	0	0	0	0	0	0	0	0	0	0	0	0	0	0	0	0	0	0	0	0	0	0	0	0	0	0	0
071619	15:16:30	15:23:48	438140	5.0.10.0	5_exp_RW	57	Rpleas_acq	CS_B	GWWG	BZZB	VKKV	JXXJ	MQQM	YDDY	treu	retten	fair	spielen	ehrlich	schön	tot	rächen	faul	strafen	eitel	schlecht	1	acq_USpleas_CSpleas2_RW	acq4567_RW	4	34	400	0	300	300	479	50	0	1	1	blank2r.bmp	0	1	+	0	1	blank2r.bmp	492	1	BZZB	492	1	blank2r.bmp	572	1	spielen	866	1	!	1239	1	!	-1	0	0	0	0	0	0	0	0	0	0	0	0	0	0	0	0	0	0	0	0	0	0	0	0	0	0	0	0	0	0
071619	15:16:30	15:23:51	440379	5.0.10.0	5_exp_RW	57	Rpleas_acq	CS_B	GWWG	BZZB	VKKV	JXXJ	MQQM	YDDY	treu	retten	fair	spielen	ehrlich	schön	tot	rächen	faul	strafen	eitel	schlecht	1	acq_USpleas_CSpleas2_RW	acq4567_RW	4	35	400	1	300	300	425	50	0	1	1	blank2r.bmp	0	1	+	0	1	blank2r.bmp	492	1	BZZB	492	1	blank2r.bmp	572	3	schön	866	1	!	1239	1	!	1332	0	0	0	0	0	0	0	0	0	0	0	0	0	0	0	0	0	0	0	0	0	0	0	0	0	0	0	0	0	0
071619	15:16:30	15:23:53	442618	5.0.10.0	5_exp_RW	57	Rpleas_acq	CS_B	GWWG	BZZB	VKKV	JXXJ	MQQM	YDDY	treu	retten	fair	spielen	ehrlich	schön	tot	rächen	faul	strafen	eitel	schlecht	1	acq_USunple_CSunple1_RW	acq4567_RW	4	36	400	1	300	300	439	46	0	1	1	blank2r.bmp	0	1	+	0	1	blank2r.bmp	492	1	VKKV	492	1	blank2r.bmp	572	1	tot	866	1	!	1239	1	!	1346	0	0	0	0	0	0	0	0	0	0	0	0	0	0	0	0	0	0	0	0	0	0	0	0	0	0	0	0	0	0
071619	15:16:30	15:23:55	444790	5.0.10.0	5_exp_RW	57	Rpleas_acq	CS_B	GWWG	BZZB	VKKV	JXXJ	MQQM	YDDY	treu	retten	fair	spielen	ehrlich	schön	tot	rächen	faul	strafen	eitel	schlecht	1	acq_USpleas_CSpleas1_RW	acq4567_RW	4	37	400	1	300	300	384	50	0	1	1	blank2r.bmp	0	1	+	0	1	blank2r.bmp	492	1	GWWG	492	1	blank2r.bmp	572	3	fair	866	1	!	1239	1	!	1279	0	0	0	0	0	0	0	0	0	0	0	0	0	0	0	0	0	0	0	0	0	0	0	0	0	0	0	0	0	0
071619	15:16:30	15:23:57	447029	5.0.10.0	5_exp_RW	57	Rpleas_acq	CS_B	GWWG	BZZB	VKKV	JXXJ	MQQM	YDDY	treu	retten	fair	spielen	ehrlich	schön	tot	rächen	faul	strafen	eitel	schlecht	1	acq_USunple_CSunple2_RW	acq4567_RW	4	38	400	1	300	300	452	46	0	1	1	blank2r.bmp	0	1	+	0	1	blank2r.bmp	492	1	JXXJ	492	1	blank2r.bmp	572	3	schlecht	866	1	!	1239	1	!	1346	0	0	0	0	0	0	0	0	0	0	0	0	0	0	0	0	0	0	0	0	0	0	0	0	0	0	0	0	0	0
071619	15:16:30	15:23:59	449175	5.0.10.0	5_exp_RW	57	Rpleas_acq	CS_B	GWWG	BZZB	VKKV	JXXJ	MQQM	YDDY	treu	retten	fair	spielen	ehrlich	schön	tot	rächen	faul	strafen	eitel	schlecht	1	acq_USunple_CSunple2_RW	acq4567_RW	4	39	400	1	300	300	346	50	0	0	1	blank2r.bmp	0	1	+	0	1	blank2r.bmp	492	1	JXXJ	492	1	blank2r.bmp	572	2	eitel	866	1	!	1239	1	!	1252	0	0	0	0	0	0	0	0	0	0	0	0	0	0	0	0	0	0	0	0	0	0	0	0	0	0	0	0	0	0
071619	15:16:30	15:24:02	451494	5.0.10.0	5_exp_RW	57	Rpleas_acq	CS_B	GWWG	BZZB	VKKV	JXXJ	MQQM	YDDY	treu	retten	fair	spielen	ehrlich	schön	tot	rächen	faul	strafen	eitel	schlecht	1	acq_USunple_CSunple1_RW	acq4567_RW	4	40	400	0	300	300	552	46	0	1	1	blank2r.bmp	0	1	+	0	1	blank2r.bmp	492	1	VKKV	492	1	blank2r.bmp	572	3	faul	866	1	!	1239	1	!	-1	0	0	0	0	0	0	0	0	0	0	0	0	0	0	0	0	0	0	0	0	0	0	0	0	0	0	0	0	0	0
071619	15:16:30	15:24:04	453600	5.0.10.0	5_exp_RW	57	Rpleas_acq	CS_B	GWWG	BZZB	VKKV	JXXJ	MQQM	YDDY	treu	retten	fair	spielen	ehrlich	schön	tot	rächen	faul	strafen	eitel	schlecht	1	acq_USunple_CSunple1_RW	acq4567_RW	4	41	400	0	300	300	321	50	0	0	1	blank2r.bmp	0	1	+	0	1	blank2r.bmp	492	1	VKKV	492	1	blank2r.bmp	572	2	rächen	866	1	!	-1	1	!	-1	0	0	0	0	0	0	0	0	0	0	0	0	0	0	0	0	0	0	0	0	0	0	0	0	0	0	0	0	0	0
071619	15:16:30	15:24:06	455799	5.0.10.0	5_exp_RW	57	Rpleas_acq	CS_B	GWWG	BZZB	VKKV	JXXJ	MQQM	YDDY	treu	retten	fair	spielen	ehrlich	schön	tot	rächen	faul	strafen	eitel	schlecht	1	acq_USpleas_CSpleas2_RW	acq4567_RW	4	42	400	1	300	300	397	50	0	1	1	blank2r.bmp	0	1	+	0	1	blank2r.bmp	492	1	BZZB	492	1	blank2r.bmp	572	2	ehrlich	866	1	!	1239	1	!	1292	0	0	0	0	0	0	0	0	0	0	0	0	0	0	0	0	0	0	0	0	0	0	0	0	0	0	0	0	0	0
071619	15:16:30	15:24:08	458118	5.0.10.0	5_exp_RW	57	Rpleas_acq	CS_B	GWWG	BZZB	VKKV	JXXJ	MQQM	YDDY	treu	retten	fair	spielen	ehrlich	schön	tot	rächen	faul	strafen	eitel	schlecht	1	acq_USunple_CSunple2_RW	acq4567_RW	4	43	400	0	300	300	549	46	0	1	1	blank2r.bmp	0	1	+	0	1	blank2r.bmp	492	1	JXXJ	492	1	blank2r.bmp	572	1	strafen	866	1	!	1239	1	!	-1	0	0	0	0	0	0	0	0	0	0	0	0	0	0	0	0	0	0	0	0	0	0	0	0	0	0	0	0	0	0
071619	15:16:30	15:24:11	460384	5.0.10.0	5_exp_RW	57	Rpleas_acq	CS_B	GWWG	BZZB	VKKV	JXXJ	MQQM	YDDY	treu	retten	fair	spielen	ehrlich	schön	tot	rächen	faul	strafen	eitel	schlecht	1	acq_USpleas_CSpleas1_RW	acq4567_RW	4	44	400	0	300	300	487	50	0	1	1	blank2r.bmp	0	1	+	0	1	blank2r.bmp	492	1	GWWG	492	1	blank2r.bmp	572	1	treu	866	1	!	1239	1	!	-1	0	0	0	0	0	0	0	0	0	0	0	0	0	0	0	0	0	0	0	0	0	0	0	0	0	0	0	0	0	0
071619	15:16:30	15:24:16	465582	5.0.10.0	5_exp_RW	57	Rpleas_acq	CS_B	GWWG	BZZB	VKKV	JXXJ	MQQM	YDDY	treu	retten	fair	spielen	ehrlich	schön	tot	rächen	faul	strafen	eitel	schlecht	1	acq_USunple_CSunple2_RW	acq4567_RW	4	45	400	0	300	300	3418	50	0	0	1	blank2r.bmp	0	1	+	0	1	blank2r.bmp	492	1	JXXJ	492	1	blank2r.bmp	572	2	eitel	866	1	!	1239	1	!	-1	0	0	0	0	0	0	0	0	0	0	0	0	0	0	0	0	0	0	0	0	0	0	0	0	0	0	0	0	0	0
071619	15:16:30	15:24:18	467768	5.0.10.0	5_exp_RW	57	Rpleas_acq	CS_B	GWWG	BZZB	VKKV	JXXJ	MQQM	YDDY	treu	retten	fair	spielen	ehrlich	schön	tot	rächen	faul	strafen	eitel	schlecht	1	acq_USunple_CSunple1_RW	acq4567_RW	4	46	400	1	300	300	384	50	0	0	1	blank2r.bmp	0	1	+	0	1	blank2r.bmp	492	1	VKKV	492	1	blank2r.bmp	572	2	rächen	866	1	!	1239	1	!	1279	0	0	0	0	0	0	0	0	0	0	0	0	0	0	0	0	0	0	0	0	0	0	0	0	0	0	0	0	0	0
071619	15:16:30	15:24:22	471260	5.0.10.0	5_exp_RW	57	Rpleas_acq	CS_B	GWWG	BZZB	VKKV	JXXJ	MQQM	YDDY	treu	retten	fair	spielen	ehrlich	schön	tot	rächen	faul	strafen	eitel	schlecht	1	acq_USpleas_CSpleas1_RW	acq4567_RW	4	47	400	0	300	300	1709	46	0	0	1	blank2r.bmp	0	1	+	0	1	blank2r.bmp	492	1	GWWG	492	1	blank2r.bmp	572	1	treu	866	1	!	1239	1	!	-1	0	0	0	0	0	0	0	0	0	0	0	0	0	0	0	0	0	0	0	0	0	0	0	0	0	0	0	0	0	0
071619	15:16:30	15:24:24	473472	5.0.10.0	5_exp_RW	57	Rpleas_acq	CS_B	GWWG	BZZB	VKKV	JXXJ	MQQM	YDDY	treu	retten	fair	spielen	ehrlich	schön	tot	rächen	faul	strafen	eitel	schlecht	1	acq_USunple_CSunple2_RW	acq4567_RW	4	48	400	1	300	300	399	50	0	0	1	blank2r.bmp	0	1	+	0	1	blank2r.bmp	492	1	JXXJ	492	1	blank2r.bmp	572	1	strafen	866	1	!	1239	1	!	1306	0	0	0	0	0	0	0	0	0	0	0	0	0	0	0	0	0	0	0	0	0	0	0	0	0	0	0	0	0	0
071619	15:16:30	15:24:26	475831	5.0.10.0	5_exp_RW	57	Rpleas_acq	CS_B	GWWG	BZZB	VKKV	JXXJ	MQQM	YDDY	treu	retten	fair	spielen	ehrlich	schön	tot	rächen	faul	strafen	eitel	schlecht	1	acq_USunple_CSunple2_RW	acq4567_RW	4	49	400	0	300	300	587	46	0	1	1	blank2r.bmp	0	1	+	0	1	blank2r.bmp	492	1	JXXJ	492	1	blank2r.bmp	572	3	schlecht	866	1	!	1239	1	!	-1	0	0	0	0	0	0	0	0	0	0	0	0	0	0	0	0	0	0	0	0	0	0	0	0	0	0	0	0	0	0
071619	15:16:30	15:24:29	478323	5.0.10.0	5_exp_RW	57	Rpleas_acq	CS_B	GWWG	BZZB	VKKV	JXXJ	MQQM	YDDY	treu	retten	fair	spielen	ehrlich	schön	tot	rächen	faul	strafen	eitel	schlecht	1	acq_USpleas_CSpleas2_RW	acq4567_RW	4	50	400	0	300	300	710	50	0	1	1	blank2r.bmp	0	1	+	0	1	blank2r.bmp	492	1	BZZB	492	1	blank2r.bmp	572	1	spielen	866	1	!	1239	1	!	-1	0	0	0	0	0	0	0	0	0	0	0	0	0	0	0	0	0	0	0	0	0	0	0	0	0	0	0	0	0	0
071619	15:16:30	15:24:31	480522	5.0.10.0	5_exp_RW	57	Rpleas_acq	CS_B	GWWG	BZZB	VKKV	JXXJ	MQQM	YDDY	treu	retten	fair	spielen	ehrlich	schön	tot	rächen	faul	strafen	eitel	schlecht	1	acq_USunple_CSunple2_RW	acq4567_RW	4	51	400	1	300	300	397	46	0	1	1	blank2r.bmp	0	1	+	0	1	blank2r.bmp	492	1	JXXJ	492	1	blank2r.bmp	572	3	schlecht	866	1	!	1239	1	!	1292	0	0	0	0	0	0	0	0	0	0	0	0	0	0	0	0	0	0	0	0	0	0	0	0	0	0	0	0	0	0
071619	15:16:30	15:24:33	482682	5.0.10.0	5_exp_RW	57	Rpleas_acq	CS_B	GWWG	BZZB	VKKV	JXXJ	MQQM	YDDY	treu	retten	fair	spielen	ehrlich	schön	tot	rächen	faul	strafen	eitel	schlecht	1	acq_USpleas_CSpleas2_RW	acq4567_RW	4	52	400	1	300	300	367	50	0	1	1	blank2r.bmp	0	1	+	0	1	blank2r.bmp	492	1	BZZB	492	1	blank2r.bmp	572	2	ehrlich	866	1	!	1239	1	!	1266	0	0	0	0	0	0	0	0	0	0	0	0	0	0	0	0	0	0	0	0	0	0	0	0	0	0	0	0	0	0
071619	15:16:30	15:24:35	484947	5.0.10.0	5_exp_RW	57	Rpleas_acq	CS_B	GWWG	BZZB	VKKV	JXXJ	MQQM	YDDY	treu	retten	fair	spielen	ehrlich	schön	tot	rächen	faul	strafen	eitel	schlecht	1	acq_USpleas_CSpleas1_RW	acq4567_RW	4	53	400	0	300	300	483	50	0	1	1	blank2r.bmp	0	1	+	0	1	blank2r.bmp	492	1	GWWG	492	1	blank2r.bmp	572	3	fair	866	1	!	1239	1	!	-1	0	0	0	0	0	0	0	0	0	0	0	0	0	0	0	0	0	0	0	0	0	0	0	0	0	0	0	0	0	0
071619	15:16:30	15:24:38	487400	5.0.10.0	5_exp_RW	57	Rpleas_acq	CS_B	GWWG	BZZB	VKKV	JXXJ	MQQM	YDDY	treu	retten	fair	spielen	ehrlich	schön	tot	rächen	faul	strafen	eitel	schlecht	1	acq_USpleas_CSpleas1_RW	acq4567_RW	4	54	400	0	300	300	671	46	0	0	1	blank2r.bmp	0	1	+	0	1	blank2r.bmp	492	1	GWWG	492	1	blank2r.bmp	572	2	retten	866	1	!	1239	1	!	-1	0	0	0	0	0	0	0	0	0	0	0	0	0	0	0	0	0	0	0	0	0	0	0	0	0	0	0	0	0	0
071619	15:16:30	15:24:40	489492	5.0.10.0	5_exp_RW	57	Rpleas_acq	CS_B	GWWG	BZZB	VKKV	JXXJ	MQQM	YDDY	treu	retten	fair	spielen	ehrlich	schön	tot	rächen	faul	strafen	eitel	schlecht	1	acq_USunple_CSunple1_RW	acq4567_RW	4	55	400	0	300	300	314	50	0	0	1	blank2r.bmp	0	1	+	0	1	blank2r.bmp	492	1	VKKV	492	1	blank2r.bmp	572	3	faul	866	1	!	-1	1	!	-1	0	0	0	0	0	0	0	0	0	0	0	0	0	0	0	0	0	0	0	0	0	0	0	0	0	0	0	0	0	0
071619	15:16:30	15:24:42	491838	5.0.10.0	5_exp_RW	57	Rpleas_acq	CS_B	GWWG	BZZB	VKKV	JXXJ	MQQM	YDDY	treu	retten	fair	spielen	ehrlich	schön	tot	rächen	faul	strafen	eitel	schlecht	1	acq_USpleas_CSpleas2_RW	acq4567_RW	4	56	400	0	300	300	566	50	0	1	1	blank2r.bmp	0	1	+	0	1	blank2r.bmp	492	1	BZZB	492	1	blank2r.bmp	572	3	schön	866	1	!	1239	1	!	-1	0	0	0	0	0	0	0	0	0	0	0	0	0	0	0	0	0	0	0	0	0	0	0	0	0	0	0	0	0	0
071619	15:16:30	15:24:44	494197	5.0.10.0	5_exp_RW	57	Rpleas_acq	CS_B	GWWG	BZZB	VKKV	JXXJ	MQQM	YDDY	treu	retten	fair	spielen	ehrlich	schön	tot	rächen	faul	strafen	eitel	schlecht	1	acq_USunple_CSunple1_RW	acq4567_RW	4	57	400	0	300	300	572	46	0	1	1	blank2r.bmp	0	1	+	0	1	blank2r.bmp	492	1	VKKV	492	1	blank2r.bmp	572	1	tot	866	1	!	1239	1	!	-1	0	0	0	0	0	0	0	0	0	0	0	0	0	0	0	0	0	0	0	0	0	0	0	0	0	0	0	0	0	0
071619	15:16:30	15:24:47	496303	5.0.10.0	5_exp_RW	57	Rpleas_acq	CS_B	GWWG	BZZB	VKKV	JXXJ	MQQM	YDDY	treu	retten	fair	spielen	ehrlich	schön	tot	rächen	faul	strafen	eitel	schlecht	1	acq_USunple_CSunple1_RW	acq4567_RW	4	58	400	0	300	300	317	50	0	0	1	blank2r.bmp	0	1	+	0	1	blank2r.bmp	492	1	VKKV	492	1	blank2r.bmp	572	1	tot	866	1	!	-1	1	!	-1	0	0	0	0	0	0	0	0	0	0	0	0	0	0	0	0	0	0	0	0	0	0	0	0	0	0	0	0	0	0
071619	15:16:30	15:24:52	502194	5.0.10.0	5_exp_RW	57	Rpleas_acq	CS_B	GWWG	BZZB	VKKV	JXXJ	MQQM	YDDY	treu	retten	fair	spielen	ehrlich	schön	tot	rächen	faul	strafen	eitel	schlecht	1	acq_USpleas_CSpleas2_RW	acq4567_RW	4	59	400	0	300	300	4096	50	0	1	1	blank2r.bmp	0	1	+	0	1	blank2r.bmp	492	1	BZZB	492	1	blank2r.bmp	572	3	schön	866	1	!	1239	1	!	-1	0	0	0	0	0	0	0	0	0	0	0	0	0	0	0	0	0	0	0	0	0	0	0	0	0	0	0	0	0	0
071619	15:16:30	15:24:55	504353	5.0.10.0	5_exp_RW	57	Rpleas_acq	CS_B	GWWG	BZZB	VKKV	JXXJ	MQQM	YDDY	treu	retten	fair	spielen	ehrlich	schön	tot	rächen	faul	strafen	eitel	schlecht	1	acq_USpleas_CSpleas1_RW	acq4567_RW	4	60	400	1	300	300	346	46	0	0	1	blank2r.bmp	0	1	+	0	1	blank2r.bmp	492	1	GWWG	492	1	blank2r.bmp	572	3	fair	866	1	!	1239	1	!	1252	0	0	0	0	0	0	0	0	0	0	0	0	0	0	0	0	0	0	0	0	0	0	0	0	0	0	0	0	0	0
071619	15:16:30	15:24:57	506498	5.0.10.0	5_exp_RW	57	Rpleas_acq	CS_B	GWWG	BZZB	VKKV	JXXJ	MQQM	YDDY	treu	retten	fair	spielen	ehrlich	schön	tot	rächen	faul	strafen	eitel	schlecht	1	acq_USpleas_CSpleas1_RW	acq4567_RW	4	61	400	1	300	300	346	50	0	1	1	blank2r.bmp	0	1	+	0	1	blank2r.bmp	492	1	GWWG	492	1	blank2r.bmp	572	1	treu	866	1	!	1239	1	!	1252	0	0	0	0	0	0	0	0	0	0	0	0	0	0	0	0	0	0	0	0	0	0	0	0	0	0	0	0	0	0
071619	15:16:30	15:24:59	508644	5.0.10.0	5_exp_RW	57	Rpleas_acq	CS_B	GWWG	BZZB	VKKV	JXXJ	MQQM	YDDY	treu	retten	fair	spielen	ehrlich	schön	tot	rächen	faul	strafen	eitel	schlecht	1	acq_USpleas_CSpleas2_RW	acq4567_RW	4	62	400	1	300	300	346	50	0	1	1	blank2r.bmp	0	1	+	0	1	blank2r.bmp	492	1	BZZB	492	1	blank2r.bmp	572	2	ehrlich	866	1	!	1239	1	!	1252	0	0	0	0	0	0	0	0	0	0	0	0	0	0	0	0	0	0	0	0	0	0	0	0	0	0	0	0	0	0
071619	15:16:30	15:25:01	511083	5.0.10.0	5_exp_RW	57	Rpleas_acq	CS_B	GWWG	BZZB	VKKV	JXXJ	MQQM	YDDY	treu	retten	fair	spielen	ehrlich	schön	tot	rächen	faul	strafen	eitel	schlecht	1	acq_USunple_CSunple1_RW	acq4567_RW	4	63	400	0	300	300	664	50	0	0	1	blank2r.bmp	0	1	+	0	1	blank2r.bmp	492	1	VKKV	492	1	blank2r.bmp	572	3	faul	866	1	!	1239	1	!	-1	0	0	0	0	0	0	0	0	0	0	0	0	0	0	0	0	0	0	0	0	0	0	0	0	0	0	0	0	0	0
071619	15:16:30	15:25:04	513349	5.0.10.0	5_exp_RW	57	Rpleas_acq	CS_B	GWWG	BZZB	VKKV	JXXJ	MQQM	YDDY	treu	retten	fair	spielen	ehrlich	schön	tot	rächen	faul	strafen	eitel	schlecht	1	acq_USpleas_CSpleas2_RW	acq4567_RW	4	64	400	0	300	300	479	50	0	1	1	blank2r.bmp	0	1	+	0	1	blank2r.bmp	492	1	BZZB	492	1	blank2r.bmp	572	1	spielen	866	1	!	1239	1	!	-1	0	0	0	0	0	0	0	0	0	0	0	0	0	0	0	0	0	0	0	0	0	0	0	0	0	0	0	0	0	0
071619	15:16:30	15:25:06	515548	5.0.10.0	5_exp_RW	57	Rpleas_acq	CS_B	GWWG	BZZB	VKKV	JXXJ	MQQM	YDDY	treu	retten	fair	spielen	ehrlich	schön	tot	rächen	faul	strafen	eitel	schlecht	1	acq_USpleas_CSpleas1_RW	acq4567_RW	4	65	400	1	300	300	392	50	0	1	1	blank2r.bmp	0	1	+	0	1	blank2r.bmp	492	1	GWWG	492	1	blank2r.bmp	572	2	retten	866	1	!	1239	1	!	1292	0	0	0	0	0	0	0	0	0	0	0	0	0	0	0	0	0	0	0	0	0	0	0	0	0	0	0	0	0	0
071619	15:16:30	15:25:08	518000	5.0.10.0	5_exp_RW	57	Rpleas_acq	CS_B	GWWG	BZZB	VKKV	JXXJ	MQQM	YDDY	treu	retten	fair	spielen	ehrlich	schön	tot	rächen	faul	strafen	eitel	schlecht	1	acq_USunple_CSunple2_RW	acq4567_RW	4	66	400	0	300	300	677	46	0	1	1	blank2r.bmp	0	1	+	0	1	blank2r.bmp	492	1	JXXJ	492	1	blank2r.bmp	572	1	strafen	866	1	!	1239	1	!	-1	0	0	0	0	0	0	0	0	0	0	0	0	0	0	0	0	0	0	0	0	0	0	0	0	0	0	0	0	0	0
071619	15:16:30	15:25:10	520173	5.0.10.0	5_exp_RW	57	Rpleas_acq	CS_B	GWWG	BZZB	VKKV	JXXJ	MQQM	YDDY	treu	retten	fair	spielen	ehrlich	schön	tot	rächen	faul	strafen	eitel	schlecht	1	acq_USpleas_CSpleas2_RW	acq4567_RW	4	67	400	1	300	300	346	50	0	1	1	blank2r.bmp	0	1	+	0	1	blank2r.bmp	492	1	BZZB	492	1	blank2r.bmp	572	2	ehrlich	866	1	!	1239	1	!	1252	0	0	0	0	0	0	0	0	0	0	0	0	0	0	0	0	0	0	0	0	0	0	0	0	0	0	0	0	0	0
071619	15:16:30	15:25:13	522385	5.0.10.0	5_exp_RW	57	Rpleas_acq	CS_B	GWWG	BZZB	VKKV	JXXJ	MQQM	YDDY	treu	retten	fair	spielen	ehrlich	schön	tot	rächen	faul	strafen	eitel	schlecht	1	acq_USunple_CSunple1_RW	acq4567_RW	4	68	400	1	300	300	416	50	0	0	1	blank2r.bmp	0	1	+	0	1	blank2r.bmp	492	1	VKKV	492	1	blank2r.bmp	572	2	rächen	866	1	!	1239	1	!	1319	0	0	0	0	0	0	0	0	0	0	0	0	0	0	0	0	0	0	0	0	0	0	0	0	0	0	0	0	0	0
071619	15:16:30	15:25:18	528156	5.0.10.0	5_exp_RW	57	Rpleas_acq	CS_B	GWWG	BZZB	VKKV	JXXJ	MQQM	YDDY	treu	retten	fair	spielen	ehrlich	schön	tot	rächen	faul	strafen	eitel	schlecht	1	acq_USpleas_CSpleas2_RW	acq4567_RW	4	69	400	0	300	300	4007	50	0	1	1	blank2r.bmp	0	1	+	0	1	blank2r.bmp	492	1	BZZB	492	1	blank2r.bmp	572	3	schön	866	1	!	1239	1	!	-1	0	0	0	0	0	0	0	0	0	0	0	0	0	0	0	0	0	0	0	0	0	0	0	0	0	0	0	0	0	0
071619	15:16:30	15:25:21	530435	5.0.10.0	5_exp_RW	57	Rpleas_acq	CS_B	GWWG	BZZB	VKKV	JXXJ	MQQM	YDDY	treu	retten	fair	spielen	ehrlich	schön	tot	rächen	faul	strafen	eitel	schlecht	1	acq_USunple_CSunple2_RW	acq4567_RW	4	70	400	1	300	300	457	50	0	0	1	blank2r.bmp	0	1	+	0	1	blank2r.bmp	492	1	JXXJ	492	1	blank2r.bmp	572	2	eitel	866	1	!	1239	1	!	1359	0	0	0	0	0	0	0	0	0	0	0	0	0	0	0	0	0	0	0	0	0	0	0	0	0	0	0	0	0	0
071619	15:16:30	15:25:23	532621	5.0.10.0	5_exp_RW	57	Rpleas_acq	CS_B	GWWG	BZZB	VKKV	JXXJ	MQQM	YDDY	treu	retten	fair	spielen	ehrlich	schön	tot	rächen	faul	strafen	eitel	schlecht	1	acq_USunple_CSunple2_RW	acq4567_RW	4	71	400	1	300	300	387	46	0	1	1	blank2r.bmp	0	1	+	0	1	blank2r.bmp	492	1	JXXJ	492	1	blank2r.bmp	572	3	schlecht	866	1	!	1239	1	!	1292	0	0	0	0	0	0	0	0	0	0	0	0	0	0	0	0	0	0	0	0	0	0	0	0	0	0	0	0	0	0
071619	15:16:30	15:25:25	535033	5.0.10.0	5_exp_RW	57	Rpleas_acq	CS_B	GWWG	BZZB	VKKV	JXXJ	MQQM	YDDY	treu	retten	fair	spielen	ehrlich	schön	tot	rächen	faul	strafen	eitel	schlecht	1	acq_USpleas_CSpleas1_RW	acq4567_RW	4	72	400	0	300	300	638	46	0	0	1	blank2r.bmp	0	1	+	0	1	blank2r.bmp	492	1	GWWG	492	1	blank2r.bmp	572	3	fair	866	1	!	1239	1	!	-1	0	0	0	0	0	0	0	0	0	0	0	0	0	0	0	0	0	0	0	0	0	0	0	0	0	0	0	0	0	0
071619	15:16:30	15:25:28	537219	5.0.10.0	5_exp_RW	57	Rpleas_acq	CS_B	GWWG	BZZB	VKKV	JXXJ	MQQM	YDDY	treu	retten	fair	spielen	ehrlich	schön	tot	rächen	faul	strafen	eitel	schlecht	1	acq_USpleas_CSpleas1_RW	acq4567_RW	4	73	400	1	300	300	378	50	0	1	1	blank2r.bmp	0	1	+	0	1	blank2r.bmp	492	1	GWWG	492	1	blank2r.bmp	572	1	treu	866	1	!	1239	1	!	1279	0	0	0	0	0	0	0	0	0	0	0	0	0	0	0	0	0	0	0	0	0	0	0	0	0	0	0	0	0	0
071619	15:16:30	15:25:30	539458	5.0.10.0	5_exp_RW	57	Rpleas_acq	CS_B	GWWG	BZZB	VKKV	JXXJ	MQQM	YDDY	treu	retten	fair	spielen	ehrlich	schön	tot	rächen	faul	strafen	eitel	schlecht	1	acq_USunple_CSunple2_RW	acq4567_RW	4	74	400	1	300	300	432	46	0	1	1	blank2r.bmp	0	1	+	0	1	blank2r.bmp	492	1	JXXJ	492	1	blank2r.bmp	572	1	strafen	866	1	!	1239	1	!	1332	0	0	0	0	0	0	0	0	0	0	0	0	0	0	0	0	0	0	0	0	0	0	0	0	0	0	0	0	0	0
071619	15:16:30	15:25:32	541737	5.0.10.0	5_exp_RW	57	Rpleas_acq	CS_B	GWWG	BZZB	VKKV	JXXJ	MQQM	YDDY	treu	retten	fair	spielen	ehrlich	schön	tot	rächen	faul	strafen	eitel	schlecht	1	acq_USunple_CSunple1_RW	acq4567_RW	4	75	400	0	300	300	517	46	0	1	1	blank2r.bmp	0	1	+	0	1	blank2r.bmp	492	1	VKKV	492	1	blank2r.bmp	572	2	rächen	866	1	!	1239	1	!	-1	0	0	0	0	0	0	0	0	0	0	0	0	0	0	0	0	0	0	0	0	0	0	0	0	0	0	0	0	0	0
071619	15:16:30	15:25:34	544003	5.0.10.0	5_exp_RW	57	Rpleas_acq	CS_B	GWWG	BZZB	VKKV	JXXJ	MQQM	YDDY	treu	retten	fair	spielen	ehrlich	schön	tot	rächen	faul	strafen	eitel	schlecht	1	acq_USunple_CSunple1_RW	acq4567_RW	4	76	400	1	300	300	463	46	0	1	1	blank2r.bmp	0	1	+	0	1	blank2r.bmp	492	1	VKKV	492	1	blank2r.bmp	572	1	tot	866	1	!	1239	1	!	1359	0	0	0	0	0	0	0	0	0	0	0	0	0	0	0	0	0	0	0	0	0	0	0	0	0	0	0	0	0	0
071619	15:16:30	15:25:37	546269	5.0.10.0	5_exp_RW	57	Rpleas_acq	CS_B	GWWG	BZZB	VKKV	JXXJ	MQQM	YDDY	treu	retten	fair	spielen	ehrlich	schön	tot	rächen	faul	strafen	eitel	schlecht	1	acq_USunple_CSunple1_RW	acq4567_RW	4	77	400	0	300	300	485	46	0	1	1	blank2r.bmp	0	1	+	0	1	blank2r.bmp	492	1	VKKV	492	1	blank2r.bmp	572	3	faul	866	1	!	1239	1	!	-1	0	0	0	0	0	0	0	0	0	0	0	0	0	0	0	0	0	0	0	0	0	0	0	0	0	0	0	0	0	0
071619	15:16:30	15:25:39	548495	5.0.10.0	5_exp_RW	57	Rpleas_acq	CS_B	GWWG	BZZB	VKKV	JXXJ	MQQM	YDDY	treu	retten	fair	spielen	ehrlich	schön	tot	rächen	faul	strafen	eitel	schlecht	1	acq_USpleas_CSpleas2_RW	acq4567_RW	4	78	400	1	300	300	408	50	0	1	1	blank2r.bmp	0	1	+	0	1	blank2r.bmp	492	1	BZZB	492	1	blank2r.bmp	572	1	spielen	866	1	!	1239	1	!	1306	0	0	0	0	0	0	0	0	0	0	0	0	0	0	0	0	0	0	0	0	0	0	0	0	0	0	0	0	0	0
071619	15:16:30	15:25:41	550814	5.0.10.0	5_exp_RW	57	Rpleas_acq	CS_B	GWWG	BZZB	VKKV	JXXJ	MQQM	YDDY	treu	retten	fair	spielen	ehrlich	schön	tot	rächen	faul	strafen	eitel	schlecht	1	acq_USunple_CSunple2_RW	acq4567_RW	4	79	400	0	300	300	554	50	0	0	1	blank2r.bmp	0	1	+	0	1	blank2r.bmp	492	1	JXXJ	492	1	blank2r.bmp	572	2	eitel	866	1	!	1239	1	!	-1	0	0	0	0	0	0	0	0	0	0	0	0	0	0	0	0	0	0	0	0	0	0	0	0	0	0	0	0	0	0
071619	15:16:30	15:25:44	553226	5.0.10.0	5_exp_RW	57	Rpleas_acq	CS_B	GWWG	BZZB	VKKV	JXXJ	MQQM	YDDY	treu	retten	fair	spielen	ehrlich	schön	tot	rächen	faul	strafen	eitel	schlecht	1	acq_USpleas_CSpleas1_RW	acq4567_RW	4	80	400	0	300	300	631	50	0	1	1	blank2r.bmp	0	1	+	0	1	blank2r.bmp	492	1	GWWG	492	1	blank2r.bmp	572	2	retten	866	1	!	1239	1	!	-1	0	0	0	0	0	0	0	0	0	0	0	0	0	0	0	0	0	0	0	0	0	0	0	0	0	0	0	0	0	0
071619	15:16:30	15:25:56	565714	5.0.10.0	5_exp_RW	57	Rpleas_acq	CS_B	GWWG	BZZB	VKKV	JXXJ	MQQM	YDDY	treu	retten	fair	spielen	ehrlich	schön	tot	rächen	faul	strafen	eitel	schlecht	1	acq_USpleas_CSpleas2_RW	acq4567_RW	5	1	400	1	300	300	393	50	0	1	1	blank2r.bmp	0	1	+	0	1	blank2r.bmp	492	1	BZZB	492	1	blank2r.bmp	572	2	ehrlich	866	1	!	1239	1	!	1292	0	0	0	0	0	0	0	0	0	0	0	0	0	0	0	0	0	0	0	0	0	0	0	0	0	0	0	0	0	0
071619	15:16:30	15:25:58	567807	5.0.10.0	5_exp_RW	57	Rpleas_acq	CS_B	GWWG	BZZB	VKKV	JXXJ	MQQM	YDDY	treu	retten	fair	spielen	ehrlich	schön	tot	rächen	faul	strafen	eitel	schlecht	1	acq_USpleas_CSpleas2_RW	acq4567_RW	5	2	400	0	300	300	323	50	0	1	1	blank2r.bmp	0	1	+	0	1	blank2r.bmp	492	1	BZZB	492	1	blank2r.bmp	572	3	schön	866	1	!	-1	1	!	-1	0	0	0	0	0	0	0	0	0	0	0	0	0	0	0	0	0	0	0	0	0	0	0	0	0	0	0	0	0	0
071619	15:16:30	15:26:00	569899	5.0.10.0	5_exp_RW	57	Rpleas_acq	CS_B	GWWG	BZZB	VKKV	JXXJ	MQQM	YDDY	treu	retten	fair	spielen	ehrlich	schön	tot	rächen	faul	strafen	eitel	schlecht	1	acq_USpleas_CSpleas2_RW	acq4567_RW	5	3	400	0	300	300	315	50	0	1	1	blank2r.bmp	0	1	+	0	1	blank2r.bmp	492	1	BZZB	492	1	blank2r.bmp	572	1	spielen	866	1	!	-1	1	!	-1	0	0	0	0	0	0	0	0	0	0	0	0	0	0	0	0	0	0	0	0	0	0	0	0	0	0	0	0	0	0
071619	15:16:30	15:26:02	572205	5.0.10.0	5_exp_RW	57	Rpleas_acq	CS_B	GWWG	BZZB	VKKV	JXXJ	MQQM	YDDY	treu	retten	fair	spielen	ehrlich	schön	tot	rächen	faul	strafen	eitel	schlecht	1	acq_USunple_CSunple2_RW	acq4567_RW	5	4	400	0	300	300	530	46	0	1	1	blank2r.bmp	0	1	+	0	1	blank2r.bmp	492	1	JXXJ	492	1	blank2r.bmp	572	3	schlecht	866	1	!	1239	1	!	-1	0	0	0	0	0	0	0	0	0	0	0	0	0	0	0	0	0	0	0	0	0	0	0	0	0	0	0	0	0	0
071619	15:16:30	15:26:05	574377	5.0.10.0	5_exp_RW	57	Rpleas_acq	CS_B	GWWG	BZZB	VKKV	JXXJ	MQQM	YDDY	treu	retten	fair	spielen	ehrlich	schön	tot	rächen	faul	strafen	eitel	schlecht	1	acq_USunple_CSunple1_RW	acq4567_RW	5	5	400	1	300	300	368	46	0	1	1	blank2r.bmp	0	1	+	0	1	blank2r.bmp	492	1	VKKV	492	1	blank2r.bmp	572	2	rächen	866	1	!	1239	1	!	1266	0	0	0	0	0	0	0	0	0	0	0	0	0	0	0	0	0	0	0	0	0	0	0	0	0	0	0	0	0	0
071619	15:16:30	15:26:07	576616	5.0.10.0	5_exp_RW	57	Rpleas_acq	CS_B	GWWG	BZZB	VKKV	JXXJ	MQQM	YDDY	treu	retten	fair	spielen	ehrlich	schön	tot	rächen	faul	strafen	eitel	schlecht	1	acq_USunple_CSunple1_RW	acq4567_RW	5	6	400	1	300	300	428	46	0	1	1	blank2r.bmp	0	1	+	0	1	blank2r.bmp	492	1	VKKV	492	1	blank2r.bmp	572	1	tot	866	1	!	1239	1	!	1332	0	0	0	0	0	0	0	0	0	0	0	0	0	0	0	0	0	0	0	0	0	0	0	0	0	0	0	0	0	0
071619	15:16:30	15:26:09	578776	5.0.10.0	5_exp_RW	57	Rpleas_acq	CS_B	GWWG	BZZB	VKKV	JXXJ	MQQM	YDDY	treu	retten	fair	spielen	ehrlich	schön	tot	rächen	faul	strafen	eitel	schlecht	1	acq_USpleas_CSpleas1_RW	acq4567_RW	5	7	400	1	300	300	361	46	0	0	1	blank2r.bmp	0	1	+	0	1	blank2r.bmp	492	1	GWWG	492	1	blank2r.bmp	572	3	fair	866	1	!	1239	1	!	1266	0	0	0	0	0	0	0	0	0	0	0	0	0	0	0	0	0	0	0	0	0	0	0	0	0	0	0	0	0	0
071619	15:16:30	15:26:12	581255	5.0.10.0	5_exp_RW	57	Rpleas_acq	CS_B	GWWG	BZZB	VKKV	JXXJ	MQQM	YDDY	treu	retten	fair	spielen	ehrlich	schön	tot	rächen	faul	strafen	eitel	schlecht	1	acq_USpleas_CSpleas1_RW	acq4567_RW	5	8	400	0	300	300	698	46	0	0	1	blank2r.bmp	0	1	+	0	1	blank2r.bmp	492	1	GWWG	492	1	blank2r.bmp	572	2	retten	866	1	!	1239	1	!	-1	0	0	0	0	0	0	0	0	0	0	0	0	0	0	0	0	0	0	0	0	0	0	0	0	0	0	0	0	0	0
071619	15:16:30	15:26:14	583414	5.0.10.0	5_exp_RW	57	Rpleas_acq	CS_B	GWWG	BZZB	VKKV	JXXJ	MQQM	YDDY	treu	retten	fair	spielen	ehrlich	schön	tot	rächen	faul	strafen	eitel	schlecht	1	acq_USpleas_CSpleas2_RW	acq4567_RW	5	9	400	1	300	300	346	50	0	1	1	blank2r.bmp	0	1	+	0	1	blank2r.bmp	492	1	BZZB	492	1	blank2r.bmp	572	3	schön	866	1	!	1239	1	!	1252	0	0	0	0	0	0	0	0	0	0	0	0	0	0	0	0	0	0	0	0	0	0	0	0	0	0	0	0	0	0
071619	15:16:30	15:26:16	585506	5.0.10.0	5_exp_RW	57	Rpleas_acq	CS_B	GWWG	BZZB	VKKV	JXXJ	MQQM	YDDY	treu	retten	fair	spielen	ehrlich	schön	tot	rächen	faul	strafen	eitel	schlecht	1	acq_USpleas_CSpleas1_RW	acq4567_RW	5	10	400	0	300	300	326	50	0	1	1	blank2r.bmp	0	1	+	0	1	blank2r.bmp	492	1	GWWG	492	1	blank2r.bmp	572	1	treu	866	1	!	-1	1	!	-1	0	0	0	0	0	0	0	0	0	0	0	0	0	0	0	0	0	0	0	0	0	0	0	0	0	0	0	0	0	0
071619	15:16:30	15:26:18	587785	5.0.10.0	5_exp_RW	57	Rpleas_acq	CS_B	GWWG	BZZB	VKKV	JXXJ	MQQM	YDDY	treu	retten	fair	spielen	ehrlich	schön	tot	rächen	faul	strafen	eitel	schlecht	1	acq_USunple_CSunple2_RW	acq4567_RW	5	11	400	0	300	300	496	46	0	1	1	blank2r.bmp	0	1	+	0	1	blank2r.bmp	492	1	JXXJ	492	1	blank2r.bmp	572	1	strafen	866	1	!	1239	1	!	-1	0	0	0	0	0	0	0	0	0	0	0	0	0	0	0	0	0	0	0	0	0	0	0	0	0	0	0	0	0	0
071619	15:16:30	15:26:20	590131	5.0.10.0	5_exp_RW	57	Rpleas_acq	CS_B	GWWG	BZZB	VKKV	JXXJ	MQQM	YDDY	treu	retten	fair	spielen	ehrlich	schön	tot	rächen	faul	strafen	eitel	schlecht	1	acq_USunple_CSunple2_RW	acq4567_RW	5	12	400	0	300	300	562	50	0	0	1	blank2r.bmp	0	1	+	0	1	blank2r.bmp	492	1	JXXJ	492	1	blank2r.bmp	572	2	eitel	866	1	!	1239	1	!	-1	0	0	0	0	0	0	0	0	0	0	0	0	0	0	0	0	0	0	0	0	0	0	0	0	0	0	0	0	0	0
071619	15:16:30	15:26:23	592317	5.0.10.0	5_exp_RW	57	Rpleas_acq	CS_B	GWWG	BZZB	VKKV	JXXJ	MQQM	YDDY	treu	retten	fair	spielen	ehrlich	schön	tot	rächen	faul	strafen	eitel	schlecht	1	acq_USunple_CSunple2_RW	acq4567_RW	5	13	400	1	300	300	383	50	0	0	1	blank2r.bmp	0	1	+	0	1	blank2r.bmp	492	1	JXXJ	492	1	blank2r.bmp	572	3	schlecht	866	1	!	1239	1	!	1279	0	0	0	0	0	0	0	0	0	0	0	0	0	0	0	0	0	0	0	0	0	0	0	0	0	0	0	0	0	0
071619	15:16:30	15:26:25	594582	5.0.10.0	5_exp_RW	57	Rpleas_acq	CS_B	GWWG	BZZB	VKKV	JXXJ	MQQM	YDDY	treu	retten	fair	spielen	ehrlich	schön	tot	rächen	faul	strafen	eitel	schlecht	1	acq_USunple_CSunple1_RW	acq4567_RW	5	14	400	0	300	300	479	50	0	0	1	blank2r.bmp	0	1	+	0	1	blank2r.bmp	492	1	VKKV	492	1	blank2r.bmp	572	3	faul	866	1	!	1239	1	!	-1	0	0	0	0	0	0	0	0	0	0	0	0	0	0	0	0	0	0	0	0	0	0	0	0	0	0	0	0	0	0
071619	15:16:30	15:26:27	597075	5.0.10.0	5_exp_RW	57	Rpleas_acq	CS_B	GWWG	BZZB	VKKV	JXXJ	MQQM	YDDY	treu	retten	fair	spielen	ehrlich	schön	tot	rächen	faul	strafen	eitel	schlecht	1	acq_USpleas_CSpleas1_RW	acq4567_RW	5	15	400	0	300	300	700	50	0	1	1	blank2r.bmp	0	1	+	0	1	blank2r.bmp	492	1	GWWG	492	1	blank2r.bmp	572	3	fair	866	1	!	1239	1	!	-1	0	0	0	0	0	0	0	0	0	0	0	0	0	0	0	0	0	0	0	0	0	0	0	0	0	0	0	0	0	0
071619	15:16:30	15:26:30	599380	5.0.10.0	5_exp_RW	57	Rpleas_acq	CS_B	GWWG	BZZB	VKKV	JXXJ	MQQM	YDDY	treu	retten	fair	spielen	ehrlich	schön	tot	rächen	faul	strafen	eitel	schlecht	1	acq_USunple_CSunple2_RW	acq4567_RW	5	16	400	0	300	300	529	46	0	1	1	blank2r.bmp	0	1	+	0	1	blank2r.bmp	492	1	JXXJ	492	1	blank2r.bmp	572	1	strafen	866	1	!	1239	1	!	-1	0	0	0	0	0	0	0	0	0	0	0	0	0	0	0	0	0	0	0	0	0	0	0	0	0	0	0	0	0	0
071619	15:16:30	15:26:32	601473	5.0.10.0	5_exp_RW	57	Rpleas_acq	CS_B	GWWG	BZZB	VKKV	JXXJ	MQQM	YDDY	treu	retten	fair	spielen	ehrlich	schön	tot	rächen	faul	strafen	eitel	schlecht	1	acq_USpleas_CSpleas1_RW	acq4567_RW	5	17	400	0	300	300	314	46	0	0	1	blank2r.bmp	0	1	+	0	1	blank2r.bmp	492	1	GWWG	492	1	blank2r.bmp	572	1	treu	866	1	!	-1	1	!	-1	0	0	0	0	0	0	0	0	0	0	0	0	0	0	0	0	0	0	0	0	0	0	0	0	0	0	0	0	0	0
071619	15:16:30	15:26:34	603725	5.0.10.0	5_exp_RW	57	Rpleas_acq	CS_B	GWWG	BZZB	VKKV	JXXJ	MQQM	YDDY	treu	retten	fair	spielen	ehrlich	schön	tot	rächen	faul	strafen	eitel	schlecht	1	acq_USunple_CSunple1_RW	acq4567_RW	5	18	400	1	300	300	442	50	0	0	1	blank2r.bmp	0	1	+	0	1	blank2r.bmp	492	1	VKKV	492	1	blank2r.bmp	572	2	rächen	866	1	!	1239	1	!	1346	0	0	0	0	0	0	0	0	0	0	0	0	0	0	0	0	0	0	0	0	0	0	0	0	0	0	0	0	0	0
071619	15:16:30	15:26:36	605804	5.0.10.0	5_exp_RW	57	Rpleas_acq	CS_B	GWWG	BZZB	VKKV	JXXJ	MQQM	YDDY	treu	retten	fair	spielen	ehrlich	schön	tot	rächen	faul	strafen	eitel	schlecht	1	acq_USpleas_CSpleas2_RW	acq4567_RW	5	19	400	0	300	300	311	50	0	1	1	blank2r.bmp	0	1	+	0	1	blank2r.bmp	492	1	BZZB	492	1	blank2r.bmp	572	1	spielen	866	1	!	-1	1	!	-1	0	0	0	0	0	0	0	0	0	0	0	0	0	0	0	0	0	0	0	0	0	0	0	0	0	0	0	0	0	0
071619	15:16:30	15:26:39	608230	5.0.10.0	5_exp_RW	57	Rpleas_acq	CS_B	GWWG	BZZB	VKKV	JXXJ	MQQM	YDDY	treu	retten	fair	spielen	ehrlich	schön	tot	rächen	faul	strafen	eitel	schlecht	1	acq_USunple_CSunple1_RW	acq4567_RW	5	20	400	0	300	300	647	46	0	1	1	blank2r.bmp	0	1	+	0	1	blank2r.bmp	492	1	VKKV	492	1	blank2r.bmp	572	3	faul	866	1	!	1239	1	!	-1	0	0	0	0	0	0	0	0	0	0	0	0	0	0	0	0	0	0	0	0	0	0	0	0	0	0	0	0	0	0
071619	15:16:30	15:26:41	610829	5.0.10.0	5_exp_RW	57	Rpleas_acq	CS_B	GWWG	BZZB	VKKV	JXXJ	MQQM	YDDY	treu	retten	fair	spielen	ehrlich	schön	tot	rächen	faul	strafen	eitel	schlecht	1	acq_USpleas_CSpleas2_RW	acq4567_RW	5	21	400	0	300	300	803	50	0	1	1	blank2r.bmp	0	1	+	0	1	blank2r.bmp	492	1	BZZB	492	1	blank2r.bmp	572	2	ehrlich	866	1	!	1239	1	!	-1	0	0	0	0	0	0	0	0	0	0	0	0	0	0	0	0	0	0	0	0	0	0	0	0	0	0	0	0	0	0
071619	15:16:30	15:26:43	613041	5.0.10.0	5_exp_RW	57	Rpleas_acq	CS_B	GWWG	BZZB	VKKV	JXXJ	MQQM	YDDY	treu	retten	fair	spielen	ehrlich	schön	tot	rächen	faul	strafen	eitel	schlecht	1	acq_USpleas_CSpleas2_RW	acq4567_RW	5	22	400	1	300	300	403	50	0	1	1	blank2r.bmp	0	1	+	0	1	blank2r.bmp	492	1	BZZB	492	1	blank2r.bmp	572	2	ehrlich	866	1	!	1239	1	!	1306	0	0	0	0	0	0	0	0	0	0	0	0	0	0	0	0	0	0	0	0	0	0	0	0	0	0	0	0	0	0
071619	15:16:30	15:26:46	615281	5.0.10.0	5_exp_RW	57	Rpleas_acq	CS_B	GWWG	BZZB	VKKV	JXXJ	MQQM	YDDY	treu	retten	fair	spielen	ehrlich	schön	tot	rächen	faul	strafen	eitel	schlecht	1	acq_USunple_CSunple2_RW	acq4567_RW	5	23	400	1	300	300	444	50	0	0	1	blank2r.bmp	0	1	+	0	1	blank2r.bmp	492	1	JXXJ	492	1	blank2r.bmp	572	2	eitel	866	1	!	1239	1	!	1346	0	0	0	0	0	0	0	0	0	0	0	0	0	0	0	0	0	0	0	0	0	0	0	0	0	0	0	0	0	0
071619	15:16:30	15:26:48	617440	5.0.10.0	5_exp_RW	57	Rpleas_acq	CS_B	GWWG	BZZB	VKKV	JXXJ	MQQM	YDDY	treu	retten	fair	spielen	ehrlich	schön	tot	rächen	faul	strafen	eitel	schlecht	1	acq_USunple_CSunple2_RW	acq4567_RW	5	24	400	1	300	300	346	46	0	1	1	blank2r.bmp	0	1	+	0	1	blank2r.bmp	492	1	JXXJ	492	1	blank2r.bmp	572	1	strafen	866	1	!	1239	1	!	1252	0	0	0	0	0	0	0	0	0	0	0	0	0	0	0	0	0	0	0	0	0	0	0	0	0	0	0	0	0	0
071619	15:16:30	15:26:53	622264	5.0.10.0	5_exp_RW	57	Rpleas_acq	CS_B	GWWG	BZZB	VKKV	JXXJ	MQQM	YDDY	treu	retten	fair	spielen	ehrlich	schön	tot	rächen	faul	strafen	eitel	schlecht	1	acq_USunple_CSunple2_RW	acq4567_RW	5	25	400	0	300	300	3058	46	0	1	1	blank2r.bmp	0	1	+	0	1	blank2r.bmp	492	1	JXXJ	492	1	blank2r.bmp	572	2	eitel	866	1	!	1239	1	!	-1	0	0	0	0	0	0	0	0	0	0	0	0	0	0	0	0	0	0	0	0	0	0	0	0	0	0	0	0	0	0
071619	15:16:30	15:26:56	625356	5.0.10.0	5_exp_RW	57	Rpleas_acq	CS_B	GWWG	BZZB	VKKV	JXXJ	MQQM	YDDY	treu	retten	fair	spielen	ehrlich	schön	tot	rächen	faul	strafen	eitel	schlecht	1	acq_USunple_CSunple2_RW	acq4567_RW	5	26	400	0	300	300	1308	50	0	0	1	blank2r.bmp	0	1	+	0	1	blank2r.bmp	492	1	JXXJ	492	1	blank2r.bmp	572	3	schlecht	866	1	!	1239	1	!	-1	0	0	0	0	0	0	0	0	0	0	0	0	0	0	0	0	0	0	0	0	0	0	0	0	0	0	0	0	0	0
071619	15:16:30	15:26:58	627622	5.0.10.0	5_exp_RW	57	Rpleas_acq	CS_B	GWWG	BZZB	VKKV	JXXJ	MQQM	YDDY	treu	retten	fair	spielen	ehrlich	schön	tot	rächen	faul	strafen	eitel	schlecht	1	acq_USunple_CSunple1_RW	acq4567_RW	5	27	400	1	300	300	452	46	0	1	1	blank2r.bmp	0	1	+	0	1	blank2r.bmp	492	1	VKKV	492	1	blank2r.bmp	572	1	tot	866	1	!	1239	1	!	1359	0	0	0	0	0	0	0	0	0	0	0	0	0	0	0	0	0	0	0	0	0	0	0	0	0	0	0	0	0	0
071619	15:16:30	15:27:00	629981	5.0.10.0	5_exp_RW	57	Rpleas_acq	CS_B	GWWG	BZZB	VKKV	JXXJ	MQQM	YDDY	treu	retten	fair	spielen	ehrlich	schön	tot	rächen	faul	strafen	eitel	schlecht	1	acq_USpleas_CSpleas2_RW	acq4567_RW	5	28	400	0	300	300	595	50	0	1	1	blank2r.bmp	0	1	+	0	1	blank2r.bmp	492	1	BZZB	492	1	blank2r.bmp	572	1	spielen	866	1	!	1239	1	!	-1	0	0	0	0	0	0	0	0	0	0	0	0	0	0	0	0	0	0	0	0	0	0	0	0	0	0	0	0	0	0
071619	15:16:30	15:27:03	632234	5.0.10.0	5_exp_RW	57	Rpleas_acq	CS_B	GWWG	BZZB	VKKV	JXXJ	MQQM	YDDY	treu	retten	fair	spielen	ehrlich	schön	tot	rächen	faul	strafen	eitel	schlecht	1	acq_USpleas_CSpleas1_RW	acq4567_RW	5	29	400	1	300	300	443	46	0	0	1	blank2r.bmp	0	1	+	0	1	blank2r.bmp	492	1	GWWG	492	1	blank2r.bmp	572	2	retten	866	1	!	1239	1	!	1346	0	0	0	0	0	0	0	0	0	0	0	0	0	0	0	0	0	0	0	0	0	0	0	0	0	0	0	0	0	0
071619	15:16:30	15:27:05	634433	5.0.10.0	5_exp_RW	57	Rpleas_acq	CS_B	GWWG	BZZB	VKKV	JXXJ	MQQM	YDDY	treu	retten	fair	spielen	ehrlich	schön	tot	rächen	faul	strafen	eitel	schlecht	1	acq_USpleas_CSpleas1_RW	acq4567_RW	5	30	400	1	300	300	399	50	0	1	1	blank2r.bmp	0	1	+	0	1	blank2r.bmp	492	1	GWWG	492	1	blank2r.bmp	572	2	retten	866	1	!	1239	1	!	1306	0	0	0	0	0	0	0	0	0	0	0	0	0	0	0	0	0	0	0	0	0	0	0	0	0	0	0	0	0	0
071619	15:16:30	15:27:07	636632	5.0.10.0	5_exp_RW	57	Rpleas_acq	CS_B	GWWG	BZZB	VKKV	JXXJ	MQQM	YDDY	treu	retten	fair	spielen	ehrlich	schön	tot	rächen	faul	strafen	eitel	schlecht	1	acq_USunple_CSunple2_RW	acq4567_RW	5	31	400	1	300	300	408	46	0	1	1	blank2r.bmp	0	1	+	0	1	blank2r.bmp	492	1	JXXJ	492	1	blank2r.bmp	572	1	strafen	866	1	!	1239	1	!	1306	0	0	0	0	0	0	0	0	0	0	0	0	0	0	0	0	0	0	0	0	0	0	0	0	0	0	0	0	0	0
071619	15:16:30	15:27:09	638911	5.0.10.0	5_exp_RW	57	Rpleas_acq	CS_B	GWWG	BZZB	VKKV	JXXJ	MQQM	YDDY	treu	retten	fair	spielen	ehrlich	schön	tot	rächen	faul	strafen	eitel	schlecht	1	acq_USunple_CSunple1_RW	acq4567_RW	5	32	400	0	300	300	513	50	0	0	1	blank2r.bmp	0	1	+	0	1	blank2r.bmp	492	1	VKKV	492	1	blank2r.bmp	572	1	tot	866	1	!	1239	1	!	-1	0	0	0	0	0	0	0	0	0	0	0	0	0	0	0	0	0	0	0	0	0	0	0	0	0	0	0	0	0	0
071619	15:16:30	15:27:13	642763	5.0.10.0	5_exp_RW	57	Rpleas_acq	CS_B	GWWG	BZZB	VKKV	JXXJ	MQQM	YDDY	treu	retten	fair	spielen	ehrlich	schön	tot	rächen	faul	strafen	eitel	schlecht	1	acq_USpleas_CSpleas2_RW	acq4567_RW	5	33	400	0	300	300	2077	50	0	1	1	blank2r.bmp	0	1	+	0	1	blank2r.bmp	492	1	BZZB	492	1	blank2r.bmp	572	3	schön	866	1	!	1239	1	!	-1	0	0	0	0	0	0	0	0	0	0	0	0	0	0	0	0	0	0	0	0	0	0	0	0	0	0	0	0	0	0
071619	15:16:30	15:27:15	645055	5.0.10.0	5_exp_RW	57	Rpleas_acq	CS_B	GWWG	BZZB	VKKV	JXXJ	MQQM	YDDY	treu	retten	fair	spielen	ehrlich	schön	tot	rächen	faul	strafen	eitel	schlecht	1	acq_USpleas_CSpleas1_RW	acq4567_RW	5	34	400	0	300	300	507	46	0	0	1	blank2r.bmp	0	1	+	0	1	blank2r.bmp	492	1	GWWG	492	1	blank2r.bmp	572	3	fair	866	1	!	1239	1	!	-1	0	0	0	0	0	0	0	0	0	0	0	0	0	0	0	0	0	0	0	0	0	0	0	0	0	0	0	0	0	0
071619	15:16:30	15:27:22	651759	5.0.10.0	5_exp_RW	57	Rpleas_acq	CS_B	GWWG	BZZB	VKKV	JXXJ	MQQM	YDDY	treu	retten	fair	spielen	ehrlich	schön	tot	rächen	faul	strafen	eitel	schlecht	1	acq_USpleas_CSpleas1_RW	acq4567_RW	5	35	400	0	300	300	4919	50	0	1	1	blank2r.bmp	0	1	+	0	1	blank2r.bmp	492	1	GWWG	492	1	blank2r.bmp	572	1	treu	866	1	!	1239	1	!	-1	0	0	0	0	0	0	0	0	0	0	0	0	0	0	0	0	0	0	0	0	0	0	0	0	0	0	0	0	0	0
071619	15:16:30	15:27:25	654225	5.0.10.0	5_exp_RW	57	Rpleas_acq	CS_B	GWWG	BZZB	VKKV	JXXJ	MQQM	YDDY	treu	retten	fair	spielen	ehrlich	schön	tot	rächen	faul	strafen	eitel	schlecht	1	acq_USunple_CSunple1_RW	acq4567_RW	5	36	400	0	300	300	683	46	0	1	1	blank2r.bmp	0	1	+	0	1	blank2r.bmp	492	1	VKKV	492	1	blank2r.bmp	572	2	rächen	866	1	!	1239	1	!	-1	0	0	0	0	0	0	0	0	0	0	0	0	0	0	0	0	0	0	0	0	0	0	0	0	0	0	0	0	0	0
071619	15:16:30	15:27:27	656464	5.0.10.0	5_exp_RW	57	Rpleas_acq	CS_B	GWWG	BZZB	VKKV	JXXJ	MQQM	YDDY	treu	retten	fair	spielen	ehrlich	schön	tot	rächen	faul	strafen	eitel	schlecht	1	acq_USpleas_CSpleas1_RW	acq4567_RW	5	37	400	1	300	300	436	50	0	1	1	blank2r.bmp	0	1	+	0	1	blank2r.bmp	492	1	GWWG	492	1	blank2r.bmp	572	3	fair	866	1	!	1239	1	!	1332	0	0	0	0	0	0	0	0	0	0	0	0	0	0	0	0	0	0	0	0	0	0	0	0	0	0	0	0	0	0
071619	15:16:30	15:27:29	658783	5.0.10.0	5_exp_RW	57	Rpleas_acq	CS_B	GWWG	BZZB	VKKV	JXXJ	MQQM	YDDY	treu	retten	fair	spielen	ehrlich	schön	tot	rächen	faul	strafen	eitel	schlecht	1	acq_USpleas_CSpleas2_RW	acq4567_RW	5	38	400	0	300	300	534	50	0	1	1	blank2r.bmp	0	1	+	0	1	blank2r.bmp	492	1	BZZB	492	1	blank2r.bmp	572	1	spielen	866	1	!	1239	1	!	-1	0	0	0	0	0	0	0	0	0	0	0	0	0	0	0	0	0	0	0	0	0	0	0	0	0	0	0	0	0	0
071619	15:16:30	15:27:31	661062	5.0.10.0	5_exp_RW	57	Rpleas_acq	CS_B	GWWG	BZZB	VKKV	JXXJ	MQQM	YDDY	treu	retten	fair	spielen	ehrlich	schön	tot	rächen	faul	strafen	eitel	schlecht	1	acq_USunple_CSunple1_RW	acq4567_RW	5	39	400	0	300	300	492	46	0	1	1	blank2r.bmp	0	1	+	0	1	blank2r.bmp	492	1	VKKV	492	1	blank2r.bmp	572	3	faul	866	1	!	1239	1	!	-1	0	0	0	0	0	0	0	0	0	0	0	0	0	0	0	0	0	0	0	0	0	0	0	0	0	0	0	0	0	0
071619	15:16:30	15:27:34	663408	5.0.10.0	5_exp_RW	57	Rpleas_acq	CS_B	GWWG	BZZB	VKKV	JXXJ	MQQM	YDDY	treu	retten	fair	spielen	ehrlich	schön	tot	rächen	faul	strafen	eitel	schlecht	1	acq_USunple_CSunple1_RW	acq4567_RW	5	40	400	0	300	300	563	46	0	1	1	blank2r.bmp	0	1	+	0	1	blank2r.bmp	492	1	VKKV	492	1	blank2r.bmp	572	3	faul	866	1	!	1239	1	!	-1	0	0	0	0	0	0	0	0	0	0	0	0	0	0	0	0	0	0	0	0	0	0	0	0	0	0	0	0	0	0
071619	15:16:30	15:27:36	665687	5.0.10.0	5_exp_RW	57	Rpleas_acq	CS_B	GWWG	BZZB	VKKV	JXXJ	MQQM	YDDY	treu	retten	fair	spielen	ehrlich	schön	tot	rächen	faul	strafen	eitel	schlecht	1	acq_USunple_CSunple1_RW	acq4567_RW	5	41	400	0	300	300	491	50	0	0	1	blank2r.bmp	0	1	+	0	1	blank2r.bmp	492	1	VKKV	492	1	blank2r.bmp	572	2	rächen	866	1	!	1239	1	!	-1	0	0	0	0	0	0	0	0	0	0	0	0	0	0	0	0	0	0	0	0	0	0	0	0	0	0	0	0	0	0
071619	15:16:30	15:27:38	667926	5.0.10.0	5_exp_RW	57	Rpleas_acq	CS_B	GWWG	BZZB	VKKV	JXXJ	MQQM	YDDY	treu	retten	fair	spielen	ehrlich	schön	tot	rächen	faul	strafen	eitel	schlecht	1	acq_USpleas_CSpleas1_RW	acq4567_RW	5	42	400	1	300	300	412	46	0	0	1	blank2r.bmp	0	1	+	0	1	blank2r.bmp	492	1	GWWG	492	1	blank2r.bmp	572	2	retten	866	1	!	1239	1	!	1319	0	0	0	0	0	0	0	0	0	0	0	0	0	0	0	0	0	0	0	0	0	0	0	0	0	0	0	0	0	0
071619	15:16:30	15:27:43	672471	5.0.10.0	5_exp_RW	57	Rpleas_acq	CS_B	GWWG	BZZB	VKKV	JXXJ	MQQM	YDDY	treu	retten	fair	spielen	ehrlich	schön	tot	rächen	faul	strafen	eitel	schlecht	1	acq_USpleas_CSpleas1_RW	acq4567_RW	5	43	400	0	300	300	2783	50	0	1	1	blank2r.bmp	0	1	+	0	1	blank2r.bmp	492	1	GWWG	492	1	blank2r.bmp	572	1	treu	866	1	!	1239	1	!	-1	0	0	0	0	0	0	0	0	0	0	0	0	0	0	0	0	0	0	0	0	0	0	0	0	0	0	0	0	0	0
071619	15:16:30	15:27:45	674910	5.0.10.0	5_exp_RW	57	Rpleas_acq	CS_B	GWWG	BZZB	VKKV	JXXJ	MQQM	YDDY	treu	retten	fair	spielen	ehrlich	schön	tot	rächen	faul	strafen	eitel	schlecht	1	acq_USunple_CSunple1_RW	acq4567_RW	5	44	400	0	300	300	645	46	0	1	1	blank2r.bmp	0	1	+	0	1	blank2r.bmp	492	1	VKKV	492	1	blank2r.bmp	572	1	tot	866	1	!	1239	1	!	-1	0	0	0	0	0	0	0	0	0	0	0	0	0	0	0	0	0	0	0	0	0	0	0	0	0	0	0	0	0	0
071619	15:16:30	15:27:48	677229	5.0.10.0	5_exp_RW	57	Rpleas_acq	CS_B	GWWG	BZZB	VKKV	JXXJ	MQQM	YDDY	treu	retten	fair	spielen	ehrlich	schön	tot	rächen	faul	strafen	eitel	schlecht	1	acq_USunple_CSunple2_RW	acq4567_RW	5	45	400	0	300	300	540	46	0	1	1	blank2r.bmp	0	1	+	0	1	blank2r.bmp	492	1	JXXJ	492	1	blank2r.bmp	572	3	schlecht	866	1	!	1239	1	!	-1	0	0	0	0	0	0	0	0	0	0	0	0	0	0	0	0	0	0	0	0	0	0	0	0	0	0	0	0	0	0
071619	15:16:30	15:27:50	679601	5.0.10.0	5_exp_RW	57	Rpleas_acq	CS_B	GWWG	BZZB	VKKV	JXXJ	MQQM	YDDY	treu	retten	fair	spielen	ehrlich	schön	tot	rächen	faul	strafen	eitel	schlecht	1	acq_USpleas_CSpleas2_RW	acq4567_RW	5	46	400	0	300	300	573	50	0	1	1	blank2r.bmp	0	1	+	0	1	blank2r.bmp	492	1	BZZB	492	1	blank2r.bmp	572	2	ehrlich	866	1	!	1239	1	!	-1	0	0	0	0	0	0	0	0	0	0	0	0	0	0	0	0	0	0	0	0	0	0	0	0	0	0	0	0	0	0
071619	15:16:30	15:27:52	681880	5.0.10.0	5_exp_RW	57	Rpleas_acq	CS_B	GWWG	BZZB	VKKV	JXXJ	MQQM	YDDY	treu	retten	fair	spielen	ehrlich	schön	tot	rächen	faul	strafen	eitel	schlecht	1	acq_USpleas_CSpleas1_RW	acq4567_RW	5	47	400	1	300	300	464	46	0	0	1	blank2r.bmp	0	1	+	0	1	blank2r.bmp	492	1	GWWG	492	1	blank2r.bmp	572	1	treu	866	1	!	1239	1	!	1359	0	0	0	0	0	0	0	0	0	0	0	0	0	0	0	0	0	0	0	0	0	0	0	0	0	0	0	0	0	0
071619	15:16:30	15:27:55	685012	5.0.10.0	5_exp_RW	57	Rpleas_acq	CS_B	GWWG	BZZB	VKKV	JXXJ	MQQM	YDDY	treu	retten	fair	spielen	ehrlich	schön	tot	rächen	faul	strafen	eitel	schlecht	1	acq_USpleas_CSpleas1_RW	acq4567_RW	5	48	400	0	300	300	1370	46	0	0	1	blank2r.bmp	0	1	+	0	1	blank2r.bmp	492	1	GWWG	492	1	blank2r.bmp	572	3	fair	866	1	!	1239	1	!	-1	0	0	0	0	0	0	0	0	0	0	0	0	0	0	0	0	0	0	0	0	0	0	0	0	0	0	0	0	0	0
071619	15:16:30	15:27:58	687464	5.0.10.0	5_exp_RW	57	Rpleas_acq	CS_B	GWWG	BZZB	VKKV	JXXJ	MQQM	YDDY	treu	retten	fair	spielen	ehrlich	schön	tot	rächen	faul	strafen	eitel	schlecht	1	acq_USpleas_CSpleas2_RW	acq4567_RW	5	49	400	0	300	300	677	50	0	1	1	blank2r.bmp	0	1	+	0	1	blank2r.bmp	492	1	BZZB	492	1	blank2r.bmp	572	3	schön	866	1	!	1239	1	!	-1	0	0	0	0	0	0	0	0	0	0	0	0	0	0	0	0	0	0	0	0	0	0	0	0	0	0	0	0	0	0
071619	15:16:30	15:28:00	689850	5.0.10.0	5_exp_RW	57	Rpleas_acq	CS_B	GWWG	BZZB	VKKV	JXXJ	MQQM	YDDY	treu	retten	fair	spielen	ehrlich	schön	tot	rächen	faul	strafen	eitel	schlecht	1	acq_USunple_CSunple1_RW	acq4567_RW	5	50	400	0	300	300	603	46	0	1	1	blank2r.bmp	0	1	+	0	1	blank2r.bmp	492	1	VKKV	492	1	blank2r.bmp	572	1	tot	866	1	!	1239	1	!	-1	0	0	0	0	0	0	0	0	0	0	0	0	0	0	0	0	0	0	0	0	0	0	0	0	0	0	0	0	0	0
071619	15:16:30	15:28:02	692102	5.0.10.0	5_exp_RW	57	Rpleas_acq	CS_B	GWWG	BZZB	VKKV	JXXJ	MQQM	YDDY	treu	retten	fair	spielen	ehrlich	schön	tot	rächen	faul	strafen	eitel	schlecht	1	acq_USpleas_CSpleas2_RW	acq4567_RW	5	51	400	1	300	300	431	50	0	1	1	blank2r.bmp	0	1	+	0	1	blank2r.bmp	492	1	BZZB	492	1	blank2r.bmp	572	3	schön	866	1	!	1239	1	!	1332	0	0	0	0	0	0	0	0	0	0	0	0	0	0	0	0	0	0	0	0	0	0	0	0	0	0	0	0	0	0
071619	15:16:30	15:28:05	694915	5.0.10.0	5_exp_RW	57	Rpleas_acq	CS_B	GWWG	BZZB	VKKV	JXXJ	MQQM	YDDY	treu	retten	fair	spielen	ehrlich	schön	tot	rächen	faul	strafen	eitel	schlecht	1	acq_USunple_CSunple1_RW	acq4567_RW	5	52	400	0	300	300	1045	46	0	1	1	blank2r.bmp	0	1	+	0	1	blank2r.bmp	492	1	VKKV	492	1	blank2r.bmp	572	2	rächen	866	1	!	1239	1	!	-1	0	0	0	0	0	0	0	0	0	0	0	0	0	0	0	0	0	0	0	0	0	0	0	0	0	0	0	0	0	0
071619	15:16:30	15:28:08	697407	5.0.10.0	5_exp_RW	57	Rpleas_acq	CS_B	GWWG	BZZB	VKKV	JXXJ	MQQM	YDDY	treu	retten	fair	spielen	ehrlich	schön	tot	rächen	faul	strafen	eitel	schlecht	1	acq_USunple_CSunple2_RW	acq4567_RW	5	53	400	0	300	300	717	50	0	0	1	blank2r.bmp	0	1	+	0	1	blank2r.bmp	492	1	JXXJ	492	1	blank2r.bmp	572	2	eitel	866	1	!	1239	1	!	-1	0	0	0	0	0	0	0	0	0	0	0	0	0	0	0	0	0	0	0	0	0	0	0	0	0	0	0	0	0	0
071619	15:16:30	15:28:11	700299	5.0.10.0	5_exp_RW	57	Rpleas_acq	CS_B	GWWG	BZZB	VKKV	JXXJ	MQQM	YDDY	treu	retten	fair	spielen	ehrlich	schön	tot	rächen	faul	strafen	eitel	schlecht	1	acq_USunple_CSunple2_RW	acq4567_RW	5	54	400	0	300	300	1110	46	0	1	1	blank2r.bmp	0	1	+	0	1	blank2r.bmp	492	1	JXXJ	492	1	blank2r.bmp	572	1	strafen	866	1	!	1239	1	!	-1	0	0	0	0	0	0	0	0	0	0	0	0	0	0	0	0	0	0	0	0	0	0	0	0	0	0	0	0	0	0
071619	15:16:30	15:28:13	702778	5.0.10.0	5_exp_RW	57	Rpleas_acq	CS_B	GWWG	BZZB	VKKV	JXXJ	MQQM	YDDY	treu	retten	fair	spielen	ehrlich	schön	tot	rächen	faul	strafen	eitel	schlecht	1	acq_USunple_CSunple1_RW	acq4567_RW	5	55	400	0	300	300	691	46	0	1	1	blank2r.bmp	0	1	+	0	1	blank2r.bmp	492	1	VKKV	492	1	blank2r.bmp	572	3	faul	866	1	!	1239	1	!	-1	0	0	0	0	0	0	0	0	0	0	0	0	0	0	0	0	0	0	0	0	0	0	0	0	0	0	0	0	0	0
071619	15:16:30	15:28:15	705124	5.0.10.0	5_exp_RW	57	Rpleas_acq	CS_B	GWWG	BZZB	VKKV	JXXJ	MQQM	YDDY	treu	retten	fair	spielen	ehrlich	schön	tot	rächen	faul	strafen	eitel	schlecht	1	acq_USunple_CSunple2_RW	acq4567_RW	5	56	400	0	300	300	559	50	0	0	1	blank2r.bmp	0	1	+	0	1	blank2r.bmp	492	1	JXXJ	492	1	blank2r.bmp	572	2	eitel	866	1	!	1239	1	!	-1	0	0	0	0	0	0	0	0	0	0	0	0	0	0	0	0	0	0	0	0	0	0	0	0	0	0	0	0	0	0
071619	15:16:30	15:28:18	707350	5.0.10.0	5_exp_RW	57	Rpleas_acq	CS_B	GWWG	BZZB	VKKV	JXXJ	MQQM	YDDY	treu	retten	fair	spielen	ehrlich	schön	tot	rächen	faul	strafen	eitel	schlecht	1	acq_USpleas_CSpleas1_RW	acq4567_RW	5	57	400	1	300	300	423	46	0	0	1	blank2r.bmp	0	1	+	0	1	blank2r.bmp	492	1	GWWG	492	1	blank2r.bmp	572	2	retten	866	1	!	1239	1	!	1319	0	0	0	0	0	0	0	0	0	0	0	0	0	0	0	0	0	0	0	0	0	0	0	0	0	0	0	0	0	0
071619	15:16:30	15:28:20	709615	5.0.10.0	5_exp_RW	57	Rpleas_acq	CS_B	GWWG	BZZB	VKKV	JXXJ	MQQM	YDDY	treu	retten	fair	spielen	ehrlich	schön	tot	rächen	faul	strafen	eitel	schlecht	1	acq_USpleas_CSpleas2_RW	acq4567_RW	5	58	400	1	300	300	463	50	0	1	1	blank2r.bmp	0	1	+	0	1	blank2r.bmp	492	1	BZZB	492	1	blank2r.bmp	572	2	ehrlich	866	1	!	1239	1	!	1359	0	0	0	0	0	0	0	0	0	0	0	0	0	0	0	0	0	0	0	0	0	0	0	0	0	0	0	0	0	0
071619	15:16:30	15:28:22	711894	5.0.10.0	5_exp_RW	57	Rpleas_acq	CS_B	GWWG	BZZB	VKKV	JXXJ	MQQM	YDDY	treu	retten	fair	spielen	ehrlich	schön	tot	rächen	faul	strafen	eitel	schlecht	1	acq_USpleas_CSpleas2_RW	acq4567_RW	5	59	400	0	300	300	514	50	0	1	1	blank2r.bmp	0	1	+	0	1	blank2r.bmp	492	1	BZZB	492	1	blank2r.bmp	572	1	spielen	866	1	!	1239	1	!	-1	0	0	0	0	0	0	0	0	0	0	0	0	0	0	0	0	0	0	0	0	0	0	0	0	0	0	0	0	0	0
071619	15:16:30	15:28:25	714400	5.0.10.0	5_exp_RW	57	Rpleas_acq	CS_B	GWWG	BZZB	VKKV	JXXJ	MQQM	YDDY	treu	retten	fair	spielen	ehrlich	schön	tot	rächen	faul	strafen	eitel	schlecht	1	acq_USunple_CSunple2_RW	acq4567_RW	5	60	400	0	300	300	728	46	0	1	1	blank2r.bmp	0	1	+	0	1	blank2r.bmp	492	1	JXXJ	492	1	blank2r.bmp	572	3	schlecht	866	1	!	1239	1	!	-1	0	0	0	0	0	0	0	0	0	0	0	0	0	0	0	0	0	0	0	0	0	0	0	0	0	0	0	0	0	0
071619	15:16:30	15:28:27	716652	5.0.10.0	5_exp_RW	57	Rpleas_acq	CS_B	GWWG	BZZB	VKKV	JXXJ	MQQM	YDDY	treu	retten	fair	spielen	ehrlich	schön	tot	rächen	faul	strafen	eitel	schlecht	1	acq_USunple_CSunple2_RW	acq4567_RW	5	61	400	1	300	300	442	50	0	0	1	blank2r.bmp	0	1	+	0	1	blank2r.bmp	492	1	JXXJ	492	1	blank2r.bmp	572	2	eitel	866	1	!	1239	1	!	1346	0	0	0	0	0	0	0	0	0	0	0	0	0	0	0	0	0	0	0	0	0	0	0	0	0	0	0	0	0	0
071619	15:16:30	15:28:30	719385	5.0.10.0	5_exp_RW	57	Rpleas_acq	CS_B	GWWG	BZZB	VKKV	JXXJ	MQQM	YDDY	treu	retten	fair	spielen	ehrlich	schön	tot	rächen	faul	strafen	eitel	schlecht	1	acq_USpleas_CSpleas1_RW	acq4567_RW	5	62	400	0	300	300	963	50	0	1	1	blank2r.bmp	0	1	+	0	1	blank2r.bmp	492	1	GWWG	492	1	blank2r.bmp	572	2	retten	866	1	!	1239	1	!	-1	0	0	0	0	0	0	0	0	0	0	0	0	0	0	0	0	0	0	0	0	0	0	0	0	0	0	0	0	0	0
071619	15:16:30	15:28:32	721677	5.0.10.0	5_exp_RW	57	Rpleas_acq	CS_B	GWWG	BZZB	VKKV	JXXJ	MQQM	YDDY	treu	retten	fair	spielen	ehrlich	schön	tot	rächen	faul	strafen	eitel	schlecht	1	acq_USpleas_CSpleas1_RW	acq4567_RW	5	63	400	0	300	300	511	50	0	1	1	blank2r.bmp	0	1	+	0	1	blank2r.bmp	492	1	GWWG	492	1	blank2r.bmp	572	3	fair	866	1	!	1239	1	!	-1	0	0	0	0	0	0	0	0	0	0	0	0	0	0	0	0	0	0	0	0	0	0	0	0	0	0	0	0	0	0
071619	15:16:30	15:28:34	724076	5.0.10.0	5_exp_RW	57	Rpleas_acq	CS_B	GWWG	BZZB	VKKV	JXXJ	MQQM	YDDY	treu	retten	fair	spielen	ehrlich	schön	tot	rächen	faul	strafen	eitel	schlecht	1	acq_USunple_CSunple2_RW	acq4567_RW	5	64	400	0	300	300	615	46	0	1	1	blank2r.bmp	0	1	+	0	1	blank2r.bmp	492	1	JXXJ	492	1	blank2r.bmp	572	1	strafen	866	1	!	1239	1	!	-1	0	0	0	0	0	0	0	0	0	0	0	0	0	0	0	0	0	0	0	0	0	0	0	0	0	0	0	0	0	0
071619	15:16:30	15:28:37	726515	5.0.10.0	5_exp_RW	57	Rpleas_acq	CS_B	GWWG	BZZB	VKKV	JXXJ	MQQM	YDDY	treu	retten	fair	spielen	ehrlich	schön	tot	rächen	faul	strafen	eitel	schlecht	1	acq_USunple_CSunple2_RW	acq4567_RW	5	65	400	0	300	300	644	46	0	1	1	blank2r.bmp	0	1	+	0	1	blank2r.bmp	492	1	JXXJ	492	1	blank2r.bmp	572	3	schlecht	866	1	!	1239	1	!	-1	0	0	0	0	0	0	0	0	0	0	0	0	0	0	0	0	0	0	0	0	0	0	0	0	0	0	0	0	0	0
071619	15:16:30	15:28:39	728834	5.0.10.0	5_exp_RW	57	Rpleas_acq	CS_B	GWWG	BZZB	VKKV	JXXJ	MQQM	YDDY	treu	retten	fair	spielen	ehrlich	schön	tot	rächen	faul	strafen	eitel	schlecht	1	acq_USunple_CSunple1_RW	acq4567_RW	5	66	400	0	300	300	542	46	0	1	1	blank2r.bmp	0	1	+	0	1	blank2r.bmp	492	1	VKKV	492	1	blank2r.bmp	572	2	rächen	866	1	!	1239	1	!	-1	0	0	0	0	0	0	0	0	0	0	0	0	0	0	0	0	0	0	0	0	0	0	0	0	0	0	0	0	0	0
071619	15:16:30	15:28:41	731126	5.0.10.0	5_exp_RW	57	Rpleas_acq	CS_B	GWWG	BZZB	VKKV	JXXJ	MQQM	YDDY	treu	retten	fair	spielen	ehrlich	schön	tot	rächen	faul	strafen	eitel	schlecht	1	acq_USunple_CSunple2_RW	acq4567_RW	5	67	400	0	300	300	503	50	0	0	1	blank2r.bmp	0	1	+	0	1	blank2r.bmp	492	1	JXXJ	492	1	blank2r.bmp	572	2	eitel	866	1	!	1239	1	!	-1	0	0	0	0	0	0	0	0	0	0	0	0	0	0	0	0	0	0	0	0	0	0	0	0	0	0	0	0	0	0
071619	15:16:30	15:28:44	733406	5.0.10.0	5_exp_RW	57	Rpleas_acq	CS_B	GWWG	BZZB	VKKV	JXXJ	MQQM	YDDY	treu	retten	fair	spielen	ehrlich	schön	tot	rächen	faul	strafen	eitel	schlecht	1	acq_USpleas_CSpleas2_RW	acq4567_RW	5	68	400	1	300	300	454	46	0	0	1	blank2r.bmp	0	1	+	0	1	blank2r.bmp	492	1	BZZB	492	1	blank2r.bmp	572	3	schön	866	1	!	1239	1	!	1359	0	0	0	0	0	0	0	0	0	0	0	0	0	0	0	0	0	0	0	0	0	0	0	0	0	0	0	0	0	0
071619	15:16:30	15:28:46	735778	5.0.10.0	5_exp_RW	57	Rpleas_acq	CS_B	GWWG	BZZB	VKKV	JXXJ	MQQM	YDDY	treu	retten	fair	spielen	ehrlich	schön	tot	rächen	faul	strafen	eitel	schlecht	1	acq_USpleas_CSpleas1_RW	acq4567_RW	5	69	400	0	300	300	605	50	0	1	1	blank2r.bmp	0	1	+	0	1	blank2r.bmp	492	1	GWWG	492	1	blank2r.bmp	572	1	treu	866	1	!	1239	1	!	-1	0	0	0	0	0	0	0	0	0	0	0	0	0	0	0	0	0	0	0	0	0	0	0	0	0	0	0	0	0	0
071619	15:16:30	15:28:48	738124	5.0.10.0	5_exp_RW	57	Rpleas_acq	CS_B	GWWG	BZZB	VKKV	JXXJ	MQQM	YDDY	treu	retten	fair	spielen	ehrlich	schön	tot	rächen	faul	strafen	eitel	schlecht	1	acq_USunple_CSunple1_RW	acq4567_RW	5	70	400	0	300	300	570	46	0	1	1	blank2r.bmp	0	1	+	0	1	blank2r.bmp	492	1	VKKV	492	1	blank2r.bmp	572	1	tot	866	1	!	1239	1	!	-1	0	0	0	0	0	0	0	0	0	0	0	0	0	0	0	0	0	0	0	0	0	0	0	0	0	0	0	0	0	0
071619	15:16:30	15:28:51	741016	5.0.10.0	5_exp_RW	57	Rpleas_acq	CS_B	GWWG	BZZB	VKKV	JXXJ	MQQM	YDDY	treu	retten	fair	spielen	ehrlich	schön	tot	rächen	faul	strafen	eitel	schlecht	1	acq_USunple_CSunple2_RW	acq4567_RW	5	71	400	0	300	300	1109	46	0	1	1	blank2r.bmp	0	1	+	0	1	blank2r.bmp	492	1	JXXJ	492	1	blank2r.bmp	572	1	strafen	866	1	!	1239	1	!	-1	0	0	0	0	0	0	0	0	0	0	0	0	0	0	0	0	0	0	0	0	0	0	0	0	0	0	0	0	0	0
071619	15:16:30	15:28:54	743282	5.0.10.0	5_exp_RW	57	Rpleas_acq	CS_B	GWWG	BZZB	VKKV	JXXJ	MQQM	YDDY	treu	retten	fair	spielen	ehrlich	schön	tot	rächen	faul	strafen	eitel	schlecht	1	acq_USpleas_CSpleas2_RW	acq4567_RW	5	72	400	0	300	300	488	50	0	1	1	blank2r.bmp	0	1	+	0	1	blank2r.bmp	492	1	BZZB	492	1	blank2r.bmp	572	2	ehrlich	866	1	!	1239	1	!	-1	0	0	0	0	0	0	0	0	0	0	0	0	0	0	0	0	0	0	0	0	0	0	0	0	0	0	0	0	0	0
071619	15:16:30	15:28:56	746067	5.0.10.0	5_exp_RW	57	Rpleas_acq	CS_B	GWWG	BZZB	VKKV	JXXJ	MQQM	YDDY	treu	retten	fair	spielen	ehrlich	schön	tot	rächen	faul	strafen	eitel	schlecht	1	acq_USpleas_CSpleas1_RW	acq4567_RW	5	73	400	0	300	300	999	46	0	0	1	blank2r.bmp	0	1	+	0	1	blank2r.bmp	492	1	GWWG	492	1	blank2r.bmp	572	3	fair	866	1	!	1239	1	!	-1	0	0	0	0	0	0	0	0	0	0	0	0	0	0	0	0	0	0	0	0	0	0	0	0	0	0	0	0	0	0
071619	15:16:30	15:29:02	751438	5.0.10.0	5_exp_RW	57	Rpleas_acq	CS_B	GWWG	BZZB	VKKV	JXXJ	MQQM	YDDY	treu	retten	fair	spielen	ehrlich	schön	tot	rächen	faul	strafen	eitel	schlecht	1	acq_USunple_CSunple1_RW	acq4567_RW	5	74	400	0	300	300	3589	50	0	0	1	blank2r.bmp	0	1	+	0	1	blank2r.bmp	492	1	VKKV	492	1	blank2r.bmp	572	3	faul	866	1	!	1239	1	!	-1	0	0	0	0	0	0	0	0	0	0	0	0	0	0	0	0	0	0	0	0	0	0	0	0	0	0	0	0	0	0
071619	15:16:30	15:29:04	754090	5.0.10.0	5_exp_RW	57	Rpleas_acq	CS_B	GWWG	BZZB	VKKV	JXXJ	MQQM	YDDY	treu	retten	fair	spielen	ehrlich	schön	tot	rächen	faul	strafen	eitel	schlecht	1	acq_USunple_CSunple1_RW	acq4567_RW	5	75	400	0	300	300	855	46	0	1	1	blank2r.bmp	0	1	+	0	1	blank2r.bmp	492	1	VKKV	492	1	blank2r.bmp	572	3	faul	866	1	!	1239	1	!	-1	0	0	0	0	0	0	0	0	0	0	0	0	0	0	0	0	0	0	0	0	0	0	0	0	0	0	0	0	0	0
071619	15:16:30	15:29:07	756396	5.0.10.0	5_exp_RW	57	Rpleas_acq	CS_B	GWWG	BZZB	VKKV	JXXJ	MQQM	YDDY	treu	retten	fair	spielen	ehrlich	schön	tot	rächen	faul	strafen	eitel	schlecht	1	acq_USpleas_CSpleas2_RW	acq4567_RW	5	76	400	0	300	300	513	50	0	1	1	blank2r.bmp	0	1	+	0	1	blank2r.bmp	492	1	BZZB	492	1	blank2r.bmp	572	1	spielen	866	1	!	1239	1	!	-1	0	0	0	0	0	0	0	0	0	0	0	0	0	0	0	0	0	0	0	0	0	0	0	0	0	0	0	0	0	0
071619	15:16:30	15:29:10	759528	5.0.10.0	5_exp_RW	57	Rpleas_acq	CS_B	GWWG	BZZB	VKKV	JXXJ	MQQM	YDDY	treu	retten	fair	spielen	ehrlich	schön	tot	rächen	faul	strafen	eitel	schlecht	1	acq_USpleas_CSpleas2_RW	acq4567_RW	5	77	400	0	300	300	1351	46	0	0	1	blank2r.bmp	0	1	+	0	1	blank2r.bmp	492	1	BZZB	492	1	blank2r.bmp	572	1	spielen	866	1	!	1239	1	!	-1	0	0	0	0	0	0	0	0	0	0	0	0	0	0	0	0	0	0	0	0	0	0	0	0	0	0	0	0	0	0
071619	15:16:30	15:29:14	763367	5.0.10.0	5_exp_RW	57	Rpleas_acq	CS_B	GWWG	BZZB	VKKV	JXXJ	MQQM	YDDY	treu	retten	fair	spielen	ehrlich	schön	tot	rächen	faul	strafen	eitel	schlecht	1	acq_USpleas_CSpleas2_RW	acq4567_RW	5	78	400	0	300	300	2062	50	0	1	1	blank2r.bmp	0	1	+	0	1	blank2r.bmp	492	1	BZZB	492	1	blank2r.bmp	572	2	ehrlich	866	1	!	1239	1	!	-1	0	0	0	0	0	0	0	0	0	0	0	0	0	0	0	0	0	0	0	0	0	0	0	0	0	0	0	0	0	0
071619	15:16:30	15:29:16	765899	5.0.10.0	5_exp_RW	57	Rpleas_acq	CS_B	GWWG	BZZB	VKKV	JXXJ	MQQM	YDDY	treu	retten	fair	spielen	ehrlich	schön	tot	rächen	faul	strafen	eitel	schlecht	1	acq_USpleas_CSpleas1_RW	acq4567_RW	5	79	400	0	300	300	746	50	0	1	1	blank2r.bmp	0	1	+	0	1	blank2r.bmp	492	1	GWWG	492	1	blank2r.bmp	572	2	retten	866	1	!	1239	1	!	-1	0	0	0	0	0	0	0	0	0	0	0	0	0	0	0	0	0	0	0	0	0	0	0	0	0	0	0	0	0	0
071619	15:16:30	15:29:19	768298	5.0.10.0	5_exp_RW	57	Rpleas_acq	CS_B	GWWG	BZZB	VKKV	JXXJ	MQQM	YDDY	treu	retten	fair	spielen	ehrlich	schön	tot	rächen	faul	strafen	eitel	schlecht	1	acq_USunple_CSunple1_RW	acq4567_RW	5	80	400	0	300	300	598	46	0	1	1	blank2r.bmp	0	1	+	0	1	blank2r.bmp	492	1	VKKV	492	1	blank2r.bmp	572	2	rächen	866	1	!	1239	1	!	-1	0	0	0	0	0	0	0	0	0	0	0	0	0	0	0	0	0	0	0	0	0	0	0	0	0	0	0	0	0	0
071619	15:16:30	15:29:37	786251	5.0.10.0	5_exp_RW	57	Rpleas_acq	CS_B	GWWG	BZZB	VKKV	JXXJ	MQQM	YDDY	treu	retten	fair	spielen	ehrlich	schön	tot	rächen	faul	strafen	eitel	schlecht	1	acq_USunple_CSunple1_RW	acq4567_RW	6	1	400	0	300	300	1776	46	0	1	1	blank2r.bmp	0	1	+	0	1	blank2r.bmp	492	1	VKKV	492	1	blank2r.bmp	572	1	tot	866	1	!	1239	1	!	-1	0	0	0	0	0	0	0	0	0	0	0	0	0	0	0	0	0	0	0	0	0	0	0	0	0	0	0	0	0	0
071619	15:16:30	15:29:39	788516	5.0.10.0	5_exp_RW	57	Rpleas_acq	CS_B	GWWG	BZZB	VKKV	JXXJ	MQQM	YDDY	treu	retten	fair	spielen	ehrlich	schön	tot	rächen	faul	strafen	eitel	schlecht	1	acq_USpleas_CSpleas2_RW	acq4567_RW	6	2	400	0	300	300	483	50	0	1	1	blank2r.bmp	0	1	+	0	1	blank2r.bmp	492	1	BZZB	492	1	blank2r.bmp	572	3	schön	866	1	!	1239	1	!	-1	0	0	0	0	0	0	0	0	0	0	0	0	0	0	0	0	0	0	0	0	0	0	0	0	0	0	0	0	0	0
071619	15:16:30	15:29:41	790809	5.0.10.0	5_exp_RW	57	Rpleas_acq	CS_B	GWWG	BZZB	VKKV	JXXJ	MQQM	YDDY	treu	retten	fair	spielen	ehrlich	schön	tot	rächen	faul	strafen	eitel	schlecht	1	acq_USunple_CSunple2_RW	acq4567_RW	6	3	400	0	300	300	506	46	0	1	1	blank2r.bmp	0	1	+	0	1	blank2r.bmp	492	1	JXXJ	492	1	blank2r.bmp	572	3	schlecht	866	1	!	1239	1	!	-1	0	0	0	0	0	0	0	0	0	0	0	0	0	0	0	0	0	0	0	0	0	0	0	0	0	0	0	0	0	0
071619	15:16:30	15:29:43	793074	5.0.10.0	5_exp_RW	57	Rpleas_acq	CS_B	GWWG	BZZB	VKKV	JXXJ	MQQM	YDDY	treu	retten	fair	spielen	ehrlich	schön	tot	rächen	faul	strafen	eitel	schlecht	1	acq_USunple_CSunple1_RW	acq4567_RW	6	4	400	0	300	300	483	46	0	1	1	blank2r.bmp	0	1	+	0	1	blank2r.bmp	492	1	VKKV	492	1	blank2r.bmp	572	2	rächen	866	1	!	1239	1	!	-1	0	0	0	0	0	0	0	0	0	0	0	0	0	0	0	0	0	0	0	0	0	0	0	0	0	0	0	0	0	0
071619	15:16:30	15:29:46	795367	5.0.10.0	5_exp_RW	57	Rpleas_acq	CS_B	GWWG	BZZB	VKKV	JXXJ	MQQM	YDDY	treu	retten	fair	spielen	ehrlich	schön	tot	rächen	faul	strafen	eitel	schlecht	1	acq_USunple_CSunple1_RW	acq4567_RW	6	5	400	0	300	300	494	46	0	1	1	blank2r.bmp	0	1	+	0	1	blank2r.bmp	492	1	VKKV	492	1	blank2r.bmp	572	3	faul	866	1	!	1239	1	!	-1	0	0	0	0	0	0	0	0	0	0	0	0	0	0	0	0	0	0	0	0	0	0	0	0	0	0	0	0	0	0
071619	15:16:30	15:29:48	797539	5.0.10.0	5_exp_RW	57	Rpleas_acq	CS_B	GWWG	BZZB	VKKV	JXXJ	MQQM	YDDY	treu	retten	fair	spielen	ehrlich	schön	tot	rächen	faul	strafen	eitel	schlecht	1	acq_USpleas_CSpleas2_RW	acq4567_RW	6	6	400	1	300	300	358	46	0	0	1	blank2r.bmp	0	1	+	0	1	blank2r.bmp	492	1	BZZB	492	1	blank2r.bmp	572	3	schön	866	1	!	1239	1	!	1252	0	0	0	0	0	0	0	0	0	0	0	0	0	0	0	0	0	0	0	0	0	0	0	0	0	0	0	0	0	0
071619	15:16:30	15:29:50	799992	5.0.10.0	5_exp_RW	57	Rpleas_acq	CS_B	GWWG	BZZB	VKKV	JXXJ	MQQM	YDDY	treu	retten	fair	spielen	ehrlich	schön	tot	rächen	faul	strafen	eitel	schlecht	1	acq_USunple_CSunple2_RW	acq4567_RW	6	7	400	0	300	300	689	46	0	1	1	blank2r.bmp	0	1	+	0	1	blank2r.bmp	492	1	JXXJ	492	1	blank2r.bmp	572	3	schlecht	866	1	!	1239	1	!	-1	0	0	0	0	0	0	0	0	0	0	0	0	0	0	0	0	0	0	0	0	0	0	0	0	0	0	0	0	0	0
071619	15:16:30	15:29:53	802231	5.0.10.0	5_exp_RW	57	Rpleas_acq	CS_B	GWWG	BZZB	VKKV	JXXJ	MQQM	YDDY	treu	retten	fair	spielen	ehrlich	schön	tot	rächen	faul	strafen	eitel	schlecht	1	acq_USunple_CSunple2_RW	acq4567_RW	6	8	400	1	300	300	433	50	0	0	1	blank2r.bmp	0	1	+	0	1	blank2r.bmp	492	1	JXXJ	492	1	blank2r.bmp	572	1	strafen	866	1	!	1239	1	!	1332	0	0	0	0	0	0	0	0	0	0	0	0	0	0	0	0	0	0	0	0	0	0	0	0	0	0	0	0	0	0
071619	15:16:30	15:29:55	804576	5.0.10.0	5_exp_RW	57	Rpleas_acq	CS_B	GWWG	BZZB	VKKV	JXXJ	MQQM	YDDY	treu	retten	fair	spielen	ehrlich	schön	tot	rächen	faul	strafen	eitel	schlecht	1	acq_USpleas_CSpleas2_RW	acq4567_RW	6	9	400	0	300	300	577	46	0	0	1	blank2r.bmp	0	1	+	0	1	blank2r.bmp	492	1	BZZB	492	1	blank2r.bmp	572	2	ehrlich	866	1	!	1239	1	!	-1	0	0	0	0	0	0	0	0	0	0	0	0	0	0	0	0	0	0	0	0	0	0	0	0	0	0	0	0	0	0
071619	15:16:30	15:30:01	810934	5.0.10.0	5_exp_RW	57	Rpleas_acq	CS_B	GWWG	BZZB	VKKV	JXXJ	MQQM	YDDY	treu	retten	fair	spielen	ehrlich	schön	tot	rächen	faul	strafen	eitel	schlecht	1	acq_USunple_CSunple2_RW	acq4567_RW	6	10	400	0	300	300	4579	50	0	0	1	blank2r.bmp	0	1	+	0	1	blank2r.bmp	492	1	JXXJ	492	1	blank2r.bmp	572	2	eitel	866	1	!	1239	1	!	-1	0	0	0	0	0	0	0	0	0	0	0	0	0	0	0	0	0	0	0	0	0	0	0	0	0	0	0	0	0	0
071619	15:16:30	15:30:04	814132	5.0.10.0	5_exp_RW	57	Rpleas_acq	CS_B	GWWG	BZZB	VKKV	JXXJ	MQQM	YDDY	treu	retten	fair	spielen	ehrlich	schön	tot	rächen	faul	strafen	eitel	schlecht	1	acq_USpleas_CSpleas1_RW	acq4567_RW	6	11	400	0	300	300	1424	50	0	1	1	blank2r.bmp	0	1	+	0	1	blank2r.bmp	492	1	GWWG	492	1	blank2r.bmp	572	1	treu	866	1	!	1239	1	!	-1	0	0	0	0	0	0	0	0	0	0	0	0	0	0	0	0	0	0	0	0	0	0	0	0	0	0	0	0	0	0
071619	15:16:30	15:30:07	816358	5.0.10.0	5_exp_RW	57	Rpleas_acq	CS_B	GWWG	BZZB	VKKV	JXXJ	MQQM	YDDY	treu	retten	fair	spielen	ehrlich	schön	tot	rächen	faul	strafen	eitel	schlecht	1	acq_USpleas_CSpleas1_RW	acq4567_RW	6	12	400	1	300	300	421	50	0	1	1	blank2r.bmp	0	1	+	0	1	blank2r.bmp	492	1	GWWG	492	1	blank2r.bmp	572	3	fair	866	1	!	1239	1	!	1319	0	0	0	0	0	0	0	0	0	0	0	0	0	0	0	0	0	0	0	0	0	0	0	0	0	0	0	0	0	0
071619	15:16:30	15:30:09	818744	5.0.10.0	5_exp_RW	57	Rpleas_acq	CS_B	GWWG	BZZB	VKKV	JXXJ	MQQM	YDDY	treu	retten	fair	spielen	ehrlich	schön	tot	rächen	faul	strafen	eitel	schlecht	1	acq_USpleas_CSpleas1_RW	acq4567_RW	6	13	400	0	300	300	617	50	0	1	1	blank2r.bmp	0	1	+	0	1	blank2r.bmp	492	1	GWWG	492	1	blank2r.bmp	572	2	retten	866	1	!	1239	1	!	-1	0	0	0	0	0	0	0	0	0	0	0	0	0	0	0	0	0	0	0	0	0	0	0	0	0	0	0	0	0	0
071619	15:16:30	15:30:12	821370	5.0.10.0	5_exp_RW	57	Rpleas_acq	CS_B	GWWG	BZZB	VKKV	JXXJ	MQQM	YDDY	treu	retten	fair	spielen	ehrlich	schön	tot	rächen	faul	strafen	eitel	schlecht	1	acq_USpleas_CSpleas1_RW	acq4567_RW	6	14	400	0	300	300	839	50	0	1	1	blank2r.bmp	0	1	+	0	1	blank2r.bmp	492	1	GWWG	492	1	blank2r.bmp	572	1	treu	866	1	!	1239	1	!	-1	0	0	0	0	0	0	0	0	0	0	0	0	0	0	0	0	0	0	0	0	0	0	0	0	0	0	0	0	0	0
071619	15:16:30	15:30:14	823729	5.0.10.0	5_exp_RW	57	Rpleas_acq	CS_B	GWWG	BZZB	VKKV	JXXJ	MQQM	YDDY	treu	retten	fair	spielen	ehrlich	schön	tot	rächen	faul	strafen	eitel	schlecht	1	acq_USunple_CSunple1_RW	acq4567_RW	6	15	400	0	300	300	575	46	0	1	1	blank2r.bmp	0	1	+	0	1	blank2r.bmp	492	1	VKKV	492	1	blank2r.bmp	572	1	tot	866	1	!	1239	1	!	-1	0	0	0	0	0	0	0	0	0	0	0	0	0	0	0	0	0	0	0	0	0	0	0	0	0	0	0	0	0	0
071619	15:16:30	15:30:16	826048	5.0.10.0	5_exp_RW	57	Rpleas_acq	CS_B	GWWG	BZZB	VKKV	JXXJ	MQQM	YDDY	treu	retten	fair	spielen	ehrlich	schön	tot	rächen	faul	strafen	eitel	schlecht	1	acq_USunple_CSunple1_RW	acq4567_RW	6	16	400	0	300	300	521	46	0	1	1	blank2r.bmp	0	1	+	0	1	blank2r.bmp	492	1	VKKV	492	1	blank2r.bmp	572	1	tot	866	1	!	1239	1	!	-1	0	0	0	0	0	0	0	0	0	0	0	0	0	0	0	0	0	0	0	0	0	0	0	0	0	0	0	0	0	0
071619	15:16:30	15:30:19	828247	5.0.10.0	5_exp_RW	57	Rpleas_acq	CS_B	GWWG	BZZB	VKKV	JXXJ	MQQM	YDDY	treu	retten	fair	spielen	ehrlich	schön	tot	rächen	faul	strafen	eitel	schlecht	1	acq_USunple_CSunple2_RW	acq4567_RW	6	17	400	1	300	300	394	50	0	0	1	blank2r.bmp	0	1	+	0	1	blank2r.bmp	492	1	JXXJ	492	1	blank2r.bmp	572	2	eitel	866	1	!	1239	1	!	1292	0	0	0	0	0	0	0	0	0	0	0	0	0	0	0	0	0	0	0	0	0	0	0	0	0	0	0	0	0	0
071619	15:16:30	15:30:25	834497	5.0.10.0	5_exp_RW	57	Rpleas_acq	CS_B	GWWG	BZZB	VKKV	JXXJ	MQQM	YDDY	treu	retten	fair	spielen	ehrlich	schön	tot	rächen	faul	strafen	eitel	schlecht	1	acq_USpleas_CSpleas1_RW	acq4567_RW	6	18	400	0	300	300	4479	50	0	1	1	blank2r.bmp	0	1	+	0	1	blank2r.bmp	492	1	GWWG	492	1	blank2r.bmp	572	1	treu	866	1	!	1239	1	!	-1	0	0	0	0	0	0	0	0	0	0	0	0	0	0	0	0	0	0	0	0	0	0	0	0	0	0	0	0	0	0
071619	15:16:30	15:30:27	836750	5.0.10.0	5_exp_RW	57	Rpleas_acq	CS_B	GWWG	BZZB	VKKV	JXXJ	MQQM	YDDY	treu	retten	fair	spielen	ehrlich	schön	tot	rächen	faul	strafen	eitel	schlecht	1	acq_USpleas_CSpleas2_RW	acq4567_RW	6	19	400	1	300	300	451	50	0	1	1	blank2r.bmp	0	1	+	0	1	blank2r.bmp	492	1	BZZB	492	1	blank2r.bmp	572	1	spielen	866	1	!	1239	1	!	1346	0	0	0	0	0	0	0	0	0	0	0	0	0	0	0	0	0	0	0	0	0	0	0	0	0	0	0	0	0	0
071619	15:16:30	15:30:29	838949	5.0.10.0	5_exp_RW	57	Rpleas_acq	CS_B	GWWG	BZZB	VKKV	JXXJ	MQQM	YDDY	treu	retten	fair	spielen	ehrlich	schön	tot	rächen	faul	strafen	eitel	schlecht	1	acq_USpleas_CSpleas2_RW	acq4567_RW	6	20	400	1	300	300	403	50	0	1	1	blank2r.bmp	0	1	+	0	1	blank2r.bmp	492	1	BZZB	492	1	blank2r.bmp	572	2	ehrlich	866	1	!	1239	1	!	1306	0	0	0	0	0	0	0	0	0	0	0	0	0	0	0	0	0	0	0	0	0	0	0	0	0	0	0	0	0	0
