date	time	script.currenttime	script.elapsedtime	build	script.currentexpt	subject	expressions.LRpleas_acq	expressions.conditionCS_A	expressions.CSpleas_1	expressions.CSpleas_2	expressions.CSunple_1	expressions.CSunple_2	expressions.distractor_1	expressions.distractor_2	expressions.US_pleas1	expressions.US_pleas2	expressions.US_pleas3	expressions.US_pleas4	expressions.US_pleas5	expressions.US_pleas6	expressions.US_unple1	expressions.US_unple2	expressions.US_unple3	expressions.US_unple4	expressions.US_unple5	expressions.US_unple6	counter.positions_noRW	trialcode	blockcode	blocknum	trialnum	windowcenter	inwindow	pretrialpause	posttrialpause	latency	response	expressions.correctedscore	correct	stimulusnumber1	stimulusitem1	stimulusonset1	stimulusnumber2	stimulusitem2	stimulusonset2	stimulusnumber3	stimulusitem3	stimulusonset3	stimulusnumber4	stimulusitem4	stimulusonset4	stimulusnumber5	stimulusitem5	stimulusonset5	stimulusnumber6	stimulusitem6	stimulusonset6	stimulusnumber7	stimulusitem7	stimulusonset7	stimulusnumber8	stimulusitem8	stimulusonset8	stimulusnumber9	stimulusitem9	stimulusonset9	stimulusnumber10	stimulusitem10	stimulusonset10	stimulusnumber11	stimulusitem11	stimulusonset11	stimulusnumber12	stimulusitem12	stimulusonset12	stimulusnumber13	stimulusitem13	stimulusonset13	stimulusnumber14	stimulusitem14	stimulusonset14	stimulusnumber15	stimulusitem15	stimulusonset15	stimulusnumber16	stimulusitem16	stimulusonset16	stimulusnumber17	stimulusitem17	stimulusonset17	stimulusnumber18	stimulusitem18	stimulusonset18
070819	16:16:04	16:18:27	141422	5.0.10.0	5_exp_RW	23	Rpleas_acq	CS_B	JXXJ	YDDY	BZZB	GWWG	VKKV	MQQM	schön	spielen	fair	retten	treu	ehrlich	schlecht	strafen	faul	rächen	tot	eitel	1	acq_USunple_CSunple1_RW	acq1_RW	1	1	0	0	300	300	2715	46	0	1	1	blank2r.bmp	0	1	+	0	1	blank2r.bmp	492	1	BZZB	492	1	blank2r.bmp	572	2	strafen	866	0	0	0	0	0	0	0	0	0	0	0	0	0	0	0	0	0	0	0	0	0	0	0	0	0	0	0	0	0	0	0	0	0	0	0	0
070819	16:16:04	16:18:30	144381	5.0.10.0	5_exp_RW	23	Rpleas_acq	CS_B	JXXJ	YDDY	BZZB	GWWG	VKKV	MQQM	schön	spielen	fair	retten	treu	ehrlich	schlecht	strafen	faul	rächen	tot	eitel	1	acq_USunple_CSunple2_RW	acq1_RW	1	2	0	0	300	300	1475	46	0	1	1	blank2r.bmp	0	1	+	0	1	blank2r.bmp	492	1	GWWG	492	1	blank2r.bmp	572	2	tot	866	0	0	0	0	0	0	0	0	0	0	0	0	0	0	0	0	0	0	0	0	0	0	0	0	0	0	0	0	0	0	0	0	0	0	0	0
070819	16:16:04	16:18:32	146380	5.0.10.0	5_exp_RW	23	Rpleas_acq	CS_B	JXXJ	YDDY	BZZB	GWWG	VKKV	MQQM	schön	spielen	fair	retten	treu	ehrlich	schlecht	strafen	faul	rächen	tot	eitel	1	acq_USunple_CSunple1_RW	acq1_RW	1	3	0	0	300	300	507	46	0	1	1	blank2r.bmp	0	1	+	0	1	blank2r.bmp	492	1	BZZB	492	1	blank2r.bmp	572	1	schlecht	866	0	0	0	0	0	0	0	0	0	0	0	0	0	0	0	0	0	0	0	0	0	0	0	0	0	0	0	0	0	0	0	0	0	0	0	0
070819	16:16:04	16:18:34	148259	5.0.10.0	5_exp_RW	23	Rpleas_acq	CS_B	JXXJ	YDDY	BZZB	GWWG	VKKV	MQQM	schön	spielen	fair	retten	treu	ehrlich	schlecht	strafen	faul	rächen	tot	eitel	1	acq_USpleas_CSpleas1_RW	acq1_RW	1	4	0	0	300	300	406	50	0	1	1	blank2r.bmp	0	1	+	0	1	blank2r.bmp	492	1	JXXJ	492	1	blank2r.bmp	572	2	spielen	866	0	0	0	0	0	0	0	0	0	0	0	0	0	0	0	0	0	0	0	0	0	0	0	0	0	0	0	0	0	0	0	0	0	0	0	0
070819	16:16:04	16:18:37	150672	5.0.10.0	5_exp_RW	23	Rpleas_acq	CS_B	JXXJ	YDDY	BZZB	GWWG	VKKV	MQQM	schön	spielen	fair	retten	treu	ehrlich	schlecht	strafen	faul	rächen	tot	eitel	1	acq_USpleas_CSpleas1_RW	acq1_RW	1	5	0	0	300	300	932	50	0	1	1	blank2r.bmp	0	1	+	0	1	blank2r.bmp	492	1	JXXJ	492	1	blank2r.bmp	572	3	fair	866	0	0	0	0	0	0	0	0	0	0	0	0	0	0	0	0	0	0	0	0	0	0	0	0	0	0	0	0	0	0	0	0	0	0	0	0
070819	16:16:04	16:18:39	153390	5.0.10.0	5_exp_RW	23	Rpleas_acq	CS_B	JXXJ	YDDY	BZZB	GWWG	VKKV	MQQM	schön	spielen	fair	retten	treu	ehrlich	schlecht	strafen	faul	rächen	tot	eitel	1	acq_USunple_CSunple1_RW	acq1_RW	1	6	0	0	300	300	1242	46	0	1	1	blank2r.bmp	0	1	+	0	1	blank2r.bmp	492	1	BZZB	492	1	blank2r.bmp	572	3	faul	866	0	0	0	0	0	0	0	0	0	0	0	0	0	0	0	0	0	0	0	0	0	0	0	0	0	0	0	0	0	0	0	0	0	0	0	0
070819	16:16:04	16:18:42	155483	5.0.10.0	5_exp_RW	23	Rpleas_acq	CS_B	JXXJ	YDDY	BZZB	GWWG	VKKV	MQQM	schön	spielen	fair	retten	treu	ehrlich	schlecht	strafen	faul	rächen	tot	eitel	1	acq_USpleas_CSpleas2_RW	acq1_RW	1	7	0	0	300	300	621	50	0	1	1	blank2r.bmp	0	1	+	0	1	blank2r.bmp	492	1	YDDY	492	1	blank2r.bmp	572	1	retten	866	0	0	0	0	0	0	0	0	0	0	0	0	0	0	0	0	0	0	0	0	0	0	0	0	0	0	0	0	0	0	0	0	0	0	0	0
070819	16:16:04	16:18:44	157709	5.0.10.0	5_exp_RW	23	Rpleas_acq	CS_B	JXXJ	YDDY	BZZB	GWWG	VKKV	MQQM	schön	spielen	fair	retten	treu	ehrlich	schlecht	strafen	faul	rächen	tot	eitel	1	acq_USpleas_CSpleas1_RW	acq1_RW	1	8	0	0	300	300	537	46	0	0	1	blank2r.bmp	0	1	+	0	1	blank2r.bmp	492	1	JXXJ	492	1	blank2r.bmp	572	1	schön	866	1	FEHLER	1439	0	0	0	0	0	0	0	0	0	0	0	0	0	0	0	0	0	0	0	0	0	0	0	0	0	0	0	0	0	0	0	0	0
070819	16:16:04	16:18:46	160254	5.0.10.0	5_exp_RW	23	Rpleas_acq	CS_B	JXXJ	YDDY	BZZB	GWWG	VKKV	MQQM	schön	spielen	fair	retten	treu	ehrlich	schlecht	strafen	faul	rächen	tot	eitel	1	acq_USunple_CSunple2_RW	acq1_RW	1	9	0	0	300	300	1285	46	0	1	1	blank2r.bmp	0	1	+	0	1	blank2r.bmp	492	1	GWWG	492	1	blank2r.bmp	572	3	eitel	866	0	0	0	0	0	0	0	0	0	0	0	0	0	0	0	0	0	0	0	0	0	0	0	0	0	0	0	0	0	0	0	0	0	0	0	0
070819	16:16:04	16:18:49	162600	5.0.10.0	5_exp_RW	23	Rpleas_acq	CS_B	JXXJ	YDDY	BZZB	GWWG	VKKV	MQQM	schön	spielen	fair	retten	treu	ehrlich	schlecht	strafen	faul	rächen	tot	eitel	1	acq_USunple_CSunple2_RW	acq1_RW	1	10	0	0	300	300	856	46	0	1	1	blank2r.bmp	0	1	+	0	1	blank2r.bmp	492	1	GWWG	492	1	blank2r.bmp	572	1	rächen	866	0	0	0	0	0	0	0	0	0	0	0	0	0	0	0	0	0	0	0	0	0	0	0	0	0	0	0	0	0	0	0	0	0	0	0	0
070819	16:16:04	16:18:51	164812	5.0.10.0	5_exp_RW	23	Rpleas_acq	CS_B	JXXJ	YDDY	BZZB	GWWG	VKKV	MQQM	schön	spielen	fair	retten	treu	ehrlich	schlecht	strafen	faul	rächen	tot	eitel	1	acq_USpleas_CSpleas2_RW	acq1_RW	1	11	0	0	300	300	524	46	0	0	1	blank2r.bmp	0	1	+	0	1	blank2r.bmp	492	1	YDDY	492	1	blank2r.bmp	572	2	treu	866	1	FEHLER	1426	0	0	0	0	0	0	0	0	0	0	0	0	0	0	0	0	0	0	0	0	0	0	0	0	0	0	0	0	0	0	0	0	0
070819	16:16:04	16:18:53	166758	5.0.10.0	5_exp_RW	23	Rpleas_acq	CS_B	JXXJ	YDDY	BZZB	GWWG	VKKV	MQQM	schön	spielen	fair	retten	treu	ehrlich	schlecht	strafen	faul	rächen	tot	eitel	1	acq_USpleas_CSpleas1_RW	acq1_RW	1	12	0	0	300	300	667	50	0	1	1	blank2r.bmp	0	1	+	0	1	blank2r.bmp	492	1	JXXJ	492	1	blank2r.bmp	572	1	schön	866	0	0	0	0	0	0	0	0	0	0	0	0	0	0	0	0	0	0	0	0	0	0	0	0	0	0	0	0	0	0	0	0	0	0	0	0
070819	16:16:04	16:18:55	169211	5.0.10.0	5_exp_RW	23	Rpleas_acq	CS_B	JXXJ	YDDY	BZZB	GWWG	VKKV	MQQM	schön	spielen	fair	retten	treu	ehrlich	schlecht	strafen	faul	rächen	tot	eitel	1	acq_USunple_CSunple2_RW	acq1_RW	1	13	0	0	300	300	971	46	0	1	1	blank2r.bmp	0	1	+	0	1	blank2r.bmp	492	1	GWWG	492	1	blank2r.bmp	572	3	eitel	866	0	0	0	0	0	0	0	0	0	0	0	0	0	0	0	0	0	0	0	0	0	0	0	0	0	0	0	0	0	0	0	0	0	0	0	0
070819	16:16:04	16:18:58	171716	5.0.10.0	5_exp_RW	23	Rpleas_acq	CS_B	JXXJ	YDDY	BZZB	GWWG	VKKV	MQQM	schön	spielen	fair	retten	treu	ehrlich	schlecht	strafen	faul	rächen	tot	eitel	1	acq_USpleas_CSpleas2_RW	acq1_RW	1	14	0	0	300	300	1024	50	0	1	1	blank2r.bmp	0	1	+	0	1	blank2r.bmp	492	1	YDDY	492	1	blank2r.bmp	572	3	ehrlich	866	0	0	0	0	0	0	0	0	0	0	0	0	0	0	0	0	0	0	0	0	0	0	0	0	0	0	0	0	0	0	0	0	0	0	0	0
070819	16:16:04	16:19:00	173796	5.0.10.0	5_exp_RW	23	Rpleas_acq	CS_B	JXXJ	YDDY	BZZB	GWWG	VKKV	MQQM	schön	spielen	fair	retten	treu	ehrlich	schlecht	strafen	faul	rächen	tot	eitel	1	acq_USunple_CSunple1_RW	acq1_RW	1	15	0	0	300	300	586	46	0	1	1	blank2r.bmp	0	1	+	0	1	blank2r.bmp	492	1	BZZB	492	1	blank2r.bmp	572	3	faul	866	0	0	0	0	0	0	0	0	0	0	0	0	0	0	0	0	0	0	0	0	0	0	0	0	0	0	0	0	0	0	0	0	0	0	0	0
070819	16:16:04	16:19:03	176514	5.0.10.0	5_exp_RW	23	Rpleas_acq	CS_B	JXXJ	YDDY	BZZB	GWWG	VKKV	MQQM	schön	spielen	fair	retten	treu	ehrlich	schlecht	strafen	faul	rächen	tot	eitel	1	acq_USpleas_CSpleas2_RW	acq1_RW	1	16	0	0	300	300	1248	50	0	1	1	blank2r.bmp	0	1	+	0	1	blank2r.bmp	492	1	YDDY	492	1	blank2r.bmp	572	3	ehrlich	866	0	0	0	0	0	0	0	0	0	0	0	0	0	0	0	0	0	0	0	0	0	0	0	0	0	0	0	0	0	0	0	0	0	0	0	0
070819	16:16:04	16:19:42	215978	5.0.10.0	5_exp_RW	23	Rpleas_acq	CS_B	JXXJ	YDDY	BZZB	GWWG	VKKV	MQQM	schön	spielen	fair	retten	treu	ehrlich	schlecht	strafen	faul	rächen	tot	eitel	1	acq_USpleas_CSpleas2_RW	acq2_RW	2	1	480	0	300	300	982	50	0	1	1	blank2r.bmp	0	1	+	0	1	blank2r.bmp	492	1	YDDY	492	1	blank2r.bmp	572	2	treu	866	1	!	1319	1	!	-1	0	0	0	0	0	0	0	0	0	0	0	0	0	0	0	0	0	0	0	0	0	0	0	0	0	0	0	0	0	0
070819	16:16:04	16:19:44	218377	5.0.10.0	5_exp_RW	23	Rpleas_acq	CS_B	JXXJ	YDDY	BZZB	GWWG	VKKV	MQQM	schön	spielen	fair	retten	treu	ehrlich	schlecht	strafen	faul	rächen	tot	eitel	1	acq_USunple_CSunple1_RW	acq2_RW	2	2	480	0	300	300	604	46	0	1	1	blank2r.bmp	0	1	+	0	1	blank2r.bmp	492	1	BZZB	492	1	blank2r.bmp	572	2	strafen	866	1	!	1319	1	!	-1	0	0	0	0	0	0	0	0	0	0	0	0	0	0	0	0	0	0	0	0	0	0	0	0	0	0	0	0	0	0
070819	16:16:04	16:19:47	220910	5.0.10.0	5_exp_RW	23	Rpleas_acq	CS_B	JXXJ	YDDY	BZZB	GWWG	VKKV	MQQM	schön	spielen	fair	retten	treu	ehrlich	schlecht	strafen	faul	rächen	tot	eitel	1	acq_USunple_CSunple2_RW	acq2_RW	2	3	480	0	300	300	747	46	0	1	1	blank2r.bmp	0	1	+	0	1	blank2r.bmp	492	1	GWWG	492	1	blank2r.bmp	572	1	rächen	866	1	!	1319	1	!	-1	0	0	0	0	0	0	0	0	0	0	0	0	0	0	0	0	0	0	0	0	0	0	0	0	0	0	0	0	0	0
070819	16:16:04	16:19:49	223042	5.0.10.0	5_exp_RW	23	Rpleas_acq	CS_B	JXXJ	YDDY	BZZB	GWWG	VKKV	MQQM	schön	spielen	fair	retten	treu	ehrlich	schlecht	strafen	faul	rächen	tot	eitel	1	acq_USpleas_CSpleas1_RW	acq2_RW	2	4	480	0	300	300	354	50	0	1	1	blank2r.bmp	0	1	+	0	1	blank2r.bmp	492	1	JXXJ	492	1	blank2r.bmp	572	2	spielen	866	1	!	-1	1	!	-1	0	0	0	0	0	0	0	0	0	0	0	0	0	0	0	0	0	0	0	0	0	0	0	0	0	0	0	0	0	0
070819	16:16:04	16:19:52	225535	5.0.10.0	5_exp_RW	23	Rpleas_acq	CS_B	JXXJ	YDDY	BZZB	GWWG	VKKV	MQQM	schön	spielen	fair	retten	treu	ehrlich	schlecht	strafen	faul	rächen	tot	eitel	1	acq_USunple_CSunple2_RW	acq2_RW	2	5	480	0	300	300	708	46	0	1	1	blank2r.bmp	0	1	+	0	1	blank2r.bmp	492	1	GWWG	492	1	blank2r.bmp	572	2	tot	866	1	!	1319	1	!	-1	0	0	0	0	0	0	0	0	0	0	0	0	0	0	0	0	0	0	0	0	0	0	0	0	0	0	0	0	0	0
070819	16:16:04	16:19:54	227920	5.0.10.0	5_exp_RW	23	Rpleas_acq	CS_B	JXXJ	YDDY	BZZB	GWWG	VKKV	MQQM	schön	spielen	fair	retten	treu	ehrlich	schlecht	strafen	faul	rächen	tot	eitel	1	acq_USunple_CSunple1_RW	acq2_RW	2	6	480	0	300	300	381	50	0	0	1	blank2r.bmp	0	1	+	0	1	blank2r.bmp	492	1	BZZB	492	1	blank2r.bmp	572	1	schlecht	866	1	FEHLER	1586	1	!	-1	1	!	-1	0	0	0	0	0	0	0	0	0	0	0	0	0	0	0	0	0	0	0	0	0	0	0	0	0	0	0
070819	16:16:04	16:19:56	229999	5.0.10.0	5_exp_RW	23	Rpleas_acq	CS_B	JXXJ	YDDY	BZZB	GWWG	VKKV	MQQM	schön	spielen	fair	retten	treu	ehrlich	schlecht	strafen	faul	rächen	tot	eitel	1	acq_USpleas_CSpleas2_RW	acq2_RW	2	7	480	1	300	300	487	50	0	1	1	blank2r.bmp	0	1	+	0	1	blank2r.bmp	492	1	YDDY	492	1	blank2r.bmp	572	1	retten	866	1	!	1319	1	!	1386	0	0	0	0	0	0	0	0	0	0	0	0	0	0	0	0	0	0	0	0	0	0	0	0	0	0	0	0	0	0
070819	16:16:04	16:19:58	232305	5.0.10.0	5_exp_RW	23	Rpleas_acq	CS_B	JXXJ	YDDY	BZZB	GWWG	VKKV	MQQM	schön	spielen	fair	retten	treu	ehrlich	schlecht	strafen	faul	rächen	tot	eitel	1	acq_USpleas_CSpleas1_RW	acq2_RW	2	8	480	1	300	300	501	50	0	1	1	blank2r.bmp	0	1	+	0	1	blank2r.bmp	492	1	JXXJ	492	1	blank2r.bmp	572	3	fair	866	1	!	1319	1	!	1399	0	0	0	0	0	0	0	0	0	0	0	0	0	0	0	0	0	0	0	0	0	0	0	0	0	0	0	0	0	0
070819	16:16:04	16:20:01	234797	5.0.10.0	5_exp_RW	23	Rpleas_acq	CS_B	JXXJ	YDDY	BZZB	GWWG	VKKV	MQQM	schön	spielen	fair	retten	treu	ehrlich	schlecht	strafen	faul	rächen	tot	eitel	1	acq_USunple_CSunple2_RW	acq2_RW	2	9	480	1	300	300	489	50	0	0	1	blank2r.bmp	0	1	+	0	1	blank2r.bmp	492	1	GWWG	492	1	blank2r.bmp	572	1	rächen	866	1	FEHLER	1705	1	!	1319	1	!	1386	0	0	0	0	0	0	0	0	0	0	0	0	0	0	0	0	0	0	0	0	0	0	0	0	0	0	0
070819	16:16:04	16:20:03	236890	5.0.10.0	5_exp_RW	23	Rpleas_acq	CS_B	JXXJ	YDDY	BZZB	GWWG	VKKV	MQQM	schön	spielen	fair	retten	treu	ehrlich	schlecht	strafen	faul	rächen	tot	eitel	1	acq_USpleas_CSpleas1_RW	acq2_RW	2	10	480	1	300	300	515	50	0	1	1	blank2r.bmp	0	1	+	0	1	blank2r.bmp	492	1	JXXJ	492	1	blank2r.bmp	572	2	spielen	866	1	!	1319	1	!	1412	0	0	0	0	0	0	0	0	0	0	0	0	0	0	0	0	0	0	0	0	0	0	0	0	0	0	0	0	0	0
070819	16:16:04	16:20:05	239222	5.0.10.0	5_exp_RW	23	Rpleas_acq	CS_B	JXXJ	YDDY	BZZB	GWWG	VKKV	MQQM	schön	spielen	fair	retten	treu	ehrlich	schlecht	strafen	faul	rächen	tot	eitel	1	acq_USpleas_CSpleas2_RW	acq2_RW	2	11	480	0	300	300	341	46	0	0	1	blank2r.bmp	0	1	+	0	1	blank2r.bmp	492	1	YDDY	492	1	blank2r.bmp	572	2	treu	866	1	FEHLER	1546	1	!	-1	1	!	-1	0	0	0	0	0	0	0	0	0	0	0	0	0	0	0	0	0	0	0	0	0	0	0	0	0	0	0
070819	16:16:04	16:20:07	241355	5.0.10.0	5_exp_RW	23	Rpleas_acq	CS_B	JXXJ	YDDY	BZZB	GWWG	VKKV	MQQM	schön	spielen	fair	retten	treu	ehrlich	schlecht	strafen	faul	rächen	tot	eitel	1	acq_USunple_CSunple2_RW	acq2_RW	2	12	480	0	300	300	577	46	0	1	1	blank2r.bmp	0	1	+	0	1	blank2r.bmp	492	1	GWWG	492	1	blank2r.bmp	572	3	eitel	866	1	!	1319	1	!	-1	0	0	0	0	0	0	0	0	0	0	0	0	0	0	0	0	0	0	0	0	0	0	0	0	0	0	0	0	0	0
070819	16:16:04	16:20:18	251951	5.0.10.0	5_exp_RW	23	Rpleas_acq	CS_B	JXXJ	YDDY	BZZB	GWWG	VKKV	MQQM	schön	spielen	fair	retten	treu	ehrlich	schlecht	strafen	faul	rächen	tot	eitel	1	acq_USpleas_CSpleas2_RW	acq2_RW	2	13	480	0	300	300	8584	46	0	0	1	blank2r.bmp	0	1	+	0	1	blank2r.bmp	492	1	YDDY	492	1	blank2r.bmp	572	1	retten	866	1	FEHLER	9796	1	!	1319	1	!	-1	0	0	0	0	0	0	0	0	0	0	0	0	0	0	0	0	0	0	0	0	0	0	0	0	0	0	0
070819	16:16:04	16:20:20	254070	5.0.10.0	5_exp_RW	23	Rpleas_acq	CS_B	JXXJ	YDDY	BZZB	GWWG	VKKV	MQQM	schön	spielen	fair	retten	treu	ehrlich	schlecht	strafen	faul	rächen	tot	eitel	1	acq_USpleas_CSpleas1_RW	acq2_RW	2	14	480	0	300	300	559	50	0	1	1	blank2r.bmp	0	1	+	0	1	blank2r.bmp	492	1	JXXJ	492	1	blank2r.bmp	572	3	fair	866	1	!	1319	1	!	-1	0	0	0	0	0	0	0	0	0	0	0	0	0	0	0	0	0	0	0	0	0	0	0	0	0	0	0	0	0	0
070819	16:16:04	16:20:22	256242	5.0.10.0	5_exp_RW	23	Rpleas_acq	CS_B	JXXJ	YDDY	BZZB	GWWG	VKKV	MQQM	schön	spielen	fair	retten	treu	ehrlich	schlecht	strafen	faul	rächen	tot	eitel	1	acq_USunple_CSunple1_RW	acq2_RW	2	15	480	0	300	300	397	46	0	1	1	blank2r.bmp	0	1	+	0	1	blank2r.bmp	492	1	BZZB	492	1	blank2r.bmp	572	1	schlecht	866	1	!	-1	1	!	-1	0	0	0	0	0	0	0	0	0	0	0	0	0	0	0	0	0	0	0	0	0	0	0	0	0	0	0	0	0	0
070819	16:16:04	16:20:25	258881	5.0.10.0	5_exp_RW	23	Rpleas_acq	CS_B	JXXJ	YDDY	BZZB	GWWG	VKKV	MQQM	schön	spielen	fair	retten	treu	ehrlich	schlecht	strafen	faul	rächen	tot	eitel	1	acq_USunple_CSunple1_RW	acq2_RW	2	16	480	0	300	300	624	50	0	0	1	blank2r.bmp	0	1	+	0	1	blank2r.bmp	492	1	BZZB	492	1	blank2r.bmp	572	3	faul	866	1	FEHLER	1825	1	!	1319	1	!	-1	0	0	0	0	0	0	0	0	0	0	0	0	0	0	0	0	0	0	0	0	0	0	0	0	0	0	0
070819	16:16:04	16:20:27	261067	5.0.10.0	5_exp_RW	23	Rpleas_acq	CS_B	JXXJ	YDDY	BZZB	GWWG	VKKV	MQQM	schön	spielen	fair	retten	treu	ehrlich	schlecht	strafen	faul	rächen	tot	eitel	1	acq_USpleas_CSpleas2_RW	acq2_RW	2	17	480	0	300	300	407	46	0	0	1	blank2r.bmp	0	1	+	0	1	blank2r.bmp	492	1	YDDY	492	1	blank2r.bmp	572	3	ehrlich	866	1	FEHLER	1612	1	!	-1	1	!	-1	0	0	0	0	0	0	0	0	0	0	0	0	0	0	0	0	0	0	0	0	0	0	0	0	0	0	0
070819	16:16:04	16:20:29	263439	5.0.10.0	5_exp_RW	23	Rpleas_acq	CS_B	JXXJ	YDDY	BZZB	GWWG	VKKV	MQQM	schön	spielen	fair	retten	treu	ehrlich	schlecht	strafen	faul	rächen	tot	eitel	1	acq_USunple_CSunple1_RW	acq2_RW	2	18	480	0	300	300	589	50	0	0	1	blank2r.bmp	0	1	+	0	1	blank2r.bmp	492	1	BZZB	492	1	blank2r.bmp	572	2	strafen	866	1	FEHLER	1799	1	!	1319	1	!	-1	0	0	0	0	0	0	0	0	0	0	0	0	0	0	0	0	0	0	0	0	0	0	0	0	0	0	0
070819	16:16:04	16:20:32	265585	5.0.10.0	5_exp_RW	23	Rpleas_acq	CS_B	JXXJ	YDDY	BZZB	GWWG	VKKV	MQQM	schön	spielen	fair	retten	treu	ehrlich	schlecht	strafen	faul	rächen	tot	eitel	1	acq_USunple_CSunple1_RW	acq2_RW	2	19	480	0	300	300	587	46	0	1	1	blank2r.bmp	0	1	+	0	1	blank2r.bmp	492	1	BZZB	492	1	blank2r.bmp	572	3	faul	866	1	!	1319	1	!	-1	0	0	0	0	0	0	0	0	0	0	0	0	0	0	0	0	0	0	0	0	0	0	0	0	0	0	0	0	0	0
070819	16:16:04	16:20:34	268091	5.0.10.0	5_exp_RW	23	Rpleas_acq	CS_B	JXXJ	YDDY	BZZB	GWWG	VKKV	MQQM	schön	spielen	fair	retten	treu	ehrlich	schlecht	strafen	faul	rächen	tot	eitel	1	acq_USpleas_CSpleas1_RW	acq2_RW	2	20	480	0	300	300	713	50	0	1	1	blank2r.bmp	0	1	+	0	1	blank2r.bmp	492	1	JXXJ	492	1	blank2r.bmp	572	1	schön	866	1	!	1319	1	!	-1	0	0	0	0	0	0	0	0	0	0	0	0	0	0	0	0	0	0	0	0	0	0	0	0	0	0	0	0	0	0
070819	16:16:04	16:20:36	270183	5.0.10.0	5_exp_RW	23	Rpleas_acq	CS_B	JXXJ	YDDY	BZZB	GWWG	VKKV	MQQM	schön	spielen	fair	retten	treu	ehrlich	schlecht	strafen	faul	rächen	tot	eitel	1	acq_USunple_CSunple2_RW	acq2_RW	2	21	480	0	300	300	317	46	0	1	1	blank2r.bmp	0	1	+	0	1	blank2r.bmp	492	1	GWWG	492	1	blank2r.bmp	572	2	tot	866	1	!	-1	1	!	-1	0	0	0	0	0	0	0	0	0	0	0	0	0	0	0	0	0	0	0	0	0	0	0	0	0	0	0	0	0	0
070819	16:16:04	16:20:39	272529	5.0.10.0	5_exp_RW	23	Rpleas_acq	CS_B	JXXJ	YDDY	BZZB	GWWG	VKKV	MQQM	schön	spielen	fair	retten	treu	ehrlich	schlecht	strafen	faul	rächen	tot	eitel	1	acq_USpleas_CSpleas2_RW	acq2_RW	2	22	480	0	300	300	559	50	0	1	1	blank2r.bmp	0	1	+	0	1	blank2r.bmp	492	1	YDDY	492	1	blank2r.bmp	572	1	retten	866	1	!	1319	1	!	-1	0	0	0	0	0	0	0	0	0	0	0	0	0	0	0	0	0	0	0	0	0	0	0	0	0	0	0	0	0	0
070819	16:16:04	16:20:41	274621	5.0.10.0	5_exp_RW	23	Rpleas_acq	CS_B	JXXJ	YDDY	BZZB	GWWG	VKKV	MQQM	schön	spielen	fair	retten	treu	ehrlich	schlecht	strafen	faul	rächen	tot	eitel	1	acq_USunple_CSunple2_RW	acq2_RW	2	23	480	0	300	300	309	46	0	1	1	blank2r.bmp	0	1	+	0	1	blank2r.bmp	492	1	GWWG	492	1	blank2r.bmp	572	3	eitel	866	1	!	-1	1	!	-1	0	0	0	0	0	0	0	0	0	0	0	0	0	0	0	0	0	0	0	0	0	0	0	0	0	0	0	0	0	0
070819	16:16:04	16:20:43	276634	5.0.10.0	5_exp_RW	23	Rpleas_acq	CS_B	JXXJ	YDDY	BZZB	GWWG	VKKV	MQQM	schön	spielen	fair	retten	treu	ehrlich	schlecht	strafen	faul	rächen	tot	eitel	1	acq_USpleas_CSpleas1_RW	acq2_RW	2	24	480	0	300	300	228	50	0	1	1	blank2r.bmp	0	1	+	0	1	blank2r.bmp	492	1	JXXJ	492	1	blank2r.bmp	572	2	spielen	866	1	!	-1	1	!	-1	0	0	0	0	0	0	0	0	0	0	0	0	0	0	0	0	0	0	0	0	0	0	0	0	0	0	0	0	0	0
070819	16:16:04	16:20:55	289255	5.0.10.0	5_exp_RW	23	Rpleas_acq	CS_B	JXXJ	YDDY	BZZB	GWWG	VKKV	MQQM	schön	spielen	fair	retten	treu	ehrlich	schlecht	strafen	faul	rächen	tot	eitel	1	acq_USpleas_CSpleas1_RW	acq3_RW	3	1	453	0	300	300	655	46	0	0	1	blank2r.bmp	0	1	+	0	1	blank2r.bmp	492	1	JXXJ	492	1	blank2r.bmp	572	3	fair	866	1	FEHLER	1865	1	!	1292	1	!	-1	0	0	0	0	0	0	0	0	0	0	0	0	0	0	0	0	0	0	0	0	0	0	0	0	0	0	0
070819	16:16:04	16:20:58	291534	5.0.10.0	5_exp_RW	23	Rpleas_acq	CS_B	JXXJ	YDDY	BZZB	GWWG	VKKV	MQQM	schön	spielen	fair	retten	treu	ehrlich	schlecht	strafen	faul	rächen	tot	eitel	1	acq_USunple_CSunple2_RW	acq3_RW	3	2	453	1	300	300	481	50	0	0	1	blank2r.bmp	0	1	+	0	1	blank2r.bmp	492	1	GWWG	492	1	blank2r.bmp	572	2	tot	866	1	FEHLER	1705	1	!	1292	1	!	1386	0	0	0	0	0	0	0	0	0	0	0	0	0	0	0	0	0	0	0	0	0	0	0	0	0	0	0
070819	16:16:04	16:21:01	295186	5.0.10.0	5_exp_RW	23	Rpleas_acq	CS_B	JXXJ	YDDY	BZZB	GWWG	VKKV	MQQM	schön	spielen	fair	retten	treu	ehrlich	schlecht	strafen	faul	rächen	tot	eitel	1	acq_USunple_CSunple1_RW	acq3_RW	3	3	453	0	300	300	2087	46	0	1	1	blank2r.bmp	0	1	+	0	1	blank2r.bmp	492	1	BZZB	492	1	blank2r.bmp	572	1	schlecht	866	1	!	1292	1	!	-1	0	0	0	0	0	0	0	0	0	0	0	0	0	0	0	0	0	0	0	0	0	0	0	0	0	0	0	0	0	0
070819	16:16:04	16:21:04	297652	5.0.10.0	5_exp_RW	23	Rpleas_acq	CS_B	JXXJ	YDDY	BZZB	GWWG	VKKV	MQQM	schön	spielen	fair	retten	treu	ehrlich	schlecht	strafen	faul	rächen	tot	eitel	1	acq_USpleas_CSpleas1_RW	acq3_RW	3	4	453	0	300	300	684	50	0	1	1	blank2r.bmp	0	1	+	0	1	blank2r.bmp	492	1	JXXJ	492	1	blank2r.bmp	572	1	schön	866	1	!	1292	1	!	-1	0	0	0	0	0	0	0	0	0	0	0	0	0	0	0	0	0	0	0	0	0	0	0	0	0	0	0	0	0	0
070819	16:16:04	16:21:06	299864	5.0.10.0	5_exp_RW	23	Rpleas_acq	CS_B	JXXJ	YDDY	BZZB	GWWG	VKKV	MQQM	schön	spielen	fair	retten	treu	ehrlich	schlecht	strafen	faul	rächen	tot	eitel	1	acq_USunple_CSunple2_RW	acq3_RW	3	5	453	1	300	300	411	46	0	1	1	blank2r.bmp	0	1	+	0	1	blank2r.bmp	492	1	GWWG	492	1	blank2r.bmp	572	1	rächen	866	1	!	1292	1	!	1306	0	0	0	0	0	0	0	0	0	0	0	0	0	0	0	0	0	0	0	0	0	0	0	0	0	0	0	0	0	0
070819	16:16:04	16:21:08	302090	5.0.10.0	5_exp_RW	23	Rpleas_acq	CS_B	JXXJ	YDDY	BZZB	GWWG	VKKV	MQQM	schön	spielen	fair	retten	treu	ehrlich	schlecht	strafen	faul	rächen	tot	eitel	1	acq_USunple_CSunple1_RW	acq3_RW	3	6	453	1	300	300	432	46	0	1	1	blank2r.bmp	0	1	+	0	1	blank2r.bmp	492	1	BZZB	492	1	blank2r.bmp	572	2	strafen	866	1	!	1292	1	!	1332	0	0	0	0	0	0	0	0	0	0	0	0	0	0	0	0	0	0	0	0	0	0	0	0	0	0	0	0	0	0
070819	16:16:04	16:21:10	304409	5.0.10.0	5_exp_RW	23	Rpleas_acq	CS_B	JXXJ	YDDY	BZZB	GWWG	VKKV	MQQM	schön	spielen	fair	retten	treu	ehrlich	schlecht	strafen	faul	rächen	tot	eitel	1	acq_USpleas_CSpleas2_RW	acq3_RW	3	7	453	0	300	300	554	50	0	1	1	blank2r.bmp	0	1	+	0	1	blank2r.bmp	492	1	YDDY	492	1	blank2r.bmp	572	2	treu	866	1	!	1292	1	!	-1	0	0	0	0	0	0	0	0	0	0	0	0	0	0	0	0	0	0	0	0	0	0	0	0	0	0	0	0	0	0
070819	16:16:04	16:21:13	306488	5.0.10.0	5_exp_RW	23	Rpleas_acq	CS_B	JXXJ	YDDY	BZZB	GWWG	VKKV	MQQM	schön	spielen	fair	retten	treu	ehrlich	schlecht	strafen	faul	rächen	tot	eitel	1	acq_USunple_CSunple2_RW	acq3_RW	3	8	453	0	300	300	301	46	0	1	1	blank2r.bmp	0	1	+	0	1	blank2r.bmp	492	1	GWWG	492	1	blank2r.bmp	572	1	rächen	866	1	!	-1	1	!	-1	0	0	0	0	0	0	0	0	0	0	0	0	0	0	0	0	0	0	0	0	0	0	0	0	0	0	0	0	0	0
070819	16:16:04	16:21:15	308741	5.0.10.0	5_exp_RW	23	Rpleas_acq	CS_B	JXXJ	YDDY	BZZB	GWWG	VKKV	MQQM	schön	spielen	fair	retten	treu	ehrlich	schlecht	strafen	faul	rächen	tot	eitel	1	acq_USpleas_CSpleas2_RW	acq3_RW	3	9	453	1	300	300	436	50	0	1	1	blank2r.bmp	0	1	+	0	1	blank2r.bmp	492	1	YDDY	492	1	blank2r.bmp	572	3	ehrlich	866	1	!	1292	1	!	1332	0	0	0	0	0	0	0	0	0	0	0	0	0	0	0	0	0	0	0	0	0	0	0	0	0	0	0	0	0	0
070819	16:16:04	16:21:17	310873	5.0.10.0	5_exp_RW	23	Rpleas_acq	CS_B	JXXJ	YDDY	BZZB	GWWG	VKKV	MQQM	schön	spielen	fair	retten	treu	ehrlich	schlecht	strafen	faul	rächen	tot	eitel	1	acq_USunple_CSunple1_RW	acq3_RW	3	10	453	0	300	300	358	46	0	1	1	blank2r.bmp	0	1	+	0	1	blank2r.bmp	492	1	BZZB	492	1	blank2r.bmp	572	2	strafen	866	1	!	-1	1	!	-1	0	0	0	0	0	0	0	0	0	0	0	0	0	0	0	0	0	0	0	0	0	0	0	0	0	0	0	0	0	0
070819	16:16:04	16:21:19	313446	5.0.10.0	5_exp_RW	23	Rpleas_acq	CS_B	JXXJ	YDDY	BZZB	GWWG	VKKV	MQQM	schön	spielen	fair	retten	treu	ehrlich	schlecht	strafen	faul	rächen	tot	eitel	1	acq_USpleas_CSpleas2_RW	acq3_RW	3	11	453	0	300	300	566	46	0	0	1	blank2r.bmp	0	1	+	0	1	blank2r.bmp	492	1	YDDY	492	1	blank2r.bmp	572	3	ehrlich	866	1	FEHLER	1772	1	!	1292	1	!	-1	0	0	0	0	0	0	0	0	0	0	0	0	0	0	0	0	0	0	0	0	0	0	0	0	0	0	0
070819	16:16:04	16:21:21	315352	5.0.10.0	5_exp_RW	23	Rpleas_acq	CS_B	JXXJ	YDDY	BZZB	GWWG	VKKV	MQQM	schön	spielen	fair	retten	treu	ehrlich	schlecht	strafen	faul	rächen	tot	eitel	1	acq_USpleas_CSpleas1_RW	acq3_RW	3	12	453	0	300	300	350	50	0	1	1	blank2r.bmp	0	1	+	0	1	blank2r.bmp	492	1	JXXJ	492	1	blank2r.bmp	572	1	schön	866	1	!	-1	1	!	-1	0	0	0	0	0	0	0	0	0	0	0	0	0	0	0	0	0	0	0	0	0	0	0	0	0	0	0	0	0	0
070819	16:16:04	16:21:24	317870	5.0.10.0	5_exp_RW	23	Rpleas_acq	CS_B	JXXJ	YDDY	BZZB	GWWG	VKKV	MQQM	schön	spielen	fair	retten	treu	ehrlich	schlecht	strafen	faul	rächen	tot	eitel	1	acq_USpleas_CSpleas2_RW	acq3_RW	3	13	453	1	300	300	500	46	0	0	1	blank2r.bmp	0	1	+	0	1	blank2r.bmp	492	1	YDDY	492	1	blank2r.bmp	572	1	retten	866	1	FEHLER	1719	1	!	1292	1	!	1399	0	0	0	0	0	0	0	0	0	0	0	0	0	0	0	0	0	0	0	0	0	0	0	0	0	0	0
070819	16:16:04	16:21:26	320043	5.0.10.0	5_exp_RW	23	Rpleas_acq	CS_B	JXXJ	YDDY	BZZB	GWWG	VKKV	MQQM	schön	spielen	fair	retten	treu	ehrlich	schlecht	strafen	faul	rächen	tot	eitel	1	acq_USunple_CSunple1_RW	acq3_RW	3	14	453	0	300	300	614	46	0	1	1	blank2r.bmp	0	1	+	0	1	blank2r.bmp	492	1	BZZB	492	1	blank2r.bmp	572	1	schlecht	866	1	!	1292	1	!	-1	0	0	0	0	0	0	0	0	0	0	0	0	0	0	0	0	0	0	0	0	0	0	0	0	0	0	0	0	0	0
070819	16:16:04	16:21:28	322189	5.0.10.0	5_exp_RW	23	Rpleas_acq	CS_B	JXXJ	YDDY	BZZB	GWWG	VKKV	MQQM	schön	spielen	fair	retten	treu	ehrlich	schlecht	strafen	faul	rächen	tot	eitel	1	acq_USpleas_CSpleas1_RW	acq3_RW	3	15	453	0	300	300	348	50	0	1	1	blank2r.bmp	0	1	+	0	1	blank2r.bmp	492	1	JXXJ	492	1	blank2r.bmp	572	2	spielen	866	1	!	-1	1	!	-1	0	0	0	0	0	0	0	0	0	0	0	0	0	0	0	0	0	0	0	0	0	0	0	0	0	0	0	0	0	0
070819	16:16:04	16:21:30	324401	5.0.10.0	5_exp_RW	23	Rpleas_acq	CS_B	JXXJ	YDDY	BZZB	GWWG	VKKV	MQQM	schön	spielen	fair	retten	treu	ehrlich	schlecht	strafen	faul	rächen	tot	eitel	1	acq_USunple_CSunple1_RW	acq3_RW	3	16	453	1	300	300	410	46	0	1	1	blank2r.bmp	0	1	+	0	1	blank2r.bmp	492	1	BZZB	492	1	blank2r.bmp	572	3	faul	866	1	!	1292	1	!	1306	0	0	0	0	0	0	0	0	0	0	0	0	0	0	0	0	0	0	0	0	0	0	0	0	0	0	0	0	0	0
070819	16:16:04	16:21:33	326600	5.0.10.0	5_exp_RW	23	Rpleas_acq	CS_B	JXXJ	YDDY	BZZB	GWWG	VKKV	MQQM	schön	spielen	fair	retten	treu	ehrlich	schlecht	strafen	faul	rächen	tot	eitel	1	acq_USpleas_CSpleas1_RW	acq3_RW	3	17	453	1	300	300	402	50	0	1	1	blank2r.bmp	0	1	+	0	1	blank2r.bmp	492	1	JXXJ	492	1	blank2r.bmp	572	3	fair	866	1	!	1292	1	!	1306	0	0	0	0	0	0	0	0	0	0	0	0	0	0	0	0	0	0	0	0	0	0	0	0	0	0	0	0	0	0
070819	16:16:04	16:21:35	328959	5.0.10.0	5_exp_RW	23	Rpleas_acq	CS_B	JXXJ	YDDY	BZZB	GWWG	VKKV	MQQM	schön	spielen	fair	retten	treu	ehrlich	schlecht	strafen	faul	rächen	tot	eitel	1	acq_USunple_CSunple2_RW	acq3_RW	3	18	453	0	300	300	596	46	0	1	1	blank2r.bmp	0	1	+	0	1	blank2r.bmp	492	1	GWWG	492	1	blank2r.bmp	572	3	eitel	866	1	!	1292	1	!	-1	0	0	0	0	0	0	0	0	0	0	0	0	0	0	0	0	0	0	0	0	0	0	0	0	0	0	0	0	0	0
070819	16:16:04	16:21:37	331398	5.0.10.0	5_exp_RW	23	Rpleas_acq	CS_B	JXXJ	YDDY	BZZB	GWWG	VKKV	MQQM	schön	spielen	fair	retten	treu	ehrlich	schlecht	strafen	faul	rächen	tot	eitel	1	acq_USunple_CSunple1_RW	acq3_RW	3	19	453	0	300	300	665	46	0	1	1	blank2r.bmp	0	1	+	0	1	blank2r.bmp	492	1	BZZB	492	1	blank2r.bmp	572	2	strafen	866	1	!	1292	1	!	-1	0	0	0	0	0	0	0	0	0	0	0	0	0	0	0	0	0	0	0	0	0	0	0	0	0	0	0	0	0	0
070819	16:16:04	16:21:40	334037	5.0.10.0	5_exp_RW	23	Rpleas_acq	CS_B	JXXJ	YDDY	BZZB	GWWG	VKKV	MQQM	schön	spielen	fair	retten	treu	ehrlich	schlecht	strafen	faul	rächen	tot	eitel	1	acq_USunple_CSunple2_RW	acq3_RW	3	20	453	0	300	300	860	46	0	1	1	blank2r.bmp	0	1	+	0	1	blank2r.bmp	492	1	GWWG	492	1	blank2r.bmp	572	2	tot	866	1	!	1292	1	!	-1	0	0	0	0	0	0	0	0	0	0	0	0	0	0	0	0	0	0	0	0	0	0	0	0	0	0	0	0	0	0
070819	16:16:04	16:21:43	336476	5.0.10.0	5_exp_RW	23	Rpleas_acq	CS_B	JXXJ	YDDY	BZZB	GWWG	VKKV	MQQM	schön	spielen	fair	retten	treu	ehrlich	schlecht	strafen	faul	rächen	tot	eitel	1	acq_USpleas_CSpleas2_RW	acq3_RW	3	21	453	0	300	300	649	50	0	1	1	blank2r.bmp	0	1	+	0	1	blank2r.bmp	492	1	YDDY	492	1	blank2r.bmp	572	2	treu	866	1	!	1292	1	!	-1	0	0	0	0	0	0	0	0	0	0	0	0	0	0	0	0	0	0	0	0	0	0	0	0	0	0	0	0	0	0
070819	16:16:04	16:21:45	338982	5.0.10.0	5_exp_RW	23	Rpleas_acq	CS_B	JXXJ	YDDY	BZZB	GWWG	VKKV	MQQM	schön	spielen	fair	retten	treu	ehrlich	schlecht	strafen	faul	rächen	tot	eitel	1	acq_USunple_CSunple2_RW	acq3_RW	3	22	453	0	300	300	721	46	0	1	1	blank2r.bmp	0	1	+	0	1	blank2r.bmp	492	1	GWWG	492	1	blank2r.bmp	572	2	tot	866	1	!	1292	1	!	-1	0	0	0	0	0	0	0	0	0	0	0	0	0	0	0	0	0	0	0	0	0	0	0	0	0	0	0	0	0	0
070819	16:16:04	16:21:47	341074	5.0.10.0	5_exp_RW	23	Rpleas_acq	CS_B	JXXJ	YDDY	BZZB	GWWG	VKKV	MQQM	schön	spielen	fair	retten	treu	ehrlich	schlecht	strafen	faul	rächen	tot	eitel	1	acq_USpleas_CSpleas1_RW	acq3_RW	3	23	453	0	300	300	300	50	0	1	1	blank2r.bmp	0	1	+	0	1	blank2r.bmp	492	1	JXXJ	492	1	blank2r.bmp	572	1	schön	866	1	!	-1	1	!	-1	0	0	0	0	0	0	0	0	0	0	0	0	0	0	0	0	0	0	0	0	0	0	0	0	0	0	0	0	0	0
070819	16:16:04	16:21:50	343620	5.0.10.0	5_exp_RW	23	Rpleas_acq	CS_B	JXXJ	YDDY	BZZB	GWWG	VKKV	MQQM	schön	spielen	fair	retten	treu	ehrlich	schlecht	strafen	faul	rächen	tot	eitel	1	acq_USpleas_CSpleas2_RW	acq3_RW	3	24	453	1	300	300	514	46	0	0	1	blank2r.bmp	0	1	+	0	1	blank2r.bmp	492	1	YDDY	492	1	blank2r.bmp	572	3	ehrlich	866	1	FEHLER	1732	1	!	1292	1	!	1412	0	0	0	0	0	0	0	0	0	0	0	0	0	0	0	0	0	0	0	0	0	0	0	0	0	0	0
070819	16:16:04	16:22:00	353509	5.0.10.0	5_exp_RW	23	Rpleas_acq	CS_B	JXXJ	YDDY	BZZB	GWWG	VKKV	MQQM	schön	spielen	fair	retten	treu	ehrlich	schlecht	strafen	faul	rächen	tot	eitel	1	acq_USunple_CSunple2_RW	acq4567_RW	4	1	400	0	300	300	706	46	0	1	1	blank2r.bmp	0	1	+	0	1	blank2r.bmp	492	1	GWWG	492	1	blank2r.bmp	572	3	eitel	866	1	!	1239	1	!	-1	0	0	0	0	0	0	0	0	0	0	0	0	0	0	0	0	0	0	0	0	0	0	0	0	0	0	0	0	0	0
070819	16:16:04	16:22:03	356468	5.0.10.0	5_exp_RW	23	Rpleas_acq	CS_B	JXXJ	YDDY	BZZB	GWWG	VKKV	MQQM	schön	spielen	fair	retten	treu	ehrlich	schlecht	strafen	faul	rächen	tot	eitel	1	acq_USunple_CSunple1_RW	acq4567_RW	4	2	400	0	300	300	1175	46	0	1	1	blank2r.bmp	0	1	+	0	1	blank2r.bmp	492	1	BZZB	492	1	blank2r.bmp	572	1	schlecht	866	1	!	1239	1	!	-1	0	0	0	0	0	0	0	0	0	0	0	0	0	0	0	0	0	0	0	0	0	0	0	0	0	0	0	0	0	0
070819	16:16:04	16:22:05	359200	5.0.10.0	5_exp_RW	23	Rpleas_acq	CS_B	JXXJ	YDDY	BZZB	GWWG	VKKV	MQQM	schön	spielen	fair	retten	treu	ehrlich	schlecht	strafen	faul	rächen	tot	eitel	1	acq_USpleas_CSpleas1_RW	acq4567_RW	4	3	400	0	300	300	947	50	0	1	1	blank2r.bmp	0	1	+	0	1	blank2r.bmp	492	1	JXXJ	492	1	blank2r.bmp	572	2	spielen	866	1	!	1239	1	!	-1	0	0	0	0	0	0	0	0	0	0	0	0	0	0	0	0	0	0	0	0	0	0	0	0	0	0	0	0	0	0
070819	16:16:04	16:22:08	361546	5.0.10.0	5_exp_RW	23	Rpleas_acq	CS_B	JXXJ	YDDY	BZZB	GWWG	VKKV	MQQM	schön	spielen	fair	retten	treu	ehrlich	schlecht	strafen	faul	rächen	tot	eitel	1	acq_USunple_CSunple2_RW	acq4567_RW	4	4	400	0	300	300	549	46	0	1	1	blank2r.bmp	0	1	+	0	1	blank2r.bmp	492	1	GWWG	492	1	blank2r.bmp	572	1	rächen	866	1	!	1239	1	!	-1	0	0	0	0	0	0	0	0	0	0	0	0	0	0	0	0	0	0	0	0	0	0	0	0	0	0	0	0	0	0
070819	16:16:04	16:22:10	363652	5.0.10.0	5_exp_RW	23	Rpleas_acq	CS_B	JXXJ	YDDY	BZZB	GWWG	VKKV	MQQM	schön	spielen	fair	retten	treu	ehrlich	schlecht	strafen	faul	rächen	tot	eitel	1	acq_USpleas_CSpleas1_RW	acq4567_RW	4	5	400	0	300	300	321	50	0	1	1	blank2r.bmp	0	1	+	0	1	blank2r.bmp	492	1	JXXJ	492	1	blank2r.bmp	572	3	fair	866	1	!	-1	1	!	-1	0	0	0	0	0	0	0	0	0	0	0	0	0	0	0	0	0	0	0	0	0	0	0	0	0	0	0	0	0	0
070819	16:16:04	16:22:12	366011	5.0.10.0	5_exp_RW	23	Rpleas_acq	CS_B	JXXJ	YDDY	BZZB	GWWG	VKKV	MQQM	schön	spielen	fair	retten	treu	ehrlich	schlecht	strafen	faul	rächen	tot	eitel	1	acq_USunple_CSunple1_RW	acq4567_RW	4	6	400	0	300	300	572	46	0	1	1	blank2r.bmp	0	1	+	0	1	blank2r.bmp	492	1	BZZB	492	1	blank2r.bmp	572	3	faul	866	1	!	1239	1	!	-1	0	0	0	0	0	0	0	0	0	0	0	0	0	0	0	0	0	0	0	0	0	0	0	0	0	0	0	0	0	0
070819	16:16:04	16:22:14	368237	5.0.10.0	5_exp_RW	23	Rpleas_acq	CS_B	JXXJ	YDDY	BZZB	GWWG	VKKV	MQQM	schön	spielen	fair	retten	treu	ehrlich	schlecht	strafen	faul	rächen	tot	eitel	1	acq_USpleas_CSpleas1_RW	acq4567_RW	4	7	400	1	300	300	420	50	0	1	1	blank2r.bmp	0	1	+	0	1	blank2r.bmp	492	1	JXXJ	492	1	blank2r.bmp	572	3	fair	866	1	!	1239	1	!	1319	0	0	0	0	0	0	0	0	0	0	0	0	0	0	0	0	0	0	0	0	0	0	0	0	0	0	0	0	0	0
070819	16:16:04	16:22:17	370636	5.0.10.0	5_exp_RW	23	Rpleas_acq	CS_B	JXXJ	YDDY	BZZB	GWWG	VKKV	MQQM	schön	spielen	fair	retten	treu	ehrlich	schlecht	strafen	faul	rächen	tot	eitel	1	acq_USpleas_CSpleas1_RW	acq4567_RW	4	8	400	0	300	300	635	50	0	1	1	blank2r.bmp	0	1	+	0	1	blank2r.bmp	492	1	JXXJ	492	1	blank2r.bmp	572	1	schön	866	1	!	1239	1	!	-1	0	0	0	0	0	0	0	0	0	0	0	0	0	0	0	0	0	0	0	0	0	0	0	0	0	0	0	0	0	0
070819	16:16:04	16:22:19	372848	5.0.10.0	5_exp_RW	23	Rpleas_acq	CS_B	JXXJ	YDDY	BZZB	GWWG	VKKV	MQQM	schön	spielen	fair	retten	treu	ehrlich	schlecht	strafen	faul	rächen	tot	eitel	1	acq_USunple_CSunple2_RW	acq4567_RW	4	9	400	1	300	300	391	46	0	1	1	blank2r.bmp	0	1	+	0	1	blank2r.bmp	492	1	GWWG	492	1	blank2r.bmp	572	1	rächen	866	1	!	1239	1	!	1292	0	0	0	0	0	0	0	0	0	0	0	0	0	0	0	0	0	0	0	0	0	0	0	0	0	0	0	0	0	0
070819	16:16:04	16:22:21	375314	5.0.10.0	5_exp_RW	23	Rpleas_acq	CS_B	JXXJ	YDDY	BZZB	GWWG	VKKV	MQQM	schön	spielen	fair	retten	treu	ehrlich	schlecht	strafen	faul	rächen	tot	eitel	1	acq_USunple_CSunple2_RW	acq4567_RW	4	10	400	0	300	300	679	46	0	1	1	blank2r.bmp	0	1	+	0	1	blank2r.bmp	492	1	GWWG	492	1	blank2r.bmp	572	2	tot	866	1	!	1239	1	!	-1	0	0	0	0	0	0	0	0	0	0	0	0	0	0	0	0	0	0	0	0	0	0	0	0	0	0	0	0	0	0
070819	16:16:04	16:22:24	377593	5.0.10.0	5_exp_RW	23	Rpleas_acq	CS_B	JXXJ	YDDY	BZZB	GWWG	VKKV	MQQM	schön	spielen	fair	retten	treu	ehrlich	schlecht	strafen	faul	rächen	tot	eitel	1	acq_USunple_CSunple1_RW	acq4567_RW	4	11	400	0	300	300	479	46	0	1	1	blank2r.bmp	0	1	+	0	1	blank2r.bmp	492	1	BZZB	492	1	blank2r.bmp	572	2	strafen	866	1	!	1239	1	!	-1	0	0	0	0	0	0	0	0	0	0	0	0	0	0	0	0	0	0	0	0	0	0	0	0	0	0	0	0	0	0
070819	16:16:04	16:22:26	379872	5.0.10.0	5_exp_RW	23	Rpleas_acq	CS_B	JXXJ	YDDY	BZZB	GWWG	VKKV	MQQM	schön	spielen	fair	retten	treu	ehrlich	schlecht	strafen	faul	rächen	tot	eitel	1	acq_USunple_CSunple1_RW	acq4567_RW	4	12	400	0	300	300	485	50	0	0	1	blank2r.bmp	0	1	+	0	1	blank2r.bmp	492	1	BZZB	492	1	blank2r.bmp	572	3	faul	866	1	!	1239	1	!	-1	0	0	0	0	0	0	0	0	0	0	0	0	0	0	0	0	0	0	0	0	0	0	0	0	0	0	0	0	0	0
070819	16:16:04	16:22:29	382458	5.0.10.0	5_exp_RW	23	Rpleas_acq	CS_B	JXXJ	YDDY	BZZB	GWWG	VKKV	MQQM	schön	spielen	fair	retten	treu	ehrlich	schlecht	strafen	faul	rächen	tot	eitel	1	acq_USpleas_CSpleas2_RW	acq4567_RW	4	13	400	0	300	300	803	50	0	1	1	blank2r.bmp	0	1	+	0	1	blank2r.bmp	492	1	YDDY	492	1	blank2r.bmp	572	2	treu	866	1	!	1239	1	!	-1	0	0	0	0	0	0	0	0	0	0	0	0	0	0	0	0	0	0	0	0	0	0	0	0	0	0	0	0	0	0
070819	16:16:04	16:22:31	384697	5.0.10.0	5_exp_RW	23	Rpleas_acq	CS_B	JXXJ	YDDY	BZZB	GWWG	VKKV	MQQM	schön	spielen	fair	retten	treu	ehrlich	schlecht	strafen	faul	rächen	tot	eitel	1	acq_USpleas_CSpleas2_RW	acq4567_RW	4	14	400	1	300	300	425	46	0	0	1	blank2r.bmp	0	1	+	0	1	blank2r.bmp	492	1	YDDY	492	1	blank2r.bmp	572	1	retten	866	1	!	1239	1	!	1332	0	0	0	0	0	0	0	0	0	0	0	0	0	0	0	0	0	0	0	0	0	0	0	0	0	0	0	0	0	0
070819	16:16:04	16:22:33	387109	5.0.10.0	5_exp_RW	23	Rpleas_acq	CS_B	JXXJ	YDDY	BZZB	GWWG	VKKV	MQQM	schön	spielen	fair	retten	treu	ehrlich	schlecht	strafen	faul	rächen	tot	eitel	1	acq_USunple_CSunple2_RW	acq4567_RW	4	15	400	0	300	300	643	46	0	1	1	blank2r.bmp	0	1	+	0	1	blank2r.bmp	492	1	GWWG	492	1	blank2r.bmp	572	3	eitel	866	1	!	1239	1	!	-1	0	0	0	0	0	0	0	0	0	0	0	0	0	0	0	0	0	0	0	0	0	0	0	0	0	0	0	0	0	0
070819	16:16:04	16:22:35	389388	5.0.10.0	5_exp_RW	23	Rpleas_acq	CS_B	JXXJ	YDDY	BZZB	GWWG	VKKV	MQQM	schön	spielen	fair	retten	treu	ehrlich	schlecht	strafen	faul	rächen	tot	eitel	1	acq_USpleas_CSpleas2_RW	acq4567_RW	4	16	400	1	300	300	452	50	0	1	1	blank2r.bmp	0	1	+	0	1	blank2r.bmp	492	1	YDDY	492	1	blank2r.bmp	572	1	retten	866	1	!	1239	1	!	1359	0	0	0	0	0	0	0	0	0	0	0	0	0	0	0	0	0	0	0	0	0	0	0	0	0	0	0	0	0	0
070819	16:16:04	16:22:38	391787	5.0.10.0	5_exp_RW	23	Rpleas_acq	CS_B	JXXJ	YDDY	BZZB	GWWG	VKKV	MQQM	schön	spielen	fair	retten	treu	ehrlich	schlecht	strafen	faul	rächen	tot	eitel	1	acq_USpleas_CSpleas2_RW	acq4567_RW	4	17	400	0	300	300	629	50	0	1	1	blank2r.bmp	0	1	+	0	1	blank2r.bmp	492	1	YDDY	492	1	blank2r.bmp	572	3	ehrlich	866	1	!	1239	1	!	-1	0	0	0	0	0	0	0	0	0	0	0	0	0	0	0	0	0	0	0	0	0	0	0	0	0	0	0	0	0	0
070819	16:16:04	16:22:40	394066	5.0.10.0	5_exp_RW	23	Rpleas_acq	CS_B	JXXJ	YDDY	BZZB	GWWG	VKKV	MQQM	schön	spielen	fair	retten	treu	ehrlich	schlecht	strafen	faul	rächen	tot	eitel	1	acq_USpleas_CSpleas1_RW	acq4567_RW	4	18	400	1	300	300	460	50	0	1	1	blank2r.bmp	0	1	+	0	1	blank2r.bmp	492	1	JXXJ	492	1	blank2r.bmp	572	2	spielen	866	1	!	1239	1	!	1359	0	0	0	0	0	0	0	0	0	0	0	0	0	0	0	0	0	0	0	0	0	0	0	0	0	0	0	0	0	0
070819	16:16:04	16:22:42	396319	5.0.10.0	5_exp_RW	23	Rpleas_acq	CS_B	JXXJ	YDDY	BZZB	GWWG	VKKV	MQQM	schön	spielen	fair	retten	treu	ehrlich	schlecht	strafen	faul	rächen	tot	eitel	1	acq_USpleas_CSpleas2_RW	acq4567_RW	4	19	400	1	300	300	464	50	0	1	1	blank2r.bmp	0	1	+	0	1	blank2r.bmp	492	1	YDDY	492	1	blank2r.bmp	572	2	treu	866	1	!	1239	1	!	1359	0	0	0	0	0	0	0	0	0	0	0	0	0	0	0	0	0	0	0	0	0	0	0	0	0	0	0	0	0	0
070819	16:16:04	16:22:45	398638	5.0.10.0	5_exp_RW	23	Rpleas_acq	CS_B	JXXJ	YDDY	BZZB	GWWG	VKKV	MQQM	schön	spielen	fair	retten	treu	ehrlich	schlecht	strafen	faul	rächen	tot	eitel	1	acq_USunple_CSunple1_RW	acq4567_RW	4	20	400	0	300	300	554	46	0	1	1	blank2r.bmp	0	1	+	0	1	blank2r.bmp	492	1	BZZB	492	1	blank2r.bmp	572	1	schlecht	866	1	!	1239	1	!	-1	0	0	0	0	0	0	0	0	0	0	0	0	0	0	0	0	0	0	0	0	0	0	0	0	0	0	0	0	0	0
070819	16:16:04	16:22:47	401103	5.0.10.0	5_exp_RW	23	Rpleas_acq	CS_B	JXXJ	YDDY	BZZB	GWWG	VKKV	MQQM	schön	spielen	fair	retten	treu	ehrlich	schlecht	strafen	faul	rächen	tot	eitel	1	acq_USunple_CSunple2_RW	acq4567_RW	4	21	400	0	300	300	672	46	0	1	1	blank2r.bmp	0	1	+	0	1	blank2r.bmp	492	1	GWWG	492	1	blank2r.bmp	572	3	eitel	866	1	!	1239	1	!	-1	0	0	0	0	0	0	0	0	0	0	0	0	0	0	0	0	0	0	0	0	0	0	0	0	0	0	0	0	0	0
070819	16:16:04	16:22:49	403289	5.0.10.0	5_exp_RW	23	Rpleas_acq	CS_B	JXXJ	YDDY	BZZB	GWWG	VKKV	MQQM	schön	spielen	fair	retten	treu	ehrlich	schlecht	strafen	faul	rächen	tot	eitel	1	acq_USpleas_CSpleas2_RW	acq4567_RW	4	22	400	1	300	300	373	46	0	0	1	blank2r.bmp	0	1	+	0	1	blank2r.bmp	492	1	YDDY	492	1	blank2r.bmp	572	2	treu	866	1	!	1239	1	!	1279	0	0	0	0	0	0	0	0	0	0	0	0	0	0	0	0	0	0	0	0	0	0	0	0	0	0	0	0	0	0
070819	16:16:04	16:22:53	406888	5.0.10.0	5_exp_RW	23	Rpleas_acq	CS_B	JXXJ	YDDY	BZZB	GWWG	VKKV	MQQM	schön	spielen	fair	retten	treu	ehrlich	schlecht	strafen	faul	rächen	tot	eitel	1	acq_USunple_CSunple1_RW	acq4567_RW	4	23	400	0	300	300	1835	46	0	1	1	blank2r.bmp	0	1	+	0	1	blank2r.bmp	492	1	BZZB	492	1	blank2r.bmp	572	1	schlecht	866	1	!	1239	1	!	-1	0	0	0	0	0	0	0	0	0	0	0	0	0	0	0	0	0	0	0	0	0	0	0	0	0	0	0	0	0	0
070819	16:16:04	16:22:55	409247	5.0.10.0	5_exp_RW	23	Rpleas_acq	CS_B	JXXJ	YDDY	BZZB	GWWG	VKKV	MQQM	schön	spielen	fair	retten	treu	ehrlich	schlecht	strafen	faul	rächen	tot	eitel	1	acq_USpleas_CSpleas2_RW	acq4567_RW	4	24	400	0	300	300	565	50	0	1	1	blank2r.bmp	0	1	+	0	1	blank2r.bmp	492	1	YDDY	492	1	blank2r.bmp	572	1	retten	866	1	!	1239	1	!	-1	0	0	0	0	0	0	0	0	0	0	0	0	0	0	0	0	0	0	0	0	0	0	0	0	0	0	0	0	0	0
070819	16:16:04	16:22:58	411513	5.0.10.0	5_exp_RW	23	Rpleas_acq	CS_B	JXXJ	YDDY	BZZB	GWWG	VKKV	MQQM	schön	spielen	fair	retten	treu	ehrlich	schlecht	strafen	faul	rächen	tot	eitel	1	acq_USunple_CSunple1_RW	acq4567_RW	4	25	400	1	300	300	458	46	0	1	1	blank2r.bmp	0	1	+	0	1	blank2r.bmp	492	1	BZZB	492	1	blank2r.bmp	572	2	strafen	866	1	!	1239	1	!	1359	0	0	0	0	0	0	0	0	0	0	0	0	0	0	0	0	0	0	0	0	0	0	0	0	0	0	0	0	0	0
070819	16:16:04	16:23:00	413618	5.0.10.0	5_exp_RW	23	Rpleas_acq	CS_B	JXXJ	YDDY	BZZB	GWWG	VKKV	MQQM	schön	spielen	fair	retten	treu	ehrlich	schlecht	strafen	faul	rächen	tot	eitel	1	acq_USunple_CSunple1_RW	acq4567_RW	4	26	400	0	300	300	332	50	0	0	1	blank2r.bmp	0	1	+	0	1	blank2r.bmp	492	1	BZZB	492	1	blank2r.bmp	572	3	faul	866	1	!	-1	1	!	-1	0	0	0	0	0	0	0	0	0	0	0	0	0	0	0	0	0	0	0	0	0	0	0	0	0	0	0	0	0	0
070819	16:16:04	16:23:02	416084	5.0.10.0	5_exp_RW	23	Rpleas_acq	CS_B	JXXJ	YDDY	BZZB	GWWG	VKKV	MQQM	schön	spielen	fair	retten	treu	ehrlich	schlecht	strafen	faul	rächen	tot	eitel	1	acq_USunple_CSunple2_RW	acq4567_RW	4	27	400	0	300	300	686	46	0	1	1	blank2r.bmp	0	1	+	0	1	blank2r.bmp	492	1	GWWG	492	1	blank2r.bmp	572	1	rächen	866	1	!	1239	1	!	-1	0	0	0	0	0	0	0	0	0	0	0	0	0	0	0	0	0	0	0	0	0	0	0	0	0	0	0	0	0	0
070819	16:16:04	16:23:05	418510	5.0.10.0	5_exp_RW	23	Rpleas_acq	CS_B	JXXJ	YDDY	BZZB	GWWG	VKKV	MQQM	schön	spielen	fair	retten	treu	ehrlich	schlecht	strafen	faul	rächen	tot	eitel	1	acq_USunple_CSunple2_RW	acq4567_RW	4	28	400	0	300	300	644	46	0	1	1	blank2r.bmp	0	1	+	0	1	blank2r.bmp	492	1	GWWG	492	1	blank2r.bmp	572	2	tot	866	1	!	1239	1	!	-1	0	0	0	0	0	0	0	0	0	0	0	0	0	0	0	0	0	0	0	0	0	0	0	0	0	0	0	0	0	0
070819	16:16:04	16:23:07	420735	5.0.10.0	5_exp_RW	23	Rpleas_acq	CS_B	JXXJ	YDDY	BZZB	GWWG	VKKV	MQQM	schön	spielen	fair	retten	treu	ehrlich	schlecht	strafen	faul	rächen	tot	eitel	1	acq_USunple_CSunple2_RW	acq4567_RW	4	29	400	1	300	300	413	50	0	0	1	blank2r.bmp	0	1	+	0	1	blank2r.bmp	492	1	GWWG	492	1	blank2r.bmp	572	1	rächen	866	1	!	1239	1	!	1319	0	0	0	0	0	0	0	0	0	0	0	0	0	0	0	0	0	0	0	0	0	0	0	0	0	0	0	0	0	0
070819	16:16:04	16:23:09	423108	5.0.10.0	5_exp_RW	23	Rpleas_acq	CS_B	JXXJ	YDDY	BZZB	GWWG	VKKV	MQQM	schön	spielen	fair	retten	treu	ehrlich	schlecht	strafen	faul	rächen	tot	eitel	1	acq_USpleas_CSpleas1_RW	acq4567_RW	4	30	400	0	300	300	611	50	0	1	1	blank2r.bmp	0	1	+	0	1	blank2r.bmp	492	1	JXXJ	492	1	blank2r.bmp	572	2	spielen	866	1	!	1239	1	!	-1	0	0	0	0	0	0	0	0	0	0	0	0	0	0	0	0	0	0	0	0	0	0	0	0	0	0	0	0	0	0
070819	16:16:04	16:23:11	425360	5.0.10.0	5_exp_RW	23	Rpleas_acq	CS_B	JXXJ	YDDY	BZZB	GWWG	VKKV	MQQM	schön	spielen	fair	retten	treu	ehrlich	schlecht	strafen	faul	rächen	tot	eitel	1	acq_USpleas_CSpleas1_RW	acq4567_RW	4	31	400	1	300	300	439	50	0	1	1	blank2r.bmp	0	1	+	0	1	blank2r.bmp	492	1	JXXJ	492	1	blank2r.bmp	572	3	fair	866	1	!	1239	1	!	1346	0	0	0	0	0	0	0	0	0	0	0	0	0	0	0	0	0	0	0	0	0	0	0	0	0	0	0	0	0	0
070819	16:16:04	16:23:14	427613	5.0.10.0	5_exp_RW	23	Rpleas_acq	CS_B	JXXJ	YDDY	BZZB	GWWG	VKKV	MQQM	schön	spielen	fair	retten	treu	ehrlich	schlecht	strafen	faul	rächen	tot	eitel	1	acq_USpleas_CSpleas2_RW	acq4567_RW	4	32	400	1	300	300	459	46	0	0	1	blank2r.bmp	0	1	+	0	1	blank2r.bmp	492	1	YDDY	492	1	blank2r.bmp	572	3	ehrlich	866	1	!	1239	1	!	1359	0	0	0	0	0	0	0	0	0	0	0	0	0	0	0	0	0	0	0	0	0	0	0	0	0	0	0	0	0	0
070819	16:16:04	16:23:16	429865	5.0.10.0	5_exp_RW	23	Rpleas_acq	CS_B	JXXJ	YDDY	BZZB	GWWG	VKKV	MQQM	schön	spielen	fair	retten	treu	ehrlich	schlecht	strafen	faul	rächen	tot	eitel	1	acq_USunple_CSunple1_RW	acq4567_RW	4	33	400	0	300	300	490	46	0	1	1	blank2r.bmp	0	1	+	0	1	blank2r.bmp	492	1	BZZB	492	1	blank2r.bmp	572	1	schlecht	866	1	!	1239	1	!	-1	0	0	0	0	0	0	0	0	0	0	0	0	0	0	0	0	0	0	0	0	0	0	0	0	0	0	0	0	0	0
070819	16:16:04	16:23:18	432198	5.0.10.0	5_exp_RW	23	Rpleas_acq	CS_B	JXXJ	YDDY	BZZB	GWWG	VKKV	MQQM	schön	spielen	fair	retten	treu	ehrlich	schlecht	strafen	faul	rächen	tot	eitel	1	acq_USunple_CSunple1_RW	acq4567_RW	4	34	400	0	300	300	553	46	0	1	1	blank2r.bmp	0	1	+	0	1	blank2r.bmp	492	1	BZZB	492	1	blank2r.bmp	572	2	strafen	866	1	!	1239	1	!	-1	0	0	0	0	0	0	0	0	0	0	0	0	0	0	0	0	0	0	0	0	0	0	0	0	0	0	0	0	0	0
070819	16:16:04	16:23:20	434357	5.0.10.0	5_exp_RW	23	Rpleas_acq	CS_B	JXXJ	YDDY	BZZB	GWWG	VKKV	MQQM	schön	spielen	fair	retten	treu	ehrlich	schlecht	strafen	faul	rächen	tot	eitel	1	acq_USpleas_CSpleas1_RW	acq4567_RW	4	35	400	1	300	300	355	50	0	1	1	blank2r.bmp	0	1	+	0	1	blank2r.bmp	492	1	JXXJ	492	1	blank2r.bmp	572	1	schön	866	1	!	1239	1	!	1252	0	0	0	0	0	0	0	0	0	0	0	0	0	0	0	0	0	0	0	0	0	0	0	0	0	0	0	0	0	0
070819	16:16:04	16:23:23	436569	5.0.10.0	5_exp_RW	23	Rpleas_acq	CS_B	JXXJ	YDDY	BZZB	GWWG	VKKV	MQQM	schön	spielen	fair	retten	treu	ehrlich	schlecht	strafen	faul	rächen	tot	eitel	1	acq_USpleas_CSpleas2_RW	acq4567_RW	4	36	400	1	300	300	421	50	0	1	1	blank2r.bmp	0	1	+	0	1	blank2r.bmp	492	1	YDDY	492	1	blank2r.bmp	572	2	treu	866	1	!	1239	1	!	1319	0	0	0	0	0	0	0	0	0	0	0	0	0	0	0	0	0	0	0	0	0	0	0	0	0	0	0	0	0	0
070819	16:16:04	16:23:25	438795	5.0.10.0	5_exp_RW	23	Rpleas_acq	CS_B	JXXJ	YDDY	BZZB	GWWG	VKKV	MQQM	schön	spielen	fair	retten	treu	ehrlich	schlecht	strafen	faul	rächen	tot	eitel	1	acq_USpleas_CSpleas2_RW	acq4567_RW	4	37	400	1	300	300	438	46	0	0	1	blank2r.bmp	0	1	+	0	1	blank2r.bmp	492	1	YDDY	492	1	blank2r.bmp	572	1	retten	866	1	!	1239	1	!	1332	0	0	0	0	0	0	0	0	0	0	0	0	0	0	0	0	0	0	0	0	0	0	0	0	0	0	0	0	0	0
070819	16:16:04	16:23:27	441194	5.0.10.0	5_exp_RW	23	Rpleas_acq	CS_B	JXXJ	YDDY	BZZB	GWWG	VKKV	MQQM	schön	spielen	fair	retten	treu	ehrlich	schlecht	strafen	faul	rächen	tot	eitel	1	acq_USunple_CSunple2_RW	acq4567_RW	4	38	400	0	300	300	637	50	0	0	1	blank2r.bmp	0	1	+	0	1	blank2r.bmp	492	1	GWWG	492	1	blank2r.bmp	572	2	tot	866	1	!	1239	1	!	-1	0	0	0	0	0	0	0	0	0	0	0	0	0	0	0	0	0	0	0	0	0	0	0	0	0	0	0	0	0	0
070819	16:16:04	16:23:29	443393	5.0.10.0	5_exp_RW	23	Rpleas_acq	CS_B	JXXJ	YDDY	BZZB	GWWG	VKKV	MQQM	schön	spielen	fair	retten	treu	ehrlich	schlecht	strafen	faul	rächen	tot	eitel	1	acq_USpleas_CSpleas1_RW	acq4567_RW	4	39	400	1	300	300	382	46	0	0	1	blank2r.bmp	0	1	+	0	1	blank2r.bmp	492	1	JXXJ	492	1	blank2r.bmp	572	2	spielen	866	1	!	1239	1	!	1279	0	0	0	0	0	0	0	0	0	0	0	0	0	0	0	0	0	0	0	0	0	0	0	0	0	0	0	0	0	0
070819	16:16:04	16:23:33	446765	5.0.10.0	5_exp_RW	23	Rpleas_acq	CS_B	JXXJ	YDDY	BZZB	GWWG	VKKV	MQQM	schön	spielen	fair	retten	treu	ehrlich	schlecht	strafen	faul	rächen	tot	eitel	1	acq_USpleas_CSpleas1_RW	acq4567_RW	4	40	400	0	300	300	1598	50	0	1	1	blank2r.bmp	0	1	+	0	1	blank2r.bmp	492	1	JXXJ	492	1	blank2r.bmp	572	3	fair	866	1	!	1239	1	!	-1	0	0	0	0	0	0	0	0	0	0	0	0	0	0	0	0	0	0	0	0	0	0	0	0	0	0	0	0	0	0
070819	16:16:04	16:23:35	449177	5.0.10.0	5_exp_RW	23	Rpleas_acq	CS_B	JXXJ	YDDY	BZZB	GWWG	VKKV	MQQM	schön	spielen	fair	retten	treu	ehrlich	schlecht	strafen	faul	rächen	tot	eitel	1	acq_USpleas_CSpleas2_RW	acq4567_RW	4	41	400	0	300	300	628	50	0	1	1	blank2r.bmp	0	1	+	0	1	blank2r.bmp	492	1	YDDY	492	1	blank2r.bmp	572	3	ehrlich	866	1	!	1239	1	!	-1	0	0	0	0	0	0	0	0	0	0	0	0	0	0	0	0	0	0	0	0	0	0	0	0	0	0	0	0	0	0
070819	16:16:04	16:23:37	451390	5.0.10.0	5_exp_RW	23	Rpleas_acq	CS_B	JXXJ	YDDY	BZZB	GWWG	VKKV	MQQM	schön	spielen	fair	retten	treu	ehrlich	schlecht	strafen	faul	rächen	tot	eitel	1	acq_USunple_CSunple2_RW	acq4567_RW	4	42	400	1	300	300	402	50	0	0	1	blank2r.bmp	0	1	+	0	1	blank2r.bmp	492	1	GWWG	492	1	blank2r.bmp	572	3	eitel	866	1	!	1239	1	!	1306	0	0	0	0	0	0	0	0	0	0	0	0	0	0	0	0	0	0	0	0	0	0	0	0	0	0	0	0	0	0
070819	16:16:04	16:23:40	453615	5.0.10.0	5_exp_RW	23	Rpleas_acq	CS_B	JXXJ	YDDY	BZZB	GWWG	VKKV	MQQM	schön	spielen	fair	retten	treu	ehrlich	schlecht	strafen	faul	rächen	tot	eitel	1	acq_USunple_CSunple1_RW	acq4567_RW	4	43	400	1	300	300	430	46	0	1	1	blank2r.bmp	0	1	+	0	1	blank2r.bmp	492	1	BZZB	492	1	blank2r.bmp	572	3	faul	866	1	!	1239	1	!	1332	0	0	0	0	0	0	0	0	0	0	0	0	0	0	0	0	0	0	0	0	0	0	0	0	0	0	0	0	0	0
070819	16:16:04	16:23:42	455655	5.0.10.0	5_exp_RW	23	Rpleas_acq	CS_B	JXXJ	YDDY	BZZB	GWWG	VKKV	MQQM	schön	spielen	fair	retten	treu	ehrlich	schlecht	strafen	faul	rächen	tot	eitel	1	acq_USpleas_CSpleas2_RW	acq4567_RW	4	44	400	0	300	300	274	50	0	1	1	blank2r.bmp	0	1	+	0	1	blank2r.bmp	492	1	YDDY	492	1	blank2r.bmp	572	2	treu	866	1	!	-1	1	!	-1	0	0	0	0	0	0	0	0	0	0	0	0	0	0	0	0	0	0	0	0	0	0	0	0	0	0	0	0	0	0
070819	16:16:04	16:23:44	457880	5.0.10.0	5_exp_RW	23	Rpleas_acq	CS_B	JXXJ	YDDY	BZZB	GWWG	VKKV	MQQM	schön	spielen	fair	retten	treu	ehrlich	schlecht	strafen	faul	rächen	tot	eitel	1	acq_USpleas_CSpleas1_RW	acq4567_RW	4	45	400	1	300	300	407	50	0	1	1	blank2r.bmp	0	1	+	0	1	blank2r.bmp	492	1	JXXJ	492	1	blank2r.bmp	572	1	schön	866	1	!	1239	1	!	1306	0	0	0	0	0	0	0	0	0	0	0	0	0	0	0	0	0	0	0	0	0	0	0	0	0	0	0	0	0	0
070819	16:16:04	16:23:46	460133	5.0.10.0	5_exp_RW	23	Rpleas_acq	CS_B	JXXJ	YDDY	BZZB	GWWG	VKKV	MQQM	schön	spielen	fair	retten	treu	ehrlich	schlecht	strafen	faul	rächen	tot	eitel	1	acq_USunple_CSunple2_RW	acq4567_RW	4	46	400	0	300	300	484	46	0	1	1	blank2r.bmp	0	1	+	0	1	blank2r.bmp	492	1	GWWG	492	1	blank2r.bmp	572	3	eitel	866	1	!	1239	1	!	-1	0	0	0	0	0	0	0	0	0	0	0	0	0	0	0	0	0	0	0	0	0	0	0	0	0	0	0	0	0	0
070819	16:16:04	16:23:48	462412	5.0.10.0	5_exp_RW	23	Rpleas_acq	CS_B	JXXJ	YDDY	BZZB	GWWG	VKKV	MQQM	schön	spielen	fair	retten	treu	ehrlich	schlecht	strafen	faul	rächen	tot	eitel	1	acq_USpleas_CSpleas1_RW	acq4567_RW	4	47	400	1	300	300	466	46	0	0	1	blank2r.bmp	0	1	+	0	1	blank2r.bmp	492	1	JXXJ	492	1	blank2r.bmp	572	2	spielen	866	1	!	1239	1	!	1372	0	0	0	0	0	0	0	0	0	0	0	0	0	0	0	0	0	0	0	0	0	0	0	0	0	0	0	0	0	0
070819	16:16:04	16:23:51	464598	5.0.10.0	5_exp_RW	23	Rpleas_acq	CS_B	JXXJ	YDDY	BZZB	GWWG	VKKV	MQQM	schön	spielen	fair	retten	treu	ehrlich	schlecht	strafen	faul	rächen	tot	eitel	1	acq_USpleas_CSpleas2_RW	acq4567_RW	4	48	400	1	300	300	398	50	0	1	1	blank2r.bmp	0	1	+	0	1	blank2r.bmp	492	1	YDDY	492	1	blank2r.bmp	572	1	retten	866	1	!	1239	1	!	1292	0	0	0	0	0	0	0	0	0	0	0	0	0	0	0	0	0	0	0	0	0	0	0	0	0	0	0	0	0	0
070819	16:16:04	16:23:53	466930	5.0.10.0	5_exp_RW	23	Rpleas_acq	CS_B	JXXJ	YDDY	BZZB	GWWG	VKKV	MQQM	schön	spielen	fair	retten	treu	ehrlich	schlecht	strafen	faul	rächen	tot	eitel	1	acq_USunple_CSunple1_RW	acq4567_RW	4	49	400	0	300	300	570	46	0	1	1	blank2r.bmp	0	1	+	0	1	blank2r.bmp	492	1	BZZB	492	1	blank2r.bmp	572	3	faul	866	1	!	1239	1	!	-1	0	0	0	0	0	0	0	0	0	0	0	0	0	0	0	0	0	0	0	0	0	0	0	0	0	0	0	0	0	0
070819	16:16:04	16:23:55	469103	5.0.10.0	5_exp_RW	23	Rpleas_acq	CS_B	JXXJ	YDDY	BZZB	GWWG	VKKV	MQQM	schön	spielen	fair	retten	treu	ehrlich	schlecht	strafen	faul	rächen	tot	eitel	1	acq_USpleas_CSpleas2_RW	acq4567_RW	4	50	400	1	300	300	372	46	0	0	1	blank2r.bmp	0	1	+	0	1	blank2r.bmp	492	1	YDDY	492	1	blank2r.bmp	572	3	ehrlich	866	1	!	1239	1	!	1266	0	0	0	0	0	0	0	0	0	0	0	0	0	0	0	0	0	0	0	0	0	0	0	0	0	0	0	0	0	0
070819	16:16:04	16:23:57	471355	5.0.10.0	5_exp_RW	23	Rpleas_acq	CS_B	JXXJ	YDDY	BZZB	GWWG	VKKV	MQQM	schön	spielen	fair	retten	treu	ehrlich	schlecht	strafen	faul	rächen	tot	eitel	1	acq_USpleas_CSpleas1_RW	acq4567_RW	4	51	400	1	300	300	459	50	0	1	1	blank2r.bmp	0	1	+	0	1	blank2r.bmp	492	1	JXXJ	492	1	blank2r.bmp	572	3	fair	866	1	!	1239	1	!	1359	0	0	0	0	0	0	0	0	0	0	0	0	0	0	0	0	0	0	0	0	0	0	0	0	0	0	0	0	0	0
070819	16:16:04	16:24:00	473754	5.0.10.0	5_exp_RW	23	Rpleas_acq	CS_B	JXXJ	YDDY	BZZB	GWWG	VKKV	MQQM	schön	spielen	fair	retten	treu	ehrlich	schlecht	strafen	faul	rächen	tot	eitel	1	acq_USunple_CSunple1_RW	acq4567_RW	4	52	400	0	300	300	628	46	0	1	1	blank2r.bmp	0	1	+	0	1	blank2r.bmp	492	1	BZZB	492	1	blank2r.bmp	572	1	schlecht	866	1	!	1239	1	!	-1	0	0	0	0	0	0	0	0	0	0	0	0	0	0	0	0	0	0	0	0	0	0	0	0	0	0	0	0	0	0
070819	16:16:04	16:24:02	475807	5.0.10.0	5_exp_RW	23	Rpleas_acq	CS_B	JXXJ	YDDY	BZZB	GWWG	VKKV	MQQM	schön	spielen	fair	retten	treu	ehrlich	schlecht	strafen	faul	rächen	tot	eitel	1	acq_USpleas_CSpleas2_RW	acq4567_RW	4	53	400	0	300	300	266	50	0	1	1	blank2r.bmp	0	1	+	0	1	blank2r.bmp	492	1	YDDY	492	1	blank2r.bmp	572	2	treu	866	1	!	-1	1	!	-1	0	0	0	0	0	0	0	0	0	0	0	0	0	0	0	0	0	0	0	0	0	0	0	0	0	0	0	0	0	0
070819	16:16:04	16:24:04	478086	5.0.10.0	5_exp_RW	23	Rpleas_acq	CS_B	JXXJ	YDDY	BZZB	GWWG	VKKV	MQQM	schön	spielen	fair	retten	treu	ehrlich	schlecht	strafen	faul	rächen	tot	eitel	1	acq_USunple_CSunple1_RW	acq4567_RW	4	54	400	0	300	300	500	46	0	1	1	blank2r.bmp	0	1	+	0	1	blank2r.bmp	492	1	BZZB	492	1	blank2r.bmp	572	2	strafen	866	1	!	1239	1	!	-1	0	0	0	0	0	0	0	0	0	0	0	0	0	0	0	0	0	0	0	0	0	0	0	0	0	0	0	0	0	0
070819	16:16:04	16:24:06	480165	5.0.10.0	5_exp_RW	23	Rpleas_acq	CS_B	JXXJ	YDDY	BZZB	GWWG	VKKV	MQQM	schön	spielen	fair	retten	treu	ehrlich	schlecht	strafen	faul	rächen	tot	eitel	1	acq_USpleas_CSpleas1_RW	acq4567_RW	4	55	400	0	300	300	304	50	0	1	1	blank2r.bmp	0	1	+	0	1	blank2r.bmp	492	1	JXXJ	492	1	blank2r.bmp	572	1	schön	866	1	!	-1	1	!	-1	0	0	0	0	0	0	0	0	0	0	0	0	0	0	0	0	0	0	0	0	0	0	0	0	0	0	0	0	0	0
070819	16:16:04	16:24:08	482271	5.0.10.0	5_exp_RW	23	Rpleas_acq	CS_B	JXXJ	YDDY	BZZB	GWWG	VKKV	MQQM	schön	spielen	fair	retten	treu	ehrlich	schlecht	strafen	faul	rächen	tot	eitel	1	acq_USpleas_CSpleas1_RW	acq4567_RW	4	56	400	0	300	300	327	46	0	0	1	blank2r.bmp	0	1	+	0	1	blank2r.bmp	492	1	JXXJ	492	1	blank2r.bmp	572	1	schön	866	1	!	-1	1	!	-1	0	0	0	0	0	0	0	0	0	0	0	0	0	0	0	0	0	0	0	0	0	0	0	0	0	0	0	0	0	0
070819	16:16:04	16:24:11	484910	5.0.10.0	5_exp_RW	23	Rpleas_acq	CS_B	JXXJ	YDDY	BZZB	GWWG	VKKV	MQQM	schön	spielen	fair	retten	treu	ehrlich	schlecht	strafen	faul	rächen	tot	eitel	1	acq_USunple_CSunple1_RW	acq4567_RW	4	57	400	0	300	300	864	46	0	1	1	blank2r.bmp	0	1	+	0	1	blank2r.bmp	492	1	BZZB	492	1	blank2r.bmp	572	2	strafen	866	1	!	1239	1	!	-1	0	0	0	0	0	0	0	0	0	0	0	0	0	0	0	0	0	0	0	0	0	0	0	0	0	0	0	0	0	0
070819	16:16:04	16:24:14	488175	5.0.10.0	5_exp_RW	23	Rpleas_acq	CS_B	JXXJ	YDDY	BZZB	GWWG	VKKV	MQQM	schön	spielen	fair	retten	treu	ehrlich	schlecht	strafen	faul	rächen	tot	eitel	1	acq_USunple_CSunple2_RW	acq4567_RW	4	58	400	0	300	300	1479	46	0	1	1	blank2r.bmp	0	1	+	0	1	blank2r.bmp	492	1	GWWG	492	1	blank2r.bmp	572	2	tot	866	1	!	1239	1	!	-1	0	0	0	0	0	0	0	0	0	0	0	0	0	0	0	0	0	0	0	0	0	0	0	0	0	0	0	0	0	0
070819	16:16:04	16:24:16	490441	5.0.10.0	5_exp_RW	23	Rpleas_acq	CS_B	JXXJ	YDDY	BZZB	GWWG	VKKV	MQQM	schön	spielen	fair	retten	treu	ehrlich	schlecht	strafen	faul	rächen	tot	eitel	1	acq_USunple_CSunple2_RW	acq4567_RW	4	59	400	0	300	300	485	46	0	1	1	blank2r.bmp	0	1	+	0	1	blank2r.bmp	492	1	GWWG	492	1	blank2r.bmp	572	1	rächen	866	1	!	1239	1	!	-1	0	0	0	0	0	0	0	0	0	0	0	0	0	0	0	0	0	0	0	0	0	0	0	0	0	0	0	0	0	0
070819	16:16:04	16:24:19	492666	5.0.10.0	5_exp_RW	23	Rpleas_acq	CS_B	JXXJ	YDDY	BZZB	GWWG	VKKV	MQQM	schön	spielen	fair	retten	treu	ehrlich	schlecht	strafen	faul	rächen	tot	eitel	1	acq_USunple_CSunple2_RW	acq4567_RW	4	60	400	1	300	300	421	46	0	1	1	blank2r.bmp	0	1	+	0	1	blank2r.bmp	492	1	GWWG	492	1	blank2r.bmp	572	2	tot	866	1	!	1239	1	!	1319	0	0	0	0	0	0	0	0	0	0	0	0	0	0	0	0	0	0	0	0	0	0	0	0	0	0	0	0	0	0
070819	16:16:04	16:24:21	495319	5.0.10.0	5_exp_RW	23	Rpleas_acq	CS_B	JXXJ	YDDY	BZZB	GWWG	VKKV	MQQM	schön	spielen	fair	retten	treu	ehrlich	schlecht	strafen	faul	rächen	tot	eitel	1	acq_USpleas_CSpleas2_RW	acq4567_RW	4	61	400	0	300	300	889	50	0	1	1	blank2r.bmp	0	1	+	0	1	blank2r.bmp	492	1	YDDY	492	1	blank2r.bmp	572	3	ehrlich	866	1	!	1239	1	!	-1	0	0	0	0	0	0	0	0	0	0	0	0	0	0	0	0	0	0	0	0	0	0	0	0	0	0	0	0	0	0
070819	16:16:04	16:24:24	497531	5.0.10.0	5_exp_RW	23	Rpleas_acq	CS_B	JXXJ	YDDY	BZZB	GWWG	VKKV	MQQM	schön	spielen	fair	retten	treu	ehrlich	schlecht	strafen	faul	rächen	tot	eitel	1	acq_USunple_CSunple2_RW	acq4567_RW	4	62	400	1	300	300	412	50	0	0	1	blank2r.bmp	0	1	+	0	1	blank2r.bmp	492	1	GWWG	492	1	blank2r.bmp	572	3	eitel	866	1	!	1239	1	!	1306	0	0	0	0	0	0	0	0	0	0	0	0	0	0	0	0	0	0	0	0	0	0	0	0	0	0	0	0	0	0
070819	16:16:04	16:24:27	501143	5.0.10.0	5_exp_RW	23	Rpleas_acq	CS_B	JXXJ	YDDY	BZZB	GWWG	VKKV	MQQM	schön	spielen	fair	retten	treu	ehrlich	schlecht	strafen	faul	rächen	tot	eitel	1	acq_USpleas_CSpleas1_RW	acq4567_RW	4	63	400	0	300	300	1847	50	0	1	1	blank2r.bmp	0	1	+	0	1	blank2r.bmp	492	1	JXXJ	492	1	blank2r.bmp	572	2	spielen	866	1	!	1239	1	!	-1	0	0	0	0	0	0	0	0	0	0	0	0	0	0	0	0	0	0	0	0	0	0	0	0	0	0	0	0	0	0
070819	16:16:04	16:24:29	503355	5.0.10.0	5_exp_RW	23	Rpleas_acq	CS_B	JXXJ	YDDY	BZZB	GWWG	VKKV	MQQM	schön	spielen	fair	retten	treu	ehrlich	schlecht	strafen	faul	rächen	tot	eitel	1	acq_USunple_CSunple1_RW	acq4567_RW	4	64	400	1	300	300	390	46	0	1	1	blank2r.bmp	0	1	+	0	1	blank2r.bmp	492	1	BZZB	492	1	blank2r.bmp	572	3	faul	866	1	!	1239	1	!	1292	0	0	0	0	0	0	0	0	0	0	0	0	0	0	0	0	0	0	0	0	0	0	0	0	0	0	0	0	0	0
070819	16:16:04	16:24:32	505461	5.0.10.0	5_exp_RW	23	Rpleas_acq	CS_B	JXXJ	YDDY	BZZB	GWWG	VKKV	MQQM	schön	spielen	fair	retten	treu	ehrlich	schlecht	strafen	faul	rächen	tot	eitel	1	acq_USpleas_CSpleas1_RW	acq4567_RW	4	65	400	0	300	300	330	50	0	1	1	blank2r.bmp	0	1	+	0	1	blank2r.bmp	492	1	JXXJ	492	1	blank2r.bmp	572	3	fair	866	1	!	-1	1	!	-1	0	0	0	0	0	0	0	0	0	0	0	0	0	0	0	0	0	0	0	0	0	0	0	0	0	0	0	0	0	0
070819	16:16:04	16:24:34	507740	5.0.10.0	5_exp_RW	23	Rpleas_acq	CS_B	JXXJ	YDDY	BZZB	GWWG	VKKV	MQQM	schön	spielen	fair	retten	treu	ehrlich	schlecht	strafen	faul	rächen	tot	eitel	1	acq_USunple_CSunple1_RW	acq4567_RW	4	66	400	1	300	300	466	46	0	1	1	blank2r.bmp	0	1	+	0	1	blank2r.bmp	492	1	BZZB	492	1	blank2r.bmp	572	1	schlecht	866	1	!	1239	1	!	1372	0	0	0	0	0	0	0	0	0	0	0	0	0	0	0	0	0	0	0	0	0	0	0	0	0	0	0	0	0	0
070819	16:16:04	16:24:36	510126	5.0.10.0	5_exp_RW	23	Rpleas_acq	CS_B	JXXJ	YDDY	BZZB	GWWG	VKKV	MQQM	schön	spielen	fair	retten	treu	ehrlich	schlecht	strafen	faul	rächen	tot	eitel	1	acq_USunple_CSunple2_RW	acq4567_RW	4	67	400	0	300	300	607	46	0	1	1	blank2r.bmp	0	1	+	0	1	blank2r.bmp	492	1	GWWG	492	1	blank2r.bmp	572	1	rächen	866	1	!	1239	1	!	-1	0	0	0	0	0	0	0	0	0	0	0	0	0	0	0	0	0	0	0	0	0	0	0	0	0	0	0	0	0	0
070819	16:16:04	16:24:39	512605	5.0.10.0	5_exp_RW	23	Rpleas_acq	CS_B	JXXJ	YDDY	BZZB	GWWG	VKKV	MQQM	schön	spielen	fair	retten	treu	ehrlich	schlecht	strafen	faul	rächen	tot	eitel	1	acq_USunple_CSunple1_RW	acq4567_RW	4	68	400	0	300	300	704	46	0	1	1	blank2r.bmp	0	1	+	0	1	blank2r.bmp	492	1	BZZB	492	1	blank2r.bmp	572	1	schlecht	866	1	!	1239	1	!	-1	0	0	0	0	0	0	0	0	0	0	0	0	0	0	0	0	0	0	0	0	0	0	0	0	0	0	0	0	0	0
070819	16:16:04	16:24:41	514817	5.0.10.0	5_exp_RW	23	Rpleas_acq	CS_B	JXXJ	YDDY	BZZB	GWWG	VKKV	MQQM	schön	spielen	fair	retten	treu	ehrlich	schlecht	strafen	faul	rächen	tot	eitel	1	acq_USunple_CSunple1_RW	acq4567_RW	4	69	400	1	300	300	399	50	0	0	1	blank2r.bmp	0	1	+	0	1	blank2r.bmp	492	1	BZZB	492	1	blank2r.bmp	572	2	strafen	866	1	!	1239	1	!	1306	0	0	0	0	0	0	0	0	0	0	0	0	0	0	0	0	0	0	0	0	0	0	0	0	0	0	0	0	0	0
070819	16:16:04	16:24:43	517016	5.0.10.0	5_exp_RW	23	Rpleas_acq	CS_B	JXXJ	YDDY	BZZB	GWWG	VKKV	MQQM	schön	spielen	fair	retten	treu	ehrlich	schlecht	strafen	faul	rächen	tot	eitel	1	acq_USpleas_CSpleas2_RW	acq4567_RW	4	70	400	1	300	300	408	46	0	0	1	blank2r.bmp	0	1	+	0	1	blank2r.bmp	492	1	YDDY	492	1	blank2r.bmp	572	1	retten	866	1	!	1239	1	!	1306	0	0	0	0	0	0	0	0	0	0	0	0	0	0	0	0	0	0	0	0	0	0	0	0	0	0	0	0	0	0
070819	16:16:04	16:24:45	519269	5.0.10.0	5_exp_RW	23	Rpleas_acq	CS_B	JXXJ	YDDY	BZZB	GWWG	VKKV	MQQM	schön	spielen	fair	retten	treu	ehrlich	schlecht	strafen	faul	rächen	tot	eitel	1	acq_USpleas_CSpleas1_RW	acq4567_RW	4	71	400	1	300	300	455	50	0	1	1	blank2r.bmp	0	1	+	0	1	blank2r.bmp	492	1	JXXJ	492	1	blank2r.bmp	572	2	spielen	866	1	!	1239	1	!	1359	0	0	0	0	0	0	0	0	0	0	0	0	0	0	0	0	0	0	0	0	0	0	0	0	0	0	0	0	0	0
070819	16:16:04	16:24:48	521588	5.0.10.0	5_exp_RW	23	Rpleas_acq	CS_B	JXXJ	YDDY	BZZB	GWWG	VKKV	MQQM	schön	spielen	fair	retten	treu	ehrlich	schlecht	strafen	faul	rächen	tot	eitel	1	acq_USpleas_CSpleas1_RW	acq4567_RW	4	72	400	0	300	300	536	50	0	1	1	blank2r.bmp	0	1	+	0	1	blank2r.bmp	492	1	JXXJ	492	1	blank2r.bmp	572	3	fair	866	1	!	1239	1	!	-1	0	0	0	0	0	0	0	0	0	0	0	0	0	0	0	0	0	0	0	0	0	0	0	0	0	0	0	0	0	0
070819	16:16:04	16:24:50	523854	5.0.10.0	5_exp_RW	23	Rpleas_acq	CS_B	JXXJ	YDDY	BZZB	GWWG	VKKV	MQQM	schön	spielen	fair	retten	treu	ehrlich	schlecht	strafen	faul	rächen	tot	eitel	1	acq_USpleas_CSpleas1_RW	acq4567_RW	4	73	400	0	300	300	479	50	0	1	1	blank2r.bmp	0	1	+	0	1	blank2r.bmp	492	1	JXXJ	492	1	blank2r.bmp	572	1	schön	866	1	!	1239	1	!	-1	0	0	0	0	0	0	0	0	0	0	0	0	0	0	0	0	0	0	0	0	0	0	0	0	0	0	0	0	0	0
070819	16:16:04	16:24:52	526013	5.0.10.0	5_exp_RW	23	Rpleas_acq	CS_B	JXXJ	YDDY	BZZB	GWWG	VKKV	MQQM	schön	spielen	fair	retten	treu	ehrlich	schlecht	strafen	faul	rächen	tot	eitel	1	acq_USpleas_CSpleas2_RW	acq4567_RW	4	74	400	1	300	300	358	50	0	1	1	blank2r.bmp	0	1	+	0	1	blank2r.bmp	492	1	YDDY	492	1	blank2r.bmp	572	1	retten	866	1	!	1239	1	!	1252	0	0	0	0	0	0	0	0	0	0	0	0	0	0	0	0	0	0	0	0	0	0	0	0	0	0	0	0	0	0
070819	16:16:04	16:24:54	528199	5.0.10.0	5_exp_RW	23	Rpleas_acq	CS_B	JXXJ	YDDY	BZZB	GWWG	VKKV	MQQM	schön	spielen	fair	retten	treu	ehrlich	schlecht	strafen	faul	rächen	tot	eitel	1	acq_USunple_CSunple2_RW	acq4567_RW	4	75	400	1	300	300	398	46	0	1	1	blank2r.bmp	0	1	+	0	1	blank2r.bmp	492	1	GWWG	492	1	blank2r.bmp	572	2	tot	866	1	!	1239	1	!	1292	0	0	0	0	0	0	0	0	0	0	0	0	0	0	0	0	0	0	0	0	0	0	0	0	0	0	0	0	0	0
070819	16:16:04	16:24:57	530478	5.0.10.0	5_exp_RW	23	Rpleas_acq	CS_B	JXXJ	YDDY	BZZB	GWWG	VKKV	MQQM	schön	spielen	fair	retten	treu	ehrlich	schlecht	strafen	faul	rächen	tot	eitel	1	acq_USunple_CSunple2_RW	acq4567_RW	4	76	400	0	300	300	512	50	0	0	1	blank2r.bmp	0	1	+	0	1	blank2r.bmp	492	1	GWWG	492	1	blank2r.bmp	572	3	eitel	866	1	!	1239	1	!	-1	0	0	0	0	0	0	0	0	0	0	0	0	0	0	0	0	0	0	0	0	0	0	0	0	0	0	0	0	0	0
070819	16:16:04	16:25:00	533556	5.0.10.0	5_exp_RW	23	Rpleas_acq	CS_B	JXXJ	YDDY	BZZB	GWWG	VKKV	MQQM	schön	spielen	fair	retten	treu	ehrlich	schlecht	strafen	faul	rächen	tot	eitel	1	acq_USunple_CSunple1_RW	acq4567_RW	4	77	400	0	300	300	1299	46	0	1	1	blank2r.bmp	0	1	+	0	1	blank2r.bmp	492	1	BZZB	492	1	blank2r.bmp	572	3	faul	866	1	!	1239	1	!	-1	0	0	0	0	0	0	0	0	0	0	0	0	0	0	0	0	0	0	0	0	0	0	0	0	0	0	0	0	0	0
070819	16:16:04	16:25:02	535662	5.0.10.0	5_exp_RW	23	Rpleas_acq	CS_B	JXXJ	YDDY	BZZB	GWWG	VKKV	MQQM	schön	spielen	fair	retten	treu	ehrlich	schlecht	strafen	faul	rächen	tot	eitel	1	acq_USpleas_CSpleas2_RW	acq4567_RW	4	78	400	0	300	300	326	50	0	1	1	blank2r.bmp	0	1	+	0	1	blank2r.bmp	492	1	YDDY	492	1	blank2r.bmp	572	3	ehrlich	866	1	!	-1	1	!	-1	0	0	0	0	0	0	0	0	0	0	0	0	0	0	0	0	0	0	0	0	0	0	0	0	0	0	0	0	0	0
070819	16:16:04	16:25:04	537928	5.0.10.0	5_exp_RW	23	Rpleas_acq	CS_B	JXXJ	YDDY	BZZB	GWWG	VKKV	MQQM	schön	spielen	fair	retten	treu	ehrlich	schlecht	strafen	faul	rächen	tot	eitel	1	acq_USpleas_CSpleas2_RW	acq4567_RW	4	79	400	1	300	300	463	50	0	1	1	blank2r.bmp	0	1	+	0	1	blank2r.bmp	492	1	YDDY	492	1	blank2r.bmp	572	2	treu	866	1	!	1239	1	!	1359	0	0	0	0	0	0	0	0	0	0	0	0	0	0	0	0	0	0	0	0	0	0	0	0	0	0	0	0	0	0
070819	16:16:04	16:25:06	540234	5.0.10.0	5_exp_RW	23	Rpleas_acq	CS_B	JXXJ	YDDY	BZZB	GWWG	VKKV	MQQM	schön	spielen	fair	retten	treu	ehrlich	schlecht	strafen	faul	rächen	tot	eitel	1	acq_USunple_CSunple2_RW	acq4567_RW	4	80	400	0	300	300	541	46	0	1	1	blank2r.bmp	0	1	+	0	1	blank2r.bmp	492	1	GWWG	492	1	blank2r.bmp	572	1	rächen	866	1	!	1239	1	!	-1	0	0	0	0	0	0	0	0	0	0	0	0	0	0	0	0	0	0	0	0	0	0	0	0	0	0	0	0	0	0
070819	16:16:04	16:25:24	557813	5.0.10.0	5_exp_RW	23	Rpleas_acq	CS_B	JXXJ	YDDY	BZZB	GWWG	VKKV	MQQM	schön	spielen	fair	retten	treu	ehrlich	schlecht	strafen	faul	rächen	tot	eitel	1	acq_USpleas_CSpleas1_RW	acq4567_RW	5	1	400	0	300	300	553	50	0	1	1	blank2r.bmp	0	1	+	0	1	blank2r.bmp	492	1	JXXJ	492	1	blank2r.bmp	572	3	fair	866	1	!	1239	1	!	-1	0	0	0	0	0	0	0	0	0	0	0	0	0	0	0	0	0	0	0	0	0	0	0	0	0	0	0	0	0	0
070819	16:16:04	16:25:26	560026	5.0.10.0	5_exp_RW	23	Rpleas_acq	CS_B	JXXJ	YDDY	BZZB	GWWG	VKKV	MQQM	schön	spielen	fair	retten	treu	ehrlich	schlecht	strafen	faul	rächen	tot	eitel	1	acq_USunple_CSunple1_RW	acq4567_RW	5	2	400	1	300	300	402	46	0	1	1	blank2r.bmp	0	1	+	0	1	blank2r.bmp	492	1	BZZB	492	1	blank2r.bmp	572	3	faul	866	1	!	1239	1	!	1306	0	0	0	0	0	0	0	0	0	0	0	0	0	0	0	0	0	0	0	0	0	0	0	0	0	0	0	0	0	0
070819	16:16:04	16:25:29	562705	5.0.10.0	5_exp_RW	23	Rpleas_acq	CS_B	JXXJ	YDDY	BZZB	GWWG	VKKV	MQQM	schön	spielen	fair	retten	treu	ehrlich	schlecht	strafen	faul	rächen	tot	eitel	1	acq_USunple_CSunple2_RW	acq4567_RW	5	3	400	0	300	300	915	46	0	1	1	blank2r.bmp	0	1	+	0	1	blank2r.bmp	492	1	GWWG	492	1	blank2r.bmp	572	3	eitel	866	1	!	1239	1	!	-1	0	0	0	0	0	0	0	0	0	0	0	0	0	0	0	0	0	0	0	0	0	0	0	0	0	0	0	0	0	0
070819	16:16:04	16:25:33	567076	5.0.10.0	5_exp_RW	23	Rpleas_acq	CS_B	JXXJ	YDDY	BZZB	GWWG	VKKV	MQQM	schön	spielen	fair	retten	treu	ehrlich	schlecht	strafen	faul	rächen	tot	eitel	1	acq_USunple_CSunple1_RW	acq4567_RW	5	4	400	0	300	300	2596	46	0	1	1	blank2r.bmp	0	1	+	0	1	blank2r.bmp	492	1	BZZB	492	1	blank2r.bmp	572	1	schlecht	866	1	!	1239	1	!	-1	0	0	0	0	0	0	0	0	0	0	0	0	0	0	0	0	0	0	0	0	0	0	0	0	0	0	0	0	0	0
070819	16:16:04	16:25:35	569262	5.0.10.0	5_exp_RW	23	Rpleas_acq	CS_B	JXXJ	YDDY	BZZB	GWWG	VKKV	MQQM	schön	spielen	fair	retten	treu	ehrlich	schlecht	strafen	faul	rächen	tot	eitel	1	acq_USpleas_CSpleas1_RW	acq4567_RW	5	5	400	1	300	300	375	50	0	1	1	blank2r.bmp	0	1	+	0	1	blank2r.bmp	492	1	JXXJ	492	1	blank2r.bmp	572	2	spielen	866	1	!	1239	1	!	1279	0	0	0	0	0	0	0	0	0	0	0	0	0	0	0	0	0	0	0	0	0	0	0	0	0	0	0	0	0	0
070819	16:16:04	16:25:38	571541	5.0.10.0	5_exp_RW	23	Rpleas_acq	CS_B	JXXJ	YDDY	BZZB	GWWG	VKKV	MQQM	schön	spielen	fair	retten	treu	ehrlich	schlecht	strafen	faul	rächen	tot	eitel	1	acq_USpleas_CSpleas2_RW	acq4567_RW	5	6	400	0	300	300	511	46	0	0	1	blank2r.bmp	0	1	+	0	1	blank2r.bmp	492	1	YDDY	492	1	blank2r.bmp	572	1	retten	866	1	!	1239	1	!	-1	0	0	0	0	0	0	0	0	0	0	0	0	0	0	0	0	0	0	0	0	0	0	0	0	0	0	0	0	0	0
070819	16:16:04	16:25:41	575060	5.0.10.0	5_exp_RW	23	Rpleas_acq	CS_B	JXXJ	YDDY	BZZB	GWWG	VKKV	MQQM	schön	spielen	fair	retten	treu	ehrlich	schlecht	strafen	faul	rächen	tot	eitel	1	acq_USpleas_CSpleas1_RW	acq4567_RW	5	7	400	0	300	300	1744	50	0	1	1	blank2r.bmp	0	1	+	0	1	blank2r.bmp	492	1	JXXJ	492	1	blank2r.bmp	572	1	schön	866	1	!	1239	1	!	-1	0	0	0	0	0	0	0	0	0	0	0	0	0	0	0	0	0	0	0	0	0	0	0	0	0	0	0	0	0	0
070819	16:16:04	16:25:45	578765	5.0.10.0	5_exp_RW	23	Rpleas_acq	CS_B	JXXJ	YDDY	BZZB	GWWG	VKKV	MQQM	schön	spielen	fair	retten	treu	ehrlich	schlecht	strafen	faul	rächen	tot	eitel	1	acq_USunple_CSunple1_RW	acq4567_RW	5	8	400	0	300	300	1921	46	0	1	1	blank2r.bmp	0	1	+	0	1	blank2r.bmp	492	1	BZZB	492	1	blank2r.bmp	572	2	strafen	866	1	!	1239	1	!	-1	0	0	0	0	0	0	0	0	0	0	0	0	0	0	0	0	0	0	0	0	0	0	0	0	0	0	0	0	0	0
070819	16:16:04	16:25:47	581177	5.0.10.0	5_exp_RW	23	Rpleas_acq	CS_B	JXXJ	YDDY	BZZB	GWWG	VKKV	MQQM	schön	spielen	fair	retten	treu	ehrlich	schlecht	strafen	faul	rächen	tot	eitel	1	acq_USunple_CSunple2_RW	acq4567_RW	5	9	400	0	300	300	637	46	0	1	1	blank2r.bmp	0	1	+	0	1	blank2r.bmp	492	1	GWWG	492	1	blank2r.bmp	572	1	rächen	866	1	!	1239	1	!	-1	0	0	0	0	0	0	0	0	0	0	0	0	0	0	0	0	0	0	0	0	0	0	0	0	0	0	0	0	0	0
070819	16:16:04	16:25:50	583496	5.0.10.0	5_exp_RW	23	Rpleas_acq	CS_B	JXXJ	YDDY	BZZB	GWWG	VKKV	MQQM	schön	spielen	fair	retten	treu	ehrlich	schlecht	strafen	faul	rächen	tot	eitel	1	acq_USunple_CSunple1_RW	acq4567_RW	5	10	400	0	300	300	545	46	0	1	1	blank2r.bmp	0	1	+	0	1	blank2r.bmp	492	1	BZZB	492	1	blank2r.bmp	572	2	strafen	866	1	!	1239	1	!	-1	0	0	0	0	0	0	0	0	0	0	0	0	0	0	0	0	0	0	0	0	0	0	0	0	0	0	0	0	0	0
070819	16:16:04	16:25:52	585562	5.0.10.0	5_exp_RW	23	Rpleas_acq	CS_B	JXXJ	YDDY	BZZB	GWWG	VKKV	MQQM	schön	spielen	fair	retten	treu	ehrlich	schlecht	strafen	faul	rächen	tot	eitel	1	acq_USpleas_CSpleas1_RW	acq4567_RW	5	11	400	0	300	300	277	46	0	0	1	blank2r.bmp	0	1	+	0	1	blank2r.bmp	492	1	JXXJ	492	1	blank2r.bmp	572	1	schön	866	1	!	-1	1	!	-1	0	0	0	0	0	0	0	0	0	0	0	0	0	0	0	0	0	0	0	0	0	0	0	0	0	0	0	0	0	0
070819	16:16:04	16:26:03	597037	5.0.10.0	5_exp_RW	23	Rpleas_acq	CS_B	JXXJ	YDDY	BZZB	GWWG	VKKV	MQQM	schön	spielen	fair	retten	treu	ehrlich	schlecht	strafen	faul	rächen	tot	eitel	1	acq_USpleas_CSpleas2_RW	acq4567_RW	5	12	400	0	300	300	9695	50	0	1	1	blank2r.bmp	0	1	+	0	1	blank2r.bmp	492	1	YDDY	492	1	blank2r.bmp	572	3	ehrlich	866	1	!	1239	1	!	-1	0	0	0	0	0	0	0	0	0	0	0	0	0	0	0	0	0	0	0	0	0	0	0	0	0	0	0	0	0	0
070819	16:16:04	16:26:05	599330	5.0.10.0	5_exp_RW	23	Rpleas_acq	CS_B	JXXJ	YDDY	BZZB	GWWG	VKKV	MQQM	schön	spielen	fair	retten	treu	ehrlich	schlecht	strafen	faul	rächen	tot	eitel	1	acq_USunple_CSunple2_RW	acq4567_RW	5	13	400	1	300	300	466	46	0	1	1	blank2r.bmp	0	1	+	0	1	blank2r.bmp	492	1	GWWG	492	1	blank2r.bmp	572	2	tot	866	1	!	1239	1	!	1372	0	0	0	0	0	0	0	0	0	0	0	0	0	0	0	0	0	0	0	0	0	0	0	0	0	0	0	0	0	0
070819	16:16:04	16:26:08	601542	5.0.10.0	5_exp_RW	23	Rpleas_acq	CS_B	JXXJ	YDDY	BZZB	GWWG	VKKV	MQQM	schön	spielen	fair	retten	treu	ehrlich	schlecht	strafen	faul	rächen	tot	eitel	1	acq_USpleas_CSpleas2_RW	acq4567_RW	5	14	400	1	300	300	421	46	0	0	1	blank2r.bmp	0	1	+	0	1	blank2r.bmp	492	1	YDDY	492	1	blank2r.bmp	572	2	treu	866	1	!	1239	1	!	1319	0	0	0	0	0	0	0	0	0	0	0	0	0	0	0	0	0	0	0	0	0	0	0	0	0	0	0	0	0	0
070819	16:16:04	16:26:10	604061	5.0.10.0	5_exp_RW	23	Rpleas_acq	CS_B	JXXJ	YDDY	BZZB	GWWG	VKKV	MQQM	schön	spielen	fair	retten	treu	ehrlich	schlecht	strafen	faul	rächen	tot	eitel	1	acq_USunple_CSunple1_RW	acq4567_RW	5	15	400	0	300	300	744	50	0	0	1	blank2r.bmp	0	1	+	0	1	blank2r.bmp	492	1	BZZB	492	1	blank2r.bmp	572	1	schlecht	866	1	!	1239	1	!	-1	0	0	0	0	0	0	0	0	0	0	0	0	0	0	0	0	0	0	0	0	0	0	0	0	0	0	0	0	0	0
070819	16:16:04	16:26:13	606753	5.0.10.0	5_exp_RW	23	Rpleas_acq	CS_B	JXXJ	YDDY	BZZB	GWWG	VKKV	MQQM	schön	spielen	fair	retten	treu	ehrlich	schlecht	strafen	faul	rächen	tot	eitel	1	acq_USunple_CSunple2_RW	acq4567_RW	5	16	400	0	300	300	906	46	0	1	1	blank2r.bmp	0	1	+	0	1	blank2r.bmp	492	1	GWWG	492	1	blank2r.bmp	572	3	eitel	866	1	!	1239	1	!	-1	0	0	0	0	0	0	0	0	0	0	0	0	0	0	0	0	0	0	0	0	0	0	0	0	0	0	0	0	0	0
070819	16:16:04	16:26:15	609099	5.0.10.0	5_exp_RW	23	Rpleas_acq	CS_B	JXXJ	YDDY	BZZB	GWWG	VKKV	MQQM	schön	spielen	fair	retten	treu	ehrlich	schlecht	strafen	faul	rächen	tot	eitel	1	acq_USpleas_CSpleas1_RW	acq4567_RW	5	17	400	0	300	300	571	50	0	1	1	blank2r.bmp	0	1	+	0	1	blank2r.bmp	492	1	JXXJ	492	1	blank2r.bmp	572	2	spielen	866	1	!	1239	1	!	-1	0	0	0	0	0	0	0	0	0	0	0	0	0	0	0	0	0	0	0	0	0	0	0	0	0	0	0	0	0	0
070819	16:16:04	16:26:17	611378	5.0.10.0	5_exp_RW	23	Rpleas_acq	CS_B	JXXJ	YDDY	BZZB	GWWG	VKKV	MQQM	schön	spielen	fair	retten	treu	ehrlich	schlecht	strafen	faul	rächen	tot	eitel	1	acq_USunple_CSunple2_RW	acq4567_RW	5	18	400	0	300	300	497	46	0	1	1	blank2r.bmp	0	1	+	0	1	blank2r.bmp	492	1	GWWG	492	1	blank2r.bmp	572	2	tot	866	1	!	1239	1	!	-1	0	0	0	0	0	0	0	0	0	0	0	0	0	0	0	0	0	0	0	0	0	0	0	0	0	0	0	0	0	0
070819	16:16:04	16:26:20	613644	5.0.10.0	5_exp_RW	23	Rpleas_acq	CS_B	JXXJ	YDDY	BZZB	GWWG	VKKV	MQQM	schön	spielen	fair	retten	treu	ehrlich	schlecht	strafen	faul	rächen	tot	eitel	1	acq_USpleas_CSpleas2_RW	acq4567_RW	5	19	400	0	300	300	487	50	0	1	1	blank2r.bmp	0	1	+	0	1	blank2r.bmp	492	1	YDDY	492	1	blank2r.bmp	572	3	ehrlich	866	1	!	1239	1	!	-1	0	0	0	0	0	0	0	0	0	0	0	0	0	0	0	0	0	0	0	0	0	0	0	0	0	0	0	0	0	0
070819	16:16:04	16:26:22	615736	5.0.10.0	5_exp_RW	23	Rpleas_acq	CS_B	JXXJ	YDDY	BZZB	GWWG	VKKV	MQQM	schön	spielen	fair	retten	treu	ehrlich	schlecht	strafen	faul	rächen	tot	eitel	1	acq_USpleas_CSpleas2_RW	acq4567_RW	5	20	400	0	300	300	309	46	0	0	1	blank2r.bmp	0	1	+	0	1	blank2r.bmp	492	1	YDDY	492	1	blank2r.bmp	572	1	retten	866	1	!	-1	1	!	-1	0	0	0	0	0	0	0	0	0	0	0	0	0	0	0	0	0	0	0	0	0	0	0	0	0	0	0	0	0	0
070819	16:16:04	16:26:24	617909	5.0.10.0	5_exp_RW	23	Rpleas_acq	CS_B	JXXJ	YDDY	BZZB	GWWG	VKKV	MQQM	schön	spielen	fair	retten	treu	ehrlich	schlecht	strafen	faul	rächen	tot	eitel	1	acq_USpleas_CSpleas1_RW	acq4567_RW	5	21	400	1	300	300	361	50	0	1	1	blank2r.bmp	0	1	+	0	1	blank2r.bmp	492	1	JXXJ	492	1	blank2r.bmp	572	3	fair	866	1	!	1239	1	!	1266	0	0	0	0	0	0	0	0	0	0	0	0	0	0	0	0	0	0	0	0	0	0	0	0	0	0	0	0	0	0
070819	16:16:04	16:26:26	620281	5.0.10.0	5_exp_RW	23	Rpleas_acq	CS_B	JXXJ	YDDY	BZZB	GWWG	VKKV	MQQM	schön	spielen	fair	retten	treu	ehrlich	schlecht	strafen	faul	rächen	tot	eitel	1	acq_USunple_CSunple1_RW	acq4567_RW	5	22	400	0	300	300	608	46	0	1	1	blank2r.bmp	0	1	+	0	1	blank2r.bmp	492	1	BZZB	492	1	blank2r.bmp	572	3	faul	866	1	!	1239	1	!	-1	0	0	0	0	0	0	0	0	0	0	0	0	0	0	0	0	0	0	0	0	0	0	0	0	0	0	0	0	0	0
070819	16:16:04	16:26:28	622440	5.0.10.0	5_exp_RW	23	Rpleas_acq	CS_B	JXXJ	YDDY	BZZB	GWWG	VKKV	MQQM	schön	spielen	fair	retten	treu	ehrlich	schlecht	strafen	faul	rächen	tot	eitel	1	acq_USpleas_CSpleas2_RW	acq4567_RW	5	23	400	1	300	300	346	50	0	1	1	blank2r.bmp	0	1	+	0	1	blank2r.bmp	492	1	YDDY	492	1	blank2r.bmp	572	2	treu	866	1	!	1239	1	!	1252	0	0	0	0	0	0	0	0	0	0	0	0	0	0	0	0	0	0	0	0	0	0	0	0	0	0	0	0	0	0
070819	16:16:04	16:26:31	624640	5.0.10.0	5_exp_RW	23	Rpleas_acq	CS_B	JXXJ	YDDY	BZZB	GWWG	VKKV	MQQM	schön	spielen	fair	retten	treu	ehrlich	schlecht	strafen	faul	rächen	tot	eitel	1	acq_USpleas_CSpleas1_RW	acq4567_RW	5	24	400	1	300	300	402	50	0	1	1	blank2r.bmp	0	1	+	0	1	blank2r.bmp	492	1	JXXJ	492	1	blank2r.bmp	572	3	fair	866	1	!	1239	1	!	1306	0	0	0	0	0	0	0	0	0	0	0	0	0	0	0	0	0	0	0	0	0	0	0	0	0	0	0	0	0	0
070819	16:16:04	16:26:33	626785	5.0.10.0	5_exp_RW	23	Rpleas_acq	CS_B	JXXJ	YDDY	BZZB	GWWG	VKKV	MQQM	schön	spielen	fair	retten	treu	ehrlich	schlecht	strafen	faul	rächen	tot	eitel	1	acq_USunple_CSunple2_RW	acq4567_RW	5	25	400	1	300	300	357	50	0	0	1	blank2r.bmp	0	1	+	0	1	blank2r.bmp	492	1	GWWG	492	1	blank2r.bmp	572	1	rächen	866	1	!	1239	1	!	1252	0	0	0	0	0	0	0	0	0	0	0	0	0	0	0	0	0	0	0	0	0	0	0	0	0	0	0	0	0	0
070819	16:16:04	16:26:35	628971	5.0.10.0	5_exp_RW	23	Rpleas_acq	CS_B	JXXJ	YDDY	BZZB	GWWG	VKKV	MQQM	schön	spielen	fair	retten	treu	ehrlich	schlecht	strafen	faul	rächen	tot	eitel	1	acq_USpleas_CSpleas2_RW	acq4567_RW	5	26	400	1	300	300	386	46	0	0	1	blank2r.bmp	0	1	+	0	1	blank2r.bmp	492	1	YDDY	492	1	blank2r.bmp	572	3	ehrlich	866	1	!	1239	1	!	1292	0	0	0	0	0	0	0	0	0	0	0	0	0	0	0	0	0	0	0	0	0	0	0	0	0	0	0	0	0	0
070819	16:16:04	16:26:37	631210	5.0.10.0	5_exp_RW	23	Rpleas_acq	CS_B	JXXJ	YDDY	BZZB	GWWG	VKKV	MQQM	schön	spielen	fair	retten	treu	ehrlich	schlecht	strafen	faul	rächen	tot	eitel	1	acq_USpleas_CSpleas2_RW	acq4567_RW	5	27	400	1	300	300	441	50	0	1	1	blank2r.bmp	0	1	+	0	1	blank2r.bmp	492	1	YDDY	492	1	blank2r.bmp	572	1	retten	866	1	!	1239	1	!	1346	0	0	0	0	0	0	0	0	0	0	0	0	0	0	0	0	0	0	0	0	0	0	0	0	0	0	0	0	0	0
070819	16:16:04	16:26:39	633423	5.0.10.0	5_exp_RW	23	Rpleas_acq	CS_B	JXXJ	YDDY	BZZB	GWWG	VKKV	MQQM	schön	spielen	fair	retten	treu	ehrlich	schlecht	strafen	faul	rächen	tot	eitel	1	acq_USpleas_CSpleas1_RW	acq4567_RW	5	28	400	1	300	300	423	50	0	1	1	blank2r.bmp	0	1	+	0	1	blank2r.bmp	492	1	JXXJ	492	1	blank2r.bmp	572	2	spielen	866	1	!	1239	1	!	1319	0	0	0	0	0	0	0	0	0	0	0	0	0	0	0	0	0	0	0	0	0	0	0	0	0	0	0	0	0	0
070819	16:16:04	16:26:42	635608	5.0.10.0	5_exp_RW	23	Rpleas_acq	CS_B	JXXJ	YDDY	BZZB	GWWG	VKKV	MQQM	schön	spielen	fair	retten	treu	ehrlich	schlecht	strafen	faul	rächen	tot	eitel	1	acq_USunple_CSunple1_RW	acq4567_RW	5	29	400	1	300	300	392	46	0	1	1	blank2r.bmp	0	1	+	0	1	blank2r.bmp	492	1	BZZB	492	1	blank2r.bmp	572	1	schlecht	866	1	!	1239	1	!	1292	0	0	0	0	0	0	0	0	0	0	0	0	0	0	0	0	0	0	0	0	0	0	0	0	0	0	0	0	0	0
070819	16:16:04	16:26:44	637927	5.0.10.0	5_exp_RW	23	Rpleas_acq	CS_B	JXXJ	YDDY	BZZB	GWWG	VKKV	MQQM	schön	spielen	fair	retten	treu	ehrlich	schlecht	strafen	faul	rächen	tot	eitel	1	acq_USunple_CSunple1_RW	acq4567_RW	5	30	400	0	300	300	550	46	0	1	1	blank2r.bmp	0	1	+	0	1	blank2r.bmp	492	1	BZZB	492	1	blank2r.bmp	572	3	faul	866	1	!	1239	1	!	-1	0	0	0	0	0	0	0	0	0	0	0	0	0	0	0	0	0	0	0	0	0	0	0	0	0	0	0	0	0	0
070819	16:16:04	16:26:46	639967	5.0.10.0	5_exp_RW	23	Rpleas_acq	CS_B	JXXJ	YDDY	BZZB	GWWG	VKKV	MQQM	schön	spielen	fair	retten	treu	ehrlich	schlecht	strafen	faul	rächen	tot	eitel	1	acq_USunple_CSunple2_RW	acq4567_RW	5	31	400	0	300	300	261	50	0	0	1	blank2r.bmp	0	1	+	0	1	blank2r.bmp	492	1	GWWG	492	1	blank2r.bmp	572	3	eitel	866	1	!	-1	1	!	-1	0	0	0	0	0	0	0	0	0	0	0	0	0	0	0	0	0	0	0	0	0	0	0	0	0	0	0	0	0	0
070819	16:16:04	16:26:48	642272	5.0.10.0	5_exp_RW	23	Rpleas_acq	CS_B	JXXJ	YDDY	BZZB	GWWG	VKKV	MQQM	schön	spielen	fair	retten	treu	ehrlich	schlecht	strafen	faul	rächen	tot	eitel	1	acq_USpleas_CSpleas2_RW	acq4567_RW	5	32	400	0	300	300	510	50	0	1	1	blank2r.bmp	0	1	+	0	1	blank2r.bmp	492	1	YDDY	492	1	blank2r.bmp	572	2	treu	866	1	!	1239	1	!	-1	0	0	0	0	0	0	0	0	0	0	0	0	0	0	0	0	0	0	0	0	0	0	0	0	0	0	0	0	0	0
070819	16:16:04	16:26:53	646604	5.0.10.0	5_exp_RW	23	Rpleas_acq	CS_B	JXXJ	YDDY	BZZB	GWWG	VKKV	MQQM	schön	spielen	fair	retten	treu	ehrlich	schlecht	strafen	faul	rächen	tot	eitel	1	acq_USunple_CSunple1_RW	acq4567_RW	5	33	400	0	300	300	2555	46	0	1	1	blank2r.bmp	0	1	+	0	1	blank2r.bmp	492	1	BZZB	492	1	blank2r.bmp	572	2	strafen	866	1	!	1239	1	!	-1	0	0	0	0	0	0	0	0	0	0	0	0	0	0	0	0	0	0	0	0	0	0	0	0	0	0	0	0	0	0
070819	16:16:04	16:26:55	648630	5.0.10.0	5_exp_RW	23	Rpleas_acq	CS_B	JXXJ	YDDY	BZZB	GWWG	VKKV	MQQM	schön	spielen	fair	retten	treu	ehrlich	schlecht	strafen	faul	rächen	tot	eitel	1	acq_USpleas_CSpleas1_RW	acq4567_RW	5	34	400	0	300	300	249	50	0	1	1	blank2r.bmp	0	1	+	0	1	blank2r.bmp	492	1	JXXJ	492	1	blank2r.bmp	572	1	schön	866	1	!	-1	1	!	-1	0	0	0	0	0	0	0	0	0	0	0	0	0	0	0	0	0	0	0	0	0	0	0	0	0	0	0	0	0	0
070819	16:16:04	16:26:57	650882	5.0.10.0	5_exp_RW	23	Rpleas_acq	CS_B	JXXJ	YDDY	BZZB	GWWG	VKKV	MQQM	schön	spielen	fair	retten	treu	ehrlich	schlecht	strafen	faul	rächen	tot	eitel	1	acq_USunple_CSunple2_RW	acq4567_RW	5	35	400	1	300	300	439	46	0	1	1	blank2r.bmp	0	1	+	0	1	blank2r.bmp	492	1	GWWG	492	1	blank2r.bmp	572	2	tot	866	1	!	1239	1	!	1346	0	0	0	0	0	0	0	0	0	0	0	0	0	0	0	0	0	0	0	0	0	0	0	0	0	0	0	0	0	0
070819	16:16:04	16:26:59	653135	5.0.10.0	5_exp_RW	23	Rpleas_acq	CS_B	JXXJ	YDDY	BZZB	GWWG	VKKV	MQQM	schön	spielen	fair	retten	treu	ehrlich	schlecht	strafen	faul	rächen	tot	eitel	1	acq_USunple_CSunple2_RW	acq4567_RW	5	36	400	1	300	300	460	46	0	1	1	blank2r.bmp	0	1	+	0	1	blank2r.bmp	492	1	GWWG	492	1	blank2r.bmp	572	1	rächen	866	1	!	1239	1	!	1359	0	0	0	0	0	0	0	0	0	0	0	0	0	0	0	0	0	0	0	0	0	0	0	0	0	0	0	0	0	0
070819	16:16:04	16:27:01	655227	5.0.10.0	5_exp_RW	23	Rpleas_acq	CS_B	JXXJ	YDDY	BZZB	GWWG	VKKV	MQQM	schön	spielen	fair	retten	treu	ehrlich	schlecht	strafen	faul	rächen	tot	eitel	1	acq_USunple_CSunple2_RW	acq4567_RW	5	37	400	0	300	300	318	46	0	1	1	blank2r.bmp	0	1	+	0	1	blank2r.bmp	492	1	GWWG	492	1	blank2r.bmp	572	3	eitel	866	1	!	-1	1	!	-1	0	0	0	0	0	0	0	0	0	0	0	0	0	0	0	0	0	0	0	0	0	0	0	0	0	0	0	0	0	0
070819	16:16:04	16:27:03	657413	5.0.10.0	5_exp_RW	23	Rpleas_acq	CS_B	JXXJ	YDDY	BZZB	GWWG	VKKV	MQQM	schön	spielen	fair	retten	treu	ehrlich	schlecht	strafen	faul	rächen	tot	eitel	1	acq_USpleas_CSpleas2_RW	acq4567_RW	5	38	400	1	300	300	379	50	0	1	1	blank2r.bmp	0	1	+	0	1	blank2r.bmp	492	1	YDDY	492	1	blank2r.bmp	572	2	treu	866	1	!	1239	1	!	1279	0	0	0	0	0	0	0	0	0	0	0	0	0	0	0	0	0	0	0	0	0	0	0	0	0	0	0	0	0	0
070819	16:16:04	16:27:06	659465	5.0.10.0	5_exp_RW	23	Rpleas_acq	CS_B	JXXJ	YDDY	BZZB	GWWG	VKKV	MQQM	schön	spielen	fair	retten	treu	ehrlich	schlecht	strafen	faul	rächen	tot	eitel	1	acq_USpleas_CSpleas1_RW	acq4567_RW	5	39	400	0	300	300	289	50	0	1	1	blank2r.bmp	0	1	+	0	1	blank2r.bmp	492	1	JXXJ	492	1	blank2r.bmp	572	1	schön	866	1	!	-1	1	!	-1	0	0	0	0	0	0	0	0	0	0	0	0	0	0	0	0	0	0	0	0	0	0	0	0	0	0	0	0	0	0
070819	16:16:04	16:27:08	661571	5.0.10.0	5_exp_RW	23	Rpleas_acq	CS_B	JXXJ	YDDY	BZZB	GWWG	VKKV	MQQM	schön	spielen	fair	retten	treu	ehrlich	schlecht	strafen	faul	rächen	tot	eitel	1	acq_USunple_CSunple1_RW	acq4567_RW	5	40	400	0	300	300	324	46	0	1	1	blank2r.bmp	0	1	+	0	1	blank2r.bmp	492	1	BZZB	492	1	blank2r.bmp	572	2	strafen	866	1	!	-1	1	!	-1	0	0	0	0	0	0	0	0	0	0	0	0	0	0	0	0	0	0	0	0	0	0	0	0	0	0	0	0	0	0
070819	16:16:04	16:27:10	663664	5.0.10.0	5_exp_RW	23	Rpleas_acq	CS_B	JXXJ	YDDY	BZZB	GWWG	VKKV	MQQM	schön	spielen	fair	retten	treu	ehrlich	schlecht	strafen	faul	rächen	tot	eitel	1	acq_USpleas_CSpleas2_RW	acq4567_RW	5	41	400	0	300	300	314	46	0	0	1	blank2r.bmp	0	1	+	0	1	blank2r.bmp	492	1	YDDY	492	1	blank2r.bmp	572	1	retten	866	1	!	-1	1	!	-1	0	0	0	0	0	0	0	0	0	0	0	0	0	0	0	0	0	0	0	0	0	0	0	0	0	0	0	0	0	0
070819	16:16:04	16:27:12	665929	5.0.10.0	5_exp_RW	23	Rpleas_acq	CS_B	JXXJ	YDDY	BZZB	GWWG	VKKV	MQQM	schön	spielen	fair	retten	treu	ehrlich	schlecht	strafen	faul	rächen	tot	eitel	1	acq_USunple_CSunple2_RW	acq4567_RW	5	42	400	1	300	300	444	46	0	1	1	blank2r.bmp	0	1	+	0	1	blank2r.bmp	492	1	GWWG	492	1	blank2r.bmp	572	2	tot	866	1	!	1239	1	!	1346	0	0	0	0	0	0	0	0	0	0	0	0	0	0	0	0	0	0	0	0	0	0	0	0	0	0	0	0	0	0
070819	16:16:04	16:27:14	668182	5.0.10.0	5_exp_RW	23	Rpleas_acq	CS_B	JXXJ	YDDY	BZZB	GWWG	VKKV	MQQM	schön	spielen	fair	retten	treu	ehrlich	schlecht	strafen	faul	rächen	tot	eitel	1	acq_USpleas_CSpleas1_RW	acq4567_RW	5	43	400	1	300	300	453	50	0	1	1	blank2r.bmp	0	1	+	0	1	blank2r.bmp	492	1	JXXJ	492	1	blank2r.bmp	572	3	fair	866	1	!	1239	1	!	1359	0	0	0	0	0	0	0	0	0	0	0	0	0	0	0	0	0	0	0	0	0	0	0	0	0	0	0	0	0	0
070819	16:16:04	16:27:17	670448	5.0.10.0	5_exp_RW	23	Rpleas_acq	CS_B	JXXJ	YDDY	BZZB	GWWG	VKKV	MQQM	schön	spielen	fair	retten	treu	ehrlich	schlecht	strafen	faul	rächen	tot	eitel	1	acq_USpleas_CSpleas2_RW	acq4567_RW	5	44	400	0	300	300	502	46	0	0	1	blank2r.bmp	0	1	+	0	1	blank2r.bmp	492	1	YDDY	492	1	blank2r.bmp	572	3	ehrlich	866	1	!	1239	1	!	-1	0	0	0	0	0	0	0	0	0	0	0	0	0	0	0	0	0	0	0	0	0	0	0	0	0	0	0	0	0	0
070819	16:16:04	16:27:19	672687	5.0.10.0	5_exp_RW	23	Rpleas_acq	CS_B	JXXJ	YDDY	BZZB	GWWG	VKKV	MQQM	schön	spielen	fair	retten	treu	ehrlich	schlecht	strafen	faul	rächen	tot	eitel	1	acq_USunple_CSunple1_RW	acq4567_RW	5	45	400	1	300	300	432	50	0	0	1	blank2r.bmp	0	1	+	0	1	blank2r.bmp	492	1	BZZB	492	1	blank2r.bmp	572	3	faul	866	1	!	1239	1	!	1332	0	0	0	0	0	0	0	0	0	0	0	0	0	0	0	0	0	0	0	0	0	0	0	0	0	0	0	0	0	0
070819	16:16:04	16:27:24	678018	5.0.10.0	5_exp_RW	23	Rpleas_acq	CS_B	JXXJ	YDDY	BZZB	GWWG	VKKV	MQQM	schön	spielen	fair	retten	treu	ehrlich	schlecht	strafen	faul	rächen	tot	eitel	1	acq_USpleas_CSpleas2_RW	acq4567_RW	5	46	400	0	300	300	3560	50	0	1	1	blank2r.bmp	0	1	+	0	1	blank2r.bmp	492	1	YDDY	492	1	blank2r.bmp	572	3	ehrlich	866	1	!	1239	1	!	-1	0	0	0	0	0	0	0	0	0	0	0	0	0	0	0	0	0	0	0	0	0	0	0	0	0	0	0	0	0	0
070819	16:16:04	16:27:26	680284	5.0.10.0	5_exp_RW	23	Rpleas_acq	CS_B	JXXJ	YDDY	BZZB	GWWG	VKKV	MQQM	schön	spielen	fair	retten	treu	ehrlich	schlecht	strafen	faul	rächen	tot	eitel	1	acq_USpleas_CSpleas1_RW	acq4567_RW	5	47	400	0	300	300	492	50	0	1	1	blank2r.bmp	0	1	+	0	1	blank2r.bmp	492	1	JXXJ	492	1	blank2r.bmp	572	2	spielen	866	1	!	1239	1	!	-1	0	0	0	0	0	0	0	0	0	0	0	0	0	0	0	0	0	0	0	0	0	0	0	0	0	0	0	0	0	0
070819	16:16:04	16:27:28	682443	5.0.10.0	5_exp_RW	23	Rpleas_acq	CS_B	JXXJ	YDDY	BZZB	GWWG	VKKV	MQQM	schön	spielen	fair	retten	treu	ehrlich	schlecht	strafen	faul	rächen	tot	eitel	1	acq_USpleas_CSpleas1_RW	acq4567_RW	5	48	400	1	300	300	358	50	0	1	1	blank2r.bmp	0	1	+	0	1	blank2r.bmp	492	1	JXXJ	492	1	blank2r.bmp	572	2	spielen	866	1	!	1239	1	!	1252	0	0	0	0	0	0	0	0	0	0	0	0	0	0	0	0	0	0	0	0	0	0	0	0	0	0	0	0	0	0
070819	16:16:04	16:27:31	684709	5.0.10.0	5_exp_RW	23	Rpleas_acq	CS_B	JXXJ	YDDY	BZZB	GWWG	VKKV	MQQM	schön	spielen	fair	retten	treu	ehrlich	schlecht	strafen	faul	rächen	tot	eitel	1	acq_USunple_CSunple1_RW	acq4567_RW	5	49	400	1	300	300	454	46	0	1	1	blank2r.bmp	0	1	+	0	1	blank2r.bmp	492	1	BZZB	492	1	blank2r.bmp	572	1	schlecht	866	1	!	1239	1	!	1359	0	0	0	0	0	0	0	0	0	0	0	0	0	0	0	0	0	0	0	0	0	0	0	0	0	0	0	0	0	0
070819	16:16:04	16:27:33	687041	5.0.10.0	5_exp_RW	23	Rpleas_acq	CS_B	JXXJ	YDDY	BZZB	GWWG	VKKV	MQQM	schön	spielen	fair	retten	treu	ehrlich	schlecht	strafen	faul	rächen	tot	eitel	1	acq_USunple_CSunple2_RW	acq4567_RW	5	50	400	0	300	300	562	46	0	1	1	blank2r.bmp	0	1	+	0	1	blank2r.bmp	492	1	GWWG	492	1	blank2r.bmp	572	1	rächen	866	1	!	1239	1	!	-1	0	0	0	0	0	0	0	0	0	0	0	0	0	0	0	0	0	0	0	0	0	0	0	0	0	0	0	0	0	0
070819	16:16:04	16:27:35	689400	5.0.10.0	5_exp_RW	23	Rpleas_acq	CS_B	JXXJ	YDDY	BZZB	GWWG	VKKV	MQQM	schön	spielen	fair	retten	treu	ehrlich	schlecht	strafen	faul	rächen	tot	eitel	1	acq_USunple_CSunple1_RW	acq4567_RW	5	51	400	0	300	300	585	46	0	1	1	blank2r.bmp	0	1	+	0	1	blank2r.bmp	492	1	BZZB	492	1	blank2r.bmp	572	1	schlecht	866	1	!	1239	1	!	-1	0	0	0	0	0	0	0	0	0	0	0	0	0	0	0	0	0	0	0	0	0	0	0	0	0	0	0	0	0	0
070819	16:16:04	16:27:38	691639	5.0.10.0	5_exp_RW	23	Rpleas_acq	CS_B	JXXJ	YDDY	BZZB	GWWG	VKKV	MQQM	schön	spielen	fair	retten	treu	ehrlich	schlecht	strafen	faul	rächen	tot	eitel	1	acq_USpleas_CSpleas2_RW	acq4567_RW	5	52	400	1	300	300	425	46	0	0	1	blank2r.bmp	0	1	+	0	1	blank2r.bmp	492	1	YDDY	492	1	blank2r.bmp	572	2	treu	866	1	!	1239	1	!	1332	0	0	0	0	0	0	0	0	0	0	0	0	0	0	0	0	0	0	0	0	0	0	0	0	0	0	0	0	0	0
070819	16:16:04	16:27:40	693891	5.0.10.0	5_exp_RW	23	Rpleas_acq	CS_B	JXXJ	YDDY	BZZB	GWWG	VKKV	MQQM	schön	spielen	fair	retten	treu	ehrlich	schlecht	strafen	faul	rächen	tot	eitel	1	acq_USunple_CSunple2_RW	acq4567_RW	5	53	400	0	300	300	479	46	0	1	1	blank2r.bmp	0	1	+	0	1	blank2r.bmp	492	1	GWWG	492	1	blank2r.bmp	572	1	rächen	866	1	!	1239	1	!	-1	0	0	0	0	0	0	0	0	0	0	0	0	0	0	0	0	0	0	0	0	0	0	0	0	0	0	0	0	0	0
070819	16:16:04	16:27:42	696251	5.0.10.0	5_exp_RW	23	Rpleas_acq	CS_B	JXXJ	YDDY	BZZB	GWWG	VKKV	MQQM	schön	spielen	fair	retten	treu	ehrlich	schlecht	strafen	faul	rächen	tot	eitel	1	acq_USunple_CSunple1_RW	acq4567_RW	5	54	400	0	300	300	573	46	0	1	1	blank2r.bmp	0	1	+	0	1	blank2r.bmp	492	1	BZZB	492	1	blank2r.bmp	572	3	faul	866	1	!	1239	1	!	-1	0	0	0	0	0	0	0	0	0	0	0	0	0	0	0	0	0	0	0	0	0	0	0	0	0	0	0	0	0	0
070819	16:16:04	16:27:45	698583	5.0.10.0	5_exp_RW	23	Rpleas_acq	CS_B	JXXJ	YDDY	BZZB	GWWG	VKKV	MQQM	schön	spielen	fair	retten	treu	ehrlich	schlecht	strafen	faul	rächen	tot	eitel	1	acq_USunple_CSunple1_RW	acq4567_RW	5	55	400	0	300	300	552	46	0	1	1	blank2r.bmp	0	1	+	0	1	blank2r.bmp	492	1	BZZB	492	1	blank2r.bmp	572	2	strafen	866	1	!	1239	1	!	-1	0	0	0	0	0	0	0	0	0	0	0	0	0	0	0	0	0	0	0	0	0	0	0	0	0	0	0	0	0	0
070819	16:16:04	16:27:47	700809	5.0.10.0	5_exp_RW	23	Rpleas_acq	CS_B	JXXJ	YDDY	BZZB	GWWG	VKKV	MQQM	schön	spielen	fair	retten	treu	ehrlich	schlecht	strafen	faul	rächen	tot	eitel	1	acq_USpleas_CSpleas1_RW	acq4567_RW	5	56	400	1	300	300	418	46	0	0	1	blank2r.bmp	0	1	+	0	1	blank2r.bmp	492	1	JXXJ	492	1	blank2r.bmp	572	3	fair	866	1	!	1239	1	!	1319	0	0	0	0	0	0	0	0	0	0	0	0	0	0	0	0	0	0	0	0	0	0	0	0	0	0	0	0	0	0
070819	16:16:04	16:27:49	703141	5.0.10.0	5_exp_RW	23	Rpleas_acq	CS_B	JXXJ	YDDY	BZZB	GWWG	VKKV	MQQM	schön	spielen	fair	retten	treu	ehrlich	schlecht	strafen	faul	rächen	tot	eitel	1	acq_USunple_CSunple2_RW	acq4567_RW	5	57	400	0	300	300	563	46	0	1	1	blank2r.bmp	0	1	+	0	1	blank2r.bmp	492	1	GWWG	492	1	blank2r.bmp	572	2	tot	866	1	!	1239	1	!	-1	0	0	0	0	0	0	0	0	0	0	0	0	0	0	0	0	0	0	0	0	0	0	0	0	0	0	0	0	0	0
070819	16:16:04	16:27:51	705407	5.0.10.0	5_exp_RW	23	Rpleas_acq	CS_B	JXXJ	YDDY	BZZB	GWWG	VKKV	MQQM	schön	spielen	fair	retten	treu	ehrlich	schlecht	strafen	faul	rächen	tot	eitel	1	acq_USpleas_CSpleas2_RW	acq4567_RW	5	58	400	0	300	300	489	46	0	0	1	blank2r.bmp	0	1	+	0	1	blank2r.bmp	492	1	YDDY	492	1	blank2r.bmp	572	1	retten	866	1	!	1239	1	!	-1	0	0	0	0	0	0	0	0	0	0	0	0	0	0	0	0	0	0	0	0	0	0	0	0	0	0	0	0	0	0
070819	16:16:04	16:27:54	707899	5.0.10.0	5_exp_RW	23	Rpleas_acq	CS_B	JXXJ	YDDY	BZZB	GWWG	VKKV	MQQM	schön	spielen	fair	retten	treu	ehrlich	schlecht	strafen	faul	rächen	tot	eitel	1	acq_USpleas_CSpleas1_RW	acq4567_RW	5	59	400	0	300	300	704	50	0	1	1	blank2r.bmp	0	1	+	0	1	blank2r.bmp	492	1	JXXJ	492	1	blank2r.bmp	572	1	schön	866	1	!	1239	1	!	-1	0	0	0	0	0	0	0	0	0	0	0	0	0	0	0	0	0	0	0	0	0	0	0	0	0	0	0	0	0	0
070819	16:16:04	16:27:56	710072	5.0.10.0	5_exp_RW	23	Rpleas_acq	CS_B	JXXJ	YDDY	BZZB	GWWG	VKKV	MQQM	schön	spielen	fair	retten	treu	ehrlich	schlecht	strafen	faul	rächen	tot	eitel	1	acq_USunple_CSunple2_RW	acq4567_RW	5	60	400	1	300	300	366	46	0	1	1	blank2r.bmp	0	1	+	0	1	blank2r.bmp	492	1	GWWG	492	1	blank2r.bmp	572	3	eitel	866	1	!	1239	1	!	1266	0	0	0	0	0	0	0	0	0	0	0	0	0	0	0	0	0	0	0	0	0	0	0	0	0	0	0	0	0	0
070819	16:16:04	16:27:58	712151	5.0.10.0	5_exp_RW	23	Rpleas_acq	CS_B	JXXJ	YDDY	BZZB	GWWG	VKKV	MQQM	schön	spielen	fair	retten	treu	ehrlich	schlecht	strafen	faul	rächen	tot	eitel	1	acq_USpleas_CSpleas1_RW	acq4567_RW	5	61	400	0	300	300	294	50	0	1	1	blank2r.bmp	0	1	+	0	1	blank2r.bmp	492	1	JXXJ	492	1	blank2r.bmp	572	3	fair	866	1	!	-1	1	!	-1	0	0	0	0	0	0	0	0	0	0	0	0	0	0	0	0	0	0	0	0	0	0	0	0	0	0	0	0	0	0
070819	16:16:04	16:28:00	714230	5.0.10.0	5_exp_RW	23	Rpleas_acq	CS_B	JXXJ	YDDY	BZZB	GWWG	VKKV	MQQM	schön	spielen	fair	retten	treu	ehrlich	schlecht	strafen	faul	rächen	tot	eitel	1	acq_USpleas_CSpleas1_RW	acq4567_RW	5	62	400	0	300	300	300	46	0	0	1	blank2r.bmp	0	1	+	0	1	blank2r.bmp	492	1	JXXJ	492	1	blank2r.bmp	572	1	schön	866	1	!	-1	1	!	-1	0	0	0	0	0	0	0	0	0	0	0	0	0	0	0	0	0	0	0	0	0	0	0	0	0	0	0	0	0	0
070819	16:16:04	16:28:03	716682	5.0.10.0	5_exp_RW	23	Rpleas_acq	CS_B	JXXJ	YDDY	BZZB	GWWG	VKKV	MQQM	schön	spielen	fair	retten	treu	ehrlich	schlecht	strafen	faul	rächen	tot	eitel	1	acq_USunple_CSunple1_RW	acq4567_RW	5	63	400	0	300	300	674	46	0	1	1	blank2r.bmp	0	1	+	0	1	blank2r.bmp	492	1	BZZB	492	1	blank2r.bmp	572	1	schlecht	866	1	!	1239	1	!	-1	0	0	0	0	0	0	0	0	0	0	0	0	0	0	0	0	0	0	0	0	0	0	0	0	0	0	0	0	0	0
070819	16:16:04	16:28:05	718841	5.0.10.0	5_exp_RW	23	Rpleas_acq	CS_B	JXXJ	YDDY	BZZB	GWWG	VKKV	MQQM	schön	spielen	fair	retten	treu	ehrlich	schlecht	strafen	faul	rächen	tot	eitel	1	acq_USpleas_CSpleas2_RW	acq4567_RW	5	64	400	1	300	300	349	50	0	1	1	blank2r.bmp	0	1	+	0	1	blank2r.bmp	492	1	YDDY	492	1	blank2r.bmp	572	3	ehrlich	866	1	!	1239	1	!	1252	0	0	0	0	0	0	0	0	0	0	0	0	0	0	0	0	0	0	0	0	0	0	0	0	0	0	0	0	0	0
070819	16:16:04	16:28:07	721040	5.0.10.0	5_exp_RW	23	Rpleas_acq	CS_B	JXXJ	YDDY	BZZB	GWWG	VKKV	MQQM	schön	spielen	fair	retten	treu	ehrlich	schlecht	strafen	faul	rächen	tot	eitel	1	acq_USunple_CSunple1_RW	acq4567_RW	5	65	400	1	300	300	407	46	0	1	1	blank2r.bmp	0	1	+	0	1	blank2r.bmp	492	1	BZZB	492	1	blank2r.bmp	572	3	faul	866	1	!	1239	1	!	1306	0	0	0	0	0	0	0	0	0	0	0	0	0	0	0	0	0	0	0	0	0	0	0	0	0	0	0	0	0	0
070819	16:16:04	16:28:09	723333	5.0.10.0	5_exp_RW	23	Rpleas_acq	CS_B	JXXJ	YDDY	BZZB	GWWG	VKKV	MQQM	schön	spielen	fair	retten	treu	ehrlich	schlecht	strafen	faul	rächen	tot	eitel	1	acq_USpleas_CSpleas2_RW	acq4567_RW	5	66	400	0	300	300	525	50	0	1	1	blank2r.bmp	0	1	+	0	1	blank2r.bmp	492	1	YDDY	492	1	blank2r.bmp	572	1	retten	866	1	!	1239	1	!	-1	0	0	0	0	0	0	0	0	0	0	0	0	0	0	0	0	0	0	0	0	0	0	0	0	0	0	0	0	0	0
070819	16:16:04	16:28:12	725612	5.0.10.0	5_exp_RW	23	Rpleas_acq	CS_B	JXXJ	YDDY	BZZB	GWWG	VKKV	MQQM	schön	spielen	fair	retten	treu	ehrlich	schlecht	strafen	faul	rächen	tot	eitel	1	acq_USpleas_CSpleas2_RW	acq4567_RW	5	67	400	0	300	300	479	50	0	1	1	blank2r.bmp	0	1	+	0	1	blank2r.bmp	492	1	YDDY	492	1	blank2r.bmp	572	2	treu	866	1	!	1239	1	!	-1	0	0	0	0	0	0	0	0	0	0	0	0	0	0	0	0	0	0	0	0	0	0	0	0	0	0	0	0	0	0
070819	16:16:04	16:28:14	727944	5.0.10.0	5_exp_RW	23	Rpleas_acq	CS_B	JXXJ	YDDY	BZZB	GWWG	VKKV	MQQM	schön	spielen	fair	retten	treu	ehrlich	schlecht	strafen	faul	rächen	tot	eitel	1	acq_USpleas_CSpleas2_RW	acq4567_RW	5	68	400	0	300	300	545	50	0	1	1	blank2r.bmp	0	1	+	0	1	blank2r.bmp	492	1	YDDY	492	1	blank2r.bmp	572	3	ehrlich	866	1	!	1239	1	!	-1	0	0	0	0	0	0	0	0	0	0	0	0	0	0	0	0	0	0	0	0	0	0	0	0	0	0	0	0	0	0
070819	16:16:04	16:28:16	730197	5.0.10.0	5_exp_RW	23	Rpleas_acq	CS_B	JXXJ	YDDY	BZZB	GWWG	VKKV	MQQM	schön	spielen	fair	retten	treu	ehrlich	schlecht	strafen	faul	rächen	tot	eitel	1	acq_USunple_CSunple2_RW	acq4567_RW	5	69	400	1	300	300	447	46	0	1	1	blank2r.bmp	0	1	+	0	1	blank2r.bmp	492	1	GWWG	492	1	blank2r.bmp	572	3	eitel	866	1	!	1239	1	!	1346	0	0	0	0	0	0	0	0	0	0	0	0	0	0	0	0	0	0	0	0	0	0	0	0	0	0	0	0	0	0
070819	16:16:04	16:28:18	732129	5.0.10.0	5_exp_RW	23	Rpleas_acq	CS_B	JXXJ	YDDY	BZZB	GWWG	VKKV	MQQM	schön	spielen	fair	retten	treu	ehrlich	schlecht	strafen	faul	rächen	tot	eitel	1	acq_USunple_CSunple2_RW	acq4567_RW	5	70	400	0	300	300	171	50	0	0	1	blank2r.bmp	0	1	+	0	1	blank2r.bmp	492	1	GWWG	492	1	blank2r.bmp	572	2	tot	866	1	!	-1	1	!	-1	0	0	0	0	0	0	0	0	0	0	0	0	0	0	0	0	0	0	0	0	0	0	0	0	0	0	0	0	0	0
070819	16:16:04	16:28:21	734568	5.0.10.0	5_exp_RW	23	Rpleas_acq	CS_B	JXXJ	YDDY	BZZB	GWWG	VKKV	MQQM	schön	spielen	fair	retten	treu	ehrlich	schlecht	strafen	faul	rächen	tot	eitel	1	acq_USunple_CSunple1_RW	acq4567_RW	5	71	400	0	300	300	655	46	0	1	1	blank2r.bmp	0	1	+	0	1	blank2r.bmp	492	1	BZZB	492	1	blank2r.bmp	572	2	strafen	866	1	!	1239	1	!	-1	0	0	0	0	0	0	0	0	0	0	0	0	0	0	0	0	0	0	0	0	0	0	0	0	0	0	0	0	0	0
070819	16:16:04	16:28:23	736661	5.0.10.0	5_exp_RW	23	Rpleas_acq	CS_B	JXXJ	YDDY	BZZB	GWWG	VKKV	MQQM	schön	spielen	fair	retten	treu	ehrlich	schlecht	strafen	faul	rächen	tot	eitel	1	acq_USunple_CSunple1_RW	acq4567_RW	5	72	400	0	300	300	316	50	0	0	1	blank2r.bmp	0	1	+	0	1	blank2r.bmp	492	1	BZZB	492	1	blank2r.bmp	572	2	strafen	866	1	!	-1	1	!	-1	0	0	0	0	0	0	0	0	0	0	0	0	0	0	0	0	0	0	0	0	0	0	0	0	0	0	0	0	0	0
070819	16:16:04	16:28:25	738820	5.0.10.0	5_exp_RW	23	Rpleas_acq	CS_B	JXXJ	YDDY	BZZB	GWWG	VKKV	MQQM	schön	spielen	fair	retten	treu	ehrlich	schlecht	strafen	faul	rächen	tot	eitel	1	acq_USunple_CSunple1_RW	acq4567_RW	5	73	400	1	300	300	358	46	0	1	1	blank2r.bmp	0	1	+	0	1	blank2r.bmp	492	1	BZZB	492	1	blank2r.bmp	572	3	faul	866	1	!	1239	1	!	1252	0	0	0	0	0	0	0	0	0	0	0	0	0	0	0	0	0	0	0	0	0	0	0	0	0	0	0	0	0	0
070819	16:16:04	16:28:27	741339	5.0.10.0	5_exp_RW	23	Rpleas_acq	CS_B	JXXJ	YDDY	BZZB	GWWG	VKKV	MQQM	schön	spielen	fair	retten	treu	ehrlich	schlecht	strafen	faul	rächen	tot	eitel	1	acq_USunple_CSunple2_RW	acq4567_RW	5	74	400	0	300	300	743	46	0	1	1	blank2r.bmp	0	1	+	0	1	blank2r.bmp	492	1	GWWG	492	1	blank2r.bmp	572	1	rächen	866	1	!	1239	1	!	-1	0	0	0	0	0	0	0	0	0	0	0	0	0	0	0	0	0	0	0	0	0	0	0	0	0	0	0	0	0	0
070819	16:16:04	16:28:30	743685	5.0.10.0	5_exp_RW	23	Rpleas_acq	CS_B	JXXJ	YDDY	BZZB	GWWG	VKKV	MQQM	schön	spielen	fair	retten	treu	ehrlich	schlecht	strafen	faul	rächen	tot	eitel	1	acq_USpleas_CSpleas1_RW	acq4567_RW	5	75	400	0	300	300	567	50	0	1	1	blank2r.bmp	0	1	+	0	1	blank2r.bmp	492	1	JXXJ	492	1	blank2r.bmp	572	2	spielen	866	1	!	1239	1	!	-1	0	0	0	0	0	0	0	0	0	0	0	0	0	0	0	0	0	0	0	0	0	0	0	0	0	0	0	0	0	0
070819	16:16:04	16:28:32	746044	5.0.10.0	5_exp_RW	23	Rpleas_acq	CS_B	JXXJ	YDDY	BZZB	GWWG	VKKV	MQQM	schön	spielen	fair	retten	treu	ehrlich	schlecht	strafen	faul	rächen	tot	eitel	1	acq_USpleas_CSpleas1_RW	acq4567_RW	5	76	400	0	300	300	575	46	0	0	1	blank2r.bmp	0	1	+	0	1	blank2r.bmp	492	1	JXXJ	492	1	blank2r.bmp	572	2	spielen	866	1	!	1239	1	!	-1	0	0	0	0	0	0	0	0	0	0	0	0	0	0	0	0	0	0	0	0	0	0	0	0	0	0	0	0	0	0
070819	16:16:04	16:28:37	751255	5.0.10.0	5_exp_RW	23	Rpleas_acq	CS_B	JXXJ	YDDY	BZZB	GWWG	VKKV	MQQM	schön	spielen	fair	retten	treu	ehrlich	schlecht	strafen	faul	rächen	tot	eitel	1	acq_USpleas_CSpleas2_RW	acq4567_RW	5	77	400	0	300	300	3430	50	0	1	1	blank2r.bmp	0	1	+	0	1	blank2r.bmp	492	1	YDDY	492	1	blank2r.bmp	572	1	retten	866	1	!	1239	1	!	-1	0	0	0	0	0	0	0	0	0	0	0	0	0	0	0	0	0	0	0	0	0	0	0	0	0	0	0	0	0	0
070819	16:16:04	16:28:40	753667	5.0.10.0	5_exp_RW	23	Rpleas_acq	CS_B	JXXJ	YDDY	BZZB	GWWG	VKKV	MQQM	schön	spielen	fair	retten	treu	ehrlich	schlecht	strafen	faul	rächen	tot	eitel	1	acq_USunple_CSunple2_RW	acq4567_RW	5	78	400	0	300	300	627	46	0	1	1	blank2r.bmp	0	1	+	0	1	blank2r.bmp	492	1	GWWG	492	1	blank2r.bmp	572	2	tot	866	1	!	1239	1	!	-1	0	0	0	0	0	0	0	0	0	0	0	0	0	0	0	0	0	0	0	0	0	0	0	0	0	0	0	0	0	0
070819	16:16:04	16:28:42	755880	5.0.10.0	5_exp_RW	23	Rpleas_acq	CS_B	JXXJ	YDDY	BZZB	GWWG	VKKV	MQQM	schön	spielen	fair	retten	treu	ehrlich	schlecht	strafen	faul	rächen	tot	eitel	1	acq_USunple_CSunple2_RW	acq4567_RW	5	79	400	1	300	300	409	50	0	0	1	blank2r.bmp	0	1	+	0	1	blank2r.bmp	492	1	GWWG	492	1	blank2r.bmp	572	3	eitel	866	1	!	1239	1	!	1306	0	0	0	0	0	0	0	0	0	0	0	0	0	0	0	0	0	0	0	0	0	0	0	0	0	0	0	0	0	0
070819	16:16:04	16:28:45	759305	5.0.10.0	5_exp_RW	23	Rpleas_acq	CS_B	JXXJ	YDDY	BZZB	GWWG	VKKV	MQQM	schön	spielen	fair	retten	treu	ehrlich	schlecht	strafen	faul	rächen	tot	eitel	1	acq_USpleas_CSpleas1_RW	acq4567_RW	5	80	400	0	300	300	1652	50	0	1	1	blank2r.bmp	0	1	+	0	1	blank2r.bmp	492	1	JXXJ	492	1	blank2r.bmp	572	3	fair	866	1	!	1239	1	!	-1	0	0	0	0	0	0	0	0	0	0	0	0	0	0	0	0	0	0	0	0	0	0	0	0	0	0	0	0	0	0
070819	16:16:04	16:29:00	773526	5.0.10.0	5_exp_RW	23	Rpleas_acq	CS_B	JXXJ	YDDY	BZZB	GWWG	VKKV	MQQM	schön	spielen	fair	retten	treu	ehrlich	schlecht	strafen	faul	rächen	tot	eitel	1	acq_USunple_CSunple2_RW	acq4567_RW	6	1	400	0	300	300	1212	46	0	1	1	blank2r.bmp	0	1	+	0	1	blank2r.bmp	492	1	GWWG	492	1	blank2r.bmp	572	1	rächen	866	1	!	1239	1	!	-1	0	0	0	0	0	0	0	0	0	0	0	0	0	0	0	0	0	0	0	0	0	0	0	0	0	0	0	0	0	0
070819	16:16:04	16:29:02	775792	5.0.10.0	5_exp_RW	23	Rpleas_acq	CS_B	JXXJ	YDDY	BZZB	GWWG	VKKV	MQQM	schön	spielen	fair	retten	treu	ehrlich	schlecht	strafen	faul	rächen	tot	eitel	1	acq_USpleas_CSpleas1_RW	acq4567_RW	6	2	400	0	300	300	479	50	0	1	1	blank2r.bmp	0	1	+	0	1	blank2r.bmp	492	1	JXXJ	492	1	blank2r.bmp	572	1	schön	866	1	!	1239	1	!	-1	0	0	0	0	0	0	0	0	0	0	0	0	0	0	0	0	0	0	0	0	0	0	0	0	0	0	0	0	0	0
070819	16:16:04	16:29:04	778017	5.0.10.0	5_exp_RW	23	Rpleas_acq	CS_B	JXXJ	YDDY	BZZB	GWWG	VKKV	MQQM	schön	spielen	fair	retten	treu	ehrlich	schlecht	strafen	faul	rächen	tot	eitel	1	acq_USpleas_CSpleas2_RW	acq4567_RW	6	3	400	1	300	300	417	46	0	0	1	blank2r.bmp	0	1	+	0	1	blank2r.bmp	492	1	YDDY	492	1	blank2r.bmp	572	2	treu	866	1	!	1239	1	!	1319	0	0	0	0	0	0	0	0	0	0	0	0	0	0	0	0	0	0	0	0	0	0	0	0	0	0	0	0	0	0
070819	16:16:04	16:29:06	780243	5.0.10.0	5_exp_RW	23	Rpleas_acq	CS_B	JXXJ	YDDY	BZZB	GWWG	VKKV	MQQM	schön	spielen	fair	retten	treu	ehrlich	schlecht	strafen	faul	rächen	tot	eitel	1	acq_USunple_CSunple1_RW	acq4567_RW	6	4	400	1	300	300	434	46	0	1	1	blank2r.bmp	0	1	+	0	1	blank2r.bmp	492	1	BZZB	492	1	blank2r.bmp	572	1	schlecht	866	1	!	1239	1	!	1332	0	0	0	0	0	0	0	0	0	0	0	0	0	0	0	0	0	0	0	0	0	0	0	0	0	0	0	0	0	0
070819	16:16:04	16:29:08	782336	5.0.10.0	5_exp_RW	23	Rpleas_acq	CS_B	JXXJ	YDDY	BZZB	GWWG	VKKV	MQQM	schön	spielen	fair	retten	treu	ehrlich	schlecht	strafen	faul	rächen	tot	eitel	1	acq_USpleas_CSpleas1_RW	acq4567_RW	6	5	400	0	300	300	324	50	0	1	1	blank2r.bmp	0	1	+	0	1	blank2r.bmp	492	1	JXXJ	492	1	blank2r.bmp	572	2	spielen	866	1	!	-1	1	!	-1	0	0	0	0	0	0	0	0	0	0	0	0	0	0	0	0	0	0	0	0	0	0	0	0	0	0	0	0	0	0
070819	16:16:04	16:29:11	784761	5.0.10.0	5_exp_RW	23	Rpleas_acq	CS_B	JXXJ	YDDY	BZZB	GWWG	VKKV	MQQM	schön	spielen	fair	retten	treu	ehrlich	schlecht	strafen	faul	rächen	tot	eitel	1	acq_USpleas_CSpleas2_RW	acq4567_RW	6	6	400	0	300	300	638	50	0	1	1	blank2r.bmp	0	1	+	0	1	blank2r.bmp	492	1	YDDY	492	1	blank2r.bmp	572	2	treu	866	1	!	1239	1	!	-1	0	0	0	0	0	0	0	0	0	0	0	0	0	0	0	0	0	0	0	0	0	0	0	0	0	0	0	0	0	0
070819	16:16:04	16:29:13	786854	5.0.10.0	5_exp_RW	23	Rpleas_acq	CS_B	JXXJ	YDDY	BZZB	GWWG	VKKV	MQQM	schön	spielen	fair	retten	treu	ehrlich	schlecht	strafen	faul	rächen	tot	eitel	1	acq_USpleas_CSpleas1_RW	acq4567_RW	6	7	400	0	300	300	315	46	0	0	1	blank2r.bmp	0	1	+	0	1	blank2r.bmp	492	1	JXXJ	492	1	blank2r.bmp	572	1	schön	866	1	!	-1	1	!	-1	0	0	0	0	0	0	0	0	0	0	0	0	0	0	0	0	0	0	0	0	0	0	0	0	0	0	0	0	0	0
070819	16:16:04	16:29:15	789093	5.0.10.0	5_exp_RW	23	Rpleas_acq	CS_B	JXXJ	YDDY	BZZB	GWWG	VKKV	MQQM	schön	spielen	fair	retten	treu	ehrlich	schlecht	strafen	faul	rächen	tot	eitel	1	acq_USpleas_CSpleas1_RW	acq4567_RW	6	8	400	1	300	300	414	50	0	1	1	blank2r.bmp	0	1	+	0	1	blank2r.bmp	492	1	JXXJ	492	1	blank2r.bmp	572	3	fair	866	1	!	1239	1	!	1319	0	0	0	0	0	0	0	0	0	0	0	0	0	0	0	0	0	0	0	0	0	0	0	0	0	0	0	0	0	0
070819	16:16:04	16:29:17	791305	5.0.10.0	5_exp_RW	23	Rpleas_acq	CS_B	JXXJ	YDDY	BZZB	GWWG	VKKV	MQQM	schön	spielen	fair	retten	treu	ehrlich	schlecht	strafen	faul	rächen	tot	eitel	1	acq_USunple_CSunple2_RW	acq4567_RW	6	9	400	1	300	300	416	50	0	0	1	blank2r.bmp	0	1	+	0	1	blank2r.bmp	492	1	GWWG	492	1	blank2r.bmp	572	3	eitel	866	1	!	1239	1	!	1319	0	0	0	0	0	0	0	0	0	0	0	0	0	0	0	0	0	0	0	0	0	0	0	0	0	0	0	0	0	0
070819	16:16:04	16:29:20	793558	5.0.10.0	5_exp_RW	23	Rpleas_acq	CS_B	JXXJ	YDDY	BZZB	GWWG	VKKV	MQQM	schön	spielen	fair	retten	treu	ehrlich	schlecht	strafen	faul	rächen	tot	eitel	1	acq_USpleas_CSpleas1_RW	acq4567_RW	6	10	400	0	300	300	491	50	0	1	1	blank2r.bmp	0	1	+	0	1	blank2r.bmp	492	1	JXXJ	492	1	blank2r.bmp	572	3	fair	866	1	!	1239	1	!	-1	0	0	0	0	0	0	0	0	0	0	0	0	0	0	0	0	0	0	0	0	0	0	0	0	0	0	0	0	0	0
070819	16:16:04	16:29:23	796557	5.0.10.0	5_exp_RW	23	Rpleas_acq	CS_B	JXXJ	YDDY	BZZB	GWWG	VKKV	MQQM	schön	spielen	fair	retten	treu	ehrlich	schlecht	strafen	faul	rächen	tot	eitel	1	acq_USunple_CSunple2_RW	acq4567_RW	6	11	400	0	300	300	1224	46	0	1	1	blank2r.bmp	0	1	+	0	1	blank2r.bmp	492	1	GWWG	492	1	blank2r.bmp	572	2	tot	866	1	!	1239	1	!	-1	0	0	0	0	0	0	0	0	0	0	0	0	0	0	0	0	0	0	0	0	0	0	0	0	0	0	0	0	0	0
070819	16:16:04	16:29:25	798756	5.0.10.0	5_exp_RW	23	Rpleas_acq	CS_B	JXXJ	YDDY	BZZB	GWWG	VKKV	MQQM	schön	spielen	fair	retten	treu	ehrlich	schlecht	strafen	faul	rächen	tot	eitel	1	acq_USunple_CSunple2_RW	acq4567_RW	6	12	400	1	300	300	396	46	0	1	1	blank2r.bmp	0	1	+	0	1	blank2r.bmp	492	1	GWWG	492	1	blank2r.bmp	572	1	rächen	866	1	!	1239	1	!	1292	0	0	0	0	0	0	0	0	0	0	0	0	0	0	0	0	0	0	0	0	0	0	0	0	0	0	0	0	0	0
070819	16:16:04	16:29:27	800968	5.0.10.0	5_exp_RW	23	Rpleas_acq	CS_B	JXXJ	YDDY	BZZB	GWWG	VKKV	MQQM	schön	spielen	fair	retten	treu	ehrlich	schlecht	strafen	faul	rächen	tot	eitel	1	acq_USunple_CSunple1_RW	acq4567_RW	6	13	400	1	300	300	405	50	0	0	1	blank2r.bmp	0	1	+	0	1	blank2r.bmp	492	1	BZZB	492	1	blank2r.bmp	572	2	strafen	866	1	!	1239	1	!	1306	0	0	0	0	0	0	0	0	0	0	0	0	0	0	0	0	0	0	0	0	0	0	0	0	0	0	0	0	0	0
070819	16:16:04	16:29:29	803007	5.0.10.0	5_exp_RW	23	Rpleas_acq	CS_B	JXXJ	YDDY	BZZB	GWWG	VKKV	MQQM	schön	spielen	fair	retten	treu	ehrlich	schlecht	strafen	faul	rächen	tot	eitel	1	acq_USunple_CSunple1_RW	acq4567_RW	6	14	400	0	300	300	266	46	0	1	1	blank2r.bmp	0	1	+	0	1	blank2r.bmp	492	1	BZZB	492	1	blank2r.bmp	572	3	faul	866	1	!	-1	1	!	-1	0	0	0	0	0	0	0	0	0	0	0	0	0	0	0	0	0	0	0	0	0	0	0	0	0	0	0	0	0	0
070819	16:16:04	16:29:31	805353	5.0.10.0	5_exp_RW	23	Rpleas_acq	CS_B	JXXJ	YDDY	BZZB	GWWG	VKKV	MQQM	schön	spielen	fair	retten	treu	ehrlich	schlecht	strafen	faul	rächen	tot	eitel	1	acq_USpleas_CSpleas2_RW	acq4567_RW	6	15	400	0	300	300	563	50	0	1	1	blank2r.bmp	0	1	+	0	1	blank2r.bmp	492	1	YDDY	492	1	blank2r.bmp	572	1	retten	866	1	!	1239	1	!	-1	0	0	0	0	0	0	0	0	0	0	0	0	0	0	0	0	0	0	0	0	0	0	0	0	0	0	0	0	0	0
070819	16:16:04	16:29:34	807632	5.0.10.0	5_exp_RW	23	Rpleas_acq	CS_B	JXXJ	YDDY	BZZB	GWWG	VKKV	MQQM	schön	spielen	fair	retten	treu	ehrlich	schlecht	strafen	faul	rächen	tot	eitel	1	acq_USunple_CSunple1_RW	acq4567_RW	6	16	400	0	300	300	496	46	0	1	1	blank2r.bmp	0	1	+	0	1	blank2r.bmp	492	1	BZZB	492	1	blank2r.bmp	572	1	schlecht	866	1	!	1239	1	!	-1	0	0	0	0	0	0	0	0	0	0	0	0	0	0	0	0	0	0	0	0	0	0	0	0	0	0	0	0	0	0
070819	16:16:04	16:29:36	809871	5.0.10.0	5_exp_RW	23	Rpleas_acq	CS_B	JXXJ	YDDY	BZZB	GWWG	VKKV	MQQM	schön	spielen	fair	retten	treu	ehrlich	schlecht	strafen	faul	rächen	tot	eitel	1	acq_USunple_CSunple1_RW	acq4567_RW	6	17	400	1	300	300	431	50	0	0	1	blank2r.bmp	0	1	+	0	1	blank2r.bmp	492	1	BZZB	492	1	blank2r.bmp	572	3	faul	866	1	!	1239	1	!	1332	0	0	0	0	0	0	0	0	0	0	0	0	0	0	0	0	0	0	0	0	0	0	0	0	0	0	0	0	0	0
070819	16:16:04	16:29:38	812310	5.0.10.0	5_exp_RW	23	Rpleas_acq	CS_B	JXXJ	YDDY	BZZB	GWWG	VKKV	MQQM	schön	spielen	fair	retten	treu	ehrlich	schlecht	strafen	faul	rächen	tot	eitel	1	acq_USunple_CSunple2_RW	acq4567_RW	6	18	400	0	300	300	665	46	0	1	1	blank2r.bmp	0	1	+	0	1	blank2r.bmp	492	1	GWWG	492	1	blank2r.bmp	572	2	tot	866	1	!	1239	1	!	-1	0	0	0	0	0	0	0	0	0	0	0	0	0	0	0	0	0	0	0	0	0	0	0	0	0	0	0	0	0	0
070819	16:16:04	16:29:41	814483	5.0.10.0	5_exp_RW	23	Rpleas_acq	CS_B	JXXJ	YDDY	BZZB	GWWG	VKKV	MQQM	schön	spielen	fair	retten	treu	ehrlich	schlecht	strafen	faul	rächen	tot	eitel	1	acq_USpleas_CSpleas2_RW	acq4567_RW	6	19	400	1	300	300	370	46	0	0	1	blank2r.bmp	0	1	+	0	1	blank2r.bmp	492	1	YDDY	492	1	blank2r.bmp	572	3	ehrlich	866	1	!	1239	1	!	1266	0	0	0	0	0	0	0	0	0	0	0	0	0	0	0	0	0	0	0	0	0	0	0	0	0	0	0	0	0	0
070819	16:16:04	16:29:43	816655	5.0.10.0	5_exp_RW	23	Rpleas_acq	CS_B	JXXJ	YDDY	BZZB	GWWG	VKKV	MQQM	schön	spielen	fair	retten	treu	ehrlich	schlecht	strafen	faul	rächen	tot	eitel	1	acq_USpleas_CSpleas2_RW	acq4567_RW	6	20	400	1	300	300	374	50	0	1	1	blank2r.bmp	0	1	+	0	1	blank2r.bmp	492	1	YDDY	492	1	blank2r.bmp	572	1	retten	866	1	!	1239	1	!	1279	0	0	0	0	0	0	0	0	0	0	0	0	0	0	0	0	0	0	0	0	0	0	0	0	0	0	0	0	0	0
