date	time	script.currenttime	script.elapsedtime	build	script.currentexpt	subject	expressions.LRpleas_acq	expressions.conditionCS_A	expressions.CSpleas_1	expressions.CSpleas_2	expressions.CSunple_1	expressions.CSunple_2	expressions.distractor_1	expressions.distractor_2	expressions.US_pleas1	expressions.US_pleas2	expressions.US_pleas3	expressions.US_pleas4	expressions.US_pleas5	expressions.US_pleas6	expressions.US_unple1	expressions.US_unple2	expressions.US_unple3	expressions.US_unple4	expressions.US_unple5	expressions.US_unple6	counter.positions_noRW	trialcode	blockcode	blocknum	trialnum	windowcenter	inwindow	pretrialpause	posttrialpause	latency	response	expressions.correctedscore	correct	stimulusnumber1	stimulusitem1	stimulusonset1	stimulusnumber2	stimulusitem2	stimulusonset2	stimulusnumber3	stimulusitem3	stimulusonset3	stimulusnumber4	stimulusitem4	stimulusonset4	stimulusnumber5	stimulusitem5	stimulusonset5	stimulusnumber6	stimulusitem6	stimulusonset6	stimulusnumber7	stimulusitem7	stimulusonset7	stimulusnumber8	stimulusitem8	stimulusonset8	stimulusnumber9	stimulusitem9	stimulusonset9	stimulusnumber10	stimulusitem10	stimulusonset10	stimulusnumber11	stimulusitem11	stimulusonset11	stimulusnumber12	stimulusitem12	stimulusonset12	stimulusnumber13	stimulusitem13	stimulusonset13	stimulusnumber14	stimulusitem14	stimulusonset14	stimulusnumber15	stimulusitem15	stimulusonset15	stimulusnumber16	stimulusitem16	stimulusonset16	stimulusnumber17	stimulusitem17	stimulusonset17	stimulusnumber18	stimulusitem18	stimulusonset18
070319	10:23:13	10:25:02	107350	5.0.10.0	5_exp_RW	3	Rpleas_acq	CS_B	MQQM	GWWG	BZZB	JXXJ	YDDY	VKKV	spielen	treu	fair	schön	retten	ehrlich	strafen	tot	faul	schlecht	rächen	eitel	1	acq_USpleas_CSpleas1_RW	acq1_RW	1	1	0	0	300	300	1068	50	0	1	1	blank2r.bmp	0	1	+	0	1	blank2r.bmp	492	1	MQQM	492	1	blank2r.bmp	572	1	spielen	866	0	0	0	0	0	0	0	0	0	0	0	0	0	0	0	0	0	0	0	0	0	0	0	0	0	0	0	0	0	0	0	0	0	0	0	0
070319	10:23:13	10:25:04	109528	5.0.10.0	5_exp_RW	3	Rpleas_acq	CS_B	MQQM	GWWG	BZZB	JXXJ	YDDY	VKKV	spielen	treu	fair	schön	retten	ehrlich	strafen	tot	faul	schlecht	rächen	eitel	1	acq_USunple_CSunple2_RW	acq1_RW	1	2	0	0	300	300	717	46	0	1	1	blank2r.bmp	0	1	+	0	1	blank2r.bmp	492	1	JXXJ	492	1	blank2r.bmp	572	2	rächen	866	0	0	0	0	0	0	0	0	0	0	0	0	0	0	0	0	0	0	0	0	0	0	0	0	0	0	0	0	0	0	0	0	0	0	0	0
070319	10:23:13	10:25:06	111661	5.0.10.0	5_exp_RW	3	Rpleas_acq	CS_B	MQQM	GWWG	BZZB	JXXJ	YDDY	VKKV	spielen	treu	fair	schön	retten	ehrlich	strafen	tot	faul	schlecht	rächen	eitel	1	acq_USpleas_CSpleas1_RW	acq1_RW	1	3	0	0	300	300	645	50	0	1	1	blank2r.bmp	0	1	+	0	1	blank2r.bmp	492	1	MQQM	492	1	blank2r.bmp	572	2	treu	866	0	0	0	0	0	0	0	0	0	0	0	0	0	0	0	0	0	0	0	0	0	0	0	0	0	0	0	0	0	0	0	0	0	0	0	0
070319	10:23:13	10:25:09	113860	5.0.10.0	5_exp_RW	3	Rpleas_acq	CS_B	MQQM	GWWG	BZZB	JXXJ	YDDY	VKKV	spielen	treu	fair	schön	retten	ehrlich	strafen	tot	faul	schlecht	rächen	eitel	1	acq_USpleas_CSpleas2_RW	acq1_RW	1	4	0	0	300	300	705	50	0	1	1	blank2r.bmp	0	1	+	0	1	blank2r.bmp	492	1	GWWG	492	1	blank2r.bmp	572	3	ehrlich	866	0	0	0	0	0	0	0	0	0	0	0	0	0	0	0	0	0	0	0	0	0	0	0	0	0	0	0	0	0	0	0	0	0	0	0	0
070319	10:23:13	10:25:11	116046	5.0.10.0	5_exp_RW	3	Rpleas_acq	CS_B	MQQM	GWWG	BZZB	JXXJ	YDDY	VKKV	spielen	treu	fair	schön	retten	ehrlich	strafen	tot	faul	schlecht	rächen	eitel	1	acq_USunple_CSunple1_RW	acq1_RW	1	5	0	0	300	300	715	46	0	1	1	blank2r.bmp	0	1	+	0	1	blank2r.bmp	492	1	BZZB	492	1	blank2r.bmp	572	2	tot	866	0	0	0	0	0	0	0	0	0	0	0	0	0	0	0	0	0	0	0	0	0	0	0	0	0	0	0	0	0	0	0	0	0	0	0	0
070319	10:23:13	10:25:13	118245	5.0.10.0	5_exp_RW	3	Rpleas_acq	CS_B	MQQM	GWWG	BZZB	JXXJ	YDDY	VKKV	spielen	treu	fair	schön	retten	ehrlich	strafen	tot	faul	schlecht	rächen	eitel	1	acq_USpleas_CSpleas1_RW	acq1_RW	1	6	0	0	300	300	715	50	0	1	1	blank2r.bmp	0	1	+	0	1	blank2r.bmp	492	1	MQQM	492	1	blank2r.bmp	572	3	fair	866	0	0	0	0	0	0	0	0	0	0	0	0	0	0	0	0	0	0	0	0	0	0	0	0	0	0	0	0	0	0	0	0	0	0	0	0
070319	10:23:13	10:25:15	120311	5.0.10.0	5_exp_RW	3	Rpleas_acq	CS_B	MQQM	GWWG	BZZB	JXXJ	YDDY	VKKV	spielen	treu	fair	schön	retten	ehrlich	strafen	tot	faul	schlecht	rächen	eitel	1	acq_USunple_CSunple2_RW	acq1_RW	1	7	0	0	300	300	573	46	0	1	1	blank2r.bmp	0	1	+	0	1	blank2r.bmp	492	1	JXXJ	492	1	blank2r.bmp	572	1	schlecht	866	0	0	0	0	0	0	0	0	0	0	0	0	0	0	0	0	0	0	0	0	0	0	0	0	0	0	0	0	0	0	0	0	0	0	0	0
070319	10:23:13	10:25:17	122656	5.0.10.0	5_exp_RW	3	Rpleas_acq	CS_B	MQQM	GWWG	BZZB	JXXJ	YDDY	VKKV	spielen	treu	fair	schön	retten	ehrlich	strafen	tot	faul	schlecht	rächen	eitel	1	acq_USunple_CSunple1_RW	acq1_RW	1	8	0	0	300	300	856	46	0	1	1	blank2r.bmp	0	1	+	0	1	blank2r.bmp	492	1	BZZB	492	1	blank2r.bmp	572	3	faul	866	0	0	0	0	0	0	0	0	0	0	0	0	0	0	0	0	0	0	0	0	0	0	0	0	0	0	0	0	0	0	0	0	0	0	0	0
070319	10:23:13	10:25:20	124829	5.0.10.0	5_exp_RW	3	Rpleas_acq	CS_B	MQQM	GWWG	BZZB	JXXJ	YDDY	VKKV	spielen	treu	fair	schön	retten	ehrlich	strafen	tot	faul	schlecht	rächen	eitel	1	acq_USpleas_CSpleas2_RW	acq1_RW	1	9	0	0	300	300	701	50	0	1	1	blank2r.bmp	0	1	+	0	1	blank2r.bmp	492	1	GWWG	492	1	blank2r.bmp	572	1	schön	866	0	0	0	0	0	0	0	0	0	0	0	0	0	0	0	0	0	0	0	0	0	0	0	0	0	0	0	0	0	0	0	0	0	0	0	0
070319	10:23:13	10:25:22	127041	5.0.10.0	5_exp_RW	3	Rpleas_acq	CS_B	MQQM	GWWG	BZZB	JXXJ	YDDY	VKKV	spielen	treu	fair	schön	retten	ehrlich	strafen	tot	faul	schlecht	rächen	eitel	1	acq_USunple_CSunple1_RW	acq1_RW	1	10	0	0	300	300	723	46	0	1	1	blank2r.bmp	0	1	+	0	1	blank2r.bmp	492	1	BZZB	492	1	blank2r.bmp	572	1	strafen	866	0	0	0	0	0	0	0	0	0	0	0	0	0	0	0	0	0	0	0	0	0	0	0	0	0	0	0	0	0	0	0	0	0	0	0	0
070319	10:23:13	10:25:24	129653	5.0.10.0	5_exp_RW	3	Rpleas_acq	CS_B	MQQM	GWWG	BZZB	JXXJ	YDDY	VKKV	spielen	treu	fair	schön	retten	ehrlich	strafen	tot	faul	schlecht	rächen	eitel	1	acq_USpleas_CSpleas2_RW	acq1_RW	1	11	0	0	300	300	1140	50	0	1	1	blank2r.bmp	0	1	+	0	1	blank2r.bmp	492	1	GWWG	492	1	blank2r.bmp	572	2	retten	866	0	0	0	0	0	0	0	0	0	0	0	0	0	0	0	0	0	0	0	0	0	0	0	0	0	0	0	0	0	0	0	0	0	0	0	0
070319	10:23:13	10:25:27	131813	5.0.10.0	5_exp_RW	3	Rpleas_acq	CS_B	MQQM	GWWG	BZZB	JXXJ	YDDY	VKKV	spielen	treu	fair	schön	retten	ehrlich	strafen	tot	faul	schlecht	rächen	eitel	1	acq_USpleas_CSpleas1_RW	acq1_RW	1	12	0	0	300	300	673	50	0	1	1	blank2r.bmp	0	1	+	0	1	blank2r.bmp	492	1	MQQM	492	1	blank2r.bmp	572	2	treu	866	0	0	0	0	0	0	0	0	0	0	0	0	0	0	0	0	0	0	0	0	0	0	0	0	0	0	0	0	0	0	0	0	0	0	0	0
070319	10:23:13	10:25:29	134305	5.0.10.0	5_exp_RW	3	Rpleas_acq	CS_B	MQQM	GWWG	BZZB	JXXJ	YDDY	VKKV	spielen	treu	fair	schön	retten	ehrlich	strafen	tot	faul	schlecht	rächen	eitel	1	acq_USunple_CSunple2_RW	acq1_RW	1	13	0	0	300	300	1020	46	0	1	1	blank2r.bmp	0	1	+	0	1	blank2r.bmp	492	1	JXXJ	492	1	blank2r.bmp	572	3	eitel	866	0	0	0	0	0	0	0	0	0	0	0	0	0	0	0	0	0	0	0	0	0	0	0	0	0	0	0	0	0	0	0	0	0	0	0	0
070319	10:23:13	10:25:31	136477	5.0.10.0	5_exp_RW	3	Rpleas_acq	CS_B	MQQM	GWWG	BZZB	JXXJ	YDDY	VKKV	spielen	treu	fair	schön	retten	ehrlich	strafen	tot	faul	schlecht	rächen	eitel	1	acq_USpleas_CSpleas2_RW	acq1_RW	1	14	0	0	300	300	692	50	0	1	1	blank2r.bmp	0	1	+	0	1	blank2r.bmp	492	1	GWWG	492	1	blank2r.bmp	572	1	schön	866	0	0	0	0	0	0	0	0	0	0	0	0	0	0	0	0	0	0	0	0	0	0	0	0	0	0	0	0	0	0	0	0	0	0	0	0
070319	10:23:13	10:25:33	138730	5.0.10.0	5_exp_RW	3	Rpleas_acq	CS_B	MQQM	GWWG	BZZB	JXXJ	YDDY	VKKV	spielen	treu	fair	schön	retten	ehrlich	strafen	tot	faul	schlecht	rächen	eitel	1	acq_USunple_CSunple1_RW	acq1_RW	1	15	0	0	300	300	775	46	0	1	1	blank2r.bmp	0	1	+	0	1	blank2r.bmp	492	1	BZZB	492	1	blank2r.bmp	572	2	tot	866	0	0	0	0	0	0	0	0	0	0	0	0	0	0	0	0	0	0	0	0	0	0	0	0	0	0	0	0	0	0	0	0	0	0	0	0
070319	10:23:13	10:25:36	140889	5.0.10.0	5_exp_RW	3	Rpleas_acq	CS_B	MQQM	GWWG	BZZB	JXXJ	YDDY	VKKV	spielen	treu	fair	schön	retten	ehrlich	strafen	tot	faul	schlecht	rächen	eitel	1	acq_USunple_CSunple2_RW	acq1_RW	1	16	0	0	300	300	666	46	0	1	1	blank2r.bmp	0	1	+	0	1	blank2r.bmp	492	1	JXXJ	492	1	blank2r.bmp	572	2	rächen	866	0	0	0	0	0	0	0	0	0	0	0	0	0	0	0	0	0	0	0	0	0	0	0	0	0	0	0	0	0	0	0	0	0	0	0	0
070319	10:23:13	10:26:12	177661	5.0.10.0	5_exp_RW	3	Rpleas_acq	CS_B	MQQM	GWWG	BZZB	JXXJ	YDDY	VKKV	spielen	treu	fair	schön	retten	ehrlich	strafen	tot	faul	schlecht	rächen	eitel	1	acq_USpleas_CSpleas2_RW	acq2_RW	2	1	480	0	300	300	801	50	0	1	1	blank2r.bmp	0	1	+	0	1	blank2r.bmp	492	1	GWWG	492	1	blank2r.bmp	572	3	ehrlich	866	1	!	1319	1	!	-1	0	0	0	0	0	0	0	0	0	0	0	0	0	0	0	0	0	0	0	0	0	0	0	0	0	0	0	0	0	0
070319	10:23:13	10:26:15	179940	5.0.10.0	5_exp_RW	3	Rpleas_acq	CS_B	MQQM	GWWG	BZZB	JXXJ	YDDY	VKKV	spielen	treu	fair	schön	retten	ehrlich	strafen	tot	faul	schlecht	rächen	eitel	1	acq_USunple_CSunple2_RW	acq2_RW	2	2	480	1	300	300	477	46	0	1	1	blank2r.bmp	0	1	+	0	1	blank2r.bmp	492	1	JXXJ	492	1	blank2r.bmp	572	3	eitel	866	1	!	1319	1	!	1372	0	0	0	0	0	0	0	0	0	0	0	0	0	0	0	0	0	0	0	0	0	0	0	0	0	0	0	0	0	0
070319	10:23:13	10:26:17	182405	5.0.10.0	5_exp_RW	3	Rpleas_acq	CS_B	MQQM	GWWG	BZZB	JXXJ	YDDY	VKKV	spielen	treu	fair	schön	retten	ehrlich	strafen	tot	faul	schlecht	rächen	eitel	1	acq_USunple_CSunple2_RW	acq2_RW	2	3	480	0	300	300	702	46	0	1	1	blank2r.bmp	0	1	+	0	1	blank2r.bmp	492	1	JXXJ	492	1	blank2r.bmp	572	1	schlecht	866	1	!	1319	1	!	-1	0	0	0	0	0	0	0	0	0	0	0	0	0	0	0	0	0	0	0	0	0	0	0	0	0	0	0	0	0	0
070319	10:23:13	10:26:19	184711	5.0.10.0	5_exp_RW	3	Rpleas_acq	CS_B	MQQM	GWWG	BZZB	JXXJ	YDDY	VKKV	spielen	treu	fair	schön	retten	ehrlich	strafen	tot	faul	schlecht	rächen	eitel	1	acq_USunple_CSunple1_RW	acq2_RW	2	4	480	0	300	300	291	50	0	0	1	blank2r.bmp	0	1	+	0	1	blank2r.bmp	492	1	BZZB	492	1	blank2r.bmp	572	3	faul	866	1	FEHLER	1506	1	!	-1	1	!	-1	0	0	0	0	0	0	0	0	0	0	0	0	0	0	0	0	0	0	0	0	0	0	0	0	0	0	0
070319	10:23:13	10:26:22	187337	5.0.10.0	5_exp_RW	3	Rpleas_acq	CS_B	MQQM	GWWG	BZZB	JXXJ	YDDY	VKKV	spielen	treu	fair	schön	retten	ehrlich	strafen	tot	faul	schlecht	rächen	eitel	1	acq_USpleas_CSpleas2_RW	acq2_RW	2	5	480	0	300	300	1064	50	0	1	1	blank2r.bmp	0	1	+	0	1	blank2r.bmp	492	1	GWWG	492	1	blank2r.bmp	572	2	retten	866	1	!	1319	1	!	-1	0	0	0	0	0	0	0	0	0	0	0	0	0	0	0	0	0	0	0	0	0	0	0	0	0	0	0	0	0	0
070319	10:23:13	10:26:24	189682	5.0.10.0	5_exp_RW	3	Rpleas_acq	CS_B	MQQM	GWWG	BZZB	JXXJ	YDDY	VKKV	spielen	treu	fair	schön	retten	ehrlich	strafen	tot	faul	schlecht	rächen	eitel	1	acq_USpleas_CSpleas2_RW	acq2_RW	2	6	480	0	300	300	571	50	0	1	1	blank2r.bmp	0	1	+	0	1	blank2r.bmp	492	1	GWWG	492	1	blank2r.bmp	572	1	schön	866	1	!	1319	1	!	-1	0	0	0	0	0	0	0	0	0	0	0	0	0	0	0	0	0	0	0	0	0	0	0	0	0	0	0	0	0	0
070319	10:23:13	10:26:27	191855	5.0.10.0	5_exp_RW	3	Rpleas_acq	CS_B	MQQM	GWWG	BZZB	JXXJ	YDDY	VKKV	spielen	treu	fair	schön	retten	ehrlich	strafen	tot	faul	schlecht	rächen	eitel	1	acq_USunple_CSunple1_RW	acq2_RW	2	7	480	0	300	300	395	46	0	1	1	blank2r.bmp	0	1	+	0	1	blank2r.bmp	492	1	BZZB	492	1	blank2r.bmp	572	1	strafen	866	1	!	-1	1	!	-1	0	0	0	0	0	0	0	0	0	0	0	0	0	0	0	0	0	0	0	0	0	0	0	0	0	0	0	0	0	0
070319	10:23:13	10:26:29	194374	5.0.10.0	5_exp_RW	3	Rpleas_acq	CS_B	MQQM	GWWG	BZZB	JXXJ	YDDY	VKKV	spielen	treu	fair	schön	retten	ehrlich	strafen	tot	faul	schlecht	rächen	eitel	1	acq_USunple_CSunple1_RW	acq2_RW	2	8	480	0	300	300	743	46	0	1	1	blank2r.bmp	0	1	+	0	1	blank2r.bmp	492	1	BZZB	492	1	blank2r.bmp	572	3	faul	866	1	!	1319	1	!	-1	0	0	0	0	0	0	0	0	0	0	0	0	0	0	0	0	0	0	0	0	0	0	0	0	0	0	0	0	0	0
070319	10:23:13	10:26:32	196893	5.0.10.0	5_exp_RW	3	Rpleas_acq	CS_B	MQQM	GWWG	BZZB	JXXJ	YDDY	VKKV	spielen	treu	fair	schön	retten	ehrlich	strafen	tot	faul	schlecht	rächen	eitel	1	acq_USunple_CSunple1_RW	acq2_RW	2	9	480	0	300	300	737	46	0	1	1	blank2r.bmp	0	1	+	0	1	blank2r.bmp	492	1	BZZB	492	1	blank2r.bmp	572	2	tot	866	1	!	1319	1	!	-1	0	0	0	0	0	0	0	0	0	0	0	0	0	0	0	0	0	0	0	0	0	0	0	0	0	0	0	0	0	0
070319	10:23:13	10:26:34	199265	5.0.10.0	5_exp_RW	3	Rpleas_acq	CS_B	MQQM	GWWG	BZZB	JXXJ	YDDY	VKKV	spielen	treu	fair	schön	retten	ehrlich	strafen	tot	faul	schlecht	rächen	eitel	1	acq_USpleas_CSpleas1_RW	acq2_RW	2	10	480	0	300	300	351	46	0	0	1	blank2r.bmp	0	1	+	0	1	blank2r.bmp	492	1	MQQM	492	1	blank2r.bmp	572	3	fair	866	1	FEHLER	1559	1	!	-1	1	!	-1	0	0	0	0	0	0	0	0	0	0	0	0	0	0	0	0	0	0	0	0	0	0	0	0	0	0	0
070319	10:23:13	10:26:36	201598	5.0.10.0	5_exp_RW	3	Rpleas_acq	CS_B	MQQM	GWWG	BZZB	JXXJ	YDDY	VKKV	spielen	treu	fair	schön	retten	ehrlich	strafen	tot	faul	schlecht	rächen	eitel	1	acq_USpleas_CSpleas2_RW	acq2_RW	2	11	480	0	300	300	776	50	0	1	1	blank2r.bmp	0	1	+	0	1	blank2r.bmp	492	1	GWWG	492	1	blank2r.bmp	572	3	ehrlich	866	1	!	1319	1	!	-1	0	0	0	0	0	0	0	0	0	0	0	0	0	0	0	0	0	0	0	0	0	0	0	0	0	0	0	0	0	0
070319	10:23:13	10:26:39	203850	5.0.10.0	5_exp_RW	3	Rpleas_acq	CS_B	MQQM	GWWG	BZZB	JXXJ	YDDY	VKKV	spielen	treu	fair	schön	retten	ehrlich	strafen	tot	faul	schlecht	rächen	eitel	1	acq_USpleas_CSpleas2_RW	acq2_RW	2	12	480	1	300	300	443	50	0	1	1	blank2r.bmp	0	1	+	0	1	blank2r.bmp	492	1	GWWG	492	1	blank2r.bmp	572	2	retten	866	1	!	1319	1	!	1346	0	0	0	0	0	0	0	0	0	0	0	0	0	0	0	0	0	0	0	0	0	0	0	0	0	0	0	0	0	0
070319	10:23:13	10:26:41	206489	5.0.10.0	5_exp_RW	3	Rpleas_acq	CS_B	MQQM	GWWG	BZZB	JXXJ	YDDY	VKKV	spielen	treu	fair	schön	retten	ehrlich	strafen	tot	faul	schlecht	rächen	eitel	1	acq_USunple_CSunple2_RW	acq2_RW	2	13	480	0	300	300	865	46	0	1	1	blank2r.bmp	0	1	+	0	1	blank2r.bmp	492	1	JXXJ	492	1	blank2r.bmp	572	2	rächen	866	1	!	1319	1	!	-1	0	0	0	0	0	0	0	0	0	0	0	0	0	0	0	0	0	0	0	0	0	0	0	0	0	0	0	0	0	0
070319	10:23:13	10:26:44	208875	5.0.10.0	5_exp_RW	3	Rpleas_acq	CS_B	MQQM	GWWG	BZZB	JXXJ	YDDY	VKKV	spielen	treu	fair	schön	retten	ehrlich	strafen	tot	faul	schlecht	rächen	eitel	1	acq_USpleas_CSpleas1_RW	acq2_RW	2	14	480	0	300	300	603	50	0	1	1	blank2r.bmp	0	1	+	0	1	blank2r.bmp	492	1	MQQM	492	1	blank2r.bmp	572	1	spielen	866	1	!	1319	1	!	-1	0	0	0	0	0	0	0	0	0	0	0	0	0	0	0	0	0	0	0	0	0	0	0	0	0	0	0	0	0	0
070319	10:23:13	10:26:46	211300	5.0.10.0	5_exp_RW	3	Rpleas_acq	CS_B	MQQM	GWWG	BZZB	JXXJ	YDDY	VKKV	spielen	treu	fair	schön	retten	ehrlich	strafen	tot	faul	schlecht	rächen	eitel	1	acq_USpleas_CSpleas1_RW	acq2_RW	2	15	480	0	300	300	641	50	0	1	1	blank2r.bmp	0	1	+	0	1	blank2r.bmp	492	1	MQQM	492	1	blank2r.bmp	572	3	fair	866	1	!	1319	1	!	-1	0	0	0	0	0	0	0	0	0	0	0	0	0	0	0	0	0	0	0	0	0	0	0	0	0	0	0	0	0	0
070319	10:23:13	10:26:49	213753	5.0.10.0	5_exp_RW	3	Rpleas_acq	CS_B	MQQM	GWWG	BZZB	JXXJ	YDDY	VKKV	spielen	treu	fair	schön	retten	ehrlich	strafen	tot	faul	schlecht	rächen	eitel	1	acq_USpleas_CSpleas1_RW	acq2_RW	2	16	480	0	300	300	666	50	0	1	1	blank2r.bmp	0	1	+	0	1	blank2r.bmp	492	1	MQQM	492	1	blank2r.bmp	572	2	treu	866	1	!	1319	1	!	-1	0	0	0	0	0	0	0	0	0	0	0	0	0	0	0	0	0	0	0	0	0	0	0	0	0	0	0	0	0	0
070319	10:23:13	10:26:51	216072	5.0.10.0	5_exp_RW	3	Rpleas_acq	CS_B	MQQM	GWWG	BZZB	JXXJ	YDDY	VKKV	spielen	treu	fair	schön	retten	ehrlich	strafen	tot	faul	schlecht	rächen	eitel	1	acq_USunple_CSunple2_RW	acq2_RW	2	17	480	1	300	300	517	46	0	1	1	blank2r.bmp	0	1	+	0	1	blank2r.bmp	492	1	JXXJ	492	1	blank2r.bmp	572	3	eitel	866	1	!	1319	1	!	1412	0	0	0	0	0	0	0	0	0	0	0	0	0	0	0	0	0	0	0	0	0	0	0	0	0	0	0	0	0	0
070319	10:23:13	10:26:53	218511	5.0.10.0	5_exp_RW	3	Rpleas_acq	CS_B	MQQM	GWWG	BZZB	JXXJ	YDDY	VKKV	spielen	treu	fair	schön	retten	ehrlich	strafen	tot	faul	schlecht	rächen	eitel	1	acq_USunple_CSunple1_RW	acq2_RW	2	18	480	0	300	300	677	46	0	1	1	blank2r.bmp	0	1	+	0	1	blank2r.bmp	492	1	BZZB	492	1	blank2r.bmp	572	1	strafen	866	1	!	1319	1	!	-1	0	0	0	0	0	0	0	0	0	0	0	0	0	0	0	0	0	0	0	0	0	0	0	0	0	0	0	0	0	0
070319	10:23:13	10:26:56	221123	5.0.10.0	5_exp_RW	3	Rpleas_acq	CS_B	MQQM	GWWG	BZZB	JXXJ	YDDY	VKKV	spielen	treu	fair	schön	retten	ehrlich	strafen	tot	faul	schlecht	rächen	eitel	1	acq_USunple_CSunple2_RW	acq2_RW	2	19	480	0	300	300	605	50	0	0	1	blank2r.bmp	0	1	+	0	1	blank2r.bmp	492	1	JXXJ	492	1	blank2r.bmp	572	1	schlecht	866	1	FEHLER	1812	1	!	1319	1	!	-1	0	0	0	0	0	0	0	0	0	0	0	0	0	0	0	0	0	0	0	0	0	0	0	0	0	0	0
070319	10:23:13	10:26:58	223242	5.0.10.0	5_exp_RW	3	Rpleas_acq	CS_B	MQQM	GWWG	BZZB	JXXJ	YDDY	VKKV	spielen	treu	fair	schön	retten	ehrlich	strafen	tot	faul	schlecht	rächen	eitel	1	acq_USpleas_CSpleas2_RW	acq2_RW	2	20	480	1	300	300	542	50	0	1	1	blank2r.bmp	0	1	+	0	1	blank2r.bmp	492	1	GWWG	492	1	blank2r.bmp	572	1	schön	866	1	!	1319	1	!	1439	0	0	0	0	0	0	0	0	0	0	0	0	0	0	0	0	0	0	0	0	0	0	0	0	0	0	0	0	0	0
070319	10:23:13	10:27:01	225748	5.0.10.0	5_exp_RW	3	Rpleas_acq	CS_B	MQQM	GWWG	BZZB	JXXJ	YDDY	VKKV	spielen	treu	fair	schön	retten	ehrlich	strafen	tot	faul	schlecht	rächen	eitel	1	acq_USunple_CSunple2_RW	acq2_RW	2	21	480	0	300	300	734	46	0	1	1	blank2r.bmp	0	1	+	0	1	blank2r.bmp	492	1	JXXJ	492	1	blank2r.bmp	572	1	schlecht	866	1	!	1319	1	!	-1	0	0	0	0	0	0	0	0	0	0	0	0	0	0	0	0	0	0	0	0	0	0	0	0	0	0	0	0	0	0
070319	10:23:13	10:27:03	228174	5.0.10.0	5_exp_RW	3	Rpleas_acq	CS_B	MQQM	GWWG	BZZB	JXXJ	YDDY	VKKV	spielen	treu	fair	schön	retten	ehrlich	strafen	tot	faul	schlecht	rächen	eitel	1	acq_USunple_CSunple1_RW	acq2_RW	2	22	480	0	300	300	649	46	0	1	1	blank2r.bmp	0	1	+	0	1	blank2r.bmp	492	1	BZZB	492	1	blank2r.bmp	572	1	strafen	866	1	!	1319	1	!	-1	0	0	0	0	0	0	0	0	0	0	0	0	0	0	0	0	0	0	0	0	0	0	0	0	0	0	0	0	0	0
070319	10:23:13	10:27:05	230546	5.0.10.0	5_exp_RW	3	Rpleas_acq	CS_B	MQQM	GWWG	BZZB	JXXJ	YDDY	VKKV	spielen	treu	fair	schön	retten	ehrlich	strafen	tot	faul	schlecht	rächen	eitel	1	acq_USpleas_CSpleas1_RW	acq2_RW	2	23	480	0	300	300	588	50	0	1	1	blank2r.bmp	0	1	+	0	1	blank2r.bmp	492	1	MQQM	492	1	blank2r.bmp	572	1	spielen	866	1	!	1319	1	!	-1	0	0	0	0	0	0	0	0	0	0	0	0	0	0	0	0	0	0	0	0	0	0	0	0	0	0	0	0	0	0
070319	10:23:13	10:27:08	232945	5.0.10.0	5_exp_RW	3	Rpleas_acq	CS_B	MQQM	GWWG	BZZB	JXXJ	YDDY	VKKV	spielen	treu	fair	schön	retten	ehrlich	strafen	tot	faul	schlecht	rächen	eitel	1	acq_USpleas_CSpleas1_RW	acq2_RW	2	24	480	0	300	300	620	50	0	1	1	blank2r.bmp	0	1	+	0	1	blank2r.bmp	492	1	MQQM	492	1	blank2r.bmp	572	3	fair	866	1	!	1319	1	!	-1	0	0	0	0	0	0	0	0	0	0	0	0	0	0	0	0	0	0	0	0	0	0	0	0	0	0	0	0	0	0
070319	10:23:13	10:27:26	251724	5.0.10.0	5_exp_RW	3	Rpleas_acq	CS_B	MQQM	GWWG	BZZB	JXXJ	YDDY	VKKV	spielen	treu	fair	schön	retten	ehrlich	strafen	tot	faul	schlecht	rächen	eitel	1	acq_USunple_CSunple1_RW	acq3_RW	3	1	453	0	300	300	639	46	0	1	1	blank2r.bmp	0	1	+	0	1	blank2r.bmp	492	1	BZZB	492	1	blank2r.bmp	572	2	tot	866	1	!	1292	1	!	-1	0	0	0	0	0	0	0	0	0	0	0	0	0	0	0	0	0	0	0	0	0	0	0	0	0	0	0	0	0	0
070319	10:23:13	10:27:29	254083	5.0.10.0	5_exp_RW	3	Rpleas_acq	CS_B	MQQM	GWWG	BZZB	JXXJ	YDDY	VKKV	spielen	treu	fair	schön	retten	ehrlich	strafen	tot	faul	schlecht	rächen	eitel	1	acq_USpleas_CSpleas1_RW	acq3_RW	3	2	453	0	300	300	565	50	0	1	1	blank2r.bmp	0	1	+	0	1	blank2r.bmp	492	1	MQQM	492	1	blank2r.bmp	572	1	spielen	866	1	!	1292	1	!	-1	0	0	0	0	0	0	0	0	0	0	0	0	0	0	0	0	0	0	0	0	0	0	0	0	0	0	0	0	0	0
070319	10:23:13	10:27:31	256509	5.0.10.0	5_exp_RW	3	Rpleas_acq	CS_B	MQQM	GWWG	BZZB	JXXJ	YDDY	VKKV	spielen	treu	fair	schön	retten	ehrlich	strafen	tot	faul	schlecht	rächen	eitel	1	acq_USpleas_CSpleas1_RW	acq3_RW	3	3	453	1	300	300	411	46	0	0	1	blank2r.bmp	0	1	+	0	1	blank2r.bmp	492	1	MQQM	492	1	blank2r.bmp	572	2	treu	866	1	FEHLER	1626	1	!	1292	1	!	1306	0	0	0	0	0	0	0	0	0	0	0	0	0	0	0	0	0	0	0	0	0	0	0	0	0	0	0
070319	10:23:13	10:27:33	258655	5.0.10.0	5_exp_RW	3	Rpleas_acq	CS_B	MQQM	GWWG	BZZB	JXXJ	YDDY	VKKV	spielen	treu	fair	schön	retten	ehrlich	strafen	tot	faul	schlecht	rächen	eitel	1	acq_USunple_CSunple2_RW	acq3_RW	3	4	453	0	300	300	362	50	0	0	1	blank2r.bmp	0	1	+	0	1	blank2r.bmp	492	1	JXXJ	492	1	blank2r.bmp	572	2	rächen	866	1	FEHLER	1572	1	!	-1	1	!	-1	0	0	0	0	0	0	0	0	0	0	0	0	0	0	0	0	0	0	0	0	0	0	0	0	0	0	0
070319	10:23:13	10:27:36	260840	5.0.10.0	5_exp_RW	3	Rpleas_acq	CS_B	MQQM	GWWG	BZZB	JXXJ	YDDY	VKKV	spielen	treu	fair	schön	retten	ehrlich	strafen	tot	faul	schlecht	rächen	eitel	1	acq_USpleas_CSpleas2_RW	acq3_RW	3	5	453	0	300	300	629	50	0	1	1	blank2r.bmp	0	1	+	0	1	blank2r.bmp	492	1	GWWG	492	1	blank2r.bmp	572	3	ehrlich	866	1	!	1292	1	!	-1	0	0	0	0	0	0	0	0	0	0	0	0	0	0	0	0	0	0	0	0	0	0	0	0	0	0	0	0	0	0
070319	10:23:13	10:27:38	263066	5.0.10.0	5_exp_RW	3	Rpleas_acq	CS_B	MQQM	GWWG	BZZB	JXXJ	YDDY	VKKV	spielen	treu	fair	schön	retten	ehrlich	strafen	tot	faul	schlecht	rächen	eitel	1	acq_USunple_CSunple1_RW	acq3_RW	3	6	453	1	300	300	421	46	0	1	1	blank2r.bmp	0	1	+	0	1	blank2r.bmp	492	1	BZZB	492	1	blank2r.bmp	572	3	faul	866	1	!	1292	1	!	1319	0	0	0	0	0	0	0	0	0	0	0	0	0	0	0	0	0	0	0	0	0	0	0	0	0	0	0	0	0	0
070319	10:23:13	10:27:40	265372	5.0.10.0	5_exp_RW	3	Rpleas_acq	CS_B	MQQM	GWWG	BZZB	JXXJ	YDDY	VKKV	spielen	treu	fair	schön	retten	ehrlich	strafen	tot	faul	schlecht	rächen	eitel	1	acq_USunple_CSunple2_RW	acq3_RW	3	7	453	0	300	300	537	46	0	1	1	blank2r.bmp	0	1	+	0	1	blank2r.bmp	492	1	JXXJ	492	1	blank2r.bmp	572	3	eitel	866	1	!	1292	1	!	-1	0	0	0	0	0	0	0	0	0	0	0	0	0	0	0	0	0	0	0	0	0	0	0	0	0	0	0	0	0	0
070319	10:23:13	10:27:42	267584	5.0.10.0	5_exp_RW	3	Rpleas_acq	CS_B	MQQM	GWWG	BZZB	JXXJ	YDDY	VKKV	spielen	treu	fair	schön	retten	ehrlich	strafen	tot	faul	schlecht	rächen	eitel	1	acq_USpleas_CSpleas1_RW	acq3_RW	3	8	453	1	300	300	399	50	0	1	1	blank2r.bmp	0	1	+	0	1	blank2r.bmp	492	1	MQQM	492	1	blank2r.bmp	572	2	treu	866	1	!	1292	1	!	1306	0	0	0	0	0	0	0	0	0	0	0	0	0	0	0	0	0	0	0	0	0	0	0	0	0	0	0	0	0	0
070319	10:23:13	10:27:45	269930	5.0.10.0	5_exp_RW	3	Rpleas_acq	CS_B	MQQM	GWWG	BZZB	JXXJ	YDDY	VKKV	spielen	treu	fair	schön	retten	ehrlich	strafen	tot	faul	schlecht	rächen	eitel	1	acq_USpleas_CSpleas1_RW	acq3_RW	3	9	453	0	300	300	582	50	0	1	1	blank2r.bmp	0	1	+	0	1	blank2r.bmp	492	1	MQQM	492	1	blank2r.bmp	572	3	fair	866	1	!	1292	1	!	-1	0	0	0	0	0	0	0	0	0	0	0	0	0	0	0	0	0	0	0	0	0	0	0	0	0	0	0	0	0	0
070319	10:23:13	10:27:47	272182	5.0.10.0	5_exp_RW	3	Rpleas_acq	CS_B	MQQM	GWWG	BZZB	JXXJ	YDDY	VKKV	spielen	treu	fair	schön	retten	ehrlich	strafen	tot	faul	schlecht	rächen	eitel	1	acq_USunple_CSunple2_RW	acq3_RW	3	10	453	1	300	300	436	46	0	1	1	blank2r.bmp	0	1	+	0	1	blank2r.bmp	492	1	JXXJ	492	1	blank2r.bmp	572	3	eitel	866	1	!	1292	1	!	1332	0	0	0	0	0	0	0	0	0	0	0	0	0	0	0	0	0	0	0	0	0	0	0	0	0	0	0	0	0	0
070319	10:23:13	10:27:49	274621	5.0.10.0	5_exp_RW	3	Rpleas_acq	CS_B	MQQM	GWWG	BZZB	JXXJ	YDDY	VKKV	spielen	treu	fair	schön	retten	ehrlich	strafen	tot	faul	schlecht	rächen	eitel	1	acq_USpleas_CSpleas2_RW	acq3_RW	3	11	453	1	300	300	435	46	0	0	1	blank2r.bmp	0	1	+	0	1	blank2r.bmp	492	1	GWWG	492	1	blank2r.bmp	572	2	retten	866	1	FEHLER	1652	1	!	1292	1	!	1332	0	0	0	0	0	0	0	0	0	0	0	0	0	0	0	0	0	0	0	0	0	0	0	0	0	0	0
070319	10:23:13	10:27:52	276927	5.0.10.0	5_exp_RW	3	Rpleas_acq	CS_B	MQQM	GWWG	BZZB	JXXJ	YDDY	VKKV	spielen	treu	fair	schön	retten	ehrlich	strafen	tot	faul	schlecht	rächen	eitel	1	acq_USunple_CSunple1_RW	acq3_RW	3	12	453	1	300	300	506	50	0	0	1	blank2r.bmp	0	1	+	0	1	blank2r.bmp	492	1	BZZB	492	1	blank2r.bmp	572	3	faul	866	1	FEHLER	1732	1	!	1292	1	!	1412	0	0	0	0	0	0	0	0	0	0	0	0	0	0	0	0	0	0	0	0	0	0	0	0	0	0	0
070319	10:23:13	10:27:56	281685	5.0.10.0	5_exp_RW	3	Rpleas_acq	CS_B	MQQM	GWWG	BZZB	JXXJ	YDDY	VKKV	spielen	treu	fair	schön	retten	ehrlich	strafen	tot	faul	schlecht	rächen	eitel	1	acq_USunple_CSunple1_RW	acq3_RW	3	13	453	0	300	300	3188	46	0	1	1	blank2r.bmp	0	1	+	0	1	blank2r.bmp	492	1	BZZB	492	1	blank2r.bmp	572	1	strafen	866	1	!	1292	1	!	-1	0	0	0	0	0	0	0	0	0	0	0	0	0	0	0	0	0	0	0	0	0	0	0	0	0	0	0	0	0	0
070319	10:23:13	10:27:59	284018	5.0.10.0	5_exp_RW	3	Rpleas_acq	CS_B	MQQM	GWWG	BZZB	JXXJ	YDDY	VKKV	spielen	treu	fair	schön	retten	ehrlich	strafen	tot	faul	schlecht	rächen	eitel	1	acq_USunple_CSunple2_RW	acq3_RW	3	14	453	0	300	300	546	46	0	1	1	blank2r.bmp	0	1	+	0	1	blank2r.bmp	492	1	JXXJ	492	1	blank2r.bmp	572	2	rächen	866	1	!	1292	1	!	-1	0	0	0	0	0	0	0	0	0	0	0	0	0	0	0	0	0	0	0	0	0	0	0	0	0	0	0	0	0	0
070319	10:23:13	10:28:01	286363	5.0.10.0	5_exp_RW	3	Rpleas_acq	CS_B	MQQM	GWWG	BZZB	JXXJ	YDDY	VKKV	spielen	treu	fair	schön	retten	ehrlich	strafen	tot	faul	schlecht	rächen	eitel	1	acq_USpleas_CSpleas1_RW	acq3_RW	3	15	453	1	300	300	518	50	0	1	1	blank2r.bmp	0	1	+	0	1	blank2r.bmp	492	1	MQQM	492	1	blank2r.bmp	572	1	spielen	866	1	!	1292	1	!	1426	0	0	0	0	0	0	0	0	0	0	0	0	0	0	0	0	0	0	0	0	0	0	0	0	0	0	0	0	0	0
070319	10:23:13	10:28:04	288789	5.0.10.0	5_exp_RW	3	Rpleas_acq	CS_B	MQQM	GWWG	BZZB	JXXJ	YDDY	VKKV	spielen	treu	fair	schön	retten	ehrlich	strafen	tot	faul	schlecht	rächen	eitel	1	acq_USunple_CSunple2_RW	acq3_RW	3	16	453	0	300	300	656	46	0	1	1	blank2r.bmp	0	1	+	0	1	blank2r.bmp	492	1	JXXJ	492	1	blank2r.bmp	572	1	schlecht	866	1	!	1292	1	!	-1	0	0	0	0	0	0	0	0	0	0	0	0	0	0	0	0	0	0	0	0	0	0	0	0	0	0	0	0	0	0
070319	10:23:13	10:28:06	291041	5.0.10.0	5_exp_RW	3	Rpleas_acq	CS_B	MQQM	GWWG	BZZB	JXXJ	YDDY	VKKV	spielen	treu	fair	schön	retten	ehrlich	strafen	tot	faul	schlecht	rächen	eitel	1	acq_USunple_CSunple1_RW	acq3_RW	3	17	453	1	300	300	435	46	0	1	1	blank2r.bmp	0	1	+	0	1	blank2r.bmp	492	1	BZZB	492	1	blank2r.bmp	572	2	tot	866	1	!	1292	1	!	1332	0	0	0	0	0	0	0	0	0	0	0	0	0	0	0	0	0	0	0	0	0	0	0	0	0	0	0	0	0	0
070319	10:23:13	10:28:08	293360	5.0.10.0	5_exp_RW	3	Rpleas_acq	CS_B	MQQM	GWWG	BZZB	JXXJ	YDDY	VKKV	spielen	treu	fair	schön	retten	ehrlich	strafen	tot	faul	schlecht	rächen	eitel	1	acq_USunple_CSunple1_RW	acq3_RW	3	18	453	1	300	300	519	46	0	1	1	blank2r.bmp	0	1	+	0	1	blank2r.bmp	492	1	BZZB	492	1	blank2r.bmp	572	3	faul	866	1	!	1292	1	!	1426	0	0	0	0	0	0	0	0	0	0	0	0	0	0	0	0	0	0	0	0	0	0	0	0	0	0	0	0	0	0
070319	10:23:13	10:28:11	295893	5.0.10.0	5_exp_RW	3	Rpleas_acq	CS_B	MQQM	GWWG	BZZB	JXXJ	YDDY	VKKV	spielen	treu	fair	schön	retten	ehrlich	strafen	tot	faul	schlecht	rächen	eitel	1	acq_USpleas_CSpleas2_RW	acq3_RW	3	19	453	0	300	300	536	46	0	0	1	blank2r.bmp	0	1	+	0	1	blank2r.bmp	492	1	GWWG	492	1	blank2r.bmp	572	2	retten	866	1	FEHLER	1745	1	!	1292	1	!	-1	0	0	0	0	0	0	0	0	0	0	0	0	0	0	0	0	0	0	0	0	0	0	0	0	0	0	0
070319	10:23:13	10:28:13	298052	5.0.10.0	5_exp_RW	3	Rpleas_acq	CS_B	MQQM	GWWG	BZZB	JXXJ	YDDY	VKKV	spielen	treu	fair	schön	retten	ehrlich	strafen	tot	faul	schlecht	rächen	eitel	1	acq_USpleas_CSpleas1_RW	acq3_RW	3	20	453	0	300	300	610	50	0	1	1	blank2r.bmp	0	1	+	0	1	blank2r.bmp	492	1	MQQM	492	1	blank2r.bmp	572	3	fair	866	1	!	1292	1	!	-1	0	0	0	0	0	0	0	0	0	0	0	0	0	0	0	0	0	0	0	0	0	0	0	0	0	0	0	0	0	0
070319	10:23:13	10:28:15	300198	5.0.10.0	5_exp_RW	3	Rpleas_acq	CS_B	MQQM	GWWG	BZZB	JXXJ	YDDY	VKKV	spielen	treu	fair	schön	retten	ehrlich	strafen	tot	faul	schlecht	rächen	eitel	1	acq_USpleas_CSpleas2_RW	acq3_RW	3	21	453	0	300	300	361	50	0	1	1	blank2r.bmp	0	1	+	0	1	blank2r.bmp	492	1	GWWG	492	1	blank2r.bmp	572	1	schön	866	1	!	-1	1	!	-1	0	0	0	0	0	0	0	0	0	0	0	0	0	0	0	0	0	0	0	0	0	0	0	0	0	0	0	0	0	0
070319	10:23:13	10:28:17	302703	5.0.10.0	5_exp_RW	3	Rpleas_acq	CS_B	MQQM	GWWG	BZZB	JXXJ	YDDY	VKKV	spielen	treu	fair	schön	retten	ehrlich	strafen	tot	faul	schlecht	rächen	eitel	1	acq_USpleas_CSpleas2_RW	acq3_RW	3	22	453	1	300	300	479	46	0	0	1	blank2r.bmp	0	1	+	0	1	blank2r.bmp	492	1	GWWG	492	1	blank2r.bmp	572	3	ehrlich	866	1	FEHLER	1705	1	!	1292	1	!	1386	0	0	0	0	0	0	0	0	0	0	0	0	0	0	0	0	0	0	0	0	0	0	0	0	0	0	0
070319	10:23:13	10:28:20	304809	5.0.10.0	5_exp_RW	3	Rpleas_acq	CS_B	MQQM	GWWG	BZZB	JXXJ	YDDY	VKKV	spielen	treu	fair	schön	retten	ehrlich	strafen	tot	faul	schlecht	rächen	eitel	1	acq_USpleas_CSpleas2_RW	acq3_RW	3	23	453	0	300	300	557	50	0	1	1	blank2r.bmp	0	1	+	0	1	blank2r.bmp	492	1	GWWG	492	1	blank2r.bmp	572	2	retten	866	1	!	1292	1	!	-1	0	0	0	0	0	0	0	0	0	0	0	0	0	0	0	0	0	0	0	0	0	0	0	0	0	0	0	0	0	0
070319	10:23:13	10:28:22	307168	5.0.10.0	5_exp_RW	3	Rpleas_acq	CS_B	MQQM	GWWG	BZZB	JXXJ	YDDY	VKKV	spielen	treu	fair	schön	retten	ehrlich	strafen	tot	faul	schlecht	rächen	eitel	1	acq_USunple_CSunple2_RW	acq3_RW	3	24	453	0	300	300	577	46	0	1	1	blank2r.bmp	0	1	+	0	1	blank2r.bmp	492	1	JXXJ	492	1	blank2r.bmp	572	1	schlecht	866	1	!	1292	1	!	-1	0	0	0	0	0	0	0	0	0	0	0	0	0	0	0	0	0	0	0	0	0	0	0	0	0	0	0	0	0	0
070319	10:23:13	10:28:38	323588	5.0.10.0	5_exp_RW	3	Rpleas_acq	CS_B	MQQM	GWWG	BZZB	JXXJ	YDDY	VKKV	spielen	treu	fair	schön	retten	ehrlich	strafen	tot	faul	schlecht	rächen	eitel	1	acq_USpleas_CSpleas2_RW	acq4567_RW	4	1	400	0	300	300	590	50	0	1	1	blank2r.bmp	0	1	+	0	1	blank2r.bmp	492	1	GWWG	492	1	blank2r.bmp	572	3	ehrlich	866	1	!	1239	1	!	-1	0	0	0	0	0	0	0	0	0	0	0	0	0	0	0	0	0	0	0	0	0	0	0	0	0	0	0	0	0	0
070319	10:23:13	10:28:41	325854	5.0.10.0	5_exp_RW	3	Rpleas_acq	CS_B	MQQM	GWWG	BZZB	JXXJ	YDDY	VKKV	spielen	treu	fair	schön	retten	ehrlich	strafen	tot	faul	schlecht	rächen	eitel	1	acq_USpleas_CSpleas1_RW	acq4567_RW	4	2	400	1	300	300	461	50	0	1	1	blank2r.bmp	0	1	+	0	1	blank2r.bmp	492	1	MQQM	492	1	blank2r.bmp	572	2	treu	866	1	!	1239	1	!	1359	0	0	0	0	0	0	0	0	0	0	0	0	0	0	0	0	0	0	0	0	0	0	0	0	0	0	0	0	0	0
070319	10:23:13	10:28:43	328066	5.0.10.0	5_exp_RW	3	Rpleas_acq	CS_B	MQQM	GWWG	BZZB	JXXJ	YDDY	VKKV	spielen	treu	fair	schön	retten	ehrlich	strafen	tot	faul	schlecht	rächen	eitel	1	acq_USpleas_CSpleas2_RW	acq4567_RW	4	3	400	1	300	300	409	50	0	1	1	blank2r.bmp	0	1	+	0	1	blank2r.bmp	492	1	GWWG	492	1	blank2r.bmp	572	1	schön	866	1	!	1239	1	!	1306	0	0	0	0	0	0	0	0	0	0	0	0	0	0	0	0	0	0	0	0	0	0	0	0	0	0	0	0	0	0
070319	10:23:13	10:28:45	330452	5.0.10.0	5_exp_RW	3	Rpleas_acq	CS_B	MQQM	GWWG	BZZB	JXXJ	YDDY	VKKV	spielen	treu	fair	schön	retten	ehrlich	strafen	tot	faul	schlecht	rächen	eitel	1	acq_USunple_CSunple1_RW	acq4567_RW	4	4	400	0	300	300	624	46	0	1	1	blank2r.bmp	0	1	+	0	1	blank2r.bmp	492	1	BZZB	492	1	blank2r.bmp	572	1	strafen	866	1	!	1239	1	!	-1	0	0	0	0	0	0	0	0	0	0	0	0	0	0	0	0	0	0	0	0	0	0	0	0	0	0	0	0	0	0
070319	10:23:13	10:28:48	332744	5.0.10.0	5_exp_RW	3	Rpleas_acq	CS_B	MQQM	GWWG	BZZB	JXXJ	YDDY	VKKV	spielen	treu	fair	schön	retten	ehrlich	strafen	tot	faul	schlecht	rächen	eitel	1	acq_USunple_CSunple2_RW	acq4567_RW	4	5	400	0	300	300	506	46	0	1	1	blank2r.bmp	0	1	+	0	1	blank2r.bmp	492	1	JXXJ	492	1	blank2r.bmp	572	2	rächen	866	1	!	1239	1	!	-1	0	0	0	0	0	0	0	0	0	0	0	0	0	0	0	0	0	0	0	0	0	0	0	0	0	0	0	0	0	0
070319	10:23:13	10:28:50	334904	5.0.10.0	5_exp_RW	3	Rpleas_acq	CS_B	MQQM	GWWG	BZZB	JXXJ	YDDY	VKKV	spielen	treu	fair	schön	retten	ehrlich	strafen	tot	faul	schlecht	rächen	eitel	1	acq_USunple_CSunple2_RW	acq4567_RW	4	6	400	1	300	300	353	46	0	1	1	blank2r.bmp	0	1	+	0	1	blank2r.bmp	492	1	JXXJ	492	1	blank2r.bmp	572	3	eitel	866	1	!	1239	1	!	1252	0	0	0	0	0	0	0	0	0	0	0	0	0	0	0	0	0	0	0	0	0	0	0	0	0	0	0	0	0	0
070319	10:23:13	10:28:52	337156	5.0.10.0	5_exp_RW	3	Rpleas_acq	CS_B	MQQM	GWWG	BZZB	JXXJ	YDDY	VKKV	spielen	treu	fair	schön	retten	ehrlich	strafen	tot	faul	schlecht	rächen	eitel	1	acq_USunple_CSunple1_RW	acq4567_RW	4	7	400	1	300	300	456	46	0	1	1	blank2r.bmp	0	1	+	0	1	blank2r.bmp	492	1	BZZB	492	1	blank2r.bmp	572	2	tot	866	1	!	1239	1	!	1359	0	0	0	0	0	0	0	0	0	0	0	0	0	0	0	0	0	0	0	0	0	0	0	0	0	0	0	0	0	0
070319	10:23:13	10:28:54	339249	5.0.10.0	5_exp_RW	3	Rpleas_acq	CS_B	MQQM	GWWG	BZZB	JXXJ	YDDY	VKKV	spielen	treu	fair	schön	retten	ehrlich	strafen	tot	faul	schlecht	rächen	eitel	1	acq_USpleas_CSpleas1_RW	acq4567_RW	4	8	400	0	300	300	322	50	0	1	1	blank2r.bmp	0	1	+	0	1	blank2r.bmp	492	1	MQQM	492	1	blank2r.bmp	572	1	spielen	866	1	!	-1	1	!	-1	0	0	0	0	0	0	0	0	0	0	0	0	0	0	0	0	0	0	0	0	0	0	0	0	0	0	0	0	0	0
070319	10:23:13	10:28:56	341634	5.0.10.0	5_exp_RW	3	Rpleas_acq	CS_B	MQQM	GWWG	BZZB	JXXJ	YDDY	VKKV	spielen	treu	fair	schön	retten	ehrlich	strafen	tot	faul	schlecht	rächen	eitel	1	acq_USpleas_CSpleas2_RW	acq4567_RW	4	9	400	0	300	300	610	50	0	1	1	blank2r.bmp	0	1	+	0	1	blank2r.bmp	492	1	GWWG	492	1	blank2r.bmp	572	3	ehrlich	866	1	!	1239	1	!	-1	0	0	0	0	0	0	0	0	0	0	0	0	0	0	0	0	0	0	0	0	0	0	0	0	0	0	0	0	0	0
070319	10:23:13	10:28:58	343727	5.0.10.0	5_exp_RW	3	Rpleas_acq	CS_B	MQQM	GWWG	BZZB	JXXJ	YDDY	VKKV	spielen	treu	fair	schön	retten	ehrlich	strafen	tot	faul	schlecht	rächen	eitel	1	acq_USunple_CSunple1_RW	acq4567_RW	4	10	400	0	300	300	313	46	0	1	1	blank2r.bmp	0	1	+	0	1	blank2r.bmp	492	1	BZZB	492	1	blank2r.bmp	572	3	faul	866	1	!	-1	1	!	-1	0	0	0	0	0	0	0	0	0	0	0	0	0	0	0	0	0	0	0	0	0	0	0	0	0	0	0	0	0	0
070319	10:23:13	10:29:01	346072	5.0.10.0	5_exp_RW	3	Rpleas_acq	CS_B	MQQM	GWWG	BZZB	JXXJ	YDDY	VKKV	spielen	treu	fair	schön	retten	ehrlich	strafen	tot	faul	schlecht	rächen	eitel	1	acq_USunple_CSunple2_RW	acq4567_RW	4	11	400	0	300	300	571	46	0	1	1	blank2r.bmp	0	1	+	0	1	blank2r.bmp	492	1	JXXJ	492	1	blank2r.bmp	572	3	eitel	866	1	!	1239	1	!	-1	0	0	0	0	0	0	0	0	0	0	0	0	0	0	0	0	0	0	0	0	0	0	0	0	0	0	0	0	0	0
070319	10:23:13	10:29:03	348391	5.0.10.0	5_exp_RW	3	Rpleas_acq	CS_B	MQQM	GWWG	BZZB	JXXJ	YDDY	VKKV	spielen	treu	fair	schön	retten	ehrlich	strafen	tot	faul	schlecht	rächen	eitel	1	acq_USpleas_CSpleas1_RW	acq4567_RW	4	12	400	0	300	300	523	50	0	1	1	blank2r.bmp	0	1	+	0	1	blank2r.bmp	492	1	MQQM	492	1	blank2r.bmp	572	3	fair	866	1	!	1239	1	!	-1	0	0	0	0	0	0	0	0	0	0	0	0	0	0	0	0	0	0	0	0	0	0	0	0	0	0	0	0	0	0
070319	10:23:13	10:29:06	350751	5.0.10.0	5_exp_RW	3	Rpleas_acq	CS_B	MQQM	GWWG	BZZB	JXXJ	YDDY	VKKV	spielen	treu	fair	schön	retten	ehrlich	strafen	tot	faul	schlecht	rächen	eitel	1	acq_USunple_CSunple2_RW	acq4567_RW	4	13	400	0	300	300	581	46	0	1	1	blank2r.bmp	0	1	+	0	1	blank2r.bmp	492	1	JXXJ	492	1	blank2r.bmp	572	2	rächen	866	1	!	1239	1	!	-1	0	0	0	0	0	0	0	0	0	0	0	0	0	0	0	0	0	0	0	0	0	0	0	0	0	0	0	0	0	0
070319	10:23:13	10:29:08	352923	5.0.10.0	5_exp_RW	3	Rpleas_acq	CS_B	MQQM	GWWG	BZZB	JXXJ	YDDY	VKKV	spielen	treu	fair	schön	retten	ehrlich	strafen	tot	faul	schlecht	rächen	eitel	1	acq_USpleas_CSpleas2_RW	acq4567_RW	4	14	400	1	300	300	364	50	0	1	1	blank2r.bmp	0	1	+	0	1	blank2r.bmp	492	1	GWWG	492	1	blank2r.bmp	572	2	retten	866	1	!	1239	1	!	1266	0	0	0	0	0	0	0	0	0	0	0	0	0	0	0	0	0	0	0	0	0	0	0	0	0	0	0	0	0	0
070319	10:23:13	10:29:10	355229	5.0.10.0	5_exp_RW	3	Rpleas_acq	CS_B	MQQM	GWWG	BZZB	JXXJ	YDDY	VKKV	spielen	treu	fair	schön	retten	ehrlich	strafen	tot	faul	schlecht	rächen	eitel	1	acq_USunple_CSunple2_RW	acq4567_RW	4	15	400	0	300	300	542	46	0	1	1	blank2r.bmp	0	1	+	0	1	blank2r.bmp	492	1	JXXJ	492	1	blank2r.bmp	572	1	schlecht	866	1	!	1239	1	!	-1	0	0	0	0	0	0	0	0	0	0	0	0	0	0	0	0	0	0	0	0	0	0	0	0	0	0	0	0	0	0
070319	10:23:13	10:29:12	357534	5.0.10.0	5_exp_RW	3	Rpleas_acq	CS_B	MQQM	GWWG	BZZB	JXXJ	YDDY	VKKV	spielen	treu	fair	schön	retten	ehrlich	strafen	tot	faul	schlecht	rächen	eitel	1	acq_USpleas_CSpleas2_RW	acq4567_RW	4	16	400	0	300	300	526	50	0	1	1	blank2r.bmp	0	1	+	0	1	blank2r.bmp	492	1	GWWG	492	1	blank2r.bmp	572	1	schön	866	1	!	1239	1	!	-1	0	0	0	0	0	0	0	0	0	0	0	0	0	0	0	0	0	0	0	0	0	0	0	0	0	0	0	0	0	0
070319	10:23:13	10:29:15	359787	5.0.10.0	5_exp_RW	3	Rpleas_acq	CS_B	MQQM	GWWG	BZZB	JXXJ	YDDY	VKKV	spielen	treu	fair	schön	retten	ehrlich	strafen	tot	faul	schlecht	rächen	eitel	1	acq_USunple_CSunple1_RW	acq4567_RW	4	17	400	1	300	300	439	46	0	1	1	blank2r.bmp	0	1	+	0	1	blank2r.bmp	492	1	BZZB	492	1	blank2r.bmp	572	2	tot	866	1	!	1239	1	!	1346	0	0	0	0	0	0	0	0	0	0	0	0	0	0	0	0	0	0	0	0	0	0	0	0	0	0	0	0	0	0
070319	10:23:13	10:29:17	362066	5.0.10.0	5_exp_RW	3	Rpleas_acq	CS_B	MQQM	GWWG	BZZB	JXXJ	YDDY	VKKV	spielen	treu	fair	schön	retten	ehrlich	strafen	tot	faul	schlecht	rächen	eitel	1	acq_USpleas_CSpleas1_RW	acq4567_RW	4	18	400	0	300	300	510	50	0	1	1	blank2r.bmp	0	1	+	0	1	blank2r.bmp	492	1	MQQM	492	1	blank2r.bmp	572	2	treu	866	1	!	1239	1	!	-1	0	0	0	0	0	0	0	0	0	0	0	0	0	0	0	0	0	0	0	0	0	0	0	0	0	0	0	0	0	0
070319	10:23:13	10:29:19	364398	5.0.10.0	5_exp_RW	3	Rpleas_acq	CS_B	MQQM	GWWG	BZZB	JXXJ	YDDY	VKKV	spielen	treu	fair	schön	retten	ehrlich	strafen	tot	faul	schlecht	rächen	eitel	1	acq_USpleas_CSpleas1_RW	acq4567_RW	4	19	400	0	300	300	545	50	0	1	1	blank2r.bmp	0	1	+	0	1	blank2r.bmp	492	1	MQQM	492	1	blank2r.bmp	572	1	spielen	866	1	!	1239	1	!	-1	0	0	0	0	0	0	0	0	0	0	0	0	0	0	0	0	0	0	0	0	0	0	0	0	0	0	0	0	0	0
070319	10:23:13	10:29:21	366664	5.0.10.0	5_exp_RW	3	Rpleas_acq	CS_B	MQQM	GWWG	BZZB	JXXJ	YDDY	VKKV	spielen	treu	fair	schön	retten	ehrlich	strafen	tot	faul	schlecht	rächen	eitel	1	acq_USunple_CSunple1_RW	acq4567_RW	4	20	400	0	300	300	482	46	0	1	1	blank2r.bmp	0	1	+	0	1	blank2r.bmp	492	1	BZZB	492	1	blank2r.bmp	572	1	strafen	866	1	!	1239	1	!	-1	0	0	0	0	0	0	0	0	0	0	0	0	0	0	0	0	0	0	0	0	0	0	0	0	0	0	0	0	0	0
070319	10:23:13	10:29:24	368783	5.0.10.0	5_exp_RW	3	Rpleas_acq	CS_B	MQQM	GWWG	BZZB	JXXJ	YDDY	VKKV	spielen	treu	fair	schön	retten	ehrlich	strafen	tot	faul	schlecht	rächen	eitel	1	acq_USpleas_CSpleas1_RW	acq4567_RW	4	21	400	0	300	300	322	50	0	1	1	blank2r.bmp	0	1	+	0	1	blank2r.bmp	492	1	MQQM	492	1	blank2r.bmp	572	3	fair	866	1	!	-1	1	!	-1	0	0	0	0	0	0	0	0	0	0	0	0	0	0	0	0	0	0	0	0	0	0	0	0	0	0	0	0	0	0
070319	10:23:13	10:29:26	371116	5.0.10.0	5_exp_RW	3	Rpleas_acq	CS_B	MQQM	GWWG	BZZB	JXXJ	YDDY	VKKV	spielen	treu	fair	schön	retten	ehrlich	strafen	tot	faul	schlecht	rächen	eitel	1	acq_USunple_CSunple2_RW	acq4567_RW	4	22	400	0	300	300	556	46	0	1	1	blank2r.bmp	0	1	+	0	1	blank2r.bmp	492	1	JXXJ	492	1	blank2r.bmp	572	2	rächen	866	1	!	1239	1	!	-1	0	0	0	0	0	0	0	0	0	0	0	0	0	0	0	0	0	0	0	0	0	0	0	0	0	0	0	0	0	0
070319	10:23:13	10:29:28	373381	5.0.10.0	5_exp_RW	3	Rpleas_acq	CS_B	MQQM	GWWG	BZZB	JXXJ	YDDY	VKKV	spielen	treu	fair	schön	retten	ehrlich	strafen	tot	faul	schlecht	rächen	eitel	1	acq_USunple_CSunple2_RW	acq4567_RW	4	23	400	1	300	300	461	50	0	0	1	blank2r.bmp	0	1	+	0	1	blank2r.bmp	492	1	JXXJ	492	1	blank2r.bmp	572	3	eitel	866	1	!	1239	1	!	1359	0	0	0	0	0	0	0	0	0	0	0	0	0	0	0	0	0	0	0	0	0	0	0	0	0	0	0	0	0	0
070319	10:23:13	10:29:30	375647	5.0.10.0	5_exp_RW	3	Rpleas_acq	CS_B	MQQM	GWWG	BZZB	JXXJ	YDDY	VKKV	spielen	treu	fair	schön	retten	ehrlich	strafen	tot	faul	schlecht	rächen	eitel	1	acq_USpleas_CSpleas1_RW	acq4567_RW	4	24	400	0	300	300	497	50	0	1	1	blank2r.bmp	0	1	+	0	1	blank2r.bmp	492	1	MQQM	492	1	blank2r.bmp	572	2	treu	866	1	!	1239	1	!	-1	0	0	0	0	0	0	0	0	0	0	0	0	0	0	0	0	0	0	0	0	0	0	0	0	0	0	0	0	0	0
070319	10:23:13	10:29:33	377833	5.0.10.0	5_exp_RW	3	Rpleas_acq	CS_B	MQQM	GWWG	BZZB	JXXJ	YDDY	VKKV	spielen	treu	fair	schön	retten	ehrlich	strafen	tot	faul	schlecht	rächen	eitel	1	acq_USunple_CSunple2_RW	acq4567_RW	4	25	400	1	300	300	385	46	0	1	1	blank2r.bmp	0	1	+	0	1	blank2r.bmp	492	1	JXXJ	492	1	blank2r.bmp	572	1	schlecht	866	1	!	1239	1	!	1279	0	0	0	0	0	0	0	0	0	0	0	0	0	0	0	0	0	0	0	0	0	0	0	0	0	0	0	0	0	0
070319	10:23:13	10:29:35	380099	5.0.10.0	5_exp_RW	3	Rpleas_acq	CS_B	MQQM	GWWG	BZZB	JXXJ	YDDY	VKKV	spielen	treu	fair	schön	retten	ehrlich	strafen	tot	faul	schlecht	rächen	eitel	1	acq_USunple_CSunple2_RW	acq4567_RW	4	26	400	0	300	300	479	46	0	1	1	blank2r.bmp	0	1	+	0	1	blank2r.bmp	492	1	JXXJ	492	1	blank2r.bmp	572	3	eitel	866	1	!	1239	1	!	-1	0	0	0	0	0	0	0	0	0	0	0	0	0	0	0	0	0	0	0	0	0	0	0	0	0	0	0	0	0	0
070319	10:23:13	10:29:37	382311	5.0.10.0	5_exp_RW	3	Rpleas_acq	CS_B	MQQM	GWWG	BZZB	JXXJ	YDDY	VKKV	spielen	treu	fair	schön	retten	ehrlich	strafen	tot	faul	schlecht	rächen	eitel	1	acq_USunple_CSunple1_RW	acq4567_RW	4	27	400	1	300	300	400	50	0	0	1	blank2r.bmp	0	1	+	0	1	blank2r.bmp	492	1	BZZB	492	1	blank2r.bmp	572	3	faul	866	1	!	1239	1	!	1306	0	0	0	0	0	0	0	0	0	0	0	0	0	0	0	0	0	0	0	0	0	0	0	0	0	0	0	0	0	0
070319	10:23:13	10:29:39	384550	5.0.10.0	5_exp_RW	3	Rpleas_acq	CS_B	MQQM	GWWG	BZZB	JXXJ	YDDY	VKKV	spielen	treu	fair	schön	retten	ehrlich	strafen	tot	faul	schlecht	rächen	eitel	1	acq_USunple_CSunple1_RW	acq4567_RW	4	28	400	1	300	300	446	46	0	1	1	blank2r.bmp	0	1	+	0	1	blank2r.bmp	492	1	BZZB	492	1	blank2r.bmp	572	2	tot	866	1	!	1239	1	!	1346	0	0	0	0	0	0	0	0	0	0	0	0	0	0	0	0	0	0	0	0	0	0	0	0	0	0	0	0	0	0
070319	10:23:13	10:29:42	386803	5.0.10.0	5_exp_RW	3	Rpleas_acq	CS_B	MQQM	GWWG	BZZB	JXXJ	YDDY	VKKV	spielen	treu	fair	schön	retten	ehrlich	strafen	tot	faul	schlecht	rächen	eitel	1	acq_USunple_CSunple2_RW	acq4567_RW	4	29	400	1	300	300	454	46	0	1	1	blank2r.bmp	0	1	+	0	1	blank2r.bmp	492	1	JXXJ	492	1	blank2r.bmp	572	2	rächen	866	1	!	1239	1	!	1359	0	0	0	0	0	0	0	0	0	0	0	0	0	0	0	0	0	0	0	0	0	0	0	0	0	0	0	0	0	0
070319	10:23:13	10:29:44	389015	5.0.10.0	5_exp_RW	3	Rpleas_acq	CS_B	MQQM	GWWG	BZZB	JXXJ	YDDY	VKKV	spielen	treu	fair	schön	retten	ehrlich	strafen	tot	faul	schlecht	rächen	eitel	1	acq_USpleas_CSpleas2_RW	acq4567_RW	4	30	400	1	300	300	402	46	0	0	1	blank2r.bmp	0	1	+	0	1	blank2r.bmp	492	1	GWWG	492	1	blank2r.bmp	572	2	retten	866	1	!	1239	1	!	1306	0	0	0	0	0	0	0	0	0	0	0	0	0	0	0	0	0	0	0	0	0	0	0	0	0	0	0	0	0	0
070319	10:23:13	10:29:46	391161	5.0.10.0	5_exp_RW	3	Rpleas_acq	CS_B	MQQM	GWWG	BZZB	JXXJ	YDDY	VKKV	spielen	treu	fair	schön	retten	ehrlich	strafen	tot	faul	schlecht	rächen	eitel	1	acq_USpleas_CSpleas2_RW	acq4567_RW	4	31	400	1	300	300	357	50	0	1	1	blank2r.bmp	0	1	+	0	1	blank2r.bmp	492	1	GWWG	492	1	blank2r.bmp	572	1	schön	866	1	!	1239	1	!	1252	0	0	0	0	0	0	0	0	0	0	0	0	0	0	0	0	0	0	0	0	0	0	0	0	0	0	0	0	0	0
070319	10:23:13	10:29:48	393413	5.0.10.0	5_exp_RW	3	Rpleas_acq	CS_B	MQQM	GWWG	BZZB	JXXJ	YDDY	VKKV	spielen	treu	fair	schön	retten	ehrlich	strafen	tot	faul	schlecht	rächen	eitel	1	acq_USpleas_CSpleas2_RW	acq4567_RW	4	32	400	1	300	300	453	50	0	1	1	blank2r.bmp	0	1	+	0	1	blank2r.bmp	492	1	GWWG	492	1	blank2r.bmp	572	3	ehrlich	866	1	!	1239	1	!	1359	0	0	0	0	0	0	0	0	0	0	0	0	0	0	0	0	0	0	0	0	0	0	0	0	0	0	0	0	0	0
070319	10:23:13	10:29:50	395626	5.0.10.0	5_exp_RW	3	Rpleas_acq	CS_B	MQQM	GWWG	BZZB	JXXJ	YDDY	VKKV	spielen	treu	fair	schön	retten	ehrlich	strafen	tot	faul	schlecht	rächen	eitel	1	acq_USunple_CSunple1_RW	acq4567_RW	4	33	400	1	300	300	422	46	0	1	1	blank2r.bmp	0	1	+	0	1	blank2r.bmp	492	1	BZZB	492	1	blank2r.bmp	572	1	strafen	866	1	!	1239	1	!	1319	0	0	0	0	0	0	0	0	0	0	0	0	0	0	0	0	0	0	0	0	0	0	0	0	0	0	0	0	0	0
070319	10:23:13	10:29:53	397891	5.0.10.0	5_exp_RW	3	Rpleas_acq	CS_B	MQQM	GWWG	BZZB	JXXJ	YDDY	VKKV	spielen	treu	fair	schön	retten	ehrlich	strafen	tot	faul	schlecht	rächen	eitel	1	acq_USpleas_CSpleas1_RW	acq4567_RW	4	34	400	0	300	300	499	50	0	1	1	blank2r.bmp	0	1	+	0	1	blank2r.bmp	492	1	MQQM	492	1	blank2r.bmp	572	1	spielen	866	1	!	1239	1	!	-1	0	0	0	0	0	0	0	0	0	0	0	0	0	0	0	0	0	0	0	0	0	0	0	0	0	0	0	0	0	0
070319	10:23:13	10:29:55	400304	5.0.10.0	5_exp_RW	3	Rpleas_acq	CS_B	MQQM	GWWG	BZZB	JXXJ	YDDY	VKKV	spielen	treu	fair	schön	retten	ehrlich	strafen	tot	faul	schlecht	rächen	eitel	1	acq_USunple_CSunple1_RW	acq4567_RW	4	35	400	0	300	300	627	46	0	1	1	blank2r.bmp	0	1	+	0	1	blank2r.bmp	492	1	BZZB	492	1	blank2r.bmp	572	3	faul	866	1	!	1239	1	!	-1	0	0	0	0	0	0	0	0	0	0	0	0	0	0	0	0	0	0	0	0	0	0	0	0	0	0	0	0	0	0
070319	10:23:13	10:29:57	402463	5.0.10.0	5_exp_RW	3	Rpleas_acq	CS_B	MQQM	GWWG	BZZB	JXXJ	YDDY	VKKV	spielen	treu	fair	schön	retten	ehrlich	strafen	tot	faul	schlecht	rächen	eitel	1	acq_USunple_CSunple1_RW	acq4567_RW	4	36	400	1	300	300	346	50	0	0	1	blank2r.bmp	0	1	+	0	1	blank2r.bmp	492	1	BZZB	492	1	blank2r.bmp	572	1	strafen	866	1	!	1239	1	!	1252	0	0	0	0	0	0	0	0	0	0	0	0	0	0	0	0	0	0	0	0	0	0	0	0	0	0	0	0	0	0
070319	10:23:13	10:29:59	404662	5.0.10.0	5_exp_RW	3	Rpleas_acq	CS_B	MQQM	GWWG	BZZB	JXXJ	YDDY	VKKV	spielen	treu	fair	schön	retten	ehrlich	strafen	tot	faul	schlecht	rächen	eitel	1	acq_USpleas_CSpleas1_RW	acq4567_RW	4	37	400	1	300	300	389	46	0	0	1	blank2r.bmp	0	1	+	0	1	blank2r.bmp	492	1	MQQM	492	1	blank2r.bmp	572	2	treu	866	1	!	1239	1	!	1292	0	0	0	0	0	0	0	0	0	0	0	0	0	0	0	0	0	0	0	0	0	0	0	0	0	0	0	0	0	0
070319	10:23:13	10:30:02	406914	5.0.10.0	5_exp_RW	3	Rpleas_acq	CS_B	MQQM	GWWG	BZZB	JXXJ	YDDY	VKKV	spielen	treu	fair	schön	retten	ehrlich	strafen	tot	faul	schlecht	rächen	eitel	1	acq_USpleas_CSpleas2_RW	acq4567_RW	4	38	400	0	300	300	479	50	0	1	1	blank2r.bmp	0	1	+	0	1	blank2r.bmp	492	1	GWWG	492	1	blank2r.bmp	572	1	schön	866	1	!	1239	1	!	-1	0	0	0	0	0	0	0	0	0	0	0	0	0	0	0	0	0	0	0	0	0	0	0	0	0	0	0	0	0	0
070319	10:23:13	10:30:04	409393	5.0.10.0	5_exp_RW	3	Rpleas_acq	CS_B	MQQM	GWWG	BZZB	JXXJ	YDDY	VKKV	spielen	treu	fair	schön	retten	ehrlich	strafen	tot	faul	schlecht	rächen	eitel	1	acq_USpleas_CSpleas2_RW	acq4567_RW	4	39	400	0	300	300	696	50	0	1	1	blank2r.bmp	0	1	+	0	1	blank2r.bmp	492	1	GWWG	492	1	blank2r.bmp	572	2	retten	866	1	!	1239	1	!	-1	0	0	0	0	0	0	0	0	0	0	0	0	0	0	0	0	0	0	0	0	0	0	0	0	0	0	0	0	0	0
070319	10:23:13	10:30:07	411846	5.0.10.0	5_exp_RW	3	Rpleas_acq	CS_B	MQQM	GWWG	BZZB	JXXJ	YDDY	VKKV	spielen	treu	fair	schön	retten	ehrlich	strafen	tot	faul	schlecht	rächen	eitel	1	acq_USpleas_CSpleas1_RW	acq4567_RW	4	40	400	0	300	300	653	50	0	1	1	blank2r.bmp	0	1	+	0	1	blank2r.bmp	492	1	MQQM	492	1	blank2r.bmp	572	3	fair	866	1	!	1239	1	!	-1	0	0	0	0	0	0	0	0	0	0	0	0	0	0	0	0	0	0	0	0	0	0	0	0	0	0	0	0	0	0
070319	10:23:13	10:30:09	414045	5.0.10.0	5_exp_RW	3	Rpleas_acq	CS_B	MQQM	GWWG	BZZB	JXXJ	YDDY	VKKV	spielen	treu	fair	schön	retten	ehrlich	strafen	tot	faul	schlecht	rächen	eitel	1	acq_USunple_CSunple2_RW	acq4567_RW	4	41	400	1	300	300	393	46	0	1	1	blank2r.bmp	0	1	+	0	1	blank2r.bmp	492	1	JXXJ	492	1	blank2r.bmp	572	1	schlecht	866	1	!	1239	1	!	1292	0	0	0	0	0	0	0	0	0	0	0	0	0	0	0	0	0	0	0	0	0	0	0	0	0	0	0	0	0	0
070319	10:23:13	10:30:11	416377	5.0.10.0	5_exp_RW	3	Rpleas_acq	CS_B	MQQM	GWWG	BZZB	JXXJ	YDDY	VKKV	spielen	treu	fair	schön	retten	ehrlich	strafen	tot	faul	schlecht	rächen	eitel	1	acq_USpleas_CSpleas2_RW	acq4567_RW	4	42	400	0	300	300	565	50	0	1	1	blank2r.bmp	0	1	+	0	1	blank2r.bmp	492	1	GWWG	492	1	blank2r.bmp	572	3	ehrlich	866	1	!	1239	1	!	-1	0	0	0	0	0	0	0	0	0	0	0	0	0	0	0	0	0	0	0	0	0	0	0	0	0	0	0	0	0	0
070319	10:23:13	10:30:14	418736	5.0.10.0	5_exp_RW	3	Rpleas_acq	CS_B	MQQM	GWWG	BZZB	JXXJ	YDDY	VKKV	spielen	treu	fair	schön	retten	ehrlich	strafen	tot	faul	schlecht	rächen	eitel	1	acq_USpleas_CSpleas2_RW	acq4567_RW	4	43	400	0	300	300	581	46	0	0	1	blank2r.bmp	0	1	+	0	1	blank2r.bmp	492	1	GWWG	492	1	blank2r.bmp	572	2	retten	866	1	!	1239	1	!	-1	0	0	0	0	0	0	0	0	0	0	0	0	0	0	0	0	0	0	0	0	0	0	0	0	0	0	0	0	0	0
070319	10:23:13	10:30:16	421042	5.0.10.0	5_exp_RW	3	Rpleas_acq	CS_B	MQQM	GWWG	BZZB	JXXJ	YDDY	VKKV	spielen	treu	fair	schön	retten	ehrlich	strafen	tot	faul	schlecht	rächen	eitel	1	acq_USunple_CSunple1_RW	acq4567_RW	4	44	400	0	300	300	506	46	0	1	1	blank2r.bmp	0	1	+	0	1	blank2r.bmp	492	1	BZZB	492	1	blank2r.bmp	572	2	tot	866	1	!	1239	1	!	-1	0	0	0	0	0	0	0	0	0	0	0	0	0	0	0	0	0	0	0	0	0	0	0	0	0	0	0	0	0	0
070319	10:23:13	10:30:18	423215	5.0.10.0	5_exp_RW	3	Rpleas_acq	CS_B	MQQM	GWWG	BZZB	JXXJ	YDDY	VKKV	spielen	treu	fair	schön	retten	ehrlich	strafen	tot	faul	schlecht	rächen	eitel	1	acq_USpleas_CSpleas2_RW	acq4567_RW	4	45	400	1	300	300	367	50	0	1	1	blank2r.bmp	0	1	+	0	1	blank2r.bmp	492	1	GWWG	492	1	blank2r.bmp	572	1	schön	866	1	!	1239	1	!	1266	0	0	0	0	0	0	0	0	0	0	0	0	0	0	0	0	0	0	0	0	0	0	0	0	0	0	0	0	0	0
070319	10:23:13	10:30:20	425733	5.0.10.0	5_exp_RW	3	Rpleas_acq	CS_B	MQQM	GWWG	BZZB	JXXJ	YDDY	VKKV	spielen	treu	fair	schön	retten	ehrlich	strafen	tot	faul	schlecht	rächen	eitel	1	acq_USunple_CSunple1_RW	acq4567_RW	4	46	400	0	300	300	754	46	0	1	1	blank2r.bmp	0	1	+	0	1	blank2r.bmp	492	1	BZZB	492	1	blank2r.bmp	572	3	faul	866	1	!	1239	1	!	-1	0	0	0	0	0	0	0	0	0	0	0	0	0	0	0	0	0	0	0	0	0	0	0	0	0	0	0	0	0	0
070319	10:23:13	10:30:23	427986	5.0.10.0	5_exp_RW	3	Rpleas_acq	CS_B	MQQM	GWWG	BZZB	JXXJ	YDDY	VKKV	spielen	treu	fair	schön	retten	ehrlich	strafen	tot	faul	schlecht	rächen	eitel	1	acq_USpleas_CSpleas1_RW	acq4567_RW	4	47	400	1	300	300	440	50	0	1	1	blank2r.bmp	0	1	+	0	1	blank2r.bmp	492	1	MQQM	492	1	blank2r.bmp	572	1	spielen	866	1	!	1239	1	!	1346	0	0	0	0	0	0	0	0	0	0	0	0	0	0	0	0	0	0	0	0	0	0	0	0	0	0	0	0	0	0
070319	10:23:13	10:30:25	430305	5.0.10.0	5_exp_RW	3	Rpleas_acq	CS_B	MQQM	GWWG	BZZB	JXXJ	YDDY	VKKV	spielen	treu	fair	schön	retten	ehrlich	strafen	tot	faul	schlecht	rächen	eitel	1	acq_USunple_CSunple2_RW	acq4567_RW	4	48	400	0	300	300	533	46	0	1	1	blank2r.bmp	0	1	+	0	1	blank2r.bmp	492	1	JXXJ	492	1	blank2r.bmp	572	1	schlecht	866	1	!	1239	1	!	-1	0	0	0	0	0	0	0	0	0	0	0	0	0	0	0	0	0	0	0	0	0	0	0	0	0	0	0	0	0	0
070319	10:23:13	10:30:27	432651	5.0.10.0	5_exp_RW	3	Rpleas_acq	CS_B	MQQM	GWWG	BZZB	JXXJ	YDDY	VKKV	spielen	treu	fair	schön	retten	ehrlich	strafen	tot	faul	schlecht	rächen	eitel	1	acq_USunple_CSunple2_RW	acq4567_RW	4	49	400	0	300	300	563	46	0	1	1	blank2r.bmp	0	1	+	0	1	blank2r.bmp	492	1	JXXJ	492	1	blank2r.bmp	572	2	rächen	866	1	!	1239	1	!	-1	0	0	0	0	0	0	0	0	0	0	0	0	0	0	0	0	0	0	0	0	0	0	0	0	0	0	0	0	0	0
070319	10:23:13	10:30:30	434916	5.0.10.0	5_exp_RW	3	Rpleas_acq	CS_B	MQQM	GWWG	BZZB	JXXJ	YDDY	VKKV	spielen	treu	fair	schön	retten	ehrlich	strafen	tot	faul	schlecht	rächen	eitel	1	acq_USpleas_CSpleas2_RW	acq4567_RW	4	50	400	0	300	300	479	50	0	1	1	blank2r.bmp	0	1	+	0	1	blank2r.bmp	492	1	GWWG	492	1	blank2r.bmp	572	3	ehrlich	866	1	!	1239	1	!	-1	0	0	0	0	0	0	0	0	0	0	0	0	0	0	0	0	0	0	0	0	0	0	0	0	0	0	0	0	0	0
070319	10:23:13	10:30:32	437182	5.0.10.0	5_exp_RW	3	Rpleas_acq	CS_B	MQQM	GWWG	BZZB	JXXJ	YDDY	VKKV	spielen	treu	fair	schön	retten	ehrlich	strafen	tot	faul	schlecht	rächen	eitel	1	acq_USpleas_CSpleas1_RW	acq4567_RW	4	51	400	0	300	300	479	50	0	1	1	blank2r.bmp	0	1	+	0	1	blank2r.bmp	492	1	MQQM	492	1	blank2r.bmp	572	2	treu	866	1	!	1239	1	!	-1	0	0	0	0	0	0	0	0	0	0	0	0	0	0	0	0	0	0	0	0	0	0	0	0	0	0	0	0	0	0
070319	10:23:13	10:30:34	439435	5.0.10.0	5_exp_RW	3	Rpleas_acq	CS_B	MQQM	GWWG	BZZB	JXXJ	YDDY	VKKV	spielen	treu	fair	schön	retten	ehrlich	strafen	tot	faul	schlecht	rächen	eitel	1	acq_USunple_CSunple1_RW	acq4567_RW	4	52	400	1	300	300	446	46	0	1	1	blank2r.bmp	0	1	+	0	1	blank2r.bmp	492	1	BZZB	492	1	blank2r.bmp	572	1	strafen	866	1	!	1239	1	!	1346	0	0	0	0	0	0	0	0	0	0	0	0	0	0	0	0	0	0	0	0	0	0	0	0	0	0	0	0	0	0
070319	10:23:13	10:30:36	441687	5.0.10.0	5_exp_RW	3	Rpleas_acq	CS_B	MQQM	GWWG	BZZB	JXXJ	YDDY	VKKV	spielen	treu	fair	schön	retten	ehrlich	strafen	tot	faul	schlecht	rächen	eitel	1	acq_USunple_CSunple2_RW	acq4567_RW	4	53	400	0	300	300	482	46	0	1	1	blank2r.bmp	0	1	+	0	1	blank2r.bmp	492	1	JXXJ	492	1	blank2r.bmp	572	3	eitel	866	1	!	1239	1	!	-1	0	0	0	0	0	0	0	0	0	0	0	0	0	0	0	0	0	0	0	0	0	0	0	0	0	0	0	0	0	0
070319	10:23:13	10:30:39	443899	5.0.10.0	5_exp_RW	3	Rpleas_acq	CS_B	MQQM	GWWG	BZZB	JXXJ	YDDY	VKKV	spielen	treu	fair	schön	retten	ehrlich	strafen	tot	faul	schlecht	rächen	eitel	1	acq_USpleas_CSpleas1_RW	acq4567_RW	4	54	400	1	300	300	406	50	0	1	1	blank2r.bmp	0	1	+	0	1	blank2r.bmp	492	1	MQQM	492	1	blank2r.bmp	572	1	spielen	866	1	!	1239	1	!	1306	0	0	0	0	0	0	0	0	0	0	0	0	0	0	0	0	0	0	0	0	0	0	0	0	0	0	0	0	0	0
070319	10:23:13	10:30:41	446112	5.0.10.0	5_exp_RW	3	Rpleas_acq	CS_B	MQQM	GWWG	BZZB	JXXJ	YDDY	VKKV	spielen	treu	fair	schön	retten	ehrlich	strafen	tot	faul	schlecht	rächen	eitel	1	acq_USpleas_CSpleas1_RW	acq4567_RW	4	55	400	1	300	300	419	50	0	1	1	blank2r.bmp	0	1	+	0	1	blank2r.bmp	492	1	MQQM	492	1	blank2r.bmp	572	3	fair	866	1	!	1239	1	!	1319	0	0	0	0	0	0	0	0	0	0	0	0	0	0	0	0	0	0	0	0	0	0	0	0	0	0	0	0	0	0
070319	10:23:13	10:30:43	448284	5.0.10.0	5_exp_RW	3	Rpleas_acq	CS_B	MQQM	GWWG	BZZB	JXXJ	YDDY	VKKV	spielen	treu	fair	schön	retten	ehrlich	strafen	tot	faul	schlecht	rächen	eitel	1	acq_USunple_CSunple1_RW	acq4567_RW	4	56	400	1	300	300	378	46	0	1	1	blank2r.bmp	0	1	+	0	1	blank2r.bmp	492	1	BZZB	492	1	blank2r.bmp	572	2	tot	866	1	!	1239	1	!	1279	0	0	0	0	0	0	0	0	0	0	0	0	0	0	0	0	0	0	0	0	0	0	0	0	0	0	0	0	0	0
070319	10:23:13	10:30:45	450457	5.0.10.0	5_exp_RW	3	Rpleas_acq	CS_B	MQQM	GWWG	BZZB	JXXJ	YDDY	VKKV	spielen	treu	fair	schön	retten	ehrlich	strafen	tot	faul	schlecht	rächen	eitel	1	acq_USpleas_CSpleas1_RW	acq4567_RW	4	57	400	1	300	300	383	46	0	0	1	blank2r.bmp	0	1	+	0	1	blank2r.bmp	492	1	MQQM	492	1	blank2r.bmp	572	3	fair	866	1	!	1239	1	!	1279	0	0	0	0	0	0	0	0	0	0	0	0	0	0	0	0	0	0	0	0	0	0	0	0	0	0	0	0	0	0
070319	10:23:13	10:30:48	452749	5.0.10.0	5_exp_RW	3	Rpleas_acq	CS_B	MQQM	GWWG	BZZB	JXXJ	YDDY	VKKV	spielen	treu	fair	schön	retten	ehrlich	strafen	tot	faul	schlecht	rächen	eitel	1	acq_USunple_CSunple2_RW	acq4567_RW	4	58	400	0	300	300	525	46	0	1	1	blank2r.bmp	0	1	+	0	1	blank2r.bmp	492	1	JXXJ	492	1	blank2r.bmp	572	1	schlecht	866	1	!	1239	1	!	-1	0	0	0	0	0	0	0	0	0	0	0	0	0	0	0	0	0	0	0	0	0	0	0	0	0	0	0	0	0	0
070319	10:23:13	10:30:50	454988	5.0.10.0	5_exp_RW	3	Rpleas_acq	CS_B	MQQM	GWWG	BZZB	JXXJ	YDDY	VKKV	spielen	treu	fair	schön	retten	ehrlich	strafen	tot	faul	schlecht	rächen	eitel	1	acq_USpleas_CSpleas2_RW	acq4567_RW	4	59	400	1	300	300	426	50	0	1	1	blank2r.bmp	0	1	+	0	1	blank2r.bmp	492	1	GWWG	492	1	blank2r.bmp	572	3	ehrlich	866	1	!	1239	1	!	1332	0	0	0	0	0	0	0	0	0	0	0	0	0	0	0	0	0	0	0	0	0	0	0	0	0	0	0	0	0	0
070319	10:23:13	10:30:52	457254	5.0.10.0	5_exp_RW	3	Rpleas_acq	CS_B	MQQM	GWWG	BZZB	JXXJ	YDDY	VKKV	spielen	treu	fair	schön	retten	ehrlich	strafen	tot	faul	schlecht	rächen	eitel	1	acq_USunple_CSunple1_RW	acq4567_RW	4	60	400	1	300	300	458	46	0	1	1	blank2r.bmp	0	1	+	0	1	blank2r.bmp	492	1	BZZB	492	1	blank2r.bmp	572	2	tot	866	1	!	1239	1	!	1359	0	0	0	0	0	0	0	0	0	0	0	0	0	0	0	0	0	0	0	0	0	0	0	0	0	0	0	0	0	0
070319	10:23:13	10:30:54	459626	5.0.10.0	5_exp_RW	3	Rpleas_acq	CS_B	MQQM	GWWG	BZZB	JXXJ	YDDY	VKKV	spielen	treu	fair	schön	retten	ehrlich	strafen	tot	faul	schlecht	rächen	eitel	1	acq_USpleas_CSpleas1_RW	acq4567_RW	4	61	400	0	300	300	604	50	0	1	1	blank2r.bmp	0	1	+	0	1	blank2r.bmp	492	1	MQQM	492	1	blank2r.bmp	572	2	treu	866	1	!	1239	1	!	-1	0	0	0	0	0	0	0	0	0	0	0	0	0	0	0	0	0	0	0	0	0	0	0	0	0	0	0	0	0	0
070319	10:23:13	10:30:57	461945	5.0.10.0	5_exp_RW	3	Rpleas_acq	CS_B	MQQM	GWWG	BZZB	JXXJ	YDDY	VKKV	spielen	treu	fair	schön	retten	ehrlich	strafen	tot	faul	schlecht	rächen	eitel	1	acq_USunple_CSunple2_RW	acq4567_RW	4	62	400	0	300	300	541	46	0	1	1	blank2r.bmp	0	1	+	0	1	blank2r.bmp	492	1	JXXJ	492	1	blank2r.bmp	572	3	eitel	866	1	!	1239	1	!	-1	0	0	0	0	0	0	0	0	0	0	0	0	0	0	0	0	0	0	0	0	0	0	0	0	0	0	0	0	0	0
070319	10:23:13	10:30:59	464345	5.0.10.0	5_exp_RW	3	Rpleas_acq	CS_B	MQQM	GWWG	BZZB	JXXJ	YDDY	VKKV	spielen	treu	fair	schön	retten	ehrlich	strafen	tot	faul	schlecht	rächen	eitel	1	acq_USunple_CSunple1_RW	acq4567_RW	4	63	400	0	300	300	614	46	0	1	1	blank2r.bmp	0	1	+	0	1	blank2r.bmp	492	1	BZZB	492	1	blank2r.bmp	572	3	faul	866	1	!	1239	1	!	-1	0	0	0	0	0	0	0	0	0	0	0	0	0	0	0	0	0	0	0	0	0	0	0	0	0	0	0	0	0	0
070319	10:23:13	10:31:01	466730	5.0.10.0	5_exp_RW	3	Rpleas_acq	CS_B	MQQM	GWWG	BZZB	JXXJ	YDDY	VKKV	spielen	treu	fair	schön	retten	ehrlich	strafen	tot	faul	schlecht	rächen	eitel	1	acq_USunple_CSunple1_RW	acq4567_RW	4	64	400	0	300	300	600	46	0	1	1	blank2r.bmp	0	1	+	0	1	blank2r.bmp	492	1	BZZB	492	1	blank2r.bmp	572	1	strafen	866	1	!	1239	1	!	-1	0	0	0	0	0	0	0	0	0	0	0	0	0	0	0	0	0	0	0	0	0	0	0	0	0	0	0	0	0	0
070319	10:23:13	10:31:04	468929	5.0.10.0	5_exp_RW	3	Rpleas_acq	CS_B	MQQM	GWWG	BZZB	JXXJ	YDDY	VKKV	spielen	treu	fair	schön	retten	ehrlich	strafen	tot	faul	schlecht	rächen	eitel	1	acq_USunple_CSunple1_RW	acq4567_RW	4	65	400	1	300	300	393	46	0	1	1	blank2r.bmp	0	1	+	0	1	blank2r.bmp	492	1	BZZB	492	1	blank2r.bmp	572	3	faul	866	1	!	1239	1	!	1292	0	0	0	0	0	0	0	0	0	0	0	0	0	0	0	0	0	0	0	0	0	0	0	0	0	0	0	0	0	0
070319	10:23:13	10:31:06	471208	5.0.10.0	5_exp_RW	3	Rpleas_acq	CS_B	MQQM	GWWG	BZZB	JXXJ	YDDY	VKKV	spielen	treu	fair	schön	retten	ehrlich	strafen	tot	faul	schlecht	rächen	eitel	1	acq_USpleas_CSpleas2_RW	acq4567_RW	4	66	400	0	300	300	505	50	0	1	1	blank2r.bmp	0	1	+	0	1	blank2r.bmp	492	1	GWWG	492	1	blank2r.bmp	572	2	retten	866	1	!	1239	1	!	-1	0	0	0	0	0	0	0	0	0	0	0	0	0	0	0	0	0	0	0	0	0	0	0	0	0	0	0	0	0	0
070319	10:23:13	10:31:08	473501	5.0.10.0	5_exp_RW	3	Rpleas_acq	CS_B	MQQM	GWWG	BZZB	JXXJ	YDDY	VKKV	spielen	treu	fair	schön	retten	ehrlich	strafen	tot	faul	schlecht	rächen	eitel	1	acq_USpleas_CSpleas1_RW	acq4567_RW	4	67	400	0	300	300	517	50	0	1	1	blank2r.bmp	0	1	+	0	1	blank2r.bmp	492	1	MQQM	492	1	blank2r.bmp	572	1	spielen	866	1	!	1239	1	!	-1	0	0	0	0	0	0	0	0	0	0	0	0	0	0	0	0	0	0	0	0	0	0	0	0	0	0	0	0	0	0
070319	10:23:13	10:31:10	475580	5.0.10.0	5_exp_RW	3	Rpleas_acq	CS_B	MQQM	GWWG	BZZB	JXXJ	YDDY	VKKV	spielen	treu	fair	schön	retten	ehrlich	strafen	tot	faul	schlecht	rächen	eitel	1	acq_USpleas_CSpleas2_RW	acq4567_RW	4	68	400	0	300	300	299	50	0	1	1	blank2r.bmp	0	1	+	0	1	blank2r.bmp	492	1	GWWG	492	1	blank2r.bmp	572	1	schön	866	1	!	-1	1	!	-1	0	0	0	0	0	0	0	0	0	0	0	0	0	0	0	0	0	0	0	0	0	0	0	0	0	0	0	0	0	0
070319	10:23:13	10:31:13	478086	5.0.10.0	5_exp_RW	3	Rpleas_acq	CS_B	MQQM	GWWG	BZZB	JXXJ	YDDY	VKKV	spielen	treu	fair	schön	retten	ehrlich	strafen	tot	faul	schlecht	rächen	eitel	1	acq_USpleas_CSpleas2_RW	acq4567_RW	4	69	400	0	300	300	724	50	0	1	1	blank2r.bmp	0	1	+	0	1	blank2r.bmp	492	1	GWWG	492	1	blank2r.bmp	572	1	schön	866	1	!	1239	1	!	-1	0	0	0	0	0	0	0	0	0	0	0	0	0	0	0	0	0	0	0	0	0	0	0	0	0	0	0	0	0	0
070319	10:23:13	10:31:15	480298	5.0.10.0	5_exp_RW	3	Rpleas_acq	CS_B	MQQM	GWWG	BZZB	JXXJ	YDDY	VKKV	spielen	treu	fair	schön	retten	ehrlich	strafen	tot	faul	schlecht	rächen	eitel	1	acq_USunple_CSunple1_RW	acq4567_RW	4	70	400	1	300	300	399	46	0	1	1	blank2r.bmp	0	1	+	0	1	blank2r.bmp	492	1	BZZB	492	1	blank2r.bmp	572	1	strafen	866	1	!	1239	1	!	1306	0	0	0	0	0	0	0	0	0	0	0	0	0	0	0	0	0	0	0	0	0	0	0	0	0	0	0	0	0	0
070319	10:23:13	10:31:17	482444	5.0.10.0	5_exp_RW	3	Rpleas_acq	CS_B	MQQM	GWWG	BZZB	JXXJ	YDDY	VKKV	spielen	treu	fair	schön	retten	ehrlich	strafen	tot	faul	schlecht	rächen	eitel	1	acq_USunple_CSunple2_RW	acq4567_RW	4	71	400	1	300	300	357	46	0	1	1	blank2r.bmp	0	1	+	0	1	blank2r.bmp	492	1	JXXJ	492	1	blank2r.bmp	572	2	rächen	866	1	!	1239	1	!	1252	0	0	0	0	0	0	0	0	0	0	0	0	0	0	0	0	0	0	0	0	0	0	0	0	0	0	0	0	0	0
070319	10:23:13	10:31:19	484523	5.0.10.0	5_exp_RW	3	Rpleas_acq	CS_B	MQQM	GWWG	BZZB	JXXJ	YDDY	VKKV	spielen	treu	fair	schön	retten	ehrlich	strafen	tot	faul	schlecht	rächen	eitel	1	acq_USpleas_CSpleas2_RW	acq4567_RW	4	72	400	0	300	300	316	46	0	0	1	blank2r.bmp	0	1	+	0	1	blank2r.bmp	492	1	GWWG	492	1	blank2r.bmp	572	3	ehrlich	866	1	!	-1	1	!	-1	0	0	0	0	0	0	0	0	0	0	0	0	0	0	0	0	0	0	0	0	0	0	0	0	0	0	0	0	0	0
070319	10:23:13	10:31:22	486802	5.0.10.0	5_exp_RW	3	Rpleas_acq	CS_B	MQQM	GWWG	BZZB	JXXJ	YDDY	VKKV	spielen	treu	fair	schön	retten	ehrlich	strafen	tot	faul	schlecht	rächen	eitel	1	acq_USpleas_CSpleas2_RW	acq4567_RW	4	73	400	0	300	300	490	46	0	0	1	blank2r.bmp	0	1	+	0	1	blank2r.bmp	492	1	GWWG	492	1	blank2r.bmp	572	2	retten	866	1	!	1239	1	!	-1	0	0	0	0	0	0	0	0	0	0	0	0	0	0	0	0	0	0	0	0	0	0	0	0	0	0	0	0	0	0
070319	10:23:13	10:31:24	489068	5.0.10.0	5_exp_RW	3	Rpleas_acq	CS_B	MQQM	GWWG	BZZB	JXXJ	YDDY	VKKV	spielen	treu	fair	schön	retten	ehrlich	strafen	tot	faul	schlecht	rächen	eitel	1	acq_USunple_CSunple2_RW	acq4567_RW	4	74	400	0	300	300	481	46	0	1	1	blank2r.bmp	0	1	+	0	1	blank2r.bmp	492	1	JXXJ	492	1	blank2r.bmp	572	1	schlecht	866	1	!	1239	1	!	-1	0	0	0	0	0	0	0	0	0	0	0	0	0	0	0	0	0	0	0	0	0	0	0	0	0	0	0	0	0	0
070319	10:23:13	10:31:26	491294	5.0.10.0	5_exp_RW	3	Rpleas_acq	CS_B	MQQM	GWWG	BZZB	JXXJ	YDDY	VKKV	spielen	treu	fair	schön	retten	ehrlich	strafen	tot	faul	schlecht	rächen	eitel	1	acq_USunple_CSunple1_RW	acq4567_RW	4	75	400	1	300	300	423	46	0	1	1	blank2r.bmp	0	1	+	0	1	blank2r.bmp	492	1	BZZB	492	1	blank2r.bmp	572	2	tot	866	1	!	1239	1	!	1319	0	0	0	0	0	0	0	0	0	0	0	0	0	0	0	0	0	0	0	0	0	0	0	0	0	0	0	0	0	0
070319	10:23:13	10:31:28	493733	5.0.10.0	5_exp_RW	3	Rpleas_acq	CS_B	MQQM	GWWG	BZZB	JXXJ	YDDY	VKKV	spielen	treu	fair	schön	retten	ehrlich	strafen	tot	faul	schlecht	rächen	eitel	1	acq_USunple_CSunple2_RW	acq4567_RW	4	76	400	0	300	300	672	46	0	1	1	blank2r.bmp	0	1	+	0	1	blank2r.bmp	492	1	JXXJ	492	1	blank2r.bmp	572	2	rächen	866	1	!	1239	1	!	-1	0	0	0	0	0	0	0	0	0	0	0	0	0	0	0	0	0	0	0	0	0	0	0	0	0	0	0	0	0	0
070319	10:23:13	10:31:31	495998	5.0.10.0	5_exp_RW	3	Rpleas_acq	CS_B	MQQM	GWWG	BZZB	JXXJ	YDDY	VKKV	spielen	treu	fair	schön	retten	ehrlich	strafen	tot	faul	schlecht	rächen	eitel	1	acq_USunple_CSunple2_RW	acq4567_RW	4	77	400	1	300	300	463	46	0	1	1	blank2r.bmp	0	1	+	0	1	blank2r.bmp	492	1	JXXJ	492	1	blank2r.bmp	572	3	eitel	866	1	!	1239	1	!	1359	0	0	0	0	0	0	0	0	0	0	0	0	0	0	0	0	0	0	0	0	0	0	0	0	0	0	0	0	0	0
070319	10:23:13	10:31:33	498317	5.0.10.0	5_exp_RW	3	Rpleas_acq	CS_B	MQQM	GWWG	BZZB	JXXJ	YDDY	VKKV	spielen	treu	fair	schön	retten	ehrlich	strafen	tot	faul	schlecht	rächen	eitel	1	acq_USpleas_CSpleas1_RW	acq4567_RW	4	78	400	0	300	300	551	50	0	1	1	blank2r.bmp	0	1	+	0	1	blank2r.bmp	492	1	MQQM	492	1	blank2r.bmp	572	3	fair	866	1	!	1239	1	!	-1	0	0	0	0	0	0	0	0	0	0	0	0	0	0	0	0	0	0	0	0	0	0	0	0	0	0	0	0	0	0
070319	10:23:13	10:31:35	500570	5.0.10.0	5_exp_RW	3	Rpleas_acq	CS_B	MQQM	GWWG	BZZB	JXXJ	YDDY	VKKV	spielen	treu	fair	schön	retten	ehrlich	strafen	tot	faul	schlecht	rächen	eitel	1	acq_USpleas_CSpleas1_RW	acq4567_RW	4	79	400	1	300	300	441	50	0	1	1	blank2r.bmp	0	1	+	0	1	blank2r.bmp	492	1	MQQM	492	1	blank2r.bmp	572	1	spielen	866	1	!	1239	1	!	1346	0	0	0	0	0	0	0	0	0	0	0	0	0	0	0	0	0	0	0	0	0	0	0	0	0	0	0	0	0	0
070319	10:23:13	10:31:38	502916	5.0.10.0	5_exp_RW	3	Rpleas_acq	CS_B	MQQM	GWWG	BZZB	JXXJ	YDDY	VKKV	spielen	treu	fair	schön	retten	ehrlich	strafen	tot	faul	schlecht	rächen	eitel	1	acq_USpleas_CSpleas1_RW	acq4567_RW	4	80	400	0	300	300	584	50	0	1	1	blank2r.bmp	0	1	+	0	1	blank2r.bmp	492	1	MQQM	492	1	blank2r.bmp	572	2	treu	866	1	!	1239	1	!	-1	0	0	0	0	0	0	0	0	0	0	0	0	0	0	0	0	0	0	0	0	0	0	0	0	0	0	0	0	0	0
070319	10:23:13	10:31:51	516430	5.0.10.0	5_exp_RW	3	Rpleas_acq	CS_B	MQQM	GWWG	BZZB	JXXJ	YDDY	VKKV	spielen	treu	fair	schön	retten	ehrlich	strafen	tot	faul	schlecht	rächen	eitel	1	acq_USunple_CSunple2_RW	acq4567_RW	5	1	400	0	300	300	481	46	0	1	1	blank2r.bmp	0	1	+	0	1	blank2r.bmp	492	1	JXXJ	492	1	blank2r.bmp	572	2	rächen	866	1	!	1239	1	!	-1	0	0	0	0	0	0	0	0	0	0	0	0	0	0	0	0	0	0	0	0	0	0	0	0	0	0	0	0	0	0
070319	10:23:13	10:31:53	518709	5.0.10.0	5_exp_RW	3	Rpleas_acq	CS_B	MQQM	GWWG	BZZB	JXXJ	YDDY	VKKV	spielen	treu	fair	schön	retten	ehrlich	strafen	tot	faul	schlecht	rächen	eitel	1	acq_USpleas_CSpleas1_RW	acq4567_RW	5	2	400	0	300	300	505	50	0	1	1	blank2r.bmp	0	1	+	0	1	blank2r.bmp	492	1	MQQM	492	1	blank2r.bmp	572	1	spielen	866	1	!	1239	1	!	-1	0	0	0	0	0	0	0	0	0	0	0	0	0	0	0	0	0	0	0	0	0	0	0	0	0	0	0	0	0	0
070319	10:23:13	10:31:56	520975	5.0.10.0	5_exp_RW	3	Rpleas_acq	CS_B	MQQM	GWWG	BZZB	JXXJ	YDDY	VKKV	spielen	treu	fair	schön	retten	ehrlich	strafen	tot	faul	schlecht	rächen	eitel	1	acq_USpleas_CSpleas1_RW	acq4567_RW	5	3	400	1	300	300	459	50	0	1	1	blank2r.bmp	0	1	+	0	1	blank2r.bmp	492	1	MQQM	492	1	blank2r.bmp	572	2	treu	866	1	!	1239	1	!	1359	0	0	0	0	0	0	0	0	0	0	0	0	0	0	0	0	0	0	0	0	0	0	0	0	0	0	0	0	0	0
070319	10:23:13	10:31:58	523281	5.0.10.0	5_exp_RW	3	Rpleas_acq	CS_B	MQQM	GWWG	BZZB	JXXJ	YDDY	VKKV	spielen	treu	fair	schön	retten	ehrlich	strafen	tot	faul	schlecht	rächen	eitel	1	acq_USunple_CSunple2_RW	acq4567_RW	5	4	400	0	300	300	526	46	0	1	1	blank2r.bmp	0	1	+	0	1	blank2r.bmp	492	1	JXXJ	492	1	blank2r.bmp	572	1	schlecht	866	1	!	1239	1	!	-1	0	0	0	0	0	0	0	0	0	0	0	0	0	0	0	0	0	0	0	0	0	0	0	0	0	0	0	0	0	0
070319	10:23:13	10:32:00	525693	5.0.10.0	5_exp_RW	3	Rpleas_acq	CS_B	MQQM	GWWG	BZZB	JXXJ	YDDY	VKKV	spielen	treu	fair	schön	retten	ehrlich	strafen	tot	faul	schlecht	rächen	eitel	1	acq_USpleas_CSpleas2_RW	acq4567_RW	5	5	400	0	300	300	643	50	0	1	1	blank2r.bmp	0	1	+	0	1	blank2r.bmp	492	1	GWWG	492	1	blank2r.bmp	572	3	ehrlich	866	1	!	1239	1	!	-1	0	0	0	0	0	0	0	0	0	0	0	0	0	0	0	0	0	0	0	0	0	0	0	0	0	0	0	0	0	0
070319	10:23:13	10:32:03	527919	5.0.10.0	5_exp_RW	3	Rpleas_acq	CS_B	MQQM	GWWG	BZZB	JXXJ	YDDY	VKKV	spielen	treu	fair	schön	retten	ehrlich	strafen	tot	faul	schlecht	rächen	eitel	1	acq_USpleas_CSpleas2_RW	acq4567_RW	5	6	400	1	300	300	419	50	0	1	1	blank2r.bmp	0	1	+	0	1	blank2r.bmp	492	1	GWWG	492	1	blank2r.bmp	572	1	schön	866	1	!	1239	1	!	1319	0	0	0	0	0	0	0	0	0	0	0	0	0	0	0	0	0	0	0	0	0	0	0	0	0	0	0	0	0	0
070319	10:23:13	10:32:05	530185	5.0.10.0	5_exp_RW	3	Rpleas_acq	CS_B	MQQM	GWWG	BZZB	JXXJ	YDDY	VKKV	spielen	treu	fair	schön	retten	ehrlich	strafen	tot	faul	schlecht	rächen	eitel	1	acq_USunple_CSunple2_RW	acq4567_RW	5	7	400	0	300	300	480	46	0	1	1	blank2r.bmp	0	1	+	0	1	blank2r.bmp	492	1	JXXJ	492	1	blank2r.bmp	572	3	eitel	866	1	!	1239	1	!	-1	0	0	0	0	0	0	0	0	0	0	0	0	0	0	0	0	0	0	0	0	0	0	0	0	0	0	0	0	0	0
070319	10:23:13	10:32:07	532570	5.0.10.0	5_exp_RW	3	Rpleas_acq	CS_B	MQQM	GWWG	BZZB	JXXJ	YDDY	VKKV	spielen	treu	fair	schön	retten	ehrlich	strafen	tot	faul	schlecht	rächen	eitel	1	acq_USpleas_CSpleas1_RW	acq4567_RW	5	8	400	0	300	300	605	50	0	1	1	blank2r.bmp	0	1	+	0	1	blank2r.bmp	492	1	MQQM	492	1	blank2r.bmp	572	3	fair	866	1	!	1239	1	!	-1	0	0	0	0	0	0	0	0	0	0	0	0	0	0	0	0	0	0	0	0	0	0	0	0	0	0	0	0	0	0
070319	10:23:13	10:32:10	534849	5.0.10.0	5_exp_RW	3	Rpleas_acq	CS_B	MQQM	GWWG	BZZB	JXXJ	YDDY	VKKV	spielen	treu	fair	schön	retten	ehrlich	strafen	tot	faul	schlecht	rächen	eitel	1	acq_USunple_CSunple1_RW	acq4567_RW	5	9	400	0	300	300	479	46	0	1	1	blank2r.bmp	0	1	+	0	1	blank2r.bmp	492	1	BZZB	492	1	blank2r.bmp	572	1	strafen	866	1	!	1239	1	!	-1	0	0	0	0	0	0	0	0	0	0	0	0	0	0	0	0	0	0	0	0	0	0	0	0	0	0	0	0	0	0
070319	10:23:13	10:32:12	537115	5.0.10.0	5_exp_RW	3	Rpleas_acq	CS_B	MQQM	GWWG	BZZB	JXXJ	YDDY	VKKV	spielen	treu	fair	schön	retten	ehrlich	strafen	tot	faul	schlecht	rächen	eitel	1	acq_USunple_CSunple2_RW	acq4567_RW	5	10	400	0	300	300	489	46	0	1	1	blank2r.bmp	0	1	+	0	1	blank2r.bmp	492	1	JXXJ	492	1	blank2r.bmp	572	1	schlecht	866	1	!	1239	1	!	-1	0	0	0	0	0	0	0	0	0	0	0	0	0	0	0	0	0	0	0	0	0	0	0	0	0	0	0	0	0	0
070319	10:23:13	10:32:14	539234	5.0.10.0	5_exp_RW	3	Rpleas_acq	CS_B	MQQM	GWWG	BZZB	JXXJ	YDDY	VKKV	spielen	treu	fair	schön	retten	ehrlich	strafen	tot	faul	schlecht	rächen	eitel	1	acq_USunple_CSunple1_RW	acq4567_RW	5	11	400	0	300	300	334	46	0	1	1	blank2r.bmp	0	1	+	0	1	blank2r.bmp	492	1	BZZB	492	1	blank2r.bmp	572	3	faul	866	1	!	-1	1	!	-1	0	0	0	0	0	0	0	0	0	0	0	0	0	0	0	0	0	0	0	0	0	0	0	0	0	0	0	0	0	0
070319	10:23:13	10:32:16	541527	5.0.10.0	5_exp_RW	3	Rpleas_acq	CS_B	MQQM	GWWG	BZZB	JXXJ	YDDY	VKKV	spielen	treu	fair	schön	retten	ehrlich	strafen	tot	faul	schlecht	rächen	eitel	1	acq_USunple_CSunple1_RW	acq4567_RW	5	12	400	0	300	300	509	46	0	1	1	blank2r.bmp	0	1	+	0	1	blank2r.bmp	492	1	BZZB	492	1	blank2r.bmp	572	2	tot	866	1	!	1239	1	!	-1	0	0	0	0	0	0	0	0	0	0	0	0	0	0	0	0	0	0	0	0	0	0	0	0	0	0	0	0	0	0
070319	10:23:13	10:32:19	543872	5.0.10.0	5_exp_RW	3	Rpleas_acq	CS_B	MQQM	GWWG	BZZB	JXXJ	YDDY	VKKV	spielen	treu	fair	schön	retten	ehrlich	strafen	tot	faul	schlecht	rächen	eitel	1	acq_USunple_CSunple2_RW	acq4567_RW	5	13	400	0	300	300	558	46	0	1	1	blank2r.bmp	0	1	+	0	1	blank2r.bmp	492	1	JXXJ	492	1	blank2r.bmp	572	3	eitel	866	1	!	1239	1	!	-1	0	0	0	0	0	0	0	0	0	0	0	0	0	0	0	0	0	0	0	0	0	0	0	0	0	0	0	0	0	0
070319	10:23:13	10:32:21	546138	5.0.10.0	5_exp_RW	3	Rpleas_acq	CS_B	MQQM	GWWG	BZZB	JXXJ	YDDY	VKKV	spielen	treu	fair	schön	retten	ehrlich	strafen	tot	faul	schlecht	rächen	eitel	1	acq_USpleas_CSpleas2_RW	acq4567_RW	5	14	400	0	300	300	487	50	0	1	1	blank2r.bmp	0	1	+	0	1	blank2r.bmp	492	1	GWWG	492	1	blank2r.bmp	572	2	retten	866	1	!	1239	1	!	-1	0	0	0	0	0	0	0	0	0	0	0	0	0	0	0	0	0	0	0	0	0	0	0	0	0	0	0	0	0	0
070319	10:23:13	10:32:23	548404	5.0.10.0	5_exp_RW	3	Rpleas_acq	CS_B	MQQM	GWWG	BZZB	JXXJ	YDDY	VKKV	spielen	treu	fair	schön	retten	ehrlich	strafen	tot	faul	schlecht	rächen	eitel	1	acq_USpleas_CSpleas1_RW	acq4567_RW	5	15	400	1	300	300	457	50	0	1	1	blank2r.bmp	0	1	+	0	1	blank2r.bmp	492	1	MQQM	492	1	blank2r.bmp	572	1	spielen	866	1	!	1239	1	!	1359	0	0	0	0	0	0	0	0	0	0	0	0	0	0	0	0	0	0	0	0	0	0	0	0	0	0	0	0	0	0
070319	10:23:13	10:32:25	550723	5.0.10.0	5_exp_RW	3	Rpleas_acq	CS_B	MQQM	GWWG	BZZB	JXXJ	YDDY	VKKV	spielen	treu	fair	schön	retten	ehrlich	strafen	tot	faul	schlecht	rächen	eitel	1	acq_USunple_CSunple1_RW	acq4567_RW	5	16	400	0	300	300	554	46	0	1	1	blank2r.bmp	0	1	+	0	1	blank2r.bmp	492	1	BZZB	492	1	blank2r.bmp	572	3	faul	866	1	!	1239	1	!	-1	0	0	0	0	0	0	0	0	0	0	0	0	0	0	0	0	0	0	0	0	0	0	0	0	0	0	0	0	0	0
070319	10:23:13	10:32:28	552935	5.0.10.0	5_exp_RW	3	Rpleas_acq	CS_B	MQQM	GWWG	BZZB	JXXJ	YDDY	VKKV	spielen	treu	fair	schön	retten	ehrlich	strafen	tot	faul	schlecht	rächen	eitel	1	acq_USpleas_CSpleas1_RW	acq4567_RW	5	17	400	1	300	300	401	50	0	1	1	blank2r.bmp	0	1	+	0	1	blank2r.bmp	492	1	MQQM	492	1	blank2r.bmp	572	2	treu	866	1	!	1239	1	!	1306	0	0	0	0	0	0	0	0	0	0	0	0	0	0	0	0	0	0	0	0	0	0	0	0	0	0	0	0	0	0
070319	10:23:13	10:32:30	555348	5.0.10.0	5_exp_RW	3	Rpleas_acq	CS_B	MQQM	GWWG	BZZB	JXXJ	YDDY	VKKV	spielen	treu	fair	schön	retten	ehrlich	strafen	tot	faul	schlecht	rächen	eitel	1	acq_USpleas_CSpleas2_RW	acq4567_RW	5	18	400	0	300	300	645	50	0	1	1	blank2r.bmp	0	1	+	0	1	blank2r.bmp	492	1	GWWG	492	1	blank2r.bmp	572	1	schön	866	1	!	1239	1	!	-1	0	0	0	0	0	0	0	0	0	0	0	0	0	0	0	0	0	0	0	0	0	0	0	0	0	0	0	0	0	0
070319	10:23:13	10:32:32	557560	5.0.10.0	5_exp_RW	3	Rpleas_acq	CS_B	MQQM	GWWG	BZZB	JXXJ	YDDY	VKKV	spielen	treu	fair	schön	retten	ehrlich	strafen	tot	faul	schlecht	rächen	eitel	1	acq_USunple_CSunple1_RW	acq4567_RW	5	19	400	1	300	300	410	46	0	1	1	blank2r.bmp	0	1	+	0	1	blank2r.bmp	492	1	BZZB	492	1	blank2r.bmp	572	2	tot	866	1	!	1239	1	!	1306	0	0	0	0	0	0	0	0	0	0	0	0	0	0	0	0	0	0	0	0	0	0	0	0	0	0	0	0	0	0
070319	10:23:13	10:32:35	559879	5.0.10.0	5_exp_RW	3	Rpleas_acq	CS_B	MQQM	GWWG	BZZB	JXXJ	YDDY	VKKV	spielen	treu	fair	schön	retten	ehrlich	strafen	tot	faul	schlecht	rächen	eitel	1	acq_USpleas_CSpleas2_RW	acq4567_RW	5	20	400	0	300	300	545	50	0	1	1	blank2r.bmp	0	1	+	0	1	blank2r.bmp	492	1	GWWG	492	1	blank2r.bmp	572	3	ehrlich	866	1	!	1239	1	!	-1	0	0	0	0	0	0	0	0	0	0	0	0	0	0	0	0	0	0	0	0	0	0	0	0	0	0	0	0	0	0
070319	10:23:13	10:32:37	562331	5.0.10.0	5_exp_RW	3	Rpleas_acq	CS_B	MQQM	GWWG	BZZB	JXXJ	YDDY	VKKV	spielen	treu	fair	schön	retten	ehrlich	strafen	tot	faul	schlecht	rächen	eitel	1	acq_USpleas_CSpleas2_RW	acq4567_RW	5	21	400	0	300	300	666	50	0	1	1	blank2r.bmp	0	1	+	0	1	blank2r.bmp	492	1	GWWG	492	1	blank2r.bmp	572	2	retten	866	1	!	1239	1	!	-1	0	0	0	0	0	0	0	0	0	0	0	0	0	0	0	0	0	0	0	0	0	0	0	0	0	0	0	0	0	0
070319	10:23:13	10:32:39	564517	5.0.10.0	5_exp_RW	3	Rpleas_acq	CS_B	MQQM	GWWG	BZZB	JXXJ	YDDY	VKKV	spielen	treu	fair	schön	retten	ehrlich	strafen	tot	faul	schlecht	rächen	eitel	1	acq_USpleas_CSpleas1_RW	acq4567_RW	5	22	400	1	300	300	380	46	0	0	1	blank2r.bmp	0	1	+	0	1	blank2r.bmp	492	1	MQQM	492	1	blank2r.bmp	572	3	fair	866	1	!	1239	1	!	1279	0	0	0	0	0	0	0	0	0	0	0	0	0	0	0	0	0	0	0	0	0	0	0	0	0	0	0	0	0	0
070319	10:23:13	10:32:42	566943	5.0.10.0	5_exp_RW	3	Rpleas_acq	CS_B	MQQM	GWWG	BZZB	JXXJ	YDDY	VKKV	spielen	treu	fair	schön	retten	ehrlich	strafen	tot	faul	schlecht	rächen	eitel	1	acq_USunple_CSunple2_RW	acq4567_RW	5	23	400	0	300	300	644	46	0	1	1	blank2r.bmp	0	1	+	0	1	blank2r.bmp	492	1	JXXJ	492	1	blank2r.bmp	572	2	rächen	866	1	!	1239	1	!	-1	0	0	0	0	0	0	0	0	0	0	0	0	0	0	0	0	0	0	0	0	0	0	0	0	0	0	0	0	0	0
070319	10:23:13	10:32:44	569235	5.0.10.0	5_exp_RW	3	Rpleas_acq	CS_B	MQQM	GWWG	BZZB	JXXJ	YDDY	VKKV	spielen	treu	fair	schön	retten	ehrlich	strafen	tot	faul	schlecht	rächen	eitel	1	acq_USpleas_CSpleas2_RW	acq4567_RW	5	24	400	0	300	300	518	50	0	1	1	blank2r.bmp	0	1	+	0	1	blank2r.bmp	492	1	GWWG	492	1	blank2r.bmp	572	3	ehrlich	866	1	!	1239	1	!	-1	0	0	0	0	0	0	0	0	0	0	0	0	0	0	0	0	0	0	0	0	0	0	0	0	0	0	0	0	0	0
070319	10:23:13	10:32:46	571581	5.0.10.0	5_exp_RW	3	Rpleas_acq	CS_B	MQQM	GWWG	BZZB	JXXJ	YDDY	VKKV	spielen	treu	fair	schön	retten	ehrlich	strafen	tot	faul	schlecht	rächen	eitel	1	acq_USunple_CSunple2_RW	acq4567_RW	5	25	400	0	300	300	563	46	0	1	1	blank2r.bmp	0	1	+	0	1	blank2r.bmp	492	1	JXXJ	492	1	blank2r.bmp	572	1	schlecht	866	1	!	1239	1	!	-1	0	0	0	0	0	0	0	0	0	0	0	0	0	0	0	0	0	0	0	0	0	0	0	0	0	0	0	0	0	0
070319	10:23:13	10:32:49	573793	5.0.10.0	5_exp_RW	3	Rpleas_acq	CS_B	MQQM	GWWG	BZZB	JXXJ	YDDY	VKKV	spielen	treu	fair	schön	retten	ehrlich	strafen	tot	faul	schlecht	rächen	eitel	1	acq_USpleas_CSpleas2_RW	acq4567_RW	5	26	400	1	300	300	407	46	0	0	1	blank2r.bmp	0	1	+	0	1	blank2r.bmp	492	1	GWWG	492	1	blank2r.bmp	572	2	retten	866	1	!	1239	1	!	1306	0	0	0	0	0	0	0	0	0	0	0	0	0	0	0	0	0	0	0	0	0	0	0	0	0	0	0	0	0	0
070319	10:23:13	10:32:51	576233	5.0.10.0	5_exp_RW	3	Rpleas_acq	CS_B	MQQM	GWWG	BZZB	JXXJ	YDDY	VKKV	spielen	treu	fair	schön	retten	ehrlich	strafen	tot	faul	schlecht	rächen	eitel	1	acq_USunple_CSunple1_RW	acq4567_RW	5	27	400	0	300	300	669	46	0	1	1	blank2r.bmp	0	1	+	0	1	blank2r.bmp	492	1	BZZB	492	1	blank2r.bmp	572	1	strafen	866	1	!	1239	1	!	-1	0	0	0	0	0	0	0	0	0	0	0	0	0	0	0	0	0	0	0	0	0	0	0	0	0	0	0	0	0	0
070319	10:23:13	10:32:53	578512	5.0.10.0	5_exp_RW	3	Rpleas_acq	CS_B	MQQM	GWWG	BZZB	JXXJ	YDDY	VKKV	spielen	treu	fair	schön	retten	ehrlich	strafen	tot	faul	schlecht	rächen	eitel	1	acq_USunple_CSunple1_RW	acq4567_RW	5	28	400	0	300	300	500	46	0	1	1	blank2r.bmp	0	1	+	0	1	blank2r.bmp	492	1	BZZB	492	1	blank2r.bmp	572	2	tot	866	1	!	1239	1	!	-1	0	0	0	0	0	0	0	0	0	0	0	0	0	0	0	0	0	0	0	0	0	0	0	0	0	0	0	0	0	0
070319	10:23:13	10:32:56	580751	5.0.10.0	5_exp_RW	3	Rpleas_acq	CS_B	MQQM	GWWG	BZZB	JXXJ	YDDY	VKKV	spielen	treu	fair	schön	retten	ehrlich	strafen	tot	faul	schlecht	rächen	eitel	1	acq_USpleas_CSpleas1_RW	acq4567_RW	5	29	400	1	300	300	415	50	0	1	1	blank2r.bmp	0	1	+	0	1	blank2r.bmp	492	1	MQQM	492	1	blank2r.bmp	572	3	fair	866	1	!	1239	1	!	1319	0	0	0	0	0	0	0	0	0	0	0	0	0	0	0	0	0	0	0	0	0	0	0	0	0	0	0	0	0	0
070319	10:23:13	10:32:58	583310	5.0.10.0	5_exp_RW	3	Rpleas_acq	CS_B	MQQM	GWWG	BZZB	JXXJ	YDDY	VKKV	spielen	treu	fair	schön	retten	ehrlich	strafen	tot	faul	schlecht	rächen	eitel	1	acq_USpleas_CSpleas1_RW	acq4567_RW	5	30	400	0	300	300	792	50	0	1	1	blank2r.bmp	0	1	+	0	1	blank2r.bmp	492	1	MQQM	492	1	blank2r.bmp	572	2	treu	866	1	!	1239	1	!	-1	0	0	0	0	0	0	0	0	0	0	0	0	0	0	0	0	0	0	0	0	0	0	0	0	0	0	0	0	0	0
070319	10:23:13	10:33:00	585602	5.0.10.0	5_exp_RW	3	Rpleas_acq	CS_B	MQQM	GWWG	BZZB	JXXJ	YDDY	VKKV	spielen	treu	fair	schön	retten	ehrlich	strafen	tot	faul	schlecht	rächen	eitel	1	acq_USunple_CSunple1_RW	acq4567_RW	5	31	400	0	300	300	505	46	0	1	1	blank2r.bmp	0	1	+	0	1	blank2r.bmp	492	1	BZZB	492	1	blank2r.bmp	572	1	strafen	866	1	!	1239	1	!	-1	0	0	0	0	0	0	0	0	0	0	0	0	0	0	0	0	0	0	0	0	0	0	0	0	0	0	0	0	0	0
070319	10:23:13	10:33:03	588081	5.0.10.0	5_exp_RW	3	Rpleas_acq	CS_B	MQQM	GWWG	BZZB	JXXJ	YDDY	VKKV	spielen	treu	fair	schön	retten	ehrlich	strafen	tot	faul	schlecht	rächen	eitel	1	acq_USpleas_CSpleas1_RW	acq4567_RW	5	32	400	0	300	300	696	50	0	1	1	blank2r.bmp	0	1	+	0	1	blank2r.bmp	492	1	MQQM	492	1	blank2r.bmp	572	1	spielen	866	1	!	1239	1	!	-1	0	0	0	0	0	0	0	0	0	0	0	0	0	0	0	0	0	0	0	0	0	0	0	0	0	0	0	0	0	0
070319	10:23:13	10:33:05	590413	5.0.10.0	5_exp_RW	3	Rpleas_acq	CS_B	MQQM	GWWG	BZZB	JXXJ	YDDY	VKKV	spielen	treu	fair	schön	retten	ehrlich	strafen	tot	faul	schlecht	rächen	eitel	1	acq_USpleas_CSpleas2_RW	acq4567_RW	5	33	400	0	300	300	553	50	0	1	1	blank2r.bmp	0	1	+	0	1	blank2r.bmp	492	1	GWWG	492	1	blank2r.bmp	572	1	schön	866	1	!	1239	1	!	-1	0	0	0	0	0	0	0	0	0	0	0	0	0	0	0	0	0	0	0	0	0	0	0	0	0	0	0	0	0	0
070319	10:23:13	10:33:07	592599	5.0.10.0	5_exp_RW	3	Rpleas_acq	CS_B	MQQM	GWWG	BZZB	JXXJ	YDDY	VKKV	spielen	treu	fair	schön	retten	ehrlich	strafen	tot	faul	schlecht	rächen	eitel	1	acq_USunple_CSunple2_RW	acq4567_RW	5	34	400	1	300	300	363	50	0	0	1	blank2r.bmp	0	1	+	0	1	blank2r.bmp	492	1	JXXJ	492	1	blank2r.bmp	572	3	eitel	866	1	!	1239	1	!	1266	0	0	0	0	0	0	0	0	0	0	0	0	0	0	0	0	0	0	0	0	0	0	0	0	0	0	0	0	0	0
070319	10:23:13	10:33:10	594825	5.0.10.0	5_exp_RW	3	Rpleas_acq	CS_B	MQQM	GWWG	BZZB	JXXJ	YDDY	VKKV	spielen	treu	fair	schön	retten	ehrlich	strafen	tot	faul	schlecht	rächen	eitel	1	acq_USunple_CSunple2_RW	acq4567_RW	5	35	400	1	300	300	428	46	0	1	1	blank2r.bmp	0	1	+	0	1	blank2r.bmp	492	1	JXXJ	492	1	blank2r.bmp	572	2	rächen	866	1	!	1239	1	!	1332	0	0	0	0	0	0	0	0	0	0	0	0	0	0	0	0	0	0	0	0	0	0	0	0	0	0	0	0	0	0
070319	10:23:13	10:33:12	597171	5.0.10.0	5_exp_RW	3	Rpleas_acq	CS_B	MQQM	GWWG	BZZB	JXXJ	YDDY	VKKV	spielen	treu	fair	schön	retten	ehrlich	strafen	tot	faul	schlecht	rächen	eitel	1	acq_USunple_CSunple1_RW	acq4567_RW	5	36	400	0	300	300	569	46	0	1	1	blank2r.bmp	0	1	+	0	1	blank2r.bmp	492	1	BZZB	492	1	blank2r.bmp	572	3	faul	866	1	!	1239	1	!	-1	0	0	0	0	0	0	0	0	0	0	0	0	0	0	0	0	0	0	0	0	0	0	0	0	0	0	0	0	0	0
070319	10:23:13	10:33:14	599490	5.0.10.0	5_exp_RW	3	Rpleas_acq	CS_B	MQQM	GWWG	BZZB	JXXJ	YDDY	VKKV	spielen	treu	fair	schön	retten	ehrlich	strafen	tot	faul	schlecht	rächen	eitel	1	acq_USunple_CSunple1_RW	acq4567_RW	5	37	400	0	300	300	544	46	0	1	1	blank2r.bmp	0	1	+	0	1	blank2r.bmp	492	1	BZZB	492	1	blank2r.bmp	572	2	tot	866	1	!	1239	1	!	-1	0	0	0	0	0	0	0	0	0	0	0	0	0	0	0	0	0	0	0	0	0	0	0	0	0	0	0	0	0	0
070319	10:23:13	10:33:17	601782	5.0.10.0	5_exp_RW	3	Rpleas_acq	CS_B	MQQM	GWWG	BZZB	JXXJ	YDDY	VKKV	spielen	treu	fair	schön	retten	ehrlich	strafen	tot	faul	schlecht	rächen	eitel	1	acq_USpleas_CSpleas1_RW	acq4567_RW	5	38	400	0	300	300	516	46	0	0	1	blank2r.bmp	0	1	+	0	1	blank2r.bmp	492	1	MQQM	492	1	blank2r.bmp	572	3	fair	866	1	!	1239	1	!	-1	0	0	0	0	0	0	0	0	0	0	0	0	0	0	0	0	0	0	0	0	0	0	0	0	0	0	0	0	0	0
070319	10:23:13	10:33:19	603981	5.0.10.0	5_exp_RW	3	Rpleas_acq	CS_B	MQQM	GWWG	BZZB	JXXJ	YDDY	VKKV	spielen	treu	fair	schön	retten	ehrlich	strafen	tot	faul	schlecht	rächen	eitel	1	acq_USpleas_CSpleas2_RW	acq4567_RW	5	39	400	1	300	300	386	50	0	1	1	blank2r.bmp	0	1	+	0	1	blank2r.bmp	492	1	GWWG	492	1	blank2r.bmp	572	1	schön	866	1	!	1239	1	!	1292	0	0	0	0	0	0	0	0	0	0	0	0	0	0	0	0	0	0	0	0	0	0	0	0	0	0	0	0	0	0
070319	10:23:13	10:33:21	606234	5.0.10.0	5_exp_RW	3	Rpleas_acq	CS_B	MQQM	GWWG	BZZB	JXXJ	YDDY	VKKV	spielen	treu	fair	schön	retten	ehrlich	strafen	tot	faul	schlecht	rächen	eitel	1	acq_USunple_CSunple2_RW	acq4567_RW	5	40	400	0	300	300	484	46	0	1	1	blank2r.bmp	0	1	+	0	1	blank2r.bmp	492	1	JXXJ	492	1	blank2r.bmp	572	3	eitel	866	1	!	1239	1	!	-1	0	0	0	0	0	0	0	0	0	0	0	0	0	0	0	0	0	0	0	0	0	0	0	0	0	0	0	0	0	0
070319	10:23:13	10:33:23	608513	5.0.10.0	5_exp_RW	3	Rpleas_acq	CS_B	MQQM	GWWG	BZZB	JXXJ	YDDY	VKKV	spielen	treu	fair	schön	retten	ehrlich	strafen	tot	faul	schlecht	rächen	eitel	1	acq_USunple_CSunple1_RW	acq4567_RW	5	41	400	0	300	300	486	46	0	1	1	blank2r.bmp	0	1	+	0	1	blank2r.bmp	492	1	BZZB	492	1	blank2r.bmp	572	3	faul	866	1	!	1239	1	!	-1	0	0	0	0	0	0	0	0	0	0	0	0	0	0	0	0	0	0	0	0	0	0	0	0	0	0	0	0	0	0
070319	10:23:13	10:33:25	610699	5.0.10.0	5_exp_RW	3	Rpleas_acq	CS_B	MQQM	GWWG	BZZB	JXXJ	YDDY	VKKV	spielen	treu	fair	schön	retten	ehrlich	strafen	tot	faul	schlecht	rächen	eitel	1	acq_USpleas_CSpleas1_RW	acq4567_RW	5	42	400	1	300	300	378	50	0	1	1	blank2r.bmp	0	1	+	0	1	blank2r.bmp	492	1	MQQM	492	1	blank2r.bmp	572	2	treu	866	1	!	1239	1	!	1279	0	0	0	0	0	0	0	0	0	0	0	0	0	0	0	0	0	0	0	0	0	0	0	0	0	0	0	0	0	0
070319	10:23:13	10:33:28	612951	5.0.10.0	5_exp_RW	3	Rpleas_acq	CS_B	MQQM	GWWG	BZZB	JXXJ	YDDY	VKKV	spielen	treu	fair	schön	retten	ehrlich	strafen	tot	faul	schlecht	rächen	eitel	1	acq_USunple_CSunple2_RW	acq4567_RW	5	43	400	0	300	300	487	46	0	1	1	blank2r.bmp	0	1	+	0	1	blank2r.bmp	492	1	JXXJ	492	1	blank2r.bmp	572	2	rächen	866	1	!	1239	1	!	-1	0	0	0	0	0	0	0	0	0	0	0	0	0	0	0	0	0	0	0	0	0	0	0	0	0	0	0	0	0	0
070319	10:23:13	10:33:30	615150	5.0.10.0	5_exp_RW	3	Rpleas_acq	CS_B	MQQM	GWWG	BZZB	JXXJ	YDDY	VKKV	spielen	treu	fair	schön	retten	ehrlich	strafen	tot	faul	schlecht	rächen	eitel	1	acq_USpleas_CSpleas2_RW	acq4567_RW	5	44	400	1	300	300	395	50	0	1	1	blank2r.bmp	0	1	+	0	1	blank2r.bmp	492	1	GWWG	492	1	blank2r.bmp	572	3	ehrlich	866	1	!	1239	1	!	1292	0	0	0	0	0	0	0	0	0	0	0	0	0	0	0	0	0	0	0	0	0	0	0	0	0	0	0	0	0	0
070319	10:23:13	10:33:32	617323	5.0.10.0	5_exp_RW	3	Rpleas_acq	CS_B	MQQM	GWWG	BZZB	JXXJ	YDDY	VKKV	spielen	treu	fair	schön	retten	ehrlich	strafen	tot	faul	schlecht	rächen	eitel	1	acq_USunple_CSunple1_RW	acq4567_RW	5	45	400	1	300	300	377	46	0	1	1	blank2r.bmp	0	1	+	0	1	blank2r.bmp	492	1	BZZB	492	1	blank2r.bmp	572	1	strafen	866	1	!	1239	1	!	1279	0	0	0	0	0	0	0	0	0	0	0	0	0	0	0	0	0	0	0	0	0	0	0	0	0	0	0	0	0	0
070319	10:23:13	10:33:34	619575	5.0.10.0	5_exp_RW	3	Rpleas_acq	CS_B	MQQM	GWWG	BZZB	JXXJ	YDDY	VKKV	spielen	treu	fair	schön	retten	ehrlich	strafen	tot	faul	schlecht	rächen	eitel	1	acq_USunple_CSunple2_RW	acq4567_RW	5	46	400	1	300	300	442	50	0	0	1	blank2r.bmp	0	1	+	0	1	blank2r.bmp	492	1	JXXJ	492	1	blank2r.bmp	572	1	schlecht	866	1	!	1239	1	!	1346	0	0	0	0	0	0	0	0	0	0	0	0	0	0	0	0	0	0	0	0	0	0	0	0	0	0	0	0	0	0
070319	10:23:13	10:33:37	621854	5.0.10.0	5_exp_RW	3	Rpleas_acq	CS_B	MQQM	GWWG	BZZB	JXXJ	YDDY	VKKV	spielen	treu	fair	schön	retten	ehrlich	strafen	tot	faul	schlecht	rächen	eitel	1	acq_USunple_CSunple2_RW	acq4567_RW	5	47	400	0	300	300	507	46	0	1	1	blank2r.bmp	0	1	+	0	1	blank2r.bmp	492	1	JXXJ	492	1	blank2r.bmp	572	2	rächen	866	1	!	1239	1	!	-1	0	0	0	0	0	0	0	0	0	0	0	0	0	0	0	0	0	0	0	0	0	0	0	0	0	0	0	0	0	0
070319	10:23:13	10:33:39	623933	5.0.10.0	5_exp_RW	3	Rpleas_acq	CS_B	MQQM	GWWG	BZZB	JXXJ	YDDY	VKKV	spielen	treu	fair	schön	retten	ehrlich	strafen	tot	faul	schlecht	rächen	eitel	1	acq_USpleas_CSpleas2_RW	acq4567_RW	5	48	400	0	300	300	294	50	0	1	1	blank2r.bmp	0	1	+	0	1	blank2r.bmp	492	1	GWWG	492	1	blank2r.bmp	572	2	retten	866	1	!	-1	1	!	-1	0	0	0	0	0	0	0	0	0	0	0	0	0	0	0	0	0	0	0	0	0	0	0	0	0	0	0	0	0	0
070319	10:23:13	10:33:41	626239	5.0.10.0	5_exp_RW	3	Rpleas_acq	CS_B	MQQM	GWWG	BZZB	JXXJ	YDDY	VKKV	spielen	treu	fair	schön	retten	ehrlich	strafen	tot	faul	schlecht	rächen	eitel	1	acq_USunple_CSunple1_RW	acq4567_RW	5	49	400	0	300	300	524	46	0	1	1	blank2r.bmp	0	1	+	0	1	blank2r.bmp	492	1	BZZB	492	1	blank2r.bmp	572	2	tot	866	1	!	1239	1	!	-1	0	0	0	0	0	0	0	0	0	0	0	0	0	0	0	0	0	0	0	0	0	0	0	0	0	0	0	0	0	0
070319	10:23:13	10:33:43	628558	5.0.10.0	5_exp_RW	3	Rpleas_acq	CS_B	MQQM	GWWG	BZZB	JXXJ	YDDY	VKKV	spielen	treu	fair	schön	retten	ehrlich	strafen	tot	faul	schlecht	rächen	eitel	1	acq_USpleas_CSpleas1_RW	acq4567_RW	5	50	400	0	300	300	539	50	0	1	1	blank2r.bmp	0	1	+	0	1	blank2r.bmp	492	1	MQQM	492	1	blank2r.bmp	572	1	spielen	866	1	!	1239	1	!	-1	0	0	0	0	0	0	0	0	0	0	0	0	0	0	0	0	0	0	0	0	0	0	0	0	0	0	0	0	0	0
070319	10:23:13	10:33:46	630757	5.0.10.0	5_exp_RW	3	Rpleas_acq	CS_B	MQQM	GWWG	BZZB	JXXJ	YDDY	VKKV	spielen	treu	fair	schön	retten	ehrlich	strafen	tot	faul	schlecht	rächen	eitel	1	acq_USunple_CSunple2_RW	acq4567_RW	5	51	400	1	300	300	396	46	0	1	1	blank2r.bmp	0	1	+	0	1	blank2r.bmp	492	1	JXXJ	492	1	blank2r.bmp	572	3	eitel	866	1	!	1239	1	!	1292	0	0	0	0	0	0	0	0	0	0	0	0	0	0	0	0	0	0	0	0	0	0	0	0	0	0	0	0	0	0
070319	10:23:13	10:33:48	632930	5.0.10.0	5_exp_RW	3	Rpleas_acq	CS_B	MQQM	GWWG	BZZB	JXXJ	YDDY	VKKV	spielen	treu	fair	schön	retten	ehrlich	strafen	tot	faul	schlecht	rächen	eitel	1	acq_USpleas_CSpleas2_RW	acq4567_RW	5	52	400	1	300	300	374	50	0	1	1	blank2r.bmp	0	1	+	0	1	blank2r.bmp	492	1	GWWG	492	1	blank2r.bmp	572	1	schön	866	1	!	1239	1	!	1279	0	0	0	0	0	0	0	0	0	0	0	0	0	0	0	0	0	0	0	0	0	0	0	0	0	0	0	0	0	0
070319	10:23:13	10:33:50	635115	5.0.10.0	5_exp_RW	3	Rpleas_acq	CS_B	MQQM	GWWG	BZZB	JXXJ	YDDY	VKKV	spielen	treu	fair	schön	retten	ehrlich	strafen	tot	faul	schlecht	rächen	eitel	1	acq_USpleas_CSpleas2_RW	acq4567_RW	5	53	400	1	300	300	392	46	0	0	1	blank2r.bmp	0	1	+	0	1	blank2r.bmp	492	1	GWWG	492	1	blank2r.bmp	572	2	retten	866	1	!	1239	1	!	1292	0	0	0	0	0	0	0	0	0	0	0	0	0	0	0	0	0	0	0	0	0	0	0	0	0	0	0	0	0	0
070319	10:23:13	10:33:52	637408	5.0.10.0	5_exp_RW	3	Rpleas_acq	CS_B	MQQM	GWWG	BZZB	JXXJ	YDDY	VKKV	spielen	treu	fair	schön	retten	ehrlich	strafen	tot	faul	schlecht	rächen	eitel	1	acq_USpleas_CSpleas2_RW	acq4567_RW	5	54	400	0	300	300	528	50	0	1	1	blank2r.bmp	0	1	+	0	1	blank2r.bmp	492	1	GWWG	492	1	blank2r.bmp	572	3	ehrlich	866	1	!	1239	1	!	-1	0	0	0	0	0	0	0	0	0	0	0	0	0	0	0	0	0	0	0	0	0	0	0	0	0	0	0	0	0	0
070319	10:23:13	10:33:55	639807	5.0.10.0	5_exp_RW	3	Rpleas_acq	CS_B	MQQM	GWWG	BZZB	JXXJ	YDDY	VKKV	spielen	treu	fair	schön	retten	ehrlich	strafen	tot	faul	schlecht	rächen	eitel	1	acq_USunple_CSunple1_RW	acq4567_RW	5	55	400	0	300	300	616	46	0	1	1	blank2r.bmp	0	1	+	0	1	blank2r.bmp	492	1	BZZB	492	1	blank2r.bmp	572	3	faul	866	1	!	1239	1	!	-1	0	0	0	0	0	0	0	0	0	0	0	0	0	0	0	0	0	0	0	0	0	0	0	0	0	0	0	0	0	0
070319	10:23:13	10:33:57	642072	5.0.10.0	5_exp_RW	3	Rpleas_acq	CS_B	MQQM	GWWG	BZZB	JXXJ	YDDY	VKKV	spielen	treu	fair	schön	retten	ehrlich	strafen	tot	faul	schlecht	rächen	eitel	1	acq_USunple_CSunple2_RW	acq4567_RW	5	56	400	1	300	300	452	50	0	0	1	blank2r.bmp	0	1	+	0	1	blank2r.bmp	492	1	JXXJ	492	1	blank2r.bmp	572	1	schlecht	866	1	!	1239	1	!	1359	0	0	0	0	0	0	0	0	0	0	0	0	0	0	0	0	0	0	0	0	0	0	0	0	0	0	0	0	0	0
070319	10:23:13	10:33:59	644498	5.0.10.0	5_exp_RW	3	Rpleas_acq	CS_B	MQQM	GWWG	BZZB	JXXJ	YDDY	VKKV	spielen	treu	fair	schön	retten	ehrlich	strafen	tot	faul	schlecht	rächen	eitel	1	acq_USpleas_CSpleas1_RW	acq4567_RW	5	57	400	0	300	300	655	50	0	1	1	blank2r.bmp	0	1	+	0	1	blank2r.bmp	492	1	MQQM	492	1	blank2r.bmp	572	1	spielen	866	1	!	1239	1	!	-1	0	0	0	0	0	0	0	0	0	0	0	0	0	0	0	0	0	0	0	0	0	0	0	0	0	0	0	0	0	0
070319	10:23:13	10:34:02	646777	5.0.10.0	5_exp_RW	3	Rpleas_acq	CS_B	MQQM	GWWG	BZZB	JXXJ	YDDY	VKKV	spielen	treu	fair	schön	retten	ehrlich	strafen	tot	faul	schlecht	rächen	eitel	1	acq_USunple_CSunple1_RW	acq4567_RW	5	58	400	0	300	300	479	46	0	1	1	blank2r.bmp	0	1	+	0	1	blank2r.bmp	492	1	BZZB	492	1	blank2r.bmp	572	1	strafen	866	1	!	1239	1	!	-1	0	0	0	0	0	0	0	0	0	0	0	0	0	0	0	0	0	0	0	0	0	0	0	0	0	0	0	0	0	0
070319	10:23:13	10:34:04	649003	5.0.10.0	5_exp_RW	3	Rpleas_acq	CS_B	MQQM	GWWG	BZZB	JXXJ	YDDY	VKKV	spielen	treu	fair	schön	retten	ehrlich	strafen	tot	faul	schlecht	rächen	eitel	1	acq_USpleas_CSpleas1_RW	acq4567_RW	5	59	400	1	300	300	404	50	0	1	1	blank2r.bmp	0	1	+	0	1	blank2r.bmp	492	1	MQQM	492	1	blank2r.bmp	572	3	fair	866	1	!	1239	1	!	1306	0	0	0	0	0	0	0	0	0	0	0	0	0	0	0	0	0	0	0	0	0	0	0	0	0	0	0	0	0	0
070319	10:23:13	10:34:06	651269	5.0.10.0	5_exp_RW	3	Rpleas_acq	CS_B	MQQM	GWWG	BZZB	JXXJ	YDDY	VKKV	spielen	treu	fair	schön	retten	ehrlich	strafen	tot	faul	schlecht	rächen	eitel	1	acq_USpleas_CSpleas1_RW	acq4567_RW	5	60	400	0	300	300	504	50	0	1	1	blank2r.bmp	0	1	+	0	1	blank2r.bmp	492	1	MQQM	492	1	blank2r.bmp	572	2	treu	866	1	!	1239	1	!	-1	0	0	0	0	0	0	0	0	0	0	0	0	0	0	0	0	0	0	0	0	0	0	0	0	0	0	0	0	0	0
070319	10:23:13	10:34:08	653561	5.0.10.0	5_exp_RW	3	Rpleas_acq	CS_B	MQQM	GWWG	BZZB	JXXJ	YDDY	VKKV	spielen	treu	fair	schön	retten	ehrlich	strafen	tot	faul	schlecht	rächen	eitel	1	acq_USunple_CSunple2_RW	acq4567_RW	5	61	400	0	300	300	500	46	0	1	1	blank2r.bmp	0	1	+	0	1	blank2r.bmp	492	1	JXXJ	492	1	blank2r.bmp	572	2	rächen	866	1	!	1239	1	!	-1	0	0	0	0	0	0	0	0	0	0	0	0	0	0	0	0	0	0	0	0	0	0	0	0	0	0	0	0	0	0
070319	10:23:13	10:34:11	655894	5.0.10.0	5_exp_RW	3	Rpleas_acq	CS_B	MQQM	GWWG	BZZB	JXXJ	YDDY	VKKV	spielen	treu	fair	schön	retten	ehrlich	strafen	tot	faul	schlecht	rächen	eitel	1	acq_USunple_CSunple2_RW	acq4567_RW	5	62	400	0	300	300	535	50	0	0	1	blank2r.bmp	0	1	+	0	1	blank2r.bmp	492	1	JXXJ	492	1	blank2r.bmp	572	1	schlecht	866	1	!	1239	1	!	-1	0	0	0	0	0	0	0	0	0	0	0	0	0	0	0	0	0	0	0	0	0	0	0	0	0	0	0	0	0	0
070319	10:23:13	10:34:13	658346	5.0.10.0	5_exp_RW	3	Rpleas_acq	CS_B	MQQM	GWWG	BZZB	JXXJ	YDDY	VKKV	spielen	treu	fair	schön	retten	ehrlich	strafen	tot	faul	schlecht	rächen	eitel	1	acq_USpleas_CSpleas1_RW	acq4567_RW	5	63	400	0	300	300	677	46	0	0	1	blank2r.bmp	0	1	+	0	1	blank2r.bmp	492	1	MQQM	492	1	blank2r.bmp	572	2	treu	866	1	!	1239	1	!	-1	0	0	0	0	0	0	0	0	0	0	0	0	0	0	0	0	0	0	0	0	0	0	0	0	0	0	0	0	0	0
070319	10:23:13	10:34:15	660612	5.0.10.0	5_exp_RW	3	Rpleas_acq	CS_B	MQQM	GWWG	BZZB	JXXJ	YDDY	VKKV	spielen	treu	fair	schön	retten	ehrlich	strafen	tot	faul	schlecht	rächen	eitel	1	acq_USpleas_CSpleas2_RW	acq4567_RW	5	64	400	0	300	300	479	50	0	1	1	blank2r.bmp	0	1	+	0	1	blank2r.bmp	492	1	GWWG	492	1	blank2r.bmp	572	3	ehrlich	866	1	!	1239	1	!	-1	0	0	0	0	0	0	0	0	0	0	0	0	0	0	0	0	0	0	0	0	0	0	0	0	0	0	0	0	0	0
070319	10:23:13	10:34:18	662837	5.0.10.0	5_exp_RW	3	Rpleas_acq	CS_B	MQQM	GWWG	BZZB	JXXJ	YDDY	VKKV	spielen	treu	fair	schön	retten	ehrlich	strafen	tot	faul	schlecht	rächen	eitel	1	acq_USpleas_CSpleas1_RW	acq4567_RW	5	65	400	1	300	300	424	50	0	1	1	blank2r.bmp	0	1	+	0	1	blank2r.bmp	492	1	MQQM	492	1	blank2r.bmp	572	1	spielen	866	1	!	1239	1	!	1319	0	0	0	0	0	0	0	0	0	0	0	0	0	0	0	0	0	0	0	0	0	0	0	0	0	0	0	0	0	0
070319	10:23:13	10:34:20	665263	5.0.10.0	5_exp_RW	3	Rpleas_acq	CS_B	MQQM	GWWG	BZZB	JXXJ	YDDY	VKKV	spielen	treu	fair	schön	retten	ehrlich	strafen	tot	faul	schlecht	rächen	eitel	1	acq_USunple_CSunple1_RW	acq4567_RW	5	66	400	0	300	300	653	50	0	0	1	blank2r.bmp	0	1	+	0	1	blank2r.bmp	492	1	BZZB	492	1	blank2r.bmp	572	2	tot	866	1	!	1239	1	!	-1	0	0	0	0	0	0	0	0	0	0	0	0	0	0	0	0	0	0	0	0	0	0	0	0	0	0	0	0	0	0
070319	10:23:13	10:34:22	667542	5.0.10.0	5_exp_RW	3	Rpleas_acq	CS_B	MQQM	GWWG	BZZB	JXXJ	YDDY	VKKV	spielen	treu	fair	schön	retten	ehrlich	strafen	tot	faul	schlecht	rächen	eitel	1	acq_USpleas_CSpleas2_RW	acq4567_RW	5	67	400	0	300	300	479	50	0	1	1	blank2r.bmp	0	1	+	0	1	blank2r.bmp	492	1	GWWG	492	1	blank2r.bmp	572	2	retten	866	1	!	1239	1	!	-1	0	0	0	0	0	0	0	0	0	0	0	0	0	0	0	0	0	0	0	0	0	0	0	0	0	0	0	0	0	0
070319	10:23:13	10:34:24	669728	5.0.10.0	5_exp_RW	3	Rpleas_acq	CS_B	MQQM	GWWG	BZZB	JXXJ	YDDY	VKKV	spielen	treu	fair	schön	retten	ehrlich	strafen	tot	faul	schlecht	rächen	eitel	1	acq_USunple_CSunple2_RW	acq4567_RW	5	68	400	1	300	300	372	46	0	1	1	blank2r.bmp	0	1	+	0	1	blank2r.bmp	492	1	JXXJ	492	1	blank2r.bmp	572	3	eitel	866	1	!	1239	1	!	1279	0	0	0	0	0	0	0	0	0	0	0	0	0	0	0	0	0	0	0	0	0	0	0	0	0	0	0	0	0	0
070319	10:23:13	10:34:27	672087	5.0.10.0	5_exp_RW	3	Rpleas_acq	CS_B	MQQM	GWWG	BZZB	JXXJ	YDDY	VKKV	spielen	treu	fair	schön	retten	ehrlich	strafen	tot	faul	schlecht	rächen	eitel	1	acq_USunple_CSunple2_RW	acq4567_RW	5	69	400	0	300	300	593	46	0	1	1	blank2r.bmp	0	1	+	0	1	blank2r.bmp	492	1	JXXJ	492	1	blank2r.bmp	572	1	schlecht	866	1	!	1239	1	!	-1	0	0	0	0	0	0	0	0	0	0	0	0	0	0	0	0	0	0	0	0	0	0	0	0	0	0	0	0	0	0
070319	10:23:13	10:34:29	674206	5.0.10.0	5_exp_RW	3	Rpleas_acq	CS_B	MQQM	GWWG	BZZB	JXXJ	YDDY	VKKV	spielen	treu	fair	schön	retten	ehrlich	strafen	tot	faul	schlecht	rächen	eitel	1	acq_USpleas_CSpleas1_RW	acq4567_RW	5	70	400	0	300	300	333	50	0	1	1	blank2r.bmp	0	1	+	0	1	blank2r.bmp	492	1	MQQM	492	1	blank2r.bmp	572	3	fair	866	1	!	-1	1	!	-1	0	0	0	0	0	0	0	0	0	0	0	0	0	0	0	0	0	0	0	0	0	0	0	0	0	0	0	0	0	0
070319	10:23:13	10:34:31	676392	5.0.10.0	5_exp_RW	3	Rpleas_acq	CS_B	MQQM	GWWG	BZZB	JXXJ	YDDY	VKKV	spielen	treu	fair	schön	retten	ehrlich	strafen	tot	faul	schlecht	rächen	eitel	1	acq_USunple_CSunple1_RW	acq4567_RW	5	71	400	1	300	300	373	46	0	1	1	blank2r.bmp	0	1	+	0	1	blank2r.bmp	492	1	BZZB	492	1	blank2r.bmp	572	3	faul	866	1	!	1239	1	!	1279	0	0	0	0	0	0	0	0	0	0	0	0	0	0	0	0	0	0	0	0	0	0	0	0	0	0	0	0	0	0
070319	10:23:13	10:34:33	678658	5.0.10.0	5_exp_RW	3	Rpleas_acq	CS_B	MQQM	GWWG	BZZB	JXXJ	YDDY	VKKV	spielen	treu	fair	schön	retten	ehrlich	strafen	tot	faul	schlecht	rächen	eitel	1	acq_USunple_CSunple1_RW	acq4567_RW	5	72	400	0	300	300	503	46	0	1	1	blank2r.bmp	0	1	+	0	1	blank2r.bmp	492	1	BZZB	492	1	blank2r.bmp	572	1	strafen	866	1	!	1239	1	!	-1	0	0	0	0	0	0	0	0	0	0	0	0	0	0	0	0	0	0	0	0	0	0	0	0	0	0	0	0	0	0
070319	10:23:13	10:34:36	680843	5.0.10.0	5_exp_RW	3	Rpleas_acq	CS_B	MQQM	GWWG	BZZB	JXXJ	YDDY	VKKV	spielen	treu	fair	schön	retten	ehrlich	strafen	tot	faul	schlecht	rächen	eitel	1	acq_USunple_CSunple2_RW	acq4567_RW	5	73	400	1	300	300	380	50	0	0	1	blank2r.bmp	0	1	+	0	1	blank2r.bmp	492	1	JXXJ	492	1	blank2r.bmp	572	2	rächen	866	1	!	1239	1	!	1279	0	0	0	0	0	0	0	0	0	0	0	0	0	0	0	0	0	0	0	0	0	0	0	0	0	0	0	0	0	0
070319	10:23:13	10:34:38	683163	5.0.10.0	5_exp_RW	3	Rpleas_acq	CS_B	MQQM	GWWG	BZZB	JXXJ	YDDY	VKKV	spielen	treu	fair	schön	retten	ehrlich	strafen	tot	faul	schlecht	rächen	eitel	1	acq_USpleas_CSpleas2_RW	acq4567_RW	5	74	400	0	300	300	541	50	0	1	1	blank2r.bmp	0	1	+	0	1	blank2r.bmp	492	1	GWWG	492	1	blank2r.bmp	572	1	schön	866	1	!	1239	1	!	-1	0	0	0	0	0	0	0	0	0	0	0	0	0	0	0	0	0	0	0	0	0	0	0	0	0	0	0	0	0	0
070319	10:23:13	10:34:40	685455	5.0.10.0	5_exp_RW	3	Rpleas_acq	CS_B	MQQM	GWWG	BZZB	JXXJ	YDDY	VKKV	spielen	treu	fair	schön	retten	ehrlich	strafen	tot	faul	schlecht	rächen	eitel	1	acq_USpleas_CSpleas2_RW	acq4567_RW	5	75	400	0	300	300	515	50	0	1	1	blank2r.bmp	0	1	+	0	1	blank2r.bmp	492	1	GWWG	492	1	blank2r.bmp	572	3	ehrlich	866	1	!	1239	1	!	-1	0	0	0	0	0	0	0	0	0	0	0	0	0	0	0	0	0	0	0	0	0	0	0	0	0	0	0	0	0	0
070319	10:23:13	10:34:42	687547	5.0.10.0	5_exp_RW	3	Rpleas_acq	CS_B	MQQM	GWWG	BZZB	JXXJ	YDDY	VKKV	spielen	treu	fair	schön	retten	ehrlich	strafen	tot	faul	schlecht	rächen	eitel	1	acq_USpleas_CSpleas1_RW	acq4567_RW	5	76	400	0	300	300	312	46	0	0	1	blank2r.bmp	0	1	+	0	1	blank2r.bmp	492	1	MQQM	492	1	blank2r.bmp	572	2	treu	866	1	!	-1	1	!	-1	0	0	0	0	0	0	0	0	0	0	0	0	0	0	0	0	0	0	0	0	0	0	0	0	0	0	0	0	0	0
070319	10:23:13	10:34:45	689880	5.0.10.0	5_exp_RW	3	Rpleas_acq	CS_B	MQQM	GWWG	BZZB	JXXJ	YDDY	VKKV	spielen	treu	fair	schön	retten	ehrlich	strafen	tot	faul	schlecht	rächen	eitel	1	acq_USpleas_CSpleas2_RW	acq4567_RW	5	77	400	0	300	300	553	50	0	1	1	blank2r.bmp	0	1	+	0	1	blank2r.bmp	492	1	GWWG	492	1	blank2r.bmp	572	1	schön	866	1	!	1239	1	!	-1	0	0	0	0	0	0	0	0	0	0	0	0	0	0	0	0	0	0	0	0	0	0	0	0	0	0	0	0	0	0
070319	10:23:13	10:34:47	692119	5.0.10.0	5_exp_RW	3	Rpleas_acq	CS_B	MQQM	GWWG	BZZB	JXXJ	YDDY	VKKV	spielen	treu	fair	schön	retten	ehrlich	strafen	tot	faul	schlecht	rächen	eitel	1	acq_USpleas_CSpleas1_RW	acq4567_RW	5	78	400	1	300	300	412	50	0	1	1	blank2r.bmp	0	1	+	0	1	blank2r.bmp	492	1	MQQM	492	1	blank2r.bmp	572	1	spielen	866	1	!	1239	1	!	1319	0	0	0	0	0	0	0	0	0	0	0	0	0	0	0	0	0	0	0	0	0	0	0	0	0	0	0	0	0	0
070319	10:23:13	10:34:49	694371	5.0.10.0	5_exp_RW	3	Rpleas_acq	CS_B	MQQM	GWWG	BZZB	JXXJ	YDDY	VKKV	spielen	treu	fair	schön	retten	ehrlich	strafen	tot	faul	schlecht	rächen	eitel	1	acq_USunple_CSunple1_RW	acq4567_RW	5	79	400	1	300	300	458	46	0	1	1	blank2r.bmp	0	1	+	0	1	blank2r.bmp	492	1	BZZB	492	1	blank2r.bmp	572	3	faul	866	1	!	1239	1	!	1359	0	0	0	0	0	0	0	0	0	0	0	0	0	0	0	0	0	0	0	0	0	0	0	0	0	0	0	0	0	0
070319	10:23:13	10:34:51	696570	5.0.10.0	5_exp_RW	3	Rpleas_acq	CS_B	MQQM	GWWG	BZZB	JXXJ	YDDY	VKKV	spielen	treu	fair	schön	retten	ehrlich	strafen	tot	faul	schlecht	rächen	eitel	1	acq_USunple_CSunple1_RW	acq4567_RW	5	80	400	1	300	300	403	46	0	1	1	blank2r.bmp	0	1	+	0	1	blank2r.bmp	492	1	BZZB	492	1	blank2r.bmp	572	2	tot	866	1	!	1239	1	!	1306	0	0	0	0	0	0	0	0	0	0	0	0	0	0	0	0	0	0	0	0	0	0	0	0	0	0	0	0	0	0
070319	10:23:13	10:35:03	708725	5.0.10.0	5_exp_RW	3	Rpleas_acq	CS_B	MQQM	GWWG	BZZB	JXXJ	YDDY	VKKV	spielen	treu	fair	schön	retten	ehrlich	strafen	tot	faul	schlecht	rächen	eitel	1	acq_USpleas_CSpleas1_RW	acq4567_RW	6	1	400	1	300	300	391	50	0	1	1	blank2r.bmp	0	1	+	0	1	blank2r.bmp	492	1	MQQM	492	1	blank2r.bmp	572	3	fair	866	1	!	1239	1	!	1292	0	0	0	0	0	0	0	0	0	0	0	0	0	0	0	0	0	0	0	0	0	0	0	0	0	0	0	0	0	0
070319	10:23:13	10:35:06	710871	5.0.10.0	5_exp_RW	3	Rpleas_acq	CS_B	MQQM	GWWG	BZZB	JXXJ	YDDY	VKKV	spielen	treu	fair	schön	retten	ehrlich	strafen	tot	faul	schlecht	rächen	eitel	1	acq_USunple_CSunple1_RW	acq4567_RW	6	2	400	1	300	300	348	46	0	1	1	blank2r.bmp	0	1	+	0	1	blank2r.bmp	492	1	BZZB	492	1	blank2r.bmp	572	1	strafen	866	1	!	1239	1	!	1252	0	0	0	0	0	0	0	0	0	0	0	0	0	0	0	0	0	0	0	0	0	0	0	0	0	0	0	0	0	0
070319	10:23:13	10:35:08	713124	5.0.10.0	5_exp_RW	3	Rpleas_acq	CS_B	MQQM	GWWG	BZZB	JXXJ	YDDY	VKKV	spielen	treu	fair	schön	retten	ehrlich	strafen	tot	faul	schlecht	rächen	eitel	1	acq_USpleas_CSpleas1_RW	acq4567_RW	6	3	400	1	300	300	464	46	0	0	1	blank2r.bmp	0	1	+	0	1	blank2r.bmp	492	1	MQQM	492	1	blank2r.bmp	572	1	spielen	866	1	!	1239	1	!	1359	0	0	0	0	0	0	0	0	0	0	0	0	0	0	0	0	0	0	0	0	0	0	0	0	0	0	0	0	0	0
070319	10:23:13	10:35:10	715283	5.0.10.0	5_exp_RW	3	Rpleas_acq	CS_B	MQQM	GWWG	BZZB	JXXJ	YDDY	VKKV	spielen	treu	fair	schön	retten	ehrlich	strafen	tot	faul	schlecht	rächen	eitel	1	acq_USpleas_CSpleas2_RW	acq4567_RW	6	4	400	1	300	300	365	46	0	0	1	blank2r.bmp	0	1	+	0	1	blank2r.bmp	492	1	GWWG	492	1	blank2r.bmp	572	2	retten	866	1	!	1239	1	!	1266	0	0	0	0	0	0	0	0	0	0	0	0	0	0	0	0	0	0	0	0	0	0	0	0	0	0	0	0	0	0
070319	10:23:13	10:35:12	717575	5.0.10.0	5_exp_RW	3	Rpleas_acq	CS_B	MQQM	GWWG	BZZB	JXXJ	YDDY	VKKV	spielen	treu	fair	schön	retten	ehrlich	strafen	tot	faul	schlecht	rächen	eitel	1	acq_USpleas_CSpleas2_RW	acq4567_RW	6	5	400	0	300	300	521	50	0	1	1	blank2r.bmp	0	1	+	0	1	blank2r.bmp	492	1	GWWG	492	1	blank2r.bmp	572	1	schön	866	1	!	1239	1	!	-1	0	0	0	0	0	0	0	0	0	0	0	0	0	0	0	0	0	0	0	0	0	0	0	0	0	0	0	0	0	0
070319	10:23:13	10:35:15	719868	5.0.10.0	5_exp_RW	3	Rpleas_acq	CS_B	MQQM	GWWG	BZZB	JXXJ	YDDY	VKKV	spielen	treu	fair	schön	retten	ehrlich	strafen	tot	faul	schlecht	rächen	eitel	1	acq_USunple_CSunple2_RW	acq4567_RW	6	6	400	0	300	300	511	46	0	1	1	blank2r.bmp	0	1	+	0	1	blank2r.bmp	492	1	JXXJ	492	1	blank2r.bmp	572	3	eitel	866	1	!	1239	1	!	-1	0	0	0	0	0	0	0	0	0	0	0	0	0	0	0	0	0	0	0	0	0	0	0	0	0	0	0	0	0	0
070319	10:23:13	10:35:17	722053	5.0.10.0	5_exp_RW	3	Rpleas_acq	CS_B	MQQM	GWWG	BZZB	JXXJ	YDDY	VKKV	spielen	treu	fair	schön	retten	ehrlich	strafen	tot	faul	schlecht	rächen	eitel	1	acq_USpleas_CSpleas1_RW	acq4567_RW	6	7	400	1	300	300	380	50	0	1	1	blank2r.bmp	0	1	+	0	1	blank2r.bmp	492	1	MQQM	492	1	blank2r.bmp	572	3	fair	866	1	!	1239	1	!	1279	0	0	0	0	0	0	0	0	0	0	0	0	0	0	0	0	0	0	0	0	0	0	0	0	0	0	0	0	0	0
070319	10:23:13	10:35:19	724293	5.0.10.0	5_exp_RW	3	Rpleas_acq	CS_B	MQQM	GWWG	BZZB	JXXJ	YDDY	VKKV	spielen	treu	fair	schön	retten	ehrlich	strafen	tot	faul	schlecht	rächen	eitel	1	acq_USpleas_CSpleas1_RW	acq4567_RW	6	8	400	1	300	300	451	46	0	0	1	blank2r.bmp	0	1	+	0	1	blank2r.bmp	492	1	MQQM	492	1	blank2r.bmp	572	2	treu	866	1	!	1239	1	!	1346	0	0	0	0	0	0	0	0	0	0	0	0	0	0	0	0	0	0	0	0	0	0	0	0	0	0	0	0	0	0
070319	10:23:13	10:35:21	726598	5.0.10.0	5_exp_RW	3	Rpleas_acq	CS_B	MQQM	GWWG	BZZB	JXXJ	YDDY	VKKV	spielen	treu	fair	schön	retten	ehrlich	strafen	tot	faul	schlecht	rächen	eitel	1	acq_USunple_CSunple2_RW	acq4567_RW	6	9	400	0	300	300	541	46	0	1	1	blank2r.bmp	0	1	+	0	1	blank2r.bmp	492	1	JXXJ	492	1	blank2r.bmp	572	2	rächen	866	1	!	1239	1	!	-1	0	0	0	0	0	0	0	0	0	0	0	0	0	0	0	0	0	0	0	0	0	0	0	0	0	0	0	0	0	0
070319	10:23:13	10:35:24	728864	5.0.10.0	5_exp_RW	3	Rpleas_acq	CS_B	MQQM	GWWG	BZZB	JXXJ	YDDY	VKKV	spielen	treu	fair	schön	retten	ehrlich	strafen	tot	faul	schlecht	rächen	eitel	1	acq_USunple_CSunple1_RW	acq4567_RW	6	10	400	0	300	300	489	46	0	1	1	blank2r.bmp	0	1	+	0	1	blank2r.bmp	492	1	BZZB	492	1	blank2r.bmp	572	2	tot	866	1	!	1239	1	!	-1	0	0	0	0	0	0	0	0	0	0	0	0	0	0	0	0	0	0	0	0	0	0	0	0	0	0	0	0	0	0
070319	10:23:13	10:35:26	731156	5.0.10.0	5_exp_RW	3	Rpleas_acq	CS_B	MQQM	GWWG	BZZB	JXXJ	YDDY	VKKV	spielen	treu	fair	schön	retten	ehrlich	strafen	tot	faul	schlecht	rächen	eitel	1	acq_USunple_CSunple1_RW	acq4567_RW	6	11	400	1	300	300	466	46	0	1	1	blank2r.bmp	0	1	+	0	1	blank2r.bmp	492	1	BZZB	492	1	blank2r.bmp	572	3	faul	866	1	!	1239	1	!	1372	0	0	0	0	0	0	0	0	0	0	0	0	0	0	0	0	0	0	0	0	0	0	0	0	0	0	0	0	0	0
070319	10:23:13	10:35:28	733249	5.0.10.0	5_exp_RW	3	Rpleas_acq	CS_B	MQQM	GWWG	BZZB	JXXJ	YDDY	VKKV	spielen	treu	fair	schön	retten	ehrlich	strafen	tot	faul	schlecht	rächen	eitel	1	acq_USunple_CSunple1_RW	acq4567_RW	6	12	400	0	300	300	322	46	0	1	1	blank2r.bmp	0	1	+	0	1	blank2r.bmp	492	1	BZZB	492	1	blank2r.bmp	572	1	strafen	866	1	!	-1	1	!	-1	0	0	0	0	0	0	0	0	0	0	0	0	0	0	0	0	0	0	0	0	0	0	0	0	0	0	0	0	0	0
070319	10:23:13	10:35:30	735408	5.0.10.0	5_exp_RW	3	Rpleas_acq	CS_B	MQQM	GWWG	BZZB	JXXJ	YDDY	VKKV	spielen	treu	fair	schön	retten	ehrlich	strafen	tot	faul	schlecht	rächen	eitel	1	acq_USpleas_CSpleas2_RW	acq4567_RW	6	13	400	1	300	300	346	46	0	0	1	blank2r.bmp	0	1	+	0	1	blank2r.bmp	492	1	GWWG	492	1	blank2r.bmp	572	3	ehrlich	866	1	!	1239	1	!	1252	0	0	0	0	0	0	0	0	0	0	0	0	0	0	0	0	0	0	0	0	0	0	0	0	0	0	0	0	0	0
070319	10:23:13	10:35:32	737580	5.0.10.0	5_exp_RW	3	Rpleas_acq	CS_B	MQQM	GWWG	BZZB	JXXJ	YDDY	VKKV	spielen	treu	fair	schön	retten	ehrlich	strafen	tot	faul	schlecht	rächen	eitel	1	acq_USunple_CSunple2_RW	acq4567_RW	6	14	400	1	300	300	382	50	0	0	1	blank2r.bmp	0	1	+	0	1	blank2r.bmp	492	1	JXXJ	492	1	blank2r.bmp	572	3	eitel	866	1	!	1239	1	!	1279	0	0	0	0	0	0	0	0	0	0	0	0	0	0	0	0	0	0	0	0	0	0	0	0	0	0	0	0	0	0
070319	10:23:13	10:35:35	739913	5.0.10.0	5_exp_RW	3	Rpleas_acq	CS_B	MQQM	GWWG	BZZB	JXXJ	YDDY	VKKV	spielen	treu	fair	schön	retten	ehrlich	strafen	tot	faul	schlecht	rächen	eitel	1	acq_USpleas_CSpleas1_RW	acq4567_RW	6	15	400	0	300	300	555	50	0	1	1	blank2r.bmp	0	1	+	0	1	blank2r.bmp	492	1	MQQM	492	1	blank2r.bmp	572	2	treu	866	1	!	1239	1	!	-1	0	0	0	0	0	0	0	0	0	0	0	0	0	0	0	0	0	0	0	0	0	0	0	0	0	0	0	0	0	0
070319	10:23:13	10:35:37	742112	5.0.10.0	5_exp_RW	3	Rpleas_acq	CS_B	MQQM	GWWG	BZZB	JXXJ	YDDY	VKKV	spielen	treu	fair	schön	retten	ehrlich	strafen	tot	faul	schlecht	rächen	eitel	1	acq_USunple_CSunple2_RW	acq4567_RW	6	16	400	1	300	300	387	46	0	1	1	blank2r.bmp	0	1	+	0	1	blank2r.bmp	492	1	JXXJ	492	1	blank2r.bmp	572	1	schlecht	866	1	!	1239	1	!	1292	0	0	0	0	0	0	0	0	0	0	0	0	0	0	0	0	0	0	0	0	0	0	0	0	0	0	0	0	0	0
070319	10:23:13	10:35:39	744511	5.0.10.0	5_exp_RW	3	Rpleas_acq	CS_B	MQQM	GWWG	BZZB	JXXJ	YDDY	VKKV	spielen	treu	fair	schön	retten	ehrlich	strafen	tot	faul	schlecht	rächen	eitel	1	acq_USpleas_CSpleas2_RW	acq4567_RW	6	17	400	0	300	300	632	50	0	1	1	blank2r.bmp	0	1	+	0	1	blank2r.bmp	492	1	GWWG	492	1	blank2r.bmp	572	2	retten	866	1	!	1239	1	!	-1	0	0	0	0	0	0	0	0	0	0	0	0	0	0	0	0	0	0	0	0	0	0	0	0	0	0	0	0	0	0
070319	10:23:13	10:35:41	746697	5.0.10.0	5_exp_RW	3	Rpleas_acq	CS_B	MQQM	GWWG	BZZB	JXXJ	YDDY	VKKV	spielen	treu	fair	schön	retten	ehrlich	strafen	tot	faul	schlecht	rächen	eitel	1	acq_USunple_CSunple2_RW	acq4567_RW	6	18	400	1	300	300	369	46	0	1	1	blank2r.bmp	0	1	+	0	1	blank2r.bmp	492	1	JXXJ	492	1	blank2r.bmp	572	1	schlecht	866	1	!	1239	1	!	1266	0	0	0	0	0	0	0	0	0	0	0	0	0	0	0	0	0	0	0	0	0	0	0	0	0	0	0	0	0	0
070319	10:23:13	10:35:44	748949	5.0.10.0	5_exp_RW	3	Rpleas_acq	CS_B	MQQM	GWWG	BZZB	JXXJ	YDDY	VKKV	spielen	treu	fair	schön	retten	ehrlich	strafen	tot	faul	schlecht	rächen	eitel	1	acq_USpleas_CSpleas2_RW	acq4567_RW	6	19	400	0	300	300	489	50	0	1	1	blank2r.bmp	0	1	+	0	1	blank2r.bmp	492	1	GWWG	492	1	blank2r.bmp	572	2	retten	866	1	!	1239	1	!	-1	0	0	0	0	0	0	0	0	0	0	0	0	0	0	0	0	0	0	0	0	0	0	0	0	0	0	0	0	0	0
070319	10:23:13	10:35:46	751188	5.0.10.0	5_exp_RW	3	Rpleas_acq	CS_B	MQQM	GWWG	BZZB	JXXJ	YDDY	VKKV	spielen	treu	fair	schön	retten	ehrlich	strafen	tot	faul	schlecht	rächen	eitel	1	acq_USunple_CSunple1_RW	acq4567_RW	6	20	400	1	300	300	427	50	0	0	1	blank2r.bmp	0	1	+	0	1	blank2r.bmp	492	1	BZZB	492	1	blank2r.bmp	572	1	strafen	866	1	!	1239	1	!	1332	0	0	0	0	0	0	0	0	0	0	0	0	0	0	0	0	0	0	0	0	0	0	0	0	0	0	0	0	0	0
070319	10:23:13	10:35:48	753401	5.0.10.0	5_exp_RW	3	Rpleas_acq	CS_B	MQQM	GWWG	BZZB	JXXJ	YDDY	VKKV	spielen	treu	fair	schön	retten	ehrlich	strafen	tot	faul	schlecht	rächen	eitel	1	acq_USunple_CSunple2_RW	acq4567_RW	6	21	400	1	300	300	420	46	0	1	1	blank2r.bmp	0	1	+	0	1	blank2r.bmp	492	1	JXXJ	492	1	blank2r.bmp	572	2	rächen	866	1	!	1239	1	!	1319	0	0	0	0	0	0	0	0	0	0	0	0	0	0	0	0	0	0	0	0	0	0	0	0	0	0	0	0	0	0
