date	time	script.currenttime	script.elapsedtime	build	script.currentexpt	subject	expressions.LRpleas_acq	expressions.conditionCS_A	expressions.CSpleas_1	expressions.CSpleas_2	expressions.CSunple_1	expressions.CSunple_2	expressions.distractor_1	expressions.distractor_2	expressions.US_pleas1	expressions.US_pleas2	expressions.US_pleas3	expressions.US_pleas4	expressions.US_pleas5	expressions.US_pleas6	expressions.US_unple1	expressions.US_unple2	expressions.US_unple3	expressions.US_unple4	expressions.US_unple5	expressions.US_unple6	counter.positions_noRW	trialcode	blockcode	blocknum	trialnum	windowcenter	inwindow	pretrialpause	posttrialpause	latency	response	expressions.correctedscore	correct	stimulusnumber1	stimulusitem1	stimulusonset1	stimulusnumber2	stimulusitem2	stimulusonset2	stimulusnumber3	stimulusitem3	stimulusonset3	stimulusnumber4	stimulusitem4	stimulusonset4	stimulusnumber5	stimulusitem5	stimulusonset5	stimulusnumber6	stimulusitem6	stimulusonset6	stimulusnumber7	stimulusitem7	stimulusonset7	stimulusnumber8	stimulusitem8	stimulusonset8	stimulusnumber9	stimulusitem9	stimulusonset9	stimulusnumber10	stimulusitem10	stimulusonset10	stimulusnumber11	stimulusitem11	stimulusonset11	stimulusnumber12	stimulusitem12	stimulusonset12	stimulusnumber13	stimulusitem13	stimulusonset13	stimulusnumber14	stimulusitem14	stimulusonset14	stimulusnumber15	stimulusitem15	stimulusonset15	stimulusnumber16	stimulusitem16	stimulusonset16	stimulusnumber17	stimulusitem17	stimulusonset17	stimulusnumber18	stimulusitem18	stimulusonset18
082019	13:56:16	13:58:01	102771	5.0.10.0	5_exp_noRW	106	Rpleas_acq	CS_B	VKKV	GWWG	YDDY	JXXJ	BZZB	MQQM	schön	spielen	retten	fair	treu	ehrlich	schlecht	strafen	rächen	faul	tot	eitel	53pct	acq_USpleas_CSpleas1_noRW	acq1_noRW	1	1	0	0	300	300	2000	0	0	0	1	blank2r.bmp	0	1	+	0	1	blank2r.bmp	252	1	VKKV	306	1	schön	559	1	FEHLER	2598	1	Schneller!	2598	0	0	0	0	0	0	0	0	0	0	0	0	0	0	0	0	0	0	0	0	0	0	0	0	0	0	0	0	0	0	0	0	0
082019	13:56:16	13:58:04	105183	5.0.10.0	5_exp_noRW	106	Rpleas_acq	CS_B	VKKV	GWWG	YDDY	JXXJ	BZZB	MQQM	schön	spielen	retten	fair	treu	ehrlich	schlecht	strafen	rächen	faul	tot	eitel	47pct	acq_USunple_CSunple1_noRW	acq1_noRW	1	2	0	0	300	300	1297	50	0	0	1	blank2r.bmp	0	1	+	0	1	blank2r.bmp	252	1	YDDY	306	2	strafen	559	1	FEHLER	1892	0	0	0	0	0	0	0	0	0	0	0	0	0	0	0	0	0	0	0	0	0	0	0	0	0	0	0	0	0	0	0	0	0	0	0	0
082019	13:56:16	13:58:06	107089	5.0.10.0	5_exp_noRW	106	Rpleas_acq	CS_B	VKKV	GWWG	YDDY	JXXJ	BZZB	MQQM	schön	spielen	retten	fair	treu	ehrlich	schlecht	strafen	rächen	faul	tot	eitel	53pct	acq_USunple_CSunple2_noRW	acq1_noRW	1	3	0	0	300	300	723	50	0	0	1	blank2r.bmp	0	1	+	0	1	blank2r.bmp	252	1	JXXJ	306	3	eitel	559	1	FEHLER	1319	0	0	0	0	0	0	0	0	0	0	0	0	0	0	0	0	0	0	0	0	0	0	0	0	0	0	0	0	0	0	0	0	0	0	0	0
082019	13:56:16	13:58:07	108675	5.0.10.0	5_exp_noRW	106	Rpleas_acq	CS_B	VKKV	GWWG	YDDY	JXXJ	BZZB	MQQM	schön	spielen	retten	fair	treu	ehrlich	schlecht	strafen	rächen	faul	tot	eitel	53pct	acq_USunple_CSunple1_noRW	acq1_noRW	1	4	0	0	300	300	614	46	0	1	1	blank2r.bmp	0	1	+	0	1	blank2r.bmp	252	1	YDDY	306	3	rächen	559	0	0	0	0	0	0	0	0	0	0	0	0	0	0	0	0	0	0	0	0	0	0	0	0	0	0	0	0	0	0	0	0	0	0	0	0	0	0	0
082019	13:56:16	13:58:09	110288	5.0.10.0	5_exp_noRW	106	Rpleas_acq	CS_B	VKKV	GWWG	YDDY	JXXJ	BZZB	MQQM	schön	spielen	retten	fair	treu	ehrlich	schlecht	strafen	rächen	faul	tot	eitel	47pct	acq_USunple_CSunple2_noRW	acq1_noRW	1	5	0	0	300	300	449	46	0	1	1	blank2r.bmp	0	1	+	0	1	blank2r.bmp	252	1	JXXJ	306	2	tot	559	0	0	0	0	0	0	0	0	0	0	0	0	0	0	0	0	0	0	0	0	0	0	0	0	0	0	0	0	0	0	0	0	0	0	0	0	0	0	0
082019	13:56:16	13:58:11	112127	5.0.10.0	5_exp_noRW	106	Rpleas_acq	CS_B	VKKV	GWWG	YDDY	JXXJ	BZZB	MQQM	schön	spielen	retten	fair	treu	ehrlich	schlecht	strafen	rächen	faul	tot	eitel	47pct	acq_USpleas_CSunple2_noRW	acq1_noRW	1	6	0	0	300	300	658	50	0	1	1	blank2r.bmp	0	1	+	0	1	blank2r.bmp	252	1	JXXJ	306	3	ehrlich	559	0	0	0	0	0	0	0	0	0	0	0	0	0	0	0	0	0	0	0	0	0	0	0	0	0	0	0	0	0	0	0	0	0	0	0	0	0	0	0
082019	13:56:16	13:58:12	113833	5.0.10.0	5_exp_noRW	106	Rpleas_acq	CS_B	VKKV	GWWG	YDDY	JXXJ	BZZB	MQQM	schön	spielen	retten	fair	treu	ehrlich	schlecht	strafen	rächen	faul	tot	eitel	53pct	acq_USpleas_CSpleas2_noRW	acq1_noRW	1	7	0	0	300	300	542	50	0	1	1	blank2r.bmp	0	1	+	0	1	blank2r.bmp	252	1	GWWG	306	3	ehrlich	559	0	0	0	0	0	0	0	0	0	0	0	0	0	0	0	0	0	0	0	0	0	0	0	0	0	0	0	0	0	0	0	0	0	0	0	0	0	0	0
082019	13:56:16	13:58:14	115699	5.0.10.0	5_exp_noRW	106	Rpleas_acq	CS_B	VKKV	GWWG	YDDY	JXXJ	BZZB	MQQM	schön	spielen	retten	fair	treu	ehrlich	schlecht	strafen	rächen	faul	tot	eitel	47pct	acq_USpleas_CSpleas1_noRW	acq1_noRW	1	8	0	0	300	300	684	50	0	1	1	blank2r.bmp	0	1	+	0	1	blank2r.bmp	252	1	VKKV	306	3	retten	559	0	0	0	0	0	0	0	0	0	0	0	0	0	0	0	0	0	0	0	0	0	0	0	0	0	0	0	0	0	0	0	0	0	0	0	0	0	0	0
082019	13:56:16	13:58:16	117352	5.0.10.0	5_exp_noRW	106	Rpleas_acq	CS_B	VKKV	GWWG	YDDY	JXXJ	BZZB	MQQM	schön	spielen	retten	fair	treu	ehrlich	schlecht	strafen	rächen	faul	tot	eitel	47pct	acq_USunple_CSunple1_noRW	acq1_noRW	1	9	0	0	300	300	479	46	0	1	1	blank2r.bmp	0	1	+	0	1	blank2r.bmp	252	1	YDDY	306	1	schlecht	559	0	0	0	0	0	0	0	0	0	0	0	0	0	0	0	0	0	0	0	0	0	0	0	0	0	0	0	0	0	0	0	0	0	0	0	0	0	0	0
082019	13:56:16	13:58:18	119364	5.0.10.0	5_exp_noRW	106	Rpleas_acq	CS_B	VKKV	GWWG	YDDY	JXXJ	BZZB	MQQM	schön	spielen	retten	fair	treu	ehrlich	schlecht	strafen	rächen	faul	tot	eitel	47pct	acq_USunple_CSpleas2_noRW	acq1_noRW	1	10	0	0	300	300	634	50	0	0	1	blank2r.bmp	0	1	+	0	1	blank2r.bmp	252	1	GWWG	306	3	eitel	559	1	FEHLER	1226	0	0	0	0	0	0	0	0	0	0	0	0	0	0	0	0	0	0	0	0	0	0	0	0	0	0	0	0	0	0	0	0	0	0	0	0
082019	13:56:16	13:58:19	120870	5.0.10.0	5_exp_noRW	106	Rpleas_acq	CS_B	VKKV	GWWG	YDDY	JXXJ	BZZB	MQQM	schön	spielen	retten	fair	treu	ehrlich	schlecht	strafen	rächen	faul	tot	eitel	53pct	acq_USpleas_CSpleas2_noRW	acq1_noRW	1	11	0	0	300	300	539	50	0	1	1	blank2r.bmp	0	1	+	0	1	blank2r.bmp	252	1	GWWG	306	2	treu	559	0	0	0	0	0	0	0	0	0	0	0	0	0	0	0	0	0	0	0	0	0	0	0	0	0	0	0	0	0	0	0	0	0	0	0	0	0	0	0
082019	13:56:16	13:58:21	122510	5.0.10.0	5_exp_noRW	106	Rpleas_acq	CS_B	VKKV	GWWG	YDDY	JXXJ	BZZB	MQQM	schön	spielen	retten	fair	treu	ehrlich	schlecht	strafen	rächen	faul	tot	eitel	47pct	acq_USpleas_CSpleas1_noRW	acq1_noRW	1	12	0	0	300	300	452	50	0	1	1	blank2r.bmp	0	1	+	0	1	blank2r.bmp	252	1	VKKV	306	2	spielen	559	0	0	0	0	0	0	0	0	0	0	0	0	0	0	0	0	0	0	0	0	0	0	0	0	0	0	0	0	0	0	0	0	0	0	0	0	0	0	0
082019	13:56:16	13:58:23	124096	5.0.10.0	5_exp_noRW	106	Rpleas_acq	CS_B	VKKV	GWWG	YDDY	JXXJ	BZZB	MQQM	schön	spielen	retten	fair	treu	ehrlich	schlecht	strafen	rächen	faul	tot	eitel	47pct	acq_USunple_CSunple2_noRW	acq1_noRW	1	13	0	0	300	300	407	46	0	1	1	blank2r.bmp	0	1	+	0	1	blank2r.bmp	252	1	JXXJ	306	1	faul	559	0	0	0	0	0	0	0	0	0	0	0	0	0	0	0	0	0	0	0	0	0	0	0	0	0	0	0	0	0	0	0	0	0	0	0	0	0	0	0
082019	13:56:16	13:58:24	125922	5.0.10.0	5_exp_noRW	106	Rpleas_acq	CS_B	VKKV	GWWG	YDDY	JXXJ	BZZB	MQQM	schön	spielen	retten	fair	treu	ehrlich	schlecht	strafen	rächen	faul	tot	eitel	53pct	acq_USpleas_CSpleas1_noRW	acq1_noRW	1	14	0	0	300	300	433	46	0	0	1	blank2r.bmp	0	1	+	0	1	blank2r.bmp	252	1	VKKV	306	2	spielen	559	1	FEHLER	1026	0	0	0	0	0	0	0	0	0	0	0	0	0	0	0	0	0	0	0	0	0	0	0	0	0	0	0	0	0	0	0	0	0	0	0	0
082019	13:56:16	13:58:26	127708	5.0.10.0	5_exp_noRW	106	Rpleas_acq	CS_B	VKKV	GWWG	YDDY	JXXJ	BZZB	MQQM	schön	spielen	retten	fair	treu	ehrlich	schlecht	strafen	rächen	faul	tot	eitel	53pct	acq_USpleas_CSpleas2_noRW	acq1_noRW	1	15	0	0	300	300	831	50	0	1	1	blank2r.bmp	0	1	+	0	1	blank2r.bmp	252	1	GWWG	306	1	fair	559	0	0	0	0	0	0	0	0	0	0	0	0	0	0	0	0	0	0	0	0	0	0	0	0	0	0	0	0	0	0	0	0	0	0	0	0	0	0	0
082019	13:56:16	13:58:28	129307	5.0.10.0	5_exp_noRW	106	Rpleas_acq	CS_B	VKKV	GWWG	YDDY	JXXJ	BZZB	MQQM	schön	spielen	retten	fair	treu	ehrlich	schlecht	strafen	rächen	faul	tot	eitel	47pct	acq_USpleas_CSpleas2_noRW	acq1_noRW	1	16	0	0	300	300	427	50	0	1	1	blank2r.bmp	0	1	+	0	1	blank2r.bmp	252	1	GWWG	306	2	treu	559	0	0	0	0	0	0	0	0	0	0	0	0	0	0	0	0	0	0	0	0	0	0	0	0	0	0	0	0	0	0	0	0	0	0	0	0	0	0	0
082019	13:56:16	13:58:29	130920	5.0.10.0	5_exp_noRW	106	Rpleas_acq	CS_B	VKKV	GWWG	YDDY	JXXJ	BZZB	MQQM	schön	spielen	retten	fair	treu	ehrlich	schlecht	strafen	rächen	faul	tot	eitel	53pct	acq_USunple_CSunple2_noRW	acq1_noRW	1	17	0	0	300	300	442	46	0	1	1	blank2r.bmp	0	1	+	0	1	blank2r.bmp	252	1	JXXJ	306	1	faul	559	0	0	0	0	0	0	0	0	0	0	0	0	0	0	0	0	0	0	0	0	0	0	0	0	0	0	0	0	0	0	0	0	0	0	0	0	0	0	0
082019	13:56:16	13:58:31	132492	5.0.10.0	5_exp_noRW	106	Rpleas_acq	CS_B	VKKV	GWWG	YDDY	JXXJ	BZZB	MQQM	schön	spielen	retten	fair	treu	ehrlich	schlecht	strafen	rächen	faul	tot	eitel	47pct	acq_USpleas_CSunple1_noRW	acq1_noRW	1	18	0	0	300	300	408	50	0	1	1	blank2r.bmp	0	1	+	0	1	blank2r.bmp	252	1	YDDY	306	2	spielen	559	0	0	0	0	0	0	0	0	0	0	0	0	0	0	0	0	0	0	0	0	0	0	0	0	0	0	0	0	0	0	0	0	0	0	0	0	0	0	0
082019	13:56:16	13:58:33	134172	5.0.10.0	5_exp_noRW	106	Rpleas_acq	CS_B	VKKV	GWWG	YDDY	JXXJ	BZZB	MQQM	schön	spielen	retten	fair	treu	ehrlich	schlecht	strafen	rächen	faul	tot	eitel	53pct	acq_USunple_CSpleas1_noRW	acq1_noRW	1	19	0	0	300	300	494	46	0	1	1	blank2r.bmp	0	1	+	0	1	blank2r.bmp	252	1	VKKV	306	2	strafen	559	0	0	0	0	0	0	0	0	0	0	0	0	0	0	0	0	0	0	0	0	0	0	0	0	0	0	0	0	0	0	0	0	0	0	0	0	0	0	0
082019	13:56:16	13:58:34	135958	5.0.10.0	5_exp_noRW	106	Rpleas_acq	CS_B	VKKV	GWWG	YDDY	JXXJ	BZZB	MQQM	schön	spielen	retten	fair	treu	ehrlich	schlecht	strafen	rächen	faul	tot	eitel	47pct	acq_USunple_CSunple1_noRW	acq1_noRW	1	20	0	0	300	300	615	46	0	1	1	blank2r.bmp	0	1	+	0	1	blank2r.bmp	252	1	YDDY	306	3	rächen	559	0	0	0	0	0	0	0	0	0	0	0	0	0	0	0	0	0	0	0	0	0	0	0	0	0	0	0	0	0	0	0	0	0	0	0	0	0	0	0
082019	13:56:16	13:58:36	137850	5.0.10.0	5_exp_noRW	106	Rpleas_acq	CS_B	VKKV	GWWG	YDDY	JXXJ	BZZB	MQQM	schön	spielen	retten	fair	treu	ehrlich	schlecht	strafen	rächen	faul	tot	eitel	53pct	acq_USpleas_CSpleas2_noRW	acq1_noRW	1	21	0	0	300	300	506	46	0	0	1	blank2r.bmp	0	1	+	0	1	blank2r.bmp	252	1	GWWG	306	1	fair	559	1	FEHLER	1106	0	0	0	0	0	0	0	0	0	0	0	0	0	0	0	0	0	0	0	0	0	0	0	0	0	0	0	0	0	0	0	0	0	0	0	0
082019	13:56:16	13:58:38	139236	5.0.10.0	5_exp_noRW	106	Rpleas_acq	CS_B	VKKV	GWWG	YDDY	JXXJ	BZZB	MQQM	schön	spielen	retten	fair	treu	ehrlich	schlecht	strafen	rächen	faul	tot	eitel	53pct	acq_USpleas_CSunple2_noRW	acq1_noRW	1	22	0	0	300	300	429	50	0	1	1	blank2r.bmp	0	1	+	0	1	blank2r.bmp	252	1	JXXJ	306	1	fair	559	0	0	0	0	0	0	0	0	0	0	0	0	0	0	0	0	0	0	0	0	0	0	0	0	0	0	0	0	0	0	0	0	0	0	0	0	0	0	0
082019	13:56:16	13:58:39	140942	5.0.10.0	5_exp_noRW	106	Rpleas_acq	CS_B	VKKV	GWWG	YDDY	JXXJ	BZZB	MQQM	schön	spielen	retten	fair	treu	ehrlich	schlecht	strafen	rächen	faul	tot	eitel	47pct	acq_USunple_CSunple2_noRW	acq1_noRW	1	23	0	0	300	300	533	46	0	1	1	blank2r.bmp	0	1	+	0	1	blank2r.bmp	252	1	JXXJ	306	2	tot	559	0	0	0	0	0	0	0	0	0	0	0	0	0	0	0	0	0	0	0	0	0	0	0	0	0	0	0	0	0	0	0	0	0	0	0	0	0	0	0
082019	13:56:16	13:58:41	142781	5.0.10.0	5_exp_noRW	106	Rpleas_acq	CS_B	VKKV	GWWG	YDDY	JXXJ	BZZB	MQQM	schön	spielen	retten	fair	treu	ehrlich	schlecht	strafen	rächen	faul	tot	eitel	47pct	acq_USpleas_CSpleas1_noRW	acq1_noRW	1	24	0	0	300	300	667	50	0	1	1	blank2r.bmp	0	1	+	0	1	blank2r.bmp	252	1	VKKV	306	3	retten	559	0	0	0	0	0	0	0	0	0	0	0	0	0	0	0	0	0	0	0	0	0	0	0	0	0	0	0	0	0	0	0	0	0	0	0	0	0	0	0
082019	13:56:16	13:58:43	144381	5.0.10.0	5_exp_noRW	106	Rpleas_acq	CS_B	VKKV	GWWG	YDDY	JXXJ	BZZB	MQQM	schön	spielen	retten	fair	treu	ehrlich	schlecht	strafen	rächen	faul	tot	eitel	53pct	acq_USunple_CSunple1_noRW	acq1_noRW	1	25	0	0	300	300	426	46	0	1	1	blank2r.bmp	0	1	+	0	1	blank2r.bmp	252	1	YDDY	306	1	schlecht	559	0	0	0	0	0	0	0	0	0	0	0	0	0	0	0	0	0	0	0	0	0	0	0	0	0	0	0	0	0	0	0	0	0	0	0	0	0	0	0
082019	13:56:16	13:58:45	146273	5.0.10.0	5_exp_noRW	106	Rpleas_acq	CS_B	VKKV	GWWG	YDDY	JXXJ	BZZB	MQQM	schön	spielen	retten	fair	treu	ehrlich	schlecht	strafen	rächen	faul	tot	eitel	47pct	acq_USunple_CSunple2_noRW	acq1_noRW	1	26	0	0	300	300	716	46	0	1	1	blank2r.bmp	0	1	+	0	1	blank2r.bmp	252	1	JXXJ	306	3	eitel	559	0	0	0	0	0	0	0	0	0	0	0	0	0	0	0	0	0	0	0	0	0	0	0	0	0	0	0	0	0	0	0	0	0	0	0	0	0	0	0
082019	13:56:16	13:58:46	147939	5.0.10.0	5_exp_noRW	106	Rpleas_acq	CS_B	VKKV	GWWG	YDDY	JXXJ	BZZB	MQQM	schön	spielen	retten	fair	treu	ehrlich	schlecht	strafen	rächen	faul	tot	eitel	47pct	acq_USunple_CSunple1_noRW	acq1_noRW	1	27	0	0	300	300	481	46	0	1	1	blank2r.bmp	0	1	+	0	1	blank2r.bmp	252	1	YDDY	306	2	strafen	559	0	0	0	0	0	0	0	0	0	0	0	0	0	0	0	0	0	0	0	0	0	0	0	0	0	0	0	0	0	0	0	0	0	0	0	0	0	0	0
082019	13:56:16	13:58:48	149525	5.0.10.0	5_exp_noRW	106	Rpleas_acq	CS_B	VKKV	GWWG	YDDY	JXXJ	BZZB	MQQM	schön	spielen	retten	fair	treu	ehrlich	schlecht	strafen	rächen	faul	tot	eitel	47pct	acq_USpleas_CSpleas1_noRW	acq1_noRW	1	28	0	0	300	300	412	50	0	1	1	blank2r.bmp	0	1	+	0	1	blank2r.bmp	252	1	VKKV	306	1	schön	559	0	0	0	0	0	0	0	0	0	0	0	0	0	0	0	0	0	0	0	0	0	0	0	0	0	0	0	0	0	0	0	0	0	0	0	0	0	0	0
082019	13:56:16	13:58:50	151245	5.0.10.0	5_exp_noRW	106	Rpleas_acq	CS_B	VKKV	GWWG	YDDY	JXXJ	BZZB	MQQM	schön	spielen	retten	fair	treu	ehrlich	schlecht	strafen	rächen	faul	tot	eitel	47pct	acq_USpleas_CSpleas2_noRW	acq1_noRW	1	29	0	0	300	300	555	50	0	1	1	blank2r.bmp	0	1	+	0	1	blank2r.bmp	252	1	GWWG	306	3	ehrlich	559	0	0	0	0	0	0	0	0	0	0	0	0	0	0	0	0	0	0	0	0	0	0	0	0	0	0	0	0	0	0	0	0	0	0	0	0	0	0	0
082019	13:56:16	13:58:52	152977	5.0.10.0	5_exp_noRW	106	Rpleas_acq	CS_B	VKKV	GWWG	YDDY	JXXJ	BZZB	MQQM	schön	spielen	retten	fair	treu	ehrlich	schlecht	strafen	rächen	faul	tot	eitel	53pct	acq_USpleas_CSunple1_noRW	acq1_noRW	1	30	0	0	300	300	547	50	0	1	1	blank2r.bmp	0	1	+	0	1	blank2r.bmp	252	1	YDDY	306	3	retten	559	0	0	0	0	0	0	0	0	0	0	0	0	0	0	0	0	0	0	0	0	0	0	0	0	0	0	0	0	0	0	0	0	0	0	0	0	0	0	0
082019	13:56:16	13:58:53	154643	5.0.10.0	5_exp_noRW	106	Rpleas_acq	CS_B	VKKV	GWWG	YDDY	JXXJ	BZZB	MQQM	schön	spielen	retten	fair	treu	ehrlich	schlecht	strafen	rächen	faul	tot	eitel	47pct	acq_USpleas_CSpleas1_noRW	acq1_noRW	1	31	0	0	300	300	495	50	0	1	1	blank2r.bmp	0	1	+	0	1	blank2r.bmp	252	1	VKKV	306	3	retten	559	0	0	0	0	0	0	0	0	0	0	0	0	0	0	0	0	0	0	0	0	0	0	0	0	0	0	0	0	0	0	0	0	0	0	0	0	0	0	0
082019	13:56:16	13:58:55	156363	5.0.10.0	5_exp_noRW	106	Rpleas_acq	CS_B	VKKV	GWWG	YDDY	JXXJ	BZZB	MQQM	schön	spielen	retten	fair	treu	ehrlich	schlecht	strafen	rächen	faul	tot	eitel	53pct	acq_USpleas_CSpleas2_noRW	acq1_noRW	1	32	0	0	300	300	542	50	0	1	1	blank2r.bmp	0	1	+	0	1	blank2r.bmp	252	1	GWWG	306	2	treu	559	0	0	0	0	0	0	0	0	0	0	0	0	0	0	0	0	0	0	0	0	0	0	0	0	0	0	0	0	0	0	0	0	0	0	0	0	0	0	0
082019	13:56:16	13:58:56	157895	5.0.10.0	5_exp_noRW	106	Rpleas_acq	CS_B	VKKV	GWWG	YDDY	JXXJ	BZZB	MQQM	schön	spielen	retten	fair	treu	ehrlich	schlecht	strafen	rächen	faul	tot	eitel	47pct	acq_USpleas_CSpleas1_noRW	acq1_noRW	1	33	0	0	300	300	358	50	0	1	1	blank2r.bmp	0	1	+	0	1	blank2r.bmp	252	1	VKKV	306	1	schön	559	0	0	0	0	0	0	0	0	0	0	0	0	0	0	0	0	0	0	0	0	0	0	0	0	0	0	0	0	0	0	0	0	0	0	0	0	0	0	0
082019	13:56:16	13:58:58	159428	5.0.10.0	5_exp_noRW	106	Rpleas_acq	CS_B	VKKV	GWWG	YDDY	JXXJ	BZZB	MQQM	schön	spielen	retten	fair	treu	ehrlich	schlecht	strafen	rächen	faul	tot	eitel	53pct	acq_USunple_CSunple2_noRW	acq1_noRW	1	34	0	0	300	300	360	46	0	1	1	blank2r.bmp	0	1	+	0	1	blank2r.bmp	252	1	JXXJ	306	1	faul	559	0	0	0	0	0	0	0	0	0	0	0	0	0	0	0	0	0	0	0	0	0	0	0	0	0	0	0	0	0	0	0	0	0	0	0	0	0	0	0
082019	13:56:16	13:59:00	161014	5.0.10.0	5_exp_noRW	106	Rpleas_acq	CS_B	VKKV	GWWG	YDDY	JXXJ	BZZB	MQQM	schön	spielen	retten	fair	treu	ehrlich	schlecht	strafen	rächen	faul	tot	eitel	47pct	acq_USunple_CSunple1_noRW	acq1_noRW	1	35	0	0	300	300	414	46	0	1	1	blank2r.bmp	0	1	+	0	1	blank2r.bmp	252	1	YDDY	306	1	schlecht	559	0	0	0	0	0	0	0	0	0	0	0	0	0	0	0	0	0	0	0	0	0	0	0	0	0	0	0	0	0	0	0	0	0	0	0	0	0	0	0
082019	13:56:16	13:59:02	163333	5.0.10.0	5_exp_noRW	106	Rpleas_acq	CS_B	VKKV	GWWG	YDDY	JXXJ	BZZB	MQQM	schön	spielen	retten	fair	treu	ehrlich	schlecht	strafen	rächen	faul	tot	eitel	53pct	acq_USunple_CSunple2_noRW	acq1_noRW	1	36	0	0	300	300	1151	46	0	1	1	blank2r.bmp	0	1	+	0	1	blank2r.bmp	252	1	JXXJ	306	3	eitel	559	0	0	0	0	0	0	0	0	0	0	0	0	0	0	0	0	0	0	0	0	0	0	0	0	0	0	0	0	0	0	0	0	0	0	0	0	0	0	0
082019	13:56:16	13:59:03	164919	5.0.10.0	5_exp_noRW	106	Rpleas_acq	CS_B	VKKV	GWWG	YDDY	JXXJ	BZZB	MQQM	schön	spielen	retten	fair	treu	ehrlich	schlecht	strafen	rächen	faul	tot	eitel	53pct	acq_USunple_CSpleas2_noRW	acq1_noRW	1	37	0	0	300	300	408	46	0	1	1	blank2r.bmp	0	1	+	0	1	blank2r.bmp	252	1	GWWG	306	2	tot	559	0	0	0	0	0	0	0	0	0	0	0	0	0	0	0	0	0	0	0	0	0	0	0	0	0	0	0	0	0	0	0	0	0	0	0	0	0	0	0
082019	13:56:16	13:59:05	166638	5.0.10.0	5_exp_noRW	106	Rpleas_acq	CS_B	VKKV	GWWG	YDDY	JXXJ	BZZB	MQQM	schön	spielen	retten	fair	treu	ehrlich	schlecht	strafen	rächen	faul	tot	eitel	53pct	acq_USunple_CSpleas1_noRW	acq1_noRW	1	38	0	0	300	300	540	46	0	1	1	blank2r.bmp	0	1	+	0	1	blank2r.bmp	252	1	VKKV	306	3	rächen	559	0	0	0	0	0	0	0	0	0	0	0	0	0	0	0	0	0	0	0	0	0	0	0	0	0	0	0	0	0	0	0	0	0	0	0	0	0	0	0
082019	13:56:16	13:59:07	168624	5.0.10.0	5_exp_noRW	106	Rpleas_acq	CS_B	VKKV	GWWG	YDDY	JXXJ	BZZB	MQQM	schön	spielen	retten	fair	treu	ehrlich	schlecht	strafen	rächen	faul	tot	eitel	47pct	acq_USpleas_CSpleas2_noRW	acq1_noRW	1	39	0	0	300	300	798	50	0	1	1	blank2r.bmp	0	1	+	0	1	blank2r.bmp	252	1	GWWG	306	1	fair	559	0	0	0	0	0	0	0	0	0	0	0	0	0	0	0	0	0	0	0	0	0	0	0	0	0	0	0	0	0	0	0	0	0	0	0	0	0	0	0
082019	13:56:16	13:59:09	170557	5.0.10.0	5_exp_noRW	106	Rpleas_acq	CS_B	VKKV	GWWG	YDDY	JXXJ	BZZB	MQQM	schön	spielen	retten	fair	treu	ehrlich	schlecht	strafen	rächen	faul	tot	eitel	47pct	acq_USunple_CSunple1_noRW	acq1_noRW	1	40	0	0	300	300	761	46	0	1	1	blank2r.bmp	0	1	+	0	1	blank2r.bmp	252	1	YDDY	306	3	rächen	559	0	0	0	0	0	0	0	0	0	0	0	0	0	0	0	0	0	0	0	0	0	0	0	0	0	0	0	0	0	0	0	0	0	0	0	0	0	0	0
082019	13:56:16	13:59:11	172249	5.0.10.0	5_exp_noRW	106	Rpleas_acq	CS_B	VKKV	GWWG	YDDY	JXXJ	BZZB	MQQM	schön	spielen	retten	fair	treu	ehrlich	schlecht	strafen	rächen	faul	tot	eitel	47pct	acq_USunple_CSpleas1_noRW	acq1_noRW	1	41	0	0	300	300	511	46	0	1	1	blank2r.bmp	0	1	+	0	1	blank2r.bmp	252	1	VKKV	306	1	schlecht	559	0	0	0	0	0	0	0	0	0	0	0	0	0	0	0	0	0	0	0	0	0	0	0	0	0	0	0	0	0	0	0	0	0	0	0	0	0	0	0
082019	13:56:16	13:59:13	174009	5.0.10.0	5_exp_noRW	106	Rpleas_acq	CS_B	VKKV	GWWG	YDDY	JXXJ	BZZB	MQQM	schön	spielen	retten	fair	treu	ehrlich	schlecht	strafen	rächen	faul	tot	eitel	53pct	acq_USpleas_CSpleas2_noRW	acq1_noRW	1	42	0	0	300	300	595	50	0	1	1	blank2r.bmp	0	1	+	0	1	blank2r.bmp	252	1	GWWG	306	3	ehrlich	559	0	0	0	0	0	0	0	0	0	0	0	0	0	0	0	0	0	0	0	0	0	0	0	0	0	0	0	0	0	0	0	0	0	0	0	0	0	0	0
082019	13:56:16	13:59:14	175581	5.0.10.0	5_exp_noRW	106	Rpleas_acq	CS_B	VKKV	GWWG	YDDY	JXXJ	BZZB	MQQM	schön	spielen	retten	fair	treu	ehrlich	schlecht	strafen	rächen	faul	tot	eitel	53pct	acq_USunple_CSunple2_noRW	acq1_noRW	1	43	0	0	300	300	385	46	0	1	1	blank2r.bmp	0	1	+	0	1	blank2r.bmp	252	1	JXXJ	306	2	tot	559	0	0	0	0	0	0	0	0	0	0	0	0	0	0	0	0	0	0	0	0	0	0	0	0	0	0	0	0	0	0	0	0	0	0	0	0	0	0	0
082019	13:56:16	13:59:16	177541	5.0.10.0	5_exp_noRW	106	Rpleas_acq	CS_B	VKKV	GWWG	YDDY	JXXJ	BZZB	MQQM	schön	spielen	retten	fair	treu	ehrlich	schlecht	strafen	rächen	faul	tot	eitel	47pct	acq_USunple_CSunple1_noRW	acq1_noRW	1	44	0	0	300	300	778	46	0	1	1	blank2r.bmp	0	1	+	0	1	blank2r.bmp	252	1	YDDY	306	2	strafen	559	0	0	0	0	0	0	0	0	0	0	0	0	0	0	0	0	0	0	0	0	0	0	0	0	0	0	0	0	0	0	0	0	0	0	0	0	0	0	0
082019	13:56:16	13:59:18	179340	5.0.10.0	5_exp_noRW	106	Rpleas_acq	CS_B	VKKV	GWWG	YDDY	JXXJ	BZZB	MQQM	schön	spielen	retten	fair	treu	ehrlich	schlecht	strafen	rächen	faul	tot	eitel	53pct	acq_USpleas_CSpleas1_noRW	acq1_noRW	1	45	0	0	300	300	617	50	0	1	1	blank2r.bmp	0	1	+	0	1	blank2r.bmp	252	1	VKKV	306	2	spielen	559	0	0	0	0	0	0	0	0	0	0	0	0	0	0	0	0	0	0	0	0	0	0	0	0	0	0	0	0	0	0	0	0	0	0	0	0	0	0	0
082019	13:56:16	13:59:20	180993	5.0.10.0	5_exp_noRW	106	Rpleas_acq	CS_B	VKKV	GWWG	YDDY	JXXJ	BZZB	MQQM	schön	spielen	retten	fair	treu	ehrlich	schlecht	strafen	rächen	faul	tot	eitel	47pct	acq_USpleas_CSunple1_noRW	acq1_noRW	1	46	0	0	300	300	470	50	0	1	1	blank2r.bmp	0	1	+	0	1	blank2r.bmp	252	1	YDDY	306	1	schön	559	0	0	0	0	0	0	0	0	0	0	0	0	0	0	0	0	0	0	0	0	0	0	0	0	0	0	0	0	0	0	0	0	0	0	0	0	0	0	0
082019	13:56:16	13:59:22	182992	5.0.10.0	5_exp_noRW	106	Rpleas_acq	CS_B	VKKV	GWWG	YDDY	JXXJ	BZZB	MQQM	schön	spielen	retten	fair	treu	ehrlich	schlecht	strafen	rächen	faul	tot	eitel	47pct	acq_USpleas_CSpleas2_noRW	acq1_noRW	1	47	0	0	300	300	816	50	0	1	1	blank2r.bmp	0	1	+	0	1	blank2r.bmp	252	1	GWWG	306	2	treu	559	0	0	0	0	0	0	0	0	0	0	0	0	0	0	0	0	0	0	0	0	0	0	0	0	0	0	0	0	0	0	0	0	0	0	0	0	0	0	0
082019	13:56:16	13:59:23	184538	5.0.10.0	5_exp_noRW	106	Rpleas_acq	CS_B	VKKV	GWWG	YDDY	JXXJ	BZZB	MQQM	schön	spielen	retten	fair	treu	ehrlich	schlecht	strafen	rächen	faul	tot	eitel	53pct	acq_USunple_CSunple1_noRW	acq1_noRW	1	48	0	0	300	300	379	46	0	1	1	blank2r.bmp	0	1	+	0	1	blank2r.bmp	252	1	YDDY	306	2	strafen	559	0	0	0	0	0	0	0	0	0	0	0	0	0	0	0	0	0	0	0	0	0	0	0	0	0	0	0	0	0	0	0	0	0	0	0	0	0	0	0
082019	13:56:16	13:59:25	186191	5.0.10.0	5_exp_noRW	106	Rpleas_acq	CS_B	VKKV	GWWG	YDDY	JXXJ	BZZB	MQQM	schön	spielen	retten	fair	treu	ehrlich	schlecht	strafen	rächen	faul	tot	eitel	47pct	acq_USunple_CSunple1_noRW	acq1_noRW	1	49	0	0	300	300	484	46	0	1	1	blank2r.bmp	0	1	+	0	1	blank2r.bmp	252	1	YDDY	306	1	schlecht	559	0	0	0	0	0	0	0	0	0	0	0	0	0	0	0	0	0	0	0	0	0	0	0	0	0	0	0	0	0	0	0	0	0	0	0	0	0	0	0
082019	13:56:16	13:59:27	188096	5.0.10.0	5_exp_noRW	106	Rpleas_acq	CS_B	VKKV	GWWG	YDDY	JXXJ	BZZB	MQQM	schön	spielen	retten	fair	treu	ehrlich	schlecht	strafen	rächen	faul	tot	eitel	53pct	acq_USunple_CSunple2_noRW	acq1_noRW	1	50	0	0	300	300	538	50	0	0	1	blank2r.bmp	0	1	+	0	1	blank2r.bmp	252	1	JXXJ	306	3	eitel	559	1	FEHLER	1132	0	0	0	0	0	0	0	0	0	0	0	0	0	0	0	0	0	0	0	0	0	0	0	0	0	0	0	0	0	0	0	0	0	0	0	0
082019	13:56:16	13:59:28	189829	5.0.10.0	5_exp_noRW	106	Rpleas_acq	CS_B	VKKV	GWWG	YDDY	JXXJ	BZZB	MQQM	schön	spielen	retten	fair	treu	ehrlich	schlecht	strafen	rächen	faul	tot	eitel	47pct	acq_USunple_CSunple1_noRW	acq1_noRW	1	51	0	0	300	300	550	50	0	0	1	blank2r.bmp	0	1	+	0	1	blank2r.bmp	252	1	YDDY	306	3	rächen	559	1	FEHLER	1146	0	0	0	0	0	0	0	0	0	0	0	0	0	0	0	0	0	0	0	0	0	0	0	0	0	0	0	0	0	0	0	0	0	0	0	0
082019	13:56:16	13:59:30	191588	5.0.10.0	5_exp_noRW	106	Rpleas_acq	CS_B	VKKV	GWWG	YDDY	JXXJ	BZZB	MQQM	schön	spielen	retten	fair	treu	ehrlich	schlecht	strafen	rächen	faul	tot	eitel	53pct	acq_USpleas_CSpleas2_noRW	acq1_noRW	1	52	0	0	300	300	793	50	0	1	1	blank2r.bmp	0	1	+	0	1	blank2r.bmp	252	1	GWWG	306	3	ehrlich	559	0	0	0	0	0	0	0	0	0	0	0	0	0	0	0	0	0	0	0	0	0	0	0	0	0	0	0	0	0	0	0	0	0	0	0	0	0	0	0
082019	13:56:16	13:59:32	193294	5.0.10.0	5_exp_noRW	106	Rpleas_acq	CS_B	VKKV	GWWG	YDDY	JXXJ	BZZB	MQQM	schön	spielen	retten	fair	treu	ehrlich	schlecht	strafen	rächen	faul	tot	eitel	47pct	acq_USpleas_CSpleas1_noRW	acq1_noRW	1	53	0	0	300	300	534	50	0	1	1	blank2r.bmp	0	1	+	0	1	blank2r.bmp	252	1	VKKV	306	3	retten	559	0	0	0	0	0	0	0	0	0	0	0	0	0	0	0	0	0	0	0	0	0	0	0	0	0	0	0	0	0	0	0	0	0	0	0	0	0	0	0
082019	13:56:16	13:59:33	194880	5.0.10.0	5_exp_noRW	106	Rpleas_acq	CS_B	VKKV	GWWG	YDDY	JXXJ	BZZB	MQQM	schön	spielen	retten	fair	treu	ehrlich	schlecht	strafen	rächen	faul	tot	eitel	53pct	acq_USunple_CSpleas2_noRW	acq1_noRW	1	54	0	0	300	300	420	46	0	1	1	blank2r.bmp	0	1	+	0	1	blank2r.bmp	252	1	GWWG	306	1	faul	559	0	0	0	0	0	0	0	0	0	0	0	0	0	0	0	0	0	0	0	0	0	0	0	0	0	0	0	0	0	0	0	0	0	0	0	0	0	0	0
082019	13:56:16	13:59:35	196653	5.0.10.0	5_exp_noRW	106	Rpleas_acq	CS_B	VKKV	GWWG	YDDY	JXXJ	BZZB	MQQM	schön	spielen	retten	fair	treu	ehrlich	schlecht	strafen	rächen	faul	tot	eitel	47pct	acq_USpleas_CSpleas2_noRW	acq1_noRW	1	55	0	0	300	300	602	50	0	1	1	blank2r.bmp	0	1	+	0	1	blank2r.bmp	252	1	GWWG	306	1	fair	559	0	0	0	0	0	0	0	0	0	0	0	0	0	0	0	0	0	0	0	0	0	0	0	0	0	0	0	0	0	0	0	0	0	0	0	0	0	0	0
082019	13:56:16	13:59:37	198306	5.0.10.0	5_exp_noRW	106	Rpleas_acq	CS_B	VKKV	GWWG	YDDY	JXXJ	BZZB	MQQM	schön	spielen	retten	fair	treu	ehrlich	schlecht	strafen	rächen	faul	tot	eitel	47pct	acq_USpleas_CSpleas1_noRW	acq1_noRW	1	56	0	0	300	300	470	50	0	1	1	blank2r.bmp	0	1	+	0	1	blank2r.bmp	252	1	VKKV	306	2	spielen	559	0	0	0	0	0	0	0	0	0	0	0	0	0	0	0	0	0	0	0	0	0	0	0	0	0	0	0	0	0	0	0	0	0	0	0	0	0	0	0
082019	13:56:16	13:59:38	199958	5.0.10.0	5_exp_noRW	106	Rpleas_acq	CS_B	VKKV	GWWG	YDDY	JXXJ	BZZB	MQQM	schön	spielen	retten	fair	treu	ehrlich	schlecht	strafen	rächen	faul	tot	eitel	47pct	acq_USpleas_CSpleas1_noRW	acq1_noRW	1	57	0	0	300	300	465	50	0	1	1	blank2r.bmp	0	1	+	0	1	blank2r.bmp	252	1	VKKV	306	1	schön	559	0	0	0	0	0	0	0	0	0	0	0	0	0	0	0	0	0	0	0	0	0	0	0	0	0	0	0	0	0	0	0	0	0	0	0	0	0	0	0
082019	13:56:16	13:59:40	201811	5.0.10.0	5_exp_noRW	106	Rpleas_acq	CS_B	VKKV	GWWG	YDDY	JXXJ	BZZB	MQQM	schön	spielen	retten	fair	treu	ehrlich	schlecht	strafen	rächen	faul	tot	eitel	53pct	acq_USunple_CSunple2_noRW	acq1_noRW	1	58	0	0	300	300	680	46	0	1	1	blank2r.bmp	0	1	+	0	1	blank2r.bmp	252	1	JXXJ	306	1	faul	559	0	0	0	0	0	0	0	0	0	0	0	0	0	0	0	0	0	0	0	0	0	0	0	0	0	0	0	0	0	0	0	0	0	0	0	0	0	0	0
082019	13:56:16	13:59:42	203530	5.0.10.0	5_exp_noRW	106	Rpleas_acq	CS_B	VKKV	GWWG	YDDY	JXXJ	BZZB	MQQM	schön	spielen	retten	fair	treu	ehrlich	schlecht	strafen	rächen	faul	tot	eitel	47pct	acq_USpleas_CSunple2_noRW	acq1_noRW	1	59	0	0	300	300	550	50	0	1	1	blank2r.bmp	0	1	+	0	1	blank2r.bmp	252	1	JXXJ	306	2	treu	559	0	0	0	0	0	0	0	0	0	0	0	0	0	0	0	0	0	0	0	0	0	0	0	0	0	0	0	0	0	0	0	0	0	0	0	0	0	0	0
082019	13:56:16	13:59:44	205103	5.0.10.0	5_exp_noRW	106	Rpleas_acq	CS_B	VKKV	GWWG	YDDY	JXXJ	BZZB	MQQM	schön	spielen	retten	fair	treu	ehrlich	schlecht	strafen	rächen	faul	tot	eitel	47pct	acq_USunple_CSunple2_noRW	acq1_noRW	1	60	0	0	300	300	386	46	0	1	1	blank2r.bmp	0	1	+	0	1	blank2r.bmp	252	1	JXXJ	306	2	tot	559	0	0	0	0	0	0	0	0	0	0	0	0	0	0	0	0	0	0	0	0	0	0	0	0	0	0	0	0	0	0	0	0	0	0	0	0	0	0	0
082019	13:56:16	13:59:45	206902	5.0.10.0	5_exp_noRW	106	Rpleas_acq	CS_B	VKKV	GWWG	YDDY	JXXJ	BZZB	MQQM	schön	spielen	retten	fair	treu	ehrlich	schlecht	strafen	rächen	faul	tot	eitel	53pct	acq_USunple_CSpleas2_noRW	acq1_noRW	1	61	0	0	300	300	630	46	0	1	1	blank2r.bmp	0	1	+	0	1	blank2r.bmp	252	1	GWWG	306	3	eitel	559	0	0	0	0	0	0	0	0	0	0	0	0	0	0	0	0	0	0	0	0	0	0	0	0	0	0	0	0	0	0	0	0	0	0	0	0	0	0	0
082019	13:56:16	13:59:47	208541	5.0.10.0	5_exp_noRW	106	Rpleas_acq	CS_B	VKKV	GWWG	YDDY	JXXJ	BZZB	MQQM	schön	spielen	retten	fair	treu	ehrlich	schlecht	strafen	rächen	faul	tot	eitel	47pct	acq_USunple_CSunple2_noRW	acq1_noRW	1	62	0	0	300	300	461	46	0	1	1	blank2r.bmp	0	1	+	0	1	blank2r.bmp	252	1	JXXJ	306	2	tot	559	0	0	0	0	0	0	0	0	0	0	0	0	0	0	0	0	0	0	0	0	0	0	0	0	0	0	0	0	0	0	0	0	0	0	0	0	0	0	0
082019	13:56:16	13:59:49	210314	5.0.10.0	5_exp_noRW	106	Rpleas_acq	CS_B	VKKV	GWWG	YDDY	JXXJ	BZZB	MQQM	schön	spielen	retten	fair	treu	ehrlich	schlecht	strafen	rächen	faul	tot	eitel	53pct	acq_USpleas_CSpleas2_noRW	acq1_noRW	1	63	0	0	300	300	585	50	0	1	1	blank2r.bmp	0	1	+	0	1	blank2r.bmp	252	1	GWWG	306	2	treu	559	0	0	0	0	0	0	0	0	0	0	0	0	0	0	0	0	0	0	0	0	0	0	0	0	0	0	0	0	0	0	0	0	0	0	0	0	0	0	0
082019	13:56:16	13:59:50	211953	5.0.10.0	5_exp_noRW	106	Rpleas_acq	CS_B	VKKV	GWWG	YDDY	JXXJ	BZZB	MQQM	schön	spielen	retten	fair	treu	ehrlich	schlecht	strafen	rächen	faul	tot	eitel	53pct	acq_USunple_CSunple2_noRW	acq1_noRW	1	64	0	0	300	300	466	46	0	1	1	blank2r.bmp	0	1	+	0	1	blank2r.bmp	252	1	JXXJ	306	1	faul	559	0	0	0	0	0	0	0	0	0	0	0	0	0	0	0	0	0	0	0	0	0	0	0	0	0	0	0	0	0	0	0	0	0	0	0	0	0	0	0
082019	13:56:16	13:59:52	213699	5.0.10.0	5_exp_noRW	106	Rpleas_acq	CS_B	VKKV	GWWG	YDDY	JXXJ	BZZB	MQQM	schön	spielen	retten	fair	treu	ehrlich	schlecht	strafen	rächen	faul	tot	eitel	53pct	acq_USpleas_CSpleas2_noRW	acq1_noRW	1	65	0	0	300	300	583	50	0	1	1	blank2r.bmp	0	1	+	0	1	blank2r.bmp	252	1	GWWG	306	3	ehrlich	559	0	0	0	0	0	0	0	0	0	0	0	0	0	0	0	0	0	0	0	0	0	0	0	0	0	0	0	0	0	0	0	0	0	0	0	0	0	0	0
082019	13:56:16	13:59:54	215312	5.0.10.0	5_exp_noRW	106	Rpleas_acq	CS_B	VKKV	GWWG	YDDY	JXXJ	BZZB	MQQM	schön	spielen	retten	fair	treu	ehrlich	schlecht	strafen	rächen	faul	tot	eitel	53pct	acq_USunple_CSunple1_noRW	acq1_noRW	1	66	0	0	300	300	425	46	0	1	1	blank2r.bmp	0	1	+	0	1	blank2r.bmp	252	1	YDDY	306	1	schlecht	559	0	0	0	0	0	0	0	0	0	0	0	0	0	0	0	0	0	0	0	0	0	0	0	0	0	0	0	0	0	0	0	0	0	0	0	0	0	0	0
082019	13:56:16	13:59:56	216991	5.0.10.0	5_exp_noRW	106	Rpleas_acq	CS_B	VKKV	GWWG	YDDY	JXXJ	BZZB	MQQM	schön	spielen	retten	fair	treu	ehrlich	schlecht	strafen	rächen	faul	tot	eitel	53pct	acq_USpleas_CSpleas1_noRW	acq1_noRW	1	67	0	0	300	300	492	50	0	1	1	blank2r.bmp	0	1	+	0	1	blank2r.bmp	252	1	VKKV	306	3	retten	559	0	0	0	0	0	0	0	0	0	0	0	0	0	0	0	0	0	0	0	0	0	0	0	0	0	0	0	0	0	0	0	0	0	0	0	0	0	0	0
082019	13:56:16	13:59:57	218724	5.0.10.0	5_exp_noRW	106	Rpleas_acq	CS_B	VKKV	GWWG	YDDY	JXXJ	BZZB	MQQM	schön	spielen	retten	fair	treu	ehrlich	schlecht	strafen	rächen	faul	tot	eitel	47pct	acq_USpleas_CSpleas1_noRW	acq1_noRW	1	68	0	0	300	300	560	50	0	1	1	blank2r.bmp	0	1	+	0	1	blank2r.bmp	252	1	VKKV	306	1	schön	559	0	0	0	0	0	0	0	0	0	0	0	0	0	0	0	0	0	0	0	0	0	0	0	0	0	0	0	0	0	0	0	0	0	0	0	0	0	0	0
082019	13:56:16	13:59:59	220257	5.0.10.0	5_exp_noRW	106	Rpleas_acq	CS_B	VKKV	GWWG	YDDY	JXXJ	BZZB	MQQM	schön	spielen	retten	fair	treu	ehrlich	schlecht	strafen	rächen	faul	tot	eitel	47pct	acq_USpleas_CSunple1_noRW	acq1_noRW	1	69	0	0	300	300	364	50	0	1	1	blank2r.bmp	0	1	+	0	1	blank2r.bmp	252	1	YDDY	306	1	schön	559	0	0	0	0	0	0	0	0	0	0	0	0	0	0	0	0	0	0	0	0	0	0	0	0	0	0	0	0	0	0	0	0	0	0	0	0	0	0	0
082019	13:56:16	14:00:01	222096	5.0.10.0	5_exp_noRW	106	Rpleas_acq	CS_B	VKKV	GWWG	YDDY	JXXJ	BZZB	MQQM	schön	spielen	retten	fair	treu	ehrlich	schlecht	strafen	rächen	faul	tot	eitel	53pct	acq_USpleas_CSunple2_noRW	acq1_noRW	1	70	0	0	300	300	654	50	0	1	1	blank2r.bmp	0	1	+	0	1	blank2r.bmp	252	1	JXXJ	306	1	fair	559	0	0	0	0	0	0	0	0	0	0	0	0	0	0	0	0	0	0	0	0	0	0	0	0	0	0	0	0	0	0	0	0	0	0	0	0	0	0	0
082019	13:56:16	14:00:02	223749	5.0.10.0	5_exp_noRW	106	Rpleas_acq	CS_B	VKKV	GWWG	YDDY	JXXJ	BZZB	MQQM	schön	spielen	retten	fair	treu	ehrlich	schlecht	strafen	rächen	faul	tot	eitel	47pct	acq_USpleas_CSpleas1_noRW	acq1_noRW	1	71	0	0	300	300	470	50	0	1	1	blank2r.bmp	0	1	+	0	1	blank2r.bmp	252	1	VKKV	306	2	spielen	559	0	0	0	0	0	0	0	0	0	0	0	0	0	0	0	0	0	0	0	0	0	0	0	0	0	0	0	0	0	0	0	0	0	0	0	0	0	0	0
082019	13:56:16	14:00:04	225415	5.0.10.0	5_exp_noRW	106	Rpleas_acq	CS_B	VKKV	GWWG	YDDY	JXXJ	BZZB	MQQM	schön	spielen	retten	fair	treu	ehrlich	schlecht	strafen	rächen	faul	tot	eitel	47pct	acq_USunple_CSunple2_noRW	acq1_noRW	1	72	0	0	300	300	481	46	0	1	1	blank2r.bmp	0	1	+	0	1	blank2r.bmp	252	1	JXXJ	306	3	eitel	559	0	0	0	0	0	0	0	0	0	0	0	0	0	0	0	0	0	0	0	0	0	0	0	0	0	0	0	0	0	0	0	0	0	0	0	0	0	0	0
082019	13:56:16	14:00:06	227121	5.0.10.0	5_exp_noRW	106	Rpleas_acq	CS_B	VKKV	GWWG	YDDY	JXXJ	BZZB	MQQM	schön	spielen	retten	fair	treu	ehrlich	schlecht	strafen	rächen	faul	tot	eitel	47pct	acq_USpleas_CSpleas1_noRW	acq1_noRW	1	73	0	0	300	300	533	50	0	1	1	blank2r.bmp	0	1	+	0	1	blank2r.bmp	252	1	VKKV	306	1	schön	559	0	0	0	0	0	0	0	0	0	0	0	0	0	0	0	0	0	0	0	0	0	0	0	0	0	0	0	0	0	0	0	0	0	0	0	0	0	0	0
082019	13:56:16	14:00:08	228987	5.0.10.0	5_exp_noRW	106	Rpleas_acq	CS_B	VKKV	GWWG	YDDY	JXXJ	BZZB	MQQM	schön	spielen	retten	fair	treu	ehrlich	schlecht	strafen	rächen	faul	tot	eitel	53pct	acq_USunple_CSpleas1_noRW	acq1_noRW	1	74	0	0	300	300	681	46	0	1	1	blank2r.bmp	0	1	+	0	1	blank2r.bmp	252	1	VKKV	306	2	strafen	559	0	0	0	0	0	0	0	0	0	0	0	0	0	0	0	0	0	0	0	0	0	0	0	0	0	0	0	0	0	0	0	0	0	0	0	0	0	0	0
082019	13:56:16	14:00:10	231012	5.0.10.0	5_exp_noRW	106	Rpleas_acq	CS_B	VKKV	GWWG	YDDY	JXXJ	BZZB	MQQM	schön	spielen	retten	fair	treu	ehrlich	schlecht	strafen	rächen	faul	tot	eitel	47pct	acq_USunple_CSunple2_noRW	acq1_noRW	1	75	0	0	300	300	854	46	0	1	1	blank2r.bmp	0	1	+	0	1	blank2r.bmp	252	1	JXXJ	306	1	faul	559	0	0	0	0	0	0	0	0	0	0	0	0	0	0	0	0	0	0	0	0	0	0	0	0	0	0	0	0	0	0	0	0	0	0	0	0	0	0	0
082019	13:56:16	14:00:11	232532	5.0.10.0	5_exp_noRW	106	Rpleas_acq	CS_B	VKKV	GWWG	YDDY	JXXJ	BZZB	MQQM	schön	spielen	retten	fair	treu	ehrlich	schlecht	strafen	rächen	faul	tot	eitel	47pct	acq_USunple_CSunple1_noRW	acq1_noRW	1	76	0	0	300	300	353	46	0	1	1	blank2r.bmp	0	1	+	0	1	blank2r.bmp	252	1	YDDY	306	2	strafen	559	0	0	0	0	0	0	0	0	0	0	0	0	0	0	0	0	0	0	0	0	0	0	0	0	0	0	0	0	0	0	0	0	0	0	0	0	0	0	0
082019	13:56:16	14:00:13	234104	5.0.10.0	5_exp_noRW	106	Rpleas_acq	CS_B	VKKV	GWWG	YDDY	JXXJ	BZZB	MQQM	schön	spielen	retten	fair	treu	ehrlich	schlecht	strafen	rächen	faul	tot	eitel	53pct	acq_USunple_CSunple1_noRW	acq1_noRW	1	77	0	0	300	300	396	46	0	1	1	blank2r.bmp	0	1	+	0	1	blank2r.bmp	252	1	YDDY	306	3	rächen	559	0	0	0	0	0	0	0	0	0	0	0	0	0	0	0	0	0	0	0	0	0	0	0	0	0	0	0	0	0	0	0	0	0	0	0	0	0	0	0
082019	13:56:16	14:00:14	235904	5.0.10.0	5_exp_noRW	106	Rpleas_acq	CS_B	VKKV	GWWG	YDDY	JXXJ	BZZB	MQQM	schön	spielen	retten	fair	treu	ehrlich	schlecht	strafen	rächen	faul	tot	eitel	47pct	acq_USpleas_CSpleas2_noRW	acq1_noRW	1	78	0	0	300	300	403	46	0	0	1	blank2r.bmp	0	1	+	0	1	blank2r.bmp	252	1	GWWG	306	1	fair	559	1	FEHLER	999	0	0	0	0	0	0	0	0	0	0	0	0	0	0	0	0	0	0	0	0	0	0	0	0	0	0	0	0	0	0	0	0	0	0	0	0
082019	13:56:16	14:00:16	237463	5.0.10.0	5_exp_noRW	106	Rpleas_acq	CS_B	VKKV	GWWG	YDDY	JXXJ	BZZB	MQQM	schön	spielen	retten	fair	treu	ehrlich	schlecht	strafen	rächen	faul	tot	eitel	47pct	acq_USunple_CSunple1_noRW	acq1_noRW	1	79	0	0	300	300	600	46	0	1	1	blank2r.bmp	0	1	+	0	1	blank2r.bmp	252	1	YDDY	306	2	strafen	559	0	0	0	0	0	0	0	0	0	0	0	0	0	0	0	0	0	0	0	0	0	0	0	0	0	0	0	0	0	0	0	0	0	0	0	0	0	0	0
082019	13:56:16	14:00:18	239422	5.0.10.0	5_exp_noRW	106	Rpleas_acq	CS_B	VKKV	GWWG	YDDY	JXXJ	BZZB	MQQM	schön	spielen	retten	fair	treu	ehrlich	schlecht	strafen	rächen	faul	tot	eitel	53pct	acq_USpleas_CSpleas2_noRW	acq1_noRW	1	80	0	0	300	300	778	50	0	1	1	blank2r.bmp	0	1	+	0	1	blank2r.bmp	252	1	GWWG	306	2	treu	559	0	0	0	0	0	0	0	0	0	0	0	0	0	0	0	0	0	0	0	0	0	0	0	0	0	0	0	0	0	0	0	0	0	0	0	0	0	0	0
082019	13:56:16	14:00:32	253017	5.0.10.0	5_exp_noRW	106	Rpleas_acq	CS_B	VKKV	GWWG	YDDY	JXXJ	BZZB	MQQM	schön	spielen	retten	fair	treu	ehrlich	schlecht	strafen	rächen	faul	tot	eitel	53pct	acq_USpleas_CSunple1_noRW	acq23456_noRW	2	1	0	0	300	300	531	50	0	1	1	blank2r.bmp	0	1	+	0	1	blank2r.bmp	252	1	YDDY	306	3	retten	559	0	0	0	0	0	0	0	0	0	0	0	0	0	0	0	0	0	0	0	0	0	0	0	0	0	0	0	0	0	0	0	0	0	0	0	0	0	0	0
082019	13:56:16	14:00:33	254723	5.0.10.0	5_exp_noRW	106	Rpleas_acq	CS_B	VKKV	GWWG	YDDY	JXXJ	BZZB	MQQM	schön	spielen	retten	fair	treu	ehrlich	schlecht	strafen	rächen	faul	tot	eitel	47pct	acq_USunple_CSpleas1_noRW	acq23456_noRW	2	2	0	0	300	300	530	46	0	1	1	blank2r.bmp	0	1	+	0	1	blank2r.bmp	252	1	VKKV	306	3	rächen	559	0	0	0	0	0	0	0	0	0	0	0	0	0	0	0	0	0	0	0	0	0	0	0	0	0	0	0	0	0	0	0	0	0	0	0	0	0	0	0
082019	13:56:16	14:00:35	256442	5.0.10.0	5_exp_noRW	106	Rpleas_acq	CS_B	VKKV	GWWG	YDDY	JXXJ	BZZB	MQQM	schön	spielen	retten	fair	treu	ehrlich	schlecht	strafen	rächen	faul	tot	eitel	47pct	acq_USpleas_CSpleas2_noRW	acq23456_noRW	2	3	0	0	300	300	533	50	0	1	1	blank2r.bmp	0	1	+	0	1	blank2r.bmp	252	1	GWWG	306	1	fair	559	0	0	0	0	0	0	0	0	0	0	0	0	0	0	0	0	0	0	0	0	0	0	0	0	0	0	0	0	0	0	0	0	0	0	0	0	0	0	0
082019	13:56:16	14:00:37	258241	5.0.10.0	5_exp_noRW	106	Rpleas_acq	CS_B	VKKV	GWWG	YDDY	JXXJ	BZZB	MQQM	schön	spielen	retten	fair	treu	ehrlich	schlecht	strafen	rächen	faul	tot	eitel	53pct	acq_USunple_CSunple1_noRW	acq23456_noRW	2	4	0	0	300	300	629	46	0	1	1	blank2r.bmp	0	1	+	0	1	blank2r.bmp	252	1	YDDY	306	1	schlecht	559	0	0	0	0	0	0	0	0	0	0	0	0	0	0	0	0	0	0	0	0	0	0	0	0	0	0	0	0	0	0	0	0	0	0	0	0	0	0	0
082019	13:56:16	14:00:38	259854	5.0.10.0	5_exp_noRW	106	Rpleas_acq	CS_B	VKKV	GWWG	YDDY	JXXJ	BZZB	MQQM	schön	spielen	retten	fair	treu	ehrlich	schlecht	strafen	rächen	faul	tot	eitel	53pct	acq_USunple_CSunple1_noRW	acq23456_noRW	2	5	0	0	300	300	435	46	0	1	1	blank2r.bmp	0	1	+	0	1	blank2r.bmp	252	1	YDDY	306	3	rächen	559	0	0	0	0	0	0	0	0	0	0	0	0	0	0	0	0	0	0	0	0	0	0	0	0	0	0	0	0	0	0	0	0	0	0	0	0	0	0	0
082019	13:56:16	14:00:40	261520	5.0.10.0	5_exp_noRW	106	Rpleas_acq	CS_B	VKKV	GWWG	YDDY	JXXJ	BZZB	MQQM	schön	spielen	retten	fair	treu	ehrlich	schlecht	strafen	rächen	faul	tot	eitel	53pct	acq_USpleas_CSpleas2_noRW	acq23456_noRW	2	6	0	0	300	300	503	50	0	1	1	blank2r.bmp	0	1	+	0	1	blank2r.bmp	252	1	GWWG	306	3	ehrlich	559	0	0	0	0	0	0	0	0	0	0	0	0	0	0	0	0	0	0	0	0	0	0	0	0	0	0	0	0	0	0	0	0	0	0	0	0	0	0	0
082019	13:56:16	14:00:42	263159	5.0.10.0	5_exp_noRW	106	Rpleas_acq	CS_B	VKKV	GWWG	YDDY	JXXJ	BZZB	MQQM	schön	spielen	retten	fair	treu	ehrlich	schlecht	strafen	rächen	faul	tot	eitel	53pct	acq_USpleas_CSpleas1_noRW	acq23456_noRW	2	7	0	0	300	300	460	50	0	1	1	blank2r.bmp	0	1	+	0	1	blank2r.bmp	252	1	VKKV	306	3	retten	559	0	0	0	0	0	0	0	0	0	0	0	0	0	0	0	0	0	0	0	0	0	0	0	0	0	0	0	0	0	0	0	0	0	0	0	0	0	0	0
082019	13:56:16	14:00:43	264799	5.0.10.0	5_exp_noRW	106	Rpleas_acq	CS_B	VKKV	GWWG	YDDY	JXXJ	BZZB	MQQM	schön	spielen	retten	fair	treu	ehrlich	schlecht	strafen	rächen	faul	tot	eitel	47pct	acq_USpleas_CSpleas2_noRW	acq23456_noRW	2	8	0	0	300	300	471	50	0	1	1	blank2r.bmp	0	1	+	0	1	blank2r.bmp	252	1	GWWG	306	3	ehrlich	559	0	0	0	0	0	0	0	0	0	0	0	0	0	0	0	0	0	0	0	0	0	0	0	0	0	0	0	0	0	0	0	0	0	0	0	0	0	0	0
082019	13:56:16	14:00:45	266371	5.0.10.0	5_exp_noRW	106	Rpleas_acq	CS_B	VKKV	GWWG	YDDY	JXXJ	BZZB	MQQM	schön	spielen	retten	fair	treu	ehrlich	schlecht	strafen	rächen	faul	tot	eitel	53pct	acq_USpleas_CSpleas1_noRW	acq23456_noRW	2	9	0	0	300	300	411	50	0	1	1	blank2r.bmp	0	1	+	0	1	blank2r.bmp	252	1	VKKV	306	2	spielen	559	0	0	0	0	0	0	0	0	0	0	0	0	0	0	0	0	0	0	0	0	0	0	0	0	0	0	0	0	0	0	0	0	0	0	0	0	0	0	0
082019	13:56:16	14:00:46	267904	5.0.10.0	5_exp_noRW	106	Rpleas_acq	CS_B	VKKV	GWWG	YDDY	JXXJ	BZZB	MQQM	schön	spielen	retten	fair	treu	ehrlich	schlecht	strafen	rächen	faul	tot	eitel	53pct	acq_USunple_CSunple1_noRW	acq23456_noRW	2	10	0	0	300	300	358	46	0	1	1	blank2r.bmp	0	1	+	0	1	blank2r.bmp	252	1	YDDY	306	1	schlecht	559	0	0	0	0	0	0	0	0	0	0	0	0	0	0	0	0	0	0	0	0	0	0	0	0	0	0	0	0	0	0	0	0	0	0	0	0	0	0	0
082019	13:56:16	14:00:48	269477	5.0.10.0	5_exp_noRW	106	Rpleas_acq	CS_B	VKKV	GWWG	YDDY	JXXJ	BZZB	MQQM	schön	spielen	retten	fair	treu	ehrlich	schlecht	strafen	rächen	faul	tot	eitel	53pct	acq_USunple_CSunple2_noRW	acq23456_noRW	2	11	0	0	300	300	388	46	0	1	1	blank2r.bmp	0	1	+	0	1	blank2r.bmp	252	1	JXXJ	306	2	tot	559	0	0	0	0	0	0	0	0	0	0	0	0	0	0	0	0	0	0	0	0	0	0	0	0	0	0	0	0	0	0	0	0	0	0	0	0	0	0	0
082019	13:56:16	14:00:50	271023	5.0.10.0	5_exp_noRW	106	Rpleas_acq	CS_B	VKKV	GWWG	YDDY	JXXJ	BZZB	MQQM	schön	spielen	retten	fair	treu	ehrlich	schlecht	strafen	rächen	faul	tot	eitel	53pct	acq_USunple_CSpleas2_noRW	acq23456_noRW	2	12	0	0	300	300	362	46	0	1	1	blank2r.bmp	0	1	+	0	1	blank2r.bmp	252	1	GWWG	306	1	faul	559	0	0	0	0	0	0	0	0	0	0	0	0	0	0	0	0	0	0	0	0	0	0	0	0	0	0	0	0	0	0	0	0	0	0	0	0	0	0	0
082019	13:56:16	14:00:51	272569	5.0.10.0	5_exp_noRW	106	Rpleas_acq	CS_B	VKKV	GWWG	YDDY	JXXJ	BZZB	MQQM	schön	spielen	retten	fair	treu	ehrlich	schlecht	strafen	rächen	faul	tot	eitel	47pct	acq_USunple_CSunple1_noRW	acq23456_noRW	2	13	0	0	300	300	380	46	0	1	1	blank2r.bmp	0	1	+	0	1	blank2r.bmp	252	1	YDDY	306	3	rächen	559	0	0	0	0	0	0	0	0	0	0	0	0	0	0	0	0	0	0	0	0	0	0	0	0	0	0	0	0	0	0	0	0	0	0	0	0	0	0	0
082019	13:56:16	14:00:53	274248	5.0.10.0	5_exp_noRW	106	Rpleas_acq	CS_B	VKKV	GWWG	YDDY	JXXJ	BZZB	MQQM	schön	spielen	retten	fair	treu	ehrlich	schlecht	strafen	rächen	faul	tot	eitel	47pct	acq_USpleas_CSpleas2_noRW	acq23456_noRW	2	14	0	0	300	300	513	50	0	1	1	blank2r.bmp	0	1	+	0	1	blank2r.bmp	252	1	GWWG	306	1	fair	559	0	0	0	0	0	0	0	0	0	0	0	0	0	0	0	0	0	0	0	0	0	0	0	0	0	0	0	0	0	0	0	0	0	0	0	0	0	0	0
082019	13:56:16	14:00:54	275901	5.0.10.0	5_exp_noRW	106	Rpleas_acq	CS_B	VKKV	GWWG	YDDY	JXXJ	BZZB	MQQM	schön	spielen	retten	fair	treu	ehrlich	schlecht	strafen	rächen	faul	tot	eitel	53pct	acq_USpleas_CSpleas1_noRW	acq23456_noRW	2	15	0	0	300	300	468	50	0	1	1	blank2r.bmp	0	1	+	0	1	blank2r.bmp	252	1	VKKV	306	3	retten	559	0	0	0	0	0	0	0	0	0	0	0	0	0	0	0	0	0	0	0	0	0	0	0	0	0	0	0	0	0	0	0	0	0	0	0	0	0	0	0
082019	13:56:16	14:00:56	277554	5.0.10.0	5_exp_noRW	106	Rpleas_acq	CS_B	VKKV	GWWG	YDDY	JXXJ	BZZB	MQQM	schön	spielen	retten	fair	treu	ehrlich	schlecht	strafen	rächen	faul	tot	eitel	53pct	acq_USpleas_CSunple2_noRW	acq23456_noRW	2	16	0	0	300	300	478	50	0	1	1	blank2r.bmp	0	1	+	0	1	blank2r.bmp	252	1	JXXJ	306	2	treu	559	0	0	0	0	0	0	0	0	0	0	0	0	0	0	0	0	0	0	0	0	0	0	0	0	0	0	0	0	0	0	0	0	0	0	0	0	0	0	0
082019	13:56:16	14:00:58	279166	5.0.10.0	5_exp_noRW	106	Rpleas_acq	CS_B	VKKV	GWWG	YDDY	JXXJ	BZZB	MQQM	schön	spielen	retten	fair	treu	ehrlich	schlecht	strafen	rächen	faul	tot	eitel	47pct	acq_USpleas_CSpleas1_noRW	acq23456_noRW	2	17	0	0	300	300	431	50	0	1	1	blank2r.bmp	0	1	+	0	1	blank2r.bmp	252	1	VKKV	306	1	schön	559	0	0	0	0	0	0	0	0	0	0	0	0	0	0	0	0	0	0	0	0	0	0	0	0	0	0	0	0	0	0	0	0	0	0	0	0	0	0	0
082019	13:56:16	14:00:59	280779	5.0.10.0	5_exp_noRW	106	Rpleas_acq	CS_B	VKKV	GWWG	YDDY	JXXJ	BZZB	MQQM	schön	spielen	retten	fair	treu	ehrlich	schlecht	strafen	rächen	faul	tot	eitel	53pct	acq_USunple_CSunple2_noRW	acq23456_noRW	2	18	0	0	300	300	441	46	0	1	1	blank2r.bmp	0	1	+	0	1	blank2r.bmp	252	1	JXXJ	306	3	eitel	559	0	0	0	0	0	0	0	0	0	0	0	0	0	0	0	0	0	0	0	0	0	0	0	0	0	0	0	0	0	0	0	0	0	0	0	0	0	0	0
082019	13:56:16	14:01:01	282352	5.0.10.0	5_exp_noRW	106	Rpleas_acq	CS_B	VKKV	GWWG	YDDY	JXXJ	BZZB	MQQM	schön	spielen	retten	fair	treu	ehrlich	schlecht	strafen	rächen	faul	tot	eitel	53pct	acq_USunple_CSunple2_noRW	acq23456_noRW	2	19	0	0	300	300	400	46	0	1	1	blank2r.bmp	0	1	+	0	1	blank2r.bmp	252	1	JXXJ	306	3	eitel	559	0	0	0	0	0	0	0	0	0	0	0	0	0	0	0	0	0	0	0	0	0	0	0	0	0	0	0	0	0	0	0	0	0	0	0	0	0	0	0
082019	13:56:16	14:01:03	284044	5.0.10.0	5_exp_noRW	106	Rpleas_acq	CS_B	VKKV	GWWG	YDDY	JXXJ	BZZB	MQQM	schön	spielen	retten	fair	treu	ehrlich	schlecht	strafen	rächen	faul	tot	eitel	47pct	acq_USunple_CSunple2_noRW	acq23456_noRW	2	20	0	0	300	300	528	46	0	1	1	blank2r.bmp	0	1	+	0	1	blank2r.bmp	252	1	JXXJ	306	2	tot	559	0	0	0	0	0	0	0	0	0	0	0	0	0	0	0	0	0	0	0	0	0	0	0	0	0	0	0	0	0	0	0	0	0	0	0	0	0	0	0
082019	13:56:16	14:01:04	285684	5.0.10.0	5_exp_noRW	106	Rpleas_acq	CS_B	VKKV	GWWG	YDDY	JXXJ	BZZB	MQQM	schön	spielen	retten	fair	treu	ehrlich	schlecht	strafen	rächen	faul	tot	eitel	47pct	acq_USunple_CSunple2_noRW	acq23456_noRW	2	21	0	0	300	300	452	46	0	1	1	blank2r.bmp	0	1	+	0	1	blank2r.bmp	252	1	JXXJ	306	1	faul	559	0	0	0	0	0	0	0	0	0	0	0	0	0	0	0	0	0	0	0	0	0	0	0	0	0	0	0	0	0	0	0	0	0	0	0	0	0	0	0
082019	13:56:16	14:01:06	287243	5.0.10.0	5_exp_noRW	106	Rpleas_acq	CS_B	VKKV	GWWG	YDDY	JXXJ	BZZB	MQQM	schön	spielen	retten	fair	treu	ehrlich	schlecht	strafen	rächen	faul	tot	eitel	53pct	acq_USpleas_CSunple1_noRW	acq23456_noRW	2	22	0	0	300	300	378	50	0	1	1	blank2r.bmp	0	1	+	0	1	blank2r.bmp	252	1	YDDY	306	2	spielen	559	0	0	0	0	0	0	0	0	0	0	0	0	0	0	0	0	0	0	0	0	0	0	0	0	0	0	0	0	0	0	0	0	0	0	0	0	0	0	0
082019	13:56:16	14:01:07	288802	5.0.10.0	5_exp_noRW	106	Rpleas_acq	CS_B	VKKV	GWWG	YDDY	JXXJ	BZZB	MQQM	schön	spielen	retten	fair	treu	ehrlich	schlecht	strafen	rächen	faul	tot	eitel	47pct	acq_USunple_CSunple2_noRW	acq23456_noRW	2	23	0	0	300	300	372	46	0	1	1	blank2r.bmp	0	1	+	0	1	blank2r.bmp	252	1	JXXJ	306	2	tot	559	0	0	0	0	0	0	0	0	0	0	0	0	0	0	0	0	0	0	0	0	0	0	0	0	0	0	0	0	0	0	0	0	0	0	0	0	0	0	0
082019	13:56:16	14:01:09	290455	5.0.10.0	5_exp_noRW	106	Rpleas_acq	CS_B	VKKV	GWWG	YDDY	JXXJ	BZZB	MQQM	schön	spielen	retten	fair	treu	ehrlich	schlecht	strafen	rächen	faul	tot	eitel	53pct	acq_USunple_CSunple1_noRW	acq23456_noRW	2	24	0	0	300	300	489	46	0	1	1	blank2r.bmp	0	1	+	0	1	blank2r.bmp	252	1	YDDY	306	2	strafen	559	0	0	0	0	0	0	0	0	0	0	0	0	0	0	0	0	0	0	0	0	0	0	0	0	0	0	0	0	0	0	0	0	0	0	0	0	0	0	0
082019	13:56:16	14:01:11	292148	5.0.10.0	5_exp_noRW	106	Rpleas_acq	CS_B	VKKV	GWWG	YDDY	JXXJ	BZZB	MQQM	schön	spielen	retten	fair	treu	ehrlich	schlecht	strafen	rächen	faul	tot	eitel	53pct	acq_USunple_CSunple2_noRW	acq23456_noRW	2	25	0	0	300	300	511	46	0	1	1	blank2r.bmp	0	1	+	0	1	blank2r.bmp	252	1	JXXJ	306	3	eitel	559	0	0	0	0	0	0	0	0	0	0	0	0	0	0	0	0	0	0	0	0	0	0	0	0	0	0	0	0	0	0	0	0	0	0	0	0	0	0	0
082019	13:56:16	14:01:12	293854	5.0.10.0	5_exp_noRW	106	Rpleas_acq	CS_B	VKKV	GWWG	YDDY	JXXJ	BZZB	MQQM	schön	spielen	retten	fair	treu	ehrlich	schlecht	strafen	rächen	faul	tot	eitel	53pct	acq_USpleas_CSpleas1_noRW	acq23456_noRW	2	26	0	0	300	300	541	50	0	1	1	blank2r.bmp	0	1	+	0	1	blank2r.bmp	252	1	VKKV	306	2	spielen	559	0	0	0	0	0	0	0	0	0	0	0	0	0	0	0	0	0	0	0	0	0	0	0	0	0	0	0	0	0	0	0	0	0	0	0	0	0	0	0
082019	13:56:16	14:01:14	295453	5.0.10.0	5_exp_noRW	106	Rpleas_acq	CS_B	VKKV	GWWG	YDDY	JXXJ	BZZB	MQQM	schön	spielen	retten	fair	treu	ehrlich	schlecht	strafen	rächen	faul	tot	eitel	47pct	acq_USpleas_CSpleas1_noRW	acq23456_noRW	2	27	0	0	300	300	413	50	0	1	1	blank2r.bmp	0	1	+	0	1	blank2r.bmp	252	1	VKKV	306	1	schön	559	0	0	0	0	0	0	0	0	0	0	0	0	0	0	0	0	0	0	0	0	0	0	0	0	0	0	0	0	0	0	0	0	0	0	0	0	0	0	0
082019	13:56:16	14:01:16	297092	5.0.10.0	5_exp_noRW	106	Rpleas_acq	CS_B	VKKV	GWWG	YDDY	JXXJ	BZZB	MQQM	schön	spielen	retten	fair	treu	ehrlich	schlecht	strafen	rächen	faul	tot	eitel	47pct	acq_USunple_CSunple2_noRW	acq23456_noRW	2	28	0	0	300	300	472	46	0	1	1	blank2r.bmp	0	1	+	0	1	blank2r.bmp	252	1	JXXJ	306	1	faul	559	0	0	0	0	0	0	0	0	0	0	0	0	0	0	0	0	0	0	0	0	0	0	0	0	0	0	0	0	0	0	0	0	0	0	0	0	0	0	0
082019	13:56:16	14:01:18	299012	5.0.10.0	5_exp_noRW	106	Rpleas_acq	CS_B	VKKV	GWWG	YDDY	JXXJ	BZZB	MQQM	schön	spielen	retten	fair	treu	ehrlich	schlecht	strafen	rächen	faul	tot	eitel	47pct	acq_USpleas_CSunple2_noRW	acq23456_noRW	2	29	0	0	300	300	540	46	0	0	1	blank2r.bmp	0	1	+	0	1	blank2r.bmp	252	1	JXXJ	306	3	ehrlich	559	1	FEHLER	1132	0	0	0	0	0	0	0	0	0	0	0	0	0	0	0	0	0	0	0	0	0	0	0	0	0	0	0	0	0	0	0	0	0	0	0	0
082019	13:56:16	14:01:19	300424	5.0.10.0	5_exp_noRW	106	Rpleas_acq	CS_B	VKKV	GWWG	YDDY	JXXJ	BZZB	MQQM	schön	spielen	retten	fair	treu	ehrlich	schlecht	strafen	rächen	faul	tot	eitel	47pct	acq_USunple_CSunple1_noRW	acq23456_noRW	2	30	0	0	300	300	447	46	0	1	1	blank2r.bmp	0	1	+	0	1	blank2r.bmp	252	1	YDDY	306	1	schlecht	559	0	0	0	0	0	0	0	0	0	0	0	0	0	0	0	0	0	0	0	0	0	0	0	0	0	0	0	0	0	0	0	0	0	0	0	0	0	0	0
082019	13:56:16	14:01:21	302130	5.0.10.0	5_exp_noRW	106	Rpleas_acq	CS_B	VKKV	GWWG	YDDY	JXXJ	BZZB	MQQM	schön	spielen	retten	fair	treu	ehrlich	schlecht	strafen	rächen	faul	tot	eitel	47pct	acq_USunple_CSunple1_noRW	acq23456_noRW	2	31	0	0	300	300	521	46	0	1	1	blank2r.bmp	0	1	+	0	1	blank2r.bmp	252	1	YDDY	306	3	rächen	559	0	0	0	0	0	0	0	0	0	0	0	0	0	0	0	0	0	0	0	0	0	0	0	0	0	0	0	0	0	0	0	0	0	0	0	0	0	0	0
082019	13:56:16	14:01:22	303796	5.0.10.0	5_exp_noRW	106	Rpleas_acq	CS_B	VKKV	GWWG	YDDY	JXXJ	BZZB	MQQM	schön	spielen	retten	fair	treu	ehrlich	schlecht	strafen	rächen	faul	tot	eitel	53pct	acq_USpleas_CSpleas1_noRW	acq23456_noRW	2	32	0	0	300	300	504	50	0	1	1	blank2r.bmp	0	1	+	0	1	blank2r.bmp	252	1	VKKV	306	2	spielen	559	0	0	0	0	0	0	0	0	0	0	0	0	0	0	0	0	0	0	0	0	0	0	0	0	0	0	0	0	0	0	0	0	0	0	0	0	0	0	0
082019	13:56:16	14:01:24	305542	5.0.10.0	5_exp_noRW	106	Rpleas_acq	CS_B	VKKV	GWWG	YDDY	JXXJ	BZZB	MQQM	schön	spielen	retten	fair	treu	ehrlich	schlecht	strafen	rächen	faul	tot	eitel	47pct	acq_USpleas_CSpleas2_noRW	acq23456_noRW	2	33	0	0	300	300	560	50	0	1	1	blank2r.bmp	0	1	+	0	1	blank2r.bmp	252	1	GWWG	306	2	treu	559	0	0	0	0	0	0	0	0	0	0	0	0	0	0	0	0	0	0	0	0	0	0	0	0	0	0	0	0	0	0	0	0	0	0	0	0	0	0	0
082019	13:56:16	14:01:26	307288	5.0.10.0	5_exp_noRW	106	Rpleas_acq	CS_B	VKKV	GWWG	YDDY	JXXJ	BZZB	MQQM	schön	spielen	retten	fair	treu	ehrlich	schlecht	strafen	rächen	faul	tot	eitel	47pct	acq_USpleas_CSpleas2_noRW	acq23456_noRW	2	34	0	0	300	300	565	50	0	1	1	blank2r.bmp	0	1	+	0	1	blank2r.bmp	252	1	GWWG	306	1	fair	559	0	0	0	0	0	0	0	0	0	0	0	0	0	0	0	0	0	0	0	0	0	0	0	0	0	0	0	0	0	0	0	0	0	0	0	0	0	0	0
082019	13:56:16	14:01:27	308927	5.0.10.0	5_exp_noRW	106	Rpleas_acq	CS_B	VKKV	GWWG	YDDY	JXXJ	BZZB	MQQM	schön	spielen	retten	fair	treu	ehrlich	schlecht	strafen	rächen	faul	tot	eitel	53pct	acq_USunple_CSpleas1_noRW	acq23456_noRW	2	35	0	0	300	300	453	46	0	1	1	blank2r.bmp	0	1	+	0	1	blank2r.bmp	252	1	VKKV	306	1	schlecht	559	0	0	0	0	0	0	0	0	0	0	0	0	0	0	0	0	0	0	0	0	0	0	0	0	0	0	0	0	0	0	0	0	0	0	0	0	0	0	0
082019	13:56:16	14:01:29	310673	5.0.10.0	5_exp_noRW	106	Rpleas_acq	CS_B	VKKV	GWWG	YDDY	JXXJ	BZZB	MQQM	schön	spielen	retten	fair	treu	ehrlich	schlecht	strafen	rächen	faul	tot	eitel	53pct	acq_USpleas_CSpleas2_noRW	acq23456_noRW	2	36	0	0	300	300	568	50	0	1	1	blank2r.bmp	0	1	+	0	1	blank2r.bmp	252	1	GWWG	306	3	ehrlich	559	0	0	0	0	0	0	0	0	0	0	0	0	0	0	0	0	0	0	0	0	0	0	0	0	0	0	0	0	0	0	0	0	0	0	0	0	0	0	0
082019	13:56:16	14:01:31	312313	5.0.10.0	5_exp_noRW	106	Rpleas_acq	CS_B	VKKV	GWWG	YDDY	JXXJ	BZZB	MQQM	schön	spielen	retten	fair	treu	ehrlich	schlecht	strafen	rächen	faul	tot	eitel	53pct	acq_USunple_CSpleas2_noRW	acq23456_noRW	2	37	0	0	300	300	456	46	0	1	1	blank2r.bmp	0	1	+	0	1	blank2r.bmp	252	1	GWWG	306	2	tot	559	0	0	0	0	0	0	0	0	0	0	0	0	0	0	0	0	0	0	0	0	0	0	0	0	0	0	0	0	0	0	0	0	0	0	0	0	0	0	0
082019	13:56:16	14:01:33	313992	5.0.10.0	5_exp_noRW	106	Rpleas_acq	CS_B	VKKV	GWWG	YDDY	JXXJ	BZZB	MQQM	schön	spielen	retten	fair	treu	ehrlich	schlecht	strafen	rächen	faul	tot	eitel	53pct	acq_USpleas_CSpleas1_noRW	acq23456_noRW	2	38	0	0	300	300	499	50	0	1	1	blank2r.bmp	0	1	+	0	1	blank2r.bmp	252	1	VKKV	306	3	retten	559	0	0	0	0	0	0	0	0	0	0	0	0	0	0	0	0	0	0	0	0	0	0	0	0	0	0	0	0	0	0	0	0	0	0	0	0	0	0	0
082019	13:56:16	14:01:34	315765	5.0.10.0	5_exp_noRW	106	Rpleas_acq	CS_B	VKKV	GWWG	YDDY	JXXJ	BZZB	MQQM	schön	spielen	retten	fair	treu	ehrlich	schlecht	strafen	rächen	faul	tot	eitel	47pct	acq_USunple_CSunple1_noRW	acq23456_noRW	2	39	0	0	300	300	594	46	0	1	1	blank2r.bmp	0	1	+	0	1	blank2r.bmp	252	1	YDDY	306	2	strafen	559	0	0	0	0	0	0	0	0	0	0	0	0	0	0	0	0	0	0	0	0	0	0	0	0	0	0	0	0	0	0	0	0	0	0	0	0	0	0	0
082019	13:56:16	14:01:36	317364	5.0.10.0	5_exp_noRW	106	Rpleas_acq	CS_B	VKKV	GWWG	YDDY	JXXJ	BZZB	MQQM	schön	spielen	retten	fair	treu	ehrlich	schlecht	strafen	rächen	faul	tot	eitel	47pct	acq_USpleas_CSpleas2_noRW	acq23456_noRW	2	40	0	0	300	300	438	50	0	1	1	blank2r.bmp	0	1	+	0	1	blank2r.bmp	252	1	GWWG	306	2	treu	559	0	0	0	0	0	0	0	0	0	0	0	0	0	0	0	0	0	0	0	0	0	0	0	0	0	0	0	0	0	0	0	0	0	0	0	0	0	0	0
082019	13:56:16	14:01:37	318950	5.0.10.0	5_exp_noRW	106	Rpleas_acq	CS_B	VKKV	GWWG	YDDY	JXXJ	BZZB	MQQM	schön	spielen	retten	fair	treu	ehrlich	schlecht	strafen	rächen	faul	tot	eitel	53pct	acq_USpleas_CSpleas1_noRW	acq23456_noRW	2	41	0	0	300	300	405	50	0	1	1	blank2r.bmp	0	1	+	0	1	blank2r.bmp	252	1	VKKV	306	2	spielen	559	0	0	0	0	0	0	0	0	0	0	0	0	0	0	0	0	0	0	0	0	0	0	0	0	0	0	0	0	0	0	0	0	0	0	0	0	0	0	0
082019	13:56:16	14:01:39	320843	5.0.10.0	5_exp_noRW	106	Rpleas_acq	CS_B	VKKV	GWWG	YDDY	JXXJ	BZZB	MQQM	schön	spielen	retten	fair	treu	ehrlich	schlecht	strafen	rächen	faul	tot	eitel	47pct	acq_USunple_CSpleas1_noRW	acq23456_noRW	2	42	0	0	300	300	725	46	0	1	1	blank2r.bmp	0	1	+	0	1	blank2r.bmp	252	1	VKKV	306	3	rächen	559	0	0	0	0	0	0	0	0	0	0	0	0	0	0	0	0	0	0	0	0	0	0	0	0	0	0	0	0	0	0	0	0	0	0	0	0	0	0	0
082019	13:56:16	14:01:42	323028	5.0.10.0	5_exp_noRW	106	Rpleas_acq	CS_B	VKKV	GWWG	YDDY	JXXJ	BZZB	MQQM	schön	spielen	retten	fair	treu	ehrlich	schlecht	strafen	rächen	faul	tot	eitel	47pct	acq_USpleas_CSpleas1_noRW	acq23456_noRW	2	43	0	0	300	300	803	46	0	0	1	blank2r.bmp	0	1	+	0	1	blank2r.bmp	252	1	VKKV	306	3	retten	559	1	FEHLER	1399	0	0	0	0	0	0	0	0	0	0	0	0	0	0	0	0	0	0	0	0	0	0	0	0	0	0	0	0	0	0	0	0	0	0	0	0
082019	13:56:16	14:01:43	324495	5.0.10.0	5_exp_noRW	106	Rpleas_acq	CS_B	VKKV	GWWG	YDDY	JXXJ	BZZB	MQQM	schön	spielen	retten	fair	treu	ehrlich	schlecht	strafen	rächen	faul	tot	eitel	53pct	acq_USpleas_CSpleas1_noRW	acq23456_noRW	2	44	0	0	300	300	503	50	0	1	1	blank2r.bmp	0	1	+	0	1	blank2r.bmp	252	1	VKKV	306	1	schön	559	0	0	0	0	0	0	0	0	0	0	0	0	0	0	0	0	0	0	0	0	0	0	0	0	0	0	0	0	0	0	0	0	0	0	0	0	0	0	0
082019	13:56:16	14:01:45	326081	5.0.10.0	5_exp_noRW	106	Rpleas_acq	CS_B	VKKV	GWWG	YDDY	JXXJ	BZZB	MQQM	schön	spielen	retten	fair	treu	ehrlich	schlecht	strafen	rächen	faul	tot	eitel	53pct	acq_USpleas_CSunple1_noRW	acq23456_noRW	2	45	0	0	300	300	403	50	0	1	1	blank2r.bmp	0	1	+	0	1	blank2r.bmp	252	1	YDDY	306	1	schön	559	0	0	0	0	0	0	0	0	0	0	0	0	0	0	0	0	0	0	0	0	0	0	0	0	0	0	0	0	0	0	0	0	0	0	0	0	0	0	0
082019	13:56:16	14:01:46	327533	5.0.10.0	5_exp_noRW	106	Rpleas_acq	CS_B	VKKV	GWWG	YDDY	JXXJ	BZZB	MQQM	schön	spielen	retten	fair	treu	ehrlich	schlecht	strafen	rächen	faul	tot	eitel	53pct	acq_USpleas_CSpleas1_noRW	acq23456_noRW	2	46	0	0	300	300	287	50	0	1	1	blank2r.bmp	0	1	+	0	1	blank2r.bmp	252	1	VKKV	306	1	schön	559	0	0	0	0	0	0	0	0	0	0	0	0	0	0	0	0	0	0	0	0	0	0	0	0	0	0	0	0	0	0	0	0	0	0	0	0	0	0	0
082019	13:56:16	14:01:48	329199	5.0.10.0	5_exp_noRW	106	Rpleas_acq	CS_B	VKKV	GWWG	YDDY	JXXJ	BZZB	MQQM	schön	spielen	retten	fair	treu	ehrlich	schlecht	strafen	rächen	faul	tot	eitel	53pct	acq_USpleas_CSpleas2_noRW	acq23456_noRW	2	47	0	0	300	300	490	50	0	1	1	blank2r.bmp	0	1	+	0	1	blank2r.bmp	252	1	GWWG	306	1	fair	559	0	0	0	0	0	0	0	0	0	0	0	0	0	0	0	0	0	0	0	0	0	0	0	0	0	0	0	0	0	0	0	0	0	0	0	0	0	0	0
082019	13:56:16	14:01:49	330812	5.0.10.0	5_exp_noRW	106	Rpleas_acq	CS_B	VKKV	GWWG	YDDY	JXXJ	BZZB	MQQM	schön	spielen	retten	fair	treu	ehrlich	schlecht	strafen	rächen	faul	tot	eitel	53pct	acq_USunple_CSunple1_noRW	acq23456_noRW	2	48	0	0	300	300	427	46	0	1	1	blank2r.bmp	0	1	+	0	1	blank2r.bmp	252	1	YDDY	306	2	strafen	559	0	0	0	0	0	0	0	0	0	0	0	0	0	0	0	0	0	0	0	0	0	0	0	0	0	0	0	0	0	0	0	0	0	0	0	0	0	0	0
082019	13:56:16	14:01:51	332505	5.0.10.0	5_exp_noRW	106	Rpleas_acq	CS_B	VKKV	GWWG	YDDY	JXXJ	BZZB	MQQM	schön	spielen	retten	fair	treu	ehrlich	schlecht	strafen	rächen	faul	tot	eitel	53pct	acq_USunple_CSunple1_noRW	acq23456_noRW	2	49	0	0	300	300	512	46	0	1	1	blank2r.bmp	0	1	+	0	1	blank2r.bmp	252	1	YDDY	306	3	rächen	559	0	0	0	0	0	0	0	0	0	0	0	0	0	0	0	0	0	0	0	0	0	0	0	0	0	0	0	0	0	0	0	0	0	0	0	0	0	0	0
082019	13:56:16	14:01:53	334144	5.0.10.0	5_exp_noRW	106	Rpleas_acq	CS_B	VKKV	GWWG	YDDY	JXXJ	BZZB	MQQM	schön	spielen	retten	fair	treu	ehrlich	schlecht	strafen	rächen	faul	tot	eitel	47pct	acq_USpleas_CSpleas2_noRW	acq23456_noRW	2	50	0	0	300	300	469	50	0	1	1	blank2r.bmp	0	1	+	0	1	blank2r.bmp	252	1	GWWG	306	2	treu	559	0	0	0	0	0	0	0	0	0	0	0	0	0	0	0	0	0	0	0	0	0	0	0	0	0	0	0	0	0	0	0	0	0	0	0	0	0	0	0
082019	13:56:16	14:01:54	335823	5.0.10.0	5_exp_noRW	106	Rpleas_acq	CS_B	VKKV	GWWG	YDDY	JXXJ	BZZB	MQQM	schön	spielen	retten	fair	treu	ehrlich	schlecht	strafen	rächen	faul	tot	eitel	47pct	acq_USunple_CSunple1_noRW	acq23456_noRW	2	51	0	0	300	300	505	46	0	1	1	blank2r.bmp	0	1	+	0	1	blank2r.bmp	252	1	YDDY	306	1	schlecht	559	0	0	0	0	0	0	0	0	0	0	0	0	0	0	0	0	0	0	0	0	0	0	0	0	0	0	0	0	0	0	0	0	0	0	0	0	0	0	0
082019	13:56:16	14:01:56	337663	5.0.10.0	5_exp_noRW	106	Rpleas_acq	CS_B	VKKV	GWWG	YDDY	JXXJ	BZZB	MQQM	schön	spielen	retten	fair	treu	ehrlich	schlecht	strafen	rächen	faul	tot	eitel	47pct	acq_USpleas_CSpleas2_noRW	acq23456_noRW	2	52	0	0	300	300	678	50	0	1	1	blank2r.bmp	0	1	+	0	1	blank2r.bmp	252	1	GWWG	306	3	ehrlich	559	0	0	0	0	0	0	0	0	0	0	0	0	0	0	0	0	0	0	0	0	0	0	0	0	0	0	0	0	0	0	0	0	0	0	0	0	0	0	0
082019	13:56:16	14:01:58	339262	5.0.10.0	5_exp_noRW	106	Rpleas_acq	CS_B	VKKV	GWWG	YDDY	JXXJ	BZZB	MQQM	schön	spielen	retten	fair	treu	ehrlich	schlecht	strafen	rächen	faul	tot	eitel	53pct	acq_USpleas_CSunple2_noRW	acq23456_noRW	2	53	0	0	300	300	417	50	0	1	1	blank2r.bmp	0	1	+	0	1	blank2r.bmp	252	1	JXXJ	306	3	ehrlich	559	0	0	0	0	0	0	0	0	0	0	0	0	0	0	0	0	0	0	0	0	0	0	0	0	0	0	0	0	0	0	0	0	0	0	0	0	0	0	0
082019	13:56:16	14:02:00	341034	5.0.10.0	5_exp_noRW	106	Rpleas_acq	CS_B	VKKV	GWWG	YDDY	JXXJ	BZZB	MQQM	schön	spielen	retten	fair	treu	ehrlich	schlecht	strafen	rächen	faul	tot	eitel	47pct	acq_USpleas_CSpleas2_noRW	acq23456_noRW	2	54	0	0	300	300	388	46	0	0	1	blank2r.bmp	0	1	+	0	1	blank2r.bmp	252	1	GWWG	306	2	treu	559	1	FEHLER	986	0	0	0	0	0	0	0	0	0	0	0	0	0	0	0	0	0	0	0	0	0	0	0	0	0	0	0	0	0	0	0	0	0	0	0	0
082019	13:56:16	14:02:01	342501	5.0.10.0	5_exp_noRW	106	Rpleas_acq	CS_B	VKKV	GWWG	YDDY	JXXJ	BZZB	MQQM	schön	spielen	retten	fair	treu	ehrlich	schlecht	strafen	rächen	faul	tot	eitel	47pct	acq_USunple_CSunple2_noRW	acq23456_noRW	2	55	0	0	300	300	517	46	0	1	1	blank2r.bmp	0	1	+	0	1	blank2r.bmp	252	1	JXXJ	306	1	faul	559	0	0	0	0	0	0	0	0	0	0	0	0	0	0	0	0	0	0	0	0	0	0	0	0	0	0	0	0	0	0	0	0	0	0	0	0	0	0	0
082019	13:56:16	14:02:03	344167	5.0.10.0	5_exp_noRW	106	Rpleas_acq	CS_B	VKKV	GWWG	YDDY	JXXJ	BZZB	MQQM	schön	spielen	retten	fair	treu	ehrlich	schlecht	strafen	rächen	faul	tot	eitel	53pct	acq_USunple_CSunple2_noRW	acq23456_noRW	2	56	0	0	300	300	501	46	0	1	1	blank2r.bmp	0	1	+	0	1	blank2r.bmp	252	1	JXXJ	306	3	eitel	559	0	0	0	0	0	0	0	0	0	0	0	0	0	0	0	0	0	0	0	0	0	0	0	0	0	0	0	0	0	0	0	0	0	0	0	0	0	0	0
082019	13:56:16	14:02:04	345806	5.0.10.0	5_exp_noRW	106	Rpleas_acq	CS_B	VKKV	GWWG	YDDY	JXXJ	BZZB	MQQM	schön	spielen	retten	fair	treu	ehrlich	schlecht	strafen	rächen	faul	tot	eitel	53pct	acq_USunple_CSunple2_noRW	acq23456_noRW	2	57	0	0	300	300	452	46	0	1	1	blank2r.bmp	0	1	+	0	1	blank2r.bmp	252	1	JXXJ	306	2	tot	559	0	0	0	0	0	0	0	0	0	0	0	0	0	0	0	0	0	0	0	0	0	0	0	0	0	0	0	0	0	0	0	0	0	0	0	0	0	0	0
082019	13:56:16	14:02:06	347525	5.0.10.0	5_exp_noRW	106	Rpleas_acq	CS_B	VKKV	GWWG	YDDY	JXXJ	BZZB	MQQM	schön	spielen	retten	fair	treu	ehrlich	schlecht	strafen	rächen	faul	tot	eitel	47pct	acq_USunple_CSpleas2_noRW	acq23456_noRW	2	58	0	0	300	300	531	46	0	1	1	blank2r.bmp	0	1	+	0	1	blank2r.bmp	252	1	GWWG	306	2	tot	559	0	0	0	0	0	0	0	0	0	0	0	0	0	0	0	0	0	0	0	0	0	0	0	0	0	0	0	0	0	0	0	0	0	0	0	0	0	0	0
082019	13:56:16	14:02:08	349165	5.0.10.0	5_exp_noRW	106	Rpleas_acq	CS_B	VKKV	GWWG	YDDY	JXXJ	BZZB	MQQM	schön	spielen	retten	fair	treu	ehrlich	schlecht	strafen	rächen	faul	tot	eitel	53pct	acq_USunple_CSunple2_noRW	acq23456_noRW	2	59	0	0	300	300	465	46	0	1	1	blank2r.bmp	0	1	+	0	1	blank2r.bmp	252	1	JXXJ	306	1	faul	559	0	0	0	0	0	0	0	0	0	0	0	0	0	0	0	0	0	0	0	0	0	0	0	0	0	0	0	0	0	0	0	0	0	0	0	0	0	0	0
082019	13:56:16	14:02:09	350817	5.0.10.0	5_exp_noRW	106	Rpleas_acq	CS_B	VKKV	GWWG	YDDY	JXXJ	BZZB	MQQM	schön	spielen	retten	fair	treu	ehrlich	schlecht	strafen	rächen	faul	tot	eitel	47pct	acq_USunple_CSunple1_noRW	acq23456_noRW	2	60	0	0	300	300	489	46	0	1	1	blank2r.bmp	0	1	+	0	1	blank2r.bmp	252	1	YDDY	306	1	schlecht	559	0	0	0	0	0	0	0	0	0	0	0	0	0	0	0	0	0	0	0	0	0	0	0	0	0	0	0	0	0	0	0	0	0	0	0	0	0	0	0
082019	13:56:16	14:02:11	352536	5.0.10.0	5_exp_noRW	106	Rpleas_acq	CS_B	VKKV	GWWG	YDDY	JXXJ	BZZB	MQQM	schön	spielen	retten	fair	treu	ehrlich	schlecht	strafen	rächen	faul	tot	eitel	53pct	acq_USpleas_CSpleas2_noRW	acq23456_noRW	2	61	0	0	300	300	549	50	0	1	1	blank2r.bmp	0	1	+	0	1	blank2r.bmp	252	1	GWWG	306	1	fair	559	0	0	0	0	0	0	0	0	0	0	0	0	0	0	0	0	0	0	0	0	0	0	0	0	0	0	0	0	0	0	0	0	0	0	0	0	0	0	0
082019	13:56:16	14:02:13	354162	5.0.10.0	5_exp_noRW	106	Rpleas_acq	CS_B	VKKV	GWWG	YDDY	JXXJ	BZZB	MQQM	schön	spielen	retten	fair	treu	ehrlich	schlecht	strafen	rächen	faul	tot	eitel	53pct	acq_USpleas_CSunple2_noRW	acq23456_noRW	2	62	0	0	300	300	455	50	0	1	1	blank2r.bmp	0	1	+	0	1	blank2r.bmp	252	1	JXXJ	306	2	treu	559	0	0	0	0	0	0	0	0	0	0	0	0	0	0	0	0	0	0	0	0	0	0	0	0	0	0	0	0	0	0	0	0	0	0	0	0	0	0	0
082019	13:56:16	14:02:14	355749	5.0.10.0	5_exp_noRW	106	Rpleas_acq	CS_B	VKKV	GWWG	YDDY	JXXJ	BZZB	MQQM	schön	spielen	retten	fair	treu	ehrlich	schlecht	strafen	rächen	faul	tot	eitel	53pct	acq_USunple_CSunple2_noRW	acq23456_noRW	2	63	0	0	300	300	417	46	0	1	1	blank2r.bmp	0	1	+	0	1	blank2r.bmp	252	1	JXXJ	306	2	tot	559	0	0	0	0	0	0	0	0	0	0	0	0	0	0	0	0	0	0	0	0	0	0	0	0	0	0	0	0	0	0	0	0	0	0	0	0	0	0	0
082019	13:56:16	14:02:16	357441	5.0.10.0	5_exp_noRW	106	Rpleas_acq	CS_B	VKKV	GWWG	YDDY	JXXJ	BZZB	MQQM	schön	spielen	retten	fair	treu	ehrlich	schlecht	strafen	rächen	faul	tot	eitel	47pct	acq_USunple_CSpleas1_noRW	acq23456_noRW	2	64	0	0	300	300	524	46	0	1	1	blank2r.bmp	0	1	+	0	1	blank2r.bmp	252	1	VKKV	306	1	schlecht	559	0	0	0	0	0	0	0	0	0	0	0	0	0	0	0	0	0	0	0	0	0	0	0	0	0	0	0	0	0	0	0	0	0	0	0	0	0	0	0
082019	13:56:16	14:02:18	359134	5.0.10.0	5_exp_noRW	106	Rpleas_acq	CS_B	VKKV	GWWG	YDDY	JXXJ	BZZB	MQQM	schön	spielen	retten	fair	treu	ehrlich	schlecht	strafen	rächen	faul	tot	eitel	47pct	acq_USpleas_CSpleas2_noRW	acq23456_noRW	2	65	0	0	300	300	517	50	0	1	1	blank2r.bmp	0	1	+	0	1	blank2r.bmp	252	1	GWWG	306	3	ehrlich	559	0	0	0	0	0	0	0	0	0	0	0	0	0	0	0	0	0	0	0	0	0	0	0	0	0	0	0	0	0	0	0	0	0	0	0	0	0	0	0
082019	13:56:16	14:02:20	361000	5.0.10.0	5_exp_noRW	106	Rpleas_acq	CS_B	VKKV	GWWG	YDDY	JXXJ	BZZB	MQQM	schön	spielen	retten	fair	treu	ehrlich	schlecht	strafen	rächen	faul	tot	eitel	53pct	acq_USunple_CSunple2_noRW	acq23456_noRW	2	66	0	0	300	300	468	50	0	0	1	blank2r.bmp	0	1	+	0	1	blank2r.bmp	252	1	JXXJ	306	3	eitel	559	1	FEHLER	1066	0	0	0	0	0	0	0	0	0	0	0	0	0	0	0	0	0	0	0	0	0	0	0	0	0	0	0	0	0	0	0	0	0	0	0	0
082019	13:56:16	14:02:21	362439	5.0.10.0	5_exp_noRW	106	Rpleas_acq	CS_B	VKKV	GWWG	YDDY	JXXJ	BZZB	MQQM	schön	spielen	retten	fair	treu	ehrlich	schlecht	strafen	rächen	faul	tot	eitel	47pct	acq_USpleas_CSpleas1_noRW	acq23456_noRW	2	67	0	0	300	300	478	50	0	1	1	blank2r.bmp	0	1	+	0	1	blank2r.bmp	252	1	VKKV	306	3	retten	559	0	0	0	0	0	0	0	0	0	0	0	0	0	0	0	0	0	0	0	0	0	0	0	0	0	0	0	0	0	0	0	0	0	0	0	0	0	0	0
082019	13:56:16	14:02:23	364079	5.0.10.0	5_exp_noRW	106	Rpleas_acq	CS_B	VKKV	GWWG	YDDY	JXXJ	BZZB	MQQM	schön	spielen	retten	fair	treu	ehrlich	schlecht	strafen	rächen	faul	tot	eitel	53pct	acq_USunple_CSunple1_noRW	acq23456_noRW	2	68	0	0	300	300	474	46	0	1	1	blank2r.bmp	0	1	+	0	1	blank2r.bmp	252	1	YDDY	306	3	rächen	559	0	0	0	0	0	0	0	0	0	0	0	0	0	0	0	0	0	0	0	0	0	0	0	0	0	0	0	0	0	0	0	0	0	0	0	0	0	0	0
082019	13:56:16	14:02:24	365718	5.0.10.0	5_exp_noRW	106	Rpleas_acq	CS_B	VKKV	GWWG	YDDY	JXXJ	BZZB	MQQM	schön	spielen	retten	fair	treu	ehrlich	schlecht	strafen	rächen	faul	tot	eitel	47pct	acq_USpleas_CSpleas1_noRW	acq23456_noRW	2	69	0	0	300	300	470	50	0	1	1	blank2r.bmp	0	1	+	0	1	blank2r.bmp	252	1	VKKV	306	2	spielen	559	0	0	0	0	0	0	0	0	0	0	0	0	0	0	0	0	0	0	0	0	0	0	0	0	0	0	0	0	0	0	0	0	0	0	0	0	0	0	0
082019	13:56:16	14:02:26	367384	5.0.10.0	5_exp_noRW	106	Rpleas_acq	CS_B	VKKV	GWWG	YDDY	JXXJ	BZZB	MQQM	schön	spielen	retten	fair	treu	ehrlich	schlecht	strafen	rächen	faul	tot	eitel	53pct	acq_USunple_CSunple1_noRW	acq23456_noRW	2	70	0	0	300	300	504	46	0	1	1	blank2r.bmp	0	1	+	0	1	blank2r.bmp	252	1	YDDY	306	2	strafen	559	0	0	0	0	0	0	0	0	0	0	0	0	0	0	0	0	0	0	0	0	0	0	0	0	0	0	0	0	0	0	0	0	0	0	0	0	0	0	0
082019	13:56:16	14:02:28	369103	5.0.10.0	5_exp_noRW	106	Rpleas_acq	CS_B	VKKV	GWWG	YDDY	JXXJ	BZZB	MQQM	schön	spielen	retten	fair	treu	ehrlich	schlecht	strafen	rächen	faul	tot	eitel	47pct	acq_USunple_CSunple1_noRW	acq23456_noRW	2	71	0	0	300	300	526	46	0	1	1	blank2r.bmp	0	1	+	0	1	blank2r.bmp	252	1	YDDY	306	3	rächen	559	0	0	0	0	0	0	0	0	0	0	0	0	0	0	0	0	0	0	0	0	0	0	0	0	0	0	0	0	0	0	0	0	0	0	0	0	0	0	0
082019	13:56:16	14:02:29	370742	5.0.10.0	5_exp_noRW	106	Rpleas_acq	CS_B	VKKV	GWWG	YDDY	JXXJ	BZZB	MQQM	schön	spielen	retten	fair	treu	ehrlich	schlecht	strafen	rächen	faul	tot	eitel	53pct	acq_USpleas_CSpleas2_noRW	acq23456_noRW	2	72	0	0	300	300	470	50	0	1	1	blank2r.bmp	0	1	+	0	1	blank2r.bmp	252	1	GWWG	306	2	treu	559	0	0	0	0	0	0	0	0	0	0	0	0	0	0	0	0	0	0	0	0	0	0	0	0	0	0	0	0	0	0	0	0	0	0	0	0	0	0	0
082019	13:56:16	14:02:31	372328	5.0.10.0	5_exp_noRW	106	Rpleas_acq	CS_B	VKKV	GWWG	YDDY	JXXJ	BZZB	MQQM	schön	spielen	retten	fair	treu	ehrlich	schlecht	strafen	rächen	faul	tot	eitel	53pct	acq_USpleas_CSpleas2_noRW	acq23456_noRW	2	73	0	0	300	300	421	50	0	1	1	blank2r.bmp	0	1	+	0	1	blank2r.bmp	252	1	GWWG	306	3	ehrlich	559	0	0	0	0	0	0	0	0	0	0	0	0	0	0	0	0	0	0	0	0	0	0	0	0	0	0	0	0	0	0	0	0	0	0	0	0	0	0	0
082019	13:56:16	14:02:32	373901	5.0.10.0	5_exp_noRW	106	Rpleas_acq	CS_B	VKKV	GWWG	YDDY	JXXJ	BZZB	MQQM	schön	spielen	retten	fair	treu	ehrlich	schlecht	strafen	rächen	faul	tot	eitel	53pct	acq_USpleas_CSunple1_noRW	acq23456_noRW	2	74	0	0	300	300	400	50	0	1	1	blank2r.bmp	0	1	+	0	1	blank2r.bmp	252	1	YDDY	306	2	spielen	559	0	0	0	0	0	0	0	0	0	0	0	0	0	0	0	0	0	0	0	0	0	0	0	0	0	0	0	0	0	0	0	0	0	0	0	0	0	0	0
082019	13:56:16	14:02:34	375541	5.0.10.0	5_exp_noRW	106	Rpleas_acq	CS_B	VKKV	GWWG	YDDY	JXXJ	BZZB	MQQM	schön	spielen	retten	fair	treu	ehrlich	schlecht	strafen	rächen	faul	tot	eitel	53pct	acq_USunple_CSunple2_noRW	acq23456_noRW	2	75	0	0	300	300	454	46	0	1	1	blank2r.bmp	0	1	+	0	1	blank2r.bmp	252	1	JXXJ	306	1	faul	559	0	0	0	0	0	0	0	0	0	0	0	0	0	0	0	0	0	0	0	0	0	0	0	0	0	0	0	0	0	0	0	0	0	0	0	0	0	0	0
082019	13:56:16	14:02:36	377260	5.0.10.0	5_exp_noRW	106	Rpleas_acq	CS_B	VKKV	GWWG	YDDY	JXXJ	BZZB	MQQM	schön	spielen	retten	fair	treu	ehrlich	schlecht	strafen	rächen	faul	tot	eitel	53pct	acq_USpleas_CSpleas1_noRW	acq23456_noRW	2	76	0	0	300	300	553	50	0	1	1	blank2r.bmp	0	1	+	0	1	blank2r.bmp	252	1	VKKV	306	3	retten	559	0	0	0	0	0	0	0	0	0	0	0	0	0	0	0	0	0	0	0	0	0	0	0	0	0	0	0	0	0	0	0	0	0	0	0	0	0	0	0
082019	13:56:16	14:02:37	378952	5.0.10.0	5_exp_noRW	106	Rpleas_acq	CS_B	VKKV	GWWG	YDDY	JXXJ	BZZB	MQQM	schön	spielen	retten	fair	treu	ehrlich	schlecht	strafen	rächen	faul	tot	eitel	47pct	acq_USunple_CSunple2_noRW	acq23456_noRW	2	77	0	0	300	300	519	46	0	1	1	blank2r.bmp	0	1	+	0	1	blank2r.bmp	252	1	JXXJ	306	3	eitel	559	0	0	0	0	0	0	0	0	0	0	0	0	0	0	0	0	0	0	0	0	0	0	0	0	0	0	0	0	0	0	0	0	0	0	0	0	0	0	0
082019	13:56:16	14:02:39	380538	5.0.10.0	5_exp_noRW	106	Rpleas_acq	CS_B	VKKV	GWWG	YDDY	JXXJ	BZZB	MQQM	schön	spielen	retten	fair	treu	ehrlich	schlecht	strafen	rächen	faul	tot	eitel	47pct	acq_USpleas_CSpleas1_noRW	acq23456_noRW	2	78	0	0	300	300	420	50	0	1	1	blank2r.bmp	0	1	+	0	1	blank2r.bmp	252	1	VKKV	306	1	schön	559	0	0	0	0	0	0	0	0	0	0	0	0	0	0	0	0	0	0	0	0	0	0	0	0	0	0	0	0	0	0	0	0	0	0	0	0	0	0	0
082019	13:56:16	14:02:41	382138	5.0.10.0	5_exp_noRW	106	Rpleas_acq	CS_B	VKKV	GWWG	YDDY	JXXJ	BZZB	MQQM	schön	spielen	retten	fair	treu	ehrlich	schlecht	strafen	rächen	faul	tot	eitel	47pct	acq_USunple_CSpleas2_noRW	acq23456_noRW	2	79	0	0	300	300	418	46	0	1	1	blank2r.bmp	0	1	+	0	1	blank2r.bmp	252	1	GWWG	306	1	faul	559	0	0	0	0	0	0	0	0	0	0	0	0	0	0	0	0	0	0	0	0	0	0	0	0	0	0	0	0	0	0	0	0	0	0	0	0	0	0	0
082019	13:56:16	14:02:42	383751	5.0.10.0	5_exp_noRW	106	Rpleas_acq	CS_B	VKKV	GWWG	YDDY	JXXJ	BZZB	MQQM	schön	spielen	retten	fair	treu	ehrlich	schlecht	strafen	rächen	faul	tot	eitel	53pct	acq_USunple_CSunple1_noRW	acq23456_noRW	2	80	0	0	300	300	438	46	0	1	1	blank2r.bmp	0	1	+	0	1	blank2r.bmp	252	1	YDDY	306	1	schlecht	559	0	0	0	0	0	0	0	0	0	0	0	0	0	0	0	0	0	0	0	0	0	0	0	0	0	0	0	0	0	0	0	0	0	0	0	0	0	0	0
082019	13:56:16	14:02:54	395173	5.0.10.0	5_exp_noRW	106	Rpleas_acq	CS_B	VKKV	GWWG	YDDY	JXXJ	BZZB	MQQM	schön	spielen	retten	fair	treu	ehrlich	schlecht	strafen	rächen	faul	tot	eitel	47pct	acq_USpleas_CSpleas2_noRW	acq23456_noRW	3	1	0	0	300	300	442	50	0	1	1	blank2r.bmp	0	1	+	0	1	blank2r.bmp	252	1	GWWG	306	1	fair	559	0	0	0	0	0	0	0	0	0	0	0	0	0	0	0	0	0	0	0	0	0	0	0	0	0	0	0	0	0	0	0	0	0	0	0	0	0	0	0
082019	13:56:16	14:02:55	396639	5.0.10.0	5_exp_noRW	106	Rpleas_acq	CS_B	VKKV	GWWG	YDDY	JXXJ	BZZB	MQQM	schön	spielen	retten	fair	treu	ehrlich	schlecht	strafen	rächen	faul	tot	eitel	47pct	acq_USpleas_CSunple2_noRW	acq23456_noRW	3	2	0	0	300	300	299	50	0	1	1	blank2r.bmp	0	1	+	0	1	blank2r.bmp	252	1	JXXJ	306	1	fair	559	0	0	0	0	0	0	0	0	0	0	0	0	0	0	0	0	0	0	0	0	0	0	0	0	0	0	0	0	0	0	0	0	0	0	0	0	0	0	0
082019	13:56:16	14:02:57	398145	5.0.10.0	5_exp_noRW	106	Rpleas_acq	CS_B	VKKV	GWWG	YDDY	JXXJ	BZZB	MQQM	schön	spielen	retten	fair	treu	ehrlich	schlecht	strafen	rächen	faul	tot	eitel	47pct	acq_USunple_CSunple2_noRW	acq23456_noRW	3	3	0	0	300	300	319	46	0	1	1	blank2r.bmp	0	1	+	0	1	blank2r.bmp	252	1	JXXJ	306	2	tot	559	0	0	0	0	0	0	0	0	0	0	0	0	0	0	0	0	0	0	0	0	0	0	0	0	0	0	0	0	0	0	0	0	0	0	0	0	0	0	0
082019	13:56:16	14:02:58	399971	5.0.10.0	5_exp_noRW	106	Rpleas_acq	CS_B	VKKV	GWWG	YDDY	JXXJ	BZZB	MQQM	schön	spielen	retten	fair	treu	ehrlich	schlecht	strafen	rächen	faul	tot	eitel	53pct	acq_USunple_CSunple1_noRW	acq23456_noRW	3	4	0	0	300	300	426	50	0	0	1	blank2r.bmp	0	1	+	0	1	blank2r.bmp	252	1	YDDY	306	2	strafen	559	1	FEHLER	1026	0	0	0	0	0	0	0	0	0	0	0	0	0	0	0	0	0	0	0	0	0	0	0	0	0	0	0	0	0	0	0	0	0	0	0	0
082019	13:56:16	14:03:00	401343	5.0.10.0	5_exp_noRW	106	Rpleas_acq	CS_B	VKKV	GWWG	YDDY	JXXJ	BZZB	MQQM	schön	spielen	retten	fair	treu	ehrlich	schlecht	strafen	rächen	faul	tot	eitel	47pct	acq_USunple_CSunple1_noRW	acq23456_noRW	3	5	0	0	300	300	414	46	0	1	1	blank2r.bmp	0	1	+	0	1	blank2r.bmp	252	1	YDDY	306	2	strafen	559	0	0	0	0	0	0	0	0	0	0	0	0	0	0	0	0	0	0	0	0	0	0	0	0	0	0	0	0	0	0	0	0	0	0	0	0	0	0	0
082019	13:56:16	14:03:01	402836	5.0.10.0	5_exp_noRW	106	Rpleas_acq	CS_B	VKKV	GWWG	YDDY	JXXJ	BZZB	MQQM	schön	spielen	retten	fair	treu	ehrlich	schlecht	strafen	rächen	faul	tot	eitel	53pct	acq_USunple_CSpleas1_noRW	acq23456_noRW	3	6	0	0	300	300	329	46	0	1	1	blank2r.bmp	0	1	+	0	1	blank2r.bmp	252	1	VKKV	306	2	strafen	559	0	0	0	0	0	0	0	0	0	0	0	0	0	0	0	0	0	0	0	0	0	0	0	0	0	0	0	0	0	0	0	0	0	0	0	0	0	0	0
082019	13:56:16	14:03:03	404622	5.0.10.0	5_exp_noRW	106	Rpleas_acq	CS_B	VKKV	GWWG	YDDY	JXXJ	BZZB	MQQM	schön	spielen	retten	fair	treu	ehrlich	schlecht	strafen	rächen	faul	tot	eitel	53pct	acq_USunple_CSunple1_noRW	acq23456_noRW	3	7	0	0	300	300	599	46	0	1	1	blank2r.bmp	0	1	+	0	1	blank2r.bmp	252	1	YDDY	306	3	rächen	559	0	0	0	0	0	0	0	0	0	0	0	0	0	0	0	0	0	0	0	0	0	0	0	0	0	0	0	0	0	0	0	0	0	0	0	0	0	0	0
082019	13:56:16	14:03:05	406181	5.0.10.0	5_exp_noRW	106	Rpleas_acq	CS_B	VKKV	GWWG	YDDY	JXXJ	BZZB	MQQM	schön	spielen	retten	fair	treu	ehrlich	schlecht	strafen	rächen	faul	tot	eitel	47pct	acq_USunple_CSunple2_noRW	acq23456_noRW	3	8	0	0	300	300	385	46	0	1	1	blank2r.bmp	0	1	+	0	1	blank2r.bmp	252	1	JXXJ	306	1	faul	559	0	0	0	0	0	0	0	0	0	0	0	0	0	0	0	0	0	0	0	0	0	0	0	0	0	0	0	0	0	0	0	0	0	0	0	0	0	0	0
082019	13:56:16	14:03:06	407767	5.0.10.0	5_exp_noRW	106	Rpleas_acq	CS_B	VKKV	GWWG	YDDY	JXXJ	BZZB	MQQM	schön	spielen	retten	fair	treu	ehrlich	schlecht	strafen	rächen	faul	tot	eitel	47pct	acq_USpleas_CSpleas1_noRW	acq23456_noRW	3	9	0	0	300	300	412	50	0	1	1	blank2r.bmp	0	1	+	0	1	blank2r.bmp	252	1	VKKV	306	2	spielen	559	0	0	0	0	0	0	0	0	0	0	0	0	0	0	0	0	0	0	0	0	0	0	0	0	0	0	0	0	0	0	0	0	0	0	0	0	0	0	0
082019	13:56:16	14:03:08	409660	5.0.10.0	5_exp_noRW	106	Rpleas_acq	CS_B	VKKV	GWWG	YDDY	JXXJ	BZZB	MQQM	schön	spielen	retten	fair	treu	ehrlich	schlecht	strafen	rächen	faul	tot	eitel	53pct	acq_USunple_CSpleas2_noRW	acq23456_noRW	3	10	0	0	300	300	716	46	0	1	1	blank2r.bmp	0	1	+	0	1	blank2r.bmp	252	1	GWWG	306	3	eitel	559	0	0	0	0	0	0	0	0	0	0	0	0	0	0	0	0	0	0	0	0	0	0	0	0	0	0	0	0	0	0	0	0	0	0	0	0	0	0	0
082019	13:56:16	14:03:10	411259	5.0.10.0	5_exp_noRW	106	Rpleas_acq	CS_B	VKKV	GWWG	YDDY	JXXJ	BZZB	MQQM	schön	spielen	retten	fair	treu	ehrlich	schlecht	strafen	rächen	faul	tot	eitel	47pct	acq_USpleas_CSpleas1_noRW	acq23456_noRW	3	11	0	0	300	300	412	50	0	1	1	blank2r.bmp	0	1	+	0	1	blank2r.bmp	252	1	VKKV	306	2	spielen	559	0	0	0	0	0	0	0	0	0	0	0	0	0	0	0	0	0	0	0	0	0	0	0	0	0	0	0	0	0	0	0	0	0	0	0	0	0	0	0
082019	13:56:16	14:03:12	413085	5.0.10.0	5_exp_noRW	106	Rpleas_acq	CS_B	VKKV	GWWG	YDDY	JXXJ	BZZB	MQQM	schön	spielen	retten	fair	treu	ehrlich	schlecht	strafen	rächen	faul	tot	eitel	53pct	acq_USpleas_CSpleas2_noRW	acq23456_noRW	3	12	0	0	300	300	442	46	0	0	1	blank2r.bmp	0	1	+	0	1	blank2r.bmp	252	1	GWWG	306	3	ehrlich	559	1	FEHLER	1039	0	0	0	0	0	0	0	0	0	0	0	0	0	0	0	0	0	0	0	0	0	0	0	0	0	0	0	0	0	0	0	0	0	0	0	0
082019	13:56:16	14:03:13	414631	5.0.10.0	5_exp_noRW	106	Rpleas_acq	CS_B	VKKV	GWWG	YDDY	JXXJ	BZZB	MQQM	schön	spielen	retten	fair	treu	ehrlich	schlecht	strafen	rächen	faul	tot	eitel	53pct	acq_USpleas_CSpleas1_noRW	acq23456_noRW	3	13	0	0	300	300	597	50	0	1	1	blank2r.bmp	0	1	+	0	1	blank2r.bmp	252	1	VKKV	306	3	retten	559	0	0	0	0	0	0	0	0	0	0	0	0	0	0	0	0	0	0	0	0	0	0	0	0	0	0	0	0	0	0	0	0	0	0	0	0	0	0	0
082019	13:56:16	14:03:15	416324	5.0.10.0	5_exp_noRW	106	Rpleas_acq	CS_B	VKKV	GWWG	YDDY	JXXJ	BZZB	MQQM	schön	spielen	retten	fair	treu	ehrlich	schlecht	strafen	rächen	faul	tot	eitel	53pct	acq_USpleas_CSpleas2_noRW	acq23456_noRW	3	14	0	0	300	300	509	50	0	1	1	blank2r.bmp	0	1	+	0	1	blank2r.bmp	252	1	GWWG	306	1	fair	559	0	0	0	0	0	0	0	0	0	0	0	0	0	0	0	0	0	0	0	0	0	0	0	0	0	0	0	0	0	0	0	0	0	0	0	0	0	0	0
082019	13:56:16	14:03:16	417963	5.0.10.0	5_exp_noRW	106	Rpleas_acq	CS_B	VKKV	GWWG	YDDY	JXXJ	BZZB	MQQM	schön	spielen	retten	fair	treu	ehrlich	schlecht	strafen	rächen	faul	tot	eitel	47pct	acq_USunple_CSunple1_noRW	acq23456_noRW	3	15	0	0	300	300	467	46	0	1	1	blank2r.bmp	0	1	+	0	1	blank2r.bmp	252	1	YDDY	306	1	schlecht	559	0	0	0	0	0	0	0	0	0	0	0	0	0	0	0	0	0	0	0	0	0	0	0	0	0	0	0	0	0	0	0	0	0	0	0	0	0	0	0
082019	13:56:16	14:03:18	419549	5.0.10.0	5_exp_noRW	106	Rpleas_acq	CS_B	VKKV	GWWG	YDDY	JXXJ	BZZB	MQQM	schön	spielen	retten	fair	treu	ehrlich	schlecht	strafen	rächen	faul	tot	eitel	53pct	acq_USpleas_CSpleas1_noRW	acq23456_noRW	3	16	0	0	300	300	418	50	0	1	1	blank2r.bmp	0	1	+	0	1	blank2r.bmp	252	1	VKKV	306	1	schön	559	0	0	0	0	0	0	0	0	0	0	0	0	0	0	0	0	0	0	0	0	0	0	0	0	0	0	0	0	0	0	0	0	0	0	0	0	0	0	0
082019	13:56:16	14:03:20	421229	5.0.10.0	5_exp_noRW	106	Rpleas_acq	CS_B	VKKV	GWWG	YDDY	JXXJ	BZZB	MQQM	schön	spielen	retten	fair	treu	ehrlich	schlecht	strafen	rächen	faul	tot	eitel	53pct	acq_USpleas_CSunple1_noRW	acq23456_noRW	3	17	0	0	300	300	505	50	0	1	1	blank2r.bmp	0	1	+	0	1	blank2r.bmp	252	1	YDDY	306	3	retten	559	0	0	0	0	0	0	0	0	0	0	0	0	0	0	0	0	0	0	0	0	0	0	0	0	0	0	0	0	0	0	0	0	0	0	0	0	0	0	0
082019	13:56:16	14:03:21	422815	5.0.10.0	5_exp_noRW	106	Rpleas_acq	CS_B	VKKV	GWWG	YDDY	JXXJ	BZZB	MQQM	schön	spielen	retten	fair	treu	ehrlich	schlecht	strafen	rächen	faul	tot	eitel	53pct	acq_USunple_CSunple2_noRW	acq23456_noRW	3	18	0	0	300	300	424	46	0	1	1	blank2r.bmp	0	1	+	0	1	blank2r.bmp	252	1	JXXJ	306	3	eitel	559	0	0	0	0	0	0	0	0	0	0	0	0	0	0	0	0	0	0	0	0	0	0	0	0	0	0	0	0	0	0	0	0	0	0	0	0	0	0	0
082019	13:56:16	14:03:23	424401	5.0.10.0	5_exp_noRW	106	Rpleas_acq	CS_B	VKKV	GWWG	YDDY	JXXJ	BZZB	MQQM	schön	spielen	retten	fair	treu	ehrlich	schlecht	strafen	rächen	faul	tot	eitel	53pct	acq_USunple_CSunple2_noRW	acq23456_noRW	3	19	0	0	300	300	405	46	0	1	1	blank2r.bmp	0	1	+	0	1	blank2r.bmp	252	1	JXXJ	306	2	tot	559	0	0	0	0	0	0	0	0	0	0	0	0	0	0	0	0	0	0	0	0	0	0	0	0	0	0	0	0	0	0	0	0	0	0	0	0	0	0	0
082019	13:56:16	14:03:25	426027	5.0.10.0	5_exp_noRW	106	Rpleas_acq	CS_B	VKKV	GWWG	YDDY	JXXJ	BZZB	MQQM	schön	spielen	retten	fair	treu	ehrlich	schlecht	strafen	rächen	faul	tot	eitel	53pct	acq_USpleas_CSpleas2_noRW	acq23456_noRW	3	20	0	0	300	300	463	50	0	1	1	blank2r.bmp	0	1	+	0	1	blank2r.bmp	252	1	GWWG	306	2	treu	559	0	0	0	0	0	0	0	0	0	0	0	0	0	0	0	0	0	0	0	0	0	0	0	0	0	0	0	0	0	0	0	0	0	0	0	0	0	0	0
082019	13:56:16	14:03:26	427599	5.0.10.0	5_exp_noRW	106	Rpleas_acq	CS_B	VKKV	GWWG	YDDY	JXXJ	BZZB	MQQM	schön	spielen	retten	fair	treu	ehrlich	schlecht	strafen	rächen	faul	tot	eitel	47pct	acq_USunple_CSunple2_noRW	acq23456_noRW	3	21	0	0	300	300	398	46	0	1	1	blank2r.bmp	0	1	+	0	1	blank2r.bmp	252	1	JXXJ	306	2	tot	559	0	0	0	0	0	0	0	0	0	0	0	0	0	0	0	0	0	0	0	0	0	0	0	0	0	0	0	0	0	0	0	0	0	0	0	0	0	0	0
082019	13:56:16	14:03:28	429265	5.0.10.0	5_exp_noRW	106	Rpleas_acq	CS_B	VKKV	GWWG	YDDY	JXXJ	BZZB	MQQM	schön	spielen	retten	fair	treu	ehrlich	schlecht	strafen	rächen	faul	tot	eitel	53pct	acq_USunple_CSunple1_noRW	acq23456_noRW	3	22	0	0	300	300	469	46	0	1	1	blank2r.bmp	0	1	+	0	1	blank2r.bmp	252	1	YDDY	306	1	schlecht	559	0	0	0	0	0	0	0	0	0	0	0	0	0	0	0	0	0	0	0	0	0	0	0	0	0	0	0	0	0	0	0	0	0	0	0	0	0	0	0
082019	13:56:16	14:03:30	431051	5.0.10.0	5_exp_noRW	106	Rpleas_acq	CS_B	VKKV	GWWG	YDDY	JXXJ	BZZB	MQQM	schön	spielen	retten	fair	treu	ehrlich	schlecht	strafen	rächen	faul	tot	eitel	53pct	acq_USunple_CSunple2_noRW	acq23456_noRW	3	23	0	0	300	300	599	46	0	1	1	blank2r.bmp	0	1	+	0	1	blank2r.bmp	252	1	JXXJ	306	3	eitel	559	0	0	0	0	0	0	0	0	0	0	0	0	0	0	0	0	0	0	0	0	0	0	0	0	0	0	0	0	0	0	0	0	0	0	0	0	0	0	0
082019	13:56:16	14:03:31	432784	5.0.10.0	5_exp_noRW	106	Rpleas_acq	CS_B	VKKV	GWWG	YDDY	JXXJ	BZZB	MQQM	schön	spielen	retten	fair	treu	ehrlich	schlecht	strafen	rächen	faul	tot	eitel	47pct	acq_USunple_CSunple2_noRW	acq23456_noRW	3	24	0	0	300	300	566	46	0	1	1	blank2r.bmp	0	1	+	0	1	blank2r.bmp	252	1	JXXJ	306	1	faul	559	0	0	0	0	0	0	0	0	0	0	0	0	0	0	0	0	0	0	0	0	0	0	0	0	0	0	0	0	0	0	0	0	0	0	0	0	0	0	0
082019	13:56:16	14:03:33	434437	5.0.10.0	5_exp_noRW	106	Rpleas_acq	CS_B	VKKV	GWWG	YDDY	JXXJ	BZZB	MQQM	schön	spielen	retten	fair	treu	ehrlich	schlecht	strafen	rächen	faul	tot	eitel	53pct	acq_USpleas_CSpleas1_noRW	acq23456_noRW	3	25	0	0	300	300	474	50	0	1	1	blank2r.bmp	0	1	+	0	1	blank2r.bmp	252	1	VKKV	306	3	retten	559	0	0	0	0	0	0	0	0	0	0	0	0	0	0	0	0	0	0	0	0	0	0	0	0	0	0	0	0	0	0	0	0	0	0	0	0	0	0	0
082019	13:56:16	14:03:35	436063	5.0.10.0	5_exp_noRW	106	Rpleas_acq	CS_B	VKKV	GWWG	YDDY	JXXJ	BZZB	MQQM	schön	spielen	retten	fair	treu	ehrlich	schlecht	strafen	rächen	faul	tot	eitel	47pct	acq_USunple_CSpleas2_noRW	acq23456_noRW	3	26	0	0	300	300	450	46	0	1	1	blank2r.bmp	0	1	+	0	1	blank2r.bmp	252	1	GWWG	306	1	faul	559	0	0	0	0	0	0	0	0	0	0	0	0	0	0	0	0	0	0	0	0	0	0	0	0	0	0	0	0	0	0	0	0	0	0	0	0	0	0	0
082019	13:56:16	14:03:36	437755	5.0.10.0	5_exp_noRW	106	Rpleas_acq	CS_B	VKKV	GWWG	YDDY	JXXJ	BZZB	MQQM	schön	spielen	retten	fair	treu	ehrlich	schlecht	strafen	rächen	faul	tot	eitel	47pct	acq_USpleas_CSpleas2_noRW	acq23456_noRW	3	27	0	0	300	300	514	50	0	1	1	blank2r.bmp	0	1	+	0	1	blank2r.bmp	252	1	GWWG	306	3	ehrlich	559	0	0	0	0	0	0	0	0	0	0	0	0	0	0	0	0	0	0	0	0	0	0	0	0	0	0	0	0	0	0	0	0	0	0	0	0	0	0	0
082019	13:56:16	14:03:38	439528	5.0.10.0	5_exp_noRW	106	Rpleas_acq	CS_B	VKKV	GWWG	YDDY	JXXJ	BZZB	MQQM	schön	spielen	retten	fair	treu	ehrlich	schlecht	strafen	rächen	faul	tot	eitel	47pct	acq_USpleas_CSpleas2_noRW	acq23456_noRW	3	28	0	0	300	300	387	46	0	0	1	blank2r.bmp	0	1	+	0	1	blank2r.bmp	252	1	GWWG	306	1	fair	559	1	FEHLER	986	0	0	0	0	0	0	0	0	0	0	0	0	0	0	0	0	0	0	0	0	0	0	0	0	0	0	0	0	0	0	0	0	0	0	0	0
082019	13:56:16	14:03:40	441087	5.0.10.0	5_exp_noRW	106	Rpleas_acq	CS_B	VKKV	GWWG	YDDY	JXXJ	BZZB	MQQM	schön	spielen	retten	fair	treu	ehrlich	schlecht	strafen	rächen	faul	tot	eitel	53pct	acq_USpleas_CSunple1_noRW	acq23456_noRW	3	29	0	0	300	300	606	50	0	1	1	blank2r.bmp	0	1	+	0	1	blank2r.bmp	252	1	YDDY	306	2	spielen	559	0	0	0	0	0	0	0	0	0	0	0	0	0	0	0	0	0	0	0	0	0	0	0	0	0	0	0	0	0	0	0	0	0	0	0	0	0	0	0
082019	13:56:16	14:03:41	442740	5.0.10.0	5_exp_noRW	106	Rpleas_acq	CS_B	VKKV	GWWG	YDDY	JXXJ	BZZB	MQQM	schön	spielen	retten	fair	treu	ehrlich	schlecht	strafen	rächen	faul	tot	eitel	47pct	acq_USpleas_CSpleas2_noRW	acq23456_noRW	3	30	0	0	300	300	471	50	0	1	1	blank2r.bmp	0	1	+	0	1	blank2r.bmp	252	1	GWWG	306	2	treu	559	0	0	0	0	0	0	0	0	0	0	0	0	0	0	0	0	0	0	0	0	0	0	0	0	0	0	0	0	0	0	0	0	0	0	0	0	0	0	0
082019	13:56:16	14:03:43	444406	5.0.10.0	5_exp_noRW	106	Rpleas_acq	CS_B	VKKV	GWWG	YDDY	JXXJ	BZZB	MQQM	schön	spielen	retten	fair	treu	ehrlich	schlecht	strafen	rächen	faul	tot	eitel	47pct	acq_USpleas_CSpleas2_noRW	acq23456_noRW	3	31	0	0	300	300	484	50	0	1	1	blank2r.bmp	0	1	+	0	1	blank2r.bmp	252	1	GWWG	306	3	ehrlich	559	0	0	0	0	0	0	0	0	0	0	0	0	0	0	0	0	0	0	0	0	0	0	0	0	0	0	0	0	0	0	0	0	0	0	0	0	0	0	0
082019	13:56:16	14:03:45	446072	5.0.10.0	5_exp_noRW	106	Rpleas_acq	CS_B	VKKV	GWWG	YDDY	JXXJ	BZZB	MQQM	schön	spielen	retten	fair	treu	ehrlich	schlecht	strafen	rächen	faul	tot	eitel	53pct	acq_USunple_CSunple1_noRW	acq23456_noRW	3	32	0	0	300	300	489	46	0	1	1	blank2r.bmp	0	1	+	0	1	blank2r.bmp	252	1	YDDY	306	3	rächen	559	0	0	0	0	0	0	0	0	0	0	0	0	0	0	0	0	0	0	0	0	0	0	0	0	0	0	0	0	0	0	0	0	0	0	0	0	0	0	0
082019	13:56:16	14:03:46	447725	5.0.10.0	5_exp_noRW	106	Rpleas_acq	CS_B	VKKV	GWWG	YDDY	JXXJ	BZZB	MQQM	schön	spielen	retten	fair	treu	ehrlich	schlecht	strafen	rächen	faul	tot	eitel	47pct	acq_USpleas_CSpleas1_noRW	acq23456_noRW	3	33	0	0	300	300	465	50	0	1	1	blank2r.bmp	0	1	+	0	1	blank2r.bmp	252	1	VKKV	306	2	spielen	559	0	0	0	0	0	0	0	0	0	0	0	0	0	0	0	0	0	0	0	0	0	0	0	0	0	0	0	0	0	0	0	0	0	0	0	0	0	0	0
082019	13:56:16	14:03:48	449377	5.0.10.0	5_exp_noRW	106	Rpleas_acq	CS_B	VKKV	GWWG	YDDY	JXXJ	BZZB	MQQM	schön	spielen	retten	fair	treu	ehrlich	schlecht	strafen	rächen	faul	tot	eitel	53pct	acq_USpleas_CSpleas1_noRW	acq23456_noRW	3	34	0	0	300	300	482	50	0	1	1	blank2r.bmp	0	1	+	0	1	blank2r.bmp	252	1	VKKV	306	1	schön	559	0	0	0	0	0	0	0	0	0	0	0	0	0	0	0	0	0	0	0	0	0	0	0	0	0	0	0	0	0	0	0	0	0	0	0	0	0	0	0
082019	13:56:16	14:03:49	450950	5.0.10.0	5_exp_noRW	106	Rpleas_acq	CS_B	VKKV	GWWG	YDDY	JXXJ	BZZB	MQQM	schön	spielen	retten	fair	treu	ehrlich	schlecht	strafen	rächen	faul	tot	eitel	53pct	acq_USpleas_CSpleas1_noRW	acq23456_noRW	3	35	0	0	300	300	411	50	0	1	1	blank2r.bmp	0	1	+	0	1	blank2r.bmp	252	1	VKKV	306	3	retten	559	0	0	0	0	0	0	0	0	0	0	0	0	0	0	0	0	0	0	0	0	0	0	0	0	0	0	0	0	0	0	0	0	0	0	0	0	0	0	0
082019	13:56:16	14:03:51	452603	5.0.10.0	5_exp_noRW	106	Rpleas_acq	CS_B	VKKV	GWWG	YDDY	JXXJ	BZZB	MQQM	schön	spielen	retten	fair	treu	ehrlich	schlecht	strafen	rächen	faul	tot	eitel	47pct	acq_USunple_CSpleas1_noRW	acq23456_noRW	3	36	0	0	300	300	472	46	0	1	1	blank2r.bmp	0	1	+	0	1	blank2r.bmp	252	1	VKKV	306	3	rächen	559	0	0	0	0	0	0	0	0	0	0	0	0	0	0	0	0	0	0	0	0	0	0	0	0	0	0	0	0	0	0	0	0	0	0	0	0	0	0	0
082019	13:56:16	14:03:53	454322	5.0.10.0	5_exp_noRW	106	Rpleas_acq	CS_B	VKKV	GWWG	YDDY	JXXJ	BZZB	MQQM	schön	spielen	retten	fair	treu	ehrlich	schlecht	strafen	rächen	faul	tot	eitel	53pct	acq_USunple_CSunple2_noRW	acq23456_noRW	3	37	0	0	300	300	533	46	0	1	1	blank2r.bmp	0	1	+	0	1	blank2r.bmp	252	1	JXXJ	306	1	faul	559	0	0	0	0	0	0	0	0	0	0	0	0	0	0	0	0	0	0	0	0	0	0	0	0	0	0	0	0	0	0	0	0	0	0	0	0	0	0	0
082019	13:56:16	14:03:54	455908	5.0.10.0	5_exp_noRW	106	Rpleas_acq	CS_B	VKKV	GWWG	YDDY	JXXJ	BZZB	MQQM	schön	spielen	retten	fair	treu	ehrlich	schlecht	strafen	rächen	faul	tot	eitel	47pct	acq_USunple_CSunple1_noRW	acq23456_noRW	3	38	0	0	300	300	424	46	0	1	1	blank2r.bmp	0	1	+	0	1	blank2r.bmp	252	1	YDDY	306	2	strafen	559	0	0	0	0	0	0	0	0	0	0	0	0	0	0	0	0	0	0	0	0	0	0	0	0	0	0	0	0	0	0	0	0	0	0	0	0	0	0	0
082019	13:56:16	14:03:56	457601	5.0.10.0	5_exp_noRW	106	Rpleas_acq	CS_B	VKKV	GWWG	YDDY	JXXJ	BZZB	MQQM	schön	spielen	retten	fair	treu	ehrlich	schlecht	strafen	rächen	faul	tot	eitel	53pct	acq_USpleas_CSunple2_noRW	acq23456_noRW	3	39	0	0	300	300	515	50	0	1	1	blank2r.bmp	0	1	+	0	1	blank2r.bmp	252	1	JXXJ	306	1	fair	559	0	0	0	0	0	0	0	0	0	0	0	0	0	0	0	0	0	0	0	0	0	0	0	0	0	0	0	0	0	0	0	0	0	0	0	0	0	0	0
082019	13:56:16	14:03:58	459160	5.0.10.0	5_exp_noRW	106	Rpleas_acq	CS_B	VKKV	GWWG	YDDY	JXXJ	BZZB	MQQM	schön	spielen	retten	fair	treu	ehrlich	schlecht	strafen	rächen	faul	tot	eitel	53pct	acq_USunple_CSunple1_noRW	acq23456_noRW	3	40	0	0	300	300	374	46	0	1	1	blank2r.bmp	0	1	+	0	1	blank2r.bmp	252	1	YDDY	306	1	schlecht	559	0	0	0	0	0	0	0	0	0	0	0	0	0	0	0	0	0	0	0	0	0	0	0	0	0	0	0	0	0	0	0	0	0	0	0	0	0	0	0
082019	13:56:16	14:03:59	460946	5.0.10.0	5_exp_noRW	106	Rpleas_acq	CS_B	VKKV	GWWG	YDDY	JXXJ	BZZB	MQQM	schön	spielen	retten	fair	treu	ehrlich	schlecht	strafen	rächen	faul	tot	eitel	47pct	acq_USunple_CSunple1_noRW	acq23456_noRW	3	41	0	0	300	300	620	46	0	1	1	blank2r.bmp	0	1	+	0	1	blank2r.bmp	252	1	YDDY	306	2	strafen	559	0	0	0	0	0	0	0	0	0	0	0	0	0	0	0	0	0	0	0	0	0	0	0	0	0	0	0	0	0	0	0	0	0	0	0	0	0	0	0
082019	13:56:16	14:04:01	462519	5.0.10.0	5_exp_noRW	106	Rpleas_acq	CS_B	VKKV	GWWG	YDDY	JXXJ	BZZB	MQQM	schön	spielen	retten	fair	treu	ehrlich	schlecht	strafen	rächen	faul	tot	eitel	53pct	acq_USunple_CSpleas2_noRW	acq23456_noRW	3	42	0	0	300	300	395	46	0	1	1	blank2r.bmp	0	1	+	0	1	blank2r.bmp	252	1	GWWG	306	2	tot	559	0	0	0	0	0	0	0	0	0	0	0	0	0	0	0	0	0	0	0	0	0	0	0	0	0	0	0	0	0	0	0	0	0	0	0	0	0	0	0
082019	13:56:16	14:04:03	464091	5.0.10.0	5_exp_noRW	106	Rpleas_acq	CS_B	VKKV	GWWG	YDDY	JXXJ	BZZB	MQQM	schön	spielen	retten	fair	treu	ehrlich	schlecht	strafen	rächen	faul	tot	eitel	47pct	acq_USpleas_CSunple1_noRW	acq23456_noRW	3	43	0	0	300	300	394	50	0	1	1	blank2r.bmp	0	1	+	0	1	blank2r.bmp	252	1	YDDY	306	1	schön	559	0	0	0	0	0	0	0	0	0	0	0	0	0	0	0	0	0	0	0	0	0	0	0	0	0	0	0	0	0	0	0	0	0	0	0	0	0	0	0
082019	13:56:16	14:04:04	465651	5.0.10.0	5_exp_noRW	106	Rpleas_acq	CS_B	VKKV	GWWG	YDDY	JXXJ	BZZB	MQQM	schön	spielen	retten	fair	treu	ehrlich	schlecht	strafen	rächen	faul	tot	eitel	47pct	acq_USpleas_CSpleas1_noRW	acq23456_noRW	3	44	0	0	300	300	381	50	0	1	1	blank2r.bmp	0	1	+	0	1	blank2r.bmp	252	1	VKKV	306	2	spielen	559	0	0	0	0	0	0	0	0	0	0	0	0	0	0	0	0	0	0	0	0	0	0	0	0	0	0	0	0	0	0	0	0	0	0	0	0	0	0	0
082019	13:56:16	14:04:06	467490	5.0.10.0	5_exp_noRW	106	Rpleas_acq	CS_B	VKKV	GWWG	YDDY	JXXJ	BZZB	MQQM	schön	spielen	retten	fair	treu	ehrlich	schlecht	strafen	rächen	faul	tot	eitel	47pct	acq_USpleas_CSpleas2_noRW	acq23456_noRW	3	45	0	0	300	300	446	46	0	0	1	blank2r.bmp	0	1	+	0	1	blank2r.bmp	252	1	GWWG	306	1	fair	559	1	FEHLER	1039	0	0	0	0	0	0	0	0	0	0	0	0	0	0	0	0	0	0	0	0	0	0	0	0	0	0	0	0	0	0	0	0	0	0	0	0
082019	13:56:16	14:04:07	468849	5.0.10.0	5_exp_noRW	106	Rpleas_acq	CS_B	VKKV	GWWG	YDDY	JXXJ	BZZB	MQQM	schön	spielen	retten	fair	treu	ehrlich	schlecht	strafen	rächen	faul	tot	eitel	47pct	acq_USunple_CSpleas1_noRW	acq23456_noRW	3	46	0	0	300	300	395	46	0	1	1	blank2r.bmp	0	1	+	0	1	blank2r.bmp	252	1	VKKV	306	1	schlecht	559	0	0	0	0	0	0	0	0	0	0	0	0	0	0	0	0	0	0	0	0	0	0	0	0	0	0	0	0	0	0	0	0	0	0	0	0	0	0	0
082019	13:56:16	14:04:09	470475	5.0.10.0	5_exp_noRW	106	Rpleas_acq	CS_B	VKKV	GWWG	YDDY	JXXJ	BZZB	MQQM	schön	spielen	retten	fair	treu	ehrlich	schlecht	strafen	rächen	faul	tot	eitel	53pct	acq_USunple_CSunple2_noRW	acq23456_noRW	3	47	0	0	300	300	451	46	0	1	1	blank2r.bmp	0	1	+	0	1	blank2r.bmp	252	1	JXXJ	306	3	eitel	559	0	0	0	0	0	0	0	0	0	0	0	0	0	0	0	0	0	0	0	0	0	0	0	0	0	0	0	0	0	0	0	0	0	0	0	0	0	0	0
082019	13:56:16	14:04:11	472088	5.0.10.0	5_exp_noRW	106	Rpleas_acq	CS_B	VKKV	GWWG	YDDY	JXXJ	BZZB	MQQM	schön	spielen	retten	fair	treu	ehrlich	schlecht	strafen	rächen	faul	tot	eitel	53pct	acq_USpleas_CSpleas1_noRW	acq23456_noRW	3	48	0	0	300	300	437	50	0	1	1	blank2r.bmp	0	1	+	0	1	blank2r.bmp	252	1	VKKV	306	1	schön	559	0	0	0	0	0	0	0	0	0	0	0	0	0	0	0	0	0	0	0	0	0	0	0	0	0	0	0	0	0	0	0	0	0	0	0	0	0	0	0
082019	13:56:16	14:04:12	473821	5.0.10.0	5_exp_noRW	106	Rpleas_acq	CS_B	VKKV	GWWG	YDDY	JXXJ	BZZB	MQQM	schön	spielen	retten	fair	treu	ehrlich	schlecht	strafen	rächen	faul	tot	eitel	53pct	acq_USpleas_CSpleas2_noRW	acq23456_noRW	3	49	0	0	300	300	551	50	0	1	1	blank2r.bmp	0	1	+	0	1	blank2r.bmp	252	1	GWWG	306	2	treu	559	0	0	0	0	0	0	0	0	0	0	0	0	0	0	0	0	0	0	0	0	0	0	0	0	0	0	0	0	0	0	0	0	0	0	0	0	0	0	0
082019	13:56:16	14:04:14	475367	5.0.10.0	5_exp_noRW	106	Rpleas_acq	CS_B	VKKV	GWWG	YDDY	JXXJ	BZZB	MQQM	schön	spielen	retten	fair	treu	ehrlich	schlecht	strafen	rächen	faul	tot	eitel	53pct	acq_USunple_CSunple2_noRW	acq23456_noRW	3	50	0	0	300	300	373	46	0	1	1	blank2r.bmp	0	1	+	0	1	blank2r.bmp	252	1	JXXJ	306	2	tot	559	0	0	0	0	0	0	0	0	0	0	0	0	0	0	0	0	0	0	0	0	0	0	0	0	0	0	0	0	0	0	0	0	0	0	0	0	0	0	0
082019	13:56:16	14:04:15	476913	5.0.10.0	5_exp_noRW	106	Rpleas_acq	CS_B	VKKV	GWWG	YDDY	JXXJ	BZZB	MQQM	schön	spielen	retten	fair	treu	ehrlich	schlecht	strafen	rächen	faul	tot	eitel	47pct	acq_USunple_CSunple2_noRW	acq23456_noRW	3	51	0	0	300	300	376	46	0	1	1	blank2r.bmp	0	1	+	0	1	blank2r.bmp	252	1	JXXJ	306	2	tot	559	0	0	0	0	0	0	0	0	0	0	0	0	0	0	0	0	0	0	0	0	0	0	0	0	0	0	0	0	0	0	0	0	0	0	0	0	0	0	0
082019	13:56:16	14:04:17	478552	5.0.10.0	5_exp_noRW	106	Rpleas_acq	CS_B	VKKV	GWWG	YDDY	JXXJ	BZZB	MQQM	schön	spielen	retten	fair	treu	ehrlich	schlecht	strafen	rächen	faul	tot	eitel	53pct	acq_USunple_CSunple2_noRW	acq23456_noRW	3	52	0	0	300	300	472	46	0	1	1	blank2r.bmp	0	1	+	0	1	blank2r.bmp	252	1	JXXJ	306	1	faul	559	0	0	0	0	0	0	0	0	0	0	0	0	0	0	0	0	0	0	0	0	0	0	0	0	0	0	0	0	0	0	0	0	0	0	0	0	0	0	0
082019	13:56:16	14:04:19	480298	5.0.10.0	5_exp_noRW	106	Rpleas_acq	CS_B	VKKV	GWWG	YDDY	JXXJ	BZZB	MQQM	schön	spielen	retten	fair	treu	ehrlich	schlecht	strafen	rächen	faul	tot	eitel	47pct	acq_USunple_CSunple1_noRW	acq23456_noRW	3	53	0	0	300	300	579	46	0	1	1	blank2r.bmp	0	1	+	0	1	blank2r.bmp	252	1	YDDY	306	3	rächen	559	0	0	0	0	0	0	0	0	0	0	0	0	0	0	0	0	0	0	0	0	0	0	0	0	0	0	0	0	0	0	0	0	0	0	0	0	0	0	0
082019	13:56:16	14:04:20	481924	5.0.10.0	5_exp_noRW	106	Rpleas_acq	CS_B	VKKV	GWWG	YDDY	JXXJ	BZZB	MQQM	schön	spielen	retten	fair	treu	ehrlich	schlecht	strafen	rächen	faul	tot	eitel	53pct	acq_USpleas_CSpleas2_noRW	acq23456_noRW	3	54	0	0	300	300	458	50	0	1	1	blank2r.bmp	0	1	+	0	1	blank2r.bmp	252	1	GWWG	306	2	treu	559	0	0	0	0	0	0	0	0	0	0	0	0	0	0	0	0	0	0	0	0	0	0	0	0	0	0	0	0	0	0	0	0	0	0	0	0	0	0	0
082019	13:56:16	14:04:22	483617	5.0.10.0	5_exp_noRW	106	Rpleas_acq	CS_B	VKKV	GWWG	YDDY	JXXJ	BZZB	MQQM	schön	spielen	retten	fair	treu	ehrlich	schlecht	strafen	rächen	faul	tot	eitel	53pct	acq_USunple_CSunple1_noRW	acq23456_noRW	3	55	0	0	300	300	516	46	0	1	1	blank2r.bmp	0	1	+	0	1	blank2r.bmp	252	1	YDDY	306	1	schlecht	559	0	0	0	0	0	0	0	0	0	0	0	0	0	0	0	0	0	0	0	0	0	0	0	0	0	0	0	0	0	0	0	0	0	0	0	0	0	0	0
082019	13:56:16	14:04:24	485416	5.0.10.0	5_exp_noRW	106	Rpleas_acq	CS_B	VKKV	GWWG	YDDY	JXXJ	BZZB	MQQM	schön	spielen	retten	fair	treu	ehrlich	schlecht	strafen	rächen	faul	tot	eitel	53pct	acq_USpleas_CSpleas1_noRW	acq23456_noRW	3	56	0	0	300	300	625	50	0	1	1	blank2r.bmp	0	1	+	0	1	blank2r.bmp	252	1	VKKV	306	3	retten	559	0	0	0	0	0	0	0	0	0	0	0	0	0	0	0	0	0	0	0	0	0	0	0	0	0	0	0	0	0	0	0	0	0	0	0	0	0	0	0
082019	13:56:16	14:04:26	487002	5.0.10.0	5_exp_noRW	106	Rpleas_acq	CS_B	VKKV	GWWG	YDDY	JXXJ	BZZB	MQQM	schön	spielen	retten	fair	treu	ehrlich	schlecht	strafen	rächen	faul	tot	eitel	53pct	acq_USpleas_CSpleas1_noRW	acq23456_noRW	3	57	0	0	300	300	418	50	0	1	1	blank2r.bmp	0	1	+	0	1	blank2r.bmp	252	1	VKKV	306	2	spielen	559	0	0	0	0	0	0	0	0	0	0	0	0	0	0	0	0	0	0	0	0	0	0	0	0	0	0	0	0	0	0	0	0	0	0	0	0	0	0	0
082019	13:56:16	14:04:27	488615	5.0.10.0	5_exp_noRW	106	Rpleas_acq	CS_B	VKKV	GWWG	YDDY	JXXJ	BZZB	MQQM	schön	spielen	retten	fair	treu	ehrlich	schlecht	strafen	rächen	faul	tot	eitel	47pct	acq_USpleas_CSunple2_noRW	acq23456_noRW	3	58	0	0	300	300	446	50	0	1	1	blank2r.bmp	0	1	+	0	1	blank2r.bmp	252	1	JXXJ	306	3	ehrlich	559	0	0	0	0	0	0	0	0	0	0	0	0	0	0	0	0	0	0	0	0	0	0	0	0	0	0	0	0	0	0	0	0	0	0	0	0	0	0	0
082019	13:56:16	14:04:29	490134	5.0.10.0	5_exp_noRW	106	Rpleas_acq	CS_B	VKKV	GWWG	YDDY	JXXJ	BZZB	MQQM	schön	spielen	retten	fair	treu	ehrlich	schlecht	strafen	rächen	faul	tot	eitel	53pct	acq_USpleas_CSpleas2_noRW	acq23456_noRW	3	59	0	0	300	300	343	50	0	1	1	blank2r.bmp	0	1	+	0	1	blank2r.bmp	252	1	GWWG	306	3	ehrlich	559	0	0	0	0	0	0	0	0	0	0	0	0	0	0	0	0	0	0	0	0	0	0	0	0	0	0	0	0	0	0	0	0	0	0	0	0	0	0	0
082019	13:56:16	14:04:30	491680	5.0.10.0	5_exp_noRW	106	Rpleas_acq	CS_B	VKKV	GWWG	YDDY	JXXJ	BZZB	MQQM	schön	spielen	retten	fair	treu	ehrlich	schlecht	strafen	rächen	faul	tot	eitel	53pct	acq_USunple_CSunple1_noRW	acq23456_noRW	3	60	0	0	300	300	364	46	0	1	1	blank2r.bmp	0	1	+	0	1	blank2r.bmp	252	1	YDDY	306	3	rächen	559	0	0	0	0	0	0	0	0	0	0	0	0	0	0	0	0	0	0	0	0	0	0	0	0	0	0	0	0	0	0	0	0	0	0	0	0	0	0	0
082019	13:56:16	14:04:32	493293	5.0.10.0	5_exp_noRW	106	Rpleas_acq	CS_B	VKKV	GWWG	YDDY	JXXJ	BZZB	MQQM	schön	spielen	retten	fair	treu	ehrlich	schlecht	strafen	rächen	faul	tot	eitel	47pct	acq_USpleas_CSpleas1_noRW	acq23456_noRW	3	61	0	0	300	300	433	50	0	1	1	blank2r.bmp	0	1	+	0	1	blank2r.bmp	252	1	VKKV	306	1	schön	559	0	0	0	0	0	0	0	0	0	0	0	0	0	0	0	0	0	0	0	0	0	0	0	0	0	0	0	0	0	0	0	0	0	0	0	0	0	0	0
082019	13:56:16	14:04:33	494945	5.0.10.0	5_exp_noRW	106	Rpleas_acq	CS_B	VKKV	GWWG	YDDY	JXXJ	BZZB	MQQM	schön	spielen	retten	fair	treu	ehrlich	schlecht	strafen	rächen	faul	tot	eitel	47pct	acq_USunple_CSunple2_noRW	acq23456_noRW	3	62	0	0	300	300	490	46	0	1	1	blank2r.bmp	0	1	+	0	1	blank2r.bmp	252	1	JXXJ	306	3	eitel	559	0	0	0	0	0	0	0	0	0	0	0	0	0	0	0	0	0	0	0	0	0	0	0	0	0	0	0	0	0	0	0	0	0	0	0	0	0	0	0
082019	13:56:16	14:04:35	496611	5.0.10.0	5_exp_noRW	106	Rpleas_acq	CS_B	VKKV	GWWG	YDDY	JXXJ	BZZB	MQQM	schön	spielen	retten	fair	treu	ehrlich	schlecht	strafen	rächen	faul	tot	eitel	53pct	acq_USunple_CSpleas2_noRW	acq23456_noRW	3	63	0	0	300	300	487	46	0	1	1	blank2r.bmp	0	1	+	0	1	blank2r.bmp	252	1	GWWG	306	3	eitel	559	0	0	0	0	0	0	0	0	0	0	0	0	0	0	0	0	0	0	0	0	0	0	0	0	0	0	0	0	0	0	0	0	0	0	0	0	0	0	0
082019	13:56:16	14:04:37	498304	5.0.10.0	5_exp_noRW	106	Rpleas_acq	CS_B	VKKV	GWWG	YDDY	JXXJ	BZZB	MQQM	schön	spielen	retten	fair	treu	ehrlich	schlecht	strafen	rächen	faul	tot	eitel	47pct	acq_USpleas_CSpleas2_noRW	acq23456_noRW	3	64	0	0	300	300	528	50	0	1	1	blank2r.bmp	0	1	+	0	1	blank2r.bmp	252	1	GWWG	306	1	fair	559	0	0	0	0	0	0	0	0	0	0	0	0	0	0	0	0	0	0	0	0	0	0	0	0	0	0	0	0	0	0	0	0	0	0	0	0	0	0	0
082019	13:56:16	14:04:38	499904	5.0.10.0	5_exp_noRW	106	Rpleas_acq	CS_B	VKKV	GWWG	YDDY	JXXJ	BZZB	MQQM	schön	spielen	retten	fair	treu	ehrlich	schlecht	strafen	rächen	faul	tot	eitel	47pct	acq_USunple_CSunple1_noRW	acq23456_noRW	3	65	0	0	300	300	418	46	0	1	1	blank2r.bmp	0	1	+	0	1	blank2r.bmp	252	1	YDDY	306	2	strafen	559	0	0	0	0	0	0	0	0	0	0	0	0	0	0	0	0	0	0	0	0	0	0	0	0	0	0	0	0	0	0	0	0	0	0	0	0	0	0	0
082019	13:56:16	14:04:40	501729	5.0.10.0	5_exp_noRW	106	Rpleas_acq	CS_B	VKKV	GWWG	YDDY	JXXJ	BZZB	MQQM	schön	spielen	retten	fair	treu	ehrlich	schlecht	strafen	rächen	faul	tot	eitel	47pct	acq_USunple_CSunple2_noRW	acq23456_noRW	3	66	0	0	300	300	656	46	0	1	1	blank2r.bmp	0	1	+	0	1	blank2r.bmp	252	1	JXXJ	306	2	tot	559	0	0	0	0	0	0	0	0	0	0	0	0	0	0	0	0	0	0	0	0	0	0	0	0	0	0	0	0	0	0	0	0	0	0	0	0	0	0	0
082019	13:56:16	14:04:42	503502	5.0.10.0	5_exp_noRW	106	Rpleas_acq	CS_B	VKKV	GWWG	YDDY	JXXJ	BZZB	MQQM	schön	spielen	retten	fair	treu	ehrlich	schlecht	strafen	rächen	faul	tot	eitel	53pct	acq_USpleas_CSpleas2_noRW	acq23456_noRW	3	67	0	0	300	300	396	46	0	0	1	blank2r.bmp	0	1	+	0	1	blank2r.bmp	252	1	GWWG	306	2	treu	559	1	FEHLER	986	0	0	0	0	0	0	0	0	0	0	0	0	0	0	0	0	0	0	0	0	0	0	0	0	0	0	0	0	0	0	0	0	0	0	0	0
082019	13:56:16	14:04:43	504888	5.0.10.0	5_exp_noRW	106	Rpleas_acq	CS_B	VKKV	GWWG	YDDY	JXXJ	BZZB	MQQM	schön	spielen	retten	fair	treu	ehrlich	schlecht	strafen	rächen	faul	tot	eitel	53pct	acq_USpleas_CSpleas1_noRW	acq23456_noRW	3	68	0	0	300	300	435	50	0	1	1	blank2r.bmp	0	1	+	0	1	blank2r.bmp	252	1	VKKV	306	1	schön	559	0	0	0	0	0	0	0	0	0	0	0	0	0	0	0	0	0	0	0	0	0	0	0	0	0	0	0	0	0	0	0	0	0	0	0	0	0	0	0
082019	13:56:16	14:04:45	506461	5.0.10.0	5_exp_noRW	106	Rpleas_acq	CS_B	VKKV	GWWG	YDDY	JXXJ	BZZB	MQQM	schön	spielen	retten	fair	treu	ehrlich	schlecht	strafen	rächen	faul	tot	eitel	53pct	acq_USunple_CSunple2_noRW	acq23456_noRW	3	69	0	0	300	300	396	46	0	1	1	blank2r.bmp	0	1	+	0	1	blank2r.bmp	252	1	JXXJ	306	1	faul	559	0	0	0	0	0	0	0	0	0	0	0	0	0	0	0	0	0	0	0	0	0	0	0	0	0	0	0	0	0	0	0	0	0	0	0	0	0	0	0
082019	13:56:16	14:04:47	508193	5.0.10.0	5_exp_noRW	106	Rpleas_acq	CS_B	VKKV	GWWG	YDDY	JXXJ	BZZB	MQQM	schön	spielen	retten	fair	treu	ehrlich	schlecht	strafen	rächen	faul	tot	eitel	47pct	acq_USpleas_CSpleas2_noRW	acq23456_noRW	3	70	0	0	300	300	548	50	0	1	1	blank2r.bmp	0	1	+	0	1	blank2r.bmp	252	1	GWWG	306	3	ehrlich	559	0	0	0	0	0	0	0	0	0	0	0	0	0	0	0	0	0	0	0	0	0	0	0	0	0	0	0	0	0	0	0	0	0	0	0	0	0	0	0
082019	13:56:16	14:04:48	509873	5.0.10.0	5_exp_noRW	106	Rpleas_acq	CS_B	VKKV	GWWG	YDDY	JXXJ	BZZB	MQQM	schön	spielen	retten	fair	treu	ehrlich	schlecht	strafen	rächen	faul	tot	eitel	53pct	acq_USunple_CSunple1_noRW	acq23456_noRW	3	71	0	0	300	300	517	46	0	1	1	blank2r.bmp	0	1	+	0	1	blank2r.bmp	252	1	YDDY	306	3	rächen	559	0	0	0	0	0	0	0	0	0	0	0	0	0	0	0	0	0	0	0	0	0	0	0	0	0	0	0	0	0	0	0	0	0	0	0	0	0	0	0
082019	13:56:16	14:04:50	511619	5.0.10.0	5_exp_noRW	106	Rpleas_acq	CS_B	VKKV	GWWG	YDDY	JXXJ	BZZB	MQQM	schön	spielen	retten	fair	treu	ehrlich	schlecht	strafen	rächen	faul	tot	eitel	53pct	acq_USpleas_CSpleas2_noRW	acq23456_noRW	3	72	0	0	300	300	554	50	0	1	1	blank2r.bmp	0	1	+	0	1	blank2r.bmp	252	1	GWWG	306	1	fair	559	0	0	0	0	0	0	0	0	0	0	0	0	0	0	0	0	0	0	0	0	0	0	0	0	0	0	0	0	0	0	0	0	0	0	0	0	0	0	0
082019	13:56:16	14:04:52	513285	5.0.10.0	5_exp_noRW	106	Rpleas_acq	CS_B	VKKV	GWWG	YDDY	JXXJ	BZZB	MQQM	schön	spielen	retten	fair	treu	ehrlich	schlecht	strafen	rächen	faul	tot	eitel	47pct	acq_USpleas_CSunple1_noRW	acq23456_noRW	3	73	0	0	300	300	502	50	0	1	1	blank2r.bmp	0	1	+	0	1	blank2r.bmp	252	1	YDDY	306	3	retten	559	0	0	0	0	0	0	0	0	0	0	0	0	0	0	0	0	0	0	0	0	0	0	0	0	0	0	0	0	0	0	0	0	0	0	0	0	0	0	0
082019	13:56:16	14:04:54	515071	5.0.10.0	5_exp_noRW	106	Rpleas_acq	CS_B	VKKV	GWWG	YDDY	JXXJ	BZZB	MQQM	schön	spielen	retten	fair	treu	ehrlich	schlecht	strafen	rächen	faul	tot	eitel	47pct	acq_USunple_CSunple1_noRW	acq23456_noRW	3	74	0	0	300	300	602	46	0	1	1	blank2r.bmp	0	1	+	0	1	blank2r.bmp	252	1	YDDY	306	1	schlecht	559	0	0	0	0	0	0	0	0	0	0	0	0	0	0	0	0	0	0	0	0	0	0	0	0	0	0	0	0	0	0	0	0	0	0	0	0	0	0	0
082019	13:56:16	14:04:55	516763	5.0.10.0	5_exp_noRW	106	Rpleas_acq	CS_B	VKKV	GWWG	YDDY	JXXJ	BZZB	MQQM	schön	spielen	retten	fair	treu	ehrlich	schlecht	strafen	rächen	faul	tot	eitel	53pct	acq_USunple_CSpleas1_noRW	acq23456_noRW	3	75	0	0	300	300	519	46	0	1	1	blank2r.bmp	0	1	+	0	1	blank2r.bmp	252	1	VKKV	306	2	strafen	559	0	0	0	0	0	0	0	0	0	0	0	0	0	0	0	0	0	0	0	0	0	0	0	0	0	0	0	0	0	0	0	0	0	0	0	0	0	0	0
082019	13:56:16	14:04:57	518376	5.0.10.0	5_exp_noRW	106	Rpleas_acq	CS_B	VKKV	GWWG	YDDY	JXXJ	BZZB	MQQM	schön	spielen	retten	fair	treu	ehrlich	schlecht	strafen	rächen	faul	tot	eitel	47pct	acq_USpleas_CSpleas1_noRW	acq23456_noRW	3	76	0	0	300	300	448	50	0	1	1	blank2r.bmp	0	1	+	0	1	blank2r.bmp	252	1	VKKV	306	3	retten	559	0	0	0	0	0	0	0	0	0	0	0	0	0	0	0	0	0	0	0	0	0	0	0	0	0	0	0	0	0	0	0	0	0	0	0	0	0	0	0
082019	13:56:16	14:04:59	520095	5.0.10.0	5_exp_noRW	106	Rpleas_acq	CS_B	VKKV	GWWG	YDDY	JXXJ	BZZB	MQQM	schön	spielen	retten	fair	treu	ehrlich	schlecht	strafen	rächen	faul	tot	eitel	47pct	acq_USpleas_CSpleas1_noRW	acq23456_noRW	3	77	0	0	300	300	548	50	0	1	1	blank2r.bmp	0	1	+	0	1	blank2r.bmp	252	1	VKKV	306	2	spielen	559	0	0	0	0	0	0	0	0	0	0	0	0	0	0	0	0	0	0	0	0	0	0	0	0	0	0	0	0	0	0	0	0	0	0	0	0	0	0	0
082019	13:56:16	14:05:00	521881	5.0.10.0	5_exp_noRW	106	Rpleas_acq	CS_B	VKKV	GWWG	YDDY	JXXJ	BZZB	MQQM	schön	spielen	retten	fair	treu	ehrlich	schlecht	strafen	rächen	faul	tot	eitel	47pct	acq_USpleas_CSunple2_noRW	acq23456_noRW	3	78	0	0	300	300	619	50	0	1	1	blank2r.bmp	0	1	+	0	1	blank2r.bmp	252	1	JXXJ	306	2	treu	559	0	0	0	0	0	0	0	0	0	0	0	0	0	0	0	0	0	0	0	0	0	0	0	0	0	0	0	0	0	0	0	0	0	0	0	0	0	0	0
082019	13:56:16	14:05:02	523507	5.0.10.0	5_exp_noRW	106	Rpleas_acq	CS_B	VKKV	GWWG	YDDY	JXXJ	BZZB	MQQM	schön	spielen	retten	fair	treu	ehrlich	schlecht	strafen	rächen	faul	tot	eitel	47pct	acq_USunple_CSunple2_noRW	acq23456_noRW	3	79	0	0	300	300	451	46	0	1	1	blank2r.bmp	0	1	+	0	1	blank2r.bmp	252	1	JXXJ	306	3	eitel	559	0	0	0	0	0	0	0	0	0	0	0	0	0	0	0	0	0	0	0	0	0	0	0	0	0	0	0	0	0	0	0	0	0	0	0	0	0	0	0
082019	13:56:16	14:05:04	525493	5.0.10.0	5_exp_noRW	106	Rpleas_acq	CS_B	VKKV	GWWG	YDDY	JXXJ	BZZB	MQQM	schön	spielen	retten	fair	treu	ehrlich	schlecht	strafen	rächen	faul	tot	eitel	47pct	acq_USunple_CSunple1_noRW	acq23456_noRW	3	80	0	0	300	300	573	50	0	0	1	blank2r.bmp	0	1	+	0	1	blank2r.bmp	252	1	YDDY	306	2	strafen	559	1	FEHLER	1172	0	0	0	0	0	0	0	0	0	0	0	0	0	0	0	0	0	0	0	0	0	0	0	0	0	0	0	0	0	0	0	0	0	0	0	0
082019	13:56:16	14:05:16	537955	5.0.10.0	5_exp_noRW	106	Rpleas_acq	CS_B	VKKV	GWWG	YDDY	JXXJ	BZZB	MQQM	schön	spielen	retten	fair	treu	ehrlich	schlecht	strafen	rächen	faul	tot	eitel	47pct	acq_USunple_CSpleas1_noRW	acq23456_noRW	4	1	0	0	300	300	483	46	0	1	1	blank2r.bmp	0	1	+	0	1	blank2r.bmp	252	1	VKKV	306	3	rächen	559	0	0	0	0	0	0	0	0	0	0	0	0	0	0	0	0	0	0	0	0	0	0	0	0	0	0	0	0	0	0	0	0	0	0	0	0	0	0	0
082019	13:56:16	14:05:18	539541	5.0.10.0	5_exp_noRW	106	Rpleas_acq	CS_B	VKKV	GWWG	YDDY	JXXJ	BZZB	MQQM	schön	spielen	retten	fair	treu	ehrlich	schlecht	strafen	rächen	faul	tot	eitel	53pct	acq_USunple_CSunple2_noRW	acq23456_noRW	4	2	0	0	300	300	414	46	0	1	1	blank2r.bmp	0	1	+	0	1	blank2r.bmp	252	1	JXXJ	306	2	tot	559	0	0	0	0	0	0	0	0	0	0	0	0	0	0	0	0	0	0	0	0	0	0	0	0	0	0	0	0	0	0	0	0	0	0	0	0	0	0	0
082019	13:56:16	14:05:20	541287	5.0.10.0	5_exp_noRW	106	Rpleas_acq	CS_B	VKKV	GWWG	YDDY	JXXJ	BZZB	MQQM	schön	spielen	retten	fair	treu	ehrlich	schlecht	strafen	rächen	faul	tot	eitel	53pct	acq_USpleas_CSunple2_noRW	acq23456_noRW	4	3	0	0	300	300	356	46	0	0	1	blank2r.bmp	0	1	+	0	1	blank2r.bmp	252	1	JXXJ	306	2	treu	559	1	FEHLER	946	0	0	0	0	0	0	0	0	0	0	0	0	0	0	0	0	0	0	0	0	0	0	0	0	0	0	0	0	0	0	0	0	0	0	0	0
082019	13:56:16	14:05:21	542806	5.0.10.0	5_exp_noRW	106	Rpleas_acq	CS_B	VKKV	GWWG	YDDY	JXXJ	BZZB	MQQM	schön	spielen	retten	fair	treu	ehrlich	schlecht	strafen	rächen	faul	tot	eitel	53pct	acq_USunple_CSunple1_noRW	acq23456_noRW	4	4	0	0	300	300	565	46	0	1	1	blank2r.bmp	0	1	+	0	1	blank2r.bmp	252	1	YDDY	306	1	schlecht	559	0	0	0	0	0	0	0	0	0	0	0	0	0	0	0	0	0	0	0	0	0	0	0	0	0	0	0	0	0	0	0	0	0	0	0	0	0	0	0
082019	13:56:16	14:05:23	544459	5.0.10.0	5_exp_noRW	106	Rpleas_acq	CS_B	VKKV	GWWG	YDDY	JXXJ	BZZB	MQQM	schön	spielen	retten	fair	treu	ehrlich	schlecht	strafen	rächen	faul	tot	eitel	53pct	acq_USpleas_CSpleas1_noRW	acq23456_noRW	4	5	0	0	300	300	483	50	0	1	1	blank2r.bmp	0	1	+	0	1	blank2r.bmp	252	1	VKKV	306	3	retten	559	0	0	0	0	0	0	0	0	0	0	0	0	0	0	0	0	0	0	0	0	0	0	0	0	0	0	0	0	0	0	0	0	0	0	0	0	0	0	0
082019	13:56:16	14:05:25	546178	5.0.10.0	5_exp_noRW	106	Rpleas_acq	CS_B	VKKV	GWWG	YDDY	JXXJ	BZZB	MQQM	schön	spielen	retten	fair	treu	ehrlich	schlecht	strafen	rächen	faul	tot	eitel	47pct	acq_USunple_CSunple1_noRW	acq23456_noRW	4	6	0	0	300	300	556	46	0	1	1	blank2r.bmp	0	1	+	0	1	blank2r.bmp	252	1	YDDY	306	3	rächen	559	0	0	0	0	0	0	0	0	0	0	0	0	0	0	0	0	0	0	0	0	0	0	0	0	0	0	0	0	0	0	0	0	0	0	0	0	0	0	0
082019	13:56:16	14:05:26	547857	5.0.10.0	5_exp_noRW	106	Rpleas_acq	CS_B	VKKV	GWWG	YDDY	JXXJ	BZZB	MQQM	schön	spielen	retten	fair	treu	ehrlich	schlecht	strafen	rächen	faul	tot	eitel	53pct	acq_USunple_CSpleas2_noRW	acq23456_noRW	4	7	0	0	300	300	500	46	0	1	1	blank2r.bmp	0	1	+	0	1	blank2r.bmp	252	1	GWWG	306	1	faul	559	0	0	0	0	0	0	0	0	0	0	0	0	0	0	0	0	0	0	0	0	0	0	0	0	0	0	0	0	0	0	0	0	0	0	0	0	0	0	0
082019	13:56:16	14:05:28	549430	5.0.10.0	5_exp_noRW	106	Rpleas_acq	CS_B	VKKV	GWWG	YDDY	JXXJ	BZZB	MQQM	schön	spielen	retten	fair	treu	ehrlich	schlecht	strafen	rächen	faul	tot	eitel	53pct	acq_USpleas_CSpleas2_noRW	acq23456_noRW	4	8	0	0	300	300	404	50	0	1	1	blank2r.bmp	0	1	+	0	1	blank2r.bmp	252	1	GWWG	306	2	treu	559	0	0	0	0	0	0	0	0	0	0	0	0	0	0	0	0	0	0	0	0	0	0	0	0	0	0	0	0	0	0	0	0	0	0	0	0	0	0	0
