subject_nr,contrast_group,iat_order,block_order_1,block_order_2,color_counter,which_IAT_which_block,current_contrast,current_comp,trialnr,trial_type,target_type,task_switch, response_switch,left_target,right_target,left_attribute,right_attribute,trial_target,target_color,target_role,attribute_valence,correct_response,response_first_response,correct_first_response,time_assignments_show,time_target_show,time_first_response,response_time_first_response,response_force_correct,correct_force_correct,time_force_correct,response_time_force_correct,time_logger
45,old,ending_first,compatible_first,incompatible_first,ES_yellow,first_IAT_first_block,ending,compatible,0,NA,target_practice,target_practice,target_practice,Lila Wesen,Gelbe Wesen,target_practice,target_practice,IAT_purple3.bmp,purple,ending_melody,target_practice,c,m,0,794494,794884,794885,452,c,1,795355,873,796254
45,old,ending_first,compatible_first,incompatible_first,ES_yellow,first_IAT_first_block,ending,compatible,1,change,target_practice,target_practice,target_practice,Lila Wesen,Gelbe Wesen,target_practice,target_practice,IAT_yellow2.bmp,yellow,ending_scream,target_practice,m,m,1,796884,797274,797275,450,none,none,none,none,797744
45,old,ending_first,compatible_first,incompatible_first,ES_yellow,first_IAT_first_block,ending,compatible,2,change,target_practice,target_practice,target_practice,Lila Wesen,Gelbe Wesen,target_practice,target_practice,IAT_purple3.bmp,purple,ending_melody,target_practice,c,c,1,798344,798734,798735,515,none,none,none,none,799274
45,old,ending_first,compatible_first,incompatible_first,ES_yellow,first_IAT_first_block,ending,compatible,3,repetition,target_practice,target_practice,target_practice,Lila Wesen,Gelbe Wesen,target_practice,target_practice,IAT_purple2.bmp,purple,ending_melody,target_practice,c,c,1,799874,800264,800265,514,none,none,none,none,800804
45,old,ending_first,compatible_first,incompatible_first,ES_yellow,first_IAT_first_block,ending,compatible,4,change,target_practice,target_practice,target_practice,Lila Wesen,Gelbe Wesen,target_practice,target_practice,IAT_yellow3.bmp,yellow,ending_scream,target_practice,m,m,1,801415,801805,801805,428,none,none,none,none,802255
45,old,ending_first,compatible_first,incompatible_first,ES_yellow,first_IAT_first_block,ending,compatible,5,repetition,target_practice,target_practice,target_practice,Lila Wesen,Gelbe Wesen,target_practice,target_practice,IAT_yellow4.bmp,yellow,ending_scream,target_practice,m,m,1,802865,803255,803255,363,none,none,none,none,803645
45,old,ending_first,compatible_first,incompatible_first,ES_yellow,first_IAT_first_block,ending,compatible,6,repetition,target_practice,target_practice,target_practice,Lila Wesen,Gelbe Wesen,target_practice,target_practice,IAT_yellow2.bmp,yellow,ending_scream,target_practice,m,m,1,804255,804645,804645,315,none,none,none,none,804985
45,old,ending_first,compatible_first,incompatible_first,ES_yellow,first_IAT_first_block,ending,compatible,7,repetition,target_practice,target_practice,target_practice,Lila Wesen,Gelbe Wesen,target_practice,target_practice,IAT_yellow3.bmp,yellow,ending_scream,target_practice,m,m,1,805595,805985,805985,361,none,none,none,none,806375
45,old,ending_first,compatible_first,incompatible_first,ES_yellow,first_IAT_first_block,ending,compatible,8,repetition,target_practice,target_practice,target_practice,Lila Wesen,Gelbe Wesen,target_practice,target_practice,IAT_yellow4.bmp,yellow,ending_scream,target_practice,m,m,1,806975,807365,807365,531,none,none,none,none,807915
45,old,ending_first,compatible_first,incompatible_first,ES_yellow,first_IAT_first_block,ending,compatible,9,change,target_practice,target_practice,target_practice,Lila Wesen,Gelbe Wesen,target_practice,target_practice,IAT_purple1.bmp,purple,ending_melody,target_practice,c,c,1,808535,808925,808925,298,none,none,none,none,809245
45,old,ending_first,compatible_first,incompatible_first,ES_yellow,first_IAT_first_block,ending,compatible,10,change,target_practice,target_practice,target_practice,Lila Wesen,Gelbe Wesen,target_practice,target_practice,IAT_yellow3.bmp,yellow,ending_scream,target_practice,m,m,1,809855,810245,810245,329,none,none,none,none,810595
45,old,ending_first,compatible_first,incompatible_first,ES_yellow,first_IAT_first_block,ending,compatible,11,repetition,target_practice,target_practice,target_practice,Lila Wesen,Gelbe Wesen,target_practice,target_practice,IAT_yellow1.bmp,yellow,ending_scream,target_practice,m,m,1,811208,811604,811605,502,none,none,none,none,812135
45,old,ending_first,compatible_first,incompatible_first,ES_yellow,first_IAT_first_block,ending,compatible,12,change,target_practice,target_practice,target_practice,Lila Wesen,Gelbe Wesen,target_practice,target_practice,IAT_purple2.bmp,purple,ending_melody,target_practice,c,c,1,812705,813094,813095,352,none,none,none,none,813474
45,old,ending_first,compatible_first,incompatible_first,ES_yellow,first_IAT_first_block,ending,compatible,13,repetition,target_practice,target_practice,target_practice,Lila Wesen,Gelbe Wesen,target_practice,target_practice,IAT_purple3.bmp,purple,ending_melody,target_practice,c,c,1,814034,814424,814425,362,none,none,none,none,814814
45,old,ending_first,compatible_first,incompatible_first,ES_yellow,first_IAT_first_block,ending,compatible,14,repetition,target_practice,target_practice,target_practice,Lila Wesen,Gelbe Wesen,target_practice,target_practice,IAT_purple1.bmp,purple,ending_melody,target_practice,c,c,1,815384,815774,815775,428,none,none,none,none,816224
45,old,ending_first,compatible_first,incompatible_first,ES_yellow,first_IAT_first_block,ending,compatible,15,change,target_practice,target_practice,target_practice,Lila Wesen,Gelbe Wesen,target_practice,target_practice,IAT_yellow1.bmp,yellow,ending_scream,target_practice,m,m,1,816794,817184,817184,401,none,none,none,none,817604
45,old,ending_first,compatible_first,incompatible_first,ES_yellow,first_IAT_first_block,ending,compatible,16,repetition,target_practice,target_practice,target_practice,Lila Wesen,Gelbe Wesen,target_practice,target_practice,IAT_yellow4.bmp,yellow,ending_scream,target_practice,m,m,1,818175,818564,818564,375,none,none,none,none,818965
45,old,ending_first,compatible_first,incompatible_first,ES_yellow,first_IAT_first_block,ending,compatible,17,change,target_practice,target_practice,target_practice,Lila Wesen,Gelbe Wesen,target_practice,target_practice,IAT_purple4.bmp,purple,ending_melody,target_practice,c,c,1,819545,819935,819935,512,none,none,none,none,820475
45,old,ending_first,compatible_first,incompatible_first,ES_yellow,first_IAT_first_block,ending,compatible,18,change,target_practice,target_practice,target_practice,Lila Wesen,Gelbe Wesen,target_practice,target_practice,IAT_yellow2.bmp,yellow,ending_scream,target_practice,m,m,1,821035,821425,821425,592,none,none,none,none,822045
45,old,ending_first,compatible_first,incompatible_first,ES_yellow,first_IAT_first_block,ending,compatible,19,change,target_practice,target_practice,target_practice,Lila Wesen,Gelbe Wesen,target_practice,target_practice,IAT_purple2.bmp,purple,ending_melody,target_practice,c,c,1,822615,823005,823005,462,none,none,none,none,823495
45,old,ending_first,compatible_first,incompatible_first,ES_yellow,first_IAT_first_block,ending,compatible,20,repetition,target_practice,target_practice,target_practice,Lila Wesen,Gelbe Wesen,target_practice,target_practice,IAT_purple4.bmp,purple,ending_melody,target_practice,c,c,1,824065,824455,824455,409,none,none,none,none,824885
