subject_nr,contrast_group,iat_order,block_order_1,block_order_2,color_counter,which_IAT_which_block,current_contrast,current_comp,trialnr,trial_type,target_type,task_switch, response_switch,left_target,right_target,left_attribute,right_attribute,trial_target,target_color,target_role,attribute_valence,correct_response,response_first_response,correct_first_response,time_assignments_show,time_target_show,time_first_response,response_time_first_response,response_force_correct,correct_force_correct,time_force_correct,response_time_force_correct,time_logger
45,old,ending_first,compatible_first,incompatible_first,ES_yellow,first_IAT_second_block,ending,incompatible,0,none,attribute,NA,NA,Gelbe Wesen,Lila Wesen,Negativ,Positiv,Böse,NA,NA,negative,c,c,1,1065094,1065484,1065485,628,none,none,none,none,1066134
45,old,ending_first,compatible_first,incompatible_first,ES_yellow,first_IAT_second_block,ending,incompatible,1,none,attribute,task_repetition,response_switch,Gelbe Wesen,Lila Wesen,Negativ,Positiv,Liebe,NA,NA,positive,m,m,1,1066854,1067244,1067245,551,none,none,none,none,1067814
45,old,ending_first,compatible_first,incompatible_first,ES_yellow,first_IAT_second_block,ending,incompatible,2,none,attribute,task_repetition,response_switch,Gelbe Wesen,Lila Wesen,Negativ,Positiv,Böse,NA,NA,negative,c,c,1,1068534,1068924,1068924,483,none,none,none,none,1069434
45,old,ending_first,compatible_first,incompatible_first,ES_yellow,first_IAT_second_block,ending,incompatible,3,none,target,task_switch,response_repetition,Gelbe Wesen,Lila Wesen,Negativ,Positiv,IAT_yellow3.bmp,yellow,ending_scream,NA,c,c,1,1070144,1070534,1070534,919,none,none,none,none,1071474
45,old,ending_first,compatible_first,incompatible_first,ES_yellow,first_IAT_second_block,ending,incompatible,4,none,target,task_repetition,response_repetition,Gelbe Wesen,Lila Wesen,Negativ,Positiv,IAT_yellow1.bmp,yellow,ending_scream,NA,c,c,1,1072214,1072604,1072604,403,none,none,none,none,1073034
45,old,ending_first,compatible_first,incompatible_first,ES_yellow,first_IAT_second_block,ending,incompatible,5,none,target,task_repetition,response_switch,Gelbe Wesen,Lila Wesen,Negativ,Positiv,IAT_purple3.bmp,purple,ending_melody,NA,m,m,1,1073794,1074184,1074184,402,none,none,none,none,1074614
45,old,ending_first,compatible_first,incompatible_first,ES_yellow,first_IAT_second_block,ending,incompatible,6,none,target,task_repetition,response_repetition,Gelbe Wesen,Lila Wesen,Negativ,Positiv,IAT_purple4.bmp,purple,ending_melody,NA,m,m,1,1075387,1075784,1075784,332,none,none,none,none,1076144
45,old,ending_first,compatible_first,incompatible_first,ES_yellow,first_IAT_second_block,ending,incompatible,7,none,target,task_repetition,response_switch,Gelbe Wesen,Lila Wesen,Negativ,Positiv,IAT_yellow2.bmp,yellow,ending_scream,NA,c,c,1,1076854,1077244,1077244,494,none,none,none,none,1077764
45,old,ending_first,compatible_first,incompatible_first,ES_yellow,first_IAT_second_block,ending,incompatible,8,none,target,task_repetition,response_repetition,Gelbe Wesen,Lila Wesen,Negativ,Positiv,IAT_yellow4.bmp,yellow,ending_scream,NA,c,c,1,1078464,1078854,1078854,385,none,none,none,none,1079264
45,old,ending_first,compatible_first,incompatible_first,ES_yellow,first_IAT_second_block,ending,incompatible,9,none,attribute,task_switch,response_switch,Gelbe Wesen,Lila Wesen,Negativ,Positiv,Glücklich,NA,NA,positive,m,m,1,1080004,1080394,1080394,571,none,none,none,none,1080995
45,old,ending_first,compatible_first,incompatible_first,ES_yellow,first_IAT_second_block,ending,incompatible,10,none,attribute,task_repetition,response_repetition,Gelbe Wesen,Lila Wesen,Negativ,Positiv,Freude,NA,NA,positive,m,m,1,1081714,1082104,1082105,381,none,none,none,none,1082515
45,old,ending_first,compatible_first,incompatible_first,ES_yellow,first_IAT_second_block,ending,incompatible,11,none,target,task_switch,response_switch,Gelbe Wesen,Lila Wesen,Negativ,Positiv,IAT_yellow2.bmp,yellow,ending_scream,NA,c,c,1,1083224,1083614,1083615,757,none,none,none,none,1084394
45,old,ending_first,compatible_first,incompatible_first,ES_yellow,first_IAT_second_block,ending,incompatible,12,none,target,task_repetition,response_repetition,Gelbe Wesen,Lila Wesen,Negativ,Positiv,IAT_yellow3.bmp,yellow,ending_scream,NA,c,c,1,1085094,1085484,1085484,344,none,none,none,none,1085854
45,old,ending_first,compatible_first,incompatible_first,ES_yellow,first_IAT_second_block,ending,incompatible,13,none,target,task_repetition,response_switch,Gelbe Wesen,Lila Wesen,Negativ,Positiv,IAT_purple1.bmp,purple,ending_melody,NA,m,m,1,1086554,1086944,1086944,393,none,none,none,none,1087364
45,old,ending_first,compatible_first,incompatible_first,ES_yellow,first_IAT_second_block,ending,incompatible,14,none,attribute,task_switch,response_switch,Gelbe Wesen,Lila Wesen,Negativ,Positiv,Schlecht,NA,NA,negative,c,c,1,1088104,1088494,1088494,510,none,none,none,none,1089024
45,old,ending_first,compatible_first,incompatible_first,ES_yellow,first_IAT_second_block,ending,incompatible,15,none,target,task_switch,response_switch,Gelbe Wesen,Lila Wesen,Negativ,Positiv,IAT_purple2.bmp,purple,ending_melody,NA,m,m,1,1089754,1090144,1090144,685,none,none,none,none,1090854
45,old,ending_first,compatible_first,incompatible_first,ES_yellow,first_IAT_second_block,ending,incompatible,16,none,target,task_repetition,response_switch,Gelbe Wesen,Lila Wesen,Negativ,Positiv,IAT_yellow4.bmp,yellow,ending_scream,NA,c,c,1,1091554,1091944,1091944,488,none,none,none,none,1092454
45,old,ending_first,compatible_first,incompatible_first,ES_yellow,first_IAT_second_block,ending,incompatible,17,none,attribute,task_switch,response_switch,Gelbe Wesen,Lila Wesen,Negativ,Positiv,Spaß,NA,NA,positive,m,m,1,1093204,1093594,1093594,479,none,none,none,none,1094094
45,old,ending_first,compatible_first,incompatible_first,ES_yellow,first_IAT_second_block,ending,incompatible,18,none,attribute,task_repetition,response_switch,Gelbe Wesen,Lila Wesen,Negativ,Positiv,Versagen,NA,NA,negative,c,c,1,1094864,1095254,1095254,511,none,none,none,none,1095784
45,old,ending_first,compatible_first,incompatible_first,ES_yellow,first_IAT_second_block,ending,incompatible,19,none,target,task_switch,response_switch,Gelbe Wesen,Lila Wesen,Negativ,Positiv,IAT_purple2.bmp,purple,ending_melody,NA,m,m,1,1096534,1096924,1096924,622,none,none,none,none,1097574
45,old,ending_first,compatible_first,incompatible_first,ES_yellow,first_IAT_second_block,ending,incompatible,20,none,target,task_repetition,response_repetition,Gelbe Wesen,Lila Wesen,Negativ,Positiv,IAT_purple3.bmp,purple,ending_melody,NA,m,m,1,1098337,1098724,1098725,386,none,none,none,none,1099135
45,old,ending_first,compatible_first,incompatible_first,ES_yellow,first_IAT_second_block,ending,incompatible,21,none,attribute,task_switch,response_repetition,Gelbe Wesen,Lila Wesen,Negativ,Positiv,Wundervoll,NA,NA,positive,m,m,1,1099875,1100264,1100265,579,none,none,none,none,1100864
45,old,ending_first,compatible_first,incompatible_first,ES_yellow,first_IAT_second_block,ending,incompatible,22,none,target,task_switch,response_repetition,Gelbe Wesen,Lila Wesen,Negativ,Positiv,IAT_purple1.bmp,purple,ending_melody,NA,m,m,1,1101564,1101954,1101955,495,none,none,none,none,1102474
45,old,ending_first,compatible_first,incompatible_first,ES_yellow,first_IAT_second_block,ending,incompatible,23,none,attribute,task_switch,response_repetition,Gelbe Wesen,Lila Wesen,Negativ,Positiv,Frieden,NA,NA,positive,m,m,1,1103194,1103584,1103584,501,none,none,none,none,1104104
45,old,ending_first,compatible_first,incompatible_first,ES_yellow,first_IAT_second_block,ending,incompatible,24,none,target,task_switch,response_switch,Gelbe Wesen,Lila Wesen,Negativ,Positiv,IAT_yellow1.bmp,yellow,ending_scream,NA,c,c,1,1104804,1105194,1105194,510,none,none,none,none,1105724
45,old,ending_first,compatible_first,incompatible_first,ES_yellow,first_IAT_second_block,ending,incompatible,25,none,attribute,task_switch,response_repetition,Gelbe Wesen,Lila Wesen,Negativ,Positiv,Bedrohung,NA,NA,negative,c,c,1,1106454,1106844,1106844,472,none,none,none,none,1107344
45,old,ending_first,compatible_first,incompatible_first,ES_yellow,first_IAT_second_block,ending,incompatible,26,none,attribute,task_repetition,response_repetition,Gelbe Wesen,Lila Wesen,Negativ,Positiv,Trauer,NA,NA,negative,c,c,1,1108084,1108474,1108474,528,none,none,none,none,1109024
45,old,ending_first,compatible_first,incompatible_first,ES_yellow,first_IAT_second_block,ending,incompatible,27,none,target,task_switch,response_repetition,Gelbe Wesen,Lila Wesen,Negativ,Positiv,IAT_yellow2.bmp,yellow,ending_scream,NA,c,c,1,1109724,1110114,1110114,560,none,none,none,none,1110694
45,old,ending_first,compatible_first,incompatible_first,ES_yellow,first_IAT_second_block,ending,incompatible,28,none,target,task_repetition,response_switch,Gelbe Wesen,Lila Wesen,Negativ,Positiv,IAT_purple4.bmp,purple,ending_melody,NA,m,m,1,1111384,1111774,1111774,384,none,none,none,none,1112184
45,old,ending_first,compatible_first,incompatible_first,ES_yellow,first_IAT_second_block,ending,incompatible,29,none,attribute,task_switch,response_switch,Gelbe Wesen,Lila Wesen,Negativ,Positiv,Schmerz,NA,NA,negative,c,c,1,1112924,1113314,1113314,763,none,none,none,none,1114104
45,old,ending_first,compatible_first,incompatible_first,ES_yellow,first_IAT_second_block,ending,incompatible,30,none,attribute,task_repetition,response_repetition,Gelbe Wesen,Lila Wesen,Negativ,Positiv,Bedrohung,NA,NA,negative,c,c,1,1114833,1115223,1115224,463,none,none,none,none,1115714
45,old,ending_first,compatible_first,incompatible_first,ES_yellow,first_IAT_second_block,ending,incompatible,31,none,target,task_switch,response_repetition,Gelbe Wesen,Lila Wesen,Negativ,Positiv,IAT_yellow3.bmp,yellow,ending_scream,NA,c,c,1,1116424,1116814,1116815,602,none,none,none,none,1117444
45,old,ending_first,compatible_first,incompatible_first,ES_yellow,first_IAT_second_block,ending,incompatible,32,none,attribute,task_switch,response_repetition,Gelbe Wesen,Lila Wesen,Negativ,Positiv,Böse,NA,NA,negative,c,c,1,1118164,1118554,1118555,468,none,none,none,none,1119044
45,old,ending_first,compatible_first,incompatible_first,ES_yellow,first_IAT_second_block,ending,incompatible,33,none,target,task_switch,response_switch,Gelbe Wesen,Lila Wesen,Negativ,Positiv,IAT_purple3.bmp,purple,ending_melody,NA,m,m,1,1119784,1120174,1120174,616,none,none,none,none,1120814
45,old,ending_first,compatible_first,incompatible_first,ES_yellow,first_IAT_second_block,ending,incompatible,34,none,target,task_repetition,response_repetition,Gelbe Wesen,Lila Wesen,Negativ,Positiv,IAT_purple4.bmp,purple,ending_melody,NA,m,m,1,1121557,1121954,1121954,386,none,none,none,none,1122364
45,old,ending_first,compatible_first,incompatible_first,ES_yellow,first_IAT_second_block,ending,incompatible,35,none,attribute,task_switch,response_switch,Gelbe Wesen,Lila Wesen,Negativ,Positiv,Versagen,NA,NA,negative,c,c,1,1123094,1123484,1123484,602,none,none,none,none,1124114
45,old,ending_first,compatible_first,incompatible_first,ES_yellow,first_IAT_second_block,ending,incompatible,36,none,attribute,task_repetition,response_switch,Gelbe Wesen,Lila Wesen,Negativ,Positiv,Wundervoll,NA,NA,positive,m,m,1,1124834,1125224,1125224,545,none,none,none,none,1125794
45,old,ending_first,compatible_first,incompatible_first,ES_yellow,first_IAT_second_block,ending,incompatible,37,none,attribute,task_repetition,response_repetition,Gelbe Wesen,Lila Wesen,Negativ,Positiv,Liebe,NA,NA,positive,m,m,1,1126524,1126914,1126914,485,none,none,none,none,1127424
45,old,ending_first,compatible_first,incompatible_first,ES_yellow,first_IAT_second_block,ending,incompatible,38,none,attribute,task_repetition,response_switch,Gelbe Wesen,Lila Wesen,Negativ,Positiv,Schlecht,NA,NA,negative,c,c,1,1128154,1128544,1128544,898,none,none,none,none,1129464
45,old,ending_first,compatible_first,incompatible_first,ES_yellow,first_IAT_second_block,ending,incompatible,39,none,attribute,task_repetition,response_switch,Gelbe Wesen,Lila Wesen,Negativ,Positiv,Glücklich,NA,NA,positive,m,m,1,1130214,1130604,1130604,529,none,none,none,none,1131154
45,old,ending_first,compatible_first,incompatible_first,ES_yellow,first_IAT_second_block,ending,incompatible,40,none,target,task_switch,response_repetition,Gelbe Wesen,Lila Wesen,Negativ,Positiv,IAT_purple2.bmp,purple,ending_melody,NA,m,m,1,1131853,1132243,1132244,528,none,none,none,none,1132794
45,old,ending_first,compatible_first,incompatible_first,ES_yellow,first_IAT_second_block,ending,incompatible,41,none,attribute,task_switch,response_repetition,Gelbe Wesen,Lila Wesen,Negativ,Positiv,Frieden,NA,NA,positive,m,m,1,1133514,1133904,1133905,645,none,none,none,none,1134574
45,old,ending_first,compatible_first,incompatible_first,ES_yellow,first_IAT_second_block,ending,incompatible,42,none,target,task_switch,response_repetition,Gelbe Wesen,Lila Wesen,Negativ,Positiv,IAT_purple1.bmp,purple,ending_melody,NA,m,m,1,1135274,1135664,1135664,470,none,none,none,none,1136154
45,old,ending_first,compatible_first,incompatible_first,ES_yellow,first_IAT_second_block,ending,incompatible,43,none,target,task_repetition,response_switch,Gelbe Wesen,Lila Wesen,Negativ,Positiv,IAT_yellow1.bmp,yellow,ending_scream,NA,c,c,1,1136844,1137234,1137234,640,none,none,none,none,1137894
45,old,ending_first,compatible_first,incompatible_first,ES_yellow,first_IAT_second_block,ending,incompatible,44,none,attribute,task_switch,response_switch,Gelbe Wesen,Lila Wesen,Negativ,Positiv,Spaß,NA,NA,positive,m,m,1,1138624,1139014,1139014,824,none,none,none,none,1139864
45,old,ending_first,compatible_first,incompatible_first,ES_yellow,first_IAT_second_block,ending,incompatible,45,none,attribute,task_repetition,response_repetition,Gelbe Wesen,Lila Wesen,Negativ,Positiv,Freude,NA,NA,positive,m,m,1,1140594,1140984,1140984,492,none,none,none,none,1141504
45,old,ending_first,compatible_first,incompatible_first,ES_yellow,first_IAT_second_block,ending,incompatible,46,none,target,task_switch,response_switch,Gelbe Wesen,Lila Wesen,Negativ,Positiv,IAT_yellow4.bmp,yellow,ending_scream,NA,c,c,1,1142254,1142644,1142644,1171,none,none,none,none,1143844
45,old,ending_first,compatible_first,incompatible_first,ES_yellow,first_IAT_second_block,ending,incompatible,47,none,attribute,task_switch,response_repetition,Gelbe Wesen,Lila Wesen,Negativ,Positiv,Trauer,NA,NA,negative,c,c,1,1144657,1145054,1145054,566,none,none,none,none,1145644
45,old,ending_first,compatible_first,incompatible_first,ES_yellow,first_IAT_second_block,ending,incompatible,48,none,attribute,task_repetition,response_repetition,Gelbe Wesen,Lila Wesen,Negativ,Positiv,Schmerz,NA,NA,negative,c,c,1,1146384,1146774,1146774,757,none,none,none,none,1147554
