date	time	build	subject	expressions.associated	expressions.LRpleas_acq	expressions.SameOppo	expressions.condition_Lpleas	expressions.ABmasked	expressions.conditionCS_A	expressions.condition_1pleas	trialcode	blockcode	blocknum	trialnum	windowcenter	inwindow	pretrialpause	posttrialpause	trialduration	trialtimeout	latency	response	expressions.correctedscore	correct	values.vis_performance	values.vis_rating_sum	values.vis_rating_mean	stimulusnumber1	stimulusitem1	stimulusonset1	stimulusnumber2	stimulusitem2	stimulusonset2	stimulusnumber3	stimulusitem3	stimulusonset3	stimulusnumber4	stimulusitem4	stimulusonset4	stimulusnumber5	stimulusitem5	stimulusonset5	stimulusnumber6	stimulusitem6	stimulusonset6	stimulusnumber7	stimulusitem7	stimulusonset7	stimulusnumber8	stimulusitem8	stimulusonset8	stimulusnumber9	stimulusitem9	stimulusonset9	stimulusnumber10	stimulusitem10	stimulusonset10	stimulusnumber11	stimulusitem11	stimulusonset11	stimulusnumber12	stimulusitem12	stimulusonset12	stimulusnumber13	stimulusitem13	stimulusonset13	stimulusnumber14	stimulusitem14	stimulusonset14	stimulusnumber15	stimulusitem15	stimulusonset15	stimulusnumber16	stimulusitem16	stimulusonset16	stimulusnumber17	stimulusitem17	stimulusonset17	stimulusnumber18	stimulusitem18	stimulusonset18
071318	13:53:58	5.0.10.0	167	notassociated	Rpleas_acq	Oppo	Rpleas	Bmasked	CS_B	2pleas	acq_unple_masked	acq1_masked	1	1	0	0	300	300	0	0	2792	46	0	1	0	0	0	1	blank2r.bmp	0	1	+	0	6	C2r.bmp	492	1	blank2r.bmp	786	1	BXCP	786	1	blank2r.bmp	866	5	pest	866	0	0	0	0	0	0	0	0	0	0	0	0	0	0	0	0	0	0	0	0	0	0	0	0	0	0	0	0	0	0	0	0	0
071318	13:53:58	5.0.10.0	167	notassociated	Rpleas_acq	Oppo	Rpleas	Bmasked	CS_B	2pleas	acq_unple_masked	acq1_masked	1	2	0	0	300	300	0	0	674	46	0	1	0	0	0	1	blank2r.bmp	0	1	+	0	2	B2r.bmp	492	1	blank2r.bmp	786	1	BXCP	786	1	blank2r.bmp	866	4	leiche	866	0	0	0	0	0	0	0	0	0	0	0	0	0	0	0	0	0	0	0	0	0	0	0	0	0	0	0	0	0	0	0	0	0
071318	13:53:58	5.0.10.0	167	notassociated	Rpleas_acq	Oppo	Rpleas	Bmasked	CS_B	2pleas	acq_pleas_masked	acq1_masked	1	3	0	0	300	300	0	0	868	50	0	1	0	0	0	1	blank2r.bmp	0	1	+	0	5	C1r.bmp	492	1	blank2r.bmp	786	1	GFVZ	786	1	blank2r.bmp	866	4	lippe	866	0	0	0	0	0	0	0	0	0	0	0	0	0	0	0	0	0	0	0	0	0	0	0	0	0	0	0	0	0	0	0	0	0
071318	13:53:58	5.0.10.0	167	notassociated	Rpleas_acq	Oppo	Rpleas	Bmasked	CS_B	2pleas	acq_unple_masked	acq1_masked	1	4	0	0	300	300	0	0	937	50	0	0	0	0	0	1	blank2r.bmp	0	1	+	0	8	C4r.bmp	492	1	blank2r.bmp	786	1	BXCP	786	1	blank2r.bmp	866	6	toxisch	866	1	FEHLER	1839	0	0	0	0	0	0	0	0	0	0	0	0	0	0	0	0	0	0	0	0	0	0	0	0	0	0	0	0	0	0
071318	13:53:58	5.0.10.0	167	notassociated	Rpleas_acq	Oppo	Rpleas	Bmasked	CS_B	2pleas	acq_pleas_masked	acq1_masked	1	5	0	0	300	300	0	0	851	50	0	1	0	0	0	1	blank2r.bmp	0	1	+	0	7	C3r.bmp	492	1	blank2r.bmp	786	1	GFVZ	786	1	blank2r.bmp	866	5	knospe	866	0	0	0	0	0	0	0	0	0	0	0	0	0	0	0	0	0	0	0	0	0	0	0	0	0	0	0	0	0	0	0	0	0
071318	13:53:58	5.0.10.0	167	notassociated	Rpleas_acq	Oppo	Rpleas	Bmasked	CS_B	2pleas	acq_pleas_masked	acq1_masked	1	6	0	0	300	300	0	0	553	50	0	1	0	0	0	1	blank2r.bmp	0	1	+	0	1	B1r.bmp	492	1	blank2r.bmp	786	1	GFVZ	786	1	blank2r.bmp	866	6	leben	866	0	0	0	0	0	0	0	0	0	0	0	0	0	0	0	0	0	0	0	0	0	0	0	0	0	0	0	0	0	0	0	0	0
071318	13:53:58	5.0.10.0	167	notassociated	Rpleas_acq	Oppo	Rpleas	Bmasked	CS_B	2pleas	acq_pleas_masked	acq1_masked	1	7	0	0	300	300	0	0	780	50	0	1	0	0	0	1	blank2r.bmp	0	1	+	0	4	B4r.bmp	492	1	blank2r.bmp	786	1	GFVZ	786	1	blank2r.bmp	866	3	bett	866	0	0	0	0	0	0	0	0	0	0	0	0	0	0	0	0	0	0	0	0	0	0	0	0	0	0	0	0	0	0	0	0	0
071318	13:53:58	5.0.10.0	167	notassociated	Rpleas_acq	Oppo	Rpleas	Bmasked	CS_B	2pleas	acq_unple_masked	acq1_masked	1	8	0	0	300	300	0	0	681	50	0	0	0	0	0	1	blank2r.bmp	0	1	+	0	3	B3r.bmp	492	1	blank2r.bmp	786	1	BXCP	786	1	blank2r.bmp	866	1	pleite	866	1	FEHLER	1586	0	0	0	0	0	0	0	0	0	0	0	0	0	0	0	0	0	0	0	0	0	0	0	0	0	0	0	0	0	0
071318	13:53:58	5.0.10.0	167	notassociated	Rpleas_acq	Oppo	Rpleas	Bmasked	CS_B	2pleas	acq_pleas_masked	acq1_masked	1	9	0	0	300	300	0	0	567	50	0	1	0	0	0	1	blank2r.bmp	0	1	+	0	7	C3r.bmp	492	1	blank2r.bmp	786	1	GFVZ	786	1	blank2r.bmp	866	1	sonne	866	0	0	0	0	0	0	0	0	0	0	0	0	0	0	0	0	0	0	0	0	0	0	0	0	0	0	0	0	0	0	0	0	0
071318	13:53:58	5.0.10.0	167	notassociated	Rpleas_acq	Oppo	Rpleas	Bmasked	CS_B	2pleas	acq_pleas_masked	acq1_masked	1	10	0	0	300	300	0	0	458	50	0	1	0	0	0	1	blank2r.bmp	0	1	+	0	3	B3r.bmp	492	1	blank2r.bmp	786	1	GFVZ	786	1	blank2r.bmp	866	2	liebe	866	0	0	0	0	0	0	0	0	0	0	0	0	0	0	0	0	0	0	0	0	0	0	0	0	0	0	0	0	0	0	0	0	0
071318	13:53:58	5.0.10.0	167	notassociated	Rpleas_acq	Oppo	Rpleas	Bmasked	CS_B	2pleas	acq_unple_masked	acq1_masked	1	11	0	0	300	300	0	0	635	50	0	0	0	0	0	1	blank2r.bmp	0	1	+	0	5	C1r.bmp	492	1	blank2r.bmp	786	1	BXCP	786	1	blank2r.bmp	866	3	pistole	866	1	FEHLER	1532	0	0	0	0	0	0	0	0	0	0	0	0	0	0	0	0	0	0	0	0	0	0	0	0	0	0	0	0	0	0
071318	13:53:58	5.0.10.0	167	notassociated	Rpleas_acq	Oppo	Rpleas	Bmasked	CS_B	2pleas	acq_unple_masked	acq1_masked	1	12	0	0	300	300	0	0	452	46	0	1	0	0	0	1	blank2r.bmp	0	1	+	0	2	B2r.bmp	492	1	blank2r.bmp	786	1	BXCP	786	1	blank2r.bmp	866	2	übel	866	0	0	0	0	0	0	0	0	0	0	0	0	0	0	0	0	0	0	0	0	0	0	0	0	0	0	0	0	0	0	0	0	0
071318	13:53:58	5.0.10.0	167	notassociated	Rpleas_acq	Oppo	Rpleas	Bmasked	CS_B	2pleas	acq_pleas_masked	acq1_masked	1	13	0	0	300	300	0	0	543	50	0	1	0	0	0	1	blank2r.bmp	0	1	+	0	6	C2r.bmp	492	1	blank2r.bmp	786	1	GFVZ	786	1	blank2r.bmp	866	2	liebe	866	0	0	0	0	0	0	0	0	0	0	0	0	0	0	0	0	0	0	0	0	0	0	0	0	0	0	0	0	0	0	0	0	0
071318	13:53:58	5.0.10.0	167	notassociated	Rpleas_acq	Oppo	Rpleas	Bmasked	CS_B	2pleas	acq_unple_masked	acq1_masked	1	14	0	0	300	300	0	0	777	46	0	1	0	0	0	1	blank2r.bmp	0	1	+	0	8	C4r.bmp	492	1	blank2r.bmp	786	1	BXCP	786	1	blank2r.bmp	866	6	toxisch	866	0	0	0	0	0	0	0	0	0	0	0	0	0	0	0	0	0	0	0	0	0	0	0	0	0	0	0	0	0	0	0	0	0
071318	13:53:58	5.0.10.0	167	notassociated	Rpleas_acq	Oppo	Rpleas	Bmasked	CS_B	2pleas	acq_pleas_masked	acq1_masked	1	15	0	0	300	300	0	0	537	50	0	1	0	0	0	1	blank2r.bmp	0	1	+	0	4	B4r.bmp	492	1	blank2r.bmp	786	1	GFVZ	786	1	blank2r.bmp	866	6	leben	866	0	0	0	0	0	0	0	0	0	0	0	0	0	0	0	0	0	0	0	0	0	0	0	0	0	0	0	0	0	0	0	0	0
071318	13:53:58	5.0.10.0	167	notassociated	Rpleas_acq	Oppo	Rpleas	Bmasked	CS_B	2pleas	acq_unple_masked	acq1_masked	1	16	0	0	300	300	0	0	1041	46	0	1	0	0	0	1	blank2r.bmp	0	1	+	0	1	B1r.bmp	492	1	blank2r.bmp	786	1	BXCP	786	1	blank2r.bmp	866	5	pest	866	0	0	0	0	0	0	0	0	0	0	0	0	0	0	0	0	0	0	0	0	0	0	0	0	0	0	0	0	0	0	0	0	0
071318	13:53:58	5.0.10.0	167	notassociated	Rpleas_acq	Oppo	Rpleas	Bmasked	CS_B	2pleas	acq_unple_masked	acq1_masked	1	17	0	0	300	300	0	0	591	50	0	0	0	0	0	1	blank2r.bmp	0	1	+	0	4	B4r.bmp	492	1	blank2r.bmp	786	1	BXCP	786	1	blank2r.bmp	866	4	leiche	866	1	FEHLER	1492	0	0	0	0	0	0	0	0	0	0	0	0	0	0	0	0	0	0	0	0	0	0	0	0	0	0	0	0	0	0
071318	13:53:58	5.0.10.0	167	notassociated	Rpleas_acq	Oppo	Rpleas	Bmasked	CS_B	2pleas	acq_unple_masked	acq1_masked	1	18	0	0	300	300	0	0	424	46	0	1	0	0	0	1	blank2r.bmp	0	1	+	0	7	C3r.bmp	492	1	blank2r.bmp	786	1	BXCP	786	1	blank2r.bmp	866	3	pistole	866	0	0	0	0	0	0	0	0	0	0	0	0	0	0	0	0	0	0	0	0	0	0	0	0	0	0	0	0	0	0	0	0	0
071318	13:53:58	5.0.10.0	167	notassociated	Rpleas_acq	Oppo	Rpleas	Bmasked	CS_B	2pleas	acq_pleas_masked	acq1_masked	1	19	0	0	300	300	0	0	456	46	0	0	0	0	0	1	blank2r.bmp	0	1	+	0	6	C2r.bmp	492	1	blank2r.bmp	786	1	GFVZ	786	1	blank2r.bmp	866	1	sonne	866	1	FEHLER	1359	0	0	0	0	0	0	0	0	0	0	0	0	0	0	0	0	0	0	0	0	0	0	0	0	0	0	0	0	0	0
071318	13:53:58	5.0.10.0	167	notassociated	Rpleas_acq	Oppo	Rpleas	Bmasked	CS_B	2pleas	acq_unple_masked	acq1_masked	1	20	0	0	300	300	0	0	774	46	0	1	0	0	0	1	blank2r.bmp	0	1	+	0	1	B1r.bmp	492	1	blank2r.bmp	786	1	BXCP	786	1	blank2r.bmp	866	1	pleite	866	0	0	0	0	0	0	0	0	0	0	0	0	0	0	0	0	0	0	0	0	0	0	0	0	0	0	0	0	0	0	0	0	0
071318	13:53:58	5.0.10.0	167	notassociated	Rpleas_acq	Oppo	Rpleas	Bmasked	CS_B	2pleas	acq_unple_masked	acq1_masked	1	21	0	0	300	300	0	0	874	46	0	1	0	0	0	1	blank2r.bmp	0	1	+	0	5	C1r.bmp	492	1	blank2r.bmp	786	1	BXCP	786	1	blank2r.bmp	866	2	übel	866	0	0	0	0	0	0	0	0	0	0	0	0	0	0	0	0	0	0	0	0	0	0	0	0	0	0	0	0	0	0	0	0	0
071318	13:53:58	5.0.10.0	167	notassociated	Rpleas_acq	Oppo	Rpleas	Bmasked	CS_B	2pleas	acq_pleas_masked	acq1_masked	1	22	0	0	300	300	0	0	523	50	0	1	0	0	0	1	blank2r.bmp	0	1	+	0	3	B3r.bmp	492	1	blank2r.bmp	786	1	GFVZ	786	1	blank2r.bmp	866	4	lippe	866	0	0	0	0	0	0	0	0	0	0	0	0	0	0	0	0	0	0	0	0	0	0	0	0	0	0	0	0	0	0	0	0	0
071318	13:53:58	5.0.10.0	167	notassociated	Rpleas_acq	Oppo	Rpleas	Bmasked	CS_B	2pleas	acq_pleas_masked	acq1_masked	1	23	0	0	300	300	0	0	448	50	0	1	0	0	0	1	blank2r.bmp	0	1	+	0	2	B2r.bmp	492	1	blank2r.bmp	786	1	GFVZ	786	1	blank2r.bmp	866	3	bett	866	0	0	0	0	0	0	0	0	0	0	0	0	0	0	0	0	0	0	0	0	0	0	0	0	0	0	0	0	0	0	0	0	0
071318	13:53:58	5.0.10.0	167	notassociated	Rpleas_acq	Oppo	Rpleas	Bmasked	CS_B	2pleas	acq_pleas_masked	acq1_masked	1	24	0	0	300	300	0	0	451	50	0	1	0	0	0	1	blank2r.bmp	0	1	+	0	8	C4r.bmp	492	1	blank2r.bmp	786	1	GFVZ	786	1	blank2r.bmp	866	5	knospe	866	0	0	0	0	0	0	0	0	0	0	0	0	0	0	0	0	0	0	0	0	0	0	0	0	0	0	0	0	0	0	0	0	0
071318	13:53:58	5.0.10.0	167	notassociated	Rpleas_acq	Oppo	Rpleas	Bmasked	CS_B	2pleas	acq_pleas_masked	acq2_masked	2	1	480	0	300	300	0	0	590	50	0	1	0	0	0	1	blank2r.bmp	0	1	+	0	3	B3r.bmp	492	1	blank2r.bmp	786	1	GFVZ	786	1	blank2r.bmp	866	6	leben	866	1	!	1319	1	!	-1	0	0	0	0	0	0	0	0	0	0	0	0	0	0	0	0	0	0	0	0	0	0	0	0	0	0	0
071318	13:53:58	5.0.10.0	167	notassociated	Rpleas_acq	Oppo	Rpleas	Bmasked	CS_B	2pleas	acq_unple_masked	acq2_masked	2	2	480	0	300	300	0	0	2557	46	0	1	0	0	0	1	blank2r.bmp	0	1	+	0	1	B1r.bmp	492	1	blank2r.bmp	786	1	BXCP	786	1	blank2r.bmp	866	1	pleite	866	1	!	1319	1	!	-1	0	0	0	0	0	0	0	0	0	0	0	0	0	0	0	0	0	0	0	0	0	0	0	0	0	0	0
071318	13:53:58	5.0.10.0	167	notassociated	Rpleas_acq	Oppo	Rpleas	Bmasked	CS_B	2pleas	acq_pleas_masked	acq2_masked	2	3	480	0	300	300	0	0	357	50	0	1	0	0	0	1	blank2r.bmp	0	1	+	0	4	B4r.bmp	492	1	blank2r.bmp	786	1	GFVZ	786	1	blank2r.bmp	866	2	liebe	866	1	!	-1	1	!	-1	0	0	0	0	0	0	0	0	0	0	0	0	0	0	0	0	0	0	0	0	0	0	0	0	0	0	0
071318	13:53:58	5.0.10.0	167	notassociated	Rpleas_acq	Oppo	Rpleas	Bmasked	CS_B	2pleas	acq_unple_masked	acq2_masked	2	4	480	0	300	300	0	0	5835	46	0	1	0	0	0	1	blank2r.bmp	0	1	+	0	5	C1r.bmp	492	1	blank2r.bmp	786	1	BXCP	786	1	blank2r.bmp	866	2	übel	866	1	!	1319	1	!	-1	0	0	0	0	0	0	0	0	0	0	0	0	0	0	0	0	0	0	0	0	0	0	0	0	0	0	0
071318	13:53:58	5.0.10.0	167	notassociated	Rpleas_acq	Oppo	Rpleas	Bmasked	CS_B	2pleas	acq_unple_masked	acq2_masked	2	5	480	0	300	300	0	0	678	46	0	1	0	0	0	1	blank2r.bmp	0	1	+	0	6	C2r.bmp	492	1	blank2r.bmp	786	1	BXCP	786	1	blank2r.bmp	866	6	toxisch	866	1	!	1319	1	!	-1	0	0	0	0	0	0	0	0	0	0	0	0	0	0	0	0	0	0	0	0	0	0	0	0	0	0	0
071318	13:53:58	5.0.10.0	167	notassociated	Rpleas_acq	Oppo	Rpleas	Bmasked	CS_B	2pleas	acq_pleas_masked	acq2_masked	2	6	480	0	300	300	0	0	596	50	0	1	0	0	0	1	blank2r.bmp	0	1	+	0	7	C3r.bmp	492	1	blank2r.bmp	786	1	GFVZ	786	1	blank2r.bmp	866	5	knospe	866	1	!	1319	1	!	-1	0	0	0	0	0	0	0	0	0	0	0	0	0	0	0	0	0	0	0	0	0	0	0	0	0	0	0
071318	13:53:58	5.0.10.0	167	notassociated	Rpleas_acq	Oppo	Rpleas	Bmasked	CS_B	2pleas	acq_unple_masked	acq2_masked	2	7	480	1	300	300	0	0	494	46	0	1	0	0	0	1	blank2r.bmp	0	1	+	0	2	B2r.bmp	492	1	blank2r.bmp	786	1	BXCP	786	1	blank2r.bmp	866	4	leiche	866	1	!	1319	1	!	1399	0	0	0	0	0	0	0	0	0	0	0	0	0	0	0	0	0	0	0	0	0	0	0	0	0	0	0
071318	13:53:58	5.0.10.0	167	notassociated	Rpleas_acq	Oppo	Rpleas	Bmasked	CS_B	2pleas	acq_pleas_masked	acq2_masked	2	8	480	1	300	300	0	0	470	46	0	0	0	0	0	1	blank2r.bmp	0	1	+	0	8	C4r.bmp	492	1	blank2r.bmp	786	1	GFVZ	786	1	blank2r.bmp	866	3	bett	866	1	FEHLER	1692	1	!	1319	1	!	1372	0	0	0	0	0	0	0	0	0	0	0	0	0	0	0	0	0	0	0	0	0	0	0	0
071318	13:53:58	5.0.10.0	167	notassociated	Rpleas_acq	Oppo	Rpleas	Bmasked	CS_B	2pleas	acq_pleas_masked	acq2_masked	2	9	480	0	300	300	0	0	633	50	0	1	0	0	0	1	blank2r.bmp	0	1	+	0	2	B2r.bmp	492	1	blank2r.bmp	786	1	GFVZ	786	1	blank2r.bmp	866	1	sonne	866	1	!	1319	1	!	-1	0	0	0	0	0	0	0	0	0	0	0	0	0	0	0	0	0	0	0	0	0	0	0	0	0	0	0
071318	13:53:58	5.0.10.0	167	notassociated	Rpleas_acq	Oppo	Rpleas	Bmasked	CS_B	2pleas	acq_unple_masked	acq2_masked	2	10	480	1	300	300	0	0	449	46	0	1	0	0	0	1	blank2r.bmp	0	1	+	0	7	C3r.bmp	492	1	blank2r.bmp	786	1	BXCP	786	1	blank2r.bmp	866	5	pest	866	1	!	1319	1	!	1346	0	0	0	0	0	0	0	0	0	0	0	0	0	0	0	0	0	0	0	0	0	0	0	0	0	0	0
071318	13:53:58	5.0.10.0	167	notassociated	Rpleas_acq	Oppo	Rpleas	Bmasked	CS_B	2pleas	acq_pleas_masked	acq2_masked	2	11	480	0	300	300	0	0	569	50	0	1	0	0	0	1	blank2r.bmp	0	1	+	0	4	B4r.bmp	492	1	blank2r.bmp	786	1	GFVZ	786	1	blank2r.bmp	866	4	lippe	866	1	!	1319	1	!	-1	0	0	0	0	0	0	0	0	0	0	0	0	0	0	0	0	0	0	0	0	0	0	0	0	0	0	0
071318	13:53:58	5.0.10.0	167	notassociated	Rpleas_acq	Oppo	Rpleas	Bmasked	CS_B	2pleas	acq_unple_masked	acq2_masked	2	12	480	0	300	300	0	0	599	46	0	1	0	0	0	1	blank2r.bmp	0	1	+	0	6	C2r.bmp	492	1	blank2r.bmp	786	1	BXCP	786	1	blank2r.bmp	866	3	pistole	866	1	!	1319	1	!	-1	0	0	0	0	0	0	0	0	0	0	0	0	0	0	0	0	0	0	0	0	0	0	0	0	0	0	0
071318	13:53:58	5.0.10.0	167	notassociated	Rpleas_acq	Oppo	Rpleas	Bmasked	CS_B	2pleas	acq_pleas_masked	acq2_masked	2	13	480	1	300	300	0	0	541	50	0	1	0	0	0	1	blank2r.bmp	0	1	+	0	8	C4r.bmp	492	1	blank2r.bmp	786	1	GFVZ	786	1	blank2r.bmp	866	5	knospe	866	1	!	1319	1	!	1439	0	0	0	0	0	0	0	0	0	0	0	0	0	0	0	0	0	0	0	0	0	0	0	0	0	0	0
071318	13:53:58	5.0.10.0	167	notassociated	Rpleas_acq	Oppo	Rpleas	Bmasked	CS_B	2pleas	acq_pleas_masked	acq2_masked	2	14	480	0	300	300	0	0	339	50	0	1	0	0	0	1	blank2r.bmp	0	1	+	0	5	C1r.bmp	492	1	blank2r.bmp	786	1	GFVZ	786	1	blank2r.bmp	866	1	sonne	866	1	!	-1	1	!	-1	0	0	0	0	0	0	0	0	0	0	0	0	0	0	0	0	0	0	0	0	0	0	0	0	0	0	0
071318	13:53:58	5.0.10.0	167	notassociated	Rpleas_acq	Oppo	Rpleas	Bmasked	CS_B	2pleas	acq_unple_masked	acq2_masked	2	15	480	0	300	300	0	0	736	46	0	1	0	0	0	1	blank2r.bmp	0	1	+	0	3	B3r.bmp	492	1	blank2r.bmp	786	1	BXCP	786	1	blank2r.bmp	866	4	leiche	866	1	!	1319	1	!	-1	0	0	0	0	0	0	0	0	0	0	0	0	0	0	0	0	0	0	0	0	0	0	0	0	0	0	0
071318	13:53:58	5.0.10.0	167	notassociated	Rpleas_acq	Oppo	Rpleas	Bmasked	CS_B	2pleas	acq_unple_masked	acq2_masked	2	16	480	1	300	300	0	0	429	46	0	1	0	0	0	1	blank2r.bmp	0	1	+	0	1	B1r.bmp	492	1	blank2r.bmp	786	1	BXCP	786	1	blank2r.bmp	866	2	übel	866	1	!	1319	1	!	1332	0	0	0	0	0	0	0	0	0	0	0	0	0	0	0	0	0	0	0	0	0	0	0	0	0	0	0
071318	13:53:58	5.0.10.0	167	notassociated	Rpleas_acq	Oppo	Rpleas	Bmasked	CS_B	2pleas	acq_unple_masked	acq2_masked	2	17	480	0	300	300	0	0	409	46	0	1	0	0	0	1	blank2r.bmp	0	1	+	0	8	C4r.bmp	492	1	blank2r.bmp	786	1	BXCP	786	1	blank2r.bmp	866	3	pistole	866	1	!	-1	1	!	-1	0	0	0	0	0	0	0	0	0	0	0	0	0	0	0	0	0	0	0	0	0	0	0	0	0	0	0
071318	13:53:58	5.0.10.0	167	notassociated	Rpleas_acq	Oppo	Rpleas	Bmasked	CS_B	2pleas	acq_pleas_masked	acq2_masked	2	18	480	0	300	300	0	0	700	50	0	1	0	0	0	1	blank2r.bmp	0	1	+	0	1	B1r.bmp	492	1	blank2r.bmp	786	1	GFVZ	786	1	blank2r.bmp	866	2	liebe	866	1	!	1319	1	!	-1	0	0	0	0	0	0	0	0	0	0	0	0	0	0	0	0	0	0	0	0	0	0	0	0	0	0	0
071318	13:53:58	5.0.10.0	167	notassociated	Rpleas_acq	Oppo	Rpleas	Bmasked	CS_B	2pleas	acq_pleas_masked	acq2_masked	2	19	480	0	300	300	0	0	589	50	0	1	0	0	0	1	blank2r.bmp	0	1	+	0	6	C2r.bmp	492	1	blank2r.bmp	786	1	GFVZ	786	1	blank2r.bmp	866	3	bett	866	1	!	1319	1	!	-1	0	0	0	0	0	0	0	0	0	0	0	0	0	0	0	0	0	0	0	0	0	0	0	0	0	0	0
071318	13:53:58	5.0.10.0	167	notassociated	Rpleas_acq	Oppo	Rpleas	Bmasked	CS_B	2pleas	acq_pleas_masked	acq2_masked	2	20	480	1	300	300	0	0	533	50	0	1	0	0	0	1	blank2r.bmp	0	1	+	0	5	C1r.bmp	492	1	blank2r.bmp	786	1	GFVZ	786	1	blank2r.bmp	866	4	lippe	866	1	!	1319	1	!	1439	0	0	0	0	0	0	0	0	0	0	0	0	0	0	0	0	0	0	0	0	0	0	0	0	0	0	0
071318	13:53:58	5.0.10.0	167	notassociated	Rpleas_acq	Oppo	Rpleas	Bmasked	CS_B	2pleas	acq_pleas_masked	acq2_masked	2	21	480	0	300	300	0	0	587	50	0	1	0	0	0	1	blank2r.bmp	0	1	+	0	7	C3r.bmp	492	1	blank2r.bmp	786	1	GFVZ	786	1	blank2r.bmp	866	6	leben	866	1	!	1319	1	!	-1	0	0	0	0	0	0	0	0	0	0	0	0	0	0	0	0	0	0	0	0	0	0	0	0	0	0	0
071318	13:53:58	5.0.10.0	167	notassociated	Rpleas_acq	Oppo	Rpleas	Bmasked	CS_B	2pleas	acq_unple_masked	acq2_masked	2	22	480	0	300	300	0	0	561	46	0	1	0	0	0	1	blank2r.bmp	0	1	+	0	3	B3r.bmp	492	1	blank2r.bmp	786	1	BXCP	786	1	blank2r.bmp	866	6	toxisch	866	1	!	1319	1	!	-1	0	0	0	0	0	0	0	0	0	0	0	0	0	0	0	0	0	0	0	0	0	0	0	0	0	0	0
071318	13:53:58	5.0.10.0	167	notassociated	Rpleas_acq	Oppo	Rpleas	Bmasked	CS_B	2pleas	acq_unple_masked	acq2_masked	2	23	480	0	300	300	0	0	573	46	0	1	0	0	0	1	blank2r.bmp	0	1	+	0	2	B2r.bmp	492	1	blank2r.bmp	786	1	BXCP	786	1	blank2r.bmp	866	5	pest	866	1	!	1319	1	!	-1	0	0	0	0	0	0	0	0	0	0	0	0	0	0	0	0	0	0	0	0	0	0	0	0	0	0	0
071318	13:53:58	5.0.10.0	167	notassociated	Rpleas_acq	Oppo	Rpleas	Bmasked	CS_B	2pleas	acq_unple_masked	acq2_masked	2	24	480	0	300	300	0	0	374	46	0	1	0	0	0	1	blank2r.bmp	0	1	+	0	4	B4r.bmp	492	1	blank2r.bmp	786	1	BXCP	786	1	blank2r.bmp	866	1	pleite	866	1	!	-1	1	!	-1	0	0	0	0	0	0	0	0	0	0	0	0	0	0	0	0	0	0	0	0	0	0	0	0	0	0	0
071318	13:53:58	5.0.10.0	167	notassociated	Rpleas_acq	Oppo	Rpleas	Bmasked	CS_B	2pleas	acq_unple_masked	acq3_masked	3	1	453	0	300	300	0	0	809	46	0	1	0	0	0	1	blank2r.bmp	0	1	+	0	8	C4r.bmp	492	1	blank2r.bmp	786	1	BXCP	786	1	blank2r.bmp	866	4	leiche	866	1	!	1292	1	!	-1	0	0	0	0	0	0	0	0	0	0	0	0	0	0	0	0	0	0	0	0	0	0	0	0	0	0	0
071318	13:53:58	5.0.10.0	167	notassociated	Rpleas_acq	Oppo	Rpleas	Bmasked	CS_B	2pleas	acq_pleas_masked	acq3_masked	3	2	453	0	300	300	0	0	617	50	0	1	0	0	0	1	blank2r.bmp	0	1	+	0	1	B1r.bmp	492	1	blank2r.bmp	786	1	GFVZ	786	1	blank2r.bmp	866	2	liebe	866	1	!	1292	1	!	-1	0	0	0	0	0	0	0	0	0	0	0	0	0	0	0	0	0	0	0	0	0	0	0	0	0	0	0
071318	13:53:58	5.0.10.0	167	notassociated	Rpleas_acq	Oppo	Rpleas	Bmasked	CS_B	2pleas	acq_unple_masked	acq3_masked	3	3	453	0	300	300	0	0	376	50	0	0	0	0	0	1	blank2r.bmp	0	1	+	0	5	C1r.bmp	492	1	blank2r.bmp	786	1	BXCP	786	1	blank2r.bmp	866	3	pistole	866	1	FEHLER	1586	1	!	-1	1	!	-1	0	0	0	0	0	0	0	0	0	0	0	0	0	0	0	0	0	0	0	0	0	0	0	0
071318	13:53:58	5.0.10.0	167	notassociated	Rpleas_acq	Oppo	Rpleas	Bmasked	CS_B	2pleas	acq_pleas_masked	acq3_masked	3	4	453	0	300	300	0	0	654	50	0	1	0	0	0	1	blank2r.bmp	0	1	+	0	2	B2r.bmp	492	1	blank2r.bmp	786	1	GFVZ	786	1	blank2r.bmp	866	1	sonne	866	1	!	1292	1	!	-1	0	0	0	0	0	0	0	0	0	0	0	0	0	0	0	0	0	0	0	0	0	0	0	0	0	0	0
071318	13:53:58	5.0.10.0	167	notassociated	Rpleas_acq	Oppo	Rpleas	Bmasked	CS_B	2pleas	acq_unple_masked	acq3_masked	3	5	453	0	300	300	0	0	544	46	0	1	0	0	0	1	blank2r.bmp	0	1	+	0	4	B4r.bmp	492	1	blank2r.bmp	786	1	BXCP	786	1	blank2r.bmp	866	1	pleite	866	1	!	1292	1	!	-1	0	0	0	0	0	0	0	0	0	0	0	0	0	0	0	0	0	0	0	0	0	0	0	0	0	0	0
071318	13:53:58	5.0.10.0	167	notassociated	Rpleas_acq	Oppo	Rpleas	Bmasked	CS_B	2pleas	acq_pleas_masked	acq3_masked	3	6	453	0	300	300	0	0	284	50	0	1	0	0	0	1	blank2r.bmp	0	1	+	0	6	C2r.bmp	492	1	blank2r.bmp	786	1	GFVZ	786	1	blank2r.bmp	866	6	leben	866	1	!	-1	1	!	-1	0	0	0	0	0	0	0	0	0	0	0	0	0	0	0	0	0	0	0	0	0	0	0	0	0	0	0
071318	13:53:58	5.0.10.0	167	notassociated	Rpleas_acq	Oppo	Rpleas	Bmasked	CS_B	2pleas	acq_unple_masked	acq3_masked	3	7	453	0	300	300	0	0	573	46	0	1	0	0	0	1	blank2r.bmp	0	1	+	0	7	C3r.bmp	492	1	blank2r.bmp	786	1	BXCP	786	1	blank2r.bmp	866	2	übel	866	1	!	1292	1	!	-1	0	0	0	0	0	0	0	0	0	0	0	0	0	0	0	0	0	0	0	0	0	0	0	0	0	0	0
071318	13:53:58	5.0.10.0	167	notassociated	Rpleas_acq	Oppo	Rpleas	Bmasked	CS_B	2pleas	acq_unple_masked	acq3_masked	3	8	453	1	300	300	0	0	501	46	0	1	0	0	0	1	blank2r.bmp	0	1	+	0	3	B3r.bmp	492	1	blank2r.bmp	786	1	BXCP	786	1	blank2r.bmp	866	6	toxisch	866	1	!	1292	1	!	1399	0	0	0	0	0	0	0	0	0	0	0	0	0	0	0	0	0	0	0	0	0	0	0	0	0	0	0
071318	13:53:58	5.0.10.0	167	notassociated	Rpleas_acq	Oppo	Rpleas	Bmasked	CS_B	2pleas	acq_pleas_masked	acq3_masked	3	9	453	0	300	300	0	0	383	46	0	0	0	0	0	1	blank2r.bmp	0	1	+	0	8	C4r.bmp	492	1	blank2r.bmp	786	1	GFVZ	786	1	blank2r.bmp	866	5	knospe	866	1	FEHLER	1586	1	!	-1	1	!	-1	0	0	0	0	0	0	0	0	0	0	0	0	0	0	0	0	0	0	0	0	0	0	0	0
071318	13:53:58	5.0.10.0	167	notassociated	Rpleas_acq	Oppo	Rpleas	Bmasked	CS_B	2pleas	acq_pleas_masked	acq3_masked	3	10	453	1	300	300	0	0	399	50	0	1	0	0	0	1	blank2r.bmp	0	1	+	0	2	B2r.bmp	492	1	blank2r.bmp	786	1	GFVZ	786	1	blank2r.bmp	866	3	bett	866	1	!	1292	1	!	1306	0	0	0	0	0	0	0	0	0	0	0	0	0	0	0	0	0	0	0	0	0	0	0	0	0	0	0
071318	13:53:58	5.0.10.0	167	notassociated	Rpleas_acq	Oppo	Rpleas	Bmasked	CS_B	2pleas	acq_unple_masked	acq3_masked	3	11	453	0	300	300	0	0	279	50	0	0	0	0	0	1	blank2r.bmp	0	1	+	0	3	B3r.bmp	492	1	blank2r.bmp	786	1	BXCP	786	1	blank2r.bmp	866	5	pest	866	1	FEHLER	1492	1	!	-1	1	!	-1	0	0	0	0	0	0	0	0	0	0	0	0	0	0	0	0	0	0	0	0	0	0	0	0
071318	13:53:58	5.0.10.0	167	notassociated	Rpleas_acq	Oppo	Rpleas	Bmasked	CS_B	2pleas	acq_unple_masked	acq3_masked	3	12	453	0	300	300	0	0	586	46	0	1	0	0	0	1	blank2r.bmp	0	1	+	0	5	C1r.bmp	492	1	blank2r.bmp	786	1	BXCP	786	1	blank2r.bmp	866	6	toxisch	866	1	!	1292	1	!	-1	0	0	0	0	0	0	0	0	0	0	0	0	0	0	0	0	0	0	0	0	0	0	0	0	0	0	0
071318	13:53:58	5.0.10.0	167	notassociated	Rpleas_acq	Oppo	Rpleas	Bmasked	CS_B	2pleas	acq_pleas_masked	acq3_masked	3	13	453	0	300	300	0	0	343	50	0	1	0	0	0	1	blank2r.bmp	0	1	+	0	1	B1r.bmp	492	1	blank2r.bmp	786	1	GFVZ	786	1	blank2r.bmp	866	4	lippe	866	1	!	-1	1	!	-1	0	0	0	0	0	0	0	0	0	0	0	0	0	0	0	0	0	0	0	0	0	0	0	0	0	0	0
071318	13:53:58	5.0.10.0	167	notassociated	Rpleas_acq	Oppo	Rpleas	Bmasked	CS_B	2pleas	acq_unple_masked	acq3_masked	3	14	453	0	300	300	0	0	624	46	0	1	0	0	0	1	blank2r.bmp	0	1	+	0	4	B4r.bmp	492	1	blank2r.bmp	786	1	BXCP	786	1	blank2r.bmp	866	5	pest	866	1	!	1292	1	!	-1	0	0	0	0	0	0	0	0	0	0	0	0	0	0	0	0	0	0	0	0	0	0	0	0	0	0	0
071318	13:53:58	5.0.10.0	167	notassociated	Rpleas_acq	Oppo	Rpleas	Bmasked	CS_B	2pleas	acq_pleas_masked	acq3_masked	3	15	453	0	300	300	0	0	294	50	0	1	0	0	0	1	blank2r.bmp	0	1	+	0	6	C2r.bmp	492	1	blank2r.bmp	786	1	GFVZ	786	1	blank2r.bmp	866	1	sonne	866	1	!	-1	1	!	-1	0	0	0	0	0	0	0	0	0	0	0	0	0	0	0	0	0	0	0	0	0	0	0	0	0	0	0
071318	13:53:58	5.0.10.0	167	notassociated	Rpleas_acq	Oppo	Rpleas	Bmasked	CS_B	2pleas	acq_pleas_masked	acq3_masked	3	16	453	0	300	300	0	0	550	50	0	1	0	0	0	1	blank2r.bmp	0	1	+	0	7	C3r.bmp	492	1	blank2r.bmp	786	1	GFVZ	786	1	blank2r.bmp	866	2	liebe	866	1	!	1292	1	!	-1	0	0	0	0	0	0	0	0	0	0	0	0	0	0	0	0	0	0	0	0	0	0	0	0	0	0	0
071318	13:53:58	5.0.10.0	167	notassociated	Rpleas_acq	Oppo	Rpleas	Bmasked	CS_B	2pleas	acq_pleas_masked	acq3_masked	3	17	453	0	300	300	0	0	341	50	0	1	0	0	0	1	blank2r.bmp	0	1	+	0	6	C2r.bmp	492	1	blank2r.bmp	786	1	GFVZ	786	1	blank2r.bmp	866	3	bett	866	1	!	-1	1	!	-1	0	0	0	0	0	0	0	0	0	0	0	0	0	0	0	0	0	0	0	0	0	0	0	0	0	0	0
071318	13:53:58	5.0.10.0	167	notassociated	Rpleas_acq	Oppo	Rpleas	Bmasked	CS_B	2pleas	acq_pleas_masked	acq3_masked	3	18	453	0	300	300	0	0	600	50	0	1	0	0	0	1	blank2r.bmp	0	1	+	0	3	B3r.bmp	492	1	blank2r.bmp	786	1	GFVZ	786	1	blank2r.bmp	866	6	leben	866	1	!	1292	1	!	-1	0	0	0	0	0	0	0	0	0	0	0	0	0	0	0	0	0	0	0	0	0	0	0	0	0	0	0
071318	13:53:58	5.0.10.0	167	notassociated	Rpleas_acq	Oppo	Rpleas	Bmasked	CS_B	2pleas	acq_unple_masked	acq3_masked	3	19	453	0	300	300	0	0	343	50	0	0	0	0	0	1	blank2r.bmp	0	1	+	0	7	C3r.bmp	492	1	blank2r.bmp	786	1	BXCP	786	1	blank2r.bmp	866	2	übel	866	1	FEHLER	1546	1	!	-1	1	!	-1	0	0	0	0	0	0	0	0	0	0	0	0	0	0	0	0	0	0	0	0	0	0	0	0
071318	13:53:58	5.0.10.0	167	notassociated	Rpleas_acq	Oppo	Rpleas	Bmasked	CS_B	2pleas	acq_unple_masked	acq3_masked	3	20	453	1	300	300	0	0	490	46	0	1	0	0	0	1	blank2r.bmp	0	1	+	0	4	B4r.bmp	492	1	blank2r.bmp	786	1	BXCP	786	1	blank2r.bmp	866	1	pleite	866	1	!	1292	1	!	1386	0	0	0	0	0	0	0	0	0	0	0	0	0	0	0	0	0	0	0	0	0	0	0	0	0	0	0
071318	13:53:58	5.0.10.0	167	notassociated	Rpleas_acq	Oppo	Rpleas	Bmasked	CS_B	2pleas	acq_pleas_masked	acq3_masked	3	21	453	1	300	300	0	0	498	50	0	1	0	0	0	1	blank2r.bmp	0	1	+	0	8	C4r.bmp	492	1	blank2r.bmp	786	1	GFVZ	786	1	blank2r.bmp	866	4	lippe	866	1	!	1292	1	!	1399	0	0	0	0	0	0	0	0	0	0	0	0	0	0	0	0	0	0	0	0	0	0	0	0	0	0	0
071318	13:53:58	5.0.10.0	167	notassociated	Rpleas_acq	Oppo	Rpleas	Bmasked	CS_B	2pleas	acq_unple_masked	acq3_masked	3	22	453	0	300	300	0	0	216	46	0	1	0	0	0	1	blank2r.bmp	0	1	+	0	5	C1r.bmp	492	1	blank2r.bmp	786	1	BXCP	786	1	blank2r.bmp	866	4	leiche	866	1	!	-1	1	!	-1	0	0	0	0	0	0	0	0	0	0	0	0	0	0	0	0	0	0	0	0	0	0	0	0	0	0	0
071318	13:53:58	5.0.10.0	167	notassociated	Rpleas_acq	Oppo	Rpleas	Bmasked	CS_B	2pleas	acq_unple_masked	acq3_masked	3	23	453	1	300	300	0	0	459	46	0	1	0	0	0	1	blank2r.bmp	0	1	+	0	1	B1r.bmp	492	1	blank2r.bmp	786	1	BXCP	786	1	blank2r.bmp	866	3	pistole	866	1	!	1292	1	!	1359	0	0	0	0	0	0	0	0	0	0	0	0	0	0	0	0	0	0	0	0	0	0	0	0	0	0	0
071318	13:53:58	5.0.10.0	167	notassociated	Rpleas_acq	Oppo	Rpleas	Bmasked	CS_B	2pleas	acq_unple_masked	acq3_masked	3	24	453	0	300	300	0	0	534	46	0	1	0	0	0	1	blank2r.bmp	0	1	+	0	2	B2r.bmp	492	1	blank2r.bmp	786	1	BXCP	786	1	blank2r.bmp	866	1	pleite	866	1	!	1292	1	!	-1	0	0	0	0	0	0	0	0	0	0	0	0	0	0	0	0	0	0	0	0	0	0	0	0	0	0	0
071318	13:53:58	5.0.10.0	167	notassociated	Rpleas_acq	Oppo	Rpleas	Bmasked	CS_B	2pleas	acq_pleas_masked	acq3_masked	3	25	453	1	300	300	0	0	416	46	0	0	0	0	0	1	blank2r.bmp	0	1	+	0	4	B4r.bmp	492	1	blank2r.bmp	786	1	GFVZ	786	1	blank2r.bmp	866	5	knospe	866	1	FEHLER	1639	1	!	1292	1	!	1319	0	0	0	0	0	0	0	0	0	0	0	0	0	0	0	0	0	0	0	0	0	0	0	0
071318	13:53:58	5.0.10.0	167	notassociated	Rpleas_acq	Oppo	Rpleas	Bmasked	CS_B	2pleas	acq_unple_masked	acq3_masked	3	26	453	0	300	300	0	0	547	46	0	1	0	0	0	1	blank2r.bmp	0	1	+	0	3	B3r.bmp	492	1	blank2r.bmp	786	1	BXCP	786	1	blank2r.bmp	866	4	leiche	866	1	!	1292	1	!	-1	0	0	0	0	0	0	0	0	0	0	0	0	0	0	0	0	0	0	0	0	0	0	0	0	0	0	0
071318	13:53:58	5.0.10.0	167	notassociated	Rpleas_acq	Oppo	Rpleas	Bmasked	CS_B	2pleas	acq_pleas_masked	acq3_masked	3	27	453	1	300	300	0	0	448	50	0	1	0	0	0	1	blank2r.bmp	0	1	+	0	5	C1r.bmp	492	1	blank2r.bmp	786	1	GFVZ	786	1	blank2r.bmp	866	4	lippe	866	1	!	1292	1	!	1346	0	0	0	0	0	0	0	0	0	0	0	0	0	0	0	0	0	0	0	0	0	0	0	0	0	0	0
071318	13:53:58	5.0.10.0	167	notassociated	Rpleas_acq	Oppo	Rpleas	Bmasked	CS_B	2pleas	acq_pleas_masked	acq3_masked	3	28	453	0	300	300	0	0	358	50	0	1	0	0	0	1	blank2r.bmp	0	1	+	0	2	B2r.bmp	492	1	blank2r.bmp	786	1	GFVZ	786	1	blank2r.bmp	866	1	sonne	866	1	!	-1	1	!	-1	0	0	0	0	0	0	0	0	0	0	0	0	0	0	0	0	0	0	0	0	0	0	0	0	0	0	0
071318	13:53:58	5.0.10.0	167	notassociated	Rpleas_acq	Oppo	Rpleas	Bmasked	CS_B	2pleas	acq_pleas_masked	acq3_masked	3	29	453	0	300	300	0	0	582	50	0	1	0	0	0	1	blank2r.bmp	0	1	+	0	6	C2r.bmp	492	1	blank2r.bmp	786	1	GFVZ	786	1	blank2r.bmp	866	3	bett	866	1	!	1292	1	!	-1	0	0	0	0	0	0	0	0	0	0	0	0	0	0	0	0	0	0	0	0	0	0	0	0	0	0	0
071318	13:53:58	5.0.10.0	167	notassociated	Rpleas_acq	Oppo	Rpleas	Bmasked	CS_B	2pleas	acq_unple_masked	acq3_masked	3	30	453	0	300	300	0	0	316	46	0	1	0	0	0	1	blank2r.bmp	0	1	+	0	8	C4r.bmp	492	1	blank2r.bmp	786	1	BXCP	786	1	blank2r.bmp	866	3	pistole	866	1	!	-1	1	!	-1	0	0	0	0	0	0	0	0	0	0	0	0	0	0	0	0	0	0	0	0	0	0	0	0	0	0	0
071318	13:53:58	5.0.10.0	167	notassociated	Rpleas_acq	Oppo	Rpleas	Bmasked	CS_B	2pleas	acq_pleas_masked	acq3_masked	3	31	453	0	300	300	0	0	556	50	0	1	0	0	0	1	blank2r.bmp	0	1	+	0	1	B1r.bmp	492	1	blank2r.bmp	786	1	GFVZ	786	1	blank2r.bmp	866	6	leben	866	1	!	1292	1	!	-1	0	0	0	0	0	0	0	0	0	0	0	0	0	0	0	0	0	0	0	0	0	0	0	0	0	0	0
071318	13:53:58	5.0.10.0	167	notassociated	Rpleas_acq	Oppo	Rpleas	Bmasked	CS_B	2pleas	acq_unple_masked	acq3_masked	3	32	453	1	300	300	0	0	515	46	0	1	0	0	0	1	blank2r.bmp	0	1	+	0	7	C3r.bmp	492	1	blank2r.bmp	786	1	BXCP	786	1	blank2r.bmp	866	6	toxisch	866	1	!	1292	1	!	1412	0	0	0	0	0	0	0	0	0	0	0	0	0	0	0	0	0	0	0	0	0	0	0	0	0	0	0
071318	13:53:58	5.0.10.0	167	notassociated	Rpleas_acq	Oppo	Rpleas	Bmasked	CS_B	2pleas	acq_pleas_masked	acq45_masked	4	1	400	0	300	300	0	0	620	50	0	1	0	0	0	1	blank2r.bmp	0	1	+	0	8	C4r.bmp	492	1	blank2r.bmp	786	1	GFVZ	786	1	blank2r.bmp	866	2	liebe	866	1	!	1239	1	!	-1	0	0	0	0	0	0	0	0	0	0	0	0	0	0	0	0	0	0	0	0	0	0	0	0	0	0	0
071318	13:53:58	5.0.10.0	167	notassociated	Rpleas_acq	Oppo	Rpleas	Bmasked	CS_B	2pleas	acq_pleas_masked	acq45_masked	4	2	400	1	300	300	0	0	428	46	0	0	0	0	0	1	blank2r.bmp	0	1	+	0	2	B2r.bmp	492	1	blank2r.bmp	786	1	GFVZ	786	1	blank2r.bmp	866	5	knospe	866	1	!	1239	1	!	1332	0	0	0	0	0	0	0	0	0	0	0	0	0	0	0	0	0	0	0	0	0	0	0	0	0	0	0
071318	13:53:58	5.0.10.0	167	notassociated	Rpleas_acq	Oppo	Rpleas	Bmasked	CS_B	2pleas	acq_unple_masked	acq45_masked	4	3	400	0	300	300	0	0	493	46	0	1	0	0	0	1	blank2r.bmp	0	1	+	0	5	C1r.bmp	492	1	blank2r.bmp	786	1	BXCP	786	1	blank2r.bmp	866	2	übel	866	1	!	1239	1	!	-1	0	0	0	0	0	0	0	0	0	0	0	0	0	0	0	0	0	0	0	0	0	0	0	0	0	0	0
071318	13:53:58	5.0.10.0	167	notassociated	Rpleas_acq	Oppo	Rpleas	Bmasked	CS_B	2pleas	acq_unple_masked	acq45_masked	4	4	400	0	300	300	0	0	549	46	0	1	0	0	0	1	blank2r.bmp	0	1	+	0	3	B3r.bmp	492	1	blank2r.bmp	786	1	BXCP	786	1	blank2r.bmp	866	5	pest	866	1	!	1239	1	!	-1	0	0	0	0	0	0	0	0	0	0	0	0	0	0	0	0	0	0	0	0	0	0	0	0	0	0	0
071318	13:53:58	5.0.10.0	167	notassociated	Rpleas_acq	Oppo	Rpleas	Bmasked	CS_B	2pleas	acq_pleas_masked	acq45_masked	4	5	400	1	300	300	0	0	384	50	0	1	0	0	0	1	blank2r.bmp	0	1	+	0	1	B1r.bmp	492	1	blank2r.bmp	786	1	GFVZ	786	1	blank2r.bmp	866	3	bett	866	1	!	1239	1	!	1279	0	0	0	0	0	0	0	0	0	0	0	0	0	0	0	0	0	0	0	0	0	0	0	0	0	0	0
071318	13:53:58	5.0.10.0	167	notassociated	Rpleas_acq	Oppo	Rpleas	Bmasked	CS_B	2pleas	acq_pleas_masked	acq45_masked	4	6	400	1	300	300	0	0	404	50	0	1	0	0	0	1	blank2r.bmp	0	1	+	0	7	C3r.bmp	492	1	blank2r.bmp	786	1	GFVZ	786	1	blank2r.bmp	866	2	liebe	866	1	!	1239	1	!	1306	0	0	0	0	0	0	0	0	0	0	0	0	0	0	0	0	0	0	0	0	0	0	0	0	0	0	0
071318	13:53:58	5.0.10.0	167	notassociated	Rpleas_acq	Oppo	Rpleas	Bmasked	CS_B	2pleas	acq_pleas_masked	acq45_masked	4	7	400	1	300	300	0	0	402	50	0	1	0	0	0	1	blank2r.bmp	0	1	+	0	6	C2r.bmp	492	1	blank2r.bmp	786	1	GFVZ	786	1	blank2r.bmp	866	6	leben	866	1	!	1239	1	!	1306	0	0	0	0	0	0	0	0	0	0	0	0	0	0	0	0	0	0	0	0	0	0	0	0	0	0	0
071318	13:53:58	5.0.10.0	167	notassociated	Rpleas_acq	Oppo	Rpleas	Bmasked	CS_B	2pleas	acq_unple_masked	acq45_masked	4	8	400	1	300	300	0	0	455	46	0	1	0	0	0	1	blank2r.bmp	0	1	+	0	4	B4r.bmp	492	1	blank2r.bmp	786	1	BXCP	786	1	blank2r.bmp	866	1	pleite	866	1	!	1239	1	!	1359	0	0	0	0	0	0	0	0	0	0	0	0	0	0	0	0	0	0	0	0	0	0	0	0	0	0	0
071318	13:53:58	5.0.10.0	167	notassociated	Rpleas_acq	Oppo	Rpleas	Bmasked	CS_B	2pleas	acq_unple_masked	acq45_masked	4	9	400	1	300	300	0	0	432	46	0	1	0	0	0	1	blank2r.bmp	0	1	+	0	1	B1r.bmp	492	1	blank2r.bmp	786	1	BXCP	786	1	blank2r.bmp	866	5	pest	866	1	!	1239	1	!	1332	0	0	0	0	0	0	0	0	0	0	0	0	0	0	0	0	0	0	0	0	0	0	0	0	0	0	0
071318	13:53:58	5.0.10.0	167	notassociated	Rpleas_acq	Oppo	Rpleas	Bmasked	CS_B	2pleas	acq_unple_masked	acq45_masked	4	10	400	1	300	300	0	0	432	46	0	1	0	0	0	1	blank2r.bmp	0	1	+	0	5	C1r.bmp	492	1	blank2r.bmp	786	1	BXCP	786	1	blank2r.bmp	866	4	leiche	866	1	!	1239	1	!	1332	0	0	0	0	0	0	0	0	0	0	0	0	0	0	0	0	0	0	0	0	0	0	0	0	0	0	0
071318	13:53:58	5.0.10.0	167	notassociated	Rpleas_acq	Oppo	Rpleas	Bmasked	CS_B	2pleas	acq_pleas_masked	acq45_masked	4	11	400	0	300	300	0	0	514	50	0	1	0	0	0	1	blank2r.bmp	0	1	+	0	2	B2r.bmp	492	1	blank2r.bmp	786	1	GFVZ	786	1	blank2r.bmp	866	5	knospe	866	1	!	1239	1	!	-1	0	0	0	0	0	0	0	0	0	0	0	0	0	0	0	0	0	0	0	0	0	0	0	0	0	0	0
071318	13:53:58	5.0.10.0	167	notassociated	Rpleas_acq	Oppo	Rpleas	Bmasked	CS_B	2pleas	acq_unple_masked	acq45_masked	4	12	400	1	300	300	0	0	438	46	0	1	0	0	0	1	blank2r.bmp	0	1	+	0	4	B4r.bmp	492	1	blank2r.bmp	786	1	BXCP	786	1	blank2r.bmp	866	6	toxisch	866	1	!	1239	1	!	1332	0	0	0	0	0	0	0	0	0	0	0	0	0	0	0	0	0	0	0	0	0	0	0	0	0	0	0
071318	13:53:58	5.0.10.0	167	notassociated	Rpleas_acq	Oppo	Rpleas	Bmasked	CS_B	2pleas	acq_unple_masked	acq45_masked	4	13	400	0	300	300	0	0	489	46	0	1	0	0	0	1	blank2r.bmp	0	1	+	0	3	B3r.bmp	492	1	blank2r.bmp	786	1	BXCP	786	1	blank2r.bmp	866	2	übel	866	1	!	1239	1	!	-1	0	0	0	0	0	0	0	0	0	0	0	0	0	0	0	0	0	0	0	0	0	0	0	0	0	0	0
071318	13:53:58	5.0.10.0	167	notassociated	Rpleas_acq	Oppo	Rpleas	Bmasked	CS_B	2pleas	acq_pleas_masked	acq45_masked	4	14	400	0	300	300	0	0	289	50	0	1	0	0	0	1	blank2r.bmp	0	1	+	0	7	C3r.bmp	492	1	blank2r.bmp	786	1	GFVZ	786	1	blank2r.bmp	866	1	sonne	866	1	!	-1	1	!	-1	0	0	0	0	0	0	0	0	0	0	0	0	0	0	0	0	0	0	0	0	0	0	0	0	0	0	0
071318	13:53:58	5.0.10.0	167	notassociated	Rpleas_acq	Oppo	Rpleas	Bmasked	CS_B	2pleas	acq_pleas_masked	acq45_masked	4	15	400	0	300	300	0	0	510	50	0	1	0	0	0	1	blank2r.bmp	0	1	+	0	6	C2r.bmp	492	1	blank2r.bmp	786	1	GFVZ	786	1	blank2r.bmp	866	4	lippe	866	1	!	1239	1	!	-1	0	0	0	0	0	0	0	0	0	0	0	0	0	0	0	0	0	0	0	0	0	0	0	0	0	0	0
071318	13:53:58	5.0.10.0	167	notassociated	Rpleas_acq	Oppo	Rpleas	Bmasked	CS_B	2pleas	acq_unple_masked	acq45_masked	4	16	400	0	300	300	0	0	515	46	0	1	0	0	0	1	blank2r.bmp	0	1	+	0	8	C4r.bmp	492	1	blank2r.bmp	786	1	BXCP	786	1	blank2r.bmp	866	3	pistole	866	1	!	1239	1	!	-1	0	0	0	0	0	0	0	0	0	0	0	0	0	0	0	0	0	0	0	0	0	0	0	0	0	0	0
071318	13:53:58	5.0.10.0	167	notassociated	Rpleas_acq	Oppo	Rpleas	Bmasked	CS_B	2pleas	acq_unple_masked	acq45_masked	4	17	400	1	300	300	0	0	393	46	0	1	0	0	0	1	blank2r.bmp	0	1	+	0	8	C4r.bmp	492	1	blank2r.bmp	786	1	BXCP	786	1	blank2r.bmp	866	6	toxisch	866	1	!	1239	1	!	1292	0	0	0	0	0	0	0	0	0	0	0	0	0	0	0	0	0	0	0	0	0	0	0	0	0	0	0
071318	13:53:58	5.0.10.0	167	notassociated	Rpleas_acq	Oppo	Rpleas	Bmasked	CS_B	2pleas	acq_pleas_masked	acq45_masked	4	18	400	0	300	300	0	0	310	46	0	0	0	0	0	1	blank2r.bmp	0	1	+	0	5	C1r.bmp	492	1	blank2r.bmp	786	1	GFVZ	786	1	blank2r.bmp	866	2	liebe	866	1	!	-1	1	!	-1	0	0	0	0	0	0	0	0	0	0	0	0	0	0	0	0	0	0	0	0	0	0	0	0	0	0	0
071318	13:53:58	5.0.10.0	167	notassociated	Rpleas_acq	Oppo	Rpleas	Bmasked	CS_B	2pleas	acq_unple_masked	acq45_masked	4	19	400	0	300	300	0	0	512	46	0	1	0	0	0	1	blank2r.bmp	0	1	+	0	4	B4r.bmp	492	1	blank2r.bmp	786	1	BXCP	786	1	blank2r.bmp	866	2	übel	866	1	!	1239	1	!	-1	0	0	0	0	0	0	0	0	0	0	0	0	0	0	0	0	0	0	0	0	0	0	0	0	0	0	0
071318	13:53:58	5.0.10.0	167	notassociated	Rpleas_acq	Oppo	Rpleas	Bmasked	CS_B	2pleas	acq_pleas_masked	acq45_masked	4	20	400	0	300	300	0	0	294	50	0	1	0	0	0	1	blank2r.bmp	0	1	+	0	1	B1r.bmp	492	1	blank2r.bmp	786	1	GFVZ	786	1	blank2r.bmp	866	4	lippe	866	1	!	-1	1	!	-1	0	0	0	0	0	0	0	0	0	0	0	0	0	0	0	0	0	0	0	0	0	0	0	0	0	0	0
071318	13:53:58	5.0.10.0	167	notassociated	Rpleas_acq	Oppo	Rpleas	Bmasked	CS_B	2pleas	acq_pleas_masked	acq45_masked	4	21	400	1	300	300	0	0	389	50	0	1	0	0	0	1	blank2r.bmp	0	1	+	0	2	B2r.bmp	492	1	blank2r.bmp	786	1	GFVZ	786	1	blank2r.bmp	866	1	sonne	866	1	!	1239	1	!	1292	0	0	0	0	0	0	0	0	0	0	0	0	0	0	0	0	0	0	0	0	0	0	0	0	0	0	0
071318	13:53:58	5.0.10.0	167	notassociated	Rpleas_acq	Oppo	Rpleas	Bmasked	CS_B	2pleas	acq_pleas_masked	acq45_masked	4	22	400	1	300	300	0	0	400	50	0	1	0	0	0	1	blank2r.bmp	0	1	+	0	6	C2r.bmp	492	1	blank2r.bmp	786	1	GFVZ	786	1	blank2r.bmp	866	6	leben	866	1	!	1239	1	!	1306	0	0	0	0	0	0	0	0	0	0	0	0	0	0	0	0	0	0	0	0	0	0	0	0	0	0	0
071318	13:53:58	5.0.10.0	167	notassociated	Rpleas_acq	Oppo	Rpleas	Bmasked	CS_B	2pleas	acq_unple_masked	acq45_masked	4	23	400	1	300	300	0	0	439	46	0	1	0	0	0	1	blank2r.bmp	0	1	+	0	3	B3r.bmp	492	1	blank2r.bmp	786	1	BXCP	786	1	blank2r.bmp	866	1	pleite	866	1	!	1239	1	!	1346	0	0	0	0	0	0	0	0	0	0	0	0	0	0	0	0	0	0	0	0	0	0	0	0	0	0	0
071318	13:53:58	5.0.10.0	167	notassociated	Rpleas_acq	Oppo	Rpleas	Bmasked	CS_B	2pleas	acq_pleas_masked	acq45_masked	4	24	400	0	300	300	0	0	286	50	0	1	0	0	0	1	blank2r.bmp	0	1	+	0	7	C3r.bmp	492	1	blank2r.bmp	786	1	GFVZ	786	1	blank2r.bmp	866	3	bett	866	1	!	-1	1	!	-1	0	0	0	0	0	0	0	0	0	0	0	0	0	0	0	0	0	0	0	0	0	0	0	0	0	0	0
071318	13:53:58	5.0.10.0	167	notassociated	Rpleas_acq	Oppo	Rpleas	Bmasked	CS_B	2pleas	acq_pleas_masked	acq45_masked	4	25	400	0	300	300	0	0	287	46	0	0	0	0	0	1	blank2r.bmp	0	1	+	0	4	B4r.bmp	492	1	blank2r.bmp	786	1	GFVZ	786	1	blank2r.bmp	866	5	knospe	866	1	!	-1	1	!	-1	0	0	0	0	0	0	0	0	0	0	0	0	0	0	0	0	0	0	0	0	0	0	0	0	0	0	0
071318	13:53:58	5.0.10.0	167	notassociated	Rpleas_acq	Oppo	Rpleas	Bmasked	CS_B	2pleas	acq_unple_masked	acq45_masked	4	26	400	1	300	300	0	0	438	46	0	1	0	0	0	1	blank2r.bmp	0	1	+	0	8	C4r.bmp	492	1	blank2r.bmp	786	1	BXCP	786	1	blank2r.bmp	866	5	pest	866	1	!	1239	1	!	1346	0	0	0	0	0	0	0	0	0	0	0	0	0	0	0	0	0	0	0	0	0	0	0	0	0	0	0
071318	13:53:58	5.0.10.0	167	notassociated	Rpleas_acq	Oppo	Rpleas	Bmasked	CS_B	2pleas	acq_pleas_masked	acq45_masked	4	27	400	0	300	300	0	0	268	50	0	1	0	0	0	1	blank2r.bmp	0	1	+	0	3	B3r.bmp	492	1	blank2r.bmp	786	1	GFVZ	786	1	blank2r.bmp	866	5	knospe	866	1	!	-1	1	!	-1	0	0	0	0	0	0	0	0	0	0	0	0	0	0	0	0	0	0	0	0	0	0	0	0	0	0	0
071318	13:53:58	5.0.10.0	167	notassociated	Rpleas_acq	Oppo	Rpleas	Bmasked	CS_B	2pleas	acq_unple_masked	acq45_masked	4	28	400	0	300	300	0	0	283	50	0	0	0	0	0	1	blank2r.bmp	0	1	+	0	2	B2r.bmp	492	1	blank2r.bmp	786	1	BXCP	786	1	blank2r.bmp	866	4	leiche	866	1	!	-1	1	!	-1	0	0	0	0	0	0	0	0	0	0	0	0	0	0	0	0	0	0	0	0	0	0	0	0	0	0	0
071318	13:53:58	5.0.10.0	167	notassociated	Rpleas_acq	Oppo	Rpleas	Bmasked	CS_B	2pleas	acq_unple_masked	acq45_masked	4	29	400	1	300	300	0	0	456	46	0	1	0	0	0	1	blank2r.bmp	0	1	+	0	1	B1r.bmp	492	1	blank2r.bmp	786	1	BXCP	786	1	blank2r.bmp	866	3	pistole	866	1	!	1239	1	!	1359	0	0	0	0	0	0	0	0	0	0	0	0	0	0	0	0	0	0	0	0	0	0	0	0	0	0	0
071318	13:53:58	5.0.10.0	167	notassociated	Rpleas_acq	Oppo	Rpleas	Bmasked	CS_B	2pleas	acq_unple_masked	acq45_masked	4	30	400	0	300	300	0	0	646	50	0	0	0	0	0	1	blank2r.bmp	0	1	+	0	5	C1r.bmp	492	1	blank2r.bmp	786	1	BXCP	786	1	blank2r.bmp	866	4	leiche	866	1	!	1239	1	!	-1	0	0	0	0	0	0	0	0	0	0	0	0	0	0	0	0	0	0	0	0	0	0	0	0	0	0	0
071318	13:53:58	5.0.10.0	167	notassociated	Rpleas_acq	Oppo	Rpleas	Bmasked	CS_B	2pleas	acq_unple_masked	acq45_masked	4	31	400	0	300	300	0	0	501	46	0	1	0	0	0	1	blank2r.bmp	0	1	+	0	7	C3r.bmp	492	1	blank2r.bmp	786	1	BXCP	786	1	blank2r.bmp	866	2	übel	866	1	!	1239	1	!	-1	0	0	0	0	0	0	0	0	0	0	0	0	0	0	0	0	0	0	0	0	0	0	0	0	0	0	0
071318	13:53:58	5.0.10.0	167	notassociated	Rpleas_acq	Oppo	Rpleas	Bmasked	CS_B	2pleas	acq_pleas_masked	acq45_masked	4	32	400	1	300	300	0	0	463	50	0	1	0	0	0	1	blank2r.bmp	0	1	+	0	6	C2r.bmp	492	1	blank2r.bmp	786	1	GFVZ	786	1	blank2r.bmp	866	1	sonne	866	1	!	1239	1	!	1359	0	0	0	0	0	0	0	0	0	0	0	0	0	0	0	0	0	0	0	0	0	0	0	0	0	0	0
071318	13:53:58	5.0.10.0	167	notassociated	Rpleas_acq	Oppo	Rpleas	Bmasked	CS_B	2pleas	acq_unple_masked	acq45_masked	5	1	400	0	300	300	0	0	570	46	0	1	0	0	0	1	blank2r.bmp	0	1	+	0	4	B4r.bmp	492	1	blank2r.bmp	786	1	BXCP	786	1	blank2r.bmp	866	1	pleite	866	1	!	1239	1	!	-1	0	0	0	0	0	0	0	0	0	0	0	0	0	0	0	0	0	0	0	0	0	0	0	0	0	0	0
071318	13:53:58	5.0.10.0	167	notassociated	Rpleas_acq	Oppo	Rpleas	Bmasked	CS_B	2pleas	acq_pleas_masked	acq45_masked	5	2	400	0	300	300	0	0	488	50	0	1	0	0	0	1	blank2r.bmp	0	1	+	0	1	B1r.bmp	492	1	blank2r.bmp	786	1	GFVZ	786	1	blank2r.bmp	866	6	leben	866	1	!	1239	1	!	-1	0	0	0	0	0	0	0	0	0	0	0	0	0	0	0	0	0	0	0	0	0	0	0	0	0	0	0
071318	13:53:58	5.0.10.0	167	notassociated	Rpleas_acq	Oppo	Rpleas	Bmasked	CS_B	2pleas	acq_unple_masked	acq45_masked	5	3	400	1	300	300	0	0	426	50	0	0	0	0	0	1	blank2r.bmp	0	1	+	0	8	C4r.bmp	492	1	blank2r.bmp	786	1	BXCP	786	1	blank2r.bmp	866	3	pistole	866	1	!	1239	1	!	1332	0	0	0	0	0	0	0	0	0	0	0	0	0	0	0	0	0	0	0	0	0	0	0	0	0	0	0
071318	13:53:58	5.0.10.0	167	notassociated	Rpleas_acq	Oppo	Rpleas	Bmasked	CS_B	2pleas	acq_unple_masked	acq45_masked	5	4	400	0	300	300	0	0	495	46	0	1	0	0	0	1	blank2r.bmp	0	1	+	0	7	C3r.bmp	492	1	blank2r.bmp	786	1	BXCP	786	1	blank2r.bmp	866	6	toxisch	866	1	!	1239	1	!	-1	0	0	0	0	0	0	0	0	0	0	0	0	0	0	0	0	0	0	0	0	0	0	0	0	0	0	0
071318	13:53:58	5.0.10.0	167	notassociated	Rpleas_acq	Oppo	Rpleas	Bmasked	CS_B	2pleas	acq_pleas_masked	acq45_masked	5	5	400	0	300	300	0	0	509	50	0	1	0	0	0	1	blank2r.bmp	0	1	+	0	2	B2r.bmp	492	1	blank2r.bmp	786	1	GFVZ	786	1	blank2r.bmp	866	4	lippe	866	1	!	1239	1	!	-1	0	0	0	0	0	0	0	0	0	0	0	0	0	0	0	0	0	0	0	0	0	0	0	0	0	0	0
071318	13:53:58	5.0.10.0	167	notassociated	Rpleas_acq	Oppo	Rpleas	Bmasked	CS_B	2pleas	acq_pleas_masked	acq45_masked	5	6	400	1	300	300	0	0	462	50	0	1	0	0	0	1	blank2r.bmp	0	1	+	0	3	B3r.bmp	492	1	blank2r.bmp	786	1	GFVZ	786	1	blank2r.bmp	866	3	bett	866	1	!	1239	1	!	1359	0	0	0	0	0	0	0	0	0	0	0	0	0	0	0	0	0	0	0	0	0	0	0	0	0	0	0
071318	13:53:58	5.0.10.0	167	notassociated	Rpleas_acq	Oppo	Rpleas	Bmasked	CS_B	2pleas	acq_unple_masked	acq45_masked	5	7	400	1	300	300	0	0	463	46	0	1	0	0	0	1	blank2r.bmp	0	1	+	0	6	C2r.bmp	492	1	blank2r.bmp	786	1	BXCP	786	1	blank2r.bmp	866	5	pest	866	1	!	1239	1	!	1359	0	0	0	0	0	0	0	0	0	0	0	0	0	0	0	0	0	0	0	0	0	0	0	0	0	0	0
071318	13:53:58	5.0.10.0	167	notassociated	Rpleas_acq	Oppo	Rpleas	Bmasked	CS_B	2pleas	acq_unple_masked	acq45_masked	5	8	400	0	300	300	0	0	485	46	0	1	0	0	0	1	blank2r.bmp	0	1	+	0	5	C1r.bmp	492	1	blank2r.bmp	786	1	BXCP	786	1	blank2r.bmp	866	2	übel	866	1	!	1239	1	!	-1	0	0	0	0	0	0	0	0	0	0	0	0	0	0	0	0	0	0	0	0	0	0	0	0	0	0	0
071318	13:53:58	5.0.10.0	167	notassociated	Rpleas_acq	Oppo	Rpleas	Bmasked	CS_B	2pleas	acq_pleas_masked	acq45_masked	5	9	400	1	300	300	0	0	411	50	0	1	0	0	0	1	blank2r.bmp	0	1	+	0	3	B3r.bmp	492	1	blank2r.bmp	786	1	GFVZ	786	1	blank2r.bmp	866	2	liebe	866	1	!	1239	1	!	1306	0	0	0	0	0	0	0	0	0	0	0	0	0	0	0	0	0	0	0	0	0	0	0	0	0	0	0
071318	13:53:58	5.0.10.0	167	notassociated	Rpleas_acq	Oppo	Rpleas	Bmasked	CS_B	2pleas	acq_pleas_masked	acq45_masked	5	10	400	1	300	300	0	0	396	50	0	1	0	0	0	1	blank2r.bmp	0	1	+	0	2	B2r.bmp	492	1	blank2r.bmp	786	1	GFVZ	786	1	blank2r.bmp	866	5	knospe	866	1	!	1239	1	!	1292	0	0	0	0	0	0	0	0	0	0	0	0	0	0	0	0	0	0	0	0	0	0	0	0	0	0	0
071318	13:53:58	5.0.10.0	167	notassociated	Rpleas_acq	Oppo	Rpleas	Bmasked	CS_B	2pleas	acq_pleas_masked	acq45_masked	5	11	400	0	300	300	0	0	229	46	0	0	0	0	0	1	blank2r.bmp	0	1	+	0	4	B4r.bmp	492	1	blank2r.bmp	786	1	GFVZ	786	1	blank2r.bmp	866	1	sonne	866	1	!	-1	1	!	-1	0	0	0	0	0	0	0	0	0	0	0	0	0	0	0	0	0	0	0	0	0	0	0	0	0	0	0
071318	13:53:58	5.0.10.0	167	notassociated	Rpleas_acq	Oppo	Rpleas	Bmasked	CS_B	2pleas	acq_unple_masked	acq45_masked	5	12	400	1	300	300	0	0	452	46	0	1	0	0	0	1	blank2r.bmp	0	1	+	0	1	B1r.bmp	492	1	blank2r.bmp	786	1	BXCP	786	1	blank2r.bmp	866	5	pest	866	1	!	1239	1	!	1359	0	0	0	0	0	0	0	0	0	0	0	0	0	0	0	0	0	0	0	0	0	0	0	0	0	0	0
071318	13:53:58	5.0.10.0	167	notassociated	Rpleas_acq	Oppo	Rpleas	Bmasked	CS_B	2pleas	acq_unple_masked	acq45_masked	5	13	400	0	300	300	0	0	542	46	0	1	0	0	0	1	blank2r.bmp	0	1	+	0	5	C1r.bmp	492	1	blank2r.bmp	786	1	BXCP	786	1	blank2r.bmp	866	3	pistole	866	1	!	1239	1	!	-1	0	0	0	0	0	0	0	0	0	0	0	0	0	0	0	0	0	0	0	0	0	0	0	0	0	0	0
071318	13:53:58	5.0.10.0	167	notassociated	Rpleas_acq	Oppo	Rpleas	Bmasked	CS_B	2pleas	acq_pleas_masked	acq45_masked	5	14	400	0	300	300	0	0	264	46	0	0	0	0	0	1	blank2r.bmp	0	1	+	0	7	C3r.bmp	492	1	blank2r.bmp	786	1	GFVZ	786	1	blank2r.bmp	866	3	bett	866	1	!	-1	1	!	-1	0	0	0	0	0	0	0	0	0	0	0	0	0	0	0	0	0	0	0	0	0	0	0	0	0	0	0
071318	13:53:58	5.0.10.0	167	notassociated	Rpleas_acq	Oppo	Rpleas	Bmasked	CS_B	2pleas	acq_pleas_masked	acq45_masked	5	15	400	1	300	300	0	0	427	46	0	0	0	0	0	1	blank2r.bmp	0	1	+	0	8	C4r.bmp	492	1	blank2r.bmp	786	1	GFVZ	786	1	blank2r.bmp	866	2	liebe	866	1	!	1239	1	!	1332	0	0	0	0	0	0	0	0	0	0	0	0	0	0	0	0	0	0	0	0	0	0	0	0	0	0	0
071318	13:53:58	5.0.10.0	167	notassociated	Rpleas_acq	Oppo	Rpleas	Bmasked	CS_B	2pleas	acq_unple_masked	acq45_masked	5	16	400	0	300	300	0	0	579	46	0	1	0	0	0	1	blank2r.bmp	0	1	+	0	6	C2r.bmp	492	1	blank2r.bmp	786	1	BXCP	786	1	blank2r.bmp	866	4	leiche	866	1	!	1239	1	!	-1	0	0	0	0	0	0	0	0	0	0	0	0	0	0	0	0	0	0	0	0	0	0	0	0	0	0	0
071318	13:53:58	5.0.10.0	167	notassociated	Rpleas_acq	Oppo	Rpleas	Bmasked	CS_B	2pleas	acq_pleas_masked	acq45_masked	5	17	400	0	300	300	0	0	2289	50	0	1	0	0	0	1	blank2r.bmp	0	1	+	0	7	C3r.bmp	492	1	blank2r.bmp	786	1	GFVZ	786	1	blank2r.bmp	866	4	lippe	866	1	!	1239	1	!	-1	0	0	0	0	0	0	0	0	0	0	0	0	0	0	0	0	0	0	0	0	0	0	0	0	0	0	0
071318	13:53:58	5.0.10.0	167	notassociated	Rpleas_acq	Oppo	Rpleas	Bmasked	CS_B	2pleas	acq_unple_masked	acq45_masked	5	18	400	0	300	300	0	0	479	46	0	1	0	0	0	1	blank2r.bmp	0	1	+	0	4	B4r.bmp	492	1	blank2r.bmp	786	1	BXCP	786	1	blank2r.bmp	866	1	pleite	866	1	!	1239	1	!	-1	0	0	0	0	0	0	0	0	0	0	0	0	0	0	0	0	0	0	0	0	0	0	0	0	0	0	0
071318	13:53:58	5.0.10.0	167	notassociated	Rpleas_acq	Oppo	Rpleas	Bmasked	CS_B	2pleas	acq_pleas_masked	acq45_masked	5	19	400	1	300	300	0	0	371	50	0	1	0	0	0	1	blank2r.bmp	0	1	+	0	1	B1r.bmp	492	1	blank2r.bmp	786	1	GFVZ	786	1	blank2r.bmp	866	6	leben	866	1	!	1239	1	!	1266	0	0	0	0	0	0	0	0	0	0	0	0	0	0	0	0	0	0	0	0	0	0	0	0	0	0	0
071318	13:53:58	5.0.10.0	167	notassociated	Rpleas_acq	Oppo	Rpleas	Bmasked	CS_B	2pleas	acq_unple_masked	acq45_masked	5	20	400	0	300	300	0	0	481	46	0	1	0	0	0	1	blank2r.bmp	0	1	+	0	2	B2r.bmp	492	1	blank2r.bmp	786	1	BXCP	786	1	blank2r.bmp	866	6	toxisch	866	1	!	1239	1	!	-1	0	0	0	0	0	0	0	0	0	0	0	0	0	0	0	0	0	0	0	0	0	0	0	0	0	0	0
071318	13:53:58	5.0.10.0	167	notassociated	Rpleas_acq	Oppo	Rpleas	Bmasked	CS_B	2pleas	acq_unple_masked	acq45_masked	5	21	400	1	300	300	0	0	413	46	0	1	0	0	0	1	blank2r.bmp	0	1	+	0	5	C1r.bmp	492	1	blank2r.bmp	786	1	BXCP	786	1	blank2r.bmp	866	6	toxisch	866	1	!	1239	1	!	1319	0	0	0	0	0	0	0	0	0	0	0	0	0	0	0	0	0	0	0	0	0	0	0	0	0	0	0
071318	13:53:58	5.0.10.0	167	notassociated	Rpleas_acq	Oppo	Rpleas	Bmasked	CS_B	2pleas	acq_unple_masked	acq45_masked	5	22	400	0	300	300	0	0	560	46	0	1	0	0	0	1	blank2r.bmp	0	1	+	0	8	C4r.bmp	492	1	blank2r.bmp	786	1	BXCP	786	1	blank2r.bmp	866	2	übel	866	1	!	1239	1	!	-1	0	0	0	0	0	0	0	0	0	0	0	0	0	0	0	0	0	0	0	0	0	0	0	0	0	0	0
071318	13:53:58	5.0.10.0	167	notassociated	Rpleas_acq	Oppo	Rpleas	Bmasked	CS_B	2pleas	acq_pleas_masked	acq45_masked	5	23	400	0	300	300	0	0	479	50	0	1	0	0	0	1	blank2r.bmp	0	1	+	0	3	B3r.bmp	492	1	blank2r.bmp	786	1	GFVZ	786	1	blank2r.bmp	866	1	sonne	866	1	!	1239	1	!	-1	0	0	0	0	0	0	0	0	0	0	0	0	0	0	0	0	0	0	0	0	0	0	0	0	0	0	0
071318	13:53:58	5.0.10.0	167	notassociated	Rpleas_acq	Oppo	Rpleas	Bmasked	CS_B	2pleas	acq_unple_masked	acq45_masked	5	24	400	0	300	300	0	0	504	46	0	1	0	0	0	1	blank2r.bmp	0	1	+	0	6	C2r.bmp	492	1	blank2r.bmp	786	1	BXCP	786	1	blank2r.bmp	866	4	leiche	866	1	!	1239	1	!	-1	0	0	0	0	0	0	0	0	0	0	0	0	0	0	0	0	0	0	0	0	0	0	0	0	0	0	0
071318	13:53:58	5.0.10.0	167	notassociated	Rpleas_acq	Oppo	Rpleas	Bmasked	CS_B	2pleas	acq_unple_masked	acq45_masked	5	25	400	0	300	300	0	0	253	46	0	1	0	0	0	1	blank2r.bmp	0	1	+	0	8	C4r.bmp	492	1	blank2r.bmp	786	1	BXCP	786	1	blank2r.bmp	866	3	pistole	866	1	!	-1	1	!	-1	0	0	0	0	0	0	0	0	0	0	0	0	0	0	0	0	0	0	0	0	0	0	0	0	0	0	0
071318	13:53:58	5.0.10.0	167	notassociated	Rpleas_acq	Oppo	Rpleas	Bmasked	CS_B	2pleas	acq_pleas_masked	acq45_masked	5	26	400	1	300	300	0	0	346	50	0	1	0	0	0	1	blank2r.bmp	0	1	+	0	4	B4r.bmp	492	1	blank2r.bmp	786	1	GFVZ	786	1	blank2r.bmp	866	3	bett	866	1	!	1239	1	!	1252	0	0	0	0	0	0	0	0	0	0	0	0	0	0	0	0	0	0	0	0	0	0	0	0	0	0	0
071318	13:53:58	5.0.10.0	167	notassociated	Rpleas_acq	Oppo	Rpleas	Bmasked	CS_B	2pleas	acq_unple_masked	acq45_masked	5	27	400	0	300	300	0	0	291	46	0	1	0	0	0	1	blank2r.bmp	0	1	+	0	5	C1r.bmp	492	1	blank2r.bmp	786	1	BXCP	786	1	blank2r.bmp	866	5	pest	866	1	!	-1	1	!	-1	0	0	0	0	0	0	0	0	0	0	0	0	0	0	0	0	0	0	0	0	0	0	0	0	0	0	0
071318	13:53:58	5.0.10.0	167	notassociated	Rpleas_acq	Oppo	Rpleas	Bmasked	CS_B	2pleas	acq_pleas_masked	acq45_masked	5	28	400	1	300	300	0	0	401	50	0	1	0	0	0	1	blank2r.bmp	0	1	+	0	7	C3r.bmp	492	1	blank2r.bmp	786	1	GFVZ	786	1	blank2r.bmp	866	6	leben	866	1	!	1239	1	!	1306	0	0	0	0	0	0	0	0	0	0	0	0	0	0	0	0	0	0	0	0	0	0	0	0	0	0	0
071318	13:53:58	5.0.10.0	167	notassociated	Rpleas_acq	Oppo	Rpleas	Bmasked	CS_B	2pleas	acq_pleas_masked	acq45_masked	5	29	400	0	300	300	0	0	496	50	0	1	0	0	0	1	blank2r.bmp	0	1	+	0	1	B1r.bmp	492	1	blank2r.bmp	786	1	GFVZ	786	1	blank2r.bmp	866	5	knospe	866	1	!	1239	1	!	-1	0	0	0	0	0	0	0	0	0	0	0	0	0	0	0	0	0	0	0	0	0	0	0	0	0	0	0
071318	13:53:58	5.0.10.0	167	notassociated	Rpleas_acq	Oppo	Rpleas	Bmasked	CS_B	2pleas	acq_pleas_masked	acq45_masked	5	30	400	0	300	300	0	0	546	50	0	1	0	0	0	1	blank2r.bmp	0	1	+	0	2	B2r.bmp	492	1	blank2r.bmp	786	1	GFVZ	786	1	blank2r.bmp	866	4	lippe	866	1	!	1239	1	!	-1	0	0	0	0	0	0	0	0	0	0	0	0	0	0	0	0	0	0	0	0	0	0	0	0	0	0	0
071318	13:53:58	5.0.10.0	167	notassociated	Rpleas_acq	Oppo	Rpleas	Bmasked	CS_B	2pleas	acq_unple_masked	acq45_masked	5	31	400	1	300	300	0	0	403	46	0	1	0	0	0	1	blank2r.bmp	0	1	+	0	6	C2r.bmp	492	1	blank2r.bmp	786	1	BXCP	786	1	blank2r.bmp	866	1	pleite	866	1	!	1239	1	!	1306	0	0	0	0	0	0	0	0	0	0	0	0	0	0	0	0	0	0	0	0	0	0	0	0	0	0	0
071318	13:53:58	5.0.10.0	167	notassociated	Rpleas_acq	Oppo	Rpleas	Bmasked	CS_B	2pleas	acq_pleas_masked	acq45_masked	5	32	400	1	300	300	0	0	463	46	0	0	0	0	0	1	blank2r.bmp	0	1	+	0	3	B3r.bmp	492	1	blank2r.bmp	786	1	GFVZ	786	1	blank2r.bmp	866	2	liebe	866	1	!	1239	1	!	1359	0	0	0	0	0	0	0	0	0	0	0	0	0	0	0	0	0	0	0	0	0	0	0	0	0	0	0
071318	13:53:58	5.0.10.0	167	notassociated	Rpleas_acq	Oppo	Lpleas	Bmasked	CS_B	2pleas	cond_new_pleas_456_masked_CS1	condtest_masked_1	6	1	400	0	300	300	0	0	3456	46	0	1	0	0	0	1	blank2r.bmp	0	1	+	0	6	C2r.bmp	492	1	blank2r.bmp	786	1	BXCP	786	1	blank2r.bmp	866	1	eiche	866	1	!	1239	1	!	-1	0	0	0	0	0	0	0	0	0	0	0	0	0	0	0	0	0	0	0	0	0	0	0	0	0	0	0
071318	13:53:58	5.0.10.0	167	notassociated	Rpleas_acq	Oppo	Lpleas	Bmasked	CS_B	2pleas	cond_new_unple_456_masked_CS2	condtest_masked_1	6	2	400	0	300	300	0	0	984	46	0	0	0	0	0	1	blank2r.bmp	0	1	+	0	8	C4r.bmp	492	1	blank2r.bmp	786	1	GFVZ	786	1	blank2r.bmp	866	2	schock	866	1	!	1239	1	!	-1	0	0	0	0	0	0	0	0	0	0	0	0	0	0	0	0	0	0	0	0	0	0	0	0	0	0	0
071318	13:53:58	5.0.10.0	167	notassociated	Rpleas_acq	Oppo	Lpleas	Bmasked	CS_B	2pleas	cond_US_pleas_123_masked_CS1	condtest_masked_1	6	3	400	0	300	300	0	0	1470	46	0	1	0	0	0	1	blank2r.bmp	0	1	+	0	7	C3r.bmp	492	1	blank2r.bmp	786	1	BXCP	786	1	blank2r.bmp	866	3	bett	866	1	!	1239	1	!	-1	0	0	0	0	0	0	0	0	0	0	0	0	0	0	0	0	0	0	0	0	0	0	0	0	0	0	0
071318	13:53:58	5.0.10.0	167	notassociated	Rpleas_acq	Oppo	Lpleas	Bmasked	CS_B	2pleas	cond_new_pleas_456_masked_CS2	condtest_masked_1	6	4	400	0	300	300	0	0	522	46	0	1	0	0	0	1	blank2r.bmp	0	1	+	0	1	B1r.bmp	492	1	blank2r.bmp	786	1	GFVZ	786	1	blank2r.bmp	866	2	bonbon	866	1	!	1239	1	!	-1	0	0	0	0	0	0	0	0	0	0	0	0	0	0	0	0	0	0	0	0	0	0	0	0	0	0	0
071318	13:53:58	5.0.10.0	167	notassociated	Rpleas_acq	Oppo	Lpleas	Bmasked	CS_B	2pleas	cond_new_unple_456_masked_CS1	condtest_masked_1	6	5	400	1	300	300	0	0	397	46	0	0	0	0	0	1	blank2r.bmp	0	1	+	0	5	C1r.bmp	492	1	blank2r.bmp	786	1	BXCP	786	1	blank2r.bmp	866	1	spott	866	1	!	1239	1	!	1292	0	0	0	0	0	0	0	0	0	0	0	0	0	0	0	0	0	0	0	0	0	0	0	0	0	0	0
071318	13:53:58	5.0.10.0	167	notassociated	Rpleas_acq	Oppo	Lpleas	Bmasked	CS_B	2pleas	cond_US_pleas_123_masked_CS2	condtest_masked_1	6	6	400	0	300	300	0	0	324	46	0	1	0	0	0	1	blank2r.bmp	0	1	+	0	2	B2r.bmp	492	1	blank2r.bmp	786	1	GFVZ	786	1	blank2r.bmp	866	2	liebe	866	1	!	-1	1	!	-1	0	0	0	0	0	0	0	0	0	0	0	0	0	0	0	0	0	0	0	0	0	0	0	0	0	0	0
071318	13:53:58	5.0.10.0	167	notassociated	Rpleas_acq	Oppo	Lpleas	Bmasked	CS_B	2pleas	cond_US_unple_123_masked_CS1	condtest_masked_1	6	7	400	1	300	300	0	0	414	46	0	0	0	0	0	1	blank2r.bmp	0	1	+	0	4	B4r.bmp	492	1	blank2r.bmp	786	1	BXCP	786	1	blank2r.bmp	866	2	übel	866	1	!	1239	1	!	1319	0	0	0	0	0	0	0	0	0	0	0	0	0	0	0	0	0	0	0	0	0	0	0	0	0	0	0
071318	13:53:58	5.0.10.0	167	notassociated	Rpleas_acq	Oppo	Lpleas	Bmasked	CS_B	2pleas	cond_US_unple_123_masked_CS2	condtest_masked_1	6	8	400	0	300	300	0	0	542	46	0	0	0	0	0	1	blank2r.bmp	0	1	+	0	3	B3r.bmp	492	1	blank2r.bmp	786	1	GFVZ	786	1	blank2r.bmp	866	3	pistole	866	1	!	1239	1	!	-1	0	0	0	0	0	0	0	0	0	0	0	0	0	0	0	0	0	0	0	0	0	0	0	0	0	0	0
071318	13:53:58	5.0.10.0	167	notassociated	Rpleas_acq	Oppo	Lpleas	Bmasked	CS_B	2pleas	cond_US_pleas_123_masked_CS1	condtest_masked_2	7	1	400	0	300	300	0	0	329	46	0	1	0	0	0	1	blank2r.bmp	0	1	+	0	4	B4r.bmp	492	1	blank2r.bmp	786	1	BXCP	786	1	blank2r.bmp	866	1	sonne	866	1	!	-1	1	!	-1	0	0	0	0	0	0	0	0	0	0	0	0	0	0	0	0	0	0	0	0	0	0	0	0	0	0	0
071318	13:53:58	5.0.10.0	167	notassociated	Rpleas_acq	Oppo	Lpleas	Bmasked	CS_B	2pleas	cond_US_unple_123_masked_CS1	condtest_masked_2	7	2	400	0	300	300	0	0	538	50	0	1	0	0	0	1	blank2r.bmp	0	1	+	0	6	C2r.bmp	492	1	blank2r.bmp	786	1	BXCP	786	1	blank2r.bmp	866	1	pleite	866	1	!	1239	1	!	-1	0	0	0	0	0	0	0	0	0	0	0	0	0	0	0	0	0	0	0	0	0	0	0	0	0	0	0
071318	13:53:58	5.0.10.0	167	notassociated	Rpleas_acq	Oppo	Lpleas	Bmasked	CS_B	2pleas	cond_new_unple_456_masked_CS2	condtest_masked_2	7	3	400	0	300	300	0	0	566	46	0	0	0	0	0	1	blank2r.bmp	0	1	+	0	8	C4r.bmp	492	1	blank2r.bmp	786	1	GFVZ	786	1	blank2r.bmp	866	3	eitel	866	1	!	1239	1	!	-1	0	0	0	0	0	0	0	0	0	0	0	0	0	0	0	0	0	0	0	0	0	0	0	0	0	0	0
071318	13:53:58	5.0.10.0	167	notassociated	Rpleas_acq	Oppo	Lpleas	Bmasked	CS_B	2pleas	cond_new_unple_456_masked_CS2	condtest_masked_2	7	4	400	0	300	300	0	0	538	50	0	1	0	0	0	1	blank2r.bmp	0	1	+	0	7	C3r.bmp	492	1	blank2r.bmp	786	1	GFVZ	786	1	blank2r.bmp	866	2	schock	866	1	!	1239	1	!	-1	0	0	0	0	0	0	0	0	0	0	0	0	0	0	0	0	0	0	0	0	0	0	0	0	0	0	0
071318	13:53:58	5.0.10.0	167	notassociated	Rpleas_acq	Oppo	Lpleas	Bmasked	CS_B	2pleas	cond_new_pleas_456_masked_CS1	condtest_masked_2	7	5	400	0	300	300	0	0	239	50	0	0	0	0	0	1	blank2r.bmp	0	1	+	0	2	B2r.bmp	492	1	blank2r.bmp	786	1	BXCP	786	1	blank2r.bmp	866	3	keks	866	1	!	-1	1	!	-1	0	0	0	0	0	0	0	0	0	0	0	0	0	0	0	0	0	0	0	0	0	0	0	0	0	0	0
071318	13:53:58	5.0.10.0	167	notassociated	Rpleas_acq	Oppo	Lpleas	Bmasked	CS_B	2pleas	cond_US_unple_123_masked_CS1	condtest_masked_2	7	6	400	1	300	300	0	0	444	50	0	1	0	0	0	1	blank2r.bmp	0	1	+	0	3	B3r.bmp	492	1	blank2r.bmp	786	1	BXCP	786	1	blank2r.bmp	866	3	pistole	866	1	!	1239	1	!	1346	0	0	0	0	0	0	0	0	0	0	0	0	0	0	0	0	0	0	0	0	0	0	0	0	0	0	0
071318	13:53:58	5.0.10.0	167	notassociated	Rpleas_acq	Oppo	Lpleas	Bmasked	CS_B	2pleas	cond_new_unple_456_masked_CS1	condtest_masked_2	7	7	400	0	300	300	0	0	284	46	0	0	0	0	0	1	blank2r.bmp	0	1	+	0	5	C1r.bmp	492	1	blank2r.bmp	786	1	BXCP	786	1	blank2r.bmp	866	3	eitel	866	1	!	-1	1	!	-1	0	0	0	0	0	0	0	0	0	0	0	0	0	0	0	0	0	0	0	0	0	0	0	0	0	0	0
071318	13:53:58	5.0.10.0	167	notassociated	Rpleas_acq	Oppo	Lpleas	Bmasked	CS_B	2pleas	cond_US_unple_123_masked_CS1	condtest_masked_2	7	8	400	0	300	300	0	0	566	50	0	1	0	0	0	1	blank2r.bmp	0	1	+	0	1	B1r.bmp	492	1	blank2r.bmp	786	1	BXCP	786	1	blank2r.bmp	866	2	übel	866	1	!	1239	1	!	-1	0	0	0	0	0	0	0	0	0	0	0	0	0	0	0	0	0	0	0	0	0	0	0	0	0	0	0
071318	13:53:58	5.0.10.0	167	notassociated	Rpleas_acq	Oppo	Lpleas	Bmasked	CS_B	2pleas	cond_US_pleas_123_masked_CS2	condtest_masked_2	7	9	400	1	300	300	0	0	388	46	0	1	0	0	0	1	blank2r.bmp	0	1	+	0	6	C2r.bmp	492	1	blank2r.bmp	786	1	GFVZ	786	1	blank2r.bmp	866	2	liebe	866	1	!	1239	1	!	1292	0	0	0	0	0	0	0	0	0	0	0	0	0	0	0	0	0	0	0	0	0	0	0	0	0	0	0
071318	13:53:58	5.0.10.0	167	notassociated	Rpleas_acq	Oppo	Lpleas	Bmasked	CS_B	2pleas	cond_new_pleas_456_masked_CS2	condtest_masked_2	7	10	400	0	300	300	0	0	590	50	0	0	0	0	0	1	blank2r.bmp	0	1	+	0	3	B3r.bmp	492	1	blank2r.bmp	786	1	GFVZ	786	1	blank2r.bmp	866	3	keks	866	1	!	1239	1	!	-1	0	0	0	0	0	0	0	0	0	0	0	0	0	0	0	0	0	0	0	0	0	0	0	0	0	0	0
071318	13:53:58	5.0.10.0	167	notassociated	Rpleas_acq	Oppo	Lpleas	Bmasked	CS_B	2pleas	cond_US_unple_123_masked_CS2	condtest_masked_2	7	11	400	0	300	300	0	0	569	50	0	1	0	0	0	1	blank2r.bmp	0	1	+	0	4	B4r.bmp	492	1	blank2r.bmp	786	1	GFVZ	786	1	blank2r.bmp	866	1	pleite	866	1	!	1239	1	!	-1	0	0	0	0	0	0	0	0	0	0	0	0	0	0	0	0	0	0	0	0	0	0	0	0	0	0	0
071318	13:53:58	5.0.10.0	167	notassociated	Rpleas_acq	Oppo	Lpleas	Bmasked	CS_B	2pleas	cond_new_unple_456_masked_CS1	condtest_masked_2	7	12	400	0	300	300	0	0	306	46	0	0	0	0	0	1	blank2r.bmp	0	1	+	0	7	C3r.bmp	492	1	blank2r.bmp	786	1	BXCP	786	1	blank2r.bmp	866	1	spott	866	1	!	-1	1	!	-1	0	0	0	0	0	0	0	0	0	0	0	0	0	0	0	0	0	0	0	0	0	0	0	0	0	0	0
071318	13:53:58	5.0.10.0	167	notassociated	Rpleas_acq	Oppo	Lpleas	Bmasked	CS_B	2pleas	cond_new_pleas_456_masked_CS2	condtest_masked_2	7	13	400	0	300	300	0	0	531	46	0	1	0	0	0	1	blank2r.bmp	0	1	+	0	8	C4r.bmp	492	1	blank2r.bmp	786	1	GFVZ	786	1	blank2r.bmp	866	2	bonbon	866	1	!	1239	1	!	-1	0	0	0	0	0	0	0	0	0	0	0	0	0	0	0	0	0	0	0	0	0	0	0	0	0	0	0
071318	13:53:58	5.0.10.0	167	notassociated	Rpleas_acq	Oppo	Lpleas	Bmasked	CS_B	2pleas	cond_new_pleas_456_masked_CS1	condtest_masked_2	7	14	400	1	300	300	0	0	448	46	0	1	0	0	0	1	blank2r.bmp	0	1	+	0	2	B2r.bmp	492	1	blank2r.bmp	786	1	BXCP	786	1	blank2r.bmp	866	1	eiche	866	1	!	1239	1	!	1346	0	0	0	0	0	0	0	0	0	0	0	0	0	0	0	0	0	0	0	0	0	0	0	0	0	0	0
071318	13:53:58	5.0.10.0	167	notassociated	Rpleas_acq	Oppo	Lpleas	Bmasked	CS_B	2pleas	cond_US_unple_123_masked_CS2	condtest_masked_2	7	15	400	0	300	300	0	0	538	50	0	1	0	0	0	1	blank2r.bmp	0	1	+	0	5	C1r.bmp	492	1	blank2r.bmp	786	1	GFVZ	786	1	blank2r.bmp	866	1	pleite	866	1	!	1239	1	!	-1	0	0	0	0	0	0	0	0	0	0	0	0	0	0	0	0	0	0	0	0	0	0	0	0	0	0	0
071318	13:53:58	5.0.10.0	167	notassociated	Rpleas_acq	Oppo	Lpleas	Bmasked	CS_B	2pleas	cond_new_unple_456_masked_CS1	condtest_masked_2	7	16	400	1	300	300	0	0	453	46	0	0	0	0	0	1	blank2r.bmp	0	1	+	0	1	B1r.bmp	492	1	blank2r.bmp	786	1	BXCP	786	1	blank2r.bmp	866	1	spott	866	1	!	1239	1	!	1359	0	0	0	0	0	0	0	0	0	0	0	0	0	0	0	0	0	0	0	0	0	0	0	0	0	0	0
071318	13:53:58	5.0.10.0	167	notassociated	Rpleas_acq	Oppo	Lpleas	Bmasked	CS_B	2pleas	cond_new_pleas_456_masked_CS2	condtest_masked_2	7	17	400	1	300	300	0	0	424	46	0	1	0	0	0	1	blank2r.bmp	0	1	+	0	8	C4r.bmp	492	1	blank2r.bmp	786	1	GFVZ	786	1	blank2r.bmp	866	3	keks	866	1	!	1239	1	!	1319	0	0	0	0	0	0	0	0	0	0	0	0	0	0	0	0	0	0	0	0	0	0	0	0	0	0	0
071318	13:53:58	5.0.10.0	167	notassociated	Rpleas_acq	Oppo	Lpleas	Bmasked	CS_B	2pleas	cond_US_unple_123_masked_CS1	condtest_masked_2	7	18	400	0	300	300	0	0	260	46	0	0	0	0	0	1	blank2r.bmp	0	1	+	0	5	C1r.bmp	492	1	blank2r.bmp	786	1	BXCP	786	1	blank2r.bmp	866	2	übel	866	1	!	-1	1	!	-1	0	0	0	0	0	0	0	0	0	0	0	0	0	0	0	0	0	0	0	0	0	0	0	0	0	0	0
071318	13:53:58	5.0.10.0	167	notassociated	Rpleas_acq	Oppo	Lpleas	Bmasked	CS_B	2pleas	cond_new_unple_456_masked_CS2	condtest_masked_2	7	19	400	1	300	300	0	0	401	50	0	1	0	0	0	1	blank2r.bmp	0	1	+	0	7	C3r.bmp	492	1	blank2r.bmp	786	1	GFVZ	786	1	blank2r.bmp	866	3	eitel	866	1	!	1239	1	!	1306	0	0	0	0	0	0	0	0	0	0	0	0	0	0	0	0	0	0	0	0	0	0	0	0	0	0	0
071318	13:53:58	5.0.10.0	167	notassociated	Rpleas_acq	Oppo	Lpleas	Bmasked	CS_B	2pleas	cond_new_unple_456_masked_CS2	condtest_masked_2	7	20	400	1	300	300	0	0	411	50	0	1	0	0	0	1	blank2r.bmp	0	1	+	0	3	B3r.bmp	492	1	blank2r.bmp	786	1	GFVZ	786	1	blank2r.bmp	866	2	schock	866	1	!	1239	1	!	1306	0	0	0	0	0	0	0	0	0	0	0	0	0	0	0	0	0	0	0	0	0	0	0	0	0	0	0
071318	13:53:58	5.0.10.0	167	notassociated	Rpleas_acq	Oppo	Lpleas	Bmasked	CS_B	2pleas	cond_US_unple_123_masked_CS2	condtest_masked_2	7	21	400	1	300	300	0	0	430	46	0	0	0	0	0	1	blank2r.bmp	0	1	+	0	4	B4r.bmp	492	1	blank2r.bmp	786	1	GFVZ	786	1	blank2r.bmp	866	3	pistole	866	1	!	1239	1	!	1332	0	0	0	0	0	0	0	0	0	0	0	0	0	0	0	0	0	0	0	0	0	0	0	0	0	0	0
071318	13:53:58	5.0.10.0	167	notassociated	Rpleas_acq	Oppo	Lpleas	Bmasked	CS_B	2pleas	cond_US_unple_123_masked_CS1	condtest_masked_2	7	22	400	0	300	300	0	0	481	50	0	1	0	0	0	1	blank2r.bmp	0	1	+	0	1	B1r.bmp	492	1	blank2r.bmp	786	1	BXCP	786	1	blank2r.bmp	866	1	pleite	866	1	!	1239	1	!	-1	0	0	0	0	0	0	0	0	0	0	0	0	0	0	0	0	0	0	0	0	0	0	0	0	0	0	0
071318	13:53:58	5.0.10.0	167	notassociated	Rpleas_acq	Oppo	Lpleas	Bmasked	CS_B	2pleas	cond_US_pleas_123_masked_CS2	condtest_masked_2	7	23	400	1	300	300	0	0	347	46	0	1	0	0	0	1	blank2r.bmp	0	1	+	0	2	B2r.bmp	492	1	blank2r.bmp	786	1	GFVZ	786	1	blank2r.bmp	866	1	sonne	866	1	!	1239	1	!	1252	0	0	0	0	0	0	0	0	0	0	0	0	0	0	0	0	0	0	0	0	0	0	0	0	0	0	0
071318	13:53:58	5.0.10.0	167	notassociated	Rpleas_acq	Oppo	Lpleas	Bmasked	CS_B	2pleas	cond_US_pleas_123_masked_CS2	condtest_masked_2	7	24	400	0	300	300	0	0	485	46	0	1	0	0	0	1	blank2r.bmp	0	1	+	0	6	C2r.bmp	492	1	blank2r.bmp	786	1	GFVZ	786	1	blank2r.bmp	866	3	bett	866	1	!	1239	1	!	-1	0	0	0	0	0	0	0	0	0	0	0	0	0	0	0	0	0	0	0	0	0	0	0	0	0	0	0
071318	13:53:58	5.0.10.0	167	notassociated	Rpleas_acq	Oppo	Lpleas	Bmasked	CS_B	2pleas	cond_US_pleas_123_masked_CS2	condtest_masked_2	7	25	400	1	300	300	0	0	346	46	0	1	0	0	0	1	blank2r.bmp	0	1	+	0	5	C1r.bmp	492	1	blank2r.bmp	786	1	GFVZ	786	1	blank2r.bmp	866	3	bett	866	1	!	1239	1	!	1252	0	0	0	0	0	0	0	0	0	0	0	0	0	0	0	0	0	0	0	0	0	0	0	0	0	0	0
071318	13:53:58	5.0.10.0	167	notassociated	Rpleas_acq	Oppo	Lpleas	Bmasked	CS_B	2pleas	cond_US_pleas_123_masked_CS1	condtest_masked_2	7	26	400	1	300	300	0	0	411	46	0	1	0	0	0	1	blank2r.bmp	0	1	+	0	6	C2r.bmp	492	1	blank2r.bmp	786	1	BXCP	786	1	blank2r.bmp	866	2	liebe	866	1	!	1239	1	!	1306	0	0	0	0	0	0	0	0	0	0	0	0	0	0	0	0	0	0	0	0	0	0	0	0	0	0	0
071318	13:53:58	5.0.10.0	167	notassociated	Rpleas_acq	Oppo	Lpleas	Bmasked	CS_B	2pleas	cond_new_pleas_456_masked_CS1	condtest_masked_2	7	27	400	0	300	300	0	0	132	50	0	0	0	0	0	1	blank2r.bmp	0	1	+	0	4	B4r.bmp	492	1	blank2r.bmp	786	1	BXCP	786	1	blank2r.bmp	866	2	bonbon	866	1	!	-1	1	!	-1	0	0	0	0	0	0	0	0	0	0	0	0	0	0	0	0	0	0	0	0	0	0	0	0	0	0	0
071318	13:53:58	5.0.10.0	167	notassociated	Rpleas_acq	Oppo	Lpleas	Bmasked	CS_B	2pleas	cond_new_pleas_456_masked_CS2	condtest_masked_2	7	28	400	0	300	300	0	0	272	46	0	1	0	0	0	1	blank2r.bmp	0	1	+	0	1	B1r.bmp	492	1	blank2r.bmp	786	1	GFVZ	786	1	blank2r.bmp	866	1	eiche	866	1	!	-1	1	!	-1	0	0	0	0	0	0	0	0	0	0	0	0	0	0	0	0	0	0	0	0	0	0	0	0	0	0	0
071318	13:53:58	5.0.10.0	167	notassociated	Rpleas_acq	Oppo	Lpleas	Bmasked	CS_B	2pleas	cond_US_unple_123_masked_CS2	condtest_masked_2	7	29	400	0	300	300	0	0	501	50	0	1	0	0	0	1	blank2r.bmp	0	1	+	0	8	C4r.bmp	492	1	blank2r.bmp	786	1	GFVZ	786	1	blank2r.bmp	866	3	pistole	866	1	!	1239	1	!	-1	0	0	0	0	0	0	0	0	0	0	0	0	0	0	0	0	0	0	0	0	0	0	0	0	0	0	0
071318	13:53:58	5.0.10.0	167	notassociated	Rpleas_acq	Oppo	Lpleas	Bmasked	CS_B	2pleas	cond_US_pleas_123_masked_CS1	condtest_masked_2	7	30	400	1	300	300	0	0	346	46	0	1	0	0	0	1	blank2r.bmp	0	1	+	0	3	B3r.bmp	492	1	blank2r.bmp	786	1	BXCP	786	1	blank2r.bmp	866	1	sonne	866	1	!	1239	1	!	1252	0	0	0	0	0	0	0	0	0	0	0	0	0	0	0	0	0	0	0	0	0	0	0	0	0	0	0
071318	13:53:58	5.0.10.0	167	notassociated	Rpleas_acq	Oppo	Lpleas	Bmasked	CS_B	2pleas	cond_new_unple_456_masked_CS1	condtest_masked_2	7	31	400	0	300	300	0	0	226	50	0	1	0	0	0	1	blank2r.bmp	0	1	+	0	2	B2r.bmp	492	1	blank2r.bmp	786	1	BXCP	786	1	blank2r.bmp	866	1	spott	866	1	!	-1	1	!	-1	0	0	0	0	0	0	0	0	0	0	0	0	0	0	0	0	0	0	0	0	0	0	0	0	0	0	0
071318	13:53:58	5.0.10.0	167	notassociated	Rpleas_acq	Oppo	Lpleas	Bmasked	CS_B	2pleas	cond_US_pleas_123_masked_CS2	condtest_masked_2	7	32	400	0	300	300	0	0	257	50	0	0	0	0	0	1	blank2r.bmp	0	1	+	0	7	C3r.bmp	492	1	blank2r.bmp	786	1	GFVZ	786	1	blank2r.bmp	866	1	sonne	866	1	!	-1	1	!	-1	0	0	0	0	0	0	0	0	0	0	0	0	0	0	0	0	0	0	0	0	0	0	0	0	0	0	0
071318	13:53:58	5.0.10.0	167	notassociated	Rpleas_acq	Oppo	Lpleas	Bmasked	CS_B	2pleas	cond_new_unple_456_masked_CS2	condtest_masked_2	7	33	400	0	300	300	0	0	256	46	0	0	0	0	0	1	blank2r.bmp	0	1	+	0	4	B4r.bmp	492	1	blank2r.bmp	786	1	GFVZ	786	1	blank2r.bmp	866	2	schock	866	1	!	-1	1	!	-1	0	0	0	0	0	0	0	0	0	0	0	0	0	0	0	0	0	0	0	0	0	0	0	0	0	0	0
071318	13:53:58	5.0.10.0	167	notassociated	Rpleas_acq	Oppo	Lpleas	Bmasked	CS_B	2pleas	cond_new_pleas_456_masked_CS2	condtest_masked_2	7	34	400	1	300	300	0	0	422	46	0	1	0	0	0	1	blank2r.bmp	0	1	+	0	6	C2r.bmp	492	1	blank2r.bmp	786	1	GFVZ	786	1	blank2r.bmp	866	2	bonbon	866	1	!	1239	1	!	1319	0	0	0	0	0	0	0	0	0	0	0	0	0	0	0	0	0	0	0	0	0	0	0	0	0	0	0
071318	13:53:58	5.0.10.0	167	notassociated	Rpleas_acq	Oppo	Lpleas	Bmasked	CS_B	2pleas	cond_US_pleas_123_masked_CS1	condtest_masked_2	7	35	400	0	300	300	0	0	214	46	0	1	0	0	0	1	blank2r.bmp	0	1	+	0	1	B1r.bmp	492	1	blank2r.bmp	786	1	BXCP	786	1	blank2r.bmp	866	3	bett	866	1	!	-1	1	!	-1	0	0	0	0	0	0	0	0	0	0	0	0	0	0	0	0	0	0	0	0	0	0	0	0	0	0	0
071318	13:53:58	5.0.10.0	167	notassociated	Rpleas_acq	Oppo	Lpleas	Bmasked	CS_B	2pleas	cond_new_pleas_456_masked_CS1	condtest_masked_2	7	36	400	1	300	300	0	0	401	46	0	1	0	0	0	1	blank2r.bmp	0	1	+	0	7	C3r.bmp	492	1	blank2r.bmp	786	1	BXCP	786	1	blank2r.bmp	866	3	keks	866	1	!	1239	1	!	1306	0	0	0	0	0	0	0	0	0	0	0	0	0	0	0	0	0	0	0	0	0	0	0	0	0	0	0
071318	13:53:58	5.0.10.0	167	notassociated	Rpleas_acq	Oppo	Lpleas	Bmasked	CS_B	2pleas	cond_US_pleas_123_masked_CS1	condtest_masked_2	7	37	400	0	300	300	0	0	286	46	0	1	0	0	0	1	blank2r.bmp	0	1	+	0	8	C4r.bmp	492	1	blank2r.bmp	786	1	BXCP	786	1	blank2r.bmp	866	2	liebe	866	1	!	-1	1	!	-1	0	0	0	0	0	0	0	0	0	0	0	0	0	0	0	0	0	0	0	0	0	0	0	0	0	0	0
071318	13:53:58	5.0.10.0	167	notassociated	Rpleas_acq	Oppo	Lpleas	Bmasked	CS_B	2pleas	cond_US_unple_123_masked_CS2	condtest_masked_2	7	38	400	0	300	300	0	0	282	46	0	0	0	0	0	1	blank2r.bmp	0	1	+	0	3	B3r.bmp	492	1	blank2r.bmp	786	1	GFVZ	786	1	blank2r.bmp	866	2	übel	866	1	!	-1	1	!	-1	0	0	0	0	0	0	0	0	0	0	0	0	0	0	0	0	0	0	0	0	0	0	0	0	0	0	0
071318	13:53:58	5.0.10.0	167	notassociated	Rpleas_acq	Oppo	Lpleas	Bmasked	CS_B	2pleas	cond_new_pleas_456_masked_CS1	condtest_masked_2	7	39	400	1	300	300	0	0	359	46	0	1	0	0	0	1	blank2r.bmp	0	1	+	0	5	C1r.bmp	492	1	blank2r.bmp	786	1	BXCP	786	1	blank2r.bmp	866	1	eiche	866	1	!	1239	1	!	1266	0	0	0	0	0	0	0	0	0	0	0	0	0	0	0	0	0	0	0	0	0	0	0	0	0	0	0
071318	13:53:58	5.0.10.0	167	notassociated	Rpleas_acq	Oppo	Lpleas	Bmasked	CS_B	2pleas	cond_new_unple_456_masked_CS1	condtest_masked_2	7	40	400	0	300	300	0	0	238	46	0	0	0	0	0	1	blank2r.bmp	0	1	+	0	2	B2r.bmp	492	1	blank2r.bmp	786	1	BXCP	786	1	blank2r.bmp	866	3	eitel	866	1	!	-1	1	!	-1	0	0	0	0	0	0	0	0	0	0	0	0	0	0	0	0	0	0	0	0	0	0	0	0	0	0	0
071318	13:53:58	5.0.10.0	167	notassociated	Rpleas_acq	Oppo	Lpleas	Bmasked	CS_B	2pleas	cond_US_pleas_456_masked_CS2	condtest_masked_3	8	1	400	1	300	300	0	0	436	46	0	1	0	0	0	1	blank2r.bmp	0	1	+	0	5	C1r.bmp	492	1	blank2r.bmp	786	1	GFVZ	786	1	blank2r.bmp	866	2	knospe	866	1	!	1239	1	!	1332	0	0	0	0	0	0	0	0	0	0	0	0	0	0	0	0	0	0	0	0	0	0	0	0	0	0	0
071318	13:53:58	5.0.10.0	167	notassociated	Rpleas_acq	Oppo	Lpleas	Bmasked	CS_B	2pleas	cond_US_unple_456_masked_CS1	condtest_masked_3	8	2	400	0	300	300	0	0	567	50	0	1	0	0	0	1	blank2r.bmp	0	1	+	0	1	B1r.bmp	492	1	blank2r.bmp	786	1	BXCP	786	1	blank2r.bmp	866	1	leiche	866	1	!	1239	1	!	-1	0	0	0	0	0	0	0	0	0	0	0	0	0	0	0	0	0	0	0	0	0	0	0	0	0	0	0
071318	13:53:58	5.0.10.0	167	notassociated	Rpleas_acq	Oppo	Lpleas	Bmasked	CS_B	2pleas	cond_new_unple_123_masked_CS1	condtest_masked_3	8	3	400	0	300	300	0	0	321	46	0	0	0	0	0	1	blank2r.bmp	0	1	+	0	3	B3r.bmp	492	1	blank2r.bmp	786	1	BXCP	786	1	blank2r.bmp	866	3	stinken	866	1	!	-1	1	!	-1	0	0	0	0	0	0	0	0	0	0	0	0	0	0	0	0	0	0	0	0	0	0	0	0	0	0	0
071318	13:53:58	5.0.10.0	167	notassociated	Rpleas_acq	Oppo	Lpleas	Bmasked	CS_B	2pleas	cond_new_unple_123_masked_CS2	condtest_masked_3	8	4	400	0	300	300	0	0	2773	50	0	1	0	0	0	1	blank2r.bmp	0	1	+	0	6	C2r.bmp	492	1	blank2r.bmp	786	1	GFVZ	786	1	blank2r.bmp	866	1	sekte	866	1	!	1239	1	!	-1	0	0	0	0	0	0	0	0	0	0	0	0	0	0	0	0	0	0	0	0	0	0	0	0	0	0	0
071318	13:53:58	5.0.10.0	167	notassociated	Rpleas_acq	Oppo	Lpleas	Bmasked	CS_B	2pleas	cond_US_unple_456_masked_CS2	condtest_masked_3	8	5	400	1	300	300	0	0	438	50	0	1	0	0	0	1	blank2r.bmp	0	1	+	0	8	C4r.bmp	492	1	blank2r.bmp	786	1	GFVZ	786	1	blank2r.bmp	866	3	toxisch	866	1	!	1239	1	!	1332	0	0	0	0	0	0	0	0	0	0	0	0	0	0	0	0	0	0	0	0	0	0	0	0	0	0	0
071318	13:53:58	5.0.10.0	167	notassociated	Rpleas_acq	Oppo	Lpleas	Bmasked	CS_B	2pleas	cond_new_unple_123_masked_CS1	condtest_masked_3	8	6	400	1	300	300	0	0	405	50	0	1	0	0	0	1	blank2r.bmp	0	1	+	0	7	C3r.bmp	492	1	blank2r.bmp	786	1	BXCP	786	1	blank2r.bmp	866	2	betteln	866	1	!	1239	1	!	1306	0	0	0	0	0	0	0	0	0	0	0	0	0	0	0	0	0	0	0	0	0	0	0	0	0	0	0
071318	13:53:58	5.0.10.0	167	notassociated	Rpleas_acq	Oppo	Lpleas	Bmasked	CS_B	2pleas	cond_new_pleas_123_masked_CS2	condtest_masked_3	8	7	400	0	300	300	0	0	569	46	0	1	0	0	0	1	blank2r.bmp	0	1	+	0	4	B4r.bmp	492	1	blank2r.bmp	786	1	GFVZ	786	1	blank2r.bmp	866	1	nähe	866	1	!	1239	1	!	-1	0	0	0	0	0	0	0	0	0	0	0	0	0	0	0	0	0	0	0	0	0	0	0	0	0	0	0
071318	13:53:58	5.0.10.0	167	notassociated	Rpleas_acq	Oppo	Lpleas	Bmasked	CS_B	2pleas	cond_US_unple_456_masked_CS1	condtest_masked_3	8	8	400	0	300	300	0	0	484	46	0	0	0	0	0	1	blank2r.bmp	0	1	+	0	2	B2r.bmp	492	1	blank2r.bmp	786	1	BXCP	786	1	blank2r.bmp	866	2	pest	866	1	!	1239	1	!	-1	0	0	0	0	0	0	0	0	0	0	0	0	0	0	0	0	0	0	0	0	0	0	0	0	0	0	0
071318	13:53:58	5.0.10.0	167	notassociated	Rpleas_acq	Oppo	Lpleas	Bmasked	CS_B	2pleas	cond_new_unple_123_masked_CS2	condtest_masked_3	8	9	400	0	300	300	0	0	699	50	0	1	0	0	0	1	blank2r.bmp	0	1	+	0	7	C3r.bmp	492	1	blank2r.bmp	786	1	GFVZ	786	1	blank2r.bmp	866	3	stinken	866	1	!	1239	1	!	-1	0	0	0	0	0	0	0	0	0	0	0	0	0	0	0	0	0	0	0	0	0	0	0	0	0	0	0
071318	13:53:58	5.0.10.0	167	notassociated	Rpleas_acq	Oppo	Lpleas	Bmasked	CS_B	2pleas	cond_new_unple_123_masked_CS1	condtest_masked_3	8	10	400	0	300	300	0	0	1491	50	0	1	0	0	0	1	blank2r.bmp	0	1	+	0	5	C1r.bmp	492	1	blank2r.bmp	786	1	BXCP	786	1	blank2r.bmp	866	1	sekte	866	1	!	1239	1	!	-1	0	0	0	0	0	0	0	0	0	0	0	0	0	0	0	0	0	0	0	0	0	0	0	0	0	0	0
071318	13:53:58	5.0.10.0	167	notassociated	Rpleas_acq	Oppo	Lpleas	Bmasked	CS_B	2pleas	cond_new_pleas_123_masked_CS1	condtest_masked_3	8	11	400	1	300	300	0	0	444	46	0	1	0	0	0	1	blank2r.bmp	0	1	+	0	2	B2r.bmp	492	1	blank2r.bmp	786	1	BXCP	786	1	blank2r.bmp	866	3	küken	866	1	!	1239	1	!	1346	0	0	0	0	0	0	0	0	0	0	0	0	0	0	0	0	0	0	0	0	0	0	0	0	0	0	0
071318	13:53:58	5.0.10.0	167	notassociated	Rpleas_acq	Oppo	Lpleas	Bmasked	CS_B	2pleas	cond_new_unple_123_masked_CS1	condtest_masked_3	8	12	400	1	300	300	0	0	404	46	0	0	0	0	0	1	blank2r.bmp	0	1	+	0	3	B3r.bmp	492	1	blank2r.bmp	786	1	BXCP	786	1	blank2r.bmp	866	2	betteln	866	1	!	1239	1	!	1306	0	0	0	0	0	0	0	0	0	0	0	0	0	0	0	0	0	0	0	0	0	0	0	0	0	0	0
071318	13:53:58	5.0.10.0	167	notassociated	Rpleas_acq	Oppo	Lpleas	Bmasked	CS_B	2pleas	cond_new_pleas_123_masked_CS1	condtest_masked_3	8	13	400	0	300	300	0	0	479	46	0	1	0	0	0	1	blank2r.bmp	0	1	+	0	8	C4r.bmp	492	1	blank2r.bmp	786	1	BXCP	786	1	blank2r.bmp	866	2	pointe	866	1	!	1239	1	!	-1	0	0	0	0	0	0	0	0	0	0	0	0	0	0	0	0	0	0	0	0	0	0	0	0	0	0	0
071318	13:53:58	5.0.10.0	167	notassociated	Rpleas_acq	Oppo	Lpleas	Bmasked	CS_B	2pleas	cond_new_unple_123_masked_CS1	condtest_masked_3	8	14	400	1	300	300	0	0	433	46	0	0	0	0	0	1	blank2r.bmp	0	1	+	0	6	C2r.bmp	492	1	blank2r.bmp	786	1	BXCP	786	1	blank2r.bmp	866	2	betteln	866	1	!	1239	1	!	1332	0	0	0	0	0	0	0	0	0	0	0	0	0	0	0	0	0	0	0	0	0	0	0	0	0	0	0
071318	13:53:58	5.0.10.0	167	notassociated	Rpleas_acq	Oppo	Lpleas	Bmasked	CS_B	2pleas	cond_US_unple_456_masked_CS1	condtest_masked_3	8	15	400	1	300	300	0	0	359	50	0	1	0	0	0	1	blank2r.bmp	0	1	+	0	4	B4r.bmp	492	1	blank2r.bmp	786	1	BXCP	786	1	blank2r.bmp	866	3	toxisch	866	1	!	1239	1	!	1266	0	0	0	0	0	0	0	0	0	0	0	0	0	0	0	0	0	0	0	0	0	0	0	0	0	0	0
071318	13:53:58	5.0.10.0	167	notassociated	Rpleas_acq	Oppo	Lpleas	Bmasked	CS_B	2pleas	cond_US_unple_456_masked_CS1	condtest_masked_3	8	16	400	1	300	300	0	0	441	46	0	0	0	0	0	1	blank2r.bmp	0	1	+	0	1	B1r.bmp	492	1	blank2r.bmp	786	1	BXCP	786	1	blank2r.bmp	866	2	pest	866	1	!	1239	1	!	1346	0	0	0	0	0	0	0	0	0	0	0	0	0	0	0	0	0	0	0	0	0	0	0	0	0	0	0
071318	13:53:58	5.0.10.0	167	notassociated	Rpleas_acq	Oppo	Lpleas	Bmasked	CS_B	2pleas	cond_US_unple_456_masked_CS2	condtest_masked_3	8	17	400	1	300	300	0	0	393	50	0	1	0	0	0	1	blank2r.bmp	0	1	+	0	2	B2r.bmp	492	1	blank2r.bmp	786	1	GFVZ	786	1	blank2r.bmp	866	1	leiche	866	1	!	1239	1	!	1292	0	0	0	0	0	0	0	0	0	0	0	0	0	0	0	0	0	0	0	0	0	0	0	0	0	0	0
071318	13:53:58	5.0.10.0	167	notassociated	Rpleas_acq	Oppo	Lpleas	Bmasked	CS_B	2pleas	cond_new_unple_123_masked_CS2	condtest_masked_3	8	18	400	0	300	300	0	0	258	50	0	1	0	0	0	1	blank2r.bmp	0	1	+	0	5	C1r.bmp	492	1	blank2r.bmp	786	1	GFVZ	786	1	blank2r.bmp	866	1	sekte	866	1	!	-1	1	!	-1	0	0	0	0	0	0	0	0	0	0	0	0	0	0	0	0	0	0	0	0	0	0	0	0	0	0	0
071318	13:53:58	5.0.10.0	167	notassociated	Rpleas_acq	Oppo	Lpleas	Bmasked	CS_B	2pleas	cond_US_unple_456_masked_CS2	condtest_masked_3	8	19	400	0	300	300	0	0	325	50	0	1	0	0	0	1	blank2r.bmp	0	1	+	0	6	C2r.bmp	492	1	blank2r.bmp	786	1	GFVZ	786	1	blank2r.bmp	866	2	pest	866	1	!	-1	1	!	-1	0	0	0	0	0	0	0	0	0	0	0	0	0	0	0	0	0	0	0	0	0	0	0	0	0	0	0
071318	13:53:58	5.0.10.0	167	notassociated	Rpleas_acq	Oppo	Lpleas	Bmasked	CS_B	2pleas	cond_US_pleas_456_masked_CS2	condtest_masked_3	8	20	400	1	300	300	0	0	466	46	0	1	0	0	0	1	blank2r.bmp	0	1	+	0	7	C3r.bmp	492	1	blank2r.bmp	786	1	GFVZ	786	1	blank2r.bmp	866	3	leben	866	1	!	1239	1	!	1372	0	0	0	0	0	0	0	0	0	0	0	0	0	0	0	0	0	0	0	0	0	0	0	0	0	0	0
071318	13:53:58	5.0.10.0	167	notassociated	Rpleas_acq	Oppo	Lpleas	Bmasked	CS_B	2pleas	cond_new_unple_123_masked_CS2	condtest_masked_3	8	21	400	1	300	300	0	0	434	46	0	0	0	0	0	1	blank2r.bmp	0	1	+	0	8	C4r.bmp	492	1	blank2r.bmp	786	1	GFVZ	786	1	blank2r.bmp	866	3	stinken	866	1	!	1239	1	!	1332	0	0	0	0	0	0	0	0	0	0	0	0	0	0	0	0	0	0	0	0	0	0	0	0	0	0	0
071318	13:53:58	5.0.10.0	167	notassociated	Rpleas_acq	Oppo	Lpleas	Bmasked	CS_B	2pleas	cond_US_unple_456_masked_CS1	condtest_masked_3	8	22	400	0	300	300	0	0	305	50	0	1	0	0	0	1	blank2r.bmp	0	1	+	0	1	B1r.bmp	492	1	blank2r.bmp	786	1	BXCP	786	1	blank2r.bmp	866	3	toxisch	866	1	!	-1	1	!	-1	0	0	0	0	0	0	0	0	0	0	0	0	0	0	0	0	0	0	0	0	0	0	0	0	0	0	0
071318	13:53:58	5.0.10.0	167	notassociated	Rpleas_acq	Oppo	Lpleas	Bmasked	CS_B	2pleas	cond_US_pleas_456_masked_CS2	condtest_masked_3	8	23	400	1	300	300	0	0	428	46	0	1	0	0	0	1	blank2r.bmp	0	1	+	0	4	B4r.bmp	492	1	blank2r.bmp	786	1	GFVZ	786	1	blank2r.bmp	866	1	lippe	866	1	!	1239	1	!	1332	0	0	0	0	0	0	0	0	0	0	0	0	0	0	0	0	0	0	0	0	0	0	0	0	0	0	0
071318	13:53:58	5.0.10.0	167	notassociated	Rpleas_acq	Oppo	Lpleas	Bmasked	CS_B	2pleas	cond_US_pleas_456_masked_CS1	condtest_masked_3	8	24	400	1	300	300	0	0	465	46	0	1	0	0	0	1	blank2r.bmp	0	1	+	0	3	B3r.bmp	492	1	blank2r.bmp	786	1	BXCP	786	1	blank2r.bmp	866	2	knospe	866	1	!	1239	1	!	1359	0	0	0	0	0	0	0	0	0	0	0	0	0	0	0	0	0	0	0	0	0	0	0	0	0	0	0
071318	13:53:58	5.0.10.0	167	notassociated	Rpleas_acq	Oppo	Lpleas	Bmasked	CS_B	2pleas	cond_US_pleas_456_masked_CS1	condtest_masked_3	8	25	400	1	300	300	0	0	384	46	0	1	0	0	0	1	blank2r.bmp	0	1	+	0	6	C2r.bmp	492	1	blank2r.bmp	786	1	BXCP	786	1	blank2r.bmp	866	3	leben	866	1	!	1239	1	!	1279	0	0	0	0	0	0	0	0	0	0	0	0	0	0	0	0	0	0	0	0	0	0	0	0	0	0	0
071318	13:53:58	5.0.10.0	167	notassociated	Rpleas_acq	Oppo	Lpleas	Bmasked	CS_B	2pleas	cond_new_pleas_123_masked_CS2	condtest_masked_3	8	26	400	0	300	300	0	0	285	46	0	1	0	0	0	1	blank2r.bmp	0	1	+	0	7	C3r.bmp	492	1	blank2r.bmp	786	1	GFVZ	786	1	blank2r.bmp	866	1	nähe	866	1	!	-1	1	!	-1	0	0	0	0	0	0	0	0	0	0	0	0	0	0	0	0	0	0	0	0	0	0	0	0	0	0	0
071318	13:53:58	5.0.10.0	167	notassociated	Rpleas_acq	Oppo	Lpleas	Bmasked	CS_B	2pleas	cond_US_pleas_456_masked_CS1	condtest_masked_3	8	27	400	1	300	300	0	0	382	46	0	1	0	0	0	1	blank2r.bmp	0	1	+	0	3	B3r.bmp	492	1	blank2r.bmp	786	1	BXCP	786	1	blank2r.bmp	866	1	lippe	866	1	!	1239	1	!	1279	0	0	0	0	0	0	0	0	0	0	0	0	0	0	0	0	0	0	0	0	0	0	0	0	0	0	0
071318	13:53:58	5.0.10.0	167	notassociated	Rpleas_acq	Oppo	Lpleas	Bmasked	CS_B	2pleas	cond_new_pleas_123_masked_CS1	condtest_masked_3	8	28	400	1	300	300	0	0	435	46	0	1	0	0	0	1	blank2r.bmp	0	1	+	0	4	B4r.bmp	492	1	blank2r.bmp	786	1	BXCP	786	1	blank2r.bmp	866	3	küken	866	1	!	1239	1	!	1332	0	0	0	0	0	0	0	0	0	0	0	0	0	0	0	0	0	0	0	0	0	0	0	0	0	0	0
071318	13:53:58	5.0.10.0	167	notassociated	Rpleas_acq	Oppo	Lpleas	Bmasked	CS_B	2pleas	cond_new_pleas_123_masked_CS1	condtest_masked_3	8	29	400	0	300	300	0	0	597	46	0	1	0	0	0	1	blank2r.bmp	0	1	+	0	1	B1r.bmp	492	1	blank2r.bmp	786	1	BXCP	786	1	blank2r.bmp	866	2	pointe	866	1	!	1239	1	!	-1	0	0	0	0	0	0	0	0	0	0	0	0	0	0	0	0	0	0	0	0	0	0	0	0	0	0	0
071318	13:53:58	5.0.10.0	167	notassociated	Rpleas_acq	Oppo	Lpleas	Bmasked	CS_B	2pleas	cond_new_pleas_123_masked_CS2	condtest_masked_3	8	30	400	0	300	300	0	0	280	46	0	1	0	0	0	1	blank2r.bmp	0	1	+	0	2	B2r.bmp	492	1	blank2r.bmp	786	1	GFVZ	786	1	blank2r.bmp	866	3	küken	866	1	!	-1	1	!	-1	0	0	0	0	0	0	0	0	0	0	0	0	0	0	0	0	0	0	0	0	0	0	0	0	0	0	0
071318	13:53:58	5.0.10.0	167	notassociated	Rpleas_acq	Oppo	Lpleas	Bmasked	CS_B	2pleas	cond_new_unple_123_masked_CS1	condtest_masked_3	8	31	400	1	300	300	0	0	395	50	0	1	0	0	0	1	blank2r.bmp	0	1	+	0	5	C1r.bmp	492	1	blank2r.bmp	786	1	BXCP	786	1	blank2r.bmp	866	3	stinken	866	1	!	1239	1	!	1292	0	0	0	0	0	0	0	0	0	0	0	0	0	0	0	0	0	0	0	0	0	0	0	0	0	0	0
071318	13:53:58	5.0.10.0	167	notassociated	Rpleas_acq	Oppo	Lpleas	Bmasked	CS_B	2pleas	cond_US_pleas_456_masked_CS2	condtest_masked_3	8	32	400	1	300	300	0	0	432	46	0	1	0	0	0	1	blank2r.bmp	0	1	+	0	8	C4r.bmp	492	1	blank2r.bmp	786	1	GFVZ	786	1	blank2r.bmp	866	2	knospe	866	1	!	1239	1	!	1332	0	0	0	0	0	0	0	0	0	0	0	0	0	0	0	0	0	0	0	0	0	0	0	0	0	0	0
071318	13:53:58	5.0.10.0	167	notassociated	Rpleas_acq	Oppo	Lpleas	Bmasked	CS_B	2pleas	cond_US_pleas_456_masked_CS1	condtest_masked_3	8	33	400	1	300	300	0	0	398	46	0	1	0	0	0	1	blank2r.bmp	0	1	+	0	6	C2r.bmp	492	1	blank2r.bmp	786	1	BXCP	786	1	blank2r.bmp	866	1	lippe	866	1	!	1239	1	!	1292	0	0	0	0	0	0	0	0	0	0	0	0	0	0	0	0	0	0	0	0	0	0	0	0	0	0	0
071318	13:53:58	5.0.10.0	167	notassociated	Rpleas_acq	Oppo	Lpleas	Bmasked	CS_B	2pleas	cond_new_pleas_123_masked_CS1	condtest_masked_3	8	34	400	0	300	300	0	0	279	50	0	0	0	0	0	1	blank2r.bmp	0	1	+	0	2	B2r.bmp	492	1	blank2r.bmp	786	1	BXCP	786	1	blank2r.bmp	866	1	nähe	866	1	!	-1	1	!	-1	0	0	0	0	0	0	0	0	0	0	0	0	0	0	0	0	0	0	0	0	0	0	0	0	0	0	0
071318	13:53:58	5.0.10.0	167	notassociated	Rpleas_acq	Oppo	Lpleas	Bmasked	CS_B	2pleas	cond_new_unple_123_masked_CS2	condtest_masked_3	8	35	400	1	300	300	0	0	388	50	0	1	0	0	0	1	blank2r.bmp	0	1	+	0	4	B4r.bmp	492	1	blank2r.bmp	786	1	GFVZ	786	1	blank2r.bmp	866	2	betteln	866	1	!	1239	1	!	1292	0	0	0	0	0	0	0	0	0	0	0	0	0	0	0	0	0	0	0	0	0	0	0	0	0	0	0
071318	13:53:58	5.0.10.0	167	notassociated	Rpleas_acq	Oppo	Lpleas	Bmasked	CS_B	2pleas	cond_new_unple_123_masked_CS2	condtest_masked_3	8	36	400	1	300	300	0	0	450	50	0	1	0	0	0	1	blank2r.bmp	0	1	+	0	8	C4r.bmp	492	1	blank2r.bmp	786	1	GFVZ	786	1	blank2r.bmp	866	1	sekte	866	1	!	1239	1	!	1346	0	0	0	0	0	0	0	0	0	0	0	0	0	0	0	0	0	0	0	0	0	0	0	0	0	0	0
071318	13:53:58	5.0.10.0	167	notassociated	Rpleas_acq	Oppo	Lpleas	Bmasked	CS_B	2pleas	cond_US_unple_456_masked_CS2	condtest_masked_3	8	37	400	1	300	300	0	0	354	46	0	0	0	0	0	1	blank2r.bmp	0	1	+	0	3	B3r.bmp	492	1	blank2r.bmp	786	1	GFVZ	786	1	blank2r.bmp	866	1	leiche	866	1	!	1239	1	!	1252	0	0	0	0	0	0	0	0	0	0	0	0	0	0	0	0	0	0	0	0	0	0	0	0	0	0	0
071318	13:53:58	5.0.10.0	167	notassociated	Rpleas_acq	Oppo	Lpleas	Bmasked	CS_B	2pleas	cond_new_pleas_123_masked_CS1	condtest_masked_3	8	38	400	0	300	300	0	0	488	46	0	1	0	0	0	1	blank2r.bmp	0	1	+	0	5	C1r.bmp	492	1	blank2r.bmp	786	1	BXCP	786	1	blank2r.bmp	866	2	pointe	866	1	!	1239	1	!	-1	0	0	0	0	0	0	0	0	0	0	0	0	0	0	0	0	0	0	0	0	0	0	0	0	0	0	0
071318	13:53:58	5.0.10.0	167	notassociated	Rpleas_acq	Oppo	Lpleas	Bmasked	CS_B	2pleas	cond_new_pleas_123_masked_CS2	condtest_masked_3	8	39	400	1	300	300	0	0	415	46	0	1	0	0	0	1	blank2r.bmp	0	1	+	0	7	C3r.bmp	492	1	blank2r.bmp	786	1	GFVZ	786	1	blank2r.bmp	866	2	pointe	866	1	!	1239	1	!	1319	0	0	0	0	0	0	0	0	0	0	0	0	0	0	0	0	0	0	0	0	0	0	0	0	0	0	0
071318	13:53:58	5.0.10.0	167	notassociated	Rpleas_acq	Oppo	Lpleas	Bmasked	CS_B	2pleas	cond_US_unple_456_masked_CS1	condtest_masked_3	8	40	400	0	300	300	0	0	479	50	0	1	0	0	0	1	blank2r.bmp	0	1	+	0	1	B1r.bmp	492	1	blank2r.bmp	786	1	BXCP	786	1	blank2r.bmp	866	2	pest	866	1	!	1239	1	!	-1	0	0	0	0	0	0	0	0	0	0	0	0	0	0	0	0	0	0	0	0	0	0	0	0	0	0	0
071318	13:53:58	5.0.10.0	167	notassociated	Rpleas_acq	Oppo	Lpleas	Bmasked	CS_B	2pleas	cond_new_pleas_123_masked_CS2	condtest_masked_3	8	41	400	0	300	300	0	0	479	46	0	1	0	0	0	1	blank2r.bmp	0	1	+	0	1	B1r.bmp	492	1	blank2r.bmp	786	1	GFVZ	786	1	blank2r.bmp	866	1	nähe	866	1	!	1239	1	!	-1	0	0	0	0	0	0	0	0	0	0	0	0	0	0	0	0	0	0	0	0	0	0	0	0	0	0	0
071318	13:53:58	5.0.10.0	167	notassociated	Rpleas_acq	Oppo	Lpleas	Bmasked	CS_B	2pleas	cond_US_pleas_456_masked_CS2	condtest_masked_3	8	42	400	1	300	300	0	0	374	46	0	1	0	0	0	1	blank2r.bmp	0	1	+	0	7	C3r.bmp	492	1	blank2r.bmp	786	1	GFVZ	786	1	blank2r.bmp	866	3	leben	866	1	!	1239	1	!	1279	0	0	0	0	0	0	0	0	0	0	0	0	0	0	0	0	0	0	0	0	0	0	0	0	0	0	0
071318	13:53:58	5.0.10.0	167	notassociated	Rpleas_acq	Oppo	Lpleas	Bmasked	CS_B	2pleas	cond_US_pleas_456_masked_CS1	condtest_masked_3	8	43	400	1	300	300	0	0	415	46	0	1	0	0	0	1	blank2r.bmp	0	1	+	0	3	B3r.bmp	492	1	blank2r.bmp	786	1	BXCP	786	1	blank2r.bmp	866	3	leben	866	1	!	1239	1	!	1319	0	0	0	0	0	0	0	0	0	0	0	0	0	0	0	0	0	0	0	0	0	0	0	0	0	0	0
071318	13:53:58	5.0.10.0	167	notassociated	Rpleas_acq	Oppo	Lpleas	Bmasked	CS_B	2pleas	cond_US_pleas_456_masked_CS1	condtest_masked_3	8	44	400	1	300	300	0	0	423	46	0	1	0	0	0	1	blank2r.bmp	0	1	+	0	4	B4r.bmp	492	1	blank2r.bmp	786	1	BXCP	786	1	blank2r.bmp	866	1	lippe	866	1	!	1239	1	!	1319	0	0	0	0	0	0	0	0	0	0	0	0	0	0	0	0	0	0	0	0	0	0	0	0	0	0	0
071318	13:53:58	5.0.10.0	167	notassociated	Rpleas_acq	Oppo	Lpleas	Bmasked	CS_B	2pleas	cond_US_pleas_456_masked_CS2	condtest_masked_3	8	45	400	1	300	300	0	0	383	46	0	1	0	0	0	1	blank2r.bmp	0	1	+	0	5	C1r.bmp	492	1	blank2r.bmp	786	1	GFVZ	786	1	blank2r.bmp	866	2	knospe	866	1	!	1239	1	!	1279	0	0	0	0	0	0	0	0	0	0	0	0	0	0	0	0	0	0	0	0	0	0	0	0	0	0	0
071318	13:53:58	5.0.10.0	167	notassociated	Rpleas_acq	Oppo	Lpleas	Bmasked	CS_B	2pleas	cond_new_pleas_123_masked_CS2	condtest_masked_3	8	46	400	0	300	300	0	0	479	46	0	1	0	0	0	1	blank2r.bmp	0	1	+	0	8	C4r.bmp	492	1	blank2r.bmp	786	1	GFVZ	786	1	blank2r.bmp	866	3	küken	866	1	!	1239	1	!	-1	0	0	0	0	0	0	0	0	0	0	0	0	0	0	0	0	0	0	0	0	0	0	0	0	0	0	0
071318	13:53:58	5.0.10.0	167	notassociated	Rpleas_acq	Oppo	Lpleas	Bmasked	CS_B	2pleas	cond_US_unple_456_masked_CS2	condtest_masked_3	8	47	400	0	300	300	0	0	562	50	0	1	0	0	0	1	blank2r.bmp	0	1	+	0	2	B2r.bmp	492	1	blank2r.bmp	786	1	GFVZ	786	1	blank2r.bmp	866	3	toxisch	866	1	!	1239	1	!	-1	0	0	0	0	0	0	0	0	0	0	0	0	0	0	0	0	0	0	0	0	0	0	0	0	0	0	0
071318	13:53:58	5.0.10.0	167	notassociated	Rpleas_acq	Oppo	Lpleas	Bmasked	CS_B	2pleas	cond_US_unple_456_masked_CS2	condtest_masked_3	8	48	400	0	300	300	0	0	581	46	0	0	0	0	0	1	blank2r.bmp	0	1	+	0	6	C2r.bmp	492	1	blank2r.bmp	786	1	GFVZ	786	1	blank2r.bmp	866	1	leiche	866	1	!	1239	1	!	-1	0	0	0	0	0	0	0	0	0	0	0	0	0	0	0	0	0	0	0	0	0	0	0	0	0	0	0
071318	13:53:58	5.0.10.0	167	notassociated	Rpleas_acq	Oppo	Lpleas	Bmasked	CS_B	2pleas	cond_new_unple_456_masked_CS2	condtest_masked_4	9	1	400	0	300	300	0	0	525	50	0	1	0	0	0	1	blank2r.bmp	0	1	+	0	3	B3r.bmp	492	1	blank2r.bmp	786	1	GFVZ	786	1	blank2r.bmp	866	1	spott	866	1	!	1239	1	!	-1	0	0	0	0	0	0	0	0	0	0	0	0	0	0	0	0	0	0	0	0	0	0	0	0	0	0	0
071318	13:53:58	5.0.10.0	167	notassociated	Rpleas_acq	Oppo	Lpleas	Bmasked	CS_B	2pleas	cond_new_unple_456_masked_CS2	condtest_masked_4	9	2	400	0	300	300	0	0	682	50	0	1	0	0	0	1	blank2r.bmp	0	1	+	0	6	C2r.bmp	492	1	blank2r.bmp	786	1	GFVZ	786	1	blank2r.bmp	866	2	schock	866	1	!	1239	1	!	-1	0	0	0	0	0	0	0	0	0	0	0	0	0	0	0	0	0	0	0	0	0	0	0	0	0	0	0
071318	13:53:58	5.0.10.0	167	notassociated	Rpleas_acq	Oppo	Lpleas	Bmasked	CS_B	2pleas	cond_US_unple_123_masked_CS2	condtest_masked_4	9	3	400	1	300	300	0	0	436	50	0	1	0	0	0	1	blank2r.bmp	0	1	+	0	7	C3r.bmp	492	1	blank2r.bmp	786	1	GFVZ	786	1	blank2r.bmp	866	3	pistole	866	1	!	1239	1	!	1332	0	0	0	0	0	0	0	0	0	0	0	0	0	0	0	0	0	0	0	0	0	0	0	0	0	0	0
071318	13:53:58	5.0.10.0	167	notassociated	Rpleas_acq	Oppo	Lpleas	Bmasked	CS_B	2pleas	cond_new_unple_456_masked_CS1	condtest_masked_4	9	4	400	0	300	300	0	0	700	50	0	1	0	0	0	1	blank2r.bmp	0	1	+	0	4	B4r.bmp	492	1	blank2r.bmp	786	1	BXCP	786	1	blank2r.bmp	866	3	eitel	866	1	!	1239	1	!	-1	0	0	0	0	0	0	0	0	0	0	0	0	0	0	0	0	0	0	0	0	0	0	0	0	0	0	0
071318	13:53:58	5.0.10.0	167	notassociated	Rpleas_acq	Oppo	Lpleas	Bmasked	CS_B	2pleas	cond_US_pleas_123_masked_CS2	condtest_masked_4	9	5	400	0	300	300	0	0	593	46	0	1	0	0	0	1	blank2r.bmp	0	1	+	0	5	C1r.bmp	492	1	blank2r.bmp	786	1	GFVZ	786	1	blank2r.bmp	866	3	bett	866	1	!	1239	1	!	-1	0	0	0	0	0	0	0	0	0	0	0	0	0	0	0	0	0	0	0	0	0	0	0	0	0	0	0
071318	13:53:58	5.0.10.0	167	notassociated	Rpleas_acq	Oppo	Lpleas	Bmasked	CS_B	2pleas	cond_new_unple_456_masked_CS2	condtest_masked_4	9	6	400	0	300	300	0	0	523	50	0	1	0	0	0	1	blank2r.bmp	0	1	+	0	2	B2r.bmp	492	1	blank2r.bmp	786	1	GFVZ	786	1	blank2r.bmp	866	1	spott	866	1	!	1239	1	!	-1	0	0	0	0	0	0	0	0	0	0	0	0	0	0	0	0	0	0	0	0	0	0	0	0	0	0	0
071318	13:53:58	5.0.10.0	167	notassociated	Rpleas_acq	Oppo	Lpleas	Bmasked	CS_B	2pleas	cond_US_unple_123_masked_CS2	condtest_masked_4	9	7	400	1	300	300	0	0	462	50	0	1	0	0	0	1	blank2r.bmp	0	1	+	0	1	B1r.bmp	492	1	blank2r.bmp	786	1	GFVZ	786	1	blank2r.bmp	866	1	pleite	866	1	!	1239	1	!	1359	0	0	0	0	0	0	0	0	0	0	0	0	0	0	0	0	0	0	0	0	0	0	0	0	0	0	0
071318	13:53:58	5.0.10.0	167	notassociated	Rpleas_acq	Oppo	Lpleas	Bmasked	CS_B	2pleas	cond_new_unple_456_masked_CS2	condtest_masked_4	9	8	400	1	300	300	0	0	439	50	0	1	0	0	0	1	blank2r.bmp	0	1	+	0	8	C4r.bmp	492	1	blank2r.bmp	786	1	GFVZ	786	1	blank2r.bmp	866	2	schock	866	1	!	1239	1	!	1346	0	0	0	0	0	0	0	0	0	0	0	0	0	0	0	0	0	0	0	0	0	0	0	0	0	0	0
071318	13:53:58	5.0.10.0	167	notassociated	Rpleas_acq	Oppo	Lpleas	Bmasked	CS_B	2pleas	cond_US_unple_123_masked_CS1	condtest_masked_4	9	9	400	0	300	300	0	0	494	50	0	1	0	0	0	1	blank2r.bmp	0	1	+	0	5	C1r.bmp	492	1	blank2r.bmp	786	1	BXCP	786	1	blank2r.bmp	866	2	übel	866	1	!	1239	1	!	-1	0	0	0	0	0	0	0	0	0	0	0	0	0	0	0	0	0	0	0	0	0	0	0	0	0	0	0
071318	13:53:58	5.0.10.0	167	notassociated	Rpleas_acq	Oppo	Lpleas	Bmasked	CS_B	2pleas	cond_US_pleas_123_masked_CS1	condtest_masked_4	9	10	400	1	300	300	0	0	447	46	0	1	0	0	0	1	blank2r.bmp	0	1	+	0	8	C4r.bmp	492	1	blank2r.bmp	786	1	BXCP	786	1	blank2r.bmp	866	1	sonne	866	1	!	1239	1	!	1346	0	0	0	0	0	0	0	0	0	0	0	0	0	0	0	0	0	0	0	0	0	0	0	0	0	0	0
071318	13:53:58	5.0.10.0	167	notassociated	Rpleas_acq	Oppo	Lpleas	Bmasked	CS_B	2pleas	cond_new_pleas_456_masked_CS1	condtest_masked_4	9	11	400	0	300	300	0	0	519	46	0	1	0	0	0	1	blank2r.bmp	0	1	+	0	1	B1r.bmp	492	1	blank2r.bmp	786	1	BXCP	786	1	blank2r.bmp	866	1	eiche	866	1	!	1239	1	!	-1	0	0	0	0	0	0	0	0	0	0	0	0	0	0	0	0	0	0	0	0	0	0	0	0	0	0	0
071318	13:53:58	5.0.10.0	167	notassociated	Rpleas_acq	Oppo	Lpleas	Bmasked	CS_B	2pleas	cond_US_pleas_123_masked_CS1	condtest_masked_4	9	12	400	1	300	300	0	0	372	46	0	1	0	0	0	1	blank2r.bmp	0	1	+	0	6	C2r.bmp	492	1	blank2r.bmp	786	1	BXCP	786	1	blank2r.bmp	866	2	liebe	866	1	!	1239	1	!	1279	0	0	0	0	0	0	0	0	0	0	0	0	0	0	0	0	0	0	0	0	0	0	0	0	0	0	0
071318	13:53:58	5.0.10.0	167	notassociated	Rpleas_acq	Oppo	Lpleas	Bmasked	CS_B	2pleas	cond_new_unple_456_masked_CS1	condtest_masked_4	9	13	400	0	300	300	0	0	311	46	0	0	0	0	0	1	blank2r.bmp	0	1	+	0	4	B4r.bmp	492	1	blank2r.bmp	786	1	BXCP	786	1	blank2r.bmp	866	3	eitel	866	1	!	-1	1	!	-1	0	0	0	0	0	0	0	0	0	0	0	0	0	0	0	0	0	0	0	0	0	0	0	0	0	0	0
071318	13:53:58	5.0.10.0	167	notassociated	Rpleas_acq	Oppo	Lpleas	Bmasked	CS_B	2pleas	cond_US_pleas_123_masked_CS2	condtest_masked_4	9	14	400	1	300	300	0	0	418	46	0	1	0	0	0	1	blank2r.bmp	0	1	+	0	3	B3r.bmp	492	1	blank2r.bmp	786	1	GFVZ	786	1	blank2r.bmp	866	2	liebe	866	1	!	1239	1	!	1319	0	0	0	0	0	0	0	0	0	0	0	0	0	0	0	0	0	0	0	0	0	0	0	0	0	0	0
071318	13:53:58	5.0.10.0	167	notassociated	Rpleas_acq	Oppo	Lpleas	Bmasked	CS_B	2pleas	cond_new_unple_456_masked_CS2	condtest_masked_4	9	15	400	0	300	300	0	0	486	46	0	0	0	0	0	1	blank2r.bmp	0	1	+	0	7	C3r.bmp	492	1	blank2r.bmp	786	1	GFVZ	786	1	blank2r.bmp	866	1	spott	866	1	!	1239	1	!	-1	0	0	0	0	0	0	0	0	0	0	0	0	0	0	0	0	0	0	0	0	0	0	0	0	0	0	0
071318	13:53:58	5.0.10.0	167	notassociated	Rpleas_acq	Oppo	Lpleas	Bmasked	CS_B	2pleas	cond_US_unple_123_masked_CS1	condtest_masked_4	9	16	400	0	300	300	0	0	533	46	0	0	0	0	0	1	blank2r.bmp	0	1	+	0	2	B2r.bmp	492	1	blank2r.bmp	786	1	BXCP	786	1	blank2r.bmp	866	2	übel	866	1	!	1239	1	!	-1	0	0	0	0	0	0	0	0	0	0	0	0	0	0	0	0	0	0	0	0	0	0	0	0	0	0	0
071318	13:53:58	5.0.10.0	167	notassociated	Rpleas_acq	Oppo	Lpleas	Bmasked	CS_B	2pleas	cond_US_unple_123_masked_CS2	condtest_masked_4	9	17	400	0	300	300	0	0	572	50	0	1	0	0	0	1	blank2r.bmp	0	1	+	0	7	C3r.bmp	492	1	blank2r.bmp	786	1	GFVZ	786	1	blank2r.bmp	866	3	pistole	866	1	!	1239	1	!	-1	0	0	0	0	0	0	0	0	0	0	0	0	0	0	0	0	0	0	0	0	0	0	0	0	0	0	0
071318	13:53:58	5.0.10.0	167	notassociated	Rpleas_acq	Oppo	Lpleas	Bmasked	CS_B	2pleas	cond_US_unple_123_masked_CS2	condtest_masked_4	9	18	400	1	300	300	0	0	463	50	0	1	0	0	0	1	blank2r.bmp	0	1	+	0	6	C2r.bmp	492	1	blank2r.bmp	786	1	GFVZ	786	1	blank2r.bmp	866	1	pleite	866	1	!	1239	1	!	1359	0	0	0	0	0	0	0	0	0	0	0	0	0	0	0	0	0	0	0	0	0	0	0	0	0	0	0
071318	13:53:58	5.0.10.0	167	notassociated	Rpleas_acq	Oppo	Lpleas	Bmasked	CS_B	2pleas	cond_US_unple_123_masked_CS1	condtest_masked_4	9	19	400	0	300	300	0	0	479	50	0	1	0	0	0	1	blank2r.bmp	0	1	+	0	5	C1r.bmp	492	1	blank2r.bmp	786	1	BXCP	786	1	blank2r.bmp	866	1	pleite	866	1	!	1239	1	!	-1	0	0	0	0	0	0	0	0	0	0	0	0	0	0	0	0	0	0	0	0	0	0	0	0	0	0	0
071318	13:53:58	5.0.10.0	167	notassociated	Rpleas_acq	Oppo	Lpleas	Bmasked	CS_B	2pleas	cond_US_pleas_123_masked_CS2	condtest_masked_4	9	20	400	1	300	300	0	0	440	50	0	0	0	0	0	1	blank2r.bmp	0	1	+	0	3	B3r.bmp	492	1	blank2r.bmp	786	1	GFVZ	786	1	blank2r.bmp	866	1	sonne	866	1	!	1239	1	!	1346	0	0	0	0	0	0	0	0	0	0	0	0	0	0	0	0	0	0	0	0	0	0	0	0	0	0	0
071318	13:53:58	5.0.10.0	167	notassociated	Rpleas_acq	Oppo	Lpleas	Bmasked	CS_B	2pleas	cond_US_unple_123_masked_CS1	condtest_masked_4	9	21	400	0	300	300	0	0	606	50	0	1	0	0	0	1	blank2r.bmp	0	1	+	0	1	B1r.bmp	492	1	blank2r.bmp	786	1	BXCP	786	1	blank2r.bmp	866	3	pistole	866	1	!	1239	1	!	-1	0	0	0	0	0	0	0	0	0	0	0	0	0	0	0	0	0	0	0	0	0	0	0	0	0	0	0
071318	13:53:58	5.0.10.0	167	notassociated	Rpleas_acq	Oppo	Lpleas	Bmasked	CS_B	2pleas	cond_US_pleas_123_masked_CS2	condtest_masked_4	9	22	400	0	300	300	0	0	566	46	0	1	0	0	0	1	blank2r.bmp	0	1	+	0	2	B2r.bmp	492	1	blank2r.bmp	786	1	GFVZ	786	1	blank2r.bmp	866	3	bett	866	1	!	1239	1	!	-1	0	0	0	0	0	0	0	0	0	0	0	0	0	0	0	0	0	0	0	0	0	0	0	0	0	0	0
071318	13:53:58	5.0.10.0	167	notassociated	Rpleas_acq	Oppo	Lpleas	Bmasked	CS_B	2pleas	cond_new_pleas_456_masked_CS1	condtest_masked_4	9	23	400	1	300	300	0	0	439	46	0	1	0	0	0	1	blank2r.bmp	0	1	+	0	4	B4r.bmp	492	1	blank2r.bmp	786	1	BXCP	786	1	blank2r.bmp	866	2	bonbon	866	1	!	1239	1	!	1346	0	0	0	0	0	0	0	0	0	0	0	0	0	0	0	0	0	0	0	0	0	0	0	0	0	0	0
071318	13:53:58	5.0.10.0	167	notassociated	Rpleas_acq	Oppo	Lpleas	Bmasked	CS_B	2pleas	cond_US_pleas_123_masked_CS1	condtest_masked_4	9	24	400	1	300	300	0	0	393	46	0	1	0	0	0	1	blank2r.bmp	0	1	+	0	8	C4r.bmp	492	1	blank2r.bmp	786	1	BXCP	786	1	blank2r.bmp	866	3	bett	866	1	!	1239	1	!	1292	0	0	0	0	0	0	0	0	0	0	0	0	0	0	0	0	0	0	0	0	0	0	0	0	0	0	0
071318	13:53:58	5.0.10.0	167	notassociated	Rpleas_acq	Oppo	Lpleas	Bmasked	CS_B	2pleas	cond_new_pleas_456_masked_CS1	condtest_masked_4	9	25	400	1	300	300	0	0	396	46	0	1	0	0	0	1	blank2r.bmp	0	1	+	0	7	C3r.bmp	492	1	blank2r.bmp	786	1	BXCP	786	1	blank2r.bmp	866	3	keks	866	1	!	1239	1	!	1292	0	0	0	0	0	0	0	0	0	0	0	0	0	0	0	0	0	0	0	0	0	0	0	0	0	0	0
071318	13:53:58	5.0.10.0	167	notassociated	Rpleas_acq	Oppo	Lpleas	Bmasked	CS_B	2pleas	cond_new_pleas_456_masked_CS2	condtest_masked_4	9	26	400	1	300	300	0	0	366	46	0	1	0	0	0	1	blank2r.bmp	0	1	+	0	1	B1r.bmp	492	1	blank2r.bmp	786	1	GFVZ	786	1	blank2r.bmp	866	3	keks	866	1	!	1239	1	!	1266	0	0	0	0	0	0	0	0	0	0	0	0	0	0	0	0	0	0	0	0	0	0	0	0	0	0	0
071318	13:53:58	5.0.10.0	167	notassociated	Rpleas_acq	Oppo	Lpleas	Bmasked	CS_B	2pleas	cond_new_unple_456_masked_CS1	condtest_masked_4	9	27	400	0	300	300	0	0	245	46	0	0	0	0	0	1	blank2r.bmp	0	1	+	0	8	C4r.bmp	492	1	blank2r.bmp	786	1	BXCP	786	1	blank2r.bmp	866	3	eitel	866	1	!	-1	1	!	-1	0	0	0	0	0	0	0	0	0	0	0	0	0	0	0	0	0	0	0	0	0	0	0	0	0	0	0
071318	13:53:58	5.0.10.0	167	notassociated	Rpleas_acq	Oppo	Lpleas	Bmasked	CS_B	2pleas	cond_new_unple_456_masked_CS1	condtest_masked_4	9	28	400	0	300	300	0	0	494	50	0	1	0	0	0	1	blank2r.bmp	0	1	+	0	3	B3r.bmp	492	1	blank2r.bmp	786	1	BXCP	786	1	blank2r.bmp	866	2	schock	866	1	!	1239	1	!	-1	0	0	0	0	0	0	0	0	0	0	0	0	0	0	0	0	0	0	0	0	0	0	0	0	0	0	0
071318	13:53:58	5.0.10.0	167	notassociated	Rpleas_acq	Oppo	Lpleas	Bmasked	CS_B	2pleas	cond_new_pleas_456_masked_CS2	condtest_masked_4	9	29	400	0	300	300	0	0	284	50	0	0	0	0	0	1	blank2r.bmp	0	1	+	0	4	B4r.bmp	492	1	blank2r.bmp	786	1	GFVZ	786	1	blank2r.bmp	866	1	eiche	866	1	!	-1	1	!	-1	0	0	0	0	0	0	0	0	0	0	0	0	0	0	0	0	0	0	0	0	0	0	0	0	0	0	0
071318	13:53:58	5.0.10.0	167	notassociated	Rpleas_acq	Oppo	Lpleas	Bmasked	CS_B	2pleas	cond_US_unple_123_masked_CS1	condtest_masked_4	9	30	400	1	300	300	0	0	369	46	0	0	0	0	0	1	blank2r.bmp	0	1	+	0	5	C1r.bmp	492	1	blank2r.bmp	786	1	BXCP	786	1	blank2r.bmp	866	2	übel	866	1	!	1239	1	!	1266	0	0	0	0	0	0	0	0	0	0	0	0	0	0	0	0	0	0	0	0	0	0	0	0	0	0	0
071318	13:53:58	5.0.10.0	167	notassociated	Rpleas_acq	Oppo	Lpleas	Bmasked	CS_B	2pleas	cond_new_pleas_456_masked_CS1	condtest_masked_4	9	31	400	1	300	300	0	0	379	50	0	0	0	0	0	1	blank2r.bmp	0	1	+	0	6	C2r.bmp	492	1	blank2r.bmp	786	1	BXCP	786	1	blank2r.bmp	866	2	bonbon	866	1	!	1239	1	!	1279	0	0	0	0	0	0	0	0	0	0	0	0	0	0	0	0	0	0	0	0	0	0	0	0	0	0	0
071318	13:53:58	5.0.10.0	167	notassociated	Rpleas_acq	Oppo	Lpleas	Bmasked	CS_B	2pleas	cond_new_pleas_456_masked_CS2	condtest_masked_4	9	32	400	1	300	300	0	0	368	46	0	1	0	0	0	1	blank2r.bmp	0	1	+	0	2	B2r.bmp	492	1	blank2r.bmp	786	1	GFVZ	786	1	blank2r.bmp	866	2	bonbon	866	1	!	1239	1	!	1266	0	0	0	0	0	0	0	0	0	0	0	0	0	0	0	0	0	0	0	0	0	0	0	0	0	0	0
071318	13:53:58	5.0.10.0	167	notassociated	Rpleas_acq	Oppo	Lpleas	Bmasked	CS_B	2pleas	cond_US_pleas_123_masked_CS1	condtest_masked_4	9	33	400	1	300	300	0	0	390	46	0	1	0	0	0	1	blank2r.bmp	0	1	+	0	7	C3r.bmp	492	1	blank2r.bmp	786	1	BXCP	786	1	blank2r.bmp	866	2	liebe	866	1	!	1239	1	!	1292	0	0	0	0	0	0	0	0	0	0	0	0	0	0	0	0	0	0	0	0	0	0	0	0	0	0	0
071318	13:53:58	5.0.10.0	167	notassociated	Rpleas_acq	Oppo	Lpleas	Bmasked	CS_B	2pleas	cond_US_pleas_123_masked_CS2	condtest_masked_4	9	34	400	1	300	300	0	0	372	46	0	1	0	0	0	1	blank2r.bmp	0	1	+	0	5	C1r.bmp	492	1	blank2r.bmp	786	1	GFVZ	786	1	blank2r.bmp	866	1	sonne	866	1	!	1239	1	!	1279	0	0	0	0	0	0	0	0	0	0	0	0	0	0	0	0	0	0	0	0	0	0	0	0	0	0	0
071318	13:53:58	5.0.10.0	167	notassociated	Rpleas_acq	Oppo	Lpleas	Bmasked	CS_B	2pleas	cond_new_pleas_456_masked_CS2	condtest_masked_4	9	35	400	0	300	300	0	0	554	46	0	1	0	0	0	1	blank2r.bmp	0	1	+	0	1	B1r.bmp	492	1	blank2r.bmp	786	1	GFVZ	786	1	blank2r.bmp	866	1	eiche	866	1	!	1239	1	!	-1	0	0	0	0	0	0	0	0	0	0	0	0	0	0	0	0	0	0	0	0	0	0	0	0	0	0	0
071318	13:53:58	5.0.10.0	167	notassociated	Rpleas_acq	Oppo	Lpleas	Bmasked	CS_B	2pleas	cond_new_pleas_456_masked_CS1	condtest_masked_4	9	36	400	1	300	300	0	0	349	46	0	1	0	0	0	1	blank2r.bmp	0	1	+	0	2	B2r.bmp	492	1	blank2r.bmp	786	1	BXCP	786	1	blank2r.bmp	866	3	keks	866	1	!	1239	1	!	1252	0	0	0	0	0	0	0	0	0	0	0	0	0	0	0	0	0	0	0	0	0	0	0	0	0	0	0
071318	13:53:58	5.0.10.0	167	notassociated	Rpleas_acq	Oppo	Lpleas	Bmasked	CS_B	2pleas	cond_US_pleas_123_masked_CS1	condtest_masked_4	9	37	400	1	300	300	0	0	390	46	0	1	0	0	0	1	blank2r.bmp	0	1	+	0	4	B4r.bmp	492	1	blank2r.bmp	786	1	BXCP	786	1	blank2r.bmp	866	2	liebe	866	1	!	1239	1	!	1292	0	0	0	0	0	0	0	0	0	0	0	0	0	0	0	0	0	0	0	0	0	0	0	0	0	0	0
071318	13:53:58	5.0.10.0	167	notassociated	Rpleas_acq	Oppo	Lpleas	Bmasked	CS_B	2pleas	cond_US_unple_123_masked_CS2	condtest_masked_4	9	38	400	0	300	300	0	0	327	46	0	0	0	0	0	1	blank2r.bmp	0	1	+	0	8	C4r.bmp	492	1	blank2r.bmp	786	1	GFVZ	786	1	blank2r.bmp	866	3	pistole	866	1	!	-1	1	!	-1	0	0	0	0	0	0	0	0	0	0	0	0	0	0	0	0	0	0	0	0	0	0	0	0	0	0	0
071318	13:53:58	5.0.10.0	167	notassociated	Rpleas_acq	Oppo	Lpleas	Bmasked	CS_B	2pleas	cond_US_pleas_123_masked_CS1	condtest_masked_4	9	39	400	1	300	300	0	0	443	46	0	1	0	0	0	1	blank2r.bmp	0	1	+	0	6	C2r.bmp	492	1	blank2r.bmp	786	1	BXCP	786	1	blank2r.bmp	866	3	bett	866	1	!	1239	1	!	1346	0	0	0	0	0	0	0	0	0	0	0	0	0	0	0	0	0	0	0	0	0	0	0	0	0	0	0
071318	13:53:58	5.0.10.0	167	notassociated	Rpleas_acq	Oppo	Lpleas	Bmasked	CS_B	2pleas	cond_US_pleas_123_masked_CS2	condtest_masked_4	9	40	400	0	300	300	0	0	324	46	0	1	0	0	0	1	blank2r.bmp	0	1	+	0	3	B3r.bmp	492	1	blank2r.bmp	786	1	GFVZ	786	1	blank2r.bmp	866	1	sonne	866	1	!	-1	1	!	-1	0	0	0	0	0	0	0	0	0	0	0	0	0	0	0	0	0	0	0	0	0	0	0	0	0	0	0
071318	13:53:58	5.0.10.0	167	notassociated	Rpleas_acq	Oppo	Lpleas	Bmasked	CS_B	2pleas	cond_US_unple_123_masked_CS1	condtest_masked_4	9	41	400	1	300	300	0	0	460	50	0	1	0	0	0	1	blank2r.bmp	0	1	+	0	1	B1r.bmp	492	1	blank2r.bmp	786	1	BXCP	786	1	blank2r.bmp	866	1	pleite	866	1	!	1239	1	!	1359	0	0	0	0	0	0	0	0	0	0	0	0	0	0	0	0	0	0	0	0	0	0	0	0	0	0	0
071318	13:53:58	5.0.10.0	167	notassociated	Rpleas_acq	Oppo	Lpleas	Bmasked	CS_B	2pleas	cond_new_unple_456_masked_CS1	condtest_masked_4	9	42	400	1	300	300	0	0	459	46	0	0	0	0	0	1	blank2r.bmp	0	1	+	0	4	B4r.bmp	492	1	blank2r.bmp	786	1	BXCP	786	1	blank2r.bmp	866	1	spott	866	1	!	1239	1	!	1359	0	0	0	0	0	0	0	0	0	0	0	0	0	0	0	0	0	0	0	0	0	0	0	0	0	0	0
071318	13:53:58	5.0.10.0	167	notassociated	Rpleas_acq	Oppo	Lpleas	Bmasked	CS_B	2pleas	cond_new_unple_456_masked_CS2	condtest_masked_4	9	43	400	0	300	300	0	0	479	50	0	1	0	0	0	1	blank2r.bmp	0	1	+	0	3	B3r.bmp	492	1	blank2r.bmp	786	1	GFVZ	786	1	blank2r.bmp	866	2	schock	866	1	!	1239	1	!	-1	0	0	0	0	0	0	0	0	0	0	0	0	0	0	0	0	0	0	0	0	0	0	0	0	0	0	0
071318	13:53:58	5.0.10.0	167	notassociated	Rpleas_acq	Oppo	Lpleas	Bmasked	CS_B	2pleas	cond_US_unple_123_masked_CS2	condtest_masked_4	9	44	400	1	300	300	0	0	370	50	0	1	0	0	0	1	blank2r.bmp	0	1	+	0	8	C4r.bmp	492	1	blank2r.bmp	786	1	GFVZ	786	1	blank2r.bmp	866	2	übel	866	1	!	1239	1	!	1266	0	0	0	0	0	0	0	0	0	0	0	0	0	0	0	0	0	0	0	0	0	0	0	0	0	0	0
071318	13:53:58	5.0.10.0	167	notassociated	Rpleas_acq	Oppo	Lpleas	Bmasked	CS_B	2pleas	cond_new_unple_456_masked_CS1	condtest_masked_4	9	45	400	0	300	300	0	0	488	50	0	1	0	0	0	1	blank2r.bmp	0	1	+	0	2	B2r.bmp	492	1	blank2r.bmp	786	1	BXCP	786	1	blank2r.bmp	866	3	eitel	866	1	!	1239	1	!	-1	0	0	0	0	0	0	0	0	0	0	0	0	0	0	0	0	0	0	0	0	0	0	0	0	0	0	0
071318	13:53:58	5.0.10.0	167	notassociated	Rpleas_acq	Oppo	Lpleas	Bmasked	CS_B	2pleas	cond_new_pleas_456_masked_CS2	condtest_masked_4	9	46	400	1	300	300	0	0	346	46	0	1	0	0	0	1	blank2r.bmp	0	1	+	0	7	C3r.bmp	492	1	blank2r.bmp	786	1	GFVZ	786	1	blank2r.bmp	866	3	keks	866	1	!	1239	1	!	1252	0	0	0	0	0	0	0	0	0	0	0	0	0	0	0	0	0	0	0	0	0	0	0	0	0	0	0
071318	13:53:58	5.0.10.0	167	notassociated	Rpleas_acq	Oppo	Lpleas	Bmasked	CS_B	2pleas	cond_new_pleas_456_masked_CS1	condtest_masked_4	9	47	400	1	300	300	0	0	351	46	0	1	0	0	0	1	blank2r.bmp	0	1	+	0	5	C1r.bmp	492	1	blank2r.bmp	786	1	BXCP	786	1	blank2r.bmp	866	2	bonbon	866	1	!	1239	1	!	1252	0	0	0	0	0	0	0	0	0	0	0	0	0	0	0	0	0	0	0	0	0	0	0	0	0	0	0
071318	13:53:58	5.0.10.0	167	notassociated	Rpleas_acq	Oppo	Lpleas	Bmasked	CS_B	2pleas	cond_new_pleas_456_masked_CS2	condtest_masked_4	9	48	400	1	300	300	0	0	369	46	0	1	0	0	0	1	blank2r.bmp	0	1	+	0	6	C2r.bmp	492	1	blank2r.bmp	786	1	GFVZ	786	1	blank2r.bmp	866	1	eiche	866	1	!	1239	1	!	1266	0	0	0	0	0	0	0	0	0	0	0	0	0	0	0	0	0	0	0	0	0	0	0	0	0	0	0
071318	13:53:58	5.0.10.0	167	notassociated	Rpleas_acq	Oppo	Lpleas	Bmasked	CS_B	2pleas	cond_new_unple_123_masked_CS1	condtest_masked_5	10	1	400	0	300	300	0	0	1402	50	0	1	0	0	0	1	blank2r.bmp	0	1	+	0	2	B2r.bmp	492	1	blank2r.bmp	786	1	BXCP	786	1	blank2r.bmp	866	1	sekte	866	1	!	1239	1	!	-1	0	0	0	0	0	0	0	0	0	0	0	0	0	0	0	0	0	0	0	0	0	0	0	0	0	0	0
071318	13:53:58	5.0.10.0	167	notassociated	Rpleas_acq	Oppo	Lpleas	Bmasked	CS_B	2pleas	cond_US_unple_456_masked_CS1	condtest_masked_5	10	2	400	0	300	300	0	0	489	50	0	1	0	0	0	1	blank2r.bmp	0	1	+	0	8	C4r.bmp	492	1	blank2r.bmp	786	1	BXCP	786	1	blank2r.bmp	866	3	toxisch	866	1	!	1239	1	!	-1	0	0	0	0	0	0	0	0	0	0	0	0	0	0	0	0	0	0	0	0	0	0	0	0	0	0	0
071318	13:53:58	5.0.10.0	167	notassociated	Rpleas_acq	Oppo	Lpleas	Bmasked	CS_B	2pleas	cond_new_unple_123_masked_CS2	condtest_masked_5	10	3	400	1	300	300	0	0	403	50	0	1	0	0	0	1	blank2r.bmp	0	1	+	0	3	B3r.bmp	492	1	blank2r.bmp	786	1	GFVZ	786	1	blank2r.bmp	866	3	stinken	866	1	!	1239	1	!	1306	0	0	0	0	0	0	0	0	0	0	0	0	0	0	0	0	0	0	0	0	0	0	0	0	0	0	0
071318	13:53:58	5.0.10.0	167	notassociated	Rpleas_acq	Oppo	Lpleas	Bmasked	CS_B	2pleas	cond_new_pleas_123_masked_CS2	condtest_masked_5	10	4	400	1	300	300	0	0	417	46	0	1	0	0	0	1	blank2r.bmp	0	1	+	0	1	B1r.bmp	492	1	blank2r.bmp	786	1	GFVZ	786	1	blank2r.bmp	866	1	nähe	866	1	!	1239	1	!	1319	0	0	0	0	0	0	0	0	0	0	0	0	0	0	0	0	0	0	0	0	0	0	0	0	0	0	0
071318	13:53:58	5.0.10.0	167	notassociated	Rpleas_acq	Oppo	Lpleas	Bmasked	CS_B	2pleas	cond_US_unple_456_masked_CS1	condtest_masked_5	10	5	400	1	300	300	0	0	346	46	0	0	0	0	0	1	blank2r.bmp	0	1	+	0	4	B4r.bmp	492	1	blank2r.bmp	786	1	BXCP	786	1	blank2r.bmp	866	1	leiche	866	1	!	1239	1	!	1252	0	0	0	0	0	0	0	0	0	0	0	0	0	0	0	0	0	0	0	0	0	0	0	0	0	0	0
071318	13:53:58	5.0.10.0	167	notassociated	Rpleas_acq	Oppo	Lpleas	Bmasked	CS_B	2pleas	cond_new_unple_123_masked_CS1	condtest_masked_5	10	6	400	0	300	300	0	0	479	50	0	1	0	0	0	1	blank2r.bmp	0	1	+	0	6	C2r.bmp	492	1	blank2r.bmp	786	1	BXCP	786	1	blank2r.bmp	866	2	betteln	866	1	!	1239	1	!	-1	0	0	0	0	0	0	0	0	0	0	0	0	0	0	0	0	0	0	0	0	0	0	0	0	0	0	0
071318	13:53:58	5.0.10.0	167	notassociated	Rpleas_acq	Oppo	Lpleas	Bmasked	CS_B	2pleas	cond_US_pleas_456_masked_CS2	condtest_masked_5	10	7	400	0	300	300	0	0	267	50	0	0	0	0	0	1	blank2r.bmp	0	1	+	0	7	C3r.bmp	492	1	blank2r.bmp	786	1	GFVZ	786	1	blank2r.bmp	866	2	knospe	866	1	!	-1	1	!	-1	0	0	0	0	0	0	0	0	0	0	0	0	0	0	0	0	0	0	0	0	0	0	0	0	0	0	0
071318	13:53:58	5.0.10.0	167	notassociated	Rpleas_acq	Oppo	Lpleas	Bmasked	CS_B	2pleas	cond_new_unple_123_masked_CS1	condtest_masked_5	10	8	400	0	300	300	0	0	196	46	0	0	0	0	0	1	blank2r.bmp	0	1	+	0	5	C1r.bmp	492	1	blank2r.bmp	786	1	BXCP	786	1	blank2r.bmp	866	2	betteln	866	1	!	-1	1	!	-1	0	0	0	0	0	0	0	0	0	0	0	0	0	0	0	0	0	0	0	0	0	0	0	0	0	0	0
071318	13:53:58	5.0.10.0	167	notassociated	Rpleas_acq	Oppo	Lpleas	Bmasked	CS_B	2pleas	cond_new_unple_123_masked_CS1	condtest_masked_5	10	9	400	1	300	300	0	0	361	50	0	1	0	0	0	1	blank2r.bmp	0	1	+	0	6	C2r.bmp	492	1	blank2r.bmp	786	1	BXCP	786	1	blank2r.bmp	866	1	sekte	866	1	!	1239	1	!	1266	0	0	0	0	0	0	0	0	0	0	0	0	0	0	0	0	0	0	0	0	0	0	0	0	0	0	0
071318	13:53:58	5.0.10.0	167	notassociated	Rpleas_acq	Oppo	Lpleas	Bmasked	CS_B	2pleas	cond_US_unple_456_masked_CS2	condtest_masked_5	10	10	400	1	300	300	0	0	419	50	0	1	0	0	0	1	blank2r.bmp	0	1	+	0	2	B2r.bmp	492	1	blank2r.bmp	786	1	GFVZ	786	1	blank2r.bmp	866	2	pest	866	1	!	1239	1	!	1319	0	0	0	0	0	0	0	0	0	0	0	0	0	0	0	0	0	0	0	0	0	0	0	0	0	0	0
