date	time	build	subject	expressions.associated	expressions.LRpleas_acq	expressions.SameOppo	expressions.condition_Lpleas	expressions.ABmasked	expressions.conditionCS_A	expressions.condition_1pleas	trialcode	blockcode	blocknum	trialnum	windowcenter	inwindow	pretrialpause	posttrialpause	trialduration	trialtimeout	latency	response	expressions.correctedscore	correct	values.vis_performance	values.vis_rating_sum	values.vis_rating_mean	stimulusnumber1	stimulusitem1	stimulusonset1	stimulusnumber2	stimulusitem2	stimulusonset2	stimulusnumber3	stimulusitem3	stimulusonset3	stimulusnumber4	stimulusitem4	stimulusonset4	stimulusnumber5	stimulusitem5	stimulusonset5	stimulusnumber6	stimulusitem6	stimulusonset6	stimulusnumber7	stimulusitem7	stimulusonset7	stimulusnumber8	stimulusitem8	stimulusonset8	stimulusnumber9	stimulusitem9	stimulusonset9	stimulusnumber10	stimulusitem10	stimulusonset10	stimulusnumber11	stimulusitem11	stimulusonset11	stimulusnumber12	stimulusitem12	stimulusonset12	stimulusnumber13	stimulusitem13	stimulusonset13	stimulusnumber14	stimulusitem14	stimulusonset14	stimulusnumber15	stimulusitem15	stimulusonset15	stimulusnumber16	stimulusitem16	stimulusonset16	stimulusnumber17	stimulusitem17	stimulusonset17	stimulusnumber18	stimulusitem18	stimulusonset18
073018	10:19:37	5.0.10.0	209	associated	Rpleas_acq	Same	Rpleas	Amasked	CS_A	2pleas	acq_pleas_masked	acq1_masked	1	1	0	0	300	300	0	0	768	50	0	1	0	0	0	1	blank2r.bmp	0	1	+	0	4	B4r.bmp	492	1	blank2r.bmp	786	1	DJMR	786	1	blank2r.bmp	866	6	frieden	866	0	0	0	0	0	0	0	0	0	0	0	0	0	0	0	0	0	0	0	0	0	0	0	0	0	0	0	0	0	0	0	0	0
073018	10:19:37	5.0.10.0	209	associated	Rpleas_acq	Same	Rpleas	Amasked	CS_A	2pleas	acq_unple_masked	acq1_masked	1	2	0	0	300	300	0	0	563	46	0	1	0	0	0	1	blank2r.bmp	0	1	+	0	1	B1r.bmp	492	1	blank2r.bmp	786	1	HLST	786	1	blank2r.bmp	866	4	wunde	866	0	0	0	0	0	0	0	0	0	0	0	0	0	0	0	0	0	0	0	0	0	0	0	0	0	0	0	0	0	0	0	0	0
073018	10:19:37	5.0.10.0	209	associated	Rpleas_acq	Same	Rpleas	Amasked	CS_A	2pleas	acq_unple_masked	acq1_masked	1	3	0	0	300	300	0	0	477	46	0	1	0	0	0	1	blank2r.bmp	0	1	+	0	5	C1r.bmp	492	1	blank2r.bmp	786	1	HLST	786	1	blank2r.bmp	866	1	zwang	866	0	0	0	0	0	0	0	0	0	0	0	0	0	0	0	0	0	0	0	0	0	0	0	0	0	0	0	0	0	0	0	0	0
073018	10:19:37	5.0.10.0	209	associated	Rpleas_acq	Same	Rpleas	Amasked	CS_A	2pleas	acq_unple_masked	acq1_masked	1	4	0	0	300	300	0	0	592	46	0	1	0	0	0	1	blank2r.bmp	0	1	+	0	6	C2r.bmp	492	1	blank2r.bmp	786	1	HLST	786	1	blank2r.bmp	866	6	armee	866	0	0	0	0	0	0	0	0	0	0	0	0	0	0	0	0	0	0	0	0	0	0	0	0	0	0	0	0	0	0	0	0	0
073018	10:19:37	5.0.10.0	209	associated	Rpleas_acq	Same	Rpleas	Amasked	CS_A	2pleas	acq_pleas_masked	acq1_masked	1	5	0	0	300	300	0	0	398	46	0	0	0	0	0	1	blank2r.bmp	0	1	+	0	2	B2r.bmp	492	1	blank2r.bmp	786	1	DJMR	786	1	blank2r.bmp	866	2	meer	866	1	FEHLER	1292	0	0	0	0	0	0	0	0	0	0	0	0	0	0	0	0	0	0	0	0	0	0	0	0	0	0	0	0	0	0
073018	10:19:37	5.0.10.0	209	associated	Rpleas_acq	Same	Rpleas	Amasked	CS_A	2pleas	acq_unple_masked	acq1_masked	1	6	0	0	300	300	0	0	465	46	0	1	0	0	0	1	blank2r.bmp	0	1	+	0	7	C3r.bmp	492	1	blank2r.bmp	786	1	HLST	786	1	blank2r.bmp	866	2	geiz	866	0	0	0	0	0	0	0	0	0	0	0	0	0	0	0	0	0	0	0	0	0	0	0	0	0	0	0	0	0	0	0	0	0
073018	10:19:37	5.0.10.0	209	associated	Rpleas_acq	Same	Rpleas	Amasked	CS_A	2pleas	acq_pleas_masked	acq1_masked	1	7	0	0	300	300	0	0	591	50	0	1	0	0	0	1	blank2r.bmp	0	1	+	0	3	B3r.bmp	492	1	blank2r.bmp	786	1	DJMR	786	1	blank2r.bmp	866	1	wein	866	0	0	0	0	0	0	0	0	0	0	0	0	0	0	0	0	0	0	0	0	0	0	0	0	0	0	0	0	0	0	0	0	0
073018	10:19:37	5.0.10.0	209	associated	Rpleas_acq	Same	Rpleas	Amasked	CS_A	2pleas	acq_pleas_masked	acq1_masked	1	8	0	0	300	300	0	0	580	50	0	1	0	0	0	1	blank2r.bmp	0	1	+	0	8	C4r.bmp	492	1	blank2r.bmp	786	1	DJMR	786	1	blank2r.bmp	866	5	jugend	866	0	0	0	0	0	0	0	0	0	0	0	0	0	0	0	0	0	0	0	0	0	0	0	0	0	0	0	0	0	0	0	0	0
073018	10:19:37	5.0.10.0	209	associated	Rpleas_acq	Same	Rpleas	Amasked	CS_A	2pleas	acq_pleas_masked	acq1_masked	1	9	0	0	300	300	0	0	694	50	0	1	0	0	0	1	blank2r.bmp	0	1	+	0	1	B1r.bmp	492	1	blank2r.bmp	786	1	DJMR	786	1	blank2r.bmp	866	3	erfinder	866	0	0	0	0	0	0	0	0	0	0	0	0	0	0	0	0	0	0	0	0	0	0	0	0	0	0	0	0	0	0	0	0	0
073018	10:19:37	5.0.10.0	209	associated	Rpleas_acq	Same	Rpleas	Amasked	CS_A	2pleas	acq_unple_masked	acq1_masked	1	10	0	0	300	300	0	0	570	46	0	1	0	0	0	1	blank2r.bmp	0	1	+	0	4	B4r.bmp	492	1	blank2r.bmp	786	1	HLST	786	1	blank2r.bmp	866	5	gegner	866	0	0	0	0	0	0	0	0	0	0	0	0	0	0	0	0	0	0	0	0	0	0	0	0	0	0	0	0	0	0	0	0	0
073018	10:19:37	5.0.10.0	209	associated	Rpleas_acq	Same	Rpleas	Amasked	CS_A	2pleas	acq_pleas_masked	acq1_masked	1	11	0	0	300	300	0	0	513	50	0	1	0	0	0	1	blank2r.bmp	0	1	+	0	2	B2r.bmp	492	1	blank2r.bmp	786	1	DJMR	786	1	blank2r.bmp	866	4	mama	866	0	0	0	0	0	0	0	0	0	0	0	0	0	0	0	0	0	0	0	0	0	0	0	0	0	0	0	0	0	0	0	0	0
073018	10:19:37	5.0.10.0	209	associated	Rpleas_acq	Same	Rpleas	Amasked	CS_A	2pleas	acq_pleas_masked	acq1_masked	1	12	0	0	300	300	0	0	509	50	0	1	0	0	0	1	blank2r.bmp	0	1	+	0	8	C4r.bmp	492	1	blank2r.bmp	786	1	DJMR	786	1	blank2r.bmp	866	2	meer	866	0	0	0	0	0	0	0	0	0	0	0	0	0	0	0	0	0	0	0	0	0	0	0	0	0	0	0	0	0	0	0	0	0
073018	10:19:37	5.0.10.0	209	associated	Rpleas_acq	Same	Rpleas	Amasked	CS_A	2pleas	acq_unple_masked	acq1_masked	1	13	0	0	300	300	0	0	603	46	0	1	0	0	0	1	blank2r.bmp	0	1	+	0	6	C2r.bmp	492	1	blank2r.bmp	786	1	HLST	786	1	blank2r.bmp	866	3	narr	866	0	0	0	0	0	0	0	0	0	0	0	0	0	0	0	0	0	0	0	0	0	0	0	0	0	0	0	0	0	0	0	0	0
073018	10:19:37	5.0.10.0	209	associated	Rpleas_acq	Same	Rpleas	Amasked	CS_A	2pleas	acq_unple_masked	acq1_masked	1	14	0	0	300	300	0	0	341	46	0	1	0	0	0	1	blank2r.bmp	0	1	+	0	3	B3r.bmp	492	1	blank2r.bmp	786	1	HLST	786	1	blank2r.bmp	866	3	narr	866	0	0	0	0	0	0	0	0	0	0	0	0	0	0	0	0	0	0	0	0	0	0	0	0	0	0	0	0	0	0	0	0	0
073018	10:19:37	5.0.10.0	209	associated	Rpleas_acq	Same	Rpleas	Amasked	CS_A	2pleas	acq_pleas_masked	acq1_masked	1	15	0	0	300	300	0	0	434	50	0	1	0	0	0	1	blank2r.bmp	0	1	+	0	5	C1r.bmp	492	1	blank2r.bmp	786	1	DJMR	786	1	blank2r.bmp	866	1	wein	866	0	0	0	0	0	0	0	0	0	0	0	0	0	0	0	0	0	0	0	0	0	0	0	0	0	0	0	0	0	0	0	0	0
073018	10:19:37	5.0.10.0	209	associated	Rpleas_acq	Same	Rpleas	Amasked	CS_A	2pleas	acq_unple_masked	acq1_masked	1	16	0	0	300	300	0	0	517	46	0	1	0	0	0	1	blank2r.bmp	0	1	+	0	7	C3r.bmp	492	1	blank2r.bmp	786	1	HLST	786	1	blank2r.bmp	866	2	geiz	866	0	0	0	0	0	0	0	0	0	0	0	0	0	0	0	0	0	0	0	0	0	0	0	0	0	0	0	0	0	0	0	0	0
073018	10:19:37	5.0.10.0	209	associated	Rpleas_acq	Same	Rpleas	Amasked	CS_A	2pleas	acq_unple_masked	acq1_masked	1	17	0	0	300	300	0	0	450	50	0	0	0	0	0	1	blank2r.bmp	0	1	+	0	7	C3r.bmp	492	1	blank2r.bmp	786	1	HLST	786	1	blank2r.bmp	866	4	wunde	866	1	FEHLER	1346	0	0	0	0	0	0	0	0	0	0	0	0	0	0	0	0	0	0	0	0	0	0	0	0	0	0	0	0	0	0
073018	10:19:37	5.0.10.0	209	associated	Rpleas_acq	Same	Rpleas	Amasked	CS_A	2pleas	acq_pleas_masked	acq1_masked	1	18	0	0	300	300	0	0	454	50	0	1	0	0	0	1	blank2r.bmp	0	1	+	0	2	B2r.bmp	492	1	blank2r.bmp	786	1	DJMR	786	1	blank2r.bmp	866	4	mama	866	0	0	0	0	0	0	0	0	0	0	0	0	0	0	0	0	0	0	0	0	0	0	0	0	0	0	0	0	0	0	0	0	0
073018	10:19:37	5.0.10.0	209	associated	Rpleas_acq	Same	Rpleas	Amasked	CS_A	2pleas	acq_unple_masked	acq1_masked	1	19	0	0	300	300	0	0	367	46	0	1	0	0	0	1	blank2r.bmp	0	1	+	0	6	C2r.bmp	492	1	blank2r.bmp	786	1	HLST	786	1	blank2r.bmp	866	1	zwang	866	0	0	0	0	0	0	0	0	0	0	0	0	0	0	0	0	0	0	0	0	0	0	0	0	0	0	0	0	0	0	0	0	0
073018	10:19:37	5.0.10.0	209	associated	Rpleas_acq	Same	Rpleas	Amasked	CS_A	2pleas	acq_unple_masked	acq1_masked	1	20	0	0	300	300	0	0	353	46	0	1	0	0	0	1	blank2r.bmp	0	1	+	0	5	C1r.bmp	492	1	blank2r.bmp	786	1	HLST	786	1	blank2r.bmp	866	6	armee	866	0	0	0	0	0	0	0	0	0	0	0	0	0	0	0	0	0	0	0	0	0	0	0	0	0	0	0	0	0	0	0	0	0
073018	10:19:37	5.0.10.0	209	associated	Rpleas_acq	Same	Rpleas	Amasked	CS_A	2pleas	acq_pleas_masked	acq1_masked	1	21	0	0	300	300	0	0	324	46	0	0	0	0	0	1	blank2r.bmp	0	1	+	0	3	B3r.bmp	492	1	blank2r.bmp	786	1	DJMR	786	1	blank2r.bmp	866	3	erfinder	866	1	FEHLER	1226	0	0	0	0	0	0	0	0	0	0	0	0	0	0	0	0	0	0	0	0	0	0	0	0	0	0	0	0	0	0
073018	10:19:37	5.0.10.0	209	associated	Rpleas_acq	Same	Rpleas	Amasked	CS_A	2pleas	acq_pleas_masked	acq1_masked	1	22	0	0	300	300	0	0	437	46	0	0	0	0	0	1	blank2r.bmp	0	1	+	0	8	C4r.bmp	492	1	blank2r.bmp	786	1	DJMR	786	1	blank2r.bmp	866	5	jugend	866	1	FEHLER	1332	0	0	0	0	0	0	0	0	0	0	0	0	0	0	0	0	0	0	0	0	0	0	0	0	0	0	0	0	0	0
073018	10:19:37	5.0.10.0	209	associated	Rpleas_acq	Same	Rpleas	Amasked	CS_A	2pleas	acq_unple_masked	acq1_masked	1	23	0	0	300	300	0	0	523	46	0	1	0	0	0	1	blank2r.bmp	0	1	+	0	1	B1r.bmp	492	1	blank2r.bmp	786	1	HLST	786	1	blank2r.bmp	866	5	gegner	866	0	0	0	0	0	0	0	0	0	0	0	0	0	0	0	0	0	0	0	0	0	0	0	0	0	0	0	0	0	0	0	0	0
073018	10:19:37	5.0.10.0	209	associated	Rpleas_acq	Same	Rpleas	Amasked	CS_A	2pleas	acq_pleas_masked	acq1_masked	1	24	0	0	300	300	0	0	376	50	0	1	0	0	0	1	blank2r.bmp	0	1	+	0	4	B4r.bmp	492	1	blank2r.bmp	786	1	DJMR	786	1	blank2r.bmp	866	6	frieden	866	0	0	0	0	0	0	0	0	0	0	0	0	0	0	0	0	0	0	0	0	0	0	0	0	0	0	0	0	0	0	0	0	0
073018	10:19:37	5.0.10.0	209	associated	Rpleas_acq	Same	Rpleas	Amasked	CS_A	2pleas	acq_pleas_masked	acq2_masked	2	1	480	0	300	300	0	0	614	46	0	0	0	0	0	1	blank2r.bmp	0	1	+	0	4	B4r.bmp	492	1	blank2r.bmp	786	1	DJMR	786	1	blank2r.bmp	866	5	jugend	866	1	FEHLER	1825	1	!	1319	1	!	-1	0	0	0	0	0	0	0	0	0	0	0	0	0	0	0	0	0	0	0	0	0	0	0	0
073018	10:19:37	5.0.10.0	209	associated	Rpleas_acq	Same	Rpleas	Amasked	CS_A	2pleas	acq_pleas_masked	acq2_masked	2	2	480	1	300	300	0	0	426	50	0	1	0	0	0	1	blank2r.bmp	0	1	+	0	8	C4r.bmp	492	1	blank2r.bmp	786	1	DJMR	786	1	blank2r.bmp	866	6	frieden	866	1	!	1319	1	!	1332	0	0	0	0	0	0	0	0	0	0	0	0	0	0	0	0	0	0	0	0	0	0	0	0	0	0	0
073018	10:19:37	5.0.10.0	209	associated	Rpleas_acq	Same	Rpleas	Amasked	CS_A	2pleas	acq_unple_masked	acq2_masked	2	3	480	0	300	300	0	0	372	46	0	1	0	0	0	1	blank2r.bmp	0	1	+	0	7	C3r.bmp	492	1	blank2r.bmp	786	1	HLST	786	1	blank2r.bmp	866	4	wunde	866	1	!	-1	1	!	-1	0	0	0	0	0	0	0	0	0	0	0	0	0	0	0	0	0	0	0	0	0	0	0	0	0	0	0
073018	10:19:37	5.0.10.0	209	associated	Rpleas_acq	Same	Rpleas	Amasked	CS_A	2pleas	acq_unple_masked	acq2_masked	2	4	480	0	300	300	0	0	742	46	0	1	0	0	0	1	blank2r.bmp	0	1	+	0	3	B3r.bmp	492	1	blank2r.bmp	786	1	HLST	786	1	blank2r.bmp	866	2	geiz	866	1	!	1319	1	!	-1	0	0	0	0	0	0	0	0	0	0	0	0	0	0	0	0	0	0	0	0	0	0	0	0	0	0	0
073018	10:19:37	5.0.10.0	209	associated	Rpleas_acq	Same	Rpleas	Amasked	CS_A	2pleas	acq_unple_masked	acq2_masked	2	5	480	1	300	300	0	0	468	46	0	1	0	0	0	1	blank2r.bmp	0	1	+	0	1	B1r.bmp	492	1	blank2r.bmp	786	1	HLST	786	1	blank2r.bmp	866	3	narr	866	1	!	1319	1	!	1372	0	0	0	0	0	0	0	0	0	0	0	0	0	0	0	0	0	0	0	0	0	0	0	0	0	0	0
073018	10:19:37	5.0.10.0	209	associated	Rpleas_acq	Same	Rpleas	Amasked	CS_A	2pleas	acq_pleas_masked	acq2_masked	2	6	480	0	300	300	0	0	596	50	0	1	0	0	0	1	blank2r.bmp	0	1	+	0	6	C2r.bmp	492	1	blank2r.bmp	786	1	DJMR	786	1	blank2r.bmp	866	3	erfinder	866	1	!	1319	1	!	-1	0	0	0	0	0	0	0	0	0	0	0	0	0	0	0	0	0	0	0	0	0	0	0	0	0	0	0
073018	10:19:37	5.0.10.0	209	associated	Rpleas_acq	Same	Rpleas	Amasked	CS_A	2pleas	acq_pleas_masked	acq2_masked	2	7	480	0	300	300	0	0	700	50	0	1	0	0	0	1	blank2r.bmp	0	1	+	0	2	B2r.bmp	492	1	blank2r.bmp	786	1	DJMR	786	1	blank2r.bmp	866	1	wein	866	1	!	1319	1	!	-1	0	0	0	0	0	0	0	0	0	0	0	0	0	0	0	0	0	0	0	0	0	0	0	0	0	0	0
073018	10:19:37	5.0.10.0	209	associated	Rpleas_acq	Same	Rpleas	Amasked	CS_A	2pleas	acq_unple_masked	acq2_masked	2	8	480	1	300	300	0	0	442	46	0	1	0	0	0	1	blank2r.bmp	0	1	+	0	5	C1r.bmp	492	1	blank2r.bmp	786	1	HLST	786	1	blank2r.bmp	866	1	zwang	866	1	!	1319	1	!	1346	0	0	0	0	0	0	0	0	0	0	0	0	0	0	0	0	0	0	0	0	0	0	0	0	0	0	0
073018	10:19:37	5.0.10.0	209	associated	Rpleas_acq	Same	Rpleas	Amasked	CS_A	2pleas	acq_unple_masked	acq2_masked	2	9	480	0	300	300	0	0	762	46	0	1	0	0	0	1	blank2r.bmp	0	1	+	0	8	C4r.bmp	492	1	blank2r.bmp	786	1	HLST	786	1	blank2r.bmp	866	5	gegner	866	1	!	1319	1	!	-1	0	0	0	0	0	0	0	0	0	0	0	0	0	0	0	0	0	0	0	0	0	0	0	0	0	0	0
073018	10:19:37	5.0.10.0	209	associated	Rpleas_acq	Same	Rpleas	Amasked	CS_A	2pleas	acq_unple_masked	acq2_masked	2	10	480	0	300	300	0	0	347	46	0	1	0	0	0	1	blank2r.bmp	0	1	+	0	6	C2r.bmp	492	1	blank2r.bmp	786	1	HLST	786	1	blank2r.bmp	866	6	armee	866	1	!	-1	1	!	-1	0	0	0	0	0	0	0	0	0	0	0	0	0	0	0	0	0	0	0	0	0	0	0	0	0	0	0
073018	10:19:37	5.0.10.0	209	associated	Rpleas_acq	Same	Rpleas	Amasked	CS_A	2pleas	acq_pleas_masked	acq2_masked	2	11	480	1	300	300	0	0	429	50	0	1	0	0	0	1	blank2r.bmp	0	1	+	0	1	B1r.bmp	492	1	blank2r.bmp	786	1	DJMR	786	1	blank2r.bmp	866	4	mama	866	1	!	1319	1	!	1332	0	0	0	0	0	0	0	0	0	0	0	0	0	0	0	0	0	0	0	0	0	0	0	0	0	0	0
073018	10:19:37	5.0.10.0	209	associated	Rpleas_acq	Same	Rpleas	Amasked	CS_A	2pleas	acq_pleas_masked	acq2_masked	2	12	480	1	300	300	0	0	517	50	0	1	0	0	0	1	blank2r.bmp	0	1	+	0	7	C3r.bmp	492	1	blank2r.bmp	786	1	DJMR	786	1	blank2r.bmp	866	2	meer	866	1	!	1319	1	!	1412	0	0	0	0	0	0	0	0	0	0	0	0	0	0	0	0	0	0	0	0	0	0	0	0	0	0	0
073018	10:19:37	5.0.10.0	209	associated	Rpleas_acq	Same	Rpleas	Amasked	CS_A	2pleas	acq_pleas_masked	acq2_masked	2	13	480	0	300	300	0	0	666	46	0	0	0	0	0	1	blank2r.bmp	0	1	+	0	5	C1r.bmp	492	1	blank2r.bmp	786	1	DJMR	786	1	blank2r.bmp	866	1	wein	866	1	FEHLER	1879	1	!	1319	1	!	-1	0	0	0	0	0	0	0	0	0	0	0	0	0	0	0	0	0	0	0	0	0	0	0	0
073018	10:19:37	5.0.10.0	209	associated	Rpleas_acq	Same	Rpleas	Amasked	CS_A	2pleas	acq_unple_masked	acq2_masked	2	14	480	0	300	300	0	0	618	46	0	1	0	0	0	1	blank2r.bmp	0	1	+	0	2	B2r.bmp	492	1	blank2r.bmp	786	1	HLST	786	1	blank2r.bmp	866	2	geiz	866	1	!	1319	1	!	-1	0	0	0	0	0	0	0	0	0	0	0	0	0	0	0	0	0	0	0	0	0	0	0	0	0	0	0
073018	10:19:37	5.0.10.0	209	associated	Rpleas_acq	Same	Rpleas	Amasked	CS_A	2pleas	acq_pleas_masked	acq2_masked	2	15	480	1	300	300	0	0	426	46	0	0	0	0	0	1	blank2r.bmp	0	1	+	0	4	B4r.bmp	492	1	blank2r.bmp	786	1	DJMR	786	1	blank2r.bmp	866	3	erfinder	866	1	FEHLER	1652	1	!	1319	1	!	1332	0	0	0	0	0	0	0	0	0	0	0	0	0	0	0	0	0	0	0	0	0	0	0	0
073018	10:19:37	5.0.10.0	209	associated	Rpleas_acq	Same	Rpleas	Amasked	CS_A	2pleas	acq_unple_masked	acq2_masked	2	16	480	0	300	300	0	0	671	50	0	0	0	0	0	1	blank2r.bmp	0	1	+	0	3	B3r.bmp	492	1	blank2r.bmp	786	1	HLST	786	1	blank2r.bmp	866	4	wunde	866	1	FEHLER	1879	1	!	1319	1	!	-1	0	0	0	0	0	0	0	0	0	0	0	0	0	0	0	0	0	0	0	0	0	0	0	0
073018	10:19:37	5.0.10.0	209	associated	Rpleas_acq	Same	Rpleas	Amasked	CS_A	2pleas	acq_pleas_masked	acq2_masked	2	17	480	0	300	300	0	0	634	50	0	1	0	0	0	1	blank2r.bmp	0	1	+	0	4	B4r.bmp	492	1	blank2r.bmp	786	1	DJMR	786	1	blank2r.bmp	866	6	frieden	866	1	!	1319	1	!	-1	0	0	0	0	0	0	0	0	0	0	0	0	0	0	0	0	0	0	0	0	0	0	0	0	0	0	0
073018	10:19:37	5.0.10.0	209	associated	Rpleas_acq	Same	Rpleas	Amasked	CS_A	2pleas	acq_unple_masked	acq2_masked	2	18	480	0	300	300	0	0	655	46	0	1	0	0	0	1	blank2r.bmp	0	1	+	0	6	C2r.bmp	492	1	blank2r.bmp	786	1	HLST	786	1	blank2r.bmp	866	5	gegner	866	1	!	1319	1	!	-1	0	0	0	0	0	0	0	0	0	0	0	0	0	0	0	0	0	0	0	0	0	0	0	0	0	0	0
073018	10:19:37	5.0.10.0	209	associated	Rpleas_acq	Same	Rpleas	Amasked	CS_A	2pleas	acq_unple_masked	acq2_masked	2	19	480	0	300	300	0	0	295	46	0	1	0	0	0	1	blank2r.bmp	0	1	+	0	5	C1r.bmp	492	1	blank2r.bmp	786	1	HLST	786	1	blank2r.bmp	866	3	narr	866	1	!	-1	1	!	-1	0	0	0	0	0	0	0	0	0	0	0	0	0	0	0	0	0	0	0	0	0	0	0	0	0	0	0
073018	10:19:37	5.0.10.0	209	associated	Rpleas_acq	Same	Rpleas	Amasked	CS_A	2pleas	acq_unple_masked	acq2_masked	2	20	480	1	300	300	0	0	426	46	0	1	0	0	0	1	blank2r.bmp	0	1	+	0	7	C3r.bmp	492	1	blank2r.bmp	786	1	HLST	786	1	blank2r.bmp	866	6	armee	866	1	!	1319	1	!	1332	0	0	0	0	0	0	0	0	0	0	0	0	0	0	0	0	0	0	0	0	0	0	0	0	0	0	0
073018	10:19:37	5.0.10.0	209	associated	Rpleas_acq	Same	Rpleas	Amasked	CS_A	2pleas	acq_unple_masked	acq2_masked	2	21	480	1	300	300	0	0	426	46	0	1	0	0	0	1	blank2r.bmp	0	1	+	0	1	B1r.bmp	492	1	blank2r.bmp	786	1	HLST	786	1	blank2r.bmp	866	1	zwang	866	1	!	1319	1	!	1332	0	0	0	0	0	0	0	0	0	0	0	0	0	0	0	0	0	0	0	0	0	0	0	0	0	0	0
073018	10:19:37	5.0.10.0	209	associated	Rpleas_acq	Same	Rpleas	Amasked	CS_A	2pleas	acq_pleas_masked	acq2_masked	2	22	480	1	300	300	0	0	457	50	0	1	0	0	0	1	blank2r.bmp	0	1	+	0	3	B3r.bmp	492	1	blank2r.bmp	786	1	DJMR	786	1	blank2r.bmp	866	2	meer	866	1	!	1319	1	!	1359	0	0	0	0	0	0	0	0	0	0	0	0	0	0	0	0	0	0	0	0	0	0	0	0	0	0	0
073018	10:19:37	5.0.10.0	209	associated	Rpleas_acq	Same	Rpleas	Amasked	CS_A	2pleas	acq_pleas_masked	acq2_masked	2	23	480	1	300	300	0	0	495	50	0	1	0	0	0	1	blank2r.bmp	0	1	+	0	2	B2r.bmp	492	1	blank2r.bmp	786	1	DJMR	786	1	blank2r.bmp	866	5	jugend	866	1	!	1319	1	!	1399	0	0	0	0	0	0	0	0	0	0	0	0	0	0	0	0	0	0	0	0	0	0	0	0	0	0	0
073018	10:19:37	5.0.10.0	209	associated	Rpleas_acq	Same	Rpleas	Amasked	CS_A	2pleas	acq_pleas_masked	acq2_masked	2	24	480	0	300	300	0	0	574	50	0	1	0	0	0	1	blank2r.bmp	0	1	+	0	8	C4r.bmp	492	1	blank2r.bmp	786	1	DJMR	786	1	blank2r.bmp	866	4	mama	866	1	!	1319	1	!	-1	0	0	0	0	0	0	0	0	0	0	0	0	0	0	0	0	0	0	0	0	0	0	0	0	0	0	0
073018	10:19:37	5.0.10.0	209	associated	Rpleas_acq	Same	Rpleas	Amasked	CS_A	2pleas	acq_pleas_masked	acq3_masked	3	1	453	0	300	300	0	0	241	50	0	1	0	0	0	1	blank2r.bmp	0	1	+	0	7	C3r.bmp	492	1	blank2r.bmp	786	1	DJMR	786	1	blank2r.bmp	866	4	mama	866	1	!	-1	1	!	-1	0	0	0	0	0	0	0	0	0	0	0	0	0	0	0	0	0	0	0	0	0	0	0	0	0	0	0
073018	10:19:37	5.0.10.0	209	associated	Rpleas_acq	Same	Rpleas	Amasked	CS_A	2pleas	acq_unple_masked	acq3_masked	3	2	453	1	300	300	0	0	469	46	0	1	0	0	0	1	blank2r.bmp	0	1	+	0	3	B3r.bmp	492	1	blank2r.bmp	786	1	HLST	786	1	blank2r.bmp	866	3	narr	866	1	!	1292	1	!	1372	0	0	0	0	0	0	0	0	0	0	0	0	0	0	0	0	0	0	0	0	0	0	0	0	0	0	0
073018	10:19:37	5.0.10.0	209	associated	Rpleas_acq	Same	Rpleas	Amasked	CS_A	2pleas	acq_pleas_masked	acq3_masked	3	3	453	0	300	300	0	0	561	50	0	1	0	0	0	1	blank2r.bmp	0	1	+	0	8	C4r.bmp	492	1	blank2r.bmp	786	1	DJMR	786	1	blank2r.bmp	866	1	wein	866	1	!	1292	1	!	-1	0	0	0	0	0	0	0	0	0	0	0	0	0	0	0	0	0	0	0	0	0	0	0	0	0	0	0
073018	10:19:37	5.0.10.0	209	associated	Rpleas_acq	Same	Rpleas	Amasked	CS_A	2pleas	acq_pleas_masked	acq3_masked	3	4	453	0	300	300	0	0	532	50	0	1	0	0	0	1	blank2r.bmp	0	1	+	0	4	B4r.bmp	492	1	blank2r.bmp	786	1	DJMR	786	1	blank2r.bmp	866	5	jugend	866	1	!	1292	1	!	-1	0	0	0	0	0	0	0	0	0	0	0	0	0	0	0	0	0	0	0	0	0	0	0	0	0	0	0
073018	10:19:37	5.0.10.0	209	associated	Rpleas_acq	Same	Rpleas	Amasked	CS_A	2pleas	acq_unple_masked	acq3_masked	3	5	453	1	300	300	0	0	475	46	0	1	0	0	0	1	blank2r.bmp	0	1	+	0	6	C2r.bmp	492	1	blank2r.bmp	786	1	HLST	786	1	blank2r.bmp	866	6	armee	866	1	!	1292	1	!	1372	0	0	0	0	0	0	0	0	0	0	0	0	0	0	0	0	0	0	0	0	0	0	0	0	0	0	0
073018	10:19:37	5.0.10.0	209	associated	Rpleas_acq	Same	Rpleas	Amasked	CS_A	2pleas	acq_pleas_masked	acq3_masked	3	6	453	0	300	300	0	0	543	50	0	1	0	0	0	1	blank2r.bmp	0	1	+	0	1	B1r.bmp	492	1	blank2r.bmp	786	1	DJMR	786	1	blank2r.bmp	866	3	erfinder	866	1	!	1292	1	!	-1	0	0	0	0	0	0	0	0	0	0	0	0	0	0	0	0	0	0	0	0	0	0	0	0	0	0	0
073018	10:19:37	5.0.10.0	209	associated	Rpleas_acq	Same	Rpleas	Amasked	CS_A	2pleas	acq_pleas_masked	acq3_masked	3	7	453	0	300	300	0	0	304	50	0	1	0	0	0	1	blank2r.bmp	0	1	+	0	5	C1r.bmp	492	1	blank2r.bmp	786	1	DJMR	786	1	blank2r.bmp	866	6	frieden	866	1	!	-1	1	!	-1	0	0	0	0	0	0	0	0	0	0	0	0	0	0	0	0	0	0	0	0	0	0	0	0	0	0	0
073018	10:19:37	5.0.10.0	209	associated	Rpleas_acq	Same	Rpleas	Amasked	CS_A	2pleas	acq_unple_masked	acq3_masked	3	8	453	1	300	300	0	0	424	46	0	1	0	0	0	1	blank2r.bmp	0	1	+	0	2	B2r.bmp	492	1	blank2r.bmp	786	1	HLST	786	1	blank2r.bmp	866	5	gegner	866	1	!	1292	1	!	1319	0	0	0	0	0	0	0	0	0	0	0	0	0	0	0	0	0	0	0	0	0	0	0	0	0	0	0
073018	10:19:37	5.0.10.0	209	associated	Rpleas_acq	Same	Rpleas	Amasked	CS_A	2pleas	acq_pleas_masked	acq3_masked	3	9	453	1	300	300	0	0	443	50	0	1	0	0	0	1	blank2r.bmp	0	1	+	0	7	C3r.bmp	492	1	blank2r.bmp	786	1	DJMR	786	1	blank2r.bmp	866	2	meer	866	1	!	1292	1	!	1346	0	0	0	0	0	0	0	0	0	0	0	0	0	0	0	0	0	0	0	0	0	0	0	0	0	0	0
073018	10:19:37	5.0.10.0	209	associated	Rpleas_acq	Same	Rpleas	Amasked	CS_A	2pleas	acq_unple_masked	acq3_masked	3	10	453	0	300	300	0	0	532	46	0	1	0	0	0	1	blank2r.bmp	0	1	+	0	3	B3r.bmp	492	1	blank2r.bmp	786	1	HLST	786	1	blank2r.bmp	866	2	geiz	866	1	!	1292	1	!	-1	0	0	0	0	0	0	0	0	0	0	0	0	0	0	0	0	0	0	0	0	0	0	0	0	0	0	0
073018	10:19:37	5.0.10.0	209	associated	Rpleas_acq	Same	Rpleas	Amasked	CS_A	2pleas	acq_pleas_masked	acq3_masked	3	11	453	1	300	300	0	0	446	50	0	1	0	0	0	1	blank2r.bmp	0	1	+	0	4	B4r.bmp	492	1	blank2r.bmp	786	1	DJMR	786	1	blank2r.bmp	866	5	jugend	866	1	!	1292	1	!	1346	0	0	0	0	0	0	0	0	0	0	0	0	0	0	0	0	0	0	0	0	0	0	0	0	0	0	0
073018	10:19:37	5.0.10.0	209	associated	Rpleas_acq	Same	Rpleas	Amasked	CS_A	2pleas	acq_pleas_masked	acq3_masked	3	12	453	0	300	300	0	0	532	46	0	0	0	0	0	1	blank2r.bmp	0	1	+	0	2	B2r.bmp	492	1	blank2r.bmp	786	1	DJMR	786	1	blank2r.bmp	866	1	wein	866	1	FEHLER	1745	1	!	1292	1	!	-1	0	0	0	0	0	0	0	0	0	0	0	0	0	0	0	0	0	0	0	0	0	0	0	0
073018	10:19:37	5.0.10.0	209	associated	Rpleas_acq	Same	Rpleas	Amasked	CS_A	2pleas	acq_unple_masked	acq3_masked	3	13	453	1	300	300	0	0	503	46	0	1	0	0	0	1	blank2r.bmp	0	1	+	0	6	C2r.bmp	492	1	blank2r.bmp	786	1	HLST	786	1	blank2r.bmp	866	1	zwang	866	1	!	1292	1	!	1399	0	0	0	0	0	0	0	0	0	0	0	0	0	0	0	0	0	0	0	0	0	0	0	0	0	0	0
073018	10:19:37	5.0.10.0	209	associated	Rpleas_acq	Same	Rpleas	Amasked	CS_A	2pleas	acq_unple_masked	acq3_masked	3	14	453	1	300	300	0	0	454	50	0	0	0	0	0	1	blank2r.bmp	0	1	+	0	1	B1r.bmp	492	1	blank2r.bmp	786	1	HLST	786	1	blank2r.bmp	866	4	wunde	866	1	FEHLER	1679	1	!	1292	1	!	1359	0	0	0	0	0	0	0	0	0	0	0	0	0	0	0	0	0	0	0	0	0	0	0	0
073018	10:19:37	5.0.10.0	209	associated	Rpleas_acq	Same	Rpleas	Amasked	CS_A	2pleas	acq_unple_masked	acq3_masked	3	15	453	0	300	300	0	0	691	46	0	1	0	0	0	1	blank2r.bmp	0	1	+	0	8	C4r.bmp	492	1	blank2r.bmp	786	1	HLST	786	1	blank2r.bmp	866	3	narr	866	1	!	1292	1	!	-1	0	0	0	0	0	0	0	0	0	0	0	0	0	0	0	0	0	0	0	0	0	0	0	0	0	0	0
073018	10:19:37	5.0.10.0	209	associated	Rpleas_acq	Same	Rpleas	Amasked	CS_A	2pleas	acq_unple_masked	acq3_masked	3	16	453	0	300	300	0	0	370	46	0	1	0	0	0	1	blank2r.bmp	0	1	+	0	5	C1r.bmp	492	1	blank2r.bmp	786	1	HLST	786	1	blank2r.bmp	866	6	armee	866	1	!	-1	1	!	-1	0	0	0	0	0	0	0	0	0	0	0	0	0	0	0	0	0	0	0	0	0	0	0	0	0	0	0
073018	10:19:37	5.0.10.0	209	associated	Rpleas_acq	Same	Rpleas	Amasked	CS_A	2pleas	acq_pleas_masked	acq3_masked	3	17	453	1	300	300	0	0	399	50	0	1	0	0	0	1	blank2r.bmp	0	1	+	0	6	C2r.bmp	492	1	blank2r.bmp	786	1	DJMR	786	1	blank2r.bmp	866	4	mama	866	1	!	1292	1	!	1306	0	0	0	0	0	0	0	0	0	0	0	0	0	0	0	0	0	0	0	0	0	0	0	0	0	0	0
073018	10:19:37	5.0.10.0	209	associated	Rpleas_acq	Same	Rpleas	Amasked	CS_A	2pleas	acq_unple_masked	acq3_masked	3	18	453	0	300	300	0	0	545	46	0	1	0	0	0	1	blank2r.bmp	0	1	+	0	7	C3r.bmp	492	1	blank2r.bmp	786	1	HLST	786	1	blank2r.bmp	866	2	geiz	866	1	!	1292	1	!	-1	0	0	0	0	0	0	0	0	0	0	0	0	0	0	0	0	0	0	0	0	0	0	0	0	0	0	0
073018	10:19:37	5.0.10.0	209	associated	Rpleas_acq	Same	Rpleas	Amasked	CS_A	2pleas	acq_unple_masked	acq3_masked	3	19	453	1	300	300	0	0	487	46	0	1	0	0	0	1	blank2r.bmp	0	1	+	0	1	B1r.bmp	492	1	blank2r.bmp	786	1	HLST	786	1	blank2r.bmp	866	4	wunde	866	1	!	1292	1	!	1386	0	0	0	0	0	0	0	0	0	0	0	0	0	0	0	0	0	0	0	0	0	0	0	0	0	0	0
073018	10:19:37	5.0.10.0	209	associated	Rpleas_acq	Same	Rpleas	Amasked	CS_A	2pleas	acq_pleas_masked	acq3_masked	3	20	453	1	300	300	0	0	399	50	0	1	0	0	0	1	blank2r.bmp	0	1	+	0	4	B4r.bmp	492	1	blank2r.bmp	786	1	DJMR	786	1	blank2r.bmp	866	6	frieden	866	1	!	1292	1	!	1306	0	0	0	0	0	0	0	0	0	0	0	0	0	0	0	0	0	0	0	0	0	0	0	0	0	0	0
073018	10:19:37	5.0.10.0	209	associated	Rpleas_acq	Same	Rpleas	Amasked	CS_A	2pleas	acq_pleas_masked	acq3_masked	3	21	453	1	300	300	0	0	410	50	0	1	0	0	0	1	blank2r.bmp	0	1	+	0	2	B2r.bmp	492	1	blank2r.bmp	786	1	DJMR	786	1	blank2r.bmp	866	2	meer	866	1	!	1292	1	!	1306	0	0	0	0	0	0	0	0	0	0	0	0	0	0	0	0	0	0	0	0	0	0	0	0	0	0	0
073018	10:19:37	5.0.10.0	209	associated	Rpleas_acq	Same	Rpleas	Amasked	CS_A	2pleas	acq_unple_masked	acq3_masked	3	22	453	1	300	300	0	0	452	46	0	1	0	0	0	1	blank2r.bmp	0	1	+	0	3	B3r.bmp	492	1	blank2r.bmp	786	1	HLST	786	1	blank2r.bmp	866	5	gegner	866	1	!	1292	1	!	1359	0	0	0	0	0	0	0	0	0	0	0	0	0	0	0	0	0	0	0	0	0	0	0	0	0	0	0
073018	10:19:37	5.0.10.0	209	associated	Rpleas_acq	Same	Rpleas	Amasked	CS_A	2pleas	acq_unple_masked	acq3_masked	3	23	453	0	300	300	0	0	562	46	0	1	0	0	0	1	blank2r.bmp	0	1	+	0	5	C1r.bmp	492	1	blank2r.bmp	786	1	HLST	786	1	blank2r.bmp	866	1	zwang	866	1	!	1292	1	!	-1	0	0	0	0	0	0	0	0	0	0	0	0	0	0	0	0	0	0	0	0	0	0	0	0	0	0	0
073018	10:19:37	5.0.10.0	209	associated	Rpleas_acq	Same	Rpleas	Amasked	CS_A	2pleas	acq_unple_masked	acq3_masked	3	24	453	0	300	300	0	0	672	46	0	1	0	0	0	1	blank2r.bmp	0	1	+	0	8	C4r.bmp	492	1	blank2r.bmp	786	1	HLST	786	1	blank2r.bmp	866	4	wunde	866	1	!	1292	1	!	-1	0	0	0	0	0	0	0	0	0	0	0	0	0	0	0	0	0	0	0	0	0	0	0	0	0	0	0
073018	10:19:37	5.0.10.0	209	associated	Rpleas_acq	Same	Rpleas	Amasked	CS_A	2pleas	acq_unple_masked	acq3_masked	3	25	453	0	300	300	0	0	236	46	0	1	0	0	0	1	blank2r.bmp	0	1	+	0	6	C2r.bmp	492	1	blank2r.bmp	786	1	HLST	786	1	blank2r.bmp	866	6	armee	866	1	!	-1	1	!	-1	0	0	0	0	0	0	0	0	0	0	0	0	0	0	0	0	0	0	0	0	0	0	0	0	0	0	0
073018	10:19:37	5.0.10.0	209	associated	Rpleas_acq	Same	Rpleas	Amasked	CS_A	2pleas	acq_unple_masked	acq3_masked	3	26	453	0	300	300	0	0	285	46	0	1	0	0	0	1	blank2r.bmp	0	1	+	0	3	B3r.bmp	492	1	blank2r.bmp	786	1	HLST	786	1	blank2r.bmp	866	3	narr	866	1	!	-1	1	!	-1	0	0	0	0	0	0	0	0	0	0	0	0	0	0	0	0	0	0	0	0	0	0	0	0	0	0	0
073018	10:19:37	5.0.10.0	209	associated	Rpleas_acq	Same	Rpleas	Amasked	CS_A	2pleas	acq_pleas_masked	acq3_masked	3	27	453	0	300	300	0	0	532	50	0	1	0	0	0	1	blank2r.bmp	0	1	+	0	8	C4r.bmp	492	1	blank2r.bmp	786	1	DJMR	786	1	blank2r.bmp	866	3	erfinder	866	1	!	1292	1	!	-1	0	0	0	0	0	0	0	0	0	0	0	0	0	0	0	0	0	0	0	0	0	0	0	0	0	0	0
073018	10:19:37	5.0.10.0	209	associated	Rpleas_acq	Same	Rpleas	Amasked	CS_A	2pleas	acq_pleas_masked	acq3_masked	3	28	453	1	300	300	0	0	399	46	0	0	0	0	0	1	blank2r.bmp	0	1	+	0	7	C3r.bmp	492	1	blank2r.bmp	786	1	DJMR	786	1	blank2r.bmp	866	4	mama	866	1	FEHLER	1625	1	!	1292	1	!	1306	0	0	0	0	0	0	0	0	0	0	0	0	0	0	0	0	0	0	0	0	0	0	0	0
073018	10:19:37	5.0.10.0	209	associated	Rpleas_acq	Same	Rpleas	Amasked	CS_A	2pleas	acq_pleas_masked	acq3_masked	3	29	453	1	300	300	0	0	477	50	0	1	0	0	0	1	blank2r.bmp	0	1	+	0	1	B1r.bmp	492	1	blank2r.bmp	786	1	DJMR	786	1	blank2r.bmp	866	6	frieden	866	1	!	1292	1	!	1372	0	0	0	0	0	0	0	0	0	0	0	0	0	0	0	0	0	0	0	0	0	0	0	0	0	0	0
073018	10:19:37	5.0.10.0	209	associated	Rpleas_acq	Same	Rpleas	Amasked	CS_A	2pleas	acq_unple_masked	acq3_masked	3	30	453	0	300	300	0	0	328	46	0	1	0	0	0	1	blank2r.bmp	0	1	+	0	2	B2r.bmp	492	1	blank2r.bmp	786	1	HLST	786	1	blank2r.bmp	866	2	geiz	866	1	!	-1	1	!	-1	0	0	0	0	0	0	0	0	0	0	0	0	0	0	0	0	0	0	0	0	0	0	0	0	0	0	0
073018	10:19:37	5.0.10.0	209	associated	Rpleas_acq	Same	Rpleas	Amasked	CS_A	2pleas	acq_pleas_masked	acq3_masked	3	31	453	0	300	300	0	0	546	50	0	1	0	0	0	1	blank2r.bmp	0	1	+	0	4	B4r.bmp	492	1	blank2r.bmp	786	1	DJMR	786	1	blank2r.bmp	866	2	meer	866	1	!	1292	1	!	-1	0	0	0	0	0	0	0	0	0	0	0	0	0	0	0	0	0	0	0	0	0	0	0	0	0	0	0
073018	10:19:37	5.0.10.0	209	associated	Rpleas_acq	Same	Rpleas	Amasked	CS_A	2pleas	acq_pleas_masked	acq3_masked	3	32	453	0	300	300	0	0	584	50	0	1	0	0	0	1	blank2r.bmp	0	1	+	0	5	C1r.bmp	492	1	blank2r.bmp	786	1	DJMR	786	1	blank2r.bmp	866	1	wein	866	1	!	1292	1	!	-1	0	0	0	0	0	0	0	0	0	0	0	0	0	0	0	0	0	0	0	0	0	0	0	0	0	0	0
073018	10:19:37	5.0.10.0	209	associated	Rpleas_acq	Same	Rpleas	Amasked	CS_A	2pleas	acq_pleas_masked	acq45_masked	4	1	400	0	300	300	0	0	160	50	0	1	0	0	0	1	blank2r.bmp	0	1	+	0	3	B3r.bmp	492	1	blank2r.bmp	786	1	DJMR	786	1	blank2r.bmp	866	3	erfinder	866	1	!	-1	1	!	-1	0	0	0	0	0	0	0	0	0	0	0	0	0	0	0	0	0	0	0	0	0	0	0	0	0	0	0
073018	10:19:37	5.0.10.0	209	associated	Rpleas_acq	Same	Rpleas	Amasked	CS_A	2pleas	acq_unple_masked	acq45_masked	4	2	400	0	300	300	0	0	312	50	0	0	0	0	0	1	blank2r.bmp	0	1	+	0	8	C4r.bmp	492	1	blank2r.bmp	786	1	HLST	786	1	blank2r.bmp	866	1	zwang	866	1	!	-1	1	!	-1	0	0	0	0	0	0	0	0	0	0	0	0	0	0	0	0	0	0	0	0	0	0	0	0	0	0	0
073018	10:19:37	5.0.10.0	209	associated	Rpleas_acq	Same	Rpleas	Amasked	CS_A	2pleas	acq_pleas_masked	acq45_masked	4	3	400	1	300	300	0	0	405	50	0	1	0	0	0	1	blank2r.bmp	0	1	+	0	7	C3r.bmp	492	1	blank2r.bmp	786	1	DJMR	786	1	blank2r.bmp	866	5	jugend	866	1	!	1239	1	!	1306	0	0	0	0	0	0	0	0	0	0	0	0	0	0	0	0	0	0	0	0	0	0	0	0	0	0	0
073018	10:19:37	5.0.10.0	209	associated	Rpleas_acq	Same	Rpleas	Amasked	CS_A	2pleas	acq_unple_masked	acq45_masked	4	4	400	0	300	300	0	0	312	46	0	1	0	0	0	1	blank2r.bmp	0	1	+	0	5	C1r.bmp	492	1	blank2r.bmp	786	1	HLST	786	1	blank2r.bmp	866	5	gegner	866	1	!	-1	1	!	-1	0	0	0	0	0	0	0	0	0	0	0	0	0	0	0	0	0	0	0	0	0	0	0	0	0	0	0
073018	10:19:37	5.0.10.0	209	associated	Rpleas_acq	Same	Rpleas	Amasked	CS_A	2pleas	acq_pleas_masked	acq45_masked	4	5	400	1	300	300	0	0	421	46	0	0	0	0	0	1	blank2r.bmp	0	1	+	0	6	C2r.bmp	492	1	blank2r.bmp	786	1	DJMR	786	1	blank2r.bmp	866	2	meer	866	1	!	1239	1	!	1319	0	0	0	0	0	0	0	0	0	0	0	0	0	0	0	0	0	0	0	0	0	0	0	0	0	0	0
073018	10:19:37	5.0.10.0	209	associated	Rpleas_acq	Same	Rpleas	Amasked	CS_A	2pleas	acq_pleas_masked	acq45_masked	4	6	400	1	300	300	0	0	427	46	0	0	0	0	0	1	blank2r.bmp	0	1	+	0	2	B2r.bmp	492	1	blank2r.bmp	786	1	DJMR	786	1	blank2r.bmp	866	1	wein	866	1	!	1239	1	!	1332	0	0	0	0	0	0	0	0	0	0	0	0	0	0	0	0	0	0	0	0	0	0	0	0	0	0	0
073018	10:19:37	5.0.10.0	209	associated	Rpleas_acq	Same	Rpleas	Amasked	CS_A	2pleas	acq_pleas_masked	acq45_masked	4	7	400	0	300	300	0	0	287	50	0	1	0	0	0	1	blank2r.bmp	0	1	+	0	1	B1r.bmp	492	1	blank2r.bmp	786	1	DJMR	786	1	blank2r.bmp	866	4	mama	866	1	!	-1	1	!	-1	0	0	0	0	0	0	0	0	0	0	0	0	0	0	0	0	0	0	0	0	0	0	0	0	0	0	0
073018	10:19:37	5.0.10.0	209	associated	Rpleas_acq	Same	Rpleas	Amasked	CS_A	2pleas	acq_unple_masked	acq45_masked	4	8	400	0	300	300	0	0	606	46	0	1	0	0	0	1	blank2r.bmp	0	1	+	0	4	B4r.bmp	492	1	blank2r.bmp	786	1	HLST	786	1	blank2r.bmp	866	2	geiz	866	1	!	1239	1	!	-1	0	0	0	0	0	0	0	0	0	0	0	0	0	0	0	0	0	0	0	0	0	0	0	0	0	0	0
073018	10:19:37	5.0.10.0	209	associated	Rpleas_acq	Same	Rpleas	Amasked	CS_A	2pleas	acq_unple_masked	acq45_masked	4	9	400	0	300	300	0	0	539	46	0	1	0	0	0	1	blank2r.bmp	0	1	+	0	5	C1r.bmp	492	1	blank2r.bmp	786	1	HLST	786	1	blank2r.bmp	866	3	narr	866	1	!	1239	1	!	-1	0	0	0	0	0	0	0	0	0	0	0	0	0	0	0	0	0	0	0	0	0	0	0	0	0	0	0
073018	10:19:37	5.0.10.0	209	associated	Rpleas_acq	Same	Rpleas	Amasked	CS_A	2pleas	acq_pleas_masked	acq45_masked	4	10	400	1	300	300	0	0	376	50	0	1	0	0	0	1	blank2r.bmp	0	1	+	0	3	B3r.bmp	492	1	blank2r.bmp	786	1	DJMR	786	1	blank2r.bmp	866	5	jugend	866	1	!	1239	1	!	1279	0	0	0	0	0	0	0	0	0	0	0	0	0	0	0	0	0	0	0	0	0	0	0	0	0	0	0
073018	10:19:37	5.0.10.0	209	associated	Rpleas_acq	Same	Rpleas	Amasked	CS_A	2pleas	acq_pleas_masked	acq45_masked	4	11	400	1	300	300	0	0	448	50	0	1	0	0	0	1	blank2r.bmp	0	1	+	0	6	C2r.bmp	492	1	blank2r.bmp	786	1	DJMR	786	1	blank2r.bmp	866	6	frieden	866	1	!	1239	1	!	1346	0	0	0	0	0	0	0	0	0	0	0	0	0	0	0	0	0	0	0	0	0	0	0	0	0	0	0
073018	10:19:37	5.0.10.0	209	associated	Rpleas_acq	Same	Rpleas	Amasked	CS_A	2pleas	acq_pleas_masked	acq45_masked	4	12	400	1	300	300	0	0	463	50	0	1	0	0	0	1	blank2r.bmp	0	1	+	0	8	C4r.bmp	492	1	blank2r.bmp	786	1	DJMR	786	1	blank2r.bmp	866	3	erfinder	866	1	!	1239	1	!	1359	0	0	0	0	0	0	0	0	0	0	0	0	0	0	0	0	0	0	0	0	0	0	0	0	0	0	0
073018	10:19:37	5.0.10.0	209	associated	Rpleas_acq	Same	Rpleas	Amasked	CS_A	2pleas	acq_unple_masked	acq45_masked	4	13	400	0	300	300	0	0	494	46	0	1	0	0	0	1	blank2r.bmp	0	1	+	0	4	B4r.bmp	492	1	blank2r.bmp	786	1	HLST	786	1	blank2r.bmp	866	4	wunde	866	1	!	1239	1	!	-1	0	0	0	0	0	0	0	0	0	0	0	0	0	0	0	0	0	0	0	0	0	0	0	0	0	0	0
073018	10:19:37	5.0.10.0	209	associated	Rpleas_acq	Same	Rpleas	Amasked	CS_A	2pleas	acq_unple_masked	acq45_masked	4	14	400	0	300	300	0	0	296	46	0	1	0	0	0	1	blank2r.bmp	0	1	+	0	2	B2r.bmp	492	1	blank2r.bmp	786	1	HLST	786	1	blank2r.bmp	866	5	gegner	866	1	!	-1	1	!	-1	0	0	0	0	0	0	0	0	0	0	0	0	0	0	0	0	0	0	0	0	0	0	0	0	0	0	0
073018	10:19:37	5.0.10.0	209	associated	Rpleas_acq	Same	Rpleas	Amasked	CS_A	2pleas	acq_unple_masked	acq45_masked	4	15	400	1	300	300	0	0	398	46	0	1	0	0	0	1	blank2r.bmp	0	1	+	0	7	C3r.bmp	492	1	blank2r.bmp	786	1	HLST	786	1	blank2r.bmp	866	6	armee	866	1	!	1239	1	!	1292	0	0	0	0	0	0	0	0	0	0	0	0	0	0	0	0	0	0	0	0	0	0	0	0	0	0	0
073018	10:19:37	5.0.10.0	209	associated	Rpleas_acq	Same	Rpleas	Amasked	CS_A	2pleas	acq_unple_masked	acq45_masked	4	16	400	1	300	300	0	0	362	46	0	1	0	0	0	1	blank2r.bmp	0	1	+	0	1	B1r.bmp	492	1	blank2r.bmp	786	1	HLST	786	1	blank2r.bmp	866	1	zwang	866	1	!	1239	1	!	1266	0	0	0	0	0	0	0	0	0	0	0	0	0	0	0	0	0	0	0	0	0	0	0	0	0	0	0
073018	10:19:37	5.0.10.0	209	associated	Rpleas_acq	Same	Rpleas	Amasked	CS_A	2pleas	acq_unple_masked	acq45_masked	4	17	400	1	300	300	0	0	364	46	0	1	0	0	0	1	blank2r.bmp	0	1	+	0	6	C2r.bmp	492	1	blank2r.bmp	786	1	HLST	786	1	blank2r.bmp	866	4	wunde	866	1	!	1239	1	!	1266	0	0	0	0	0	0	0	0	0	0	0	0	0	0	0	0	0	0	0	0	0	0	0	0	0	0	0
073018	10:19:37	5.0.10.0	209	associated	Rpleas_acq	Same	Rpleas	Amasked	CS_A	2pleas	acq_unple_masked	acq45_masked	4	18	400	1	300	300	0	0	346	46	0	1	0	0	0	1	blank2r.bmp	0	1	+	0	7	C3r.bmp	492	1	blank2r.bmp	786	1	HLST	786	1	blank2r.bmp	866	2	geiz	866	1	!	1239	1	!	1252	0	0	0	0	0	0	0	0	0	0	0	0	0	0	0	0	0	0	0	0	0	0	0	0	0	0	0
073018	10:19:37	5.0.10.0	209	associated	Rpleas_acq	Same	Rpleas	Amasked	CS_A	2pleas	acq_unple_masked	acq45_masked	4	19	400	1	300	300	0	0	362	46	0	1	0	0	0	1	blank2r.bmp	0	1	+	0	3	B3r.bmp	492	1	blank2r.bmp	786	1	HLST	786	1	blank2r.bmp	866	1	zwang	866	1	!	1239	1	!	1266	0	0	0	0	0	0	0	0	0	0	0	0	0	0	0	0	0	0	0	0	0	0	0	0	0	0	0
073018	10:19:37	5.0.10.0	209	associated	Rpleas_acq	Same	Rpleas	Amasked	CS_A	2pleas	acq_pleas_masked	acq45_masked	4	20	400	0	300	300	0	0	328	50	0	1	0	0	0	1	blank2r.bmp	0	1	+	0	2	B2r.bmp	492	1	blank2r.bmp	786	1	DJMR	786	1	blank2r.bmp	866	2	meer	866	1	!	-1	1	!	-1	0	0	0	0	0	0	0	0	0	0	0	0	0	0	0	0	0	0	0	0	0	0	0	0	0	0	0
073018	10:19:37	5.0.10.0	209	associated	Rpleas_acq	Same	Rpleas	Amasked	CS_A	2pleas	acq_pleas_masked	acq45_masked	4	21	400	0	300	300	0	0	577	50	0	1	0	0	0	1	blank2r.bmp	0	1	+	0	4	B4r.bmp	492	1	blank2r.bmp	786	1	DJMR	786	1	blank2r.bmp	866	3	erfinder	866	1	!	1239	1	!	-1	0	0	0	0	0	0	0	0	0	0	0	0	0	0	0	0	0	0	0	0	0	0	0	0	0	0	0
073018	10:19:37	5.0.10.0	209	associated	Rpleas_acq	Same	Rpleas	Amasked	CS_A	2pleas	acq_unple_masked	acq45_masked	4	22	400	0	300	300	0	0	559	46	0	1	0	0	0	1	blank2r.bmp	0	1	+	0	1	B1r.bmp	492	1	blank2r.bmp	786	1	HLST	786	1	blank2r.bmp	866	5	gegner	866	1	!	1239	1	!	-1	0	0	0	0	0	0	0	0	0	0	0	0	0	0	0	0	0	0	0	0	0	0	0	0	0	0	0
073018	10:19:37	5.0.10.0	209	associated	Rpleas_acq	Same	Rpleas	Amasked	CS_A	2pleas	acq_unple_masked	acq45_masked	4	23	400	1	300	300	0	0	365	50	0	0	0	0	0	1	blank2r.bmp	0	1	+	0	5	C1r.bmp	492	1	blank2r.bmp	786	1	HLST	786	1	blank2r.bmp	866	3	narr	866	1	!	1239	1	!	1266	0	0	0	0	0	0	0	0	0	0	0	0	0	0	0	0	0	0	0	0	0	0	0	0	0	0	0
073018	10:19:37	5.0.10.0	209	associated	Rpleas_acq	Same	Rpleas	Amasked	CS_A	2pleas	acq_pleas_masked	acq45_masked	4	24	400	0	300	300	0	0	307	50	0	1	0	0	0	1	blank2r.bmp	0	1	+	0	8	C4r.bmp	492	1	blank2r.bmp	786	1	DJMR	786	1	blank2r.bmp	866	4	mama	866	1	!	-1	1	!	-1	0	0	0	0	0	0	0	0	0	0	0	0	0	0	0	0	0	0	0	0	0	0	0	0	0	0	0
073018	10:19:37	5.0.10.0	209	associated	Rpleas_acq	Same	Rpleas	Amasked	CS_A	2pleas	acq_pleas_masked	acq45_masked	4	25	400	0	300	300	0	0	330	50	0	1	0	0	0	1	blank2r.bmp	0	1	+	0	4	B4r.bmp	492	1	blank2r.bmp	786	1	DJMR	786	1	blank2r.bmp	866	1	wein	866	1	!	-1	1	!	-1	0	0	0	0	0	0	0	0	0	0	0	0	0	0	0	0	0	0	0	0	0	0	0	0	0	0	0
073018	10:19:37	5.0.10.0	209	associated	Rpleas_acq	Same	Rpleas	Amasked	CS_A	2pleas	acq_unple_masked	acq45_masked	4	26	400	1	300	300	0	0	427	46	0	1	0	0	0	1	blank2r.bmp	0	1	+	0	7	C3r.bmp	492	1	blank2r.bmp	786	1	HLST	786	1	blank2r.bmp	866	6	armee	866	1	!	1239	1	!	1332	0	0	0	0	0	0	0	0	0	0	0	0	0	0	0	0	0	0	0	0	0	0	0	0	0	0	0
073018	10:19:37	5.0.10.0	209	associated	Rpleas_acq	Same	Rpleas	Amasked	CS_A	2pleas	acq_unple_masked	acq45_masked	4	27	400	1	300	300	0	0	364	46	0	1	0	0	0	1	blank2r.bmp	0	1	+	0	3	B3r.bmp	492	1	blank2r.bmp	786	1	HLST	786	1	blank2r.bmp	866	5	gegner	866	1	!	1239	1	!	1266	0	0	0	0	0	0	0	0	0	0	0	0	0	0	0	0	0	0	0	0	0	0	0	0	0	0	0
073018	10:19:37	5.0.10.0	209	associated	Rpleas_acq	Same	Rpleas	Amasked	CS_A	2pleas	acq_pleas_masked	acq45_masked	4	28	400	0	300	300	0	0	479	50	0	1	0	0	0	1	blank2r.bmp	0	1	+	0	5	C1r.bmp	492	1	blank2r.bmp	786	1	DJMR	786	1	blank2r.bmp	866	5	jugend	866	1	!	1239	1	!	-1	0	0	0	0	0	0	0	0	0	0	0	0	0	0	0	0	0	0	0	0	0	0	0	0	0	0	0
073018	10:19:37	5.0.10.0	209	associated	Rpleas_acq	Same	Rpleas	Amasked	CS_A	2pleas	acq_pleas_masked	acq45_masked	4	29	400	1	300	300	0	0	368	50	0	1	0	0	0	1	blank2r.bmp	0	1	+	0	2	B2r.bmp	492	1	blank2r.bmp	786	1	DJMR	786	1	blank2r.bmp	866	6	frieden	866	1	!	1239	1	!	1266	0	0	0	0	0	0	0	0	0	0	0	0	0	0	0	0	0	0	0	0	0	0	0	0	0	0	0
073018	10:19:37	5.0.10.0	209	associated	Rpleas_acq	Same	Rpleas	Amasked	CS_A	2pleas	acq_pleas_masked	acq45_masked	4	30	400	0	300	300	0	0	319	50	0	1	0	0	0	1	blank2r.bmp	0	1	+	0	6	C2r.bmp	492	1	blank2r.bmp	786	1	DJMR	786	1	blank2r.bmp	866	2	meer	866	1	!	-1	1	!	-1	0	0	0	0	0	0	0	0	0	0	0	0	0	0	0	0	0	0	0	0	0	0	0	0	0	0	0
073018	10:19:37	5.0.10.0	209	associated	Rpleas_acq	Same	Rpleas	Amasked	CS_A	2pleas	acq_unple_masked	acq45_masked	4	31	400	1	300	300	0	0	436	46	0	1	0	0	0	1	blank2r.bmp	0	1	+	0	1	B1r.bmp	492	1	blank2r.bmp	786	1	HLST	786	1	blank2r.bmp	866	4	wunde	866	1	!	1239	1	!	1332	0	0	0	0	0	0	0	0	0	0	0	0	0	0	0	0	0	0	0	0	0	0	0	0	0	0	0
073018	10:19:37	5.0.10.0	209	associated	Rpleas_acq	Same	Rpleas	Amasked	CS_A	2pleas	acq_pleas_masked	acq45_masked	4	32	400	0	300	300	0	0	521	50	0	1	0	0	0	1	blank2r.bmp	0	1	+	0	8	C4r.bmp	492	1	blank2r.bmp	786	1	DJMR	786	1	blank2r.bmp	866	1	wein	866	1	!	1239	1	!	-1	0	0	0	0	0	0	0	0	0	0	0	0	0	0	0	0	0	0	0	0	0	0	0	0	0	0	0
073018	10:19:37	5.0.10.0	209	associated	Rpleas_acq	Same	Rpleas	Amasked	CS_A	2pleas	acq_unple_masked	acq45_masked	5	1	400	0	300	300	0	0	318	50	0	0	0	0	0	1	blank2r.bmp	0	1	+	0	8	C4r.bmp	492	1	blank2r.bmp	786	1	HLST	786	1	blank2r.bmp	866	1	zwang	866	1	!	-1	1	!	-1	0	0	0	0	0	0	0	0	0	0	0	0	0	0	0	0	0	0	0	0	0	0	0	0	0	0	0
073018	10:19:37	5.0.10.0	209	associated	Rpleas_acq	Same	Rpleas	Amasked	CS_A	2pleas	acq_pleas_masked	acq45_masked	5	2	400	1	300	300	0	0	423	50	0	1	0	0	0	1	blank2r.bmp	0	1	+	0	7	C3r.bmp	492	1	blank2r.bmp	786	1	DJMR	786	1	blank2r.bmp	866	4	mama	866	1	!	1239	1	!	1319	0	0	0	0	0	0	0	0	0	0	0	0	0	0	0	0	0	0	0	0	0	0	0	0	0	0	0
073018	10:19:37	5.0.10.0	209	associated	Rpleas_acq	Same	Rpleas	Amasked	CS_A	2pleas	acq_unple_masked	acq45_masked	5	3	400	1	300	300	0	0	459	46	0	1	0	0	0	1	blank2r.bmp	0	1	+	0	1	B1r.bmp	492	1	blank2r.bmp	786	1	HLST	786	1	blank2r.bmp	866	6	armee	866	1	!	1239	1	!	1359	0	0	0	0	0	0	0	0	0	0	0	0	0	0	0	0	0	0	0	0	0	0	0	0	0	0	0
073018	10:19:37	5.0.10.0	209	associated	Rpleas_acq	Same	Rpleas	Amasked	CS_A	2pleas	acq_pleas_masked	acq45_masked	5	4	400	1	300	300	0	0	424	50	0	1	0	0	0	1	blank2r.bmp	0	1	+	0	3	B3r.bmp	492	1	blank2r.bmp	786	1	DJMR	786	1	blank2r.bmp	866	5	jugend	866	1	!	1239	1	!	1319	0	0	0	0	0	0	0	0	0	0	0	0	0	0	0	0	0	0	0	0	0	0	0	0	0	0	0
073018	10:19:37	5.0.10.0	209	associated	Rpleas_acq	Same	Rpleas	Amasked	CS_A	2pleas	acq_pleas_masked	acq45_masked	5	5	400	0	300	300	0	0	517	50	0	1	0	0	0	1	blank2r.bmp	0	1	+	0	4	B4r.bmp	492	1	blank2r.bmp	786	1	DJMR	786	1	blank2r.bmp	866	3	erfinder	866	1	!	1239	1	!	-1	0	0	0	0	0	0	0	0	0	0	0	0	0	0	0	0	0	0	0	0	0	0	0	0	0	0	0
073018	10:19:37	5.0.10.0	209	associated	Rpleas_acq	Same	Rpleas	Amasked	CS_A	2pleas	acq_unple_masked	acq45_masked	5	6	400	0	300	300	0	0	538	46	0	1	0	0	0	1	blank2r.bmp	0	1	+	0	5	C1r.bmp	492	1	blank2r.bmp	786	1	HLST	786	1	blank2r.bmp	866	3	narr	866	1	!	1239	1	!	-1	0	0	0	0	0	0	0	0	0	0	0	0	0	0	0	0	0	0	0	0	0	0	0	0	0	0	0
073018	10:19:37	5.0.10.0	209	associated	Rpleas_acq	Same	Rpleas	Amasked	CS_A	2pleas	acq_pleas_masked	acq45_masked	5	7	400	1	300	300	0	0	361	50	0	1	0	0	0	1	blank2r.bmp	0	1	+	0	2	B2r.bmp	492	1	blank2r.bmp	786	1	DJMR	786	1	blank2r.bmp	866	6	frieden	866	1	!	1239	1	!	1266	0	0	0	0	0	0	0	0	0	0	0	0	0	0	0	0	0	0	0	0	0	0	0	0	0	0	0
073018	10:19:37	5.0.10.0	209	associated	Rpleas_acq	Same	Rpleas	Amasked	CS_A	2pleas	acq_pleas_masked	acq45_masked	5	8	400	0	300	300	0	0	479	50	0	1	0	0	0	1	blank2r.bmp	0	1	+	0	6	C2r.bmp	492	1	blank2r.bmp	786	1	DJMR	786	1	blank2r.bmp	866	2	meer	866	1	!	1239	1	!	-1	0	0	0	0	0	0	0	0	0	0	0	0	0	0	0	0	0	0	0	0	0	0	0	0	0	0	0
073018	10:19:37	5.0.10.0	209	associated	Rpleas_acq	Same	Rpleas	Amasked	CS_A	2pleas	acq_unple_masked	acq45_masked	5	9	400	1	300	300	0	0	356	46	0	1	0	0	0	1	blank2r.bmp	0	1	+	0	6	C2r.bmp	492	1	blank2r.bmp	786	1	HLST	786	1	blank2r.bmp	866	2	geiz	866	1	!	1239	1	!	1252	0	0	0	0	0	0	0	0	0	0	0	0	0	0	0	0	0	0	0	0	0	0	0	0	0	0	0
073018	10:19:37	5.0.10.0	209	associated	Rpleas_acq	Same	Rpleas	Amasked	CS_A	2pleas	acq_pleas_masked	acq45_masked	5	10	400	1	300	300	0	0	364	50	0	1	0	0	0	1	blank2r.bmp	0	1	+	0	4	B4r.bmp	492	1	blank2r.bmp	786	1	DJMR	786	1	blank2r.bmp	866	6	frieden	866	1	!	1239	1	!	1266	0	0	0	0	0	0	0	0	0	0	0	0	0	0	0	0	0	0	0	0	0	0	0	0	0	0	0
073018	10:19:37	5.0.10.0	209	associated	Rpleas_acq	Same	Rpleas	Amasked	CS_A	2pleas	acq_pleas_masked	acq45_masked	5	11	400	1	300	300	0	0	449	50	0	1	0	0	0	1	blank2r.bmp	0	1	+	0	7	C3r.bmp	492	1	blank2r.bmp	786	1	DJMR	786	1	blank2r.bmp	866	4	mama	866	1	!	1239	1	!	1346	0	0	0	0	0	0	0	0	0	0	0	0	0	0	0	0	0	0	0	0	0	0	0	0	0	0	0
073018	10:19:37	5.0.10.0	209	associated	Rpleas_acq	Same	Rpleas	Amasked	CS_A	2pleas	acq_unple_masked	acq45_masked	5	12	400	1	300	300	0	0	349	46	0	1	0	0	0	1	blank2r.bmp	0	1	+	0	5	C1r.bmp	492	1	blank2r.bmp	786	1	HLST	786	1	blank2r.bmp	866	1	zwang	866	1	!	1239	1	!	1252	0	0	0	0	0	0	0	0	0	0	0	0	0	0	0	0	0	0	0	0	0	0	0	0	0	0	0
073018	10:19:37	5.0.10.0	209	associated	Rpleas_acq	Same	Rpleas	Amasked	CS_A	2pleas	acq_unple_masked	acq45_masked	5	13	400	1	300	300	0	0	396	46	0	1	0	0	0	1	blank2r.bmp	0	1	+	0	1	B1r.bmp	492	1	blank2r.bmp	786	1	HLST	786	1	blank2r.bmp	866	5	gegner	866	1	!	1239	1	!	1292	0	0	0	0	0	0	0	0	0	0	0	0	0	0	0	0	0	0	0	0	0	0	0	0	0	0	0
073018	10:19:37	5.0.10.0	209	associated	Rpleas_acq	Same	Rpleas	Amasked	CS_A	2pleas	acq_pleas_masked	acq45_masked	5	14	400	1	300	300	0	0	417	50	0	1	0	0	0	1	blank2r.bmp	0	1	+	0	2	B2r.bmp	492	1	blank2r.bmp	786	1	DJMR	786	1	blank2r.bmp	866	5	jugend	866	1	!	1239	1	!	1319	0	0	0	0	0	0	0	0	0	0	0	0	0	0	0	0	0	0	0	0	0	0	0	0	0	0	0
073018	10:19:37	5.0.10.0	209	associated	Rpleas_acq	Same	Rpleas	Amasked	CS_A	2pleas	acq_unple_masked	acq45_masked	5	15	400	0	300	300	0	0	492	50	0	0	0	0	0	1	blank2r.bmp	0	1	+	0	3	B3r.bmp	492	1	blank2r.bmp	786	1	HLST	786	1	blank2r.bmp	866	4	wunde	866	1	!	1239	1	!	-1	0	0	0	0	0	0	0	0	0	0	0	0	0	0	0	0	0	0	0	0	0	0	0	0	0	0	0
073018	10:19:37	5.0.10.0	209	associated	Rpleas_acq	Same	Rpleas	Amasked	CS_A	2pleas	acq_unple_masked	acq45_masked	5	16	400	1	300	300	0	0	430	46	0	1	0	0	0	1	blank2r.bmp	0	1	+	0	8	C4r.bmp	492	1	blank2r.bmp	786	1	HLST	786	1	blank2r.bmp	866	6	armee	866	1	!	1239	1	!	1332	0	0	0	0	0	0	0	0	0	0	0	0	0	0	0	0	0	0	0	0	0	0	0	0	0	0	0
073018	10:19:37	5.0.10.0	209	associated	Rpleas_acq	Same	Rpleas	Amasked	CS_A	2pleas	acq_pleas_masked	acq45_masked	5	17	400	0	300	300	0	0	519	46	0	0	0	0	0	1	blank2r.bmp	0	1	+	0	7	C3r.bmp	492	1	blank2r.bmp	786	1	DJMR	786	1	blank2r.bmp	866	1	wein	866	1	!	1239	1	!	-1	0	0	0	0	0	0	0	0	0	0	0	0	0	0	0	0	0	0	0	0	0	0	0	0	0	0	0
073018	10:19:37	5.0.10.0	209	associated	Rpleas_acq	Same	Rpleas	Amasked	CS_A	2pleas	acq_pleas_masked	acq45_masked	5	18	400	1	300	300	0	0	360	50	0	1	0	0	0	1	blank2r.bmp	0	1	+	0	6	C2r.bmp	492	1	blank2r.bmp	786	1	DJMR	786	1	blank2r.bmp	866	3	erfinder	866	1	!	1239	1	!	1266	0	0	0	0	0	0	0	0	0	0	0	0	0	0	0	0	0	0	0	0	0	0	0	0	0	0	0
073018	10:19:37	5.0.10.0	209	associated	Rpleas_acq	Same	Rpleas	Amasked	CS_A	2pleas	acq_pleas_masked	acq45_masked	5	19	400	1	300	300	0	0	355	50	0	1	0	0	0	1	blank2r.bmp	0	1	+	0	5	C1r.bmp	492	1	blank2r.bmp	786	1	DJMR	786	1	blank2r.bmp	866	1	wein	866	1	!	1239	1	!	1252	0	0	0	0	0	0	0	0	0	0	0	0	0	0	0	0	0	0	0	0	0	0	0	0	0	0	0
073018	10:19:37	5.0.10.0	209	associated	Rpleas_acq	Same	Rpleas	Amasked	CS_A	2pleas	acq_unple_masked	acq45_masked	5	20	400	1	300	300	0	0	410	46	0	1	0	0	0	1	blank2r.bmp	0	1	+	0	8	C4r.bmp	492	1	blank2r.bmp	786	1	HLST	786	1	blank2r.bmp	866	2	geiz	866	1	!	1239	1	!	1306	0	0	0	0	0	0	0	0	0	0	0	0	0	0	0	0	0	0	0	0	0	0	0	0	0	0	0
073018	10:19:37	5.0.10.0	209	associated	Rpleas_acq	Same	Rpleas	Amasked	CS_A	2pleas	acq_unple_masked	acq45_masked	5	21	400	1	300	300	0	0	394	46	0	1	0	0	0	1	blank2r.bmp	0	1	+	0	4	B4r.bmp	492	1	blank2r.bmp	786	1	HLST	786	1	blank2r.bmp	866	3	narr	866	1	!	1239	1	!	1292	0	0	0	0	0	0	0	0	0	0	0	0	0	0	0	0	0	0	0	0	0	0	0	0	0	0	0
073018	10:19:37	5.0.10.0	209	associated	Rpleas_acq	Same	Rpleas	Amasked	CS_A	2pleas	acq_pleas_masked	acq45_masked	5	22	400	1	300	300	0	0	459	50	0	1	0	0	0	1	blank2r.bmp	0	1	+	0	1	B1r.bmp	492	1	blank2r.bmp	786	1	DJMR	786	1	blank2r.bmp	866	6	frieden	866	1	!	1239	1	!	1359	0	0	0	0	0	0	0	0	0	0	0	0	0	0	0	0	0	0	0	0	0	0	0	0	0	0	0
073018	10:19:37	5.0.10.0	209	associated	Rpleas_acq	Same	Rpleas	Amasked	CS_A	2pleas	acq_pleas_masked	acq45_masked	5	23	400	1	300	300	0	0	396	46	0	0	0	0	0	1	blank2r.bmp	0	1	+	0	2	B2r.bmp	492	1	blank2r.bmp	786	1	DJMR	786	1	blank2r.bmp	866	3	erfinder	866	1	!	1239	1	!	1292	0	0	0	0	0	0	0	0	0	0	0	0	0	0	0	0	0	0	0	0	0	0	0	0	0	0	0
073018	10:19:37	5.0.10.0	209	associated	Rpleas_acq	Same	Rpleas	Amasked	CS_A	2pleas	acq_unple_masked	acq45_masked	5	24	400	1	300	300	0	0	346	46	0	1	0	0	0	1	blank2r.bmp	0	1	+	0	3	B3r.bmp	492	1	blank2r.bmp	786	1	HLST	786	1	blank2r.bmp	866	4	wunde	866	1	!	1239	1	!	1252	0	0	0	0	0	0	0	0	0	0	0	0	0	0	0	0	0	0	0	0	0	0	0	0	0	0	0
073018	10:19:37	5.0.10.0	209	associated	Rpleas_acq	Same	Rpleas	Amasked	CS_A	2pleas	acq_unple_masked	acq45_masked	5	25	400	1	300	300	0	0	403	46	0	1	0	0	0	1	blank2r.bmp	0	1	+	0	4	B4r.bmp	492	1	blank2r.bmp	786	1	HLST	786	1	blank2r.bmp	866	6	armee	866	1	!	1239	1	!	1306	0	0	0	0	0	0	0	0	0	0	0	0	0	0	0	0	0	0	0	0	0	0	0	0	0	0	0
073018	10:19:37	5.0.10.0	209	associated	Rpleas_acq	Same	Rpleas	Amasked	CS_A	2pleas	acq_unple_masked	acq45_masked	5	26	400	1	300	300	0	0	350	46	0	1	0	0	0	1	blank2r.bmp	0	1	+	0	3	B3r.bmp	492	1	blank2r.bmp	786	1	HLST	786	1	blank2r.bmp	866	3	narr	866	1	!	1239	1	!	1252	0	0	0	0	0	0	0	0	0	0	0	0	0	0	0	0	0	0	0	0	0	0	0	0	0	0	0
073018	10:19:37	5.0.10.0	209	associated	Rpleas_acq	Same	Rpleas	Amasked	CS_A	2pleas	acq_unple_masked	acq45_masked	5	27	400	1	300	300	0	0	404	46	0	1	0	0	0	1	blank2r.bmp	0	1	+	0	6	C2r.bmp	492	1	blank2r.bmp	786	1	HLST	786	1	blank2r.bmp	866	2	geiz	866	1	!	1239	1	!	1306	0	0	0	0	0	0	0	0	0	0	0	0	0	0	0	0	0	0	0	0	0	0	0	0	0	0	0
073018	10:19:37	5.0.10.0	209	associated	Rpleas_acq	Same	Rpleas	Amasked	CS_A	2pleas	acq_pleas_masked	acq45_masked	5	28	400	0	300	300	0	0	317	46	0	0	0	0	0	1	blank2r.bmp	0	1	+	0	1	B1r.bmp	492	1	blank2r.bmp	786	1	DJMR	786	1	blank2r.bmp	866	5	jugend	866	1	!	-1	1	!	-1	0	0	0	0	0	0	0	0	0	0	0	0	0	0	0	0	0	0	0	0	0	0	0	0	0	0	0
073018	10:19:37	5.0.10.0	209	associated	Rpleas_acq	Same	Rpleas	Amasked	CS_A	2pleas	acq_unple_masked	acq45_masked	5	29	400	1	300	300	0	0	374	46	0	1	0	0	0	1	blank2r.bmp	0	1	+	0	5	C1r.bmp	492	1	blank2r.bmp	786	1	HLST	786	1	blank2r.bmp	866	5	gegner	866	1	!	1239	1	!	1279	0	0	0	0	0	0	0	0	0	0	0	0	0	0	0	0	0	0	0	0	0	0	0	0	0	0	0
073018	10:19:37	5.0.10.0	209	associated	Rpleas_acq	Same	Rpleas	Amasked	CS_A	2pleas	acq_unple_masked	acq45_masked	5	30	400	1	300	300	0	0	429	46	0	1	0	0	0	1	blank2r.bmp	0	1	+	0	2	B2r.bmp	492	1	blank2r.bmp	786	1	HLST	786	1	blank2r.bmp	866	1	zwang	866	1	!	1239	1	!	1332	0	0	0	0	0	0	0	0	0	0	0	0	0	0	0	0	0	0	0	0	0	0	0	0	0	0	0
073018	10:19:37	5.0.10.0	209	associated	Rpleas_acq	Same	Rpleas	Amasked	CS_A	2pleas	acq_pleas_masked	acq45_masked	5	31	400	0	300	300	0	0	313	50	0	1	0	0	0	1	blank2r.bmp	0	1	+	0	8	C4r.bmp	492	1	blank2r.bmp	786	1	DJMR	786	1	blank2r.bmp	866	4	mama	866	1	!	-1	1	!	-1	0	0	0	0	0	0	0	0	0	0	0	0	0	0	0	0	0	0	0	0	0	0	0	0	0	0	0
073018	10:19:37	5.0.10.0	209	associated	Rpleas_acq	Same	Rpleas	Amasked	CS_A	2pleas	acq_pleas_masked	acq45_masked	5	32	400	1	300	300	0	0	441	50	0	1	0	0	0	1	blank2r.bmp	0	1	+	0	7	C3r.bmp	492	1	blank2r.bmp	786	1	DJMR	786	1	blank2r.bmp	866	2	meer	866	1	!	1239	1	!	1346	0	0	0	0	0	0	0	0	0	0	0	0	0	0	0	0	0	0	0	0	0	0	0	0	0	0	0
073018	10:19:37	5.0.10.0	209	associated	Rpleas_acq	Same	Rpleas	Amasked	CS_A	2pleas	cond_new_pleas_456_masked_CS2	condtest_masked_1	6	1	400	1	300	300	0	0	366	46	0	0	0	0	0	1	blank2r.bmp	0	1	+	0	4	B4r.bmp	492	1	blank2r.bmp	786	1	DJMR	786	1	blank2r.bmp	866	1	umarmen	866	1	!	1239	1	!	1266	0	0	0	0	0	0	0	0	0	0	0	0	0	0	0	0	0	0	0	0	0	0	0	0	0	0	0
073018	10:19:37	5.0.10.0	209	associated	Rpleas_acq	Same	Rpleas	Amasked	CS_A	2pleas	cond_new_unple_456_masked_CS2	condtest_masked_1	6	2	400	0	300	300	0	0	482	46	0	1	0	0	0	1	blank2r.bmp	0	1	+	0	6	C2r.bmp	492	1	blank2r.bmp	786	1	DJMR	786	1	blank2r.bmp	866	2	feind	866	1	!	1239	1	!	-1	0	0	0	0	0	0	0	0	0	0	0	0	0	0	0	0	0	0	0	0	0	0	0	0	0	0	0
073018	10:19:37	5.0.10.0	209	associated	Rpleas_acq	Same	Rpleas	Amasked	CS_A	2pleas	cond_new_unple_456_masked_CS1	condtest_masked_1	6	3	400	1	300	300	0	0	429	46	0	1	0	0	0	1	blank2r.bmp	0	1	+	0	2	B2r.bmp	492	1	blank2r.bmp	786	1	HLST	786	1	blank2r.bmp	866	3	waffe	866	1	!	1239	1	!	1332	0	0	0	0	0	0	0	0	0	0	0	0	0	0	0	0	0	0	0	0	0	0	0	0	0	0	0
073018	10:19:37	5.0.10.0	209	associated	Rpleas_acq	Same	Rpleas	Amasked	CS_A	2pleas	cond_new_pleas_456_masked_CS1	condtest_masked_1	6	4	400	0	300	300	0	0	266	50	0	1	0	0	0	1	blank2r.bmp	0	1	+	0	5	C1r.bmp	492	1	blank2r.bmp	786	1	HLST	786	1	blank2r.bmp	866	3	freude	866	1	!	-1	1	!	-1	0	0	0	0	0	0	0	0	0	0	0	0	0	0	0	0	0	0	0	0	0	0	0	0	0	0	0
073018	10:19:37	5.0.10.0	209	associated	Rpleas_acq	Same	Rpleas	Amasked	CS_A	2pleas	cond_US_unple_123_masked_CS2	condtest_masked_1	6	5	400	1	300	300	0	0	451	46	0	1	0	0	0	1	blank2r.bmp	0	1	+	0	8	C4r.bmp	492	1	blank2r.bmp	786	1	DJMR	786	1	blank2r.bmp	866	3	narr	866	1	!	1239	1	!	1346	0	0	0	0	0	0	0	0	0	0	0	0	0	0	0	0	0	0	0	0	0	0	0	0	0	0	0
073018	10:19:37	5.0.10.0	209	associated	Rpleas_acq	Same	Rpleas	Amasked	CS_A	2pleas	cond_US_unple_123_masked_CS1	condtest_masked_1	6	6	400	1	300	300	0	0	465	46	0	1	0	0	0	1	blank2r.bmp	0	1	+	0	3	B3r.bmp	492	1	blank2r.bmp	786	1	HLST	786	1	blank2r.bmp	866	2	geiz	866	1	!	1239	1	!	1372	0	0	0	0	0	0	0	0	0	0	0	0	0	0	0	0	0	0	0	0	0	0	0	0	0	0	0
073018	10:19:37	5.0.10.0	209	associated	Rpleas_acq	Same	Rpleas	Amasked	CS_A	2pleas	cond_US_pleas_123_masked_CS1	condtest_masked_1	6	7	400	1	300	300	0	0	449	50	0	1	0	0	0	1	blank2r.bmp	0	1	+	0	1	B1r.bmp	492	1	blank2r.bmp	786	1	HLST	786	1	blank2r.bmp	866	3	erfinder	866	1	!	1239	1	!	1346	0	0	0	0	0	0	0	0	0	0	0	0	0	0	0	0	0	0	0	0	0	0	0	0	0	0	0
073018	10:19:37	5.0.10.0	209	associated	Rpleas_acq	Same	Rpleas	Amasked	CS_A	2pleas	cond_US_pleas_123_masked_CS2	condtest_masked_1	6	8	400	1	300	300	0	0	394	50	0	1	0	0	0	1	blank2r.bmp	0	1	+	0	7	C3r.bmp	492	1	blank2r.bmp	786	1	DJMR	786	1	blank2r.bmp	866	2	meer	866	1	!	1239	1	!	1292	0	0	0	0	0	0	0	0	0	0	0	0	0	0	0	0	0	0	0	0	0	0	0	0	0	0	0
073018	10:19:37	5.0.10.0	209	associated	Rpleas_acq	Same	Rpleas	Amasked	CS_A	2pleas	cond_US_pleas_123_masked_CS2	condtest_masked_2	7	1	400	0	300	300	0	0	294	50	0	1	0	0	0	1	blank2r.bmp	0	1	+	0	3	B3r.bmp	492	1	blank2r.bmp	786	1	DJMR	786	1	blank2r.bmp	866	1	wein	866	1	!	-1	1	!	-1	0	0	0	0	0	0	0	0	0	0	0	0	0	0	0	0	0	0	0	0	0	0	0	0	0	0	0
073018	10:19:37	5.0.10.0	209	associated	Rpleas_acq	Same	Rpleas	Amasked	CS_A	2pleas	cond_US_pleas_123_masked_CS1	condtest_masked_2	7	2	400	0	300	300	0	0	313	50	0	1	0	0	0	1	blank2r.bmp	0	1	+	0	7	C3r.bmp	492	1	blank2r.bmp	786	1	HLST	786	1	blank2r.bmp	866	1	wein	866	1	!	-1	1	!	-1	0	0	0	0	0	0	0	0	0	0	0	0	0	0	0	0	0	0	0	0	0	0	0	0	0	0	0
073018	10:19:37	5.0.10.0	209	associated	Rpleas_acq	Same	Rpleas	Amasked	CS_A	2pleas	cond_new_pleas_456_masked_CS2	condtest_masked_2	7	3	400	1	300	300	0	0	390	50	0	1	0	0	0	1	blank2r.bmp	0	1	+	0	2	B2r.bmp	492	1	blank2r.bmp	786	1	DJMR	786	1	blank2r.bmp	866	2	reife	866	1	!	1239	1	!	1292	0	0	0	0	0	0	0	0	0	0	0	0	0	0	0	0	0	0	0	0	0	0	0	0	0	0	0
073018	10:19:37	5.0.10.0	209	associated	Rpleas_acq	Same	Rpleas	Amasked	CS_A	2pleas	cond_US_pleas_123_masked_CS1	condtest_masked_2	7	4	400	0	300	300	0	0	321	50	0	1	0	0	0	1	blank2r.bmp	0	1	+	0	6	C2r.bmp	492	1	blank2r.bmp	786	1	HLST	786	1	blank2r.bmp	866	2	meer	866	1	!	-1	1	!	-1	0	0	0	0	0	0	0	0	0	0	0	0	0	0	0	0	0	0	0	0	0	0	0	0	0	0	0
073018	10:19:37	5.0.10.0	209	associated	Rpleas_acq	Same	Rpleas	Amasked	CS_A	2pleas	cond_new_pleas_456_masked_CS1	condtest_masked_2	7	5	400	1	300	300	0	0	362	50	0	1	0	0	0	1	blank2r.bmp	0	1	+	0	5	C1r.bmp	492	1	blank2r.bmp	786	1	HLST	786	1	blank2r.bmp	866	2	reife	866	1	!	1239	1	!	1266	0	0	0	0	0	0	0	0	0	0	0	0	0	0	0	0	0	0	0	0	0	0	0	0	0	0	0
073018	10:19:37	5.0.10.0	209	associated	Rpleas_acq	Same	Rpleas	Amasked	CS_A	2pleas	cond_new_unple_456_masked_CS1	condtest_masked_2	7	6	400	1	300	300	0	0	437	50	0	0	0	0	0	1	blank2r.bmp	0	1	+	0	1	B1r.bmp	492	1	blank2r.bmp	786	1	HLST	786	1	blank2r.bmp	866	1	reien	866	1	!	1239	1	!	1332	0	0	0	0	0	0	0	0	0	0	0	0	0	0	0	0	0	0	0	0	0	0	0	0	0	0	0
073018	10:19:37	5.0.10.0	209	associated	Rpleas_acq	Same	Rpleas	Amasked	CS_A	2pleas	cond_new_unple_456_masked_CS1	condtest_masked_2	7	7	400	0	300	300	0	0	584	46	0	1	0	0	0	1	blank2r.bmp	0	1	+	0	4	B4r.bmp	492	1	blank2r.bmp	786	1	HLST	786	1	blank2r.bmp	866	1	reien	866	1	!	1239	1	!	-1	0	0	0	0	0	0	0	0	0	0	0	0	0	0	0	0	0	0	0	0	0	0	0	0	0	0	0
073018	10:19:37	5.0.10.0	209	associated	Rpleas_acq	Same	Rpleas	Amasked	CS_A	2pleas	cond_new_unple_456_masked_CS1	condtest_masked_2	7	8	400	1	300	300	0	0	381	46	0	1	0	0	0	1	blank2r.bmp	0	1	+	0	8	C4r.bmp	492	1	blank2r.bmp	786	1	HLST	786	1	blank2r.bmp	866	3	waffe	866	1	!	1239	1	!	1279	0	0	0	0	0	0	0	0	0	0	0	0	0	0	0	0	0	0	0	0	0	0	0	0	0	0	0
073018	10:19:37	5.0.10.0	209	associated	Rpleas_acq	Same	Rpleas	Amasked	CS_A	2pleas	cond_US_pleas_123_masked_CS1	condtest_masked_2	7	9	400	1	300	300	0	0	435	50	0	1	0	0	0	1	blank2r.bmp	0	1	+	0	7	C3r.bmp	492	1	blank2r.bmp	786	1	HLST	786	1	blank2r.bmp	866	3	erfinder	866	1	!	1239	1	!	1332	0	0	0	0	0	0	0	0	0	0	0	0	0	0	0	0	0	0	0	0	0	0	0	0	0	0	0
073018	10:19:37	5.0.10.0	209	associated	Rpleas_acq	Same	Rpleas	Amasked	CS_A	2pleas	cond_new_pleas_456_masked_CS2	condtest_masked_2	7	10	400	1	300	300	0	0	447	50	0	1	0	0	0	1	blank2r.bmp	0	1	+	0	8	C4r.bmp	492	1	blank2r.bmp	786	1	DJMR	786	1	blank2r.bmp	866	1	umarmen	866	1	!	1239	1	!	1346	0	0	0	0	0	0	0	0	0	0	0	0	0	0	0	0	0	0	0	0	0	0	0	0	0	0	0
073018	10:19:37	5.0.10.0	209	associated	Rpleas_acq	Same	Rpleas	Amasked	CS_A	2pleas	cond_US_pleas_123_masked_CS1	condtest_masked_2	7	11	400	1	300	300	0	0	346	50	0	1	0	0	0	1	blank2r.bmp	0	1	+	0	5	C1r.bmp	492	1	blank2r.bmp	786	1	HLST	786	1	blank2r.bmp	866	1	wein	866	1	!	1239	1	!	1252	0	0	0	0	0	0	0	0	0	0	0	0	0	0	0	0	0	0	0	0	0	0	0	0	0	0	0
073018	10:19:37	5.0.10.0	209	associated	Rpleas_acq	Same	Rpleas	Amasked	CS_A	2pleas	cond_US_unple_123_masked_CS1	condtest_masked_2	7	12	400	1	300	300	0	0	371	46	0	1	0	0	0	1	blank2r.bmp	0	1	+	0	3	B3r.bmp	492	1	blank2r.bmp	786	1	HLST	786	1	blank2r.bmp	866	1	zwang	866	1	!	1239	1	!	1266	0	0	0	0	0	0	0	0	0	0	0	0	0	0	0	0	0	0	0	0	0	0	0	0	0	0	0
073018	10:19:37	5.0.10.0	209	associated	Rpleas_acq	Same	Rpleas	Amasked	CS_A	2pleas	cond_US_unple_123_masked_CS2	condtest_masked_2	7	13	400	1	300	300	0	0	416	46	0	1	0	0	0	1	blank2r.bmp	0	1	+	0	1	B1r.bmp	492	1	blank2r.bmp	786	1	DJMR	786	1	blank2r.bmp	866	3	narr	866	1	!	1239	1	!	1319	0	0	0	0	0	0	0	0	0	0	0	0	0	0	0	0	0	0	0	0	0	0	0	0	0	0	0
073018	10:19:37	5.0.10.0	209	associated	Rpleas_acq	Same	Rpleas	Amasked	CS_A	2pleas	cond_US_unple_123_masked_CS2	condtest_masked_2	7	14	400	1	300	300	0	0	355	46	0	1	0	0	0	1	blank2r.bmp	0	1	+	0	2	B2r.bmp	492	1	blank2r.bmp	786	1	DJMR	786	1	blank2r.bmp	866	2	geiz	866	1	!	1239	1	!	1252	0	0	0	0	0	0	0	0	0	0	0	0	0	0	0	0	0	0	0	0	0	0	0	0	0	0	0
073018	10:19:37	5.0.10.0	209	associated	Rpleas_acq	Same	Rpleas	Amasked	CS_A	2pleas	cond_new_pleas_456_masked_CS1	condtest_masked_2	7	15	400	1	300	300	0	0	392	50	0	1	0	0	0	1	blank2r.bmp	0	1	+	0	4	B4r.bmp	492	1	blank2r.bmp	786	1	HLST	786	1	blank2r.bmp	866	3	freude	866	1	!	1239	1	!	1292	0	0	0	0	0	0	0	0	0	0	0	0	0	0	0	0	0	0	0	0	0	0	0	0	0	0	0
073018	10:19:37	5.0.10.0	209	associated	Rpleas_acq	Same	Rpleas	Amasked	CS_A	2pleas	cond_US_unple_123_masked_CS2	condtest_masked_2	7	16	400	1	300	300	0	0	427	46	0	1	0	0	0	1	blank2r.bmp	0	1	+	0	6	C2r.bmp	492	1	blank2r.bmp	786	1	DJMR	786	1	blank2r.bmp	866	1	zwang	866	1	!	1239	1	!	1332	0	0	0	0	0	0	0	0	0	0	0	0	0	0	0	0	0	0	0	0	0	0	0	0	0	0	0
073018	10:19:37	5.0.10.0	209	associated	Rpleas_acq	Same	Rpleas	Amasked	CS_A	2pleas	cond_new_pleas_456_masked_CS1	condtest_masked_2	7	17	400	1	300	300	0	0	417	50	0	1	0	0	0	1	blank2r.bmp	0	1	+	0	7	C3r.bmp	492	1	blank2r.bmp	786	1	HLST	786	1	blank2r.bmp	866	3	freude	866	1	!	1239	1	!	1319	0	0	0	0	0	0	0	0	0	0	0	0	0	0	0	0	0	0	0	0	0	0	0	0	0	0	0
073018	10:19:37	5.0.10.0	209	associated	Rpleas_acq	Same	Rpleas	Amasked	CS_A	2pleas	cond_new_unple_456_masked_CS1	condtest_masked_2	7	18	400	0	300	300	0	0	479	46	0	1	0	0	0	1	blank2r.bmp	0	1	+	0	4	B4r.bmp	492	1	blank2r.bmp	786	1	HLST	786	1	blank2r.bmp	866	2	feind	866	1	!	1239	1	!	-1	0	0	0	0	0	0	0	0	0	0	0	0	0	0	0	0	0	0	0	0	0	0	0	0	0	0	0
073018	10:19:37	5.0.10.0	209	associated	Rpleas_acq	Same	Rpleas	Amasked	CS_A	2pleas	cond_US_unple_123_masked_CS2	condtest_masked_2	7	19	400	0	300	300	0	0	317	46	0	1	0	0	0	1	blank2r.bmp	0	1	+	0	1	B1r.bmp	492	1	blank2r.bmp	786	1	DJMR	786	1	blank2r.bmp	866	2	geiz	866	1	!	-1	1	!	-1	0	0	0	0	0	0	0	0	0	0	0	0	0	0	0	0	0	0	0	0	0	0	0	0	0	0	0
073018	10:19:37	5.0.10.0	209	associated	Rpleas_acq	Same	Rpleas	Amasked	CS_A	2pleas	cond_US_unple_123_masked_CS1	condtest_masked_2	7	20	400	0	300	300	0	0	502	46	0	1	0	0	0	1	blank2r.bmp	0	1	+	0	2	B2r.bmp	492	1	blank2r.bmp	786	1	HLST	786	1	blank2r.bmp	866	3	narr	866	1	!	1239	1	!	-1	0	0	0	0	0	0	0	0	0	0	0	0	0	0	0	0	0	0	0	0	0	0	0	0	0	0	0
073018	10:19:37	5.0.10.0	209	associated	Rpleas_acq	Same	Rpleas	Amasked	CS_A	2pleas	cond_new_unple_456_masked_CS2	condtest_masked_2	7	21	400	1	300	300	0	0	360	50	0	0	0	0	0	1	blank2r.bmp	0	1	+	0	3	B3r.bmp	492	1	blank2r.bmp	786	1	DJMR	786	1	blank2r.bmp	866	2	feind	866	1	!	1239	1	!	1266	0	0	0	0	0	0	0	0	0	0	0	0	0	0	0	0	0	0	0	0	0	0	0	0	0	0	0
073018	10:19:37	5.0.10.0	209	associated	Rpleas_acq	Same	Rpleas	Amasked	CS_A	2pleas	cond_new_pleas_456_masked_CS2	condtest_masked_2	7	22	400	1	300	300	0	0	353	50	0	1	0	0	0	1	blank2r.bmp	0	1	+	0	6	C2r.bmp	492	1	blank2r.bmp	786	1	DJMR	786	1	blank2r.bmp	866	2	reife	866	1	!	1239	1	!	1252	0	0	0	0	0	0	0	0	0	0	0	0	0	0	0	0	0	0	0	0	0	0	0	0	0	0	0
073018	10:19:37	5.0.10.0	209	associated	Rpleas_acq	Same	Rpleas	Amasked	CS_A	2pleas	cond_new_pleas_456_masked_CS1	condtest_masked_2	7	23	400	0	300	300	0	0	564	50	0	1	0	0	0	1	blank2r.bmp	0	1	+	0	5	C1r.bmp	492	1	blank2r.bmp	786	1	HLST	786	1	blank2r.bmp	866	1	umarmen	866	1	!	1239	1	!	-1	0	0	0	0	0	0	0	0	0	0	0	0	0	0	0	0	0	0	0	0	0	0	0	0	0	0	0
073018	10:19:37	5.0.10.0	209	associated	Rpleas_acq	Same	Rpleas	Amasked	CS_A	2pleas	cond_US_pleas_123_masked_CS2	condtest_masked_2	7	24	400	0	300	300	0	0	261	50	0	1	0	0	0	1	blank2r.bmp	0	1	+	0	8	C4r.bmp	492	1	blank2r.bmp	786	1	DJMR	786	1	blank2r.bmp	866	2	meer	866	1	!	-1	1	!	-1	0	0	0	0	0	0	0	0	0	0	0	0	0	0	0	0	0	0	0	0	0	0	0	0	0	0	0
073018	10:19:37	5.0.10.0	209	associated	Rpleas_acq	Same	Rpleas	Amasked	CS_A	2pleas	cond_new_pleas_456_masked_CS2	condtest_masked_2	7	25	400	0	300	300	0	0	479	50	0	1	0	0	0	1	blank2r.bmp	0	1	+	0	2	B2r.bmp	492	1	blank2r.bmp	786	1	DJMR	786	1	blank2r.bmp	866	3	freude	866	1	!	1239	1	!	-1	0	0	0	0	0	0	0	0	0	0	0	0	0	0	0	0	0	0	0	0	0	0	0	0	0	0	0
073018	10:19:37	5.0.10.0	209	associated	Rpleas_acq	Same	Rpleas	Amasked	CS_A	2pleas	cond_US_unple_123_masked_CS1	condtest_masked_2	7	26	400	1	300	300	0	0	346	46	0	1	0	0	0	1	blank2r.bmp	0	1	+	0	7	C3r.bmp	492	1	blank2r.bmp	786	1	HLST	786	1	blank2r.bmp	866	1	zwang	866	1	!	1239	1	!	1252	0	0	0	0	0	0	0	0	0	0	0	0	0	0	0	0	0	0	0	0	0	0	0	0	0	0	0
073018	10:19:37	5.0.10.0	209	associated	Rpleas_acq	Same	Rpleas	Amasked	CS_A	2pleas	cond_new_unple_456_masked_CS2	condtest_masked_2	7	27	400	1	300	300	0	0	357	50	0	0	0	0	0	1	blank2r.bmp	0	1	+	0	5	C1r.bmp	492	1	blank2r.bmp	786	1	DJMR	786	1	blank2r.bmp	866	3	waffe	866	1	!	1239	1	!	1252	0	0	0	0	0	0	0	0	0	0	0	0	0	0	0	0	0	0	0	0	0	0	0	0	0	0	0
073018	10:19:37	5.0.10.0	209	associated	Rpleas_acq	Same	Rpleas	Amasked	CS_A	2pleas	cond_US_unple_123_masked_CS2	condtest_masked_2	7	28	400	0	300	300	0	0	333	46	0	1	0	0	0	1	blank2r.bmp	0	1	+	0	6	C2r.bmp	492	1	blank2r.bmp	786	1	DJMR	786	1	blank2r.bmp	866	1	zwang	866	1	!	-1	1	!	-1	0	0	0	0	0	0	0	0	0	0	0	0	0	0	0	0	0	0	0	0	0	0	0	0	0	0	0
073018	10:19:37	5.0.10.0	209	associated	Rpleas_acq	Same	Rpleas	Amasked	CS_A	2pleas	cond_US_pleas_123_masked_CS2	condtest_masked_2	7	29	400	0	300	300	0	0	494	50	0	1	0	0	0	1	blank2r.bmp	0	1	+	0	3	B3r.bmp	492	1	blank2r.bmp	786	1	DJMR	786	1	blank2r.bmp	866	3	erfinder	866	1	!	1239	1	!	-1	0	0	0	0	0	0	0	0	0	0	0	0	0	0	0	0	0	0	0	0	0	0	0	0	0	0	0
073018	10:19:37	5.0.10.0	209	associated	Rpleas_acq	Same	Rpleas	Amasked	CS_A	2pleas	cond_US_unple_123_masked_CS1	condtest_masked_2	7	30	400	0	300	300	0	0	513	46	0	1	0	0	0	1	blank2r.bmp	0	1	+	0	1	B1r.bmp	492	1	blank2r.bmp	786	1	HLST	786	1	blank2r.bmp	866	3	narr	866	1	!	1239	1	!	-1	0	0	0	0	0	0	0	0	0	0	0	0	0	0	0	0	0	0	0	0	0	0	0	0	0	0	0
073018	10:19:37	5.0.10.0	209	associated	Rpleas_acq	Same	Rpleas	Amasked	CS_A	2pleas	cond_new_pleas_456_masked_CS1	condtest_masked_2	7	31	400	0	300	300	0	0	306	46	0	0	0	0	0	1	blank2r.bmp	0	1	+	0	4	B4r.bmp	492	1	blank2r.bmp	786	1	HLST	786	1	blank2r.bmp	866	2	reife	866	1	!	-1	1	!	-1	0	0	0	0	0	0	0	0	0	0	0	0	0	0	0	0	0	0	0	0	0	0	0	0	0	0	0
073018	10:19:37	5.0.10.0	209	associated	Rpleas_acq	Same	Rpleas	Amasked	CS_A	2pleas	cond_US_unple_123_masked_CS1	condtest_masked_2	7	32	400	0	300	300	0	0	306	46	0	1	0	0	0	1	blank2r.bmp	0	1	+	0	8	C4r.bmp	492	1	blank2r.bmp	786	1	HLST	786	1	blank2r.bmp	866	2	geiz	866	1	!	-1	1	!	-1	0	0	0	0	0	0	0	0	0	0	0	0	0	0	0	0	0	0	0	0	0	0	0	0	0	0	0
073018	10:19:37	5.0.10.0	209	associated	Rpleas_acq	Same	Rpleas	Amasked	CS_A	2pleas	cond_US_pleas_123_masked_CS1	condtest_masked_2	7	33	400	0	300	300	0	0	2401	46	0	0	0	0	0	1	blank2r.bmp	0	1	+	0	6	C2r.bmp	492	1	blank2r.bmp	786	1	HLST	786	1	blank2r.bmp	866	1	wein	866	1	!	1239	1	!	-1	0	0	0	0	0	0	0	0	0	0	0	0	0	0	0	0	0	0	0	0	0	0	0	0	0	0	0
073018	10:19:37	5.0.10.0	209	associated	Rpleas_acq	Same	Rpleas	Amasked	CS_A	2pleas	cond_new_unple_456_masked_CS2	condtest_masked_2	7	34	400	0	300	300	0	0	330	46	0	1	0	0	0	1	blank2r.bmp	0	1	+	0	7	C3r.bmp	492	1	blank2r.bmp	786	1	DJMR	786	1	blank2r.bmp	866	1	reien	866	1	!	-1	1	!	-1	0	0	0	0	0	0	0	0	0	0	0	0	0	0	0	0	0	0	0	0	0	0	0	0	0	0	0
073018	10:19:37	5.0.10.0	209	associated	Rpleas_acq	Same	Rpleas	Amasked	CS_A	2pleas	cond_new_unple_456_masked_CS2	condtest_masked_2	7	35	400	1	300	300	0	0	456	46	0	1	0	0	0	1	blank2r.bmp	0	1	+	0	1	B1r.bmp	492	1	blank2r.bmp	786	1	DJMR	786	1	blank2r.bmp	866	3	waffe	866	1	!	1239	1	!	1359	0	0	0	0	0	0	0	0	0	0	0	0	0	0	0	0	0	0	0	0	0	0	0	0	0	0	0
073018	10:19:37	5.0.10.0	209	associated	Rpleas_acq	Same	Rpleas	Amasked	CS_A	2pleas	cond_new_unple_456_masked_CS2	condtest_masked_2	7	36	400	0	300	300	0	0	329	46	0	1	0	0	0	1	blank2r.bmp	0	1	+	0	5	C1r.bmp	492	1	blank2r.bmp	786	1	DJMR	786	1	blank2r.bmp	866	1	reien	866	1	!	-1	1	!	-1	0	0	0	0	0	0	0	0	0	0	0	0	0	0	0	0	0	0	0	0	0	0	0	0	0	0	0
073018	10:19:37	5.0.10.0	209	associated	Rpleas_acq	Same	Rpleas	Amasked	CS_A	2pleas	cond_new_pleas_456_masked_CS2	condtest_masked_2	7	37	400	1	300	300	0	0	434	50	0	1	0	0	0	1	blank2r.bmp	0	1	+	0	8	C4r.bmp	492	1	blank2r.bmp	786	1	DJMR	786	1	blank2r.bmp	866	1	umarmen	866	1	!	1239	1	!	1332	0	0	0	0	0	0	0	0	0	0	0	0	0	0	0	0	0	0	0	0	0	0	0	0	0	0	0
073018	10:19:37	5.0.10.0	209	associated	Rpleas_acq	Same	Rpleas	Amasked	CS_A	2pleas	cond_US_pleas_123_masked_CS2	condtest_masked_2	7	38	400	0	300	300	0	0	488	50	0	1	0	0	0	1	blank2r.bmp	0	1	+	0	2	B2r.bmp	492	1	blank2r.bmp	786	1	DJMR	786	1	blank2r.bmp	866	3	erfinder	866	1	!	1239	1	!	-1	0	0	0	0	0	0	0	0	0	0	0	0	0	0	0	0	0	0	0	0	0	0	0	0	0	0	0
073018	10:19:37	5.0.10.0	209	associated	Rpleas_acq	Same	Rpleas	Amasked	CS_A	2pleas	cond_US_pleas_123_masked_CS2	condtest_masked_2	7	39	400	1	300	300	0	0	369	50	0	1	0	0	0	1	blank2r.bmp	0	1	+	0	3	B3r.bmp	492	1	blank2r.bmp	786	1	DJMR	786	1	blank2r.bmp	866	2	meer	866	1	!	1239	1	!	1266	0	0	0	0	0	0	0	0	0	0	0	0	0	0	0	0	0	0	0	0	0	0	0	0	0	0	0
073018	10:19:37	5.0.10.0	209	associated	Rpleas_acq	Same	Rpleas	Amasked	CS_A	2pleas	cond_new_unple_456_masked_CS1	condtest_masked_2	7	40	400	0	300	300	0	0	503	46	0	1	0	0	0	1	blank2r.bmp	0	1	+	0	4	B4r.bmp	492	1	blank2r.bmp	786	1	HLST	786	1	blank2r.bmp	866	2	feind	866	1	!	1239	1	!	-1	0	0	0	0	0	0	0	0	0	0	0	0	0	0	0	0	0	0	0	0	0	0	0	0	0	0	0
073018	10:19:37	5.0.10.0	209	associated	Rpleas_acq	Same	Rpleas	Amasked	CS_A	2pleas	cond_new_pleas_123_masked_CS2	condtest_masked_3	8	1	400	1	300	300	0	0	355	46	0	0	0	0	0	1	blank2r.bmp	0	1	+	0	2	B2r.bmp	492	1	blank2r.bmp	786	1	DJMR	786	1	blank2r.bmp	866	1	genu	866	1	!	1239	1	!	1252	0	0	0	0	0	0	0	0	0	0	0	0	0	0	0	0	0	0	0	0	0	0	0	0	0	0	0
073018	10:19:37	5.0.10.0	209	associated	Rpleas_acq	Same	Rpleas	Amasked	CS_A	2pleas	cond_new_unple_123_masked_CS1	condtest_masked_3	8	2	400	0	300	300	0	0	324	50	0	0	0	0	0	1	blank2r.bmp	0	1	+	0	7	C3r.bmp	492	1	blank2r.bmp	786	1	HLST	786	1	blank2r.bmp	866	3	dumm	866	1	!	-1	1	!	-1	0	0	0	0	0	0	0	0	0	0	0	0	0	0	0	0	0	0	0	0	0	0	0	0	0	0	0
073018	10:19:37	5.0.10.0	209	associated	Rpleas_acq	Same	Rpleas	Amasked	CS_A	2pleas	cond_new_pleas_123_masked_CS2	condtest_masked_3	8	3	400	0	300	300	0	0	281	46	0	0	0	0	0	1	blank2r.bmp	0	1	+	0	3	B3r.bmp	492	1	blank2r.bmp	786	1	DJMR	786	1	blank2r.bmp	866	3	genie	866	1	!	-1	1	!	-1	0	0	0	0	0	0	0	0	0	0	0	0	0	0	0	0	0	0	0	0	0	0	0	0	0	0	0
073018	10:19:37	5.0.10.0	209	associated	Rpleas_acq	Same	Rpleas	Amasked	CS_A	2pleas	cond_new_unple_123_masked_CS2	condtest_masked_3	8	4	400	0	300	300	0	0	1719	46	0	1	0	0	0	1	blank2r.bmp	0	1	+	0	6	C2r.bmp	492	1	blank2r.bmp	786	1	DJMR	786	1	blank2r.bmp	866	1	einengen	866	1	!	1239	1	!	-1	0	0	0	0	0	0	0	0	0	0	0	0	0	0	0	0	0	0	0	0	0	0	0	0	0	0	0
073018	10:19:37	5.0.10.0	209	associated	Rpleas_acq	Same	Rpleas	Amasked	CS_A	2pleas	cond_US_unple_456_masked_CS1	condtest_masked_3	8	5	400	0	300	300	0	0	316	46	0	1	0	0	0	1	blank2r.bmp	0	1	+	0	4	B4r.bmp	492	1	blank2r.bmp	786	1	HLST	786	1	blank2r.bmp	866	2	gegner	866	1	!	-1	1	!	-1	0	0	0	0	0	0	0	0	0	0	0	0	0	0	0	0	0	0	0	0	0	0	0	0	0	0	0
073018	10:19:37	5.0.10.0	209	associated	Rpleas_acq	Same	Rpleas	Amasked	CS_A	2pleas	cond_US_unple_456_masked_CS1	condtest_masked_3	8	6	400	0	300	300	0	0	295	46	0	1	0	0	0	1	blank2r.bmp	0	1	+	0	5	C1r.bmp	492	1	blank2r.bmp	786	1	HLST	786	1	blank2r.bmp	866	1	wunde	866	1	!	-1	1	!	-1	0	0	0	0	0	0	0	0	0	0	0	0	0	0	0	0	0	0	0	0	0	0	0	0	0	0	0
073018	10:19:37	5.0.10.0	209	associated	Rpleas_acq	Same	Rpleas	Amasked	CS_A	2pleas	cond_new_unple_123_masked_CS2	condtest_masked_3	8	7	400	0	300	300	0	0	479	46	0	1	0	0	0	1	blank2r.bmp	0	1	+	0	8	C4r.bmp	492	1	blank2r.bmp	786	1	DJMR	786	1	blank2r.bmp	866	2	neid	866	1	!	1239	1	!	-1	0	0	0	0	0	0	0	0	0	0	0	0	0	0	0	0	0	0	0	0	0	0	0	0	0	0	0
073018	10:19:37	5.0.10.0	209	associated	Rpleas_acq	Same	Rpleas	Amasked	CS_A	2pleas	cond_new_unple_123_masked_CS2	condtest_masked_3	8	8	400	1	300	300	0	0	465	50	0	0	0	0	0	1	blank2r.bmp	0	1	+	0	1	B1r.bmp	492	1	blank2r.bmp	786	1	DJMR	786	1	blank2r.bmp	866	1	einengen	866	1	!	1239	1	!	1359	0	0	0	0	0	0	0	0	0	0	0	0	0	0	0	0	0	0	0	0	0	0	0	0	0	0	0
073018	10:19:37	5.0.10.0	209	associated	Rpleas_acq	Same	Rpleas	Amasked	CS_A	2pleas	cond_US_pleas_456_masked_CS2	condtest_masked_3	8	9	400	0	300	300	0	0	509	50	0	1	0	0	0	1	blank2r.bmp	0	1	+	0	5	C1r.bmp	492	1	blank2r.bmp	786	1	DJMR	786	1	blank2r.bmp	866	2	jugend	866	1	!	1239	1	!	-1	0	0	0	0	0	0	0	0	0	0	0	0	0	0	0	0	0	0	0	0	0	0	0	0	0	0	0
073018	10:19:37	5.0.10.0	209	associated	Rpleas_acq	Same	Rpleas	Amasked	CS_A	2pleas	cond_US_pleas_456_masked_CS1	condtest_masked_3	8	10	400	1	300	300	0	0	409	46	0	0	0	0	0	1	blank2r.bmp	0	1	+	0	8	C4r.bmp	492	1	blank2r.bmp	786	1	HLST	786	1	blank2r.bmp	866	3	frieden	866	1	!	1239	1	!	1306	0	0	0	0	0	0	0	0	0	0	0	0	0	0	0	0	0	0	0	0	0	0	0	0	0	0	0
073018	10:19:37	5.0.10.0	209	associated	Rpleas_acq	Same	Rpleas	Amasked	CS_A	2pleas	cond_US_unple_456_masked_CS1	condtest_masked_3	8	11	400	1	300	300	0	0	373	46	0	1	0	0	0	1	blank2r.bmp	0	1	+	0	3	B3r.bmp	492	1	blank2r.bmp	786	1	HLST	786	1	blank2r.bmp	866	3	armee	866	1	!	1239	1	!	1279	0	0	0	0	0	0	0	0	0	0	0	0	0	0	0	0	0	0	0	0	0	0	0	0	0	0	0
073018	10:19:37	5.0.10.0	209	associated	Rpleas_acq	Same	Rpleas	Amasked	CS_A	2pleas	cond_US_unple_456_masked_CS1	condtest_masked_3	8	12	400	1	300	300	0	0	406	46	0	1	0	0	0	1	blank2r.bmp	0	1	+	0	2	B2r.bmp	492	1	blank2r.bmp	786	1	HLST	786	1	blank2r.bmp	866	1	wunde	866	1	!	1239	1	!	1306	0	0	0	0	0	0	0	0	0	0	0	0	0	0	0	0	0	0	0	0	0	0	0	0	0	0	0
073018	10:19:37	5.0.10.0	209	associated	Rpleas_acq	Same	Rpleas	Amasked	CS_A	2pleas	cond_US_unple_456_masked_CS2	condtest_masked_3	8	13	400	0	300	300	0	0	645	50	0	0	0	0	0	1	blank2r.bmp	0	1	+	0	1	B1r.bmp	492	1	blank2r.bmp	786	1	DJMR	786	1	blank2r.bmp	866	2	gegner	866	1	!	1239	1	!	-1	0	0	0	0	0	0	0	0	0	0	0	0	0	0	0	0	0	0	0	0	0	0	0	0	0	0	0
073018	10:19:37	5.0.10.0	209	associated	Rpleas_acq	Same	Rpleas	Amasked	CS_A	2pleas	cond_US_unple_456_masked_CS2	condtest_masked_3	8	14	400	0	300	300	0	0	673	46	0	1	0	0	0	1	blank2r.bmp	0	1	+	0	7	C3r.bmp	492	1	blank2r.bmp	786	1	DJMR	786	1	blank2r.bmp	866	3	armee	866	1	!	1239	1	!	-1	0	0	0	0	0	0	0	0	0	0	0	0	0	0	0	0	0	0	0	0	0	0	0	0	0	0	0
073018	10:19:37	5.0.10.0	209	associated	Rpleas_acq	Same	Rpleas	Amasked	CS_A	2pleas	cond_new_unple_123_masked_CS2	condtest_masked_3	8	15	400	0	300	300	0	0	501	50	0	0	0	0	0	1	blank2r.bmp	0	1	+	0	4	B4r.bmp	492	1	blank2r.bmp	786	1	DJMR	786	1	blank2r.bmp	866	3	dumm	866	1	!	1239	1	!	-1	0	0	0	0	0	0	0	0	0	0	0	0	0	0	0	0	0	0	0	0	0	0	0	0	0	0	0
073018	10:19:37	5.0.10.0	209	associated	Rpleas_acq	Same	Rpleas	Amasked	CS_A	2pleas	cond_US_unple_456_masked_CS2	condtest_masked_3	8	16	400	0	300	300	0	0	496	46	0	1	0	0	0	1	blank2r.bmp	0	1	+	0	6	C2r.bmp	492	1	blank2r.bmp	786	1	DJMR	786	1	blank2r.bmp	866	2	gegner	866	1	!	1239	1	!	-1	0	0	0	0	0	0	0	0	0	0	0	0	0	0	0	0	0	0	0	0	0	0	0	0	0	0	0
073018	10:19:37	5.0.10.0	209	associated	Rpleas_acq	Same	Rpleas	Amasked	CS_A	2pleas	cond_new_unple_123_masked_CS1	condtest_masked_3	8	17	400	0	300	300	0	0	242	46	0	1	0	0	0	1	blank2r.bmp	0	1	+	0	5	C1r.bmp	492	1	blank2r.bmp	786	1	HLST	786	1	blank2r.bmp	866	2	neid	866	1	!	-1	1	!	-1	0	0	0	0	0	0	0	0	0	0	0	0	0	0	0	0	0	0	0	0	0	0	0	0	0	0	0
073018	10:19:37	5.0.10.0	209	associated	Rpleas_acq	Same	Rpleas	Amasked	CS_A	2pleas	cond_US_pleas_456_masked_CS2	condtest_masked_3	8	18	400	1	300	300	0	0	387	50	0	1	0	0	0	1	blank2r.bmp	0	1	+	0	2	B2r.bmp	492	1	blank2r.bmp	786	1	DJMR	786	1	blank2r.bmp	866	1	mama	866	1	!	1239	1	!	1292	0	0	0	0	0	0	0	0	0	0	0	0	0	0	0	0	0	0	0	0	0	0	0	0	0	0	0
073018	10:19:37	5.0.10.0	209	associated	Rpleas_acq	Same	Rpleas	Amasked	CS_A	2pleas	cond_new_pleas_123_masked_CS1	condtest_masked_3	8	19	400	1	300	300	0	0	417	50	0	1	0	0	0	1	blank2r.bmp	0	1	+	0	4	B4r.bmp	492	1	blank2r.bmp	786	1	HLST	786	1	blank2r.bmp	866	2	wind	866	1	!	1239	1	!	1319	0	0	0	0	0	0	0	0	0	0	0	0	0	0	0	0	0	0	0	0	0	0	0	0	0	0	0
073018	10:19:37	5.0.10.0	209	associated	Rpleas_acq	Same	Rpleas	Amasked	CS_A	2pleas	cond_new_unple_123_masked_CS1	condtest_masked_3	8	20	400	1	300	300	0	0	426	46	0	1	0	0	0	1	blank2r.bmp	0	1	+	0	6	C2r.bmp	492	1	blank2r.bmp	786	1	HLST	786	1	blank2r.bmp	866	1	einengen	866	1	!	1239	1	!	1332	0	0	0	0	0	0	0	0	0	0	0	0	0	0	0	0	0	0	0	0	0	0	0	0	0	0	0
073018	10:19:37	5.0.10.0	209	associated	Rpleas_acq	Same	Rpleas	Amasked	CS_A	2pleas	cond_US_unple_456_masked_CS1	condtest_masked_3	8	21	400	1	300	300	0	0	462	46	0	1	0	0	0	1	blank2r.bmp	0	1	+	0	8	C4r.bmp	492	1	blank2r.bmp	786	1	HLST	786	1	blank2r.bmp	866	3	armee	866	1	!	1239	1	!	1359	0	0	0	0	0	0	0	0	0	0	0	0	0	0	0	0	0	0	0	0	0	0	0	0	0	0	0
073018	10:19:37	5.0.10.0	209	associated	Rpleas_acq	Same	Rpleas	Amasked	CS_A	2pleas	cond_US_pleas_456_masked_CS2	condtest_masked_3	8	22	400	0	300	300	0	0	305	46	0	0	0	0	0	1	blank2r.bmp	0	1	+	0	1	B1r.bmp	492	1	blank2r.bmp	786	1	DJMR	786	1	blank2r.bmp	866	2	jugend	866	1	!	-1	1	!	-1	0	0	0	0	0	0	0	0	0	0	0	0	0	0	0	0	0	0	0	0	0	0	0	0	0	0	0
073018	10:19:37	5.0.10.0	209	associated	Rpleas_acq	Same	Rpleas	Amasked	CS_A	2pleas	cond_US_pleas_456_masked_CS1	condtest_masked_3	8	23	400	1	300	300	0	0	419	50	0	1	0	0	0	1	blank2r.bmp	0	1	+	0	7	C3r.bmp	492	1	blank2r.bmp	786	1	HLST	786	1	blank2r.bmp	866	1	mama	866	1	!	1239	1	!	1319	0	0	0	0	0	0	0	0	0	0	0	0	0	0	0	0	0	0	0	0	0	0	0	0	0	0	0
073018	10:19:37	5.0.10.0	209	associated	Rpleas_acq	Same	Rpleas	Amasked	CS_A	2pleas	cond_US_pleas_456_masked_CS1	condtest_masked_3	8	24	400	1	300	300	0	0	405	50	0	1	0	0	0	1	blank2r.bmp	0	1	+	0	3	B3r.bmp	492	1	blank2r.bmp	786	1	HLST	786	1	blank2r.bmp	866	3	frieden	866	1	!	1239	1	!	1306	0	0	0	0	0	0	0	0	0	0	0	0	0	0	0	0	0	0	0	0	0	0	0	0	0	0	0
073018	10:19:37	5.0.10.0	209	associated	Rpleas_acq	Same	Rpleas	Amasked	CS_A	2pleas	cond_US_pleas_456_masked_CS1	condtest_masked_3	8	25	400	1	300	300	0	0	371	50	0	1	0	0	0	1	blank2r.bmp	0	1	+	0	5	C1r.bmp	492	1	blank2r.bmp	786	1	HLST	786	1	blank2r.bmp	866	1	mama	866	1	!	1239	1	!	1266	0	0	0	0	0	0	0	0	0	0	0	0	0	0	0	0	0	0	0	0	0	0	0	0	0	0	0
073018	10:19:37	5.0.10.0	209	associated	Rpleas_acq	Same	Rpleas	Amasked	CS_A	2pleas	cond_new_pleas_123_masked_CS2	condtest_masked_3	8	26	400	1	300	300	0	0	409	50	0	1	0	0	0	1	blank2r.bmp	0	1	+	0	4	B4r.bmp	492	1	blank2r.bmp	786	1	DJMR	786	1	blank2r.bmp	866	1	genu	866	1	!	1239	1	!	1306	0	0	0	0	0	0	0	0	0	0	0	0	0	0	0	0	0	0	0	0	0	0	0	0	0	0	0
073018	10:19:37	5.0.10.0	209	associated	Rpleas_acq	Same	Rpleas	Amasked	CS_A	2pleas	cond_new_pleas_123_masked_CS1	condtest_masked_3	8	27	400	1	300	300	0	0	432	50	0	1	0	0	0	1	blank2r.bmp	0	1	+	0	1	B1r.bmp	492	1	blank2r.bmp	786	1	HLST	786	1	blank2r.bmp	866	2	wind	866	1	!	1239	1	!	1332	0	0	0	0	0	0	0	0	0	0	0	0	0	0	0	0	0	0	0	0	0	0	0	0	0	0	0
073018	10:19:37	5.0.10.0	209	associated	Rpleas_acq	Same	Rpleas	Amasked	CS_A	2pleas	cond_US_unple_456_masked_CS2	condtest_masked_3	8	28	400	0	300	300	0	0	479	46	0	1	0	0	0	1	blank2r.bmp	0	1	+	0	6	C2r.bmp	492	1	blank2r.bmp	786	1	DJMR	786	1	blank2r.bmp	866	1	wunde	866	1	!	1239	1	!	-1	0	0	0	0	0	0	0	0	0	0	0	0	0	0	0	0	0	0	0	0	0	0	0	0	0	0	0
073018	10:19:37	5.0.10.0	209	associated	Rpleas_acq	Same	Rpleas	Amasked	CS_A	2pleas	cond_US_pleas_456_masked_CS2	condtest_masked_3	8	29	400	1	300	300	0	0	370	46	0	0	0	0	0	1	blank2r.bmp	0	1	+	0	7	C3r.bmp	492	1	blank2r.bmp	786	1	DJMR	786	1	blank2r.bmp	866	2	jugend	866	1	!	1239	1	!	1266	0	0	0	0	0	0	0	0	0	0	0	0	0	0	0	0	0	0	0	0	0	0	0	0	0	0	0
073018	10:19:37	5.0.10.0	209	associated	Rpleas_acq	Same	Rpleas	Amasked	CS_A	2pleas	cond_new_pleas_123_masked_CS2	condtest_masked_3	8	30	400	1	300	300	0	0	410	46	0	0	0	0	0	1	blank2r.bmp	0	1	+	0	2	B2r.bmp	492	1	blank2r.bmp	786	1	DJMR	786	1	blank2r.bmp	866	3	genie	866	1	!	1239	1	!	1306	0	0	0	0	0	0	0	0	0	0	0	0	0	0	0	0	0	0	0	0	0	0	0	0	0	0	0
073018	10:19:37	5.0.10.0	209	associated	Rpleas_acq	Same	Rpleas	Amasked	CS_A	2pleas	cond_new_pleas_123_masked_CS1	condtest_masked_3	8	31	400	0	300	300	0	0	570	50	0	1	0	0	0	1	blank2r.bmp	0	1	+	0	8	C4r.bmp	492	1	blank2r.bmp	786	1	HLST	786	1	blank2r.bmp	866	3	genie	866	1	!	1239	1	!	-1	0	0	0	0	0	0	0	0	0	0	0	0	0	0	0	0	0	0	0	0	0	0	0	0	0	0	0
073018	10:19:37	5.0.10.0	209	associated	Rpleas_acq	Same	Rpleas	Amasked	CS_A	2pleas	cond_new_unple_123_masked_CS1	condtest_masked_3	8	32	400	1	300	300	0	0	392	46	0	1	0	0	0	1	blank2r.bmp	0	1	+	0	3	B3r.bmp	492	1	blank2r.bmp	786	1	HLST	786	1	blank2r.bmp	866	3	dumm	866	1	!	1239	1	!	1292	0	0	0	0	0	0	0	0	0	0	0	0	0	0	0	0	0	0	0	0	0	0	0	0	0	0	0
073018	10:19:37	5.0.10.0	209	associated	Rpleas_acq	Same	Rpleas	Amasked	CS_A	2pleas	cond_new_unple_123_masked_CS1	condtest_masked_3	8	33	400	1	300	300	0	0	377	46	0	1	0	0	0	1	blank2r.bmp	0	1	+	0	1	B1r.bmp	492	1	blank2r.bmp	786	1	HLST	786	1	blank2r.bmp	866	2	neid	866	1	!	1239	1	!	1279	0	0	0	0	0	0	0	0	0	0	0	0	0	0	0	0	0	0	0	0	0	0	0	0	0	0	0
073018	10:19:37	5.0.10.0	209	associated	Rpleas_acq	Same	Rpleas	Amasked	CS_A	2pleas	cond_new_pleas_123_masked_CS2	condtest_masked_3	8	34	400	1	300	300	0	0	399	50	0	1	0	0	0	1	blank2r.bmp	0	1	+	0	3	B3r.bmp	492	1	blank2r.bmp	786	1	DJMR	786	1	blank2r.bmp	866	2	wind	866	1	!	1239	1	!	1306	0	0	0	0	0	0	0	0	0	0	0	0	0	0	0	0	0	0	0	0	0	0	0	0	0	0	0
073018	10:19:37	5.0.10.0	209	associated	Rpleas_acq	Same	Rpleas	Amasked	CS_A	2pleas	cond_new_unple_123_masked_CS2	condtest_masked_3	8	35	400	1	300	300	0	0	408	46	0	1	0	0	0	1	blank2r.bmp	0	1	+	0	7	C3r.bmp	492	1	blank2r.bmp	786	1	DJMR	786	1	blank2r.bmp	866	3	dumm	866	1	!	1239	1	!	1306	0	0	0	0	0	0	0	0	0	0	0	0	0	0	0	0	0	0	0	0	0	0	0	0	0	0	0
073018	10:19:37	5.0.10.0	209	associated	Rpleas_acq	Same	Rpleas	Amasked	CS_A	2pleas	cond_new_pleas_123_masked_CS2	condtest_masked_3	8	36	400	1	300	300	0	0	458	50	0	1	0	0	0	1	blank2r.bmp	0	1	+	0	5	C1r.bmp	492	1	blank2r.bmp	786	1	DJMR	786	1	blank2r.bmp	866	1	genu	866	1	!	1239	1	!	1359	0	0	0	0	0	0	0	0	0	0	0	0	0	0	0	0	0	0	0	0	0	0	0	0	0	0	0
073018	10:19:37	5.0.10.0	209	associated	Rpleas_acq	Same	Rpleas	Amasked	CS_A	2pleas	cond_new_pleas_123_masked_CS1	condtest_masked_3	8	37	400	1	300	300	0	0	464	50	0	1	0	0	0	1	blank2r.bmp	0	1	+	0	2	B2r.bmp	492	1	blank2r.bmp	786	1	HLST	786	1	blank2r.bmp	866	1	genu	866	1	!	1239	1	!	1359	0	0	0	0	0	0	0	0	0	0	0	0	0	0	0	0	0	0	0	0	0	0	0	0	0	0	0
073018	10:19:37	5.0.10.0	209	associated	Rpleas_acq	Same	Rpleas	Amasked	CS_A	2pleas	cond_US_unple_456_masked_CS2	condtest_masked_3	8	38	400	1	300	300	0	0	388	46	0	1	0	0	0	1	blank2r.bmp	0	1	+	0	8	C4r.bmp	492	1	blank2r.bmp	786	1	DJMR	786	1	blank2r.bmp	866	2	gegner	866	1	!	1239	1	!	1292	0	0	0	0	0	0	0	0	0	0	0	0	0	0	0	0	0	0	0	0	0	0	0	0	0	0	0
073018	10:19:37	5.0.10.0	209	associated	Rpleas_acq	Same	Rpleas	Amasked	CS_A	2pleas	cond_US_unple_456_masked_CS1	condtest_masked_3	8	39	400	1	300	300	0	0	358	46	0	1	0	0	0	1	blank2r.bmp	0	1	+	0	6	C2r.bmp	492	1	blank2r.bmp	786	1	HLST	786	1	blank2r.bmp	866	3	armee	866	1	!	1239	1	!	1252	0	0	0	0	0	0	0	0	0	0	0	0	0	0	0	0	0	0	0	0	0	0	0	0	0	0	0
073018	10:19:37	5.0.10.0	209	associated	Rpleas_acq	Same	Rpleas	Amasked	CS_A	2pleas	cond_US_unple_456_masked_CS2	condtest_masked_3	8	40	400	1	300	300	0	0	366	46	0	1	0	0	0	1	blank2r.bmp	0	1	+	0	4	B4r.bmp	492	1	blank2r.bmp	786	1	DJMR	786	1	blank2r.bmp	866	1	wunde	866	1	!	1239	1	!	1266	0	0	0	0	0	0	0	0	0	0	0	0	0	0	0	0	0	0	0	0	0	0	0	0	0	0	0
073018	10:19:37	5.0.10.0	209	associated	Rpleas_acq	Same	Rpleas	Amasked	CS_A	2pleas	cond_US_pleas_456_masked_CS2	condtest_masked_3	8	41	400	1	300	300	0	0	442	50	0	1	0	0	0	1	blank2r.bmp	0	1	+	0	7	C3r.bmp	492	1	blank2r.bmp	786	1	DJMR	786	1	blank2r.bmp	866	3	frieden	866	1	!	1239	1	!	1346	0	0	0	0	0	0	0	0	0	0	0	0	0	0	0	0	0	0	0	0	0	0	0	0	0	0	0
073018	10:19:37	5.0.10.0	209	associated	Rpleas_acq	Same	Rpleas	Amasked	CS_A	2pleas	cond_US_pleas_456_masked_CS2	condtest_masked_3	8	42	400	1	300	300	0	0	372	50	0	1	0	0	0	1	blank2r.bmp	0	1	+	0	4	B4r.bmp	492	1	blank2r.bmp	786	1	DJMR	786	1	blank2r.bmp	866	3	frieden	866	1	!	1239	1	!	1279	0	0	0	0	0	0	0	0	0	0	0	0	0	0	0	0	0	0	0	0	0	0	0	0	0	0	0
073018	10:19:37	5.0.10.0	209	associated	Rpleas_acq	Same	Rpleas	Amasked	CS_A	2pleas	cond_new_unple_123_masked_CS1	condtest_masked_3	8	43	400	1	300	300	0	0	438	46	0	1	0	0	0	1	blank2r.bmp	0	1	+	0	6	C2r.bmp	492	1	blank2r.bmp	786	1	HLST	786	1	blank2r.bmp	866	2	neid	866	1	!	1239	1	!	1332	0	0	0	0	0	0	0	0	0	0	0	0	0	0	0	0	0	0	0	0	0	0	0	0	0	0	0
073018	10:19:37	5.0.10.0	209	associated	Rpleas_acq	Same	Rpleas	Amasked	CS_A	2pleas	cond_new_pleas_123_masked_CS1	condtest_masked_3	8	44	400	1	300	300	0	0	465	50	0	1	0	0	0	1	blank2r.bmp	0	1	+	0	8	C4r.bmp	492	1	blank2r.bmp	786	1	HLST	786	1	blank2r.bmp	866	2	wind	866	1	!	1239	1	!	1359	0	0	0	0	0	0	0	0	0	0	0	0	0	0	0	0	0	0	0	0	0	0	0	0	0	0	0
073018	10:19:37	5.0.10.0	209	associated	Rpleas_acq	Same	Rpleas	Amasked	CS_A	2pleas	cond_US_pleas_456_masked_CS1	condtest_masked_3	8	45	400	0	300	300	0	0	624	50	0	1	0	0	0	1	blank2r.bmp	0	1	+	0	2	B2r.bmp	492	1	blank2r.bmp	786	1	HLST	786	1	blank2r.bmp	866	2	jugend	866	1	!	1239	1	!	-1	0	0	0	0	0	0	0	0	0	0	0	0	0	0	0	0	0	0	0	0	0	0	0	0	0	0	0
073018	10:19:37	5.0.10.0	209	associated	Rpleas_acq	Same	Rpleas	Amasked	CS_A	2pleas	cond_US_pleas_456_masked_CS1	condtest_masked_3	8	46	400	0	300	300	0	0	296	50	0	1	0	0	0	1	blank2r.bmp	0	1	+	0	3	B3r.bmp	492	1	blank2r.bmp	786	1	HLST	786	1	blank2r.bmp	866	1	mama	866	1	!	-1	1	!	-1	0	0	0	0	0	0	0	0	0	0	0	0	0	0	0	0	0	0	0	0	0	0	0	0	0	0	0
073018	10:19:37	5.0.10.0	209	associated	Rpleas_acq	Same	Rpleas	Amasked	CS_A	2pleas	cond_new_unple_123_masked_CS2	condtest_masked_3	8	47	400	1	300	300	0	0	455	46	0	1	0	0	0	1	blank2r.bmp	0	1	+	0	5	C1r.bmp	492	1	blank2r.bmp	786	1	DJMR	786	1	blank2r.bmp	866	1	einengen	866	1	!	1239	1	!	1359	0	0	0	0	0	0	0	0	0	0	0	0	0	0	0	0	0	0	0	0	0	0	0	0	0	0	0
073018	10:19:37	5.0.10.0	209	associated	Rpleas_acq	Same	Rpleas	Amasked	CS_A	2pleas	cond_new_pleas_123_masked_CS1	condtest_masked_3	8	48	400	0	300	300	0	0	479	46	0	0	0	0	0	1	blank2r.bmp	0	1	+	0	1	B1r.bmp	492	1	blank2r.bmp	786	1	HLST	786	1	blank2r.bmp	866	3	genie	866	1	!	1239	1	!	-1	0	0	0	0	0	0	0	0	0	0	0	0	0	0	0	0	0	0	0	0	0	0	0	0	0	0	0
073018	10:19:37	5.0.10.0	209	associated	Rpleas_acq	Same	Rpleas	Amasked	CS_A	2pleas	cond_new_pleas_456_masked_CS2	condtest_masked_4	9	1	400	0	300	300	0	0	329	50	0	1	0	0	0	1	blank2r.bmp	0	1	+	0	6	C2r.bmp	492	1	blank2r.bmp	786	1	DJMR	786	1	blank2r.bmp	866	3	freude	866	1	!	-1	1	!	-1	0	0	0	0	0	0	0	0	0	0	0	0	0	0	0	0	0	0	0	0	0	0	0	0	0	0	0
073018	10:19:37	5.0.10.0	209	associated	Rpleas_acq	Same	Rpleas	Amasked	CS_A	2pleas	cond_new_pleas_456_masked_CS2	condtest_masked_4	9	2	400	1	300	300	0	0	393	50	0	1	0	0	0	1	blank2r.bmp	0	1	+	0	8	C4r.bmp	492	1	blank2r.bmp	786	1	DJMR	786	1	blank2r.bmp	866	1	umarmen	866	1	!	1239	1	!	1292	0	0	0	0	0	0	0	0	0	0	0	0	0	0	0	0	0	0	0	0	0	0	0	0	0	0	0
073018	10:19:37	5.0.10.0	209	associated	Rpleas_acq	Same	Rpleas	Amasked	CS_A	2pleas	cond_US_pleas_123_masked_CS1	condtest_masked_4	9	3	400	1	300	300	0	0	391	46	0	0	0	0	0	1	blank2r.bmp	0	1	+	0	4	B4r.bmp	492	1	blank2r.bmp	786	1	HLST	786	1	blank2r.bmp	866	3	erfinder	866	1	!	1239	1	!	1292	0	0	0	0	0	0	0	0	0	0	0	0	0	0	0	0	0	0	0	0	0	0	0	0	0	0	0
073018	10:19:37	5.0.10.0	209	associated	Rpleas_acq	Same	Rpleas	Amasked	CS_A	2pleas	cond_US_pleas_123_masked_CS1	condtest_masked_4	9	4	400	0	300	300	0	0	278	46	0	0	0	0	0	1	blank2r.bmp	0	1	+	0	3	B3r.bmp	492	1	blank2r.bmp	786	1	HLST	786	1	blank2r.bmp	866	2	meer	866	1	!	-1	1	!	-1	0	0	0	0	0	0	0	0	0	0	0	0	0	0	0	0	0	0	0	0	0	0	0	0	0	0	0
073018	10:19:37	5.0.10.0	209	associated	Rpleas_acq	Same	Rpleas	Amasked	CS_A	2pleas	cond_US_pleas_123_masked_CS2	condtest_masked_4	9	5	400	1	300	300	0	0	447	46	0	0	0	0	0	1	blank2r.bmp	0	1	+	0	2	B2r.bmp	492	1	blank2r.bmp	786	1	DJMR	786	1	blank2r.bmp	866	1	wein	866	1	!	1239	1	!	1346	0	0	0	0	0	0	0	0	0	0	0	0	0	0	0	0	0	0	0	0	0	0	0	0	0	0	0
073018	10:19:37	5.0.10.0	209	associated	Rpleas_acq	Same	Rpleas	Amasked	CS_A	2pleas	cond_new_unple_456_masked_CS1	condtest_masked_4	9	6	400	1	300	300	0	0	412	50	0	0	0	0	0	1	blank2r.bmp	0	1	+	0	7	C3r.bmp	492	1	blank2r.bmp	786	1	HLST	786	1	blank2r.bmp	866	2	feind	866	1	!	1239	1	!	1319	0	0	0	0	0	0	0	0	0	0	0	0	0	0	0	0	0	0	0	0	0	0	0	0	0	0	0
073018	10:19:37	5.0.10.0	209	associated	Rpleas_acq	Same	Rpleas	Amasked	CS_A	2pleas	cond_new_unple_456_masked_CS1	condtest_masked_4	9	7	400	1	300	300	0	0	369	46	0	1	0	0	0	1	blank2r.bmp	0	1	+	0	1	B1r.bmp	492	1	blank2r.bmp	786	1	HLST	786	1	blank2r.bmp	866	3	waffe	866	1	!	1239	1	!	1266	0	0	0	0	0	0	0	0	0	0	0	0	0	0	0	0	0	0	0	0	0	0	0	0	0	0	0
073018	10:19:37	5.0.10.0	209	associated	Rpleas_acq	Same	Rpleas	Amasked	CS_A	2pleas	cond_new_unple_456_masked_CS1	condtest_masked_4	9	8	400	0	300	300	0	0	543	46	0	1	0	0	0	1	blank2r.bmp	0	1	+	0	5	C1r.bmp	492	1	blank2r.bmp	786	1	HLST	786	1	blank2r.bmp	866	1	reien	866	1	!	1239	1	!	-1	0	0	0	0	0	0	0	0	0	0	0	0	0	0	0	0	0	0	0	0	0	0	0	0	0	0	0
073018	10:19:37	5.0.10.0	209	associated	Rpleas_acq	Same	Rpleas	Amasked	CS_A	2pleas	cond_new_unple_456_masked_CS1	condtest_masked_4	9	9	400	0	300	300	0	0	317	46	0	1	0	0	0	1	blank2r.bmp	0	1	+	0	7	C3r.bmp	492	1	blank2r.bmp	786	1	HLST	786	1	blank2r.bmp	866	2	feind	866	1	!	-1	1	!	-1	0	0	0	0	0	0	0	0	0	0	0	0	0	0	0	0	0	0	0	0	0	0	0	0	0	0	0
073018	10:19:37	5.0.10.0	209	associated	Rpleas_acq	Same	Rpleas	Amasked	CS_A	2pleas	cond_new_unple_456_masked_CS2	condtest_masked_4	9	10	400	0	300	300	0	0	479	46	0	1	0	0	0	1	blank2r.bmp	0	1	+	0	3	B3r.bmp	492	1	blank2r.bmp	786	1	DJMR	786	1	blank2r.bmp	866	1	reien	866	1	!	1239	1	!	-1	0	0	0	0	0	0	0	0	0	0	0	0	0	0	0	0	0	0	0	0	0	0	0	0	0	0	0
073018	10:19:37	5.0.10.0	209	associated	Rpleas_acq	Same	Rpleas	Amasked	CS_A	2pleas	cond_new_pleas_456_masked_CS1	condtest_masked_4	9	11	400	1	300	300	0	0	350	46	0	0	0	0	0	1	blank2r.bmp	0	1	+	0	2	B2r.bmp	492	1	blank2r.bmp	786	1	HLST	786	1	blank2r.bmp	866	2	reife	866	1	!	1239	1	!	1252	0	0	0	0	0	0	0	0	0	0	0	0	0	0	0	0	0	0	0	0	0	0	0	0	0	0	0
073018	10:19:37	5.0.10.0	209	associated	Rpleas_acq	Same	Rpleas	Amasked	CS_A	2pleas	cond_US_pleas_123_masked_CS1	condtest_masked_4	9	12	400	0	300	300	0	0	616	46	0	0	0	0	0	1	blank2r.bmp	0	1	+	0	8	C4r.bmp	492	1	blank2r.bmp	786	1	HLST	786	1	blank2r.bmp	866	1	wein	866	1	!	1239	1	!	-1	0	0	0	0	0	0	0	0	0	0	0	0	0	0	0	0	0	0	0	0	0	0	0	0	0	0	0
073018	10:19:37	5.0.10.0	209	associated	Rpleas_acq	Same	Rpleas	Amasked	CS_A	2pleas	cond_US_unple_123_masked_CS1	condtest_masked_4	9	13	400	0	300	300	0	0	490	46	0	1	0	0	0	1	blank2r.bmp	0	1	+	0	5	C1r.bmp	492	1	blank2r.bmp	786	1	HLST	786	1	blank2r.bmp	866	3	narr	866	1	!	1239	1	!	-1	0	0	0	0	0	0	0	0	0	0	0	0	0	0	0	0	0	0	0	0	0	0	0	0	0	0	0
073018	10:19:37	5.0.10.0	209	associated	Rpleas_acq	Same	Rpleas	Amasked	CS_A	2pleas	cond_new_pleas_456_masked_CS1	condtest_masked_4	9	14	400	0	300	300	0	0	510	50	0	1	0	0	0	1	blank2r.bmp	0	1	+	0	1	B1r.bmp	492	1	blank2r.bmp	786	1	HLST	786	1	blank2r.bmp	866	2	reife	866	1	!	1239	1	!	-1	0	0	0	0	0	0	0	0	0	0	0	0	0	0	0	0	0	0	0	0	0	0	0	0	0	0	0
073018	10:19:37	5.0.10.0	209	associated	Rpleas_acq	Same	Rpleas	Amasked	CS_A	2pleas	cond_US_unple_123_masked_CS2	condtest_masked_4	9	15	400	1	300	300	0	0	374	50	0	0	0	0	0	1	blank2r.bmp	0	1	+	0	6	C2r.bmp	492	1	blank2r.bmp	786	1	DJMR	786	1	blank2r.bmp	866	2	geiz	866	1	!	1239	1	!	1279	0	0	0	0	0	0	0	0	0	0	0	0	0	0	0	0	0	0	0	0	0	0	0	0	0	0	0
073018	10:19:37	5.0.10.0	209	associated	Rpleas_acq	Same	Rpleas	Amasked	CS_A	2pleas	cond_US_pleas_123_masked_CS2	condtest_masked_4	9	16	400	0	300	300	0	0	309	46	0	0	0	0	0	1	blank2r.bmp	0	1	+	0	4	B4r.bmp	492	1	blank2r.bmp	786	1	DJMR	786	1	blank2r.bmp	866	3	erfinder	866	1	!	-1	1	!	-1	0	0	0	0	0	0	0	0	0	0	0	0	0	0	0	0	0	0	0	0	0	0	0	0	0	0	0
073018	10:19:37	5.0.10.0	209	associated	Rpleas_acq	Same	Rpleas	Amasked	CS_A	2pleas	cond_US_unple_123_masked_CS2	condtest_masked_4	9	17	400	1	300	300	0	0	375	46	0	1	0	0	0	1	blank2r.bmp	0	1	+	0	6	C2r.bmp	492	1	blank2r.bmp	786	1	DJMR	786	1	blank2r.bmp	866	1	zwang	866	1	!	1239	1	!	1279	0	0	0	0	0	0	0	0	0	0	0	0	0	0	0	0	0	0	0	0	0	0	0	0	0	0	0
073018	10:19:37	5.0.10.0	209	associated	Rpleas_acq	Same	Rpleas	Amasked	CS_A	2pleas	cond_US_pleas_123_masked_CS2	condtest_masked_4	9	18	400	0	300	300	0	0	313	50	0	1	0	0	0	1	blank2r.bmp	0	1	+	0	2	B2r.bmp	492	1	blank2r.bmp	786	1	DJMR	786	1	blank2r.bmp	866	2	meer	866	1	!	-1	1	!	-1	0	0	0	0	0	0	0	0	0	0	0	0	0	0	0	0	0	0	0	0	0	0	0	0	0	0	0
073018	10:19:37	5.0.10.0	209	associated	Rpleas_acq	Same	Rpleas	Amasked	CS_A	2pleas	cond_US_pleas_123_masked_CS2	condtest_masked_4	9	19	400	1	300	300	0	0	379	50	0	1	0	0	0	1	blank2r.bmp	0	1	+	0	1	B1r.bmp	492	1	blank2r.bmp	786	1	DJMR	786	1	blank2r.bmp	866	3	erfinder	866	1	!	1239	1	!	1279	0	0	0	0	0	0	0	0	0	0	0	0	0	0	0	0	0	0	0	0	0	0	0	0	0	0	0
073018	10:19:37	5.0.10.0	209	associated	Rpleas_acq	Same	Rpleas	Amasked	CS_A	2pleas	cond_US_unple_123_masked_CS2	condtest_masked_4	9	20	400	1	300	300	0	0	420	46	0	1	0	0	0	1	blank2r.bmp	0	1	+	0	3	B3r.bmp	492	1	blank2r.bmp	786	1	DJMR	786	1	blank2r.bmp	866	1	zwang	866	1	!	1239	1	!	1319	0	0	0	0	0	0	0	0	0	0	0	0	0	0	0	0	0	0	0	0	0	0	0	0	0	0	0
073018	10:19:37	5.0.10.0	209	associated	Rpleas_acq	Same	Rpleas	Amasked	CS_A	2pleas	cond_new_unple_456_masked_CS2	condtest_masked_4	9	21	400	0	300	300	0	0	317	46	0	1	0	0	0	1	blank2r.bmp	0	1	+	0	8	C4r.bmp	492	1	blank2r.bmp	786	1	DJMR	786	1	blank2r.bmp	866	3	waffe	866	1	!	-1	1	!	-1	0	0	0	0	0	0	0	0	0	0	0	0	0	0	0	0	0	0	0	0	0	0	0	0	0	0	0
073018	10:19:37	5.0.10.0	209	associated	Rpleas_acq	Same	Rpleas	Amasked	CS_A	2pleas	cond_US_unple_123_masked_CS2	condtest_masked_4	9	22	400	1	300	300	0	0	403	46	0	1	0	0	0	1	blank2r.bmp	0	1	+	0	7	C3r.bmp	492	1	blank2r.bmp	786	1	DJMR	786	1	blank2r.bmp	866	2	geiz	866	1	!	1239	1	!	1306	0	0	0	0	0	0	0	0	0	0	0	0	0	0	0	0	0	0	0	0	0	0	0	0	0	0	0
073018	10:19:37	5.0.10.0	209	associated	Rpleas_acq	Same	Rpleas	Amasked	CS_A	2pleas	cond_new_pleas_456_masked_CS2	condtest_masked_4	9	23	400	1	300	300	0	0	451	50	0	1	0	0	0	1	blank2r.bmp	0	1	+	0	4	B4r.bmp	492	1	blank2r.bmp	786	1	DJMR	786	1	blank2r.bmp	866	1	umarmen	866	1	!	1239	1	!	1346	0	0	0	0	0	0	0	0	0	0	0	0	0	0	0	0	0	0	0	0	0	0	0	0	0	0	0
073018	10:19:37	5.0.10.0	209	associated	Rpleas_acq	Same	Rpleas	Amasked	CS_A	2pleas	cond_new_pleas_456_masked_CS2	condtest_masked_4	9	24	400	0	300	300	0	0	324	50	0	1	0	0	0	1	blank2r.bmp	0	1	+	0	5	C1r.bmp	492	1	blank2r.bmp	786	1	DJMR	786	1	blank2r.bmp	866	3	freude	866	1	!	-1	1	!	-1	0	0	0	0	0	0	0	0	0	0	0	0	0	0	0	0	0	0	0	0	0	0	0	0	0	0	0
073018	10:19:37	5.0.10.0	209	associated	Rpleas_acq	Same	Rpleas	Amasked	CS_A	2pleas	cond_new_unple_456_masked_CS2	condtest_masked_4	9	25	400	1	300	300	0	0	346	50	0	0	0	0	0	1	blank2r.bmp	0	1	+	0	6	C2r.bmp	492	1	blank2r.bmp	786	1	DJMR	786	1	blank2r.bmp	866	3	waffe	866	1	!	1239	1	!	1252	0	0	0	0	0	0	0	0	0	0	0	0	0	0	0	0	0	0	0	0	0	0	0	0	0	0	0
073018	10:19:37	5.0.10.0	209	associated	Rpleas_acq	Same	Rpleas	Amasked	CS_A	2pleas	cond_US_pleas_123_masked_CS2	condtest_masked_4	9	26	400	1	300	300	0	0	428	46	0	0	0	0	0	1	blank2r.bmp	0	1	+	0	8	C4r.bmp	492	1	blank2r.bmp	786	1	DJMR	786	1	blank2r.bmp	866	1	wein	866	1	!	1239	1	!	1332	0	0	0	0	0	0	0	0	0	0	0	0	0	0	0	0	0	0	0	0	0	0	0	0	0	0	0
073018	10:19:37	5.0.10.0	209	associated	Rpleas_acq	Same	Rpleas	Amasked	CS_A	2pleas	cond_US_unple_123_masked_CS1	condtest_masked_4	9	27	400	1	300	300	0	0	427	46	0	1	0	0	0	1	blank2r.bmp	0	1	+	0	3	B3r.bmp	492	1	blank2r.bmp	786	1	HLST	786	1	blank2r.bmp	866	3	narr	866	1	!	1239	1	!	1332	0	0	0	0	0	0	0	0	0	0	0	0	0	0	0	0	0	0	0	0	0	0	0	0	0	0	0
073018	10:19:37	5.0.10.0	209	associated	Rpleas_acq	Same	Rpleas	Amasked	CS_A	2pleas	cond_US_unple_123_masked_CS2	condtest_masked_4	9	28	400	0	300	300	0	0	497	46	0	1	0	0	0	1	blank2r.bmp	0	1	+	0	5	C1r.bmp	492	1	blank2r.bmp	786	1	DJMR	786	1	blank2r.bmp	866	3	narr	866	1	!	1239	1	!	-1	0	0	0	0	0	0	0	0	0	0	0	0	0	0	0	0	0	0	0	0	0	0	0	0	0	0	0
073018	10:19:37	5.0.10.0	209	associated	Rpleas_acq	Same	Rpleas	Amasked	CS_A	2pleas	cond_US_unple_123_masked_CS1	condtest_masked_4	9	29	400	1	300	300	0	0	396	46	0	1	0	0	0	1	blank2r.bmp	0	1	+	0	4	B4r.bmp	492	1	blank2r.bmp	786	1	HLST	786	1	blank2r.bmp	866	2	geiz	866	1	!	1239	1	!	1292	0	0	0	0	0	0	0	0	0	0	0	0	0	0	0	0	0	0	0	0	0	0	0	0	0	0	0
073018	10:19:37	5.0.10.0	209	associated	Rpleas_acq	Same	Rpleas	Amasked	CS_A	2pleas	cond_new_pleas_456_masked_CS1	condtest_masked_4	9	30	400	1	300	300	0	0	407	50	0	1	0	0	0	1	blank2r.bmp	0	1	+	0	2	B2r.bmp	492	1	blank2r.bmp	786	1	HLST	786	1	blank2r.bmp	866	3	freude	866	1	!	1239	1	!	1306	0	0	0	0	0	0	0	0	0	0	0	0	0	0	0	0	0	0	0	0	0	0	0	0	0	0	0
073018	10:19:37	5.0.10.0	209	associated	Rpleas_acq	Same	Rpleas	Amasked	CS_A	2pleas	cond_US_pleas_123_masked_CS1	condtest_masked_4	9	31	400	1	300	300	0	0	393	50	0	1	0	0	0	1	blank2r.bmp	0	1	+	0	7	C3r.bmp	492	1	blank2r.bmp	786	1	HLST	786	1	blank2r.bmp	866	2	meer	866	1	!	1239	1	!	1292	0	0	0	0	0	0	0	0	0	0	0	0	0	0	0	0	0	0	0	0	0	0	0	0	0	0	0
073018	10:19:37	5.0.10.0	209	associated	Rpleas_acq	Same	Rpleas	Amasked	CS_A	2pleas	cond_US_pleas_123_masked_CS1	condtest_masked_4	9	32	400	1	300	300	0	0	418	50	0	1	0	0	0	1	blank2r.bmp	0	1	+	0	1	B1r.bmp	492	1	blank2r.bmp	786	1	HLST	786	1	blank2r.bmp	866	1	wein	866	1	!	1239	1	!	1319	0	0	0	0	0	0	0	0	0	0	0	0	0	0	0	0	0	0	0	0	0	0	0	0	0	0	0
073018	10:19:37	5.0.10.0	209	associated	Rpleas_acq	Same	Rpleas	Amasked	CS_A	2pleas	cond_new_unple_456_masked_CS2	condtest_masked_4	9	33	400	1	300	300	0	0	434	46	0	1	0	0	0	1	blank2r.bmp	0	1	+	0	4	B4r.bmp	492	1	blank2r.bmp	786	1	DJMR	786	1	blank2r.bmp	866	1	reien	866	1	!	1239	1	!	1332	0	0	0	0	0	0	0	0	0	0	0	0	0	0	0	0	0	0	0	0	0	0	0	0	0	0	0
073018	10:19:37	5.0.10.0	209	associated	Rpleas_acq	Same	Rpleas	Amasked	CS_A	2pleas	cond_US_pleas_123_masked_CS2	condtest_masked_4	9	34	400	1	300	300	0	0	358	46	0	0	0	0	0	1	blank2r.bmp	0	1	+	0	6	C2r.bmp	492	1	blank2r.bmp	786	1	DJMR	786	1	blank2r.bmp	866	3	erfinder	866	1	!	1239	1	!	1252	0	0	0	0	0	0	0	0	0	0	0	0	0	0	0	0	0	0	0	0	0	0	0	0	0	0	0
073018	10:19:37	5.0.10.0	209	associated	Rpleas_acq	Same	Rpleas	Amasked	CS_A	2pleas	cond_US_unple_123_masked_CS1	condtest_masked_4	9	35	400	0	300	300	0	0	328	46	0	1	0	0	0	1	blank2r.bmp	0	1	+	0	8	C4r.bmp	492	1	blank2r.bmp	786	1	HLST	786	1	blank2r.bmp	866	1	zwang	866	1	!	-1	1	!	-1	0	0	0	0	0	0	0	0	0	0	0	0	0	0	0	0	0	0	0	0	0	0	0	0	0	0	0
073018	10:19:37	5.0.10.0	209	associated	Rpleas_acq	Same	Rpleas	Amasked	CS_A	2pleas	cond_US_unple_123_masked_CS1	condtest_masked_4	9	36	400	1	300	300	0	0	428	46	0	1	0	0	0	1	blank2r.bmp	0	1	+	0	5	C1r.bmp	492	1	blank2r.bmp	786	1	HLST	786	1	blank2r.bmp	866	1	zwang	866	1	!	1239	1	!	1332	0	0	0	0	0	0	0	0	0	0	0	0	0	0	0	0	0	0	0	0	0	0	0	0	0	0	0
073018	10:19:37	5.0.10.0	209	associated	Rpleas_acq	Same	Rpleas	Amasked	CS_A	2pleas	cond_new_pleas_456_masked_CS1	condtest_masked_4	9	37	400	1	300	300	0	0	437	50	0	1	0	0	0	1	blank2r.bmp	0	1	+	0	3	B3r.bmp	492	1	blank2r.bmp	786	1	HLST	786	1	blank2r.bmp	866	2	reife	866	1	!	1239	1	!	1332	0	0	0	0	0	0	0	0	0	0	0	0	0	0	0	0	0	0	0	0	0	0	0	0	0	0	0
073018	10:19:37	5.0.10.0	209	associated	Rpleas_acq	Same	Rpleas	Amasked	CS_A	2pleas	cond_new_pleas_456_masked_CS1	condtest_masked_4	9	38	400	1	300	300	0	0	451	50	0	1	0	0	0	1	blank2r.bmp	0	1	+	0	1	B1r.bmp	492	1	blank2r.bmp	786	1	HLST	786	1	blank2r.bmp	866	1	umarmen	866	1	!	1239	1	!	1346	0	0	0	0	0	0	0	0	0	0	0	0	0	0	0	0	0	0	0	0	0	0	0	0	0	0	0
073018	10:19:37	5.0.10.0	209	associated	Rpleas_acq	Same	Rpleas	Amasked	CS_A	2pleas	cond_new_pleas_456_masked_CS2	condtest_masked_4	9	39	400	1	300	300	0	0	404	50	0	1	0	0	0	1	blank2r.bmp	0	1	+	0	2	B2r.bmp	492	1	blank2r.bmp	786	1	DJMR	786	1	blank2r.bmp	866	1	umarmen	866	1	!	1239	1	!	1306	0	0	0	0	0	0	0	0	0	0	0	0	0	0	0	0	0	0	0	0	0	0	0	0	0	0	0
073018	10:19:37	5.0.10.0	209	associated	Rpleas_acq	Same	Rpleas	Amasked	CS_A	2pleas	cond_new_unple_456_masked_CS1	condtest_masked_4	9	40	400	1	300	300	0	0	418	46	0	1	0	0	0	1	blank2r.bmp	0	1	+	0	7	C3r.bmp	492	1	blank2r.bmp	786	1	HLST	786	1	blank2r.bmp	866	2	feind	866	1	!	1239	1	!	1319	0	0	0	0	0	0	0	0	0	0	0	0	0	0	0	0	0	0	0	0	0	0	0	0	0	0	0
073018	10:19:37	5.0.10.0	209	associated	Rpleas_acq	Same	Rpleas	Amasked	CS_A	2pleas	cond_new_unple_456_masked_CS2	condtest_masked_4	9	41	400	0	300	300	0	0	503	46	0	1	0	0	0	1	blank2r.bmp	0	1	+	0	5	C1r.bmp	492	1	blank2r.bmp	786	1	DJMR	786	1	blank2r.bmp	866	1	reien	866	1	!	1239	1	!	-1	0	0	0	0	0	0	0	0	0	0	0	0	0	0	0	0	0	0	0	0	0	0	0	0	0	0	0
073018	10:19:37	5.0.10.0	209	associated	Rpleas_acq	Same	Rpleas	Amasked	CS_A	2pleas	cond_US_pleas_123_masked_CS1	condtest_masked_4	9	42	400	0	300	300	0	0	293	46	0	0	0	0	0	1	blank2r.bmp	0	1	+	0	2	B2r.bmp	492	1	blank2r.bmp	786	1	HLST	786	1	blank2r.bmp	866	2	meer	866	1	!	-1	1	!	-1	0	0	0	0	0	0	0	0	0	0	0	0	0	0	0	0	0	0	0	0	0	0	0	0	0	0	0
073018	10:19:37	5.0.10.0	209	associated	Rpleas_acq	Same	Rpleas	Amasked	CS_A	2pleas	cond_US_unple_123_masked_CS1	condtest_masked_4	9	43	400	1	300	300	0	0	457	46	0	1	0	0	0	1	blank2r.bmp	0	1	+	0	6	C2r.bmp	492	1	blank2r.bmp	786	1	HLST	786	1	blank2r.bmp	866	3	narr	866	1	!	1239	1	!	1359	0	0	0	0	0	0	0	0	0	0	0	0	0	0	0	0	0	0	0	0	0	0	0	0	0	0	0
073018	10:19:37	5.0.10.0	209	associated	Rpleas_acq	Same	Rpleas	Amasked	CS_A	2pleas	cond_new_unple_456_masked_CS1	condtest_masked_4	9	44	400	1	300	300	0	0	393	46	0	1	0	0	0	1	blank2r.bmp	0	1	+	0	7	C3r.bmp	492	1	blank2r.bmp	786	1	HLST	786	1	blank2r.bmp	866	2	feind	866	1	!	1239	1	!	1292	0	0	0	0	0	0	0	0	0	0	0	0	0	0	0	0	0	0	0	0	0	0	0	0	0	0	0
073018	10:19:37	5.0.10.0	209	associated	Rpleas_acq	Same	Rpleas	Amasked	CS_A	2pleas	cond_new_pleas_456_masked_CS1	condtest_masked_4	9	45	400	1	300	300	0	0	447	50	0	1	0	0	0	1	blank2r.bmp	0	1	+	0	4	B4r.bmp	492	1	blank2r.bmp	786	1	HLST	786	1	blank2r.bmp	866	2	reife	866	1	!	1239	1	!	1346	0	0	0	0	0	0	0	0	0	0	0	0	0	0	0	0	0	0	0	0	0	0	0	0	0	0	0
073018	10:19:37	5.0.10.0	209	associated	Rpleas_acq	Same	Rpleas	Amasked	CS_A	2pleas	cond_new_pleas_456_masked_CS2	condtest_masked_4	9	46	400	1	300	300	0	0	346	50	0	1	0	0	0	1	blank2r.bmp	0	1	+	0	3	B3r.bmp	492	1	blank2r.bmp	786	1	DJMR	786	1	blank2r.bmp	866	3	freude	866	1	!	1239	1	!	1252	0	0	0	0	0	0	0	0	0	0	0	0	0	0	0	0	0	0	0	0	0	0	0	0	0	0	0
073018	10:19:37	5.0.10.0	209	associated	Rpleas_acq	Same	Rpleas	Amasked	CS_A	2pleas	cond_new_unple_456_masked_CS2	condtest_masked_4	9	47	400	0	300	300	0	0	324	50	0	0	0	0	0	1	blank2r.bmp	0	1	+	0	1	B1r.bmp	492	1	blank2r.bmp	786	1	DJMR	786	1	blank2r.bmp	866	3	waffe	866	1	!	-1	1	!	-1	0	0	0	0	0	0	0	0	0	0	0	0	0	0	0	0	0	0	0	0	0	0	0	0	0	0	0
073018	10:19:37	5.0.10.0	209	associated	Rpleas_acq	Same	Rpleas	Amasked	CS_A	2pleas	cond_US_unple_123_masked_CS2	condtest_masked_4	9	48	400	1	300	300	0	0	426	46	0	1	0	0	0	1	blank2r.bmp	0	1	+	0	8	C4r.bmp	492	1	blank2r.bmp	786	1	DJMR	786	1	blank2r.bmp	866	2	geiz	866	1	!	1239	1	!	1332	0	0	0	0	0	0	0	0	0	0	0	0	0	0	0	0	0	0	0	0	0	0	0	0	0	0	0
073018	10:19:37	5.0.10.0	209	associated	Rpleas_acq	Same	Rpleas	Amasked	CS_A	2pleas	cond_US_unple_456_masked_CS2	condtest_masked_5	10	1	400	0	300	300	0	0	221	46	0	1	0	0	0	1	blank2r.bmp	0	1	+	0	2	B2r.bmp	492	1	blank2r.bmp	786	1	DJMR	786	1	blank2r.bmp	866	2	gegner	866	1	!	-1	1	!	-1	0	0	0	0	0	0	0	0	0	0	0	0	0	0	0	0	0	0	0	0	0	0	0	0	0	0	0
073018	10:19:37	5.0.10.0	209	associated	Rpleas_acq	Same	Rpleas	Amasked	CS_A	2pleas	cond_US_unple_456_masked_CS2	condtest_masked_5	10	2	400	0	300	300	0	0	299	46	0	1	0	0	0	1	blank2r.bmp	0	1	+	0	3	B3r.bmp	492	1	blank2r.bmp	786	1	DJMR	786	1	blank2r.bmp	866	1	wunde	866	1	!	-1	1	!	-1	0	0	0	0	0	0	0	0	0	0	0	0	0	0	0	0	0	0	0	0	0	0	0	0	0	0	0
073018	10:19:37	5.0.10.0	209	associated	Rpleas_acq	Same	Rpleas	Amasked	CS_A	2pleas	cond_US_pleas_456_masked_CS2	condtest_masked_5	10	3	400	1	300	300	0	0	349	50	0	1	0	0	0	1	blank2r.bmp	0	1	+	0	7	C3r.bmp	492	1	blank2r.bmp	786	1	DJMR	786	1	blank2r.bmp	866	1	mama	866	1	!	1239	1	!	1252	0	0	0	0	0	0	0	0	0	0	0	0	0	0	0	0	0	0	0	0	0	0	0	0	0	0	0
073018	10:19:37	5.0.10.0	209	associated	Rpleas_acq	Same	Rpleas	Amasked	CS_A	2pleas	cond_new_unple_123_masked_CS2	condtest_masked_5	10	4	400	1	300	300	0	0	419	46	0	1	0	0	0	1	blank2r.bmp	0	1	+	0	1	B1r.bmp	492	1	blank2r.bmp	786	1	DJMR	786	1	blank2r.bmp	866	2	neid	866	1	!	1239	1	!	1319	0	0	0	0	0	0	0	0	0	0	0	0	0	0	0	0	0	0	0	0	0	0	0	0	0	0	0
073018	10:19:37	5.0.10.0	209	associated	Rpleas_acq	Same	Rpleas	Amasked	CS_A	2pleas	cond_new_unple_123_masked_CS1	condtest_masked_5	10	5	400	1	300	300	0	0	418	46	0	1	0	0	0	1	blank2r.bmp	0	1	+	0	6	C2r.bmp	492	1	blank2r.bmp	786	1	HLST	786	1	blank2r.bmp	866	3	dumm	866	1	!	1239	1	!	1319	0	0	0	0	0	0	0	0	0	0	0	0	0	0	0	0	0	0	0	0	0	0	0	0	0	0	0
073018	10:19:37	5.0.10.0	209	associated	Rpleas_acq	Same	Rpleas	Amasked	CS_A	2pleas	cond_US_pleas_456_masked_CS1	condtest_masked_5	10	6	400	1	300	300	0	0	446	50	0	1	0	0	0	1	blank2r.bmp	0	1	+	0	5	C1r.bmp	492	1	blank2r.bmp	786	1	HLST	786	1	blank2r.bmp	866	2	jugend	866	1	!	1239	1	!	1346	0	0	0	0	0	0	0	0	0	0	0	0	0	0	0	0	0	0	0	0	0	0	0	0	0	0	0
073018	10:19:37	5.0.10.0	209	associated	Rpleas_acq	Same	Rpleas	Amasked	CS_A	2pleas	cond_new_unple_123_masked_CS2	condtest_masked_5	10	7	400	0	300	300	0	0	479	46	0	1	0	0	0	1	blank2r.bmp	0	1	+	0	4	B4r.bmp	492	1	blank2r.bmp	786	1	DJMR	786	1	blank2r.bmp	866	1	einengen	866	1	!	1239	1	!	-1	0	0	0	0	0	0	0	0	0	0	0	0	0	0	0	0	0	0	0	0	0	0	0	0	0	0	0
073018	10:19:37	5.0.10.0	209	associated	Rpleas_acq	Same	Rpleas	Amasked	CS_A	2pleas	cond_new_unple_123_masked_CS1	condtest_masked_5	10	8	400	1	300	300	0	0	376	46	0	1	0	0	0	1	blank2r.bmp	0	1	+	0	8	C4r.bmp	492	1	blank2r.bmp	786	1	HLST	786	1	blank2r.bmp	866	1	einengen	866	1	!	1239	1	!	1279	0	0	0	0	0	0	0	0	0	0	0	0	0	0	0	0	0	0	0	0	0	0	0	0	0	0	0
073018	10:19:37	5.0.10.0	209	associated	Rpleas_acq	Same	Rpleas	Amasked	CS_A	2pleas	cond_US_unple_456_masked_CS1	condtest_masked_5	10	9	400	0	300	300	0	0	294	46	0	1	0	0	0	1	blank2r.bmp	0	1	+	0	6	C2r.bmp	492	1	blank2r.bmp	786	1	HLST	786	1	blank2r.bmp	866	3	armee	866	1	!	-1	1	!	-1	0	0	0	0	0	0	0	0	0	0	0	0	0	0	0	0	0	0	0	0	0	0	0	0	0	0	0
073018	10:19:37	5.0.10.0	209	associated	Rpleas_acq	Same	Rpleas	Amasked	CS_A	2pleas	cond_US_unple_456_masked_CS2	condtest_masked_5	10	10	400	0	300	300	0	0	484	46	0	1	0	0	0	1	blank2r.bmp	0	1	+	0	8	C4r.bmp	492	1	blank2r.bmp	786	1	DJMR	786	1	blank2r.bmp	866	2	gegner	866	1	!	1239	1	!	-1	0	0	0	0	0	0	0	0	0	0	0	0	0	0	0	0	0	0	0	0	0	0	0	0	0	0	0
073018	10:19:37	5.0.10.0	209	associated	Rpleas_acq	Same	Rpleas	Amasked	CS_A	2pleas	cond_US_pleas_456_masked_CS1	condtest_masked_5	10	11	400	0	300	300	0	0	279	46	0	0	0	0	0	1	blank2r.bmp	0	1	+	0	1	B1r.bmp	492	1	blank2r.bmp	786	1	HLST	786	1	blank2r.bmp	866	3	frieden	866	1	!	-1	1	!	-1	0	0	0	0	0	0	0	0	0	0	0	0	0	0	0	0	0	0	0	0	0	0	0	0	0	0	0
073018	10:19:37	5.0.10.0	209	associated	Rpleas_acq	Same	Rpleas	Amasked	CS_A	2pleas	cond_US_unple_456_masked_CS2	condtest_masked_5	10	12	400	1	300	300	0	0	378	46	0	1	0	0	0	1	blank2r.bmp	0	1	+	0	5	C1r.bmp	492	1	blank2r.bmp	786	1	DJMR	786	1	blank2r.bmp	866	1	wunde	866	1	!	1239	1	!	1279	0	0	0	0	0	0	0	0	0	0	0	0	0	0	0	0	0	0	0	0	0	0	0	0	0	0	0
