date	time	build	subject	expressions.associated	expressions.LRpleas_acq	expressions.SameOppo	expressions.condition_Lpleas	expressions.ABmasked	expressions.conditionCS_A	expressions.condition_1pleas	trialcode	blockcode	blocknum	trialnum	windowcenter	inwindow	pretrialpause	posttrialpause	trialduration	trialtimeout	latency	response	expressions.correctedscore	correct	values.vis_performance	values.vis_rating_sum	values.vis_rating_mean	stimulusnumber1	stimulusitem1	stimulusonset1	stimulusnumber2	stimulusitem2	stimulusonset2	stimulusnumber3	stimulusitem3	stimulusonset3	stimulusnumber4	stimulusitem4	stimulusonset4	stimulusnumber5	stimulusitem5	stimulusonset5	stimulusnumber6	stimulusitem6	stimulusonset6	stimulusnumber7	stimulusitem7	stimulusonset7	stimulusnumber8	stimulusitem8	stimulusonset8	stimulusnumber9	stimulusitem9	stimulusonset9	stimulusnumber10	stimulusitem10	stimulusonset10	stimulusnumber11	stimulusitem11	stimulusonset11	stimulusnumber12	stimulusitem12	stimulusonset12	stimulusnumber13	stimulusitem13	stimulusonset13	stimulusnumber14	stimulusitem14	stimulusonset14	stimulusnumber15	stimulusitem15	stimulusonset15	stimulusnumber16	stimulusitem16	stimulusonset16	stimulusnumber17	stimulusitem17	stimulusonset17	stimulusnumber18	stimulusitem18	stimulusonset18
071718	09:19:19	5.0.10.0	168	associated	Rpleas_acq	Oppo	Rpleas	Amasked	CS_A	2pleas	acq_pleas_masked	acq1_masked	1	1	0	0	300	300	0	0	1009	50	0	1	0	0	0	1	blank2r.bmp	0	1	+	0	7	C3r.bmp	492	1	blank2r.bmp	786	1	DJMR	786	1	blank2r.bmp	866	5	frieden	866	0	0	0	0	0	0	0	0	0	0	0	0	0	0	0	0	0	0	0	0	0	0	0	0	0	0	0	0	0	0	0	0	0
071718	09:19:19	5.0.10.0	168	associated	Rpleas_acq	Oppo	Rpleas	Amasked	CS_A	2pleas	acq_unple_masked	acq1_masked	1	2	0	0	300	300	0	0	815	46	0	1	0	0	0	1	blank2r.bmp	0	1	+	0	5	C1r.bmp	492	1	blank2r.bmp	786	1	HLST	786	1	blank2r.bmp	866	5	zwang	866	0	0	0	0	0	0	0	0	0	0	0	0	0	0	0	0	0	0	0	0	0	0	0	0	0	0	0	0	0	0	0	0	0
071718	09:19:19	5.0.10.0	168	associated	Rpleas_acq	Oppo	Rpleas	Amasked	CS_A	2pleas	acq_pleas_masked	acq1_masked	1	3	0	0	300	300	0	0	695	50	0	1	0	0	0	1	blank2r.bmp	0	1	+	0	3	B3r.bmp	492	1	blank2r.bmp	786	1	DJMR	786	1	blank2r.bmp	866	2	erfinder	866	0	0	0	0	0	0	0	0	0	0	0	0	0	0	0	0	0	0	0	0	0	0	0	0	0	0	0	0	0	0	0	0	0
071718	09:19:19	5.0.10.0	168	associated	Rpleas_acq	Oppo	Rpleas	Amasked	CS_A	2pleas	acq_pleas_masked	acq1_masked	1	4	0	0	300	300	0	0	874	50	0	1	0	0	0	1	blank2r.bmp	0	1	+	0	4	B4r.bmp	492	1	blank2r.bmp	786	1	DJMR	786	1	blank2r.bmp	866	6	meer	866	0	0	0	0	0	0	0	0	0	0	0	0	0	0	0	0	0	0	0	0	0	0	0	0	0	0	0	0	0	0	0	0	0
071718	09:19:19	5.0.10.0	168	associated	Rpleas_acq	Oppo	Rpleas	Amasked	CS_A	2pleas	acq_unple_masked	acq1_masked	1	5	0	0	300	300	0	0	603	46	0	1	0	0	0	1	blank2r.bmp	0	1	+	0	8	C4r.bmp	492	1	blank2r.bmp	786	1	HLST	786	1	blank2r.bmp	866	3	wunde	866	0	0	0	0	0	0	0	0	0	0	0	0	0	0	0	0	0	0	0	0	0	0	0	0	0	0	0	0	0	0	0	0	0
071718	09:19:19	5.0.10.0	168	associated	Rpleas_acq	Oppo	Rpleas	Amasked	CS_A	2pleas	acq_pleas_masked	acq1_masked	1	6	0	0	300	300	0	0	711	50	0	1	0	0	0	1	blank2r.bmp	0	1	+	0	6	C2r.bmp	492	1	blank2r.bmp	786	1	DJMR	786	1	blank2r.bmp	866	1	wein	866	0	0	0	0	0	0	0	0	0	0	0	0	0	0	0	0	0	0	0	0	0	0	0	0	0	0	0	0	0	0	0	0	0
071718	09:19:19	5.0.10.0	168	associated	Rpleas_acq	Oppo	Rpleas	Amasked	CS_A	2pleas	acq_unple_masked	acq1_masked	1	7	0	0	300	300	0	0	492	46	0	1	0	0	0	1	blank2r.bmp	0	1	+	0	1	B1r.bmp	492	1	blank2r.bmp	786	1	HLST	786	1	blank2r.bmp	866	1	narr	866	0	0	0	0	0	0	0	0	0	0	0	0	0	0	0	0	0	0	0	0	0	0	0	0	0	0	0	0	0	0	0	0	0
071718	09:19:19	5.0.10.0	168	associated	Rpleas_acq	Oppo	Rpleas	Amasked	CS_A	2pleas	acq_unple_masked	acq1_masked	1	8	0	0	300	300	0	0	1159	50	0	0	0	0	0	1	blank2r.bmp	0	1	+	0	2	B2r.bmp	492	1	blank2r.bmp	786	1	HLST	786	1	blank2r.bmp	866	2	geiz	866	1	FEHLER	2065	0	0	0	0	0	0	0	0	0	0	0	0	0	0	0	0	0	0	0	0	0	0	0	0	0	0	0	0	0	0
071718	09:19:19	5.0.10.0	168	associated	Rpleas_acq	Oppo	Rpleas	Amasked	CS_A	2pleas	acq_pleas_masked	acq1_masked	1	9	0	0	300	300	0	0	1072	46	0	0	0	0	0	1	blank2r.bmp	0	1	+	0	2	B2r.bmp	492	1	blank2r.bmp	786	1	DJMR	786	1	blank2r.bmp	866	4	mama	866	1	FEHLER	1972	0	0	0	0	0	0	0	0	0	0	0	0	0	0	0	0	0	0	0	0	0	0	0	0	0	0	0	0	0	0
071718	09:19:19	5.0.10.0	168	associated	Rpleas_acq	Oppo	Rpleas	Amasked	CS_A	2pleas	acq_pleas_masked	acq1_masked	1	10	0	0	300	300	0	0	632	50	0	1	0	0	0	1	blank2r.bmp	0	1	+	0	1	B1r.bmp	492	1	blank2r.bmp	786	1	DJMR	786	1	blank2r.bmp	866	3	jugend	866	0	0	0	0	0	0	0	0	0	0	0	0	0	0	0	0	0	0	0	0	0	0	0	0	0	0	0	0	0	0	0	0	0
071718	09:19:19	5.0.10.0	168	associated	Rpleas_acq	Oppo	Rpleas	Amasked	CS_A	2pleas	acq_unple_masked	acq1_masked	1	11	0	0	300	300	0	0	1179	46	0	1	0	0	0	1	blank2r.bmp	0	1	+	0	5	C1r.bmp	492	1	blank2r.bmp	786	1	HLST	786	1	blank2r.bmp	866	4	gegner	866	0	0	0	0	0	0	0	0	0	0	0	0	0	0	0	0	0	0	0	0	0	0	0	0	0	0	0	0	0	0	0	0	0
071718	09:19:19	5.0.10.0	168	associated	Rpleas_acq	Oppo	Rpleas	Amasked	CS_A	2pleas	acq_unple_masked	acq1_masked	1	12	0	0	300	300	0	0	813	50	0	0	0	0	0	1	blank2r.bmp	0	1	+	0	4	B4r.bmp	492	1	blank2r.bmp	786	1	HLST	786	1	blank2r.bmp	866	6	armee	866	1	FEHLER	1719	0	0	0	0	0	0	0	0	0	0	0	0	0	0	0	0	0	0	0	0	0	0	0	0	0	0	0	0	0	0
071718	09:19:19	5.0.10.0	168	associated	Rpleas_acq	Oppo	Rpleas	Amasked	CS_A	2pleas	acq_pleas_masked	acq1_masked	1	13	0	0	300	300	0	0	804	50	0	1	0	0	0	1	blank2r.bmp	0	1	+	0	3	B3r.bmp	492	1	blank2r.bmp	786	1	DJMR	786	1	blank2r.bmp	866	2	erfinder	866	0	0	0	0	0	0	0	0	0	0	0	0	0	0	0	0	0	0	0	0	0	0	0	0	0	0	0	0	0	0	0	0	0
071718	09:19:19	5.0.10.0	168	associated	Rpleas_acq	Oppo	Rpleas	Amasked	CS_A	2pleas	acq_unple_masked	acq1_masked	1	14	0	0	300	300	0	0	1157	46	0	1	0	0	0	1	blank2r.bmp	0	1	+	0	6	C2r.bmp	492	1	blank2r.bmp	786	1	HLST	786	1	blank2r.bmp	866	2	geiz	866	0	0	0	0	0	0	0	0	0	0	0	0	0	0	0	0	0	0	0	0	0	0	0	0	0	0	0	0	0	0	0	0	0
071718	09:19:19	5.0.10.0	168	associated	Rpleas_acq	Oppo	Rpleas	Amasked	CS_A	2pleas	acq_pleas_masked	acq1_masked	1	15	0	0	300	300	0	0	745	50	0	1	0	0	0	1	blank2r.bmp	0	1	+	0	8	C4r.bmp	492	1	blank2r.bmp	786	1	DJMR	786	1	blank2r.bmp	866	6	meer	866	0	0	0	0	0	0	0	0	0	0	0	0	0	0	0	0	0	0	0	0	0	0	0	0	0	0	0	0	0	0	0	0	0
071718	09:19:19	5.0.10.0	168	associated	Rpleas_acq	Oppo	Rpleas	Amasked	CS_A	2pleas	acq_unple_masked	acq1_masked	1	16	0	0	300	300	0	0	1208	50	0	0	0	0	0	1	blank2r.bmp	0	1	+	0	7	C3r.bmp	492	1	blank2r.bmp	786	1	HLST	786	1	blank2r.bmp	866	5	zwang	866	1	FEHLER	2105	0	0	0	0	0	0	0	0	0	0	0	0	0	0	0	0	0	0	0	0	0	0	0	0	0	0	0	0	0	0
071718	09:19:19	5.0.10.0	168	associated	Rpleas_acq	Oppo	Rpleas	Amasked	CS_A	2pleas	acq_unple_masked	acq1_masked	1	17	0	0	300	300	0	0	1106	50	0	0	0	0	0	1	blank2r.bmp	0	1	+	0	8	C4r.bmp	492	1	blank2r.bmp	786	1	HLST	786	1	blank2r.bmp	866	1	narr	866	1	FEHLER	2012	0	0	0	0	0	0	0	0	0	0	0	0	0	0	0	0	0	0	0	0	0	0	0	0	0	0	0	0	0	0
071718	09:19:19	5.0.10.0	168	associated	Rpleas_acq	Oppo	Rpleas	Amasked	CS_A	2pleas	acq_unple_masked	acq1_masked	1	18	0	0	300	300	0	0	809	46	0	1	0	0	0	1	blank2r.bmp	0	1	+	0	4	B4r.bmp	492	1	blank2r.bmp	786	1	HLST	786	1	blank2r.bmp	866	4	gegner	866	0	0	0	0	0	0	0	0	0	0	0	0	0	0	0	0	0	0	0	0	0	0	0	0	0	0	0	0	0	0	0	0	0
071718	09:19:19	5.0.10.0	168	associated	Rpleas_acq	Oppo	Rpleas	Amasked	CS_A	2pleas	acq_pleas_masked	acq1_masked	1	19	0	0	300	300	0	0	843	50	0	1	0	0	0	1	blank2r.bmp	0	1	+	0	1	B1r.bmp	492	1	blank2r.bmp	786	1	DJMR	786	1	blank2r.bmp	866	3	jugend	866	0	0	0	0	0	0	0	0	0	0	0	0	0	0	0	0	0	0	0	0	0	0	0	0	0	0	0	0	0	0	0	0	0
071718	09:19:19	5.0.10.0	168	associated	Rpleas_acq	Oppo	Rpleas	Amasked	CS_A	2pleas	acq_pleas_masked	acq1_masked	1	20	0	0	300	300	0	0	751	50	0	1	0	0	0	1	blank2r.bmp	0	1	+	0	5	C1r.bmp	492	1	blank2r.bmp	786	1	DJMR	786	1	blank2r.bmp	866	4	mama	866	0	0	0	0	0	0	0	0	0	0	0	0	0	0	0	0	0	0	0	0	0	0	0	0	0	0	0	0	0	0	0	0	0
071718	09:19:19	5.0.10.0	168	associated	Rpleas_acq	Oppo	Rpleas	Amasked	CS_A	2pleas	acq_pleas_masked	acq1_masked	1	21	0	0	300	300	0	0	1083	50	0	1	0	0	0	1	blank2r.bmp	0	1	+	0	3	B3r.bmp	492	1	blank2r.bmp	786	1	DJMR	786	1	blank2r.bmp	866	1	wein	866	0	0	0	0	0	0	0	0	0	0	0	0	0	0	0	0	0	0	0	0	0	0	0	0	0	0	0	0	0	0	0	0	0
071718	09:19:19	5.0.10.0	168	associated	Rpleas_acq	Oppo	Rpleas	Amasked	CS_A	2pleas	acq_unple_masked	acq1_masked	1	22	0	0	300	300	0	0	754	50	0	0	0	0	0	1	blank2r.bmp	0	1	+	0	2	B2r.bmp	492	1	blank2r.bmp	786	1	HLST	786	1	blank2r.bmp	866	6	armee	866	1	FEHLER	1652	0	0	0	0	0	0	0	0	0	0	0	0	0	0	0	0	0	0	0	0	0	0	0	0	0	0	0	0	0	0
071718	09:19:19	5.0.10.0	168	associated	Rpleas_acq	Oppo	Rpleas	Amasked	CS_A	2pleas	acq_pleas_masked	acq1_masked	1	23	0	0	300	300	0	0	938	46	0	0	0	0	0	1	blank2r.bmp	0	1	+	0	6	C2r.bmp	492	1	blank2r.bmp	786	1	DJMR	786	1	blank2r.bmp	866	5	frieden	866	1	FEHLER	1839	0	0	0	0	0	0	0	0	0	0	0	0	0	0	0	0	0	0	0	0	0	0	0	0	0	0	0	0	0	0
071718	09:19:19	5.0.10.0	168	associated	Rpleas_acq	Oppo	Rpleas	Amasked	CS_A	2pleas	acq_unple_masked	acq1_masked	1	24	0	0	300	300	0	0	684	46	0	1	0	0	0	1	blank2r.bmp	0	1	+	0	7	C3r.bmp	492	1	blank2r.bmp	786	1	HLST	786	1	blank2r.bmp	866	3	wunde	866	0	0	0	0	0	0	0	0	0	0	0	0	0	0	0	0	0	0	0	0	0	0	0	0	0	0	0	0	0	0	0	0	0
071718	09:19:19	5.0.10.0	168	associated	Rpleas_acq	Oppo	Rpleas	Amasked	CS_A	2pleas	acq_unple_masked	acq2_masked	2	1	480	0	300	300	0	0	3086	50	0	0	0	0	0	1	blank2r.bmp	0	1	+	0	1	B1r.bmp	492	1	blank2r.bmp	786	1	HLST	786	1	blank2r.bmp	866	1	narr	866	1	FEHLER	4291	1	!	1319	1	!	-1	0	0	0	0	0	0	0	0	0	0	0	0	0	0	0	0	0	0	0	0	0	0	0	0
071718	09:19:19	5.0.10.0	168	associated	Rpleas_acq	Oppo	Rpleas	Amasked	CS_A	2pleas	acq_pleas_masked	acq2_masked	2	2	480	0	300	300	0	0	772	50	0	1	0	0	0	1	blank2r.bmp	0	1	+	0	4	B4r.bmp	492	1	blank2r.bmp	786	1	DJMR	786	1	blank2r.bmp	866	2	erfinder	866	1	!	1319	1	!	-1	0	0	0	0	0	0	0	0	0	0	0	0	0	0	0	0	0	0	0	0	0	0	0	0	0	0	0
071718	09:19:19	5.0.10.0	168	associated	Rpleas_acq	Oppo	Rpleas	Amasked	CS_A	2pleas	acq_unple_masked	acq2_masked	2	3	480	0	300	300	0	0	662	46	0	1	0	0	0	1	blank2r.bmp	0	1	+	0	8	C4r.bmp	492	1	blank2r.bmp	786	1	HLST	786	1	blank2r.bmp	866	5	zwang	866	1	!	1319	1	!	-1	0	0	0	0	0	0	0	0	0	0	0	0	0	0	0	0	0	0	0	0	0	0	0	0	0	0	0
071718	09:19:19	5.0.10.0	168	associated	Rpleas_acq	Oppo	Rpleas	Amasked	CS_A	2pleas	acq_unple_masked	acq2_masked	2	4	480	0	300	300	0	0	4045	50	0	0	0	0	0	1	blank2r.bmp	0	1	+	0	2	B2r.bmp	492	1	blank2r.bmp	786	1	HLST	786	1	blank2r.bmp	866	6	armee	866	1	FEHLER	5251	1	!	1319	1	!	-1	0	0	0	0	0	0	0	0	0	0	0	0	0	0	0	0	0	0	0	0	0	0	0	0
071718	09:19:19	5.0.10.0	168	associated	Rpleas_acq	Oppo	Rpleas	Amasked	CS_A	2pleas	acq_unple_masked	acq2_masked	2	5	480	0	300	300	0	0	917	46	0	1	0	0	0	1	blank2r.bmp	0	1	+	0	7	C3r.bmp	492	1	blank2r.bmp	786	1	HLST	786	1	blank2r.bmp	866	2	geiz	866	1	!	1319	1	!	-1	0	0	0	0	0	0	0	0	0	0	0	0	0	0	0	0	0	0	0	0	0	0	0	0	0	0	0
071718	09:19:19	5.0.10.0	168	associated	Rpleas_acq	Oppo	Rpleas	Amasked	CS_A	2pleas	acq_pleas_masked	acq2_masked	2	6	480	0	300	300	0	0	712	50	0	1	0	0	0	1	blank2r.bmp	0	1	+	0	5	C1r.bmp	492	1	blank2r.bmp	786	1	DJMR	786	1	blank2r.bmp	866	6	meer	866	1	!	1319	1	!	-1	0	0	0	0	0	0	0	0	0	0	0	0	0	0	0	0	0	0	0	0	0	0	0	0	0	0	0
071718	09:19:19	5.0.10.0	168	associated	Rpleas_acq	Oppo	Rpleas	Amasked	CS_A	2pleas	acq_pleas_masked	acq2_masked	2	7	480	0	300	300	0	0	726	50	0	1	0	0	0	1	blank2r.bmp	0	1	+	0	3	B3r.bmp	492	1	blank2r.bmp	786	1	DJMR	786	1	blank2r.bmp	866	4	mama	866	1	!	1319	1	!	-1	0	0	0	0	0	0	0	0	0	0	0	0	0	0	0	0	0	0	0	0	0	0	0	0	0	0	0
071718	09:19:19	5.0.10.0	168	associated	Rpleas_acq	Oppo	Rpleas	Amasked	CS_A	2pleas	acq_pleas_masked	acq2_masked	2	8	480	0	300	300	0	0	698	50	0	1	0	0	0	1	blank2r.bmp	0	1	+	0	6	C2r.bmp	492	1	blank2r.bmp	786	1	DJMR	786	1	blank2r.bmp	866	5	frieden	866	1	!	1319	1	!	-1	0	0	0	0	0	0	0	0	0	0	0	0	0	0	0	0	0	0	0	0	0	0	0	0	0	0	0
071718	09:19:19	5.0.10.0	168	associated	Rpleas_acq	Oppo	Rpleas	Amasked	CS_A	2pleas	acq_unple_masked	acq2_masked	2	9	480	0	300	300	0	0	685	46	0	1	0	0	0	1	blank2r.bmp	0	1	+	0	2	B2r.bmp	492	1	blank2r.bmp	786	1	HLST	786	1	blank2r.bmp	866	4	gegner	866	1	!	1319	1	!	-1	0	0	0	0	0	0	0	0	0	0	0	0	0	0	0	0	0	0	0	0	0	0	0	0	0	0	0
071718	09:19:19	5.0.10.0	168	associated	Rpleas_acq	Oppo	Rpleas	Amasked	CS_A	2pleas	acq_pleas_masked	acq2_masked	2	10	480	0	300	300	0	0	591	50	0	1	0	0	0	1	blank2r.bmp	0	1	+	0	1	B1r.bmp	492	1	blank2r.bmp	786	1	DJMR	786	1	blank2r.bmp	866	3	jugend	866	1	!	1319	1	!	-1	0	0	0	0	0	0	0	0	0	0	0	0	0	0	0	0	0	0	0	0	0	0	0	0	0	0	0
071718	09:19:19	5.0.10.0	168	associated	Rpleas_acq	Oppo	Rpleas	Amasked	CS_A	2pleas	acq_unple_masked	acq2_masked	2	11	480	0	300	300	0	0	559	46	0	1	0	0	0	1	blank2r.bmp	0	1	+	0	7	C3r.bmp	492	1	blank2r.bmp	786	1	HLST	786	1	blank2r.bmp	866	3	wunde	866	1	!	1319	1	!	-1	0	0	0	0	0	0	0	0	0	0	0	0	0	0	0	0	0	0	0	0	0	0	0	0	0	0	0
071718	09:19:19	5.0.10.0	168	associated	Rpleas_acq	Oppo	Rpleas	Amasked	CS_A	2pleas	acq_unple_masked	acq2_masked	2	12	480	0	300	300	0	0	560	50	0	0	0	0	0	1	blank2r.bmp	0	1	+	0	3	B3r.bmp	492	1	blank2r.bmp	786	1	HLST	786	1	blank2r.bmp	866	6	armee	866	1	FEHLER	1772	1	!	1319	1	!	-1	0	0	0	0	0	0	0	0	0	0	0	0	0	0	0	0	0	0	0	0	0	0	0	0
071718	09:19:19	5.0.10.0	168	associated	Rpleas_acq	Oppo	Rpleas	Amasked	CS_A	2pleas	acq_pleas_masked	acq2_masked	2	13	480	0	300	300	0	0	709	46	0	0	0	0	0	1	blank2r.bmp	0	1	+	0	8	C4r.bmp	492	1	blank2r.bmp	786	1	DJMR	786	1	blank2r.bmp	866	1	wein	866	1	FEHLER	1919	1	!	1319	1	!	-1	0	0	0	0	0	0	0	0	0	0	0	0	0	0	0	0	0	0	0	0	0	0	0	0
071718	09:19:19	5.0.10.0	168	associated	Rpleas_acq	Oppo	Rpleas	Amasked	CS_A	2pleas	acq_unple_masked	acq2_masked	2	14	480	0	300	300	0	0	559	50	0	0	0	0	0	1	blank2r.bmp	0	1	+	0	4	B4r.bmp	492	1	blank2r.bmp	786	1	HLST	786	1	blank2r.bmp	866	4	gegner	866	1	FEHLER	1772	1	!	1319	1	!	-1	0	0	0	0	0	0	0	0	0	0	0	0	0	0	0	0	0	0	0	0	0	0	0	0
071718	09:19:19	5.0.10.0	168	associated	Rpleas_acq	Oppo	Rpleas	Amasked	CS_A	2pleas	acq_pleas_masked	acq2_masked	2	15	480	0	300	300	0	0	765	50	0	1	0	0	0	1	blank2r.bmp	0	1	+	0	5	C1r.bmp	492	1	blank2r.bmp	786	1	DJMR	786	1	blank2r.bmp	866	1	wein	866	1	!	1319	1	!	-1	0	0	0	0	0	0	0	0	0	0	0	0	0	0	0	0	0	0	0	0	0	0	0	0	0	0	0
071718	09:19:19	5.0.10.0	168	associated	Rpleas_acq	Oppo	Rpleas	Amasked	CS_A	2pleas	acq_pleas_masked	acq2_masked	2	16	480	0	300	300	0	0	893	50	0	1	0	0	0	1	blank2r.bmp	0	1	+	0	6	C2r.bmp	492	1	blank2r.bmp	786	1	DJMR	786	1	blank2r.bmp	866	3	jugend	866	1	!	1319	1	!	-1	0	0	0	0	0	0	0	0	0	0	0	0	0	0	0	0	0	0	0	0	0	0	0	0	0	0	0
071718	09:19:19	5.0.10.0	168	associated	Rpleas_acq	Oppo	Rpleas	Amasked	CS_A	2pleas	acq_pleas_masked	acq2_masked	2	17	480	0	300	300	0	0	559	46	0	0	0	0	0	1	blank2r.bmp	0	1	+	0	2	B2r.bmp	492	1	blank2r.bmp	786	1	DJMR	786	1	blank2r.bmp	866	6	meer	866	1	FEHLER	1772	1	!	1319	1	!	-1	0	0	0	0	0	0	0	0	0	0	0	0	0	0	0	0	0	0	0	0	0	0	0	0
071718	09:19:19	5.0.10.0	168	associated	Rpleas_acq	Oppo	Rpleas	Amasked	CS_A	2pleas	acq_unple_masked	acq2_masked	2	18	480	1	300	300	0	0	452	50	0	0	0	0	0	1	blank2r.bmp	0	1	+	0	7	C3r.bmp	492	1	blank2r.bmp	786	1	HLST	786	1	blank2r.bmp	866	1	narr	866	1	FEHLER	1665	1	!	1319	1	!	1346	0	0	0	0	0	0	0	0	0	0	0	0	0	0	0	0	0	0	0	0	0	0	0	0
071718	09:19:19	5.0.10.0	168	associated	Rpleas_acq	Oppo	Rpleas	Amasked	CS_A	2pleas	acq_pleas_masked	acq2_masked	2	19	480	0	300	300	0	0	398	46	0	0	0	0	0	1	blank2r.bmp	0	1	+	0	5	C1r.bmp	492	1	blank2r.bmp	786	1	DJMR	786	1	blank2r.bmp	866	5	frieden	866	1	FEHLER	1599	1	!	-1	1	!	-1	0	0	0	0	0	0	0	0	0	0	0	0	0	0	0	0	0	0	0	0	0	0	0	0
071718	09:19:19	5.0.10.0	168	associated	Rpleas_acq	Oppo	Rpleas	Amasked	CS_A	2pleas	acq_unple_masked	acq2_masked	2	20	480	0	300	300	0	0	399	50	0	0	0	0	0	1	blank2r.bmp	0	1	+	0	1	B1r.bmp	492	1	blank2r.bmp	786	1	HLST	786	1	blank2r.bmp	866	2	geiz	866	1	FEHLER	1612	1	!	-1	1	!	-1	0	0	0	0	0	0	0	0	0	0	0	0	0	0	0	0	0	0	0	0	0	0	0	0
071718	09:19:19	5.0.10.0	168	associated	Rpleas_acq	Oppo	Rpleas	Amasked	CS_A	2pleas	acq_unple_masked	acq2_masked	2	21	480	1	300	300	0	0	426	46	0	1	0	0	0	1	blank2r.bmp	0	1	+	0	6	C2r.bmp	492	1	blank2r.bmp	786	1	HLST	786	1	blank2r.bmp	866	3	wunde	866	1	!	1319	1	!	1332	0	0	0	0	0	0	0	0	0	0	0	0	0	0	0	0	0	0	0	0	0	0	0	0	0	0	0
071718	09:19:19	5.0.10.0	168	associated	Rpleas_acq	Oppo	Rpleas	Amasked	CS_A	2pleas	acq_pleas_masked	acq2_masked	2	22	480	0	300	300	0	0	304	50	0	1	0	0	0	1	blank2r.bmp	0	1	+	0	4	B4r.bmp	492	1	blank2r.bmp	786	1	DJMR	786	1	blank2r.bmp	866	2	erfinder	866	1	!	-1	1	!	-1	0	0	0	0	0	0	0	0	0	0	0	0	0	0	0	0	0	0	0	0	0	0	0	0	0	0	0
071718	09:19:19	5.0.10.0	168	associated	Rpleas_acq	Oppo	Rpleas	Amasked	CS_A	2pleas	acq_pleas_masked	acq2_masked	2	23	480	1	300	300	0	0	522	50	0	1	0	0	0	1	blank2r.bmp	0	1	+	0	8	C4r.bmp	492	1	blank2r.bmp	786	1	DJMR	786	1	blank2r.bmp	866	4	mama	866	1	!	1319	1	!	1426	0	0	0	0	0	0	0	0	0	0	0	0	0	0	0	0	0	0	0	0	0	0	0	0	0	0	0
071718	09:19:19	5.0.10.0	168	associated	Rpleas_acq	Oppo	Rpleas	Amasked	CS_A	2pleas	acq_unple_masked	acq2_masked	2	24	480	0	300	300	0	0	310	46	0	1	0	0	0	1	blank2r.bmp	0	1	+	0	3	B3r.bmp	492	1	blank2r.bmp	786	1	HLST	786	1	blank2r.bmp	866	5	zwang	866	1	!	-1	1	!	-1	0	0	0	0	0	0	0	0	0	0	0	0	0	0	0	0	0	0	0	0	0	0	0	0	0	0	0
071718	09:19:19	5.0.10.0	168	associated	Rpleas_acq	Oppo	Rpleas	Amasked	CS_A	2pleas	acq_unple_masked	acq3_masked	3	1	453	0	300	300	0	0	689	50	0	0	0	0	0	1	blank2r.bmp	0	1	+	0	4	B4r.bmp	492	1	blank2r.bmp	786	1	HLST	786	1	blank2r.bmp	866	4	gegner	866	1	FEHLER	1892	1	!	1292	1	!	-1	0	0	0	0	0	0	0	0	0	0	0	0	0	0	0	0	0	0	0	0	0	0	0	0
071718	09:19:19	5.0.10.0	168	associated	Rpleas_acq	Oppo	Rpleas	Amasked	CS_A	2pleas	acq_pleas_masked	acq3_masked	3	2	453	0	300	300	0	0	270	46	0	0	0	0	0	1	blank2r.bmp	0	1	+	0	5	C1r.bmp	492	1	blank2r.bmp	786	1	DJMR	786	1	blank2r.bmp	866	3	jugend	866	1	FEHLER	1479	1	!	-1	1	!	-1	0	0	0	0	0	0	0	0	0	0	0	0	0	0	0	0	0	0	0	0	0	0	0	0
071718	09:19:19	5.0.10.0	168	associated	Rpleas_acq	Oppo	Rpleas	Amasked	CS_A	2pleas	acq_unple_masked	acq3_masked	3	3	453	0	300	300	0	0	378	50	0	0	0	0	0	1	blank2r.bmp	0	1	+	0	1	B1r.bmp	492	1	blank2r.bmp	786	1	HLST	786	1	blank2r.bmp	866	3	wunde	866	1	FEHLER	1586	1	!	-1	1	!	-1	0	0	0	0	0	0	0	0	0	0	0	0	0	0	0	0	0	0	0	0	0	0	0	0
071718	09:19:19	5.0.10.0	168	associated	Rpleas_acq	Oppo	Rpleas	Amasked	CS_A	2pleas	acq_unple_masked	acq3_masked	3	4	453	0	300	300	0	0	321	46	0	1	0	0	0	1	blank2r.bmp	0	1	+	0	7	C3r.bmp	492	1	blank2r.bmp	786	1	HLST	786	1	blank2r.bmp	866	1	narr	866	1	!	-1	1	!	-1	0	0	0	0	0	0	0	0	0	0	0	0	0	0	0	0	0	0	0	0	0	0	0	0	0	0	0
071718	09:19:19	5.0.10.0	168	associated	Rpleas_acq	Oppo	Rpleas	Amasked	CS_A	2pleas	acq_pleas_masked	acq3_masked	3	5	453	1	300	300	0	0	419	50	0	1	0	0	0	1	blank2r.bmp	0	1	+	0	8	C4r.bmp	492	1	blank2r.bmp	786	1	DJMR	786	1	blank2r.bmp	866	4	mama	866	1	!	1292	1	!	1319	0	0	0	0	0	0	0	0	0	0	0	0	0	0	0	0	0	0	0	0	0	0	0	0	0	0	0
071718	09:19:19	5.0.10.0	168	associated	Rpleas_acq	Oppo	Rpleas	Amasked	CS_A	2pleas	acq_unple_masked	acq3_masked	3	6	453	0	300	300	0	0	270	46	0	1	0	0	0	1	blank2r.bmp	0	1	+	0	3	B3r.bmp	492	1	blank2r.bmp	786	1	HLST	786	1	blank2r.bmp	866	2	geiz	866	1	!	-1	1	!	-1	0	0	0	0	0	0	0	0	0	0	0	0	0	0	0	0	0	0	0	0	0	0	0	0	0	0	0
071718	09:19:19	5.0.10.0	168	associated	Rpleas_acq	Oppo	Rpleas	Amasked	CS_A	2pleas	acq_pleas_masked	acq3_masked	3	7	453	0	300	300	0	0	693	50	0	1	0	0	0	1	blank2r.bmp	0	1	+	0	2	B2r.bmp	492	1	blank2r.bmp	786	1	DJMR	786	1	blank2r.bmp	866	6	meer	866	1	!	1292	1	!	-1	0	0	0	0	0	0	0	0	0	0	0	0	0	0	0	0	0	0	0	0	0	0	0	0	0	0	0
071718	09:19:19	5.0.10.0	168	associated	Rpleas_acq	Oppo	Rpleas	Amasked	CS_A	2pleas	acq_pleas_masked	acq3_masked	3	8	453	0	300	300	0	0	644	46	0	0	0	0	0	1	blank2r.bmp	0	1	+	0	6	C2r.bmp	492	1	blank2r.bmp	786	1	DJMR	786	1	blank2r.bmp	866	5	frieden	866	1	FEHLER	1852	1	!	1292	1	!	-1	0	0	0	0	0	0	0	0	0	0	0	0	0	0	0	0	0	0	0	0	0	0	0	0
071718	09:19:19	5.0.10.0	168	associated	Rpleas_acq	Oppo	Rpleas	Amasked	CS_A	2pleas	acq_unple_masked	acq3_masked	3	9	453	0	300	300	0	0	725	50	0	0	0	0	0	1	blank2r.bmp	0	1	+	0	5	C1r.bmp	492	1	blank2r.bmp	786	1	HLST	786	1	blank2r.bmp	866	5	zwang	866	1	FEHLER	1932	1	!	1292	1	!	-1	0	0	0	0	0	0	0	0	0	0	0	0	0	0	0	0	0	0	0	0	0	0	0	0
071718	09:19:19	5.0.10.0	168	associated	Rpleas_acq	Oppo	Rpleas	Amasked	CS_A	2pleas	acq_unple_masked	acq3_masked	3	10	453	0	300	300	0	0	700	46	0	1	0	0	0	1	blank2r.bmp	0	1	+	0	7	C3r.bmp	492	1	blank2r.bmp	786	1	HLST	786	1	blank2r.bmp	866	6	armee	866	1	!	1292	1	!	-1	0	0	0	0	0	0	0	0	0	0	0	0	0	0	0	0	0	0	0	0	0	0	0	0	0	0	0
071718	09:19:19	5.0.10.0	168	associated	Rpleas_acq	Oppo	Rpleas	Amasked	CS_A	2pleas	acq_pleas_masked	acq3_masked	3	11	453	0	300	300	0	0	259	50	0	1	0	0	0	1	blank2r.bmp	0	1	+	0	4	B4r.bmp	492	1	blank2r.bmp	786	1	DJMR	786	1	blank2r.bmp	866	2	erfinder	866	1	!	-1	1	!	-1	0	0	0	0	0	0	0	0	0	0	0	0	0	0	0	0	0	0	0	0	0	0	0	0	0	0	0
071718	09:19:19	5.0.10.0	168	associated	Rpleas_acq	Oppo	Rpleas	Amasked	CS_A	2pleas	acq_unple_masked	acq3_masked	3	12	453	0	300	300	0	0	320	50	0	0	0	0	0	1	blank2r.bmp	0	1	+	0	2	B2r.bmp	492	1	blank2r.bmp	786	1	HLST	786	1	blank2r.bmp	866	4	gegner	866	1	FEHLER	1532	1	!	-1	1	!	-1	0	0	0	0	0	0	0	0	0	0	0	0	0	0	0	0	0	0	0	0	0	0	0	0
071718	09:19:19	5.0.10.0	168	associated	Rpleas_acq	Oppo	Rpleas	Amasked	CS_A	2pleas	acq_pleas_masked	acq3_masked	3	13	453	0	300	300	0	0	694	46	0	0	0	0	0	1	blank2r.bmp	0	1	+	0	1	B1r.bmp	492	1	blank2r.bmp	786	1	DJMR	786	1	blank2r.bmp	866	1	wein	866	1	FEHLER	1905	1	!	1292	1	!	-1	0	0	0	0	0	0	0	0	0	0	0	0	0	0	0	0	0	0	0	0	0	0	0	0
071718	09:19:19	5.0.10.0	168	associated	Rpleas_acq	Oppo	Rpleas	Amasked	CS_A	2pleas	acq_pleas_masked	acq3_masked	3	14	453	0	300	300	0	0	666	50	0	1	0	0	0	1	blank2r.bmp	0	1	+	0	6	C2r.bmp	492	1	blank2r.bmp	786	1	DJMR	786	1	blank2r.bmp	866	1	wein	866	1	!	1292	1	!	-1	0	0	0	0	0	0	0	0	0	0	0	0	0	0	0	0	0	0	0	0	0	0	0	0	0	0	0
071718	09:19:19	5.0.10.0	168	associated	Rpleas_acq	Oppo	Rpleas	Amasked	CS_A	2pleas	acq_unple_masked	acq3_masked	3	15	453	0	300	300	0	0	216	46	0	1	0	0	0	1	blank2r.bmp	0	1	+	0	8	C4r.bmp	492	1	blank2r.bmp	786	1	HLST	786	1	blank2r.bmp	866	2	geiz	866	1	!	-1	1	!	-1	0	0	0	0	0	0	0	0	0	0	0	0	0	0	0	0	0	0	0	0	0	0	0	0	0	0	0
071718	09:19:19	5.0.10.0	168	associated	Rpleas_acq	Oppo	Rpleas	Amasked	CS_A	2pleas	acq_pleas_masked	acq3_masked	3	16	453	0	300	300	0	0	532	50	0	1	0	0	0	1	blank2r.bmp	0	1	+	0	3	B3r.bmp	492	1	blank2r.bmp	786	1	DJMR	786	1	blank2r.bmp	866	6	meer	866	1	!	1292	1	!	-1	0	0	0	0	0	0	0	0	0	0	0	0	0	0	0	0	0	0	0	0	0	0	0	0	0	0	0
071718	09:19:19	5.0.10.0	168	associated	Rpleas_acq	Oppo	Rpleas	Amasked	CS_A	2pleas	acq_pleas_masked	acq3_masked	3	17	453	0	300	300	0	0	645	46	0	0	0	0	0	1	blank2r.bmp	0	1	+	0	5	C1r.bmp	492	1	blank2r.bmp	786	1	DJMR	786	1	blank2r.bmp	866	5	frieden	866	1	FEHLER	1852	1	!	1292	1	!	-1	0	0	0	0	0	0	0	0	0	0	0	0	0	0	0	0	0	0	0	0	0	0	0	0
071718	09:19:19	5.0.10.0	168	associated	Rpleas_acq	Oppo	Rpleas	Amasked	CS_A	2pleas	acq_unple_masked	acq3_masked	3	18	453	0	300	300	0	0	734	50	0	0	0	0	0	1	blank2r.bmp	0	1	+	0	2	B2r.bmp	492	1	blank2r.bmp	786	1	HLST	786	1	blank2r.bmp	866	1	narr	866	1	FEHLER	1945	1	!	1292	1	!	-1	0	0	0	0	0	0	0	0	0	0	0	0	0	0	0	0	0	0	0	0	0	0	0	0
071718	09:19:19	5.0.10.0	168	associated	Rpleas_acq	Oppo	Rpleas	Amasked	CS_A	2pleas	acq_unple_masked	acq3_masked	3	19	453	0	300	300	0	0	628	46	0	1	0	0	0	1	blank2r.bmp	0	1	+	0	4	B4r.bmp	492	1	blank2r.bmp	786	1	HLST	786	1	blank2r.bmp	866	3	wunde	866	1	!	1292	1	!	-1	0	0	0	0	0	0	0	0	0	0	0	0	0	0	0	0	0	0	0	0	0	0	0	0	0	0	0
071718	09:19:19	5.0.10.0	168	associated	Rpleas_acq	Oppo	Rpleas	Amasked	CS_A	2pleas	acq_unple_masked	acq3_masked	3	20	453	0	300	300	0	0	711	50	0	0	0	0	0	1	blank2r.bmp	0	1	+	0	7	C3r.bmp	492	1	blank2r.bmp	786	1	HLST	786	1	blank2r.bmp	866	5	zwang	866	1	FEHLER	1919	1	!	1292	1	!	-1	0	0	0	0	0	0	0	0	0	0	0	0	0	0	0	0	0	0	0	0	0	0	0	0
071718	09:19:19	5.0.10.0	168	associated	Rpleas_acq	Oppo	Rpleas	Amasked	CS_A	2pleas	acq_pleas_masked	acq3_masked	3	21	453	0	300	300	0	0	633	46	0	0	0	0	0	1	blank2r.bmp	0	1	+	0	6	C2r.bmp	492	1	blank2r.bmp	786	1	DJMR	786	1	blank2r.bmp	866	3	jugend	866	1	FEHLER	1839	1	!	1292	1	!	-1	0	0	0	0	0	0	0	0	0	0	0	0	0	0	0	0	0	0	0	0	0	0	0	0
071718	09:19:19	5.0.10.0	168	associated	Rpleas_acq	Oppo	Rpleas	Amasked	CS_A	2pleas	acq_unple_masked	acq3_masked	3	22	453	0	300	300	0	0	566	50	0	0	0	0	0	1	blank2r.bmp	0	1	+	0	8	C4r.bmp	492	1	blank2r.bmp	786	1	HLST	786	1	blank2r.bmp	866	6	armee	866	1	FEHLER	1772	1	!	1292	1	!	-1	0	0	0	0	0	0	0	0	0	0	0	0	0	0	0	0	0	0	0	0	0	0	0	0
071718	09:19:19	5.0.10.0	168	associated	Rpleas_acq	Oppo	Rpleas	Amasked	CS_A	2pleas	acq_unple_masked	acq3_masked	3	23	453	0	300	300	0	0	597	46	0	1	0	0	0	1	blank2r.bmp	0	1	+	0	3	B3r.bmp	492	1	blank2r.bmp	786	1	HLST	786	1	blank2r.bmp	866	1	narr	866	1	!	1292	1	!	-1	0	0	0	0	0	0	0	0	0	0	0	0	0	0	0	0	0	0	0	0	0	0	0	0	0	0	0
071718	09:19:19	5.0.10.0	168	associated	Rpleas_acq	Oppo	Rpleas	Amasked	CS_A	2pleas	acq_pleas_masked	acq3_masked	3	24	453	0	300	300	0	0	744	50	0	1	0	0	0	1	blank2r.bmp	0	1	+	0	1	B1r.bmp	492	1	blank2r.bmp	786	1	DJMR	786	1	blank2r.bmp	866	4	mama	866	1	!	1292	1	!	-1	0	0	0	0	0	0	0	0	0	0	0	0	0	0	0	0	0	0	0	0	0	0	0	0	0	0	0
071718	09:19:19	5.0.10.0	168	associated	Rpleas_acq	Oppo	Rpleas	Amasked	CS_A	2pleas	acq_pleas_masked	acq3_masked	3	25	453	0	300	300	0	0	68	46	0	0	0	0	0	1	blank2r.bmp	0	1	+	0	6	C2r.bmp	492	1	blank2r.bmp	786	1	DJMR	786	1	blank2r.bmp	866	2	erfinder	866	1	FEHLER	1279	1	!	-1	1	!	-1	0	0	0	0	0	0	0	0	0	0	0	0	0	0	0	0	0	0	0	0	0	0	0	0
071718	09:19:19	5.0.10.0	168	associated	Rpleas_acq	Oppo	Rpleas	Amasked	CS_A	2pleas	acq_pleas_masked	acq3_masked	3	26	453	0	300	300	0	0	700	50	0	1	0	0	0	1	blank2r.bmp	0	1	+	0	2	B2r.bmp	492	1	blank2r.bmp	786	1	DJMR	786	1	blank2r.bmp	866	2	erfinder	866	1	!	1292	1	!	-1	0	0	0	0	0	0	0	0	0	0	0	0	0	0	0	0	0	0	0	0	0	0	0	0	0	0	0
071718	09:19:19	5.0.10.0	168	associated	Rpleas_acq	Oppo	Rpleas	Amasked	CS_A	2pleas	acq_unple_masked	acq3_masked	3	27	453	0	300	300	0	0	627	46	0	1	0	0	0	1	blank2r.bmp	0	1	+	0	7	C3r.bmp	492	1	blank2r.bmp	786	1	HLST	786	1	blank2r.bmp	866	3	wunde	866	1	!	1292	1	!	-1	0	0	0	0	0	0	0	0	0	0	0	0	0	0	0	0	0	0	0	0	0	0	0	0	0	0	0
071718	09:19:19	5.0.10.0	168	associated	Rpleas_acq	Oppo	Rpleas	Amasked	CS_A	2pleas	acq_pleas_masked	acq3_masked	3	28	453	0	300	300	0	0	793	50	0	1	0	0	0	1	blank2r.bmp	0	1	+	0	4	B4r.bmp	492	1	blank2r.bmp	786	1	DJMR	786	1	blank2r.bmp	866	1	wein	866	1	!	1292	1	!	-1	0	0	0	0	0	0	0	0	0	0	0	0	0	0	0	0	0	0	0	0	0	0	0	0	0	0	0
071718	09:19:19	5.0.10.0	168	associated	Rpleas_acq	Oppo	Rpleas	Amasked	CS_A	2pleas	acq_unple_masked	acq3_masked	3	29	453	0	300	300	0	0	557	46	0	1	0	0	0	1	blank2r.bmp	0	1	+	0	8	C4r.bmp	492	1	blank2r.bmp	786	1	HLST	786	1	blank2r.bmp	866	6	armee	866	1	!	1292	1	!	-1	0	0	0	0	0	0	0	0	0	0	0	0	0	0	0	0	0	0	0	0	0	0	0	0	0	0	0
071718	09:19:19	5.0.10.0	168	associated	Rpleas_acq	Oppo	Rpleas	Amasked	CS_A	2pleas	acq_pleas_masked	acq3_masked	3	30	453	0	300	300	0	0	565	50	0	1	0	0	0	1	blank2r.bmp	0	1	+	0	3	B3r.bmp	492	1	blank2r.bmp	786	1	DJMR	786	1	blank2r.bmp	866	5	frieden	866	1	!	1292	1	!	-1	0	0	0	0	0	0	0	0	0	0	0	0	0	0	0	0	0	0	0	0	0	0	0	0	0	0	0
071718	09:19:19	5.0.10.0	168	associated	Rpleas_acq	Oppo	Rpleas	Amasked	CS_A	2pleas	acq_unple_masked	acq3_masked	3	31	453	0	300	300	0	0	676	46	0	1	0	0	0	1	blank2r.bmp	0	1	+	0	5	C1r.bmp	492	1	blank2r.bmp	786	1	HLST	786	1	blank2r.bmp	866	2	geiz	866	1	!	1292	1	!	-1	0	0	0	0	0	0	0	0	0	0	0	0	0	0	0	0	0	0	0	0	0	0	0	0	0	0	0
071718	09:19:19	5.0.10.0	168	associated	Rpleas_acq	Oppo	Rpleas	Amasked	CS_A	2pleas	acq_pleas_masked	acq3_masked	3	32	453	0	300	300	0	0	364	50	0	1	0	0	0	1	blank2r.bmp	0	1	+	0	1	B1r.bmp	492	1	blank2r.bmp	786	1	DJMR	786	1	blank2r.bmp	866	6	meer	866	1	!	-1	1	!	-1	0	0	0	0	0	0	0	0	0	0	0	0	0	0	0	0	0	0	0	0	0	0	0	0	0	0	0
071718	09:19:19	5.0.10.0	168	associated	Rpleas_acq	Oppo	Rpleas	Amasked	CS_A	2pleas	acq_unple_masked	acq45_masked	4	1	400	0	300	300	0	0	713	50	0	0	0	0	0	1	blank2r.bmp	0	1	+	0	7	C3r.bmp	492	1	blank2r.bmp	786	1	HLST	786	1	blank2r.bmp	866	5	zwang	866	1	!	1239	1	!	-1	0	0	0	0	0	0	0	0	0	0	0	0	0	0	0	0	0	0	0	0	0	0	0	0	0	0	0
071718	09:19:19	5.0.10.0	168	associated	Rpleas_acq	Oppo	Rpleas	Amasked	CS_A	2pleas	acq_pleas_masked	acq45_masked	4	2	400	0	300	300	0	0	593	50	0	1	0	0	0	1	blank2r.bmp	0	1	+	0	2	B2r.bmp	492	1	blank2r.bmp	786	1	DJMR	786	1	blank2r.bmp	866	4	mama	866	1	!	1239	1	!	-1	0	0	0	0	0	0	0	0	0	0	0	0	0	0	0	0	0	0	0	0	0	0	0	0	0	0	0
071718	09:19:19	5.0.10.0	168	associated	Rpleas_acq	Oppo	Rpleas	Amasked	CS_A	2pleas	acq_unple_masked	acq45_masked	4	3	400	0	300	300	0	0	545	46	0	1	0	0	0	1	blank2r.bmp	0	1	+	0	6	C2r.bmp	492	1	blank2r.bmp	786	1	HLST	786	1	blank2r.bmp	866	4	gegner	866	1	!	1239	1	!	-1	0	0	0	0	0	0	0	0	0	0	0	0	0	0	0	0	0	0	0	0	0	0	0	0	0	0	0
071718	09:19:19	5.0.10.0	168	associated	Rpleas_acq	Oppo	Rpleas	Amasked	CS_A	2pleas	acq_pleas_masked	acq45_masked	4	4	400	0	300	300	0	0	601	50	0	1	0	0	0	1	blank2r.bmp	0	1	+	0	1	B1r.bmp	492	1	blank2r.bmp	786	1	DJMR	786	1	blank2r.bmp	866	3	jugend	866	1	!	1239	1	!	-1	0	0	0	0	0	0	0	0	0	0	0	0	0	0	0	0	0	0	0	0	0	0	0	0	0	0	0
071718	09:19:19	5.0.10.0	168	associated	Rpleas_acq	Oppo	Rpleas	Amasked	CS_A	2pleas	acq_pleas_masked	acq45_masked	4	5	400	1	300	300	0	0	346	46	0	0	0	0	0	1	blank2r.bmp	0	1	+	0	5	C1r.bmp	492	1	blank2r.bmp	786	1	DJMR	786	1	blank2r.bmp	866	6	meer	866	1	!	1239	1	!	1252	0	0	0	0	0	0	0	0	0	0	0	0	0	0	0	0	0	0	0	0	0	0	0	0	0	0	0
071718	09:19:19	5.0.10.0	168	associated	Rpleas_acq	Oppo	Rpleas	Amasked	CS_A	2pleas	acq_pleas_masked	acq45_masked	4	6	400	0	300	300	0	0	488	50	0	1	0	0	0	1	blank2r.bmp	0	1	+	0	8	C4r.bmp	492	1	blank2r.bmp	786	1	DJMR	786	1	blank2r.bmp	866	3	jugend	866	1	!	1239	1	!	-1	0	0	0	0	0	0	0	0	0	0	0	0	0	0	0	0	0	0	0	0	0	0	0	0	0	0	0
071718	09:19:19	5.0.10.0	168	associated	Rpleas_acq	Oppo	Rpleas	Amasked	CS_A	2pleas	acq_unple_masked	acq45_masked	4	7	400	1	300	300	0	0	448	50	0	0	0	0	0	1	blank2r.bmp	0	1	+	0	3	B3r.bmp	492	1	blank2r.bmp	786	1	HLST	786	1	blank2r.bmp	866	3	wunde	866	1	!	1239	1	!	1346	0	0	0	0	0	0	0	0	0	0	0	0	0	0	0	0	0	0	0	0	0	0	0	0	0	0	0
071718	09:19:19	5.0.10.0	168	associated	Rpleas_acq	Oppo	Rpleas	Amasked	CS_A	2pleas	acq_pleas_masked	acq45_masked	4	8	400	0	300	300	0	0	502	46	0	0	0	0	0	1	blank2r.bmp	0	1	+	0	4	B4r.bmp	492	1	blank2r.bmp	786	1	DJMR	786	1	blank2r.bmp	866	5	frieden	866	1	!	1239	1	!	-1	0	0	0	0	0	0	0	0	0	0	0	0	0	0	0	0	0	0	0	0	0	0	0	0	0	0	0
071718	09:19:19	5.0.10.0	168	associated	Rpleas_acq	Oppo	Rpleas	Amasked	CS_A	2pleas	acq_unple_masked	acq45_masked	4	9	400	0	300	300	0	0	151	50	0	0	0	0	0	1	blank2r.bmp	0	1	+	0	5	C1r.bmp	492	1	blank2r.bmp	786	1	HLST	786	1	blank2r.bmp	866	6	armee	866	1	!	-1	1	!	-1	0	0	0	0	0	0	0	0	0	0	0	0	0	0	0	0	0	0	0	0	0	0	0	0	0	0	0
071718	09:19:19	5.0.10.0	168	associated	Rpleas_acq	Oppo	Rpleas	Amasked	CS_A	2pleas	acq_pleas_masked	acq45_masked	4	10	400	0	300	300	0	0	506	50	0	1	0	0	0	1	blank2r.bmp	0	1	+	0	4	B4r.bmp	492	1	blank2r.bmp	786	1	DJMR	786	1	blank2r.bmp	866	4	mama	866	1	!	1239	1	!	-1	0	0	0	0	0	0	0	0	0	0	0	0	0	0	0	0	0	0	0	0	0	0	0	0	0	0	0
071718	09:19:19	5.0.10.0	168	associated	Rpleas_acq	Oppo	Rpleas	Amasked	CS_A	2pleas	acq_unple_masked	acq45_masked	4	11	400	0	300	300	0	0	510	50	0	0	0	0	0	1	blank2r.bmp	0	1	+	0	1	B1r.bmp	492	1	blank2r.bmp	786	1	HLST	786	1	blank2r.bmp	866	1	narr	866	1	!	1239	1	!	-1	0	0	0	0	0	0	0	0	0	0	0	0	0	0	0	0	0	0	0	0	0	0	0	0	0	0	0
071718	09:19:19	5.0.10.0	168	associated	Rpleas_acq	Oppo	Rpleas	Amasked	CS_A	2pleas	acq_unple_masked	acq45_masked	4	12	400	0	300	300	0	0	485	46	0	1	0	0	0	1	blank2r.bmp	0	1	+	0	3	B3r.bmp	492	1	blank2r.bmp	786	1	HLST	786	1	blank2r.bmp	866	4	gegner	866	1	!	1239	1	!	-1	0	0	0	0	0	0	0	0	0	0	0	0	0	0	0	0	0	0	0	0	0	0	0	0	0	0	0
071718	09:19:19	5.0.10.0	168	associated	Rpleas_acq	Oppo	Rpleas	Amasked	CS_A	2pleas	acq_unple_masked	acq45_masked	4	13	400	1	300	300	0	0	382	50	0	0	0	0	0	1	blank2r.bmp	0	1	+	0	2	B2r.bmp	492	1	blank2r.bmp	786	1	HLST	786	1	blank2r.bmp	866	5	zwang	866	1	!	1239	1	!	1279	0	0	0	0	0	0	0	0	0	0	0	0	0	0	0	0	0	0	0	0	0	0	0	0	0	0	0
071718	09:19:19	5.0.10.0	168	associated	Rpleas_acq	Oppo	Rpleas	Amasked	CS_A	2pleas	acq_pleas_masked	acq45_masked	4	14	400	0	300	300	0	0	525	46	0	0	0	0	0	1	blank2r.bmp	0	1	+	0	8	C4r.bmp	492	1	blank2r.bmp	786	1	DJMR	786	1	blank2r.bmp	866	2	erfinder	866	1	!	1239	1	!	-1	0	0	0	0	0	0	0	0	0	0	0	0	0	0	0	0	0	0	0	0	0	0	0	0	0	0	0
071718	09:19:19	5.0.10.0	168	associated	Rpleas_acq	Oppo	Rpleas	Amasked	CS_A	2pleas	acq_pleas_masked	acq45_masked	4	15	400	0	300	300	0	0	547	50	0	1	0	0	0	1	blank2r.bmp	0	1	+	0	7	C3r.bmp	492	1	blank2r.bmp	786	1	DJMR	786	1	blank2r.bmp	866	1	wein	866	1	!	1239	1	!	-1	0	0	0	0	0	0	0	0	0	0	0	0	0	0	0	0	0	0	0	0	0	0	0	0	0	0	0
071718	09:19:19	5.0.10.0	168	associated	Rpleas_acq	Oppo	Rpleas	Amasked	CS_A	2pleas	acq_unple_masked	acq45_masked	4	16	400	1	300	300	0	0	464	50	0	0	0	0	0	1	blank2r.bmp	0	1	+	0	6	C2r.bmp	492	1	blank2r.bmp	786	1	HLST	786	1	blank2r.bmp	866	2	geiz	866	1	!	1239	1	!	1359	0	0	0	0	0	0	0	0	0	0	0	0	0	0	0	0	0	0	0	0	0	0	0	0	0	0	0
071718	09:19:19	5.0.10.0	168	associated	Rpleas_acq	Oppo	Rpleas	Amasked	CS_A	2pleas	acq_pleas_masked	acq45_masked	4	17	400	1	300	300	0	0	375	50	0	1	0	0	0	1	blank2r.bmp	0	1	+	0	6	C2r.bmp	492	1	blank2r.bmp	786	1	DJMR	786	1	blank2r.bmp	866	2	erfinder	866	1	!	1239	1	!	1279	0	0	0	0	0	0	0	0	0	0	0	0	0	0	0	0	0	0	0	0	0	0	0	0	0	0	0
071718	09:19:19	5.0.10.0	168	associated	Rpleas_acq	Oppo	Rpleas	Amasked	CS_A	2pleas	acq_unple_masked	acq45_masked	4	18	400	0	300	300	0	0	479	46	0	1	0	0	0	1	blank2r.bmp	0	1	+	0	5	C1r.bmp	492	1	blank2r.bmp	786	1	HLST	786	1	blank2r.bmp	866	2	geiz	866	1	!	1239	1	!	-1	0	0	0	0	0	0	0	0	0	0	0	0	0	0	0	0	0	0	0	0	0	0	0	0	0	0	0
071718	09:19:19	5.0.10.0	168	associated	Rpleas_acq	Oppo	Rpleas	Amasked	CS_A	2pleas	acq_pleas_masked	acq45_masked	4	19	400	1	300	300	0	0	447	50	0	1	0	0	0	1	blank2r.bmp	0	1	+	0	8	C4r.bmp	492	1	blank2r.bmp	786	1	DJMR	786	1	blank2r.bmp	866	4	mama	866	1	!	1239	1	!	1346	0	0	0	0	0	0	0	0	0	0	0	0	0	0	0	0	0	0	0	0	0	0	0	0	0	0	0
071718	09:19:19	5.0.10.0	168	associated	Rpleas_acq	Oppo	Rpleas	Amasked	CS_A	2pleas	acq_pleas_masked	acq45_masked	4	20	400	1	300	300	0	0	411	46	0	0	0	0	0	1	blank2r.bmp	0	1	+	0	4	B4r.bmp	492	1	blank2r.bmp	786	1	DJMR	786	1	blank2r.bmp	866	1	wein	866	1	!	1239	1	!	1306	0	0	0	0	0	0	0	0	0	0	0	0	0	0	0	0	0	0	0	0	0	0	0	0	0	0	0
071718	09:19:19	5.0.10.0	168	associated	Rpleas_acq	Oppo	Rpleas	Amasked	CS_A	2pleas	acq_unple_masked	acq45_masked	4	21	400	1	300	300	0	0	440	50	0	0	0	0	0	1	blank2r.bmp	0	1	+	0	1	B1r.bmp	492	1	blank2r.bmp	786	1	HLST	786	1	blank2r.bmp	866	5	zwang	866	1	!	1239	1	!	1346	0	0	0	0	0	0	0	0	0	0	0	0	0	0	0	0	0	0	0	0	0	0	0	0	0	0	0
071718	09:19:19	5.0.10.0	168	associated	Rpleas_acq	Oppo	Rpleas	Amasked	CS_A	2pleas	acq_pleas_masked	acq45_masked	4	22	400	0	300	300	0	0	479	50	0	1	0	0	0	1	blank2r.bmp	0	1	+	0	2	B2r.bmp	492	1	blank2r.bmp	786	1	DJMR	786	1	blank2r.bmp	866	6	meer	866	1	!	1239	1	!	-1	0	0	0	0	0	0	0	0	0	0	0	0	0	0	0	0	0	0	0	0	0	0	0	0	0	0	0
071718	09:19:19	5.0.10.0	168	associated	Rpleas_acq	Oppo	Rpleas	Amasked	CS_A	2pleas	acq_pleas_masked	acq45_masked	4	23	400	0	300	300	0	0	479	50	0	1	0	0	0	1	blank2r.bmp	0	1	+	0	3	B3r.bmp	492	1	blank2r.bmp	786	1	DJMR	786	1	blank2r.bmp	866	3	jugend	866	1	!	1239	1	!	-1	0	0	0	0	0	0	0	0	0	0	0	0	0	0	0	0	0	0	0	0	0	0	0	0	0	0	0
071718	09:19:19	5.0.10.0	168	associated	Rpleas_acq	Oppo	Rpleas	Amasked	CS_A	2pleas	acq_unple_masked	acq45_masked	4	24	400	0	300	300	0	0	3602	50	0	0	0	0	0	1	blank2r.bmp	0	1	+	0	7	C3r.bmp	492	1	blank2r.bmp	786	1	HLST	786	1	blank2r.bmp	866	6	armee	866	1	!	1239	1	!	-1	0	0	0	0	0	0	0	0	0	0	0	0	0	0	0	0	0	0	0	0	0	0	0	0	0	0	0
071718	09:19:19	5.0.10.0	168	associated	Rpleas_acq	Oppo	Rpleas	Amasked	CS_A	2pleas	acq_pleas_masked	acq45_masked	4	25	400	1	300	300	0	0	365	50	0	1	0	0	0	1	blank2r.bmp	0	1	+	0	6	C2r.bmp	492	1	blank2r.bmp	786	1	DJMR	786	1	blank2r.bmp	866	5	frieden	866	1	!	1239	1	!	1266	0	0	0	0	0	0	0	0	0	0	0	0	0	0	0	0	0	0	0	0	0	0	0	0	0	0	0
071718	09:19:19	5.0.10.0	168	associated	Rpleas_acq	Oppo	Rpleas	Amasked	CS_A	2pleas	acq_unple_masked	acq45_masked	4	26	400	0	300	300	0	0	576	50	0	0	0	0	0	1	blank2r.bmp	0	1	+	0	7	C3r.bmp	492	1	blank2r.bmp	786	1	HLST	786	1	blank2r.bmp	866	4	gegner	866	1	!	1239	1	!	-1	0	0	0	0	0	0	0	0	0	0	0	0	0	0	0	0	0	0	0	0	0	0	0	0	0	0	0
071718	09:19:19	5.0.10.0	168	associated	Rpleas_acq	Oppo	Rpleas	Amasked	CS_A	2pleas	acq_unple_masked	acq45_masked	4	27	400	0	300	300	0	0	493	46	0	1	0	0	0	1	blank2r.bmp	0	1	+	0	8	C4r.bmp	492	1	blank2r.bmp	786	1	HLST	786	1	blank2r.bmp	866	3	wunde	866	1	!	1239	1	!	-1	0	0	0	0	0	0	0	0	0	0	0	0	0	0	0	0	0	0	0	0	0	0	0	0	0	0	0
071718	09:19:19	5.0.10.0	168	associated	Rpleas_acq	Oppo	Rpleas	Amasked	CS_A	2pleas	acq_unple_masked	acq45_masked	4	28	400	1	300	300	0	0	375	50	0	0	0	0	0	1	blank2r.bmp	0	1	+	0	4	B4r.bmp	492	1	blank2r.bmp	786	1	HLST	786	1	blank2r.bmp	866	1	narr	866	1	!	1239	1	!	1279	0	0	0	0	0	0	0	0	0	0	0	0	0	0	0	0	0	0	0	0	0	0	0	0	0	0	0
071718	09:19:19	5.0.10.0	168	associated	Rpleas_acq	Oppo	Rpleas	Amasked	CS_A	2pleas	acq_unple_masked	acq45_masked	4	29	400	1	300	300	0	0	434	46	0	1	0	0	0	1	blank2r.bmp	0	1	+	0	5	C1r.bmp	492	1	blank2r.bmp	786	1	HLST	786	1	blank2r.bmp	866	5	zwang	866	1	!	1239	1	!	1332	0	0	0	0	0	0	0	0	0	0	0	0	0	0	0	0	0	0	0	0	0	0	0	0	0	0	0
071718	09:19:19	5.0.10.0	168	associated	Rpleas_acq	Oppo	Rpleas	Amasked	CS_A	2pleas	acq_unple_masked	acq45_masked	4	30	400	0	300	300	0	0	483	50	0	0	0	0	0	1	blank2r.bmp	0	1	+	0	1	B1r.bmp	492	1	blank2r.bmp	786	1	HLST	786	1	blank2r.bmp	866	6	armee	866	1	!	1239	1	!	-1	0	0	0	0	0	0	0	0	0	0	0	0	0	0	0	0	0	0	0	0	0	0	0	0	0	0	0
071718	09:19:19	5.0.10.0	168	associated	Rpleas_acq	Oppo	Rpleas	Amasked	CS_A	2pleas	acq_pleas_masked	acq45_masked	4	31	400	0	300	300	0	0	529	50	0	1	0	0	0	1	blank2r.bmp	0	1	+	0	3	B3r.bmp	492	1	blank2r.bmp	786	1	DJMR	786	1	blank2r.bmp	866	5	frieden	866	1	!	1239	1	!	-1	0	0	0	0	0	0	0	0	0	0	0	0	0	0	0	0	0	0	0	0	0	0	0	0	0	0	0
071718	09:19:19	5.0.10.0	168	associated	Rpleas_acq	Oppo	Rpleas	Amasked	CS_A	2pleas	acq_pleas_masked	acq45_masked	4	32	400	0	300	300	0	0	533	50	0	1	0	0	0	1	blank2r.bmp	0	1	+	0	2	B2r.bmp	492	1	blank2r.bmp	786	1	DJMR	786	1	blank2r.bmp	866	2	erfinder	866	1	!	1239	1	!	-1	0	0	0	0	0	0	0	0	0	0	0	0	0	0	0	0	0	0	0	0	0	0	0	0	0	0	0
071718	09:19:19	5.0.10.0	168	associated	Rpleas_acq	Oppo	Rpleas	Amasked	CS_A	2pleas	acq_unple_masked	acq45_masked	5	1	400	0	300	300	0	0	257	50	0	0	0	0	0	1	blank2r.bmp	0	1	+	0	8	C4r.bmp	492	1	blank2r.bmp	786	1	HLST	786	1	blank2r.bmp	866	3	wunde	866	1	!	-1	1	!	-1	0	0	0	0	0	0	0	0	0	0	0	0	0	0	0	0	0	0	0	0	0	0	0	0	0	0	0
071718	09:19:19	5.0.10.0	168	associated	Rpleas_acq	Oppo	Rpleas	Amasked	CS_A	2pleas	acq_unple_masked	acq45_masked	5	2	400	0	300	300	0	0	324	46	0	1	0	0	0	1	blank2r.bmp	0	1	+	0	2	B2r.bmp	492	1	blank2r.bmp	786	1	HLST	786	1	blank2r.bmp	866	1	narr	866	1	!	-1	1	!	-1	0	0	0	0	0	0	0	0	0	0	0	0	0	0	0	0	0	0	0	0	0	0	0	0	0	0	0
071718	09:19:19	5.0.10.0	168	associated	Rpleas_acq	Oppo	Rpleas	Amasked	CS_A	2pleas	acq_unple_masked	acq45_masked	5	3	400	0	300	300	0	0	221	50	0	0	0	0	0	1	blank2r.bmp	0	1	+	0	7	C3r.bmp	492	1	blank2r.bmp	786	1	HLST	786	1	blank2r.bmp	866	2	geiz	866	1	!	-1	1	!	-1	0	0	0	0	0	0	0	0	0	0	0	0	0	0	0	0	0	0	0	0	0	0	0	0	0	0	0
071718	09:19:19	5.0.10.0	168	associated	Rpleas_acq	Oppo	Rpleas	Amasked	CS_A	2pleas	acq_pleas_masked	acq45_masked	5	4	400	0	300	300	0	0	84	46	0	0	0	0	0	1	blank2r.bmp	0	1	+	0	6	C2r.bmp	492	1	blank2r.bmp	786	1	DJMR	786	1	blank2r.bmp	866	6	meer	866	1	!	-1	1	!	-1	0	0	0	0	0	0	0	0	0	0	0	0	0	0	0	0	0	0	0	0	0	0	0	0	0	0	0
071718	09:19:19	5.0.10.0	168	associated	Rpleas_acq	Oppo	Rpleas	Amasked	CS_A	2pleas	acq_pleas_masked	acq45_masked	5	5	400	0	300	300	0	0	108	50	0	1	0	0	0	1	blank2r.bmp	0	1	+	0	4	B4r.bmp	492	1	blank2r.bmp	786	1	DJMR	786	1	blank2r.bmp	866	4	mama	866	1	!	-1	1	!	-1	0	0	0	0	0	0	0	0	0	0	0	0	0	0	0	0	0	0	0	0	0	0	0	0	0	0	0
071718	09:19:19	5.0.10.0	168	associated	Rpleas_acq	Oppo	Rpleas	Amasked	CS_A	2pleas	acq_pleas_masked	acq45_masked	5	6	400	0	300	300	0	0	129	46	0	0	0	0	0	1	blank2r.bmp	0	1	+	0	3	B3r.bmp	492	1	blank2r.bmp	786	1	DJMR	786	1	blank2r.bmp	866	1	wein	866	1	!	-1	1	!	-1	0	0	0	0	0	0	0	0	0	0	0	0	0	0	0	0	0	0	0	0	0	0	0	0	0	0	0
071718	09:19:19	5.0.10.0	168	associated	Rpleas_acq	Oppo	Rpleas	Amasked	CS_A	2pleas	acq_unple_masked	acq45_masked	5	7	400	0	300	300	0	0	250	50	0	0	0	0	0	1	blank2r.bmp	0	1	+	0	5	C1r.bmp	492	1	blank2r.bmp	786	1	HLST	786	1	blank2r.bmp	866	4	gegner	866	1	!	-1	1	!	-1	0	0	0	0	0	0	0	0	0	0	0	0	0	0	0	0	0	0	0	0	0	0	0	0	0	0	0
071718	09:19:19	5.0.10.0	168	associated	Rpleas_acq	Oppo	Rpleas	Amasked	CS_A	2pleas	acq_pleas_masked	acq45_masked	5	8	400	1	300	300	0	0	395	46	0	0	0	0	0	1	blank2r.bmp	0	1	+	0	1	B1r.bmp	492	1	blank2r.bmp	786	1	DJMR	786	1	blank2r.bmp	866	3	jugend	866	1	!	1239	1	!	1292	0	0	0	0	0	0	0	0	0	0	0	0	0	0	0	0	0	0	0	0	0	0	0	0	0	0	0
071718	09:19:19	5.0.10.0	168	associated	Rpleas_acq	Oppo	Rpleas	Amasked	CS_A	2pleas	acq_pleas_masked	acq45_masked	5	9	400	1	300	300	0	0	374	50	0	1	0	0	0	1	blank2r.bmp	0	1	+	0	8	C4r.bmp	492	1	blank2r.bmp	786	1	DJMR	786	1	blank2r.bmp	866	6	meer	866	1	!	1239	1	!	1279	0	0	0	0	0	0	0	0	0	0	0	0	0	0	0	0	0	0	0	0	0	0	0	0	0	0	0
071718	09:19:19	5.0.10.0	168	associated	Rpleas_acq	Oppo	Rpleas	Amasked	CS_A	2pleas	acq_unple_masked	acq45_masked	5	10	400	1	300	300	0	0	393	46	0	1	0	0	0	1	blank2r.bmp	0	1	+	0	4	B4r.bmp	492	1	blank2r.bmp	786	1	HLST	786	1	blank2r.bmp	866	4	gegner	866	1	!	1239	1	!	1292	0	0	0	0	0	0	0	0	0	0	0	0	0	0	0	0	0	0	0	0	0	0	0	0	0	0	0
071718	09:19:19	5.0.10.0	168	associated	Rpleas_acq	Oppo	Rpleas	Amasked	CS_A	2pleas	acq_pleas_masked	acq45_masked	5	11	400	0	300	300	0	0	488	50	0	1	0	0	0	1	blank2r.bmp	0	1	+	0	6	C2r.bmp	492	1	blank2r.bmp	786	1	DJMR	786	1	blank2r.bmp	866	1	wein	866	1	!	1239	1	!	-1	0	0	0	0	0	0	0	0	0	0	0	0	0	0	0	0	0	0	0	0	0	0	0	0	0	0	0
071718	09:19:19	5.0.10.0	168	associated	Rpleas_acq	Oppo	Rpleas	Amasked	CS_A	2pleas	acq_pleas_masked	acq45_masked	5	12	400	1	300	300	0	0	346	46	0	0	0	0	0	1	blank2r.bmp	0	1	+	0	2	B2r.bmp	492	1	blank2r.bmp	786	1	DJMR	786	1	blank2r.bmp	866	2	erfinder	866	1	!	1239	1	!	1252	0	0	0	0	0	0	0	0	0	0	0	0	0	0	0	0	0	0	0	0	0	0	0	0	0	0	0
071718	09:19:19	5.0.10.0	168	associated	Rpleas_acq	Oppo	Rpleas	Amasked	CS_A	2pleas	acq_pleas_masked	acq45_masked	5	13	400	1	300	300	0	0	404	50	0	1	0	0	0	1	blank2r.bmp	0	1	+	0	5	C1r.bmp	492	1	blank2r.bmp	786	1	DJMR	786	1	blank2r.bmp	866	3	jugend	866	1	!	1239	1	!	1306	0	0	0	0	0	0	0	0	0	0	0	0	0	0	0	0	0	0	0	0	0	0	0	0	0	0	0
071718	09:19:19	5.0.10.0	168	associated	Rpleas_acq	Oppo	Rpleas	Amasked	CS_A	2pleas	acq_unple_masked	acq45_masked	5	14	400	0	300	300	0	0	558	46	0	1	0	0	0	1	blank2r.bmp	0	1	+	0	7	C3r.bmp	492	1	blank2r.bmp	786	1	HLST	786	1	blank2r.bmp	866	6	armee	866	1	!	1239	1	!	-1	0	0	0	0	0	0	0	0	0	0	0	0	0	0	0	0	0	0	0	0	0	0	0	0	0	0	0
071718	09:19:19	5.0.10.0	168	associated	Rpleas_acq	Oppo	Rpleas	Amasked	CS_A	2pleas	acq_unple_masked	acq45_masked	5	15	400	0	300	300	0	0	564	50	0	0	0	0	0	1	blank2r.bmp	0	1	+	0	3	B3r.bmp	492	1	blank2r.bmp	786	1	HLST	786	1	blank2r.bmp	866	2	geiz	866	1	!	1239	1	!	-1	0	0	0	0	0	0	0	0	0	0	0	0	0	0	0	0	0	0	0	0	0	0	0	0	0	0	0
071718	09:19:19	5.0.10.0	168	associated	Rpleas_acq	Oppo	Rpleas	Amasked	CS_A	2pleas	acq_unple_masked	acq45_masked	5	16	400	1	300	300	0	0	406	50	0	0	0	0	0	1	blank2r.bmp	0	1	+	0	1	B1r.bmp	492	1	blank2r.bmp	786	1	HLST	786	1	blank2r.bmp	866	5	zwang	866	1	!	1239	1	!	1306	0	0	0	0	0	0	0	0	0	0	0	0	0	0	0	0	0	0	0	0	0	0	0	0	0	0	0
071718	09:19:19	5.0.10.0	168	associated	Rpleas_acq	Oppo	Rpleas	Amasked	CS_A	2pleas	acq_unple_masked	acq45_masked	5	17	400	1	300	300	0	0	389	50	0	0	0	0	0	1	blank2r.bmp	0	1	+	0	2	B2r.bmp	492	1	blank2r.bmp	786	1	HLST	786	1	blank2r.bmp	866	3	wunde	866	1	!	1239	1	!	1292	0	0	0	0	0	0	0	0	0	0	0	0	0	0	0	0	0	0	0	0	0	0	0	0	0	0	0
071718	09:19:19	5.0.10.0	168	associated	Rpleas_acq	Oppo	Rpleas	Amasked	CS_A	2pleas	acq_pleas_masked	acq45_masked	5	18	400	1	300	300	0	0	445	50	0	1	0	0	0	1	blank2r.bmp	0	1	+	0	8	C4r.bmp	492	1	blank2r.bmp	786	1	DJMR	786	1	blank2r.bmp	866	5	frieden	866	1	!	1239	1	!	1346	0	0	0	0	0	0	0	0	0	0	0	0	0	0	0	0	0	0	0	0	0	0	0	0	0	0	0
071718	09:19:19	5.0.10.0	168	associated	Rpleas_acq	Oppo	Rpleas	Amasked	CS_A	2pleas	acq_unple_masked	acq45_masked	5	19	400	0	300	300	0	0	281	46	0	1	0	0	0	1	blank2r.bmp	0	1	+	0	1	B1r.bmp	492	1	blank2r.bmp	786	1	HLST	786	1	blank2r.bmp	866	1	narr	866	1	!	-1	1	!	-1	0	0	0	0	0	0	0	0	0	0	0	0	0	0	0	0	0	0	0	0	0	0	0	0	0	0	0
071718	09:19:19	5.0.10.0	168	associated	Rpleas_acq	Oppo	Rpleas	Amasked	CS_A	2pleas	acq_pleas_masked	acq45_masked	5	20	400	0	300	300	0	0	570	50	0	1	0	0	0	1	blank2r.bmp	0	1	+	0	4	B4r.bmp	492	1	blank2r.bmp	786	1	DJMR	786	1	blank2r.bmp	866	4	mama	866	1	!	1239	1	!	-1	0	0	0	0	0	0	0	0	0	0	0	0	0	0	0	0	0	0	0	0	0	0	0	0	0	0	0
071718	09:19:19	5.0.10.0	168	associated	Rpleas_acq	Oppo	Rpleas	Amasked	CS_A	2pleas	acq_unple_masked	acq45_masked	5	21	400	0	300	300	0	0	484	50	0	0	0	0	0	1	blank2r.bmp	0	1	+	0	5	C1r.bmp	492	1	blank2r.bmp	786	1	HLST	786	1	blank2r.bmp	866	6	armee	866	1	!	1239	1	!	-1	0	0	0	0	0	0	0	0	0	0	0	0	0	0	0	0	0	0	0	0	0	0	0	0	0	0	0
071718	09:19:19	5.0.10.0	168	associated	Rpleas_acq	Oppo	Rpleas	Amasked	CS_A	2pleas	acq_pleas_masked	acq45_masked	5	22	400	0	300	300	0	0	538	50	0	1	0	0	0	1	blank2r.bmp	0	1	+	0	3	B3r.bmp	492	1	blank2r.bmp	786	1	DJMR	786	1	blank2r.bmp	866	3	jugend	866	1	!	1239	1	!	-1	0	0	0	0	0	0	0	0	0	0	0	0	0	0	0	0	0	0	0	0	0	0	0	0	0	0	0
071718	09:19:19	5.0.10.0	168	associated	Rpleas_acq	Oppo	Rpleas	Amasked	CS_A	2pleas	acq_unple_masked	acq45_masked	5	23	400	0	300	300	0	0	882	46	0	1	0	0	0	1	blank2r.bmp	0	1	+	0	7	C3r.bmp	492	1	blank2r.bmp	786	1	HLST	786	1	blank2r.bmp	866	3	wunde	866	1	!	1239	1	!	-1	0	0	0	0	0	0	0	0	0	0	0	0	0	0	0	0	0	0	0	0	0	0	0	0	0	0	0
071718	09:19:19	5.0.10.0	168	associated	Rpleas_acq	Oppo	Rpleas	Amasked	CS_A	2pleas	acq_unple_masked	acq45_masked	5	24	400	0	300	300	0	0	163	50	0	0	0	0	0	1	blank2r.bmp	0	1	+	0	6	C2r.bmp	492	1	blank2r.bmp	786	1	HLST	786	1	blank2r.bmp	866	1	narr	866	1	!	-1	1	!	-1	0	0	0	0	0	0	0	0	0	0	0	0	0	0	0	0	0	0	0	0	0	0	0	0	0	0	0
071718	09:19:19	5.0.10.0	168	associated	Rpleas_acq	Oppo	Rpleas	Amasked	CS_A	2pleas	acq_pleas_masked	acq45_masked	5	25	400	0	300	300	0	0	177	50	0	1	0	0	0	1	blank2r.bmp	0	1	+	0	1	B1r.bmp	492	1	blank2r.bmp	786	1	DJMR	786	1	blank2r.bmp	866	4	mama	866	1	!	-1	1	!	-1	0	0	0	0	0	0	0	0	0	0	0	0	0	0	0	0	0	0	0	0	0	0	0	0	0	0	0
071718	09:19:19	5.0.10.0	168	associated	Rpleas_acq	Oppo	Rpleas	Amasked	CS_A	2pleas	acq_pleas_masked	acq45_masked	5	26	400	0	300	300	0	0	561	46	0	0	0	0	0	1	blank2r.bmp	0	1	+	0	5	C1r.bmp	492	1	blank2r.bmp	786	1	DJMR	786	1	blank2r.bmp	866	5	frieden	866	1	!	1239	1	!	-1	0	0	0	0	0	0	0	0	0	0	0	0	0	0	0	0	0	0	0	0	0	0	0	0	0	0	0
071718	09:19:19	5.0.10.0	168	associated	Rpleas_acq	Oppo	Rpleas	Amasked	CS_A	2pleas	acq_unple_masked	acq45_masked	5	27	400	0	300	300	0	0	501	50	0	0	0	0	0	1	blank2r.bmp	0	1	+	0	6	C2r.bmp	492	1	blank2r.bmp	786	1	HLST	786	1	blank2r.bmp	866	5	zwang	866	1	!	1239	1	!	-1	0	0	0	0	0	0	0	0	0	0	0	0	0	0	0	0	0	0	0	0	0	0	0	0	0	0	0
071718	09:19:19	5.0.10.0	168	associated	Rpleas_acq	Oppo	Rpleas	Amasked	CS_A	2pleas	acq_pleas_masked	acq45_masked	5	28	400	0	300	300	0	0	272	46	0	0	0	0	0	1	blank2r.bmp	0	1	+	0	7	C3r.bmp	492	1	blank2r.bmp	786	1	DJMR	786	1	blank2r.bmp	866	2	erfinder	866	1	!	-1	1	!	-1	0	0	0	0	0	0	0	0	0	0	0	0	0	0	0	0	0	0	0	0	0	0	0	0	0	0	0
071718	09:19:19	5.0.10.0	168	associated	Rpleas_acq	Oppo	Rpleas	Amasked	CS_A	2pleas	acq_unple_masked	acq45_masked	5	29	400	1	300	300	0	0	396	50	0	0	0	0	0	1	blank2r.bmp	0	1	+	0	4	B4r.bmp	492	1	blank2r.bmp	786	1	HLST	786	1	blank2r.bmp	866	4	gegner	866	1	!	1239	1	!	1292	0	0	0	0	0	0	0	0	0	0	0	0	0	0	0	0	0	0	0	0	0	0	0	0	0	0	0
071718	09:19:19	5.0.10.0	168	associated	Rpleas_acq	Oppo	Rpleas	Amasked	CS_A	2pleas	acq_pleas_masked	acq45_masked	5	30	400	0	300	300	0	0	874	46	0	0	0	0	0	1	blank2r.bmp	0	1	+	0	2	B2r.bmp	492	1	blank2r.bmp	786	1	DJMR	786	1	blank2r.bmp	866	1	wein	866	1	!	1239	1	!	-1	0	0	0	0	0	0	0	0	0	0	0	0	0	0	0	0	0	0	0	0	0	0	0	0	0	0	0
071718	09:19:19	5.0.10.0	168	associated	Rpleas_acq	Oppo	Rpleas	Amasked	CS_A	2pleas	acq_unple_masked	acq45_masked	5	31	400	1	300	300	0	0	455	50	0	0	0	0	0	1	blank2r.bmp	0	1	+	0	8	C4r.bmp	492	1	blank2r.bmp	786	1	HLST	786	1	blank2r.bmp	866	2	geiz	866	1	!	1239	1	!	1359	0	0	0	0	0	0	0	0	0	0	0	0	0	0	0	0	0	0	0	0	0	0	0	0	0	0	0
071718	09:19:19	5.0.10.0	168	associated	Rpleas_acq	Oppo	Rpleas	Amasked	CS_A	2pleas	acq_pleas_masked	acq45_masked	5	32	400	0	300	300	0	0	498	50	0	1	0	0	0	1	blank2r.bmp	0	1	+	0	3	B3r.bmp	492	1	blank2r.bmp	786	1	DJMR	786	1	blank2r.bmp	866	6	meer	866	1	!	1239	1	!	-1	0	0	0	0	0	0	0	0	0	0	0	0	0	0	0	0	0	0	0	0	0	0	0	0	0	0	0
071718	09:19:19	5.0.10.0	168	associated	Rpleas_acq	Oppo	Lpleas	Amasked	CS_A	2pleas	AMP_CSpleas	AMP1	6	1	0	0	300	300	0	0	2346	50	0	0	0	0	0	1	blank2r.bmp	0	1	DJMR	0	1	blank2r.bmp	79	7	pic7.bmp	79	1	whitenoise.bmp	186	0	0	0	0	0	0	0	0	0	0	0	0	0	0	0	0	0	0	0	0	0	0	0	0	0	0	0	0	0	0	0	0	0	0	0	0	0	0	0
071718	09:19:19	5.0.10.0	168	associated	Rpleas_acq	Oppo	Lpleas	Amasked	CS_A	2pleas	AMP_CSunple	AMP1	6	2	0	0	300	300	0	0	541	50	0	1	0	0	0	1	blank2r.bmp	0	1	HLST	0	1	blank2r.bmp	79	83	pic83.bmp	79	1	whitenoise.bmp	186	0	0	0	0	0	0	0	0	0	0	0	0	0	0	0	0	0	0	0	0	0	0	0	0	0	0	0	0	0	0	0	0	0	0	0	0	0	0	0
071718	09:19:19	5.0.10.0	168	associated	Rpleas_acq	Oppo	Lpleas	Amasked	CS_A	2pleas	AMP_CSpleas	AMP1	6	3	0	0	300	300	0	0	197	50	0	0	0	0	0	1	blank2r.bmp	0	1	DJMR	0	1	blank2r.bmp	79	39	pic39.bmp	79	1	whitenoise.bmp	186	0	0	0	0	0	0	0	0	0	0	0	0	0	0	0	0	0	0	0	0	0	0	0	0	0	0	0	0	0	0	0	0	0	0	0	0	0	0	0
071718	09:19:19	5.0.10.0	168	associated	Rpleas_acq	Oppo	Lpleas	Amasked	CS_A	2pleas	AMP_CSunple	AMP1	6	4	0	0	300	300	0	0	361	50	0	1	0	0	0	1	blank2r.bmp	0	1	HLST	0	1	blank2r.bmp	79	36	pic36.bmp	79	1	whitenoise.bmp	186	0	0	0	0	0	0	0	0	0	0	0	0	0	0	0	0	0	0	0	0	0	0	0	0	0	0	0	0	0	0	0	0	0	0	0	0	0	0	0
071718	09:19:19	5.0.10.0	168	associated	Rpleas_acq	Oppo	Lpleas	Amasked	CS_A	2pleas	AMP_CSpleas	AMP1	6	5	0	0	300	300	0	0	87	46	0	1	0	0	0	1	blank2r.bmp	0	1	DJMR	0	1	blank2r.bmp	79	30	pic30.bmp	79	1	whitenoise.bmp	186	0	0	0	0	0	0	0	0	0	0	0	0	0	0	0	0	0	0	0	0	0	0	0	0	0	0	0	0	0	0	0	0	0	0	0	0	0	0	0
071718	09:19:19	5.0.10.0	168	associated	Rpleas_acq	Oppo	Lpleas	Amasked	CS_A	2pleas	AMP_CSpleas	AMP1	6	6	0	0	300	300	0	0	141	50	0	0	0	0	0	1	blank2r.bmp	0	1	DJMR	0	1	blank2r.bmp	79	58	pic58.bmp	79	1	whitenoise.bmp	186	0	0	0	0	0	0	0	0	0	0	0	0	0	0	0	0	0	0	0	0	0	0	0	0	0	0	0	0	0	0	0	0	0	0	0	0	0	0	0
071718	09:19:19	5.0.10.0	168	associated	Rpleas_acq	Oppo	Lpleas	Amasked	CS_A	2pleas	AMP_CSunple	AMP1	6	7	0	0	300	300	0	0	121	50	0	1	0	0	0	1	blank2r.bmp	0	1	HLST	0	1	blank2r.bmp	79	38	pic38.bmp	79	1	whitenoise.bmp	186	0	0	0	0	0	0	0	0	0	0	0	0	0	0	0	0	0	0	0	0	0	0	0	0	0	0	0	0	0	0	0	0	0	0	0	0	0	0	0
071718	09:19:19	5.0.10.0	168	associated	Rpleas_acq	Oppo	Lpleas	Amasked	CS_A	2pleas	AMP_CSpleas	AMP1	6	8	0	0	300	300	0	0	1188	50	0	0	0	0	0	1	blank2r.bmp	0	1	DJMR	0	1	blank2r.bmp	79	48	pic48.bmp	79	1	whitenoise.bmp	186	0	0	0	0	0	0	0	0	0	0	0	0	0	0	0	0	0	0	0	0	0	0	0	0	0	0	0	0	0	0	0	0	0	0	0	0	0	0	0
071718	09:19:19	5.0.10.0	168	associated	Rpleas_acq	Oppo	Lpleas	Amasked	CS_A	2pleas	AMP_CSunple	AMP1	6	9	0	0	300	300	0	0	322	50	0	1	0	0	0	1	blank2r.bmp	0	1	HLST	0	1	blank2r.bmp	79	81	pic81.bmp	79	1	whitenoise.bmp	186	0	0	0	0	0	0	0	0	0	0	0	0	0	0	0	0	0	0	0	0	0	0	0	0	0	0	0	0	0	0	0	0	0	0	0	0	0	0	0
071718	09:19:19	5.0.10.0	168	associated	Rpleas_acq	Oppo	Lpleas	Amasked	CS_A	2pleas	AMP_CSunple	AMP1	6	10	0	0	300	300	0	0	421	46	0	0	0	0	0	1	blank2r.bmp	0	1	HLST	0	1	blank2r.bmp	79	34	pic34.bmp	79	1	whitenoise.bmp	186	0	0	0	0	0	0	0	0	0	0	0	0	0	0	0	0	0	0	0	0	0	0	0	0	0	0	0	0	0	0	0	0	0	0	0	0	0	0	0
071718	09:19:19	5.0.10.0	168	associated	Rpleas_acq	Oppo	Lpleas	Amasked	CS_A	2pleas	AMP_CSpleas	AMP1	6	11	0	0	300	300	0	0	247	50	0	0	0	0	0	1	blank2r.bmp	0	1	DJMR	0	1	blank2r.bmp	79	77	pic77.bmp	79	1	whitenoise.bmp	186	0	0	0	0	0	0	0	0	0	0	0	0	0	0	0	0	0	0	0	0	0	0	0	0	0	0	0	0	0	0	0	0	0	0	0	0	0	0	0
071718	09:19:19	5.0.10.0	168	associated	Rpleas_acq	Oppo	Lpleas	Amasked	CS_A	2pleas	AMP_CSunple	AMP1	6	12	0	0	300	300	0	0	398	50	0	1	0	0	0	1	blank2r.bmp	0	1	HLST	0	1	blank2r.bmp	79	50	pic50.bmp	79	1	whitenoise.bmp	186	0	0	0	0	0	0	0	0	0	0	0	0	0	0	0	0	0	0	0	0	0	0	0	0	0	0	0	0	0	0	0	0	0	0	0	0	0	0	0
071718	09:19:19	5.0.10.0	168	associated	Rpleas_acq	Oppo	Lpleas	Amasked	CS_A	2pleas	AMP_CSpleas	AMP1	6	13	0	0	300	300	0	0	250	46	0	1	0	0	0	1	blank2r.bmp	0	1	DJMR	0	1	blank2r.bmp	79	61	pic61.bmp	79	1	whitenoise.bmp	186	0	0	0	0	0	0	0	0	0	0	0	0	0	0	0	0	0	0	0	0	0	0	0	0	0	0	0	0	0	0	0	0	0	0	0	0	0	0	0
071718	09:19:19	5.0.10.0	168	associated	Rpleas_acq	Oppo	Lpleas	Amasked	CS_A	2pleas	AMP_CSpleas	AMP1	6	14	0	0	300	300	0	0	382	50	0	0	0	0	0	1	blank2r.bmp	0	1	DJMR	0	1	blank2r.bmp	79	94	pic94.bmp	79	1	whitenoise.bmp	186	0	0	0	0	0	0	0	0	0	0	0	0	0	0	0	0	0	0	0	0	0	0	0	0	0	0	0	0	0	0	0	0	0	0	0	0	0	0	0
071718	09:19:19	5.0.10.0	168	associated	Rpleas_acq	Oppo	Lpleas	Amasked	CS_A	2pleas	AMP_CSunple	AMP1	6	15	0	0	300	300	0	0	393	46	0	0	0	0	0	1	blank2r.bmp	0	1	HLST	0	1	blank2r.bmp	79	67	pic67.bmp	79	1	whitenoise.bmp	186	0	0	0	0	0	0	0	0	0	0	0	0	0	0	0	0	0	0	0	0	0	0	0	0	0	0	0	0	0	0	0	0	0	0	0	0	0	0	0
071718	09:19:19	5.0.10.0	168	associated	Rpleas_acq	Oppo	Lpleas	Amasked	CS_A	2pleas	AMP_CSunple	AMP1	6	16	0	0	300	300	0	0	352	50	0	1	0	0	0	1	blank2r.bmp	0	1	HLST	0	1	blank2r.bmp	79	16	pic16.bmp	79	1	whitenoise.bmp	186	0	0	0	0	0	0	0	0	0	0	0	0	0	0	0	0	0	0	0	0	0	0	0	0	0	0	0	0	0	0	0	0	0	0	0	0	0	0	0
071718	09:19:19	5.0.10.0	168	associated	Rpleas_acq	Oppo	Lpleas	Amasked	CS_A	2pleas	AMP_CSunple	AMP1	6	17	0	0	300	300	0	0	1229	50	0	1	0	0	0	1	blank2r.bmp	0	1	HLST	0	1	blank2r.bmp	79	57	pic57.bmp	79	1	whitenoise.bmp	186	0	0	0	0	0	0	0	0	0	0	0	0	0	0	0	0	0	0	0	0	0	0	0	0	0	0	0	0	0	0	0	0	0	0	0	0	0	0	0
071718	09:19:19	5.0.10.0	168	associated	Rpleas_acq	Oppo	Lpleas	Amasked	CS_A	2pleas	AMP_CSpleas	AMP1	6	18	0	0	300	300	0	0	553	46	0	1	0	0	0	1	blank2r.bmp	0	1	DJMR	0	1	blank2r.bmp	79	86	pic86.bmp	79	1	whitenoise.bmp	186	0	0	0	0	0	0	0	0	0	0	0	0	0	0	0	0	0	0	0	0	0	0	0	0	0	0	0	0	0	0	0	0	0	0	0	0	0	0	0
071718	09:19:19	5.0.10.0	168	associated	Rpleas_acq	Oppo	Lpleas	Amasked	CS_A	2pleas	AMP_CSpleas	AMP1	6	19	0	0	300	300	0	0	447	50	0	0	0	0	0	1	blank2r.bmp	0	1	DJMR	0	1	blank2r.bmp	79	63	pic63.bmp	79	1	whitenoise.bmp	186	0	0	0	0	0	0	0	0	0	0	0	0	0	0	0	0	0	0	0	0	0	0	0	0	0	0	0	0	0	0	0	0	0	0	0	0	0	0	0
071718	09:19:19	5.0.10.0	168	associated	Rpleas_acq	Oppo	Lpleas	Amasked	CS_A	2pleas	AMP_CSpleas	AMP1	6	20	0	0	300	300	0	0	446	50	0	0	0	0	0	1	blank2r.bmp	0	1	DJMR	0	1	blank2r.bmp	79	89	pic89.bmp	79	1	whitenoise.bmp	186	0	0	0	0	0	0	0	0	0	0	0	0	0	0	0	0	0	0	0	0	0	0	0	0	0	0	0	0	0	0	0	0	0	0	0	0	0	0	0
071718	09:19:19	5.0.10.0	168	associated	Rpleas_acq	Oppo	Lpleas	Amasked	CS_A	2pleas	AMP_CSunple	AMP1	6	21	0	0	300	300	0	0	300	46	0	0	0	0	0	1	blank2r.bmp	0	1	HLST	0	1	blank2r.bmp	79	98	pic98.bmp	79	1	whitenoise.bmp	186	0	0	0	0	0	0	0	0	0	0	0	0	0	0	0	0	0	0	0	0	0	0	0	0	0	0	0	0	0	0	0	0	0	0	0	0	0	0	0
071718	09:19:19	5.0.10.0	168	associated	Rpleas_acq	Oppo	Lpleas	Amasked	CS_A	2pleas	AMP_CSunple	AMP1	6	22	0	0	300	300	0	0	452	50	0	1	0	0	0	1	blank2r.bmp	0	1	HLST	0	1	blank2r.bmp	79	28	pic28.bmp	79	1	whitenoise.bmp	186	0	0	0	0	0	0	0	0	0	0	0	0	0	0	0	0	0	0	0	0	0	0	0	0	0	0	0	0	0	0	0	0	0	0	0	0	0	0	0
071718	09:19:19	5.0.10.0	168	associated	Rpleas_acq	Oppo	Lpleas	Amasked	CS_A	2pleas	AMP_CSunple	AMP1	6	23	0	0	300	300	0	0	539	50	0	1	0	0	0	1	blank2r.bmp	0	1	HLST	0	1	blank2r.bmp	79	87	pic87.bmp	79	1	whitenoise.bmp	186	0	0	0	0	0	0	0	0	0	0	0	0	0	0	0	0	0	0	0	0	0	0	0	0	0	0	0	0	0	0	0	0	0	0	0	0	0	0	0
071718	09:19:19	5.0.10.0	168	associated	Rpleas_acq	Oppo	Lpleas	Amasked	CS_A	2pleas	AMP_CSunple	AMP1	6	24	0	0	300	300	0	0	460	46	0	0	0	0	0	1	blank2r.bmp	0	1	HLST	0	1	blank2r.bmp	79	37	pic37.bmp	79	1	whitenoise.bmp	186	0	0	0	0	0	0	0	0	0	0	0	0	0	0	0	0	0	0	0	0	0	0	0	0	0	0	0	0	0	0	0	0	0	0	0	0	0	0	0
071718	09:19:19	5.0.10.0	168	associated	Rpleas_acq	Oppo	Lpleas	Amasked	CS_A	2pleas	AMP_CSunple	AMP1	6	25	0	0	300	300	0	0	230	50	0	1	0	0	0	1	blank2r.bmp	0	1	HLST	0	1	blank2r.bmp	79	79	pic79.bmp	79	1	whitenoise.bmp	186	0	0	0	0	0	0	0	0	0	0	0	0	0	0	0	0	0	0	0	0	0	0	0	0	0	0	0	0	0	0	0	0	0	0	0	0	0	0	0
071718	09:19:19	5.0.10.0	168	associated	Rpleas_acq	Oppo	Lpleas	Amasked	CS_A	2pleas	AMP_CSpleas	AMP1	6	26	0	0	300	300	0	0	121	50	0	0	0	0	0	1	blank2r.bmp	0	1	DJMR	0	1	blank2r.bmp	79	15	pic15.bmp	79	1	whitenoise.bmp	186	0	0	0	0	0	0	0	0	0	0	0	0	0	0	0	0	0	0	0	0	0	0	0	0	0	0	0	0	0	0	0	0	0	0	0	0	0	0	0
071718	09:19:19	5.0.10.0	168	associated	Rpleas_acq	Oppo	Lpleas	Amasked	CS_A	2pleas	AMP_CSpleas	AMP1	6	27	0	0	300	300	0	0	120	46	0	1	0	0	0	1	blank2r.bmp	0	1	DJMR	0	1	blank2r.bmp	79	59	pic59.bmp	79	1	whitenoise.bmp	186	0	0	0	0	0	0	0	0	0	0	0	0	0	0	0	0	0	0	0	0	0	0	0	0	0	0	0	0	0	0	0	0	0	0	0	0	0	0	0
071718	09:19:19	5.0.10.0	168	associated	Rpleas_acq	Oppo	Lpleas	Amasked	CS_A	2pleas	AMP_CSpleas	AMP1	6	28	0	0	300	300	0	0	70	50	0	0	0	0	0	1	blank2r.bmp	0	1	DJMR	0	1	blank2r.bmp	79	100	pic100.bmp	79	1	whitenoise.bmp	186	0	0	0	0	0	0	0	0	0	0	0	0	0	0	0	0	0	0	0	0	0	0	0	0	0	0	0	0	0	0	0	0	0	0	0	0	0	0	0
071718	09:19:19	5.0.10.0	168	associated	Rpleas_acq	Oppo	Lpleas	Amasked	CS_A	2pleas	AMP_CSpleas	AMP1	6	29	0	0	300	300	0	0	123	46	0	1	0	0	0	1	blank2r.bmp	0	1	DJMR	0	1	blank2r.bmp	79	31	pic31.bmp	79	1	whitenoise.bmp	186	0	0	0	0	0	0	0	0	0	0	0	0	0	0	0	0	0	0	0	0	0	0	0	0	0	0	0	0	0	0	0	0	0	0	0	0	0	0	0
071718	09:19:19	5.0.10.0	168	associated	Rpleas_acq	Oppo	Lpleas	Amasked	CS_A	2pleas	AMP_CSpleas	AMP1	6	30	0	0	300	300	0	0	88	50	0	0	0	0	0	1	blank2r.bmp	0	1	DJMR	0	1	blank2r.bmp	79	76	pic76.bmp	79	1	whitenoise.bmp	186	0	0	0	0	0	0	0	0	0	0	0	0	0	0	0	0	0	0	0	0	0	0	0	0	0	0	0	0	0	0	0	0	0	0	0	0	0	0	0
071718	09:19:19	5.0.10.0	168	associated	Rpleas_acq	Oppo	Lpleas	Amasked	CS_A	2pleas	AMP_CSunple	AMP1	6	31	0	0	300	300	0	0	132	46	0	0	0	0	0	1	blank2r.bmp	0	1	HLST	0	1	blank2r.bmp	79	93	pic93.bmp	79	1	whitenoise.bmp	186	0	0	0	0	0	0	0	0	0	0	0	0	0	0	0	0	0	0	0	0	0	0	0	0	0	0	0	0	0	0	0	0	0	0	0	0	0	0	0
071718	09:19:19	5.0.10.0	168	associated	Rpleas_acq	Oppo	Lpleas	Amasked	CS_A	2pleas	AMP_CSunple	AMP1	6	32	0	0	300	300	0	0	162	50	0	1	0	0	0	1	blank2r.bmp	0	1	HLST	0	1	blank2r.bmp	79	4	pic4.bmp	79	1	whitenoise.bmp	186	0	0	0	0	0	0	0	0	0	0	0	0	0	0	0	0	0	0	0	0	0	0	0	0	0	0	0	0	0	0	0	0	0	0	0	0	0	0	0
071718	09:19:19	5.0.10.0	168	associated	Rpleas_acq	Oppo	Lpleas	Amasked	CS_A	2pleas	AMP_CSpleas	AMP1	6	33	0	0	300	300	0	0	191	46	0	1	0	0	0	1	blank2r.bmp	0	1	DJMR	0	1	blank2r.bmp	79	68	pic68.bmp	79	1	whitenoise.bmp	186	0	0	0	0	0	0	0	0	0	0	0	0	0	0	0	0	0	0	0	0	0	0	0	0	0	0	0	0	0	0	0	0	0	0	0	0	0	0	0
071718	09:19:19	5.0.10.0	168	associated	Rpleas_acq	Oppo	Lpleas	Amasked	CS_A	2pleas	AMP_CSpleas	AMP1	6	34	0	0	300	300	0	0	163	50	0	0	0	0	0	1	blank2r.bmp	0	1	DJMR	0	1	blank2r.bmp	79	92	pic92.bmp	79	1	whitenoise.bmp	186	0	0	0	0	0	0	0	0	0	0	0	0	0	0	0	0	0	0	0	0	0	0	0	0	0	0	0	0	0	0	0	0	0	0	0	0	0	0	0
071718	09:19:19	5.0.10.0	168	associated	Rpleas_acq	Oppo	Lpleas	Amasked	CS_A	2pleas	AMP_CSpleas	AMP1	6	35	0	0	300	300	0	0	86	46	0	1	0	0	0	1	blank2r.bmp	0	1	DJMR	0	1	blank2r.bmp	79	49	pic49.bmp	79	1	whitenoise.bmp	186	0	0	0	0	0	0	0	0	0	0	0	0	0	0	0	0	0	0	0	0	0	0	0	0	0	0	0	0	0	0	0	0	0	0	0	0	0	0	0
071718	09:19:19	5.0.10.0	168	associated	Rpleas_acq	Oppo	Lpleas	Amasked	CS_A	2pleas	AMP_CSpleas	AMP1	6	36	0	0	300	300	0	0	118	50	0	0	0	0	0	1	blank2r.bmp	0	1	DJMR	0	1	blank2r.bmp	79	24	pic24.bmp	79	1	whitenoise.bmp	186	0	0	0	0	0	0	0	0	0	0	0	0	0	0	0	0	0	0	0	0	0	0	0	0	0	0	0	0	0	0	0	0	0	0	0	0	0	0	0
071718	09:19:19	5.0.10.0	168	associated	Rpleas_acq	Oppo	Lpleas	Amasked	CS_A	2pleas	AMP_CSpleas	AMP1	6	37	0	0	300	300	0	0	117	50	0	0	0	0	0	1	blank2r.bmp	0	1	DJMR	0	1	blank2r.bmp	79	90	pic90.bmp	79	1	whitenoise.bmp	186	0	0	0	0	0	0	0	0	0	0	0	0	0	0	0	0	0	0	0	0	0	0	0	0	0	0	0	0	0	0	0	0	0	0	0	0	0	0	0
071718	09:19:19	5.0.10.0	168	associated	Rpleas_acq	Oppo	Lpleas	Amasked	CS_A	2pleas	AMP_CSpleas	AMP1	6	38	0	0	300	300	0	0	53	50	0	0	0	0	0	1	blank2r.bmp	0	1	DJMR	0	1	blank2r.bmp	79	23	pic23.bmp	79	1	whitenoise.bmp	186	0	0	0	0	0	0	0	0	0	0	0	0	0	0	0	0	0	0	0	0	0	0	0	0	0	0	0	0	0	0	0	0	0	0	0	0	0	0	0
071718	09:19:19	5.0.10.0	168	associated	Rpleas_acq	Oppo	Lpleas	Amasked	CS_A	2pleas	AMP_CSpleas	AMP1	6	39	0	0	300	300	0	0	70	50	0	0	0	0	0	1	blank2r.bmp	0	1	DJMR	0	1	blank2r.bmp	79	62	pic62.bmp	79	1	whitenoise.bmp	186	0	0	0	0	0	0	0	0	0	0	0	0	0	0	0	0	0	0	0	0	0	0	0	0	0	0	0	0	0	0	0	0	0	0	0	0	0	0	0
071718	09:19:19	5.0.10.0	168	associated	Rpleas_acq	Oppo	Lpleas	Amasked	CS_A	2pleas	AMP_CSpleas	AMP1	6	40	0	0	300	300	0	0	73	50	0	0	0	0	0	1	blank2r.bmp	0	1	DJMR	0	1	blank2r.bmp	79	8	pic8.bmp	79	1	whitenoise.bmp	186	0	0	0	0	0	0	0	0	0	0	0	0	0	0	0	0	0	0	0	0	0	0	0	0	0	0	0	0	0	0	0	0	0	0	0	0	0	0	0
071718	09:19:19	5.0.10.0	168	associated	Rpleas_acq	Oppo	Lpleas	Amasked	CS_A	2pleas	AMP_CSunple	AMP1	6	41	0	0	300	300	0	0	2381	50	0	1	0	0	0	1	blank2r.bmp	0	1	HLST	0	1	blank2r.bmp	79	66	pic66.bmp	79	1	whitenoise.bmp	186	0	0	0	0	0	0	0	0	0	0	0	0	0	0	0	0	0	0	0	0	0	0	0	0	0	0	0	0	0	0	0	0	0	0	0	0	0	0	0
071718	09:19:19	5.0.10.0	168	associated	Rpleas_acq	Oppo	Lpleas	Amasked	CS_A	2pleas	AMP_CSunple	AMP1	6	42	0	0	300	300	0	0	301	50	0	1	0	0	0	1	blank2r.bmp	0	1	HLST	0	1	blank2r.bmp	79	12	pic12.bmp	79	1	whitenoise.bmp	186	0	0	0	0	0	0	0	0	0	0	0	0	0	0	0	0	0	0	0	0	0	0	0	0	0	0	0	0	0	0	0	0	0	0	0	0	0	0	0
071718	09:19:19	5.0.10.0	168	associated	Rpleas_acq	Oppo	Lpleas	Amasked	CS_A	2pleas	AMP_CSunple	AMP1	6	43	0	0	300	300	0	0	141	50	0	1	0	0	0	1	blank2r.bmp	0	1	HLST	0	1	blank2r.bmp	79	29	pic29.bmp	79	1	whitenoise.bmp	186	0	0	0	0	0	0	0	0	0	0	0	0	0	0	0	0	0	0	0	0	0	0	0	0	0	0	0	0	0	0	0	0	0	0	0	0	0	0	0
071718	09:19:19	5.0.10.0	168	associated	Rpleas_acq	Oppo	Lpleas	Amasked	CS_A	2pleas	AMP_CSpleas	AMP1	6	44	0	0	300	300	0	0	469	46	0	1	0	0	0	1	blank2r.bmp	0	1	DJMR	0	1	blank2r.bmp	79	72	pic72.bmp	79	1	whitenoise.bmp	186	0	0	0	0	0	0	0	0	0	0	0	0	0	0	0	0	0	0	0	0	0	0	0	0	0	0	0	0	0	0	0	0	0	0	0	0	0	0	0
071718	09:19:19	5.0.10.0	168	associated	Rpleas_acq	Oppo	Lpleas	Amasked	CS_A	2pleas	AMP_CSunple	AMP1	6	45	0	0	300	300	0	0	262	50	0	1	0	0	0	1	blank2r.bmp	0	1	HLST	0	1	blank2r.bmp	79	32	pic32.bmp	79	1	whitenoise.bmp	186	0	0	0	0	0	0	0	0	0	0	0	0	0	0	0	0	0	0	0	0	0	0	0	0	0	0	0	0	0	0	0	0	0	0	0	0	0	0	0
071718	09:19:19	5.0.10.0	168	associated	Rpleas_acq	Oppo	Lpleas	Amasked	CS_A	2pleas	AMP_CSunple	AMP1	6	46	0	0	300	300	0	0	214	50	0	1	0	0	0	1	blank2r.bmp	0	1	HLST	0	1	blank2r.bmp	79	64	pic64.bmp	79	1	whitenoise.bmp	186	0	0	0	0	0	0	0	0	0	0	0	0	0	0	0	0	0	0	0	0	0	0	0	0	0	0	0	0	0	0	0	0	0	0	0	0	0	0	0
071718	09:19:19	5.0.10.0	168	associated	Rpleas_acq	Oppo	Lpleas	Amasked	CS_A	2pleas	AMP_CSunple	AMP1	6	47	0	0	300	300	0	0	130	50	0	1	0	0	0	1	blank2r.bmp	0	1	HLST	0	1	blank2r.bmp	79	19	pic19.bmp	79	1	whitenoise.bmp	186	0	0	0	0	0	0	0	0	0	0	0	0	0	0	0	0	0	0	0	0	0	0	0	0	0	0	0	0	0	0	0	0	0	0	0	0	0	0	0
071718	09:19:19	5.0.10.0	168	associated	Rpleas_acq	Oppo	Lpleas	Amasked	CS_A	2pleas	AMP_CSunple	AMP1	6	48	0	0	300	300	0	0	71	46	0	0	0	0	0	1	blank2r.bmp	0	1	HLST	0	1	blank2r.bmp	79	26	pic26.bmp	79	1	whitenoise.bmp	186	0	0	0	0	0	0	0	0	0	0	0	0	0	0	0	0	0	0	0	0	0	0	0	0	0	0	0	0	0	0	0	0	0	0	0	0	0	0	0
071718	09:19:19	5.0.10.0	168	associated	Rpleas_acq	Oppo	Lpleas	Amasked	CS_A	2pleas	AMP_CSunple	AMP1	6	49	0	0	300	300	0	0	93	50	0	1	0	0	0	1	blank2r.bmp	0	1	HLST	0	1	blank2r.bmp	79	5	pic5.bmp	79	1	whitenoise.bmp	186	0	0	0	0	0	0	0	0	0	0	0	0	0	0	0	0	0	0	0	0	0	0	0	0	0	0	0	0	0	0	0	0	0	0	0	0	0	0	0
071718	09:19:19	5.0.10.0	168	associated	Rpleas_acq	Oppo	Lpleas	Amasked	CS_A	2pleas	AMP_CSunple	AMP1	6	50	0	0	300	300	0	0	79	46	0	0	0	0	0	1	blank2r.bmp	0	1	HLST	0	1	blank2r.bmp	79	99	pic99.bmp	79	1	whitenoise.bmp	186	0	0	0	0	0	0	0	0	0	0	0	0	0	0	0	0	0	0	0	0	0	0	0	0	0	0	0	0	0	0	0	0	0	0	0	0	0	0	0
071718	09:19:19	5.0.10.0	168	associated	Rpleas_acq	Oppo	Lpleas	Amasked	CS_A	2pleas	AMP_CSpleas	AMP2	7	1	0	0	300	300	0	0	893	50	0	0	0	0	0	1	blank2r.bmp	0	1	DJMR	0	1	blank2r.bmp	79	20	pic20.bmp	79	1	whitenoise.bmp	186	0	0	0	0	0	0	0	0	0	0	0	0	0	0	0	0	0	0	0	0	0	0	0	0	0	0	0	0	0	0	0	0	0	0	0	0	0	0	0
071718	09:19:19	5.0.10.0	168	associated	Rpleas_acq	Oppo	Lpleas	Amasked	CS_A	2pleas	AMP_CSunple	AMP2	7	2	0	0	300	300	0	0	281	50	0	1	0	0	0	1	blank2r.bmp	0	1	HLST	0	1	blank2r.bmp	79	3	pic3.bmp	79	1	whitenoise.bmp	186	0	0	0	0	0	0	0	0	0	0	0	0	0	0	0	0	0	0	0	0	0	0	0	0	0	0	0	0	0	0	0	0	0	0	0	0	0	0	0
071718	09:19:19	5.0.10.0	168	associated	Rpleas_acq	Oppo	Lpleas	Amasked	CS_A	2pleas	AMP_CSunple	AMP2	7	3	0	0	300	300	0	0	251	50	0	1	0	0	0	1	blank2r.bmp	0	1	HLST	0	1	blank2r.bmp	79	74	pic74.bmp	79	1	whitenoise.bmp	186	0	0	0	0	0	0	0	0	0	0	0	0	0	0	0	0	0	0	0	0	0	0	0	0	0	0	0	0	0	0	0	0	0	0	0	0	0	0	0
071718	09:19:19	5.0.10.0	168	associated	Rpleas_acq	Oppo	Lpleas	Amasked	CS_A	2pleas	AMP_CSpleas	AMP2	7	4	0	0	300	300	0	0	133	46	0	1	0	0	0	1	blank2r.bmp	0	1	DJMR	0	1	blank2r.bmp	79	35	pic35.bmp	79	1	whitenoise.bmp	186	0	0	0	0	0	0	0	0	0	0	0	0	0	0	0	0	0	0	0	0	0	0	0	0	0	0	0	0	0	0	0	0	0	0	0	0	0	0	0
071718	09:19:19	5.0.10.0	168	associated	Rpleas_acq	Oppo	Lpleas	Amasked	CS_A	2pleas	AMP_CSunple	AMP2	7	5	0	0	300	300	0	0	224	50	0	1	0	0	0	1	blank2r.bmp	0	1	HLST	0	1	blank2r.bmp	79	97	pic97.bmp	79	1	whitenoise.bmp	186	0	0	0	0	0	0	0	0	0	0	0	0	0	0	0	0	0	0	0	0	0	0	0	0	0	0	0	0	0	0	0	0	0	0	0	0	0	0	0
071718	09:19:19	5.0.10.0	168	associated	Rpleas_acq	Oppo	Lpleas	Amasked	CS_A	2pleas	AMP_CSpleas	AMP2	7	6	0	0	300	300	0	0	282	50	0	0	0	0	0	1	blank2r.bmp	0	1	DJMR	0	1	blank2r.bmp	79	43	pic43.bmp	79	1	whitenoise.bmp	186	0	0	0	0	0	0	0	0	0	0	0	0	0	0	0	0	0	0	0	0	0	0	0	0	0	0	0	0	0	0	0	0	0	0	0	0	0	0	0
071718	09:19:19	5.0.10.0	168	associated	Rpleas_acq	Oppo	Lpleas	Amasked	CS_A	2pleas	AMP_CSunple	AMP2	7	7	0	0	300	300	0	0	361	50	0	1	0	0	0	1	blank2r.bmp	0	1	HLST	0	1	blank2r.bmp	79	18	pic18.bmp	79	1	whitenoise.bmp	186	0	0	0	0	0	0	0	0	0	0	0	0	0	0	0	0	0	0	0	0	0	0	0	0	0	0	0	0	0	0	0	0	0	0	0	0	0	0	0
071718	09:19:19	5.0.10.0	168	associated	Rpleas_acq	Oppo	Lpleas	Amasked	CS_A	2pleas	AMP_CSpleas	AMP2	7	8	0	0	300	300	0	0	580	50	0	0	0	0	0	1	blank2r.bmp	0	1	DJMR	0	1	blank2r.bmp	79	78	pic78.bmp	79	1	whitenoise.bmp	186	0	0	0	0	0	0	0	0	0	0	0	0	0	0	0	0	0	0	0	0	0	0	0	0	0	0	0	0	0	0	0	0	0	0	0	0	0	0	0
071718	09:19:19	5.0.10.0	168	associated	Rpleas_acq	Oppo	Lpleas	Amasked	CS_A	2pleas	AMP_CSpleas	AMP2	7	9	0	0	300	300	0	0	223	46	0	1	0	0	0	1	blank2r.bmp	0	1	DJMR	0	1	blank2r.bmp	79	27	pic27.bmp	79	1	whitenoise.bmp	186	0	0	0	0	0	0	0	0	0	0	0	0	0	0	0	0	0	0	0	0	0	0	0	0	0	0	0	0	0	0	0	0	0	0	0	0	0	0	0
071718	09:19:19	5.0.10.0	168	associated	Rpleas_acq	Oppo	Lpleas	Amasked	CS_A	2pleas	AMP_CSpleas	AMP2	7	10	0	0	300	300	0	0	286	50	0	0	0	0	0	1	blank2r.bmp	0	1	DJMR	0	1	blank2r.bmp	79	21	pic21.bmp	79	1	whitenoise.bmp	186	0	0	0	0	0	0	0	0	0	0	0	0	0	0	0	0	0	0	0	0	0	0	0	0	0	0	0	0	0	0	0	0	0	0	0	0	0	0	0
071718	09:19:19	5.0.10.0	168	associated	Rpleas_acq	Oppo	Lpleas	Amasked	CS_A	2pleas	AMP_CSpleas	AMP2	7	11	0	0	300	300	0	0	355	50	0	0	0	0	0	1	blank2r.bmp	0	1	DJMR	0	1	blank2r.bmp	79	1	pic1.bmp	79	1	whitenoise.bmp	186	0	0	0	0	0	0	0	0	0	0	0	0	0	0	0	0	0	0	0	0	0	0	0	0	0	0	0	0	0	0	0	0	0	0	0	0	0	0	0
071718	09:19:19	5.0.10.0	168	associated	Rpleas_acq	Oppo	Lpleas	Amasked	CS_A	2pleas	AMP_CSunple	AMP2	7	12	0	0	300	300	0	0	178	50	0	1	0	0	0	1	blank2r.bmp	0	1	HLST	0	1	blank2r.bmp	79	40	pic40.bmp	79	1	whitenoise.bmp	186	0	0	0	0	0	0	0	0	0	0	0	0	0	0	0	0	0	0	0	0	0	0	0	0	0	0	0	0	0	0	0	0	0	0	0	0	0	0	0
071718	09:19:19	5.0.10.0	168	associated	Rpleas_acq	Oppo	Lpleas	Amasked	CS_A	2pleas	AMP_CSpleas	AMP2	7	13	0	0	300	300	0	0	157	50	0	0	0	0	0	1	blank2r.bmp	0	1	DJMR	0	1	blank2r.bmp	79	25	pic25.bmp	79	1	whitenoise.bmp	186	0	0	0	0	0	0	0	0	0	0	0	0	0	0	0	0	0	0	0	0	0	0	0	0	0	0	0	0	0	0	0	0	0	0	0	0	0	0	0
071718	09:19:19	5.0.10.0	168	associated	Rpleas_acq	Oppo	Lpleas	Amasked	CS_A	2pleas	AMP_CSpleas	AMP2	7	14	0	0	300	300	0	0	847	50	0	0	0	0	0	1	blank2r.bmp	0	1	DJMR	0	1	blank2r.bmp	79	88	pic88.bmp	79	1	whitenoise.bmp	186	0	0	0	0	0	0	0	0	0	0	0	0	0	0	0	0	0	0	0	0	0	0	0	0	0	0	0	0	0	0	0	0	0	0	0	0	0	0	0
071718	09:19:19	5.0.10.0	168	associated	Rpleas_acq	Oppo	Lpleas	Amasked	CS_A	2pleas	AMP_CSpleas	AMP2	7	15	0	0	300	300	0	0	412	50	0	0	0	0	0	1	blank2r.bmp	0	1	DJMR	0	1	blank2r.bmp	79	71	pic71.bmp	79	1	whitenoise.bmp	186	0	0	0	0	0	0	0	0	0	0	0	0	0	0	0	0	0	0	0	0	0	0	0	0	0	0	0	0	0	0	0	0	0	0	0	0	0	0	0
071718	09:19:19	5.0.10.0	168	associated	Rpleas_acq	Oppo	Lpleas	Amasked	CS_A	2pleas	AMP_CSunple	AMP2	7	16	0	0	300	300	0	0	162	50	0	1	0	0	0	1	blank2r.bmp	0	1	HLST	0	1	blank2r.bmp	79	53	pic53.bmp	79	1	whitenoise.bmp	186	0	0	0	0	0	0	0	0	0	0	0	0	0	0	0	0	0	0	0	0	0	0	0	0	0	0	0	0	0	0	0	0	0	0	0	0	0	0	0
071718	09:19:19	5.0.10.0	168	associated	Rpleas_acq	Oppo	Lpleas	Amasked	CS_A	2pleas	AMP_CSpleas	AMP2	7	17	0	0	300	300	0	0	124	50	0	0	0	0	0	1	blank2r.bmp	0	1	DJMR	0	1	blank2r.bmp	79	11	pic11.bmp	79	1	whitenoise.bmp	186	0	0	0	0	0	0	0	0	0	0	0	0	0	0	0	0	0	0	0	0	0	0	0	0	0	0	0	0	0	0	0	0	0	0	0	0	0	0	0
071718	09:19:19	5.0.10.0	168	associated	Rpleas_acq	Oppo	Lpleas	Amasked	CS_A	2pleas	AMP_CSunple	AMP2	7	18	0	0	300	300	0	0	95	46	0	0	0	0	0	1	blank2r.bmp	0	1	HLST	0	1	blank2r.bmp	79	85	pic85.bmp	79	1	whitenoise.bmp	186	0	0	0	0	0	0	0	0	0	0	0	0	0	0	0	0	0	0	0	0	0	0	0	0	0	0	0	0	0	0	0	0	0	0	0	0	0	0	0
071718	09:19:19	5.0.10.0	168	associated	Rpleas_acq	Oppo	Lpleas	Amasked	CS_A	2pleas	AMP_CSunple	AMP2	7	19	0	0	300	300	0	0	161	50	0	1	0	0	0	1	blank2r.bmp	0	1	HLST	0	1	blank2r.bmp	79	2	pic2.bmp	79	1	whitenoise.bmp	186	0	0	0	0	0	0	0	0	0	0	0	0	0	0	0	0	0	0	0	0	0	0	0	0	0	0	0	0	0	0	0	0	0	0	0	0	0	0	0
071718	09:19:19	5.0.10.0	168	associated	Rpleas_acq	Oppo	Lpleas	Amasked	CS_A	2pleas	AMP_CSunple	AMP2	7	20	0	0	300	300	0	0	152	46	0	0	0	0	0	1	blank2r.bmp	0	1	HLST	0	1	blank2r.bmp	79	22	pic22.bmp	79	1	whitenoise.bmp	186	0	0	0	0	0	0	0	0	0	0	0	0	0	0	0	0	0	0	0	0	0	0	0	0	0	0	0	0	0	0	0	0	0	0	0	0	0	0	0
071718	09:19:19	5.0.10.0	168	associated	Rpleas_acq	Oppo	Lpleas	Amasked	CS_A	2pleas	AMP_CSunple	AMP2	7	21	0	0	300	300	0	0	88	50	0	1	0	0	0	1	blank2r.bmp	0	1	HLST	0	1	blank2r.bmp	79	65	pic65.bmp	79	1	whitenoise.bmp	186	0	0	0	0	0	0	0	0	0	0	0	0	0	0	0	0	0	0	0	0	0	0	0	0	0	0	0	0	0	0	0	0	0	0	0	0	0	0	0
071718	09:19:19	5.0.10.0	168	associated	Rpleas_acq	Oppo	Lpleas	Amasked	CS_A	2pleas	AMP_CSunple	AMP2	7	22	0	0	300	300	0	0	166	50	0	1	0	0	0	1	blank2r.bmp	0	1	HLST	0	1	blank2r.bmp	79	75	pic75.bmp	79	1	whitenoise.bmp	186	0	0	0	0	0	0	0	0	0	0	0	0	0	0	0	0	0	0	0	0	0	0	0	0	0	0	0	0	0	0	0	0	0	0	0	0	0	0	0
071718	09:19:19	5.0.10.0	168	associated	Rpleas_acq	Oppo	Lpleas	Amasked	CS_A	2pleas	AMP_CSpleas	AMP2	7	23	0	0	300	300	0	0	130	50	0	0	0	0	0	1	blank2r.bmp	0	1	DJMR	0	1	blank2r.bmp	79	70	pic70.bmp	79	1	whitenoise.bmp	186	0	0	0	0	0	0	0	0	0	0	0	0	0	0	0	0	0	0	0	0	0	0	0	0	0	0	0	0	0	0	0	0	0	0	0	0	0	0	0
071718	09:19:19	5.0.10.0	168	associated	Rpleas_acq	Oppo	Lpleas	Amasked	CS_A	2pleas	AMP_CSunple	AMP2	7	24	0	0	300	300	0	0	547	46	0	0	0	0	0	1	blank2r.bmp	0	1	HLST	0	1	blank2r.bmp	79	14	pic14.bmp	79	1	whitenoise.bmp	186	0	0	0	0	0	0	0	0	0	0	0	0	0	0	0	0	0	0	0	0	0	0	0	0	0	0	0	0	0	0	0	0	0	0	0	0	0	0	0
071718	09:19:19	5.0.10.0	168	associated	Rpleas_acq	Oppo	Lpleas	Amasked	CS_A	2pleas	AMP_CSpleas	AMP2	7	25	0	0	300	300	0	0	192	50	0	0	0	0	0	1	blank2r.bmp	0	1	DJMR	0	1	blank2r.bmp	79	73	pic73.bmp	79	1	whitenoise.bmp	186	0	0	0	0	0	0	0	0	0	0	0	0	0	0	0	0	0	0	0	0	0	0	0	0	0	0	0	0	0	0	0	0	0	0	0	0	0	0	0
071718	09:19:19	5.0.10.0	168	associated	Rpleas_acq	Oppo	Lpleas	Amasked	CS_A	2pleas	AMP_CSpleas	AMP2	7	26	0	0	300	300	0	0	148	46	0	1	0	0	0	1	blank2r.bmp	0	1	DJMR	0	1	blank2r.bmp	79	80	pic80.bmp	79	1	whitenoise.bmp	186	0	0	0	0	0	0	0	0	0	0	0	0	0	0	0	0	0	0	0	0	0	0	0	0	0	0	0	0	0	0	0	0	0	0	0	0	0	0	0
071718	09:19:19	5.0.10.0	168	associated	Rpleas_acq	Oppo	Lpleas	Amasked	CS_A	2pleas	AMP_CSpleas	AMP2	7	27	0	0	300	300	0	0	146	50	0	0	0	0	0	1	blank2r.bmp	0	1	DJMR	0	1	blank2r.bmp	79	56	pic56.bmp	79	1	whitenoise.bmp	186	0	0	0	0	0	0	0	0	0	0	0	0	0	0	0	0	0	0	0	0	0	0	0	0	0	0	0	0	0	0	0	0	0	0	0	0	0	0	0
071718	09:19:19	5.0.10.0	168	associated	Rpleas_acq	Oppo	Lpleas	Amasked	CS_A	2pleas	AMP_CSpleas	AMP2	7	28	0	0	300	300	0	0	63	46	0	1	0	0	0	1	blank2r.bmp	0	1	DJMR	0	1	blank2r.bmp	79	52	pic52.bmp	79	1	whitenoise.bmp	186	0	0	0	0	0	0	0	0	0	0	0	0	0	0	0	0	0	0	0	0	0	0	0	0	0	0	0	0	0	0	0	0	0	0	0	0	0	0	0
071718	09:19:19	5.0.10.0	168	associated	Rpleas_acq	Oppo	Lpleas	Amasked	CS_A	2pleas	AMP_CSpleas	AMP2	7	29	0	0	300	300	0	0	101	50	0	0	0	0	0	1	blank2r.bmp	0	1	DJMR	0	1	blank2r.bmp	79	96	pic96.bmp	79	1	whitenoise.bmp	186	0	0	0	0	0	0	0	0	0	0	0	0	0	0	0	0	0	0	0	0	0	0	0	0	0	0	0	0	0	0	0	0	0	0	0	0	0	0	0
071718	09:19:19	5.0.10.0	168	associated	Rpleas_acq	Oppo	Lpleas	Amasked	CS_A	2pleas	AMP_CSunple	AMP2	7	30	0	0	300	300	0	0	57	46	0	0	0	0	0	1	blank2r.bmp	0	1	HLST	0	1	blank2r.bmp	79	42	pic42.bmp	79	1	whitenoise.bmp	186	0	0	0	0	0	0	0	0	0	0	0	0	0	0	0	0	0	0	0	0	0	0	0	0	0	0	0	0	0	0	0	0	0	0	0	0	0	0	0
071718	09:19:19	5.0.10.0	168	associated	Rpleas_acq	Oppo	Lpleas	Amasked	CS_A	2pleas	AMP_CSunple	AMP2	7	31	0	0	300	300	0	0	124	50	0	1	0	0	0	1	blank2r.bmp	0	1	HLST	0	1	blank2r.bmp	79	60	pic60.bmp	79	1	whitenoise.bmp	186	0	0	0	0	0	0	0	0	0	0	0	0	0	0	0	0	0	0	0	0	0	0	0	0	0	0	0	0	0	0	0	0	0	0	0	0	0	0	0
071718	09:19:19	5.0.10.0	168	associated	Rpleas_acq	Oppo	Lpleas	Amasked	CS_A	2pleas	AMP_CSunple	AMP2	7	32	0	0	300	300	0	0	4	46	0	0	0	0	0	1	blank2r.bmp	0	1	HLST	0	1	blank2r.bmp	79	44	pic44.bmp	79	1	whitenoise.bmp	186	0	0	0	0	0	0	0	0	0	0	0	0	0	0	0	0	0	0	0	0	0	0	0	0	0	0	0	0	0	0	0	0	0	0	0	0	0	0	0
071718	09:19:19	5.0.10.0	168	associated	Rpleas_acq	Oppo	Lpleas	Amasked	CS_A	2pleas	AMP_CSpleas	AMP2	7	33	0	0	300	300	0	0	111	50	0	0	0	0	0	1	blank2r.bmp	0	1	DJMR	0	1	blank2r.bmp	79	95	pic95.bmp	79	1	whitenoise.bmp	186	0	0	0	0	0	0	0	0	0	0	0	0	0	0	0	0	0	0	0	0	0	0	0	0	0	0	0	0	0	0	0	0	0	0	0	0	0	0	0
071718	09:19:19	5.0.10.0	168	associated	Rpleas_acq	Oppo	Lpleas	Amasked	CS_A	2pleas	AMP_CSpleas	AMP2	7	34	0	0	300	300	0	0	114	46	0	1	0	0	0	1	blank2r.bmp	0	1	DJMR	0	1	blank2r.bmp	79	84	pic84.bmp	79	1	whitenoise.bmp	186	0	0	0	0	0	0	0	0	0	0	0	0	0	0	0	0	0	0	0	0	0	0	0	0	0	0	0	0	0	0	0	0	0	0	0	0	0	0	0
071718	09:19:19	5.0.10.0	168	associated	Rpleas_acq	Oppo	Lpleas	Amasked	CS_A	2pleas	AMP_CSpleas	AMP2	7	35	0	0	300	300	0	0	121	50	0	0	0	0	0	1	blank2r.bmp	0	1	DJMR	0	1	blank2r.bmp	79	46	pic46.bmp	79	1	whitenoise.bmp	186	0	0	0	0	0	0	0	0	0	0	0	0	0	0	0	0	0	0	0	0	0	0	0	0	0	0	0	0	0	0	0	0	0	0	0	0	0	0	0
071718	09:19:19	5.0.10.0	168	associated	Rpleas_acq	Oppo	Lpleas	Amasked	CS_A	2pleas	AMP_CSunple	AMP2	7	36	0	0	300	300	0	0	23	46	0	0	0	0	0	1	blank2r.bmp	0	1	HLST	0	1	blank2r.bmp	79	13	pic13.bmp	79	1	whitenoise.bmp	186	0	0	0	0	0	0	0	0	0	0	0	0	0	0	0	0	0	0	0	0	0	0	0	0	0	0	0	0	0	0	0	0	0	0	0	0	0	0	0
071718	09:19:19	5.0.10.0	168	associated	Rpleas_acq	Oppo	Lpleas	Amasked	CS_A	2pleas	AMP_CSunple	AMP2	7	37	0	0	300	300	0	0	109	50	0	1	0	0	0	1	blank2r.bmp	0	1	HLST	0	1	blank2r.bmp	79	91	pic91.bmp	79	1	whitenoise.bmp	186	0	0	0	0	0	0	0	0	0	0	0	0	0	0	0	0	0	0	0	0	0	0	0	0	0	0	0	0	0	0	0	0	0	0	0	0	0	0	0
071718	09:19:19	5.0.10.0	168	associated	Rpleas_acq	Oppo	Lpleas	Amasked	CS_A	2pleas	AMP_CSpleas	AMP2	7	38	0	0	300	300	0	0	262	50	0	0	0	0	0	1	blank2r.bmp	0	1	DJMR	0	1	blank2r.bmp	79	69	pic69.bmp	79	1	whitenoise.bmp	186	0	0	0	0	0	0	0	0	0	0	0	0	0	0	0	0	0	0	0	0	0	0	0	0	0	0	0	0	0	0	0	0	0	0	0	0	0	0	0
071718	09:19:19	5.0.10.0	168	associated	Rpleas_acq	Oppo	Lpleas	Amasked	CS_A	2pleas	AMP_CSunple	AMP2	7	39	0	0	300	300	0	0	88	46	0	0	0	0	0	1	blank2r.bmp	0	1	HLST	0	1	blank2r.bmp	79	47	pic47.bmp	79	1	whitenoise.bmp	186	0	0	0	0	0	0	0	0	0	0	0	0	0	0	0	0	0	0	0	0	0	0	0	0	0	0	0	0	0	0	0	0	0	0	0	0	0	0	0
071718	09:19:19	5.0.10.0	168	associated	Rpleas_acq	Oppo	Lpleas	Amasked	CS_A	2pleas	AMP_CSpleas	AMP2	7	40	0	0	300	300	0	0	211	46	0	1	0	0	0	1	blank2r.bmp	0	1	DJMR	0	1	blank2r.bmp	79	51	pic51.bmp	79	1	whitenoise.bmp	186	0	0	0	0	0	0	0	0	0	0	0	0	0	0	0	0	0	0	0	0	0	0	0	0	0	0	0	0	0	0	0	0	0	0	0	0	0	0	0
071718	09:19:19	5.0.10.0	168	associated	Rpleas_acq	Oppo	Lpleas	Amasked	CS_A	2pleas	AMP_CSunple	AMP2	7	41	0	0	300	300	0	0	133	50	0	1	0	0	0	1	blank2r.bmp	0	1	HLST	0	1	blank2r.bmp	79	82	pic82.bmp	79	1	whitenoise.bmp	186	0	0	0	0	0	0	0	0	0	0	0	0	0	0	0	0	0	0	0	0	0	0	0	0	0	0	0	0	0	0	0	0	0	0	0	0	0	0	0
071718	09:19:19	5.0.10.0	168	associated	Rpleas_acq	Oppo	Lpleas	Amasked	CS_A	2pleas	AMP_CSunple	AMP2	7	42	0	0	300	300	0	0	75	46	0	0	0	0	0	1	blank2r.bmp	0	1	HLST	0	1	blank2r.bmp	79	45	pic45.bmp	79	1	whitenoise.bmp	186	0	0	0	0	0	0	0	0	0	0	0	0	0	0	0	0	0	0	0	0	0	0	0	0	0	0	0	0	0	0	0	0	0	0	0	0	0	0	0
071718	09:19:19	5.0.10.0	168	associated	Rpleas_acq	Oppo	Lpleas	Amasked	CS_A	2pleas	AMP_CSpleas	AMP2	7	43	0	0	300	300	0	0	136	50	0	0	0	0	0	1	blank2r.bmp	0	1	DJMR	0	1	blank2r.bmp	79	54	pic54.bmp	79	1	whitenoise.bmp	186	0	0	0	0	0	0	0	0	0	0	0	0	0	0	0	0	0	0	0	0	0	0	0	0	0	0	0	0	0	0	0	0	0	0	0	0	0	0	0
071718	09:19:19	5.0.10.0	168	associated	Rpleas_acq	Oppo	Lpleas	Amasked	CS_A	2pleas	AMP_CSpleas	AMP2	7	44	0	0	300	300	0	0	117	46	0	1	0	0	0	1	blank2r.bmp	0	1	DJMR	0	1	blank2r.bmp	79	10	pic10.bmp	79	1	whitenoise.bmp	186	0	0	0	0	0	0	0	0	0	0	0	0	0	0	0	0	0	0	0	0	0	0	0	0	0	0	0	0	0	0	0	0	0	0	0	0	0	0	0
071718	09:19:19	5.0.10.0	168	associated	Rpleas_acq	Oppo	Lpleas	Amasked	CS_A	2pleas	AMP_CSunple	AMP2	7	45	0	0	300	300	0	0	176	50	0	1	0	0	0	1	blank2r.bmp	0	1	HLST	0	1	blank2r.bmp	79	41	pic41.bmp	79	1	whitenoise.bmp	186	0	0	0	0	0	0	0	0	0	0	0	0	0	0	0	0	0	0	0	0	0	0	0	0	0	0	0	0	0	0	0	0	0	0	0	0	0	0	0
071718	09:19:19	5.0.10.0	168	associated	Rpleas_acq	Oppo	Lpleas	Amasked	CS_A	2pleas	AMP_CSunple	AMP2	7	46	0	0	300	300	0	0	89	50	0	1	0	0	0	1	blank2r.bmp	0	1	HLST	0	1	blank2r.bmp	79	9	pic9.bmp	79	1	whitenoise.bmp	186	0	0	0	0	0	0	0	0	0	0	0	0	0	0	0	0	0	0	0	0	0	0	0	0	0	0	0	0	0	0	0	0	0	0	0	0	0	0	0
071718	09:19:19	5.0.10.0	168	associated	Rpleas_acq	Oppo	Lpleas	Amasked	CS_A	2pleas	AMP_CSpleas	AMP2	7	47	0	0	300	300	0	0	160	50	0	0	0	0	0	1	blank2r.bmp	0	1	DJMR	0	1	blank2r.bmp	79	6	pic6.bmp	79	1	whitenoise.bmp	186	0	0	0	0	0	0	0	0	0	0	0	0	0	0	0	0	0	0	0	0	0	0	0	0	0	0	0	0	0	0	0	0	0	0	0	0	0	0	0
071718	09:19:19	5.0.10.0	168	associated	Rpleas_acq	Oppo	Lpleas	Amasked	CS_A	2pleas	AMP_CSunple	AMP2	7	48	0	0	300	300	0	0	212	50	0	1	0	0	0	1	blank2r.bmp	0	1	HLST	0	1	blank2r.bmp	79	33	pic33.bmp	79	1	whitenoise.bmp	186	0	0	0	0	0	0	0	0	0	0	0	0	0	0	0	0	0	0	0	0	0	0	0	0	0	0	0	0	0	0	0	0	0	0	0	0	0	0	0
071718	09:19:19	5.0.10.0	168	associated	Rpleas_acq	Oppo	Lpleas	Amasked	CS_A	2pleas	AMP_CSunple	AMP2	7	49	0	0	300	300	0	0	31	46	0	0	0	0	0	1	blank2r.bmp	0	1	HLST	0	1	blank2r.bmp	79	55	pic55.bmp	79	1	whitenoise.bmp	186	0	0	0	0	0	0	0	0	0	0	0	0	0	0	0	0	0	0	0	0	0	0	0	0	0	0	0	0	0	0	0	0	0	0	0	0	0	0	0
071718	09:19:19	5.0.10.0	168	associated	Rpleas_acq	Oppo	Lpleas	Amasked	CS_A	2pleas	AMP_CSunple	AMP2	7	50	0	0	300	300	0	0	75	50	0	1	0	0	0	1	blank2r.bmp	0	1	HLST	0	1	blank2r.bmp	79	17	pic17.bmp	79	1	whitenoise.bmp	186	0	0	0	0	0	0	0	0	0	0	0	0	0	0	0	0	0	0	0	0	0	0	0	0	0	0	0	0	0	0	0	0	0	0	0	0	0	0	0
071718	09:19:19	5.0.10.0	168	associated	Rpleas_acq	Oppo	Lpleas	Amasked	CS_A	2pleas	EvalRating_firsttwo	EvalRating_firsttwo	8	1	0	0	300	300	0	0	7428	line	84,47265625	0	0	0	0	1	eraser	0	1	Wie angenehm oder unangenehm finden Sie die  Buchstabenkette ZMXH?	0	1	leftborder	0	1	rightborder	0	1	line	0	1	Unangenehm	0	1	Angenehm	0	0	0	0	0	0	0	0	0	0	0	0	0	0	0	0	0	0	0	0	0	0	0	0	0	0	0	0	0	0	0	0	0	0
071718	09:19:19	5.0.10.0	168	associated	Rpleas_acq	Oppo	Lpleas	Amasked	CS_A	2pleas	EvalRating_lastfour	EvalRating_lastfour	9	1	0	0	300	300	0	0	29891	line	77,392578125	0	0	0	0	1	eraser	0	1	Wie angenehm oder unangenehm finden Sie die  Buchstabenkette HLST?	0	1	leftborder	0	1	rightborder	0	1	line	0	1	Unangenehm	0	1	Angenehm	0	0	0	0	0	0	0	0	0	0	0	0	0	0	0	0	0	0	0	0	0	0	0	0	0	0	0	0	0	0	0	0	0	0
071718	09:19:19	5.0.10.0	168	associated	Rpleas_acq	Oppo	Lpleas	Amasked	CS_A	2pleas	blank_screen	EvalRating_lastfour	9	3	0	0	300	300	0	0	0	0	77,392578125	0	0	0	0	1	eraser	0	0	0	0	0	0	0	0	0	0	0	0	0	0	0	0	0	0	0	0	0	0	0	0	0	0	0	0	0	0	0	0	0	0	0	0	0	0	0	0	0	0	0	0	0	0	0	0	0	0	0	0
071718	09:19:19	5.0.10.0	168	associated	Rpleas_acq	Oppo	Lpleas	Amasked	CS_A	2pleas	EvalRating_lastfour	EvalRating_lastfour	9	4	0	0	300	300	0	0	14002	line	78,125	0	0	0	0	1	eraser	1	2	Wie angenehm oder unangenehm finden Sie die  Buchstabenkette DJMR?	1	1	leftborder	1	1	rightborder	1	1	line	1	1	Unangenehm	1	1	Angenehm	1	0	0	0	0	0	0	0	0	0	0	0	0	0	0	0	0	0	0	0	0	0	0	0	0	0	0	0	0	0	0	0	0	0
071718	09:19:19	5.0.10.0	168	associated	Rpleas_acq	Oppo	Lpleas	Amasked	CS_A	2pleas	blank_screen	EvalRating_lastfour	9	6	0	0	300	300	0	0	0	0	78,125	0	0	0	0	1	eraser	0	0	0	0	0	0	0	0	0	0	0	0	0	0	0	0	0	0	0	0	0	0	0	0	0	0	0	0	0	0	0	0	0	0	0	0	0	0	0	0	0	0	0	0	0	0	0	0	0	0	0	0
071718	09:19:19	5.0.10.0	168	associated	Rpleas_acq	Oppo	Lpleas	Amasked	CS_A	2pleas	EvalRating_lastfour	EvalRating_lastfour	9	7	0	0	300	300	0	0	4242	line	-16,6015625	0	0	0	0	1	eraser	1	3	Wie angenehm oder unangenehm finden Sie die  Buchstabenkette LRGC?	1	1	leftborder	1	1	rightborder	1	1	line	1	1	Unangenehm	1	1	Angenehm	1	0	0	0	0	0	0	0	0	0	0	0	0	0	0	0	0	0	0	0	0	0	0	0	0	0	0	0	0	0	0	0	0	0
071718	09:19:19	5.0.10.0	168	associated	Rpleas_acq	Oppo	Lpleas	Amasked	CS_A	2pleas	cond_US_unple_123_masked_CS1	condtest_masked_1	10	1	400	0	300	300	0	0	3461	50	-16,6015625	1	0	0	0	1	blank2r.bmp	0	1	+	0	3	B3r.bmp	492	1	blank2r.bmp	786	1	HLST	786	1	blank2r.bmp	866	1	narr	866	1	!	1239	1	!	-1	0	0	0	0	0	0	0	0	0	0	0	0	0	0	0	0	0	0	0	0	0	0	0	0	0	0	0
071718	09:19:19	5.0.10.0	168	associated	Rpleas_acq	Oppo	Lpleas	Amasked	CS_A	2pleas	cond_US_pleas_123_masked_CS1	condtest_masked_1	10	2	400	0	300	300	0	0	504	50	-16,6015625	0	0	0	0	1	blank2r.bmp	0	1	+	0	6	C2r.bmp	492	1	blank2r.bmp	786	1	HLST	786	1	blank2r.bmp	866	2	erfinder	866	1	!	1239	1	!	-1	0	0	0	0	0	0	0	0	0	0	0	0	0	0	0	0	0	0	0	0	0	0	0	0	0	0	0
071718	09:19:19	5.0.10.0	168	associated	Rpleas_acq	Oppo	Lpleas	Amasked	CS_A	2pleas	cond_new_pleas_456_masked_CS2	condtest_masked_1	10	3	400	0	300	300	0	0	311	50	-16,6015625	0	0	0	0	1	blank2r.bmp	0	1	+	0	7	C3r.bmp	492	1	blank2r.bmp	786	1	DJMR	786	1	blank2r.bmp	866	3	wind	866	1	!	-1	1	!	-1	0	0	0	0	0	0	0	0	0	0	0	0	0	0	0	0	0	0	0	0	0	0	0	0	0	0	0
071718	09:19:19	5.0.10.0	168	associated	Rpleas_acq	Oppo	Lpleas	Amasked	CS_A	2pleas	cond_US_pleas_123_masked_CS2	condtest_masked_1	10	4	400	1	300	300	0	0	406	46	-16,6015625	1	0	0	0	1	blank2r.bmp	0	1	+	0	2	B2r.bmp	492	1	blank2r.bmp	786	1	DJMR	786	1	blank2r.bmp	866	1	wein	866	1	!	1239	1	!	1306	0	0	0	0	0	0	0	0	0	0	0	0	0	0	0	0	0	0	0	0	0	0	0	0	0	0	0
071718	09:19:19	5.0.10.0	168	associated	Rpleas_acq	Oppo	Lpleas	Amasked	CS_A	2pleas	cond_US_unple_123_masked_CS2	condtest_masked_1	10	5	400	0	300	300	0	0	201	50	-16,6015625	1	0	0	0	1	blank2r.bmp	0	1	+	0	8	C4r.bmp	492	1	blank2r.bmp	786	1	DJMR	786	1	blank2r.bmp	866	3	wunde	866	1	!	-1	1	!	-1	0	0	0	0	0	0	0	0	0	0	0	0	0	0	0	0	0	0	0	0	0	0	0	0	0	0	0
071718	09:19:19	5.0.10.0	168	associated	Rpleas_acq	Oppo	Lpleas	Amasked	CS_A	2pleas	cond_new_unple_456_masked_CS2	condtest_masked_1	10	6	400	1	300	300	0	0	358	46	-16,6015625	0	0	0	0	1	blank2r.bmp	0	1	+	0	4	B4r.bmp	492	1	blank2r.bmp	786	1	DJMR	786	1	blank2r.bmp	866	3	waffe	866	1	!	1239	1	!	1252	0	0	0	0	0	0	0	0	0	0	0	0	0	0	0	0	0	0	0	0	0	0	0	0	0	0	0
071718	09:19:19	5.0.10.0	168	associated	Rpleas_acq	Oppo	Lpleas	Amasked	CS_A	2pleas	cond_new_unple_456_masked_CS1	condtest_masked_1	10	7	400	0	300	300	0	0	246	50	-16,6015625	1	0	0	0	1	blank2r.bmp	0	1	+	0	1	B1r.bmp	492	1	blank2r.bmp	786	1	HLST	786	1	blank2r.bmp	866	2	einengen	866	1	!	-1	1	!	-1	0	0	0	0	0	0	0	0	0	0	0	0	0	0	0	0	0	0	0	0	0	0	0	0	0	0	0
071718	09:19:19	5.0.10.0	168	associated	Rpleas_acq	Oppo	Lpleas	Amasked	CS_A	2pleas	cond_new_pleas_456_masked_CS1	condtest_masked_1	10	8	400	1	300	300	0	0	377	50	-16,6015625	0	0	0	0	1	blank2r.bmp	0	1	+	0	5	C1r.bmp	492	1	blank2r.bmp	786	1	HLST	786	1	blank2r.bmp	866	2	freude	866	1	!	1239	1	!	1279	0	0	0	0	0	0	0	0	0	0	0	0	0	0	0	0	0	0	0	0	0	0	0	0	0	0	0
071718	09:19:19	5.0.10.0	168	associated	Rpleas_acq	Oppo	Lpleas	Amasked	CS_A	2pleas	cond_new_unple_456_masked_CS1	condtest_masked_2	11	1	400	0	300	300	0	0	328	50	-16,6015625	1	0	0	0	1	blank2r.bmp	0	1	+	0	8	C4r.bmp	492	1	blank2r.bmp	786	1	HLST	786	1	blank2r.bmp	866	1	feind	866	1	!	-1	1	!	-1	0	0	0	0	0	0	0	0	0	0	0	0	0	0	0	0	0	0	0	0	0	0	0	0	0	0	0
071718	09:19:19	5.0.10.0	168	associated	Rpleas_acq	Oppo	Lpleas	Amasked	CS_A	2pleas	cond_new_pleas_456_masked_CS2	condtest_masked_2	11	2	400	0	300	300	0	0	65	46	-16,6015625	1	0	0	0	1	blank2r.bmp	0	1	+	0	1	B1r.bmp	492	1	blank2r.bmp	786	1	DJMR	786	1	blank2r.bmp	866	1	umarmen	866	1	!	-1	1	!	-1	0	0	0	0	0	0	0	0	0	0	0	0	0	0	0	0	0	0	0	0	0	0	0	0	0	0	0
071718	09:19:19	5.0.10.0	168	associated	Rpleas_acq	Oppo	Lpleas	Amasked	CS_A	2pleas	cond_US_pleas_123_masked_CS2	condtest_masked_2	11	3	400	0	300	300	0	0	124	50	-16,6015625	0	0	0	0	1	blank2r.bmp	0	1	+	0	6	C2r.bmp	492	1	blank2r.bmp	786	1	DJMR	786	1	blank2r.bmp	866	3	jugend	866	1	!	-1	1	!	-1	0	0	0	0	0	0	0	0	0	0	0	0	0	0	0	0	0	0	0	0	0	0	0	0	0	0	0
071718	09:19:19	5.0.10.0	168	associated	Rpleas_acq	Oppo	Lpleas	Amasked	CS_A	2pleas	cond_new_unple_456_masked_CS2	condtest_masked_2	11	4	400	0	300	300	0	0	270	46	-16,6015625	0	0	0	0	1	blank2r.bmp	0	1	+	0	3	B3r.bmp	492	1	blank2r.bmp	786	1	DJMR	786	1	blank2r.bmp	866	2	einengen	866	1	!	-1	1	!	-1	0	0	0	0	0	0	0	0	0	0	0	0	0	0	0	0	0	0	0	0	0	0	0	0	0	0	0
071718	09:19:19	5.0.10.0	168	associated	Rpleas_acq	Oppo	Lpleas	Amasked	CS_A	2pleas	cond_new_pleas_456_masked_CS1	condtest_masked_2	11	5	400	0	300	300	0	0	261	50	-16,6015625	0	0	0	0	1	blank2r.bmp	0	1	+	0	4	B4r.bmp	492	1	blank2r.bmp	786	1	HLST	786	1	blank2r.bmp	866	2	freude	866	1	!	-1	1	!	-1	0	0	0	0	0	0	0	0	0	0	0	0	0	0	0	0	0	0	0	0	0	0	0	0	0	0	0
071718	09:19:19	5.0.10.0	168	associated	Rpleas_acq	Oppo	Lpleas	Amasked	CS_A	2pleas	cond_new_unple_456_masked_CS2	condtest_masked_2	11	6	400	0	300	300	0	0	161	46	-16,6015625	0	0	0	0	1	blank2r.bmp	0	1	+	0	7	C3r.bmp	492	1	blank2r.bmp	786	1	DJMR	786	1	blank2r.bmp	866	3	waffe	866	1	!	-1	1	!	-1	0	0	0	0	0	0	0	0	0	0	0	0	0	0	0	0	0	0	0	0	0	0	0	0	0	0	0
071718	09:19:19	5.0.10.0	168	associated	Rpleas_acq	Oppo	Lpleas	Amasked	CS_A	2pleas	cond_new_pleas_456_masked_CS1	condtest_masked_2	11	7	400	0	300	300	0	0	202	50	-16,6015625	0	0	0	0	1	blank2r.bmp	0	1	+	0	2	B2r.bmp	492	1	blank2r.bmp	786	1	HLST	786	1	blank2r.bmp	866	3	wind	866	1	!	-1	1	!	-1	0	0	0	0	0	0	0	0	0	0	0	0	0	0	0	0	0	0	0	0	0	0	0	0	0	0	0
071718	09:19:19	5.0.10.0	168	associated	Rpleas_acq	Oppo	Lpleas	Amasked	CS_A	2pleas	cond_new_pleas_456_masked_CS2	condtest_masked_2	11	8	400	0	300	300	0	0	218	46	-16,6015625	1	0	0	0	1	blank2r.bmp	0	1	+	0	5	C1r.bmp	492	1	blank2r.bmp	786	1	DJMR	786	1	blank2r.bmp	866	1	umarmen	866	1	!	-1	1	!	-1	0	0	0	0	0	0	0	0	0	0	0	0	0	0	0	0	0	0	0	0	0	0	0	0	0	0	0
071718	09:19:19	5.0.10.0	168	associated	Rpleas_acq	Oppo	Lpleas	Amasked	CS_A	2pleas	cond_US_pleas_123_masked_CS1	condtest_masked_2	11	9	400	0	300	300	0	0	103	50	-16,6015625	0	0	0	0	1	blank2r.bmp	0	1	+	0	8	C4r.bmp	492	1	blank2r.bmp	786	1	HLST	786	1	blank2r.bmp	866	3	jugend	866	1	!	-1	1	!	-1	0	0	0	0	0	0	0	0	0	0	0	0	0	0	0	0	0	0	0	0	0	0	0	0	0	0	0
071718	09:19:19	5.0.10.0	168	associated	Rpleas_acq	Oppo	Lpleas	Amasked	CS_A	2pleas	cond_US_pleas_123_masked_CS2	condtest_masked_2	11	10	400	0	300	300	0	0	324	46	-16,6015625	1	0	0	0	1	blank2r.bmp	0	1	+	0	6	C2r.bmp	492	1	blank2r.bmp	786	1	DJMR	786	1	blank2r.bmp	866	1	wein	866	1	!	-1	1	!	-1	0	0	0	0	0	0	0	0	0	0	0	0	0	0	0	0	0	0	0	0	0	0	0	0	0	0	0
071718	09:19:19	5.0.10.0	168	associated	Rpleas_acq	Oppo	Lpleas	Amasked	CS_A	2pleas	cond_US_unple_123_masked_CS2	condtest_masked_2	11	11	400	0	300	300	0	0	186	50	-16,6015625	1	0	0	0	1	blank2r.bmp	0	1	+	0	1	B1r.bmp	492	1	blank2r.bmp	786	1	DJMR	786	1	blank2r.bmp	866	2	geiz	866	1	!	-1	1	!	-1	0	0	0	0	0	0	0	0	0	0	0	0	0	0	0	0	0	0	0	0	0	0	0	0	0	0	0
071718	09:19:19	5.0.10.0	168	associated	Rpleas_acq	Oppo	Lpleas	Amasked	CS_A	2pleas	cond_new_unple_456_masked_CS2	condtest_masked_2	11	12	400	0	300	300	0	0	150	46	-16,6015625	0	0	0	0	1	blank2r.bmp	0	1	+	0	7	C3r.bmp	492	1	blank2r.bmp	786	1	DJMR	786	1	blank2r.bmp	866	1	feind	866	1	!	-1	1	!	-1	0	0	0	0	0	0	0	0	0	0	0	0	0	0	0	0	0	0	0	0	0	0	0	0	0	0	0
071718	09:19:19	5.0.10.0	168	associated	Rpleas_acq	Oppo	Lpleas	Amasked	CS_A	2pleas	cond_new_unple_456_masked_CS1	condtest_masked_2	11	13	400	0	300	300	0	0	187	50	-16,6015625	1	0	0	0	1	blank2r.bmp	0	1	+	0	2	B2r.bmp	492	1	blank2r.bmp	786	1	HLST	786	1	blank2r.bmp	866	2	einengen	866	1	!	-1	1	!	-1	0	0	0	0	0	0	0	0	0	0	0	0	0	0	0	0	0	0	0	0	0	0	0	0	0	0	0
071718	09:19:19	5.0.10.0	168	associated	Rpleas_acq	Oppo	Lpleas	Amasked	CS_A	2pleas	cond_US_pleas_123_masked_CS1	condtest_masked_2	11	14	400	0	300	300	0	0	626	50	-16,6015625	0	0	0	0	1	blank2r.bmp	0	1	+	0	4	B4r.bmp	492	1	blank2r.bmp	786	1	HLST	786	1	blank2r.bmp	866	2	erfinder	866	1	!	1239	1	!	-1	0	0	0	0	0	0	0	0	0	0	0	0	0	0	0	0	0	0	0	0	0	0	0	0	0	0	0
071718	09:19:19	5.0.10.0	168	associated	Rpleas_acq	Oppo	Lpleas	Amasked	CS_A	2pleas	cond_US_unple_123_masked_CS2	condtest_masked_2	11	15	400	0	300	300	0	0	480	50	-16,6015625	1	0	0	0	1	blank2r.bmp	0	1	+	0	3	B3r.bmp	492	1	blank2r.bmp	786	1	DJMR	786	1	blank2r.bmp	866	3	wunde	866	1	!	1239	1	!	-1	0	0	0	0	0	0	0	0	0	0	0	0	0	0	0	0	0	0	0	0	0	0	0	0	0	0	0
071718	09:19:19	5.0.10.0	168	associated	Rpleas_acq	Oppo	Lpleas	Amasked	CS_A	2pleas	cond_US_unple_123_masked_CS1	condtest_masked_2	11	16	400	0	300	300	0	0	257	46	-16,6015625	0	0	0	0	1	blank2r.bmp	0	1	+	0	5	C1r.bmp	492	1	blank2r.bmp	786	1	HLST	786	1	blank2r.bmp	866	2	geiz	866	1	!	-1	1	!	-1	0	0	0	0	0	0	0	0	0	0	0	0	0	0	0	0	0	0	0	0	0	0	0	0	0	0	0
071718	09:19:19	5.0.10.0	168	associated	Rpleas_acq	Oppo	Lpleas	Amasked	CS_A	2pleas	cond_new_unple_456_masked_CS1	condtest_masked_2	11	17	400	0	300	300	0	0	250	50	-16,6015625	1	0	0	0	1	blank2r.bmp	0	1	+	0	3	B3r.bmp	492	1	blank2r.bmp	786	1	HLST	786	1	blank2r.bmp	866	3	waffe	866	1	!	-1	1	!	-1	0	0	0	0	0	0	0	0	0	0	0	0	0	0	0	0	0	0	0	0	0	0	0	0	0	0	0
071718	09:19:19	5.0.10.0	168	associated	Rpleas_acq	Oppo	Lpleas	Amasked	CS_A	2pleas	cond_US_unple_123_masked_CS1	condtest_masked_2	11	18	400	0	300	300	0	0	221	46	-16,6015625	0	0	0	0	1	blank2r.bmp	0	1	+	0	1	B1r.bmp	492	1	blank2r.bmp	786	1	HLST	786	1	blank2r.bmp	866	1	narr	866	1	!	-1	1	!	-1	0	0	0	0	0	0	0	0	0	0	0	0	0	0	0	0	0	0	0	0	0	0	0	0	0	0	0
071718	09:19:19	5.0.10.0	168	associated	Rpleas_acq	Oppo	Lpleas	Amasked	CS_A	2pleas	cond_new_unple_456_masked_CS1	condtest_masked_2	11	19	400	0	300	300	0	0	295	50	-16,6015625	1	0	0	0	1	blank2r.bmp	0	1	+	0	8	C4r.bmp	492	1	blank2r.bmp	786	1	HLST	786	1	blank2r.bmp	866	1	feind	866	1	!	-1	1	!	-1	0	0	0	0	0	0	0	0	0	0	0	0	0	0	0	0	0	0	0	0	0	0	0	0	0	0	0
071718	09:19:19	5.0.10.0	168	associated	Rpleas_acq	Oppo	Lpleas	Amasked	CS_A	2pleas	cond_new_pleas_456_masked_CS2	condtest_masked_2	11	20	400	0	300	300	0	0	221	46	-16,6015625	1	0	0	0	1	blank2r.bmp	0	1	+	0	5	C1r.bmp	492	1	blank2r.bmp	786	1	DJMR	786	1	blank2r.bmp	866	2	freude	866	1	!	-1	1	!	-1	0	0	0	0	0	0	0	0	0	0	0	0	0	0	0	0	0	0	0	0	0	0	0	0	0	0	0
071718	09:19:19	5.0.10.0	168	associated	Rpleas_acq	Oppo	Lpleas	Amasked	CS_A	2pleas	cond_US_pleas_123_masked_CS1	condtest_masked_2	11	21	400	0	300	300	0	0	306	50	-16,6015625	0	0	0	0	1	blank2r.bmp	0	1	+	0	4	B4r.bmp	492	1	blank2r.bmp	786	1	HLST	786	1	blank2r.bmp	866	1	wein	866	1	!	-1	1	!	-1	0	0	0	0	0	0	0	0	0	0	0	0	0	0	0	0	0	0	0	0	0	0	0	0	0	0	0
071718	09:19:19	5.0.10.0	168	associated	Rpleas_acq	Oppo	Lpleas	Amasked	CS_A	2pleas	cond_US_unple_123_masked_CS2	condtest_masked_2	11	22	400	0	300	300	0	0	266	46	-16,6015625	0	0	0	0	1	blank2r.bmp	0	1	+	0	7	C3r.bmp	492	1	blank2r.bmp	786	1	DJMR	786	1	blank2r.bmp	866	2	geiz	866	1	!	-1	1	!	-1	0	0	0	0	0	0	0	0	0	0	0	0	0	0	0	0	0	0	0	0	0	0	0	0	0	0	0
071718	09:19:19	5.0.10.0	168	associated	Rpleas_acq	Oppo	Lpleas	Amasked	CS_A	2pleas	cond_new_pleas_456_masked_CS1	condtest_masked_2	11	23	400	0	300	300	0	0	212	46	-16,6015625	1	0	0	0	1	blank2r.bmp	0	1	+	0	2	B2r.bmp	492	1	blank2r.bmp	786	1	HLST	786	1	blank2r.bmp	866	1	umarmen	866	1	!	-1	1	!	-1	0	0	0	0	0	0	0	0	0	0	0	0	0	0	0	0	0	0	0	0	0	0	0	0	0	0	0
071718	09:19:19	5.0.10.0	168	associated	Rpleas_acq	Oppo	Lpleas	Amasked	CS_A	2pleas	cond_US_pleas_123_masked_CS2	condtest_masked_2	11	24	400	0	300	300	0	0	207	50	-16,6015625	0	0	0	0	1	blank2r.bmp	0	1	+	0	6	C2r.bmp	492	1	blank2r.bmp	786	1	DJMR	786	1	blank2r.bmp	866	2	erfinder	866	1	!	-1	1	!	-1	0	0	0	0	0	0	0	0	0	0	0	0	0	0	0	0	0	0	0	0	0	0	0	0	0	0	0
071718	09:19:19	5.0.10.0	168	associated	Rpleas_acq	Oppo	Lpleas	Amasked	CS_A	2pleas	cond_US_unple_123_masked_CS1	condtest_masked_2	11	25	400	0	300	300	0	0	203	50	-16,6015625	1	0	0	0	1	blank2r.bmp	0	1	+	0	8	C4r.bmp	492	1	blank2r.bmp	786	1	HLST	786	1	blank2r.bmp	866	1	narr	866	1	!	-1	1	!	-1	0	0	0	0	0	0	0	0	0	0	0	0	0	0	0	0	0	0	0	0	0	0	0	0	0	0	0
071718	09:19:19	5.0.10.0	168	associated	Rpleas_acq	Oppo	Lpleas	Amasked	CS_A	2pleas	cond_US_pleas_123_masked_CS2	condtest_masked_2	11	26	400	0	300	300	0	0	279	46	-16,6015625	1	0	0	0	1	blank2r.bmp	0	1	+	0	4	B4r.bmp	492	1	blank2r.bmp	786	1	DJMR	786	1	blank2r.bmp	866	3	jugend	866	1	!	-1	1	!	-1	0	0	0	0	0	0	0	0	0	0	0	0	0	0	0	0	0	0	0	0	0	0	0	0	0	0	0
071718	09:19:19	5.0.10.0	168	associated	Rpleas_acq	Oppo	Lpleas	Amasked	CS_A	2pleas	cond_new_pleas_456_masked_CS1	condtest_masked_2	11	27	400	0	300	300	0	0	197	50	-16,6015625	0	0	0	0	1	blank2r.bmp	0	1	+	0	7	C3r.bmp	492	1	blank2r.bmp	786	1	HLST	786	1	blank2r.bmp	866	3	wind	866	1	!	-1	1	!	-1	0	0	0	0	0	0	0	0	0	0	0	0	0	0	0	0	0	0	0	0	0	0	0	0	0	0	0
071718	09:19:19	5.0.10.0	168	associated	Rpleas_acq	Oppo	Lpleas	Amasked	CS_A	2pleas	cond_new_unple_456_masked_CS2	condtest_masked_2	11	28	400	0	300	300	0	0	147	46	-16,6015625	0	0	0	0	1	blank2r.bmp	0	1	+	0	5	C1r.bmp	492	1	blank2r.bmp	786	1	DJMR	786	1	blank2r.bmp	866	2	einengen	866	1	!	-1	1	!	-1	0	0	0	0	0	0	0	0	0	0	0	0	0	0	0	0	0	0	0	0	0	0	0	0	0	0	0
071718	09:19:19	5.0.10.0	168	associated	Rpleas_acq	Oppo	Lpleas	Amasked	CS_A	2pleas	cond_US_pleas_123_masked_CS1	condtest_masked_2	11	29	400	0	300	300	0	0	179	50	-16,6015625	0	0	0	0	1	blank2r.bmp	0	1	+	0	6	C2r.bmp	492	1	blank2r.bmp	786	1	HLST	786	1	blank2r.bmp	866	3	jugend	866	1	!	-1	1	!	-1	0	0	0	0	0	0	0	0	0	0	0	0	0	0	0	0	0	0	0	0	0	0	0	0	0	0	0
071718	09:19:19	5.0.10.0	168	associated	Rpleas_acq	Oppo	Lpleas	Amasked	CS_A	2pleas	cond_new_pleas_456_masked_CS2	condtest_masked_2	11	30	400	0	300	300	0	0	261	46	-16,6015625	1	0	0	0	1	blank2r.bmp	0	1	+	0	3	B3r.bmp	492	1	blank2r.bmp	786	1	DJMR	786	1	blank2r.bmp	866	1	umarmen	866	1	!	-1	1	!	-1	0	0	0	0	0	0	0	0	0	0	0	0	0	0	0	0	0	0	0	0	0	0	0	0	0	0	0
071718	09:19:19	5.0.10.0	168	associated	Rpleas_acq	Oppo	Lpleas	Amasked	CS_A	2pleas	cond_US_pleas_123_masked_CS1	condtest_masked_2	11	31	400	0	300	300	0	0	278	50	-16,6015625	0	0	0	0	1	blank2r.bmp	0	1	+	0	1	B1r.bmp	492	1	blank2r.bmp	786	1	HLST	786	1	blank2r.bmp	866	2	erfinder	866	1	!	-1	1	!	-1	0	0	0	0	0	0	0	0	0	0	0	0	0	0	0	0	0	0	0	0	0	0	0	0	0	0	0
071718	09:19:19	5.0.10.0	168	associated	Rpleas_acq	Oppo	Lpleas	Amasked	CS_A	2pleas	cond_new_pleas_456_masked_CS2	condtest_masked_2	11	32	400	1	300	300	0	0	346	46	-16,6015625	1	0	0	0	1	blank2r.bmp	0	1	+	0	2	B2r.bmp	492	1	blank2r.bmp	786	1	DJMR	786	1	blank2r.bmp	866	3	wind	866	1	!	1239	1	!	1252	0	0	0	0	0	0	0	0	0	0	0	0	0	0	0	0	0	0	0	0	0	0	0	0	0	0	0
071718	09:19:19	5.0.10.0	168	associated	Rpleas_acq	Oppo	Lpleas	Amasked	CS_A	2pleas	cond_US_unple_123_masked_CS2	condtest_masked_2	11	33	400	0	300	300	0	0	132	50	-16,6015625	1	0	0	0	1	blank2r.bmp	0	1	+	0	6	C2r.bmp	492	1	blank2r.bmp	786	1	DJMR	786	1	blank2r.bmp	866	3	wunde	866	1	!	-1	1	!	-1	0	0	0	0	0	0	0	0	0	0	0	0	0	0	0	0	0	0	0	0	0	0	0	0	0	0	0
071718	09:19:19	5.0.10.0	168	associated	Rpleas_acq	Oppo	Lpleas	Amasked	CS_A	2pleas	cond_US_pleas_123_masked_CS2	condtest_masked_2	11	34	400	0	300	300	0	0	254	50	-16,6015625	0	0	0	0	1	blank2r.bmp	0	1	+	0	3	B3r.bmp	492	1	blank2r.bmp	786	1	DJMR	786	1	blank2r.bmp	866	1	wein	866	1	!	-1	1	!	-1	0	0	0	0	0	0	0	0	0	0	0	0	0	0	0	0	0	0	0	0	0	0	0	0	0	0	0
071718	09:19:19	5.0.10.0	168	associated	Rpleas_acq	Oppo	Lpleas	Amasked	CS_A	2pleas	cond_US_unple_123_masked_CS1	condtest_masked_2	11	35	400	0	300	300	0	0	117	46	-16,6015625	0	0	0	0	1	blank2r.bmp	0	1	+	0	8	C4r.bmp	492	1	blank2r.bmp	786	1	HLST	786	1	blank2r.bmp	866	3	wunde	866	1	!	-1	1	!	-1	0	0	0	0	0	0	0	0	0	0	0	0	0	0	0	0	0	0	0	0	0	0	0	0	0	0	0
071718	09:19:19	5.0.10.0	168	associated	Rpleas_acq	Oppo	Lpleas	Amasked	CS_A	2pleas	cond_US_unple_123_masked_CS2	condtest_masked_2	11	36	400	0	300	300	0	0	253	50	-16,6015625	1	0	0	0	1	blank2r.bmp	0	1	+	0	5	C1r.bmp	492	1	blank2r.bmp	786	1	DJMR	786	1	blank2r.bmp	866	1	narr	866	1	!	-1	1	!	-1	0	0	0	0	0	0	0	0	0	0	0	0	0	0	0	0	0	0	0	0	0	0	0	0	0	0	0
071718	09:19:19	5.0.10.0	168	associated	Rpleas_acq	Oppo	Lpleas	Amasked	CS_A	2pleas	cond_US_unple_123_masked_CS1	condtest_masked_2	11	37	400	0	300	300	0	0	46	50	-16,6015625	1	0	0	0	1	blank2r.bmp	0	1	+	0	4	B4r.bmp	492	1	blank2r.bmp	786	1	HLST	786	1	blank2r.bmp	866	2	geiz	866	1	!	-1	1	!	-1	0	0	0	0	0	0	0	0	0	0	0	0	0	0	0	0	0	0	0	0	0	0	0	0	0	0	0
071718	09:19:19	5.0.10.0	168	associated	Rpleas_acq	Oppo	Lpleas	Amasked	CS_A	2pleas	cond_new_unple_456_masked_CS2	condtest_masked_2	11	38	400	0	300	300	0	0	186	46	-16,6015625	0	0	0	0	1	blank2r.bmp	0	1	+	0	7	C3r.bmp	492	1	blank2r.bmp	786	1	DJMR	786	1	blank2r.bmp	866	1	feind	866	1	!	-1	1	!	-1	0	0	0	0	0	0	0	0	0	0	0	0	0	0	0	0	0	0	0	0	0	0	0	0	0	0	0
071718	09:19:19	5.0.10.0	168	associated	Rpleas_acq	Oppo	Lpleas	Amasked	CS_A	2pleas	cond_new_unple_456_masked_CS1	condtest_masked_2	11	39	400	1	300	300	0	0	395	50	-16,6015625	1	0	0	0	1	blank2r.bmp	0	1	+	0	1	B1r.bmp	492	1	blank2r.bmp	786	1	HLST	786	1	blank2r.bmp	866	3	waffe	866	1	!	1239	1	!	1292	0	0	0	0	0	0	0	0	0	0	0	0	0	0	0	0	0	0	0	0	0	0	0	0	0	0	0
071718	09:19:19	5.0.10.0	168	associated	Rpleas_acq	Oppo	Lpleas	Amasked	CS_A	2pleas	cond_new_pleas_456_masked_CS1	condtest_masked_2	11	40	400	0	300	300	0	0	251	50	-16,6015625	0	0	0	0	1	blank2r.bmp	0	1	+	0	2	B2r.bmp	492	1	blank2r.bmp	786	1	HLST	786	1	blank2r.bmp	866	2	freude	866	1	!	-1	1	!	-1	0	0	0	0	0	0	0	0	0	0	0	0	0	0	0	0	0	0	0	0	0	0	0	0	0	0	0
071718	09:19:19	5.0.10.0	168	associated	Rpleas_acq	Oppo	Lpleas	Amasked	CS_A	2pleas	cond_US_unple_456_masked_CS2	condtest_masked_3	12	1	400	0	300	300	0	0	101	46	-16,6015625	0	0	0	0	1	blank2r.bmp	0	1	+	0	6	C2r.bmp	492	1	blank2r.bmp	786	1	DJMR	786	1	blank2r.bmp	866	3	armee	866	1	!	-1	1	!	-1	0	0	0	0	0	0	0	0	0	0	0	0	0	0	0	0	0	0	0	0	0	0	0	0	0	0	0
071718	09:19:19	5.0.10.0	168	associated	Rpleas_acq	Oppo	Lpleas	Amasked	CS_A	2pleas	cond_new_pleas_123_masked_CS2	condtest_masked_3	12	2	400	0	300	300	0	0	26	50	-16,6015625	0	0	0	0	1	blank2r.bmp	0	1	+	0	8	C4r.bmp	492	1	blank2r.bmp	786	1	DJMR	786	1	blank2r.bmp	866	2	genie	866	1	!	-1	1	!	-1	0	0	0	0	0	0	0	0	0	0	0	0	0	0	0	0	0	0	0	0	0	0	0	0	0	0	0
071718	09:19:19	5.0.10.0	168	associated	Rpleas_acq	Oppo	Lpleas	Amasked	CS_A	2pleas	cond_US_unple_456_masked_CS1	condtest_masked_3	12	3	400	0	300	300	0	0	119	46	-16,6015625	0	0	0	0	1	blank2r.bmp	0	1	+	0	5	C1r.bmp	492	1	blank2r.bmp	786	1	HLST	786	1	blank2r.bmp	866	1	gegner	866	1	!	-1	1	!	-1	0	0	0	0	0	0	0	0	0	0	0	0	0	0	0	0	0	0	0	0	0	0	0	0	0	0	0
071718	09:19:19	5.0.10.0	168	associated	Rpleas_acq	Oppo	Lpleas	Amasked	CS_A	2pleas	cond_new_pleas_123_masked_CS2	condtest_masked_3	12	4	400	0	300	300	0	0	93	50	-16,6015625	0	0	0	0	1	blank2r.bmp	0	1	+	0	3	B3r.bmp	492	1	blank2r.bmp	786	1	DJMR	786	1	blank2r.bmp	866	3	reife	866	1	!	-1	1	!	-1	0	0	0	0	0	0	0	0	0	0	0	0	0	0	0	0	0	0	0	0	0	0	0	0	0	0	0
071718	09:19:19	5.0.10.0	168	associated	Rpleas_acq	Oppo	Lpleas	Amasked	CS_A	2pleas	cond_new_pleas_123_masked_CS2	condtest_masked_3	12	5	400	0	300	300	0	0	190	46	-16,6015625	1	0	0	0	1	blank2r.bmp	0	1	+	0	4	B4r.bmp	492	1	blank2r.bmp	786	1	DJMR	786	1	blank2r.bmp	866	1	genu	866	1	!	-1	1	!	-1	0	0	0	0	0	0	0	0	0	0	0	0	0	0	0	0	0	0	0	0	0	0	0	0	0	0	0
071718	09:19:19	5.0.10.0	168	associated	Rpleas_acq	Oppo	Lpleas	Amasked	CS_A	2pleas	cond_new_pleas_123_masked_CS2	condtest_masked_3	12	6	400	0	300	300	0	0	313	50	-16,6015625	0	0	0	0	1	blank2r.bmp	0	1	+	0	2	B2r.bmp	492	1	blank2r.bmp	786	1	DJMR	786	1	blank2r.bmp	866	3	reife	866	1	!	-1	1	!	-1	0	0	0	0	0	0	0	0	0	0	0	0	0	0	0	0	0	0	0	0	0	0	0	0	0	0	0
071718	09:19:19	5.0.10.0	168	associated	Rpleas_acq	Oppo	Lpleas	Amasked	CS_A	2pleas	cond_US_pleas_456_masked_CS1	condtest_masked_3	12	7	400	0	300	300	0	0	80	50	-16,6015625	0	0	0	0	1	blank2r.bmp	0	1	+	0	1	B1r.bmp	492	1	blank2r.bmp	786	1	HLST	786	1	blank2r.bmp	866	3	meer	866	1	!	-1	1	!	-1	0	0	0	0	0	0	0	0	0	0	0	0	0	0	0	0	0	0	0	0	0	0	0	0	0	0	0
071718	09:19:19	5.0.10.0	168	associated	Rpleas_acq	Oppo	Lpleas	Amasked	CS_A	2pleas	cond_US_unple_456_masked_CS2	condtest_masked_3	12	8	400	0	300	300	0	0	246	46	-16,6015625	0	0	0	0	1	blank2r.bmp	0	1	+	0	7	C3r.bmp	492	1	blank2r.bmp	786	1	DJMR	786	1	blank2r.bmp	866	2	zwang	866	1	!	-1	1	!	-1	0	0	0	0	0	0	0	0	0	0	0	0	0	0	0	0	0	0	0	0	0	0	0	0	0	0	0
071718	09:19:19	5.0.10.0	168	associated	Rpleas_acq	Oppo	Lpleas	Amasked	CS_A	2pleas	cond_new_unple_123_masked_CS1	condtest_masked_3	12	9	400	0	300	300	0	0	179	50	-16,6015625	1	0	0	0	1	blank2r.bmp	0	1	+	0	8	C4r.bmp	492	1	blank2r.bmp	786	1	HLST	786	1	blank2r.bmp	866	1	dumm	866	1	!	-1	1	!	-1	0	0	0	0	0	0	0	0	0	0	0	0	0	0	0	0	0	0	0	0	0	0	0	0	0	0	0
071718	09:19:19	5.0.10.0	168	associated	Rpleas_acq	Oppo	Lpleas	Amasked	CS_A	2pleas	cond_new_unple_123_masked_CS2	condtest_masked_3	12	10	400	0	300	300	0	0	201	46	-16,6015625	0	0	0	0	1	blank2r.bmp	0	1	+	0	1	B1r.bmp	492	1	blank2r.bmp	786	1	DJMR	786	1	blank2r.bmp	866	3	reien	866	1	!	-1	1	!	-1	0	0	0	0	0	0	0	0	0	0	0	0	0	0	0	0	0	0	0	0	0	0	0	0	0	0	0
071718	09:19:19	5.0.10.0	168	associated	Rpleas_acq	Oppo	Lpleas	Amasked	CS_A	2pleas	cond_new_pleas_123_masked_CS1	condtest_masked_3	12	11	400	0	300	300	0	0	296	50	-16,6015625	0	0	0	0	1	blank2r.bmp	0	1	+	0	7	C3r.bmp	492	1	blank2r.bmp	786	1	HLST	786	1	blank2r.bmp	866	2	genie	866	1	!	-1	1	!	-1	0	0	0	0	0	0	0	0	0	0	0	0	0	0	0	0	0	0	0	0	0	0	0	0	0	0	0
071718	09:19:19	5.0.10.0	168	associated	Rpleas_acq	Oppo	Lpleas	Amasked	CS_A	2pleas	cond_US_pleas_456_masked_CS2	condtest_masked_3	12	12	400	0	300	300	0	0	163	46	-16,6015625	1	0	0	0	1	blank2r.bmp	0	1	+	0	5	C1r.bmp	492	1	blank2r.bmp	786	1	DJMR	786	1	blank2r.bmp	866	2	frieden	866	1	!	-1	1	!	-1	0	0	0	0	0	0	0	0	0	0	0	0	0	0	0	0	0	0	0	0	0	0	0	0	0	0	0
071718	09:19:19	5.0.10.0	168	associated	Rpleas_acq	Oppo	Lpleas	Amasked	CS_A	2pleas	cond_new_pleas_123_masked_CS2	condtest_masked_3	12	13	400	0	300	300	0	0	161	50	-16,6015625	0	0	0	0	1	blank2r.bmp	0	1	+	0	2	B2r.bmp	492	1	blank2r.bmp	786	1	DJMR	786	1	blank2r.bmp	866	1	genu	866	1	!	-1	1	!	-1	0	0	0	0	0	0	0	0	0	0	0	0	0	0	0	0	0	0	0	0	0	0	0	0	0	0	0
