Equation,CorrectResponse,Correctbutton,trials_7.thisRepN,trials_7.thisTrialN,trials_7.thisN,trials_7.thisIndex,trials.thisRepN,trials.thisTrialN,trials.thisN,trials.thisIndex,trials_3.thisRepN,trials_3.thisTrialN,trials_3.thisN,trials_3.thisIndex,trials_2.thisRepN,trials_2.thisTrialN,trials_2.thisN,trials_2.thisIndex,trials_4.thisRepN,trials_4.thisTrialN,trials_4.thisN,trials_4.thisIndex,trials_5.thisRepN,trials_5.thisTrialN,trials_5.thisN,trials_5.thisIndex,thisRow.t,notes,code_marius.started,code_marius.stopped,welcome.started,welcome.stopped,instruction_study.started,instruction_study.stopped,fixationcross.started,fixationcross.stopped,blanc.started,blanc.stopped,study_control_probe.started,study_control_probe.stopped,responseKey,responseTime,scale_answer_2.keys,study_control_probe_2.started,study_control_probe_2.stopped,scale_answer_3.keys,scale_answer_3.rt,scale_answer_3.duration,blanc_2.started,blanc_2.stopped,test_attr_probe.started,test_attr_probe.stopped,recalled_attr,firstKeyTime,secondWordTime,blanc_3.started,blanc_3.stopped,test_sub_probe.started,test_sub_probe.stopped,recalled_sub,instruction_probe_end.started,instruction_probe_end.stopped,study.started,study.stopped,substantive,adjective,wordpair,task,condition,liste_sub_phase1,liste_adj_phase1,scale_answer.keys,scale_answer.rt,scale_answer.duration,code_defineWordsInit.started,code_defineWordsInit.stopped,liste_sub_phase2,study_control.started,study_control.stopped,scale_answer_4.keys,restudy_same.started,restudy_same.stopped,scale_answer_5.keys,restudy_different.started,restudy_different.stopped,scale_answer_6.keys,scale_answer_6.rt,scale_answer_6.duration,test_attr.started,test_attr.stopped,test_sub.started,test_sub.stopped,scale_answer_4.rt,scale_answer_4.duration,distractortask.started,equation_text.started,distractortask.stopped,mouse_answer.x,mouse_answer.y,mouse_answer.leftButton,mouse_answer.midButton,mouse_answer.rightButton,mouse_answer.time,mouse_answer.clicked_name,feedback_distractortask.started,feedback_distractortask.stopped,free_recall.started,text_enter.started,key_resp.started,free_recall.stopped,key_resp.keys,key_resp.rt,key_resp.duration,free_recalled_sub,mouse_continue.x,mouse_continue.y,mouse_continue.leftButton,mouse_continue.midButton,mouse_continue.rightButton,mouse_continue.time,mouse_continue.clicked_name,cued_recall.started,text_enter_2.started,correct,key_continue.started,cued_recall.stopped,recalled_attr1,key_continue.keys,key_continue.rt,key_continue.duration,cued_recall_2.started,text_enter_3.started,key_continue_2.started,cued_recall_2.stopped,recalled_attr2,key_continue_2.keys,key_continue_2.rt,key_continue_2.duration,key_resp_8.started,key_resp_8.keys,key_resp_8.rt,key_resp_8.duration,condition,date,expName,psychopyVersion,frameRate,participant,expStart,
,,,,,,,,,,,,,,,,,,,,,,,,,,,,,0.11869330005720258,0.11876079998910427,0.11876880005002022,7.801597600104287,,,,,,,,,,,,,,,,,,,,,,,,,,,,,,,,,,,,,1,,,,,,,,,,,,,,,,,,,,,,,,,,,,,,,,,,,,,,,,,,,,,,,,,,,,,,,,,,,,,,,,,,,,,,,,,,1,2023-12-07_11h21.32.028,watkins1,2023.2.3,99.69105740498512,54,2023-12-07 11h21.47.512134 +0000,
,,,,,,,,,,,,,,,,,,,,,,,,,,,,,,,,,7.801646800013259,9.667215800145641,,,,,,,,,,,,,,,,,,,,,,,,,,,,,,,,,,,1,,,,,,,,,,,,,,,,,,,,,,,,,,,,,,,,,,,,,,,,,,,,,,,,,,,,,,,,,,,,,,,,,,,,,,,,,,1,2023-12-07_11h21.32.028,watkins1,2023.2.3,99.69105740498512,54,2023-12-07 11h21.47.512134 +0000,
,,,0,0,0,0,,,,,,,,,,,,,,,,,,,,,10.6809457000345,,,,,,,,9.667230900144204,10.670961600029841,17.170586900087073,17.662070099962875,11.162926699966192,17.17042260011658,2,2.2667970000766218,None,17.662080599926412,23.666325200116262,2,2.2667970000766218,None,23.666618400020525,23.666643199976534,23.666650400031358,23.666733100079,,None,None,23.666896200040355,23.666917300084606,23.666924300137907,23.666997200110927,,,,,,,,,,1,,,,,,,,,,,,,,,,,,,,,,,,,,,,,,,,,,,,,,,,,,,,,,,,,,,,,,,,,,,,,,,,,,,,,,,,,,1,2023-12-07_11h21.32.028,watkins1,2023.2.3,99.69105740498512,54,2023-12-07 11h21.47.512134 +0000,
,,,,,,,,,,,,,,,,,,,,,,,,,,,,,,,,,,,,,,,,,,,,,,,,,,,,,,,,,,,,,23.667111200047657,26.553845999995247,,,,,,,1,,,,,,,,,,,,,,,,,,,,,,,,,,,,,,,,,,,,,,,,,,,,,,,,,,,,,,,,,,,,,,,,,,,,,,,,,,1,2023-12-07_11h21.32.028,watkins1,2023.2.3,99.69105740498512,54,2023-12-07 11h21.47.512134 +0000,
,,,,,,,0,0,0,0,,,,,,,,,,,,,,,,,27.567471800139174,,,,,,,,26.553861499996856,27.557491899933666,27.557932500028983,28.049547800095752,,,1,2.696504299994558,,,,,,,,,,,,,,,,,,,,,28.04955799994059,34.058891399996355,Telefon,kurz,"['Telefon', 'kurz']",restudy_diff,1,"['Telefon', 'Uhr', 'Blume', 'Hammer', 'Lampe', 'Tasche', 'Kerze', 'Tasse', 'Schlüssel', 'Hut', 'Löffel', 'Kette', 'Trommel', 'Brille', 'Würfel', 'Rucksack', 'Buch', 'Fahrrad', 'Flasche', 'Bürste', 'Kiste', 'Geige']",['kurz'],1,2.696504299994558,None,,,,,,,,,,,,,,,,,,,,,,,,,,,,,,,,,,,,,,,,,,,,,,,,,,,,,,,,,,,,,,,,,,,,,1,2023-12-07_11h21.32.028,watkins1,2023.2.3,99.69105740498512,54,2023-12-07 11h21.47.512134 +0000,
,,,,,,,1,0,1,0,,,,,,,,,,,,,,,,,34.06836670008488,,,,,,,,,,34.059505900135264,34.55023519997485,,,1,1.9981237000320107,,,,,,,,,,,,,,,,,,,,,34.55024589993991,40.5551293999888,Uhr,nachhaltig,"['Uhr', 'nachhaltig']",restudy_diff,1,"['Telefon', 'Uhr', 'Blume', 'Hammer', 'Lampe', 'Tasche', 'Kerze', 'Tasse', 'Schlüssel', 'Hut', 'Löffel', 'Kette', 'Trommel', 'Brille', 'Würfel', 'Rucksack', 'Buch', 'Fahrrad', 'Flasche', 'Bürste', 'Kiste', 'Geige']","['kurz', 'nachhaltig']",1,1.9981237000320107,None,,,,,,,,,,,,,,,,,,,,,,,,,,,,,,,,,,,,,,,,,,,,,,,,,,,,,,,,,,,,,,,,,,,,,1,2023-12-07_11h21.32.028,watkins1,2023.2.3,99.69105740498512,54,2023-12-07 11h21.47.512134 +0000,
,,,,,,,2,0,2,0,,,,,,,,,,,,,,,,,40.56459800014272,,,,,,,,,,40.555604099994525,41.04656799999066,,,1,1.7665514999534935,,,,,,,,,,,,,,,,,,,,,41.04657880007289,47.04979890002869,Blume,schwer,"['Blume', 'schwer']",restudy_diff,1,"['Telefon', 'Uhr', 'Blume', 'Hammer', 'Lampe', 'Tasche', 'Kerze', 'Tasse', 'Schlüssel', 'Hut', 'Löffel', 'Kette', 'Trommel', 'Brille', 'Würfel', 'Rucksack', 'Buch', 'Fahrrad', 'Flasche', 'Bürste', 'Kiste', 'Geige']","['kurz', 'nachhaltig', 'schwer']",1,1.7665514999534935,None,,,,,,,,,,,,,,,,,,,,,,,,,,,,,,,,,,,,,,,,,,,,,,,,,,,,,,,,,,,,,,,,,,,,,1,2023-12-07_11h21.32.028,watkins1,2023.2.3,99.69105740498512,54,2023-12-07 11h21.47.512134 +0000,
,,,,,,,3,0,3,0,,,,,,,,,,,,,,,,,47.05918620014563,,,,,,,,,,47.05027649994008,47.54168780008331,,,1,1.9445118000730872,,,,,,,,,,,,,,,,,,,,,47.54169810004532,53.54476139997132,Hammer,gepunktet,"['Hammer', 'gepunktet']",restudy_diff,1,"['Telefon', 'Uhr', 'Blume', 'Hammer', 'Lampe', 'Tasche', 'Kerze', 'Tasse', 'Schlüssel', 'Hut', 'Löffel', 'Kette', 'Trommel', 'Brille', 'Würfel', 'Rucksack', 'Buch', 'Fahrrad', 'Flasche', 'Bürste', 'Kiste', 'Geige']","['kurz', 'nachhaltig', 'schwer', 'gepunktet']",1,1.9445118000730872,None,,,,,,,,,,,,,,,,,,,,,,,,,,,,,,,,,,,,,,,,,,,,,,,,,,,,,,,,,,,,,,,,,,,,,1,2023-12-07_11h21.32.028,watkins1,2023.2.3,99.69105740498512,54,2023-12-07 11h21.47.512134 +0000,
,,,,,,,4,0,4,0,,,,,,,,,,,,,,,,,53.55422840011306,,,,,,,,,,53.54524890007451,54.036316599929705,,,2,1.8417472001165152,,,,,,,,,,,,,,,,,,,,,54.03632740001194,60.045290500158444,Lampe,dick,"['Lampe', 'dick']",restudy_diff,1,"['Telefon', 'Uhr', 'Blume', 'Hammer', 'Lampe', 'Tasche', 'Kerze', 'Tasse', 'Schlüssel', 'Hut', 'Löffel', 'Kette', 'Trommel', 'Brille', 'Würfel', 'Rucksack', 'Buch', 'Fahrrad', 'Flasche', 'Bürste', 'Kiste', 'Geige']","['kurz', 'nachhaltig', 'schwer', 'gepunktet', 'dick']",2,1.8417472001165152,None,,,,,,,,,,,,,,,,,,,,,,,,,,,,,,,,,,,,,,,,,,,,,,,,,,,,,,,,,,,,,,,,,,,,,1,2023-12-07_11h21.32.028,watkins1,2023.2.3,99.69105740498512,54,2023-12-07 11h21.47.512134 +0000,
,,,,,,,5,0,5,0,,,,,,,,,,,,,,,,,60.0547649001237,,,,,,,,,,60.04576350003481,60.53680679993704,,,2,1.9981461998540908,,,,,,,,,,,,,,,,,,,,,60.53681720001623,66.54202020005323,Tasche,durchsichtig,"['Tasche', 'durchsichtig']",restudy_diff,1,"['Telefon', 'Uhr', 'Blume', 'Hammer', 'Lampe', 'Tasche', 'Kerze', 'Tasse', 'Schlüssel', 'Hut', 'Löffel', 'Kette', 'Trommel', 'Brille', 'Würfel', 'Rucksack', 'Buch', 'Fahrrad', 'Flasche', 'Bürste', 'Kiste', 'Geige']","['kurz', 'nachhaltig', 'schwer', 'gepunktet', 'dick', 'durchsichtig']",2,1.9981461998540908,None,,,,,,,,,,,,,,,,,,,,,,,,,,,,,,,,,,,,,,,,,,,,,,,,,,,,,,,,,,,,,,,,,,,,,1,2023-12-07_11h21.32.028,watkins1,2023.2.3,99.69105740498512,54,2023-12-07 11h21.47.512134 +0000,
,,,,,,,6,0,6,0,,,,,,,,,,,,,,,,,66.5515479000751,,,,,,,,,,66.54251029994339,67.0336255999282,,,2,3.132525500142947,,,,,,,,,,,,,,,,,,,,,67.03363550012,73.0364967000205,Kerze,breit,"['Kerze', 'breit']",control,1,"['Telefon', 'Uhr', 'Blume', 'Hammer', 'Lampe', 'Tasche', 'Kerze', 'Tasse', 'Schlüssel', 'Hut', 'Löffel', 'Kette', 'Trommel', 'Brille', 'Würfel', 'Rucksack', 'Buch', 'Fahrrad', 'Flasche', 'Bürste', 'Kiste', 'Geige']","['kurz', 'nachhaltig', 'schwer', 'gepunktet', 'dick', 'durchsichtig', 'breit']",2,3.132525500142947,None,,,,,,,,,,,,,,,,,,,,,,,,,,,,,,,,,,,,,,,,,,,,,,,,,,,,,,,,,,,,,,,,,,,,,1,2023-12-07_11h21.32.028,watkins1,2023.2.3,99.69105740498512,54,2023-12-07 11h21.47.512134 +0000,
,,,,,,,7,0,7,0,,,,,,,,,,,,,,,,,73.04608090012334,,,,,,,,,,73.03697010013275,73.52800410008058,,,2,2.142362000187859,,,,,,,,,,,,,,,,,,,,,73.52801460004412,79.53153520007618,Tasse,klobig,"['Tasse', 'klobig']",restudy_diff,1,"['Telefon', 'Uhr', 'Blume', 'Hammer', 'Lampe', 'Tasche', 'Kerze', 'Tasse', 'Schlüssel', 'Hut', 'Löffel', 'Kette', 'Trommel', 'Brille', 'Würfel', 'Rucksack', 'Buch', 'Fahrrad', 'Flasche', 'Bürste', 'Kiste', 'Geige']","['kurz', 'nachhaltig', 'schwer', 'gepunktet', 'dick', 'durchsichtig', 'breit', 'klobig']",2,2.142362000187859,None,,,,,,,,,,,,,,,,,,,,,,,,,,,,,,,,,,,,,,,,,,,,,,,,,,,,,,,,,,,,,,,,,,,,,1,2023-12-07_11h21.32.028,watkins1,2023.2.3,99.69105740498512,54,2023-12-07 11h21.47.512134 +0000,
,,,,,,,8,0,8,0,,,,,,,,,,,,,,,,,79.54106270009652,,,,,,,,,,79.53202049992979,80.0231635000091,,,2,2.5902696000412107,,,,,,,,,,,,,,,,,,,,,80.02317339996807,86.02568860002793,Schlüssel,hässlich,"['Schlüssel', 'hässlich']",restudy_diff,1,"['Telefon', 'Uhr', 'Blume', 'Hammer', 'Lampe', 'Tasche', 'Kerze', 'Tasse', 'Schlüssel', 'Hut', 'Löffel', 'Kette', 'Trommel', 'Brille', 'Würfel', 'Rucksack', 'Buch', 'Fahrrad', 'Flasche', 'Bürste', 'Kiste', 'Geige']","['kurz', 'nachhaltig', 'schwer', 'gepunktet', 'dick', 'durchsichtig', 'breit', 'klobig', 'hässlich']",2,2.5902696000412107,None,,,,,,,,,,,,,,,,,,,,,,,,,,,,,,,,,,,,,,,,,,,,,,,,,,,,,,,,,,,,,,,,,,,,,1,2023-12-07_11h21.32.028,watkins1,2023.2.3,99.69105740498512,54,2023-12-07 11h21.47.512134 +0000,
,,,,,,,9,0,9,0,,,,,,,,,,,,,,,,,86.03516630013473,,,,,,,,,,86.02616360015236,86.51722529996186,,,3,2.0180015000514686,,,,,,,,,,,,,,,,,,,,,86.51723530003801,92.52753089996986,Hut,praktisch,"['Hut', 'praktisch']",restudy_diff,1,"['Telefon', 'Uhr', 'Blume', 'Hammer', 'Lampe', 'Tasche', 'Kerze', 'Tasse', 'Schlüssel', 'Hut', 'Löffel', 'Kette', 'Trommel', 'Brille', 'Würfel', 'Rucksack', 'Buch', 'Fahrrad', 'Flasche', 'Bürste', 'Kiste', 'Geige']","['kurz', 'nachhaltig', 'schwer', 'gepunktet', 'dick', 'durchsichtig', 'breit', 'klobig', 'hässlich', 'praktisch']",3,2.0180015000514686,None,,,,,,,,,,,,,,,,,,,,,,,,,,,,,,,,,,,,,,,,,,,,,,,,,,,,,,,,,,,,,,,,,,,,,1,2023-12-07_11h21.32.028,watkins1,2023.2.3,99.69105740498512,54,2023-12-07 11h21.47.512134 +0000,
,,,,,,,10,0,10,0,,,,,,,,,,,,,,,,,92.53710000007413,,,,,,,,,,92.52801380003802,93.01901539997198,,,3,2.4183912998996675,,,,,,,,,,,,,,,,,,,,,93.01902609993704,99.02151210000739,Löffel,groß,"['Löffel', 'groß']",restudy_diff,1,"['Telefon', 'Uhr', 'Blume', 'Hammer', 'Lampe', 'Tasche', 'Kerze', 'Tasse', 'Schlüssel', 'Hut', 'Löffel', 'Kette', 'Trommel', 'Brille', 'Würfel', 'Rucksack', 'Buch', 'Fahrrad', 'Flasche', 'Bürste', 'Kiste', 'Geige']","['kurz', 'nachhaltig', 'schwer', 'gepunktet', 'dick', 'durchsichtig', 'breit', 'klobig', 'hässlich', 'praktisch', 'groß']",3,2.4183912998996675,None,,,,,,,,,,,,,,,,,,,,,,,,,,,,,,,,,,,,,,,,,,,,,,,,,,,,,,,,,,,,,,,,,,,,,1,2023-12-07_11h21.32.028,watkins1,2023.2.3,99.69105740498512,54,2023-12-07 11h21.47.512134 +0000,
,,,,,,,11,0,11,0,,,,,,,,,,,,,,,,,99.0309222000651,,,,,,,,,,99.02200750005431,99.51300269993953,,,1,4.630126100033522,,,,,,,,,,,,,,,,,,,,,99.51301340013742,105.51550700003281,Kette,winzig,"['Kette', 'winzig']",control,1,"['Telefon', 'Uhr', 'Blume', 'Hammer', 'Lampe', 'Tasche', 'Kerze', 'Tasse', 'Schlüssel', 'Hut', 'Löffel', 'Kette', 'Trommel', 'Brille', 'Würfel', 'Rucksack', 'Buch', 'Fahrrad', 'Flasche', 'Bürste', 'Kiste', 'Geige']","['kurz', 'nachhaltig', 'schwer', 'gepunktet', 'dick', 'durchsichtig', 'breit', 'klobig', 'hässlich', 'praktisch', 'groß', 'winzig']",1,4.630126100033522,None,,,,,,,,,,,,,,,,,,,,,,,,,,,,,,,,,,,,,,,,,,,,,,,,,,,,,,,,,,,,,,,,,,,,,1,2023-12-07_11h21.32.028,watkins1,2023.2.3,99.69105740498512,54,2023-12-07 11h21.47.512134 +0000,
,,,,,,,12,0,12,0,,,,,,,,,,,,,,,,,105.5250838000793,,,,,,,,,,105.51598359993659,106.0071151999291,,,1,2.383923599962145,,,,,,,,,,,,,,,,,,,,,106.00712550012395,112.00941310008056,Trommel,krumm,"['Trommel', 'krumm']",control,1,"['Telefon', 'Uhr', 'Blume', 'Hammer', 'Lampe', 'Tasche', 'Kerze', 'Tasse', 'Schlüssel', 'Hut', 'Löffel', 'Kette', 'Trommel', 'Brille', 'Würfel', 'Rucksack', 'Buch', 'Fahrrad', 'Flasche', 'Bürste', 'Kiste', 'Geige']","['kurz', 'nachhaltig', 'schwer', 'gepunktet', 'dick', 'durchsichtig', 'breit', 'klobig', 'hässlich', 'praktisch', 'groß', 'winzig', 'krumm']",1,2.383923599962145,None,,,,,,,,,,,,,,,,,,,,,,,,,,,,,,,,,,,,,,,,,,,,,,,,,,,,,,,,,,,,,,,,,,,,,1,2023-12-07_11h21.32.028,watkins1,2023.2.3,99.69105740498512,54,2023-12-07 11h21.47.512134 +0000,
,,,,,,,13,0,13,0,,,,,,,,,,,,,,,,,112.01888839993626,,,,,,,,,,112.00988940009847,112.50088880001567,,,1,2.737640399951488,,,,,,,,,,,,,,,,,,,,,112.50089949998073,118.51132300007157,Brille,verspielt,"['Brille', 'verspielt']",control,1,"['Telefon', 'Uhr', 'Blume', 'Hammer', 'Lampe', 'Tasche', 'Kerze', 'Tasse', 'Schlüssel', 'Hut', 'Löffel', 'Kette', 'Trommel', 'Brille', 'Würfel', 'Rucksack', 'Buch', 'Fahrrad', 'Flasche', 'Bürste', 'Kiste', 'Geige']","['kurz', 'nachhaltig', 'schwer', 'gepunktet', 'dick', 'durchsichtig', 'breit', 'klobig', 'hässlich', 'praktisch', 'groß', 'winzig', 'krumm', 'verspielt']",1,2.737640399951488,None,,,,,,,,,,,,,,,,,,,,,,,,,,,,,,,,,,,,,,,,,,,,,,,,,,,,,,,,,,,,,,,,,,,,,1,2023-12-07_11h21.32.028,watkins1,2023.2.3,99.69105740498512,54,2023-12-07 11h21.47.512134 +0000,
,,,,,,,14,0,14,0,,,,,,,,,,,,,,,,,118.52080569998361,,,,,,,,,,118.51179539994337,119.00280000013299,,,2,2.9798500000033528,,,,,,,,,,,,,,,,,,,,,119.00281019997783,125.00732750003226,Würfel,glatt,"['Würfel', 'glatt']",control,1,"['Telefon', 'Uhr', 'Blume', 'Hammer', 'Lampe', 'Tasche', 'Kerze', 'Tasse', 'Schlüssel', 'Hut', 'Löffel', 'Kette', 'Trommel', 'Brille', 'Würfel', 'Rucksack', 'Buch', 'Fahrrad', 'Flasche', 'Bürste', 'Kiste', 'Geige']","['kurz', 'nachhaltig', 'schwer', 'gepunktet', 'dick', 'durchsichtig', 'breit', 'klobig', 'hässlich', 'praktisch', 'groß', 'winzig', 'krumm', 'verspielt', 'glatt']",2,2.9798500000033528,None,,,,,,,,,,,,,,,,,,,,,,,,,,,,,,,,,,,,,,,,,,,,,,,,,,,,,,,,,,,,,,,,,,,,,1,2023-12-07_11h21.32.028,watkins1,2023.2.3,99.69105740498512,54,2023-12-07 11h21.47.512134 +0000,
,,,,,,,15,0,15,0,,,,,,,,,,,,,,,,,125.01675890013576,,,,,,,,,,125.00780160003342,125.49880719999783,,,2,3.755740499822423,,,,,,,,,,,,,,,,,,,,,125.49881689995527,131.5091115999967,Rucksack,elegant,"['Rucksack', 'elegant']",restudy_diff,1,"['Telefon', 'Uhr', 'Blume', 'Hammer', 'Lampe', 'Tasche', 'Kerze', 'Tasse', 'Schlüssel', 'Hut', 'Löffel', 'Kette', 'Trommel', 'Brille', 'Würfel', 'Rucksack', 'Buch', 'Fahrrad', 'Flasche', 'Bürste', 'Kiste', 'Geige']","['kurz', 'nachhaltig', 'schwer', 'gepunktet', 'dick', 'durchsichtig', 'breit', 'klobig', 'hässlich', 'praktisch', 'groß', 'winzig', 'krumm', 'verspielt', 'glatt', 'elegant']",2,3.755740499822423,None,,,,,,,,,,,,,,,,,,,,,,,,,,,,,,,,,,,,,,,,,,,,,,,,,,,,,,,,,,,,,,,,,,,,,1,2023-12-07_11h21.32.028,watkins1,2023.2.3,99.69105740498512,54,2023-12-07 11h21.47.512134 +0000,
,,,,,,,16,0,16,0,,,,,,,,,,,,,,,,,131.51853720005602,,,,,,,,,,131.50959110003896,132.00074789999053,,,2,3.3506420999765396,,,,,,,,,,,,,,,,,,,,,132.00075819995254,138.00892799999565,Buch,lang,"['Buch', 'lang']",restudy_diff,1,"['Telefon', 'Uhr', 'Blume', 'Hammer', 'Lampe', 'Tasche', 'Kerze', 'Tasse', 'Schlüssel', 'Hut', 'Löffel', 'Kette', 'Trommel', 'Brille', 'Würfel', 'Rucksack', 'Buch', 'Fahrrad', 'Flasche', 'Bürste', 'Kiste', 'Geige']","['kurz', 'nachhaltig', 'schwer', 'gepunktet', 'dick', 'durchsichtig', 'breit', 'klobig', 'hässlich', 'praktisch', 'groß', 'winzig', 'krumm', 'verspielt', 'glatt', 'elegant', 'lang']",2,3.3506420999765396,None,,,,,,,,,,,,,,,,,,,,,,,,,,,,,,,,,,,,,,,,,,,,,,,,,,,,,,,,,,,,,,,,,,,,,1,2023-12-07_11h21.32.028,watkins1,2023.2.3,99.69105740498512,54,2023-12-07 11h21.47.512134 +0000,
,,,,,,,17,0,17,0,,,,,,,,,,,,,,,,,138.01846810011193,,,,,,,,,,138.0094135000836,138.50046549993567,,,3,1.4337804999668151,,,,,,,,,,,,,,,,,,,,,138.500475600129,144.50765189994127,Fahrrad,robust,"['Fahrrad', 'robust']",restudy_diff,1,"['Telefon', 'Uhr', 'Blume', 'Hammer', 'Lampe', 'Tasche', 'Kerze', 'Tasse', 'Schlüssel', 'Hut', 'Löffel', 'Kette', 'Trommel', 'Brille', 'Würfel', 'Rucksack', 'Buch', 'Fahrrad', 'Flasche', 'Bürste', 'Kiste', 'Geige']","['kurz', 'nachhaltig', 'schwer', 'gepunktet', 'dick', 'durchsichtig', 'breit', 'klobig', 'hässlich', 'praktisch', 'groß', 'winzig', 'krumm', 'verspielt', 'glatt', 'elegant', 'lang', 'robust']",3,1.4337804999668151,None,,,,,,,,,,,,,,,,,,,,,,,,,,,,,,,,,,,,,,,,,,,,,,,,,,,,,,,,,,,,,,,,,,,,,1,2023-12-07_11h21.32.028,watkins1,2023.2.3,99.69105740498512,54,2023-12-07 11h21.47.512134 +0000,
,,,,,,,18,0,18,0,,,,,,,,,,,,,,,,,144.5171267001424,,,,,,,,,,144.50812639994547,144.9992482000962,,,3,1.6957470001652837,,,,,,,,,,,,,,,,,,,,,144.99925890006125,151.00816550012678,Flasche,teuer,"['Flasche', 'teuer']",control,1,"['Telefon', 'Uhr', 'Blume', 'Hammer', 'Lampe', 'Tasche', 'Kerze', 'Tasse', 'Schlüssel', 'Hut', 'Löffel', 'Kette', 'Trommel', 'Brille', 'Würfel', 'Rucksack', 'Buch', 'Fahrrad', 'Flasche', 'Bürste', 'Kiste', 'Geige']","['kurz', 'nachhaltig', 'schwer', 'gepunktet', 'dick', 'durchsichtig', 'breit', 'klobig', 'hässlich', 'praktisch', 'groß', 'winzig', 'krumm', 'verspielt', 'glatt', 'elegant', 'lang', 'robust', 'teuer']",3,1.6957470001652837,None,,,,,,,,,,,,,,,,,,,,,,,,,,,,,,,,,,,,,,,,,,,,,,,,,,,,,,,,,,,,,,,,,,,,,1,2023-12-07_11h21.32.028,watkins1,2023.2.3,99.69105740498512,54,2023-12-07 11h21.47.512134 +0000,
,,,,,,,19,0,19,0,,,,,,,,,,,,,,,,,151.01758420001715,,,,,,,,,,151.0086473999545,151.49977859994397,,,2,2.9871920000296086,,,,,,,,,,,,,,,,,,,,,151.49978920002468,157.50918720010668,Bürste,schlicht,"['Bürste', 'schlicht']",control,1,"['Telefon', 'Uhr', 'Blume', 'Hammer', 'Lampe', 'Tasche', 'Kerze', 'Tasse', 'Schlüssel', 'Hut', 'Löffel', 'Kette', 'Trommel', 'Brille', 'Würfel', 'Rucksack', 'Buch', 'Fahrrad', 'Flasche', 'Bürste', 'Kiste', 'Geige']","['kurz', 'nachhaltig', 'schwer', 'gepunktet', 'dick', 'durchsichtig', 'breit', 'klobig', 'hässlich', 'praktisch', 'groß', 'winzig', 'krumm', 'verspielt', 'glatt', 'elegant', 'lang', 'robust', 'teuer', 'schlicht']",2,2.9871920000296086,None,,,,,,,,,,,,,,,,,,,,,,,,,,,,,,,,,,,,,,,,,,,,,,,,,,,,,,,,,,,,,,,,,,,,,1,2023-12-07_11h21.32.028,watkins1,2023.2.3,99.69105740498512,54,2023-12-07 11h21.47.512134 +0000,
,,,,,,,20,0,20,0,,,,,,,,,,,,,,,,,157.51870939997025,,,,,,,,,,157.5096609001048,158.00073310011066,,,1,1.7662637999746948,,,,,,,,,,,,,,,,,,,,,158.00074369995855,164.00189399998635,Kiste,biegsam,"['Kiste', 'biegsam']",restudy_diff,1,"['Telefon', 'Uhr', 'Blume', 'Hammer', 'Lampe', 'Tasche', 'Kerze', 'Tasse', 'Schlüssel', 'Hut', 'Löffel', 'Kette', 'Trommel', 'Brille', 'Würfel', 'Rucksack', 'Buch', 'Fahrrad', 'Flasche', 'Bürste', 'Kiste', 'Geige']","['kurz', 'nachhaltig', 'schwer', 'gepunktet', 'dick', 'durchsichtig', 'breit', 'klobig', 'hässlich', 'praktisch', 'groß', 'winzig', 'krumm', 'verspielt', 'glatt', 'elegant', 'lang', 'robust', 'teuer', 'schlicht', 'biegsam']",1,1.7662637999746948,None,,,,,,,,,,,,,,,,,,,,,,,,,,,,,,,,,,,,,,,,,,,,,,,,,,,,,,,,,,,,,,,,,,,,,1,2023-12-07_11h21.32.028,watkins1,2023.2.3,99.69105740498512,54,2023-12-07 11h21.47.512134 +0000,
,,,,,,,21,0,21,0,,,,,,,,,,,,,,,,,164.0113568000961,,,,,,,,,,164.00238299998455,164.49345070007257,,,3,2.8647299001459032,,,,,,,,,,,,,,,,,,,,,164.49346080003306,170.49416920007206,Geige,sauber,"['Geige', 'sauber']",restudy_diff,1,"['Telefon', 'Uhr', 'Blume', 'Hammer', 'Lampe', 'Tasche', 'Kerze', 'Tasse', 'Schlüssel', 'Hut', 'Löffel', 'Kette', 'Trommel', 'Brille', 'Würfel', 'Rucksack', 'Buch', 'Fahrrad', 'Flasche', 'Bürste', 'Kiste', 'Geige']","['kurz', 'nachhaltig', 'schwer', 'gepunktet', 'dick', 'durchsichtig', 'breit', 'klobig', 'hässlich', 'praktisch', 'groß', 'winzig', 'krumm', 'verspielt', 'glatt', 'elegant', 'lang', 'robust', 'teuer', 'schlicht', 'biegsam', 'sauber']",3,2.8647299001459032,None,,,,,,,,,,,,,,,,,,,,,,,,,,,,,,,,,,,,,,,,,,,,,,,,,,,,,,,,,,,,,,,,,,,,,1,2023-12-07_11h21.32.028,watkins1,2023.2.3,99.69105740498512,54,2023-12-07 11h21.47.512134 +0000,
,,,,,,,,,,,0,0,0,0,,,,,,,,,,,,,170.5036545000039,,,,,,,,,,170.49497410003096,170.98576760012656,,,2,1.7595766000449657,,,,,,,,,,,,None,None,,,,,,,,,,Kiste,kalt,"['Kiste', 'kalt']",restudy_diff,1,,,,,,170.49490029993467,170.49494839995168,"['Kiste', 'Hut', 'Geige', 'Socke', 'Blume', 'Jacke', 'Fahrrad', 'Schere', 'Telefon', 'Stift', 'Tasse', 'Tasche', 'Lampe', 'Ring', 'Buch', 'Schlüssel', 'Hammer', 'Uhr', 'Löffel', 'Rucksack', 'Eimer', 'Kamera', 'Vase']",170.98577830009162,170.98862700001337,None,170.9888053999748,170.99136830004863,None,170.99152000015602,176.99217840004712,2,1.7595766000449657,None,176.9925752999261,176.9938672001008,176.99387970007956,176.9949384999927,,,,,,,,,,,,,,,,,,,,,,,,,,,,,,,,,,,,,,,,,,,,,,,,,,,1,2023-12-07_11h21.32.028,watkins1,2023.2.3,99.69105740498512,54,2023-12-07 11h21.47.512134 +0000,
,,,,,,,,,,,1,0,1,0,,,,,,,,,,,,,177.00158510007896,,,,,,,,,,176.99521570000798,177.4935435000807,,,1,2.3966747999656945,,,,,,,,,,,,None,None,,,,,,,,,,Hut,strahlend,"['Hut', 'strahlend']",restudy_diff,1,,,,,,176.99514929996803,176.99518810003065,"['Kiste', 'Hut', 'Geige', 'Socke', 'Blume', 'Jacke', 'Fahrrad', 'Schere', 'Telefon', 'Stift', 'Tasse', 'Tasche', 'Lampe', 'Ring', 'Buch', 'Schlüssel', 'Hammer', 'Uhr', 'Löffel', 'Rucksack', 'Eimer', 'Kamera', 'Vase']",177.49355389992706,177.49600600008853,None,177.49612249992788,177.4984214999713,None,177.49852619995363,183.5044540001545,1,2.3966747999656945,None,183.50473170005716,183.50587989995256,183.50589210004546,183.50715860002674,,,,,,,,,,,,,,,,,,,,,,,,,,,,,,,,,,,,,,,,,,,,,,,,,,,1,2023-12-07_11h21.32.028,watkins1,2023.2.3,99.69105740498512,54,2023-12-07 11h21.47.512134 +0000,
,,,,,,,,,,,2,0,2,0,,,,,,,,,,,,,183.5139148000162,,,,,,,,,,183.50742979999632,184.00601040013134,,,1,1.5151215000078082,,,,,,,,,,,,None,None,,,,,,,,,,Geige,kratzig,"['Geige', 'kratzig']",restudy_diff,1,,,,,,183.50736519997008,183.50740300002508,"['Kiste', 'Hut', 'Geige', 'Socke', 'Blume', 'Jacke', 'Fahrrad', 'Schere', 'Telefon', 'Stift', 'Tasse', 'Tasche', 'Lampe', 'Ring', 'Buch', 'Schlüssel', 'Hammer', 'Uhr', 'Löffel', 'Rucksack', 'Eimer', 'Kamera', 'Vase']",184.00602179998532,184.00910170003772,None,184.0092605999671,184.01193700009026,None,184.01204279996455,190.01629250007682,1,1.5151215000078082,None,190.01657360000536,190.01788920001127,190.01790120010264,190.01911350013688,,,,,,,,,,,,,,,,,,,,,,,,,,,,,,,,,,,,,,,,,,,,,,,,,,,1,2023-12-07_11h21.32.028,watkins1,2023.2.3,99.69105740498512,54,2023-12-07 11h21.47.512134 +0000,
,,,,,,,,,,,3,0,3,0,,,,,,,,,,,,,190.02585029997863,,,,,,,,,,190.0194689000491,190.5178894000128,,,[],[],,,,,,,,,,,,None,None,,,,,,,,,,Socke,gestreift,"['Socke', 'gestreift']",control,1,,,,,,190.01940160011873,190.0194403999485,"['Kiste', 'Hut', 'Geige', 'Socke', 'Blume', 'Jacke', 'Fahrrad', 'Schere', 'Telefon', 'Stift', 'Tasse', 'Tasche', 'Lampe', 'Ring', 'Buch', 'Schlüssel', 'Hammer', 'Uhr', 'Löffel', 'Rucksack', 'Eimer', 'Kamera', 'Vase']",190.51790249999613,196.52839899994433,3,196.52876330004074,196.53158230008557,None,196.53169080009684,196.53432750003412,None,,,196.53443230013363,196.53560790000483,196.53561970009468,196.53689590003341,1.6643982999958098,None,,,,,,,,,,,,,,,,,,,,,,,,,,,,,,,,,,,,,,,,,,,,,,,,,1,2023-12-07_11h21.32.028,watkins1,2023.2.3,99.69105740498512,54,2023-12-07 11h21.47.512134 +0000,
,,,,,,,,,,,4,0,4,0,,,,,,,,,,,,,196.54051950015128,,,,,,,,,,196.53716780012473,197.03408570005558,,,2,2.809676299802959,,,,,,,,,,,,None,None,,,,,,,,,,Blume,lustig,"['Blume', 'lustig']",restudy_diff,1,,,,,,196.53710349998437,196.5371425000485,"['Kiste', 'Hut', 'Geige', 'Socke', 'Blume', 'Jacke', 'Fahrrad', 'Schere', 'Telefon', 'Stift', 'Tasse', 'Tasche', 'Lampe', 'Ring', 'Buch', 'Schlüssel', 'Hammer', 'Uhr', 'Löffel', 'Rucksack', 'Eimer', 'Kamera', 'Vase']",197.03409690014087,197.0358543000184,None,197.03597269998863,197.037412900012,None,197.03751819999889,203.04502449999563,2,2.809676299802959,None,203.04531030007638,203.04660720005631,203.04661900014617,203.04781450005248,,,,,,,,,,,,,,,,,,,,,,,,,,,,,,,,,,,,,,,,,,,,,,,,,,,1,2023-12-07_11h21.32.028,watkins1,2023.2.3,99.69105740498512,54,2023-12-07 11h21.47.512134 +0000,
,,,,,,,,,,,5,0,5,0,,,,,,,,,,,,,203.05448759999126,,,,,,,,,,203.04808770003729,203.54663580004126,,,[],[],,,,,,,,,,,,None,None,,,,,,,,,,Jacke,bunt,"['Jacke', 'bunt']",control,1,,,,,,203.0480208999943,203.04805899993517,"['Kiste', 'Hut', 'Geige', 'Socke', 'Blume', 'Jacke', 'Fahrrad', 'Schere', 'Telefon', 'Stift', 'Tasse', 'Tasche', 'Lampe', 'Ring', 'Buch', 'Schlüssel', 'Hammer', 'Uhr', 'Löffel', 'Rucksack', 'Eimer', 'Kamera', 'Vase']",203.54664700012654,209.55307210003957,3,209.55336040002294,209.55604070005938,None,209.55614789994434,209.5585785000585,None,,,209.55868409993127,209.55987050011754,209.55988249997608,209.56093590008095,3.659670599969104,None,,,,,,,,,,,,,,,,,,,,,,,,,,,,,,,,,,,,,,,,,,,,,,,,,1,2023-12-07_11h21.32.028,watkins1,2023.2.3,99.69105740498512,54,2023-12-07 11h21.47.512134 +0000,
,,,,,,,,,,,6,0,6,0,,,,,,,,,,,,,209.5646341999527,,,,,,,,,,209.5612087000627,210.05755030014552,,,3,0.9301068000495434,,,,,,,,,,,,None,None,,,,,,,,,,Fahrrad,sportlich,"['Fahrrad', 'sportlich']",restudy_diff,1,,,,,,209.56114470004104,209.56118419999257,"['Kiste', 'Hut', 'Geige', 'Socke', 'Blume', 'Jacke', 'Fahrrad', 'Schere', 'Telefon', 'Stift', 'Tasse', 'Tasche', 'Lampe', 'Ring', 'Buch', 'Schlüssel', 'Hammer', 'Uhr', 'Löffel', 'Rucksack', 'Eimer', 'Kamera', 'Vase']",210.05756080010906,210.05918710003607,None,210.0593047000002,210.06080109998584,None,210.06090639997274,216.06410400010645,3,0.9301068000495434,None,216.06438140012324,216.06594100012444,216.06595379998907,216.06733110011555,,,,,,,,,,,,,,,,,,,,,,,,,,,,,,,,,,,,,,,,,,,,,,,,,,,1,2023-12-07_11h21.32.028,watkins1,2023.2.3,99.69105740498512,54,2023-12-07 11h21.47.512134 +0000,
,,,,,,,,,,,7,0,7,0,,,,,,,,,,,,,216.07354500005022,,,,,,,,,,216.06760310009122,216.56560149998404,,,[],[],,,,,,,,,,,,None,None,,,,,,,,,,Schere,flach,"['Schere', 'flach']",control,1,,,,,,216.0675383999478,216.06757690012455,"['Kiste', 'Hut', 'Geige', 'Socke', 'Blume', 'Jacke', 'Fahrrad', 'Schere', 'Telefon', 'Stift', 'Tasse', 'Tasche', 'Lampe', 'Ring', 'Buch', 'Schlüssel', 'Hammer', 'Uhr', 'Löffel', 'Rucksack', 'Eimer', 'Kamera', 'Vase']",216.56561199994758,222.57406010013074,1,222.5743336000014,222.57706540008076,None,222.57717090006918,222.5796749999281,None,,,222.57977920002304,222.58095410000533,222.5809661000967,222.58211369998753,2.641560500022024,None,,,,,,,,,,,,,,,,,,,,,,,,,,,,,,,,,,,,,,,,,,,,,,,,,1,2023-12-07_11h21.32.028,watkins1,2023.2.3,99.69105740498512,54,2023-12-07 11h21.47.512134 +0000,
,,,,,,,,,,,8,0,8,0,,,,,,,,,,,,,222.585723800119,,,,,,,,,,222.58238189993426,223.07849430013448,,,2,1.1729982001706958,,,,,,,,,,,,None,None,,,,,,,,,,Telefon,nass,"['Telefon', 'nass']",restudy_diff,1,,,,,,222.58231830014847,222.58235809998587,"['Kiste', 'Hut', 'Geige', 'Socke', 'Blume', 'Jacke', 'Fahrrad', 'Schere', 'Telefon', 'Stift', 'Tasse', 'Tasche', 'Lampe', 'Ring', 'Buch', 'Schlüssel', 'Hammer', 'Uhr', 'Löffel', 'Rucksack', 'Eimer', 'Kamera', 'Vase']",223.0785052999854,223.08029190008529,None,223.08041359996423,223.0819870000705,None,223.0820947000757,229.08939839992672,2,1.1729982001706958,None,229.08967340015806,229.09102539997548,229.0910374999512,229.09210150013678,,,,,,,,,,,,,,,,,,,,,,,,,,,,,,,,,,,,,,,,,,,,,,,,,,,1,2023-12-07_11h21.32.028,watkins1,2023.2.3,99.69105740498512,54,2023-12-07 11h21.47.512134 +0000,
,,,,,,,,,,,9,0,9,0,,,,,,,,,,,,,229.09896999993362,,,,,,,,,,229.0923746000044,229.59090640000068,,,[],[],,,,,,,,,,,,None,None,,,,,,,,,,Stift,gut,"['Stift', 'gut']",control,1,,,,,,229.09230990009382,229.09234790015034,"['Kiste', 'Hut', 'Geige', 'Socke', 'Blume', 'Jacke', 'Fahrrad', 'Schere', 'Telefon', 'Stift', 'Tasse', 'Tasche', 'Lampe', 'Ring', 'Buch', 'Schlüssel', 'Hammer', 'Uhr', 'Löffel', 'Rucksack', 'Eimer', 'Kamera', 'Vase']",229.59091789997183,235.59482150012627,3,235.59510300005786,235.59761890000664,None,235.5977251001168,235.60020139999688,None,,,235.60030489997007,235.6014690999873,235.60148070007563,235.60251400014386,1.9362390998285264,None,,,,,,,,,,,,,,,,,,,,,,,,,,,,,,,,,,,,,,,,,,,,,,,,,1,2023-12-07_11h21.32.028,watkins1,2023.2.3,99.69105740498512,54,2023-12-07 11h21.47.512134 +0000,
,,,,,,,,,,,10,0,10,0,,,,,,,,,,,,,235.60621150000952,,,,,,,,,,235.6027832000982,236.09913749992847,,,3,1.280805999878794,,,,,,,,,,,,None,None,,,,,,,,,,Tasse,rustikal,"['Tasse', 'rustikal']",restudy_diff,1,,,,,,235.60272040008567,235.60275870002806,"['Kiste', 'Hut', 'Geige', 'Socke', 'Blume', 'Jacke', 'Fahrrad', 'Schere', 'Telefon', 'Stift', 'Tasse', 'Tasche', 'Lampe', 'Ring', 'Buch', 'Schlüssel', 'Hammer', 'Uhr', 'Löffel', 'Rucksack', 'Eimer', 'Kamera', 'Vase']",236.09914930001833,236.1007195999846,None,236.10083819995634,236.10228760004975,None,236.102391500026,242.1082705000881,3,1.280805999878794,None,242.10855090012774,242.1099243001081,242.10993640008382,242.1111743999645,,,,,,,,,,,,,,,,,,,,,,,,,,,,,,,,,,,,,,,,,,,,,,,,,,,1,2023-12-07_11h21.32.028,watkins1,2023.2.3,99.69105740498512,54,2023-12-07 11h21.47.512134 +0000,
,,,,,,,,,,,11,0,11,0,,,,,,,,,,,,,242.11777699994855,,,,,,,,,,242.11144939996302,242.6099213999696,,,2,2.2954834999982268,,,,,,,,,,,,None,None,,,,,,,,,,Tasche,flauschig,"['Tasche', 'flauschig']",restudy_diff,1,,,,,,242.1113847999368,242.1114235999994,"['Kiste', 'Hut', 'Geige', 'Socke', 'Blume', 'Jacke', 'Fahrrad', 'Schere', 'Telefon', 'Stift', 'Tasse', 'Tasche', 'Lampe', 'Ring', 'Buch', 'Schlüssel', 'Hammer', 'Uhr', 'Löffel', 'Rucksack', 'Eimer', 'Kamera', 'Vase']",242.60993209993467,242.61269720015116,None,242.61281770002097,242.61542940000072,None,242.6155356001109,248.61643339996226,2,2.2954834999982268,None,248.61670910008252,248.61811070004478,248.6181228000205,248.619386699982,,,,,,,,,,,,,,,,,,,,,,,,,,,,,,,,,,,,,,,,,,,,,,,,,,,1,2023-12-07_11h21.32.028,watkins1,2023.2.3,99.69105740498512,54,2023-12-07 11h21.47.512134 +0000,
,,,,,,,,,,,12,0,12,0,,,,,,,,,,,,,248.62590999994427,,,,,,,,,,248.61965640005656,249.11802719999105,,,3,2.411561199929565,,,,,,,,,,,,None,None,,,,,,,,,,Lampe,schmutzig,"['Lampe', 'schmutzig']",restudy_diff,1,,,,,,248.61959230015054,248.61963029997423,"['Kiste', 'Hut', 'Geige', 'Socke', 'Blume', 'Jacke', 'Fahrrad', 'Schere', 'Telefon', 'Stift', 'Tasse', 'Tasche', 'Lampe', 'Ring', 'Buch', 'Schlüssel', 'Hammer', 'Uhr', 'Löffel', 'Rucksack', 'Eimer', 'Kamera', 'Vase']",249.11803760007024,249.12076970003545,None,249.12088640010916,249.1234751001466,None,249.1235791000072,255.1325032999739,3,2.411561199929565,None,255.13278220011853,255.13415409997106,255.1341663999483,255.1354257001076,,,,,,,,,,,,,,,,,,,,,,,,,,,,,,,,,,,,,,,,,,,,,,,,,,,1,2023-12-07_11h21.32.028,watkins1,2023.2.3,99.69105740498512,54,2023-12-07 11h21.47.512134 +0000,
,,,,,,,,,,,13,0,13,0,,,,,,,,,,,,,255.14198029995896,,,,,,,,,,255.13570360001177,255.6341147001367,,,[],[],,,,,,,,,,,,None,None,,,,,,,,,,Ring,matt,"['Ring', 'matt']",control,1,,,,,,255.13563939998858,255.13567720004357,"['Kiste', 'Hut', 'Geige', 'Socke', 'Blume', 'Jacke', 'Fahrrad', 'Schere', 'Telefon', 'Stift', 'Tasse', 'Tasche', 'Lampe', 'Ring', 'Buch', 'Schlüssel', 'Hammer', 'Uhr', 'Löffel', 'Rucksack', 'Eimer', 'Kamera', 'Vase']",255.6341252999846,261.63528990000486,3,261.6355735999532,261.63801380014047,None,261.63812020001933,261.64041090011597,None,,,261.64051469997503,261.6415629000403,261.6415749001317,261.6426258001011,1.7012434001080692,None,,,,,,,,,,,,,,,,,,,,,,,,,,,,,,,,,,,,,,,,,,,,,,,,,1,2023-12-07_11h21.32.028,watkins1,2023.2.3,99.69105740498512,54,2023-12-07 11h21.47.512134 +0000,
,,,,,,,,,,,14,0,14,0,,,,,,,,,,,,,261.64632800011896,,,,,,,,,,261.6428946000524,262.1387624000199,,,1,2.8179738000035286,,,,,,,,,,,,None,None,,,,,,,,,,Buch,hübsch,"['Buch', 'hübsch']",restudy_diff,1,,,,,,261.64283110015094,261.64287040010095,"['Kiste', 'Hut', 'Geige', 'Socke', 'Blume', 'Jacke', 'Fahrrad', 'Schere', 'Telefon', 'Stift', 'Tasse', 'Tasche', 'Lampe', 'Ring', 'Buch', 'Schlüssel', 'Hammer', 'Uhr', 'Löffel', 'Rucksack', 'Eimer', 'Kamera', 'Vase']",262.1387730001006,262.14023829996586,None,262.1403562000487,262.1416850001551,None,262.14178890013136,268.14620380010456,1,2.8179738000035286,None,268.1464821000118,268.1476873999927,268.14769949996844,268.14891430013813,,,,,,,,,,,,,,,,,,,,,,,,,,,,,,,,,,,,,,,,,,,,,,,,,,,1,2023-12-07_11h21.32.028,watkins1,2023.2.3,99.69105740498512,54,2023-12-07 11h21.47.512134 +0000,
,,,,,,,,,,,15,0,15,0,,,,,,,,,,,,,268.1556810999755,,,,,,,,,,268.14918490010314,268.6478244001046,,,3,1.2092166999354959,,,,,,,,,,,,None,None,,,,,,,,,,Schlüssel,kaputt,"['Schlüssel', 'kaputt']",restudy_diff,1,,,,,,268.14912090008147,268.1491591001395,"['Kiste', 'Hut', 'Geige', 'Socke', 'Blume', 'Jacke', 'Fahrrad', 'Schere', 'Telefon', 'Stift', 'Tasse', 'Tasche', 'Lampe', 'Ring', 'Buch', 'Schlüssel', 'Hammer', 'Uhr', 'Löffel', 'Rucksack', 'Eimer', 'Kamera', 'Vase']",268.64783479995094,268.65071390010417,None,268.65083110006526,268.6534436000511,None,268.6535479000304,274.6570439999923,3,1.2092166999354959,None,274.6573219001293,274.6587167000398,274.65872900001705,274.6599296000786,,,,,,,,,,,,,,,,,,,,,,,,,,,,,,,,,,,,,,,,,,,,,,,,,,,1,2023-12-07_11h21.32.028,watkins1,2023.2.3,99.69105740498512,54,2023-12-07 11h21.47.512134 +0000,
,,,,,,,,,,,16,0,16,0,,,,,,,,,,,,,274.6666329000145,,,,,,,,,,274.6602020000573,275.158694999991,,,2,2.034848100040108,,,,,,,,,,,,None,None,,,,,,,,,,Hammer,hohl,"['Hammer', 'hohl']",restudy_diff,1,,,,,,274.6601374000311,274.6601760000922,"['Kiste', 'Hut', 'Geige', 'Socke', 'Blume', 'Jacke', 'Fahrrad', 'Schere', 'Telefon', 'Stift', 'Tasse', 'Tasche', 'Lampe', 'Ring', 'Buch', 'Schlüssel', 'Hammer', 'Uhr', 'Löffel', 'Rucksack', 'Eimer', 'Kamera', 'Vase']",275.1587054000702,275.1615395999979,None,275.161656799959,275.16424840013497,None,275.16435270011425,281.1652744000312,2,2.034848100040108,None,281.16555369994603,281.16686800005846,281.1668803000357,281.16793430014513,,,,,,,,,,,,,,,,,,,,,,,,,,,,,,,,,,,,,,,,,,,,,,,,,,,1,2023-12-07_11h21.32.028,watkins1,2023.2.3,99.69105740498512,54,2023-12-07 11h21.47.512134 +0000,
,,,,,,,,,,,17,0,17,0,,,,,,,,,,,,,281.17473020008765,,,,,,,,,,281.1682039999869,281.6667657000944,,,2,1.8716174000874162,,,,,,,,,,,,None,None,,,,,,,,,,Uhr,niedlich,"['Uhr', 'niedlich']",restudy_diff,1,,,,,,281.16813939996064,281.1681776000187,"['Kiste', 'Hut', 'Geige', 'Socke', 'Blume', 'Jacke', 'Fahrrad', 'Schere', 'Telefon', 'Stift', 'Tasse', 'Tasche', 'Lampe', 'Ring', 'Buch', 'Schlüssel', 'Hammer', 'Uhr', 'Löffel', 'Rucksack', 'Eimer', 'Kamera', 'Vase']",281.6667762999423,281.6691799000837,None,281.6692977999337,281.6716970000416,None,281.671800600132,287.6746551999822,2,1.8716174000874162,None,287.6749358000234,287.67612110008486,287.6761330999434,287.6773904999718,,,,,,,,,,,,,,,,,,,,,,,,,,,,,,,,,,,,,,,,,,,,,,,,,,,1,2023-12-07_11h21.32.028,watkins1,2023.2.3,99.69105740498512,54,2023-12-07 11h21.47.512134 +0000,
,,,,,,,,,,,18,0,18,0,,,,,,,,,,,,,287.6842334000394,,,,,,,,,,287.67766489996575,288.1763037000783,,,1,1.7691724000032991,,,,,,,,,,,,None,None,,,,,,,,,,Löffel,dunkel,"['Löffel', 'dunkel']",restudy_diff,1,,,,,,287.67760100006126,287.6776390001178,"['Kiste', 'Hut', 'Geige', 'Socke', 'Blume', 'Jacke', 'Fahrrad', 'Schere', 'Telefon', 'Stift', 'Tasse', 'Tasche', 'Lampe', 'Ring', 'Buch', 'Schlüssel', 'Hammer', 'Uhr', 'Löffel', 'Rucksack', 'Eimer', 'Kamera', 'Vase']",288.17631489993073,288.17907160008326,None,288.17919320007786,288.18194840010256,None,288.18205419997685,294.1882064000238,1,1.7691724000032991,None,294.1884876000695,294.18980880011804,294.1898211000953,294.19125419994816,,,,,,,,,,,,,,,,,,,,,,,,,,,,,,,,,,,,,,,,,,,,,,,,,,,1,2023-12-07_11h21.32.028,watkins1,2023.2.3,99.69105740498512,54,2023-12-07 11h21.47.512134 +0000,
,,,,,,,,,,,19,0,19,0,,,,,,,,,,,,,294.1977707000915,,,,,,,,,,294.19152850005776,294.6898779999465,,,1,1.8151926998980343,,,,,,,,,,,,None,None,,,,,,,,,,Rucksack,blass,"['Rucksack', 'blass']",restudy_diff,1,,,,,,294.1914638001472,294.19150270009413,"['Kiste', 'Hut', 'Geige', 'Socke', 'Blume', 'Jacke', 'Fahrrad', 'Schere', 'Telefon', 'Stift', 'Tasse', 'Tasche', 'Lampe', 'Ring', 'Buch', 'Schlüssel', 'Hammer', 'Uhr', 'Löffel', 'Rucksack', 'Eimer', 'Kamera', 'Vase']",294.68988920003176,294.69267860008404,None,294.692800299963,294.6955607000273,None,294.6956678000279,300.7009664999787,1,1.8151926998980343,None,300.7012515999377,300.7026112000458,300.7026236001402,300.70378390001133,,,,,,,,,,,,,,,,,,,,,,,,,,,,,,,,,,,,,,,,,,,,,,,,,,,1,2023-12-07_11h21.32.028,watkins1,2023.2.3,99.69105740498512,54,2023-12-07 11h21.47.512134 +0000,
,,,,,,,,,,,20,0,20,0,,,,,,,,,,,,,300.7104561000597,,,,,,,,,,300.70405480009504,301.20263570011593,,,[],[],,,,,,,,,,,,None,None,,,,,,,,,,Eimer,neu,"['Eimer', 'neu']",control,1,,,,,,300.7039892000612,300.7040264001116,"['Kiste', 'Hut', 'Geige', 'Socke', 'Blume', 'Jacke', 'Fahrrad', 'Schere', 'Telefon', 'Stift', 'Tasse', 'Tasche', 'Lampe', 'Ring', 'Buch', 'Schlüssel', 'Hammer', 'Uhr', 'Löffel', 'Rucksack', 'Eimer', 'Kamera', 'Vase']",301.2026474000886,307.20865719998255,3,307.2089550001547,307.2114794999361,None,307.2115857999306,307.2139524000231,None,,,307.21405629999936,307.2152223000303,307.2152342000045,307.21626120014116,2.363581200130284,None,,,,,,,,,,,,,,,,,,,,,,,,,,,,,,,,,,,,,,,,,,,,,,,,,1,2023-12-07_11h21.32.028,watkins1,2023.2.3,99.69105740498512,54,2023-12-07 11h21.47.512134 +0000,
,,,,,,,,,,,21,0,21,0,,,,,,,,,,,,,307.2199522999581,,,,,,,,,,307.2165326999966,307.71243329998106,,,[],[],,,,,,,,,,,,None,None,,,,,,,,,,Kamera,zart,"['Kamera', 'zart']",control,1,,,,,,307.21646969998255,307.2165089000482,"['Kiste', 'Hut', 'Geige', 'Socke', 'Blume', 'Jacke', 'Fahrrad', 'Schere', 'Telefon', 'Stift', 'Tasse', 'Tasche', 'Lampe', 'Ring', 'Buch', 'Schlüssel', 'Hammer', 'Uhr', 'Löffel', 'Rucksack', 'Eimer', 'Kamera', 'Vase']",307.71244470006786,313.7221334001515,1,313.72241159994155,313.7249676999636,None,313.7250779001042,313.7274978000205,None,,,313.7276029000059,313.72877839999273,313.72879029996693,313.72983910003677,1.414157799910754,None,,,,,,,,,,,,,,,,,,,,,,,,,,,,,,,,,,,,,,,,,,,,,,,,,1,2023-12-07_11h21.32.028,watkins1,2023.2.3,99.69105740498512,54,2023-12-07 11h21.47.512134 +0000,
,,,,,,,,,,,22,0,22,0,,,,,,,,,,,,,313.73353710002266,,,,,,,,,,313.73010950000025,314.22627420001663,,,[],[],,,,,,,,,,,,None,None,,,,,,,,,,Vase,glänzend,"['Vase', 'glänzend']",control,1,,,,,,313.7300466999877,313.73008539993316,"['Kiste', 'Hut', 'Geige', 'Socke', 'Blume', 'Jacke', 'Fahrrad', 'Schere', 'Telefon', 'Stift', 'Tasse', 'Tasche', 'Lampe', 'Ring', 'Buch', 'Schlüssel', 'Hammer', 'Uhr', 'Löffel', 'Rucksack', 'Eimer', 'Kamera', 'Vase']",314.2262858999893,320.2331884999294,3,320.2334686999675,320.23619349999353,None,320.2363001999911,320.2387775001116,None,,,320.2388830999844,320.2399596001487,320.2399715001229,320.2412221999839,1.6675629001110792,None,,,,,,,,,,,,,,,,,,,,,,,,,,,,,,,,,,,,,,,,,,,,,,,,,1,2023-12-07_11h21.32.028,watkins1,2023.2.3,99.69105740498512,54,2023-12-07 11h21.47.512134 +0000,
,,,,,,,,,,,,,,,,,,,,,,,,,,,,,,,,,,,,,,,,,,,,,,,,,,,,,,,,,,,,,,,,,,,,,1,,,,,,,,,,,,,,,,,,,,,,,,,,,,,,,,,,,,,,,,,,,,,,,,,,,,,,,,,,,,,,,,,,,,,,,,,,1,2023-12-07_11h21.32.028,watkins1,2023.2.3,99.69105740498512,54,2023-12-07 11h21.47.512134 +0000,
(7 x 6) + 9 = 48 ,Incorrect,button_incorrect,,,,,,,,,,,,,0,0,0,9,,,,,,,,,331.310980200069,,,,,,,,330.2721516001038,331.2757753999904,,,,,['button_incorrect'],[3.885762100107968],,,,,,,,,,,,,,,,,,,,,,,,,,distractorTask,1,,,,,,,,,,,,,,,,,,,,,,,,,,331.299256300088,331.310980200069,335.19075650000013,[-0.337037037037037],[-0.4083333333333333],[1],[0],[0],[3.885762100107968],['button_incorrect'],335.19144810014404,336.1943262000568,,,,,,,,,,,,,,,,,,,,,,,,,,,,,,,,,,,,,1,2023-12-07_11h21.32.028,watkins1,2023.2.3,99.69105740498512,54,2023-12-07 11h21.47.512134 +0000,
(6 x 3) + 10 = 27 ,Incorrect,button_incorrect,,,,,,,,,,,,,0,1,1,8,,,,,,,,,336.20427420013584,,,,,,,,,,,,,,['button_incorrect'],[4.456027399981394],,,,,,,,,,,,,,,,,,,,,,,,,,distractorTask,1,,,,,,,,,,,,,,,,,,,,,,,,,,336.1945267999545,336.20427420013584,340.653679799987,[-0.3490740740740741],[-0.4074074074074074],[1],[0],[0],[4.456027399981394],['button_incorrect'],340.6540688001551,341.6574759001378,,,,,,,,,,,,,,,,,,,,,,,,,,,,,,,,,,,,,1,2023-12-07_11h21.32.028,watkins1,2023.2.3,99.69105740498512,54,2023-12-07 11h21.47.512134 +0000,
(2 x 5) + 3 = 13 ,Correct,button_correct,,,,,,,,,,,,,0,2,2,2,,,,,,,,,341.6674593000207,,,,,,,,,,,,,,['button_correct'],"[2.6290941999759525, 2.980603000149131]",,,,,,,,,,,,,,,,,,,,,,,,,,distractorTask,1,,,,,,,,,,,,,,,,,,,,,,,,,,341.6576690999791,341.6674593000207,344.6405267000664,"[0.31574074074074077, 0.3111111111111111]","[-0.4324074074074074, -0.412962962962963]","[1, 1]","[0, 0]","[0, 0]","[2.6290941999759525, 2.980603000149131]",['button_correct'],344.64093709993176,345.64407579996623,,,,,,,,,,,,,,,,,,,,,,,,,,,,,,,,,,,,,1,2023-12-07_11h21.32.028,watkins1,2023.2.3,99.69105740498512,54,2023-12-07 11h21.47.512134 +0000,
(40 : 5) + 8 = 15 ,Incorrect,button_incorrect,,,,,,,,,,,,,0,3,3,7,,,,,,,,,345.6540707000531,,,,,,,,,,,,,,['button_incorrect'],[3.462343400111422],,,,,,,,,,,,,,,,,,,,,,,,,,distractorTask,1,,,,,,,,,,,,,,,,,,,,,,,,,,345.6442718000617,345.6540707000531,349.1088676000945,[-0.38333333333333336],[-0.39166666666666666],[1],[0],[0],[3.462343400111422],['button_incorrect'],349.10926149995066,350.11271840007976,,,,,,,,,,,,,,,,,,,,,,,,,,,,,,,,,,,,,1,2023-12-07_11h21.32.028,watkins1,2023.2.3,99.69105740498512,54,2023-12-07 11h21.47.512134 +0000,
(9 x 5) - 9 = 36 ,Correct,button_correct,,,,,,,,,,,,,0,4,4,4,,,,,,,,,350.1226938001346,,,,,,,,,,,,,,['button_correct'],[4.175553899956867],,,,,,,,,,,,,,,,,,,,,,,,,,distractorTask,1,,,,,,,,,,,,,,,,,,,,,,,,,,350.11291579995304,350.1226938001346,354.2906690000091,[0.3425925925925926],[-0.4166666666666667],[1],[0],[0],[4.175553899956867],['button_correct'],354.2910676000174,355.2942830999382,,,,,,,,,,,,,,,,,,,,,,,,,,,,,,,,,,,,,1,2023-12-07_11h21.32.028,watkins1,2023.2.3,99.69105740498512,54,2023-12-07 11h21.47.512134 +0000,
(80 : 10) + 9 = 17 ,Correct,button_correct,,,,,,,,,,,,,0,5,5,3,,,,,,,,,355.30426000012085,,,,,,,,,,,,,,['button_correct'],[2.790216699941084],,,,,,,,,,,,,,,,,,,,,,,,,,distractorTask,1,,,,,,,,,,,,,,,,,,,,,,,,,,355.29447730001993,355.30426000012085,358.0865180999972,[0.3574074074074074],[-0.39814814814814814],[1],[0],[0],[2.790216699941084],['button_correct'],358.08691249997355,359.0901238999795,,,,,,,,,,,,,,,,,,,,,,,,,,,,,,,,,,,,,1,2023-12-07_11h21.32.028,watkins1,2023.2.3,99.69105740498512,54,2023-12-07 11h21.47.512134 +0000,
(28 : 7) - 3 = 1 ,Correct,button_correct,,,,,,,,,,,,,0,6,6,0,,,,,,,,,359.10005660005845,,,,,,,,,,,,,,['button_correct'],[4.176176600158215],,,,,,,,,,,,,,,,,,,,,,,,,,distractorTask,1,,,,,,,,,,,,,,,,,,,,,,,,,,359.090320300078,359.10005660005845,363.26821630005725,[0.38055555555555554],[-0.39351851851851855],[1],[0],[0],[4.176176600158215],['button_correct'],363.26861010002904,364.2713381999638,,,,,,,,,,,,,,,,,,,,,,,,,,,,,,,,,,,,,1,2023-12-07_11h21.32.028,watkins1,2023.2.3,99.69105740498512,54,2023-12-07 11h21.47.512134 +0000,
(54 : 6) - 10 = 0 ,Incorrect,button_incorrect,,,,,,,,,,,,,0,7,7,5,,,,,,,,,364.2814283000771,,,,,,,,,,,,,,['button_incorrect'],[4.77846090006642],,,,,,,,,,,,,,,,,,,,,,,,,,distractorTask,1,,,,,,,,,,,,,,,,,,,,,,,,,,364.27153240004554,364.2814283000771,369.0517450000625,[-0.32407407407407407],[-0.4083333333333333],[1],[0],[0],[4.77846090006642],['button_incorrect'],369.0521390000358,370.05571300000884,,,,,,,,,,,,,,,,,,,,,,,,,,,,,,,,,,,,,1,2023-12-07_11h21.32.028,watkins1,2023.2.3,99.69105740498512,54,2023-12-07 11h21.47.512134 +0000,
(25 : 5) + 5 = 9 ,Incorrect,button_incorrect,,,,,,,,,,,,,0,8,8,6,,,,,,,,,370.06569750001654,,,,,,,,,,,,,,['button_incorrect'],[3.573231599992141],,,,,,,,,,,,,,,,,,,,,,,,,,distractorTask,1,,,,,,,,,,,,,,,,,,,,,,,,,,370.0559113000054,370.06569750001654,373.63087120000273,[-0.35],[-0.4148148148148148],[1],[0],[0],[3.573231599992141],['button_incorrect'],373.6312651000917,374.6350120001007,,,,,,,,,,,,,,,,,,,,,,,,,,,,,,,,,,,,,1,2023-12-07_11h21.32.028,watkins1,2023.2.3,99.69105740498512,54,2023-12-07 11h21.47.512134 +0000,
(4 : 2) + 4 = 6 ,Correct,button_correct,,,,,,,,,,,,,0,9,9,1,,,,,,,,,374.64509290014394,,,,,,,,,,,,,,['button_correct'],[2.358407699968666],,,,,,,,,,,,,,,,,,,,,,,,,,distractorTask,1,,,,,,,,,,,,,,,,,,,,,,,,,,374.6352097000927,374.64509290014394,376.99529130011797,[0.39166666666666666],[-0.40185185185185185],[1],[0],[0],[2.358407699968666],['button_correct'],376.9956857000943,377.9991822000593,,,,,,,,,,,,,,,,,,,,,,,,,,,,,,,,,,,,,1,2023-12-07_11h21.32.028,watkins1,2023.2.3,99.69105740498512,54,2023-12-07 11h21.47.512134 +0000,
,,,,,,,,,,,,,,,,,,,,,,,,,,,,,,,,,,,,,,,,,,,,,,,,,,,,,,,,,,,,,,,,,,,,,1,,,,,,,,,,,,,,,,,,,,,,,,,,,,,,,,,,,,,,,,,,,,,,,,,,,,,,,,,,,,,,,,,,,,,,,,,,1,2023-12-07_11h21.32.028,watkins1,2023.2.3,99.69105740498512,54,2023-12-07 11h21.47.512134 +0000,
,,,,,,,,,,,,,,,,,,,0,0,0,0,,,,,388.6312901999336,,,,,,,,,,,,,,Uhr,20.763692599954084,,,,,,,,,,,,7.229426600039005,17.903297600103542,,,,,,,,,,,,,freeRecallSub,1,,,,,,,,,,,,,,,,,,,,,,,,,,,,,,,,,,,,,,388.6225541001186,388.6312901999336,388.6312901999336,409.39757200004533,return,20.763692599954084,None,Uhr,[0.008333333333333333],[0.03796296296296296],[1],[0],[0],[5.099877000087872],[],,,,,,,,,,,,,,,,,,,,,,1,2023-12-07_11h21.32.028,watkins1,2023.2.3,99.69105740498512,54,2023-12-07 11h21.47.512134 +0000,
,,,,,,,,,,,,,,,,,,,1,0,1,0,,,,,409.40960839996114,,,,,,,,,,,,,,Tasche,4.345359199913219,,,,,,,,,,,,1.0968113001435995,None,,,,,,,,,,,,,freeRecallSub,1,,,,,,,,,,,,,,,,,,,,,,,,,,,,,,,,,,,,,,409.39941610000096,409.40960839996114,409.40960839996114,413.75971120013855,return,4.345359199913219,None,Tasche,[],[],[],[],[],[],[],,,,,,,,,,,,,,,,,,,,,,1,2023-12-07_11h21.32.028,watkins1,2023.2.3,99.69105740498512,54,2023-12-07 11h21.47.512134 +0000,
,,,,,,,,,,,,,,,,,,,2,0,2,0,,,,,413.77059040009044,,,,,,,,,,,,,,Schlüssel,16.24045419995673,,,,,,,,,,,,11.027255899971351,None,,,,,,,,,,,,,freeRecallSub,1,,,,,,,,,,,,,,,,,,,,,,,,,,,,,,,,,,,,,,413.7609870999586,413.77059040009044,413.77059040009044,430.020809300011,return,16.24045419995673,None,Schlüssel,[],[],[],[],[],[],[],,,,,,,,,,,,,,,,,,,,,,1,2023-12-07_11h21.32.028,watkins1,2023.2.3,99.69105740498512,54,2023-12-07 11h21.47.512134 +0000,
,,,,,,,,,,,,,,,,,,,3,0,3,0,,,,,430.0317208999768,,,,,,,,,,,,,,Jacke,11.299215199891478,,,,,,,,,,,,2.26941080018878,None,,,,,,,,,,,,,freeRecallSub,1,,,,,,,,,,,,,,,,,,,,,,,,,,,,,,,,,,,,,,430.02207539998926,430.0317208999768,430.0317208999768,441.33942120010033,return,11.299215199891478,None,Jacke,[],[],[],[],[],[],[],,,,,,,,,,,,,,,,,,,,,,1,2023-12-07_11h21.32.028,watkins1,2023.2.3,99.69105740498512,54,2023-12-07 11h21.47.512134 +0000,
,,,,,,,,,,,,,,,,,,,4,0,4,0,,,,,441.35028280015104,,,,,,,,,,,,,,Katze,27.364676399854943,,,,,,,,,,,,24.631617299979553,None,,,,,,,,,,,,,freeRecallSub,1,,,,,,,,,,,,,,,,,,,,,,,,,,,,,,,,,,,,,,441.34069490013644,441.35028280015104,441.35028280015104,468.72349370014854,return,27.364676399854943,None,Katze,[],[],[],[],[],[],[],,,,,,,,,,,,,,,,,,,,,,1,2023-12-07_11h21.32.028,watkins1,2023.2.3,99.69105740498512,54,2023-12-07 11h21.47.512134 +0000,
,,,,,,,,,,,,,,,,,,,5,0,5,0,,,,,468.73485690006055,,,,,,,,,,,,,,Hund,1.3561428000684828,,,,,,,,,,,,0.17170959990471601,None,,,,,,,,,,,,,freeRecallSub,1,,,,,,,,,,,,,,,,,,,,,,,,,,,,,,,,,,,,,,468.7247540000826,468.73485690006055,468.73485690006055,470.0916470999364,return,1.3561428000684828,None,Hund,[],[],[],[],[],[],[],,,,,,,,,,,,,,,,,,,,,,1,2023-12-07_11h21.32.028,watkins1,2023.2.3,99.69105740498512,54,2023-12-07 11h21.47.512134 +0000,
,,,,,,,,,,,,,,,,,,,6,0,6,0,,,,,470.103076600004,,,,,,,,,,,,,,Fahrrad,7.572022200096399,,,,,,,,,,,,3.214613600168377,None,,,,,,,,,,,,,freeRecallSub,1,,,,,,,,,,,,,,,,,,,,,,,,,,,,,,,,,,,,,,470.092928300146,470.103076600004,470.103076600004,477.67567920009606,return,7.572022200096399,None,Fahrrad,[],[],[],[],[],[],[],,,,,,,,,,,,,,,,,,,,,,1,2023-12-07_11h21.32.028,watkins1,2023.2.3,99.69105740498512,54,2023-12-07 11h21.47.512134 +0000,
,,,,,,,,,,,,,,,,,,,7,0,7,0,,,,,477.6871492001228,,,,,,,,,,,,,,,[],,,,,,,,,,,,4.248759899986908,None,,,,,,,,,,,,,freeRecallSub,1,,,,,,,,,,,,,,,,,,,,,,,,,,,,,,,,,,,,,,477.6769461000804,477.6871492001228,477.6871492001228,485.42120170011185,None,,,,[0.39444444444444443],[-0.4046296296296296],[1],[0],[0],[7.740371400024742],"['button_continue', 'continue_text']",,,,,,,,,,,,,,,,,,,,,,1,2023-12-07_11h21.32.028,watkins1,2023.2.3,99.69105740498512,54,2023-12-07 11h21.47.512134 +0000,
,,,,,,,,,,,,,,,,,,,,,,,,,,,,,,,,,,,,,,,,,,,,,,,,,,,,,,,,,,,,,,,,,,,,,1,,,,,,,,,,,,,,,,,,,,,,,,,,,,,,,,,,,,,,,,,,,,,,,,,,,,,,,,,,,,,,,,,,,,,,,,,,1,2023-12-07_11h21.32.028,watkins1,2023.2.3,99.69105740498512,54,2023-12-07 11h21.47.512134 +0000,
,,,,,,,,,,,,,,,,,,,,,,,0,0,0,0,487.8457533000037,,,,,,,,,,502.93001190014184,503.42121429997496,,,niedlich,11.165185999823734,,,,,,,,,,,,1.4150169999338686,None,,,,,,,,,,Uhr,,,cuedRecallAdj,1,,,,,,,,,,,,,,,,,,,,,,,,,,,,,,,,,,,,,,,,,,,,,,,,,,,,,487.83645609999076,487.8457533000037,0,487.8457533000037,499.0135832999367,hässlich,return,11.165185999823734,None,499.01398020004854,499.0231240999419,499.0231240999419,502.92962469998747,niedlich,return,3.899730799952522,None,,,,,1,2023-12-07_11h21.32.028,watkins1,2023.2.3,99.69105740498512,54,2023-12-07 11h21.47.512134 +0000,
,,,,,,,,,,,,,,,,,,,,,,,1,0,1,0,503.43112049996853,,,,,,,,,,506.4163997999858,506.9155912999995,,,,2.9796851999126375,,,,,,,,,,,,None,None,,,,,,,,,,Bürste,,,cuedRecallAdj,1,,,,,,,,,,,,,,,,,,,,,,,,,,,,,,,,,,,,,,,,,,,,,,,,,,,,,503.4214598000981,503.43112049996853,0,503.43112049996853,506.4139064999763,,return,2.9796851999126375,None,506.4141661999747,506.42349510011263,506.42349510011263,506.41630090004764,,None,,,,,,,1,2023-12-07_11h21.32.028,watkins1,2023.2.3,99.69105740498512,54,2023-12-07 11h21.47.512134 +0000,
,,,,,,,,,,,,,,,,,,,,,,,2,0,2,0,506.92547479993664,,,,,,,,,,511.28711859998293,511.7857933000196,,,,4.357285600155592,,,,,,,,,,,,None,None,,,,,,,,,,Flasche,,,cuedRecallAdj,1,,,,,,,,,,,,,,,,,,,,,,,,,,,,,,,,,,,,,,,,,,,,,,,,,,,,,506.9158354999963,506.92547479993664,0,506.92547479993664,511.2841294000391,teuer,return,4.357285600155592,None,511.2843959000893,511.293647200102,511.293647200102,511.2870157000143,,None,,,,,,,1,2023-12-07_11h21.32.028,watkins1,2023.2.3,99.69105740498512,54,2023-12-07 11h21.47.512134 +0000,
,,,,,,,,,,,,,,,,,,,,,,,3,0,3,0,511.7957341999281,,,,,,,,,,515.5220258000772,516.0134050000925,,,,2.9911503000184894,,,,,,,,,,,,0.732194900047034,None,,,,,,,,,,Telefon,,,cuedRecallAdj,1,,,,,,,,,,,,,,,,,,,,,,,,,,,,,,,,,,,,,,,,,,,,,,,,,,,,,511.7860346001107,511.7957341999281,0,511.7957341999281,514.7888044000138,,return,2.9911503000184894,None,514.7890735000838,514.7983130000066,514.7983130000066,515.5217395001091,,return,0.7165309998672456,None,,,,,1,2023-12-07_11h21.32.028,watkins1,2023.2.3,99.69105740498512,54,2023-12-07 11h21.47.512134 +0000,
,,,,,,,,,,,,,,,,,,,,,,,4,0,4,0,516.0233567999676,,,,,,,,,,528.4366856999695,528.9280197001062,,,,12.203521799994633,,,,,,,,,,,,0.20032149995677173,None,,,,,,,,,,Geige,,,cuedRecallAdj,1,,,,,,,,,,,,,,,,,,,,,,,,,,,,,,,,,,,,,,,,,,,,,,,,,,,,,516.0136482000817,516.0233567999676,0,516.0233567999676,528.2353866000194,,return,12.203521799994633,None,528.23565399996,528.2450576000847,528.2450576000847,528.4364198001567,,return,0.18976430012844503,None,,,,,1,2023-12-07_11h21.32.028,watkins1,2023.2.3,99.69105740498512,54,2023-12-07 11h21.47.512134 +0000,
,,,,,,,,,,,,,,,,,,,,,,,5,0,5,0,528.9379334000405,,,,,,,,,,538.116992500145,538.6084672000725,,,schmutzig,4.808921999996528,,,,,,,,,,,,0.4009227999486029,None,,,,,,,,,,Lampe,,,cuedRecallAdj,1,,,,,,,,,,,,,,,,,,,,,,,,,,,,,,,,,,,,,,,,,,,,,,,,,,,,,528.9282605999615,528.9379334000405,0,528.9379334000405,533.7484418000095,dick,return,4.808921999996528,None,533.748707999941,533.7579499999993,533.7579499999993,538.1167282999959,schmutzig,return,4.348895299946889,None,,,,,1,2023-12-07_11h21.32.028,watkins1,2023.2.3,99.69105740498512,54,2023-12-07 11h21.47.512134 +0000,
,,,,,,,,,,,,,,,,,,,,,,,6,0,6,0,538.618402400054,,,,,,,,,,546.5721909999847,547.0638908999972,,,,5.632405899930745,,,,,,,,,,,,2.3190029999241233,None,,,,,,,,,,Tasche,,,cuedRecallAdj,1,,,,,,,,,,,,,,,,,,,,,,,,,,,,,,,,,,,,,,,,,,,,,,,,,,,,,538.6087102000602,538.618402400054,0,538.618402400054,544.2523562000133,flauschig,return,5.632405899930745,None,544.2526400000788,544.2619413000066,544.2619413000066,546.5719248000532,,return,2.3008533001411706,None,,,,,1,2023-12-07_11h21.32.028,watkins1,2023.2.3,99.69105740498512,54,2023-12-07 11h21.47.512134 +0000,
,,,,,,,,,,,,,,,,,,,,,,,7,0,7,0,547.0738425001036,,,,,,,,,,553.5012143000495,553.9925544001162,,,,2.640906099928543,,,,,,,,,,,,3.7845628999639302,None,,,,,,,,,,Buch,,,cuedRecallAdj,1,,,,,,,,,,,,,,,,,,,,,,,,,,,,,,,,,,,,,,,,,,,,,,,,,,,,,547.0641391000245,547.0738425001036,0,547.0738425001036,549.715840900084,lang,return,2.640906099928543,None,549.7161053000018,549.724859500071,549.724859500071,553.5009457000997,,return,3.7659994999412447,None,,,,,1,2023-12-07_11h21.32.028,watkins1,2023.2.3,99.69105740498512,54,2023-12-07 11h21.47.512134 +0000,
,,,,,,,,,,,,,,,,,,,,,,,8,0,8,0,554.0024391999468,,,,,,,,,,556.6782709001563,557.1768702999689,,,,2.672251299954951,,,,,,,,,,,,None,None,,,,,,,,,,Kamera,,,cuedRecallAdj,1,,,,,,,,,,,,,,,,,,,,,,,,,,,,,,,,,,,,,,,,,,,,,,,,,,,,,553.9928037000354,554.0024391999468,0,554.0024391999468,556.6753653001506,zart,return,2.672251299954951,None,556.6756370000076,556.6848810000811,556.6848810000811,556.678167700069,,None,,,,,,,1,2023-12-07_11h21.32.028,watkins1,2023.2.3,99.69105740498512,54,2023-12-07 11h21.47.512134 +0000,
,,,,,,,,,,,,,,,,,,,,,,,9,0,9,0,557.1867963001132,,,,,,,,,,563.7247105001006,564.2161365000065,,,,6.103975700214505,,,,,,,,,,,,0.4310258000623435,None,,,,,,,,,,Schlüssel,,,cuedRecallAdj,1,,,,,,,,,,,,,,,,,,,,,,,,,,,,,,,,,,,,,,,,,,,,,,,,,,,,,557.1771653001197,557.1867963001132,0,557.1867963001132,563.2928722000215,hässlich,return,6.103975700214505,None,563.2931389000732,563.3023310999852,563.3023310999852,563.7244430999272,,return,0.41237809997983277,None,,,,,1,2023-12-07_11h21.32.028,watkins1,2023.2.3,99.69105740498512,54,2023-12-07 11h21.47.512134 +0000,
,,,,,,,,,,,,,,,,,,,,,,,10,0,10,0,564.2261429000646,,,,,,,,,,566.3178700001445,566.8168637999333,,,,2.0806056999135762,,,,,,,,,,,,None,None,,,,,,,,,,Stift,,,cuedRecallAdj,1,,,,,,,,,,,,,,,,,,,,,,,,,,,,,,,,,,,,,,,,,,,,,,,,,,,,,564.2163818001281,564.2261429000646,0,564.2261429000646,566.3150363999885,gut,return,2.0806056999135762,None,566.3153002001345,566.3247640000191,566.3247640000191,566.3177674999461,,None,,,,,,,1,2023-12-07_11h21.32.028,watkins1,2023.2.3,99.69105740498512,54,2023-12-07 11h21.47.512134 +0000,
,,,,,,,,,,,,,,,,,,,,,,,11,0,11,0,566.8268204000778,,,,,,,,,,568.4664330999367,568.9557411000133,,,,1.6320036000106484,,,,,,,,,,,,None,None,,,,,,,,,,Brille,,,cuedRecallAdj,1,,,,,,,,,,,,,,,,,,,,,,,,,,,,,,,,,,,,,,,,,,,,,,,,,,,,,566.8171045000199,566.8268204000778,0,566.8268204000778,568.4641428000759,,return,1.6320036000106484,None,568.4644262001384,568.4736761001404,568.4736761001404,568.466332100099,,None,,,,,,,1,2023-12-07_11h21.32.028,watkins1,2023.2.3,99.69105740498512,54,2023-12-07 11h21.47.512134 +0000,
,,,,,,,,,,,,,,,,,,,,,,,12,0,12,0,568.9656903999858,,,,,,,,,,572.071718600113,572.5705691000912,,,,3.093026699963957,,,,,,,,,,,,None,None,,,,,,,,,,Jacke,,,cuedRecallAdj,1,,,,,,,,,,,,,,,,,,,,,,,,,,,,,,,,,,,,,,,,,,,,,,,,,,,,,568.9559895999264,568.9656903999858,0,568.9656903999858,572.0688453000039,bunt,return,3.093026699963957,None,572.0691079001408,572.0785648999736,572.0785648999736,572.0716180000454,,None,,,,,,,1,2023-12-07_11h21.32.028,watkins1,2023.2.3,99.69105740498512,54,2023-12-07 11h21.47.512134 +0000,
,,,,,,,,,,,,,,,,,,,,,,,13,0,13,0,572.5805198999587,,,,,,,,,,579.3423238999676,579.8407159999479,,,,6.758293400052935,,,,,,,,,,,,None,None,,,,,,,,,,Vase,,,cuedRecallAdj,1,,,,,,,,,,,,,,,,,,,,,,,,,,,,,,,,,,,,,,,,,,,,,,,,,,,,,572.5708183001261,572.5805198999587,0,572.5805198999587,579.3394286001567,glänzend,return,6.758293400052935,None,579.3396938999649,579.3486717001069,579.3486717001069,579.3422230000142,,None,,,,,,,1,2023-12-07_11h21.32.028,watkins1,2023.2.3,99.69105740498512,54,2023-12-07 11h21.47.512134 +0000,
,,,,,,,,,,,,,,,,,,,,,,,14,0,14,0,579.8506617001258,,,,,,,,,,582.4151077999268,582.9139692001045,,,,2.5520526999607682,,,,,,,,,,,,None,None,,,,,,,,,,Kerze,,,cuedRecallAdj,1,,,,,,,,,,,,,,,,,,,,,,,,,,,,,,,,,,,,,,,,,,,,,,,,,,,,,579.8409572001547,579.8506617001258,0,579.8506617001258,582.4120787000284,dick,return,2.5520526999607682,None,582.4123440999538,582.4218011000194,582.4218011000194,582.4150054999627,,None,,,,,,,1,2023-12-07_11h21.32.028,watkins1,2023.2.3,99.69105740498512,54,2023-12-07 11h21.47.512134 +0000,
,,,,,,,,,,,,,,,,,,,,,,,15,0,15,0,582.9239159999415,,,,,,,,,,585.2065500000026,585.7054347000085,,,,2.2787620001472533,,,,,,,,,,,,None,None,,,,,,,,,,Eimer,,,cuedRecallAdj,1,,,,,,,,,,,,,,,,,,,,,,,,,,,,,,,,,,,,,,,,,,,,,,,,,,,,,582.9142120000906,582.9239159999415,0,582.9239159999415,585.203733399976,neu,return,2.2787620001472533,None,585.2039948999882,585.2132564999629,585.2132564999629,585.2064483000431,,None,,,,,,,1,2023-12-07_11h21.32.028,watkins1,2023.2.3,99.69105740498512,54,2023-12-07 11h21.47.512134 +0000,
,,,,,,,,,,,,,,,,,,,,,,,16,0,16,0,585.7154997000471,,,,,,,,,,588.7012199000455,589.2000502001029,,,,2.9752145998645574,,,,,,,,,,,,None,None,,,,,,,,,,Schere,,,cuedRecallAdj,1,,,,,,,,,,,,,,,,,,,,,,,,,,,,,,,,,,,,,,,,,,,,,,,,,,,,,585.7056766001042,585.7154997000471,0,585.7154997000471,588.6982446999755,flach,return,2.9752145998645574,None,588.6985099001322,588.7079618000425,588.7079618000425,588.7011170000769,,None,,,,,,,1,2023-12-07_11h21.32.028,watkins1,2023.2.3,99.69105740498512,54,2023-12-07 11h21.47.512134 +0000,
,,,,,,,,,,,,,,,,,,,,,,,17,0,17,0,589.2099903000053,,,,,,,,,,591.2109598000534,591.7004597000778,,,,1.9926495000254363,,,,,,,,,,,,None,None,,,,,,,,,,Trommel,,,cuedRecallAdj,1,,,,,,,,,,,,,,,,,,,,,,,,,,,,,,,,,,,,,,,,,,,,,,,,,,,,,589.2002920999657,589.2099903000053,0,589.2099903000053,591.2087004000787,,return,1.9926495000254363,None,591.2089633999858,591.2182758001145,591.2182758001145,591.2108585999813,,None,,,,,,,1,2023-12-07_11h21.32.028,watkins1,2023.2.3,99.69105740498512,54,2023-12-07 11h21.47.512134 +0000,
,,,,,,,,,,,,,,,,,,,,,,,18,0,18,0,591.7104048000183,,,,,,,,,,598.599845000077,599.0910171000287,,,,6.56435769982636,,,,,,,,,,,,0.3208426998462528,0.3208426998462528,,,,,,,,,,Hut,,,cuedRecallAdj,1,,,,,,,,,,,,,,,,,,,,,,,,,,,,,,,,,,,,,,,,,,,,,,,,,,,,,591.700707900105,591.7104048000183,0,591.7104048000183,598.2778640000615,praktisch,return,6.56435769982636,None,598.2781317001209,598.2873784999829,598.2873784999829,598.5995766001288,,return,0.3073658000212163,None,,,,,1,2023-12-07_11h21.32.028,watkins1,2023.2.3,99.69105740498512,54,2023-12-07 11h21.47.512134 +0000,
,,,,,,,,,,,,,,,,,,,,,,,19,0,19,0,599.1010710999835,,,,,,,,,,604.4035906000063,604.8951908000745,,,,2.693667700048536,,,,,,,,,,,,2.600000400096178,None,,,,,,,,,,Fahrrad,,,cuedRecallAdj,1,,,,,,,,,,,,,,,,,,,,,,,,,,,,,,,,,,,,,,,,,,,,,,,,,,,,,599.0912598001305,599.1010710999835,0,599.1010710999835,601.802564300131,robust,return,2.693667700048536,None,601.802829900058,601.8122233999893,601.8122233999893,604.4033170000184,,return,2.590411099838093,None,,,,,1,2023-12-07_11h21.32.028,watkins1,2023.2.3,99.69105740498512,54,2023-12-07 11h21.47.512134 +0000,
,,,,,,,,,,,,,,,,,,,,,,,20,0,20,0,604.9051278999541,,,,,,,,,,612.9390366000589,613.430617300095,,,,7.745532400207594,,,,,,,,,,,,0.28056079987436533,None,,,,,,,,,,Kiste,,,cuedRecallAdj,1,,,,,,,,,,,,,,,,,,,,,,,,,,,,,,,,,,,,,,,,,,,,,,,,,,,,,604.8954348000698,604.9051278999541,0,604.9051278999541,612.6576680999715,biegsam,return,7.745532400207594,None,612.6579350000247,612.6672585001215,612.6672585001215,612.9387738001533,,return,0.26337629999034107,None,,,,,1,2023-12-07_11h21.32.028,watkins1,2023.2.3,99.69105740498512,54,2023-12-07 11h21.47.512134 +0000,
,,,,,,,,,,,,,,,,,,,,,,,21,0,21,0,613.4405780001543,,,,,,,,,,614.6283843999263,615.1176171000116,,,,1.1782402999233454,,,,,,,,,,,,None,None,,,,,,,,,,Kette,,,cuedRecallAdj,1,,,,,,,,,,,,,,,,,,,,,,,,,,,,,,,,,,,,,,,,,,,,,,,,,,,,,613.4308563000523,613.4405780001543,0,613.4405780001543,614.6260144000407,,return,1.1782402999233454,None,614.6263089999557,614.6355940001085,614.6355940001085,614.6282769001555,,None,,,,,,,1,2023-12-07_11h21.32.028,watkins1,2023.2.3,99.69105740498512,54,2023-12-07 11h21.47.512134 +0000,
,,,,,,,,,,,,,,,,,,,,,,,22,0,22,0,615.1275752999354,,,,,,,,,,618.8434377000667,619.3349377999548,,,,3.323095299769193,,,,,,,,,,,,0.39092140016146004,None,,,,,,,,,,Rucksack,,,cuedRecallAdj,1,,,,,,,,,,,,,,,,,,,,,,,,,,,,,,,,,,,,,,,,,,,,,,,,,,,,,615.1178640001453,615.1275752999354,0,615.1275752999354,618.4517099000514,elegant,return,3.323095299769193,None,618.4519746000879,618.4613779999781,618.4613779999781,618.8431694000028,,return,0.3732094999868423,None,,,,,1,2023-12-07_11h21.32.028,watkins1,2023.2.3,99.69105740498512,54,2023-12-07 11h21.47.512134 +0000,
,,,,,,,,,,,,,,,,,,,,,,,23,0,23,0,619.344834000105,,,,,,,,,,622.0808838999365,622.5788078000769,,,,2.7298523001372814,,,,,,,,,,,,None,None,,,,,,,,,,Würfel,,,cuedRecallAdj,1,,,,,,,,,,,,,,,,,,,,,,,,,,,,,,,,,,,,,,,,,,,,,,,,,,,,,619.3351889001206,619.344834000105,0,619.344834000105,622.0781126001384,glat,return,2.7298523001372814,None,622.0783794999588,622.0864826999605,622.0864826999605,622.0807821000926,,None,,,,,,,1,2023-12-07_11h21.32.028,watkins1,2023.2.3,99.69105740498512,54,2023-12-07 11h21.47.512134 +0000,
,,,,,,,,,,,,,,,,,,,,,,,24,0,24,0,622.5887076000217,,,,,,,,,,639.9113841000944,640.4027191000059,,,gepunktet,3.6539597001392394,,,,,,,,,,,,11.647422699956223,None,,,,,,,,,,Hammer,,,cuedRecallAdj,1,,,,,,,,,,,,,,,,,,,,,,,,,,,,,,,,,,,,,,,,,,,,,,,,,,,,,622.5790504999459,622.5887076000217,0,622.5887076000217,626.244551199954,hohl,return,3.6539597001392394,None,626.2448382000439,626.2540842001326,626.2540842001326,639.9111200999469,gepunktet,return,13.652560299960896,None,,,,,1,2023-12-07_11h21.32.028,watkins1,2023.2.3,99.69105740498512,54,2023-12-07 11h21.47.512134 +0000,
,,,,,,,,,,,,,,,,,,,,,,,25,0,25,0,640.4126786999404,,,,,,,,,,659.6834986000322,660.1749222001527,,,dunkel,16.133834300097078,,,,,,,,,,,,0.7121766998898238,1.4752791998907924,,,,,,,,,,Löffel,,,cuedRecallAdj,1,,,,,,,,,,,,,,,,,,,,,,,,,,,,,,,,,,,,,,,,,,,,,,,,,,,,,640.402961499989,640.4126786999404,0,640.4126786999404,656.5504785000812,gross,return,16.133834300097078,None,656.5507450001314,656.5600658999756,656.5600658999756,659.6832312999759,dunkel,return,3.1145740998908877,None,,,,,1,2023-12-07_11h21.32.028,watkins1,2023.2.3,99.69105740498512,54,2023-12-07 11h21.47.512134 +0000,
,,,,,,,,,,,,,,,,,,,,,,,26,0,26,0,660.1848329000641,,,,,,,,,,666.1702606999315,666.6618230000604,,,,5.641717900056392,,,,,,,,,,,,0.34065479994751513,None,,,,,,,,,,Blume,,,cuedRecallAdj,1,,,,,,,,,,,,,,,,,,,,,,,,,,,,,,,,,,,,,,,,,,,,,,,,,,,,,660.1751673000399,660.1848329000641,0,660.1848329000641,665.8287794000935,lustig,return,5.641717900056392,None,665.8290458000265,665.8383403001353,665.8383403001353,666.1699922000989,,return,0.32423079991713166,None,,,,,1,2023-12-07_11h21.32.028,watkins1,2023.2.3,99.69105740498512,54,2023-12-07 11h21.47.512134 +0000,
,,,,,,,,,,,,,,,,,,,,,,,27,0,27,0,666.6717801000923,,,,,,,,,,670.7925345001277,671.290869400138,,,,4.1148648001253605,,,,,,,,,,,,None,None,,,,,,,,,,Socke,,,cuedRecallAdj,1,,,,,,,,,,,,,,,,,,,,,,,,,,,,,,,,,,,,,,,,,,,,,,,,,,,,,666.6620652999263,666.6717801000923,0,666.6717801000923,670.7892465000041,gestreift,return,4.1148648001253605,None,670.7895319000818,670.7987963999622,670.7987963999622,670.792432300048,,None,,,,,,,1,2023-12-07_11h21.32.028,watkins1,2023.2.3,99.69105740498512,54,2023-12-07 11h21.47.512134 +0000,
,,,,,,,,,,,,,,,,,,,,,,,28,0,28,0,671.3008193999995,,,,,,,,,,672.9500786999706,673.4396565000061,,,,1.6377115000505,,,,,,,,,,,,None,None,,,,,,,,,,Ring,,,cuedRecallAdj,1,,,,,,,,,,,,,,,,,,,,,,,,,,,,,,,,,,,,,,,,,,,,,,,,,,,,,671.2911225999705,671.3008193999995,0,671.3008193999995,672.9479632999282,,return,1.6377115000505,None,672.948228500085,672.9576859001536,672.9576859001536,672.9499767001253,,None,,,,,,,1,2023-12-07_11h21.32.028,watkins1,2023.2.3,99.69105740498512,54,2023-12-07 11h21.47.512134 +0000,
,,,,,,,,,,,,,,,,,,,,,,,29,0,29,0,673.4497245000675,,,,,,,,,,675.5393368999939,676.0304135000333,,,,1.5527627000119537,,,,,,,,,,,,0.5315034999512136,None,,,,,,,,,,Tasse,,,cuedRecallAdj,1,,,,,,,,,,,,,,,,,,,,,,,,,,,,,,,,,,,,,,,,,,,,,,,,,,,,,673.4398998999968,673.4497245000675,0,673.4497245000675,675.0067048000637,,return,1.5527627000119537,None,675.0069699999876,675.0162148999516,675.0162148999516,675.539071300067,,return,0.5224121001083404,None,,,,,1,2023-12-07_11h21.32.028,watkins1,2023.2.3,99.69105740498512,54,2023-12-07 11h21.47.512134 +0000,
,,,,,,,,,,,,,,,,,,,,,,,,,,,,,,,,,,,,,,,,,,,,,,,,,,,,,,,,,,,,,,,,,,,,,1,,,,,,,,,,,,,,,,,,,,,,,,,,,,,,,,,,,,,,,,,,,,,,,,,,,,,,,,,,,,,,,,,,,,,,676.0470809000544,q,3808.4201092000585,None,1,2023-12-07_11h21.32.028,watkins1,2023.2.3,99.69105740498512,54,2023-12-07 11h21.47.512134 +0000,
