Equation,CorrectResponse,Correctbutton,trials_7.thisRepN,trials_7.thisTrialN,trials_7.thisN,trials_7.thisIndex,trials.thisRepN,trials.thisTrialN,trials.thisN,trials.thisIndex,trials_3.thisRepN,trials_3.thisTrialN,trials_3.thisN,trials_3.thisIndex,trials_2.thisRepN,trials_2.thisTrialN,trials_2.thisN,trials_2.thisIndex,trials_4.thisRepN,trials_4.thisTrialN,trials_4.thisN,trials_4.thisIndex,trials_5.thisRepN,trials_5.thisTrialN,trials_5.thisN,trials_5.thisIndex,thisRow.t,notes,code_marius.started,code_marius.stopped,welcome.started,welcome.stopped,instruction_study.started,instruction_study.stopped,fixationcross.started,fixationcross.stopped,blanc.started,blanc.stopped,study_control_probe.started,study_control_probe.stopped,responseKey,responseTime,scale_answer_2.keys,study_control_probe_2.started,study_control_probe_2.stopped,scale_answer_3.keys,scale_answer_3.rt,scale_answer_3.duration,blanc_2.started,blanc_2.stopped,test_attr_probe.started,test_attr_probe.stopped,recalled_attr,firstKeyTime,secondWordTime,blanc_3.started,blanc_3.stopped,test_sub_probe.started,test_sub_probe.stopped,recalled_sub,instruction_probe_end.started,instruction_probe_end.stopped,study.started,study.stopped,substantive,adjective,wordpair,task,condition,liste_sub_phase1,liste_adj_phase1,scale_answer.keys,scale_answer.rt,scale_answer.duration,code_defineWordsInit.started,code_defineWordsInit.stopped,liste_sub_phase2,study_control.started,study_control.stopped,scale_answer_4.keys,restudy_same.started,restudy_same.stopped,scale_answer_5.keys,scale_answer_5.rt,scale_answer_5.duration,restudy_different.started,restudy_different.stopped,scale_answer_6.keys,test_attr.started,test_attr.stopped,test_sub.started,test_sub.stopped,correct,distractortask.started,equation_text.started,distractortask.stopped,mouse_answer.x,mouse_answer.y,mouse_answer.leftButton,mouse_answer.midButton,mouse_answer.rightButton,mouse_answer.time,mouse_answer.clicked_name,feedback_distractortask.started,feedback_distractortask.stopped,free_recall.started,text_enter.started,key_resp.started,free_recall.stopped,key_resp.keys,key_resp.rt,key_resp.duration,free_recalled_sub,mouse_continue.x,mouse_continue.y,mouse_continue.leftButton,mouse_continue.midButton,mouse_continue.rightButton,mouse_continue.time,mouse_continue.clicked_name,cued_recall.started,text_enter_2.started,key_continue.started,cued_recall.stopped,recalled_attr1,key_continue.keys,key_continue.rt,key_continue.duration,cued_recall_2.started,text_enter_3.started,key_continue_2.started,cued_recall_2.stopped,recalled_attr2,key_continue_2.keys,key_resp_8.started,key_resp_8.keys,key_resp_8.rt,key_resp_8.duration,condition,date,expName,psychopyVersion,frameRate,participant,expStart,
,,,,,,,,,,,,,,,,,,,,,,,,,,,,,0.10927110002376139,0.10933979996480048,0.10934769990853965,3.5939348998945206,,,,,,,,,,,,,,,,,,,,,,,,,,,,,,,,,,,,,3,,,,,,,,,,,,,,,,,,,,,,,,,,,,,,,,,,,,,,,,,,,,,,,,,,,,,,,,,,,,,,,,,,,,,,3,2023-12-07_11h21.28.175,watkins1,2023.2.3,99.69115667321284,53,2023-12-07 11h21.40.590460 +0000,
,,,,,,,,,,,,,,,,,,,,,,,,,,,,,,,,,3.593982999911532,55.79283510008827,,,,,,,,,,,,,,,,,,,,,,,,,,,,,,,,,,,3,,,,,,,,,,,,,,,,,,,,,,,,,,,,,,,,,,,,,,,,,,,,,,,,,,,,,,,,,,,,,,,,,,,,,,3,2023-12-07_11h21.28.175,watkins1,2023.2.3,99.69115667321284,53,2023-12-07 11h21.40.590460 +0000,
,,,0,0,0,0,,,,,,,,,,,,,,,,,,,,,56.80668499995954,,,,,,,,55.7928530999925,56.79675869992934,63.297062899917364,63.78841249994002,57.28889219998382,63.29690250009298,2,3.433527300134301,None,63.78842379990965,69.79744670004584,2,3.433527300134301,None,69.79775810008869,70.28892190009356,70.2889338999521,76.29337189998478,vergnügt,None,None,76.29358859988861,76.29361329996027,76.2936205000151,76.29370120004751,,,,,,,,,,3,,,,,,,,,,,,,,,,,,,,,,,,,,,,,,,,,,,,,,,,,,,,,,,,,,,,,,,,,,,,,,,,,,,,,,3,2023-12-07_11h21.28.175,watkins1,2023.2.3,99.69115667321284,53,2023-12-07 11h21.40.590460 +0000,
,,,,,,,,,,,,,,,,,,,,,,,,,,,,,,,,,,,,,,,,,,,,,,,,,,,,,,,,,,,,,76.29382289992645,83.55240570008755,,,,,,,3,,,,,,,,,,,,,,,,,,,,,,,,,,,,,,,,,,,,,,,,,,,,,,,,,,,,,,,,,,,,,,,,,,,,,,3,2023-12-07_11h21.28.175,watkins1,2023.2.3,99.69115667321284,53,2023-12-07 11h21.40.590460 +0000,
,,,,,,,0,0,0,0,,,,,,,,,,,,,,,,,84.56654180004261,,,,,,,,83.55242300010286,84.55645960010588,84.55692879995331,85.04855570010841,,,2,3.5690367999486625,,,,,,,,,,,,,,,,,,,,,85.04856700007804,91.05320840002969,Kette,breit,"['Kette', 'breit']",restudy,3,"['Kette', 'Blume', 'Schlüssel', 'Telefon', 'Bürste', 'Lampe', 'Hammer', 'Kerze', 'Hut', 'Schere', 'Kiste', 'Socke', 'Jacke', 'Würfel', 'Stift', 'Rucksack', 'Kamera', 'Tasse', 'Flasche', 'Tasche', 'Ring', 'Uhr', 'Geige', 'Fahrrad', 'Vase', 'Brille', 'Buch', 'Löffel', 'Eimer', 'Trommel']",['breit'],2,3.5690367999486625,None,,,,,,,,,,,,,,,,,,,,,,,,,,,,,,,,,,,,,,,,,,,,,,,,,,,,,,,,,,,,,,,,,3,2023-12-07_11h21.28.175,watkins1,2023.2.3,99.69115667321284,53,2023-12-07 11h21.40.590460 +0000,
,,,,,,,1,0,1,0,,,,,,,,,,,,,,,,,91.0627194000408,,,,,,,,,,91.05385869997554,91.54473259998485,,,1,2.3846138999797404,,,,,,,,,,,,,,,,,,,,,91.54474369995296,97.55225379997864,Blume,schwer,"['Blume', 'schwer']",restudy,3,"['Kette', 'Blume', 'Schlüssel', 'Telefon', 'Bürste', 'Lampe', 'Hammer', 'Kerze', 'Hut', 'Schere', 'Kiste', 'Socke', 'Jacke', 'Würfel', 'Stift', 'Rucksack', 'Kamera', 'Tasse', 'Flasche', 'Tasche', 'Ring', 'Uhr', 'Geige', 'Fahrrad', 'Vase', 'Brille', 'Buch', 'Löffel', 'Eimer', 'Trommel']","['breit', 'schwer']",1,2.3846138999797404,None,,,,,,,,,,,,,,,,,,,,,,,,,,,,,,,,,,,,,,,,,,,,,,,,,,,,,,,,,,,,,,,,,3,2023-12-07_11h21.28.175,watkins1,2023.2.3,99.69115667321284,53,2023-12-07 11h21.40.590460 +0000,
,,,,,,,2,0,2,0,,,,,,,,,,,,,,,,,97.56143100000918,,,,,,,,,,97.55304250004701,98.04346610000357,,,1,3.0150786999147385,,,,,,,,,,,,,,,,,,,,,98.04347630008124,104.04449309990741,Schlüssel,verspielt,"['Schlüssel', 'verspielt']",restudy,3,"['Kette', 'Blume', 'Schlüssel', 'Telefon', 'Bürste', 'Lampe', 'Hammer', 'Kerze', 'Hut', 'Schere', 'Kiste', 'Socke', 'Jacke', 'Würfel', 'Stift', 'Rucksack', 'Kamera', 'Tasse', 'Flasche', 'Tasche', 'Ring', 'Uhr', 'Geige', 'Fahrrad', 'Vase', 'Brille', 'Buch', 'Löffel', 'Eimer', 'Trommel']","['breit', 'schwer', 'verspielt']",1,3.0150786999147385,None,,,,,,,,,,,,,,,,,,,,,,,,,,,,,,,,,,,,,,,,,,,,,,,,,,,,,,,,,,,,,,,,,3,2023-12-07_11h21.28.175,watkins1,2023.2.3,99.69115667321284,53,2023-12-07 11h21.40.590460 +0000,
,,,,,,,3,0,3,0,,,,,,,,,,,,,,,,,104.05394580005668,,,,,,,,,,104.04502060008235,104.53587049990892,,,2,5.754049899987876,,,,,,,,,,,,,,,,,,,,,104.53588100010529,110.53782949992456,Telefon,rustikal,"['Telefon', 'rustikal']",restudy,3,"['Kette', 'Blume', 'Schlüssel', 'Telefon', 'Bürste', 'Lampe', 'Hammer', 'Kerze', 'Hut', 'Schere', 'Kiste', 'Socke', 'Jacke', 'Würfel', 'Stift', 'Rucksack', 'Kamera', 'Tasse', 'Flasche', 'Tasche', 'Ring', 'Uhr', 'Geige', 'Fahrrad', 'Vase', 'Brille', 'Buch', 'Löffel', 'Eimer', 'Trommel']","['breit', 'schwer', 'verspielt', 'rustikal']",2,5.754049899987876,None,,,,,,,,,,,,,,,,,,,,,,,,,,,,,,,,,,,,,,,,,,,,,,,,,,,,,,,,,,,,,,,,,3,2023-12-07_11h21.28.175,watkins1,2023.2.3,99.69115667321284,53,2023-12-07 11h21.40.590460 +0000,
,,,,,,,4,0,4,0,,,,,,,,,,,,,,,,,110.54729490005411,,,,,,,,,,110.53835569997318,111.02923019998707,,,1,2.957946800161153,,,,,,,,,,,,,,,,,,,,,111.0292410000693,117.03219410008751,Bürste,winzig,"['Bürste', 'winzig']",test_adj,3,"['Kette', 'Blume', 'Schlüssel', 'Telefon', 'Bürste', 'Lampe', 'Hammer', 'Kerze', 'Hut', 'Schere', 'Kiste', 'Socke', 'Jacke', 'Würfel', 'Stift', 'Rucksack', 'Kamera', 'Tasse', 'Flasche', 'Tasche', 'Ring', 'Uhr', 'Geige', 'Fahrrad', 'Vase', 'Brille', 'Buch', 'Löffel', 'Eimer', 'Trommel']","['breit', 'schwer', 'verspielt', 'rustikal', 'winzig']",1,2.957946800161153,None,,,,,,,,,,,,,,,,,,,,,,,,,,,,,,,,,,,,,,,,,,,,,,,,,,,,,,,,,,,,,,,,,3,2023-12-07_11h21.28.175,watkins1,2023.2.3,99.69115667321284,53,2023-12-07 11h21.40.590460 +0000,
,,,,,,,5,0,5,0,,,,,,,,,,,,,,,,,117.04166799993254,,,,,,,,,,117.03271659999155,117.52378930011764,,,2,5.51928610005416,,,,,,,,,,,,,,,,,,,,,117.5238000000827,123.53432479989715,Lampe,kurz,"['Lampe', 'kurz']",test_adj,3,"['Kette', 'Blume', 'Schlüssel', 'Telefon', 'Bürste', 'Lampe', 'Hammer', 'Kerze', 'Hut', 'Schere', 'Kiste', 'Socke', 'Jacke', 'Würfel', 'Stift', 'Rucksack', 'Kamera', 'Tasse', 'Flasche', 'Tasche', 'Ring', 'Uhr', 'Geige', 'Fahrrad', 'Vase', 'Brille', 'Buch', 'Löffel', 'Eimer', 'Trommel']","['breit', 'schwer', 'verspielt', 'rustikal', 'winzig', 'kurz']",2,5.51928610005416,None,,,,,,,,,,,,,,,,,,,,,,,,,,,,,,,,,,,,,,,,,,,,,,,,,,,,,,,,,,,,,,,,,3,2023-12-07_11h21.28.175,watkins1,2023.2.3,99.69115667321284,53,2023-12-07 11h21.40.590460 +0000,
,,,,,,,6,0,6,0,,,,,,,,,,,,,,,,,123.54377060011029,,,,,,,,,,123.53484310000204,124.0260362001136,,,1,2.5048571000806987,,,,,,,,,,,,,,,,,,,,,124.02604679996148,130.03333500004373,Hammer,hohl,"['Hammer', 'hohl']",restudy,3,"['Kette', 'Blume', 'Schlüssel', 'Telefon', 'Bürste', 'Lampe', 'Hammer', 'Kerze', 'Hut', 'Schere', 'Kiste', 'Socke', 'Jacke', 'Würfel', 'Stift', 'Rucksack', 'Kamera', 'Tasse', 'Flasche', 'Tasche', 'Ring', 'Uhr', 'Geige', 'Fahrrad', 'Vase', 'Brille', 'Buch', 'Löffel', 'Eimer', 'Trommel']","['breit', 'schwer', 'verspielt', 'rustikal', 'winzig', 'kurz', 'hohl']",1,2.5048571000806987,None,,,,,,,,,,,,,,,,,,,,,,,,,,,,,,,,,,,,,,,,,,,,,,,,,,,,,,,,,,,,,,,,,3,2023-12-07_11h21.28.175,watkins1,2023.2.3,99.69115667321284,53,2023-12-07 11h21.40.590460 +0000,
,,,,,,,7,0,7,0,,,,,,,,,,,,,,,,,130.0429104999639,,,,,,,,,,130.0338453000877,130.52493169996887,,,2,2.662202099803835,,,,,,,,,,,,,,,,,,,,,130.52494270005263,136.53481200011447,Kerze,niedlich,"['Kerze', 'niedlich']",test_adj,3,"['Kette', 'Blume', 'Schlüssel', 'Telefon', 'Bürste', 'Lampe', 'Hammer', 'Kerze', 'Hut', 'Schere', 'Kiste', 'Socke', 'Jacke', 'Würfel', 'Stift', 'Rucksack', 'Kamera', 'Tasse', 'Flasche', 'Tasche', 'Ring', 'Uhr', 'Geige', 'Fahrrad', 'Vase', 'Brille', 'Buch', 'Löffel', 'Eimer', 'Trommel']","['breit', 'schwer', 'verspielt', 'rustikal', 'winzig', 'kurz', 'hohl', 'niedlich']",2,2.662202099803835,None,,,,,,,,,,,,,,,,,,,,,,,,,,,,,,,,,,,,,,,,,,,,,,,,,,,,,,,,,,,,,,,,,3,2023-12-07_11h21.28.175,watkins1,2023.2.3,99.69115667321284,53,2023-12-07 11h21.40.590460 +0000,
,,,,,,,8,0,8,0,,,,,,,,,,,,,,,,,136.54424159997143,,,,,,,,,,136.5353220999241,137.02637799992226,,,2,3.577254200121388,,,,,,,,,,,,,,,,,,,,,137.02638940000907,143.03688629996032,Hut,kratzig,"['Hut', 'kratzig']",restudy,3,"['Kette', 'Blume', 'Schlüssel', 'Telefon', 'Bürste', 'Lampe', 'Hammer', 'Kerze', 'Hut', 'Schere', 'Kiste', 'Socke', 'Jacke', 'Würfel', 'Stift', 'Rucksack', 'Kamera', 'Tasse', 'Flasche', 'Tasche', 'Ring', 'Uhr', 'Geige', 'Fahrrad', 'Vase', 'Brille', 'Buch', 'Löffel', 'Eimer', 'Trommel']","['breit', 'schwer', 'verspielt', 'rustikal', 'winzig', 'kurz', 'hohl', 'niedlich', 'kratzig']",2,3.577254200121388,None,,,,,,,,,,,,,,,,,,,,,,,,,,,,,,,,,,,,,,,,,,,,,,,,,,,,,,,,,,,,,,,,,3,2023-12-07_11h21.28.175,watkins1,2023.2.3,99.69115667321284,53,2023-12-07 11h21.40.590460 +0000,
,,,,,,,9,0,9,0,,,,,,,,,,,,,,,,,143.04628799995407,,,,,,,,,,143.0374290999025,143.52843310008757,,,1,4.002950299996883,,,,,,,,,,,,,,,,,,,,,143.52844469994307,149.53399750008248,Schere,hübsch,"['Schere', 'hübsch']",test_adj,3,"['Kette', 'Blume', 'Schlüssel', 'Telefon', 'Bürste', 'Lampe', 'Hammer', 'Kerze', 'Hut', 'Schere', 'Kiste', 'Socke', 'Jacke', 'Würfel', 'Stift', 'Rucksack', 'Kamera', 'Tasse', 'Flasche', 'Tasche', 'Ring', 'Uhr', 'Geige', 'Fahrrad', 'Vase', 'Brille', 'Buch', 'Löffel', 'Eimer', 'Trommel']","['breit', 'schwer', 'verspielt', 'rustikal', 'winzig', 'kurz', 'hohl', 'niedlich', 'kratzig', 'hübsch']",1,4.002950299996883,None,,,,,,,,,,,,,,,,,,,,,,,,,,,,,,,,,,,,,,,,,,,,,,,,,,,,,,,,,,,,,,,,,3,2023-12-07_11h21.28.175,watkins1,2023.2.3,99.69115667321284,53,2023-12-07 11h21.40.590460 +0000,
,,,,,,,10,0,10,0,,,,,,,,,,,,,,,,,149.54347319994122,,,,,,,,,,149.53451919998042,150.02543070004322,,,1,2.9142595999874175,,,,,,,,,,,,,,,,,,,,,150.0254416000098,156.02802530000918,Kiste,kalt,"['Kiste', 'kalt']",restudy,3,"['Kette', 'Blume', 'Schlüssel', 'Telefon', 'Bürste', 'Lampe', 'Hammer', 'Kerze', 'Hut', 'Schere', 'Kiste', 'Socke', 'Jacke', 'Würfel', 'Stift', 'Rucksack', 'Kamera', 'Tasse', 'Flasche', 'Tasche', 'Ring', 'Uhr', 'Geige', 'Fahrrad', 'Vase', 'Brille', 'Buch', 'Löffel', 'Eimer', 'Trommel']","['breit', 'schwer', 'verspielt', 'rustikal', 'winzig', 'kurz', 'hohl', 'niedlich', 'kratzig', 'hübsch', 'kalt']",1,2.9142595999874175,None,,,,,,,,,,,,,,,,,,,,,,,,,,,,,,,,,,,,,,,,,,,,,,,,,,,,,,,,,,,,,,,,,3,2023-12-07_11h21.28.175,watkins1,2023.2.3,99.69115667321284,53,2023-12-07 11h21.40.590460 +0000,
,,,,,,,11,0,11,0,,,,,,,,,,,,,,,,,156.03758449992165,,,,,,,,,,156.02853889996186,156.51955249998719,,,1,2.0828980000223964,,,,,,,,,,,,,,,,,,,,,156.51956350007094,162.52747679990716,Socke,glänzend,"['Socke', 'glänzend']",test_adj,3,"['Kette', 'Blume', 'Schlüssel', 'Telefon', 'Bürste', 'Lampe', 'Hammer', 'Kerze', 'Hut', 'Schere', 'Kiste', 'Socke', 'Jacke', 'Würfel', 'Stift', 'Rucksack', 'Kamera', 'Tasse', 'Flasche', 'Tasche', 'Ring', 'Uhr', 'Geige', 'Fahrrad', 'Vase', 'Brille', 'Buch', 'Löffel', 'Eimer', 'Trommel']","['breit', 'schwer', 'verspielt', 'rustikal', 'winzig', 'kurz', 'hohl', 'niedlich', 'kratzig', 'hübsch', 'kalt', 'glänzend']",1,2.0828980000223964,None,,,,,,,,,,,,,,,,,,,,,,,,,,,,,,,,,,,,,,,,,,,,,,,,,,,,,,,,,,,,,,,,,3,2023-12-07_11h21.28.175,watkins1,2023.2.3,99.69115667321284,53,2023-12-07 11h21.40.590460 +0000,
,,,,,,,12,0,12,0,,,,,,,,,,,,,,,,,162.5368512000423,,,,,,,,,,162.52800270006992,163.01898130006157,,,2,4.791458500083536,,,,,,,,,,,,,,,,,,,,,163.01899209991097,169.01986559992656,Jacke,lustig,"['Jacke', 'lustig']",restudy,3,"['Kette', 'Blume', 'Schlüssel', 'Telefon', 'Bürste', 'Lampe', 'Hammer', 'Kerze', 'Hut', 'Schere', 'Kiste', 'Socke', 'Jacke', 'Würfel', 'Stift', 'Rucksack', 'Kamera', 'Tasse', 'Flasche', 'Tasche', 'Ring', 'Uhr', 'Geige', 'Fahrrad', 'Vase', 'Brille', 'Buch', 'Löffel', 'Eimer', 'Trommel']","['breit', 'schwer', 'verspielt', 'rustikal', 'winzig', 'kurz', 'hohl', 'niedlich', 'kratzig', 'hübsch', 'kalt', 'glänzend', 'lustig']",2,4.791458500083536,None,,,,,,,,,,,,,,,,,,,,,,,,,,,,,,,,,,,,,,,,,,,,,,,,,,,,,,,,,,,,,,,,,3,2023-12-07_11h21.28.175,watkins1,2023.2.3,99.69115667321284,53,2023-12-07 11h21.40.590460 +0000,
,,,,,,,13,0,13,0,,,,,,,,,,,,,,,,,169.0293715998996,,,,,,,,,,169.02039379999042,169.51171780005097,,,1,2.1631175999064,,,,,,,,,,,,,,,,,,,,,169.51172859990038,175.52135760011151,Würfel,neu,"['Würfel', 'neu']",test_adj,3,"['Kette', 'Blume', 'Schlüssel', 'Telefon', 'Bürste', 'Lampe', 'Hammer', 'Kerze', 'Hut', 'Schere', 'Kiste', 'Socke', 'Jacke', 'Würfel', 'Stift', 'Rucksack', 'Kamera', 'Tasse', 'Flasche', 'Tasche', 'Ring', 'Uhr', 'Geige', 'Fahrrad', 'Vase', 'Brille', 'Buch', 'Löffel', 'Eimer', 'Trommel']","['breit', 'schwer', 'verspielt', 'rustikal', 'winzig', 'kurz', 'hohl', 'niedlich', 'kratzig', 'hübsch', 'kalt', 'glänzend', 'lustig', 'neu']",1,2.1631175999064,None,,,,,,,,,,,,,,,,,,,,,,,,,,,,,,,,,,,,,,,,,,,,,,,,,,,,,,,,,,,,,,,,,3,2023-12-07_11h21.28.175,watkins1,2023.2.3,99.69115667321284,53,2023-12-07 11h21.40.590460 +0000,
,,,,,,,14,0,14,0,,,,,,,,,,,,,,,,,175.53089760011062,,,,,,,,,,175.5218700999394,176.0129511000123,,,3,1.6386049999855459,,,,,,,,,,,,,,,,,,,,,176.01296119997278,182.02216619998217,Stift,praktisch,"['Stift', 'praktisch']",restudy,3,"['Kette', 'Blume', 'Schlüssel', 'Telefon', 'Bürste', 'Lampe', 'Hammer', 'Kerze', 'Hut', 'Schere', 'Kiste', 'Socke', 'Jacke', 'Würfel', 'Stift', 'Rucksack', 'Kamera', 'Tasse', 'Flasche', 'Tasche', 'Ring', 'Uhr', 'Geige', 'Fahrrad', 'Vase', 'Brille', 'Buch', 'Löffel', 'Eimer', 'Trommel']","['breit', 'schwer', 'verspielt', 'rustikal', 'winzig', 'kurz', 'hohl', 'niedlich', 'kratzig', 'hübsch', 'kalt', 'glänzend', 'lustig', 'neu', 'praktisch']",3,1.6386049999855459,None,,,,,,,,,,,,,,,,,,,,,,,,,,,,,,,,,,,,,,,,,,,,,,,,,,,,,,,,,,,,,,,,,3,2023-12-07_11h21.28.175,watkins1,2023.2.3,99.69115667321284,53,2023-12-07 11h21.40.590460 +0000,
,,,,,,,15,0,15,0,,,,,,,,,,,,,,,,,182.03164279996417,,,,,,,,,,182.02269880007952,182.51364360004663,,,1,2.9366750000044703,,,,,,,,,,,,,,,,,,,,,182.513653999893,188.51496000005864,Rucksack,flauschig,"['Rucksack', 'flauschig']",restudy,3,"['Kette', 'Blume', 'Schlüssel', 'Telefon', 'Bürste', 'Lampe', 'Hammer', 'Kerze', 'Hut', 'Schere', 'Kiste', 'Socke', 'Jacke', 'Würfel', 'Stift', 'Rucksack', 'Kamera', 'Tasse', 'Flasche', 'Tasche', 'Ring', 'Uhr', 'Geige', 'Fahrrad', 'Vase', 'Brille', 'Buch', 'Löffel', 'Eimer', 'Trommel']","['breit', 'schwer', 'verspielt', 'rustikal', 'winzig', 'kurz', 'hohl', 'niedlich', 'kratzig', 'hübsch', 'kalt', 'glänzend', 'lustig', 'neu', 'praktisch', 'flauschig']",1,2.9366750000044703,None,,,,,,,,,,,,,,,,,,,,,,,,,,,,,,,,,,,,,,,,,,,,,,,,,,,,,,,,,,,,,,,,,3,2023-12-07_11h21.28.175,watkins1,2023.2.3,99.69115667321284,53,2023-12-07 11h21.40.590460 +0000,
,,,,,,,16,0,16,0,,,,,,,,,,,,,,,,,188.5244326000102,,,,,,,,,,188.5154812000692,189.00659230002202,,,1,4.020997599931434,,,,,,,,,,,,,,,,,,,,,189.0066023999825,195.0147001000587,Kamera,krumm,"['Kamera', 'krumm']",test_adj,3,"['Kette', 'Blume', 'Schlüssel', 'Telefon', 'Bürste', 'Lampe', 'Hammer', 'Kerze', 'Hut', 'Schere', 'Kiste', 'Socke', 'Jacke', 'Würfel', 'Stift', 'Rucksack', 'Kamera', 'Tasse', 'Flasche', 'Tasche', 'Ring', 'Uhr', 'Geige', 'Fahrrad', 'Vase', 'Brille', 'Buch', 'Löffel', 'Eimer', 'Trommel']","['breit', 'schwer', 'verspielt', 'rustikal', 'winzig', 'kurz', 'hohl', 'niedlich', 'kratzig', 'hübsch', 'kalt', 'glänzend', 'lustig', 'neu', 'praktisch', 'flauschig', 'krumm']",1,4.020997599931434,None,,,,,,,,,,,,,,,,,,,,,,,,,,,,,,,,,,,,,,,,,,,,,,,,,,,,,,,,,,,,,,,,,3,2023-12-07_11h21.28.175,watkins1,2023.2.3,99.69115667321284,53,2023-12-07 11h21.40.590460 +0000,
,,,,,,,17,0,17,0,,,,,,,,,,,,,,,,,195.0242641000077,,,,,,,,,,195.01522570010275,195.50630320003256,,,2,1.6972572000231594,,,,,,,,,,,,,,,,,,,,,195.5063151998911,201.5148887000978,Tasse,dick,"['Tasse', 'dick']",restudy,3,"['Kette', 'Blume', 'Schlüssel', 'Telefon', 'Bürste', 'Lampe', 'Hammer', 'Kerze', 'Hut', 'Schere', 'Kiste', 'Socke', 'Jacke', 'Würfel', 'Stift', 'Rucksack', 'Kamera', 'Tasse', 'Flasche', 'Tasche', 'Ring', 'Uhr', 'Geige', 'Fahrrad', 'Vase', 'Brille', 'Buch', 'Löffel', 'Eimer', 'Trommel']","['breit', 'schwer', 'verspielt', 'rustikal', 'winzig', 'kurz', 'hohl', 'niedlich', 'kratzig', 'hübsch', 'kalt', 'glänzend', 'lustig', 'neu', 'praktisch', 'flauschig', 'krumm', 'dick']",2,1.6972572000231594,None,,,,,,,,,,,,,,,,,,,,,,,,,,,,,,,,,,,,,,,,,,,,,,,,,,,,,,,,,,,,,,,,,3,2023-12-07_11h21.28.175,watkins1,2023.2.3,99.69115667321284,53,2023-12-07 11h21.40.590460 +0000,
,,,,,,,18,0,18,0,,,,,,,,,,,,,,,,,201.52437389991246,,,,,,,,,,201.5154236999806,202.00631100009196,,,2,4.444547699997202,,,,,,,,,,,,,,,,,,,,,202.00632190005854,208.01637819991447,Flasche,hässlich,"['Flasche', 'hässlich']",test_adj,3,"['Kette', 'Blume', 'Schlüssel', 'Telefon', 'Bürste', 'Lampe', 'Hammer', 'Kerze', 'Hut', 'Schere', 'Kiste', 'Socke', 'Jacke', 'Würfel', 'Stift', 'Rucksack', 'Kamera', 'Tasse', 'Flasche', 'Tasche', 'Ring', 'Uhr', 'Geige', 'Fahrrad', 'Vase', 'Brille', 'Buch', 'Löffel', 'Eimer', 'Trommel']","['breit', 'schwer', 'verspielt', 'rustikal', 'winzig', 'kurz', 'hohl', 'niedlich', 'kratzig', 'hübsch', 'kalt', 'glänzend', 'lustig', 'neu', 'praktisch', 'flauschig', 'krumm', 'dick', 'hässlich']",2,4.444547699997202,None,,,,,,,,,,,,,,,,,,,,,,,,,,,,,,,,,,,,,,,,,,,,,,,,,,,,,,,,,,,,,,,,,3,2023-12-07_11h21.28.175,watkins1,2023.2.3,99.69115667321284,53,2023-12-07 11h21.40.590460 +0000,
,,,,,,,19,0,19,0,,,,,,,,,,,,,,,,,208.02594910003245,,,,,,,,,,208.01690079993568,208.50791239994578,,,3,3.159420100040734,,,,,,,,,,,,,,,,,,,,,208.50792320002802,214.51687920000404,Tasche,schlicht,"['Tasche', 'schlicht']",test_adj,3,"['Kette', 'Blume', 'Schlüssel', 'Telefon', 'Bürste', 'Lampe', 'Hammer', 'Kerze', 'Hut', 'Schere', 'Kiste', 'Socke', 'Jacke', 'Würfel', 'Stift', 'Rucksack', 'Kamera', 'Tasse', 'Flasche', 'Tasche', 'Ring', 'Uhr', 'Geige', 'Fahrrad', 'Vase', 'Brille', 'Buch', 'Löffel', 'Eimer', 'Trommel']","['breit', 'schwer', 'verspielt', 'rustikal', 'winzig', 'kurz', 'hohl', 'niedlich', 'kratzig', 'hübsch', 'kalt', 'glänzend', 'lustig', 'neu', 'praktisch', 'flauschig', 'krumm', 'dick', 'hässlich', 'schlicht']",3,3.159420100040734,None,,,,,,,,,,,,,,,,,,,,,,,,,,,,,,,,,,,,,,,,,,,,,,,,,,,,,,,,,,,,,,,,,3,2023-12-07_11h21.28.175,watkins1,2023.2.3,99.69115667321284,53,2023-12-07 11h21.40.590460 +0000,
,,,,,,,20,0,20,0,,,,,,,,,,,,,,,,,214.52631390001625,,,,,,,,,,214.51739330007695,215.00848739990033,,,2,1.6913318999577314,,,,,,,,,,,,,,,,,,,,,215.00849799998105,221.01159780006856,Ring,gut,"['Ring', 'gut']",restudy,3,"['Kette', 'Blume', 'Schlüssel', 'Telefon', 'Bürste', 'Lampe', 'Hammer', 'Kerze', 'Hut', 'Schere', 'Kiste', 'Socke', 'Jacke', 'Würfel', 'Stift', 'Rucksack', 'Kamera', 'Tasse', 'Flasche', 'Tasche', 'Ring', 'Uhr', 'Geige', 'Fahrrad', 'Vase', 'Brille', 'Buch', 'Löffel', 'Eimer', 'Trommel']","['breit', 'schwer', 'verspielt', 'rustikal', 'winzig', 'kurz', 'hohl', 'niedlich', 'kratzig', 'hübsch', 'kalt', 'glänzend', 'lustig', 'neu', 'praktisch', 'flauschig', 'krumm', 'dick', 'hässlich', 'schlicht', 'gut']",2,1.6913318999577314,None,,,,,,,,,,,,,,,,,,,,,,,,,,,,,,,,,,,,,,,,,,,,,,,,,,,,,,,,,,,,,,,,,3,2023-12-07_11h21.28.175,watkins1,2023.2.3,99.69115667321284,53,2023-12-07 11h21.40.590460 +0000,
,,,,,,,21,0,21,0,,,,,,,,,,,,,,,,,221.02104080002755,,,,,,,,,,221.0121124999132,221.50311910011806,,,3,3.2114637000486255,,,,,,,,,,,,,,,,,,,,,221.50312989996746,227.5117087000981,Uhr,robust,"['Uhr', 'robust']",test_adj,3,"['Kette', 'Blume', 'Schlüssel', 'Telefon', 'Bürste', 'Lampe', 'Hammer', 'Kerze', 'Hut', 'Schere', 'Kiste', 'Socke', 'Jacke', 'Würfel', 'Stift', 'Rucksack', 'Kamera', 'Tasse', 'Flasche', 'Tasche', 'Ring', 'Uhr', 'Geige', 'Fahrrad', 'Vase', 'Brille', 'Buch', 'Löffel', 'Eimer', 'Trommel']","['breit', 'schwer', 'verspielt', 'rustikal', 'winzig', 'kurz', 'hohl', 'niedlich', 'kratzig', 'hübsch', 'kalt', 'glänzend', 'lustig', 'neu', 'praktisch', 'flauschig', 'krumm', 'dick', 'hässlich', 'schlicht', 'gut', 'robust']",3,3.2114637000486255,None,,,,,,,,,,,,,,,,,,,,,,,,,,,,,,,,,,,,,,,,,,,,,,,,,,,,,,,,,,,,,,,,,3,2023-12-07_11h21.28.175,watkins1,2023.2.3,99.69115667321284,53,2023-12-07 11h21.40.590460 +0000,
,,,,,,,22,0,22,0,,,,,,,,,,,,,,,,,227.52128389989957,,,,,,,,,,227.51223269989714,228.00319180008955,,,1,2.2713731001131237,,,,,,,,,,,,,,,,,,,,,228.0032023000531,234.01361800008453,Geige,gepunktet,"['Geige', 'gepunktet']",test_adj,3,"['Kette', 'Blume', 'Schlüssel', 'Telefon', 'Bürste', 'Lampe', 'Hammer', 'Kerze', 'Hut', 'Schere', 'Kiste', 'Socke', 'Jacke', 'Würfel', 'Stift', 'Rucksack', 'Kamera', 'Tasse', 'Flasche', 'Tasche', 'Ring', 'Uhr', 'Geige', 'Fahrrad', 'Vase', 'Brille', 'Buch', 'Löffel', 'Eimer', 'Trommel']","['breit', 'schwer', 'verspielt', 'rustikal', 'winzig', 'kurz', 'hohl', 'niedlich', 'kratzig', 'hübsch', 'kalt', 'glänzend', 'lustig', 'neu', 'praktisch', 'flauschig', 'krumm', 'dick', 'hässlich', 'schlicht', 'gut', 'robust', 'gepunktet']",1,2.2713731001131237,None,,,,,,,,,,,,,,,,,,,,,,,,,,,,,,,,,,,,,,,,,,,,,,,,,,,,,,,,,,,,,,,,,3,2023-12-07_11h21.28.175,watkins1,2023.2.3,99.69115667321284,53,2023-12-07 11h21.40.590460 +0000,
,,,,,,,23,0,23,0,,,,,,,,,,,,,,,,,234.02312929998152,,,,,,,,,,234.01413720007986,234.50514349993318,,,1,3.87418150017038,,,,,,,,,,,,,,,,,,,,,234.50515439989977,240.50919730006717,Fahrrad,klobig,"['Fahrrad', 'klobig']",test_adj,3,"['Kette', 'Blume', 'Schlüssel', 'Telefon', 'Bürste', 'Lampe', 'Hammer', 'Kerze', 'Hut', 'Schere', 'Kiste', 'Socke', 'Jacke', 'Würfel', 'Stift', 'Rucksack', 'Kamera', 'Tasse', 'Flasche', 'Tasche', 'Ring', 'Uhr', 'Geige', 'Fahrrad', 'Vase', 'Brille', 'Buch', 'Löffel', 'Eimer', 'Trommel']","['breit', 'schwer', 'verspielt', 'rustikal', 'winzig', 'kurz', 'hohl', 'niedlich', 'kratzig', 'hübsch', 'kalt', 'glänzend', 'lustig', 'neu', 'praktisch', 'flauschig', 'krumm', 'dick', 'hässlich', 'schlicht', 'gut', 'robust', 'gepunktet', 'klobig']",1,3.87418150017038,None,,,,,,,,,,,,,,,,,,,,,,,,,,,,,,,,,,,,,,,,,,,,,,,,,,,,,,,,,,,,,,,,,3,2023-12-07_11h21.28.175,watkins1,2023.2.3,99.69115667321284,53,2023-12-07 11h21.40.590460 +0000,
,,,,,,,24,0,24,0,,,,,,,,,,,,,,,,,240.51865880005062,,,,,,,,,,240.5097213999834,241.00075310003012,,,3,2.5062599000521004,,,,,,,,,,,,,,,,,,,,,241.0007639999967,247.00159180001356,Vase,nass,"['Vase', 'nass']",test_adj,3,"['Kette', 'Blume', 'Schlüssel', 'Telefon', 'Bürste', 'Lampe', 'Hammer', 'Kerze', 'Hut', 'Schere', 'Kiste', 'Socke', 'Jacke', 'Würfel', 'Stift', 'Rucksack', 'Kamera', 'Tasse', 'Flasche', 'Tasche', 'Ring', 'Uhr', 'Geige', 'Fahrrad', 'Vase', 'Brille', 'Buch', 'Löffel', 'Eimer', 'Trommel']","['breit', 'schwer', 'verspielt', 'rustikal', 'winzig', 'kurz', 'hohl', 'niedlich', 'kratzig', 'hübsch', 'kalt', 'glänzend', 'lustig', 'neu', 'praktisch', 'flauschig', 'krumm', 'dick', 'hässlich', 'schlicht', 'gut', 'robust', 'gepunktet', 'klobig', 'nass']",3,2.5062599000521004,None,,,,,,,,,,,,,,,,,,,,,,,,,,,,,,,,,,,,,,,,,,,,,,,,,,,,,,,,,,,,,,,,,3,2023-12-07_11h21.28.175,watkins1,2023.2.3,99.69115667321284,53,2023-12-07 11h21.40.590460 +0000,
,,,,,,,25,0,25,0,,,,,,,,,,,,,,,,,247.0110595000442,,,,,,,,,,247.00212060008198,247.4930098000914,,,2,2.0624679001048207,,,,,,,,,,,,,,,,,,,,,247.4930209000595,253.49594180006534,Brille,matt,"['Brille', 'matt']",test_adj,3,"['Kette', 'Blume', 'Schlüssel', 'Telefon', 'Bürste', 'Lampe', 'Hammer', 'Kerze', 'Hut', 'Schere', 'Kiste', 'Socke', 'Jacke', 'Würfel', 'Stift', 'Rucksack', 'Kamera', 'Tasse', 'Flasche', 'Tasche', 'Ring', 'Uhr', 'Geige', 'Fahrrad', 'Vase', 'Brille', 'Buch', 'Löffel', 'Eimer', 'Trommel']","['breit', 'schwer', 'verspielt', 'rustikal', 'winzig', 'kurz', 'hohl', 'niedlich', 'kratzig', 'hübsch', 'kalt', 'glänzend', 'lustig', 'neu', 'praktisch', 'flauschig', 'krumm', 'dick', 'hässlich', 'schlicht', 'gut', 'robust', 'gepunktet', 'klobig', 'nass', 'matt']",2,2.0624679001048207,None,,,,,,,,,,,,,,,,,,,,,,,,,,,,,,,,,,,,,,,,,,,,,,,,,,,,,,,,,,,,,,,,,3,2023-12-07_11h21.28.175,watkins1,2023.2.3,99.69115667321284,53,2023-12-07 11h21.40.590460 +0000,
,,,,,,,26,0,26,0,,,,,,,,,,,,,,,,,253.50540450005792,,,,,,,,,,253.49646129994653,253.98746640002355,,,2,2.2791764999274164,,,,,,,,,,,,,,,,,,,,,253.9874770999886,259.9884367999621,Buch,groß,"['Buch', 'groß']",restudy,3,"['Kette', 'Blume', 'Schlüssel', 'Telefon', 'Bürste', 'Lampe', 'Hammer', 'Kerze', 'Hut', 'Schere', 'Kiste', 'Socke', 'Jacke', 'Würfel', 'Stift', 'Rucksack', 'Kamera', 'Tasse', 'Flasche', 'Tasche', 'Ring', 'Uhr', 'Geige', 'Fahrrad', 'Vase', 'Brille', 'Buch', 'Löffel', 'Eimer', 'Trommel']","['breit', 'schwer', 'verspielt', 'rustikal', 'winzig', 'kurz', 'hohl', 'niedlich', 'kratzig', 'hübsch', 'kalt', 'glänzend', 'lustig', 'neu', 'praktisch', 'flauschig', 'krumm', 'dick', 'hässlich', 'schlicht', 'gut', 'robust', 'gepunktet', 'klobig', 'nass', 'matt', 'groß']",2,2.2791764999274164,None,,,,,,,,,,,,,,,,,,,,,,,,,,,,,,,,,,,,,,,,,,,,,,,,,,,,,,,,,,,,,,,,,3,2023-12-07_11h21.28.175,watkins1,2023.2.3,99.69115667321284,53,2023-12-07 11h21.40.590460 +0000,
,,,,,,,27,0,27,0,,,,,,,,,,,,,,,,,259.9979004000779,,,,,,,,,,259.98895550007,260.47979260003194,,,1,2.1229400001466274,,,,,,,,,,,,,,,,,,,,,260.4798038001172,266.48950570006855,Löffel,dunkel,"['Löffel', 'dunkel']",restudy,3,"['Kette', 'Blume', 'Schlüssel', 'Telefon', 'Bürste', 'Lampe', 'Hammer', 'Kerze', 'Hut', 'Schere', 'Kiste', 'Socke', 'Jacke', 'Würfel', 'Stift', 'Rucksack', 'Kamera', 'Tasse', 'Flasche', 'Tasche', 'Ring', 'Uhr', 'Geige', 'Fahrrad', 'Vase', 'Brille', 'Buch', 'Löffel', 'Eimer', 'Trommel']","['breit', 'schwer', 'verspielt', 'rustikal', 'winzig', 'kurz', 'hohl', 'niedlich', 'kratzig', 'hübsch', 'kalt', 'glänzend', 'lustig', 'neu', 'praktisch', 'flauschig', 'krumm', 'dick', 'hässlich', 'schlicht', 'gut', 'robust', 'gepunktet', 'klobig', 'nass', 'matt', 'groß', 'dunkel']",1,2.1229400001466274,None,,,,,,,,,,,,,,,,,,,,,,,,,,,,,,,,,,,,,,,,,,,,,,,,,,,,,,,,,,,,,,,,,3,2023-12-07_11h21.28.175,watkins1,2023.2.3,99.69115667321284,53,2023-12-07 11h21.40.590460 +0000,
,,,,,,,28,0,28,0,,,,,,,,,,,,,,,,,266.4989688000642,,,,,,,,,,266.490033299895,266.98066419991665,,,3,3.8459286000579596,,,,,,,,,,,,,,,,,,,,,266.98067479999736,272.9891989999451,Eimer,lang,"['Eimer', 'lang']",restudy,3,"['Kette', 'Blume', 'Schlüssel', 'Telefon', 'Bürste', 'Lampe', 'Hammer', 'Kerze', 'Hut', 'Schere', 'Kiste', 'Socke', 'Jacke', 'Würfel', 'Stift', 'Rucksack', 'Kamera', 'Tasse', 'Flasche', 'Tasche', 'Ring', 'Uhr', 'Geige', 'Fahrrad', 'Vase', 'Brille', 'Buch', 'Löffel', 'Eimer', 'Trommel']","['breit', 'schwer', 'verspielt', 'rustikal', 'winzig', 'kurz', 'hohl', 'niedlich', 'kratzig', 'hübsch', 'kalt', 'glänzend', 'lustig', 'neu', 'praktisch', 'flauschig', 'krumm', 'dick', 'hässlich', 'schlicht', 'gut', 'robust', 'gepunktet', 'klobig', 'nass', 'matt', 'groß', 'dunkel', 'lang']",3,3.8459286000579596,None,,,,,,,,,,,,,,,,,,,,,,,,,,,,,,,,,,,,,,,,,,,,,,,,,,,,,,,,,,,,,,,,,3,2023-12-07_11h21.28.175,watkins1,2023.2.3,99.69115667321284,53,2023-12-07 11h21.40.590460 +0000,
,,,,,,,29,0,29,0,,,,,,,,,,,,,,,,,272.9999152000528,,,,,,,,,,272.98972139996476,273.4830328999087,,,1,4.224169300170615,,,,,,,,,,,,,,,,,,,,,273.483044099994,279.4847119001206,Trommel,biegsam,"['Trommel', 'biegsam']",test_adj,3,"['Kette', 'Blume', 'Schlüssel', 'Telefon', 'Bürste', 'Lampe', 'Hammer', 'Kerze', 'Hut', 'Schere', 'Kiste', 'Socke', 'Jacke', 'Würfel', 'Stift', 'Rucksack', 'Kamera', 'Tasse', 'Flasche', 'Tasche', 'Ring', 'Uhr', 'Geige', 'Fahrrad', 'Vase', 'Brille', 'Buch', 'Löffel', 'Eimer', 'Trommel']","['breit', 'schwer', 'verspielt', 'rustikal', 'winzig', 'kurz', 'hohl', 'niedlich', 'kratzig', 'hübsch', 'kalt', 'glänzend', 'lustig', 'neu', 'praktisch', 'flauschig', 'krumm', 'dick', 'hässlich', 'schlicht', 'gut', 'robust', 'gepunktet', 'klobig', 'nass', 'matt', 'groß', 'dunkel', 'lang', 'biegsam']",1,4.224169300170615,None,,,,,,,,,,,,,,,,,,,,,,,,,,,,,,,,,,,,,,,,,,,,,,,,,,,,,,,,,,,,,,,,,3,2023-12-07_11h21.28.175,watkins1,2023.2.3,99.69115667321284,53,2023-12-07 11h21.40.590460 +0000,
,,,,,,,,,,,0,0,0,0,,,,,,,,,,,,,279.4941022999119,,,,,,,,,,279.4855808999855,279.97611870011315,,,[],[],,,,,,,,,,,,None,None,,,,,,,,,,Stift,praktisch,"['Stift', 'praktisch']",restudy,3,,,,,,279.48550339997746,279.4855533000082,"['Stift', 'Schlüssel', 'Blume', 'Bürste', 'Socke', 'Vase', 'Eimer', 'Fahrrad', 'Rucksack', 'Buch', 'Telefon', 'Tasche', 'Kamera', 'Geige', 'Kette', 'Uhr', 'Hammer', 'Lampe', 'Hut', 'Kerze', 'Ring', 'Würfel', 'Löffel', 'Brille', 'Trommel', 'Kiste', 'Schere', 'Flasche', 'Tasse', 'Jacke']",279.9761302000843,279.9788329000585,None,279.97901590005495,285.9810118000023,3,1.3357591999229044,None,285.981429599924,285.9841481000185,None,285.9843087999616,285.98547290009446,285.98548509995453,285.98679660004564,,,,,,,,,,,,,,,,,,,,,,,,,,,,,,,,,,,,,,,,,,,,,,,3,2023-12-07_11h21.28.175,watkins1,2023.2.3,99.69115667321284,53,2023-12-07 11h21.40.590460 +0000,
,,,,,,,,,,,1,0,1,0,,,,,,,,,,,,,285.99059129995294,,,,,,,,,,285.98708339990117,286.482546400046,,,[],[],,,,,,,,,,,,None,None,,,,,,,,,,Schlüssel,verspielt,"['Schlüssel', 'verspielt']",restudy,3,,,,,,285.98701800010167,285.9870561999269,"['Stift', 'Schlüssel', 'Blume', 'Bürste', 'Socke', 'Vase', 'Eimer', 'Fahrrad', 'Rucksack', 'Buch', 'Telefon', 'Tasche', 'Kamera', 'Geige', 'Kette', 'Uhr', 'Hammer', 'Lampe', 'Hut', 'Kerze', 'Ring', 'Würfel', 'Löffel', 'Brille', 'Trommel', 'Kiste', 'Schere', 'Flasche', 'Tasse', 'Jacke']",286.4825579999015,286.4853936000727,None,286.48551900009625,292.48666219995357,1,2.4458650001324713,None,292.4869586999994,292.48983300011605,None,292.4899452000391,292.4911730000749,292.4911847000476,292.492404300021,,,,,,,,,,,,,,,,,,,,,,,,,,,,,,,,,,,,,,,,,,,,,,,3,2023-12-07_11h21.28.175,watkins1,2023.2.3,99.69115667321284,53,2023-12-07 11h21.40.590460 +0000,
,,,,,,,,,,,2,0,2,0,,,,,,,,,,,,,292.49612000002526,,,,,,,,,,292.4926861000713,292.98824340011925,,,[],[],,,,,,,,,,,,None,None,,,,,,,,,,Blume,schwer,"['Blume', 'schwer']",restudy,3,,,,,,292.49262039992027,292.49265879997984,"['Stift', 'Schlüssel', 'Blume', 'Bürste', 'Socke', 'Vase', 'Eimer', 'Fahrrad', 'Rucksack', 'Buch', 'Telefon', 'Tasche', 'Kamera', 'Geige', 'Kette', 'Uhr', 'Hammer', 'Lampe', 'Hut', 'Kerze', 'Ring', 'Würfel', 'Löffel', 'Brille', 'Trommel', 'Kiste', 'Schere', 'Flasche', 'Tasse', 'Jacke']",292.9882545999717,292.99097959999926,None,292.99110409989953,298.99883050005883,1,1.2045744000934064,None,298.99925710004754,299.0020039000083,None,299.00211829994805,299.00326599995606,299.0032776000444,299.00443110009655,,,,,,,,,,,,,,,,,,,,,,,,,,,,,,,,,,,,,,,,,,,,,,,3,2023-12-07_11h21.28.175,watkins1,2023.2.3,99.69115667321284,53,2023-12-07 11h21.40.590460 +0000,
,,,,,,,,,,,3,0,3,0,,,,,,,,,,,,,299.00840949988924,,,,,,,,,,299.0047140000388,299.5003525998909,,,[],[],,,,,,,,,,,kl,None,None,,,,,,,,,,Bürste,winzig,"['Bürste', 'winzig']",test_adj,3,,,,,,299.0046484998893,299.0046876000706,"['Stift', 'Schlüssel', 'Blume', 'Bürste', 'Socke', 'Vase', 'Eimer', 'Fahrrad', 'Rucksack', 'Buch', 'Telefon', 'Tasche', 'Kamera', 'Geige', 'Kette', 'Uhr', 'Hammer', 'Lampe', 'Hut', 'Kerze', 'Ring', 'Würfel', 'Löffel', 'Brille', 'Trommel', 'Kiste', 'Schere', 'Flasche', 'Tasse', 'Jacke']",299.500364900101,299.5030308999121,None,299.5031560000498,299.504567499971,None,,,299.50467819999903,299.5060938000679,None,299.50620290008374,305.5085398000665,305.5085537999403,305.5097827001009,0,,,,,,,,,,,,,,,,,,,,,,,,,,,,,,,,,,,,,,,,,,,,,,3,2023-12-07_11h21.28.175,watkins1,2023.2.3,99.69115667321284,53,2023-12-07 11h21.40.590460 +0000,
,,,,,,,,,,,4,0,4,0,,,,,,,,,,,,,305.5183468000032,,,,,,,,,,305.5100680999458,306.00034760008566,,,[],[],,,,,,,,,,,klein,None,None,,,,,,,,,,Socke,glänzend,"['Socke', 'glänzend']",test_adj,3,,,,,,305.5100008000154,305.5100394000765,"['Stift', 'Schlüssel', 'Blume', 'Bürste', 'Socke', 'Vase', 'Eimer', 'Fahrrad', 'Rucksack', 'Buch', 'Telefon', 'Tasche', 'Kamera', 'Geige', 'Kette', 'Uhr', 'Hammer', 'Lampe', 'Hut', 'Kerze', 'Ring', 'Würfel', 'Löffel', 'Brille', 'Trommel', 'Kiste', 'Schere', 'Flasche', 'Tasse', 'Jacke']",306.00035850005224,306.0031405000482,None,306.00326759996824,306.0057868999429,None,,,306.00589779997244,306.00844829995185,None,306.0085557999555,312.0131316999905,312.0131457000971,312.01448879996315,0,,,,,,,,,,,,,,,,,,,,,,,,,,,,,,,,,,,,,,,,,,,,,,3,2023-12-07_11h21.28.175,watkins1,2023.2.3,99.69115667321284,53,2023-12-07 11h21.40.590460 +0000,
,,,,,,,,,,,5,0,5,0,,,,,,,,,,,,,312.0229317001067,,,,,,,,,,312.0147736999206,312.5062015000731,,,[],[],,,,,,,,,,,nass,None,None,,,,,,,,,,Vase,nass,"['Vase', 'nass']",test_adj,3,,,,,,312.01470559998415,312.0147450999357,"['Stift', 'Schlüssel', 'Blume', 'Bürste', 'Socke', 'Vase', 'Eimer', 'Fahrrad', 'Rucksack', 'Buch', 'Telefon', 'Tasche', 'Kamera', 'Geige', 'Kette', 'Uhr', 'Hammer', 'Lampe', 'Hut', 'Kerze', 'Ring', 'Würfel', 'Löffel', 'Brille', 'Trommel', 'Kiste', 'Schere', 'Flasche', 'Tasse', 'Jacke']",312.5062130999286,312.5088160999585,None,312.5089420999866,312.51137399999425,None,,,312.51148550002836,312.5139021000359,None,312.51400960003957,318.5180687000975,318.51808300009,318.5192356999032,0,,,,,,,,,,,,,,,,,,,,,,,,,,,,,,,,,,,,,,,,,,,,,,3,2023-12-07_11h21.28.175,watkins1,2023.2.3,99.69115667321284,53,2023-12-07 11h21.40.590460 +0000,
,,,,,,,,,,,6,0,6,0,,,,,,,,,,,,,318.52782590012066,,,,,,,,,,318.5195226999931,319.00988529995084,,,[],[],,,,,,,,,,,,None,None,,,,,,,,,,Eimer,lang,"['Eimer', 'lang']",restudy,3,,,,,,318.5194538999349,318.51949410000816,"['Stift', 'Schlüssel', 'Blume', 'Bürste', 'Socke', 'Vase', 'Eimer', 'Fahrrad', 'Rucksack', 'Buch', 'Telefon', 'Tasche', 'Kamera', 'Geige', 'Kette', 'Uhr', 'Hammer', 'Lampe', 'Hut', 'Kerze', 'Ring', 'Würfel', 'Löffel', 'Brille', 'Trommel', 'Kiste', 'Schere', 'Flasche', 'Tasse', 'Jacke']",319.0098969999235,319.01247230009176,None,319.0125975999981,325.0231256999541,3,3.215143600013107,None,325.023416900076,325.02591979992576,None,325.0260300000664,325.02747510001063,325.0274869001005,325.0285124001093,,,,,,,,,,,,,,,,,,,,,,,,,,,,,,,,,,,,,,,,,,,,,,,3,2023-12-07_11h21.28.175,watkins1,2023.2.3,99.69115667321284,53,2023-12-07 11h21.40.590460 +0000,
,,,,,,,,,,,7,0,7,0,,,,,,,,,,,,,325.0325837000273,,,,,,,,,,325.02878890000284,325.52464820002206,,,[],[],,,,,,,,,,,klobig,None,None,,,,,,,,,,Fahrrad,klobig,"['Fahrrad', 'klobig']",test_adj,3,,,,,,325.0287248000968,325.0287623000331,"['Stift', 'Schlüssel', 'Blume', 'Bürste', 'Socke', 'Vase', 'Eimer', 'Fahrrad', 'Rucksack', 'Buch', 'Telefon', 'Tasche', 'Kamera', 'Geige', 'Kette', 'Uhr', 'Hammer', 'Lampe', 'Hut', 'Kerze', 'Ring', 'Würfel', 'Löffel', 'Brille', 'Trommel', 'Kiste', 'Schere', 'Flasche', 'Tasse', 'Jacke']",325.5246600001119,325.5272472000215,None,325.52737340005115,325.52887220005505,None,,,325.5289855999872,325.5304394001141,None,325.53054670011625,331.532315999968,331.5323300000746,331.5336354000028,0,,,,,,,,,,,,,,,,,,,,,,,,,,,,,,,,,,,,,,,,,,,,,,3,2023-12-07_11h21.28.175,watkins1,2023.2.3,99.69115667321284,53,2023-12-07 11h21.40.590460 +0000,
,,,,,,,,,,,8,0,8,0,,,,,,,,,,,,,331.5422239000909,,,,,,,,,,331.53391740005463,332.0241841999814,,,[],[],,,,,,,,,,,,None,None,,,,,,,,,,Rucksack,flauschig,"['Rucksack', 'flauschig']",restudy,3,,,,,,331.53385109989904,331.53388909995556,"['Stift', 'Schlüssel', 'Blume', 'Bürste', 'Socke', 'Vase', 'Eimer', 'Fahrrad', 'Rucksack', 'Buch', 'Telefon', 'Tasche', 'Kamera', 'Geige', 'Kette', 'Uhr', 'Hammer', 'Lampe', 'Hut', 'Kerze', 'Ring', 'Würfel', 'Löffel', 'Brille', 'Trommel', 'Kiste', 'Schere', 'Flasche', 'Tasse', 'Jacke']",332.0241944999434,332.0268939998932,None,332.0270134001039,338.0346433999948,1,3.6484610999468714,None,338.03493500011973,338.0377821000293,None,338.03789469995536,338.03942689998075,338.0394385999534,338.0407068000641,,,,,,,,,,,,,,,,,,,,,,,,,,,,,,,,,,,,,,,,,,,,,,,3,2023-12-07_11h21.28.175,watkins1,2023.2.3,99.69115667321284,53,2023-12-07 11h21.40.590460 +0000,
,,,,,,,,,,,9,0,9,0,,,,,,,,,,,,,338.044130000053,,,,,,,,,,338.0409876999911,338.5364991999231,,,[],[],,,,,,,,,,,,None,None,,,,,,,,,,Buch,groß,"['Buch', 'groß']",restudy,3,,,,,,338.04092160006985,338.0409605000168,"['Stift', 'Schlüssel', 'Blume', 'Bürste', 'Socke', 'Vase', 'Eimer', 'Fahrrad', 'Rucksack', 'Buch', 'Telefon', 'Tasche', 'Kamera', 'Geige', 'Kette', 'Uhr', 'Hammer', 'Lampe', 'Hut', 'Kerze', 'Ring', 'Würfel', 'Löffel', 'Brille', 'Trommel', 'Kiste', 'Schere', 'Flasche', 'Tasse', 'Jacke']",338.5365106998943,338.5393374999985,None,338.53946339990944,344.5449181001168,2,1.6882343997713178,None,344.545216599945,344.54765550000593,None,344.54776620003395,344.5488120999653,344.54882390005514,344.54986450006254,,,,,,,,,,,,,,,,,,,,,,,,,,,,,,,,,,,,,,,,,,,,,,,3,2023-12-07_11h21.28.175,watkins1,2023.2.3,99.69115667321284,53,2023-12-07 11h21.40.590460 +0000,
,,,,,,,,,,,10,0,10,0,,,,,,,,,,,,,344.5543812001124,,,,,,,,,,344.55014849989675,345.04641740000807,,,[],[],,,,,,,,,,,,None,None,,,,,,,,,,Telefon,rustikal,"['Telefon', 'rustikal']",restudy,3,,,,,,344.5500829999801,344.55012060003355,"['Stift', 'Schlüssel', 'Blume', 'Bürste', 'Socke', 'Vase', 'Eimer', 'Fahrrad', 'Rucksack', 'Buch', 'Telefon', 'Tasche', 'Kamera', 'Geige', 'Kette', 'Uhr', 'Hammer', 'Lampe', 'Hut', 'Kerze', 'Ring', 'Würfel', 'Löffel', 'Brille', 'Trommel', 'Kiste', 'Schere', 'Flasche', 'Tasse', 'Jacke']",345.0464290000964,345.04938119999133,None,345.04950869991444,351.05107709998265,2,2.377892200136557,None,351.05137280002236,351.0541425999254,None,351.054257000098,351.0554804999847,351.0554927000776,351.0567111999262,,,,,,,,,,,,,,,,,,,,,,,,,,,,,,,,,,,,,,,,,,,,,,,3,2023-12-07_11h21.28.175,watkins1,2023.2.3,99.69115667321284,53,2023-12-07 11h21.40.590460 +0000,
,,,,,,,,,,,11,0,11,0,,,,,,,,,,,,,351.06052500009537,,,,,,,,,,351.05699439998716,351.55241160001606,,,[],[],,,,,,,,,,,flauschig,None,None,,,,,,,,,,Tasche,schlicht,"['Tasche', 'schlicht']",test_adj,3,,,,,,351.0569297000766,351.0569676000159,"['Stift', 'Schlüssel', 'Blume', 'Bürste', 'Socke', 'Vase', 'Eimer', 'Fahrrad', 'Rucksack', 'Buch', 'Telefon', 'Tasche', 'Kamera', 'Geige', 'Kette', 'Uhr', 'Hammer', 'Lampe', 'Hut', 'Kerze', 'Ring', 'Würfel', 'Löffel', 'Brille', 'Trommel', 'Kiste', 'Schere', 'Flasche', 'Tasse', 'Jacke']",351.55242360010743,351.55534319998696,None,351.5554704000242,351.55693130008876,None,,,351.55704160011373,351.5584843000397,None,351.558592800051,357.560796600068,357.5608107999433,357.56216789991595,0,,,,,,,,,,,,,,,,,,,,,,,,,,,,,,,,,,,,,,,,,,,,,,3,2023-12-07_11h21.28.175,watkins1,2023.2.3,99.69115667321284,53,2023-12-07 11h21.40.590460 +0000,
,,,,,,,,,,,12,0,12,0,,,,,,,,,,,,,357.5706054000184,,,,,,,,,,357.5624536999967,358.05267350003123,,,[],[],,,,,,,,,,,klob,None,None,,,,,,,,,,Kamera,krumm,"['Kamera', 'krumm']",test_adj,3,,,,,,357.5623856000602,357.56242459989153,"['Stift', 'Schlüssel', 'Blume', 'Bürste', 'Socke', 'Vase', 'Eimer', 'Fahrrad', 'Rucksack', 'Buch', 'Telefon', 'Tasche', 'Kamera', 'Geige', 'Kette', 'Uhr', 'Hammer', 'Lampe', 'Hut', 'Kerze', 'Ring', 'Würfel', 'Löffel', 'Brille', 'Trommel', 'Kiste', 'Schere', 'Flasche', 'Tasse', 'Jacke']",358.0526839001104,358.05537379998714,None,358.05549390008673,358.058077899972,None,,,358.05818819999695,358.0607521000784,None,358.06086040008813,364.064930499997,364.0649445001036,364.0663928000722,0,,,,,,,,,,,,,,,,,,,,,,,,,,,,,,,,,,,,,,,,,,,,,,3,2023-12-07_11h21.28.175,watkins1,2023.2.3,99.69115667321284,53,2023-12-07 11h21.40.590460 +0000,
,,,,,,,,,,,13,0,13,0,,,,,,,,,,,,,364.07473629992455,,,,,,,,,,364.0666811999399,364.55664850003086,,,[],[],,,,,,,,,,,gepunktet,None,None,,,,,,,,,,Geige,gepunktet,"['Geige', 'gepunktet']",test_adj,3,,,,,,364.0666128001176,364.06665239995345,"['Stift', 'Schlüssel', 'Blume', 'Bürste', 'Socke', 'Vase', 'Eimer', 'Fahrrad', 'Rucksack', 'Buch', 'Telefon', 'Tasche', 'Kamera', 'Geige', 'Kette', 'Uhr', 'Hammer', 'Lampe', 'Hut', 'Kerze', 'Ring', 'Würfel', 'Löffel', 'Brille', 'Trommel', 'Kiste', 'Schere', 'Flasche', 'Tasse', 'Jacke']",364.55665990011767,364.55929140001535,None,364.55941460002214,364.5618851999752,None,,,364.5619965000078,364.5644553999882,None,364.5645616000984,370.56831920007244,370.56833310006186,370.5696924000513,0,,,,,,,,,,,,,,,,,,,,,,,,,,,,,,,,,,,,,,,,,,,,,,3,2023-12-07_11h21.28.175,watkins1,2023.2.3,99.69115667321284,53,2023-12-07 11h21.40.590460 +0000,
,,,,,,,,,,,14,0,14,0,,,,,,,,,,,,,370.57808190002106,,,,,,,,,,370.5699797999114,371.0600827001035,,,[],[],,,,,,,,,,,,None,None,,,,,,,,,,Kette,breit,"['Kette', 'breit']",restudy,3,,,,,,370.56990960007533,370.5699509999249,"['Stift', 'Schlüssel', 'Blume', 'Bürste', 'Socke', 'Vase', 'Eimer', 'Fahrrad', 'Rucksack', 'Buch', 'Telefon', 'Tasche', 'Kamera', 'Geige', 'Kette', 'Uhr', 'Hammer', 'Lampe', 'Hut', 'Kerze', 'Ring', 'Würfel', 'Löffel', 'Brille', 'Trommel', 'Kiste', 'Schere', 'Flasche', 'Tasse', 'Jacke']",371.060094299959,371.06299509992823,None,371.0631206999533,377.0718010000419,2,2.4043016999494284,None,377.0720981999766,377.0748330000788,None,377.0749476000201,377.0764061000664,377.0764180000406,377.07756699994206,,,,,,,,,,,,,,,,,,,,,,,,,,,,,,,,,,,,,,,,,,,,,,,3,2023-12-07_11h21.28.175,watkins1,2023.2.3,99.69115667321284,53,2023-12-07 11h21.40.590460 +0000,
,,,,,,,,,,,15,0,15,0,,,,,,,,,,,,,377.0812568999827,,,,,,,,,,377.07784599997103,377.5733149999287,,,[],[],,,,,,,,,,,robust,None,None,,,,,,,,,,Uhr,robust,"['Uhr', 'robust']",test_adj,3,,,,,,377.0777811000589,377.07781930011697,"['Stift', 'Schlüssel', 'Blume', 'Bürste', 'Socke', 'Vase', 'Eimer', 'Fahrrad', 'Rucksack', 'Buch', 'Telefon', 'Tasche', 'Kamera', 'Geige', 'Kette', 'Uhr', 'Hammer', 'Lampe', 'Hut', 'Kerze', 'Ring', 'Würfel', 'Löffel', 'Brille', 'Trommel', 'Kiste', 'Schere', 'Flasche', 'Tasse', 'Jacke']",377.5733262998983,377.57583669992164,None,377.57595929992385,377.57723719999194,None,,,377.57734460011125,377.5786174000241,None,377.57872299989685,383.5796658999752,383.5796801999677,383.58097629994154,0,,,,,,,,,,,,,,,,,,,,,,,,,,,,,,,,,,,,,,,,,,,,,,3,2023-12-07_11h21.28.175,watkins1,2023.2.3,99.69115667321284,53,2023-12-07 11h21.40.590460 +0000,
,,,,,,,,,,,16,0,16,0,,,,,,,,,,,,,383.58946150005795,,,,,,,,,,383.58126139990054,384.07153360010125,,,[],[],,,,,,,,,,,,None,None,,,,,,,,,,Hammer,hohl,"['Hammer', 'hohl']",restudy,3,,,,,,383.58119469997473,383.5812329000328,"['Stift', 'Schlüssel', 'Blume', 'Bürste', 'Socke', 'Vase', 'Eimer', 'Fahrrad', 'Rucksack', 'Buch', 'Telefon', 'Tasche', 'Kamera', 'Geige', 'Kette', 'Uhr', 'Hammer', 'Lampe', 'Hut', 'Kerze', 'Ring', 'Würfel', 'Löffel', 'Brille', 'Trommel', 'Kiste', 'Schere', 'Flasche', 'Tasse', 'Jacke']",384.0715451000724,384.07423459994607,None,384.0743575999513,390.0775127001107,1,1.937237299978733,None,390.0778081000317,390.08035139995627,None,390.0804634001106,390.08193310000934,390.081944799982,390.0829928999301,,,,,,,,,,,,,,,,,,,,,,,,,,,,,,,,,,,,,,,,,,,,,,,3,2023-12-07_11h21.28.175,watkins1,2023.2.3,99.69115667321284,53,2023-12-07 11h21.40.590460 +0000,
,,,,,,,,,,,17,0,17,0,,,,,,,,,,,,,390.08707970008254,,,,,,,,,,390.0833308000583,390.57913259998895,,,[],[],,,,,,,,,,,kurz,None,None,,,,,,,,,,Lampe,kurz,"['Lampe', 'kurz']",test_adj,3,,,,,,390.08326629991643,390.08330429997295,"['Stift', 'Schlüssel', 'Blume', 'Bürste', 'Socke', 'Vase', 'Eimer', 'Fahrrad', 'Rucksack', 'Buch', 'Telefon', 'Tasche', 'Kamera', 'Geige', 'Kette', 'Uhr', 'Hammer', 'Lampe', 'Hut', 'Kerze', 'Ring', 'Würfel', 'Löffel', 'Brille', 'Trommel', 'Kiste', 'Schere', 'Flasche', 'Tasse', 'Jacke']",390.5791446000803,390.581692900043,None,390.58181919995695,390.58322879998013,None,,,390.5833366001025,390.5848199001048,None,390.5849270999897,396.5864208000712,396.5864355999511,396.5875961999409,0,,,,,,,,,,,,,,,,,,,,,,,,,,,,,,,,,,,,,,,,,,,,,,3,2023-12-07_11h21.28.175,watkins1,2023.2.3,99.69115667321284,53,2023-12-07 11h21.40.590460 +0000,
,,,,,,,,,,,18,0,18,0,,,,,,,,,,,,,396.5963242999278,,,,,,,,,,396.5878802998923,397.0782588000875,,,[],[],,,,,,,,,,,,None,None,,,,,,,,,,Hut,kratzig,"['Hut', 'kratzig']",restudy,3,,,,,,396.58781339996494,396.587851600023,"['Stift', 'Schlüssel', 'Blume', 'Bürste', 'Socke', 'Vase', 'Eimer', 'Fahrrad', 'Rucksack', 'Buch', 'Telefon', 'Tasche', 'Kamera', 'Geige', 'Kette', 'Uhr', 'Hammer', 'Lampe', 'Hut', 'Kerze', 'Ring', 'Würfel', 'Löffel', 'Brille', 'Trommel', 'Kiste', 'Schere', 'Flasche', 'Tasse', 'Jacke']",397.0782695999369,397.08062879997306,None,397.0807491999585,403.08149269991554,1,1.3148037001956254,None,403.08180740009993,403.0844407000113,None,403.08455549995415,403.0858807999175,403.0858928998932,403.08708410011604,,,,,,,,,,,,,,,,,,,,,,,,,,,,,,,,,,,,,,,,,,,,,,,3,2023-12-07_11h21.28.175,watkins1,2023.2.3,99.69115667321284,53,2023-12-07 11h21.40.590460 +0000,
,,,,,,,,,,,19,0,19,0,,,,,,,,,,,,,403.0910499000456,,,,,,,,,,403.08736740006134,403.58295559999533,,,[],[],,,,,,,,,,,niedlich,None,None,,,,,,,,,,Kerze,niedlich,"['Kerze', 'niedlich']",test_adj,3,,,,,,403.08730140002444,403.08734000008553,"['Stift', 'Schlüssel', 'Blume', 'Bürste', 'Socke', 'Vase', 'Eimer', 'Fahrrad', 'Rucksack', 'Buch', 'Telefon', 'Tasche', 'Kamera', 'Geige', 'Kette', 'Uhr', 'Hammer', 'Lampe', 'Hut', 'Kerze', 'Ring', 'Würfel', 'Löffel', 'Brille', 'Trommel', 'Kiste', 'Schere', 'Flasche', 'Tasse', 'Jacke']",403.58296720008366,403.58567530009896,None,403.5858004000038,403.587226399919,None,,,403.58733809995465,403.5887788000982,None,403.5888865001034,409.59090439998545,409.59091840009205,409.59229249996133,0,,,,,,,,,,,,,,,,,,,,,,,,,,,,,,,,,,,,,,,,,,,,,,3,2023-12-07_11h21.28.175,watkins1,2023.2.3,99.69115667321284,53,2023-12-07 11h21.40.590460 +0000,
,,,,,,,,,,,20,0,20,0,,,,,,,,,,,,,409.6007145999465,,,,,,,,,,409.5926129000727,410.08260879991576,,,[],[],,,,,,,,,,,,None,None,,,,,,,,,,Ring,gut,"['Ring', 'gut']",restudy,3,,,,,,409.59251370001584,409.5925837000832,"['Stift', 'Schlüssel', 'Blume', 'Bürste', 'Socke', 'Vase', 'Eimer', 'Fahrrad', 'Rucksack', 'Buch', 'Telefon', 'Tasche', 'Kamera', 'Geige', 'Kette', 'Uhr', 'Hammer', 'Lampe', 'Hut', 'Kerze', 'Ring', 'Würfel', 'Löffel', 'Brille', 'Trommel', 'Kiste', 'Schere', 'Flasche', 'Tasse', 'Jacke']",410.0826204000041,410.0851934000384,None,410.0853172999341,416.08821600000374,2,1.590561999939382,None,416.08849949995056,416.0908081999514,None,416.0909160000738,416.092231299961,416.0922429000493,416.093227900099,,,,,,,,,,,,,,,,,,,,,,,,,,,,,,,,,,,,,,,,,,,,,,,3,2023-12-07_11h21.28.175,watkins1,2023.2.3,99.69115667321284,53,2023-12-07 11h21.40.590460 +0000,
,,,,,,,,,,,21,0,21,0,,,,,,,,,,,,,416.0976170001086,,,,,,,,,,416.09350099996664,416.5896389000118,,,[],[],,,,,,,,,,,alt,None,None,,,,,,,,,,Würfel,neu,"['Würfel', 'neu']",test_adj,3,,,,,,416.09343759994954,416.0934750000015,"['Stift', 'Schlüssel', 'Blume', 'Bürste', 'Socke', 'Vase', 'Eimer', 'Fahrrad', 'Rucksack', 'Buch', 'Telefon', 'Tasche', 'Kamera', 'Geige', 'Kette', 'Uhr', 'Hammer', 'Lampe', 'Hut', 'Kerze', 'Ring', 'Würfel', 'Löffel', 'Brille', 'Trommel', 'Kiste', 'Schere', 'Flasche', 'Tasse', 'Jacke']",416.589650799986,416.5921881000977,None,416.59231680002995,416.59394309995696,None,,,416.59405230008997,416.5954853000585,None,416.5955924000591,422.5975637999363,422.5975778000429,422.59869850007817,0,,,,,,,,,,,,,,,,,,,,,,,,,,,,,,,,,,,,,,,,,,,,,,3,2023-12-07_11h21.28.175,watkins1,2023.2.3,99.69115667321284,53,2023-12-07 11h21.40.590460 +0000,
,,,,,,,,,,,22,0,22,0,,,,,,,,,,,,,422.60738450009376,,,,,,,,,,422.598982000025,423.0894287999254,,,[],[],,,,,,,,,,,,None,None,,,,,,,,,,Löffel,dunkel,"['Löffel', 'dunkel']",restudy,3,,,,,,422.59891490009613,422.5989534999244,"['Stift', 'Schlüssel', 'Blume', 'Bürste', 'Socke', 'Vase', 'Eimer', 'Fahrrad', 'Rucksack', 'Buch', 'Telefon', 'Tasche', 'Kamera', 'Geige', 'Kette', 'Uhr', 'Hammer', 'Lampe', 'Hut', 'Kerze', 'Ring', 'Würfel', 'Löffel', 'Brille', 'Trommel', 'Kiste', 'Schere', 'Flasche', 'Tasse', 'Jacke']",423.08943900000304,423.09191159997135,None,423.0920323000755,429.10154239996336,1,1.287201999919489,None,429.1018288000487,429.10442440002225,None,429.1045315999072,429.10595400002785,429.105965499999,429.1070993999019,,,,,,,,,,,,,,,,,,,,,,,,,,,,,,,,,,,,,,,,,,,,,,,3,2023-12-07_11h21.28.175,watkins1,2023.2.3,99.69115667321284,53,2023-12-07 11h21.40.590460 +0000,
,,,,,,,,,,,23,0,23,0,,,,,,,,,,,,,429.1109929999802,,,,,,,,,,429.10737080010585,429.60308060003445,,,[],[],,,,,,,,,,,matt,None,None,,,,,,,,,,Brille,matt,"['Brille', 'matt']",test_adj,3,,,,,,429.1073076000903,429.107344500022,"['Stift', 'Schlüssel', 'Blume', 'Bürste', 'Socke', 'Vase', 'Eimer', 'Fahrrad', 'Rucksack', 'Buch', 'Telefon', 'Tasche', 'Kamera', 'Geige', 'Kette', 'Uhr', 'Hammer', 'Lampe', 'Hut', 'Kerze', 'Ring', 'Würfel', 'Löffel', 'Brille', 'Trommel', 'Kiste', 'Schere', 'Flasche', 'Tasse', 'Jacke']",429.603092599893,429.60616969992407,None,429.6062934999354,429.6077103000134,None,,,429.60781940002926,429.6092304000631,None,429.6093363999389,435.6115246999543,435.6115383999422,435.6126892999746,0,,,,,,,,,,,,,,,,,,,,,,,,,,,,,,,,,,,,,,,,,,,,,,3,2023-12-07_11h21.28.175,watkins1,2023.2.3,99.69115667321284,53,2023-12-07 11h21.40.590460 +0000,
,,,,,,,,,,,24,0,24,0,,,,,,,,,,,,,435.62128020008095,,,,,,,,,,435.6129735999275,436.1033435999416,,,[],[],,,,,,,,,,,zerbrechlich,None,None,,,,,,,,,,Trommel,biegsam,"['Trommel', 'biegsam']",test_adj,3,,,,,,435.6129066001158,435.6129451999441,"['Stift', 'Schlüssel', 'Blume', 'Bürste', 'Socke', 'Vase', 'Eimer', 'Fahrrad', 'Rucksack', 'Buch', 'Telefon', 'Tasche', 'Kamera', 'Geige', 'Kette', 'Uhr', 'Hammer', 'Lampe', 'Hut', 'Kerze', 'Ring', 'Würfel', 'Löffel', 'Brille', 'Trommel', 'Kiste', 'Schere', 'Flasche', 'Tasse', 'Jacke']",436.1033544000238,436.1060293999035,None,436.1061527999118,436.10853040008806,None,,,436.10864209989086,436.1110197000671,None,436.1111272999551,442.11505310004577,442.115066899918,442.1163866999559,0,,,,,,,,,,,,,,,,,,,,,,,,,,,,,,,,,,,,,,,,,,,,,,3,2023-12-07_11h21.28.175,watkins1,2023.2.3,99.69115667321284,53,2023-12-07 11h21.40.590460 +0000,
,,,,,,,,,,,25,0,25,0,,,,,,,,,,,,,442.1248945998959,,,,,,,,,,442.11667739995755,442.6069513000548,,,[],[],,,,,,,,,,,,None,None,,,,,,,,,,Kiste,kalt,"['Kiste', 'kalt']",restudy,3,,,,,,442.11660910001956,442.1166489000898,"['Stift', 'Schlüssel', 'Blume', 'Bürste', 'Socke', 'Vase', 'Eimer', 'Fahrrad', 'Rucksack', 'Buch', 'Telefon', 'Tasche', 'Kamera', 'Geige', 'Kette', 'Uhr', 'Hammer', 'Lampe', 'Hut', 'Kerze', 'Ring', 'Würfel', 'Löffel', 'Brille', 'Trommel', 'Kiste', 'Schere', 'Flasche', 'Tasse', 'Jacke']",442.60696300002746,442.60967139992863,None,442.6097971999552,448.61570230009966,3,3.321627299999818,None,448.6159876000602,448.618466099957,None,448.61857910011895,448.620022600051,448.62003490002826,448.62107870006,,,,,,,,,,,,,,,,,,,,,,,,,,,,,,,,,,,,,,,,,,,,,,,3,2023-12-07_11h21.28.175,watkins1,2023.2.3,99.69115667321284,53,2023-12-07 11h21.40.590460 +0000,
,,,,,,,,,,,26,0,26,0,,,,,,,,,,,,,448.62525320006534,,,,,,,,,,448.62136649992317,449.117186000105,,,[],[],,,,,,,,,,,,None,None,,,,,,,,,,Schere,hübsch,"['Schere', 'hübsch']",test_adj,3,,,,,,448.6213008998893,448.6213394999504,"['Stift', 'Schlüssel', 'Blume', 'Bürste', 'Socke', 'Vase', 'Eimer', 'Fahrrad', 'Rucksack', 'Buch', 'Telefon', 'Tasche', 'Kamera', 'Geige', 'Kette', 'Uhr', 'Hammer', 'Lampe', 'Hut', 'Kerze', 'Ring', 'Würfel', 'Löffel', 'Brille', 'Trommel', 'Kiste', 'Schere', 'Flasche', 'Tasse', 'Jacke']",449.1171971000731,449.1197186000645,None,449.11984189995565,449.1213915999979,None,,,449.1215033000335,449.1233946001157,None,449.12350440002047,455.12581659993157,455.1258302000351,455.1271442999132,0,,,,,,,,,,,,,,,,,,,,,,,,,,,,,,,,,,,,,,,,,,,,,,3,2023-12-07_11h21.28.175,watkins1,2023.2.3,99.69115667321284,53,2023-12-07 11h21.40.590460 +0000,
,,,,,,,,,,,27,0,27,0,,,,,,,,,,,,,455.13562679989263,,,,,,,,,,455.12742829998024,455.6175617999397,,,[],[],,,,,,,,,,,hässlich,None,None,,,,,,,,,,Flasche,hässlich,"['Flasche', 'hässlich']",test_adj,3,,,,,,455.1273608999327,455.1273990999907,"['Stift', 'Schlüssel', 'Blume', 'Bürste', 'Socke', 'Vase', 'Eimer', 'Fahrrad', 'Rucksack', 'Buch', 'Telefon', 'Tasche', 'Kamera', 'Geige', 'Kette', 'Uhr', 'Hammer', 'Lampe', 'Hut', 'Kerze', 'Ring', 'Würfel', 'Löffel', 'Brille', 'Trommel', 'Kiste', 'Schere', 'Flasche', 'Tasse', 'Jacke']",455.6175732999109,455.62025870010257,None,455.62038190010935,455.6229004000779,None,,,455.623013000004,455.6255475000944,None,455.6256538000889,461.6295310999267,461.6295449999161,461.6309042000212,0,,,,,,,,,,,,,,,,,,,,,,,,,,,,,,,,,,,,,,,,,,,,,,3,2023-12-07_11h21.28.175,watkins1,2023.2.3,99.69115667321284,53,2023-12-07 11h21.40.590460 +0000,
,,,,,,,,,,,28,0,28,0,,,,,,,,,,,,,461.63932790001854,,,,,,,,,,461.63119020010345,462.12130580004305,,,[],[],,,,,,,,,,,,None,None,,,,,,,,,,Tasse,dick,"['Tasse', 'dick']",restudy,3,,,,,,461.63112160004675,461.6311606001109,"['Stift', 'Schlüssel', 'Blume', 'Bürste', 'Socke', 'Vase', 'Eimer', 'Fahrrad', 'Rucksack', 'Buch', 'Telefon', 'Tasche', 'Kamera', 'Geige', 'Kette', 'Uhr', 'Hammer', 'Lampe', 'Hut', 'Kerze', 'Ring', 'Würfel', 'Löffel', 'Brille', 'Trommel', 'Kiste', 'Schere', 'Flasche', 'Tasse', 'Jacke']",462.12131739989854,462.1242299999576,None,462.1243531999644,468.12737159989774,2,1.343228599987924,None,468.1276644000318,468.1302666000556,None,468.130377399968,468.13182280003093,468.1318345000036,468.13286180002615,,,,,,,,,,,,,,,,,,,,,,,,,,,,,,,,,,,,,,,,,,,,,,,3,2023-12-07_11h21.28.175,watkins1,2023.2.3,99.69115667321284,53,2023-12-07 11h21.40.590460 +0000,
,,,,,,,,,,,29,0,29,0,,,,,,,,,,,,,468.13682539993897,,,,,,,,,,468.13314200006425,468.62881419993937,,,[],[],,,,,,,,,,,,None,None,,,,,,,,,,Jacke,lustig,"['Jacke', 'lustig']",restudy,3,,,,,,468.1330770999193,468.13311529997736,"['Stift', 'Schlüssel', 'Blume', 'Bürste', 'Socke', 'Vase', 'Eimer', 'Fahrrad', 'Rucksack', 'Buch', 'Telefon', 'Tasche', 'Kamera', 'Geige', 'Kette', 'Uhr', 'Hammer', 'Lampe', 'Hut', 'Kerze', 'Ring', 'Würfel', 'Löffel', 'Brille', 'Trommel', 'Kiste', 'Schere', 'Flasche', 'Tasse', 'Jacke']",468.62882620003074,468.6313438001089,None,468.63146830000915,474.6321988001,2,1.8042227998375893,None,474.6324920000043,474.63517970009707,None,474.6352888001129,474.636419699993,474.63643139996566,474.63800289994106,,,,,,,,,,,,,,,,,,,,,,,,,,,,,,,,,,,,,,,,,,,,,,,3,2023-12-07_11h21.28.175,watkins1,2023.2.3,99.69115667321284,53,2023-12-07 11h21.40.590460 +0000,
,,,,,,,,,,,,,,,,,,,,,,,,,,,,,,,,,,,,,,,,,,,,,,,,,,,,,,,,,,,,,,,,,,,,,3,,,,,,,,,,,,,,,,,,,,,,,,,,,,,,,,,,,,,,,,,,,,,,,,,,,,,,,,,,,,,,,,,,,,,,3,2023-12-07_11h21.28.175,watkins1,2023.2.3,99.69115667321284,53,2023-12-07 11h21.40.590460 +0000,
(4 : 2) + 4 = 6 ,Correct,button_correct,,,,,,,,,,,,,0,0,0,1,,,,,,,,,500.8508703999687,,,,,,,,499.82022519991733,500.8237419000361,,,,,['button_correct'],[5.1637811998371035],,,,,,,,,,,,,,,,,,,,,,,,,,distractorTask,3,,,,,,,,,,,,,,,,,,,,,,,,,500.84051009989344,500.8508703999687,506.0084343000781,[0.38055555555555554],[-0.38055555555555554],[1],[0],[0],[5.1637811998371035],['button_correct'],506.0091075999662,507.0119803000707,,,,,,,,,,,,,,,,,,,,,,,,,,,,,,,,,,3,2023-12-07_11h21.28.175,watkins1,2023.2.3,99.69115667321284,53,2023-12-07 11h21.40.590460 +0000,
(40 : 5) + 8 = 15 ,Incorrect,button_incorrect,,,,,,,,,,,,,0,1,1,7,,,,,,,,,507.02192230010405,,,,,,,,,,,,,,['button_incorrect'],[4.926691400120035],,,,,,,,,,,,,,,,,,,,,,,,,,distractorTask,3,,,,,,,,,,,,,,,,,,,,,,,,,507.0121760999318,507.02192230010405,511.94254239997827,[-0.3287037037037037],[-0.38981481481481484],[1],[0],[0],[4.926691400120035],['button_incorrect'],511.94292609998956,512.9461161999498,,,,,,,,,,,,,,,,,,,,,,,,,,,,,,,,,,3,2023-12-07_11h21.28.175,watkins1,2023.2.3,99.69115667321284,53,2023-12-07 11h21.40.590460 +0000,
(7 x 6) + 9 = 48 ,Incorrect,button_incorrect,,,,,,,,,,,,,0,2,2,9,,,,,,,,,512.956086799968,,,,,,,,,,,,,,['button_incorrect'],[8.8724509999156],,,,,,,,,,,,,,,,,,,,,,,,,,distractorTask,3,,,,,,,,,,,,,,,,,,,,,,,,,512.946310600033,512.956086799968,521.8226596000604,[-0.2777777777777778],[-0.38425925925925924],[1],[0],[0],[8.8724509999156],['button_incorrect'],521.8230387000367,522.8261378000025,,,,,,,,,,,,,,,,,,,,,,,,,,,,,,,,,,3,2023-12-07_11h21.28.175,watkins1,2023.2.3,99.69115667321284,53,2023-12-07 11h21.40.590460 +0000,
(6 x 3) + 10 = 27 ,Incorrect,button_incorrect,,,,,,,,,,,,,0,3,3,8,,,,,,,,,522.8362219000701,,,,,,,,,,,,,,['button_incorrect'],[4.104522499954328],,,,,,,,,,,,,,,,,,,,,,,,,,distractorTask,3,,,,,,,,,,,,,,,,,,,,,,,,,522.8263252000324,522.8362219000701,526.933213799959,[-0.3138888888888889],[-0.3972222222222222],[1],[0],[0],[4.104522499954328],['button_incorrect'],526.9335845999885,527.9365856999066,,,,,,,,,,,,,,,,,,,,,,,,,,,,,,,,,,3,2023-12-07_11h21.28.175,watkins1,2023.2.3,99.69115667321284,53,2023-12-07 11h21.40.590460 +0000,
(2 x 5) + 3 = 13 ,Correct,button_correct,,,,,,,,,,,,,0,4,4,2,,,,,,,,,527.9465667998884,,,,,,,,,,,,,,['button_correct'],[1.9771303997840732],,,,,,,,,,,,,,,,,,,,,,,,,,distractorTask,3,,,,,,,,,,,,,,,,,,,,,,,,,527.9367748999503,527.9465667998884,529.9156160999555,[0.34629629629629627],[-0.39444444444444443],[1],[0],[0],[1.9771303997840732],['button_correct'],529.9159890001174,530.919126899913,,,,,,,,,,,,,,,,,,,,,,,,,,,,,,,,,,3,2023-12-07_11h21.28.175,watkins1,2023.2.3,99.69115667321284,53,2023-12-07 11h21.40.590460 +0000,
(54 : 6) - 10 = 0 ,Incorrect,button_incorrect,,,,,,,,,,,,,0,5,5,5,,,,,,,,,530.9291840000078,,,,,,,,,,,,,,['button_incorrect'],[8.231637599878013],,,,,,,,,,,,,,,,,,,,,,,,,,distractorTask,3,,,,,,,,,,,,,,,,,,,,,,,,,530.9193164000753,530.9291840000078,539.1532177000772,[-0.3990740740740741],[-0.4212962962962963],[1],[0],[0],[8.231637599878013],['button_incorrect'],539.15360160009,540.1570363999344,,,,,,,,,,,,,,,,,,,,,,,,,,,,,,,,,,3,2023-12-07_11h21.28.175,watkins1,2023.2.3,99.69115667321284,53,2023-12-07 11h21.40.590460 +0000,
(80 : 10) + 9 = 17 ,Correct,button_correct,,,,,,,,,,,,,0,6,6,3,,,,,,,,,540.1670011999086,,,,,,,,,,,,,,['button_correct'],[4.396624900167808],,,,,,,,,,,,,,,,,,,,,,,,,,distractorTask,3,,,,,,,,,,,,,,,,,,,,,,,,,540.1572346000466,540.1670011999086,544.5557464000303,[0.35],[-0.37962962962962965],[1],[0],[0],[4.396624900167808],['button_correct'],544.5561238999944,545.5594353999477,,,,,,,,,,,,,,,,,,,,,,,,,,,,,,,,,,3,2023-12-07_11h21.28.175,watkins1,2023.2.3,99.69115667321284,53,2023-12-07 11h21.40.590460 +0000,
(25 : 5) + 5 = 9 ,Incorrect,button_incorrect,,,,,,,,,,,,,0,7,7,6,,,,,,,,,545.5694323000498,,,,,,,,,,,,,,['button_incorrect'],[4.978577200090513],,,,,,,,,,,,,,,,,,,,,,,,,,distractorTask,3,,,,,,,,,,,,,,,,,,,,,,,,,545.5596247999929,545.5694323000498,550.5400767000392,[-0.29074074074074074],[-0.3907407407407407],[1],[0],[0],[4.978577200090513],['button_incorrect'],550.5404499999713,551.5435955999419,,,,,,,,,,,,,,,,,,,,,,,,,,,,,,,,,,3,2023-12-07_11h21.28.175,watkins1,2023.2.3,99.69115667321284,53,2023-12-07 11h21.40.590460 +0000,
(28 : 7) - 3 = 1 ,Correct,button_correct,,,,,,,,,,,,,0,8,8,0,,,,,,,,,551.5535790000577,,,,,,,,,,,,,,['button_incorrect'],[9.717933799838647],,,,,,,,,,,,,,,,,,,,,,,,,,distractorTask,3,,,,,,,,,,,,,,,,,,,,,,,,,551.5437861001119,551.5535790000577,561.263435699977,[-0.30648148148148147],[-0.41203703703703703],[1],[0],[0],[9.717933799838647],['button_incorrect'],561.2638137000613,562.2669812999666,,,,,,,,,,,,,,,,,,,,,,,,,,,,,,,,,,3,2023-12-07_11h21.28.175,watkins1,2023.2.3,99.69115667321284,53,2023-12-07 11h21.40.590460 +0000,
(9 x 5) - 9 = 36 ,Correct,button_correct,,,,,,,,,,,,,0,9,9,4,,,,,,,,,562.2769649000838,,,,,,,,,,,,,,['button_correct'],[12.459075900027528],,,,,,,,,,,,,,,,,,,,,,,,,,distractorTask,3,,,,,,,,,,,,,,,,,,,,,,,,,562.2671757000498,562.2769649000838,574.7279644999653,[0.2962962962962963],[-0.3990740740740741],[1],[0],[0],[12.459075900027528],['button_correct'],574.7283417000435,575.7317103999667,,,,,,,,,,,,,,,,,,,,,,,,,,,,,,,,,,3,2023-12-07_11h21.28.175,watkins1,2023.2.3,99.69115667321284,53,2023-12-07 11h21.40.590460 +0000,
,,,,,,,,,,,,,,,,,,,,,,,,,,,,,,,,,,,,,,,,,,,,,,,,,,,,,,,,,,,,,,,,,,,,,3,,,,,,,,,,,,,,,,,,,,,,,,,,,,,,,,,,,,,,,,,,,,,,,,,,,,,,,,,,,,,,,,,,,,,,3,2023-12-07_11h21.28.175,watkins1,2023.2.3,99.69115667321284,53,2023-12-07 11h21.40.590460 +0000,
,,,,,,,,,,,,,,,,,,,0,0,0,0,,,,,594.1843121000566,,,,,,,,,,,,,,matt,5.015303800115362,,,,,,,,,,,,2.9012571999337524,None,,,,,,,,,,,,,freeRecallSub,3,,,,,,,,,,,,,,,,,,,,,,,,,,,,,,,,,,,,,594.1755325999111,594.1843121000566,594.1843121000566,599.2056591000874,return,5.015303800115362,None,matt,[0.03796296296296296],[0.05092592592592592],[1],[0],[0],[1.7662156999576837],[],,,,,,,,,,,,,,,,,,,3,2023-12-07_11h21.28.175,watkins1,2023.2.3,99.69115667321284,53,2023-12-07 11h21.40.590460 +0000,
,,,,,,,,,,,,,,,,,,,1,0,1,0,,,,,599.2177486999426,,,,,,,,,,,,,,nass,2.5578282999340445,,,,,,,,,,,,0.9053972999099642,None,,,,,,,,,,,,,freeRecallSub,3,,,,,,,,,,,,,,,,,,,,,,,,,,,,,,,,,,,,,599.2076314999722,599.2177486999426,599.2177486999426,601.7801510000136,return,2.5578282999340445,None,nass,[],[],[],[],[],[],[],,,,,,,,,,,,,,,,,,,3,2023-12-07_11h21.28.175,watkins1,2023.2.3,99.69115667321284,53,2023-12-07 11h21.40.590460 +0000,
,,,,,,,,,,,,,,,,,,,2,0,2,0,,,,,601.7898850999773,,,,,,,,,,,,,,flauschig,5.601640600012615,,,,,,,,,,,,1.82613670011051,None,,,,,,,,,,,,,freeRecallSub,3,,,,,,,,,,,,,,,,,,,,,,,,,,,,,,,,,,,,,601.78139810008,601.7898850999773,601.7898850999773,607.3928368999623,return,5.601640600012615,None,flauschig,[],[],[],[],[],[],[],,,,,,,,,,,,,,,,,,,3,2023-12-07_11h21.28.175,watkins1,2023.2.3,99.69115667321284,53,2023-12-07 11h21.40.590460 +0000,
,,,,,,,,,,,,,,,,,,,3,0,3,0,,,,,607.4039918000344,,,,,,,,,,,,,,lustig,7.5795559999533,,,,,,,,,,,,5.81448969990015,None,,,,,,,,,,,,,freeRecallSub,3,,,,,,,,,,,,,,,,,,,,,,,,,,,,,,,,,,,,,607.3940777000971,607.4039918000344,607.4039918000344,614.9858039000537,return,7.5795559999533,None,lustig,[],[],[],[],[],[],[],,,,,,,,,,,,,,,,,,,3,2023-12-07_11h21.28.175,watkins1,2023.2.3,99.69115667321284,53,2023-12-07 11h21.40.590460 +0000,
,,,,,,,,,,,,,,,,,,,4,0,4,0,,,,,614.9955841000192,,,,,,,,,,,,,,klobig,5.180000899825245,,,,,,,,,,,,3.6135174999944866,None,,,,,,,,,,,,,freeRecallSub,3,,,,,,,,,,,,,,,,,,,,,,,,,,,,,,,,,,,,,614.9870380999055,614.9955841000192,614.9955841000192,620.1769608999602,return,5.180000899825245,None,klobig,[],[],[],[],[],[],[],,,,,,,,,,,,,,,,,,,3,2023-12-07_11h21.28.175,watkins1,2023.2.3,99.69115667321284,53,2023-12-07 11h21.40.590460 +0000,
,,,,,,,,,,,,,,,,,,,5,0,5,0,,,,,620.1880226999056,,,,,,,,,,,,,,rustikal,18.619561300147325,,,,,,,,,,,,16.467131599783897,None,,,,,,,,,,,,,freeRecallSub,3,,,,,,,,,,,,,,,,,,,,,,,,,,,,,,,,,,,,,620.1782033001073,620.1880226999056,620.1880226999056,638.8143156000879,return,18.619561300147325,None,rustikal,[],[],[],[],[],[],[],,,,,,,,,,,,,,,,,,,3,2023-12-07_11h21.28.175,watkins1,2023.2.3,99.69115667321284,53,2023-12-07 11h21.40.590460 +0000,
,,,,,,,,,,,,,,,,,,,6,0,6,0,,,,,638.8256874999497,,,,,,,,,,,,,,zerbrechlich,11.50978249986656,,,,,,,,,,,,8.324701000005007,None,,,,,,,,,,,,,freeRecallSub,3,,,,,,,,,,,,,,,,,,,,,,,,,,,,,,,,,,,,,638.815561800031,638.8256874999497,638.8256874999497,650.3431047999766,return,11.50978249986656,None,zerbrechlich,[],[],[],[],[],[],[],,,,,,,,,,,,,,,,,,,3,2023-12-07_11h21.28.175,watkins1,2023.2.3,99.69115667321284,53,2023-12-07 11h21.40.590460 +0000,
,,,,,,,,,,,,,,,,,,,7,0,7,0,,,,,650.3548067999072,,,,,,,,,,,,,,biegbar,42.30075499997474,,,,,,,,,,,,40.52534689987078,None,,,,,,,,,,,,,freeRecallSub,3,,,,,,,,,,,,,,,,,,,,,,,,,,,,,,,,,,,,,650.3443432999775,650.3548067999072,650.3548067999072,692.6571949000936,return,42.30075499997474,None,biegbar,[],[],[],[],[],[],[],,,,,,,,,,,,,,,,,,,3,2023-12-07_11h21.28.175,watkins1,2023.2.3,99.69115667321284,53,2023-12-07 11h21.40.590460 +0000,
,,,,,,,,,,,,,,,,,,,8,0,8,0,,,,,692.6688077000435,,,,,,,,,,,,,,niedlich,14.92269210005179,,,,,,,,,,,,13.135044099995866,None,,,,,,,,,,,,,freeRecallSub,3,,,,,,,,,,,,,,,,,,,,,,,,,,,,,,,,,,,,,692.6584526998922,692.6688077000435,692.6688077000435,707.6006668000482,return,14.92269210005179,None,niedlich,[],[],[],[],[],[],[],,,,,,,,,,,,,,,,,,,3,2023-12-07_11h21.28.175,watkins1,2023.2.3,99.69115667321284,53,2023-12-07 11h21.40.590460 +0000,
,,,,,,,,,,,,,,,,,,,9,0,9,0,,,,,707.6128408000804,,,,,,,,,,,,,,müde,12.018653400009498,,,,,,,,,,,,10.986485800007358,None,,,,,,,,,,,,,freeRecallSub,3,,,,,,,,,,,,,,,,,,,,,,,,,,,,,,,,,,,,,707.6019236999564,707.6128408000804,707.6128408000804,719.6327474000864,return,12.018653400009498,None,müde,[],[],[],[],[],[],[],,,,,,,,,,,,,,,,,,,3,2023-12-07_11h21.28.175,watkins1,2023.2.3,99.69115667321284,53,2023-12-07 11h21.40.590460 +0000,
,,,,,,,,,,,,,,,,,,,10,0,10,0,,,,,719.6454004000407,,,,,,,,,,,,,,,[],,,,,,,,,,,,None,None,,,,,,,,,,,,,freeRecallSub,3,,,,,,,,,,,,,,,,,,,,,,,,,,,,,,,,,,,,,719.6339912000112,719.6454004000407,719.6454004000407,730.7227640999481,None,,,,[0.2324074074074074],[-0.3907407407407407],[1],[0],[0],[11.083746700081974],"['button_continue', 'continue_text']",,,,,,,,,,,,,,,,,,,3,2023-12-07_11h21.28.175,watkins1,2023.2.3,99.69115667321284,53,2023-12-07 11h21.40.590460 +0000,
,,,,,,,,,,,,,,,,,,,,,,,,,,,,,,,,,,,,,,,,,,,,,,,,,,,,,,,,,,,,,,,,,,,,,3,,,,,,,,,,,,,,,,,,,,,,,,,,,,,,,,,,,,,,,,,,,,,,,,,,,,,,,,,,,,,,,,,,,,,,3,2023-12-07_11h21.28.175,watkins1,2023.2.3,99.69115667321284,53,2023-12-07 11h21.40.590460 +0000,
,,,,,,,,,,,,,,,,,,,,,,,0,0,0,0,766.0083423999604,,,,,,,,,,777.0974320999812,777.5957625000738,,,,11.079014300135896,,,,,,,,,,,,None,None,,,,,,,,,,Telefon,,,cuedRecallAdj,3,,,,,,,,,,,,,,,,,,,,,,,,0,,,,,,,,,,,,,,,,,,,,,,,,,,,,765.9992643001024,766.0083423999604,766.0083423999604,777.0941892000847,altmodisch,return,11.079014300135896,None,777.0945741999894,777.1037379000336,777.1037379000336,777.097279000096,,None,,,,,3,2023-12-07_11h21.28.175,watkins1,2023.2.3,99.69115667321284,53,2023-12-07 11h21.40.590460 +0000,
,,,,,,,,,,,,,,,,,,,,,,,1,0,1,0,777.6056470999029,,,,,,,,,,796.5954118999653,797.0945047999267,,,,18.985715199960396,,,,,,,,,,,,None,None,,,,,,,,,,Buch,,,cuedRecallAdj,3,,,,,,,,,,,,,,,,,,,,,,,,0,,,,,,,,,,,,,,,,,,,,,,,,,,,,777.5960154999048,777.6056470999029,777.6056470999029,796.5925759000238,breit,return,18.985715199960396,None,796.5928402000573,796.6020454000682,796.6020454000682,796.5953112000134,,None,,,,,3,2023-12-07_11h21.28.175,watkins1,2023.2.3,99.69115667321284,53,2023-12-07 11h21.40.590460 +0000,
,,,,,,,,,,,,,,,,,,,,,,,2,0,2,0,797.1044536000118,,,,,,,,,,801.7271386000793,802.2257328999694,,,,4.61492079985328,,,,,,,,,,,,None,None,,,,,,,,,,Trommel,,,cuedRecallAdj,3,,,,,,,,,,,,,,,,,,,,,,,,0,,,,,,,,,,,,,,,,,,,,,,,,,,,,797.0947455000132,797.1044536000118,797.1044536000118,801.7241358999163,biegbar,return,4.61492079985328,None,801.7243973000441,801.7337042000145,801.7337042000145,801.7270376998931,,None,,,,,3,2023-12-07_11h21.28.175,watkins1,2023.2.3,99.69115667321284,53,2023-12-07 11h21.40.590460 +0000,
,,,,,,,,,,,,,,,,,,,,,,,3,0,3,0,802.2356753998902,,,,,,,,,,806.1550726999994,806.6535489999224,,,,3.915711599867791,,,,,,,,,,,,None,None,,,,,,,,,,Löffel,,,cuedRecallAdj,3,,,,,,,,,,,,,,,,,,,,,,,,0,,,,,,,,,,,,,,,,,,,,,,,,,,,,802.2259748999495,802.2356753998902,802.2356753998902,806.1520823000465,dunkel,return,3.915711599867791,None,806.1523434000555,806.1615887000225,806.1615887000225,806.1549722999334,,None,,,,,3,2023-12-07_11h21.28.175,watkins1,2023.2.3,99.69115667321284,53,2023-12-07 11h21.40.590460 +0000,
,,,,,,,,,,,,,,,,,,,,,,,4,0,4,0,806.6634887999389,,,,,,,,,,814.6700279000215,815.1683612999041,,,,7.999888200080022,,,,,,,,,,,,None,None,,,,,,,,,,Rucksack,,,cuedRecallAdj,3,,,,,,,,,,,,,,,,,,,,,,,,0,,,,,,,,,,,,,,,,,,,,,,,,,,,,806.6537953000516,806.6634887999389,806.6634887999389,814.6667696000077,flauschig,return,7.999888200080022,None,814.6670353000518,814.6762922001071,814.6762922001071,814.6699258999433,,None,,,,,3,2023-12-07_11h21.28.175,watkins1,2023.2.3,99.69115667321284,53,2023-12-07 11h21.40.590460 +0000,
,,,,,,,,,,,,,,,,,,,,,,,5,0,5,0,815.1783028999344,,,,,,,,,,821.9293684998993,822.427835999988,,,,6.74110580002889,,,,,,,,,,,,None,None,,,,,,,,,,Stift,,,cuedRecallAdj,3,,,,,,,,,,,,,,,,,,,,,,,,0,,,,,,,,,,,,,,,,,,,,,,,,,,,,815.1686056999024,815.1783028999344,815.1783028999344,821.9263305000495,praktisch,return,6.74110580002889,None,821.9265914000571,821.9358763999771,821.9358763999771,821.9292689999565,,None,,,,,3,2023-12-07_11h21.28.175,watkins1,2023.2.3,99.69115667321284,53,2023-12-07 11h21.40.590460 +0000,
,,,,,,,,,,,,,,,,,,,,,,,6,0,6,0,822.4378339999821,,,,,,,,,,824.9118951000273,825.4102797999512,,,,2.465483999811113,,,,,,,,,,,,None,None,,,,,,,,,,Kiste,,,cuedRecallAdj,3,,,,,,,,,,,,,,,,,,,,,,,,0,,,,,,,,,,,,,,,,,,,,,,,,,,,,822.4280813001096,822.4378339999821,822.4378339999821,824.9087219000794,kalt,return,2.465483999811113,None,824.9089840000961,824.9182720999233,824.9182720999233,824.9117946999613,,None,,,,,3,2023-12-07_11h21.28.175,watkins1,2023.2.3,99.69115667321284,53,2023-12-07 11h21.40.590460 +0000,
,,,,,,,,,,,,,,,,,,,,,,,7,0,7,0,825.4201859999448,,,,,,,,,,830.9963557000738,831.4950705000665,,,,5.563159399898723,,,,,,,,,,,,None,None,,,,,,,,,,Eimer,,,cuedRecallAdj,3,,,,,,,,,,,,,,,,,,,,,,,,0,,,,,,,,,,,,,,,,,,,,,,,,,,,,825.410527399974,825.4201859999448,825.4201859999448,830.993344000075,hoch,return,5.563159399898723,None,830.9936196000781,831.0030537999701,831.0030537999701,830.9962553998921,,None,,,,,3,2023-12-07_11h21.28.175,watkins1,2023.2.3,99.69115667321284,53,2023-12-07 11h21.40.590460 +0000,
,,,,,,,,,,,,,,,,,,,,,,,8,0,8,0,831.5049739999231,,,,,,,,,,836.0670390001033,836.5655753999017,,,,4.5504660999868065,,,,,,,,,,,,None,None,,,,,,,,,,Fahrrad,,,cuedRecallAdj,3,,,,,,,,,,,,,,,,,,,,,,,,0,,,,,,,,,,,,,,,,,,,,,,,,,,,,831.495313399937,831.5049739999231,831.5049739999231,836.0639166000765,globig,return,4.5504660999868065,None,836.0641844000202,836.0736718000844,836.0736718000844,836.0669384000357,,None,,,,,3,2023-12-07_11h21.28.175,watkins1,2023.2.3,99.69115667321284,53,2023-12-07 11h21.40.590460 +0000,
,,,,,,,,,,,,,,,,,,,,,,,9,0,9,0,836.575490300078,,,,,,,,,,841.7799434000626,842.2787134998944,,,,5.199879499850795,,,,,,,,,,,,None,None,,,,,,,,,,Bürste,,,cuedRecallAdj,3,,,,,,,,,,,,,,,,,,,,,,,,0,,,,,,,,,,,,,,,,,,,,,,,,,,,,836.5658213000279,836.575490300078,836.575490300078,841.7769702000078,klein,return,5.199879499850795,None,841.7772327999119,841.7864878000692,841.7864878000692,841.7798419001047,,None,,,,,3,2023-12-07_11h21.28.175,watkins1,2023.2.3,99.69115667321284,53,2023-12-07 11h21.40.590460 +0000,
,,,,,,,,,,,,,,,,,,,,,,,10,0,10,0,842.2887649000622,,,,,,,,,,844.8122320999391,845.311130899936,,,,2.5106466999277472,,,,,,,,,,,,None,None,,,,,,,,,,Hammer,,,cuedRecallAdj,3,,,,,,,,,,,,,,,,,,,,,,,,0,,,,,,,,,,,,,,,,,,,,,,,,,,,,842.2789523000829,842.2887649000622,842.2887649000622,844.8093908000737,hohl,return,2.5106466999277472,None,844.8096590000205,844.8191122999415,844.8191122999415,844.8121327999979,,None,,,,,3,2023-12-07_11h21.28.175,watkins1,2023.2.3,99.69115667321284,53,2023-12-07 11h21.40.590460 +0000,
,,,,,,,,,,,,,,,,,,,,,,,11,0,11,0,845.3211799000856,,,,,,,,,,852.1817306000739,852.6809465999249,,,,6.85419200011529,,,,,,,,,,,,None,None,,,,,,,,,,Ring,,,cuedRecallAdj,3,,,,,,,,,,,,,,,,,,,,,,,,0,,,,,,,,,,,,,,,,,,,,,,,,,,,,845.3113800000865,845.3211799000856,845.3211799000856,852.1795167000964,,return,6.85419200011529,None,852.1797974000219,852.1890179000329,852.1890179000329,852.181624900084,,None,,,,,3,2023-12-07_11h21.28.175,watkins1,2023.2.3,99.69115667321284,53,2023-12-07 11h21.40.590460 +0000,
,,,,,,,,,,,,,,,,,,,,,,,12,0,12,0,852.6908619999886,,,,,,,,,,858.3877624999732,858.8862370001152,,,,5.684357900172472,,,,,,,,,,,,None,None,,,,,,,,,,Würfel,,,cuedRecallAdj,3,,,,,,,,,,,,,,,,,,,,,,,,0,,,,,,,,,,,,,,,,,,,,,,,,,,,,852.6811919999309,852.6908619999886,852.6908619999886,858.384631199995,altmodisch,return,5.684357900172472,None,858.3848923000041,858.394363099942,858.394363099942,858.3876628999133,,None,,,,,3,2023-12-07_11h21.28.175,watkins1,2023.2.3,99.69115667321284,53,2023-12-07 11h21.40.590460 +0000,
,,,,,,,,,,,,,,,,,,,,,,,13,0,13,0,858.8962900000624,,,,,,,,,,862.7856016000733,863.2841113000177,,,,3.879068800015375,,,,,,,,,,,,None,None,,,,,,,,,,Schlüssel,,,cuedRecallAdj,3,,,,,,,,,,,,,,,,,,,,,,,,0,,,,,,,,,,,,,,,,,,,,,,,,,,,,858.886473499937,858.8962900000624,858.8962900000624,862.7825052000117,niedlich,return,3.879068800015375,None,862.7827707999386,862.7921259999275,862.7921259999275,862.7854971000925,,None,,,,,3,2023-12-07_11h21.28.175,watkins1,2023.2.3,99.69115667321284,53,2023-12-07 11h21.40.590460 +0000,
,,,,,,,,,,,,,,,,,,,,,,,14,0,14,0,863.2941680999938,,,,,,,,,,870.837659599958,871.327070799889,,,,7.5370777999050915,,,,,,,,,,,,None,None,,,,,,,,,,Hut,,,cuedRecallAdj,3,,,,,,,,,,,,,,,,,,,,,,,,0,,,,,,,,,,,,,,,,,,,,,,,,,,,,863.2843577999156,863.2941680999938,863.2941680999938,870.8355803999584,,return,7.5370777999050915,None,870.8358440999873,870.8451104999986,870.8451104999986,870.8375584001187,,None,,,,,3,2023-12-07_11h21.28.175,watkins1,2023.2.3,99.69115667321284,53,2023-12-07 11h21.40.590460 +0000,
,,,,,,,,,,,,,,,,,,,,,,,15,0,15,0,871.3370372001082,,,,,,,,,,876.0994041999802,876.5983208999969,,,,4.750272499863058,,,,,,,,,,,,None,None,,,,,,,,,,Jacke,,,cuedRecallAdj,3,,,,,,,,,,,,,,,,,,,,,,,,0,,,,,,,,,,,,,,,,,,,,,,,,,,,,871.327331099892,871.3370372001082,871.3370372001082,876.0964730000123,lustig,return,4.750272499863058,None,876.0967323000077,876.1063133999705,876.1063133999705,876.0993035000283,,None,,,,,3,2023-12-07_11h21.28.175,watkins1,2023.2.3,99.69115667321284,53,2023-12-07 11h21.40.590460 +0000,
,,,,,,,,,,,,,,,,,,,,,,,16,0,16,0,876.6082707000896,,,,,,,,,,879.2512697000057,879.740816900041,,,,2.6309716999530792,,,,,,,,,,,,None,None,,,,,,,,,,Kerze,,,cuedRecallAdj,3,,,,,,,,,,,,,,,,,,,,,,,,0,,,,,,,,,,,,,,,,,,,,,,,,,,,,876.5985652001109,876.6082707000896,876.6082707000896,879.2490805000998,,return,2.6309716999530792,None,879.2493336999323,879.2588911000639,879.2588911000639,879.2511726999655,,None,,,,,3,2023-12-07_11h21.28.175,watkins1,2023.2.3,99.69115667321284,53,2023-12-07 11h21.40.590460 +0000,
,,,,,,,,,,,,,,,,,,,,,,,17,0,17,0,879.7506967000663,,,,,,,,,,882.8771238999907,883.3759657999035,,,,3.120516100199893,,,,,,,,,,,,None,None,,,,,,,,,,Tasse,,,cuedRecallAdj,3,,,,,,,,,,,,,,,,,,,,,,,,0,,,,,,,,,,,,,,,,,,,,,,,,,,,,879.7410591000225,879.7506967000663,879.7506967000663,882.8743127998896,dick,return,3.120516100199893,None,882.8745746999048,882.8838736999314,882.8838736999314,882.8770238000434,,None,,,,,3,2023-12-07_11h21.28.175,watkins1,2023.2.3,99.69115667321284,53,2023-12-07 11h21.40.590460 +0000,
,,,,,,,,,,,,,,,,,,,,,,,18,0,18,0,883.385913999984,,,,,,,,,,891.6126107999589,892.1112033999525,,,,8.221355399815366,,,,,,,,,,,,None,None,,,,,,,,,,Socke,,,cuedRecallAdj,3,,,,,,,,,,,,,,,,,,,,,,,,0,,,,,,,,,,,,,,,,,,,,,,,,,,,,883.3762109000236,883.385913999984,883.385913999984,891.6095742001198,glitzernd,return,8.221355399815366,None,891.6098356000148,891.6191199999303,891.6191199999303,891.6125070999842,,None,,,,,3,2023-12-07_11h21.28.175,watkins1,2023.2.3,99.69115667321284,53,2023-12-07 11h21.40.590460 +0000,
,,,,,,,,,,,,,,,,,,,,,,,19,0,19,0,892.1211089000572,,,,,,,,,,897.3869775000494,897.885826200014,,,,5.25420599989593,,,,,,,,,,,,None,None,,,,,,,,,,Kette,,,cuedRecallAdj,3,,,,,,,,,,,,,,,,,,,,,,,,0,,,,,,,,,,,,,,,,,,,,,,,,,,,,892.111443700036,892.1211089000572,892.1211089000572,897.3840522998944,breit,return,5.25420599989593,None,897.38431210001,897.3937705999706,897.3937705999706,897.3868764000945,,None,,,,,3,2023-12-07_11h21.28.175,watkins1,2023.2.3,99.69115667321284,53,2023-12-07 11h21.40.590460 +0000,
,,,,,,,,,,,,,,,,,,,,,,,20,0,20,0,897.895760100102,,,,,,,,,,904.4151618001051,904.913991099922,,,,6.511571400100365,,,,,,,,,,,,None,None,,,,,,,,,,Lampe,,,cuedRecallAdj,3,,,,,,,,,,,,,,,,,,,,,,,,0,,,,,,,,,,,,,,,,,,,,,,,,,,,,897.886066300096,897.895760100102,897.895760100102,904.4123205998912,hoch,return,6.511571400100365,None,904.4125832999125,904.4218433001079,904.4218433001079,904.4150604000315,,None,,,,,3,2023-12-07_11h21.28.175,watkins1,2023.2.3,99.69115667321284,53,2023-12-07 11h21.40.590460 +0000,
,,,,,,,,,,,,,,,,,,,,,,,21,0,21,0,904.9239457000513,,,,,,,,,,910.0278191000689,910.5263918000273,,,,5.099254099885002,,,,,,,,,,,,None,None,,,,,,,,,,Flasche,,,cuedRecallAdj,3,,,,,,,,,,,,,,,,,,,,,,,,0,,,,,,,,,,,,,,,,,,,,,,,,,,,,904.9142310000025,904.9239457000513,904.9239457000513,910.0247718000319,hässlich,return,5.099254099885002,None,910.025033300044,910.0344388000667,910.0344388000667,910.0277166001033,,None,,,,,3,2023-12-07_11h21.28.175,watkins1,2023.2.3,99.69115667321284,53,2023-12-07 11h21.40.590460 +0000,
,,,,,,,,,,,,,,,,,,,,,,,22,0,22,0,910.5363515999634,,,,,,,,,,918.9333802999463,919.432079799939,,,,8.390840300126001,,,,,,,,,,,,None,None,,,,,,,,,,Blume,,,cuedRecallAdj,3,,,,,,,,,,,,,,,,,,,,,,,,0,,,,,,,,,,,,,,,,,,,,,,,,,,,,910.5266372000333,910.5363515999634,910.5363515999634,918.9304319000803,schwer,return,8.390840300126001,None,918.9306926000863,918.9399451999925,918.9399451999925,918.9332799001131,,None,,,,,3,2023-12-07_11h21.28.175,watkins1,2023.2.3,99.69115667321284,53,2023-12-07 11h21.40.590460 +0000,
,,,,,,,,,,,,,,,,,,,,,,,23,0,23,0,919.4420098999981,,,,,,,,,,923.933458100073,924.432179100113,,,,4.485321499872953,,,,,,,,,,,,None,None,,,,,,,,,,Geige,,,cuedRecallAdj,3,,,,,,,,,,,,,,,,,,,,,,,,0,,,,,,,,,,,,,,,,,,,,,,,,,,,,919.4323227999266,919.4420098999981,919.4420098999981,923.9304178000893,gepunktet,return,4.485321499872953,None,923.9306818998884,923.9399049000349,923.9399049000349,923.9333573998883,,None,,,,,3,2023-12-07_11h21.28.175,watkins1,2023.2.3,99.69115667321284,53,2023-12-07 11h21.40.590460 +0000,
,,,,,,,,,,,,,,,,,,,,,,,24,0,24,0,924.4422277000267,,,,,,,,,,929.5965001999866,930.0948550999165,,,,5.149025300052017,,,,,,,,,,,,None,None,,,,,,,,,,Tasche,,,cuedRecallAdj,3,,,,,,,,,,,,,,,,,,,,,,,,0,,,,,,,,,,,,,,,,,,,,,,,,,,,,924.4324282000307,924.4422277000267,924.4422277000267,929.5934562999755,flauschig,return,5.149025300052017,None,929.5937179001048,929.6030105999671,929.6030105999671,929.5963979999069,,None,,,,,3,2023-12-07_11h21.28.175,watkins1,2023.2.3,99.69115667321284,53,2023-12-07 11h21.40.590460 +0000,
,,,,,,,,,,,,,,,,,,,,,,,25,0,25,0,930.1048489001114,,,,,,,,,,935.8717982000671,936.37054049992,,,,5.758410700131208,,,,,,,,,,,,None,None,,,,,,,,,,Uhr,,,cuedRecallAdj,3,,,,,,,,,,,,,,,,,,,,,,,,0,,,,,,,,,,,,,,,,,,,,,,,,,,,,930.0950996999163,930.1048489001114,930.1048489001114,935.8688407000154,zerbrechlich,return,5.758410700131208,None,935.8690986000001,935.8784392001107,935.8784392001107,935.8716979001183,,None,,,,,3,2023-12-07_11h21.28.175,watkins1,2023.2.3,99.69115667321284,53,2023-12-07 11h21.40.590460 +0000,
,,,,,,,,,,,,,,,,,,,,,,,26,0,26,0,936.3804822999518,,,,,,,,,,938.5023419000208,939.001147300005,,,,2.114785799989477,,,,,,,,,,,,None,None,,,,,,,,,,Vase,,,cuedRecallAdj,3,,,,,,,,,,,,,,,,,,,,,,,,0,,,,,,,,,,,,,,,,,,,,,,,,,,,,936.3707866999321,936.3804822999518,936.3804822999518,938.4994578999467,nass,return,2.114785799989477,None,938.4997223000973,938.5090691999067,938.5090691999067,938.5022402999457,,None,,,,,3,2023-12-07_11h21.28.175,watkins1,2023.2.3,99.69115667321284,53,2023-12-07 11h21.40.590460 +0000,
,,,,,,,,,,,,,,,,,,,,,,,27,0,27,0,939.0110949999653,,,,,,,,,,943.2005976999644,943.6998870000243,,,,4.180194899905473,,,,,,,,,,,,None,None,,,,,,,,,,Kamera,,,cuedRecallAdj,3,,,,,,,,,,,,,,,,,,,,,,,,0,,,,,,,,,,,,,,,,,,,,,,,,,,,,939.0013910001144,939.0110949999653,939.0110949999653,943.1983475000598,,return,4.180194899905473,None,943.1986096999608,943.207894799998,943.207894799998,943.2004970998969,,None,,,,,3,2023-12-07_11h21.28.175,watkins1,2023.2.3,99.69115667321284,53,2023-12-07 11h21.40.590460 +0000,
,,,,,,,,,,,,,,,,,,,,,,,28,0,28,0,943.7098280999344,,,,,,,,,,945.8114412000868,946.3102899000514,,,,2.089307300047949,,,,,,,,,,,,None,None,,,,,,,,,,Brille,,,cuedRecallAdj,3,,,,,,,,,,,,,,,,,,,,,,,,0,,,,,,,,,,,,,,,,,,,,,,,,,,,,943.7001249000896,943.7098280999344,943.7098280999344,945.8086401999462,matt,return,2.089307300047949,None,945.8089016999584,945.8183641000651,945.8183641000651,945.8113396000117,,None,,,,,3,2023-12-07_11h21.28.175,watkins1,2023.2.3,99.69115667321284,53,2023-12-07 11h21.40.590460 +0000,
,,,,,,,,,,,,,,,,,,,,,,,29,0,29,0,946.3202949000988,,,,,,,,,,947.3372017000802,947.8265176999848,,,,1.0070805998984724,,,,,,,,,,,,None,None,,,,,,,,,,Schere,,,cuedRecallAdj,3,,,,,,,,,,,,,,,,,,,,,,,,0,,,,,,,,,,,,,,,,,,,,,,,,,,,,946.3105361999478,946.3202949000988,946.3202949000988,947.3347809000406,,return,1.0070805998984724,None,947.3350456999615,947.3445141999982,947.3445141999982,947.3371027000248,,None,,,,,3,2023-12-07_11h21.28.175,watkins1,2023.2.3,99.69115667321284,53,2023-12-07 11h21.40.590460 +0000,
,,,,,,,,,,,,,,,,,,,,,,,,,,,,,,,,,,,,,,,,,,,,,,,,,,,,,,,,,,,,,,,,,,,,,3,,,,,,,,,,,,,,,,,,,,,,,,,,,,,,,,,,,,,,,,,,,,,,,,,,,,,,,,,,,,,,,,,,947.8430429000873,q,3513.016571199987,None,3,2023-12-07_11h21.28.175,watkins1,2023.2.3,99.69115667321284,53,2023-12-07 11h21.40.590460 +0000,
