Equation,CorrectResponse,Correctbutton,trials_7.thisRepN,trials_7.thisTrialN,trials_7.thisN,trials_7.thisIndex,trials.thisRepN,trials.thisTrialN,trials.thisN,trials.thisIndex,trials_3.thisRepN,trials_3.thisTrialN,trials_3.thisN,trials_3.thisIndex,trials_2.thisRepN,trials_2.thisTrialN,trials_2.thisN,trials_2.thisIndex,trials_4.thisRepN,trials_4.thisTrialN,trials_4.thisN,trials_4.thisIndex,trials_5.thisRepN,trials_5.thisTrialN,trials_5.thisN,trials_5.thisIndex,thisRow.t,notes,code_marius.started,code_marius.stopped,welcome.started,welcome.stopped,instruction_study.started,instruction_study.stopped,fixationcross.started,fixationcross.stopped,blanc.started,blanc.stopped,study_control_probe.started,study_control_probe.stopped,responseKey,responseTime,scale_answer_2.keys,study_control_probe_2.started,study_control_probe_2.stopped,scale_answer_3.keys,scale_answer_3.rt,scale_answer_3.duration,blanc_2.started,blanc_2.stopped,test_attr_probe.started,test_attr_probe.stopped,recalled_attr,firstKeyTime,secondWordTime,blanc_3.started,blanc_3.stopped,test_sub_probe.started,test_sub_probe.stopped,recalled_sub,instruction_probe_end.started,instruction_probe_end.stopped,study.started,study.stopped,substantive,adjective,wordpair,task,condition,liste_sub_phase1,liste_adj_phase1,scale_answer.keys,scale_answer.rt,scale_answer.duration,code_defineWordsInit.started,code_defineWordsInit.stopped,liste_sub_phase2,study_control.started,study_control.stopped,scale_answer_4.keys,restudy_same.started,restudy_same.stopped,scale_answer_5.keys,scale_answer_5.rt,scale_answer_5.duration,restudy_different.started,restudy_different.stopped,scale_answer_6.keys,test_attr.started,test_attr.stopped,test_sub.started,test_sub.stopped,correct,distractortask.started,equation_text.started,distractortask.stopped,mouse_answer.x,mouse_answer.y,mouse_answer.leftButton,mouse_answer.midButton,mouse_answer.rightButton,mouse_answer.time,mouse_answer.clicked_name,feedback_distractortask.started,feedback_distractortask.stopped,free_recall.started,text_enter.started,key_resp.started,free_recall.stopped,key_resp.keys,key_resp.rt,key_resp.duration,free_recalled_sub,mouse_continue.x,mouse_continue.y,mouse_continue.leftButton,mouse_continue.midButton,mouse_continue.rightButton,mouse_continue.time,mouse_continue.clicked_name,cued_recall.started,text_enter_2.started,key_continue.started,cued_recall.stopped,recalled_attr1,key_continue.keys,key_continue.rt,key_continue.duration,cued_recall_2.started,text_enter_3.started,key_continue_2.started,cued_recall_2.stopped,recalled_attr2,key_continue_2.keys,key_resp_8.started,key_resp_8.keys,key_resp_8.rt,key_resp_8.duration,condition,date,expName,psychopyVersion,frameRate,participant,expStart,
,,,,,,,,,,,,,,,,,,,,,,,,,,,,,0.10063559999980498,0.10070970000015222,0.10071789999983594,7.947022400000606,,,,,,,,,,,,,,,,,,,,,,,,,,,,,,,,,,,,,3,,,,,,,,,,,,,,,,,,,,,,,,,,,,,,,,,,,,,,,,,,,,,,,,,,,,,,,,,,,,,,,,,,,,,,3,2023-11-22_13h11.17.219,watkins1,2023.2.3,99.76385894577969,6,2023-11-22 13h11.25.033368 +0000,
,,,,,,,,,,,,,,,,,,,,,,,,,,,,,,,,,7.947071000000506,39.90512410000065,,,,,,,,,,,,,,,,,,,,,,,,,,,,,,,,,,,3,,,,,,,,,,,,,,,,,,,,,,,,,,,,,,,,,,,,,,,,,,,,,,,,,,,,,,,,,,,,,,,,,,,,,,3,2023-11-22_13h11.17.219,watkins1,2023.2.3,99.76385894577969,6,2023-11-22 13h11.25.033368 +0000,
,,,0,0,0,0,,,,,,,,,,,,,,,,,,,,,40.91893770000024,,,,,,,,39.905141000000185,40.9089539000006,47.40913350000028,47.90049520000048,41.40095100000053,47.40895619999992,2,3.2491915999999037,None,47.90050599999995,53.90852960000029,2,3.2491915999999037,None,53.90882359999978,54.4000489,54.40005939999992,60.404701899999964,vergnügt,None,None,60.40492710000035,60.40495069999997,60.40495790000023,60.40504200000032,,,,,,,,,,3,,,,,,,,,,,,,,,,,,,,,,,,,,,,,,,,,,,,,,,,,,,,,,,,,,,,,,,,,,,,,,,,,,,,,,3,2023-11-22_13h11.17.219,watkins1,2023.2.3,99.76385894577969,6,2023-11-22 13h11.25.033368 +0000,
,,,,,,,,,,,,,,,,,,,,,,,,,,,,,,,,,,,,,,,,,,,,,,,,,,,,,,,,,,,,,60.40516320000006,63.287129400000595,,,,,,,3,,,,,,,,,,,,,,,,,,,,,,,,,,,,,,,,,,,,,,,,,,,,,,,,,,,,,,,,,,,,,,,,,,,,,,3,2023-11-22_13h11.17.219,watkins1,2023.2.3,99.76385894577969,6,2023-11-22 13h11.25.033368 +0000,
,,,,,,,0,0,0,0,,,,,,,,,,,,,,,,,64.30078330000015,,,,,,,,63.28714630000013,64.29079679999995,64.29125920000024,64.7828086999998,,,1,2.145388799999637,,,,,,,,,,,,,,,,,,,,,64.78281900000002,70.78699090000009,Geige,bunt,"['Geige', 'bunt']",test_adj,3,"['Geige', 'Kette', 'Tasse', 'Flasche', 'Löffel', 'Trommel', 'Lampe', 'Vase', 'Schere', 'Kiste', 'Uhr', 'Tasche', 'Stift', 'Kamera', 'Bürste', 'Brille', 'Hammer', 'Ring', 'Eimer', 'Blume', 'Socke', 'Telefon', 'Kerze', 'Hut', 'Würfel', 'Jacke', 'Schlüssel', 'Rucksack', 'Fahrrad', 'Buch']",['bunt'],1,2.145388799999637,None,,,,,,,,,,,,,,,,,,,,,,,,,,,,,,,,,,,,,,,,,,,,,,,,,,,,,,,,,,,,,,,,,3,2023-11-22_13h11.17.219,watkins1,2023.2.3,99.76385894577969,6,2023-11-22 13h11.25.033368 +0000,
,,,,,,,1,0,1,0,,,,,,,,,,,,,,,,,70.79657670000051,,,,,,,,,,70.78765600000042,71.27853779999987,,,2,2.259781199999452,,,,,,,,,,,,,,,,,,,,,71.27854829999978,77.28677040000002,Kette,niedlich,"['Kette', 'niedlich']",test_adj,3,"['Geige', 'Kette', 'Tasse', 'Flasche', 'Löffel', 'Trommel', 'Lampe', 'Vase', 'Schere', 'Kiste', 'Uhr', 'Tasche', 'Stift', 'Kamera', 'Bürste', 'Brille', 'Hammer', 'Ring', 'Eimer', 'Blume', 'Socke', 'Telefon', 'Kerze', 'Hut', 'Würfel', 'Jacke', 'Schlüssel', 'Rucksack', 'Fahrrad', 'Buch']","['bunt', 'niedlich']",2,2.259781199999452,None,,,,,,,,,,,,,,,,,,,,,,,,,,,,,,,,,,,,,,,,,,,,,,,,,,,,,,,,,,,,,,,,,3,2023-11-22_13h11.17.219,watkins1,2023.2.3,99.76385894577969,6,2023-11-22 13h11.25.033368 +0000,
,,,,,,,2,0,2,0,,,,,,,,,,,,,,,,,77.29599790000066,,,,,,,,,,77.28731310000057,77.77812960000028,,,3,1.87143930000002,,,,,,,,,,,,,,,,,,,,,77.77813969999988,83.77917200000047,Tasse,groß,"['Tasse', 'groß']",restudy,3,"['Geige', 'Kette', 'Tasse', 'Flasche', 'Löffel', 'Trommel', 'Lampe', 'Vase', 'Schere', 'Kiste', 'Uhr', 'Tasche', 'Stift', 'Kamera', 'Bürste', 'Brille', 'Hammer', 'Ring', 'Eimer', 'Blume', 'Socke', 'Telefon', 'Kerze', 'Hut', 'Würfel', 'Jacke', 'Schlüssel', 'Rucksack', 'Fahrrad', 'Buch']","['bunt', 'niedlich', 'groß']",3,1.87143930000002,None,,,,,,,,,,,,,,,,,,,,,,,,,,,,,,,,,,,,,,,,,,,,,,,,,,,,,,,,,,,,,,,,,3,2023-11-22_13h11.17.219,watkins1,2023.2.3,99.76385894577969,6,2023-11-22 13h11.25.033368 +0000,
,,,,,,,3,0,3,0,,,,,,,,,,,,,,,,,83.78860350000014,,,,,,,,,,83.77971640000032,84.27068710000003,,,1,1.7235896000001958,,,,,,,,,,,,,,,,,,,,,84.27069730000039,90.27170449999994,Flasche,krumm,"['Flasche', 'krumm']",restudy,3,"['Geige', 'Kette', 'Tasse', 'Flasche', 'Löffel', 'Trommel', 'Lampe', 'Vase', 'Schere', 'Kiste', 'Uhr', 'Tasche', 'Stift', 'Kamera', 'Bürste', 'Brille', 'Hammer', 'Ring', 'Eimer', 'Blume', 'Socke', 'Telefon', 'Kerze', 'Hut', 'Würfel', 'Jacke', 'Schlüssel', 'Rucksack', 'Fahrrad', 'Buch']","['bunt', 'niedlich', 'groß', 'krumm']",1,1.7235896000001958,None,,,,,,,,,,,,,,,,,,,,,,,,,,,,,,,,,,,,,,,,,,,,,,,,,,,,,,,,,,,,,,,,,3,2023-11-22_13h11.17.219,watkins1,2023.2.3,99.76385894577969,6,2023-11-22 13h11.25.033368 +0000,
,,,,,,,4,0,4,0,,,,,,,,,,,,,,,,,90.28127760000007,,,,,,,,,,90.27225890000045,90.7633421999999,,,2,1.9266739000004236,,,,,,,,,,,,,,,,,,,,,90.7633523000004,96.76814990000003,Löffel,strahlend,"['Löffel', 'strahlend']",restudy,3,"['Geige', 'Kette', 'Tasse', 'Flasche', 'Löffel', 'Trommel', 'Lampe', 'Vase', 'Schere', 'Kiste', 'Uhr', 'Tasche', 'Stift', 'Kamera', 'Bürste', 'Brille', 'Hammer', 'Ring', 'Eimer', 'Blume', 'Socke', 'Telefon', 'Kerze', 'Hut', 'Würfel', 'Jacke', 'Schlüssel', 'Rucksack', 'Fahrrad', 'Buch']","['bunt', 'niedlich', 'groß', 'krumm', 'strahlend']",2,1.9266739000004236,None,,,,,,,,,,,,,,,,,,,,,,,,,,,,,,,,,,,,,,,,,,,,,,,,,,,,,,,,,,,,,,,,,3,2023-11-22_13h11.17.219,watkins1,2023.2.3,99.76385894577969,6,2023-11-22 13h11.25.033368 +0000,
,,,,,,,5,0,5,0,,,,,,,,,,,,,,,,,96.77756750000026,,,,,,,,,,96.76870520000011,97.25978699999996,,,1,1.6796588999995947,,,,,,,,,,,,,,,,,,,,,97.25979670000015,103.2628493000002,Trommel,flauschig,"['Trommel', 'flauschig']",restudy,3,"['Geige', 'Kette', 'Tasse', 'Flasche', 'Löffel', 'Trommel', 'Lampe', 'Vase', 'Schere', 'Kiste', 'Uhr', 'Tasche', 'Stift', 'Kamera', 'Bürste', 'Brille', 'Hammer', 'Ring', 'Eimer', 'Blume', 'Socke', 'Telefon', 'Kerze', 'Hut', 'Würfel', 'Jacke', 'Schlüssel', 'Rucksack', 'Fahrrad', 'Buch']","['bunt', 'niedlich', 'groß', 'krumm', 'strahlend', 'flauschig']",1,1.6796588999995947,None,,,,,,,,,,,,,,,,,,,,,,,,,,,,,,,,,,,,,,,,,,,,,,,,,,,,,,,,,,,,,,,,,3,2023-11-22_13h11.17.219,watkins1,2023.2.3,99.76385894577969,6,2023-11-22 13h11.25.033368 +0000,
,,,,,,,6,0,6,0,,,,,,,,,,,,,,,,,103.2722832999998,,,,,,,,,,103.26339439999992,103.75478230000044,,,2,1.7200740999996924,,,,,,,,,,,,,,,,,,,,,103.7547924999999,109.76435519999995,Lampe,glatt,"['Lampe', 'glatt']",test_adj,3,"['Geige', 'Kette', 'Tasse', 'Flasche', 'Löffel', 'Trommel', 'Lampe', 'Vase', 'Schere', 'Kiste', 'Uhr', 'Tasche', 'Stift', 'Kamera', 'Bürste', 'Brille', 'Hammer', 'Ring', 'Eimer', 'Blume', 'Socke', 'Telefon', 'Kerze', 'Hut', 'Würfel', 'Jacke', 'Schlüssel', 'Rucksack', 'Fahrrad', 'Buch']","['bunt', 'niedlich', 'groß', 'krumm', 'strahlend', 'flauschig', 'glatt']",2,1.7200740999996924,None,,,,,,,,,,,,,,,,,,,,,,,,,,,,,,,,,,,,,,,,,,,,,,,,,,,,,,,,,,,,,,,,,3,2023-11-22_13h11.17.219,watkins1,2023.2.3,99.76385894577969,6,2023-11-22 13h11.25.033368 +0000,
,,,,,,,7,0,7,0,,,,,,,,,,,,,,,,,109.77378560000034,,,,,,,,,,109.76490090000061,110.2560239000004,,,2,2.1150612000001274,,,,,,,,,,,,,,,,,,,,,110.25603390000015,116.26374850000047,Vase,rustikal,"['Vase', 'rustikal']",restudy,3,"['Geige', 'Kette', 'Tasse', 'Flasche', 'Löffel', 'Trommel', 'Lampe', 'Vase', 'Schere', 'Kiste', 'Uhr', 'Tasche', 'Stift', 'Kamera', 'Bürste', 'Brille', 'Hammer', 'Ring', 'Eimer', 'Blume', 'Socke', 'Telefon', 'Kerze', 'Hut', 'Würfel', 'Jacke', 'Schlüssel', 'Rucksack', 'Fahrrad', 'Buch']","['bunt', 'niedlich', 'groß', 'krumm', 'strahlend', 'flauschig', 'glatt', 'rustikal']",2,2.1150612000001274,None,,,,,,,,,,,,,,,,,,,,,,,,,,,,,,,,,,,,,,,,,,,,,,,,,,,,,,,,,,,,,,,,,3,2023-11-22_13h11.17.219,watkins1,2023.2.3,99.76385894577969,6,2023-11-22 13h11.25.033368 +0000,
,,,,,,,8,0,8,0,,,,,,,,,,,,,,,,,116.27310159999979,,,,,,,,,,116.26430090000031,116.7552467000005,,,2,1.7520555999999488,,,,,,,,,,,,,,,,,,,,,116.75525740000012,122.7584080000006,Schere,kalt,"['Schere', 'kalt']",restudy,3,"['Geige', 'Kette', 'Tasse', 'Flasche', 'Löffel', 'Trommel', 'Lampe', 'Vase', 'Schere', 'Kiste', 'Uhr', 'Tasche', 'Stift', 'Kamera', 'Bürste', 'Brille', 'Hammer', 'Ring', 'Eimer', 'Blume', 'Socke', 'Telefon', 'Kerze', 'Hut', 'Würfel', 'Jacke', 'Schlüssel', 'Rucksack', 'Fahrrad', 'Buch']","['bunt', 'niedlich', 'groß', 'krumm', 'strahlend', 'flauschig', 'glatt', 'rustikal', 'kalt']",2,1.7520555999999488,None,,,,,,,,,,,,,,,,,,,,,,,,,,,,,,,,,,,,,,,,,,,,,,,,,,,,,,,,,,,,,,,,,3,2023-11-22_13h11.17.219,watkins1,2023.2.3,99.76385894577969,6,2023-11-22 13h11.25.033368 +0000,
,,,,,,,9,0,9,0,,,,,,,,,,,,,,,,,122.7679076000004,,,,,,,,,,122.7589423999998,123.25029040000027,,,1,1.760639999999512,,,,,,,,,,,,,,,,,,,,,123.25030020000031,129.25168949999988,Kiste,kratzig,"['Kiste', 'kratzig']",test_adj,3,"['Geige', 'Kette', 'Tasse', 'Flasche', 'Löffel', 'Trommel', 'Lampe', 'Vase', 'Schere', 'Kiste', 'Uhr', 'Tasche', 'Stift', 'Kamera', 'Bürste', 'Brille', 'Hammer', 'Ring', 'Eimer', 'Blume', 'Socke', 'Telefon', 'Kerze', 'Hut', 'Würfel', 'Jacke', 'Schlüssel', 'Rucksack', 'Fahrrad', 'Buch']","['bunt', 'niedlich', 'groß', 'krumm', 'strahlend', 'flauschig', 'glatt', 'rustikal', 'kalt', 'kratzig']",1,1.760639999999512,None,,,,,,,,,,,,,,,,,,,,,,,,,,,,,,,,,,,,,,,,,,,,,,,,,,,,,,,,,,,,,,,,,3,2023-11-22_13h11.17.219,watkins1,2023.2.3,99.76385894577969,6,2023-11-22 13h11.25.033368 +0000,
,,,,,,,10,0,10,0,,,,,,,,,,,,,,,,,129.2610869,,,,,,,,,,129.25236210000003,129.74345900000026,,,3,1.819384400000672,,,,,,,,,,,,,,,,,,,,,129.74346870000045,135.74774160000015,Uhr,hübsch,"['Uhr', 'hübsch']",test_adj,3,"['Geige', 'Kette', 'Tasse', 'Flasche', 'Löffel', 'Trommel', 'Lampe', 'Vase', 'Schere', 'Kiste', 'Uhr', 'Tasche', 'Stift', 'Kamera', 'Bürste', 'Brille', 'Hammer', 'Ring', 'Eimer', 'Blume', 'Socke', 'Telefon', 'Kerze', 'Hut', 'Würfel', 'Jacke', 'Schlüssel', 'Rucksack', 'Fahrrad', 'Buch']","['bunt', 'niedlich', 'groß', 'krumm', 'strahlend', 'flauschig', 'glatt', 'rustikal', 'kalt', 'kratzig', 'hübsch']",3,1.819384400000672,None,,,,,,,,,,,,,,,,,,,,,,,,,,,,,,,,,,,,,,,,,,,,,,,,,,,,,,,,,,,,,,,,,3,2023-11-22_13h11.17.219,watkins1,2023.2.3,99.76385894577969,6,2023-11-22 13h11.25.033368 +0000,
,,,,,,,11,0,11,0,,,,,,,,,,,,,,,,,135.75719070000014,,,,,,,,,,135.7482789000005,136.23914670000067,,,1,2.0444422999999006,,,,,,,,,,,,,,,,,,,,,136.23915670000042,142.24324080000042,Tasche,kurz,"['Tasche', 'kurz']",restudy,3,"['Geige', 'Kette', 'Tasse', 'Flasche', 'Löffel', 'Trommel', 'Lampe', 'Vase', 'Schere', 'Kiste', 'Uhr', 'Tasche', 'Stift', 'Kamera', 'Bürste', 'Brille', 'Hammer', 'Ring', 'Eimer', 'Blume', 'Socke', 'Telefon', 'Kerze', 'Hut', 'Würfel', 'Jacke', 'Schlüssel', 'Rucksack', 'Fahrrad', 'Buch']","['bunt', 'niedlich', 'groß', 'krumm', 'strahlend', 'flauschig', 'glatt', 'rustikal', 'kalt', 'kratzig', 'hübsch', 'kurz']",1,2.0444422999999006,None,,,,,,,,,,,,,,,,,,,,,,,,,,,,,,,,,,,,,,,,,,,,,,,,,,,,,,,,,,,,,,,,,3,2023-11-22_13h11.17.219,watkins1,2023.2.3,99.76385894577969,6,2023-11-22 13h11.25.033368 +0000,
,,,,,,,12,0,12,0,,,,,,,,,,,,,,,,,142.25264289999996,,,,,,,,,,142.24377110000023,142.7347361000002,,,3,1.900861199999781,,,,,,,,,,,,,,,,,,,,,142.7347466000001,148.73925810000037,Stift,neu,"['Stift', 'neu']",test_adj,3,"['Geige', 'Kette', 'Tasse', 'Flasche', 'Löffel', 'Trommel', 'Lampe', 'Vase', 'Schere', 'Kiste', 'Uhr', 'Tasche', 'Stift', 'Kamera', 'Bürste', 'Brille', 'Hammer', 'Ring', 'Eimer', 'Blume', 'Socke', 'Telefon', 'Kerze', 'Hut', 'Würfel', 'Jacke', 'Schlüssel', 'Rucksack', 'Fahrrad', 'Buch']","['bunt', 'niedlich', 'groß', 'krumm', 'strahlend', 'flauschig', 'glatt', 'rustikal', 'kalt', 'kratzig', 'hübsch', 'kurz', 'neu']",3,1.900861199999781,None,,,,,,,,,,,,,,,,,,,,,,,,,,,,,,,,,,,,,,,,,,,,,,,,,,,,,,,,,,,,,,,,,3,2023-11-22_13h11.17.219,watkins1,2023.2.3,99.76385894577969,6,2023-11-22 13h11.25.033368 +0000,
,,,,,,,13,0,13,0,,,,,,,,,,,,,,,,,148.74870509999982,,,,,,,,,,148.73979880000024,149.23065080000015,,,1,1.652675299999828,,,,,,,,,,,,,,,,,,,,,149.23066170000038,155.23166459999993,Kamera,dunkel,"['Kamera', 'dunkel']",test_adj,3,"['Geige', 'Kette', 'Tasse', 'Flasche', 'Löffel', 'Trommel', 'Lampe', 'Vase', 'Schere', 'Kiste', 'Uhr', 'Tasche', 'Stift', 'Kamera', 'Bürste', 'Brille', 'Hammer', 'Ring', 'Eimer', 'Blume', 'Socke', 'Telefon', 'Kerze', 'Hut', 'Würfel', 'Jacke', 'Schlüssel', 'Rucksack', 'Fahrrad', 'Buch']","['bunt', 'niedlich', 'groß', 'krumm', 'strahlend', 'flauschig', 'glatt', 'rustikal', 'kalt', 'kratzig', 'hübsch', 'kurz', 'neu', 'dunkel']",1,1.652675299999828,None,,,,,,,,,,,,,,,,,,,,,,,,,,,,,,,,,,,,,,,,,,,,,,,,,,,,,,,,,,,,,,,,,3,2023-11-22_13h11.17.219,watkins1,2023.2.3,99.76385894577969,6,2023-11-22 13h11.25.033368 +0000,
,,,,,,,14,0,14,0,,,,,,,,,,,,,,,,,155.24100780000026,,,,,,,,,,155.23221900000044,155.72356560000026,,,3,1.9749359999996159,,,,,,,,,,,,,,,,,,,,,155.7235765000005,161.72722539999995,Bürste,gut,"['Bürste', 'gut']",test_adj,3,"['Geige', 'Kette', 'Tasse', 'Flasche', 'Löffel', 'Trommel', 'Lampe', 'Vase', 'Schere', 'Kiste', 'Uhr', 'Tasche', 'Stift', 'Kamera', 'Bürste', 'Brille', 'Hammer', 'Ring', 'Eimer', 'Blume', 'Socke', 'Telefon', 'Kerze', 'Hut', 'Würfel', 'Jacke', 'Schlüssel', 'Rucksack', 'Fahrrad', 'Buch']","['bunt', 'niedlich', 'groß', 'krumm', 'strahlend', 'flauschig', 'glatt', 'rustikal', 'kalt', 'kratzig', 'hübsch', 'kurz', 'neu', 'dunkel', 'gut']",3,1.9749359999996159,None,,,,,,,,,,,,,,,,,,,,,,,,,,,,,,,,,,,,,,,,,,,,,,,,,,,,,,,,,,,,,,,,,3,2023-11-22_13h11.17.219,watkins1,2023.2.3,99.76385894577969,6,2023-11-22 13h11.25.033368 +0000,
,,,,,,,15,0,15,0,,,,,,,,,,,,,,,,,161.73668650000036,,,,,,,,,,161.7277707000003,162.21867699999984,,,3,1.4245294000002104,,,,,,,,,,,,,,,,,,,,,162.2186873999999,168.22193940000034,Brille,dick,"['Brille', 'dick']",restudy,3,"['Geige', 'Kette', 'Tasse', 'Flasche', 'Löffel', 'Trommel', 'Lampe', 'Vase', 'Schere', 'Kiste', 'Uhr', 'Tasche', 'Stift', 'Kamera', 'Bürste', 'Brille', 'Hammer', 'Ring', 'Eimer', 'Blume', 'Socke', 'Telefon', 'Kerze', 'Hut', 'Würfel', 'Jacke', 'Schlüssel', 'Rucksack', 'Fahrrad', 'Buch']","['bunt', 'niedlich', 'groß', 'krumm', 'strahlend', 'flauschig', 'glatt', 'rustikal', 'kalt', 'kratzig', 'hübsch', 'kurz', 'neu', 'dunkel', 'gut', 'dick']",3,1.4245294000002104,None,,,,,,,,,,,,,,,,,,,,,,,,,,,,,,,,,,,,,,,,,,,,,,,,,,,,,,,,,,,,,,,,,3,2023-11-22_13h11.17.219,watkins1,2023.2.3,99.76385894577969,6,2023-11-22 13h11.25.033368 +0000,
,,,,,,,16,0,16,0,,,,,,,,,,,,,,,,,168.2313462000002,,,,,,,,,,168.22247490000063,168.7135554000006,,,2,2.344924300000457,,,,,,,,,,,,,,,,,,,,,168.71356509999987,174.71780200000012,Hammer,flach,"['Hammer', 'flach']",restudy,3,"['Geige', 'Kette', 'Tasse', 'Flasche', 'Löffel', 'Trommel', 'Lampe', 'Vase', 'Schere', 'Kiste', 'Uhr', 'Tasche', 'Stift', 'Kamera', 'Bürste', 'Brille', 'Hammer', 'Ring', 'Eimer', 'Blume', 'Socke', 'Telefon', 'Kerze', 'Hut', 'Würfel', 'Jacke', 'Schlüssel', 'Rucksack', 'Fahrrad', 'Buch']","['bunt', 'niedlich', 'groß', 'krumm', 'strahlend', 'flauschig', 'glatt', 'rustikal', 'kalt', 'kratzig', 'hübsch', 'kurz', 'neu', 'dunkel', 'gut', 'dick', 'flach']",2,2.344924300000457,None,,,,,,,,,,,,,,,,,,,,,,,,,,,,,,,,,,,,,,,,,,,,,,,,,,,,,,,,,,,,,,,,,3,2023-11-22_13h11.17.219,watkins1,2023.2.3,99.76385894577969,6,2023-11-22 13h11.25.033368 +0000,
,,,,,,,17,0,17,0,,,,,,,,,,,,,,,,,174.7271707,,,,,,,,,,174.71833610000067,175.20935840000038,,,3,1.3214842000006684,,,,,,,,,,,,,,,,,,,,,175.20936849999998,181.2106205,Ring,zart,"['Ring', 'zart']",restudy,3,"['Geige', 'Kette', 'Tasse', 'Flasche', 'Löffel', 'Trommel', 'Lampe', 'Vase', 'Schere', 'Kiste', 'Uhr', 'Tasche', 'Stift', 'Kamera', 'Bürste', 'Brille', 'Hammer', 'Ring', 'Eimer', 'Blume', 'Socke', 'Telefon', 'Kerze', 'Hut', 'Würfel', 'Jacke', 'Schlüssel', 'Rucksack', 'Fahrrad', 'Buch']","['bunt', 'niedlich', 'groß', 'krumm', 'strahlend', 'flauschig', 'glatt', 'rustikal', 'kalt', 'kratzig', 'hübsch', 'kurz', 'neu', 'dunkel', 'gut', 'dick', 'flach', 'zart']",3,1.3214842000006684,None,,,,,,,,,,,,,,,,,,,,,,,,,,,,,,,,,,,,,,,,,,,,,,,,,,,,,,,,,,,,,,,,,3,2023-11-22_13h11.17.219,watkins1,2023.2.3,99.76385894577969,6,2023-11-22 13h11.25.033368 +0000,
,,,,,,,18,0,18,0,,,,,,,,,,,,,,,,,181.22007980000035,,,,,,,,,,181.2111584000004,181.70211240000026,,,3,0.9805826000001616,,,,,,,,,,,,,,,,,,,,,181.70212210000045,187.70521199999985,Eimer,robust,"['Eimer', 'robust']",test_adj,3,"['Geige', 'Kette', 'Tasse', 'Flasche', 'Löffel', 'Trommel', 'Lampe', 'Vase', 'Schere', 'Kiste', 'Uhr', 'Tasche', 'Stift', 'Kamera', 'Bürste', 'Brille', 'Hammer', 'Ring', 'Eimer', 'Blume', 'Socke', 'Telefon', 'Kerze', 'Hut', 'Würfel', 'Jacke', 'Schlüssel', 'Rucksack', 'Fahrrad', 'Buch']","['bunt', 'niedlich', 'groß', 'krumm', 'strahlend', 'flauschig', 'glatt', 'rustikal', 'kalt', 'kratzig', 'hübsch', 'kurz', 'neu', 'dunkel', 'gut', 'dick', 'flach', 'zart', 'robust']",3,0.9805826000001616,None,,,,,,,,,,,,,,,,,,,,,,,,,,,,,,,,,,,,,,,,,,,,,,,,,,,,,,,,,,,,,,,,,3,2023-11-22_13h11.17.219,watkins1,2023.2.3,99.76385894577969,6,2023-11-22 13h11.25.033368 +0000,
,,,,,,,19,0,19,0,,,,,,,,,,,,,,,,,187.71457139999984,,,,,,,,,,187.70574430000033,188.19712710000022,,,1,1.3662689000002501,,,,,,,,,,,,,,,,,,,,,188.19713719999982,194.2075463000001,Blume,klobig,"['Blume', 'klobig']",test_adj,3,"['Geige', 'Kette', 'Tasse', 'Flasche', 'Löffel', 'Trommel', 'Lampe', 'Vase', 'Schere', 'Kiste', 'Uhr', 'Tasche', 'Stift', 'Kamera', 'Bürste', 'Brille', 'Hammer', 'Ring', 'Eimer', 'Blume', 'Socke', 'Telefon', 'Kerze', 'Hut', 'Würfel', 'Jacke', 'Schlüssel', 'Rucksack', 'Fahrrad', 'Buch']","['bunt', 'niedlich', 'groß', 'krumm', 'strahlend', 'flauschig', 'glatt', 'rustikal', 'kalt', 'kratzig', 'hübsch', 'kurz', 'neu', 'dunkel', 'gut', 'dick', 'flach', 'zart', 'robust', 'klobig']",1,1.3662689000002501,None,,,,,,,,,,,,,,,,,,,,,,,,,,,,,,,,,,,,,,,,,,,,,,,,,,,,,,,,,,,,,,,,,3,2023-11-22_13h11.17.219,watkins1,2023.2.3,99.76385894577969,6,2023-11-22 13h11.25.033368 +0000,
,,,,,,,20,0,20,0,,,,,,,,,,,,,,,,,194.2169724000005,,,,,,,,,,194.20808420000048,194.69923720000043,,,3,3.375580899999477,,,,,,,,,,,,,,,,,,,,,194.69924750000064,200.70084850000057,Socke,sportlich,"['Socke', 'sportlich']",restudy,3,"['Geige', 'Kette', 'Tasse', 'Flasche', 'Löffel', 'Trommel', 'Lampe', 'Vase', 'Schere', 'Kiste', 'Uhr', 'Tasche', 'Stift', 'Kamera', 'Bürste', 'Brille', 'Hammer', 'Ring', 'Eimer', 'Blume', 'Socke', 'Telefon', 'Kerze', 'Hut', 'Würfel', 'Jacke', 'Schlüssel', 'Rucksack', 'Fahrrad', 'Buch']","['bunt', 'niedlich', 'groß', 'krumm', 'strahlend', 'flauschig', 'glatt', 'rustikal', 'kalt', 'kratzig', 'hübsch', 'kurz', 'neu', 'dunkel', 'gut', 'dick', 'flach', 'zart', 'robust', 'klobig', 'sportlich']",3,3.375580899999477,None,,,,,,,,,,,,,,,,,,,,,,,,,,,,,,,,,,,,,,,,,,,,,,,,,,,,,,,,,,,,,,,,,3,2023-11-22_13h11.17.219,watkins1,2023.2.3,99.76385894577969,6,2023-11-22 13h11.25.033368 +0000,
,,,,,,,21,0,21,0,,,,,,,,,,,,,,,,,200.71030690000043,,,,,,,,,,200.70140660000015,201.19236640000054,,,1,1.594981799999914,,,,,,,,,,,,,,,,,,,,,201.19237640000028,207.19325240000035,Telefon,lang,"['Telefon', 'lang']",test_adj,3,"['Geige', 'Kette', 'Tasse', 'Flasche', 'Löffel', 'Trommel', 'Lampe', 'Vase', 'Schere', 'Kiste', 'Uhr', 'Tasche', 'Stift', 'Kamera', 'Bürste', 'Brille', 'Hammer', 'Ring', 'Eimer', 'Blume', 'Socke', 'Telefon', 'Kerze', 'Hut', 'Würfel', 'Jacke', 'Schlüssel', 'Rucksack', 'Fahrrad', 'Buch']","['bunt', 'niedlich', 'groß', 'krumm', 'strahlend', 'flauschig', 'glatt', 'rustikal', 'kalt', 'kratzig', 'hübsch', 'kurz', 'neu', 'dunkel', 'gut', 'dick', 'flach', 'zart', 'robust', 'klobig', 'sportlich', 'lang']",1,1.594981799999914,None,,,,,,,,,,,,,,,,,,,,,,,,,,,,,,,,,,,,,,,,,,,,,,,,,,,,,,,,,,,,,,,,,3,2023-11-22_13h11.17.219,watkins1,2023.2.3,99.76385894577969,6,2023-11-22 13h11.25.033368 +0000,
,,,,,,,22,0,22,0,,,,,,,,,,,,,,,,,207.2026947000004,,,,,,,,,,207.19379260000005,207.6847085999998,,,2,2.3507536999995864,,,,,,,,,,,,,,,,,,,,,207.68471910000062,213.6858382999999,Kerze,elegant,"['Kerze', 'elegant']",test_adj,3,"['Geige', 'Kette', 'Tasse', 'Flasche', 'Löffel', 'Trommel', 'Lampe', 'Vase', 'Schere', 'Kiste', 'Uhr', 'Tasche', 'Stift', 'Kamera', 'Bürste', 'Brille', 'Hammer', 'Ring', 'Eimer', 'Blume', 'Socke', 'Telefon', 'Kerze', 'Hut', 'Würfel', 'Jacke', 'Schlüssel', 'Rucksack', 'Fahrrad', 'Buch']","['bunt', 'niedlich', 'groß', 'krumm', 'strahlend', 'flauschig', 'glatt', 'rustikal', 'kalt', 'kratzig', 'hübsch', 'kurz', 'neu', 'dunkel', 'gut', 'dick', 'flach', 'zart', 'robust', 'klobig', 'sportlich', 'lang', 'elegant']",2,2.3507536999995864,None,,,,,,,,,,,,,,,,,,,,,,,,,,,,,,,,,,,,,,,,,,,,,,,,,,,,,,,,,,,,,,,,,3,2023-11-22_13h11.17.219,watkins1,2023.2.3,99.76385894577969,6,2023-11-22 13h11.25.033368 +0000,
,,,,,,,23,0,23,0,,,,,,,,,,,,,,,,,213.6953069000001,,,,,,,,,,213.68636610000067,214.17750849999993,,,3,1.8580106999997952,,,,,,,,,,,,,,,,,,,,,214.1775185000006,220.17972650000047,Hut,breit,"['Hut', 'breit']",restudy,3,"['Geige', 'Kette', 'Tasse', 'Flasche', 'Löffel', 'Trommel', 'Lampe', 'Vase', 'Schere', 'Kiste', 'Uhr', 'Tasche', 'Stift', 'Kamera', 'Bürste', 'Brille', 'Hammer', 'Ring', 'Eimer', 'Blume', 'Socke', 'Telefon', 'Kerze', 'Hut', 'Würfel', 'Jacke', 'Schlüssel', 'Rucksack', 'Fahrrad', 'Buch']","['bunt', 'niedlich', 'groß', 'krumm', 'strahlend', 'flauschig', 'glatt', 'rustikal', 'kalt', 'kratzig', 'hübsch', 'kurz', 'neu', 'dunkel', 'gut', 'dick', 'flach', 'zart', 'robust', 'klobig', 'sportlich', 'lang', 'elegant', 'breit']",3,1.8580106999997952,None,,,,,,,,,,,,,,,,,,,,,,,,,,,,,,,,,,,,,,,,,,,,,,,,,,,,,,,,,,,,,,,,,3,2023-11-22_13h11.17.219,watkins1,2023.2.3,99.76385894577969,6,2023-11-22 13h11.25.033368 +0000,
,,,,,,,24,0,24,0,,,,,,,,,,,,,,,,,220.1891642999999,,,,,,,,,,220.18026379999992,220.6715089999998,,,1,2.1387923000002047,,,,,,,,,,,,,,,,,,,,,220.67151920000015,226.67953980000038,Würfel,praktisch,"['Würfel', 'praktisch']",restudy,3,"['Geige', 'Kette', 'Tasse', 'Flasche', 'Löffel', 'Trommel', 'Lampe', 'Vase', 'Schere', 'Kiste', 'Uhr', 'Tasche', 'Stift', 'Kamera', 'Bürste', 'Brille', 'Hammer', 'Ring', 'Eimer', 'Blume', 'Socke', 'Telefon', 'Kerze', 'Hut', 'Würfel', 'Jacke', 'Schlüssel', 'Rucksack', 'Fahrrad', 'Buch']","['bunt', 'niedlich', 'groß', 'krumm', 'strahlend', 'flauschig', 'glatt', 'rustikal', 'kalt', 'kratzig', 'hübsch', 'kurz', 'neu', 'dunkel', 'gut', 'dick', 'flach', 'zart', 'robust', 'klobig', 'sportlich', 'lang', 'elegant', 'breit', 'praktisch']",1,2.1387923000002047,None,,,,,,,,,,,,,,,,,,,,,,,,,,,,,,,,,,,,,,,,,,,,,,,,,,,,,,,,,,,,,,,,,3,2023-11-22_13h11.17.219,watkins1,2023.2.3,99.76385894577969,6,2023-11-22 13h11.25.033368 +0000,
,,,,,,,25,0,25,0,,,,,,,,,,,,,,,,,226.68901060000007,,,,,,,,,,226.6800815000006,227.17109440000058,,,3,2.3671503999994457,,,,,,,,,,,,,,,,,,,,,227.1711046999999,233.17353060000005,Jacke,durchsichtig,"['Jacke', 'durchsichtig']",restudy,3,"['Geige', 'Kette', 'Tasse', 'Flasche', 'Löffel', 'Trommel', 'Lampe', 'Vase', 'Schere', 'Kiste', 'Uhr', 'Tasche', 'Stift', 'Kamera', 'Bürste', 'Brille', 'Hammer', 'Ring', 'Eimer', 'Blume', 'Socke', 'Telefon', 'Kerze', 'Hut', 'Würfel', 'Jacke', 'Schlüssel', 'Rucksack', 'Fahrrad', 'Buch']","['bunt', 'niedlich', 'groß', 'krumm', 'strahlend', 'flauschig', 'glatt', 'rustikal', 'kalt', 'kratzig', 'hübsch', 'kurz', 'neu', 'dunkel', 'gut', 'dick', 'flach', 'zart', 'robust', 'klobig', 'sportlich', 'lang', 'elegant', 'breit', 'praktisch', 'durchsichtig']",3,2.3671503999994457,None,,,,,,,,,,,,,,,,,,,,,,,,,,,,,,,,,,,,,,,,,,,,,,,,,,,,,,,,,,,,,,,,,3,2023-11-22_13h11.17.219,watkins1,2023.2.3,99.76385894577969,6,2023-11-22 13h11.25.033368 +0000,
,,,,,,,26,0,26,0,,,,,,,,,,,,,,,,,233.18299089999982,,,,,,,,,,233.17407569999978,233.66501380000045,,,1,3.09007180000026,,,,,,,,,,,,,,,,,,,,,233.6650238000002,239.66638779999994,Schlüssel,schmutzig,"['Schlüssel', 'schmutzig']",restudy,3,"['Geige', 'Kette', 'Tasse', 'Flasche', 'Löffel', 'Trommel', 'Lampe', 'Vase', 'Schere', 'Kiste', 'Uhr', 'Tasche', 'Stift', 'Kamera', 'Bürste', 'Brille', 'Hammer', 'Ring', 'Eimer', 'Blume', 'Socke', 'Telefon', 'Kerze', 'Hut', 'Würfel', 'Jacke', 'Schlüssel', 'Rucksack', 'Fahrrad', 'Buch']","['bunt', 'niedlich', 'groß', 'krumm', 'strahlend', 'flauschig', 'glatt', 'rustikal', 'kalt', 'kratzig', 'hübsch', 'kurz', 'neu', 'dunkel', 'gut', 'dick', 'flach', 'zart', 'robust', 'klobig', 'sportlich', 'lang', 'elegant', 'breit', 'praktisch', 'durchsichtig', 'schmutzig']",1,3.09007180000026,None,,,,,,,,,,,,,,,,,,,,,,,,,,,,,,,,,,,,,,,,,,,,,,,,,,,,,,,,,,,,,,,,,3,2023-11-22_13h11.17.219,watkins1,2023.2.3,99.76385894577969,6,2023-11-22 13h11.25.033368 +0000,
,,,,,,,27,0,27,0,,,,,,,,,,,,,,,,,239.67584930000066,,,,,,,,,,239.6669235999998,240.15781229999993,,,3,1.6692955999997139,,,,,,,,,,,,,,,,,,,,,240.1578225000003,246.16737449999982,Rucksack,kaputt,"['Rucksack', 'kaputt']",test_adj,3,"['Geige', 'Kette', 'Tasse', 'Flasche', 'Löffel', 'Trommel', 'Lampe', 'Vase', 'Schere', 'Kiste', 'Uhr', 'Tasche', 'Stift', 'Kamera', 'Bürste', 'Brille', 'Hammer', 'Ring', 'Eimer', 'Blume', 'Socke', 'Telefon', 'Kerze', 'Hut', 'Würfel', 'Jacke', 'Schlüssel', 'Rucksack', 'Fahrrad', 'Buch']","['bunt', 'niedlich', 'groß', 'krumm', 'strahlend', 'flauschig', 'glatt', 'rustikal', 'kalt', 'kratzig', 'hübsch', 'kurz', 'neu', 'dunkel', 'gut', 'dick', 'flach', 'zart', 'robust', 'klobig', 'sportlich', 'lang', 'elegant', 'breit', 'praktisch', 'durchsichtig', 'schmutzig', 'kaputt']",3,1.6692955999997139,None,,,,,,,,,,,,,,,,,,,,,,,,,,,,,,,,,,,,,,,,,,,,,,,,,,,,,,,,,,,,,,,,,3,2023-11-22_13h11.17.219,watkins1,2023.2.3,99.76385894577969,6,2023-11-22 13h11.25.033368 +0000,
,,,,,,,28,0,28,0,,,,,,,,,,,,,,,,,246.17679380000027,,,,,,,,,,246.1679105000003,246.65884929999993,,,1,1.9442362999998295,,,,,,,,,,,,,,,,,,,,,246.6588597,252.6692767000004,Fahrrad,biegsam,"['Fahrrad', 'biegsam']",test_adj,3,"['Geige', 'Kette', 'Tasse', 'Flasche', 'Löffel', 'Trommel', 'Lampe', 'Vase', 'Schere', 'Kiste', 'Uhr', 'Tasche', 'Stift', 'Kamera', 'Bürste', 'Brille', 'Hammer', 'Ring', 'Eimer', 'Blume', 'Socke', 'Telefon', 'Kerze', 'Hut', 'Würfel', 'Jacke', 'Schlüssel', 'Rucksack', 'Fahrrad', 'Buch']","['bunt', 'niedlich', 'groß', 'krumm', 'strahlend', 'flauschig', 'glatt', 'rustikal', 'kalt', 'kratzig', 'hübsch', 'kurz', 'neu', 'dunkel', 'gut', 'dick', 'flach', 'zart', 'robust', 'klobig', 'sportlich', 'lang', 'elegant', 'breit', 'praktisch', 'durchsichtig', 'schmutzig', 'kaputt', 'biegsam']",1,1.9442362999998295,None,,,,,,,,,,,,,,,,,,,,,,,,,,,,,,,,,,,,,,,,,,,,,,,,,,,,,,,,,,,,,,,,,3,2023-11-22_13h11.17.219,watkins1,2023.2.3,99.76385894577969,6,2023-11-22 13h11.25.033368 +0000,
,,,,,,,29,0,29,0,,,,,,,,,,,,,,,,,252.67871960000048,,,,,,,,,,252.66982410000037,253.16084630000023,,,1,1.562355099999877,,,,,,,,,,,,,,,,,,,,,253.1608567000003,259.1651320000001,Buch,verspielt,"['Buch', 'verspielt']",test_adj,3,"['Geige', 'Kette', 'Tasse', 'Flasche', 'Löffel', 'Trommel', 'Lampe', 'Vase', 'Schere', 'Kiste', 'Uhr', 'Tasche', 'Stift', 'Kamera', 'Bürste', 'Brille', 'Hammer', 'Ring', 'Eimer', 'Blume', 'Socke', 'Telefon', 'Kerze', 'Hut', 'Würfel', 'Jacke', 'Schlüssel', 'Rucksack', 'Fahrrad', 'Buch']","['bunt', 'niedlich', 'groß', 'krumm', 'strahlend', 'flauschig', 'glatt', 'rustikal', 'kalt', 'kratzig', 'hübsch', 'kurz', 'neu', 'dunkel', 'gut', 'dick', 'flach', 'zart', 'robust', 'klobig', 'sportlich', 'lang', 'elegant', 'breit', 'praktisch', 'durchsichtig', 'schmutzig', 'kaputt', 'biegsam', 'verspielt']",1,1.562355099999877,None,,,,,,,,,,,,,,,,,,,,,,,,,,,,,,,,,,,,,,,,,,,,,,,,,,,,,,,,,,,,,,,,,3,2023-11-22_13h11.17.219,watkins1,2023.2.3,99.76385894577969,6,2023-11-22 13h11.25.033368 +0000,
,,,,,,,,,,,0,0,0,0,,,,,,,,,,,,,259.1745840000003,,,,,,,,,,259.16599660000065,259.6565731999999,,,[],[],,,,,,,,,,,,None,None,,,,,,,,,,Trommel,flauschig,"['Trommel', 'flauschig']",restudy,3,,,,,,259.16592110000056,259.16596970000046,"['Trommel', 'Kerze', 'Löffel', 'Vase', 'Stift', 'Eimer', 'Hammer', 'Hut', 'Geige', 'Flasche', 'Jacke', 'Schere', 'Kamera', 'Bürste', 'Schlüssel', 'Würfel', 'Brille', 'Socke', 'Telefon', 'Tasse', 'Uhr', 'Tasche', 'Fahrrad', 'Blume', 'Kette', 'Lampe', 'Rucksack', 'Kiste', 'Ring', 'Buch']",259.65658320000057,259.6595078999999,None,259.65968950000024,265.6675245000006,1,1.4628528000002916,None,265.66797399999996,265.6709062,None,265.6710837999999,265.6723178000002,265.6723299000005,265.67357790000005,,,,,,,,,,,,,,,,,,,,,,,,,,,,,,,,,,,,,,,,,,,,,,,3,2023-11-22_13h11.17.219,watkins1,2023.2.3,99.76385894577969,6,2023-11-22 13h11.25.033368 +0000,
,,,,,,,,,,,1,0,1,0,,,,,,,,,,,,,265.6770925999999,,,,,,,,,,265.6738704999998,266.16913830000067,,,[],[],,,,,,,,,,,elegant,None,None,,,,,,,,,,Kerze,elegant,"['Kerze', 'elegant']",test_adj,3,,,,,,265.6738030000006,265.6738427,"['Trommel', 'Kerze', 'Löffel', 'Vase', 'Stift', 'Eimer', 'Hammer', 'Hut', 'Geige', 'Flasche', 'Jacke', 'Schere', 'Kamera', 'Bürste', 'Schlüssel', 'Würfel', 'Brille', 'Socke', 'Telefon', 'Tasse', 'Uhr', 'Tasche', 'Fahrrad', 'Blume', 'Kette', 'Lampe', 'Rucksack', 'Kiste', 'Ring', 'Buch']",266.1691490000003,266.1720199000001,None,266.1721458000002,266.17356590000054,None,,,266.1736793,266.1751030000005,None,266.17521410000063,272.17819210000016,272.1782067000004,272.1795382,0,,,,,,,,,,,,,,,,,,,,,,,,,,,,,,,,,,,,,,,,,,,,,,3,2023-11-22_13h11.17.219,watkins1,2023.2.3,99.76385894577969,6,2023-11-22 13h11.25.033368 +0000,
,,,,,,,,,,,2,0,2,0,,,,,,,,,,,,,272.18793020000066,,,,,,,,,,272.17983450000065,272.6701006000003,,,[],[],,,,,,,,,,,,None,None,,,,,,,,,,Löffel,strahlend,"['Löffel', 'strahlend']",restudy,3,,,,,,272.1797664000005,272.17980590000025,"['Trommel', 'Kerze', 'Löffel', 'Vase', 'Stift', 'Eimer', 'Hammer', 'Hut', 'Geige', 'Flasche', 'Jacke', 'Schere', 'Kamera', 'Bürste', 'Schlüssel', 'Würfel', 'Brille', 'Socke', 'Telefon', 'Tasse', 'Uhr', 'Tasche', 'Fahrrad', 'Blume', 'Kette', 'Lampe', 'Rucksack', 'Kiste', 'Ring', 'Buch']",272.6701111000002,272.6730088000004,None,272.6731383000006,278.6764449000002,2,2.194345100000646,None,278.6767520000003,278.6795852000005,None,278.6797013000005,278.6812289999998,278.68124050000006,278.6824916000005,,,,,,,,,,,,,,,,,,,,,,,,,,,,,,,,,,,,,,,,,,,,,,,3,2023-11-22_13h11.17.219,watkins1,2023.2.3,99.76385894577969,6,2023-11-22 13h11.25.033368 +0000,
,,,,,,,,,,,3,0,3,0,,,,,,,,,,,,,278.6859008000001,,,,,,,,,,278.6827836000002,279.1779567000003,,,[],[],,,,,,,,,,,,None,None,,,,,,,,,,Vase,rustikal,"['Vase', 'rustikal']",restudy,3,,,,,,278.68271710000045,278.6827567,"['Trommel', 'Kerze', 'Löffel', 'Vase', 'Stift', 'Eimer', 'Hammer', 'Hut', 'Geige', 'Flasche', 'Jacke', 'Schere', 'Kamera', 'Bürste', 'Schlüssel', 'Würfel', 'Brille', 'Socke', 'Telefon', 'Tasse', 'Uhr', 'Tasche', 'Fahrrad', 'Blume', 'Kette', 'Lampe', 'Rucksack', 'Kiste', 'Ring', 'Buch']",279.17796720000024,279.18065790000037,None,279.1807852000002,285.1876843,2,1.4066560999999638,None,285.1879866999998,285.1906312000001,None,285.19074700000056,285.1918050000004,285.19181650000064,285.1930536,,,,,,,,,,,,,,,,,,,,,,,,,,,,,,,,,,,,,,,,,,,,,,,3,2023-11-22_13h11.17.219,watkins1,2023.2.3,99.76385894577969,6,2023-11-22 13h11.25.033368 +0000,
,,,,,,,,,,,4,0,4,0,,,,,,,,,,,,,285.1970489000005,,,,,,,,,,285.1933471000002,285.68916270000045,,,[],[],,,,,,,,,,,neu,None,None,,,,,,,,,,Stift,neu,"['Stift', 'neu']",test_adj,3,,,,,,285.1932797999998,285.19331990000046,"['Trommel', 'Kerze', 'Löffel', 'Vase', 'Stift', 'Eimer', 'Hammer', 'Hut', 'Geige', 'Flasche', 'Jacke', 'Schere', 'Kamera', 'Bürste', 'Schlüssel', 'Würfel', 'Brille', 'Socke', 'Telefon', 'Tasse', 'Uhr', 'Tasche', 'Fahrrad', 'Blume', 'Kette', 'Lampe', 'Rucksack', 'Kiste', 'Ring', 'Buch']",285.68917409999995,285.6920667000004,None,285.69219520000024,285.6937547000007,None,,,285.6938697000005,285.6953368000004,None,285.6954486000004,291.6985908000006,291.6986050000005,291.6997433000006,0,,,,,,,,,,,,,,,,,,,,,,,,,,,,,,,,,,,,,,,,,,,,,,3,2023-11-22_13h11.17.219,watkins1,2023.2.3,99.76385894577969,6,2023-11-22 13h11.25.033368 +0000,
,,,,,,,,,,,5,0,5,0,,,,,,,,,,,,,291.7083594000005,,,,,,,,,,291.7000374999998,292.1903868999998,,,[],[],,,,,,,,,,,robust,None,None,,,,,,,,,,Eimer,robust,"['Eimer', 'robust']",test_adj,3,,,,,,291.6999687000007,291.7000085999998,"['Trommel', 'Kerze', 'Löffel', 'Vase', 'Stift', 'Eimer', 'Hammer', 'Hut', 'Geige', 'Flasche', 'Jacke', 'Schere', 'Kamera', 'Bürste', 'Schlüssel', 'Würfel', 'Brille', 'Socke', 'Telefon', 'Tasse', 'Uhr', 'Tasche', 'Fahrrad', 'Blume', 'Kette', 'Lampe', 'Rucksack', 'Kiste', 'Ring', 'Buch']",292.19039820000035,292.19295520000014,None,292.19308100000035,292.1954470999999,None,,,292.1955589999998,292.1980549,None,292.1981642999999,298.20254920000025,298.20256340000014,298.20389930000056,0,,,,,,,,,,,,,,,,,,,,,,,,,,,,,,,,,,,,,,,,,,,,,,3,2023-11-22_13h11.17.219,watkins1,2023.2.3,99.76385894577969,6,2023-11-22 13h11.25.033368 +0000,
,,,,,,,,,,,6,0,6,0,,,,,,,,,,,,,298.2123505999998,,,,,,,,,,298.2041955000004,298.69443200000023,,,[],[],,,,,,,,,,,,None,None,,,,,,,,,,Hammer,flach,"['Hammer', 'flach']",restudy,3,,,,,,298.2041241000006,298.2041650000001,"['Trommel', 'Kerze', 'Löffel', 'Vase', 'Stift', 'Eimer', 'Hammer', 'Hut', 'Geige', 'Flasche', 'Jacke', 'Schere', 'Kamera', 'Bürste', 'Schlüssel', 'Würfel', 'Brille', 'Socke', 'Telefon', 'Tasse', 'Uhr', 'Tasche', 'Fahrrad', 'Blume', 'Kette', 'Lampe', 'Rucksack', 'Kiste', 'Ring', 'Buch']",298.69444250000015,298.6973020000005,None,298.69743629999994,304.7004327000004,2,2.0020580000000336,None,304.7007428000006,304.7035483999998,None,304.7036637000001,304.70516829999997,304.7051800999998,304.7063425000006,,,,,,,,,,,,,,,,,,,,,,,,,,,,,,,,,,,,,,,,,,,,,,,3,2023-11-22_13h11.17.219,watkins1,2023.2.3,99.76385894577969,6,2023-11-22 13h11.25.033368 +0000,
,,,,,,,,,,,7,0,7,0,,,,,,,,,,,,,304.70987650000006,,,,,,,,,,304.7066325000005,305.20198580000033,,,[],[],,,,,,,,,,,,None,None,,,,,,,,,,Hut,breit,"['Hut', 'breit']",restudy,3,,,,,,304.7065661000006,304.7066054000006,"['Trommel', 'Kerze', 'Löffel', 'Vase', 'Stift', 'Eimer', 'Hammer', 'Hut', 'Geige', 'Flasche', 'Jacke', 'Schere', 'Kamera', 'Bürste', 'Schlüssel', 'Würfel', 'Brille', 'Socke', 'Telefon', 'Tasse', 'Uhr', 'Tasche', 'Fahrrad', 'Blume', 'Kette', 'Lampe', 'Rucksack', 'Kiste', 'Ring', 'Buch']",305.2019964000001,305.2045226,None,305.20464770000035,311.2084485000005,3,1.862947599999643,None,311.20874770000046,311.2113810000001,None,311.21149630000036,311.21253270000034,311.21254450000015,311.21370900000056,,,,,,,,,,,,,,,,,,,,,,,,,,,,,,,,,,,,,,,,,,,,,,,3,2023-11-22_13h11.17.219,watkins1,2023.2.3,99.76385894577969,6,2023-11-22 13h11.25.033368 +0000,
,,,,,,,,,,,8,0,8,0,,,,,,,,,,,,,311.21789870000066,,,,,,,,,,311.2139979000003,311.7098937999999,,,[],[],,,,,,,,,,,bunt,None,None,,,,,,,,,,Geige,bunt,"['Geige', 'bunt']",test_adj,3,,,,,,311.2139296000005,311.2139711,"['Trommel', 'Kerze', 'Löffel', 'Vase', 'Stift', 'Eimer', 'Hammer', 'Hut', 'Geige', 'Flasche', 'Jacke', 'Schere', 'Kamera', 'Bürste', 'Schlüssel', 'Würfel', 'Brille', 'Socke', 'Telefon', 'Tasse', 'Uhr', 'Tasche', 'Fahrrad', 'Blume', 'Kette', 'Lampe', 'Rucksack', 'Kiste', 'Ring', 'Buch']",311.70990410000013,311.7126035000001,None,311.7127300000002,311.71417590000055,None,,,311.71428710000055,311.71573530000023,None,311.7158472000001,317.7186793000001,317.7186932000004,317.71997210000063,0,,,,,,,,,,,,,,,,,,,,,,,,,,,,,,,,,,,,,,,,,,,,,,3,2023-11-22_13h11.17.219,watkins1,2023.2.3,99.76385894577969,6,2023-11-22 13h11.25.033368 +0000,
,,,,,,,,,,,9,0,9,0,,,,,,,,,,,,,317.72848239999985,,,,,,,,,,317.72026370000003,318.2104736000001,,,[],[],,,,,,,,,,,,None,None,,,,,,,,,,Flasche,krumm,"['Flasche', 'krumm']",restudy,3,,,,,,317.7201963000007,317.7202358000004,"['Trommel', 'Kerze', 'Löffel', 'Vase', 'Stift', 'Eimer', 'Hammer', 'Hut', 'Geige', 'Flasche', 'Jacke', 'Schere', 'Kamera', 'Bürste', 'Schlüssel', 'Würfel', 'Brille', 'Socke', 'Telefon', 'Tasse', 'Uhr', 'Tasche', 'Fahrrad', 'Blume', 'Kette', 'Lampe', 'Rucksack', 'Kiste', 'Ring', 'Buch']",318.2104847999999,318.2131237000003,None,318.21325250000064,324.21826800000053,1,1.6860229999992953,None,324.21857180000006,324.2213579999998,None,324.2214705000006,324.22297660000004,324.22298820000015,324.22413529999994,,,,,,,,,,,,,,,,,,,,,,,,,,,,,,,,,,,,,,,,,,,,,,,3,2023-11-22_13h11.17.219,watkins1,2023.2.3,99.76385894577969,6,2023-11-22 13h11.25.033368 +0000,
,,,,,,,,,,,10,0,10,0,,,,,,,,,,,,,324.22764259999985,,,,,,,,,,324.22442020000017,324.71969890000037,,,[],[],,,,,,,,,,,,None,None,,,,,,,,,,Jacke,durchsichtig,"['Jacke', 'durchsichtig']",restudy,3,,,,,,324.2243540999998,324.2243933999998,"['Trommel', 'Kerze', 'Löffel', 'Vase', 'Stift', 'Eimer', 'Hammer', 'Hut', 'Geige', 'Flasche', 'Jacke', 'Schere', 'Kamera', 'Bürste', 'Schlüssel', 'Würfel', 'Brille', 'Socke', 'Telefon', 'Tasse', 'Uhr', 'Tasche', 'Fahrrad', 'Blume', 'Kette', 'Lampe', 'Rucksack', 'Kiste', 'Ring', 'Buch']",324.7197094000003,324.7224096,None,324.7225349999999,330.73086650000005,3,1.480455000000802,None,330.73116480000044,330.7340608000004,None,330.7341755000007,330.7353456999999,330.73535730000003,330.73665640000036,,,,,,,,,,,,,,,,,,,,,,,,,,,,,,,,,,,,,,,,,,,,,,,3,2023-11-22_13h11.17.219,watkins1,2023.2.3,99.76385894577969,6,2023-11-22 13h11.25.033368 +0000,
,,,,,,,,,,,11,0,11,0,,,,,,,,,,,,,330.7403875,,,,,,,,,,330.7369441000001,331.2323726000004,,,[],[],,,,,,,,,,,,None,None,,,,,,,,,,Schere,kalt,"['Schere', 'kalt']",restudy,3,,,,,,330.7368769000004,330.7369169000003,"['Trommel', 'Kerze', 'Löffel', 'Vase', 'Stift', 'Eimer', 'Hammer', 'Hut', 'Geige', 'Flasche', 'Jacke', 'Schere', 'Kamera', 'Bürste', 'Schlüssel', 'Würfel', 'Brille', 'Socke', 'Telefon', 'Tasse', 'Uhr', 'Tasche', 'Fahrrad', 'Blume', 'Kette', 'Lampe', 'Rucksack', 'Kiste', 'Ring', 'Buch']",331.2323843000004,331.2352384000005,None,331.23536740000054,337.2366326000001,2,1.7602593000001434,None,337.2369319999998,337.23977790000026,None,337.23989059999985,337.24108419999993,337.24109600000065,337.24214630000006,,,,,,,,,,,,,,,,,,,,,,,,,,,,,,,,,,,,,,,,,,,,,,,3,2023-11-22_13h11.17.219,watkins1,2023.2.3,99.76385894577969,6,2023-11-22 13h11.25.033368 +0000,
,,,,,,,,,,,12,0,12,0,,,,,,,,,,,,,337.24608590000025,,,,,,,,,,337.2424375999999,337.7337793000006,,,[],[],,,,,,,,,,,dunkel,None,None,,,,,,,,,,Kamera,dunkel,"['Kamera', 'dunkel']",test_adj,3,,,,,,337.2423706999998,337.2424105,"['Trommel', 'Kerze', 'Löffel', 'Vase', 'Stift', 'Eimer', 'Hammer', 'Hut', 'Geige', 'Flasche', 'Jacke', 'Schere', 'Kamera', 'Bürste', 'Schlüssel', 'Würfel', 'Brille', 'Socke', 'Telefon', 'Tasse', 'Uhr', 'Tasche', 'Fahrrad', 'Blume', 'Kette', 'Lampe', 'Rucksack', 'Kiste', 'Ring', 'Buch']",337.7337900000002,337.7364101000003,None,337.7365387,337.7380054000005,None,,,337.73811710000064,337.73958089999996,None,337.7396911000005,343.74185190000026,343.74186700000064,343.7432724999999,0,,,,,,,,,,,,,,,,,,,,,,,,,,,,,,,,,,,,,,,,,,,,,,3,2023-11-22_13h11.17.219,watkins1,2023.2.3,99.76385894577969,6,2023-11-22 13h11.25.033368 +0000,
,,,,,,,,,,,13,0,13,0,,,,,,,,,,,,,343.75166360000003,,,,,,,,,,343.7435664000004,344.23354070000005,,,[],[],,,,,,,,,,,gut,None,None,,,,,,,,,,Bürste,gut,"['Bürste', 'gut']",test_adj,3,,,,,,343.7434972000001,343.74353750000046,"['Trommel', 'Kerze', 'Löffel', 'Vase', 'Stift', 'Eimer', 'Hammer', 'Hut', 'Geige', 'Flasche', 'Jacke', 'Schere', 'Kamera', 'Bürste', 'Schlüssel', 'Würfel', 'Brille', 'Socke', 'Telefon', 'Tasse', 'Uhr', 'Tasche', 'Fahrrad', 'Blume', 'Kette', 'Lampe', 'Rucksack', 'Kiste', 'Ring', 'Buch']",344.2335539000005,344.2362548000001,None,344.2363783999999,344.2389363000002,None,,,344.23904500000026,344.24156870000024,None,344.24167750000015,350.2464479999999,350.24646180000036,350.2476415000001,0,,,,,,,,,,,,,,,,,,,,,,,,,,,,,,,,,,,,,,,,,,,,,,3,2023-11-22_13h11.17.219,watkins1,2023.2.3,99.76385894577969,6,2023-11-22 13h11.25.033368 +0000,
,,,,,,,,,,,14,0,14,0,,,,,,,,,,,,,350.2561980999999,,,,,,,,,,350.2479391000006,350.73839300000054,,,[],[],,,,,,,,,,,,None,None,,,,,,,,,,Schlüssel,schmutzig,"['Schlüssel', 'schmutzig']",restudy,3,,,,,,350.24786889999996,350.2479105000002,"['Trommel', 'Kerze', 'Löffel', 'Vase', 'Stift', 'Eimer', 'Hammer', 'Hut', 'Geige', 'Flasche', 'Jacke', 'Schere', 'Kamera', 'Bürste', 'Schlüssel', 'Würfel', 'Brille', 'Socke', 'Telefon', 'Tasse', 'Uhr', 'Tasche', 'Fahrrad', 'Blume', 'Kette', 'Lampe', 'Rucksack', 'Kiste', 'Ring', 'Buch']",350.7384030000003,350.74104160000024,None,350.7411669000003,356.74812890000067,1,1.9258350000000064,None,356.7484301000004,356.7512906000002,None,356.7514068999999,356.75297820000014,356.7529900999998,356.75423450000017,,,,,,,,,,,,,,,,,,,,,,,,,,,,,,,,,,,,,,,,,,,,,,,3,2023-11-22_13h11.17.219,watkins1,2023.2.3,99.76385894577969,6,2023-11-22 13h11.25.033368 +0000,
,,,,,,,,,,,15,0,15,0,,,,,,,,,,,,,356.75763330000063,,,,,,,,,,356.75452420000056,357.2496473000001,,,[],[],,,,,,,,,,,,None,None,,,,,,,,,,Würfel,praktisch,"['Würfel', 'praktisch']",restudy,3,,,,,,356.7544576,356.75449710000066,"['Trommel', 'Kerze', 'Löffel', 'Vase', 'Stift', 'Eimer', 'Hammer', 'Hut', 'Geige', 'Flasche', 'Jacke', 'Schere', 'Kamera', 'Bürste', 'Schlüssel', 'Würfel', 'Brille', 'Socke', 'Telefon', 'Tasse', 'Uhr', 'Tasche', 'Fahrrad', 'Blume', 'Kette', 'Lampe', 'Rucksack', 'Kiste', 'Ring', 'Buch']",357.2496578999999,357.2524490000005,None,357.25257539999984,363.25467690000005,1,1.2710485000006884,None,363.2549863000004,363.2580684000004,None,363.2581831000007,363.2593701000005,363.2593820000002,363.2606407000003,,,,,,,,,,,,,,,,,,,,,,,,,,,,,,,,,,,,,,,,,,,,,,,3,2023-11-22_13h11.17.219,watkins1,2023.2.3,99.76385894577969,6,2023-11-22 13h11.25.033368 +0000,
,,,,,,,,,,,16,0,16,0,,,,,,,,,,,,,363.2641407000001,,,,,,,,,,363.26094490000014,363.75627540000005,,,[],[],,,,,,,,,,,,None,None,,,,,,,,,,Brille,dick,"['Brille', 'dick']",restudy,3,,,,,,363.2608788000007,363.2609180999998,"['Trommel', 'Kerze', 'Löffel', 'Vase', 'Stift', 'Eimer', 'Hammer', 'Hut', 'Geige', 'Flasche', 'Jacke', 'Schere', 'Kamera', 'Bürste', 'Schlüssel', 'Würfel', 'Brille', 'Socke', 'Telefon', 'Tasse', 'Uhr', 'Tasche', 'Fahrrad', 'Blume', 'Kette', 'Lampe', 'Rucksack', 'Kiste', 'Ring', 'Buch']",363.75628680000045,363.7591143999998,None,363.75924060000034,369.76194269999996,3,1.524256200000309,None,369.76224830000046,369.76490060000015,None,369.7650144999998,369.76619180000034,369.76620319999984,369.76723350000066,,,,,,,,,,,,,,,,,,,,,,,,,,,,,,,,,,,,,,,,,,,,,,,3,2023-11-22_13h11.17.219,watkins1,2023.2.3,99.76385894577969,6,2023-11-22 13h11.25.033368 +0000,
,,,,,,,,,,,17,0,17,0,,,,,,,,,,,,,369.77150729999994,,,,,,,,,,369.76752510000006,370.2636167999999,,,[],[],,,,,,,,,,,,None,None,,,,,,,,,,Socke,sportlich,"['Socke', 'sportlich']",restudy,3,,,,,,369.76745850000043,369.7674984000005,"['Trommel', 'Kerze', 'Löffel', 'Vase', 'Stift', 'Eimer', 'Hammer', 'Hut', 'Geige', 'Flasche', 'Jacke', 'Schere', 'Kamera', 'Bürste', 'Schlüssel', 'Würfel', 'Brille', 'Socke', 'Telefon', 'Tasse', 'Uhr', 'Tasche', 'Fahrrad', 'Blume', 'Kette', 'Lampe', 'Rucksack', 'Kiste', 'Ring', 'Buch']",370.2636287000005,370.2662420000006,None,370.2663708,376.2673024000005,3,1.4566788000001907,None,376.2676027000007,376.2703486999999,None,376.2704626000004,376.2717283000002,376.2717399000003,376.2729838000005,,,,,,,,,,,,,,,,,,,,,,,,,,,,,,,,,,,,,,,,,,,,,,,3,2023-11-22_13h11.17.219,watkins1,2023.2.3,99.76385894577969,6,2023-11-22 13h11.25.033368 +0000,
,,,,,,,,,,,18,0,18,0,,,,,,,,,,,,,376.27676430000065,,,,,,,,,,376.2732704,376.76889070000016,,,[],[],,,,,,,,,,,lang,None,None,,,,,,,,,,Telefon,lang,"['Telefon', 'lang']",test_adj,3,,,,,,376.27320430000054,376.2732439000001,"['Trommel', 'Kerze', 'Löffel', 'Vase', 'Stift', 'Eimer', 'Hammer', 'Hut', 'Geige', 'Flasche', 'Jacke', 'Schere', 'Kamera', 'Bürste', 'Schlüssel', 'Würfel', 'Brille', 'Socke', 'Telefon', 'Tasse', 'Uhr', 'Tasche', 'Fahrrad', 'Blume', 'Kette', 'Lampe', 'Rucksack', 'Kiste', 'Ring', 'Buch']",376.7689022000004,376.7717188000006,None,376.7718439,376.77331550000054,None,,,376.77342750000025,376.77490209999996,None,376.7750120999999,382.7792473999998,382.7792618000003,382.78044620000037,0,,,,,,,,,,,,,,,,,,,,,,,,,,,,,,,,,,,,,,,,,,,,,,3,2023-11-22_13h11.17.219,watkins1,2023.2.3,99.76385894577969,6,2023-11-22 13h11.25.033368 +0000,
,,,,,,,,,,,19,0,19,0,,,,,,,,,,,,,382.7890541000006,,,,,,,,,,382.78074190000007,383.27089270000033,,,[],[],,,,,,,,,,,,None,None,,,,,,,,,,Tasse,groß,"['Tasse', 'groß']",restudy,3,,,,,,382.78067290000035,382.78071330000057,"['Trommel', 'Kerze', 'Löffel', 'Vase', 'Stift', 'Eimer', 'Hammer', 'Hut', 'Geige', 'Flasche', 'Jacke', 'Schere', 'Kamera', 'Bürste', 'Schlüssel', 'Würfel', 'Brille', 'Socke', 'Telefon', 'Tasse', 'Uhr', 'Tasche', 'Fahrrad', 'Blume', 'Kette', 'Lampe', 'Rucksack', 'Kiste', 'Ring', 'Buch']",383.2709033000001,383.2735025000002,None,383.2736286999998,389.27751400000034,3,1.7537077999995745,None,389.2778195000001,389.2804850000002,None,389.2805994,389.28207400000065,389.28208580000046,389.2831253000004,,,,,,,,,,,,,,,,,,,,,,,,,,,,,,,,,,,,,,,,,,,,,,,3,2023-11-22_13h11.17.219,watkins1,2023.2.3,99.76385894577969,6,2023-11-22 13h11.25.033368 +0000,
,,,,,,,,,,,20,0,20,0,,,,,,,,,,,,,389.28696020000007,,,,,,,,,,389.2834148000002,389.77895380000064,,,[],[],,,,,,,,,,,hübsch,None,None,,,,,,,,,,Uhr,hübsch,"['Uhr', 'hübsch']",test_adj,3,,,,,,389.28334780000023,389.2833878000001,"['Trommel', 'Kerze', 'Löffel', 'Vase', 'Stift', 'Eimer', 'Hammer', 'Hut', 'Geige', 'Flasche', 'Jacke', 'Schere', 'Kamera', 'Bürste', 'Schlüssel', 'Würfel', 'Brille', 'Socke', 'Telefon', 'Tasse', 'Uhr', 'Tasche', 'Fahrrad', 'Blume', 'Kette', 'Lampe', 'Rucksack', 'Kiste', 'Ring', 'Buch']",389.77896430000055,389.78135290000046,None,389.78147640000043,389.78277940000044,None,,,389.7828919000003,389.78418950000014,None,389.7843002999998,395.7860416000003,395.78605620000053,395.7873761000001,0,,,,,,,,,,,,,,,,,,,,,,,,,,,,,,,,,,,,,,,,,,,,,,3,2023-11-22_13h11.17.219,watkins1,2023.2.3,99.76385894577969,6,2023-11-22 13h11.25.033368 +0000,
,,,,,,,,,,,21,0,21,0,,,,,,,,,,,,,395.79578240000046,,,,,,,,,,395.787679,396.27794450000056,,,[],[],,,,,,,,,,,,None,None,,,,,,,,,,Tasche,kurz,"['Tasche', 'kurz']",restudy,3,,,,,,395.7876078999998,395.7876494000002,"['Trommel', 'Kerze', 'Löffel', 'Vase', 'Stift', 'Eimer', 'Hammer', 'Hut', 'Geige', 'Flasche', 'Jacke', 'Schere', 'Kamera', 'Bürste', 'Schlüssel', 'Würfel', 'Brille', 'Socke', 'Telefon', 'Tasse', 'Uhr', 'Tasche', 'Fahrrad', 'Blume', 'Kette', 'Lampe', 'Rucksack', 'Kiste', 'Ring', 'Buch']",396.2779559999999,396.28074220000053,None,396.28087270000015,402.2861401,1,1.54617319999943,None,402.28645620000043,402.2889986,None,402.28911120000066,402.2906030000004,402.2906148000002,402.2916482999999,,,,,,,,,,,,,,,,,,,,,,,,,,,,,,,,,,,,,,,,,,,,,,,3,2023-11-22_13h11.17.219,watkins1,2023.2.3,99.76385894577969,6,2023-11-22 13h11.25.033368 +0000,
,,,,,,,,,,,22,0,22,0,,,,,,,,,,,,,402.29560219999985,,,,,,,,,,402.29193380000015,402.7877722000003,,,[],[],,,,,,,,,,,biegsam,None,None,,,,,,,,,,Fahrrad,biegsam,"['Fahrrad', 'biegsam']",test_adj,3,,,,,,402.2918674000002,402.29190689999996,"['Trommel', 'Kerze', 'Löffel', 'Vase', 'Stift', 'Eimer', 'Hammer', 'Hut', 'Geige', 'Flasche', 'Jacke', 'Schere', 'Kamera', 'Bürste', 'Schlüssel', 'Würfel', 'Brille', 'Socke', 'Telefon', 'Tasse', 'Uhr', 'Tasche', 'Fahrrad', 'Blume', 'Kette', 'Lampe', 'Rucksack', 'Kiste', 'Ring', 'Buch']",402.78778260000036,402.7903164999998,None,402.79044310000063,402.79190500000004,None,,,402.79201600000033,402.7934567000002,None,402.79356689999986,408.79537770000024,408.7953918000003,408.7967276999998,0,,,,,,,,,,,,,,,,,,,,,,,,,,,,,,,,,,,,,,,,,,,,,,3,2023-11-22_13h11.17.219,watkins1,2023.2.3,99.76385894577969,6,2023-11-22 13h11.25.033368 +0000,
,,,,,,,,,,,23,0,23,0,,,,,,,,,,,,,408.80528440000035,,,,,,,,,,408.79702559999987,409.2873085000001,,,[],[],,,,,,,,,,,,None,None,,,,,,,,,,Blume,klobig,"['Blume', 'klobig']",test_adj,3,,,,,,408.7969557000006,408.7969966999999,"['Trommel', 'Kerze', 'Löffel', 'Vase', 'Stift', 'Eimer', 'Hammer', 'Hut', 'Geige', 'Flasche', 'Jacke', 'Schere', 'Kamera', 'Bürste', 'Schlüssel', 'Würfel', 'Brille', 'Socke', 'Telefon', 'Tasse', 'Uhr', 'Tasche', 'Fahrrad', 'Blume', 'Kette', 'Lampe', 'Rucksack', 'Kiste', 'Ring', 'Buch']",409.28731920000064,409.2900544000004,None,409.2901800999998,409.2927395000006,None,,,409.29285290000007,409.29553339999984,None,409.29564560000017,415.30058890000055,415.3006028,415.30190910000056,0,,,,,,,,,,,,,,,,,,,,,,,,,,,,,,,,,,,,,,,,,,,,,,3,2023-11-22_13h11.17.219,watkins1,2023.2.3,99.76385894577969,6,2023-11-22 13h11.25.033368 +0000,
,,,,,,,,,,,24,0,24,0,,,,,,,,,,,,,415.31038720000015,,,,,,,,,,415.3022031999999,415.7950034000005,,,[],[],,,,,,,,,,,niedlich,None,None,,,,,,,,,,Kette,niedlich,"['Kette', 'niedlich']",test_adj,3,,,,,,415.3021337,415.3021740000004,"['Trommel', 'Kerze', 'Löffel', 'Vase', 'Stift', 'Eimer', 'Hammer', 'Hut', 'Geige', 'Flasche', 'Jacke', 'Schere', 'Kamera', 'Bürste', 'Schlüssel', 'Würfel', 'Brille', 'Socke', 'Telefon', 'Tasse', 'Uhr', 'Tasche', 'Fahrrad', 'Blume', 'Kette', 'Lampe', 'Rucksack', 'Kiste', 'Ring', 'Buch']",415.79501470000014,415.7977074999999,None,415.7978337000004,415.80036930000006,None,,,415.8004811999999,415.80301860000054,None,415.80313360000036,421.80721540000013,421.8072305000005,421.8085799999999,0,,,,,,,,,,,,,,,,,,,,,,,,,,,,,,,,,,,,,,,,,,,,,,3,2023-11-22_13h11.17.219,watkins1,2023.2.3,99.76385894577969,6,2023-11-22 13h11.25.033368 +0000,
,,,,,,,,,,,25,0,25,0,,,,,,,,,,,,,421.81696079999983,,,,,,,,,,421.8088781000006,422.29899680000017,,,[],[],,,,,,,,,,,glatt,None,None,,,,,,,,,,Lampe,glatt,"['Lampe', 'glatt']",test_adj,3,,,,,,421.8088066,421.8088488000003,"['Trommel', 'Kerze', 'Löffel', 'Vase', 'Stift', 'Eimer', 'Hammer', 'Hut', 'Geige', 'Flasche', 'Jacke', 'Schere', 'Kamera', 'Bürste', 'Schlüssel', 'Würfel', 'Brille', 'Socke', 'Telefon', 'Tasse', 'Uhr', 'Tasche', 'Fahrrad', 'Blume', 'Kette', 'Lampe', 'Rucksack', 'Kiste', 'Ring', 'Buch']",422.2990077000004,422.3017454000001,None,422.3018722000006,422.3044352000006,None,,,422.30454650000047,422.30709900000056,None,422.3072095000007,428.3124636000002,428.3124777000003,428.3137647000003,0,,,,,,,,,,,,,,,,,,,,,,,,,,,,,,,,,,,,,,,,,,,,,,3,2023-11-22_13h11.17.219,watkins1,2023.2.3,99.76385894577969,6,2023-11-22 13h11.25.033368 +0000,
,,,,,,,,,,,26,0,26,0,,,,,,,,,,,,,428.3222598000002,,,,,,,,,,428.3140628000001,428.8041516000003,,,[],[],,,,,,,,,,,kaputt,None,None,,,,,,,,,,Rucksack,kaputt,"['Rucksack', 'kaputt']",test_adj,3,,,,,,428.31398960000024,428.314034,"['Trommel', 'Kerze', 'Löffel', 'Vase', 'Stift', 'Eimer', 'Hammer', 'Hut', 'Geige', 'Flasche', 'Jacke', 'Schere', 'Kamera', 'Bürste', 'Schlüssel', 'Würfel', 'Brille', 'Socke', 'Telefon', 'Tasse', 'Uhr', 'Tasche', 'Fahrrad', 'Blume', 'Kette', 'Lampe', 'Rucksack', 'Kiste', 'Ring', 'Buch']",428.8041628000001,428.80695150000065,None,428.80708050000067,428.80986680000024,None,,,428.8099794999998,428.81258660000003,None,428.8127006000004,434.81886960000065,434.81888359999994,434.8202203999999,0,,,,,,,,,,,,,,,,,,,,,,,,,,,,,,,,,,,,,,,,,,,,,,3,2023-11-22_13h11.17.219,watkins1,2023.2.3,99.76385894577969,6,2023-11-22 13h11.25.033368 +0000,
,,,,,,,,,,,27,0,27,0,,,,,,,,,,,,,434.8285904000004,,,,,,,,,,434.82052040000053,435.3112248000007,,,[],[],,,,,,,,,,,kratzig,None,None,,,,,,,,,,Kiste,kratzig,"['Kiste', 'kratzig']",test_adj,3,,,,,,434.8204470999999,434.82049129999996,"['Trommel', 'Kerze', 'Löffel', 'Vase', 'Stift', 'Eimer', 'Hammer', 'Hut', 'Geige', 'Flasche', 'Jacke', 'Schere', 'Kamera', 'Bürste', 'Schlüssel', 'Würfel', 'Brille', 'Socke', 'Telefon', 'Tasse', 'Uhr', 'Tasche', 'Fahrrad', 'Blume', 'Kette', 'Lampe', 'Rucksack', 'Kiste', 'Ring', 'Buch']",435.31123579999985,435.31394590000036,None,435.3140729000006,435.31660590000047,None,,,435.31671730000016,435.31923240000015,None,435.31934490000003,441.3252260999998,441.3252400000001,441.3267059,0,,,,,,,,,,,,,,,,,,,,,,,,,,,,,,,,,,,,,,,,,,,,,,3,2023-11-22_13h11.17.219,watkins1,2023.2.3,99.76385894577969,6,2023-11-22 13h11.25.033368 +0000,
,,,,,,,,,,,28,0,28,0,,,,,,,,,,,,,441.3350248000006,,,,,,,,,,441.32700269999987,441.81703780000043,,,[],[],,,,,,,,,,,,None,None,,,,,,,,,,Ring,zart,"['Ring', 'zart']",restudy,3,,,,,,441.32692920000045,441.3269737999999,"['Trommel', 'Kerze', 'Löffel', 'Vase', 'Stift', 'Eimer', 'Hammer', 'Hut', 'Geige', 'Flasche', 'Jacke', 'Schere', 'Kamera', 'Bürste', 'Schlüssel', 'Würfel', 'Brille', 'Socke', 'Telefon', 'Tasse', 'Uhr', 'Tasche', 'Fahrrad', 'Blume', 'Kette', 'Lampe', 'Rucksack', 'Kiste', 'Ring', 'Buch']",441.81704830000035,441.81963820000055,None,441.81976380000015,447.8302706000004,3,1.7837239000000409,None,447.83056840000063,447.83312360000036,None,447.83323850000033,447.8345771000004,447.8345887000005,447.8356134000005,,,,,,,,,,,,,,,,,,,,,,,,,,,,,,,,,,,,,,,,,,,,,,,3,2023-11-22_13h11.17.219,watkins1,2023.2.3,99.76385894577969,6,2023-11-22 13h11.25.033368 +0000,
,,,,,,,,,,,29,0,29,0,,,,,,,,,,,,,447.83974000000035,,,,,,,,,,447.83590379999987,448.3317219999999,,,[],[],,,,,,,,,,,verspielt,None,None,,,,,,,,,,Buch,verspielt,"['Buch', 'verspielt']",test_adj,3,,,,,,447.8358368999998,447.8358767,"['Trommel', 'Kerze', 'Löffel', 'Vase', 'Stift', 'Eimer', 'Hammer', 'Hut', 'Geige', 'Flasche', 'Jacke', 'Schere', 'Kamera', 'Bürste', 'Schlüssel', 'Würfel', 'Brille', 'Socke', 'Telefon', 'Tasse', 'Uhr', 'Tasche', 'Fahrrad', 'Blume', 'Kette', 'Lampe', 'Rucksack', 'Kiste', 'Ring', 'Buch']",448.33173290000013,448.3341793999998,None,448.33430320000025,448.3356064999998,None,,,448.33571630000006,448.33702210000047,None,448.3371321000004,454.33864919999996,454.3386629000006,454.3400449999999,0,,,,,,,,,,,,,,,,,,,,,,,,,,,,,,,,,,,,,,,,,,,,,,3,2023-11-22_13h11.17.219,watkins1,2023.2.3,99.76385894577969,6,2023-11-22 13h11.25.033368 +0000,
,,,,,,,,,,,,,,,,,,,,,,,,,,,,,,,,,,,,,,,,,,,,,,,,,,,,,,,,,,,,,,,,,,,,,3,,,,,,,,,,,,,,,,,,,,,,,,,,,,,,,,,,,,,,,,,,,,,,,,,,,,,,,,,,,,,,,,,,,,,,3,2023-11-22_13h11.17.219,watkins1,2023.2.3,99.76385894577969,6,2023-11-22 13h11.25.033368 +0000,
(7 x 6) + 9 = 48 ,Incorrect,button_incorrect,,,,,,,,,,,,,0,0,0,9,,,,,,,,,471.4273936999998,,,,,,,,470.3674694000001,471.3710947999998,,,,,['button_incorrect'],"[3.420316300000195, 3.912637000000359]",,,,,,,,,,,,,,,,,,,,,,,,,,distractorTask,3,,,,,,,,,,,,,,,,,,,,,,,,,471.4152439999998,471.4273936999998,475.3333997999998,"[-0.2712962962962963, -0.2861111111111111]","[-0.37962962962962965, -0.39351851851851855]","[1, 1]","[0, 0]","[0, 0]","[3.420316300000195, 3.912637000000359]",['button_incorrect'],475.3341277999998,476.3367758000004,,,,,,,,,,,,,,,,,,,,,,,,,,,,,,,,,,3,2023-11-22_13h11.17.219,watkins1,2023.2.3,99.76385894577969,6,2023-11-22 13h11.25.033368 +0000,
(2 x 5) + 3 = 13 ,Correct,button_correct,,,,,,,,,,,,,0,1,1,2,,,,,,,,,476.34684560000005,,,,,,,,,,,,,,['button_correct'],[1.9552920999994967],,,,,,,,,,,,,,,,,,,,,,,,,,distractorTask,3,,,,,,,,,,,,,,,,,,,,,,,,,476.33696940000027,476.34684560000005,478.2953109,[0.30648148148148147],[-0.39814814814814814],[1],[0],[0],[1.9552920999994967],['button_correct'],478.29570460000014,479.29911919999995,,,,,,,,,,,,,,,,,,,,,,,,,,,,,,,,,,3,2023-11-22_13h11.17.219,watkins1,2023.2.3,99.76385894577969,6,2023-11-22 13h11.25.033368 +0000,
(6 x 3) + 10 = 27 ,Incorrect,button_incorrect,,,,,,,,,,,,,0,2,2,8,,,,,,,,,479.30910330000006,,,,,,,,,,,,,,['button_incorrect'],[2.3573198000003686],,,,,,,,,,,,,,,,,,,,,,,,,,distractorTask,3,,,,,,,,,,,,,,,,,,,,,,,,,479.29931320000014,479.30910330000006,481.65920559999995,[-0.2777777777777778],[-0.387037037037037],[1],[0],[0],[2.3573198000003686],['button_incorrect'],481.6595963999998,482.66349960000025,,,,,,,,,,,,,,,,,,,,,,,,,,,,,,,,,,3,2023-11-22_13h11.17.219,watkins1,2023.2.3,99.76385894577969,6,2023-11-22 13h11.25.033368 +0000,
(4 : 2) + 4 = 6 ,Correct,button_correct,,,,,,,,,,,,,0,3,3,1,,,,,,,,,482.6734833999999,,,,,,,,,,,,,,['button_correct'],"[2.1269922999999835, 2.569049499999892]",,,,,,,,,,,,,,,,,,,,,,,,,,distractorTask,3,,,,,,,,,,,,,,,,,,,,,,,,,482.6636878999998,482.6734833999999,485.2349638000005,"[0.26481481481481484, 0.28703703703703703]","[-0.4, -0.4009259259259259]","[1, 1]","[0, 0]","[0, 0]","[2.1269922999999835, 2.569049499999892]",['button_correct'],485.2353873000002,486.23925020000024,,,,,,,,,,,,,,,,,,,,,,,,,,,,,,,,,,3,2023-11-22_13h11.17.219,watkins1,2023.2.3,99.76385894577969,6,2023-11-22 13h11.25.033368 +0000,
(40 : 5) + 8 = 15 ,Incorrect,button_incorrect,,,,,,,,,,,,,0,4,4,7,,,,,,,,,486.2492424000002,,,,,,,,,,,,,,['button_incorrect'],[2.5090038999996978],,,,,,,,,,,,,,,,,,,,,,,,,,distractorTask,3,,,,,,,,,,,,,,,,,,,,,,,,,486.2394457999999,486.2492424000002,488.75022140000056,[-0.32314814814814813],[-0.3972222222222222],[1],[0],[0],[2.5090038999996978],['button_incorrect'],488.7506278999999,489.75382179999997,,,,,,,,,,,,,,,,,,,,,,,,,,,,,,,,,,3,2023-11-22_13h11.17.219,watkins1,2023.2.3,99.76385894577969,6,2023-11-22 13h11.25.033368 +0000,
(80 : 10) + 9 = 17 ,Correct,button_correct,,,,,,,,,,,,,0,5,5,3,,,,,,,,,489.7638076000003,,,,,,,,,,,,,,['button_correct'],[2.348809699999947],,,,,,,,,,,,,,,,,,,,,,,,,,distractorTask,3,,,,,,,,,,,,,,,,,,,,,,,,,489.75401109999984,489.7638076000003,492.10467190000054,[0.38425925925925924],[-0.412962962962963],[1],[0],[0],[2.348809699999947],['button_correct'],492.10506440000063,493.1075299000004,,,,,,,,,,,,,,,,,,,,,,,,,,,,,,,,,,3,2023-11-22_13h11.17.219,watkins1,2023.2.3,99.76385894577969,6,2023-11-22 13h11.25.033368 +0000,
(54 : 6) - 10 = 0 ,Incorrect,button_incorrect,,,,,,,,,,,,,0,6,6,5,,,,,,,,,493.1175653,,,,,,,,,,,,,,['button_incorrect'],[3.0505597999999736],,,,,,,,,,,,,,,,,,,,,,,,,,distractorTask,3,,,,,,,,,,,,,,,,,,,,,,,,,493.10772369999995,493.1175653,496.1605610000006,[-0.35],[-0.3962962962962963],[1],[0],[0],[3.0505597999999736],['button_incorrect'],496.1609717000001,497.1643159000005,,,,,,,,,,,,,,,,,,,,,,,,,,,,,,,,,,3,2023-11-22_13h11.17.219,watkins1,2023.2.3,99.76385894577969,6,2023-11-22 13h11.25.033368 +0000,
(28 : 7) - 3 = 1 ,Correct,button_correct,,,,,,,,,,,,,0,7,7,0,,,,,,,,,497.17441190000045,,,,,,,,,,,,,,['button_correct'],[4.115215099999659],,,,,,,,,,,,,,,,,,,,,,,,,,distractorTask,3,,,,,,,,,,,,,,,,,,,,,,,,,497.16451700000016,497.17441190000045,501.2817472000006,[0.32037037037037036],[-0.4],[1],[0],[0],[4.115215099999659],['button_correct'],501.28214600000047,502.2854973000003,,,,,,,,,,,,,,,,,,,,,,,,,,,,,,,,,,3,2023-11-22_13h11.17.219,watkins1,2023.2.3,99.76385894577969,6,2023-11-22 13h11.25.033368 +0000,
(25 : 5) + 5 = 9 ,Incorrect,button_incorrect,,,,,,,,,,,,,0,8,8,6,,,,,,,,,502.2954808000004,,,,,,,,,,,,,,['button_incorrect'],[2.2980671000004804],,,,,,,,,,,,,,,,,,,,,,,,,,distractorTask,3,,,,,,,,,,,,,,,,,,,,,,,,,502.2856916999999,502.2954808000004,504.5854691000004,[-0.2953703703703704],[-0.4046296296296296],[1],[0],[0],[2.2980671000004804],['button_incorrect'],504.58586170000035,505.5891204999998,,,,,,,,,,,,,,,,,,,,,,,,,,,,,,,,,,3,2023-11-22_13h11.17.219,watkins1,2023.2.3,99.76385894577969,6,2023-11-22 13h11.25.033368 +0000,
(9 x 5) - 9 = 36 ,Correct,button_correct,,,,,,,,,,,,,0,9,9,4,,,,,,,,,505.5991085000005,,,,,,,,,,,,,,['button_incorrect'],[2.3180968000006033],,,,,,,,,,,,,,,,,,,,,,,,,,distractorTask,3,,,,,,,,,,,,,,,,,,,,,,,,,505.58931180000036,505.5991085000005,507.90918880000027,[-0.29074074074074074],[-0.39444444444444443],[1],[0],[0],[2.3180968000006033],['button_incorrect'],507.90958560000036,508.9127548000006,,,,,,,,,,,,,,,,,,,,,,,,,,,,,,,,,,3,2023-11-22_13h11.17.219,watkins1,2023.2.3,99.76385894577969,6,2023-11-22 13h11.25.033368 +0000,
,,,,,,,,,,,,,,,,,,,,,,,,,,,,,,,,,,,,,,,,,,,,,,,,,,,,,,,,,,,,,,,,,,,,,3,,,,,,,,,,,,,,,,,,,,,,,,,,,,,,,,,,,,,,,,,,,,,,,,,,,,,,,,,,,,,,,,,,,,,,3,2023-11-22_13h11.17.219,watkins1,2023.2.3,99.76385894577969,6,2023-11-22 13h11.25.033368 +0000,
,,,,,,,,,,,,,,,,,,,0,0,0,0,,,,,520.0267688000004,,,,,,,,,,,,,,Buch,3.548754400000689,,,,,,,,,,,,2.3291250000002037,None,,,,,,,,,,,,,freeRecallSub,3,,,,,,,,,,,,,,,,,,,,,,,,,,,,,,,,,,,,,520.0180796000004,520.0267688000004,520.0267688000004,523.5817932,return,3.548754400000689,None,Buch,[],[],[],[],[],[],[],,,,,,,,,,,,,,,,,,,3,2023-11-22_13h11.17.219,watkins1,2023.2.3,99.76385894577969,6,2023-11-22 13h11.25.033368 +0000,
,,,,,,,,,,,,,,,,,,,1,0,1,0,,,,,523.5941401999999,,,,,,,,,,,,,,Bürste,2.581312600000274,,,,,,,,,,,,0.7055897999998706,None,,,,,,,,,,,,,freeRecallSub,3,,,,,,,,,,,,,,,,,,,,,,,,,,,,,,,,,,,,,523.5835809,523.5941401999999,523.5941401999999,526.1770735,return,2.581312600000274,None,Bürste,[],[],[],[],[],[],[],,,,,,,,,,,,,,,,,,,3,2023-11-22_13h11.17.219,watkins1,2023.2.3,99.76385894577969,6,2023-11-22 13h11.25.033368 +0000,
,,,,,,,,,,,,,,,,,,,2,0,2,0,,,,,526.1880326999999,,,,,,,,,,,,,,Kerze,2.3554635000000417,,,,,,,,,,,,1.0546701999992365,None,,,,,,,,,,,,,freeRecallSub,3,,,,,,,,,,,,,,,,,,,,,,,,,,,,,,,,,,,,,526.1783648999999,526.1880326999999,526.1880326999999,528.5486418999999,return,2.3554635000000417,None,Kerze,[],[],[],[],[],[],[],,,,,,,,,,,,,,,,,,,3,2023-11-22_13h11.17.219,watkins1,2023.2.3,99.76385894577969,6,2023-11-22 13h11.25.033368 +0000,
,,,,,,,,,,,,,,,,,,,3,0,3,0,,,,,528.5591811000004,,,,,,,,,,,,,,Tasche,1.7922657999997682,,,,,,,,,,,,0.3811548000003313,None,,,,,,,,,,,,,freeRecallSub,3,,,,,,,,,,,,,,,,,,,,,,,,,,,,,,,,,,,,,528.5499338999998,528.5591811000004,528.5591811000004,530.3569389000004,return,1.7922657999997682,None,Tasche,[],[],[],[],[],[],[],,,,,,,,,,,,,,,,,,,3,2023-11-22_13h11.17.219,watkins1,2023.2.3,99.76385894577969,6,2023-11-22 13h11.25.033368 +0000,
,,,,,,,,,,,,,,,,,,,4,0,4,0,,,,,530.3679695000001,,,,,,,,,,,,,,Fahrrad,1.9915147000001525,,,,,,,,,,,,0.3316383000001224,None,,,,,,,,,,,,,freeRecallSub,3,,,,,,,,,,,,,,,,,,,,,,,,,,,,,,,,,,,,,530.3582365000002,530.3679695000001,530.3679695000001,532.3667792000006,return,1.9915147000001525,None,Fahrrad,[],[],[],[],[],[],[],,,,,,,,,,,,,,,,,,,3,2023-11-22_13h11.17.219,watkins1,2023.2.3,99.76385894577969,6,2023-11-22 13h11.25.033368 +0000,
,,,,,,,,,,,,,,,,,,,5,0,5,0,,,,,532.3779451999999,,,,,,,,,,,,,,Lampe,1.7016485999993165,,,,,,,,,,,,0.31188879999990604,None,,,,,,,,,,,,,freeRecallSub,3,,,,,,,,,,,,,,,,,,,,,,,,,,,,,,,,,,,,,532.3680797000006,532.3779451999999,532.3779451999999,534.0858011,return,1.7016485999993165,None,Lampe,[],[],[],[],[],[],[],,,,,,,,,,,,,,,,,,,3,2023-11-22_13h11.17.219,watkins1,2023.2.3,99.76385894577969,6,2023-11-22 13h11.25.033368 +0000,
,,,,,,,,,,,,,,,,,,,6,0,6,0,,,,,534.0974456000004,,,,,,,,,,,,,,Katze,6.9099167000003945,,,,,,,,,,,,0.6140971999993781,2.8734098999993876,,,,,,,,,,,,,freeRecallSub,3,,,,,,,,,,,,,,,,,,,,,,,,,,,,,,,,,,,,,534.0871006000007,534.0974456000004,534.0974456000004,541.0175580000005,return,6.9099167000003945,None,Katze,[],[],[],[],[],[],[],,,,,,,,,,,,,,,,,,,3,2023-11-22_13h11.17.219,watkins1,2023.2.3,99.76385894577969,6,2023-11-22 13h11.25.033368 +0000,
,,,,,,,,,,,,,,,,,,,7,0,7,0,,,,,541.0288533000003,,,,,,,,,,,,,,Hund,1.9946311000003334,,,,,,,,,,,,0.34220249999998487,None,,,,,,,,,,,,,freeRecallSub,3,,,,,,,,,,,,,,,,,,,,,,,,,,,,,,,,,,,,,541.0188648000003,541.0288533000003,541.0288533000003,543.0280173000001,return,1.9946311000003334,None,Hund,[],[],[],[],[],[],[],,,,,,,,,,,,,,,,,,,3,2023-11-22_13h11.17.219,watkins1,2023.2.3,99.76385894577969,6,2023-11-22 13h11.25.033368 +0000,
,,,,,,,,,,,,,,,,,,,8,0,8,0,,,,,543.0399458000002,,,,,,,,,,,,,,Kette,3.6554049999995186,,,,,,,,,,,,1.7694421000005605,None,,,,,,,,,,,,,freeRecallSub,3,,,,,,,,,,,,,,,,,,,,,,,,,,,,,,,,,,,,,543.0293056,543.0399458000002,543.0399458000002,546.6967814999998,return,3.6554049999995186,None,Kette,[],[],[],[],[],[],[],,,,,,,,,,,,,,,,,,,3,2023-11-22_13h11.17.219,watkins1,2023.2.3,99.76385894577969,6,2023-11-22 13h11.25.033368 +0000,
,,,,,,,,,,,,,,,,,,,9,0,9,0,,,,,546.7083363000002,,,,,,,,,,,,,,Flasche,3.0750494000003528,,,,,,,,,,,,1.4173576000002868,None,,,,,,,,,,,,,freeRecallSub,3,,,,,,,,,,,,,,,,,,,,,,,,,,,,,,,,,,,,,546.6980785000005,546.7083363000002,546.7083363000002,549.7921614000006,return,3.0750494000003528,None,Flasche,[],[],[],[],[],[],[],,,,,,,,,,,,,,,,,,,3,2023-11-22_13h11.17.219,watkins1,2023.2.3,99.76385894577969,6,2023-11-22 13h11.25.033368 +0000,
,,,,,,,,,,,,,,,,,,,10,0,10,0,,,,,549.8045673000006,,,,,,,,,,,,,,Uhr,10.506788900000174,,,,,,,,,,,,9.301078999999845,None,,,,,,,,,,,,,freeRecallSub,3,,,,,,,,,,,,,,,,,,,,,,,,,,,,,,,,,,,,,549.7934615000004,549.8045673000006,549.8045673000006,560.3196662999999,return,10.506788900000174,None,Uhr,[],[],[],[],[],[],[],,,,,,,,,,,,,,,,,,,3,2023-11-22_13h11.17.219,watkins1,2023.2.3,99.76385894577969,6,2023-11-22 13h11.25.033368 +0000,
,,,,,,,,,,,,,,,,,,,11,0,11,0,,,,,560.3322202999998,,,,,,,,,,,,,,Tasse,62.483067799999844,,,,,,,,,,,,58.656560599999466,None,,,,,,,,,,,,,freeRecallSub,3,,,,,,,,,,,,,,,,,,,,,,,,,,,,,,,,,,,,,560.3209789000002,560.3322202999998,560.3322202999998,622.8233673000004,return,62.483067799999844,None,Tasse,[],[],[],[],[],[],[],,,,,,,,,,,,,,,,,,,3,2023-11-22_13h11.17.219,watkins1,2023.2.3,99.76385894577969,6,2023-11-22 13h11.25.033368 +0000,
,,,,,,,,,,,,,,,,,,,12,0,12,0,,,,,622.8355861999999,,,,,,,,,,,,,,Blume,16.491684699999496,,,,,,,,,,,,14.050289499999963,None,,,,,,,,,,,,,freeRecallSub,3,,,,,,,,,,,,,,,,,,,,,,,,,,,,,,,,,,,,,622.8246982999999,622.8355861999999,622.8355861999999,639.3356012000004,return,16.491684699999496,None,Blume,[],[],[],[],[],[],[],,,,,,,,,,,,,,,,,,,3,2023-11-22_13h11.17.219,watkins1,2023.2.3,99.76385894577969,6,2023-11-22 13h11.25.033368 +0000,
,,,,,,,,,,,,,,,,,,,13,0,13,0,,,,,639.3481557000005,,,,,,,,,,,,,,,[],,,,,,,,,,,,None,None,,,,,,,,,,,,,freeRecallSub,3,,,,,,,,,,,,,,,,,,,,,,,,,,,,,,,,,,,,,639.3369043000002,639.3481557000005,639.3481557000005,683.4428388000006,None,,,,[0.16666666666666666],[-0.3888888888888889],[1],[0],[0],[44.10095790000014],"['button_continue', 'continue_text']",,,,,,,,,,,,,,,,,,,3,2023-11-22_13h11.17.219,watkins1,2023.2.3,99.76385894577969,6,2023-11-22 13h11.25.033368 +0000,
,,,,,,,,,,,,,,,,,,,,,,,,,,,,,,,,,,,,,,,,,,,,,,,,,,,,,,,,,,,,,,,,,,,,,3,,,,,,,,,,,,,,,,,,,,,,,,,,,,,,,,,,,,,,,,,,,,,,,,,,,,,,,,,,,,,,,,,,,,,,3,2023-11-22_13h11.17.219,watkins1,2023.2.3,99.76385894577969,6,2023-11-22 13h11.25.033368 +0000,
,,,,,,,,,,,,,,,,,,,,,,,0,0,0,0,687.9111188000006,,,,,,,,,,692.1623432000006,692.6608400000005,,,,4.240041299999575,,,,,,,,,,,,None,None,,,,,,,,,,Fahrrad,,,cuedRecallAdj,3,,,,,,,,,,,,,,,,,,,,,,,,0,,,,,,,,,,,,,,,,,,,,,,,,,,,,687.9021223,687.9111188000006,687.9111188000006,692.1589475000001,biegsam,return,4.240041299999575,None,692.1593561,692.1686074999998,692.1686074999998,692.1621917000002,,None,,,,,3,2023-11-22_13h11.17.219,watkins1,2023.2.3,99.76385894577969,6,2023-11-22 13h11.25.033368 +0000,
,,,,,,,,,,,,,,,,,,,,,,,1,0,1,0,692.6707792000007,,,,,,,,,,695.2854418000006,695.7843014,,,,2.608434099999613,,,,,,,,,,,,None,None,,,,,,,,,,Brille,,,cuedRecallAdj,3,,,,,,,,,,,,,,,,,,,,,,,,0,,,,,,,,,,,,,,,,,,,,,,,,,,,,692.6610842,692.6707792000007,692.6707792000007,695.2825186,dick,return,2.608434099999613,None,695.2827935000005,695.2921090999998,695.2921090999998,695.2853370000003,,None,,,,,3,2023-11-22_13h11.17.219,watkins1,2023.2.3,99.76385894577969,6,2023-11-22 13h11.25.033368 +0000,
,,,,,,,,,,,,,,,,,,,,,,,2,0,2,0,695.7942460000004,,,,,,,,,,698.1473102,698.645998,,,,2.3409291000007215,,,,,,,,,,,,None,None,,,,,,,,,,Eimer,,,cuedRecallAdj,3,,,,,,,,,,,,,,,,,,,,,,,,0,,,,,,,,,,,,,,,,,,,,,,,,,,,,695.7845502,695.7942460000004,695.7942460000004,698.1442132000002,robust,return,2.3409291000007215,None,698.1444937000006,698.153875,698.153875,698.1471978,,None,,,,,3,2023-11-22_13h11.17.219,watkins1,2023.2.3,99.76385894577969,6,2023-11-22 13h11.25.033368 +0000,
,,,,,,,,,,,,,,,,,,,,,,,3,0,3,0,698.655941,,,,,,,,,,700.9787016999999,701.4775287000002,,,,2.3111955000003945,,,,,,,,,,,,None,None,,,,,,,,,,Rucksack,,,cuedRecallAdj,3,,,,,,,,,,,,,,,,,,,,,,,,0,,,,,,,,,,,,,,,,,,,,,,,,,,,,698.6462470000006,698.655941,698.655941,700.9756360000001,kaputt,return,2.3111955000003945,None,700.9759132999998,700.9854081000003,700.9854081000003,700.9785966999998,,None,,,,,3,2023-11-22_13h11.17.219,watkins1,2023.2.3,99.76385894577969,6,2023-11-22 13h11.25.033368 +0000,
,,,,,,,,,,,,,,,,,,,,,,,4,0,4,0,701.4874674000002,,,,,,,,,,704.4028692000002,704.9015948000006,,,,2.9036925000000338,,,,,,,,,,,,None,None,,,,,,,,,,Trommel,,,cuedRecallAdj,3,,,,,,,,,,,,,,,,,,,,,,,,0,,,,,,,,,,,,,,,,,,,,,,,,,,,,701.4777758999999,701.4874674000002,701.4874674000002,704.3997407000006,flauschig,return,2.9036925000000338,None,704.4000136000004,704.4094598000001,704.4094598000001,704.4027649999998,,None,,,,,3,2023-11-22_13h11.17.219,watkins1,2023.2.3,99.76385894577969,6,2023-11-22 13h11.25.033368 +0000,
,,,,,,,,,,,,,,,,,,,,,,,5,0,5,0,704.9115485000002,,,,,,,,,,706.8329245000004,707.3314755000001,,,,1.9116399000004094,,,,,,,,,,,,None,None,,,,,,,,,,Telefon,,,cuedRecallAdj,3,,,,,,,,,,,,,,,,,,,,,,,,0,,,,,,,,,,,,,,,,,,,,,,,,,,,,704.9018424000005,704.9115485000002,704.9115485000002,706.8300238000002,lang,return,1.9116399000004094,None,706.8302994000005,706.8394629000004,706.8394629000004,706.8328201000004,,None,,,,,3,2023-11-22_13h11.17.219,watkins1,2023.2.3,99.76385894577969,6,2023-11-22 13h11.25.033368 +0000,
,,,,,,,,,,,,,,,,,,,,,,,6,0,6,0,707.3415307000005,,,,,,,,,,709.8350829999999,710.3337152000004,,,,2.4895501999999397,,,,,,,,,,,,None,None,,,,,,,,,,Schere,,,cuedRecallAdj,3,,,,,,,,,,,,,,,,,,,,,,,,0,,,,,,,,,,,,,,,,,,,,,,,,,,,,707.3317227000007,707.3415307000005,707.3415307000005,709.8321903000005,kalt,return,2.4895501999999397,None,709.8324632000003,709.8417441000001,709.8417441000001,709.8349790000002,,None,,,,,3,2023-11-22_13h11.17.219,watkins1,2023.2.3,99.76385894577969,6,2023-11-22 13h11.25.033368 +0000,
,,,,,,,,,,,,,,,,,,,,,,,7,0,7,0,710.3437038000002,,,,,,,,,,713.4198544000001,713.9185673000002,,,,3.071423600000344,,,,,,,,,,,,None,None,,,,,,,,,,Socke,,,cuedRecallAdj,3,,,,,,,,,,,,,,,,,,,,,,,,0,,,,,,,,,,,,,,,,,,,,,,,,,,,,710.3339645000005,710.3437038000002,710.3437038000002,713.4167854000007,sportlich,return,3.071423600000344,None,713.4170595000005,713.4266138000003,713.4266138000003,713.4197491000004,,None,,,,,3,2023-11-22_13h11.17.219,watkins1,2023.2.3,99.76385894577969,6,2023-11-22 13h11.25.033368 +0000,
,,,,,,,,,,,,,,,,,,,,,,,8,0,8,0,713.9284658000006,,,,,,,,,,719.5442902000004,720.0336520999999,,,,5.606636399999843,,,,,,,,,,,,None,None,,,,,,,,,,Blume,,,cuedRecallAdj,3,,,,,,,,,,,,,,,,,,,,,,,,0,,,,,,,,,,,,,,,,,,,,,,,,,,,,713.9188100000001,713.9284658000006,713.9284658000006,719.5420150999998,,return,5.606636399999843,None,719.5422894000003,719.5516615000006,719.5516615000006,719.5441853000002,,None,,,,,3,2023-11-22_13h11.17.219,watkins1,2023.2.3,99.76385894577969,6,2023-11-22 13h11.25.033368 +0000,
,,,,,,,,,,,,,,,,,,,,,,,9,0,9,0,720.0436181000005,,,,,,,,,,722.3064712000005,722.8050895000006,,,,2.2515182999995886,,,,,,,,,,,,None,None,,,,,,,,,,Kamera,,,cuedRecallAdj,3,,,,,,,,,,,,,,,,,,,,,,,,0,,,,,,,,,,,,,,,,,,,,,,,,,,,,720.0338965000001,720.0436181000005,720.0436181000005,722.3032739,dunkel,return,2.2515182999995886,None,722.3035479,722.3130078000004,722.3130078000004,722.3063579999998,,None,,,,,3,2023-11-22_13h11.17.219,watkins1,2023.2.3,99.76385894577969,6,2023-11-22 13h11.25.033368 +0000,
,,,,,,,,,,,,,,,,,,,,,,,10,0,10,0,722.8149922000002,,,,,,,,,,726.0919171000005,726.5907143000004,,,,3.264046000000235,,,,,,,,,,,,None,None,,,,,,,,,,Buch,,,cuedRecallAdj,3,,,,,,,,,,,,,,,,,,,,,,,,0,,,,,,,,,,,,,,,,,,,,,,,,,,,,722.8053362,722.8149922000002,722.8149922000002,726.0887755000003,verspielt,return,3.264046000000235,None,726.0890451000005,726.0984515,726.0984515,726.0918126000006,,None,,,,,3,2023-11-22_13h11.17.219,watkins1,2023.2.3,99.76385894577969,6,2023-11-22 13h11.25.033368 +0000,
,,,,,,,,,,,,,,,,,,,,,,,11,0,11,0,726.6006652000005,,,,,,,,,,728.0598694999999,728.5586821000006,,,,1.446415800000068,,,,,,,,,,,,None,None,,,,,,,,,,Stift,,,cuedRecallAdj,3,,,,,,,,,,,,,,,,,,,,,,,,0,,,,,,,,,,,,,,,,,,,,,,,,,,,,726.5909743000002,726.6006652000005,726.6006652000005,728.0570062000006,neu,return,1.446415800000068,None,728.0572824000001,728.0667241000001,728.0667241000001,728.0597648000003,,None,,,,,3,2023-11-22_13h11.17.219,watkins1,2023.2.3,99.76385894577969,6,2023-11-22 13h11.25.033368 +0000,
,,,,,,,,,,,,,,,,,,,,,,,12,0,12,0,728.5687389000004,,,,,,,,,,731.1730410999999,731.6716087000004,,,,2.5983229999992545,,,,,,,,,,,,None,None,,,,,,,,,,Flasche,,,cuedRecallAdj,3,,,,,,,,,,,,,,,,,,,,,,,,0,,,,,,,,,,,,,,,,,,,,,,,,,,,,728.5589341000004,728.5687389000004,728.5687389000004,731.1700107000006,krumm,return,2.5983229999992545,None,731.1702862000002,731.1795671,731.1795671,731.1729349000007,,None,,,,,3,2023-11-22_13h11.17.219,watkins1,2023.2.3,99.76385894577969,6,2023-11-22 13h11.25.033368 +0000,
,,,,,,,,,,,,,,,,,,,,,,,13,0,13,0,731.6815138000002,,,,,,,,,,733.5123555999999,734.0112464000003,,,,1.8215650000001915,,,,,,,,,,,,None,None,,,,,,,,,,Hut,,,cuedRecallAdj,3,,,,,,,,,,,,,,,,,,,,,,,,0,,,,,,,,,,,,,,,,,,,,,,,,,,,,731.6718550000005,731.6815138000002,731.6815138000002,733.5095197,breit,return,1.8215650000001915,None,733.5097937,733.5190927000003,733.5190927000003,733.5122523999999,,None,,,,,3,2023-11-22_13h11.17.219,watkins1,2023.2.3,99.76385894577969,6,2023-11-22 13h11.25.033368 +0000,
,,,,,,,,,,,,,,,,,,,,,,,14,0,14,0,734.0211966000006,,,,,,,,,,737.0473730000003,737.5458308000007,,,,3.0178556000000754,,,,,,,,,,,,None,None,,,,,,,,,,Kette,,,cuedRecallAdj,3,,,,,,,,,,,,,,,,,,,,,,,,0,,,,,,,,,,,,,,,,,,,,,,,,,,,,734.0114938000006,734.0211966000006,734.0211966000006,737.0441747000004,niedlich,return,3.0178556000000754,None,737.0444474000005,737.0537279,737.0537279,737.0472668000002,,None,,,,,3,2023-11-22_13h11.17.219,watkins1,2023.2.3,99.76385894577969,6,2023-11-22 13h11.25.033368 +0000,
,,,,,,,,,,,,,,,,,,,,,,,15,0,15,0,737.5557742999999,,,,,,,,,,739.2260636999999,739.7247038000005,,,,1.6593265999999858,,,,,,,,,,,,None,None,,,,,,,,,,Geige,,,cuedRecallAdj,3,,,,,,,,,,,,,,,,,,,,,,,,0,,,,,,,,,,,,,,,,,,,,,,,,,,,,737.5460778000006,737.5557742999999,737.5557742999999,739.2229641000004,bunt,return,1.6593265999999858,None,739.2232350000004,739.2326727,739.2326727,739.2259598,,None,,,,,3,2023-11-22_13h11.17.219,watkins1,2023.2.3,99.76385894577969,6,2023-11-22 13h11.25.033368 +0000,
,,,,,,,,,,,,,,,,,,,,,,,16,0,16,0,739.7347575000003,,,,,,,,,,742.7505335000005,743.2492452000006,,,,3.008226600000853,,,,,,,,,,,,None,None,,,,,,,,,,Ring,,,cuedRecallAdj,3,,,,,,,,,,,,,,,,,,,,,,,,0,,,,,,,,,,,,,,,,,,,,,,,,,,,,739.7249511999999,739.7347575000003,739.7347575000003,742.7476192000004,zart,return,3.008226600000853,None,742.7478928,742.7571696000005,742.7571696000005,742.7504296000006,,None,,,,,3,2023-11-22_13h11.17.219,watkins1,2023.2.3,99.76385894577969,6,2023-11-22 13h11.25.033368 +0000,
,,,,,,,,,,,,,,,,,,,,,,,17,0,17,0,743.2591552000004,,,,,,,,,,746.0337033000005,746.5327499000005,,,,2.763990900000863,,,,,,,,,,,,None,None,,,,,,,,,,Bürste,,,cuedRecallAdj,3,,,,,,,,,,,,,,,,,,,,,,,,0,,,,,,,,,,,,,,,,,,,,,,,,,,,,743.2494999999999,743.2591552000004,743.2591552000004,746.0308509000006,gut,return,2.763990900000863,None,746.0311220000003,746.0406708999999,746.0406708999999,746.0335976000006,,None,,,,,3,2023-11-22_13h11.17.219,watkins1,2023.2.3,99.76385894577969,6,2023-11-22 13h11.25.033368 +0000,
,,,,,,,,,,,,,,,,,,,,,,,18,0,18,0,746.5427034000004,,,,,,,,,,754.9611510000004,755.4596908000003,,,,8.40836229999968,,,,,,,,,,,,None,None,,,,,,,,,,Kiste,,,cuedRecallAdj,3,,,,,,,,,,,,,,,,,,,,,,,,0,,,,,,,,,,,,,,,,,,,,,,,,,,,,746.5329972,746.5427034000004,746.5427034000004,754.9579850999999,kratzig,return,8.40836229999968,None,754.9582543000006,754.9675027000003,754.9675027000003,754.9610487999998,,None,,,,,3,2023-11-22_13h11.17.219,watkins1,2023.2.3,99.76385894577969,6,2023-11-22 13h11.25.033368 +0000,
,,,,,,,,,,,,,,,,,,,,,,,19,0,19,0,755.4696414999999,,,,,,,,,,758.7062907,759.2049791,,,,3.225362099999984,,,,,,,,,,,,None,None,,,,,,,,,,Löffel,,,cuedRecallAdj,3,,,,,,,,,,,,,,,,,,,,,,,,0,,,,,,,,,,,,,,,,,,,,,,,,,,,,755.4599466999998,755.4696414999999,755.4696414999999,758.7031946000006,strahlend,return,3.225362099999984,None,758.7034671000001,758.7129224,758.7129224,758.7061858000006,,None,,,,,3,2023-11-22_13h11.17.219,watkins1,2023.2.3,99.76385894577969,6,2023-11-22 13h11.25.033368 +0000,
,,,,,,,,,,,,,,,,,,,,,,,20,0,20,0,759.2149200000003,,,,,,,,,,768.4661259000004,768.9650763999998,,,,9.240093999999772,,,,,,,,,,,,None,None,,,,,,,,,,Vase,,,cuedRecallAdj,3,,,,,,,,,,,,,,,,,,,,,,,,0,,,,,,,,,,,,,,,,,,,,,,,,,,,,759.2052278000001,759.2149200000003,759.2149200000003,768.4632061000002,rustikal,return,9.240093999999772,None,768.4634756000005,768.4728788000002,768.4728788000002,768.4660210000002,,None,,,,,3,2023-11-22_13h11.17.219,watkins1,2023.2.3,99.76385894577969,6,2023-11-22 13h11.25.033368 +0000,
,,,,,,,,,,,,,,,,,,,,,,,21,0,21,0,768.9750270000004,,,,,,,,,,772.9148178000005,773.4133009000006,,,,3.9279759000000922,,,,,,,,,,,,None,None,,,,,,,,,,Jacke,,,cuedRecallAdj,3,,,,,,,,,,,,,,,,,,,,,,,,0,,,,,,,,,,,,,,,,,,,,,,,,,,,,768.9653271000006,768.9750270000004,768.9750270000004,772.9114864000003,durchsichtig,return,3.9279759000000922,None,772.9117578000005,772.9212035999999,772.9212035999999,772.9147121000005,,None,,,,,3,2023-11-22_13h11.17.219,watkins1,2023.2.3,99.76385894577969,6,2023-11-22 13h11.25.033368 +0000,
,,,,,,,,,,,,,,,,,,,,,,,22,0,22,0,773.4233513999998,,,,,,,,,,776.1779138000002,776.6766510000007,,,,2.743609799999831,,,,,,,,,,,,None,None,,,,,,,,,,Uhr,,,cuedRecallAdj,3,,,,,,,,,,,,,,,,,,,,,,,,0,,,,,,,,,,,,,,,,,,,,,,,,,,,,773.4135529000005,773.4233513999998,773.4233513999998,776.1748330999999,hübsch,return,2.743609799999831,None,776.1751039999999,776.1845436000003,776.1845436000003,776.1778076999999,,None,,,,,3,2023-11-22_13h11.17.219,watkins1,2023.2.3,99.76385894577969,6,2023-11-22 13h11.25.033368 +0000,
,,,,,,,,,,,,,,,,,,,,,,,23,0,23,0,776.6866022000004,,,,,,,,,,780.2752019,780.7735160000002,,,,3.5844575999999506,,,,,,,,,,,,None,None,,,,,,,,,,Schlüssel,,,cuedRecallAdj,3,,,,,,,,,,,,,,,,,,,,,,,,0,,,,,,,,,,,,,,,,,,,,,,,,,,,,776.6768952000002,776.6866022000004,776.6866022000004,780.2718539000007,schmutzig,return,3.5844575999999506,None,780.2721265999999,780.2813663000006,780.2813663000006,780.2750966000003,,None,,,,,3,2023-11-22_13h11.17.219,watkins1,2023.2.3,99.76385894577969,6,2023-11-22 13h11.25.033368 +0000,
,,,,,,,,,,,,,,,,,,,,,,,24,0,24,0,780.7834515000004,,,,,,,,,,783.0663832,783.5652418,,,,2.27151799999956,,,,,,,,,,,,None,None,,,,,,,,,,Lampe,,,cuedRecallAdj,3,,,,,,,,,,,,,,,,,,,,,,,,0,,,,,,,,,,,,,,,,,,,,,,,,,,,,780.7737659000004,780.7834515000004,780.7834515000004,783.0634052000005,glatt,return,2.27151799999956,None,783.0636781000003,783.0730847000004,783.0730847000004,783.0662792000003,,None,,,,,3,2023-11-22_13h11.17.219,watkins1,2023.2.3,99.76385894577969,6,2023-11-22 13h11.25.033368 +0000,
,,,,,,,,,,,,,,,,,,,,,,,25,0,25,0,783.5752965000001,,,,,,,,,,787.2337309000004,787.7324198000006,,,,3.647714700000506,,,,,,,,,,,,None,None,,,,,,,,,,Kerze,,,cuedRecallAdj,3,,,,,,,,,,,,,,,,,,,,,,,,0,,,,,,,,,,,,,,,,,,,,,,,,,,,,783.5654934000004,783.5752965000001,783.5752965000001,787.2307010000004,elegant,return,3.647714700000506,None,787.2309739000002,787.2404176,787.2404176,787.2336235000002,,None,,,,,3,2023-11-22_13h11.17.219,watkins1,2023.2.3,99.76385894577969,6,2023-11-22 13h11.25.033368 +0000,
,,,,,,,,,,,,,,,,,,,,,,,26,0,26,0,787.7424814000005,,,,,,,,,,790.2060551000004,790.7046516,,,,2.456488800000443,,,,,,,,,,,,None,None,,,,,,,,,,Tasche,,,cuedRecallAdj,3,,,,,,,,,,,,,,,,,,,,,,,,0,,,,,,,,,,,,,,,,,,,,,,,,,,,,787.7326639000003,787.7424814000005,787.7424814000005,790.2029536999999,kurz,return,2.456488800000443,None,790.2032264,790.2124561999999,790.2124561999999,790.2059500000005,,None,,,,,3,2023-11-22_13h11.17.219,watkins1,2023.2.3,99.76385894577969,6,2023-11-22 13h11.25.033368 +0000,
,,,,,,,,,,,,,,,,,,,,,,,27,0,27,0,790.7145957000002,,,,,,,,,,794.2825104000003,794.7813136000004,,,,3.5563786000002438,,,,,,,,,,,,None,None,,,,,,,,,,Hammer,,,cuedRecallAdj,3,,,,,,,,,,,,,,,,,,,,,,,,0,,,,,,,,,,,,,,,,,,,,,,,,,,,,790.7048996000003,790.7145957000002,790.7145957000002,794.2794903000004,flach,return,3.5563786000002438,None,794.2797617000006,794.2892013000001,794.2892013000001,794.2824067000001,,None,,,,,3,2023-11-22_13h11.17.219,watkins1,2023.2.3,99.76385894577969,6,2023-11-22 13h11.25.033368 +0000,
,,,,,,,,,,,,,,,,,,,,,,,28,0,28,0,794.7912592000002,,,,,,,,,,797.6964529000006,798.1951984000007,,,,2.8957060000002457,,,,,,,,,,,,None,None,,,,,,,,,,Tasse,,,cuedRecallAdj,3,,,,,,,,,,,,,,,,,,,,,,,,0,,,,,,,,,,,,,,,,,,,,,,,,,,,,794.7815635000006,794.7912592000002,794.7912592000002,797.6935809000006,groß,return,2.8957060000002457,None,797.6938528000001,797.7030951000006,797.7030951000006,797.6963492000004,,None,,,,,3,2023-11-22_13h11.17.219,watkins1,2023.2.3,99.76385894577969,6,2023-11-22 13h11.25.033368 +0000,
,,,,,,,,,,,,,,,,,,,,,,,29,0,29,0,798.2051142999999,,,,,,,,,,802.3963503000004,802.8945640000002,,,,4.185914899999261,,,,,,,,,,,,None,None,,,,,,,,,,Würfel,,,cuedRecallAdj,3,,,,,,,,,,,,,,,,,,,,,,,,0,,,,,,,,,,,,,,,,,,,,,,,,,,,,798.1954547000005,798.2051142999999,798.2051142999999,802.3930245000001,praktisch,return,4.185914899999261,None,802.3933016000001,802.4025440000005,802.4025440000005,802.3962435000003,,None,,,,,3,2023-11-22_13h11.17.219,watkins1,2023.2.3,99.76385894577969,6,2023-11-22 13h11.25.033368 +0000,
,,,,,,,,,,,,,,,,,,,,,,,,,,,,,,,,,,,,,,,,,,,,,,,,,,,,,,,,,,,,,,,,,,,,,3,,,,,,,,,,,,,,,,,,,,,,,,,,,,,,,,,,,,,,,,,,,,,,,,,,,,,,,,,,,,,,,,,,802.9113158,q,1227.1332318000004,None,3,2023-11-22_13h11.17.219,watkins1,2023.2.3,99.76385894577969,6,2023-11-22 13h11.25.033368 +0000,
