Equation,CorrectResponse,Correctbutton,trials_7.thisRepN,trials_7.thisTrialN,trials_7.thisN,trials_7.thisIndex,trials.thisRepN,trials.thisTrialN,trials.thisN,trials.thisIndex,trials_3.thisRepN,trials_3.thisTrialN,trials_3.thisN,trials_3.thisIndex,trials_2.thisRepN,trials_2.thisTrialN,trials_2.thisN,trials_2.thisIndex,trials_4.thisRepN,trials_4.thisTrialN,trials_4.thisN,trials_4.thisIndex,trials_5.thisRepN,trials_5.thisTrialN,trials_5.thisN,trials_5.thisIndex,thisRow.t,notes,code_marius.started,code_marius.stopped,welcome.started,welcome.stopped,instruction_study.started,instruction_study.stopped,fixationcross.started,fixationcross.stopped,blanc.started,blanc.stopped,study_control_probe.started,study_control_probe.stopped,responseKey,responseTime,scale_answer_2.keys,study_control_probe_2.started,study_control_probe_2.stopped,scale_answer_3.keys,scale_answer_3.rt,scale_answer_3.duration,blanc_2.started,blanc_2.stopped,test_attr_probe.started,test_attr_probe.stopped,recalled_attr,firstKeyTime,secondWordTime,blanc_3.started,blanc_3.stopped,test_sub_probe.started,test_sub_probe.stopped,recalled_sub,instruction_probe_end.started,instruction_probe_end.stopped,study.started,study.stopped,substantive,adjective,wordpair,task,condition,liste_sub_phase1,liste_adj_phase1,scale_answer.keys,scale_answer.rt,scale_answer.duration,code_defineWordsInit.started,code_defineWordsInit.stopped,liste_sub_phase2,study_control.started,study_control.stopped,scale_answer_4.keys,scale_answer_4.rt,scale_answer_4.duration,restudy_same.started,restudy_same.stopped,scale_answer_5.keys,restudy_different.started,restudy_different.stopped,scale_answer_6.keys,test_attr.started,test_attr.stopped,test_sub.started,test_sub.stopped,scale_answer_6.rt,scale_answer_6.duration,distractortask.started,equation_text.started,distractortask.stopped,mouse_answer.x,mouse_answer.y,mouse_answer.leftButton,mouse_answer.midButton,mouse_answer.rightButton,mouse_answer.time,mouse_answer.clicked_name,feedback_distractortask.started,feedback_distractortask.stopped,free_recall.started,text_enter.started,key_resp.started,free_recall.stopped,key_resp.keys,key_resp.rt,key_resp.duration,free_recalled_sub,mouse_continue.x,mouse_continue.y,mouse_continue.leftButton,mouse_continue.midButton,mouse_continue.rightButton,mouse_continue.time,mouse_continue.clicked_name,cued_recall.started,text_enter_2.started,correct,key_continue.started,cued_recall.stopped,recalled_attr1,key_continue.keys,key_continue.rt,key_continue.duration,cued_recall_2.started,text_enter_3.started,key_continue_2.started,cued_recall_2.stopped,recalled_attr2,key_continue_2.keys,key_continue_2.rt,key_continue_2.duration,key_resp_8.started,key_resp_8.keys,key_resp_8.rt,key_resp_8.duration,condition,date,expName,psychopyVersion,frameRate,participant,expStart,
,,,,,,,,,,,,,,,,,,,,,,,,,,,,,0.10241200006566942,0.10248079989105463,0.10248910007067025,17.879523299867287,,,,,,,,,,,,,,,,,,,,,,,,,,,,,,,,,,,,,1,,,,,,,,,,,,,,,,,,,,,,,,,,,,,,,,,,,,,,,,,,,,,,,,,,,,,,,,,,,,,,,,,,,,,,,,,,1,2023-11-27_10h29.34.138,watkins1,2023.2.3,99.73072698371853,15,2023-11-27 10h29.41.664525 +0000,
,,,,,,,,,,,,,,,,,,,,,,,,,,,,,,,,,17.879571999888867,65.36557849985547,,,,,,,,,,,,,,,,,,,,,,,,,,,,,,,,,,,1,,,,,,,,,,,,,,,,,,,,,,,,,,,,,,,,,,,,,,,,,,,,,,,,,,,,,,,,,,,,,,,,,,,,,,,,,,1,2023-11-27_10h29.34.138,watkins1,2023.2.3,99.73072698371853,15,2023-11-27 10h29.41.664525 +0000,
,,,0,0,0,0,,,,,,,,,,,,,,,,,,,,,66.37904919986613,,,,,,,,65.36559539986774,66.3691026000306,72.8695427000057,73.3609883999452,66.86119950003922,72.86937669990584,3,2.549092099769041,None,73.36099909991026,79.37166150007397,3,2.549092099769041,None,79.37195999990217,79.37198449997231,79.37199159990996,79.37207519984804,,None,None,79.37224319996312,79.37226350000128,79.3722703999374,79.37234460003674,,,,,,,,,,1,,,,,,,,,,,,,,,,,,,,,,,,,,,,,,,,,,,,,,,,,,,,,,,,,,,,,,,,,,,,,,,,,,,,,,,,,,1,2023-11-27_10h29.34.138,watkins1,2023.2.3,99.73072698371853,15,2023-11-27 10h29.41.664525 +0000,
,,,,,,,,,,,,,,,,,,,,,,,,,,,,,,,,,,,,,,,,,,,,,,,,,,,,,,,,,,,,,79.37245899997652,83.97663649986498,,,,,,,1,,,,,,,,,,,,,,,,,,,,,,,,,,,,,,,,,,,,,,,,,,,,,,,,,,,,,,,,,,,,,,,,,,,,,,,,,,1,2023-11-27_10h29.34.138,watkins1,2023.2.3,99.73072698371853,15,2023-11-27 10h29.41.664525 +0000,
,,,,,,,0,0,0,0,,,,,,,,,,,,,,,,,84.9902230000589,,,,,,,,83.97665269998834,84.98027609987184,84.98073409986682,85.47236060001887,,,2,1.6549492999911308,,,,,,,,,,,,,,,,,,,,,85.47237039986067,91.47417859989218,Hut,elegant,"['Hut', 'elegant']",restudy_diff,1,"['Hut', 'Blume', 'Fahrrad', 'Eimer', 'Kiste', 'Tasse', 'Trommel', 'Jacke', 'Stift', 'Uhr', 'Telefon', 'Kette', 'Vase', 'Flasche', 'Löffel', 'Geige', 'Brille', 'Tasche', 'Rucksack', 'Socke', 'Hammer', 'Kerze']",['elegant'],2,1.6549492999911308,None,,,,,,,,,,,,,,,,,,,,,,,,,,,,,,,,,,,,,,,,,,,,,,,,,,,,,,,,,,,,,,,,,,,,,1,2023-11-27_10h29.34.138,watkins1,2023.2.3,99.73072698371853,15,2023-11-27 10h29.41.664525 +0000,
,,,,,,,1,0,1,0,,,,,,,,,,,,,,,,,91.48376269987784,,,,,,,,,,91.47478919988498,91.96574579994194,,,1,1.8678246000781655,,,,,,,,,,,,,,,,,,,,,91.96575609990396,97.97065759985708,Blume,praktisch,"['Blume', 'praktisch']",restudy_diff,1,"['Hut', 'Blume', 'Fahrrad', 'Eimer', 'Kiste', 'Tasse', 'Trommel', 'Jacke', 'Stift', 'Uhr', 'Telefon', 'Kette', 'Vase', 'Flasche', 'Löffel', 'Geige', 'Brille', 'Tasche', 'Rucksack', 'Socke', 'Hammer', 'Kerze']","['elegant', 'praktisch']",1,1.8678246000781655,None,,,,,,,,,,,,,,,,,,,,,,,,,,,,,,,,,,,,,,,,,,,,,,,,,,,,,,,,,,,,,,,,,,,,,1,2023-11-27_10h29.34.138,watkins1,2023.2.3,99.73072698371853,15,2023-11-27 10h29.41.664525 +0000,
,,,,,,,2,0,2,0,,,,,,,,,,,,,,,,,97.98011959996074,,,,,,,,,,97.97113869991153,98.46213090000674,,,3,1.7167067998088896,,,,,,,,,,,,,,,,,,,,,98.46214179997332,104.46917230007239,Fahrrad,kratzig,"['Fahrrad', 'kratzig']",control,1,"['Hut', 'Blume', 'Fahrrad', 'Eimer', 'Kiste', 'Tasse', 'Trommel', 'Jacke', 'Stift', 'Uhr', 'Telefon', 'Kette', 'Vase', 'Flasche', 'Löffel', 'Geige', 'Brille', 'Tasche', 'Rucksack', 'Socke', 'Hammer', 'Kerze']","['elegant', 'praktisch', 'kratzig']",3,1.7167067998088896,None,,,,,,,,,,,,,,,,,,,,,,,,,,,,,,,,,,,,,,,,,,,,,,,,,,,,,,,,,,,,,,,,,,,,,1,2023-11-27_10h29.34.138,watkins1,2023.2.3,99.73072698371853,15,2023-11-27 10h29.41.664525 +0000,
,,,,,,,3,0,3,0,,,,,,,,,,,,,,,,,104.47874729987234,,,,,,,,,,104.46966409985907,104.96071429993026,,,2,1.9308007000945508,,,,,,,,,,,,,,,,,,,,,104.96072450000793,110.96734129986726,Eimer,breit,"['Eimer', 'breit']",control,1,"['Hut', 'Blume', 'Fahrrad', 'Eimer', 'Kiste', 'Tasse', 'Trommel', 'Jacke', 'Stift', 'Uhr', 'Telefon', 'Kette', 'Vase', 'Flasche', 'Löffel', 'Geige', 'Brille', 'Tasche', 'Rucksack', 'Socke', 'Hammer', 'Kerze']","['elegant', 'praktisch', 'kratzig', 'breit']",2,1.9308007000945508,None,,,,,,,,,,,,,,,,,,,,,,,,,,,,,,,,,,,,,,,,,,,,,,,,,,,,,,,,,,,,,,,,,,,,,1,2023-11-27_10h29.34.138,watkins1,2023.2.3,99.73072698371853,15,2023-11-27 10h29.41.664525 +0000,
,,,,,,,4,0,4,0,,,,,,,,,,,,,,,,,110.97687419992872,,,,,,,,,,110.96781839989126,111.45897599984892,,,1,1.7608365998603404,,,,,,,,,,,,,,,,,,,,,111.45898579992354,117.45998949999921,Kiste,durchsichtig,"['Kiste', 'durchsichtig']",restudy_diff,1,"['Hut', 'Blume', 'Fahrrad', 'Eimer', 'Kiste', 'Tasse', 'Trommel', 'Jacke', 'Stift', 'Uhr', 'Telefon', 'Kette', 'Vase', 'Flasche', 'Löffel', 'Geige', 'Brille', 'Tasche', 'Rucksack', 'Socke', 'Hammer', 'Kerze']","['elegant', 'praktisch', 'kratzig', 'breit', 'durchsichtig']",1,1.7608365998603404,None,,,,,,,,,,,,,,,,,,,,,,,,,,,,,,,,,,,,,,,,,,,,,,,,,,,,,,,,,,,,,,,,,,,,,1,2023-11-27_10h29.34.138,watkins1,2023.2.3,99.73072698371853,15,2023-11-27 10h29.41.664525 +0000,
,,,,,,,5,0,5,0,,,,,,,,,,,,,,,,,117.46955949999392,,,,,,,,,,117.46046760003082,117.95153009984642,,,1,2.348447300028056,,,,,,,,,,,,,,,,,,,,,117.95154000003822,123.95397230004892,Tasse,dunkel,"['Tasse', 'dunkel']",restudy_diff,1,"['Hut', 'Blume', 'Fahrrad', 'Eimer', 'Kiste', 'Tasse', 'Trommel', 'Jacke', 'Stift', 'Uhr', 'Telefon', 'Kette', 'Vase', 'Flasche', 'Löffel', 'Geige', 'Brille', 'Tasche', 'Rucksack', 'Socke', 'Hammer', 'Kerze']","['elegant', 'praktisch', 'kratzig', 'breit', 'durchsichtig', 'dunkel']",1,2.348447300028056,None,,,,,,,,,,,,,,,,,,,,,,,,,,,,,,,,,,,,,,,,,,,,,,,,,,,,,,,,,,,,,,,,,,,,,1,2023-11-27_10h29.34.138,watkins1,2023.2.3,99.73072698371853,15,2023-11-27 10h29.41.664525 +0000,
,,,,,,,6,0,6,0,,,,,,,,,,,,,,,,,123.96343609993346,,,,,,,,,,123.95445930003189,124.4454266000539,,,3,1.9416946000419557,,,,,,,,,,,,,,,,,,,,,124.44543659989722,130.44971119984984,Trommel,schwer,"['Trommel', 'schwer']",control,1,"['Hut', 'Blume', 'Fahrrad', 'Eimer', 'Kiste', 'Tasse', 'Trommel', 'Jacke', 'Stift', 'Uhr', 'Telefon', 'Kette', 'Vase', 'Flasche', 'Löffel', 'Geige', 'Brille', 'Tasche', 'Rucksack', 'Socke', 'Hammer', 'Kerze']","['elegant', 'praktisch', 'kratzig', 'breit', 'durchsichtig', 'dunkel', 'schwer']",3,1.9416946000419557,None,,,,,,,,,,,,,,,,,,,,,,,,,,,,,,,,,,,,,,,,,,,,,,,,,,,,,,,,,,,,,,,,,,,,,1,2023-11-27_10h29.34.138,watkins1,2023.2.3,99.73072698371853,15,2023-11-27 10h29.41.664525 +0000,
,,,,,,,7,0,7,0,,,,,,,,,,,,,,,,,130.45919510000385,,,,,,,,,,130.45019120001234,130.94128819997422,,,3,2.470794399967417,,,,,,,,,,,,,,,,,,,,,130.94129849993624,136.94410129985772,Jacke,gut,"['Jacke', 'gut']",restudy_diff,1,"['Hut', 'Blume', 'Fahrrad', 'Eimer', 'Kiste', 'Tasse', 'Trommel', 'Jacke', 'Stift', 'Uhr', 'Telefon', 'Kette', 'Vase', 'Flasche', 'Löffel', 'Geige', 'Brille', 'Tasche', 'Rucksack', 'Socke', 'Hammer', 'Kerze']","['elegant', 'praktisch', 'kratzig', 'breit', 'durchsichtig', 'dunkel', 'schwer', 'gut']",3,2.470794399967417,None,,,,,,,,,,,,,,,,,,,,,,,,,,,,,,,,,,,,,,,,,,,,,,,,,,,,,,,,,,,,,,,,,,,,,1,2023-11-27_10h29.34.138,watkins1,2023.2.3,99.73072698371853,15,2023-11-27 10h29.41.664525 +0000,
,,,,,,,8,0,8,0,,,,,,,,,,,,,,,,,136.95349249988794,,,,,,,,,,136.94458559993654,137.43594929995015,,,3,2.68741500005126,,,,,,,,,,,,,,,,,,,,,137.4359593000263,143.4434358999133,Stift,kaputt,"['Stift', 'kaputt']",control,1,"['Hut', 'Blume', 'Fahrrad', 'Eimer', 'Kiste', 'Tasse', 'Trommel', 'Jacke', 'Stift', 'Uhr', 'Telefon', 'Kette', 'Vase', 'Flasche', 'Löffel', 'Geige', 'Brille', 'Tasche', 'Rucksack', 'Socke', 'Hammer', 'Kerze']","['elegant', 'praktisch', 'kratzig', 'breit', 'durchsichtig', 'dunkel', 'schwer', 'gut', 'kaputt']",3,2.68741500005126,None,,,,,,,,,,,,,,,,,,,,,,,,,,,,,,,,,,,,,,,,,,,,,,,,,,,,,,,,,,,,,,,,,,,,,1,2023-11-27_10h29.34.138,watkins1,2023.2.3,99.73072698371853,15,2023-11-27 10h29.41.664525 +0000,
,,,,,,,9,0,9,0,,,,,,,,,,,,,,,,,143.45300629991107,,,,,,,,,,143.44391849986278,143.9349803000223,,,1,1.7330261000897735,,,,,,,,,,,,,,,,,,,,,143.9349902998656,149.9456024998799,Uhr,nachhaltig,"['Uhr', 'nachhaltig']",control,1,"['Hut', 'Blume', 'Fahrrad', 'Eimer', 'Kiste', 'Tasse', 'Trommel', 'Jacke', 'Stift', 'Uhr', 'Telefon', 'Kette', 'Vase', 'Flasche', 'Löffel', 'Geige', 'Brille', 'Tasche', 'Rucksack', 'Socke', 'Hammer', 'Kerze']","['elegant', 'praktisch', 'kratzig', 'breit', 'durchsichtig', 'dunkel', 'schwer', 'gut', 'kaputt', 'nachhaltig']",1,1.7330261000897735,None,,,,,,,,,,,,,,,,,,,,,,,,,,,,,,,,,,,,,,,,,,,,,,,,,,,,,,,,,,,,,,,,,,,,,1,2023-11-27_10h29.34.138,watkins1,2023.2.3,99.73072698371853,15,2023-11-27 10h29.41.664525 +0000,
,,,,,,,10,0,10,0,,,,,,,,,,,,,,,,,149.95507699996233,,,,,,,,,,149.94607009994797,150.43711819988675,,,1,2.015425299992785,,,,,,,,,,,,,,,,,,,,,150.4371281999629,156.44630019995384,Telefon,schlicht,"['Telefon', 'schlicht']",restudy_diff,1,"['Hut', 'Blume', 'Fahrrad', 'Eimer', 'Kiste', 'Tasse', 'Trommel', 'Jacke', 'Stift', 'Uhr', 'Telefon', 'Kette', 'Vase', 'Flasche', 'Löffel', 'Geige', 'Brille', 'Tasche', 'Rucksack', 'Socke', 'Hammer', 'Kerze']","['elegant', 'praktisch', 'kratzig', 'breit', 'durchsichtig', 'dunkel', 'schwer', 'gut', 'kaputt', 'nachhaltig', 'schlicht']",1,2.015425299992785,None,,,,,,,,,,,,,,,,,,,,,,,,,,,,,,,,,,,,,,,,,,,,,,,,,,,,,,,,,,,,,,,,,,,,,1,2023-11-27_10h29.34.138,watkins1,2023.2.3,99.73072698371853,15,2023-11-27 10h29.41.664525 +0000,
,,,,,,,11,0,11,0,,,,,,,,,,,,,,,,,156.4558772998862,,,,,,,,,,156.44678030000068,156.93792629987,,,3,3.9148897000122815,,,,,,,,,,,,,,,,,,,,,156.93793640006334,162.94800029997714,Kette,dick,"['Kette', 'dick']",control,1,"['Hut', 'Blume', 'Fahrrad', 'Eimer', 'Kiste', 'Tasse', 'Trommel', 'Jacke', 'Stift', 'Uhr', 'Telefon', 'Kette', 'Vase', 'Flasche', 'Löffel', 'Geige', 'Brille', 'Tasche', 'Rucksack', 'Socke', 'Hammer', 'Kerze']","['elegant', 'praktisch', 'kratzig', 'breit', 'durchsichtig', 'dunkel', 'schwer', 'gut', 'kaputt', 'nachhaltig', 'schlicht', 'dick']",3,3.9148897000122815,None,,,,,,,,,,,,,,,,,,,,,,,,,,,,,,,,,,,,,,,,,,,,,,,,,,,,,,,,,,,,,,,,,,,,,1,2023-11-27_10h29.34.138,watkins1,2023.2.3,99.73072698371853,15,2023-11-27 10h29.41.664525 +0000,
,,,,,,,12,0,12,0,,,,,,,,,,,,,,,,,162.9574327999726,,,,,,,,,,162.94848269992508,163.4395285998471,,,3,1.2921970000024885,,,,,,,,,,,,,,,,,,,,,163.43953890004195,169.45003519998863,Vase,strahlend,"['Vase', 'strahlend']",control,1,"['Hut', 'Blume', 'Fahrrad', 'Eimer', 'Kiste', 'Tasse', 'Trommel', 'Jacke', 'Stift', 'Uhr', 'Telefon', 'Kette', 'Vase', 'Flasche', 'Löffel', 'Geige', 'Brille', 'Tasche', 'Rucksack', 'Socke', 'Hammer', 'Kerze']","['elegant', 'praktisch', 'kratzig', 'breit', 'durchsichtig', 'dunkel', 'schwer', 'gut', 'kaputt', 'nachhaltig', 'schlicht', 'dick', 'strahlend']",3,1.2921970000024885,None,,,,,,,,,,,,,,,,,,,,,,,,,,,,,,,,,,,,,,,,,,,,,,,,,,,,,,,,,,,,,,,,,,,,,1,2023-11-27_10h29.34.138,watkins1,2023.2.3,99.73072698371853,15,2023-11-27 10h29.41.664525 +0000,
,,,,,,,13,0,13,0,,,,,,,,,,,,,,,,,169.45950559992343,,,,,,,,,,169.45051130000502,169.94152619992383,,,2,2.070247899973765,,,,,,,,,,,,,,,,,,,,,169.94153629988432,175.94888829998672,Flasche,verspielt,"['Flasche', 'verspielt']",restudy_diff,1,"['Hut', 'Blume', 'Fahrrad', 'Eimer', 'Kiste', 'Tasse', 'Trommel', 'Jacke', 'Stift', 'Uhr', 'Telefon', 'Kette', 'Vase', 'Flasche', 'Löffel', 'Geige', 'Brille', 'Tasche', 'Rucksack', 'Socke', 'Hammer', 'Kerze']","['elegant', 'praktisch', 'kratzig', 'breit', 'durchsichtig', 'dunkel', 'schwer', 'gut', 'kaputt', 'nachhaltig', 'schlicht', 'dick', 'strahlend', 'verspielt']",2,2.070247899973765,None,,,,,,,,,,,,,,,,,,,,,,,,,,,,,,,,,,,,,,,,,,,,,,,,,,,,,,,,,,,,,,,,,,,,,1,2023-11-27_10h29.34.138,watkins1,2023.2.3,99.73072698371853,15,2023-11-27 10h29.41.664525 +0000,
,,,,,,,14,0,14,0,,,,,,,,,,,,,,,,,175.95835380000062,,,,,,,,,,175.94936209986918,176.44042790005915,,,3,2.482969099888578,,,,,,,,,,,,,,,,,,,,,176.4404376000166,182.4455500000622,Löffel,kalt,"['Löffel', 'kalt']",restudy_diff,1,"['Hut', 'Blume', 'Fahrrad', 'Eimer', 'Kiste', 'Tasse', 'Trommel', 'Jacke', 'Stift', 'Uhr', 'Telefon', 'Kette', 'Vase', 'Flasche', 'Löffel', 'Geige', 'Brille', 'Tasche', 'Rucksack', 'Socke', 'Hammer', 'Kerze']","['elegant', 'praktisch', 'kratzig', 'breit', 'durchsichtig', 'dunkel', 'schwer', 'gut', 'kaputt', 'nachhaltig', 'schlicht', 'dick', 'strahlend', 'verspielt', 'kalt']",3,2.482969099888578,None,,,,,,,,,,,,,,,,,,,,,,,,,,,,,,,,,,,,,,,,,,,,,,,,,,,,,,,,,,,,,,,,,,,,,1,2023-11-27_10h29.34.138,watkins1,2023.2.3,99.73072698371853,15,2023-11-27 10h29.41.664525 +0000,
,,,,,,,15,0,15,0,,,,,,,,,,,,,,,,,182.45504490006715,,,,,,,,,,182.44602669985034,182.9373591998592,,,1,2.0903955998364836,,,,,,,,,,,,,,,,,,,,,182.93736970005557,188.94493689993396,Geige,gestreift,"['Geige', 'gestreift']",restudy_diff,1,"['Hut', 'Blume', 'Fahrrad', 'Eimer', 'Kiste', 'Tasse', 'Trommel', 'Jacke', 'Stift', 'Uhr', 'Telefon', 'Kette', 'Vase', 'Flasche', 'Löffel', 'Geige', 'Brille', 'Tasche', 'Rucksack', 'Socke', 'Hammer', 'Kerze']","['elegant', 'praktisch', 'kratzig', 'breit', 'durchsichtig', 'dunkel', 'schwer', 'gut', 'kaputt', 'nachhaltig', 'schlicht', 'dick', 'strahlend', 'verspielt', 'kalt', 'gestreift']",1,2.0903955998364836,None,,,,,,,,,,,,,,,,,,,,,,,,,,,,,,,,,,,,,,,,,,,,,,,,,,,,,,,,,,,,,,,,,,,,,1,2023-11-27_10h29.34.138,watkins1,2023.2.3,99.73072698371853,15,2023-11-27 10h29.41.664525 +0000,
,,,,,,,16,0,16,0,,,,,,,,,,,,,,,,,188.95440919999965,,,,,,,,,,188.94542649993673,189.43644149997272,,,1,1.5601431999821216,,,,,,,,,,,,,,,,,,,,,189.4364515999332,195.44506859988905,Brille,flach,"['Brille', 'flach']",restudy_diff,1,"['Hut', 'Blume', 'Fahrrad', 'Eimer', 'Kiste', 'Tasse', 'Trommel', 'Jacke', 'Stift', 'Uhr', 'Telefon', 'Kette', 'Vase', 'Flasche', 'Löffel', 'Geige', 'Brille', 'Tasche', 'Rucksack', 'Socke', 'Hammer', 'Kerze']","['elegant', 'praktisch', 'kratzig', 'breit', 'durchsichtig', 'dunkel', 'schwer', 'gut', 'kaputt', 'nachhaltig', 'schlicht', 'dick', 'strahlend', 'verspielt', 'kalt', 'gestreift', 'flach']",1,1.5601431999821216,None,,,,,,,,,,,,,,,,,,,,,,,,,,,,,,,,,,,,,,,,,,,,,,,,,,,,,,,,,,,,,,,,,,,,,1,2023-11-27_10h29.34.138,watkins1,2023.2.3,99.73072698371853,15,2023-11-27 10h29.41.664525 +0000,
,,,,,,,17,0,17,0,,,,,,,,,,,,,,,,,195.4545012000017,,,,,,,,,,195.44555379985832,195.93658740003593,,,3,1.5079930000938475,,,,,,,,,,,,,,,,,,,,,195.93659769999795,201.94447889993899,Tasche,schmutzig,"['Tasche', 'schmutzig']",restudy_diff,1,"['Hut', 'Blume', 'Fahrrad', 'Eimer', 'Kiste', 'Tasse', 'Trommel', 'Jacke', 'Stift', 'Uhr', 'Telefon', 'Kette', 'Vase', 'Flasche', 'Löffel', 'Geige', 'Brille', 'Tasche', 'Rucksack', 'Socke', 'Hammer', 'Kerze']","['elegant', 'praktisch', 'kratzig', 'breit', 'durchsichtig', 'dunkel', 'schwer', 'gut', 'kaputt', 'nachhaltig', 'schlicht', 'dick', 'strahlend', 'verspielt', 'kalt', 'gestreift', 'flach', 'schmutzig']",3,1.5079930000938475,None,,,,,,,,,,,,,,,,,,,,,,,,,,,,,,,,,,,,,,,,,,,,,,,,,,,,,,,,,,,,,,,,,,,,,1,2023-11-27_10h29.34.138,watkins1,2023.2.3,99.73072698371853,15,2023-11-27 10h29.41.664525 +0000,
,,,,,,,18,0,18,0,,,,,,,,,,,,,,,,,201.95395260001533,,,,,,,,,,201.94497890002094,202.43602399993688,,,1,2.063814500113949,,,,,,,,,,,,,,,,,,,,,202.43603440001607,208.44182499987073,Rucksack,glatt,"['Rucksack', 'glatt']",restudy_diff,1,"['Hut', 'Blume', 'Fahrrad', 'Eimer', 'Kiste', 'Tasse', 'Trommel', 'Jacke', 'Stift', 'Uhr', 'Telefon', 'Kette', 'Vase', 'Flasche', 'Löffel', 'Geige', 'Brille', 'Tasche', 'Rucksack', 'Socke', 'Hammer', 'Kerze']","['elegant', 'praktisch', 'kratzig', 'breit', 'durchsichtig', 'dunkel', 'schwer', 'gut', 'kaputt', 'nachhaltig', 'schlicht', 'dick', 'strahlend', 'verspielt', 'kalt', 'gestreift', 'flach', 'schmutzig', 'glatt']",1,2.063814500113949,None,,,,,,,,,,,,,,,,,,,,,,,,,,,,,,,,,,,,,,,,,,,,,,,,,,,,,,,,,,,,,,,,,,,,,1,2023-11-27_10h29.34.138,watkins1,2023.2.3,99.73072698371853,15,2023-11-27 10h29.41.664525 +0000,
,,,,,,,19,0,19,0,,,,,,,,,,,,,,,,,208.4512414999772,,,,,,,,,,208.44250490004197,208.93327589984983,,,1,1.375480700051412,,,,,,,,,,,,,,,,,,,,,208.93328549992293,214.93552679987624,Socke,hohl,"['Socke', 'hohl']",restudy_diff,1,"['Hut', 'Blume', 'Fahrrad', 'Eimer', 'Kiste', 'Tasse', 'Trommel', 'Jacke', 'Stift', 'Uhr', 'Telefon', 'Kette', 'Vase', 'Flasche', 'Löffel', 'Geige', 'Brille', 'Tasche', 'Rucksack', 'Socke', 'Hammer', 'Kerze']","['elegant', 'praktisch', 'kratzig', 'breit', 'durchsichtig', 'dunkel', 'schwer', 'gut', 'kaputt', 'nachhaltig', 'schlicht', 'dick', 'strahlend', 'verspielt', 'kalt', 'gestreift', 'flach', 'schmutzig', 'glatt', 'hohl']",1,1.375480700051412,None,,,,,,,,,,,,,,,,,,,,,,,,,,,,,,,,,,,,,,,,,,,,,,,,,,,,,,,,,,,,,,,,,,,,,1,2023-11-27_10h29.34.138,watkins1,2023.2.3,99.73072698371853,15,2023-11-27 10h29.41.664525 +0000,
,,,,,,,20,0,20,0,,,,,,,,,,,,,,,,,214.94496089988388,,,,,,,,,,214.93599849985912,215.42705379985273,,,1,1.8328752000816166,,,,,,,,,,,,,,,,,,,,,215.4270639999304,221.4370396998711,Hammer,teuer,"['Hammer', 'teuer']",restudy_diff,1,"['Hut', 'Blume', 'Fahrrad', 'Eimer', 'Kiste', 'Tasse', 'Trommel', 'Jacke', 'Stift', 'Uhr', 'Telefon', 'Kette', 'Vase', 'Flasche', 'Löffel', 'Geige', 'Brille', 'Tasche', 'Rucksack', 'Socke', 'Hammer', 'Kerze']","['elegant', 'praktisch', 'kratzig', 'breit', 'durchsichtig', 'dunkel', 'schwer', 'gut', 'kaputt', 'nachhaltig', 'schlicht', 'dick', 'strahlend', 'verspielt', 'kalt', 'gestreift', 'flach', 'schmutzig', 'glatt', 'hohl', 'teuer']",1,1.8328752000816166,None,,,,,,,,,,,,,,,,,,,,,,,,,,,,,,,,,,,,,,,,,,,,,,,,,,,,,,,,,,,,,,,,,,,,,1,2023-11-27_10h29.34.138,watkins1,2023.2.3,99.73072698371853,15,2023-11-27 10h29.41.664525 +0000,
,,,,,,,21,0,21,0,,,,,,,,,,,,,,,,,221.44650899991393,,,,,,,,,,221.43751690001227,221.92851849994622,,,3,0.9153973001521081,,,,,,,,,,,,,,,,,,,,,221.92852850002237,227.93905799998902,Kerze,hübsch,"['Kerze', 'hübsch']",restudy_diff,1,"['Hut', 'Blume', 'Fahrrad', 'Eimer', 'Kiste', 'Tasse', 'Trommel', 'Jacke', 'Stift', 'Uhr', 'Telefon', 'Kette', 'Vase', 'Flasche', 'Löffel', 'Geige', 'Brille', 'Tasche', 'Rucksack', 'Socke', 'Hammer', 'Kerze']","['elegant', 'praktisch', 'kratzig', 'breit', 'durchsichtig', 'dunkel', 'schwer', 'gut', 'kaputt', 'nachhaltig', 'schlicht', 'dick', 'strahlend', 'verspielt', 'kalt', 'gestreift', 'flach', 'schmutzig', 'glatt', 'hohl', 'teuer', 'hübsch']",3,0.9153973001521081,None,,,,,,,,,,,,,,,,,,,,,,,,,,,,,,,,,,,,,,,,,,,,,,,,,,,,,,,,,,,,,,,,,,,,,1,2023-11-27_10h29.34.138,watkins1,2023.2.3,99.73072698371853,15,2023-11-27 10h29.41.664525 +0000,
,,,,,,,,,,,0,0,0,0,,,,,,,,,,,,,227.94853010005318,,,,,,,,,,227.93986879987642,228.43051739991643,,,[],[],,,,,,,,,,,,None,None,,,,,,,,,,Ring,flauschig,"['Ring', 'flauschig']",control,1,,,,,,227.93979289988056,227.93984319991432,"['Ring', 'Kamera', 'Rucksack', 'Schlüssel', 'Tasche', 'Hammer', 'Brille', 'Lampe', 'Telefon', 'Flasche', 'Würfel', 'Löffel', 'Buch', 'Kiste', 'Schere', 'Kerze', 'Geige', 'Bürste', 'Tasse', 'Blume', 'Jacke', 'Hut', 'Socke']",228.43052799999714,234.43931200006045,3,1.8133472001645714,None,234.4397143998649,234.44234219985083,None,234.44249329995364,234.4450451999437,None,234.44519650004804,234.4462381999474,234.4462500999216,234.44748470000923,,,,,,,,,,,,,,,,,,,,,,,,,,,,,,,,,,,,,,,,,,,,,,,,,,,1,2023-11-27_10h29.34.138,watkins1,2023.2.3,99.73072698371853,15,2023-11-27 10h29.41.664525 +0000,
,,,,,,,,,,,1,0,1,0,,,,,,,,,,,,,234.45106279989704,,,,,,,,,,234.4477545998525,234.9442737000063,,,[],[],,,,,,,,,,,,None,None,,,,,,,,,,Kamera,sauber,"['Kamera', 'sauber']",control,1,,,,,,234.44769060006365,234.4477295000106,"['Ring', 'Kamera', 'Rucksack', 'Schlüssel', 'Tasche', 'Hammer', 'Brille', 'Lampe', 'Telefon', 'Flasche', 'Würfel', 'Löffel', 'Buch', 'Kiste', 'Schere', 'Kerze', 'Geige', 'Bürste', 'Tasse', 'Blume', 'Jacke', 'Hut', 'Socke']",234.9442844998557,240.95086249988526,3,2.740163299953565,None,240.95113369985484,240.9538423998747,None,240.95394829986617,240.956495200051,None,240.95659799990244,240.95782410004176,240.9578356000129,240.95900739985518,,,,,,,,,,,,,,,,,,,,,,,,,,,,,,,,,,,,,,,,,,,,,,,,,,,1,2023-11-27_10h29.34.138,watkins1,2023.2.3,99.73072698371853,15,2023-11-27 10h29.41.664525 +0000,
,,,,,,,,,,,2,0,2,0,,,,,,,,,,,,,240.96248540002853,,,,,,,,,,240.95927529991604,241.45625289995223,,,1,2.536134400172159,,,,,,,,,,,,None,None,,,,,,,,,,Rucksack,niedlich,"['Rucksack', 'niedlich']",restudy_diff,1,,,,,,240.95921169989742,240.9592506000772,"['Ring', 'Kamera', 'Rucksack', 'Schlüssel', 'Tasche', 'Hammer', 'Brille', 'Lampe', 'Telefon', 'Flasche', 'Würfel', 'Löffel', 'Buch', 'Kiste', 'Schere', 'Kerze', 'Geige', 'Bürste', 'Tasse', 'Blume', 'Jacke', 'Hut', 'Socke']",241.45626470004208,241.45807010005228,None,,,241.45823829993606,241.4597581999842,None,241.45986060006544,247.46494319988415,1,247.46530280006118,247.4667169000022,247.4667292998638,247.46798349986784,2.536134400172159,None,,,,,,,,,,,,,,,,,,,,,,,,,,,,,,,,,,,,,,,,,,,,,,,,,1,2023-11-27_10h29.34.138,watkins1,2023.2.3,99.73072698371853,15,2023-11-27 10h29.41.664525 +0000,
,,,,,,,,,,,3,0,3,0,,,,,,,,,,,,,247.47450989997014,,,,,,,,,,247.468259899877,247.96660290006548,,,[],[],,,,,,,,,,,,None,None,,,,,,,,,,Schlüssel,rustikal,"['Schlüssel', 'rustikal']",control,1,,,,,,247.468194300076,247.46823320002295,"['Ring', 'Kamera', 'Rucksack', 'Schlüssel', 'Tasche', 'Hammer', 'Brille', 'Lampe', 'Telefon', 'Flasche', 'Würfel', 'Löffel', 'Buch', 'Kiste', 'Schere', 'Kerze', 'Geige', 'Bürste', 'Tasse', 'Blume', 'Jacke', 'Hut', 'Socke']",247.9666136999149,253.97485110000707,1,1.7017842000350356,None,253.97512409999035,253.97802579985,None,253.97813150007278,253.98079629987478,None,253.98089920007624,253.98215779988095,253.9821695999708,253.98338710004464,,,,,,,,,,,,,,,,,,,,,,,,,,,,,,,,,,,,,,,,,,,,,,,,,,,1,2023-11-27_10h29.34.138,watkins1,2023.2.3,99.73072698371853,15,2023-11-27 10h29.41.664525 +0000,
,,,,,,,,,,,4,0,4,0,,,,,,,,,,,,,253.98697560001165,,,,,,,,,,253.9836607000325,254.4805525999982,,,3,1.345182000193745,,,,,,,,,,,,None,None,,,,,,,,,,Tasche,bunt,"['Tasche', 'bunt']",restudy_diff,1,,,,,,253.98359690001234,253.98363599996082,"['Ring', 'Kamera', 'Rucksack', 'Schlüssel', 'Tasche', 'Hammer', 'Brille', 'Lampe', 'Telefon', 'Flasche', 'Würfel', 'Löffel', 'Buch', 'Kiste', 'Schere', 'Kerze', 'Geige', 'Bürste', 'Tasse', 'Blume', 'Jacke', 'Hut', 'Socke']",254.48056300007738,254.48215599986725,None,,,254.48227400006726,254.48372879996896,None,254.48383309994824,260.4872061999049,3,260.4874978000298,260.4888440000359,260.4888573999051,260.48998329997994,1.345182000193745,None,,,,,,,,,,,,,,,,,,,,,,,,,,,,,,,,,,,,,,,,,,,,,,,,,1,2023-11-27_10h29.34.138,watkins1,2023.2.3,99.73072698371853,15,2023-11-27 10h29.41.664525 +0000,
,,,,,,,,,,,5,0,5,0,,,,,,,,,,,,,260.49666689988226,,,,,,,,,,260.49027349986136,260.98878180002794,,,1,1.418798099970445,,,,,,,,,,,,None,None,,,,,,,,,,Hammer,zart,"['Hammer', 'zart']",restudy_diff,1,,,,,,260.4902041000314,260.49024479999207,"['Ring', 'Kamera', 'Rucksack', 'Schlüssel', 'Tasche', 'Hammer', 'Brille', 'Lampe', 'Telefon', 'Flasche', 'Würfel', 'Löffel', 'Buch', 'Kiste', 'Schere', 'Kerze', 'Geige', 'Bürste', 'Tasse', 'Blume', 'Jacke', 'Hut', 'Socke']",260.98879259987734,260.9913637000136,None,,,260.99148019985296,260.99391329986975,None,260.9940183998551,266.99707719986327,1,266.9973587000277,266.9987657999154,266.9987780000083,266.99984409986064,1.418798099970445,None,,,,,,,,,,,,,,,,,,,,,,,,,,,,,,,,,,,,,,,,,,,,,,,,,1,2023-11-27_10h29.34.138,watkins1,2023.2.3,99.73072698371853,15,2023-11-27 10h29.41.664525 +0000,
,,,,,,,,,,,6,0,6,0,,,,,,,,,,,,,267.00653959997,,,,,,,,,,267.0001184998546,267.4985940998886,,,3,2.235728400060907,,,,,,,,,,,,None,None,,,,,,,,,,Brille,groß,"['Brille', 'groß']",restudy_diff,1,,,,,,267.000053799944,267.0000928998925,"['Ring', 'Kamera', 'Rucksack', 'Schlüssel', 'Tasche', 'Hammer', 'Brille', 'Lampe', 'Telefon', 'Flasche', 'Würfel', 'Löffel', 'Buch', 'Kiste', 'Schere', 'Kerze', 'Geige', 'Bürste', 'Tasse', 'Blume', 'Jacke', 'Hut', 'Socke']",267.49860479985364,267.5012037998531,None,,,267.50132300006226,267.50378010002896,None,267.50388489989564,273.5125263000373,3,273.5128277998883,273.5142220999114,273.5142339998856,273.51527089998126,2.235728400060907,None,,,,,,,,,,,,,,,,,,,,,,,,,,,,,,,,,,,,,,,,,,,,,,,,,1,2023-11-27_10h29.34.138,watkins1,2023.2.3,99.73072698371853,15,2023-11-27 10h29.41.664525 +0000,
,,,,,,,,,,,7,0,7,0,,,,,,,,,,,,,273.52197950007394,,,,,,,,,,273.5155378000345,274.01427019992843,,,[],[],,,,,,,,,,,,None,None,,,,,,,,,,Lampe,nass,"['Lampe', 'nass']",control,1,,,,,,273.51547480002046,273.5155122000724,"['Ring', 'Kamera', 'Rucksack', 'Schlüssel', 'Tasche', 'Hammer', 'Brille', 'Lampe', 'Telefon', 'Flasche', 'Würfel', 'Löffel', 'Buch', 'Kiste', 'Schere', 'Kerze', 'Geige', 'Bürste', 'Tasse', 'Blume', 'Jacke', 'Hut', 'Socke']",274.0142802998889,280.01850420003757,1,2.1501354998908937,None,280.0187863998581,280.02141589997336,None,280.0215213999618,280.023872199934,None,280.0239752999041,280.0251227999106,280.02513460000046,280.0262106999289,,,,,,,,,,,,,,,,,,,,,,,,,,,,,,,,,,,,,,,,,,,,,,,,,,,1,2023-11-27_10h29.34.138,watkins1,2023.2.3,99.73072698371853,15,2023-11-27 10h29.41.664525 +0000,
,,,,,,,,,,,8,0,8,0,,,,,,,,,,,,,280.02989439992234,,,,,,,,,,280.0264794998802,280.5228519998491,,,1,1.4944531000219285,,,,,,,,,,,,None,None,,,,,,,,,,Telefon,sportlich,"['Telefon', 'sportlich']",restudy_diff,1,,,,,,280.0264156998601,280.02645509992726,"['Ring', 'Kamera', 'Rucksack', 'Schlüssel', 'Tasche', 'Hammer', 'Brille', 'Lampe', 'Telefon', 'Flasche', 'Würfel', 'Löffel', 'Buch', 'Kiste', 'Schere', 'Kerze', 'Geige', 'Bürste', 'Tasse', 'Blume', 'Jacke', 'Hut', 'Socke']",280.5228629000485,280.52448779996485,None,,,280.52460519992746,280.52608340000734,None,280.52618609997444,286.53305339999497,1,286.53333849995397,286.5346591998823,286.53467149985954,286.53593949996866,1.4944531000219285,None,,,,,,,,,,,,,,,,,,,,,,,,,,,,,,,,,,,,,,,,,,,,,,,,,1,2023-11-27_10h29.34.138,watkins1,2023.2.3,99.73072698371853,15,2023-11-27 10h29.41.664525 +0000,
,,,,,,,,,,,9,0,9,0,,,,,,,,,,,,,286.54262680001557,,,,,,,,,,286.5362137998454,287.03462229995057,,,3,2.916121300077066,,,,,,,,,,,,None,None,,,,,,,,,,Flasche,robust,"['Flasche', 'robust']",restudy_diff,1,,,,,,286.5361494999379,286.53618769999593,"['Ring', 'Kamera', 'Rucksack', 'Schlüssel', 'Tasche', 'Hammer', 'Brille', 'Lampe', 'Telefon', 'Flasche', 'Würfel', 'Löffel', 'Buch', 'Kiste', 'Schere', 'Kerze', 'Geige', 'Bürste', 'Tasse', 'Blume', 'Jacke', 'Hut', 'Socke']",287.0346327999141,287.03756019985303,None,,,287.03768000006676,287.04034659988247,None,287.040451399982,293.0506347999908,3,293.05091689992696,293.05223049991764,293.0522427998949,293.0534399000462,2.916121300077066,None,,,,,,,,,,,,,,,,,,,,,,,,,,,,,,,,,,,,,,,,,,,,,,,,,1,2023-11-27_10h29.34.138,watkins1,2023.2.3,99.73072698371853,15,2023-11-27 10h29.41.664525 +0000,
,,,,,,,,,,,10,0,10,0,,,,,,,,,,,,,293.0601089000702,,,,,,,,,,293.05371690005995,293.5522059998475,,,[],[],,,,,,,,,,,,None,None,,,,,,,,,,Würfel,biegsam,"['Würfel', 'biegsam']",control,1,,,,,,293.05364729999565,293.053691299865,"['Ring', 'Kamera', 'Rucksack', 'Schlüssel', 'Tasche', 'Hammer', 'Brille', 'Lampe', 'Telefon', 'Flasche', 'Würfel', 'Löffel', 'Buch', 'Kiste', 'Schere', 'Kerze', 'Geige', 'Bürste', 'Tasse', 'Blume', 'Jacke', 'Hut', 'Socke']",293.5522169000469,299.5548284999095,1,1.6594165000133216,None,299.5551106999628,299.5578443000559,None,299.557951600058,299.56051509990357,None,299.5606173998676,299.56181859993376,299.56183060002513,299.56301779998466,,,,,,,,,,,,,,,,,,,,,,,,,,,,,,,,,,,,,,,,,,,,,,,,,,,1,2023-11-27_10h29.34.138,watkins1,2023.2.3,99.73072698371853,15,2023-11-27 10h29.41.664525 +0000,
,,,,,,,,,,,11,0,11,0,,,,,,,,,,,,,299.56660300004296,,,,,,,,,,299.56329149985686,300.0598307000473,,,3,2.6213849000632763,,,,,,,,,,,,None,None,,,,,,,,,,Löffel,krumm,"['Löffel', 'krumm']",restudy_diff,1,,,,,,299.563224399928,299.5632639999967,"['Ring', 'Kamera', 'Rucksack', 'Schlüssel', 'Tasche', 'Hammer', 'Brille', 'Lampe', 'Telefon', 'Flasche', 'Würfel', 'Löffel', 'Buch', 'Kiste', 'Schere', 'Kerze', 'Geige', 'Bürste', 'Tasse', 'Blume', 'Jacke', 'Hut', 'Socke']",300.05984120001085,300.0615962999873,None,,,300.0617150000762,300.06317520001903,None,300.06327759986743,306.06510780006647,3,306.0653991000727,306.0667220999021,306.066734299995,306.0678999000229,2.6213849000632763,None,,,,,,,,,,,,,,,,,,,,,,,,,,,,,,,,,,,,,,,,,,,,,,,,,1,2023-11-27_10h29.34.138,watkins1,2023.2.3,99.73072698371853,15,2023-11-27 10h29.41.664525 +0000,
,,,,,,,,,,,12,0,12,0,,,,,,,,,,,,,306.0745275998488,,,,,,,,,,306.06817089999095,306.5667459999677,,,[],[],,,,,,,,,,,,None,None,,,,,,,,,,Buch,blass,"['Buch', 'blass']",control,1,,,,,,306.0681058000773,306.0681445999071,"['Ring', 'Kamera', 'Rucksack', 'Schlüssel', 'Tasche', 'Hammer', 'Brille', 'Lampe', 'Telefon', 'Flasche', 'Würfel', 'Löffel', 'Buch', 'Kiste', 'Schere', 'Kerze', 'Geige', 'Bürste', 'Tasse', 'Blume', 'Jacke', 'Hut', 'Socke']",306.5667562999297,312.5754038998857,1,2.837957700015977,None,312.5756862000562,312.5782170998864,None,312.57832279987633,312.5807252000086,None,312.58082829997875,312.5818763000425,312.5818880998995,312.58304609986953,,,,,,,,,,,,,,,,,,,,,,,,,,,,,,,,,,,,,,,,,,,,,,,,,,,1,2023-11-27_10h29.34.138,watkins1,2023.2.3,99.73072698371853,15,2023-11-27 10h29.41.664525 +0000,
,,,,,,,,,,,13,0,13,0,,,,,,,,,,,,,312.58672729996033,,,,,,,,,,312.583317700075,313.07969839987345,,,1,2.1458420001436025,,,,,,,,,,,,None,None,,,,,,,,,,Kiste,lang,"['Kiste', 'lang']",restudy_diff,1,,,,,,312.58325410005637,312.58329340000637,"['Ring', 'Kamera', 'Rucksack', 'Schlüssel', 'Tasche', 'Hammer', 'Brille', 'Lampe', 'Telefon', 'Flasche', 'Würfel', 'Löffel', 'Buch', 'Kiste', 'Schere', 'Kerze', 'Geige', 'Bürste', 'Tasse', 'Blume', 'Jacke', 'Hut', 'Socke']",313.07970910007134,313.0812878999859,None,,,313.0814060999546,313.0828394999262,None,313.0829437999055,319.0912015000358,1,319.091477900045,319.09275999991223,319.0927716998849,319.0938233998604,2.1458420001436025,None,,,,,,,,,,,,,,,,,,,,,,,,,,,,,,,,,,,,,,,,,,,,,,,,,1,2023-11-27_10h29.34.138,watkins1,2023.2.3,99.73072698371853,15,2023-11-27 10h29.41.664525 +0000,
,,,,,,,,,,,14,0,14,0,,,,,,,,,,,,,319.1007838998921,,,,,,,,,,319.0940924999304,319.5929487000685,,,[],[],,,,,,,,,,,,None,None,,,,,,,,,,Schere,klobig,"['Schere', 'klobig']",control,1,,,,,,319.0940266000107,319.0940666999668,"['Ring', 'Kamera', 'Rucksack', 'Schlüssel', 'Tasche', 'Hammer', 'Brille', 'Lampe', 'Telefon', 'Flasche', 'Würfel', 'Löffel', 'Buch', 'Kiste', 'Schere', 'Kerze', 'Geige', 'Bürste', 'Tasse', 'Blume', 'Jacke', 'Hut', 'Socke']",319.59295969991945,325.59506989992224,3,2.4995077999774367,None,325.5953444999177,325.5980563000776,None,325.59816109994426,325.60080330003984,None,325.6009068998974,325.6020879999269,325.60209980001673,325.6032843000721,,,,,,,,,,,,,,,,,,,,,,,,,,,,,,,,,,,,,,,,,,,,,,,,,,,1,2023-11-27_10h29.34.138,watkins1,2023.2.3,99.73072698371853,15,2023-11-27 10h29.41.664525 +0000,
,,,,,,,,,,,15,0,15,0,,,,,,,,,,,,,325.6068613999523,,,,,,,,,,325.603553700028,326.1000488998834,,,3,2.1245750000234693,,,,,,,,,,,,None,None,,,,,,,,,,Kerze,glänzend,"['Kerze', 'glänzend']",restudy_diff,1,,,,,,325.60348959988914,325.6035295999609,"['Ring', 'Kamera', 'Rucksack', 'Schlüssel', 'Tasche', 'Hammer', 'Brille', 'Lampe', 'Telefon', 'Flasche', 'Würfel', 'Löffel', 'Buch', 'Kiste', 'Schere', 'Kerze', 'Geige', 'Bürste', 'Tasse', 'Blume', 'Jacke', 'Hut', 'Socke']",326.1000608999748,326.10164160002023,None,,,326.10175799997523,326.1031889000442,None,326.103300599847,332.1080717998557,3,332.1083488999866,332.10971789993346,332.1097299999092,332.1109694999177,2.1245750000234693,None,,,,,,,,,,,,,,,,,,,,,,,,,,,,,,,,,,,,,,,,,,,,,,,,,1,2023-11-27_10h29.34.138,watkins1,2023.2.3,99.73072698371853,15,2023-11-27 10h29.41.664525 +0000,
,,,,,,,,,,,16,0,16,0,,,,,,,,,,,,,332.1175059999805,,,,,,,,,,332.111242899904,332.60958439996466,,,1,2.821716699982062,,,,,,,,,,,,None,None,,,,,,,,,,Geige,winzig,"['Geige', 'winzig']",restudy_diff,1,,,,,,332.1111782998778,332.1112172000576,"['Ring', 'Kamera', 'Rucksack', 'Schlüssel', 'Tasche', 'Hammer', 'Brille', 'Lampe', 'Telefon', 'Flasche', 'Würfel', 'Löffel', 'Buch', 'Kiste', 'Schere', 'Kerze', 'Geige', 'Bürste', 'Tasse', 'Blume', 'Jacke', 'Hut', 'Socke']",332.6095954000484,332.6122900999617,None,,,332.61240629991516,332.6149696998764,None,332.6150743998587,338.61835699994117,1,338.6186420000158,338.62003979994915,338.6200518999249,338.6212416999042,2.821716699982062,None,,,,,,,,,,,,,,,,,,,,,,,,,,,,,,,,,,,,,,,,,,,,,,,,,1,2023-11-27_10h29.34.138,watkins1,2023.2.3,99.73072698371853,15,2023-11-27 10h29.41.664525 +0000,
,,,,,,,,,,,17,0,17,0,,,,,,,,,,,,,338.62783290003426,,,,,,,,,,338.62151709990576,339.11981649999507,,,[],[],,,,,,,,,,,,None,None,,,,,,,,,,Bürste,neu,"['Bürste', 'neu']",control,1,,,,,,338.6214496998582,338.6214910999406,"['Ring', 'Kamera', 'Rucksack', 'Schlüssel', 'Tasche', 'Hammer', 'Brille', 'Lampe', 'Telefon', 'Flasche', 'Würfel', 'Löffel', 'Buch', 'Kiste', 'Schere', 'Kerze', 'Geige', 'Bürste', 'Tasse', 'Blume', 'Jacke', 'Hut', 'Socke']",339.1198267999571,345.12459010002203,2,2.5167166001629084,None,345.1248736998532,345.12746339989826,None,345.12756980000995,345.1299671998713,None,345.1300760000013,345.1312577999197,345.131269400008,345.1322969000321,,,,,,,,,,,,,,,,,,,,,,,,,,,,,,,,,,,,,,,,,,,,,,,,,,,1,2023-11-27_10h29.34.138,watkins1,2023.2.3,99.73072698371853,15,2023-11-27 10h29.41.664525 +0000,
,,,,,,,,,,,18,0,18,0,,,,,,,,,,,,,345.1359838999342,,,,,,,,,,345.132570900023,345.6289752998855,,,2,4.404565200209618,,,,,,,,,,,,None,None,,,,,,,,,,Tasse,matt,"['Tasse', 'matt']",restudy_diff,1,,,,,,345.1325077000074,345.13254659995437,"['Ring', 'Kamera', 'Rucksack', 'Schlüssel', 'Tasche', 'Hammer', 'Brille', 'Lampe', 'Telefon', 'Flasche', 'Würfel', 'Löffel', 'Buch', 'Kiste', 'Schere', 'Kerze', 'Geige', 'Bürste', 'Tasse', 'Blume', 'Jacke', 'Hut', 'Socke']",345.62898549996316,345.6305358998943,None,,,345.63065219996497,345.6320900998544,None,345.6321924000513,351.6356464000419,2,351.63593029999174,351.63723189989105,351.6372443998698,351.63829839997925,4.404565200209618,None,,,,,,,,,,,,,,,,,,,,,,,,,,,,,,,,,,,,,,,,,,,,,,,,,1,2023-11-27_10h29.34.138,watkins1,2023.2.3,99.73072698371853,15,2023-11-27 10h29.41.664525 +0000,
,,,,,,,,,,,19,0,19,0,,,,,,,,,,,,,351.64506880007684,,,,,,,,,,351.63857259997167,352.13770950003527,,,1,1.7735037999227643,,,,,,,,,,,,None,None,,,,,,,,,,Blume,gepunktet,"['Blume', 'gepunktet']",restudy_diff,1,,,,,,351.63850750005804,351.6385462000035,"['Ring', 'Kamera', 'Rucksack', 'Schlüssel', 'Tasche', 'Hammer', 'Brille', 'Lampe', 'Telefon', 'Flasche', 'Würfel', 'Löffel', 'Buch', 'Kiste', 'Schere', 'Kerze', 'Geige', 'Bürste', 'Tasse', 'Blume', 'Jacke', 'Hut', 'Socke']",352.13772040000185,352.1404152000323,None,,,352.1405344000086,352.14293159986846,None,352.14303390006535,358.1465805999469,1,358.14687879988924,358.14819029998034,358.14820250007324,358.1494586998597,1.7735037999227643,None,,,,,,,,,,,,,,,,,,,,,,,,,,,,,,,,,,,,,,,,,,,,,,,,,1,2023-11-27_10h29.34.138,watkins1,2023.2.3,99.73072698371853,15,2023-11-27 10h29.41.664525 +0000,
,,,,,,,,,,,20,0,20,0,,,,,,,,,,,,,358.15615329984576,,,,,,,,,,358.1497323999647,358.6484441999346,,,1,1.5583933000452816,,,,,,,,,,,,None,None,,,,,,,,,,Jacke,lustig,"['Jacke', 'lustig']",restudy_diff,1,,,,,,358.14966799994,358.1497064998839,"['Ring', 'Kamera', 'Rucksack', 'Schlüssel', 'Tasche', 'Hammer', 'Brille', 'Lampe', 'Telefon', 'Flasche', 'Würfel', 'Löffel', 'Buch', 'Kiste', 'Schere', 'Kerze', 'Geige', 'Bürste', 'Tasse', 'Blume', 'Jacke', 'Hut', 'Socke']",358.64845500001684,358.6513459999114,None,,,358.65146289998665,358.654062199872,None,358.65416839998215,364.6600627999287,1,364.6603432998527,364.6616374999285,364.66164950001985,364.662834599847,1.5583933000452816,None,,,,,,,,,,,,,,,,,,,,,,,,,,,,,,,,,,,,,,,,,,,,,,,,,1,2023-11-27_10h29.34.138,watkins1,2023.2.3,99.73072698371853,15,2023-11-27 10h29.41.664525 +0000,
,,,,,,,,,,,21,0,21,0,,,,,,,,,,,,,364.6696411999874,,,,,,,,,,364.6631032999139,365.16177730006166,,,1,1.8615827998146415,,,,,,,,,,,,None,None,,,,,,,,,,Hut,hässlich,"['Hut', 'hässlich']",restudy_diff,1,,,,,,364.66304009989835,364.6630780000705,"['Ring', 'Kamera', 'Rucksack', 'Schlüssel', 'Tasche', 'Hammer', 'Brille', 'Lampe', 'Telefon', 'Flasche', 'Würfel', 'Löffel', 'Buch', 'Kiste', 'Schere', 'Kerze', 'Geige', 'Bürste', 'Tasse', 'Blume', 'Jacke', 'Hut', 'Socke']",365.16178789990954,365.1643226998858,None,,,365.1644419999793,365.1669862999115,None,365.16708949999884,371.17541250004433,1,371.17569259996526,371.1768294000067,371.1768413998652,371.17809489998035,1.8615827998146415,None,,,,,,,,,,,,,,,,,,,,,,,,,,,,,,,,,,,,,,,,,,,,,,,,,1,2023-11-27_10h29.34.138,watkins1,2023.2.3,99.73072698371853,15,2023-11-27 10h29.41.664525 +0000,
,,,,,,,,,,,22,0,22,0,,,,,,,,,,,,,371.1848796000704,,,,,,,,,,371.17838110006414,371.6769888999406,,,3,2.4340173001401126,,,,,,,,,,,,None,None,,,,,,,,,,Socke,kurz,"['Socke', 'kurz']",restudy_diff,1,,,,,,371.1783127998933,371.17835419997573,"['Ring', 'Kamera', 'Rucksack', 'Schlüssel', 'Tasche', 'Hammer', 'Brille', 'Lampe', 'Telefon', 'Flasche', 'Würfel', 'Löffel', 'Buch', 'Kiste', 'Schere', 'Kerze', 'Geige', 'Bürste', 'Tasse', 'Blume', 'Jacke', 'Hut', 'Socke']",371.67699950002134,371.6796953000594,None,,,371.67981199990027,371.6824364999775,None,371.6825510999188,377.686243099859,3,377.68652079999447,377.6878130999394,377.6878249999136,377.6888863998465,2.4340173001401126,None,,,,,,,,,,,,,,,,,,,,,,,,,,,,,,,,,,,,,,,,,,,,,,,,,1,2023-11-27_10h29.34.138,watkins1,2023.2.3,99.73072698371853,15,2023-11-27 10h29.41.664525 +0000,
,,,,,,,,,,,,,,,,,,,,,,,,,,,,,,,,,,,,,,,,,,,,,,,,,,,,,,,,,,,,,,,,,,,,,1,,,,,,,,,,,,,,,,,,,,,,,,,,,,,,,,,,,,,,,,,,,,,,,,,,,,,,,,,,,,,,,,,,,,,,,,,,1,2023-11-27_10h29.34.138,watkins1,2023.2.3,99.73072698371853,15,2023-11-27 10h29.41.664525 +0000,
(7 x 6) + 9 = 48 ,Incorrect,button_incorrect,,,,,,,,,,,,,0,0,0,9,,,,,,,,,392.129213700071,,,,,,,,391.09793239994906,392.10129969986156,,,,,['button_incorrect'],[7.805364500032738],,,,,,,,,,,,,,,,,,,,,,,,,,distractorTask,1,,,,,,,,,,,,,,,,,,,,,,,,,,392.11734599992633,392.129213700071,399.92842320003547,[-0.29074074074074074],[-0.4046296296296296],[1],[0],[0],[7.805364500032738],['button_incorrect'],399.92910730000585,400.93184949993156,,,,,,,,,,,,,,,,,,,,,,,,,,,,,,,,,,,,,1,2023-11-27_10h29.34.138,watkins1,2023.2.3,99.73072698371853,15,2023-11-27 10h29.41.664525 +0000,
(54 : 6) - 10 = 0 ,Incorrect,button_incorrect,,,,,,,,,,,,,0,1,1,5,,,,,,,,,400.94193760002963,,,,,,,,,,,,,,['button_incorrect'],[4.2042519999668],,,,,,,,,,,,,,,,,,,,,,,,,,distractorTask,1,,,,,,,,,,,,,,,,,,,,,,,,,,400.9320469000377,400.94193760002963,405.13983749994077,[-0.30833333333333335],[-0.37962962962962965],[1],[0],[0],[4.2042519999668],['button_incorrect'],405.1402378999628,406.1435109998565,,,,,,,,,,,,,,,,,,,,,,,,,,,,,,,,,,,,,1,2023-11-27_10h29.34.138,watkins1,2023.2.3,99.73072698371853,15,2023-11-27 10h29.41.664525 +0000,
(28 : 7) - 3 = 1 ,Correct,button_correct,,,,,,,,,,,,,0,2,2,0,,,,,,,,,406.1536039998755,,,,,,,,,,,,,,['button_correct'],[10.99358530016616],,,,,,,,,,,,,,,,,,,,,,,,,,distractorTask,1,,,,,,,,,,,,,,,,,,,,,,,,,,406.1437099999748,406.1536039998755,417.1398420999758,[0.3731481481481482],[-0.40925925925925927],[1],[0],[0],[10.99358530016616],['button_correct'],417.14023029990494,418.1436445999425,,,,,,,,,,,,,,,,,,,,,,,,,,,,,,,,,,,,,1,2023-11-27_10h29.34.138,watkins1,2023.2.3,99.73072698371853,15,2023-11-27 10h29.41.664525 +0000,
(4 : 2) + 4 = 6 ,Correct,button_correct,,,,,,,,,,,,,0,3,3,1,,,,,,,,,418.1536236999091,,,,,,,,,,,,,,['button_correct'],[2.981019999831915],,,,,,,,,,,,,,,,,,,,,,,,,,distractorTask,1,,,,,,,,,,,,,,,,,,,,,,,,,,418.14384240005165,418.1536236999091,421.1265628999099,[0.41944444444444445],[-0.40370370370370373],[1],[0],[0],[2.981019999831915],['button_correct'],421.1269447999075,422.130267099943,,,,,,,,,,,,,,,,,,,,,,,,,,,,,,,,,,,,,1,2023-11-27_10h29.34.138,watkins1,2023.2.3,99.73072698371853,15,2023-11-27 10h29.41.664525 +0000,
(25 : 5) + 5 = 9 ,Incorrect,button_incorrect,,,,,,,,,,,,,0,4,4,6,,,,,,,,,422.14024499990046,,,,,,,,,,,,,,['button_incorrect'],[2.720309100113809],,,,,,,,,,,,,,,,,,,,,,,,,,distractorTask,1,,,,,,,,,,,,,,,,,,,,,,,,,,422.1304589000065,422.14024499990046,424.8526148998644,[-0.3037037037037037],[-0.38055555555555554],[1],[0],[0],[2.720309100113809],['button_incorrect'],424.8530013000127,425.85629469994456,,,,,,,,,,,,,,,,,,,,,,,,,,,,,,,,,,,,,1,2023-11-27_10h29.34.138,watkins1,2023.2.3,99.73072698371853,15,2023-11-27 10h29.41.664525 +0000,
(80 : 10) + 9 = 17 ,Correct,button_correct,,,,,,,,,,,,,0,5,5,3,,,,,,,,,425.86624230002053,,,,,,,,,,,,,,['button_incorrect'],[3.242094499990344],,,,,,,,,,,,,,,,,,,,,,,,,,distractorTask,1,,,,,,,,,,,,,,,,,,,,,,,,,,425.85648639989085,425.86624230002053,429.1004228000529,[-0.41759259259259257],[-0.41388888888888886],[1],[0],[0],[3.242094499990344],['button_incorrect'],429.1009515998885,430.1040020000655,,,,,,,,,,,,,,,,,,,,,,,,,,,,,,,,,,,,,1,2023-11-27_10h29.34.138,watkins1,2023.2.3,99.73072698371853,15,2023-11-27 10h29.41.664525 +0000,
(6 x 3) + 10 = 27 ,Incorrect,button_incorrect,,,,,,,,,,,,,0,6,6,8,,,,,,,,,430.1139843000565,,,,,,,,,,,,,,['button_incorrect'],[4.869392100023106],,,,,,,,,,,,,,,,,,,,,,,,,,distractorTask,1,,,,,,,,,,,,,,,,,,,,,,,,,,430.10419570002705,430.1139843000565,434.9753157000523,[-0.32407407407407407],[-0.375],[1],[0],[0],[4.869392100023106],['button_incorrect'],434.97570489998907,435.9788788999431,,,,,,,,,,,,,,,,,,,,,,,,,,,,,,,,,,,,,1,2023-11-27_10h29.34.138,watkins1,2023.2.3,99.73072698371853,15,2023-11-27 10h29.41.664525 +0000,
(9 x 5) - 9 = 36 ,Correct,button_correct,,,,,,,,,,,,,0,7,7,4,,,,,,,,,435.9888666998595,,,,,,,,,,,,,,['button_correct'],[4.768335900036618],,,,,,,,,,,,,,,,,,,,,,,,,,distractorTask,1,,,,,,,,,,,,,,,,,,,,,,,,,,435.97907570004463,435.9888666998595,440.74911369988695,[0.375],[-0.3861111111111111],[1],[0],[0],[4.768335900036618],['button_correct'],440.74950849986635,441.75276459986344,,,,,,,,,,,,,,,,,,,,,,,,,,,,,,,,,,,,,1,2023-11-27_10h29.34.138,watkins1,2023.2.3,99.73072698371853,15,2023-11-27 10h29.41.664525 +0000,
(40 : 5) + 8 = 15 ,Incorrect,button_incorrect,,,,,,,,,,,,,0,8,8,7,,,,,,,,,441.7627518000081,,,,,,,,,,,,,,['button_incorrect'],[5.531481999903917],,,,,,,,,,,,,,,,,,,,,,,,,,distractorTask,1,,,,,,,,,,,,,,,,,,,,,,,,,,441.75295739993453,441.7627518000081,447.28619199991226,[-0.2898148148148148],[-0.41944444444444445],[1],[0],[0],[5.531481999903917],['button_incorrect'],447.2865809998475,448.2897793999873,,,,,,,,,,,,,,,,,,,,,,,,,,,,,,,,,,,,,1,2023-11-27_10h29.34.138,watkins1,2023.2.3,99.73072698371853,15,2023-11-27 10h29.41.664525 +0000,
(2 x 5) + 3 = 13 ,Correct,button_correct,,,,,,,,,,,,,0,9,9,2,,,,,,,,,448.29976610001177,,,,,,,,,,,,,,['button_correct'],[2.31864139996469],,,,,,,,,,,,,,,,,,,,,,,,,,distractorTask,1,,,,,,,,,,,,,,,,,,,,,,,,,,448.289975799853,448.29976610001177,450.61037050001323,[0.39444444444444443],[-0.4222222222222222],[1],[0],[0],[2.31864139996469],['button_correct'],450.6107558000367,451.61414860002697,,,,,,,,,,,,,,,,,,,,,,,,,,,,,,,,,,,,,1,2023-11-27_10h29.34.138,watkins1,2023.2.3,99.73072698371853,15,2023-11-27 10h29.41.664525 +0000,
,,,,,,,,,,,,,,,,,,,,,,,,,,,,,,,,,,,,,,,,,,,,,,,,,,,,,,,,,,,,,,,,,,,,,1,,,,,,,,,,,,,,,,,,,,,,,,,,,,,,,,,,,,,,,,,,,,,,,,,,,,,,,,,,,,,,,,,,,,,,,,,,1,2023-11-27_10h29.34.138,watkins1,2023.2.3,99.73072698371853,15,2023-11-27 10h29.41.664525 +0000,
,,,,,,,,,,,,,,,,,,,0,0,0,0,,,,,464.4072749998886,,,,,,,,,,,,,,klobig,6.30546379997395,,,,,,,,,,,,3.9055997999385,None,,,,,,,,,,,,,freeRecallSub,1,,,,,,,,,,,,,,,,,,,,,,,,,,,,,,,,,,,,,,464.3985522999428,464.4072749998886,464.4072749998886,470.7138261999935,return,6.30546379997395,None,klobig,[0.032407407407407406],[0.06388888888888888],[1],[0],[0],[1.3141874000430107],[],,,,,,,,,,,,,,,,,,,,,,1,2023-11-27_10h29.34.138,watkins1,2023.2.3,99.73072698371853,15,2023-11-27 10h29.41.664525 +0000,
,,,,,,,,,,,,,,,,,,,1,0,1,0,,,,,470.72617410006933,,,,,,,,,,,,,,lang,2.978466199943796,,,,,,,,,,,,0.966537400148809,None,,,,,,,,,,,,,freeRecallSub,1,,,,,,,,,,,,,,,,,,,,,,,,,,,,,,,,,,,,,,470.7156561999582,470.72617410006933,470.72617410006933,473.7106071000453,return,2.978466199943796,None,lang,[],[],[],[],[],[],[],,,,,,,,,,,,,,,,,,,,,,1,2023-11-27_10h29.34.138,watkins1,2023.2.3,99.73072698371853,15,2023-11-27 10h29.41.664525 +0000,
,,,,,,,,,,,,,,,,,,,2,0,2,0,,,,,473.72118630004115,,,,,,,,,,,,,,breit,2.0875532999634743,,,,,,,,,,,,0.983742699958384,None,,,,,,,,,,,,,freeRecallSub,1,,,,,,,,,,,,,,,,,,,,,,,,,,,,,,,,,,,,,,473.71187809994444,473.72118630004115,473.72118630004115,475.8104743999429,return,2.0875532999634743,None,breit,[],[],[],[],[],[],[],,,,,,,,,,,,,,,,,,,,,,1,2023-11-27_10h29.34.138,watkins1,2023.2.3,99.73072698371853,15,2023-11-27 10h29.41.664525 +0000,
,,,,,,,,,,,,,,,,,,,3,0,3,0,,,,,475.8210086999461,,,,,,,,,,,,,,kurz,2.123680900083855,,,,,,,,,,,,1.2148537000175565,None,,,,,,,,,,,,,freeRecallSub,1,,,,,,,,,,,,,,,,,,,,,,,,,,,,,,,,,,,,,,475.8117374998983,475.8210086999461,475.8210086999461,477.9505022999365,return,2.123680900083855,None,kurz,[],[],[],[],[],[],[],,,,,,,,,,,,,,,,,,,,,,1,2023-11-27_10h29.34.138,watkins1,2023.2.3,99.73072698371853,15,2023-11-27 10h29.41.664525 +0000,
,,,,,,,,,,,,,,,,,,,4,0,4,0,,,,,477.96118650003336,,,,,,,,,,,,,,glänzend,2.9034610998351127,,,,,,,,,,,,0.9037060001865029,None,,,,,,,,,,,,,freeRecallSub,1,,,,,,,,,,,,,,,,,,,,,,,,,,,,,,,,,,,,,,477.9517639998812,477.96118650003336,477.96118650003336,480.87359469989315,return,2.9034610998351127,None,glänzend,[],[],[],[],[],[],[],,,,,,,,,,,,,,,,,,,,,,1,2023-11-27_10h29.34.138,watkins1,2023.2.3,99.73072698371853,15,2023-11-27 10h29.41.664525 +0000,
,,,,,,,,,,,,,,,,,,,5,0,5,0,,,,,480.88478149985895,,,,,,,,,,,,,,matt,14.7398986001499,,,,,,,,,,,,13.877522099995986,None,,,,,,,,,,,,,freeRecallSub,1,,,,,,,,,,,,,,,,,,,,,,,,,,,,,,,,,,,,,,480.8748703999445,480.88478149985895,480.88478149985895,495.6261974000372,return,14.7398986001499,None,matt,[],[],[],[],[],[],[],,,,,,,,,,,,,,,,,,,,,,1,2023-11-27_10h29.34.138,watkins1,2023.2.3,99.73072698371853,15,2023-11-27 10h29.41.664525 +0000,
,,,,,,,,,,,,,,,,,,,6,0,6,0,,,,,495.63737290003337,,,,,,,,,,,,,,elegant,4.755321899894625,,,,,,,,,,,,3.5155094999354333,None,,,,,,,,,,,,,freeRecallSub,1,,,,,,,,,,,,,,,,,,,,,,,,,,,,,,,,,,,,,,495.62754729995504,495.63737290003337,495.63737290003337,500.3983390999492,return,4.755321899894625,None,elegant,[],[],[],[],[],[],[],,,,,,,,,,,,,,,,,,,,,,1,2023-11-27_10h29.34.138,watkins1,2023.2.3,99.73072698371853,15,2023-11-27 10h29.41.664525 +0000,
,,,,,,,,,,,,,,,,,,,7,0,7,0,,,,,500.40954749984667,,,,,,,,,,,,,,flauschig,10.863107899902388,,,,,,,,,,,,9.329371599946171,None,,,,,,,,,,,,,freeRecallSub,1,,,,,,,,,,,,,,,,,,,,,,,,,,,,,,,,,,,,,,500.39961740002036,500.40954749984667,500.40954749984667,511.27552969986573,return,10.863107899902388,None,flauschig,[],[],[],[],[],[],[],,,,,,,,,,,,,,,,,,,,,,1,2023-11-27_10h29.34.138,watkins1,2023.2.3,99.73072698371853,15,2023-11-27 10h29.41.664525 +0000,
,,,,,,,,,,,,,,,,,,,8,0,8,0,,,,,511.2875033998862,,,,,,,,,,,,,,kaputt,21.761159300105646,,,,,,,,,,,,20.32796259992756,None,,,,,,,,,,,,,freeRecallSub,1,,,,,,,,,,,,,,,,,,,,,,,,,,,,,,,,,,,,,,511.27681010006927,511.2875033998862,511.2875033998862,533.0508967998903,return,21.761159300105646,None,kaputt,[],[],[],[],[],[],[],,,,,,,,,,,,,,,,,,,,,,1,2023-11-27_10h29.34.138,watkins1,2023.2.3,99.73072698371853,15,2023-11-27 10h29.41.664525 +0000,
,,,,,,,,,,,,,,,,,,,9,0,9,0,,,,,533.0627565998584,,,,,,,,,,,,,,robust,4.105866800062358,,,,,,,,,,,,2.944262200035155,None,,,,,,,,,,,,,freeRecallSub,1,,,,,,,,,,,,,,,,,,,,,,,,,,,,,,,,,,,,,,533.052173800068,533.0627565998584,533.0627565998584,537.171403599903,return,4.105866800062358,None,robust,[],[],[],[],[],[],[],,,,,,,,,,,,,,,,,,,,,,1,2023-11-27_10h29.34.138,watkins1,2023.2.3,99.73072698371853,15,2023-11-27 10h29.41.664525 +0000,
,,,,,,,,,,,,,,,,,,,10,0,10,0,,,,,537.183171399869,,,,,,,,,,,,,,gut,50.729451099876314,,,,,,,,,,,,49.998987099854276,None,,,,,,,,,,,,,freeRecallSub,1,,,,,,,,,,,,,,,,,,,,,,,,,,,,,,,,,,,,,,537.1726807998493,537.183171399869,537.183171399869,587.9147385999095,return,50.729451099876314,None,gut,[],[],[],[],[],[],[],,,,,,,,,,,,,,,,,,,,,,1,2023-11-27_10h29.34.138,watkins1,2023.2.3,99.73072698371853,15,2023-11-27 10h29.41.664525 +0000,
,,,,,,,,,,,,,,,,,,,11,0,11,0,,,,,587.9267064998858,,,,,,,,,,,,,,teuer,6.7858374998904765,,,,,,,,,,,,5.917627800023183,None,,,,,,,,,,,,,freeRecallSub,1,,,,,,,,,,,,,,,,,,,,,,,,,,,,,,,,,,,,,,587.9160378000233,587.9267064998858,587.9267064998858,594.7173702998552,return,6.7858374998904765,None,teuer,[],[],[],[],[],[],[],,,,,,,,,,,,,,,,,,,,,,1,2023-11-27_10h29.34.138,watkins1,2023.2.3,99.73072698371853,15,2023-11-27 10h29.41.664525 +0000,
,,,,,,,,,,,,,,,,,,,12,0,12,0,,,,,594.7297805999406,,,,,,,,,,,,,,flach,14.326812000013888,,,,,,,,,,,,13.307961700018495,None,,,,,,,,,,,,,freeRecallSub,1,,,,,,,,,,,,,,,,,,,,,,,,,,,,,,,,,,,,,,594.7186360000633,594.7297805999406,594.7297805999406,609.0609194000717,return,14.326812000013888,None,flach,[],[],[],[],[],[],[],,,,,,,,,,,,,,,,,,,,,,1,2023-11-27_10h29.34.138,watkins1,2023.2.3,99.73072698371853,15,2023-11-27 10h29.41.664525 +0000,
,,,,,,,,,,,,,,,,,,,13,0,13,0,,,,,609.0735239998903,,,,,,,,,,,,,,gepunktet,14.502965699881315,,,,,,,,,,,,12.685873300069943,None,,,,,,,,,,,,,freeRecallSub,1,,,,,,,,,,,,,,,,,,,,,,,,,,,,,,,,,,,,,,609.0622155000456,609.0735239998903,609.0735239998903,623.5856010999996,return,14.502965699881315,None,gepunktet,[],[],[],[],[],[],[],,,,,,,,,,,,,,,,,,,,,,1,2023-11-27_10h29.34.138,watkins1,2023.2.3,99.73072698371853,15,2023-11-27 10h29.41.664525 +0000,
,,,,,,,,,,,,,,,,,,,14,0,14,0,,,,,623.5982544000726,,,,,,,,,,,,,,,[],,,,,,,,,,,,None,None,,,,,,,,,,,,,freeRecallSub,1,,,,,,,,,,,,,,,,,,,,,,,,,,,,,,,,,,,,,,623.5868754999246,623.5982544000726,623.5982544000726,681.9231062000617,None,,,,[0.21944444444444444],[-0.4083333333333333],[1],[0],[0],[58.330939000006765],"['button_continue', 'continue_text']",,,,,,,,,,,,,,,,,,,,,,1,2023-11-27_10h29.34.138,watkins1,2023.2.3,99.73072698371853,15,2023-11-27 10h29.41.664525 +0000,
,,,,,,,,,,,,,,,,,,,,,,,,,,,,,,,,,,,,,,,,,,,,,,,,,,,,,,,,,,,,,,,,,,,,,1,,,,,,,,,,,,,,,,,,,,,,,,,,,,,,,,,,,,,,,,,,,,,,,,,,,,,,,,,,,,,,,,,,,,,,,,,,1,2023-11-27_10h29.34.138,watkins1,2023.2.3,99.73072698371853,15,2023-11-27 10h29.41.664525 +0000,
,,,,,,,,,,,,,,,,,,,,,,,0,0,0,0,697.6326764000114,,,,,,,,,,719.1122520000208,719.6034685000777,,,voll,10.863672700012103,,,,,,,,,,,,9.950003000209108,None,,,,,,,,,,Kiste,,,cuedRecallAdj,1,,,,,,,,,,,,,,,,,,,,,,,,,,,,,,,,,,,,,,,,,,,,,,,,,,,,,697.6237178000156,697.6326764000114,0,697.6326764000114,708.4982566998806,lang,return,10.863672700012103,None,708.4986566998996,708.5078030999284,708.5078030999284,719.1118538000155,voll,return,10.596803799970075,None,,,,,1,2023-11-27_10h29.34.138,watkins1,2023.2.3,99.73072698371853,15,2023-11-27 10h29.41.664525 +0000,
,,,,,,,,,,,,,,,,,,,,,,,1,0,1,0,719.613502799999,,,,,,,,,,744.8418366999831,745.3402416000608,,,,25.218947399873286,,,,,,,,,,,,None,None,,,,,,,,,,Vase,,,cuedRecallAdj,1,,,,,,,,,,,,,,,,,,,,,,,,,,,,,,,,,,,,,,,,,,,,,,,,,,,,,719.6037109000608,719.613502799999,0,719.613502799999,744.8385886999313,elegant,return,25.218947399873286,None,744.8388578000013,744.8481391998939,744.8481391998939,744.8417332000099,,None,,,,,,,1,2023-11-27_10h29.34.138,watkins1,2023.2.3,99.73072698371853,15,2023-11-27 10h29.41.664525 +0000,
,,,,,,,,,,,,,,,,,,,,,,,2,0,2,0,745.3501858999953,,,,,,,,,,749.048953999998,749.5475465999916,,,,3.6903250000905246,,,,,,,,,,,,None,None,,,,,,,,,,Schere,,,cuedRecallAdj,1,,,,,,,,,,,,,,,,,,,,,,,,,,,,,,,,,,,,,,,,,,,,,,,,,,,,,745.3404868999496,745.3501858999953,0,745.3501858999953,749.0458764999639,klobig,return,3.6903250000905246,None,749.0461442999076,749.0553484000266,749.0553484000266,749.0488519000355,,None,,,,,,,1,2023-11-27_10h29.34.138,watkins1,2023.2.3,99.73072698371853,15,2023-11-27 10h29.41.664525 +0000,
,,,,,,,,,,,,,,,,,,,,,,,3,0,3,0,749.557451599976,,,,,,,,,,766.7291220999323,767.2206498999149,,,praktisch,5.4268821000587195,,,,,,,,,,,,8.374133500037715,None,,,,,,,,,,Hut,,,cuedRecallAdj,1,,,,,,,,,,,,,,,,,,,,,,,,,,,,,,,,,,,,,,,,,,,,,,,,,,,,,749.547791399993,749.557451599976,0,749.557451599976,754.9902977000456,hässlich,return,5.4268821000587195,None,754.9905681000091,754.9999538999982,754.9999538999982,766.7288571000099,praktisch,return,11.720477900002152,None,,,,,1,2023-11-27_10h29.34.138,watkins1,2023.2.3,99.73072698371853,15,2023-11-27 10h29.41.664525 +0000,
,,,,,,,,,,,,,,,,,,,,,,,4,0,4,0,767.2306007998995,,,,,,,,,,793.3525620000437,793.8511385999154,,,,26.113753899931908,,,,,,,,,,,,None,None,,,,,,,,,,Uhr,,,cuedRecallAdj,1,,,,,,,,,,,,,,,,,,,,,,,,,,,,,,,,,,,,,,,,,,,,,,,,,,,,,767.2208903999999,767.2306007998995,0,767.2306007998995,793.34937359998,flexibel,return,26.113753899931908,None,793.3496421000455,793.3590416000225,793.3590416000225,793.3524581999518,,None,,,,,,,1,2023-11-27_10h29.34.138,watkins1,2023.2.3,99.73072698371853,15,2023-11-27 10h29.41.664525 +0000,
,,,,,,,,,,,,,,,,,,,,,,,5,0,5,0,793.8610876998864,,,,,,,,,,811.5347688000184,812.0260876000393,,,gänzend,7.411303000058979,,,,,,,,,,,,6.06437460007146,None,,,,,,,,,,Kerze,,,cuedRecallAdj,1,,,,,,,,,,,,,,,,,,,,,,,,,,,,,,,,,,,,,,,,,,,,,,,,,,,,,793.8513823000249,793.8610876998864,0,793.8610876998864,801.2818932000082,hübsch,return,7.411303000058979,None,801.2821539000142,801.2916895998642,801.2916895998642,811.5345020999666,gänzend,return,10.236556000076234,None,,,,,1,2023-11-27_10h29.34.138,watkins1,2023.2.3,99.73072698371853,15,2023-11-27 10h29.41.664525 +0000,
,,,,,,,,,,,,,,,,,,,,,,,6,0,6,0,812.0360302000772,,,,,,,,,,817.7341746999882,818.2324454998598,,,,5.69239450013265,,,,,,,,,,,,None,None,,,,,,,,,,Kamera,,,cuedRecallAdj,1,,,,,,,,,,,,,,,,,,,,,,,,,,,,,,,,,,,,,,,,,,,,,,,,,,,,,812.0263251999859,812.0360302000772,0,812.0360302000772,817.7308310999069,sauber,return,5.69239450013265,None,817.7310994998552,817.7403543998953,817.7403543998953,817.7340732000303,,None,,,,,,,1,2023-11-27_10h29.34.138,watkins1,2023.2.3,99.73072698371853,15,2023-11-27 10h29.41.664525 +0000,
,,,,,,,,,,,,,,,,,,,,,,,7,0,7,0,818.2423864998855,,,,,,,,,,834.8844560999423,835.3831298998557,,,,16.63794400007464,,,,,,,,,,,,None,None,,,,,,,,,,Kette,,,cuedRecallAdj,1,,,,,,,,,,,,,,,,,,,,,,,,,,,,,,,,,,,,,,,,,,,,,,,,,,,,,818.2326918998733,818.2423864998855,0,818.2423864998855,834.8815782000311,fett,return,16.63794400007464,None,834.8818443999626,834.8911083999556,834.8911083999556,834.8843546998687,,None,,,,,,,1,2023-11-27_10h29.34.138,watkins1,2023.2.3,99.73072698371853,15,2023-11-27 10h29.41.664525 +0000,
,,,,,,,,,,,,,,,,,,,,,,,8,0,8,0,835.3930376998615,,,,,,,,,,848.8527829998638,849.3511619998608,,,,13.455205400008708,,,,,,,,,,,,None,None,,,,,,,,,,Schlüssel,,,cuedRecallAdj,1,,,,,,,,,,,,,,,,,,,,,,,,,,,,,,,,,,,,,,,,,,,,,,,,,,,,,835.3833753999788,835.3930376998615,0,835.3930376998615,848.849546500016,praktisch,return,13.455205400008708,None,848.8498130999506,848.8590494999662,848.8590494999662,848.8526812999044,,None,,,,,,,1,2023-11-27_10h29.34.138,watkins1,2023.2.3,99.73072698371853,15,2023-11-27 10h29.41.664525 +0000,
,,,,,,,,,,,,,,,,,,,,,,,9,0,9,0,849.3611673999112,,,,,,,,,,852.7886439999565,853.2875039998908,,,,3.423145900014788,,,,,,,,,,,,None,None,,,,,,,,,,Eimer,,,cuedRecallAdj,1,,,,,,,,,,,,,,,,,,,,,,,,,,,,,,,,,,,,,,,,,,,,,,,,,,,,,849.3514149999246,849.3611673999112,0,849.3611673999112,852.7857134998776,breit,return,3.423145900014788,None,852.7859807999339,852.7953306999989,852.7953306999989,852.7885408999864,,None,,,,,,,1,2023-11-27_10h29.34.138,watkins1,2023.2.3,99.73072698371853,15,2023-11-27 10h29.41.664525 +0000,
,,,,,,,,,,,,,,,,,,,,,,,10,0,10,0,853.2974495999515,,,,,,,,,,867.1450459000189,867.6365761000197,,,glatt,2.7668663999065757,,,,,,,,,,,,9.94021310005337,None,,,,,,,,,,Socke,,,cuedRecallAdj,1,,,,,,,,,,,,,,,,,,,,,,,,,,,,,,,,,,,,,,,,,,,,,,,,,,,,,853.2877531000413,853.2974495999515,0,853.2974495999515,856.0693756998517,kurz,return,2.7668663999065757,None,856.0696417000145,856.078882599948,856.078882599948,867.1447765999474,glatt,return,11.057438400108367,None,,,,,1,2023-11-27_10h29.34.138,watkins1,2023.2.3,99.73072698371853,15,2023-11-27 10h29.41.664525 +0000,
,,,,,,,,,,,,,,,,,,,,,,,11,0,11,0,867.6465274998918,,,,,,,,,,880.47302819998,880.9716167999431,,,,12.817650099983439,,,,,,,,,,,,None,None,,,,,,,,,,Buch,,,cuedRecallAdj,1,,,,,,,,,,,,,,,,,,,,,,,,,,,,,,,,,,,,,,,,,,,,,,,,,,,,,867.6368177998811,867.6465274998918,0,867.6465274998918,880.4699124998879,breit,return,12.817650099983439,None,880.4701821999624,880.4794759000652,880.4794759000652,880.4729255998973,,None,,,,,,,1,2023-11-27_10h29.34.138,watkins1,2023.2.3,99.73072698371853,15,2023-11-27 10h29.41.664525 +0000,
,,,,,,,,,,,,,,,,,,,,,,,12,0,12,0,880.9815545000602,,,,,,,,,,896.7396207000129,897.2381475998554,,,,15.74671719991602,,,,,,,,,,,,None,None,,,,,,,,,,Bürste,,,cuedRecallAdj,1,,,,,,,,,,,,,,,,,,,,,,,,,,,,,,,,,,,,,,,,,,,,,,,,,,,,,880.9718591999263,880.9815545000602,0,880.9815545000602,896.7363722000737,praktisch,return,15.74671719991602,None,896.7366418000311,896.746190099977,896.746190099977,896.7395176000427,,None,,,,,,,1,2023-11-27_10h29.34.138,watkins1,2023.2.3,99.73072698371853,15,2023-11-27 10h29.41.664525 +0000,
,,,,,,,,,,,,,,,,,,,,,,,13,0,13,0,897.2482006000355,,,,,,,,,,913.4574229000136,913.9487769999541,,,kalt,10.991955599980429,,,,,,,,,,,,3.3932781000621617,None,,,,,,,,,,Löffel,,,cuedRecallAdj,1,,,,,,,,,,,,,,,,,,,,,,,,,,,,,,,,,,,,,,,,,,,,,,,,,,,,,897.2383930999786,897.2482006000355,0,897.2482006000355,908.2456809999421,krumm,return,10.991955599980429,None,908.245950799901,908.2552942999173,908.2552942999173,913.4571553000715,kalt,return,5.20093289995566,None,,,,,1,2023-11-27_10h29.34.138,watkins1,2023.2.3,99.73072698371853,15,2023-11-27 10h29.41.664525 +0000,
,,,,,,,,,,,,,,,,,,,,,,,14,0,14,0,913.9587315998506,,,,,,,,,,940.8905618998688,941.3820265000686,,,kalt,25.041499400045723,,,,,,,,,,,,1.2442816998809576,None,,,,,,,,,,Flasche,,,cuedRecallAdj,1,,,,,,,,,,,,,,,,,,,,,,,,,,,,,,,,,,,,,,,,,,,,,,,,,,,,,913.9490193000529,913.9587315998506,0,913.9587315998506,939.0026729998644,praktisch,return,25.041499400045723,None,939.0029587999452,939.0122229999397,939.0122229999397,940.8902936000377,kalt,return,1.8679335000924766,None,,,,,1,2023-11-27_10h29.34.138,watkins1,2023.2.3,99.73072698371853,15,2023-11-27 10h29.41.664525 +0000,
,,,,,,,,,,,,,,,,,,,,,,,15,0,15,0,941.3919354998507,,,,,,,,,,950.9720862999093,951.4633808999788,,,groß,4.400171699933708,,,,,,,,,,,,4.066214099992067,None,,,,,,,,,,Tasche,,,cuedRecallAdj,1,,,,,,,,,,,,,,,,,,,,,,,,,,,,,,,,,,,,,,,,,,,,,,,,,,,,,941.3822711000685,941.3919354998507,0,941.3919354998507,945.800366200041,dreckig,return,4.400171699933708,None,945.800630700076,945.8101856000721,945.8101856000721,950.9718186999671,groß,return,5.158022999996319,None,,,,,1,2023-11-27_10h29.34.138,watkins1,2023.2.3,99.73072698371853,15,2023-11-27 10h29.41.664525 +0000,
,,,,,,,,,,,,,,,,,,,,,,,16,0,16,0,951.4733293000609,,,,,,,,,,962.0008793999441,962.499417899875,,,,10.518789099995047,,,,,,,,,,,,None,None,,,,,,,,,,Lampe,,,cuedRecallAdj,1,,,,,,,,,,,,,,,,,,,,,,,,,,,,,,,,,,,,,,,,,,,,,,,,,,,,,951.4636237998493,951.4733293000609,0,951.4733293000609,961.997614899883,grell,return,10.518789099995047,None,961.997879399918,962.0071806998458,962.0071806998458,962.0007765998598,,None,,,,,,,1,2023-11-27_10h29.34.138,watkins1,2023.2.3,99.73072698371853,15,2023-11-27 10h29.41.664525 +0000,
,,,,,,,,,,,,,,,,,,,,,,,17,0,17,0,962.5093215999659,,,,,,,,,,970.2444889000617,970.7432524999604,,,,7.722873600199819,,,,,,,,,,,,None,None,,,,,,,,,,Würfel,,,cuedRecallAdj,1,,,,,,,,,,,,,,,,,,,,,,,,,,,,,,,,,,,,,,,,,,,,,,,,,,,,,962.4996606998611,962.5093215999659,0,962.5093215999659,970.2414414000232,biegsam,return,7.722873600199819,None,970.2417053999379,970.2511585999746,970.2511585999746,970.2443862999789,,None,,,,,,,1,2023-11-27_10h29.34.138,watkins1,2023.2.3,99.73072698371853,15,2023-11-27 10h29.41.664525 +0000,
,,,,,,,,,,,,,,,,,,,,,,,18,0,18,0,970.7531977999024,,,,,,,,,,983.3356721000746,983.8270715000108,,,nass,4.5029102000407875,,,,,,,,,,,,7.158709899988025,None,,,,,,,,,,Jacke,,,cuedRecallAdj,1,,,,,,,,,,,,,,,,,,,,,,,,,,,,,,,,,,,,,,,,,,,,,,,,,,,,,970.7434962999541,970.7531977999024,0,970.7531977999024,975.2621990998741,gut,return,4.5029102000407875,None,975.2624852000736,975.2717064998578,975.2717064998578,983.3354026998859,nass,return,8.05645120004192,None,,,,,1,2023-11-27_10h29.34.138,watkins1,2023.2.3,99.73072698371853,15,2023-11-27 10h29.41.664525 +0000,
,,,,,,,,,,,,,,,,,,,,,,,19,0,19,0,983.837022199994,,,,,,,,,,989.9447635000106,990.4340885998681,,,,6.099078000057489,,,,,,,,,,,,None,None,,,,,,,,,,Fahrrad,,,cuedRecallAdj,1,,,,,,,,,,,,,,,,,,,,,,,,,,,,,,,,,,,,,,,,,,,,,,,,,,,,,983.8273181999102,983.837022199994,0,983.837022199994,989.942544599995,gut,return,6.099078000057489,None,989.9428075000178,989.9521261998452,989.9521261998452,989.944660600042,,None,,,,,,,1,2023-11-27_10h29.34.138,watkins1,2023.2.3,99.73072698371853,15,2023-11-27 10h29.41.664525 +0000,
,,,,,,,,,,,,,,,,,,,,,,,20,0,20,0,990.4440862999763,,,,,,,,,,1010.5380563000217,1011.0295323000755,,,gut,5.028014000039548,,,,,,,,,,,,14.669556899927557,None,,,,,,,,,,Hammer,,,cuedRecallAdj,1,,,,,,,,,,,,,,,,,,,,,,,,,,,,,,,,,,,,,,,,,,,,,,,,,,,,,990.4343367998954,990.4440862999763,0,990.4440862999763,995.4760759000201,teuer,return,5.028014000039548,None,995.4763416999485,995.4856248998549,995.4856248998549,1010.5377887999639,gut,return,15.042420900193974,None,,,,,1,2023-11-27_10h29.34.138,watkins1,2023.2.3,99.73072698371853,15,2023-11-27 10h29.41.664525 +0000,
,,,,,,,,,,,,,,,,,,,,,,,21,0,21,0,1011.0394762998912,,,,,,,,,,1015.3004357998725,1015.7990723999683,,,,4.248669900000095,,,,,,,,,,,,None,None,,,,,,,,,,Stift,,,cuedRecallAdj,1,,,,,,,,,,,,,,,,,,,,,,,,,,,,,,,,,,,,,,,,,,,,,,,,,,,,,1011.0297719000373,1011.0394762998912,0,1011.0394762998912,1015.2971713999286,kaputt,return,4.248669900000095,None,1015.2974354000762,1015.3069332998712,1015.3069332998712,1015.3003332999069,,None,,,,,,,1,2023-11-27_10h29.34.138,watkins1,2023.2.3,99.73072698371853,15,2023-11-27 10h29.41.664525 +0000,
,,,,,,,,,,,,,,,,,,,,,,,22,0,22,0,1015.8090245998465,,,,,,,,,,1033.462706899969,1033.9541068999097,,,hilfreich,13.135143500054255,,,,,,,,,,,,2.9319177998695523,None,,,,,,,,,,Telefon,,,cuedRecallAdj,1,,,,,,,,,,,,,,,,,,,,,,,,,,,,,,,,,,,,,,,,,,,,,,,,,,,,,1015.7993137000594,1015.8090245998465,0,1015.8090245998465,1028.9533466000576,elegant,return,13.135143500054255,None,1028.9536158998962,1028.9630620998796,1028.9630620998796,1033.4624373998959,hilfreich,return,4.49305190006271,None,,,,,1,2023-11-27_10h29.34.138,watkins1,2023.2.3,99.73072698371853,15,2023-11-27 10h29.41.664525 +0000,
,,,,,,,,,,,,,,,,,,,,,,,23,0,23,0,1033.9640565998852,,,,,,,,,,1052.483812399907,1052.9822694000322,,,,18.508055899990723,,,,,,,,,,,,None,None,,,,,,,,,,Trommel,,,cuedRecallAdj,1,,,,,,,,,,,,,,,,,,,,,,,,,,,,,,,,,,,,,,,,,,,,,,,,,,,,,1033.9543516000267,1033.9640565998852,0,1033.9640565998852,1052.4804459000006,laut,return,18.508055899990723,None,1052.480710899923,1052.4901262999047,1052.4901262999047,1052.483710099943,,None,,,,,,,1,2023-11-27_10h29.34.138,watkins1,2023.2.3,99.73072698371853,15,2023-11-27 10h29.41.664525 +0000,
,,,,,,,,,,,,,,,,,,,,,,,24,0,24,0,1052.9922165998723,,,,,,,,,,1073.8088581999764,1074.3001999000553,,,hübsch,11.263880700105801,,,,,,,,,,,,7.520390499848872,None,,,,,,,,,,Blume,,,cuedRecallAdj,1,,,,,,,,,,,,,,,,,,,,,,,,,,,,,,,,,,,,,,,,,,,,,,,,,,,,,1052.9825160999317,1052.9922165998723,0,1052.9922165998723,1064.2590657998808,gepunktet,return,11.263880700105801,None,1064.2593338000588,1064.268601999851,1064.268601999851,1073.8085910999216,hübsch,return,9.5395047001075,None,,,,,1,2023-11-27_10h29.34.138,watkins1,2023.2.3,99.73072698371853,15,2023-11-27 10h29.41.664525 +0000,
,,,,,,,,,,,,,,,,,,,,,,,25,0,25,0,1074.3101468998939,,,,,,,,,,1098.2195566999726,1098.7108632000163,,,klobig,6.465821499936283,,,,,,,,,,,,16.266001400072128,None,,,,,,,,,,Brille,,,cuedRecallAdj,1,,,,,,,,,,,,,,,,,,,,,,,,,,,,,,,,,,,,,,,,,,,,,,,,,,,,,1074.300451299874,1074.3101468998939,0,1074.3101468998939,1080.7773189998697,flach,return,6.465821499936283,None,1080.7775856000371,1080.7868397000711,1080.7868397000711,1098.219286999898,klobig,return,17.429263799916953,None,,,,,1,2023-11-27_10h29.34.138,watkins1,2023.2.3,99.73072698371853,15,2023-11-27 10h29.41.664525 +0000,
,,,,,,,,,,,,,,,,,,,,,,,26,0,26,0,1098.7209160998464,,,,,,,,,,1125.4113467999268,1125.9026840999722,,,geschnliffen,17.511114900000393,,,,,,,,,,,,1.09379420010373,None,,,,,,,,,,Geige,,,cuedRecallAdj,1,,,,,,,,,,,,,,,,,,,,,,,,,,,,,,,,,,,,,,,,,,,,,,,,,,,,,1098.711111899931,1098.7209160998464,0,1098.7209160998464,1116.2332816000562,gut,return,17.511114900000393,None,1116.2335510998964,1116.2429350998718,1116.2429350998718,1125.4110787999816,geschnliffen,return,9.164993799990043,None,,,,,1,2023-11-27_10h29.34.138,watkins1,2023.2.3,99.73072698371853,15,2023-11-27 10h29.41.664525 +0000,
,,,,,,,,,,,,,,,,,,,,,,,27,0,27,0,1125.9126229998656,,,,,,,,,,1157.8564553000033,1158.3479144999292,,,praktisch,26.82333940011449,,,,,,,,,,,,2.479536300059408,None,,,,,,,,,,Rucksack,,,cuedRecallAdj,1,,,,,,,,,,,,,,,,,,,,,,,,,,,,,,,,,,,,,,,,,,,,,,,,,,,,,1125.9029236000497,1125.9126229998656,0,1125.9126229998656,1152.745259999996,dünn,return,26.82333940011449,None,1152.745525599923,1152.7549806998577,1152.7549806998577,1157.8561875000596,praktisch,return,5.092982300091535,None,,,,,1,2023-11-27_10h29.34.138,watkins1,2023.2.3,99.73072698371853,15,2023-11-27 10h29.41.664525 +0000,
,,,,,,,,,,,,,,,,,,,,,,,28,0,28,0,1158.3579152000602,,,,,,,,,,1168.2294175999705,1168.7207977999933,,,breit,5.746144999982789,,,,,,,,,,,,3.4336161999963224,None,,,,,,,,,,Tasse,,,cuedRecallAdj,1,,,,,,,,,,,,,,,,,,,,,,,,,,,,,,,,,,,,,,,,,,,,,,,,,,,,,1158.3481626999564,1158.3579152000602,0,1158.3579152000602,1164.112015799852,matt,return,5.746144999982789,None,1164.112284899922,1164.1216982000042,1164.1216982000042,1168.2291474998929,breit,return,4.10222340002656,None,,,,,1,2023-11-27_10h29.34.138,watkins1,2023.2.3,99.73072698371853,15,2023-11-27 10h29.41.664525 +0000,
,,,,,,,,,,,,,,,,,,,,,,,29,0,29,0,1168.7307565999217,,,,,,,,,,1174.4679397,1174.9664610000327,,,,5.725214599864557,,,,,,,,,,,,None,None,,,,,,,,,,Ring,,,cuedRecallAdj,1,,,,,,,,,,,,,,,,,,,,,,,,,,,,,,,,,,,,,,,,,,,,,,,,,,,,,1168.721041599987,1168.7307565999217,0,1168.7307565999217,1174.4645269999746,flauschig,return,5.725214599864557,None,1174.464792799903,1174.474218599964,1174.474218599964,1174.467837000033,,None,,,,,,,1,2023-11-27_10h29.34.138,watkins1,2023.2.3,99.73072698371853,15,2023-11-27 10h29.41.664525 +0000,
,,,,,,,,,,,,,,,,,,,,,,,,,,,,,,,,,,,,,,,,,,,,,,,,,,,,,,,,,,,,,,,,,,,,,1,,,,,,,,,,,,,,,,,,,,,,,,,,,,,,,,,,,,,,,,,,,,,,,,,,,,,,,,,,,,,,,,,,,,,,1174.983028799994,q,2439.5423966001254,None,1,2023-11-27_10h29.34.138,watkins1,2023.2.3,99.73072698371853,15,2023-11-27 10h29.41.664525 +0000,
