Equation,CorrectResponse,Correctbutton,trials_7.thisRepN,trials_7.thisTrialN,trials_7.thisN,trials_7.thisIndex,trials.thisRepN,trials.thisTrialN,trials.thisN,trials.thisIndex,trials_3.thisRepN,trials_3.thisTrialN,trials_3.thisN,trials_3.thisIndex,trials_2.thisRepN,trials_2.thisTrialN,trials_2.thisN,trials_2.thisIndex,trials_4.thisRepN,trials_4.thisTrialN,trials_4.thisN,trials_4.thisIndex,trials_5.thisRepN,trials_5.thisTrialN,trials_5.thisN,trials_5.thisIndex,thisRow.t,notes,list_sub_restudy,list_sub_testsub,code_marius.started,code_marius.stopped,welcome.started,welcome.stopped,instruction_study.started,instruction_study.stopped,fixationcross.started,fixationcross.stopped,blanc.started,blanc.stopped,study_control_probe.started,study_control_probe.stopped,responseKey,responseTime,scale_answer_2.keys,study_control_probe_2.started,study_control_probe_2.stopped,scale_answer_3.keys,scale_answer_3.rt,scale_answer_3.duration,blanc_2.started,blanc_2.stopped,test_attr_probe.started,test_attr_probe.stopped,recalled_attr,firstKeyTime,secondWordTime,blanc_3.started,blanc_3.stopped,test_sub_probe.started,test_sub_probe.stopped,recalled_sub,instruction_probe_end.started,instruction_probe_end.stopped,study.started,study.stopped,substantive,adjective,wordpair,task,condition,liste_sub_phase1,liste_adj_phase1,scale_answer.keys,scale_answer.rt,scale_answer.duration,code_defineWordsInit.started,code_defineWordsInit.stopped,liste_sub_phase2,study_control.started,study_control.stopped,scale_answer_4.keys,restudy_same.started,restudy_same.stopped,scale_answer_5.keys,restudy_different.started,restudy_different.stopped,scale_answer_6.keys,test_attr.started,test_attr.stopped,test_sub.started,correct,test_sub.stopped,scale_answer_5.rt,scale_answer_5.duration,distractortask.started,equation_text.started,distractortask.stopped,mouse_answer.x,mouse_answer.y,mouse_answer.leftButton,mouse_answer.midButton,mouse_answer.rightButton,mouse_answer.time,mouse_answer.clicked_name,feedback_distractortask.started,feedback_distractortask.stopped,free_recall.started,text_enter.started,key_resp.started,free_recall.stopped,key_resp.keys,key_resp.rt,key_resp.duration,free_recalled_sub,mouse_continue.x,mouse_continue.y,mouse_continue.leftButton,mouse_continue.midButton,mouse_continue.rightButton,mouse_continue.time,mouse_continue.clicked_name,cued_recall.started,text_enter_2.started,key_continue.started,cued_recall.stopped,recalled_attr1,key_continue.keys,key_continue.rt,key_continue.duration,cued_recall_2.started,text_enter_3.started,key_continue_2.started,cued_recall_2.stopped,recalled_attr2,key_continue_2.keys,key_resp_8.started,key_resp_8.keys,key_resp_8.rt,key_resp_8.duration,condition,date,expName,psychopyVersion,frameRate,participant,expStart,
,,,,,,,,,,,,,,,,,,,,,,,,,,,,,"['Ring', 'Rucksack', 'Löffel', 'Kamera', 'Geige', 'Tasse', 'Lampe', 'Buch', 'Jacke', 'Brille', 'Flasche', 'Socke', 'Kiste', 'Tasche', 'Kette']","['Fahrrad', 'Würfel', 'Eimer', 'Uhr', 'Schlüssel', 'Hut', 'Blume', 'Stift', 'Trommel', 'Schere', 'Bürste', 'Kerze', 'Telefon', 'Hammer', 'Vase']",0.11198000004515052,0.11204940034076571,0.11205750005319715,3.8614586000330746,,,,,,,,,,,,,,,,,,,,,,,,,,,,,,,,,,,,,2,,,,,,,,,,,,,,,,,,,,,,,,,,,,,,,,,,,,,,,,,,,,,,,,,,,,,,,,,,,,,,,,,,,,,,2,2023-12-12_09h35.58.314,watkins1,2023.2.3,99.76107229396426,61,2023-12-12 09h36.09.626612 +0000,
,,,,,,,,,,,,,,,,,,,,,,,,,,,,,,,,,,,3.8615069002844393,50.07158420002088,,,,,,,,,,,,,,,,,,,,,,,,,,,,,,,,,,,2,,,,,,,,,,,,,,,,,,,,,,,,,,,,,,,,,,,,,,,,,,,,,,,,,,,,,,,,,,,,,,,,,,,,,,2,2023-12-12_09h35.58.314,watkins1,2023.2.3,99.76107229396426,61,2023-12-12 09h36.09.626612 +0000,
,,,0,0,0,0,,,,,,,,,,,,,,,,,,,,,51.08512800000608,,,,,,,,,,50.07160199992359,51.07515530008823,57.57721110014245,58.06884190021083,51.56722710002214,57.57704870030284,2,1.6413619001396,None,58.068852700293064,64.075422400143,2,1.6413619001396,None,64.07571669993922,64.07574140001088,64.07574840029702,64.07582780020311,,1.8073859000578523,None,64.07599140005186,64.56695399992168,64.56696460023522,70.57182450033724,Hund,,,,,,,,,2,,,,,,,,,,,,,,,,,,,,,,,,,,,,,,,,,,,,,,,,,,,,,,,,,,,,,,,,,,,,,,,,,,,,,,2,2023-12-12_09h35.58.314,watkins1,2023.2.3,99.76107229396426,61,2023-12-12 09h36.09.626612 +0000,
,,,,,,,,,,,,,,,,,,,,,,,,,,,,,,,,,,,,,,,,,,,,,,,,,,,,,,,,,,,,,,,70.5719829001464,74.4181737001054,,,,,,,2,,,,,,,,,,,,,,,,,,,,,,,,,,,,,,,,,,,,,,,,,,,,,,,,,,,,,,,,,,,,,,,,,,,,,,2,2023-12-12_09h35.58.314,watkins1,2023.2.3,99.76107229396426,61,2023-12-12 09h36.09.626612 +0000,
,,,,,,,0,0,0,0,,,,,,,,,,,,,,,,,75.43224850017577,,,,,,,,,,74.4181900001131,75.42226950032637,75.42272690031677,75.91428200015798,,,1,1.4307919996790588,,,,,,,,,,,,,,,,,,,,,75.91429170034826,81.91727750003338,Tasse,verspielt,"['Tasse', 'verspielt']",restudy,2,"['Tasse', 'Stift', 'Hammer', 'Kamera', 'Vase', 'Rucksack', 'Fahrrad', 'Schere', 'Socke', 'Flasche', 'Würfel', 'Blume', 'Kerze', 'Buch', 'Eimer', 'Tasche', 'Ring', 'Kette', 'Jacke', 'Bürste', 'Hut', 'Löffel', 'Geige', 'Kiste', 'Lampe', 'Telefon', 'Schlüssel', 'Uhr', 'Brille', 'Trommel']",['verspielt'],1,1.4307919996790588,None,,,,,,,,,,,,,,,,,,,,,,,,,,,,,,,,,,,,,,,,,,,,,,,,,,,,,,,,,,,,,,,,,2,2023-12-12_09h35.58.314,watkins1,2023.2.3,99.76107229396426,61,2023-12-12 09h36.09.626612 +0000,
,,,,,,,1,0,1,0,,,,,,,,,,,,,,,,,81.92686020024121,,,,,,,,,,,,81.9179238001816,82.4087894000113,,,3,2.2745109000243247,,,,,,,,,,,,,,,,,,,,,82.40880009997636,88.41076870029792,Stift,hübsch,"['Stift', 'hübsch']",test_sub,2,"['Tasse', 'Stift', 'Hammer', 'Kamera', 'Vase', 'Rucksack', 'Fahrrad', 'Schere', 'Socke', 'Flasche', 'Würfel', 'Blume', 'Kerze', 'Buch', 'Eimer', 'Tasche', 'Ring', 'Kette', 'Jacke', 'Bürste', 'Hut', 'Löffel', 'Geige', 'Kiste', 'Lampe', 'Telefon', 'Schlüssel', 'Uhr', 'Brille', 'Trommel']","['verspielt', 'hübsch']",3,2.2745109000243247,None,,,,,,,,,,,,,,,,,,,,,,,,,,,,,,,,,,,,,,,,,,,,,,,,,,,,,,,,,,,,,,,,,2,2023-12-12_09h35.58.314,watkins1,2023.2.3,99.76107229396426,61,2023-12-12 09h36.09.626612 +0000,
,,,,,,,2,0,2,0,,,,,,,,,,,,,,,,,88.4202519999817,,,,,,,,,,,,88.41129419999197,88.90203570015728,,,3,1.5261208000592887,,,,,,,,,,,,,,,,,,,,,88.90204610023648,94.90702220005915,Hammer,schwer,"['Hammer', 'schwer']",test_sub,2,"['Tasse', 'Stift', 'Hammer', 'Kamera', 'Vase', 'Rucksack', 'Fahrrad', 'Schere', 'Socke', 'Flasche', 'Würfel', 'Blume', 'Kerze', 'Buch', 'Eimer', 'Tasche', 'Ring', 'Kette', 'Jacke', 'Bürste', 'Hut', 'Löffel', 'Geige', 'Kiste', 'Lampe', 'Telefon', 'Schlüssel', 'Uhr', 'Brille', 'Trommel']","['verspielt', 'hübsch', 'schwer']",3,1.5261208000592887,None,,,,,,,,,,,,,,,,,,,,,,,,,,,,,,,,,,,,,,,,,,,,,,,,,,,,,,,,,,,,,,,,,2,2023-12-12_09h35.58.314,watkins1,2023.2.3,99.76107229396426,61,2023-12-12 09h36.09.626612 +0000,
,,,,,,,3,0,3,0,,,,,,,,,,,,,,,,,94.91650169994682,,,,,,,,,,,,94.90754280006513,95.39861490018666,,,3,1.421344400383532,,,,,,,,,,,,,,,,,,,,,95.39862580038607,101.40187940001488,Kamera,teuer,"['Kamera', 'teuer']",restudy,2,"['Tasse', 'Stift', 'Hammer', 'Kamera', 'Vase', 'Rucksack', 'Fahrrad', 'Schere', 'Socke', 'Flasche', 'Würfel', 'Blume', 'Kerze', 'Buch', 'Eimer', 'Tasche', 'Ring', 'Kette', 'Jacke', 'Bürste', 'Hut', 'Löffel', 'Geige', 'Kiste', 'Lampe', 'Telefon', 'Schlüssel', 'Uhr', 'Brille', 'Trommel']","['verspielt', 'hübsch', 'schwer', 'teuer']",3,1.421344400383532,None,,,,,,,,,,,,,,,,,,,,,,,,,,,,,,,,,,,,,,,,,,,,,,,,,,,,,,,,,,,,,,,,,2,2023-12-12_09h35.58.314,watkins1,2023.2.3,99.76107229396426,61,2023-12-12 09h36.09.626612 +0000,
,,,,,,,4,0,4,0,,,,,,,,,,,,,,,,,101.41145340027288,,,,,,,,,,,,101.4024292002432,101.89353860029951,,,1,1.3424134999513626,,,,,,,,,,,,,,,,,,,,,101.89354930026457,107.8942995001562,Vase,dick,"['Vase', 'dick']",test_sub,2,"['Tasse', 'Stift', 'Hammer', 'Kamera', 'Vase', 'Rucksack', 'Fahrrad', 'Schere', 'Socke', 'Flasche', 'Würfel', 'Blume', 'Kerze', 'Buch', 'Eimer', 'Tasche', 'Ring', 'Kette', 'Jacke', 'Bürste', 'Hut', 'Löffel', 'Geige', 'Kiste', 'Lampe', 'Telefon', 'Schlüssel', 'Uhr', 'Brille', 'Trommel']","['verspielt', 'hübsch', 'schwer', 'teuer', 'dick']",1,1.3424134999513626,None,,,,,,,,,,,,,,,,,,,,,,,,,,,,,,,,,,,,,,,,,,,,,,,,,,,,,,,,,,,,,,,,,2,2023-12-12_09h35.58.314,watkins1,2023.2.3,99.76107229396426,61,2023-12-12 09h36.09.626612 +0000,
,,,,,,,5,0,5,0,,,,,,,,,,,,,,,,,107.90373959997669,,,,,,,,,,,,107.89482130017132,108.3857248001732,,,1,1.3864694000221789,,,,,,,,,,,,,,,,,,,,,108.38573530036956,114.3960522999987,Rucksack,breit,"['Rucksack', 'breit']",restudy,2,"['Tasse', 'Stift', 'Hammer', 'Kamera', 'Vase', 'Rucksack', 'Fahrrad', 'Schere', 'Socke', 'Flasche', 'Würfel', 'Blume', 'Kerze', 'Buch', 'Eimer', 'Tasche', 'Ring', 'Kette', 'Jacke', 'Bürste', 'Hut', 'Löffel', 'Geige', 'Kiste', 'Lampe', 'Telefon', 'Schlüssel', 'Uhr', 'Brille', 'Trommel']","['verspielt', 'hübsch', 'schwer', 'teuer', 'dick', 'breit']",1,1.3864694000221789,None,,,,,,,,,,,,,,,,,,,,,,,,,,,,,,,,,,,,,,,,,,,,,,,,,,,,,,,,,,,,,,,,,2,2023-12-12_09h35.58.314,watkins1,2023.2.3,99.76107229396426,61,2023-12-12 09h36.09.626612 +0000,
,,,,,,,6,0,6,0,,,,,,,,,,,,,,,,,114.40554200019687,,,,,,,,,,,,114.3965719002299,114.88759800000116,,,1,1.0685839001089334,,,,,,,,,,,,,,,,,,,,,114.88760789996013,120.88924860022962,Fahrrad,dunkel,"['Fahrrad', 'dunkel']",test_sub,2,"['Tasse', 'Stift', 'Hammer', 'Kamera', 'Vase', 'Rucksack', 'Fahrrad', 'Schere', 'Socke', 'Flasche', 'Würfel', 'Blume', 'Kerze', 'Buch', 'Eimer', 'Tasche', 'Ring', 'Kette', 'Jacke', 'Bürste', 'Hut', 'Löffel', 'Geige', 'Kiste', 'Lampe', 'Telefon', 'Schlüssel', 'Uhr', 'Brille', 'Trommel']","['verspielt', 'hübsch', 'schwer', 'teuer', 'dick', 'breit', 'dunkel']",1,1.0685839001089334,None,,,,,,,,,,,,,,,,,,,,,,,,,,,,,,,,,,,,,,,,,,,,,,,,,,,,,,,,,,,,,,,,,2,2023-12-12_09h35.58.314,watkins1,2023.2.3,99.76107229396426,61,2023-12-12 09h36.09.626612 +0000,
,,,,,,,7,0,7,0,,,,,,,,,,,,,,,,,120.89872380020097,,,,,,,,,,,,120.88976179994643,121.38066510017961,,,1,1.895658299792558,,,,,,,,,,,,,,,,,,,,,121.38067580014467,127.39023620029911,Schere,gepunktet,"['Schere', 'gepunktet']",test_sub,2,"['Tasse', 'Stift', 'Hammer', 'Kamera', 'Vase', 'Rucksack', 'Fahrrad', 'Schere', 'Socke', 'Flasche', 'Würfel', 'Blume', 'Kerze', 'Buch', 'Eimer', 'Tasche', 'Ring', 'Kette', 'Jacke', 'Bürste', 'Hut', 'Löffel', 'Geige', 'Kiste', 'Lampe', 'Telefon', 'Schlüssel', 'Uhr', 'Brille', 'Trommel']","['verspielt', 'hübsch', 'schwer', 'teuer', 'dick', 'breit', 'dunkel', 'gepunktet']",1,1.895658299792558,None,,,,,,,,,,,,,,,,,,,,,,,,,,,,,,,,,,,,,,,,,,,,,,,,,,,,,,,,,,,,,,,,,2,2023-12-12_09h35.58.314,watkins1,2023.2.3,99.76107229396426,61,2023-12-12 09h36.09.626612 +0000,
,,,,,,,8,0,8,0,,,,,,,,,,,,,,,,,127.39967200020328,,,,,,,,,,,,127.39074780000374,127.88176150014624,,,1,1.7624115999788046,,,,,,,,,,,,,,,,,,,,,127.88177169999108,133.89152680011466,Socke,strahlend,"['Socke', 'strahlend']",restudy,2,"['Tasse', 'Stift', 'Hammer', 'Kamera', 'Vase', 'Rucksack', 'Fahrrad', 'Schere', 'Socke', 'Flasche', 'Würfel', 'Blume', 'Kerze', 'Buch', 'Eimer', 'Tasche', 'Ring', 'Kette', 'Jacke', 'Bürste', 'Hut', 'Löffel', 'Geige', 'Kiste', 'Lampe', 'Telefon', 'Schlüssel', 'Uhr', 'Brille', 'Trommel']","['verspielt', 'hübsch', 'schwer', 'teuer', 'dick', 'breit', 'dunkel', 'gepunktet', 'strahlend']",1,1.7624115999788046,None,,,,,,,,,,,,,,,,,,,,,,,,,,,,,,,,,,,,,,,,,,,,,,,,,,,,,,,,,,,,,,,,,2,2023-12-12_09h35.58.314,watkins1,2023.2.3,99.76107229396426,61,2023-12-12 09h36.09.626612 +0000,
,,,,,,,9,0,9,0,,,,,,,,,,,,,,,,,133.90098679997027,,,,,,,,,,,,133.89204190019518,134.38282700022683,,,2,1.7178642000071704,,,,,,,,,,,,,,,,,,,,,134.38283780030906,140.3926194999367,Flasche,schlicht,"['Flasche', 'schlicht']",restudy,2,"['Tasse', 'Stift', 'Hammer', 'Kamera', 'Vase', 'Rucksack', 'Fahrrad', 'Schere', 'Socke', 'Flasche', 'Würfel', 'Blume', 'Kerze', 'Buch', 'Eimer', 'Tasche', 'Ring', 'Kette', 'Jacke', 'Bürste', 'Hut', 'Löffel', 'Geige', 'Kiste', 'Lampe', 'Telefon', 'Schlüssel', 'Uhr', 'Brille', 'Trommel']","['verspielt', 'hübsch', 'schwer', 'teuer', 'dick', 'breit', 'dunkel', 'gepunktet', 'strahlend', 'schlicht']",2,1.7178642000071704,None,,,,,,,,,,,,,,,,,,,,,,,,,,,,,,,,,,,,,,,,,,,,,,,,,,,,,,,,,,,,,,,,,2,2023-12-12_09h35.58.314,watkins1,2023.2.3,99.76107229396426,61,2023-12-12 09h36.09.626612 +0000,
,,,,,,,10,0,10,0,,,,,,,,,,,,,,,,,140.4020525002852,,,,,,,,,,,,140.39312339993194,140.88414540002123,,,1,1.303099799901247,,,,,,,,,,,,,,,,,,,,,140.8841559002176,146.88574729999527,Würfel,hässlich,"['Würfel', 'hässlich']",test_sub,2,"['Tasse', 'Stift', 'Hammer', 'Kamera', 'Vase', 'Rucksack', 'Fahrrad', 'Schere', 'Socke', 'Flasche', 'Würfel', 'Blume', 'Kerze', 'Buch', 'Eimer', 'Tasche', 'Ring', 'Kette', 'Jacke', 'Bürste', 'Hut', 'Löffel', 'Geige', 'Kiste', 'Lampe', 'Telefon', 'Schlüssel', 'Uhr', 'Brille', 'Trommel']","['verspielt', 'hübsch', 'schwer', 'teuer', 'dick', 'breit', 'dunkel', 'gepunktet', 'strahlend', 'schlicht', 'hässlich']",1,1.303099799901247,None,,,,,,,,,,,,,,,,,,,,,,,,,,,,,,,,,,,,,,,,,,,,,,,,,,,,,,,,,,,,,,,,,2,2023-12-12_09h35.58.314,watkins1,2023.2.3,99.76107229396426,61,2023-12-12 09h36.09.626612 +0000,
,,,,,,,11,0,11,0,,,,,,,,,,,,,,,,,146.89522270020097,,,,,,,,,,,,146.88626509997994,147.3774598003365,,,1,2.5784392999485135,,,,,,,,,,,,,,,,,,,,,147.37747070007026,153.38547540036961,Blume,rustikal,"['Blume', 'rustikal']",test_sub,2,"['Tasse', 'Stift', 'Hammer', 'Kamera', 'Vase', 'Rucksack', 'Fahrrad', 'Schere', 'Socke', 'Flasche', 'Würfel', 'Blume', 'Kerze', 'Buch', 'Eimer', 'Tasche', 'Ring', 'Kette', 'Jacke', 'Bürste', 'Hut', 'Löffel', 'Geige', 'Kiste', 'Lampe', 'Telefon', 'Schlüssel', 'Uhr', 'Brille', 'Trommel']","['verspielt', 'hübsch', 'schwer', 'teuer', 'dick', 'breit', 'dunkel', 'gepunktet', 'strahlend', 'schlicht', 'hässlich', 'rustikal']",1,2.5784392999485135,None,,,,,,,,,,,,,,,,,,,,,,,,,,,,,,,,,,,,,,,,,,,,,,,,,,,,,,,,,,,,,,,,,2,2023-12-12_09h35.58.314,watkins1,2023.2.3,99.76107229396426,61,2023-12-12 09h36.09.626612 +0000,
,,,,,,,12,0,12,0,,,,,,,,,,,,,,,,,153.39494620030746,,,,,,,,,,,,153.38598360028118,153.87734539993107,,,3,2.3190524000674486,,,,,,,,,,,,,,,,,,,,,153.8773563001305,159.88029240025207,Kerze,zart,"['Kerze', 'zart']",test_sub,2,"['Tasse', 'Stift', 'Hammer', 'Kamera', 'Vase', 'Rucksack', 'Fahrrad', 'Schere', 'Socke', 'Flasche', 'Würfel', 'Blume', 'Kerze', 'Buch', 'Eimer', 'Tasche', 'Ring', 'Kette', 'Jacke', 'Bürste', 'Hut', 'Löffel', 'Geige', 'Kiste', 'Lampe', 'Telefon', 'Schlüssel', 'Uhr', 'Brille', 'Trommel']","['verspielt', 'hübsch', 'schwer', 'teuer', 'dick', 'breit', 'dunkel', 'gepunktet', 'strahlend', 'schlicht', 'hässlich', 'rustikal', 'zart']",3,2.3190524000674486,None,,,,,,,,,,,,,,,,,,,,,,,,,,,,,,,,,,,,,,,,,,,,,,,,,,,,,,,,,,,,,,,,,2,2023-12-12_09h35.58.314,watkins1,2023.2.3,99.76107229396426,61,2023-12-12 09h36.09.626612 +0000,
,,,,,,,13,0,13,0,,,,,,,,,,,,,,,,,159.8897581002675,,,,,,,,,,,,159.88080740021542,160.3718147003092,,,3,0.9212539000436664,,,,,,,,,,,,,,,,,,,,,160.37182480003685,166.37435830011964,Buch,gut,"['Buch', 'gut']",restudy,2,"['Tasse', 'Stift', 'Hammer', 'Kamera', 'Vase', 'Rucksack', 'Fahrrad', 'Schere', 'Socke', 'Flasche', 'Würfel', 'Blume', 'Kerze', 'Buch', 'Eimer', 'Tasche', 'Ring', 'Kette', 'Jacke', 'Bürste', 'Hut', 'Löffel', 'Geige', 'Kiste', 'Lampe', 'Telefon', 'Schlüssel', 'Uhr', 'Brille', 'Trommel']","['verspielt', 'hübsch', 'schwer', 'teuer', 'dick', 'breit', 'dunkel', 'gepunktet', 'strahlend', 'schlicht', 'hässlich', 'rustikal', 'zart', 'gut']",3,0.9212539000436664,None,,,,,,,,,,,,,,,,,,,,,,,,,,,,,,,,,,,,,,,,,,,,,,,,,,,,,,,,,,,,,,,,,2,2023-12-12_09h35.58.314,watkins1,2023.2.3,99.76107229396426,61,2023-12-12 09h36.09.626612 +0000,
,,,,,,,14,0,14,0,,,,,,,,,,,,,,,,,166.3838341003284,,,,,,,,,,,,166.3748782002367,166.8658313001506,,,1,1.498441900126636,,,,,,,,,,,,,,,,,,,,,166.8658417002298,172.87607310013846,Eimer,krumm,"['Eimer', 'krumm']",test_sub,2,"['Tasse', 'Stift', 'Hammer', 'Kamera', 'Vase', 'Rucksack', 'Fahrrad', 'Schere', 'Socke', 'Flasche', 'Würfel', 'Blume', 'Kerze', 'Buch', 'Eimer', 'Tasche', 'Ring', 'Kette', 'Jacke', 'Bürste', 'Hut', 'Löffel', 'Geige', 'Kiste', 'Lampe', 'Telefon', 'Schlüssel', 'Uhr', 'Brille', 'Trommel']","['verspielt', 'hübsch', 'schwer', 'teuer', 'dick', 'breit', 'dunkel', 'gepunktet', 'strahlend', 'schlicht', 'hässlich', 'rustikal', 'zart', 'gut', 'krumm']",1,1.498441900126636,None,,,,,,,,,,,,,,,,,,,,,,,,,,,,,,,,,,,,,,,,,,,,,,,,,,,,,,,,,,,,,,,,,2,2023-12-12_09h35.58.314,watkins1,2023.2.3,99.76107229396426,61,2023-12-12 09h36.09.626612 +0000,
,,,,,,,15,0,15,0,,,,,,,,,,,,,,,,,172.8854867001064,,,,,,,,,,,,172.87658900022507,173.36759630031884,,,3,2.13366589974612,,,,,,,,,,,,,,,,,,,,,173.36760690016672,179.37615230027586,Tasche,bunt,"['Tasche', 'bunt']",restudy,2,"['Tasse', 'Stift', 'Hammer', 'Kamera', 'Vase', 'Rucksack', 'Fahrrad', 'Schere', 'Socke', 'Flasche', 'Würfel', 'Blume', 'Kerze', 'Buch', 'Eimer', 'Tasche', 'Ring', 'Kette', 'Jacke', 'Bürste', 'Hut', 'Löffel', 'Geige', 'Kiste', 'Lampe', 'Telefon', 'Schlüssel', 'Uhr', 'Brille', 'Trommel']","['verspielt', 'hübsch', 'schwer', 'teuer', 'dick', 'breit', 'dunkel', 'gepunktet', 'strahlend', 'schlicht', 'hässlich', 'rustikal', 'zart', 'gut', 'krumm', 'bunt']",3,2.13366589974612,None,,,,,,,,,,,,,,,,,,,,,,,,,,,,,,,,,,,,,,,,,,,,,,,,,,,,,,,,,,,,,,,,,2,2023-12-12_09h35.58.314,watkins1,2023.2.3,99.76107229396426,61,2023-12-12 09h36.09.626612 +0000,
,,,,,,,16,0,16,0,,,,,,,,,,,,,,,,,179.38563460018486,,,,,,,,,,,,179.3766644001007,179.8677509999834,,,3,0.9769895998761058,,,,,,,,,,,,,,,,,,,,,179.86776150017977,185.86938410019502,Ring,elegant,"['Ring', 'elegant']",restudy,2,"['Tasse', 'Stift', 'Hammer', 'Kamera', 'Vase', 'Rucksack', 'Fahrrad', 'Schere', 'Socke', 'Flasche', 'Würfel', 'Blume', 'Kerze', 'Buch', 'Eimer', 'Tasche', 'Ring', 'Kette', 'Jacke', 'Bürste', 'Hut', 'Löffel', 'Geige', 'Kiste', 'Lampe', 'Telefon', 'Schlüssel', 'Uhr', 'Brille', 'Trommel']","['verspielt', 'hübsch', 'schwer', 'teuer', 'dick', 'breit', 'dunkel', 'gepunktet', 'strahlend', 'schlicht', 'hässlich', 'rustikal', 'zart', 'gut', 'krumm', 'bunt', 'elegant']",3,0.9769895998761058,None,,,,,,,,,,,,,,,,,,,,,,,,,,,,,,,,,,,,,,,,,,,,,,,,,,,,,,,,,,,,,,,,,2,2023-12-12_09h35.58.314,watkins1,2023.2.3,99.76107229396426,61,2023-12-12 09h36.09.626612 +0000,
,,,,,,,17,0,17,0,,,,,,,,,,,,,,,,,185.8788642003201,,,,,,,,,,,,185.86990169994533,186.3609037999995,,,2,2.0520313000306487,,,,,,,,,,,,,,,,,,,,,186.36091460008174,192.36894220020622,Kette,matt,"['Kette', 'matt']",restudy,2,"['Tasse', 'Stift', 'Hammer', 'Kamera', 'Vase', 'Rucksack', 'Fahrrad', 'Schere', 'Socke', 'Flasche', 'Würfel', 'Blume', 'Kerze', 'Buch', 'Eimer', 'Tasche', 'Ring', 'Kette', 'Jacke', 'Bürste', 'Hut', 'Löffel', 'Geige', 'Kiste', 'Lampe', 'Telefon', 'Schlüssel', 'Uhr', 'Brille', 'Trommel']","['verspielt', 'hübsch', 'schwer', 'teuer', 'dick', 'breit', 'dunkel', 'gepunktet', 'strahlend', 'schlicht', 'hässlich', 'rustikal', 'zart', 'gut', 'krumm', 'bunt', 'elegant', 'matt']",2,2.0520313000306487,None,,,,,,,,,,,,,,,,,,,,,,,,,,,,,,,,,,,,,,,,,,,,,,,,,,,,,,,,,,,,,,,,,2,2023-12-12_09h35.58.314,watkins1,2023.2.3,99.76107229396426,61,2023-12-12 09h36.09.626612 +0000,
,,,,,,,18,0,18,0,,,,,,,,,,,,,,,,,192.37843560008332,,,,,,,,,,,,192.36946230009198,192.86051850020885,,,1,2.311084299813956,,,,,,,,,,,,,,,,,,,,,192.86052819993347,198.8614902999252,Jacke,biegsam,"['Jacke', 'biegsam']",restudy,2,"['Tasse', 'Stift', 'Hammer', 'Kamera', 'Vase', 'Rucksack', 'Fahrrad', 'Schere', 'Socke', 'Flasche', 'Würfel', 'Blume', 'Kerze', 'Buch', 'Eimer', 'Tasche', 'Ring', 'Kette', 'Jacke', 'Bürste', 'Hut', 'Löffel', 'Geige', 'Kiste', 'Lampe', 'Telefon', 'Schlüssel', 'Uhr', 'Brille', 'Trommel']","['verspielt', 'hübsch', 'schwer', 'teuer', 'dick', 'breit', 'dunkel', 'gepunktet', 'strahlend', 'schlicht', 'hässlich', 'rustikal', 'zart', 'gut', 'krumm', 'bunt', 'elegant', 'matt', 'biegsam']",1,2.311084299813956,None,,,,,,,,,,,,,,,,,,,,,,,,,,,,,,,,,,,,,,,,,,,,,,,,,,,,,,,,,,,,,,,,,2,2023-12-12_09h35.58.314,watkins1,2023.2.3,99.76107229396426,61,2023-12-12 09h36.09.626612 +0000,
,,,,,,,19,0,19,0,,,,,,,,,,,,,,,,,198.87096400000155,,,,,,,,,,,,198.86201769998297,199.35304870037362,,,1,2.171509299892932,,,,,,,,,,,,,,,,,,,,,199.35306000011042,205.35531290015206,Bürste,glänzend,"['Bürste', 'glänzend']",test_sub,2,"['Tasse', 'Stift', 'Hammer', 'Kamera', 'Vase', 'Rucksack', 'Fahrrad', 'Schere', 'Socke', 'Flasche', 'Würfel', 'Blume', 'Kerze', 'Buch', 'Eimer', 'Tasche', 'Ring', 'Kette', 'Jacke', 'Bürste', 'Hut', 'Löffel', 'Geige', 'Kiste', 'Lampe', 'Telefon', 'Schlüssel', 'Uhr', 'Brille', 'Trommel']","['verspielt', 'hübsch', 'schwer', 'teuer', 'dick', 'breit', 'dunkel', 'gepunktet', 'strahlend', 'schlicht', 'hässlich', 'rustikal', 'zart', 'gut', 'krumm', 'bunt', 'elegant', 'matt', 'biegsam', 'glänzend']",1,2.171509299892932,None,,,,,,,,,,,,,,,,,,,,,,,,,,,,,,,,,,,,,,,,,,,,,,,,,,,,,,,,,,,,,,,,,2,2023-12-12_09h35.58.314,watkins1,2023.2.3,99.76107229396426,61,2023-12-12 09h36.09.626612 +0000,
,,,,,,,20,0,20,0,,,,,,,,,,,,,,,,,205.36474550003186,,,,,,,,,,,,205.35584810003638,205.84699380025268,,,1,2.0058105997741222,,,,,,,,,,,,,,,,,,,,,205.84700440010056,211.85601800028235,Hut,robust,"['Hut', 'robust']",test_sub,2,"['Tasse', 'Stift', 'Hammer', 'Kamera', 'Vase', 'Rucksack', 'Fahrrad', 'Schere', 'Socke', 'Flasche', 'Würfel', 'Blume', 'Kerze', 'Buch', 'Eimer', 'Tasche', 'Ring', 'Kette', 'Jacke', 'Bürste', 'Hut', 'Löffel', 'Geige', 'Kiste', 'Lampe', 'Telefon', 'Schlüssel', 'Uhr', 'Brille', 'Trommel']","['verspielt', 'hübsch', 'schwer', 'teuer', 'dick', 'breit', 'dunkel', 'gepunktet', 'strahlend', 'schlicht', 'hässlich', 'rustikal', 'zart', 'gut', 'krumm', 'bunt', 'elegant', 'matt', 'biegsam', 'glänzend', 'robust']",1,2.0058105997741222,None,,,,,,,,,,,,,,,,,,,,,,,,,,,,,,,,,,,,,,,,,,,,,,,,,,,,,,,,,,,,,,,,,2,2023-12-12_09h35.58.314,watkins1,2023.2.3,99.76107229396426,61,2023-12-12 09h36.09.626612 +0000,
,,,,,,,21,0,21,0,,,,,,,,,,,,,,,,,211.86541920015588,,,,,,,,,,,,211.85653860028833,212.3475528000854,,,3,2.8322379998862743,,,,,,,,,,,,,,,,,,,,,212.34756339993328,218.35528260003775,Löffel,nass,"['Löffel', 'nass']",restudy,2,"['Tasse', 'Stift', 'Hammer', 'Kamera', 'Vase', 'Rucksack', 'Fahrrad', 'Schere', 'Socke', 'Flasche', 'Würfel', 'Blume', 'Kerze', 'Buch', 'Eimer', 'Tasche', 'Ring', 'Kette', 'Jacke', 'Bürste', 'Hut', 'Löffel', 'Geige', 'Kiste', 'Lampe', 'Telefon', 'Schlüssel', 'Uhr', 'Brille', 'Trommel']","['verspielt', 'hübsch', 'schwer', 'teuer', 'dick', 'breit', 'dunkel', 'gepunktet', 'strahlend', 'schlicht', 'hässlich', 'rustikal', 'zart', 'gut', 'krumm', 'bunt', 'elegant', 'matt', 'biegsam', 'glänzend', 'robust', 'nass']",3,2.8322379998862743,None,,,,,,,,,,,,,,,,,,,,,,,,,,,,,,,,,,,,,,,,,,,,,,,,,,,,,,,,,,,,,,,,,2,2023-12-12_09h35.58.314,watkins1,2023.2.3,99.76107229396426,61,2023-12-12 09h36.09.626612 +0000,
,,,,,,,22,0,22,0,,,,,,,,,,,,,,,,,218.36486760014668,,,,,,,,,,,,218.35580370016396,218.84680450009182,,,3,1.5651060999371111,,,,,,,,,,,,,,,,,,,,,218.8468150999397,224.85138839995489,Geige,hohl,"['Geige', 'hohl']",restudy,2,"['Tasse', 'Stift', 'Hammer', 'Kamera', 'Vase', 'Rucksack', 'Fahrrad', 'Schere', 'Socke', 'Flasche', 'Würfel', 'Blume', 'Kerze', 'Buch', 'Eimer', 'Tasche', 'Ring', 'Kette', 'Jacke', 'Bürste', 'Hut', 'Löffel', 'Geige', 'Kiste', 'Lampe', 'Telefon', 'Schlüssel', 'Uhr', 'Brille', 'Trommel']","['verspielt', 'hübsch', 'schwer', 'teuer', 'dick', 'breit', 'dunkel', 'gepunktet', 'strahlend', 'schlicht', 'hässlich', 'rustikal', 'zart', 'gut', 'krumm', 'bunt', 'elegant', 'matt', 'biegsam', 'glänzend', 'robust', 'nass', 'hohl']",3,1.5651060999371111,None,,,,,,,,,,,,,,,,,,,,,,,,,,,,,,,,,,,,,,,,,,,,,,,,,,,,,,,,,,,,,,,,,2,2023-12-12_09h35.58.314,watkins1,2023.2.3,99.76107229396426,61,2023-12-12 09h36.09.626612 +0000,
,,,,,,,23,0,23,0,,,,,,,,,,,,,,,,,224.8608711003326,,,,,,,,,,,,224.8519129003398,225.3430264000781,,,1,1.5493989996612072,,,,,,,,,,,,,,,,,,,,,225.34303739992902,231.34744190005586,Kiste,nachhaltig,"['Kiste', 'nachhaltig']",restudy,2,"['Tasse', 'Stift', 'Hammer', 'Kamera', 'Vase', 'Rucksack', 'Fahrrad', 'Schere', 'Socke', 'Flasche', 'Würfel', 'Blume', 'Kerze', 'Buch', 'Eimer', 'Tasche', 'Ring', 'Kette', 'Jacke', 'Bürste', 'Hut', 'Löffel', 'Geige', 'Kiste', 'Lampe', 'Telefon', 'Schlüssel', 'Uhr', 'Brille', 'Trommel']","['verspielt', 'hübsch', 'schwer', 'teuer', 'dick', 'breit', 'dunkel', 'gepunktet', 'strahlend', 'schlicht', 'hässlich', 'rustikal', 'zart', 'gut', 'krumm', 'bunt', 'elegant', 'matt', 'biegsam', 'glänzend', 'robust', 'nass', 'hohl', 'nachhaltig']",1,1.5493989996612072,None,,,,,,,,,,,,,,,,,,,,,,,,,,,,,,,,,,,,,,,,,,,,,,,,,,,,,,,,,,,,,,,,,2,2023-12-12_09h35.58.314,watkins1,2023.2.3,99.76107229396426,61,2023-12-12 09h36.09.626612 +0000,
,,,,,,,24,0,24,0,,,,,,,,,,,,,,,,,231.3569505000487,,,,,,,,,,,,231.34796479996294,231.83928070031106,,,2,2.0613071997649968,,,,,,,,,,,,,,,,,,,,,231.839291700162,237.8422826002352,Lampe,niedlich,"['Lampe', 'niedlich']",restudy,2,"['Tasse', 'Stift', 'Hammer', 'Kamera', 'Vase', 'Rucksack', 'Fahrrad', 'Schere', 'Socke', 'Flasche', 'Würfel', 'Blume', 'Kerze', 'Buch', 'Eimer', 'Tasche', 'Ring', 'Kette', 'Jacke', 'Bürste', 'Hut', 'Löffel', 'Geige', 'Kiste', 'Lampe', 'Telefon', 'Schlüssel', 'Uhr', 'Brille', 'Trommel']","['verspielt', 'hübsch', 'schwer', 'teuer', 'dick', 'breit', 'dunkel', 'gepunktet', 'strahlend', 'schlicht', 'hässlich', 'rustikal', 'zart', 'gut', 'krumm', 'bunt', 'elegant', 'matt', 'biegsam', 'glänzend', 'robust', 'nass', 'hohl', 'nachhaltig', 'niedlich']",2,2.0613071997649968,None,,,,,,,,,,,,,,,,,,,,,,,,,,,,,,,,,,,,,,,,,,,,,,,,,,,,,,,,,,,,,,,,,2,2023-12-12_09h35.58.314,watkins1,2023.2.3,99.76107229396426,61,2023-12-12 09h36.09.626612 +0000,
,,,,,,,25,0,25,0,,,,,,,,,,,,,,,,,237.8517173002474,,,,,,,,,,,,237.8428114000708,238.33399280020967,,,1,2.7666620002128184,,,,,,,,,,,,,,,,,,,,,238.3340030000545,244.33945350022987,Telefon,blass,"['Telefon', 'blass']",test_sub,2,"['Tasse', 'Stift', 'Hammer', 'Kamera', 'Vase', 'Rucksack', 'Fahrrad', 'Schere', 'Socke', 'Flasche', 'Würfel', 'Blume', 'Kerze', 'Buch', 'Eimer', 'Tasche', 'Ring', 'Kette', 'Jacke', 'Bürste', 'Hut', 'Löffel', 'Geige', 'Kiste', 'Lampe', 'Telefon', 'Schlüssel', 'Uhr', 'Brille', 'Trommel']","['verspielt', 'hübsch', 'schwer', 'teuer', 'dick', 'breit', 'dunkel', 'gepunktet', 'strahlend', 'schlicht', 'hässlich', 'rustikal', 'zart', 'gut', 'krumm', 'bunt', 'elegant', 'matt', 'biegsam', 'glänzend', 'robust', 'nass', 'hohl', 'nachhaltig', 'niedlich', 'blass']",1,2.7666620002128184,None,,,,,,,,,,,,,,,,,,,,,,,,,,,,,,,,,,,,,,,,,,,,,,,,,,,,,,,,,,,,,,,,,2,2023-12-12_09h35.58.314,watkins1,2023.2.3,99.76107229396426,61,2023-12-12 09h36.09.626612 +0000,
,,,,,,,26,0,26,0,,,,,,,,,,,,,,,,,244.3488814001903,,,,,,,,,,,,244.3399729002267,244.83104410022497,,,1,3.813366400077939,,,,,,,,,,,,,,,,,,,,,244.83105470007285,250.83810470020398,Schlüssel,sauber,"['Schlüssel', 'sauber']",test_sub,2,"['Tasse', 'Stift', 'Hammer', 'Kamera', 'Vase', 'Rucksack', 'Fahrrad', 'Schere', 'Socke', 'Flasche', 'Würfel', 'Blume', 'Kerze', 'Buch', 'Eimer', 'Tasche', 'Ring', 'Kette', 'Jacke', 'Bürste', 'Hut', 'Löffel', 'Geige', 'Kiste', 'Lampe', 'Telefon', 'Schlüssel', 'Uhr', 'Brille', 'Trommel']","['verspielt', 'hübsch', 'schwer', 'teuer', 'dick', 'breit', 'dunkel', 'gepunktet', 'strahlend', 'schlicht', 'hässlich', 'rustikal', 'zart', 'gut', 'krumm', 'bunt', 'elegant', 'matt', 'biegsam', 'glänzend', 'robust', 'nass', 'hohl', 'nachhaltig', 'niedlich', 'blass', 'sauber']",1,3.813366400077939,None,,,,,,,,,,,,,,,,,,,,,,,,,,,,,,,,,,,,,,,,,,,,,,,,,,,,,,,,,,,,,,,,,2,2023-12-12_09h35.58.314,watkins1,2023.2.3,99.76107229396426,61,2023-12-12 09h36.09.626612 +0000,
,,,,,,,27,0,27,0,,,,,,,,,,,,,,,,,250.84767629997805,,,,,,,,,,,,250.83861860027537,251.32969200005755,,,2,1.658369000069797,,,,,,,,,,,,,,,,,,,,,251.3297026003711,257.3400034001097,Uhr,winzig,"['Uhr', 'winzig']",test_sub,2,"['Tasse', 'Stift', 'Hammer', 'Kamera', 'Vase', 'Rucksack', 'Fahrrad', 'Schere', 'Socke', 'Flasche', 'Würfel', 'Blume', 'Kerze', 'Buch', 'Eimer', 'Tasche', 'Ring', 'Kette', 'Jacke', 'Bürste', 'Hut', 'Löffel', 'Geige', 'Kiste', 'Lampe', 'Telefon', 'Schlüssel', 'Uhr', 'Brille', 'Trommel']","['verspielt', 'hübsch', 'schwer', 'teuer', 'dick', 'breit', 'dunkel', 'gepunktet', 'strahlend', 'schlicht', 'hässlich', 'rustikal', 'zart', 'gut', 'krumm', 'bunt', 'elegant', 'matt', 'biegsam', 'glänzend', 'robust', 'nass', 'hohl', 'nachhaltig', 'niedlich', 'blass', 'sauber', 'winzig']",2,1.658369000069797,None,,,,,,,,,,,,,,,,,,,,,,,,,,,,,,,,,,,,,,,,,,,,,,,,,,,,,,,,,,,,,,,,,2,2023-12-12_09h35.58.314,watkins1,2023.2.3,99.76107229396426,61,2023-12-12 09h36.09.626612 +0000,
,,,,,,,28,0,28,0,,,,,,,,,,,,,,,,,257.34953889995813,,,,,,,,,,,,257.34052899992093,257.8316981000826,,,1,1.0928329001180828,,,,,,,,,,,,,,,,,,,,,257.8317082002759,263.84135330002755,Brille,kratzig,"['Brille', 'kratzig']",restudy,2,"['Tasse', 'Stift', 'Hammer', 'Kamera', 'Vase', 'Rucksack', 'Fahrrad', 'Schere', 'Socke', 'Flasche', 'Würfel', 'Blume', 'Kerze', 'Buch', 'Eimer', 'Tasche', 'Ring', 'Kette', 'Jacke', 'Bürste', 'Hut', 'Löffel', 'Geige', 'Kiste', 'Lampe', 'Telefon', 'Schlüssel', 'Uhr', 'Brille', 'Trommel']","['verspielt', 'hübsch', 'schwer', 'teuer', 'dick', 'breit', 'dunkel', 'gepunktet', 'strahlend', 'schlicht', 'hässlich', 'rustikal', 'zart', 'gut', 'krumm', 'bunt', 'elegant', 'matt', 'biegsam', 'glänzend', 'robust', 'nass', 'hohl', 'nachhaltig', 'niedlich', 'blass', 'sauber', 'winzig', 'kratzig']",1,1.0928329001180828,None,,,,,,,,,,,,,,,,,,,,,,,,,,,,,,,,,,,,,,,,,,,,,,,,,,,,,,,,,,,,,,,,,2,2023-12-12_09h35.58.314,watkins1,2023.2.3,99.76107229396426,61,2023-12-12 09h36.09.626612 +0000,
,,,,,,,29,0,29,0,,,,,,,,,,,,,,,,,263.85080880019814,,,,,,,,,,,,263.8418689002283,264.33282010024413,,,1,1.0875269998796284,,,,,,,,,,,,,,,,,,,,,264.332830700092,270.3342091003433,Trommel,sportlich,"['Trommel', 'sportlich']",test_sub,2,"['Tasse', 'Stift', 'Hammer', 'Kamera', 'Vase', 'Rucksack', 'Fahrrad', 'Schere', 'Socke', 'Flasche', 'Würfel', 'Blume', 'Kerze', 'Buch', 'Eimer', 'Tasche', 'Ring', 'Kette', 'Jacke', 'Bürste', 'Hut', 'Löffel', 'Geige', 'Kiste', 'Lampe', 'Telefon', 'Schlüssel', 'Uhr', 'Brille', 'Trommel']","['verspielt', 'hübsch', 'schwer', 'teuer', 'dick', 'breit', 'dunkel', 'gepunktet', 'strahlend', 'schlicht', 'hässlich', 'rustikal', 'zart', 'gut', 'krumm', 'bunt', 'elegant', 'matt', 'biegsam', 'glänzend', 'robust', 'nass', 'hohl', 'nachhaltig', 'niedlich', 'blass', 'sauber', 'winzig', 'kratzig', 'sportlich']",1,1.0875269998796284,None,,,,,,,,,,,,,,,,,,,,,,,,,,,,,,,,,,,,,,,,,,,,,,,,,,,,,,,,,,,,,,,,,2,2023-12-12_09h35.58.314,watkins1,2023.2.3,99.76107229396426,61,2023-12-12 09h36.09.626612 +0000,
,,,,,,,,,,,0,0,0,0,,,,,,,,,,,,,270.3436588002369,,,,,,,,,,,,270.3350462000817,270.82575920037925,,,[],[],,,,,,,,,,,,None,None,,,,,,,,,,Bürste,glänzend,"['Bürste', 'glänzend']",test_sub,2,,,,,,270.3349720002152,270.33501980034634,"['Bürste', 'Buch', 'Kette', 'Geige', 'Löffel', 'Ring', 'Blume', 'Würfel', 'Hut', 'Eimer', 'Jacke', 'Uhr', 'Tasche', 'Trommel', 'Fahrrad', 'Lampe', 'Schere', 'Brille', 'Rucksack', 'Kamera', 'Telefon', 'Kerze', 'Kiste', 'Flasche', 'Socke', 'Hammer', 'Vase', 'Schlüssel', 'Tasse', 'Stift']",270.82576919998974,270.82866320014,None,270.8288440001197,270.83146250015125,None,270.83161769993603,270.834384100046,None,270.83454090030864,270.83574960008264,270.8357625002973,0,276.84243190009147,,,,,,,,,,,,,,,,,,,,,,,,,,,,,,,,,,,,,,,,,,,,,,,,2,2023-12-12_09h35.58.314,watkins1,2023.2.3,99.76107229396426,61,2023-12-12 09h36.09.626612 +0000,
,,,,,,,,,,,1,0,1,0,,,,,,,,,,,,,276.85231760004535,,,,,,,,,,,,276.84270940022543,277.33470560004935,,,[],[],,,,,,,,,,,,None,None,,,,,,,,,,Buch,gut,"['Buch', 'gut']",restudy,2,,,,,,276.8426442001946,276.8426807001233,"['Bürste', 'Buch', 'Kette', 'Geige', 'Löffel', 'Ring', 'Blume', 'Würfel', 'Hut', 'Eimer', 'Jacke', 'Uhr', 'Tasche', 'Trommel', 'Fahrrad', 'Lampe', 'Schere', 'Brille', 'Rucksack', 'Kamera', 'Telefon', 'Kerze', 'Kiste', 'Flasche', 'Socke', 'Hammer', 'Vase', 'Schlüssel', 'Tasse', 'Stift']",277.33471590001136,277.3373805000447,None,277.3375019002706,283.3391499002464,3,283.33951970003545,283.341933300253,None,283.3420433001593,283.3430942003615,283.3431057999842,,283.3441184000112,2.4029912003315985,None,,,,,,,,,,,,,,,,,,,,,,,,,,,,,,,,,,,,,,,,,,,,,,2,2023-12-12_09h35.58.314,watkins1,2023.2.3,99.76107229396426,61,2023-12-12 09h36.09.626612 +0000,
,,,,,,,,,,,2,0,2,0,,,,,,,,,,,,,283.34866979997605,,,,,,,,,,,,283.3443980999291,283.8407108001411,,,[],[],,,,,,,,,,,,None,None,,,,,,,,,,Kette,matt,"['Kette', 'matt']",restudy,2,,,,,,283.34433290036395,283.3443714999594,"['Bürste', 'Buch', 'Kette', 'Geige', 'Löffel', 'Ring', 'Blume', 'Würfel', 'Hut', 'Eimer', 'Jacke', 'Uhr', 'Tasche', 'Trommel', 'Fahrrad', 'Lampe', 'Schere', 'Brille', 'Rucksack', 'Kamera', 'Telefon', 'Kerze', 'Kiste', 'Flasche', 'Socke', 'Hammer', 'Vase', 'Schlüssel', 'Tasse', 'Stift']",283.8407211001031,283.843265700154,None,283.8433904000558,289.84413200011477,1,289.8444342003204,289.84698730008677,None,289.84709940012544,289.8483298001811,289.84834120003507,,289.84943190030754,2.497496200259775,None,,,,,,,,,,,,,,,,,,,,,,,,,,,,,,,,,,,,,,,,,,,,,,2,2023-12-12_09h35.58.314,watkins1,2023.2.3,99.76107229396426,61,2023-12-12 09h36.09.626612 +0000,
,,,,,,,,,,,3,0,3,0,,,,,,,,,,,,,289.85355670005083,,,,,,,,,,,,289.8497150000185,290.34587430022657,,,[],[],,,,,,,,,,,,None,None,,,,,,,,,,Geige,hohl,"['Geige', 'hohl']",restudy,2,,,,,,289.849649600219,289.84968840004876,"['Bürste', 'Buch', 'Kette', 'Geige', 'Löffel', 'Ring', 'Blume', 'Würfel', 'Hut', 'Eimer', 'Jacke', 'Uhr', 'Tasche', 'Trommel', 'Fahrrad', 'Lampe', 'Schere', 'Brille', 'Rucksack', 'Kamera', 'Telefon', 'Kerze', 'Kiste', 'Flasche', 'Socke', 'Hammer', 'Vase', 'Schlüssel', 'Tasse', 'Stift']",290.34588500019163,290.34845230029896,None,290.3485761000775,296.3495018002577,3,296.34979690006,296.35230290004984,None,296.35241310019046,296.3535851002671,296.3535967003554,,296.3546297000721,0.8323824000544846,None,,,,,,,,,,,,,,,,,,,,,,,,,,,,,,,,,,,,,,,,,,,,,,2,2023-12-12_09h35.58.314,watkins1,2023.2.3,99.76107229396426,61,2023-12-12 09h36.09.626612 +0000,
,,,,,,,,,,,4,0,4,0,,,,,,,,,,,,,296.35899180034176,,,,,,,,,,,,296.3549145003781,296.8511085002683,,,[],[],,,,,,,,,,,,None,None,,,,,,,,,,Löffel,nass,"['Löffel', 'nass']",restudy,2,,,,,,296.3548489003442,296.35488740028813,"['Bürste', 'Buch', 'Kette', 'Geige', 'Löffel', 'Ring', 'Blume', 'Würfel', 'Hut', 'Eimer', 'Jacke', 'Uhr', 'Tasche', 'Trommel', 'Fahrrad', 'Lampe', 'Schere', 'Brille', 'Rucksack', 'Kamera', 'Telefon', 'Kerze', 'Kiste', 'Flasche', 'Socke', 'Hammer', 'Vase', 'Schlüssel', 'Tasse', 'Stift']",296.85111940000206,296.8539750003256,None,296.85410140035674,302.8553251000121,3,302.8556417999789,302.858285299968,None,302.85840240027755,302.85959840007126,302.85961010027677,,302.86066020000726,1.1189674003981054,None,,,,,,,,,,,,,,,,,,,,,,,,,,,,,,,,,,,,,,,,,,,,,,2,2023-12-12_09h35.58.314,watkins1,2023.2.3,99.76107229396426,61,2023-12-12 09h36.09.626612 +0000,
,,,,,,,,,,,5,0,5,0,,,,,,,,,,,,,302.8647519000806,,,,,,,,,,,,302.8609446003102,303.3567206002772,,,[],[],,,,,,,,,,,,None,None,,,,,,,,,,Ring,elegant,"['Ring', 'elegant']",restudy,2,,,,,,302.8608784000389,302.86091750022024,"['Bürste', 'Buch', 'Kette', 'Geige', 'Löffel', 'Ring', 'Blume', 'Würfel', 'Hut', 'Eimer', 'Jacke', 'Uhr', 'Tasche', 'Trommel', 'Fahrrad', 'Lampe', 'Schere', 'Brille', 'Rucksack', 'Kamera', 'Telefon', 'Kerze', 'Kiste', 'Flasche', 'Socke', 'Hammer', 'Vase', 'Schlüssel', 'Tasse', 'Stift']",303.35673120012507,303.3595096003264,None,303.3596366001293,309.36126670008525,3,309.3615673999302,309.36416400037706,None,309.3642772999592,309.3654430001043,309.3654546001926,,309.3666632003151,0.8450611000880599,None,,,,,,,,,,,,,,,,,,,,,,,,,,,,,,,,,,,,,,,,,,,,,,2,2023-12-12_09h35.58.314,watkins1,2023.2.3,99.76107229396426,61,2023-12-12 09h36.09.626612 +0000,
,,,,,,,,,,,6,0,6,0,,,,,,,,,,,,,309.37066880008206,,,,,,,,,,,,309.36694690026343,309.86311070015654,,,[],[],,,,,,,,,,,,None,None,,,,,,,,,,Blume,rustikal,"['Blume', 'rustikal']",test_sub,2,,,,,,309.3668810999952,309.36692010005936,"['Bürste', 'Buch', 'Kette', 'Geige', 'Löffel', 'Ring', 'Blume', 'Würfel', 'Hut', 'Eimer', 'Jacke', 'Uhr', 'Tasche', 'Trommel', 'Fahrrad', 'Lampe', 'Schere', 'Brille', 'Rucksack', 'Kamera', 'Telefon', 'Kerze', 'Kiste', 'Flasche', 'Socke', 'Hammer', 'Vase', 'Schlüssel', 'Tasse', 'Stift']",309.8631213000044,309.8658475000411,None,309.8659709999338,309.8675767001696,None,309.86769139999524,309.86923710023984,None,309.8693441003561,309.87051440030336,309.8705269000493,0,315.87483560014516,,,,,,,,,,,,,,,,,,,,,,,,,,,,,,,,,,,,,,,,,,,,,,,,2,2023-12-12_09h35.58.314,watkins1,2023.2.3,99.76107229396426,61,2023-12-12 09h36.09.626612 +0000,
,,,,,,,,,,,7,0,7,0,,,,,,,,,,,,,315.88464930001646,,,,,,,,,,,,315.8751111002639,316.3666794002056,,,[],[],,,,,,,,,,,,None,None,,,,,,,,,,Würfel,hässlich,"['Würfel', 'hässlich']",test_sub,2,,,,,,315.8750452999957,315.8750817999244,"['Bürste', 'Buch', 'Kette', 'Geige', 'Löffel', 'Ring', 'Blume', 'Würfel', 'Hut', 'Eimer', 'Jacke', 'Uhr', 'Tasche', 'Trommel', 'Fahrrad', 'Lampe', 'Schere', 'Brille', 'Rucksack', 'Kamera', 'Telefon', 'Kerze', 'Kiste', 'Flasche', 'Socke', 'Hammer', 'Vase', 'Schlüssel', 'Tasse', 'Stift']",316.3666898999363,316.36946250032634,None,316.3695865003392,316.37217460013926,None,316.3722831001505,316.3750124000944,None,316.3751191999763,316.376298900228,316.37631139997393,0,322.3818446001969,,,,,,,,,,,,,,,,,,,,,,,,,,,,,,,,,,,,,,,,,,,,,,,,2,2023-12-12_09h35.58.314,watkins1,2023.2.3,99.76107229396426,61,2023-12-12 09h36.09.626612 +0000,
,,,,,,,,,,,8,0,8,0,,,,,,,,,,,,,322.39166330033913,,,,,,,,,,,,322.3821213003248,322.87401040038094,,,[],[],,,,,,,,,,,,2.0383520000614226,None,,,,,Eimer,,,,,Hut,robust,"['Hut', 'robust']",test_sub,2,,,,,,322.38205590005964,322.38209220021963,"['Bürste', 'Buch', 'Kette', 'Geige', 'Löffel', 'Ring', 'Blume', 'Würfel', 'Hut', 'Eimer', 'Jacke', 'Uhr', 'Tasche', 'Trommel', 'Fahrrad', 'Lampe', 'Schere', 'Brille', 'Rucksack', 'Kamera', 'Telefon', 'Kerze', 'Kiste', 'Flasche', 'Socke', 'Hammer', 'Vase', 'Schlüssel', 'Tasse', 'Stift']",322.8740210002288,322.876618700102,None,322.87674030009657,322.87919590016827,None,322.8793061999604,322.8817308000289,None,322.8818379002623,322.88286489993334,322.88287730002776,0,328.8882596003823,,,,,,,,,,,,,,,,,,,,,,,,,,,,,,,,,,,,,,,,,,,,,,,,2,2023-12-12_09h35.58.314,watkins1,2023.2.3,99.76107229396426,61,2023-12-12 09h36.09.626612 +0000,
,,,,,,,,,,,9,0,9,0,,,,,,,,,,,,,328.89802190009505,,,,,,,,,,,,328.88853619992733,329.380140400026,,,[],[],,,,,,,,,,,,1.678441199939698,None,,,,,Eimer,,,,,Eimer,krumm,"['Eimer', 'krumm']",test_sub,2,,,,,,328.88847050024197,328.88850770005956,"['Bürste', 'Buch', 'Kette', 'Geige', 'Löffel', 'Ring', 'Blume', 'Würfel', 'Hut', 'Eimer', 'Jacke', 'Uhr', 'Tasche', 'Trommel', 'Fahrrad', 'Lampe', 'Schere', 'Brille', 'Rucksack', 'Kamera', 'Telefon', 'Kerze', 'Kiste', 'Flasche', 'Socke', 'Hammer', 'Vase', 'Schlüssel', 'Tasse', 'Stift']",329.38015100033954,329.38286990020424,None,329.38299300009385,329.38565910002217,None,329.3857672000304,329.3882844001055,None,329.3883915999904,329.3895555003546,329.38956780033186,1,335.39616549992934,,,,,,,,,,,,,,,,,,,,,,,,,,,,,,,,,,,,,,,,,,,,,,,,2,2023-12-12_09h35.58.314,watkins1,2023.2.3,99.76107229396426,61,2023-12-12 09h36.09.626612 +0000,
,,,,,,,,,,,10,0,10,0,,,,,,,,,,,,,335.4059236003086,,,,,,,,,,,,335.39644780009985,335.8880698001012,,,[],[],,,,,,,,,,,,None,None,,,,,,,,,,Jacke,biegsam,"['Jacke', 'biegsam']",restudy,2,,,,,,335.3963800999336,335.39641880011186,"['Bürste', 'Buch', 'Kette', 'Geige', 'Löffel', 'Ring', 'Blume', 'Würfel', 'Hut', 'Eimer', 'Jacke', 'Uhr', 'Tasche', 'Trommel', 'Fahrrad', 'Lampe', 'Schere', 'Brille', 'Rucksack', 'Kamera', 'Telefon', 'Kerze', 'Kiste', 'Flasche', 'Socke', 'Hammer', 'Vase', 'Schlüssel', 'Tasse', 'Stift']",335.8880803002976,335.8907570000738,None,335.890880800318,341.8954573003575,1,341.895755500067,341.8985618003644,None,341.8986756000668,341.89986200025305,341.8998736999929,,341.90139760030434,1.8898662002757192,None,,,,,,,,,,,,,,,,,,,,,,,,,,,,,,,,,,,,,,,,,,,,,,2,2023-12-12_09h35.58.314,watkins1,2023.2.3,99.76107229396426,61,2023-12-12 09h36.09.626612 +0000,
,,,,,,,,,,,11,0,11,0,,,,,,,,,,,,,341.90502150030807,,,,,,,,,,,,341.9016825002618,342.39698900002986,,,[],[],,,,,,,,,,,,None,None,,,,,,,,,,Uhr,winzig,"['Uhr', 'winzig']",test_sub,2,,,,,,341.9016150003299,341.90165559994057,"['Bürste', 'Buch', 'Kette', 'Geige', 'Löffel', 'Ring', 'Blume', 'Würfel', 'Hut', 'Eimer', 'Jacke', 'Uhr', 'Tasche', 'Trommel', 'Fahrrad', 'Lampe', 'Schere', 'Brille', 'Rucksack', 'Kamera', 'Telefon', 'Kerze', 'Kiste', 'Flasche', 'Socke', 'Hammer', 'Vase', 'Schlüssel', 'Tasse', 'Stift']",342.3970004003495,342.39960939995944,None,342.39973470009863,342.40103369997814,None,342.4011436002329,342.4024374000728,None,342.4025441999547,342.40357960015535,342.40359250037,0,348.4070956003852,,,,,,,,,,,,,,,,,,,,,,,,,,,,,,,,,,,,,,,,,,,,,,,,2,2023-12-12_09h35.58.314,watkins1,2023.2.3,99.76107229396426,61,2023-12-12 09h36.09.626612 +0000,
,,,,,,,,,,,12,0,12,0,,,,,,,,,,,,,348.41685560019687,,,,,,,,,,,,348.4073731000535,348.8991033001803,,,[],[],,,,,,,,,,,,None,None,,,,,,,,,,Tasche,bunt,"['Tasche', 'bunt']",restudy,2,,,,,,348.40730680013075,348.4073434001766,"['Bürste', 'Buch', 'Kette', 'Geige', 'Löffel', 'Ring', 'Blume', 'Würfel', 'Hut', 'Eimer', 'Jacke', 'Uhr', 'Tasche', 'Trommel', 'Fahrrad', 'Lampe', 'Schere', 'Brille', 'Rucksack', 'Kamera', 'Telefon', 'Kerze', 'Kiste', 'Flasche', 'Socke', 'Hammer', 'Vase', 'Schlüssel', 'Tasse', 'Stift']",348.8991137002595,348.90193150006235,None,348.9020541002974,354.90846330020577,3,354.90875330008566,354.91140540037304,None,354.9115170002915,354.91270370036364,354.9127152003348,,354.9137532999739,1.014975500293076,None,,,,,,,,,,,,,,,,,,,,,,,,,,,,,,,,,,,,,,,,,,,,,,2,2023-12-12_09h35.58.314,watkins1,2023.2.3,99.76107229396426,61,2023-12-12 09h36.09.626612 +0000,
,,,,,,,,,,,13,0,13,0,,,,,,,,,,,,,354.9179283999838,,,,,,,,,,,,354.9140326003544,355.4098896002397,,,[],[],,,,,,,,,,,,None,None,,,,,,,,,,Trommel,sportlich,"['Trommel', 'sportlich']",test_sub,2,,,,,,354.9139666003175,354.9140059002675,"['Bürste', 'Buch', 'Kette', 'Geige', 'Löffel', 'Ring', 'Blume', 'Würfel', 'Hut', 'Eimer', 'Jacke', 'Uhr', 'Tasche', 'Trommel', 'Fahrrad', 'Lampe', 'Schere', 'Brille', 'Rucksack', 'Kamera', 'Telefon', 'Kerze', 'Kiste', 'Flasche', 'Socke', 'Hammer', 'Vase', 'Schlüssel', 'Tasse', 'Stift']",355.4099000999704,355.4124720999971,None,355.41259340010583,355.4140719999559,None,355.4141803001985,355.4156411001459,None,355.4157485002652,355.4169509001076,355.41696330020204,0,361.42051090020686,,,,,,,,,,,,,,,,,,,,,,,,,,,,,,,,,,,,,,,,,,,,,,,,2,2023-12-12_09h35.58.314,watkins1,2023.2.3,99.76107229396426,61,2023-12-12 09h36.09.626612 +0000,
,,,,,,,,,,,14,0,14,0,,,,,,,,,,,,,361.43032670021057,,,,,,,,,,,,361.4207880003378,361.91234420007095,,,[],[],,,,,,,,,,,,2.1897553000599146,None,,,,,Fahrrad,,,,,Fahrrad,dunkel,"['Fahrrad', 'dunkel']",test_sub,2,,,,,,361.4207228999585,361.4207591000013,"['Bürste', 'Buch', 'Kette', 'Geige', 'Löffel', 'Ring', 'Blume', 'Würfel', 'Hut', 'Eimer', 'Jacke', 'Uhr', 'Tasche', 'Trommel', 'Fahrrad', 'Lampe', 'Schere', 'Brille', 'Rucksack', 'Kamera', 'Telefon', 'Kerze', 'Kiste', 'Flasche', 'Socke', 'Hammer', 'Vase', 'Schlüssel', 'Tasse', 'Stift']",361.9123547002673,361.9152939999476,None,361.9154183999635,361.9180430001579,None,361.9181504002772,361.920763600152,None,361.920868600253,361.92205710010603,361.9220694000833,1,367.927891000174,,,,,,,,,,,,,,,,,,,,,,,,,,,,,,,,,,,,,,,,,,,,,,,,2,2023-12-12_09h35.58.314,watkins1,2023.2.3,99.76107229396426,61,2023-12-12 09h36.09.626612 +0000,
,,,,,,,,,,,15,0,15,0,,,,,,,,,,,,,367.93769090017304,,,,,,,,,,,,367.92817240022123,368.41971770022064,,,[],[],,,,,,,,,,,,None,None,,,,,,,,,,Lampe,niedlich,"['Lampe', 'niedlich']",restudy,2,,,,,,367.9281045002863,367.928142900113,"['Bürste', 'Buch', 'Kette', 'Geige', 'Löffel', 'Ring', 'Blume', 'Würfel', 'Hut', 'Eimer', 'Jacke', 'Uhr', 'Tasche', 'Trommel', 'Fahrrad', 'Lampe', 'Schere', 'Brille', 'Rucksack', 'Kamera', 'Telefon', 'Kerze', 'Kiste', 'Flasche', 'Socke', 'Hammer', 'Vase', 'Schlüssel', 'Tasse', 'Stift']",368.4197285003029,368.4224302000366,None,368.42255300004035,374.423394900281,2,374.42368740029633,374.42641870025545,None,374.4265284999274,374.42769260006025,374.4277040003799,,374.42921780003235,1.782322899904102,None,,,,,,,,,,,,,,,,,,,,,,,,,,,,,,,,,,,,,,,,,,,,,,2,2023-12-12_09h35.58.314,watkins1,2023.2.3,99.76107229396426,61,2023-12-12 09h36.09.626612 +0000,
,,,,,,,,,,,16,0,16,0,,,,,,,,,,,,,374.4329808000475,,,,,,,,,,,,374.4294953001663,374.9250043001957,,,[],[],,,,,,,,,,,,2.5088412002660334,3.864574400242418,,,,,Fahrrad,,,,,Schere,gepunktet,"['Schere', 'gepunktet']",test_sub,2,,,,,,374.42943030036986,374.4294686000794,"['Bürste', 'Buch', 'Kette', 'Geige', 'Löffel', 'Ring', 'Blume', 'Würfel', 'Hut', 'Eimer', 'Jacke', 'Uhr', 'Tasche', 'Trommel', 'Fahrrad', 'Lampe', 'Schere', 'Brille', 'Rucksack', 'Kamera', 'Telefon', 'Kerze', 'Kiste', 'Flasche', 'Socke', 'Hammer', 'Vase', 'Schlüssel', 'Tasse', 'Stift']",374.92501460015774,374.92771780025214,None,374.9278369001113,374.9292858000845,None,374.92939330032095,374.93100250000134,None,374.93110910011455,374.9322771001607,374.9322896003723,0,380.93624350009486,,,,,,,,,,,,,,,,,,,,,,,,,,,,,,,,,,,,,,,,,,,,,,,,2,2023-12-12_09h35.58.314,watkins1,2023.2.3,99.76107229396426,61,2023-12-12 09h36.09.626612 +0000,
,,,,,,,,,,,17,0,17,0,,,,,,,,,,,,,380.9460466001183,,,,,,,,,,,,380.93652140023187,381.42815010016784,,,[],[],,,,,,,,,,,,None,None,,,,,,,,,,Brille,kratzig,"['Brille', 'kratzig']",restudy,2,,,,,,380.93645199993625,380.9364907001145,"['Bürste', 'Buch', 'Kette', 'Geige', 'Löffel', 'Ring', 'Blume', 'Würfel', 'Hut', 'Eimer', 'Jacke', 'Uhr', 'Tasche', 'Trommel', 'Fahrrad', 'Lampe', 'Schere', 'Brille', 'Rucksack', 'Kamera', 'Telefon', 'Kerze', 'Kiste', 'Flasche', 'Socke', 'Hammer', 'Vase', 'Schlüssel', 'Tasse', 'Stift']",381.4281607000157,381.43093630019575,None,381.4310591001995,387.43301849998534,1,387.4333170000464,387.4360444000922,None,387.43615680001676,387.4373436002061,387.43735510017723,,387.43886210024357,1.389776499941945,None,,,,,,,,,,,,,,,,,,,,,,,,,,,,,,,,,,,,,,,,,,,,,,2,2023-12-12_09h35.58.314,watkins1,2023.2.3,99.76107229396426,61,2023-12-12 09h36.09.626612 +0000,
,,,,,,,,,,,18,0,18,0,,,,,,,,,,,,,387.4425085000694,,,,,,,,,,,,387.439146600198,387.9345754003152,,,[],[],,,,,,,,,,,,None,None,,,,,,,,,,Rucksack,breit,"['Rucksack', 'breit']",restudy,2,,,,,,387.4390748003498,387.4391141002998,"['Bürste', 'Buch', 'Kette', 'Geige', 'Löffel', 'Ring', 'Blume', 'Würfel', 'Hut', 'Eimer', 'Jacke', 'Uhr', 'Tasche', 'Trommel', 'Fahrrad', 'Lampe', 'Schere', 'Brille', 'Rucksack', 'Kamera', 'Telefon', 'Kerze', 'Kiste', 'Flasche', 'Socke', 'Hammer', 'Vase', 'Schlüssel', 'Tasse', 'Stift']",387.93458659993485,387.9373777001165,None,387.9375006002374,393.93832330033183,1,393.93861460033804,393.94131560018286,None,393.941425899975,393.9426528001204,393.9426645003259,,393.94381870003417,1.0273339999839664,None,,,,,,,,,,,,,,,,,,,,,,,,,,,,,,,,,,,,,,,,,,,,,,2,2023-12-12_09h35.58.314,watkins1,2023.2.3,99.76107229396426,61,2023-12-12 09h36.09.626612 +0000,
,,,,,,,,,,,19,0,19,0,,,,,,,,,,,,,393.9477435001172,,,,,,,,,,,,393.94409690005705,394.4397539999336,,,[],[],,,,,,,,,,,,None,None,,,,,,,,,,Kamera,teuer,"['Kamera', 'teuer']",restudy,2,,,,,,393.9440311002545,393.94407010031864,"['Bürste', 'Buch', 'Kette', 'Geige', 'Löffel', 'Ring', 'Blume', 'Würfel', 'Hut', 'Eimer', 'Jacke', 'Uhr', 'Tasche', 'Trommel', 'Fahrrad', 'Lampe', 'Schere', 'Brille', 'Rucksack', 'Kamera', 'Telefon', 'Kerze', 'Kiste', 'Flasche', 'Socke', 'Hammer', 'Vase', 'Schlüssel', 'Tasse', 'Stift']",394.43976480001584,394.4424358000979,None,394.442559200339,400.45018760021776,3,400.45048800017685,400.453245700337,None,400.4533601999283,400.4545404003002,400.45455210004,,400.45571210002527,2.36979529960081,None,,,,,,,,,,,,,,,,,,,,,,,,,,,,,,,,,,,,,,,,,,,,,,2,2023-12-12_09h35.58.314,watkins1,2023.2.3,99.76107229396426,61,2023-12-12 09h36.09.626612 +0000,
,,,,,,,,,,,20,0,20,0,,,,,,,,,,,,,400.45971650024876,,,,,,,,,,,,400.4559948001988,400.95173590024933,,,[],[],,,,,,,,,,,,None,None,,,,,,,,,,Telefon,blass,"['Telefon', 'blass']",test_sub,2,,,,,,400.4559285999276,400.45596790034324,"['Bürste', 'Buch', 'Kette', 'Geige', 'Löffel', 'Ring', 'Blume', 'Würfel', 'Hut', 'Eimer', 'Jacke', 'Uhr', 'Tasche', 'Trommel', 'Fahrrad', 'Lampe', 'Schere', 'Brille', 'Rucksack', 'Kamera', 'Telefon', 'Kerze', 'Kiste', 'Flasche', 'Socke', 'Hammer', 'Vase', 'Schlüssel', 'Tasse', 'Stift']",400.95174670033157,400.9546048999764,None,400.9547272003256,400.95620399992913,None,400.95631430018693,400.9577806000598,None,400.95788750005886,400.95910050021484,400.95911320019513,0,406.96417040005326,,,,,,,,,,,,,,,,,,,,,,,,,,,,,,,,,,,,,,,,,,,,,,,,2,2023-12-12_09h35.58.314,watkins1,2023.2.3,99.76107229396426,61,2023-12-12 09h36.09.626612 +0000,
,,,,,,,,,,,21,0,21,0,,,,,,,,,,,,,406.9739908003248,,,,,,,,,,,,406.9644498000853,407.4561076001264,,,[],[],,,,,,,,,,,,1.586789600085467,None,,,,,Kerze,,,,,Kerze,zart,"['Kerze', 'zart']",test_sub,2,,,,,,406.9643836999312,406.9644208000973,"['Bürste', 'Buch', 'Kette', 'Geige', 'Löffel', 'Ring', 'Blume', 'Würfel', 'Hut', 'Eimer', 'Jacke', 'Uhr', 'Tasche', 'Trommel', 'Fahrrad', 'Lampe', 'Schere', 'Brille', 'Rucksack', 'Kamera', 'Telefon', 'Kerze', 'Kiste', 'Flasche', 'Socke', 'Hammer', 'Vase', 'Schlüssel', 'Tasse', 'Stift']",407.45611790008843,407.4588816999458,None,407.4590044999495,407.4615069003776,None,407.4616173999384,407.4641324002296,None,407.46424090024084,407.46539900032803,407.4654113999568,1,413.47097110003233,,,,,,,,,,,,,,,,,,,,,,,,,,,,,,,,,,,,,,,,,,,,,,,,2,2023-12-12_09h35.58.314,watkins1,2023.2.3,99.76107229396426,61,2023-12-12 09h36.09.626612 +0000,
,,,,,,,,,,,22,0,22,0,,,,,,,,,,,,,413.4807086000219,,,,,,,,,,,,413.47125110030174,413.96271410025656,,,[],[],,,,,,,,,,,,None,None,,,,,,,,,,Kiste,nachhaltig,"['Kiste', 'nachhaltig']",restudy,2,,,,,,413.4711846001446,413.47122219996527,"['Bürste', 'Buch', 'Kette', 'Geige', 'Löffel', 'Ring', 'Blume', 'Würfel', 'Hut', 'Eimer', 'Jacke', 'Uhr', 'Tasche', 'Trommel', 'Fahrrad', 'Lampe', 'Schere', 'Brille', 'Rucksack', 'Kamera', 'Telefon', 'Kerze', 'Kiste', 'Flasche', 'Socke', 'Hammer', 'Vase', 'Schlüssel', 'Tasse', 'Stift']",413.96272459998727,413.9652563999407,None,413.9653779999353,419.9678453002125,1,419.968139000237,419.97087960038334,None,419.9709896002896,419.97214650036767,419.9721583002247,,419.97372000012547,1.3112932001240551,None,,,,,,,,,,,,,,,,,,,,,,,,,,,,,,,,,,,,,,,,,,,,,,2,2023-12-12_09h35.58.314,watkins1,2023.2.3,99.76107229396426,61,2023-12-12 09h36.09.626612 +0000,
,,,,,,,,,,,23,0,23,0,,,,,,,,,,,,,419.9772787000984,,,,,,,,,,,,419.97399720037356,420.4694141000509,,,[],[],,,,,,,,,,,,None,None,,,,,,,,,,Flasche,schlicht,"['Flasche', 'schlicht']",restudy,2,,,,,,419.9739311002195,419.9739697002806,"['Bürste', 'Buch', 'Kette', 'Geige', 'Löffel', 'Ring', 'Blume', 'Würfel', 'Hut', 'Eimer', 'Jacke', 'Uhr', 'Tasche', 'Trommel', 'Fahrrad', 'Lampe', 'Schere', 'Brille', 'Rucksack', 'Kamera', 'Telefon', 'Kerze', 'Kiste', 'Flasche', 'Socke', 'Hammer', 'Vase', 'Schlüssel', 'Tasse', 'Stift']",420.469424800016,420.47219739994034,None,420.4723221999593,426.47325449995697,3,426.4735447000712,426.4762748000212,None,426.4763837000355,426.47757770027965,426.4775891001336,,426.478805700317,1.5325442999601364,None,,,,,,,,,,,,,,,,,,,,,,,,,,,,,,,,,,,,,,,,,,,,,,2,2023-12-12_09h35.58.314,watkins1,2023.2.3,99.76107229396426,61,2023-12-12 09h36.09.626612 +0000,
,,,,,,,,,,,24,0,24,0,,,,,,,,,,,,,426.4827358000912,,,,,,,,,,,,426.4790864000097,426.9747549002059,,,[],[],,,,,,,,,,,,None,None,,,,,,,,,,Socke,strahlend,"['Socke', 'strahlend']",restudy,2,,,,,,426.4790201000869,426.4790590000339,"['Bürste', 'Buch', 'Kette', 'Geige', 'Löffel', 'Ring', 'Blume', 'Würfel', 'Hut', 'Eimer', 'Jacke', 'Uhr', 'Tasche', 'Trommel', 'Fahrrad', 'Lampe', 'Schere', 'Brille', 'Rucksack', 'Kamera', 'Telefon', 'Kerze', 'Kiste', 'Flasche', 'Socke', 'Hammer', 'Vase', 'Schlüssel', 'Tasse', 'Stift']",426.9747659000568,426.97765320027247,None,426.9777804999612,432.98686420032755,1,432.9871569001116,432.9901840002276,None,432.99029570026323,432.9914506999776,432.9914623000659,,432.99269860005006,2.467167899943888,None,,,,,,,,,,,,,,,,,,,,,,,,,,,,,,,,,,,,,,,,,,,,,,2,2023-12-12_09h35.58.314,watkins1,2023.2.3,99.76107229396426,61,2023-12-12 09h36.09.626612 +0000,
,,,,,,,,,,,25,0,25,0,,,,,,,,,,,,,432.9963817000389,,,,,,,,,,,,432.99298200011253,433.48850430035964,,,[],[],,,,,,,,,,,,None,None,,,,,,,,,,Hammer,schwer,"['Hammer', 'schwer']",test_sub,2,,,,,,432.9929142999463,432.99295440036803,"['Bürste', 'Buch', 'Kette', 'Geige', 'Löffel', 'Ring', 'Blume', 'Würfel', 'Hut', 'Eimer', 'Jacke', 'Uhr', 'Tasche', 'Trommel', 'Fahrrad', 'Lampe', 'Schere', 'Brille', 'Rucksack', 'Kamera', 'Telefon', 'Kerze', 'Kiste', 'Flasche', 'Socke', 'Hammer', 'Vase', 'Schlüssel', 'Tasse', 'Stift']",433.4885152000934,433.49128010030836,None,433.4914024001919,433.4928377000615,None,433.4929459001869,433.49442770006135,None,433.4945356003009,433.4957658001222,433.4957783999853,0,439.49923019995913,,,,,,,,,,,,,,,,,,,,,,,,,,,,,,,,,,,,,,,,,,,,,,,,2,2023-12-12_09h35.58.314,watkins1,2023.2.3,99.76107229396426,61,2023-12-12 09h36.09.626612 +0000,
,,,,,,,,,,,26,0,26,0,,,,,,,,,,,,,439.5090876002796,,,,,,,,,,,,439.4995083003305,439.991393300239,,,[],[],,,,,,,,,,,,None,None,,,,,,,,,,Vase,dick,"['Vase', 'dick']",test_sub,2,,,,,,439.49944210005924,439.49947890033945,"['Bürste', 'Buch', 'Kette', 'Geige', 'Löffel', 'Ring', 'Blume', 'Würfel', 'Hut', 'Eimer', 'Jacke', 'Uhr', 'Tasche', 'Trommel', 'Fahrrad', 'Lampe', 'Schere', 'Brille', 'Rucksack', 'Kamera', 'Telefon', 'Kerze', 'Kiste', 'Flasche', 'Socke', 'Hammer', 'Vase', 'Schlüssel', 'Tasse', 'Stift']",439.99140530033037,439.9940765001811,None,439.99420309998095,439.9967235000804,None,439.9968325002119,439.9992590001784,None,439.99936840031296,440.0004187002778,440.00043120002374,0,446.0058275000192,,,,,,,,,,,,,,,,,,,,,,,,,,,,,,,,,,,,,,,,,,,,,,,,2,2023-12-12_09h35.58.314,watkins1,2023.2.3,99.76107229396426,61,2023-12-12 09h36.09.626612 +0000,
,,,,,,,,,,,27,0,27,0,,,,,,,,,,,,,446.01560890022665,,,,,,,,,,,,446.0061062001623,446.49774020025507,,,[],[],,,,,,,,,,,,None,None,,,,,,,,,,Schlüssel,sauber,"['Schlüssel', 'sauber']",test_sub,2,,,,,,446.00604000035673,446.00607720017433,"['Bürste', 'Buch', 'Kette', 'Geige', 'Löffel', 'Ring', 'Blume', 'Würfel', 'Hut', 'Eimer', 'Jacke', 'Uhr', 'Tasche', 'Trommel', 'Fahrrad', 'Lampe', 'Schere', 'Brille', 'Rucksack', 'Kamera', 'Telefon', 'Kerze', 'Kiste', 'Flasche', 'Socke', 'Hammer', 'Vase', 'Schlüssel', 'Tasse', 'Stift']",446.4977510999888,446.50045179994777,None,446.50057560019195,446.5030716001056,None,446.50318120000884,446.5056793000549,None,446.50578640028834,446.50704450020567,446.5070571000688,0,452.51308650011197,,,,,,,,,,,,,,,,,,,,,,,,,,,,,,,,,,,,,,,,,,,,,,,,2,2023-12-12_09h35.58.314,watkins1,2023.2.3,99.76107229396426,61,2023-12-12 09h36.09.626612 +0000,
,,,,,,,,,,,28,0,28,0,,,,,,,,,,,,,452.5228925999254,,,,,,,,,,,,452.513364800252,453.0048660002649,,,[],[],,,,,,,,,,,,None,None,,,,,,,,,,Tasse,verspielt,"['Tasse', 'verspielt']",restudy,2,,,,,,452.5132997003384,452.5133361001499,"['Bürste', 'Buch', 'Kette', 'Geige', 'Löffel', 'Ring', 'Blume', 'Würfel', 'Hut', 'Eimer', 'Jacke', 'Uhr', 'Tasche', 'Trommel', 'Fahrrad', 'Lampe', 'Schere', 'Brille', 'Rucksack', 'Kamera', 'Telefon', 'Kerze', 'Kiste', 'Flasche', 'Socke', 'Hammer', 'Vase', 'Schlüssel', 'Tasse', 'Stift']",453.00487689999864,453.00755990017205,None,453.00768249994144,459.01756710000336,1,459.01785720000044,459.02063650032505,None,459.02074710000306,459.02190080005676,459.02191250026226,,459.0231425999664,2.349028999917209,None,,,,,,,,,,,,,,,,,,,,,,,,,,,,,,,,,,,,,,,,,,,,,,2,2023-12-12_09h35.58.314,watkins1,2023.2.3,99.76107229396426,61,2023-12-12 09h36.09.626612 +0000,
,,,,,,,,,,,29,0,29,0,,,,,,,,,,,,,459.02713980013505,,,,,,,,,,,,459.0234254002571,459.5191614003852,,,[],[],,,,,,,,,,,,None,None,,,,,,,,,,Stift,hübsch,"['Stift', 'hübsch']",test_sub,2,,,,,,459.02335839997977,459.0233980002813,"['Bürste', 'Buch', 'Kette', 'Geige', 'Löffel', 'Ring', 'Blume', 'Würfel', 'Hut', 'Eimer', 'Jacke', 'Uhr', 'Tasche', 'Trommel', 'Fahrrad', 'Lampe', 'Schere', 'Brille', 'Rucksack', 'Kamera', 'Telefon', 'Kerze', 'Kiste', 'Flasche', 'Socke', 'Hammer', 'Vase', 'Schlüssel', 'Tasse', 'Stift']",459.51917179999873,459.522057000082,None,459.5221792999655,459.5235858000815,None,459.5236939000897,459.5250989999622,None,459.52520469995216,459.5263475999236,459.5263604000211,0,465.5301652001217,,,,,,,,,,,,,,,,,,,,,,,,,,,,,,,,,,,,,,,,,,,,,,,,2,2023-12-12_09h35.58.314,watkins1,2023.2.3,99.76107229396426,61,2023-12-12 09h36.09.626612 +0000,
,,,,,,,,,,,,,,,,,,,,,,,,,,,,,,,,,,,,,,,,,,,,,,,,,,,,,,,,,,,,,,,,,,,,,,,2,,,,,,,,,,,,,,,,,,,,,,,,,,,,,,,,,,,,,,,,,,,,,,,,,,,,,,,,,,,,,,,,,,,,,,2,2023-12-12_09h35.58.314,watkins1,2023.2.3,99.76107229396426,61,2023-12-12 09h36.09.626612 +0000,
(25 : 5) + 5 = 9 ,Incorrect,button_incorrect,,,,,,,,,,,,,0,0,0,6,,,,,,,,,488.21076219994575,,,,,,,,,,487.17965000029653,488.18383390037343,,,,,['button_incorrect'],[4.048928000032902],,,,,,,,,,,,,,,,,,,,,,,,,,distractorTask,2,,,,,,,,,,,,,,,,,,,,,,,,,488.2000531000085,488.21076219994575,492.2535923002288,[-0.37037037037037035],[-0.4212962962962963],[1],[0],[0],[4.048928000032902],['button_incorrect'],492.2542558000423,493.2572824000381,,,,,,,,,,,,,,,,,,,,,,,,,,,,,,,,,,2,2023-12-12_09h35.58.314,watkins1,2023.2.3,99.76107229396426,61,2023-12-12 09h36.09.626612 +0000,
(40 : 5) + 8 = 15 ,Incorrect,button_incorrect,,,,,,,,,,,,,0,1,1,7,,,,,,,,,493.2672696001828,,,,,,,,,,,,,,,,['button_incorrect'],"[2.7783261998556554, 3.079636000096798]",,,,,,,,,,,,,,,,,,,,,,,,,,distractorTask,2,,,,,,,,,,,,,,,,,,,,,,,,,493.2574750003405,493.2672696001828,496.3407982001081,"[-0.36574074074074076, -0.362962962962963]","[-0.37222222222222223, -0.37962962962962965]","[1, 1]","[0, 0]","[0, 0]","[2.7783261998556554, 3.079636000096798]",['button_incorrect'],496.34119060030207,497.34441850008443,,,,,,,,,,,,,,,,,,,,,,,,,,,,,,,,,,2,2023-12-12_09h35.58.314,watkins1,2023.2.3,99.76107229396426,61,2023-12-12 09h36.09.626612 +0000,
(28 : 7) - 3 = 1 ,Correct,button_correct,,,,,,,,,,,,,0,2,2,0,,,,,,,,,497.3543599001132,,,,,,,,,,,,,,,,['button_correct'],[4.074366400018334],,,,,,,,,,,,,,,,,,,,,,,,,,distractorTask,2,,,,,,,,,,,,,,,,,,,,,,,,,497.34461429994553,497.3543599001132,501.4219297999516,[0.41203703703703703],[-0.40925925925925927],[1],[0],[0],[4.074366400018334],['button_correct'],501.42232100013644,502.4253744003363,,,,,,,,,,,,,,,,,,,,,,,,,,,,,,,,,,2,2023-12-12_09h35.58.314,watkins1,2023.2.3,99.76107229396426,61,2023-12-12 09h36.09.626612 +0000,
(2 x 5) + 3 = 13 ,Correct,button_correct,,,,,,,,,,,,,0,3,3,2,,,,,,,,,502.4353469000198,,,,,,,,,,,,,,,,['button_correct'],[1.7749754004180431],,,,,,,,,,,,,,,,,,,,,,,,,,distractorTask,2,,,,,,,,,,,,,,,,,,,,,,,,,502.42557079996914,502.4353469000198,504.20331430016086,[0.3398148148148148],[-0.42314814814814816],[1],[0],[0],[1.7749754004180431],['button_correct'],504.20368809998035,505.20698150014505,,,,,,,,,,,,,,,,,,,,,,,,,,,,,,,,,,2,2023-12-12_09h35.58.314,watkins1,2023.2.3,99.76107229396426,61,2023-12-12 09h36.09.626612 +0000,
(9 x 5) - 9 = 36 ,Correct,button_correct,,,,,,,,,,,,,0,4,4,4,,,,,,,,,505.21707470016554,,,,,,,,,,,,,,,,['button_correct'],[2.628960299771279],,,,,,,,,,,,,,,,,,,,,,,,,,distractorTask,2,,,,,,,,,,,,,,,,,,,,,,,,,505.20717140007764,505.21707470016554,507.83842750033364,[0.32407407407407407],[-0.3824074074074074],[1],[0],[0],[2.628960299771279],['button_correct'],507.8388017001562,508.84202320035547,,,,,,,,,,,,,,,,,,,,,,,,,,,,,,,,,,2,2023-12-12_09h35.58.314,watkins1,2023.2.3,99.76107229396426,61,2023-12-12 09h36.09.626612 +0000,
(7 x 6) + 9 = 48 ,Incorrect,button_incorrect,,,,,,,,,,,,,0,5,5,9,,,,,,,,,508.8521074000746,,,,,,,,,,,,,,,,['button_incorrect'],[4.1962844002991915],,,,,,,,,,,,,,,,,,,,,,,,,,distractorTask,2,,,,,,,,,,,,,,,,,,,,,,,,,508.84221410006285,508.8521074000746,513.0402047000825,[-0.41574074074074074],[-0.4222222222222222],[1],[0],[0],[4.1962844002991915],['button_incorrect'],513.0405764002353,514.0438971002586,,,,,,,,,,,,,,,,,,,,,,,,,,,,,,,,,,2,2023-12-12_09h35.58.314,watkins1,2023.2.3,99.76107229396426,61,2023-12-12 09h36.09.626612 +0000,
(6 x 3) + 10 = 27 ,Incorrect,button_incorrect,,,,,,,,,,,,,0,6,6,8,,,,,,,,,514.0538240000606,,,,,,,,,,,,,,,,['button_incorrect'],[2.6795977000147104],,,,,,,,,,,,,,,,,,,,,,,,,,distractorTask,2,,,,,,,,,,,,,,,,,,,,,,,,,514.0440870001912,514.0538240000606,516.7254330003634,[-0.4074074074074074],[-0.40185185185185185],[1],[0],[0],[2.6795977000147104],['button_incorrect'],516.7258002003655,517.7292420002632,,,,,,,,,,,,,,,,,,,,,,,,,,,,,,,,,,2,2023-12-12_09h35.58.314,watkins1,2023.2.3,99.76107229396426,61,2023-12-12 09h36.09.626612 +0000,
(4 : 2) + 4 = 6 ,Correct,button_correct,,,,,,,,,,,,,0,7,7,1,,,,,,,,,517.739173900336,,,,,,,,,,,,,,,,['button_correct'],[2.5995551999658346],,,,,,,,,,,,,,,,,,,,,,,,,,distractorTask,2,,,,,,,,,,,,,,,,,,,,,,,,,517.7294381000102,517.739173900336,520.3307083002292,[0.30462962962962964],[-0.4027777777777778],[1],[0],[0],[2.5995551999658346],['button_correct'],520.3310797000304,521.3343776003458,,,,,,,,,,,,,,,,,,,,,,,,,,,,,,,,,,2,2023-12-12_09h35.58.314,watkins1,2023.2.3,99.76107229396426,61,2023-12-12 09h36.09.626612 +0000,
(80 : 10) + 9 = 17 ,Correct,button_correct,,,,,,,,,,,,,0,8,8,3,,,,,,,,,521.3443563003093,,,,,,,,,,,,,,,,['button_correct'],[3.623475299682468],,,,,,,,,,,,,,,,,,,,,,,,,,distractorTask,2,,,,,,,,,,,,,,,,,,,,,,,,,521.3345667002723,521.3443563003093,524.9598819999956,[0.38796296296296295],[-0.38981481481481484],[1],[0],[0],[3.623475299682468],['button_correct'],524.9602531003766,525.9634556001984,,,,,,,,,,,,,,,,,,,,,,,,,,,,,,,,,,2,2023-12-12_09h35.58.314,watkins1,2023.2.3,99.76107229396426,61,2023-12-12 09h36.09.626612 +0000,
(54 : 6) - 10 = 0 ,Incorrect,button_incorrect,,,,,,,,,,,,,0,9,9,5,,,,,,,,,525.9733931003138,,,,,,,,,,,,,,,,['button_incorrect'],[5.632378699723631],,,,,,,,,,,,,,,,,,,,,,,,,,distractorTask,2,,,,,,,,,,,,,,,,,,,,,,,,,525.9636417003348,525.9733931003138,531.5977455000393,[-0.2861111111111111],[-0.37962962962962965],[1],[0],[0],[5.632378699723631],['button_incorrect'],531.5981161003001,532.6013702000491,,,,,,,,,,,,,,,,,,,,,,,,,,,,,,,,,,2,2023-12-12_09h35.58.314,watkins1,2023.2.3,99.76107229396426,61,2023-12-12 09h36.09.626612 +0000,
,,,,,,,,,,,,,,,,,,,,,,,,,,,,,,,,,,,,,,,,,,,,,,,,,,,,,,,,,,,,,,,,,,,,,,,2,,,,,,,,,,,,,,,,,,,,,,,,,,,,,,,,,,,,,,,,,,,,,,,,,,,,,,,,,,,,,,,,,,,,,,2,2023-12-12_09h35.58.314,watkins1,2023.2.3,99.76107229396426,61,2023-12-12 09h36.09.626612 +0000,
,,,,,,,,,,,,,,,,,,,0,0,0,0,,,,,545.0623449003324,,,,,,,,,,,,,,,,Hund,6.210418000351638,,,,,,,,,,,,4.709208299871534,None,,,,,,,,,,,,,freeRecallSub,2,,,,,,,,,,,,,,,,,,,,,,,,,,,,,,,,,,,,,545.0535464002751,545.0623449003324,545.0623449003324,551.2786270002834,return,6.210418000351638,None,Hund,[-0.010185185185185186],[0.053703703703703705],[1],[0],[0],[2.1879944000393152],[],,,,,,,,,,,,,,,,,,,2,2023-12-12_09h35.58.314,watkins1,2023.2.3,99.76107229396426,61,2023-12-12 09h36.09.626612 +0000,
,,,,,,,,,,,,,,,,,,,1,0,1,0,,,,,551.2906072000042,,,,,,,,,,,,,,,,Katze,1.7501992997713387,,,,,,,,,,,,0.43340500025078654,None,,,,,,,,,,,,,freeRecallSub,2,,,,,,,,,,,,,,,,,,,,,,,,,,,,,,,,,,,,,551.2804263001308,551.2906072000042,551.2906072000042,553.0494729001075,return,1.7501992997713387,None,Katze,[],[],[],[],[],[],[],,,,,,,,,,,,,,,,,,,2,2023-12-12_09h35.58.314,watkins1,2023.2.3,99.76107229396426,61,2023-12-12 09h36.09.626612 +0000,
,,,,,,,,,,,,,,,,,,,2,0,2,0,,,,,553.0604651002213,,,,,,,,,,,,,,,,Tasse,1.8282737997360528,,,,,,,,,,,,0.3517118999734521,None,,,,,,,,,,,,,freeRecallSub,2,,,,,,,,,,,,,,,,,,,,,,,,,,,,,,,,,,,,,553.0507245999761,553.0604651002213,553.0604651002213,554.8985417000949,return,1.8282737997360528,None,Tasse,[],[],[],[],[],[],[],,,,,,,,,,,,,,,,,,,2,2023-12-12_09h35.58.314,watkins1,2023.2.3,99.76107229396426,61,2023-12-12 09h36.09.626612 +0000,
,,,,,,,,,,,,,,,,,,,3,0,3,0,,,,,554.9090873003006,,,,,,,,,,,,,,,,Fahrrad,1.9076861999928951,,,,,,,,,,,,0.2705419999547303,None,,,,,,,,,,,,,freeRecallSub,2,,,,,,,,,,,,,,,,,,,,,,,,,,,,,,,,,,,,,554.8997700000182,554.9090873003006,554.9090873003006,556.81723170029,return,1.9076861999928951,None,Fahrrad,[],[],[],[],[],[],[],,,,,,,,,,,,,,,,,,,2,2023-12-12_09h35.58.314,watkins1,2023.2.3,99.76107229396426,61,2023-12-12 09h36.09.626612 +0000,
,,,,,,,,,,,,,,,,,,,4,0,4,0,,,,,556.8283103001304,,,,,,,,,,,,,,,,Kiste,1.500405500177294,,,,,,,,,,,,0.48274149978533387,None,,,,,,,,,,,,,freeRecallSub,2,,,,,,,,,,,,,,,,,,,,,,,,,,,,,,,,,,,,,556.8184740999714,556.8283103001304,556.8283103001304,558.3353862003423,return,1.500405500177294,None,Kiste,[],[],[],[],[],[],[],,,,,,,,,,,,,,,,,,,2,2023-12-12_09h35.58.314,watkins1,2023.2.3,99.76107229396426,61,2023-12-12 09h36.09.626612 +0000,
,,,,,,,,,,,,,,,,,,,5,0,5,0,,,,,558.3462106999941,,,,,,,,,,,,,,,,Socke,2.3584619001485407,,,,,,,,,,,,0.17079300014302135,None,,,,,,,,,,,,,freeRecallSub,2,,,,,,,,,,,,,,,,,,,,,,,,,,,,,,,,,,,,,558.3366237003356,558.3462106999941,558.3462106999941,560.7066122000106,return,2.3584619001485407,None,Socke,[],[],[],[],[],[],[],,,,,,,,,,,,,,,,,,,2,2023-12-12_09h35.58.314,watkins1,2023.2.3,99.76107229396426,61,2023-12-12 09h36.09.626612 +0000,
,,,,,,,,,,,,,,,,,,,6,0,6,0,,,,,560.7181389001198,,,,,,,,,,,,,,,,Kerze,4.538628299720585,,,,,,,,,,,,3.375397800002247,None,,,,,,,,,,,,,freeRecallSub,2,,,,,,,,,,,,,,,,,,,,,,,,,,,,,,,,,,,,,560.707858200185,560.7181389001198,560.7181389001198,565.2581219002604,return,4.538628299720585,None,Kerze,[],[],[],[],[],[],[],,,,,,,,,,,,,,,,,,,2,2023-12-12_09h35.58.314,watkins1,2023.2.3,99.76107229396426,61,2023-12-12 09h36.09.626612 +0000,
,,,,,,,,,,,,,,,,,,,7,0,7,0,,,,,565.2690689000301,,,,,,,,,,,,,,,,Würfel,3.731712599750608,,,,,,,,,,,,2.319859500043094,None,,,,,,,,,,,,,freeRecallSub,2,,,,,,,,,,,,,,,,,,,,,,,,,,,,,,,,,,,,,565.2593718999997,565.2690689000301,565.2690689000301,569.0050759003498,return,3.731712599750608,None,Würfel,[],[],[],[],[],[],[],,,,,,,,,,,,,,,,,,,2,2023-12-12_09h35.58.314,watkins1,2023.2.3,99.76107229396426,61,2023-12-12 09h36.09.626612 +0000,
,,,,,,,,,,,,,,,,,,,8,0,8,0,,,,,569.0174282002263,,,,,,,,,,,,,,,,Stift,8.12720109988004,,,,,,,,,,,,6.921816400252283,None,,,,,,,,,,,,,freeRecallSub,2,,,,,,,,,,,,,,,,,,,,,,,,,,,,,,,,,,,,,569.0063298000023,569.0174282002263,569.0174282002263,577.1533556003124,return,8.12720109988004,None,Stift,[],[],[],[],[],[],[],,,,,,,,,,,,,,,,,,,2,2023-12-12_09h35.58.314,watkins1,2023.2.3,99.76107229396426,61,2023-12-12 09h36.09.626612 +0000,
,,,,,,,,,,,,,,,,,,,9,0,9,0,,,,,577.1649740999565,,,,,,,,,,,,,,,,Lampe,4.891731699928641,,,,,,,,,,,,3.7072982997633517,None,,,,,,,,,,,,,freeRecallSub,2,,,,,,,,,,,,,,,,,,,,,,,,,,,,,,,,,,,,,577.1546121002175,577.1649740999565,577.1649740999565,582.0668437001295,return,4.891731699928641,None,Lampe,[],[],[],[],[],[],[],,,,,,,,,,,,,,,,,,,2,2023-12-12_09h35.58.314,watkins1,2023.2.3,99.76107229396426,61,2023-12-12 09h36.09.626612 +0000,
,,,,,,,,,,,,,,,,,,,10,0,10,0,,,,,582.0789089002647,,,,,,,,,,,,,,,,Eimer,21.097841300070286,,,,,,,,,,,,20.08563009975478,None,,,,,,,,,,,,,freeRecallSub,2,,,,,,,,,,,,,,,,,,,,,,,,,,,,,,,,,,,,,582.0680770003237,582.0789089002647,582.0789089002647,603.1781945000403,return,21.097841300070286,None,Eimer,[],[],[],[],[],[],[],,,,,,,,,,,,,,,,,,,2,2023-12-12_09h35.58.314,watkins1,2023.2.3,99.76107229396426,61,2023-12-12 09h36.09.626612 +0000,
,,,,,,,,,,,,,,,,,,,11,0,11,0,,,,,603.1904695001431,,,,,,,,,,,,,,,,Brille,30.154214899986982,,,,,,,,,,,,28.412543199956417,None,,,,,,,,,,,,,freeRecallSub,2,,,,,,,,,,,,,,,,,,,,,,,,,,,,,,,,,,,,,603.1794338999316,603.1904695001431,603.1904695001431,633.3494033003226,return,30.154214899986982,None,Brille,[],[],[],[],[],[],[],,,,,,,,,,,,,,,,,,,2,2023-12-12_09h35.58.314,watkins1,2023.2.3,99.76107229396426,61,2023-12-12 09h36.09.626612 +0000,
,,,,,,,,,,,,,,,,,,,12,0,12,0,,,,,633.3617193000391,,,,,,,,,,,,,,,,Uhr,18.782854599878192,,,,,,,,,,,,15.69857699982822,None,,,,,,,,,,,,,freeRecallSub,2,,,,,,,,,,,,,,,,,,,,,,,,,,,,,,,,,,,,,633.3506569000892,633.3617193000391,633.3617193000391,652.152381000109,return,18.782854599878192,None,Uhr,[],[],[],[],[],[],[],,,,,,,,,,,,,,,,,,,2,2023-12-12_09h35.58.314,watkins1,2023.2.3,99.76107229396426,61,2023-12-12 09h36.09.626612 +0000,
,,,,,,,,,,,,,,,,,,,13,0,13,0,,,,,652.1652509002015,,,,,,,,,,,,,,,,,[],,,,,,,,,,,,None,None,,,,,,,,,,,,,freeRecallSub,2,,,,,,,,,,,,,,,,,,,,,,,,,,,,,,,,,,,,,652.1536417999305,652.1652509002015,652.1652509002015,681.561206900049,None,,,,[0.2935185185185185],[-0.4064814814814815],[1],[0],[0],[29.40217089978978],"['button_continue', 'continue_text']",,,,,,,,,,,,,,,,,,,2,2023-12-12_09h35.58.314,watkins1,2023.2.3,99.76107229396426,61,2023-12-12 09h36.09.626612 +0000,
,,,,,,,,,,,,,,,,,,,,,,,,,,,,,,,,,,,,,,,,,,,,,,,,,,,,,,,,,,,,,,,,,,,,,,,2,,,,,,,,,,,,,,,,,,,,,,,,,,,,,,,,,,,,,,,,,,,,,,,,,,,,,,,,,,,,,,,,,,,,,,2,2023-12-12_09h35.58.314,watkins1,2023.2.3,99.76107229396426,61,2023-12-12 09h36.09.626612 +0000,
,,,,,,,,,,,,,,,,,,,,,,,0,0,0,0,690.3782005002722,,,,,,,,,,,,700.3934301999398,700.8917577001266,,,,10.006403299979866,,,,,,,,,,,,None,None,,,,,,,,,,Löffel,,,cuedRecallAdj,2,,,,,,,,,,,,,,,,,,,,,0,,,,,,,,,,,,,,,,,,,,,,,,,,,,,,,690.3692351002246,690.3782005002722,690.3782005002722,700.3900888999924,krumm,return,10.006403299979866,None,700.3904846999794,700.3997476999648,700.3997476999648,700.3932810002007,,None,,,,,2,2023-12-12_09h35.58.314,watkins1,2023.2.3,99.76107229396426,61,2023-12-12 09h36.09.626612 +0000,
,,,,,,,,,,,,,,,,,,,,,,,1,0,1,0,700.9017075002193,,,,,,,,,,,,712.1621501999907,712.6611347002909,,,,11.25088750012219,,,,,,,,,,,,None,None,,,,,,,,,,Blume,,,cuedRecallAdj,2,,,,,,,,,,,,,,,,,,,,,0,,,,,,,,,,,,,,,,,,,,,,,,,,,,,,,700.8919931999408,700.9017075002193,700.9017075002193,712.1593317002989,lang,return,11.25088750012219,None,712.1595960999839,712.1689391001128,712.1689391001128,712.1620487002656,,None,,,,,2,2023-12-12_09h35.58.314,watkins1,2023.2.3,99.76107229396426,61,2023-12-12 09h36.09.626612 +0000,
,,,,,,,,,,,,,,,,,,,,,,,2,0,2,0,712.6710664001293,,,,,,,,,,,,719.4025353002362,719.90113450028,,,,6.72152189956978,,,,,,,,,,,,None,None,,,,,,,,,,Trommel,,,cuedRecallAdj,2,,,,,,,,,,,,,,,,,,,,,0,,,,,,,,,,,,,,,,,,,,,,,,,,,,,,,712.6613710001111,712.6710664001293,712.6710664001293,719.3994605001062,sportlich,return,6.72152189956978,None,719.3997214003466,719.4089738000184,719.4089738000184,719.4024348999374,,None,,,,,2,2023-12-12_09h35.58.314,watkins1,2023.2.3,99.76107229396426,61,2023-12-12 09h36.09.626612 +0000,
,,,,,,,,,,,,,,,,,,,,,,,3,0,3,0,719.9111864999868,,,,,,,,,,,,723.187722499948,723.6866626003757,,,,3.265437399968505,,,,,,,,,,,,None,None,,,,,,,,,,Vase,,,cuedRecallAdj,2,,,,,,,,,,,,,,,,,,,,,0,,,,,,,,,,,,,,,,,,,,,,,,,,,,,,,719.9013724001125,719.9111864999868,719.9111864999868,723.1850161002949,dick,return,3.265437399968505,None,723.1852775001898,723.1947413999587,723.1947413999587,723.187621800229,,None,,,,,2,2023-12-12_09h35.58.314,watkins1,2023.2.3,99.76107229396426,61,2023-12-12 09h36.09.626612 +0000,
,,,,,,,,,,,,,,,,,,,,,,,4,0,4,0,723.696710200049,,,,,,,,,,,,725.7083542002365,726.2073218002915,,,,1.9998762998729944,,,,,,,,,,,,None,None,,,,,,,,,,Uhr,,,cuedRecallAdj,2,,,,,,,,,,,,,,,,,,,,,0,,,,,,,,,,,,,,,,,,,,,,,,,,,,,,,723.6869075000286,723.696710200049,723.696710200049,725.7055184002966,winzig,return,1.9998762998729944,None,725.7057810002007,725.7152233002707,725.7152233002707,725.708252500277,,None,,,,,2,2023-12-12_09h35.58.314,watkins1,2023.2.3,99.76107229396426,61,2023-12-12 09h36.09.626612 +0000,
,,,,,,,,,,,,,,,,,,,,,,,5,0,5,0,726.2173705003224,,,,,,,,,,,,728.7215605000965,729.2198755000718,,,,2.4952416997402906,,,,,,,,,,,,None,None,,,,,,,,,,Fahrrad,,,cuedRecallAdj,2,,,,,,,,,,,,,,,,,,,,,0,,,,,,,,,,,,,,,,,,,,,,,,,,,,,,,726.2075646999292,726.2173705003224,726.2173705003224,728.7183362003416,dunkel,return,2.4952416997402906,None,728.7185997003689,728.7278374000452,728.7278374000452,728.7214591000229,,None,,,,,2,2023-12-12_09h35.58.314,watkins1,2023.2.3,99.76107229396426,61,2023-12-12 09h36.09.626612 +0000,
,,,,,,,,,,,,,,,,,,,,,,,6,0,6,0,729.2297638002783,,,,,,,,,,,,736.0616134000011,736.56046529999,,,,6.818683700170368,,,,,,,,,,,,None,None,,,,,,,,,,Socke,,,cuedRecallAdj,2,,,,,,,,,,,,,,,,,,,,,0,,,,,,,,,,,,,,,,,,,,,,,,,,,,,,,729.2201181002893,729.2297638002783,729.2297638002783,736.0585861001164,dreckig,return,6.818683700170368,None,736.05885090027,736.0683015002869,736.0683015002869,736.061511900276,,None,,,,,2,2023-12-12_09h35.58.314,watkins1,2023.2.3,99.76107229396426,61,2023-12-12 09h36.09.626612 +0000,
,,,,,,,,,,,,,,,,,,,,,,,7,0,7,0,736.5704103000462,,,,,,,,,,,,747.2180159999989,747.7167164999992,,,,10.638107900042087,,,,,,,,,,,,None,None,,,,,,,,,,Buch,,,cuedRecallAdj,2,,,,,,,,,,,,,,,,,,,,,0,,,,,,,,,,,,,,,,,,,,,,,,,,,,,,,736.560706099961,736.5704103000462,736.5704103000462,747.2151228999719,gut,return,10.638107900042087,None,747.215384399984,747.2247467003763,747.2247467003763,747.2179155000485,,None,,,,,2,2023-12-12_09h35.58.314,watkins1,2023.2.3,99.76107229396426,61,2023-12-12 09h36.09.626612 +0000,
,,,,,,,,,,,,,,,,,,,,,,,8,0,8,0,747.7267701001838,,,,,,,,,,,,751.4859088999219,751.9846287001856,,,,3.7537869000807405,,,,,,,,,,,,None,None,,,,,,,,,,Eimer,,,cuedRecallAdj,2,,,,,,,,,,,,,,,,,,,,,0,,,,,,,,,,,,,,,,,,,,,,,,,,,,,,,747.7169600003399,747.7267701001838,747.7267701001838,751.4828763999976,krumm,return,3.7537869000807405,None,751.4831690001301,751.4924396001734,751.4924396001734,751.4858082002029,,None,,,,,2,2023-12-12_09h35.58.314,watkins1,2023.2.3,99.76107229396426,61,2023-12-12 09h36.09.626612 +0000,
,,,,,,,,,,,,,,,,,,,,,,,9,0,9,0,751.994634500239,,,,,,,,,,,,755.7738451999612,756.2725487002172,,,,3.7739256997592747,,,,,,,,,,,,None,None,,,,,,,,,,Kiste,,,cuedRecallAdj,2,,,,,,,,,,,,,,,,,,,,,0,,,,,,,,,,,,,,,,,,,,,,,,,,,,,,,751.9848786001094,751.994634500239,751.994634500239,755.7707937001251,nachhaltig,return,3.7739256997592747,None,755.7710573999211,755.7803360000253,755.7803360000253,755.7737430003472,,None,,,,,2,2023-12-12_09h35.58.314,watkins1,2023.2.3,99.76107229396426,61,2023-12-12 09h36.09.626612 +0000,
,,,,,,,,,,,,,,,,,,,,,,,10,0,10,0,756.2825383003801,,,,,,,,,,,,761.2763045001775,761.7753192000091,,,,4.982043500058353,,,,,,,,,,,,None,None,,,,,,,,,,Hut,,,cuedRecallAdj,2,,,,,,,,,,,,,,,,,,,,,0,,,,,,,,,,,,,,,,,,,,,,,,,,,,,,,756.2727910000831,756.2825383003801,756.2825383003801,761.2734533003531,schwer,return,4.982043500058353,None,761.2737148003653,761.2832794999704,761.2832794999704,761.2762047001161,,None,,,,,2,2023-12-12_09h35.58.314,watkins1,2023.2.3,99.76107229396426,61,2023-12-12 09h36.09.626612 +0000,
,,,,,,,,,,,,,,,,,,,,,,,11,0,11,0,761.7853705002926,,,,,,,,,,,,764.0283723999746,764.5273536001332,,,,2.2390306000597775,,,,,,,,,,,,None,None,,,,,,,,,,Kette,,,cuedRecallAdj,2,,,,,,,,,,,,,,,,,,,,,0,,,,,,,,,,,,,,,,,,,,,,,,,,,,,,,761.7755577000789,761.7853705002926,761.7853705002926,764.025545600336,matt,return,2.2390306000597775,None,764.0258109001443,764.0350818000734,764.0350818000734,764.0282698003575,,None,,,,,2,2023-12-12_09h35.58.314,watkins1,2023.2.3,99.76107229396426,61,2023-12-12 09h36.09.626612 +0000,
,,,,,,,,,,,,,,,,,,,,,,,12,0,12,0,764.5373022002168,,,,,,,,,,,,766.2679527001455,766.7665800000541,,,,1.7273746998980641,,,,,,,,,,,,None,None,,,,,,,,,,Geige,,,cuedRecallAdj,2,,,,,,,,,,,,,,,,,,,,,0,,,,,,,,,,,,,,,,,,,,,,,,,,,,,,,764.5275974003598,764.5373022002168,764.5373022002168,766.2650931002572,hohl,return,1.7273746998980641,None,766.2653588000685,766.2744944002479,766.2744944002479,766.2678515003063,,None,,,,,2,2023-12-12_09h35.58.314,watkins1,2023.2.3,99.76107229396426,61,2023-12-12 09h36.09.626612 +0000,
,,,,,,,,,,,,,,,,,,,,,,,13,0,13,0,766.7764918999746,,,,,,,,,,,,771.4898703000508,771.9884077003226,,,,4.704003599938005,,,,,,,,,,,,None,None,,,,,,,,,,Brille,,,cuedRecallAdj,2,,,,,,,,,,,,,,,,,,,,,0,,,,,,,,,,,,,,,,,,,,,,,,,,,,,,,766.7668163999915,766.7764918999746,766.7764918999746,771.4868197999895,schwer,return,4.704003599938005,None,771.4870839002542,771.4963905001059,771.4963905001059,771.4897691002116,,None,,,,,2,2023-12-12_09h35.58.314,watkins1,2023.2.3,99.76107229396426,61,2023-12-12 09h36.09.626612 +0000,
,,,,,,,,,,,,,,,,,,,,,,,14,0,14,0,771.9983220002614,,,,,,,,,,,,778.6493036001921,779.1481328001246,,,,6.642094499897212,,,,,,,,,,,,None,None,,,,,,,,,,Tasche,,,cuedRecallAdj,2,,,,,,,,,,,,,,,,,,,,,0,,,,,,,,,,,,,,,,,,,,,,,,,,,,,,,771.9886520002037,771.9983220002614,771.9983220002614,778.6464599999599,bunt,return,6.642094499897212,None,778.6467226999812,778.6559855001979,778.6559855001979,778.649203600362,,None,,,,,2,2023-12-12_09h35.58.314,watkins1,2023.2.3,99.76107229396426,61,2023-12-12 09h36.09.626612 +0000,
,,,,,,,,,,,,,,,,,,,,,,,15,0,15,0,779.1581761999987,,,,,,,,,,,,789.6058712000959,790.10432590032,,,,10.442319099791348,,,,,,,,,,,,None,None,,,,,,,,,,Lampe,,,cuedRecallAdj,2,,,,,,,,,,,,,,,,,,,,,0,,,,,,,,,,,,,,,,,,,,,,,,,,,,,,,779.1483757002279,779.1581761999987,779.1581761999987,789.602737700101,gepunktet,return,10.442319099791348,None,789.6030024001375,789.6122216000222,789.6122216000222,789.6057707001455,,None,,,,,2,2023-12-12_09h35.58.314,watkins1,2023.2.3,99.76107229396426,61,2023-12-12 09h36.09.626612 +0000,
,,,,,,,,,,,,,,,,,,,,,,,16,0,16,0,790.1142710000277,,,,,,,,,,,,791.8850948000327,792.3837609002367,,,,1.7661627996712923,,,,,,,,,,,,None,None,,,,,,,,,,Hammer,,,cuedRecallAdj,2,,,,,,,,,,,,,,,,,,,,,0,,,,,,,,,,,,,,,,,,,,,,,,,,,,,,,790.1045723003335,790.1142710000277,790.1142710000277,791.8820331003517,schwer,return,1.7661627996712923,None,791.8822954003699,791.891606700141,791.891606700141,791.8849884001538,,None,,,,,2,2023-12-12_09h35.58.314,watkins1,2023.2.3,99.76107229396426,61,2023-12-12 09h36.09.626612 +0000,
,,,,,,,,,,,,,,,,,,,,,,,17,0,17,0,792.3937075999565,,,,,,,,,,,,803.2038231003098,803.702556299977,,,,10.7988435998559,,,,,,,,,,,,None,None,,,,,,,,,,Telefon,,,cuedRecallAdj,2,,,,,,,,,,,,,,,,,,,,,0,,,,,,,,,,,,,,,,,,,,,,,,,,,,,,,792.384005700238,792.3937075999565,792.3937075999565,803.2007131003775,grün,return,10.7988435998559,None,803.2009740001522,803.2103882003576,803.2103882003576,803.2037221002392,,None,,,,,2,2023-12-12_09h35.58.314,watkins1,2023.2.3,99.76107229396426,61,2023-12-12 09h36.09.626612 +0000,
,,,,,,,,,,,,,,,,,,,,,,,18,0,18,0,803.71250660019,,,,,,,,,,,,811.6992595000193,812.1980972001329,,,,7.975917300209403,,,,,,,,,,,,None,None,,,,,,,,,,Kerze,,,cuedRecallAdj,2,,,,,,,,,,,,,,,,,,,,,0,,,,,,,,,,,,,,,,,,,,,,,,,,,,,,,803.7027962999418,803.71250660019,803.71250660019,811.6962322001345,schlicht,return,7.975917300209403,None,811.6964933001436,811.705957100261,811.705957100261,811.6991560999304,,None,,,,,2,2023-12-12_09h35.58.314,watkins1,2023.2.3,99.76107229396426,61,2023-12-12 09h36.09.626612 +0000,
,,,,,,,,,,,,,,,,,,,,,,,19,0,19,0,812.2079912000336,,,,,,,,,,,,816.3086950001307,816.8073400002904,,,,4.096420000307262,,,,,,,,,,,,None,None,,,,,,,,,,Würfel,,,cuedRecallAdj,2,,,,,,,,,,,,,,,,,,,,,0,,,,,,,,,,,,,,,,,,,,,,,,,,,,,,,812.1983374003321,812.2079912000336,812.2079912000336,816.3056566002779,hässlich,return,4.096420000307262,None,816.3059189999476,816.3151674000546,816.3151674000546,816.3085929001682,,None,,,,,2,2023-12-12_09h35.58.314,watkins1,2023.2.3,99.76107229396426,61,2023-12-12 09h36.09.626612 +0000,
,,,,,,,,,,,,,,,,,,,,,,,20,0,20,0,816.817294199951,,,,,,,,,,,,821.7914463002235,822.2901002001017,,,,4.967078099958599,,,,,,,,,,,,None,None,,,,,,,,,,Flasche,,,cuedRecallAdj,2,,,,,,,,,,,,,,,,,,,,,0,,,,,,,,,,,,,,,,,,,,,,,,,,,,,,,816.8075906001031,816.817294199951,816.817294199951,821.7884089001454,schlicht,return,4.967078099958599,None,821.7886721999384,821.7979354001582,821.7979354001582,821.7913453001529,,None,,,,,2,2023-12-12_09h35.58.314,watkins1,2023.2.3,99.76107229396426,61,2023-12-12 09h36.09.626612 +0000,
,,,,,,,,,,,,,,,,,,,,,,,21,0,21,0,822.3000364000909,,,,,,,,,,,,826.5110853002407,827.0097129000351,,,,4.204469799995422,,,,,,,,,,,,None,None,,,,,,,,,,Bürste,,,cuedRecallAdj,2,,,,,,,,,,,,,,,,,,,,,0,,,,,,,,,,,,,,,,,,,,,,,,,,,,,,,822.290345299989,822.3000364000909,822.3000364000909,826.5080411001109,groß,return,4.204469799995422,None,826.5083222999237,826.5176364001818,826.5176364001818,826.5109764002264,,None,,,,,2,2023-12-12_09h35.58.314,watkins1,2023.2.3,99.76107229396426,61,2023-12-12 09h36.09.626612 +0000,
,,,,,,,,,,,,,,,,,,,,,,,22,0,22,0,827.0196013003588,,,,,,,,,,,,830.8288909001276,831.3276130999438,,,,3.80494839977473,,,,,,,,,,,,None,None,,,,,,,,,,Ring,,,cuedRecallAdj,2,,,,,,,,,,,,,,,,,,,,,0,,,,,,,,,,,,,,,,,,,,,,,,,,,,,,,827.009953700006,827.0196013003588,827.0196013003588,830.8259805999696,schnell,return,3.80494839977473,None,830.8262461000122,830.8354571000673,830.8354571000673,830.8287908001803,,None,,,,,2,2023-12-12_09h35.58.314,watkins1,2023.2.3,99.76107229396426,61,2023-12-12 09h36.09.626612 +0000,
,,,,,,,,,,,,,,,,,,,,,,,23,0,23,0,831.3375659999438,,,,,,,,,,,,836.3120603002608,836.8104862002656,,,,4.966957400087267,,,,,,,,,,,,None,None,,,,,,,,,,Schlüssel,,,cuedRecallAdj,2,,,,,,,,,,,,,,,,,,,,,0,,,,,,,,,,,,,,,,,,,,,,,,,,,,,,,831.327855499927,831.3375659999438,831.3375659999438,836.3090266999789,gerade,return,4.966957400087267,None,836.3092861999758,836.3184978002682,836.3184978002682,836.3119600000791,,None,,,,,2,2023-12-12_09h35.58.314,watkins1,2023.2.3,99.76107229396426,61,2023-12-12 09h36.09.626612 +0000,
,,,,,,,,,,,,,,,,,,,,,,,24,0,24,0,836.82047290029,,,,,,,,,,,,839.0534662003629,839.5521392002702,,,,2.2279178998433053,,,,,,,,,,,,None,None,,,,,,,,,,Schere,,,cuedRecallAdj,2,,,,,,,,,,,,,,,,,,,,,0,,,,,,,,,,,,,,,,,,,,,,,,,,,,,,,836.8107309001498,836.82047290029,836.82047290029,839.0503428000957,stark,return,2.2279178998433053,None,839.0506087001413,839.0600175000727,839.0600175000727,839.0533636002801,,None,,,,,2,2023-12-12_09h35.58.314,watkins1,2023.2.3,99.76107229396426,61,2023-12-12 09h36.09.626612 +0000,
,,,,,,,,,,,,,,,,,,,,,,,25,0,25,0,839.5620866003446,,,,,,,,,,,,844.8976062000729,845.3961785002612,,,,5.326390500180423,,,,,,,,,,,,None,None,,,,,,,,,,Stift,,,cuedRecallAdj,2,,,,,,,,,,,,,,,,,,,,,0,,,,,,,,,,,,,,,,,,,,,,,,,,,,,,,839.5523787001148,839.5620866003446,839.5620866003446,844.8946040002629,elegant,return,5.326390500180423,None,844.8948679002933,844.9041547002271,844.9041547002271,844.8975042002276,,None,,,,,2,2023-12-12_09h35.58.314,watkins1,2023.2.3,99.76107229396426,61,2023-12-12 09h36.09.626612 +0000,
,,,,,,,,,,,,,,,,,,,,,,,26,0,26,0,845.4061250002123,,,,,,,,,,,,848.5936517999507,849.0916335000657,,,,3.1783156003803015,,,,,,,,,,,,None,None,,,,,,,,,,Jacke,,,cuedRecallAdj,2,,,,,,,,,,,,,,,,,,,,,0,,,,,,,,,,,,,,,,,,,,,,,,,,,,,,,845.3964192001149,845.4061250002123,845.4061250002123,848.5901689003222,biegsam,return,3.1783156003803015,None,848.5904341000132,848.5996488002129,848.5996488002129,848.5935525000095,,None,,,,,2,2023-12-12_09h35.58.314,watkins1,2023.2.3,99.76107229396426,61,2023-12-12 09h36.09.626612 +0000,
,,,,,,,,,,,,,,,,,,,,,,,27,0,27,0,849.1016911999322,,,,,,,,,,,,856.997809200082,857.4965880000964,,,,7.890733500011265,,,,,,,,,,,,None,None,,,,,,,,,,Rucksack,,,cuedRecallAdj,2,,,,,,,,,,,,,,,,,,,,,0,,,,,,,,,,,,,,,,,,,,,,,,,,,,,,,849.0918823000975,849.1016911999322,849.1016911999322,856.9947733003646,breit,return,7.890733500011265,None,856.9950361000374,857.0044567002915,857.0044567002915,856.9976971000433,,None,,,,,2,2023-12-12_09h35.58.314,watkins1,2023.2.3,99.76107229396426,61,2023-12-12 09h36.09.626612 +0000,
,,,,,,,,,,,,,,,,,,,,,,,28,0,28,0,857.5065357000567,,,,,,,,,,,,862.580776900053,863.0798440999351,,,,5.061891200020909,,,,,,,,,,,,None,None,,,,,,,,,,Kamera,,,cuedRecallAdj,2,,,,,,,,,,,,,,,,,,,,,0,,,,,,,,,,,,,,,,,,,,,,,,,,,,,,,857.4968328000978,857.5065357000567,857.5065357000567,862.5777904000133,teuer,return,5.061891200020909,None,862.5780553999357,862.5876124002971,862.5876124002971,862.5806749002077,,None,,,,,2,2023-12-12_09h35.58.314,watkins1,2023.2.3,99.76107229396426,61,2023-12-12 09h36.09.626612 +0000,
,,,,,,,,,,,,,,,,,,,,,,,29,0,29,0,863.0897976001725,,,,,,,,,,,,884.2508893003687,884.749572200235,,,,21.15053000021726,,,,,,,,,,,,None,None,,,,,,,,,,Tasse,,,cuedRecallAdj,2,,,,,,,,,,,,,,,,,,,,,0,,,,,,,,,,,,,,,,,,,,,,,,,,,,,,,863.0800891001709,863.0897976001725,863.0897976001725,884.2478074999526,leuchtend,return,21.15053000021726,None,884.248069500085,884.2575083002448,884.2575083002448,884.2507891003042,,None,,,,,2,2023-12-12_09h35.58.314,watkins1,2023.2.3,99.76107229396426,61,2023-12-12 09h36.09.626612 +0000,
,,,,,,,,,,,,,,,,,,,,,,,,,,,,,,,,,,,,,,,,,,,,,,,,,,,,,,,,,,,,,,,,,,,,,,,2,,,,,,,,,,,,,,,,,,,,,,,,,,,,,,,,,,,,,,,,,,,,,,,,,,,,,,,,,,,,,,,,,,884.766068500001,q,2725.5515723996796,None,2,2023-12-12_09h35.58.314,watkins1,2023.2.3,99.76107229396426,61,2023-12-12 09h36.09.626612 +0000,
