Equation,CorrectResponse,Correctbutton,trials_7.thisRepN,trials_7.thisTrialN,trials_7.thisN,trials_7.thisIndex,trials.thisRepN,trials.thisTrialN,trials.thisN,trials.thisIndex,trials_3.thisRepN,trials_3.thisTrialN,trials_3.thisN,trials_3.thisIndex,trials_2.thisRepN,trials_2.thisTrialN,trials_2.thisN,trials_2.thisIndex,trials_4.thisRepN,trials_4.thisTrialN,trials_4.thisN,trials_4.thisIndex,trials_5.thisRepN,trials_5.thisTrialN,trials_5.thisN,trials_5.thisIndex,thisRow.t,notes,list_sub_restudy,list_sub_testsub,code_marius.started,code_marius.stopped,welcome.started,welcome.stopped,instruction_study.started,instruction_study.stopped,fixationcross.started,fixationcross.stopped,blanc.started,blanc.stopped,study_control_probe.started,study_control_probe.stopped,responseKey,responseTime,scale_answer_2.keys,study_control_probe_2.started,study_control_probe_2.stopped,scale_answer_3.keys,scale_answer_3.rt,scale_answer_3.duration,blanc_2.started,blanc_2.stopped,test_attr_probe.started,test_attr_probe.stopped,recalled_attr,firstKeyTime,secondWordTime,blanc_3.started,blanc_3.stopped,test_sub_probe.started,test_sub_probe.stopped,recalled_sub,instruction_probe_end.started,instruction_probe_end.stopped,study.started,study.stopped,substantive,adjective,wordpair,task,condition,liste_sub_phase1,liste_adj_phase1,scale_answer.keys,scale_answer.rt,scale_answer.duration,code_defineWordsInit.started,code_defineWordsInit.stopped,liste_sub_phase2,study_control.started,study_control.stopped,scale_answer_4.keys,restudy_same.started,restudy_same.stopped,scale_answer_5.keys,restudy_different.started,restudy_different.stopped,scale_answer_6.keys,test_attr.started,test_attr.stopped,test_sub.started,correct,test_sub.stopped,scale_answer_5.rt,scale_answer_5.duration,distractortask.started,equation_text.started,distractortask.stopped,mouse_answer.x,mouse_answer.y,mouse_answer.leftButton,mouse_answer.midButton,mouse_answer.rightButton,mouse_answer.time,mouse_answer.clicked_name,feedback_distractortask.started,feedback_distractortask.stopped,free_recall.started,text_enter.started,key_resp.started,free_recall.stopped,key_resp.keys,key_resp.rt,key_resp.duration,free_recalled_sub,mouse_continue.x,mouse_continue.y,mouse_continue.leftButton,mouse_continue.midButton,mouse_continue.rightButton,mouse_continue.time,mouse_continue.clicked_name,cued_recall.started,text_enter_2.started,key_continue.started,cued_recall.stopped,recalled_attr1,key_continue.keys,key_continue.rt,key_continue.duration,cued_recall_2.started,text_enter_3.started,key_continue_2.started,cued_recall_2.stopped,recalled_attr2,key_continue_2.keys,key_resp_8.started,key_resp_8.keys,key_resp_8.rt,key_resp_8.duration,condition,date,expName,psychopyVersion,frameRate,participant,expStart,
,,,,,,,,,,,,,,,,,,,,,,,,,,,,,"['Stift', 'Vase', 'Buch', 'Fahrrad', 'Schlüssel', 'Brille', 'Socke', 'Hut', 'Blume', 'Uhr', 'Würfel', 'Ring', 'Telefon', 'Kamera', 'Hammer']","['Eimer', 'Lampe', 'Rucksack', 'Kiste', 'Tasse', 'Flasche', 'Schere', 'Geige', 'Kette', 'Trommel', 'Kerze', 'Bürste', 'Jacke', 'Tasche', 'Löffel']",0.10651439998764545,0.10657900001388043,0.10658760002115741,5.954875299998093,,,,,,,,,,,,,,,,,,,,,,,,,,,,,,,,,,,,,2,,,,,,,,,,,,,,,,,,,,,,,,,,,,,,,,,,,,,,,,,,,,,,,,,,,,,,,,,,,,,,,,,,,,,,2,2024-01-22_11h34.40.360,watkins1,2023.2.3,99.67039002824941,97,2024-01-22 11h35.23.211777 +0000,
,,,,,,,,,,,,,,,,,,,,,,,,,,,,,,,,,,,5.954925000027288,41.91171279997798,,,,,,,,,,,,,,,,,,,,,,,,,,,,,,,,,,,2,,,,,,,,,,,,,,,,,,,,,,,,,,,,,,,,,,,,,,,,,,,,,,,,,,,,,,,,,,,,,,,,,,,,,,2,2024-01-22_11h34.40.360,watkins1,2023.2.3,99.67039002824941,97,2024-01-22 11h35.23.211777 +0000,
,,,0,0,0,0,,,,,,,,,,,,,,,,,,,,,42.92528620001394,,,,,,,,,,41.91172979999101,42.915252099977806,49.4146361000021,49.906007800018415,43.40742170001613,49.41446350002661,3,2.851290600025095,None,49.90601889998652,55.91398549999576,3,2.851290600025095,None,55.914281699981075,55.914306099992245,55.914313399989624,55.914395899977535,,1.9881951999850571,None,55.91455980000319,56.405693500011694,56.40570519998437,62.41050090000499,Hund,,,,,,,,,2,,,,,,,,,,,,,,,,,,,,,,,,,,,,,,,,,,,,,,,,,,,,,,,,,,,,,,,,,,,,,,,,,,,,,,2,2024-01-22_11h34.40.360,watkins1,2023.2.3,99.67039002824941,97,2024-01-22 11h35.23.211777 +0000,
,,,,,,,,,,,,,,,,,,,,,,,,,,,,,,,,,,,,,,,,,,,,,,,,,,,,,,,,,,,,,,,62.41065939998953,68.90743969997857,,,,,,,2,,,,,,,,,,,,,,,,,,,,,,,,,,,,,,,,,,,,,,,,,,,,,,,,,,,,,,,,,,,,,,,,,,,,,,2,2024-01-22_11h34.40.360,watkins1,2023.2.3,99.67039002824941,97,2024-01-22 11h35.23.211777 +0000,
,,,,,,,0,0,0,0,,,,,,,,,,,,,,,,,69.92130049999105,,,,,,,,,,68.90745569998398,69.91131360002328,69.91176689998247,70.40333330002613,,,1,2.61524620000273,,,,,,,,,,,,,,,,,,,,,70.40334419999272,76.40924479998648,Geige,breit,"['Geige', 'breit']",test_sub,2,"['Geige', 'Vase', 'Schlüssel', 'Hut', 'Kerze', 'Socke', 'Stift', 'Lampe', 'Tasse', 'Uhr', 'Kiste', 'Würfel', 'Löffel', 'Tasche', 'Flasche', 'Schere', 'Telefon', 'Brille', 'Rucksack', 'Trommel', 'Hammer', 'Bürste', 'Ring', 'Fahrrad', 'Blume', 'Jacke', 'Kamera', 'Kette', 'Eimer', 'Buch']",['breit'],1,2.61524620000273,None,,,,,,,,,,,,,,,,,,,,,,,,,,,,,,,,,,,,,,,,,,,,,,,,,,,,,,,,,,,,,,,,,2,2024-01-22_11h34.40.360,watkins1,2023.2.3,99.67039002824941,97,2024-01-22 11h35.23.211777 +0000,
,,,,,,,1,0,1,0,,,,,,,,,,,,,,,,,76.4187646000064,,,,,,,,,,,,76.40988310001558,76.9009914000053,,,1,2.1990789999836124,,,,,,,,,,,,,,,,,,,,,76.90100269997492,82.90263939998113,Vase,robust,"['Vase', 'robust']",restudy,2,"['Geige', 'Vase', 'Schlüssel', 'Hut', 'Kerze', 'Socke', 'Stift', 'Lampe', 'Tasse', 'Uhr', 'Kiste', 'Würfel', 'Löffel', 'Tasche', 'Flasche', 'Schere', 'Telefon', 'Brille', 'Rucksack', 'Trommel', 'Hammer', 'Bürste', 'Ring', 'Fahrrad', 'Blume', 'Jacke', 'Kamera', 'Kette', 'Eimer', 'Buch']","['breit', 'robust']",1,2.1990789999836124,None,,,,,,,,,,,,,,,,,,,,,,,,,,,,,,,,,,,,,,,,,,,,,,,,,,,,,,,,,,,,,,,,,2,2024-01-22_11h34.40.360,watkins1,2023.2.3,99.67039002824941,97,2024-01-22 11h35.23.211777 +0000,
,,,,,,,2,0,2,0,,,,,,,,,,,,,,,,,82.91216319997329,,,,,,,,,,,,82.90316970000276,83.3942063000286,,,3,3.577497200050857,,,,,,,,,,,,,,,,,,,,,83.3942168999929,89.40284420002718,Schlüssel,schlicht,"['Schlüssel', 'schlicht']",restudy,2,"['Geige', 'Vase', 'Schlüssel', 'Hut', 'Kerze', 'Socke', 'Stift', 'Lampe', 'Tasse', 'Uhr', 'Kiste', 'Würfel', 'Löffel', 'Tasche', 'Flasche', 'Schere', 'Telefon', 'Brille', 'Rucksack', 'Trommel', 'Hammer', 'Bürste', 'Ring', 'Fahrrad', 'Blume', 'Jacke', 'Kamera', 'Kette', 'Eimer', 'Buch']","['breit', 'robust', 'schlicht']",3,3.577497200050857,None,,,,,,,,,,,,,,,,,,,,,,,,,,,,,,,,,,,,,,,,,,,,,,,,,,,,,,,,,,,,,,,,,2,2024-01-22_11h34.40.360,watkins1,2023.2.3,99.67039002824941,97,2024-01-22 11h35.23.211777 +0000,
,,,,,,,3,0,3,0,,,,,,,,,,,,,,,,,89.41224660002626,,,,,,,,,,,,89.40336350002326,89.89460469997721,,,1,4.96682009997312,,,,,,,,,,,,,,,,,,,,,89.89461580000352,95.8986701000249,Hut,nass,"['Hut', 'nass']",restudy,2,"['Geige', 'Vase', 'Schlüssel', 'Hut', 'Kerze', 'Socke', 'Stift', 'Lampe', 'Tasse', 'Uhr', 'Kiste', 'Würfel', 'Löffel', 'Tasche', 'Flasche', 'Schere', 'Telefon', 'Brille', 'Rucksack', 'Trommel', 'Hammer', 'Bürste', 'Ring', 'Fahrrad', 'Blume', 'Jacke', 'Kamera', 'Kette', 'Eimer', 'Buch']","['breit', 'robust', 'schlicht', 'nass']",1,4.96682009997312,None,,,,,,,,,,,,,,,,,,,,,,,,,,,,,,,,,,,,,,,,,,,,,,,,,,,,,,,,,,,,,,,,,2,2024-01-22_11h34.40.360,watkins1,2023.2.3,99.67039002824941,97,2024-01-22 11h35.23.211777 +0000,
,,,,,,,4,0,4,0,,,,,,,,,,,,,,,,,95.90811329998542,,,,,,,,,,,,95.89919540000847,96.39024330000393,,,1,2.1816457000095397,,,,,,,,,,,,,,,,,,,,,96.39025410002796,102.39181609998923,Kerze,schwer,"['Kerze', 'schwer']",test_sub,2,"['Geige', 'Vase', 'Schlüssel', 'Hut', 'Kerze', 'Socke', 'Stift', 'Lampe', 'Tasse', 'Uhr', 'Kiste', 'Würfel', 'Löffel', 'Tasche', 'Flasche', 'Schere', 'Telefon', 'Brille', 'Rucksack', 'Trommel', 'Hammer', 'Bürste', 'Ring', 'Fahrrad', 'Blume', 'Jacke', 'Kamera', 'Kette', 'Eimer', 'Buch']","['breit', 'robust', 'schlicht', 'nass', 'schwer']",1,2.1816457000095397,None,,,,,,,,,,,,,,,,,,,,,,,,,,,,,,,,,,,,,,,,,,,,,,,,,,,,,,,,,,,,,,,,,2,2024-01-22_11h34.40.360,watkins1,2023.2.3,99.67039002824941,97,2024-01-22 11h35.23.211777 +0000,
,,,,,,,5,0,5,0,,,,,,,,,,,,,,,,,102.40133490000153,,,,,,,,,,,,102.39233409997541,102.88319209998008,,,3,2.5205181999481283,,,,,,,,,,,,,,,,,,,,,102.88320300000487,108.88555960002122,Socke,flauschig,"['Socke', 'flauschig']",restudy,2,"['Geige', 'Vase', 'Schlüssel', 'Hut', 'Kerze', 'Socke', 'Stift', 'Lampe', 'Tasse', 'Uhr', 'Kiste', 'Würfel', 'Löffel', 'Tasche', 'Flasche', 'Schere', 'Telefon', 'Brille', 'Rucksack', 'Trommel', 'Hammer', 'Bürste', 'Ring', 'Fahrrad', 'Blume', 'Jacke', 'Kamera', 'Kette', 'Eimer', 'Buch']","['breit', 'robust', 'schlicht', 'nass', 'schwer', 'flauschig']",3,2.5205181999481283,None,,,,,,,,,,,,,,,,,,,,,,,,,,,,,,,,,,,,,,,,,,,,,,,,,,,,,,,,,,,,,,,,,2,2024-01-22_11h34.40.360,watkins1,2023.2.3,99.67039002824941,97,2024-01-22 11h35.23.211777 +0000,
,,,,,,,6,0,6,0,,,,,,,,,,,,,,,,,108.8950261999853,,,,,,,,,,,,108.8860959999729,109.37711370002944,,,3,2.7794524999917485,,,,,,,,,,,,,,,,,,,,,109.37712409999222,115.38759180001216,Stift,kaputt,"['Stift', 'kaputt']",restudy,2,"['Geige', 'Vase', 'Schlüssel', 'Hut', 'Kerze', 'Socke', 'Stift', 'Lampe', 'Tasse', 'Uhr', 'Kiste', 'Würfel', 'Löffel', 'Tasche', 'Flasche', 'Schere', 'Telefon', 'Brille', 'Rucksack', 'Trommel', 'Hammer', 'Bürste', 'Ring', 'Fahrrad', 'Blume', 'Jacke', 'Kamera', 'Kette', 'Eimer', 'Buch']","['breit', 'robust', 'schlicht', 'nass', 'schwer', 'flauschig', 'kaputt']",3,2.7794524999917485,None,,,,,,,,,,,,,,,,,,,,,,,,,,,,,,,,,,,,,,,,,,,,,,,,,,,,,,,,,,,,,,,,,2,2024-01-22_11h34.40.360,watkins1,2023.2.3,99.67039002824941,97,2024-01-22 11h35.23.211777 +0000,
,,,,,,,7,0,7,0,,,,,,,,,,,,,,,,,115.39713150000898,,,,,,,,,,,,115.3881075999816,115.87912759999745,,,2,3.005578799988143,,,,,,,,,,,,,,,,,,,,,115.87913820001995,121.88345429999754,Lampe,gut,"['Lampe', 'gut']",test_sub,2,"['Geige', 'Vase', 'Schlüssel', 'Hut', 'Kerze', 'Socke', 'Stift', 'Lampe', 'Tasse', 'Uhr', 'Kiste', 'Würfel', 'Löffel', 'Tasche', 'Flasche', 'Schere', 'Telefon', 'Brille', 'Rucksack', 'Trommel', 'Hammer', 'Bürste', 'Ring', 'Fahrrad', 'Blume', 'Jacke', 'Kamera', 'Kette', 'Eimer', 'Buch']","['breit', 'robust', 'schlicht', 'nass', 'schwer', 'flauschig', 'kaputt', 'gut']",2,3.005578799988143,None,,,,,,,,,,,,,,,,,,,,,,,,,,,,,,,,,,,,,,,,,,,,,,,,,,,,,,,,,,,,,,,,,2,2024-01-22_11h34.40.360,watkins1,2023.2.3,99.67039002824941,97,2024-01-22 11h35.23.211777 +0000,
,,,,,,,8,0,8,0,,,,,,,,,,,,,,,,,121.89297859999351,,,,,,,,,,,,121.88397149997763,122.37504750001244,,,3,1.8613964999676682,,,,,,,,,,,,,,,,,,,,,122.37505879998207,128.38122659997316,Tasse,praktisch,"['Tasse', 'praktisch']",test_sub,2,"['Geige', 'Vase', 'Schlüssel', 'Hut', 'Kerze', 'Socke', 'Stift', 'Lampe', 'Tasse', 'Uhr', 'Kiste', 'Würfel', 'Löffel', 'Tasche', 'Flasche', 'Schere', 'Telefon', 'Brille', 'Rucksack', 'Trommel', 'Hammer', 'Bürste', 'Ring', 'Fahrrad', 'Blume', 'Jacke', 'Kamera', 'Kette', 'Eimer', 'Buch']","['breit', 'robust', 'schlicht', 'nass', 'schwer', 'flauschig', 'kaputt', 'gut', 'praktisch']",3,1.8613964999676682,None,,,,,,,,,,,,,,,,,,,,,,,,,,,,,,,,,,,,,,,,,,,,,,,,,,,,,,,,,,,,,,,,,2,2024-01-22_11h34.40.360,watkins1,2023.2.3,99.67039002824941,97,2024-01-22 11h35.23.211777 +0000,
,,,,,,,9,0,9,0,,,,,,,,,,,,,,,,,128.39066099998308,,,,,,,,,,,,128.38175210001646,128.8727663999889,,,1,2.019664100022055,,,,,,,,,,,,,,,,,,,,,128.87277720001293,134.87731599999825,Uhr,niedlich,"['Uhr', 'niedlich']",restudy,2,"['Geige', 'Vase', 'Schlüssel', 'Hut', 'Kerze', 'Socke', 'Stift', 'Lampe', 'Tasse', 'Uhr', 'Kiste', 'Würfel', 'Löffel', 'Tasche', 'Flasche', 'Schere', 'Telefon', 'Brille', 'Rucksack', 'Trommel', 'Hammer', 'Bürste', 'Ring', 'Fahrrad', 'Blume', 'Jacke', 'Kamera', 'Kette', 'Eimer', 'Buch']","['breit', 'robust', 'schlicht', 'nass', 'schwer', 'flauschig', 'kaputt', 'gut', 'praktisch', 'niedlich']",1,2.019664100022055,None,,,,,,,,,,,,,,,,,,,,,,,,,,,,,,,,,,,,,,,,,,,,,,,,,,,,,,,,,,,,,,,,,2,2024-01-22_11h34.40.360,watkins1,2023.2.3,99.67039002824941,97,2024-01-22 11h35.23.211777 +0000,
,,,,,,,10,0,10,0,,,,,,,,,,,,,,,,,134.88678230001824,,,,,,,,,,,,134.87783160002436,135.3689021000173,,,3,2.4362218999885954,,,,,,,,,,,,,,,,,,,,,135.36891309998464,141.37193929997738,Kiste,klobig,"['Kiste', 'klobig']",test_sub,2,"['Geige', 'Vase', 'Schlüssel', 'Hut', 'Kerze', 'Socke', 'Stift', 'Lampe', 'Tasse', 'Uhr', 'Kiste', 'Würfel', 'Löffel', 'Tasche', 'Flasche', 'Schere', 'Telefon', 'Brille', 'Rucksack', 'Trommel', 'Hammer', 'Bürste', 'Ring', 'Fahrrad', 'Blume', 'Jacke', 'Kamera', 'Kette', 'Eimer', 'Buch']","['breit', 'robust', 'schlicht', 'nass', 'schwer', 'flauschig', 'kaputt', 'gut', 'praktisch', 'niedlich', 'klobig']",3,2.4362218999885954,None,,,,,,,,,,,,,,,,,,,,,,,,,,,,,,,,,,,,,,,,,,,,,,,,,,,,,,,,,,,,,,,,,2,2024-01-22_11h34.40.360,watkins1,2023.2.3,99.67039002824941,97,2024-01-22 11h35.23.211777 +0000,
,,,,,,,11,0,11,0,,,,,,,,,,,,,,,,,141.38144349999493,,,,,,,,,,,,141.37246149999555,141.86374220001744,,,1,1.8287681000074372,,,,,,,,,,,,,,,,,,,,,141.8637533999863,147.86618040001485,Würfel,hübsch,"['Würfel', 'hübsch']",restudy,2,"['Geige', 'Vase', 'Schlüssel', 'Hut', 'Kerze', 'Socke', 'Stift', 'Lampe', 'Tasse', 'Uhr', 'Kiste', 'Würfel', 'Löffel', 'Tasche', 'Flasche', 'Schere', 'Telefon', 'Brille', 'Rucksack', 'Trommel', 'Hammer', 'Bürste', 'Ring', 'Fahrrad', 'Blume', 'Jacke', 'Kamera', 'Kette', 'Eimer', 'Buch']","['breit', 'robust', 'schlicht', 'nass', 'schwer', 'flauschig', 'kaputt', 'gut', 'praktisch', 'niedlich', 'klobig', 'hübsch']",1,1.8287681000074372,None,,,,,,,,,,,,,,,,,,,,,,,,,,,,,,,,,,,,,,,,,,,,,,,,,,,,,,,,,,,,,,,,,2,2024-01-22_11h34.40.360,watkins1,2023.2.3,99.67039002824941,97,2024-01-22 11h35.23.211777 +0000,
,,,,,,,12,0,12,0,,,,,,,,,,,,,,,,,147.87564849999035,,,,,,,,,,,,147.86670140002389,148.35776839999016,,,1,1.8862658999860287,,,,,,,,,,,,,,,,,,,,,148.35777960001724,154.3646375000244,Löffel,durchsichtig,"['Löffel', 'durchsichtig']",test_sub,2,"['Geige', 'Vase', 'Schlüssel', 'Hut', 'Kerze', 'Socke', 'Stift', 'Lampe', 'Tasse', 'Uhr', 'Kiste', 'Würfel', 'Löffel', 'Tasche', 'Flasche', 'Schere', 'Telefon', 'Brille', 'Rucksack', 'Trommel', 'Hammer', 'Bürste', 'Ring', 'Fahrrad', 'Blume', 'Jacke', 'Kamera', 'Kette', 'Eimer', 'Buch']","['breit', 'robust', 'schlicht', 'nass', 'schwer', 'flauschig', 'kaputt', 'gut', 'praktisch', 'niedlich', 'klobig', 'hübsch', 'durchsichtig']",1,1.8862658999860287,None,,,,,,,,,,,,,,,,,,,,,,,,,,,,,,,,,,,,,,,,,,,,,,,,,,,,,,,,,,,,,,,,,2,2024-01-22_11h34.40.360,watkins1,2023.2.3,99.67039002824941,97,2024-01-22 11h35.23.211777 +0000,
,,,,,,,13,0,13,0,,,,,,,,,,,,,,,,,154.37416810001014,,,,,,,,,,,,154.36515059997328,154.85619790002238,,,2,3.2529388000257313,,,,,,,,,,,,,,,,,,,,,154.85620779998135,160.8658705999842,Tasche,sportlich,"['Tasche', 'sportlich']",test_sub,2,"['Geige', 'Vase', 'Schlüssel', 'Hut', 'Kerze', 'Socke', 'Stift', 'Lampe', 'Tasse', 'Uhr', 'Kiste', 'Würfel', 'Löffel', 'Tasche', 'Flasche', 'Schere', 'Telefon', 'Brille', 'Rucksack', 'Trommel', 'Hammer', 'Bürste', 'Ring', 'Fahrrad', 'Blume', 'Jacke', 'Kamera', 'Kette', 'Eimer', 'Buch']","['breit', 'robust', 'schlicht', 'nass', 'schwer', 'flauschig', 'kaputt', 'gut', 'praktisch', 'niedlich', 'klobig', 'hübsch', 'durchsichtig', 'sportlich']",2,3.2529388000257313,None,,,,,,,,,,,,,,,,,,,,,,,,,,,,,,,,,,,,,,,,,,,,,,,,,,,,,,,,,,,,,,,,,2,2024-01-22_11h34.40.360,watkins1,2023.2.3,99.67039002824941,97,2024-01-22 11h35.23.211777 +0000,
,,,,,,,14,0,14,0,,,,,,,,,,,,,,,,,160.87533100001747,,,,,,,,,,,,160.8663918999955,161.35728459997335,,,2,3.10335849999683,,,,,,,,,,,,,,,,,,,,,161.35729479999281,167.3588653000188,Flasche,matt,"['Flasche', 'matt']",test_sub,2,"['Geige', 'Vase', 'Schlüssel', 'Hut', 'Kerze', 'Socke', 'Stift', 'Lampe', 'Tasse', 'Uhr', 'Kiste', 'Würfel', 'Löffel', 'Tasche', 'Flasche', 'Schere', 'Telefon', 'Brille', 'Rucksack', 'Trommel', 'Hammer', 'Bürste', 'Ring', 'Fahrrad', 'Blume', 'Jacke', 'Kamera', 'Kette', 'Eimer', 'Buch']","['breit', 'robust', 'schlicht', 'nass', 'schwer', 'flauschig', 'kaputt', 'gut', 'praktisch', 'niedlich', 'klobig', 'hübsch', 'durchsichtig', 'sportlich', 'matt']",2,3.10335849999683,None,,,,,,,,,,,,,,,,,,,,,,,,,,,,,,,,,,,,,,,,,,,,,,,,,,,,,,,,,,,,,,,,,2,2024-01-22_11h34.40.360,watkins1,2023.2.3,99.67039002824941,97,2024-01-22 11h35.23.211777 +0000,
,,,,,,,15,0,15,0,,,,,,,,,,,,,,,,,167.36836949997814,,,,,,,,,,,,167.35938009998063,167.8504900999833,,,1,2.234781200008001,,,,,,,,,,,,,,,,,,,,,167.85050060000503,173.85963650001213,Schere,strahlend,"['Schere', 'strahlend']",test_sub,2,"['Geige', 'Vase', 'Schlüssel', 'Hut', 'Kerze', 'Socke', 'Stift', 'Lampe', 'Tasse', 'Uhr', 'Kiste', 'Würfel', 'Löffel', 'Tasche', 'Flasche', 'Schere', 'Telefon', 'Brille', 'Rucksack', 'Trommel', 'Hammer', 'Bürste', 'Ring', 'Fahrrad', 'Blume', 'Jacke', 'Kamera', 'Kette', 'Eimer', 'Buch']","['breit', 'robust', 'schlicht', 'nass', 'schwer', 'flauschig', 'kaputt', 'gut', 'praktisch', 'niedlich', 'klobig', 'hübsch', 'durchsichtig', 'sportlich', 'matt', 'strahlend']",1,2.234781200008001,None,,,,,,,,,,,,,,,,,,,,,,,,,,,,,,,,,,,,,,,,,,,,,,,,,,,,,,,,,,,,,,,,,2,2024-01-22_11h34.40.360,watkins1,2023.2.3,99.67039002824941,97,2024-01-22 11h35.23.211777 +0000,
,,,,,,,16,0,16,0,,,,,,,,,,,,,,,,,173.86911750002764,,,,,,,,,,,,173.86016089998884,174.35142740001902,,,1,1.989753300033044,,,,,,,,,,,,,,,,,,,,,174.3514382999856,180.36018489999697,Telefon,dunkel,"['Telefon', 'dunkel']",restudy,2,"['Geige', 'Vase', 'Schlüssel', 'Hut', 'Kerze', 'Socke', 'Stift', 'Lampe', 'Tasse', 'Uhr', 'Kiste', 'Würfel', 'Löffel', 'Tasche', 'Flasche', 'Schere', 'Telefon', 'Brille', 'Rucksack', 'Trommel', 'Hammer', 'Bürste', 'Ring', 'Fahrrad', 'Blume', 'Jacke', 'Kamera', 'Kette', 'Eimer', 'Buch']","['breit', 'robust', 'schlicht', 'nass', 'schwer', 'flauschig', 'kaputt', 'gut', 'praktisch', 'niedlich', 'klobig', 'hübsch', 'durchsichtig', 'sportlich', 'matt', 'strahlend', 'dunkel']",1,1.989753300033044,None,,,,,,,,,,,,,,,,,,,,,,,,,,,,,,,,,,,,,,,,,,,,,,,,,,,,,,,,,,,,,,,,,2,2024-01-22_11h34.40.360,watkins1,2023.2.3,99.67039002824941,97,2024-01-22 11h35.23.211777 +0000,
,,,,,,,17,0,17,0,,,,,,,,,,,,,,,,,180.36963029997423,,,,,,,,,,,,180.3607129000011,180.85157900000922,,,1,1.8161591999814846,,,,,,,,,,,,,,,,,,,,,180.851589399972,186.85624759999337,Brille,groß,"['Brille', 'groß']",restudy,2,"['Geige', 'Vase', 'Schlüssel', 'Hut', 'Kerze', 'Socke', 'Stift', 'Lampe', 'Tasse', 'Uhr', 'Kiste', 'Würfel', 'Löffel', 'Tasche', 'Flasche', 'Schere', 'Telefon', 'Brille', 'Rucksack', 'Trommel', 'Hammer', 'Bürste', 'Ring', 'Fahrrad', 'Blume', 'Jacke', 'Kamera', 'Kette', 'Eimer', 'Buch']","['breit', 'robust', 'schlicht', 'nass', 'schwer', 'flauschig', 'kaputt', 'gut', 'praktisch', 'niedlich', 'klobig', 'hübsch', 'durchsichtig', 'sportlich', 'matt', 'strahlend', 'dunkel', 'groß']",1,1.8161591999814846,None,,,,,,,,,,,,,,,,,,,,,,,,,,,,,,,,,,,,,,,,,,,,,,,,,,,,,,,,,,,,,,,,,2,2024-01-22_11h34.40.360,watkins1,2023.2.3,99.67039002824941,97,2024-01-22 11h35.23.211777 +0000,
,,,,,,,18,0,18,0,,,,,,,,,,,,,,,,,186.86568599997554,,,,,,,,,,,,186.85676430002786,187.34779909998178,,,1,3.20881240000017,,,,,,,,,,,,,,,,,,,,,187.3478102000081,193.3483851000201,Rucksack,zart,"['Rucksack', 'zart']",test_sub,2,"['Geige', 'Vase', 'Schlüssel', 'Hut', 'Kerze', 'Socke', 'Stift', 'Lampe', 'Tasse', 'Uhr', 'Kiste', 'Würfel', 'Löffel', 'Tasche', 'Flasche', 'Schere', 'Telefon', 'Brille', 'Rucksack', 'Trommel', 'Hammer', 'Bürste', 'Ring', 'Fahrrad', 'Blume', 'Jacke', 'Kamera', 'Kette', 'Eimer', 'Buch']","['breit', 'robust', 'schlicht', 'nass', 'schwer', 'flauschig', 'kaputt', 'gut', 'praktisch', 'niedlich', 'klobig', 'hübsch', 'durchsichtig', 'sportlich', 'matt', 'strahlend', 'dunkel', 'groß', 'zart']",1,3.20881240000017,None,,,,,,,,,,,,,,,,,,,,,,,,,,,,,,,,,,,,,,,,,,,,,,,,,,,,,,,,,,,,,,,,,2,2024-01-22_11h34.40.360,watkins1,2023.2.3,99.67039002824941,97,2024-01-22 11h35.23.211777 +0000,
,,,,,,,19,0,19,0,,,,,,,,,,,,,,,,,193.3578410000191,,,,,,,,,,,,193.3489081999869,193.83999439998297,,,1,3.3891621999791823,,,,,,,,,,,,,,,,,,,,,193.84000450000167,199.84935229999246,Trommel,schmutzig,"['Trommel', 'schmutzig']",test_sub,2,"['Geige', 'Vase', 'Schlüssel', 'Hut', 'Kerze', 'Socke', 'Stift', 'Lampe', 'Tasse', 'Uhr', 'Kiste', 'Würfel', 'Löffel', 'Tasche', 'Flasche', 'Schere', 'Telefon', 'Brille', 'Rucksack', 'Trommel', 'Hammer', 'Bürste', 'Ring', 'Fahrrad', 'Blume', 'Jacke', 'Kamera', 'Kette', 'Eimer', 'Buch']","['breit', 'robust', 'schlicht', 'nass', 'schwer', 'flauschig', 'kaputt', 'gut', 'praktisch', 'niedlich', 'klobig', 'hübsch', 'durchsichtig', 'sportlich', 'matt', 'strahlend', 'dunkel', 'groß', 'zart', 'schmutzig']",1,3.3891621999791823,None,,,,,,,,,,,,,,,,,,,,,,,,,,,,,,,,,,,,,,,,,,,,,,,,,,,,,,,,,,,,,,,,,2,2024-01-22_11h34.40.360,watkins1,2023.2.3,99.67039002824941,97,2024-01-22 11h35.23.211777 +0000,
,,,,,,,20,0,20,0,,,,,,,,,,,,,,,,,199.8588343000156,,,,,,,,,,,,199.84989690000657,200.3409117999836,,,2,2.0804883999517187,,,,,,,,,,,,,,,,,,,,,200.34092250000685,206.34867699997267,Hammer,dick,"['Hammer', 'dick']",restudy,2,"['Geige', 'Vase', 'Schlüssel', 'Hut', 'Kerze', 'Socke', 'Stift', 'Lampe', 'Tasse', 'Uhr', 'Kiste', 'Würfel', 'Löffel', 'Tasche', 'Flasche', 'Schere', 'Telefon', 'Brille', 'Rucksack', 'Trommel', 'Hammer', 'Bürste', 'Ring', 'Fahrrad', 'Blume', 'Jacke', 'Kamera', 'Kette', 'Eimer', 'Buch']","['breit', 'robust', 'schlicht', 'nass', 'schwer', 'flauschig', 'kaputt', 'gut', 'praktisch', 'niedlich', 'klobig', 'hübsch', 'durchsichtig', 'sportlich', 'matt', 'strahlend', 'dunkel', 'groß', 'zart', 'schmutzig', 'dick']",2,2.0804883999517187,None,,,,,,,,,,,,,,,,,,,,,,,,,,,,,,,,,,,,,,,,,,,,,,,,,,,,,,,,,,,,,,,,,2,2024-01-22_11h34.40.360,watkins1,2023.2.3,99.67039002824941,97,2024-01-22 11h35.23.211777 +0000,
,,,,,,,21,0,21,0,,,,,,,,,,,,,,,,,206.3581466000178,,,,,,,,,,,,206.34921010001563,206.84024280001177,,,1,1.9410137999802828,,,,,,,,,,,,,,,,,,,,,206.8402532999753,212.8499953999999,Bürste,gestreift,"['Bürste', 'gestreift']",test_sub,2,"['Geige', 'Vase', 'Schlüssel', 'Hut', 'Kerze', 'Socke', 'Stift', 'Lampe', 'Tasse', 'Uhr', 'Kiste', 'Würfel', 'Löffel', 'Tasche', 'Flasche', 'Schere', 'Telefon', 'Brille', 'Rucksack', 'Trommel', 'Hammer', 'Bürste', 'Ring', 'Fahrrad', 'Blume', 'Jacke', 'Kamera', 'Kette', 'Eimer', 'Buch']","['breit', 'robust', 'schlicht', 'nass', 'schwer', 'flauschig', 'kaputt', 'gut', 'praktisch', 'niedlich', 'klobig', 'hübsch', 'durchsichtig', 'sportlich', 'matt', 'strahlend', 'dunkel', 'groß', 'zart', 'schmutzig', 'dick', 'gestreift']",1,1.9410137999802828,None,,,,,,,,,,,,,,,,,,,,,,,,,,,,,,,,,,,,,,,,,,,,,,,,,,,,,,,,,,,,,,,,,2,2024-01-22_11h34.40.360,watkins1,2023.2.3,99.67039002824941,97,2024-01-22 11h35.23.211777 +0000,
,,,,,,,22,0,22,0,,,,,,,,,,,,,,,,,212.859454200021,,,,,,,,,,,,212.85051090002526,213.34153199999128,,,1,4.359706600022037,,,,,,,,,,,,,,,,,,,,,213.34154290001607,219.35156929999357,Ring,nachhaltig,"['Ring', 'nachhaltig']",restudy,2,"['Geige', 'Vase', 'Schlüssel', 'Hut', 'Kerze', 'Socke', 'Stift', 'Lampe', 'Tasse', 'Uhr', 'Kiste', 'Würfel', 'Löffel', 'Tasche', 'Flasche', 'Schere', 'Telefon', 'Brille', 'Rucksack', 'Trommel', 'Hammer', 'Bürste', 'Ring', 'Fahrrad', 'Blume', 'Jacke', 'Kamera', 'Kette', 'Eimer', 'Buch']","['breit', 'robust', 'schlicht', 'nass', 'schwer', 'flauschig', 'kaputt', 'gut', 'praktisch', 'niedlich', 'klobig', 'hübsch', 'durchsichtig', 'sportlich', 'matt', 'strahlend', 'dunkel', 'groß', 'zart', 'schmutzig', 'dick', 'gestreift', 'nachhaltig']",1,4.359706600022037,None,,,,,,,,,,,,,,,,,,,,,,,,,,,,,,,,,,,,,,,,,,,,,,,,,,,,,,,,,,,,,,,,,2,2024-01-22_11h34.40.360,watkins1,2023.2.3,99.67039002824941,97,2024-01-22 11h35.23.211777 +0000,
,,,,,,,23,0,23,0,,,,,,,,,,,,,,,,,219.36107400001492,,,,,,,,,,,,219.35209050000412,219.8431037000264,,,2,2.681963299983181,,,,,,,,,,,,,,,,,,,,,219.84311409998918,225.84942990000127,Fahrrad,teuer,"['Fahrrad', 'teuer']",restudy,2,"['Geige', 'Vase', 'Schlüssel', 'Hut', 'Kerze', 'Socke', 'Stift', 'Lampe', 'Tasse', 'Uhr', 'Kiste', 'Würfel', 'Löffel', 'Tasche', 'Flasche', 'Schere', 'Telefon', 'Brille', 'Rucksack', 'Trommel', 'Hammer', 'Bürste', 'Ring', 'Fahrrad', 'Blume', 'Jacke', 'Kamera', 'Kette', 'Eimer', 'Buch']","['breit', 'robust', 'schlicht', 'nass', 'schwer', 'flauschig', 'kaputt', 'gut', 'praktisch', 'niedlich', 'klobig', 'hübsch', 'durchsichtig', 'sportlich', 'matt', 'strahlend', 'dunkel', 'groß', 'zart', 'schmutzig', 'dick', 'gestreift', 'nachhaltig', 'teuer']",2,2.681963299983181,None,,,,,,,,,,,,,,,,,,,,,,,,,,,,,,,,,,,,,,,,,,,,,,,,,,,,,,,,,,,,,,,,,2,2024-01-22_11h34.40.360,watkins1,2023.2.3,99.67039002824941,97,2024-01-22 11h35.23.211777 +0000,
,,,,,,,24,0,24,0,,,,,,,,,,,,,,,,,225.85894389997702,,,,,,,,,,,,225.8499557999894,226.34203270002035,,,1,3.4790247999480926,,,,,,,,,,,,,,,,,,,,,226.34204349998618,232.34671519999392,Blume,gepunktet,"['Blume', 'gepunktet']",restudy,2,"['Geige', 'Vase', 'Schlüssel', 'Hut', 'Kerze', 'Socke', 'Stift', 'Lampe', 'Tasse', 'Uhr', 'Kiste', 'Würfel', 'Löffel', 'Tasche', 'Flasche', 'Schere', 'Telefon', 'Brille', 'Rucksack', 'Trommel', 'Hammer', 'Bürste', 'Ring', 'Fahrrad', 'Blume', 'Jacke', 'Kamera', 'Kette', 'Eimer', 'Buch']","['breit', 'robust', 'schlicht', 'nass', 'schwer', 'flauschig', 'kaputt', 'gut', 'praktisch', 'niedlich', 'klobig', 'hübsch', 'durchsichtig', 'sportlich', 'matt', 'strahlend', 'dunkel', 'groß', 'zart', 'schmutzig', 'dick', 'gestreift', 'nachhaltig', 'teuer', 'gepunktet']",1,3.4790247999480926,None,,,,,,,,,,,,,,,,,,,,,,,,,,,,,,,,,,,,,,,,,,,,,,,,,,,,,,,,,,,,,,,,,2,2024-01-22_11h34.40.360,watkins1,2023.2.3,99.67039002824941,97,2024-01-22 11h35.23.211777 +0000,
,,,,,,,25,0,25,0,,,,,,,,,,,,,,,,,232.3562064000289,,,,,,,,,,,,232.3472371000098,232.83834949997254,,,3,2.7658044999698177,,,,,,,,,,,,,,,,,,,,,232.8383591999882,238.84258140000748,Jacke,kratzig,"['Jacke', 'kratzig']",test_sub,2,"['Geige', 'Vase', 'Schlüssel', 'Hut', 'Kerze', 'Socke', 'Stift', 'Lampe', 'Tasse', 'Uhr', 'Kiste', 'Würfel', 'Löffel', 'Tasche', 'Flasche', 'Schere', 'Telefon', 'Brille', 'Rucksack', 'Trommel', 'Hammer', 'Bürste', 'Ring', 'Fahrrad', 'Blume', 'Jacke', 'Kamera', 'Kette', 'Eimer', 'Buch']","['breit', 'robust', 'schlicht', 'nass', 'schwer', 'flauschig', 'kaputt', 'gut', 'praktisch', 'niedlich', 'klobig', 'hübsch', 'durchsichtig', 'sportlich', 'matt', 'strahlend', 'dunkel', 'groß', 'zart', 'schmutzig', 'dick', 'gestreift', 'nachhaltig', 'teuer', 'gepunktet', 'kratzig']",3,2.7658044999698177,None,,,,,,,,,,,,,,,,,,,,,,,,,,,,,,,,,,,,,,,,,,,,,,,,,,,,,,,,,,,,,,,,,2,2024-01-22_11h34.40.360,watkins1,2023.2.3,99.67039002824941,97,2024-01-22 11h35.23.211777 +0000,
,,,,,,,26,0,26,0,,,,,,,,,,,,,,,,,238.85202990000835,,,,,,,,,,,,238.84310840000398,239.33409090002533,,,2,1.6631273999810219,,,,,,,,,,,,,,,,,,,,,239.3341012999881,245.3436097999802,Kamera,sauber,"['Kamera', 'sauber']",restudy,2,"['Geige', 'Vase', 'Schlüssel', 'Hut', 'Kerze', 'Socke', 'Stift', 'Lampe', 'Tasse', 'Uhr', 'Kiste', 'Würfel', 'Löffel', 'Tasche', 'Flasche', 'Schere', 'Telefon', 'Brille', 'Rucksack', 'Trommel', 'Hammer', 'Bürste', 'Ring', 'Fahrrad', 'Blume', 'Jacke', 'Kamera', 'Kette', 'Eimer', 'Buch']","['breit', 'robust', 'schlicht', 'nass', 'schwer', 'flauschig', 'kaputt', 'gut', 'praktisch', 'niedlich', 'klobig', 'hübsch', 'durchsichtig', 'sportlich', 'matt', 'strahlend', 'dunkel', 'groß', 'zart', 'schmutzig', 'dick', 'gestreift', 'nachhaltig', 'teuer', 'gepunktet', 'kratzig', 'sauber']",2,1.6631273999810219,None,,,,,,,,,,,,,,,,,,,,,,,,,,,,,,,,,,,,,,,,,,,,,,,,,,,,,,,,,,,,,,,,,2,2024-01-22_11h34.40.360,watkins1,2023.2.3,99.67039002824941,97,2024-01-22 11h35.23.211777 +0000,
,,,,,,,27,0,27,0,,,,,,,,,,,,,,,,,245.35308440000517,,,,,,,,,,,,245.3441399000003,245.83509290002985,,,3,2.2330471000168473,,,,,,,,,,,,,,,,,,,,,245.8351035999949,251.84115829999791,Kette,verspielt,"['Kette', 'verspielt']",test_sub,2,"['Geige', 'Vase', 'Schlüssel', 'Hut', 'Kerze', 'Socke', 'Stift', 'Lampe', 'Tasse', 'Uhr', 'Kiste', 'Würfel', 'Löffel', 'Tasche', 'Flasche', 'Schere', 'Telefon', 'Brille', 'Rucksack', 'Trommel', 'Hammer', 'Bürste', 'Ring', 'Fahrrad', 'Blume', 'Jacke', 'Kamera', 'Kette', 'Eimer', 'Buch']","['breit', 'robust', 'schlicht', 'nass', 'schwer', 'flauschig', 'kaputt', 'gut', 'praktisch', 'niedlich', 'klobig', 'hübsch', 'durchsichtig', 'sportlich', 'matt', 'strahlend', 'dunkel', 'groß', 'zart', 'schmutzig', 'dick', 'gestreift', 'nachhaltig', 'teuer', 'gepunktet', 'kratzig', 'sauber', 'verspielt']",3,2.2330471000168473,None,,,,,,,,,,,,,,,,,,,,,,,,,,,,,,,,,,,,,,,,,,,,,,,,,,,,,,,,,,,,,,,,,2,2024-01-22_11h34.40.360,watkins1,2023.2.3,99.67039002824941,97,2024-01-22 11h35.23.211777 +0000,
,,,,,,,28,0,28,0,,,,,,,,,,,,,,,,,251.85056729998905,,,,,,,,,,,,251.8416832999792,252.33288150001317,,,2,2.239691499969922,,,,,,,,,,,,,,,,,,,,,252.33289189997595,258.33380000002217,Eimer,neu,"['Eimer', 'neu']",test_sub,2,"['Geige', 'Vase', 'Schlüssel', 'Hut', 'Kerze', 'Socke', 'Stift', 'Lampe', 'Tasse', 'Uhr', 'Kiste', 'Würfel', 'Löffel', 'Tasche', 'Flasche', 'Schere', 'Telefon', 'Brille', 'Rucksack', 'Trommel', 'Hammer', 'Bürste', 'Ring', 'Fahrrad', 'Blume', 'Jacke', 'Kamera', 'Kette', 'Eimer', 'Buch']","['breit', 'robust', 'schlicht', 'nass', 'schwer', 'flauschig', 'kaputt', 'gut', 'praktisch', 'niedlich', 'klobig', 'hübsch', 'durchsichtig', 'sportlich', 'matt', 'strahlend', 'dunkel', 'groß', 'zart', 'schmutzig', 'dick', 'gestreift', 'nachhaltig', 'teuer', 'gepunktet', 'kratzig', 'sauber', 'verspielt', 'neu']",2,2.239691499969922,None,,,,,,,,,,,,,,,,,,,,,,,,,,,,,,,,,,,,,,,,,,,,,,,,,,,,,,,,,,,,,,,,,2,2024-01-22_11h34.40.360,watkins1,2023.2.3,99.67039002824941,97,2024-01-22 11h35.23.211777 +0000,
,,,,,,,29,0,29,0,,,,,,,,,,,,,,,,,258.3433263999759,,,,,,,,,,,,258.3343364999746,258.8253337999922,,,1,1.651895000017248,,,,,,,,,,,,,,,,,,,,,258.8253440000117,264.8341908000293,Buch,krumm,"['Buch', 'krumm']",restudy,2,"['Geige', 'Vase', 'Schlüssel', 'Hut', 'Kerze', 'Socke', 'Stift', 'Lampe', 'Tasse', 'Uhr', 'Kiste', 'Würfel', 'Löffel', 'Tasche', 'Flasche', 'Schere', 'Telefon', 'Brille', 'Rucksack', 'Trommel', 'Hammer', 'Bürste', 'Ring', 'Fahrrad', 'Blume', 'Jacke', 'Kamera', 'Kette', 'Eimer', 'Buch']","['breit', 'robust', 'schlicht', 'nass', 'schwer', 'flauschig', 'kaputt', 'gut', 'praktisch', 'niedlich', 'klobig', 'hübsch', 'durchsichtig', 'sportlich', 'matt', 'strahlend', 'dunkel', 'groß', 'zart', 'schmutzig', 'dick', 'gestreift', 'nachhaltig', 'teuer', 'gepunktet', 'kratzig', 'sauber', 'verspielt', 'neu', 'krumm']",1,1.651895000017248,None,,,,,,,,,,,,,,,,,,,,,,,,,,,,,,,,,,,,,,,,,,,,,,,,,,,,,,,,,,,,,,,,,2,2024-01-22_11h34.40.360,watkins1,2023.2.3,99.67039002824941,97,2024-01-22 11h35.23.211777 +0000,
,,,,,,,,,,,0,0,0,0,,,,,,,,,,,,,264.84366710000904,,,,,,,,,,,,264.83503030001884,265.3257504000212,,,[],[],,,,,,,,,,,,4.450047700025607,None,,,,,Tasse,,,,,Tasse,praktisch,"['Tasse', 'praktisch']",test_sub,2,,,,,,264.8349539000192,264.83500259998254,"['Tasse', 'Rucksack', 'Tasche', 'Buch', 'Fahrrad', 'Brille', 'Würfel', 'Stift', 'Blume', 'Ring', 'Uhr', 'Lampe', 'Kiste', 'Schlüssel', 'Jacke', 'Hammer', 'Socke', 'Flasche', 'Bürste', 'Eimer', 'Hut', 'Kamera', 'Löffel', 'Kette', 'Vase', 'Geige', 'Schere', 'Kerze', 'Telefon', 'Trommel']",265.325761199987,265.32843719999073,None,265.3286179000279,265.3312099999748,None,265.33136900002137,265.3338803999941,None,265.3340372000239,265.33520700002555,265.3352196000051,1,271.34204329998465,,,,,,,,,,,,,,,,,,,,,,,,,,,,,,,,,,,,,,,,,,,,,,,,2,2024-01-22_11h34.40.360,watkins1,2023.2.3,99.67039002824941,97,2024-01-22 11h35.23.211777 +0000,
,,,,,,,,,,,1,0,1,0,,,,,,,,,,,,,271.3519045999856,,,,,,,,,,,,271.3423261999851,271.8339543999755,,,[],[],,,,,,,,,,,,None,None,,,,,,,,,,Rucksack,zart,"['Rucksack', 'zart']",test_sub,2,,,,,,271.34225909999805,271.34229689999484,"['Tasse', 'Rucksack', 'Tasche', 'Buch', 'Fahrrad', 'Brille', 'Würfel', 'Stift', 'Blume', 'Ring', 'Uhr', 'Lampe', 'Kiste', 'Schlüssel', 'Jacke', 'Hammer', 'Socke', 'Flasche', 'Bürste', 'Eimer', 'Hut', 'Kamera', 'Löffel', 'Kette', 'Vase', 'Geige', 'Schere', 'Kerze', 'Telefon', 'Trommel']",271.83396459999494,271.83680689998437,None,271.8369283999782,271.83968159998767,None,271.8397936000256,271.8424573999946,None,271.8425664000097,271.8437952999957,271.8438078999752,0,277.8501041000127,,,,,,,,,,,,,,,,,,,,,,,,,,,,,,,,,,,,,,,,,,,,,,,,2,2024-01-22_11h34.40.360,watkins1,2023.2.3,99.67039002824941,97,2024-01-22 11h35.23.211777 +0000,
,,,,,,,,,,,2,0,2,0,,,,,,,,,,,,,277.8599647000083,,,,,,,,,,,,277.8503826999804,278.3418985999888,,,[],[],,,,,,,,,,,,1.0244243000051938,None,,,,,Tasche,,,,,Tasche,sportlich,"['Tasche', 'sportlich']",test_sub,2,,,,,,277.85031559999334,277.85035409999546,"['Tasse', 'Rucksack', 'Tasche', 'Buch', 'Fahrrad', 'Brille', 'Würfel', 'Stift', 'Blume', 'Ring', 'Uhr', 'Lampe', 'Kiste', 'Schlüssel', 'Jacke', 'Hammer', 'Socke', 'Flasche', 'Bürste', 'Eimer', 'Hut', 'Kamera', 'Löffel', 'Kette', 'Vase', 'Geige', 'Schere', 'Kerze', 'Telefon', 'Trommel']",278.34190930001205,278.3444954000297,None,278.344620399992,278.3470199999865,None,278.347130500013,278.34952540002996,None,278.3496325999731,278.3508115999866,278.35082420002436,1,284.35659769998165,,,,,,,,,,,,,,,,,,,,,,,,,,,,,,,,,,,,,,,,,,,,,,,,2,2024-01-22_11h34.40.360,watkins1,2023.2.3,99.67039002824941,97,2024-01-22 11h35.23.211777 +0000,
,,,,,,,,,,,3,0,3,0,,,,,,,,,,,,,284.36638870002935,,,,,,,,,,,,284.3568834000034,284.8484937999747,,,[],[],,,,,,,,,,,,None,None,,,,,,,,,,Buch,krumm,"['Buch', 'krumm']",restudy,2,,,,,,284.3568128999905,284.35685410001315,"['Tasse', 'Rucksack', 'Tasche', 'Buch', 'Fahrrad', 'Brille', 'Würfel', 'Stift', 'Blume', 'Ring', 'Uhr', 'Lampe', 'Kiste', 'Schlüssel', 'Jacke', 'Hammer', 'Socke', 'Flasche', 'Bürste', 'Eimer', 'Hut', 'Kamera', 'Löffel', 'Kette', 'Vase', 'Geige', 'Schere', 'Kerze', 'Telefon', 'Trommel']",284.84850449999794,284.8511141000199,None,284.8512380999746,290.85435839998536,2,290.85473850002745,290.85726110002724,None,290.85737149999477,290.858418799995,290.8584304000251,,290.85989959997823,3.513569100003224,None,,,,,,,,,,,,,,,,,,,,,,,,,,,,,,,,,,,,,,,,,,,,,,2,2024-01-22_11h34.40.360,watkins1,2023.2.3,99.67039002824941,97,2024-01-22 11h35.23.211777 +0000,
,,,,,,,,,,,4,0,4,0,,,,,,,,,,,,,290.8638561000116,,,,,,,,,,,,290.8601810000255,291.35593359998893,,,[],[],,,,,,,,,,,,None,None,,,,,,,,,,Fahrrad,teuer,"['Fahrrad', 'teuer']",restudy,2,,,,,,290.860114399984,290.86015389999375,"['Tasse', 'Rucksack', 'Tasche', 'Buch', 'Fahrrad', 'Brille', 'Würfel', 'Stift', 'Blume', 'Ring', 'Uhr', 'Lampe', 'Kiste', 'Schlüssel', 'Jacke', 'Hammer', 'Socke', 'Flasche', 'Bürste', 'Eimer', 'Hut', 'Kamera', 'Löffel', 'Kette', 'Vase', 'Geige', 'Schere', 'Kerze', 'Telefon', 'Trommel']",291.35594550002133,291.35871749999933,None,291.3588417000137,297.36043070000596,2,297.3607405999792,297.36348840000574,None,297.36360300000524,297.3648156999843,297.36482750001596,,297.36599409999326,2.7345065000117756,None,,,,,,,,,,,,,,,,,,,,,,,,,,,,,,,,,,,,,,,,,,,,,,2,2024-01-22_11h34.40.360,watkins1,2023.2.3,99.67039002824941,97,2024-01-22 11h35.23.211777 +0000,
,,,,,,,,,,,5,0,5,0,,,,,,,,,,,,,297.3698976999731,,,,,,,,,,,,297.3662823999766,297.86195490002865,,,[],[],,,,,,,,,,,,None,None,,,,,,,,,,Brille,groß,"['Brille', 'groß']",restudy,2,,,,,,297.3662136999774,297.36625439999625,"['Tasse', 'Rucksack', 'Tasche', 'Buch', 'Fahrrad', 'Brille', 'Würfel', 'Stift', 'Blume', 'Ring', 'Uhr', 'Lampe', 'Kiste', 'Schlüssel', 'Jacke', 'Hammer', 'Socke', 'Flasche', 'Bürste', 'Eimer', 'Hut', 'Kamera', 'Löffel', 'Kette', 'Vase', 'Geige', 'Schere', 'Kerze', 'Telefon', 'Trommel']",297.86196549999295,297.8646349000046,None,297.86475710000377,303.8671451000264,1,303.8674384999904,303.86998959997436,None,303.8701016000123,303.8712812999729,303.87129310000455,,303.87232179997955,2.724704099993687,None,,,,,,,,,,,,,,,,,,,,,,,,,,,,,,,,,,,,,,,,,,,,,,2,2024-01-22_11h34.40.360,watkins1,2023.2.3,99.67039002824941,97,2024-01-22 11h35.23.211777 +0000,
,,,,,,,,,,,6,0,6,0,,,,,,,,,,,,,303.8766100999783,,,,,,,,,,,,303.87260360002983,304.3687358999741,,,[],[],,,,,,,,,,,,None,None,,,,,,,,,,Würfel,hübsch,"['Würfel', 'hübsch']",restudy,2,,,,,,303.8725381999975,303.8725770000019,"['Tasse', 'Rucksack', 'Tasche', 'Buch', 'Fahrrad', 'Brille', 'Würfel', 'Stift', 'Blume', 'Ring', 'Uhr', 'Lampe', 'Kiste', 'Schlüssel', 'Jacke', 'Hammer', 'Socke', 'Flasche', 'Bürste', 'Eimer', 'Hut', 'Kamera', 'Löffel', 'Kette', 'Vase', 'Geige', 'Schere', 'Kerze', 'Telefon', 'Trommel']",304.3687467999989,304.37128329998814,None,304.37140689999796,310.3815830000094,1,310.3818766999757,310.3847168000066,None,310.3848306,310.3860504999757,310.3860624000081,,310.38725470000645,1.3219914000364952,None,,,,,,,,,,,,,,,,,,,,,,,,,,,,,,,,,,,,,,,,,,,,,,2,2024-01-22_11h34.40.360,watkins1,2023.2.3,99.67039002824941,97,2024-01-22 11h35.23.211777 +0000,
,,,,,,,,,,,7,0,7,0,,,,,,,,,,,,,310.39104760001646,,,,,,,,,,,,310.38754710002104,310.88301310001407,,,[],[],,,,,,,,,,,,None,None,,,,,,,,,,Stift,kaputt,"['Stift', 'kaputt']",restudy,2,,,,,,310.3874792000279,310.3875197999878,"['Tasse', 'Rucksack', 'Tasche', 'Buch', 'Fahrrad', 'Brille', 'Würfel', 'Stift', 'Blume', 'Ring', 'Uhr', 'Lampe', 'Kiste', 'Schlüssel', 'Jacke', 'Hammer', 'Socke', 'Flasche', 'Bürste', 'Eimer', 'Hut', 'Kamera', 'Löffel', 'Kette', 'Vase', 'Geige', 'Schere', 'Kerze', 'Telefon', 'Trommel']",310.8830245999852,310.88573290000204,None,310.88585939997574,316.8894022000022,3,316.8896951000206,316.8926551999757,None,316.89276890002657,316.8939338999917,316.89394560002256,,316.8951345999958,1.959499200049322,None,,,,,,,,,,,,,,,,,,,,,,,,,,,,,,,,,,,,,,,,,,,,,,2,2024-01-22_11h34.40.360,watkins1,2023.2.3,99.67039002824941,97,2024-01-22 11h35.23.211777 +0000,
,,,,,,,,,,,8,0,8,0,,,,,,,,,,,,,316.89886349998415,,,,,,,,,,,,316.8954219999723,317.3910117999767,,,[],[],,,,,,,,,,,,None,None,,,,,,,,,,Blume,gepunktet,"['Blume', 'gepunktet']",restudy,2,,,,,,316.89535489998525,316.8953948999988,"['Tasse', 'Rucksack', 'Tasche', 'Buch', 'Fahrrad', 'Brille', 'Würfel', 'Stift', 'Blume', 'Ring', 'Uhr', 'Lampe', 'Kiste', 'Schlüssel', 'Jacke', 'Hammer', 'Socke', 'Flasche', 'Bürste', 'Eimer', 'Hut', 'Kamera', 'Löffel', 'Kette', 'Vase', 'Geige', 'Schere', 'Kerze', 'Telefon', 'Trommel']",317.3910234000068,317.3937302000122,None,317.3938536000205,323.3981768999947,1,323.3984699000139,323.4012779999757,None,323.401388600003,323.40254929999355,323.40256100002443,,323.4038064000197,1.0754382000304759,None,,,,,,,,,,,,,,,,,,,,,,,,,,,,,,,,,,,,,,,,,,,,,,2,2024-01-22_11h34.40.360,watkins1,2023.2.3,99.67039002824941,97,2024-01-22 11h35.23.211777 +0000,
,,,,,,,,,,,9,0,9,0,,,,,,,,,,,,,323.40761619998375,,,,,,,,,,,,323.40408870001556,323.89982799999416,,,[],[],,,,,,,,,,,,None,None,,,,,,,,,,Ring,nachhaltig,"['Ring', 'nachhaltig']",restudy,2,,,,,,323.4040225999779,323.40406179998536,"['Tasse', 'Rucksack', 'Tasche', 'Buch', 'Fahrrad', 'Brille', 'Würfel', 'Stift', 'Blume', 'Ring', 'Uhr', 'Lampe', 'Kiste', 'Schlüssel', 'Jacke', 'Hammer', 'Socke', 'Flasche', 'Bürste', 'Eimer', 'Hut', 'Kamera', 'Löffel', 'Kette', 'Vase', 'Geige', 'Schere', 'Kerze', 'Telefon', 'Trommel']",323.89983890001895,323.90247000003,None,323.9025978000136,329.9070694000111,1,329.90736210002797,329.91013749997364,None,329.9102507000207,329.91130620002514,329.9113182000001,,329.912596500013,1.8707928000367247,None,,,,,,,,,,,,,,,,,,,,,,,,,,,,,,,,,,,,,,,,,,,,,,2,2024-01-22_11h34.40.360,watkins1,2023.2.3,99.67039002824941,97,2024-01-22 11h35.23.211777 +0000,
,,,,,,,,,,,10,0,10,0,,,,,,,,,,,,,329.9165872000158,,,,,,,,,,,,329.9128802000196,330.4084989000112,,,[],[],,,,,,,,,,,,None,None,,,,,,,,,,Uhr,niedlich,"['Uhr', 'niedlich']",restudy,2,,,,,,329.9128130999743,329.91285279998556,"['Tasse', 'Rucksack', 'Tasche', 'Buch', 'Fahrrad', 'Brille', 'Würfel', 'Stift', 'Blume', 'Ring', 'Uhr', 'Lampe', 'Kiste', 'Schlüssel', 'Jacke', 'Hammer', 'Socke', 'Flasche', 'Bürste', 'Eimer', 'Hut', 'Kamera', 'Löffel', 'Kette', 'Vase', 'Geige', 'Schere', 'Kerze', 'Telefon', 'Trommel']",330.40851039998233,330.4111649999977,None,330.41129140002886,336.41354650002904,1,336.41384890000336,336.41647190001095,None,336.41659009997966,336.41772929998115,336.4177411000128,,336.41896829998586,0.986002899997402,None,,,,,,,,,,,,,,,,,,,,,,,,,,,,,,,,,,,,,,,,,,,,,,2,2024-01-22_11h34.40.360,watkins1,2023.2.3,99.67039002824941,97,2024-01-22 11h35.23.211777 +0000,
,,,,,,,,,,,11,0,11,0,,,,,,,,,,,,,336.42306010000175,,,,,,,,,,,,336.41925159998937,336.9151768999873,,,[],[],,,,,,,,,,,,None,None,,,,,,,,,,Lampe,gut,"['Lampe', 'gut']",test_sub,2,,,,,,336.41918460000306,336.4192243000143,"['Tasse', 'Rucksack', 'Tasche', 'Buch', 'Fahrrad', 'Brille', 'Würfel', 'Stift', 'Blume', 'Ring', 'Uhr', 'Lampe', 'Kiste', 'Schlüssel', 'Jacke', 'Hammer', 'Socke', 'Flasche', 'Bürste', 'Eimer', 'Hut', 'Kamera', 'Löffel', 'Kette', 'Vase', 'Geige', 'Schere', 'Kerze', 'Telefon', 'Trommel']",336.91518940002425,336.91800659999717,None,336.9181343999808,336.9195736999973,None,336.919684100023,336.92111140000634,None,336.92122239997843,336.9223991999752,336.9224119000137,0,342.92613059998257,,,,,,,,,,,,,,,,,,,,,,,,,,,,,,,,,,,,,,,,,,,,,,,,2,2024-01-22_11h34.40.360,watkins1,2023.2.3,99.67039002824941,97,2024-01-22 11h35.23.211777 +0000,
,,,,,,,,,,,12,0,12,0,,,,,,,,,,,,,342.9359139999724,,,,,,,,,,,,342.9264127999777,343.41794379998464,,,[],[],,,,,,,,,,,,1.5663107999716885,None,,,,,Kiste,,,,,Kiste,klobig,"['Kiste', 'klobig']",test_sub,2,,,,,,342.92634669999825,342.9263834999874,"['Tasse', 'Rucksack', 'Tasche', 'Buch', 'Fahrrad', 'Brille', 'Würfel', 'Stift', 'Blume', 'Ring', 'Uhr', 'Lampe', 'Kiste', 'Schlüssel', 'Jacke', 'Hammer', 'Socke', 'Flasche', 'Bürste', 'Eimer', 'Hut', 'Kamera', 'Löffel', 'Kette', 'Vase', 'Geige', 'Schere', 'Kerze', 'Telefon', 'Trommel']",343.4179543000064,343.42055360000813,None,343.4206817999948,343.42305360001046,None,343.42316310002934,343.42563110002084,None,343.4257380000199,343.426898500009,343.4269107999862,1,349.4330327999778,,,,,,,,,,,,,,,,,,,,,,,,,,,,,,,,,,,,,,,,,,,,,,,,2,2024-01-22_11h34.40.360,watkins1,2023.2.3,99.67039002824941,97,2024-01-22 11h35.23.211777 +0000,
,,,,,,,,,,,13,0,13,0,,,,,,,,,,,,,349.44283329998143,,,,,,,,,,,,349.4333184999996,349.9246875999961,,,[],[],,,,,,,,,,,,None,None,,,,,,,,,,Schlüssel,schlicht,"['Schlüssel', 'schlicht']",restudy,2,,,,,,349.4332509000087,349.43328940001084,"['Tasse', 'Rucksack', 'Tasche', 'Buch', 'Fahrrad', 'Brille', 'Würfel', 'Stift', 'Blume', 'Ring', 'Uhr', 'Lampe', 'Kiste', 'Schlüssel', 'Jacke', 'Hammer', 'Socke', 'Flasche', 'Bürste', 'Eimer', 'Hut', 'Kamera', 'Löffel', 'Kette', 'Vase', 'Geige', 'Schere', 'Kerze', 'Telefon', 'Trommel']",349.92469860002166,349.9276355999755,None,349.92776220000815,355.9379033999867,3,355.93824579997454,355.94112490001135,None,355.94123479997506,355.9424530999968,355.9424644000246,,355.94394680002006,3.5728444000124,None,,,,,,,,,,,,,,,,,,,,,,,,,,,,,,,,,,,,,,,,,,,,,,2,2024-01-22_11h34.40.360,watkins1,2023.2.3,99.67039002824941,97,2024-01-22 11h35.23.211777 +0000,
,,,,,,,,,,,14,0,14,0,,,,,,,,,,,,,355.9473647000268,,,,,,,,,,,,355.94422549998853,356.4394535999745,,,[],[],,,,,,,,,,,,2.1573532999609597,None,,,,,Jacke,,,,,Jacke,kratzig,"['Jacke', 'kratzig']",test_sub,2,,,,,,355.9441606000182,355.94419880001806,"['Tasse', 'Rucksack', 'Tasche', 'Buch', 'Fahrrad', 'Brille', 'Würfel', 'Stift', 'Blume', 'Ring', 'Uhr', 'Lampe', 'Kiste', 'Schlüssel', 'Jacke', 'Hammer', 'Socke', 'Flasche', 'Bürste', 'Eimer', 'Hut', 'Kamera', 'Löffel', 'Kette', 'Vase', 'Geige', 'Schere', 'Kerze', 'Telefon', 'Trommel']",356.4394650000031,356.44218930002535,None,356.4423140999861,356.44374409999,None,356.4438536000089,356.4452670000028,None,356.4453741000034,356.4466064000153,356.4466190999956,1,362.4501132000005,,,,,,,,,,,,,,,,,,,,,,,,,,,,,,,,,,,,,,,,,,,,,,,,2,2024-01-22_11h34.40.360,watkins1,2023.2.3,99.67039002824941,97,2024-01-22 11h35.23.211777 +0000,
,,,,,,,,,,,15,0,15,0,,,,,,,,,,,,,362.459910399979,,,,,,,,,,,,362.4503911000211,362.9419539999799,,,[],[],,,,,,,,,,,,None,None,,,,,,,,,,Hammer,dick,"['Hammer', 'dick']",restudy,2,,,,,,362.4503233000287,362.450361300027,"['Tasse', 'Rucksack', 'Tasche', 'Buch', 'Fahrrad', 'Brille', 'Würfel', 'Stift', 'Blume', 'Ring', 'Uhr', 'Lampe', 'Kiste', 'Schlüssel', 'Jacke', 'Hammer', 'Socke', 'Flasche', 'Bürste', 'Eimer', 'Hut', 'Kamera', 'Löffel', 'Kette', 'Vase', 'Geige', 'Schere', 'Kerze', 'Telefon', 'Trommel']",362.94196550000925,362.9447259000153,None,362.94485109997913,368.95101419999264,2,368.95131380000385,368.95394009997835,None,368.9540543999756,368.95525140000973,368.9552648999961,,368.95664099999703,2.180596799997147,None,,,,,,,,,,,,,,,,,,,,,,,,,,,,,,,,,,,,,,,,,,,,,,2,2024-01-22_11h34.40.360,watkins1,2023.2.3,99.67039002824941,97,2024-01-22 11h35.23.211777 +0000,
,,,,,,,,,,,16,0,16,0,,,,,,,,,,,,,368.96045279997634,,,,,,,,,,,,368.9569249000051,369.4526628999738,,,[],[],,,,,,,,,,,,None,None,,,,,,,,,,Socke,flauschig,"['Socke', 'flauschig']",restudy,2,,,,,,368.95685910002794,368.9568981999764,"['Tasse', 'Rucksack', 'Tasche', 'Buch', 'Fahrrad', 'Brille', 'Würfel', 'Stift', 'Blume', 'Ring', 'Uhr', 'Lampe', 'Kiste', 'Schlüssel', 'Jacke', 'Hammer', 'Socke', 'Flasche', 'Bürste', 'Eimer', 'Hut', 'Kamera', 'Löffel', 'Kette', 'Vase', 'Geige', 'Schere', 'Kerze', 'Telefon', 'Trommel']",369.45267389999935,369.4552357000066,None,369.4553609000286,375.4577626999817,3,375.45806470001116,375.4608262000256,None,375.46094409999205,375.4621048999834,375.46211670001503,,375.4633656999795,1.8536817000131123,None,,,,,,,,,,,,,,,,,,,,,,,,,,,,,,,,,,,,,,,,,,,,,,2,2024-01-22_11h34.40.360,watkins1,2023.2.3,99.67039002824941,97,2024-01-22 11h35.23.211777 +0000,
,,,,,,,,,,,17,0,17,0,,,,,,,,,,,,,375.4671536000096,,,,,,,,,,,,375.463647400029,375.95922770001926,,,[],[],,,,,,,,,,,,2.1177941000205465,None,,,,,Flasche,,,,,Flasche,matt,"['Flasche', 'matt']",test_sub,2,,,,,,375.46358179999515,375.4636201999965,"['Tasse', 'Rucksack', 'Tasche', 'Buch', 'Fahrrad', 'Brille', 'Würfel', 'Stift', 'Blume', 'Ring', 'Uhr', 'Lampe', 'Kiste', 'Schlüssel', 'Jacke', 'Hammer', 'Socke', 'Flasche', 'Bürste', 'Eimer', 'Hut', 'Kamera', 'Löffel', 'Kette', 'Vase', 'Geige', 'Schere', 'Kerze', 'Telefon', 'Trommel']",375.9592384999851,375.96208610001486,None,375.96221369999694,375.96370239998214,None,375.9638146000216,375.965300699987,None,375.96540950000053,375.9666222999804,375.9666347000166,1,381.97086990001844,,,,,,,,,,,,,,,,,,,,,,,,,,,,,,,,,,,,,,,,,,,,,,,,2,2024-01-22_11h34.40.360,watkins1,2023.2.3,99.67039002824941,97,2024-01-22 11h35.23.211777 +0000,
,,,,,,,,,,,18,0,18,0,,,,,,,,,,,,,381.9807145000086,,,,,,,,,,,,381.9711505000014,382.4627708999906,,,[],[],,,,,,,,,,,,None,None,,,,,,,,,,Bürste,gestreift,"['Bürste', 'gestreift']",test_sub,2,,,,,,381.97108360001585,381.97112140001263,"['Tasse', 'Rucksack', 'Tasche', 'Buch', 'Fahrrad', 'Brille', 'Würfel', 'Stift', 'Blume', 'Ring', 'Uhr', 'Lampe', 'Kiste', 'Schlüssel', 'Jacke', 'Hammer', 'Socke', 'Flasche', 'Bürste', 'Eimer', 'Hut', 'Kamera', 'Löffel', 'Kette', 'Vase', 'Geige', 'Schere', 'Kerze', 'Telefon', 'Trommel']",382.46278240001993,382.4653953000088,None,382.4655226999894,382.46794060000684,None,382.468051999982,382.4704552000039,None,382.4705647000228,382.47175710002193,382.47176970000146,0,388.47776779998094,,,,,,,,,,,,,,,,,,,,,,,,,,,,,,,,,,,,,,,,,,,,,,,,2,2024-01-22_11h34.40.360,watkins1,2023.2.3,99.67039002824941,97,2024-01-22 11h35.23.211777 +0000,
,,,,,,,,,,,19,0,19,0,,,,,,,,,,,,,388.4875953000155,,,,,,,,,,,,388.4780500999768,388.969543299987,,,[],[],,,,,,,,,,,,2.671325099945534,None,,,,,Eimer,,,,,Eimer,neu,"['Eimer', 'neu']",test_sub,2,,,,,,388.4779823999852,388.47802129999036,"['Tasse', 'Rucksack', 'Tasche', 'Buch', 'Fahrrad', 'Brille', 'Würfel', 'Stift', 'Blume', 'Ring', 'Uhr', 'Lampe', 'Kiste', 'Schlüssel', 'Jacke', 'Hammer', 'Socke', 'Flasche', 'Bürste', 'Eimer', 'Hut', 'Kamera', 'Löffel', 'Kette', 'Vase', 'Geige', 'Schere', 'Kerze', 'Telefon', 'Trommel']",388.96955480001634,388.9723196999985,None,388.97244610002963,388.9750405999948,None,388.97515100002056,388.97775590000674,None,388.9778650000226,388.9790264000185,388.9790386999957,1,394.9844074000139,,,,,,,,,,,,,,,,,,,,,,,,,,,,,,,,,,,,,,,,,,,,,,,,2,2024-01-22_11h34.40.360,watkins1,2023.2.3,99.67039002824941,97,2024-01-22 11h35.23.211777 +0000,
,,,,,,,,,,,20,0,20,0,,,,,,,,,,,,,394.9941381000099,,,,,,,,,,,,394.9846931999782,395.47629349998897,,,[],[],,,,,,,,,,,,None,None,,,,,,,,,,Hut,nass,"['Hut', 'nass']",restudy,2,,,,,,394.9846228000242,394.98466199997347,"['Tasse', 'Rucksack', 'Tasche', 'Buch', 'Fahrrad', 'Brille', 'Würfel', 'Stift', 'Blume', 'Ring', 'Uhr', 'Lampe', 'Kiste', 'Schlüssel', 'Jacke', 'Hammer', 'Socke', 'Flasche', 'Bürste', 'Eimer', 'Hut', 'Kamera', 'Löffel', 'Kette', 'Vase', 'Geige', 'Schere', 'Kerze', 'Telefon', 'Trommel']",395.4763046000153,395.478657700005,None,395.478784899984,401.4797446000157,1,401.4800514000235,401.4824115000083,None,401.482523099985,401.48353560001124,401.4835475999862,,401.4848761999747,2.86293940001633,None,,,,,,,,,,,,,,,,,,,,,,,,,,,,,,,,,,,,,,,,,,,,,,2,2024-01-22_11h34.40.360,watkins1,2023.2.3,99.67039002824941,97,2024-01-22 11h35.23.211777 +0000,
,,,,,,,,,,,21,0,21,0,,,,,,,,,,,,,401.48928420001175,,,,,,,,,,,,401.48515879997285,401.98139440000523,,,[],[],,,,,,,,,,,,None,None,,,,,,,,,,Kamera,sauber,"['Kamera', 'sauber']",restudy,2,,,,,,401.4850928999949,401.4851318000001,"['Tasse', 'Rucksack', 'Tasche', 'Buch', 'Fahrrad', 'Brille', 'Würfel', 'Stift', 'Blume', 'Ring', 'Uhr', 'Lampe', 'Kiste', 'Schlüssel', 'Jacke', 'Hammer', 'Socke', 'Flasche', 'Bürste', 'Eimer', 'Hut', 'Kamera', 'Löffel', 'Kette', 'Vase', 'Geige', 'Schere', 'Kerze', 'Telefon', 'Trommel']",401.98140530003,401.9839513999759,None,401.9840763999964,407.98972870002035,1,407.9900261000148,407.9927112000296,None,407.99282460001996,407.9940027000266,407.9940143999993,,407.9951910999953,2.4610283999936655,None,,,,,,,,,,,,,,,,,,,,,,,,,,,,,,,,,,,,,,,,,,,,,,2,2024-01-22_11h34.40.360,watkins1,2023.2.3,99.67039002824941,97,2024-01-22 11h35.23.211777 +0000,
,,,,,,,,,,,22,0,22,0,,,,,,,,,,,,,407.9991384000168,,,,,,,,,,,,407.99548350000987,408.4911788000027,,,[],[],,,,,,,,,,,,1.796327600022778,None,,,,,Löffel,,,,,Löffel,durchsichtig,"['Löffel', 'durchsichtig']",test_sub,2,,,,,,407.99540519999573,407.9954561999766,"['Tasse', 'Rucksack', 'Tasche', 'Buch', 'Fahrrad', 'Brille', 'Würfel', 'Stift', 'Blume', 'Ring', 'Uhr', 'Lampe', 'Kiste', 'Schlüssel', 'Jacke', 'Hammer', 'Socke', 'Flasche', 'Bürste', 'Eimer', 'Hut', 'Kamera', 'Löffel', 'Kette', 'Vase', 'Geige', 'Schere', 'Kerze', 'Telefon', 'Trommel']",408.49118970002746,408.494293500029,None,408.4944184999913,408.4958523000241,None,408.4959627999924,408.49738930002786,None,408.49749669997254,408.4986610999913,408.4986738000298,1,414.5026598999975,,,,,,,,,,,,,,,,,,,,,,,,,,,,,,,,,,,,,,,,,,,,,,,,2,2024-01-22_11h34.40.360,watkins1,2023.2.3,99.67039002824941,97,2024-01-22 11h35.23.211777 +0000,
,,,,,,,,,,,23,0,23,0,,,,,,,,,,,,,414.5123813999817,,,,,,,,,,,,414.502944900014,414.99477200000547,,,[],[],,,,,,,,,,,,1.7691686999751255,None,,,,,Kette,,,,,Kette,verspielt,"['Kette', 'verspielt']",test_sub,2,,,,,,414.5028728999896,414.50291179999476,"['Tasse', 'Rucksack', 'Tasche', 'Buch', 'Fahrrad', 'Brille', 'Würfel', 'Stift', 'Blume', 'Ring', 'Uhr', 'Lampe', 'Kiste', 'Schlüssel', 'Jacke', 'Hammer', 'Socke', 'Flasche', 'Bürste', 'Eimer', 'Hut', 'Kamera', 'Löffel', 'Kette', 'Vase', 'Geige', 'Schere', 'Kerze', 'Telefon', 'Trommel']",414.994782600028,414.99767549999524,None,414.99780299997656,415.000460500014,None,415.0005747000105,415.0032396999886,None,415.0033492000075,415.00451780000003,415.00453039997956,1,421.011321900005,,,,,,,,,,,,,,,,,,,,,,,,,,,,,,,,,,,,,,,,,,,,,,,,2,2024-01-22_11h34.40.360,watkins1,2023.2.3,99.67039002824941,97,2024-01-22 11h35.23.211777 +0000,
,,,,,,,,,,,24,0,24,0,,,,,,,,,,,,,421.0210940000252,,,,,,,,,,,,421.01159519999055,421.5031181999948,,,[],[],,,,,,,,,,,,None,None,,,,,,,,,,Vase,robust,"['Vase', 'robust']",restudy,2,,,,,,421.011528300005,421.01156680000713,"['Tasse', 'Rucksack', 'Tasche', 'Buch', 'Fahrrad', 'Brille', 'Würfel', 'Stift', 'Blume', 'Ring', 'Uhr', 'Lampe', 'Kiste', 'Schlüssel', 'Jacke', 'Hammer', 'Socke', 'Flasche', 'Bürste', 'Eimer', 'Hut', 'Kamera', 'Löffel', 'Kette', 'Vase', 'Geige', 'Schere', 'Kerze', 'Telefon', 'Trommel']",421.50312940002186,421.5057455999777,None,421.5058702999959,427.50705200002994,1,427.5073463000008,427.5102088000276,None,427.5103224000195,427.5113599000033,427.5113714999752,,427.51284250000026,2.9076987999724224,None,,,,,,,,,,,,,,,,,,,,,,,,,,,,,,,,,,,,,,,,,,,,,,2,2024-01-22_11h34.40.360,watkins1,2023.2.3,99.67039002824941,97,2024-01-22 11h35.23.211777 +0000,
,,,,,,,,,,,25,0,25,0,,,,,,,,,,,,,427.51657670002896,,,,,,,,,,,,427.5131260000053,428.0086739999824,,,[],[],,,,,,,,,,,,2.1770319000352174,None,,,,,Hammer,,,,,Geige,breit,"['Geige', 'breit']",test_sub,2,,,,,,427.5130587000167,427.5130989999743,"['Tasse', 'Rucksack', 'Tasche', 'Buch', 'Fahrrad', 'Brille', 'Würfel', 'Stift', 'Blume', 'Ring', 'Uhr', 'Lampe', 'Kiste', 'Schlüssel', 'Jacke', 'Hammer', 'Socke', 'Flasche', 'Bürste', 'Eimer', 'Hut', 'Kamera', 'Löffel', 'Kette', 'Vase', 'Geige', 'Schere', 'Kerze', 'Telefon', 'Trommel']",428.008685400011,428.0114513000008,None,428.011576400022,428.01298529998166,None,428.013094199996,428.01450099999784,None,428.01460860000225,428.01575060002506,428.0157631000038,0,434.01904759998433,,,,,,,,,,,,,,,,,,,,,,,,,,,,,,,,,,,,,,,,,,,,,,,,2,2024-01-22_11h34.40.360,watkins1,2023.2.3,99.67039002824941,97,2024-01-22 11h35.23.211777 +0000,
,,,,,,,,,,,26,0,26,0,,,,,,,,,,,,,434.02877929998795,,,,,,,,,,,,434.0193224999821,434.5109371999861,,,[],[],,,,,,,,,,,,None,None,,,,,,,,,,Schere,strahlend,"['Schere', 'strahlend']",test_sub,2,,,,,,434.01925630000187,434.0192937999964,"['Tasse', 'Rucksack', 'Tasche', 'Buch', 'Fahrrad', 'Brille', 'Würfel', 'Stift', 'Blume', 'Ring', 'Uhr', 'Lampe', 'Kiste', 'Schlüssel', 'Jacke', 'Hammer', 'Socke', 'Flasche', 'Bürste', 'Eimer', 'Hut', 'Kamera', 'Löffel', 'Kette', 'Vase', 'Geige', 'Schere', 'Kerze', 'Telefon', 'Trommel']",434.51094840001315,434.5136746999924,None,434.51379930000985,434.5163450000109,None,434.51645459997235,434.518986399984,None,434.5190958000021,434.5202775999787,434.5202903000172,0,440.5264024999924,,,,,,,,,,,,,,,,,,,,,,,,,,,,,,,,,,,,,,,,,,,,,,,,2,2024-01-22_11h34.40.360,watkins1,2023.2.3,99.67039002824941,97,2024-01-22 11h35.23.211777 +0000,
,,,,,,,,,,,27,0,27,0,,,,,,,,,,,,,440.536260999972,,,,,,,,,,,,440.52668389998144,441.01824519998627,,,[],[],,,,,,,,,,,,None,None,,,,,,,,,,Kerze,schwer,"['Kerze', 'schwer']",test_sub,2,,,,,,440.526615699986,440.5266542999889,"['Tasse', 'Rucksack', 'Tasche', 'Buch', 'Fahrrad', 'Brille', 'Würfel', 'Stift', 'Blume', 'Ring', 'Uhr', 'Lampe', 'Kiste', 'Schlüssel', 'Jacke', 'Hammer', 'Socke', 'Flasche', 'Bürste', 'Eimer', 'Hut', 'Kamera', 'Löffel', 'Kette', 'Vase', 'Geige', 'Schere', 'Kerze', 'Telefon', 'Trommel']",441.0182571000187,441.0211291000014,None,441.0212574999896,441.0238998000277,None,441.0240147000295,441.0267212999752,None,441.02683420001995,441.02800910000224,441.0280217999825,0,447.03449819999514,,,,,,,,,,,,,,,,,,,,,,,,,,,,,,,,,,,,,,,,,,,,,,,,2,2024-01-22_11h34.40.360,watkins1,2023.2.3,99.67039002824941,97,2024-01-22 11h35.23.211777 +0000,
,,,,,,,,,,,28,0,28,0,,,,,,,,,,,,,447.0443339999765,,,,,,,,,,,,447.0347797999857,447.5264868999948,,,[],[],,,,,,,,,,,,None,None,,,,,,,,,,Telefon,dunkel,"['Telefon', 'dunkel']",restudy,2,,,,,,447.0347124999971,447.03475089999847,"['Tasse', 'Rucksack', 'Tasche', 'Buch', 'Fahrrad', 'Brille', 'Würfel', 'Stift', 'Blume', 'Ring', 'Uhr', 'Lampe', 'Kiste', 'Schlüssel', 'Jacke', 'Hammer', 'Socke', 'Flasche', 'Bürste', 'Eimer', 'Hut', 'Kamera', 'Löffel', 'Kette', 'Vase', 'Geige', 'Schere', 'Kerze', 'Telefon', 'Trommel']",447.52649840002414,447.52924270002404,None,447.52936889999546,453.53520089999074,1,453.5355003000004,453.53828899998916,None,453.5384039999917,453.53962360002333,453.53963549999753,,453.5408317000256,2.0519654999952763,None,,,,,,,,,,,,,,,,,,,,,,,,,,,,,,,,,,,,,,,,,,,,,,2,2024-01-22_11h34.40.360,watkins1,2023.2.3,99.67039002824941,97,2024-01-22 11h35.23.211777 +0000,
,,,,,,,,,,,29,0,29,0,,,,,,,,,,,,,453.5446544000297,,,,,,,,,,,,453.5411162999808,454.036823500006,,,[],[],,,,,,,,,,,,None,None,,,,,,,,,,Trommel,schmutzig,"['Trommel', 'schmutzig']",test_sub,2,,,,,,453.54104939999525,453.54108900000574,"['Tasse', 'Rucksack', 'Tasche', 'Buch', 'Fahrrad', 'Brille', 'Würfel', 'Stift', 'Blume', 'Ring', 'Uhr', 'Lampe', 'Kiste', 'Schlüssel', 'Jacke', 'Hammer', 'Socke', 'Flasche', 'Bürste', 'Eimer', 'Hut', 'Kamera', 'Löffel', 'Kette', 'Vase', 'Geige', 'Schere', 'Kerze', 'Telefon', 'Trommel']",454.03683430003,454.0395571999834,None,454.03968360001454,454.04115489998367,None,454.0412645000033,454.0427414000151,None,454.0428502000286,454.0442188999732,454.04423170001246,0,460.04859489999944,,,,,,,,,,,,,,,,,,,,,,,,,,,,,,,,,,,,,,,,,,,,,,,,2,2024-01-22_11h34.40.360,watkins1,2023.2.3,99.67039002824941,97,2024-01-22 11h35.23.211777 +0000,
,,,,,,,,,,,,,,,,,,,,,,,,,,,,,,,,,,,,,,,,,,,,,,,,,,,,,,,,,,,,,,,,,,,,,,,2,,,,,,,,,,,,,,,,,,,,,,,,,,,,,,,,,,,,,,,,,,,,,,,,,,,,,,,,,,,,,,,,,,,,,,2,2024-01-22_11h34.40.360,watkins1,2023.2.3,99.67039002824941,97,2024-01-22 11h35.23.211777 +0000,
(6 x 3) + 10 = 27 ,Incorrect,button_incorrect,,,,,,,,,,,,,0,0,0,8,,,,,,,,,480.0991694999975,,,,,,,,,,479.0576532999985,480.06119620002573,,,,,['button_incorrect'],[3.9087457999703474],,,,,,,,,,,,,,,,,,,,,,,,,,distractorTask,2,,,,,,,,,,,,,,,,,,,,,,,,,480.087532799982,480.0991694999975,484.0016190999886,[-0.33425925925925926],[-0.3787037037037037],[1],[0],[0],[3.9087457999703474],['button_incorrect'],484.00229450000916,485.0054521000129,,,,,,,,,,,,,,,,,,,,,,,,,,,,,,,,,,2,2024-01-22_11h34.40.360,watkins1,2023.2.3,99.67039002824941,97,2024-01-22 11h35.23.211777 +0000,
(2 x 5) + 3 = 13 ,Correct,button_correct,,,,,,,,,,,,,0,1,1,2,,,,,,,,,485.01541870000074,,,,,,,,,,,,,,,,['button_correct'],[2.116764599981252],,,,,,,,,,,,,,,,,,,,,,,,,,distractorTask,2,,,,,,,,,,,,,,,,,,,,,,,,,485.005646399979,485.01541870000074,487.12492740002926,[0.2851851851851852],[-0.3787037037037037],[1],[0],[0],[2.116764599981252],['button_correct'],487.1253034999827,488.1284351000213,,,,,,,,,,,,,,,,,,,,,,,,,,,,,,,,,,2,2024-01-22_11h34.40.360,watkins1,2023.2.3,99.67039002824941,97,2024-01-22 11h35.23.211777 +0000,
(25 : 5) + 5 = 9 ,Incorrect,button_incorrect,,,,,,,,,,,,,0,2,2,6,,,,,,,,,488.1384198999731,,,,,,,,,,,,,,,,['button_incorrect'],[2.4472368999850005],,,,,,,,,,,,,,,,,,,,,,,,,,distractorTask,2,,,,,,,,,,,,,,,,,,,,,,,,,488.12862819997827,488.1384198999731,490.5793131000246,[-0.2898148148148148],[-0.3814814814814815],[1],[0],[0],[2.4472368999850005],['button_incorrect'],490.57982879999327,491.58306500001345,,,,,,,,,,,,,,,,,,,,,,,,,,,,,,,,,,2,2024-01-22_11h34.40.360,watkins1,2023.2.3,99.67039002824941,97,2024-01-22 11h35.23.211777 +0000,
(9 x 5) - 9 = 36 ,Correct,button_correct,,,,,,,,,,,,,0,3,3,4,,,,,,,,,491.5930379999918,,,,,,,,,,,,,,,,['button_correct'],[2.9702219999744557],,,,,,,,,,,,,,,,,,,,,,,,,,distractorTask,2,,,,,,,,,,,,,,,,,,,,,,,,,491.5832556000096,491.5930379999918,494.55568609997863,[0.2759259259259259],[-0.4046296296296296],[1],[0],[0],[2.9702219999744557],['button_correct'],494.55606869998155,495.5593949999893,,,,,,,,,,,,,,,,,,,,,,,,,,,,,,,,,,2,2024-01-22_11h34.40.360,watkins1,2023.2.3,99.67039002824941,97,2024-01-22 11h35.23.211777 +0000,
(4 : 2) + 4 = 6 ,Correct,button_correct,,,,,,,,,,,,,0,4,4,1,,,,,,,,,495.5694694999838,,,,,,,,,,,,,,,,['button_correct'],[2.066772199992556],,,,,,,,,,,,,,,,,,,,,,,,,,distractorTask,2,,,,,,,,,,,,,,,,,,,,,,,,,495.55959389999043,495.5694694999838,497.62861740001244,[0.3148148148148148],[-0.38333333333333336],[1],[0],[0],[2.066772199992556],['button_correct'],497.62900359998457,498.6321989999851,,,,,,,,,,,,,,,,,,,,,,,,,,,,,,,,,,2,2024-01-22_11h34.40.360,watkins1,2023.2.3,99.67039002824941,97,2024-01-22 11h35.23.211777 +0000,
(7 x 6) + 9 = 48 ,Incorrect,button_incorrect,,,,,,,,,,,,,0,5,5,9,,,,,,,,,498.6422095000162,,,,,,,,,,,,,,,,['button_incorrect'],[5.801524400012568],,,,,,,,,,,,,,,,,,,,,,,,,,distractorTask,2,,,,,,,,,,,,,,,,,,,,,,,,,498.632387700025,498.6422095000162,504.4366034999839,[-0.3611111111111111],[-0.39444444444444443],[1],[0],[0],[5.801524400012568],['button_incorrect'],504.4369821000146,505.440253400011,,,,,,,,,,,,,,,,,,,,,,,,,,,,,,,,,,2,2024-01-22_11h34.40.360,watkins1,2023.2.3,99.67039002824941,97,2024-01-22 11h35.23.211777 +0000,
(54 : 6) - 10 = 0 ,Incorrect,button_incorrect,,,,,,,,,,,,,0,6,6,5,,,,,,,,,505.45025410002563,,,,,,,,,,,,,,,,['button_incorrect'],[3.312100399984047],,,,,,,,,,,,,,,,,,,,,,,,,,distractorTask,2,,,,,,,,,,,,,,,,,,,,,,,,,505.44044570002006,505.45025410002563,508.7543173999875,[-0.3212962962962963],[-0.38425925925925924],[1],[0],[0],[3.312100399984047],['button_incorrect'],508.75469650002196,509.7580803000019,,,,,,,,,,,,,,,,,,,,,,,,,,,,,,,,,,2,2024-01-22_11h34.40.360,watkins1,2023.2.3,99.67039002824941,97,2024-01-22 11h35.23.211777 +0000,
(80 : 10) + 9 = 17 ,Correct,button_correct,,,,,,,,,,,,,0,7,7,3,,,,,,,,,509.7680593000259,,,,,,,,,,,,,,,,['button_correct'],[2.9809856000356376],,,,,,,,,,,,,,,,,,,,,,,,,,distractorTask,2,,,,,,,,,,,,,,,,,,,,,,,,,509.75827190000564,509.7680593000259,512.7411342000123,[0.2861111111111111],[-0.39814814814814814],[1],[0],[0],[2.9809856000356376],['button_correct'],512.7415097000194,513.7448293999769,,,,,,,,,,,,,,,,,,,,,,,,,,,,,,,,,,2,2024-01-22_11h34.40.360,watkins1,2023.2.3,99.67039002824941,97,2024-01-22 11h35.23.211777 +0000,
(40 : 5) + 8 = 15 ,Incorrect,button_incorrect,,,,,,,,,,,,,0,8,8,7,,,,,,,,,513.7547870000126,,,,,,,,,,,,,,,,['button_incorrect'],[3.8644401999772526],,,,,,,,,,,,,,,,,,,,,,,,,,distractorTask,2,,,,,,,,,,,,,,,,,,,,,,,,,513.7450259000179,513.7547870000126,517.6112246999983,[-0.33425925925925926],[-0.4009259259259259],[1],[0],[0],[3.8644401999772526],['button_incorrect'],517.6116034999723,518.6150228999904,,,,,,,,,,,,,,,,,,,,,,,,,,,,,,,,,,2,2024-01-22_11h34.40.360,watkins1,2023.2.3,99.67039002824941,97,2024-01-22 11h35.23.211777 +0000,
(28 : 7) - 3 = 1 ,Correct,button_correct,,,,,,,,,,,,,0,9,9,0,,,,,,,,,518.6249997999985,,,,,,,,,,,,,,,,['button_correct'],[3.3825162000139244],,,,,,,,,,,,,,,,,,,,,,,,,,distractorTask,2,,,,,,,,,,,,,,,,,,,,,,,,,518.6152122999774,518.6249997999985,521.9995982000255,[0.35555555555555557],[-0.41574074074074074],[1],[0],[0],[3.3825162000139244],['button_correct'],521.9999766999972,523.0032353000133,,,,,,,,,,,,,,,,,,,,,,,,,,,,,,,,,,2,2024-01-22_11h34.40.360,watkins1,2023.2.3,99.67039002824941,97,2024-01-22 11h35.23.211777 +0000,
,,,,,,,,,,,,,,,,,,,,,,,,,,,,,,,,,,,,,,,,,,,,,,,,,,,,,,,,,,,,,,,,,,,,,,,2,,,,,,,,,,,,,,,,,,,,,,,,,,,,,,,,,,,,,,,,,,,,,,,,,,,,,,,,,,,,,,,,,,,,,,2,2024-01-22_11h34.40.360,watkins1,2023.2.3,99.67039002824941,97,2024-01-22 11h35.23.211777 +0000,
,,,,,,,,,,,,,,,,,,,0,0,0,0,,,,,535.0113741999958,,,,,,,,,,,,,,,,Vase,10.238254400028381,,,,,,,,,,,,7.670239400002174,8.674297100049444,,,,,,,,,,,,,freeRecallSub,2,,,,,,,,,,,,,,,,,,,,,,,,,,,,,,,,,,,,,535.004026199982,535.0113741999958,535.0113741999958,545.2546389999916,return,10.238254400028381,None,Vase,"[-0.044444444444444446, -0.04351851851851852]","[0.037037037037037035, 0.04351851851851852]","[1, 1]","[0, 0]","[0, 0]","[1.694650300021749, 2.0560536000411958]",[],,,,,,,,,,,,,,,,,,,2,2024-01-22_11h34.40.360,watkins1,2023.2.3,99.67039002824941,97,2024-01-22 11h35.23.211777 +0000,
,,,,,,,,,,,,,,,,,,,1,0,1,0,,,,,545.2665575999999,,,,,,,,,,,,,,,,Brille,2.9270758000202477,,,,,,,,,,,,1.8291788999922574,None,,,,,,,,,,,,,freeRecallSub,2,,,,,,,,,,,,,,,,,,,,,,,,,,,,,,,,,,,,,545.2564563999767,545.2665575999999,545.2665575999999,548.2006833999767,return,2.9270758000202477,None,Brille,[],[],[],[],[],[],[],,,,,,,,,,,,,,,,,,,2,2024-01-22_11h34.40.360,watkins1,2023.2.3,99.67039002824941,97,2024-01-22 11h35.23.211777 +0000,
,,,,,,,,,,,,,,,,,,,2,0,2,0,,,,,548.2106472000014,,,,,,,,,,,,,,,,Flasche,5.614983600040432,,,,,,,,,,,,4.065708999987692,None,,,,,,,,,,,,,freeRecallSub,2,,,,,,,,,,,,,,,,,,,,,,,,,,,,,,,,,,,,,548.2019299999811,548.2106472000014,548.2106472000014,553.8341384999803,return,5.614983600040432,None,Flasche,[],[],[],[],[],[],[],,,,,,,,,,,,,,,,,,,2,2024-01-22_11h34.40.360,watkins1,2023.2.3,99.67039002824941,97,2024-01-22 11h35.23.211777 +0000,
,,,,,,,,,,,,,,,,,,,3,0,3,0,,,,,553.8446886999882,,,,,,,,,,,,,,,,Hut,1.2769185999641195,,,,,,,,,,,,0.4714828999713063,None,,,,,,,,,,,,,freeRecallSub,2,,,,,,,,,,,,,,,,,,,,,,,,,,,,,,,,,,,,,553.835375500028,553.8446886999882,553.8446886999882,555.1301315000164,return,1.2769185999641195,None,Hut,[],[],[],[],[],[],[],,,,,,,,,,,,,,,,,,,2,2024-01-22_11h34.40.360,watkins1,2023.2.3,99.67039002824941,97,2024-01-22 11h35.23.211777 +0000,
,,,,,,,,,,,,,,,,,,,4,0,4,0,,,,,555.1411146000028,,,,,,,,,,,,,,,,Uhr,2.94045009999536,,,,,,,,,,,,2.2394748000078835,None,,,,,,,,,,,,,freeRecallSub,2,,,,,,,,,,,,,,,,,,,,,,,,,,,,,,,,,,,,,555.1314022000297,555.1411146000028,555.1411146000028,558.0839268999989,return,2.94045009999536,None,Uhr,[],[],[],[],[],[],[],,,,,,,,,,,,,,,,,,,2,2024-01-22_11h34.40.360,watkins1,2023.2.3,99.67039002824941,97,2024-01-22 11h35.23.211777 +0000,
,,,,,,,,,,,,,,,,,,,5,0,5,0,,,,,558.0945972999907,,,,,,,,,,,,,,,,Eimer,8.891062599956058,,,,,,,,,,,,7.932787399971858,None,,,,,,,,,,,,,freeRecallSub,2,,,,,,,,,,,,,,,,,,,,,,,,,,,,,,,,,,,,,558.0851746000117,558.0945972999907,558.0945972999907,566.9919897000073,return,8.891062599956058,None,Eimer,[],[],[],[],[],[],[],,,,,,,,,,,,,,,,,,,2,2024-01-22_11h34.40.360,watkins1,2023.2.3,99.67039002824941,97,2024-01-22 11h35.23.211777 +0000,
,,,,,,,,,,,,,,,,,,,6,0,6,0,,,,,567.0032102999976,,,,,,,,,,,,,,,,Blume,12.142462500021793,,,,,,,,,,,,3.2645441999775358,None,,,,,,,,,,,,,freeRecallSub,2,,,,,,,,,,,,,,,,,,,,,,,,,,,,,,,,,,,,,566.9932462000288,567.0032102999976,567.0032102999976,579.1548453000141,return,12.142462500021793,None,Blume,[],[],[],[],[],[],[],,,,,,,,,,,,,,,,,,,2,2024-01-22_11h34.40.360,watkins1,2023.2.3,99.67039002824941,97,2024-01-22 11h35.23.211777 +0000,
,,,,,,,,,,,,,,,,,,,7,0,7,0,,,,,579.1658955999883,,,,,,,,,,,,,,,,Jacke,5.9557432000292465,,,,,,,,,,,,4.479019099962898,None,,,,,,,,,,,,,freeRecallSub,2,,,,,,,,,,,,,,,,,,,,,,,,,,,,,,,,,,,,,579.1561006000265,579.1658955999883,579.1658955999883,585.1313055999926,return,5.9557432000292465,None,Jacke,[],[],[],[],[],[],[],,,,,,,,,,,,,,,,,,,2,2024-01-22_11h34.40.360,watkins1,2023.2.3,99.67039002824941,97,2024-01-22 11h35.23.211777 +0000,
,,,,,,,,,,,,,,,,,,,8,0,8,0,,,,,585.1433992999955,,,,,,,,,,,,,,,,Socken,4.498231300036423,,,,,,,,,,,,2.7533398999948986,None,,,,,,,,,,,,,freeRecallSub,2,,,,,,,,,,,,,,,,,,,,,,,,,,,,,,,,,,,,,585.1327053999994,585.1433992999955,585.1433992999955,589.643630800012,return,4.498231300036423,None,Socken,[],[],[],[],[],[],[],,,,,,,,,,,,,,,,,,,2,2024-01-22_11h34.40.360,watkins1,2023.2.3,99.67039002824941,97,2024-01-22 11h35.23.211777 +0000,
,,,,,,,,,,,,,,,,,,,9,0,9,0,,,,,589.6555635000113,,,,,,,,,,,,,,,,Hammer,8.146069700014777,,,,,,,,,,,,6.941149499965832,None,,,,,,,,,,,,,freeRecallSub,2,,,,,,,,,,,,,,,,,,,,,,,,,,,,,,,,,,,,,589.6448774000164,589.6555635000113,589.6555635000113,597.8111707000062,return,8.146069700014777,None,Hammer,[],[],[],[],[],[],[],,,,,,,,,,,,,,,,,,,2,2024-01-22_11h34.40.360,watkins1,2023.2.3,99.67039002824941,97,2024-01-22 11h35.23.211777 +0000,
,,,,,,,,,,,,,,,,,,,10,0,10,0,,,,,597.822645200009,,,,,,,,,,,,,,,,Katze,23.754904000030365,,,,,,,,,,,,22.756229699996766,None,,,,,,,,,,,,,freeRecallSub,2,,,,,,,,,,,,,,,,,,,,,,,,,,,,,,,,,,,,,597.8124034000211,597.822645200009,597.822645200009,621.5828517000191,return,23.754904000030365,None,Katze,[],[],[],[],[],[],[],,,,,,,,,,,,,,,,,,,2,2024-01-22_11h34.40.360,watkins1,2023.2.3,99.67039002824941,97,2024-01-22 11h35.23.211777 +0000,
,,,,,,,,,,,,,,,,,,,11,0,11,0,,,,,621.595212300017,,,,,,,,,,,,,,,,Ring,27.37439730000915,,,,,,,,,,,,26.443230200035032,None,,,,,,,,,,,,,freeRecallSub,2,,,,,,,,,,,,,,,,,,,,,,,,,,,,,,,,,,,,,621.5840914000291,621.595212300017,621.595212300017,648.9713083999814,return,27.37439730000915,None,Ring,[],[],[],[],[],[],[],,,,,,,,,,,,,,,,,,,2,2024-01-22_11h34.40.360,watkins1,2023.2.3,99.67039002824941,97,2024-01-22 11h35.23.211777 +0000,
,,,,,,,,,,,,,,,,,,,12,0,12,0,,,,,648.9838624999975,,,,,,,,,,,,,,,,Kette,5.169743300008122,,,,,,,,,,,,4.261343599995598,None,,,,,,,,,,,,,freeRecallSub,2,,,,,,,,,,,,,,,,,,,,,,,,,,,,,,,,,,,,,648.9725850999821,648.9838624999975,648.9838624999975,654.1577888000174,return,5.169743300008122,None,Kette,[],[],[],[],[],[],[],,,,,,,,,,,,,,,,,,,2,2024-01-22_11h34.40.360,watkins1,2023.2.3,99.67039002824941,97,2024-01-22 11h35.23.211777 +0000,
,,,,,,,,,,,,,,,,,,,13,0,13,0,,,,,654.1700963000185,,,,,,,,,,,,,,,,,[],,,,,,,,,,,,None,None,,,,,,,,,,,,,freeRecallSub,2,,,,,,,,,,,,,,,,,,,,,,,,,,,,,,,,,,,,,654.1592441999819,654.1700963000185,654.1700963000185,686.4476196999894,None,,,,[0.16018518518518518],[-0.39814814814814814],[1],[0],[0],[32.283674700011034],"['button_continue', 'continue_text']",,,,,,,,,,,,,,,,,,,2,2024-01-22_11h34.40.360,watkins1,2023.2.3,99.67039002824941,97,2024-01-22 11h35.23.211777 +0000,
,,,,,,,,,,,,,,,,,,,,,,,,,,,,,,,,,,,,,,,,,,,,,,,,,,,,,,,,,,,,,,,,,,,,,,,2,,,,,,,,,,,,,,,,,,,,,,,,,,,,,,,,,,,,,,,,,,,,,,,,,,,,,,,,,,,,,,,,,,,,,,2,2024-01-22_11h34.40.360,watkins1,2023.2.3,99.67039002824941,97,2024-01-22 11h35.23.211777 +0000,
,,,,,,,,,,,,,,,,,,,,,,,0,0,0,0,693.9188963000197,,,,,,,,,,,,697.8386079000193,698.3372562000295,,,,3.9066257000085898,,,,,,,,,,,,None,None,,,,,,,,,,Eimer,,,cuedRecallAdj,2,,,,,,,,,,,,,,,,,,,,,0,,,,,,,,,,,,,,,,,,,,,,,,,,,,,,,693.9098956999951,693.9188963000197,693.9188963000197,697.8354833999765,neu,return,3.9066257000085898,None,697.8358842000016,697.8451474999893,697.8451474999893,697.8384583999868,,None,,,,,2,2024-01-22_11h34.40.360,watkins1,2023.2.3,99.67039002824941,97,2024-01-22 11h35.23.211777 +0000,
,,,,,,,,,,,,,,,,,,,,,,,1,0,1,0,698.3472581999958,,,,,,,,,,,,701.6040703000035,702.102968399995,,,,3.2463633000152186,,,,,,,,,,,,None,None,,,,,,,,,,Stift,,,cuedRecallAdj,2,,,,,,,,,,,,,,,,,,,,,0,,,,,,,,,,,,,,,,,,,,,,,,,,,,,,,698.3375017999788,698.3472581999958,698.3472581999958,701.6010470999754,kaputt,return,3.2463633000152186,None,701.6013080999837,701.6107965999981,701.6107965999981,701.6039700999972,,None,,,,,2,2024-01-22_11h34.40.360,watkins1,2023.2.3,99.67039002824941,97,2024-01-22 11h35.23.211777 +0000,
,,,,,,,,,,,,,,,,,,,,,,,2,0,2,0,702.1129181000288,,,,,,,,,,,,706.8861601999961,707.3849279999849,,,,4.760612200014293,,,,,,,,,,,,None,None,,,,,,,,,,Telefon,,,cuedRecallAdj,2,,,,,,,,,,,,,,,,,,,,,0,,,,,,,,,,,,,,,,,,,,,,,,,,,,,,,702.1032088000211,702.1129181000288,702.1129181000288,706.8831356000155,dunkel,return,4.760612200014293,None,706.8834002999938,706.8928424000042,706.8928424000042,706.8860589999822,,None,,,,,2,2024-01-22_11h34.40.360,watkins1,2023.2.3,99.67039002824941,97,2024-01-22 11h35.23.211777 +0000,
,,,,,,,,,,,,,,,,,,,,,,,3,0,3,0,707.3948451000033,,,,,,,,,,,,714.1962874999736,714.6950343999779,,,,6.79072879999876,,,,,,,,,,,,None,None,,,,,,,,,,Schlüssel,,,cuedRecallAdj,2,,,,,,,,,,,,,,,,,,,,,0,,,,,,,,,,,,,,,,,,,,,,,,,,,,,,,707.3851737999939,707.3948451000033,707.3948451000033,714.1931875000009,schlicht,return,6.79072879999876,None,714.1934539999929,714.2029639999964,714.2029639999964,714.1961851000087,,None,,,,,2,2024-01-22_11h34.40.360,watkins1,2023.2.3,99.67039002824941,97,2024-01-22 11h35.23.211777 +0000,
,,,,,,,,,,,,,,,,,,,,,,,4,0,4,0,714.7049842000124,,,,,,,,,,,,718.0828178999946,718.5811102000298,,,,3.3685184000059962,,,,,,,,,,,,None,None,,,,,,,,,,Kamera,,,cuedRecallAdj,2,,,,,,,,,,,,,,,,,,,,,0,,,,,,,,,,,,,,,,,,,,,,,,,,,,,,,714.6952760000131,714.7049842000124,714.7049842000124,718.0796585999778,sauber,return,3.3685184000059962,None,718.0799236000166,718.0892126000253,718.0892126000253,718.082715400029,,None,,,,,2,2024-01-22_11h34.40.360,watkins1,2023.2.3,99.67039002824941,97,2024-01-22 11h35.23.211777 +0000,
,,,,,,,,,,,,,,,,,,,,,,,5,0,5,0,718.5909900999977,,,,,,,,,,,,726.5784062999883,727.0769526999793,,,,7.978613200015388,,,,,,,,,,,,None,None,,,,,,,,,,Tasse,,,cuedRecallAdj,2,,,,,,,,,,,,,,,,,,,,,0,,,,,,,,,,,,,,,,,,,,,,,,,,,,,,,718.5813547000289,718.5909900999977,718.5909900999977,726.5753617999726,nützlich,return,7.978613200015388,None,726.5756289000274,726.5848116999841,726.5848116999841,726.5783054999774,,None,,,,,2,2024-01-22_11h34.40.360,watkins1,2023.2.3,99.67039002824941,97,2024-01-22 11h35.23.211777 +0000,
,,,,,,,,,,,,,,,,,,,,,,,6,0,6,0,727.0868996999925,,,,,,,,,,,,731.6000383999781,732.0985065000132,,,,4.506599500018638,,,,,,,,,,,,None,None,,,,,,,,,,Ring,,,cuedRecallAdj,2,,,,,,,,,,,,,,,,,,,,,0,,,,,,,,,,,,,,,,,,,,,,,,,,,,,,,727.0771944000153,727.0868996999925,727.0868996999925,731.5968300999957,nachhaltig,return,4.506599500018638,None,731.5970950999763,731.6063300999813,731.6063300999813,731.599894599989,,None,,,,,2,2024-01-22_11h34.40.360,watkins1,2023.2.3,99.67039002824941,97,2024-01-22 11h35.23.211777 +0000,
,,,,,,,,,,,,,,,,,,,,,,,7,0,7,0,732.108462299977,,,,,,,,,,,,739.7934355000034,740.2827274000156,,,,7.677158300008159,,,,,,,,,,,,None,None,,,,,,,,,,Würfel,,,cuedRecallAdj,2,,,,,,,,,,,,,,,,,,,,,0,,,,,,,,,,,,,,,,,,,,,,,,,,,,,,,732.0987487999955,732.108462299977,732.108462299977,739.7911504000076,,return,7.677158300008159,None,739.791415499989,739.8006587999989,739.8006587999989,739.7933345999918,,None,,,,,2,2024-01-22_11h34.40.360,watkins1,2023.2.3,99.67039002824941,97,2024-01-22 11h35.23.211777 +0000,
,,,,,,,,,,,,,,,,,,,,,,,8,0,8,0,740.2926732000196,,,,,,,,,,,,742.8868878000067,743.3855343000032,,,,2.5888707999838516,,,,,,,,,,,,None,None,,,,,,,,,,Jacke,,,cuedRecallAdj,2,,,,,,,,,,,,,,,,,,,,,0,,,,,,,,,,,,,,,,,,,,,,,,,,,,,,,740.2829658000264,740.2926732000196,740.2926732000196,742.8838796999771,kratzig,return,2.5888707999838516,None,742.8841418999946,742.893432300014,742.893432300014,742.8867838999722,,None,,,,,2,2024-01-22_11h34.40.360,watkins1,2023.2.3,99.67039002824941,97,2024-01-22 11h35.23.211777 +0000,
,,,,,,,,,,,,,,,,,,,,,,,9,0,9,0,743.39558880002,,,,,,,,,,,,745.6179198999889,746.1168557999772,,,,2.2139955000020564,,,,,,,,,,,,None,None,,,,,,,,,,Flasche,,,cuedRecallAdj,2,,,,,,,,,,,,,,,,,,,,,0,,,,,,,,,,,,,,,,,,,,,,,,,,,,,,,743.3857785,743.39558880002,743.39558880002,745.6149984999793,matt,return,2.2139955000020564,None,745.6152673999895,745.6245128000155,745.6245128000155,745.6178191999788,,None,,,,,2,2024-01-22_11h34.40.360,watkins1,2023.2.3,99.67039002824941,97,2024-01-22 11h35.23.211777 +0000,
,,,,,,,,,,,,,,,,,,,,,,,10,0,10,0,746.1268920000293,,,,,,,,,,,,750.5878953000065,751.0775509999949,,,,4.450586999999359,,,,,,,,,,,,None,None,,,,,,,,,,Uhr,,,cuedRecallAdj,2,,,,,,,,,,,,,,,,,,,,,0,,,,,,,,,,,,,,,,,,,,,,,,,,,,,,,746.1170950999949,746.1268920000293,746.1268920000293,750.5858326000161,,return,4.450586999999359,None,750.5860963999876,750.5955587999779,750.5955587999779,750.5877922999789,,None,,,,,2,2024-01-22_11h34.40.360,watkins1,2023.2.3,99.67039002824941,97,2024-01-22 11h35.23.211777 +0000,
,,,,,,,,,,,,,,,,,,,,,,,11,0,11,0,751.0874553999747,,,,,,,,,,,,752.7579636999872,753.2566011999734,,,,1.6661252999911085,,,,,,,,,,,,None,None,,,,,,,,,,Hammer,,,cuedRecallAdj,2,,,,,,,,,,,,,,,,,,,,,0,,,,,,,,,,,,,,,,,,,,,,,,,,,,,,,751.0778195000021,751.0874553999747,751.0874553999747,752.7549702000106,breit,return,1.6661252999911085,None,752.7552329999744,752.7645836999873,752.7645836999873,752.7578617000254,,None,,,,,2,2024-01-22_11h34.40.360,watkins1,2023.2.3,99.67039002824941,97,2024-01-22 11h35.23.211777 +0000,
,,,,,,,,,,,,,,,,,,,,,,,12,0,12,0,753.2666397999856,,,,,,,,,,,,757.6569027000223,758.1467828999739,,,,4.382839999976568,,,,,,,,,,,,None,None,,,,,,,,,,Geige,,,cuedRecallAdj,2,,,,,,,,,,,,,,,,,,,,,0,,,,,,,,,,,,,,,,,,,,,,,,,,,,,,,753.2568426000071,753.2666397999856,753.2666397999856,757.6550077000284,breit,return,4.382839999976568,None,757.6552724000067,757.6645491999807,757.6645491999807,757.6568011000054,,None,,,,,2,2024-01-22_11h34.40.360,watkins1,2023.2.3,99.67039002824941,97,2024-01-22 11h35.23.211777 +0000,
,,,,,,,,,,,,,,,,,,,,,,,13,0,13,0,758.1567918999936,,,,,,,,,,,,763.7836905000149,764.2822604000103,,,,5.620670300035272,,,,,,,,,,,,None,None,,,,,,,,,,Socke,,,cuedRecallAdj,2,,,,,,,,,,,,,,,,,,,,,0,,,,,,,,,,,,,,,,,,,,,,,,,,,,,,,758.1470256000175,758.1567918999936,758.1567918999936,763.7806221999926,flauschig,return,5.620670300035272,None,763.7808864000253,763.7901665000245,763.7901665000245,763.783589300001,,None,,,,,2,2024-01-22_11h34.40.360,watkins1,2023.2.3,99.67039002824941,97,2024-01-22 11h35.23.211777 +0000,
,,,,,,,,,,,,,,,,,,,,,,,14,0,14,0,764.2922156000277,,,,,,,,,,,,769.6777839999995,770.1766836000024,,,,5.373314899974503,,,,,,,,,,,,None,None,,,,,,,,,,Kette,,,cuedRecallAdj,2,,,,,,,,,,,,,,,,,,,,,0,,,,,,,,,,,,,,,,,,,,,,,,,,,,,,,764.2824946999899,764.2922156000277,764.2922156000277,769.6746783999843,verspielt,return,5.373314899974503,None,769.6749441000284,769.6844342999975,769.6844342999975,769.6776822999818,,None,,,,,2,2024-01-22_11h34.40.360,watkins1,2023.2.3,99.67039002824941,97,2024-01-22 11h35.23.211777 +0000,
,,,,,,,,,,,,,,,,,,,,,,,15,0,15,0,770.1866399000282,,,,,,,,,,,,776.8175592999905,777.3162672999897,,,,6.622948599979281,,,,,,,,,,,,None,None,,,,,,,,,,Trommel,,,cuedRecallAdj,2,,,,,,,,,,,,,,,,,,,,,0,,,,,,,,,,,,,,,,,,,,,,,,,,,,,,,770.1769199999981,770.1866399000282,770.1866399000282,776.8144906000234,dreckig,return,6.622948599979281,None,776.8147537999903,776.8241087999777,776.8241087999777,776.8174583999789,,None,,,,,2,2024-01-22_11h34.40.360,watkins1,2023.2.3,99.67039002824941,97,2024-01-22 11h35.23.211777 +0000,
,,,,,,,,,,,,,,,,,,,,,,,16,0,16,0,777.3262166000204,,,,,,,,,,,,780.0810946000274,780.5797775000101,,,,2.7473492000135593,,,,,,,,,,,,None,None,,,,,,,,,,Blume,,,cuedRecallAdj,2,,,,,,,,,,,,,,,,,,,,,0,,,,,,,,,,,,,,,,,,,,,,,,,,,,,,,777.3165157000185,777.3262166000204,777.3262166000204,780.0780572000076,gepunktet,return,2.7473492000135593,None,780.0783221999882,780.0875998000265,780.0875998000265,780.0809931000113,,None,,,,,2,2024-01-22_11h34.40.360,watkins1,2023.2.3,99.67039002824941,97,2024-01-22 11h35.23.211777 +0000,
,,,,,,,,,,,,,,,,,,,,,,,17,0,17,0,780.5897197999875,,,,,,,,,,,,783.7361794000026,784.2258720999816,,,,3.1398780000163242,,,,,,,,,,,,None,None,,,,,,,,,,Brille,,,cuedRecallAdj,2,,,,,,,,,,,,,,,,,,,,,0,,,,,,,,,,,,,,,,,,,,,,,,,,,,,,,780.5800226000138,780.5897197999875,780.5897197999875,783.7333058000077,groß,return,3.1398780000163242,None,783.733569199976,783.7428562000277,783.7428562000277,783.7360783999902,,None,,,,,2,2024-01-22_11h34.40.360,watkins1,2023.2.3,99.67039002824941,97,2024-01-22 11h35.23.211777 +0000,
,,,,,,,,,,,,,,,,,,,,,,,18,0,18,0,784.235932999989,,,,,,,,,,,,786.6086518000229,787.0980354999774,,,,2.36553210002603,,,,,,,,,,,,None,None,,,,,,,,,,Lampe,,,cuedRecallAdj,2,,,,,,,,,,,,,,,,,,,,,0,,,,,,,,,,,,,,,,,,,,,,,,,,,,,,,784.2261174999876,784.235932999989,784.235932999989,786.6064366999781,,return,2.36553210002603,None,786.606698699994,786.616038099979,786.616038099979,786.6085505000083,,None,,,,,2,2024-01-22_11h34.40.360,watkins1,2023.2.3,99.67039002824941,97,2024-01-22 11h35.23.211777 +0000,
,,,,,,,,,,,,,,,,,,,,,,,19,0,19,0,787.1080874999752,,,,,,,,,,,,789.8826673000003,790.3817160999752,,,,2.7654670999618247,,,,,,,,,,,,None,None,,,,,,,,,,Vase,,,cuedRecallAdj,2,,,,,,,,,,,,,,,,,,,,,0,,,,,,,,,,,,,,,,,,,,,,,,,,,,,,,787.0982796999742,787.1080874999752,787.1080874999752,789.8798835999914,robust,return,2.7654670999618247,None,789.8801415999769,789.8894176000031,789.8894176000031,789.8825649999781,,None,,,,,2,2024-01-22_11h34.40.360,watkins1,2023.2.3,99.67039002824941,97,2024-01-22 11h35.23.211777 +0000,
,,,,,,,,,,,,,,,,,,,,,,,20,0,20,0,790.3916674000211,,,,,,,,,,,,793.5880275000236,794.0870296999929,,,,3.1859056999674067,,,,,,,,,,,,None,None,,,,,,,,,,Buch,,,cuedRecallAdj,2,,,,,,,,,,,,,,,,,,,,,0,,,,,,,,,,,,,,,,,,,,,,,,,,,,,,,790.3819592000218,790.3916674000211,790.3916674000211,793.5851357000065,krumm,return,3.1859056999674067,None,793.5853984000278,793.594845900021,793.594845900021,793.5879246999975,,None,,,,,2,2024-01-22_11h34.40.360,watkins1,2023.2.3,99.67039002824941,97,2024-01-22 11h35.23.211777 +0000,
,,,,,,,,,,,,,,,,,,,,,,,21,0,21,0,794.0969787000213,,,,,,,,,,,,795.7675389000215,796.2664353,,,,1.6646360000013374,,,,,,,,,,,,None,None,,,,,,,,,,Hut,,,cuedRecallAdj,2,,,,,,,,,,,,,,,,,,,,,0,,,,,,,,,,,,,,,,,,,,,,,,,,,,,,,794.0872714000288,794.0969787000213,794.0969787000213,795.7648512999876,nass,return,1.6646360000013374,None,795.7651164000272,795.7743751999806,795.7743751999806,795.7674370000022,,None,,,,,2,2024-01-22_11h34.40.360,watkins1,2023.2.3,99.67039002824941,97,2024-01-22 11h35.23.211777 +0000,
,,,,,,,,,,,,,,,,,,,,,,,22,0,22,0,796.276434200001,,,,,,,,,,,,800.2774104999844,800.7762049000012,,,,3.9890046000364237,,,,,,,,,,,,None,None,,,,,,,,,,Bürste,,,cuedRecallAdj,2,,,,,,,,,,,,,,,,,,,,,0,,,,,,,,,,,,,,,,,,,,,,,,,,,,,,,796.2667058000225,796.276434200001,796.276434200001,800.2743371999823,gestreift,return,3.9890046000364237,None,800.2746007000096,800.284113599977,800.284113599977,800.2773082000203,,None,,,,,2,2024-01-22_11h34.40.360,watkins1,2023.2.3,99.67039002824941,97,2024-01-22 11h35.23.211777 +0000,
,,,,,,,,,,,,,,,,,,,,,,,23,0,23,0,800.7861518000136,,,,,,,,,,,,803.3903249999858,803.8890343999956,,,,2.591410900000483,,,,,,,,,,,,None,None,,,,,,,,,,Fahrrad,,,cuedRecallAdj,2,,,,,,,,,,,,,,,,,,,,,0,,,,,,,,,,,,,,,,,,,,,,,,,,,,,,,800.7764491999988,800.7861518000136,800.7861518000136,803.387309200014,teuer,return,2.591410900000483,None,803.3875741999946,803.3970612999983,803.3970612999983,803.390223400027,,None,,,,,2,2024-01-22_11h34.40.360,watkins1,2023.2.3,99.67039002824941,97,2024-01-22 11h35.23.211777 +0000,
,,,,,,,,,,,,,,,,,,,,,,,24,0,24,0,803.8990910000284,,,,,,,,,,,,815.5900456000236,816.079384599987,,,,11.678534700011369,,,,,,,,,,,,None,None,,,,,,,,,,Rucksack,,,cuedRecallAdj,2,,,,,,,,,,,,,,,,,,,,,0,,,,,,,,,,,,,,,,,,,,,,,,,,,,,,,803.8892760999734,803.8990910000284,803.8990910000284,815.5876059000148,,return,11.678534700011369,None,815.5878700999892,815.5973896000069,815.5973896000069,815.5899443000089,,None,,,,,2,2024-01-22_11h34.40.360,watkins1,2023.2.3,99.67039002824941,97,2024-01-22 11h35.23.211777 +0000,
,,,,,,,,,,,,,,,,,,,,,,,25,0,25,0,816.0892853999976,,,,,,,,,,,,821.6661596000195,822.1648492999957,,,,5.56818669999484,,,,,,,,,,,,None,None,,,,,,,,,,Tasche,,,cuedRecallAdj,2,,,,,,,,,,,,,,,,,,,,,0,,,,,,,,,,,,,,,,,,,,,,,,,,,,,,,816.0796272000298,816.0892853999976,816.0892853999976,821.6630904999911,sportlich,return,5.56818669999484,None,821.6633519000025,821.6727002999978,821.6727002999978,821.6660585000063,,None,,,,,2,2024-01-22_11h34.40.360,watkins1,2023.2.3,99.67039002824941,97,2024-01-22 11h35.23.211777 +0000,
,,,,,,,,,,,,,,,,,,,,,,,26,0,26,0,822.174801599991,,,,,,,,,,,,827.4801819000277,827.9788244999945,,,,5.298692500044126,,,,,,,,,,,,None,None,,,,,,,,,,Kiste,,,cuedRecallAdj,2,,,,,,,,,,,,,,,,,,,,,0,,,,,,,,,,,,,,,,,,,,,,,,,,,,,,,822.1650888000149,822.174801599991,822.174801599991,827.4772262999904,klobig,return,5.298692500044126,None,827.4774899000186,827.486791400006,827.486791400006,827.4800787999993,,None,,,,,2,2024-01-22_11h34.40.360,watkins1,2023.2.3,99.67039002824941,97,2024-01-22 11h35.23.211777 +0000,
,,,,,,,,,,,,,,,,,,,,,,,27,0,27,0,827.9887723000138,,,,,,,,,,,,832.4607354999753,832.9593312999932,,,,4.460667099978309,,,,,,,,,,,,None,None,,,,,,,,,,Kerze,,,cuedRecallAdj,2,,,,,,,,,,,,,,,,,,,,,0,,,,,,,,,,,,,,,,,,,,,,,,,,,,,,,827.9790694999974,827.9887723000138,827.9887723000138,832.4577230000286,schwer,return,4.460667099978309,None,832.4579914999777,832.4674327999819,832.4674327999819,832.4606334000127,,None,,,,,2,2024-01-22_11h34.40.360,watkins1,2023.2.3,99.67039002824941,97,2024-01-22 11h35.23.211777 +0000,
,,,,,,,,,,,,,,,,,,,,,,,28,0,28,0,832.9692524999846,,,,,,,,,,,,836.4275761999888,836.9262674999773,,,,3.4482884999597445,,,,,,,,,,,,None,None,,,,,,,,,,Löffel,,,cuedRecallAdj,2,,,,,,,,,,,,,,,,,,,,,0,,,,,,,,,,,,,,,,,,,,,,,,,,,,,,,832.9595748999855,832.9692524999846,832.9692524999846,836.4244175999775,durchsichtig,return,3.4482884999597445,None,836.4246819000109,836.4339639000245,836.4339639000245,836.4274735000217,,None,,,,,2,2024-01-22_11h34.40.360,watkins1,2023.2.3,99.67039002824941,97,2024-01-22 11h35.23.211777 +0000,
,,,,,,,,,,,,,,,,,,,,,,,29,0,29,0,836.9363178000203,,,,,,,,,,,,839.7412976999767,840.2400354000274,,,,2.7931798999779858,,,,,,,,,,,,None,None,,,,,,,,,,Schere,,,cuedRecallAdj,2,,,,,,,,,,,,,,,,,,,,,0,,,,,,,,,,,,,,,,,,,,,,,,,,,,,,,836.9265092000132,836.9363178000203,836.9363178000203,839.7382152000209,gläzend,return,2.7931798999779858,None,839.738482100016,839.7478942999733,839.7478942999733,839.7411959000165,,None,,,,,2,2024-01-22_11h34.40.360,watkins1,2023.2.3,99.67039002824941,97,2024-01-22 11h35.23.211777 +0000,
,,,,,,,,,,,,,,,,,,,,,,,,,,,,,,,,,,,,,,,,,,,,,,,,,,,,,,,,,,,,,,,,,,,,,,,2,,,,,,,,,,,,,,,,,,,,,,,,,,,,,,,,,,,,,,,,,,,,,,,,,,,,,,,,,,,,,,,,,,840.2568278000108,q,10198.796910300036,None,2,2024-01-22_11h34.40.360,watkins1,2023.2.3,99.67039002824941,97,2024-01-22 11h35.23.211777 +0000,
