Equation,CorrectResponse,Correctbutton,trials_7.thisRepN,trials_7.thisTrialN,trials_7.thisN,trials_7.thisIndex,trials.thisRepN,trials.thisTrialN,trials.thisN,trials.thisIndex,trials_3.thisRepN,trials_3.thisTrialN,trials_3.thisN,trials_3.thisIndex,trials_2.thisRepN,trials_2.thisTrialN,trials_2.thisN,trials_2.thisIndex,trials_4.thisRepN,trials_4.thisTrialN,trials_4.thisN,trials_4.thisIndex,trials_5.thisRepN,trials_5.thisTrialN,trials_5.thisN,trials_5.thisIndex,thisRow.t,notes,list_sub_restudy,list_sub_testsub,code_marius.started,code_marius.stopped,welcome.started,welcome.stopped,instruction_study.started,instruction_study.stopped,fixationcross.started,fixationcross.stopped,blanc.started,blanc.stopped,study_control_probe.started,study_control_probe.stopped,responseKey,responseTime,scale_answer_2.keys,study_control_probe_2.started,study_control_probe_2.stopped,scale_answer_3.keys,scale_answer_3.rt,scale_answer_3.duration,blanc_2.started,blanc_2.stopped,test_attr_probe.started,test_attr_probe.stopped,recalled_attr,firstKeyTime,secondWordTime,blanc_3.started,blanc_3.stopped,test_sub_probe.started,test_sub_probe.stopped,recalled_sub,instruction_probe_end.started,instruction_probe_end.stopped,study.started,study.stopped,substantive,adjective,wordpair,task,condition,liste_sub_phase1,liste_adj_phase1,scale_answer.keys,scale_answer.rt,scale_answer.duration,code_defineWordsInit.started,code_defineWordsInit.stopped,liste_sub_phase2,study_control.started,study_control.stopped,scale_answer_4.keys,restudy_same.started,restudy_same.stopped,scale_answer_5.keys,restudy_different.started,restudy_different.stopped,scale_answer_6.keys,test_attr.started,test_attr.stopped,test_sub.started,correct,test_sub.stopped,scale_answer_5.rt,scale_answer_5.duration,distractortask.started,equation_text.started,distractortask.stopped,mouse_answer.x,mouse_answer.y,mouse_answer.leftButton,mouse_answer.midButton,mouse_answer.rightButton,mouse_answer.time,mouse_answer.clicked_name,feedback_distractortask.started,feedback_distractortask.stopped,free_recall.started,text_enter.started,key_resp.started,free_recall.stopped,key_resp.keys,key_resp.rt,key_resp.duration,free_recalled_sub,mouse_continue.x,mouse_continue.y,mouse_continue.leftButton,mouse_continue.midButton,mouse_continue.rightButton,mouse_continue.time,mouse_continue.clicked_name,cued_recall.started,text_enter_2.started,key_continue.started,cued_recall.stopped,recalled_attr1,key_continue.keys,key_continue.rt,key_continue.duration,cued_recall_2.started,text_enter_3.started,key_continue_2.started,cued_recall_2.stopped,recalled_attr2,key_continue_2.keys,key_resp_8.started,key_resp_8.keys,key_resp_8.rt,key_resp_8.duration,condition,date,expName,psychopyVersion,frameRate,participant,expStart,
,,,,,,,,,,,,,,,,,,,,,,,,,,,,,"['Hut', 'Rucksack', 'Tasse', 'Kette', 'Vase', 'Brille', 'Schere', 'Kamera', 'Trommel', 'Jacke', 'Hammer', 'Eimer', 'Schlüssel', 'Stift', 'Uhr']","['Kerze', 'Fahrrad', 'Kiste', 'Ring', 'Löffel', 'Tasche', 'Flasche', 'Lampe', 'Buch', 'Würfel', 'Telefon', 'Bürste', 'Geige', 'Socke', 'Blume']",0.10416029999032617,0.10422430001199245,0.1042327000759542,2.771289300173521,,,,,,,,,,,,,,,,,,,,,,,,,,,,,,,,,,,,,2,,,,,,,,,,,,,,,,,,,,,,,,,,,,,,,,,,,,,,,,,,,,,,,,,,,,,,,,,,,,,,,,,,,,,,2,2023-11-28_11h45.22.502,watkins1,2023.2.3,99.71948928568385,28,2023-11-28 11h45.28.582865 +0000,
,,,,,,,,,,,,,,,,,,,,,,,,,,,,,,,,,,,2.771338500082493,35.62478660000488,,,,,,,,,,,,,,,,,,,,,,,,,,,,,,,,,,,2,,,,,,,,,,,,,,,,,,,,,,,,,,,,,,,,,,,,,,,,,,,,,,,,,,,,,,,,,,,,,,,,,,,,,,2,2023-11-28_11h45.22.502,watkins1,2023.2.3,99.71948928568385,28,2023-11-28 11h45.28.582865 +0000,
,,,0,0,0,0,,,,,,,,,,,,,,,,,,,,,36.638415500056,,,,,,,,,,35.624803100014105,36.62843500007875,43.12623340007849,43.617573800031096,37.12046520016156,43.12606599996798,3,4.117370800115168,None,43.61758460011333,49.627200100105256,3,4.117370800115168,None,49.62749980017543,49.62752370000817,49.62753100018017,49.62761400011368,,2.2893606999423355,None,49.6277762001846,50.11881220014766,50.11882319999859,56.12395779998042,Hund,,,,,,,,,2,,,,,,,,,,,,,,,,,,,,,,,,,,,,,,,,,,,,,,,,,,,,,,,,,,,,,,,,,,,,,,,,,,,,,,2,2023-11-28_11h45.22.502,watkins1,2023.2.3,99.71948928568385,28,2023-11-28 11h45.28.582865 +0000,
,,,,,,,,,,,,,,,,,,,,,,,,,,,,,,,,,,,,,,,,,,,,,,,,,,,,,,,,,,,,,,,56.12412489997223,66.89886680012569,,,,,,,2,,,,,,,,,,,,,,,,,,,,,,,,,,,,,,,,,,,,,,,,,,,,,,,,,,,,,,,,,,,,,,,,,,,,,,2,2023-11-28_11h45.22.502,watkins1,2023.2.3,99.71948928568385,28,2023-11-28 11h45.28.582865 +0000,
,,,,,,,0,0,0,0,,,,,,,,,,,,,,,,,67.91267790016718,,,,,,,,,,66.89888390013948,67.90270350011997,67.90321680018678,68.39470220007934,,,3,3.1680598000530154,,,,,,,,,,,,,,,,,,,,,68.3947132001631,74.40175840002485,Uhr,glatt,"['Uhr', 'glatt']",restudy,2,"['Uhr', 'Buch', 'Löffel', 'Tasche', 'Kette', 'Brille', 'Schere', 'Vase', 'Geige', 'Stift', 'Würfel', 'Hammer', 'Kerze', 'Fahrrad', 'Eimer', 'Bürste', 'Blume', 'Socke', 'Kamera', 'Flasche', 'Jacke', 'Kiste', 'Lampe', 'Trommel', 'Tasse', 'Telefon', 'Ring', 'Schlüssel', 'Rucksack', 'Hut']",['glatt'],3,3.1680598000530154,None,,,,,,,,,,,,,,,,,,,,,,,,,,,,,,,,,,,,,,,,,,,,,,,,,,,,,,,,,,,,,,,,,2,2023-11-28_11h45.22.502,watkins1,2023.2.3,99.71948928568385,28,2023-11-28 11h45.28.582865 +0000,
,,,,,,,1,0,1,0,,,,,,,,,,,,,,,,,74.4112301999703,,,,,,,,,,,,74.40241560013965,74.89335090015084,,,1,1.9025587998330593,,,,,,,,,,,,,,,,,,,,,74.8933616001159,80.89789360016584,Buch,flauschig,"['Buch', 'flauschig']",test_sub,2,"['Uhr', 'Buch', 'Löffel', 'Tasche', 'Kette', 'Brille', 'Schere', 'Vase', 'Geige', 'Stift', 'Würfel', 'Hammer', 'Kerze', 'Fahrrad', 'Eimer', 'Bürste', 'Blume', 'Socke', 'Kamera', 'Flasche', 'Jacke', 'Kiste', 'Lampe', 'Trommel', 'Tasse', 'Telefon', 'Ring', 'Schlüssel', 'Rucksack', 'Hut']","['glatt', 'flauschig']",1,1.9025587998330593,None,,,,,,,,,,,,,,,,,,,,,,,,,,,,,,,,,,,,,,,,,,,,,,,,,,,,,,,,,,,,,,,,,2,2023-11-28_11h45.22.502,watkins1,2023.2.3,99.71948928568385,28,2023-11-28 11h45.28.582865 +0000,
,,,,,,,2,0,2,0,,,,,,,,,,,,,,,,,80.9073054001201,,,,,,,,,,,,80.89844100014307,81.38932020007633,,,3,3.4302400001324713,,,,,,,,,,,,,,,,,,,,,81.38933170004748,87.39199020015076,Löffel,gestreift,"['Löffel', 'gestreift']",test_sub,2,"['Uhr', 'Buch', 'Löffel', 'Tasche', 'Kette', 'Brille', 'Schere', 'Vase', 'Geige', 'Stift', 'Würfel', 'Hammer', 'Kerze', 'Fahrrad', 'Eimer', 'Bürste', 'Blume', 'Socke', 'Kamera', 'Flasche', 'Jacke', 'Kiste', 'Lampe', 'Trommel', 'Tasse', 'Telefon', 'Ring', 'Schlüssel', 'Rucksack', 'Hut']","['glatt', 'flauschig', 'gestreift']",3,3.4302400001324713,None,,,,,,,,,,,,,,,,,,,,,,,,,,,,,,,,,,,,,,,,,,,,,,,,,,,,,,,,,,,,,,,,,2,2023-11-28_11h45.22.502,watkins1,2023.2.3,99.71948928568385,28,2023-11-28 11h45.28.582865 +0000,
,,,,,,,3,0,3,0,,,,,,,,,,,,,,,,,87.40155920013785,,,,,,,,,,,,87.39252550015226,87.88359660003334,,,3,1.5686107999645174,,,,,,,,,,,,,,,,,,,,,87.88360720011406,93.88562610000372,Tasche,kurz,"['Tasche', 'kurz']",test_sub,2,"['Uhr', 'Buch', 'Löffel', 'Tasche', 'Kette', 'Brille', 'Schere', 'Vase', 'Geige', 'Stift', 'Würfel', 'Hammer', 'Kerze', 'Fahrrad', 'Eimer', 'Bürste', 'Blume', 'Socke', 'Kamera', 'Flasche', 'Jacke', 'Kiste', 'Lampe', 'Trommel', 'Tasse', 'Telefon', 'Ring', 'Schlüssel', 'Rucksack', 'Hut']","['glatt', 'flauschig', 'gestreift', 'kurz']",3,1.5686107999645174,None,,,,,,,,,,,,,,,,,,,,,,,,,,,,,,,,,,,,,,,,,,,,,,,,,,,,,,,,,,,,,,,,,2,2023-11-28_11h45.22.502,watkins1,2023.2.3,99.71948928568385,28,2023-11-28 11h45.28.582865 +0000,
,,,,,,,4,0,4,0,,,,,,,,,,,,,,,,,93.89505659998395,,,,,,,,,,,,93.88616160000674,94.37724700011313,,,2,2.131406100001186,,,,,,,,,,,,,,,,,,,,,94.37725740019232,100.38739340007305,Kette,kratzig,"['Kette', 'kratzig']",restudy,2,"['Uhr', 'Buch', 'Löffel', 'Tasche', 'Kette', 'Brille', 'Schere', 'Vase', 'Geige', 'Stift', 'Würfel', 'Hammer', 'Kerze', 'Fahrrad', 'Eimer', 'Bürste', 'Blume', 'Socke', 'Kamera', 'Flasche', 'Jacke', 'Kiste', 'Lampe', 'Trommel', 'Tasse', 'Telefon', 'Ring', 'Schlüssel', 'Rucksack', 'Hut']","['glatt', 'flauschig', 'gestreift', 'kurz', 'kratzig']",2,2.131406100001186,None,,,,,,,,,,,,,,,,,,,,,,,,,,,,,,,,,,,,,,,,,,,,,,,,,,,,,,,,,,,,,,,,,2,2023-11-28_11h45.22.502,watkins1,2023.2.3,99.71948928568385,28,2023-11-28 11h45.28.582865 +0000,
,,,,,,,5,0,5,0,,,,,,,,,,,,,,,,,100.39685850008391,,,,,,,,,,,,100.3879413001705,100.87892740010284,,,3,1.7577907000668347,,,,,,,,,,,,,,,,,,,,,100.87893740017898,106.88929020008072,Brille,gepunktet,"['Brille', 'gepunktet']",restudy,2,"['Uhr', 'Buch', 'Löffel', 'Tasche', 'Kette', 'Brille', 'Schere', 'Vase', 'Geige', 'Stift', 'Würfel', 'Hammer', 'Kerze', 'Fahrrad', 'Eimer', 'Bürste', 'Blume', 'Socke', 'Kamera', 'Flasche', 'Jacke', 'Kiste', 'Lampe', 'Trommel', 'Tasse', 'Telefon', 'Ring', 'Schlüssel', 'Rucksack', 'Hut']","['glatt', 'flauschig', 'gestreift', 'kurz', 'kratzig', 'gepunktet']",3,1.7577907000668347,None,,,,,,,,,,,,,,,,,,,,,,,,,,,,,,,,,,,,,,,,,,,,,,,,,,,,,,,,,,,,,,,,,2,2023-11-28_11h45.22.502,watkins1,2023.2.3,99.71948928568385,28,2023-11-28 11h45.28.582865 +0000,
,,,,,,,6,0,6,0,,,,,,,,,,,,,,,,,106.89870520005934,,,,,,,,,,,,106.88983850018121,107.38088010018691,,,3,1.6243343998212367,,,,,,,,,,,,,,,,,,,,,107.38088980014436,113.38277620007284,Schere,gut,"['Schere', 'gut']",restudy,2,"['Uhr', 'Buch', 'Löffel', 'Tasche', 'Kette', 'Brille', 'Schere', 'Vase', 'Geige', 'Stift', 'Würfel', 'Hammer', 'Kerze', 'Fahrrad', 'Eimer', 'Bürste', 'Blume', 'Socke', 'Kamera', 'Flasche', 'Jacke', 'Kiste', 'Lampe', 'Trommel', 'Tasse', 'Telefon', 'Ring', 'Schlüssel', 'Rucksack', 'Hut']","['glatt', 'flauschig', 'gestreift', 'kurz', 'kratzig', 'gepunktet', 'gut']",3,1.6243343998212367,None,,,,,,,,,,,,,,,,,,,,,,,,,,,,,,,,,,,,,,,,,,,,,,,,,,,,,,,,,,,,,,,,,2,2023-11-28_11h45.22.502,watkins1,2023.2.3,99.71948928568385,28,2023-11-28 11h45.28.582865 +0000,
,,,,,,,7,0,7,0,,,,,,,,,,,,,,,,,113.39235040009953,,,,,,,,,,,,113.38330750004388,113.87434270000085,,,3,1.7308543999679387,,,,,,,,,,,,,,,,,,,,,113.87435290007852,119.88471430004574,Vase,dick,"['Vase', 'dick']",restudy,2,"['Uhr', 'Buch', 'Löffel', 'Tasche', 'Kette', 'Brille', 'Schere', 'Vase', 'Geige', 'Stift', 'Würfel', 'Hammer', 'Kerze', 'Fahrrad', 'Eimer', 'Bürste', 'Blume', 'Socke', 'Kamera', 'Flasche', 'Jacke', 'Kiste', 'Lampe', 'Trommel', 'Tasse', 'Telefon', 'Ring', 'Schlüssel', 'Rucksack', 'Hut']","['glatt', 'flauschig', 'gestreift', 'kurz', 'kratzig', 'gepunktet', 'gut', 'dick']",3,1.7308543999679387,None,,,,,,,,,,,,,,,,,,,,,,,,,,,,,,,,,,,,,,,,,,,,,,,,,,,,,,,,,,,,,,,,,2,2023-11-28_11h45.22.502,watkins1,2023.2.3,99.71948928568385,28,2023-11-28 11h45.28.582865 +0000,
,,,,,,,8,0,8,0,,,,,,,,,,,,,,,,,119.89416720019653,,,,,,,,,,,,119.88522480009124,120.37618859997019,,,3,1.155679700197652,,,,,,,,,,,,,,,,,,,,,120.37619910016656,126.38056499999948,Geige,groß,"['Geige', 'groß']",test_sub,2,"['Uhr', 'Buch', 'Löffel', 'Tasche', 'Kette', 'Brille', 'Schere', 'Vase', 'Geige', 'Stift', 'Würfel', 'Hammer', 'Kerze', 'Fahrrad', 'Eimer', 'Bürste', 'Blume', 'Socke', 'Kamera', 'Flasche', 'Jacke', 'Kiste', 'Lampe', 'Trommel', 'Tasse', 'Telefon', 'Ring', 'Schlüssel', 'Rucksack', 'Hut']","['glatt', 'flauschig', 'gestreift', 'kurz', 'kratzig', 'gepunktet', 'gut', 'dick', 'groß']",3,1.155679700197652,None,,,,,,,,,,,,,,,,,,,,,,,,,,,,,,,,,,,,,,,,,,,,,,,,,,,,,,,,,,,,,,,,,2,2023-11-28_11h45.22.502,watkins1,2023.2.3,99.71948928568385,28,2023-11-28 11h45.28.582865 +0000,
,,,,,,,9,0,9,0,,,,,,,,,,,,,,,,,126.39003420015797,,,,,,,,,,,,126.38108690013178,126.87213070015423,,,3,2.725035599898547,,,,,,,,,,,,,,,,,,,,,126.87214110000059,132.8815916001331,Stift,breit,"['Stift', 'breit']",restudy,2,"['Uhr', 'Buch', 'Löffel', 'Tasche', 'Kette', 'Brille', 'Schere', 'Vase', 'Geige', 'Stift', 'Würfel', 'Hammer', 'Kerze', 'Fahrrad', 'Eimer', 'Bürste', 'Blume', 'Socke', 'Kamera', 'Flasche', 'Jacke', 'Kiste', 'Lampe', 'Trommel', 'Tasse', 'Telefon', 'Ring', 'Schlüssel', 'Rucksack', 'Hut']","['glatt', 'flauschig', 'gestreift', 'kurz', 'kratzig', 'gepunktet', 'gut', 'dick', 'groß', 'breit']",3,2.725035599898547,None,,,,,,,,,,,,,,,,,,,,,,,,,,,,,,,,,,,,,,,,,,,,,,,,,,,,,,,,,,,,,,,,,2,2023-11-28_11h45.22.502,watkins1,2023.2.3,99.71948928568385,28,2023-11-28 11h45.28.582865 +0000,
,,,,,,,10,0,10,0,,,,,,,,,,,,,,,,,132.89106180006638,,,,,,,,,,,,132.8821093000006,133.3731329999864,,,3,3.6065539999399334,,,,,,,,,,,,,,,,,,,,,133.37314310017973,139.37529740016907,Würfel,hässlich,"['Würfel', 'hässlich']",test_sub,2,"['Uhr', 'Buch', 'Löffel', 'Tasche', 'Kette', 'Brille', 'Schere', 'Vase', 'Geige', 'Stift', 'Würfel', 'Hammer', 'Kerze', 'Fahrrad', 'Eimer', 'Bürste', 'Blume', 'Socke', 'Kamera', 'Flasche', 'Jacke', 'Kiste', 'Lampe', 'Trommel', 'Tasse', 'Telefon', 'Ring', 'Schlüssel', 'Rucksack', 'Hut']","['glatt', 'flauschig', 'gestreift', 'kurz', 'kratzig', 'gepunktet', 'gut', 'dick', 'groß', 'breit', 'hässlich']",3,3.6065539999399334,None,,,,,,,,,,,,,,,,,,,,,,,,,,,,,,,,,,,,,,,,,,,,,,,,,,,,,,,,,,,,,,,,,2,2023-11-28_11h45.22.502,watkins1,2023.2.3,99.71948928568385,28,2023-11-28 11h45.28.582865 +0000,
,,,,,,,11,0,11,0,,,,,,,,,,,,,,,,,139.38471480016597,,,,,,,,,,,,139.37581490003504,139.86693810019642,,,3,0.8180383001454175,,,,,,,,,,,,,,,,,,,,,139.86694810003974,145.87669230019674,Hammer,kaputt,"['Hammer', 'kaputt']",restudy,2,"['Uhr', 'Buch', 'Löffel', 'Tasche', 'Kette', 'Brille', 'Schere', 'Vase', 'Geige', 'Stift', 'Würfel', 'Hammer', 'Kerze', 'Fahrrad', 'Eimer', 'Bürste', 'Blume', 'Socke', 'Kamera', 'Flasche', 'Jacke', 'Kiste', 'Lampe', 'Trommel', 'Tasse', 'Telefon', 'Ring', 'Schlüssel', 'Rucksack', 'Hut']","['glatt', 'flauschig', 'gestreift', 'kurz', 'kratzig', 'gepunktet', 'gut', 'dick', 'groß', 'breit', 'hässlich', 'kaputt']",3,0.8180383001454175,None,,,,,,,,,,,,,,,,,,,,,,,,,,,,,,,,,,,,,,,,,,,,,,,,,,,,,,,,,,,,,,,,,2,2023-11-28_11h45.22.502,watkins1,2023.2.3,99.71948928568385,28,2023-11-28 11h45.28.582865 +0000,
,,,,,,,12,0,12,0,,,,,,,,,,,,,,,,,145.88615510007367,,,,,,,,,,,,145.87721890001558,146.368140200153,,,3,0.9800718000624329,,,,,,,,,,,,,,,,,,,,,146.36815080000088,152.37432910013013,Kerze,teuer,"['Kerze', 'teuer']",test_sub,2,"['Uhr', 'Buch', 'Löffel', 'Tasche', 'Kette', 'Brille', 'Schere', 'Vase', 'Geige', 'Stift', 'Würfel', 'Hammer', 'Kerze', 'Fahrrad', 'Eimer', 'Bürste', 'Blume', 'Socke', 'Kamera', 'Flasche', 'Jacke', 'Kiste', 'Lampe', 'Trommel', 'Tasse', 'Telefon', 'Ring', 'Schlüssel', 'Rucksack', 'Hut']","['glatt', 'flauschig', 'gestreift', 'kurz', 'kratzig', 'gepunktet', 'gut', 'dick', 'groß', 'breit', 'hässlich', 'kaputt', 'teuer']",3,0.9800718000624329,None,,,,,,,,,,,,,,,,,,,,,,,,,,,,,,,,,,,,,,,,,,,,,,,,,,,,,,,,,,,,,,,,,2,2023-11-28_11h45.22.502,watkins1,2023.2.3,99.71948928568385,28,2023-11-28 11h45.28.582865 +0000,
,,,,,,,13,0,13,0,,,,,,,,,,,,,,,,,152.38390610017814,,,,,,,,,,,,152.37484830012545,152.86669709999114,,,3,1.4897823999635875,,,,,,,,,,,,,,,,,,,,,152.8667076001875,158.86758500011638,Fahrrad,winzig,"['Fahrrad', 'winzig']",test_sub,2,"['Uhr', 'Buch', 'Löffel', 'Tasche', 'Kette', 'Brille', 'Schere', 'Vase', 'Geige', 'Stift', 'Würfel', 'Hammer', 'Kerze', 'Fahrrad', 'Eimer', 'Bürste', 'Blume', 'Socke', 'Kamera', 'Flasche', 'Jacke', 'Kiste', 'Lampe', 'Trommel', 'Tasse', 'Telefon', 'Ring', 'Schlüssel', 'Rucksack', 'Hut']","['glatt', 'flauschig', 'gestreift', 'kurz', 'kratzig', 'gepunktet', 'gut', 'dick', 'groß', 'breit', 'hässlich', 'kaputt', 'teuer', 'winzig']",3,1.4897823999635875,None,,,,,,,,,,,,,,,,,,,,,,,,,,,,,,,,,,,,,,,,,,,,,,,,,,,,,,,,,,,,,,,,,2,2023-11-28_11h45.22.502,watkins1,2023.2.3,99.71948928568385,28,2023-11-28 11h45.28.582865 +0000,
,,,,,,,14,0,14,0,,,,,,,,,,,,,,,,,158.87704380019568,,,,,,,,,,,,158.86811260017566,159.35903439996764,,,3,1.7734761000610888,,,,,,,,,,,,,,,,,,,,,159.35904450016096,165.3603771000635,Eimer,schlicht,"['Eimer', 'schlicht']",restudy,2,"['Uhr', 'Buch', 'Löffel', 'Tasche', 'Kette', 'Brille', 'Schere', 'Vase', 'Geige', 'Stift', 'Würfel', 'Hammer', 'Kerze', 'Fahrrad', 'Eimer', 'Bürste', 'Blume', 'Socke', 'Kamera', 'Flasche', 'Jacke', 'Kiste', 'Lampe', 'Trommel', 'Tasse', 'Telefon', 'Ring', 'Schlüssel', 'Rucksack', 'Hut']","['glatt', 'flauschig', 'gestreift', 'kurz', 'kratzig', 'gepunktet', 'gut', 'dick', 'groß', 'breit', 'hässlich', 'kaputt', 'teuer', 'winzig', 'schlicht']",3,1.7734761000610888,None,,,,,,,,,,,,,,,,,,,,,,,,,,,,,,,,,,,,,,,,,,,,,,,,,,,,,,,,,,,,,,,,,2,2023-11-28_11h45.22.502,watkins1,2023.2.3,99.71948928568385,28,2023-11-28 11h45.28.582865 +0000,
,,,,,,,15,0,15,0,,,,,,,,,,,,,,,,,165.3698506001383,,,,,,,,,,,,165.3608990001958,165.85198689997196,,,1,1.4333870999980718,,,,,,,,,,,,,,,,,,,,,165.85199740016833,171.86008210014552,Bürste,matt,"['Bürste', 'matt']",test_sub,2,"['Uhr', 'Buch', 'Löffel', 'Tasche', 'Kette', 'Brille', 'Schere', 'Vase', 'Geige', 'Stift', 'Würfel', 'Hammer', 'Kerze', 'Fahrrad', 'Eimer', 'Bürste', 'Blume', 'Socke', 'Kamera', 'Flasche', 'Jacke', 'Kiste', 'Lampe', 'Trommel', 'Tasse', 'Telefon', 'Ring', 'Schlüssel', 'Rucksack', 'Hut']","['glatt', 'flauschig', 'gestreift', 'kurz', 'kratzig', 'gepunktet', 'gut', 'dick', 'groß', 'breit', 'hässlich', 'kaputt', 'teuer', 'winzig', 'schlicht', 'matt']",1,1.4333870999980718,None,,,,,,,,,,,,,,,,,,,,,,,,,,,,,,,,,,,,,,,,,,,,,,,,,,,,,,,,,,,,,,,,,2,2023-11-28_11h45.22.502,watkins1,2023.2.3,99.71948928568385,28,2023-11-28 11h45.28.582865 +0000,
,,,,,,,16,0,16,0,,,,,,,,,,,,,,,,,171.86955519998446,,,,,,,,,,,,171.86060340004042,172.35153520014137,,,3,0.8857988999225199,,,,,,,,,,,,,,,,,,,,,172.35154590010643,178.36045010015368,Blume,hübsch,"['Blume', 'hübsch']",test_sub,2,"['Uhr', 'Buch', 'Löffel', 'Tasche', 'Kette', 'Brille', 'Schere', 'Vase', 'Geige', 'Stift', 'Würfel', 'Hammer', 'Kerze', 'Fahrrad', 'Eimer', 'Bürste', 'Blume', 'Socke', 'Kamera', 'Flasche', 'Jacke', 'Kiste', 'Lampe', 'Trommel', 'Tasse', 'Telefon', 'Ring', 'Schlüssel', 'Rucksack', 'Hut']","['glatt', 'flauschig', 'gestreift', 'kurz', 'kratzig', 'gepunktet', 'gut', 'dick', 'groß', 'breit', 'hässlich', 'kaputt', 'teuer', 'winzig', 'schlicht', 'matt', 'hübsch']",3,0.8857988999225199,None,,,,,,,,,,,,,,,,,,,,,,,,,,,,,,,,,,,,,,,,,,,,,,,,,,,,,,,,,,,,,,,,,2,2023-11-28_11h45.22.502,watkins1,2023.2.3,99.71948928568385,28,2023-11-28 11h45.28.582865 +0000,
,,,,,,,17,0,17,0,,,,,,,,,,,,,,,,,178.3698648000136,,,,,,,,,,,,178.36097709997557,178.85216060001403,,,2,1.8169165002182126,,,,,,,,,,,,,,,,,,,,,178.85217060009018,184.8620986000169,Socke,praktisch,"['Socke', 'praktisch']",test_sub,2,"['Uhr', 'Buch', 'Löffel', 'Tasche', 'Kette', 'Brille', 'Schere', 'Vase', 'Geige', 'Stift', 'Würfel', 'Hammer', 'Kerze', 'Fahrrad', 'Eimer', 'Bürste', 'Blume', 'Socke', 'Kamera', 'Flasche', 'Jacke', 'Kiste', 'Lampe', 'Trommel', 'Tasse', 'Telefon', 'Ring', 'Schlüssel', 'Rucksack', 'Hut']","['glatt', 'flauschig', 'gestreift', 'kurz', 'kratzig', 'gepunktet', 'gut', 'dick', 'groß', 'breit', 'hässlich', 'kaputt', 'teuer', 'winzig', 'schlicht', 'matt', 'hübsch', 'praktisch']",2,1.8169165002182126,None,,,,,,,,,,,,,,,,,,,,,,,,,,,,,,,,,,,,,,,,,,,,,,,,,,,,,,,,,,,,,,,,,2,2023-11-28_11h45.22.502,watkins1,2023.2.3,99.71948928568385,28,2023-11-28 11h45.28.582865 +0000,
,,,,,,,18,0,18,0,,,,,,,,,,,,,,,,,184.8716149001848,,,,,,,,,,,,184.86262889998034,185.35365160019137,,,1,1.570803599897772,,,,,,,,,,,,,,,,,,,,,185.35366220003925,191.35880350018851,Kamera,verspielt,"['Kamera', 'verspielt']",restudy,2,"['Uhr', 'Buch', 'Löffel', 'Tasche', 'Kette', 'Brille', 'Schere', 'Vase', 'Geige', 'Stift', 'Würfel', 'Hammer', 'Kerze', 'Fahrrad', 'Eimer', 'Bürste', 'Blume', 'Socke', 'Kamera', 'Flasche', 'Jacke', 'Kiste', 'Lampe', 'Trommel', 'Tasse', 'Telefon', 'Ring', 'Schlüssel', 'Rucksack', 'Hut']","['glatt', 'flauschig', 'gestreift', 'kurz', 'kratzig', 'gepunktet', 'gut', 'dick', 'groß', 'breit', 'hässlich', 'kaputt', 'teuer', 'winzig', 'schlicht', 'matt', 'hübsch', 'praktisch', 'verspielt']",1,1.570803599897772,None,,,,,,,,,,,,,,,,,,,,,,,,,,,,,,,,,,,,,,,,,,,,,,,,,,,,,,,,,,,,,,,,,2,2023-11-28_11h45.22.502,watkins1,2023.2.3,99.71948928568385,28,2023-11-28 11h45.28.582865 +0000,
,,,,,,,19,0,19,0,,,,,,,,,,,,,,,,,191.36821480002254,,,,,,,,,,,,191.35933480015956,191.85038359998725,,,2,1.130949900019914,,,,,,,,,,,,,,,,,,,,,191.8503944000695,197.85947530018166,Flasche,niedlich,"['Flasche', 'niedlich']",test_sub,2,"['Uhr', 'Buch', 'Löffel', 'Tasche', 'Kette', 'Brille', 'Schere', 'Vase', 'Geige', 'Stift', 'Würfel', 'Hammer', 'Kerze', 'Fahrrad', 'Eimer', 'Bürste', 'Blume', 'Socke', 'Kamera', 'Flasche', 'Jacke', 'Kiste', 'Lampe', 'Trommel', 'Tasse', 'Telefon', 'Ring', 'Schlüssel', 'Rucksack', 'Hut']","['glatt', 'flauschig', 'gestreift', 'kurz', 'kratzig', 'gepunktet', 'gut', 'dick', 'groß', 'breit', 'hässlich', 'kaputt', 'teuer', 'winzig', 'schlicht', 'matt', 'hübsch', 'praktisch', 'verspielt', 'niedlich']",2,1.130949900019914,None,,,,,,,,,,,,,,,,,,,,,,,,,,,,,,,,,,,,,,,,,,,,,,,,,,,,,,,,,,,,,,,,,2,2023-11-28_11h45.22.502,watkins1,2023.2.3,99.71948928568385,28,2023-11-28 11h45.28.582865 +0000,
,,,,,,,20,0,20,0,,,,,,,,,,,,,,,,,197.868936000159,,,,,,,,,,,,197.86001240019687,198.35080590005964,,,3,0.9255266000982374,,,,,,,,,,,,,,,,,,,,,198.35081630013883,204.3520303000696,Jacke,glänzend,"['Jacke', 'glänzend']",restudy,2,"['Uhr', 'Buch', 'Löffel', 'Tasche', 'Kette', 'Brille', 'Schere', 'Vase', 'Geige', 'Stift', 'Würfel', 'Hammer', 'Kerze', 'Fahrrad', 'Eimer', 'Bürste', 'Blume', 'Socke', 'Kamera', 'Flasche', 'Jacke', 'Kiste', 'Lampe', 'Trommel', 'Tasse', 'Telefon', 'Ring', 'Schlüssel', 'Rucksack', 'Hut']","['glatt', 'flauschig', 'gestreift', 'kurz', 'kratzig', 'gepunktet', 'gut', 'dick', 'groß', 'breit', 'hässlich', 'kaputt', 'teuer', 'winzig', 'schlicht', 'matt', 'hübsch', 'praktisch', 'verspielt', 'niedlich', 'glänzend']",3,0.9255266000982374,None,,,,,,,,,,,,,,,,,,,,,,,,,,,,,,,,,,,,,,,,,,,,,,,,,,,,,,,,,,,,,,,,,2,2023-11-28_11h45.22.502,watkins1,2023.2.3,99.71948928568385,28,2023-11-28 11h45.28.582865 +0000,
,,,,,,,21,0,21,0,,,,,,,,,,,,,,,,,204.36146700009704,,,,,,,,,,,,204.3525841999799,204.8434797001537,,,3,1.241716300137341,,,,,,,,,,,,,,,,,,,,,204.84349060012028,210.85277430014685,Kiste,sauber,"['Kiste', 'sauber']",test_sub,2,"['Uhr', 'Buch', 'Löffel', 'Tasche', 'Kette', 'Brille', 'Schere', 'Vase', 'Geige', 'Stift', 'Würfel', 'Hammer', 'Kerze', 'Fahrrad', 'Eimer', 'Bürste', 'Blume', 'Socke', 'Kamera', 'Flasche', 'Jacke', 'Kiste', 'Lampe', 'Trommel', 'Tasse', 'Telefon', 'Ring', 'Schlüssel', 'Rucksack', 'Hut']","['glatt', 'flauschig', 'gestreift', 'kurz', 'kratzig', 'gepunktet', 'gut', 'dick', 'groß', 'breit', 'hässlich', 'kaputt', 'teuer', 'winzig', 'schlicht', 'matt', 'hübsch', 'praktisch', 'verspielt', 'niedlich', 'glänzend', 'sauber']",3,1.241716300137341,None,,,,,,,,,,,,,,,,,,,,,,,,,,,,,,,,,,,,,,,,,,,,,,,,,,,,,,,,,,,,,,,,,2,2023-11-28_11h45.22.502,watkins1,2023.2.3,99.71948928568385,28,2023-11-28 11h45.28.582865 +0000,
,,,,,,,22,0,22,0,,,,,,,,,,,,,,,,,210.86237480002455,,,,,,,,,,,,210.85331470007077,211.3448169999756,,,3,2.0603528001811355,,,,,,,,,,,,,,,,,,,,,211.34482730017044,217.3547561999876,Lampe,durchsichtig,"['Lampe', 'durchsichtig']",test_sub,2,"['Uhr', 'Buch', 'Löffel', 'Tasche', 'Kette', 'Brille', 'Schere', 'Vase', 'Geige', 'Stift', 'Würfel', 'Hammer', 'Kerze', 'Fahrrad', 'Eimer', 'Bürste', 'Blume', 'Socke', 'Kamera', 'Flasche', 'Jacke', 'Kiste', 'Lampe', 'Trommel', 'Tasse', 'Telefon', 'Ring', 'Schlüssel', 'Rucksack', 'Hut']","['glatt', 'flauschig', 'gestreift', 'kurz', 'kratzig', 'gepunktet', 'gut', 'dick', 'groß', 'breit', 'hässlich', 'kaputt', 'teuer', 'winzig', 'schlicht', 'matt', 'hübsch', 'praktisch', 'verspielt', 'niedlich', 'glänzend', 'sauber', 'durchsichtig']",3,2.0603528001811355,None,,,,,,,,,,,,,,,,,,,,,,,,,,,,,,,,,,,,,,,,,,,,,,,,,,,,,,,,,,,,,,,,,2,2023-11-28_11h45.22.502,watkins1,2023.2.3,99.71948928568385,28,2023-11-28 11h45.28.582865 +0000,
,,,,,,,23,0,23,0,,,,,,,,,,,,,,,,,217.36432499997318,,,,,,,,,,,,217.35527590010315,217.8464009000454,,,2,2.1189336001407355,,,,,,,,,,,,,,,,,,,,,217.84641120000742,223.85684800008312,Trommel,lustig,"['Trommel', 'lustig']",restudy,2,"['Uhr', 'Buch', 'Löffel', 'Tasche', 'Kette', 'Brille', 'Schere', 'Vase', 'Geige', 'Stift', 'Würfel', 'Hammer', 'Kerze', 'Fahrrad', 'Eimer', 'Bürste', 'Blume', 'Socke', 'Kamera', 'Flasche', 'Jacke', 'Kiste', 'Lampe', 'Trommel', 'Tasse', 'Telefon', 'Ring', 'Schlüssel', 'Rucksack', 'Hut']","['glatt', 'flauschig', 'gestreift', 'kurz', 'kratzig', 'gepunktet', 'gut', 'dick', 'groß', 'breit', 'hässlich', 'kaputt', 'teuer', 'winzig', 'schlicht', 'matt', 'hübsch', 'praktisch', 'verspielt', 'niedlich', 'glänzend', 'sauber', 'durchsichtig', 'lustig']",2,2.1189336001407355,None,,,,,,,,,,,,,,,,,,,,,,,,,,,,,,,,,,,,,,,,,,,,,,,,,,,,,,,,,,,,,,,,,2,2023-11-28_11h45.22.502,watkins1,2023.2.3,99.71948928568385,28,2023-11-28 11h45.28.582865 +0000,
,,,,,,,24,0,24,0,,,,,,,,,,,,,,,,,223.86630700016394,,,,,,,,,,,,223.85737670003437,224.34842200018466,,,3,0.8808691999875009,,,,,,,,,,,,,,,,,,,,,224.34843300003558,230.35284589999355,Tasse,schwer,"['Tasse', 'schwer']",restudy,2,"['Uhr', 'Buch', 'Löffel', 'Tasche', 'Kette', 'Brille', 'Schere', 'Vase', 'Geige', 'Stift', 'Würfel', 'Hammer', 'Kerze', 'Fahrrad', 'Eimer', 'Bürste', 'Blume', 'Socke', 'Kamera', 'Flasche', 'Jacke', 'Kiste', 'Lampe', 'Trommel', 'Tasse', 'Telefon', 'Ring', 'Schlüssel', 'Rucksack', 'Hut']","['glatt', 'flauschig', 'gestreift', 'kurz', 'kratzig', 'gepunktet', 'gut', 'dick', 'groß', 'breit', 'hässlich', 'kaputt', 'teuer', 'winzig', 'schlicht', 'matt', 'hübsch', 'praktisch', 'verspielt', 'niedlich', 'glänzend', 'sauber', 'durchsichtig', 'lustig', 'schwer']",3,0.8808691999875009,None,,,,,,,,,,,,,,,,,,,,,,,,,,,,,,,,,,,,,,,,,,,,,,,,,,,,,,,,,,,,,,,,,2,2023-11-28_11h45.22.502,watkins1,2023.2.3,99.71948928568385,28,2023-11-28 11h45.28.582865 +0000,
,,,,,,,25,0,25,0,,,,,,,,,,,,,,,,,230.36231340002269,,,,,,,,,,,,230.3533912000712,230.84440680011176,,,2,2.4968353000003844,,,,,,,,,,,,,,,,,,,,,230.84441700018942,236.8468232001178,Telefon,elegant,"['Telefon', 'elegant']",test_sub,2,"['Uhr', 'Buch', 'Löffel', 'Tasche', 'Kette', 'Brille', 'Schere', 'Vase', 'Geige', 'Stift', 'Würfel', 'Hammer', 'Kerze', 'Fahrrad', 'Eimer', 'Bürste', 'Blume', 'Socke', 'Kamera', 'Flasche', 'Jacke', 'Kiste', 'Lampe', 'Trommel', 'Tasse', 'Telefon', 'Ring', 'Schlüssel', 'Rucksack', 'Hut']","['glatt', 'flauschig', 'gestreift', 'kurz', 'kratzig', 'gepunktet', 'gut', 'dick', 'groß', 'breit', 'hässlich', 'kaputt', 'teuer', 'winzig', 'schlicht', 'matt', 'hübsch', 'praktisch', 'verspielt', 'niedlich', 'glänzend', 'sauber', 'durchsichtig', 'lustig', 'schwer', 'elegant']",2,2.4968353000003844,None,,,,,,,,,,,,,,,,,,,,,,,,,,,,,,,,,,,,,,,,,,,,,,,,,,,,,,,,,,,,,,,,,2,2023-11-28_11h45.22.502,watkins1,2023.2.3,99.71948928568385,28,2023-11-28 11h45.28.582865 +0000,
,,,,,,,26,0,26,0,,,,,,,,,,,,,,,,,236.85629320004955,,,,,,,,,,,,236.84734020009637,237.33829250000417,,,3,1.2747402999084443,,,,,,,,,,,,,,,,,,,,,237.33830270008184,243.3432225000579,Ring,bunt,"['Ring', 'bunt']",test_sub,2,"['Uhr', 'Buch', 'Löffel', 'Tasche', 'Kette', 'Brille', 'Schere', 'Vase', 'Geige', 'Stift', 'Würfel', 'Hammer', 'Kerze', 'Fahrrad', 'Eimer', 'Bürste', 'Blume', 'Socke', 'Kamera', 'Flasche', 'Jacke', 'Kiste', 'Lampe', 'Trommel', 'Tasse', 'Telefon', 'Ring', 'Schlüssel', 'Rucksack', 'Hut']","['glatt', 'flauschig', 'gestreift', 'kurz', 'kratzig', 'gepunktet', 'gut', 'dick', 'groß', 'breit', 'hässlich', 'kaputt', 'teuer', 'winzig', 'schlicht', 'matt', 'hübsch', 'praktisch', 'verspielt', 'niedlich', 'glänzend', 'sauber', 'durchsichtig', 'lustig', 'schwer', 'elegant', 'bunt']",3,1.2747402999084443,None,,,,,,,,,,,,,,,,,,,,,,,,,,,,,,,,,,,,,,,,,,,,,,,,,,,,,,,,,,,,,,,,,2,2023-11-28_11h45.22.502,watkins1,2023.2.3,99.71948928568385,28,2023-11-28 11h45.28.582865 +0000,
,,,,,,,27,0,27,0,,,,,,,,,,,,,,,,,243.35264020017348,,,,,,,,,,,,243.34375900006853,243.83498990000226,,,3,1.1864497000351548,,,,,,,,,,,,,,,,,,,,,243.8350003999658,249.84306540014222,Schlüssel,robust,"['Schlüssel', 'robust']",restudy,2,"['Uhr', 'Buch', 'Löffel', 'Tasche', 'Kette', 'Brille', 'Schere', 'Vase', 'Geige', 'Stift', 'Würfel', 'Hammer', 'Kerze', 'Fahrrad', 'Eimer', 'Bürste', 'Blume', 'Socke', 'Kamera', 'Flasche', 'Jacke', 'Kiste', 'Lampe', 'Trommel', 'Tasse', 'Telefon', 'Ring', 'Schlüssel', 'Rucksack', 'Hut']","['glatt', 'flauschig', 'gestreift', 'kurz', 'kratzig', 'gepunktet', 'gut', 'dick', 'groß', 'breit', 'hässlich', 'kaputt', 'teuer', 'winzig', 'schlicht', 'matt', 'hübsch', 'praktisch', 'verspielt', 'niedlich', 'glänzend', 'sauber', 'durchsichtig', 'lustig', 'schwer', 'elegant', 'bunt', 'robust']",3,1.1864497000351548,None,,,,,,,,,,,,,,,,,,,,,,,,,,,,,,,,,,,,,,,,,,,,,,,,,,,,,,,,,,,,,,,,,2,2023-11-28_11h45.22.502,watkins1,2023.2.3,99.71948928568385,28,2023-11-28 11h45.28.582865 +0000,
,,,,,,,28,0,28,0,,,,,,,,,,,,,,,,,249.85251990007237,,,,,,,,,,,,249.84357749996707,250.33444180013612,,,3,1.2223155000247061,,,,,,,,,,,,,,,,,,,,,250.3344519000966,256.33778519998305,Rucksack,neu,"['Rucksack', 'neu']",restudy,2,"['Uhr', 'Buch', 'Löffel', 'Tasche', 'Kette', 'Brille', 'Schere', 'Vase', 'Geige', 'Stift', 'Würfel', 'Hammer', 'Kerze', 'Fahrrad', 'Eimer', 'Bürste', 'Blume', 'Socke', 'Kamera', 'Flasche', 'Jacke', 'Kiste', 'Lampe', 'Trommel', 'Tasse', 'Telefon', 'Ring', 'Schlüssel', 'Rucksack', 'Hut']","['glatt', 'flauschig', 'gestreift', 'kurz', 'kratzig', 'gepunktet', 'gut', 'dick', 'groß', 'breit', 'hässlich', 'kaputt', 'teuer', 'winzig', 'schlicht', 'matt', 'hübsch', 'praktisch', 'verspielt', 'niedlich', 'glänzend', 'sauber', 'durchsichtig', 'lustig', 'schwer', 'elegant', 'bunt', 'robust', 'neu']",3,1.2223155000247061,None,,,,,,,,,,,,,,,,,,,,,,,,,,,,,,,,,,,,,,,,,,,,,,,,,,,,,,,,,,,,,,,,,2,2023-11-28_11h45.22.502,watkins1,2023.2.3,99.71948928568385,28,2023-11-28 11h45.28.582865 +0000,
,,,,,,,29,0,29,0,,,,,,,,,,,,,,,,,256.34721889998764,,,,,,,,,,,,256.33831660007127,256.829420800088,,,2,2.5678539001382887,,,,,,,,,,,,,,,,,,,,,256.82943180017173,262.83809390012175,Hut,rustikal,"['Hut', 'rustikal']",restudy,2,"['Uhr', 'Buch', 'Löffel', 'Tasche', 'Kette', 'Brille', 'Schere', 'Vase', 'Geige', 'Stift', 'Würfel', 'Hammer', 'Kerze', 'Fahrrad', 'Eimer', 'Bürste', 'Blume', 'Socke', 'Kamera', 'Flasche', 'Jacke', 'Kiste', 'Lampe', 'Trommel', 'Tasse', 'Telefon', 'Ring', 'Schlüssel', 'Rucksack', 'Hut']","['glatt', 'flauschig', 'gestreift', 'kurz', 'kratzig', 'gepunktet', 'gut', 'dick', 'groß', 'breit', 'hässlich', 'kaputt', 'teuer', 'winzig', 'schlicht', 'matt', 'hübsch', 'praktisch', 'verspielt', 'niedlich', 'glänzend', 'sauber', 'durchsichtig', 'lustig', 'schwer', 'elegant', 'bunt', 'robust', 'neu', 'rustikal']",2,2.5678539001382887,None,,,,,,,,,,,,,,,,,,,,,,,,,,,,,,,,,,,,,,,,,,,,,,,,,,,,,,,,,,,,,,,,,2,2023-11-28_11h45.22.502,watkins1,2023.2.3,99.71948928568385,28,2023-11-28 11h45.28.582865 +0000,
,,,,,,,,,,,0,0,0,0,,,,,,,,,,,,,262.8476664000191,,,,,,,,,,,,262.8389442001935,263.32968500000425,,,[],[],,,,,,,,,,,,4.469792500138283,None,,,,,Hut,,,,,Kerze,teuer,"['Kerze', 'teuer']",test_sub,2,,,,,,262.8388690999709,262.8389171001036,"['Kerze', 'Kamera', 'Trommel', 'Vase', 'Tasche', 'Schere', 'Bürste', 'Telefon', 'Buch', 'Uhr', 'Schlüssel', 'Löffel', 'Lampe', 'Würfel', 'Tasse', 'Brille', 'Kiste', 'Blume', 'Flasche', 'Rucksack', 'Ring', 'Fahrrad', 'Hut', 'Geige', 'Kette', 'Socke', 'Hammer', 'Eimer', 'Jacke', 'Stift']",263.32969509996474,263.3325229000766,None,263.3327006001491,263.33522969996557,None,263.3353882001247,263.3379822000861,None,263.3381386999972,263.3392919001635,263.3393043000251,0,269.34551520016976,,,,,,,,,,,,,,,,,,,,,,,,,,,,,,,,,,,,,,,,,,,,,,,,2,2023-11-28_11h45.22.502,watkins1,2023.2.3,99.71948928568385,28,2023-11-28 11h45.28.582865 +0000,
,,,,,,,,,,,1,0,1,0,,,,,,,,,,,,,269.35533130005933,,,,,,,,,,,,269.34579690010287,269.83743000007235,,,[],[],,,,,,,,,,,,None,None,,,,,,,,,,Kamera,verspielt,"['Kamera', 'verspielt']",restudy,2,,,,,,269.3457312001847,269.34576820000075,"['Kerze', 'Kamera', 'Trommel', 'Vase', 'Tasche', 'Schere', 'Bürste', 'Telefon', 'Buch', 'Uhr', 'Schlüssel', 'Löffel', 'Lampe', 'Würfel', 'Tasse', 'Brille', 'Kiste', 'Blume', 'Flasche', 'Rucksack', 'Ring', 'Fahrrad', 'Hut', 'Geige', 'Kette', 'Socke', 'Hammer', 'Eimer', 'Jacke', 'Stift']",269.83744060015306,269.84013310004957,None,269.8402546001598,275.84643779997714,3,275.8468108000234,275.84957590000704,None,275.84968820004724,275.8508637000341,275.8508751001209,,275.85242220014334,3.4685271999333054,None,,,,,,,,,,,,,,,,,,,,,,,,,,,,,,,,,,,,,,,,,,,,,,2,2023-11-28_11h45.22.502,watkins1,2023.2.3,99.71948928568385,28,2023-11-28 11h45.28.582865 +0000,
,,,,,,,,,,,2,0,2,0,,,,,,,,,,,,,275.8560052001849,,,,,,,,,,,,275.852705999976,276.3482692001853,,,[],[],,,,,,,,,,,,None,None,,,,,,,,,,Trommel,lustig,"['Trommel', 'lustig']",restudy,2,,,,,,275.8526406001765,275.8526795001235,"['Kerze', 'Kamera', 'Trommel', 'Vase', 'Tasche', 'Schere', 'Bürste', 'Telefon', 'Buch', 'Uhr', 'Schlüssel', 'Löffel', 'Lampe', 'Würfel', 'Tasse', 'Brille', 'Kiste', 'Blume', 'Flasche', 'Rucksack', 'Ring', 'Fahrrad', 'Hut', 'Geige', 'Kette', 'Socke', 'Hammer', 'Eimer', 'Jacke', 'Stift']",276.3482799001504,276.3510624000337,None,276.3511851001531,282.3524446999654,2,282.352742300136,282.35545030003414,None,282.3555619001854,282.35676180012524,282.35677359998226,,282.3579679999966,2.974283899879083,None,,,,,,,,,,,,,,,,,,,,,,,,,,,,,,,,,,,,,,,,,,,,,,2,2023-11-28_11h45.22.502,watkins1,2023.2.3,99.71948928568385,28,2023-11-28 11h45.28.582865 +0000,
,,,,,,,,,,,3,0,3,0,,,,,,,,,,,,,282.36190910008736,,,,,,,,,,,,282.3582554999739,282.85433000000194,,,[],[],,,,,,,,,,,,None,None,,,,,,,,,,Vase,dick,"['Vase', 'dick']",restudy,2,,,,,,282.35818940005265,282.35822820011526,"['Kerze', 'Kamera', 'Trommel', 'Vase', 'Tasche', 'Schere', 'Bürste', 'Telefon', 'Buch', 'Uhr', 'Schlüssel', 'Löffel', 'Lampe', 'Würfel', 'Tasse', 'Brille', 'Kiste', 'Blume', 'Flasche', 'Rucksack', 'Ring', 'Fahrrad', 'Hut', 'Geige', 'Kette', 'Socke', 'Hammer', 'Eimer', 'Jacke', 'Stift']",282.8543412000872,282.8569474001415,None,282.8570726001635,288.8611012001056,3,288.86140180006623,288.86388220009394,None,288.8639936000109,288.8650209000334,288.86503250012174,,288.8660786000546,1.220691700000316,None,,,,,,,,,,,,,,,,,,,,,,,,,,,,,,,,,,,,,,,,,,,,,,2,2023-11-28_11h45.22.502,watkins1,2023.2.3,99.71948928568385,28,2023-11-28 11h45.28.582865 +0000,
,,,,,,,,,,,4,0,4,0,,,,,,,,,,,,,288.8705826001242,,,,,,,,,,,,288.8663618999999,289.3626425000839,,,[],[],,,,,,,,,,,,4.356148400111124,None,,,,,,,,,,Tasche,kurz,"['Tasche', 'kurz']",test_sub,2,,,,,,288.8662942000665,288.8663347000256,"['Kerze', 'Kamera', 'Trommel', 'Vase', 'Tasche', 'Schere', 'Bürste', 'Telefon', 'Buch', 'Uhr', 'Schlüssel', 'Löffel', 'Lampe', 'Würfel', 'Tasse', 'Brille', 'Kiste', 'Blume', 'Flasche', 'Rucksack', 'Ring', 'Fahrrad', 'Hut', 'Geige', 'Kette', 'Socke', 'Hammer', 'Eimer', 'Jacke', 'Stift']",289.362653600052,289.36534630018286,None,289.3654699001927,289.3669001001399,None,289.3670113000553,289.3684318000451,None,289.3685391000472,289.36970530007966,289.3697177001741,0,295.37283100001514,,,,,,,,,,,,,,,,,,,,,,,,,,,,,,,,,,,,,,,,,,,,,,,,2,2023-11-28_11h45.22.502,watkins1,2023.2.3,99.71948928568385,28,2023-11-28 11h45.28.582865 +0000,
,,,,,,,,,,,5,0,5,0,,,,,,,,,,,,,295.3826392001938,,,,,,,,,,,,295.3731090000365,295.86468009999953,,,[],[],,,,,,,,,,,,None,None,,,,,,,,,,Schere,gut,"['Schere', 'gut']",restudy,2,,,,,,295.3730431001168,295.3730801001657,"['Kerze', 'Kamera', 'Trommel', 'Vase', 'Tasche', 'Schere', 'Bürste', 'Telefon', 'Buch', 'Uhr', 'Schlüssel', 'Löffel', 'Lampe', 'Würfel', 'Tasse', 'Brille', 'Kiste', 'Blume', 'Flasche', 'Rucksack', 'Ring', 'Fahrrad', 'Hut', 'Geige', 'Kette', 'Socke', 'Hammer', 'Eimer', 'Jacke', 'Stift']",295.86469119996764,295.86727130017243,None,295.8673951001838,301.8742676000111,3,301.87458309996873,301.87723159999587,None,301.8773426001426,301.8785226000473,301.87853430001996,,301.8795400999952,3.9381841998547316,None,,,,,,,,,,,,,,,,,,,,,,,,,,,,,,,,,,,,,,,,,,,,,,2,2023-11-28_11h45.22.502,watkins1,2023.2.3,99.71948928568385,28,2023-11-28 11h45.28.582865 +0000,
,,,,,,,,,,,6,0,6,0,,,,,,,,,,,,,301.883732000133,,,,,,,,,,,,301.8798230001703,302.37570460001007,,,[],[],,,,,,,,,,,,2.2573796999640763,None,,,,,Jacke,,,,,Bürste,matt,"['Bürste', 'matt']",test_sub,2,,,,,,301.8797540999949,301.87979330006056,"['Kerze', 'Kamera', 'Trommel', 'Vase', 'Tasche', 'Schere', 'Bürste', 'Telefon', 'Buch', 'Uhr', 'Schlüssel', 'Löffel', 'Lampe', 'Würfel', 'Tasse', 'Brille', 'Kiste', 'Blume', 'Flasche', 'Rucksack', 'Ring', 'Fahrrad', 'Hut', 'Geige', 'Kette', 'Socke', 'Hammer', 'Eimer', 'Jacke', 'Stift']",302.3757154000923,302.3782271000091,None,302.3783478999976,302.37979930010624,None,302.3799078001175,302.3813380000647,None,302.3814460001886,302.38261970016174,302.38263240014203,0,308.3859248000663,,,,,,,,,,,,,,,,,,,,,,,,,,,,,,,,,,,,,,,,,,,,,,,,2,2023-11-28_11h45.22.502,watkins1,2023.2.3,99.71948928568385,28,2023-11-28 11h45.28.582865 +0000,
,,,,,,,,,,,7,0,7,0,,,,,,,,,,,,,308.3958317001816,,,,,,,,,,,,308.38620429998264,308.8778713999782,,,[],[],,,,,,,,,,,,4.409069899935275,None,,,,,,,,,,Telefon,elegant,"['Telefon', 'elegant']",test_sub,2,,,,,,308.38613710016944,308.3861752001103,"['Kerze', 'Kamera', 'Trommel', 'Vase', 'Tasche', 'Schere', 'Bürste', 'Telefon', 'Buch', 'Uhr', 'Schlüssel', 'Löffel', 'Lampe', 'Würfel', 'Tasse', 'Brille', 'Kiste', 'Blume', 'Flasche', 'Rucksack', 'Ring', 'Fahrrad', 'Hut', 'Geige', 'Kette', 'Socke', 'Hammer', 'Eimer', 'Jacke', 'Stift']",308.87788210017607,308.8804900001269,None,308.8806139000226,308.8830548999831,None,308.8831639001146,308.88561810017563,None,308.8857258001808,308.8869309001602,308.8869433000218,0,314.89280290016904,,,,,,,,,,,,,,,,,,,,,,,,,,,,,,,,,,,,,,,,,,,,,,,,2,2023-11-28_11h45.22.502,watkins1,2023.2.3,99.71948928568385,28,2023-11-28 11h45.28.582865 +0000,
,,,,,,,,,,,8,0,8,0,,,,,,,,,,,,,314.90260050003417,,,,,,,,,,,,314.89309340016916,315.384654100053,,,[],[],,,,,,,,,,,,4.087278600083664,None,,,,,Vase,,,,,Buch,flauschig,"['Buch', 'flauschig']",test_sub,2,,,,,,314.89302640012465,314.8930648001842,"['Kerze', 'Kamera', 'Trommel', 'Vase', 'Tasche', 'Schere', 'Bürste', 'Telefon', 'Buch', 'Uhr', 'Schlüssel', 'Löffel', 'Lampe', 'Würfel', 'Tasse', 'Brille', 'Kiste', 'Blume', 'Flasche', 'Rucksack', 'Ring', 'Fahrrad', 'Hut', 'Geige', 'Kette', 'Socke', 'Hammer', 'Eimer', 'Jacke', 'Stift']",315.38466490013525,315.38726380001754,None,315.3873878000304,315.38980680005625,None,315.38991779997014,315.39232910005376,None,315.39243650017306,315.3934963999782,315.3935088000726,0,321.39898130018264,,,,,,,,,,,,,,,,,,,,,,,,,,,,,,,,,,,,,,,,,,,,,,,,2,2023-11-28_11h45.22.502,watkins1,2023.2.3,99.71948928568385,28,2023-11-28 11h45.28.582865 +0000,
,,,,,,,,,,,9,0,9,0,,,,,,,,,,,,,321.40877189999446,,,,,,,,,,,,321.3992583001964,321.8907784000039,,,[],[],,,,,,,,,,,,None,None,,,,,,,,,,Uhr,glatt,"['Uhr', 'glatt']",restudy,2,,,,,,321.39919190015644,321.39923009998165,"['Kerze', 'Kamera', 'Trommel', 'Vase', 'Tasche', 'Schere', 'Bürste', 'Telefon', 'Buch', 'Uhr', 'Schlüssel', 'Löffel', 'Lampe', 'Würfel', 'Tasse', 'Brille', 'Kiste', 'Blume', 'Flasche', 'Rucksack', 'Ring', 'Fahrrad', 'Hut', 'Geige', 'Kette', 'Socke', 'Hammer', 'Eimer', 'Jacke', 'Stift']",321.890789499972,321.89341140002944,None,321.89353610016406,327.8943738001399,3,327.89466750016436,327.89720300002955,None,327.8973126001656,327.8987522001844,327.8987638000399,,327.90022060018964,3.536132500041276,None,,,,,,,,,,,,,,,,,,,,,,,,,,,,,,,,,,,,,,,,,,,,,,2,2023-11-28_11h45.22.502,watkins1,2023.2.3,99.71948928568385,28,2023-11-28 11h45.28.582865 +0000,
,,,,,,,,,,,10,0,10,0,,,,,,,,,,,,,327.90377650014125,,,,,,,,,,,,327.9005053001456,328.3958978999872,,,[],[],,,,,,,,,,,,None,None,,,,,,,,,,Schlüssel,robust,"['Schlüssel', 'robust']",restudy,2,,,,,,327.90043990011327,327.9004786000587,"['Kerze', 'Kamera', 'Trommel', 'Vase', 'Tasche', 'Schere', 'Bürste', 'Telefon', 'Buch', 'Uhr', 'Schlüssel', 'Löffel', 'Lampe', 'Würfel', 'Tasse', 'Brille', 'Kiste', 'Blume', 'Flasche', 'Rucksack', 'Ring', 'Fahrrad', 'Hut', 'Geige', 'Kette', 'Socke', 'Hammer', 'Eimer', 'Jacke', 'Stift']",328.39590840018354,328.3986745001748,None,328.3987976000644,334.4042501000222,3,334.40454050013795,334.40728610008955,None,334.4073964001145,334.40862480015494,334.4086365001276,,334.4098001001403,1.1104901998769492,None,,,,,,,,,,,,,,,,,,,,,,,,,,,,,,,,,,,,,,,,,,,,,,2,2023-11-28_11h45.22.502,watkins1,2023.2.3,99.71948928568385,28,2023-11-28 11h45.28.582865 +0000,
,,,,,,,,,,,11,0,11,0,,,,,,,,,,,,,334.41371290013194,,,,,,,,,,,,334.41008190019056,334.905799300177,,,[],[],,,,,,,,,,,,2.1180995998438448,None,,,,,Brille,,,,,Löffel,gestreift,"['Löffel', 'gestreift']",test_sub,2,,,,,,334.4100158000365,334.41005489998497,"['Kerze', 'Kamera', 'Trommel', 'Vase', 'Tasche', 'Schere', 'Bürste', 'Telefon', 'Buch', 'Uhr', 'Schlüssel', 'Löffel', 'Lampe', 'Würfel', 'Tasse', 'Brille', 'Kiste', 'Blume', 'Flasche', 'Rucksack', 'Ring', 'Fahrrad', 'Hut', 'Geige', 'Kette', 'Socke', 'Hammer', 'Eimer', 'Jacke', 'Stift']",334.90580980014056,334.90855609998107,None,334.9086780999787,334.9101089001633,None,334.91021800017916,334.91180710005574,None,334.91191320004873,334.91307590017095,334.9130884001497,0,340.9174103999976,,,,,,,,,,,,,,,,,,,,,,,,,,,,,,,,,,,,,,,,,,,,,,,,2,2023-11-28_11h45.22.502,watkins1,2023.2.3,99.71948928568385,28,2023-11-28 11h45.28.582865 +0000,
,,,,,,,,,,,12,0,12,0,,,,,,,,,,,,,340.92721290001646,,,,,,,,,,,,340.9176912000403,341.40927730011754,,,[],[],,,,,,,,,,,,3.2253228998742998,None,,,,,Lampe,,,,,Lampe,durchsichtig,"['Lampe', 'durchsichtig']",test_sub,2,,,,,,340.91762500000186,340.9176627001725,"['Kerze', 'Kamera', 'Trommel', 'Vase', 'Tasche', 'Schere', 'Bürste', 'Telefon', 'Buch', 'Uhr', 'Schlüssel', 'Löffel', 'Lampe', 'Würfel', 'Tasse', 'Brille', 'Kiste', 'Blume', 'Flasche', 'Rucksack', 'Ring', 'Fahrrad', 'Hut', 'Geige', 'Kette', 'Socke', 'Hammer', 'Eimer', 'Jacke', 'Stift']",341.4092875001952,341.41202310007066,None,341.4121451000683,341.4147334001027,None,341.4148415001109,341.41754800011404,None,341.41765690012835,341.41883930005133,341.4188516000286,1,347.426054000156,,,,,,,,,,,,,,,,,,,,,,,,,,,,,,,,,,,,,,,,,,,,,,,,2,2023-11-28_11h45.22.502,watkins1,2023.2.3,99.71948928568385,28,2023-11-28 11h45.28.582865 +0000,
,,,,,,,,,,,13,0,13,0,,,,,,,,,,,,,347.4357914000284,,,,,,,,,,,,347.4263347000815,347.9179230001755,,,[],[],,,,,,,,,,,,3.4158453999552876,None,,,,,Jacke,,,,,Würfel,hässlich,"['Würfel', 'hässlich']",test_sub,2,,,,,,347.42626650002785,347.4263051999733,"['Kerze', 'Kamera', 'Trommel', 'Vase', 'Tasche', 'Schere', 'Bürste', 'Telefon', 'Buch', 'Uhr', 'Schlüssel', 'Löffel', 'Lampe', 'Würfel', 'Tasse', 'Brille', 'Kiste', 'Blume', 'Flasche', 'Rucksack', 'Ring', 'Fahrrad', 'Hut', 'Geige', 'Kette', 'Socke', 'Hammer', 'Eimer', 'Jacke', 'Stift']",347.9179329001345,347.92091450002044,None,347.9210347000044,347.92369990004227,None,347.92381020006724,347.9264538001735,None,347.9265627001878,347.9277324001305,347.9277447001077,0,353.9345353001263,,,,,,,,,,,,,,,,,,,,,,,,,,,,,,,,,,,,,,,,,,,,,,,,2,2023-11-28_11h45.22.502,watkins1,2023.2.3,99.71948928568385,28,2023-11-28 11h45.28.582865 +0000,
,,,,,,,,,,,14,0,14,0,,,,,,,,,,,,,353.9443886000663,,,,,,,,,,,,353.9348202999681,354.42642919998616,,,[],[],,,,,,,,,,,,None,None,,,,,,,,,,Tasse,schwer,"['Tasse', 'schwer']",restudy,2,,,,,,353.9347511001397,353.93479100009426,"['Kerze', 'Kamera', 'Trommel', 'Vase', 'Tasche', 'Schere', 'Bürste', 'Telefon', 'Buch', 'Uhr', 'Schlüssel', 'Löffel', 'Lampe', 'Würfel', 'Tasse', 'Brille', 'Kiste', 'Blume', 'Flasche', 'Rucksack', 'Ring', 'Fahrrad', 'Hut', 'Geige', 'Kette', 'Socke', 'Hammer', 'Eimer', 'Jacke', 'Stift']",354.42643990018405,354.42916729999706,None,354.4292898999993,360.4325167001225,3,360.4328117000405,360.43550170003437,None,360.4356109001674,360.43677030014805,360.43678200012073,,360.4382643001154,2.920110700186342,None,,,,,,,,,,,,,,,,,,,,,,,,,,,,,,,,,,,,,,,,,,,,,,2,2023-11-28_11h45.22.502,watkins1,2023.2.3,99.71948928568385,28,2023-11-28 11h45.28.582865 +0000,
,,,,,,,,,,,15,0,15,0,,,,,,,,,,,,,360.4417297001928,,,,,,,,,,,,360.4385433001444,360.9338945001364,,,[],[],,,,,,,,,,,,None,None,,,,,,,,,,Brille,gepunktet,"['Brille', 'gepunktet']",restudy,2,,,,,,360.43847690010443,360.4385161001701,"['Kerze', 'Kamera', 'Trommel', 'Vase', 'Tasche', 'Schere', 'Bürste', 'Telefon', 'Buch', 'Uhr', 'Schlüssel', 'Löffel', 'Lampe', 'Würfel', 'Tasse', 'Brille', 'Kiste', 'Blume', 'Flasche', 'Rucksack', 'Ring', 'Fahrrad', 'Hut', 'Geige', 'Kette', 'Socke', 'Hammer', 'Eimer', 'Jacke', 'Stift']",360.93390700011514,360.9365751000587,None,360.9366962001659,366.9377461001277,3,366.9380380001385,366.9407758000307,None,366.94088740018196,366.942060300149,366.9420719000045,,366.94331870018505,1.4447256999555975,None,,,,,,,,,,,,,,,,,,,,,,,,,,,,,,,,,,,,,,,,,,,,,,2,2023-11-28_11h45.22.502,watkins1,2023.2.3,99.71948928568385,28,2023-11-28 11h45.28.582865 +0000,
,,,,,,,,,,,16,0,16,0,,,,,,,,,,,,,366.9473210000433,,,,,,,,,,,,366.94359680009075,367.43946110014804,,,[],[],,,,,,,,,,,,4.034924500156194,None,,,,,Vase,,,,,Kiste,sauber,"['Kiste', 'sauber']",test_sub,2,,,,,,366.94353010016493,366.94356940011494,"['Kerze', 'Kamera', 'Trommel', 'Vase', 'Tasche', 'Schere', 'Bürste', 'Telefon', 'Buch', 'Uhr', 'Schlüssel', 'Löffel', 'Lampe', 'Würfel', 'Tasse', 'Brille', 'Kiste', 'Blume', 'Flasche', 'Rucksack', 'Ring', 'Fahrrad', 'Hut', 'Geige', 'Kette', 'Socke', 'Hammer', 'Eimer', 'Jacke', 'Stift']",367.4394718001131,367.4421835001558,None,367.44230500003323,367.4437063001096,None,367.4438138001133,367.44537470000796,None,367.445485400036,367.44662190019153,367.44663450005464,0,373.4502481999807,,,,,,,,,,,,,,,,,,,,,,,,,,,,,,,,,,,,,,,,,,,,,,,,2,2023-11-28_11h45.22.502,watkins1,2023.2.3,99.71948928568385,28,2023-11-28 11h45.28.582865 +0000,
,,,,,,,,,,,17,0,17,0,,,,,,,,,,,,,373.46004640008323,,,,,,,,,,,,373.4505318000447,373.94213990005665,,,[],[],,,,,,,,,,,,None,None,,,,,,,,,,Blume,hübsch,"['Blume', 'hübsch']",test_sub,2,,,,,,373.4504656000063,373.45050320005976,"['Kerze', 'Kamera', 'Trommel', 'Vase', 'Tasche', 'Schere', 'Bürste', 'Telefon', 'Buch', 'Uhr', 'Schlüssel', 'Löffel', 'Lampe', 'Würfel', 'Tasse', 'Brille', 'Kiste', 'Blume', 'Flasche', 'Rucksack', 'Ring', 'Fahrrad', 'Hut', 'Geige', 'Kette', 'Socke', 'Hammer', 'Eimer', 'Jacke', 'Stift']",373.94215050013736,373.9448238001205,None,373.94494710001163,373.94745570002124,None,373.947564400034,373.95010690018535,None,373.95021400018595,373.9517530000303,373.95176550000906,0,379.95891100005247,,,,,,,,,,,,,,,,,,,,,,,,,,,,,,,,,,,,,,,,,,,,,,,,2,2023-11-28_11h45.22.502,watkins1,2023.2.3,99.71948928568385,28,2023-11-28 11h45.28.582865 +0000,
,,,,,,,,,,,18,0,18,0,,,,,,,,,,,,,379.9687165999785,,,,,,,,,,,,379.959190600086,380.4507442000322,,,[],[],,,,,,,,,,,,None,None,,,,,,,,,,Flasche,niedlich,"['Flasche', 'niedlich']",test_sub,2,,,,,,379.95912430016324,379.959161600098,"['Kerze', 'Kamera', 'Trommel', 'Vase', 'Tasche', 'Schere', 'Bürste', 'Telefon', 'Buch', 'Uhr', 'Schlüssel', 'Löffel', 'Lampe', 'Würfel', 'Tasse', 'Brille', 'Kiste', 'Blume', 'Flasche', 'Rucksack', 'Ring', 'Fahrrad', 'Hut', 'Geige', 'Kette', 'Socke', 'Hammer', 'Eimer', 'Jacke', 'Stift']",380.45075550000183,380.45348480017856,None,380.453604800161,380.45614970009774,None,380.45625930000097,380.4587942000944,None,380.45890050008893,380.46009399998,380.4601068000775,0,386.46553220017813,,,,,,,,,,,,,,,,,,,,,,,,,,,,,,,,,,,,,,,,,,,,,,,,2,2023-11-28_11h45.22.502,watkins1,2023.2.3,99.71948928568385,28,2023-11-28 11h45.28.582865 +0000,
,,,,,,,,,,,19,0,19,0,,,,,,,,,,,,,386.4754331000149,,,,,,,,,,,,386.46581720001996,386.9575663001742,,,[],[],,,,,,,,,,,,None,None,,,,,,,,,,Rucksack,neu,"['Rucksack', 'neu']",restudy,2,,,,,,386.46574939996935,386.4657876000274,"['Kerze', 'Kamera', 'Trommel', 'Vase', 'Tasche', 'Schere', 'Bürste', 'Telefon', 'Buch', 'Uhr', 'Schlüssel', 'Löffel', 'Lampe', 'Würfel', 'Tasse', 'Brille', 'Kiste', 'Blume', 'Flasche', 'Rucksack', 'Ring', 'Fahrrad', 'Hut', 'Geige', 'Kette', 'Socke', 'Hammer', 'Eimer', 'Jacke', 'Stift']",386.95757680013776,386.96037179999985,None,386.9604903999716,392.9665787999984,3,392.9668719000183,392.96948990016244,None,392.9696000001859,392.970808400074,392.97082020016387,,392.971835100092,2.508965899934992,None,,,,,,,,,,,,,,,,,,,,,,,,,,,,,,,,,,,,,,,,,,,,,,2,2023-11-28_11h45.22.502,watkins1,2023.2.3,99.71948928568385,28,2023-11-28 11h45.28.582865 +0000,
,,,,,,,,,,,20,0,20,0,,,,,,,,,,,,,392.9759837000165,,,,,,,,,,,,392.9721205001697,393.468198900111,,,[],[],,,,,,,,,,,,3.662620200077072,None,,,,,Hose,,,,,Ring,bunt,"['Ring', 'bunt']",test_sub,2,,,,,,392.9720507999882,392.9720904000569,"['Kerze', 'Kamera', 'Trommel', 'Vase', 'Tasche', 'Schere', 'Bürste', 'Telefon', 'Buch', 'Uhr', 'Schlüssel', 'Löffel', 'Lampe', 'Würfel', 'Tasse', 'Brille', 'Kiste', 'Blume', 'Flasche', 'Rucksack', 'Ring', 'Fahrrad', 'Hut', 'Geige', 'Kette', 'Socke', 'Hammer', 'Eimer', 'Jacke', 'Stift']",393.4682100000791,393.47063310001977,None,393.47075730003417,393.47206649999134,None,393.47217550012283,393.473474400118,None,393.47358180000447,393.4747830000706,393.4747960001696,0,399.4772073000204,,,,,,,,,,,,,,,,,,,,,,,,,,,,,,,,,,,,,,,,,,,,,,,,2,2023-11-28_11h45.22.502,watkins1,2023.2.3,99.71948928568385,28,2023-11-28 11h45.28.582865 +0000,
,,,,,,,,,,,21,0,21,0,,,,,,,,,,,,,399.4870053001214,,,,,,,,,,,,399.4774875000585,399.9695342001505,,,[],[],,,,,,,,,,,,None,None,,,,,,,,,,Fahrrad,winzig,"['Fahrrad', 'winzig']",test_sub,2,,,,,,399.47742060013115,399.477457200177,"['Kerze', 'Kamera', 'Trommel', 'Vase', 'Tasche', 'Schere', 'Bürste', 'Telefon', 'Buch', 'Uhr', 'Schlüssel', 'Löffel', 'Lampe', 'Würfel', 'Tasse', 'Brille', 'Kiste', 'Blume', 'Flasche', 'Rucksack', 'Ring', 'Fahrrad', 'Hut', 'Geige', 'Kette', 'Socke', 'Hammer', 'Eimer', 'Jacke', 'Stift']",399.9695441001095,399.97209440008737,None,399.97221320006065,399.9747217001859,None,399.97482840018347,399.97721420018934,None,399.9773198000621,399.9784856000915,399.97849770006724,0,405.9859230001457,,,,,,,,,,,,,,,,,,,,,,,,,,,,,,,,,,,,,,,,,,,,,,,,2,2023-11-28_11h45.22.502,watkins1,2023.2.3,99.71948928568385,28,2023-11-28 11h45.28.582865 +0000,
,,,,,,,,,,,22,0,22,0,,,,,,,,,,,,,405.9957202000078,,,,,,,,,,,,405.98620539996773,406.477781600086,,,[],[],,,,,,,,,,,,None,None,,,,,,,,,,Hut,rustikal,"['Hut', 'rustikal']",restudy,2,,,,,,405.9861379000358,405.98617610009387,"['Kerze', 'Kamera', 'Trommel', 'Vase', 'Tasche', 'Schere', 'Bürste', 'Telefon', 'Buch', 'Uhr', 'Schlüssel', 'Löffel', 'Lampe', 'Würfel', 'Tasse', 'Brille', 'Kiste', 'Blume', 'Flasche', 'Rucksack', 'Ring', 'Fahrrad', 'Hut', 'Geige', 'Kette', 'Socke', 'Hammer', 'Eimer', 'Jacke', 'Stift']",406.4777925000526,406.48031880008057,None,406.4804401001893,412.48333399998955,2,412.48362200008705,412.4861672001425,None,412.4862832000945,412.48729520011693,412.48730679997243,,412.4885170001071,2.213050999911502,None,,,,,,,,,,,,,,,,,,,,,,,,,,,,,,,,,,,,,,,,,,,,,,2,2023-11-28_11h45.22.502,watkins1,2023.2.3,99.71948928568385,28,2023-11-28 11h45.28.582865 +0000,
,,,,,,,,,,,23,0,23,0,,,,,,,,,,,,,412.492987500038,,,,,,,,,,,,412.48879830003716,412.98521320009604,,,[],[],,,,,,,,,,,,3.2113016999792308,None,,,,,Trommel ,,,,,Geige,groß,"['Geige', 'groß']",test_sub,2,,,,,,412.4887322001159,412.48877100017853,"['Kerze', 'Kamera', 'Trommel', 'Vase', 'Tasche', 'Schere', 'Bürste', 'Telefon', 'Buch', 'Uhr', 'Schlüssel', 'Löffel', 'Lampe', 'Würfel', 'Tasse', 'Brille', 'Kiste', 'Blume', 'Flasche', 'Rucksack', 'Ring', 'Fahrrad', 'Hut', 'Geige', 'Kette', 'Socke', 'Hammer', 'Eimer', 'Jacke', 'Stift']",412.9852239000611,412.98789380001836,None,412.9880148000084,412.98941739997827,None,412.98952480009757,412.99110440001823,None,412.9912101000082,412.9923474001698,412.992360400036,0,418.9954622001387,,,,,,,,,,,,,,,,,,,,,,,,,,,,,,,,,,,,,,,,,,,,,,,,2,2023-11-28_11h45.22.502,watkins1,2023.2.3,99.71948928568385,28,2023-11-28 11h45.28.582865 +0000,
,,,,,,,,,,,24,0,24,0,,,,,,,,,,,,,419.0052638000343,,,,,,,,,,,,418.9957401000429,419.4873244999908,,,[],[],,,,,,,,,,,,None,None,,,,,,,,,,Kette,kratzig,"['Kette', 'kratzig']",restudy,2,,,,,,418.99567400012165,418.9957112001721,"['Kerze', 'Kamera', 'Trommel', 'Vase', 'Tasche', 'Schere', 'Bürste', 'Telefon', 'Buch', 'Uhr', 'Schlüssel', 'Löffel', 'Lampe', 'Würfel', 'Tasse', 'Brille', 'Kiste', 'Blume', 'Flasche', 'Rucksack', 'Ring', 'Fahrrad', 'Hut', 'Geige', 'Kette', 'Socke', 'Hammer', 'Eimer', 'Jacke', 'Stift']",419.4873357000761,419.48985340003856,None,419.4899741001427,425.4946636999957,2,425.49495370010845,425.49774250015616,None,425.49785220017657,425.49899680004455,425.4990085000172,,425.5005032001063,4.28339340002276,None,,,,,,,,,,,,,,,,,,,,,,,,,,,,,,,,,,,,,,,,,,,,,,2,2023-11-28_11h45.22.502,watkins1,2023.2.3,99.71948928568385,28,2023-11-28 11h45.28.582865 +0000,
,,,,,,,,,,,25,0,25,0,,,,,,,,,,,,,425.50423680013046,,,,,,,,,,,,425.5007879000623,425.9963458001148,,,[],[],,,,,,,,,,,,2.8401962001807988,None,,,,,Keine Ahnung,,,,,Socke,praktisch,"['Socke', 'praktisch']",test_sub,2,,,,,,425.5007221000269,425.5007605999708,"['Kerze', 'Kamera', 'Trommel', 'Vase', 'Tasche', 'Schere', 'Bürste', 'Telefon', 'Buch', 'Uhr', 'Schlüssel', 'Löffel', 'Lampe', 'Würfel', 'Tasse', 'Brille', 'Kiste', 'Blume', 'Flasche', 'Rucksack', 'Ring', 'Fahrrad', 'Hut', 'Geige', 'Kette', 'Socke', 'Hammer', 'Eimer', 'Jacke', 'Stift']",425.99635570007376,425.99898639996536,None,425.9991059000604,426.00051380018704,None,426.00062140007503,426.00203060009517,None,426.0021385999862,426.00329040014185,426.00330300000496,0,432.0067875001114,,,,,,,,,,,,,,,,,,,,,,,,,,,,,,,,,,,,,,,,,,,,,,,,2,2023-11-28_11h45.22.502,watkins1,2023.2.3,99.71948928568385,28,2023-11-28 11h45.28.582865 +0000,
,,,,,,,,,,,26,0,26,0,,,,,,,,,,,,,432.01659919996746,,,,,,,,,,,,432.0070697001647,432.4986611001659,,,[],[],,,,,,,,,,,,None,None,,,,,,,,,,Hammer,kaputt,"['Hammer', 'kaputt']",restudy,2,,,,,,432.0070015999954,432.0070405001752,"['Kerze', 'Kamera', 'Trommel', 'Vase', 'Tasche', 'Schere', 'Bürste', 'Telefon', 'Buch', 'Uhr', 'Schlüssel', 'Löffel', 'Lampe', 'Würfel', 'Tasse', 'Brille', 'Kiste', 'Blume', 'Flasche', 'Rucksack', 'Ring', 'Fahrrad', 'Hut', 'Geige', 'Kette', 'Socke', 'Hammer', 'Eimer', 'Jacke', 'Stift']",432.49867160012946,432.5014486000873,None,432.5015732999891,438.50464679999277,3,438.504938500002,438.50762120005675,None,438.5077327999752,438.5089072000701,438.5089188001584,,438.5103910001926,4.343629200011492,None,,,,,,,,,,,,,,,,,,,,,,,,,,,,,,,,,,,,,,,,,,,,,,2,2023-11-28_11h45.22.502,watkins1,2023.2.3,99.71948928568385,28,2023-11-28 11h45.28.582865 +0000,
,,,,,,,,,,,27,0,27,0,,,,,,,,,,,,,438.5142268000636,,,,,,,,,,,,438.5106740000192,439.0061914001126,,,[],[],,,,,,,,,,,,None,None,,,,,,,,,,Eimer,schlicht,"['Eimer', 'schlicht']",restudy,2,,,,,,438.510609399993,438.51064720004797,"['Kerze', 'Kamera', 'Trommel', 'Vase', 'Tasche', 'Schere', 'Bürste', 'Telefon', 'Buch', 'Uhr', 'Schlüssel', 'Löffel', 'Lampe', 'Würfel', 'Tasse', 'Brille', 'Kiste', 'Blume', 'Flasche', 'Rucksack', 'Ring', 'Fahrrad', 'Hut', 'Geige', 'Kette', 'Socke', 'Hammer', 'Eimer', 'Jacke', 'Stift']",439.00620230007917,439.0088439001702,None,439.0089639001526,445.0121627000626,3,445.01245420007035,445.0151645001024,None,445.0152750001289,445.0164255001582,445.0164372001309,,445.01764580002055,3.6923521000426263,None,,,,,,,,,,,,,,,,,,,,,,,,,,,,,,,,,,,,,,,,,,,,,,2,2023-11-28_11h45.22.502,watkins1,2023.2.3,99.71948928568385,28,2023-11-28 11h45.28.582865 +0000,
,,,,,,,,,,,28,0,28,0,,,,,,,,,,,,,445.0216306000948,,,,,,,,,,,,445.0179284000769,445.5137071001809,,,[],[],,,,,,,,,,,,None,None,,,,,,,,,,Jacke,glänzend,"['Jacke', 'glänzend']",restudy,2,,,,,,445.0178632000461,445.01790140010417,"['Kerze', 'Kamera', 'Trommel', 'Vase', 'Tasche', 'Schere', 'Bürste', 'Telefon', 'Buch', 'Uhr', 'Schlüssel', 'Löffel', 'Lampe', 'Würfel', 'Tasse', 'Brille', 'Kiste', 'Blume', 'Flasche', 'Rucksack', 'Ring', 'Fahrrad', 'Hut', 'Geige', 'Kette', 'Socke', 'Hammer', 'Eimer', 'Jacke', 'Stift']",445.51371810003184,445.5163978000637,None,445.51651980006136,451.52642080001533,3,451.5267335001845,451.52974330005236,None,451.52987159998156,451.53111620014533,451.5311292000115,,451.5324105999898,1.608649899950251,None,,,,,,,,,,,,,,,,,,,,,,,,,,,,,,,,,,,,,,,,,,,,,,2,2023-11-28_11h45.22.502,watkins1,2023.2.3,99.71948928568385,28,2023-11-28 11h45.28.582865 +0000,
,,,,,,,,,,,29,0,29,0,,,,,,,,,,,,,451.53573850006796,,,,,,,,,,,,451.532720600022,452.0280475001782,,,[],[],,,,,,,,,,,,None,None,,,,,,,,,,Stift,breit,"['Stift', 'breit']",restudy,2,,,,,,451.53264550003223,451.53269230015576,"['Kerze', 'Kamera', 'Trommel', 'Vase', 'Tasche', 'Schere', 'Bürste', 'Telefon', 'Buch', 'Uhr', 'Schlüssel', 'Löffel', 'Lampe', 'Würfel', 'Tasse', 'Brille', 'Kiste', 'Blume', 'Flasche', 'Rucksack', 'Ring', 'Fahrrad', 'Hut', 'Geige', 'Kette', 'Socke', 'Hammer', 'Eimer', 'Jacke', 'Stift']",452.02805850002915,452.0307608000003,None,452.0308845001273,458.03179350006394,2,458.03208230016753,458.03479890013114,None,458.03491030004807,458.0360688001383,458.03608079999685,,458.0372302001342,1.7584583999123424,None,,,,,,,,,,,,,,,,,,,,,,,,,,,,,,,,,,,,,,,,,,,,,,2,2023-11-28_11h45.22.502,watkins1,2023.2.3,99.71948928568385,28,2023-11-28 11h45.28.582865 +0000,
,,,,,,,,,,,,,,,,,,,,,,,,,,,,,,,,,,,,,,,,,,,,,,,,,,,,,,,,,,,,,,,,,,,,,,,2,,,,,,,,,,,,,,,,,,,,,,,,,,,,,,,,,,,,,,,,,,,,,,,,,,,,,,,,,,,,,,,,,,,,,,2,2023-11-28_11h45.22.502,watkins1,2023.2.3,99.71948928568385,28,2023-11-28 11h45.28.582865 +0000,
(54 : 6) - 10 = 0 ,Incorrect,button_incorrect,,,,,,,,,,,,,0,0,0,5,,,,,,,,,473.513097200077,,,,,,,,,,472.4833398000337,473.48621160001494,,,,,['button_incorrect'],[3.8881335998885334],,,,,,,,,,,,,,,,,,,,,,,,,,distractorTask,2,,,,,,,,,,,,,,,,,,,,,,,,,473.50233749998733,473.513097200077,477.3951370001305,[-0.3453703703703704],[-0.4101851851851852],[1],[0],[0],[3.8881335998885334],['button_incorrect'],477.39580980013125,478.3988020999823,,,,,,,,,,,,,,,,,,,,,,,,,,,,,,,,,,2,2023-11-28_11h45.22.502,watkins1,2023.2.3,99.71948928568385,28,2023-11-28 11h45.28.582865 +0000,
(6 x 3) + 10 = 27 ,Incorrect,button_incorrect,,,,,,,,,,,,,0,1,1,8,,,,,,,,,478.40884750010446,,,,,,,,,,,,,,,,['button_incorrect'],[3.9935477001126856],,,,,,,,,,,,,,,,,,,,,,,,,,distractorTask,2,,,,,,,,,,,,,,,,,,,,,,,,,478.3989933000412,478.40884750010446,482.3960712000262,[-0.31296296296296294],[-0.3851851851851852],[1],[0],[0],[3.9935477001126856],['button_incorrect'],482.39644190017134,483.39954650006257,,,,,,,,,,,,,,,,,,,,,,,,,,,,,,,,,,2,2023-11-28_11h45.22.502,watkins1,2023.2.3,99.71948928568385,28,2023-11-28 11h45.28.582865 +0000,
(80 : 10) + 9 = 17 ,Correct,button_correct,,,,,,,,,,,,,0,2,2,3,,,,,,,,,483.4095962999854,,,,,,,,,,,,,,,,['button_correct'],"[2.4372639001812786, 2.889028200181201]",,,,,,,,,,,,,,,,,,,,,,,,,,distractorTask,2,,,,,,,,,,,,,,,,,,,,,,,,,483.39973180019297,483.4095962999854,486.2920868000947,"[0.3851851851851852, 0.3851851851851852]","[-0.425, -0.40925925925925927]","[1, 1]","[0, 0]","[0, 0]","[2.4372639001812786, 2.889028200181201]",['button_correct'],486.2924903000239,487.2958099001553,,,,,,,,,,,,,,,,,,,,,,,,,,,,,,,,,,2,2023-11-28_11h45.22.502,watkins1,2023.2.3,99.71948928568385,28,2023-11-28 11h45.28.582865 +0000,
(2 x 5) + 3 = 13 ,Correct,button_correct,,,,,,,,,,,,,0,3,3,2,,,,,,,,,487.305791700026,,,,,,,,,,,,,,,,['button_correct'],"[1.776156400097534, 2.2175450001377612]",,,,,,,,,,,,,,,,,,,,,,,,,,distractorTask,2,,,,,,,,,,,,,,,,,,,,,,,,,487.2960016001016,487.305791700026,489.51535850018263,"[0.3972222222222222, 0.3888888888888889]","[-0.42592592592592593, -0.412962962962963]","[1, 1]","[0, 0]","[0, 0]","[1.776156400097534, 2.2175450001377612]",['button_correct'],489.51575170014985,490.51924840011634,,,,,,,,,,,,,,,,,,,,,,,,,,,,,,,,,,2,2023-11-28_11h45.22.502,watkins1,2023.2.3,99.71948928568385,28,2023-11-28 11h45.28.582865 +0000,
(40 : 5) + 8 = 15 ,Incorrect,button_incorrect,,,,,,,,,,,,,0,4,4,7,,,,,,,,,490.52923720004037,,,,,,,,,,,,,,,,['button_incorrect'],[2.6096861998084933],,,,,,,,,,,,,,,,,,,,,,,,,,distractorTask,2,,,,,,,,,,,,,,,,,,,,,,,,,490.51943510002457,490.52923720004037,493.13087850017473,[-0.35833333333333334],[-0.39814814814814814],[1],[0],[0],[2.6096861998084933],['button_incorrect'],493.13125020009466,494.1347165000625,,,,,,,,,,,,,,,,,,,,,,,,,,,,,,,,,,2,2023-11-28_11h45.22.502,watkins1,2023.2.3,99.71948928568385,28,2023-11-28 11h45.28.582865 +0000,
(25 : 5) + 5 = 9 ,Incorrect,button_incorrect,,,,,,,,,,,,,0,5,5,6,,,,,,,,,494.14466230012476,,,,,,,,,,,,,,,,['button_incorrect'],[2.047034499933943],,,,,,,,,,,,,,,,,,,,,,,,,,distractorTask,2,,,,,,,,,,,,,,,,,,,,,,,,,494.13490110007115,494.14466230012476,496.18377450015396,[-0.3425925925925926],[-0.4166666666666667],[1],[0],[0],[2.047034499933943],['button_incorrect'],496.1841502999887,497.18746799998917,,,,,,,,,,,,,,,,,,,,,,,,,,,,,,,,,,2,2023-11-28_11h45.22.502,watkins1,2023.2.3,99.71948928568385,28,2023-11-28 11h45.28.582865 +0000,
(9 x 5) - 9 = 36 ,Correct,button_correct,,,,,,,,,,,,,0,6,6,4,,,,,,,,,497.1974471001886,,,,,,,,,,,,,,,,['button_correct'],[3.3423087000846863],,,,,,,,,,,,,,,,,,,,,,,,,,distractorTask,2,,,,,,,,,,,,,,,,,,,,,,,,,497.18765900004655,497.1974471001886,500.5316802000161,[0.37407407407407406],[-0.38796296296296295],[1],[0],[0],[3.3423087000846863],['button_correct'],500.53206590004265,501.5354262001347,,,,,,,,,,,,,,,,,,,,,,,,,,,,,,,,,,2,2023-11-28_11h45.22.502,watkins1,2023.2.3,99.71948928568385,28,2023-11-28 11h45.28.582865 +0000,
(28 : 7) - 3 = 1 ,Correct,button_correct,,,,,,,,,,,,,0,7,7,0,,,,,,,,,501.54535670019686,,,,,,,,,,,,,,,,['button_incorrect'],[3.6437793001532555],,,,,,,,,,,,,,,,,,,,,,,,,,distractorTask,2,,,,,,,,,,,,,,,,,,,,,,,,,501.5356284000445,501.54535670019686,505.1811236999929,[-0.325],[-0.39166666666666666],[1],[0],[0],[3.6437793001532555],['button_incorrect'],505.18150470010005,506.18480120017193,,,,,,,,,,,,,,,,,,,,,,,,,,,,,,,,,,2,2023-11-28_11h45.22.502,watkins1,2023.2.3,99.71948928568385,28,2023-11-28 11h45.28.582865 +0000,
(4 : 2) + 4 = 6 ,Correct,button_correct,,,,,,,,,,,,,0,8,8,1,,,,,,,,,506.19476940017194,,,,,,,,,,,,,,,,['button_correct'],[1.9364810001570731],,,,,,,,,,,,,,,,,,,,,,,,,,distractorTask,2,,,,,,,,,,,,,,,,,,,,,,,,,506.18499660003,506.19476940017194,508.12316610012203,[0.3537037037037037],[-0.3972222222222222],[1],[0],[0],[1.9364810001570731],['button_correct'],508.12353790015914,509.126976700034,,,,,,,,,,,,,,,,,,,,,,,,,,,,,,,,,,2,2023-11-28_11h45.22.502,watkins1,2023.2.3,99.71948928568385,28,2023-11-28 11h45.28.582865 +0000,
(7 x 6) + 9 = 48 ,Incorrect,button_incorrect,,,,,,,,,,,,,0,9,9,9,,,,,,,,,509.13695590011775,,,,,,,,,,,,,,,,['button_incorrect'],[9.377459299983457],,,,,,,,,,,,,,,,,,,,,,,,,,distractorTask,2,,,,,,,,,,,,,,,,,,,,,,,,,509.12716600019485,509.13695590011775,518.5063100000843,[-0.30185185185185187],[-0.3972222222222222],[1],[0],[0],[9.377459299983457],['button_incorrect'],518.5066831000149,519.5101505001076,,,,,,,,,,,,,,,,,,,,,,,,,,,,,,,,,,2,2023-11-28_11h45.22.502,watkins1,2023.2.3,99.71948928568385,28,2023-11-28 11h45.28.582865 +0000,
,,,,,,,,,,,,,,,,,,,,,,,,,,,,,,,,,,,,,,,,,,,,,,,,,,,,,,,,,,,,,,,,,,,,,,,2,,,,,,,,,,,,,,,,,,,,,,,,,,,,,,,,,,,,,,,,,,,,,,,,,,,,,,,,,,,,,,,,,,,,,,2,2023-11-28_11h45.22.502,watkins1,2023.2.3,99.71948928568385,28,2023-11-28 11h45.28.582865 +0000,
,,,,,,,,,,,,,,,,,,,0,0,0,0,,,,,567.8582524000667,,,,,,,,,,,,,,,,gepunktet,8.423128800000995,,,,,,,,,,,,2.6206855000928044,None,,,,,,,,,,,,,freeRecallSub,2,,,,,,,,,,,,,,,,,,,,,,,,,,,,,,,,,,,,,567.8497258999851,567.8582524000667,567.8582524000667,576.2846520000603,return,8.423128800000995,None,gepunktet,[-0.04814814814814815],[0.040740740740740744],[1],[0],[0],[1.2435468002222478],[],,,,,,,,,,,,,,,,,,,2,2023-11-28_11h45.22.502,watkins1,2023.2.3,99.71948928568385,28,2023-11-28 11h45.28.582865 +0000,
,,,,,,,,,,,,,,,,,,,1,0,1,0,,,,,576.2971181001049,,,,,,,,,,,,,,,,gestreift,3.1682247000280768,,,,,,,,,,,,1.3685106001794338,None,,,,,,,,,,,,,freeRecallSub,2,,,,,,,,,,,,,,,,,,,,,,,,,,,,,,,,,,,,,576.2864254000597,576.2971181001049,576.2971181001049,579.4724189999979,return,3.1682247000280768,None,gestreift,[],[],[],[],[],[],[],,,,,,,,,,,,,,,,,,,2,2023-11-28_11h45.22.502,watkins1,2023.2.3,99.71948928568385,28,2023-11-28 11h45.28.582865 +0000,
,,,,,,,,,,,,,,,,,,,2,0,2,0,,,,,579.4829073001165,,,,,,,,,,,,,,,,glänzend,5.990463300142437,,,,,,,,,,,,3.132854700088501,None,,,,,,,,,,,,,freeRecallSub,2,,,,,,,,,,,,,,,,,,,,,,,,,,,,,,,,,,,,,579.4736733001191,579.4829073001165,579.4829073001165,585.4786376000848,return,5.990463300142437,None,glänzend,[],[],[],[],[],[],[],,,,,,,,,,,,,,,,,,,2,2023-11-28_11h45.22.502,watkins1,2023.2.3,99.71948928568385,28,2023-11-28 11h45.28.582865 +0000,
,,,,,,,,,,,,,,,,,,,3,0,3,0,,,,,585.4895548999775,,,,,,,,,,,,,,,,schlicht,5.4557968999724835,,,,,,,,,,,,2.8419328001327813,None,,,,,,,,,,,,,freeRecallSub,2,,,,,,,,,,,,,,,,,,,,,,,,,,,,,,,,,,,,,585.4798958001193,585.4895548999775,585.4895548999775,590.9530829000287,return,5.4557968999724835,None,schlicht,[],[],[],[],[],[],[],,,,,,,,,,,,,,,,,,,2,2023-11-28_11h45.22.502,watkins1,2023.2.3,99.71948928568385,28,2023-11-28 11h45.28.582865 +0000,
,,,,,,,,,,,,,,,,,,,4,0,4,0,,,,,590.9641731001902,,,,,,,,,,,,,,,,breit,13.941223999951035,,,,,,,,,,,,12.984698199899867,None,,,,,,,,,,,,,freeRecallSub,2,,,,,,,,,,,,,,,,,,,,,,,,,,,,,,,,,,,,,590.9543308001012,590.9641731001902,590.9641731001902,604.912915199995,return,13.941223999951035,None,breit,[],[],[],[],[],[],[],,,,,,,,,,,,,,,,,,,2,2023-11-28_11h45.22.502,watkins1,2023.2.3,99.71948928568385,28,2023-11-28 11h45.28.582865 +0000,
,,,,,,,,,,,,,,,,,,,5,0,5,0,,,,,604.9244672001805,,,,,,,,,,,,,,,,hübsch,9.020840600132942,,,,,,,,,,,,6.528363899793476,None,,,,,,,,,,,,,freeRecallSub,2,,,,,,,,,,,,,,,,,,,,,,,,,,,,,,,,,,,,,604.9141929000616,604.9244672001805,604.9244672001805,613.9529858999886,return,9.020840600132942,None,hübsch,[],[],[],[],[],[],[],,,,,,,,,,,,,,,,,,,2,2023-11-28_11h45.22.502,watkins1,2023.2.3,99.71948928568385,28,2023-11-28 11h45.28.582865 +0000,
,,,,,,,,,,,,,,,,,,,6,0,6,0,,,,,613.964505400043,,,,,,,,,,,,,,,,,[],,,,,,,,,,,,None,None,,,,,,,,,,,,,freeRecallSub,2,,,,,,,,,,,,,,,,,,,,,,,,,,,,,,,,,,,,,613.9542406999972,613.964505400043,613.964505400043,627.3918347000144,None,,,,[0.34074074074074073],[-0.39444444444444443],[1],[0],[0],[13.433590400032699],"['button_continue', 'continue_text']",,,,,,,,,,,,,,,,,,,2,2023-11-28_11h45.22.502,watkins1,2023.2.3,99.71948928568385,28,2023-11-28 11h45.28.582865 +0000,
,,,,,,,,,,,,,,,,,,,,,,,,,,,,,,,,,,,,,,,,,,,,,,,,,,,,,,,,,,,,,,,,,,,,,,,2,,,,,,,,,,,,,,,,,,,,,,,,,,,,,,,,,,,,,,,,,,,,,,,,,,,,,,,,,,,,,,,,,,,,,,2,2023-11-28_11h45.22.502,watkins1,2023.2.3,99.71948928568385,28,2023-11-28 11h45.28.582865 +0000,
,,,,,,,,,,,,,,,,,,,,,,,0,0,0,0,639.8235482000746,,,,,,,,,,,,644.4462121999823,644.9448600001633,,,,4.609697999898344,,,,,,,,,,,,None,None,,,,,,,,,,Kette,,,cuedRecallAdj,2,,,,,,,,,,,,,,,,,,,,,0,,,,,,,,,,,,,,,,,,,,,,,,,,,,,,,639.815282800002,639.8235482000746,639.8235482000746,644.4430325999856,kratzig,return,4.609697999898344,None,644.4434349001385,644.4527047001757,644.4527047001757,644.4460609999951,,None,,,,,2,2023-11-28_11h45.22.502,watkins1,2023.2.3,99.71948928568385,28,2023-11-28 11h45.28.582865 +0000,
,,,,,,,,,,,,,,,,,,,,,,,1,0,1,0,644.9547543001827,,,,,,,,,,,,651.4955639000982,651.9942785999738,,,,6.534540200140327,,,,,,,,,,,,None,None,,,,,,,,,,Kerze,,,cuedRecallAdj,2,,,,,,,,,,,,,,,,,,,,,0,,,,,,,,,,,,,,,,,,,,,,,,,,,,,,,644.9451043000445,644.9547543001827,644.9547543001827,651.492576100165,hübsch,return,6.534540200140327,None,651.4928543001879,651.502133600181,651.502133600181,651.4954630001448,,None,,,,,2,2023-11-28_11h45.22.502,watkins1,2023.2.3,99.71948928568385,28,2023-11-28 11h45.28.582865 +0000,
,,,,,,,,,,,,,,,,,,,,,,,2,0,2,0,652.0042213001288,,,,,,,,,,,,658.2853189001326,658.7839357000776,,,,6.277054800186306,,,,,,,,,,,,None,None,,,,,,,,,,Trommel,,,cuedRecallAdj,2,,,,,,,,,,,,,,,,,,,,,0,,,,,,,,,,,,,,,,,,,,,,,,,,,,,,,651.994525999995,652.0042213001288,652.0042213001288,658.2822685001884,schlicht,return,6.277054800186306,None,658.2825295000803,658.2918329001404,658.2918329001404,658.2852177000605,,None,,,,,2,2023-11-28_11h45.22.502,watkins1,2023.2.3,99.71948928568385,28,2023-11-28 11h45.28.582865 +0000,
,,,,,,,,,,,,,,,,,,,,,,,3,0,3,0,658.7938775999937,,,,,,,,,,,,661.9902406001929,662.4892061999999,,,,3.1834464999847114,,,,,,,,,,,,None,None,,,,,,,,,,Stift,,,cuedRecallAdj,2,,,,,,,,,,,,,,,,,,,,,0,,,,,,,,,,,,,,,,,,,,,,,,,,,,,,,658.784181999974,658.7938775999937,658.7938775999937,661.9872968001291,breit,return,3.1834464999847114,None,661.9875588000286,661.9971161000431,661.9971161000431,661.9901358999778,,None,,,,,2,2023-11-28_11h45.22.502,watkins1,2023.2.3,99.71948928568385,28,2023-11-28 11h45.28.582865 +0000,
,,,,,,,,,,,,,,,,,,,,,,,4,0,4,0,662.4991480000317,,,,,,,,,,,,667.2834872000385,667.7810035999864,,,,4.77418790012598,,,,,,,,,,,,None,None,,,,,,,,,,Tasse,,,cuedRecallAdj,2,,,,,,,,,,,,,,,,,,,,,0,,,,,,,,,,,,,,,,,,,,,,,,,,,,,,,662.48945130012,662.4991480000317,662.4991480000317,667.2804637001827,schwer,return,4.77418790012598,None,667.2807287001051,667.2888219000306,667.2888219000306,667.2833853000775,,None,,,,,2,2023-11-28_11h45.22.502,watkins1,2023.2.3,99.71948928568385,28,2023-11-28 11h45.28.582865 +0000,
,,,,,,,,,,,,,,,,,,,,,,,5,0,5,0,667.7909099999815,,,,,,,,,,,,671.2687038001604,671.7675338999834,,,,3.4664050000719726,,,,,,,,,,,,None,None,,,,,,,,,,Blume,,,cuedRecallAdj,2,,,,,,,,,,,,,,,,,,,,,0,,,,,,,,,,,,,,,,,,,,,,,,,,,,,,,667.781249599997,667.7909099999815,667.7909099999815,671.2657228000462,hübsch,return,3.4664050000719726,None,671.2659922000021,671.2754446000326,671.2754446000326,671.2686022999696,,None,,,,,2,2023-11-28_11h45.22.502,watkins1,2023.2.3,99.71948928568385,28,2023-11-28 11h45.28.582865 +0000,
,,,,,,,,,,,,,,,,,,,,,,,6,0,6,0,671.777491300134,,,,,,,,,,,,676.3416193001904,676.8392388001084,,,,4.560095999855548,,,,,,,,,,,,None,None,,,,,,,,,,Brille,,,cuedRecallAdj,2,,,,,,,,,,,,,,,,,,,,,0,,,,,,,,,,,,,,,,,,,,,,,,,,,,,,,671.767776499968,671.777491300134,671.777491300134,676.3383392000105,gepunktet,return,4.560095999855548,None,676.3386025000364,676.3470900000539,676.3470900000539,676.3415179001167,,None,,,,,2,2023-11-28_11h45.22.502,watkins1,2023.2.3,99.71948928568385,28,2023-11-28 11h45.28.582865 +0000,
,,,,,,,,,,,,,,,,,,,,,,,7,0,7,0,676.849309500074,,,,,,,,,,,,687.2366101001389,687.7352654000279,,,,10.375909299822524,,,,,,,,,,,,None,None,,,,,,,,,,Kamera,,,cuedRecallAdj,2,,,,,,,,,,,,,,,,,,,,,0,,,,,,,,,,,,,,,,,,,,,,,,,,,,,,,676.8394917000551,676.849309500074,676.849309500074,687.2334885001183,schwer,return,10.375909299822524,None,687.2337515000254,687.2431878000498,687.2431878000498,687.236509000184,,None,,,,,2,2023-11-28_11h45.22.502,watkins1,2023.2.3,99.71948928568385,28,2023-11-28 11h45.28.582865 +0000,
,,,,,,,,,,,,,,,,,,,,,,,8,0,8,0,687.7451679001097,,,,,,,,,,,,690.7011127001606,691.1999435999896,,,,2.952112900093198,,,,,,,,,,,,None,None,,,,,,,,,,Uhr,,,cuedRecallAdj,2,,,,,,,,,,,,,,,,,,,,,0,,,,,,,,,,,,,,,,,,,,,,,,,,,,,,,687.7355041000992,687.7451679001097,687.7451679001097,690.6982723001856,glatt,return,2.952112900093198,None,690.698537700111,690.7077689999714,690.7077689999714,690.7010115000885,,None,,,,,2,2023-11-28_11h45.22.502,watkins1,2023.2.3,99.71948928568385,28,2023-11-28 11h45.28.582865 +0000,
,,,,,,,,,,,,,,,,,,,,,,,9,0,9,0,691.2099070001859,,,,,,,,,,,,700.3410245999694,700.8399084000848,,,,9.127329800045118,,,,,,,,,,,,None,None,,,,,,,,,,Vase,,,cuedRecallAdj,2,,,,,,,,,,,,,,,,,,,,,0,,,,,,,,,,,,,,,,,,,,,,,,,,,,,,,691.2001842001919,691.2099070001859,691.2099070001859,700.3382702001836,dick,return,9.127329800045118,None,700.3385517001152,700.347851500148,700.347851500148,700.3409238001332,,None,,,,,2,2023-11-28_11h45.22.502,watkins1,2023.2.3,99.71948928568385,28,2023-11-28 11h45.28.582865 +0000,
,,,,,,,,,,,,,,,,,,,,,,,10,0,10,0,700.8499044000637,,,,,,,,,,,,705.4426852001343,705.9411047999747,,,,4.583241699961945,,,,,,,,,,,,None,None,,,,,,,,,,Rucksack,,,cuedRecallAdj,2,,,,,,,,,,,,,,,,,,,,,0,,,,,,,,,,,,,,,,,,,,,,,,,,,,,,,700.8401578001212,700.8499044000637,700.8499044000637,705.4394456001464,günstig,return,4.583241699961945,None,705.4397138999775,705.448991100071,705.448991100071,705.4425840000622,,None,,,,,2,2023-11-28_11h45.22.502,watkins1,2023.2.3,99.71948928568385,28,2023-11-28 11h45.28.582865 +0000,
,,,,,,,,,,,,,,,,,,,,,,,11,0,11,0,705.9510516000446,,,,,,,,,,,,711.9089997999836,712.4078451001551,,,,5.9461499999742955,,,,,,,,,,,,None,None,,,,,,,,,,Schlüssel,,,cuedRecallAdj,2,,,,,,,,,,,,,,,,,,,,,0,,,,,,,,,,,,,,,,,,,,,,,,,,,,,,,705.941343100043,705.9510516000446,705.9510516000446,711.9060552001465,grob,return,5.9461499999742955,None,711.9063226999715,711.9157764001284,711.9157764001284,711.9088985000271,,None,,,,,2,2023-11-28_11h45.22.502,watkins1,2023.2.3,99.71948928568385,28,2023-11-28 11h45.28.582865 +0000,
,,,,,,,,,,,,,,,,,,,,,,,12,0,12,0,712.4178462000564,,,,,,,,,,,,716.4586142001208,716.9569642001297,,,,4.031300199916586,,,,,,,,,,,,None,None,,,,,,,,,,Eimer,,,cuedRecallAdj,2,,,,,,,,,,,,,,,,,,,,,0,,,,,,,,,,,,,,,,,,,,,,,,,,,,,,,712.408091600053,712.4178462000564,712.4178462000564,716.4554053000174,schlicht,return,4.031300199916586,None,716.4556886001956,716.4649373001885,716.4649373001885,716.4585066,,None,,,,,2,2023-11-28_11h45.22.502,watkins1,2023.2.3,99.71948928568385,28,2023-11-28 11h45.28.582865 +0000,
,,,,,,,,,,,,,,,,,,,,,,,13,0,13,0,716.9669238000643,,,,,,,,,,,,725.4259488000534,725.9246726999991,,,,8.450220400001854,,,,,,,,,,,,None,None,,,,,,,,,,Löffel,,,cuedRecallAdj,2,,,,,,,,,,,,,,,,,,,,,0,,,,,,,,,,,,,,,,,,,,,,,,,,,,,,,716.9572100001387,716.9669238000643,716.9669238000643,725.4229400001932,gestreift,return,8.450220400001854,None,725.4232028000988,725.4324696999975,725.4324696999975,725.425848599989,,None,,,,,2,2023-11-28_11h45.22.502,watkins1,2023.2.3,99.71948928568385,28,2023-11-28 11h45.28.582865 +0000,
,,,,,,,,,,,,,,,,,,,,,,,14,0,14,0,725.9346194001846,,,,,,,,,,,,734.7361346001271,735.2348099001683,,,,8.794589799828827,,,,,,,,,,,,None,None,,,,,,,,,,Fahrrad,,,cuedRecallAdj,2,,,,,,,,,,,,,,,,,,,,,0,,,,,,,,,,,,,,,,,,,,,,,,,,,,,,,725.9249172001146,725.9346194001846,725.9346194001846,734.7330979001708,winzig,return,8.794589799828827,None,734.7333681001328,734.7425753001589,734.7425753001589,734.7360316000413,,None,,,,,2,2023-11-28_11h45.22.502,watkins1,2023.2.3,99.71948928568385,28,2023-11-28 11h45.28.582865 +0000,
,,,,,,,,,,,,,,,,,,,,,,,15,0,15,0,735.2447488000616,,,,,,,,,,,,739.4753437000327,739.9743423999753,,,,4.220429099863395,,,,,,,,,,,,None,None,,,,,,,,,,Buch,,,cuedRecallAdj,2,,,,,,,,,,,,,,,,,,,,,0,,,,,,,,,,,,,,,,,,,,,,,,,,,,,,,735.2350573001895,735.2447488000616,735.2447488000616,739.4724667000119,schwer,return,4.220429099863395,None,739.4727285001427,739.4821325000376,739.4821325000376,739.4752428000793,,None,,,,,2,2023-11-28_11h45.22.502,watkins1,2023.2.3,99.71948928568385,28,2023-11-28 11h45.28.582865 +0000,
,,,,,,,,,,,,,,,,,,,,,,,16,0,16,0,739.9842837001197,,,,,,,,,,,,745.1499133000616,745.6479122000746,,,,5.152929899981245,,,,,,,,,,,,None,None,,,,,,,,,,Lampe,,,cuedRecallAdj,2,,,,,,,,,,,,,,,,,,,,,0,,,,,,,,,,,,,,,,,,,,,,,,,,,,,,,739.9745851000771,739.9842837001197,739.9842837001197,745.146597500192,durchsichtig,return,5.152929899981245,None,745.146863900125,745.1557166001294,745.1557166001294,745.1498092999682,,None,,,,,2,2023-11-28_11h45.22.502,watkins1,2023.2.3,99.71948928568385,28,2023-11-28 11h45.28.582865 +0000,
,,,,,,,,,,,,,,,,,,,,,,,17,0,17,0,745.6578456000425,,,,,,,,,,,,753.0926068001427,753.591480600182,,,,7.42323279986158,,,,,,,,,,,,None,None,,,,,,,,,,Telefon,,,cuedRecallAdj,2,,,,,,,,,,,,,,,,,,,,,0,,,,,,,,,,,,,,,,,,,,,,,,,,,,,,,745.6481578999665,745.6578456000425,745.6578456000425,753.0896491000894,laut,return,7.42323279986158,None,753.0899174001534,753.0993170000147,753.0993170000147,753.0925036000554,,None,,,,,2,2023-11-28_11h45.22.502,watkins1,2023.2.3,99.71948928568385,28,2023-11-28 11h45.28.582865 +0000,
,,,,,,,,,,,,,,,,,,,,,,,18,0,18,0,753.6015325000044,,,,,,,,,,,,761.9291179000866,762.4279624000192,,,,8.319631800055504,,,,,,,,,,,,None,None,,,,,,,,,,Bürste,,,cuedRecallAdj,2,,,,,,,,,,,,,,,,,,,,,0,,,,,,,,,,,,,,,,,,,,,,,,,,,,,,,753.5917224001605,753.6015325000044,753.6015325000044,761.9262540000491,bunt,return,8.319631800055504,None,761.9265187000856,761.9359121001326,761.9359121001326,761.9290153000038,,None,,,,,2,2023-11-28_11h45.22.502,watkins1,2023.2.3,99.71948928568385,28,2023-11-28 11h45.28.582865 +0000,
,,,,,,,,,,,,,,,,,,,,,,,19,0,19,0,762.4380187999923,,,,,,,,,,,,769.4921787001658,769.9911354000214,,,,7.043074100045487,,,,,,,,,,,,None,None,,,,,,,,,,Geige,,,cuedRecallAdj,2,,,,,,,,,,,,,,,,,,,,,0,,,,,,,,,,,,,,,,,,,,,,,,,,,,,,,762.4281977000646,762.4380187999923,762.4380187999923,769.4891894001048,einfach,return,7.043074100045487,None,769.4894548000302,769.4990290000569,769.4990290000569,769.4920777999796,,None,,,,,2,2023-11-28_11h45.22.502,watkins1,2023.2.3,99.71948928568385,28,2023-11-28 11h45.28.582865 +0000,
,,,,,,,,,,,,,,,,,,,,,,,20,0,20,0,770.0010818999726,,,,,,,,,,,,775.3166182001587,775.8153504000511,,,,5.312027899781242,,,,,,,,,,,,None,None,,,,,,,,,,Hammer,,,cuedRecallAdj,2,,,,,,,,,,,,,,,,,,,,,0,,,,,,,,,,,,,,,,,,,,,,,,,,,,,,,769.9913767999969,770.0010818999726,770.0010818999726,775.3136010000017,kaputt,return,5.312027899781242,None,775.3138652001508,775.3231338001788,775.3231338001788,775.3165176000912,,None,,,,,2,2023-11-28_11h45.22.502,watkins1,2023.2.3,99.71948928568385,28,2023-11-28 11h45.28.582865 +0000,
,,,,,,,,,,,,,,,,,,,,,,,21,0,21,0,775.8252958001103,,,,,,,,,,,,784.4946785999928,784.9932362001855,,,,8.663886999944225,,,,,,,,,,,,None,None,,,,,,,,,,Würfel,,,cuedRecallAdj,2,,,,,,,,,,,,,,,,,,,,,0,,,,,,,,,,,,,,,,,,,,,,,,,,,,,,,775.815595000051,775.8252958001103,775.8252958001103,784.4914583000354,hässlich,return,8.663886999944225,None,784.4917266000994,784.5009608999826,784.5009608999826,784.494577600155,,None,,,,,2,2023-11-28_11h45.22.502,watkins1,2023.2.3,99.71948928568385,28,2023-11-28 11h45.28.582865 +0000,
,,,,,,,,,,,,,,,,,,,,,,,22,0,22,0,785.0031773000956,,,,,,,,,,,,787.6473260000348,788.1461506001651,,,,2.637951800134033,,,,,,,,,,,,None,None,,,,,,,,,,Kiste,,,cuedRecallAdj,2,,,,,,,,,,,,,,,,,,,,,0,,,,,,,,,,,,,,,,,,,,,,,,,,,,,,,784.9934720001183,785.0031773000956,785.0031773000956,787.6444973000325,bunt,return,2.637951800134033,None,787.6447630000766,787.6540997000411,787.6540997000411,787.6472259000875,,None,,,,,2,2023-11-28_11h45.22.502,watkins1,2023.2.3,99.71948928568385,28,2023-11-28 11h45.28.582865 +0000,
,,,,,,,,,,,,,,,,,,,,,,,23,0,23,0,788.1561565999873,,,,,,,,,,,,793.7936488999985,794.2922507000621,,,,5.628874799935147,,,,,,,,,,,,None,None,,,,,,,,,,Flasche,,,cuedRecallAdj,2,,,,,,,,,,,,,,,,,,,,,0,,,,,,,,,,,,,,,,,,,,,,,,,,,,,,,788.1463886001147,788.1561565999873,788.1561565999873,793.7904486001935,kaputt,return,5.628874799935147,None,793.7907136001159,793.8000465000514,793.8000465000514,793.7935470000375,,None,,,,,2,2023-11-28_11h45.22.502,watkins1,2023.2.3,99.71948928568385,28,2023-11-28 11h45.28.582865 +0000,
,,,,,,,,,,,,,,,,,,,,,,,24,0,24,0,794.3021937001031,,,,,,,,,,,,808.0430381000042,808.5417456000578,,,,13.730952200014144,,,,,,,,,,,,None,None,,,,,,,,,,Hut,,,cuedRecallAdj,2,,,,,,,,,,,,,,,,,,,,,0,,,,,,,,,,,,,,,,,,,,,,,,,,,,,,,794.2924983999692,794.3021937001031,794.3021937001031,808.0401546000503,schlicht,return,13.730952200014144,None,808.0404193999711,808.0496589001268,808.0496589001268,808.0429363001604,,None,,,,,2,2023-11-28_11h45.22.502,watkins1,2023.2.3,99.71948928568385,28,2023-11-28 11h45.28.582865 +0000,
,,,,,,,,,,,,,,,,,,,,,,,25,0,25,0,808.5518315001391,,,,,,,,,,,,816.8293598999735,817.3282682001591,,,,8.273233900079504,,,,,,,,,,,,None,None,,,,,,,,,,Ring,,,cuedRecallAdj,2,,,,,,,,,,,,,,,,,,,,,0,,,,,,,,,,,,,,,,,,,,,,,,,,,,,,,808.5419872000348,808.5518315001391,808.5518315001391,816.8266382000875,bunt,return,8.273233900079504,None,816.8269030000083,816.8361868001521,816.8361868001521,816.8292590000201,,None,,,,,2,2023-11-28_11h45.22.502,watkins1,2023.2.3,99.71948928568385,28,2023-11-28 11h45.28.582865 +0000,
,,,,,,,,,,,,,,,,,,,,,,,26,0,26,0,817.3382143999916,,,,,,,,,,,,823.5675127001014,824.0664105000906,,,,6.222820699913427,,,,,,,,,,,,None,None,,,,,,,,,,Tasche,,,cuedRecallAdj,2,,,,,,,,,,,,,,,,,,,,,0,,,,,,,,,,,,,,,,,,,,,,,,,,,,,,,817.3285084001254,817.3382143999916,817.3382143999916,823.5646413001232,matt,return,6.222820699913427,None,823.5649072001688,823.5742991999723,823.5742991999723,823.5674121000338,,None,,,,,2,2023-11-28_11h45.22.502,watkins1,2023.2.3,99.71948928568385,28,2023-11-28 11h45.28.582865 +0000,
,,,,,,,,,,,,,,,,,,,,,,,27,0,27,0,824.0763030000962,,,,,,,,,,,,828.1465269001201,828.6452735001221,,,,4.0607832001987845,,,,,,,,,,,,None,None,,,,,,,,,,Jacke,,,cuedRecallAdj,2,,,,,,,,,,,,,,,,,,,,,0,,,,,,,,,,,,,,,,,,,,,,,,,,,,,,,824.0666466001421,824.0763030000962,824.0763030000962,828.1434626001865,glänzend,return,4.0607832001987845,None,828.143725699978,828.153103900142,828.153103900142,828.1464240001515,,None,,,,,2,2023-11-28_11h45.22.502,watkins1,2023.2.3,99.71948928568385,28,2023-11-28 11h45.28.582865 +0000,
,,,,,,,,,,,,,,,,,,,,,,,28,0,28,0,828.6556083001196,,,,,,,,,,,,835.2459853000473,835.7448977001477,,,,6.577392499893904,,,,,,,,,,,,None,None,,,,,,,,,,Socke,,,cuedRecallAdj,2,,,,,,,,,,,,,,,,,,,,,0,,,,,,,,,,,,,,,,,,,,,,,,,,,,,,,828.6455145000946,828.6556083001196,828.6556083001196,835.2431071000174,bunt,return,6.577392499893904,None,835.2433739001863,835.2528272999916,835.2528272999916,835.2458834999707,,None,,,,,2,2023-11-28_11h45.22.502,watkins1,2023.2.3,99.71948928568385,28,2023-11-28 11h45.28.582865 +0000,
,,,,,,,,,,,,,,,,,,,,,,,29,0,29,0,835.7549521999899,,,,,,,,,,,,843.6108444000129,844.1096895001829,,,,7.846092600142583,,,,,,,,,,,,None,None,,,,,,,,,,Schere,,,cuedRecallAdj,2,,,,,,,,,,,,,,,,,,,,,0,,,,,,,,,,,,,,,,,,,,,,,,,,,,,,,835.7451435001567,835.7549521999899,835.7549521999899,843.6078367000446,scharf,return,7.846092600142583,None,843.6081032999791,843.6173386999872,843.6173386999872,843.6107440001797,,None,,,,,2,2023-11-28_11h45.22.502,watkins1,2023.2.3,99.71948928568385,28,2023-11-28 11h45.28.582865 +0000,
,,,,,,,,,,,,,,,,,,,,,,,,,,,,,,,,,,,,,,,,,,,,,,,,,,,,,,,,,,,,,,,,,,,,,,,2,,,,,,,,,,,,,,,,,,,,,,,,,,,,,,,,,,,,,,,,,,,,,,,,,,,,,,,,,,,,,,,,,,844.1265285001136,q,1766.8727050002199,None,2,2023-11-28_11h45.22.502,watkins1,2023.2.3,99.71948928568385,28,2023-11-28 11h45.28.582865 +0000,
