Equation,CorrectResponse,Correctbutton,trials_7.thisRepN,trials_7.thisTrialN,trials_7.thisN,trials_7.thisIndex,trials.thisRepN,trials.thisTrialN,trials.thisN,trials.thisIndex,trials_3.thisRepN,trials_3.thisTrialN,trials_3.thisN,trials_3.thisIndex,trials_2.thisRepN,trials_2.thisTrialN,trials_2.thisN,trials_2.thisIndex,trials_4.thisRepN,trials_4.thisTrialN,trials_4.thisN,trials_4.thisIndex,trials_5.thisRepN,trials_5.thisTrialN,trials_5.thisN,trials_5.thisIndex,thisRow.t,notes,code_marius.started,code_marius.stopped,welcome.started,welcome.stopped,instruction_study.started,instruction_study.stopped,fixationcross.started,fixationcross.stopped,blanc.started,blanc.stopped,study_control_probe.started,study_control_probe.stopped,responseKey,responseTime,scale_answer_2.keys,study_control_probe_2.started,study_control_probe_2.stopped,scale_answer_3.keys,scale_answer_3.rt,scale_answer_3.duration,blanc_2.started,blanc_2.stopped,test_attr_probe.started,test_attr_probe.stopped,recalled_attr,firstKeyTime,secondWordTime,blanc_3.started,blanc_3.stopped,test_sub_probe.started,test_sub_probe.stopped,recalled_sub,instruction_probe_end.started,instruction_probe_end.stopped,study.started,study.stopped,substantive,adjective,wordpair,task,condition,liste_sub_phase1,liste_adj_phase1,scale_answer.keys,scale_answer.rt,scale_answer.duration,code_defineWordsInit.started,code_defineWordsInit.stopped,liste_sub_phase2,study_control.started,study_control.stopped,scale_answer_4.keys,restudy_same.started,restudy_same.stopped,scale_answer_5.keys,scale_answer_5.rt,scale_answer_5.duration,restudy_different.started,restudy_different.stopped,scale_answer_6.keys,test_attr.started,test_attr.stopped,test_sub.started,test_sub.stopped,correct,distractortask.started,equation_text.started,distractortask.stopped,mouse_answer.x,mouse_answer.y,mouse_answer.leftButton,mouse_answer.midButton,mouse_answer.rightButton,mouse_answer.time,mouse_answer.clicked_name,feedback_distractortask.started,feedback_distractortask.stopped,free_recall.started,text_enter.started,key_resp.started,free_recall.stopped,key_resp.keys,key_resp.rt,key_resp.duration,free_recalled_sub,mouse_continue.x,mouse_continue.y,mouse_continue.leftButton,mouse_continue.midButton,mouse_continue.rightButton,mouse_continue.time,mouse_continue.clicked_name,cued_recall.started,text_enter_2.started,key_continue.started,cued_recall.stopped,recalled_attr1,key_continue.keys,key_continue.rt,key_continue.duration,cued_recall_2.started,text_enter_3.started,key_continue_2.started,cued_recall_2.stopped,recalled_attr2,key_continue_2.keys,key_resp_8.started,key_resp_8.keys,key_resp_8.rt,key_resp_8.duration,condition,date,expName,psychopyVersion,frameRate,participant,expStart,
,,,,,,,,,,,,,,,,,,,,,,,,,,,,,0.10377859999425709,0.10384440002962947,0.10385309997946024,6.207283099996857,,,,,,,,,,,,,,,,,,,,,,,,,,,,,,,,,,,,,3,,,,,,,,,,,,,,,,,,,,,,,,,,,,,,,,,,,,,,,,,,,,,,,,,,,,,,,,,,,,,,,,,,,,,,3,2023-11-22_13h45.51.332,watkins1,2023.2.3,99.71839522041239,9,2023-11-22 13h45.57.432264 +0000,
,,,,,,,,,,,,,,,,,,,,,,,,,,,,,,,,,6.2073303000070155,39.74436350003816,,,,,,,,,,,,,,,,,,,,,,,,,,,,,,,,,,,3,,,,,,,,,,,,,,,,,,,,,,,,,,,,,,,,,,,,,,,,,,,,,,,,,,,,,,,,,,,,,,,,,,,,,,3,2023-11-22_13h45.51.332,watkins1,2023.2.3,99.71839522041239,9,2023-11-22 13h45.57.432264 +0000,
,,,0,0,0,0,,,,,,,,,,,,,,,,,,,,,40.757927599945106,,,,,,,,39.744379900046624,40.74795119999908,47.24911009997595,47.740389300044626,41.23982350004371,47.248947000014596,1,1.9423402999527752,None,47.740399900008924,53.74661929998547,1,1.9423402999527752,None,53.74691290000919,54.238126900047064,54.2381374000106,60.24232720001601,vergnügt,None,None,60.242547099944204,60.24257130001206,60.242578299948946,60.24266109999735,,,,,,,,,,3,,,,,,,,,,,,,,,,,,,,,,,,,,,,,,,,,,,,,,,,,,,,,,,,,,,,,,,,,,,,,,,,,,,,,,3,2023-11-22_13h45.51.332,watkins1,2023.2.3,99.71839522041239,9,2023-11-22 13h45.57.432264 +0000,
,,,,,,,,,,,,,,,,,,,,,,,,,,,,,,,,,,,,,,,,,,,,,,,,,,,,,,,,,,,,,60.24277929996606,63.7664034999907,,,,,,,3,,,,,,,,,,,,,,,,,,,,,,,,,,,,,,,,,,,,,,,,,,,,,,,,,,,,,,,,,,,,,,,,,,,,,,3,2023-11-22_13h45.51.332,watkins1,2023.2.3,99.71839522041239,9,2023-11-22 13h45.57.432264 +0000,
,,,,,,,0,0,0,0,,,,,,,,,,,,,,,,,64.78005369997118,,,,,,,,63.76641949999612,64.77006889996119,64.77052639995236,65.26204880001023,,,3,2.59269730001688,,,,,,,,,,,,,,,,,,,,,65.26205879996996,71.26506530004553,Kette,sportlich,"['Kette', 'sportlich']",restudy,3,"['Kette', 'Hammer', 'Ring', 'Brille', 'Kerze', 'Rucksack', 'Flasche', 'Hut', 'Lampe', 'Fahrrad', 'Buch', 'Uhr', 'Stift', 'Socke', 'Tasche', 'Jacke', 'Schere', 'Eimer', 'Kiste', 'Trommel', 'Bürste', 'Vase', 'Geige', 'Würfel', 'Tasse', 'Blume', 'Löffel', 'Schlüssel', 'Kamera', 'Telefon']",['sportlich'],3,2.59269730001688,None,,,,,,,,,,,,,,,,,,,,,,,,,,,,,,,,,,,,,,,,,,,,,,,,,,,,,,,,,,,,,,,,,3,2023-11-22_13h45.51.332,watkins1,2023.2.3,99.71839522041239,9,2023-11-22 13h45.57.432264 +0000,
,,,,,,,1,0,1,0,,,,,,,,,,,,,,,,,71.27449239999987,,,,,,,,,,71.26572989998385,71.7567084999755,,,2,2.515163499978371,,,,,,,,,,,,,,,,,,,,,71.75671989994589,77.75774210004602,Hammer,flach,"['Hammer', 'flach']",restudy,3,"['Kette', 'Hammer', 'Ring', 'Brille', 'Kerze', 'Rucksack', 'Flasche', 'Hut', 'Lampe', 'Fahrrad', 'Buch', 'Uhr', 'Stift', 'Socke', 'Tasche', 'Jacke', 'Schere', 'Eimer', 'Kiste', 'Trommel', 'Bürste', 'Vase', 'Geige', 'Würfel', 'Tasse', 'Blume', 'Löffel', 'Schlüssel', 'Kamera', 'Telefon']","['sportlich', 'flach']",2,2.515163499978371,None,,,,,,,,,,,,,,,,,,,,,,,,,,,,,,,,,,,,,,,,,,,,,,,,,,,,,,,,,,,,,,,,,3,2023-11-22_13h45.51.332,watkins1,2023.2.3,99.71839522041239,9,2023-11-22 13h45.57.432264 +0000,
,,,,,,,2,0,2,0,,,,,,,,,,,,,,,,,77.76727119996212,,,,,,,,,,77.75827540003229,78.24923499999568,,,3,3.366850200109184,,,,,,,,,,,,,,,,,,,,,78.24924559995998,84.25112869997974,Ring,winzig,"['Ring', 'winzig']",test_adj,3,"['Kette', 'Hammer', 'Ring', 'Brille', 'Kerze', 'Rucksack', 'Flasche', 'Hut', 'Lampe', 'Fahrrad', 'Buch', 'Uhr', 'Stift', 'Socke', 'Tasche', 'Jacke', 'Schere', 'Eimer', 'Kiste', 'Trommel', 'Bürste', 'Vase', 'Geige', 'Würfel', 'Tasse', 'Blume', 'Löffel', 'Schlüssel', 'Kamera', 'Telefon']","['sportlich', 'flach', 'winzig']",3,3.366850200109184,None,,,,,,,,,,,,,,,,,,,,,,,,,,,,,,,,,,,,,,,,,,,,,,,,,,,,,,,,,,,,,,,,,3,2023-11-22_13h45.51.332,watkins1,2023.2.3,99.71839522041239,9,2023-11-22 13h45.57.432264 +0000,
,,,,,,,3,0,3,0,,,,,,,,,,,,,,,,,84.26059620000888,,,,,,,,,,84.25165310001466,84.74267469998449,,,2,1.2814884999534115,,,,,,,,,,,,,,,,,,,,,84.74268489994574,90.74328159994911,Brille,durchsichtig,"['Brille', 'durchsichtig']",test_adj,3,"['Kette', 'Hammer', 'Ring', 'Brille', 'Kerze', 'Rucksack', 'Flasche', 'Hut', 'Lampe', 'Fahrrad', 'Buch', 'Uhr', 'Stift', 'Socke', 'Tasche', 'Jacke', 'Schere', 'Eimer', 'Kiste', 'Trommel', 'Bürste', 'Vase', 'Geige', 'Würfel', 'Tasse', 'Blume', 'Löffel', 'Schlüssel', 'Kamera', 'Telefon']","['sportlich', 'flach', 'winzig', 'durchsichtig']",2,1.2814884999534115,None,,,,,,,,,,,,,,,,,,,,,,,,,,,,,,,,,,,,,,,,,,,,,,,,,,,,,,,,,,,,,,,,,3,2023-11-22_13h45.51.332,watkins1,2023.2.3,99.71839522041239,9,2023-11-22 13h45.57.432264 +0000,
,,,,,,,4,0,4,0,,,,,,,,,,,,,,,,,90.75275009998586,,,,,,,,,,90.74391069996636,91.23475529998541,,,3,2.0304583999095485,,,,,,,,,,,,,,,,,,,,,91.23476599995047,97.24330229999032,Kerze,glatt,"['Kerze', 'glatt']",restudy,3,"['Kette', 'Hammer', 'Ring', 'Brille', 'Kerze', 'Rucksack', 'Flasche', 'Hut', 'Lampe', 'Fahrrad', 'Buch', 'Uhr', 'Stift', 'Socke', 'Tasche', 'Jacke', 'Schere', 'Eimer', 'Kiste', 'Trommel', 'Bürste', 'Vase', 'Geige', 'Würfel', 'Tasse', 'Blume', 'Löffel', 'Schlüssel', 'Kamera', 'Telefon']","['sportlich', 'flach', 'winzig', 'durchsichtig', 'glatt']",3,2.0304583999095485,None,,,,,,,,,,,,,,,,,,,,,,,,,,,,,,,,,,,,,,,,,,,,,,,,,,,,,,,,,,,,,,,,,3,2023-11-22_13h45.51.332,watkins1,2023.2.3,99.71839522041239,9,2023-11-22 13h45.57.432264 +0000,
,,,,,,,5,0,5,0,,,,,,,,,,,,,,,,,97.25277230003849,,,,,,,,,,97.24383859999944,97.73469820001628,,,1,2.9055218999274075,,,,,,,,,,,,,,,,,,,,,97.73470909998287,103.73702240001876,Rucksack,gestreift,"['Rucksack', 'gestreift']",restudy,3,"['Kette', 'Hammer', 'Ring', 'Brille', 'Kerze', 'Rucksack', 'Flasche', 'Hut', 'Lampe', 'Fahrrad', 'Buch', 'Uhr', 'Stift', 'Socke', 'Tasche', 'Jacke', 'Schere', 'Eimer', 'Kiste', 'Trommel', 'Bürste', 'Vase', 'Geige', 'Würfel', 'Tasse', 'Blume', 'Löffel', 'Schlüssel', 'Kamera', 'Telefon']","['sportlich', 'flach', 'winzig', 'durchsichtig', 'glatt', 'gestreift']",1,2.9055218999274075,None,,,,,,,,,,,,,,,,,,,,,,,,,,,,,,,,,,,,,,,,,,,,,,,,,,,,,,,,,,,,,,,,,3,2023-11-22_13h45.51.332,watkins1,2023.2.3,99.71839522041239,9,2023-11-22 13h45.57.432264 +0000,
,,,,,,,6,0,6,0,,,,,,,,,,,,,,,,,103.74649429996498,,,,,,,,,,103.73763750004582,104.22840300004464,,,1,1.6845225999131799,,,,,,,,,,,,,,,,,,,,,104.2284129000036,110.23857990000397,Flasche,schmutzig,"['Flasche', 'schmutzig']",test_adj,3,"['Kette', 'Hammer', 'Ring', 'Brille', 'Kerze', 'Rucksack', 'Flasche', 'Hut', 'Lampe', 'Fahrrad', 'Buch', 'Uhr', 'Stift', 'Socke', 'Tasche', 'Jacke', 'Schere', 'Eimer', 'Kiste', 'Trommel', 'Bürste', 'Vase', 'Geige', 'Würfel', 'Tasse', 'Blume', 'Löffel', 'Schlüssel', 'Kamera', 'Telefon']","['sportlich', 'flach', 'winzig', 'durchsichtig', 'glatt', 'gestreift', 'schmutzig']",1,1.6845225999131799,None,,,,,,,,,,,,,,,,,,,,,,,,,,,,,,,,,,,,,,,,,,,,,,,,,,,,,,,,,,,,,,,,,3,2023-11-22_13h45.51.332,watkins1,2023.2.3,99.71839522041239,9,2023-11-22 13h45.57.432264 +0000,
,,,,,,,7,0,7,0,,,,,,,,,,,,,,,,,110.24790920002852,,,,,,,,,,110.23909899999853,110.72996949998196,,,2,1.6472295999992639,,,,,,,,,,,,,,,,,,,,,110.72998019994702,116.74042759998702,Hut,gepunktet,"['Hut', 'gepunktet']",test_adj,3,"['Kette', 'Hammer', 'Ring', 'Brille', 'Kerze', 'Rucksack', 'Flasche', 'Hut', 'Lampe', 'Fahrrad', 'Buch', 'Uhr', 'Stift', 'Socke', 'Tasche', 'Jacke', 'Schere', 'Eimer', 'Kiste', 'Trommel', 'Bürste', 'Vase', 'Geige', 'Würfel', 'Tasse', 'Blume', 'Löffel', 'Schlüssel', 'Kamera', 'Telefon']","['sportlich', 'flach', 'winzig', 'durchsichtig', 'glatt', 'gestreift', 'schmutzig', 'gepunktet']",2,1.6472295999992639,None,,,,,,,,,,,,,,,,,,,,,,,,,,,,,,,,,,,,,,,,,,,,,,,,,,,,,,,,,,,,,,,,,3,2023-11-22_13h45.51.332,watkins1,2023.2.3,99.71839522041239,9,2023-11-22 13h45.57.432264 +0000,
,,,,,,,8,0,8,0,,,,,,,,,,,,,,,,,116.74989750003442,,,,,,,,,,116.74094239994884,117.23187799996231,,,1,2.4886152000399306,,,,,,,,,,,,,,,,,,,,,117.23189039994031,123.24131069995929,Lampe,sauber,"['Lampe', 'sauber']",restudy,3,"['Kette', 'Hammer', 'Ring', 'Brille', 'Kerze', 'Rucksack', 'Flasche', 'Hut', 'Lampe', 'Fahrrad', 'Buch', 'Uhr', 'Stift', 'Socke', 'Tasche', 'Jacke', 'Schere', 'Eimer', 'Kiste', 'Trommel', 'Bürste', 'Vase', 'Geige', 'Würfel', 'Tasse', 'Blume', 'Löffel', 'Schlüssel', 'Kamera', 'Telefon']","['sportlich', 'flach', 'winzig', 'durchsichtig', 'glatt', 'gestreift', 'schmutzig', 'gepunktet', 'sauber']",1,2.4886152000399306,None,,,,,,,,,,,,,,,,,,,,,,,,,,,,,,,,,,,,,,,,,,,,,,,,,,,,,,,,,,,,,,,,,3,2023-11-22_13h45.51.332,watkins1,2023.2.3,99.71839522041239,9,2023-11-22 13h45.57.432264 +0000,
,,,,,,,9,0,9,0,,,,,,,,,,,,,,,,,123.25087929994334,,,,,,,,,,123.241828899947,123.7328722999664,,,3,1.6275614999467507,,,,,,,,,,,,,,,,,,,,,123.73288310004864,129.73782909999136,Fahrrad,groß,"['Fahrrad', 'groß']",restudy,3,"['Kette', 'Hammer', 'Ring', 'Brille', 'Kerze', 'Rucksack', 'Flasche', 'Hut', 'Lampe', 'Fahrrad', 'Buch', 'Uhr', 'Stift', 'Socke', 'Tasche', 'Jacke', 'Schere', 'Eimer', 'Kiste', 'Trommel', 'Bürste', 'Vase', 'Geige', 'Würfel', 'Tasse', 'Blume', 'Löffel', 'Schlüssel', 'Kamera', 'Telefon']","['sportlich', 'flach', 'winzig', 'durchsichtig', 'glatt', 'gestreift', 'schmutzig', 'gepunktet', 'sauber', 'groß']",3,1.6275614999467507,None,,,,,,,,,,,,,,,,,,,,,,,,,,,,,,,,,,,,,,,,,,,,,,,,,,,,,,,,,,,,,,,,,3,2023-11-22_13h45.51.332,watkins1,2023.2.3,99.71839522041239,9,2023-11-22 13h45.57.432264 +0000,
,,,,,,,10,0,10,0,,,,,,,,,,,,,,,,,129.74741439998616,,,,,,,,,,129.73834679997526,130.22925109998323,,,1,2.2041118999477476,,,,,,,,,,,,,,,,,,,,,130.229261499946,136.23760110000148,Buch,strahlend,"['Buch', 'strahlend']",test_adj,3,"['Kette', 'Hammer', 'Ring', 'Brille', 'Kerze', 'Rucksack', 'Flasche', 'Hut', 'Lampe', 'Fahrrad', 'Buch', 'Uhr', 'Stift', 'Socke', 'Tasche', 'Jacke', 'Schere', 'Eimer', 'Kiste', 'Trommel', 'Bürste', 'Vase', 'Geige', 'Würfel', 'Tasse', 'Blume', 'Löffel', 'Schlüssel', 'Kamera', 'Telefon']","['sportlich', 'flach', 'winzig', 'durchsichtig', 'glatt', 'gestreift', 'schmutzig', 'gepunktet', 'sauber', 'groß', 'strahlend']",1,2.2041118999477476,None,,,,,,,,,,,,,,,,,,,,,,,,,,,,,,,,,,,,,,,,,,,,,,,,,,,,,,,,,,,,,,,,,3,2023-11-22_13h45.51.332,watkins1,2023.2.3,99.71839522041239,9,2023-11-22 13h45.57.432264 +0000,
,,,,,,,11,0,11,0,,,,,,,,,,,,,,,,,136.24701449996792,,,,,,,,,,136.23810600000434,136.7293745999923,,,1,1.1911491999635473,,,,,,,,,,,,,,,,,,,,,136.72938539995812,142.7372946999967,Uhr,lustig,"['Uhr', 'lustig']",restudy,3,"['Kette', 'Hammer', 'Ring', 'Brille', 'Kerze', 'Rucksack', 'Flasche', 'Hut', 'Lampe', 'Fahrrad', 'Buch', 'Uhr', 'Stift', 'Socke', 'Tasche', 'Jacke', 'Schere', 'Eimer', 'Kiste', 'Trommel', 'Bürste', 'Vase', 'Geige', 'Würfel', 'Tasse', 'Blume', 'Löffel', 'Schlüssel', 'Kamera', 'Telefon']","['sportlich', 'flach', 'winzig', 'durchsichtig', 'glatt', 'gestreift', 'schmutzig', 'gepunktet', 'sauber', 'groß', 'strahlend', 'lustig']",1,1.1911491999635473,None,,,,,,,,,,,,,,,,,,,,,,,,,,,,,,,,,,,,,,,,,,,,,,,,,,,,,,,,,,,,,,,,,3,2023-11-22_13h45.51.332,watkins1,2023.2.3,99.71839522041239,9,2023-11-22 13h45.57.432264 +0000,
,,,,,,,12,0,12,0,,,,,,,,,,,,,,,,,142.74673240003176,,,,,,,,,,142.7378232999472,143.22869010001887,,,1,1.3482913000043482,,,,,,,,,,,,,,,,,,,,,143.22869989997707,149.23773930000607,Stift,dick,"['Stift', 'dick']",test_adj,3,"['Kette', 'Hammer', 'Ring', 'Brille', 'Kerze', 'Rucksack', 'Flasche', 'Hut', 'Lampe', 'Fahrrad', 'Buch', 'Uhr', 'Stift', 'Socke', 'Tasche', 'Jacke', 'Schere', 'Eimer', 'Kiste', 'Trommel', 'Bürste', 'Vase', 'Geige', 'Würfel', 'Tasse', 'Blume', 'Löffel', 'Schlüssel', 'Kamera', 'Telefon']","['sportlich', 'flach', 'winzig', 'durchsichtig', 'glatt', 'gestreift', 'schmutzig', 'gepunktet', 'sauber', 'groß', 'strahlend', 'lustig', 'dick']",1,1.3482913000043482,None,,,,,,,,,,,,,,,,,,,,,,,,,,,,,,,,,,,,,,,,,,,,,,,,,,,,,,,,,,,,,,,,,3,2023-11-22_13h45.51.332,watkins1,2023.2.3,99.71839522041239,9,2023-11-22 13h45.57.432264 +0000,
,,,,,,,13,0,13,0,,,,,,,,,,,,,,,,,149.24719789996743,,,,,,,,,,149.2382448000135,149.72918270004448,,,1,3.542975199990906,,,,,,,,,,,,,,,,,,,,,149.7291927000042,155.73085339996032,Socke,glänzend,"['Socke', 'glänzend']",test_adj,3,"['Kette', 'Hammer', 'Ring', 'Brille', 'Kerze', 'Rucksack', 'Flasche', 'Hut', 'Lampe', 'Fahrrad', 'Buch', 'Uhr', 'Stift', 'Socke', 'Tasche', 'Jacke', 'Schere', 'Eimer', 'Kiste', 'Trommel', 'Bürste', 'Vase', 'Geige', 'Würfel', 'Tasse', 'Blume', 'Löffel', 'Schlüssel', 'Kamera', 'Telefon']","['sportlich', 'flach', 'winzig', 'durchsichtig', 'glatt', 'gestreift', 'schmutzig', 'gepunktet', 'sauber', 'groß', 'strahlend', 'lustig', 'dick', 'glänzend']",1,3.542975199990906,None,,,,,,,,,,,,,,,,,,,,,,,,,,,,,,,,,,,,,,,,,,,,,,,,,,,,,,,,,,,,,,,,,3,2023-11-22_13h45.51.332,watkins1,2023.2.3,99.71839522041239,9,2023-11-22 13h45.57.432264 +0000,
,,,,,,,14,0,14,0,,,,,,,,,,,,,,,,,155.74036379996687,,,,,,,,,,155.73137679998763,156.222315800027,,,3,1.4259356000693515,,,,,,,,,,,,,,,,,,,,,156.22232599998824,162.23090399999637,Tasche,klobig,"['Tasche', 'klobig']",restudy,3,"['Kette', 'Hammer', 'Ring', 'Brille', 'Kerze', 'Rucksack', 'Flasche', 'Hut', 'Lampe', 'Fahrrad', 'Buch', 'Uhr', 'Stift', 'Socke', 'Tasche', 'Jacke', 'Schere', 'Eimer', 'Kiste', 'Trommel', 'Bürste', 'Vase', 'Geige', 'Würfel', 'Tasse', 'Blume', 'Löffel', 'Schlüssel', 'Kamera', 'Telefon']","['sportlich', 'flach', 'winzig', 'durchsichtig', 'glatt', 'gestreift', 'schmutzig', 'gepunktet', 'sauber', 'groß', 'strahlend', 'lustig', 'dick', 'glänzend', 'klobig']",3,1.4259356000693515,None,,,,,,,,,,,,,,,,,,,,,,,,,,,,,,,,,,,,,,,,,,,,,,,,,,,,,,,,,,,,,,,,,3,2023-11-22_13h45.51.332,watkins1,2023.2.3,99.71839522041239,9,2023-11-22 13h45.57.432264 +0000,
,,,,,,,15,0,15,0,,,,,,,,,,,,,,,,,162.24037060001865,,,,,,,,,,162.2314255000092,162.72239190002438,,,1,1.44590639998205,,,,,,,,,,,,,,,,,,,,,162.72240249998868,168.72746119997464,Jacke,niedlich,"['Jacke', 'niedlich']",test_adj,3,"['Kette', 'Hammer', 'Ring', 'Brille', 'Kerze', 'Rucksack', 'Flasche', 'Hut', 'Lampe', 'Fahrrad', 'Buch', 'Uhr', 'Stift', 'Socke', 'Tasche', 'Jacke', 'Schere', 'Eimer', 'Kiste', 'Trommel', 'Bürste', 'Vase', 'Geige', 'Würfel', 'Tasse', 'Blume', 'Löffel', 'Schlüssel', 'Kamera', 'Telefon']","['sportlich', 'flach', 'winzig', 'durchsichtig', 'glatt', 'gestreift', 'schmutzig', 'gepunktet', 'sauber', 'groß', 'strahlend', 'lustig', 'dick', 'glänzend', 'klobig', 'niedlich']",1,1.44590639998205,None,,,,,,,,,,,,,,,,,,,,,,,,,,,,,,,,,,,,,,,,,,,,,,,,,,,,,,,,,,,,,,,,,3,2023-11-22_13h45.51.332,watkins1,2023.2.3,99.71839522041239,9,2023-11-22 13h45.57.432264 +0000,
,,,,,,,16,0,16,0,,,,,,,,,,,,,,,,,168.73693709995132,,,,,,,,,,168.72797470004298,169.21892250003293,,,2,3.414444199996069,,,,,,,,,,,,,,,,,,,,,169.2189323999919,175.22051599994302,Schere,gut,"['Schere', 'gut']",test_adj,3,"['Kette', 'Hammer', 'Ring', 'Brille', 'Kerze', 'Rucksack', 'Flasche', 'Hut', 'Lampe', 'Fahrrad', 'Buch', 'Uhr', 'Stift', 'Socke', 'Tasche', 'Jacke', 'Schere', 'Eimer', 'Kiste', 'Trommel', 'Bürste', 'Vase', 'Geige', 'Würfel', 'Tasse', 'Blume', 'Löffel', 'Schlüssel', 'Kamera', 'Telefon']","['sportlich', 'flach', 'winzig', 'durchsichtig', 'glatt', 'gestreift', 'schmutzig', 'gepunktet', 'sauber', 'groß', 'strahlend', 'lustig', 'dick', 'glänzend', 'klobig', 'niedlich', 'gut']",2,3.414444199996069,None,,,,,,,,,,,,,,,,,,,,,,,,,,,,,,,,,,,,,,,,,,,,,,,,,,,,,,,,,,,,,,,,,3,2023-11-22_13h45.51.332,watkins1,2023.2.3,99.71839522041239,9,2023-11-22 13h45.57.432264 +0000,
,,,,,,,17,0,17,0,,,,,,,,,,,,,,,,,175.22997959994245,,,,,,,,,,175.22104219999164,175.712005999987,,,1,1.135960000101477,,,,,,,,,,,,,,,,,,,,,175.71201619994827,181.72258679999504,Eimer,flauschig,"['Eimer', 'flauschig']",test_adj,3,"['Kette', 'Hammer', 'Ring', 'Brille', 'Kerze', 'Rucksack', 'Flasche', 'Hut', 'Lampe', 'Fahrrad', 'Buch', 'Uhr', 'Stift', 'Socke', 'Tasche', 'Jacke', 'Schere', 'Eimer', 'Kiste', 'Trommel', 'Bürste', 'Vase', 'Geige', 'Würfel', 'Tasse', 'Blume', 'Löffel', 'Schlüssel', 'Kamera', 'Telefon']","['sportlich', 'flach', 'winzig', 'durchsichtig', 'glatt', 'gestreift', 'schmutzig', 'gepunktet', 'sauber', 'groß', 'strahlend', 'lustig', 'dick', 'glänzend', 'klobig', 'niedlich', 'gut', 'flauschig']",1,1.135960000101477,None,,,,,,,,,,,,,,,,,,,,,,,,,,,,,,,,,,,,,,,,,,,,,,,,,,,,,,,,,,,,,,,,,3,2023-11-22_13h45.51.332,watkins1,2023.2.3,99.71839522041239,9,2023-11-22 13h45.57.432264 +0000,
,,,,,,,18,0,18,0,,,,,,,,,,,,,,,,,181.73206389998086,,,,,,,,,,181.72310760000255,182.21409819996916,,,3,1.8992125999648124,,,,,,,,,,,,,,,,,,,,,182.21410830004606,188.21514119999483,Kiste,nachhaltig,"['Kiste', 'nachhaltig']",restudy,3,"['Kette', 'Hammer', 'Ring', 'Brille', 'Kerze', 'Rucksack', 'Flasche', 'Hut', 'Lampe', 'Fahrrad', 'Buch', 'Uhr', 'Stift', 'Socke', 'Tasche', 'Jacke', 'Schere', 'Eimer', 'Kiste', 'Trommel', 'Bürste', 'Vase', 'Geige', 'Würfel', 'Tasse', 'Blume', 'Löffel', 'Schlüssel', 'Kamera', 'Telefon']","['sportlich', 'flach', 'winzig', 'durchsichtig', 'glatt', 'gestreift', 'schmutzig', 'gepunktet', 'sauber', 'groß', 'strahlend', 'lustig', 'dick', 'glänzend', 'klobig', 'niedlich', 'gut', 'flauschig', 'nachhaltig']",3,1.8992125999648124,None,,,,,,,,,,,,,,,,,,,,,,,,,,,,,,,,,,,,,,,,,,,,,,,,,,,,,,,,,,,,,,,,,3,2023-11-22_13h45.51.332,watkins1,2023.2.3,99.71839522041239,9,2023-11-22 13h45.57.432264 +0000,
,,,,,,,19,0,19,0,,,,,,,,,,,,,,,,,188.22456420003437,,,,,,,,,,188.2156647000229,188.7067392000463,,,3,1.7984005000907928,,,,,,,,,,,,,,,,,,,,,188.70674920000602,194.7082459999947,Trommel,hohl,"['Trommel', 'hohl']",restudy,3,"['Kette', 'Hammer', 'Ring', 'Brille', 'Kerze', 'Rucksack', 'Flasche', 'Hut', 'Lampe', 'Fahrrad', 'Buch', 'Uhr', 'Stift', 'Socke', 'Tasche', 'Jacke', 'Schere', 'Eimer', 'Kiste', 'Trommel', 'Bürste', 'Vase', 'Geige', 'Würfel', 'Tasse', 'Blume', 'Löffel', 'Schlüssel', 'Kamera', 'Telefon']","['sportlich', 'flach', 'winzig', 'durchsichtig', 'glatt', 'gestreift', 'schmutzig', 'gepunktet', 'sauber', 'groß', 'strahlend', 'lustig', 'dick', 'glänzend', 'klobig', 'niedlich', 'gut', 'flauschig', 'nachhaltig', 'hohl']",3,1.7984005000907928,None,,,,,,,,,,,,,,,,,,,,,,,,,,,,,,,,,,,,,,,,,,,,,,,,,,,,,,,,,,,,,,,,,3,2023-11-22_13h45.51.332,watkins1,2023.2.3,99.71839522041239,9,2023-11-22 13h45.57.432264 +0000,
,,,,,,,20,0,20,0,,,,,,,,,,,,,,,,,194.71770299994387,,,,,,,,,,194.7087707000319,195.19963070005178,,,2,1.4572810999816284,,,,,,,,,,,,,,,,,,,,,195.1996410000138,201.209946100018,Bürste,robust,"['Bürste', 'robust']",test_adj,3,"['Kette', 'Hammer', 'Ring', 'Brille', 'Kerze', 'Rucksack', 'Flasche', 'Hut', 'Lampe', 'Fahrrad', 'Buch', 'Uhr', 'Stift', 'Socke', 'Tasche', 'Jacke', 'Schere', 'Eimer', 'Kiste', 'Trommel', 'Bürste', 'Vase', 'Geige', 'Würfel', 'Tasse', 'Blume', 'Löffel', 'Schlüssel', 'Kamera', 'Telefon']","['sportlich', 'flach', 'winzig', 'durchsichtig', 'glatt', 'gestreift', 'schmutzig', 'gepunktet', 'sauber', 'groß', 'strahlend', 'lustig', 'dick', 'glänzend', 'klobig', 'niedlich', 'gut', 'flauschig', 'nachhaltig', 'hohl', 'robust']",2,1.4572810999816284,None,,,,,,,,,,,,,,,,,,,,,,,,,,,,,,,,,,,,,,,,,,,,,,,,,,,,,,,,,,,,,,,,,3,2023-11-22_13h45.51.332,watkins1,2023.2.3,99.71839522041239,9,2023-11-22 13h45.57.432264 +0000,
,,,,,,,21,0,21,0,,,,,,,,,,,,,,,,,201.2194156999467,,,,,,,,,,201.21049149997998,201.7014564999845,,,3,2.1391140000196174,,,,,,,,,,,,,,,,,,,,,201.70146659994498,207.7104611999821,Vase,schlicht,"['Vase', 'schlicht']",restudy,3,"['Kette', 'Hammer', 'Ring', 'Brille', 'Kerze', 'Rucksack', 'Flasche', 'Hut', 'Lampe', 'Fahrrad', 'Buch', 'Uhr', 'Stift', 'Socke', 'Tasche', 'Jacke', 'Schere', 'Eimer', 'Kiste', 'Trommel', 'Bürste', 'Vase', 'Geige', 'Würfel', 'Tasse', 'Blume', 'Löffel', 'Schlüssel', 'Kamera', 'Telefon']","['sportlich', 'flach', 'winzig', 'durchsichtig', 'glatt', 'gestreift', 'schmutzig', 'gepunktet', 'sauber', 'groß', 'strahlend', 'lustig', 'dick', 'glänzend', 'klobig', 'niedlich', 'gut', 'flauschig', 'nachhaltig', 'hohl', 'robust', 'schlicht']",3,2.1391140000196174,None,,,,,,,,,,,,,,,,,,,,,,,,,,,,,,,,,,,,,,,,,,,,,,,,,,,,,,,,,,,,,,,,,3,2023-11-22_13h45.51.332,watkins1,2023.2.3,99.71839522041239,9,2023-11-22 13h45.57.432264 +0000,
,,,,,,,22,0,22,0,,,,,,,,,,,,,,,,,207.7200351000065,,,,,,,,,,207.71099639998283,208.20201100001577,,,2,2.318392200046219,,,,,,,,,,,,,,,,,,,,,208.20202119997703,214.21149230003357,Geige,dunkel,"['Geige', 'dunkel']",restudy,3,"['Kette', 'Hammer', 'Ring', 'Brille', 'Kerze', 'Rucksack', 'Flasche', 'Hut', 'Lampe', 'Fahrrad', 'Buch', 'Uhr', 'Stift', 'Socke', 'Tasche', 'Jacke', 'Schere', 'Eimer', 'Kiste', 'Trommel', 'Bürste', 'Vase', 'Geige', 'Würfel', 'Tasse', 'Blume', 'Löffel', 'Schlüssel', 'Kamera', 'Telefon']","['sportlich', 'flach', 'winzig', 'durchsichtig', 'glatt', 'gestreift', 'schmutzig', 'gepunktet', 'sauber', 'groß', 'strahlend', 'lustig', 'dick', 'glänzend', 'klobig', 'niedlich', 'gut', 'flauschig', 'nachhaltig', 'hohl', 'robust', 'schlicht', 'dunkel']",2,2.318392200046219,None,,,,,,,,,,,,,,,,,,,,,,,,,,,,,,,,,,,,,,,,,,,,,,,,,,,,,,,,,,,,,,,,,3,2023-11-22_13h45.51.332,watkins1,2023.2.3,99.71839522041239,9,2023-11-22 13h45.57.432264 +0000,
,,,,,,,23,0,23,0,,,,,,,,,,,,,,,,,214.22102439997252,,,,,,,,,,214.21201300004032,214.70303920004517,,,1,3.585517800063826,,,,,,,,,,,,,,,,,,,,,214.70304940000642,220.71046570001636,Würfel,matt,"['Würfel', 'matt']",test_adj,3,"['Kette', 'Hammer', 'Ring', 'Brille', 'Kerze', 'Rucksack', 'Flasche', 'Hut', 'Lampe', 'Fahrrad', 'Buch', 'Uhr', 'Stift', 'Socke', 'Tasche', 'Jacke', 'Schere', 'Eimer', 'Kiste', 'Trommel', 'Bürste', 'Vase', 'Geige', 'Würfel', 'Tasse', 'Blume', 'Löffel', 'Schlüssel', 'Kamera', 'Telefon']","['sportlich', 'flach', 'winzig', 'durchsichtig', 'glatt', 'gestreift', 'schmutzig', 'gepunktet', 'sauber', 'groß', 'strahlend', 'lustig', 'dick', 'glänzend', 'klobig', 'niedlich', 'gut', 'flauschig', 'nachhaltig', 'hohl', 'robust', 'schlicht', 'dunkel', 'matt']",1,3.585517800063826,None,,,,,,,,,,,,,,,,,,,,,,,,,,,,,,,,,,,,,,,,,,,,,,,,,,,,,,,,,,,,,,,,,3,2023-11-22_13h45.51.332,watkins1,2023.2.3,99.71839522041239,9,2023-11-22 13h45.57.432264 +0000,
,,,,,,,24,0,24,0,,,,,,,,,,,,,,,,,220.7199654999422,,,,,,,,,,220.71098890004214,221.20199840003625,,,1,1.3190729999914765,,,,,,,,,,,,,,,,,,,,,221.20200839999598,227.21050369995646,Tasse,verspielt,"['Tasse', 'verspielt']",test_adj,3,"['Kette', 'Hammer', 'Ring', 'Brille', 'Kerze', 'Rucksack', 'Flasche', 'Hut', 'Lampe', 'Fahrrad', 'Buch', 'Uhr', 'Stift', 'Socke', 'Tasche', 'Jacke', 'Schere', 'Eimer', 'Kiste', 'Trommel', 'Bürste', 'Vase', 'Geige', 'Würfel', 'Tasse', 'Blume', 'Löffel', 'Schlüssel', 'Kamera', 'Telefon']","['sportlich', 'flach', 'winzig', 'durchsichtig', 'glatt', 'gestreift', 'schmutzig', 'gepunktet', 'sauber', 'groß', 'strahlend', 'lustig', 'dick', 'glänzend', 'klobig', 'niedlich', 'gut', 'flauschig', 'nachhaltig', 'hohl', 'robust', 'schlicht', 'dunkel', 'matt', 'verspielt']",1,1.3190729999914765,None,,,,,,,,,,,,,,,,,,,,,,,,,,,,,,,,,,,,,,,,,,,,,,,,,,,,,,,,,,,,,,,,,3,2023-11-22_13h45.51.332,watkins1,2023.2.3,99.71839522041239,9,2023-11-22 13h45.57.432264 +0000,
,,,,,,,25,0,25,0,,,,,,,,,,,,,,,,,227.22001659998205,,,,,,,,,,227.21103230002336,227.70217149995733,,,1,1.2504124999977648,,,,,,,,,,,,,,,,,,,,,227.70218310004566,233.709683699999,Blume,kaputt,"['Blume', 'kaputt']",restudy,3,"['Kette', 'Hammer', 'Ring', 'Brille', 'Kerze', 'Rucksack', 'Flasche', 'Hut', 'Lampe', 'Fahrrad', 'Buch', 'Uhr', 'Stift', 'Socke', 'Tasche', 'Jacke', 'Schere', 'Eimer', 'Kiste', 'Trommel', 'Bürste', 'Vase', 'Geige', 'Würfel', 'Tasse', 'Blume', 'Löffel', 'Schlüssel', 'Kamera', 'Telefon']","['sportlich', 'flach', 'winzig', 'durchsichtig', 'glatt', 'gestreift', 'schmutzig', 'gepunktet', 'sauber', 'groß', 'strahlend', 'lustig', 'dick', 'glänzend', 'klobig', 'niedlich', 'gut', 'flauschig', 'nachhaltig', 'hohl', 'robust', 'schlicht', 'dunkel', 'matt', 'verspielt', 'kaputt']",1,1.2504124999977648,None,,,,,,,,,,,,,,,,,,,,,,,,,,,,,,,,,,,,,,,,,,,,,,,,,,,,,,,,,,,,,,,,,3,2023-11-22_13h45.51.332,watkins1,2023.2.3,99.71839522041239,9,2023-11-22 13h45.57.432264 +0000,
,,,,,,,26,0,26,0,,,,,,,,,,,,,,,,,233.71915939997416,,,,,,,,,,233.71020410000347,234.20111559994984,,,1,3.4471156999934465,,,,,,,,,,,,,,,,,,,,,234.20112640003208,240.20821559999604,Löffel,biegsam,"['Löffel', 'biegsam']",test_adj,3,"['Kette', 'Hammer', 'Ring', 'Brille', 'Kerze', 'Rucksack', 'Flasche', 'Hut', 'Lampe', 'Fahrrad', 'Buch', 'Uhr', 'Stift', 'Socke', 'Tasche', 'Jacke', 'Schere', 'Eimer', 'Kiste', 'Trommel', 'Bürste', 'Vase', 'Geige', 'Würfel', 'Tasse', 'Blume', 'Löffel', 'Schlüssel', 'Kamera', 'Telefon']","['sportlich', 'flach', 'winzig', 'durchsichtig', 'glatt', 'gestreift', 'schmutzig', 'gepunktet', 'sauber', 'groß', 'strahlend', 'lustig', 'dick', 'glänzend', 'klobig', 'niedlich', 'gut', 'flauschig', 'nachhaltig', 'hohl', 'robust', 'schlicht', 'dunkel', 'matt', 'verspielt', 'kaputt', 'biegsam']",1,3.4471156999934465,None,,,,,,,,,,,,,,,,,,,,,,,,,,,,,,,,,,,,,,,,,,,,,,,,,,,,,,,,,,,,,,,,,3,2023-11-22_13h45.51.332,watkins1,2023.2.3,99.71839522041239,9,2023-11-22 13h45.57.432264 +0000,
,,,,,,,27,0,27,0,,,,,,,,,,,,,,,,,240.21767899999395,,,,,,,,,,240.2087373000104,240.699946800014,,,3,2.602433599997312,,,,,,,,,,,,,,,,,,,,,240.6999576999806,246.7085470999591,Schlüssel,nass,"['Schlüssel', 'nass']",restudy,3,"['Kette', 'Hammer', 'Ring', 'Brille', 'Kerze', 'Rucksack', 'Flasche', 'Hut', 'Lampe', 'Fahrrad', 'Buch', 'Uhr', 'Stift', 'Socke', 'Tasche', 'Jacke', 'Schere', 'Eimer', 'Kiste', 'Trommel', 'Bürste', 'Vase', 'Geige', 'Würfel', 'Tasse', 'Blume', 'Löffel', 'Schlüssel', 'Kamera', 'Telefon']","['sportlich', 'flach', 'winzig', 'durchsichtig', 'glatt', 'gestreift', 'schmutzig', 'gepunktet', 'sauber', 'groß', 'strahlend', 'lustig', 'dick', 'glänzend', 'klobig', 'niedlich', 'gut', 'flauschig', 'nachhaltig', 'hohl', 'robust', 'schlicht', 'dunkel', 'matt', 'verspielt', 'kaputt', 'biegsam', 'nass']",3,2.602433599997312,None,,,,,,,,,,,,,,,,,,,,,,,,,,,,,,,,,,,,,,,,,,,,,,,,,,,,,,,,,,,,,,,,,3,2023-11-22_13h45.51.332,watkins1,2023.2.3,99.71839522041239,9,2023-11-22 13h45.57.432264 +0000,
,,,,,,,28,0,28,0,,,,,,,,,,,,,,,,,246.71808240003884,,,,,,,,,,246.7090681999689,247.20011610002257,,,2,2.8889461000217125,,,,,,,,,,,,,,,,,,,,,247.20012619998306,253.20857280003838,Kamera,blass,"['Kamera', 'blass']",test_adj,3,"['Kette', 'Hammer', 'Ring', 'Brille', 'Kerze', 'Rucksack', 'Flasche', 'Hut', 'Lampe', 'Fahrrad', 'Buch', 'Uhr', 'Stift', 'Socke', 'Tasche', 'Jacke', 'Schere', 'Eimer', 'Kiste', 'Trommel', 'Bürste', 'Vase', 'Geige', 'Würfel', 'Tasse', 'Blume', 'Löffel', 'Schlüssel', 'Kamera', 'Telefon']","['sportlich', 'flach', 'winzig', 'durchsichtig', 'glatt', 'gestreift', 'schmutzig', 'gepunktet', 'sauber', 'groß', 'strahlend', 'lustig', 'dick', 'glänzend', 'klobig', 'niedlich', 'gut', 'flauschig', 'nachhaltig', 'hohl', 'robust', 'schlicht', 'dunkel', 'matt', 'verspielt', 'kaputt', 'biegsam', 'nass', 'blass']",2,2.8889461000217125,None,,,,,,,,,,,,,,,,,,,,,,,,,,,,,,,,,,,,,,,,,,,,,,,,,,,,,,,,,,,,,,,,,3,2023-11-22_13h45.51.332,watkins1,2023.2.3,99.71839522041239,9,2023-11-22 13h45.57.432264 +0000,
,,,,,,,29,0,29,0,,,,,,,,,,,,,,,,,253.21800039999653,,,,,,,,,,253.20909400004894,253.70005450001918,,,1,1.0610927999950945,,,,,,,,,,,,,,,,,,,,,253.7000647999812,259.7090562999947,Telefon,zart,"['Telefon', 'zart']",restudy,3,"['Kette', 'Hammer', 'Ring', 'Brille', 'Kerze', 'Rucksack', 'Flasche', 'Hut', 'Lampe', 'Fahrrad', 'Buch', 'Uhr', 'Stift', 'Socke', 'Tasche', 'Jacke', 'Schere', 'Eimer', 'Kiste', 'Trommel', 'Bürste', 'Vase', 'Geige', 'Würfel', 'Tasse', 'Blume', 'Löffel', 'Schlüssel', 'Kamera', 'Telefon']","['sportlich', 'flach', 'winzig', 'durchsichtig', 'glatt', 'gestreift', 'schmutzig', 'gepunktet', 'sauber', 'groß', 'strahlend', 'lustig', 'dick', 'glänzend', 'klobig', 'niedlich', 'gut', 'flauschig', 'nachhaltig', 'hohl', 'robust', 'schlicht', 'dunkel', 'matt', 'verspielt', 'kaputt', 'biegsam', 'nass', 'blass', 'zart']",1,1.0610927999950945,None,,,,,,,,,,,,,,,,,,,,,,,,,,,,,,,,,,,,,,,,,,,,,,,,,,,,,,,,,,,,,,,,,3,2023-11-22_13h45.51.332,watkins1,2023.2.3,99.71839522041239,9,2023-11-22 13h45.57.432264 +0000,
,,,,,,,,,,,0,0,0,0,,,,,,,,,,,,,259.7185982000083,,,,,,,,,,259.70990380004514,260.2007531999843,,,[],[],,,,,,,,,,,,None,None,,,,,,,,,,Blume,kaputt,"['Blume', 'kaputt']",restudy,3,,,,,,259.7098287999397,259.70987609995063,"['Blume', 'Socke', 'Uhr', 'Eimer', 'Hammer', 'Flasche', 'Buch', 'Lampe', 'Schere', 'Schlüssel', 'Kiste', 'Löffel', 'Ring', 'Rucksack', 'Geige', 'Telefon', 'Kerze', 'Vase', 'Tasche', 'Hut', 'Würfel', 'Bürste', 'Kamera', 'Fahrrad', 'Tasse', 'Stift', 'Trommel', 'Brille', 'Kette', 'Jacke']",260.20076399995014,260.20329169998877,None,260.2034734999761,266.2066824999638,1,1.0366033999016508,None,266.20709479996003,266.20974459999707,None,266.2099050999386,266.2110696999589,266.21108200005256,266.21233550005127,,,,,,,,,,,,,,,,,,,,,,,,,,,,,,,,,,,,,,,,,,,,,,,3,2023-11-22_13h45.51.332,watkins1,2023.2.3,99.71839522041239,9,2023-11-22 13h45.57.432264 +0000,
,,,,,,,,,,,1,0,1,0,,,,,,,,,,,,,266.2161527000135,,,,,,,,,,266.21262580004986,266.7082154999953,,,[],[],,,,,,,,,,,,None,None,,,,,,,,,,Socke,glänzend,"['Socke', 'glänzend']",test_adj,3,,,,,,266.2125592000084,266.2125974999508,"['Blume', 'Socke', 'Uhr', 'Eimer', 'Hammer', 'Flasche', 'Buch', 'Lampe', 'Schere', 'Schlüssel', 'Kiste', 'Löffel', 'Ring', 'Rucksack', 'Geige', 'Telefon', 'Kerze', 'Vase', 'Tasche', 'Hut', 'Würfel', 'Bürste', 'Kamera', 'Fahrrad', 'Tasse', 'Stift', 'Trommel', 'Brille', 'Kette', 'Jacke']",266.708227599971,266.71094260003883,None,266.71106719993986,266.71247639996,None,,,266.7125850999728,266.7139890999533,None,266.71409559994936,272.7166835999815,272.7166984999785,272.7180744999787,0,,,,,,,,,,,,,,,,,,,,,,,,,,,,,,,,,,,,,,,,,,,,,,3,2023-11-22_13h45.51.332,watkins1,2023.2.3,99.71839522041239,9,2023-11-22 13h45.57.432264 +0000,
,,,,,,,,,,,2,0,2,0,,,,,,,,,,,,,272.7264850999927,,,,,,,,,,272.718362399959,273.2085639999714,,,[],[],,,,,,,,,,,,None,None,,,,,,,,,,Uhr,lustig,"['Uhr', 'lustig']",restudy,3,,,,,,272.71829630003776,272.7183334999718,"['Blume', 'Socke', 'Uhr', 'Eimer', 'Hammer', 'Flasche', 'Buch', 'Lampe', 'Schere', 'Schlüssel', 'Kiste', 'Löffel', 'Ring', 'Rucksack', 'Geige', 'Telefon', 'Kerze', 'Vase', 'Tasche', 'Hut', 'Würfel', 'Bürste', 'Kamera', 'Fahrrad', 'Tasse', 'Stift', 'Trommel', 'Brille', 'Kette', 'Jacke']",273.20857440005057,273.21115129999816,None,273.211272799992,279.2149120999966,1,1.6940418999874964,None,279.2152103999397,279.2177718000021,None,279.2178836000385,279.2189004999818,279.21891229995526,279.2201062999666,,,,,,,,,,,,,,,,,,,,,,,,,,,,,,,,,,,,,,,,,,,,,,,3,2023-11-22_13h45.51.332,watkins1,2023.2.3,99.71839522041239,9,2023-11-22 13h45.57.432264 +0000,
,,,,,,,,,,,3,0,3,0,,,,,,,,,,,,,279.224385599955,,,,,,,,,,279.22038840001915,279.7164621000411,,,[],[],,,,,,,,,,,nass,None,None,,,,,,,,,,Eimer,flauschig,"['Eimer', 'flauschig']",test_adj,3,,,,,,279.22032339998987,279.2203613000456,"['Blume', 'Socke', 'Uhr', 'Eimer', 'Hammer', 'Flasche', 'Buch', 'Lampe', 'Schere', 'Schlüssel', 'Kiste', 'Löffel', 'Ring', 'Rucksack', 'Geige', 'Telefon', 'Kerze', 'Vase', 'Tasche', 'Hut', 'Würfel', 'Bürste', 'Kamera', 'Fahrrad', 'Tasse', 'Stift', 'Trommel', 'Brille', 'Kette', 'Jacke']",279.7164724000031,279.7191405999474,None,279.71926649997476,279.720693500014,None,,,279.72080440004356,279.72224579995964,None,279.7223547999747,285.72437149996404,285.72438569995575,285.72577759996057,0,,,,,,,,,,,,,,,,,,,,,,,,,,,,,,,,,,,,,,,,,,,,,,3,2023-11-22_13h45.51.332,watkins1,2023.2.3,99.71839522041239,9,2023-11-22 13h45.57.432264 +0000,
,,,,,,,,,,,4,0,4,0,,,,,,,,,,,,,285.7342623999575,,,,,,,,,,285.7260637000436,286.21627099998295,,,[],[],,,,,,,,,,,,None,None,,,,,,,,,,Hammer,flach,"['Hammer', 'flach']",restudy,3,,,,,,285.7259963999968,285.72603479993995,"['Blume', 'Socke', 'Uhr', 'Eimer', 'Hammer', 'Flasche', 'Buch', 'Lampe', 'Schere', 'Schlüssel', 'Kiste', 'Löffel', 'Ring', 'Rucksack', 'Geige', 'Telefon', 'Kerze', 'Vase', 'Tasche', 'Hut', 'Würfel', 'Bürste', 'Kamera', 'Fahrrad', 'Tasse', 'Stift', 'Trommel', 'Brille', 'Kette', 'Jacke']",286.2162811999442,286.21901200001594,None,286.2191324000014,292.2264032999519,2,2.782146699959412,None,292.2266977999825,292.22937650000677,None,292.22948780003935,292.2311562000541,292.23116850003134,292.23239040002227,,,,,,,,,,,,,,,,,,,,,,,,,,,,,,,,,,,,,,,,,,,,,,,3,2023-11-22_13h45.51.332,watkins1,2023.2.3,99.71839522041239,9,2023-11-22 13h45.57.432264 +0000,
,,,,,,,,,,,5,0,5,0,,,,,,,,,,,,,292.23587450000923,,,,,,,,,,292.2326862999471,292.72786939993966,,,[],[],,,,,,,,,,,verschmutzt,None,None,,,,,,,,,,Flasche,schmutzig,"['Flasche', 'schmutzig']",test_adj,3,,,,,,292.2326183000114,292.2326580999652,"['Blume', 'Socke', 'Uhr', 'Eimer', 'Hammer', 'Flasche', 'Buch', 'Lampe', 'Schere', 'Schlüssel', 'Kiste', 'Löffel', 'Ring', 'Rucksack', 'Geige', 'Telefon', 'Kerze', 'Vase', 'Tasche', 'Hut', 'Würfel', 'Bürste', 'Kamera', 'Fahrrad', 'Tasse', 'Stift', 'Trommel', 'Brille', 'Kette', 'Jacke']",292.7278802000219,292.7306048000464,None,292.7307294999482,292.73218629998155,None,,,292.73229569999967,292.73375450004824,None,292.7338623999385,298.735375200049,298.7353900000453,298.7367725999793,0,,,,,,,,,,,,,,,,,,,,,,,,,,,,,,,,,,,,,,,,,,,,,,3,2023-11-22_13h45.51.332,watkins1,2023.2.3,99.71839522041239,9,2023-11-22 13h45.57.432264 +0000,
,,,,,,,,,,,6,0,6,0,,,,,,,,,,,,,298.7451795999659,,,,,,,,,,298.73706349998247,299.2270777999656,,,[],[],,,,,,,,,,,glatt,None,None,,,,,,,,,,Buch,strahlend,"['Buch', 'strahlend']",test_adj,3,,,,,,298.73699330003,298.73703349998686,"['Blume', 'Socke', 'Uhr', 'Eimer', 'Hammer', 'Flasche', 'Buch', 'Lampe', 'Schere', 'Schlüssel', 'Kiste', 'Löffel', 'Ring', 'Rucksack', 'Geige', 'Telefon', 'Kerze', 'Vase', 'Tasche', 'Hut', 'Würfel', 'Bürste', 'Kamera', 'Fahrrad', 'Tasse', 'Stift', 'Trommel', 'Brille', 'Kette', 'Jacke']",299.2270875000395,299.22984789998736,None,299.2299706999911,299.232496600016,None,,,299.23260810005013,299.2350634000031,None,299.2351713000098,305.2389203000348,305.2389351000311,305.2404532999499,0,,,,,,,,,,,,,,,,,,,,,,,,,,,,,,,,,,,,,,,,,,,,,,3,2023-11-22_13h45.51.332,watkins1,2023.2.3,99.71839522041239,9,2023-11-22 13h45.57.432264 +0000,
,,,,,,,,,,,7,0,7,0,,,,,,,,,,,,,305.2487117999699,,,,,,,,,,305.2407422999386,305.73071569995955,,,[],[],,,,,,,,,,,,None,None,,,,,,,,,,Lampe,sauber,"['Lampe', 'sauber']",restudy,3,,,,,,305.2406720999861,305.24071309994906,"['Blume', 'Socke', 'Uhr', 'Eimer', 'Hammer', 'Flasche', 'Buch', 'Lampe', 'Schere', 'Schlüssel', 'Kiste', 'Löffel', 'Ring', 'Rucksack', 'Geige', 'Telefon', 'Kerze', 'Vase', 'Tasche', 'Hut', 'Würfel', 'Bürste', 'Kamera', 'Fahrrad', 'Tasse', 'Stift', 'Trommel', 'Brille', 'Kette', 'Jacke']",305.73072610003874,305.7334986999631,None,305.73362329998054,311.7386529999785,1,3.075593800051138,None,311.7389455999946,311.74169599998277,None,311.74180650000926,311.74327510001604,311.7432873999933,311.744465900003,,,,,,,,,,,,,,,,,,,,,,,,,,,,,,,,,,,,,,,,,,,,,,,3,2023-11-22_13h45.51.332,watkins1,2023.2.3,99.71839522041239,9,2023-11-22 13h45.57.432264 +0000,
,,,,,,,,,,,8,0,8,0,,,,,,,,,,,,,311.74807370000053,,,,,,,,,,311.7447466000449,312.24014809995424,,,[],[],,,,,,,,,,,gut,None,None,,,,,,,,,,Schere,gut,"['Schere', 'gut']",test_adj,3,,,,,,311.74468120001256,311.7447188999504,"['Blume', 'Socke', 'Uhr', 'Eimer', 'Hammer', 'Flasche', 'Buch', 'Lampe', 'Schere', 'Schlüssel', 'Kiste', 'Löffel', 'Ring', 'Rucksack', 'Geige', 'Telefon', 'Kerze', 'Vase', 'Tasche', 'Hut', 'Würfel', 'Bürste', 'Kamera', 'Fahrrad', 'Tasse', 'Stift', 'Trommel', 'Brille', 'Kette', 'Jacke']",312.2401586000342,312.24287950003054,None,312.243002000032,312.2444827000145,None,,,312.24459330004174,312.2460492999526,None,312.2461586999707,318.25000060000457,318.25001459999476,318.25123809999786,0,,,,,,,,,,,,,,,,,,,,,,,,,,,,,,,,,,,,,,,,,,,,,,3,2023-11-22_13h45.51.332,watkins1,2023.2.3,99.71839522041239,9,2023-11-22 13h45.57.432264 +0000,
,,,,,,,,,,,9,0,9,0,,,,,,,,,,,,,318.25977010000497,,,,,,,,,,318.2515219999477,318.74194990005344,,,[],[],,,,,,,,,,,,None,None,,,,,,,,,,Schlüssel,nass,"['Schlüssel', 'nass']",restudy,3,,,,,,318.25145470001735,318.25149269995745,"['Blume', 'Socke', 'Uhr', 'Eimer', 'Hammer', 'Flasche', 'Buch', 'Lampe', 'Schere', 'Schlüssel', 'Kiste', 'Löffel', 'Ring', 'Rucksack', 'Geige', 'Telefon', 'Kerze', 'Vase', 'Tasche', 'Hut', 'Würfel', 'Bürste', 'Kamera', 'Fahrrad', 'Tasse', 'Stift', 'Trommel', 'Brille', 'Kette', 'Jacke']",318.741960400017,318.74455629999284,None,318.74467429996,324.74617900000885,2,3.6006349000381306,None,324.7464651999762,324.7491490000393,None,324.7492581999395,324.7507832000265,324.75079520000145,324.751811599941,,,,,,,,,,,,,,,,,,,,,,,,,,,,,,,,,,,,,,,,,,,,,,,3,2023-11-22_13h45.51.332,watkins1,2023.2.3,99.71839522041239,9,2023-11-22 13h45.57.432264 +0000,
,,,,,,,,,,,10,0,10,0,,,,,,,,,,,,,324.7556886000093,,,,,,,,,,324.75208979996387,325.2479330999777,,,[],[],,,,,,,,,,,,None,None,,,,,,,,,,Kiste,nachhaltig,"['Kiste', 'nachhaltig']",restudy,3,,,,,,324.7520252999384,324.75206319999415,"['Blume', 'Socke', 'Uhr', 'Eimer', 'Hammer', 'Flasche', 'Buch', 'Lampe', 'Schere', 'Schlüssel', 'Kiste', 'Löffel', 'Ring', 'Rucksack', 'Geige', 'Telefon', 'Kerze', 'Vase', 'Tasche', 'Hut', 'Würfel', 'Bürste', 'Kamera', 'Fahrrad', 'Tasse', 'Stift', 'Trommel', 'Brille', 'Kette', 'Jacke']",325.24794379994273,325.2504526999546,None,325.25057499995455,331.2547613000497,3,1.8153813999379054,None,331.25505929999053,331.25789100001566,None,331.258002400049,331.2591602000175,331.25917219999246,331.2604353999486,,,,,,,,,,,,,,,,,,,,,,,,,,,,,,,,,,,,,,,,,,,,,,,3,2023-11-22_13h45.51.332,watkins1,2023.2.3,99.71839522041239,9,2023-11-22 13h45.57.432264 +0000,
,,,,,,,,,,,11,0,11,0,,,,,,,,,,,,,331.2642130999593,,,,,,,,,,331.2607132999692,331.7562318999553,,,[],[],,,,,,,,,,,biegsam,None,None,,,,,,,,,,Löffel,biegsam,"['Löffel', 'biegsam']",test_adj,3,,,,,,331.26064829993993,331.2606858999934,"['Blume', 'Socke', 'Uhr', 'Eimer', 'Hammer', 'Flasche', 'Buch', 'Lampe', 'Schere', 'Schlüssel', 'Kiste', 'Löffel', 'Ring', 'Rucksack', 'Geige', 'Telefon', 'Kerze', 'Vase', 'Tasche', 'Hut', 'Würfel', 'Bürste', 'Kamera', 'Fahrrad', 'Tasse', 'Stift', 'Trommel', 'Brille', 'Kette', 'Jacke']",331.75624270003755,331.7590154999634,None,331.75913759996183,331.76057809998747,None,,,331.7606856999919,331.7621060999809,None,331.7622121999739,337.76370510004926,337.7637195000425,337.7650670999428,0,,,,,,,,,,,,,,,,,,,,,,,,,,,,,,,,,,,,,,,,,,,,,,3,2023-11-22_13h45.51.332,watkins1,2023.2.3,99.71839522041239,9,2023-11-22 13h45.57.432264 +0000,
,,,,,,,,,,,12,0,12,0,,,,,,,,,,,,,337.7735004000133,,,,,,,,,,337.76535450003576,338.2554862999823,,,[],[],,,,,,,,,,,winzig,None,None,,,,,,,,,,Ring,winzig,"['Ring', 'winzig']",test_adj,3,,,,,,337.765285499976,337.7653251000447,"['Blume', 'Socke', 'Uhr', 'Eimer', 'Hammer', 'Flasche', 'Buch', 'Lampe', 'Schere', 'Schlüssel', 'Kiste', 'Löffel', 'Ring', 'Rucksack', 'Geige', 'Telefon', 'Kerze', 'Vase', 'Tasche', 'Hut', 'Würfel', 'Bürste', 'Kamera', 'Fahrrad', 'Tasse', 'Stift', 'Trommel', 'Brille', 'Kette', 'Jacke']",338.25549619994126,338.2580935000442,None,338.2582173999399,338.26063529995736,None,,,338.2607432999648,338.26316440000664,None,338.26327100000344,344.2667643999448,344.26677860005293,344.26810989994556,0,,,,,,,,,,,,,,,,,,,,,,,,,,,,,,,,,,,,,,,,,,,,,,3,2023-11-22_13h45.51.332,watkins1,2023.2.3,99.71839522041239,9,2023-11-22 13h45.57.432264 +0000,
,,,,,,,,,,,13,0,13,0,,,,,,,,,,,,,344.27666890004184,,,,,,,,,,344.2683942000149,344.7585467000026,,,[],[],,,,,,,,,,,,None,None,,,,,,,,,,Rucksack,gestreift,"['Rucksack', 'gestreift']",restudy,3,,,,,,344.26832649996504,344.26836560002994,"['Blume', 'Socke', 'Uhr', 'Eimer', 'Hammer', 'Flasche', 'Buch', 'Lampe', 'Schere', 'Schlüssel', 'Kiste', 'Löffel', 'Ring', 'Rucksack', 'Geige', 'Telefon', 'Kerze', 'Vase', 'Tasche', 'Hut', 'Würfel', 'Bürste', 'Kamera', 'Fahrrad', 'Tasse', 'Stift', 'Trommel', 'Brille', 'Kette', 'Jacke']",344.75855719996616,344.76128219999373,None,344.7614043999929,350.7623703000136,1,1.7437306999927387,None,350.76266679994296,350.7654933000449,None,350.76560539996717,350.76714520005044,350.7671569000231,350.7683920999989,,,,,,,,,,,,,,,,,,,,,,,,,,,,,,,,,,,,,,,,,,,,,,,3,2023-11-22_13h45.51.332,watkins1,2023.2.3,99.71839522041239,9,2023-11-22 13h45.57.432264 +0000,
,,,,,,,,,,,14,0,14,0,,,,,,,,,,,,,350.7718371000374,,,,,,,,,,350.76867469993886,351.26399230002426,,,[],[],,,,,,,,,,,,None,None,,,,,,,,,,Geige,dunkel,"['Geige', 'dunkel']",restudy,3,,,,,,350.7686066000024,350.7686450999463,"['Blume', 'Socke', 'Uhr', 'Eimer', 'Hammer', 'Flasche', 'Buch', 'Lampe', 'Schere', 'Schlüssel', 'Kiste', 'Löffel', 'Ring', 'Rucksack', 'Geige', 'Telefon', 'Kerze', 'Vase', 'Tasche', 'Hut', 'Würfel', 'Bürste', 'Kamera', 'Fahrrad', 'Tasse', 'Stift', 'Trommel', 'Brille', 'Kette', 'Jacke']",351.26400259998627,351.26716759998817,None,351.2672900999896,357.27565029996913,2,1.4058974999934435,None,357.2759464000119,357.27877049997915,None,357.27888150000945,357.2800391999772,357.2800509999506,357.28122220002115,,,,,,,,,,,,,,,,,,,,,,,,,,,,,,,,,,,,,,,,,,,,,,,3,2023-11-22_13h45.51.332,watkins1,2023.2.3,99.71839522041239,9,2023-11-22 13h45.57.432264 +0000,
,,,,,,,,,,,15,0,15,0,,,,,,,,,,,,,357.2851394000463,,,,,,,,,,357.2815045999596,357.7771714000264,,,[],[],,,,,,,,,,,,None,None,,,,,,,,,,Telefon,zart,"['Telefon', 'zart']",restudy,3,,,,,,357.2814381000353,357.28147649997845,"['Blume', 'Socke', 'Uhr', 'Eimer', 'Hammer', 'Flasche', 'Buch', 'Lampe', 'Schere', 'Schlüssel', 'Kiste', 'Löffel', 'Ring', 'Rucksack', 'Geige', 'Telefon', 'Kerze', 'Vase', 'Tasche', 'Hut', 'Würfel', 'Bürste', 'Kamera', 'Fahrrad', 'Tasse', 'Stift', 'Trommel', 'Brille', 'Kette', 'Jacke']",357.77718219999224,357.77990550000686,None,357.7800299000228,363.79019169998355,1,1.7412697999970987,None,363.7904947999632,363.79303850000724,None,363.7931491000345,363.79432999994606,363.7943421000382,363.7953684000531,,,,,,,,,,,,,,,,,,,,,,,,,,,,,,,,,,,,,,,,,,,,,,,3,2023-11-22_13h45.51.332,watkins1,2023.2.3,99.71839522041239,9,2023-11-22 13h45.57.432264 +0000,
,,,,,,,,,,,16,0,16,0,,,,,,,,,,,,,363.79974259994924,,,,,,,,,,363.7956465999596,364.29176599998027,,,[],[],,,,,,,,,,,,None,None,,,,,,,,,,Kerze,glatt,"['Kerze', 'glatt']",restudy,3,,,,,,363.7955809000414,363.7956193999853,"['Blume', 'Socke', 'Uhr', 'Eimer', 'Hammer', 'Flasche', 'Buch', 'Lampe', 'Schere', 'Schlüssel', 'Kiste', 'Löffel', 'Ring', 'Rucksack', 'Geige', 'Telefon', 'Kerze', 'Vase', 'Tasche', 'Hut', 'Würfel', 'Bürste', 'Kamera', 'Fahrrad', 'Tasse', 'Stift', 'Trommel', 'Brille', 'Kette', 'Jacke']",364.2917767999461,364.2944366999436,None,364.294569700025,370.29739880003035,3,2.3547971999505535,None,370.29769499995746,370.300344999996,None,370.300457400037,370.3016183000291,370.3016306000063,370.3027672000462,,,,,,,,,,,,,,,,,,,,,,,,,,,,,,,,,,,,,,,,,,,,,,,3,2023-11-22_13h45.51.332,watkins1,2023.2.3,99.71839522041239,9,2023-11-22 13h45.57.432264 +0000,
,,,,,,,,,,,17,0,17,0,,,,,,,,,,,,,370.30688339995686,,,,,,,,,,370.30304619995877,370.7988288999768,,,[],[],,,,,,,,,,,,None,None,,,,,,,,,,Vase,schlicht,"['Vase', 'schlicht']",restudy,3,,,,,,370.3029805000406,370.30301859998144,"['Blume', 'Socke', 'Uhr', 'Eimer', 'Hammer', 'Flasche', 'Buch', 'Lampe', 'Schere', 'Schlüssel', 'Kiste', 'Löffel', 'Ring', 'Rucksack', 'Geige', 'Telefon', 'Kerze', 'Vase', 'Tasche', 'Hut', 'Würfel', 'Bürste', 'Kamera', 'Fahrrad', 'Tasse', 'Stift', 'Trommel', 'Brille', 'Kette', 'Jacke']",370.79883959994186,370.8014953000238,None,370.80161940003745,376.8041744000511,2,2.0637643999652937,None,376.80447029997595,376.80705549998675,None,376.8071679000277,376.8082148999674,376.80822729994543,376.80943729996216,,,,,,,,,,,,,,,,,,,,,,,,,,,,,,,,,,,,,,,,,,,,,,,3,2023-11-22_13h45.51.332,watkins1,2023.2.3,99.71839522041239,9,2023-11-22 13h45.57.432264 +0000,
,,,,,,,,,,,18,0,18,0,,,,,,,,,,,,,376.81359479995444,,,,,,,,,,376.80971699999645,377.305656200042,,,[],[],,,,,,,,,,,,None,None,,,,,,,,,,Tasche,klobig,"['Tasche', 'klobig']",restudy,3,,,,,,376.8096513999626,376.8096894000191,"['Blume', 'Socke', 'Uhr', 'Eimer', 'Hammer', 'Flasche', 'Buch', 'Lampe', 'Schere', 'Schlüssel', 'Kiste', 'Löffel', 'Ring', 'Rucksack', 'Geige', 'Telefon', 'Kerze', 'Vase', 'Tasche', 'Hut', 'Würfel', 'Bürste', 'Kamera', 'Fahrrad', 'Tasse', 'Stift', 'Trommel', 'Brille', 'Kette', 'Jacke']",377.30566670000553,377.308507299982,None,377.3086289999774,383.3204196000006,3,1.5165208000689745,None,383.3207077999832,383.3233532999875,None,383.3234600999858,383.3246002000524,383.32461190002505,383.3257461000467,,,,,,,,,,,,,,,,,,,,,,,,,,,,,,,,,,,,,,,,,,,,,,,3,2023-11-22_13h45.51.332,watkins1,2023.2.3,99.71839522041239,9,2023-11-22 13h45.57.432264 +0000,
,,,,,,,,,,,19,0,19,0,,,,,,,,,,,,,383.32987689995207,,,,,,,,,,383.32601620000787,383.82100730005186,,,[],[],,,,,,,,,,,gepunktet,None,None,,,,,,,,,,Hut,gepunktet,"['Hut', 'gepunktet']",test_adj,3,,,,,,383.3259536999976,383.32599060004577,"['Blume', 'Socke', 'Uhr', 'Eimer', 'Hammer', 'Flasche', 'Buch', 'Lampe', 'Schere', 'Schlüssel', 'Kiste', 'Löffel', 'Ring', 'Rucksack', 'Geige', 'Telefon', 'Kerze', 'Vase', 'Tasche', 'Hut', 'Würfel', 'Bürste', 'Kamera', 'Fahrrad', 'Tasse', 'Stift', 'Trommel', 'Brille', 'Kette', 'Jacke']",383.8210178000154,383.82367039995734,None,383.8237962999847,383.825075599947,None,,,383.82518389995676,383.8264586000005,None,383.8265664000064,389.8272967999801,389.8273110999726,389.82878069998696,0,,,,,,,,,,,,,,,,,,,,,,,,,,,,,,,,,,,,,,,,,,,,,,3,2023-11-22_13h45.51.332,watkins1,2023.2.3,99.71839522041239,9,2023-11-22 13h45.57.432264 +0000,
,,,,,,,,,,,20,0,20,0,,,,,,,,,,,,,389.83720329997595,,,,,,,,,,389.829068299965,390.3190621000249,,,[],[],,,,,,,,,,,matt,None,None,,,,,,,,,,Würfel,matt,"['Würfel', 'matt']",test_adj,3,,,,,,389.829000000027,389.82903949997853,"['Blume', 'Socke', 'Uhr', 'Eimer', 'Hammer', 'Flasche', 'Buch', 'Lampe', 'Schere', 'Schlüssel', 'Kiste', 'Löffel', 'Ring', 'Rucksack', 'Geige', 'Telefon', 'Kerze', 'Vase', 'Tasche', 'Hut', 'Würfel', 'Bürste', 'Kamera', 'Fahrrad', 'Tasse', 'Stift', 'Trommel', 'Brille', 'Kette', 'Jacke']",390.3190726999892,390.321843200014,None,390.32196930004284,390.3245553999441,None,,,390.3246644999599,390.32725189998746,None,390.327358599985,396.33163969998714,396.3316537999781,396.3328009999823,0,,,,,,,,,,,,,,,,,,,,,,,,,,,,,,,,,,,,,,,,,,,,,,3,2023-11-22_13h45.51.332,watkins1,2023.2.3,99.71839522041239,9,2023-11-22 13h45.57.432264 +0000,
,,,,,,,,,,,21,0,21,0,,,,,,,,,,,,,396.34145109995734,,,,,,,,,,396.3330909999786,396.8235224999953,,,[],[],,,,,,,,,,,robust,None,None,,,,,,,,,,Bürste,robust,"['Bürste', 'robust']",test_adj,3,,,,,,396.33302150003146,396.3330616999883,"['Blume', 'Socke', 'Uhr', 'Eimer', 'Hammer', 'Flasche', 'Buch', 'Lampe', 'Schere', 'Schlüssel', 'Kiste', 'Löffel', 'Ring', 'Rucksack', 'Geige', 'Telefon', 'Kerze', 'Vase', 'Tasche', 'Hut', 'Würfel', 'Bürste', 'Kamera', 'Fahrrad', 'Tasse', 'Stift', 'Trommel', 'Brille', 'Kette', 'Jacke']",396.823534199968,396.82614230003674,None,396.8262691999553,396.8286795000313,None,,,396.82878979993984,396.8311726000393,None,396.83128080004826,402.83518449997064,402.8351993999677,402.83650660002604,0,,,,,,,,,,,,,,,,,,,,,,,,,,,,,,,,,,,,,,,,,,,,,,3,2023-11-22_13h45.51.332,watkins1,2023.2.3,99.71839522041239,9,2023-11-22 13h45.57.432264 +0000,
,,,,,,,,,,,22,0,22,0,,,,,,,,,,,,,402.84498189995065,,,,,,,,,,402.8367930999957,403.3270323999459,,,[],[],,,,,,,,,,,blass,None,None,,,,,,,,,,Kamera,blass,"['Kamera', 'blass']",test_adj,3,,,,,,402.83672180003487,402.8367617999902,"['Blume', 'Socke', 'Uhr', 'Eimer', 'Hammer', 'Flasche', 'Buch', 'Lampe', 'Schere', 'Schlüssel', 'Kiste', 'Löffel', 'Ring', 'Rucksack', 'Geige', 'Telefon', 'Kerze', 'Vase', 'Tasche', 'Hut', 'Würfel', 'Bürste', 'Kamera', 'Fahrrad', 'Tasse', 'Stift', 'Trommel', 'Brille', 'Kette', 'Jacke']",403.3270430000266,403.329707799945,None,403.32982780004386,403.3325042000506,None,,,403.3326125999447,403.3351240999764,None,403.3352361000143,409.3398299999535,409.33984389994293,409.3410892999964,0,,,,,,,,,,,,,,,,,,,,,,,,,,,,,,,,,,,,,,,,,,,,,,3,2023-11-22_13h45.51.332,watkins1,2023.2.3,99.71839522041239,9,2023-11-22 13h45.57.432264 +0000,
,,,,,,,,,,,23,0,23,0,,,,,,,,,,,,,409.34970060002524,,,,,,,,,,409.34137239994016,409.8316631000489,,,[],[],,,,,,,,,,,,None,None,,,,,,,,,,Fahrrad,groß,"['Fahrrad', 'groß']",restudy,3,,,,,,409.34130390000064,409.34134399995673,"['Blume', 'Socke', 'Uhr', 'Eimer', 'Hammer', 'Flasche', 'Buch', 'Lampe', 'Schere', 'Schlüssel', 'Kiste', 'Löffel', 'Ring', 'Rucksack', 'Geige', 'Telefon', 'Kerze', 'Vase', 'Tasche', 'Hut', 'Würfel', 'Bürste', 'Kamera', 'Fahrrad', 'Tasse', 'Stift', 'Trommel', 'Brille', 'Kette', 'Jacke']",409.8316735000117,409.8343618999934,None,409.83449419995304,415.8399370999541,3,1.7509365999139845,None,415.84023169998545,415.8427972999634,None,415.8429127000272,415.8444070999976,415.84441919997334,415.84545949997846,,,,,,,,,,,,,,,,,,,,,,,,,,,,,,,,,,,,,,,,,,,,,,,3,2023-11-22_13h45.51.332,watkins1,2023.2.3,99.71839522041239,9,2023-11-22 13h45.57.432264 +0000,
,,,,,,,,,,,24,0,24,0,,,,,,,,,,,,,415.8495004000142,,,,,,,,,,415.8457388000097,416.3415621999884,,,[],[],,,,,,,,,,,,None,None,,,,,,,,,,Tasse,verspielt,"['Tasse', 'verspielt']",test_adj,3,,,,,,415.8456725999713,415.84571150003467,"['Blume', 'Socke', 'Uhr', 'Eimer', 'Hammer', 'Flasche', 'Buch', 'Lampe', 'Schere', 'Schlüssel', 'Kiste', 'Löffel', 'Ring', 'Rucksack', 'Geige', 'Telefon', 'Kerze', 'Vase', 'Tasche', 'Hut', 'Würfel', 'Bürste', 'Kamera', 'Fahrrad', 'Tasse', 'Stift', 'Trommel', 'Brille', 'Kette', 'Jacke']",416.34157239994965,416.3440566000063,None,416.34417679999024,416.3456027000211,None,,,416.3457117000362,416.3471218999475,None,416.3472285999451,422.34860999998637,422.3486235999735,422.3500907999696,0,,,,,,,,,,,,,,,,,,,,,,,,,,,,,,,,,,,,,,,,,,,,,,3,2023-11-22_13h45.51.332,watkins1,2023.2.3,99.71839522041239,9,2023-11-22 13h45.57.432264 +0000,
,,,,,,,,,,,25,0,25,0,,,,,,,,,,,,,422.3583645999897,,,,,,,,,,422.3503747000359,422.8403889000183,,,[],[],,,,,,,,,,,dick,None,None,,,,,,,,,,Stift,dick,"['Stift', 'dick']",test_adj,3,,,,,,422.35030829999596,422.35034610005096,"['Blume', 'Socke', 'Uhr', 'Eimer', 'Hammer', 'Flasche', 'Buch', 'Lampe', 'Schere', 'Schlüssel', 'Kiste', 'Löffel', 'Ring', 'Rucksack', 'Geige', 'Telefon', 'Kerze', 'Vase', 'Tasche', 'Hut', 'Würfel', 'Bürste', 'Kamera', 'Fahrrad', 'Tasse', 'Stift', 'Trommel', 'Brille', 'Kette', 'Jacke']",422.84039989998564,422.8431576000294,None,422.8432868999662,422.8458697999595,None,,,422.8459817999974,422.84855110000353,None,422.8486604000209,428.8522852000315,428.8522991000209,428.85345860000234,0,,,,,,,,,,,,,,,,,,,,,,,,,,,,,,,,,,,,,,,,,,,,,,3,2023-11-22_13h45.51.332,watkins1,2023.2.3,99.71839522041239,9,2023-11-22 13h45.57.432264 +0000,
,,,,,,,,,,,26,0,26,0,,,,,,,,,,,,,428.86214740003925,,,,,,,,,,428.85374109994154,429.34411279996857,,,[],[],,,,,,,,,,,,None,None,,,,,,,,,,Trommel,hohl,"['Trommel', 'hohl']",restudy,3,,,,,,428.85367380001117,428.85371189995203,"['Blume', 'Socke', 'Uhr', 'Eimer', 'Hammer', 'Flasche', 'Buch', 'Lampe', 'Schere', 'Schlüssel', 'Kiste', 'Löffel', 'Ring', 'Rucksack', 'Geige', 'Telefon', 'Kerze', 'Vase', 'Tasche', 'Hut', 'Würfel', 'Bürste', 'Kamera', 'Fahrrad', 'Tasse', 'Stift', 'Trommel', 'Brille', 'Kette', 'Jacke']",429.34412320004776,429.3467055000365,None,429.34683019993827,435.3499312000349,3,1.5986235999735072,None,435.35022499994375,435.35280170000624,None,435.352912500035,435.3544146999484,435.354426600039,435.3554626000114,,,,,,,,,,,,,,,,,,,,,,,,,,,,,,,,,,,,,,,,,,,,,,,3,2023-11-22_13h45.51.332,watkins1,2023.2.3,99.71839522041239,9,2023-11-22 13h45.57.432264 +0000,
,,,,,,,,,,,27,0,27,0,,,,,,,,,,,,,435.3594010999659,,,,,,,,,,435.35574060003273,435.8514374999795,,,[],[],,,,,,,,,,,durchsich,None,None,,,,,,,,,,Brille,durchsichtig,"['Brille', 'durchsichtig']",test_adj,3,,,,,,435.3556755000027,435.35571329994127,"['Blume', 'Socke', 'Uhr', 'Eimer', 'Hammer', 'Flasche', 'Buch', 'Lampe', 'Schere', 'Schlüssel', 'Kiste', 'Löffel', 'Ring', 'Rucksack', 'Geige', 'Telefon', 'Kerze', 'Vase', 'Tasche', 'Hut', 'Würfel', 'Bürste', 'Kamera', 'Fahrrad', 'Tasse', 'Stift', 'Trommel', 'Brille', 'Kette', 'Jacke']",435.8514480999438,435.8540012999438,None,435.8541256999597,435.8555525999982,None,,,435.85566220001783,435.8570982000092,None,435.85728019999806,441.85893909994047,441.8589538000524,441.86033239995595,0,,,,,,,,,,,,,,,,,,,,,,,,,,,,,,,,,,,,,,,,,,,,,,3,2023-11-22_13h45.51.332,watkins1,2023.2.3,99.71839522041239,9,2023-11-22 13h45.57.432264 +0000,
,,,,,,,,,,,28,0,28,0,,,,,,,,,,,,,441.8685953000095,,,,,,,,,,441.8606198000489,442.3505769999465,,,[],[],,,,,,,,,,,,None,None,,,,,,,,,,Kette,sportlich,"['Kette', 'sportlich']",restudy,3,,,,,,441.86055049998686,441.8605906999437,"['Blume', 'Socke', 'Uhr', 'Eimer', 'Hammer', 'Flasche', 'Buch', 'Lampe', 'Schere', 'Schlüssel', 'Kiste', 'Löffel', 'Ring', 'Rucksack', 'Geige', 'Telefon', 'Kerze', 'Vase', 'Tasche', 'Hut', 'Würfel', 'Bürste', 'Kamera', 'Fahrrad', 'Tasse', 'Stift', 'Trommel', 'Brille', 'Kette', 'Jacke']",442.35058750002645,442.3534715999849,None,442.35359489999246,448.35441459994763,3,2.167489100014791,None,448.3547177000437,448.3574446999701,None,448.35755529999733,448.3589976000367,448.35900980001315,448.36023390002083,,,,,,,,,,,,,,,,,,,,,,,,,,,,,,,,,,,,,,,,,,,,,,,3,2023-11-22_13h45.51.332,watkins1,2023.2.3,99.71839522041239,9,2023-11-22 13h45.57.432264 +0000,
,,,,,,,,,,,29,0,29,0,,,,,,,,,,,,,448.36384520004503,,,,,,,,,,448.3605143999448,448.8560299000237,,,[],[],,,,,,,,,,,,None,None,,,,,,,,,,Jacke,niedlich,"['Jacke', 'niedlich']",test_adj,3,,,,,,448.3604487000266,448.3604866999667,"['Blume', 'Socke', 'Uhr', 'Eimer', 'Hammer', 'Flasche', 'Buch', 'Lampe', 'Schere', 'Schlüssel', 'Kiste', 'Löffel', 'Ring', 'Rucksack', 'Geige', 'Telefon', 'Kerze', 'Vase', 'Tasche', 'Hut', 'Würfel', 'Bürste', 'Kamera', 'Fahrrad', 'Tasse', 'Stift', 'Trommel', 'Brille', 'Kette', 'Jacke']",448.85604089999106,448.85877880000044,None,448.8589013000019,448.8602964000311,None,,,448.8604050000431,448.86180089996196,None,448.8619068999542,454.8647554999916,454.8647691999795,454.86611259996425,0,,,,,,,,,,,,,,,,,,,,,,,,,,,,,,,,,,,,,,,,,,,,,,3,2023-11-22_13h45.51.332,watkins1,2023.2.3,99.71839522041239,9,2023-11-22 13h45.57.432264 +0000,
,,,,,,,,,,,,,,,,,,,,,,,,,,,,,,,,,,,,,,,,,,,,,,,,,,,,,,,,,,,,,,,,,,,,,3,,,,,,,,,,,,,,,,,,,,,,,,,,,,,,,,,,,,,,,,,,,,,,,,,,,,,,,,,,,,,,,,,,,,,,3,2023-11-22_13h45.51.332,watkins1,2023.2.3,99.71839522041239,9,2023-11-22 13h45.57.432264 +0000,
(4 : 2) + 4 = 6 ,Correct,button_correct,,,,,,,,,,,,,0,0,0,1,,,,,,,,,465.93686989997514,,,,,,,,464.90799760003574,465.91153429995757,,,,,['button_correct'],[5.5232567000202835],,,,,,,,,,,,,,,,,,,,,,,,,,distractorTask,3,,,,,,,,,,,,,,,,,,,,,,,,,465.9275021000067,465.93686989997514,471.45456500002183,[0.3638888888888889],[-0.39537037037037037],[1],[0],[0],[5.5232567000202835],['button_correct'],471.45524080004543,472.45793020003475,,,,,,,,,,,,,,,,,,,,,,,,,,,,,,,,,,3,2023-11-22_13h45.51.332,watkins1,2023.2.3,99.71839522041239,9,2023-11-22 13h45.57.432264 +0000,
(40 : 5) + 8 = 15 ,Incorrect,button_incorrect,,,,,,,,,,,,,0,1,1,7,,,,,,,,,472.4680215000408,,,,,,,,,,,,,,['button_incorrect'],[5.519734199973755],,,,,,,,,,,,,,,,,,,,,,,,,,distractorTask,3,,,,,,,,,,,,,,,,,,,,,,,,,472.45811849995516,472.4680215000408,477.9810892000096,[-0.3675925925925926],[-0.412962962962963],[1],[0],[0],[5.519734199973755],['button_incorrect'],477.9814647999592,478.9846794999903,,,,,,,,,,,,,,,,,,,,,,,,,,,,,,,,,,3,2023-11-22_13h45.51.332,watkins1,2023.2.3,99.71839522041239,9,2023-11-22 13h45.57.432264 +0000,
(25 : 5) + 5 = 9 ,Incorrect,button_incorrect,,,,,,,,,,,,,0,2,2,6,,,,,,,,,478.99469309998676,,,,,,,,,,,,,,['button_incorrect'],[2.577953099971637],,,,,,,,,,,,,,,,,,,,,,,,,,distractorTask,3,,,,,,,,,,,,,,,,,,,,,,,,,478.98486850003246,478.99469309998676,481.5656276999507,[-0.3675925925925926],[-0.412962962962963],[1],[0],[0],[2.577953099971637],['button_incorrect'],481.5660039000213,482.56931449996773,,,,,,,,,,,,,,,,,,,,,,,,,,,,,,,,,,3,2023-11-22_13h45.51.332,watkins1,2023.2.3,99.71839522041239,9,2023-11-22 13h45.57.432264 +0000,
(2 x 5) + 3 = 13 ,Correct,button_correct,,,,,,,,,,,,,0,3,3,2,,,,,,,,,482.5792382999789,,,,,,,,,,,,,,['button_correct'],[3.5918410000158474],,,,,,,,,,,,,,,,,,,,,,,,,,distractorTask,3,,,,,,,,,,,,,,,,,,,,,,,,,482.569514599978,482.5792382999789,486.1644469000166,[0.3648148148148148],[-0.40370370370370373],[1],[0],[0],[3.5918410000158474],['button_correct'],486.1648199999472,487.16808710002806,,,,,,,,,,,,,,,,,,,,,,,,,,,,,,,,,,3,2023-11-22_13h45.51.332,watkins1,2023.2.3,99.71839522041239,9,2023-11-22 13h45.57.432264 +0000,
(9 x 5) - 9 = 36 ,Correct,button_correct,,,,,,,,,,,,,0,4,4,4,,,,,,,,,487.17807419993915,,,,,,,,,,,,,,['button_correct'],[3.2107714999001473],,,,,,,,,,,,,,,,,,,,,,,,,,distractorTask,3,,,,,,,,,,,,,,,,,,,,,,,,,487.1682763999561,487.17807419993915,490.3813260999741,[0.36203703703703705],[-0.40370370370370373],[1],[0],[0],[3.2107714999001473],['button_correct'],490.3816995000234,491.3850161000155,,,,,,,,,,,,,,,,,,,,,,,,,,,,,,,,,,3,2023-11-22_13h45.51.332,watkins1,2023.2.3,99.71839522041239,9,2023-11-22 13h45.57.432264 +0000,
(80 : 10) + 9 = 17 ,Correct,button_correct,,,,,,,,,,,,,0,5,5,3,,,,,,,,,491.39500609994866,,,,,,,,,,,,,,['button_correct'],[2.106335200020112],,,,,,,,,,,,,,,,,,,,,,,,,,distractorTask,3,,,,,,,,,,,,,,,,,,,,,,,,,491.38520579994656,491.39500609994866,493.4941031000344,[0.36203703703703705],[-0.40370370370370373],[1],[0],[0],[2.106335200020112],['button_correct'],493.4944858000381,494.4975724000251,,,,,,,,,,,,,,,,,,,,,,,,,,,,,,,,,,3,2023-11-22_13h45.51.332,watkins1,2023.2.3,99.71839522041239,9,2023-11-22 13h45.57.432264 +0000,
(28 : 7) - 3 = 1 ,Correct,button_correct,,,,,,,,,,,,,0,6,6,0,,,,,,,,,494.50755290000234,,,,,,,,,,,,,,['button_correct'],[3.3121445999713615],,,,,,,,,,,,,,,,,,,,,,,,,,distractorTask,3,,,,,,,,,,,,,,,,,,,,,,,,,494.49775850004517,494.50755290000234,497.8116093999706,[0.36203703703703705],[-0.40370370370370373],[1],[0],[0],[3.3121445999713615],['button_correct'],497.8119887999492,498.8150202999823,,,,,,,,,,,,,,,,,,,,,,,,,,,,,,,,,,3,2023-11-22_13h45.51.332,watkins1,2023.2.3,99.71839522041239,9,2023-11-22 13h45.57.432264 +0000,
(6 x 3) + 10 = 27 ,Incorrect,button_incorrect,,,,,,,,,,,,,0,7,7,8,,,,,,,,,498.8250552000245,,,,,,,,,,,,,,['button_incorrect'],[7.519176599918865],,,,,,,,,,,,,,,,,,,,,,,,,,distractorTask,3,,,,,,,,,,,,,,,,,,,,,,,,,498.8152139999438,498.8250552000245,506.3361393000232,[-0.3296296296296296],[-0.4222222222222222],[1],[0],[0],[7.519176599918865],['button_incorrect'],506.3365306999767,507.339718000032,,,,,,,,,,,,,,,,,,,,,,,,,,,,,,,,,,3,2023-11-22_13h45.51.332,watkins1,2023.2.3,99.71839522041239,9,2023-11-22 13h45.57.432264 +0000,
(7 x 6) + 9 = 48 ,Incorrect,button_incorrect,,,,,,,,,,,,,0,8,8,9,,,,,,,,,507.3497044999385,,,,,,,,,,,,,,['button_incorrect'],[5.781963799963705],,,,,,,,,,,,,,,,,,,,,,,,,,distractorTask,3,,,,,,,,,,,,,,,,,,,,,,,,,507.339911499992,507.3497044999385,513.1235849000514,[-0.37037037037037035],[-0.39444444444444443],[1],[0],[0],[5.781963799963705],['button_incorrect'],513.1239754999988,514.1272239000537,,,,,,,,,,,,,,,,,,,,,,,,,,,,,,,,,,3,2023-11-22_13h45.51.332,watkins1,2023.2.3,99.71839522041239,9,2023-11-22 13h45.57.432264 +0000,
(54 : 6) - 10 = 0 ,Incorrect,button_incorrect,,,,,,,,,,,,,0,9,9,5,,,,,,,,,514.1371948999586,,,,,,,,,,,,,,['button_incorrect'],[3.9261504999594763],,,,,,,,,,,,,,,,,,,,,,,,,,distractorTask,3,,,,,,,,,,,,,,,,,,,,,,,,,514.1274090999505,514.1371948999586,518.0553046000423,[-0.3712962962962963],[-0.39444444444444443],[1],[0],[0],[3.9261504999594763],['button_incorrect'],518.055680599995,519.0571964000119,,,,,,,,,,,,,,,,,,,,,,,,,,,,,,,,,,3,2023-11-22_13h45.51.332,watkins1,2023.2.3,99.71839522041239,9,2023-11-22 13h45.57.432264 +0000,
,,,,,,,,,,,,,,,,,,,,,,,,,,,,,,,,,,,,,,,,,,,,,,,,,,,,,,,,,,,,,,,,,,,,,3,,,,,,,,,,,,,,,,,,,,,,,,,,,,,,,,,,,,,,,,,,,,,,,,,,,,,,,,,,,,,,,,,,,,,,3,2023-11-22_13h45.51.332,watkins1,2023.2.3,99.71839522041239,9,2023-11-22 13h45.57.432264 +0000,
,,,,,,,,,,,,,,,,,,,0,0,0,0,,,,,524.8184506000252,,,,,,,,,,,,,,gut,17.346681499970146,,,,,,,,,,,,16.30541239993181,None,,,,,,,,,,,,,freeRecallSub,3,,,,,,,,,,,,,,,,,,,,,,,,,,,,,,,,,,,,,524.809717600001,524.8184506000252,524.8184506000252,542.1687508999603,return,17.346681499970146,None,gut,"[-0.6259259259259259, -0.08425925925925926, -0.6824074074074075, -0.03425925925925926]","[0.2601851851851852, 0.0712962962962963, 0.13703703703703704, 0.06666666666666667]","[1, 1, 1, 1]","[0, 0, 0, 0]","[0, 0, 0, 0]","[6.756120900041424, 8.141814000089653, 10.922819300089031, 15.24046520004049]",[],,,,,,,,,,,,,,,,,,,3,2023-11-22_13h45.51.332,watkins1,2023.2.3,99.71839522041239,9,2023-11-22 13h45.57.432264 +0000,
,,,,,,,,,,,,,,,,,,,1,0,1,0,,,,,542.1805533999577,,,,,,,,,,,,,,matt,2.608652700087987,,,,,,,,,,,,1.6982667000265792,None,,,,,,,,,,,,,freeRecallSub,3,,,,,,,,,,,,,,,,,,,,,,,,,,,,,,,,,,,,,542.1705641000299,542.1805533999577,542.1805533999577,544.792573899962,return,2.608652700087987,None,matt,[],[],[],[],[],[],[],,,,,,,,,,,,,,,,,,,3,2023-11-22_13h45.51.332,watkins1,2023.2.3,99.71839522041239,9,2023-11-22 13h45.57.432264 +0000,
,,,,,,,,,,,,,,,,,,,2,0,2,0,,,,,544.8023157999851,,,,,,,,,,,,,,biegsam,2.3708536999765784,,,,,,,,,,,,0.7414931000676006,None,,,,,,,,,,,,,freeRecallSub,3,,,,,,,,,,,,,,,,,,,,,,,,,,,,,,,,,,,,,544.7938441999722,544.8023157999851,544.8023157999851,547.1820814999519,return,2.3708536999765784,None,biegsam,[],[],[],[],[],[],[],,,,,,,,,,,,,,,,,,,3,2023-11-22_13h45.51.332,watkins1,2023.2.3,99.71839522041239,9,2023-11-22 13h45.57.432264 +0000,
,,,,,,,,,,,,,,,,,,,3,0,3,0,,,,,547.1928241000278,,,,,,,,,,,,,,robust,1.6362909000599757,,,,,,,,,,,,0.3914685999043286,None,,,,,,,,,,,,,freeRecallSub,3,,,,,,,,,,,,,,,,,,,,,,,,,,,,,,,,,,,,,547.1833495999454,547.1928241000278,547.1928241000278,548.8301495000487,return,1.6362909000599757,None,robust,[],[],[],[],[],[],[],,,,,,,,,,,,,,,,,,,3,2023-11-22_13h45.51.332,watkins1,2023.2.3,99.71839522041239,9,2023-11-22 13h45.57.432264 +0000,
,,,,,,,,,,,,,,,,,,,4,0,4,0,,,,,548.8410376999527,,,,,,,,,,,,,,durchsichtig,5.852017499972135,,,,,,,,,,,,2.460513199912384,None,,,,,,,,,,,,,freeRecallSub,3,,,,,,,,,,,,,,,,,,,,,,,,,,,,,,,,,,,,,548.8314238999737,548.8410376999527,548.8410376999527,554.6968520999653,return,5.852017499972135,None,durchsichtig,[],[],[],[],[],[],[],,,,,,,,,,,,,,,,,,,3,2023-11-22_13h45.51.332,watkins1,2023.2.3,99.71839522041239,9,2023-11-22 13h45.57.432264 +0000,
,,,,,,,,,,,,,,,,,,,5,0,5,0,,,,,554.7080954000121,,,,,,,,,,,,,,glatt,3.601090999902226,,,,,,,,,,,,2.331374799949117,None,,,,,,,,,,,,,freeRecallSub,3,,,,,,,,,,,,,,,,,,,,,,,,,,,,,,,,,,,,,554.6980946999975,554.7080954000121,554.7080954000121,558.3154598999536,return,3.601090999902226,None,glatt,[],[],[],[],[],[],[],,,,,,,,,,,,,,,,,,,3,2023-11-22_13h45.51.332,watkins1,2023.2.3,99.71839522041239,9,2023-11-22 13h45.57.432264 +0000,
,,,,,,,,,,,,,,,,,,,6,0,6,0,,,,,558.3266909000231,,,,,,,,,,,,,,verschmutzt,4.806467400048859,,,,,,,,,,,,1.708245599991642,2.089816499967128,,,,,,,,,,,,,freeRecallSub,3,,,,,,,,,,,,,,,,,,,,,,,,,,,,,,,,,,,,,558.3167227000231,558.3266909000231,558.3266909000231,563.1381511000218,return,4.806467400048859,None,verschmutzt,[],[],[],[],[],[],[],,,,,,,,,,,,,,,,,,,3,2023-11-22_13h45.51.332,watkins1,2023.2.3,99.71839522041239,9,2023-11-22 13h45.57.432264 +0000,
,,,,,,,,,,,,,,,,,,,7,0,7,0,,,,,563.1499992000172,,,,,,,,,,,,,,gepunktet,12.99115759995766,,,,,,,,,,,,11.187424900010228,None,,,,,,,,,,,,,freeRecallSub,3,,,,,,,,,,,,,,,,,,,,,,,,,,,,,,,,,,,,,563.1394028000068,563.1499992000172,563.1499992000172,576.1443006000482,return,12.99115759995766,None,gepunktet,[],[],[],[],[],[],[],,,,,,,,,,,,,,,,,,,3,2023-11-22_13h45.51.332,watkins1,2023.2.3,99.71839522041239,9,2023-11-22 13h45.57.432264 +0000,
,,,,,,,,,,,,,,,,,,,8,0,8,0,,,,,576.156368099968,,,,,,,,,,,,,,blass,10.480768400011584,,,,,,,,,,,,9.350441099959426,None,,,,,,,,,,,,,freeRecallSub,3,,,,,,,,,,,,,,,,,,,,,,,,,,,,,,,,,,,,,576.145569400047,576.156368099968,576.156368099968,586.6408200999722,return,10.480768400011584,None,blass,[],[],[],[],[],[],[],,,,,,,,,,,,,,,,,,,3,2023-11-22_13h45.51.332,watkins1,2023.2.3,99.71839522041239,9,2023-11-22 13h45.57.432264 +0000,
,,,,,,,,,,,,,,,,,,,9,0,9,0,,,,,586.652552900021,,,,,,,,,,,,,,sportlich,7.38453409995418,,,,,,,,,,,,5.484072400024161,None,,,,,,,,,,,,,freeRecallSub,3,,,,,,,,,,,,,,,,,,,,,,,,,,,,,,,,,,,,,586.6420778000029,586.652552900021,586.652552900021,594.0438739999663,return,7.38453409995418,None,sportlich,[],[],[],[],[],[],[],,,,,,,,,,,,,,,,,,,3,2023-11-22_13h45.51.332,watkins1,2023.2.3,99.71839522041239,9,2023-11-22 13h45.57.432264 +0000,
,,,,,,,,,,,,,,,,,,,10,0,10,0,,,,,594.0559217999689,,,,,,,,,,,,,,müde,4.421180900069885,,,,,,,,,,,,3.7875033000018448,None,,,,,,,,,,,,,freeRecallSub,3,,,,,,,,,,,,,,,,,,,,,,,,,,,,,,,,,,,,,594.0451358000282,594.0559217999689,594.0559217999689,598.485297700041,return,4.421180900069885,None,müde,[],[],[],[],[],[],[],,,,,,,,,,,,,,,,,,,3,2023-11-22_13h45.51.332,watkins1,2023.2.3,99.71839522041239,9,2023-11-22 13h45.57.432264 +0000,
,,,,,,,,,,,,,,,,,,,11,0,11,0,,,,,598.4979769999627,,,,,,,,,,,,,,groß,17.9231226000702,,,,,,,,,,,,17.044986099936068,None,,,,,,,,,,,,,freeRecallSub,3,,,,,,,,,,,,,,,,,,,,,,,,,,,,,,,,,,,,,598.4865482000168,598.4979769999627,598.4979769999627,616.4256761999568,return,17.9231226000702,None,groß,[],[],[],[],[],[],[],,,,,,,,,,,,,,,,,,,3,2023-11-22_13h45.51.332,watkins1,2023.2.3,99.71839522041239,9,2023-11-22 13h45.57.432264 +0000,
,,,,,,,,,,,,,,,,,,,12,0,12,0,,,,,616.438716399949,,,,,,,,,,,,,,winzig,1.43026239995379,,,,,,,,,,,,0.30566640000324696,None,,,,,,,,,,,,,freeRecallSub,3,,,,,,,,,,,,,,,,,,,,,,,,,,,,,,,,,,,,,616.4269430999411,616.438716399949,616.438716399949,617.877297900035,return,1.43026239995379,None,winzig,[],[],[],[],[],[],[],,,,,,,,,,,,,,,,,,,3,2023-11-22_13h45.51.332,watkins1,2023.2.3,99.71839522041239,9,2023-11-22 13h45.57.432264 +0000,
,,,,,,,,,,,,,,,,,,,13,0,13,0,,,,,617.890541199944,,,,,,,,,,,,,,nass,54.27448719996028,,,,,,,,,,,,53.45174060005229,None,,,,,,,,,,,,,freeRecallSub,3,,,,,,,,,,,,,,,,,,,,,,,,,,,,,,,,,,,,,617.8785447999835,617.890541199944,617.890541199944,672.173741000006,return,54.27448719996028,None,nass,[],[],[],[],[],[],[],,,,,,,,,,,,,,,,,,,3,2023-11-22_13h45.51.332,watkins1,2023.2.3,99.71839522041239,9,2023-11-22 13h45.57.432264 +0000,
,,,,,,,,,,,,,,,,,,,14,0,14,0,,,,,672.186586100026,,,,,,,,,,,,,,glänzend,6.170443599927239,,,,,,,,,,,,4.331361799966544,None,,,,,,,,,,,,,freeRecallSub,3,,,,,,,,,,,,,,,,,,,,,,,,,,,,,,,,,,,,,672.1750026999507,672.186586100026,672.186586100026,678.3637700999388,return,6.170443599927239,None,glänzend,[],[],[],[],[],[],[],,,,,,,,,,,,,,,,,,,3,2023-11-22_13h45.51.332,watkins1,2023.2.3,99.71839522041239,9,2023-11-22 13h45.57.432264 +0000,
,,,,,,,,,,,,,,,,,,,15,0,15,0,,,,,678.3774133999832,,,,,,,,,,,,,,kaputt,31.811485100071877,,,,,,,,,,,,29.455229899962433,None,,,,,,,,,,,,,freeRecallSub,3,,,,,,,,,,,,,,,,,,,,,,,,,,,,,,,,,,,,,678.3650352000259,678.3774133999832,678.3774133999832,710.1902040999848,return,31.811485100071877,None,kaputt,[],[],[],[],[],[],[],,,,,,,,,,,,,,,,,,,3,2023-11-22_13h45.51.332,watkins1,2023.2.3,99.71839522041239,9,2023-11-22 13h45.57.432264 +0000,
,,,,,,,,,,,,,,,,,,,16,0,16,0,,,,,710.2036722999765,,,,,,,,,,,,,,sauber,1.6093423999845982,,,,,,,,,,,,0.5876050000078976,None,,,,,,,,,,,,,freeRecallSub,3,,,,,,,,,,,,,,,,,,,,,,,,,,,,,,,,,,,,,710.1914865999715,710.2036722999765,710.2036722999765,711.8231174000539,return,1.6093423999845982,None,sauber,[],[],[],[],[],[],[],,,,,,,,,,,,,,,,,,,3,2023-11-22_13h45.51.332,watkins1,2023.2.3,99.71839522041239,9,2023-11-22 13h45.57.432264 +0000,
,,,,,,,,,,,,,,,,,,,17,0,17,0,,,,,711.8367972000269,,,,,,,,,,,,,,klobig,20.56018110003788,,,,,,,,,,,,18.87251809996087,None,,,,,,,,,,,,,freeRecallSub,3,,,,,,,,,,,,,,,,,,,,,,,,,,,,,,,,,,,,,711.8243692000397,711.8367972000269,711.8367972000269,732.4036582999397,return,20.56018110003788,None,klobig,[],[],[],[],[],[],[],,,,,,,,,,,,,,,,,,,3,2023-11-22_13h45.51.332,watkins1,2023.2.3,99.71839522041239,9,2023-11-22 13h45.57.432264 +0000,
,,,,,,,,,,,,,,,,,,,18,0,18,0,,,,,732.4176622000523,,,,,,,,,,,,,,gestreift,1.7792676999233663,,,,,,,,,,,,0.4176475000567734,None,,,,,,,,,,,,,freeRecallSub,3,,,,,,,,,,,,,,,,,,,,,,,,,,,,,,,,,,,,,732.404981300002,732.4176622000523,732.4176622000523,734.1982652000152,return,1.7792676999233663,None,gestreift,[],[],[],[],[],[],[],,,,,,,,,,,,,,,,,,,3,2023-11-22_13h45.51.332,watkins1,2023.2.3,99.71839522041239,9,2023-11-22 13h45.57.432264 +0000,
,,,,,,,,,,,,,,,,,,,19,0,19,0,,,,,734.2133074000012,,,,,,,,,,,,,,nachhaltig,87.21562599996105,,,,,,,,,,,,84.3504646999063,None,,,,,,,,,,,,,freeRecallSub,3,,,,,,,,,,,,,,,,,,,,,,,,,,,,,,,,,,,,,734.1997061000438,734.2133074000012,734.2133074000012,821.4317836000118,return,87.21562599996105,None,nachhaltig,[],[],[],[],[],[],[],,,,,,,,,,,,,,,,,,,3,2023-11-22_13h45.51.332,watkins1,2023.2.3,99.71839522041239,9,2023-11-22 13h45.57.432264 +0000,
,,,,,,,,,,,,,,,,,,,20,0,20,0,,,,,821.4464762000134,,,,,,,,,,,,,,,[],,,,,,,,,,,,None,None,,,,,,,,,,,,,freeRecallSub,3,,,,,,,,,,,,,,,,,,,,,,,,,,,,,,,,,,,,,821.433084600023,821.4464762000134,821.4464762000134,837.3594003999606,None,,,,[0.40925925925925927],[-0.39444444444444443],[1],[0],[0],[15.919048400013708],"['button_continue', 'continue_text']",,,,,,,,,,,,,,,,,,,3,2023-11-22_13h45.51.332,watkins1,2023.2.3,99.71839522041239,9,2023-11-22 13h45.57.432264 +0000,
,,,,,,,,,,,,,,,,,,,,,,,,,,,,,,,,,,,,,,,,,,,,,,,,,,,,,,,,,,,,,,,,,,,,,3,,,,,,,,,,,,,,,,,,,,,,,,,,,,,,,,,,,,,,,,,,,,,,,,,,,,,,,,,,,,,,,,,,,,,,3,2023-11-22_13h45.51.332,watkins1,2023.2.3,99.71839522041239,9,2023-11-22 13h45.57.432264 +0000,
,,,,,,,,,,,,,,,,,,,,,,,0,0,0,0,849.1420572999632,,,,,,,,,,856.6657428999897,857.1645298999501,,,,7.5107620999915525,,,,,,,,,,,,None,None,,,,,,,,,,Uhr,,,cuedRecallAdj,3,,,,,,,,,,,,,,,,,,,,,,,,0,,,,,,,,,,,,,,,,,,,,,,,,,,,,849.1329236000311,849.1420572999632,849.1420572999632,856.6627405999461,lustig,return,7.5107620999915525,None,856.6631306000054,856.6724029999459,856.6724029999459,856.6655918000033,,None,,,,,3,2023-11-22_13h45.51.332,watkins1,2023.2.3,99.71839522041239,9,2023-11-22 13h45.57.432264 +0000,
,,,,,,,,,,,,,,,,,,,,,,,1,0,1,0,857.1744986999547,,,,,,,,,,859.5085610999959,860.0069874000037,,,,2.326357400044799,,,,,,,,,,,,None,None,,,,,,,,,,Trommel,,,cuedRecallAdj,3,,,,,,,,,,,,,,,,,,,,,,,,0,,,,,,,,,,,,,,,,,,,,,,,,,,,,857.1648198999465,857.1744986999547,857.1744986999547,859.5054978999542,hohl,return,2.326357400044799,None,859.5057673000265,859.5150528999511,859.5150528999511,859.5084591000341,,None,,,,,3,2023-11-22_13h45.51.332,watkins1,2023.2.3,99.71839522041239,9,2023-11-22 13h45.57.432264 +0000,
,,,,,,,,,,,,,,,,,,,,,,,2,0,2,0,860.01704289997,,,,,,,,,,870.1505261999555,870.640206299955,,,,10.123740100068972,,,,,,,,,,,,None,None,,,,,,,,,,Vase,,,cuedRecallAdj,3,,,,,,,,,,,,,,,,,,,,,,,,0,,,,,,,,,,,,,,,,,,,,,,,,,,,,860.0072337000165,860.01704289997,860.01704289997,870.1484336999711,,return,10.123740100068972,None,870.1486987000098,870.158109699958,870.158109699958,870.1504255000036,,None,,,,,3,2023-11-22_13h45.51.332,watkins1,2023.2.3,99.71839522041239,9,2023-11-22 13h45.57.432264 +0000,
,,,,,,,,,,,,,,,,,,,,,,,3,0,3,0,870.650172399939,,,,,,,,,,873.4047321999678,873.9033355000429,,,,2.746694599976763,,,,,,,,,,,,None,None,,,,,,,,,,Kiste,,,cuedRecallAdj,3,,,,,,,,,,,,,,,,,,,,,,,,0,,,,,,,,,,,,,,,,,,,,,,,,,,,,870.6404479000485,870.650172399939,870.650172399939,873.401675799978,nachhaltig,return,2.746694599976763,None,873.4019417000236,873.4112344000023,873.4112344000023,873.404627699987,,None,,,,,3,2023-11-22_13h45.51.332,watkins1,2023.2.3,99.71839522041239,9,2023-11-22 13h45.57.432264 +0000,
,,,,,,,,,,,,,,,,,,,,,,,4,0,4,0,873.913276999956,,,,,,,,,,876.0252463000361,876.5238681000192,,,,2.107486500055529,,,,,,,,,,,,None,None,,,,,,,,,,Würfel,,,cuedRecallAdj,3,,,,,,,,,,,,,,,,,,,,,,,,0,,,,,,,,,,,,,,,,,,,,,,,,,,,,873.9035769000184,873.913276999956,873.913276999956,876.0222069999436,matt,return,2.107486500055529,None,876.0224904000061,876.0316987000406,876.0316987000406,876.0251384000294,,None,,,,,3,2023-11-22_13h45.51.332,watkins1,2023.2.3,99.71839522041239,9,2023-11-22 13h45.57.432264 +0000,
,,,,,,,,,,,,,,,,,,,,,,,5,0,5,0,876.5338143999688,,,,,,,,,,879.931293200003,880.4294366999529,,,,3.391053900006227,,,,,,,,,,,,None,None,,,,,,,,,,Rucksack,,,cuedRecallAdj,3,,,,,,,,,,,,,,,,,,,,,,,,0,,,,,,,,,,,,,,,,,,,,,,,,,,,,876.5241005000426,876.5338143999688,876.5338143999688,879.9279116999824,gestreift,return,3.391053900006227,None,879.9281754000112,879.9374276000308,879.9374276000308,879.931189200026,,None,,,,,3,2023-11-22_13h45.51.332,watkins1,2023.2.3,99.71839522041239,9,2023-11-22 13h45.57.432264 +0000,
,,,,,,,,,,,,,,,,,,,,,,,6,0,6,0,880.4394908000249,,,,,,,,,,883.7760559000308,884.2749845000217,,,,3.3253129000077024,,,,,,,,,,,,None,None,,,,,,,,,,Hut,,,cuedRecallAdj,3,,,,,,,,,,,,,,,,,,,,,,,,0,,,,,,,,,,,,,,,,,,,,,,,,,,,,880.4296761000296,880.4394908000249,880.4394908000249,883.7731454999885,gepunktet,return,3.3253129000077024,None,883.7734152999474,883.7828622000525,883.7828622000525,883.7759539999533,,None,,,,,3,2023-11-22_13h45.51.332,watkins1,2023.2.3,99.71839522041239,9,2023-11-22 13h45.57.432264 +0000,
,,,,,,,,,,,,,,,,,,,,,,,7,0,7,0,884.2849387000315,,,,,,,,,,886.2562538000057,886.7546941000037,,,,1.9678344000130892,,,,,,,,,,,,None,None,,,,,,,,,,Ring,,,cuedRecallAdj,3,,,,,,,,,,,,,,,,,,,,,,,,0,,,,,,,,,,,,,,,,,,,,,,,,,,,,884.2752201999538,884.2849387000315,884.2849387000315,886.2532354999566,winzig,return,1.9678344000130892,None,886.2534995999886,886.262767600012,886.262767600012,886.2561520000454,,None,,,,,3,2023-11-22_13h45.51.332,watkins1,2023.2.3,99.71839522041239,9,2023-11-22 13h45.57.432264 +0000,
,,,,,,,,,,,,,,,,,,,,,,,8,0,8,0,886.764616600005,,,,,,,,,,889.017308200011,889.5161141999997,,,,2.240182699984871,,,,,,,,,,,,None,None,,,,,,,,,,Tasche,,,cuedRecallAdj,3,,,,,,,,,,,,,,,,,,,,,,,,0,,,,,,,,,,,,,,,,,,,,,,,,,,,,886.7549391000066,886.764616600005,886.764616600005,889.0143185999477,klobig,return,2.240182699984871,None,889.0145860000048,889.0240291999653,889.0240291999653,889.0172069000546,,None,,,,,3,2023-11-22_13h45.51.332,watkins1,2023.2.3,99.71839522041239,9,2023-11-22 13h45.57.432264 +0000,
,,,,,,,,,,,,,,,,,,,,,,,9,0,9,0,889.5260670999996,,,,,,,,,,891.0052913000109,891.5040252000326,,,,1.47081289999187,,,,,,,,,,,,None,None,,,,,,,,,,Schere,,,cuedRecallAdj,3,,,,,,,,,,,,,,,,,,,,,,,,0,,,,,,,,,,,,,,,,,,,,,,,,,,,,889.5163506000536,889.5260670999996,889.5260670999996,891.0024371000472,gut,return,1.47081289999187,None,891.002701099962,891.0119534999831,891.0119534999831,891.0051900000544,,None,,,,,3,2023-11-22_13h45.51.332,watkins1,2023.2.3,99.71839522041239,9,2023-11-22 13h45.57.432264 +0000,
,,,,,,,,,,,,,,,,,,,,,,,10,0,10,0,891.5139855999732,,,,,,,,,,894.0073163999477,894.5060716000153,,,,2.482846500002779,,,,,,,,,,,,None,None,,,,,,,,,,Schlüssel,,,cuedRecallAdj,3,,,,,,,,,,,,,,,,,,,,,,,,0,,,,,,,,,,,,,,,,,,,,,,,,,,,,891.5042670000112,891.5139855999732,891.5139855999732,894.0042340999935,nass,return,2.482846500002779,None,894.0044986000285,894.0139944000402,894.0139944000402,894.0072158999974,,None,,,,,3,2023-11-22_13h45.51.332,watkins1,2023.2.3,99.71839522041239,9,2023-11-22 13h45.57.432264 +0000,
,,,,,,,,,,,,,,,,,,,,,,,11,0,11,0,894.5160180999665,,,,,,,,,,897.381161199999,897.8797347999644,,,,2.8567834000568837,,,,,,,,,,,,None,None,,,,,,,,,,Brille,,,cuedRecallAdj,3,,,,,,,,,,,,,,,,,,,,,,,,0,,,,,,,,,,,,,,,,,,,,,,,,,,,,894.5063078999519,894.5160180999665,894.5160180999665,897.3779491999885,durchsichtig,return,2.8567834000568837,None,897.378216400044,897.3875436000526,897.3875436000526,897.3810585000319,,None,,,,,3,2023-11-22_13h45.51.332,watkins1,2023.2.3,99.71839522041239,9,2023-11-22 13h45.57.432264 +0000,
,,,,,,,,,,,,,,,,,,,,,,,12,0,12,0,897.8896757999901,,,,,,,,,,900.3935165000148,900.8923720000312,,,,2.4911814000224695,,,,,,,,,,,,None,None,,,,,,,,,,Kerze,,,cuedRecallAdj,3,,,,,,,,,,,,,,,,,,,,,,,,0,,,,,,,,,,,,,,,,,,,,,,,,,,,,897.8799828999909,897.8896757999901,897.8896757999901,900.3905711999396,glatt,return,2.4911814000224695,None,900.390837599989,900.4003442999674,900.4003442999674,900.3934143000515,,None,,,,,3,2023-11-22_13h45.51.332,watkins1,2023.2.3,99.71839522041239,9,2023-11-22 13h45.57.432264 +0000,
,,,,,,,,,,,,,,,,,,,,,,,13,0,13,0,900.9023705000291,,,,,,,,,,902.6326120999875,903.1315618000226,,,,1.7264692999888211,,,,,,,,,,,,None,None,,,,,,,,,,Stift,,,cuedRecallAdj,3,,,,,,,,,,,,,,,,,,,,,,,,0,,,,,,,,,,,,,,,,,,,,,,,,,,,,900.892622299958,900.9023705000291,900.9023705000291,902.6297476999462,dick,return,1.7264692999888211,None,902.6300111999735,902.6392662000144,902.6392662000144,902.6325107000303,,None,,,,,3,2023-11-22_13h45.51.332,watkins1,2023.2.3,99.71839522041239,9,2023-11-22 13h45.57.432264 +0000,
,,,,,,,,,,,,,,,,,,,,,,,14,0,14,0,903.1415144000202,,,,,,,,,,905.7855421999702,906.2839532999787,,,,2.639328600023873,,,,,,,,,,,,None,None,,,,,,,,,,Löffel,,,cuedRecallAdj,3,,,,,,,,,,,,,,,,,,,,,,,,0,,,,,,,,,,,,,,,,,,,,,,,,,,,,903.1318099000491,903.1415144000202,903.1415144000202,905.7824905000161,biegsam,return,2.639328600023873,None,905.782757799956,905.7919796999777,905.7919796999777,905.7854398000054,,None,,,,,3,2023-11-22_13h45.51.332,watkins1,2023.2.3,99.71839522041239,9,2023-11-22 13h45.57.432264 +0000,
,,,,,,,,,,,,,,,,,,,,,,,15,0,15,0,906.2939410000108,,,,,,,,,,909.7318129000487,910.2303479999537,,,,3.4309220999712124,,,,,,,,,,,,None,None,,,,,,,,,,Hammer,,,cuedRecallAdj,3,,,,,,,,,,,,,,,,,,,,,,,,0,,,,,,,,,,,,,,,,,,,,,,,,,,,,906.2842035000212,906.2939410000108,906.2939410000108,909.7286998999771,flach,return,3.4309220999712124,None,909.728965700022,909.7382100999821,909.7382100999821,909.7317123999819,,None,,,,,3,2023-11-22_13h45.51.332,watkins1,2023.2.3,99.71839522041239,9,2023-11-22 13h45.57.432264 +0000,
,,,,,,,,,,,,,,,,,,,,,,,16,0,16,0,910.2402934000129,,,,,,,,,,914.7121811000397,915.210860799998,,,,4.460489299963228,,,,,,,,,,,,None,None,,,,,,,,,,Flasche,,,cuedRecallAdj,3,,,,,,,,,,,,,,,,,,,,,,,,0,,,,,,,,,,,,,,,,,,,,,,,,,,,,910.2305974999908,910.2402934000129,910.2402934000129,914.7090657999506,verschmutzt,return,4.460489299963228,None,914.7093299999833,914.7187923999736,914.7187923999736,914.7120787999593,,None,,,,,3,2023-11-22_13h45.51.332,watkins1,2023.2.3,99.71839522041239,9,2023-11-22 13h45.57.432264 +0000,
,,,,,,,,,,,,,,,,,,,,,,,17,0,17,0,915.2208028000314,,,,,,,,,,917.9653562000021,918.4640465000411,,,,2.7359354000072926,,,,,,,,,,,,None,None,,,,,,,,,,Kamera,,,cuedRecallAdj,3,,,,,,,,,,,,,,,,,,,,,,,,0,,,,,,,,,,,,,,,,,,,,,,,,,,,,915.2111054999987,915.2208028000314,915.2208028000314,917.9623628000263,blass,return,2.7359354000072926,None,917.9626298999647,917.9719448999967,917.9719448999967,917.9652529000305,,None,,,,,3,2023-11-22_13h45.51.332,watkins1,2023.2.3,99.71839522041239,9,2023-11-22 13h45.57.432264 +0000,
,,,,,,,,,,,,,,,,,,,,,,,18,0,18,0,918.4739959000144,,,,,,,,,,919.6915791999782,920.1808948999969,,,,1.2107389000011608,,,,,,,,,,,,None,None,,,,,,,,,,Jacke,,,cuedRecallAdj,3,,,,,,,,,,,,,,,,,,,,,,,,0,,,,,,,,,,,,,,,,,,,,,,,,,,,,918.4642856999999,918.4739959000144,918.4739959000144,919.6893686000258,,return,1.2107389000011608,None,919.689636599971,919.6989302999573,919.6989302999573,919.6914783000248,,None,,,,,3,2023-11-22_13h45.51.332,watkins1,2023.2.3,99.71839522041239,9,2023-11-22 13h45.57.432264 +0000,
,,,,,,,,,,,,,,,,,,,,,,,19,0,19,0,920.1908097999403,,,,,,,,,,924.7926976999734,925.2914241000544,,,,4.58998559997417,,,,,,,,,,,,None,None,,,,,,,,,,Tasse,,,cuedRecallAdj,3,,,,,,,,,,,,,,,,,,,,,,,,0,,,,,,,,,,,,,,,,,,,,,,,,,,,,920.1811333999503,920.1908097999403,920.1908097999403,924.7896763000172,nass,return,4.58998559997417,None,924.7899485999951,924.799338700017,924.799338700017,924.7925957000116,,None,,,,,3,2023-11-22_13h45.51.332,watkins1,2023.2.3,99.71839522041239,9,2023-11-22 13h45.57.432264 +0000,
,,,,,,,,,,,,,,,,,,,,,,,20,0,20,0,925.3013633999508,,,,,,,,,,928.8481209999882,929.337605400011,,,,3.535505900043063,,,,,,,,,,,,None,None,,,,,,,,,,Socke,,,cuedRecallAdj,3,,,,,,,,,,,,,,,,,,,,,,,,0,,,,,,,,,,,,,,,,,,,,,,,,,,,,925.2916712999577,925.3013633999508,925.3013633999508,928.8459065000061,,return,3.535505900043063,None,928.846170600038,928.8556094999658,928.8556094999658,928.8480181000195,,None,,,,,3,2023-11-22_13h45.51.332,watkins1,2023.2.3,99.71839522041239,9,2023-11-22 13h45.57.432264 +0000,
,,,,,,,,,,,,,,,,,,,,,,,21,0,21,0,929.3475662999554,,,,,,,,,,932.383097999962,932.881868800032,,,,3.0253084000432864,,,,,,,,,,,,None,None,,,,,,,,,,Kette,,,cuedRecallAdj,3,,,,,,,,,,,,,,,,,,,,,,,,0,,,,,,,,,,,,,,,,,,,,,,,,,,,,929.3378442999674,929.3475662999554,929.3475662999554,932.3800832999405,sportlich,return,3.0253084000432864,None,932.3803475999739,932.3898520000512,932.3898520000512,932.382995299995,,None,,,,,3,2023-11-22_13h45.51.332,watkins1,2023.2.3,99.71839522041239,9,2023-11-22 13h45.57.432264 +0000,
,,,,,,,,,,,,,,,,,,,,,,,22,0,22,0,932.891772700008,,,,,,,,,,935.0340692000464,935.5326377999736,,,,2.1369715000037104,,,,,,,,,,,,None,None,,,,,,,,,,Fahrrad,,,cuedRecallAdj,3,,,,,,,,,,,,,,,,,,,,,,,,0,,,,,,,,,,,,,,,,,,,,,,,,,,,,932.8821153000463,932.891772700008,932.891772700008,935.0309911000077,groß,return,2.1369715000037104,None,935.0312580999453,935.0405141999945,935.0405141999945,935.0339662999613,,None,,,,,3,2023-11-22_13h45.51.332,watkins1,2023.2.3,99.71839522041239,9,2023-11-22 13h45.57.432264 +0000,
,,,,,,,,,,,,,,,,,,,,,,,23,0,23,0,935.5425850000465,,,,,,,,,,938.8182916999795,939.3077102999669,,,,3.2701043999986723,,,,,,,,,,,,None,None,,,,,,,,,,Buch,,,cuedRecallAdj,3,,,,,,,,,,,,,,,,,,,,,,,,0,,,,,,,,,,,,,,,,,,,,,,,,,,,,935.5328793999506,935.5425850000465,935.5425850000465,938.8161803999683,,return,3.2701043999986723,None,938.8164449000033,938.8256780999945,938.8256780999945,938.8181890000124,,None,,,,,3,2023-11-22_13h45.51.332,watkins1,2023.2.3,99.71839522041239,9,2023-11-22 13h45.57.432264 +0000,
,,,,,,,,,,,,,,,,,,,,,,,24,0,24,0,939.3176629999653,,,,,,,,,,946.1684308999684,946.667250999948,,,,6.847055300022475,,,,,,,,,,,,None,None,,,,,,,,,,Telefon,,,cuedRecallAdj,3,,,,,,,,,,,,,,,,,,,,,,,,0,,,,,,,,,,,,,,,,,,,,,,,,,,,,939.3079517999431,939.3176629999653,939.3176629999653,946.1655049000401,zart,return,6.847055300022475,None,946.1657718999777,946.1751890999731,946.1751890999731,946.1683287000051,,None,,,,,3,2023-11-22_13h45.51.332,watkins1,2023.2.3,99.71839522041239,9,2023-11-22 13h45.57.432264 +0000,
,,,,,,,,,,,,,,,,,,,,,,,25,0,25,0,946.677172799944,,,,,,,,,,950.5454045999795,951.0347341999877,,,,3.8635165999876335,,,,,,,,,,,,None,None,,,,,,,,,,Eimer,,,cuedRecallAdj,3,,,,,,,,,,,,,,,,,,,,,,,,0,,,,,,,,,,,,,,,,,,,,,,,,,,,,946.66749110003,946.677172799944,946.677172799944,950.5431849999586,,return,3.8635165999876335,None,950.5434516000096,950.5526328999549,950.5526328999549,950.5453037000261,,None,,,,,3,2023-11-22_13h45.51.332,watkins1,2023.2.3,99.71839522041239,9,2023-11-22 13h45.57.432264 +0000,
,,,,,,,,,,,,,,,,,,,,,,,26,0,26,0,951.0446820999496,,,,,,,,,,953.7089456999674,954.2074251000304,,,,2.6561094999779016,,,,,,,,,,,,None,None,,,,,,,,,,Geige,,,cuedRecallAdj,3,,,,,,,,,,,,,,,,,,,,,,,,0,,,,,,,,,,,,,,,,,,,,,,,,,,,,951.0349800999975,951.0446820999496,951.0446820999496,953.7058223000495,dunkel,return,2.6561094999779016,None,953.7060886999825,953.715340499999,953.715340499999,953.708844400011,,None,,,,,3,2023-11-22_13h45.51.332,watkins1,2023.2.3,99.71839522041239,9,2023-11-22 13h45.57.432264 +0000,
,,,,,,,,,,,,,,,,,,,,,,,27,0,27,0,954.2173856999725,,,,,,,,,,956.2391725999769,956.7376301999902,,,,2.0114575000479817,,,,,,,,,,,,None,None,,,,,,,,,,Blume,,,cuedRecallAdj,3,,,,,,,,,,,,,,,,,,,,,,,,0,,,,,,,,,,,,,,,,,,,,,,,,,,,,954.2076652999967,954.2173856999725,954.2173856999725,956.2360732000088,kaputt,return,2.0114575000479817,None,956.2363417999586,956.2456317000324,956.2456317000324,956.2390704000136,,None,,,,,3,2023-11-22_13h45.51.332,watkins1,2023.2.3,99.71839522041239,9,2023-11-22 13h45.57.432264 +0000,
,,,,,,,,,,,,,,,,,,,,,,,28,0,28,0,956.7475509999786,,,,,,,,,,959.5023344999645,960.0008766000392,,,,2.745183299994096,,,,,,,,,,,,None,None,,,,,,,,,,Bürste,,,cuedRecallAdj,3,,,,,,,,,,,,,,,,,,,,,,,,0,,,,,,,,,,,,,,,,,,,,,,,,,,,,956.7378663000418,956.7475509999786,956.7475509999786,959.4992409000406,biegsam,return,2.745183299994096,None,959.4995103999972,959.5088336999761,959.5088336999761,959.5022310999921,,None,,,,,3,2023-11-22_13h45.51.332,watkins1,2023.2.3,99.71839522041239,9,2023-11-22 13h45.57.432264 +0000,
,,,,,,,,,,,,,,,,,,,,,,,29,0,29,0,960.0109136999818,,,,,,,,,,962.5445462999633,963.0431369999424,,,,2.5299065000144765,,,,,,,,,,,,None,None,,,,,,,,,,Lampe,,,cuedRecallAdj,3,,,,,,,,,,,,,,,,,,,,,,,,0,,,,,,,,,,,,,,,,,,,,,,,,,,,,960.0011236999417,960.0109136999818,960.0109136999818,962.541577899945,sauber,return,2.5299065000144765,None,962.5418493000325,962.5510977000231,962.5510977000231,962.5444437999977,,None,,,,,3,2023-11-22_13h45.51.332,watkins1,2023.2.3,99.71839522041239,9,2023-11-22 13h45.57.432264 +0000,
,,,,,,,,,,,,,,,,,,,,,,,,,,,,,,,,,,,,,,,,,,,,,,,,,,,,,,,,,,,,,,,,,,,,,3,,,,,,,,,,,,,,,,,,,,,,,,,,,,,,,,,,,,,,,,,,,,,,,,,,,,,,,,,,,,,,,,,,963.0596380999777,q,1852.431143600028,None,3,2023-11-22_13h45.51.332,watkins1,2023.2.3,99.71839522041239,9,2023-11-22 13h45.57.432264 +0000,
