Equation,CorrectResponse,Correctbutton,trials_7.thisRepN,trials_7.thisTrialN,trials_7.thisN,trials_7.thisIndex,trials.thisRepN,trials.thisTrialN,trials.thisN,trials.thisIndex,trials_3.thisRepN,trials_3.thisTrialN,trials_3.thisN,trials_3.thisIndex,trials_2.thisRepN,trials_2.thisTrialN,trials_2.thisN,trials_2.thisIndex,trials_4.thisRepN,trials_4.thisTrialN,trials_4.thisN,trials_4.thisIndex,trials_5.thisRepN,trials_5.thisTrialN,trials_5.thisN,trials_5.thisIndex,thisRow.t,notes,code_marius.started,code_marius.stopped,welcome.started,welcome.stopped,instruction_study.started,instruction_study.stopped,fixationcross.started,fixationcross.stopped,blanc.started,blanc.stopped,study_control_probe.started,study_control_probe.stopped,responseKey,responseTime,scale_answer_2.keys,study_control_probe_2.started,study_control_probe_2.stopped,scale_answer_3.keys,scale_answer_3.rt,scale_answer_3.duration,blanc_2.started,blanc_2.stopped,test_attr_probe.started,test_attr_probe.stopped,recalled_attr,firstKeyTime,secondWordTime,blanc_3.started,blanc_3.stopped,test_sub_probe.started,test_sub_probe.stopped,recalled_sub,instruction_probe_end.started,instruction_probe_end.stopped,study.started,study.stopped,substantive,adjective,wordpair,task,condition,liste_sub_phase1,liste_adj_phase1,scale_answer.keys,scale_answer.rt,scale_answer.duration,code_defineWordsInit.started,code_defineWordsInit.stopped,liste_sub_phase2,study_control.started,study_control.stopped,scale_answer_4.keys,restudy_same.started,restudy_same.stopped,scale_answer_5.keys,restudy_different.started,restudy_different.stopped,scale_answer_6.keys,test_attr.started,correct,test_attr.stopped,test_sub.started,test_sub.stopped,scale_answer_5.rt,scale_answer_5.duration,distractortask.started,equation_text.started,distractortask.stopped,mouse_answer.x,mouse_answer.y,mouse_answer.leftButton,mouse_answer.midButton,mouse_answer.rightButton,mouse_answer.time,mouse_answer.clicked_name,feedback_distractortask.started,feedback_distractortask.stopped,free_recall.started,text_enter.started,key_resp.started,free_recall.stopped,key_resp.keys,key_resp.rt,key_resp.duration,free_recalled_sub,mouse_continue.x,mouse_continue.y,mouse_continue.leftButton,mouse_continue.midButton,mouse_continue.rightButton,mouse_continue.time,mouse_continue.clicked_name,cued_recall.started,text_enter_2.started,key_continue.started,cued_recall.stopped,recalled_attr1,key_continue.keys,key_continue.rt,key_continue.duration,cued_recall_2.started,text_enter_3.started,key_continue_2.started,cued_recall_2.stopped,recalled_attr2,key_continue_2.keys,key_resp_8.started,key_resp_8.keys,key_resp_8.rt,key_resp_8.duration,condition,date,expName,psychopyVersion,frameRate,participant,expStart,
,,,,,,,,,,,,,,,,,,,,,,,,,,,,,0.10930270003154874,0.10937319998629391,0.10938249994069338,8.634451400022954,,,,,,,,,,,,,,,,,,,,,,,,,,,,,,,,,,,,,3,,,,,,,,,,,,,,,,,,,,,,,,,,,,,,,,,,,,,,,,,,,,,,,,,,,,,,,,,,,,,,,,,,,,,,3,2023-11-30_09h43.15.684,watkins1,2023.2.3,99.71829601369164,34,2023-11-30 09h43.22.837338 +0000,
,,,,,,,,,,,,,,,,,,,,,,,,,,,,,,,,,8.63450129982084,70.00668710004538,,,,,,,,,,,,,,,,,,,,,,,,,,,,,,,,,,,3,,,,,,,,,,,,,,,,,,,,,,,,,,,,,,,,,,,,,,,,,,,,,,,,,,,,,,,,,,,,,,,,,,,,,,3,2023-11-30_09h43.15.684,watkins1,2023.2.3,99.71829601369164,34,2023-11-30 09h43.22.837338 +0000,
,,,0,0,0,0,,,,,,,,,,,,,,,,,,,,,71.02040789998136,,,,,,,,70.00670649996027,71.010330399964,77.50918479985557,78.00075829983689,71.50248809996992,77.50901839998551,2,4.201256300089881,None,78.00076940003783,84.00330229988322,2,4.201256300089881,None,84.00360209983774,84.49474249989726,84.49475289997645,90.49979759985581, ,None,None,90.5000211999286,90.50004439987242,90.50005179992877,90.50013599987142,,,,,,,,,,3,,,,,,,,,,,,,,,,,,,,,,,,,,,,,,,,,,,,,,,,,,,,,,,,,,,,,,,,,,,,,,,,,,,,,,3,2023-11-30_09h43.15.684,watkins1,2023.2.3,99.71829601369164,34,2023-11-30 09h43.22.837338 +0000,
,,,,,,,,,,,,,,,,,,,,,,,,,,,,,,,,,,,,,,,,,,,,,,,,,,,,,,,,,,,,,90.50025349995121,96.33816669997759,,,,,,,3,,,,,,,,,,,,,,,,,,,,,,,,,,,,,,,,,,,,,,,,,,,,,,,,,,,,,,,,,,,,,,,,,,,,,,3,2023-11-30_09h43.15.684,watkins1,2023.2.3,99.71829601369164,34,2023-11-30 09h43.22.837338 +0000,
,,,,,,,0,0,0,0,,,,,,,,,,,,,,,,,97.35190929984674,,,,,,,,96.33818239998072,97.34193370002322,97.34242119989358,97.83391609997489,,,1,4.003817500080913,,,,,,,,,,,,,,,,,,,,,97.83392719994299,103.84034210001118,Geige,matt,"['Geige', 'matt']",restudy,3,"['Geige', 'Hammer', 'Schlüssel', 'Kerze', 'Buch', 'Kiste', 'Uhr', 'Würfel', 'Schere', 'Ring', 'Brille', 'Tasse', 'Eimer', 'Flasche', 'Socke', 'Jacke', 'Rucksack', 'Kamera', 'Tasche', 'Vase', 'Kette', 'Lampe', 'Bürste', 'Fahrrad', 'Löffel', 'Telefon', 'Hut', 'Trommel', 'Stift', 'Blume']",['matt'],1,4.003817500080913,None,,,,,,,,,,,,,,,,,,,,,,,,,,,,,,,,,,,,,,,,,,,,,,,,,,,,,,,,,,,,,,,,,3,2023-11-30_09h43.15.684,watkins1,2023.2.3,99.71829601369164,34,2023-11-30 09h43.22.837338 +0000,
,,,,,,,1,0,1,0,,,,,,,,,,,,,,,,,103.84976969985291,,,,,,,,,,103.84101870004088,104.33192819985561,,,2,2.5712792000267655,,,,,,,,,,,,,,,,,,,,,104.33193809981458,110.33383259992115,Hammer,bunt,"['Hammer', 'bunt']",test_adj,3,"['Geige', 'Hammer', 'Schlüssel', 'Kerze', 'Buch', 'Kiste', 'Uhr', 'Würfel', 'Schere', 'Ring', 'Brille', 'Tasse', 'Eimer', 'Flasche', 'Socke', 'Jacke', 'Rucksack', 'Kamera', 'Tasche', 'Vase', 'Kette', 'Lampe', 'Bürste', 'Fahrrad', 'Löffel', 'Telefon', 'Hut', 'Trommel', 'Stift', 'Blume']","['matt', 'bunt']",2,2.5712792000267655,None,,,,,,,,,,,,,,,,,,,,,,,,,,,,,,,,,,,,,,,,,,,,,,,,,,,,,,,,,,,,,,,,,3,2023-11-30_09h43.15.684,watkins1,2023.2.3,99.71829601369164,34,2023-11-30 09h43.22.837338 +0000,
,,,,,,,2,0,2,0,,,,,,,,,,,,,,,,,110.34325969987549,,,,,,,,,,110.33435669983737,110.82539010001346,,,3,2.9809471999760717,,,,,,,,,,,,,,,,,,,,,110.82540049985982,116.82619089982472,Schlüssel,schwer,"['Schlüssel', 'schwer']",test_adj,3,"['Geige', 'Hammer', 'Schlüssel', 'Kerze', 'Buch', 'Kiste', 'Uhr', 'Würfel', 'Schere', 'Ring', 'Brille', 'Tasse', 'Eimer', 'Flasche', 'Socke', 'Jacke', 'Rucksack', 'Kamera', 'Tasche', 'Vase', 'Kette', 'Lampe', 'Bürste', 'Fahrrad', 'Löffel', 'Telefon', 'Hut', 'Trommel', 'Stift', 'Blume']","['matt', 'bunt', 'schwer']",3,2.9809471999760717,None,,,,,,,,,,,,,,,,,,,,,,,,,,,,,,,,,,,,,,,,,,,,,,,,,,,,,,,,,,,,,,,,,3,2023-11-30_09h43.15.684,watkins1,2023.2.3,99.71829601369164,34,2023-11-30 09h43.22.837338 +0000,
,,,,,,,3,0,3,0,,,,,,,,,,,,,,,,,116.83566109999083,,,,,,,,,,116.82672819984145,117.31776249990799,,,1,2.5061973000410944,,,,,,,,,,,,,,,,,,,,,117.31777259986848,123.3232334998902,Kerze,gut,"['Kerze', 'gut']",test_adj,3,"['Geige', 'Hammer', 'Schlüssel', 'Kerze', 'Buch', 'Kiste', 'Uhr', 'Würfel', 'Schere', 'Ring', 'Brille', 'Tasse', 'Eimer', 'Flasche', 'Socke', 'Jacke', 'Rucksack', 'Kamera', 'Tasche', 'Vase', 'Kette', 'Lampe', 'Bürste', 'Fahrrad', 'Löffel', 'Telefon', 'Hut', 'Trommel', 'Stift', 'Blume']","['matt', 'bunt', 'schwer', 'gut']",1,2.5061973000410944,None,,,,,,,,,,,,,,,,,,,,,,,,,,,,,,,,,,,,,,,,,,,,,,,,,,,,,,,,,,,,,,,,,3,2023-11-30_09h43.15.684,watkins1,2023.2.3,99.71829601369164,34,2023-11-30 09h43.22.837338 +0000,
,,,,,,,4,0,4,0,,,,,,,,,,,,,,,,,123.3327330998145,,,,,,,,,,123.32376019982621,123.81482889992185,,,1,2.695987799903378,,,,,,,,,,,,,,,,,,,,,123.81483939988539,129.81951669999398,Buch,niedlich,"['Buch', 'niedlich']",test_adj,3,"['Geige', 'Hammer', 'Schlüssel', 'Kerze', 'Buch', 'Kiste', 'Uhr', 'Würfel', 'Schere', 'Ring', 'Brille', 'Tasse', 'Eimer', 'Flasche', 'Socke', 'Jacke', 'Rucksack', 'Kamera', 'Tasche', 'Vase', 'Kette', 'Lampe', 'Bürste', 'Fahrrad', 'Löffel', 'Telefon', 'Hut', 'Trommel', 'Stift', 'Blume']","['matt', 'bunt', 'schwer', 'gut', 'niedlich']",1,2.695987799903378,None,,,,,,,,,,,,,,,,,,,,,,,,,,,,,,,,,,,,,,,,,,,,,,,,,,,,,,,,,,,,,,,,,3,2023-11-30_09h43.15.684,watkins1,2023.2.3,99.71829601369164,34,2023-11-30 09h43.22.837338 +0000,
,,,,,,,5,0,5,0,,,,,,,,,,,,,,,,,129.82898249989375,,,,,,,,,,129.8200474998448,130.311030899873,,,1,2.1773576999548823,,,,,,,,,,,,,,,,,,,,,130.31104089994915,136.32109159999527,Kiste,lustig,"['Kiste', 'lustig']",restudy,3,"['Geige', 'Hammer', 'Schlüssel', 'Kerze', 'Buch', 'Kiste', 'Uhr', 'Würfel', 'Schere', 'Ring', 'Brille', 'Tasse', 'Eimer', 'Flasche', 'Socke', 'Jacke', 'Rucksack', 'Kamera', 'Tasche', 'Vase', 'Kette', 'Lampe', 'Bürste', 'Fahrrad', 'Löffel', 'Telefon', 'Hut', 'Trommel', 'Stift', 'Blume']","['matt', 'bunt', 'schwer', 'gut', 'niedlich', 'lustig']",1,2.1773576999548823,None,,,,,,,,,,,,,,,,,,,,,,,,,,,,,,,,,,,,,,,,,,,,,,,,,,,,,,,,,,,,,,,,,3,2023-11-30_09h43.15.684,watkins1,2023.2.3,99.71829601369164,34,2023-11-30 09h43.22.837338 +0000,
,,,,,,,6,0,6,0,,,,,,,,,,,,,,,,,136.330609299941,,,,,,,,,,136.32162159984,136.81261170003563,,,3,2.274348800070584,,,,,,,,,,,,,,,,,,,,,136.81262219999917,142.81494760001078,Uhr,glänzend,"['Uhr', 'glänzend']",restudy,3,"['Geige', 'Hammer', 'Schlüssel', 'Kerze', 'Buch', 'Kiste', 'Uhr', 'Würfel', 'Schere', 'Ring', 'Brille', 'Tasse', 'Eimer', 'Flasche', 'Socke', 'Jacke', 'Rucksack', 'Kamera', 'Tasche', 'Vase', 'Kette', 'Lampe', 'Bürste', 'Fahrrad', 'Löffel', 'Telefon', 'Hut', 'Trommel', 'Stift', 'Blume']","['matt', 'bunt', 'schwer', 'gut', 'niedlich', 'lustig', 'glänzend']",3,2.274348800070584,None,,,,,,,,,,,,,,,,,,,,,,,,,,,,,,,,,,,,,,,,,,,,,,,,,,,,,,,,,,,,,,,,,3,2023-11-30_09h43.15.684,watkins1,2023.2.3,99.71829601369164,34,2023-11-30 09h43.22.837338 +0000,
,,,,,,,7,0,7,0,,,,,,,,,,,,,,,,,142.82435290003195,,,,,,,,,,142.8154757998418,143.3068550999742,,,1,2.140077300136909,,,,,,,,,,,,,,,,,,,,,143.30686569982208,149.31287359981798,Würfel,kalt,"['Würfel', 'kalt']",restudy,3,"['Geige', 'Hammer', 'Schlüssel', 'Kerze', 'Buch', 'Kiste', 'Uhr', 'Würfel', 'Schere', 'Ring', 'Brille', 'Tasse', 'Eimer', 'Flasche', 'Socke', 'Jacke', 'Rucksack', 'Kamera', 'Tasche', 'Vase', 'Kette', 'Lampe', 'Bürste', 'Fahrrad', 'Löffel', 'Telefon', 'Hut', 'Trommel', 'Stift', 'Blume']","['matt', 'bunt', 'schwer', 'gut', 'niedlich', 'lustig', 'glänzend', 'kalt']",1,2.140077300136909,None,,,,,,,,,,,,,,,,,,,,,,,,,,,,,,,,,,,,,,,,,,,,,,,,,,,,,,,,,,,,,,,,,3,2023-11-30_09h43.15.684,watkins1,2023.2.3,99.71829601369164,34,2023-11-30 09h43.22.837338 +0000,
,,,,,,,8,0,8,0,,,,,,,,,,,,,,,,,149.32229719986208,,,,,,,,,,149.31338289985433,149.80468739988282,,,1,2.91549040004611,,,,,,,,,,,,,,,,,,,,,149.80469749984331,155.81421179999597,Schere,durchsichtig,"['Schere', 'durchsichtig']",test_adj,3,"['Geige', 'Hammer', 'Schlüssel', 'Kerze', 'Buch', 'Kiste', 'Uhr', 'Würfel', 'Schere', 'Ring', 'Brille', 'Tasse', 'Eimer', 'Flasche', 'Socke', 'Jacke', 'Rucksack', 'Kamera', 'Tasche', 'Vase', 'Kette', 'Lampe', 'Bürste', 'Fahrrad', 'Löffel', 'Telefon', 'Hut', 'Trommel', 'Stift', 'Blume']","['matt', 'bunt', 'schwer', 'gut', 'niedlich', 'lustig', 'glänzend', 'kalt', 'durchsichtig']",1,2.91549040004611,None,,,,,,,,,,,,,,,,,,,,,,,,,,,,,,,,,,,,,,,,,,,,,,,,,,,,,,,,,,,,,,,,,3,2023-11-30_09h43.15.684,watkins1,2023.2.3,99.71829601369164,34,2023-11-30 09h43.22.837338 +0000,
,,,,,,,9,0,9,0,,,,,,,,,,,,,,,,,155.82365030003712,,,,,,,,,,155.814738499932,156.30580949992873,,,3,2.277602900052443,,,,,,,,,,,,,,,,,,,,,156.30581959988922,162.3084205999039,Ring,robust,"['Ring', 'robust']",restudy,3,"['Geige', 'Hammer', 'Schlüssel', 'Kerze', 'Buch', 'Kiste', 'Uhr', 'Würfel', 'Schere', 'Ring', 'Brille', 'Tasse', 'Eimer', 'Flasche', 'Socke', 'Jacke', 'Rucksack', 'Kamera', 'Tasche', 'Vase', 'Kette', 'Lampe', 'Bürste', 'Fahrrad', 'Löffel', 'Telefon', 'Hut', 'Trommel', 'Stift', 'Blume']","['matt', 'bunt', 'schwer', 'gut', 'niedlich', 'lustig', 'glänzend', 'kalt', 'durchsichtig', 'robust']",3,2.277602900052443,None,,,,,,,,,,,,,,,,,,,,,,,,,,,,,,,,,,,,,,,,,,,,,,,,,,,,,,,,,,,,,,,,,3,2023-11-30_09h43.15.684,watkins1,2023.2.3,99.71829601369164,34,2023-11-30 09h43.22.837338 +0000,
,,,,,,,10,0,10,0,,,,,,,,,,,,,,,,,162.31792529998347,,,,,,,,,,162.30897279991768,162.80037149996497,,,3,1.8798214998096228,,,,,,,,,,,,,,,,,,,,,162.8003819999285,168.80912419990636,Brille,biegsam,"['Brille', 'biegsam']",restudy,3,"['Geige', 'Hammer', 'Schlüssel', 'Kerze', 'Buch', 'Kiste', 'Uhr', 'Würfel', 'Schere', 'Ring', 'Brille', 'Tasse', 'Eimer', 'Flasche', 'Socke', 'Jacke', 'Rucksack', 'Kamera', 'Tasche', 'Vase', 'Kette', 'Lampe', 'Bürste', 'Fahrrad', 'Löffel', 'Telefon', 'Hut', 'Trommel', 'Stift', 'Blume']","['matt', 'bunt', 'schwer', 'gut', 'niedlich', 'lustig', 'glänzend', 'kalt', 'durchsichtig', 'robust', 'biegsam']",3,1.8798214998096228,None,,,,,,,,,,,,,,,,,,,,,,,,,,,,,,,,,,,,,,,,,,,,,,,,,,,,,,,,,,,,,,,,,3,2023-11-30_09h43.15.684,watkins1,2023.2.3,99.71829601369164,34,2023-11-30 09h43.22.837338 +0000,
,,,,,,,11,0,11,0,,,,,,,,,,,,,,,,,168.81864199996926,,,,,,,,,,168.80964570003562,169.30068089999259,,,3,2.0984966999385506,,,,,,,,,,,,,,,,,,,,,169.30069149984047,175.30654599983245,Tasse,gepunktet,"['Tasse', 'gepunktet']",test_adj,3,"['Geige', 'Hammer', 'Schlüssel', 'Kerze', 'Buch', 'Kiste', 'Uhr', 'Würfel', 'Schere', 'Ring', 'Brille', 'Tasse', 'Eimer', 'Flasche', 'Socke', 'Jacke', 'Rucksack', 'Kamera', 'Tasche', 'Vase', 'Kette', 'Lampe', 'Bürste', 'Fahrrad', 'Löffel', 'Telefon', 'Hut', 'Trommel', 'Stift', 'Blume']","['matt', 'bunt', 'schwer', 'gut', 'niedlich', 'lustig', 'glänzend', 'kalt', 'durchsichtig', 'robust', 'biegsam', 'gepunktet']",3,2.0984966999385506,None,,,,,,,,,,,,,,,,,,,,,,,,,,,,,,,,,,,,,,,,,,,,,,,,,,,,,,,,,,,,,,,,,3,2023-11-30_09h43.15.684,watkins1,2023.2.3,99.71829601369164,34,2023-11-30 09h43.22.837338 +0000,
,,,,,,,12,0,12,0,,,,,,,,,,,,,,,,,175.31598069984466,,,,,,,,,,175.30707019986585,175.79807589994743,,,1,1.993728500092402,,,,,,,,,,,,,,,,,,,,,175.79808619990945,181.80860769981518,Eimer,blass,"['Eimer', 'blass']",test_adj,3,"['Geige', 'Hammer', 'Schlüssel', 'Kerze', 'Buch', 'Kiste', 'Uhr', 'Würfel', 'Schere', 'Ring', 'Brille', 'Tasse', 'Eimer', 'Flasche', 'Socke', 'Jacke', 'Rucksack', 'Kamera', 'Tasche', 'Vase', 'Kette', 'Lampe', 'Bürste', 'Fahrrad', 'Löffel', 'Telefon', 'Hut', 'Trommel', 'Stift', 'Blume']","['matt', 'bunt', 'schwer', 'gut', 'niedlich', 'lustig', 'glänzend', 'kalt', 'durchsichtig', 'robust', 'biegsam', 'gepunktet', 'blass']",1,1.993728500092402,None,,,,,,,,,,,,,,,,,,,,,,,,,,,,,,,,,,,,,,,,,,,,,,,,,,,,,,,,,,,,,,,,,3,2023-11-30_09h43.15.684,watkins1,2023.2.3,99.71829601369164,34,2023-11-30 09h43.22.837338 +0000,
,,,,,,,13,0,13,0,,,,,,,,,,,,,,,,,181.81806809990667,,,,,,,,,,181.80972619983368,182.30033629992977,,,1,2.0275739000644535,,,,,,,,,,,,,,,,,,,,,182.30034650000744,188.30407790001482,Flasche,kurz,"['Flasche', 'kurz']",restudy,3,"['Geige', 'Hammer', 'Schlüssel', 'Kerze', 'Buch', 'Kiste', 'Uhr', 'Würfel', 'Schere', 'Ring', 'Brille', 'Tasse', 'Eimer', 'Flasche', 'Socke', 'Jacke', 'Rucksack', 'Kamera', 'Tasche', 'Vase', 'Kette', 'Lampe', 'Bürste', 'Fahrrad', 'Löffel', 'Telefon', 'Hut', 'Trommel', 'Stift', 'Blume']","['matt', 'bunt', 'schwer', 'gut', 'niedlich', 'lustig', 'glänzend', 'kalt', 'durchsichtig', 'robust', 'biegsam', 'gepunktet', 'blass', 'kurz']",1,2.0275739000644535,None,,,,,,,,,,,,,,,,,,,,,,,,,,,,,,,,,,,,,,,,,,,,,,,,,,,,,,,,,,,,,,,,,3,2023-11-30_09h43.15.684,watkins1,2023.2.3,99.71829601369164,34,2023-11-30 09h43.22.837338 +0000,
,,,,,,,14,0,14,0,,,,,,,,,,,,,,,,,188.31356889987364,,,,,,,,,,188.30460269981995,188.79564999998547,,,3,1.876876100199297,,,,,,,,,,,,,,,,,,,,,188.79566059983335,194.80449340003543,Socke,teuer,"['Socke', 'teuer']",restudy,3,"['Geige', 'Hammer', 'Schlüssel', 'Kerze', 'Buch', 'Kiste', 'Uhr', 'Würfel', 'Schere', 'Ring', 'Brille', 'Tasse', 'Eimer', 'Flasche', 'Socke', 'Jacke', 'Rucksack', 'Kamera', 'Tasche', 'Vase', 'Kette', 'Lampe', 'Bürste', 'Fahrrad', 'Löffel', 'Telefon', 'Hut', 'Trommel', 'Stift', 'Blume']","['matt', 'bunt', 'schwer', 'gut', 'niedlich', 'lustig', 'glänzend', 'kalt', 'durchsichtig', 'robust', 'biegsam', 'gepunktet', 'blass', 'kurz', 'teuer']",3,1.876876100199297,None,,,,,,,,,,,,,,,,,,,,,,,,,,,,,,,,,,,,,,,,,,,,,,,,,,,,,,,,,,,,,,,,,3,2023-11-30_09h43.15.684,watkins1,2023.2.3,99.71829601369164,34,2023-11-30 09h43.22.837338 +0000,
,,,,,,,15,0,15,0,,,,,,,,,,,,,,,,,194.81396449985914,,,,,,,,,,194.80502579989843,195.29599879984744,,,3,2.0473988000303507,,,,,,,,,,,,,,,,,,,,,195.29600959992968,201.2978552998975,Jacke,flauschig,"['Jacke', 'flauschig']",test_adj,3,"['Geige', 'Hammer', 'Schlüssel', 'Kerze', 'Buch', 'Kiste', 'Uhr', 'Würfel', 'Schere', 'Ring', 'Brille', 'Tasse', 'Eimer', 'Flasche', 'Socke', 'Jacke', 'Rucksack', 'Kamera', 'Tasche', 'Vase', 'Kette', 'Lampe', 'Bürste', 'Fahrrad', 'Löffel', 'Telefon', 'Hut', 'Trommel', 'Stift', 'Blume']","['matt', 'bunt', 'schwer', 'gut', 'niedlich', 'lustig', 'glänzend', 'kalt', 'durchsichtig', 'robust', 'biegsam', 'gepunktet', 'blass', 'kurz', 'teuer', 'flauschig']",3,2.0473988000303507,None,,,,,,,,,,,,,,,,,,,,,,,,,,,,,,,,,,,,,,,,,,,,,,,,,,,,,,,,,,,,,,,,,3,2023-11-30_09h43.15.684,watkins1,2023.2.3,99.71829601369164,34,2023-11-30 09h43.22.837338 +0000,
,,,,,,,16,0,16,0,,,,,,,,,,,,,,,,,201.30726010003127,,,,,,,,,,201.29839559993707,201.78939529997297,,,3,1.5390666001476347,,,,,,,,,,,,,,,,,,,,,201.78940769983456,207.7983064998407,Rucksack,sauber,"['Rucksack', 'sauber']",test_adj,3,"['Geige', 'Hammer', 'Schlüssel', 'Kerze', 'Buch', 'Kiste', 'Uhr', 'Würfel', 'Schere', 'Ring', 'Brille', 'Tasse', 'Eimer', 'Flasche', 'Socke', 'Jacke', 'Rucksack', 'Kamera', 'Tasche', 'Vase', 'Kette', 'Lampe', 'Bürste', 'Fahrrad', 'Löffel', 'Telefon', 'Hut', 'Trommel', 'Stift', 'Blume']","['matt', 'bunt', 'schwer', 'gut', 'niedlich', 'lustig', 'glänzend', 'kalt', 'durchsichtig', 'robust', 'biegsam', 'gepunktet', 'blass', 'kurz', 'teuer', 'flauschig', 'sauber']",3,1.5390666001476347,None,,,,,,,,,,,,,,,,,,,,,,,,,,,,,,,,,,,,,,,,,,,,,,,,,,,,,,,,,,,,,,,,,3,2023-11-30_09h43.15.684,watkins1,2023.2.3,99.71829601369164,34,2023-11-30 09h43.22.837338 +0000,
,,,,,,,17,0,17,0,,,,,,,,,,,,,,,,,207.80789429997094,,,,,,,,,,207.79883809993044,208.28988679987378,,,3,1.5174801999237388,,,,,,,,,,,,,,,,,,,,,208.28989719995297,214.2910574998241,Kamera,groß,"['Kamera', 'groß']",test_adj,3,"['Geige', 'Hammer', 'Schlüssel', 'Kerze', 'Buch', 'Kiste', 'Uhr', 'Würfel', 'Schere', 'Ring', 'Brille', 'Tasse', 'Eimer', 'Flasche', 'Socke', 'Jacke', 'Rucksack', 'Kamera', 'Tasche', 'Vase', 'Kette', 'Lampe', 'Bürste', 'Fahrrad', 'Löffel', 'Telefon', 'Hut', 'Trommel', 'Stift', 'Blume']","['matt', 'bunt', 'schwer', 'gut', 'niedlich', 'lustig', 'glänzend', 'kalt', 'durchsichtig', 'robust', 'biegsam', 'gepunktet', 'blass', 'kurz', 'teuer', 'flauschig', 'sauber', 'groß']",3,1.5174801999237388,None,,,,,,,,,,,,,,,,,,,,,,,,,,,,,,,,,,,,,,,,,,,,,,,,,,,,,,,,,,,,,,,,,3,2023-11-30_09h43.15.684,watkins1,2023.2.3,99.71829601369164,34,2023-11-30 09h43.22.837338 +0000,
,,,,,,,18,0,18,0,,,,,,,,,,,,,,,,,214.30054249987006,,,,,,,,,,214.29157919995487,214.78250949992798,,,2,2.7058011000044644,,,,,,,,,,,,,,,,,,,,,214.7825205998961,220.78459709999152,Tasche,rustikal,"['Tasche', 'rustikal']",test_adj,3,"['Geige', 'Hammer', 'Schlüssel', 'Kerze', 'Buch', 'Kiste', 'Uhr', 'Würfel', 'Schere', 'Ring', 'Brille', 'Tasse', 'Eimer', 'Flasche', 'Socke', 'Jacke', 'Rucksack', 'Kamera', 'Tasche', 'Vase', 'Kette', 'Lampe', 'Bürste', 'Fahrrad', 'Löffel', 'Telefon', 'Hut', 'Trommel', 'Stift', 'Blume']","['matt', 'bunt', 'schwer', 'gut', 'niedlich', 'lustig', 'glänzend', 'kalt', 'durchsichtig', 'robust', 'biegsam', 'gepunktet', 'blass', 'kurz', 'teuer', 'flauschig', 'sauber', 'groß', 'rustikal']",2,2.7058011000044644,None,,,,,,,,,,,,,,,,,,,,,,,,,,,,,,,,,,,,,,,,,,,,,,,,,,,,,,,,,,,,,,,,,3,2023-11-30_09h43.15.684,watkins1,2023.2.3,99.71829601369164,34,2023-11-30 09h43.22.837338 +0000,
,,,,,,,19,0,19,0,,,,,,,,,,,,,,,,,220.79404979990795,,,,,,,,,,220.7851213000249,221.27601999999024,,,3,1.8199398999568075,,,,,,,,,,,,,,,,,,,,,221.27602999983355,227.28566689998843,Vase,krumm,"['Vase', 'krumm']",restudy,3,"['Geige', 'Hammer', 'Schlüssel', 'Kerze', 'Buch', 'Kiste', 'Uhr', 'Würfel', 'Schere', 'Ring', 'Brille', 'Tasse', 'Eimer', 'Flasche', 'Socke', 'Jacke', 'Rucksack', 'Kamera', 'Tasche', 'Vase', 'Kette', 'Lampe', 'Bürste', 'Fahrrad', 'Löffel', 'Telefon', 'Hut', 'Trommel', 'Stift', 'Blume']","['matt', 'bunt', 'schwer', 'gut', 'niedlich', 'lustig', 'glänzend', 'kalt', 'durchsichtig', 'robust', 'biegsam', 'gepunktet', 'blass', 'kurz', 'teuer', 'flauschig', 'sauber', 'groß', 'rustikal', 'krumm']",3,1.8199398999568075,None,,,,,,,,,,,,,,,,,,,,,,,,,,,,,,,,,,,,,,,,,,,,,,,,,,,,,,,,,,,,,,,,,3,2023-11-30_09h43.15.684,watkins1,2023.2.3,99.71829601369164,34,2023-11-30 09h43.22.837338 +0000,
,,,,,,,20,0,20,0,,,,,,,,,,,,,,,,,227.29514349997044,,,,,,,,,,227.28619559993967,227.77724209986627,,,2,1.4709453999530524,,,,,,,,,,,,,,,,,,,,,227.77725359983742,233.78640390001237,Kette,glatt,"['Kette', 'glatt']",test_adj,3,"['Geige', 'Hammer', 'Schlüssel', 'Kerze', 'Buch', 'Kiste', 'Uhr', 'Würfel', 'Schere', 'Ring', 'Brille', 'Tasse', 'Eimer', 'Flasche', 'Socke', 'Jacke', 'Rucksack', 'Kamera', 'Tasche', 'Vase', 'Kette', 'Lampe', 'Bürste', 'Fahrrad', 'Löffel', 'Telefon', 'Hut', 'Trommel', 'Stift', 'Blume']","['matt', 'bunt', 'schwer', 'gut', 'niedlich', 'lustig', 'glänzend', 'kalt', 'durchsichtig', 'robust', 'biegsam', 'gepunktet', 'blass', 'kurz', 'teuer', 'flauschig', 'sauber', 'groß', 'rustikal', 'krumm', 'glatt']",2,1.4709453999530524,None,,,,,,,,,,,,,,,,,,,,,,,,,,,,,,,,,,,,,,,,,,,,,,,,,,,,,,,,,,,,,,,,,3,2023-11-30_09h43.15.684,watkins1,2023.2.3,99.71829601369164,34,2023-11-30 09h43.22.837338 +0000,
,,,,,,,21,0,21,0,,,,,,,,,,,,,,,,,233.79591139988042,,,,,,,,,,233.78693619999103,234.2779959999025,,,1,1.9623702999670058,,,,,,,,,,,,,,,,,,,,,234.27800689986907,240.2798750998918,Lampe,zart,"['Lampe', 'zart']",restudy,3,"['Geige', 'Hammer', 'Schlüssel', 'Kerze', 'Buch', 'Kiste', 'Uhr', 'Würfel', 'Schere', 'Ring', 'Brille', 'Tasse', 'Eimer', 'Flasche', 'Socke', 'Jacke', 'Rucksack', 'Kamera', 'Tasche', 'Vase', 'Kette', 'Lampe', 'Bürste', 'Fahrrad', 'Löffel', 'Telefon', 'Hut', 'Trommel', 'Stift', 'Blume']","['matt', 'bunt', 'schwer', 'gut', 'niedlich', 'lustig', 'glänzend', 'kalt', 'durchsichtig', 'robust', 'biegsam', 'gepunktet', 'blass', 'kurz', 'teuer', 'flauschig', 'sauber', 'groß', 'rustikal', 'krumm', 'glatt', 'zart']",1,1.9623702999670058,None,,,,,,,,,,,,,,,,,,,,,,,,,,,,,,,,,,,,,,,,,,,,,,,,,,,,,,,,,,,,,,,,,3,2023-11-30_09h43.15.684,watkins1,2023.2.3,99.71829601369164,34,2023-11-30 09h43.22.837338 +0000,
,,,,,,,22,0,22,0,,,,,,,,,,,,,,,,,240.2894577998668,,,,,,,,,,240.28040619986132,240.77152009983547,,,3,1.4255588999949396,,,,,,,,,,,,,,,,,,,,,240.77153129992075,246.77928399993107,Bürste,schmutzig,"['Bürste', 'schmutzig']",test_adj,3,"['Geige', 'Hammer', 'Schlüssel', 'Kerze', 'Buch', 'Kiste', 'Uhr', 'Würfel', 'Schere', 'Ring', 'Brille', 'Tasse', 'Eimer', 'Flasche', 'Socke', 'Jacke', 'Rucksack', 'Kamera', 'Tasche', 'Vase', 'Kette', 'Lampe', 'Bürste', 'Fahrrad', 'Löffel', 'Telefon', 'Hut', 'Trommel', 'Stift', 'Blume']","['matt', 'bunt', 'schwer', 'gut', 'niedlich', 'lustig', 'glänzend', 'kalt', 'durchsichtig', 'robust', 'biegsam', 'gepunktet', 'blass', 'kurz', 'teuer', 'flauschig', 'sauber', 'groß', 'rustikal', 'krumm', 'glatt', 'zart', 'schmutzig']",3,1.4255588999949396,None,,,,,,,,,,,,,,,,,,,,,,,,,,,,,,,,,,,,,,,,,,,,,,,,,,,,,,,,,,,,,,,,,3,2023-11-30_09h43.15.684,watkins1,2023.2.3,99.71829601369164,34,2023-11-30 09h43.22.837338 +0000,
,,,,,,,23,0,23,0,,,,,,,,,,,,,,,,,246.78879549982958,,,,,,,,,,246.77981909993105,247.27069039992057,,,3,2.30526340007782,,,,,,,,,,,,,,,,,,,,,247.2707001999952,253.27201900002547,Fahrrad,nachhaltig,"['Fahrrad', 'nachhaltig']",restudy,3,"['Geige', 'Hammer', 'Schlüssel', 'Kerze', 'Buch', 'Kiste', 'Uhr', 'Würfel', 'Schere', 'Ring', 'Brille', 'Tasse', 'Eimer', 'Flasche', 'Socke', 'Jacke', 'Rucksack', 'Kamera', 'Tasche', 'Vase', 'Kette', 'Lampe', 'Bürste', 'Fahrrad', 'Löffel', 'Telefon', 'Hut', 'Trommel', 'Stift', 'Blume']","['matt', 'bunt', 'schwer', 'gut', 'niedlich', 'lustig', 'glänzend', 'kalt', 'durchsichtig', 'robust', 'biegsam', 'gepunktet', 'blass', 'kurz', 'teuer', 'flauschig', 'sauber', 'groß', 'rustikal', 'krumm', 'glatt', 'zart', 'schmutzig', 'nachhaltig']",3,2.30526340007782,None,,,,,,,,,,,,,,,,,,,,,,,,,,,,,,,,,,,,,,,,,,,,,,,,,,,,,,,,,,,,,,,,,3,2023-11-30_09h43.15.684,watkins1,2023.2.3,99.71829601369164,34,2023-11-30 09h43.22.837338 +0000,
,,,,,,,24,0,24,0,,,,,,,,,,,,,,,,,253.2814962998964,,,,,,,,,,253.27256049984135,253.7636434000451,,,2,2.2595345000736415,,,,,,,,,,,,,,,,,,,,,253.76365419989452,259.7703490999993,Löffel,gestreift,"['Löffel', 'gestreift']",restudy,3,"['Geige', 'Hammer', 'Schlüssel', 'Kerze', 'Buch', 'Kiste', 'Uhr', 'Würfel', 'Schere', 'Ring', 'Brille', 'Tasse', 'Eimer', 'Flasche', 'Socke', 'Jacke', 'Rucksack', 'Kamera', 'Tasche', 'Vase', 'Kette', 'Lampe', 'Bürste', 'Fahrrad', 'Löffel', 'Telefon', 'Hut', 'Trommel', 'Stift', 'Blume']","['matt', 'bunt', 'schwer', 'gut', 'niedlich', 'lustig', 'glänzend', 'kalt', 'durchsichtig', 'robust', 'biegsam', 'gepunktet', 'blass', 'kurz', 'teuer', 'flauschig', 'sauber', 'groß', 'rustikal', 'krumm', 'glatt', 'zart', 'schmutzig', 'nachhaltig', 'gestreift']",2,2.2595345000736415,None,,,,,,,,,,,,,,,,,,,,,,,,,,,,,,,,,,,,,,,,,,,,,,,,,,,,,,,,,,,,,,,,,3,2023-11-30_09h43.15.684,watkins1,2023.2.3,99.71829601369164,34,2023-11-30 09h43.22.837338 +0000,
,,,,,,,25,0,25,0,,,,,,,,,,,,,,,,,259.7798202999402,,,,,,,,,,259.7708656999748,260.2618541000411,,,3,1.7703994000330567,,,,,,,,,,,,,,,,,,,,,260.26186480000615,266.2713815998286,Telefon,hässlich,"['Telefon', 'hässlich']",restudy,3,"['Geige', 'Hammer', 'Schlüssel', 'Kerze', 'Buch', 'Kiste', 'Uhr', 'Würfel', 'Schere', 'Ring', 'Brille', 'Tasse', 'Eimer', 'Flasche', 'Socke', 'Jacke', 'Rucksack', 'Kamera', 'Tasche', 'Vase', 'Kette', 'Lampe', 'Bürste', 'Fahrrad', 'Löffel', 'Telefon', 'Hut', 'Trommel', 'Stift', 'Blume']","['matt', 'bunt', 'schwer', 'gut', 'niedlich', 'lustig', 'glänzend', 'kalt', 'durchsichtig', 'robust', 'biegsam', 'gepunktet', 'blass', 'kurz', 'teuer', 'flauschig', 'sauber', 'groß', 'rustikal', 'krumm', 'glatt', 'zart', 'schmutzig', 'nachhaltig', 'gestreift', 'hässlich']",3,1.7703994000330567,None,,,,,,,,,,,,,,,,,,,,,,,,,,,,,,,,,,,,,,,,,,,,,,,,,,,,,,,,,,,,,,,,,3,2023-11-30_09h43.15.684,watkins1,2023.2.3,99.71829601369164,34,2023-11-30 09h43.22.837338 +0000,
,,,,,,,26,0,26,0,,,,,,,,,,,,,,,,,266.280774399871,,,,,,,,,,266.2719143999275,266.7630966999568,,,3,1.4212856001686305,,,,,,,,,,,,,,,,,,,,,266.76310739992186,272.77278849994764,Hut,breit,"['Hut', 'breit']",test_adj,3,"['Geige', 'Hammer', 'Schlüssel', 'Kerze', 'Buch', 'Kiste', 'Uhr', 'Würfel', 'Schere', 'Ring', 'Brille', 'Tasse', 'Eimer', 'Flasche', 'Socke', 'Jacke', 'Rucksack', 'Kamera', 'Tasche', 'Vase', 'Kette', 'Lampe', 'Bürste', 'Fahrrad', 'Löffel', 'Telefon', 'Hut', 'Trommel', 'Stift', 'Blume']","['matt', 'bunt', 'schwer', 'gut', 'niedlich', 'lustig', 'glänzend', 'kalt', 'durchsichtig', 'robust', 'biegsam', 'gepunktet', 'blass', 'kurz', 'teuer', 'flauschig', 'sauber', 'groß', 'rustikal', 'krumm', 'glatt', 'zart', 'schmutzig', 'nachhaltig', 'gestreift', 'hässlich', 'breit']",3,1.4212856001686305,None,,,,,,,,,,,,,,,,,,,,,,,,,,,,,,,,,,,,,,,,,,,,,,,,,,,,,,,,,,,,,,,,,3,2023-11-30_09h43.15.684,watkins1,2023.2.3,99.71829601369164,34,2023-11-30 09h43.22.837338 +0000,
,,,,,,,27,0,27,0,,,,,,,,,,,,,,,,,272.78220529993996,,,,,,,,,,272.7733072999399,273.2645904000383,,,2,1.551592699950561,,,,,,,,,,,,,,,,,,,,,273.26460079988465,279.26711559994146,Trommel,strahlend,"['Trommel', 'strahlend']",restudy,3,"['Geige', 'Hammer', 'Schlüssel', 'Kerze', 'Buch', 'Kiste', 'Uhr', 'Würfel', 'Schere', 'Ring', 'Brille', 'Tasse', 'Eimer', 'Flasche', 'Socke', 'Jacke', 'Rucksack', 'Kamera', 'Tasche', 'Vase', 'Kette', 'Lampe', 'Bürste', 'Fahrrad', 'Löffel', 'Telefon', 'Hut', 'Trommel', 'Stift', 'Blume']","['matt', 'bunt', 'schwer', 'gut', 'niedlich', 'lustig', 'glänzend', 'kalt', 'durchsichtig', 'robust', 'biegsam', 'gepunktet', 'blass', 'kurz', 'teuer', 'flauschig', 'sauber', 'groß', 'rustikal', 'krumm', 'glatt', 'zart', 'schmutzig', 'nachhaltig', 'gestreift', 'hässlich', 'breit', 'strahlend']",2,1.551592699950561,None,,,,,,,,,,,,,,,,,,,,,,,,,,,,,,,,,,,,,,,,,,,,,,,,,,,,,,,,,,,,,,,,,3,2023-11-30_09h43.15.684,watkins1,2023.2.3,99.71829601369164,34,2023-11-30 09h43.22.837338 +0000,
,,,,,,,28,0,28,0,,,,,,,,,,,,,,,,,279.27661629999056,,,,,,,,,,279.2676393999718,279.75898279994726,,,3,1.3776073001790792,,,,,,,,,,,,,,,,,,,,,279.75899289990775,285.7683997999411,Stift,dick,"['Stift', 'dick']",test_adj,3,"['Geige', 'Hammer', 'Schlüssel', 'Kerze', 'Buch', 'Kiste', 'Uhr', 'Würfel', 'Schere', 'Ring', 'Brille', 'Tasse', 'Eimer', 'Flasche', 'Socke', 'Jacke', 'Rucksack', 'Kamera', 'Tasche', 'Vase', 'Kette', 'Lampe', 'Bürste', 'Fahrrad', 'Löffel', 'Telefon', 'Hut', 'Trommel', 'Stift', 'Blume']","['matt', 'bunt', 'schwer', 'gut', 'niedlich', 'lustig', 'glänzend', 'kalt', 'durchsichtig', 'robust', 'biegsam', 'gepunktet', 'blass', 'kurz', 'teuer', 'flauschig', 'sauber', 'groß', 'rustikal', 'krumm', 'glatt', 'zart', 'schmutzig', 'nachhaltig', 'gestreift', 'hässlich', 'breit', 'strahlend', 'dick']",3,1.3776073001790792,None,,,,,,,,,,,,,,,,,,,,,,,,,,,,,,,,,,,,,,,,,,,,,,,,,,,,,,,,,,,,,,,,,3,2023-11-30_09h43.15.684,watkins1,2023.2.3,99.71829601369164,34,2023-11-30 09h43.22.837338 +0000,
,,,,,,,29,0,29,0,,,,,,,,,,,,,,,,,285.77780879987404,,,,,,,,,,285.7689376999624,286.25987159996293,,,1,1.5402453001588583,,,,,,,,,,,,,,,,,,,,,286.25988259981386,292.26266779983416,Blume,kratzig,"['Blume', 'kratzig']",restudy,3,"['Geige', 'Hammer', 'Schlüssel', 'Kerze', 'Buch', 'Kiste', 'Uhr', 'Würfel', 'Schere', 'Ring', 'Brille', 'Tasse', 'Eimer', 'Flasche', 'Socke', 'Jacke', 'Rucksack', 'Kamera', 'Tasche', 'Vase', 'Kette', 'Lampe', 'Bürste', 'Fahrrad', 'Löffel', 'Telefon', 'Hut', 'Trommel', 'Stift', 'Blume']","['matt', 'bunt', 'schwer', 'gut', 'niedlich', 'lustig', 'glänzend', 'kalt', 'durchsichtig', 'robust', 'biegsam', 'gepunktet', 'blass', 'kurz', 'teuer', 'flauschig', 'sauber', 'groß', 'rustikal', 'krumm', 'glatt', 'zart', 'schmutzig', 'nachhaltig', 'gestreift', 'hässlich', 'breit', 'strahlend', 'dick', 'kratzig']",1,1.5402453001588583,None,,,,,,,,,,,,,,,,,,,,,,,,,,,,,,,,,,,,,,,,,,,,,,,,,,,,,,,,,,,,,,,,,3,2023-11-30_09h43.15.684,watkins1,2023.2.3,99.71829601369164,34,2023-11-30 09h43.22.837338 +0000,
,,,,,,,,,,,0,0,0,0,,,,,,,,,,,,,292.2722081998363,,,,,,,,,,292.2635243998375,292.75422639981844,,,[],[],,,,,,,,,,,breit,None,None,,,,,,,,,,Hut,breit,"['Hut', 'breit']",test_adj,3,,,,,,292.2634472998325,292.2634966999758,"['Hut', 'Flasche', 'Rucksack', 'Schere', 'Vase', 'Buch', 'Kiste', 'Hammer', 'Kette', 'Eimer', 'Jacke', 'Bürste', 'Trommel', 'Brille', 'Telefon', 'Würfel', 'Uhr', 'Geige', 'Blume', 'Kerze', 'Lampe', 'Tasche', 'Socke', 'Ring', 'Tasse', 'Schlüssel', 'Kamera', 'Fahrrad', 'Löffel', 'Stift']",292.7542379000224,292.7568898999598,None,292.75707779987715,292.75948939984664,None,292.75965110003017,292.76258379989304,None,292.7627413000446,0,298.7678753999062,298.76788980001584,298.76916839997284,,,,,,,,,,,,,,,,,,,,,,,,,,,,,,,,,,,,,,,,,,,,,,,,3,2023-11-30_09h43.15.684,watkins1,2023.2.3,99.71829601369164,34,2023-11-30 09h43.22.837338 +0000,
,,,,,,,,,,,1,0,1,0,,,,,,,,,,,,,298.77767119999044,,,,,,,,,,298.7694608999882,299.2597345998511,,,[],[],,,,,,,,,,,,None,None,,,,,,,,,,Flasche,kurz,"['Flasche', 'kurz']",restudy,3,,,,,,298.76939140004106,298.76943099987693,"['Hut', 'Flasche', 'Rucksack', 'Schere', 'Vase', 'Buch', 'Kiste', 'Hammer', 'Kette', 'Eimer', 'Jacke', 'Bürste', 'Trommel', 'Brille', 'Telefon', 'Würfel', 'Uhr', 'Geige', 'Blume', 'Kerze', 'Lampe', 'Tasche', 'Socke', 'Ring', 'Tasse', 'Schlüssel', 'Kamera', 'Fahrrad', 'Löffel', 'Stift']",299.2597450998146,299.2625504999887,None,299.2626759998966,305.2653446998447,1,305.26574509986676,305.2683039000258,None,305.26841909997165,,305.26991509995423,305.2699269000441,305.2709549998399,4.809117599856108,None,,,,,,,,,,,,,,,,,,,,,,,,,,,,,,,,,,,,,,,,,,,,,,3,2023-11-30_09h43.15.684,watkins1,2023.2.3,99.71829601369164,34,2023-11-30 09h43.22.837338 +0000,
,,,,,,,,,,,2,0,2,0,,,,,,,,,,,,,305.2748137000017,,,,,,,,,,305.2712409000378,305.7669112998992,,,[],[],,,,,,,,,,,rus,None,None,,,,,,,,,,Rucksack,sauber,"['Rucksack', 'sauber']",test_adj,3,,,,,,305.2711746999994,305.2712136998307,"['Hut', 'Flasche', 'Rucksack', 'Schere', 'Vase', 'Buch', 'Kiste', 'Hammer', 'Kette', 'Eimer', 'Jacke', 'Bürste', 'Trommel', 'Brille', 'Telefon', 'Würfel', 'Uhr', 'Geige', 'Blume', 'Kerze', 'Lampe', 'Tasche', 'Socke', 'Ring', 'Tasse', 'Schlüssel', 'Kamera', 'Fahrrad', 'Löffel', 'Stift']",305.7669221998658,305.76990989991464,None,305.7700371998362,305.77150049991906,None,305.7716112998314,305.77307559992187,None,305.77318399981596,0,311.7767482998315,311.7767633998301,311.77795029990375,,,,,,,,,,,,,,,,,,,,,,,,,,,,,,,,,,,,,,,,,,,,,,,,3,2023-11-30_09h43.15.684,watkins1,2023.2.3,99.71829601369164,34,2023-11-30 09h43.22.837338 +0000,
,,,,,,,,,,,3,0,3,0,,,,,,,,,,,,,311.7854824999813,,,,,,,,,,311.7782380999997,312.26805870002136,,,[],[],,,,,,,,,,,durchsichtig,None,None,,,,,,,,,,Schere,durchsichtig,"['Schere', 'durchsichtig']",test_adj,3,,,,,,311.7781680999324,311.77820899989456,"['Hut', 'Flasche', 'Rucksack', 'Schere', 'Vase', 'Buch', 'Kiste', 'Hammer', 'Kette', 'Eimer', 'Jacke', 'Bürste', 'Trommel', 'Brille', 'Telefon', 'Würfel', 'Uhr', 'Geige', 'Blume', 'Kerze', 'Lampe', 'Tasche', 'Socke', 'Ring', 'Tasse', 'Schlüssel', 'Kamera', 'Fahrrad', 'Löffel', 'Stift']",312.26806979998946,312.2707795999013,None,312.2709071999416,312.2735939999111,None,312.2737046999391,312.27625869982876,None,312.27636769996025,0,318.2815151999239,318.28152960003354,318.2829670999199,,,,,,,,,,,,,,,,,,,,,,,,,,,,,,,,,,,,,,,,,,,,,,,,3,2023-11-30_09h43.15.684,watkins1,2023.2.3,99.71829601369164,34,2023-11-30 09h43.22.837338 +0000,
,,,,,,,,,,,4,0,4,0,,,,,,,,,,,,,318.2913005000446,,,,,,,,,,318.2832599999383,318.77327819983475,,,[],[],,,,,,,,,,,,None,None,,,,,,,,,,Vase,krumm,"['Vase', 'krumm']",restudy,3,,,,,,318.2831882999744,318.2832306998316,"['Hut', 'Flasche', 'Rucksack', 'Schere', 'Vase', 'Buch', 'Kiste', 'Hammer', 'Kette', 'Eimer', 'Jacke', 'Bürste', 'Trommel', 'Brille', 'Telefon', 'Würfel', 'Uhr', 'Geige', 'Blume', 'Kerze', 'Lampe', 'Tasche', 'Socke', 'Ring', 'Tasse', 'Schlüssel', 'Kamera', 'Fahrrad', 'Löffel', 'Stift']",318.77328939992003,318.77596349990927,None,318.77609369996935,324.78409429988824,3,324.7843895999249,324.7870004000142,None,324.78711339994334,,324.7884521000087,324.7884639999829,324.7896116999909,2.384463399881497,None,,,,,,,,,,,,,,,,,,,,,,,,,,,,,,,,,,,,,,,,,,,,,,3,2023-11-30_09h43.15.684,watkins1,2023.2.3,99.71829601369164,34,2023-11-30 09h43.22.837338 +0000,
,,,,,,,,,,,5,0,5,0,,,,,,,,,,,,,324.79355539986864,,,,,,,,,,324.78989589982666,325.2856956999749,,,[],[],,,,,,,,,,,niedlich,None,None,,,,,,,,,,Buch,niedlich,"['Buch', 'niedlich']",test_adj,3,,,,,,324.7898291000165,324.78986849985085,"['Hut', 'Flasche', 'Rucksack', 'Schere', 'Vase', 'Buch', 'Kiste', 'Hammer', 'Kette', 'Eimer', 'Jacke', 'Bürste', 'Trommel', 'Brille', 'Telefon', 'Würfel', 'Uhr', 'Geige', 'Blume', 'Kerze', 'Lampe', 'Tasche', 'Socke', 'Ring', 'Tasse', 'Schlüssel', 'Kamera', 'Fahrrad', 'Löffel', 'Stift']",325.28570639993995,325.2883864999749,None,325.2885118999984,325.28979850001633,None,325.28990920004435,325.2911924000364,None,325.29129990004003,0,331.29325219988823,331.29326559999026,331.29459799989127,,,,,,,,,,,,,,,,,,,,,,,,,,,,,,,,,,,,,,,,,,,,,,,,3,2023-11-30_09h43.15.684,watkins1,2023.2.3,99.71829601369164,34,2023-11-30 09h43.22.837338 +0000,
,,,,,,,,,,,6,0,6,0,,,,,,,,,,,,,331.3030643998645,,,,,,,,,,331.2948868998792,331.7850713999942,,,[],[],,,,,,,,,,,,None,None,,,,,,,,,,Kiste,lustig,"['Kiste', 'lustig']",restudy,3,,,,,,331.294818099821,331.2948578998912,"['Hut', 'Flasche', 'Rucksack', 'Schere', 'Vase', 'Buch', 'Kiste', 'Hammer', 'Kette', 'Eimer', 'Jacke', 'Bürste', 'Trommel', 'Brille', 'Telefon', 'Würfel', 'Uhr', 'Geige', 'Blume', 'Kerze', 'Lampe', 'Tasche', 'Socke', 'Ring', 'Tasse', 'Schlüssel', 'Kamera', 'Fahrrad', 'Löffel', 'Stift']",331.78508279984817,331.78779380000196,None,331.7879186999053,337.7926051998511,1,337.79290489992127,337.7956230000127,None,337.79573210002854,,337.79720389982685,337.7972156999167,337.79836150002666,1.9645585999824107,None,,,,,,,,,,,,,,,,,,,,,,,,,,,,,,,,,,,,,,,,,,,,,,3,2023-11-30_09h43.15.684,watkins1,2023.2.3,99.71829601369164,34,2023-11-30 09h43.22.837338 +0000,
,,,,,,,,,,,7,0,7,0,,,,,,,,,,,,,337.8020570999943,,,,,,,,,,337.7986385000404,338.2943979999982,,,[],[],,,,,,,,,,,bunt,None,None,,,,,,,,,,Hammer,bunt,"['Hammer', 'bunt']",test_adj,3,,,,,,337.7985733000096,337.7986117999535,"['Hut', 'Flasche', 'Rucksack', 'Schere', 'Vase', 'Buch', 'Kiste', 'Hammer', 'Kette', 'Eimer', 'Jacke', 'Bürste', 'Trommel', 'Brille', 'Telefon', 'Würfel', 'Uhr', 'Geige', 'Blume', 'Kerze', 'Lampe', 'Tasche', 'Socke', 'Ring', 'Tasse', 'Schlüssel', 'Kamera', 'Fahrrad', 'Löffel', 'Stift']",338.29440919985063,338.2971210000105,None,338.2972492999397,338.2986645998899,None,338.29877440002747,338.30022299988195,None,338.3003302998841,0,344.302976799896,344.30299039999954,344.30428009992465,,,,,,,,,,,,,,,,,,,,,,,,,,,,,,,,,,,,,,,,,,,,,,,,3,2023-11-30_09h43.15.684,watkins1,2023.2.3,99.71829601369164,34,2023-11-30 09h43.22.837338 +0000,
,,,,,,,,,,,8,0,8,0,,,,,,,,,,,,,344.3127627999056,,,,,,,,,,344.3045650999993,344.7947779998649,,,[],[],,,,,,,,,,,glatt,None,None,,,,,,,,,,Kette,glatt,"['Kette', 'glatt']",test_adj,3,,,,,,344.3044977998361,344.30453619989567,"['Hut', 'Flasche', 'Rucksack', 'Schere', 'Vase', 'Buch', 'Kiste', 'Hammer', 'Kette', 'Eimer', 'Jacke', 'Bürste', 'Trommel', 'Brille', 'Telefon', 'Würfel', 'Uhr', 'Geige', 'Blume', 'Kerze', 'Lampe', 'Tasche', 'Socke', 'Ring', 'Tasse', 'Schlüssel', 'Kamera', 'Fahrrad', 'Löffel', 'Stift']",344.794789099833,344.7973163998686,None,344.79744019987993,344.79979429999366,None,344.79990449990146,344.8022706999909,None,344.80238959984854,0,350.80665669986047,350.8066710999701,350.8079533998389,,,,,,,,,,,,,,,,,,,,,,,,,,,,,,,,,,,,,,,,,,,,,,,,3,2023-11-30_09h43.15.684,watkins1,2023.2.3,99.71829601369164,34,2023-11-30 09h43.22.837338 +0000,
,,,,,,,,,,,9,0,9,0,,,,,,,,,,,,,350.81641129986383,,,,,,,,,,350.8082430998329,351.29834760003723,,,[],[],,,,,,,,,,,bunt,None,None,,,,,,,,,,Eimer,blass,"['Eimer', 'blass']",test_adj,3,,,,,,350.808174100006,350.8082140998449,"['Hut', 'Flasche', 'Rucksack', 'Schere', 'Vase', 'Buch', 'Kiste', 'Hammer', 'Kette', 'Eimer', 'Jacke', 'Bürste', 'Trommel', 'Brille', 'Telefon', 'Würfel', 'Uhr', 'Geige', 'Blume', 'Kerze', 'Lampe', 'Tasche', 'Socke', 'Ring', 'Tasse', 'Schlüssel', 'Kamera', 'Fahrrad', 'Löffel', 'Stift']",351.29835839988664,351.301027999958,None,351.3011534998659,351.3036726999562,None,351.3037845999934,351.30628389981575,None,351.30639599985443,0,357.31171249994077,357.3117273999378,357.3130135999527,,,,,,,,,,,,,,,,,,,,,,,,,,,,,,,,,,,,,,,,,,,,,,,,3,2023-11-30_09h43.15.684,watkins1,2023.2.3,99.71829601369164,34,2023-11-30 09h43.22.837338 +0000,
,,,,,,,,,,,10,0,10,0,,,,,,,,,,,,,357.3214686999563,,,,,,,,,,357.3133058999665,357.8036509999074,,,[],[],,,,,,,,,,,flauschig,None,None,,,,,,,,,,Jacke,flauschig,"['Jacke', 'flauschig']",test_adj,3,,,,,,357.31323520001024,357.3132758999709,"['Hut', 'Flasche', 'Rucksack', 'Schere', 'Vase', 'Buch', 'Kiste', 'Hammer', 'Kette', 'Eimer', 'Jacke', 'Bürste', 'Trommel', 'Brille', 'Telefon', 'Würfel', 'Uhr', 'Geige', 'Blume', 'Kerze', 'Lampe', 'Tasche', 'Socke', 'Ring', 'Tasse', 'Schlüssel', 'Kamera', 'Fahrrad', 'Löffel', 'Stift']",357.80366179998964,357.80630899989046,None,357.80643430002965,357.80892869993113,None,357.8090378998313,357.8115427000448,None,357.8116512999404,0,363.8178165999707,363.8178304999601,363.8192048999481,,,,,,,,,,,,,,,,,,,,,,,,,,,,,,,,,,,,,,,,,,,,,,,,3,2023-11-30_09h43.15.684,watkins1,2023.2.3,99.71829601369164,34,2023-11-30 09h43.22.837338 +0000,
,,,,,,,,,,,11,0,11,0,,,,,,,,,,,,,363.8276172999758,,,,,,,,,,363.819494899828,364.3096057998482,,,[],[],,,,,,,,,,,schmutzig,None,None,,,,,,,,,,Bürste,schmutzig,"['Bürste', 'schmutzig']",test_adj,3,,,,,,363.8194241998717,363.81946579995565,"['Hut', 'Flasche', 'Rucksack', 'Schere', 'Vase', 'Buch', 'Kiste', 'Hammer', 'Kette', 'Eimer', 'Jacke', 'Bürste', 'Trommel', 'Brille', 'Telefon', 'Würfel', 'Uhr', 'Geige', 'Blume', 'Kerze', 'Lampe', 'Tasche', 'Socke', 'Ring', 'Tasse', 'Schlüssel', 'Kamera', 'Fahrrad', 'Löffel', 'Stift']",364.3096159999259,364.3123928999994,None,364.3125167998951,364.315265199868,None,364.3153823998291,364.31798169994727,None,364.318094199989,0,370.3234380998183,370.3234522000421,370.3248307998292,,,,,,,,,,,,,,,,,,,,,,,,,,,,,,,,,,,,,,,,,,,,,,,,3,2023-11-30_09h43.15.684,watkins1,2023.2.3,99.71829601369164,34,2023-11-30 09h43.22.837338 +0000,
,,,,,,,,,,,12,0,12,0,,,,,,,,,,,,,370.33316709985957,,,,,,,,,,370.32512489985675,370.8152913998347,,,[],[],,,,,,,,,,,,None,None,,,,,,,,,,Trommel,strahlend,"['Trommel', 'strahlend']",restudy,3,,,,,,370.3250518999994,370.3250952998642,"['Hut', 'Flasche', 'Rucksack', 'Schere', 'Vase', 'Buch', 'Kiste', 'Hammer', 'Kette', 'Eimer', 'Jacke', 'Bürste', 'Trommel', 'Brille', 'Telefon', 'Würfel', 'Uhr', 'Geige', 'Blume', 'Kerze', 'Lampe', 'Tasche', 'Socke', 'Ring', 'Tasse', 'Schlüssel', 'Kamera', 'Fahrrad', 'Löffel', 'Stift']",370.8153023000341,370.81810829997994,None,370.81823350000195,376.8263640999794,2,376.826660099905,376.8294208999723,None,376.8295328000095,,376.8310692999512,376.8310811999254,376.8323182000313,1.821829600026831,None,,,,,,,,,,,,,,,,,,,,,,,,,,,,,,,,,,,,,,,,,,,,,,3,2023-11-30_09h43.15.684,watkins1,2023.2.3,99.71829601369164,34,2023-11-30 09h43.22.837338 +0000,
,,,,,,,,,,,13,0,13,0,,,,,,,,,,,,,376.83581599988975,,,,,,,,,,376.8326037998777,377.3279036998283,,,[],[],,,,,,,,,,,,None,None,,,,,,,,,,Brille,biegsam,"['Brille', 'biegsam']",restudy,3,,,,,,376.8325367998332,376.83257699990645,"['Hut', 'Flasche', 'Rucksack', 'Schere', 'Vase', 'Buch', 'Kiste', 'Hammer', 'Kette', 'Eimer', 'Jacke', 'Bürste', 'Trommel', 'Brille', 'Telefon', 'Würfel', 'Uhr', 'Geige', 'Blume', 'Kerze', 'Lampe', 'Tasche', 'Socke', 'Ring', 'Tasse', 'Schlüssel', 'Kamera', 'Fahrrad', 'Löffel', 'Stift']",377.32791449991055,377.33063989994116,None,377.3307650999632,383.3361404000316,3,383.3364424998872,383.3391321999952,None,383.33924550004303,,383.3404244999401,383.34043630003,383.341637799982,2.1096870999317616,None,,,,,,,,,,,,,,,,,,,,,,,,,,,,,,,,,,,,,,,,,,,,,,3,2023-11-30_09h43.15.684,watkins1,2023.2.3,99.71829601369164,34,2023-11-30 09h43.22.837338 +0000,
,,,,,,,,,,,14,0,14,0,,,,,,,,,,,,,383.3456107999664,,,,,,,,,,383.3419217998162,383.83775689988397,,,[],[],,,,,,,,,,,,None,None,,,,,,,,,,Telefon,hässlich,"['Telefon', 'hässlich']",restudy,3,,,,,,383.3418542998843,383.3418943998404,"['Hut', 'Flasche', 'Rucksack', 'Schere', 'Vase', 'Buch', 'Kiste', 'Hammer', 'Kette', 'Eimer', 'Jacke', 'Bürste', 'Trommel', 'Brille', 'Telefon', 'Würfel', 'Uhr', 'Geige', 'Blume', 'Kerze', 'Lampe', 'Tasche', 'Socke', 'Ring', 'Tasse', 'Schlüssel', 'Kamera', 'Fahrrad', 'Löffel', 'Stift']",383.8377679998521,383.84048289991915,None,383.84060789993964,389.84250020002946,3,389.8428009999916,389.8456170000136,None,389.8457314998377,,389.8469144999981,389.84692619997077,389.84814869984984,2.5356487000826746,None,,,,,,,,,,,,,,,,,,,,,,,,,,,,,,,,,,,,,,,,,,,,,,3,2023-11-30_09h43.15.684,watkins1,2023.2.3,99.71829601369164,34,2023-11-30 09h43.22.837338 +0000,
,,,,,,,,,,,15,0,15,0,,,,,,,,,,,,,389.85192000004463,,,,,,,,,,389.84843249991536,390.34410219988786,,,[],[],,,,,,,,,,,,None,None,,,,,,,,,,Würfel,kalt,"['Würfel', 'kalt']",restudy,3,,,,,,389.8483660998754,389.8484049998224,"['Hut', 'Flasche', 'Rucksack', 'Schere', 'Vase', 'Buch', 'Kiste', 'Hammer', 'Kette', 'Eimer', 'Jacke', 'Bürste', 'Trommel', 'Brille', 'Telefon', 'Würfel', 'Uhr', 'Geige', 'Blume', 'Kerze', 'Lampe', 'Tasche', 'Socke', 'Ring', 'Tasse', 'Schlüssel', 'Kamera', 'Fahrrad', 'Löffel', 'Stift']",390.34411329985596,390.3468447998166,None,390.34697149996646,396.34818649990484,1,396.3484916999005,396.351111699827,None,396.35122449998744,,396.352397199953,396.35240920004435,396.35342959989794,1.653470499906689,None,,,,,,,,,,,,,,,,,,,,,,,,,,,,,,,,,,,,,,,,,,,,,,3,2023-11-30_09h43.15.684,watkins1,2023.2.3,99.71829601369164,34,2023-11-30 09h43.22.837338 +0000,
,,,,,,,,,,,16,0,16,0,,,,,,,,,,,,,396.35776509996504,,,,,,,,,,396.35371229983866,396.8498900998384,,,[],[],,,,,,,,,,,,None,None,,,,,,,,,,Uhr,glänzend,"['Uhr', 'glänzend']",restudy,3,,,,,,396.35364590003155,396.3536854998674,"['Hut', 'Flasche', 'Rucksack', 'Schere', 'Vase', 'Buch', 'Kiste', 'Hammer', 'Kette', 'Eimer', 'Jacke', 'Bürste', 'Trommel', 'Brille', 'Telefon', 'Würfel', 'Uhr', 'Geige', 'Blume', 'Kerze', 'Lampe', 'Tasche', 'Socke', 'Ring', 'Tasse', 'Schlüssel', 'Kamera', 'Fahrrad', 'Löffel', 'Stift']",396.8499014999252,396.8522838000208,None,396.8524090000428,402.86048020003363,3,402.8607964999974,402.8633944999892,None,402.8635095998179,,402.8645253998693,402.86453719995916,402.865866499953,4.756059099920094,None,,,,,,,,,,,,,,,,,,,,,,,,,,,,,,,,,,,,,,,,,,,,,,3,2023-11-30_09h43.15.684,watkins1,2023.2.3,99.71829601369164,34,2023-11-30 09h43.22.837338 +0000,
,,,,,,,,,,,17,0,17,0,,,,,,,,,,,,,402.8699038999621,,,,,,,,,,402.8661499998998,403.3619174999185,,,[],[],,,,,,,,,,,,None,None,,,,,,,,,,Geige,matt,"['Geige', 'matt']",restudy,3,,,,,,402.86608439986594,402.86612319992855,"['Hut', 'Flasche', 'Rucksack', 'Schere', 'Vase', 'Buch', 'Kiste', 'Hammer', 'Kette', 'Eimer', 'Jacke', 'Bürste', 'Trommel', 'Brille', 'Telefon', 'Würfel', 'Uhr', 'Geige', 'Blume', 'Kerze', 'Lampe', 'Tasche', 'Socke', 'Ring', 'Tasse', 'Schlüssel', 'Kamera', 'Fahrrad', 'Löffel', 'Stift']",403.3619287000038,403.36467589996755,None,403.3648033000063,409.36669629998505,2,409.36700439988635,409.36948459991254,None,409.36959529994056,,409.37074089981616,409.3707528000232,409.37177299987525,2.843592199962586,None,,,,,,,,,,,,,,,,,,,,,,,,,,,,,,,,,,,,,,,,,,,,,,3,2023-11-30_09h43.15.684,watkins1,2023.2.3,99.71829601369164,34,2023-11-30 09h43.22.837338 +0000,
,,,,,,,,,,,18,0,18,0,,,,,,,,,,,,,409.3761603999883,,,,,,,,,,409.37205350003205,409.86818989994936,,,[],[],,,,,,,,,,,,None,None,,,,,,,,,,Blume,kratzig,"['Blume', 'kratzig']",restudy,3,,,,,,409.3719876999967,409.3720263999421,"['Hut', 'Flasche', 'Rucksack', 'Schere', 'Vase', 'Buch', 'Kiste', 'Hammer', 'Kette', 'Eimer', 'Jacke', 'Bürste', 'Trommel', 'Brille', 'Telefon', 'Würfel', 'Uhr', 'Geige', 'Blume', 'Kerze', 'Lampe', 'Tasche', 'Socke', 'Ring', 'Tasse', 'Schlüssel', 'Kamera', 'Fahrrad', 'Löffel', 'Stift']",409.86820079991594,409.87071219994687,None,409.8708380998578,415.8722424998414,1,415.87254319991916,415.87518509989604,None,415.8752979999408,,415.87644319981337,415.8764553000219,415.8776280998718,1.4814205998554826,None,,,,,,,,,,,,,,,,,,,,,,,,,,,,,,,,,,,,,,,,,,,,,,3,2023-11-30_09h43.15.684,watkins1,2023.2.3,99.71829601369164,34,2023-11-30 09h43.22.837338 +0000,
,,,,,,,,,,,19,0,19,0,,,,,,,,,,,,,415.88170629995875,,,,,,,,,,415.8779134999495,416.3738754999358,,,[],[],,,,,,,,,,,krumm,None,None,,,,,,,,,,Kerze,gut,"['Kerze', 'gut']",test_adj,3,,,,,,415.8778472999111,415.87788569997065,"['Hut', 'Flasche', 'Rucksack', 'Schere', 'Vase', 'Buch', 'Kiste', 'Hammer', 'Kette', 'Eimer', 'Jacke', 'Bürste', 'Trommel', 'Brille', 'Telefon', 'Würfel', 'Uhr', 'Geige', 'Blume', 'Kerze', 'Lampe', 'Tasche', 'Socke', 'Ring', 'Tasse', 'Schlüssel', 'Kamera', 'Fahrrad', 'Löffel', 'Stift']",416.37388630001806,416.3765241999645,None,416.37665160000324,416.37808099994436,None,416.378189999843,416.37958909990266,None,416.37969859992154,0,422.3821229999885,422.38213699986227,422.3832491999492,,,,,,,,,,,,,,,,,,,,,,,,,,,,,,,,,,,,,,,,,,,,,,,,3,2023-11-30_09h43.15.684,watkins1,2023.2.3,99.71829601369164,34,2023-11-30 09h43.22.837338 +0000,
,,,,,,,,,,,20,0,20,0,,,,,,,,,,,,,422.39192519988865,,,,,,,,,,422.3835352000315,422.8739992999472,,,[],[],,,,,,,,,,,,None,None,,,,,,,,,,Lampe,zart,"['Lampe', 'zart']",restudy,3,,,,,,422.3834662998561,422.3835062000435,"['Hut', 'Flasche', 'Rucksack', 'Schere', 'Vase', 'Buch', 'Kiste', 'Hammer', 'Kette', 'Eimer', 'Jacke', 'Bürste', 'Trommel', 'Brille', 'Telefon', 'Würfel', 'Uhr', 'Geige', 'Blume', 'Kerze', 'Lampe', 'Tasche', 'Socke', 'Ring', 'Tasse', 'Schlüssel', 'Kamera', 'Fahrrad', 'Löffel', 'Stift']",422.8740103999153,422.8765072999522,None,422.8766337998677,428.88328809989616,1,428.88357870001346,428.8860541000031,None,428.88616749993525,,428.8876125998795,428.88762439996935,428.8886233000085,1.787821700097993,None,,,,,,,,,,,,,,,,,,,,,,,,,,,,,,,,,,,,,,,,,,,,,,3,2023-11-30_09h43.15.684,watkins1,2023.2.3,99.71829601369164,34,2023-11-30 09h43.22.837338 +0000,
,,,,,,,,,,,21,0,21,0,,,,,,,,,,,,,428.8926725999918,,,,,,,,,,428.88889870001003,429.38483319990337,,,[],[],,,,,,,,,,,rustikal,None,None,,,,,,,,,,Tasche,rustikal,"['Tasche', 'rustikal']",test_adj,3,,,,,,428.88883469998837,428.8888721000403,"['Hut', 'Flasche', 'Rucksack', 'Schere', 'Vase', 'Buch', 'Kiste', 'Hammer', 'Kette', 'Eimer', 'Jacke', 'Bürste', 'Trommel', 'Brille', 'Telefon', 'Würfel', 'Uhr', 'Geige', 'Blume', 'Kerze', 'Lampe', 'Tasche', 'Socke', 'Ring', 'Tasse', 'Schlüssel', 'Kamera', 'Fahrrad', 'Löffel', 'Stift']",429.38484359998256,429.3873517999891,None,429.3874760000035,429.38908470002934,None,429.3891938999295,429.3905896998476,None,429.39069779985584,0,435.39800839987583,435.39802259998396,435.3994640999008,,,,,,,,,,,,,,,,,,,,,,,,,,,,,,,,,,,,,,,,,,,,,,,,3,2023-11-30_09h43.15.684,watkins1,2023.2.3,99.71829601369164,34,2023-11-30 09h43.22.837338 +0000,
,,,,,,,,,,,22,0,22,0,,,,,,,,,,,,,435.40781589993276,,,,,,,,,,435.39975690003484,435.88993790000677,,,[],[],,,,,,,,,,,,None,None,,,,,,,,,,Socke,teuer,"['Socke', 'teuer']",restudy,3,,,,,,435.3996836999431,435.3997245999053,"['Hut', 'Flasche', 'Rucksack', 'Schere', 'Vase', 'Buch', 'Kiste', 'Hammer', 'Kette', 'Eimer', 'Jacke', 'Bürste', 'Trommel', 'Brille', 'Telefon', 'Würfel', 'Uhr', 'Geige', 'Blume', 'Kerze', 'Lampe', 'Tasche', 'Socke', 'Ring', 'Tasse', 'Schlüssel', 'Kamera', 'Fahrrad', 'Löffel', 'Stift']",435.8899490998592,435.8926825998351,None,435.8928085998632,441.8944937000051,3,441.8948235998396,441.89752410002984,None,441.8976338999346,,441.8990578998346,441.89906969992444,441.9001851999201,1.7955367001704872,None,,,,,,,,,,,,,,,,,,,,,,,,,,,,,,,,,,,,,,,,,,,,,,3,2023-11-30_09h43.15.684,watkins1,2023.2.3,99.71829601369164,34,2023-11-30 09h43.22.837338 +0000,
,,,,,,,,,,,23,0,23,0,,,,,,,,,,,,,441.90394949982874,,,,,,,,,,441.9004635999445,442.39601229992695,,,[],[],,,,,,,,,,,,None,None,,,,,,,,,,Ring,robust,"['Ring', 'robust']",restudy,3,,,,,,441.90039910003543,441.9004369999748,"['Hut', 'Flasche', 'Rucksack', 'Schere', 'Vase', 'Buch', 'Kiste', 'Hammer', 'Kette', 'Eimer', 'Jacke', 'Bürste', 'Trommel', 'Brille', 'Telefon', 'Würfel', 'Uhr', 'Geige', 'Blume', 'Kerze', 'Lampe', 'Tasche', 'Socke', 'Ring', 'Tasse', 'Schlüssel', 'Kamera', 'Fahrrad', 'Löffel', 'Stift']",442.396022999892,442.39851389988326,None,442.39863629988395,448.4086131998338,3,448.40891240001656,448.41157520003617,None,448.4116875999607,,448.41271819989197,448.41272989986464,448.4138909999747,2.6497474999632686,None,,,,,,,,,,,,,,,,,,,,,,,,,,,,,,,,,,,,,,,,,,,,,,3,2023-11-30_09h43.15.684,watkins1,2023.2.3,99.71829601369164,34,2023-11-30 09h43.22.837338 +0000,
,,,,,,,,,,,24,0,24,0,,,,,,,,,,,,,448.41803219984286,,,,,,,,,,448.41417749994434,448.91011289996095,,,[],[],,,,,,,,,,,gepunktet,None,None,,,,,,,,,,Tasse,gepunktet,"['Tasse', 'gepunktet']",test_adj,3,,,,,,448.41411100002006,448.41415009996854,"['Hut', 'Flasche', 'Rucksack', 'Schere', 'Vase', 'Buch', 'Kiste', 'Hammer', 'Kette', 'Eimer', 'Jacke', 'Bürste', 'Trommel', 'Brille', 'Telefon', 'Würfel', 'Uhr', 'Geige', 'Blume', 'Kerze', 'Lampe', 'Tasche', 'Socke', 'Ring', 'Tasse', 'Schlüssel', 'Kamera', 'Fahrrad', 'Löffel', 'Stift']",448.9101245999336,448.9127815000247,None,448.91290819994174,448.9143322999589,None,448.91444269986823,448.91583569999784,None,448.915943400003,0,454.91848009987734,454.91849379986525,454.91986579983495,,,,,,,,,,,,,,,,,,,,,,,,,,,,,,,,,,,,,,,,,,,,,,,,3,2023-11-30_09h43.15.684,watkins1,2023.2.3,99.71829601369164,34,2023-11-30 09h43.22.837338 +0000,
,,,,,,,,,,,25,0,25,0,,,,,,,,,,,,,454.92823019996285,,,,,,,,,,454.92015799996443,455.4102582000196,,,[],[],,,,,,,,,,,schwer,None,None,,,,,,,,,,Schlüssel,schwer,"['Schlüssel', 'schwer']",test_adj,3,,,,,,454.92008810001425,454.9201285999734,"['Hut', 'Flasche', 'Rucksack', 'Schere', 'Vase', 'Buch', 'Kiste', 'Hammer', 'Kette', 'Eimer', 'Jacke', 'Bürste', 'Trommel', 'Brille', 'Telefon', 'Würfel', 'Uhr', 'Geige', 'Blume', 'Kerze', 'Lampe', 'Tasche', 'Socke', 'Ring', 'Tasse', 'Schlüssel', 'Kamera', 'Fahrrad', 'Löffel', 'Stift']",455.4102684999816,455.4130526999943,None,455.41317459987476,455.4157997998409,None,455.41590909985825,455.4186436999589,None,455.41875229985453,0,461.4241098999046,461.4241241000127,461.42546019982547,,,,,,,,,,,,,,,,,,,,,,,,,,,,,,,,,,,,,,,,,,,,,,,,3,2023-11-30_09h43.15.684,watkins1,2023.2.3,99.71829601369164,34,2023-11-30 09h43.22.837338 +0000,
,,,,,,,,,,,26,0,26,0,,,,,,,,,,,,,461.43386320001446,,,,,,,,,,461.4257498998195,461.9160423998255,,,[],[],,,,,,,,,,,groß,None,None,,,,,,,,,,Kamera,groß,"['Kamera', 'groß']",test_adj,3,,,,,,461.4256805998739,461.4257213999517,"['Hut', 'Flasche', 'Rucksack', 'Schere', 'Vase', 'Buch', 'Kiste', 'Hammer', 'Kette', 'Eimer', 'Jacke', 'Bürste', 'Trommel', 'Brille', 'Telefon', 'Würfel', 'Uhr', 'Geige', 'Blume', 'Kerze', 'Lampe', 'Tasche', 'Socke', 'Ring', 'Tasse', 'Schlüssel', 'Kamera', 'Fahrrad', 'Löffel', 'Stift']",461.9160539000295,461.9189000998158,None,461.9190314000007,461.92154389992356,None,461.9216536998283,461.9241762999445,None,461.9242854998447,0,467.92920529982075,467.9292190000415,467.9303689999506,,,,,,,,,,,,,,,,,,,,,,,,,,,,,,,,,,,,,,,,,,,,,,,,3,2023-11-30_09h43.15.684,watkins1,2023.2.3,99.71829601369164,34,2023-11-30 09h43.22.837338 +0000,
,,,,,,,,,,,27,0,27,0,,,,,,,,,,,,,467.93909979984164,,,,,,,,,,467.93066039984114,468.4211331999395,,,[],[],,,,,,,,,,,,None,None,,,,,,,,,,Fahrrad,nachhaltig,"['Fahrrad', 'nachhaltig']",restudy,3,,,,,,467.9305873999838,467.93063139985316,"['Hut', 'Flasche', 'Rucksack', 'Schere', 'Vase', 'Buch', 'Kiste', 'Hammer', 'Kette', 'Eimer', 'Jacke', 'Bürste', 'Trommel', 'Brille', 'Telefon', 'Würfel', 'Uhr', 'Geige', 'Blume', 'Kerze', 'Lampe', 'Tasche', 'Socke', 'Ring', 'Tasse', 'Schlüssel', 'Kamera', 'Fahrrad', 'Löffel', 'Stift']",468.42114320001565,468.42369089997374,None,468.423815399874,474.4255529998336,3,474.4258534000255,474.42864389996976,None,474.42875600000843,,474.43025989993475,474.43027210002765,474.431516099954,2.2723155000712723,None,,,,,,,,,,,,,,,,,,,,,,,,,,,,,,,,,,,,,,,,,,,,,,3,2023-11-30_09h43.15.684,watkins1,2023.2.3,99.71829601369164,34,2023-11-30 09h43.22.837338 +0000,
,,,,,,,,,,,28,0,28,0,,,,,,,,,,,,,474.4350093000103,,,,,,,,,,474.4318001999054,474.9271793998778,,,[],[],,,,,,,,,,,,None,None,,,,,,,,,,Löffel,gestreift,"['Löffel', 'gestreift']",restudy,3,,,,,,474.43173289997503,474.4317727999296,"['Hut', 'Flasche', 'Rucksack', 'Schere', 'Vase', 'Buch', 'Kiste', 'Hammer', 'Kette', 'Eimer', 'Jacke', 'Bürste', 'Trommel', 'Brille', 'Telefon', 'Würfel', 'Uhr', 'Geige', 'Blume', 'Kerze', 'Lampe', 'Tasche', 'Socke', 'Ring', 'Tasse', 'Schlüssel', 'Kamera', 'Fahrrad', 'Löffel', 'Stift']",474.92719039996155,474.9299533998128,None,474.9300777998287,480.93200200004503,2,480.93229789985344,480.93503859988414,None,480.93515169993043,,480.93633369985037,480.93634559982456,480.93757750000805,2.902173299808055,None,,,,,,,,,,,,,,,,,,,,,,,,,,,,,,,,,,,,,,,,,,,,,,3,2023-11-30_09h43.15.684,watkins1,2023.2.3,99.71829601369164,34,2023-11-30 09h43.22.837338 +0000,
,,,,,,,,,,,29,0,29,0,,,,,,,,,,,,,480.94143039989285,,,,,,,,,,480.93786359997466,481.4335739000235,,,[],[],,,,,,,,,,,dick,None,None,,,,,,,,,,Stift,dick,"['Stift', 'dick']",test_adj,3,,,,,,480.9377933999058,480.93783309985884,"['Hut', 'Flasche', 'Rucksack', 'Schere', 'Vase', 'Buch', 'Kiste', 'Hammer', 'Kette', 'Eimer', 'Jacke', 'Bürste', 'Trommel', 'Brille', 'Telefon', 'Würfel', 'Uhr', 'Geige', 'Blume', 'Kerze', 'Lampe', 'Tasche', 'Socke', 'Ring', 'Tasse', 'Schlüssel', 'Kamera', 'Fahrrad', 'Löffel', 'Stift']",481.4335841999855,481.4362806000281,None,481.43640309991315,481.43782869982533,None,481.4379389998503,481.43935130001046,None,481.4394604000263,0,487.4415869000368,487.44160089991055,487.4428609998431,,,,,,,,,,,,,,,,,,,,,,,,,,,,,,,,,,,,,,,,,,,,,,,,3,2023-11-30_09h43.15.684,watkins1,2023.2.3,99.71829601369164,34,2023-11-30 09h43.22.837338 +0000,
,,,,,,,,,,,,,,,,,,,,,,,,,,,,,,,,,,,,,,,,,,,,,,,,,,,,,,,,,,,,,,,,,,,,,3,,,,,,,,,,,,,,,,,,,,,,,,,,,,,,,,,,,,,,,,,,,,,,,,,,,,,,,,,,,,,,,,,,,,,,3,2023-11-30_09h43.15.684,watkins1,2023.2.3,99.71829601369164,34,2023-11-30 09h43.22.837338 +0000,
(80 : 10) + 9 = 17 ,Correct,button_correct,,,,,,,,,,,,,0,0,0,3,,,,,,,,,521.4948668000288,,,,,,,,520.4633622998372,521.4667517000344,,,,,['button_correct'],[11.34025889984332],,,,,,,,,,,,,,,,,,,,,,,,,,distractorTask,3,,,,,,,,,,,,,,,,,,,,,,,,,521.4831322999671,521.4948668000288,532.8288026999217,[0.4],[-0.4064814814814815],[1],[0],[0],[11.34025889984332],['button_correct'],532.829486799892,533.8326236000285,,,,,,,,,,,,,,,,,,,,,,,,,,,,,,,,,,3,2023-11-30_09h43.15.684,watkins1,2023.2.3,99.71829601369164,34,2023-11-30 09h43.22.837338 +0000,
(28 : 7) - 3 = 1 ,Correct,button_correct,,,,,,,,,,,,,0,1,1,0,,,,,,,,,533.8425986999646,,,,,,,,,,,,,,['button_correct'],[6.906251600012183],,,,,,,,,,,,,,,,,,,,,,,,,,distractorTask,3,,,,,,,,,,,,,,,,,,,,,,,,,533.832819199888,533.8425986999646,540.7420455999672,[0.362962962962963],[-0.4],[1],[0],[0],[6.906251600012183],['button_correct'],540.7424520999193,541.7457810998894,,,,,,,,,,,,,,,,,,,,,,,,,,,,,,,,,,3,2023-11-30_09h43.15.684,watkins1,2023.2.3,99.71829601369164,34,2023-11-30 09h43.22.837338 +0000,
(6 x 3) + 10 = 27 ,Incorrect,button_incorrect,,,,,,,,,,,,,0,2,2,8,,,,,,,,,541.7558138999157,,,,,,,,,,,,,,['button_incorrect'],[4.526106999954209],,,,,,,,,,,,,,,,,,,,,,,,,,distractorTask,3,,,,,,,,,,,,,,,,,,,,,,,,,541.745975599857,541.7558138999157,546.2751219000202,[-0.362962962962963],[-0.4027777777777778],[1],[0],[0],[4.526106999954209],['button_incorrect'],546.2755079998169,547.278732500039,,,,,,,,,,,,,,,,,,,,,,,,,,,,,,,,,,3,2023-11-30_09h43.15.684,watkins1,2023.2.3,99.71829601369164,34,2023-11-30 09h43.22.837338 +0000,
(25 : 5) + 5 = 9 ,Incorrect,button_incorrect,,,,,,,,,,,,,0,3,3,6,,,,,,,,,547.2887319000438,,,,,,,,,,,,,,['button_incorrect'],[2.3783360000234097],,,,,,,,,,,,,,,,,,,,,,,,,,distractorTask,3,,,,,,,,,,,,,,,,,,,,,,,,,547.2789278000128,547.2887319000438,549.6594932000153,[-0.30925925925925923],[-0.39351851851851855],[1],[0],[0],[2.3783360000234097],['button_incorrect'],549.6598789999261,550.6629298999906,,,,,,,,,,,,,,,,,,,,,,,,,,,,,,,,,,3,2023-11-30_09h43.15.684,watkins1,2023.2.3,99.71829601369164,34,2023-11-30 09h43.22.837338 +0000,
(2 x 5) + 3 = 13 ,Correct,button_correct,,,,,,,,,,,,,0,4,4,2,,,,,,,,,550.6730170999654,,,,,,,,,,,,,,['button_correct'],[2.1574730998836458],,,,,,,,,,,,,,,,,,,,,,,,,,distractorTask,3,,,,,,,,,,,,,,,,,,,,,,,,,550.6631216998212,550.6730170999654,552.8223124998622,[0.4027777777777778],[-0.38796296296296295],[1],[0],[0],[2.1574730998836458],['button_correct'],552.8226930999663,553.8261466999538,,,,,,,,,,,,,,,,,,,,,,,,,,,,,,,,,,3,2023-11-30_09h43.15.684,watkins1,2023.2.3,99.71829601369164,34,2023-11-30 09h43.22.837338 +0000,
(7 x 6) + 9 = 48 ,Incorrect,button_incorrect,,,,,,,,,,,,,0,5,5,9,,,,,,,,,553.8361300998367,,,,,,,,,,,,,,['button_incorrect'],[4.958686100086197],,,,,,,,,,,,,,,,,,,,,,,,,,distractorTask,3,,,,,,,,,,,,,,,,,,,,,,,,,553.826337199891,553.8361300998367,558.7872756000143,[-0.35],[-0.4046296296296296],[1],[0],[0],[4.958686100086197],['button_incorrect'],558.7876609999221,559.7909210999496,,,,,,,,,,,,,,,,,,,,,,,,,,,,,,,,,,3,2023-11-30_09h43.15.684,watkins1,2023.2.3,99.71829601369164,34,2023-11-30 09h43.22.837338 +0000,
(9 x 5) - 9 = 36 ,Correct,button_correct,,,,,,,,,,,,,0,6,6,4,,,,,,,,,559.8009124000091,,,,,,,,,,,,,,['button_incorrect'],[5.9333309000357985],,,,,,,,,,,,,,,,,,,,,,,,,,distractorTask,3,,,,,,,,,,,,,,,,,,,,,,,,,559.7911171000451,559.8009124000091,565.7261909998488,[-0.31296296296296294],[-0.38425925925925924],[1],[0],[0],[5.9333309000357985],['button_incorrect'],565.7265728998464,566.729741099989,,,,,,,,,,,,,,,,,,,,,,,,,,,,,,,,,,3,2023-11-30_09h43.15.684,watkins1,2023.2.3,99.71829601369164,34,2023-11-30 09h43.22.837338 +0000,
(4 : 2) + 4 = 6 ,Correct,button_correct,,,,,,,,,,,,,0,7,7,1,,,,,,,,,566.7396736999508,,,,,,,,,,,,,,['button_correct'],[2.9008611000608653],,,,,,,,,,,,,,,,,,,,,,,,,,distractorTask,3,,,,,,,,,,,,,,,,,,,,,,,,,566.7299357999582,566.7396736999508,569.6324837999418,[0.3055555555555556],[-0.39351851851851855],[1],[0],[0],[2.9008611000608653],['button_correct'],569.6328800998162,570.6361475999001,,,,,,,,,,,,,,,,,,,,,,,,,,,,,,,,,,3,2023-11-30_09h43.15.684,watkins1,2023.2.3,99.71829601369164,34,2023-11-30 09h43.22.837338 +0000,
(54 : 6) - 10 = 0 ,Incorrect,button_incorrect,,,,,,,,,,,,,0,8,8,5,,,,,,,,,570.6462352999952,,,,,,,,,,,,,,['button_incorrect'],"[5.904222400160506, 6.416505299974233]",,,,,,,,,,,,,,,,,,,,,,,,,,distractorTask,3,,,,,,,,,,,,,,,,,,,,,,,,,570.6363466999028,570.6462352999952,577.0545987000223,"[-0.32222222222222224, -0.3175925925925926]","[-0.43703703703703706, -0.41574074074074074]","[1, 1]","[0, 0]","[0, 0]","[5.904222400160506, 6.416505299974233]",['button_incorrect'],577.0550048998557,578.0581312999129,,,,,,,,,,,,,,,,,,,,,,,,,,,,,,,,,,3,2023-11-30_09h43.15.684,watkins1,2023.2.3,99.71829601369164,34,2023-11-30 09h43.22.837338 +0000,
(40 : 5) + 8 = 15 ,Incorrect,button_incorrect,,,,,,,,,,,,,0,9,9,7,,,,,,,,,578.0680398999248,,,,,,,,,,,,,,['button_incorrect'],[8.825705900089815],,,,,,,,,,,,,,,,,,,,,,,,,,distractorTask,3,,,,,,,,,,,,,,,,,,,,,,,,,578.0583232999779,578.0680398999248,586.8857924998738,[-0.3490740740740741],[-0.41574074074074074],[1],[0],[0],[8.825705900089815],['button_incorrect'],586.8861892998684,587.8893285000231,,,,,,,,,,,,,,,,,,,,,,,,,,,,,,,,,,3,2023-11-30_09h43.15.684,watkins1,2023.2.3,99.71829601369164,34,2023-11-30 09h43.22.837338 +0000,
,,,,,,,,,,,,,,,,,,,,,,,,,,,,,,,,,,,,,,,,,,,,,,,,,,,,,,,,,,,,,,,,,,,,,3,,,,,,,,,,,,,,,,,,,,,,,,,,,,,,,,,,,,,,,,,,,,,,,,,,,,,,,,,,,,,,,,,,,,,,3,2023-11-30_09h43.15.684,watkins1,2023.2.3,99.71829601369164,34,2023-11-30 09h43.22.837338 +0000,
,,,,,,,,,,,,,,,,,,,0,0,0,0,,,,,607.9012963999994,,,,,,,,,,,,,,Stift,15.975107500096783,,,,,,,,,,,,2.740727299824357,8.574858299922198,,,,,,,,,,,,,freeRecallSub,3,,,,,,,,,,,,,,,,,,,,,,,,,,,,,,,,,,,,,607.892734099878,607.9012963999994,607.9012963999994,623.8778907000087,return,15.975107500096783,None,Stift,[],[],[],[],[],[],[],,,,,,,,,,,,,,,,,,,3,2023-11-30_09h43.15.684,watkins1,2023.2.3,99.71829601369164,34,2023-11-30 09h43.22.837338 +0000,
,,,,,,,,,,,,,,,,,,,1,0,1,0,,,,,623.8914421999361,,,,,,,,,,,,,,Tasche,4.305029000155628,,,,,,,,,,,,1.7102211001329124,None,,,,,,,,,,,,,freeRecallSub,3,,,,,,,,,,,,,,,,,,,,,,,,,,,,,,,,,,,,,623.8812196999788,623.8914421999361,623.8914421999361,628.2023372999392,return,4.305029000155628,None,Tasche,[],[],[],[],[],[],[],,,,,,,,,,,,,,,,,,,3,2023-11-30_09h43.15.684,watkins1,2023.2.3,99.71829601369164,34,2023-11-30 09h43.22.837338 +0000,
,,,,,,,,,,,,,,,,,,,2,0,2,0,,,,,628.2134660000447,,,,,,,,,,,,,,Rucksack,3.974933800054714,,,,,,,,,,,,1.025168300140649,None,,,,,,,,,,,,,freeRecallSub,3,,,,,,,,,,,,,,,,,,,,,,,,,,,,,,,,,,,,,628.2036007000133,628.2134660000447,628.2134660000447,632.1910818000324,return,3.974933800054714,None,Rucksack,[],[],[],[],[],[],[],,,,,,,,,,,,,,,,,,,3,2023-11-30_09h43.15.684,watkins1,2023.2.3,99.71829601369164,34,2023-11-30 09h43.22.837338 +0000,
,,,,,,,,,,,,,,,,,,,3,0,3,0,,,,,632.2017091000453,,,,,,,,,,,,,,Löffel,2.9547019000165164,,,,,,,,,,,,0.9435485999565572,None,,,,,,,,,,,,,freeRecallSub,3,,,,,,,,,,,,,,,,,,,,,,,,,,,,,,,,,,,,,632.192333099898,632.2017091000453,632.2017091000453,635.1641637999564,return,2.9547019000165164,None,Löffel,[],[],[],[],[],[],[],,,,,,,,,,,,,,,,,,,3,2023-11-30_09h43.15.684,watkins1,2023.2.3,99.71829601369164,34,2023-11-30 09h43.22.837338 +0000,
,,,,,,,,,,,,,,,,,,,4,0,4,0,,,,,635.1750170998275,,,,,,,,,,,,,,Tasse,2.093311999924481,,,,,,,,,,,,0.4421666001435369,None,,,,,,,,,,,,,freeRecallSub,3,,,,,,,,,,,,,,,,,,,,,,,,,,,,,,,,,,,,,635.1654206998646,635.1750170998275,635.1750170998275,637.2744980000425,return,2.093311999924481,None,Tasse,[],[],[],[],[],[],[],,,,,,,,,,,,,,,,,,,3,2023-11-30_09h43.15.684,watkins1,2023.2.3,99.71829601369164,34,2023-11-30 09h43.22.837338 +0000,
,,,,,,,,,,,,,,,,,,,5,0,5,0,,,,,637.2848123998847,,,,,,,,,,,,,,Blume,2.519504399970174,,,,,,,,,,,,0.6323104000184685,None,,,,,,,,,,,,,freeRecallSub,3,,,,,,,,,,,,,,,,,,,,,,,,,,,,,,,,,,,,,637.2757637000177,637.2848123998847,637.2848123998847,639.8058438999578,return,2.519504399970174,None,Blume,[],[],[],[],[],[],[],,,,,,,,,,,,,,,,,,,3,2023-11-30_09h43.15.684,watkins1,2023.2.3,99.71829601369164,34,2023-11-30 09h43.22.837338 +0000,
,,,,,,,,,,,,,,,,,,,6,0,6,0,,,,,639.8173680999316,,,,,,,,,,,,,,Brile,4.771013800054789,,,,,,,,,,,,1.7687756000086665,None,,,,,,,,,,,,,freeRecallSub,3,,,,,,,,,,,,,,,,,,,,,,,,,,,,,,,,,,,,,639.807113799965,639.8173680999316,639.8173680999316,644.5888910999056,return,4.771013800054789,None,Brile,[],[],[],[],[],[],[],,,,,,,,,,,,,,,,,,,3,2023-11-30_09h43.15.684,watkins1,2023.2.3,99.71829601369164,34,2023-11-30 09h43.22.837338 +0000,
,,,,,,,,,,,,,,,,,,,7,0,7,0,,,,,644.6005698998924,,,,,,,,,,,,,,Geige,1.467822500038892,,,,,,,,,,,,0.34315610001794994,None,,,,,,,,,,,,,freeRecallSub,3,,,,,,,,,,,,,,,,,,,,,,,,,,,,,,,,,,,,,644.5901540999766,644.6005698998924,644.6005698998924,646.0780729998369,return,1.467822500038892,None,Geige,[],[],[],[],[],[],[],,,,,,,,,,,,,,,,,,,3,2023-11-30_09h43.15.684,watkins1,2023.2.3,99.71829601369164,34,2023-11-30 09h43.22.837338 +0000,
,,,,,,,,,,,,,,,,,,,8,0,8,0,,,,,646.0899543999694,,,,,,,,,,,,,,Kamera,5.6984147999901325,,,,,,,,,,,,3.9384798000101,None,,,,,,,,,,,,,freeRecallSub,3,,,,,,,,,,,,,,,,,,,,,,,,,,,,,,,,,,,,,646.0793287998531,646.0899543999694,646.0899543999694,651.7950138999149,return,5.6984147999901325,None,Kamera,[],[],[],[],[],[],[],,,,,,,,,,,,,,,,,,,3,2023-11-30_09h43.15.684,watkins1,2023.2.3,99.71829601369164,34,2023-11-30 09h43.22.837338 +0000,
,,,,,,,,,,,,,,,,,,,9,0,9,0,,,,,651.8071011998691,,,,,,,,,,,,,,Socke,1.9891504000406712,,,,,,,,,,,,0.6149017000570893,None,,,,,,,,,,,,,freeRecallSub,3,,,,,,,,,,,,,,,,,,,,,,,,,,,,,,,,,,,,,651.7962752999738,651.8071011998691,651.8071011998691,653.7971510998905,return,1.9891504000406712,None,Socke,[],[],[],[],[],[],[],,,,,,,,,,,,,,,,,,,3,2023-11-30_09h43.15.684,watkins1,2023.2.3,99.71829601369164,34,2023-11-30 09h43.22.837338 +0000,
,,,,,,,,,,,,,,,,,,,10,0,10,0,,,,,653.8091767998412,,,,,,,,,,,,,,Fahrrad,4.763232399942353,,,,,,,,,,,,3.0951374999713153,None,,,,,,,,,,,,,freeRecallSub,3,,,,,,,,,,,,,,,,,,,,,,,,,,,,,,,,,,,,,653.7984066000208,653.8091767998412,653.8091767998412,658.5803741000127,return,4.763232399942353,None,Fahrrad,[],[],[],[],[],[],[],,,,,,,,,,,,,,,,,,,3,2023-11-30_09h43.15.684,watkins1,2023.2.3,99.71829601369164,34,2023-11-30 09h43.22.837338 +0000,
,,,,,,,,,,,,,,,,,,,11,0,11,0,,,,,658.5933621998411,,,,,,,,,,,,,,Schlüssel,13.811015399871394,,,,,,,,,,,,9.65423860005103,None,,,,,,,,,,,,,freeRecallSub,3,,,,,,,,,,,,,,,,,,,,,,,,,,,,,,,,,,,,,658.5817366999108,658.5933621998411,658.5933621998411,672.4132947998587,return,13.811015399871394,None,Schlüssel,[],[],[],[],[],[],[],,,,,,,,,,,,,,,,,,,3,2023-11-30_09h43.15.684,watkins1,2023.2.3,99.71829601369164,34,2023-11-30 09h43.22.837338 +0000,
,,,,,,,,,,,,,,,,,,,12,0,12,0,,,,,672.4260592998471,,,,,,,,,,,,,,Uhr,17.2103205001913,,,,,,,,,,,,16.113989599980414,None,,,,,,,,,,,,,freeRecallSub,3,,,,,,,,,,,,,,,,,,,,,,,,,,,,,,,,,,,,,672.4145506999921,672.4260592998471,672.4260592998471,689.643041000003,return,17.2103205001913,None,Uhr,[],[],[],[],[],[],[],,,,,,,,,,,,,,,,,,,3,2023-11-30_09h43.15.684,watkins1,2023.2.3,99.71829601369164,34,2023-11-30 09h43.22.837338 +0000,
,,,,,,,,,,,,,,,,,,,13,0,13,0,,,,,689.6559323000256,,,,,,,,,,,,,,Hut,30.180413899943233,,,,,,,,,,,,28.41711249994114,None,,,,,,,,,,,,,freeRecallSub,3,,,,,,,,,,,,,,,,,,,,,,,,,,,,,,,,,,,,,689.6443131999113,689.6559323000256,689.6559323000256,719.8392675998621,return,30.180413899943233,None,Hut,[],[],[],[],[],[],[],,,,,,,,,,,,,,,,,,,3,2023-11-30_09h43.15.684,watkins1,2023.2.3,99.71829601369164,34,2023-11-30 09h43.22.837338 +0000,
,,,,,,,,,,,,,,,,,,,14,0,14,0,,,,,719.8524811000098,,,,,,,,,,,,,,Jacke,2.2559603999834508,,,,,,,,,,,,0.4966697997879237,None,,,,,,,,,,,,,freeRecallSub,3,,,,,,,,,,,,,,,,,,,,,,,,,,,,,,,,,,,,,719.8405472999439,719.8524811000098,719.8524811000098,722.1148303998634,return,2.2559603999834508,None,Jacke,[],[],[],[],[],[],[],,,,,,,,,,,,,,,,,,,3,2023-11-30_09h43.15.684,watkins1,2023.2.3,99.71829601369164,34,2023-11-30 09h43.22.837338 +0000,
,,,,,,,,,,,,,,,,,,,15,0,15,0,,,,,722.1280606999062,,,,,,,,,,,,,,Hund,11.540168500039726,,,,,,,,,,,,10.538500300142914,None,,,,,,,,,,,,,freeRecallSub,3,,,,,,,,,,,,,,,,,,,,,,,,,,,,,,,,,,,,,722.1160873000044,722.1280606999062,722.1280606999062,733.6691256999038,return,11.540168500039726,None,Hund,[],[],[],[],[],[],[],,,,,,,,,,,,,,,,,,,3,2023-11-30_09h43.15.684,watkins1,2023.2.3,99.71829601369164,34,2023-11-30 09h43.22.837338 +0000,
,,,,,,,,,,,,,,,,,,,16,0,16,0,,,,,733.6823265999556,,,,,,,,,,,,,,,[],,,,,,,,,,,,None,None,,,,,,,,,,,,,freeRecallSub,3,,,,,,,,,,,,,,,,,,,,,,,,,,,,,,,,,,,,,733.6703888999764,733.6823265999556,733.6823265999556,745.9972609998658,None,,,,[0.49444444444444446],[-0.40925925925925927],[1],[0],[0],[12.320770899998024],"['button_continue', 'continue_text']",,,,,,,,,,,,,,,,,,,3,2023-11-30_09h43.15.684,watkins1,2023.2.3,99.71829601369164,34,2023-11-30 09h43.22.837338 +0000,
,,,,,,,,,,,,,,,,,,,,,,,,,,,,,,,,,,,,,,,,,,,,,,,,,,,,,,,,,,,,,,,,,,,,,3,,,,,,,,,,,,,,,,,,,,,,,,,,,,,,,,,,,,,,,,,,,,,,,,,,,,,,,,,,,,,,,,,,,,,,3,2023-11-30_09h43.15.684,watkins1,2023.2.3,99.71829601369164,34,2023-11-30 09h43.22.837338 +0000,
,,,,,,,,,,,,,,,,,,,,,,,0,0,0,0,757.4958269998897,,,,,,,,,,762.1265922000166,762.6246050000191,,,,4.62033039983362,,,,,,,,,,,,None,None,,,,,,,,,,Buch,,,cuedRecallAdj,3,,,,,,,,,,,,,,,,,,,0,,,,,,,,,,,,,,,,,,,,,,,,,,,,,,,,,757.4866589000449,757.4958269998897,757.4958269998897,762.1229294999503,niedlich,return,4.62033039983362,None,762.1233445999678,762.1322794000152,762.1322794000152,762.1264322998468,,None,,,,,3,2023-11-30_09h43.15.684,watkins1,2023.2.3,99.71829601369164,34,2023-11-30 09h43.22.837338 +0000,
,,,,,,,,,,,,,,,,,,,,,,,1,0,1,0,762.6344981999137,,,,,,,,,,766.553641699953,767.0519967,,,,3.9136696001514792,,,,,,,,,,,,None,None,,,,,,,,,,Bürste,,,cuedRecallAdj,3,,,,,,,,,,,,,,,,,,,0,,,,,,,,,,,,,,,,,,,,,,,,,,,,,,,,,762.6248828999233,762.6344981999137,762.6344981999137,766.5505605998915,schmutzig,return,3.9136696001514792,None,766.550826799823,766.5600819999818,766.5600819999818,766.5535392998718,,None,,,,,3,2023-11-30_09h43.15.684,watkins1,2023.2.3,99.71829601369164,34,2023-11-30 09h43.22.837338 +0000,
,,,,,,,,,,,,,,,,,,,,,,,2,0,2,0,767.0619642999955,,,,,,,,,,772.0963530000299,772.594853800023,,,,5.030379300005734,,,,,,,,,,,,None,None,,,,,,,,,,Schere,,,cuedRecallAdj,3,,,,,,,,,,,,,,,,,,,0,,,,,,,,,,,,,,,,,,,,,,,,,,,,,,,,,767.052246300038,767.0619642999955,767.0619642999955,772.0932322000153,durchsichtig,return,5.030379300005734,None,772.0934997999575,772.1027768999338,772.1027768999338,772.0962509999517,,None,,,,,3,2023-11-30_09h43.15.684,watkins1,2023.2.3,99.71829601369164,34,2023-11-30 09h43.22.837338 +0000,
,,,,,,,,,,,,,,,,,,,,,,,3,0,3,0,772.6049120000098,,,,,,,,,,774.8680281999987,775.3665479000192,,,,2.2553673000074923,,,,,,,,,,,,None,None,,,,,,,,,,Würfel,,,cuedRecallAdj,3,,,,,,,,,,,,,,,,,,,0,,,,,,,,,,,,,,,,,,,,,,,,,,,,,,,,,772.5951501999516,772.6049120000098,772.6049120000098,774.8647914000321,kalt,return,2.2553673000074923,None,774.8650610998739,774.8743645998184,774.8743645998184,774.8679259000346,,None,,,,,3,2023-11-30_09h43.15.684,watkins1,2023.2.3,99.71829601369164,34,2023-11-30 09h43.22.837338 +0000,
,,,,,,,,,,,,,,,,,,,,,,,4,0,4,0,775.3764900998212,,,,,,,,,,778.0008600000292,778.4992891999427,,,,2.6196493997704238,,,,,,,,,,,,None,None,,,,,,,,,,Socke,,,cuedRecallAdj,3,,,,,,,,,,,,,,,,,,,0,,,,,,,,,,,,,,,,,,,,,,,,,,,,,,,,,775.3667965999339,775.3764900998212,775.3764900998212,777.9977210999932,teuer,return,2.6196493997704238,None,777.9980079999659,778.0071957998443,778.0071957998443,778.0007489998825,,None,,,,,3,2023-11-30_09h43.15.684,watkins1,2023.2.3,99.71829601369164,34,2023-11-30 09h43.22.837338 +0000,
,,,,,,,,,,,,,,,,,,,,,,,5,0,5,0,778.5092825000174,,,,,,,,,,781.0330223999918,781.5318817999214,,,,2.5109168000053614,,,,,,,,,,,,None,None,,,,,,,,,,Geige,,,cuedRecallAdj,3,,,,,,,,,,,,,,,,,,,0,,,,,,,,,,,,,,,,,,,,,,,,,,,,,,,,,778.4995379999746,778.5092825000174,778.5092825000174,781.030070599867,matt,return,2.5109168000053614,None,781.030335099902,781.0397909998428,781.0397909998428,781.0329191999044,,None,,,,,3,2023-11-30_09h43.15.684,watkins1,2023.2.3,99.71829601369164,34,2023-11-30 09h43.22.837338 +0000,
,,,,,,,,,,,,,,,,,,,,,,,6,0,6,0,781.5418316000141,,,,,,,,,,785.913402199978,786.4119718000293,,,,4.36631410010159,,,,,,,,,,,,None,None,,,,,,,,,,Brille,,,cuedRecallAdj,3,,,,,,,,,,,,,,,,,,,0,,,,,,,,,,,,,,,,,,,,,,,,,,,,,,,,,781.5321265000384,781.5418316000141,781.5418316000141,785.91033470002,biegsam,return,4.36631410010159,None,785.910602199845,785.919841399882,785.919841399882,785.9132983000018,,None,,,,,3,2023-11-30_09h43.15.684,watkins1,2023.2.3,99.71829601369164,34,2023-11-30 09h43.22.837338 +0000,
,,,,,,,,,,,,,,,,,,,,,,,7,0,7,0,786.4219192999881,,,,,,,,,,790.3417364999186,790.8403686999809,,,,3.9103061999194324,,,,,,,,,,,,None,None,,,,,,,,,,Kiste,,,cuedRecallAdj,3,,,,,,,,,,,,,,,,,,,0,,,,,,,,,,,,,,,,,,,,,,,,,,,,,,,,,786.4122174000368,786.4219192999881,786.4219192999881,790.338691999903,lustig,return,3.9103061999194324,None,790.3389605998527,790.3482437999919,790.3482437999919,790.3416325999424,,None,,,,,3,2023-11-30_09h43.15.684,watkins1,2023.2.3,99.71829601369164,34,2023-11-30 09h43.22.837338 +0000,
,,,,,,,,,,,,,,,,,,,,,,,8,0,8,0,790.8504157999996,,,,,,,,,,793.9064084999263,794.4051707999315,,,,3.04981610015966,,,,,,,,,,,,None,None,,,,,,,,,,Flasche,,,cuedRecallAdj,3,,,,,,,,,,,,,,,,,,,0,,,,,,,,,,,,,,,,,,,,,,,,,,,,,,,,,790.8406201999169,790.8504157999996,790.8504157999996,793.9035473999102,kurz,return,3.04981610015966,None,793.9038140999619,793.913068599999,793.913068599999,793.9063057999592,,None,,,,,3,2023-11-30_09h43.15.684,watkins1,2023.2.3,99.71829601369164,34,2023-11-30 09h43.22.837338 +0000,
,,,,,,,,,,,,,,,,,,,,,,,9,0,9,0,794.4151196000166,,,,,,,,,,797.4010135999415,797.8996383999474,,,,2.9811817998997867,,,,,,,,,,,,None,None,,,,,,,,,,Blume,,,cuedRecallAdj,3,,,,,,,,,,,,,,,,,,,0,,,,,,,,,,,,,,,,,,,,,,,,,,,,,,,,,794.4054208998568,794.4151196000166,794.4151196000166,797.3980419998989,kratzig,return,2.9811817998997867,None,797.3983094999567,797.407563299872,797.407563299872,797.4009115998633,,None,,,,,3,2023-11-30_09h43.15.684,watkins1,2023.2.3,99.71829601369164,34,2023-11-30 09h43.22.837338 +0000,
,,,,,,,,,,,,,,,,,,,,,,,10,0,10,0,797.9096323999111,,,,,,,,,,800.9360472999979,801.4346612999216,,,,3.022588500054553,,,,,,,,,,,,None,None,,,,,,,,,,Telefon,,,cuedRecallAdj,3,,,,,,,,,,,,,,,,,,,0,,,,,,,,,,,,,,,,,,,,,,,,,,,,,,,,,797.8998821999412,797.9096323999111,797.9096323999111,800.932996599935,hässlich,return,3.022588500054553,None,800.9332646999974,800.94261859986,800.94261859986,800.935943899909,,None,,,,,3,2023-11-30_09h43.15.684,watkins1,2023.2.3,99.71829601369164,34,2023-11-30 09h43.22.837338 +0000,
,,,,,,,,,,,,,,,,,,,,,,,11,0,11,0,801.4446021998301,,,,,,,,,,806.1683469999116,806.6664238998201,,,,4.719934900058433,,,,,,,,,,,,None,None,,,,,,,,,,Jacke,,,cuedRecallAdj,3,,,,,,,,,,,,,,,,,,,0,,,,,,,,,,,,,,,,,,,,,,,,,,,,,,,,,801.4349090999458,801.4446021998301,801.4446021998301,806.1652684998699,flauschig,return,4.719934900058433,None,806.1655339999124,806.1739986999892,806.1739986999892,806.1682439998258,,None,,,,,3,2023-11-30_09h43.15.684,watkins1,2023.2.3,99.71829601369164,34,2023-11-30 09h43.22.837338 +0000,
,,,,,,,,,,,,,,,,,,,,,,,12,0,12,0,806.6763247998897,,,,,,,,,,813.3574253998231,813.8466614999343,,,,6.671807299833745,,,,,,,,,,,,None,None,,,,,,,,,,Lampe,,,cuedRecallAdj,3,,,,,,,,,,,,,,,,,,,0,,,,,,,,,,,,,,,,,,,,,,,,,,,,,,,,,806.6666764998809,806.6763247998897,806.6763247998897,813.355065099895,,return,6.671807299833745,None,813.3553311999422,813.3646124999505,813.3646124999505,813.3573230998591,,None,,,,,3,2023-11-30_09h43.15.684,watkins1,2023.2.3,99.71829601369164,34,2023-11-30 09h43.22.837338 +0000,
,,,,,,,,,,,,,,,,,,,,,,,13,0,13,0,813.8565706999507,,,,,,,,,,818.5192147998605,819.0180768999271,,,,4.651698299916461,,,,,,,,,,,,None,None,,,,,,,,,,Fahrrad,,,cuedRecallAdj,3,,,,,,,,,,,,,,,,,,,0,,,,,,,,,,,,,,,,,,,,,,,,,,,,,,,,,813.8469058999326,813.8565706999507,813.8565706999507,818.5159438999835,nachhaltig,return,4.651698299916461,None,818.5162112999242,818.5256662999745,818.5256662999745,818.5191102998797,,None,,,,,3,2023-11-30_09h43.15.684,watkins1,2023.2.3,99.71829601369164,34,2023-11-30 09h43.22.837338 +0000,
,,,,,,,,,,,,,,,,,,,,,,,14,0,14,0,819.0280273999088,,,,,,,,,,822.7364642999601,823.2258417999838,,,,3.7040856999810785,,,,,,,,,,,,None,None,,,,,,,,,,Löffel,,,cuedRecallAdj,3,,,,,,,,,,,,,,,,,,,0,,,,,,,,,,,,,,,,,,,,,,,,,,,,,,,,,819.0183248999529,819.0280273999088,819.0280273999088,822.7341902998742,,return,3.7040856999810785,None,822.7344591999426,822.7437159998808,822.7437159998808,822.7363604998682,,None,,,,,3,2023-11-30_09h43.15.684,watkins1,2023.2.3,99.71829601369164,34,2023-11-30 09h43.22.837338 +0000,
,,,,,,,,,,,,,,,,,,,,,,,15,0,15,0,823.2358100998681,,,,,,,,,,825.3080366998911,825.806693200022,,,,2.0643354000058025,,,,,,,,,,,,None,None,,,,,,,,,,Hammer,,,cuedRecallAdj,3,,,,,,,,,,,,,,,,,,,0,,,,,,,,,,,,,,,,,,,,,,,,,,,,,,,,,823.2260881999973,823.2358100998681,823.2358100998681,825.3049855998252,bunt,return,2.0643354000058025,None,825.3052616999485,825.3143511000089,825.3143511000089,825.307932900032,,None,,,,,3,2023-11-30_09h43.15.684,watkins1,2023.2.3,99.71829601369164,34,2023-11-30 09h43.22.837338 +0000,
,,,,,,,,,,,,,,,,,,,,,,,16,0,16,0,825.8165955999866,,,,,,,,,,830.9522573000286,831.4508687998168,,,,5.131671600043774,,,,,,,,,,,,None,None,,,,,,,,,,Tasse,,,cuedRecallAdj,3,,,,,,,,,,,,,,,,,,,0,,,,,,,,,,,,,,,,,,,,,,,,,,,,,,,,,825.8069436999504,825.8165955999866,825.8165955999866,830.949209399987,gepunktet,return,5.131671600043774,None,830.9494790998287,830.9588258999866,830.9588258999866,830.9521540999413,,None,,,,,3,2023-11-30_09h43.15.684,watkins1,2023.2.3,99.71829601369164,34,2023-11-30 09h43.22.837338 +0000,
,,,,,,,,,,,,,,,,,,,,,,,17,0,17,0,831.4609097000211,,,,,,,,,,834.0753029999323,834.5739863000344,,,,2.607215099968016,,,,,,,,,,,,None,None,,,,,,,,,,Hut,,,cuedRecallAdj,3,,,,,,,,,,,,,,,,,,,0,,,,,,,,,,,,,,,,,,,,,,,,,,,,,,,,,831.4511177998502,831.4609097000211,831.4609097000211,834.0723035000265,breit,return,2.607215099968016,None,834.0725894998759,834.0818437000271,834.0818437000271,834.0751877999865,,None,,,,,3,2023-11-30_09h43.15.684,watkins1,2023.2.3,99.71829601369164,34,2023-11-30 09h43.22.837338 +0000,
,,,,,,,,,,,,,,,,,,,,,,,18,0,18,0,834.5839296998456,,,,,,,,,,837.8511659998912,838.3495862998534,,,,3.2602290001232177,,,,,,,,,,,,None,None,,,,,,,,,,Trommel,,,cuedRecallAdj,3,,,,,,,,,,,,,,,,,,,0,,,,,,,,,,,,,,,,,,,,,,,,,,,,,,,,,834.5742365999613,834.5839296998456,834.5839296998456,837.8478888999671,strahlend,return,3.2602290001232177,None,837.8481542000081,837.8574391999282,837.8574391999282,837.8510614999104,,None,,,,,3,2023-11-30_09h43.15.684,watkins1,2023.2.3,99.71829601369164,34,2023-11-30 09h43.22.837338 +0000,
,,,,,,,,,,,,,,,,,,,,,,,19,0,19,0,838.3595265999902,,,,,,,,,,841.8374065998942,842.3360772999004,,,,3.4686636000405997,,,,,,,,,,,,None,None,,,,,,,,,,Rucksack,,,cuedRecallAdj,3,,,,,,,,,,,,,,,,,,,0,,,,,,,,,,,,,,,,,,,,,,,,,,,,,,,,,838.3498309999704,838.3595265999902,838.3595265999902,841.8343842998147,sauber,return,3.4686636000405997,None,841.8346537998877,841.8439023999963,841.8439023999963,841.8373040000442,,None,,,,,3,2023-11-30_09h43.15.684,watkins1,2023.2.3,99.71829601369164,34,2023-11-30 09h43.22.837338 +0000,
,,,,,,,,,,,,,,,,,,,,,,,20,0,20,0,842.3460303000174,,,,,,,,,,844.0458243000321,844.5351551999338,,,,1.6902284999378026,,,,,,,,,,,,None,None,,,,,,,,,,Kerze,,,cuedRecallAdj,3,,,,,,,,,,,,,,,,,,,0,,,,,,,,,,,,,,,,,,,,,,,,,,,,,,,,,842.3363242999185,842.3460303000174,842.3460303000174,844.0435964998323,,return,1.6902284999378026,None,844.0438667999115,844.0530272999313,844.0530272999313,844.0457216999494,,None,,,,,3,2023-11-30_09h43.15.684,watkins1,2023.2.3,99.71829601369164,34,2023-11-30 09h43.22.837338 +0000,
,,,,,,,,,,,,,,,,,,,,,,,21,0,21,0,844.5450619999319,,,,,,,,,,847.6309108999558,848.1297649999615,,,,3.0751081998459995,,,,,,,,,,,,None,None,,,,,,,,,,Kette,,,cuedRecallAdj,3,,,,,,,,,,,,,,,,,,,0,,,,,,,,,,,,,,,,,,,,,,,,,,,,,,,,,844.5354048998561,844.5450619999319,844.5450619999319,847.6279414999299,glatt,return,3.0751081998459995,None,847.6282092998736,847.6376233999617,847.6376233999617,847.6308061999734,,None,,,,,3,2023-11-30_09h43.15.684,watkins1,2023.2.3,99.71829601369164,34,2023-11-30 09h43.22.837338 +0000,
,,,,,,,,,,,,,,,,,,,,,,,22,0,22,0,848.1397380998824,,,,,,,,,,850.5434679000173,851.0424271000084,,,,2.392370899906382,,,,,,,,,,,,None,None,,,,,,,,,,Stift,,,cuedRecallAdj,3,,,,,,,,,,,,,,,,,,,0,,,,,,,,,,,,,,,,,,,,,,,,,,,,,,,,,848.1300131999888,848.1397380998824,848.1397380998824,850.5406239000149,dick,return,2.392370899906382,None,850.5408896999434,850.5503503999207,850.5503503999207,850.5433644000441,,None,,,,,3,2023-11-30_09h43.15.684,watkins1,2023.2.3,99.71829601369164,34,2023-11-30 09h43.22.837338 +0000,
,,,,,,,,,,,,,,,,,,,,,,,23,0,23,0,851.0523757999763,,,,,,,,,,854.1788090998307,854.6775396999437,,,,3.119803800014779,,,,,,,,,,,,None,None,,,,,,,,,,Ring,,,cuedRecallAdj,3,,,,,,,,,,,,,,,,,,,0,,,,,,,,,,,,,,,,,,,,,,,,,,,,,,,,,851.0426757000387,851.0523757999763,851.0523757999763,854.1759501998313,robust,return,3.119803800014779,None,854.1762167999987,854.1854542000219,854.1854542000219,854.1787062999792,,None,,,,,3,2023-11-30_09h43.15.684,watkins1,2023.2.3,99.71829601369164,34,2023-11-30 09h43.22.837338 +0000,
,,,,,,,,,,,,,,,,,,,,,,,24,0,24,0,854.6874811998568,,,,,,,,,,859.2395539998543,859.7386547999922,,,,4.5407060999423265,,,,,,,,,,,,None,None,,,,,,,,,,Tasche,,,cuedRecallAdj,3,,,,,,,,,,,,,,,,,,,0,,,,,,,,,,,,,,,,,,,,,,,,,,,,,,,,,854.6777869998477,854.6874811998568,854.6874811998568,859.2365082998294,rustikal,return,4.5407060999423265,None,859.2367729998659,859.2462318998296,859.2462318998296,859.2394507999998,,None,,,,,3,2023-11-30_09h43.15.684,watkins1,2023.2.3,99.71829601369164,34,2023-11-30 09h43.22.837338 +0000,
,,,,,,,,,,,,,,,,,,,,,,,25,0,25,0,859.7486089998856,,,,,,,,,,863.7486821999773,864.2473768999334,,,,3.9915986000560224,,,,,,,,,,,,None,None,,,,,,,,,,Kamera,,,cuedRecallAdj,3,,,,,,,,,,,,,,,,,,,0,,,,,,,,,,,,,,,,,,,,,,,,,,,,,,,,,859.7389032999054,859.7486089998856,859.7486089998856,863.7458007000387,groß,return,3.9915986000560224,None,863.7460706999991,863.7553188998718,863.7553188998718,863.7485787998885,,None,,,,,3,2023-11-30_09h43.15.684,watkins1,2023.2.3,99.71829601369164,34,2023-11-30 09h43.22.837338 +0000,
,,,,,,,,,,,,,,,,,,,,,,,26,0,26,0,864.2572802999057,,,,,,,,,,867.4236826999113,867.9226178999525,,,,3.162949600024149,,,,,,,,,,,,None,None,,,,,,,,,,Vase,,,cuedRecallAdj,3,,,,,,,,,,,,,,,,,,,0,,,,,,,,,,,,,,,,,,,,,,,,,,,,,,,,,864.2476252999622,864.2572802999057,864.2572802999057,867.4208456999622,krumm,return,3.162949600024149,None,867.4211130999029,867.4303588999901,867.4303588999901,867.4235817999579,,None,,,,,3,2023-11-30_09h43.15.684,watkins1,2023.2.3,99.71829601369164,34,2023-11-30 09h43.22.837338 +0000,
,,,,,,,,,,,,,,,,,,,,,,,27,0,27,0,867.932567599928,,,,,,,,,,870.3358332999051,870.8345581998583,,,,2.391499999910593,,,,,,,,,,,,None,None,,,,,,,,,,Schlüssel,,,cuedRecallAdj,3,,,,,,,,,,,,,,,,,,,0,,,,,,,,,,,,,,,,,,,,,,,,,,,,,,,,,867.9228797999676,867.932567599928,867.932567599928,870.332778400043,schwer,return,2.391499999910593,None,870.3330459999852,870.3424885999411,870.3424885999411,870.3357303999364,,None,,,,,3,2023-11-30_09h43.15.684,watkins1,2023.2.3,99.71829601369164,34,2023-11-30 09h43.22.837338 +0000,
,,,,,,,,,,,,,,,,,,,,,,,28,0,28,0,870.8446096000262,,,,,,,,,,874.9245112999342,875.4234098000452,,,,4.071473400108516,,,,,,,,,,,,None,None,,,,,,,,,,Uhr,,,cuedRecallAdj,3,,,,,,,,,,,,,,,,,,,0,,,,,,,,,,,,,,,,,,,,,,,,,,,,,,,,,870.8348048999906,870.8446096000262,870.8446096000262,874.9216642000247,glänzend,return,4.071473400108516,None,874.9219308998436,874.9312803999055,874.9312803999055,874.9244094998576,,None,,,,,3,2023-11-30_09h43.15.684,watkins1,2023.2.3,99.71829601369164,34,2023-11-30 09h43.22.837338 +0000,
,,,,,,,,,,,,,,,,,,,,,,,29,0,29,0,875.4333519998472,,,,,,,,,,879.5237785999198,880.0222360999323,,,,4.082719200057909,,,,,,,,,,,,None,None,,,,,,,,,,Eimer,,,cuedRecallAdj,3,,,,,,,,,,,,,,,,,,,0,,,,,,,,,,,,,,,,,,,,,,,,,,,,,,,,,875.4236520000268,875.4333519998472,875.4333519998472,879.5206650998443,blass,return,4.082719200057909,None,879.5209521998186,879.5302146999165,879.5302146999165,879.523669200018,,None,,,,,3,2023-11-30_09h43.15.684,watkins1,2023.2.3,99.71829601369164,34,2023-11-30 09h43.22.837338 +0000,
,,,,,,,,,,,,,,,,,,,,,,,,,,,,,,,,,,,,,,,,,,,,,,,,,,,,,,,,,,,,,,,,,,,,,3,,,,,,,,,,,,,,,,,,,,,,,,,,,,,,,,,,,,,,,,,,,,,,,,,,,,,,,,,,,,,,,,,,880.0395994000137,q,3842.3125792001374,None,3,2023-11-30_09h43.15.684,watkins1,2023.2.3,99.71829601369164,34,2023-11-30 09h43.22.837338 +0000,
