Equation,CorrectResponse,Correctbutton,trials_7.thisRepN,trials_7.thisTrialN,trials_7.thisN,trials_7.thisIndex,trials.thisRepN,trials.thisTrialN,trials.thisN,trials.thisIndex,trials_3.thisRepN,trials_3.thisTrialN,trials_3.thisN,trials_3.thisIndex,trials_2.thisRepN,trials_2.thisTrialN,trials_2.thisN,trials_2.thisIndex,trials_4.thisRepN,trials_4.thisTrialN,trials_4.thisN,trials_4.thisIndex,trials_5.thisRepN,trials_5.thisTrialN,trials_5.thisN,trials_5.thisIndex,thisRow.t,notes,code_marius.started,code_marius.stopped,welcome.started,welcome.stopped,instruction_study.started,instruction_study.stopped,fixationcross.started,fixationcross.stopped,blanc.started,blanc.stopped,study_control_probe.started,study_control_probe.stopped,responseKey,responseTime,scale_answer_2.keys,study_control_probe_2.started,study_control_probe_2.stopped,scale_answer_3.keys,scale_answer_3.rt,scale_answer_3.duration,blanc_2.started,blanc_2.stopped,test_attr_probe.started,test_attr_probe.stopped,recalled_attr,firstKeyTime,secondWordTime,blanc_3.started,blanc_3.stopped,test_sub_probe.started,test_sub_probe.stopped,recalled_sub,instruction_probe_end.started,instruction_probe_end.stopped,study.started,study.stopped,substantive,adjective,wordpair,task,condition,liste_sub_phase1,liste_adj_phase1,scale_answer.keys,scale_answer.rt,scale_answer.duration,code_defineWordsInit.started,code_defineWordsInit.stopped,liste_sub_phase2,study_control.started,study_control.stopped,scale_answer_4.keys,restudy_same.started,restudy_same.stopped,scale_answer_5.keys,restudy_different.started,restudy_different.stopped,scale_answer_6.keys,scale_answer_6.rt,scale_answer_6.duration,test_attr.started,test_attr.stopped,test_sub.started,test_sub.stopped,scale_answer_4.rt,scale_answer_4.duration,distractortask.started,equation_text.started,distractortask.stopped,mouse_answer.x,mouse_answer.y,mouse_answer.leftButton,mouse_answer.midButton,mouse_answer.rightButton,mouse_answer.time,mouse_answer.clicked_name,feedback_distractortask.started,feedback_distractortask.stopped,free_recall.started,text_enter.started,key_resp.started,free_recall.stopped,key_resp.keys,key_resp.rt,key_resp.duration,free_recalled_sub,mouse_continue.x,mouse_continue.y,mouse_continue.leftButton,mouse_continue.midButton,mouse_continue.rightButton,mouse_continue.time,mouse_continue.clicked_name,cued_recall.started,text_enter_2.started,correct,key_continue.started,cued_recall.stopped,recalled_attr1,key_continue.keys,key_continue.rt,key_continue.duration,cued_recall_2.started,text_enter_3.started,key_continue_2.started,cued_recall_2.stopped,recalled_attr2,key_continue_2.keys,key_continue_2.rt,key_continue_2.duration,key_resp_8.started,key_resp_8.keys,key_resp_8.rt,key_resp_8.duration,condition,date,expName,psychopyVersion,frameRate,participant,expStart,
,,,,,,,,,,,,,,,,,,,,,,,,,,,,,0.11269820004235953,0.11276570003246889,0.11277410003822297,4.847228099999484,,,,,,,,,,,,,,,,,,,,,,,,,,,,,,,,,,,,,1,,,,,,,,,,,,,,,,,,,,,,,,,,,,,,,,,,,,,,,,,,,,,,,,,,,,,,,,,,,,,,,,,,,,,,,,,,1,2024-01-23_11h22.25.353,watkins1,2023.2.3,99.72973242216746,98,2024-01-23 11h22.39.609765 +0000,
,,,,,,,,,,,,,,,,,,,,,,,,,,,,,,,,,4.847277100023348,51.86210440000286,,,,,,,,,,,,,,,,,,,,,,,,,,,,,,,,,,,1,,,,,,,,,,,,,,,,,,,,,,,,,,,,,,,,,,,,,,,,,,,,,,,,,,,,,,,,,,,,,,,,,,,,,,,,,,1,2024-01-23_11h22.25.353,watkins1,2023.2.3,99.72973242216746,98,2024-01-23 11h22.39.609765 +0000,
,,,0,0,0,0,,,,,,,,,,,,,,,,,,,,,52.87618459999794,,,,,,,,51.86212270002579,52.86620780004887,59.362325399997644,59.853684600035194,53.35835180000868,59.362162000034004,2,3.6171574000036344,None,59.85369509999873,65.85600580001483,2,3.6171574000036344,None,65.85629640001571,65.85631960001774,65.85632680001436,65.8564069000422,,None,None,65.8565673000412,65.85658770002192,65.85659460001625,65.8566664000391,,,,,,,,,,1,,,,,,,,,,,,,,,,,,,,,,,,,,,,,,,,,,,,,,,,,,,,,,,,,,,,,,,,,,,,,,,,,,,,,,,,,,1,2024-01-23_11h22.25.353,watkins1,2023.2.3,99.72973242216746,98,2024-01-23 11h22.39.609765 +0000,
,,,,,,,,,,,,,,,,,,,,,,,,,,,,,,,,,,,,,,,,,,,,,,,,,,,,,,,,,,,,,65.85677820001729,71.48503470001742,,,,,,,1,,,,,,,,,,,,,,,,,,,,,,,,,,,,,,,,,,,,,,,,,,,,,,,,,,,,,,,,,,,,,,,,,,,,,,,,,,1,2024-01-23_11h22.25.353,watkins1,2023.2.3,99.72973242216746,98,2024-01-23 11h22.39.609765 +0000,
,,,,,,,0,0,0,0,,,,,,,,,,,,,,,,,72.49861100001726,,,,,,,,71.48505140002817,72.48852529999567,72.48896970000351,72.9806671999977,,,3,2.0256427000276744,,,,,,,,,,,,,,,,,,,,,72.98067750001792,78.98403069999767,Rucksack,praktisch,"['Rucksack', 'praktisch']",control,1,"['Rucksack', 'Telefon', 'Kamera', 'Hut', 'Würfel', 'Hammer', 'Bürste', 'Schere', 'Schlüssel', 'Geige', 'Löffel', 'Uhr', 'Vase', 'Socke', 'Jacke', 'Tasse', 'Eimer', 'Blume', 'Tasche', 'Ring', 'Fahrrad', 'Stift']",['praktisch'],3,2.0256427000276744,None,,,,,,,,,,,,,,,,,,,,,,,,,,,,,,,,,,,,,,,,,,,,,,,,,,,,,,,,,,,,,,,,,,,,,1,2024-01-23_11h22.25.353,watkins1,2023.2.3,99.72973242216746,98,2024-01-23 11h22.39.609765 +0000,
,,,,,,,1,0,1,0,,,,,,,,,,,,,,,,,78.99350760004018,,,,,,,,,,78.98462100001052,79.47553650004556,,,2,3.007479100022465,,,,,,,,,,,,,,,,,,,,,79.47554710000986,85.48275200003991,Telefon,teuer,"['Telefon', 'teuer']",restudy_diff,1,"['Rucksack', 'Telefon', 'Kamera', 'Hut', 'Würfel', 'Hammer', 'Bürste', 'Schere', 'Schlüssel', 'Geige', 'Löffel', 'Uhr', 'Vase', 'Socke', 'Jacke', 'Tasse', 'Eimer', 'Blume', 'Tasche', 'Ring', 'Fahrrad', 'Stift']","['praktisch', 'teuer']",2,3.007479100022465,None,,,,,,,,,,,,,,,,,,,,,,,,,,,,,,,,,,,,,,,,,,,,,,,,,,,,,,,,,,,,,,,,,,,,,1,2024-01-23_11h22.25.353,watkins1,2023.2.3,99.72973242216746,98,2024-01-23 11h22.39.609765 +0000,
,,,,,,,2,0,2,0,,,,,,,,,,,,,,,,,85.49220969999442,,,,,,,,,,85.48323030001484,85.97430560004432,,,2,2.2933157999650575,,,,,,,,,,,,,,,,,,,,,85.97431530000176,91.97482150001451,Kamera,gut,"['Kamera', 'gut']",restudy_diff,1,"['Rucksack', 'Telefon', 'Kamera', 'Hut', 'Würfel', 'Hammer', 'Bürste', 'Schere', 'Schlüssel', 'Geige', 'Löffel', 'Uhr', 'Vase', 'Socke', 'Jacke', 'Tasse', 'Eimer', 'Blume', 'Tasche', 'Ring', 'Fahrrad', 'Stift']","['praktisch', 'teuer', 'gut']",2,2.2933157999650575,None,,,,,,,,,,,,,,,,,,,,,,,,,,,,,,,,,,,,,,,,,,,,,,,,,,,,,,,,,,,,,,,,,,,,,1,2024-01-23_11h22.25.353,watkins1,2023.2.3,99.72973242216746,98,2024-01-23 11h22.39.609765 +0000,
,,,,,,,3,0,3,0,,,,,,,,,,,,,,,,,91.98428020003485,,,,,,,,,,91.9752989000408,92.4664269000059,,,1,3.2661763000069186,,,,,,,,,,,,,,,,,,,,,92.46643710002536,98.46701439999742,Hut,schlicht,"['Hut', 'schlicht']",restudy_diff,1,"['Rucksack', 'Telefon', 'Kamera', 'Hut', 'Würfel', 'Hammer', 'Bürste', 'Schere', 'Schlüssel', 'Geige', 'Löffel', 'Uhr', 'Vase', 'Socke', 'Jacke', 'Tasse', 'Eimer', 'Blume', 'Tasche', 'Ring', 'Fahrrad', 'Stift']","['praktisch', 'teuer', 'gut', 'schlicht']",1,3.2661763000069186,None,,,,,,,,,,,,,,,,,,,,,,,,,,,,,,,,,,,,,,,,,,,,,,,,,,,,,,,,,,,,,,,,,,,,,1,2024-01-23_11h22.25.353,watkins1,2023.2.3,99.72973242216746,98,2024-01-23 11h22.39.609765 +0000,
,,,,,,,4,0,4,0,,,,,,,,,,,,,,,,,98.47642650001217,,,,,,,,,,98.46752430003835,98.95855640002992,,,1,1.7416876999777742,,,,,,,,,,,,,,,,,,,,,98.95856640004786,104.96012480003992,Würfel,sportlich,"['Würfel', 'sportlich']",restudy_diff,1,"['Rucksack', 'Telefon', 'Kamera', 'Hut', 'Würfel', 'Hammer', 'Bürste', 'Schere', 'Schlüssel', 'Geige', 'Löffel', 'Uhr', 'Vase', 'Socke', 'Jacke', 'Tasse', 'Eimer', 'Blume', 'Tasche', 'Ring', 'Fahrrad', 'Stift']","['praktisch', 'teuer', 'gut', 'schlicht', 'sportlich']",1,1.7416876999777742,None,,,,,,,,,,,,,,,,,,,,,,,,,,,,,,,,,,,,,,,,,,,,,,,,,,,,,,,,,,,,,,,,,,,,,1,2024-01-23_11h22.25.353,watkins1,2023.2.3,99.72973242216746,98,2024-01-23 11h22.39.609765 +0000,
,,,,,,,5,0,5,0,,,,,,,,,,,,,,,,,104.9696033000364,,,,,,,,,,104.96067000000039,105.45169180002995,,,1,2.1532059999881312,,,,,,,,,,,,,,,,,,,,,105.45170239999425,111.45339500001865,Hammer,zart,"['Hammer', 'zart']",restudy_diff,1,"['Rucksack', 'Telefon', 'Kamera', 'Hut', 'Würfel', 'Hammer', 'Bürste', 'Schere', 'Schlüssel', 'Geige', 'Löffel', 'Uhr', 'Vase', 'Socke', 'Jacke', 'Tasse', 'Eimer', 'Blume', 'Tasche', 'Ring', 'Fahrrad', 'Stift']","['praktisch', 'teuer', 'gut', 'schlicht', 'sportlich', 'zart']",1,2.1532059999881312,None,,,,,,,,,,,,,,,,,,,,,,,,,,,,,,,,,,,,,,,,,,,,,,,,,,,,,,,,,,,,,,,,,,,,,1,2024-01-23_11h22.25.353,watkins1,2023.2.3,99.72973242216746,98,2024-01-23 11h22.39.609765 +0000,
,,,,,,,6,0,6,0,,,,,,,,,,,,,,,,,111.46279300004244,,,,,,,,,,111.45387240004493,111.94479830004275,,,2,3.1314209999982268,,,,,,,,,,,,,,,,,,,,,111.94480830000248,117.948953300016,Bürste,breit,"['Bürste', 'breit']",restudy_diff,1,"['Rucksack', 'Telefon', 'Kamera', 'Hut', 'Würfel', 'Hammer', 'Bürste', 'Schere', 'Schlüssel', 'Geige', 'Löffel', 'Uhr', 'Vase', 'Socke', 'Jacke', 'Tasse', 'Eimer', 'Blume', 'Tasche', 'Ring', 'Fahrrad', 'Stift']","['praktisch', 'teuer', 'gut', 'schlicht', 'sportlich', 'zart', 'breit']",2,3.1314209999982268,None,,,,,,,,,,,,,,,,,,,,,,,,,,,,,,,,,,,,,,,,,,,,,,,,,,,,,,,,,,,,,,,,,,,,,1,2024-01-23_11h22.25.353,watkins1,2023.2.3,99.72973242216746,98,2024-01-23 11h22.39.609765 +0000,
,,,,,,,7,0,7,0,,,,,,,,,,,,,,,,,117.95840709999902,,,,,,,,,,117.94942540000193,118.44048540003132,,,1,1.7881519000511616,,,,,,,,,,,,,,,,,,,,,118.44049589999486,124.44580820004921,Schere,gestreift,"['Schere', 'gestreift']",restudy_diff,1,"['Rucksack', 'Telefon', 'Kamera', 'Hut', 'Würfel', 'Hammer', 'Bürste', 'Schere', 'Schlüssel', 'Geige', 'Löffel', 'Uhr', 'Vase', 'Socke', 'Jacke', 'Tasse', 'Eimer', 'Blume', 'Tasche', 'Ring', 'Fahrrad', 'Stift']","['praktisch', 'teuer', 'gut', 'schlicht', 'sportlich', 'zart', 'breit', 'gestreift']",1,1.7881519000511616,None,,,,,,,,,,,,,,,,,,,,,,,,,,,,,,,,,,,,,,,,,,,,,,,,,,,,,,,,,,,,,,,,,,,,,1,2024-01-23_11h22.25.353,watkins1,2023.2.3,99.72973242216746,98,2024-01-23 11h22.39.609765 +0000,
,,,,,,,8,0,8,0,,,,,,,,,,,,,,,,,124.45526220003376,,,,,,,,,,124.44628820003709,124.93732800002908,,,2,2.1479740000213496,,,,,,,,,,,,,,,,,,,,,124.93733810004778,130.94624920003116,Schlüssel,neu,"['Schlüssel', 'neu']",restudy_diff,1,"['Rucksack', 'Telefon', 'Kamera', 'Hut', 'Würfel', 'Hammer', 'Bürste', 'Schere', 'Schlüssel', 'Geige', 'Löffel', 'Uhr', 'Vase', 'Socke', 'Jacke', 'Tasse', 'Eimer', 'Blume', 'Tasche', 'Ring', 'Fahrrad', 'Stift']","['praktisch', 'teuer', 'gut', 'schlicht', 'sportlich', 'zart', 'breit', 'gestreift', 'neu']",2,2.1479740000213496,None,,,,,,,,,,,,,,,,,,,,,,,,,,,,,,,,,,,,,,,,,,,,,,,,,,,,,,,,,,,,,,,,,,,,,1,2024-01-23_11h22.25.353,watkins1,2023.2.3,99.72973242216746,98,2024-01-23 11h22.39.609765 +0000,
,,,,,,,9,0,9,0,,,,,,,,,,,,,,,,,130.95570849999785,,,,,,,,,,130.94671630003722,131.43777120002778,,,1,1.1588015999877825,,,,,,,,,,,,,,,,,,,,,131.4377819999936,137.4403944000369,Geige,nass,"['Geige', 'nass']",restudy_diff,1,"['Rucksack', 'Telefon', 'Kamera', 'Hut', 'Würfel', 'Hammer', 'Bürste', 'Schere', 'Schlüssel', 'Geige', 'Löffel', 'Uhr', 'Vase', 'Socke', 'Jacke', 'Tasse', 'Eimer', 'Blume', 'Tasche', 'Ring', 'Fahrrad', 'Stift']","['praktisch', 'teuer', 'gut', 'schlicht', 'sportlich', 'zart', 'breit', 'gestreift', 'neu', 'nass']",1,1.1588015999877825,None,,,,,,,,,,,,,,,,,,,,,,,,,,,,,,,,,,,,,,,,,,,,,,,,,,,,,,,,,,,,,,,,,,,,,1,2024-01-23_11h22.25.353,watkins1,2023.2.3,99.72973242216746,98,2024-01-23 11h22.39.609765 +0000,
,,,,,,,10,0,10,0,,,,,,,,,,,,,,,,,137.44988620001823,,,,,,,,,,137.44087109999964,137.93226900004083,,,1,1.6317777000367641,,,,,,,,,,,,,,,,,,,,,137.93227900000056,143.9363835999975,Löffel,rustikal,"['Löffel', 'rustikal']",restudy_diff,1,"['Rucksack', 'Telefon', 'Kamera', 'Hut', 'Würfel', 'Hammer', 'Bürste', 'Schere', 'Schlüssel', 'Geige', 'Löffel', 'Uhr', 'Vase', 'Socke', 'Jacke', 'Tasse', 'Eimer', 'Blume', 'Tasche', 'Ring', 'Fahrrad', 'Stift']","['praktisch', 'teuer', 'gut', 'schlicht', 'sportlich', 'zart', 'breit', 'gestreift', 'neu', 'nass', 'rustikal']",1,1.6317777000367641,None,,,,,,,,,,,,,,,,,,,,,,,,,,,,,,,,,,,,,,,,,,,,,,,,,,,,,,,,,,,,,,,,,,,,,1,2024-01-23_11h22.25.353,watkins1,2023.2.3,99.72973242216746,98,2024-01-23 11h22.39.609765 +0000,
,,,,,,,11,0,11,0,,,,,,,,,,,,,,,,,143.94584510003915,,,,,,,,,,143.93684969999595,144.4278520999942,,,1,1.3367254000040703,,,,,,,,,,,,,,,,,,,,,144.42786290001823,150.43526910000946,Uhr,kratzig,"['Uhr', 'kratzig']",control,1,"['Rucksack', 'Telefon', 'Kamera', 'Hut', 'Würfel', 'Hammer', 'Bürste', 'Schere', 'Schlüssel', 'Geige', 'Löffel', 'Uhr', 'Vase', 'Socke', 'Jacke', 'Tasse', 'Eimer', 'Blume', 'Tasche', 'Ring', 'Fahrrad', 'Stift']","['praktisch', 'teuer', 'gut', 'schlicht', 'sportlich', 'zart', 'breit', 'gestreift', 'neu', 'nass', 'rustikal', 'kratzig']",1,1.3367254000040703,None,,,,,,,,,,,,,,,,,,,,,,,,,,,,,,,,,,,,,,,,,,,,,,,,,,,,,,,,,,,,,,,,,,,,,1,2024-01-23_11h22.25.353,watkins1,2023.2.3,99.72973242216746,98,2024-01-23 11h22.39.609765 +0000,
,,,,,,,12,0,12,0,,,,,,,,,,,,,,,,,150.44480789999943,,,,,,,,,,150.4357456000289,150.92680420004763,,,1,3.341908300004434,,,,,,,,,,,,,,,,,,,,,150.9268136000028,156.92979399999604,Vase,flach,"['Vase', 'flach']",restudy_diff,1,"['Rucksack', 'Telefon', 'Kamera', 'Hut', 'Würfel', 'Hammer', 'Bürste', 'Schere', 'Schlüssel', 'Geige', 'Löffel', 'Uhr', 'Vase', 'Socke', 'Jacke', 'Tasse', 'Eimer', 'Blume', 'Tasche', 'Ring', 'Fahrrad', 'Stift']","['praktisch', 'teuer', 'gut', 'schlicht', 'sportlich', 'zart', 'breit', 'gestreift', 'neu', 'nass', 'rustikal', 'kratzig', 'flach']",1,3.341908300004434,None,,,,,,,,,,,,,,,,,,,,,,,,,,,,,,,,,,,,,,,,,,,,,,,,,,,,,,,,,,,,,,,,,,,,,1,2024-01-23_11h22.25.353,watkins1,2023.2.3,99.72973242216746,98,2024-01-23 11h22.39.609765 +0000,
,,,,,,,13,0,13,0,,,,,,,,,,,,,,,,,156.93933240004117,,,,,,,,,,156.9303462000098,157.42140630003996,,,2,1.7438158000004478,,,,,,,,,,,,,,,,,,,,,157.42141670000274,163.4306945000426,Socke,sauber,"['Socke', 'sauber']",restudy_diff,1,"['Rucksack', 'Telefon', 'Kamera', 'Hut', 'Würfel', 'Hammer', 'Bürste', 'Schere', 'Schlüssel', 'Geige', 'Löffel', 'Uhr', 'Vase', 'Socke', 'Jacke', 'Tasse', 'Eimer', 'Blume', 'Tasche', 'Ring', 'Fahrrad', 'Stift']","['praktisch', 'teuer', 'gut', 'schlicht', 'sportlich', 'zart', 'breit', 'gestreift', 'neu', 'nass', 'rustikal', 'kratzig', 'flach', 'sauber']",2,1.7438158000004478,None,,,,,,,,,,,,,,,,,,,,,,,,,,,,,,,,,,,,,,,,,,,,,,,,,,,,,,,,,,,,,,,,,,,,,1,2024-01-23_11h22.25.353,watkins1,2023.2.3,99.72973242216746,98,2024-01-23 11h22.39.609765 +0000,
,,,,,,,14,0,14,0,,,,,,,,,,,,,,,,,163.44017479999457,,,,,,,,,,163.43116670002928,163.92226150003262,,,1,2.0655409999890253,,,,,,,,,,,,,,,,,,,,,163.92227219999768,169.9267688000109,Jacke,verspielt,"['Jacke', 'verspielt']",control,1,"['Rucksack', 'Telefon', 'Kamera', 'Hut', 'Würfel', 'Hammer', 'Bürste', 'Schere', 'Schlüssel', 'Geige', 'Löffel', 'Uhr', 'Vase', 'Socke', 'Jacke', 'Tasse', 'Eimer', 'Blume', 'Tasche', 'Ring', 'Fahrrad', 'Stift']","['praktisch', 'teuer', 'gut', 'schlicht', 'sportlich', 'zart', 'breit', 'gestreift', 'neu', 'nass', 'rustikal', 'kratzig', 'flach', 'sauber', 'verspielt']",1,2.0655409999890253,None,,,,,,,,,,,,,,,,,,,,,,,,,,,,,,,,,,,,,,,,,,,,,,,,,,,,,,,,,,,,,,,,,,,,,1,2024-01-23_11h22.25.353,watkins1,2023.2.3,99.72973242216746,98,2024-01-23 11h22.39.609765 +0000,
,,,,,,,15,0,15,0,,,,,,,,,,,,,,,,,169.9362806000281,,,,,,,,,,169.92723690002458,170.41833710001083,,,2,2.163125300023239,,,,,,,,,,,,,,,,,,,,,170.41834790003486,176.4246020000428,Tasse,elegant,"['Tasse', 'elegant']",control,1,"['Rucksack', 'Telefon', 'Kamera', 'Hut', 'Würfel', 'Hammer', 'Bürste', 'Schere', 'Schlüssel', 'Geige', 'Löffel', 'Uhr', 'Vase', 'Socke', 'Jacke', 'Tasse', 'Eimer', 'Blume', 'Tasche', 'Ring', 'Fahrrad', 'Stift']","['praktisch', 'teuer', 'gut', 'schlicht', 'sportlich', 'zart', 'breit', 'gestreift', 'neu', 'nass', 'rustikal', 'kratzig', 'flach', 'sauber', 'verspielt', 'elegant']",2,2.163125300023239,None,,,,,,,,,,,,,,,,,,,,,,,,,,,,,,,,,,,,,,,,,,,,,,,,,,,,,,,,,,,,,,,,,,,,,1,2024-01-23_11h22.25.353,watkins1,2023.2.3,99.72973242216746,98,2024-01-23 11h22.39.609765 +0000,
,,,,,,,16,0,16,0,,,,,,,,,,,,,,,,,176.43411400000332,,,,,,,,,,176.4250774999964,176.91616910003358,,,2,1.9924553000018932,,,,,,,,,,,,,,,,,,,,,176.91617959999712,182.92187880002894,Eimer,schmutzig,"['Eimer', 'schmutzig']",control,1,"['Rucksack', 'Telefon', 'Kamera', 'Hut', 'Würfel', 'Hammer', 'Bürste', 'Schere', 'Schlüssel', 'Geige', 'Löffel', 'Uhr', 'Vase', 'Socke', 'Jacke', 'Tasse', 'Eimer', 'Blume', 'Tasche', 'Ring', 'Fahrrad', 'Stift']","['praktisch', 'teuer', 'gut', 'schlicht', 'sportlich', 'zart', 'breit', 'gestreift', 'neu', 'nass', 'rustikal', 'kratzig', 'flach', 'sauber', 'verspielt', 'elegant', 'schmutzig']",2,1.9924553000018932,None,,,,,,,,,,,,,,,,,,,,,,,,,,,,,,,,,,,,,,,,,,,,,,,,,,,,,,,,,,,,,,,,,,,,,1,2024-01-23_11h22.25.353,watkins1,2023.2.3,99.72973242216746,98,2024-01-23 11h22.39.609765 +0000,
,,,,,,,17,0,17,0,,,,,,,,,,,,,,,,,182.93134950002423,,,,,,,,,,182.922431300045,183.4134845000226,,,1,1.1360273000318557,,,,,,,,,,,,,,,,,,,,,183.4134951000451,189.4210300000268,Blume,glatt,"['Blume', 'glatt']",control,1,"['Rucksack', 'Telefon', 'Kamera', 'Hut', 'Würfel', 'Hammer', 'Bürste', 'Schere', 'Schlüssel', 'Geige', 'Löffel', 'Uhr', 'Vase', 'Socke', 'Jacke', 'Tasse', 'Eimer', 'Blume', 'Tasche', 'Ring', 'Fahrrad', 'Stift']","['praktisch', 'teuer', 'gut', 'schlicht', 'sportlich', 'zart', 'breit', 'gestreift', 'neu', 'nass', 'rustikal', 'kratzig', 'flach', 'sauber', 'verspielt', 'elegant', 'schmutzig', 'glatt']",1,1.1360273000318557,None,,,,,,,,,,,,,,,,,,,,,,,,,,,,,,,,,,,,,,,,,,,,,,,,,,,,,,,,,,,,,,,,,,,,,1,2024-01-23_11h22.25.353,watkins1,2023.2.3,99.72973242216746,98,2024-01-23 11h22.39.609765 +0000,
,,,,,,,18,0,18,0,,,,,,,,,,,,,,,,,189.43054610001855,,,,,,,,,,189.42151210003067,189.91247490001842,,,1,2.556943300005514,,,,,,,,,,,,,,,,,,,,,189.91248490003636,195.91868060000706,Tasche,kalt,"['Tasche', 'kalt']",restudy_diff,1,"['Rucksack', 'Telefon', 'Kamera', 'Hut', 'Würfel', 'Hammer', 'Bürste', 'Schere', 'Schlüssel', 'Geige', 'Löffel', 'Uhr', 'Vase', 'Socke', 'Jacke', 'Tasse', 'Eimer', 'Blume', 'Tasche', 'Ring', 'Fahrrad', 'Stift']","['praktisch', 'teuer', 'gut', 'schlicht', 'sportlich', 'zart', 'breit', 'gestreift', 'neu', 'nass', 'rustikal', 'kratzig', 'flach', 'sauber', 'verspielt', 'elegant', 'schmutzig', 'glatt', 'kalt']",1,2.556943300005514,None,,,,,,,,,,,,,,,,,,,,,,,,,,,,,,,,,,,,,,,,,,,,,,,,,,,,,,,,,,,,,,,,,,,,,1,2024-01-23_11h22.25.353,watkins1,2023.2.3,99.72973242216746,98,2024-01-23 11h22.39.609765 +0000,
,,,,,,,19,0,19,0,,,,,,,,,,,,,,,,,195.9281551000313,,,,,,,,,,195.91925700003048,196.41013830003794,,,2,4.858990999986418,,,,,,,,,,,,,,,,,,,,,196.41014859999996,202.41510480002034,Ring,bunt,"['Ring', 'bunt']",restudy_diff,1,"['Rucksack', 'Telefon', 'Kamera', 'Hut', 'Würfel', 'Hammer', 'Bürste', 'Schere', 'Schlüssel', 'Geige', 'Löffel', 'Uhr', 'Vase', 'Socke', 'Jacke', 'Tasse', 'Eimer', 'Blume', 'Tasche', 'Ring', 'Fahrrad', 'Stift']","['praktisch', 'teuer', 'gut', 'schlicht', 'sportlich', 'zart', 'breit', 'gestreift', 'neu', 'nass', 'rustikal', 'kratzig', 'flach', 'sauber', 'verspielt', 'elegant', 'schmutzig', 'glatt', 'kalt', 'bunt']",2,4.858990999986418,None,,,,,,,,,,,,,,,,,,,,,,,,,,,,,,,,,,,,,,,,,,,,,,,,,,,,,,,,,,,,,,,,,,,,,1,2024-01-23_11h22.25.353,watkins1,2023.2.3,99.72973242216746,98,2024-01-23 11h22.39.609765 +0000,
,,,,,,,20,0,20,0,,,,,,,,,,,,,,,,,202.42458340001758,,,,,,,,,,202.4155921000056,202.90661150001688,,,2,1.313800900010392,,,,,,,,,,,,,,,,,,,,,202.90662150003482,208.9075077000307,Fahrrad,hübsch,"['Fahrrad', 'hübsch']",control,1,"['Rucksack', 'Telefon', 'Kamera', 'Hut', 'Würfel', 'Hammer', 'Bürste', 'Schere', 'Schlüssel', 'Geige', 'Löffel', 'Uhr', 'Vase', 'Socke', 'Jacke', 'Tasse', 'Eimer', 'Blume', 'Tasche', 'Ring', 'Fahrrad', 'Stift']","['praktisch', 'teuer', 'gut', 'schlicht', 'sportlich', 'zart', 'breit', 'gestreift', 'neu', 'nass', 'rustikal', 'kratzig', 'flach', 'sauber', 'verspielt', 'elegant', 'schmutzig', 'glatt', 'kalt', 'bunt', 'hübsch']",2,1.313800900010392,None,,,,,,,,,,,,,,,,,,,,,,,,,,,,,,,,,,,,,,,,,,,,,,,,,,,,,,,,,,,,,,,,,,,,,1,2024-01-23_11h22.25.353,watkins1,2023.2.3,99.72973242216746,98,2024-01-23 11h22.39.609765 +0000,
,,,,,,,21,0,21,0,,,,,,,,,,,,,,,,,208.91695710003842,,,,,,,,,,208.9079905000399,209.39898709999397,,,2,1.901566400018055,,,,,,,,,,,,,,,,,,,,,209.3989982000203,215.4000020000385,Stift,glänzend,"['Stift', 'glänzend']",restudy_diff,1,"['Rucksack', 'Telefon', 'Kamera', 'Hut', 'Würfel', 'Hammer', 'Bürste', 'Schere', 'Schlüssel', 'Geige', 'Löffel', 'Uhr', 'Vase', 'Socke', 'Jacke', 'Tasse', 'Eimer', 'Blume', 'Tasche', 'Ring', 'Fahrrad', 'Stift']","['praktisch', 'teuer', 'gut', 'schlicht', 'sportlich', 'zart', 'breit', 'gestreift', 'neu', 'nass', 'rustikal', 'kratzig', 'flach', 'sauber', 'verspielt', 'elegant', 'schmutzig', 'glatt', 'kalt', 'bunt', 'hübsch', 'glänzend']",2,1.901566400018055,None,,,,,,,,,,,,,,,,,,,,,,,,,,,,,,,,,,,,,,,,,,,,,,,,,,,,,,,,,,,,,,,,,,,,,1,2024-01-23_11h22.25.353,watkins1,2023.2.3,99.72973242216746,98,2024-01-23 11h22.39.609765 +0000,
,,,,,,,,,,,0,0,0,0,,,,,,,,,,,,,215.409512000042,,,,,,,,,,215.4008333000238,215.89153890003217,,,2,2.322516599961091,,,,,,,,,,,,None,None,,,,,,,,,,Hammer,schwer,"['Hammer', 'schwer']",restudy_diff,1,,,,,,215.40075530001195,215.40080790000502,"['Hammer', 'Lampe', 'Kiste', 'Ring', 'Vase', 'Stift', 'Trommel', 'Löffel', 'Kamera', 'Schlüssel', 'Buch', 'Kerze', 'Brille', 'Telefon', 'Würfel', 'Socke', 'Schere', 'Bürste', 'Tasche', 'Flasche', 'Hut', 'Geige', 'Kette']",215.8915487000486,215.89423750003334,None,215.8944080999936,215.89720690000104,None,215.89736270002322,221.89865650003776,2,2.322516599961091,None,221.89905190002173,221.90035680000437,221.90037180000218,221.9015394000453,,,,,,,,,,,,,,,,,,,,,,,,,,,,,,,,,,,,,,,,,,,,,,,,,,,1,2024-01-23_11h22.25.353,watkins1,2023.2.3,99.72973242216746,98,2024-01-23 11h22.39.609765 +0000,
,,,,,,,,,,,1,0,1,0,,,,,,,,,,,,,221.90814020001562,,,,,,,,,,221.90180980000878,222.4001596000162,,,[],[],,,,,,,,,,,,None,None,,,,,,,,,,Lampe,hässlich,"['Lampe', 'hässlich']",control,1,,,,,,221.90174500003923,221.90178340004059,"['Hammer', 'Lampe', 'Kiste', 'Ring', 'Vase', 'Stift', 'Trommel', 'Löffel', 'Kamera', 'Schlüssel', 'Buch', 'Kerze', 'Brille', 'Telefon', 'Würfel', 'Socke', 'Schere', 'Bürste', 'Tasche', 'Flasche', 'Hut', 'Geige', 'Kette']",222.40017120004632,228.40113080001902,2,228.40148749999935,228.40427729999647,None,228.4043837999925,228.4069346000324,None,,,228.40704100002768,228.40820250002434,228.40821409999626,228.4094294999959,1.764246099977754,None,,,,,,,,,,,,,,,,,,,,,,,,,,,,,,,,,,,,,,,,,,,,,,,,,1,2024-01-23_11h22.25.353,watkins1,2023.2.3,99.72973242216746,98,2024-01-23 11h22.39.609765 +0000,
,,,,,,,,,,,2,0,2,0,,,,,,,,,,,,,228.41302700003143,,,,,,,,,,228.4097040000488,228.90630960004637,,,[],[],,,,,,,,,,,,None,None,,,,,,,,,,Kiste,klobig,"['Kiste', 'klobig']",control,1,,,,,,228.40963940002257,228.40967900003307,"['Hammer', 'Lampe', 'Kiste', 'Ring', 'Vase', 'Stift', 'Trommel', 'Löffel', 'Kamera', 'Schlüssel', 'Buch', 'Kerze', 'Brille', 'Telefon', 'Würfel', 'Socke', 'Schere', 'Bürste', 'Tasche', 'Flasche', 'Hut', 'Geige', 'Kette']",228.90632020001067,234.9156762000057,3,234.91595830000006,234.91871430003084,None,234.9188189000124,234.92133110004943,None,,,234.92143500002567,234.92259520001244,234.9226072000456,234.9237950000097,1.5950626999838278,None,,,,,,,,,,,,,,,,,,,,,,,,,,,,,,,,,,,,,,,,,,,,,,,,,1,2024-01-23_11h22.25.353,watkins1,2023.2.3,99.72973242216746,98,2024-01-23 11h22.39.609765 +0000,
,,,,,,,,,,,3,0,3,0,,,,,,,,,,,,,234.92735420004465,,,,,,,,,,234.92406730004586,235.42160659999354,,,2,2.0687196000362746,,,,,,,,,,,,None,None,,,,,,,,,,Ring,strahlend,"['Ring', 'strahlend']",restudy_diff,1,,,,,,234.92400260001887,234.92404220002936,"['Hammer', 'Lampe', 'Kiste', 'Ring', 'Vase', 'Stift', 'Trommel', 'Löffel', 'Kamera', 'Schlüssel', 'Buch', 'Kerze', 'Brille', 'Telefon', 'Würfel', 'Socke', 'Schere', 'Bürste', 'Tasche', 'Flasche', 'Hut', 'Geige', 'Kette']",235.42161880002823,235.42310430004727,None,235.42322749999585,235.42458110000007,None,235.42469270003494,241.42758090002462,2,2.0687196000362746,None,241.42786150000757,241.42941050004447,241.42942420003237,241.4307698000339,,,,,,,,,,,,,,,,,,,,,,,,,,,,,,,,,,,,,,,,,,,,,,,,,,,1,2024-01-23_11h22.25.353,watkins1,2023.2.3,99.72973242216746,98,2024-01-23 11h22.39.609765 +0000,
,,,,,,,,,,,4,0,4,0,,,,,,,,,,,,,241.43705950002186,,,,,,,,,,241.43104820000008,241.92914320004638,,,1,1.3431707000127062,,,,,,,,,,,,None,None,,,,,,,,,,Vase,krumm,"['Vase', 'krumm']",restudy_diff,1,,,,,,241.43098160001682,241.43102060002275,"['Hammer', 'Lampe', 'Kiste', 'Ring', 'Vase', 'Stift', 'Trommel', 'Löffel', 'Kamera', 'Schlüssel', 'Buch', 'Kerze', 'Brille', 'Telefon', 'Würfel', 'Socke', 'Schere', 'Bürste', 'Tasche', 'Flasche', 'Hut', 'Geige', 'Kette']",241.92915330000687,241.93176290002884,None,241.9318823000067,241.9343657999998,None,241.93447040003957,247.9370074000326,1,1.3431707000127062,None,247.9372860000003,247.9384508000221,247.9384629999986,247.9396345000132,,,,,,,,,,,,,,,,,,,,,,,,,,,,,,,,,,,,,,,,,,,,,,,,,,,1,2024-01-23_11h22.25.353,watkins1,2023.2.3,99.72973242216746,98,2024-01-23 11h22.39.609765 +0000,
,,,,,,,,,,,5,0,5,0,,,,,,,,,,,,,247.94646649999777,,,,,,,,,,247.93990650004707,248.438516299997,,,1,0.9701878000050783,,,,,,,,,,,,None,None,,,,,,,,,,Stift,blass,"['Stift', 'blass']",restudy_diff,1,,,,,,247.93984140001703,247.93987960001687,"['Hammer', 'Lampe', 'Kiste', 'Ring', 'Vase', 'Stift', 'Trommel', 'Löffel', 'Kamera', 'Schlüssel', 'Buch', 'Kerze', 'Brille', 'Telefon', 'Würfel', 'Socke', 'Schere', 'Bürste', 'Tasche', 'Flasche', 'Hut', 'Geige', 'Kette']",248.4385277000256,248.44120480003767,None,248.44132490002085,248.44382159999805,None,248.44392320001498,254.45082349999575,1,0.9701878000050783,None,254.4511059000506,254.4524032000336,254.4524158000131,254.4535566000268,,,,,,,,,,,,,,,,,,,,,,,,,,,,,,,,,,,,,,,,,,,,,,,,,,,1,2024-01-23_11h22.25.353,watkins1,2023.2.3,99.72973242216746,98,2024-01-23 11h22.39.609765 +0000,
,,,,,,,,,,,6,0,6,0,,,,,,,,,,,,,254.46031700004824,,,,,,,,,,254.45382779999636,254.95248850004282,,,[],[],,,,,,,,,,,,None,None,,,,,,,,,,Trommel,nachhaltig,"['Trommel', 'nachhaltig']",control,1,,,,,,254.4537628000253,254.45380180003121,"['Hammer', 'Lampe', 'Kiste', 'Ring', 'Vase', 'Stift', 'Trommel', 'Löffel', 'Kamera', 'Schlüssel', 'Buch', 'Kerze', 'Brille', 'Telefon', 'Würfel', 'Socke', 'Schere', 'Bürste', 'Tasche', 'Flasche', 'Hut', 'Geige', 'Kette']",254.9524986000033,260.96155190002173,1,260.96183280000696,260.9646543000126,None,260.9647597000003,260.96740140003385,None,,,260.96750460000476,260.96876180003164,260.96877370000584,260.97003650001716,1.357254600035958,None,,,,,,,,,,,,,,,,,,,,,,,,,,,,,,,,,,,,,,,,,,,,,,,,,1,2024-01-23_11h22.25.353,watkins1,2023.2.3,99.72973242216746,98,2024-01-23 11h22.39.609765 +0000,
,,,,,,,,,,,7,0,7,0,,,,,,,,,,,,,260.97365610004636,,,,,,,,,,260.9703120000195,261.46710070001427,,,1,2.3832953999517485,,,,,,,,,,,,None,None,,,,,,,,,,Löffel,kurz,"['Löffel', 'kurz']",restudy_diff,1,,,,,,260.9702477999963,260.9702878000098,"['Hammer', 'Lampe', 'Kiste', 'Ring', 'Vase', 'Stift', 'Trommel', 'Löffel', 'Kamera', 'Schlüssel', 'Buch', 'Kerze', 'Brille', 'Telefon', 'Würfel', 'Socke', 'Schere', 'Bürste', 'Tasche', 'Flasche', 'Hut', 'Geige', 'Kette']",261.4671113000368,261.468729300017,None,261.4688530000276,261.4703163999948,None,261.47042000002693,267.47796910000034,1,2.3832953999517485,None,267.47825109999394,267.4795823000022,267.4795945000369,267.4806338000344,,,,,,,,,,,,,,,,,,,,,,,,,,,,,,,,,,,,,,,,,,,,,,,,,,,1,2024-01-23_11h22.25.353,watkins1,2023.2.3,99.72973242216746,98,2024-01-23 11h22.39.609765 +0000,
,,,,,,,,,,,8,0,8,0,,,,,,,,,,,,,267.48744300002,,,,,,,,,,267.4809043999994,267.97958660003496,,,1,0.9805431999848224,,,,,,,,,,,,None,None,,,,,,,,,,Kamera,hohl,"['Kamera', 'hohl']",restudy_diff,1,,,,,,267.48083990003215,267.48087870003656,"['Hammer', 'Lampe', 'Kiste', 'Ring', 'Vase', 'Stift', 'Trommel', 'Löffel', 'Kamera', 'Schlüssel', 'Buch', 'Kerze', 'Brille', 'Telefon', 'Würfel', 'Socke', 'Schere', 'Bürste', 'Tasche', 'Flasche', 'Hut', 'Geige', 'Kette']",267.97959699999774,267.9822698000353,None,267.9823882000055,267.98489720001817,None,267.9850006000488,273.9893009000225,1,0.9805431999848224,None,273.9895724999951,273.9908990000258,273.99091130000306,273.9919321000343,,,,,,,,,,,,,,,,,,,,,,,,,,,,,,,,,,,,,,,,,,,,,,,,,,,1,2024-01-23_11h22.25.353,watkins1,2023.2.3,99.72973242216746,98,2024-01-23 11h22.39.609765 +0000,
,,,,,,,,,,,9,0,9,0,,,,,,,,,,,,,273.9987847000011,,,,,,,,,,273.9922017999925,274.49091730004875,,,1,1.356637499993667,,,,,,,,,,,,None,None,,,,,,,,,,Schlüssel,dunkel,"['Schlüssel', 'dunkel']",restudy_diff,1,,,,,,273.9921373000252,273.9921759000281,"['Hammer', 'Lampe', 'Kiste', 'Ring', 'Vase', 'Stift', 'Trommel', 'Löffel', 'Kamera', 'Schlüssel', 'Buch', 'Kerze', 'Brille', 'Telefon', 'Würfel', 'Socke', 'Schere', 'Bürste', 'Tasche', 'Flasche', 'Hut', 'Geige', 'Kette']",274.49092790001305,274.4936630000011,None,274.49378270003945,274.4967933000298,None,274.4968976000091,280.50164590001805,1,1.356637499993667,None,280.5019177000504,280.50327740004286,280.5032895000186,280.5044662000146,,,,,,,,,,,,,,,,,,,,,,,,,,,,,,,,,,,,,,,,,,,,,,,,,,,1,2024-01-23_11h22.25.353,watkins1,2023.2.3,99.72973242216746,98,2024-01-23 11h22.39.609765 +0000,
,,,,,,,,,,,10,0,10,0,,,,,,,,,,,,,280.5111850000103,,,,,,,,,,280.5047360000317,281.00329890003195,,,[],[],,,,,,,,,,,,None,None,,,,,,,,,,Buch,kaputt,"['Buch', 'kaputt']",control,1,,,,,,280.50467140000546,280.50471030001063,"['Hammer', 'Lampe', 'Kiste', 'Ring', 'Vase', 'Stift', 'Trommel', 'Löffel', 'Kamera', 'Schlüssel', 'Buch', 'Kerze', 'Brille', 'Telefon', 'Würfel', 'Socke', 'Schere', 'Bürste', 'Tasche', 'Flasche', 'Hut', 'Geige', 'Kette']",281.0033090999932,287.0087887000409,1,287.0090710000368,287.0115870000445,None,287.0116903000162,287.01405830000294,None,,,287.0141603000229,287.01519360003294,287.01520550000714,287.01636020001024,1.1062867000000551,None,,,,,,,,,,,,,,,,,,,,,,,,,,,,,,,,,,,,,,,,,,,,,,,,,1,2024-01-23_11h22.25.353,watkins1,2023.2.3,99.72973242216746,98,2024-01-23 11h22.39.609765 +0000,
,,,,,,,,,,,11,0,11,0,,,,,,,,,,,,,287.0200298000127,,,,,,,,,,287.0166276000091,287.51272460003383,,,[],[],,,,,,,,,,,,None,None,,,,,,,,,,Kerze,gepunktet,"['Kerze', 'gepunktet']",control,1,,,,,,287.01656410004944,287.0166037000017,"['Hammer', 'Lampe', 'Kiste', 'Ring', 'Vase', 'Stift', 'Trommel', 'Löffel', 'Kamera', 'Schlüssel', 'Buch', 'Kerze', 'Brille', 'Telefon', 'Würfel', 'Socke', 'Schere', 'Bürste', 'Tasche', 'Flasche', 'Hut', 'Geige', 'Kette']",287.5127366000088,293.52012080000713,2,293.52039160003187,293.52306320000207,None,293.5231664000312,293.5256967000314,None,,,293.5257985999924,293.52691910002613,293.5269307999988,293.52824430004694,1.2844352999818511,None,,,,,,,,,,,,,,,,,,,,,,,,,,,,,,,,,,,,,,,,,,,,,,,,,1,2024-01-23_11h22.25.353,watkins1,2023.2.3,99.72973242216746,98,2024-01-23 11h22.39.609765 +0000,
,,,,,,,,,,,12,0,12,0,,,,,,,,,,,,,293.53181420004694,,,,,,,,,,293.52850920002675,294.02496210002573,,,[],[],,,,,,,,,,,,None,None,,,,,,,,,,Brille,flauschig,"['Brille', 'flauschig']",control,1,,,,,,293.52844550000736,293.5284853000194,"['Hammer', 'Lampe', 'Kiste', 'Ring', 'Vase', 'Stift', 'Trommel', 'Löffel', 'Kamera', 'Schlüssel', 'Buch', 'Kerze', 'Brille', 'Telefon', 'Würfel', 'Socke', 'Schere', 'Bürste', 'Tasche', 'Flasche', 'Hut', 'Geige', 'Kette']",294.0249732999946,300.02739920001477,1,300.027690500021,300.0304363000323,None,300.03054100001464,300.0331441000453,None,,,300.0332613000064,300.03444980003405,300.0344619000098,300.03569190000417,0.956420199945569,None,,,,,,,,,,,,,,,,,,,,,,,,,,,,,,,,,,,,,,,,,,,,,,,,,1,2024-01-23_11h22.25.353,watkins1,2023.2.3,99.72973242216746,98,2024-01-23 11h22.39.609765 +0000,
,,,,,,,,,,,13,0,13,0,,,,,,,,,,,,,300.0392951000249,,,,,,,,,,300.0359632000327,300.5324804999982,,,2,1.7577658999944106,,,,,,,,,,,,None,None,,,,,,,,,,Telefon,matt,"['Telefon', 'matt']",restudy_diff,1,,,,,,300.035898800008,300.0359387000208,"['Hammer', 'Lampe', 'Kiste', 'Ring', 'Vase', 'Stift', 'Trommel', 'Löffel', 'Kamera', 'Schlüssel', 'Buch', 'Kerze', 'Brille', 'Telefon', 'Würfel', 'Socke', 'Schere', 'Bürste', 'Tasche', 'Flasche', 'Hut', 'Geige', 'Kette']",300.53249130002223,300.5340853999951,None,300.53420400002506,300.53566660004435,None,300.5357725000358,306.53919149999274,2,1.7577658999944106,None,306.53946650004946,306.5407921000151,306.5408046999946,306.5418593000504,,,,,,,,,,,,,,,,,,,,,,,,,,,,,,,,,,,,,,,,,,,,,,,,,,,1,2024-01-23_11h22.25.353,watkins1,2023.2.3,99.72973242216746,98,2024-01-23 11h22.39.609765 +0000,
,,,,,,,,,,,14,0,14,0,,,,,,,,,,,,,306.5486294000293,,,,,,,,,,306.5421321000322,307.0406987000024,,,1,1.6474203999969177,,,,,,,,,,,,None,None,,,,,,,,,,Würfel,durchsichtig,"['Würfel', 'durchsichtig']",restudy_diff,1,,,,,,306.54206750000594,306.54210660001263,"['Hammer', 'Lampe', 'Kiste', 'Ring', 'Vase', 'Stift', 'Trommel', 'Löffel', 'Kamera', 'Schlüssel', 'Buch', 'Kerze', 'Brille', 'Telefon', 'Würfel', 'Socke', 'Schere', 'Bürste', 'Tasche', 'Flasche', 'Hut', 'Geige', 'Kette']",307.04070890002185,307.0432201999938,None,307.0433361000032,307.045740200032,None,307.0458456000197,313.0520286000101,1,1.6474203999969177,None,313.052302600001,313.05362970003625,313.05364190001274,313.0549631000031,,,,,,,,,,,,,,,,,,,,,,,,,,,,,,,,,,,,,,,,,,,,,,,,,,,1,2024-01-23_11h22.25.353,watkins1,2023.2.3,99.72973242216746,98,2024-01-23 11h22.39.609765 +0000,
,,,,,,,,,,,15,0,15,0,,,,,,,,,,,,,313.0614816000452,,,,,,,,,,313.05523330002325,313.5536374000367,,,1,1.3184575000195764,,,,,,,,,,,,None,None,,,,,,,,,,Socke,winzig,"['Socke', 'winzig']",restudy_diff,1,,,,,,313.05516859999625,313.0552076000022,"['Hammer', 'Lampe', 'Kiste', 'Ring', 'Vase', 'Stift', 'Trommel', 'Löffel', 'Kamera', 'Schlüssel', 'Buch', 'Kerze', 'Brille', 'Telefon', 'Würfel', 'Socke', 'Schere', 'Bürste', 'Tasche', 'Flasche', 'Hut', 'Geige', 'Kette']",313.55364880000707,313.5564174000174,None,313.55653649999294,313.5591371000046,None,313.55923860002076,319.5613784000161,1,1.3184575000195764,None,319.5616599000059,319.5629497000482,319.5629736999981,319.56416629999876,,,,,,,,,,,,,,,,,,,,,,,,,,,,,,,,,,,,,,,,,,,,,,,,,,,1,2024-01-23_11h22.25.353,watkins1,2023.2.3,99.72973242216746,98,2024-01-23 11h22.39.609765 +0000,
,,,,,,,,,,,16,0,16,0,,,,,,,,,,,,,319.5708012999967,,,,,,,,,,319.56444010004634,320.0630452000187,,,1,0.8570498999906704,,,,,,,,,,,,None,None,,,,,,,,,,Schere,lustig,"['Schere', 'lustig']",restudy_diff,1,,,,,,319.5643748000148,319.5644140000222,"['Hammer', 'Lampe', 'Kiste', 'Ring', 'Vase', 'Stift', 'Trommel', 'Löffel', 'Kamera', 'Schlüssel', 'Buch', 'Kerze', 'Brille', 'Telefon', 'Würfel', 'Socke', 'Schere', 'Bürste', 'Tasche', 'Flasche', 'Hut', 'Geige', 'Kette']",320.0630555000389,320.06574300001375,None,320.0658617000445,320.06839369999943,None,320.06849660002626,326.075144500006,1,0.8570498999906704,None,326.07541990000755,326.0767250000499,326.0767374000279,326.07790940004634,,,,,,,,,,,,,,,,,,,,,,,,,,,,,,,,,,,,,,,,,,,,,,,,,,,1,2024-01-23_11h22.25.353,watkins1,2023.2.3,99.72973242216746,98,2024-01-23 11h22.39.609765 +0000,
,,,,,,,,,,,17,0,17,0,,,,,,,,,,,,,326.0846206000424,,,,,,,,,,326.0781801000121,326.57673990004696,,,1,1.09447569999611,,,,,,,,,,,,None,None,,,,,,,,,,Bürste,groß,"['Bürste', 'groß']",restudy_diff,1,,,,,,326.0781154000433,326.0781542000477,"['Hammer', 'Lampe', 'Kiste', 'Ring', 'Vase', 'Stift', 'Trommel', 'Löffel', 'Kamera', 'Schlüssel', 'Buch', 'Kerze', 'Brille', 'Telefon', 'Würfel', 'Socke', 'Schere', 'Bürste', 'Tasche', 'Flasche', 'Hut', 'Geige', 'Kette']",326.57675050001126,326.57940820005024,None,326.579526800022,326.58203910000157,None,326.5821436000406,332.5916075000423,1,1.09447569999611,None,332.59188190003624,332.59316590003436,332.5931780000101,332.5942069000448,,,,,,,,,,,,,,,,,,,,,,,,,,,,,,,,,,,,,,,,,,,,,,,,,,,1,2024-01-23_11h22.25.353,watkins1,2023.2.3,99.72973242216746,98,2024-01-23 11h22.39.609765 +0000,
,,,,,,,,,,,18,0,18,0,,,,,,,,,,,,,332.6011504000053,,,,,,,,,,332.59447660000296,333.09322130004875,,,1,1.0991606000461616,,,,,,,,,,,,None,None,,,,,,,,,,Tasche,lang,"['Tasche', 'lang']",restudy_diff,1,,,,,,332.59441220003646,332.59445100004086,"['Hammer', 'Lampe', 'Kiste', 'Ring', 'Vase', 'Stift', 'Trommel', 'Löffel', 'Kamera', 'Schlüssel', 'Buch', 'Kerze', 'Brille', 'Telefon', 'Würfel', 'Socke', 'Schere', 'Bürste', 'Tasche', 'Flasche', 'Hut', 'Geige', 'Kette']",333.09323150001,333.09587950003333,None,333.0960009000264,333.0983585000504,None,333.09846030001063,339.1066186000244,1,1.0991606000461616,None,339.1068995000096,339.10833449999336,339.10834700003034,339.1093986000051,,,,,,,,,,,,,,,,,,,,,,,,,,,,,,,,,,,,,,,,,,,,,,,,,,,1,2024-01-23_11h22.25.353,watkins1,2023.2.3,99.72973242216746,98,2024-01-23 11h22.39.609765 +0000,
,,,,,,,,,,,19,0,19,0,,,,,,,,,,,,,339.1160082000424,,,,,,,,,,339.1096748000127,339.60839639999904,,,[],[],,,,,,,,,,,,None,None,,,,,,,,,,Flasche,dick,"['Flasche', 'dick']",control,1,,,,,,339.1096099000424,339.1096485000453,"['Hammer', 'Lampe', 'Kiste', 'Ring', 'Vase', 'Stift', 'Trommel', 'Löffel', 'Kamera', 'Schlüssel', 'Buch', 'Kerze', 'Brille', 'Telefon', 'Würfel', 'Socke', 'Schere', 'Bürste', 'Tasche', 'Flasche', 'Hut', 'Geige', 'Kette']",339.6084082000307,345.61702930001775,1,345.6173092999961,345.61994900001446,None,345.62005610001506,345.62248090002686,None,,,345.62258409999777,345.62378510000417,345.6237967000343,345.62483889999567,2.0212774999672547,None,,,,,,,,,,,,,,,,,,,,,,,,,,,,,,,,,,,,,,,,,,,,,,,,,1,2024-01-23_11h22.25.353,watkins1,2023.2.3,99.72973242216746,98,2024-01-23 11h22.39.609765 +0000,
,,,,,,,,,,,20,0,20,0,,,,,,,,,,,,,345.62852319999365,,,,,,,,,,345.62511710001854,346.12155520002125,,,1,1.2653911999659613,,,,,,,,,,,,None,None,,,,,,,,,,Hut,niedlich,"['Hut', 'niedlich']",restudy_diff,1,,,,,,345.6250510000391,345.6250923000043,"['Hammer', 'Lampe', 'Kiste', 'Ring', 'Vase', 'Stift', 'Trommel', 'Löffel', 'Kamera', 'Schlüssel', 'Buch', 'Kerze', 'Brille', 'Telefon', 'Würfel', 'Socke', 'Schere', 'Bürste', 'Tasche', 'Flasche', 'Hut', 'Geige', 'Kette']",346.1215662000468,346.1230109000462,None,346.1231323000393,346.12442710000323,None,346.12453110003844,352.1308679000358,1,1.2653911999659613,None,352.1311474000104,352.1322871000157,352.13229910004884,352.13351410004543,,,,,,,,,,,,,,,,,,,,,,,,,,,,,,,,,,,,,,,,,,,,,,,,,,,1,2024-01-23_11h22.25.353,watkins1,2023.2.3,99.72973242216746,98,2024-01-23 11h22.39.609765 +0000,
,,,,,,,,,,,21,0,21,0,,,,,,,,,,,,,352.1403820000123,,,,,,,,,,352.1337851000135,352.6323427000316,,,1,1.3197538999957033,,,,,,,,,,,,None,None,,,,,,,,,,Geige,biegsam,"['Geige', 'biegsam']",restudy_diff,1,,,,,,352.1337202000432,352.1337592000491,"['Hammer', 'Lampe', 'Kiste', 'Ring', 'Vase', 'Stift', 'Trommel', 'Löffel', 'Kamera', 'Schlüssel', 'Buch', 'Kerze', 'Brille', 'Telefon', 'Würfel', 'Socke', 'Schere', 'Bürste', 'Tasche', 'Flasche', 'Hut', 'Geige', 'Kette']",352.63235309999436,352.6350583000458,None,352.63517610001145,352.6381350000156,None,352.63824050000403,358.6456864000065,1,1.3197538999957033,None,358.6459654000355,358.6472632000223,358.6472750999965,358.6484569000313,,,,,,,,,,,,,,,,,,,,,,,,,,,,,,,,,,,,,,,,,,,,,,,,,,,1,2024-01-23_11h22.25.353,watkins1,2023.2.3,99.72973242216746,98,2024-01-23 11h22.39.609765 +0000,
,,,,,,,,,,,22,0,22,0,,,,,,,,,,,,,358.6552242000471,,,,,,,,,,358.6487294000108,359.1473638000316,,,[],[],,,,,,,,,,,,None,None,,,,,,,,,,Kette,robust,"['Kette', 'robust']",control,1,,,,,,358.6486618000199,358.64870000001974,"['Hammer', 'Lampe', 'Kiste', 'Ring', 'Vase', 'Stift', 'Trommel', 'Löffel', 'Kamera', 'Schlüssel', 'Buch', 'Kerze', 'Brille', 'Telefon', 'Würfel', 'Socke', 'Schere', 'Bürste', 'Tasche', 'Flasche', 'Hut', 'Geige', 'Kette']",359.1473745999974,365.1531062000431,2,365.1533962000394,365.1560199999949,None,365.1561258000438,365.1586036999943,None,,,365.1587071000249,365.1598489000462,365.1598606000189,365.1610108000459,1.4906831000116654,None,,,,,,,,,,,,,,,,,,,,,,,,,,,,,,,,,,,,,,,,,,,,,,,,,1,2024-01-23_11h22.25.353,watkins1,2023.2.3,99.72973242216746,98,2024-01-23 11h22.39.609765 +0000,
,,,,,,,,,,,,,,,,,,,,,,,,,,,,,,,,,,,,,,,,,,,,,,,,,,,,,,,,,,,,,,,,,,,,,1,,,,,,,,,,,,,,,,,,,,,,,,,,,,,,,,,,,,,,,,,,,,,,,,,,,,,,,,,,,,,,,,,,,,,,,,,,1,2024-01-23_11h22.25.353,watkins1,2023.2.3,99.72973242216746,98,2024-01-23 11h22.39.609765 +0000,
(9 x 5) - 9 = 36 ,Correct,button_correct,,,,,,,,,,,,,0,0,0,4,,,,,,,,,387.5362708000466,,,,,,,,386.4892101000296,387.4932056000107,,,,,['button_correct'],[8.719083600037266],,,,,,,,,,,,,,,,,,,,,,,,,,distractorTask,1,,,,,,,,,,,,,,,,,,,,,,,,,,387.52041230001487,387.5362708000466,396.24476580001647,[0.34074074074074073],[-0.39166666666666666],[1],[0],[0],[8.719083600037266],['button_correct'],396.24545670003863,397.2484875000082,,,,,,,,,,,,,,,,,,,,,,,,,,,,,,,,,,,,,1,2024-01-23_11h22.25.353,watkins1,2023.2.3,99.72973242216746,98,2024-01-23 11h22.39.609765 +0000,
(4 : 2) + 4 = 6 ,Correct,button_correct,,,,,,,,,,,,,0,1,1,1,,,,,,,,,397.25848690001294,,,,,,,,,,,,,,['button_correct'],[4.33571169996867],,,,,,,,,,,,,,,,,,,,,,,,,,distractorTask,1,,,,,,,,,,,,,,,,,,,,,,,,,,397.24869199999375,397.25848690001294,401.5870974000427,[0.3333333333333333],[-0.39166666666666666],[1],[0],[0],[4.33571169996867],['button_correct'],401.58748610003386,402.5904942000052,,,,,,,,,,,,,,,,,,,,,,,,,,,,,,,,,,,,,1,2024-01-23_11h22.25.353,watkins1,2023.2.3,99.72973242216746,98,2024-01-23 11h22.39.609765 +0000,
(25 : 5) + 5 = 9 ,Incorrect,button_incorrect,,,,,,,,,,,,,0,2,2,6,,,,,,,,,402.6005062000477,,,,,,,,,,,,,,['button_incorrect'],[4.327114399988204],,,,,,,,,,,,,,,,,,,,,,,,,,distractorTask,1,,,,,,,,,,,,,,,,,,,,,,,,,,402.59068780002417,402.6005062000477,406.9195066000102,[-0.31666666666666665],[-0.39537037037037037],[1],[0],[0],[4.327114399988204],['button_incorrect'],406.91989120002836,407.9229389000102,,,,,,,,,,,,,,,,,,,,,,,,,,,,,,,,,,,,,1,2024-01-23_11h22.25.353,watkins1,2023.2.3,99.72973242216746,98,2024-01-23 11h22.39.609765 +0000,
(2 x 5) + 3 = 13 ,Correct,button_correct,,,,,,,,,,,,,0,3,3,2,,,,,,,,,407.9328752000001,,,,,,,,,,,,,,['button_correct'],[2.5186378000071272],,,,,,,,,,,,,,,,,,,,,,,,,,distractorTask,1,,,,,,,,,,,,,,,,,,,,,,,,,,407.9231379000121,407.9328752000001,410.4440950000426,[0.3148148148148148],[-0.38796296296296295],[1],[0],[0],[2.5186378000071272],['button_correct'],410.4444823000231,411.44786010001553,,,,,,,,,,,,,,,,,,,,,,,,,,,,,,,,,,,,,1,2024-01-23_11h22.25.353,watkins1,2023.2.3,99.72973242216746,98,2024-01-23 11h22.39.609765 +0000,
(7 x 6) + 9 = 48 ,Incorrect,button_incorrect,,,,,,,,,,,,,0,4,4,9,,,,,,,,,411.45784119999735,,,,,,,,,,,,,,['button_incorrect'],[17.89117630000692],,,,,,,,,,,,,,,,,,,,,,,,,,distractorTask,1,,,,,,,,,,,,,,,,,,,,,,,,,,411.44805120001547,411.45784119999735,429.3422034000396,[-0.3333333333333333],[-0.37962962962962965],[1],[0],[0],[17.89117630000692],['button_incorrect'],429.3425935000414,430.345820400049,,,,,,,,,,,,,,,,,,,,,,,,,,,,,,,,,,,,,1,2024-01-23_11h22.25.353,watkins1,2023.2.3,99.72973242216746,98,2024-01-23 11h22.39.609765 +0000,
(40 : 5) + 8 = 15 ,Incorrect,button_incorrect,,,,,,,,,,,,,0,5,5,7,,,,,,,,,430.3557970999973,,,,,,,,,,,,,,['button_incorrect'],[10.711331400030758],,,,,,,,,,,,,,,,,,,,,,,,,,distractorTask,1,,,,,,,,,,,,,,,,,,,,,,,,,,430.346055800037,430.3557970999973,441.05996620003134,[-0.32685185185185184],[-0.3768518518518518],[1],[0],[0],[10.711331400030758],['button_incorrect'],441.0603596000001,442.0636637000134,,,,,,,,,,,,,,,,,,,,,,,,,,,,,,,,,,,,,1,2024-01-23_11h22.25.353,watkins1,2023.2.3,99.72973242216746,98,2024-01-23 11h22.39.609765 +0000,
(80 : 10) + 9 = 17 ,Correct,button_correct,,,,,,,,,,,,,0,6,6,3,,,,,,,,,442.07364870002493,,,,,,,,,,,,,,['button_correct'],[3.59313709998969],,,,,,,,,,,,,,,,,,,,,,,,,,distractorTask,1,,,,,,,,,,,,,,,,,,,,,,,,,,442.06385740003316,442.07364870002493,445.65886950003915,[0.38055555555555554],[-0.4064814814814815],[1],[0],[0],[3.59313709998969],['button_correct'],445.65929770004004,446.66243710002163,,,,,,,,,,,,,,,,,,,,,,,,,,,,,,,,,,,,,1,2024-01-23_11h22.25.353,watkins1,2023.2.3,99.72973242216746,98,2024-01-23 11h22.39.609765 +0000,
(54 : 6) - 10 = 0 ,Incorrect,button_incorrect,,,,,,,,,,,,,0,7,7,5,,,,,,,,,446.67242980003357,,,,,,,,,,,,,,['button_incorrect'],[5.9928955000359565],,,,,,,,,,,,,,,,,,,,,,,,,,distractorTask,1,,,,,,,,,,,,,,,,,,,,,,,,,,446.6626299000345,446.67242980003357,452.6572551000281,[-0.3685185185185185],[-0.4046296296296296],[1],[0],[0],[5.9928955000359565],['button_incorrect'],452.6576443000231,453.6608184000361,,,,,,,,,,,,,,,,,,,,,,,,,,,,,,,,,,,,,1,2024-01-23_11h22.25.353,watkins1,2023.2.3,99.72973242216746,98,2024-01-23 11h22.39.609765 +0000,
(6 x 3) + 10 = 27 ,Incorrect,button_incorrect,,,,,,,,,,,,,0,8,8,8,,,,,,,,,453.6707989000133,,,,,,,,,,,,,,['button_incorrect'],[3.7436424999614246],,,,,,,,,,,,,,,,,,,,,,,,,,distractorTask,1,,,,,,,,,,,,,,,,,,,,,,,,,,453.6610127000022,453.6707989000133,457.40640870004427,[-0.2972222222222222],[-0.3925925925925926],[1],[0],[0],[3.7436424999614246],['button_incorrect'],457.4067952000187,458.40984999999637,,,,,,,,,,,,,,,,,,,,,,,,,,,,,,,,,,,,,1,2024-01-23_11h22.25.353,watkins1,2023.2.3,99.72973242216746,98,2024-01-23 11h22.39.609765 +0000,
(28 : 7) - 3 = 1 ,Correct,button_correct,,,,,,,,,,,,,0,9,9,0,,,,,,,,,458.4198986000265,,,,,,,,,,,,,,['button_correct'],[3.2319348000455648],,,,,,,,,,,,,,,,,,,,,,,,,,distractorTask,1,,,,,,,,,,,,,,,,,,,,,,,,,,458.41007520002313,458.4198986000265,461.64381650002906,[0.325],[-0.40370370370370373],[1],[0],[0],[3.2319348000455648],['button_correct'],461.64419870002894,462.64750000002095,,,,,,,,,,,,,,,,,,,,,,,,,,,,,,,,,,,,,1,2024-01-23_11h22.25.353,watkins1,2023.2.3,99.72973242216746,98,2024-01-23 11h22.39.609765 +0000,
,,,,,,,,,,,,,,,,,,,,,,,,,,,,,,,,,,,,,,,,,,,,,,,,,,,,,,,,,,,,,,,,,,,,,1,,,,,,,,,,,,,,,,,,,,,,,,,,,,,,,,,,,,,,,,,,,,,,,,,,,,,,,,,,,,,,,,,,,,,,,,,,1,2024-01-23_11h22.25.353,watkins1,2023.2.3,99.72973242216746,98,2024-01-23 11h22.39.609765 +0000,
,,,,,,,,,,,,,,,,,,,0,0,0,0,,,,,481.2910818000091,,,,,,,,,,,,,,,4.454938700015191,,,,,,,,,,,,4.467696200008504,None,,,,,,,,,,,,,freeRecallSub,1,,,,,,,,,,,,,,,,,,,,,,,,,,,,,,,,,,,,,,481.2824637000449,481.2910818000091,481.2910818000091,485.74974250001833,return,4.454938700015191,None,,[],[],[],[],[],[],[],,,,,,,,,,,,,,,,,,,,,,1,2024-01-23_11h22.25.353,watkins1,2023.2.3,99.72973242216746,98,2024-01-23 11h22.39.609765 +0000,
,,,,,,,,,,,,,,,,,,,1,0,1,0,,,,,485.7594150000368,,,,,,,,,,,,,,Hund,10.346804100030567,,,,,,,,,,,,7.157339199970011,8.131200599949807,,,,,,,,,,,,,freeRecallSub,1,,,,,,,,,,,,,,,,,,,,,,,,,,,,,,,,,,,,,,485.75149070000043,485.7594150000368,485.7594150000368,496.1119387000217,return,10.346804100030567,None,Hund,"[-0.07777777777777778, -0.058333333333333334, -0.7333333333333333]","[0.05925925925925926, 0.06759259259259259, 0.2898148148148148]","[1, 1, 1]","[0, 0, 0]","[0, 0, 0]","[2.3778672000044025, 4.285686899966095, 5.420117700006813]",[],,,,,,,,,,,,,,,,,,,,,,1,2024-01-23_11h22.25.353,watkins1,2023.2.3,99.72973242216746,98,2024-01-23 11h22.39.609765 +0000,
,,,,,,,,,,,,,,,,,,,2,0,2,0,,,,,496.1236850999994,,,,,,,,,,,,,,Katze,2.710480700014159,,,,,,,,,,,,0.8553749999846332,None,,,,,,,,,,,,,freeRecallSub,1,,,,,,,,,,,,,,,,,,,,,,,,,,,,,,,,,,,,,,496.1132975000073,496.1236850999994,496.1236850999994,498.83627600001637,return,2.710480700014159,None,Katze,[],[],[],[],[],[],[],,,,,,,,,,,,,,,,,,,,,,1,2024-01-23_11h22.25.353,watkins1,2023.2.3,99.72973242216746,98,2024-01-23 11h22.39.609765 +0000,
,,,,,,,,,,,,,,,,,,,3,0,3,0,,,,,498.84685100003844,,,,,,,,,,,,,,Rucksack,3.8352895000134595,,,,,,,,,,,,0.4014473000424914,None,,,,,,,,,,,,,freeRecallSub,1,,,,,,,,,,,,,,,,,,,,,,,,,,,,,,,,,,,,,,498.8375608000206,498.84685100003844,498.84685100003844,502.68327280000085,return,3.8352895000134595,None,Rucksack,[],[],[],[],[],[],[],,,,,,,,,,,,,,,,,,,,,,1,2024-01-23_11h22.25.353,watkins1,2023.2.3,99.72973242216746,98,2024-01-23 11h22.39.609765 +0000,
,,,,,,,,,,,,,,,,,,,4,0,4,0,,,,,502.6940566000412,,,,,,,,,,,,,,Brille,8.61207650002325,,,,,,,,,,,,6.867801799962763,None,,,,,,,,,,,,,freeRecallSub,1,,,,,,,,,,,,,,,,,,,,,,,,,,,,,,,,,,,,,,502.68454109999584,502.6940566000412,502.6940566000412,511.30989239999326,return,8.61207650002325,None,Brille,[],[],[],[],[],[],[],,,,,,,,,,,,,,,,,,,,,,1,2024-01-23_11h22.25.353,watkins1,2023.2.3,99.72973242216746,98,2024-01-23 11h22.39.609765 +0000,
,,,,,,,,,,,,,,,,,,,5,0,5,0,,,,,511.3208036000142,,,,,,,,,,,,,,Schere,2.1532817000406794,,,,,,,,,,,,0.321705500013195,None,,,,,,,,,,,,,freeRecallSub,1,,,,,,,,,,,,,,,,,,,,,,,,,,,,,,,,,,,,,,511.3111481000087,511.3208036000142,511.3208036000142,513.48042420001,return,2.1532817000406794,None,Schere,[],[],[],[],[],[],[],,,,,,,,,,,,,,,,,,,,,,1,2024-01-23_11h22.25.353,watkins1,2023.2.3,99.72973242216746,98,2024-01-23 11h22.39.609765 +0000,
,,,,,,,,,,,,,,,,,,,6,0,6,0,,,,,513.4912619999959,,,,,,,,,,,,,,Kerze,2.0069431999581866,,,,,,,,,,,,0.38214069994864985,None,,,,,,,,,,,,,freeRecallSub,1,,,,,,,,,,,,,,,,,,,,,,,,,,,,,,,,,,,,,,513.4816757999943,513.4912619999959,513.4912619999959,515.5003600000055,return,2.0069431999581866,None,Kerze,[],[],[],[],[],[],[],,,,,,,,,,,,,,,,,,,,,,1,2024-01-23_11h22.25.353,watkins1,2023.2.3,99.72973242216746,98,2024-01-23 11h22.39.609765 +0000,
,,,,,,,,,,,,,,,,,,,7,0,7,0,,,,,515.5111929000122,,,,,,,,,,,,,,Würfel,25.84297500003595,,,,,,,,,,,,22.293601299985312,None,,,,,,,,,,,,,freeRecallSub,1,,,,,,,,,,,,,,,,,,,,,,,,,,,,,,,,,,,,,,515.5016105000395,515.5111929000122,515.5111929000122,541.3600662000244,return,25.84297500003595,None,Würfel,[],[],[],[],[],[],[],,,,,,,,,,,,,,,,,,,,,,1,2024-01-23_11h22.25.353,watkins1,2023.2.3,99.72973242216746,98,2024-01-23 11h22.39.609765 +0000,
,,,,,,,,,,,,,,,,,,,8,0,8,0,,,,,541.3716445000027,,,,,,,,,,,,,,Eimer,15.150505199970212,,,,,,,,,,,,12.552650999976322,None,,,,,,,,,,,,,freeRecallSub,1,,,,,,,,,,,,,,,,,,,,,,,,,,,,,,,,,,,,,,541.3613258000114,541.3716445000027,541.3716445000027,556.5248695000191,return,15.150505199970212,None,Eimer,[],[],[],[],[],[],[],,,,,,,,,,,,,,,,,,,,,,1,2024-01-23_11h22.25.353,watkins1,2023.2.3,99.72973242216746,98,2024-01-23 11h22.39.609765 +0000,
,,,,,,,,,,,,,,,,,,,9,0,9,0,,,,,556.5366742000333,,,,,,,,,,,,,,Socke,3.889443800027948,,,,,,,,,,,,2.0504762000055052,None,,,,,,,,,,,,,freeRecallSub,1,,,,,,,,,,,,,,,,,,,,,,,,,,,,,,,,,,,,,,556.5261236000224,556.5366742000333,556.5366742000333,560.4339643000276,return,3.889443800027948,None,Socke,[],[],[],[],[],[],[],,,,,,,,,,,,,,,,,,,,,,1,2024-01-23_11h22.25.353,watkins1,2023.2.3,99.72973242216746,98,2024-01-23 11h22.39.609765 +0000,
,,,,,,,,,,,,,,,,,,,10,0,10,0,,,,,560.4457414000062,,,,,,,,,,,,,,Vase,37.10042739997152,,,,,,,,,,,,35.287033100030385,None,,,,,,,,,,,,,freeRecallSub,1,,,,,,,,,,,,,,,,,,,,,,,,,,,,,,,,,,,,,,560.4352245000191,560.4457414000062,560.4457414000062,597.5498398000491,return,37.10042739997152,None,Vase,[],[],[],[],[],[],[],,,,,,,,,,,,,,,,,,,,,,1,2024-01-23_11h22.25.353,watkins1,2023.2.3,99.72973242216746,98,2024-01-23 11h22.39.609765 +0000,
,,,,,,,,,,,,,,,,,,,11,0,11,0,,,,,597.5619524000213,,,,,,,,,,,,,,Löffel,8.888162999995984,,,,,,,,,,,,6.870447399967816,None,,,,,,,,,,,,,freeRecallSub,1,,,,,,,,,,,,,,,,,,,,,,,,,,,,,,,,,,,,,,597.5511254000012,597.5619524000213,597.5619524000213,606.4598385000136,return,8.888162999995984,None,Löffel,[],[],[],[],[],[],[],,,,,,,,,,,,,,,,,,,,,,1,2024-01-23_11h22.25.353,watkins1,2023.2.3,99.72973242216746,98,2024-01-23 11h22.39.609765 +0000,
,,,,,,,,,,,,,,,,,,,12,0,12,0,,,,,606.4722609000164,,,,,,,,,,,,,,Hut,31.490002800012007,,,,,,,,,,,,29.81671430001734,None,,,,,,,,,,,,,freeRecallSub,1,,,,,,,,,,,,,,,,,,,,,,,,,,,,,,,,,,,,,,606.4611105000367,606.4722609000164,606.4722609000164,637.9652432000148,return,31.490002800012007,None,Hut,[],[],[],[],[],[],[],,,,,,,,,,,,,,,,,,,,,,1,2024-01-23_11h22.25.353,watkins1,2023.2.3,99.72973242216746,98,2024-01-23 11h22.39.609765 +0000,
,,,,,,,,,,,,,,,,,,,13,0,13,0,,,,,637.9774750000215,,,,,,,,,,,,,,Jacke,17.48078640003223,,,,,,,,,,,,15.354907900036778,None,,,,,,,,,,,,,freeRecallSub,1,,,,,,,,,,,,,,,,,,,,,,,,,,,,,,,,,,,,,,637.9665188000072,637.9774750000215,637.9774750000215,655.4601673000143,return,17.48078640003223,None,Jacke,[],[],[],[],[],[],[],,,,,,,,,,,,,,,,,,,,,,1,2024-01-23_11h22.25.353,watkins1,2023.2.3,99.72973242216746,98,2024-01-23 11h22.39.609765 +0000,
,,,,,,,,,,,,,,,,,,,14,0,14,0,,,,,655.4730636000168,,,,,,,,,,,,,,Ring,7.817168600042351,,,,,,,,,,,,5.8887203999911435,None,,,,,,,,,,,,,freeRecallSub,1,,,,,,,,,,,,,,,,,,,,,,,,,,,,,,,,,,,,,,655.4614402000443,655.4730636000168,655.4730636000168,663.2978033000254,return,7.817168600042351,None,Ring,[],[],[],[],[],[],[],,,,,,,,,,,,,,,,,,,,,,1,2024-01-23_11h22.25.353,watkins1,2023.2.3,99.72973242216746,98,2024-01-23 11h22.39.609765 +0000,
,,,,,,,,,,,,,,,,,,,15,0,15,0,,,,,663.3108052000171,,,,,,,,,,,,,,Hammer,19.54738330002874,,,,,,,,,,,,17.816959899966605,None,,,,,,,,,,,,,freeRecallSub,1,,,,,,,,,,,,,,,,,,,,,,,,,,,,,,,,,,,,,,663.2990708000143,663.3108052000171,663.3108052000171,682.863455600047,return,19.54738330002874,None,Hammer,[],[],[],[],[],[],[],,,,,,,,,,,,,,,,,,,,,,1,2024-01-23_11h22.25.353,watkins1,2023.2.3,99.72973242216746,98,2024-01-23 11h22.39.609765 +0000,
,,,,,,,,,,,,,,,,,,,16,0,16,0,,,,,682.8759972000262,,,,,,,,,,,,,,Schachtel,81.05416709999554,,,,,,,,,,,,10.006021499983035,68.53502140002092,,,,,,,,,,,,,freeRecallSub,1,,,,,,,,,,,,,,,,,,,,,,,,,,,,,,,,,,,,,,682.8646946999943,682.8759972000262,682.8759972000262,763.9401298000012,return,81.05416709999554,None,Schachtel,[],[],[],[],[],[],[],,,,,,,,,,,,,,,,,,,,,,1,2024-01-23_11h22.25.353,watkins1,2023.2.3,99.72973242216746,98,2024-01-23 11h22.39.609765 +0000,
,,,,,,,,,,,,,,,,,,,17,0,17,0,,,,,763.9533254000125,,,,,,,,,,,,,,Stift,14.153030500048772,,,,,,,,,,,,10.015584699984174,None,,,,,,,,,,,,,freeRecallSub,1,,,,,,,,,,,,,,,,,,,,,,,,,,,,,,,,,,,,,,763.9414267000393,763.9533254000125,763.9533254000125,778.1144707000349,return,14.153030500048772,None,Stift,[],[],[],[],[],[],[],,,,,,,,,,,,,,,,,,,,,,1,2024-01-23_11h22.25.353,watkins1,2023.2.3,99.72973242216746,98,2024-01-23 11h22.39.609765 +0000,
,,,,,,,,,,,,,,,,,,,18,0,18,0,,,,,778.1278061000048,,,,,,,,,,,,,,,[],,,,,,,,,,,,None,None,,,,,,,,,,,,,freeRecallSub,1,,,,,,,,,,,,,,,,,,,,,,,,,,,,,,,,,,,,,,778.1157368000131,778.1278061000048,778.1278061000048,842.8367044000188,None,,,,[0.2388888888888889],[-0.39444444444444443],[1],[0],[0],[64.71507750003366],"['button_continue', 'continue_text']",,,,,,,,,,,,,,,,,,,,,,1,2024-01-23_11h22.25.353,watkins1,2023.2.3,99.72973242216746,98,2024-01-23 11h22.39.609765 +0000,
,,,,,,,,,,,,,,,,,,,,,,,,,,,,,,,,,,,,,,,,,,,,,,,,,,,,,,,,,,,,,,,,,,,,,1,,,,,,,,,,,,,,,,,,,,,,,,,,,,,,,,,,,,,,,,,,,,,,,,,,,,,,,,,,,,,,,,,,,,,,,,,,1,2024-01-23_11h22.25.353,watkins1,2023.2.3,99.72973242216746,98,2024-01-23 11h22.39.609765 +0000,
,,,,,,,,,,,,,,,,,,,,,,,0,0,0,0,870.4243905000039,,,,,,,,,,877.9181844000123,878.4165811000275,,,,7.4819239000207745,,,,,,,,,,,,None,None,,,,,,,,,,Blume,,,cuedRecallAdj,1,,,,,,,,,,,,,,,,,,,,,,,,,,,,,,,,,,,,,,,,,,,,,,,,,,,,,870.4153708000085,870.4243905000039,0,870.4243905000039,877.9149073000299,krumm,return,7.4819239000207745,None,877.9152971000294,877.9246251000441,877.9246251000441,877.9180326000205,,None,,,,,,,1,2024-01-23_11h22.25.353,watkins1,2023.2.3,99.72973242216746,98,2024-01-23 11h22.39.609765 +0000,
,,,,,,,,,,,,,,,,,,,,,,,1,0,1,0,878.4266249000211,,,,,,,,,,882.4058875000337,882.9046454000054,,,,3.967678499990143,,,,,,,,,,,,None,None,,,,,,,,,,Buch,,,cuedRecallAdj,1,,,,,,,,,,,,,,,,,,,,,,,,,,,,,,,,,,,,,,,,,,,,,,,,,,,,,878.4168249000213,878.4266249000211,0,878.4266249000211,882.4028718000045,kaputt,return,3.967678499990143,None,882.4031325000105,882.4126391000464,882.4126391000464,882.4057842000038,,None,,,,,,,1,2024-01-23_11h22.25.353,watkins1,2023.2.3,99.72973242216746,98,2024-01-23 11h22.39.609765 +0000,
,,,,,,,,,,,,,,,,,,,,,,,2,0,2,0,882.9145928000216,,,,,,,,,,888.1295309000416,888.6281443000189,,,,5.207814300025348,,,,,,,,,,,,None,None,,,,,,,,,,Tasse,,,cuedRecallAdj,1,,,,,,,,,,,,,,,,,,,,,,,,,,,,,,,,,,,,,,,,,,,,,,,,,,,,,882.9048815999995,882.9145928000216,0,882.9145928000216,888.1261926000006,elegant,return,5.207814300025348,None,888.1265386000159,888.1358073000447,888.1358073000447,888.1294309000368,,None,,,,,,,1,2024-01-23_11h22.25.353,watkins1,2023.2.3,99.72973242216746,98,2024-01-23 11h22.39.609765 +0000,
,,,,,,,,,,,,,,,,,,,,,,,3,0,3,0,888.6380874000024,,,,,,,,,,894.8065233000088,895.3049567000126,,,,6.15625999995973,,,,,,,,,,,,None,None,,,,,,,,,,Trommel,,,cuedRecallAdj,1,,,,,,,,,,,,,,,,,,,,,,,,,,,,,,,,,,,,,,,,,,,,,,,,,,,,,888.628386299999,888.6380874000024,0,888.6380874000024,894.8034322000458,nachhaltig,return,6.15625999995973,None,894.8036990000401,894.8131775000365,894.8131775000365,894.806420900044,,None,,,,,,,1,2024-01-23_11h22.25.353,watkins1,2023.2.3,99.72973242216746,98,2024-01-23 11h22.39.609765 +0000,
,,,,,,,,,,,,,,,,,,,,,,,4,0,4,0,895.3149064000463,,,,,,,,,,913.4996158000431,913.9910616000416,,,klein,10.80745449999813,,,,,,,,,,,,5.130094700027257,None,,,,,,,,,,Hut,,,cuedRecallAdj,1,,,,,,,,,,,,,,,,,,,,,,,,,,,,,,,,,,,,,,,,,,,,,,,,,,,,,895.3052069999976,895.3149064000463,0,895.3149064000463,906.1295515000238,schlicht,return,10.80745449999813,None,906.1298149000504,906.1390441000112,906.1390441000112,913.499252300011,klein,return,7.351439200050663,None,,,,,1,2024-01-23_11h22.25.353,watkins1,2023.2.3,99.72973242216746,98,2024-01-23 11h22.39.609765 +0000,
,,,,,,,,,,,,,,,,,,,,,,,5,0,5,0,914.0010174000054,,,,,,,,,,917.9504876999999,918.4488584999926,,,,3.9374168000067584,,,,,,,,,,,,None,None,,,,,,,,,,Rucksack,,,cuedRecallAdj,1,,,,,,,,,,,,,,,,,,,,,,,,,,,,,,,,,,,,,,,,,,,,,,,,,,,,,913.9913017000072,914.0010174000054,0,914.0010174000054,917.9471342000179,praktisch,return,3.9374168000067584,None,917.94739570003,917.9568839000422,917.9568839000422,917.9503872000496,,None,,,,,,,1,2024-01-23_11h22.25.353,watkins1,2023.2.3,99.72973242216746,98,2024-01-23 11h22.39.609765 +0000,
,,,,,,,,,,,,,,,,,,,,,,,6,0,6,0,918.458913200011,,,,,,,,,,923.7911658000085,924.2824159000302,,,teuer,3.6474144000094384,,,,,,,,,,,,0.6320150999817997,None,,,,,,,,,,Telefon,,,cuedRecallAdj,1,,,,,,,,,,,,,,,,,,,,,,,,,,,,,,,,,,,,,,,,,,,,,,,,,,,,,918.4491037999978,918.458913200011,0,918.458913200011,922.1138248000061,matt,return,3.6474144000094384,None,922.1140900000464,922.1236162999994,922.1236162999994,923.7909022000385,teuer,return,1.662838999996893,None,,,,,1,2024-01-23_11h22.25.353,watkins1,2023.2.3,99.72973242216746,98,2024-01-23 11h22.39.609765 +0000,
,,,,,,,,,,,,,,,,,,,,,,,7,0,7,0,924.2924671000219,,,,,,,,,,928.8846743000322,929.3831253999961,,,,4.581904000020586,,,,,,,,,,,,None,None,,,,,,,,,,Kiste,,,cuedRecallAdj,1,,,,,,,,,,,,,,,,,,,,,,,,,,,,,,,,,,,,,,,,,,,,,,,,,,,,,924.2826618000399,924.2924671000219,0,924.2924671000219,928.8815218000091,schwer,return,4.581904000020586,None,928.881777200033,928.8910759999999,928.8910759999999,928.8845757000381,,None,,,,,,,1,2024-01-23_11h22.25.353,watkins1,2023.2.3,99.72973242216746,98,2024-01-23 11h22.39.609765 +0000,
,,,,,,,,,,,,,,,,,,,,,,,8,0,8,0,929.3930177000002,,,,,,,,,,933.6240582000464,934.1225162000046,,,,4.225497999985237,,,,,,,,,,,,None,None,,,,,,,,,,Lampe,,,cuedRecallAdj,1,,,,,,,,,,,,,,,,,,,,,,,,,,,,,,,,,,,,,,,,,,,,,,,,,,,,,929.3833829000359,929.3930177000002,0,929.3930177000002,933.6208680000273,hässlich,return,4.225497999985237,None,933.6211326000048,933.6304800999933,933.6304800999933,933.6239560000249,,None,,,,,,,1,2024-01-23_11h22.25.353,watkins1,2023.2.3,99.72973242216746,98,2024-01-23 11h22.39.609765 +0000,
,,,,,,,,,,,,,,,,,,,,,,,9,0,9,0,934.1324588000425,,,,,,,,,,941.1314821999986,941.6229423000477,,,schmutzig,3.1019151999498717,,,,,,,,,,,,1.153936699964106,None,,,,,,,,,,Socke,,,cuedRecallAdj,1,,,,,,,,,,,,,,,,,,,,,,,,,,,,,,,,,,,,,,,,,,,,,,,,,,,,,934.1227618000121,934.1324588000425,0,934.1324588000425,937.2355142000015,winzig,return,3.1019151999498717,None,937.2357987000141,937.2450629000086,937.2450629000086,941.1312181000249,schmutzig,return,3.8774187000235543,None,,,,,1,2024-01-23_11h22.25.353,watkins1,2023.2.3,99.72973242216746,98,2024-01-23 11h22.39.609765 +0000,
,,,,,,,,,,,,,,,,,,,,,,,10,0,10,0,941.6328467000276,,,,,,,,,,949.3551170999999,949.8465499000158,,,bunt,6.06563130003633,,,,,,,,,,,,0.6821835999726318,None,,,,,,,,,,Ring,,,cuedRecallAdj,1,,,,,,,,,,,,,,,,,,,,,,,,,,,,,,,,,,,,,,,,,,,,,,,,,,,,,941.6231897000107,941.6328467000276,0,941.6328467000276,947.7080757000367,glänzend,return,6.06563130003633,None,947.7083388000028,947.7178333000047,947.7178333000047,949.3548598000198,bunt,return,1.6365209999494255,None,,,,,1,2024-01-23_11h22.25.353,watkins1,2023.2.3,99.72973242216746,98,2024-01-23 11h22.39.609765 +0000,
,,,,,,,,,,,,,,,,,,,,,,,11,0,11,0,949.8566035000258,,,,,,,,,,977.4087276000064,977.9001279000076,,,nützlich,4.185933100001421,,,,,,,,,,,,20.502289100026246,None,,,,,,,,,,Geige,,,cuedRecallAdj,1,,,,,,,,,,,,,,,,,,,,,,,,,,,,,,,,,,,,,,,,,,,,,,,,,,,,,949.8467908000457,949.8566035000258,0,949.8566035000258,954.0439327000058,biegsam,return,4.185933100001421,None,954.0441965000355,954.0534541000379,954.0534541000379,977.4084647000418,nützlich,return,23.348913500027265,None,,,,,1,2024-01-23_11h22.25.353,watkins1,2023.2.3,99.72973242216746,98,2024-01-23 11h22.39.609765 +0000,
,,,,,,,,,,,,,,,,,,,,,,,12,0,12,0,977.9100841000327,,,,,,,,,,985.7732800000231,986.2645466999966,,,lang,5.25229939998826,,,,,,,,,,,,1.364907699986361,None,,,,,,,,,,Löffel,,,cuedRecallAdj,1,,,,,,,,,,,,,,,,,,,,,,,,,,,,,,,,,,,,,,,,,,,,,,,,,,,,,977.900370300049,977.9100841000327,0,977.9100841000327,983.1716300999979,rustikal,return,5.25229939998826,None,983.1718843000126,983.1813262000214,983.1813262000214,985.7730187000125,lang,return,2.5890710999956354,None,,,,,1,2024-01-23_11h22.25.353,watkins1,2023.2.3,99.72973242216746,98,2024-01-23 11h22.39.609765 +0000,
,,,,,,,,,,,,,,,,,,,,,,,13,0,13,0,986.2744620000012,,,,,,,,,,1000.4222867000499,1000.9133692000178,,,hell,9.543946999998298,,,,,,,,,,,,3.603807699983008,None,,,,,,,,,,Stift,,,cuedRecallAdj,1,,,,,,,,,,,,,,,,,,,,,,,,,,,,,,,,,,,,,,,,,,,,,,,,,,,,,986.2647942000185,986.2744620000012,0,986.2744620000012,995.823455100006,glänzend,return,9.543946999998298,None,995.8237223000033,995.8330211000284,995.8330211000284,1000.422006400011,hell,return,4.585453400039114,None,,,,,1,2024-01-23_11h22.25.353,watkins1,2023.2.3,99.72973242216746,98,2024-01-23 11h22.39.609765 +0000,
,,,,,,,,,,,,,,,,,,,,,,,14,0,14,0,1000.9232749000075,,,,,,,,,,1005.3150602999958,1005.8138069999986,,,,4.383060500025749,,,,,,,,,,,,None,None,,,,,,,,,,Kerze,,,cuedRecallAdj,1,,,,,,,,,,,,,,,,,,,,,,,,,,,,,,,,,,,,,,,,,,,,,,,,,,,,,1000.9136179000488,1000.9232749000075,0,1000.9232749000075,1005.3118264999939,gepunktet,return,4.383060500025749,None,1005.3120879000053,1005.3214029000374,1005.3214029000374,1005.3149613999994,,None,,,,,,,1,2024-01-23_11h22.25.353,watkins1,2023.2.3,99.72973242216746,98,2024-01-23 11h22.39.609765 +0000,
,,,,,,,,,,,,,,,,,,,,,,,15,0,15,0,1005.8237227000063,,,,,,,,,,1010.7969930000254,1011.2959542000317,,,,4.962788999953773,,,,,,,,,,,,None,None,,,,,,,,,,Uhr,,,cuedRecallAdj,1,,,,,,,,,,,,,,,,,,,,,,,,,,,,,,,,,,,,,,,,,,,,,,,,,,,,,1005.8140582000487,1005.8237227000063,0,1005.8237227000063,1010.794209100015,kratzig,return,4.962788999953773,None,1010.7944689000142,1010.8038745000376,1010.8038745000376,1010.7968945000321,,None,,,,,,,1,2024-01-23_11h22.25.353,watkins1,2023.2.3,99.72973242216746,98,2024-01-23 11h22.39.609765 +0000,
,,,,,,,,,,,,,,,,,,,,,,,16,0,16,0,1011.3059987000306,,,,,,,,,,1016.8991411000025,1017.3905190000078,,,groß,2.9445122000179254,,,,,,,,,,,,0.5919737999793142,None,,,,,,,,,,Bürste,,,cuedRecallAdj,1,,,,,,,,,,,,,,,,,,,,,,,,,,,,,,,,,,,,,,,,,,,,,,,,,,,,,1011.2962013999932,1011.3059987000306,0,1011.3059987000306,1014.2581284000189,breit,return,2.9445122000179254,None,1014.2583888000227,1014.2678534000297,1014.2678534000297,1016.8988567000488,groß,return,2.630516599980183,None,,,,,1,2024-01-23_11h22.25.353,watkins1,2023.2.3,99.72973242216746,98,2024-01-23 11h22.39.609765 +0000,
,,,,,,,,,,,,,,,,,,,,,,,17,0,17,0,1017.4004435000243,,,,,,,,,,1031.9841664000414,1032.4824447000283,,,,14.578051900025457,,,,,,,,,,,,None,None,,,,,,,,,,Flasche,,,cuedRecallAdj,1,,,,,,,,,,,,,,,,,,,,,,,,,,,,,,,,,,,,,,,,,,,,,,,,,,,,,1017.3907670000335,1017.4004435000243,0,1017.4004435000243,1031.9808757000137,glatt,return,14.578051900025457,None,1031.981141700002,1031.9903615000076,1031.9903615000076,1031.9840653000283,,None,,,,,,,1,2024-01-23_11h22.25.353,watkins1,2023.2.3,99.72973242216746,98,2024-01-23 11h22.39.609765 +0000,
,,,,,,,,,,,,,,,,,,,,,,,18,0,18,0,1032.4924878000165,,,,,,,,,,1038.8490353000234,1039.3401245000423,,,nützlich,3.5660233999951743,,,,,,,,,,,,0.5315426000161096,None,,,,,,,,,,Hammer,,,cuedRecallAdj,1,,,,,,,,,,,,,,,,,,,,,,,,,,,,,,,,,,,,,,,,,,,,,,,,,,,,,1032.4826913000434,1032.4924878000165,0,1032.4924878000165,1036.0673249000101,schwer,return,3.5660233999951743,None,1036.067588200036,1036.0770469999989,1036.0770469999989,1038.8487708000466,nützlich,return,2.7654808999504894,None,,,,,1,2024-01-23_11h22.25.353,watkins1,2023.2.3,99.72973242216746,98,2024-01-23 11h22.39.609765 +0000,
,,,,,,,,,,,,,,,,,,,,,,,19,0,19,0,1039.3501850000466,,,,,,,,,,1048.4679069000413,1048.9593397999997,,,klein,4.052271900000051,,,,,,,,,,,,3.443266699963715,None,,,,,,,,,,Würfel,,,cuedRecallAdj,1,,,,,,,,,,,,,,,,,,,,,,,,,,,,,,,,,,,,,,,,,,,,,,,,,,,,,1039.340364600008,1039.3501850000466,0,1039.3501850000466,1043.4070107000298,durchsichtig,return,4.052271900000051,None,1043.407276700018,1043.416522500047,1043.416522500047,1048.4676443000208,klein,return,5.041943199990783,None,,,,,1,2024-01-23_11h22.25.353,watkins1,2023.2.3,99.72973242216746,98,2024-01-23 11h22.39.609765 +0000,
,,,,,,,,,,,,,,,,,,,,,,,20,0,20,0,1048.9693010000046,,,,,,,,,,1053.1098399000475,1053.608395999996,,,,4.129153999965638,,,,,,,,,,,,None,None,,,,,,,,,,Jacke,,,cuedRecallAdj,1,,,,,,,,,,,,,,,,,,,,,,,,,,,,,,,,,,,,,,,,,,,,,,,,,,,,,1048.9595808000304,1048.9693010000046,0,1048.9693010000046,1053.1065936000086,verspielt,return,4.129153999965638,None,1053.1068519999972,1053.116381800035,1053.116381800035,1053.1097408000496,,None,,,,,,,1,2024-01-23_11h22.25.353,watkins1,2023.2.3,99.72973242216746,98,2024-01-23 11h22.39.609765 +0000,
,,,,,,,,,,,,,,,,,,,,,,,21,0,21,0,1053.6183503000066,,,,,,,,,,1073.0576601999928,1073.5491959000356,,,nützlich,7.680113000038546,,,,,,,,,,,,9.146208500023931,None,,,,,,,,,,Tasche,,,cuedRecallAdj,1,,,,,,,,,,,,,,,,,,,,,,,,,,,,,,,,,,,,,,,,,,,,,,,,,,,,,1053.6086353000137,1053.6183503000066,0,1053.6183503000066,1061.3001126000308,lang,return,7.680113000038546,None,1061.3003761,1061.3096401999937,1061.3096401999937,1073.057390400034,nützlich,return,11.740859699959401,None,,,,,1,2024-01-23_11h22.25.353,watkins1,2023.2.3,99.72973242216746,98,2024-01-23 11h22.39.609765 +0000,
,,,,,,,,,,,,,,,,,,,,,,,22,0,22,0,1073.559146900021,,,,,,,,,,1081.0902310000383,1081.5815659000073,,,krumm,5.987369899987243,,,,,,,,,,,,0.49120419996324927,None,,,,,,,,,,Vase,,,cuedRecallAdj,1,,,,,,,,,,,,,,,,,,,,,,,,,,,,,,,,,,,,,,,,,,,,,,,,,,,,,1073.5494393000263,1073.559146900021,0,1073.559146900021,1079.553745500045,flach,return,5.987369899987243,None,1079.5540106000262,1079.5632260999992,1079.5632260999992,1081.089962500031,krumm,return,1.5193256000056863,None,,,,,1,2024-01-23_11h22.25.353,watkins1,2023.2.3,99.72973242216746,98,2024-01-23 11h22.39.609765 +0000,
,,,,,,,,,,,,,,,,,,,,,,,23,0,23,0,1081.5915140000288,,,,,,,,,,1085.2912482999964,1085.7894224000047,,,,3.6911475000088103,,,,,,,,,,,,None,None,,,,,,,,,,Fahrrad,,,cuedRecallAdj,1,,,,,,,,,,,,,,,,,,,,,,,,,,,,,,,,,,,,,,,,,,,,,,,,,,,,,1081.5818091999972,1081.5915140000288,0,1081.5915140000288,1085.2877729000174,hübsch,return,3.6911475000088103,None,1085.2880399000132,1085.2973432000144,1085.2973432000144,1085.29114570003,,None,,,,,,,1,2024-01-23_11h22.25.353,watkins1,2023.2.3,99.72973242216746,98,2024-01-23 11h22.39.609765 +0000,
,,,,,,,,,,,,,,,,,,,,,,,24,0,24,0,1085.7993507000501,,,,,,,,,,1092.2060431000427,1092.6975674999994,,,dunkel,2.7791771999909543,,,,,,,,,,,,2.358740800002124,None,,,,,,,,,,Kamera,,,cuedRecallAdj,1,,,,,,,,,,,,,,,,,,,,,,,,,,,,,,,,,,,,,,,,,,,,,,,,,,,,,1085.789664400043,1085.7993507000501,0,1085.7993507000501,1088.5811414000345,hohl,return,2.7791771999909543,None,1088.581397700007,1088.5906786000123,1088.5906786000123,1092.205770200002,dunkel,return,3.6118398000253364,None,,,,,1,2024-01-23_11h22.25.353,watkins1,2023.2.3,99.72973242216746,98,2024-01-23 11h22.39.609765 +0000,
,,,,,,,,,,,,,,,,,,,,,,,25,0,25,0,1092.70751940005,,,,,,,,,,1101.2938392000506,1101.7851082000416,,,lustig,4.430959199962672,,,,,,,,,,,,2.569943900045473,None,,,,,,,,,,Schere,,,cuedRecallAdj,1,,,,,,,,,,,,,,,,,,,,,,,,,,,,,,,,,,,,,,,,,,,,,,,,,,,,,1092.6978059000103,1092.70751940005,0,1092.70751940005,1097.1461229000124,gestreift,return,4.430959199962672,None,1097.146385500033,1097.1558074000059,1097.1558074000059,1101.293575400021,lustig,return,4.134650799969677,None,,,,,1,2024-01-23_11h22.25.353,watkins1,2023.2.3,99.72973242216746,98,2024-01-23 11h22.39.609765 +0000,
,,,,,,,,,,,,,,,,,,,,,,,26,0,26,0,1101.7950463000452,,,,,,,,,,1105.3730398000334,1105.8714419000316,,,,3.5675694000092335,,,,,,,,,,,,None,None,,,,,,,,,,Kette,,,cuedRecallAdj,1,,,,,,,,,,,,,,,,,,,,,,,,,,,,,,,,,,,,,,,,,,,,,,,,,,,,,1101.7853497000178,1101.7950463000452,0,1101.7950463000452,1105.3697899000254,robust,return,3.5675694000092335,None,1105.3700526000466,1105.3793684000266,1105.3793684000266,1105.3729375000112,,None,,,,,,,1,2024-01-23_11h22.25.353,watkins1,2023.2.3,99.72973242216746,98,2024-01-23 11h22.39.609765 +0000,
,,,,,,,,,,,,,,,,,,,,,,,27,0,27,0,1105.881387200032,,,,,,,,,,1110.1116183000267,1110.6103713000193,,,,4.225223999994341,,,,,,,,,,,,None,None,,,,,,,,,,Brille,,,cuedRecallAdj,1,,,,,,,,,,,,,,,,,,,,,,,,,,,,,,,,,,,,,,,,,,,,,,,,,,,,,1105.8716854000231,1105.881387200032,0,1105.881387200032,1110.1085884000058,flauschig,return,4.225223999994341,None,1110.1088560000062,1110.11813300004,1110.11813300004,1110.1115185000235,,None,,,,,,,1,2024-01-23_11h22.25.353,watkins1,2023.2.3,99.72973242216746,98,2024-01-23 11h22.39.609765 +0000,
,,,,,,,,,,,,,,,,,,,,,,,28,0,28,0,1110.6203713000286,,,,,,,,,,1116.594979400048,1117.0864094000426,,,alt,4.934219999995548,,,,,,,,,,,,0.35062020004261285,None,,,,,,,,,,Schlüssel,,,cuedRecallAdj,1,,,,,,,,,,,,,,,,,,,,,,,,,,,,,,,,,,,,,,,,,,,,,,,,,,,,,1110.6106170000276,1110.6203713000286,0,1110.6203713000286,1115.5608097999939,dunkel,return,4.934219999995548,None,1115.561075100035,1115.5703435000032,1115.5703435000032,1116.59471580002,alt,return,1.0161493999767117,None,,,,,1,2024-01-23_11h22.25.353,watkins1,2023.2.3,99.72973242216746,98,2024-01-23 11h22.39.609765 +0000,
,,,,,,,,,,,,,,,,,,,,,,,29,0,29,0,1117.0964569000062,,,,,,,,,,1122.2409965000115,1122.7392716000322,,,,5.1381733999587595,,,,,,,,,,,,None,None,,,,,,,,,,Eimer,,,cuedRecallAdj,1,,,,,,,,,,,,,,,,,,,,,,,,,,,,,,,,,,,,,,,,,,,,,,,,,,,,,1117.0866483999998,1117.0964569000062,0,1117.0964569000062,1122.2376506000292,schmutzig,return,5.1381733999587595,None,1122.2379169000196,1122.2472142000333,1122.2472142000333,1122.2408942000475,,None,,,,,,,1,2024-01-23_11h22.25.353,watkins1,2023.2.3,99.72973242216746,98,2024-01-23 11h22.39.609765 +0000,
,,,,,,,,,,,,,,,,,,,,,,,,,,,,,,,,,,,,,,,,,,,,,,,,,,,,,,,,,,,,,,,,,,,,,1,,,,,,,,,,,,,,,,,,,,,,,,,,,,,,,,,,,,,,,,,,,,,,,,,,,,,,,,,,,,,,,,,,,,,,1122.7554445000133,q,685.9035851000226,None,1,2024-01-23_11h22.25.353,watkins1,2023.2.3,99.72973242216746,98,2024-01-23 11h22.39.609765 +0000,
