Equation,CorrectResponse,Correctbutton,trials_7.thisRepN,trials_7.thisTrialN,trials_7.thisN,trials_7.thisIndex,trials.thisRepN,trials.thisTrialN,trials.thisN,trials.thisIndex,trials_3.thisRepN,trials_3.thisTrialN,trials_3.thisN,trials_3.thisIndex,trials_2.thisRepN,trials_2.thisTrialN,trials_2.thisN,trials_2.thisIndex,trials_4.thisRepN,trials_4.thisTrialN,trials_4.thisN,trials_4.thisIndex,trials_5.thisRepN,trials_5.thisTrialN,trials_5.thisN,trials_5.thisIndex,thisRow.t,notes,list_sub_restudy,list_sub_testsub,code_marius.started,code_marius.stopped,welcome.started,welcome.stopped,instruction_study.started,instruction_study.stopped,fixationcross.started,fixationcross.stopped,blanc.started,blanc.stopped,study_control_probe.started,study_control_probe.stopped,responseKey,responseTime,scale_answer_2.keys,study_control_probe_2.started,study_control_probe_2.stopped,scale_answer_3.keys,scale_answer_3.rt,scale_answer_3.duration,blanc_2.started,blanc_2.stopped,test_attr_probe.started,test_attr_probe.stopped,recalled_attr,firstKeyTime,secondWordTime,blanc_3.started,blanc_3.stopped,test_sub_probe.started,test_sub_probe.stopped,recalled_sub,instruction_probe_end.started,instruction_probe_end.stopped,study.started,study.stopped,substantive,adjective,wordpair,task,condition,liste_sub_phase1,liste_adj_phase1,scale_answer.keys,scale_answer.rt,scale_answer.duration,code_defineWordsInit.started,code_defineWordsInit.stopped,liste_sub_phase2,study_control.started,study_control.stopped,scale_answer_4.keys,restudy_same.started,restudy_same.stopped,scale_answer_5.keys,scale_answer_5.rt,scale_answer_5.duration,restudy_different.started,restudy_different.stopped,scale_answer_6.keys,test_attr.started,test_attr.stopped,test_sub.started,test_sub.stopped,correct,distractortask.started,equation_text.started,distractortask.stopped,mouse_answer.x,mouse_answer.y,mouse_answer.leftButton,mouse_answer.midButton,mouse_answer.rightButton,mouse_answer.time,mouse_answer.clicked_name,feedback_distractortask.started,feedback_distractortask.stopped,free_recall.started,text_enter.started,key_resp.started,free_recall.stopped,key_resp.keys,key_resp.rt,key_resp.duration,free_recalled_sub,mouse_continue.x,mouse_continue.y,mouse_continue.leftButton,mouse_continue.midButton,mouse_continue.rightButton,mouse_continue.time,mouse_continue.clicked_name,cued_recall.started,text_enter_2.started,key_continue.started,cued_recall.stopped,recalled_attr1,key_continue.keys,key_continue.rt,key_continue.duration,cued_recall_2.started,text_enter_3.started,key_continue_2.started,cued_recall_2.stopped,recalled_attr2,key_continue_2.keys,key_resp_8.started,key_resp_8.keys,key_resp_8.rt,key_resp_8.duration,condition,date,expName,psychopyVersion,frameRate,participant,expStart,
,,,,,,,,,,,,,,,,,,,,,,,,,,,,,"['Eimer', 'Hammer', 'Geige', 'Ring', 'Kamera', 'Tasse', 'Hut', 'Löffel', 'Würfel', 'Rucksack', 'Telefon', 'Schere', 'Uhr', 'Kiste', 'Blume']","['Jacke', 'Stift', 'Socke', 'Fahrrad', 'Bürste', 'Vase', 'Brille', 'Kette', 'Buch', 'Lampe', 'Trommel', 'Schlüssel', 'Kerze', 'Flasche', 'Tasche']",0.10649670008569956,0.10656549991108477,0.10657380009070039,15.934871100122109,,,,,,,,,,,,,,,,,,,,,,,,,,,,,,,,,,,,,2,,,,,,,,,,,,,,,,,,,,,,,,,,,,,,,,,,,,,,,,,,,,,,,,,,,,,,,,,,,,,,,,,,,,,,2,2023-11-27_09h18.42.637,watkins1,2023.2.3,99.69413828310383,13,2023-11-27 09h18.53.852235 +0000,
,,,,,,,,,,,,,,,,,,,,,,,,,,,,,,,,,,,15.934920100029558,64.93204639991745,,,,,,,,,,,,,,,,,,,,,,,,,,,,,,,,,,,2,,,,,,,,,,,,,,,,,,,,,,,,,,,,,,,,,,,,,,,,,,,,,,,,,,,,,,,,,,,,,,,,,,,,,,2,2023-11-27_09h18.42.637,watkins1,2023.2.3,99.69413828310383,13,2023-11-27 09h18.53.852235 +0000,
,,,0,0,0,0,,,,,,,,,,,,,,,,,,,,,65.94567129993811,,,,,,,,,,64.93206500005908,65.93558209994808,72.4351997000631,72.926599400118,66.42772529996,72.43503609998152,1,3.2819421000313014,None,72.92661099997349,78.93030599993654,1,3.2819421000313014,None,78.93060690001585,78.93063460011035,78.93064210005105,78.93072209996171,,3.2737237999681383,None,78.93088550004177,79.42180399992503,79.42181410011835,85.42691810010001,capslockhcapslocku,,,,,,,,,2,,,,,,,,,,,,,,,,,,,,,,,,,,,,,,,,,,,,,,,,,,,,,,,,,,,,,,,,,,,,,,,,,,,,,,2,2023-11-27_09h18.42.637,watkins1,2023.2.3,99.69413828310383,13,2023-11-27 09h18.53.852235 +0000,
,,,,,,,,,,,,,,,,,,,,,,,,,,,,,,,,,,,,,,,,,,,,,,,,,,,,,,,,,,,,,,,85.42707549990155,105.8709291999694,,,,,,,2,,,,,,,,,,,,,,,,,,,,,,,,,,,,,,,,,,,,,,,,,,,,,,,,,,,,,,,,,,,,,,,,,,,,,,2,2023-11-27_09h18.42.637,watkins1,2023.2.3,99.69413828310383,13,2023-11-27 09h18.53.852235 +0000,
,,,,,,,0,0,0,0,,,,,,,,,,,,,,,,,106.88461660011671,,,,,,,,,,105.87094769999385,106.87466310011223,106.87516209995374,107.36674460000359,,,2,3.3689097000751644,,,,,,,,,,,,,,,,,,,,,107.36675549997017,113.37603730009869,Schere,bunt,"['Schere', 'bunt']",restudy,2,"['Schere', 'Rucksack', 'Jacke', 'Uhr', 'Flasche', 'Stift', 'Ring', 'Buch', 'Hut', 'Kerze', 'Trommel', 'Blume', 'Fahrrad', 'Socke', 'Hammer', 'Brille', 'Kette', 'Vase', 'Kamera', 'Schlüssel', 'Tasse', 'Würfel', 'Bürste', 'Eimer', 'Löffel', 'Lampe', 'Tasche', 'Kiste', 'Geige', 'Telefon']",['bunt'],2,3.3689097000751644,None,,,,,,,,,,,,,,,,,,,,,,,,,,,,,,,,,,,,,,,,,,,,,,,,,,,,,,,,,,,,,,,,,2,2023-11-27_09h18.42.637,watkins1,2023.2.3,99.69413828310383,13,2023-11-27 09h18.53.852235 +0000,
,,,,,,,1,0,1,0,,,,,,,,,,,,,,,,,113.38550559990108,,,,,,,,,,,,113.37668980006129,113.86752100009471,,,None,[],,,,,,,,,,,,,,,,,,,,,113.86753099993803,119.87094300007448,Rucksack,hässlich,"['Rucksack', 'hässlich']",restudy,2,"['Schere', 'Rucksack', 'Jacke', 'Uhr', 'Flasche', 'Stift', 'Ring', 'Buch', 'Hut', 'Kerze', 'Trommel', 'Blume', 'Fahrrad', 'Socke', 'Hammer', 'Brille', 'Kette', 'Vase', 'Kamera', 'Schlüssel', 'Tasse', 'Würfel', 'Bürste', 'Eimer', 'Löffel', 'Lampe', 'Tasche', 'Kiste', 'Geige', 'Telefon']","['bunt', 'hässlich']",None,,,,,,,,,,,,,,,,,,,,,,,,,,,,,,,,,,,,,,,,,,,,,,,,,,,,,,,,,,,,,,,,,,,2,2023-11-27_09h18.42.637,watkins1,2023.2.3,99.69413828310383,13,2023-11-27 09h18.53.852235 +0000,
,,,,,,,2,0,2,0,,,,,,,,,,,,,,,,,119.88042140007019,,,,,,,,,,,,119.87133010011166,120.36249339999631,,,3,3.9183552998583764,,,,,,,,,,,,,,,,,,,,,120.36250360007398,126.3665817999281,Jacke,neu,"['Jacke', 'neu']",test_sub,2,"['Schere', 'Rucksack', 'Jacke', 'Uhr', 'Flasche', 'Stift', 'Ring', 'Buch', 'Hut', 'Kerze', 'Trommel', 'Blume', 'Fahrrad', 'Socke', 'Hammer', 'Brille', 'Kette', 'Vase', 'Kamera', 'Schlüssel', 'Tasse', 'Würfel', 'Bürste', 'Eimer', 'Löffel', 'Lampe', 'Tasche', 'Kiste', 'Geige', 'Telefon']","['bunt', 'hässlich', 'neu']",3,3.9183552998583764,None,,,,,,,,,,,,,,,,,,,,,,,,,,,,,,,,,,,,,,,,,,,,,,,,,,,,,,,,,,,,,,,,,2,2023-11-27_09h18.42.637,watkins1,2023.2.3,99.69413828310383,13,2023-11-27 09h18.53.852235 +0000,
,,,,,,,3,0,3,0,,,,,,,,,,,,,,,,,126.37605320010334,,,,,,,,,,,,126.36711010010913,126.85795630002394,,,2,3.206783600151539,,,,,,,,,,,,,,,,,,,,,126.85796659998596,132.8594058000017,Uhr,hübsch,"['Uhr', 'hübsch']",restudy,2,"['Schere', 'Rucksack', 'Jacke', 'Uhr', 'Flasche', 'Stift', 'Ring', 'Buch', 'Hut', 'Kerze', 'Trommel', 'Blume', 'Fahrrad', 'Socke', 'Hammer', 'Brille', 'Kette', 'Vase', 'Kamera', 'Schlüssel', 'Tasse', 'Würfel', 'Bürste', 'Eimer', 'Löffel', 'Lampe', 'Tasche', 'Kiste', 'Geige', 'Telefon']","['bunt', 'hässlich', 'neu', 'hübsch']",2,3.206783600151539,None,,,,,,,,,,,,,,,,,,,,,,,,,,,,,,,,,,,,,,,,,,,,,,,,,,,,,,,,,,,,,,,,,2,2023-11-27_09h18.42.637,watkins1,2023.2.3,99.69413828310383,13,2023-11-27 09h18.53.852235 +0000,
,,,,,,,4,0,4,0,,,,,,,,,,,,,,,,,132.86893100012094,,,,,,,,,,,,132.8599324999377,133.35104930005036,,,1,4.578003800008446,,,,,,,,,,,,,,,,,,,,,133.35105880000629,139.35287930001505,Flasche,schlicht,"['Flasche', 'schlicht']",test_sub,2,"['Schere', 'Rucksack', 'Jacke', 'Uhr', 'Flasche', 'Stift', 'Ring', 'Buch', 'Hut', 'Kerze', 'Trommel', 'Blume', 'Fahrrad', 'Socke', 'Hammer', 'Brille', 'Kette', 'Vase', 'Kamera', 'Schlüssel', 'Tasse', 'Würfel', 'Bürste', 'Eimer', 'Löffel', 'Lampe', 'Tasche', 'Kiste', 'Geige', 'Telefon']","['bunt', 'hässlich', 'neu', 'hübsch', 'schlicht']",1,4.578003800008446,None,,,,,,,,,,,,,,,,,,,,,,,,,,,,,,,,,,,,,,,,,,,,,,,,,,,,,,,,,,,,,,,,,2,2023-11-27_09h18.42.637,watkins1,2023.2.3,99.69413828310383,13,2023-11-27 09h18.53.852235 +0000,
,,,,,,,5,0,5,0,,,,,,,,,,,,,,,,,139.36240620003082,,,,,,,,,,,,139.3534075000789,139.84449569997378,,,3,4.668110700091347,,,,,,,,,,,,,,,,,,,,,139.84450570004992,145.84721080004238,Stift,glatt,"['Stift', 'glatt']",test_sub,2,"['Schere', 'Rucksack', 'Jacke', 'Uhr', 'Flasche', 'Stift', 'Ring', 'Buch', 'Hut', 'Kerze', 'Trommel', 'Blume', 'Fahrrad', 'Socke', 'Hammer', 'Brille', 'Kette', 'Vase', 'Kamera', 'Schlüssel', 'Tasse', 'Würfel', 'Bürste', 'Eimer', 'Löffel', 'Lampe', 'Tasche', 'Kiste', 'Geige', 'Telefon']","['bunt', 'hässlich', 'neu', 'hübsch', 'schlicht', 'glatt']",3,4.668110700091347,None,,,,,,,,,,,,,,,,,,,,,,,,,,,,,,,,,,,,,,,,,,,,,,,,,,,,,,,,,,,,,,,,,2,2023-11-27_09h18.42.637,watkins1,2023.2.3,99.69413828310383,13,2023-11-27 09h18.53.852235 +0000,
,,,,,,,6,0,6,0,,,,,,,,,,,,,,,,,145.85668929992244,,,,,,,,,,,,145.84774379990995,146.33876700000837,,,2,3.174971600063145,,,,,,,,,,,,,,,,,,,,,146.3387772999704,152.34798420011066,Ring,hohl,"['Ring', 'hohl']",restudy,2,"['Schere', 'Rucksack', 'Jacke', 'Uhr', 'Flasche', 'Stift', 'Ring', 'Buch', 'Hut', 'Kerze', 'Trommel', 'Blume', 'Fahrrad', 'Socke', 'Hammer', 'Brille', 'Kette', 'Vase', 'Kamera', 'Schlüssel', 'Tasse', 'Würfel', 'Bürste', 'Eimer', 'Löffel', 'Lampe', 'Tasche', 'Kiste', 'Geige', 'Telefon']","['bunt', 'hässlich', 'neu', 'hübsch', 'schlicht', 'glatt', 'hohl']",2,3.174971600063145,None,,,,,,,,,,,,,,,,,,,,,,,,,,,,,,,,,,,,,,,,,,,,,,,,,,,,,,,,,,,,,,,,,2,2023-11-27_09h18.42.637,watkins1,2023.2.3,99.69413828310383,13,2023-11-27 09h18.53.852235 +0000,
,,,,,,,7,0,7,0,,,,,,,,,,,,,,,,,152.35756130004302,,,,,,,,,,,,152.34851050004363,152.83959729992785,,,1,4.672942599980161,,,,,,,,,,,,,,,,,,,,,152.8396076001227,158.84296409995295,Buch,kratzig,"['Buch', 'kratzig']",test_sub,2,"['Schere', 'Rucksack', 'Jacke', 'Uhr', 'Flasche', 'Stift', 'Ring', 'Buch', 'Hut', 'Kerze', 'Trommel', 'Blume', 'Fahrrad', 'Socke', 'Hammer', 'Brille', 'Kette', 'Vase', 'Kamera', 'Schlüssel', 'Tasse', 'Würfel', 'Bürste', 'Eimer', 'Löffel', 'Lampe', 'Tasche', 'Kiste', 'Geige', 'Telefon']","['bunt', 'hässlich', 'neu', 'hübsch', 'schlicht', 'glatt', 'hohl', 'kratzig']",1,4.672942599980161,None,,,,,,,,,,,,,,,,,,,,,,,,,,,,,,,,,,,,,,,,,,,,,,,,,,,,,,,,,,,,,,,,,2,2023-11-27_09h18.42.637,watkins1,2023.2.3,99.69413828310383,13,2023-11-27 09h18.53.852235 +0000,
,,,,,,,8,0,8,0,,,,,,,,,,,,,,,,,158.85239439993165,,,,,,,,,,,,158.84349630004726,159.3347223000601,,,1,5.514200599864125,,,,,,,,,,,,,,,,,,,,,159.33473300002515,165.3373521999456,Hut,nass,"['Hut', 'nass']",restudy,2,"['Schere', 'Rucksack', 'Jacke', 'Uhr', 'Flasche', 'Stift', 'Ring', 'Buch', 'Hut', 'Kerze', 'Trommel', 'Blume', 'Fahrrad', 'Socke', 'Hammer', 'Brille', 'Kette', 'Vase', 'Kamera', 'Schlüssel', 'Tasse', 'Würfel', 'Bürste', 'Eimer', 'Löffel', 'Lampe', 'Tasche', 'Kiste', 'Geige', 'Telefon']","['bunt', 'hässlich', 'neu', 'hübsch', 'schlicht', 'glatt', 'hohl', 'kratzig', 'nass']",1,5.514200599864125,None,,,,,,,,,,,,,,,,,,,,,,,,,,,,,,,,,,,,,,,,,,,,,,,,,,,,,,,,,,,,,,,,,2,2023-11-27_09h18.42.637,watkins1,2023.2.3,99.69413828310383,13,2023-11-27 09h18.53.852235 +0000,
,,,,,,,9,0,9,0,,,,,,,,,,,,,,,,,165.3468643000815,,,,,,,,,,,,165.33787630009465,165.82889109989628,,,3,5.596286699874327,,,,,,,,,,,,,,,,,,,,,165.8289012000896,171.83025550004095,Kerze,sauber,"['Kerze', 'sauber']",test_sub,2,"['Schere', 'Rucksack', 'Jacke', 'Uhr', 'Flasche', 'Stift', 'Ring', 'Buch', 'Hut', 'Kerze', 'Trommel', 'Blume', 'Fahrrad', 'Socke', 'Hammer', 'Brille', 'Kette', 'Vase', 'Kamera', 'Schlüssel', 'Tasse', 'Würfel', 'Bürste', 'Eimer', 'Löffel', 'Lampe', 'Tasche', 'Kiste', 'Geige', 'Telefon']","['bunt', 'hässlich', 'neu', 'hübsch', 'schlicht', 'glatt', 'hohl', 'kratzig', 'nass', 'sauber']",3,5.596286699874327,None,,,,,,,,,,,,,,,,,,,,,,,,,,,,,,,,,,,,,,,,,,,,,,,,,,,,,,,,,,,,,,,,,2,2023-11-27_09h18.42.637,watkins1,2023.2.3,99.69413828310383,13,2023-11-27 09h18.53.852235 +0000,
,,,,,,,10,0,10,0,,,,,,,,,,,,,,,,,171.839703500038,,,,,,,,,,,,171.8307781999465,172.3218104999978,,,1,3.8950425998773426,,,,,,,,,,,,,,,,,,,,,172.32182079995982,178.3311397000216,Trommel,lang,"['Trommel', 'lang']",test_sub,2,"['Schere', 'Rucksack', 'Jacke', 'Uhr', 'Flasche', 'Stift', 'Ring', 'Buch', 'Hut', 'Kerze', 'Trommel', 'Blume', 'Fahrrad', 'Socke', 'Hammer', 'Brille', 'Kette', 'Vase', 'Kamera', 'Schlüssel', 'Tasse', 'Würfel', 'Bürste', 'Eimer', 'Löffel', 'Lampe', 'Tasche', 'Kiste', 'Geige', 'Telefon']","['bunt', 'hässlich', 'neu', 'hübsch', 'schlicht', 'glatt', 'hohl', 'kratzig', 'nass', 'sauber', 'lang']",1,3.8950425998773426,None,,,,,,,,,,,,,,,,,,,,,,,,,,,,,,,,,,,,,,,,,,,,,,,,,,,,,,,,,,,,,,,,,2,2023-11-27_09h18.42.637,watkins1,2023.2.3,99.69413828310383,13,2023-11-27 09h18.53.852235 +0000,
,,,,,,,11,0,11,0,,,,,,,,,,,,,,,,,178.34055970003828,,,,,,,,,,,,178.33166210004129,178.82270459993742,,,2,4.114982699975371,,,,,,,,,,,,,,,,,,,,,178.82271540001966,184.83142339996994,Blume,zart,"['Blume', 'zart']",restudy,2,"['Schere', 'Rucksack', 'Jacke', 'Uhr', 'Flasche', 'Stift', 'Ring', 'Buch', 'Hut', 'Kerze', 'Trommel', 'Blume', 'Fahrrad', 'Socke', 'Hammer', 'Brille', 'Kette', 'Vase', 'Kamera', 'Schlüssel', 'Tasse', 'Würfel', 'Bürste', 'Eimer', 'Löffel', 'Lampe', 'Tasche', 'Kiste', 'Geige', 'Telefon']","['bunt', 'hässlich', 'neu', 'hübsch', 'schlicht', 'glatt', 'hohl', 'kratzig', 'nass', 'sauber', 'lang', 'zart']",2,4.114982699975371,None,,,,,,,,,,,,,,,,,,,,,,,,,,,,,,,,,,,,,,,,,,,,,,,,,,,,,,,,,,,,,,,,,2,2023-11-27_09h18.42.637,watkins1,2023.2.3,99.69413828310383,13,2023-11-27 09h18.53.852235 +0000,
,,,,,,,12,0,12,0,,,,,,,,,,,,,,,,,184.84090379998088,,,,,,,,,,,,184.83194760000333,185.32294810004532,,,3,2.924652799963951,,,,,,,,,,,,,,,,,,,,,185.32295840000734,191.33216389990412,Fahrrad,nachhaltig,"['Fahrrad', 'nachhaltig']",test_sub,2,"['Schere', 'Rucksack', 'Jacke', 'Uhr', 'Flasche', 'Stift', 'Ring', 'Buch', 'Hut', 'Kerze', 'Trommel', 'Blume', 'Fahrrad', 'Socke', 'Hammer', 'Brille', 'Kette', 'Vase', 'Kamera', 'Schlüssel', 'Tasse', 'Würfel', 'Bürste', 'Eimer', 'Löffel', 'Lampe', 'Tasche', 'Kiste', 'Geige', 'Telefon']","['bunt', 'hässlich', 'neu', 'hübsch', 'schlicht', 'glatt', 'hohl', 'kratzig', 'nass', 'sauber', 'lang', 'zart', 'nachhaltig']",3,2.924652799963951,None,,,,,,,,,,,,,,,,,,,,,,,,,,,,,,,,,,,,,,,,,,,,,,,,,,,,,,,,,,,,,,,,,2,2023-11-27_09h18.42.637,watkins1,2023.2.3,99.69413828310383,13,2023-11-27 09h18.53.852235 +0000,
,,,,,,,13,0,13,0,,,,,,,,,,,,,,,,,191.34159859991632,,,,,,,,,,,,191.33269859990105,191.8237749999389,,,1,4.321713399840519,,,,,,,,,,,,,,,,,,,,,191.82378549990244,197.83074810006656,Socke,breit,"['Socke', 'breit']",test_sub,2,"['Schere', 'Rucksack', 'Jacke', 'Uhr', 'Flasche', 'Stift', 'Ring', 'Buch', 'Hut', 'Kerze', 'Trommel', 'Blume', 'Fahrrad', 'Socke', 'Hammer', 'Brille', 'Kette', 'Vase', 'Kamera', 'Schlüssel', 'Tasse', 'Würfel', 'Bürste', 'Eimer', 'Löffel', 'Lampe', 'Tasche', 'Kiste', 'Geige', 'Telefon']","['bunt', 'hässlich', 'neu', 'hübsch', 'schlicht', 'glatt', 'hohl', 'kratzig', 'nass', 'sauber', 'lang', 'zart', 'nachhaltig', 'breit']",1,4.321713399840519,None,,,,,,,,,,,,,,,,,,,,,,,,,,,,,,,,,,,,,,,,,,,,,,,,,,,,,,,,,,,,,,,,,2,2023-11-27_09h18.42.637,watkins1,2023.2.3,99.69413828310383,13,2023-11-27 09h18.53.852235 +0000,
,,,,,,,14,0,14,0,,,,,,,,,,,,,,,,,197.8402130000759,,,,,,,,,,,,197.83128889999352,198.32228929991834,,,3,4.319068200187758,,,,,,,,,,,,,,,,,,,,,198.32229909999296,204.3261239998974,Hammer,niedlich,"['Hammer', 'niedlich']",restudy,2,"['Schere', 'Rucksack', 'Jacke', 'Uhr', 'Flasche', 'Stift', 'Ring', 'Buch', 'Hut', 'Kerze', 'Trommel', 'Blume', 'Fahrrad', 'Socke', 'Hammer', 'Brille', 'Kette', 'Vase', 'Kamera', 'Schlüssel', 'Tasse', 'Würfel', 'Bürste', 'Eimer', 'Löffel', 'Lampe', 'Tasche', 'Kiste', 'Geige', 'Telefon']","['bunt', 'hässlich', 'neu', 'hübsch', 'schlicht', 'glatt', 'hohl', 'kratzig', 'nass', 'sauber', 'lang', 'zart', 'nachhaltig', 'breit', 'niedlich']",3,4.319068200187758,None,,,,,,,,,,,,,,,,,,,,,,,,,,,,,,,,,,,,,,,,,,,,,,,,,,,,,,,,,,,,,,,,,2,2023-11-27_09h18.42.637,watkins1,2023.2.3,99.69413828310383,13,2023-11-27 09h18.53.852235 +0000,
,,,,,,,15,0,15,0,,,,,,,,,,,,,,,,,204.33564790012315,,,,,,,,,,,,204.3266628999263,204.81764489994384,,,2,3.0240462999790907,,,,,,,,,,,,,,,,,,,,,204.81765539990738,210.81944180000573,Brille,kurz,"['Brille', 'kurz']",test_sub,2,"['Schere', 'Rucksack', 'Jacke', 'Uhr', 'Flasche', 'Stift', 'Ring', 'Buch', 'Hut', 'Kerze', 'Trommel', 'Blume', 'Fahrrad', 'Socke', 'Hammer', 'Brille', 'Kette', 'Vase', 'Kamera', 'Schlüssel', 'Tasse', 'Würfel', 'Bürste', 'Eimer', 'Löffel', 'Lampe', 'Tasche', 'Kiste', 'Geige', 'Telefon']","['bunt', 'hässlich', 'neu', 'hübsch', 'schlicht', 'glatt', 'hohl', 'kratzig', 'nass', 'sauber', 'lang', 'zart', 'nachhaltig', 'breit', 'niedlich', 'kurz']",2,3.0240462999790907,None,,,,,,,,,,,,,,,,,,,,,,,,,,,,,,,,,,,,,,,,,,,,,,,,,,,,,,,,,,,,,,,,,2,2023-11-27_09h18.42.637,watkins1,2023.2.3,99.69413828310383,13,2023-11-27 09h18.53.852235 +0000,
,,,,,,,16,0,16,0,,,,,,,,,,,,,,,,,210.8289624999743,,,,,,,,,,,,210.8199513000436,211.31103110010736,,,1,3.35431810002774,,,,,,,,,,,,,,,,,,,,,211.31104100006633,217.32046529999934,Kette,flauschig,"['Kette', 'flauschig']",test_sub,2,"['Schere', 'Rucksack', 'Jacke', 'Uhr', 'Flasche', 'Stift', 'Ring', 'Buch', 'Hut', 'Kerze', 'Trommel', 'Blume', 'Fahrrad', 'Socke', 'Hammer', 'Brille', 'Kette', 'Vase', 'Kamera', 'Schlüssel', 'Tasse', 'Würfel', 'Bürste', 'Eimer', 'Löffel', 'Lampe', 'Tasche', 'Kiste', 'Geige', 'Telefon']","['bunt', 'hässlich', 'neu', 'hübsch', 'schlicht', 'glatt', 'hohl', 'kratzig', 'nass', 'sauber', 'lang', 'zart', 'nachhaltig', 'breit', 'niedlich', 'kurz', 'flauschig']",1,3.35431810002774,None,,,,,,,,,,,,,,,,,,,,,,,,,,,,,,,,,,,,,,,,,,,,,,,,,,,,,,,,,,,,,,,,,2,2023-11-27_09h18.42.637,watkins1,2023.2.3,99.69413828310383,13,2023-11-27 09h18.53.852235 +0000,
,,,,,,,17,0,17,0,,,,,,,,,,,,,,,,,217.32992239994928,,,,,,,,,,,,217.32098449999467,217.81206899997778,,,3,3.396615399979055,,,,,,,,,,,,,,,,,,,,,217.81207940005697,223.82132319989614,Vase,gestreift,"['Vase', 'gestreift']",test_sub,2,"['Schere', 'Rucksack', 'Jacke', 'Uhr', 'Flasche', 'Stift', 'Ring', 'Buch', 'Hut', 'Kerze', 'Trommel', 'Blume', 'Fahrrad', 'Socke', 'Hammer', 'Brille', 'Kette', 'Vase', 'Kamera', 'Schlüssel', 'Tasse', 'Würfel', 'Bürste', 'Eimer', 'Löffel', 'Lampe', 'Tasche', 'Kiste', 'Geige', 'Telefon']","['bunt', 'hässlich', 'neu', 'hübsch', 'schlicht', 'glatt', 'hohl', 'kratzig', 'nass', 'sauber', 'lang', 'zart', 'nachhaltig', 'breit', 'niedlich', 'kurz', 'flauschig', 'gestreift']",3,3.396615399979055,None,,,,,,,,,,,,,,,,,,,,,,,,,,,,,,,,,,,,,,,,,,,,,,,,,,,,,,,,,,,,,,,,,2,2023-11-27_09h18.42.637,watkins1,2023.2.3,99.69413828310383,13,2023-11-27 09h18.53.852235 +0000,
,,,,,,,18,0,18,0,,,,,,,,,,,,,,,,,223.83081170008518,,,,,,,,,,,,223.82184659992345,224.31286949990317,,,3,3.680602400097996,,,,,,,,,,,,,,,,,,,,,224.3128802999854,230.31672309990972,Kamera,blass,"['Kamera', 'blass']",restudy,2,"['Schere', 'Rucksack', 'Jacke', 'Uhr', 'Flasche', 'Stift', 'Ring', 'Buch', 'Hut', 'Kerze', 'Trommel', 'Blume', 'Fahrrad', 'Socke', 'Hammer', 'Brille', 'Kette', 'Vase', 'Kamera', 'Schlüssel', 'Tasse', 'Würfel', 'Bürste', 'Eimer', 'Löffel', 'Lampe', 'Tasche', 'Kiste', 'Geige', 'Telefon']","['bunt', 'hässlich', 'neu', 'hübsch', 'schlicht', 'glatt', 'hohl', 'kratzig', 'nass', 'sauber', 'lang', 'zart', 'nachhaltig', 'breit', 'niedlich', 'kurz', 'flauschig', 'gestreift', 'blass']",3,3.680602400097996,None,,,,,,,,,,,,,,,,,,,,,,,,,,,,,,,,,,,,,,,,,,,,,,,,,,,,,,,,,,,,,,,,,2,2023-11-27_09h18.42.637,watkins1,2023.2.3,99.69413828310383,13,2023-11-27 09h18.53.852235 +0000,
,,,,,,,19,0,19,0,,,,,,,,,,,,,,,,,230.32616510009393,,,,,,,,,,,,230.31724649993703,230.8083387000952,,,1,3.744225700153038,,,,,,,,,,,,,,,,,,,,,230.80834860005416,236.80926829995587,Schlüssel,groß,"['Schlüssel', 'groß']",test_sub,2,"['Schere', 'Rucksack', 'Jacke', 'Uhr', 'Flasche', 'Stift', 'Ring', 'Buch', 'Hut', 'Kerze', 'Trommel', 'Blume', 'Fahrrad', 'Socke', 'Hammer', 'Brille', 'Kette', 'Vase', 'Kamera', 'Schlüssel', 'Tasse', 'Würfel', 'Bürste', 'Eimer', 'Löffel', 'Lampe', 'Tasche', 'Kiste', 'Geige', 'Telefon']","['bunt', 'hässlich', 'neu', 'hübsch', 'schlicht', 'glatt', 'hohl', 'kratzig', 'nass', 'sauber', 'lang', 'zart', 'nachhaltig', 'breit', 'niedlich', 'kurz', 'flauschig', 'gestreift', 'blass', 'groß']",1,3.744225700153038,None,,,,,,,,,,,,,,,,,,,,,,,,,,,,,,,,,,,,,,,,,,,,,,,,,,,,,,,,,,,,,,,,,2,2023-11-27_09h18.42.637,watkins1,2023.2.3,99.69413828310383,13,2023-11-27 09h18.53.852235 +0000,
,,,,,,,20,0,20,0,,,,,,,,,,,,,,,,,236.81873459997587,,,,,,,,,,,,236.80980699998327,237.30075599998236,,,3,3.252458499977365,,,,,,,,,,,,,,,,,,,,,237.3007668000646,243.30181049997918,Tasse,kaputt,"['Tasse', 'kaputt']",restudy,2,"['Schere', 'Rucksack', 'Jacke', 'Uhr', 'Flasche', 'Stift', 'Ring', 'Buch', 'Hut', 'Kerze', 'Trommel', 'Blume', 'Fahrrad', 'Socke', 'Hammer', 'Brille', 'Kette', 'Vase', 'Kamera', 'Schlüssel', 'Tasse', 'Würfel', 'Bürste', 'Eimer', 'Löffel', 'Lampe', 'Tasche', 'Kiste', 'Geige', 'Telefon']","['bunt', 'hässlich', 'neu', 'hübsch', 'schlicht', 'glatt', 'hohl', 'kratzig', 'nass', 'sauber', 'lang', 'zart', 'nachhaltig', 'breit', 'niedlich', 'kurz', 'flauschig', 'gestreift', 'blass', 'groß', 'kaputt']",3,3.252458499977365,None,,,,,,,,,,,,,,,,,,,,,,,,,,,,,,,,,,,,,,,,,,,,,,,,,,,,,,,,,,,,,,,,,2,2023-11-27_09h18.42.637,watkins1,2023.2.3,99.69413828310383,13,2023-11-27 09h18.53.852235 +0000,
,,,,,,,21,0,21,0,,,,,,,,,,,,,,,,,243.31125789997168,,,,,,,,,,,,243.30233950004913,243.79318800009787,,,2,3.207423700019717,,,,,,,,,,,,,,,,,,,,,243.79319859994575,249.80371170002036,Würfel,durchsichtig,"['Würfel', 'durchsichtig']",restudy,2,"['Schere', 'Rucksack', 'Jacke', 'Uhr', 'Flasche', 'Stift', 'Ring', 'Buch', 'Hut', 'Kerze', 'Trommel', 'Blume', 'Fahrrad', 'Socke', 'Hammer', 'Brille', 'Kette', 'Vase', 'Kamera', 'Schlüssel', 'Tasse', 'Würfel', 'Bürste', 'Eimer', 'Löffel', 'Lampe', 'Tasche', 'Kiste', 'Geige', 'Telefon']","['bunt', 'hässlich', 'neu', 'hübsch', 'schlicht', 'glatt', 'hohl', 'kratzig', 'nass', 'sauber', 'lang', 'zart', 'nachhaltig', 'breit', 'niedlich', 'kurz', 'flauschig', 'gestreift', 'blass', 'groß', 'kaputt', 'durchsichtig']",2,3.207423700019717,None,,,,,,,,,,,,,,,,,,,,,,,,,,,,,,,,,,,,,,,,,,,,,,,,,,,,,,,,,,,,,,,,,2,2023-11-27_09h18.42.637,watkins1,2023.2.3,99.69413828310383,13,2023-11-27 09h18.53.852235 +0000,
,,,,,,,22,0,22,0,,,,,,,,,,,,,,,,,249.81318449997343,,,,,,,,,,,,249.80424290010706,250.2952990999911,,,2,3.865483800182119,,,,,,,,,,,,,,,,,,,,,250.29530930006877,256.30025249999017,Bürste,schwer,"['Bürste', 'schwer']",test_sub,2,"['Schere', 'Rucksack', 'Jacke', 'Uhr', 'Flasche', 'Stift', 'Ring', 'Buch', 'Hut', 'Kerze', 'Trommel', 'Blume', 'Fahrrad', 'Socke', 'Hammer', 'Brille', 'Kette', 'Vase', 'Kamera', 'Schlüssel', 'Tasse', 'Würfel', 'Bürste', 'Eimer', 'Löffel', 'Lampe', 'Tasche', 'Kiste', 'Geige', 'Telefon']","['bunt', 'hässlich', 'neu', 'hübsch', 'schlicht', 'glatt', 'hohl', 'kratzig', 'nass', 'sauber', 'lang', 'zart', 'nachhaltig', 'breit', 'niedlich', 'kurz', 'flauschig', 'gestreift', 'blass', 'groß', 'kaputt', 'durchsichtig', 'schwer']",2,3.865483800182119,None,,,,,,,,,,,,,,,,,,,,,,,,,,,,,,,,,,,,,,,,,,,,,,,,,,,,,,,,,,,,,,,,,2,2023-11-27_09h18.42.637,watkins1,2023.2.3,99.69413828310383,13,2023-11-27 09h18.53.852235 +0000,
,,,,,,,23,0,23,0,,,,,,,,,,,,,,,,,256.3097117000725,,,,,,,,,,,,256.300781799946,256.7918346999213,,,1,4.297083599958569,,,,,,,,,,,,,,,,,,,,,256.79184469999745,262.79789269994944,Eimer,kalt,"['Eimer', 'kalt']",restudy,2,"['Schere', 'Rucksack', 'Jacke', 'Uhr', 'Flasche', 'Stift', 'Ring', 'Buch', 'Hut', 'Kerze', 'Trommel', 'Blume', 'Fahrrad', 'Socke', 'Hammer', 'Brille', 'Kette', 'Vase', 'Kamera', 'Schlüssel', 'Tasse', 'Würfel', 'Bürste', 'Eimer', 'Löffel', 'Lampe', 'Tasche', 'Kiste', 'Geige', 'Telefon']","['bunt', 'hässlich', 'neu', 'hübsch', 'schlicht', 'glatt', 'hohl', 'kratzig', 'nass', 'sauber', 'lang', 'zart', 'nachhaltig', 'breit', 'niedlich', 'kurz', 'flauschig', 'gestreift', 'blass', 'groß', 'kaputt', 'durchsichtig', 'schwer', 'kalt']",1,4.297083599958569,None,,,,,,,,,,,,,,,,,,,,,,,,,,,,,,,,,,,,,,,,,,,,,,,,,,,,,,,,,,,,,,,,,2,2023-11-27_09h18.42.637,watkins1,2023.2.3,99.69413828310383,13,2023-11-27 09h18.53.852235 +0000,
,,,,,,,24,0,24,0,,,,,,,,,,,,,,,,,262.8073177000042,,,,,,,,,,,,262.79841560008936,263.2893735000398,,,3,3.9828309000004083,,,,,,,,,,,,,,,,,,,,,263.28938400000334,269.2913055000827,Löffel,strahlend,"['Löffel', 'strahlend']",restudy,2,"['Schere', 'Rucksack', 'Jacke', 'Uhr', 'Flasche', 'Stift', 'Ring', 'Buch', 'Hut', 'Kerze', 'Trommel', 'Blume', 'Fahrrad', 'Socke', 'Hammer', 'Brille', 'Kette', 'Vase', 'Kamera', 'Schlüssel', 'Tasse', 'Würfel', 'Bürste', 'Eimer', 'Löffel', 'Lampe', 'Tasche', 'Kiste', 'Geige', 'Telefon']","['bunt', 'hässlich', 'neu', 'hübsch', 'schlicht', 'glatt', 'hohl', 'kratzig', 'nass', 'sauber', 'lang', 'zart', 'nachhaltig', 'breit', 'niedlich', 'kurz', 'flauschig', 'gestreift', 'blass', 'groß', 'kaputt', 'durchsichtig', 'schwer', 'kalt', 'strahlend']",3,3.9828309000004083,None,,,,,,,,,,,,,,,,,,,,,,,,,,,,,,,,,,,,,,,,,,,,,,,,,,,,,,,,,,,,,,,,,2,2023-11-27_09h18.42.637,watkins1,2023.2.3,99.69413828310383,13,2023-11-27 09h18.53.852235 +0000,
,,,,,,,25,0,25,0,,,,,,,,,,,,,,,,,269.3007932000328,,,,,,,,,,,,269.29183280002326,269.7828047000803,,,3,2.386738399975002,,,,,,,,,,,,,,,,,,,,,269.7828150000423,275.7837284000125,Lampe,glänzend,"['Lampe', 'glänzend']",test_sub,2,"['Schere', 'Rucksack', 'Jacke', 'Uhr', 'Flasche', 'Stift', 'Ring', 'Buch', 'Hut', 'Kerze', 'Trommel', 'Blume', 'Fahrrad', 'Socke', 'Hammer', 'Brille', 'Kette', 'Vase', 'Kamera', 'Schlüssel', 'Tasse', 'Würfel', 'Bürste', 'Eimer', 'Löffel', 'Lampe', 'Tasche', 'Kiste', 'Geige', 'Telefon']","['bunt', 'hässlich', 'neu', 'hübsch', 'schlicht', 'glatt', 'hohl', 'kratzig', 'nass', 'sauber', 'lang', 'zart', 'nachhaltig', 'breit', 'niedlich', 'kurz', 'flauschig', 'gestreift', 'blass', 'groß', 'kaputt', 'durchsichtig', 'schwer', 'kalt', 'strahlend', 'glänzend']",3,2.386738399975002,None,,,,,,,,,,,,,,,,,,,,,,,,,,,,,,,,,,,,,,,,,,,,,,,,,,,,,,,,,,,,,,,,,2,2023-11-27_09h18.42.637,watkins1,2023.2.3,99.69413828310383,13,2023-11-27 09h18.53.852235 +0000,
,,,,,,,26,0,26,0,,,,,,,,,,,,,,,,,275.79325599991716,,,,,,,,,,,,275.7842423999682,276.27519019995816,,,3,3.2861842000856996,,,,,,,,,,,,,,,,,,,,,276.2752004000358,282.28480820008554,Tasche,dunkel,"['Tasche', 'dunkel']",test_sub,2,"['Schere', 'Rucksack', 'Jacke', 'Uhr', 'Flasche', 'Stift', 'Ring', 'Buch', 'Hut', 'Kerze', 'Trommel', 'Blume', 'Fahrrad', 'Socke', 'Hammer', 'Brille', 'Kette', 'Vase', 'Kamera', 'Schlüssel', 'Tasse', 'Würfel', 'Bürste', 'Eimer', 'Löffel', 'Lampe', 'Tasche', 'Kiste', 'Geige', 'Telefon']","['bunt', 'hässlich', 'neu', 'hübsch', 'schlicht', 'glatt', 'hohl', 'kratzig', 'nass', 'sauber', 'lang', 'zart', 'nachhaltig', 'breit', 'niedlich', 'kurz', 'flauschig', 'gestreift', 'blass', 'groß', 'kaputt', 'durchsichtig', 'schwer', 'kalt', 'strahlend', 'glänzend', 'dunkel']",3,3.2861842000856996,None,,,,,,,,,,,,,,,,,,,,,,,,,,,,,,,,,,,,,,,,,,,,,,,,,,,,,,,,,,,,,,,,,2,2023-11-27_09h18.42.637,watkins1,2023.2.3,99.69413828310383,13,2023-11-27 09h18.53.852235 +0000,
,,,,,,,27,0,27,0,,,,,,,,,,,,,,,,,282.2942878000904,,,,,,,,,,,,282.2853322001174,282.77631799993105,,,2,3.257252800045535,,,,,,,,,,,,,,,,,,,,,282.7763284998946,288.78597140009515,Kiste,biegsam,"['Kiste', 'biegsam']",restudy,2,"['Schere', 'Rucksack', 'Jacke', 'Uhr', 'Flasche', 'Stift', 'Ring', 'Buch', 'Hut', 'Kerze', 'Trommel', 'Blume', 'Fahrrad', 'Socke', 'Hammer', 'Brille', 'Kette', 'Vase', 'Kamera', 'Schlüssel', 'Tasse', 'Würfel', 'Bürste', 'Eimer', 'Löffel', 'Lampe', 'Tasche', 'Kiste', 'Geige', 'Telefon']","['bunt', 'hässlich', 'neu', 'hübsch', 'schlicht', 'glatt', 'hohl', 'kratzig', 'nass', 'sauber', 'lang', 'zart', 'nachhaltig', 'breit', 'niedlich', 'kurz', 'flauschig', 'gestreift', 'blass', 'groß', 'kaputt', 'durchsichtig', 'schwer', 'kalt', 'strahlend', 'glänzend', 'dunkel', 'biegsam']",2,3.257252800045535,None,,,,,,,,,,,,,,,,,,,,,,,,,,,,,,,,,,,,,,,,,,,,,,,,,,,,,,,,,,,,,,,,,2,2023-11-27_09h18.42.637,watkins1,2023.2.3,99.69413828310383,13,2023-11-27 09h18.53.852235 +0000,
,,,,,,,28,0,28,0,,,,,,,,,,,,,,,,,288.79546639998443,,,,,,,,,,,,288.78650479996577,289.27762620011345,,,3,3.914893199922517,,,,,,,,,,,,,,,,,,,,,289.2776359000709,295.28091820003465,Geige,gut,"['Geige', 'gut']",restudy,2,"['Schere', 'Rucksack', 'Jacke', 'Uhr', 'Flasche', 'Stift', 'Ring', 'Buch', 'Hut', 'Kerze', 'Trommel', 'Blume', 'Fahrrad', 'Socke', 'Hammer', 'Brille', 'Kette', 'Vase', 'Kamera', 'Schlüssel', 'Tasse', 'Würfel', 'Bürste', 'Eimer', 'Löffel', 'Lampe', 'Tasche', 'Kiste', 'Geige', 'Telefon']","['bunt', 'hässlich', 'neu', 'hübsch', 'schlicht', 'glatt', 'hohl', 'kratzig', 'nass', 'sauber', 'lang', 'zart', 'nachhaltig', 'breit', 'niedlich', 'kurz', 'flauschig', 'gestreift', 'blass', 'groß', 'kaputt', 'durchsichtig', 'schwer', 'kalt', 'strahlend', 'glänzend', 'dunkel', 'biegsam', 'gut']",3,3.914893199922517,None,,,,,,,,,,,,,,,,,,,,,,,,,,,,,,,,,,,,,,,,,,,,,,,,,,,,,,,,,,,,,,,,,2,2023-11-27_09h18.42.637,watkins1,2023.2.3,99.69413828310383,13,2023-11-27 09h18.53.852235 +0000,
,,,,,,,29,0,29,0,,,,,,,,,,,,,,,,,295.2903956999071,,,,,,,,,,,,295.28144780010916,295.7723594000563,,,1,2.0849872000981122,,,,,,,,,,,,,,,,,,,,,295.7723703000229,301.7814889999572,Telefon,lustig,"['Telefon', 'lustig']",restudy,2,"['Schere', 'Rucksack', 'Jacke', 'Uhr', 'Flasche', 'Stift', 'Ring', 'Buch', 'Hut', 'Kerze', 'Trommel', 'Blume', 'Fahrrad', 'Socke', 'Hammer', 'Brille', 'Kette', 'Vase', 'Kamera', 'Schlüssel', 'Tasse', 'Würfel', 'Bürste', 'Eimer', 'Löffel', 'Lampe', 'Tasche', 'Kiste', 'Geige', 'Telefon']","['bunt', 'hässlich', 'neu', 'hübsch', 'schlicht', 'glatt', 'hohl', 'kratzig', 'nass', 'sauber', 'lang', 'zart', 'nachhaltig', 'breit', 'niedlich', 'kurz', 'flauschig', 'gestreift', 'blass', 'groß', 'kaputt', 'durchsichtig', 'schwer', 'kalt', 'strahlend', 'glänzend', 'dunkel', 'biegsam', 'gut', 'lustig']",1,2.0849872000981122,None,,,,,,,,,,,,,,,,,,,,,,,,,,,,,,,,,,,,,,,,,,,,,,,,,,,,,,,,,,,,,,,,,2,2023-11-27_09h18.42.637,watkins1,2023.2.3,99.69413828310383,13,2023-11-27 09h18.53.852235 +0000,
,,,,,,,,,,,0,0,0,0,,,,,,,,,,,,,301.7910688999109,,,,,,,,,,,,301.7823550000321,302.2731365999207,,,[],[],,,,,,,,,,,,None,None,,,,,,,,,,Ring,hohl,"['Ring', 'hohl']",restudy,2,,,,,,301.7822785000317,301.7823274000548,"['Ring', 'Buch', 'Stift', 'Rucksack', 'Brille', 'Schlüssel', 'Trommel', 'Kerze', 'Jacke', 'Bürste', 'Kette', 'Eimer', 'Blume', 'Tasse', 'Vase', 'Schere', 'Würfel', 'Hut', 'Hammer', 'Socke', 'Kiste', 'Löffel', 'Tasche', 'Uhr', 'Lampe', 'Fahrrad', 'Flasche', 'Geige', 'Kamera', 'Telefon']",302.27314710011706,302.2758436999284,None,302.27602509991266,308.2822209999431,1,4.541128000011668,None,308.28265399998054,308.2851188001223,None,308.2852797000669,308.28633460006677,308.286346900044,308.28741270001046,,,,,,,,,,,,,,,,,,,,,,,,,,,,,,,,,,,,,,,,,,,,,,,2,2023-11-27_09h18.42.637,watkins1,2023.2.3,99.69413828310383,13,2023-11-27 09h18.53.852235 +0000,
,,,,,,,,,,,1,0,1,0,,,,,,,,,,,,,308.2918289999943,,,,,,,,,,,,308.28770449990407,308.7838908000849,,,[],[],,,,,,,,,,,,5.331088399980217,None,,,,,kat,,,,,Buch,kratzig,"['Buch', 'kratzig']",test_sub,2,,,,,,308.28763810009696,308.2876770000439,"['Ring', 'Buch', 'Stift', 'Rucksack', 'Brille', 'Schlüssel', 'Trommel', 'Kerze', 'Jacke', 'Bürste', 'Kette', 'Eimer', 'Blume', 'Tasse', 'Vase', 'Schere', 'Würfel', 'Hut', 'Hammer', 'Socke', 'Kiste', 'Löffel', 'Tasche', 'Uhr', 'Lampe', 'Fahrrad', 'Flasche', 'Geige', 'Kamera', 'Telefon']",308.7839013999328,308.7863894000184,None,308.78651680005714,308.78782889992,None,,,308.78793930006213,308.78934979997575,None,308.78945929999463,308.7905077999458,308.79052029992454,314.79480380006135,0,,,,,,,,,,,,,,,,,,,,,,,,,,,,,,,,,,,,,,,,,,,,,,2,2023-11-27_09h18.42.637,watkins1,2023.2.3,99.69413828310383,13,2023-11-27 09h18.53.852235 +0000,
,,,,,,,,,,,2,0,2,0,,,,,,,,,,,,,314.80460950010456,,,,,,,,,,,,314.79508910002187,315.28662930009887,,,[],[],,,,,,,,,,,,None,None,,,,,,,,,,Stift,glatt,"['Stift', 'glatt']",test_sub,2,,,,,,314.7950224999804,314.79505990003236,"['Ring', 'Buch', 'Stift', 'Rucksack', 'Brille', 'Schlüssel', 'Trommel', 'Kerze', 'Jacke', 'Bürste', 'Kette', 'Eimer', 'Blume', 'Tasse', 'Vase', 'Schere', 'Würfel', 'Hut', 'Hammer', 'Socke', 'Kiste', 'Löffel', 'Tasche', 'Uhr', 'Lampe', 'Fahrrad', 'Flasche', 'Geige', 'Kamera', 'Telefon']",315.28663940005936,315.2893451999407,None,315.2894697000738,315.29203310003504,None,,,315.2921446999535,315.2946788999252,None,315.29478739993647,315.29594519990496,315.29595750011504,321.3018521000631,0,,,,,,,,,,,,,,,,,,,,,,,,,,,,,,,,,,,,,,,,,,,,,,2,2023-11-27_09h18.42.637,watkins1,2023.2.3,99.69413828310383,13,2023-11-27 09h18.53.852235 +0000,
,,,,,,,,,,,3,0,3,0,,,,,,,,,,,,,321.3116538999602,,,,,,,,,,,,321.30213319999166,321.79365890007466,,,[],[],,,,,,,,,,,,None,None,,,,,,,,,,Rucksack,hässlich,"['Rucksack', 'hässlich']",restudy,2,,,,,,321.3020671000704,321.3021046000067,"['Ring', 'Buch', 'Stift', 'Rucksack', 'Brille', 'Schlüssel', 'Trommel', 'Kerze', 'Jacke', 'Bürste', 'Kette', 'Eimer', 'Blume', 'Tasse', 'Vase', 'Schere', 'Würfel', 'Hut', 'Hammer', 'Socke', 'Kiste', 'Löffel', 'Tasche', 'Uhr', 'Lampe', 'Fahrrad', 'Flasche', 'Geige', 'Kamera', 'Telefon']",321.79366969992407,321.7963831999805,None,321.79651029990055,327.8029738999903,None,,,327.80311019998044,327.8058951999992,None,327.8060087999329,327.80723939999007,327.80725129996426,327.808476800099,,,,,,,,,,,,,,,,,,,,,,,,,,,,,,,,,,,,,,,,,,,,,,,2,2023-11-27_09h18.42.637,watkins1,2023.2.3,99.69413828310383,13,2023-11-27 09h18.53.852235 +0000,
,,,,,,,,,,,4,0,4,0,,,,,,,,,,,,,327.8124108999036,,,,,,,,,,,,327.80876310006715,328.30460899998434,,,[],[],,,,,,,,,,,,2.5590340001508594,None,,,,,brille,,,,,Brille,kurz,"['Brille', 'kurz']",test_sub,2,,,,,,327.80869759991765,327.80873650009744,"['Ring', 'Buch', 'Stift', 'Rucksack', 'Brille', 'Schlüssel', 'Trommel', 'Kerze', 'Jacke', 'Bürste', 'Kette', 'Eimer', 'Blume', 'Tasse', 'Vase', 'Schere', 'Würfel', 'Hut', 'Hammer', 'Socke', 'Kiste', 'Löffel', 'Tasche', 'Uhr', 'Lampe', 'Fahrrad', 'Flasche', 'Geige', 'Kamera', 'Telefon']",328.30461940006353,328.3073358000256,None,328.30746040004306,328.30889580002986,None,,,328.30900610005483,328.31043830001727,None,328.3105458000209,328.31171600008383,328.3117283999454,334.31507400004193,0,,,,,,,,,,,,,,,,,,,,,,,,,,,,,,,,,,,,,,,,,,,,,,2,2023-11-27_09h18.42.637,watkins1,2023.2.3,99.69413828310383,13,2023-11-27 09h18.53.852235 +0000,
,,,,,,,,,,,5,0,5,0,,,,,,,,,,,,,334.324840700021,,,,,,,,,,,,334.31535500008613,334.8069921999704,,,[],[],,,,,,,,,,,,None,None,,,,,,,,,,Schlüssel,groß,"['Schlüssel', 'groß']",test_sub,2,,,,,,334.31528809992597,334.31532589998096,"['Ring', 'Buch', 'Stift', 'Rucksack', 'Brille', 'Schlüssel', 'Trommel', 'Kerze', 'Jacke', 'Bürste', 'Kette', 'Eimer', 'Blume', 'Tasse', 'Vase', 'Schere', 'Würfel', 'Hut', 'Hammer', 'Socke', 'Kiste', 'Löffel', 'Tasche', 'Uhr', 'Lampe', 'Fahrrad', 'Flasche', 'Geige', 'Kamera', 'Telefon']",334.80700300005265,334.8096493999474,None,334.8097745999694,334.8122406001203,None,,,334.8123516999185,334.8149270999711,None,334.8150377001148,334.81628170004115,334.8162942000199,340.8216969000641,0,,,,,,,,,,,,,,,,,,,,,,,,,,,,,,,,,,,,,,,,,,,,,,2,2023-11-27_09h18.42.637,watkins1,2023.2.3,99.69413828310383,13,2023-11-27 09h18.53.852235 +0000,
,,,,,,,,,,,6,0,6,0,,,,,,,,,,,,,340.83146089990623,,,,,,,,,,,,340.8219834000338,341.31360929994844,,,[],[],,,,,,,,,,,,None,None,,,,,,,,,,Trommel,lang,"['Trommel', 'lang']",test_sub,2,,,,,,340.82191390008666,340.8219530999195,"['Ring', 'Buch', 'Stift', 'Rucksack', 'Brille', 'Schlüssel', 'Trommel', 'Kerze', 'Jacke', 'Bürste', 'Kette', 'Eimer', 'Blume', 'Tasse', 'Vase', 'Schere', 'Würfel', 'Hut', 'Hammer', 'Socke', 'Kiste', 'Löffel', 'Tasche', 'Uhr', 'Lampe', 'Fahrrad', 'Flasche', 'Geige', 'Kamera', 'Telefon']",341.3136189999059,341.3162577999756,None,341.3163793999702,341.31880320003256,None,,,341.31891470006667,341.3213486999739,None,341.321455599973,341.3226493000984,341.32266169996,347.3274066001177,0,,,,,,,,,,,,,,,,,,,,,,,,,,,,,,,,,,,,,,,,,,,,,,2,2023-11-27_09h18.42.637,watkins1,2023.2.3,99.69413828310383,13,2023-11-27 09h18.53.852235 +0000,
,,,,,,,,,,,7,0,7,0,,,,,,,,,,,,,347.3373104999773,,,,,,,,,,,,347.3276877000462,347.81932020001113,,,[],[],,,,,,,,,,,,None,None,,,,,,,,,,Kerze,sauber,"['Kerze', 'sauber']",test_sub,2,,,,,,347.32762040011585,347.32765870005824,"['Ring', 'Buch', 'Stift', 'Rucksack', 'Brille', 'Schlüssel', 'Trommel', 'Kerze', 'Jacke', 'Bürste', 'Kette', 'Eimer', 'Blume', 'Tasse', 'Vase', 'Schere', 'Würfel', 'Hut', 'Hammer', 'Socke', 'Kiste', 'Löffel', 'Tasche', 'Uhr', 'Lampe', 'Fahrrad', 'Flasche', 'Geige', 'Kamera', 'Telefon']",347.8193310999777,347.82190659991466,None,347.82203239994124,347.82441239990294,None,,,347.82452549994923,347.82688220008276,None,347.8269913000986,347.8281600000337,347.8281729000155,353.83377190004103,0,,,,,,,,,,,,,,,,,,,,,,,,,,,,,,,,,,,,,,,,,,,,,,2,2023-11-27_09h18.42.637,watkins1,2023.2.3,99.69413828310383,13,2023-11-27 09h18.53.852235 +0000,
,,,,,,,,,,,8,0,8,0,,,,,,,,,,,,,353.84356619999744,,,,,,,,,,,,353.83405490010045,354.32556709996425,,,[],[],,,,,,,,,,,,5.272117699962109,None,,,,,t,,,,,Jacke,neu,"['Jacke', 'neu']",test_sub,2,,,,,,353.8339873000514,353.8340253001079,"['Ring', 'Buch', 'Stift', 'Rucksack', 'Brille', 'Schlüssel', 'Trommel', 'Kerze', 'Jacke', 'Bürste', 'Kette', 'Eimer', 'Blume', 'Tasse', 'Vase', 'Schere', 'Würfel', 'Hut', 'Hammer', 'Socke', 'Kiste', 'Löffel', 'Tasche', 'Uhr', 'Lampe', 'Fahrrad', 'Flasche', 'Geige', 'Kamera', 'Telefon']",354.32557739992626,354.32827860000543,None,354.3284008000046,354.3309239000082,None,,,354.33103480003774,354.3335585000459,None,354.3336674000602,354.3348377000075,354.3348503001034,360.34015780012123,0,,,,,,,,,,,,,,,,,,,,,,,,,,,,,,,,,,,,,,,,,,,,,,2,2023-11-27_09h18.42.637,watkins1,2023.2.3,99.69413828310383,13,2023-11-27 09h18.53.852235 +0000,
,,,,,,,,,,,9,0,9,0,,,,,,,,,,,,,360.3499602000229,,,,,,,,,,,,360.34044379997067,360.8320478000678,,,[],[],,,,,,,,,,,,None,None,,,,,,,,,,Bürste,schwer,"['Bürste', 'schwer']",test_sub,2,,,,,,360.3403767000418,360.3404145000968,"['Ring', 'Buch', 'Stift', 'Rucksack', 'Brille', 'Schlüssel', 'Trommel', 'Kerze', 'Jacke', 'Bürste', 'Kette', 'Eimer', 'Blume', 'Tasse', 'Vase', 'Schere', 'Würfel', 'Hut', 'Hammer', 'Socke', 'Kiste', 'Löffel', 'Tasche', 'Uhr', 'Lampe', 'Fahrrad', 'Flasche', 'Geige', 'Kamera', 'Telefon']",360.8320599999279,360.8346283000428,None,360.83475370006636,360.8371973000467,None,,,360.8373086999636,360.839869099902,None,360.8399910000153,360.8411872999277,360.84119959990494,366.8470252000261,0,,,,,,,,,,,,,,,,,,,,,,,,,,,,,,,,,,,,,,,,,,,,,,2,2023-11-27_09h18.42.637,watkins1,2023.2.3,99.69413828310383,13,2023-11-27 09h18.53.852235 +0000,
,,,,,,,,,,,10,0,10,0,,,,,,,,,,,,,366.85681109991856,,,,,,,,,,,,366.8473106001038,367.3388420001138,,,[],[],,,,,,,,,,,,4.208811799995601,None,,,,,capslockkcapslocke,,,,,Kette,flauschig,"['Kette', 'flauschig']",test_sub,2,,,,,,366.8472424999345,366.8472816001158,"['Ring', 'Buch', 'Stift', 'Rucksack', 'Brille', 'Schlüssel', 'Trommel', 'Kerze', 'Jacke', 'Bürste', 'Kette', 'Eimer', 'Blume', 'Tasse', 'Vase', 'Schere', 'Würfel', 'Hut', 'Hammer', 'Socke', 'Kiste', 'Löffel', 'Tasche', 'Uhr', 'Lampe', 'Fahrrad', 'Flasche', 'Geige', 'Kamera', 'Telefon']",367.3388533999678,367.3415802998934,None,367.3417112000752,367.3446142000612,None,,,367.3447263999842,367.3472480000928,None,367.34735679998994,367.3486222999636,367.34863490005955,373.3550968999043,0,,,,,,,,,,,,,,,,,,,,,,,,,,,,,,,,,,,,,,,,,,,,,,2,2023-11-27_09h18.42.637,watkins1,2023.2.3,99.69413828310383,13,2023-11-27 09h18.53.852235 +0000,
,,,,,,,,,,,11,0,11,0,,,,,,,,,,,,,373.3648987999186,,,,,,,,,,,,373.3553855998907,373.84697489999235,,,[],[],,,,,,,,,,,,None,None,,,,,,,,,,Eimer,kalt,"['Eimer', 'kalt']",restudy,2,,,,,,373.35531520005316,373.3553544001188,"['Ring', 'Buch', 'Stift', 'Rucksack', 'Brille', 'Schlüssel', 'Trommel', 'Kerze', 'Jacke', 'Bürste', 'Kette', 'Eimer', 'Blume', 'Tasse', 'Vase', 'Schere', 'Würfel', 'Hut', 'Hammer', 'Socke', 'Kiste', 'Löffel', 'Tasche', 'Uhr', 'Lampe', 'Fahrrad', 'Flasche', 'Geige', 'Kamera', 'Telefon']",373.84698630007915,373.8497506000567,None,373.84987809997983,379.8542623000685,3,5.83013889985159,None,379.8545548999682,379.8571156000253,None,379.8572291000746,379.8584054999519,379.8584171999246,379.85978000005707,,,,,,,,,,,,,,,,,,,,,,,,,,,,,,,,,,,,,,,,,,,,,,,2,2023-11-27_09h18.42.637,watkins1,2023.2.3,99.69413828310383,13,2023-11-27 09h18.53.852235 +0000,
,,,,,,,,,,,12,0,12,0,,,,,,,,,,,,,379.86384589993395,,,,,,,,,,,,379.86007290007547,380.355820100056,,,[],[],,,,,,,,,,,,None,None,,,,,,,,,,Blume,zart,"['Blume', 'zart']",restudy,2,,,,,,379.86000690003857,379.8600461001042,"['Ring', 'Buch', 'Stift', 'Rucksack', 'Brille', 'Schlüssel', 'Trommel', 'Kerze', 'Jacke', 'Bürste', 'Kette', 'Eimer', 'Blume', 'Tasse', 'Vase', 'Schere', 'Würfel', 'Hut', 'Hammer', 'Socke', 'Kiste', 'Löffel', 'Tasche', 'Uhr', 'Lampe', 'Fahrrad', 'Flasche', 'Geige', 'Kamera', 'Telefon']",380.35583109990694,380.35837520007044,None,380.3584994999692,386.36597939999774,1,4.395211199996993,None,386.36627999995835,386.368832499953,None,386.3689447999932,386.3701104000211,386.37012209999375,386.37116519990377,,,,,,,,,,,,,,,,,,,,,,,,,,,,,,,,,,,,,,,,,,,,,,,2,2023-11-27_09h18.42.637,watkins1,2023.2.3,99.69413828310383,13,2023-11-27 09h18.53.852235 +0000,
,,,,,,,,,,,13,0,13,0,,,,,,,,,,,,,386.37546009989455,,,,,,,,,,,,386.3714463999495,386.8676344999112,,,[],[],,,,,,,,,,,,None,None,,,,,,,,,,Tasse,kaputt,"['Tasse', 'kaputt']",restudy,2,,,,,,386.3713817000389,386.37141990009695,"['Ring', 'Buch', 'Stift', 'Rucksack', 'Brille', 'Schlüssel', 'Trommel', 'Kerze', 'Jacke', 'Bürste', 'Kette', 'Eimer', 'Blume', 'Tasse', 'Vase', 'Schere', 'Würfel', 'Hut', 'Hammer', 'Socke', 'Kiste', 'Löffel', 'Tasche', 'Uhr', 'Lampe', 'Fahrrad', 'Flasche', 'Geige', 'Kamera', 'Telefon']",386.8676460001152,386.87025219993666,None,386.8703777999617,392.8741629999131,1,3.2193194997962564,None,392.8744658001233,392.87722830008715,None,392.87734310003,392.87851210008375,392.8785240999423,392.87970690010116,,,,,,,,,,,,,,,,,,,,,,,,,,,,,,,,,,,,,,,,,,,,,,,2,2023-11-27_09h18.42.637,watkins1,2023.2.3,99.69413828310383,13,2023-11-27 09h18.53.852235 +0000,
,,,,,,,,,,,14,0,14,0,,,,,,,,,,,,,392.88357440009713,,,,,,,,,,,,392.8799890000373,393.37566170003265,,,[],[],,,,,,,,,,,,1.383590100100264,None,,,,,capslocvase,,,,,Vase,gestreift,"['Vase', 'gestreift']",test_sub,2,,,,,,392.87992259999737,392.8799622000661,"['Ring', 'Buch', 'Stift', 'Rucksack', 'Brille', 'Schlüssel', 'Trommel', 'Kerze', 'Jacke', 'Bürste', 'Kette', 'Eimer', 'Blume', 'Tasse', 'Vase', 'Schere', 'Würfel', 'Hut', 'Hammer', 'Socke', 'Kiste', 'Löffel', 'Tasche', 'Uhr', 'Lampe', 'Fahrrad', 'Flasche', 'Geige', 'Kamera', 'Telefon']",393.3756719001103,393.37819160008803,None,393.37831500009634,393.3796163001098,None,,,393.37972420011647,393.3810709998943,None,393.3811782998964,393.38223149999976,393.3822441000957,399.3856995999813,0,,,,,,,,,,,,,,,,,,,,,,,,,,,,,,,,,,,,,,,,,,,,,,2,2023-11-27_09h18.42.637,watkins1,2023.2.3,99.69413828310383,13,2023-11-27 09h18.53.852235 +0000,
,,,,,,,,,,,15,0,15,0,,,,,,,,,,,,,399.3956110998988,,,,,,,,,,,,399.38598960009404,399.8775583000388,,,[],[],,,,,,,,,,,,None,None,,,,,,,,,,Schere,bunt,"['Schere', 'bunt']",restudy,2,,,,,,399.38591809989884,399.3859576000832,"['Ring', 'Buch', 'Stift', 'Rucksack', 'Brille', 'Schlüssel', 'Trommel', 'Kerze', 'Jacke', 'Bürste', 'Kette', 'Eimer', 'Blume', 'Tasse', 'Vase', 'Schere', 'Würfel', 'Hut', 'Hammer', 'Socke', 'Kiste', 'Löffel', 'Tasche', 'Uhr', 'Lampe', 'Fahrrad', 'Flasche', 'Geige', 'Kamera', 'Telefon']",399.87757109990343,399.88039839989506,None,399.88052730006166,405.89050369989127,None,,,405.8906499000732,405.8932032000739,None,405.8933165001217,405.89450519997627,405.89451720006764,405.8958674999885,,,,,,,,,,,,,,,,,,,,,,,,,,,,,,,,,,,,,,,,,,,,,,,2,2023-11-27_09h18.42.637,watkins1,2023.2.3,99.69413828310383,13,2023-11-27 09h18.53.852235 +0000,
,,,,,,,,,,,16,0,16,0,,,,,,,,,,,,,405.8999938000925,,,,,,,,,,,,405.8961593999993,406.39214099990204,,,[],[],,,,,,,,,,,,None,None,,,,,,,,,,Würfel,durchsichtig,"['Würfel', 'durchsichtig']",restudy,2,,,,,,405.8960937000811,405.89613260002807,"['Ring', 'Buch', 'Stift', 'Rucksack', 'Brille', 'Schlüssel', 'Trommel', 'Kerze', 'Jacke', 'Bürste', 'Kette', 'Eimer', 'Blume', 'Tasse', 'Vase', 'Schere', 'Würfel', 'Hut', 'Hammer', 'Socke', 'Kiste', 'Löffel', 'Tasche', 'Uhr', 'Lampe', 'Fahrrad', 'Flasche', 'Geige', 'Kamera', 'Telefon']",406.39215090009384,406.3946893000975,None,406.39481130009517,412.3976249000989,3,2.8146551998797804,None,412.3979265000671,412.4007514999248,None,412.4008653999772,412.4020551000722,412.40206680004485,412.40336950006895,,,,,,,,,,,,,,,,,,,,,,,,,,,,,,,,,,,,,,,,,,,,,,,2,2023-11-27_09h18.42.637,watkins1,2023.2.3,99.69413828310383,13,2023-11-27 09h18.53.852235 +0000,
,,,,,,,,,,,17,0,17,0,,,,,,,,,,,,,412.4070953000337,,,,,,,,,,,,412.40365529991686,412.89900889992714,,,[],[],,,,,,,,,,,,None,None,,,,,,,,,,Hut,nass,"['Hut', 'nass']",restudy,2,,,,,,412.4035887999926,412.40362820005976,"['Ring', 'Buch', 'Stift', 'Rucksack', 'Brille', 'Schlüssel', 'Trommel', 'Kerze', 'Jacke', 'Bürste', 'Kette', 'Eimer', 'Blume', 'Tasse', 'Vase', 'Schere', 'Würfel', 'Hut', 'Hammer', 'Socke', 'Kiste', 'Löffel', 'Tasche', 'Uhr', 'Lampe', 'Fahrrad', 'Flasche', 'Geige', 'Kamera', 'Telefon']",412.89902050001547,412.90174310002476,None,412.90187039994635,418.9049106000457,2,4.251726199872792,None,418.90520330006257,418.9076541000977,None,418.90776630002074,418.90879320004024,418.9088049000129,418.9098439000081,,,,,,,,,,,,,,,,,,,,,,,,,,,,,,,,,,,,,,,,,,,,,,,2,2023-11-27_09h18.42.637,watkins1,2023.2.3,99.69413828310383,13,2023-11-27 09h18.53.852235 +0000,
,,,,,,,,,,,18,0,18,0,,,,,,,,,,,,,418.9143874999136,,,,,,,,,,,,418.9101231000386,419.4071086999029,,,[],[],,,,,,,,,,,,None,None,,,,,,,,,,Hammer,niedlich,"['Hammer', 'niedlich']",restudy,2,,,,,,418.91005830001086,418.9100961999502,"['Ring', 'Buch', 'Stift', 'Rucksack', 'Brille', 'Schlüssel', 'Trommel', 'Kerze', 'Jacke', 'Bürste', 'Kette', 'Eimer', 'Blume', 'Tasse', 'Vase', 'Schere', 'Würfel', 'Hut', 'Hammer', 'Socke', 'Kiste', 'Löffel', 'Tasche', 'Uhr', 'Lampe', 'Fahrrad', 'Flasche', 'Geige', 'Kamera', 'Telefon']",419.4071198001038,419.40968760009855,None,419.40981260011904,425.4164370999206,1,3.6636594999581575,None,425.41673339996487,425.41956129996106,None,425.4196735001169,425.42085270001553,425.4208660000004,425.4220813999418,,,,,,,,,,,,,,,,,,,,,,,,,,,,,,,,,,,,,,,,,,,,,,,2,2023-11-27_09h18.42.637,watkins1,2023.2.3,99.69413828310383,13,2023-11-27 09h18.53.852235 +0000,
,,,,,,,,,,,19,0,19,0,,,,,,,,,,,,,425.4259258999955,,,,,,,,,,,,425.42236460000277,425.9180403999053,,,[],[],,,,,,,,,,,,None,None,,,,,,,,,,Socke,breit,"['Socke', 'breit']",test_sub,2,,,,,,425.42229870008305,425.4223374000285,"['Ring', 'Buch', 'Stift', 'Rucksack', 'Brille', 'Schlüssel', 'Trommel', 'Kerze', 'Jacke', 'Bürste', 'Kette', 'Eimer', 'Blume', 'Tasse', 'Vase', 'Schere', 'Würfel', 'Hut', 'Hammer', 'Socke', 'Kiste', 'Löffel', 'Tasche', 'Uhr', 'Lampe', 'Fahrrad', 'Flasche', 'Geige', 'Kamera', 'Telefon']",425.9180507999845,425.9208118999377,None,425.9209370999597,425.922365100123,None,,,425.9224731998984,425.92389829992317,None,425.92400679993443,425.9251753001008,425.92518789996393,431.9288125000894,0,,,,,,,,,,,,,,,,,,,,,,,,,,,,,,,,,,,,,,,,,,,,,,2,2023-11-27_09h18.42.637,watkins1,2023.2.3,99.69413828310383,13,2023-11-27 09h18.53.852235 +0000,
,,,,,,,,,,,20,0,20,0,,,,,,,,,,,,,431.9385766000487,,,,,,,,,,,,431.92909540003166,432.4207439001184,,,[],[],,,,,,,,,,,,None,None,,,,,,,,,,Kiste,biegsam,"['Kiste', 'biegsam']",restudy,2,,,,,,431.92902939999476,431.9290666000452,"['Ring', 'Buch', 'Stift', 'Rucksack', 'Brille', 'Schlüssel', 'Trommel', 'Kerze', 'Jacke', 'Bürste', 'Kette', 'Eimer', 'Blume', 'Tasse', 'Vase', 'Schere', 'Würfel', 'Hut', 'Hammer', 'Socke', 'Kiste', 'Löffel', 'Tasche', 'Uhr', 'Lampe', 'Fahrrad', 'Flasche', 'Geige', 'Kamera', 'Telefon']",432.4207546999678,432.4234311999753,None,432.4235533999745,438.42501479992643,3,3.7938151000998914,None,438.425312400097,438.4280121999327,None,438.4281246000901,438.429296300048,438.42930829990655,438.43050929997116,,,,,,,,,,,,,,,,,,,,,,,,,,,,,,,,,,,,,,,,,,,,,,,2,2023-11-27_09h18.42.637,watkins1,2023.2.3,99.69413828310383,13,2023-11-27 09h18.53.852235 +0000,
,,,,,,,,,,,21,0,21,0,,,,,,,,,,,,,438.43448489997536,,,,,,,,,,,,438.43079090001993,438.9278885999229,,,[],[],,,,,,,,,,,,None,None,,,,,,,,,,Löffel,strahlend,"['Löffel', 'strahlend']",restudy,2,,,,,,438.4307256001048,438.4307639999315,"['Ring', 'Buch', 'Stift', 'Rucksack', 'Brille', 'Schlüssel', 'Trommel', 'Kerze', 'Jacke', 'Bürste', 'Kette', 'Eimer', 'Blume', 'Tasse', 'Vase', 'Schere', 'Würfel', 'Hut', 'Hammer', 'Socke', 'Kiste', 'Löffel', 'Tasche', 'Uhr', 'Lampe', 'Fahrrad', 'Flasche', 'Geige', 'Kamera', 'Telefon']",438.9278998998925,438.93065660004504,None,438.930782899959,444.93962249998003,2,3.622503099963069,None,444.9399147001095,444.9426410999149,None,444.9427535000723,444.9439296000637,444.94394170003943,444.9451886001043,,,,,,,,,,,,,,,,,,,,,,,,,,,,,,,,,,,,,,,,,,,,,,,2,2023-11-27_09h18.42.637,watkins1,2023.2.3,99.69413828310383,13,2023-11-27 09h18.53.852235 +0000,
,,,,,,,,,,,22,0,22,0,,,,,,,,,,,,,444.9490660999436,,,,,,,,,,,,444.9454685000237,445.4412764001172,,,[],[],,,,,,,,,,,,None,None,,,,,,,,,,Tasche,dunkel,"['Tasche', 'dunkel']",test_sub,2,,,,,,444.94540269998834,444.94544139993377,"['Ring', 'Buch', 'Stift', 'Rucksack', 'Brille', 'Schlüssel', 'Trommel', 'Kerze', 'Jacke', 'Bürste', 'Kette', 'Eimer', 'Blume', 'Tasse', 'Vase', 'Schere', 'Würfel', 'Hut', 'Hammer', 'Socke', 'Kiste', 'Löffel', 'Tasche', 'Uhr', 'Lampe', 'Fahrrad', 'Flasche', 'Geige', 'Kamera', 'Telefon']",445.44128690008074,445.44404980004765,None,445.4441732999403,445.44560660002753,None,,,445.4457187000662,445.447141099954,None,445.4472485999577,445.4484097000677,445.4484220999293,451.4521566000767,0,,,,,,,,,,,,,,,,,,,,,,,,,,,,,,,,,,,,,,,,,,,,,,2,2023-11-27_09h18.42.637,watkins1,2023.2.3,99.69413828310383,13,2023-11-27 09h18.53.852235 +0000,
,,,,,,,,,,,23,0,23,0,,,,,,,,,,,,,451.4619199000299,,,,,,,,,,,,451.4524395999033,451.94405860011466,,,[],[],,,,,,,,,,,,None,None,,,,,,,,,,Uhr,hübsch,"['Uhr', 'hübsch']",restudy,2,,,,,,451.4523736999836,451.45241050003096,"['Ring', 'Buch', 'Stift', 'Rucksack', 'Brille', 'Schlüssel', 'Trommel', 'Kerze', 'Jacke', 'Bürste', 'Kette', 'Eimer', 'Blume', 'Tasse', 'Vase', 'Schere', 'Würfel', 'Hut', 'Hammer', 'Socke', 'Kiste', 'Löffel', 'Tasche', 'Uhr', 'Lampe', 'Fahrrad', 'Flasche', 'Geige', 'Kamera', 'Telefon']",451.94407030008733,451.946608300088,None,451.9467333999928,457.9481571998913,1,5.182889099931344,None,457.9484586000908,457.95098849991336,None,457.95110079995357,457.9521192999091,457.9521310001146,457.9533069001045,,,,,,,,,,,,,,,,,,,,,,,,,,,,,,,,,,,,,,,,,,,,,,,2,2023-11-27_09h18.42.637,watkins1,2023.2.3,99.69413828310383,13,2023-11-27 09h18.53.852235 +0000,
,,,,,,,,,,,24,0,24,0,,,,,,,,,,,,,457.95765749993734,,,,,,,,,,,,457.95359060005285,458.4497632998973,,,[],[],,,,,,,,,,,,2.0168649998959154,None,,,,,licht,,,,,Lampe,glänzend,"['Lampe', 'glänzend']",test_sub,2,,,,,,457.95352540002204,457.9535636000801,"['Ring', 'Buch', 'Stift', 'Rucksack', 'Brille', 'Schlüssel', 'Trommel', 'Kerze', 'Jacke', 'Bürste', 'Kette', 'Eimer', 'Blume', 'Tasse', 'Vase', 'Schere', 'Würfel', 'Hut', 'Hammer', 'Socke', 'Kiste', 'Löffel', 'Tasche', 'Uhr', 'Lampe', 'Fahrrad', 'Flasche', 'Geige', 'Kamera', 'Telefon']",458.44977360009216,458.45239500002936,None,458.45251809991896,458.45392329990864,None,,,458.4540343999397,458.45544199994765,None,458.4555508000776,458.45669399993494,458.45670669991523,464.46011260012165,0,,,,,,,,,,,,,,,,,,,,,,,,,,,,,,,,,,,,,,,,,,,,,,2,2023-11-27_09h18.42.637,watkins1,2023.2.3,99.69413828310383,13,2023-11-27 09h18.53.852235 +0000,
,,,,,,,,,,,25,0,25,0,,,,,,,,,,,,,464.4698642999865,,,,,,,,,,,,464.4603909999132,464.95199989993125,,,[],[],,,,,,,,,,,,1.1967016998678446,None,,,,,fahrrad,,,,,Fahrrad,nachhaltig,"['Fahrrad', 'nachhaltig']",test_sub,2,,,,,,464.4603246001061,464.4603619000409,"['Ring', 'Buch', 'Stift', 'Rucksack', 'Brille', 'Schlüssel', 'Trommel', 'Kerze', 'Jacke', 'Bürste', 'Kette', 'Eimer', 'Blume', 'Tasse', 'Vase', 'Schere', 'Würfel', 'Hut', 'Hammer', 'Socke', 'Kiste', 'Löffel', 'Tasche', 'Uhr', 'Lampe', 'Fahrrad', 'Flasche', 'Geige', 'Kamera', 'Telefon']",464.95201079989783,464.9547357999254,None,464.95485939993523,464.95743139996193,None,,,464.95753980008885,464.96052270010114,None,464.96063379989937,464.9618232001085,464.9618359000888,470.9684534999542,0,,,,,,,,,,,,,,,,,,,,,,,,,,,,,,,,,,,,,,,,,,,,,,2,2023-11-27_09h18.42.637,watkins1,2023.2.3,99.69413828310383,13,2023-11-27 09h18.53.852235 +0000,
,,,,,,,,,,,26,0,26,0,,,,,,,,,,,,,470.9783083999064,,,,,,,,,,,,470.9687419999391,471.4604201000184,,,[],[],,,,,,,,,,,,None,None,,,,,,,,,,Flasche,schlicht,"['Flasche', 'schlicht']",test_sub,2,,,,,,470.96867410000414,470.9687129999511,"['Ring', 'Buch', 'Stift', 'Rucksack', 'Brille', 'Schlüssel', 'Trommel', 'Kerze', 'Jacke', 'Bürste', 'Kette', 'Eimer', 'Blume', 'Tasse', 'Vase', 'Schere', 'Würfel', 'Hut', 'Hammer', 'Socke', 'Kiste', 'Löffel', 'Tasche', 'Uhr', 'Lampe', 'Fahrrad', 'Flasche', 'Geige', 'Kamera', 'Telefon']",471.4604307000991,471.46322529995814,None,471.46334949997254,471.4659780000802,None,,,471.46608839998953,471.46870770002715,None,471.46881560003385,471.47000680002384,471.4700193000026,477.47680709999986,0,,,,,,,,,,,,,,,,,,,,,,,,,,,,,,,,,,,,,,,,,,,,,,2,2023-11-27_09h18.42.637,watkins1,2023.2.3,99.69413828310383,13,2023-11-27 09h18.53.852235 +0000,
,,,,,,,,,,,27,0,27,0,,,,,,,,,,,,,477.4865572999697,,,,,,,,,,,,477.47708730003797,477.96859099995345,,,[],[],,,,,,,,,,,,None,None,,,,,,,,,,Geige,gut,"['Geige', 'gut']",restudy,2,,,,,,477.4770198999904,477.47705859993584,"['Ring', 'Buch', 'Stift', 'Rucksack', 'Brille', 'Schlüssel', 'Trommel', 'Kerze', 'Jacke', 'Bürste', 'Kette', 'Eimer', 'Blume', 'Tasse', 'Vase', 'Schere', 'Würfel', 'Hut', 'Hammer', 'Socke', 'Kiste', 'Löffel', 'Tasche', 'Uhr', 'Lampe', 'Fahrrad', 'Flasche', 'Geige', 'Kamera', 'Telefon']",477.96860080002807,477.97131490008906,None,477.97143750009127,483.97229570010677,3,2.9022067999467254,None,483.9725911000278,483.9751369000878,None,483.97524990001693,483.9764084001072,483.9764203000814,483.9774347001221,,,,,,,,,,,,,,,,,,,,,,,,,,,,,,,,,,,,,,,,,,,,,,,2,2023-11-27_09h18.42.637,watkins1,2023.2.3,99.69413828310383,13,2023-11-27 09h18.53.852235 +0000,
,,,,,,,,,,,28,0,28,0,,,,,,,,,,,,,483.981776899891,,,,,,,,,,,,483.9777160999365,484.4739258000627,,,[],[],,,,,,,,,,,,None,None,,,,,,,,,,Kamera,blass,"['Kamera', 'blass']",restudy,2,,,,,,483.97765029990114,483.9776890000794,"['Ring', 'Buch', 'Stift', 'Rucksack', 'Brille', 'Schlüssel', 'Trommel', 'Kerze', 'Jacke', 'Bürste', 'Kette', 'Eimer', 'Blume', 'Tasse', 'Vase', 'Schere', 'Würfel', 'Hut', 'Hammer', 'Socke', 'Kiste', 'Löffel', 'Tasche', 'Uhr', 'Lampe', 'Fahrrad', 'Flasche', 'Geige', 'Kamera', 'Telefon']",484.47393630002625,484.4764672999736,None,484.4765906999819,490.4819944999181,3,3.6683042000513524,None,490.48229419998825,490.4852559999563,None,490.48537150002085,490.4865502999164,490.4865623000078,490.4877238001209,,,,,,,,,,,,,,,,,,,,,,,,,,,,,,,,,,,,,,,,,,,,,,,2,2023-11-27_09h18.42.637,watkins1,2023.2.3,99.69413828310383,13,2023-11-27 09h18.53.852235 +0000,
,,,,,,,,,,,29,0,29,0,,,,,,,,,,,,,490.49149270006455,,,,,,,,,,,,490.48800950008444,490.983544500079,,,[],[],,,,,,,,,,,,None,None,,,,,,,,,,Telefon,lustig,"['Telefon', 'lustig']",restudy,2,,,,,,490.487942900043,490.48798230011016,"['Ring', 'Buch', 'Stift', 'Rucksack', 'Brille', 'Schlüssel', 'Trommel', 'Kerze', 'Jacke', 'Bürste', 'Kette', 'Eimer', 'Blume', 'Tasse', 'Vase', 'Schere', 'Würfel', 'Hut', 'Hammer', 'Socke', 'Kiste', 'Löffel', 'Tasche', 'Uhr', 'Lampe', 'Fahrrad', 'Flasche', 'Geige', 'Kamera', 'Telefon']",490.9835560999345,490.98624960007146,None,490.9863776001148,496.99570530001074,1,2.2389322000090033,None,496.99600669997744,496.9988094998989,None,496.9989219000563,497.0001213999931,497.00013309996575,497.00138780009,,,,,,,,,,,,,,,,,,,,,,,,,,,,,,,,,,,,,,,,,,,,,,,2,2023-11-27_09h18.42.637,watkins1,2023.2.3,99.69413828310383,13,2023-11-27 09h18.53.852235 +0000,
,,,,,,,,,,,,,,,,,,,,,,,,,,,,,,,,,,,,,,,,,,,,,,,,,,,,,,,,,,,,,,,,,,,,,,,2,,,,,,,,,,,,,,,,,,,,,,,,,,,,,,,,,,,,,,,,,,,,,,,,,,,,,,,,,,,,,,,,,,,,,,2,2023-11-27_09h18.42.637,watkins1,2023.2.3,99.69413828310383,13,2023-11-27 09h18.53.852235 +0000,
(4 : 2) + 4 = 6 ,Correct,button_correct,,,,,,,,,,,,,0,0,0,1,,,,,,,,,515.3884117999114,,,,,,,,,,514.3191899000667,515.3223149999976,,,,,['button_correct'],[4.330430199857801],,,,,,,,,,,,,,,,,,,,,,,,,,distractorTask,2,,,,,,,,,,,,,,,,,,,,,,,,,515.37807169999,515.3884117999114,519.712497800123,[0.2972222222222222],[-0.4046296296296296],[1],[0],[0],[4.330430199857801],['button_correct'],519.7132047000341,520.7160130001139,,,,,,,,,,,,,,,,,,,,,,,,,,,,,,,,,,2,2023-11-27_09h18.42.637,watkins1,2023.2.3,99.69413828310383,13,2023-11-27 09h18.53.852235 +0000,
(7 x 6) + 9 = 48 ,Incorrect,button_incorrect,,,,,,,,,,,,,0,1,1,9,,,,,,,,,520.7282352000475,,,,,,,,,,,,,,,,['button_incorrect'],[4.99803559994325],,,,,,,,,,,,,,,,,,,,,,,,,,distractorTask,2,,,,,,,,,,,,,,,,,,,,,,,,,520.7162045000587,520.7282352000475,525.7205843001138,[-0.3537037037037037],[-0.4],[1],[0],[0],[4.99803559994325],['button_incorrect'],525.7209664999973,526.7241193999071,,,,,,,,,,,,,,,,,,,,,,,,,,,,,,,,,,2,2023-11-27_09h18.42.637,watkins1,2023.2.3,99.69413828310383,13,2023-11-27 09h18.53.852235 +0000,
(6 x 3) + 10 = 27 ,Incorrect,button_incorrect,,,,,,,,,,,,,0,2,2,8,,,,,,,,,526.7340595999267,,,,,,,,,,,,,,,,['button_incorrect'],[2.638216200051829],,,,,,,,,,,,,,,,,,,,,,,,,,distractorTask,2,,,,,,,,,,,,,,,,,,,,,,,,,526.7243083999492,526.7340595999267,529.3653919000644,[-0.32592592592592595],[-0.4],[1],[0],[0],[2.638216200051829],['button_incorrect'],529.3657754000742,530.3690987001173,,,,,,,,,,,,,,,,,,,,,,,,,,,,,,,,,,2,2023-11-27_09h18.42.637,watkins1,2023.2.3,99.69413828310383,13,2023-11-27 09h18.53.852235 +0000,
(9 x 5) - 9 = 36 ,Correct,button_correct,,,,,,,,,,,,,0,3,3,4,,,,,,,,,530.3791904998943,,,,,,,,,,,,,,,,['button_correct'],[4.094866200117394],,,,,,,,,,,,,,,,,,,,,,,,,,distractorTask,2,,,,,,,,,,,,,,,,,,,,,,,,,530.3692898999434,530.3791904998943,534.4666607000399,[0.3388888888888889],[-0.4166666666666667],[1],[0],[0],[4.094866200117394],['button_correct'],534.4670410000253,535.4703240999952,,,,,,,,,,,,,,,,,,,,,,,,,,,,,,,,,,2,2023-11-27_09h18.42.637,watkins1,2023.2.3,99.69413828310383,13,2023-11-27 09h18.53.852235 +0000,
(2 x 5) + 3 = 13 ,Correct,button_correct,,,,,,,,,,,,,0,4,4,2,,,,,,,,,535.4803597000428,,,,,,,,,,,,,,,,['button_correct'],[2.0370043001603335],,,,,,,,,,,,,,,,,,,,,,,,,,distractorTask,2,,,,,,,,,,,,,,,,,,,,,,,,,535.4705183999613,535.4803597000428,537.509236099897,[0.38796296296296295],[-0.3851851851851852],[1],[0],[0],[2.0370043001603335],['button_correct'],537.5096209999174,538.5130892000161,,,,,,,,,,,,,,,,,,,,,,,,,,,,,,,,,,2,2023-11-27_09h18.42.637,watkins1,2023.2.3,99.69413828310383,13,2023-11-27 09h18.53.852235 +0000,
(28 : 7) - 3 = 1 ,Correct,button_correct,,,,,,,,,,,,,0,5,5,0,,,,,,,,,538.5230721000116,,,,,,,,,,,,,,,,['button_correct'],[3.3924948999192566],,,,,,,,,,,,,,,,,,,,,,,,,,distractorTask,2,,,,,,,,,,,,,,,,,,,,,,,,,538.5132786999457,538.5230721000116,541.9076209000777,[0.3990740740740741],[-0.4074074074074074],[1],[0],[0],[3.3924948999192566],['button_correct'],541.9079974000342,542.911160599906,,,,,,,,,,,,,,,,,,,,,,,,,,,,,,,,,,2,2023-11-27_09h18.42.637,watkins1,2023.2.3,99.69413828310383,13,2023-11-27 09h18.53.852235 +0000,
(40 : 5) + 8 = 15 ,Incorrect,button_incorrect,,,,,,,,,,,,,0,6,6,7,,,,,,,,,542.9212392000481,,,,,,,,,,,,,,,,['button_incorrect'],[3.6338279999326915],,,,,,,,,,,,,,,,,,,,,,,,,,distractorTask,2,,,,,,,,,,,,,,,,,,,,,,,,,542.911347999936,542.9212392000481,546.5469597000629,[-0.38055555555555554],[-0.3962962962962963],[1],[0],[0],[3.6338279999326915],['button_incorrect'],546.547342200065,547.5503402999602,,,,,,,,,,,,,,,,,,,,,,,,,,,,,,,,,,2,2023-11-27_09h18.42.637,watkins1,2023.2.3,99.69413828310383,13,2023-11-27 09h18.53.852235 +0000,
(25 : 5) + 5 = 9 ,Incorrect,button_incorrect,,,,,,,,,,,,,0,7,7,6,,,,,,,,,547.5602913000621,,,,,,,,,,,,,,,,['button_incorrect'],[1.826042699860409],,,,,,,,,,,,,,,,,,,,,,,,,,distractorTask,2,,,,,,,,,,,,,,,,,,,,,,,,,547.5505309000146,547.5602913000621,549.3784169999417,[-0.38055555555555554],[-0.39444444444444443],[1],[0],[0],[1.826042699860409],['button_incorrect'],549.3788006000686,550.3820358999074,,,,,,,,,,,,,,,,,,,,,,,,,,,,,,,,,,2,2023-11-27_09h18.42.637,watkins1,2023.2.3,99.69413828310383,13,2023-11-27 09h18.53.852235 +0000,
(54 : 6) - 10 = 0 ,Incorrect,button_incorrect,,,,,,,,,,,,,0,8,8,5,,,,,,,,,550.3921189999674,,,,,,,,,,,,,,,,['button_incorrect'],[3.181584500009194],,,,,,,,,,,,,,,,,,,,,,,,,,distractorTask,2,,,,,,,,,,,,,,,,,,,,,,,,,550.382225099951,550.3921189999674,553.5655191999394,[-0.38055555555555554],[-0.39444444444444443],[1],[0],[0],[3.181584500009194],['button_incorrect'],553.5659008999355,554.5692183000501,,,,,,,,,,,,,,,,,,,,,,,,,,,,,,,,,,2,2023-11-27_09h18.42.637,watkins1,2023.2.3,99.69413828310383,13,2023-11-27 09h18.53.852235 +0000,
(80 : 10) + 9 = 17 ,Correct,button_correct,,,,,,,,,,,,,0,9,9,3,,,,,,,,,554.5792473000474,,,,,,,,,,,,,,,,['button_correct'],[2.830237800022587],,,,,,,,,,,,,,,,,,,,,,,,,,distractorTask,2,,,,,,,,,,,,,,,,,,,,,,,,,554.5694087001029,554.5792473000474,557.4014928000979,[0.3925925925925926],[-0.40925925925925927],[1],[0],[0],[2.830237800022587],['button_correct'],557.4018767001107,558.4051272000652,,,,,,,,,,,,,,,,,,,,,,,,,,,,,,,,,,2,2023-11-27_09h18.42.637,watkins1,2023.2.3,99.69413828310383,13,2023-11-27 09h18.53.852235 +0000,
,,,,,,,,,,,,,,,,,,,,,,,,,,,,,,,,,,,,,,,,,,,,,,,,,,,,,,,,,,,,,,,,,,,,,,,2,,,,,,,,,,,,,,,,,,,,,,,,,,,,,,,,,,,,,,,,,,,,,,,,,,,,,,,,,,,,,,,,,,,,,,2,2023-11-27_09h18.42.637,watkins1,2023.2.3,99.69413828310383,13,2023-11-27 09h18.53.852235 +0000,
,,,,,,,,,,,,,,,,,,,0,0,0,0,,,,,589.524249299895,,,,,,,,,,,,,,,,,13.793415199965239,,,,,,,,,,,,13.807133799884468,None,,,,,,,,,,,,,freeRecallSub,2,,,,,,,,,,,,,,,,,,,,,,,,,,,,,,,,,,,,,589.5156026000623,589.524249299895,589.524249299895,603.3223459001165,return,13.793415199965239,None,,"[-0.5879629629629629, -0.05925925925925926]","[0.31203703703703706, 0.04537037037037037]","[1, 1]","[0, 0]","[0, 0]","[5.944110300159082, 7.731487500015646]",[],,,,,,,,,,,,,,,,,,,2,2023-11-27_09h18.42.637,watkins1,2023.2.3,99.69413828310383,13,2023-11-27 09h18.53.852235 +0000,
,,,,,,,,,,,,,,,,,,,1,0,1,0,,,,,603.3320106000174,,,,,,,,,,,,,,,,fahrrad,9.489650399889797,,,,,,,,,,,,2.9200601999182254,None,,,,,,,,,,,,,freeRecallSub,2,,,,,,,,,,,,,,,,,,,,,,,,,,,,,,,,,,,,,603.3241671998985,603.3320106000174,603.3320106000174,612.8314392000902,return,9.489650399889797,None,fahrrad,[],[],[],[],[],[],[],,,,,,,,,,,,,,,,,,,2,2023-11-27_09h18.42.637,watkins1,2023.2.3,99.69413828310383,13,2023-11-27 09h18.53.852235 +0000,
,,,,,,,,,,,,,,,,,,,2,0,2,0,,,,,612.8433069000021,,,,,,,,,,,,,,,,vase,5.570381199941039,,,,,,,,,,,,3.566449899924919,None,,,,,,,,,,,,,freeRecallSub,2,,,,,,,,,,,,,,,,,,,,,,,,,,,,,,,,,,,,,612.8327015000395,612.8433069000021,612.8433069000021,618.4180336000863,return,5.570381199941039,None,vase,[],[],[],[],[],[],[],,,,,,,,,,,,,,,,,,,2,2023-11-27_09h18.42.637,watkins1,2023.2.3,99.69413828310383,13,2023-11-27 09h18.53.852235 +0000,
,,,,,,,,,,,,,,,,,,,3,0,3,0,,,,,618.4285619000439,,,,,,,,,,,,,,,,brille,6.736963500035927,,,,,,,,,,,,3.0018566998187453,None,,,,,,,,,,,,,freeRecallSub,2,,,,,,,,,,,,,,,,,,,,,,,,,,,,,,,,,,,,,618.4193070000038,618.4285619000439,618.4285619000439,625.1668223999441,return,6.736963500035927,None,brille,[],[],[],[],[],[],[],,,,,,,,,,,,,,,,,,,2,2023-11-27_09h18.42.637,watkins1,2023.2.3,99.69413828310383,13,2023-11-27 09h18.53.852235 +0000,
,,,,,,,,,,,,,,,,,,,4,0,4,0,,,,,625.1776572999079,,,,,,,,,,,,,,,,uhr,8.988330699969083,,,,,,,,,,,,6.286111199995503,None,,,,,,,,,,,,,freeRecallSub,2,,,,,,,,,,,,,,,,,,,,,,,,,,,,,,,,,,,,,625.1680825001094,625.1776572999079,625.1776572999079,634.1756972000003,return,8.988330699969083,None,uhr,[],[],[],[],[],[],[],,,,,,,,,,,,,,,,,,,2,2023-11-27_09h18.42.637,watkins1,2023.2.3,99.69413828310383,13,2023-11-27 09h18.53.852235 +0000,
,,,,,,,,,,,,,,,,,,,5,0,5,0,,,,,634.1864372999407,,,,,,,,,,,,,,,,lampe,23.875234799925238,,,,,,,,,,,,20.5548020999413,None,,,,,,,,,,,,,freeRecallSub,2,,,,,,,,,,,,,,,,,,,,,,,,,,,,,,,,,,,,,634.1769693999086,634.1864372999407,634.1864372999407,658.0655875001103,return,23.875234799925238,None,lampe,[],[],[],[],[],[],[],,,,,,,,,,,,,,,,,,,2,2023-11-27_09h18.42.637,watkins1,2023.2.3,99.69413828310383,13,2023-11-27 09h18.53.852235 +0000,
,,,,,,,,,,,,,,,,,,,6,0,6,0,,,,,658.0768957000691,,,,,,,,,,,,,,,,katze,40.2166316001676,,,,,,,,,,,,30.860068699810654,None,,,,,,,,,,,,,freeRecallSub,2,,,,,,,,,,,,,,,,,,,,,,,,,,,,,,,,,,,,,658.0668190999422,658.0768957000691,658.0768957000691,698.2958134000655,return,40.2166316001676,None,katze,[],[],[],[],[],[],[],,,,,,,,,,,,,,,,,,,2,2023-11-27_09h18.42.637,watkins1,2023.2.3,99.69413828310383,13,2023-11-27 09h18.53.852235 +0000,
,,,,,,,,,,,,,,,,,,,7,0,7,0,,,,,698.307456499897,,,,,,,,,,,,,,,,geige,36.34611229994334,,,,,,,,,,,,33.233903700020164,None,,,,,,,,,,,,,freeRecallSub,2,,,,,,,,,,,,,,,,,,,,,,,,,,,,,,,,,,,,,698.2970813999418,698.307456499897,698.307456499897,734.6539421000052,return,36.34611229994334,None,geige,[],[],[],[],[],[],[],,,,,,,,,,,,,,,,,,,2,2023-11-27_09h18.42.637,watkins1,2023.2.3,99.69413828310383,13,2023-11-27 09h18.53.852235 +0000,
,,,,,,,,,,,,,,,,,,,8,0,8,0,,,,,734.6655260999687,,,,,,,,,,,,,,,,tasse,6.836018700152636,,,,,,,,,,,,4.118831499945372,None,,,,,,,,,,,,,freeRecallSub,2,,,,,,,,,,,,,,,,,,,,,,,,,,,,,,,,,,,,,734.6552200000733,734.6655260999687,734.6655260999687,741.5053042999934,return,6.836018700152636,None,tasse,[],[],[],[],[],[],[],,,,,,,,,,,,,,,,,,,2,2023-11-27_09h18.42.637,watkins1,2023.2.3,99.69413828310383,13,2023-11-27 09h18.53.852235 +0000,
,,,,,,,,,,,,,,,,,,,9,0,9,0,,,,,741.5165816000663,,,,,,,,,,,,,,,,tasche,3.120842899894342,,,,,,,,,,,,0.5140263000503182,None,,,,,,,,,,,,,freeRecallSub,2,,,,,,,,,,,,,,,,,,,,,,,,,,,,,,,,,,,,,741.5065633999184,741.5165816000663,741.5165816000663,744.6414195001125,return,3.120842899894342,None,tasche,[],[],[],[],[],[],[],,,,,,,,,,,,,,,,,,,2,2023-11-27_09h18.42.637,watkins1,2023.2.3,99.69413828310383,13,2023-11-27 09h18.53.852235 +0000,
,,,,,,,,,,,,,,,,,,,10,0,10,0,,,,,744.6531625001226,,,,,,,,,,,,,,,,jacke,10.656303900061175,,,,,,,,,,,,9.181941600050777,None,,,,,,,,,,,,,freeRecallSub,2,,,,,,,,,,,,,,,,,,,,,,,,,,,,,,,,,,,,,744.6426681000739,744.6531625001226,744.6531625001226,755.3109136000276,return,10.656303900061175,None,jacke,[],[],[],[],[],[],[],,,,,,,,,,,,,,,,,,,2,2023-11-27_09h18.42.637,watkins1,2023.2.3,99.69413828310383,13,2023-11-27 09h18.53.852235 +0000,
,,,,,,,,,,,,,,,,,,,11,0,11,0,,,,,755.3230721000582,,,,,,,,,,,,,,,,kamera,36.33844999992289,,,,,,,,,,,,33.83787409984507,None,,,,,,,,,,,,,freeRecallSub,2,,,,,,,,,,,,,,,,,,,,,,,,,,,,,,,,,,,,,755.3121756999753,755.3230721000582,755.3230721000582,791.6706334999762,return,36.33844999992289,None,kamera,[],[],[],[],[],[],[],,,,,,,,,,,,,,,,,,,2,2023-11-27_09h18.42.637,watkins1,2023.2.3,99.69413828310383,13,2023-11-27 09h18.53.852235 +0000,
,,,,,,,,,,,,,,,,,,,12,0,12,0,,,,,791.6829911998939,,,,,,,,,,,,,,,,,[],,,,,,,,,,,,None,None,,,,,,,,,,,,,freeRecallSub,2,,,,,,,,,,,,,,,,,,,,,,,,,,,,,,,,,,,,,791.6719090999104,791.6829911998939,791.6829911998939,821.4796700999141,None,,,,[0.44074074074074077],[-0.4027777777777778],[1],[0],[0],[29.803010000148788],"['button_continue', 'continue_text']",,,,,,,,,,,,,,,,,,,2,2023-11-27_09h18.42.637,watkins1,2023.2.3,99.69413828310383,13,2023-11-27 09h18.53.852235 +0000,
,,,,,,,,,,,,,,,,,,,,,,,,,,,,,,,,,,,,,,,,,,,,,,,,,,,,,,,,,,,,,,,,,,,,,,,2,,,,,,,,,,,,,,,,,,,,,,,,,,,,,,,,,,,,,,,,,,,,,,,,,,,,,,,,,,,,,,,,,,,,,,2,2023-11-27_09h18.42.637,watkins1,2023.2.3,99.69413828310383,13,2023-11-27 09h18.53.852235 +0000,
,,,,,,,,,,,,,,,,,,,,,,,0,0,0,0,830.2757991999388,,,,,,,,,,,,840.6022002000827,841.1004447999876,,,,10.32167710014619,,,,,,,,,,,,None,None,,,,,,,,,,Schlüssel,,,cuedRecallAdj,2,,,,,,,,,,,,,,,,,,,,,,,,0,,,,,,,,,,,,,,,,,,,,,,,,,,,,830.2666972000152,830.2757991999388,830.2757991999388,840.5987970000133,gross,return,10.32167710014619,None,840.5991925999988,840.608304399997,840.608304399997,840.6020498001017,,None,,,,,2,2023-11-27_09h18.42.637,watkins1,2023.2.3,99.69413828310383,13,2023-11-27 09h18.53.852235 +0000,
,,,,,,,,,,,,,,,,,,,,,,,1,0,1,0,841.1103906000499,,,,,,,,,,,,843.814772499958,844.313598500099,,,,2.6950664001051337,,,,,,,,,,,,None,None,,,,,,,,,,Geige,,,cuedRecallAdj,2,,,,,,,,,,,,,,,,,,,,,,,,0,,,,,,,,,,,,,,,,,,,,,,,,,,,,841.1006865000818,841.1103906000499,841.1103906000499,843.8119129999541,gut,return,2.6950664001051337,None,843.8121825000271,843.8214622000232,843.8214622000232,843.8146699999925,,None,,,,,2,2023-11-27_09h18.42.637,watkins1,2023.2.3,99.69413828310383,13,2023-11-27 09h18.53.852235 +0000,
,,,,,,,,,,,,,,,,,,,,,,,2,0,2,0,844.3235466000624,,,,,,,,,,,,848.0827164000366,848.5812476000283,,,,3.7538544998969883,,,,,,,,,,,,None,None,,,,,,,,,,Hammer,,,cuedRecallAdj,2,,,,,,,,,,,,,,,,,,,,,,,,0,,,,,,,,,,,,,,,,,,,,,,,,,,,,844.3138421000913,844.3235466000624,844.3235466000624,848.0794877998997,niedlich,return,3.7538544998969883,None,848.0797578000929,848.0891305000987,848.0891305000987,848.0826151999645,,None,,,,,2,2023-11-27_09h18.42.637,watkins1,2023.2.3,99.69413828310383,13,2023-11-27 09h18.53.852235 +0000,
,,,,,,,,,,,,,,,,,,,,,,,3,0,3,0,848.5911856000312,,,,,,,,,,,,862.3910886000376,862.8898966000415,,,,13.790280600078404,,,,,,,,,,,,None,None,,,,,,,,,,Stift,,,cuedRecallAdj,2,,,,,,,,,,,,,,,,,,,,,,,,0,,,,,,,,,,,,,,,,,,,,,,,,,,,,848.5814968000632,848.5911856000312,848.5911856000312,862.3882540999912,blau,return,13.790280600078404,None,862.3885194999166,862.3978059000801,862.3978059000801,862.3909877999686,,None,,,,,2,2023-11-27_09h18.42.637,watkins1,2023.2.3,99.69413828310383,13,2023-11-27 09h18.53.852235 +0000,
,,,,,,,,,,,,,,,,,,,,,,,4,0,4,0,862.8998448001221,,,,,,,,,,,,868.425543300109,868.9149052000139,,,,5.521595299942419,,,,,,,,,,,,None,None,,,,,,,,,,Blume,,,cuedRecallAdj,2,,,,,,,,,,,,,,,,,,,,,,,,0,,,,,,,,,,,,,,,,,,,,,,,,,,,,862.8901456999592,862.8998448001221,862.8998448001221,868.4233075000811,,return,5.521595299942419,None,868.4235759000294,868.4327950000297,868.4327950000297,868.4254419000354,,None,,,,,2,2023-11-27_09h18.42.637,watkins1,2023.2.3,99.69413828310383,13,2023-11-27 09h18.53.852235 +0000,
,,,,,,,,,,,,,,,,,,,,,,,5,0,5,0,868.924865399953,,,,,,,,,,,,872.864707000088,873.3633862000424,,,,3.9285768000409007,,,,,,,,,,,,None,None,,,,,,,,,,Telefon,,,cuedRecallAdj,2,,,,,,,,,,,,,,,,,,,,,,,,0,,,,,,,,,,,,,,,,,,,,,,,,,,,,868.9151502000168,868.924865399953,868.924865399953,872.8614874000195,lustig,return,3.9285768000409007,None,872.8617543999571,872.8713062999304,872.8713062999304,872.8646048000082,,None,,,,,2,2023-11-27_09h18.42.637,watkins1,2023.2.3,99.69413828310383,13,2023-11-27 09h18.53.852235 +0000,
,,,,,,,,,,,,,,,,,,,,,,,6,0,6,0,873.3732819999568,,,,,,,,,,,,883.688744999934,884.1785635999404,,,,10.30409019999206,,,,,,,,,,,,None,None,,,,,,,,,,Buch,,,cuedRecallAdj,2,,,,,,,,,,,,,,,,,,,,,,,,0,,,,,,,,,,,,,,,,,,,,,,,,,,,,873.3636259001214,873.3732819999568,873.3732819999568,883.6866490000393,,return,10.30409019999206,None,883.6869147000834,883.6964750001207,883.6964750001207,883.6886440000962,,None,,,,,2,2023-11-27_09h18.42.637,watkins1,2023.2.3,99.69413828310383,13,2023-11-27 09h18.53.852235 +0000,
,,,,,,,,,,,,,,,,,,,,,,,7,0,7,0,884.1885212000925,,,,,,,,,,,,888.388260900043,888.8778603000101,,,,4.192909099860117,,,,,,,,,,,,None,None,,,,,,,,,,Socke,,,cuedRecallAdj,2,,,,,,,,,,,,,,,,,,,,,,,,0,,,,,,,,,,,,,,,,,,,,,,,,,,,,884.1788053999189,884.1885212000925,884.1885212000925,888.3862228998914,,return,4.192909099860117,None,888.3864887000527,888.3957728999667,888.3957728999667,888.3881592999678,,None,,,,,2,2023-11-27_09h18.42.637,watkins1,2023.2.3,99.69413828310383,13,2023-11-27 09h18.53.852235 +0000,
,,,,,,,,,,,,,,,,,,,,,,,8,0,8,0,888.8878107999917,,,,,,,,,,,,897.1444474000018,897.6343364000786,,,,8.245560199953616,,,,,,,,,,,,None,None,,,,,,,,,,Flasche,,,cuedRecallAdj,2,,,,,,,,,,,,,,,,,,,,,,,,0,,,,,,,,,,,,,,,,,,,,,,,,,,,,888.8781093999278,888.8878107999917,888.8878107999917,897.1424881001003,,return,8.245560199953616,None,897.1427585999481,897.1522182999179,897.1522182999179,897.1443449999206,,None,,,,,2,2023-11-27_09h18.42.637,watkins1,2023.2.3,99.69413828310383,13,2023-11-27 09h18.53.852235 +0000,
,,,,,,,,,,,,,,,,,,,,,,,9,0,9,0,897.6442851999309,,,,,,,,,,,,904.425622300012,904.9245259999298,,,,6.769134399946779,,,,,,,,,,,,None,None,,,,,,,,,,Hut,,,cuedRecallAdj,2,,,,,,,,,,,,,,,,,,,,,,,,0,,,,,,,,,,,,,,,,,,,,,,,,,,,,897.6345800999552,897.6442851999309,897.6442851999309,904.4227964000311,nass,return,6.769134399946779,None,904.4230623000767,904.4325166000053,904.4325166000053,904.4255188999232,,None,,,,,2,2023-11-27_09h18.42.637,watkins1,2023.2.3,99.69413828310383,13,2023-11-27 09h18.53.852235 +0000,
,,,,,,,,,,,,,,,,,,,,,,,10,0,10,0,904.9345452000853,,,,,,,,,,,,908.6837021000683,909.182353500044,,,,3.7427159999497235,,,,,,,,,,,,None,None,,,,,,,,,,Löffel,,,cuedRecallAdj,2,,,,,,,,,,,,,,,,,,,,,,,,0,,,,,,,,,,,,,,,,,,,,,,,,,,,,904.9247691000346,904.9345452000853,904.9345452000853,908.6806336001027,strahlend,return,3.7427159999497235,None,908.6809024999384,908.6901859999634,908.6901859999634,908.6835992000997,,None,,,,,2,2023-11-27_09h18.42.637,watkins1,2023.2.3,99.69413828310383,13,2023-11-27 09h18.53.852235 +0000,
,,,,,,,,,,,,,,,,,,,,,,,11,0,11,0,909.1923078999389,,,,,,,,,,,,916.7372818998992,917.2353085000068,,,,7.541191600030288,,,,,,,,,,,,None,None,,,,,,,,,,Tasche,,,cuedRecallAdj,2,,,,,,,,,,,,,,,,,,,,,,,,0,,,,,,,,,,,,,,,,,,,,,,,,,,,,909.1825955999084,909.1923078999389,909.1923078999389,916.7339496999048,schwary,return,7.541191600030288,None,916.7342155000661,916.7432574999984,916.7432574999984,916.7371803000569,,None,,,,,2,2023-11-27_09h18.42.637,watkins1,2023.2.3,99.69413828310383,13,2023-11-27 09h18.53.852235 +0000,
,,,,,,,,,,,,,,,,,,,,,,,12,0,12,0,917.2453652000986,,,,,,,,,,,,920.4015840999782,920.900366100017,,,,3.144032600102946,,,,,,,,,,,,None,None,,,,,,,,,,Kamera,,,cuedRecallAdj,2,,,,,,,,,,,,,,,,,,,,,,,,0,,,,,,,,,,,,,,,,,,,,,,,,,,,,917.2355518001132,917.2453652000986,917.2453652000986,920.3986053001136,blass,return,3.144032600102946,None,920.3988733000588,920.4084338000976,920.4084338000976,920.4014842999168,,None,,,,,2,2023-11-27_09h18.42.637,watkins1,2023.2.3,99.69413828310383,13,2023-11-27 09h18.53.852235 +0000,
,,,,,,,,,,,,,,,,,,,,,,,13,0,13,0,920.910305700032,,,,,,,,,,,,924.2567316999193,924.7462510999758,,,,3.335068100132048,,,,,,,,,,,,None,None,,,,,,,,,,Bürste,,,cuedRecallAdj,2,,,,,,,,,,,,,,,,,,,,,,,,0,,,,,,,,,,,,,,,,,,,,,,,,,,,,920.9006135999225,920.910305700032,920.910305700032,924.254471299937,,return,3.335068100132048,None,924.2547385999933,924.2643031000625,924.2643031000625,924.256630100077,,None,,,,,2,2023-11-27_09h18.42.637,watkins1,2023.2.3,99.69413828310383,13,2023-11-27 09h18.53.852235 +0000,
,,,,,,,,,,,,,,,,,,,,,,,14,0,14,0,924.7562571000308,,,,,,,,,,,,930.1207532000262,930.6104041999206,,,,5.360997800016776,,,,,,,,,,,,None,None,,,,,,,,,,Rucksack,,,cuedRecallAdj,2,,,,,,,,,,,,,,,,,,,,,,,,0,,,,,,,,,,,,,,,,,,,,,,,,,,,,924.7464964999817,924.7562571000308,924.7562571000308,930.1187664000317,,return,5.360997800016776,None,930.1190335000865,930.1283976000268,930.1283976000268,930.1206511000637,,None,,,,,2,2023-11-27_09h18.42.637,watkins1,2023.2.3,99.69413828310383,13,2023-11-27 09h18.53.852235 +0000,
,,,,,,,,,,,,,,,,,,,,,,,15,0,15,0,930.6203523001168,,,,,,,,,,,,933.2641569001134,933.7632891000248,,,,2.6409936000127345,,,,,,,,,,,,None,None,,,,,,,,,,Kiste,,,cuedRecallAdj,2,,,,,,,,,,,,,,,,,,,,,,,,0,,,,,,,,,,,,,,,,,,,,,,,,,,,,930.6106519000605,930.6203523001168,930.6203523001168,933.2620526000392,,return,2.6409936000127345,None,933.2623254999053,933.2712971000001,933.2712971000001,933.2640563999303,,None,,,,,2,2023-11-27_09h18.42.637,watkins1,2023.2.3,99.69413828310383,13,2023-11-27 09h18.53.852235 +0000,
,,,,,,,,,,,,,,,,,,,,,,,16,0,16,0,933.7733541000634,,,,,,,,,,,,961.5702712999191,962.0597894999664,,,,27.791871199849993,,,,,,,,,,,,None,None,,,,,,,,,,Tasse,,,cuedRecallAdj,2,,,,,,,,,,,,,,,,,,,,,,,,0,,,,,,,,,,,,,,,,,,,,,,,,,,,,933.7635349999182,933.7733541000634,933.7733541000634,961.5682516999077,,return,27.791871199849993,None,961.5685596000403,961.577763200039,961.577763200039,961.57016750006,,None,,,,,2,2023-11-27_09h18.42.637,watkins1,2023.2.3,99.69413828310383,13,2023-11-27 09h18.53.852235 +0000,
,,,,,,,,,,,,,,,,,,,,,,,17,0,17,0,962.0697633998934,,,,,,,,,,,,966.2509077000432,966.7497058000881,,,,4.175537799950689,,,,,,,,,,,,None,None,,,,,,,,,,Jacke,,,cuedRecallAdj,2,,,,,,,,,,,,,,,,,,,,,,,,0,,,,,,,,,,,,,,,,,,,,,,,,,,,,962.0600374999922,962.0697633998934,962.0697633998934,966.24807099998,neu,return,4.175537799950689,None,966.2483359999023,966.2576194999274,966.2576194999274,966.2508050999604,,None,,,,,2,2023-11-27_09h18.42.637,watkins1,2023.2.3,99.69413828310383,13,2023-11-27 09h18.53.852235 +0000,
,,,,,,,,,,,,,,,,,,,,,,,18,0,18,0,966.7597523001023,,,,,,,,,,,,968.3188302000053,968.8082226999104,,,,1.5495585999451578,,,,,,,,,,,,None,None,,,,,,,,,,Schere,,,cuedRecallAdj,2,,,,,,,,,,,,,,,,,,,,,,,,0,,,,,,,,,,,,,,,,,,,,,,,,,,,,966.7499506000895,966.7597523001023,966.7597523001023,968.3165915999562,,return,1.5495585999451578,None,968.3168585000094,968.3261343999766,968.3261343999766,968.3187285000458,,None,,,,,2,2023-11-27_09h18.42.637,watkins1,2023.2.3,99.69413828310383,13,2023-11-27 09h18.53.852235 +0000,
,,,,,,,,,,,,,,,,,,,,,,,19,0,19,0,968.8181853001006,,,,,,,,,,,,971.9837702999357,972.4731682001147,,,,3.1632432998158038,,,,,,,,,,,,None,None,,,,,,,,,,Trommel,,,cuedRecallAdj,2,,,,,,,,,,,,,,,,,,,,,,,,0,,,,,,,,,,,,,,,,,,,,,,,,,,,,968.8084672000259,968.8181853001006,968.8181853001006,971.9818257000297,,return,3.1632432998158038,None,971.9820924999658,971.9910625000484,971.9910625000484,971.9836677999701,,None,,,,,2,2023-11-27_09h18.42.637,watkins1,2023.2.3,99.69413828310383,13,2023-11-27 09h18.53.852235 +0000,
,,,,,,,,,,,,,,,,,,,,,,,20,0,20,0,972.4832216999494,,,,,,,,,,,,976.4129711999558,976.9113620000426,,,,3.9219870001543313,,,,,,,,,,,,None,None,,,,,,,,,,Fahrrad,,,cuedRecallAdj,2,,,,,,,,,,,,,,,,,,,,,,,,0,,,,,,,,,,,,,,,,,,,,,,,,,,,,972.4734092999715,972.4832216999494,972.4832216999494,976.4098267999943,nachhaltig,return,3.9219870001543313,None,976.4100939000491,976.4193088999018,976.4193088999018,976.4128688999917,,None,,,,,2,2023-11-27_09h18.42.637,watkins1,2023.2.3,99.69413828310383,13,2023-11-27 09h18.53.852235 +0000,
,,,,,,,,,,,,,,,,,,,,,,,21,0,21,0,976.9214121999685,,,,,,,,,,,,978.1091801000293,978.5997444000095,,,,1.1798191999550909,,,,,,,,,,,,None,None,,,,,,,,,,Kerze,,,cuedRecallAdj,2,,,,,,,,,,,,,,,,,,,,,,,,0,,,,,,,,,,,,,,,,,,,,,,,,,,,,976.9116076999344,976.9214121999685,976.9214121999685,978.1067172999028,,return,1.1798191999550909,None,978.1069813000504,978.1163240000606,978.1163240000606,978.1090716999024,,None,,,,,2,2023-11-27_09h18.42.637,watkins1,2023.2.3,99.69413828310383,13,2023-11-27 09h18.53.852235 +0000,
,,,,,,,,,,,,,,,,,,,,,,,22,0,22,0,978.6097059000749,,,,,,,,,,,,983.1412176000886,983.6402036999352,,,,4.5235073999501765,,,,,,,,,,,,None,None,,,,,,,,,,Ring,,,cuedRecallAdj,2,,,,,,,,,,,,,,,,,,,,,,,,0,,,,,,,,,,,,,,,,,,,,,,,,,,,,978.6000014001038,978.6097059000749,978.6097059000749,983.1384964000899,hohl,return,4.5235073999501765,None,983.1387658000458,983.1480501999613,983.1480501999613,983.1411152000073,,None,,,,,2,2023-11-27_09h18.42.637,watkins1,2023.2.3,99.69413828310383,13,2023-11-27 09h18.53.852235 +0000,
,,,,,,,,,,,,,,,,,,,,,,,23,0,23,0,983.6501470999792,,,,,,,,,,,,999.2785147998948,999.7769098998979,,,,15.619051799876615,,,,,,,,,,,,None,None,,,,,,,,,,Würfel,,,cuedRecallAdj,2,,,,,,,,,,,,,,,,,,,,,,,,0,,,,,,,,,,,,,,,,,,,,,,,,,,,,983.6404500000644,983.6501470999792,983.6501470999792,999.2751255999319,durchsichtig,return,15.619051799876615,None,999.2754124999046,999.2846794999205,999.2846794999205,999.2784055999946,,None,,,,,2,2023-11-27_09h18.42.637,watkins1,2023.2.3,99.69413828310383,13,2023-11-27 09h18.53.852235 +0000,
,,,,,,,,,,,,,,,,,,,,,,,24,0,24,0,999.786854499951,,,,,,,,,,,,1003.2849232000299,1003.7742135000881,,,,3.490438599837944,,,,,,,,,,,,None,None,,,,,,,,,,Kette,,,cuedRecallAdj,2,,,,,,,,,,,,,,,,,,,,,,,,0,,,,,,,,,,,,,,,,,,,,,,,,,,,,999.777161099948,999.786854499951,999.786854499951,1003.282572499942,,return,3.490438599837944,None,1003.2828375000972,1003.2920764998998,1003.2920764998998,1003.2848155000247,,None,,,,,2,2023-11-27_09h18.42.637,watkins1,2023.2.3,99.69413828310383,13,2023-11-27 09h18.53.852235 +0000,
,,,,,,,,,,,,,,,,,,,,,,,25,0,25,0,1003.784166000085,,,,,,,,,,,,1011.4899049000815,1011.9887381999288,,,,7.693021300015971,,,,,,,,,,,,None,None,,,,,,,,,,Brille,,,cuedRecallAdj,2,,,,,,,,,,,,,,,,,,,,,,,,0,,,,,,,,,,,,,,,,,,,,,,,,,,,,1003.7744559000712,1003.784166000085,1003.784166000085,1011.4870349999983,kurz,return,7.693021300015971,None,1011.487302799942,1011.4967453998979,1011.4967453998979,1011.4898024001159,,None,,,,,2,2023-11-27_09h18.42.637,watkins1,2023.2.3,99.69413828310383,13,2023-11-27 09h18.53.852235 +0000,
,,,,,,,,,,,,,,,,,,,,,,,26,0,26,0,1011.9987004001159,,,,,,,,,,,,1024.003417900065,1024.5020594000816,,,,11.998547200113535,,,,,,,,,,,,None,None,,,,,,,,,,Lampe,,,cuedRecallAdj,2,,,,,,,,,,,,,,,,,,,,,,,,0,,,,,,,,,,,,,,,,,,,,,,,,,,,,1011.9889827000443,1011.9987004001159,1011.9987004001159,1024.0003631000873,glänzend,return,11.998547200113535,None,1024.0006289999,1024.0100302998908,1024.0100302998908,1024.0033118999563,,None,,,,,2,2023-11-27_09h18.42.637,watkins1,2023.2.3,99.69413828310383,13,2023-11-27 09h18.53.852235 +0000,
,,,,,,,,,,,,,,,,,,,,,,,27,0,27,0,1024.5120592000894,,,,,,,,,,,,1029.5965062000323,1030.095254200045,,,,5.077173099853098,,,,,,,,,,,,None,None,,,,,,,,,,Uhr,,,cuedRecallAdj,2,,,,,,,,,,,,,,,,,,,,,,,,0,,,,,,,,,,,,,,,,,,,,,,,,,,,,1024.5023026999552,1024.5120592000894,1024.5120592000894,1029.5934528999496,hübsch,return,5.077173099853098,None,1029.5937218999024,1029.6031035000924,1029.6031035000924,1029.5964049000759,,None,,,,,2,2023-11-27_09h18.42.637,watkins1,2023.2.3,99.69413828310383,13,2023-11-27 09h18.53.852235 +0000,
,,,,,,,,,,,,,,,,,,,,,,,28,0,28,0,1030.105140300002,,,,,,,,,,,,1050.2004390000366,1050.6898489000741,,,,20.091997700044885,,,,,,,,,,,,None,None,,,,,,,,,,Vase,,,cuedRecallAdj,2,,,,,,,,,,,,,,,,,,,,,,,,0,,,,,,,,,,,,,,,,,,,,,,,,,,,,1030.095500000054,1030.105140300002,1030.105140300002,1050.198130799923,,return,20.091997700044885,None,1050.1984176000115,1050.2076562000439,1050.2076562000439,1050.2003305999096,,None,,,,,2,2023-11-27_09h18.42.637,watkins1,2023.2.3,99.69413828310383,13,2023-11-27 09h18.53.852235 +0000,
,,,,,,,,,,,,,,,,,,,,,,,29,0,29,0,1050.6998004000634,,,,,,,,,,,,1053.7848535000812,1054.2746198000386,,,,3.081408299971372,,,,,,,,,,,,None,None,,,,,,,,,,Eimer,,,cuedRecallAdj,2,,,,,,,,,,,,,,,,,,,,,,,,0,,,,,,,,,,,,,,,,,,,,,,,,,,,,1050.690097700106,1050.6998004000634,1050.6998004000634,1053.7829458999913,,return,3.081408299971372,None,1053.7832196000963,1053.7925344000105,1053.7925344000105,1053.7847510001156,,None,,,,,2,2023-11-27_09h18.42.637,watkins1,2023.2.3,99.69413828310383,13,2023-11-27 09h18.53.852235 +0000,
,,,,,,,,,,,,,,,,,,,,,,,,,,,,,,,,,,,,,,,,,,,,,,,,,,,,,,,,,,,,,,,,,,,,,,,2,,,,,,,,,,,,,,,,,,,,,,,,,,,,,,,,,,,,,,,,,,,,,,,,,,,,,,,,,,,,,,,,,,1054.2912894999608,q,900.8809334000107,None,2,2023-11-27_09h18.42.637,watkins1,2023.2.3,99.69413828310383,13,2023-11-27 09h18.53.852235 +0000,
