Equation,CorrectResponse,Correctbutton,trials_7.thisRepN,trials_7.thisTrialN,trials_7.thisN,trials_7.thisIndex,trials.thisRepN,trials.thisTrialN,trials.thisN,trials.thisIndex,trials_3.thisRepN,trials_3.thisTrialN,trials_3.thisN,trials_3.thisIndex,trials_2.thisRepN,trials_2.thisTrialN,trials_2.thisN,trials_2.thisIndex,trials_4.thisRepN,trials_4.thisTrialN,trials_4.thisN,trials_4.thisIndex,trials_5.thisRepN,trials_5.thisTrialN,trials_5.thisN,trials_5.thisIndex,thisRow.t,notes,code_marius.started,code_marius.stopped,welcome.started,welcome.stopped,instruction_study.started,instruction_study.stopped,fixationcross.started,fixationcross.stopped,blanc.started,blanc.stopped,study_control_probe.started,study_control_probe.stopped,responseKey,responseTime,scale_answer_2.keys,study_control_probe_2.started,study_control_probe_2.stopped,scale_answer_3.keys,scale_answer_3.rt,scale_answer_3.duration,blanc_2.started,blanc_2.stopped,test_attr_probe.started,test_attr_probe.stopped,recalled_attr,firstKeyTime,secondWordTime,blanc_3.started,blanc_3.stopped,test_sub_probe.started,test_sub_probe.stopped,recalled_sub,instruction_probe_end.started,instruction_probe_end.stopped,study.started,study.stopped,substantive,adjective,wordpair,task,condition,liste_sub_phase1,liste_adj_phase1,scale_answer.keys,scale_answer.rt,scale_answer.duration,code_defineWordsInit.started,code_defineWordsInit.stopped,liste_sub_phase2,study_control.started,study_control.stopped,scale_answer_4.keys,restudy_same.started,restudy_same.stopped,scale_answer_5.keys,restudy_different.started,restudy_different.stopped,scale_answer_6.keys,test_attr.started,correct,test_attr.stopped,test_sub.started,test_sub.stopped,scale_answer_5.rt,scale_answer_5.duration,distractortask.started,equation_text.started,distractortask.stopped,mouse_answer.x,mouse_answer.y,mouse_answer.leftButton,mouse_answer.midButton,mouse_answer.rightButton,mouse_answer.time,mouse_answer.clicked_name,feedback_distractortask.started,feedback_distractortask.stopped,free_recall.started,text_enter.started,key_resp.started,free_recall.stopped,key_resp.keys,key_resp.rt,key_resp.duration,free_recalled_sub,mouse_continue.x,mouse_continue.y,mouse_continue.leftButton,mouse_continue.midButton,mouse_continue.rightButton,mouse_continue.time,mouse_continue.clicked_name,cued_recall.started,text_enter_2.started,key_continue.started,cued_recall.stopped,recalled_attr1,key_continue.keys,key_continue.rt,key_continue.duration,cued_recall_2.started,text_enter_3.started,key_continue_2.started,cued_recall_2.stopped,recalled_attr2,key_continue_2.keys,key_resp_8.started,key_resp_8.keys,key_resp_8.rt,key_resp_8.duration,condition,date,expName,psychopyVersion,frameRate,participant,expStart,
,,,,,,,,,,,,,,,,,,,,,,,,,,,,,0.11542279971763492,0.11548879975453019,0.11549709970131516,6.6157569997012615,,,,,,,,,,,,,,,,,,,,,,,,,,,,,,,,,,,,,3,,,,,,,,,,,,,,,,,,,,,,,,,,,,,,,,,,,,,,,,,,,,,,,,,,,,,,,,,,,,,,,,,,,,,,3,2024-01-09_12h44.37.534,watkins1,2023.2.3,99.72098103160155,79,2024-01-09 12h44.43.383767 +0000,
,,,,,,,,,,,,,,,,,,,,,,,,,,,,,,,,,6.615806699730456,62.28556359978393,,,,,,,,,,,,,,,,,,,,,,,,,,,,,,,,,,,3,,,,,,,,,,,,,,,,,,,,,,,,,,,,,,,,,,,,,,,,,,,,,,,,,,,,,,,,,,,,,,,,,,,,,,3,2024-01-09_12h44.37.534,watkins1,2023.2.3,99.72098103160155,79,2024-01-09 12h44.43.383767 +0000,
,,,0,0,0,0,,,,,,,,,,,,,,,,,,,,,63.29920820007101,,,,,,,,62.28558399993926,63.28923109965399,69.78820719989017,70.27958309976384,63.78122300002724,69.78804429993033,3,2.6408949000760913,None,70.27959389984608,76.28017899999395,3,2.6408949000760913,None,76.28047190001234,76.77191559970379,76.77192709967494,82.7765033999458,vergnügt,None,None,82.77674359967932,82.77676639985293,82.7767733996734,82.77685760008171,,,,,,,,,,3,,,,,,,,,,,,,,,,,,,,,,,,,,,,,,,,,,,,,,,,,,,,,,,,,,,,,,,,,,,,,,,,,,,,,,3,2024-01-09_12h44.37.534,watkins1,2023.2.3,99.72098103160155,79,2024-01-09 12h44.43.383767 +0000,
,,,,,,,,,,,,,,,,,,,,,,,,,,,,,,,,,,,,,,,,,,,,,,,,,,,,,,,,,,,,,82.77697579981759,88.01040729973465,,,,,,,3,,,,,,,,,,,,,,,,,,,,,,,,,,,,,,,,,,,,,,,,,,,,,,,,,,,,,,,,,,,,,,,,,,,,,,3,2024-01-09_12h44.37.534,watkins1,2023.2.3,99.72098103160155,79,2024-01-09 12h44.43.383767 +0000,
,,,,,,,0,0,0,0,,,,,,,,,,,,,,,,,89.02387899998575,,,,,,,,88.01042519975454,89.01394259976223,89.01442330004647,89.50600080005825,,,1,1.8585230000317097,,,,,,,,,,,,,,,,,,,,,89.5060115000233,95.50958639988676,Telefon,hübsch,"['Telefon', 'hübsch']",test_adj,3,"['Telefon', 'Blume', 'Löffel', 'Schlüssel', 'Vase', 'Flasche', 'Schere', 'Geige', 'Uhr', 'Rucksack', 'Buch', 'Hut', 'Eimer', 'Stift', 'Trommel', 'Kette', 'Kerze', 'Ring', 'Lampe', 'Socke', 'Tasche', 'Tasse', 'Jacke', 'Fahrrad', 'Kamera', 'Würfel', 'Bürste', 'Hammer', 'Brille', 'Kiste']",['hübsch'],1,1.8585230000317097,None,,,,,,,,,,,,,,,,,,,,,,,,,,,,,,,,,,,,,,,,,,,,,,,,,,,,,,,,,,,,,,,,,3,2024-01-09_12h44.37.534,watkins1,2023.2.3,99.72098103160155,79,2024-01-09 12h44.43.383767 +0000,
,,,,,,,1,0,1,0,,,,,,,,,,,,,,,,,95.51902769971639,,,,,,,,,,95.51024529989809,96.00105119962245,,,1,1.9494075002148747,,,,,,,,,,,,,,,,,,,,,96.00106159970164,102.0113321999088,Blume,hohl,"['Blume', 'hohl']",restudy,3,"['Telefon', 'Blume', 'Löffel', 'Schlüssel', 'Vase', 'Flasche', 'Schere', 'Geige', 'Uhr', 'Rucksack', 'Buch', 'Hut', 'Eimer', 'Stift', 'Trommel', 'Kette', 'Kerze', 'Ring', 'Lampe', 'Socke', 'Tasche', 'Tasse', 'Jacke', 'Fahrrad', 'Kamera', 'Würfel', 'Bürste', 'Hammer', 'Brille', 'Kiste']","['hübsch', 'hohl']",1,1.9494075002148747,None,,,,,,,,,,,,,,,,,,,,,,,,,,,,,,,,,,,,,,,,,,,,,,,,,,,,,,,,,,,,,,,,,3,2024-01-09_12h44.37.534,watkins1,2023.2.3,99.72098103160155,79,2024-01-09 12h44.43.383767 +0000,
,,,,,,,2,0,2,0,,,,,,,,,,,,,,,,,102.02083129994571,,,,,,,,,,102.01193139981478,102.50276309996843,,,2,2.575014099944383,,,,,,,,,,,,,,,,,,,,,102.50277390005067,108.51212349999696,Löffel,flach,"['Löffel', 'flach']",restudy,3,"['Telefon', 'Blume', 'Löffel', 'Schlüssel', 'Vase', 'Flasche', 'Schere', 'Geige', 'Uhr', 'Rucksack', 'Buch', 'Hut', 'Eimer', 'Stift', 'Trommel', 'Kette', 'Kerze', 'Ring', 'Lampe', 'Socke', 'Tasche', 'Tasse', 'Jacke', 'Fahrrad', 'Kamera', 'Würfel', 'Bürste', 'Hammer', 'Brille', 'Kiste']","['hübsch', 'hohl', 'flach']",2,2.575014099944383,None,,,,,,,,,,,,,,,,,,,,,,,,,,,,,,,,,,,,,,,,,,,,,,,,,,,,,,,,,,,,,,,,,3,2024-01-09_12h44.37.534,watkins1,2023.2.3,99.72098103160155,79,2024-01-09 12h44.43.383767 +0000,
,,,,,,,3,0,3,0,,,,,,,,,,,,,,,,,108.52151559991762,,,,,,,,,,108.51273219985887,109.00373669993132,,,1,2.786518999841064,,,,,,,,,,,,,,,,,,,,,109.00374739989638,115.00732119986787,Schlüssel,biegsam,"['Schlüssel', 'biegsam']",restudy,3,"['Telefon', 'Blume', 'Löffel', 'Schlüssel', 'Vase', 'Flasche', 'Schere', 'Geige', 'Uhr', 'Rucksack', 'Buch', 'Hut', 'Eimer', 'Stift', 'Trommel', 'Kette', 'Kerze', 'Ring', 'Lampe', 'Socke', 'Tasche', 'Tasse', 'Jacke', 'Fahrrad', 'Kamera', 'Würfel', 'Bürste', 'Hammer', 'Brille', 'Kiste']","['hübsch', 'hohl', 'flach', 'biegsam']",1,2.786518999841064,None,,,,,,,,,,,,,,,,,,,,,,,,,,,,,,,,,,,,,,,,,,,,,,,,,,,,,,,,,,,,,,,,,3,2024-01-09_12h44.37.534,watkins1,2023.2.3,99.72098103160155,79,2024-01-09 12h44.43.383767 +0000,
,,,,,,,4,0,4,0,,,,,,,,,,,,,,,,,115.01680410001427,,,,,,,,,,115.00783200003207,115.49878240004182,,,2,2.9160249000415206,,,,,,,,,,,,,,,,,,,,,115.4987929998897,121.5052553997375,Vase,robust,"['Vase', 'robust']",test_adj,3,"['Telefon', 'Blume', 'Löffel', 'Schlüssel', 'Vase', 'Flasche', 'Schere', 'Geige', 'Uhr', 'Rucksack', 'Buch', 'Hut', 'Eimer', 'Stift', 'Trommel', 'Kette', 'Kerze', 'Ring', 'Lampe', 'Socke', 'Tasche', 'Tasse', 'Jacke', 'Fahrrad', 'Kamera', 'Würfel', 'Bürste', 'Hammer', 'Brille', 'Kiste']","['hübsch', 'hohl', 'flach', 'biegsam', 'robust']",2,2.9160249000415206,None,,,,,,,,,,,,,,,,,,,,,,,,,,,,,,,,,,,,,,,,,,,,,,,,,,,,,,,,,,,,,,,,,3,2024-01-09_12h44.37.534,watkins1,2023.2.3,99.72098103160155,79,2024-01-09 12h44.43.383767 +0000,
,,,,,,,5,0,5,0,,,,,,,,,,,,,,,,,121.51471709972247,,,,,,,,,,121.5057766996324,121.9967376999557,,,3,1.497271700296551,,,,,,,,,,,,,,,,,,,,,121.99674829980358,128.0011411998421,Flasche,praktisch,"['Flasche', 'praktisch']",test_adj,3,"['Telefon', 'Blume', 'Löffel', 'Schlüssel', 'Vase', 'Flasche', 'Schere', 'Geige', 'Uhr', 'Rucksack', 'Buch', 'Hut', 'Eimer', 'Stift', 'Trommel', 'Kette', 'Kerze', 'Ring', 'Lampe', 'Socke', 'Tasche', 'Tasse', 'Jacke', 'Fahrrad', 'Kamera', 'Würfel', 'Bürste', 'Hammer', 'Brille', 'Kiste']","['hübsch', 'hohl', 'flach', 'biegsam', 'robust', 'praktisch']",3,1.497271700296551,None,,,,,,,,,,,,,,,,,,,,,,,,,,,,,,,,,,,,,,,,,,,,,,,,,,,,,,,,,,,,,,,,,3,2024-01-09_12h44.37.534,watkins1,2023.2.3,99.72098103160155,79,2024-01-09 12h44.43.383767 +0000,
,,,,,,,6,0,6,0,,,,,,,,,,,,,,,,,128.01061380002648,,,,,,,,,,128.00166489975527,128.49274259991944,,,1,1.969945500139147,,,,,,,,,,,,,,,,,,,,,128.49275289988145,134.49370939983055,Schere,flauschig,"['Schere', 'flauschig']",test_adj,3,"['Telefon', 'Blume', 'Löffel', 'Schlüssel', 'Vase', 'Flasche', 'Schere', 'Geige', 'Uhr', 'Rucksack', 'Buch', 'Hut', 'Eimer', 'Stift', 'Trommel', 'Kette', 'Kerze', 'Ring', 'Lampe', 'Socke', 'Tasche', 'Tasse', 'Jacke', 'Fahrrad', 'Kamera', 'Würfel', 'Bürste', 'Hammer', 'Brille', 'Kiste']","['hübsch', 'hohl', 'flach', 'biegsam', 'robust', 'praktisch', 'flauschig']",1,1.969945500139147,None,,,,,,,,,,,,,,,,,,,,,,,,,,,,,,,,,,,,,,,,,,,,,,,,,,,,,,,,,,,,,,,,,3,2024-01-09_12h44.37.534,watkins1,2023.2.3,99.72098103160155,79,2024-01-09 12h44.43.383767 +0000,
,,,,,,,7,0,7,0,,,,,,,,,,,,,,,,,134.5032430998981,,,,,,,,,,134.4942926997319,134.9853078997694,,,1,2.700419900007546,,,,,,,,,,,,,,,,,,,,,134.98531869985163,140.98975239973515,Geige,hässlich,"['Geige', 'hässlich']",restudy,3,"['Telefon', 'Blume', 'Löffel', 'Schlüssel', 'Vase', 'Flasche', 'Schere', 'Geige', 'Uhr', 'Rucksack', 'Buch', 'Hut', 'Eimer', 'Stift', 'Trommel', 'Kette', 'Kerze', 'Ring', 'Lampe', 'Socke', 'Tasche', 'Tasse', 'Jacke', 'Fahrrad', 'Kamera', 'Würfel', 'Bürste', 'Hammer', 'Brille', 'Kiste']","['hübsch', 'hohl', 'flach', 'biegsam', 'robust', 'praktisch', 'flauschig', 'hässlich']",1,2.700419900007546,None,,,,,,,,,,,,,,,,,,,,,,,,,,,,,,,,,,,,,,,,,,,,,,,,,,,,,,,,,,,,,,,,,3,2024-01-09_12h44.37.534,watkins1,2023.2.3,99.72098103160155,79,2024-01-09 12h44.43.383767 +0000,
,,,,,,,8,0,8,0,,,,,,,,,,,,,,,,,140.99921069992706,,,,,,,,,,140.99026989983395,141.4813691000454,,,1,2.5652172998525202,,,,,,,,,,,,,,,,,,,,,141.4813788998872,147.48334439983591,Uhr,lustig,"['Uhr', 'lustig']",test_adj,3,"['Telefon', 'Blume', 'Löffel', 'Schlüssel', 'Vase', 'Flasche', 'Schere', 'Geige', 'Uhr', 'Rucksack', 'Buch', 'Hut', 'Eimer', 'Stift', 'Trommel', 'Kette', 'Kerze', 'Ring', 'Lampe', 'Socke', 'Tasche', 'Tasse', 'Jacke', 'Fahrrad', 'Kamera', 'Würfel', 'Bürste', 'Hammer', 'Brille', 'Kiste']","['hübsch', 'hohl', 'flach', 'biegsam', 'robust', 'praktisch', 'flauschig', 'hässlich', 'lustig']",1,2.5652172998525202,None,,,,,,,,,,,,,,,,,,,,,,,,,,,,,,,,,,,,,,,,,,,,,,,,,,,,,,,,,,,,,,,,,3,2024-01-09_12h44.37.534,watkins1,2023.2.3,99.72098103160155,79,2024-01-09 12h44.43.383767 +0000,
,,,,,,,9,0,9,0,,,,,,,,,,,,,,,,,147.49284699978307,,,,,,,,,,147.48385869991034,147.9749386999756,,,1,3.5837849001400173,,,,,,,,,,,,,,,,,,,,,147.97494899993762,153.97722940007225,Rucksack,lang,"['Rucksack', 'lang']",restudy,3,"['Telefon', 'Blume', 'Löffel', 'Schlüssel', 'Vase', 'Flasche', 'Schere', 'Geige', 'Uhr', 'Rucksack', 'Buch', 'Hut', 'Eimer', 'Stift', 'Trommel', 'Kette', 'Kerze', 'Ring', 'Lampe', 'Socke', 'Tasche', 'Tasse', 'Jacke', 'Fahrrad', 'Kamera', 'Würfel', 'Bürste', 'Hammer', 'Brille', 'Kiste']","['hübsch', 'hohl', 'flach', 'biegsam', 'robust', 'praktisch', 'flauschig', 'hässlich', 'lustig', 'lang']",1,3.5837849001400173,None,,,,,,,,,,,,,,,,,,,,,,,,,,,,,,,,,,,,,,,,,,,,,,,,,,,,,,,,,,,,,,,,,3,2024-01-09_12h44.37.534,watkins1,2023.2.3,99.72098103160155,79,2024-01-09 12h44.43.383767 +0000,
,,,,,,,10,0,10,0,,,,,,,,,,,,,,,,,153.98669900000095,,,,,,,,,,153.97774829994887,154.46883649984375,,,2,2.586567800026387,,,,,,,,,,,,,,,,,,,,,154.4688471998088,160.47799099981785,Buch,matt,"['Buch', 'matt']",test_adj,3,"['Telefon', 'Blume', 'Löffel', 'Schlüssel', 'Vase', 'Flasche', 'Schere', 'Geige', 'Uhr', 'Rucksack', 'Buch', 'Hut', 'Eimer', 'Stift', 'Trommel', 'Kette', 'Kerze', 'Ring', 'Lampe', 'Socke', 'Tasche', 'Tasse', 'Jacke', 'Fahrrad', 'Kamera', 'Würfel', 'Bürste', 'Hammer', 'Brille', 'Kiste']","['hübsch', 'hohl', 'flach', 'biegsam', 'robust', 'praktisch', 'flauschig', 'hässlich', 'lustig', 'lang', 'matt']",2,2.586567800026387,None,,,,,,,,,,,,,,,,,,,,,,,,,,,,,,,,,,,,,,,,,,,,,,,,,,,,,,,,,,,,,,,,,3,2024-01-09_12h44.37.534,watkins1,2023.2.3,99.72098103160155,79,2024-01-09 12h44.43.383767 +0000,
,,,,,,,11,0,11,0,,,,,,,,,,,,,,,,,160.48743089986965,,,,,,,,,,160.47849870007485,160.9694721000269,,,3,5.741231800056994,,,,,,,,,,,,,,,,,,,,,160.96948239998892,166.97034379979596,Hut,kalt,"['Hut', 'kalt']",test_adj,3,"['Telefon', 'Blume', 'Löffel', 'Schlüssel', 'Vase', 'Flasche', 'Schere', 'Geige', 'Uhr', 'Rucksack', 'Buch', 'Hut', 'Eimer', 'Stift', 'Trommel', 'Kette', 'Kerze', 'Ring', 'Lampe', 'Socke', 'Tasche', 'Tasse', 'Jacke', 'Fahrrad', 'Kamera', 'Würfel', 'Bürste', 'Hammer', 'Brille', 'Kiste']","['hübsch', 'hohl', 'flach', 'biegsam', 'robust', 'praktisch', 'flauschig', 'hässlich', 'lustig', 'lang', 'matt', 'kalt']",3,5.741231800056994,None,,,,,,,,,,,,,,,,,,,,,,,,,,,,,,,,,,,,,,,,,,,,,,,,,,,,,,,,,,,,,,,,,3,2024-01-09_12h44.37.534,watkins1,2023.2.3,99.72098103160155,79,2024-01-09 12h44.43.383767 +0000,
,,,,,,,12,0,12,0,,,,,,,,,,,,,,,,,166.97981349984184,,,,,,,,,,166.97086749970913,167.46190709993243,,,2,4.472579399589449,,,,,,,,,,,,,,,,,,,,,167.46191769978032,173.4693831000477,Eimer,schlicht,"['Eimer', 'schlicht']",restudy,3,"['Telefon', 'Blume', 'Löffel', 'Schlüssel', 'Vase', 'Flasche', 'Schere', 'Geige', 'Uhr', 'Rucksack', 'Buch', 'Hut', 'Eimer', 'Stift', 'Trommel', 'Kette', 'Kerze', 'Ring', 'Lampe', 'Socke', 'Tasche', 'Tasse', 'Jacke', 'Fahrrad', 'Kamera', 'Würfel', 'Bürste', 'Hammer', 'Brille', 'Kiste']","['hübsch', 'hohl', 'flach', 'biegsam', 'robust', 'praktisch', 'flauschig', 'hässlich', 'lustig', 'lang', 'matt', 'kalt', 'schlicht']",2,4.472579399589449,None,,,,,,,,,,,,,,,,,,,,,,,,,,,,,,,,,,,,,,,,,,,,,,,,,,,,,,,,,,,,,,,,,3,2024-01-09_12h44.37.534,watkins1,2023.2.3,99.72098103160155,79,2024-01-09 12h44.43.383767 +0000,
,,,,,,,13,0,13,0,,,,,,,,,,,,,,,,,173.4788388996385,,,,,,,,,,173.46990429982543,173.960735199973,,,2,2.35038059996441,,,,,,,,,,,,,,,,,,,,,173.9607456997037,179.96149470005184,Stift,kaputt,"['Stift', 'kaputt']",restudy,3,"['Telefon', 'Blume', 'Löffel', 'Schlüssel', 'Vase', 'Flasche', 'Schere', 'Geige', 'Uhr', 'Rucksack', 'Buch', 'Hut', 'Eimer', 'Stift', 'Trommel', 'Kette', 'Kerze', 'Ring', 'Lampe', 'Socke', 'Tasche', 'Tasse', 'Jacke', 'Fahrrad', 'Kamera', 'Würfel', 'Bürste', 'Hammer', 'Brille', 'Kiste']","['hübsch', 'hohl', 'flach', 'biegsam', 'robust', 'praktisch', 'flauschig', 'hässlich', 'lustig', 'lang', 'matt', 'kalt', 'schlicht', 'kaputt']",2,2.35038059996441,None,,,,,,,,,,,,,,,,,,,,,,,,,,,,,,,,,,,,,,,,,,,,,,,,,,,,,,,,,,,,,,,,,3,2024-01-09_12h44.37.534,watkins1,2023.2.3,99.72098103160155,79,2024-01-09 12h44.43.383767 +0000,
,,,,,,,14,0,14,0,,,,,,,,,,,,,,,,,179.97097750008106,,,,,,,,,,179.96201130002737,180.45296599995345,,,2,4.057864199858159,,,,,,,,,,,,,,,,,,,,,180.45297569967806,186.4631202998571,Trommel,klobig,"['Trommel', 'klobig']",restudy,3,"['Telefon', 'Blume', 'Löffel', 'Schlüssel', 'Vase', 'Flasche', 'Schere', 'Geige', 'Uhr', 'Rucksack', 'Buch', 'Hut', 'Eimer', 'Stift', 'Trommel', 'Kette', 'Kerze', 'Ring', 'Lampe', 'Socke', 'Tasche', 'Tasse', 'Jacke', 'Fahrrad', 'Kamera', 'Würfel', 'Bürste', 'Hammer', 'Brille', 'Kiste']","['hübsch', 'hohl', 'flach', 'biegsam', 'robust', 'praktisch', 'flauschig', 'hässlich', 'lustig', 'lang', 'matt', 'kalt', 'schlicht', 'kaputt', 'klobig']",2,4.057864199858159,None,,,,,,,,,,,,,,,,,,,,,,,,,,,,,,,,,,,,,,,,,,,,,,,,,,,,,,,,,,,,,,,,,3,2024-01-09_12h44.37.534,watkins1,2023.2.3,99.72098103160155,79,2024-01-09 12h44.43.383767 +0000,
,,,,,,,15,0,15,0,,,,,,,,,,,,,,,,,186.472584199626,,,,,,,,,,186.46363399969414,186.95448819966987,,,2,1.7557800002396107,,,,,,,,,,,,,,,,,,,,,186.95449939975515,192.95885589998215,Kette,verspielt,"['Kette', 'verspielt']",test_adj,3,"['Telefon', 'Blume', 'Löffel', 'Schlüssel', 'Vase', 'Flasche', 'Schere', 'Geige', 'Uhr', 'Rucksack', 'Buch', 'Hut', 'Eimer', 'Stift', 'Trommel', 'Kette', 'Kerze', 'Ring', 'Lampe', 'Socke', 'Tasche', 'Tasse', 'Jacke', 'Fahrrad', 'Kamera', 'Würfel', 'Bürste', 'Hammer', 'Brille', 'Kiste']","['hübsch', 'hohl', 'flach', 'biegsam', 'robust', 'praktisch', 'flauschig', 'hässlich', 'lustig', 'lang', 'matt', 'kalt', 'schlicht', 'kaputt', 'klobig', 'verspielt']",2,1.7557800002396107,None,,,,,,,,,,,,,,,,,,,,,,,,,,,,,,,,,,,,,,,,,,,,,,,,,,,,,,,,,,,,,,,,,3,2024-01-09_12h44.37.534,watkins1,2023.2.3,99.72098103160155,79,2024-01-09 12h44.43.383767 +0000,
,,,,,,,16,0,16,0,,,,,,,,,,,,,,,,,192.96830509975553,,,,,,,,,,192.95938629982993,193.45044970000163,,,3,1.932298599742353,,,,,,,,,,,,,,,,,,,,,193.45045930007473,199.4599774000235,Kerze,elegant,"['Kerze', 'elegant']",restudy,3,"['Telefon', 'Blume', 'Löffel', 'Schlüssel', 'Vase', 'Flasche', 'Schere', 'Geige', 'Uhr', 'Rucksack', 'Buch', 'Hut', 'Eimer', 'Stift', 'Trommel', 'Kette', 'Kerze', 'Ring', 'Lampe', 'Socke', 'Tasche', 'Tasse', 'Jacke', 'Fahrrad', 'Kamera', 'Würfel', 'Bürste', 'Hammer', 'Brille', 'Kiste']","['hübsch', 'hohl', 'flach', 'biegsam', 'robust', 'praktisch', 'flauschig', 'hässlich', 'lustig', 'lang', 'matt', 'kalt', 'schlicht', 'kaputt', 'klobig', 'verspielt', 'elegant']",3,1.932298599742353,None,,,,,,,,,,,,,,,,,,,,,,,,,,,,,,,,,,,,,,,,,,,,,,,,,,,,,,,,,,,,,,,,,3,2024-01-09_12h44.37.534,watkins1,2023.2.3,99.72098103160155,79,2024-01-09 12h44.43.383767 +0000,
,,,,,,,17,0,17,0,,,,,,,,,,,,,,,,,199.46942529967055,,,,,,,,,,199.4604905997403,199.9514806997031,,,1,1.6881671999581158,,,,,,,,,,,,,,,,,,,,,199.9514909996651,205.95349260000512,Ring,kurz,"['Ring', 'kurz']",restudy,3,"['Telefon', 'Blume', 'Löffel', 'Schlüssel', 'Vase', 'Flasche', 'Schere', 'Geige', 'Uhr', 'Rucksack', 'Buch', 'Hut', 'Eimer', 'Stift', 'Trommel', 'Kette', 'Kerze', 'Ring', 'Lampe', 'Socke', 'Tasche', 'Tasse', 'Jacke', 'Fahrrad', 'Kamera', 'Würfel', 'Bürste', 'Hammer', 'Brille', 'Kiste']","['hübsch', 'hohl', 'flach', 'biegsam', 'robust', 'praktisch', 'flauschig', 'hässlich', 'lustig', 'lang', 'matt', 'kalt', 'schlicht', 'kaputt', 'klobig', 'verspielt', 'elegant', 'kurz']",1,1.6881671999581158,None,,,,,,,,,,,,,,,,,,,,,,,,,,,,,,,,,,,,,,,,,,,,,,,,,,,,,,,,,,,,,,,,,3,2024-01-09_12h44.37.534,watkins1,2023.2.3,99.72098103160155,79,2024-01-09 12h44.43.383767 +0000,
,,,,,,,18,0,18,0,,,,,,,,,,,,,,,,,205.96287549985573,,,,,,,,,,205.95402979990467,206.4450546996668,,,2,1.8419838999398053,,,,,,,,,,,,,,,,,,,,,206.44506479986012,212.44957399973646,Lampe,sauber,"['Lampe', 'sauber']",restudy,3,"['Telefon', 'Blume', 'Löffel', 'Schlüssel', 'Vase', 'Flasche', 'Schere', 'Geige', 'Uhr', 'Rucksack', 'Buch', 'Hut', 'Eimer', 'Stift', 'Trommel', 'Kette', 'Kerze', 'Ring', 'Lampe', 'Socke', 'Tasche', 'Tasse', 'Jacke', 'Fahrrad', 'Kamera', 'Würfel', 'Bürste', 'Hammer', 'Brille', 'Kiste']","['hübsch', 'hohl', 'flach', 'biegsam', 'robust', 'praktisch', 'flauschig', 'hässlich', 'lustig', 'lang', 'matt', 'kalt', 'schlicht', 'kaputt', 'klobig', 'verspielt', 'elegant', 'kurz', 'sauber']",2,1.8419838999398053,None,,,,,,,,,,,,,,,,,,,,,,,,,,,,,,,,,,,,,,,,,,,,,,,,,,,,,,,,,,,,,,,,,3,2024-01-09_12h44.37.534,watkins1,2023.2.3,99.72098103160155,79,2024-01-09 12h44.43.383767 +0000,
,,,,,,,19,0,19,0,,,,,,,,,,,,,,,,,212.45909629995003,,,,,,,,,,212.45010389992967,212.94137139990926,,,2,2.377802999690175,,,,,,,,,,,,,,,,,,,,,212.9413815997541,218.9505626996979,Socke,nachhaltig,"['Socke', 'nachhaltig']",test_adj,3,"['Telefon', 'Blume', 'Löffel', 'Schlüssel', 'Vase', 'Flasche', 'Schere', 'Geige', 'Uhr', 'Rucksack', 'Buch', 'Hut', 'Eimer', 'Stift', 'Trommel', 'Kette', 'Kerze', 'Ring', 'Lampe', 'Socke', 'Tasche', 'Tasse', 'Jacke', 'Fahrrad', 'Kamera', 'Würfel', 'Bürste', 'Hammer', 'Brille', 'Kiste']","['hübsch', 'hohl', 'flach', 'biegsam', 'robust', 'praktisch', 'flauschig', 'hässlich', 'lustig', 'lang', 'matt', 'kalt', 'schlicht', 'kaputt', 'klobig', 'verspielt', 'elegant', 'kurz', 'sauber', 'nachhaltig']",2,2.377802999690175,None,,,,,,,,,,,,,,,,,,,,,,,,,,,,,,,,,,,,,,,,,,,,,,,,,,,,,,,,,,,,,,,,,3,2024-01-09_12h44.37.534,watkins1,2023.2.3,99.72098103160155,79,2024-01-09 12h44.43.383767 +0000,
,,,,,,,20,0,20,0,,,,,,,,,,,,,,,,,218.96006379975006,,,,,,,,,,218.9510778998956,219.44218789972365,,,3,2.7889340999536216,,,,,,,,,,,,,,,,,,,,,219.44219819968566,225.44580890005454,Tasche,glatt,"['Tasche', 'glatt']",test_adj,3,"['Telefon', 'Blume', 'Löffel', 'Schlüssel', 'Vase', 'Flasche', 'Schere', 'Geige', 'Uhr', 'Rucksack', 'Buch', 'Hut', 'Eimer', 'Stift', 'Trommel', 'Kette', 'Kerze', 'Ring', 'Lampe', 'Socke', 'Tasche', 'Tasse', 'Jacke', 'Fahrrad', 'Kamera', 'Würfel', 'Bürste', 'Hammer', 'Brille', 'Kiste']","['hübsch', 'hohl', 'flach', 'biegsam', 'robust', 'praktisch', 'flauschig', 'hässlich', 'lustig', 'lang', 'matt', 'kalt', 'schlicht', 'kaputt', 'klobig', 'verspielt', 'elegant', 'kurz', 'sauber', 'nachhaltig', 'glatt']",3,2.7889340999536216,None,,,,,,,,,,,,,,,,,,,,,,,,,,,,,,,,,,,,,,,,,,,,,,,,,,,,,,,,,,,,,,,,,3,2024-01-09_12h44.37.534,watkins1,2023.2.3,99.72098103160155,79,2024-01-09 12h44.43.383767 +0000,
,,,,,,,21,0,21,0,,,,,,,,,,,,,,,,,225.4552960000001,,,,,,,,,,225.4463223000057,225.93729669973254,,,1,3.0058438000269234,,,,,,,,,,,,,,,,,,,,,225.93730690004304,231.94623739970848,Tasse,zart,"['Tasse', 'zart']",restudy,3,"['Telefon', 'Blume', 'Löffel', 'Schlüssel', 'Vase', 'Flasche', 'Schere', 'Geige', 'Uhr', 'Rucksack', 'Buch', 'Hut', 'Eimer', 'Stift', 'Trommel', 'Kette', 'Kerze', 'Ring', 'Lampe', 'Socke', 'Tasche', 'Tasse', 'Jacke', 'Fahrrad', 'Kamera', 'Würfel', 'Bürste', 'Hammer', 'Brille', 'Kiste']","['hübsch', 'hohl', 'flach', 'biegsam', 'robust', 'praktisch', 'flauschig', 'hässlich', 'lustig', 'lang', 'matt', 'kalt', 'schlicht', 'kaputt', 'klobig', 'verspielt', 'elegant', 'kurz', 'sauber', 'nachhaltig', 'glatt', 'zart']",1,3.0058438000269234,None,,,,,,,,,,,,,,,,,,,,,,,,,,,,,,,,,,,,,,,,,,,,,,,,,,,,,,,,,,,,,,,,,3,2024-01-09_12h44.37.534,watkins1,2023.2.3,99.72098103160155,79,2024-01-09 12h44.43.383767 +0000,
,,,,,,,22,0,22,0,,,,,,,,,,,,,,,,,231.95566659979522,,,,,,,,,,231.94675859995186,232.43771329987794,,,2,1.736544799990952,,,,,,,,,,,,,,,,,,,,,232.43772349972278,238.44401409989223,Jacke,schmutzig,"['Jacke', 'schmutzig']",test_adj,3,"['Telefon', 'Blume', 'Löffel', 'Schlüssel', 'Vase', 'Flasche', 'Schere', 'Geige', 'Uhr', 'Rucksack', 'Buch', 'Hut', 'Eimer', 'Stift', 'Trommel', 'Kette', 'Kerze', 'Ring', 'Lampe', 'Socke', 'Tasche', 'Tasse', 'Jacke', 'Fahrrad', 'Kamera', 'Würfel', 'Bürste', 'Hammer', 'Brille', 'Kiste']","['hübsch', 'hohl', 'flach', 'biegsam', 'robust', 'praktisch', 'flauschig', 'hässlich', 'lustig', 'lang', 'matt', 'kalt', 'schlicht', 'kaputt', 'klobig', 'verspielt', 'elegant', 'kurz', 'sauber', 'nachhaltig', 'glatt', 'zart', 'schmutzig']",2,1.736544799990952,None,,,,,,,,,,,,,,,,,,,,,,,,,,,,,,,,,,,,,,,,,,,,,,,,,,,,,,,,,,,,,,,,,3,2024-01-09_12h44.37.534,watkins1,2023.2.3,99.72098103160155,79,2024-01-09 12h44.43.383767 +0000,
,,,,,,,23,0,23,0,,,,,,,,,,,,,,,,,238.45362060004845,,,,,,,,,,238.4445948996581,238.93603329965845,,,1,2.3579845000058413,,,,,,,,,,,,,,,,,,,,,238.9360447996296,244.93735469970852,Fahrrad,rustikal,"['Fahrrad', 'rustikal']",restudy,3,"['Telefon', 'Blume', 'Löffel', 'Schlüssel', 'Vase', 'Flasche', 'Schere', 'Geige', 'Uhr', 'Rucksack', 'Buch', 'Hut', 'Eimer', 'Stift', 'Trommel', 'Kette', 'Kerze', 'Ring', 'Lampe', 'Socke', 'Tasche', 'Tasse', 'Jacke', 'Fahrrad', 'Kamera', 'Würfel', 'Bürste', 'Hammer', 'Brille', 'Kiste']","['hübsch', 'hohl', 'flach', 'biegsam', 'robust', 'praktisch', 'flauschig', 'hässlich', 'lustig', 'lang', 'matt', 'kalt', 'schlicht', 'kaputt', 'klobig', 'verspielt', 'elegant', 'kurz', 'sauber', 'nachhaltig', 'glatt', 'zart', 'schmutzig', 'rustikal']",1,2.3579845000058413,None,,,,,,,,,,,,,,,,,,,,,,,,,,,,,,,,,,,,,,,,,,,,,,,,,,,,,,,,,,,,,,,,,3,2024-01-09_12h44.37.534,watkins1,2023.2.3,99.72098103160155,79,2024-01-09 12h44.43.383767 +0000,
,,,,,,,24,0,24,0,,,,,,,,,,,,,,,,,244.94681159965694,,,,,,,,,,244.93787269992754,245.4286102997139,,,1,4.010380399879068,,,,,,,,,,,,,,,,,,,,,245.42862099967897,251.43283029971644,Kamera,kratzig,"['Kamera', 'kratzig']",test_adj,3,"['Telefon', 'Blume', 'Löffel', 'Schlüssel', 'Vase', 'Flasche', 'Schere', 'Geige', 'Uhr', 'Rucksack', 'Buch', 'Hut', 'Eimer', 'Stift', 'Trommel', 'Kette', 'Kerze', 'Ring', 'Lampe', 'Socke', 'Tasche', 'Tasse', 'Jacke', 'Fahrrad', 'Kamera', 'Würfel', 'Bürste', 'Hammer', 'Brille', 'Kiste']","['hübsch', 'hohl', 'flach', 'biegsam', 'robust', 'praktisch', 'flauschig', 'hässlich', 'lustig', 'lang', 'matt', 'kalt', 'schlicht', 'kaputt', 'klobig', 'verspielt', 'elegant', 'kurz', 'sauber', 'nachhaltig', 'glatt', 'zart', 'schmutzig', 'rustikal', 'kratzig']",1,4.010380399879068,None,,,,,,,,,,,,,,,,,,,,,,,,,,,,,,,,,,,,,,,,,,,,,,,,,,,,,,,,,,,,,,,,,3,2024-01-09_12h44.37.534,watkins1,2023.2.3,99.72098103160155,79,2024-01-09 12h44.43.383767 +0000,
,,,,,,,25,0,25,0,,,,,,,,,,,,,,,,,251.44228830002248,,,,,,,,,,251.43334779981524,251.92441409965977,,,1,1.5220872000791132,,,,,,,,,,,,,,,,,,,,,251.92442459985614,257.92709899973124,Würfel,nass,"['Würfel', 'nass']",test_adj,3,"['Telefon', 'Blume', 'Löffel', 'Schlüssel', 'Vase', 'Flasche', 'Schere', 'Geige', 'Uhr', 'Rucksack', 'Buch', 'Hut', 'Eimer', 'Stift', 'Trommel', 'Kette', 'Kerze', 'Ring', 'Lampe', 'Socke', 'Tasche', 'Tasse', 'Jacke', 'Fahrrad', 'Kamera', 'Würfel', 'Bürste', 'Hammer', 'Brille', 'Kiste']","['hübsch', 'hohl', 'flach', 'biegsam', 'robust', 'praktisch', 'flauschig', 'hässlich', 'lustig', 'lang', 'matt', 'kalt', 'schlicht', 'kaputt', 'klobig', 'verspielt', 'elegant', 'kurz', 'sauber', 'nachhaltig', 'glatt', 'zart', 'schmutzig', 'rustikal', 'kratzig', 'nass']",1,1.5220872000791132,None,,,,,,,,,,,,,,,,,,,,,,,,,,,,,,,,,,,,,,,,,,,,,,,,,,,,,,,,,,,,,,,,,3,2024-01-09_12h44.37.534,watkins1,2023.2.3,99.72098103160155,79,2024-01-09 12h44.43.383767 +0000,
,,,,,,,26,0,26,0,,,,,,,,,,,,,,,,,257.9365583998151,,,,,,,,,,257.9276100997813,258.4184560999274,,,2,3.596146499738097,,,,,,,,,,,,,,,,,,,,,258.4184666997753,264.4218981000595,Bürste,dunkel,"['Bürste', 'dunkel']",restudy,3,"['Telefon', 'Blume', 'Löffel', 'Schlüssel', 'Vase', 'Flasche', 'Schere', 'Geige', 'Uhr', 'Rucksack', 'Buch', 'Hut', 'Eimer', 'Stift', 'Trommel', 'Kette', 'Kerze', 'Ring', 'Lampe', 'Socke', 'Tasche', 'Tasse', 'Jacke', 'Fahrrad', 'Kamera', 'Würfel', 'Bürste', 'Hammer', 'Brille', 'Kiste']","['hübsch', 'hohl', 'flach', 'biegsam', 'robust', 'praktisch', 'flauschig', 'hässlich', 'lustig', 'lang', 'matt', 'kalt', 'schlicht', 'kaputt', 'klobig', 'verspielt', 'elegant', 'kurz', 'sauber', 'nachhaltig', 'glatt', 'zart', 'schmutzig', 'rustikal', 'kratzig', 'nass', 'dunkel']",2,3.596146499738097,None,,,,,,,,,,,,,,,,,,,,,,,,,,,,,,,,,,,,,,,,,,,,,,,,,,,,,,,,,,,,,,,,,3,2024-01-09_12h44.37.534,watkins1,2023.2.3,99.72098103160155,79,2024-01-09 12h44.43.383767 +0000,
,,,,,,,27,0,27,0,,,,,,,,,,,,,,,,,264.4314394998364,,,,,,,,,,264.42241670005023,264.9134938996285,,,1,2.381635900121182,,,,,,,,,,,,,,,,,,,,,264.9135042997077,270.9232660997659,Hammer,niedlich,"['Hammer', 'niedlich']",restudy,3,"['Telefon', 'Blume', 'Löffel', 'Schlüssel', 'Vase', 'Flasche', 'Schere', 'Geige', 'Uhr', 'Rucksack', 'Buch', 'Hut', 'Eimer', 'Stift', 'Trommel', 'Kette', 'Kerze', 'Ring', 'Lampe', 'Socke', 'Tasche', 'Tasse', 'Jacke', 'Fahrrad', 'Kamera', 'Würfel', 'Bürste', 'Hammer', 'Brille', 'Kiste']","['hübsch', 'hohl', 'flach', 'biegsam', 'robust', 'praktisch', 'flauschig', 'hässlich', 'lustig', 'lang', 'matt', 'kalt', 'schlicht', 'kaputt', 'klobig', 'verspielt', 'elegant', 'kurz', 'sauber', 'nachhaltig', 'glatt', 'zart', 'schmutzig', 'rustikal', 'kratzig', 'nass', 'dunkel', 'niedlich']",1,2.381635900121182,None,,,,,,,,,,,,,,,,,,,,,,,,,,,,,,,,,,,,,,,,,,,,,,,,,,,,,,,,,,,,,,,,,3,2024-01-09_12h44.37.534,watkins1,2023.2.3,99.72098103160155,79,2024-01-09 12h44.43.383767 +0000,
,,,,,,,28,0,28,0,,,,,,,,,,,,,,,,,270.93275319971144,,,,,,,,,,270.9237814997323,271.41496889991686,,,1,3.552533400245011,,,,,,,,,,,,,,,,,,,,,271.41497949976474,277.4247731999494,Brille,krumm,"['Brille', 'krumm']",test_adj,3,"['Telefon', 'Blume', 'Löffel', 'Schlüssel', 'Vase', 'Flasche', 'Schere', 'Geige', 'Uhr', 'Rucksack', 'Buch', 'Hut', 'Eimer', 'Stift', 'Trommel', 'Kette', 'Kerze', 'Ring', 'Lampe', 'Socke', 'Tasche', 'Tasse', 'Jacke', 'Fahrrad', 'Kamera', 'Würfel', 'Bürste', 'Hammer', 'Brille', 'Kiste']","['hübsch', 'hohl', 'flach', 'biegsam', 'robust', 'praktisch', 'flauschig', 'hässlich', 'lustig', 'lang', 'matt', 'kalt', 'schlicht', 'kaputt', 'klobig', 'verspielt', 'elegant', 'kurz', 'sauber', 'nachhaltig', 'glatt', 'zart', 'schmutzig', 'rustikal', 'kratzig', 'nass', 'dunkel', 'niedlich', 'krumm']",1,3.552533400245011,None,,,,,,,,,,,,,,,,,,,,,,,,,,,,,,,,,,,,,,,,,,,,,,,,,,,,,,,,,,,,,,,,,3,2024-01-09_12h44.37.534,watkins1,2023.2.3,99.72098103160155,79,2024-01-09 12h44.43.383767 +0000,
,,,,,,,29,0,29,0,,,,,,,,,,,,,,,,,277.43427219986916,,,,,,,,,,277.4253026000224,277.9169067996554,,,3,1.9452054002322257,,,,,,,,,,,,,,,,,,,,,277.9169178996235,283.9200006998144,Kiste,groß,"['Kiste', 'groß']",test_adj,3,"['Telefon', 'Blume', 'Löffel', 'Schlüssel', 'Vase', 'Flasche', 'Schere', 'Geige', 'Uhr', 'Rucksack', 'Buch', 'Hut', 'Eimer', 'Stift', 'Trommel', 'Kette', 'Kerze', 'Ring', 'Lampe', 'Socke', 'Tasche', 'Tasse', 'Jacke', 'Fahrrad', 'Kamera', 'Würfel', 'Bürste', 'Hammer', 'Brille', 'Kiste']","['hübsch', 'hohl', 'flach', 'biegsam', 'robust', 'praktisch', 'flauschig', 'hässlich', 'lustig', 'lang', 'matt', 'kalt', 'schlicht', 'kaputt', 'klobig', 'verspielt', 'elegant', 'kurz', 'sauber', 'nachhaltig', 'glatt', 'zart', 'schmutzig', 'rustikal', 'kratzig', 'nass', 'dunkel', 'niedlich', 'krumm', 'groß']",3,1.9452054002322257,None,,,,,,,,,,,,,,,,,,,,,,,,,,,,,,,,,,,,,,,,,,,,,,,,,,,,,,,,,,,,,,,,,3,2024-01-09_12h44.37.534,watkins1,2023.2.3,99.72098103160155,79,2024-01-09 12h44.43.383767 +0000,
,,,,,,,,,,,0,0,0,0,,,,,,,,,,,,,283.9295067000203,,,,,,,,,,283.9208472999744,284.41153899999335,,,[],[],,,,,,,,,,,glatt,None,None,,,,,,,,,,Tasche,glatt,"['Tasche', 'glatt']",test_adj,3,,,,,,283.9207689999603,283.9208195996471,"['Tasche', 'Kamera', 'Löffel', 'Kette', 'Jacke', 'Uhr', 'Kerze', 'Kiste', 'Socke', 'Tasse', 'Trommel', 'Telefon', 'Rucksack', 'Schlüssel', 'Vase', 'Eimer', 'Hut', 'Buch', 'Geige', 'Bürste', 'Würfel', 'Blume', 'Stift', 'Hammer', 'Brille', 'Ring', 'Lampe', 'Flasche', 'Fahrrad', 'Schere']",284.4115491998382,284.4141649999656,None,284.41434699995443,284.416861299891,None,284.4170201998204,284.41948049981147,None,284.4196387999691,0,290.42457180004567,290.4245858998038,290.4258876000531,,,,,,,,,,,,,,,,,,,,,,,,,,,,,,,,,,,,,,,,,,,,,,,,3,2024-01-09_12h44.37.534,watkins1,2023.2.3,99.72098103160155,79,2024-01-09 12h44.43.383767 +0000,
,,,,,,,,,,,1,0,1,0,,,,,,,,,,,,,290.4344298997894,,,,,,,,,,290.42617869982496,290.916388399899,,,[],[],,,,,,,,,,,ve,None,None,,,,,,,,,,Kamera,kratzig,"['Kamera', 'kratzig']",test_adj,3,,,,,,290.42611059965566,290.4261493999511,"['Tasche', 'Kamera', 'Löffel', 'Kette', 'Jacke', 'Uhr', 'Kerze', 'Kiste', 'Socke', 'Tasse', 'Trommel', 'Telefon', 'Rucksack', 'Schlüssel', 'Vase', 'Eimer', 'Hut', 'Buch', 'Geige', 'Bürste', 'Würfel', 'Blume', 'Stift', 'Hammer', 'Brille', 'Ring', 'Lampe', 'Flasche', 'Fahrrad', 'Schere']",290.91639939974993,290.9191256999038,None,290.91924719978124,290.9218210000545,None,290.92193099996075,290.9246250996366,None,290.92473430000246,0,296.9300212999806,296.9300354998559,296.9313652999699,,,,,,,,,,,,,,,,,,,,,,,,,,,,,,,,,,,,,,,,,,,,,,,,3,2024-01-09_12h44.37.534,watkins1,2023.2.3,99.72098103160155,79,2024-01-09 12h44.43.383767 +0000,
,,,,,,,,,,,2,0,2,0,,,,,,,,,,,,,296.9398525999859,,,,,,,,,,296.9316627997905,297.4219056996517,,,[],[],,,,,,,,,,,,None,None,,,,,,,,,,Löffel,flach,"['Löffel', 'flach']",restudy,3,,,,,,296.9315921999514,296.93163219979033,"['Tasche', 'Kamera', 'Löffel', 'Kette', 'Jacke', 'Uhr', 'Kerze', 'Kiste', 'Socke', 'Tasse', 'Trommel', 'Telefon', 'Rucksack', 'Schlüssel', 'Vase', 'Eimer', 'Hut', 'Buch', 'Geige', 'Bürste', 'Würfel', 'Blume', 'Stift', 'Hammer', 'Brille', 'Ring', 'Lampe', 'Flasche', 'Fahrrad', 'Schere']",297.42191619984806,297.4246445996687,None,297.4247638997622,303.42680979985744,1,303.42720020003617,303.4298832998611,None,303.4299930999987,,303.43149939971045,303.4315108996816,303.4326637000777,4.317935400176793,None,,,,,,,,,,,,,,,,,,,,,,,,,,,,,,,,,,,,,,,,,,,,,,3,2024-01-09_12h44.37.534,watkins1,2023.2.3,99.72098103160155,79,2024-01-09 12h44.43.383767 +0000,
,,,,,,,,,,,3,0,3,0,,,,,,,,,,,,,303.436356799677,,,,,,,,,,303.4329452998936,303.9284188998863,,,[],[],,,,,,,,,,,verspielt,None,None,,,,,,,,,,Kette,verspielt,"['Kette', 'verspielt']",test_adj,3,,,,,,303.43287899997085,303.43291749991477,"['Tasche', 'Kamera', 'Löffel', 'Kette', 'Jacke', 'Uhr', 'Kerze', 'Kiste', 'Socke', 'Tasse', 'Trommel', 'Telefon', 'Rucksack', 'Schlüssel', 'Vase', 'Eimer', 'Hut', 'Buch', 'Geige', 'Bürste', 'Würfel', 'Blume', 'Stift', 'Hammer', 'Brille', 'Ring', 'Lampe', 'Flasche', 'Fahrrad', 'Schere']",303.9284301996231,303.9310868997127,None,303.93120809970424,303.9326241998933,None,303.9327423996292,303.93433369975537,None,303.93443979974836,0,309.93619039980695,309.9362045000307,309.93759889993817,,,,,,,,,,,,,,,,,,,,,,,,,,,,,,,,,,,,,,,,,,,,,,,,3,2024-01-09_12h44.37.534,watkins1,2023.2.3,99.72098103160155,79,2024-01-09 12h44.43.383767 +0000,
,,,,,,,,,,,4,0,4,0,,,,,,,,,,,,,309.9460244998336,,,,,,,,,,309.93789190007374,310.4284203997813,,,[],[],,,,,,,,,,,schmutzig,None,None,,,,,,,,,,Jacke,schmutzig,"['Jacke', 'schmutzig']",test_adj,3,,,,,,309.937822799664,309.93786290008575,"['Tasche', 'Kamera', 'Löffel', 'Kette', 'Jacke', 'Uhr', 'Kerze', 'Kiste', 'Socke', 'Tasse', 'Trommel', 'Telefon', 'Rucksack', 'Schlüssel', 'Vase', 'Eimer', 'Hut', 'Buch', 'Geige', 'Bürste', 'Würfel', 'Blume', 'Stift', 'Hammer', 'Brille', 'Ring', 'Lampe', 'Flasche', 'Fahrrad', 'Schere']",310.4284308999777,310.4311696998775,None,310.43129249988124,310.4338795999065,None,310.43398820003495,310.436583600007,None,310.43669010000303,0,316.4416290996596,316.44164359988645,316.4430371997878,,,,,,,,,,,,,,,,,,,,,,,,,,,,,,,,,,,,,,,,,,,,,,,,3,2024-01-09_12h44.37.534,watkins1,2023.2.3,99.72098103160155,79,2024-01-09 12h44.43.383767 +0000,
,,,,,,,,,,,5,0,5,0,,,,,,,,,,,,,316.4514814000577,,,,,,,,,,316.44332899991423,316.93346709990874,,,[],[],,,,,,,,,,,lustig,None,None,,,,,,,,,,Uhr,lustig,"['Uhr', 'lustig']",test_adj,3,,,,,,316.4432558999397,316.44329989980906,"['Tasche', 'Kamera', 'Löffel', 'Kette', 'Jacke', 'Uhr', 'Kerze', 'Kiste', 'Socke', 'Tasse', 'Trommel', 'Telefon', 'Rucksack', 'Schlüssel', 'Vase', 'Eimer', 'Hut', 'Buch', 'Geige', 'Bürste', 'Würfel', 'Blume', 'Stift', 'Hammer', 'Brille', 'Ring', 'Lampe', 'Flasche', 'Fahrrad', 'Schere']",316.933477899991,316.93615480000153,None,316.93628009967506,316.9387502996251,None,316.93886019987985,316.941328200046,None,316.94143689982593,0,322.94564139982685,322.94565539993346,322.9469909998588,,,,,,,,,,,,,,,,,,,,,,,,,,,,,,,,,,,,,,,,,,,,,,,,3,2024-01-09_12h44.37.534,watkins1,2023.2.3,99.72098103160155,79,2024-01-09 12h44.43.383767 +0000,
,,,,,,,,,,,6,0,6,0,,,,,,,,,,,,,322.9554206999019,,,,,,,,,,322.9472810998559,323.437466299627,,,[],[],,,,,,,,,,,,None,None,,,,,,,,,,Kerze,elegant,"['Kerze', 'elegant']",restudy,3,,,,,,322.94720959989354,322.94725179998204,"['Tasche', 'Kamera', 'Löffel', 'Kette', 'Jacke', 'Uhr', 'Kerze', 'Kiste', 'Socke', 'Tasse', 'Trommel', 'Telefon', 'Rucksack', 'Schlüssel', 'Vase', 'Eimer', 'Hut', 'Buch', 'Geige', 'Bürste', 'Würfel', 'Blume', 'Stift', 'Hammer', 'Brille', 'Ring', 'Lampe', 'Flasche', 'Fahrrad', 'Schere']",323.43747679982334,323.4401652999222,None,323.4402863997966,329.4413064997643,2,329.441594499629,329.44426759984344,None,329.44437659997493,,329.44584659999236,329.4458580999635,329.44705089973286,5.151084899902344,None,,,,,,,,,,,,,,,,,,,,,,,,,,,,,,,,,,,,,,,,,,,,,,3,2024-01-09_12h44.37.534,watkins1,2023.2.3,99.72098103160155,79,2024-01-09 12h44.43.383767 +0000,
,,,,,,,,,,,7,0,7,0,,,,,,,,,,,,,329.4507782999426,,,,,,,,,,329.44732679985464,329.94289959967136,,,[],[],,,,,,,,,,,groß,None,None,,,,,,,,,,Kiste,groß,"['Kiste', 'groß']",test_adj,3,,,,,,329.44726140005514,329.44730009976774,"['Tasche', 'Kamera', 'Löffel', 'Kette', 'Jacke', 'Uhr', 'Kerze', 'Kiste', 'Socke', 'Tasse', 'Trommel', 'Telefon', 'Rucksack', 'Schlüssel', 'Vase', 'Eimer', 'Hut', 'Buch', 'Geige', 'Bürste', 'Würfel', 'Blume', 'Stift', 'Hammer', 'Brille', 'Ring', 'Lampe', 'Flasche', 'Fahrrad', 'Schere']",329.9429103997536,329.9457743000239,None,329.945894499775,329.9473076998256,None,329.947418499738,329.94883619993925,None,329.94894369971007,0,335.95120729971677,335.9512208998203,335.9523923997767,,,,,,,,,,,,,,,,,,,,,,,,,,,,,,,,,,,,,,,,,,,,,,,,3,2024-01-09_12h44.37.534,watkins1,2023.2.3,99.72098103160155,79,2024-01-09 12h44.43.383767 +0000,
,,,,,,,,,,,8,0,8,0,,,,,,,,,,,,,335.961007299833,,,,,,,,,,335.9526773998514,336.443105999846,,,[],[],,,,,,,,,,,nachhaltig,None,None,,,,,,,,,,Socke,nachhaltig,"['Socke', 'nachhaltig']",test_adj,3,,,,,,335.9526102999225,335.95264869974926,"['Tasche', 'Kamera', 'Löffel', 'Kette', 'Jacke', 'Uhr', 'Kerze', 'Kiste', 'Socke', 'Tasse', 'Trommel', 'Telefon', 'Rucksack', 'Schlüssel', 'Vase', 'Eimer', 'Hut', 'Buch', 'Geige', 'Bürste', 'Würfel', 'Blume', 'Stift', 'Hammer', 'Brille', 'Ring', 'Lampe', 'Flasche', 'Fahrrad', 'Schere']",336.4431169000454,336.4458284000866,None,336.44595569977537,336.44837799994275,None,336.44848780008033,336.4509179000743,None,336.45102939987555,0,342.4557920000516,342.4558053999208,342.4572393000126,,,,,,,,,,,,,,,,,,,,,,,,,,,,,,,,,,,,,,,,,,,,,,,,3,2024-01-09_12h44.37.534,watkins1,2023.2.3,99.72098103160155,79,2024-01-09 12h44.43.383767 +0000,
,,,,,,,,,,,9,0,9,0,,,,,,,,,,,,,342.4655561000109,,,,,,,,,,342.4575227997266,342.94774789968506,,,[],[],,,,,,,,,,,,None,None,,,,,,,,,,Tasse,zart,"['Tasse', 'zart']",restudy,3,,,,,,342.45745559968054,342.4574951999821,"['Tasche', 'Kamera', 'Löffel', 'Kette', 'Jacke', 'Uhr', 'Kerze', 'Kiste', 'Socke', 'Tasse', 'Trommel', 'Telefon', 'Rucksack', 'Schlüssel', 'Vase', 'Eimer', 'Hut', 'Buch', 'Geige', 'Bürste', 'Würfel', 'Blume', 'Stift', 'Hammer', 'Brille', 'Ring', 'Lampe', 'Flasche', 'Fahrrad', 'Schere']",342.9477585996501,342.9505827999674,None,342.95070569962263,348.95750369969755,1,348.95779579970986,348.9603657000698,None,348.9604809996672,,348.96195229981095,348.9619636000134,348.9630048000254,2.7288416996598244,None,,,,,,,,,,,,,,,,,,,,,,,,,,,,,,,,,,,,,,,,,,,,,,3,2024-01-09_12h44.37.534,watkins1,2023.2.3,99.72098103160155,79,2024-01-09 12h44.43.383767 +0000,
,,,,,,,,,,,10,0,10,0,,,,,,,,,,,,,348.9669830999337,,,,,,,,,,348.9632878000848,349.4591405997053,,,[],[],,,,,,,,,,,,None,None,,,,,,,,,,Trommel,klobig,"['Trommel', 'klobig']",restudy,3,,,,,,348.9632183997892,348.9632568000816,"['Tasche', 'Kamera', 'Löffel', 'Kette', 'Jacke', 'Uhr', 'Kerze', 'Kiste', 'Socke', 'Tasse', 'Trommel', 'Telefon', 'Rucksack', 'Schlüssel', 'Vase', 'Eimer', 'Hut', 'Buch', 'Geige', 'Bürste', 'Würfel', 'Blume', 'Stift', 'Hammer', 'Brille', 'Ring', 'Lampe', 'Flasche', 'Fahrrad', 'Schere']",349.4591512000188,349.4617021000013,None,349.46182269975543,355.46466589998454,2,355.46496019978076,355.46769759990275,None,355.467813400086,,355.4690330000594,355.46904469979927,355.4702314999886,3.3851282000541687,None,,,,,,,,,,,,,,,,,,,,,,,,,,,,,,,,,,,,,,,,,,,,,,3,2024-01-09_12h44.37.534,watkins1,2023.2.3,99.72098103160155,79,2024-01-09 12h44.43.383767 +0000,
,,,,,,,,,,,11,0,11,0,,,,,,,,,,,,,355.47420969977975,,,,,,,,,,355.4705175999552,355.96636969968677,,,[],[],,,,,,,,,,,,None,None,,,,,,,,,,Telefon,hübsch,"['Telefon', 'hübsch']",test_adj,3,,,,,,355.4704495999031,355.47048989962786,"['Tasche', 'Kamera', 'Löffel', 'Kette', 'Jacke', 'Uhr', 'Kerze', 'Kiste', 'Socke', 'Tasse', 'Trommel', 'Telefon', 'Rucksack', 'Schlüssel', 'Vase', 'Eimer', 'Hut', 'Buch', 'Geige', 'Bürste', 'Würfel', 'Blume', 'Stift', 'Hammer', 'Brille', 'Ring', 'Lampe', 'Flasche', 'Fahrrad', 'Schere']",355.9663811000064,355.96930589992553,None,355.9694284000434,355.9708817997016,None,355.97098959982395,355.97244459996,None,355.9725520997308,0,361.9753427999094,361.97535640001297,361.97675069980323,,,,,,,,,,,,,,,,,,,,,,,,,,,,,,,,,,,,,,,,,,,,,,,,3,2024-01-09_12h44.37.534,watkins1,2023.2.3,99.72098103160155,79,2024-01-09 12h44.43.383767 +0000,
,,,,,,,,,,,12,0,12,0,,,,,,,,,,,,,361.9852068996988,,,,,,,,,,361.9770327997394,362.46721059968695,,,[],[],,,,,,,,,,,,None,None,,,,,,,,,,Rucksack,lang,"['Rucksack', 'lang']",restudy,3,,,,,,361.97696630004793,361.97700409963727,"['Tasche', 'Kamera', 'Löffel', 'Kette', 'Jacke', 'Uhr', 'Kerze', 'Kiste', 'Socke', 'Tasse', 'Trommel', 'Telefon', 'Rucksack', 'Schlüssel', 'Vase', 'Eimer', 'Hut', 'Buch', 'Geige', 'Bürste', 'Würfel', 'Blume', 'Stift', 'Hammer', 'Brille', 'Ring', 'Lampe', 'Flasche', 'Fahrrad', 'Schere']",362.46722089964896,362.4699454996735,None,362.4700660998933,368.47216239990667,1,368.4724586000666,368.4751848997548,None,368.4752976996824,,368.4765134998597,368.4765248997137,368.47756919963285,3.9773756000213325,None,,,,,,,,,,,,,,,,,,,,,,,,,,,,,,,,,,,,,,,,,,,,,,3,2024-01-09_12h44.37.534,watkins1,2023.2.3,99.72098103160155,79,2024-01-09 12h44.43.383767 +0000,
,,,,,,,,,,,13,0,13,0,,,,,,,,,,,,,368.4816568000242,,,,,,,,,,368.47785179968923,368.97368220007047,,,[],[],,,,,,,,,,,,None,None,,,,,,,,,,Schlüssel,biegsam,"['Schlüssel', 'biegsam']",restudy,3,,,,,,368.4777859998867,368.4778245999478,"['Tasche', 'Kamera', 'Löffel', 'Kette', 'Jacke', 'Uhr', 'Kerze', 'Kiste', 'Socke', 'Tasse', 'Trommel', 'Telefon', 'Rucksack', 'Schlüssel', 'Vase', 'Eimer', 'Hut', 'Buch', 'Geige', 'Bürste', 'Würfel', 'Blume', 'Stift', 'Hammer', 'Brille', 'Ring', 'Lampe', 'Flasche', 'Fahrrad', 'Schere']",368.9736937000416,368.97637839987874,None,368.97650219965726,374.9791711997241,1,374.9794586999342,374.9822856998071,None,374.98239659983665,,374.98362809978426,374.98363949963823,374.98482559993863,2.558437100145966,None,,,,,,,,,,,,,,,,,,,,,,,,,,,,,,,,,,,,,,,,,,,,,,3,2024-01-09_12h44.37.534,watkins1,2023.2.3,99.72098103160155,79,2024-01-09 12h44.43.383767 +0000,
,,,,,,,,,,,14,0,14,0,,,,,,,,,,,,,374.9886258998886,,,,,,,,,,374.9851178000681,375.4806752996519,,,[],[],,,,,,,,,,,robust,None,None,,,,,,,,,,Vase,robust,"['Vase', 'robust']",test_adj,3,,,,,,374.9850526000373,374.985090599861,"['Tasche', 'Kamera', 'Löffel', 'Kette', 'Jacke', 'Uhr', 'Kerze', 'Kiste', 'Socke', 'Tasse', 'Trommel', 'Telefon', 'Rucksack', 'Schlüssel', 'Vase', 'Eimer', 'Hut', 'Buch', 'Geige', 'Bürste', 'Würfel', 'Blume', 'Stift', 'Hammer', 'Brille', 'Ring', 'Lampe', 'Flasche', 'Fahrrad', 'Schere']",375.48068619985133,375.48327009985223,None,375.4833925999701,375.4846879998222,None,375.4847968998365,375.4860975998454,None,375.4862043997273,0,381.487986699678,381.4880007999018,381.48938689986244,,,,,,,,,,,,,,,,,,,,,,,,,,,,,,,,,,,,,,,,,,,,,,,,3,2024-01-09_12h44.37.534,watkins1,2023.2.3,99.72098103160155,79,2024-01-09 12h44.43.383767 +0000,
,,,,,,,,,,,15,0,15,0,,,,,,,,,,,,,381.49776110006496,,,,,,,,,,381.48970329994336,381.9796052998863,,,[],[],,,,,,,,,,,,None,None,,,,,,,,,,Eimer,schlicht,"['Eimer', 'schlicht']",restudy,3,,,,,,381.489636299666,381.4896748997271,"['Tasche', 'Kamera', 'Löffel', 'Kette', 'Jacke', 'Uhr', 'Kerze', 'Kiste', 'Socke', 'Tasse', 'Trommel', 'Telefon', 'Rucksack', 'Schlüssel', 'Vase', 'Eimer', 'Hut', 'Buch', 'Geige', 'Bürste', 'Würfel', 'Blume', 'Stift', 'Hammer', 'Brille', 'Ring', 'Lampe', 'Flasche', 'Fahrrad', 'Schere']",381.97961620008573,381.98233649972826,None,381.98245880007744,387.98856229986995,1,387.98884849995375,387.9916002997197,None,387.9917095997371,,387.9931552000344,387.99316670000553,387.99435879988596,4.152782599907368,None,,,,,,,,,,,,,,,,,,,,,,,,,,,,,,,,,,,,,,,,,,,,,,3,2024-01-09_12h44.37.534,watkins1,2023.2.3,99.72098103160155,79,2024-01-09 12h44.43.383767 +0000,
,,,,,,,,,,,16,0,16,0,,,,,,,,,,,,,387.9980299999006,,,,,,,,,,387.99463319964707,388.49017809983343,,,[],[],,,,,,,,,,,,None,None,,,,,,,,,,Hut,kalt,"['Hut', 'kalt']",test_adj,3,,,,,,387.99456879962236,387.99460669979453,"['Tasche', 'Kamera', 'Löffel', 'Kette', 'Jacke', 'Uhr', 'Kerze', 'Kiste', 'Socke', 'Tasse', 'Trommel', 'Telefon', 'Rucksack', 'Schlüssel', 'Vase', 'Eimer', 'Hut', 'Buch', 'Geige', 'Bürste', 'Würfel', 'Blume', 'Stift', 'Hammer', 'Brille', 'Ring', 'Lampe', 'Flasche', 'Fahrrad', 'Schere']",388.4901886000298,388.4927769000642,None,388.49290349986404,388.4941968000494,None,388.4943066998385,388.4955862998031,None,388.4956923997961,0,394.49755880003795,394.4975727996789,394.4987379000522,,,,,,,,,,,,,,,,,,,,,,,,,,,,,,,,,,,,,,,,,,,,,,,,3,2024-01-09_12h44.37.534,watkins1,2023.2.3,99.72098103160155,79,2024-01-09 12h44.43.383767 +0000,
,,,,,,,,,,,17,0,17,0,,,,,,,,,,,,,394.50734659982845,,,,,,,,,,394.49902309989557,394.98924379982054,,,[],[],,,,,,,,,,,matt,None,None,,,,,,,,,,Buch,matt,"['Buch', 'matt']",test_adj,3,,,,,,394.49895650008693,394.4989938996732,"['Tasche', 'Kamera', 'Löffel', 'Kette', 'Jacke', 'Uhr', 'Kerze', 'Kiste', 'Socke', 'Tasse', 'Trommel', 'Telefon', 'Rucksack', 'Schlüssel', 'Vase', 'Eimer', 'Hut', 'Buch', 'Geige', 'Bürste', 'Würfel', 'Blume', 'Stift', 'Hammer', 'Brille', 'Ring', 'Lampe', 'Flasche', 'Fahrrad', 'Schere']",394.98925489978865,394.9918292998336,None,394.9919571997598,394.9942377996631,None,394.994348899927,394.9971781000495,None,394.99728580005467,0,401.0012694997713,401.0012834998779,401.0024520996958,,,,,,,,,,,,,,,,,,,,,,,,,,,,,,,,,,,,,,,,,,,,,,,,3,2024-01-09_12h44.37.534,watkins1,2023.2.3,99.72098103160155,79,2024-01-09 12h44.43.383767 +0000,
,,,,,,,,,,,18,0,18,0,,,,,,,,,,,,,401.011085299775,,,,,,,,,,401.00273999990895,401.4932166999206,,,[],[],,,,,,,,,,,,None,None,,,,,,,,,,Geige,hässlich,"['Geige', 'hässlich']",restudy,3,,,,,,401.00267189973965,401.0027108998038,"['Tasche', 'Kamera', 'Löffel', 'Kette', 'Jacke', 'Uhr', 'Kerze', 'Kiste', 'Socke', 'Tasse', 'Trommel', 'Telefon', 'Rucksack', 'Schlüssel', 'Vase', 'Eimer', 'Hut', 'Buch', 'Geige', 'Bürste', 'Würfel', 'Blume', 'Stift', 'Hammer', 'Brille', 'Ring', 'Lampe', 'Flasche', 'Fahrrad', 'Schere']",401.49322689976543,401.4958985997364,None,401.49601909983903,407.4989871997386,1,407.4992762999609,407.5020695999265,None,407.50218029972166,,407.50361209968105,407.5036235996522,407.5048018996604,2.5990323000587523,None,,,,,,,,,,,,,,,,,,,,,,,,,,,,,,,,,,,,,,,,,,,,,,3,2024-01-09_12h44.37.534,watkins1,2023.2.3,99.72098103160155,79,2024-01-09 12h44.43.383767 +0000,
,,,,,,,,,,,19,0,19,0,,,,,,,,,,,,,407.5084212999791,,,,,,,,,,407.50509199965745,408.00060250004753,,,[],[],,,,,,,,,,,,None,None,,,,,,,,,,Bürste,dunkel,"['Bürste', 'dunkel']",restudy,3,,,,,,407.50502679962665,407.5050649996847,"['Tasche', 'Kamera', 'Löffel', 'Kette', 'Jacke', 'Uhr', 'Kerze', 'Kiste', 'Socke', 'Tasse', 'Trommel', 'Telefon', 'Rucksack', 'Schlüssel', 'Vase', 'Eimer', 'Hut', 'Buch', 'Geige', 'Bürste', 'Würfel', 'Blume', 'Stift', 'Hammer', 'Brille', 'Ring', 'Lampe', 'Flasche', 'Fahrrad', 'Schere']",408.0006140996702,408.00334279984236,None,408.00346500007436,414.0124480999075,3,414.0127387996763,414.0154544999823,None,414.015567000024,,414.0167169999331,414.01672809990123,414.0178642999381,2.6279277000576258,None,,,,,,,,,,,,,,,,,,,,,,,,,,,,,,,,,,,,,,,,,,,,,,3,2024-01-09_12h44.37.534,watkins1,2023.2.3,99.72098103160155,79,2024-01-09 12h44.43.383767 +0000,
,,,,,,,,,,,20,0,20,0,,,,,,,,,,,,,414.0218956996687,,,,,,,,,,414.0181402997114,414.5140072000213,,,[],[],,,,,,,,,,,nass,None,None,,,,,,,,,,Würfel,nass,"['Würfel', 'nass']",test_adj,3,,,,,,414.0180755998008,414.01811369974166,"['Tasche', 'Kamera', 'Löffel', 'Kette', 'Jacke', 'Uhr', 'Kerze', 'Kiste', 'Socke', 'Tasse', 'Trommel', 'Telefon', 'Rucksack', 'Schlüssel', 'Vase', 'Eimer', 'Hut', 'Buch', 'Geige', 'Bürste', 'Würfel', 'Blume', 'Stift', 'Hammer', 'Brille', 'Ring', 'Lampe', 'Flasche', 'Fahrrad', 'Schere']",414.5140179996379,414.51666049985215,None,414.5167809999548,414.51823280006647,None,414.51834349986166,414.5197761999443,None,414.5198836000636,0,420.52212349977344,420.52213749988005,420.5233841999434,,,,,,,,,,,,,,,,,,,,,,,,,,,,,,,,,,,,,,,,,,,,,,,,3,2024-01-09_12h44.37.534,watkins1,2023.2.3,99.72098103160155,79,2024-01-09 12h44.43.383767 +0000,
,,,,,,,,,,,21,0,21,0,,,,,,,,,,,,,420.53193469997495,,,,,,,,,,420.52366989990696,421.0139563996345,,,[],[],,,,,,,,,,,,None,None,,,,,,,,,,Blume,hohl,"['Blume', 'hohl']",restudy,3,,,,,,420.52360259974375,420.52364100003615,"['Tasche', 'Kamera', 'Löffel', 'Kette', 'Jacke', 'Uhr', 'Kerze', 'Kiste', 'Socke', 'Tasse', 'Trommel', 'Telefon', 'Rucksack', 'Schlüssel', 'Vase', 'Eimer', 'Hut', 'Buch', 'Geige', 'Bürste', 'Würfel', 'Blume', 'Stift', 'Hammer', 'Brille', 'Ring', 'Lampe', 'Flasche', 'Fahrrad', 'Schere']",421.01396759971976,421.01650090003386,None,421.0166297000833,427.02043360006064,1,427.02072719996795,427.02354189986363,None,427.0236513996497,,427.02510009985417,427.0251115998253,427.02612629998475,1.4627307998016477,None,,,,,,,,,,,,,,,,,,,,,,,,,,,,,,,,,,,,,,,,,,,,,,3,2024-01-09_12h44.37.534,watkins1,2023.2.3,99.72098103160155,79,2024-01-09 12h44.43.383767 +0000,
,,,,,,,,,,,22,0,22,0,,,,,,,,,,,,,427.02994460007176,,,,,,,,,,427.02640309976414,427.5220689000562,,,[],[],,,,,,,,,,,,None,None,,,,,,,,,,Stift,kaputt,"['Stift', 'kaputt']",restudy,3,,,,,,427.02633849997073,427.02637630002573,"['Tasche', 'Kamera', 'Löffel', 'Kette', 'Jacke', 'Uhr', 'Kerze', 'Kiste', 'Socke', 'Tasse', 'Trommel', 'Telefon', 'Rucksack', 'Schlüssel', 'Vase', 'Eimer', 'Hut', 'Buch', 'Geige', 'Bürste', 'Würfel', 'Blume', 'Stift', 'Hammer', 'Brille', 'Ring', 'Lampe', 'Flasche', 'Fahrrad', 'Schere']",427.5220798999071,427.5245758998208,None,427.52469629980624,433.5316661000252,3,433.53196079982445,433.534716299735,None,433.53482869965956,,433.53600079985335,433.5360123999417,433.53726879972965,3.130716800224036,None,,,,,,,,,,,,,,,,,,,,,,,,,,,,,,,,,,,,,,,,,,,,,,3,2024-01-09_12h44.37.534,watkins1,2023.2.3,99.72098103160155,79,2024-01-09 12h44.43.383767 +0000,
,,,,,,,,,,,23,0,23,0,,,,,,,,,,,,,433.54117039963603,,,,,,,,,,433.5375565998256,434.0333497999236,,,[],[],,,,,,,,,,,,None,None,,,,,,,,,,Hammer,niedlich,"['Hammer', 'niedlich']",restudy,3,,,,,,433.53749029990286,433.5375294997357,"['Tasche', 'Kamera', 'Löffel', 'Kette', 'Jacke', 'Uhr', 'Kerze', 'Kiste', 'Socke', 'Tasse', 'Trommel', 'Telefon', 'Rucksack', 'Schlüssel', 'Vase', 'Eimer', 'Hut', 'Buch', 'Geige', 'Bürste', 'Würfel', 'Blume', 'Stift', 'Hammer', 'Brille', 'Ring', 'Lampe', 'Flasche', 'Fahrrad', 'Schere']",434.0333607997745,434.0360880997032,None,434.03621269995347,440.0437846998684,1,440.04407639987767,440.04684560000896,None,440.0469582998194,,440.04810479981825,440.0481161000207,440.04929769970477,1.5147860003635287,None,,,,,,,,,,,,,,,,,,,,,,,,,,,,,,,,,,,,,,,,,,,,,,3,2024-01-09_12h44.37.534,watkins1,2023.2.3,99.72098103160155,79,2024-01-09 12h44.43.383767 +0000,
,,,,,,,,,,,24,0,24,0,,,,,,,,,,,,,440.0532321999781,,,,,,,,,,440.04957180004567,440.5454329997301,,,[],[],,,,,,,,,,,krumm,None,None,,,,,,,,,,Brille,krumm,"['Brille', 'krumm']",test_adj,3,,,,,,440.0495074996725,440.0495444997214,"['Tasche', 'Kamera', 'Löffel', 'Kette', 'Jacke', 'Uhr', 'Kerze', 'Kiste', 'Socke', 'Tasse', 'Trommel', 'Telefon', 'Rucksack', 'Schlüssel', 'Vase', 'Eimer', 'Hut', 'Buch', 'Geige', 'Bürste', 'Würfel', 'Blume', 'Stift', 'Hammer', 'Brille', 'Ring', 'Lampe', 'Flasche', 'Fahrrad', 'Schere']",440.54544299980626,440.5481428997591,None,440.54826240008697,440.5496962997131,None,440.5498045999557,440.5512353000231,None,440.55134260002524,0,446.55381769966334,446.55383169976994,446.5551018998958,,,,,,,,,,,,,,,,,,,,,,,,,,,,,,,,,,,,,,,,,,,,,,,,3,2024-01-09_12h44.37.534,watkins1,2023.2.3,99.72098103160155,79,2024-01-09 12h44.43.383767 +0000,
,,,,,,,,,,,25,0,25,0,,,,,,,,,,,,,446.56368449982256,,,,,,,,,,446.55538939964026,447.04579439992085,,,[],[],,,,,,,,,,,,None,None,,,,,,,,,,Ring,kurz,"['Ring', 'kurz']",restudy,3,,,,,,446.5553207998164,446.55536030000076,"['Tasche', 'Kamera', 'Löffel', 'Kette', 'Jacke', 'Uhr', 'Kerze', 'Kiste', 'Socke', 'Tasse', 'Trommel', 'Telefon', 'Rucksack', 'Schlüssel', 'Vase', 'Eimer', 'Hut', 'Buch', 'Geige', 'Bürste', 'Würfel', 'Blume', 'Stift', 'Hammer', 'Brille', 'Ring', 'Lampe', 'Flasche', 'Fahrrad', 'Schere']",447.0458052996546,447.0483765997924,None,447.04849909991026,453.05871749995276,1,453.0590109997429,453.06144599989057,None,453.06155740004033,,453.0629197000526,453.06293120002374,453.0639710999094,1.5192040000110865,None,,,,,,,,,,,,,,,,,,,,,,,,,,,,,,,,,,,,,,,,,,,,,,3,2024-01-09_12h44.37.534,watkins1,2023.2.3,99.72098103160155,79,2024-01-09 12h44.43.383767 +0000,
,,,,,,,,,,,26,0,26,0,,,,,,,,,,,,,453.0681698997505,,,,,,,,,,453.06425159983337,453.56054739980027,,,[],[],,,,,,,,,,,,None,None,,,,,,,,,,Lampe,sauber,"['Lampe', 'sauber']",restudy,3,,,,,,453.06418509967625,453.0642236000858,"['Tasche', 'Kamera', 'Löffel', 'Kette', 'Jacke', 'Uhr', 'Kerze', 'Kiste', 'Socke', 'Tasse', 'Trommel', 'Telefon', 'Rucksack', 'Schlüssel', 'Vase', 'Eimer', 'Hut', 'Buch', 'Geige', 'Bürste', 'Würfel', 'Blume', 'Stift', 'Hammer', 'Brille', 'Ring', 'Lampe', 'Flasche', 'Fahrrad', 'Schere']",453.5605581998825,453.56375879980624,None,453.56388529995456,459.5660047996789,2,459.56629349989817,459.56893999967724,None,459.56904889969155,,459.57021739985794,459.5702287000604,459.57137000001967,3.179224899969995,None,,,,,,,,,,,,,,,,,,,,,,,,,,,,,,,,,,,,,,,,,,,,,,3,2024-01-09_12h44.37.534,watkins1,2023.2.3,99.72098103160155,79,2024-01-09 12h44.43.383767 +0000,
,,,,,,,,,,,27,0,27,0,,,,,,,,,,,,,459.5749236997217,,,,,,,,,,459.5716424998827,460.0669819000177,,,[],[],,,,,,,,,,,praktisch,None,None,,,,,,,,,,Flasche,praktisch,"['Flasche', 'praktisch']",test_adj,3,,,,,,459.57157779997215,459.571615899913,"['Tasche', 'Kamera', 'Löffel', 'Kette', 'Jacke', 'Uhr', 'Kerze', 'Kiste', 'Socke', 'Tasse', 'Trommel', 'Telefon', 'Rucksack', 'Schlüssel', 'Vase', 'Eimer', 'Hut', 'Buch', 'Geige', 'Bürste', 'Würfel', 'Blume', 'Stift', 'Hammer', 'Brille', 'Ring', 'Lampe', 'Flasche', 'Fahrrad', 'Schere']",460.0669931997545,460.06970850005746,None,460.06983259972185,460.0712866997346,None,460.0713958996348,460.072898699902,None,460.0730057996698,0,466.0751102999784,466.07512409985065,466.07650600001216,,,,,,,,,,,,,,,,,,,,,,,,,,,,,,,,,,,,,,,,,,,,,,,,3,2024-01-09_12h44.37.534,watkins1,2023.2.3,99.72098103160155,79,2024-01-09 12h44.43.383767 +0000,
,,,,,,,,,,,28,0,28,0,,,,,,,,,,,,,466.0848884000443,,,,,,,,,,466.0767929996364,466.5669085998088,,,[],[],,,,,,,,,,,,None,None,,,,,,,,,,Fahrrad,rustikal,"['Fahrrad', 'rustikal']",restudy,3,,,,,,466.0767243998125,466.0767644997686,"['Tasche', 'Kamera', 'Löffel', 'Kette', 'Jacke', 'Uhr', 'Kerze', 'Kiste', 'Socke', 'Tasse', 'Trommel', 'Telefon', 'Rucksack', 'Schlüssel', 'Vase', 'Eimer', 'Hut', 'Buch', 'Geige', 'Bürste', 'Würfel', 'Blume', 'Stift', 'Hammer', 'Brille', 'Ring', 'Lampe', 'Flasche', 'Fahrrad', 'Schere']",466.566918999888,466.56974429963157,None,466.5698676998727,472.57191659975797,1,472.5722111999057,472.5749748996459,None,472.57508839992806,,472.57658259989694,472.5765940998681,472.5777942999266,2.5250763003714383,None,,,,,,,,,,,,,,,,,,,,,,,,,,,,,,,,,,,,,,,,,,,,,,3,2024-01-09_12h44.37.534,watkins1,2023.2.3,99.72098103160155,79,2024-01-09 12h44.43.383767 +0000,
,,,,,,,,,,,29,0,29,0,,,,,,,,,,,,,472.58139130007476,,,,,,,,,,472.578076899983,473.07353289984167,,,[],[],,,,,,,,,,,flauschig,None,None,,,,,,,,,,Schere,flauschig,"['Schere', 'flauschig']",test_adj,3,,,,,,472.5780084999278,472.5780473998748,"['Tasche', 'Kamera', 'Löffel', 'Kette', 'Jacke', 'Uhr', 'Kerze', 'Kiste', 'Socke', 'Tasse', 'Trommel', 'Telefon', 'Rucksack', 'Schlüssel', 'Vase', 'Eimer', 'Hut', 'Buch', 'Geige', 'Bürste', 'Würfel', 'Blume', 'Stift', 'Hammer', 'Brille', 'Ring', 'Lampe', 'Flasche', 'Fahrrad', 'Schere']",473.07354349968955,473.0762914000079,None,473.0764130000025,473.0778581998311,None,473.07796730007976,473.0795827996917,None,473.07969369972125,0,479.0821718000807,479.0821871999651,479.0836479999125,,,,,,,,,,,,,,,,,,,,,,,,,,,,,,,,,,,,,,,,,,,,,,,,3,2024-01-09_12h44.37.534,watkins1,2023.2.3,99.72098103160155,79,2024-01-09 12h44.43.383767 +0000,
,,,,,,,,,,,,,,,,,,,,,,,,,,,,,,,,,,,,,,,,,,,,,,,,,,,,,,,,,,,,,,,,,,,,,3,,,,,,,,,,,,,,,,,,,,,,,,,,,,,,,,,,,,,,,,,,,,,,,,,,,,,,,,,,,,,,,,,,,,,,3,2024-01-09_12h44.37.534,watkins1,2023.2.3,99.72098103160155,79,2024-01-09 12h44.43.383767 +0000,
(80 : 10) + 9 = 17 ,Correct,button_correct,,,,,,,,,,,,,0,0,0,3,,,,,,,,,515.5793717000633,,,,,,,,514.5326060000807,515.5362978000194,,,,,['button_correct'],[7.288638799916953],,,,,,,,,,,,,,,,,,,,,,,,,,distractorTask,3,,,,,,,,,,,,,,,,,,,,,,,,,515.5605254997499,515.5793717000633,522.8547538998537,[0.27685185185185185],[-0.39166666666666666],[1],[0],[0],[7.288638799916953],['button_correct'],522.8554368000478,523.8584475000389,,,,,,,,,,,,,,,,,,,,,,,,,,,,,,,,,,3,2024-01-09_12h44.37.534,watkins1,2023.2.3,99.72098103160155,79,2024-01-09 12h44.43.383767 +0000,
(4 : 2) + 4 = 6 ,Correct,button_correct,,,,,,,,,,,,,0,1,1,1,,,,,,,,,523.8684283997864,,,,,,,,,,,,,,['button_correct'],[4.004303900059313],,,,,,,,,,,,,,,,,,,,,,,,,,distractorTask,3,,,,,,,,,,,,,,,,,,,,,,,,,523.8586494000629,523.8684283997864,527.8655689000152,[0.27685185185185185],[-0.38333333333333336],[1],[0],[0],[4.004303900059313],['button_correct'],527.8659451999702,528.8691966999322,,,,,,,,,,,,,,,,,,,,,,,,,,,,,,,,,,3,2024-01-09_12h44.37.534,watkins1,2023.2.3,99.72098103160155,79,2024-01-09 12h44.43.383767 +0000,
(25 : 5) + 5 = 9 ,Incorrect,button_incorrect,,,,,,,,,,,,,0,2,2,6,,,,,,,,,528.8791503999382,,,,,,,,,,,,,,['button_incorrect'],[4.345733200199902],,,,,,,,,,,,,,,,,,,,,,,,,,distractorTask,3,,,,,,,,,,,,,,,,,,,,,,,,,528.8693888997659,528.8791503999382,533.2176799997687,[-0.3194444444444444],[-0.3925925925925926],[1],[0],[0],[4.345733200199902],['button_incorrect'],533.2180643999018,534.2212517000735,,,,,,,,,,,,,,,,,,,,,,,,,,,,,,,,,,3,2024-01-09_12h44.37.534,watkins1,2023.2.3,99.72098103160155,79,2024-01-09 12h44.43.383767 +0000,
(7 x 6) + 9 = 48 ,Incorrect,button_incorrect,,,,,,,,,,,,,0,3,3,9,,,,,,,,,534.2312916000374,,,,,,,,,,,,,,['button_incorrect'],[7.127323199994862],,,,,,,,,,,,,,,,,,,,,,,,,,distractorTask,3,,,,,,,,,,,,,,,,,,,,,,,,,534.221444199793,534.2312916000374,541.3514105998911,[-0.32685185185185184],[-0.3907407407407407],[1],[0],[0],[7.127323199994862],['button_incorrect'],541.3517940999009,542.3560024998151,,,,,,,,,,,,,,,,,,,,,,,,,,,,,,,,,,3,2024-01-09_12h44.37.534,watkins1,2023.2.3,99.72098103160155,79,2024-01-09 12h44.43.383767 +0000,
(40 : 5) + 8 = 15 ,Incorrect,button_incorrect,,,,,,,,,,,,,0,4,4,7,,,,,,,,,542.3650336996652,,,,,,,,,,,,,,['button_incorrect'],[4.215265600010753],,,,,,,,,,,,,,,,,,,,,,,,,,distractorTask,3,,,,,,,,,,,,,,,,,,,,,,,,,542.3561990000308,542.3650336996652,546.57322989963,[-0.2953703703703704],[-0.3768518518518518],[1],[0],[0],[4.215265600010753],['button_incorrect'],546.5736083998345,547.5770058999769,,,,,,,,,,,,,,,,,,,,,,,,,,,,,,,,,,3,2024-01-09_12h44.37.534,watkins1,2023.2.3,99.72098103160155,79,2024-01-09 12h44.43.383767 +0000,
(54 : 6) - 10 = 0 ,Incorrect,button_incorrect,,,,,,,,,,,,,0,5,5,5,,,,,,,,,547.5870415000245,,,,,,,,,,,,,,['button_incorrect'],[6.6259939996525645],,,,,,,,,,,,,,,,,,,,,,,,,,distractorTask,3,,,,,,,,,,,,,,,,,,,,,,,,,547.5771948997863,547.5870415000245,554.205487200059,[-0.4212962962962963],[-0.4064814814814815],[1],[0],[0],[6.6259939996525645],['button_incorrect'],554.2059029000811,555.2091596997343,,,,,,,,,,,,,,,,,,,,,,,,,,,,,,,,,,3,2024-01-09_12h44.37.534,watkins1,2023.2.3,99.72098103160155,79,2024-01-09 12h44.43.383767 +0000,
(28 : 7) - 3 = 1 ,Correct,button_correct,,,,,,,,,,,,,0,6,6,0,,,,,,,,,555.2192639000714,,,,,,,,,,,,,,['button_incorrect'],"[7.1975504998117685, 7.769835999701172]",,,,,,,,,,,,,,,,,,,,,,,,,,distractorTask,3,,,,,,,,,,,,,,,,,,,,,,,,,555.2093515996821,555.2192639000714,562.9816950000823,"[-0.2962962962962963, -0.2953703703703704]","[-0.36944444444444446, -0.37592592592592594]","[1, 1]","[0, 0]","[0, 0]","[7.1975504998117685, 7.769835999701172]",['button_incorrect'],562.9820961998776,563.985468399711,,,,,,,,,,,,,,,,,,,,,,,,,,,,,,,,,,3,2024-01-09_12h44.37.534,watkins1,2023.2.3,99.72098103160155,79,2024-01-09 12h44.43.383767 +0000,
(6 x 3) + 10 = 27 ,Incorrect,button_incorrect,,,,,,,,,,,,,0,7,7,8,,,,,,,,,563.9954642998055,,,,,,,,,,,,,,['button_incorrect'],[6.404957300052047],,,,,,,,,,,,,,,,,,,,,,,,,,distractorTask,3,,,,,,,,,,,,,,,,,,,,,,,,,563.9856696999632,563.9954642998055,570.3923567999154,[-0.3731481481481482],[-0.412962962962963],[1],[0],[0],[6.404957300052047],['button_incorrect'],570.3927353997715,571.395951999817,,,,,,,,,,,,,,,,,,,,,,,,,,,,,,,,,,3,2024-01-09_12h44.37.534,watkins1,2023.2.3,99.72098103160155,79,2024-01-09 12h44.43.383767 +0000,
(9 x 5) - 9 = 36 ,Correct,button_correct,,,,,,,,,,,,,0,8,8,4,,,,,,,,,571.4059302997775,,,,,,,,,,,,,,['button_correct'],[9.056561999954283],,,,,,,,,,,,,,,,,,,,,,,,,,distractorTask,3,,,,,,,,,,,,,,,,,,,,,,,,,571.3961447998881,571.4059302997775,580.4544170997106,[0.4],[-0.39166666666666666],[1],[0],[0],[9.056561999954283],['button_correct'],580.4548133998178,581.4581456999294,,,,,,,,,,,,,,,,,,,,,,,,,,,,,,,,,,3,2024-01-09_12h44.37.534,watkins1,2023.2.3,99.72098103160155,79,2024-01-09 12h44.43.383767 +0000,
(2 x 5) + 3 = 13 ,Correct,button_correct,,,,,,,,,,,,,0,9,9,2,,,,,,,,,581.4681259999052,,,,,,,,,,,,,,['button_correct'],"[4.025307700037956, 4.346550500020385]",,,,,,,,,,,,,,,,,,,,,,,,,,distractorTask,3,,,,,,,,,,,,,,,,,,,,,,,,,581.4583409000188,581.4681259999052,585.8066223999485,"[0.43148148148148147, 0.4064814814814815]","[-0.3851851851851852, -0.3907407407407407]","[1, 1]","[0, 0]","[0, 0]","[4.025307700037956, 4.346550500020385]",['button_correct'],585.8070225999691,586.8103232998401,,,,,,,,,,,,,,,,,,,,,,,,,,,,,,,,,,3,2024-01-09_12h44.37.534,watkins1,2023.2.3,99.72098103160155,79,2024-01-09 12h44.43.383767 +0000,
,,,,,,,,,,,,,,,,,,,,,,,,,,,,,,,,,,,,,,,,,,,,,,,,,,,,,,,,,,,,,,,,,,,,,3,,,,,,,,,,,,,,,,,,,,,,,,,,,,,,,,,,,,,,,,,,,,,,,,,,,,,,,,,,,,,,,,,,,,,,3,2024-01-09_12h44.37.534,watkins1,2023.2.3,99.72098103160155,79,2024-01-09 12h44.43.383767 +0000,
,,,,,,,,,,,,,,,,,,,0,0,0,0,,,,,615.2163921999745,,,,,,,,,,,,,,Hund,7.1067959000356495,,,,,,,,,,,,4.709375099744648,None,,,,,,,,,,,,,freeRecallSub,3,,,,,,,,,,,,,,,,,,,,,,,,,,,,,,,,,,,,,615.207854999695,615.2163921999745,615.2163921999745,622.3265682999045,return,7.1067959000356495,None,Hund,"[0.053703703703703705, 0.05]","[0.03425925925925926, 0.041666666666666664]","[1, 1]","[0, 0]","[0, 0]","[1.9572146995924413, 2.7800572998821735]",[],,,,,,,,,,,,,,,,,,,3,2024-01-09_12h44.37.534,watkins1,2023.2.3,99.72098103160155,79,2024-01-09 12h44.43.383767 +0000,
,,,,,,,,,,,,,,,,,,,1,0,1,0,,,,,622.3383706999011,,,,,,,,,,,,,,Katze,2.568971499800682,,,,,,,,,,,,1.5577342002652586,None,,,,,,,,,,,,,freeRecallSub,3,,,,,,,,,,,,,,,,,,,,,,,,,,,,,,,,,,,,,622.3283608998172,622.3383706999011,622.3383706999011,624.910551500041,return,2.568971499800682,None,Katze,[],[],[],[],[],[],[],,,,,,,,,,,,,,,,,,,3,2024-01-09_12h44.37.534,watkins1,2023.2.3,99.72098103160155,79,2024-01-09 12h44.43.383767 +0000,
,,,,,,,,,,,,,,,,,,,2,0,2,0,,,,,624.9212235999294,,,,,,,,,,,,,,Uhr,2.5221402999013662,,,,,,,,,,,,0.9136429000645876,None,,,,,,,,,,,,,freeRecallSub,3,,,,,,,,,,,,,,,,,,,,,,,,,,,,,,,,,,,,,624.9117836998776,624.9212235999294,624.9212235999294,627.4518403997645,return,2.5221402999013662,None,Uhr,[],[],[],[],[],[],[],,,,,,,,,,,,,,,,,,,3,2024-01-09_12h44.37.534,watkins1,2023.2.3,99.72098103160155,79,2024-01-09 12h44.43.383767 +0000,
,,,,,,,,,,,,,,,,,,,3,0,3,0,,,,,627.4623612998985,,,,,,,,,,,,,,Tasse,5.100917799863964,,,,,,,,,,,,3.51466629980132,None,,,,,,,,,,,,,freeRecallSub,3,,,,,,,,,,,,,,,,,,,,,,,,,,,,,,,,,,,,,627.4531008000486,627.4623612998985,627.4623612998985,632.5644946000539,return,5.100917799863964,None,Tasse,[],[],[],[],[],[],[],,,,,,,,,,,,,,,,,,,3,2024-01-09_12h44.37.534,watkins1,2023.2.3,99.72098103160155,79,2024-01-09 12h44.43.383767 +0000,
,,,,,,,,,,,,,,,,,,,4,0,4,0,,,,,632.5750212999992,,,,,,,,,,,,,,Tasche,2.244232699740678,,,,,,,,,,,,0.5318724000826478,None,,,,,,,,,,,,,freeRecallSub,3,,,,,,,,,,,,,,,,,,,,,,,,,,,,,,,,,,,,,632.5657057999633,632.5750212999992,632.5750212999992,634.8248088997789,return,2.244232699740678,None,Tasche,[],[],[],[],[],[],[],,,,,,,,,,,,,,,,,,,3,2024-01-09_12h44.37.534,watkins1,2023.2.3,99.72098103160155,79,2024-01-09 12h44.43.383767 +0000,
,,,,,,,,,,,,,,,,,,,5,0,5,0,,,,,634.835446999874,,,,,,,,,,,,,,Kiste,2.6157045997679234,,,,,,,,,,,,1.184597000014037,None,,,,,,,,,,,,,freeRecallSub,3,,,,,,,,,,,,,,,,,,,,,,,,,,,,,,,,,,,,,634.8260554000735,634.835446999874,634.835446999874,637.4566691997461,return,2.6157045997679234,None,Kiste,[],[],[],[],[],[],[],,,,,,,,,,,,,,,,,,,3,2024-01-09_12h44.37.534,watkins1,2023.2.3,99.72098103160155,79,2024-01-09 12h44.43.383767 +0000,
,,,,,,,,,,,,,,,,,,,6,0,6,0,,,,,637.4675815999508,,,,,,,,,,,,,,Brille,1.5916887000203133,,,,,,,,,,,,0.432022700086236,None,,,,,,,,,,,,,freeRecallSub,3,,,,,,,,,,,,,,,,,,,,,,,,,,,,,,,,,,,,,637.4579110997729,637.4675815999508,637.4675815999508,639.0649263998494,return,1.5916887000203133,None,Brille,[],[],[],[],[],[],[],,,,,,,,,,,,,,,,,,,3,2024-01-09_12h44.37.534,watkins1,2023.2.3,99.72098103160155,79,2024-01-09 12h44.43.383767 +0000,
,,,,,,,,,,,,,,,,,,,7,0,7,0,,,,,639.0763089000247,,,,,,,,,,,,,,Fahrrad,2.550941599998623,,,,,,,,,,,,0.43304120004177094,None,,,,,,,,,,,,,freeRecallSub,3,,,,,,,,,,,,,,,,,,,,,,,,,,,,,,,,,,,,,639.0661653000861,639.0763089000247,639.0763089000247,641.62792359991,return,2.550941599998623,None,Fahrrad,[],[],[],[],[],[],[],,,,,,,,,,,,,,,,,,,3,2024-01-09_12h44.37.534,watkins1,2023.2.3,99.72098103160155,79,2024-01-09 12h44.43.383767 +0000,
,,,,,,,,,,,,,,,,,,,8,0,8,0,,,,,641.6396143999882,,,,,,,,,,,,,,Vase,2.603670199867338,,,,,,,,,,,,1.176360399927944,None,,,,,,,,,,,,,freeRecallSub,3,,,,,,,,,,,,,,,,,,,,,,,,,,,,,,,,,,,,,641.6293714996427,641.6396143999882,641.6396143999882,644.2516711996868,return,2.603670199867338,None,Vase,[],[],[],[],[],[],[],,,,,,,,,,,,,,,,,,,3,2024-01-09_12h44.37.534,watkins1,2023.2.3,99.72098103160155,79,2024-01-09 12h44.43.383767 +0000,
,,,,,,,,,,,,,,,,,,,9,0,9,0,,,,,644.2634280999191,,,,,,,,,,,,,,Buch,8.563846400007606,,,,,,,,,,,,7.382589699700475,None,,,,,,,,,,,,,freeRecallSub,3,,,,,,,,,,,,,,,,,,,,,,,,,,,,,,,,,,,,,644.2529190997593,644.2634280999191,644.2634280999191,652.8304750998504,return,8.563846400007606,None,Buch,[],[],[],[],[],[],[],,,,,,,,,,,,,,,,,,,3,2024-01-09_12h44.37.534,watkins1,2023.2.3,99.72098103160155,79,2024-01-09 12h44.43.383767 +0000,
,,,,,,,,,,,,,,,,,,,10,0,10,0,,,,,652.8421463998966,,,,,,,,,,,,,,Stift,2.4170888997614384,,,,,,,,,,,,1.4582894002087414,None,,,,,,,,,,,,,freeRecallSub,3,,,,,,,,,,,,,,,,,,,,,,,,,,,,,,,,,,,,,652.8317339997739,652.8421463998966,652.8421463998966,655.2640647999942,return,2.4170888997614384,None,Stift,[],[],[],[],[],[],[],,,,,,,,,,,,,,,,,,,3,2024-01-09_12h44.37.534,watkins1,2023.2.3,99.72098103160155,79,2024-01-09 12h44.43.383767 +0000,
,,,,,,,,,,,,,,,,,,,11,0,11,0,,,,,655.2761762998998,,,,,,,,,,,,,,Socke,4.751004800200462,,,,,,,,,,,,1.227606600150466,None,,,,,,,,,,,,,freeRecallSub,3,,,,,,,,,,,,,,,,,,,,,,,,,,,,,,,,,,,,,655.2653186996467,655.2761762998998,655.2761762998998,660.0278012999333,return,4.751004800200462,None,Socke,[],[],[],[],[],[],[],,,,,,,,,,,,,,,,,,,3,2024-01-09_12h44.37.534,watkins1,2023.2.3,99.72098103160155,79,2024-01-09 12h44.43.383767 +0000,
,,,,,,,,,,,,,,,,,,,12,0,12,0,,,,,660.0403326000087,,,,,,,,,,,,,,Rucksack,29.090928399935365,,,,,,,,,,,,27.037076599895954,None,,,,,,,,,,,,,freeRecallSub,3,,,,,,,,,,,,,,,,,,,,,,,,,,,,,,,,,,,,,660.0292440997437,660.0403326000087,660.0403326000087,689.1348594999872,return,29.090928399935365,None,Rucksack,[],[],[],[],[],[],[],,,,,,,,,,,,,,,,,,,3,2024-01-09_12h44.37.534,watkins1,2023.2.3,99.72098103160155,79,2024-01-09 12h44.43.383767 +0000,
,,,,,,,,,,,,,,,,,,,13,0,13,0,,,,,689.1476273997687,,,,,,,,,,,,,,Schere,6.383555899839848,,,,,,,,,,,,5.034911200404167,None,,,,,,,,,,,,,freeRecallSub,3,,,,,,,,,,,,,,,,,,,,,,,,,,,,,,,,,,,,,689.1360963997431,689.1476273997687,689.1476273997687,695.5367882000282,return,6.383555899839848,None,Schere,[],[],[],[],[],[],[],,,,,,,,,,,,,,,,,,,3,2024-01-09_12h44.37.534,watkins1,2023.2.3,99.72098103160155,79,2024-01-09 12h44.43.383767 +0000,
,,,,,,,,,,,,,,,,,,,14,0,14,0,,,,,695.5493204998784,,,,,,,,,,,,,,Kerze,11.125874399673194,,,,,,,,,,,,9.62443230021745,None,,,,,,,,,,,,,freeRecallSub,3,,,,,,,,,,,,,,,,,,,,,,,,,,,,,,,,,,,,,695.5380023997277,695.5493204998784,695.5493204998784,706.6788182999007,return,11.125874399673194,None,Kerze,[],[],[],[],[],[],[],,,,,,,,,,,,,,,,,,,3,2024-01-09_12h44.37.534,watkins1,2023.2.3,99.72098103160155,79,2024-01-09 12h44.43.383767 +0000,
,,,,,,,,,,,,,,,,,,,15,0,15,0,,,,,706.6914321999066,,,,,,,,,,,,,,Würfel,26.847757699899375,,,,,,,,,,,,24.646304999943823,None,,,,,,,,,,,,,freeRecallSub,3,,,,,,,,,,,,,,,,,,,,,,,,,,,,,,,,,,,,,706.6800583000295,706.6914321999066,706.6914321999066,733.545558899641,return,26.847757699899375,None,Würfel,[],[],[],[],[],[],[],,,,,,,,,,,,,,,,,,,3,2024-01-09_12h44.37.534,watkins1,2023.2.3,99.72098103160155,79,2024-01-09 12h44.43.383767 +0000,
,,,,,,,,,,,,,,,,,,,16,0,16,0,,,,,733.5590221998282,,,,,,,,,,,,,,Jacke,13.10020300000906,,,,,,,,,,,,11.713843800127506,None,,,,,,,,,,,,,freeRecallSub,3,,,,,,,,,,,,,,,,,,,,,,,,,,,,,,,,,,,,,733.5467858999036,733.5590221998282,733.5590221998282,746.6664835000411,return,13.10020300000906,None,Jacke,[],[],[],[],[],[],[],,,,,,,,,,,,,,,,,,,3,2024-01-09_12h44.37.534,watkins1,2023.2.3,99.72098103160155,79,2024-01-09 12h44.43.383767 +0000,
,,,,,,,,,,,,,,,,,,,17,0,17,0,,,,,746.6802238998935,,,,,,,,,,,,,,Schlüssel,56.48290449986234,,,,,,,,,,,,53.81003569997847,None,,,,,,,,,,,,,freeRecallSub,3,,,,,,,,,,,,,,,,,,,,,,,,,,,,,,,,,,,,,746.667758999858,746.6802238998935,746.6802238998935,803.1689192997292,return,56.48290449986234,None,Schlüssel,[],[],[],[],[],[],[],,,,,,,,,,,,,,,,,,,3,2024-01-09_12h44.37.534,watkins1,2023.2.3,99.72098103160155,79,2024-01-09 12h44.43.383767 +0000,
,,,,,,,,,,,,,,,,,,,18,0,18,0,,,,,803.1823411998339,,,,,,,,,,,,,,Ring,68.50079600000754,,,,,,,,,,,,66.8351048999466,None,,,,,,,,,,,,,freeRecallSub,3,,,,,,,,,,,,,,,,,,,,,,,,,,,,,,,,,,,,,803.1701835999265,803.1823411998339,803.1823411998339,871.6924079996534,return,68.50079600000754,None,Ring,[],[],[],[],[],[],[],,,,,,,,,,,,,,,,,,,3,2024-01-09_12h44.37.534,watkins1,2023.2.3,99.72098103160155,79,2024-01-09 12h44.43.383767 +0000,
,,,,,,,,,,,,,,,,,,,19,0,19,0,,,,,871.70651119994,,,,,,,,,,,,,,,[],,,,,,,,,,,,None,None,,,,,,,,,,,,,freeRecallSub,3,,,,,,,,,,,,,,,,,,,,,,,,,,,,,,,,,,,,,871.6936604999937,871.70651119994,871.70651119994,975.7050796998665,None,,,,[0.2574074074074074],[-0.4064814814814815],[1],[0],[0],[104.0047444999218],"['button_continue', 'continue_text']",,,,,,,,,,,,,,,,,,,3,2024-01-09_12h44.37.534,watkins1,2023.2.3,99.72098103160155,79,2024-01-09 12h44.43.383767 +0000,
,,,,,,,,,,,,,,,,,,,,,,,,,,,,,,,,,,,,,,,,,,,,,,,,,,,,,,,,,,,,,,,,,,,,,3,,,,,,,,,,,,,,,,,,,,,,,,,,,,,,,,,,,,,,,,,,,,,,,,,,,,,,,,,,,,,,,,,,,,,,3,2024-01-09_12h44.37.534,watkins1,2023.2.3,99.72098103160155,79,2024-01-09 12h44.43.383767 +0000,
,,,,,,,,,,,,,,,,,,,,,,,0,0,0,0,993.6500043999404,,,,,,,,,,999.6785422000103,1000.1770581998862,,,,6.0169985997490585,,,,,,,,,,,,None,None,,,,,,,,,,Geige,,,cuedRecallAdj,3,,,,,,,,,,,,,,,,,,,0,,,,,,,,,,,,,,,,,,,,,,,,,,,,,,,,,993.6410407000221,993.6500043999404,993.6500043999404,999.6751474998891,hässlich,return,6.0169985997490585,None,999.6755423997529,999.6849100999534,999.6849100999534,999.6783898998983,,None,,,,,3,2024-01-09_12h44.37.534,watkins1,2023.2.3,99.72098103160155,79,2024-01-09 12h44.43.383767 +0000,
,,,,,,,,,,,,,,,,,,,,,,,1,0,1,0,1000.1870045997202,,,,,,,,,,1003.0021097999997,1003.5007485998794,,,,2.8079999000765383,,,,,,,,,,,,None,None,,,,,,,,,,Stift,,,cuedRecallAdj,3,,,,,,,,,,,,,,,,,,,0,,,,,,,,,,,,,,,,,,,,,,,,,,,,,,,,,1000.1773015996441,1000.1870045997202,1000.1870045997202,1002.999163299799,kaputt,return,2.8079999000765383,None,1002.9994195997715,1003.008721199818,1003.008721199818,1003.0020107999444,,None,,,,,3,2024-01-09_12h44.37.534,watkins1,2023.2.3,99.72098103160155,79,2024-01-09 12h44.43.383767 +0000,
,,,,,,,,,,,,,,,,,,,,,,,2,0,2,0,1003.510795999784,,,,,,,,,,1005.9747262997553,1006.4730007997714,,,,2.4603837998583913,,,,,,,,,,,,None,None,,,,,,,,,,Kerze,,,cuedRecallAdj,3,,,,,,,,,,,,,,,,,,,0,,,,,,,,,,,,,,,,,,,,,,,,,,,,,,,,,1003.5009908997454,1003.510795999784,1003.510795999784,1005.9715825999156,elegant,return,2.4603837998583913,None,1005.9718530997634,1005.9809335996397,1005.9809335996397,1005.9746218998916,,None,,,,,3,2024-01-09_12h44.37.534,watkins1,2023.2.3,99.72098103160155,79,2024-01-09 12h44.43.383767 +0000,
,,,,,,,,,,,,,,,,,,,,,,,3,0,3,0,1006.4829301997088,,,,,,,,,,1010.6739443996921,1011.1725094998255,,,,4.184030499774963,,,,,,,,,,,,None,None,,,,,,,,,,Schere,,,cuedRecallAdj,3,,,,,,,,,,,,,,,,,,,0,,,,,,,,,,,,,,,,,,,,,,,,,,,,,,,,,1006.4732438996434,1006.4829301997088,1006.4829301997088,1010.6708769998513,flauschig,return,4.184030499774963,None,1010.6711393999867,1010.6804347997531,1010.6804347997531,1010.6738427998498,,None,,,,,3,2024-01-09_12h44.37.534,watkins1,2023.2.3,99.72098103160155,79,2024-01-09 12h44.43.383767 +0000,
,,,,,,,,,,,,,,,,,,,,,,,4,0,4,0,1011.1824681996368,,,,,,,,,,1016.9600952998735,1017.4585421998054,,,,5.772490399889648,,,,,,,,,,,,None,None,,,,,,,,,,Socke,,,cuedRecallAdj,3,,,,,,,,,,,,,,,,,,,0,,,,,,,,,,,,,,,,,,,,,,,,,,,,,,,,,1011.1727521996945,1011.1824681996368,1011.1824681996368,1016.9569089999422,nachhaltig,return,5.772490399889648,None,1016.9571892996319,1016.966454999987,1016.966454999987,1016.959993199911,,None,,,,,3,2024-01-09_12h44.37.534,watkins1,2023.2.3,99.72098103160155,79,2024-01-09 12h44.43.383767 +0000,
,,,,,,,,,,,,,,,,,,,,,,,5,0,5,0,1017.4686255999841,,,,,,,,,,1022.4428826998919,1022.9413797999732,,,,4.96628119982779,,,,,,,,,,,,None,None,,,,,,,,,,Kiste,,,cuedRecallAdj,3,,,,,,,,,,,,,,,,,,,0,,,,,,,,,,,,,,,,,,,,,,,,,,,,,,,,,1017.4587840996683,1017.4686255999841,1017.4686255999841,1022.4397992999293,praktisch,return,4.96628119982779,None,1022.440067099873,1022.4494126997888,1022.4494126997888,1022.4427809999324,,None,,,,,3,2024-01-09_12h44.37.534,watkins1,2023.2.3,99.72098103160155,79,2024-01-09 12h44.43.383767 +0000,
,,,,,,,,,,,,,,,,,,,,,,,6,0,6,0,1022.9513240000233,,,,,,,,,,1027.141573399771,1027.6404137997888,,,,4.179655299987644,,,,,,,,,,,,None,None,,,,,,,,,,Hut,,,cuedRecallAdj,3,,,,,,,,,,,,,,,,,,,0,,,,,,,,,,,,,,,,,,,,,,,,,,,,,,,,,1022.9416196998209,1022.9513240000233,1022.9513240000233,1027.1388664999977,nass,return,4.179655299987644,None,1027.139129200019,1027.1486161998473,1027.1486161998473,1027.1414720998146,,None,,,,,3,2024-01-09_12h44.37.534,watkins1,2023.2.3,99.72098103160155,79,2024-01-09 12h44.43.383767 +0000,
,,,,,,,,,,,,,,,,,,,,,,,7,0,7,0,1027.650311899837,,,,,,,,,,1030.546475299634,1031.0450134999119,,,,2.8885933998972178,,,,,,,,,,,,None,None,,,,,,,,,,Schlüssel,,,cuedRecallAdj,3,,,,,,,,,,,,,,,,,,,0,,,,,,,,,,,,,,,,,,,,,,,,,,,,,,,,,1027.6406578999013,1027.650311899837,1027.650311899837,1030.5433934996836,biegsam,return,2.8885933998972178,None,1030.5436609997414,1030.552991000004,1030.552991000004,1030.5463721998967,,None,,,,,3,2024-01-09_12h44.37.534,watkins1,2023.2.3,99.72098103160155,79,2024-01-09 12h44.43.383767 +0000,
,,,,,,,,,,,,,,,,,,,,,,,8,0,8,0,1031.0549693000503,,,,,,,,,,1039.071557499934,1039.5704128998332,,,,8.01207200018689,,,,,,,,,,,,None,None,,,,,,,,,,Blume,,,cuedRecallAdj,3,,,,,,,,,,,,,,,,,,,0,,,,,,,,,,,,,,,,,,,,,,,,,,,,,,,,,1031.0452620997094,1031.0549693000503,1031.0549693000503,1039.068713999819,hohl,return,8.01207200018689,None,1039.0689786998555,1039.0782095999457,1039.0782095999457,1039.0714559997432,,None,,,,,3,2024-01-09_12h44.37.534,watkins1,2023.2.3,99.72098103160155,79,2024-01-09 12h44.43.383767 +0000,
,,,,,,,,,,,,,,,,,,,,,,,9,0,9,0,1039.580315399915,,,,,,,,,,1049.2140104998834,1049.7126213000156,,,,9.622532099951059,,,,,,,,,,,,None,None,,,,,,,,,,Jacke,,,cuedRecallAdj,3,,,,,,,,,,,,,,,,,,,0,,,,,,,,,,,,,,,,,,,,,,,,,,,,,,,,,1039.570658300072,1039.580315399915,1039.580315399915,1049.2107883999124,schmutzig,return,9.622532099951059,None,1049.2110522999428,1049.2204801999032,1049.2204801999032,1049.213909999933,,None,,,,,3,2024-01-09_12h44.37.534,watkins1,2023.2.3,99.72098103160155,79,2024-01-09 12h44.43.383767 +0000,
,,,,,,,,,,,,,,,,,,,,,,,10,0,10,0,1049.722666299902,,,,,,,,,,1051.8946690997109,1052.393770299852,,,,2.1681809001602232,,,,,,,,,,,,None,None,,,,,,,,,,Buch,,,cuedRecallAdj,3,,,,,,,,,,,,,,,,,,,0,,,,,,,,,,,,,,,,,,,,,,,,,,,,,,,,,1049.7128651998937,1049.722666299902,1049.722666299902,1051.891977199819,matt,return,2.1681809001602232,None,1051.892237899825,1051.901593199931,1051.901593199931,1051.8945673997514,,None,,,,,3,2024-01-09_12h44.37.534,watkins1,2023.2.3,99.72098103160155,79,2024-01-09 12h44.43.383767 +0000,
,,,,,,,,,,,,,,,,,,,,,,,11,0,11,0,1052.4037163998,,,,,,,,,,1056.3732309998013,1056.8720493,,,,3.9593958002515137,,,,,,,,,,,,None,None,,,,,,,,,,Vase,,,cuedRecallAdj,3,,,,,,,,,,,,,,,,,,,0,,,,,,,,,,,,,,,,,,,,,,,,,,,,,,,,,1052.394014599733,1052.4037163998,1052.4037163998,1056.3703802996315,robust,return,3.9593958002515137,None,1056.370642799884,1056.379941499792,1056.379941499792,1056.3731295000762,,None,,,,,3,2024-01-09_12h44.37.534,watkins1,2023.2.3,99.72098103160155,79,2024-01-09 12h44.43.383767 +0000,
,,,,,,,,,,,,,,,,,,,,,,,12,0,12,0,1056.8819919996895,,,,,,,,,,1059.435859899968,1059.934595800005,,,,2.5448428001254797,,,,,,,,,,,,None,None,,,,,,,,,,Uhr,,,cuedRecallAdj,3,,,,,,,,,,,,,,,,,,,0,,,,,,,,,,,,,,,,,,,,,,,,,,,,,,,,,1056.8722866000608,1056.8819919996895,1056.8819919996895,1059.432842799928,lustig,return,2.5448428001254797,None,1059.4331083996221,1059.442468199879,1059.442468199879,1059.435757999774,,None,,,,,3,2024-01-09_12h44.37.534,watkins1,2023.2.3,99.72098103160155,79,2024-01-09 12h44.43.383767 +0000,
,,,,,,,,,,,,,,,,,,,,,,,13,0,13,0,1059.9445372996852,,,,,,,,,,1067.0577463000081,1067.556415699888,,,,7.106391000095755,,,,,,,,,,,,None,None,,,,,,,,,,Kette,,,cuedRecallAdj,3,,,,,,,,,,,,,,,,,,,0,,,,,,,,,,,,,,,,,,,,,,,,,,,,,,,,,1059.9348434000276,1059.9445372996852,1059.9445372996852,1067.054729099851,verspielt,return,7.106391000095755,None,1067.0549888000824,1067.0642569996417,1067.0642569996417,1067.0576467998326,,None,,,,,3,2024-01-09_12h44.37.534,watkins1,2023.2.3,99.72098103160155,79,2024-01-09 12h44.43.383767 +0000,
,,,,,,,,,,,,,,,,,,,,,,,14,0,14,0,1067.5663283998147,,,,,,,,,,1072.069079299923,1072.5674970997497,,,,4.492560300044715,,,,,,,,,,,,None,None,,,,,,,,,,Kamera,,,cuedRecallAdj,3,,,,,,,,,,,,,,,,,,,0,,,,,,,,,,,,,,,,,,,,,,,,,,,,,,,,,1067.5566614996642,1067.5663283998147,1067.5663283998147,1072.0659411996603,zerkratzt,return,4.492560300044715,None,1072.0662078000605,1072.0754315997474,1072.0754315997474,1072.068976599723,,None,,,,,3,2024-01-09_12h44.37.534,watkins1,2023.2.3,99.72098103160155,79,2024-01-09 12h44.43.383767 +0000,
,,,,,,,,,,,,,,,,,,,,,,,15,0,15,0,1072.5774504998699,,,,,,,,,,1114.7252973997965,1115.224343799986,,,,42.13745679985732,,,,,,,,,,,,None,None,,,,,,,,,,Tasse,,,cuedRecallAdj,3,,,,,,,,,,,,,,,,,,,0,,,,,,,,,,,,,,,,,,,,,,,,,,,,,,,,,1072.5677343998104,1072.5774504998699,1072.5774504998699,1114.7224511997774,tief,return,42.13745679985732,None,1114.7227189000696,1114.7322289999574,1114.7322289999574,1114.7251951997168,,None,,,,,3,2024-01-09_12h44.37.534,watkins1,2023.2.3,99.72098103160155,79,2024-01-09 12h44.43.383767 +0000,
,,,,,,,,,,,,,,,,,,,,,,,16,0,16,0,1115.2342926999554,,,,,,,,,,1118.3113410999067,1118.8100246996619,,,,3.0726230000145733,,,,,,,,,,,,None,None,,,,,,,,,,Bürste,,,cuedRecallAdj,3,,,,,,,,,,,,,,,,,,,0,,,,,,,,,,,,,,,,,,,,,,,,,,,,,,,,,1115.224589599762,1115.2342926999554,1115.2342926999554,1118.3083601999097,dunkel,return,3.0726230000145733,None,1118.3086208999157,1118.3179255998693,1118.3179255998693,1118.3112404998392,,None,,,,,3,2024-01-09_12h44.37.534,watkins1,2023.2.3,99.72098103160155,79,2024-01-09 12h44.43.383767 +0000,
,,,,,,,,,,,,,,,,,,,,,,,17,0,17,0,1118.819950599689,,,,,,,,,,1124.0852739997208,1124.5839009997435,,,,5.255035900045186,,,,,,,,,,,,None,None,,,,,,,,,,Brille,,,cuedRecallAdj,3,,,,,,,,,,,,,,,,,,,0,,,,,,,,,,,,,,,,,,,,,,,,,,,,,,,,,1118.8102688998915,1118.819950599689,1118.819950599689,1124.0822685998864,krumm,return,5.255035900045186,None,1124.0825294000097,1124.0917940996587,1124.0917940996587,1124.0851712999865,,None,,,,,3,2024-01-09_12h44.37.534,watkins1,2023.2.3,99.72098103160155,79,2024-01-09 12h44.43.383767 +0000,
,,,,,,,,,,,,,,,,,,,,,,,18,0,18,0,1124.5938434996642,,,,,,,,,,1127.1879455000162,1127.686681699939,,,,2.584955499973148,,,,,,,,,,,,None,None,,,,,,,,,,Lampe,,,cuedRecallAdj,3,,,,,,,,,,,,,,,,,,,0,,,,,,,,,,,,,,,,,,,,,,,,,,,,,,,,,1124.5841375999153,1124.5938434996642,1124.5938434996642,1127.1849954999052,sauber,return,2.584955499973148,None,1127.1852587000467,1127.1951203998178,1127.1951203998178,1127.1878446997143,,None,,,,,3,2024-01-09_12h44.37.534,watkins1,2023.2.3,99.72098103160155,79,2024-01-09 12h44.43.383767 +0000,
,,,,,,,,,,,,,,,,,,,,,,,19,0,19,0,1127.6966363000683,,,,,,,,,,1129.4369739000686,1129.9358469997533,,,,1.7302104998379946,,,,,,,,,,,,None,None,,,,,,,,,,Würfel,,,cuedRecallAdj,3,,,,,,,,,,,,,,,,,,,0,,,,,,,,,,,,,,,,,,,,,,,,,,,,,,,,,1127.6869230000302,1127.6966363000683,1127.6966363000683,1129.434124900028,nass,return,1.7302104998379946,None,1129.4343882999383,1129.4437971999869,1129.4437971999869,1129.4368727998808,,None,,,,,3,2024-01-09_12h44.37.534,watkins1,2023.2.3,99.72098103160155,79,2024-01-09 12h44.43.383767 +0000,
,,,,,,,,,,,,,,,,,,,,,,,20,0,20,0,1129.9457267997786,,,,,,,,,,1195.6150420000777,1196.113871799782,,,,65.65710660023615,,,,,,,,,,,,None,None,,,,,,,,,,Hammer,,,cuedRecallAdj,3,,,,,,,,,,,,,,,,,,,0,,,,,,,,,,,,,,,,,,,,,,,,,,,,,,,,,1129.9360974999145,1129.9457267997786,1129.9457267997786,1195.6120476997457,nützlich,return,65.65710660023615,None,1195.6123079997487,1195.621750399936,1195.621750399936,1195.614941699896,,None,,,,,3,2024-01-09_12h44.37.534,watkins1,2023.2.3,99.72098103160155,79,2024-01-09 12h44.43.383767 +0000,
,,,,,,,,,,,,,,,,,,,,,,,21,0,21,0,1196.1238293000497,,,,,,,,,,1202.764797899872,1203.2632689997554,,,,6.631095899734646,,,,,,,,,,,,None,None,,,,,,,,,,Trommel,,,cuedRecallAdj,3,,,,,,,,,,,,,,,,,,,0,,,,,,,,,,,,,,,,,,,,,,,,,,,,,,,,,1196.1141176000237,1196.1238293000497,1196.1238293000497,1202.7617547996342,klobig,return,6.631095899734646,None,1202.762018499896,1202.7712618000805,1202.7712618000805,1202.7646959000267,,None,,,,,3,2024-01-09_12h44.37.534,watkins1,2023.2.3,99.72098103160155,79,2024-01-09 12h44.43.383767 +0000,
,,,,,,,,,,,,,,,,,,,,,,,22,0,22,0,1203.2732615000568,,,,,,,,,,1211.7218029997312,1212.2204541997053,,,,8.441662599798292,,,,,,,,,,,,None,None,,,,,,,,,,Telefon,,,cuedRecallAdj,3,,,,,,,,,,,,,,,,,,,0,,,,,,,,,,,,,,,,,,,,,,,,,,,,,,,,,1203.2635117997415,1203.2732615000568,1203.2732615000568,1211.7187127000652,bunt,return,8.441662599798292,None,1211.7189778997563,1211.728260499891,1211.728260499891,1211.7216998999938,,None,,,,,3,2024-01-09_12h44.37.534,watkins1,2023.2.3,99.72098103160155,79,2024-01-09 12h44.43.383767 +0000,
,,,,,,,,,,,,,,,,,,,,,,,23,0,23,0,1212.2303995997645,,,,,,,,,,1214.2423811000772,1214.7410436999053,,,,2.004441899713129,,,,,,,,,,,,None,None,,,,,,,,,,Löffel,,,cuedRecallAdj,3,,,,,,,,,,,,,,,,,,,0,,,,,,,,,,,,,,,,,,,,,,,,,,,,,,,,,1212.220690799877,1212.2303995997645,1212.2303995997645,1214.2394003998488,flach,return,2.004441899713129,None,1214.239664499648,1214.2490591998212,1214.2490591998212,1214.2422805996612,,None,,,,,3,2024-01-09_12h44.37.534,watkins1,2023.2.3,99.72098103160155,79,2024-01-09 12h44.43.383767 +0000,
,,,,,,,,,,,,,,,,,,,,,,,24,0,24,0,1214.7510901996866,,,,,,,,,,1216.2106460998766,1216.7092785998248,,,,1.4517017002217472,,,,,,,,,,,,None,None,,,,,,,,,,Rucksack,,,cuedRecallAdj,3,,,,,,,,,,,,,,,,,,,0,,,,,,,,,,,,,,,,,,,,,,,,,,,,,,,,,1214.7412895997986,1214.7510901996866,1214.7510901996866,1216.2075445000082,lang,return,1.4517017002217472,None,1216.2078004996292,1216.2170918998308,1216.2170918998308,1216.210546199698,,None,,,,,3,2024-01-09_12h44.37.534,watkins1,2023.2.3,99.72098103160155,79,2024-01-09 12h44.43.383767 +0000,
,,,,,,,,,,,,,,,,,,,,,,,25,0,25,0,1216.7192229996435,,,,,,,,,,1222.3563631996512,1222.8549456996843,,,,5.627650400158018,,,,,,,,,,,,None,None,,,,,,,,,,Eimer,,,cuedRecallAdj,3,,,,,,,,,,,,,,,,,,,0,,,,,,,,,,,,,,,,,,,,,,,,,,,,,,,,,1216.7095224997029,1216.7192229996435,1216.7192229996435,1222.3533457997255,schlicht,return,5.627650400158018,None,1222.353607499972,1222.3628578996286,1222.3628578996286,1222.3562595997937,,None,,,,,3,2024-01-09_12h44.37.534,watkins1,2023.2.3,99.72098103160155,79,2024-01-09 12h44.43.383767 +0000,
,,,,,,,,,,,,,,,,,,,,,,,26,0,26,0,1222.864855399821,,,,,,,,,,1224.5750015000813,1225.0646362998523,,,,1.6980528999119997,,,,,,,,,,,,None,None,,,,,,,,,,Ring,,,cuedRecallAdj,3,,,,,,,,,,,,,,,,,,,0,,,,,,,,,,,,,,,,,,,,,,,,,,,,,,,,,1222.8551873997785,1222.864855399821,1222.864855399821,1224.5722870999016,kurz,return,1.6980528999119997,None,1224.5725504998118,1224.5820067999884,1224.5820067999884,1224.5749002997763,,None,,,,,3,2024-01-09_12h44.37.534,watkins1,2023.2.3,99.72098103160155,79,2024-01-09 12h44.43.383767 +0000,
,,,,,,,,,,,,,,,,,,,,,,,27,0,27,0,1225.0745755997486,,,,,,,,,,1227.6584167000838,1228.157322899904,,,,2.576207300182432,,,,,,,,,,,,None,None,,,,,,,,,,Tasche,,,cuedRecallAdj,3,,,,,,,,,,,,,,,,,,,0,,,,,,,,,,,,,,,,,,,,,,,,,,,,,,,,,1225.0648884000257,1225.0745755997486,1225.0745755997486,1227.6555222999305,glatt,return,2.576207300182432,None,1227.6557827000506,1227.6651155999862,1227.6651155999862,1227.658316399902,,None,,,,,3,2024-01-09_12h44.37.534,watkins1,2023.2.3,99.72098103160155,79,2024-01-09 12h44.43.383767 +0000,
,,,,,,,,,,,,,,,,,,,,,,,28,0,28,0,1228.1672714999877,,,,,,,,,,1245.5431641000323,1246.0415974999778,,,,17.37147630006075,,,,,,,,,,,,None,None,,,,,,,,,,Fahrrad,,,cuedRecallAdj,3,,,,,,,,,,,,,,,,,,,0,,,,,,,,,,,,,,,,,,,,,,,,,,,,,,,,,1228.1575692999177,1228.1672714999877,1228.1672714999877,1245.5399360000156,rustikal,return,17.37147630006075,None,1245.54019639967,1245.5494960998185,1245.5494960998185,1245.5430620997213,,None,,,,,3,2024-01-09_12h44.37.534,watkins1,2023.2.3,99.72098103160155,79,2024-01-09 12h44.43.383767 +0000,
,,,,,,,,,,,,,,,,,,,,,,,29,0,29,0,1246.0515334997326,,,,,,,,,,1249.0479464996606,1249.5465926998295,,,,2.9912829003296793,,,,,,,,,,,,None,None,,,,,,,,,,Flasche,,,cuedRecallAdj,3,,,,,,,,,,,,,,,,,,,0,,,,,,,,,,,,,,,,,,,,,,,,,,,,,,,,,1246.0418400997296,1246.0515334997326,1246.0515334997326,1249.044811700005,praktisch,return,2.9912829003296793,None,1249.0450742999092,1249.0543697997928,1249.0543697997928,1249.0478443000466,,None,,,,,3,2024-01-09_12h44.37.534,watkins1,2023.2.3,99.72098103160155,79,2024-01-09 12h44.43.383767 +0000,
,,,,,,,,,,,,,,,,,,,,,,,,,,,,,,,,,,,,,,,,,,,,,,,,,,,,,,,,,,,,,,,,,,,,,3,,,,,,,,,,,,,,,,,,,,,,,,,,,,,,,,,,,,,,,,,,,,,,,,,,,,,,,,,,,,,,,,,,1249.5630252999254,q,1868.0143536999822,None,3,2024-01-09_12h44.37.534,watkins1,2023.2.3,99.72098103160155,79,2024-01-09 12h44.43.383767 +0000,
