Equation,CorrectResponse,Correctbutton,trials_7.thisRepN,trials_7.thisTrialN,trials_7.thisN,trials_7.thisIndex,trials.thisRepN,trials.thisTrialN,trials.thisN,trials.thisIndex,trials_3.thisRepN,trials_3.thisTrialN,trials_3.thisN,trials_3.thisIndex,trials_2.thisRepN,trials_2.thisTrialN,trials_2.thisN,trials_2.thisIndex,trials_4.thisRepN,trials_4.thisTrialN,trials_4.thisN,trials_4.thisIndex,trials_5.thisRepN,trials_5.thisTrialN,trials_5.thisN,trials_5.thisIndex,thisRow.t,notes,list_sub_restudy,list_sub_testsub,code_marius.started,code_marius.stopped,welcome.started,welcome.stopped,instruction_study.started,instruction_study.stopped,fixationcross.started,fixationcross.stopped,blanc.started,blanc.stopped,study_control_probe.started,study_control_probe.stopped,responseKey,responseTime,scale_answer_2.keys,study_control_probe_2.started,study_control_probe_2.stopped,scale_answer_3.keys,scale_answer_3.rt,scale_answer_3.duration,blanc_2.started,blanc_2.stopped,test_attr_probe.started,test_attr_probe.stopped,recalled_attr,firstKeyTime,secondWordTime,blanc_3.started,blanc_3.stopped,test_sub_probe.started,test_sub_probe.stopped,recalled_sub,instruction_probe_end.started,instruction_probe_end.stopped,study.started,study.stopped,substantive,adjective,wordpair,task,condition,liste_sub_phase1,liste_adj_phase1,scale_answer.keys,scale_answer.rt,scale_answer.duration,code_defineWordsInit.started,code_defineWordsInit.stopped,liste_sub_phase2,study_control.started,study_control.stopped,scale_answer_4.keys,restudy_same.started,restudy_same.stopped,scale_answer_5.keys,scale_answer_5.rt,scale_answer_5.duration,restudy_different.started,restudy_different.stopped,scale_answer_6.keys,test_attr.started,test_attr.stopped,test_sub.started,test_sub.stopped,correct,distractortask.started,equation_text.started,distractortask.stopped,mouse_answer.x,mouse_answer.y,mouse_answer.leftButton,mouse_answer.midButton,mouse_answer.rightButton,mouse_answer.time,mouse_answer.clicked_name,feedback_distractortask.started,feedback_distractortask.stopped,free_recall.started,text_enter.started,key_resp.started,free_recall.stopped,key_resp.keys,key_resp.rt,key_resp.duration,free_recalled_sub,mouse_continue.x,mouse_continue.y,mouse_continue.leftButton,mouse_continue.midButton,mouse_continue.rightButton,mouse_continue.time,mouse_continue.clicked_name,cued_recall.started,text_enter_2.started,key_continue.started,cued_recall.stopped,recalled_attr1,key_continue.keys,key_continue.rt,key_continue.duration,cued_recall_2.started,text_enter_3.started,key_continue_2.started,cued_recall_2.stopped,recalled_attr2,key_continue_2.keys,key_resp_8.started,key_resp_8.keys,key_resp_8.rt,key_resp_8.duration,condition,date,expName,psychopyVersion,frameRate,participant,expStart,
,,,,,,,,,,,,,,,,,,,,,,,,,,,,,"['Bürste', 'Rucksack', 'Hammer', 'Brille', 'Vase', 'Geige', 'Trommel', 'Fahrrad', 'Löffel', 'Ring', 'Eimer', 'Schlüssel', 'Blume', 'Flasche', 'Uhr']","['Tasse', 'Socke', 'Tasche', 'Kiste', 'Stift', 'Buch', 'Lampe', 'Kamera', 'Telefon', 'Hut', 'Kerze', 'Jacke', 'Schere', 'Kette', 'Würfel']",0.0999360999558121,0.100001199869439,0.10000939993187785,16.14623019983992,,,,,,,,,,,,,,,,,,,,,,,,,,,,,,,,,,,,,2,,,,,,,,,,,,,,,,,,,,,,,,,,,,,,,,,,,,,,,,,,,,,,,,,,,,,,,,,,,,,,,,,,,,,,2,2023-11-29_13h50.18.982,watkins1,2023.2.3,99.71740073116374,32,2023-11-29 13h50.26.887753 +0000,
,,,,,,,,,,,,,,,,,,,,,,,,,,,,,,,,,,,16.146278999978676,90.07718029990792,,,,,,,,,,,,,,,,,,,,,,,,,,,,,,,,,,,2,,,,,,,,,,,,,,,,,,,,,,,,,,,,,,,,,,,,,,,,,,,,,,,,,,,,,,,,,,,,,,,,,,,,,,2,2023-11-29_13h50.18.982,watkins1,2023.2.3,99.71740073116374,32,2023-11-29 13h50.26.887753 +0000,
,,,0,0,0,0,,,,,,,,,,,,,,,,,,,,,91.09094289992936,,,,,,,,,,90.07719959993847,91.08091040002182,97.57707789982669,98.06842139991932,91.57297229999676,97.57691119983792,3,3.212839199928567,None,98.06843249988742,104.07756619993597,3,3.212839199928567,None,104.07788369990885,104.07790849986486,104.07791589992121,104.0779963999521,,1.1647786998655647,None,104.0781616999302,104.56907349987887,104.56908379984088,110.57396849989891,HUndcapslock,,,,,,,,,2,,,,,,,,,,,,,,,,,,,,,,,,,,,,,,,,,,,,,,,,,,,,,,,,,,,,,,,,,,,,,,,,,,,,,,2,2023-11-29_13h50.18.982,watkins1,2023.2.3,99.71740073116374,32,2023-11-29 13h50.26.887753 +0000,
,,,,,,,,,,,,,,,,,,,,,,,,,,,,,,,,,,,,,,,,,,,,,,,,,,,,,,,,,,,,,,,110.57412309991196,120.79544329992495,,,,,,,2,,,,,,,,,,,,,,,,,,,,,,,,,,,,,,,,,,,,,,,,,,,,,,,,,,,,,,,,,,,,,,,,,,,,,,2,2023-11-29_13h50.18.982,watkins1,2023.2.3,99.71740073116374,32,2023-11-29 13h50.26.887753 +0000,
,,,,,,,0,0,0,0,,,,,,,,,,,,,,,,,121.80900669982657,,,,,,,,,,120.79545990005136,121.79905909998342,121.79952579992823,122.29105379991233,,,1,3.2344887000508606,,,,,,,,,,,,,,,,,,,,,122.29106399999,128.29628959996626,Blume,breit,"['Blume', 'breit']",restudy,2,"['Blume', 'Geige', 'Schlüssel', 'Rucksack', 'Jacke', 'Stift', 'Uhr', 'Buch', 'Löffel', 'Hut', 'Flasche', 'Kerze', 'Tasche', 'Bürste', 'Würfel', 'Lampe', 'Tasse', 'Trommel', 'Fahrrad', 'Schere', 'Telefon', 'Eimer', 'Kiste', 'Brille', 'Hammer', 'Socke', 'Vase', 'Ring', 'Kette', 'Kamera']",['breit'],1,3.2344887000508606,None,,,,,,,,,,,,,,,,,,,,,,,,,,,,,,,,,,,,,,,,,,,,,,,,,,,,,,,,,,,,,,,,,2,2023-11-29_13h50.18.982,watkins1,2023.2.3,99.71740073116374,32,2023-11-29 13h50.26.887753 +0000,
,,,,,,,1,0,1,0,,,,,,,,,,,,,,,,,128.30576719995588,,,,,,,,,,,,128.29694240004756,128.78773809992708,,,2,3.8430623000022024,,,,,,,,,,,,,,,,,,,,,128.78774810000323,134.7907118999865,Geige,robust,"['Geige', 'robust']",restudy,2,"['Blume', 'Geige', 'Schlüssel', 'Rucksack', 'Jacke', 'Stift', 'Uhr', 'Buch', 'Löffel', 'Hut', 'Flasche', 'Kerze', 'Tasche', 'Bürste', 'Würfel', 'Lampe', 'Tasse', 'Trommel', 'Fahrrad', 'Schere', 'Telefon', 'Eimer', 'Kiste', 'Brille', 'Hammer', 'Socke', 'Vase', 'Ring', 'Kette', 'Kamera']","['breit', 'robust']",2,3.8430623000022024,None,,,,,,,,,,,,,,,,,,,,,,,,,,,,,,,,,,,,,,,,,,,,,,,,,,,,,,,,,,,,,,,,,2,2023-11-29_13h50.18.982,watkins1,2023.2.3,99.71740073116374,32,2023-11-29 13h50.26.887753 +0000,
,,,,,,,2,0,2,0,,,,,,,,,,,,,,,,,134.79972109990194,,,,,,,,,,,,134.79123670002446,135.28300139983185,,,1,3.075630099978298,,,,,,,,,,,,,,,,,,,,,135.2830117000267,141.28400009986944,Schlüssel,niedlich,"['Schlüssel', 'niedlich']",restudy,2,"['Blume', 'Geige', 'Schlüssel', 'Rucksack', 'Jacke', 'Stift', 'Uhr', 'Buch', 'Löffel', 'Hut', 'Flasche', 'Kerze', 'Tasche', 'Bürste', 'Würfel', 'Lampe', 'Tasse', 'Trommel', 'Fahrrad', 'Schere', 'Telefon', 'Eimer', 'Kiste', 'Brille', 'Hammer', 'Socke', 'Vase', 'Ring', 'Kette', 'Kamera']","['breit', 'robust', 'niedlich']",1,3.075630099978298,None,,,,,,,,,,,,,,,,,,,,,,,,,,,,,,,,,,,,,,,,,,,,,,,,,,,,,,,,,,,,,,,,,2,2023-11-29_13h50.18.982,watkins1,2023.2.3,99.71740073116374,32,2023-11-29 13h50.26.887753 +0000,
,,,,,,,3,0,3,0,,,,,,,,,,,,,,,,,141.29341679997742,,,,,,,,,,,,141.2845264999196,141.7755887999665,,,2,3.759652500040829,,,,,,,,,,,,,,,,,,,,,141.775598899927,147.7799366998952,Rucksack,bunt,"['Rucksack', 'bunt']",restudy,2,"['Blume', 'Geige', 'Schlüssel', 'Rucksack', 'Jacke', 'Stift', 'Uhr', 'Buch', 'Löffel', 'Hut', 'Flasche', 'Kerze', 'Tasche', 'Bürste', 'Würfel', 'Lampe', 'Tasse', 'Trommel', 'Fahrrad', 'Schere', 'Telefon', 'Eimer', 'Kiste', 'Brille', 'Hammer', 'Socke', 'Vase', 'Ring', 'Kette', 'Kamera']","['breit', 'robust', 'niedlich', 'bunt']",2,3.759652500040829,None,,,,,,,,,,,,,,,,,,,,,,,,,,,,,,,,,,,,,,,,,,,,,,,,,,,,,,,,,,,,,,,,,2,2023-11-29_13h50.18.982,watkins1,2023.2.3,99.71740073116374,32,2023-11-29 13h50.26.887753 +0000,
,,,,,,,4,0,4,0,,,,,,,,,,,,,,,,,147.78940939996392,,,,,,,,,,,,147.7804688999895,148.2714541000314,,,1,2.8154023999813944,,,,,,,,,,,,,,,,,,,,,148.27146479999647,154.27369509986602,Jacke,rustikal,"['Jacke', 'rustikal']",test_sub,2,"['Blume', 'Geige', 'Schlüssel', 'Rucksack', 'Jacke', 'Stift', 'Uhr', 'Buch', 'Löffel', 'Hut', 'Flasche', 'Kerze', 'Tasche', 'Bürste', 'Würfel', 'Lampe', 'Tasse', 'Trommel', 'Fahrrad', 'Schere', 'Telefon', 'Eimer', 'Kiste', 'Brille', 'Hammer', 'Socke', 'Vase', 'Ring', 'Kette', 'Kamera']","['breit', 'robust', 'niedlich', 'bunt', 'rustikal']",1,2.8154023999813944,None,,,,,,,,,,,,,,,,,,,,,,,,,,,,,,,,,,,,,,,,,,,,,,,,,,,,,,,,,,,,,,,,,2,2023-11-29_13h50.18.982,watkins1,2023.2.3,99.71740073116374,32,2023-11-29 13h50.26.887753 +0000,
,,,,,,,5,0,5,0,,,,,,,,,,,,,,,,,154.28317660000175,,,,,,,,,,,,154.2742241998203,154.76520699984394,,,1,1.7858204001095146,,,,,,,,,,,,,,,,,,,,,154.76521699992009,160.7712681000121,Stift,lustig,"['Stift', 'lustig']",test_sub,2,"['Blume', 'Geige', 'Schlüssel', 'Rucksack', 'Jacke', 'Stift', 'Uhr', 'Buch', 'Löffel', 'Hut', 'Flasche', 'Kerze', 'Tasche', 'Bürste', 'Würfel', 'Lampe', 'Tasse', 'Trommel', 'Fahrrad', 'Schere', 'Telefon', 'Eimer', 'Kiste', 'Brille', 'Hammer', 'Socke', 'Vase', 'Ring', 'Kette', 'Kamera']","['breit', 'robust', 'niedlich', 'bunt', 'rustikal', 'lustig']",1,1.7858204001095146,None,,,,,,,,,,,,,,,,,,,,,,,,,,,,,,,,,,,,,,,,,,,,,,,,,,,,,,,,,,,,,,,,,2,2023-11-29_13h50.18.982,watkins1,2023.2.3,99.71740073116374,32,2023-11-29 13h50.26.887753 +0000,
,,,,,,,6,0,6,0,,,,,,,,,,,,,,,,,160.78067560005002,,,,,,,,,,,,160.77178719989024,161.26273509999737,,,1,2.8091476000845432,,,,,,,,,,,,,,,,,,,,,161.26274539995939,167.2682323998306,Uhr,krumm,"['Uhr', 'krumm']",restudy,2,"['Blume', 'Geige', 'Schlüssel', 'Rucksack', 'Jacke', 'Stift', 'Uhr', 'Buch', 'Löffel', 'Hut', 'Flasche', 'Kerze', 'Tasche', 'Bürste', 'Würfel', 'Lampe', 'Tasse', 'Trommel', 'Fahrrad', 'Schere', 'Telefon', 'Eimer', 'Kiste', 'Brille', 'Hammer', 'Socke', 'Vase', 'Ring', 'Kette', 'Kamera']","['breit', 'robust', 'niedlich', 'bunt', 'rustikal', 'lustig', 'krumm']",1,2.8091476000845432,None,,,,,,,,,,,,,,,,,,,,,,,,,,,,,,,,,,,,,,,,,,,,,,,,,,,,,,,,,,,,,,,,,2,2023-11-29_13h50.18.982,watkins1,2023.2.3,99.71740073116374,32,2023-11-29 13h50.26.887753 +0000,
,,,,,,,7,0,7,0,,,,,,,,,,,,,,,,,167.2776881000027,,,,,,,,,,,,167.26876519992948,167.76038099988364,,,3,1.511542199878022,,,,,,,,,,,,,,,,,,,,,167.7603908998426,173.76944920001552,Buch,dick,"['Buch', 'dick']",test_sub,2,"['Blume', 'Geige', 'Schlüssel', 'Rucksack', 'Jacke', 'Stift', 'Uhr', 'Buch', 'Löffel', 'Hut', 'Flasche', 'Kerze', 'Tasche', 'Bürste', 'Würfel', 'Lampe', 'Tasse', 'Trommel', 'Fahrrad', 'Schere', 'Telefon', 'Eimer', 'Kiste', 'Brille', 'Hammer', 'Socke', 'Vase', 'Ring', 'Kette', 'Kamera']","['breit', 'robust', 'niedlich', 'bunt', 'rustikal', 'lustig', 'krumm', 'dick']",3,1.511542199878022,None,,,,,,,,,,,,,,,,,,,,,,,,,,,,,,,,,,,,,,,,,,,,,,,,,,,,,,,,,,,,,,,,,2,2023-11-29_13h50.18.982,watkins1,2023.2.3,99.71740073116374,32,2023-11-29 13h50.26.887753 +0000,
,,,,,,,8,0,8,0,,,,,,,,,,,,,,,,,173.7789252998773,,,,,,,,,,,,173.7699782999698,174.26105179986916,,,1,1.625394299859181,,,,,,,,,,,,,,,,,,,,,174.26106239994988,180.26420830003917,Löffel,sportlich,"['Löffel', 'sportlich']",restudy,2,"['Blume', 'Geige', 'Schlüssel', 'Rucksack', 'Jacke', 'Stift', 'Uhr', 'Buch', 'Löffel', 'Hut', 'Flasche', 'Kerze', 'Tasche', 'Bürste', 'Würfel', 'Lampe', 'Tasse', 'Trommel', 'Fahrrad', 'Schere', 'Telefon', 'Eimer', 'Kiste', 'Brille', 'Hammer', 'Socke', 'Vase', 'Ring', 'Kette', 'Kamera']","['breit', 'robust', 'niedlich', 'bunt', 'rustikal', 'lustig', 'krumm', 'dick', 'sportlich']",1,1.625394299859181,None,,,,,,,,,,,,,,,,,,,,,,,,,,,,,,,,,,,,,,,,,,,,,,,,,,,,,,,,,,,,,,,,,2,2023-11-29_13h50.18.982,watkins1,2023.2.3,99.71740073116374,32,2023-11-29 13h50.26.887753 +0000,
,,,,,,,9,0,9,0,,,,,,,,,,,,,,,,,180.27366740000434,,,,,,,,,,,,180.26473259995691,180.7557783999946,,,1,3.292038100073114,,,,,,,,,,,,,,,,,,,,,180.75578889995813,186.76432029996067,Hut,praktisch,"['Hut', 'praktisch']",test_sub,2,"['Blume', 'Geige', 'Schlüssel', 'Rucksack', 'Jacke', 'Stift', 'Uhr', 'Buch', 'Löffel', 'Hut', 'Flasche', 'Kerze', 'Tasche', 'Bürste', 'Würfel', 'Lampe', 'Tasse', 'Trommel', 'Fahrrad', 'Schere', 'Telefon', 'Eimer', 'Kiste', 'Brille', 'Hammer', 'Socke', 'Vase', 'Ring', 'Kette', 'Kamera']","['breit', 'robust', 'niedlich', 'bunt', 'rustikal', 'lustig', 'krumm', 'dick', 'sportlich', 'praktisch']",1,3.292038100073114,None,,,,,,,,,,,,,,,,,,,,,,,,,,,,,,,,,,,,,,,,,,,,,,,,,,,,,,,,,,,,,,,,,2,2023-11-29_13h50.18.982,watkins1,2023.2.3,99.71740073116374,32,2023-11-29 13h50.26.887753 +0000,
,,,,,,,10,0,10,0,,,,,,,,,,,,,,,,,186.773801199859,,,,,,,,,,,,186.76484199985862,187.25573759991676,,,1,4.574955899966881,,,,,,,,,,,,,,,,,,,,,187.25574739999138,193.26191390003078,Flasche,winzig,"['Flasche', 'winzig']",restudy,2,"['Blume', 'Geige', 'Schlüssel', 'Rucksack', 'Jacke', 'Stift', 'Uhr', 'Buch', 'Löffel', 'Hut', 'Flasche', 'Kerze', 'Tasche', 'Bürste', 'Würfel', 'Lampe', 'Tasse', 'Trommel', 'Fahrrad', 'Schere', 'Telefon', 'Eimer', 'Kiste', 'Brille', 'Hammer', 'Socke', 'Vase', 'Ring', 'Kette', 'Kamera']","['breit', 'robust', 'niedlich', 'bunt', 'rustikal', 'lustig', 'krumm', 'dick', 'sportlich', 'praktisch', 'winzig']",1,4.574955899966881,None,,,,,,,,,,,,,,,,,,,,,,,,,,,,,,,,,,,,,,,,,,,,,,,,,,,,,,,,,,,,,,,,,2,2023-11-29_13h50.18.982,watkins1,2023.2.3,99.71740073116374,32,2023-11-29 13h50.26.887753 +0000,
,,,,,,,11,0,11,0,,,,,,,,,,,,,,,,,193.27139759995043,,,,,,,,,,,,193.262439499842,193.75348239997402,,,1,3.0616930001415312,,,,,,,,,,,,,,,,,,,,,193.7534929998219,199.76160890003666,Kerze,hohl,"['Kerze', 'hohl']",test_sub,2,"['Blume', 'Geige', 'Schlüssel', 'Rucksack', 'Jacke', 'Stift', 'Uhr', 'Buch', 'Löffel', 'Hut', 'Flasche', 'Kerze', 'Tasche', 'Bürste', 'Würfel', 'Lampe', 'Tasse', 'Trommel', 'Fahrrad', 'Schere', 'Telefon', 'Eimer', 'Kiste', 'Brille', 'Hammer', 'Socke', 'Vase', 'Ring', 'Kette', 'Kamera']","['breit', 'robust', 'niedlich', 'bunt', 'rustikal', 'lustig', 'krumm', 'dick', 'sportlich', 'praktisch', 'winzig', 'hohl']",1,3.0616930001415312,None,,,,,,,,,,,,,,,,,,,,,,,,,,,,,,,,,,,,,,,,,,,,,,,,,,,,,,,,,,,,,,,,,2,2023-11-29_13h50.18.982,watkins1,2023.2.3,99.71740073116374,32,2023-11-29 13h50.26.887753 +0000,
,,,,,,,12,0,12,0,,,,,,,,,,,,,,,,,199.77103189984336,,,,,,,,,,,,199.76214799983427,200.253025499871,,,1,1.8733600999694318,,,,,,,,,,,,,,,,,,,,,200.25303579983301,206.25440620002337,Tasche,matt,"['Tasche', 'matt']",test_sub,2,"['Blume', 'Geige', 'Schlüssel', 'Rucksack', 'Jacke', 'Stift', 'Uhr', 'Buch', 'Löffel', 'Hut', 'Flasche', 'Kerze', 'Tasche', 'Bürste', 'Würfel', 'Lampe', 'Tasse', 'Trommel', 'Fahrrad', 'Schere', 'Telefon', 'Eimer', 'Kiste', 'Brille', 'Hammer', 'Socke', 'Vase', 'Ring', 'Kette', 'Kamera']","['breit', 'robust', 'niedlich', 'bunt', 'rustikal', 'lustig', 'krumm', 'dick', 'sportlich', 'praktisch', 'winzig', 'hohl', 'matt']",1,1.8733600999694318,None,,,,,,,,,,,,,,,,,,,,,,,,,,,,,,,,,,,,,,,,,,,,,,,,,,,,,,,,,,,,,,,,,2,2023-11-29_13h50.18.982,watkins1,2023.2.3,99.71740073116374,32,2023-11-29 13h50.26.887753 +0000,
,,,,,,,13,0,13,0,,,,,,,,,,,,,,,,,206.26388409989886,,,,,,,,,,,,206.2549472998362,206.7459570998326,,,None,[],,,,,,,,,,,,,,,,,,,,,206.74596780003048,212.7544003999792,Bürste,kalt,"['Bürste', 'kalt']",restudy,2,"['Blume', 'Geige', 'Schlüssel', 'Rucksack', 'Jacke', 'Stift', 'Uhr', 'Buch', 'Löffel', 'Hut', 'Flasche', 'Kerze', 'Tasche', 'Bürste', 'Würfel', 'Lampe', 'Tasse', 'Trommel', 'Fahrrad', 'Schere', 'Telefon', 'Eimer', 'Kiste', 'Brille', 'Hammer', 'Socke', 'Vase', 'Ring', 'Kette', 'Kamera']","['breit', 'robust', 'niedlich', 'bunt', 'rustikal', 'lustig', 'krumm', 'dick', 'sportlich', 'praktisch', 'winzig', 'hohl', 'matt', 'kalt']",None,,,,,,,,,,,,,,,,,,,,,,,,,,,,,,,,,,,,,,,,,,,,,,,,,,,,,,,,,,,,,,,,,,,2,2023-11-29_13h50.18.982,watkins1,2023.2.3,99.71740073116374,32,2023-11-29 13h50.26.887753 +0000,
,,,,,,,14,0,14,0,,,,,,,,,,,,,,,,,212.76397119998,,,,,,,,,,,,212.7547793998383,213.2459243000485,,,1,3.6649601000826806,,,,,,,,,,,,,,,,,,,,,213.24593529989943,219.25509059987962,Würfel,kaputt,"['Würfel', 'kaputt']",test_sub,2,"['Blume', 'Geige', 'Schlüssel', 'Rucksack', 'Jacke', 'Stift', 'Uhr', 'Buch', 'Löffel', 'Hut', 'Flasche', 'Kerze', 'Tasche', 'Bürste', 'Würfel', 'Lampe', 'Tasse', 'Trommel', 'Fahrrad', 'Schere', 'Telefon', 'Eimer', 'Kiste', 'Brille', 'Hammer', 'Socke', 'Vase', 'Ring', 'Kette', 'Kamera']","['breit', 'robust', 'niedlich', 'bunt', 'rustikal', 'lustig', 'krumm', 'dick', 'sportlich', 'praktisch', 'winzig', 'hohl', 'matt', 'kalt', 'kaputt']",1,3.6649601000826806,None,,,,,,,,,,,,,,,,,,,,,,,,,,,,,,,,,,,,,,,,,,,,,,,,,,,,,,,,,,,,,,,,,2,2023-11-29_13h50.18.982,watkins1,2023.2.3,99.71740073116374,32,2023-11-29 13h50.26.887753 +0000,
,,,,,,,15,0,15,0,,,,,,,,,,,,,,,,,219.264554399997,,,,,,,,,,,,219.2556194998324,219.74665790004656,,,3,1.5892680999822915,,,,,,,,,,,,,,,,,,,,,219.74666800000705,225.7571940999478,Lampe,neu,"['Lampe', 'neu']",test_sub,2,"['Blume', 'Geige', 'Schlüssel', 'Rucksack', 'Jacke', 'Stift', 'Uhr', 'Buch', 'Löffel', 'Hut', 'Flasche', 'Kerze', 'Tasche', 'Bürste', 'Würfel', 'Lampe', 'Tasse', 'Trommel', 'Fahrrad', 'Schere', 'Telefon', 'Eimer', 'Kiste', 'Brille', 'Hammer', 'Socke', 'Vase', 'Ring', 'Kette', 'Kamera']","['breit', 'robust', 'niedlich', 'bunt', 'rustikal', 'lustig', 'krumm', 'dick', 'sportlich', 'praktisch', 'winzig', 'hohl', 'matt', 'kalt', 'kaputt', 'neu']",3,1.5892680999822915,None,,,,,,,,,,,,,,,,,,,,,,,,,,,,,,,,,,,,,,,,,,,,,,,,,,,,,,,,,,,,,,,,,2,2023-11-29_13h50.18.982,watkins1,2023.2.3,99.71740073116374,32,2023-11-29 13h50.26.887753 +0000,
,,,,,,,16,0,16,0,,,,,,,,,,,,,,,,,225.76667919987813,,,,,,,,,,,,225.7577164999675,226.24866919987835,,,2,2.9830299001187086,,,,,,,,,,,,,,,,,,,,,226.24867949984036,232.24925809982233,Tasse,gestreift,"['Tasse', 'gestreift']",test_sub,2,"['Blume', 'Geige', 'Schlüssel', 'Rucksack', 'Jacke', 'Stift', 'Uhr', 'Buch', 'Löffel', 'Hut', 'Flasche', 'Kerze', 'Tasche', 'Bürste', 'Würfel', 'Lampe', 'Tasse', 'Trommel', 'Fahrrad', 'Schere', 'Telefon', 'Eimer', 'Kiste', 'Brille', 'Hammer', 'Socke', 'Vase', 'Ring', 'Kette', 'Kamera']","['breit', 'robust', 'niedlich', 'bunt', 'rustikal', 'lustig', 'krumm', 'dick', 'sportlich', 'praktisch', 'winzig', 'hohl', 'matt', 'kalt', 'kaputt', 'neu', 'gestreift']",2,2.9830299001187086,None,,,,,,,,,,,,,,,,,,,,,,,,,,,,,,,,,,,,,,,,,,,,,,,,,,,,,,,,,,,,,,,,,2,2023-11-29_13h50.18.982,watkins1,2023.2.3,99.71740073116374,32,2023-11-29 13h50.26.887753 +0000,
,,,,,,,17,0,17,0,,,,,,,,,,,,,,,,,232.25873879995197,,,,,,,,,,,,232.24978099996224,232.7407946998719,,,1,1.6910190000198781,,,,,,,,,,,,,,,,,,,,,232.7408047998324,238.74575729994103,Trommel,lang,"['Trommel', 'lang']",restudy,2,"['Blume', 'Geige', 'Schlüssel', 'Rucksack', 'Jacke', 'Stift', 'Uhr', 'Buch', 'Löffel', 'Hut', 'Flasche', 'Kerze', 'Tasche', 'Bürste', 'Würfel', 'Lampe', 'Tasse', 'Trommel', 'Fahrrad', 'Schere', 'Telefon', 'Eimer', 'Kiste', 'Brille', 'Hammer', 'Socke', 'Vase', 'Ring', 'Kette', 'Kamera']","['breit', 'robust', 'niedlich', 'bunt', 'rustikal', 'lustig', 'krumm', 'dick', 'sportlich', 'praktisch', 'winzig', 'hohl', 'matt', 'kalt', 'kaputt', 'neu', 'gestreift', 'lang']",1,1.6910190000198781,None,,,,,,,,,,,,,,,,,,,,,,,,,,,,,,,,,,,,,,,,,,,,,,,,,,,,,,,,,,,,,,,,,2,2023-11-29_13h50.18.982,watkins1,2023.2.3,99.71740073116374,32,2023-11-29 13h50.26.887753 +0000,
,,,,,,,18,0,18,0,,,,,,,,,,,,,,,,,238.75523509993218,,,,,,,,,,,,238.7462869998999,239.23732770001516,,,None,[],,,,,,,,,,,,,,,,,,,,,239.23733829986304,245.2424673999194,Fahrrad,flach,"['Fahrrad', 'flach']",restudy,2,"['Blume', 'Geige', 'Schlüssel', 'Rucksack', 'Jacke', 'Stift', 'Uhr', 'Buch', 'Löffel', 'Hut', 'Flasche', 'Kerze', 'Tasche', 'Bürste', 'Würfel', 'Lampe', 'Tasse', 'Trommel', 'Fahrrad', 'Schere', 'Telefon', 'Eimer', 'Kiste', 'Brille', 'Hammer', 'Socke', 'Vase', 'Ring', 'Kette', 'Kamera']","['breit', 'robust', 'niedlich', 'bunt', 'rustikal', 'lustig', 'krumm', 'dick', 'sportlich', 'praktisch', 'winzig', 'hohl', 'matt', 'kalt', 'kaputt', 'neu', 'gestreift', 'lang', 'flach']",None,,,,,,,,,,,,,,,,,,,,,,,,,,,,,,,,,,,,,,,,,,,,,,,,,,,,,,,,,,,,,,,,,,,2,2023-11-29_13h50.18.982,watkins1,2023.2.3,99.71740073116374,32,2023-11-29 13h50.26.887753 +0000,
,,,,,,,19,0,19,0,,,,,,,,,,,,,,,,,245.25194019987248,,,,,,,,,,,,245.2428510999307,245.73392469994724,,,3,2.9702113999519497,,,,,,,,,,,,,,,,,,,,,245.73393499990925,251.7378487000242,Schere,kurz,"['Schere', 'kurz']",test_sub,2,"['Blume', 'Geige', 'Schlüssel', 'Rucksack', 'Jacke', 'Stift', 'Uhr', 'Buch', 'Löffel', 'Hut', 'Flasche', 'Kerze', 'Tasche', 'Bürste', 'Würfel', 'Lampe', 'Tasse', 'Trommel', 'Fahrrad', 'Schere', 'Telefon', 'Eimer', 'Kiste', 'Brille', 'Hammer', 'Socke', 'Vase', 'Ring', 'Kette', 'Kamera']","['breit', 'robust', 'niedlich', 'bunt', 'rustikal', 'lustig', 'krumm', 'dick', 'sportlich', 'praktisch', 'winzig', 'hohl', 'matt', 'kalt', 'kaputt', 'neu', 'gestreift', 'lang', 'flach', 'kurz']",3,2.9702113999519497,None,,,,,,,,,,,,,,,,,,,,,,,,,,,,,,,,,,,,,,,,,,,,,,,,,,,,,,,,,,,,,,,,,2,2023-11-29_13h50.18.982,watkins1,2023.2.3,99.71740073116374,32,2023-11-29 13h50.26.887753 +0000,
,,,,,,,20,0,20,0,,,,,,,,,,,,,,,,,251.74732550000772,,,,,,,,,,,,251.7383742998354,252.22945649991743,,,2,2.234093600185588,,,,,,,,,,,,,,,,,,,,,252.22946709999815,258.235291399993,Telefon,sauber,"['Telefon', 'sauber']",test_sub,2,"['Blume', 'Geige', 'Schlüssel', 'Rucksack', 'Jacke', 'Stift', 'Uhr', 'Buch', 'Löffel', 'Hut', 'Flasche', 'Kerze', 'Tasche', 'Bürste', 'Würfel', 'Lampe', 'Tasse', 'Trommel', 'Fahrrad', 'Schere', 'Telefon', 'Eimer', 'Kiste', 'Brille', 'Hammer', 'Socke', 'Vase', 'Ring', 'Kette', 'Kamera']","['breit', 'robust', 'niedlich', 'bunt', 'rustikal', 'lustig', 'krumm', 'dick', 'sportlich', 'praktisch', 'winzig', 'hohl', 'matt', 'kalt', 'kaputt', 'neu', 'gestreift', 'lang', 'flach', 'kurz', 'sauber']",2,2.234093600185588,None,,,,,,,,,,,,,,,,,,,,,,,,,,,,,,,,,,,,,,,,,,,,,,,,,,,,,,,,,,,,,,,,,2,2023-11-29_13h50.18.982,watkins1,2023.2.3,99.71740073116374,32,2023-11-29 13h50.26.887753 +0000,
,,,,,,,21,0,21,0,,,,,,,,,,,,,,,,,258.2448668999132,,,,,,,,,,,,258.23581309989095,258.72680189996026,,,1,2.7602927000261843,,,,,,,,,,,,,,,,,,,,,258.7268121999223,264.7281065999996,Eimer,gut,"['Eimer', 'gut']",restudy,2,"['Blume', 'Geige', 'Schlüssel', 'Rucksack', 'Jacke', 'Stift', 'Uhr', 'Buch', 'Löffel', 'Hut', 'Flasche', 'Kerze', 'Tasche', 'Bürste', 'Würfel', 'Lampe', 'Tasse', 'Trommel', 'Fahrrad', 'Schere', 'Telefon', 'Eimer', 'Kiste', 'Brille', 'Hammer', 'Socke', 'Vase', 'Ring', 'Kette', 'Kamera']","['breit', 'robust', 'niedlich', 'bunt', 'rustikal', 'lustig', 'krumm', 'dick', 'sportlich', 'praktisch', 'winzig', 'hohl', 'matt', 'kalt', 'kaputt', 'neu', 'gestreift', 'lang', 'flach', 'kurz', 'sauber', 'gut']",1,2.7602927000261843,None,,,,,,,,,,,,,,,,,,,,,,,,,,,,,,,,,,,,,,,,,,,,,,,,,,,,,,,,,,,,,,,,,2,2023-11-29_13h50.18.982,watkins1,2023.2.3,99.71740073116374,32,2023-11-29 13h50.26.887753 +0000,
,,,,,,,22,0,22,0,,,,,,,,,,,,,,,,,264.7375973998569,,,,,,,,,,,,264.7286465000361,265.2199830999598,,,1,2.8754911001306027,,,,,,,,,,,,,,,,,,,,,265.21999379992485,271.230441799853,Kiste,biegsam,"['Kiste', 'biegsam']",test_sub,2,"['Blume', 'Geige', 'Schlüssel', 'Rucksack', 'Jacke', 'Stift', 'Uhr', 'Buch', 'Löffel', 'Hut', 'Flasche', 'Kerze', 'Tasche', 'Bürste', 'Würfel', 'Lampe', 'Tasse', 'Trommel', 'Fahrrad', 'Schere', 'Telefon', 'Eimer', 'Kiste', 'Brille', 'Hammer', 'Socke', 'Vase', 'Ring', 'Kette', 'Kamera']","['breit', 'robust', 'niedlich', 'bunt', 'rustikal', 'lustig', 'krumm', 'dick', 'sportlich', 'praktisch', 'winzig', 'hohl', 'matt', 'kalt', 'kaputt', 'neu', 'gestreift', 'lang', 'flach', 'kurz', 'sauber', 'gut', 'biegsam']",1,2.8754911001306027,None,,,,,,,,,,,,,,,,,,,,,,,,,,,,,,,,,,,,,,,,,,,,,,,,,,,,,,,,,,,,,,,,,2,2023-11-29_13h50.18.982,watkins1,2023.2.3,99.71740073116374,32,2023-11-29 13h50.26.887753 +0000,
,,,,,,,23,0,23,0,,,,,,,,,,,,,,,,,271.239867700031,,,,,,,,,,,,271.2309649998788,271.7219734999817,,,2,1.933670099824667,,,,,,,,,,,,,,,,,,,,,271.72198389982805,277.72860289993696,Brille,blass,"['Brille', 'blass']",restudy,2,"['Blume', 'Geige', 'Schlüssel', 'Rucksack', 'Jacke', 'Stift', 'Uhr', 'Buch', 'Löffel', 'Hut', 'Flasche', 'Kerze', 'Tasche', 'Bürste', 'Würfel', 'Lampe', 'Tasse', 'Trommel', 'Fahrrad', 'Schere', 'Telefon', 'Eimer', 'Kiste', 'Brille', 'Hammer', 'Socke', 'Vase', 'Ring', 'Kette', 'Kamera']","['breit', 'robust', 'niedlich', 'bunt', 'rustikal', 'lustig', 'krumm', 'dick', 'sportlich', 'praktisch', 'winzig', 'hohl', 'matt', 'kalt', 'kaputt', 'neu', 'gestreift', 'lang', 'flach', 'kurz', 'sauber', 'gut', 'biegsam', 'blass']",2,1.933670099824667,None,,,,,,,,,,,,,,,,,,,,,,,,,,,,,,,,,,,,,,,,,,,,,,,,,,,,,,,,,,,,,,,,,2,2023-11-29_13h50.18.982,watkins1,2023.2.3,99.71740073116374,32,2023-11-29 13h50.26.887753 +0000,
,,,,,,,24,0,24,0,,,,,,,,,,,,,,,,,277.73807019996457,,,,,,,,,,,,277.72912140004337,278.22013200004585,,,1,2.9386094000656158,,,,,,,,,,,,,,,,,,,,,278.2201425000094,284.22486429987475,Hammer,verspielt,"['Hammer', 'verspielt']",restudy,2,"['Blume', 'Geige', 'Schlüssel', 'Rucksack', 'Jacke', 'Stift', 'Uhr', 'Buch', 'Löffel', 'Hut', 'Flasche', 'Kerze', 'Tasche', 'Bürste', 'Würfel', 'Lampe', 'Tasse', 'Trommel', 'Fahrrad', 'Schere', 'Telefon', 'Eimer', 'Kiste', 'Brille', 'Hammer', 'Socke', 'Vase', 'Ring', 'Kette', 'Kamera']","['breit', 'robust', 'niedlich', 'bunt', 'rustikal', 'lustig', 'krumm', 'dick', 'sportlich', 'praktisch', 'winzig', 'hohl', 'matt', 'kalt', 'kaputt', 'neu', 'gestreift', 'lang', 'flach', 'kurz', 'sauber', 'gut', 'biegsam', 'blass', 'verspielt']",1,2.9386094000656158,None,,,,,,,,,,,,,,,,,,,,,,,,,,,,,,,,,,,,,,,,,,,,,,,,,,,,,,,,,,,,,,,,,2,2023-11-29_13h50.18.982,watkins1,2023.2.3,99.71740073116374,32,2023-11-29 13h50.26.887753 +0000,
,,,,,,,25,0,25,0,,,,,,,,,,,,,,,,,284.2338882999029,,,,,,,,,,,,284.2253952999599,284.715968699893,,,1,1.6596847001928836,,,,,,,,,,,,,,,,,,,,,284.7159787998535,290.72491250000894,Socke,hübsch,"['Socke', 'hübsch']",test_sub,2,"['Blume', 'Geige', 'Schlüssel', 'Rucksack', 'Jacke', 'Stift', 'Uhr', 'Buch', 'Löffel', 'Hut', 'Flasche', 'Kerze', 'Tasche', 'Bürste', 'Würfel', 'Lampe', 'Tasse', 'Trommel', 'Fahrrad', 'Schere', 'Telefon', 'Eimer', 'Kiste', 'Brille', 'Hammer', 'Socke', 'Vase', 'Ring', 'Kette', 'Kamera']","['breit', 'robust', 'niedlich', 'bunt', 'rustikal', 'lustig', 'krumm', 'dick', 'sportlich', 'praktisch', 'winzig', 'hohl', 'matt', 'kalt', 'kaputt', 'neu', 'gestreift', 'lang', 'flach', 'kurz', 'sauber', 'gut', 'biegsam', 'blass', 'verspielt', 'hübsch']",1,1.6596847001928836,None,,,,,,,,,,,,,,,,,,,,,,,,,,,,,,,,,,,,,,,,,,,,,,,,,,,,,,,,,,,,,,,,,2,2023-11-29_13h50.18.982,watkins1,2023.2.3,99.71740073116374,32,2023-11-29 13h50.26.887753 +0000,
,,,,,,,26,0,26,0,,,,,,,,,,,,,,,,,290.7343504000455,,,,,,,,,,,,290.72543999995105,291.2164790998213,,,3,1.6601987001486123,,,,,,,,,,,,,,,,,,,,,291.21649009990506,297.22053089994006,Vase,strahlend,"['Vase', 'strahlend']",restudy,2,"['Blume', 'Geige', 'Schlüssel', 'Rucksack', 'Jacke', 'Stift', 'Uhr', 'Buch', 'Löffel', 'Hut', 'Flasche', 'Kerze', 'Tasche', 'Bürste', 'Würfel', 'Lampe', 'Tasse', 'Trommel', 'Fahrrad', 'Schere', 'Telefon', 'Eimer', 'Kiste', 'Brille', 'Hammer', 'Socke', 'Vase', 'Ring', 'Kette', 'Kamera']","['breit', 'robust', 'niedlich', 'bunt', 'rustikal', 'lustig', 'krumm', 'dick', 'sportlich', 'praktisch', 'winzig', 'hohl', 'matt', 'kalt', 'kaputt', 'neu', 'gestreift', 'lang', 'flach', 'kurz', 'sauber', 'gut', 'biegsam', 'blass', 'verspielt', 'hübsch', 'strahlend']",3,1.6601987001486123,None,,,,,,,,,,,,,,,,,,,,,,,,,,,,,,,,,,,,,,,,,,,,,,,,,,,,,,,,,,,,,,,,,2,2023-11-29_13h50.18.982,watkins1,2023.2.3,99.71740073116374,32,2023-11-29 13h50.26.887753 +0000,
,,,,,,,27,0,27,0,,,,,,,,,,,,,,,,,297.229947200045,,,,,,,,,,,,297.22106470004655,297.7123436999973,,,3,1.8146871000062674,,,,,,,,,,,,,,,,,,,,,297.7123536998406,303.7129029999487,Ring,groß,"['Ring', 'groß']",restudy,2,"['Blume', 'Geige', 'Schlüssel', 'Rucksack', 'Jacke', 'Stift', 'Uhr', 'Buch', 'Löffel', 'Hut', 'Flasche', 'Kerze', 'Tasche', 'Bürste', 'Würfel', 'Lampe', 'Tasse', 'Trommel', 'Fahrrad', 'Schere', 'Telefon', 'Eimer', 'Kiste', 'Brille', 'Hammer', 'Socke', 'Vase', 'Ring', 'Kette', 'Kamera']","['breit', 'robust', 'niedlich', 'bunt', 'rustikal', 'lustig', 'krumm', 'dick', 'sportlich', 'praktisch', 'winzig', 'hohl', 'matt', 'kalt', 'kaputt', 'neu', 'gestreift', 'lang', 'flach', 'kurz', 'sauber', 'gut', 'biegsam', 'blass', 'verspielt', 'hübsch', 'strahlend', 'groß']",3,1.8146871000062674,None,,,,,,,,,,,,,,,,,,,,,,,,,,,,,,,,,,,,,,,,,,,,,,,,,,,,,,,,,,,,,,,,,2,2023-11-29_13h50.18.982,watkins1,2023.2.3,99.71740073116374,32,2023-11-29 13h50.26.887753 +0000,
,,,,,,,28,0,28,0,,,,,,,,,,,,,,,,,303.72238669986837,,,,,,,,,,,,303.71345389983617,304.2044911000412,,,3,1.5787207998801023,,,,,,,,,,,,,,,,,,,,,304.20450160000473,310.2061989000067,Kette,schlicht,"['Kette', 'schlicht']",test_sub,2,"['Blume', 'Geige', 'Schlüssel', 'Rucksack', 'Jacke', 'Stift', 'Uhr', 'Buch', 'Löffel', 'Hut', 'Flasche', 'Kerze', 'Tasche', 'Bürste', 'Würfel', 'Lampe', 'Tasse', 'Trommel', 'Fahrrad', 'Schere', 'Telefon', 'Eimer', 'Kiste', 'Brille', 'Hammer', 'Socke', 'Vase', 'Ring', 'Kette', 'Kamera']","['breit', 'robust', 'niedlich', 'bunt', 'rustikal', 'lustig', 'krumm', 'dick', 'sportlich', 'praktisch', 'winzig', 'hohl', 'matt', 'kalt', 'kaputt', 'neu', 'gestreift', 'lang', 'flach', 'kurz', 'sauber', 'gut', 'biegsam', 'blass', 'verspielt', 'hübsch', 'strahlend', 'groß', 'schlicht']",3,1.5787207998801023,None,,,,,,,,,,,,,,,,,,,,,,,,,,,,,,,,,,,,,,,,,,,,,,,,,,,,,,,,,,,,,,,,,2,2023-11-29_13h50.18.982,watkins1,2023.2.3,99.71740073116374,32,2023-11-29 13h50.26.887753 +0000,
,,,,,,,29,0,29,0,,,,,,,,,,,,,,,,,310.2163430999499,,,,,,,,,,,,310.2067328998819,310.69903160003014,,,1,2.45257359999232,,,,,,,,,,,,,,,,,,,,,310.69904239987954,316.70014119986445,Kamera,gepunktet,"['Kamera', 'gepunktet']",test_sub,2,"['Blume', 'Geige', 'Schlüssel', 'Rucksack', 'Jacke', 'Stift', 'Uhr', 'Buch', 'Löffel', 'Hut', 'Flasche', 'Kerze', 'Tasche', 'Bürste', 'Würfel', 'Lampe', 'Tasse', 'Trommel', 'Fahrrad', 'Schere', 'Telefon', 'Eimer', 'Kiste', 'Brille', 'Hammer', 'Socke', 'Vase', 'Ring', 'Kette', 'Kamera']","['breit', 'robust', 'niedlich', 'bunt', 'rustikal', 'lustig', 'krumm', 'dick', 'sportlich', 'praktisch', 'winzig', 'hohl', 'matt', 'kalt', 'kaputt', 'neu', 'gestreift', 'lang', 'flach', 'kurz', 'sauber', 'gut', 'biegsam', 'blass', 'verspielt', 'hübsch', 'strahlend', 'groß', 'schlicht', 'gepunktet']",1,2.45257359999232,None,,,,,,,,,,,,,,,,,,,,,,,,,,,,,,,,,,,,,,,,,,,,,,,,,,,,,,,,,,,,,,,,,2,2023-11-29_13h50.18.982,watkins1,2023.2.3,99.71740073116374,32,2023-11-29 13h50.26.887753 +0000,
,,,,,,,,,,,0,0,0,0,,,,,,,,,,,,,316.7095661999192,,,,,,,,,,,,316.70100330002606,317.1916630999185,,,[],[],,,,,,,,,,,,None,None,,,,,,,,,,Trommel,lang,"['Trommel', 'lang']",restudy,2,,,,,,316.7009268000256,316.7009761000518,"['Trommel', 'Schlüssel', 'Würfel', 'Tasse', 'Buch', 'Jacke', 'Kiste', 'Socke', 'Uhr', 'Ring', 'Vase', 'Hammer', 'Hut', 'Bürste', 'Eimer', 'Rucksack', 'Fahrrad', 'Kerze', 'Kette', 'Kamera', 'Schere', 'Flasche', 'Telefon', 'Brille', 'Stift', 'Geige', 'Löffel', 'Tasche', 'Lampe', 'Blume']",317.1916736999992,317.1945968999062,None,317.1947808000259,323.2041986999102,1,3.996598299825564,None,323.2046135000419,323.20728589990176,None,323.20757550001144,323.2088063999545,323.20881820004433,323.20987419993617,,,,,,,,,,,,,,,,,,,,,,,,,,,,,,,,,,,,,,,,,,,,,,,2,2023-11-29_13h50.18.982,watkins1,2023.2.3,99.71740073116374,32,2023-11-29 13h50.26.887753 +0000,
,,,,,,,,,,,1,0,1,0,,,,,,,,,,,,,323.2136074998416,,,,,,,,,,,,323.21016220003366,323.70591909997165,,,[],[],,,,,,,,,,,,None,None,,,,,,,,,,Schlüssel,niedlich,"['Schlüssel', 'niedlich']",restudy,2,,,,,,323.21009589987807,323.2101345998235,"['Trommel', 'Schlüssel', 'Würfel', 'Tasse', 'Buch', 'Jacke', 'Kiste', 'Socke', 'Uhr', 'Ring', 'Vase', 'Hammer', 'Hut', 'Bürste', 'Eimer', 'Rucksack', 'Fahrrad', 'Kerze', 'Kette', 'Kamera', 'Schere', 'Flasche', 'Telefon', 'Brille', 'Stift', 'Geige', 'Löffel', 'Tasche', 'Lampe', 'Blume']",323.7059295999352,323.70858499989845,None,323.7087095999159,329.71404520003125,1,3.722800999879837,None,329.7143445999827,329.71717759990133,None,329.71728909993544,329.71854929998517,329.7185610998422,329.7197851999663,,,,,,,,,,,,,,,,,,,,,,,,,,,,,,,,,,,,,,,,,,,,,,,2,2023-11-29_13h50.18.982,watkins1,2023.2.3,99.71740073116374,32,2023-11-29 13h50.26.887753 +0000,
,,,,,,,,,,,2,0,2,0,,,,,,,,,,,,,329.72351249982603,,,,,,,,,,,,329.72007239982486,330.2155939999502,,,[],[],,,,,,,,,,,,None,None,,,,,,,,,,Würfel,kaputt,"['Würfel', 'kaputt']",test_sub,2,,,,,,329.72000620001927,329.72004499984905,"['Trommel', 'Schlüssel', 'Würfel', 'Tasse', 'Buch', 'Jacke', 'Kiste', 'Socke', 'Uhr', 'Ring', 'Vase', 'Hammer', 'Hut', 'Bürste', 'Eimer', 'Rucksack', 'Fahrrad', 'Kerze', 'Kette', 'Kamera', 'Schere', 'Flasche', 'Telefon', 'Brille', 'Stift', 'Geige', 'Löffel', 'Tasche', 'Lampe', 'Blume']",330.2156048999168,330.2185356998816,None,330.2186622999143,330.22013009991497,None,,,330.22024059994146,330.22170239989646,None,330.2218114999123,330.22301339986734,330.2230261999648,336.22714579990134,0,,,,,,,,,,,,,,,,,,,,,,,,,,,,,,,,,,,,,,,,,,,,,,2,2023-11-29_13h50.18.982,watkins1,2023.2.3,99.71740073116374,32,2023-11-29 13h50.26.887753 +0000,
,,,,,,,,,,,3,0,3,0,,,,,,,,,,,,,336.2369528999552,,,,,,,,,,,,336.22742799995467,336.71906549995765,,,[],[],,,,,,,,,,,,1.3361448999494314,None,,,,,tasse,,,,,Tasse,gestreift,"['Tasse', 'gestreift']",test_sub,2,,,,,,336.2273637999315,336.2273996998556,"['Trommel', 'Schlüssel', 'Würfel', 'Tasse', 'Buch', 'Jacke', 'Kiste', 'Socke', 'Uhr', 'Ring', 'Vase', 'Hammer', 'Hut', 'Bürste', 'Eimer', 'Rucksack', 'Fahrrad', 'Kerze', 'Kette', 'Kamera', 'Schere', 'Flasche', 'Telefon', 'Brille', 'Stift', 'Geige', 'Löffel', 'Tasche', 'Lampe', 'Blume']",336.71907559991814,336.7217945000157,None,336.72191950003617,336.72445790003985,None,,,336.72456879983656,336.72710080002435,None,336.7272099999245,336.72837079991587,336.7283832000103,342.73403869988397,0,,,,,,,,,,,,,,,,,,,,,,,,,,,,,,,,,,,,,,,,,,,,,,2,2023-11-29_13h50.18.982,watkins1,2023.2.3,99.71740073116374,32,2023-11-29 13h50.26.887753 +0000,
,,,,,,,,,,,4,0,4,0,,,,,,,,,,,,,342.74384339991957,,,,,,,,,,,,342.7343221998308,343.22590489988215,,,[],[],,,,,,,,,,,,None,None,,,,,,,,,,Buch,dick,"['Buch', 'dick']",test_sub,2,,,,,,342.73425380000845,342.7342931998428,"['Trommel', 'Schlüssel', 'Würfel', 'Tasse', 'Buch', 'Jacke', 'Kiste', 'Socke', 'Uhr', 'Ring', 'Vase', 'Hammer', 'Hut', 'Bürste', 'Eimer', 'Rucksack', 'Fahrrad', 'Kerze', 'Kette', 'Kamera', 'Schere', 'Flasche', 'Telefon', 'Brille', 'Stift', 'Geige', 'Löffel', 'Tasche', 'Lampe', 'Blume']",343.22591549996287,343.22858610004187,None,343.22870930004865,343.2311958000064,None,,,343.23130410001613,343.2337988000363,None,343.2339071999304,343.2349626000505,343.2349749999121,349.2404642999172,0,,,,,,,,,,,,,,,,,,,,,,,,,,,,,,,,,,,,,,,,,,,,,,2,2023-11-29_13h50.18.982,watkins1,2023.2.3,99.71740073116374,32,2023-11-29 13h50.26.887753 +0000,
,,,,,,,,,,,5,0,5,0,,,,,,,,,,,,,349.2502721999772,,,,,,,,,,,,349.2407424999401,349.73237119987607,,,[],[],,,,,,,,,,,,1.2454232999589294,None,,,,,jacke,,,,,Jacke,rustikal,"['Jacke', 'rustikal']",test_sub,2,,,,,,349.24067540001124,349.2407132999506,"['Trommel', 'Schlüssel', 'Würfel', 'Tasse', 'Buch', 'Jacke', 'Kiste', 'Socke', 'Uhr', 'Ring', 'Vase', 'Hammer', 'Hut', 'Bürste', 'Eimer', 'Rucksack', 'Fahrrad', 'Kerze', 'Kette', 'Kamera', 'Schere', 'Flasche', 'Telefon', 'Brille', 'Stift', 'Geige', 'Löffel', 'Tasche', 'Lampe', 'Blume']",349.7323814998381,349.73495409986936,None,349.7350713999476,349.7374535999261,None,,,349.73756649997085,349.73995139985345,None,349.7400586998556,349.74122049985453,349.7412330999505,355.746543899877,0,,,,,,,,,,,,,,,,,,,,,,,,,,,,,,,,,,,,,,,,,,,,,,2,2023-11-29_13h50.18.982,watkins1,2023.2.3,99.71740073116374,32,2023-11-29 13h50.26.887753 +0000,
,,,,,,,,,,,6,0,6,0,,,,,,,,,,,,,355.7562990998849,,,,,,,,,,,,355.74682500003837,356.23845009994693,,,[],[],,,,,,,,,,,,2.391596300061792,None,,,,,kiste,,,,,Kiste,biegsam,"['Kiste', 'biegsam']",test_sub,2,,,,,,355.74675749987364,355.7467956999317,"['Trommel', 'Schlüssel', 'Würfel', 'Tasse', 'Buch', 'Jacke', 'Kiste', 'Socke', 'Uhr', 'Ring', 'Vase', 'Hammer', 'Hut', 'Bürste', 'Eimer', 'Rucksack', 'Fahrrad', 'Kerze', 'Kette', 'Kamera', 'Schere', 'Flasche', 'Telefon', 'Brille', 'Stift', 'Geige', 'Löffel', 'Tasche', 'Lampe', 'Blume']",356.2384603000246,356.24157799989916,None,356.2417007999029,356.24425800004974,None,,,356.2443676998373,356.24692439986393,None,356.24703149986453,356.24822840001434,356.2482408999931,362.2548958999105,0,,,,,,,,,,,,,,,,,,,,,,,,,,,,,,,,,,,,,,,,,,,,,,2,2023-11-29_13h50.18.982,watkins1,2023.2.3,99.71740073116374,32,2023-11-29 13h50.26.887753 +0000,
,,,,,,,,,,,7,0,7,0,,,,,,,,,,,,,362.26468669995666,,,,,,,,,,,,362.25517849996686,362.74678279994987,,,[],[],,,,,,,,,,,,None,None,,,,,,,,,,Socke,hübsch,"['Socke', 'hübsch']",test_sub,2,,,,,,362.25511069991626,362.2551493998617,"['Trommel', 'Schlüssel', 'Würfel', 'Tasse', 'Buch', 'Jacke', 'Kiste', 'Socke', 'Uhr', 'Ring', 'Vase', 'Hammer', 'Hut', 'Bürste', 'Eimer', 'Rucksack', 'Fahrrad', 'Kerze', 'Kette', 'Kamera', 'Schere', 'Flasche', 'Telefon', 'Brille', 'Stift', 'Geige', 'Löffel', 'Tasche', 'Lampe', 'Blume']",362.746792800026,362.7495364998467,None,362.74965929985046,362.75228699995205,None,,,362.7524019998964,362.754952999996,None,362.75506079988554,362.75623980001546,362.75625219987705,368.76234450004995,0,,,,,,,,,,,,,,,,,,,,,,,,,,,,,,,,,,,,,,,,,,,,,,2,2023-11-29_13h50.18.982,watkins1,2023.2.3,99.71740073116374,32,2023-11-29 13h50.26.887753 +0000,
,,,,,,,,,,,8,0,8,0,,,,,,,,,,,,,368.77219649986364,,,,,,,,,,,,368.76262439996935,369.2543140000198,,,[],[],,,,,,,,,,,,None,None,,,,,,,,,,Uhr,krumm,"['Uhr', 'krumm']",restudy,2,,,,,,368.7625561999157,368.7625955999829,"['Trommel', 'Schlüssel', 'Würfel', 'Tasse', 'Buch', 'Jacke', 'Kiste', 'Socke', 'Uhr', 'Ring', 'Vase', 'Hammer', 'Hut', 'Bürste', 'Eimer', 'Rucksack', 'Fahrrad', 'Kerze', 'Kette', 'Kamera', 'Schere', 'Flasche', 'Telefon', 'Brille', 'Stift', 'Geige', 'Löffel', 'Tasche', 'Lampe', 'Blume']",369.2543250999879,369.25689959991723,None,369.2570295999758,375.26242699986324,1,4.62286559981294,None,375.26271939999424,375.26526140002534,None,375.26537279994227,375.26640359987505,375.2664151999634,375.2675733999349,,,,,,,,,,,,,,,,,,,,,,,,,,,,,,,,,,,,,,,,,,,,,,,2,2023-11-29_13h50.18.982,watkins1,2023.2.3,99.71740073116374,32,2023-11-29 13h50.26.887753 +0000,
,,,,,,,,,,,9,0,9,0,,,,,,,,,,,,,375.2718917999882,,,,,,,,,,,,375.2678574998863,375.76399019989185,,,[],[],,,,,,,,,,,,None,None,,,,,,,,,,Ring,groß,"['Ring', 'groß']",restudy,2,,,,,,375.267792099854,375.2678300999105,"['Trommel', 'Schlüssel', 'Würfel', 'Tasse', 'Buch', 'Jacke', 'Kiste', 'Socke', 'Uhr', 'Ring', 'Vase', 'Hammer', 'Hut', 'Bürste', 'Eimer', 'Rucksack', 'Fahrrad', 'Kerze', 'Kette', 'Kamera', 'Schere', 'Flasche', 'Telefon', 'Brille', 'Stift', 'Geige', 'Löffel', 'Tasche', 'Lampe', 'Blume']",375.76400079997256,375.76655259984545,None,375.7666781998705,381.7688692000229,3,1.5211833999492228,None,381.7691627999302,381.77160249999724,None,381.7717134000268,381.7727689000312,381.7727802998852,381.7738242999185,,,,,,,,,,,,,,,,,,,,,,,,,,,,,,,,,,,,,,,,,,,,,,,2,2023-11-29_13h50.18.982,watkins1,2023.2.3,99.71740073116374,32,2023-11-29 13h50.26.887753 +0000,
,,,,,,,,,,,10,0,10,0,,,,,,,,,,,,,381.7781656999141,,,,,,,,,,,,381.7741026999429,382.27029899996705,,,[],[],,,,,,,,,,,,None,None,,,,,,,,,,Vase,strahlend,"['Vase', 'strahlend']",restudy,2,,,,,,381.7740386999212,381.7740762999747,"['Trommel', 'Schlüssel', 'Würfel', 'Tasse', 'Buch', 'Jacke', 'Kiste', 'Socke', 'Uhr', 'Ring', 'Vase', 'Hammer', 'Hut', 'Bürste', 'Eimer', 'Rucksack', 'Fahrrad', 'Kerze', 'Kette', 'Kamera', 'Schere', 'Flasche', 'Telefon', 'Brille', 'Stift', 'Geige', 'Löffel', 'Tasche', 'Lampe', 'Blume']",382.27031009993516,382.27276550000533,None,382.27288990002126,388.275382099906,3,5.526421400019899,None,388.2756794998422,388.278314499883,None,388.2784388998989,388.27948329993524,388.27949490002356,388.2807308000047,,,,,,,,,,,,,,,,,,,,,,,,,,,,,,,,,,,,,,,,,,,,,,,2,2023-11-29_13h50.18.982,watkins1,2023.2.3,99.71740073116374,32,2023-11-29 13h50.26.887753 +0000,
,,,,,,,,,,,11,0,11,0,,,,,,,,,,,,,388.28429510002024,,,,,,,,,,,,388.28101049992256,388.77864499995485,,,[],[],,,,,,,,,,,,None,None,,,,,,,,,,Hammer,verspielt,"['Hammer', 'verspielt']",restudy,2,,,,,,388.2809454998933,388.2809836999513,"['Trommel', 'Schlüssel', 'Würfel', 'Tasse', 'Buch', 'Jacke', 'Kiste', 'Socke', 'Uhr', 'Ring', 'Vase', 'Hammer', 'Hut', 'Bürste', 'Eimer', 'Rucksack', 'Fahrrad', 'Kerze', 'Kette', 'Kamera', 'Schere', 'Flasche', 'Telefon', 'Brille', 'Stift', 'Geige', 'Löffel', 'Tasche', 'Lampe', 'Blume']",388.77865529991686,388.781385499984,None,388.78150519984774,394.78887109993957,1,1.401973099913448,None,394.7891585000325,394.7919030999765,None,394.79201600002125,394.79318669997156,394.7931984998286,394.79441699991,,,,,,,,,,,,,,,,,,,,,,,,,,,,,,,,,,,,,,,,,,,,,,,2,2023-11-29_13h50.18.982,watkins1,2023.2.3,99.71740073116374,32,2023-11-29 13h50.26.887753 +0000,
,,,,,,,,,,,12,0,12,0,,,,,,,,,,,,,394.7982929998543,,,,,,,,,,,,394.7946921000257,395.29053499992006,,,[],[],,,,,,,,,,,,4.649787700036541,None,,,,,fahrrad,,,,,Hut,praktisch,"['Hut', 'praktisch']",test_sub,2,,,,,,394.79462859989144,394.7946658998262,"['Trommel', 'Schlüssel', 'Würfel', 'Tasse', 'Buch', 'Jacke', 'Kiste', 'Socke', 'Uhr', 'Ring', 'Vase', 'Hammer', 'Hut', 'Bürste', 'Eimer', 'Rucksack', 'Fahrrad', 'Kerze', 'Kette', 'Kamera', 'Schere', 'Flasche', 'Telefon', 'Brille', 'Stift', 'Geige', 'Löffel', 'Tasche', 'Lampe', 'Blume']",395.2905470998958,395.293186099967,None,395.2933075998444,395.29459339985624,None,,,395.2947010998614,395.29612690000795,None,395.29623219999485,395.297253199853,395.2972653999459,401.302821499994,0,,,,,,,,,,,,,,,,,,,,,,,,,,,,,,,,,,,,,,,,,,,,,,2,2023-11-29_13h50.18.982,watkins1,2023.2.3,99.71740073116374,32,2023-11-29 13h50.26.887753 +0000,
,,,,,,,,,,,13,0,13,0,,,,,,,,,,,,,401.3126207999885,,,,,,,,,,,,401.30310090002604,401.79475590004586,,,[],[],,,,,,,,,,,,None,None,,,,,,,,,,Bürste,kalt,"['Bürste', 'kalt']",restudy,2,,,,,,401.30303309997544,401.30307059991173,"['Trommel', 'Schlüssel', 'Würfel', 'Tasse', 'Buch', 'Jacke', 'Kiste', 'Socke', 'Uhr', 'Ring', 'Vase', 'Hammer', 'Hut', 'Bürste', 'Eimer', 'Rucksack', 'Fahrrad', 'Kerze', 'Kette', 'Kamera', 'Schere', 'Flasche', 'Telefon', 'Brille', 'Stift', 'Geige', 'Löffel', 'Tasche', 'Lampe', 'Blume']",401.7947662998922,401.7976648998447,None,401.7977897999808,407.7988052999135,None,,,407.7989445999265,407.80154459993355,None,407.80165849998593,407.8028793998528,407.8028910998255,407.8042937000282,,,,,,,,,,,,,,,,,,,,,,,,,,,,,,,,,,,,,,,,,,,,,,,2,2023-11-29_13h50.18.982,watkins1,2023.2.3,99.71740073116374,32,2023-11-29 13h50.26.887753 +0000,
,,,,,,,,,,,14,0,14,0,,,,,,,,,,,,,407.80819899984635,,,,,,,,,,,,407.8045808998868,408.3004192998633,,,[],[],,,,,,,,,,,,None,None,,,,,,,,,,Eimer,gut,"['Eimer', 'gut']",restudy,2,,,,,,407.8045158998575,407.8045546999201,"['Trommel', 'Schlüssel', 'Würfel', 'Tasse', 'Buch', 'Jacke', 'Kiste', 'Socke', 'Uhr', 'Ring', 'Vase', 'Hammer', 'Hut', 'Bürste', 'Eimer', 'Rucksack', 'Fahrrad', 'Kerze', 'Kette', 'Kamera', 'Schere', 'Flasche', 'Telefon', 'Brille', 'Stift', 'Geige', 'Löffel', 'Tasche', 'Lampe', 'Blume']",408.3004308999516,408.3031849998515,None,408.30331119988114,414.30683839996345,1,2.3768293000757694,None,414.30713439988904,414.30968099995516,None,414.3097939998843,414.3109675999731,414.3109793998301,414.3120099999942,,,,,,,,,,,,,,,,,,,,,,,,,,,,,,,,,,,,,,,,,,,,,,,2,2023-11-29_13h50.18.982,watkins1,2023.2.3,99.71740073116374,32,2023-11-29 13h50.26.887753 +0000,
,,,,,,,,,,,15,0,15,0,,,,,,,,,,,,,414.31629820005037,,,,,,,,,,,,414.31229160004295,414.80848110001534,,,[],[],,,,,,,,,,,,None,None,,,,,,,,,,Rucksack,bunt,"['Rucksack', 'bunt']",restudy,2,,,,,,414.3122260000091,414.31226489995606,"['Trommel', 'Schlüssel', 'Würfel', 'Tasse', 'Buch', 'Jacke', 'Kiste', 'Socke', 'Uhr', 'Ring', 'Vase', 'Hammer', 'Hut', 'Bürste', 'Eimer', 'Rucksack', 'Fahrrad', 'Kerze', 'Kette', 'Kamera', 'Schere', 'Flasche', 'Telefon', 'Brille', 'Stift', 'Geige', 'Löffel', 'Tasche', 'Lampe', 'Blume']",414.8084924998693,414.8111763999332,None,414.811301499838,420.81517590000294,3,2.332511299988255,None,420.8154757998418,420.81808699993417,None,420.81820059986785,420.8194412998855,420.8194531998597,420.82049790001474,,,,,,,,,,,,,,,,,,,,,,,,,,,,,,,,,,,,,,,,,,,,,,,2,2023-11-29_13h50.18.982,watkins1,2023.2.3,99.71740073116374,32,2023-11-29 13h50.26.887753 +0000,
,,,,,,,,,,,16,0,16,0,,,,,,,,,,,,,420.8246251998935,,,,,,,,,,,,420.82078189984895,421.316691899905,,,[],[],,,,,,,,,,,,None,None,,,,,,,,,,Fahrrad,flach,"['Fahrrad', 'flach']",restudy,2,,,,,,420.8207157999277,420.8207543999888,"['Trommel', 'Schlüssel', 'Würfel', 'Tasse', 'Buch', 'Jacke', 'Kiste', 'Socke', 'Uhr', 'Ring', 'Vase', 'Hammer', 'Hut', 'Bürste', 'Eimer', 'Rucksack', 'Fahrrad', 'Kerze', 'Kette', 'Kamera', 'Schere', 'Flasche', 'Telefon', 'Brille', 'Stift', 'Geige', 'Löffel', 'Tasche', 'Lampe', 'Blume']",421.3167019998655,421.31935269990936,None,421.31947589991614,427.3204389999155,1,4.328211999963969,None,427.3207325998228,427.3234993999358,None,427.32360879983753,427.3248178998474,427.32482949993573,427.32599759986624,,,,,,,,,,,,,,,,,,,,,,,,,,,,,,,,,,,,,,,,,,,,,,,2,2023-11-29_13h50.18.982,watkins1,2023.2.3,99.71740073116374,32,2023-11-29 13h50.26.887753 +0000,
,,,,,,,,,,,17,0,17,0,,,,,,,,,,,,,427.330013099825,,,,,,,,,,,,427.32628150004894,427.82198609993793,,,[],[],,,,,,,,,,,,2.2581213999073952,None,,,,,kerze,,,,,Kerze,hohl,"['Kerze', 'hohl']",test_sub,2,,,,,,427.32621619990095,427.32625449984334,"['Trommel', 'Schlüssel', 'Würfel', 'Tasse', 'Buch', 'Jacke', 'Kiste', 'Socke', 'Uhr', 'Ring', 'Vase', 'Hammer', 'Hut', 'Bürste', 'Eimer', 'Rucksack', 'Fahrrad', 'Kerze', 'Kette', 'Kamera', 'Schere', 'Flasche', 'Telefon', 'Brille', 'Stift', 'Geige', 'Löffel', 'Tasche', 'Lampe', 'Blume']",427.8219971000217,427.824725799961,None,427.8248525999952,427.82629589992575,None,,,427.82640299992636,427.8278638999909,None,427.8279724998865,427.8291463998612,427.82915899995714,433.8332169998903,0,,,,,,,,,,,,,,,,,,,,,,,,,,,,,,,,,,,,,,,,,,,,,,2,2023-11-29_13h50.18.982,watkins1,2023.2.3,99.71740073116374,32,2023-11-29 13h50.26.887753 +0000,
,,,,,,,,,,,18,0,18,0,,,,,,,,,,,,,433.84298709989525,,,,,,,,,,,,433.8334989999421,434.3251060999464,,,[],[],,,,,,,,,,,,None,None,,,,,,,,,,Kette,schlicht,"['Kette', 'schlicht']",test_sub,2,,,,,,433.8334309000056,433.8334698998369,"['Trommel', 'Schlüssel', 'Würfel', 'Tasse', 'Buch', 'Jacke', 'Kiste', 'Socke', 'Uhr', 'Ring', 'Vase', 'Hammer', 'Hut', 'Bürste', 'Eimer', 'Rucksack', 'Fahrrad', 'Kerze', 'Kette', 'Kamera', 'Schere', 'Flasche', 'Telefon', 'Brille', 'Stift', 'Geige', 'Löffel', 'Tasche', 'Lampe', 'Blume']",434.32511639990844,434.32770029990934,None,434.3278204998933,434.3302243000362,None,,,434.3303343998268,434.33289589989,None,434.33300450001843,434.3341701000463,434.3341824999079,440.3400349000003,0,,,,,,,,,,,,,,,,,,,,,,,,,,,,,,,,,,,,,,,,,,,,,,2,2023-11-29_13h50.18.982,watkins1,2023.2.3,99.71740073116374,32,2023-11-29 13h50.26.887753 +0000,
,,,,,,,,,,,19,0,19,0,,,,,,,,,,,,,440.3498928998597,,,,,,,,,,,,440.3403230998665,440.83198460005224,,,[],[],,,,,,,,,,,,None,None,,,,,,,,,,Kamera,gepunktet,"['Kamera', 'gepunktet']",test_sub,2,,,,,,440.34025579993613,440.3402941999957,"['Trommel', 'Schlüssel', 'Würfel', 'Tasse', 'Buch', 'Jacke', 'Kiste', 'Socke', 'Uhr', 'Ring', 'Vase', 'Hammer', 'Hut', 'Bürste', 'Eimer', 'Rucksack', 'Fahrrad', 'Kerze', 'Kette', 'Kamera', 'Schere', 'Flasche', 'Telefon', 'Brille', 'Stift', 'Geige', 'Löffel', 'Tasche', 'Lampe', 'Blume']",440.8319955000188,440.83490559994243,None,440.8350302998442,440.83762510004453,None,,,440.83773499983363,440.84031579992734,None,440.8404248999432,440.84161540004425,440.84162799990736,446.8482333999127,0,,,,,,,,,,,,,,,,,,,,,,,,,,,,,,,,,,,,,,,,,,,,,,2,2023-11-29_13h50.18.982,watkins1,2023.2.3,99.71740073116374,32,2023-11-29 13h50.26.887753 +0000,
,,,,,,,,,,,20,0,20,0,,,,,,,,,,,,,446.85795710003003,,,,,,,,,,,,446.84850890003145,447.34026740002446,,,[],[],,,,,,,,,,,,None,None,,,,,,,,,,Schere,kurz,"['Schere', 'kurz']",test_sub,2,,,,,,446.84844370000064,446.848480500048,"['Trommel', 'Schlüssel', 'Würfel', 'Tasse', 'Buch', 'Jacke', 'Kiste', 'Socke', 'Uhr', 'Ring', 'Vase', 'Hammer', 'Hut', 'Bürste', 'Eimer', 'Rucksack', 'Fahrrad', 'Kerze', 'Kette', 'Kamera', 'Schere', 'Flasche', 'Telefon', 'Brille', 'Stift', 'Geige', 'Löffel', 'Tasche', 'Lampe', 'Blume']",447.3402777998708,447.3430645999033,None,447.34318329999223,447.3457633999642,None,,,447.3458696999587,447.34843200002797,None,447.3485377000179,447.3496989000123,447.349710999988,453.35724029992707,0,,,,,,,,,,,,,,,,,,,,,,,,,,,,,,,,,,,,,,,,,,,,,,2,2023-11-29_13h50.18.982,watkins1,2023.2.3,99.71740073116374,32,2023-11-29 13h50.26.887753 +0000,
,,,,,,,,,,,21,0,21,0,,,,,,,,,,,,,453.3670467999764,,,,,,,,,,,,453.35752419987693,453.84914139984176,,,[],[],,,,,,,,,,,,None,None,,,,,,,,,,Flasche,winzig,"['Flasche', 'winzig']",restudy,2,,,,,,453.35745769995265,453.3574957998935,"['Trommel', 'Schlüssel', 'Würfel', 'Tasse', 'Buch', 'Jacke', 'Kiste', 'Socke', 'Uhr', 'Ring', 'Vase', 'Hammer', 'Hut', 'Bürste', 'Eimer', 'Rucksack', 'Fahrrad', 'Kerze', 'Kette', 'Kamera', 'Schere', 'Flasche', 'Telefon', 'Brille', 'Stift', 'Geige', 'Löffel', 'Tasche', 'Lampe', 'Blume']",453.849152199924,453.85179879982024,None,453.85192399984226,459.85259569995105,1,5.891600900096819,None,459.8528988000471,459.85578370001167,None,459.8558958999347,459.85709279985167,459.85710469982587,459.8582794999238,,,,,,,,,,,,,,,,,,,,,,,,,,,,,,,,,,,,,,,,,,,,,,,2,2023-11-29_13h50.18.982,watkins1,2023.2.3,99.71740073116374,32,2023-11-29 13h50.26.887753 +0000,
,,,,,,,,,,,22,0,22,0,,,,,,,,,,,,,459.8621737000067,,,,,,,,,,,,459.85856239986606,460.3543356999289,,,[],[],,,,,,,,,,,,None,None,,,,,,,,,,Telefon,sauber,"['Telefon', 'sauber']",test_sub,2,,,,,,459.85849699983373,459.85853579989634,"['Trommel', 'Schlüssel', 'Würfel', 'Tasse', 'Buch', 'Jacke', 'Kiste', 'Socke', 'Uhr', 'Ring', 'Vase', 'Hammer', 'Hut', 'Bürste', 'Eimer', 'Rucksack', 'Fahrrad', 'Kerze', 'Kette', 'Kamera', 'Schere', 'Flasche', 'Telefon', 'Brille', 'Stift', 'Geige', 'Löffel', 'Tasche', 'Lampe', 'Blume']",460.3543497000355,460.35707499994896,None,460.3571975999512,460.35866019991226,None,,,460.3587786999997,460.3602348000277,None,460.3603461999446,460.36154660000466,460.36155919986777,466.364918399835,0,,,,,,,,,,,,,,,,,,,,,,,,,,,,,,,,,,,,,,,,,,,,,,2,2023-11-29_13h50.18.982,watkins1,2023.2.3,99.71740073116374,32,2023-11-29 13h50.26.887753 +0000,
,,,,,,,,,,,23,0,23,0,,,,,,,,,,,,,466.3748273998499,,,,,,,,,,,,466.36519569996744,466.85683259996586,,,[],[],,,,,,,,,,,,None,None,,,,,,,,,,Brille,blass,"['Brille', 'blass']",restudy,2,,,,,,466.36513069993816,466.3651669998653,"['Trommel', 'Schlüssel', 'Würfel', 'Tasse', 'Buch', 'Jacke', 'Kiste', 'Socke', 'Uhr', 'Ring', 'Vase', 'Hammer', 'Hut', 'Bürste', 'Eimer', 'Rucksack', 'Fahrrad', 'Kerze', 'Kette', 'Kamera', 'Schere', 'Flasche', 'Telefon', 'Brille', 'Stift', 'Geige', 'Löffel', 'Tasche', 'Lampe', 'Blume']",466.8568434000481,466.8601207998581,None,466.8602467000019,472.8649967999663,2,2.483424800215289,None,472.8652876999695,472.8681304999627,None,472.86824529990554,472.86942839995027,472.86944040004164,472.87060020002536,,,,,,,,,,,,,,,,,,,,,,,,,,,,,,,,,,,,,,,,,,,,,,,2,2023-11-29_13h50.18.982,watkins1,2023.2.3,99.71740073116374,32,2023-11-29 13h50.26.887753 +0000,
,,,,,,,,,,,24,0,24,0,,,,,,,,,,,,,472.874470599927,,,,,,,,,,,,472.8708859998733,473.3665028999094,,,[],[],,,,,,,,,,,,None,None,,,,,,,,,,Stift,lustig,"['Stift', 'lustig']",test_sub,2,,,,,,472.8708168999292,472.8708564999979,"['Trommel', 'Schlüssel', 'Würfel', 'Tasse', 'Buch', 'Jacke', 'Kiste', 'Socke', 'Uhr', 'Ring', 'Vase', 'Hammer', 'Hut', 'Bürste', 'Eimer', 'Rucksack', 'Fahrrad', 'Kerze', 'Kette', 'Kamera', 'Schere', 'Flasche', 'Telefon', 'Brille', 'Stift', 'Geige', 'Löffel', 'Tasche', 'Lampe', 'Blume']",473.366513799876,473.36917639989406,None,473.3692995000165,473.37072829995304,None,,,473.3708362998441,473.37224940001033,None,473.37235559988767,473.3735068999231,473.3735213999171,479.37694029998966,0,,,,,,,,,,,,,,,,,,,,,,,,,,,,,,,,,,,,,,,,,,,,,,2,2023-11-29_13h50.18.982,watkins1,2023.2.3,99.71740073116374,32,2023-11-29 13h50.26.887753 +0000,
,,,,,,,,,,,25,0,25,0,,,,,,,,,,,,,479.3867633000482,,,,,,,,,,,,479.3772169998847,479.86868069996126,,,[],[],,,,,,,,,,,,None,None,,,,,,,,,,Geige,robust,"['Geige', 'robust']",restudy,2,,,,,,479.3771522999741,479.3771885999013,"['Trommel', 'Schlüssel', 'Würfel', 'Tasse', 'Buch', 'Jacke', 'Kiste', 'Socke', 'Uhr', 'Ring', 'Vase', 'Hammer', 'Hut', 'Bürste', 'Eimer', 'Rucksack', 'Fahrrad', 'Kerze', 'Kette', 'Kamera', 'Schere', 'Flasche', 'Telefon', 'Brille', 'Stift', 'Geige', 'Löffel', 'Tasche', 'Lampe', 'Blume']",479.8686915000435,479.8713754999917,None,479.87149899988435,485.87568099983037,2,2.3762904999312013,None,485.8759742998518,485.87876949994825,None,485.8788818998728,485.8800416998565,485.88005349994637,485.8812220999971,,,,,,,,,,,,,,,,,,,,,,,,,,,,,,,,,,,,,,,,,,,,,,,2,2023-11-29_13h50.18.982,watkins1,2023.2.3,99.71740073116374,32,2023-11-29 13h50.26.887753 +0000,
,,,,,,,,,,,26,0,26,0,,,,,,,,,,,,,485.88515149988234,,,,,,,,,,,,485.8815025999211,486.377305699978,,,[],[],,,,,,,,,,,,None,None,,,,,,,,,,Löffel,sportlich,"['Löffel', 'sportlich']",restudy,2,,,,,,485.8814373998903,485.88147579994984,"['Trommel', 'Schlüssel', 'Würfel', 'Tasse', 'Buch', 'Jacke', 'Kiste', 'Socke', 'Uhr', 'Ring', 'Vase', 'Hammer', 'Hut', 'Bürste', 'Eimer', 'Rucksack', 'Fahrrad', 'Kerze', 'Kette', 'Kamera', 'Schere', 'Flasche', 'Telefon', 'Brille', 'Stift', 'Geige', 'Löffel', 'Tasche', 'Lampe', 'Blume']",486.37731679994613,486.38001289987005,None,486.38013639999554,492.38373879995197,1,2.619445600081235,None,492.384037300013,492.3868482999969,None,492.38696080003865,492.38812759984285,492.3881395000499,492.3893646998331,,,,,,,,,,,,,,,,,,,,,,,,,,,,,,,,,,,,,,,,,,,,,,,2,2023-11-29_13h50.18.982,watkins1,2023.2.3,99.71740073116374,32,2023-11-29 13h50.26.887753 +0000,
,,,,,,,,,,,27,0,27,0,,,,,,,,,,,,,492.3932459000498,,,,,,,,,,,,492.38964459998533,492.8853776999749,,,[],[],,,,,,,,,,,,None,None,,,,,,,,,,Tasche,matt,"['Tasche', 'matt']",test_sub,2,,,,,,492.38957879994996,492.38961760001257,"['Trommel', 'Schlüssel', 'Würfel', 'Tasse', 'Buch', 'Jacke', 'Kiste', 'Socke', 'Uhr', 'Ring', 'Vase', 'Hammer', 'Hut', 'Bürste', 'Eimer', 'Rucksack', 'Fahrrad', 'Kerze', 'Kette', 'Kamera', 'Schere', 'Flasche', 'Telefon', 'Brille', 'Stift', 'Geige', 'Löffel', 'Tasche', 'Lampe', 'Blume']",492.88538869982585,492.88819979992695,None,492.8883237999398,492.88975450000726,None,,,492.889862800017,492.89129439997487,None,492.89140279986896,492.89257019991055,492.8925826998893,498.89588239998557,0,,,,,,,,,,,,,,,,,,,,,,,,,,,,,,,,,,,,,,,,,,,,,,2,2023-11-29_13h50.18.982,watkins1,2023.2.3,99.71740073116374,32,2023-11-29 13h50.26.887753 +0000,
,,,,,,,,,,,28,0,28,0,,,,,,,,,,,,,498.90575509984046,,,,,,,,,,,,498.89616829995066,499.38791369996034,,,[],[],,,,,,,,,,,,None,None,,,,,,,,,,Lampe,neu,"['Lampe', 'neu']",test_sub,2,,,,,,498.8961018000264,498.89613809995353,"['Trommel', 'Schlüssel', 'Würfel', 'Tasse', 'Buch', 'Jacke', 'Kiste', 'Socke', 'Uhr', 'Ring', 'Vase', 'Hammer', 'Hut', 'Bürste', 'Eimer', 'Rucksack', 'Fahrrad', 'Kerze', 'Kette', 'Kamera', 'Schere', 'Flasche', 'Telefon', 'Brille', 'Stift', 'Geige', 'Löffel', 'Tasche', 'Lampe', 'Blume']",499.38792350003496,499.3904921000358,None,499.3906139000319,499.3931978000328,None,,,499.3933099999558,499.3957283999771,None,499.3958415000234,499.3970669999253,499.39707980002277,505.4023913999554,0,,,,,,,,,,,,,,,,,,,,,,,,,,,,,,,,,,,,,,,,,,,,,,2,2023-11-29_13h50.18.982,watkins1,2023.2.3,99.71740073116374,32,2023-11-29 13h50.26.887753 +0000,
,,,,,,,,,,,29,0,29,0,,,,,,,,,,,,,505.4122969999444,,,,,,,,,,,,505.40267139999196,505.8943582000211,,,[],[],,,,,,,,,,,,None,None,,,,,,,,,,Blume,breit,"['Blume', 'breit']",restudy,2,,,,,,505.402604599949,505.4026417999994,"['Trommel', 'Schlüssel', 'Würfel', 'Tasse', 'Buch', 'Jacke', 'Kiste', 'Socke', 'Uhr', 'Ring', 'Vase', 'Hammer', 'Hut', 'Bürste', 'Eimer', 'Rucksack', 'Fahrrad', 'Kerze', 'Kette', 'Kamera', 'Schere', 'Flasche', 'Telefon', 'Brille', 'Stift', 'Geige', 'Löffel', 'Tasche', 'Lampe', 'Blume']",505.8943689998705,505.89692720002495,None,505.8970540999435,511.90369389997795,1,3.686494099907577,None,511.9039888000116,511.90664069983177,None,511.90675119985826,511.90792459994555,511.9079364000354,511.90908439992927,,,,,,,,,,,,,,,,,,,,,,,,,,,,,,,,,,,,,,,,,,,,,,,2,2023-11-29_13h50.18.982,watkins1,2023.2.3,99.71740073116374,32,2023-11-29 13h50.26.887753 +0000,
,,,,,,,,,,,,,,,,,,,,,,,,,,,,,,,,,,,,,,,,,,,,,,,,,,,,,,,,,,,,,,,,,,,,,,,2,,,,,,,,,,,,,,,,,,,,,,,,,,,,,,,,,,,,,,,,,,,,,,,,,,,,,,,,,,,,,,,,,,,,,,2,2023-11-29_13h50.18.982,watkins1,2023.2.3,99.71740073116374,32,2023-11-29 13h50.26.887753 +0000,
(54 : 6) - 10 = 0 ,Incorrect,button_incorrect,,,,,,,,,,,,,0,0,0,5,,,,,,,,,535.2270284998231,,,,,,,,,,534.1962724998593,535.1999456000049,,,,,['button_incorrect'],[8.688028499949723],,,,,,,,,,,,,,,,,,,,,,,,,,distractorTask,2,,,,,,,,,,,,,,,,,,,,,,,,,535.216106900014,535.2270284998231,543.9090994999278,[-0.3398148148148148],[-0.3814814814814815],[1],[0],[0],[8.688028499949723],['button_incorrect'],543.9097726999316,544.9128789999522,,,,,,,,,,,,,,,,,,,,,,,,,,,,,,,,,,2,2023-11-29_13h50.18.982,watkins1,2023.2.3,99.71740073116374,32,2023-11-29 13h50.26.887753 +0000,
(25 : 5) + 5 = 9 ,Incorrect,button_incorrect,,,,,,,,,,,,,0,1,1,6,,,,,,,,,544.9228633998428,,,,,,,,,,,,,,,,['button_incorrect'],[2.5176142000127584],,,,,,,,,,,,,,,,,,,,,,,,,,distractorTask,2,,,,,,,,,,,,,,,,,,,,,,,,,544.9130671999883,544.9228633998428,547.4339504998643,[-0.3731481481481482],[-0.3962962962962963],[1],[0],[0],[2.5176142000127584],['button_incorrect'],547.4343291998375,548.4376294999383,,,,,,,,,,,,,,,,,,,,,,,,,,,,,,,,,,2,2023-11-29_13h50.18.982,watkins1,2023.2.3,99.71740073116374,32,2023-11-29 13h50.26.887753 +0000,
(7 x 6) + 9 = 48 ,Incorrect,button_incorrect,,,,,,,,,,,,,0,2,2,9,,,,,,,,,548.4475763000082,,,,,,,,,,,,,,,,['button_incorrect'],[6.604512100107968],,,,,,,,,,,,,,,,,,,,,,,,,,distractorTask,2,,,,,,,,,,,,,,,,,,,,,,,,,548.4378165998496,548.4475763000082,555.0457166000269,[-0.2916666666666667],[-0.38055555555555554],[1],[0],[0],[6.604512100107968],['button_incorrect'],555.0461003999226,556.0494422998745,,,,,,,,,,,,,,,,,,,,,,,,,,,,,,,,,,2,2023-11-29_13h50.18.982,watkins1,2023.2.3,99.71740073116374,32,2023-11-29 13h50.26.887753 +0000,
(28 : 7) - 3 = 1 ,Correct,button_correct,,,,,,,,,,,,,0,3,3,0,,,,,,,,,556.0594164000358,,,,,,,,,,,,,,,,['button_correct'],[4.235571200028062],,,,,,,,,,,,,,,,,,,,,,,,,,distractorTask,2,,,,,,,,,,,,,,,,,,,,,,,,,556.049630299909,556.0594164000358,560.2876663999632,[0.32592592592592595],[-0.3990740740740741],[1],[0],[0],[4.235571200028062],['button_correct'],560.2880488999654,561.2913085999899,,,,,,,,,,,,,,,,,,,,,,,,,,,,,,,,,,2,2023-11-29_13h50.18.982,watkins1,2023.2.3,99.71740073116374,32,2023-11-29 13h50.26.887753 +0000,
(80 : 10) + 9 = 17 ,Correct,button_correct,,,,,,,,,,,,,0,4,4,3,,,,,,,,,561.3012947000097,,,,,,,,,,,,,,,,['button_correct'],[5.401516600046307],,,,,,,,,,,,,,,,,,,,,,,,,,distractorTask,2,,,,,,,,,,,,,,,,,,,,,,,,,561.2915004999377,561.3012947000097,566.6948810999747,[0.39166666666666666],[-0.4111111111111111],[1],[0],[0],[5.401516600046307],['button_correct'],566.6952655999921,567.6986181999091,,,,,,,,,,,,,,,,,,,,,,,,,,,,,,,,,,2,2023-11-29_13h50.18.982,watkins1,2023.2.3,99.71740073116374,32,2023-11-29 13h50.26.887753 +0000,
(2 x 5) + 3 = 13 ,Correct,button_correct,,,,,,,,,,,,,0,5,5,2,,,,,,,,,567.7086996999569,,,,,,,,,,,,,,,,['button_correct'],[2.328936900012195],,,,,,,,,,,,,,,,,,,,,,,,,,distractorTask,2,,,,,,,,,,,,,,,,,,,,,,,,,567.6988121999893,567.7086996999569,570.0294729999732,[0.35],[-0.40925925925925927],[1],[0],[0],[2.328936900012195],['button_correct'],570.0298641000409,571.0333284998778,,,,,,,,,,,,,,,,,,,,,,,,,,,,,,,,,,2,2023-11-29_13h50.18.982,watkins1,2023.2.3,99.71740073116374,32,2023-11-29 13h50.26.887753 +0000,
(9 x 5) - 9 = 36 ,Correct,button_correct,,,,,,,,,,,,,0,6,6,4,,,,,,,,,571.0434109999333,,,,,,,,,,,,,,,,['button_correct'],[5.642356000142172],,,,,,,,,,,,,,,,,,,,,,,,,,distractorTask,2,,,,,,,,,,,,,,,,,,,,,,,,,571.0335197998211,571.0434109999333,576.6775915999897,[0.2851851851851852],[-0.38796296296296295],[1],[0],[0],[5.642356000142172],['button_correct'],576.6779734999873,577.6813204998616,,,,,,,,,,,,,,,,,,,,,,,,,,,,,,,,,,2,2023-11-29_13h50.18.982,watkins1,2023.2.3,99.71740073116374,32,2023-11-29 13h50.26.887753 +0000,
(6 x 3) + 10 = 27 ,Incorrect,button_incorrect,,,,,,,,,,,,,0,7,7,8,,,,,,,,,577.6914023999125,,,,,,,,,,,,,,,,['button_incorrect'],[3.8952792999334633],,,,,,,,,,,,,,,,,,,,,,,,,,distractorTask,2,,,,,,,,,,,,,,,,,,,,,,,,,577.681510400027,577.6914023999125,581.5785433999263,[-0.28888888888888886],[-0.3851851851851852],[1],[0],[0],[3.8952792999334633],['button_incorrect'],581.5789234999102,582.5822215999942,,,,,,,,,,,,,,,,,,,,,,,,,,,,,,,,,,2,2023-11-29_13h50.18.982,watkins1,2023.2.3,99.71740073116374,32,2023-11-29 13h50.26.887753 +0000,
(40 : 5) + 8 = 15 ,Incorrect,button_incorrect,,,,,,,,,,,,,0,8,8,7,,,,,,,,,582.5921987998299,,,,,,,,,,,,,,,,['button_correct'],[12.761370899854228],,,,,,,,,,,,,,,,,,,,,,,,,,distractorTask,2,,,,,,,,,,,,,,,,,,,,,,,,,582.582412699936,582.5921987998299,595.3455520998687,[0.35462962962962963],[-0.3861111111111111],[1],[0],[0],[12.761370899854228],['button_correct'],595.3459423999302,596.3491930998862,,,,,,,,,,,,,,,,,,,,,,,,,,,,,,,,,,2,2023-11-29_13h50.18.982,watkins1,2023.2.3,99.71740073116374,32,2023-11-29 13h50.26.887753 +0000,
(4 : 2) + 4 = 6 ,Correct,button_correct,,,,,,,,,,,,,0,9,9,1,,,,,,,,,596.359126099851,,,,,,,,,,,,,,,,['button_correct'],[4.2565345000475645],,,,,,,,,,,,,,,,,,,,,,,,,,distractorTask,2,,,,,,,,,,,,,,,,,,,,,,,,,596.3493908999953,596.359126099851,600.6076505999081,[0.35833333333333334],[-0.41388888888888886],[1],[0],[0],[4.2565345000475645],['button_correct'],600.6080908000004,601.6115953000262,,,,,,,,,,,,,,,,,,,,,,,,,,,,,,,,,,2,2023-11-29_13h50.18.982,watkins1,2023.2.3,99.71740073116374,32,2023-11-29 13h50.26.887753 +0000,
,,,,,,,,,,,,,,,,,,,,,,,,,,,,,,,,,,,,,,,,,,,,,,,,,,,,,,,,,,,,,,,,,,,,,,,2,,,,,,,,,,,,,,,,,,,,,,,,,,,,,,,,,,,,,,,,,,,,,,,,,,,,,,,,,,,,,,,,,,,,,,2,2023-11-29_13h50.18.982,watkins1,2023.2.3,99.71740073116374,32,2023-11-29 13h50.26.887753 +0000,
,,,,,,,,,,,,,,,,,,,0,0,0,0,,,,,612.5206164999399,,,,,,,,,,,,,,,,fahrrad,11.89102889993228,,,,,,,,,,,,6.025103500112891,None,,,,,,,,,,,,,freeRecallSub,2,,,,,,,,,,,,,,,,,,,,,,,,,,,,,,,,,,,,,612.5120433999691,612.5206164999399,612.5206164999399,624.4210263998248,return,11.89102889993228,None,fahrrad,[-0.006481481481481481],[0.04722222222222222],[1],[0],[0],[4.126785899978131],[],,,,,,,,,,,,,,,,,,,2,2023-11-29_13h50.18.982,watkins1,2023.2.3,99.71740073116374,32,2023-11-29 13h50.26.887753 +0000,
,,,,,,,,,,,,,,,,,,,1,0,1,0,,,,,624.4331294998992,,,,,,,,,,,,,,,,eimer,5.562407300109044,,,,,,,,,,,,4.249911499908194,None,,,,,,,,,,,,,freeRecallSub,2,,,,,,,,,,,,,,,,,,,,,,,,,,,,,,,,,,,,,624.4228155999444,624.4331294998992,624.4331294998992,629.9982115000021,return,5.562407300109044,None,eimer,[],[],[],[],[],[],[],,,,,,,,,,,,,,,,,,,2,2023-11-29_13h50.18.982,watkins1,2023.2.3,99.71740073116374,32,2023-11-29 13h50.26.887753 +0000,
,,,,,,,,,,,,,,,,,,,2,0,2,0,,,,,630.0090256999247,,,,,,,,,,,,,,,,blume,2.434679900063202,,,,,,,,,,,,1.3259503000881523,None,,,,,,,,,,,,,freeRecallSub,2,,,,,,,,,,,,,,,,,,,,,,,,,,,,,,,,,,,,,629.9995742000174,630.0090256999247,630.0090256999247,632.4501107998658,return,2.434679900063202,None,blume,[],[],[],[],[],[],[],,,,,,,,,,,,,,,,,,,2,2023-11-29_13h50.18.982,watkins1,2023.2.3,99.71740073116374,32,2023-11-29 13h50.26.887753 +0000,
,,,,,,,,,,,,,,,,,,,3,0,3,0,,,,,632.4609717999119,,,,,,,,,,,,,,,,kerze,3.118652299977839,,,,,,,,,,,,2.329706800170243,None,,,,,,,,,,,,,freeRecallSub,2,,,,,,,,,,,,,,,,,,,,,,,,,,,,,,,,,,,,,632.4513554999139,632.4609717999119,632.4609717999119,635.5845306999981,return,3.118652299977839,None,kerze,[],[],[],[],[],[],[],,,,,,,,,,,,,,,,,,,2,2023-11-29_13h50.18.982,watkins1,2023.2.3,99.71740073116374,32,2023-11-29 13h50.26.887753 +0000,
,,,,,,,,,,,,,,,,,,,4,0,4,0,,,,,635.5954145998694,,,,,,,,,,,,,,,,rucksack,10.16022860002704,,,,,,,,,,,,8.545883900020272,None,,,,,,,,,,,,,freeRecallSub,2,,,,,,,,,,,,,,,,,,,,,,,,,,,,,,,,,,,,,635.5857921999414,635.5954145998694,635.5954145998694,645.7586558999028,return,10.16022860002704,None,rucksack,[],[],[],[],[],[],[],,,,,,,,,,,,,,,,,,,2,2023-11-29_13h50.18.982,watkins1,2023.2.3,99.71740073116374,32,2023-11-29 13h50.26.887753 +0000,
,,,,,,,,,,,,,,,,,,,5,0,5,0,,,,,645.7698756000027,,,,,,,,,,,,,,,,tasse,1.4176537999883294,,,,,,,,,,,,0.6134575000032783,None,,,,,,,,,,,,,freeRecallSub,2,,,,,,,,,,,,,,,,,,,,,,,,,,,,,,,,,,,,,645.7599259000272,645.7698756000027,645.7698756000027,647.1967672000173,return,1.4176537999883294,None,tasse,[],[],[],[],[],[],[],,,,,,,,,,,,,,,,,,,2,2023-11-29_13h50.18.982,watkins1,2023.2.3,99.71740073116374,32,2023-11-29 13h50.26.887753 +0000,
,,,,,,,,,,,,,,,,,,,6,0,6,0,,,,,647.2081831998657,,,,,,,,,,,,,,,,löffel,5.2433966000098735,,,,,,,,,,,,4.0692549999803305,None,,,,,,,,,,,,,freeRecallSub,2,,,,,,,,,,,,,,,,,,,,,,,,,,,,,,,,,,,,,647.1980129999574,647.2081831998657,647.2081831998657,652.4521844999399,return,5.2433966000098735,None,löffel,[],[],[],[],[],[],[],,,,,,,,,,,,,,,,,,,2,2023-11-29_13h50.18.982,watkins1,2023.2.3,99.71740073116374,32,2023-11-29 13h50.26.887753 +0000,
,,,,,,,,,,,,,,,,,,,7,0,7,0,,,,,652.4638570998795,,,,,,,,,,,,,,,,vase,2.499750299844891,,,,,,,,,,,,1.779518200084567,None,,,,,,,,,,,,,freeRecallSub,2,,,,,,,,,,,,,,,,,,,,,,,,,,,,,,,,,,,,,652.4534685998224,652.4638570998795,652.4638570998795,654.9665581998415,return,2.499750299844891,None,vase,[],[],[],[],[],[],[],,,,,,,,,,,,,,,,,,,2,2023-11-29_13h50.18.982,watkins1,2023.2.3,99.71740073116374,32,2023-11-29 13h50.26.887753 +0000,
,,,,,,,,,,,,,,,,,,,8,0,8,0,,,,,654.9782596998848,,,,,,,,,,,,,,,,jacke,11.0652659998741,,,,,,,,,,,,10.004170599859208,None,,,,,,,,,,,,,freeRecallSub,2,,,,,,,,,,,,,,,,,,,,,,,,,,,,,,,,,,,,,654.9678368999157,654.9782596998848,654.9782596998848,666.0465710000135,return,11.0652659998741,None,jacke,[],[],[],[],[],[],[],,,,,,,,,,,,,,,,,,,2,2023-11-29_13h50.18.982,watkins1,2023.2.3,99.71740073116374,32,2023-11-29 13h50.26.887753 +0000,
,,,,,,,,,,,,,,,,,,,9,0,9,0,,,,,666.0585969998501,,,,,,,,,,,,,,,,geige,5.000994500005618,,,,,,,,,,,,4.099285100121051,None,,,,,,,,,,,,,freeRecallSub,2,,,,,,,,,,,,,,,,,,,,,,,,,,,,,,,,,,,,,666.0478520998731,666.0585969998501,666.0585969998501,671.0612739999779,return,5.000994500005618,None,geige,[],[],[],[],[],[],[],,,,,,,,,,,,,,,,,,,2,2023-11-29_13h50.18.982,watkins1,2023.2.3,99.71740073116374,32,2023-11-29 13h50.26.887753 +0000,
,,,,,,,,,,,,,,,,,,,10,0,10,0,,,,,671.0734743999783,,,,,,,,,,,,,,,,kiste,7.3621278998907655,,,,,,,,,,,,6.4902570999693125,None,,,,,,,,,,,,,freeRecallSub,2,,,,,,,,,,,,,,,,,,,,,,,,,,,,,,,,,,,,,671.0625189000275,671.0734743999783,671.0734743999783,678.4364418999758,return,7.3621278998907655,None,kiste,[],[],[],[],[],[],[],,,,,,,,,,,,,,,,,,,2,2023-11-29_13h50.18.982,watkins1,2023.2.3,99.71740073116374,32,2023-11-29 13h50.26.887753 +0000,
,,,,,,,,,,,,,,,,,,,11,0,11,0,,,,,678.4479801999405,,,,,,,,,,,,,,,,hund,75.90760249993764,,,,,,,,,,,,74.99024980003014,None,,,,,,,,,,,,,freeRecallSub,2,,,,,,,,,,,,,,,,,,,,,,,,,,,,,,,,,,,,,678.4376956999768,678.4479801999405,678.4479801999405,754.3620716000441,return,75.90760249993764,None,hund,[],[],[],[],[],[],[],,,,,,,,,,,,,,,,,,,2,2023-11-29_13h50.18.982,watkins1,2023.2.3,99.71740073116374,32,2023-11-29 13h50.26.887753 +0000,
,,,,,,,,,,,,,,,,,,,12,0,12,0,,,,,754.3746132999659,,,,,,,,,,,,,,,,hammer,21.396775499917567,,,,,,,,,,,,20.409105099970475,None,,,,,,,,,,,,,freeRecallSub,2,,,,,,,,,,,,,,,,,,,,,,,,,,,,,,,,,,,,,754.3633685999084,754.3746132999659,754.3746132999659,775.7768248999491,return,21.396775499917567,None,hammer,[],[],[],[],[],[],[],,,,,,,,,,,,,,,,,,,2,2023-11-29_13h50.18.982,watkins1,2023.2.3,99.71740073116374,32,2023-11-29 13h50.26.887753 +0000,
,,,,,,,,,,,,,,,,,,,13,0,13,0,,,,,775.7894494000357,,,,,,,,,,,,,,,,buch,26.14202219992876,,,,,,,,,,,,25.14821909996681,None,,,,,,,,,,,,,freeRecallSub,2,,,,,,,,,,,,,,,,,,,,,,,,,,,,,,,,,,,,,775.7780932998285,775.7894494000357,775.7894494000357,801.9405322999228,return,26.14202219992876,None,buch,[],[],[],[],[],[],[],,,,,,,,,,,,,,,,,,,2,2023-11-29_13h50.18.982,watkins1,2023.2.3,99.71740073116374,32,2023-11-29 13h50.26.887753 +0000,
,,,,,,,,,,,,,,,,,,,14,0,14,0,,,,,801.9532396998256,,,,,,,,,,,,,,,,brille,104.94614119990729,,,,,,,,,,,,53.08486669999547,58.10559960012324,,,,,,,,,,,,,freeRecallSub,2,,,,,,,,,,,,,,,,,,,,,,,,,,,,,,,,,,,,,801.9418078998569,801.9532396998256,801.9532396998256,906.9024296000134,return,104.94614119990729,None,brille,[],[],[],[],[],[],[],,,,,,,,,,,,,,,,,,,2,2023-11-29_13h50.18.982,watkins1,2023.2.3,99.71740073116374,32,2023-11-29 13h50.26.887753 +0000,
,,,,,,,,,,,,,,,,,,,15,0,15,0,,,,,906.9155250999611,,,,,,,,,,,,,,,,bürste,277.439553800039,,,,,,,,,,,,271.865629500011,None,,,,,,,,,,,,,freeRecallSub,2,,,,,,,,,,,,,,,,,,,,,,,,,,,,,,,,,,,,,906.9037299000192,906.9155250999611,906.9155250999611,1184.3627110000234,return,277.439553800039,None,bürste,[],[],[],[],[],[],[],,,,,,,,,,,,,,,,,,,2,2023-11-29_13h50.18.982,watkins1,2023.2.3,99.71740073116374,32,2023-11-29 13h50.26.887753 +0000,
,,,,,,,,,,,,,,,,,,,16,0,16,0,,,,,1184.3767366998363,,,,,,,,,,,,,,,,schlüssel,44.170231100171804,,,,,,,,,,,,40.856233599828556,None,,,,,,,,,,,,,freeRecallSub,2,,,,,,,,,,,,,,,,,,,,,,,,,,,,,,,,,,,,,1184.3641718998551,1184.3767366998363,1184.3767366998363,1228.5541044999845,return,44.170231100171804,None,schlüssel,[],[],[],[],[],[],[],,,,,,,,,,,,,,,,,,,2,2023-11-29_13h50.18.982,watkins1,2023.2.3,99.71740073116374,32,2023-11-29 13h50.26.887753 +0000,
,,,,,,,,,,,,,,,,,,,17,0,17,0,,,,,1228.5675725999754,,,,,,,,,,,,,,,,trommel,82.91542189987376,,,,,,,,,,,,68.11143520008773,None,,,,,,,,,,,,,freeRecallSub,2,,,,,,,,,,,,,,,,,,,,,,,,,,,,,,,,,,,,,1228.5553905998822,1228.5675725999754,1228.5675725999754,1311.4905852999073,return,82.91542189987376,None,trommel,[],[],[],[],[],[],[],,,,,,,,,,,,,,,,,,,2,2023-11-29_13h50.18.982,watkins1,2023.2.3,99.71740073116374,32,2023-11-29 13h50.26.887753 +0000,
,,,,,,,,,,,,,,,,,,,18,0,18,0,,,,,1311.5049771999475,,,,,,,,,,,,,,,,ring,398.5775808999315,,,,,,,,,,,,397.41557199996896,None,,,,,,,,,,,,,freeRecallSub,2,,,,,,,,,,,,,,,,,,,,,,,,,,,,,,,,,,,,,1311.4918894998264,1311.5049771999475,1311.5049771999475,1710.0923440000042,return,398.5775808999315,None,ring,"[-0.6166666666666667, 0.024074074074074074]","[-0.14166666666666666, 0.05740740740740741]","[1, 1]","[0, 0]","[0, 0]","[3.3049244000576437, 4.459483199985698]",[],,,,,,,,,,,,,,,,,,,2,2023-11-29_13h50.18.982,watkins1,2023.2.3,99.71740073116374,32,2023-11-29 13h50.26.887753 +0000,
,,,,,,,,,,,,,,,,,,,19,0,19,0,,,,,1710.1064305000473,,,,,,,,,,,,,,,,kette,38.480088100070134,,,,,,,,,,,,35.433580100070685,None,,,,,,,,,,,,,freeRecallSub,2,,,,,,,,,,,,,,,,,,,,,,,,,,,,,,,,,,,,,1710.0937091000378,1710.1064305000473,1710.1064305000473,1748.5900921998546,return,38.480088100070134,None,kette,[],[],[],[],[],[],[],,,,,,,,,,,,,,,,,,,2,2023-11-29_13h50.18.982,watkins1,2023.2.3,99.71740073116374,32,2023-11-29 13h50.26.887753 +0000,
,,,,,,,,,,,,,,,,,,,20,0,20,0,,,,,1748.6045515998267,,,,,,,,,,,,,,,,,[],,,,,,,,,,,,None,None,,,,,,,,,,,,,freeRecallSub,2,,,,,,,,,,,,,,,,,,,,,,,,,,,,,,,,,,,,,1748.5913879999425,1748.6045515998267,1748.6045515998267,1791.7701385000255,None,,,,[0.14722222222222223],[-0.4027777777777778],[1],[0],[0],[43.171928900061175],"['button_continue', 'continue_text']",,,,,,,,,,,,,,,,,,,2,2023-11-29_13h50.18.982,watkins1,2023.2.3,99.71740073116374,32,2023-11-29 13h50.26.887753 +0000,
,,,,,,,,,,,,,,,,,,,,,,,,,,,,,,,,,,,,,,,,,,,,,,,,,,,,,,,,,,,,,,,,,,,,,,,2,,,,,,,,,,,,,,,,,,,,,,,,,,,,,,,,,,,,,,,,,,,,,,,,,,,,,,,,,,,,,,,,,,,,,,2,2023-11-29_13h50.18.982,watkins1,2023.2.3,99.71740073116374,32,2023-11-29 13h50.26.887753 +0000,
,,,,,,,,,,,,,,,,,,,,,,,0,0,0,0,1801.2815992999822,,,,,,,,,,,,1842.2657993000466,1842.7551909999456,,,,40.976742499973625,,,,,,,,,,,,None,None,,,,,,,,,,Stift,,,cuedRecallAdj,2,,,,,,,,,,,,,,,,,,,,,,,,0,,,,,,,,,,,,,,,,,,,,,,,,,,,,1801.272627600003,1801.2815992999822,1801.2815992999822,1842.2636595000513,,return,40.976742499973625,None,1842.264060099842,1842.2731293998659,1842.2731293998659,1842.26564899995,,None,,,,,2,2023-11-29_13h50.18.982,watkins1,2023.2.3,99.71740073116374,32,2023-11-29 13h50.26.887753 +0000,
,,,,,,,,,,,,,,,,,,,,,,,1,0,1,0,1842.7651467998512,,,,,,,,,,,,1852.4385799998417,1852.9374553998932,,,,9.661274400074035,,,,,,,,,,,,None,None,,,,,,,,,,Bürste,,,cuedRecallAdj,2,,,,,,,,,,,,,,,,,,,,,,,,0,,,,,,,,,,,,,,,,,,,,,,,,,,,,1842.755437299842,1842.7651467998512,1842.7651467998512,1852.4355196999386,lang,return,9.661274400074035,None,1852.4357863999903,1852.4452178999782,1852.4452178999782,1852.4384776998777,,None,,,,,2,2023-11-29_13h50.18.982,watkins1,2023.2.3,99.71740073116374,32,2023-11-29 13h50.26.887753 +0000,
,,,,,,,,,,,,,,,,,,,,,,,2,0,2,0,1852.9473725999705,,,,,,,,,,,,1886.1432202998549,1886.6419179998338,,,,33.18298380007036,,,,,,,,,,,,None,None,,,,,,,,,,Kiste,,,cuedRecallAdj,2,,,,,,,,,,,,,,,,,,,,,,,,0,,,,,,,,,,,,,,,,,,,,,,,,,,,,1852.9377078998368,1852.9473725999705,1852.9473725999705,1886.140101299854,gequetscht,return,33.18298380007036,None,1886.140365399886,1886.1497667999938,1886.1497667999938,1886.1431163998786,,None,,,,,2,2023-11-29_13h50.18.982,watkins1,2023.2.3,99.71740073116374,32,2023-11-29 13h50.26.887753 +0000,
,,,,,,,,,,,,,,,,,,,,,,,3,0,3,0,1886.6518143999856,,,,,,,,,,,,1987.6851241998374,1988.1744623999111,,,,101.03041850007139,,,,,,,,,,,,None,None,,,,,,,,,,Uhr,,,cuedRecallAdj,2,,,,,,,,,,,,,,,,,,,,,,,,0,,,,,,,,,,,,,,,,,,,,,,,,,,,,1886.6421637998428,1886.6518143999856,1886.6518143999856,1987.6829013000242,,return,101.03041850007139,None,1987.6831692999694,1987.6923787998967,1987.6923787998967,1987.685022899881,,None,,,,,2,2023-11-29_13h50.18.982,watkins1,2023.2.3,99.71740073116374,32,2023-11-29 13h50.26.887753 +0000,
,,,,,,,,,,,,,,,,,,,,,,,4,0,4,0,1988.184370300034,,,,,,,,,,,,2011.1722621000372,2011.6621168998536,,,,22.977801700122654,,,,,,,,,,,,None,None,,,,,,,,,,Würfel,,,cuedRecallAdj,2,,,,,,,,,,,,,,,,,,,,,,,,0,,,,,,,,,,,,,,,,,,,,,,,,,,,,1988.1747232000344,1988.184370300034,1988.184370300034,2011.170300599886,,return,22.977801700122654,None,2011.1705648999196,2011.180025599897,2011.180025599897,2011.1721588999499,,None,,,,,2,2023-11-29_13h50.18.982,watkins1,2023.2.3,99.71740073116374,32,2023-11-29 13h50.26.887753 +0000,
,,,,,,,,,,,,,,,,,,,,,,,5,0,5,0,2011.672069599852,,,,,,,,,,,,2016.1640943998937,2016.6627970000263,,,,4.482099700020626,,,,,,,,,,,,None,None,,,,,,,,,,Brille,,,cuedRecallAdj,2,,,,,,,,,,,,,,,,,,,,,,,,0,,,,,,,,,,,,,,,,,,,,,,,,,,,,2011.6623600998428,2011.672069599852,2011.672069599852,2016.161084299907,blass,return,4.482099700020626,None,2016.1613497999497,2016.170632999856,2016.170632999856,2016.163993399823,,None,,,,,2,2023-11-29_13h50.18.982,watkins1,2023.2.3,99.71740073116374,32,2023-11-29 13h50.26.887753 +0000,
,,,,,,,,,,,,,,,,,,,,,,,6,0,6,0,2016.672701699892,,,,,,,,,,,,2019.710093199974,2020.2082079998218,,,,3.033474300056696,,,,,,,,,,,,None,None,,,,,,,,,,Kette,,,cuedRecallAdj,2,,,,,,,,,,,,,,,,,,,,,,,,0,,,,,,,,,,,,,,,,,,,,,,,,,,,,2016.6630356998648,2016.672701699892,2016.672701699892,2019.7067160999868,schlicht,return,3.033474300056696,None,2019.706998999929,2019.7162351999432,2019.7162351999432,2019.7099925999064,,None,,,,,2,2023-11-29_13h50.18.982,watkins1,2023.2.3,99.71740073116374,32,2023-11-29 13h50.26.887753 +0000,
,,,,,,,,,,,,,,,,,,,,,,,7,0,7,0,2020.2181481998414,,,,,,,,,,,,2022.3603662999813,2022.8591638000216,,,,2.1361188001465052,,,,,,,,,,,,None,None,,,,,,,,,,Blume,,,cuedRecallAdj,2,,,,,,,,,,,,,,,,,,,,,,,,0,,,,,,,,,,,,,,,,,,,,,,,,,,,,2020.208455399843,2020.2181481998414,2020.2181481998414,2022.3573839999735,breit,return,2.1361188001465052,None,2022.3576501000207,2022.3670415000524,2022.3670415000524,2022.3602656000294,,None,,,,,2,2023-11-29_13h50.18.982,watkins1,2023.2.3,99.71740073116374,32,2023-11-29 13h50.26.887753 +0000,
,,,,,,,,,,,,,,,,,,,,,,,8,0,8,0,2022.8691117998678,,,,,,,,,,,,2025.4931887998246,2025.9920127999503,,,,2.6130990001838654,,,,,,,,,,,,None,None,,,,,,,,,,Geige,,,cuedRecallAdj,2,,,,,,,,,,,,,,,,,,,,,,,,0,,,,,,,,,,,,,,,,,,,,,,,,,,,,2022.8594072000124,2022.8691117998678,2022.8691117998678,2025.490168799879,robust,return,2.6130990001838654,None,2025.4904350999277,2025.4998794998974,2025.4998794998974,2025.4930873999838,,None,,,,,2,2023-11-29_13h50.18.982,watkins1,2023.2.3,99.71740073116374,32,2023-11-29 13h50.26.887753 +0000,
,,,,,,,,,,,,,,,,,,,,,,,9,0,9,0,2026.0020615998656,,,,,,,,,,,,2028.7066213998478,2029.2053505999502,,,,2.6960647001396865,,,,,,,,,,,,None,None,,,,,,,,,,Kerze,,,cuedRecallAdj,2,,,,,,,,,,,,,,,,,,,,,,,,0,,,,,,,,,,,,,,,,,,,,,,,,,,,,2025.9922587999608,2026.0020615998656,2026.0020615998656,2028.703574999934,hohl,return,2.6960647001396865,None,2028.7038411998656,2028.7132447999902,2028.7132447999902,2028.7065189999994,,None,,,,,2,2023-11-29_13h50.18.982,watkins1,2023.2.3,99.71740073116374,32,2023-11-29 13h50.26.887753 +0000,
,,,,,,,,,,,,,,,,,,,,,,,10,0,10,0,2029.2152968000155,,,,,,,,,,,,2043.7489151000045,2044.2477791998535,,,,14.522933600004762,,,,,,,,,,,,None,None,,,,,,,,,,Trommel,,,cuedRecallAdj,2,,,,,,,,,,,,,,,,,,,,,,,,0,,,,,,,,,,,,,,,,,,,,,,,,,,,,2029.2055921999272,2029.2152968000155,2029.2152968000155,2043.745853799861,gedehnt,return,14.522933600004762,None,2043.7461222999264,2043.75568689988,2043.75568689988,2043.748812600039,,None,,,,,2,2023-11-29_13h50.18.982,watkins1,2023.2.3,99.71740073116374,32,2023-11-29 13h50.26.887753 +0000,
,,,,,,,,,,,,,,,,,,,,,,,11,0,11,0,2044.2577275999356,,,,,,,,,,,,2051.9932811998297,2052.4918441998307,,,,7.728398100007325,,,,,,,,,,,,None,None,,,,,,,,,,Kamera,,,cuedRecallAdj,2,,,,,,,,,,,,,,,,,,,,,,,,0,,,,,,,,,,,,,,,,,,,,,,,,,,,,2044.2480245998595,2044.2577275999356,2044.2577275999356,2051.9901792998426,gepunktet,return,7.728398100007325,None,2051.9904475999065,2051.999747999944,2051.999747999944,2051.9931795999873,,None,,,,,2,2023-11-29_13h50.18.982,watkins1,2023.2.3,99.71740073116374,32,2023-11-29 13h50.26.887753 +0000,
,,,,,,,,,,,,,,,,,,,,,,,12,0,12,0,2052.501792999916,,,,,,,,,,,,2054.613963800017,2055.11255849991,,,,2.1083915000781417,,,,,,,,,,,,None,None,,,,,,,,,,Fahrrad,,,cuedRecallAdj,2,,,,,,,,,,,,,,,,,,,,,,,,0,,,,,,,,,,,,,,,,,,,,,,,,,,,,2052.4921051999554,2052.501792999916,2052.501792999916,2054.6109549000394,flach,return,2.1083915000781417,None,2054.611224599881,2054.6205239000265,2054.6205239000265,2054.613861899823,,None,,,,,2,2023-11-29_13h50.18.982,watkins1,2023.2.3,99.71740073116374,32,2023-11-29 13h50.26.887753 +0000,
,,,,,,,,,,,,,,,,,,,,,,,13,0,13,0,2055.1226021000184,,,,,,,,,,,,2060.277972199954,2060.7761863998603,,,,5.1517575001344085,,,,,,,,,,,,None,None,,,,,,,,,,Hammer,,,cuedRecallAdj,2,,,,,,,,,,,,,,,,,,,,,,,,0,,,,,,,,,,,,,,,,,,,,,,,,,,,,2055.112806699937,2055.1226021000184,2055.1226021000184,2060.2747627999634,verspielt,return,5.1517575001344085,None,2060.2750434000045,2060.284121299861,2060.284121299861,2060.277869499987,,None,,,,,2,2023-11-29_13h50.18.982,watkins1,2023.2.3,99.71740073116374,32,2023-11-29 13h50.26.887753 +0000,
,,,,,,,,,,,,,,,,,,,,,,,14,0,14,0,2060.7860909998417,,,,,,,,,,,,2169.0133102999534,2169.5123198998626,,,,108.21598679991439,,,,,,,,,,,,None,None,,,,,,,,,,Jacke,,,cuedRecallAdj,2,,,,,,,,,,,,,,,,,,,,,,,,0,,,,,,,,,,,,,,,,,,,,,,,,,,,,2060.776423000032,2060.7860909998417,2060.7860909998417,2169.010286799865,robust,return,108.21598679991439,None,2169.0105561998207,2169.0200014000293,2169.0200014000293,2169.0132079999894,,None,,,,,2,2023-11-29_13h50.18.982,watkins1,2023.2.3,99.71740073116374,32,2023-11-29 13h50.26.887753 +0000,
,,,,,,,,,,,,,,,,,,,,,,,15,0,15,0,2169.522239099955,,,,,,,,,,,,2185.192599499831,2185.691363999853,,,,15.663835400016978,,,,,,,,,,,,None,None,,,,,,,,,,Tasche,,,cuedRecallAdj,2,,,,,,,,,,,,,,,,,,,,,,,,0,,,,,,,,,,,,,,,,,,,,,,,,,,,,2169.5125666998792,2169.522239099955,2169.522239099955,2185.1895955000073,klein,return,15.663835400016978,None,2185.189866299974,2185.1991744998377,2185.1991744998377,2185.1924981998745,,None,,,,,2,2023-11-29_13h50.18.982,watkins1,2023.2.3,99.71740073116374,32,2023-11-29 13h50.26.887753 +0000,
,,,,,,,,,,,,,,,,,,,,,,,16,0,16,0,2185.701304799877,,,,,,,,,,,,2234.897893300047,2235.387084499933,,,,49.1886432999745,,,,,,,,,,,,None,None,,,,,,,,,,Telefon,,,cuedRecallAdj,2,,,,,,,,,,,,,,,,,,,,,,,,0,,,,,,,,,,,,,,,,,,,,,,,,,,,,2185.6916076999623,2185.701304799877,2185.701304799877,2234.895559199853,,return,49.1886432999745,None,2234.895826899912,2234.905144299846,2234.905144299846,2234.897791699972,,None,,,,,2,2023-11-29_13h50.18.982,watkins1,2023.2.3,99.71740073116374,32,2023-11-29 13h50.26.887753 +0000,
,,,,,,,,,,,,,,,,,,,,,,,17,0,17,0,2235.3971400999,,,,,,,,,,,,2252.1083469998557,2252.59839119995,,,,16.70077109988779,,,,,,,,,,,,None,None,,,,,,,,,,Hut,,,cuedRecallAdj,2,,,,,,,,,,,,,,,,,,,,,,,,0,,,,,,,,,,,,,,,,,,,,,,,,,,,,2235.3873324999586,2235.3971400999,2235.3971400999,2252.10649939999,,return,16.70077109988779,None,2252.106764300028,2252.1162934999447,2252.1162934999447,2252.108242099872,,None,,,,,2,2023-11-29_13h50.18.982,watkins1,2023.2.3,99.71740073116374,32,2023-11-29 13h50.26.887753 +0000,
,,,,,,,,,,,,,,,,,,,,,,,18,0,18,0,2252.608441799879,,,,,,,,,,,,2254.840971800033,2255.339780099923,,,,2.2255453001707792,,,,,,,,,,,,None,None,,,,,,,,,,Eimer,,,cuedRecallAdj,2,,,,,,,,,,,,,,,,,,,,,,,,0,,,,,,,,,,,,,,,,,,,,,,,,,,,,2252.598636499839,2252.608441799879,2252.608441799879,2254.8381517999806,gut,return,2.2255453001707792,None,2254.838416500017,2254.847615899984,2254.847615899984,2254.840866900049,,None,,,,,2,2023-11-29_13h50.18.982,watkins1,2023.2.3,99.71740073116374,32,2023-11-29 13h50.26.887753 +0000,
,,,,,,,,,,,,,,,,,,,,,,,19,0,19,0,2255.349725399865,,,,,,,,,,,,2262.2719258000143,2262.770693899831,,,,6.91629400011152,,,,,,,,,,,,None,None,,,,,,,,,,Lampe,,,cuedRecallAdj,2,,,,,,,,,,,,,,,,,,,,,,,,0,,,,,,,,,,,,,,,,,,,,,,,,,,,,2255.340026400052,2255.349725399865,2255.349725399865,2262.2690182998776,neu,return,6.91629400011152,None,2262.2692831000313,2262.2785723998677,2262.2785723998677,2262.2718243999407,,None,,,,,2,2023-11-29_13h50.18.982,watkins1,2023.2.3,99.71740073116374,32,2023-11-29 13h50.26.887753 +0000,
,,,,,,,,,,,,,,,,,,,,,,,20,0,20,0,2262.780633899849,,,,,,,,,,,,2266.5099019999616,2267.0087583998684,,,,3.7173398002050817,,,,,,,,,,,,None,None,,,,,,,,,,Schlüssel,,,cuedRecallAdj,2,,,,,,,,,,,,,,,,,,,,,,,,0,,,,,,,,,,,,,,,,,,,,,,,,,,,,2262.770944699878,2262.780633899849,2262.780633899849,2266.5068256999366,hübsch,return,3.7173398002050817,None,2266.5070960999,2266.516506599961,2266.516506599961,2266.509801100008,,None,,,,,2,2023-11-29_13h50.18.982,watkins1,2023.2.3,99.71740073116374,32,2023-11-29 13h50.26.887753 +0000,
,,,,,,,,,,,,,,,,,,,,,,,21,0,21,0,2267.018704399932,,,,,,,,,,,,2271.0789759999607,2271.568477799883,,,,4.05527410004288,,,,,,,,,,,,None,None,,,,,,,,,,Tasse,,,cuedRecallAdj,2,,,,,,,,,,,,,,,,,,,,,,,,0,,,,,,,,,,,,,,,,,,,,,,,,,,,,2267.0090008999687,2267.018704399932,2267.018704399932,2271.0759103000164,gestreift,return,4.05527410004288,None,2271.0761778999586,2271.085460399976,2271.085460399976,2271.078875300009,,None,,,,,2,2023-11-29_13h50.18.982,watkins1,2023.2.3,99.71740073116374,32,2023-11-29 13h50.26.887753 +0000,
,,,,,,,,,,,,,,,,,,,,,,,22,0,22,0,2271.578534199856,,,,,,,,,,,,2293.5333348999266,2294.031984800007,,,,21.943400399992242,,,,,,,,,,,,None,None,,,,,,,,,,Löffel,,,cuedRecallAdj,2,,,,,,,,,,,,,,,,,,,,,,,,0,,,,,,,,,,,,,,,,,,,,,,,,,,,,2271.5687241000123,2271.578534199856,2271.578534199856,2293.5300620999187,neugierig,return,21.943400399992242,None,2293.5303322998807,2293.539775099838,2293.539775099838,2293.5332316998392,,None,,,,,2,2023-11-29_13h50.18.982,watkins1,2023.2.3,99.71740073116374,32,2023-11-29 13h50.26.887753 +0000,
,,,,,,,,,,,,,,,,,,,,,,,23,0,23,0,2294.0419136998244,,,,,,,,,,,,2295.782246199902,2296.281173299998,,,,1.7279564999043941,,,,,,,,,,,,None,None,,,,,,,,,,Buch,,,cuedRecallAdj,2,,,,,,,,,,,,,,,,,,,,,,,,0,,,,,,,,,,,,,,,,,,,,,,,,,,,,2294.0322381998412,2294.0419136998244,2294.0419136998244,2295.7792970999144,dick,return,1.7279564999043941,None,2295.7795587000437,2295.7889733999036,2295.7889733999036,2295.782144199824,,None,,,,,2,2023-11-29_13h50.18.982,watkins1,2023.2.3,99.71740073116374,32,2023-11-29 13h50.26.887753 +0000,
,,,,,,,,,,,,,,,,,,,,,,,24,0,24,0,2296.2911210998427,,,,,,,,,,,,2305.072892499855,2305.57154299994,,,,8.774866400053725,,,,,,,,,,,,None,None,,,,,,,,,,Schere,,,cuedRecallAdj,2,,,,,,,,,,,,,,,,,,,,,,,,0,,,,,,,,,,,,,,,,,,,,,,,,,,,,2296.2814127998427,2296.2911210998427,2296.2911210998427,2305.0699938999023,kurz,return,8.774866400053725,None,2305.070260499837,2305.0794632998295,2305.0794632998295,2305.0727893000003,,None,,,,,2,2023-11-29_13h50.18.982,watkins1,2023.2.3,99.71740073116374,32,2023-11-29 13h50.26.887753 +0000,
,,,,,,,,,,,,,,,,,,,,,,,25,0,25,0,2305.5815091000404,,,,,,,,,,,,2310.2141811000183,2310.712929500034,,,,4.620362999849021,,,,,,,,,,,,None,None,,,,,,,,,,Flasche,,,cuedRecallAdj,2,,,,,,,,,,,,,,,,,,,,,,,,0,,,,,,,,,,,,,,,,,,,,,,,,,,,,2305.5717931999825,2305.5815091000404,2305.5815091000404,2310.211147399852,winzig,return,4.620362999849021,None,2310.2114132000133,2310.220980899874,2310.220980899874,2310.2140788999386,,None,,,,,2,2023-11-29_13h50.18.982,watkins1,2023.2.3,99.71740073116374,32,2023-11-29 13h50.26.887753 +0000,
,,,,,,,,,,,,,,,,,,,,,,,26,0,26,0,2310.722938199993,,,,,,,,,,,,2314.201374599943,2314.6997169000097,,,,3.4710379999596626,,,,,,,,,,,,None,None,,,,,,,,,,Rucksack,,,cuedRecallAdj,2,,,,,,,,,,,,,,,,,,,,,,,,0,,,,,,,,,,,,,,,,,,,,,,,,,,,,2310.7131680999883,2310.722938199993,2310.722938199993,2314.197988699889,gepunktet,return,3.4710379999596626,None,2314.1982533999253,2314.207638199907,2314.207638199907,2314.2012740999926,,None,,,,,2,2023-11-29_13h50.18.982,watkins1,2023.2.3,99.71740073116374,32,2023-11-29 13h50.26.887753 +0000,
,,,,,,,,,,,,,,,,,,,,,,,27,0,27,0,2314.7096124999225,,,,,,,,,,,,2320.0447189998813,2320.543733399827,,,,5.324337099911645,,,,,,,,,,,,None,None,,,,,,,,,,Ring,,,cuedRecallAdj,2,,,,,,,,,,,,,,,,,,,,,,,,0,,,,,,,,,,,,,,,,,,,,,,,,,,,,2314.699959699996,2314.7096124999225,2314.7096124999225,2320.0419836000074,groß,return,5.324337099911645,None,2320.04224650003,2320.051656299969,2320.051656299969,2320.04461620003,,None,,,,,2,2023-11-29_13h50.18.982,watkins1,2023.2.3,99.71740073116374,32,2023-11-29 13h50.26.887753 +0000,
,,,,,,,,,,,,,,,,,,,,,,,28,0,28,0,2320.553772300016,,,,,,,,,,,,2366.306899999967,2366.796141699888,,,,45.74404519982636,,,,,,,,,,,,None,None,,,,,,,,,,Socke,,,cuedRecallAdj,2,,,,,,,,,,,,,,,,,,,,,,,,0,,,,,,,,,,,,,,,,,,,,,,,,,,,,2320.5439736999106,2320.553772300016,2320.553772300016,2366.304562599864,,return,45.74404519982636,None,2366.3048318999354,2366.314085799968,2366.314085799968,2366.3067951998673,,None,,,,,2,2023-11-29_13h50.18.982,watkins1,2023.2.3,99.71740073116374,32,2023-11-29 13h50.26.887753 +0000,
,,,,,,,,,,,,,,,,,,,,,,,29,0,29,0,2366.806100799935,,,,,,,,,,,,2376.2697495999746,2376.7683172000106,,,,9.459853200009093,,,,,,,,,,,,None,None,,,,,,,,,,Vase,,,cuedRecallAdj,2,,,,,,,,,,,,,,,,,,,,,,,,0,,,,,,,,,,,,,,,,,,,,,,,,,,,,2366.796389899915,2366.806100799935,2366.806100799935,2376.2667006999254,strahlend,return,9.459853200009093,None,2376.2669849998783,2376.275877199834,2376.275877199834,2376.269648700021,,None,,,,,2,2023-11-29_13h50.18.982,watkins1,2023.2.3,99.71740073116374,32,2023-11-29 13h50.26.887753 +0000,
,,,,,,,,,,,,,,,,,,,,,,,,,,,,,,,,,,,,,,,,,,,,,,,,,,,,,,,,,,,,,,,,,,,,,,,2,,,,,,,,,,,,,,,,,,,,,,,,,,,,,,,,,,,,,,,,,,,,,,,,,,,,,,,,,,,,,,,,,,2376.7849421999417,q,1859.0229691998102,None,2,2023-11-29_13h50.18.982,watkins1,2023.2.3,99.71740073116374,32,2023-11-29 13h50.26.887753 +0000,
