Equation,CorrectResponse,Correctbutton,trials_7.thisRepN,trials_7.thisTrialN,trials_7.thisN,trials_7.thisIndex,trials.thisRepN,trials.thisTrialN,trials.thisN,trials.thisIndex,trials_3.thisRepN,trials_3.thisTrialN,trials_3.thisN,trials_3.thisIndex,trials_2.thisRepN,trials_2.thisTrialN,trials_2.thisN,trials_2.thisIndex,trials_4.thisRepN,trials_4.thisTrialN,trials_4.thisN,trials_4.thisIndex,trials_5.thisRepN,trials_5.thisTrialN,trials_5.thisN,trials_5.thisIndex,thisRow.t,notes,list_sub_restudy,list_sub_testsub,code_marius.started,code_marius.stopped,welcome.started,welcome.stopped,instruction_study.started,instruction_study.stopped,fixationcross.started,fixationcross.stopped,blanc.started,blanc.stopped,study_control_probe.started,study_control_probe.stopped,responseKey,responseTime,scale_answer_2.keys,study_control_probe_2.started,study_control_probe_2.stopped,scale_answer_3.keys,scale_answer_3.rt,scale_answer_3.duration,blanc_2.started,blanc_2.stopped,test_attr_probe.started,test_attr_probe.stopped,recalled_attr,firstKeyTime,secondWordTime,blanc_3.started,blanc_3.stopped,test_sub_probe.started,test_sub_probe.stopped,recalled_sub,instruction_probe_end.started,instruction_probe_end.stopped,study.started,study.stopped,substantive,adjective,wordpair,task,condition,liste_sub_phase1,liste_adj_phase1,scale_answer.keys,scale_answer.rt,scale_answer.duration,code_defineWordsInit.started,code_defineWordsInit.stopped,liste_sub_phase2,study_control.started,study_control.stopped,scale_answer_4.keys,restudy_same.started,restudy_same.stopped,scale_answer_5.keys,restudy_different.started,restudy_different.stopped,scale_answer_6.keys,test_attr.started,test_attr.stopped,test_sub.started,test_sub.stopped,scale_answer_5.rt,scale_answer_5.duration,correct,distractortask.started,equation_text.started,distractortask.stopped,mouse_answer.x,mouse_answer.y,mouse_answer.leftButton,mouse_answer.midButton,mouse_answer.rightButton,mouse_answer.time,mouse_answer.clicked_name,feedback_distractortask.started,feedback_distractortask.stopped,free_recall.started,text_enter.started,key_resp.started,free_recall.stopped,key_resp.keys,key_resp.rt,key_resp.duration,free_recalled_sub,mouse_continue.x,mouse_continue.y,mouse_continue.leftButton,mouse_continue.midButton,mouse_continue.rightButton,mouse_continue.time,mouse_continue.clicked_name,cued_recall.started,text_enter_2.started,key_continue.started,cued_recall.stopped,recalled_attr1,key_continue.keys,key_continue.rt,key_continue.duration,cued_recall_2.started,text_enter_3.started,key_continue_2.started,cued_recall_2.stopped,recalled_attr2,key_continue_2.keys,key_resp_8.started,key_resp_8.keys,key_resp_8.rt,key_resp_8.duration,condition,date,expName,psychopyVersion,frameRate,participant,expStart,
,,,,,,,,,,,,,,,,,,,,,,,,,,,,,"['Bürste', 'Stift', 'Eimer', 'Geige', 'Ring', 'Brille', 'Kerze', 'Kiste', 'Vase', 'Blume', 'Löffel', 'Tasse', 'Kamera', 'Telefon', 'Socke']","['Buch', 'Kette', 'Schlüssel', 'Hut', 'Fahrrad', 'Rucksack', 'Jacke', 'Uhr', 'Lampe', 'Trommel', 'Schere', 'Hammer', 'Flasche', 'Würfel', 'Tasche']",0.1124654000159353,0.11253860010765493,0.11254700017161667,4.268925399985164,,,,,,,,,,,,,,,,,,,,,,,,,,,,,,,,,,,,,2,,,,,,,,,,,,,,,,,,,,,,,,,,,,,,,,,,,,,,,,,,,,,,,,,,,,,,,,,,,,,,,,,,,,,,2,2024-01-10_13h40.40.104,watkins1,2023.2.3,99.73231864768132,83,2024-01-10 13h41.04.132301 +0000,
,,,,,,,,,,,,,,,,,,,,,,,,,,,,,,,,,,,4.2689737000036985,41.10899620014243,,,,,,,,,,,,,,,,,,,,,,,,,,,,,,,,,,,2,,,,,,,,,,,,,,,,,,,,,,,,,,,,,,,,,,,,,,,,,,,,,,,,,,,,,,,,,,,,,,,,,,,,,,2,2024-01-10_13h40.40.104,watkins1,2023.2.3,99.73231864768132,83,2024-01-10 13h41.04.132301 +0000,
,,,0,0,0,0,,,,,,,,,,,,,,,,,,,,,42.12263120012358,,,,,,,,,,41.109014000045136,42.11254610004835,48.611845300067216,49.103239600081,42.60451990016736,48.61166390008293,3,5.62139659980312,None,49.103249800158665,55.11065200017765,3,5.62139659980312,None,55.11097969999537,55.11100200004876,55.11100920010358,55.11108690011315,,3.5541306999512017,None,55.11124360002577,55.602191200014204,55.60220289998688,61.60658510006033,Hund,,,,,,,,,2,,,,,,,,,,,,,,,,,,,,,,,,,,,,,,,,,,,,,,,,,,,,,,,,,,,,,,,,,,,,,,,,,,,,,,2,2024-01-10_13h40.40.104,watkins1,2023.2.3,99.73231864768132,83,2024-01-10 13h41.04.132301 +0000,
,,,,,,,,,,,,,,,,,,,,,,,,,,,,,,,,,,,,,,,,,,,,,,,,,,,,,,,,,,,,,,,61.60674550011754,64.17701780004427,,,,,,,2,,,,,,,,,,,,,,,,,,,,,,,,,,,,,,,,,,,,,,,,,,,,,,,,,,,,,,,,,,,,,,,,,,,,,,2,2024-01-10_13h40.40.104,watkins1,2023.2.3,99.73231864768132,83,2024-01-10 13h41.04.132301 +0000,
,,,,,,,0,0,0,0,,,,,,,,,,,,,,,,,65.19079990009777,,,,,,,,,,64.17703460017219,65.18081849999726,65.1813012000639,65.6728848000057,,,3,3.775676100049168,,,,,,,,,,,,,,,,,,,,,65.67289560008794,71.67756750015542,Ring,glatt,"['Ring', 'glatt']",restudy,2,"['Ring', 'Tasse', 'Tasche', 'Würfel', 'Schlüssel', 'Hut', 'Trommel', 'Vase', 'Socke', 'Löffel', 'Bürste', 'Hammer', 'Telefon', 'Stift', 'Jacke', 'Uhr', 'Blume', 'Lampe', 'Flasche', 'Kerze', 'Buch', 'Kamera', 'Fahrrad', 'Kiste', 'Brille', 'Eimer', 'Rucksack', 'Geige', 'Kette', 'Schere']",['glatt'],3,3.775676100049168,None,,,,,,,,,,,,,,,,,,,,,,,,,,,,,,,,,,,,,,,,,,,,,,,,,,,,,,,,,,,,,,,,,2,2024-01-10_13h40.40.104,watkins1,2023.2.3,99.73231864768132,83,2024-01-10 13h41.04.132301 +0000,
,,,,,,,1,0,1,0,,,,,,,,,,,,,,,,,71.68708880012855,,,,,,,,,,,,71.67821680009365,72.16916040005162,,,2,2.640760499984026,,,,,,,,,,,,,,,,,,,,,72.16917140013538,78.17932830005884,Tasse,matt,"['Tasse', 'matt']",restudy,2,"['Ring', 'Tasse', 'Tasche', 'Würfel', 'Schlüssel', 'Hut', 'Trommel', 'Vase', 'Socke', 'Löffel', 'Bürste', 'Hammer', 'Telefon', 'Stift', 'Jacke', 'Uhr', 'Blume', 'Lampe', 'Flasche', 'Kerze', 'Buch', 'Kamera', 'Fahrrad', 'Kiste', 'Brille', 'Eimer', 'Rucksack', 'Geige', 'Kette', 'Schere']","['glatt', 'matt']",2,2.640760499984026,None,,,,,,,,,,,,,,,,,,,,,,,,,,,,,,,,,,,,,,,,,,,,,,,,,,,,,,,,,,,,,,,,,2,2024-01-10_13h40.40.104,watkins1,2023.2.3,99.73231864768132,83,2024-01-10 13h41.04.132301 +0000,
,,,,,,,2,0,2,0,,,,,,,,,,,,,,,,,78.1888022001367,,,,,,,,,,,,78.17985470010899,78.67079650005326,,,1,5.963406100170687,,,,,,,,,,,,,,,,,,,,,78.6708070000168,84.67351390002295,Tasche,zart,"['Tasche', 'zart']",test_sub,2,"['Ring', 'Tasse', 'Tasche', 'Würfel', 'Schlüssel', 'Hut', 'Trommel', 'Vase', 'Socke', 'Löffel', 'Bürste', 'Hammer', 'Telefon', 'Stift', 'Jacke', 'Uhr', 'Blume', 'Lampe', 'Flasche', 'Kerze', 'Buch', 'Kamera', 'Fahrrad', 'Kiste', 'Brille', 'Eimer', 'Rucksack', 'Geige', 'Kette', 'Schere']","['glatt', 'matt', 'zart']",1,5.963406100170687,None,,,,,,,,,,,,,,,,,,,,,,,,,,,,,,,,,,,,,,,,,,,,,,,,,,,,,,,,,,,,,,,,,2,2024-01-10_13h40.40.104,watkins1,2023.2.3,99.73231864768132,83,2024-01-10 13h41.04.132301 +0000,
,,,,,,,3,0,3,0,,,,,,,,,,,,,,,,,84.68298540008254,,,,,,,,,,,,84.67403560015373,85.16493159998208,,,3,2.4679767000488937,,,,,,,,,,,,,,,,,,,,,85.16494180005975,91.17533460003324,Würfel,verspielt,"['Würfel', 'verspielt']",test_sub,2,"['Ring', 'Tasse', 'Tasche', 'Würfel', 'Schlüssel', 'Hut', 'Trommel', 'Vase', 'Socke', 'Löffel', 'Bürste', 'Hammer', 'Telefon', 'Stift', 'Jacke', 'Uhr', 'Blume', 'Lampe', 'Flasche', 'Kerze', 'Buch', 'Kamera', 'Fahrrad', 'Kiste', 'Brille', 'Eimer', 'Rucksack', 'Geige', 'Kette', 'Schere']","['glatt', 'matt', 'zart', 'verspielt']",3,2.4679767000488937,None,,,,,,,,,,,,,,,,,,,,,,,,,,,,,,,,,,,,,,,,,,,,,,,,,,,,,,,,,,,,,,,,,2,2024-01-10_13h40.40.104,watkins1,2023.2.3,99.73231864768132,83,2024-01-10 13h41.04.132301 +0000,
,,,,,,,4,0,4,0,,,,,,,,,,,,,,,,,91.18505650013685,,,,,,,,,,,,91.17586289998144,91.667156400159,,,3,2.990951299900189,,,,,,,,,,,,,,,,,,,,,91.66716710012406,97.66802750015631,Schlüssel,teuer,"['Schlüssel', 'teuer']",test_sub,2,"['Ring', 'Tasse', 'Tasche', 'Würfel', 'Schlüssel', 'Hut', 'Trommel', 'Vase', 'Socke', 'Löffel', 'Bürste', 'Hammer', 'Telefon', 'Stift', 'Jacke', 'Uhr', 'Blume', 'Lampe', 'Flasche', 'Kerze', 'Buch', 'Kamera', 'Fahrrad', 'Kiste', 'Brille', 'Eimer', 'Rucksack', 'Geige', 'Kette', 'Schere']","['glatt', 'matt', 'zart', 'verspielt', 'teuer']",3,2.990951299900189,None,,,,,,,,,,,,,,,,,,,,,,,,,,,,,,,,,,,,,,,,,,,,,,,,,,,,,,,,,,,,,,,,,2,2024-01-10_13h40.40.104,watkins1,2023.2.3,99.73231864768132,83,2024-01-10 13h41.04.132301 +0000,
,,,,,,,5,0,5,0,,,,,,,,,,,,,,,,,97.6776207999792,,,,,,,,,,,,97.66855190019123,98.15971700008959,,,2,2.323100399924442,,,,,,,,,,,,,,,,,,,,,98.1597276001703,104.16850879997946,Hut,hübsch,"['Hut', 'hübsch']",test_sub,2,"['Ring', 'Tasse', 'Tasche', 'Würfel', 'Schlüssel', 'Hut', 'Trommel', 'Vase', 'Socke', 'Löffel', 'Bürste', 'Hammer', 'Telefon', 'Stift', 'Jacke', 'Uhr', 'Blume', 'Lampe', 'Flasche', 'Kerze', 'Buch', 'Kamera', 'Fahrrad', 'Kiste', 'Brille', 'Eimer', 'Rucksack', 'Geige', 'Kette', 'Schere']","['glatt', 'matt', 'zart', 'verspielt', 'teuer', 'hübsch']",2,2.323100399924442,None,,,,,,,,,,,,,,,,,,,,,,,,,,,,,,,,,,,,,,,,,,,,,,,,,,,,,,,,,,,,,,,,,2,2024-01-10_13h40.40.104,watkins1,2023.2.3,99.73231864768132,83,2024-01-10 13h41.04.132301 +0000,
,,,,,,,6,0,6,0,,,,,,,,,,,,,,,,,104.17796830018051,,,,,,,,,,,,104.16903150011785,104.65997790009715,,,1,2.1985625000670552,,,,,,,,,,,,,,,,,,,,,104.65998840006068,110.6677592000924,Trommel,schlicht,"['Trommel', 'schlicht']",test_sub,2,"['Ring', 'Tasse', 'Tasche', 'Würfel', 'Schlüssel', 'Hut', 'Trommel', 'Vase', 'Socke', 'Löffel', 'Bürste', 'Hammer', 'Telefon', 'Stift', 'Jacke', 'Uhr', 'Blume', 'Lampe', 'Flasche', 'Kerze', 'Buch', 'Kamera', 'Fahrrad', 'Kiste', 'Brille', 'Eimer', 'Rucksack', 'Geige', 'Kette', 'Schere']","['glatt', 'matt', 'zart', 'verspielt', 'teuer', 'hübsch', 'schlicht']",1,2.1985625000670552,None,,,,,,,,,,,,,,,,,,,,,,,,,,,,,,,,,,,,,,,,,,,,,,,,,,,,,,,,,,,,,,,,,2,2024-01-10_13h40.40.104,watkins1,2023.2.3,99.73231864768132,83,2024-01-10 13h41.04.132301 +0000,
,,,,,,,7,0,7,0,,,,,,,,,,,,,,,,,110.67722190008499,,,,,,,,,,,,110.66827909997664,111.1592616001144,,,1,2.162512300070375,,,,,,,,,,,,,,,,,,,,,111.15927190007642,117.1641210000962,Vase,kratzig,"['Vase', 'kratzig']",restudy,2,"['Ring', 'Tasse', 'Tasche', 'Würfel', 'Schlüssel', 'Hut', 'Trommel', 'Vase', 'Socke', 'Löffel', 'Bürste', 'Hammer', 'Telefon', 'Stift', 'Jacke', 'Uhr', 'Blume', 'Lampe', 'Flasche', 'Kerze', 'Buch', 'Kamera', 'Fahrrad', 'Kiste', 'Brille', 'Eimer', 'Rucksack', 'Geige', 'Kette', 'Schere']","['glatt', 'matt', 'zart', 'verspielt', 'teuer', 'hübsch', 'schlicht', 'kratzig']",1,2.162512300070375,None,,,,,,,,,,,,,,,,,,,,,,,,,,,,,,,,,,,,,,,,,,,,,,,,,,,,,,,,,,,,,,,,,2,2024-01-10_13h40.40.104,watkins1,2023.2.3,99.73231864768132,83,2024-01-10 13h41.04.132301 +0000,
,,,,,,,8,0,8,0,,,,,,,,,,,,,,,,,117.17358379997313,,,,,,,,,,,,117.16462390008382,117.65564260003157,,,2,3.138061899924651,,,,,,,,,,,,,,,,,,,,,117.65565300011076,123.66294539999217,Socke,winzig,"['Socke', 'winzig']",restudy,2,"['Ring', 'Tasse', 'Tasche', 'Würfel', 'Schlüssel', 'Hut', 'Trommel', 'Vase', 'Socke', 'Löffel', 'Bürste', 'Hammer', 'Telefon', 'Stift', 'Jacke', 'Uhr', 'Blume', 'Lampe', 'Flasche', 'Kerze', 'Buch', 'Kamera', 'Fahrrad', 'Kiste', 'Brille', 'Eimer', 'Rucksack', 'Geige', 'Kette', 'Schere']","['glatt', 'matt', 'zart', 'verspielt', 'teuer', 'hübsch', 'schlicht', 'kratzig', 'winzig']",2,3.138061899924651,None,,,,,,,,,,,,,,,,,,,,,,,,,,,,,,,,,,,,,,,,,,,,,,,,,,,,,,,,,,,,,,,,,2,2024-01-10_13h40.40.104,watkins1,2023.2.3,99.73231864768132,83,2024-01-10 13h41.04.132301 +0000,
,,,,,,,9,0,9,0,,,,,,,,,,,,,,,,,123.67238180013373,,,,,,,,,,,,123.66345530003309,124.15445120004006,,,2,5.927693800069392,,,,,,,,,,,,,,,,,,,,,124.15446140011773,130.15580649999902,Löffel,hohl,"['Löffel', 'hohl']",restudy,2,"['Ring', 'Tasse', 'Tasche', 'Würfel', 'Schlüssel', 'Hut', 'Trommel', 'Vase', 'Socke', 'Löffel', 'Bürste', 'Hammer', 'Telefon', 'Stift', 'Jacke', 'Uhr', 'Blume', 'Lampe', 'Flasche', 'Kerze', 'Buch', 'Kamera', 'Fahrrad', 'Kiste', 'Brille', 'Eimer', 'Rucksack', 'Geige', 'Kette', 'Schere']","['glatt', 'matt', 'zart', 'verspielt', 'teuer', 'hübsch', 'schlicht', 'kratzig', 'winzig', 'hohl']",2,5.927693800069392,None,,,,,,,,,,,,,,,,,,,,,,,,,,,,,,,,,,,,,,,,,,,,,,,,,,,,,,,,,,,,,,,,,2,2024-01-10_13h40.40.104,watkins1,2023.2.3,99.73231864768132,83,2024-01-10 13h41.04.132301 +0000,
,,,,,,,10,0,10,0,,,,,,,,,,,,,,,,,130.1653176001273,,,,,,,,,,,,130.1563163001556,130.64734220015816,,,1,2.594778300030157,,,,,,,,,,,,,,,,,,,,,130.64735230011865,136.65093910018913,Bürste,nachhaltig,"['Bürste', 'nachhaltig']",restudy,2,"['Ring', 'Tasse', 'Tasche', 'Würfel', 'Schlüssel', 'Hut', 'Trommel', 'Vase', 'Socke', 'Löffel', 'Bürste', 'Hammer', 'Telefon', 'Stift', 'Jacke', 'Uhr', 'Blume', 'Lampe', 'Flasche', 'Kerze', 'Buch', 'Kamera', 'Fahrrad', 'Kiste', 'Brille', 'Eimer', 'Rucksack', 'Geige', 'Kette', 'Schere']","['glatt', 'matt', 'zart', 'verspielt', 'teuer', 'hübsch', 'schlicht', 'kratzig', 'winzig', 'hohl', 'nachhaltig']",1,2.594778300030157,None,,,,,,,,,,,,,,,,,,,,,,,,,,,,,,,,,,,,,,,,,,,,,,,,,,,,,,,,,,,,,,,,,2,2024-01-10_13h40.40.104,watkins1,2023.2.3,99.73231864768132,83,2024-01-10 13h41.04.132301 +0000,
,,,,,,,11,0,11,0,,,,,,,,,,,,,,,,,136.66045740013942,,,,,,,,,,,,136.65146480011754,137.14247910003178,,,1,1.7325400998815894,,,,,,,,,,,,,,,,,,,,,137.1424889001064,143.14646390010603,Hammer,biegsam,"['Hammer', 'biegsam']",test_sub,2,"['Ring', 'Tasse', 'Tasche', 'Würfel', 'Schlüssel', 'Hut', 'Trommel', 'Vase', 'Socke', 'Löffel', 'Bürste', 'Hammer', 'Telefon', 'Stift', 'Jacke', 'Uhr', 'Blume', 'Lampe', 'Flasche', 'Kerze', 'Buch', 'Kamera', 'Fahrrad', 'Kiste', 'Brille', 'Eimer', 'Rucksack', 'Geige', 'Kette', 'Schere']","['glatt', 'matt', 'zart', 'verspielt', 'teuer', 'hübsch', 'schlicht', 'kratzig', 'winzig', 'hohl', 'nachhaltig', 'biegsam']",1,1.7325400998815894,None,,,,,,,,,,,,,,,,,,,,,,,,,,,,,,,,,,,,,,,,,,,,,,,,,,,,,,,,,,,,,,,,,2,2024-01-10_13h40.40.104,watkins1,2023.2.3,99.73231864768132,83,2024-01-10 13h41.04.132301 +0000,
,,,,,,,12,0,12,0,,,,,,,,,,,,,,,,,143.15592860011384,,,,,,,,,,,,143.14697020011954,143.63796410011128,,,3,2.2209588000550866,,,,,,,,,,,,,,,,,,,,,143.637974700192,149.6474911000114,Telefon,flach,"['Telefon', 'flach']",restudy,2,"['Ring', 'Tasse', 'Tasche', 'Würfel', 'Schlüssel', 'Hut', 'Trommel', 'Vase', 'Socke', 'Löffel', 'Bürste', 'Hammer', 'Telefon', 'Stift', 'Jacke', 'Uhr', 'Blume', 'Lampe', 'Flasche', 'Kerze', 'Buch', 'Kamera', 'Fahrrad', 'Kiste', 'Brille', 'Eimer', 'Rucksack', 'Geige', 'Kette', 'Schere']","['glatt', 'matt', 'zart', 'verspielt', 'teuer', 'hübsch', 'schlicht', 'kratzig', 'winzig', 'hohl', 'nachhaltig', 'biegsam', 'flach']",3,2.2209588000550866,None,,,,,,,,,,,,,,,,,,,,,,,,,,,,,,,,,,,,,,,,,,,,,,,,,,,,,,,,,,,,,,,,,2,2024-01-10_13h40.40.104,watkins1,2023.2.3,99.73231864768132,83,2024-01-10 13h41.04.132301 +0000,
,,,,,,,13,0,13,0,,,,,,,,,,,,,,,,,149.65694979997352,,,,,,,,,,,,149.64800090016797,150.13900020020083,,,1,1.7119618998840451,,,,,,,,,,,,,,,,,,,,,150.13900970015675,156.14740710007027,Stift,flauschig,"['Stift', 'flauschig']",restudy,2,"['Ring', 'Tasse', 'Tasche', 'Würfel', 'Schlüssel', 'Hut', 'Trommel', 'Vase', 'Socke', 'Löffel', 'Bürste', 'Hammer', 'Telefon', 'Stift', 'Jacke', 'Uhr', 'Blume', 'Lampe', 'Flasche', 'Kerze', 'Buch', 'Kamera', 'Fahrrad', 'Kiste', 'Brille', 'Eimer', 'Rucksack', 'Geige', 'Kette', 'Schere']","['glatt', 'matt', 'zart', 'verspielt', 'teuer', 'hübsch', 'schlicht', 'kratzig', 'winzig', 'hohl', 'nachhaltig', 'biegsam', 'flach', 'flauschig']",1,1.7119618998840451,None,,,,,,,,,,,,,,,,,,,,,,,,,,,,,,,,,,,,,,,,,,,,,,,,,,,,,,,,,,,,,,,,,2,2024-01-10_13h40.40.104,watkins1,2023.2.3,99.73231864768132,83,2024-01-10 13h41.04.132301 +0000,
,,,,,,,14,0,14,0,,,,,,,,,,,,,,,,,156.15690180007368,,,,,,,,,,,,156.14793880004436,156.63893570005894,,,2,1.778973599895835,,,,,,,,,,,,,,,,,,,,,156.6389459001366,162.64236710011028,Jacke,sauber,"['Jacke', 'sauber']",test_sub,2,"['Ring', 'Tasse', 'Tasche', 'Würfel', 'Schlüssel', 'Hut', 'Trommel', 'Vase', 'Socke', 'Löffel', 'Bürste', 'Hammer', 'Telefon', 'Stift', 'Jacke', 'Uhr', 'Blume', 'Lampe', 'Flasche', 'Kerze', 'Buch', 'Kamera', 'Fahrrad', 'Kiste', 'Brille', 'Eimer', 'Rucksack', 'Geige', 'Kette', 'Schere']","['glatt', 'matt', 'zart', 'verspielt', 'teuer', 'hübsch', 'schlicht', 'kratzig', 'winzig', 'hohl', 'nachhaltig', 'biegsam', 'flach', 'flauschig', 'sauber']",2,1.778973599895835,None,,,,,,,,,,,,,,,,,,,,,,,,,,,,,,,,,,,,,,,,,,,,,,,,,,,,,,,,,,,,,,,,,2,2024-01-10_13h40.40.104,watkins1,2023.2.3,99.73231864768132,83,2024-01-10 13h41.04.132301 +0000,
,,,,,,,15,0,15,0,,,,,,,,,,,,,,,,,162.65181640000083,,,,,,,,,,,,162.64288120018318,163.13386719999835,,,1,2.3958225999958813,,,,,,,,,,,,,,,,,,,,,163.1338775001932,169.1406566000078,Uhr,hässlich,"['Uhr', 'hässlich']",test_sub,2,"['Ring', 'Tasse', 'Tasche', 'Würfel', 'Schlüssel', 'Hut', 'Trommel', 'Vase', 'Socke', 'Löffel', 'Bürste', 'Hammer', 'Telefon', 'Stift', 'Jacke', 'Uhr', 'Blume', 'Lampe', 'Flasche', 'Kerze', 'Buch', 'Kamera', 'Fahrrad', 'Kiste', 'Brille', 'Eimer', 'Rucksack', 'Geige', 'Kette', 'Schere']","['glatt', 'matt', 'zart', 'verspielt', 'teuer', 'hübsch', 'schlicht', 'kratzig', 'winzig', 'hohl', 'nachhaltig', 'biegsam', 'flach', 'flauschig', 'sauber', 'hässlich']",1,2.3958225999958813,None,,,,,,,,,,,,,,,,,,,,,,,,,,,,,,,,,,,,,,,,,,,,,,,,,,,,,,,,,,,,,,,,,2,2024-01-10_13h40.40.104,watkins1,2023.2.3,99.73231864768132,83,2024-01-10 13h41.04.132301 +0000,
,,,,,,,16,0,16,0,,,,,,,,,,,,,,,,,169.15015400014818,,,,,,,,,,,,169.1412077001296,169.6321974999737,,,1,1.666693100007251,,,,,,,,,,,,,,,,,,,,,169.63220780016854,175.63422810006887,Blume,sportlich,"['Blume', 'sportlich']",restudy,2,"['Ring', 'Tasse', 'Tasche', 'Würfel', 'Schlüssel', 'Hut', 'Trommel', 'Vase', 'Socke', 'Löffel', 'Bürste', 'Hammer', 'Telefon', 'Stift', 'Jacke', 'Uhr', 'Blume', 'Lampe', 'Flasche', 'Kerze', 'Buch', 'Kamera', 'Fahrrad', 'Kiste', 'Brille', 'Eimer', 'Rucksack', 'Geige', 'Kette', 'Schere']","['glatt', 'matt', 'zart', 'verspielt', 'teuer', 'hübsch', 'schlicht', 'kratzig', 'winzig', 'hohl', 'nachhaltig', 'biegsam', 'flach', 'flauschig', 'sauber', 'hässlich', 'sportlich']",1,1.666693100007251,None,,,,,,,,,,,,,,,,,,,,,,,,,,,,,,,,,,,,,,,,,,,,,,,,,,,,,,,,,,,,,,,,,2,2024-01-10_13h40.40.104,watkins1,2023.2.3,99.73231864768132,83,2024-01-10 13h41.04.132301 +0000,
,,,,,,,17,0,17,0,,,,,,,,,,,,,,,,,175.6437427001074,,,,,,,,,,,,175.63474590005353,176.12586040003225,,,3,2.6449109001550823,,,,,,,,,,,,,,,,,,,,,176.1258710999973,182.12763600004837,Lampe,durchsichtig,"['Lampe', 'durchsichtig']",test_sub,2,"['Ring', 'Tasse', 'Tasche', 'Würfel', 'Schlüssel', 'Hut', 'Trommel', 'Vase', 'Socke', 'Löffel', 'Bürste', 'Hammer', 'Telefon', 'Stift', 'Jacke', 'Uhr', 'Blume', 'Lampe', 'Flasche', 'Kerze', 'Buch', 'Kamera', 'Fahrrad', 'Kiste', 'Brille', 'Eimer', 'Rucksack', 'Geige', 'Kette', 'Schere']","['glatt', 'matt', 'zart', 'verspielt', 'teuer', 'hübsch', 'schlicht', 'kratzig', 'winzig', 'hohl', 'nachhaltig', 'biegsam', 'flach', 'flauschig', 'sauber', 'hässlich', 'sportlich', 'durchsichtig']",3,2.6449109001550823,None,,,,,,,,,,,,,,,,,,,,,,,,,,,,,,,,,,,,,,,,,,,,,,,,,,,,,,,,,,,,,,,,,2,2024-01-10_13h40.40.104,watkins1,2023.2.3,99.73231864768132,83,2024-01-10 13h41.04.132301 +0000,
,,,,,,,18,0,18,0,,,,,,,,,,,,,,,,,182.13713679998182,,,,,,,,,,,,182.12815820006654,182.61910690017976,,,3,2.0071628000587225,,,,,,,,,,,,,,,,,,,,,182.61911760014482,188.62950460007414,Flasche,dunkel,"['Flasche', 'dunkel']",test_sub,2,"['Ring', 'Tasse', 'Tasche', 'Würfel', 'Schlüssel', 'Hut', 'Trommel', 'Vase', 'Socke', 'Löffel', 'Bürste', 'Hammer', 'Telefon', 'Stift', 'Jacke', 'Uhr', 'Blume', 'Lampe', 'Flasche', 'Kerze', 'Buch', 'Kamera', 'Fahrrad', 'Kiste', 'Brille', 'Eimer', 'Rucksack', 'Geige', 'Kette', 'Schere']","['glatt', 'matt', 'zart', 'verspielt', 'teuer', 'hübsch', 'schlicht', 'kratzig', 'winzig', 'hohl', 'nachhaltig', 'biegsam', 'flach', 'flauschig', 'sauber', 'hässlich', 'sportlich', 'durchsichtig', 'dunkel']",3,2.0071628000587225,None,,,,,,,,,,,,,,,,,,,,,,,,,,,,,,,,,,,,,,,,,,,,,,,,,,,,,,,,,,,,,,,,,2,2024-01-10_13h40.40.104,watkins1,2023.2.3,99.73231864768132,83,2024-01-10 13h41.04.132301 +0000,
,,,,,,,19,0,19,0,,,,,,,,,,,,,,,,,188.6390657001175,,,,,,,,,,,,188.63002949999645,189.12103240005672,,,3,2.5614660000428557,,,,,,,,,,,,,,,,,,,,,189.12104210001417,195.1312373999972,Kerze,neu,"['Kerze', 'neu']",restudy,2,"['Ring', 'Tasse', 'Tasche', 'Würfel', 'Schlüssel', 'Hut', 'Trommel', 'Vase', 'Socke', 'Löffel', 'Bürste', 'Hammer', 'Telefon', 'Stift', 'Jacke', 'Uhr', 'Blume', 'Lampe', 'Flasche', 'Kerze', 'Buch', 'Kamera', 'Fahrrad', 'Kiste', 'Brille', 'Eimer', 'Rucksack', 'Geige', 'Kette', 'Schere']","['glatt', 'matt', 'zart', 'verspielt', 'teuer', 'hübsch', 'schlicht', 'kratzig', 'winzig', 'hohl', 'nachhaltig', 'biegsam', 'flach', 'flauschig', 'sauber', 'hässlich', 'sportlich', 'durchsichtig', 'dunkel', 'neu']",3,2.5614660000428557,None,,,,,,,,,,,,,,,,,,,,,,,,,,,,,,,,,,,,,,,,,,,,,,,,,,,,,,,,,,,,,,,,,2,2024-01-10_13h40.40.104,watkins1,2023.2.3,99.73231864768132,83,2024-01-10 13h41.04.132301 +0000,
,,,,,,,20,0,20,0,,,,,,,,,,,,,,,,,195.14078040001914,,,,,,,,,,,,195.13176770019345,195.62296860013157,,,3,4.996288600144908,,,,,,,,,,,,,,,,,,,,,195.62297939998098,201.63291830010712,Buch,kurz,"['Buch', 'kurz']",test_sub,2,"['Ring', 'Tasse', 'Tasche', 'Würfel', 'Schlüssel', 'Hut', 'Trommel', 'Vase', 'Socke', 'Löffel', 'Bürste', 'Hammer', 'Telefon', 'Stift', 'Jacke', 'Uhr', 'Blume', 'Lampe', 'Flasche', 'Kerze', 'Buch', 'Kamera', 'Fahrrad', 'Kiste', 'Brille', 'Eimer', 'Rucksack', 'Geige', 'Kette', 'Schere']","['glatt', 'matt', 'zart', 'verspielt', 'teuer', 'hübsch', 'schlicht', 'kratzig', 'winzig', 'hohl', 'nachhaltig', 'biegsam', 'flach', 'flauschig', 'sauber', 'hässlich', 'sportlich', 'durchsichtig', 'dunkel', 'neu', 'kurz']",3,4.996288600144908,None,,,,,,,,,,,,,,,,,,,,,,,,,,,,,,,,,,,,,,,,,,,,,,,,,,,,,,,,,,,,,,,,,2,2024-01-10_13h40.40.104,watkins1,2023.2.3,99.73231864768132,83,2024-01-10 13h41.04.132301 +0000,
,,,,,,,21,0,21,0,,,,,,,,,,,,,,,,,201.6423796999734,,,,,,,,,,,,201.63345440011472,202.12437020009384,,,2,2.493725199950859,,,,,,,,,,,,,,,,,,,,,202.12438020016998,208.13027209998108,Kamera,groß,"['Kamera', 'groß']",restudy,2,"['Ring', 'Tasse', 'Tasche', 'Würfel', 'Schlüssel', 'Hut', 'Trommel', 'Vase', 'Socke', 'Löffel', 'Bürste', 'Hammer', 'Telefon', 'Stift', 'Jacke', 'Uhr', 'Blume', 'Lampe', 'Flasche', 'Kerze', 'Buch', 'Kamera', 'Fahrrad', 'Kiste', 'Brille', 'Eimer', 'Rucksack', 'Geige', 'Kette', 'Schere']","['glatt', 'matt', 'zart', 'verspielt', 'teuer', 'hübsch', 'schlicht', 'kratzig', 'winzig', 'hohl', 'nachhaltig', 'biegsam', 'flach', 'flauschig', 'sauber', 'hässlich', 'sportlich', 'durchsichtig', 'dunkel', 'neu', 'kurz', 'groß']",2,2.493725199950859,None,,,,,,,,,,,,,,,,,,,,,,,,,,,,,,,,,,,,,,,,,,,,,,,,,,,,,,,,,,,,,,,,,2,2024-01-10_13h40.40.104,watkins1,2023.2.3,99.73231864768132,83,2024-01-10 13h41.04.132301 +0000,
,,,,,,,22,0,22,0,,,,,,,,,,,,,,,,,208.1397394000087,,,,,,,,,,,,208.1308073999826,208.62163230008446,,,2,3.613021200057119,,,,,,,,,,,,,,,,,,,,,208.62164260004647,214.63179790019058,Fahrrad,glänzend,"['Fahrrad', 'glänzend']",test_sub,2,"['Ring', 'Tasse', 'Tasche', 'Würfel', 'Schlüssel', 'Hut', 'Trommel', 'Vase', 'Socke', 'Löffel', 'Bürste', 'Hammer', 'Telefon', 'Stift', 'Jacke', 'Uhr', 'Blume', 'Lampe', 'Flasche', 'Kerze', 'Buch', 'Kamera', 'Fahrrad', 'Kiste', 'Brille', 'Eimer', 'Rucksack', 'Geige', 'Kette', 'Schere']","['glatt', 'matt', 'zart', 'verspielt', 'teuer', 'hübsch', 'schlicht', 'kratzig', 'winzig', 'hohl', 'nachhaltig', 'biegsam', 'flach', 'flauschig', 'sauber', 'hässlich', 'sportlich', 'durchsichtig', 'dunkel', 'neu', 'kurz', 'groß', 'glänzend']",2,3.613021200057119,None,,,,,,,,,,,,,,,,,,,,,,,,,,,,,,,,,,,,,,,,,,,,,,,,,,,,,,,,,,,,,,,,,2,2024-01-10_13h40.40.104,watkins1,2023.2.3,99.73231864768132,83,2024-01-10 13h41.04.132301 +0000,
,,,,,,,23,0,23,0,,,,,,,,,,,,,,,,,214.64127650018781,,,,,,,,,,,,214.63233639998361,215.12333040009253,,,3,2.9598958999849856,,,,,,,,,,,,,,,,,,,,,215.12334050005302,221.12926060007885,Kiste,rustikal,"['Kiste', 'rustikal']",restudy,2,"['Ring', 'Tasse', 'Tasche', 'Würfel', 'Schlüssel', 'Hut', 'Trommel', 'Vase', 'Socke', 'Löffel', 'Bürste', 'Hammer', 'Telefon', 'Stift', 'Jacke', 'Uhr', 'Blume', 'Lampe', 'Flasche', 'Kerze', 'Buch', 'Kamera', 'Fahrrad', 'Kiste', 'Brille', 'Eimer', 'Rucksack', 'Geige', 'Kette', 'Schere']","['glatt', 'matt', 'zart', 'verspielt', 'teuer', 'hübsch', 'schlicht', 'kratzig', 'winzig', 'hohl', 'nachhaltig', 'biegsam', 'flach', 'flauschig', 'sauber', 'hässlich', 'sportlich', 'durchsichtig', 'dunkel', 'neu', 'kurz', 'groß', 'glänzend', 'rustikal']",3,2.9598958999849856,None,,,,,,,,,,,,,,,,,,,,,,,,,,,,,,,,,,,,,,,,,,,,,,,,,,,,,,,,,,,,,,,,,2,2024-01-10_13h40.40.104,watkins1,2023.2.3,99.73231864768132,83,2024-01-10 13h41.04.132301 +0000,
,,,,,,,24,0,24,0,,,,,,,,,,,,,,,,,221.13870110013522,,,,,,,,,,,,221.129772500135,221.62082800013013,,,1,3.142046900000423,,,,,,,,,,,,,,,,,,,,,221.62083879997954,227.62137720012106,Brille,robust,"['Brille', 'robust']",restudy,2,"['Ring', 'Tasse', 'Tasche', 'Würfel', 'Schlüssel', 'Hut', 'Trommel', 'Vase', 'Socke', 'Löffel', 'Bürste', 'Hammer', 'Telefon', 'Stift', 'Jacke', 'Uhr', 'Blume', 'Lampe', 'Flasche', 'Kerze', 'Buch', 'Kamera', 'Fahrrad', 'Kiste', 'Brille', 'Eimer', 'Rucksack', 'Geige', 'Kette', 'Schere']","['glatt', 'matt', 'zart', 'verspielt', 'teuer', 'hübsch', 'schlicht', 'kratzig', 'winzig', 'hohl', 'nachhaltig', 'biegsam', 'flach', 'flauschig', 'sauber', 'hässlich', 'sportlich', 'durchsichtig', 'dunkel', 'neu', 'kurz', 'groß', 'glänzend', 'rustikal', 'robust']",1,3.142046900000423,None,,,,,,,,,,,,,,,,,,,,,,,,,,,,,,,,,,,,,,,,,,,,,,,,,,,,,,,,,,,,,,,,,2,2024-01-10_13h40.40.104,watkins1,2023.2.3,99.73231864768132,83,2024-01-10 13h41.04.132301 +0000,
,,,,,,,25,0,25,0,,,,,,,,,,,,,,,,,227.63078080001287,,,,,,,,,,,,227.62190380017273,228.1129972001072,,,3,3.441275699995458,,,,,,,,,,,,,,,,,,,,,228.11300700018182,234.1162021001801,Eimer,nass,"['Eimer', 'nass']",restudy,2,"['Ring', 'Tasse', 'Tasche', 'Würfel', 'Schlüssel', 'Hut', 'Trommel', 'Vase', 'Socke', 'Löffel', 'Bürste', 'Hammer', 'Telefon', 'Stift', 'Jacke', 'Uhr', 'Blume', 'Lampe', 'Flasche', 'Kerze', 'Buch', 'Kamera', 'Fahrrad', 'Kiste', 'Brille', 'Eimer', 'Rucksack', 'Geige', 'Kette', 'Schere']","['glatt', 'matt', 'zart', 'verspielt', 'teuer', 'hübsch', 'schlicht', 'kratzig', 'winzig', 'hohl', 'nachhaltig', 'biegsam', 'flach', 'flauschig', 'sauber', 'hässlich', 'sportlich', 'durchsichtig', 'dunkel', 'neu', 'kurz', 'groß', 'glänzend', 'rustikal', 'robust', 'nass']",3,3.441275699995458,None,,,,,,,,,,,,,,,,,,,,,,,,,,,,,,,,,,,,,,,,,,,,,,,,,,,,,,,,,,,,,,,,,2,2024-01-10_13h40.40.104,watkins1,2023.2.3,99.73231864768132,83,2024-01-10 13h41.04.132301 +0000,
,,,,,,,26,0,26,0,,,,,,,,,,,,,,,,,234.12567590014078,,,,,,,,,,,,234.1167296001222,234.6077831001021,,,3,1.8671946001704782,,,,,,,,,,,,,,,,,,,,,234.60779400006868,240.61728580016643,Rucksack,elegant,"['Rucksack', 'elegant']",test_sub,2,"['Ring', 'Tasse', 'Tasche', 'Würfel', 'Schlüssel', 'Hut', 'Trommel', 'Vase', 'Socke', 'Löffel', 'Bürste', 'Hammer', 'Telefon', 'Stift', 'Jacke', 'Uhr', 'Blume', 'Lampe', 'Flasche', 'Kerze', 'Buch', 'Kamera', 'Fahrrad', 'Kiste', 'Brille', 'Eimer', 'Rucksack', 'Geige', 'Kette', 'Schere']","['glatt', 'matt', 'zart', 'verspielt', 'teuer', 'hübsch', 'schlicht', 'kratzig', 'winzig', 'hohl', 'nachhaltig', 'biegsam', 'flach', 'flauschig', 'sauber', 'hässlich', 'sportlich', 'durchsichtig', 'dunkel', 'neu', 'kurz', 'groß', 'glänzend', 'rustikal', 'robust', 'nass', 'elegant']",3,1.8671946001704782,None,,,,,,,,,,,,,,,,,,,,,,,,,,,,,,,,,,,,,,,,,,,,,,,,,,,,,,,,,,,,,,,,,2,2024-01-10_13h40.40.104,watkins1,2023.2.3,99.73231864768132,83,2024-01-10 13h41.04.132301 +0000,
,,,,,,,27,0,27,0,,,,,,,,,,,,,,,,,240.62680700002238,,,,,,,,,,,,240.6178206000477,241.10872350004502,,,2,2.149387199897319,,,,,,,,,,,,,,,,,,,,,241.10873410012573,247.1123677000869,Geige,kaputt,"['Geige', 'kaputt']",restudy,2,"['Ring', 'Tasse', 'Tasche', 'Würfel', 'Schlüssel', 'Hut', 'Trommel', 'Vase', 'Socke', 'Löffel', 'Bürste', 'Hammer', 'Telefon', 'Stift', 'Jacke', 'Uhr', 'Blume', 'Lampe', 'Flasche', 'Kerze', 'Buch', 'Kamera', 'Fahrrad', 'Kiste', 'Brille', 'Eimer', 'Rucksack', 'Geige', 'Kette', 'Schere']","['glatt', 'matt', 'zart', 'verspielt', 'teuer', 'hübsch', 'schlicht', 'kratzig', 'winzig', 'hohl', 'nachhaltig', 'biegsam', 'flach', 'flauschig', 'sauber', 'hässlich', 'sportlich', 'durchsichtig', 'dunkel', 'neu', 'kurz', 'groß', 'glänzend', 'rustikal', 'robust', 'nass', 'elegant', 'kaputt']",2,2.149387199897319,None,,,,,,,,,,,,,,,,,,,,,,,,,,,,,,,,,,,,,,,,,,,,,,,,,,,,,,,,,,,,,,,,,2,2024-01-10_13h40.40.104,watkins1,2023.2.3,99.73231864768132,83,2024-01-10 13h41.04.132301 +0000,
,,,,,,,28,0,28,0,,,,,,,,,,,,,,,,,247.12179890018888,,,,,,,,,,,,247.1128841000609,247.60384360002354,,,3,2.423097599996254,,,,,,,,,,,,,,,,,,,,,247.60385420010425,253.61069590016268,Kette,praktisch,"['Kette', 'praktisch']",test_sub,2,"['Ring', 'Tasse', 'Tasche', 'Würfel', 'Schlüssel', 'Hut', 'Trommel', 'Vase', 'Socke', 'Löffel', 'Bürste', 'Hammer', 'Telefon', 'Stift', 'Jacke', 'Uhr', 'Blume', 'Lampe', 'Flasche', 'Kerze', 'Buch', 'Kamera', 'Fahrrad', 'Kiste', 'Brille', 'Eimer', 'Rucksack', 'Geige', 'Kette', 'Schere']","['glatt', 'matt', 'zart', 'verspielt', 'teuer', 'hübsch', 'schlicht', 'kratzig', 'winzig', 'hohl', 'nachhaltig', 'biegsam', 'flach', 'flauschig', 'sauber', 'hässlich', 'sportlich', 'durchsichtig', 'dunkel', 'neu', 'kurz', 'groß', 'glänzend', 'rustikal', 'robust', 'nass', 'elegant', 'kaputt', 'praktisch']",3,2.423097599996254,None,,,,,,,,,,,,,,,,,,,,,,,,,,,,,,,,,,,,,,,,,,,,,,,,,,,,,,,,,,,,,,,,,2,2024-01-10_13h40.40.104,watkins1,2023.2.3,99.73231864768132,83,2024-01-10 13h41.04.132301 +0000,
,,,,,,,29,0,29,0,,,,,,,,,,,,,,,,,253.6201613000594,,,,,,,,,,,,253.61126610008068,254.10223400010727,,,1,2.100735899992287,,,,,,,,,,,,,,,,,,,,,254.10224390006624,260.10521870013326,Schere,blass,"['Schere', 'blass']",test_sub,2,"['Ring', 'Tasse', 'Tasche', 'Würfel', 'Schlüssel', 'Hut', 'Trommel', 'Vase', 'Socke', 'Löffel', 'Bürste', 'Hammer', 'Telefon', 'Stift', 'Jacke', 'Uhr', 'Blume', 'Lampe', 'Flasche', 'Kerze', 'Buch', 'Kamera', 'Fahrrad', 'Kiste', 'Brille', 'Eimer', 'Rucksack', 'Geige', 'Kette', 'Schere']","['glatt', 'matt', 'zart', 'verspielt', 'teuer', 'hübsch', 'schlicht', 'kratzig', 'winzig', 'hohl', 'nachhaltig', 'biegsam', 'flach', 'flauschig', 'sauber', 'hässlich', 'sportlich', 'durchsichtig', 'dunkel', 'neu', 'kurz', 'groß', 'glänzend', 'rustikal', 'robust', 'nass', 'elegant', 'kaputt', 'praktisch', 'blass']",1,2.100735899992287,None,,,,,,,,,,,,,,,,,,,,,,,,,,,,,,,,,,,,,,,,,,,,,,,,,,,,,,,,,,,,,,,,,2,2024-01-10_13h40.40.104,watkins1,2023.2.3,99.73231864768132,83,2024-01-10 13h41.04.132301 +0000,
,,,,,,,,,,,0,0,0,0,,,,,,,,,,,,,260.11470780009404,,,,,,,,,,,,260.1060830000788,260.5970468001906,,,[],[],,,,,,,,,,,,None,None,,,,,,,,,,Telefon,flach,"['Telefon', 'flach']",restudy,2,,,,,,260.1060062001925,260.10605489998125,"['Telefon', 'Kiste', 'Ring', 'Flasche', 'Blume', 'Trommel', 'Eimer', 'Fahrrad', 'Buch', 'Tasche', 'Socke', 'Kerze', 'Rucksack', 'Tasse', 'Schlüssel', 'Lampe', 'Vase', 'Brille', 'Hut', 'Hammer', 'Stift', 'Kamera', 'Kette', 'Schere', 'Würfel', 'Bürste', 'Geige', 'Jacke', 'Uhr', 'Löffel']",260.5970581001602,260.5998788001016,None,260.6000634999946,266.6080969001632,None,266.6083093001507,266.61105659999885,None,266.61122269998305,266.6124099001754,266.6124224001542,266.6135674000252,,,,,,,,,,,,,,,,,,,,,,,,,,,,,,,,,,,,,,,,,,,,,,,,,2,2024-01-10_13h40.40.104,watkins1,2023.2.3,99.73231864768132,83,2024-01-10 13h41.04.132301 +0000,
,,,,,,,,,,,1,0,1,0,,,,,,,,,,,,,266.6176033001393,,,,,,,,,,,,266.6138596001547,267.1097002001479,,,[],[],,,,,,,,,,,,None,None,,,,,,,,,,Kiste,rustikal,"['Kiste', 'rustikal']",restudy,2,,,,,,266.6137944001239,266.61383280018345,"['Telefon', 'Kiste', 'Ring', 'Flasche', 'Blume', 'Trommel', 'Eimer', 'Fahrrad', 'Buch', 'Tasche', 'Socke', 'Kerze', 'Rucksack', 'Tasse', 'Schlüssel', 'Lampe', 'Vase', 'Brille', 'Hut', 'Hammer', 'Stift', 'Kamera', 'Kette', 'Schere', 'Würfel', 'Bürste', 'Geige', 'Jacke', 'Uhr', 'Löffel']",267.1097105999943,267.1124239000492,None,267.11254660016857,273.12059250008315,3,273.12150970008224,273.1241636001505,None,273.124274100177,273.1254018000327,273.1254135000054,273.1266024999786,2.2748604000080377,None,,,,,,,,,,,,,,,,,,,,,,,,,,,,,,,,,,,,,,,,,,,,,,,2,2024-01-10_13h40.40.104,watkins1,2023.2.3,99.73231864768132,83,2024-01-10 13h41.04.132301 +0000,
,,,,,,,,,,,2,0,2,0,,,,,,,,,,,,,273.130106800003,,,,,,,,,,,,273.126879400108,273.62203670013696,,,[],[],,,,,,,,,,,,None,None,,,,,,,,,,Ring,glatt,"['Ring', 'glatt']",restudy,2,,,,,,273.12681620009243,273.1268528001383,"['Telefon', 'Kiste', 'Ring', 'Flasche', 'Blume', 'Trommel', 'Eimer', 'Fahrrad', 'Buch', 'Tasche', 'Socke', 'Kerze', 'Rucksack', 'Tasse', 'Schlüssel', 'Lampe', 'Vase', 'Brille', 'Hut', 'Hammer', 'Stift', 'Kamera', 'Kette', 'Schere', 'Würfel', 'Bürste', 'Geige', 'Jacke', 'Uhr', 'Löffel']",273.6220476999879,273.62480720016174,None,273.624931700062,279.6284569001291,2,279.62875790009275,279.6312752000522,None,279.63138859998435,279.63243050011806,279.6324422999751,279.6335792001337,2.5225279999431223,None,,,,,,,,,,,,,,,,,,,,,,,,,,,,,,,,,,,,,,,,,,,,,,,2,2024-01-10_13h40.40.104,watkins1,2023.2.3,99.73231864768132,83,2024-01-10 13h41.04.132301 +0000,
,,,,,,,,,,,3,0,3,0,,,,,,,,,,,,,279.63792690006085,,,,,,,,,,,,279.6338620001916,280.1300869002007,,,[],[],,,,,,,,,,,,None,None,,,,,,,,,,Flasche,dunkel,"['Flasche', 'dunkel']",test_sub,2,,,,,,279.63379640015773,279.633834999986,"['Telefon', 'Kiste', 'Ring', 'Flasche', 'Blume', 'Trommel', 'Eimer', 'Fahrrad', 'Buch', 'Tasche', 'Socke', 'Kerze', 'Rucksack', 'Tasse', 'Schlüssel', 'Lampe', 'Vase', 'Brille', 'Hut', 'Hammer', 'Stift', 'Kamera', 'Kette', 'Schere', 'Würfel', 'Bürste', 'Geige', 'Jacke', 'Uhr', 'Löffel']",280.1300975000486,280.13290040008724,None,280.1330254999921,280.1344707000535,None,280.13458130019717,280.1360261000227,None,280.1361354000401,280.13730830000713,280.1373209001031,286.1414260000456,,,0,,,,,,,,,,,,,,,,,,,,,,,,,,,,,,,,,,,,,,,,,,,,,,2,2024-01-10_13h40.40.104,watkins1,2023.2.3,99.73231864768132,83,2024-01-10 13h41.04.132301 +0000,
,,,,,,,,,,,4,0,4,0,,,,,,,,,,,,,286.1512602001894,,,,,,,,,,,,286.14170510019176,286.6332547001075,,,[],[],,,,,,,,,,,,None,None,,,,,,,,,,Blume,sportlich,"['Blume', 'sportlich']",restudy,2,,,,,,286.1416408000514,286.141676899977,"['Telefon', 'Kiste', 'Ring', 'Flasche', 'Blume', 'Trommel', 'Eimer', 'Fahrrad', 'Buch', 'Tasche', 'Socke', 'Kerze', 'Rucksack', 'Tasse', 'Schlüssel', 'Lampe', 'Vase', 'Brille', 'Hut', 'Hammer', 'Stift', 'Kamera', 'Kette', 'Schere', 'Würfel', 'Bürste', 'Geige', 'Jacke', 'Uhr', 'Löffel']",286.63326620007865,286.63597120018676,None,286.6360985999927,292.64455490000546,1,292.6448482000269,292.6478194000665,None,292.64793620002456,292.6491084001027,292.6491201000754,292.6503165999893,3.375087399967015,None,,,,,,,,,,,,,,,,,,,,,,,,,,,,,,,,,,,,,,,,,,,,,,,2,2024-01-10_13h40.40.104,watkins1,2023.2.3,99.73231864768132,83,2024-01-10 13h41.04.132301 +0000,
,,,,,,,,,,,5,0,5,0,,,,,,,,,,,,,292.6540467001032,,,,,,,,,,,,292.6505987001583,293.14610090013593,,,[],[],,,,,,,,,,,,None,None,,,,,,,,,,Trommel,schlicht,"['Trommel', 'schlicht']",test_sub,2,,,,,,292.65053440001793,292.65057220007293,"['Telefon', 'Kiste', 'Ring', 'Flasche', 'Blume', 'Trommel', 'Eimer', 'Fahrrad', 'Buch', 'Tasche', 'Socke', 'Kerze', 'Rucksack', 'Tasse', 'Schlüssel', 'Lampe', 'Vase', 'Brille', 'Hut', 'Hammer', 'Stift', 'Kamera', 'Kette', 'Schere', 'Würfel', 'Bürste', 'Geige', 'Jacke', 'Uhr', 'Löffel']",293.1461114999838,293.1488720001653,None,293.1489964001812,293.15045910002664,None,293.15057240007445,293.15203240001574,None,293.15214160014875,293.15333510003984,293.15334750013426,299.15711740008555,,,0,,,,,,,,,,,,,,,,,,,,,,,,,,,,,,,,,,,,,,,,,,,,,,2,2024-01-10_13h40.40.104,watkins1,2023.2.3,99.73231864768132,83,2024-01-10 13h41.04.132301 +0000,
,,,,,,,,,,,6,0,6,0,,,,,,,,,,,,,299.1669450001791,,,,,,,,,,,,299.1573918000795,299.6499014000874,,,[],[],,,,,,,,,,,,None,None,,,,,,,,,,Eimer,nass,"['Eimer', 'nass']",restudy,2,,,,,,299.1573268000502,299.15736320009455,"['Telefon', 'Kiste', 'Ring', 'Flasche', 'Blume', 'Trommel', 'Eimer', 'Fahrrad', 'Buch', 'Tasche', 'Socke', 'Kerze', 'Rucksack', 'Tasse', 'Schlüssel', 'Lampe', 'Vase', 'Brille', 'Hut', 'Hammer', 'Stift', 'Kamera', 'Kette', 'Schere', 'Würfel', 'Bürste', 'Geige', 'Jacke', 'Uhr', 'Löffel']",299.64991270005703,299.65262020006776,None,299.65274849999696,305.6584904000629,3,305.65878080017865,305.6612903000787,None,305.6614018001128,305.66267280001193,305.6626846001018,305.66370150004514,2.454963699914515,None,,,,,,,,,,,,,,,,,,,,,,,,,,,,,,,,,,,,,,,,,,,,,,,2,2024-01-10_13h40.40.104,watkins1,2023.2.3,99.73231864768132,83,2024-01-10 13h41.04.132301 +0000,
,,,,,,,,,,,7,0,7,0,,,,,,,,,,,,,305.66838539997116,,,,,,,,,,,,305.6639805000741,306.1609623001423,,,[],[],,,,,,,,,,,,None,None,,,,,,,,,,Fahrrad,glänzend,"['Fahrrad', 'glänzend']",test_sub,2,,,,,,305.6639151000418,305.66395350010134,"['Telefon', 'Kiste', 'Ring', 'Flasche', 'Blume', 'Trommel', 'Eimer', 'Fahrrad', 'Buch', 'Tasche', 'Socke', 'Kerze', 'Rucksack', 'Tasse', 'Schlüssel', 'Lampe', 'Vase', 'Brille', 'Hut', 'Hammer', 'Stift', 'Kamera', 'Kette', 'Schere', 'Würfel', 'Bürste', 'Geige', 'Jacke', 'Uhr', 'Löffel']",306.1609728001058,306.16350660007447,None,306.16362960007973,306.16506650019437,None,306.1651759000961,306.1666149001103,None,306.16672240011394,306.167893800186,306.16790630016476,312.171344100032,,,0,,,,,,,,,,,,,,,,,,,,,,,,,,,,,,,,,,,,,,,,,,,,,,2,2024-01-10_13h40.40.104,watkins1,2023.2.3,99.73231864768132,83,2024-01-10 13h41.04.132301 +0000,
,,,,,,,,,,,8,0,8,0,,,,,,,,,,,,,312.1811873000115,,,,,,,,,,,,312.17162340017967,312.6632485999726,,,[],[],,,,,,,,,,,,None,None,,,,,,,,,,Buch,kurz,"['Buch', 'kurz']",test_sub,2,,,,,,312.1715573000256,312.1715936001856,"['Telefon', 'Kiste', 'Ring', 'Flasche', 'Blume', 'Trommel', 'Eimer', 'Fahrrad', 'Buch', 'Tasche', 'Socke', 'Kerze', 'Rucksack', 'Tasse', 'Schlüssel', 'Lampe', 'Vase', 'Brille', 'Hut', 'Hammer', 'Stift', 'Kamera', 'Kette', 'Schere', 'Würfel', 'Bürste', 'Geige', 'Jacke', 'Uhr', 'Löffel']",312.6632592000533,312.66628310014494,None,312.66640870017,312.6688203001395,None,312.6689300001599,312.6713576000184,None,312.67146900016814,312.6724911001511,312.67250360012986,318.6775645001326,,,0,,,,,,,,,,,,,,,,,,,,,,,,,,,,,,,,,,,,,,,,,,,,,,2,2024-01-10_13h40.40.104,watkins1,2023.2.3,99.73231864768132,83,2024-01-10 13h41.04.132301 +0000,
,,,,,,,,,,,9,0,9,0,,,,,,,,,,,,,318.68730720016174,,,,,,,,,,,,318.67784530017525,319.1693731001578,,,[],[],,,,,,,,,,,,None,None,,,,,,,,,,Tasche,zart,"['Tasche', 'zart']",test_sub,2,,,,,,318.6777787001338,318.67781550018117,"['Telefon', 'Kiste', 'Ring', 'Flasche', 'Blume', 'Trommel', 'Eimer', 'Fahrrad', 'Buch', 'Tasche', 'Socke', 'Kerze', 'Rucksack', 'Tasse', 'Schlüssel', 'Lampe', 'Vase', 'Brille', 'Hut', 'Hammer', 'Stift', 'Kamera', 'Kette', 'Schere', 'Würfel', 'Bürste', 'Geige', 'Jacke', 'Uhr', 'Löffel']",319.16938410000876,319.17194240004756,None,319.1720652000513,319.1744457001332,None,319.1745554001536,319.17698030010797,None,319.1770886001177,319.1784141000826,319.1784268000629,325.1834009999875,,,0,,,,,,,,,,,,,,,,,,,,,,,,,,,,,,,,,,,,,,,,,,,,,,2,2024-01-10_13h40.40.104,watkins1,2023.2.3,99.73231864768132,83,2024-01-10 13h41.04.132301 +0000,
,,,,,,,,,,,10,0,10,0,,,,,,,,,,,,,325.1931983001996,,,,,,,,,,,,325.183678700123,325.67514519998804,,,[],[],,,,,,,,,,,,None,None,,,,,,,,,,Socke,winzig,"['Socke', 'winzig']",restudy,2,,,,,,325.18361279997043,325.1836499001365,"['Telefon', 'Kiste', 'Ring', 'Flasche', 'Blume', 'Trommel', 'Eimer', 'Fahrrad', 'Buch', 'Tasche', 'Socke', 'Kerze', 'Rucksack', 'Tasse', 'Schlüssel', 'Lampe', 'Vase', 'Brille', 'Hut', 'Hammer', 'Stift', 'Kamera', 'Kette', 'Schere', 'Würfel', 'Bürste', 'Geige', 'Jacke', 'Uhr', 'Löffel']",325.6751559001859,325.67772530019283,None,325.6778506000992,331.68156860000454,2,331.68186800018884,331.6845893000718,None,331.68470640014857,331.6858804000076,331.6858926001005,331.6870731001254,2.9493218001443893,None,,,,,,,,,,,,,,,,,,,,,,,,,,,,,,,,,,,,,,,,,,,,,,,2,2024-01-10_13h40.40.104,watkins1,2023.2.3,99.73231864768132,83,2024-01-10 13h41.04.132301 +0000,
,,,,,,,,,,,11,0,11,0,,,,,,,,,,,,,331.69105060002767,,,,,,,,,,,,331.6873556000646,332.18303499999456,,,[],[],,,,,,,,,,,,None,None,,,,,,,,,,Kerze,neu,"['Kerze', 'neu']",restudy,2,,,,,,331.68729010014795,331.68732829997316,"['Telefon', 'Kiste', 'Ring', 'Flasche', 'Blume', 'Trommel', 'Eimer', 'Fahrrad', 'Buch', 'Tasche', 'Socke', 'Kerze', 'Rucksack', 'Tasse', 'Schlüssel', 'Lampe', 'Vase', 'Brille', 'Hut', 'Hammer', 'Stift', 'Kamera', 'Kette', 'Schere', 'Würfel', 'Bürste', 'Geige', 'Jacke', 'Uhr', 'Löffel']",332.18304550019093,332.1857072999701,None,332.1858271001838,338.1911716000177,2,338.1914647000376,338.1939442001749,None,338.19405840011314,338.195215200074,338.1952271000482,338.19625680008903,2.089682900113985,None,,,,,,,,,,,,,,,,,,,,,,,,,,,,,,,,,,,,,,,,,,,,,,,2,2024-01-10_13h40.40.104,watkins1,2023.2.3,99.73231864768132,83,2024-01-10 13h41.04.132301 +0000,
,,,,,,,,,,,12,0,12,0,,,,,,,,,,,,,338.2006324999966,,,,,,,,,,,,338.1965391000267,338.69263820000924,,,[],[],,,,,,,,,,,,2.468921799911186,None,,,,,Rucksack,,,,,Rucksack,elegant,"['Rucksack', 'elegant']",test_sub,2,,,,,,338.19647329999134,338.19651160016656,"['Telefon', 'Kiste', 'Ring', 'Flasche', 'Blume', 'Trommel', 'Eimer', 'Fahrrad', 'Buch', 'Tasche', 'Socke', 'Kerze', 'Rucksack', 'Tasse', 'Schlüssel', 'Lampe', 'Vase', 'Brille', 'Hut', 'Hammer', 'Stift', 'Kamera', 'Kette', 'Schere', 'Würfel', 'Bürste', 'Geige', 'Jacke', 'Uhr', 'Löffel']",338.69264929997735,338.6956121001858,None,338.6957396999933,338.69721020013094,None,338.69732040003873,338.69878350012004,None,338.6988918001298,338.7000856001396,338.7000984000042,344.7036956001539,,,1,,,,,,,,,,,,,,,,,,,,,,,,,,,,,,,,,,,,,,,,,,,,,,2,2024-01-10_13h40.40.104,watkins1,2023.2.3,99.73231864768132,83,2024-01-10 13h41.04.132301 +0000,
,,,,,,,,,,,13,0,13,0,,,,,,,,,,,,,344.71350220008753,,,,,,,,,,,,344.70397540018894,345.1955328001641,,,[],[],,,,,,,,,,,,None,None,,,,,,,,,,Tasse,matt,"['Tasse', 'matt']",restudy,2,,,,,,344.7039087000303,344.70394659996964,"['Telefon', 'Kiste', 'Ring', 'Flasche', 'Blume', 'Trommel', 'Eimer', 'Fahrrad', 'Buch', 'Tasche', 'Socke', 'Kerze', 'Rucksack', 'Tasse', 'Schlüssel', 'Lampe', 'Vase', 'Brille', 'Hut', 'Hammer', 'Stift', 'Kamera', 'Kette', 'Schere', 'Würfel', 'Bürste', 'Geige', 'Jacke', 'Uhr', 'Löffel']",345.19554320001043,345.19835530011915,None,345.1984773001168,351.2082695001736,2,351.2085678000003,351.2111474000849,None,351.21126030012965,351.2124175999779,351.21242950018495,351.21378240012564,2.509079499868676,None,,,,,,,,,,,,,,,,,,,,,,,,,,,,,,,,,,,,,,,,,,,,,,,2,2024-01-10_13h40.40.104,watkins1,2023.2.3,99.73231864768132,83,2024-01-10 13h41.04.132301 +0000,
,,,,,,,,,,,14,0,14,0,,,,,,,,,,,,,351.21773600019515,,,,,,,,,,,,351.2140893000178,351.71065490017645,,,[],[],,,,,,,,,,,,None,None,,,,,,,,,,Schlüssel,teuer,"['Schlüssel', 'teuer']",test_sub,2,,,,,,351.21400050004013,351.21404079999775,"['Telefon', 'Kiste', 'Ring', 'Flasche', 'Blume', 'Trommel', 'Eimer', 'Fahrrad', 'Buch', 'Tasche', 'Socke', 'Kerze', 'Rucksack', 'Tasse', 'Schlüssel', 'Lampe', 'Vase', 'Brille', 'Hut', 'Hammer', 'Stift', 'Kamera', 'Kette', 'Schere', 'Würfel', 'Bürste', 'Geige', 'Jacke', 'Uhr', 'Löffel']",351.7106663000304,351.71363260014914,None,351.7137649001088,351.71528970007785,None,351.71540069999173,351.7169195001479,None,351.7170288001653,351.7182758001145,351.7182889999822,357.7221789001487,,,0,,,,,,,,,,,,,,,,,,,,,,,,,,,,,,,,,,,,,,,,,,,,,,2,2024-01-10_13h40.40.104,watkins1,2023.2.3,99.73231864768132,83,2024-01-10 13h41.04.132301 +0000,
,,,,,,,,,,,15,0,15,0,,,,,,,,,,,,,357.7319816001691,,,,,,,,,,,,357.722456100164,358.21403510007076,,,[],[],,,,,,,,,,,,1.5072457999922335,None,,,,,Lampe,,,,,Lampe,durchsichtig,"['Lampe', 'durchsichtig']",test_sub,2,,,,,,357.72239070013165,357.7224270000588,"['Telefon', 'Kiste', 'Ring', 'Flasche', 'Blume', 'Trommel', 'Eimer', 'Fahrrad', 'Buch', 'Tasche', 'Socke', 'Kerze', 'Rucksack', 'Tasse', 'Schlüssel', 'Lampe', 'Vase', 'Brille', 'Hut', 'Hammer', 'Stift', 'Kamera', 'Kette', 'Schere', 'Würfel', 'Bürste', 'Geige', 'Jacke', 'Uhr', 'Löffel']",358.2140454000328,358.2167170001194,None,358.2168398001231,358.21933750016615,None,358.21944870008156,358.22207740019076,None,358.2221844000742,358.2233337000944,358.22334650019184,364.2291780000087,,,1,,,,,,,,,,,,,,,,,,,,,,,,,,,,,,,,,,,,,,,,,,,,,,2,2024-01-10_13h40.40.104,watkins1,2023.2.3,99.73231864768132,83,2024-01-10 13h41.04.132301 +0000,
,,,,,,,,,,,16,0,16,0,,,,,,,,,,,,,364.23903170018457,,,,,,,,,,,,364.2294624000788,364.72104950016364,,,[],[],,,,,,,,,,,,None,None,,,,,,,,,,Vase,kratzig,"['Vase', 'kratzig']",restudy,2,,,,,,364.2293925001286,364.22943269996904,"['Telefon', 'Kiste', 'Ring', 'Flasche', 'Blume', 'Trommel', 'Eimer', 'Fahrrad', 'Buch', 'Tasche', 'Socke', 'Kerze', 'Rucksack', 'Tasse', 'Schlüssel', 'Lampe', 'Vase', 'Brille', 'Hut', 'Hammer', 'Stift', 'Kamera', 'Kette', 'Schere', 'Würfel', 'Bürste', 'Geige', 'Jacke', 'Uhr', 'Löffel']",364.72106060013175,364.72392130014487,None,364.7240480000619,370.7284878999926,1,370.7287920000963,370.73143879999407,None,370.7315507000312,370.7325776000507,370.7325896001421,370.7340790000744,1.967438800027594,None,,,,,,,,,,,,,,,,,,,,,,,,,,,,,,,,,,,,,,,,,,,,,,,2,2024-01-10_13h40.40.104,watkins1,2023.2.3,99.73231864768132,83,2024-01-10 13h41.04.132301 +0000,
,,,,,,,,,,,17,0,17,0,,,,,,,,,,,,,370.73798730014823,,,,,,,,,,,,370.7343576999847,371.2298993000295,,,[],[],,,,,,,,,,,,None,None,,,,,,,,,,Brille,robust,"['Brille', 'robust']",restudy,2,,,,,,370.73429370019585,370.73433110001497,"['Telefon', 'Kiste', 'Ring', 'Flasche', 'Blume', 'Trommel', 'Eimer', 'Fahrrad', 'Buch', 'Tasche', 'Socke', 'Kerze', 'Rucksack', 'Tasse', 'Schlüssel', 'Lampe', 'Vase', 'Brille', 'Hut', 'Hammer', 'Stift', 'Kamera', 'Kette', 'Schere', 'Würfel', 'Bürste', 'Geige', 'Jacke', 'Uhr', 'Löffel']",371.22991059999913,371.2326988000423,None,371.2328242000658,377.2347618001513,2,377.23504759999923,377.237739500124,None,377.2378492001444,377.23899110010825,377.2390027001966,377.2401477000676,1.9303800000343472,None,,,,,,,,,,,,,,,,,,,,,,,,,,,,,,,,,,,,,,,,,,,,,,,2,2024-01-10_13h40.40.104,watkins1,2023.2.3,99.73231864768132,83,2024-01-10 13h41.04.132301 +0000,
,,,,,,,,,,,18,0,18,0,,,,,,,,,,,,,377.24422250012867,,,,,,,,,,,,377.2404225000646,377.73626799997874,,,[],[],,,,,,,,,,,,None,None,,,,,,,,,,Hut,hübsch,"['Hut', 'hübsch']",test_sub,2,,,,,,377.2403583000414,377.24039570009336,"['Telefon', 'Kiste', 'Ring', 'Flasche', 'Blume', 'Trommel', 'Eimer', 'Fahrrad', 'Buch', 'Tasche', 'Socke', 'Kerze', 'Rucksack', 'Tasse', 'Schlüssel', 'Lampe', 'Vase', 'Brille', 'Hut', 'Hammer', 'Stift', 'Kamera', 'Kette', 'Schere', 'Würfel', 'Bürste', 'Geige', 'Jacke', 'Uhr', 'Löffel']",377.7362793001812,377.73884470015764,None,377.7389713001903,377.7402709000744,None,377.7403830999974,377.74167020013556,None,377.7417780000251,377.74279620009474,377.7428090001922,383.74580979999155,,,0,,,,,,,,,,,,,,,,,,,,,,,,,,,,,,,,,,,,,,,,,,,,,,2,2024-01-10_13h40.40.104,watkins1,2023.2.3,99.73231864768132,83,2024-01-10 13h41.04.132301 +0000,
,,,,,,,,,,,19,0,19,0,,,,,,,,,,,,,383.75561630004086,,,,,,,,,,,,383.7460896000266,384.2376528000459,,,[],[],,,,,,,,,,,,None,None,,,,,,,,,,Hammer,biegsam,"['Hammer', 'biegsam']",test_sub,2,,,,,,383.7460241999943,383.74606000003405,"['Telefon', 'Kiste', 'Ring', 'Flasche', 'Blume', 'Trommel', 'Eimer', 'Fahrrad', 'Buch', 'Tasche', 'Socke', 'Kerze', 'Rucksack', 'Tasse', 'Schlüssel', 'Lampe', 'Vase', 'Brille', 'Hut', 'Hammer', 'Stift', 'Kamera', 'Kette', 'Schere', 'Würfel', 'Bürste', 'Geige', 'Jacke', 'Uhr', 'Löffel']",384.2376631000079,384.240350499982,None,384.2404740001075,384.24312220001593,None,384.24323220015503,384.2457587001845,None,384.24586910009384,384.24702350003645,384.2470363001339,390.2533723001834,,,0,,,,,,,,,,,,,,,,,,,,,,,,,,,,,,,,,,,,,,,,,,,,,,2,2024-01-10_13h40.40.104,watkins1,2023.2.3,99.73231864768132,83,2024-01-10 13h41.04.132301 +0000,
,,,,,,,,,,,20,0,20,0,,,,,,,,,,,,,390.26312660006806,,,,,,,,,,,,390.2536455001682,390.74546830006875,,,[],[],,,,,,,,,,,,None,None,,,,,,,,,,Stift,flauschig,"['Stift', 'flauschig']",restudy,2,,,,,,390.25358150014654,390.2536173001863,"['Telefon', 'Kiste', 'Ring', 'Flasche', 'Blume', 'Trommel', 'Eimer', 'Fahrrad', 'Buch', 'Tasche', 'Socke', 'Kerze', 'Rucksack', 'Tasse', 'Schlüssel', 'Lampe', 'Vase', 'Brille', 'Hut', 'Hammer', 'Stift', 'Kamera', 'Kette', 'Schere', 'Würfel', 'Bürste', 'Geige', 'Jacke', 'Uhr', 'Löffel']",390.74547860003076,390.74814150016755,None,390.74826730019413,396.7518114000559,1,396.75210360018536,396.75485420017503,None,396.7549672999885,396.7561311000027,396.7561433000956,396.7574120000936,3.7190906000323594,None,,,,,,,,,,,,,,,,,,,,,,,,,,,,,,,,,,,,,,,,,,,,,,,2,2024-01-10_13h40.40.104,watkins1,2023.2.3,99.73231864768132,83,2024-01-10 13h41.04.132301 +0000,
,,,,,,,,,,,21,0,21,0,,,,,,,,,,,,,396.7612626000773,,,,,,,,,,,,396.75769780017436,397.2535578000825,,,[],[],,,,,,,,,,,,None,None,,,,,,,,,,Kamera,groß,"['Kamera', 'groß']",restudy,2,,,,,,396.7576322001405,396.7576706002001,"['Telefon', 'Kiste', 'Ring', 'Flasche', 'Blume', 'Trommel', 'Eimer', 'Fahrrad', 'Buch', 'Tasche', 'Socke', 'Kerze', 'Rucksack', 'Tasse', 'Schlüssel', 'Lampe', 'Vase', 'Brille', 'Hut', 'Hammer', 'Stift', 'Kamera', 'Kette', 'Schere', 'Würfel', 'Bürste', 'Geige', 'Jacke', 'Uhr', 'Löffel']",397.2535687000491,397.2562800999731,None,397.256403000094,403.2664690001402,2,403.2667557001114,403.2692738000769,None,403.26938550011255,403.2705408001784,403.27055280003697,403.2715720999986,1.8269856001716107,None,,,,,,,,,,,,,,,,,,,,,,,,,,,,,,,,,,,,,,,,,,,,,,,2,2024-01-10_13h40.40.104,watkins1,2023.2.3,99.73231864768132,83,2024-01-10 13h41.04.132301 +0000,
,,,,,,,,,,,22,0,22,0,,,,,,,,,,,,,403.2759034000337,,,,,,,,,,,,403.2718472999986,403.768262000056,,,[],[],,,,,,,,,,,,None,None,,,,,,,,,,Kette,praktisch,"['Kette', 'praktisch']",test_sub,2,,,,,,403.2717840000987,403.2718210001476,"['Telefon', 'Kiste', 'Ring', 'Flasche', 'Blume', 'Trommel', 'Eimer', 'Fahrrad', 'Buch', 'Tasche', 'Socke', 'Kerze', 'Rucksack', 'Tasse', 'Schlüssel', 'Lampe', 'Vase', 'Brille', 'Hut', 'Hammer', 'Stift', 'Kamera', 'Kette', 'Schere', 'Würfel', 'Bürste', 'Geige', 'Jacke', 'Uhr', 'Löffel']",403.76827270002104,403.77079079998657,None,403.77091379999183,403.7724560999777,None,403.772564599989,403.7739532000851,None,403.77406020020135,403.7751839000266,403.77519650012255,409.78056220011786,,,0,,,,,,,,,,,,,,,,,,,,,,,,,,,,,,,,,,,,,,,,,,,,,,2,2024-01-10_13h40.40.104,watkins1,2023.2.3,99.73231864768132,83,2024-01-10 13h41.04.132301 +0000,
,,,,,,,,,,,23,0,23,0,,,,,,,,,,,,,409.79039460001513,,,,,,,,,,,,409.780886300141,410.2723982001189,,,[],[],,,,,,,,,,,,None,None,,,,,,,,,,Schere,blass,"['Schere', 'blass']",test_sub,2,,,,,,409.7808201999869,409.78085670014843,"['Telefon', 'Kiste', 'Ring', 'Flasche', 'Blume', 'Trommel', 'Eimer', 'Fahrrad', 'Buch', 'Tasche', 'Socke', 'Kerze', 'Rucksack', 'Tasse', 'Schlüssel', 'Lampe', 'Vase', 'Brille', 'Hut', 'Hammer', 'Stift', 'Kamera', 'Kette', 'Schere', 'Würfel', 'Bürste', 'Geige', 'Jacke', 'Uhr', 'Löffel']",410.27240939997137,410.2752181000542,None,410.27534910012037,410.2779639000073,None,410.27807530015707,410.2806946001947,None,410.28080509998836,410.2820600999985,410.2820727999788,416.2885536001995,,,0,,,,,,,,,,,,,,,,,,,,,,,,,,,,,,,,,,,,,,,,,,,,,,2,2024-01-10_13h40.40.104,watkins1,2023.2.3,99.73231864768132,83,2024-01-10 13h41.04.132301 +0000,
,,,,,,,,,,,24,0,24,0,,,,,,,,,,,,,416.29841720010154,,,,,,,,,,,,416.28883530013263,416.7805020001251,,,[],[],,,,,,,,,,,,None,None,,,,,,,,,,Würfel,verspielt,"['Würfel', 'verspielt']",test_sub,2,,,,,,416.2887701999862,416.28880680003203,"['Telefon', 'Kiste', 'Ring', 'Flasche', 'Blume', 'Trommel', 'Eimer', 'Fahrrad', 'Buch', 'Tasche', 'Socke', 'Kerze', 'Rucksack', 'Tasse', 'Schlüssel', 'Lampe', 'Vase', 'Brille', 'Hut', 'Hammer', 'Stift', 'Kamera', 'Kette', 'Schere', 'Würfel', 'Bürste', 'Geige', 'Jacke', 'Uhr', 'Löffel']",416.7805129000917,416.783314100001,None,416.7834399000276,416.7858975001145,None,416.78600740013644,416.7884582001716,None,416.7885650000535,416.7897109000478,416.7897233001422,422.79540860001,,,0,,,,,,,,,,,,,,,,,,,,,,,,,,,,,,,,,,,,,,,,,,,,,,2,2024-01-10_13h40.40.104,watkins1,2023.2.3,99.73231864768132,83,2024-01-10 13h41.04.132301 +0000,
,,,,,,,,,,,25,0,25,0,,,,,,,,,,,,,422.8051905001048,,,,,,,,,,,,422.7957015000284,423.28718760004267,,,[],[],,,,,,,,,,,,None,None,,,,,,,,,,Bürste,nachhaltig,"['Bürste', 'nachhaltig']",restudy,2,,,,,,422.7956360001117,422.79567240015604,"['Telefon', 'Kiste', 'Ring', 'Flasche', 'Blume', 'Trommel', 'Eimer', 'Fahrrad', 'Buch', 'Tasche', 'Socke', 'Kerze', 'Rucksack', 'Tasse', 'Schlüssel', 'Lampe', 'Vase', 'Brille', 'Hut', 'Hammer', 'Stift', 'Kamera', 'Kette', 'Schere', 'Würfel', 'Bürste', 'Geige', 'Jacke', 'Uhr', 'Löffel']",423.28719850000925,423.28997960011475,None,423.29010430001654,429.2931062001735,1,429.2934068001341,429.2961809001863,None,429.2962957001291,429.29746430017985,429.2974765000399,429.2987224999815,2.7770686000585556,None,,,,,,,,,,,,,,,,,,,,,,,,,,,,,,,,,,,,,,,,,,,,,,,2,2024-01-10_13h40.40.104,watkins1,2023.2.3,99.73231864768132,83,2024-01-10 13h41.04.132301 +0000,
,,,,,,,,,,,26,0,26,0,,,,,,,,,,,,,429.3025789000094,,,,,,,,,,,,429.2990341000259,429.79468820011243,,,[],[],,,,,,,,,,,,None,None,,,,,,,,,,Geige,kaputt,"['Geige', 'kaputt']",restudy,2,,,,,,429.29896869999357,429.2990070001688,"['Telefon', 'Kiste', 'Ring', 'Flasche', 'Blume', 'Trommel', 'Eimer', 'Fahrrad', 'Buch', 'Tasche', 'Socke', 'Kerze', 'Rucksack', 'Tasse', 'Schlüssel', 'Lampe', 'Vase', 'Brille', 'Hut', 'Hammer', 'Stift', 'Kamera', 'Kette', 'Schere', 'Würfel', 'Bürste', 'Geige', 'Jacke', 'Uhr', 'Löffel']",429.7946994001977,429.79745800001547,None,429.797586100176,435.79970120009966,2,435.79998550005257,435.80257210019045,None,435.8026837001089,435.80379789997824,435.80380960018374,435.80499060009606,2.845845199888572,None,,,,,,,,,,,,,,,,,,,,,,,,,,,,,,,,,,,,,,,,,,,,,,,2,2024-01-10_13h40.40.104,watkins1,2023.2.3,99.73231864768132,83,2024-01-10 13h41.04.132301 +0000,
,,,,,,,,,,,27,0,27,0,,,,,,,,,,,,,435.8091873000376,,,,,,,,,,,,435.80526230018586,436.30135970003903,,,[],[],,,,,,,,,,,,None,None,,,,,,,,,,Jacke,sauber,"['Jacke', 'sauber']",test_sub,2,,,,,,435.8051991001703,435.8052362999879,"['Telefon', 'Kiste', 'Ring', 'Flasche', 'Blume', 'Trommel', 'Eimer', 'Fahrrad', 'Buch', 'Tasche', 'Socke', 'Kerze', 'Rucksack', 'Tasse', 'Schlüssel', 'Lampe', 'Vase', 'Brille', 'Hut', 'Hammer', 'Stift', 'Kamera', 'Kette', 'Schere', 'Würfel', 'Bürste', 'Geige', 'Jacke', 'Uhr', 'Löffel']",436.30137030011974,436.3040720000863,None,436.3041960999835,436.3056010999717,None,436.3057115999982,436.3071358001325,None,436.3072437001392,436.30838870001025,436.3084015001077,442.3121500001289,,,0,,,,,,,,,,,,,,,,,,,,,,,,,,,,,,,,,,,,,,,,,,,,,,2,2024-01-10_13h40.40.104,watkins1,2023.2.3,99.73231864768132,83,2024-01-10 13h41.04.132301 +0000,
,,,,,,,,,,,28,0,28,0,,,,,,,,,,,,,442.32195330015384,,,,,,,,,,,,442.3124294001609,442.80396679998375,,,[],[],,,,,,,,,,,,None,None,,,,,,,,,,Uhr,hässlich,"['Uhr', 'hässlich']",test_sub,2,,,,,,442.31236380012706,442.3124002001714,"['Telefon', 'Kiste', 'Ring', 'Flasche', 'Blume', 'Trommel', 'Eimer', 'Fahrrad', 'Buch', 'Tasche', 'Socke', 'Kerze', 'Rucksack', 'Tasse', 'Schlüssel', 'Lampe', 'Vase', 'Brille', 'Hut', 'Hammer', 'Stift', 'Kamera', 'Kette', 'Schere', 'Würfel', 'Bürste', 'Geige', 'Jacke', 'Uhr', 'Löffel']",442.8039773001801,442.806595900096,None,442.80672380002216,442.80907199997455,None,442.80918460013345,442.81153300008737,None,442.8116445001215,442.8126544000115,442.812667200109,448.8176459001843,,,0,,,,,,,,,,,,,,,,,,,,,,,,,,,,,,,,,,,,,,,,,,,,,,2,2024-01-10_13h40.40.104,watkins1,2023.2.3,99.73231864768132,83,2024-01-10 13h41.04.132301 +0000,
,,,,,,,,,,,29,0,29,0,,,,,,,,,,,,,448.827483400004,,,,,,,,,,,,448.8179291000124,449.3096712999977,,,[],[],,,,,,,,,,,,None,None,,,,,,,,,,Löffel,hohl,"['Löffel', 'hohl']",restudy,2,,,,,,448.8178630999755,448.817899600137,"['Telefon', 'Kiste', 'Ring', 'Flasche', 'Blume', 'Trommel', 'Eimer', 'Fahrrad', 'Buch', 'Tasche', 'Socke', 'Kerze', 'Rucksack', 'Tasse', 'Schlüssel', 'Lampe', 'Vase', 'Brille', 'Hut', 'Hammer', 'Stift', 'Kamera', 'Kette', 'Schere', 'Würfel', 'Bürste', 'Geige', 'Jacke', 'Uhr', 'Löffel']",449.3096820001956,449.3124703001231,None,449.3125919001177,455.3184279000852,2,455.318725500023,455.32126710005105,None,455.3213804999832,455.32256590016186,455.3225779000204,455.32361580012366,1.8428648000117391,None,,,,,,,,,,,,,,,,,,,,,,,,,,,,,,,,,,,,,,,,,,,,,,,2,2024-01-10_13h40.40.104,watkins1,2023.2.3,99.73231864768132,83,2024-01-10 13h41.04.132301 +0000,
,,,,,,,,,,,,,,,,,,,,,,,,,,,,,,,,,,,,,,,,,,,,,,,,,,,,,,,,,,,,,,,,,,,,,,,2,,,,,,,,,,,,,,,,,,,,,,,,,,,,,,,,,,,,,,,,,,,,,,,,,,,,,,,,,,,,,,,,,,,,,,2,2024-01-10_13h40.40.104,watkins1,2023.2.3,99.73231864768132,83,2024-01-10 13h41.04.132301 +0000,
(7 x 6) + 9 = 48 ,Incorrect,button_incorrect,,,,,,,,,,,,,0,0,0,9,,,,,,,,,481.53148950007744,,,,,,,,,,480.472795000067,481.4767665001564,,,,,['button_incorrect'],[26.139299700036645],,,,,,,,,,,,,,,,,,,,,,,,,,distractorTask,2,,,,,,,,,,,,,,,,,,,,,,,,,481.5193600000348,481.53148950007744,507.6644745999947,[-0.41388888888888886],[-0.40555555555555556],[1],[0],[0],[26.139299700036645],['button_incorrect'],507.6651582000777,508.66817690012977,,,,,,,,,,,,,,,,,,,,,,,,,,,,,,,,,,2,2024-01-10_13h40.40.104,watkins1,2023.2.3,99.73231864768132,83,2024-01-10 13h41.04.132301 +0000,
(54 : 6) - 10 = 0 ,Incorrect,button_incorrect,,,,,,,,,,,,,0,1,1,5,,,,,,,,,508.67816010001116,,,,,,,,,,,,,,,,['button_incorrect'],[10.761812699958682],,,,,,,,,,,,,,,,,,,,,,,,,,distractorTask,2,,,,,,,,,,,,,,,,,,,,,,,,,508.6683683001902,508.67816010001116,519.4334638,[-0.36944444444444446],[-0.38981481481481484],[1],[0],[0],[10.761812699958682],['button_incorrect'],519.4338454001117,520.4369389000349,,,,,,,,,,,,,,,,,,,,,,,,,,,,,,,,,,2,2024-01-10_13h40.40.104,watkins1,2023.2.3,99.73231864768132,83,2024-01-10 13h41.04.132301 +0000,
(4 : 2) + 4 = 6 ,Correct,button_correct,,,,,,,,,,,,,0,2,2,1,,,,,,,,,520.4470104000065,,,,,,,,,,,,,,,,['button_correct'],[4.235794699983671],,,,,,,,,,,,,,,,,,,,,,,,,,distractorTask,2,,,,,,,,,,,,,,,,,,,,,,,,,520.4371266001835,520.4470104000065,524.6750583001412,[0.3592592592592593],[-0.40925925925925927],[1],[0],[0],[4.235794699983671],['button_correct'],524.6754384001251,525.6786076000426,,,,,,,,,,,,,,,,,,,,,,,,,,,,,,,,,,2,2024-01-10_13h40.40.104,watkins1,2023.2.3,99.73231864768132,83,2024-01-10 13h41.04.132301 +0000,
(28 : 7) - 3 = 1 ,Correct,button_correct,,,,,,,,,,,,,0,3,3,0,,,,,,,,,525.6886094000656,,,,,,,,,,,,,,,,['button_correct'],[10.591642000013962],,,,,,,,,,,,,,,,,,,,,,,,,,distractorTask,2,,,,,,,,,,,,,,,,,,,,,,,,,525.6787964000832,525.6886094000656,536.27298410004,[0.3212962962962963],[-0.40925925925925927],[1],[0],[0],[10.591642000013962],['button_correct'],536.2733691001777,537.2765975000802,,,,,,,,,,,,,,,,,,,,,,,,,,,,,,,,,,2,2024-01-10_13h40.40.104,watkins1,2023.2.3,99.73231864768132,83,2024-01-10 13h41.04.132301 +0000,
(9 x 5) - 9 = 36 ,Correct,button_correct,,,,,,,,,,,,,0,4,4,4,,,,,,,,,537.2865776000544,,,,,,,,,,,,,,,,['button_correct'],[7.57968800002709],,,,,,,,,,,,,,,,,,,,,,,,,,distractorTask,2,,,,,,,,,,,,,,,,,,,,,,,,,537.2767860000022,537.2865776000544,544.8581898000557,[0.3212962962962963],[-0.40925925925925927],[1],[0],[0],[7.57968800002709],['button_correct'],544.8585737000685,545.8618640999775,,,,,,,,,,,,,,,,,,,,,,,,,,,,,,,,,,2,2024-01-10_13h40.40.104,watkins1,2023.2.3,99.73231864768132,83,2024-01-10 13h41.04.132301 +0000,
(25 : 5) + 5 = 9 ,Incorrect,button_incorrect,,,,,,,,,,,,,0,5,5,6,,,,,,,,,545.8718460001983,,,,,,,,,,,,,,,,['button_incorrect'],[2.940600600093603],,,,,,,,,,,,,,,,,,,,,,,,,,distractorTask,2,,,,,,,,,,,,,,,,,,,,,,,,,545.8620543000288,545.8718460001983,548.8043800999876,[-0.29907407407407405],[-0.40185185185185185],[1],[0],[0],[2.940600600093603],['button_incorrect'],548.8047597000841,549.80796190002,,,,,,,,,,,,,,,,,,,,,,,,,,,,,,,,,,2,2024-01-10_13h40.40.104,watkins1,2023.2.3,99.73231864768132,83,2024-01-10 13h41.04.132301 +0000,
(2 x 5) + 3 = 13 ,Correct,button_correct,,,,,,,,,,,,,0,6,6,2,,,,,,,,,549.8180488999933,,,,,,,,,,,,,,,,['button_correct'],[3.4931359998881817],,,,,,,,,,,,,,,,,,,,,,,,,,distractorTask,2,,,,,,,,,,,,,,,,,,,,,,,,,549.8081469000317,549.8180488999933,553.3029771000147,[0.2777777777777778],[-0.39537037037037037],[1],[0],[0],[3.4931359998881817],['button_correct'],553.3033519000746,554.306529100053,,,,,,,,,,,,,,,,,,,,,,,,,,,,,,,,,,2,2024-01-10_13h40.40.104,watkins1,2023.2.3,99.73231864768132,83,2024-01-10 13h41.04.132301 +0000,
(6 x 3) + 10 = 27 ,Incorrect,button_incorrect,,,,,,,,,,,,,0,7,7,8,,,,,,,,,554.3166088000871,,,,,,,,,,,,,,,,['button_incorrect'],[3.8244870000053197],,,,,,,,,,,,,,,,,,,,,,,,,,distractorTask,2,,,,,,,,,,,,,,,,,,,,,,,,,554.3067135000601,554.3166088000871,558.1329056001268,[-0.37222222222222223],[-0.40185185185185185],[1],[0],[0],[3.8244870000053197],['button_incorrect'],558.1332863001153,559.1363945000339,,,,,,,,,,,,,,,,,,,,,,,,,,,,,,,,,,2,2024-01-10_13h40.40.104,watkins1,2023.2.3,99.73231864768132,83,2024-01-10 13h41.04.132301 +0000,
(40 : 5) + 8 = 15 ,Incorrect,button_incorrect,,,,,,,,,,,,,0,8,8,7,,,,,,,,,559.1463516000658,,,,,,,,,,,,,,,,['button_incorrect'],[7.9715632000006735],,,,,,,,,,,,,,,,,,,,,,,,,,distractorTask,2,,,,,,,,,,,,,,,,,,,,,,,,,559.1365867001005,559.1463516000658,567.1098823000211,[-0.3],[-0.4027777777777778],[1],[0],[0],[7.9715632000006735],['button_incorrect'],567.1102736000903,568.1135329001117,,,,,,,,,,,,,,,,,,,,,,,,,,,,,,,,,,2,2024-01-10_13h40.40.104,watkins1,2023.2.3,99.73231864768132,83,2024-01-10 13h41.04.132301 +0000,
(80 : 10) + 9 = 17 ,Correct,button_correct,,,,,,,,,,,,,0,9,9,3,,,,,,,,,568.1235128000844,,,,,,,,,,,,,,,,['button_correct'],[6.2340265000239015],,,,,,,,,,,,,,,,,,,,,,,,,,distractorTask,2,,,,,,,,,,,,,,,,,,,,,,,,,568.1137296999805,568.1235128000844,574.3498490001075,[0.3638888888888889],[-0.4],[1],[0],[0],[6.2340265000239015],['button_correct'],574.3502231000457,575.3533822000027,,,,,,,,,,,,,,,,,,,,,,,,,,,,,,,,,,2,2024-01-10_13h40.40.104,watkins1,2023.2.3,99.73231864768132,83,2024-01-10 13h41.04.132301 +0000,
,,,,,,,,,,,,,,,,,,,,,,,,,,,,,,,,,,,,,,,,,,,,,,,,,,,,,,,,,,,,,,,,,,,,,,,2,,,,,,,,,,,,,,,,,,,,,,,,,,,,,,,,,,,,,,,,,,,,,,,,,,,,,,,,,,,,,,,,,,,,,,2,2024-01-10_13h40.40.104,watkins1,2023.2.3,99.73231864768132,83,2024-01-10 13h41.04.132301 +0000,
,,,,,,,,,,,,,,,,,,,0,0,0,0,,,,,590.9269447000697,,,,,,,,,,,,,,,,Tasse,7.673118199920282,,,,,,,,,,,,4.859459300059825,None,,,,,,,,,,,,,freeRecallSub,2,,,,,,,,,,,,,,,,,,,,,,,,,,,,,,,,,,,,,590.9183066000696,590.9269447000697,590.9269447000697,598.6089553001802,return,7.673118199920282,None,Tasse,[0.025925925925925925],[0.03796296296296296],[1],[0],[0],[3.2123106999788433],[],,,,,,,,,,,,,,,,,,,2,2024-01-10_13h40.40.104,watkins1,2023.2.3,99.73231864768132,83,2024-01-10 13h41.04.132301 +0000,
,,,,,,,,,,,,,,,,,,,1,0,1,0,,,,,598.6210724001285,,,,,,,,,,,,,,,,Rucksack,5.498963800026104,,,,,,,,,,,,1.2169360998086631,None,,,,,,,,,,,,,freeRecallSub,2,,,,,,,,,,,,,,,,,,,,,,,,,,,,,,,,,,,,,598.6107197999954,598.6210724001285,598.6210724001285,604.1254441000056,return,5.498963800026104,None,Rucksack,[],[],[],[],[],[],[],,,,,,,,,,,,,,,,,,,2,2024-01-10_13h40.40.104,watkins1,2023.2.3,99.73231864768132,83,2024-01-10 13h41.04.132301 +0000,
,,,,,,,,,,,,,,,,,,,2,0,2,0,,,,,604.136154100066,,,,,,,,,,,,,,,,Hund,2.191829500021413,,,,,,,,,,,,0.4315702999010682,None,,,,,,,,,,,,,freeRecallSub,2,,,,,,,,,,,,,,,,,,,,,,,,,,,,,,,,,,,,,604.1266915001906,604.136154100066,604.136154100066,606.3355801000725,return,2.191829500021413,None,Hund,[],[],[],[],[],[],[],,,,,,,,,,,,,,,,,,,2,2024-01-10_13h40.40.104,watkins1,2023.2.3,99.73231864768132,83,2024-01-10 13h41.04.132301 +0000,
,,,,,,,,,,,,,,,,,,,3,0,3,0,,,,,606.3463037000038,,,,,,,,,,,,,,,,Katze,3.0056964000687003,,,,,,,,,,,,0.7928440999239683,None,,,,,,,,,,,,,freeRecallSub,2,,,,,,,,,,,,,,,,,,,,,,,,,,,,,,,,,,,,,606.3368339000735,606.3463037000038,606.3463037000038,609.359046400059,return,3.0056964000687003,None,Katze,[],[],[],[],[],[],[],,,,,,,,,,,,,,,,,,,2,2024-01-10_13h40.40.104,watkins1,2023.2.3,99.73231864768132,83,2024-01-10 13h41.04.132301 +0000,
,,,,,,,,,,,,,,,,,,,4,0,4,0,,,,,609.3701431001537,,,,,,,,,,,,,,,,Lampe,2.7178746999707073,,,,,,,,,,,,0.8841065000742674,None,,,,,,,,,,,,,freeRecallSub,2,,,,,,,,,,,,,,,,,,,,,,,,,,,,,,,,,,,,,609.3603072001133,609.3701431001537,609.3701431001537,612.092291300185,return,2.7178746999707073,None,Lampe,[],[],[],[],[],[],[],,,,,,,,,,,,,,,,,,,2,2024-01-10_13h40.40.104,watkins1,2023.2.3,99.73231864768132,83,2024-01-10 13h41.04.132301 +0000,
,,,,,,,,,,,,,,,,,,,5,0,5,0,,,,,612.1036565999966,,,,,,,,,,,,,,,,Fahrrad,6.2403702000156045,,,,,,,,,,,,3.4758059000596404,None,,,,,,,,,,,,,freeRecallSub,2,,,,,,,,,,,,,,,,,,,,,,,,,,,,,,,,,,,,,612.0935502999928,612.1036565999966,612.1036565999966,618.3507201001048,return,6.2403702000156045,None,Fahrrad,[],[],[],[],[],[],[],,,,,,,,,,,,,,,,,,,2,2024-01-10_13h40.40.104,watkins1,2023.2.3,99.73231864768132,83,2024-01-10 13h41.04.132301 +0000,
,,,,,,,,,,,,,,,,,,,6,0,6,0,,,,,618.3623305000365,,,,,,,,,,,,,,,,Bürste,25.053760800044984,,,,,,,,,,,,22.243266800185665,None,,,,,,,,,,,,,freeRecallSub,2,,,,,,,,,,,,,,,,,,,,,,,,,,,,,,,,,,,,,618.3519799001515,618.3623305000365,618.3623305000365,643.4168442001101,return,25.053760800044984,None,Bürste,[],[],[],[],[],[],[],,,,,,,,,,,,,,,,,,,2,2024-01-10_13h40.40.104,watkins1,2023.2.3,99.73231864768132,83,2024-01-10 13h41.04.132301 +0000,
,,,,,,,,,,,,,,,,,,,7,0,7,0,,,,,643.4286440999713,,,,,,,,,,,,,,,,Brille,2.787323599914089,,,,,,,,,,,,0.5441191999707371,None,,,,,,,,,,,,,freeRecallSub,2,,,,,,,,,,,,,,,,,,,,,,,,,,,,,,,,,,,,,643.4180999000091,643.4286440999713,643.4286440999713,646.2220823001117,return,2.787323599914089,None,Brille,[],[],[],[],[],[],[],,,,,,,,,,,,,,,,,,,2,2024-01-10_13h40.40.104,watkins1,2023.2.3,99.73231864768132,83,2024-01-10 13h41.04.132301 +0000,
,,,,,,,,,,,,,,,,,,,8,0,8,0,,,,,646.2340580001473,,,,,,,,,,,,,,,,Stift,97.65406259987503,,,,,,,,,,,,94.02120779990219,None,,,,,,,,,,,,,freeRecallSub,2,,,,,,,,,,,,,,,,,,,,,,,,,,,,,,,,,,,,,646.2232976001687,646.2340580001473,646.2340580001473,743.8895350000821,return,97.65406259987503,None,Stift,[],[],[],[],[],[],[],,,,,,,,,,,,,,,,,,,2,2024-01-10_13h40.40.104,watkins1,2023.2.3,99.73231864768132,83,2024-01-10 13h41.04.132301 +0000,
,,,,,,,,,,,,,,,,,,,9,0,9,0,,,,,743.901745500043,,,,,,,,,,,,,,,,Kamera,7.2742870999500155,,,,,,,,,,,,4.782455900218338,None,,,,,,,,,,,,,freeRecallSub,2,,,,,,,,,,,,,,,,,,,,,,,,,,,,,,,,,,,,,743.8908090000041,743.901745500043,743.901745500043,751.1834888001904,return,7.2742870999500155,None,Kamera,[],[],[],[],[],[],[],,,,,,,,,,,,,,,,,,,2,2024-01-10_13h40.40.104,watkins1,2023.2.3,99.73231864768132,83,2024-01-10 13h41.04.132301 +0000,
,,,,,,,,,,,,,,,,,,,10,0,10,0,,,,,751.1954054001253,,,,,,,,,,,,,,,,Blume,11.844717199914157,,,,,,,,,,,,8.035067700082436,None,,,,,,,,,,,,,freeRecallSub,2,,,,,,,,,,,,,,,,,,,,,,,,,,,,,,,,,,,,,751.1847524000332,751.1954054001253,751.1954054001253,763.0457886999939,return,11.844717199914157,None,Blume,[],[],[],[],[],[],[],,,,,,,,,,,,,,,,,,,2,2024-01-10_13h40.40.104,watkins1,2023.2.3,99.73231864768132,83,2024-01-10 13h41.04.132301 +0000,
,,,,,,,,,,,,,,,,,,,11,0,11,0,,,,,763.0579189001583,,,,,,,,,,,,,,,,Geige,159.05421059997752,,,,,,,,,,,,157.33765110000968,None,,,,,,,,,,,,,freeRecallSub,2,,,,,,,,,,,,,,,,,,,,,,,,,,,,,,,,,,,,,763.0470482001547,763.0579189001583,763.0579189001583,922.1220129001886,return,159.05421059997752,None,Geige,[],[],[],[],[],[],[],,,,,,,,,,,,,,,,,,,2,2024-01-10_13h40.40.104,watkins1,2023.2.3,99.73231864768132,83,2024-01-10 13h41.04.132301 +0000,
,,,,,,,,,,,,,,,,,,,12,0,12,0,,,,,922.1352982001845,,,,,,,,,,,,,,,,Eimer,18.888998299837112,,,,,,,,,,,,16.000743699958548,None,,,,,,,,,,,,,freeRecallSub,2,,,,,,,,,,,,,,,,,,,,,,,,,,,,,,,,,,,,,922.1233127000742,922.1352982001845,922.1352982001845,941.02621609997,return,18.888998299837112,None,Eimer,[],[],[],[],[],[],[],,,,,,,,,,,,,,,,,,,2,2024-01-10_13h40.40.104,watkins1,2023.2.3,99.73231864768132,83,2024-01-10 13h41.04.132301 +0000,
,,,,,,,,,,,,,,,,,,,13,0,13,0,,,,,941.0388388000429,,,,,,,,,,,,,,,,Hammer,15.977336900075898,,,,,,,,,,,,13.409260200103745,None,,,,,,,,,,,,,freeRecallSub,2,,,,,,,,,,,,,,,,,,,,,,,,,,,,,,,,,,,,,941.0274528001901,941.0388388000429,941.0388388000429,957.017279200023,return,15.977336900075898,None,Hammer,[],[],[],[],[],[],[],,,,,,,,,,,,,,,,,,,2,2024-01-10_13h40.40.104,watkins1,2023.2.3,99.73231864768132,83,2024-01-10 13h41.04.132301 +0000,
,,,,,,,,,,,,,,,,,,,14,0,14,0,,,,,957.0301224000286,,,,,,,,,,,,,,,,Flasche,54.62615939998068,,,,,,,,,,,,52.15894699981436,None,,,,,,,,,,,,,freeRecallSub,2,,,,,,,,,,,,,,,,,,,,,,,,,,,,,,,,,,,,,957.0185218001716,957.0301224000286,957.0301224000286,1011.6579909999855,return,54.62615939998068,None,Flasche,[],[],[],[],[],[],[],,,,,,,,,,,,,,,,,,,2,2024-01-10_13h40.40.104,watkins1,2023.2.3,99.73231864768132,83,2024-01-10 13h41.04.132301 +0000,
,,,,,,,,,,,,,,,,,,,15,0,15,0,,,,,1011.6711015000474,,,,,,,,,,,,,,,,,[],,,,,,,,,,,,None,None,,,,,,,,,,,,,freeRecallSub,2,,,,,,,,,,,,,,,,,,,,,,,,,,,,,,,,,,,,,1011.659276700113,1011.6711015000474,1011.6711015000474,1091.436723300023,None,,,,[0.26666666666666666],[-0.3888888888888889],[1],[0],[0],[79.7719476998318],"['button_continue', 'continue_text']",,,,,,,,,,,,,,,,,,,2,2024-01-10_13h40.40.104,watkins1,2023.2.3,99.73231864768132,83,2024-01-10 13h41.04.132301 +0000,
,,,,,,,,,,,,,,,,,,,,,,,,,,,,,,,,,,,,,,,,,,,,,,,,,,,,,,,,,,,,,,,,,,,,,,,2,,,,,,,,,,,,,,,,,,,,,,,,,,,,,,,,,,,,,,,,,,,,,,,,,,,,,,,,,,,,,,,,,,,,,,2,2024-01-10_13h40.40.104,watkins1,2023.2.3,99.73231864768132,83,2024-01-10 13h41.04.132301 +0000,
,,,,,,,,,,,,,,,,,,,,,,,0,0,0,0,1095.7550282999873,,,,,,,,,,,,1110.512533399975,1111.0109586999752,,,,14.749362000031397,,,,,,,,,,,,None,None,,,,,,,,,,Lampe,,,cuedRecallAdj,2,,,,,,,,,,,,,,,,,,,,,,,,0,,,,,,,,,,,,,,,,,,,,,,,,,,,,1095.7458579000086,1095.7550282999873,1095.7550282999873,1110.5092712000478,durchsichtig,return,14.749362000031397,None,1110.5096635001246,1110.518846000079,1110.518846000079,1110.5123843001202,,None,,,,,2,2024-01-10_13h40.40.104,watkins1,2023.2.3,99.73231864768132,83,2024-01-10 13h41.04.132301 +0000,
,,,,,,,,,,,,,,,,,,,,,,,1,0,1,0,1111.0208848000038,,,,,,,,,,,,1116.0550508000888,1116.553819600027,,,,5.027563800103962,,,,,,,,,,,,None,None,,,,,,,,,,Trommel,,,cuedRecallAdj,2,,,,,,,,,,,,,,,,,,,,,,,,0,,,,,,,,,,,,,,,,,,,,,,,,,,,,1111.0112009001896,1111.0208848000038,1111.0208848000038,1116.052183000138,zart,return,5.027563800103962,None,1116.0524580001365,1116.0617203000002,1116.0617203000002,1116.054948600009,,None,,,,,2,2024-01-10_13h40.40.104,watkins1,2023.2.3,99.73231864768132,83,2024-01-10 13h41.04.132301 +0000,
,,,,,,,,,,,,,,,,,,,,,,,2,0,2,0,1116.5637593001593,,,,,,,,,,,,1139.774394000182,1140.2731338001322,,,,23.204632999841124,,,,,,,,,,,,None,None,,,,,,,,,,Kamera,,,cuedRecallAdj,2,,,,,,,,,,,,,,,,,,,,,,,,0,,,,,,,,,,,,,,,,,,,,,,,,,,,,1116.5540638000239,1116.5637593001593,1116.5637593001593,1139.7715404999908,groß,return,23.204632999841124,None,1139.7718048000243,1139.7810488999821,1139.7810488999821,1139.7742932999972,,None,,,,,2,2024-01-10_13h40.40.104,watkins1,2023.2.3,99.73231864768132,83,2024-01-10 13h41.04.132301 +0000,
,,,,,,,,,,,,,,,,,,,,,,,3,0,3,0,1140.2830804002006,,,,,,,,,,,,1150.7803816001397,1151.2784437001683,,,,10.493535199901089,,,,,,,,,,,,None,None,,,,,,,,,,Stift,,,cuedRecallAdj,2,,,,,,,,,,,,,,,,,,,,,,,,0,,,,,,,,,,,,,,,,,,,,,,,,,,,,1140.2733807000332,1140.2830804002006,1140.2830804002006,1150.7771900000516,flauschig,return,10.493535199901089,None,1150.7774766001385,1150.786312900018,1150.786312900018,1150.7802807001863,,None,,,,,2,2024-01-10_13h40.40.104,watkins1,2023.2.3,99.73231864768132,83,2024-01-10 13h41.04.132301 +0000,
,,,,,,,,,,,,,,,,,,,,,,,4,0,4,0,1151.2883540000767,,,,,,,,,,,,1170.8928313001525,1171.3915533002,,,,19.592045800061896,,,,,,,,,,,,None,None,,,,,,,,,,Kiste,,,cuedRecallAdj,2,,,,,,,,,,,,,,,,,,,,,,,,0,,,,,,,,,,,,,,,,,,,,,,,,,,,,1151.2786856000312,1151.2883540000767,1151.2883540000767,1170.8897514999844,rustikal,return,19.592045800061896,None,1170.8900115001015,1170.8994469000027,1170.8994469000027,1170.892733399989,,None,,,,,2,2024-01-10_13h40.40.104,watkins1,2023.2.3,99.73231864768132,83,2024-01-10 13h41.04.132301 +0000,
,,,,,,,,,,,,,,,,,,,,,,,5,0,5,0,1171.40150919999,,,,,,,,,,,,1175.8734423001297,1176.3720484001096,,,,4.4629828000906855,,,,,,,,,,,,None,None,,,,,,,,,,Würfel,,,cuedRecallAdj,2,,,,,,,,,,,,,,,,,,,,,,,,0,,,,,,,,,,,,,,,,,,,,,,,,,,,,1171.3917986000888,1171.40150919999,1171.40150919999,1175.870380999986,verspielt,return,4.4629828000906855,None,1175.8706464001443,1175.8799235001206,1175.8799235001206,1175.8733418001793,,None,,,,,2,2024-01-10_13h40.40.104,watkins1,2023.2.3,99.73231864768132,83,2024-01-10 13h41.04.132301 +0000,
,,,,,,,,,,,,,,,,,,,,,,,6,0,6,0,1176.3820085001644,,,,,,,,,,,,1187.3508858999703,1187.8493066001683,,,,10.962364600040019,,,,,,,,,,,,None,None,,,,,,,,,,Telefon,,,cuedRecallAdj,2,,,,,,,,,,,,,,,,,,,,,,,,0,,,,,,,,,,,,,,,,,,,,,,,,,,,,1176.3722861001734,1176.3820085001644,1176.3820085001644,1187.347741900012,durchsichtig,return,10.962364600040019,None,1187.348006900167,1187.3572786999866,1187.3572786999866,1187.3507856000215,,None,,,,,2,2024-01-10_13h40.40.104,watkins1,2023.2.3,99.73231864768132,83,2024-01-10 13h41.04.132301 +0000,
,,,,,,,,,,,,,,,,,,,,,,,7,0,7,0,1187.859353300184,,,,,,,,,,,,1200.023470400134,1200.521773000015,,,,12.157037199940532,,,,,,,,,,,,None,None,,,,,,,,,,Bürste,,,cuedRecallAdj,2,,,,,,,,,,,,,,,,,,,,,,,,0,,,,,,,,,,,,,,,,,,,,,,,,,,,,1187.849550300045,1187.859353300184,1187.859353300184,1200.0201354001183,nachhaltig,return,12.157037199940532,None,1200.020390999969,1200.029672600096,1200.029672600096,1200.0233724999707,,None,,,,,2,2024-01-10_13h40.40.104,watkins1,2023.2.3,99.73231864768132,83,2024-01-10 13h41.04.132301 +0000,
,,,,,,,,,,,,,,,,,,,,,,,8,0,8,0,1200.5317254001275,,,,,,,,,,,,1210.1643493000884,1210.6536112001631,,,,9.628682399867103,,,,,,,,,,,,None,None,,,,,,,,,,Schlüssel,,,cuedRecallAdj,2,,,,,,,,,,,,,,,,,,,,,,,,0,,,,,,,,,,,,,,,,,,,,,,,,,,,,1200.5220129999798,1200.5317254001275,1200.5317254001275,1210.1619705001358,,return,9.628682399867103,None,1210.1622266001068,1210.1714786000084,1210.1714786000084,1210.1642502001487,,None,,,,,2,2024-01-10_13h40.40.104,watkins1,2023.2.3,99.73231864768132,83,2024-01-10 13h41.04.132301 +0000,
,,,,,,,,,,,,,,,,,,,,,,,9,0,9,0,1210.6635646000504,,,,,,,,,,,,1216.9726967001334,1217.4718754000496,,,,6.296877699904144,,,,,,,,,,,,None,None,,,,,,,,,,Uhr,,,cuedRecallAdj,2,,,,,,,,,,,,,,,,,,,,,,,,0,,,,,,,,,,,,,,,,,,,,,,,,,,,,1210.6538590001874,1210.6635646000504,1210.6635646000504,1216.9700498001184,alt,return,6.296877699904144,None,1216.9703136000317,1216.9798008999787,1216.9798008999787,1216.9725961000659,,None,,,,,2,2024-01-10_13h40.40.104,watkins1,2023.2.3,99.73231864768132,83,2024-01-10 13h41.04.132301 +0000,
,,,,,,,,,,,,,,,,,,,,,,,10,0,10,0,1217.4818283000495,,,,,,,,,,,,1220.8794619000982,1221.3780577001162,,,,3.3906834998633713,,,,,,,,,,,,None,None,,,,,,,,,,Hammer,,,cuedRecallAdj,2,,,,,,,,,,,,,,,,,,,,,,,,0,,,,,,,,,,,,,,,,,,,,,,,,,,,,1217.4721151001286,1217.4818283000495,1217.4818283000495,1220.8763539001811,biegsam,return,3.3906834998633713,None,1220.876615300076,1220.8858611001633,1220.8858611001633,1220.879363300046,,None,,,,,2,2024-01-10_13h40.40.104,watkins1,2023.2.3,99.73231864768132,83,2024-01-10 13h41.04.132301 +0000,
,,,,,,,,,,,,,,,,,,,,,,,11,0,11,0,1221.3880086999852,,,,,,,,,,,,1223.6203348001,1224.1193252000958,,,,2.2204863999504596,,,,,,,,,,,,None,None,,,,,,,,,,Tasse,,,cuedRecallAdj,2,,,,,,,,,,,,,,,,,,,,,,,,0,,,,,,,,,,,,,,,,,,,,,,,,,,,,1221.3782978001982,1221.3880086999852,1221.3880086999852,1223.6175018001813,matt,return,2.2204863999504596,None,1223.61777110002,1223.627248100005,1223.627248100005,1223.6202316000126,,None,,,,,2,2024-01-10_13h40.40.104,watkins1,2023.2.3,99.73231864768132,83,2024-01-10 13h41.04.132301 +0000,
,,,,,,,,,,,,,,,,,,,,,,,12,0,12,0,1224.129241200164,,,,,,,,,,,,1228.3098188000731,1228.8085304000415,,,,4.17522419989109,,,,,,,,,,,,None,None,,,,,,,,,,Kette,,,cuedRecallAdj,2,,,,,,,,,,,,,,,,,,,,,,,,0,,,,,,,,,,,,,,,,,,,,,,,,,,,,1224.119564200053,1224.129241200164,1224.129241200164,1228.3068483001553,praktisch,return,4.17522419989109,None,1228.3071094001643,1228.3164159001317,1228.3164159001317,1228.3097201001365,,None,,,,,2,2024-01-10_13h40.40.104,watkins1,2023.2.3,99.73231864768132,83,2024-01-10 13h41.04.132301 +0000,
,,,,,,,,,,,,,,,,,,,,,,,13,0,13,0,1228.8184766999912,,,,,,,,,,,,1233.1699414001778,1233.6684295001905,,,,4.3421102000866085,,,,,,,,,,,,None,None,,,,,,,,,,Brille,,,cuedRecallAdj,2,,,,,,,,,,,,,,,,,,,,,,,,0,,,,,,,,,,,,,,,,,,,,,,,,,,,,1228.8087775001768,1228.8184766999912,1228.8184766999912,1233.1667889000382,robust,return,4.3421102000866085,None,1233.1670528000686,1233.176349400077,1233.176349400077,1233.1698406001087,,None,,,,,2,2024-01-10_13h40.40.104,watkins1,2023.2.3,99.73231864768132,83,2024-01-10 13h41.04.132301 +0000,
,,,,,,,,,,,,,,,,,,,,,,,14,0,14,0,1233.678431800101,,,,,,,,,,,,1244.9582823000383,1245.4571026000194,,,,11.274116200162098,,,,,,,,,,,,None,None,,,,,,,,,,Hut,,,cuedRecallAdj,2,,,,,,,,,,,,,,,,,,,,,,,,0,,,,,,,,,,,,,,,,,,,,,,,,,,,,1233.6686772000976,1233.678431800101,1233.678431800101,1244.9554220000282,hübsch,return,11.274116200162098,None,1244.9556882001925,1244.9649313001428,1244.9649313001428,1244.9581820000894,,None,,,,,2,2024-01-10_13h40.40.104,watkins1,2023.2.3,99.73231864768132,83,2024-01-10 13h41.04.132301 +0000,
,,,,,,,,,,,,,,,,,,,,,,,15,0,15,0,1245.467069900129,,,,,,,,,,,,1248.4125140001997,1248.911374000134,,,,2.9333756000269204,,,,,,,,,,,,None,None,,,,,,,,,,Geige,,,cuedRecallAdj,2,,,,,,,,,,,,,,,,,,,,,,,,0,,,,,,,,,,,,,,,,,,,,,,,,,,,,1245.4573462000117,1245.467069900129,1245.467069900129,1248.4095591001678,kaputt,return,2.9333756000269204,None,1248.409826300107,1248.4192840000615,1248.4192840000615,1248.4124120001215,,None,,,,,2,2024-01-10_13h40.40.104,watkins1,2023.2.3,99.73231864768132,83,2024-01-10 13h41.04.132301 +0000,
,,,,,,,,,,,,,,,,,,,,,,,16,0,16,0,1248.9213205999695,,,,,,,,,,,,1251.987798599992,1252.4866139001679,,,,3.0552606999408454,,,,,,,,,,,,None,None,,,,,,,,,,Rucksack,,,cuedRecallAdj,2,,,,,,,,,,,,,,,,,,,,,,,,0,,,,,,,,,,,,,,,,,,,,,,,,,,,,1248.9116178001277,1248.9213205999695,1248.9213205999695,1251.9848097001668,elegant,return,3.0552606999408454,None,1251.9850687000435,1251.9945094001014,1251.9945094001014,1251.9877012001816,,None,,,,,2,2024-01-10_13h40.40.104,watkins1,2023.2.3,99.73231864768132,83,2024-01-10 13h41.04.132301 +0000,
,,,,,,,,,,,,,,,,,,,,,,,17,0,17,0,1252.496545900125,,,,,,,,,,,,1254.5180089001078,1255.0170615001116,,,,2.015919500030577,,,,,,,,,,,,None,None,,,,,,,,,,Eimer,,,cuedRecallAdj,2,,,,,,,,,,,,,,,,,,,,,,,,0,,,,,,,,,,,,,,,,,,,,,,,,,,,,1252.4868522000033,1252.496545900125,1252.496545900125,1254.5152447000146,nass,return,2.015919500030577,None,1254.5155154999811,1254.524827599991,1254.524827599991,1254.5179102001712,,None,,,,,2,2024-01-10_13h40.40.104,watkins1,2023.2.3,99.73231864768132,83,2024-01-10 13h41.04.132301 +0000,
,,,,,,,,,,,,,,,,,,,,,,,18,0,18,0,1255.0270102000795,,,,,,,,,,,,1265.6351433000527,1266.1335628000088,,,,10.597612299956381,,,,,,,,,,,,None,None,,,,,,,,,,Flasche,,,cuedRecallAdj,2,,,,,,,,,,,,,,,,,,,,,,,,0,,,,,,,,,,,,,,,,,,,,,,,,,,,,1255.0173145001754,1255.0270102000795,1255.0270102000795,1265.6319063000847,dunkel,return,10.597612299956381,None,1265.6321734001394,1265.6414044999983,1265.6414044999983,1265.6350420000963,,None,,,,,2,2024-01-10_13h40.40.104,watkins1,2023.2.3,99.73231864768132,83,2024-01-10 13h41.04.132301 +0000,
,,,,,,,,,,,,,,,,,,,,,,,19,0,19,0,1266.1434989001136,,,,,,,,,,,,1270.0926179001108,1270.5820518999826,,,,3.945099800126627,,,,,,,,,,,,None,None,,,,,,,,,,Jacke,,,cuedRecallAdj,2,,,,,,,,,,,,,,,,,,,,,,,,0,,,,,,,,,,,,,,,,,,,,,,,,,,,,1266.1338025000878,1266.1434989001136,1266.1434989001136,1270.090406600153,,return,3.945099800126627,None,1270.0906706000678,1270.0999048000667,1270.0999048000667,1270.0925169000402,,None,,,,,2,2024-01-10_13h40.40.104,watkins1,2023.2.3,99.73231864768132,83,2024-01-10 13h41.04.132301 +0000,
,,,,,,,,,,,,,,,,,,,,,,,20,0,20,0,1270.592008800013,,,,,,,,,,,,1274.4510165001266,1274.9498116001487,,,,3.8485071000177413,,,,,,,,,,,,None,None,,,,,,,,,,Socke,,,cuedRecallAdj,2,,,,,,,,,,,,,,,,,,,,,,,,0,,,,,,,,,,,,,,,,,,,,,,,,,,,,1270.582295600092,1270.592008800013,1270.592008800013,1274.4481328001712,winzig,return,3.8485071000177413,None,1274.4483935001772,1274.457843300188,1274.457843300188,1274.4509164001793,,None,,,,,2,2024-01-10_13h40.40.104,watkins1,2023.2.3,99.73231864768132,83,2024-01-10 13h41.04.132301 +0000,
,,,,,,,,,,,,,,,,,,,,,,,21,0,21,0,1274.9598893001676,,,,,,,,,,,,1281.8410200001672,1282.330636800034,,,,6.87272770004347,,,,,,,,,,,,None,None,,,,,,,,,,Vase,,,cuedRecallAdj,2,,,,,,,,,,,,,,,,,,,,,,,,0,,,,,,,,,,,,,,,,,,,,,,,,,,,,1274.9500569000375,1274.9598893001676,1274.9598893001676,1281.8389316000976,,return,6.87272770004347,None,1281.8391929001082,1281.8484432999976,1281.8484432999976,1281.8409204001073,,None,,,,,2,2024-01-10_13h40.40.104,watkins1,2023.2.3,99.73231864768132,83,2024-01-10 13h41.04.132301 +0000,
,,,,,,,,,,,,,,,,,,,,,,,22,0,22,0,1282.34057830018,,,,,,,,,,,,1285.6362118001562,1286.1262019001879,,,,3.2839095999952406,,,,,,,,,,,,None,None,,,,,,,,,,Buch,,,cuedRecallAdj,2,,,,,,,,,,,,,,,,,,,,,,,,0,,,,,,,,,,,,,,,,,,,,,,,,,,,,1282.330877700122,1282.34057830018,1282.34057830018,1285.6344529001508,,return,3.2839095999952406,None,1285.6347173000686,1285.6442238001619,1285.6442238001619,1285.6361104000825,,None,,,,,2,2024-01-10_13h40.40.104,watkins1,2023.2.3,99.73231864768132,83,2024-01-10 13h41.04.132301 +0000,
,,,,,,,,,,,,,,,,,,,,,,,23,0,23,0,1286.1362153000664,,,,,,,,,,,,1289.4935926999897,1289.9922729001846,,,,3.3523407999891788,,,,,,,,,,,,None,None,,,,,,,,,,Löffel,,,cuedRecallAdj,2,,,,,,,,,,,,,,,,,,,,,,,,0,,,,,,,,,,,,,,,,,,,,,,,,,,,,1286.1264403001405,1286.1362153000664,1286.1362153000664,1289.4905880000442,hohl,return,3.3523407999891788,None,1289.4908518001903,1289.5001803000923,1289.5001803000923,1289.4934911001474,,None,,,,,2,2024-01-10_13h40.40.104,watkins1,2023.2.3,99.73231864768132,83,2024-01-10 13h41.04.132301 +0000,
,,,,,,,,,,,,,,,,,,,,,,,24,0,24,0,1290.0021868001204,,,,,,,,,,,,1293.7406538000796,1294.230121599976,,,,3.734229600057006,,,,,,,,,,,,None,None,,,,,,,,,,Tasche,,,cuedRecallAdj,2,,,,,,,,,,,,,,,,,,,,,,,,0,,,,,,,,,,,,,,,,,,,,,,,,,,,,1289.9925123001449,1290.0021868001204,1290.0021868001204,1293.7384015000425,,return,3.734229600057006,None,1293.7386661001947,1293.7479102001525,1293.7479102001525,1293.7405526000075,,None,,,,,2,2024-01-10_13h40.40.104,watkins1,2023.2.3,99.73231864768132,83,2024-01-10 13h41.04.132301 +0000,
,,,,,,,,,,,,,,,,,,,,,,,25,0,25,0,1294.240176100051,,,,,,,,,,,,1299.053427300183,1299.5520564001054,,,,4.808306300081313,,,,,,,,,,,,None,None,,,,,,,,,,Fahrrad,,,cuedRecallAdj,2,,,,,,,,,,,,,,,,,,,,,,,,0,,,,,,,,,,,,,,,,,,,,,,,,,,,,1294.230364800198,1294.240176100051,1294.240176100051,1299.0503879999742,glänzend,return,4.808306300081313,None,1299.0506531000137,1299.059926800197,1299.059926800197,1299.0533239000943,,None,,,,,2,2024-01-10_13h40.40.104,watkins1,2023.2.3,99.73231864768132,83,2024-01-10 13h41.04.132301 +0000,
,,,,,,,,,,,,,,,,,,,,,,,26,0,26,0,1299.5619771999773,,,,,,,,,,,,1304.2547448000405,1304.744149000151,,,,4.686523400014266,,,,,,,,,,,,None,None,,,,,,,,,,Blume,,,cuedRecallAdj,2,,,,,,,,,,,,,,,,,,,,,,,,0,,,,,,,,,,,,,,,,,,,,,,,,,,,,1299.5523006001022,1299.5619771999773,1299.5619771999773,1304.2525818001013,,return,4.686523400014266,None,1304.25283890008,1304.262120099971,1304.262120099971,1304.2546465999912,,None,,,,,2,2024-01-10_13h40.40.104,watkins1,2023.2.3,99.73231864768132,83,2024-01-10 13h41.04.132301 +0000,
,,,,,,,,,,,,,,,,,,,,,,,27,0,27,0,1304.7541028000414,,,,,,,,,,,,1307.307854600018,1307.7974938000552,,,,2.5423868000507355,,,,,,,,,,,,None,None,,,,,,,,,,Kerze,,,cuedRecallAdj,2,,,,,,,,,,,,,,,,,,,,,,,,0,,,,,,,,,,,,,,,,,,,,,,,,,,,,1304.7443920001388,1304.7541028000414,1304.7541028000414,1307.3050300001632,neu,return,2.5423868000507355,None,1307.3052954000887,1307.3147630000021,1307.3147630000021,1307.3077521000523,,None,,,,,2,2024-01-10_13h40.40.104,watkins1,2023.2.3,99.73231864768132,83,2024-01-10 13h41.04.132301 +0000,
,,,,,,,,,,,,,,,,,,,,,,,28,0,28,0,1307.8074704001192,,,,,,,,,,,,1310.220832000021,1310.7197277001105,,,,2.4010220000054687,,,,,,,,,,,,None,None,,,,,,,,,,Ring,,,cuedRecallAdj,2,,,,,,,,,,,,,,,,,,,,,,,,0,,,,,,,,,,,,,,,,,,,,,,,,,,,,1307.7977423002012,1307.8074704001192,1307.8074704001192,1310.2178090000525,glatt,return,2.4010220000054687,None,1310.2180692001712,1310.2275561999995,1310.2275561999995,1310.220730900066,,None,,,,,2,2024-01-10_13h40.40.104,watkins1,2023.2.3,99.73231864768132,83,2024-01-10 13h41.04.132301 +0000,
,,,,,,,,,,,,,,,,,,,,,,,29,0,29,0,1310.7306368001737,,,,,,,,,,,,1314.9395610999782,1315.438891600119,,,,4.205991000169888,,,,,,,,,,,,None,None,,,,,,,,,,Schere,,,cuedRecallAdj,2,,,,,,,,,,,,,,,,,,,,,,,,0,,,,,,,,,,,,,,,,,,,,,,,,,,,,1310.719999999972,1310.7306368001737,1310.7306368001737,1314.9373739000876,,return,4.205991000169888,None,1314.9376322000753,1314.9471722000744,1314.9471722000744,1314.9394621001557,,None,,,,,2,2024-01-10_13h40.40.104,watkins1,2023.2.3,99.73231864768132,83,2024-01-10 13h41.04.132301 +0000,
,,,,,,,,,,,,,,,,,,,,,,,,,,,,,,,,,,,,,,,,,,,,,,,,,,,,,,,,,,,,,,,,,,,,,,,2,,,,,,,,,,,,,,,,,,,,,,,,,,,,,,,,,,,,,,,,,,,,,,,,,,,,,,,,,,,,,,,,,,1315.4555668001994,q,3963.3400111999363,None,2,2024-01-10_13h40.40.104,watkins1,2023.2.3,99.73231864768132,83,2024-01-10 13h41.04.132301 +0000,
