Equation,CorrectResponse,Correctbutton,trials_7.thisRepN,trials_7.thisTrialN,trials_7.thisN,trials_7.thisIndex,trials.thisRepN,trials.thisTrialN,trials.thisN,trials.thisIndex,trials_3.thisRepN,trials_3.thisTrialN,trials_3.thisN,trials_3.thisIndex,trials_2.thisRepN,trials_2.thisTrialN,trials_2.thisN,trials_2.thisIndex,trials_4.thisRepN,trials_4.thisTrialN,trials_4.thisN,trials_4.thisIndex,trials_5.thisRepN,trials_5.thisTrialN,trials_5.thisN,trials_5.thisIndex,thisRow.t,notes,list_sub_restudy,list_sub_testsub,code_marius.started,code_marius.stopped,welcome.started,welcome.stopped,instruction_study.started,instruction_study.stopped,fixationcross.started,fixationcross.stopped,blanc.started,blanc.stopped,study_control_probe.started,study_control_probe.stopped,responseKey,responseTime,scale_answer_2.keys,study_control_probe_2.started,study_control_probe_2.stopped,scale_answer_3.keys,scale_answer_3.rt,scale_answer_3.duration,blanc_2.started,blanc_2.stopped,test_attr_probe.started,test_attr_probe.stopped,recalled_attr,firstKeyTime,secondWordTime,blanc_3.started,blanc_3.stopped,test_sub_probe.started,test_sub_probe.stopped,recalled_sub,instruction_probe_end.started,instruction_probe_end.stopped,study.started,study.stopped,substantive,adjective,wordpair,task,condition,liste_sub_phase1,liste_adj_phase1,scale_answer.keys,scale_answer.rt,scale_answer.duration,code_defineWordsInit.started,code_defineWordsInit.stopped,liste_sub_phase2,study_control.started,study_control.stopped,scale_answer_4.keys,restudy_same.started,restudy_same.stopped,scale_answer_5.keys,restudy_different.started,restudy_different.stopped,scale_answer_6.keys,test_attr.started,test_attr.stopped,test_sub.started,test_sub.stopped,correct,scale_answer_5.rt,scale_answer_5.duration,distractortask.started,equation_text.started,distractortask.stopped,mouse_answer.x,mouse_answer.y,mouse_answer.leftButton,mouse_answer.midButton,mouse_answer.rightButton,mouse_answer.time,mouse_answer.clicked_name,feedback_distractortask.started,feedback_distractortask.stopped,free_recall.started,text_enter.started,key_resp.started,free_recall.stopped,key_resp.keys,key_resp.rt,key_resp.duration,free_recalled_sub,mouse_continue.x,mouse_continue.y,mouse_continue.leftButton,mouse_continue.midButton,mouse_continue.rightButton,mouse_continue.time,mouse_continue.clicked_name,cued_recall.started,text_enter_2.started,key_continue.started,cued_recall.stopped,recalled_attr1,key_continue.keys,key_continue.rt,key_continue.duration,cued_recall_2.started,text_enter_3.started,key_continue_2.started,cued_recall_2.stopped,recalled_attr2,key_continue_2.keys,key_resp_8.started,key_resp_8.keys,key_resp_8.rt,key_resp_8.duration,condition,date,expName,psychopyVersion,frameRate,participant,expStart,
,,,,,,,,,,,,,,,,,,,,,,,,,,,,,"['Lampe', 'Tasche', 'Buch', 'Socke', 'Kiste', 'Jacke', 'Blume', 'Fahrrad', 'Eimer', 'Rucksack', 'Tasse', 'Geige', 'Flasche', 'Schere', 'Telefon']","['Ring', 'Kerze', 'Stift', 'Hammer', 'Bürste', 'Löffel', 'Schlüssel', 'Hut', 'Vase', 'Uhr', 'Kette', 'Würfel', 'Brille', 'Trommel', 'Kamera']",0.11242059990763664,0.11249209998641163,0.1125005999347195,13.45251869992353,,,,,,,,,,,,,,,,,,,,,,,,,,,,,,,,,,,,,2,,,,,,,,,,,,,,,,,,,,,,,,,,,,,,,,,,,,,,,,,,,,,,,,,,,,,,,,,,,,,,,,,,,,,,2,2023-11-22_13h03.28.318,watkins1,2023.2.3,99.82122025094071,5,2023-11-22 13h03.39.890667 +0000,
,,,,,,,,,,,,,,,,,,,,,,,,,,,,,,,,,,,13.452567599946633,75.68779549992178,,,,,,,,,,,,,,,,,,,,,,,,,,,,,,,,,,,2,,,,,,,,,,,,,,,,,,,,,,,,,,,,,,,,,,,,,,,,,,,,,,,,,,,,,,,,,,,,,,,,,,,,,,2,2023-11-22_13h03.28.318,watkins1,2023.2.3,99.82122025094071,5,2023-11-22 13h03.39.890667 +0000,
,,,0,0,0,0,,,,,,,,,,,,,,,,,,,,,76.70137249992695,,,,,,,,,,75.68781389994547,76.69143929996062,83.19382439996116,83.68504719994962,77.18343689991161,83.19365589995869,2,3.300847200094722,None,83.68505799991544,89.68811379990075,2,3.300847200094722,None,89.68840529990848,89.68842909997329,89.68843659991398,89.6885172999464,,2.319460800033994,None,89.68867859989405,90.17968579998706,90.17969739995897,96.1845659998944,Hund,,,,,,,,,2,,,,,,,,,,,,,,,,,,,,,,,,,,,,,,,,,,,,,,,,,,,,,,,,,,,,,,,,,,,,,,,,,,,,,,2,2023-11-22_13h03.28.318,watkins1,2023.2.3,99.82122025094071,5,2023-11-22 13h03.39.890667 +0000,
,,,,,,,,,,,,,,,,,,,,,,,,,,,,,,,,,,,,,,,,,,,,,,,,,,,,,,,,,,,,,,,96.18472189991735,102.79249069991056,,,,,,,2,,,,,,,,,,,,,,,,,,,,,,,,,,,,,,,,,,,,,,,,,,,,,,,,,,,,,,,,,,,,,,,,,,,,,,2,2023-11-22_13h03.28.318,watkins1,2023.2.3,99.82122025094071,5,2023-11-22 13h03.39.890667 +0000,
,,,,,,,0,0,0,0,,,,,,,,,,,,,,,,,103.80616969999392,,,,,,,,,,102.79250829992816,103.79607639997266,103.79653049993794,104.28819899994414,,,1,2.4773367000743747,,,,,,,,,,,,,,,,,,,,,104.2882096999092,110.29044079990126,Socke,glatt,"['Socke', 'glatt']",restudy,2,"['Socke', 'Schere', 'Trommel', 'Kerze', 'Flasche', 'Buch', 'Lampe', 'Löffel', 'Ring', 'Rucksack', 'Telefon', 'Tasche', 'Würfel', 'Bürste', 'Uhr', 'Fahrrad', 'Hammer', 'Jacke', 'Vase', 'Eimer', 'Hut', 'Schlüssel', 'Stift', 'Kamera', 'Brille', 'Geige', 'Tasse', 'Kette', 'Blume', 'Kiste']",['glatt'],1,2.4773367000743747,None,,,,,,,,,,,,,,,,,,,,,,,,,,,,,,,,,,,,,,,,,,,,,,,,,,,,,,,,,,,,,,,,,2,2023-11-22_13h03.28.318,watkins1,2023.2.3,99.82122025094071,5,2023-11-22 13h03.39.890667 +0000,
,,,,,,,1,0,1,0,,,,,,,,,,,,,,,,,110.29987519991118,,,,,,,,,,,,110.29108799993992,110.78180719993543,,,3,2.9697630999144167,,,,,,,,,,,,,,,,,,,,,110.78181749989744,116.78466449992266,Schere,klobig,"['Schere', 'klobig']",restudy,2,"['Socke', 'Schere', 'Trommel', 'Kerze', 'Flasche', 'Buch', 'Lampe', 'Löffel', 'Ring', 'Rucksack', 'Telefon', 'Tasche', 'Würfel', 'Bürste', 'Uhr', 'Fahrrad', 'Hammer', 'Jacke', 'Vase', 'Eimer', 'Hut', 'Schlüssel', 'Stift', 'Kamera', 'Brille', 'Geige', 'Tasse', 'Kette', 'Blume', 'Kiste']","['glatt', 'klobig']",3,2.9697630999144167,None,,,,,,,,,,,,,,,,,,,,,,,,,,,,,,,,,,,,,,,,,,,,,,,,,,,,,,,,,,,,,,,,,2,2023-11-22_13h03.28.318,watkins1,2023.2.3,99.82122025094071,5,2023-11-22 13h03.39.890667 +0000,
,,,,,,,2,0,2,0,,,,,,,,,,,,,,,,,116.79414289991837,,,,,,,,,,,,116.78518799995072,117.27620639989618,,,3,3.6020131000550464,,,,,,,,,,,,,,,,,,,,,117.2762169999769,123.28152550000232,Trommel,glänzend,"['Trommel', 'glänzend']",test_sub,2,"['Socke', 'Schere', 'Trommel', 'Kerze', 'Flasche', 'Buch', 'Lampe', 'Löffel', 'Ring', 'Rucksack', 'Telefon', 'Tasche', 'Würfel', 'Bürste', 'Uhr', 'Fahrrad', 'Hammer', 'Jacke', 'Vase', 'Eimer', 'Hut', 'Schlüssel', 'Stift', 'Kamera', 'Brille', 'Geige', 'Tasse', 'Kette', 'Blume', 'Kiste']","['glatt', 'klobig', 'glänzend']",3,3.6020131000550464,None,,,,,,,,,,,,,,,,,,,,,,,,,,,,,,,,,,,,,,,,,,,,,,,,,,,,,,,,,,,,,,,,,2,2023-11-22_13h03.28.318,watkins1,2023.2.3,99.82122025094071,5,2023-11-22 13h03.39.890667 +0000,
,,,,,,,3,0,3,0,,,,,,,,,,,,,,,,,123.2909129000036,,,,,,,,,,,,123.28205179993529,123.77302729990333,,,2,2.954018299933523,,,,,,,,,,,,,,,,,,,,,123.77303789998405,129.77447259996552,Kerze,biegsam,"['Kerze', 'biegsam']",test_sub,2,"['Socke', 'Schere', 'Trommel', 'Kerze', 'Flasche', 'Buch', 'Lampe', 'Löffel', 'Ring', 'Rucksack', 'Telefon', 'Tasche', 'Würfel', 'Bürste', 'Uhr', 'Fahrrad', 'Hammer', 'Jacke', 'Vase', 'Eimer', 'Hut', 'Schlüssel', 'Stift', 'Kamera', 'Brille', 'Geige', 'Tasse', 'Kette', 'Blume', 'Kiste']","['glatt', 'klobig', 'glänzend', 'biegsam']",2,2.954018299933523,None,,,,,,,,,,,,,,,,,,,,,,,,,,,,,,,,,,,,,,,,,,,,,,,,,,,,,,,,,,,,,,,,,2,2023-11-22_13h03.28.318,watkins1,2023.2.3,99.82122025094071,5,2023-11-22 13h03.39.890667 +0000,
,,,,,,,4,0,4,0,,,,,,,,,,,,,,,,,129.78390809998382,,,,,,,,,,,,129.77500139991753,130.26599999994505,,,1,2.109508200082928,,,,,,,,,,,,,,,,,,,,,130.26601039990783,136.26701289997436,Flasche,kratzig,"['Flasche', 'kratzig']",restudy,2,"['Socke', 'Schere', 'Trommel', 'Kerze', 'Flasche', 'Buch', 'Lampe', 'Löffel', 'Ring', 'Rucksack', 'Telefon', 'Tasche', 'Würfel', 'Bürste', 'Uhr', 'Fahrrad', 'Hammer', 'Jacke', 'Vase', 'Eimer', 'Hut', 'Schlüssel', 'Stift', 'Kamera', 'Brille', 'Geige', 'Tasse', 'Kette', 'Blume', 'Kiste']","['glatt', 'klobig', 'glänzend', 'biegsam', 'kratzig']",1,2.109508200082928,None,,,,,,,,,,,,,,,,,,,,,,,,,,,,,,,,,,,,,,,,,,,,,,,,,,,,,,,,,,,,,,,,,2,2023-11-22_13h03.28.318,watkins1,2023.2.3,99.82122025094071,5,2023-11-22 13h03.39.890667 +0000,
,,,,,,,5,0,5,0,,,,,,,,,,,,,,,,,136.2764518999029,,,,,,,,,,,,136.2675371998921,136.75848279998172,,,2,2.7606057999655604,,,,,,,,,,,,,,,,,,,,,136.75849359994754,142.76789669995196,Buch,kaputt,"['Buch', 'kaputt']",restudy,2,"['Socke', 'Schere', 'Trommel', 'Kerze', 'Flasche', 'Buch', 'Lampe', 'Löffel', 'Ring', 'Rucksack', 'Telefon', 'Tasche', 'Würfel', 'Bürste', 'Uhr', 'Fahrrad', 'Hammer', 'Jacke', 'Vase', 'Eimer', 'Hut', 'Schlüssel', 'Stift', 'Kamera', 'Brille', 'Geige', 'Tasse', 'Kette', 'Blume', 'Kiste']","['glatt', 'klobig', 'glänzend', 'biegsam', 'kratzig', 'kaputt']",2,2.7606057999655604,None,,,,,,,,,,,,,,,,,,,,,,,,,,,,,,,,,,,,,,,,,,,,,,,,,,,,,,,,,,,,,,,,,2,2023-11-22_13h03.28.318,watkins1,2023.2.3,99.82122025094071,5,2023-11-22 13h03.39.890667 +0000,
,,,,,,,6,0,6,0,,,,,,,,,,,,,,,,,142.77733630000148,,,,,,,,,,,,142.76842529990245,143.25946689990815,,,2,4.795930000022054,,,,,,,,,,,,,,,,,,,,,143.25947749998886,149.26137789990753,Lampe,rustikal,"['Lampe', 'rustikal']",restudy,2,"['Socke', 'Schere', 'Trommel', 'Kerze', 'Flasche', 'Buch', 'Lampe', 'Löffel', 'Ring', 'Rucksack', 'Telefon', 'Tasche', 'Würfel', 'Bürste', 'Uhr', 'Fahrrad', 'Hammer', 'Jacke', 'Vase', 'Eimer', 'Hut', 'Schlüssel', 'Stift', 'Kamera', 'Brille', 'Geige', 'Tasse', 'Kette', 'Blume', 'Kiste']","['glatt', 'klobig', 'glänzend', 'biegsam', 'kratzig', 'kaputt', 'rustikal']",2,4.795930000022054,None,,,,,,,,,,,,,,,,,,,,,,,,,,,,,,,,,,,,,,,,,,,,,,,,,,,,,,,,,,,,,,,,,2,2023-11-22_13h03.28.318,watkins1,2023.2.3,99.82122025094071,5,2023-11-22 13h03.39.890667 +0000,
,,,,,,,7,0,7,0,,,,,,,,,,,,,,,,,149.27080359996762,,,,,,,,,,,,149.26189859991428,149.7528720999835,,,1,1.7982037999900058,,,,,,,,,,,,,,,,,,,,,149.75288249994628,155.755358699942,Löffel,zart,"['Löffel', 'zart']",test_sub,2,"['Socke', 'Schere', 'Trommel', 'Kerze', 'Flasche', 'Buch', 'Lampe', 'Löffel', 'Ring', 'Rucksack', 'Telefon', 'Tasche', 'Würfel', 'Bürste', 'Uhr', 'Fahrrad', 'Hammer', 'Jacke', 'Vase', 'Eimer', 'Hut', 'Schlüssel', 'Stift', 'Kamera', 'Brille', 'Geige', 'Tasse', 'Kette', 'Blume', 'Kiste']","['glatt', 'klobig', 'glänzend', 'biegsam', 'kratzig', 'kaputt', 'rustikal', 'zart']",1,1.7982037999900058,None,,,,,,,,,,,,,,,,,,,,,,,,,,,,,,,,,,,,,,,,,,,,,,,,,,,,,,,,,,,,,,,,,2,2023-11-22_13h03.28.318,watkins1,2023.2.3,99.82122025094071,5,2023-11-22 13h03.39.890667 +0000,
,,,,,,,8,0,8,0,,,,,,,,,,,,,,,,,155.76478949992452,,,,,,,,,,,,155.75588279997464,156.246866799891,,,2,5.480066299904138,,,,,,,,,,,,,,,,,,,,,156.24687729997095,162.25131989992224,Ring,flach,"['Ring', 'flach']",test_sub,2,"['Socke', 'Schere', 'Trommel', 'Kerze', 'Flasche', 'Buch', 'Lampe', 'Löffel', 'Ring', 'Rucksack', 'Telefon', 'Tasche', 'Würfel', 'Bürste', 'Uhr', 'Fahrrad', 'Hammer', 'Jacke', 'Vase', 'Eimer', 'Hut', 'Schlüssel', 'Stift', 'Kamera', 'Brille', 'Geige', 'Tasse', 'Kette', 'Blume', 'Kiste']","['glatt', 'klobig', 'glänzend', 'biegsam', 'kratzig', 'kaputt', 'rustikal', 'zart', 'flach']",2,5.480066299904138,None,,,,,,,,,,,,,,,,,,,,,,,,,,,,,,,,,,,,,,,,,,,,,,,,,,,,,,,,,,,,,,,,,2,2023-11-22_13h03.28.318,watkins1,2023.2.3,99.82122025094071,5,2023-11-22 13h03.39.890667 +0000,
,,,,,,,9,0,9,0,,,,,,,,,,,,,,,,,162.26079879992176,,,,,,,,,,,,162.25184359995183,162.74285259994213,,,2,3.1450602000113577,,,,,,,,,,,,,,,,,,,,,162.74286319990642,168.75328209996223,Rucksack,schmutzig,"['Rucksack', 'schmutzig']",restudy,2,"['Socke', 'Schere', 'Trommel', 'Kerze', 'Flasche', 'Buch', 'Lampe', 'Löffel', 'Ring', 'Rucksack', 'Telefon', 'Tasche', 'Würfel', 'Bürste', 'Uhr', 'Fahrrad', 'Hammer', 'Jacke', 'Vase', 'Eimer', 'Hut', 'Schlüssel', 'Stift', 'Kamera', 'Brille', 'Geige', 'Tasse', 'Kette', 'Blume', 'Kiste']","['glatt', 'klobig', 'glänzend', 'biegsam', 'kratzig', 'kaputt', 'rustikal', 'zart', 'flach', 'schmutzig']",2,3.1450602000113577,None,,,,,,,,,,,,,,,,,,,,,,,,,,,,,,,,,,,,,,,,,,,,,,,,,,,,,,,,,,,,,,,,,2,2023-11-22_13h03.28.318,watkins1,2023.2.3,99.82122025094071,5,2023-11-22 13h03.39.890667 +0000,
,,,,,,,10,0,10,0,,,,,,,,,,,,,,,,,168.7628151999088,,,,,,,,,,,,168.7538127999287,169.24481359997299,,,1,3.4350679999915883,,,,,,,,,,,,,,,,,,,,,169.24482409993652,175.2513375999406,Telefon,durchsichtig,"['Telefon', 'durchsichtig']",restudy,2,"['Socke', 'Schere', 'Trommel', 'Kerze', 'Flasche', 'Buch', 'Lampe', 'Löffel', 'Ring', 'Rucksack', 'Telefon', 'Tasche', 'Würfel', 'Bürste', 'Uhr', 'Fahrrad', 'Hammer', 'Jacke', 'Vase', 'Eimer', 'Hut', 'Schlüssel', 'Stift', 'Kamera', 'Brille', 'Geige', 'Tasse', 'Kette', 'Blume', 'Kiste']","['glatt', 'klobig', 'glänzend', 'biegsam', 'kratzig', 'kaputt', 'rustikal', 'zart', 'flach', 'schmutzig', 'durchsichtig']",1,3.4350679999915883,None,,,,,,,,,,,,,,,,,,,,,,,,,,,,,,,,,,,,,,,,,,,,,,,,,,,,,,,,,,,,,,,,,2,2023-11-22_13h03.28.318,watkins1,2023.2.3,99.82122025094071,5,2023-11-22 13h03.39.890667 +0000,
,,,,,,,11,0,11,0,,,,,,,,,,,,,,,,,175.2608079999918,,,,,,,,,,,,175.25185959995724,175.74280809995253,,,1,2.0574179000686854,,,,,,,,,,,,,,,,,,,,,175.7428189999191,181.7529429999413,Tasche,gestreift,"['Tasche', 'gestreift']",restudy,2,"['Socke', 'Schere', 'Trommel', 'Kerze', 'Flasche', 'Buch', 'Lampe', 'Löffel', 'Ring', 'Rucksack', 'Telefon', 'Tasche', 'Würfel', 'Bürste', 'Uhr', 'Fahrrad', 'Hammer', 'Jacke', 'Vase', 'Eimer', 'Hut', 'Schlüssel', 'Stift', 'Kamera', 'Brille', 'Geige', 'Tasse', 'Kette', 'Blume', 'Kiste']","['glatt', 'klobig', 'glänzend', 'biegsam', 'kratzig', 'kaputt', 'rustikal', 'zart', 'flach', 'schmutzig', 'durchsichtig', 'gestreift']",1,2.0574179000686854,None,,,,,,,,,,,,,,,,,,,,,,,,,,,,,,,,,,,,,,,,,,,,,,,,,,,,,,,,,,,,,,,,,2,2023-11-22_13h03.28.318,watkins1,2023.2.3,99.82122025094071,5,2023-11-22 13h03.39.890667 +0000,
,,,,,,,12,0,12,0,,,,,,,,,,,,,,,,,181.7623556999024,,,,,,,,,,,,181.75347289990168,182.2443930999143,,,3,3.8263579999329522,,,,,,,,,,,,,,,,,,,,,182.24440359999426,188.24682699993718,Würfel,gepunktet,"['Würfel', 'gepunktet']",test_sub,2,"['Socke', 'Schere', 'Trommel', 'Kerze', 'Flasche', 'Buch', 'Lampe', 'Löffel', 'Ring', 'Rucksack', 'Telefon', 'Tasche', 'Würfel', 'Bürste', 'Uhr', 'Fahrrad', 'Hammer', 'Jacke', 'Vase', 'Eimer', 'Hut', 'Schlüssel', 'Stift', 'Kamera', 'Brille', 'Geige', 'Tasse', 'Kette', 'Blume', 'Kiste']","['glatt', 'klobig', 'glänzend', 'biegsam', 'kratzig', 'kaputt', 'rustikal', 'zart', 'flach', 'schmutzig', 'durchsichtig', 'gestreift', 'gepunktet']",3,3.8263579999329522,None,,,,,,,,,,,,,,,,,,,,,,,,,,,,,,,,,,,,,,,,,,,,,,,,,,,,,,,,,,,,,,,,,2,2023-11-22_13h03.28.318,watkins1,2023.2.3,99.82122025094071,5,2023-11-22 13h03.39.890667 +0000,
,,,,,,,13,0,13,0,,,,,,,,,,,,,,,,,188.25626759999432,,,,,,,,,,,,188.247352699982,188.738363499986,,,1,2.4698826000094414,,,,,,,,,,,,,,,,,,,,,188.7383743999526,194.74249629990663,Bürste,kurz,"['Bürste', 'kurz']",test_sub,2,"['Socke', 'Schere', 'Trommel', 'Kerze', 'Flasche', 'Buch', 'Lampe', 'Löffel', 'Ring', 'Rucksack', 'Telefon', 'Tasche', 'Würfel', 'Bürste', 'Uhr', 'Fahrrad', 'Hammer', 'Jacke', 'Vase', 'Eimer', 'Hut', 'Schlüssel', 'Stift', 'Kamera', 'Brille', 'Geige', 'Tasse', 'Kette', 'Blume', 'Kiste']","['glatt', 'klobig', 'glänzend', 'biegsam', 'kratzig', 'kaputt', 'rustikal', 'zart', 'flach', 'schmutzig', 'durchsichtig', 'gestreift', 'gepunktet', 'kurz']",1,2.4698826000094414,None,,,,,,,,,,,,,,,,,,,,,,,,,,,,,,,,,,,,,,,,,,,,,,,,,,,,,,,,,,,,,,,,,2,2023-11-22_13h03.28.318,watkins1,2023.2.3,99.82122025094071,5,2023-11-22 13h03.39.890667 +0000,
,,,,,,,14,0,14,0,,,,,,,,,,,,,,,,,194.75188659993,,,,,,,,,,,,194.7430231999606,195.2339136999799,,,1,3.0208154000574723,,,,,,,,,,,,,,,,,,,,,195.2339242999442,201.24306699994486,Uhr,verspielt,"['Uhr', 'verspielt']",test_sub,2,"['Socke', 'Schere', 'Trommel', 'Kerze', 'Flasche', 'Buch', 'Lampe', 'Löffel', 'Ring', 'Rucksack', 'Telefon', 'Tasche', 'Würfel', 'Bürste', 'Uhr', 'Fahrrad', 'Hammer', 'Jacke', 'Vase', 'Eimer', 'Hut', 'Schlüssel', 'Stift', 'Kamera', 'Brille', 'Geige', 'Tasse', 'Kette', 'Blume', 'Kiste']","['glatt', 'klobig', 'glänzend', 'biegsam', 'kratzig', 'kaputt', 'rustikal', 'zart', 'flach', 'schmutzig', 'durchsichtig', 'gestreift', 'gepunktet', 'kurz', 'verspielt']",1,3.0208154000574723,None,,,,,,,,,,,,,,,,,,,,,,,,,,,,,,,,,,,,,,,,,,,,,,,,,,,,,,,,,,,,,,,,,2,2023-11-22_13h03.28.318,watkins1,2023.2.3,99.82122025094071,5,2023-11-22 13h03.39.890667 +0000,
,,,,,,,15,0,15,0,,,,,,,,,,,,,,,,,201.25249749992508,,,,,,,,,,,,201.24359639990143,201.73443149996456,,,1,2.4976628000149503,,,,,,,,,,,,,,,,,,,,,201.73444209992886,207.744423899916,Fahrrad,matt,"['Fahrrad', 'matt']",restudy,2,"['Socke', 'Schere', 'Trommel', 'Kerze', 'Flasche', 'Buch', 'Lampe', 'Löffel', 'Ring', 'Rucksack', 'Telefon', 'Tasche', 'Würfel', 'Bürste', 'Uhr', 'Fahrrad', 'Hammer', 'Jacke', 'Vase', 'Eimer', 'Hut', 'Schlüssel', 'Stift', 'Kamera', 'Brille', 'Geige', 'Tasse', 'Kette', 'Blume', 'Kiste']","['glatt', 'klobig', 'glänzend', 'biegsam', 'kratzig', 'kaputt', 'rustikal', 'zart', 'flach', 'schmutzig', 'durchsichtig', 'gestreift', 'gepunktet', 'kurz', 'verspielt', 'matt']",1,2.4976628000149503,None,,,,,,,,,,,,,,,,,,,,,,,,,,,,,,,,,,,,,,,,,,,,,,,,,,,,,,,,,,,,,,,,,2,2023-11-22_13h03.28.318,watkins1,2023.2.3,99.82122025094071,5,2023-11-22 13h03.39.890667 +0000,
,,,,,,,16,0,16,0,,,,,,,,,,,,,,,,,207.7538451999426,,,,,,,,,,,,207.74494309991132,208.23597099992912,,,1,1.1794000000227243,,,,,,,,,,,,,,,,,,,,,208.23598199989647,214.23697549989447,Hammer,winzig,"['Hammer', 'winzig']",test_sub,2,"['Socke', 'Schere', 'Trommel', 'Kerze', 'Flasche', 'Buch', 'Lampe', 'Löffel', 'Ring', 'Rucksack', 'Telefon', 'Tasche', 'Würfel', 'Bürste', 'Uhr', 'Fahrrad', 'Hammer', 'Jacke', 'Vase', 'Eimer', 'Hut', 'Schlüssel', 'Stift', 'Kamera', 'Brille', 'Geige', 'Tasse', 'Kette', 'Blume', 'Kiste']","['glatt', 'klobig', 'glänzend', 'biegsam', 'kratzig', 'kaputt', 'rustikal', 'zart', 'flach', 'schmutzig', 'durchsichtig', 'gestreift', 'gepunktet', 'kurz', 'verspielt', 'matt', 'winzig']",1,1.1794000000227243,None,,,,,,,,,,,,,,,,,,,,,,,,,,,,,,,,,,,,,,,,,,,,,,,,,,,,,,,,,,,,,,,,,2,2023-11-22_13h03.28.318,watkins1,2023.2.3,99.82122025094071,5,2023-11-22 13h03.39.890667 +0000,
,,,,,,,17,0,17,0,,,,,,,,,,,,,,,,,214.24640099995304,,,,,,,,,,,,214.2375047999667,214.72844449989498,,,1,1.2706151000456885,,,,,,,,,,,,,,,,,,,,,214.72845539997797,220.7307468999643,Jacke,breit,"['Jacke', 'breit']",restudy,2,"['Socke', 'Schere', 'Trommel', 'Kerze', 'Flasche', 'Buch', 'Lampe', 'Löffel', 'Ring', 'Rucksack', 'Telefon', 'Tasche', 'Würfel', 'Bürste', 'Uhr', 'Fahrrad', 'Hammer', 'Jacke', 'Vase', 'Eimer', 'Hut', 'Schlüssel', 'Stift', 'Kamera', 'Brille', 'Geige', 'Tasse', 'Kette', 'Blume', 'Kiste']","['glatt', 'klobig', 'glänzend', 'biegsam', 'kratzig', 'kaputt', 'rustikal', 'zart', 'flach', 'schmutzig', 'durchsichtig', 'gestreift', 'gepunktet', 'kurz', 'verspielt', 'matt', 'winzig', 'breit']",1,1.2706151000456885,None,,,,,,,,,,,,,,,,,,,,,,,,,,,,,,,,,,,,,,,,,,,,,,,,,,,,,,,,,,,,,,,,,2,2023-11-22_13h03.28.318,watkins1,2023.2.3,99.82122025094071,5,2023-11-22 13h03.39.890667 +0000,
,,,,,,,18,0,18,0,,,,,,,,,,,,,,,,,220.7401326999534,,,,,,,,,,,,220.73126649996266,221.22228399990126,,,2,3.248830399941653,,,,,,,,,,,,,,,,,,,,,221.22229489998426,227.22948270000052,Vase,strahlend,"['Vase', 'strahlend']",test_sub,2,"['Socke', 'Schere', 'Trommel', 'Kerze', 'Flasche', 'Buch', 'Lampe', 'Löffel', 'Ring', 'Rucksack', 'Telefon', 'Tasche', 'Würfel', 'Bürste', 'Uhr', 'Fahrrad', 'Hammer', 'Jacke', 'Vase', 'Eimer', 'Hut', 'Schlüssel', 'Stift', 'Kamera', 'Brille', 'Geige', 'Tasse', 'Kette', 'Blume', 'Kiste']","['glatt', 'klobig', 'glänzend', 'biegsam', 'kratzig', 'kaputt', 'rustikal', 'zart', 'flach', 'schmutzig', 'durchsichtig', 'gestreift', 'gepunktet', 'kurz', 'verspielt', 'matt', 'winzig', 'breit', 'strahlend']",2,3.248830399941653,None,,,,,,,,,,,,,,,,,,,,,,,,,,,,,,,,,,,,,,,,,,,,,,,,,,,,,,,,,,,,,,,,,2,2023-11-22_13h03.28.318,watkins1,2023.2.3,99.82122025094071,5,2023-11-22 13h03.39.890667 +0000,
,,,,,,,19,0,19,0,,,,,,,,,,,,,,,,,227.23890999995638,,,,,,,,,,,,227.2300138999708,227.7208502999274,,,3,4.278534399927594,,,,,,,,,,,,,,,,,,,,,227.72086099989247,233.72402239998337,Eimer,hohl,"['Eimer', 'hohl']",restudy,2,"['Socke', 'Schere', 'Trommel', 'Kerze', 'Flasche', 'Buch', 'Lampe', 'Löffel', 'Ring', 'Rucksack', 'Telefon', 'Tasche', 'Würfel', 'Bürste', 'Uhr', 'Fahrrad', 'Hammer', 'Jacke', 'Vase', 'Eimer', 'Hut', 'Schlüssel', 'Stift', 'Kamera', 'Brille', 'Geige', 'Tasse', 'Kette', 'Blume', 'Kiste']","['glatt', 'klobig', 'glänzend', 'biegsam', 'kratzig', 'kaputt', 'rustikal', 'zart', 'flach', 'schmutzig', 'durchsichtig', 'gestreift', 'gepunktet', 'kurz', 'verspielt', 'matt', 'winzig', 'breit', 'strahlend', 'hohl']",3,4.278534399927594,None,,,,,,,,,,,,,,,,,,,,,,,,,,,,,,,,,,,,,,,,,,,,,,,,,,,,,,,,,,,,,,,,,2,2023-11-22_13h03.28.318,watkins1,2023.2.3,99.82122025094071,5,2023-11-22 13h03.39.890667 +0000,
,,,,,,,20,0,20,0,,,,,,,,,,,,,,,,,233.73343989998102,,,,,,,,,,,,233.7245547999628,234.2155784999486,,,1,2.2323347999481484,,,,,,,,,,,,,,,,,,,,,234.21559009992052,240.2260848999722,Hut,flauschig,"['Hut', 'flauschig']",test_sub,2,"['Socke', 'Schere', 'Trommel', 'Kerze', 'Flasche', 'Buch', 'Lampe', 'Löffel', 'Ring', 'Rucksack', 'Telefon', 'Tasche', 'Würfel', 'Bürste', 'Uhr', 'Fahrrad', 'Hammer', 'Jacke', 'Vase', 'Eimer', 'Hut', 'Schlüssel', 'Stift', 'Kamera', 'Brille', 'Geige', 'Tasse', 'Kette', 'Blume', 'Kiste']","['glatt', 'klobig', 'glänzend', 'biegsam', 'kratzig', 'kaputt', 'rustikal', 'zart', 'flach', 'schmutzig', 'durchsichtig', 'gestreift', 'gepunktet', 'kurz', 'verspielt', 'matt', 'winzig', 'breit', 'strahlend', 'hohl', 'flauschig']",1,2.2323347999481484,None,,,,,,,,,,,,,,,,,,,,,,,,,,,,,,,,,,,,,,,,,,,,,,,,,,,,,,,,,,,,,,,,,2,2023-11-22_13h03.28.318,watkins1,2023.2.3,99.82122025094071,5,2023-11-22 13h03.39.890667 +0000,
,,,,,,,21,0,21,0,,,,,,,,,,,,,,,,,240.2355782999657,,,,,,,,,,,,240.22660890000407,240.7177147999173,,,2,3.3460850999690592,,,,,,,,,,,,,,,,,,,,,240.7177257000003,246.71964759996627,Schlüssel,praktisch,"['Schlüssel', 'praktisch']",test_sub,2,"['Socke', 'Schere', 'Trommel', 'Kerze', 'Flasche', 'Buch', 'Lampe', 'Löffel', 'Ring', 'Rucksack', 'Telefon', 'Tasche', 'Würfel', 'Bürste', 'Uhr', 'Fahrrad', 'Hammer', 'Jacke', 'Vase', 'Eimer', 'Hut', 'Schlüssel', 'Stift', 'Kamera', 'Brille', 'Geige', 'Tasse', 'Kette', 'Blume', 'Kiste']","['glatt', 'klobig', 'glänzend', 'biegsam', 'kratzig', 'kaputt', 'rustikal', 'zart', 'flach', 'schmutzig', 'durchsichtig', 'gestreift', 'gepunktet', 'kurz', 'verspielt', 'matt', 'winzig', 'breit', 'strahlend', 'hohl', 'flauschig', 'praktisch']",2,3.3460850999690592,None,,,,,,,,,,,,,,,,,,,,,,,,,,,,,,,,,,,,,,,,,,,,,,,,,,,,,,,,,,,,,,,,,2,2023-11-22_13h03.28.318,watkins1,2023.2.3,99.82122025094071,5,2023-11-22 13h03.39.890667 +0000,
,,,,,,,22,0,22,0,,,,,,,,,,,,,,,,,246.7290738999145,,,,,,,,,,,,246.7201672999654,247.21108629996888,,,2,2.0210281000472605,,,,,,,,,,,,,,,,,,,,,247.21109719993547,253.2145394999534,Stift,robust,"['Stift', 'robust']",test_sub,2,"['Socke', 'Schere', 'Trommel', 'Kerze', 'Flasche', 'Buch', 'Lampe', 'Löffel', 'Ring', 'Rucksack', 'Telefon', 'Tasche', 'Würfel', 'Bürste', 'Uhr', 'Fahrrad', 'Hammer', 'Jacke', 'Vase', 'Eimer', 'Hut', 'Schlüssel', 'Stift', 'Kamera', 'Brille', 'Geige', 'Tasse', 'Kette', 'Blume', 'Kiste']","['glatt', 'klobig', 'glänzend', 'biegsam', 'kratzig', 'kaputt', 'rustikal', 'zart', 'flach', 'schmutzig', 'durchsichtig', 'gestreift', 'gepunktet', 'kurz', 'verspielt', 'matt', 'winzig', 'breit', 'strahlend', 'hohl', 'flauschig', 'praktisch', 'robust']",2,2.0210281000472605,None,,,,,,,,,,,,,,,,,,,,,,,,,,,,,,,,,,,,,,,,,,,,,,,,,,,,,,,,,,,,,,,,,2,2023-11-22_13h03.28.318,watkins1,2023.2.3,99.82122025094071,5,2023-11-22 13h03.39.890667 +0000,
,,,,,,,23,0,23,0,,,,,,,,,,,,,,,,,253.22380349994637,,,,,,,,,,,,253.2150666998932,253.70603109989315,,,2,4.582178000011481,,,,,,,,,,,,,,,,,,,,,253.70604169997387,259.711668199976,Kamera,nachhaltig,"['Kamera', 'nachhaltig']",test_sub,2,"['Socke', 'Schere', 'Trommel', 'Kerze', 'Flasche', 'Buch', 'Lampe', 'Löffel', 'Ring', 'Rucksack', 'Telefon', 'Tasche', 'Würfel', 'Bürste', 'Uhr', 'Fahrrad', 'Hammer', 'Jacke', 'Vase', 'Eimer', 'Hut', 'Schlüssel', 'Stift', 'Kamera', 'Brille', 'Geige', 'Tasse', 'Kette', 'Blume', 'Kiste']","['glatt', 'klobig', 'glänzend', 'biegsam', 'kratzig', 'kaputt', 'rustikal', 'zart', 'flach', 'schmutzig', 'durchsichtig', 'gestreift', 'gepunktet', 'kurz', 'verspielt', 'matt', 'winzig', 'breit', 'strahlend', 'hohl', 'flauschig', 'praktisch', 'robust', 'nachhaltig']",2,4.582178000011481,None,,,,,,,,,,,,,,,,,,,,,,,,,,,,,,,,,,,,,,,,,,,,,,,,,,,,,,,,,,,,,,,,,2,2023-11-22_13h03.28.318,watkins1,2023.2.3,99.82122025094071,5,2023-11-22 13h03.39.890667 +0000,
,,,,,,,24,0,24,0,,,,,,,,,,,,,,,,,259.7210823999485,,,,,,,,,,,,259.7121929998975,260.2030979999108,,,2,3.532554000033997,,,,,,,,,,,,,,,,,,,,,260.2031096999999,266.20729349995963,Brille,hässlich,"['Brille', 'hässlich']",test_sub,2,"['Socke', 'Schere', 'Trommel', 'Kerze', 'Flasche', 'Buch', 'Lampe', 'Löffel', 'Ring', 'Rucksack', 'Telefon', 'Tasche', 'Würfel', 'Bürste', 'Uhr', 'Fahrrad', 'Hammer', 'Jacke', 'Vase', 'Eimer', 'Hut', 'Schlüssel', 'Stift', 'Kamera', 'Brille', 'Geige', 'Tasse', 'Kette', 'Blume', 'Kiste']","['glatt', 'klobig', 'glänzend', 'biegsam', 'kratzig', 'kaputt', 'rustikal', 'zart', 'flach', 'schmutzig', 'durchsichtig', 'gestreift', 'gepunktet', 'kurz', 'verspielt', 'matt', 'winzig', 'breit', 'strahlend', 'hohl', 'flauschig', 'praktisch', 'robust', 'nachhaltig', 'hässlich']",2,3.532554000033997,None,,,,,,,,,,,,,,,,,,,,,,,,,,,,,,,,,,,,,,,,,,,,,,,,,,,,,,,,,,,,,,,,,2,2023-11-22_13h03.28.318,watkins1,2023.2.3,99.82122025094071,5,2023-11-22 13h03.39.890667 +0000,
,,,,,,,25,0,25,0,,,,,,,,,,,,,,,,,266.2168138999259,,,,,,,,,,,,266.2078225999139,266.69929389993194,,,1,2.275728900101967,,,,,,,,,,,,,,,,,,,,,266.6993053999031,272.7012695999583,Geige,schwer,"['Geige', 'schwer']",restudy,2,"['Socke', 'Schere', 'Trommel', 'Kerze', 'Flasche', 'Buch', 'Lampe', 'Löffel', 'Ring', 'Rucksack', 'Telefon', 'Tasche', 'Würfel', 'Bürste', 'Uhr', 'Fahrrad', 'Hammer', 'Jacke', 'Vase', 'Eimer', 'Hut', 'Schlüssel', 'Stift', 'Kamera', 'Brille', 'Geige', 'Tasse', 'Kette', 'Blume', 'Kiste']","['glatt', 'klobig', 'glänzend', 'biegsam', 'kratzig', 'kaputt', 'rustikal', 'zart', 'flach', 'schmutzig', 'durchsichtig', 'gestreift', 'gepunktet', 'kurz', 'verspielt', 'matt', 'winzig', 'breit', 'strahlend', 'hohl', 'flauschig', 'praktisch', 'robust', 'nachhaltig', 'hässlich', 'schwer']",1,2.275728900101967,None,,,,,,,,,,,,,,,,,,,,,,,,,,,,,,,,,,,,,,,,,,,,,,,,,,,,,,,,,,,,,,,,,2,2023-11-22_13h03.28.318,watkins1,2023.2.3,99.82122025094071,5,2023-11-22 13h03.39.890667 +0000,
,,,,,,,26,0,26,0,,,,,,,,,,,,,,,,,272.71065719996113,,,,,,,,,,,,272.70180999999866,273.1928076999029,,,1,3.238919800030999,,,,,,,,,,,,,,,,,,,,,273.1928183999844,279.1979216999607,Tasse,sportlich,"['Tasse', 'sportlich']",restudy,2,"['Socke', 'Schere', 'Trommel', 'Kerze', 'Flasche', 'Buch', 'Lampe', 'Löffel', 'Ring', 'Rucksack', 'Telefon', 'Tasche', 'Würfel', 'Bürste', 'Uhr', 'Fahrrad', 'Hammer', 'Jacke', 'Vase', 'Eimer', 'Hut', 'Schlüssel', 'Stift', 'Kamera', 'Brille', 'Geige', 'Tasse', 'Kette', 'Blume', 'Kiste']","['glatt', 'klobig', 'glänzend', 'biegsam', 'kratzig', 'kaputt', 'rustikal', 'zart', 'flach', 'schmutzig', 'durchsichtig', 'gestreift', 'gepunktet', 'kurz', 'verspielt', 'matt', 'winzig', 'breit', 'strahlend', 'hohl', 'flauschig', 'praktisch', 'robust', 'nachhaltig', 'hässlich', 'schwer', 'sportlich']",1,3.238919800030999,None,,,,,,,,,,,,,,,,,,,,,,,,,,,,,,,,,,,,,,,,,,,,,,,,,,,,,,,,,,,,,,,,,2,2023-11-22_13h03.28.318,watkins1,2023.2.3,99.82122025094071,5,2023-11-22 13h03.39.890667 +0000,
,,,,,,,27,0,27,0,,,,,,,,,,,,,,,,,279.2074567999225,,,,,,,,,,,,279.19845169992186,279.6895189998904,,,2,3.4303483999101445,,,,,,,,,,,,,,,,,,,,,279.6895294999704,285.695572800003,Kette,schlicht,"['Kette', 'schlicht']",test_sub,2,"['Socke', 'Schere', 'Trommel', 'Kerze', 'Flasche', 'Buch', 'Lampe', 'Löffel', 'Ring', 'Rucksack', 'Telefon', 'Tasche', 'Würfel', 'Bürste', 'Uhr', 'Fahrrad', 'Hammer', 'Jacke', 'Vase', 'Eimer', 'Hut', 'Schlüssel', 'Stift', 'Kamera', 'Brille', 'Geige', 'Tasse', 'Kette', 'Blume', 'Kiste']","['glatt', 'klobig', 'glänzend', 'biegsam', 'kratzig', 'kaputt', 'rustikal', 'zart', 'flach', 'schmutzig', 'durchsichtig', 'gestreift', 'gepunktet', 'kurz', 'verspielt', 'matt', 'winzig', 'breit', 'strahlend', 'hohl', 'flauschig', 'praktisch', 'robust', 'nachhaltig', 'hässlich', 'schwer', 'sportlich', 'schlicht']",2,3.4303483999101445,None,,,,,,,,,,,,,,,,,,,,,,,,,,,,,,,,,,,,,,,,,,,,,,,,,,,,,,,,,,,,,,,,,2,2023-11-22_13h03.28.318,watkins1,2023.2.3,99.82122025094071,5,2023-11-22 13h03.39.890667 +0000,
,,,,,,,28,0,28,0,,,,,,,,,,,,,,,,,285.70513509993907,,,,,,,,,,,,285.6960976999253,286.1871795000043,,,2,2.6684380000224337,,,,,,,,,,,,,,,,,,,,,286.1871905999724,292.1908408999443,Blume,blass,"['Blume', 'blass']",restudy,2,"['Socke', 'Schere', 'Trommel', 'Kerze', 'Flasche', 'Buch', 'Lampe', 'Löffel', 'Ring', 'Rucksack', 'Telefon', 'Tasche', 'Würfel', 'Bürste', 'Uhr', 'Fahrrad', 'Hammer', 'Jacke', 'Vase', 'Eimer', 'Hut', 'Schlüssel', 'Stift', 'Kamera', 'Brille', 'Geige', 'Tasse', 'Kette', 'Blume', 'Kiste']","['glatt', 'klobig', 'glänzend', 'biegsam', 'kratzig', 'kaputt', 'rustikal', 'zart', 'flach', 'schmutzig', 'durchsichtig', 'gestreift', 'gepunktet', 'kurz', 'verspielt', 'matt', 'winzig', 'breit', 'strahlend', 'hohl', 'flauschig', 'praktisch', 'robust', 'nachhaltig', 'hässlich', 'schwer', 'sportlich', 'schlicht', 'blass']",2,2.6684380000224337,None,,,,,,,,,,,,,,,,,,,,,,,,,,,,,,,,,,,,,,,,,,,,,,,,,,,,,,,,,,,,,,,,,2,2023-11-22_13h03.28.318,watkins1,2023.2.3,99.82122025094071,5,2023-11-22 13h03.39.890667 +0000,
,,,,,,,29,0,29,0,,,,,,,,,,,,,,,,,292.20022020000033,,,,,,,,,,,,292.1913650999777,292.6823443999747,,,1,3.5978112999582663,,,,,,,,,,,,,,,,,,,,,292.68235479993746,298.6829631999135,Kiste,niedlich,"['Kiste', 'niedlich']",restudy,2,"['Socke', 'Schere', 'Trommel', 'Kerze', 'Flasche', 'Buch', 'Lampe', 'Löffel', 'Ring', 'Rucksack', 'Telefon', 'Tasche', 'Würfel', 'Bürste', 'Uhr', 'Fahrrad', 'Hammer', 'Jacke', 'Vase', 'Eimer', 'Hut', 'Schlüssel', 'Stift', 'Kamera', 'Brille', 'Geige', 'Tasse', 'Kette', 'Blume', 'Kiste']","['glatt', 'klobig', 'glänzend', 'biegsam', 'kratzig', 'kaputt', 'rustikal', 'zart', 'flach', 'schmutzig', 'durchsichtig', 'gestreift', 'gepunktet', 'kurz', 'verspielt', 'matt', 'winzig', 'breit', 'strahlend', 'hohl', 'flauschig', 'praktisch', 'robust', 'nachhaltig', 'hässlich', 'schwer', 'sportlich', 'schlicht', 'blass', 'niedlich']",1,3.5978112999582663,None,,,,,,,,,,,,,,,,,,,,,,,,,,,,,,,,,,,,,,,,,,,,,,,,,,,,,,,,,,,,,,,,,2,2023-11-22_13h03.28.318,watkins1,2023.2.3,99.82122025094071,5,2023-11-22 13h03.39.890667 +0000,
,,,,,,,,,,,0,0,0,0,,,,,,,,,,,,,298.69249919999857,,,,,,,,,,,,298.68381349998526,299.17456659988966,,,[],[],,,,,,,,,,,,None,None,,,,,,,,,,Buch,kaputt,"['Buch', 'kaputt']",restudy,2,,,,,,298.68373689998407,298.6837863998953,"['Buch', 'Hut', 'Schere', 'Tasche', 'Tasse', 'Flasche', 'Kerze', 'Schlüssel', 'Telefon', 'Rucksack', 'Uhr', 'Eimer', 'Stift', 'Geige', 'Socke', 'Brille', 'Trommel', 'Hammer', 'Vase', 'Kette', 'Löffel', 'Würfel', 'Kamera', 'Fahrrad', 'Lampe', 'Blume', 'Bürste', 'Ring', 'Kiste', 'Jacke']",299.1745776999742,299.17728529998567,None,299.17746829998214,305.1810987999197,None,305.1812958999071,305.18392270000186,None,305.1840863999678,305.18514239997603,305.18515479995403,305.18633509997744,,,,,,,,,,,,,,,,,,,,,,,,,,,,,,,,,,,,,,,,,,,,,,,,,2,2023-11-22_13h03.28.318,watkins1,2023.2.3,99.82122025094071,5,2023-11-22 13h03.39.890667 +0000,
,,,,,,,,,,,1,0,1,0,,,,,,,,,,,,,305.19061749998946,,,,,,,,,,,,305.18662539997604,305.68268519989215,,,[],[],,,,,,,,,,,,0.10936389991547912,3.172089400002733,,,,,hut,,,,,Hut,flauschig,"['Hut', 'flauschig']",test_sub,2,,,,,,305.1865596999414,305.18659800000023,"['Buch', 'Hut', 'Schere', 'Tasche', 'Tasse', 'Flasche', 'Kerze', 'Schlüssel', 'Telefon', 'Rucksack', 'Uhr', 'Eimer', 'Stift', 'Geige', 'Socke', 'Brille', 'Trommel', 'Hammer', 'Vase', 'Kette', 'Löffel', 'Würfel', 'Kamera', 'Fahrrad', 'Lampe', 'Blume', 'Bürste', 'Ring', 'Kiste', 'Jacke']",305.6826961999759,305.68523009994533,None,305.68535349995364,305.686735700001,None,305.68684549990576,305.68813919997774,None,305.68824839999434,305.68927569990046,305.689288900001,311.69363369990606,0,,,,,,,,,,,,,,,,,,,,,,,,,,,,,,,,,,,,,,,,,,,,,,,,2,2023-11-22_13h03.28.318,watkins1,2023.2.3,99.82122025094071,5,2023-11-22 13h03.39.890667 +0000,
,,,,,,,,,,,2,0,2,0,,,,,,,,,,,,,311.7033862998942,,,,,,,,,,,,311.6939213000005,312.1856048000045,,,[],[],,,,,,,,,,,,None,None,,,,,,,,,,Schere,klobig,"['Schere', 'klobig']",restudy,2,,,,,,311.6938544999575,311.6938922998961,"['Buch', 'Hut', 'Schere', 'Tasche', 'Tasse', 'Flasche', 'Kerze', 'Schlüssel', 'Telefon', 'Rucksack', 'Uhr', 'Eimer', 'Stift', 'Geige', 'Socke', 'Brille', 'Trommel', 'Hammer', 'Vase', 'Kette', 'Löffel', 'Würfel', 'Kamera', 'Fahrrad', 'Lampe', 'Blume', 'Bürste', 'Ring', 'Kiste', 'Jacke']",312.1856153999688,312.18840489990544,None,312.1885280999122,318.19357010000385,1,318.1939461999573,318.1966787999263,None,318.1967941999901,318.1979791999329,318.19799139990937,318.1994750999147,,4.315512600005604,None,,,,,,,,,,,,,,,,,,,,,,,,,,,,,,,,,,,,,,,,,,,,,,2,2023-11-22_13h03.28.318,watkins1,2023.2.3,99.82122025094071,5,2023-11-22 13h03.39.890667 +0000,
,,,,,,,,,,,3,0,3,0,,,,,,,,,,,,,318.20310839999,,,,,,,,,,,,318.19975809997413,318.6951043999288,,,[],[],,,,,,,,,,,,None,None,,,,,,,,,,Tasche,gestreift,"['Tasche', 'gestreift']",restudy,2,,,,,,318.1996923999395,318.1997316000052,"['Buch', 'Hut', 'Schere', 'Tasche', 'Tasse', 'Flasche', 'Kerze', 'Schlüssel', 'Telefon', 'Rucksack', 'Uhr', 'Eimer', 'Stift', 'Geige', 'Socke', 'Brille', 'Trommel', 'Hammer', 'Vase', 'Kette', 'Löffel', 'Würfel', 'Kamera', 'Fahrrad', 'Lampe', 'Blume', 'Bürste', 'Ring', 'Kiste', 'Jacke']",318.6951155998977,318.69779509992804,None,318.6979180999333,324.70501349994447,None,324.7051562999841,324.70790119993035,None,324.7080180000048,324.7091930999886,324.7092052999651,324.7110342999222,,,,,,,,,,,,,,,,,,,,,,,,,,,,,,,,,,,,,,,,,,,,,,,,,2,2023-11-22_13h03.28.318,watkins1,2023.2.3,99.82122025094071,5,2023-11-22 13h03.39.890667 +0000,
,,,,,,,,,,,4,0,4,0,,,,,,,,,,,,,324.7144472999498,,,,,,,,,,,,324.71132619993296,325.2064342999365,,,[],[],,,,,,,,,,,,None,None,,,,,,,,,,Tasse,sportlich,"['Tasse', 'sportlich']",restudy,2,,,,,,324.71125920000486,324.7112989999587,"['Buch', 'Hut', 'Schere', 'Tasche', 'Tasse', 'Flasche', 'Kerze', 'Schlüssel', 'Telefon', 'Rucksack', 'Uhr', 'Eimer', 'Stift', 'Geige', 'Socke', 'Brille', 'Trommel', 'Hammer', 'Vase', 'Kette', 'Löffel', 'Würfel', 'Kamera', 'Fahrrad', 'Lampe', 'Blume', 'Bürste', 'Ring', 'Kiste', 'Jacke']",325.2064451999031,325.20934589998797,None,325.20947089989204,331.21301549999043,1,331.21332129999064,331.2161821000045,None,331.2162964999443,331.2174606999615,331.2174726999365,331.2187186999945,,4.782496299943887,None,,,,,,,,,,,,,,,,,,,,,,,,,,,,,,,,,,,,,,,,,,,,,,2,2023-11-22_13h03.28.318,watkins1,2023.2.3,99.82122025094071,5,2023-11-22 13h03.39.890667 +0000,
,,,,,,,,,,,5,0,5,0,,,,,,,,,,,,,331.22242299991194,,,,,,,,,,,,331.2190034999512,331.7146092999028,,,[],[],,,,,,,,,,,,None,None,,,,,,,,,,Flasche,kratzig,"['Flasche', 'kratzig']",restudy,2,,,,,,331.2189377999166,331.21897649997845,"['Buch', 'Hut', 'Schere', 'Tasche', 'Tasse', 'Flasche', 'Kerze', 'Schlüssel', 'Telefon', 'Rucksack', 'Uhr', 'Eimer', 'Stift', 'Geige', 'Socke', 'Brille', 'Trommel', 'Hammer', 'Vase', 'Kette', 'Löffel', 'Würfel', 'Kamera', 'Fahrrad', 'Lampe', 'Blume', 'Bürste', 'Ring', 'Kiste', 'Jacke']",331.71461979998276,331.71756359993014,None,331.7176889999537,337.7239700999344,1,337.72428169997875,337.7270201999927,None,337.7271357999416,337.728338399902,337.72835019999184,337.729538399959,,1.1855744000058621,None,,,,,,,,,,,,,,,,,,,,,,,,,,,,,,,,,,,,,,,,,,,,,,2,2023-11-22_13h03.28.318,watkins1,2023.2.3,99.82122025094071,5,2023-11-22 13h03.39.890667 +0000,
,,,,,,,,,,,6,0,6,0,,,,,,,,,,,,,337.7333940999815,,,,,,,,,,,,337.7298215999035,338.22573569999076,,,[],[],,,,,,,,,,,,3.0115374999586493,None,,,,,capslockkcapslockerz,,,,,Kerze,biegsam,"['Kerze', 'biegsam']",test_sub,2,,,,,,337.7297561999876,337.7297946999315,"['Buch', 'Hut', 'Schere', 'Tasche', 'Tasse', 'Flasche', 'Kerze', 'Schlüssel', 'Telefon', 'Rucksack', 'Uhr', 'Eimer', 'Stift', 'Geige', 'Socke', 'Brille', 'Trommel', 'Hammer', 'Vase', 'Kette', 'Löffel', 'Würfel', 'Kamera', 'Fahrrad', 'Lampe', 'Blume', 'Bürste', 'Ring', 'Kiste', 'Jacke']",338.2257469999604,338.22859029995743,None,338.22871649998706,338.2301493999548,None,338.23026089998893,338.23167559993453,None,338.2317858999595,338.23309519991744,338.23310909990687,344.23722829995677,0,,,,,,,,,,,,,,,,,,,,,,,,,,,,,,,,,,,,,,,,,,,,,,,,2,2023-11-22_13h03.28.318,watkins1,2023.2.3,99.82122025094071,5,2023-11-22 13h03.39.890667 +0000,
,,,,,,,,,,,7,0,7,0,,,,,,,,,,,,,344.2471327999374,,,,,,,,,,,,344.2375058999751,344.7292281999253,,,[],[],,,,,,,,,,,,4.04852640000172,None,,,,,schlü,,,,,Schlüssel,praktisch,"['Schlüssel', 'praktisch']",test_sub,2,,,,,,344.23743889993057,344.23747719998937,"['Buch', 'Hut', 'Schere', 'Tasche', 'Tasse', 'Flasche', 'Kerze', 'Schlüssel', 'Telefon', 'Rucksack', 'Uhr', 'Eimer', 'Stift', 'Geige', 'Socke', 'Brille', 'Trommel', 'Hammer', 'Vase', 'Kette', 'Löffel', 'Würfel', 'Kamera', 'Fahrrad', 'Lampe', 'Blume', 'Bürste', 'Ring', 'Kiste', 'Jacke']",344.7292391998926,344.73201529996004,None,344.7321424999973,344.73475289996713,None,344.73486409999896,344.7374806998996,None,344.7375901999185,344.738884099992,344.73889709997457,350.74567629990634,0,,,,,,,,,,,,,,,,,,,,,,,,,,,,,,,,,,,,,,,,,,,,,,,,2,2023-11-22_13h03.28.318,watkins1,2023.2.3,99.82122025094071,5,2023-11-22 13h03.39.890667 +0000,
,,,,,,,,,,,8,0,8,0,,,,,,,,,,,,,350.7554769999115,,,,,,,,,,,,350.7459539999254,351.2376247999491,,,[],[],,,,,,,,,,,,None,None,,,,,,,,,,Telefon,durchsichtig,"['Telefon', 'durchsichtig']",restudy,2,,,,,,350.745886299992,350.7459250999382,"['Buch', 'Hut', 'Schere', 'Tasche', 'Tasse', 'Flasche', 'Kerze', 'Schlüssel', 'Telefon', 'Rucksack', 'Uhr', 'Eimer', 'Stift', 'Geige', 'Socke', 'Brille', 'Trommel', 'Hammer', 'Vase', 'Kette', 'Löffel', 'Würfel', 'Kamera', 'Fahrrad', 'Lampe', 'Blume', 'Bürste', 'Ring', 'Kiste', 'Jacke']",351.2376358999172,351.2404606998898,None,351.2405864999164,357.24678489996586,1,357.247083599912,357.2499549998902,None,357.25006759993266,357.2512848000042,357.2512969999807,357.2529205000028,,4.111200299928896,None,,,,,,,,,,,,,,,,,,,,,,,,,,,,,,,,,,,,,,,,,,,,,,2,2023-11-22_13h03.28.318,watkins1,2023.2.3,99.82122025094071,5,2023-11-22 13h03.39.890667 +0000,
,,,,,,,,,,,9,0,9,0,,,,,,,,,,,,,357.25615339993965,,,,,,,,,,,,357.25320699997246,357.74825419997796,,,[],[],,,,,,,,,,,,None,None,,,,,,,,,,Rucksack,schmutzig,"['Rucksack', 'schmutzig']",restudy,2,,,,,,357.2531390999211,357.25317959999666,"['Buch', 'Hut', 'Schere', 'Tasche', 'Tasse', 'Flasche', 'Kerze', 'Schlüssel', 'Telefon', 'Rucksack', 'Uhr', 'Eimer', 'Stift', 'Geige', 'Socke', 'Brille', 'Trommel', 'Hammer', 'Vase', 'Kette', 'Löffel', 'Würfel', 'Kamera', 'Fahrrad', 'Lampe', 'Blume', 'Bürste', 'Ring', 'Kiste', 'Jacke']",357.748264899943,357.7511351999128,None,357.7512620999478,363.761540699983,1,363.7618379999185,363.76463889994193,None,363.76475449989084,363.76598469994497,363.76599689992145,363.76725509995595,,4.648664699983783,None,,,,,,,,,,,,,,,,,,,,,,,,,,,,,,,,,,,,,,,,,,,,,,2,2023-11-22_13h03.28.318,watkins1,2023.2.3,99.82122025094071,5,2023-11-22 13h03.39.890667 +0000,
,,,,,,,,,,,10,0,10,0,,,,,,,,,,,,,363.77097919990774,,,,,,,,,,,,363.7675392999081,364.26297349995,,,[],[],,,,,,,,,,,,None,None,,,,,,,,,,Uhr,verspielt,"['Uhr', 'verspielt']",test_sub,2,,,,,,363.7674730999861,363.7675120999338,"['Buch', 'Hut', 'Schere', 'Tasche', 'Tasse', 'Flasche', 'Kerze', 'Schlüssel', 'Telefon', 'Rucksack', 'Uhr', 'Eimer', 'Stift', 'Geige', 'Socke', 'Brille', 'Trommel', 'Hammer', 'Vase', 'Kette', 'Löffel', 'Würfel', 'Kamera', 'Fahrrad', 'Lampe', 'Blume', 'Bürste', 'Ring', 'Kiste', 'Jacke']",364.2629845999181,364.2656408000039,None,364.2657632000046,364.2670562999556,None,364.26716759998817,364.26845759991556,None,364.26856519992,364.2695951999631,364.26960849994794,370.27275739994366,0,,,,,,,,,,,,,,,,,,,,,,,,,,,,,,,,,,,,,,,,,,,,,,,,2,2023-11-22_13h03.28.318,watkins1,2023.2.3,99.82122025094071,5,2023-11-22 13h03.39.890667 +0000,
,,,,,,,,,,,11,0,11,0,,,,,,,,,,,,,370.28252689994406,,,,,,,,,,,,370.2730382999871,370.76502479997,,,[],[],,,,,,,,,,,,None,None,,,,,,,,,,Eimer,hohl,"['Eimer', 'hohl']",restudy,2,,,,,,370.27296979993116,370.27300709998235,"['Buch', 'Hut', 'Schere', 'Tasche', 'Tasse', 'Flasche', 'Kerze', 'Schlüssel', 'Telefon', 'Rucksack', 'Uhr', 'Eimer', 'Stift', 'Geige', 'Socke', 'Brille', 'Trommel', 'Hammer', 'Vase', 'Kette', 'Löffel', 'Würfel', 'Kamera', 'Fahrrad', 'Lampe', 'Blume', 'Bürste', 'Ring', 'Kiste', 'Jacke']",370.7650376999518,370.7682942999527,None,370.7684334999649,376.772012499976,3,376.7723216000013,376.7748426999897,None,376.77495609992184,376.7761191999307,376.7761330999201,376.7771698998986,,2.511150100035593,None,,,,,,,,,,,,,,,,,,,,,,,,,,,,,,,,,,,,,,,,,,,,,,2,2023-11-22_13h03.28.318,watkins1,2023.2.3,99.82122025094071,5,2023-11-22 13h03.39.890667 +0000,
,,,,,,,,,,,12,0,12,0,,,,,,,,,,,,,376.7815063999733,,,,,,,,,,,,376.7774533999618,377.27358979999553,,,[],[],,,,,,,,,,,,None,None,,,,,,,,,,Stift,robust,"['Stift', 'robust']",test_sub,2,,,,,,376.7773873999249,376.77742609998677,"['Buch', 'Hut', 'Schere', 'Tasche', 'Tasse', 'Flasche', 'Kerze', 'Schlüssel', 'Telefon', 'Rucksack', 'Uhr', 'Eimer', 'Stift', 'Geige', 'Socke', 'Brille', 'Trommel', 'Hammer', 'Vase', 'Kette', 'Löffel', 'Würfel', 'Kamera', 'Fahrrad', 'Lampe', 'Blume', 'Bürste', 'Ring', 'Kiste', 'Jacke']",377.27360059996136,377.2761080999626,None,377.2762304999633,377.2776378999697,None,377.2777475999901,377.2791542999912,None,377.2792610999895,377.28040980000515,377.28042269998696,383.2838058999041,0,,,,,,,,,,,,,,,,,,,,,,,,,,,,,,,,,,,,,,,,,,,,,,,,2,2023-11-22_13h03.28.318,watkins1,2023.2.3,99.82122025094071,5,2023-11-22 13h03.39.890667 +0000,
,,,,,,,,,,,13,0,13,0,,,,,,,,,,,,,383.29371839994565,,,,,,,,,,,,383.2840821999125,383.7756500999676,,,[],[],,,,,,,,,,,,None,None,,,,,,,,,,Geige,schwer,"['Geige', 'schwer']",restudy,2,,,,,,383.2840167999966,383.28405389992986,"['Buch', 'Hut', 'Schere', 'Tasche', 'Tasse', 'Flasche', 'Kerze', 'Schlüssel', 'Telefon', 'Rucksack', 'Uhr', 'Eimer', 'Stift', 'Geige', 'Socke', 'Brille', 'Trommel', 'Hammer', 'Vase', 'Kette', 'Löffel', 'Würfel', 'Kamera', 'Fahrrad', 'Lampe', 'Blume', 'Bürste', 'Ring', 'Kiste', 'Jacke']",383.77566109993495,383.7783737999853,None,383.77849979989696,389.782193299965,1,389.78249039989896,389.7851569999475,None,389.7852692999877,389.7864307999844,389.7864428999601,389.787612499902,,2.1808142999652773,None,,,,,,,,,,,,,,,,,,,,,,,,,,,,,,,,,,,,,,,,,,,,,,2,2023-11-22_13h03.28.318,watkins1,2023.2.3,99.82122025094071,5,2023-11-22 13h03.39.890667 +0000,
,,,,,,,,,,,14,0,14,0,,,,,,,,,,,,,389.79161829990335,,,,,,,,,,,,389.7878955999622,390.28370489994995,,,[],[],,,,,,,,,,,,None,None,,,,,,,,,,Socke,glatt,"['Socke', 'glatt']",restudy,2,,,,,,389.78782949992456,389.7878686999902,"['Buch', 'Hut', 'Schere', 'Tasche', 'Tasse', 'Flasche', 'Kerze', 'Schlüssel', 'Telefon', 'Rucksack', 'Uhr', 'Eimer', 'Stift', 'Geige', 'Socke', 'Brille', 'Trommel', 'Hammer', 'Vase', 'Kette', 'Löffel', 'Würfel', 'Kamera', 'Fahrrad', 'Lampe', 'Blume', 'Bürste', 'Ring', 'Kiste', 'Jacke']",390.28371579991654,390.28654649993405,None,390.2866730999667,396.29666479991283,1,396.2969618999632,396.29958729993086,None,396.299701299984,396.3008482999867,396.30086029996164,396.3020083999727,,1.4172801999375224,None,,,,,,,,,,,,,,,,,,,,,,,,,,,,,,,,,,,,,,,,,,,,,,2,2023-11-22_13h03.28.318,watkins1,2023.2.3,99.82122025094071,5,2023-11-22 13h03.39.890667 +0000,
,,,,,,,,,,,15,0,15,0,,,,,,,,,,,,,396.3059566000011,,,,,,,,,,,,396.3022876000032,396.79804009990767,,,[],[],,,,,,,,,,,,None,None,,,,,,,,,,Brille,hässlich,"['Brille', 'hässlich']",test_sub,2,,,,,,396.30222139996476,396.30226049991325,"['Buch', 'Hut', 'Schere', 'Tasche', 'Tasse', 'Flasche', 'Kerze', 'Schlüssel', 'Telefon', 'Rucksack', 'Uhr', 'Eimer', 'Stift', 'Geige', 'Socke', 'Brille', 'Trommel', 'Hammer', 'Vase', 'Kette', 'Löffel', 'Würfel', 'Kamera', 'Fahrrad', 'Lampe', 'Blume', 'Bürste', 'Ring', 'Kiste', 'Jacke']",396.79805099999066,396.8007749998942,None,396.80090169992764,396.80235159990843,None,396.8024626999395,396.80390879989136,None,396.80401879991405,396.80519989994355,396.8052131999284,402.80963059992064,0,,,,,,,,,,,,,,,,,,,,,,,,,,,,,,,,,,,,,,,,,,,,,,,,2,2023-11-22_13h03.28.318,watkins1,2023.2.3,99.82122025094071,5,2023-11-22 13h03.39.890667 +0000,
,,,,,,,,,,,16,0,16,0,,,,,,,,,,,,,402.8195300999796,,,,,,,,,,,,402.80990949994884,403.3015113999136,,,[],[],,,,,,,,,,,,3.3850867999717593,None,,,,,trommel,,,,,Trommel,glänzend,"['Trommel', 'glänzend']",test_sub,2,,,,,,402.8098433999112,402.8098806999624,"['Buch', 'Hut', 'Schere', 'Tasche', 'Tasse', 'Flasche', 'Kerze', 'Schlüssel', 'Telefon', 'Rucksack', 'Uhr', 'Eimer', 'Stift', 'Geige', 'Socke', 'Brille', 'Trommel', 'Hammer', 'Vase', 'Kette', 'Löffel', 'Würfel', 'Kamera', 'Fahrrad', 'Lampe', 'Blume', 'Bürste', 'Ring', 'Kiste', 'Jacke']",403.30152209999505,403.3042967999354,None,403.3044191999361,403.3070019999286,None,403.3071135999635,403.30972339992877,None,403.3098340999568,403.31105869996827,403.31107139994856,409.31712769996375,0,,,,,,,,,,,,,,,,,,,,,,,,,,,,,,,,,,,,,,,,,,,,,,,,2,2023-11-22_13h03.28.318,watkins1,2023.2.3,99.82122025094071,5,2023-11-22 13h03.39.890667 +0000,
,,,,,,,,,,,17,0,17,0,,,,,,,,,,,,,409.32698669994716,,,,,,,,,,,,409.3174190999707,409.80898229999,,,[],[],,,,,,,,,,,,None,None,,,,,,,,,,Hammer,winzig,"['Hammer', 'winzig']",test_sub,2,,,,,,409.3173512999201,409.31738979998045,"['Buch', 'Hut', 'Schere', 'Tasche', 'Tasse', 'Flasche', 'Kerze', 'Schlüssel', 'Telefon', 'Rucksack', 'Uhr', 'Eimer', 'Stift', 'Geige', 'Socke', 'Brille', 'Trommel', 'Hammer', 'Vase', 'Kette', 'Löffel', 'Würfel', 'Kamera', 'Fahrrad', 'Lampe', 'Blume', 'Bürste', 'Ring', 'Kiste', 'Jacke']",409.8089928999543,409.8118763999082,None,409.8120031999424,409.8145876999479,None,409.8147004999919,409.817283899989,None,409.8173928000033,409.8185697000008,409.8185825999826,415.8250346999848,0,,,,,,,,,,,,,,,,,,,,,,,,,,,,,,,,,,,,,,,,,,,,,,,,2,2023-11-22_13h03.28.318,watkins1,2023.2.3,99.82122025094071,5,2023-11-22 13h03.39.890667 +0000,
,,,,,,,,,,,18,0,18,0,,,,,,,,,,,,,415.83481579995714,,,,,,,,,,,,415.82530989998486,416.3168732000049,,,[],[],,,,,,,,,,,,2.0388597999699414,None,,,,,trommel,,,,,Vase,strahlend,"['Vase', 'strahlend']",test_sub,2,,,,,,415.8252437999472,415.82528119999915,"['Buch', 'Hut', 'Schere', 'Tasche', 'Tasse', 'Flasche', 'Kerze', 'Schlüssel', 'Telefon', 'Rucksack', 'Uhr', 'Eimer', 'Stift', 'Geige', 'Socke', 'Brille', 'Trommel', 'Hammer', 'Vase', 'Kette', 'Löffel', 'Würfel', 'Kamera', 'Fahrrad', 'Lampe', 'Blume', 'Bürste', 'Ring', 'Kiste', 'Jacke']",416.3168835999677,416.3194749999093,None,416.31960009993054,416.3220120999031,None,416.32212499994785,416.3245407999493,None,416.32465089997277,416.32569849991705,416.3257112998981,422.33111989998724,0,,,,,,,,,,,,,,,,,,,,,,,,,,,,,,,,,,,,,,,,,,,,,,,,2,2023-11-22_13h03.28.318,watkins1,2023.2.3,99.82122025094071,5,2023-11-22 13h03.39.890667 +0000,
,,,,,,,,,,,19,0,19,0,,,,,,,,,,,,,422.34103339992,,,,,,,,,,,,422.33140109991655,422.82301189994905,,,[],[],,,,,,,,,,,,None,None,,,,,,,,,,Kette,schlicht,"['Kette', 'schlicht']",test_sub,2,,,,,,422.3313329999801,422.33137239993084,"['Buch', 'Hut', 'Schere', 'Tasche', 'Tasse', 'Flasche', 'Kerze', 'Schlüssel', 'Telefon', 'Rucksack', 'Uhr', 'Eimer', 'Stift', 'Geige', 'Socke', 'Brille', 'Trommel', 'Hammer', 'Vase', 'Kette', 'Löffel', 'Würfel', 'Kamera', 'Fahrrad', 'Lampe', 'Blume', 'Bürste', 'Ring', 'Kiste', 'Jacke']",422.8230222999118,422.8257946999511,None,422.82591459993273,422.82849019998685,None,422.82860109989997,422.8311877999222,None,422.83129709993955,422.83262459991965,422.832637699903,428.8390613999218,0,,,,,,,,,,,,,,,,,,,,,,,,,,,,,,,,,,,,,,,,,,,,,,,,2,2023-11-22_13h03.28.318,watkins1,2023.2.3,99.82122025094071,5,2023-11-22 13h03.39.890667 +0000,
,,,,,,,,,,,20,0,20,0,,,,,,,,,,,,,428.8489104999462,,,,,,,,,,,,428.83934299997054,429.3309954999713,,,[],[],,,,,,,,,,,,4.831084400066175,None,,,,,löffel,,,,,Löffel,zart,"['Löffel', 'zart']",test_sub,2,,,,,,428.8392747999169,428.83931449998636,"['Buch', 'Hut', 'Schere', 'Tasche', 'Tasse', 'Flasche', 'Kerze', 'Schlüssel', 'Telefon', 'Rucksack', 'Uhr', 'Eimer', 'Stift', 'Geige', 'Socke', 'Brille', 'Trommel', 'Hammer', 'Vase', 'Kette', 'Löffel', 'Würfel', 'Kamera', 'Fahrrad', 'Lampe', 'Blume', 'Bürste', 'Ring', 'Kiste', 'Jacke']",429.3310061999364,429.3338106999872,None,429.33393579989206,429.33675019990187,None,429.336861699936,429.3394680999918,None,429.33957889990415,429.3408521999372,429.34086529992055,435.3452013999922,0,,,,,,,,,,,,,,,,,,,,,,,,,,,,,,,,,,,,,,,,,,,,,,,,2,2023-11-22_13h03.28.318,watkins1,2023.2.3,99.82122025094071,5,2023-11-22 13h03.39.890667 +0000,
,,,,,,,,,,,21,0,21,0,,,,,,,,,,,,,435.35501349996775,,,,,,,,,,,,435.34548429993447,435.8371019999031,,,[],[],,,,,,,,,,,,None,None,,,,,,,,,,Würfel,gepunktet,"['Würfel', 'gepunktet']",test_sub,2,,,,,,435.34541579999495,435.3454556999495,"['Buch', 'Hut', 'Schere', 'Tasche', 'Tasse', 'Flasche', 'Kerze', 'Schlüssel', 'Telefon', 'Rucksack', 'Uhr', 'Eimer', 'Stift', 'Geige', 'Socke', 'Brille', 'Trommel', 'Hammer', 'Vase', 'Kette', 'Löffel', 'Würfel', 'Kamera', 'Fahrrad', 'Lampe', 'Blume', 'Bürste', 'Ring', 'Kiste', 'Jacke']",435.83711299998686,435.83966529997997,None,435.8397864999715,435.84216769994237,None,435.8422790999757,435.84465689992066,None,435.844766199938,435.8460668999469,435.8460799999302,441.8527734999079,0,,,,,,,,,,,,,,,,,,,,,,,,,,,,,,,,,,,,,,,,,,,,,,,,2,2023-11-22_13h03.28.318,watkins1,2023.2.3,99.82122025094071,5,2023-11-22 13h03.39.890667 +0000,
,,,,,,,,,,,22,0,22,0,,,,,,,,,,,,,441.8625528999837,,,,,,,,,,,,441.8530583999818,442.3446851999033,,,[],[],,,,,,,,,,,,2.360791299957782,None,,,,,kamera,,,,,Kamera,nachhaltig,"['Kamera', 'nachhaltig']",test_sub,2,,,,,,441.85298869991675,441.8530289999908,"['Buch', 'Hut', 'Schere', 'Tasche', 'Tasse', 'Flasche', 'Kerze', 'Schlüssel', 'Telefon', 'Rucksack', 'Uhr', 'Eimer', 'Stift', 'Geige', 'Socke', 'Brille', 'Trommel', 'Hammer', 'Vase', 'Kette', 'Löffel', 'Würfel', 'Kamera', 'Fahrrad', 'Lampe', 'Blume', 'Bürste', 'Ring', 'Kiste', 'Jacke']",442.34469659999013,442.3475107999984,None,442.3476382999215,442.350233099889,None,442.3503450999269,442.3529303999385,None,442.35303889994975,442.3542047999799,442.3542177999625,448.36020429991186,0,,,,,,,,,,,,,,,,,,,,,,,,,,,,,,,,,,,,,,,,,,,,,,,,2,2023-11-22_13h03.28.318,watkins1,2023.2.3,99.82122025094071,5,2023-11-22 13h03.39.890667 +0000,
,,,,,,,,,,,23,0,23,0,,,,,,,,,,,,,448.3701130999252,,,,,,,,,,,,448.360491600004,448.8521406999789,,,[],[],,,,,,,,,,,,None,None,,,,,,,,,,Fahrrad,matt,"['Fahrrad', 'matt']",restudy,2,,,,,,448.3604217999382,448.3604623998981,"['Buch', 'Hut', 'Schere', 'Tasche', 'Tasse', 'Flasche', 'Kerze', 'Schlüssel', 'Telefon', 'Rucksack', 'Uhr', 'Eimer', 'Stift', 'Geige', 'Socke', 'Brille', 'Trommel', 'Hammer', 'Vase', 'Kette', 'Löffel', 'Würfel', 'Kamera', 'Fahrrad', 'Lampe', 'Blume', 'Bürste', 'Ring', 'Kiste', 'Jacke']",448.852151799947,448.8550754999742,None,448.85520229989197,454.86195099994075,1,454.8622415999416,454.86476279993076,None,454.8648734999588,454.86616279999726,454.8661747999722,454.8675044999691,,1.6568709999555722,None,,,,,,,,,,,,,,,,,,,,,,,,,,,,,,,,,,,,,,,,,,,,,,2,2023-11-22_13h03.28.318,watkins1,2023.2.3,99.82122025094071,5,2023-11-22 13h03.39.890667 +0000,
,,,,,,,,,,,24,0,24,0,,,,,,,,,,,,,454.8713992999401,,,,,,,,,,,,454.86778549989685,455.3634622999234,,,[],[],,,,,,,,,,,,None,None,,,,,,,,,,Lampe,rustikal,"['Lampe', 'rustikal']",restudy,2,,,,,,454.8677203999832,454.8677589999279,"['Buch', 'Hut', 'Schere', 'Tasche', 'Tasse', 'Flasche', 'Kerze', 'Schlüssel', 'Telefon', 'Rucksack', 'Uhr', 'Eimer', 'Stift', 'Geige', 'Socke', 'Brille', 'Trommel', 'Hammer', 'Vase', 'Kette', 'Löffel', 'Würfel', 'Kamera', 'Fahrrad', 'Lampe', 'Blume', 'Bürste', 'Ring', 'Kiste', 'Jacke']",455.36347359989304,455.3659988999134,None,455.36612609995063,461.3706913999049,2,461.37098289991263,461.3737513999222,None,461.37386429996695,461.37501739989966,461.3750294999918,461.37623549997807,,3.009863599902019,None,,,,,,,,,,,,,,,,,,,,,,,,,,,,,,,,,,,,,,,,,,,,,,2,2023-11-22_13h03.28.318,watkins1,2023.2.3,99.82122025094071,5,2023-11-22 13h03.39.890667 +0000,
,,,,,,,,,,,25,0,25,0,,,,,,,,,,,,,461.3800786999054,,,,,,,,,,,,461.37651779991575,461.87221289996523,,,[],[],,,,,,,,,,,,None,None,,,,,,,,,,Blume,blass,"['Blume', 'blass']",restudy,2,,,,,,461.37644979998004,461.37649059994146,"['Buch', 'Hut', 'Schere', 'Tasche', 'Tasse', 'Flasche', 'Kerze', 'Schlüssel', 'Telefon', 'Rucksack', 'Uhr', 'Eimer', 'Stift', 'Geige', 'Socke', 'Brille', 'Trommel', 'Hammer', 'Vase', 'Kette', 'Löffel', 'Würfel', 'Kamera', 'Fahrrad', 'Lampe', 'Blume', 'Bürste', 'Ring', 'Kiste', 'Jacke']",461.8722245999379,461.87495899992064,None,461.87508709996473,467.88339289999567,2,467.88369049993344,467.8864498999901,None,467.8865647999337,467.88771049992647,467.88772269990295,467.8888666999992,,1.5808489000191912,None,,,,,,,,,,,,,,,,,,,,,,,,,,,,,,,,,,,,,,,,,,,,,,2,2023-11-22_13h03.28.318,watkins1,2023.2.3,99.82122025094071,5,2023-11-22 13h03.39.890667 +0000,
,,,,,,,,,,,26,0,26,0,,,,,,,,,,,,,467.89276560000144,,,,,,,,,,,,467.88914749992546,468.3848640999058,,,[],[],,,,,,,,,,,,None,None,,,,,,,,,,Bürste,kurz,"['Bürste', 'kurz']",test_sub,2,,,,,,467.8890816998901,467.8891201999504,"['Buch', 'Hut', 'Schere', 'Tasche', 'Tasse', 'Flasche', 'Kerze', 'Schlüssel', 'Telefon', 'Rucksack', 'Uhr', 'Eimer', 'Stift', 'Geige', 'Socke', 'Brille', 'Trommel', 'Hammer', 'Vase', 'Kette', 'Löffel', 'Würfel', 'Kamera', 'Fahrrad', 'Lampe', 'Blume', 'Bürste', 'Ring', 'Kiste', 'Jacke']",468.3848747999873,468.3875411999179,None,468.38766529993154,468.38910949998535,None,468.3892200998962,468.3906759999227,None,468.39078419993166,468.39197229989804,468.39198529999703,474.39510319998953,0,,,,,,,,,,,,,,,,,,,,,,,,,,,,,,,,,,,,,,,,,,,,,,,,2,2023-11-22_13h03.28.318,watkins1,2023.2.3,99.82122025094071,5,2023-11-22 13h03.39.890667 +0000,
,,,,,,,,,,,27,0,27,0,,,,,,,,,,,,,474.40490399999544,,,,,,,,,,,,474.3953898999607,474.8869856999954,,,[],[],,,,,,,,,,,,1.8378283000783995,None,,,,,ring,,,,,Ring,flach,"['Ring', 'flach']",test_sub,2,,,,,,474.39532249991316,474.3953593999613,"['Buch', 'Hut', 'Schere', 'Tasche', 'Tasse', 'Flasche', 'Kerze', 'Schlüssel', 'Telefon', 'Rucksack', 'Uhr', 'Eimer', 'Stift', 'Geige', 'Socke', 'Brille', 'Trommel', 'Hammer', 'Vase', 'Kette', 'Löffel', 'Würfel', 'Kamera', 'Fahrrad', 'Lampe', 'Blume', 'Bürste', 'Ring', 'Kiste', 'Jacke']",474.8869962999597,474.8894251999445,None,474.8895481999498,474.8918270999566,None,474.89193719998,474.89434659993276,None,474.8944577999646,474.89550809992943,474.8955215999158,480.90078919997904,0,,,,,,,,,,,,,,,,,,,,,,,,,,,,,,,,,,,,,,,,,,,,,,,,2,2023-11-22_13h03.28.318,watkins1,2023.2.3,99.82122025094071,5,2023-11-22 13h03.39.890667 +0000,
,,,,,,,,,,,28,0,28,0,,,,,,,,,,,,,480.91058839997277,,,,,,,,,,,,480.9010701999068,481.392696899944,,,[],[],,,,,,,,,,,,None,None,,,,,,,,,,Kiste,niedlich,"['Kiste', 'niedlich']",restudy,2,,,,,,480.90100239997264,480.9010407999158,"['Buch', 'Hut', 'Schere', 'Tasche', 'Tasse', 'Flasche', 'Kerze', 'Schlüssel', 'Telefon', 'Rucksack', 'Uhr', 'Eimer', 'Stift', 'Geige', 'Socke', 'Brille', 'Trommel', 'Hammer', 'Vase', 'Kette', 'Löffel', 'Würfel', 'Kamera', 'Fahrrad', 'Lampe', 'Blume', 'Bürste', 'Ring', 'Kiste', 'Jacke']",481.3927076999098,481.3954211999662,None,481.39555099990685,487.39933489996474,1,487.39967409998644,487.40250629989896,None,487.40262249996886,487.40377819992136,487.4037902998971,487.40529879997484,,3.156080999993719,None,,,,,,,,,,,,,,,,,,,,,,,,,,,,,,,,,,,,,,,,,,,,,,2,2023-11-22_13h03.28.318,watkins1,2023.2.3,99.82122025094071,5,2023-11-22 13h03.39.890667 +0000,
,,,,,,,,,,,29,0,29,0,,,,,,,,,,,,,487.40876569994725,,,,,,,,,,,,487.4055798999034,487.90085799992085,,,[],[],,,,,,,,,,,,None,None,,,,,,,,,,Jacke,breit,"['Jacke', 'breit']",restudy,2,,,,,,487.40551249997225,487.40555259992834,"['Buch', 'Hut', 'Schere', 'Tasche', 'Tasse', 'Flasche', 'Kerze', 'Schlüssel', 'Telefon', 'Rucksack', 'Uhr', 'Eimer', 'Stift', 'Geige', 'Socke', 'Brille', 'Trommel', 'Hammer', 'Vase', 'Kette', 'Löffel', 'Würfel', 'Kamera', 'Fahrrad', 'Lampe', 'Blume', 'Bürste', 'Ring', 'Kiste', 'Jacke']",487.9008696998935,487.9035997999599,None,487.90372780000325,493.9070274999831,1,493.907322099898,493.9100446999073,None,493.91015739995055,493.91132349998225,493.9113354999572,493.9124909999082,,1.5840861999895424,None,,,,,,,,,,,,,,,,,,,,,,,,,,,,,,,,,,,,,,,,,,,,,,2,2023-11-22_13h03.28.318,watkins1,2023.2.3,99.82122025094071,5,2023-11-22 13h03.39.890667 +0000,
,,,,,,,,,,,,,,,,,,,,,,,,,,,,,,,,,,,,,,,,,,,,,,,,,,,,,,,,,,,,,,,,,,,,,,,2,,,,,,,,,,,,,,,,,,,,,,,,,,,,,,,,,,,,,,,,,,,,,,,,,,,,,,,,,,,,,,,,,,,,,,2,2023-11-22_13h03.28.318,watkins1,2023.2.3,99.82122025094071,5,2023-11-22 13h03.39.890667 +0000,
(4 : 2) + 4 = 6 ,Correct,button_correct,,,,,,,,,,,,,0,0,0,1,,,,,,,,,517.7215168999974,,,,,,,,,,516.6628047999693,517.6667086998932,,,,,['button_incorrect'],[3.1808255000505596],,,,,,,,,,,,,,,,,,,,,,,,,,distractorTask,2,,,,,,,,,,,,,,,,,,,,,,,,,517.7110869999742,517.7215168999974,520.895837899996,[-0.28055555555555556],[-0.3851851851851852],[1],[0],[0],[3.1808255000505596],['button_incorrect'],520.896512099891,521.8995172999566,,,,,,,,,,,,,,,,,,,,,,,,,,,,,,,,,,2,2023-11-22_13h03.28.318,watkins1,2023.2.3,99.82122025094071,5,2023-11-22 13h03.39.890667 +0000,
(2 x 5) + 3 = 13 ,Correct,button_correct,,,,,,,,,,,,,0,1,1,2,,,,,,,,,521.9094631999033,,,,,,,,,,,,,,,,['button_correct'],[2.7179996999911964],,,,,,,,,,,,,,,,,,,,,,,,,,distractorTask,2,,,,,,,,,,,,,,,,,,,,,,,,,521.8997117999243,521.9094631999033,524.6211779000005,[0.2935185185185185],[-0.40370370370370373],[1],[0],[0],[2.7179996999911964],['button_correct'],524.621554399957,525.6248796998989,,,,,,,,,,,,,,,,,,,,,,,,,,,,,,,,,,2,2023-11-22_13h03.28.318,watkins1,2023.2.3,99.82122025094071,5,2023-11-22 13h03.39.890667 +0000,
(25 : 5) + 5 = 9 ,Incorrect,button_incorrect,,,,,,,,,,,,,0,2,2,6,,,,,,,,,525.6437286,,,,,,,,,,,,,,,,['button_incorrect'],[2.063256000052206],,,,,,,,,,,,,,,,,,,,,,,,,,distractorTask,2,,,,,,,,,,,,,,,,,,,,,,,,,525.6250674999319,525.6437286,527.7009476999519,[-0.40925925925925927],[-0.387037037037037],[1],[0],[0],[2.063256000052206],['button_incorrect'],527.701331899967,528.7047370999353,,,,,,,,,,,,,,,,,,,,,,,,,,,,,,,,,,2,2023-11-22_13h03.28.318,watkins1,2023.2.3,99.82122025094071,5,2023-11-22 13h03.39.890667 +0000,
(28 : 7) - 3 = 1 ,Correct,button_correct,,,,,,,,,,,,,0,3,3,0,,,,,,,,,528.7148086999077,,,,,,,,,,,,,,,,['button_correct'],[3.4525189999258146],,,,,,,,,,,,,,,,,,,,,,,,,,distractorTask,2,,,,,,,,,,,,,,,,,,,,,,,,,528.7049479999114,528.7148086999077,532.1609619999072,[0.42314814814814816],[-0.39537037037037037],[1],[0],[0],[3.4525189999258146],['button_correct'],532.1613718000008,533.1645405999152,,,,,,,,,,,,,,,,,,,,,,,,,,,,,,,,,,2,2023-11-22_13h03.28.318,watkins1,2023.2.3,99.82122025094071,5,2023-11-22 13h03.39.890667 +0000,
(40 : 5) + 8 = 15 ,Incorrect,button_incorrect,,,,,,,,,,,,,0,4,4,7,,,,,,,,,533.174583899905,,,,,,,,,,,,,,,,['button_incorrect'],[2.438606199924834],,,,,,,,,,,,,,,,,,,,,,,,,,distractorTask,2,,,,,,,,,,,,,,,,,,,,,,,,,533.1647325999802,533.174583899905,535.6059332999866,[-0.2814814814814815],[-0.3907407407407407],[1],[0],[0],[2.438606199924834],['button_incorrect'],535.6063121999614,536.6098574999487,,,,,,,,,,,,,,,,,,,,,,,,,,,,,,,,,,2,2023-11-22_13h03.28.318,watkins1,2023.2.3,99.82122025094071,5,2023-11-22 13h03.39.890667 +0000,
(6 x 3) + 10 = 27 ,Incorrect,button_incorrect,,,,,,,,,,,,,0,5,5,8,,,,,,,,,536.6199509999715,,,,,,,,,,,,,,,,['button_incorrect'],[2.2205353000899777],,,,,,,,,,,,,,,,,,,,,,,,,,distractorTask,2,,,,,,,,,,,,,,,,,,,,,,,,,536.6100619999925,536.6199509999715,538.8323829999426,[-0.3888888888888889],[-0.412962962962963],[1],[0],[0],[2.2205353000899777],['button_incorrect'],538.8327699999791,539.8360923998989,,,,,,,,,,,,,,,,,,,,,,,,,,,,,,,,,,2,2023-11-22_13h03.28.318,watkins1,2023.2.3,99.82122025094071,5,2023-11-22 13h03.39.890667 +0000,
(9 x 5) - 9 = 36 ,Correct,button_correct,,,,,,,,,,,,,0,6,6,4,,,,,,,,,539.8460706999758,,,,,,,,,,,,,,,,['button_correct'],[2.1278934000292793],,,,,,,,,,,,,,,,,,,,,,,,,,distractorTask,2,,,,,,,,,,,,,,,,,,,,,,,,,539.8362834999571,539.8460706999758,541.965896599926,[0.32685185185185184],[-0.40925925925925927],[1],[0],[0],[2.1278934000292793],['button_correct'],541.9662755999016,542.9696653999854,,,,,,,,,,,,,,,,,,,,,,,,,,,,,,,,,,2,2023-11-22_13h03.28.318,watkins1,2023.2.3,99.82122025094071,5,2023-11-22 13h03.39.890667 +0000,
(80 : 10) + 9 = 17 ,Correct,button_correct,,,,,,,,,,,,,0,7,7,3,,,,,,,,,542.9796493999893,,,,,,,,,,,,,,,,['button_correct'],[2.056826899992302],,,,,,,,,,,,,,,,,,,,,,,,,,distractorTask,2,,,,,,,,,,,,,,,,,,,,,,,,,542.9698578999378,542.9796493999893,545.0284481999697,[0.30462962962962964],[-0.40555555555555556],[1],[0],[0],[2.056826899992302],['button_correct'],545.0288224999094,546.0323442999506,,,,,,,,,,,,,,,,,,,,,,,,,,,,,,,,,,2,2023-11-22_13h03.28.318,watkins1,2023.2.3,99.82122025094071,5,2023-11-22 13h03.39.890667 +0000,
(7 x 6) + 9 = 48 ,Incorrect,button_incorrect,,,,,,,,,,,,,0,8,8,9,,,,,,,,,546.0422694999725,,,,,,,,,,,,,,,,['button_correct'],[2.1074448000872508],,,,,,,,,,,,,,,,,,,,,,,,,,distractorTask,2,,,,,,,,,,,,,,,,,,,,,,,,,546.032531099976,546.0422694999725,548.1416862999322,[0.41203703703703703],[-0.37592592592592594],[1],[0],[0],[2.1074448000872508],['button_correct'],548.1420603999868,549.1453518999042,,,,,,,,,,,,,,,,,,,,,,,,,,,,,,,,,,2,2023-11-22_13h03.28.318,watkins1,2023.2.3,99.82122025094071,5,2023-11-22 13h03.39.890667 +0000,
(54 : 6) - 10 = 0 ,Incorrect,button_incorrect,,,,,,,,,,,,,0,9,9,5,,,,,,,,,549.1553315999918,,,,,,,,,,,,,,,,['button_incorrect'],[2.890540999942459],,,,,,,,,,,,,,,,,,,,,,,,,,distractorTask,2,,,,,,,,,,,,,,,,,,,,,,,,,549.145546899992,549.1553315999918,552.0378190999618,[-0.3861111111111111],[-0.39166666666666666],[1],[0],[0],[2.890540999942459],['button_incorrect'],552.0381947999122,553.0417395998957,,,,,,,,,,,,,,,,,,,,,,,,,,,,,,,,,,2,2023-11-22_13h03.28.318,watkins1,2023.2.3,99.82122025094071,5,2023-11-22 13h03.39.890667 +0000,
,,,,,,,,,,,,,,,,,,,,,,,,,,,,,,,,,,,,,,,,,,,,,,,,,,,,,,,,,,,,,,,,,,,,,,,2,,,,,,,,,,,,,,,,,,,,,,,,,,,,,,,,,,,,,,,,,,,,,,,,,,,,,,,,,,,,,,,,,,,,,,2,2023-11-22_13h03.28.318,watkins1,2023.2.3,99.82122025094071,5,2023-11-22 13h03.39.890667 +0000,
,,,,,,,,,,,,,,,,,,,0,0,0,0,,,,,568.5534048998961,,,,,,,,,,,,,,,,kerze,10.715149299940094,,,,,,,,,,,,8.705541299888864,None,,,,,,,,,,,,,freeRecallSub,2,,,,,,,,,,,,,,,,,,,,,,,,,,,,,,,,,,,,,568.5449014999904,568.5534048998961,568.5534048998961,579.2779498999007,return,10.715149299940094,None,kerze,"[-0.01574074074074074, -0.003703703703703704]","[0.03888888888888889, 0.04722222222222222]","[1, 1]","[0, 0]","[0, 0]","[2.388361499994062, 2.92072970001027]",[],,,,,,,,,,,,,,,,,,,2,2023-11-22_13h03.28.318,watkins1,2023.2.3,99.82122025094071,5,2023-11-22 13h03.39.890667 +0000,
,,,,,,,,,,,,,,,,,,,1,0,1,0,,,,,579.2900990999769,,,,,,,,,,,,,,,,uhr,2.562408300000243,,,,,,,,,,,,1.9400043999776244,None,,,,,,,,,,,,,freeRecallSub,2,,,,,,,,,,,,,,,,,,,,,,,,,,,,,,,,,,,,,579.2797781999689,579.2900990999769,579.2900990999769,581.8623291999102,return,2.562408300000243,None,uhr,[],[],[],[],[],[],[],,,,,,,,,,,,,,,,,,,2,2023-11-22_13h03.28.318,watkins1,2023.2.3,99.82122025094071,5,2023-11-22 13h03.39.890667 +0000,
,,,,,,,,,,,,,,,,,,,2,0,2,0,,,,,581.8889445998939,,,,,,,,,,,,,,,,trommel,6.203473700094037,,,,,,,,,,,,4.188437500037253,None,,,,,,,,,,,,,freeRecallSub,2,,,,,,,,,,,,,,,,,,,,,,,,,,,,,,,,,,,,,581.8636081999866,581.8889445998939,581.8889445998939,588.1007368999999,return,6.203473700094037,None,trommel,[],[],[],[],[],[],[],,,,,,,,,,,,,,,,,,,2,2023-11-22_13h03.28.318,watkins1,2023.2.3,99.82122025094071,5,2023-11-22 13h03.39.890667 +0000,
,,,,,,,,,,,,,,,,,,,3,0,3,0,,,,,588.1117486999137,,,,,,,,,,,,,,,,rucksack,3.3967391999904066,,,,,,,,,,,,1.3362285000039265,None,,,,,,,,,,,,,freeRecallSub,2,,,,,,,,,,,,,,,,,,,,,,,,,,,,,,,,,,,,,588.1019754000008,588.1117486999137,588.1117486999137,591.5168889999622,return,3.3967391999904066,None,rucksack,[],[],[],[],[],[],[],,,,,,,,,,,,,,,,,,,2,2023-11-22_13h03.28.318,watkins1,2023.2.3,99.82122025094071,5,2023-11-22 13h03.39.890667 +0000,
,,,,,,,,,,,,,,,,,,,4,0,4,0,,,,,591.5281642999034,,,,,,,,,,,,,,,,geige,4.316337800002657,,,,,,,,,,,,1.2467449000105262,None,,,,,,,,,,,,,freeRecallSub,2,,,,,,,,,,,,,,,,,,,,,,,,,,,,,,,,,,,,,591.5181271999609,591.5281642999034,591.5281642999034,595.8478040999034,return,4.316337800002657,None,geige,[],[],[],[],[],[],[],,,,,,,,,,,,,,,,,,,2,2023-11-22_13h03.28.318,watkins1,2023.2.3,99.82122025094071,5,2023-11-22 13h03.39.890667 +0000,
,,,,,,,,,,,,,,,,,,,5,0,5,0,,,,,595.8591017998988,,,,,,,,,,,,,,,,jacke,1.9773209999548271,,,,,,,,,,,,0.6236648999620229,None,,,,,,,,,,,,,freeRecallSub,2,,,,,,,,,,,,,,,,,,,,,,,,,,,,,,,,,,,,,595.8490526999813,595.8591017998988,595.8591017998988,597.8384084999561,return,1.9773209999548271,None,jacke,[],[],[],[],[],[],[],,,,,,,,,,,,,,,,,,,2,2023-11-22_13h03.28.318,watkins1,2023.2.3,99.82122025094071,5,2023-11-22 13h03.39.890667 +0000,
,,,,,,,,,,,,,,,,,,,6,0,6,0,,,,,597.8498873999342,,,,,,,,,,,,,,,,kette,5.730571600026451,,,,,,,,,,,,3.877347599947825,None,,,,,,,,,,,,,freeRecallSub,2,,,,,,,,,,,,,,,,,,,,,,,,,,,,,,,,,,,,,597.8396611999488,597.8498873999342,597.8498873999342,603.5847131999908,return,5.730571600026451,None,kette,[],[],[],[],[],[],[],,,,,,,,,,,,,,,,,,,2,2023-11-22_13h03.28.318,watkins1,2023.2.3,99.82122025094071,5,2023-11-22 13h03.39.890667 +0000,
,,,,,,,,,,,,,,,,,,,7,0,7,0,,,,,603.5960988999577,,,,,,,,,,,,,,,,kiste,45.384312900016084,,,,,,,,,,,,41.92763599997852,43.91596989997197,,,,,,,,,,,,,freeRecallSub,2,,,,,,,,,,,,,,,,,,,,,,,,,,,,,,,,,,,,,603.5859656999819,603.5960988999577,603.5960988999577,648.9880019999109,return,45.384312900016084,None,kiste,[],[],[],[],[],[],[],,,,,,,,,,,,,,,,,,,2,2023-11-22_13h03.28.318,watkins1,2023.2.3,99.82122025094071,5,2023-11-22 13h03.39.890667 +0000,
,,,,,,,,,,,,,,,,,,,8,0,8,0,,,,,648.9995391999837,,,,,,,,,,,,,,,,hund,5.612893300014548,,,,,,,,,,,,3.5359684000723064,None,,,,,,,,,,,,,freeRecallSub,2,,,,,,,,,,,,,,,,,,,,,,,,,,,,,,,,,,,,,648.9892933999654,648.9995391999837,648.9995391999837,654.6139969999203,return,5.612893300014548,None,hund,[],[],[],[],[],[],[],,,,,,,,,,,,,,,,,,,2,2023-11-22_13h03.28.318,watkins1,2023.2.3,99.82122025094071,5,2023-11-22 13h03.39.890667 +0000,
,,,,,,,,,,,,,,,,,,,9,0,9,0,,,,,654.6262436999241,,,,,,,,,,,,,,,,katze,1.7142009000526741,,,,,,,,,,,,0.7759130999911577,None,,,,,,,,,,,,,freeRecallSub,2,,,,,,,,,,,,,,,,,,,,,,,,,,,,,,,,,,,,,654.615260599996,654.6262436999241,654.6262436999241,656.3452981999144,return,1.7142009000526741,None,katze,[],[],[],[],[],[],[],,,,,,,,,,,,,,,,,,,2,2023-11-22_13h03.28.318,watkins1,2023.2.3,99.82122025094071,5,2023-11-22 13h03.39.890667 +0000,
,,,,,,,,,,,,,,,,,,,10,0,10,0,,,,,656.3572355998913,,,,,,,,,,,,,,,,löffel,15.99918159993831,,,,,,,,,,,,13.999931799946353,None,,,,,,,,,,,,,freeRecallSub,2,,,,,,,,,,,,,,,,,,,,,,,,,,,,,,,,,,,,,656.3467420999659,656.3572355998913,656.3572355998913,672.3650465999963,return,15.99918159993831,None,löffel,[],[],[],[],[],[],[],,,,,,,,,,,,,,,,,,,2,2023-11-22_13h03.28.318,watkins1,2023.2.3,99.82122025094071,5,2023-11-22 13h03.39.890667 +0000,
,,,,,,,,,,,,,,,,,,,11,0,11,0,,,,,672.3777104999172,,,,,,,,,,,,,,,,ring,8.706688800011761,,,,,,,,,,,,7.574693899950944,None,,,,,,,,,,,,,freeRecallSub,2,,,,,,,,,,,,,,,,,,,,,,,,,,,,,,,,,,,,,672.3663113999646,672.3777104999172,672.3777104999172,681.0858589999843,return,8.706688800011761,None,ring,[],[],[],[],[],[],[],,,,,,,,,,,,,,,,,,,2,2023-11-22_13h03.28.318,watkins1,2023.2.3,99.82122025094071,5,2023-11-22 13h03.39.890667 +0000,
,,,,,,,,,,,,,,,,,,,12,0,12,0,,,,,681.0982576999813,,,,,,,,,,,,,,,,lampe,8.88214749994222,,,,,,,,,,,,7.654865799937397,None,,,,,,,,,,,,,freeRecallSub,2,,,,,,,,,,,,,,,,,,,,,,,,,,,,,,,,,,,,,681.0871097999625,681.0982576999813,681.0982576999813,689.9871229999699,return,8.88214749994222,None,lampe,[],[],[],[],[],[],[],,,,,,,,,,,,,,,,,,,2,2023-11-22_13h03.28.318,watkins1,2023.2.3,99.82122025094071,5,2023-11-22 13h03.39.890667 +0000,
,,,,,,,,,,,,,,,,,,,13,0,13,0,,,,,689.9999840999953,,,,,,,,,,,,,,,,fahrrad,37.50044039997738,,,,,,,,,,,,35.51140990003478,None,,,,,,,,,,,,,freeRecallSub,2,,,,,,,,,,,,,,,,,,,,,,,,,,,,,,,,,,,,,689.9883713999297,689.9999840999953,689.9999840999953,727.5081381999189,return,37.50044039997738,None,fahrrad,[],[],[],[],[],[],[],,,,,,,,,,,,,,,,,,,2,2023-11-22_13h03.28.318,watkins1,2023.2.3,99.82122025094071,5,2023-11-22 13h03.39.890667 +0000,
,,,,,,,,,,,,,,,,,,,14,0,14,0,,,,,727.5209051999263,,,,,,,,,,,,,,,,schlüssel,27.14743760006968,,,,,,,,,,,,23.060508799972013,None,,,,,,,,,,,,,freeRecallSub,2,,,,,,,,,,,,,,,,,,,,,,,,,,,,,,,,,,,,,727.5094022999983,727.5209051999263,727.5209051999263,754.6773436999647,return,27.14743760006968,None,schlüssel,[],[],[],[],[],[],[],,,,,,,,,,,,,,,,,,,2,2023-11-22_13h03.28.318,watkins1,2023.2.3,99.82122025094071,5,2023-11-22 13h03.39.890667 +0000,
,,,,,,,,,,,,,,,,,,,15,0,15,0,,,,,754.6919848999241,,,,,,,,,,,,,,,,hut,11.344396200031042,,,,,,,,,,,,8.382194899953902,None,,,,,,,,,,,,,freeRecallSub,2,,,,,,,,,,,,,,,,,,,,,,,,,,,,,,,,,,,,,754.6786125999643,754.6919848999241,754.6919848999241,766.0431279999902,return,11.344396200031042,None,hut,[],[],[],[],[],[],[],,,,,,,,,,,,,,,,,,,2,2023-11-22_13h03.28.318,watkins1,2023.2.3,99.82122025094071,5,2023-11-22 13h03.39.890667 +0000,
,,,,,,,,,,,,,,,,,,,16,0,16,0,,,,,766.0562626000028,,,,,,,,,,,,,,,,,[],,,,,,,,,,,,None,None,,,,,,,,,,,,,freeRecallSub,2,,,,,,,,,,,,,,,,,,,,,,,,,,,,,,,,,,,,,766.0444500999292,766.0562626000028,766.0562626000028,800.3333763999399,None,,,,[0.16666666666666666],[-0.40925925925925927],[1],[0],[0],[34.283468700014055],"['button_continue', 'continue_text']",,,,,,,,,,,,,,,,,,,2,2023-11-22_13h03.28.318,watkins1,2023.2.3,99.82122025094071,5,2023-11-22 13h03.39.890667 +0000,
,,,,,,,,,,,,,,,,,,,,,,,,,,,,,,,,,,,,,,,,,,,,,,,,,,,,,,,,,,,,,,,,,,,,,,,2,,,,,,,,,,,,,,,,,,,,,,,,,,,,,,,,,,,,,,,,,,,,,,,,,,,,,,,,,,,,,,,,,,,,,,2,2023-11-22_13h03.28.318,watkins1,2023.2.3,99.82122025094071,5,2023-11-22 13h03.39.890667 +0000,
,,,,,,,,,,,,,,,,,,,,,,,0,0,0,0,806.3997539998963,,,,,,,,,,,,811.594944799901,812.09318299999,,,,5.188506399979815,,,,,,,,,,,,None,None,,,,,,,,,,Geige,,,cuedRecallAdj,2,,,,,,,,,,,,,,,,,,,,,,0,,,,,,,,,,,,,,,,,,,,,,,,,,,,,,806.3904687999748,806.3997539998963,806.3997539998963,811.59154449997,schwer,return,5.188506399979815,None,811.5919337999076,811.6012032999424,811.6012032999424,811.5947925999062,,None,,,,,2,2023-11-22_13h03.28.318,watkins1,2023.2.3,99.82122025094071,5,2023-11-22 13h03.39.890667 +0000,
,,,,,,,,,,,,,,,,,,,,,,,1,0,1,0,812.1032357999356,,,,,,,,,,,,815.0788639999228,815.5776166999713,,,,2.964993800036609,,,,,,,,,,,,None,None,,,,,,,,,,Ring,,,cuedRecallAdj,2,,,,,,,,,,,,,,,,,,,,,,0,,,,,,,,,,,,,,,,,,,,,,,,,,,,,,812.0934169999091,812.1032357999356,812.1032357999356,815.0758637998952,flach,return,2.964993800036609,None,815.0761273999233,815.0855872998945,815.0855872998945,815.0787611999549,,None,,,,,2,2023-11-22_13h03.28.318,watkins1,2023.2.3,99.82122025094071,5,2023-11-22 13h03.39.890667 +0000,
,,,,,,,,,,,,,,,,,,,,,,,2,0,2,0,815.5875762999058,,,,,,,,,,,,822.3691576999845,822.8678079999518,,,,6.768644800060429,,,,,,,,,,,,None,None,,,,,,,,,,Kiste,,,cuedRecallAdj,2,,,,,,,,,,,,,,,,,,,,,,0,,,,,,,,,,,,,,,,,,,,,,,,,,,,,,815.5778603999643,815.5875762999058,815.5875762999058,822.3659525999101,niedlich,return,6.768644800060429,None,822.3662173999473,822.3756715999916,822.3756715999916,822.3690575999208,,None,,,,,2,2023-11-22_13h03.28.318,watkins1,2023.2.3,99.82122025094071,5,2023-11-22 13h03.39.890667 +0000,
,,,,,,,,,,,,,,,,,,,,,,,3,0,3,0,822.8777547999052,,,,,,,,,,,,827.8718526999,828.370506499894,,,,4.990460000000894,,,,,,,,,,,,None,None,,,,,,,,,,Blume,,,cuedRecallAdj,2,,,,,,,,,,,,,,,,,,,,,,0,,,,,,,,,,,,,,,,,,,,,,,,,,,,,,822.8680508999387,822.8777547999052,822.8777547999052,827.8688596999273,blass,return,4.990460000000894,None,827.8691314999014,827.8784700999968,827.8784700999968,827.8717518999474,,None,,,,,2,2023-11-22_13h03.28.318,watkins1,2023.2.3,99.82122025094071,5,2023-11-22 13h03.39.890667 +0000,
,,,,,,,,,,,,,,,,,,,,,,,4,0,4,0,828.3804248999804,,,,,,,,,,,,831.2959959999425,831.7946671999525,,,,2.9037818999495357,,,,,,,,,,,,None,None,,,,,,,,,,Lampe,,,cuedRecallAdj,2,,,,,,,,,,,,,,,,,,,,,,0,,,,,,,,,,,,,,,,,,,,,,,,,,,,,,828.3707496999996,828.3804248999804,828.3804248999804,831.2929761999985,rustikal,return,2.9037818999495357,None,831.2932441999437,831.3027091999538,831.3027091999538,831.2958932999754,,None,,,,,2,2023-11-22_13h03.28.318,watkins1,2023.2.3,99.82122025094071,5,2023-11-22 13h03.39.890667 +0000,
,,,,,,,,,,,,,,,,,,,,,,,5,0,5,0,831.8047203999013,,,,,,,,,,,,833.776228499948,834.2750409999862,,,,1.96745890006423,,,,,,,,,,,,None,None,,,,,,,,,,Fahrrad,,,cuedRecallAdj,2,,,,,,,,,,,,,,,,,,,,,,0,,,,,,,,,,,,,,,,,,,,,,,,,,,,,,831.794954599929,831.8047203999013,831.8047203999013,833.7733385999454,matt,return,1.96745890006423,None,833.7736065998906,833.7828934999416,833.7828934999416,833.7761270999908,,None,,,,,2,2023-11-22_13h03.28.318,watkins1,2023.2.3,99.82122025094071,5,2023-11-22 13h03.39.890667 +0000,
,,,,,,,,,,,,,,,,,,,,,,,6,0,6,0,834.2849791999906,,,,,,,,,,,,837.5418222999433,838.0404979999876,,,,3.247200299985707,,,,,,,,,,,,None,None,,,,,,,,,,Bürste,,,cuedRecallAdj,2,,,,,,,,,,,,,,,,,,,,,,0,,,,,,,,,,,,,,,,,,,,,,,,,,,,,,834.2752953999443,834.2849791999906,834.2849791999906,837.5389359999681,kurz,return,3.247200299985707,None,837.5392045999179,837.5484731999459,837.5484731999459,837.5417211999884,,None,,,,,2,2023-11-22_13h03.28.318,watkins1,2023.2.3,99.82122025094071,5,2023-11-22 13h03.39.890667 +0000,
,,,,,,,,,,,,,,,,,,,,,,,7,0,7,0,838.0505457998952,,,,,,,,,,,,841.7294336999767,842.2285909999628,,,,3.6657715999754146,,,,,,,,,,,,None,None,,,,,,,,,,Kerze,,,cuedRecallAdj,2,,,,,,,,,,,,,,,,,,,,,,0,,,,,,,,,,,,,,,,,,,,,,,,,,,,,,838.0407341999235,838.0505457998952,838.0505457998952,841.7264157999307,biegsam,return,3.6657715999754146,None,841.7266803999664,841.7361372999148,841.7361372999148,841.7293328999076,,None,,,,,2,2023-11-22_13h03.28.318,watkins1,2023.2.3,99.82122025094071,5,2023-11-22 13h03.39.890667 +0000,
,,,,,,,,,,,,,,,,,,,,,,,8,0,8,0,842.2385885999538,,,,,,,,,,,,849.7130212999182,850.2116580998991,,,,7.46967899997253,,,,,,,,,,,,None,None,,,,,,,,,,Brille,,,cuedRecallAdj,2,,,,,,,,,,,,,,,,,,,,,,0,,,,,,,,,,,,,,,,,,,,,,,,,,,,,,842.228830399923,842.2385885999538,842.2385885999538,849.7100058998913,winzig,return,7.46967899997253,None,849.7102835999103,849.7195529999444,849.7195529999444,849.7129196999595,,None,,,,,2,2023-11-22_13h03.28.318,watkins1,2023.2.3,99.82122025094071,5,2023-11-22 13h03.39.890667 +0000,
,,,,,,,,,,,,,,,,,,,,,,,9,0,9,0,850.2217095999513,,,,,,,,,,,,852.7956762999529,853.2943672999972,,,,2.5665235000196844,,,,,,,,,,,,None,None,,,,,,,,,,Jacke,,,cuedRecallAdj,2,,,,,,,,,,,,,,,,,,,,,,0,,,,,,,,,,,,,,,,,,,,,,,,,,,,,,850.2119022998959,850.2217095999513,850.2217095999513,852.7927150999894,breit,return,2.5665235000196844,None,852.7929811999202,852.8022654999513,852.8022654999513,852.7955742999911,,None,,,,,2,2023-11-22_13h03.28.318,watkins1,2023.2.3,99.82122025094071,5,2023-11-22 13h03.39.890667 +0000,
,,,,,,,,,,,,,,,,,,,,,,,10,0,10,0,853.3042961999308,,,,,,,,,,,,859.734472299926,860.2246853999095,,,,6.420008199987933,,,,,,,,,,,,None,None,,,,,,,,,,Rucksack,,,cuedRecallAdj,2,,,,,,,,,,,,,,,,,,,,,,0,,,,,,,,,,,,,,,,,,,,,,,,,,,,,,853.2946347999386,853.3042961999308,853.3042961999308,859.731361299986,gestreift,return,6.420008199987933,None,859.7316235000035,859.7410816999618,859.7410816999618,859.734370399965,,None,,,,,2,2023-11-22_13h03.28.318,watkins1,2023.2.3,99.82122025094071,5,2023-11-22 13h03.39.890667 +0000,
,,,,,,,,,,,,,,,,,,,,,,,11,0,11,0,860.2345403999789,,,,,,,,,,,,867.0864772999194,867.5849130999995,,,,6.841587899951264,,,,,,,,,,,,None,None,,,,,,,,,,Kamera,,,cuedRecallAdj,2,,,,,,,,,,,,,,,,,,,,,,0,,,,,,,,,,,,,,,,,,,,,,,,,,,,,,860.2249675999628,860.2345403999789,860.2345403999789,867.0832200999139,nachhaltig,return,6.841587899951264,None,867.083488299977,867.0927750999108,867.0927750999108,867.0863749999553,,None,,,,,2,2023-11-22_13h03.28.318,watkins1,2023.2.3,99.82122025094071,5,2023-11-22 13h03.39.890667 +0000,
,,,,,,,,,,,,,,,,,,,,,,,12,0,12,0,867.5949504999444,,,,,,,,,,,,911.4399663999211,911.9384824999142,,,,43.833180199959315,,,,,,,,,,,,None,None,,,,,,,,,,Flasche,,,cuedRecallAdj,2,,,,,,,,,,,,,,,,,,,,,,0,,,,,,,,,,,,,,,,,,,,,,,,,,,,,,867.5851576999994,867.5949504999444,867.5949504999444,911.43669579993,zerkratzt,return,43.833180199959315,None,911.4369622999802,911.4463956999825,911.4463956999825,911.439863299951,,None,,,,,2,2023-11-22_13h03.28.318,watkins1,2023.2.3,99.82122025094071,5,2023-11-22 13h03.39.890667 +0000,
,,,,,,,,,,,,,,,,,,,,,,,13,0,13,0,911.9484262999613,,,,,,,,,,,,919.7644819999114,920.263243699912,,,,7.807669200003147,,,,,,,,,,,,None,None,,,,,,,,,,Uhr,,,cuedRecallAdj,2,,,,,,,,,,,,,,,,,,,,,,0,,,,,,,,,,,,,,,,,,,,,,,,,,,,,,911.9387321999529,911.9484262999613,911.9484262999613,919.7615747998934,verspielt,return,7.807669200003147,None,919.7618412999436,919.771133299917,919.771133299917,919.764381499961,,None,,,,,2,2023-11-22_13h03.28.318,watkins1,2023.2.3,99.82122025094071,5,2023-11-22 13h03.39.890667 +0000,
,,,,,,,,,,,,,,,,,,,,,,,14,0,14,0,920.2731900999788,,,,,,,,,,,,929.0328053999692,929.5314182000002,,,,8.754896600032225,,,,,,,,,,,,None,None,,,,,,,,,,Löffel,,,cuedRecallAdj,2,,,,,,,,,,,,,,,,,,,,,,0,,,,,,,,,,,,,,,,,,,,,,,,,,,,,,920.2634923999431,920.2731900999788,920.2731900999788,929.0298138998915,glatt,return,8.754896600032225,None,929.0300767999142,929.039422199945,929.039422199945,929.0327036998933,,None,,,,,2,2023-11-22_13h03.28.318,watkins1,2023.2.3,99.82122025094071,5,2023-11-22 13h03.39.890667 +0000,
,,,,,,,,,,,,,,,,,,,,,,,15,0,15,0,929.5414246999426,,,,,,,,,,,,935.0480423999252,935.5467564999126,,,,5.502700899960473,,,,,,,,,,,,None,None,,,,,,,,,,Hut,,,cuedRecallAdj,2,,,,,,,,,,,,,,,,,,,,,,0,,,,,,,,,,,,,,,,,,,,,,,,,,,,,,929.5316571999574,929.5414246999426,929.5414246999426,935.0451390999369,flauschig,return,5.502700899960473,None,935.0454016999574,935.0546303999145,935.0546303999145,935.0479414999718,,None,,,,,2,2023-11-22_13h03.28.318,watkins1,2023.2.3,99.82122025094071,5,2023-11-22 13h03.39.890667 +0000,
,,,,,,,,,,,,,,,,,,,,,,,16,0,16,0,935.5566956999246,,,,,,,,,,,,969.9981445999583,970.4966600999469,,,,34.4314528000541,,,,,,,,,,,,None,None,,,,,,,,,,Kette,,,cuedRecallAdj,2,,,,,,,,,,,,,,,,,,,,,,0,,,,,,,,,,,,,,,,,,,,,,,,,,,,,,935.5470022999216,935.5566956999246,935.5566956999246,969.994878700003,unscheinbar,return,34.4314528000541,None,969.9951605999377,970.0044667999027,970.0044667999027,969.9980416999897,,None,,,,,2,2023-11-22_13h03.28.318,watkins1,2023.2.3,99.82122025094071,5,2023-11-22 13h03.39.890667 +0000,
,,,,,,,,,,,,,,,,,,,,,,,17,0,17,0,970.5065828999504,,,,,,,,,,,,975.0291490999516,975.5274672999512,,,,4.513598300050944,,,,,,,,,,,,None,None,,,,,,,,,,Trommel,,,cuedRecallAdj,2,,,,,,,,,,,,,,,,,,,,,,0,,,,,,,,,,,,,,,,,,,,,,,,,,,,,,970.4969074999681,970.5065828999504,970.5065828999504,975.0258171999594,glänzend,return,4.513598300050944,None,975.026073499932,975.0353635998908,975.0353635998908,975.0290485000005,,None,,,,,2,2023-11-22_13h03.28.318,watkins1,2023.2.3,99.82122025094071,5,2023-11-22 13h03.39.890667 +0000,
,,,,,,,,,,,,,,,,,,,,,,,18,0,18,0,975.5374444999034,,,,,,,,,,,,984.3978315999266,984.8963592998916,,,,8.850557200028561,,,,,,,,,,,,None,None,,,,,,,,,,Telefon,,,cuedRecallAdj,2,,,,,,,,,,,,,,,,,,,,,,0,,,,,,,,,,,,,,,,,,,,,,,,,,,,,,975.5277121999534,975.5374444999034,975.5374444999034,984.3946777998935,durchsichtig,return,8.850557200028561,None,984.3949427999323,984.4042493999004,984.4042493999004,984.3977275999496,,None,,,,,2,2023-11-22_13h03.28.318,watkins1,2023.2.3,99.82122025094071,5,2023-11-22 13h03.39.890667 +0000,
,,,,,,,,,,,,,,,,,,,,,,,19,0,19,0,984.906306299963,,,,,,,,,,,,990.2819690000033,990.7805782998912,,,,5.369775900035165,,,,,,,,,,,,None,None,,,,,,,,,,Schere,,,cuedRecallAdj,2,,,,,,,,,,,,,,,,,,,,,,0,,,,,,,,,,,,,,,,,,,,,,,,,,,,,,984.8965988999698,984.906306299963,984.906306299963,990.2789562999969,klobig,return,5.369775900035165,None,990.2792279999703,990.2885574999964,990.2885574999964,990.2818666999228,,None,,,,,2,2023-11-22_13h03.28.318,watkins1,2023.2.3,99.82122025094071,5,2023-11-22 13h03.39.890667 +0000,
,,,,,,,,,,,,,,,,,,,,,,,20,0,20,0,990.7904845000012,,,,,,,,,,,,998.4962144999299,998.9948804999003,,,,7.7016160999191925,,,,,,,,,,,,None,None,,,,,,,,,,Hammer,,,cuedRecallAdj,2,,,,,,,,,,,,,,,,,,,,,,0,,,,,,,,,,,,,,,,,,,,,,,,,,,,,,990.7808182999725,990.7904845000012,990.7904845000012,998.493184999912,winzig,return,7.7016160999191925,None,998.4934504999546,998.5027261999203,998.5027261999203,998.4961016000016,,None,,,,,2,2023-11-22_13h03.28.318,watkins1,2023.2.3,99.82122025094071,5,2023-11-22 13h03.39.890667 +0000,
,,,,,,,,,,,,,,,,,,,,,,,21,0,21,0,999.0048230999382,,,,,,,,,,,,1002.854370099958,1003.3531573999207,,,,3.8392790000652894,,,,,,,,,,,,None,None,,,,,,,,,,Würfel,,,cuedRecallAdj,2,,,,,,,,,,,,,,,,,,,,,,0,,,,,,,,,,,,,,,,,,,,,,,,,,,,,,998.9951157999458,999.0048230999382,999.0048230999382,1002.8512821999611,gepunktet,return,3.8392790000652894,None,1002.8515480998904,1002.8609595999587,1002.8609595999587,1002.8542679999955,,None,,,,,2,2023-11-22_13h03.28.318,watkins1,2023.2.3,99.82122025094071,5,2023-11-22 13h03.39.890667 +0000,
,,,,,,,,,,,,,,,,,,,,,,,22,0,22,0,1003.3630523999454,,,,,,,,,,,,1006.831838699989,1007.3306409999495,,,,3.4650088000344113,,,,,,,,,,,,None,None,,,,,,,,,,Socke,,,cuedRecallAdj,2,,,,,,,,,,,,,,,,,,,,,,0,,,,,,,,,,,,,,,,,,,,,,,,,,,,,,1003.3534008999122,1003.3630523999454,1003.3630523999454,1006.8289337999886,glatt,return,3.4650088000344113,None,1006.8291928999824,1006.8384919998934,1006.8384919998934,1006.8317393999314,,None,,,,,2,2023-11-22_13h03.28.318,watkins1,2023.2.3,99.82122025094071,5,2023-11-22 13h03.39.890667 +0000,
,,,,,,,,,,,,,,,,,,,,,,,23,0,23,0,1007.3405863998923,,,,,,,,,,,,1023.9627042999491,1024.4613437999506,,,,16.61546709993854,,,,,,,,,,,,None,None,,,,,,,,,,Tasche,,,cuedRecallAdj,2,,,,,,,,,,,,,,,,,,,,,,0,,,,,,,,,,,,,,,,,,,,,,,,,,,,,,1007.3308829999296,1007.3405863998923,1007.3405863998923,1023.9596739999251,schmutzig,return,16.61546709993854,None,1023.9599390999647,1023.9692359999754,1023.9692359999754,1023.9626026999904,,None,,,,,2,2023-11-22_13h03.28.318,watkins1,2023.2.3,99.82122025094071,5,2023-11-22 13h03.39.890667 +0000,
,,,,,,,,,,,,,,,,,,,,,,,24,0,24,0,1024.4712877999991,,,,,,,,,,,,1055.373720399919,1055.8633640999906,,,,30.89268789999187,,,,,,,,,,,,None,None,,,,,,,,,,Tasse,,,cuedRecallAdj,2,,,,,,,,,,,,,,,,,,,,,,0,,,,,,,,,,,,,,,,,,,,,,,,,,,,,,1024.461585599929,1024.4712877999991,1024.4712877999991,1055.3714811999816,,return,30.89268789999187,None,1055.371745399898,1055.3813138999976,1055.3813138999976,1055.3736194999656,,None,,,,,2,2023-11-22_13h03.28.318,watkins1,2023.2.3,99.82122025094071,5,2023-11-22 13h03.39.890667 +0000,
,,,,,,,,,,,,,,,,,,,,,,,25,0,25,0,1055.8733192998916,,,,,,,,,,,,1058.4370681999717,1058.9360705999425,,,,2.554681499954313,,,,,,,,,,,,None,None,,,,,,,,,,Eimer,,,cuedRecallAdj,2,,,,,,,,,,,,,,,,,,,,,,0,,,,,,,,,,,,,,,,,,,,,,,,,,,,,,1055.8636069999775,1055.8733192998916,1055.8733192998916,1058.434265699936,hohl,return,2.554681499954313,None,1058.4345283999573,1058.4439192999853,1058.4439192999853,1058.4369646999985,,None,,,,,2,2023-11-22_13h03.28.318,watkins1,2023.2.3,99.82122025094071,5,2023-11-22 13h03.39.890667 +0000,
,,,,,,,,,,,,,,,,,,,,,,,26,0,26,0,1058.9460229999386,,,,,,,,,,,,1064.5023305999348,1065.0010694999946,,,,5.546070400043391,,,,,,,,,,,,None,None,,,,,,,,,,Vase,,,cuedRecallAdj,2,,,,,,,,,,,,,,,,,,,,,,0,,,,,,,,,,,,,,,,,,,,,,,,,,,,,,1058.9363122999202,1058.9460229999386,1058.9460229999386,1064.4992248999188,strahlend,return,5.546070400043391,None,1064.4994914999697,1064.50904429995,1064.50904429995,1064.5022270999616,,None,,,,,2,2023-11-22_13h03.28.318,watkins1,2023.2.3,99.82122025094071,5,2023-11-22 13h03.39.890667 +0000,
,,,,,,,,,,,,,,,,,,,,,,,27,0,27,0,1065.0109760999912,,,,,,,,,,,,1069.4325626998907,1069.9314311000053,,,,4.408980099949986,,,,,,,,,,,,None,None,,,,,,,,,,Stift,,,cuedRecallAdj,2,,,,,,,,,,,,,,,,,,,,,,0,,,,,,,,,,,,,,,,,,,,,,,,,,,,,,1065.0013065999374,1065.0109760999912,1065.0109760999912,1069.429584199912,robust,return,4.408980099949986,None,1069.4298533999827,1069.4393035999965,1069.4393035999965,1069.432461899938,,None,,,,,2,2023-11-22_13h03.28.318,watkins1,2023.2.3,99.82122025094071,5,2023-11-22 13h03.39.890667 +0000,
,,,,,,,,,,,,,,,,,,,,,,,28,0,28,0,1069.941432399908,,,,,,,,,,,,1074.6644814999308,1075.16313599993,,,,4.710569800110534,,,,,,,,,,,,None,None,,,,,,,,,,Schlüssel,,,cuedRecallAdj,2,,,,,,,,,,,,,,,,,,,,,,0,,,,,,,,,,,,,,,,,,,,,,,,,,,,,,1069.931667399942,1069.941432399908,1069.941432399908,1074.661169399973,praktisch,return,4.710569800110534,None,1074.661432199995,1074.6708929999731,1074.6708929999731,1074.6643802999752,,None,,,,,2,2023-11-22_13h03.28.318,watkins1,2023.2.3,99.82122025094071,5,2023-11-22 13h03.39.890667 +0000,
,,,,,,,,,,,,,,,,,,,,,,,29,0,29,0,1075.1730849999003,,,,,,,,,,,,1078.6707429999951,1079.1696593998931,,,,3.4869447998935357,,,,,,,,,,,,None,None,,,,,,,,,,Buch,,,cuedRecallAdj,2,,,,,,,,,,,,,,,,,,,,,,0,,,,,,,,,,,,,,,,,,,,,,,,,,,,,,1075.1633808999322,1075.1730849999003,1075.1730849999003,1078.6679038999137,kaputt,return,3.4869447998935357,None,1078.6681695999578,1078.6776213999838,1078.6776213999838,1078.670641799923,,None,,,,,2,2023-11-22_13h03.28.318,watkins1,2023.2.3,99.82122025094071,5,2023-11-22 13h03.39.890667 +0000,
,,,,,,,,,,,,,,,,,,,,,,,,,,,,,,,,,,,,,,,,,,,,,,,,,,,,,,,,,,,,,,,,,,,,,,,2,,,,,,,,,,,,,,,,,,,,,,,,,,,,,,,,,,,,,,,,,,,,,,,,,,,,,,,,,,,,,,,,,,1079.1869545999216,q,1382.7995821000077,None,2,2023-11-22_13h03.28.318,watkins1,2023.2.3,99.82122025094071,5,2023-11-22 13h03.39.890667 +0000,
