Equation,CorrectResponse,Correctbutton,trials_7.thisRepN,trials_7.thisTrialN,trials_7.thisN,trials_7.thisIndex,trials.thisRepN,trials.thisTrialN,trials.thisN,trials.thisIndex,trials_3.thisRepN,trials_3.thisTrialN,trials_3.thisN,trials_3.thisIndex,trials_2.thisRepN,trials_2.thisTrialN,trials_2.thisN,trials_2.thisIndex,trials_4.thisRepN,trials_4.thisTrialN,trials_4.thisN,trials_4.thisIndex,trials_5.thisRepN,trials_5.thisTrialN,trials_5.thisN,trials_5.thisIndex,thisRow.t,notes,list_sub_restudy,list_sub_testsub,code_marius.started,code_marius.stopped,welcome.started,welcome.stopped,instruction_study.started,instruction_study.stopped,fixationcross.started,fixationcross.stopped,blanc.started,blanc.stopped,study_control_probe.started,study_control_probe.stopped,responseKey,responseTime,scale_answer_2.keys,study_control_probe_2.started,study_control_probe_2.stopped,scale_answer_3.keys,scale_answer_3.rt,scale_answer_3.duration,blanc_2.started,blanc_2.stopped,test_attr_probe.started,test_attr_probe.stopped,recalled_attr,firstKeyTime,secondWordTime,blanc_3.started,blanc_3.stopped,test_sub_probe.started,test_sub_probe.stopped,recalled_sub,instruction_probe_end.started,instruction_probe_end.stopped,study.started,study.stopped,substantive,adjective,wordpair,task,condition,liste_sub_phase1,liste_adj_phase1,scale_answer.keys,scale_answer.rt,scale_answer.duration,code_defineWordsInit.started,code_defineWordsInit.stopped,liste_sub_phase2,study_control.started,study_control.stopped,scale_answer_4.keys,restudy_same.started,restudy_same.stopped,scale_answer_5.keys,scale_answer_5.rt,scale_answer_5.duration,restudy_different.started,restudy_different.stopped,scale_answer_6.keys,test_attr.started,test_attr.stopped,test_sub.started,test_sub.stopped,correct,distractortask.started,equation_text.started,distractortask.stopped,mouse_answer.x,mouse_answer.y,mouse_answer.leftButton,mouse_answer.midButton,mouse_answer.rightButton,mouse_answer.time,mouse_answer.clicked_name,feedback_distractortask.started,feedback_distractortask.stopped,free_recall.started,text_enter.started,key_resp.started,free_recall.stopped,key_resp.keys,key_resp.rt,key_resp.duration,free_recalled_sub,mouse_continue.x,mouse_continue.y,mouse_continue.leftButton,mouse_continue.midButton,mouse_continue.rightButton,mouse_continue.time,mouse_continue.clicked_name,cued_recall.started,text_enter_2.started,key_continue.started,cued_recall.stopped,recalled_attr1,key_continue.keys,key_continue.rt,key_continue.duration,cued_recall_2.started,text_enter_3.started,key_continue_2.started,cued_recall_2.stopped,recalled_attr2,key_continue_2.keys,key_resp_8.started,key_resp_8.keys,key_resp_8.rt,key_resp_8.duration,condition,date,expName,psychopyVersion,frameRate,participant,expStart,
,,,,,,,,,,,,,,,,,,,,,,,,,,,,,"['Fahrrad', 'Flasche', 'Eimer', 'Würfel', 'Löffel', 'Socke', 'Schere', 'Hammer', 'Ring', 'Hut', 'Vase', 'Rucksack', 'Uhr', 'Kiste', 'Lampe']","['Geige', 'Buch', 'Trommel', 'Stift', 'Jacke', 'Telefon', 'Tasse', 'Schlüssel', 'Kerze', 'Kette', 'Bürste', 'Tasche', 'Blume', 'Brille', 'Kamera']",0.11441150004975498,0.11447770008817315,0.11448640003800392,5.937105500139296,,,,,,,,,,,,,,,,,,,,,,,,,,,,,,,,,,,,,2,,,,,,,,,,,,,,,,,,,,,,,,,,,,,,,,,,,,,,,,,,,,,,,,,,,,,,,,,,,,,,,,,,,,,,2,2024-01-30_12h01.14.746,watkins1,2023.2.3,99.6706879991844,103,2024-01-30 12h01.21.815605 +0000,
,,,,,,,,,,,,,,,,,,,,,,,,,,,,,,,,,,,5.9371557999402285,55.66198240010999,,,,,,,,,,,,,,,,,,,,,,,,,,,,,,,,,,,2,,,,,,,,,,,,,,,,,,,,,,,,,,,,,,,,,,,,,,,,,,,,,,,,,,,,,,,,,,,,,,,,,,,,,,2,2024-01-30_12h01.14.746,watkins1,2023.2.3,99.6706879991844,103,2024-01-30 12h01.21.815605 +0000,
,,,0,0,0,0,,,,,,,,,,,,,,,,,,,,,56.675445599947125,,,,,,,,,,55.66199880000204,56.665419900091365,63.16811760002747,63.65960090002045,57.157743599964306,63.16795550007373,1,2.665723399957642,None,63.659612900111824,69.66563459997997,1,2.665723399957642,None,69.66592009994201,69.66594510013238,69.66595229995437,69.66603279998526,,3.273004300193861,None,69.66619150014594,70.15718420012854,70.15719630010426,76.16125639993697,Hund,,,,,,,,,2,,,,,,,,,,,,,,,,,,,,,,,,,,,,,,,,,,,,,,,,,,,,,,,,,,,,,,,,,,,,,,,,,,,,,,2,2024-01-30_12h01.14.746,watkins1,2023.2.3,99.6706879991844,103,2024-01-30 12h01.21.815605 +0000,
,,,,,,,,,,,,,,,,,,,,,,,,,,,,,,,,,,,,,,,,,,,,,,,,,,,,,,,,,,,,,,,76.16141279996373,80.90017589996569,,,,,,,2,,,,,,,,,,,,,,,,,,,,,,,,,,,,,,,,,,,,,,,,,,,,,,,,,,,,,,,,,,,,,,,,,,,,,,2,2024-01-30_12h01.14.746,watkins1,2023.2.3,99.6706879991844,103,2024-01-30 12h01.21.815605 +0000,
,,,,,,,0,0,0,0,,,,,,,,,,,,,,,,,81.91371200000867,,,,,,,,,,80.90019219997339,81.90379310003482,81.90425939997658,82.39576430013403,,,2,2.9961396001745015,,,,,,,,,,,,,,,,,,,,,82.39577580010518,88.40579170011915,Löffel,elegant,"['Löffel', 'elegant']",restudy,2,"['Löffel', 'Hut', 'Kette', 'Hammer', 'Tasse', 'Telefon', 'Schere', 'Buch', 'Ring', 'Blume', 'Rucksack', 'Trommel', 'Stift', 'Lampe', 'Kerze', 'Schlüssel', 'Vase', 'Socke', 'Eimer', 'Kiste', 'Fahrrad', 'Jacke', 'Bürste', 'Würfel', 'Brille', 'Geige', 'Uhr', 'Tasche', 'Kamera', 'Flasche']",['elegant'],2,2.9961396001745015,None,,,,,,,,,,,,,,,,,,,,,,,,,,,,,,,,,,,,,,,,,,,,,,,,,,,,,,,,,,,,,,,,,2,2024-01-30_12h01.14.746,watkins1,2023.2.3,99.6706879991844,103,2024-01-30 12h01.21.815605 +0000,
,,,,,,,1,0,1,0,,,,,,,,,,,,,,,,,88.41519790003076,,,,,,,,,,,,88.40643119998276,88.8972474001348,,,3,2.273734699934721,,,,,,,,,,,,,,,,,,,,,88.89725910010748,94.90046839998104,Hut,bunt,"['Hut', 'bunt']",restudy,2,"['Löffel', 'Hut', 'Kette', 'Hammer', 'Tasse', 'Telefon', 'Schere', 'Buch', 'Ring', 'Blume', 'Rucksack', 'Trommel', 'Stift', 'Lampe', 'Kerze', 'Schlüssel', 'Vase', 'Socke', 'Eimer', 'Kiste', 'Fahrrad', 'Jacke', 'Bürste', 'Würfel', 'Brille', 'Geige', 'Uhr', 'Tasche', 'Kamera', 'Flasche']","['elegant', 'bunt']",3,2.273734699934721,None,,,,,,,,,,,,,,,,,,,,,,,,,,,,,,,,,,,,,,,,,,,,,,,,,,,,,,,,,,,,,,,,,2,2024-01-30_12h01.14.746,watkins1,2023.2.3,99.6706879991844,103,2024-01-30 12h01.21.815605 +0000,
,,,,,,,2,0,2,0,,,,,,,,,,,,,,,,,94.9098652000539,,,,,,,,,,,,94.9010261001531,95.392017000122,,,1,3.105847100028768,,,,,,,,,,,,,,,,,,,,,95.39202899998054,101.39326800010167,Kette,flach,"['Kette', 'flach']",test_sub,2,"['Löffel', 'Hut', 'Kette', 'Hammer', 'Tasse', 'Telefon', 'Schere', 'Buch', 'Ring', 'Blume', 'Rucksack', 'Trommel', 'Stift', 'Lampe', 'Kerze', 'Schlüssel', 'Vase', 'Socke', 'Eimer', 'Kiste', 'Fahrrad', 'Jacke', 'Bürste', 'Würfel', 'Brille', 'Geige', 'Uhr', 'Tasche', 'Kamera', 'Flasche']","['elegant', 'bunt', 'flach']",1,3.105847100028768,None,,,,,,,,,,,,,,,,,,,,,,,,,,,,,,,,,,,,,,,,,,,,,,,,,,,,,,,,,,,,,,,,,2,2024-01-30_12h01.14.746,watkins1,2023.2.3,99.6706879991844,103,2024-01-30 12h01.21.815605 +0000,
,,,,,,,3,0,3,0,,,,,,,,,,,,,,,,,101.40271169994958,,,,,,,,,,,,101.39379140012898,101.88478740002029,,,1,1.94069780013524,,,,,,,,,,,,,,,,,,,,,101.88479869998991,107.8885586000979,Hammer,gepunktet,"['Hammer', 'gepunktet']",restudy,2,"['Löffel', 'Hut', 'Kette', 'Hammer', 'Tasse', 'Telefon', 'Schere', 'Buch', 'Ring', 'Blume', 'Rucksack', 'Trommel', 'Stift', 'Lampe', 'Kerze', 'Schlüssel', 'Vase', 'Socke', 'Eimer', 'Kiste', 'Fahrrad', 'Jacke', 'Bürste', 'Würfel', 'Brille', 'Geige', 'Uhr', 'Tasche', 'Kamera', 'Flasche']","['elegant', 'bunt', 'flach', 'gepunktet']",1,1.94069780013524,None,,,,,,,,,,,,,,,,,,,,,,,,,,,,,,,,,,,,,,,,,,,,,,,,,,,,,,,,,,,,,,,,,2,2024-01-30_12h01.14.746,watkins1,2023.2.3,99.6706879991844,103,2024-01-30 12h01.21.815605 +0000,
,,,,,,,4,0,4,0,,,,,,,,,,,,,,,,,107.89811250008643,,,,,,,,,,,,107.88907809997909,108.38002169993706,,,2,2.837281399872154,,,,,,,,,,,,,,,,,,,,,108.38003330002539,114.38241680013016,Tasse,rustikal,"['Tasse', 'rustikal']",test_sub,2,"['Löffel', 'Hut', 'Kette', 'Hammer', 'Tasse', 'Telefon', 'Schere', 'Buch', 'Ring', 'Blume', 'Rucksack', 'Trommel', 'Stift', 'Lampe', 'Kerze', 'Schlüssel', 'Vase', 'Socke', 'Eimer', 'Kiste', 'Fahrrad', 'Jacke', 'Bürste', 'Würfel', 'Brille', 'Geige', 'Uhr', 'Tasche', 'Kamera', 'Flasche']","['elegant', 'bunt', 'flach', 'gepunktet', 'rustikal']",2,2.837281399872154,None,,,,,,,,,,,,,,,,,,,,,,,,,,,,,,,,,,,,,,,,,,,,,,,,,,,,,,,,,,,,,,,,,2,2024-01-30_12h01.14.746,watkins1,2023.2.3,99.6706879991844,103,2024-01-30 12h01.21.815605 +0000,
,,,,,,,5,0,5,0,,,,,,,,,,,,,,,,,114.39191709994338,,,,,,,,,,,,114.38293600012548,114.87368230009452,,,2,2.840358999790624,,,,,,,,,,,,,,,,,,,,,114.8736932000611,120.87793730013072,Telefon,schwer,"['Telefon', 'schwer']",test_sub,2,"['Löffel', 'Hut', 'Kette', 'Hammer', 'Tasse', 'Telefon', 'Schere', 'Buch', 'Ring', 'Blume', 'Rucksack', 'Trommel', 'Stift', 'Lampe', 'Kerze', 'Schlüssel', 'Vase', 'Socke', 'Eimer', 'Kiste', 'Fahrrad', 'Jacke', 'Bürste', 'Würfel', 'Brille', 'Geige', 'Uhr', 'Tasche', 'Kamera', 'Flasche']","['elegant', 'bunt', 'flach', 'gepunktet', 'rustikal', 'schwer']",2,2.840358999790624,None,,,,,,,,,,,,,,,,,,,,,,,,,,,,,,,,,,,,,,,,,,,,,,,,,,,,,,,,,,,,,,,,,2,2024-01-30_12h01.14.746,watkins1,2023.2.3,99.6706879991844,103,2024-01-30 12h01.21.815605 +0000,
,,,,,,,6,0,6,0,,,,,,,,,,,,,,,,,120.88738880003802,,,,,,,,,,,,120.87845110008493,121.36949950014241,,,1,2.377311000134796,,,,,,,,,,,,,,,,,,,,,121.36951180011965,127.37025850010104,Schere,nass,"['Schere', 'nass']",restudy,2,"['Löffel', 'Hut', 'Kette', 'Hammer', 'Tasse', 'Telefon', 'Schere', 'Buch', 'Ring', 'Blume', 'Rucksack', 'Trommel', 'Stift', 'Lampe', 'Kerze', 'Schlüssel', 'Vase', 'Socke', 'Eimer', 'Kiste', 'Fahrrad', 'Jacke', 'Bürste', 'Würfel', 'Brille', 'Geige', 'Uhr', 'Tasche', 'Kamera', 'Flasche']","['elegant', 'bunt', 'flach', 'gepunktet', 'rustikal', 'schwer', 'nass']",1,2.377311000134796,None,,,,,,,,,,,,,,,,,,,,,,,,,,,,,,,,,,,,,,,,,,,,,,,,,,,,,,,,,,,,,,,,,2,2024-01-30_12h01.14.746,watkins1,2023.2.3,99.6706879991844,103,2024-01-30 12h01.21.815605 +0000,
,,,,,,,7,0,7,0,,,,,,,,,,,,,,,,,127.3797003000509,,,,,,,,,,,,127.37077919999138,127.86170290014707,,,1,1.7960002000909299,,,,,,,,,,,,,,,,,,,,,127.86171430000104,133.86247129994445,Buch,verspielt,"['Buch', 'verspielt']",test_sub,2,"['Löffel', 'Hut', 'Kette', 'Hammer', 'Tasse', 'Telefon', 'Schere', 'Buch', 'Ring', 'Blume', 'Rucksack', 'Trommel', 'Stift', 'Lampe', 'Kerze', 'Schlüssel', 'Vase', 'Socke', 'Eimer', 'Kiste', 'Fahrrad', 'Jacke', 'Bürste', 'Würfel', 'Brille', 'Geige', 'Uhr', 'Tasche', 'Kamera', 'Flasche']","['elegant', 'bunt', 'flach', 'gepunktet', 'rustikal', 'schwer', 'nass', 'verspielt']",1,1.7960002000909299,None,,,,,,,,,,,,,,,,,,,,,,,,,,,,,,,,,,,,,,,,,,,,,,,,,,,,,,,,,,,,,,,,,2,2024-01-30_12h01.14.746,watkins1,2023.2.3,99.6706879991844,103,2024-01-30 12h01.21.815605 +0000,
,,,,,,,8,0,8,0,,,,,,,,,,,,,,,,,133.87194350012578,,,,,,,,,,,,133.86299749999307,134.3541675999295,,,3,2.064195499988273,,,,,,,,,,,,,,,,,,,,,134.3541790000163,140.35509560001083,Ring,nachhaltig,"['Ring', 'nachhaltig']",restudy,2,"['Löffel', 'Hut', 'Kette', 'Hammer', 'Tasse', 'Telefon', 'Schere', 'Buch', 'Ring', 'Blume', 'Rucksack', 'Trommel', 'Stift', 'Lampe', 'Kerze', 'Schlüssel', 'Vase', 'Socke', 'Eimer', 'Kiste', 'Fahrrad', 'Jacke', 'Bürste', 'Würfel', 'Brille', 'Geige', 'Uhr', 'Tasche', 'Kamera', 'Flasche']","['elegant', 'bunt', 'flach', 'gepunktet', 'rustikal', 'schwer', 'nass', 'verspielt', 'nachhaltig']",3,2.064195499988273,None,,,,,,,,,,,,,,,,,,,,,,,,,,,,,,,,,,,,,,,,,,,,,,,,,,,,,,,,,,,,,,,,,2,2024-01-30_12h01.14.746,watkins1,2023.2.3,99.6706879991844,103,2024-01-30 12h01.21.815605 +0000,
,,,,,,,9,0,9,0,,,,,,,,,,,,,,,,,140.36460139998235,,,,,,,,,,,,140.3556085000746,140.84672680008225,,,1,1.548347300151363,,,,,,,,,,,,,,,,,,,,,140.84673770004883,146.85591119993478,Blume,biegsam,"['Blume', 'biegsam']",test_sub,2,"['Löffel', 'Hut', 'Kette', 'Hammer', 'Tasse', 'Telefon', 'Schere', 'Buch', 'Ring', 'Blume', 'Rucksack', 'Trommel', 'Stift', 'Lampe', 'Kerze', 'Schlüssel', 'Vase', 'Socke', 'Eimer', 'Kiste', 'Fahrrad', 'Jacke', 'Bürste', 'Würfel', 'Brille', 'Geige', 'Uhr', 'Tasche', 'Kamera', 'Flasche']","['elegant', 'bunt', 'flach', 'gepunktet', 'rustikal', 'schwer', 'nass', 'verspielt', 'nachhaltig', 'biegsam']",1,1.548347300151363,None,,,,,,,,,,,,,,,,,,,,,,,,,,,,,,,,,,,,,,,,,,,,,,,,,,,,,,,,,,,,,,,,,2,2024-01-30_12h01.14.746,watkins1,2023.2.3,99.6706879991844,103,2024-01-30 12h01.21.815605 +0000,
,,,,,,,10,0,10,0,,,,,,,,,,,,,,,,,146.86538939992897,,,,,,,,,,,,146.85642640013248,147.34733709995635,,,2,2.351253000088036,,,,,,,,,,,,,,,,,,,,,147.34734870004468,153.3526409000624,Rucksack,kratzig,"['Rucksack', 'kratzig']",restudy,2,"['Löffel', 'Hut', 'Kette', 'Hammer', 'Tasse', 'Telefon', 'Schere', 'Buch', 'Ring', 'Blume', 'Rucksack', 'Trommel', 'Stift', 'Lampe', 'Kerze', 'Schlüssel', 'Vase', 'Socke', 'Eimer', 'Kiste', 'Fahrrad', 'Jacke', 'Bürste', 'Würfel', 'Brille', 'Geige', 'Uhr', 'Tasche', 'Kamera', 'Flasche']","['elegant', 'bunt', 'flach', 'gepunktet', 'rustikal', 'schwer', 'nass', 'verspielt', 'nachhaltig', 'biegsam', 'kratzig']",2,2.351253000088036,None,,,,,,,,,,,,,,,,,,,,,,,,,,,,,,,,,,,,,,,,,,,,,,,,,,,,,,,,,,,,,,,,,2,2024-01-30_12h01.14.746,watkins1,2023.2.3,99.6706879991844,103,2024-01-30 12h01.21.815605 +0000,
,,,,,,,11,0,11,0,,,,,,,,,,,,,,,,,153.36214530002326,,,,,,,,,,,,153.35316459997557,153.84436099999584,,,1,1.4065349998418242,,,,,,,,,,,,,,,,,,,,,153.84437260008417,159.85433260002173,Trommel,krumm,"['Trommel', 'krumm']",test_sub,2,"['Löffel', 'Hut', 'Kette', 'Hammer', 'Tasse', 'Telefon', 'Schere', 'Buch', 'Ring', 'Blume', 'Rucksack', 'Trommel', 'Stift', 'Lampe', 'Kerze', 'Schlüssel', 'Vase', 'Socke', 'Eimer', 'Kiste', 'Fahrrad', 'Jacke', 'Bürste', 'Würfel', 'Brille', 'Geige', 'Uhr', 'Tasche', 'Kamera', 'Flasche']","['elegant', 'bunt', 'flach', 'gepunktet', 'rustikal', 'schwer', 'nass', 'verspielt', 'nachhaltig', 'biegsam', 'kratzig', 'krumm']",1,1.4065349998418242,None,,,,,,,,,,,,,,,,,,,,,,,,,,,,,,,,,,,,,,,,,,,,,,,,,,,,,,,,,,,,,,,,,2,2024-01-30_12h01.14.746,watkins1,2023.2.3,99.6706879991844,103,2024-01-30 12h01.21.815605 +0000,
,,,,,,,12,0,12,0,,,,,,,,,,,,,,,,,159.86379060009494,,,,,,,,,,,,159.8548403000459,160.34590960014611,,,2,2.0004632000345737,,,,,,,,,,,,,,,,,,,,,160.3459213001188,166.35069230012596,Stift,matt,"['Stift', 'matt']",test_sub,2,"['Löffel', 'Hut', 'Kette', 'Hammer', 'Tasse', 'Telefon', 'Schere', 'Buch', 'Ring', 'Blume', 'Rucksack', 'Trommel', 'Stift', 'Lampe', 'Kerze', 'Schlüssel', 'Vase', 'Socke', 'Eimer', 'Kiste', 'Fahrrad', 'Jacke', 'Bürste', 'Würfel', 'Brille', 'Geige', 'Uhr', 'Tasche', 'Kamera', 'Flasche']","['elegant', 'bunt', 'flach', 'gepunktet', 'rustikal', 'schwer', 'nass', 'verspielt', 'nachhaltig', 'biegsam', 'kratzig', 'krumm', 'matt']",2,2.0004632000345737,None,,,,,,,,,,,,,,,,,,,,,,,,,,,,,,,,,,,,,,,,,,,,,,,,,,,,,,,,,,,,,,,,,2,2024-01-30_12h01.14.746,watkins1,2023.2.3,99.6706879991844,103,2024-01-30 12h01.21.815605 +0000,
,,,,,,,13,0,13,0,,,,,,,,,,,,,,,,,166.3602182001341,,,,,,,,,,,,166.3512214999646,166.84208890004084,,,2,4.592861500103027,,,,,,,,,,,,,,,,,,,,,166.84210030012764,172.84787079994567,Lampe,hohl,"['Lampe', 'hohl']",restudy,2,"['Löffel', 'Hut', 'Kette', 'Hammer', 'Tasse', 'Telefon', 'Schere', 'Buch', 'Ring', 'Blume', 'Rucksack', 'Trommel', 'Stift', 'Lampe', 'Kerze', 'Schlüssel', 'Vase', 'Socke', 'Eimer', 'Kiste', 'Fahrrad', 'Jacke', 'Bürste', 'Würfel', 'Brille', 'Geige', 'Uhr', 'Tasche', 'Kamera', 'Flasche']","['elegant', 'bunt', 'flach', 'gepunktet', 'rustikal', 'schwer', 'nass', 'verspielt', 'nachhaltig', 'biegsam', 'kratzig', 'krumm', 'matt', 'hohl']",2,4.592861500103027,None,,,,,,,,,,,,,,,,,,,,,,,,,,,,,,,,,,,,,,,,,,,,,,,,,,,,,,,,,,,,,,,,,2,2024-01-30_12h01.14.746,watkins1,2023.2.3,99.6706879991844,103,2024-01-30 12h01.21.815605 +0000,
,,,,,,,14,0,14,0,,,,,,,,,,,,,,,,,172.85721640009433,,,,,,,,,,,,172.84838890004903,173.33912260015495,,,3,1.6398648999165744,,,,,,,,,,,,,,,,,,,,,173.33913370012306,179.34762890008278,Kerze,praktisch,"['Kerze', 'praktisch']",test_sub,2,"['Löffel', 'Hut', 'Kette', 'Hammer', 'Tasse', 'Telefon', 'Schere', 'Buch', 'Ring', 'Blume', 'Rucksack', 'Trommel', 'Stift', 'Lampe', 'Kerze', 'Schlüssel', 'Vase', 'Socke', 'Eimer', 'Kiste', 'Fahrrad', 'Jacke', 'Bürste', 'Würfel', 'Brille', 'Geige', 'Uhr', 'Tasche', 'Kamera', 'Flasche']","['elegant', 'bunt', 'flach', 'gepunktet', 'rustikal', 'schwer', 'nass', 'verspielt', 'nachhaltig', 'biegsam', 'kratzig', 'krumm', 'matt', 'hohl', 'praktisch']",3,1.6398648999165744,None,,,,,,,,,,,,,,,,,,,,,,,,,,,,,,,,,,,,,,,,,,,,,,,,,,,,,,,,,,,,,,,,,2,2024-01-30_12h01.14.746,watkins1,2023.2.3,99.6706879991844,103,2024-01-30 12h01.21.815605 +0000,
,,,,,,,15,0,15,0,,,,,,,,,,,,,,,,,179.35712349996902,,,,,,,,,,,,179.34814850008115,179.83908800012432,,,2,3.227170499972999,,,,,,,,,,,,,,,,,,,,,179.83909950009547,185.83989070006646,Schlüssel,kurz,"['Schlüssel', 'kurz']",test_sub,2,"['Löffel', 'Hut', 'Kette', 'Hammer', 'Tasse', 'Telefon', 'Schere', 'Buch', 'Ring', 'Blume', 'Rucksack', 'Trommel', 'Stift', 'Lampe', 'Kerze', 'Schlüssel', 'Vase', 'Socke', 'Eimer', 'Kiste', 'Fahrrad', 'Jacke', 'Bürste', 'Würfel', 'Brille', 'Geige', 'Uhr', 'Tasche', 'Kamera', 'Flasche']","['elegant', 'bunt', 'flach', 'gepunktet', 'rustikal', 'schwer', 'nass', 'verspielt', 'nachhaltig', 'biegsam', 'kratzig', 'krumm', 'matt', 'hohl', 'praktisch', 'kurz']",2,3.227170499972999,None,,,,,,,,,,,,,,,,,,,,,,,,,,,,,,,,,,,,,,,,,,,,,,,,,,,,,,,,,,,,,,,,,2,2024-01-30_12h01.14.746,watkins1,2023.2.3,99.6706879991844,103,2024-01-30 12h01.21.815605 +0000,
,,,,,,,16,0,16,0,,,,,,,,,,,,,,,,,185.84941160003655,,,,,,,,,,,,185.8404057000298,186.3314984999597,,,1,1.3590649000834674,,,,,,,,,,,,,,,,,,,,,186.33151010004804,192.3331371000968,Vase,flauschig,"['Vase', 'flauschig']",restudy,2,"['Löffel', 'Hut', 'Kette', 'Hammer', 'Tasse', 'Telefon', 'Schere', 'Buch', 'Ring', 'Blume', 'Rucksack', 'Trommel', 'Stift', 'Lampe', 'Kerze', 'Schlüssel', 'Vase', 'Socke', 'Eimer', 'Kiste', 'Fahrrad', 'Jacke', 'Bürste', 'Würfel', 'Brille', 'Geige', 'Uhr', 'Tasche', 'Kamera', 'Flasche']","['elegant', 'bunt', 'flach', 'gepunktet', 'rustikal', 'schwer', 'nass', 'verspielt', 'nachhaltig', 'biegsam', 'kratzig', 'krumm', 'matt', 'hohl', 'praktisch', 'kurz', 'flauschig']",1,1.3590649000834674,None,,,,,,,,,,,,,,,,,,,,,,,,,,,,,,,,,,,,,,,,,,,,,,,,,,,,,,,,,,,,,,,,,2,2024-01-30_12h01.14.746,watkins1,2023.2.3,99.6706879991844,103,2024-01-30 12h01.21.815605 +0000,
,,,,,,,17,0,17,0,,,,,,,,,,,,,,,,,192.34260810003616,,,,,,,,,,,,192.3336728999857,192.82462780014612,,,1,1.4900324998889118,,,,,,,,,,,,,,,,,,,,,192.8246392000001,198.83157519996166,Socke,klobig,"['Socke', 'klobig']",restudy,2,"['Löffel', 'Hut', 'Kette', 'Hammer', 'Tasse', 'Telefon', 'Schere', 'Buch', 'Ring', 'Blume', 'Rucksack', 'Trommel', 'Stift', 'Lampe', 'Kerze', 'Schlüssel', 'Vase', 'Socke', 'Eimer', 'Kiste', 'Fahrrad', 'Jacke', 'Bürste', 'Würfel', 'Brille', 'Geige', 'Uhr', 'Tasche', 'Kamera', 'Flasche']","['elegant', 'bunt', 'flach', 'gepunktet', 'rustikal', 'schwer', 'nass', 'verspielt', 'nachhaltig', 'biegsam', 'kratzig', 'krumm', 'matt', 'hohl', 'praktisch', 'kurz', 'flauschig', 'klobig']",1,1.4900324998889118,None,,,,,,,,,,,,,,,,,,,,,,,,,,,,,,,,,,,,,,,,,,,,,,,,,,,,,,,,,,,,,,,,,2,2024-01-30_12h01.14.746,watkins1,2023.2.3,99.6706879991844,103,2024-01-30 12h01.21.815605 +0000,
,,,,,,,18,0,18,0,,,,,,,,,,,,,,,,,198.84106130013242,,,,,,,,,,,,198.83208860014565,199.32303710002452,,,3,2.7197621997911483,,,,,,,,,,,,,,,,,,,,,199.32304859999567,205.32491179998033,Eimer,kaputt,"['Eimer', 'kaputt']",restudy,2,"['Löffel', 'Hut', 'Kette', 'Hammer', 'Tasse', 'Telefon', 'Schere', 'Buch', 'Ring', 'Blume', 'Rucksack', 'Trommel', 'Stift', 'Lampe', 'Kerze', 'Schlüssel', 'Vase', 'Socke', 'Eimer', 'Kiste', 'Fahrrad', 'Jacke', 'Bürste', 'Würfel', 'Brille', 'Geige', 'Uhr', 'Tasche', 'Kamera', 'Flasche']","['elegant', 'bunt', 'flach', 'gepunktet', 'rustikal', 'schwer', 'nass', 'verspielt', 'nachhaltig', 'biegsam', 'kratzig', 'krumm', 'matt', 'hohl', 'praktisch', 'kurz', 'flauschig', 'klobig', 'kaputt']",3,2.7197621997911483,None,,,,,,,,,,,,,,,,,,,,,,,,,,,,,,,,,,,,,,,,,,,,,,,,,,,,,,,,,,,,,,,,,2,2024-01-30_12h01.14.746,watkins1,2023.2.3,99.6706879991844,103,2024-01-30 12h01.21.815605 +0000,
,,,,,,,19,0,19,0,,,,,,,,,,,,,,,,,205.33441450004466,,,,,,,,,,,,205.32544740010053,205.81651280005462,,,1,3.9454371000174433,,,,,,,,,,,,,,,,,,,,,205.81652410002425,211.82412940007634,Kiste,glänzend,"['Kiste', 'glänzend']",restudy,2,"['Löffel', 'Hut', 'Kette', 'Hammer', 'Tasse', 'Telefon', 'Schere', 'Buch', 'Ring', 'Blume', 'Rucksack', 'Trommel', 'Stift', 'Lampe', 'Kerze', 'Schlüssel', 'Vase', 'Socke', 'Eimer', 'Kiste', 'Fahrrad', 'Jacke', 'Bürste', 'Würfel', 'Brille', 'Geige', 'Uhr', 'Tasche', 'Kamera', 'Flasche']","['elegant', 'bunt', 'flach', 'gepunktet', 'rustikal', 'schwer', 'nass', 'verspielt', 'nachhaltig', 'biegsam', 'kratzig', 'krumm', 'matt', 'hohl', 'praktisch', 'kurz', 'flauschig', 'klobig', 'kaputt', 'glänzend']",1,3.9454371000174433,None,,,,,,,,,,,,,,,,,,,,,,,,,,,,,,,,,,,,,,,,,,,,,,,,,,,,,,,,,,,,,,,,,2,2024-01-30_12h01.14.746,watkins1,2023.2.3,99.6706879991844,103,2024-01-30 12h01.21.815605 +0000,
,,,,,,,20,0,20,0,,,,,,,,,,,,,,,,,211.83354020002298,,,,,,,,,,,,211.82466179993935,212.31562040001154,,,3,1.3587259000632912,,,,,,,,,,,,,,,,,,,,,212.31563200009987,218.32446129992604,Fahrrad,schmutzig,"['Fahrrad', 'schmutzig']",restudy,2,"['Löffel', 'Hut', 'Kette', 'Hammer', 'Tasse', 'Telefon', 'Schere', 'Buch', 'Ring', 'Blume', 'Rucksack', 'Trommel', 'Stift', 'Lampe', 'Kerze', 'Schlüssel', 'Vase', 'Socke', 'Eimer', 'Kiste', 'Fahrrad', 'Jacke', 'Bürste', 'Würfel', 'Brille', 'Geige', 'Uhr', 'Tasche', 'Kamera', 'Flasche']","['elegant', 'bunt', 'flach', 'gepunktet', 'rustikal', 'schwer', 'nass', 'verspielt', 'nachhaltig', 'biegsam', 'kratzig', 'krumm', 'matt', 'hohl', 'praktisch', 'kurz', 'flauschig', 'klobig', 'kaputt', 'glänzend', 'schmutzig']",3,1.3587259000632912,None,,,,,,,,,,,,,,,,,,,,,,,,,,,,,,,,,,,,,,,,,,,,,,,,,,,,,,,,,,,,,,,,,2,2024-01-30_12h01.14.746,watkins1,2023.2.3,99.6706879991844,103,2024-01-30 12h01.21.815605 +0000,
,,,,,,,21,0,21,0,,,,,,,,,,,,,,,,,218.33399479999207,,,,,,,,,,,,218.32498649996705,218.81582120014355,,,3,1.3863599998876452,,,,,,,,,,,,,,,,,,,,,218.8158327001147,224.82182920002379,Jacke,lang,"['Jacke', 'lang']",test_sub,2,"['Löffel', 'Hut', 'Kette', 'Hammer', 'Tasse', 'Telefon', 'Schere', 'Buch', 'Ring', 'Blume', 'Rucksack', 'Trommel', 'Stift', 'Lampe', 'Kerze', 'Schlüssel', 'Vase', 'Socke', 'Eimer', 'Kiste', 'Fahrrad', 'Jacke', 'Bürste', 'Würfel', 'Brille', 'Geige', 'Uhr', 'Tasche', 'Kamera', 'Flasche']","['elegant', 'bunt', 'flach', 'gepunktet', 'rustikal', 'schwer', 'nass', 'verspielt', 'nachhaltig', 'biegsam', 'kratzig', 'krumm', 'matt', 'hohl', 'praktisch', 'kurz', 'flauschig', 'klobig', 'kaputt', 'glänzend', 'schmutzig', 'lang']",3,1.3863599998876452,None,,,,,,,,,,,,,,,,,,,,,,,,,,,,,,,,,,,,,,,,,,,,,,,,,,,,,,,,,,,,,,,,,2,2024-01-30_12h01.14.746,watkins1,2023.2.3,99.6706879991844,103,2024-01-30 12h01.21.815605 +0000,
,,,,,,,22,0,22,0,,,,,,,,,,,,,,,,,224.83133590011857,,,,,,,,,,,,224.82235040003434,225.3133903001435,,,1,1.1457318000029773,,,,,,,,,,,,,,,,,,,,,225.313401899999,231.32358200009912,Bürste,blass,"['Bürste', 'blass']",test_sub,2,"['Löffel', 'Hut', 'Kette', 'Hammer', 'Tasse', 'Telefon', 'Schere', 'Buch', 'Ring', 'Blume', 'Rucksack', 'Trommel', 'Stift', 'Lampe', 'Kerze', 'Schlüssel', 'Vase', 'Socke', 'Eimer', 'Kiste', 'Fahrrad', 'Jacke', 'Bürste', 'Würfel', 'Brille', 'Geige', 'Uhr', 'Tasche', 'Kamera', 'Flasche']","['elegant', 'bunt', 'flach', 'gepunktet', 'rustikal', 'schwer', 'nass', 'verspielt', 'nachhaltig', 'biegsam', 'kratzig', 'krumm', 'matt', 'hohl', 'praktisch', 'kurz', 'flauschig', 'klobig', 'kaputt', 'glänzend', 'schmutzig', 'lang', 'blass']",1,1.1457318000029773,None,,,,,,,,,,,,,,,,,,,,,,,,,,,,,,,,,,,,,,,,,,,,,,,,,,,,,,,,,,,,,,,,,2,2024-01-30_12h01.14.746,watkins1,2023.2.3,99.6706879991844,103,2024-01-30 12h01.21.815605 +0000,
,,,,,,,23,0,23,0,,,,,,,,,,,,,,,,,231.3330796000082,,,,,,,,,,,,231.3241105999332,231.81525710015558,,,2,2.6268595000728965,,,,,,,,,,,,,,,,,,,,,231.81526800012216,237.81799530005082,Würfel,schlicht,"['Würfel', 'schlicht']",restudy,2,"['Löffel', 'Hut', 'Kette', 'Hammer', 'Tasse', 'Telefon', 'Schere', 'Buch', 'Ring', 'Blume', 'Rucksack', 'Trommel', 'Stift', 'Lampe', 'Kerze', 'Schlüssel', 'Vase', 'Socke', 'Eimer', 'Kiste', 'Fahrrad', 'Jacke', 'Bürste', 'Würfel', 'Brille', 'Geige', 'Uhr', 'Tasche', 'Kamera', 'Flasche']","['elegant', 'bunt', 'flach', 'gepunktet', 'rustikal', 'schwer', 'nass', 'verspielt', 'nachhaltig', 'biegsam', 'kratzig', 'krumm', 'matt', 'hohl', 'praktisch', 'kurz', 'flauschig', 'klobig', 'kaputt', 'glänzend', 'schmutzig', 'lang', 'blass', 'schlicht']",2,2.6268595000728965,None,,,,,,,,,,,,,,,,,,,,,,,,,,,,,,,,,,,,,,,,,,,,,,,,,,,,,,,,,,,,,,,,,2,2024-01-30_12h01.14.746,watkins1,2023.2.3,99.6706879991844,103,2024-01-30 12h01.21.815605 +0000,
,,,,,,,24,0,24,0,,,,,,,,,,,,,,,,,237.82743870001286,,,,,,,,,,,,237.81851990008727,238.309403100051,,,2,2.2136540999636054,,,,,,,,,,,,,,,,,,,,,238.30941490014084,244.31315970001742,Brille,strahlend,"['Brille', 'strahlend']",test_sub,2,"['Löffel', 'Hut', 'Kette', 'Hammer', 'Tasse', 'Telefon', 'Schere', 'Buch', 'Ring', 'Blume', 'Rucksack', 'Trommel', 'Stift', 'Lampe', 'Kerze', 'Schlüssel', 'Vase', 'Socke', 'Eimer', 'Kiste', 'Fahrrad', 'Jacke', 'Bürste', 'Würfel', 'Brille', 'Geige', 'Uhr', 'Tasche', 'Kamera', 'Flasche']","['elegant', 'bunt', 'flach', 'gepunktet', 'rustikal', 'schwer', 'nass', 'verspielt', 'nachhaltig', 'biegsam', 'kratzig', 'krumm', 'matt', 'hohl', 'praktisch', 'kurz', 'flauschig', 'klobig', 'kaputt', 'glänzend', 'schmutzig', 'lang', 'blass', 'schlicht', 'strahlend']",2,2.2136540999636054,None,,,,,,,,,,,,,,,,,,,,,,,,,,,,,,,,,,,,,,,,,,,,,,,,,,,,,,,,,,,,,,,,,2,2024-01-30_12h01.14.746,watkins1,2023.2.3,99.6706879991844,103,2024-01-30 12h01.21.815605 +0000,
,,,,,,,25,0,25,0,,,,,,,,,,,,,,,,,244.3225909001194,,,,,,,,,,,,244.31368070002645,244.80454450007528,,,1,1.4051526999101043,,,,,,,,,,,,,,,,,,,,,244.80455589992926,250.80652430001646,Geige,durchsichtig,"['Geige', 'durchsichtig']",test_sub,2,"['Löffel', 'Hut', 'Kette', 'Hammer', 'Tasse', 'Telefon', 'Schere', 'Buch', 'Ring', 'Blume', 'Rucksack', 'Trommel', 'Stift', 'Lampe', 'Kerze', 'Schlüssel', 'Vase', 'Socke', 'Eimer', 'Kiste', 'Fahrrad', 'Jacke', 'Bürste', 'Würfel', 'Brille', 'Geige', 'Uhr', 'Tasche', 'Kamera', 'Flasche']","['elegant', 'bunt', 'flach', 'gepunktet', 'rustikal', 'schwer', 'nass', 'verspielt', 'nachhaltig', 'biegsam', 'kratzig', 'krumm', 'matt', 'hohl', 'praktisch', 'kurz', 'flauschig', 'klobig', 'kaputt', 'glänzend', 'schmutzig', 'lang', 'blass', 'schlicht', 'strahlend', 'durchsichtig']",1,1.4051526999101043,None,,,,,,,,,,,,,,,,,,,,,,,,,,,,,,,,,,,,,,,,,,,,,,,,,,,,,,,,,,,,,,,,,2,2024-01-30_12h01.14.746,watkins1,2023.2.3,99.6706879991844,103,2024-01-30 12h01.21.815605 +0000,
,,,,,,,26,0,26,0,,,,,,,,,,,,,,,,,250.81599909998477,,,,,,,,,,,,250.8070493999403,251.29800439998507,,,2,1.9283166001550853,,,,,,,,,,,,,,,,,,,,,251.29801640007645,257.30108280014247,Uhr,hübsch,"['Uhr', 'hübsch']",restudy,2,"['Löffel', 'Hut', 'Kette', 'Hammer', 'Tasse', 'Telefon', 'Schere', 'Buch', 'Ring', 'Blume', 'Rucksack', 'Trommel', 'Stift', 'Lampe', 'Kerze', 'Schlüssel', 'Vase', 'Socke', 'Eimer', 'Kiste', 'Fahrrad', 'Jacke', 'Bürste', 'Würfel', 'Brille', 'Geige', 'Uhr', 'Tasche', 'Kamera', 'Flasche']","['elegant', 'bunt', 'flach', 'gepunktet', 'rustikal', 'schwer', 'nass', 'verspielt', 'nachhaltig', 'biegsam', 'kratzig', 'krumm', 'matt', 'hohl', 'praktisch', 'kurz', 'flauschig', 'klobig', 'kaputt', 'glänzend', 'schmutzig', 'lang', 'blass', 'schlicht', 'strahlend', 'durchsichtig', 'hübsch']",2,1.9283166001550853,None,,,,,,,,,,,,,,,,,,,,,,,,,,,,,,,,,,,,,,,,,,,,,,,,,,,,,,,,,,,,,,,,,2,2024-01-30_12h01.14.746,watkins1,2023.2.3,99.6706879991844,103,2024-01-30 12h01.21.815605 +0000,
,,,,,,,27,0,27,0,,,,,,,,,,,,,,,,,257.3105774000287,,,,,,,,,,,,257.30160080012865,257.7926370999776,,,2,1.154357799794525,,,,,,,,,,,,,,,,,,,,,257.79264910006896,263.79985880013555,Tasche,gut,"['Tasche', 'gut']",test_sub,2,"['Löffel', 'Hut', 'Kette', 'Hammer', 'Tasse', 'Telefon', 'Schere', 'Buch', 'Ring', 'Blume', 'Rucksack', 'Trommel', 'Stift', 'Lampe', 'Kerze', 'Schlüssel', 'Vase', 'Socke', 'Eimer', 'Kiste', 'Fahrrad', 'Jacke', 'Bürste', 'Würfel', 'Brille', 'Geige', 'Uhr', 'Tasche', 'Kamera', 'Flasche']","['elegant', 'bunt', 'flach', 'gepunktet', 'rustikal', 'schwer', 'nass', 'verspielt', 'nachhaltig', 'biegsam', 'kratzig', 'krumm', 'matt', 'hohl', 'praktisch', 'kurz', 'flauschig', 'klobig', 'kaputt', 'glänzend', 'schmutzig', 'lang', 'blass', 'schlicht', 'strahlend', 'durchsichtig', 'hübsch', 'gut']",2,1.154357799794525,None,,,,,,,,,,,,,,,,,,,,,,,,,,,,,,,,,,,,,,,,,,,,,,,,,,,,,,,,,,,,,,,,,2,2024-01-30_12h01.14.746,watkins1,2023.2.3,99.6706879991844,103,2024-01-30 12h01.21.815605 +0000,
,,,,,,,28,0,28,0,,,,,,,,,,,,,,,,,263.80936329998076,,,,,,,,,,,,263.80036820005625,264.29141660011373,,,2,3.3987388000823557,,,,,,,,,,,,,,,,,,,,,264.29142870008945,270.2951229000464,Kamera,groß,"['Kamera', 'groß']",test_sub,2,"['Löffel', 'Hut', 'Kette', 'Hammer', 'Tasse', 'Telefon', 'Schere', 'Buch', 'Ring', 'Blume', 'Rucksack', 'Trommel', 'Stift', 'Lampe', 'Kerze', 'Schlüssel', 'Vase', 'Socke', 'Eimer', 'Kiste', 'Fahrrad', 'Jacke', 'Bürste', 'Würfel', 'Brille', 'Geige', 'Uhr', 'Tasche', 'Kamera', 'Flasche']","['elegant', 'bunt', 'flach', 'gepunktet', 'rustikal', 'schwer', 'nass', 'verspielt', 'nachhaltig', 'biegsam', 'kratzig', 'krumm', 'matt', 'hohl', 'praktisch', 'kurz', 'flauschig', 'klobig', 'kaputt', 'glänzend', 'schmutzig', 'lang', 'blass', 'schlicht', 'strahlend', 'durchsichtig', 'hübsch', 'gut', 'groß']",2,3.3987388000823557,None,,,,,,,,,,,,,,,,,,,,,,,,,,,,,,,,,,,,,,,,,,,,,,,,,,,,,,,,,,,,,,,,,2,2024-01-30_12h01.14.746,watkins1,2023.2.3,99.6706879991844,103,2024-01-30 12h01.21.815605 +0000,
,,,,,,,29,0,29,0,,,,,,,,,,,,,,,,,270.30458669993095,,,,,,,,,,,,270.29565340001136,270.7872059000656,,,1,2.4399373000487685,,,,,,,,,,,,,,,,,,,,,270.7872168000322,276.79588240012527,Flasche,zart,"['Flasche', 'zart']",restudy,2,"['Löffel', 'Hut', 'Kette', 'Hammer', 'Tasse', 'Telefon', 'Schere', 'Buch', 'Ring', 'Blume', 'Rucksack', 'Trommel', 'Stift', 'Lampe', 'Kerze', 'Schlüssel', 'Vase', 'Socke', 'Eimer', 'Kiste', 'Fahrrad', 'Jacke', 'Bürste', 'Würfel', 'Brille', 'Geige', 'Uhr', 'Tasche', 'Kamera', 'Flasche']","['elegant', 'bunt', 'flach', 'gepunktet', 'rustikal', 'schwer', 'nass', 'verspielt', 'nachhaltig', 'biegsam', 'kratzig', 'krumm', 'matt', 'hohl', 'praktisch', 'kurz', 'flauschig', 'klobig', 'kaputt', 'glänzend', 'schmutzig', 'lang', 'blass', 'schlicht', 'strahlend', 'durchsichtig', 'hübsch', 'gut', 'groß', 'zart']",1,2.4399373000487685,None,,,,,,,,,,,,,,,,,,,,,,,,,,,,,,,,,,,,,,,,,,,,,,,,,,,,,,,,,,,,,,,,,2,2024-01-30_12h01.14.746,watkins1,2023.2.3,99.6706879991844,103,2024-01-30 12h01.21.815605 +0000,
,,,,,,,,,,,0,0,0,0,,,,,,,,,,,,,276.80528870015405,,,,,,,,,,,,276.79670489998534,277.2873676000163,,,[],[],,,,,,,,,,,,None,None,,,,,,,,,,Hammer,gepunktet,"['Hammer', 'gepunktet']",restudy,2,,,,,,276.7966318000108,276.7966781000141,"['Hammer', 'Würfel', 'Schlüssel', 'Trommel', 'Uhr', 'Tasche', 'Buch', 'Kiste', 'Brille', 'Tasse', 'Jacke', 'Kette', 'Bürste', 'Hut', 'Ring', 'Kerze', 'Eimer', 'Fahrrad', 'Socke', 'Vase', 'Schere', 'Telefon', 'Stift', 'Flasche', 'Lampe', 'Löffel', 'Rucksack', 'Geige', 'Blume', 'Kamera']",277.28737909998745,277.2899440000765,None,277.29012520005926,283.296879600035,1,1.4720352999866009,None,283.2973003999796,283.30001430003904,None,283.3001717000734,283.3013373001013,283.301349400077,283.3026765000541,,,,,,,,,,,,,,,,,,,,,,,,,,,,,,,,,,,,,,,,,,,,,,,2,2024-01-30_12h01.14.746,watkins1,2023.2.3,99.6706879991844,103,2024-01-30 12h01.21.815605 +0000,
,,,,,,,,,,,1,0,1,0,,,,,,,,,,,,,283.3063245001249,,,,,,,,,,,,283.302963900147,283.798464700114,,,[],[],,,,,,,,,,,,None,None,,,,,,,,,,Würfel,schlicht,"['Würfel', 'schlicht']",restudy,2,,,,,,283.30289490008727,283.302936000051,"['Hammer', 'Würfel', 'Schlüssel', 'Trommel', 'Uhr', 'Tasche', 'Buch', 'Kiste', 'Brille', 'Tasse', 'Jacke', 'Kette', 'Bürste', 'Hut', 'Ring', 'Kerze', 'Eimer', 'Fahrrad', 'Socke', 'Vase', 'Schere', 'Telefon', 'Stift', 'Flasche', 'Lampe', 'Löffel', 'Rucksack', 'Geige', 'Blume', 'Kamera']",283.7984766000882,283.80126229999587,None,283.8013875000179,289.8068921000231,2,3.985910000046715,None,289.8071882999502,289.80998790008016,None,289.81009709998034,289.81128860008903,289.81130039994605,289.8125028000213,,,,,,,,,,,,,,,,,,,,,,,,,,,,,,,,,,,,,,,,,,,,,,,2,2024-01-30_12h01.14.746,watkins1,2023.2.3,99.6706879991844,103,2024-01-30 12h01.21.815605 +0000,
,,,,,,,,,,,2,0,2,0,,,,,,,,,,,,,289.8163513999898,,,,,,,,,,,,289.81278140004724,290.30836359993555,,,[],[],,,,,,,,,,,,None,None,,,,,,,,,,Schlüssel,kurz,"['Schlüssel', 'kurz']",test_sub,2,,,,,,289.812716800021,289.81275500007905,"['Hammer', 'Würfel', 'Schlüssel', 'Trommel', 'Uhr', 'Tasche', 'Buch', 'Kiste', 'Brille', 'Tasse', 'Jacke', 'Kette', 'Bürste', 'Hut', 'Ring', 'Kerze', 'Eimer', 'Fahrrad', 'Socke', 'Vase', 'Schere', 'Telefon', 'Stift', 'Flasche', 'Lampe', 'Löffel', 'Rucksack', 'Geige', 'Blume', 'Kamera']",290.30837530014105,290.3112164000049,None,290.3113422000315,290.31287220004015,None,,,290.3129839000758,290.3144980999641,None,290.3146057999693,290.3158577999566,290.3158708999399,296.31943040015176,0,,,,,,,,,,,,,,,,,,,,,,,,,,,,,,,,,,,,,,,,,,,,,,2,2024-01-30_12h01.14.746,watkins1,2023.2.3,99.6706879991844,103,2024-01-30 12h01.21.815605 +0000,
,,,,,,,,,,,3,0,3,0,,,,,,,,,,,,,296.3292074999772,,,,,,,,,,,,296.3197151001077,296.8111622000579,,,[],[],,,,,,,,,,,,None,None,,,,,,,,,,Trommel,krumm,"['Trommel', 'krumm']",test_sub,2,,,,,,296.3196483999491,296.3196864000056,"['Hammer', 'Würfel', 'Schlüssel', 'Trommel', 'Uhr', 'Tasche', 'Buch', 'Kiste', 'Brille', 'Tasse', 'Jacke', 'Kette', 'Bürste', 'Hut', 'Ring', 'Kerze', 'Eimer', 'Fahrrad', 'Socke', 'Vase', 'Schere', 'Telefon', 'Stift', 'Flasche', 'Lampe', 'Löffel', 'Rucksack', 'Geige', 'Blume', 'Kamera']",296.81117320014164,296.8137883001473,None,296.8139130999334,296.81673400010914,None,,,296.8168467001524,296.81926320004277,None,296.819372799946,296.8205844000913,296.8205973999575,302.82575489999726,0,,,,,,,,,,,,,,,,,,,,,,,,,,,,,,,,,,,,,,,,,,,,,,2,2024-01-30_12h01.14.746,watkins1,2023.2.3,99.6706879991844,103,2024-01-30 12h01.21.815605 +0000,
,,,,,,,,,,,4,0,4,0,,,,,,,,,,,,,302.8356218999252,,,,,,,,,,,,302.8260395999532,303.3174407000188,,,[],[],,,,,,,,,,,,None,None,,,,,,,,,,Uhr,hübsch,"['Uhr', 'hübsch']",restudy,2,,,,,,302.82597070001066,302.8260077999439,"['Hammer', 'Würfel', 'Schlüssel', 'Trommel', 'Uhr', 'Tasche', 'Buch', 'Kiste', 'Brille', 'Tasse', 'Jacke', 'Kette', 'Bürste', 'Hut', 'Ring', 'Kerze', 'Eimer', 'Fahrrad', 'Socke', 'Vase', 'Schere', 'Telefon', 'Stift', 'Flasche', 'Lampe', 'Löffel', 'Rucksack', 'Geige', 'Blume', 'Kamera']",303.31745350011624,303.3200157000683,None,303.320142300101,309.3210402999539,2,3.731177900219336,None,309.32134760008194,309.3238683999516,None,309.32398009998724,309.3250521000009,309.3250643000938,309.3262215999421,,,,,,,,,,,,,,,,,,,,,,,,,,,,,,,,,,,,,,,,,,,,,,,2,2024-01-30_12h01.14.746,watkins1,2023.2.3,99.6706879991844,103,2024-01-30 12h01.21.815605 +0000,
,,,,,,,,,,,5,0,5,0,,,,,,,,,,,,,309.33048010012135,,,,,,,,,,,,309.32650580001064,309.8224113001488,,,[],[],,,,,,,,,,,,3.0006601999048144,None,,,,,tasche,,,,,Tasche,gut,"['Tasche', 'gut']",test_sub,2,,,,,,309.3264389000833,309.32647860003635,"['Hammer', 'Würfel', 'Schlüssel', 'Trommel', 'Uhr', 'Tasche', 'Buch', 'Kiste', 'Brille', 'Tasse', 'Jacke', 'Kette', 'Bürste', 'Hut', 'Ring', 'Kerze', 'Eimer', 'Fahrrad', 'Socke', 'Vase', 'Schere', 'Telefon', 'Stift', 'Flasche', 'Lampe', 'Löffel', 'Rucksack', 'Geige', 'Blume', 'Kamera']",309.82242360012606,309.82515879999846,None,309.82528540003113,309.82689450006,None,,,309.8270046999678,309.828456700081,None,309.82856520009227,309.82974190008827,309.8297550000716,315.83277110010386,0,,,,,,,,,,,,,,,,,,,,,,,,,,,,,,,,,,,,,,,,,,,,,,2,2024-01-30_12h01.14.746,watkins1,2023.2.3,99.6706879991844,103,2024-01-30 12h01.21.815605 +0000,
,,,,,,,,,,,6,0,6,0,,,,,,,,,,,,,315.84260560013354,,,,,,,,,,,,315.8330509001389,316.32440960011445,,,[],[],,,,,,,,,,,,4.267885399982333,None,,,,,katze,,,,,Buch,verspielt,"['Buch', 'verspielt']",test_sub,2,,,,,,315.8329827999696,315.8330215001479,"['Hammer', 'Würfel', 'Schlüssel', 'Trommel', 'Uhr', 'Tasche', 'Buch', 'Kiste', 'Brille', 'Tasse', 'Jacke', 'Kette', 'Bürste', 'Hut', 'Ring', 'Kerze', 'Eimer', 'Fahrrad', 'Socke', 'Vase', 'Schere', 'Telefon', 'Stift', 'Flasche', 'Lampe', 'Löffel', 'Rucksack', 'Geige', 'Blume', 'Kamera']",316.3244211000856,316.32682480011135,None,316.3269744000863,316.3292477999348,None,,,316.3293578000739,316.3316075000912,None,316.33171600010246,316.33276160014793,316.33277450012974,322.33764569996856,0,,,,,,,,,,,,,,,,,,,,,,,,,,,,,,,,,,,,,,,,,,,,,,2,2024-01-30_12h01.14.746,watkins1,2023.2.3,99.6706879991844,103,2024-01-30 12h01.21.815605 +0000,
,,,,,,,,,,,7,0,7,0,,,,,,,,,,,,,322.34748039999977,,,,,,,,,,,,322.3379313000478,322.8296209999826,,,[],[],,,,,,,,,,,,None,None,,,,,,,,,,Kiste,glänzend,"['Kiste', 'glänzend']",restudy,2,,,,,,322.3378634999972,322.3379027999472,"['Hammer', 'Würfel', 'Schlüssel', 'Trommel', 'Uhr', 'Tasche', 'Buch', 'Kiste', 'Brille', 'Tasse', 'Jacke', 'Kette', 'Bürste', 'Hut', 'Ring', 'Kerze', 'Eimer', 'Fahrrad', 'Socke', 'Vase', 'Schere', 'Telefon', 'Stift', 'Flasche', 'Lampe', 'Löffel', 'Rucksack', 'Geige', 'Blume', 'Kamera']",322.82963249995373,322.8324132000562,None,322.8325384000782,328.84014410013333,2,1.7466039001010358,None,328.8404381000437,328.84323480003513,None,328.84334650007077,328.8445115000941,328.84452349995263,328.8460608001333,,,,,,,,,,,,,,,,,,,,,,,,,,,,,,,,,,,,,,,,,,,,,,,2,2024-01-30_12h01.14.746,watkins1,2023.2.3,99.6706879991844,103,2024-01-30 12h01.21.815605 +0000,
,,,,,,,,,,,8,0,8,0,,,,,,,,,,,,,328.849617900094,,,,,,,,,,,,328.84634439996444,329.34172399993986,,,[],[],,,,,,,,,,,,4.065231299959123,None,,,,,brille,,,,,Brille,strahlend,"['Brille', 'strahlend']",test_sub,2,,,,,,328.84627839992754,328.84631730010733,"['Hammer', 'Würfel', 'Schlüssel', 'Trommel', 'Uhr', 'Tasche', 'Buch', 'Kiste', 'Brille', 'Tasse', 'Jacke', 'Kette', 'Bürste', 'Hut', 'Ring', 'Kerze', 'Eimer', 'Fahrrad', 'Socke', 'Vase', 'Schere', 'Telefon', 'Stift', 'Flasche', 'Lampe', 'Löffel', 'Rucksack', 'Geige', 'Blume', 'Kamera']",329.3417358000297,329.34458320005797,None,329.34470620006323,329.34615110000595,None,,,329.3462602000218,329.3477020000573,None,329.34780999994837,329.34898600005545,329.34899900015444,335.35243250010535,0,,,,,,,,,,,,,,,,,,,,,,,,,,,,,,,,,,,,,,,,,,,,,,2,2024-01-30_12h01.14.746,watkins1,2023.2.3,99.6706879991844,103,2024-01-30 12h01.21.815605 +0000,
,,,,,,,,,,,9,0,9,0,,,,,,,,,,,,,335.3622860999312,,,,,,,,,,,,335.3527146000415,335.84427310014144,,,[],[],,,,,,,,,,,,1.9795121001079679,None,,,,,Tasse,,,,,Tasse,rustikal,"['Tasse', 'rustikal']",test_sub,2,,,,,,335.35264719999395,335.3526852000505,"['Hammer', 'Würfel', 'Schlüssel', 'Trommel', 'Uhr', 'Tasche', 'Buch', 'Kiste', 'Brille', 'Tasse', 'Jacke', 'Kette', 'Bürste', 'Hut', 'Ring', 'Kerze', 'Eimer', 'Fahrrad', 'Socke', 'Vase', 'Schere', 'Telefon', 'Stift', 'Flasche', 'Lampe', 'Löffel', 'Rucksack', 'Geige', 'Blume', 'Kamera']",335.8442846001126,335.8470662999898,None,335.8471874999814,335.84976599994116,None,,,335.84988009999506,335.85245320014656,None,335.85256080003455,335.85384390014224,335.8538569000084,341.85963680013083,1,,,,,,,,,,,,,,,,,,,,,,,,,,,,,,,,,,,,,,,,,,,,,,2,2024-01-30_12h01.14.746,watkins1,2023.2.3,99.6706879991844,103,2024-01-30 12h01.21.815605 +0000,
,,,,,,,,,,,10,0,10,0,,,,,,,,,,,,,341.8693804999348,,,,,,,,,,,,341.8599167999346,342.3513794001192,,,[],[],,,,,,,,,,,,1.1862747000996023,None,,,,,Jacke,,,,,Jacke,lang,"['Jacke', 'lang']",test_sub,2,,,,,,341.8598500001244,341.8598883000668,"['Hammer', 'Würfel', 'Schlüssel', 'Trommel', 'Uhr', 'Tasche', 'Buch', 'Kiste', 'Brille', 'Tasse', 'Jacke', 'Kette', 'Bürste', 'Hut', 'Ring', 'Kerze', 'Eimer', 'Fahrrad', 'Socke', 'Vase', 'Schere', 'Telefon', 'Stift', 'Flasche', 'Lampe', 'Löffel', 'Rucksack', 'Geige', 'Blume', 'Kamera']",342.3513907000888,342.3541880999692,None,342.3543134999927,342.35705620003864,None,,,342.3571667999495,342.35975589999,None,342.3598637999967,342.36111399997026,342.36112689995207,348.366812299937,1,,,,,,,,,,,,,,,,,,,,,,,,,,,,,,,,,,,,,,,,,,,,,,2,2024-01-30_12h01.14.746,watkins1,2023.2.3,99.6706879991844,103,2024-01-30 12h01.21.815605 +0000,
,,,,,,,,,,,11,0,11,0,,,,,,,,,,,,,348.3766395000275,,,,,,,,,,,,348.3670969000086,348.85865870001726,,,[],[],,,,,,,,,,,,None,None,,,,,,,,,,Kette,flach,"['Kette', 'flach']",test_sub,2,,,,,,348.36702749994583,348.36706740013324,"['Hammer', 'Würfel', 'Schlüssel', 'Trommel', 'Uhr', 'Tasche', 'Buch', 'Kiste', 'Brille', 'Tasse', 'Jacke', 'Kette', 'Bürste', 'Hut', 'Ring', 'Kerze', 'Eimer', 'Fahrrad', 'Socke', 'Vase', 'Schere', 'Telefon', 'Stift', 'Flasche', 'Lampe', 'Löffel', 'Rucksack', 'Geige', 'Blume', 'Kamera']",348.85867010010406,348.86122630001046,None,348.86134800012223,348.86373240011744,None,,,348.8638440000359,348.86622050008737,None,348.86632809997536,348.8674848000519,348.8674977000337,354.8726719999686,0,,,,,,,,,,,,,,,,,,,,,,,,,,,,,,,,,,,,,,,,,,,,,,2,2024-01-30_12h01.14.746,watkins1,2023.2.3,99.6706879991844,103,2024-01-30 12h01.21.815605 +0000,
,,,,,,,,,,,12,0,12,0,,,,,,,,,,,,,354.8825292000547,,,,,,,,,,,,354.87295849993825,355.3645927000325,,,[],[],,,,,,,,,,,,2.4000303000211716,None,,,,,Brille,,,,,Bürste,blass,"['Bürste', 'blass']",test_sub,2,,,,,,354.8728885999881,354.87292900006287,"['Hammer', 'Würfel', 'Schlüssel', 'Trommel', 'Uhr', 'Tasche', 'Buch', 'Kiste', 'Brille', 'Tasse', 'Jacke', 'Kette', 'Bürste', 'Hut', 'Ring', 'Kerze', 'Eimer', 'Fahrrad', 'Socke', 'Vase', 'Schere', 'Telefon', 'Stift', 'Flasche', 'Lampe', 'Löffel', 'Rucksack', 'Geige', 'Blume', 'Kamera']",355.36460400000215,355.36732580000535,None,355.3674501001369,355.3699557001237,None,,,355.3700662001502,355.37257870007306,None,355.3726940001361,355.3738732000347,355.3738862001337,361.37919820006937,0,,,,,,,,,,,,,,,,,,,,,,,,,,,,,,,,,,,,,,,,,,,,,,2,2024-01-30_12h01.14.746,watkins1,2023.2.3,99.6706879991844,103,2024-01-30 12h01.21.815605 +0000,
,,,,,,,,,,,13,0,13,0,,,,,,,,,,,,,361.38904640008695,,,,,,,,,,,,361.3794865999371,361.87103229993954,,,[],[],,,,,,,,,,,,None,None,,,,,,,,,,Hut,bunt,"['Hut', 'bunt']",restudy,2,,,,,,361.37941400008276,361.37945510004647,"['Hammer', 'Würfel', 'Schlüssel', 'Trommel', 'Uhr', 'Tasche', 'Buch', 'Kiste', 'Brille', 'Tasse', 'Jacke', 'Kette', 'Bürste', 'Hut', 'Ring', 'Kerze', 'Eimer', 'Fahrrad', 'Socke', 'Vase', 'Schere', 'Telefon', 'Stift', 'Flasche', 'Lampe', 'Löffel', 'Rucksack', 'Geige', 'Blume', 'Kamera']",361.871043600142,361.8735756999813,None,361.87369720009156,367.8766067000106,3,1.9939393000677228,None,367.8768972000107,367.8793596001342,None,367.87947970000096,367.88047530013137,367.8804872999899,367.88179460004903,,,,,,,,,,,,,,,,,,,,,,,,,,,,,,,,,,,,,,,,,,,,,,,2,2024-01-30_12h01.14.746,watkins1,2023.2.3,99.6706879991844,103,2024-01-30 12h01.21.815605 +0000,
,,,,,,,,,,,14,0,14,0,,,,,,,,,,,,,367.8860851000063,,,,,,,,,,,,367.88207240006886,368.3781799999997,,,[],[],,,,,,,,,,,,None,None,,,,,,,,,,Ring,nachhaltig,"['Ring', 'nachhaltig']",restudy,2,,,,,,367.88200769992545,367.882046099985,"['Hammer', 'Würfel', 'Schlüssel', 'Trommel', 'Uhr', 'Tasche', 'Buch', 'Kiste', 'Brille', 'Tasse', 'Jacke', 'Kette', 'Bürste', 'Hut', 'Ring', 'Kerze', 'Eimer', 'Fahrrad', 'Socke', 'Vase', 'Schere', 'Telefon', 'Stift', 'Flasche', 'Lampe', 'Löffel', 'Rucksack', 'Geige', 'Blume', 'Kamera']",368.37819180008955,368.3806523999665,None,368.38077750010416,374.3828581001144,2,1.2702746000140905,None,374.38315519993193,374.3859375999309,None,374.3860510000959,374.38709009997547,374.38710199994966,374.3884157000575,,,,,,,,,,,,,,,,,,,,,,,,,,,,,,,,,,,,,,,,,,,,,,,2,2024-01-30_12h01.14.746,watkins1,2023.2.3,99.6706879991844,103,2024-01-30 12h01.21.815605 +0000,
,,,,,,,,,,,15,0,15,0,,,,,,,,,,,,,374.39235730003566,,,,,,,,,,,,374.3887022000272,374.8845238999929,,,[],[],,,,,,,,,,,,None,None,,,,,,,,,,Kerze,praktisch,"['Kerze', 'praktisch']",test_sub,2,,,,,,374.3886347999796,374.38867429993115,"['Hammer', 'Würfel', 'Schlüssel', 'Trommel', 'Uhr', 'Tasche', 'Buch', 'Kiste', 'Brille', 'Tasse', 'Jacke', 'Kette', 'Bürste', 'Hut', 'Ring', 'Kerze', 'Eimer', 'Fahrrad', 'Socke', 'Vase', 'Schere', 'Telefon', 'Stift', 'Flasche', 'Lampe', 'Löffel', 'Rucksack', 'Geige', 'Blume', 'Kamera']",374.8845351000782,374.8876600000076,None,374.8877844000235,374.8892387000378,None,,,374.8893462000415,374.8908059000969,None,374.8909155000001,374.8920549999457,374.892067699926,380.89696109993383,0,,,,,,,,,,,,,,,,,,,,,,,,,,,,,,,,,,,,,,,,,,,,,,2,2024-01-30_12h01.14.746,watkins1,2023.2.3,99.6706879991844,103,2024-01-30 12h01.21.815605 +0000,
,,,,,,,,,,,16,0,16,0,,,,,,,,,,,,,380.9067556001246,,,,,,,,,,,,380.89724229997955,381.38880040007643,,,[],[],,,,,,,,,,,,None,None,,,,,,,,,,Eimer,kaputt,"['Eimer', 'kaputt']",restudy,2,,,,,,380.8971673999913,380.89721389999613,"['Hammer', 'Würfel', 'Schlüssel', 'Trommel', 'Uhr', 'Tasche', 'Buch', 'Kiste', 'Brille', 'Tasse', 'Jacke', 'Kette', 'Bürste', 'Hut', 'Ring', 'Kerze', 'Eimer', 'Fahrrad', 'Socke', 'Vase', 'Schere', 'Telefon', 'Stift', 'Flasche', 'Lampe', 'Löffel', 'Rucksack', 'Geige', 'Blume', 'Kamera']",381.38881150004454,381.3915929000359,None,381.3917145000305,387.39274460007437,3,2.8435869000386447,None,387.39303779997863,387.3956959999632,None,387.3958052000962,387.39693240006454,387.3969442001544,387.39808680000715,,,,,,,,,,,,,,,,,,,,,,,,,,,,,,,,,,,,,,,,,,,,,,,2,2024-01-30_12h01.14.746,watkins1,2023.2.3,99.6706879991844,103,2024-01-30 12h01.21.815605 +0000,
,,,,,,,,,,,17,0,17,0,,,,,,,,,,,,,387.40220110001974,,,,,,,,,,,,387.39836079999804,387.8942253999412,,,[],[],,,,,,,,,,,,None,None,,,,,,,,,,Fahrrad,schmutzig,"['Fahrrad', 'schmutzig']",restudy,2,,,,,,387.3982957000844,387.3983343001455,"['Hammer', 'Würfel', 'Schlüssel', 'Trommel', 'Uhr', 'Tasche', 'Buch', 'Kiste', 'Brille', 'Tasse', 'Jacke', 'Kette', 'Bürste', 'Hut', 'Ring', 'Kerze', 'Eimer', 'Fahrrad', 'Socke', 'Vase', 'Schere', 'Telefon', 'Stift', 'Flasche', 'Lampe', 'Löffel', 'Rucksack', 'Geige', 'Blume', 'Kamera']",387.8942374000326,387.89695470011793,None,387.8970779001247,393.907633200055,3,1.0901504999492317,None,393.9079245000612,393.9107037000358,None,393.91081589995883,393.9120489000343,393.91206090012565,393.9132876000367,,,,,,,,,,,,,,,,,,,,,,,,,,,,,,,,,,,,,,,,,,,,,,,2,2024-01-30_12h01.14.746,watkins1,2023.2.3,99.6706879991844,103,2024-01-30 12h01.21.815605 +0000,
,,,,,,,,,,,18,0,18,0,,,,,,,,,,,,,393.9171162999701,,,,,,,,,,,,393.91357229999267,394.409205700038,,,[],[],,,,,,,,,,,,None,None,,,,,,,,,,Socke,klobig,"['Socke', 'klobig']",restudy,2,,,,,,393.91350560006686,393.91354500013404,"['Hammer', 'Würfel', 'Schlüssel', 'Trommel', 'Uhr', 'Tasche', 'Buch', 'Kiste', 'Brille', 'Tasse', 'Jacke', 'Kette', 'Bürste', 'Hut', 'Ring', 'Kerze', 'Eimer', 'Fahrrad', 'Socke', 'Vase', 'Schere', 'Telefon', 'Stift', 'Flasche', 'Lampe', 'Löffel', 'Rucksack', 'Geige', 'Blume', 'Kamera']",394.40921800001524,394.41195720015094,None,394.41208310006186,400.412676300155,2,2.0233779000118375,None,400.41297810012475,400.41564580006525,None,400.41575960000046,400.4169193999842,400.4169312999584,400.4181095000822,,,,,,,,,,,,,,,,,,,,,,,,,,,,,,,,,,,,,,,,,,,,,,,2,2024-01-30_12h01.14.746,watkins1,2023.2.3,99.6706879991844,103,2024-01-30 12h01.21.815605 +0000,
,,,,,,,,,,,19,0,19,0,,,,,,,,,,,,,400.4220946999267,,,,,,,,,,,,400.41839480004273,400.9143161000684,,,[],[],,,,,,,,,,,,None,None,,,,,,,,,,Vase,flauschig,"['Vase', 'flauschig']",restudy,2,,,,,,400.4183281001169,400.4183676999528,"['Hammer', 'Würfel', 'Schlüssel', 'Trommel', 'Uhr', 'Tasche', 'Buch', 'Kiste', 'Brille', 'Tasse', 'Jacke', 'Kette', 'Bürste', 'Hut', 'Ring', 'Kerze', 'Eimer', 'Fahrrad', 'Socke', 'Vase', 'Schere', 'Telefon', 'Stift', 'Flasche', 'Lampe', 'Löffel', 'Rucksack', 'Geige', 'Blume', 'Kamera']",400.9143282000441,400.91692160000093,None,400.91704339999706,406.92726700007915,1,1.0943952999077737,None,406.92755810008384,406.9301348000299,None,406.93024539994076,406.93128599994816,406.93129770015366,406.93251010007225,,,,,,,,,,,,,,,,,,,,,,,,,,,,,,,,,,,,,,,,,,,,,,,2,2024-01-30_12h01.14.746,watkins1,2023.2.3,99.6706879991844,103,2024-01-30 12h01.21.815605 +0000,
,,,,,,,,,,,20,0,20,0,,,,,,,,,,,,,406.93681480013765,,,,,,,,,,,,406.93278919998556,407.4288707000669,,,[],[],,,,,,,,,,,,None,None,,,,,,,,,,Schere,nass,"['Schere', 'nass']",restudy,2,,,,,,406.9327247000765,406.932762700133,"['Hammer', 'Würfel', 'Schlüssel', 'Trommel', 'Uhr', 'Tasche', 'Buch', 'Kiste', 'Brille', 'Tasse', 'Jacke', 'Kette', 'Bürste', 'Hut', 'Ring', 'Kerze', 'Eimer', 'Fahrrad', 'Socke', 'Vase', 'Schere', 'Telefon', 'Stift', 'Flasche', 'Lampe', 'Löffel', 'Rucksack', 'Geige', 'Blume', 'Kamera']",407.42888230015524,407.4320074999705,None,407.4321336001158,413.43905070004985,1,1.2834413000382483,None,413.43934440007433,413.44185740011744,None,413.4419672000222,413.44312479998916,413.44313669996336,413.44415610004216,,,,,,,,,,,,,,,,,,,,,,,,,,,,,,,,,,,,,,,,,,,,,,,2,2024-01-30_12h01.14.746,watkins1,2023.2.3,99.6706879991844,103,2024-01-30 12h01.21.815605 +0000,
,,,,,,,,,,,21,0,21,0,,,,,,,,,,,,,413.44848640006967,,,,,,,,,,,,413.44443859998137,413.94069049996324,,,[],[],,,,,,,,,,,,None,None,,,,,,,,,,Telefon,schwer,"['Telefon', 'schwer']",test_sub,2,,,,,,413.4443721999414,413.4444108000025,"['Hammer', 'Würfel', 'Schlüssel', 'Trommel', 'Uhr', 'Tasche', 'Buch', 'Kiste', 'Brille', 'Tasse', 'Jacke', 'Kette', 'Bürste', 'Hut', 'Ring', 'Kerze', 'Eimer', 'Fahrrad', 'Socke', 'Vase', 'Schere', 'Telefon', 'Stift', 'Flasche', 'Lampe', 'Löffel', 'Rucksack', 'Geige', 'Blume', 'Kamera']",413.94070179993287,413.9432308000978,None,413.9433530999813,413.9447870000731,None,,,413.9448963000905,413.94646760006435,None,413.94657450006343,413.9477409000974,413.94775369996205,419.94997539999895,0,,,,,,,,,,,,,,,,,,,,,,,,,,,,,,,,,,,,,,,,,,,,,,2,2024-01-30_12h01.14.746,watkins1,2023.2.3,99.6706879991844,103,2024-01-30 12h01.21.815605 +0000,
,,,,,,,,,,,22,0,22,0,,,,,,,,,,,,,419.9597454001196,,,,,,,,,,,,419.95025709993206,420.4419094999321,,,[],[],,,,,,,,,,,,None,None,,,,,,,,,,Stift,matt,"['Stift', 'matt']",test_sub,2,,,,,,419.95018970011733,419.95022720005363,"['Hammer', 'Würfel', 'Schlüssel', 'Trommel', 'Uhr', 'Tasche', 'Buch', 'Kiste', 'Brille', 'Tasse', 'Jacke', 'Kette', 'Bürste', 'Hut', 'Ring', 'Kerze', 'Eimer', 'Fahrrad', 'Socke', 'Vase', 'Schere', 'Telefon', 'Stift', 'Flasche', 'Lampe', 'Löffel', 'Rucksack', 'Geige', 'Blume', 'Kamera']",420.4419212001376,420.44460089993663,None,420.4447234000545,420.4472376999911,None,,,420.44734780001454,420.4498517001048,None,420.4499629000202,420.4511126000434,420.4511254001409,426.4562015000265,0,,,,,,,,,,,,,,,,,,,,,,,,,,,,,,,,,,,,,,,,,,,,,,2,2024-01-30_12h01.14.746,watkins1,2023.2.3,99.6706879991844,103,2024-01-30 12h01.21.815605 +0000,
,,,,,,,,,,,23,0,23,0,,,,,,,,,,,,,426.4659756999463,,,,,,,,,,,,426.4564857999794,426.94830720010214,,,[],[],,,,,,,,,,,,None,None,,,,,,,,,,Flasche,zart,"['Flasche', 'zart']",restudy,2,,,,,,426.4564171000384,426.45645630010404,"['Hammer', 'Würfel', 'Schlüssel', 'Trommel', 'Uhr', 'Tasche', 'Buch', 'Kiste', 'Brille', 'Tasse', 'Jacke', 'Kette', 'Bürste', 'Hut', 'Ring', 'Kerze', 'Eimer', 'Fahrrad', 'Socke', 'Vase', 'Schere', 'Telefon', 'Stift', 'Flasche', 'Lampe', 'Löffel', 'Rucksack', 'Geige', 'Blume', 'Kamera']",426.94831879995763,426.9508907001,None,426.9510147999972,432.9562053999398,1,1.356144400080666,None,432.95649250014685,432.9590873999987,None,432.9591966001317,432.9603597000241,432.96037130011246,432.96136640012264,,,,,,,,,,,,,,,,,,,,,,,,,,,,,,,,,,,,,,,,,,,,,,,2,2024-01-30_12h01.14.746,watkins1,2023.2.3,99.6706879991844,103,2024-01-30 12h01.21.815605 +0000,
,,,,,,,,,,,24,0,24,0,,,,,,,,,,,,,432.9656939001288,,,,,,,,,,,,432.96164300013334,433.4576447000727,,,[],[],,,,,,,,,,,,None,None,,,,,,,,,,Lampe,hohl,"['Lampe', 'hohl']",restudy,2,,,,,,432.9615788999945,432.96161650004797,"['Hammer', 'Würfel', 'Schlüssel', 'Trommel', 'Uhr', 'Tasche', 'Buch', 'Kiste', 'Brille', 'Tasse', 'Jacke', 'Kette', 'Bürste', 'Hut', 'Ring', 'Kerze', 'Eimer', 'Fahrrad', 'Socke', 'Vase', 'Schere', 'Telefon', 'Stift', 'Flasche', 'Lampe', 'Löffel', 'Rucksack', 'Geige', 'Blume', 'Kamera']",433.4576564999297,433.46016529994085,None,433.46028749994,439.4609385000076,2,1.5591923000756651,None,439.46123000001535,439.46377220004797,None,439.4638837999664,439.4650177001022,439.46503020008095,439.46604600013234,,,,,,,,,,,,,,,,,,,,,,,,,,,,,,,,,,,,,,,,,,,,,,,2,2024-01-30_12h01.14.746,watkins1,2023.2.3,99.6706879991844,103,2024-01-30 12h01.21.815605 +0000,
,,,,,,,,,,,25,0,25,0,,,,,,,,,,,,,439.4704199000262,,,,,,,,,,,,439.46632639993913,439.9625298001338,,,[],[],,,,,,,,,,,,None,None,,,,,,,,,,Löffel,elegant,"['Löffel', 'elegant']",restudy,2,,,,,,439.4662606001366,439.4662993999664,"['Hammer', 'Würfel', 'Schlüssel', 'Trommel', 'Uhr', 'Tasche', 'Buch', 'Kiste', 'Brille', 'Tasse', 'Jacke', 'Kette', 'Bürste', 'Hut', 'Ring', 'Kerze', 'Eimer', 'Fahrrad', 'Socke', 'Vase', 'Schere', 'Telefon', 'Stift', 'Flasche', 'Lampe', 'Löffel', 'Rucksack', 'Geige', 'Blume', 'Kamera']",439.96254150010645,439.9650515001267,None,439.96517320000567,445.97314260015264,2,2.422163699986413,None,445.9734384000767,445.97619740013033,None,445.9763090000488,445.9774752999656,445.9774871999398,445.97867330000736,,,,,,,,,,,,,,,,,,,,,,,,,,,,,,,,,,,,,,,,,,,,,,,2,2024-01-30_12h01.14.746,watkins1,2023.2.3,99.6706879991844,103,2024-01-30 12h01.21.815605 +0000,
,,,,,,,,,,,26,0,26,0,,,,,,,,,,,,,445.9826222001575,,,,,,,,,,,,445.97895790007897,446.4746405000333,,,[],[],,,,,,,,,,,,None,None,,,,,,,,,,Rucksack,kratzig,"['Rucksack', 'kratzig']",restudy,2,,,,,,445.9788908001501,445.978930399986,"['Hammer', 'Würfel', 'Schlüssel', 'Trommel', 'Uhr', 'Tasche', 'Buch', 'Kiste', 'Brille', 'Tasse', 'Jacke', 'Kette', 'Bürste', 'Hut', 'Ring', 'Kerze', 'Eimer', 'Fahrrad', 'Socke', 'Vase', 'Schere', 'Telefon', 'Stift', 'Flasche', 'Lampe', 'Löffel', 'Rucksack', 'Geige', 'Blume', 'Kamera']",446.47465240000747,446.4773842000868,None,446.47750780009665,452.4850534000434,2,2.0538985000457615,None,452.4853505000938,452.4881893999409,None,452.4883010000922,452.4895446000155,452.4895568001084,452.4907508001197,,,,,,,,,,,,,,,,,,,,,,,,,,,,,,,,,,,,,,,,,,,,,,,2,2024-01-30_12h01.14.746,watkins1,2023.2.3,99.6706879991844,103,2024-01-30 12h01.21.815605 +0000,
,,,,,,,,,,,27,0,27,0,,,,,,,,,,,,,452.4945668000728,,,,,,,,,,,,452.4910828000866,452.9869315000251,,,[],[],,,,,,,,,,,,None,None,,,,,,,,,,Geige,durchsichtig,"['Geige', 'durchsichtig']",test_sub,2,,,,,,452.49100030004047,452.49105500010774,"['Hammer', 'Würfel', 'Schlüssel', 'Trommel', 'Uhr', 'Tasche', 'Buch', 'Kiste', 'Brille', 'Tasse', 'Jacke', 'Kette', 'Bürste', 'Hut', 'Ring', 'Kerze', 'Eimer', 'Fahrrad', 'Socke', 'Vase', 'Schere', 'Telefon', 'Stift', 'Flasche', 'Lampe', 'Löffel', 'Rucksack', 'Geige', 'Blume', 'Kamera']",452.98694380000234,452.98962400015444,None,452.9897489999421,452.9911581000779,None,,,452.9912664000876,452.9926641001366,None,452.9927710001357,452.99391279998235,452.99392580008134,458.99696010001935,0,,,,,,,,,,,,,,,,,,,,,,,,,,,,,,,,,,,,,,,,,,,,,,2,2024-01-30_12h01.14.746,watkins1,2023.2.3,99.6706879991844,103,2024-01-30 12h01.21.815605 +0000,
,,,,,,,,,,,28,0,28,0,,,,,,,,,,,,,459.00678910012357,,,,,,,,,,,,458.9972387999296,459.4887371000368,,,[],[],,,,,,,,,,,,None,None,,,,,,,,,,Blume,biegsam,"['Blume', 'biegsam']",test_sub,2,,,,,,458.997172200121,458.9972099000588,"['Hammer', 'Würfel', 'Schlüssel', 'Trommel', 'Uhr', 'Tasche', 'Buch', 'Kiste', 'Brille', 'Tasse', 'Jacke', 'Kette', 'Bürste', 'Hut', 'Ring', 'Kerze', 'Eimer', 'Fahrrad', 'Socke', 'Vase', 'Schere', 'Telefon', 'Stift', 'Flasche', 'Lampe', 'Löffel', 'Rucksack', 'Geige', 'Blume', 'Kamera']",459.4887501001358,459.4915474001318,None,459.49167170003057,459.4943929000292,None,,,459.4945028000511,459.49710500007495,None,459.4972224000376,459.49836420011707,459.49837690009736,465.50350260012783,0,,,,,,,,,,,,,,,,,,,,,,,,,,,,,,,,,,,,,,,,,,,,,,2,2024-01-30_12h01.14.746,watkins1,2023.2.3,99.6706879991844,103,2024-01-30 12h01.21.815605 +0000,
,,,,,,,,,,,29,0,29,0,,,,,,,,,,,,,465.513303300133,,,,,,,,,,,,465.5037816001568,465.99506750004366,,,[],[],,,,,,,,,,,,4.227586100110784,None,,,,,,,,,,Kamera,groß,"['Kamera', 'groß']",test_sub,2,,,,,,465.50371489999816,465.50375250005163,"['Hammer', 'Würfel', 'Schlüssel', 'Trommel', 'Uhr', 'Tasche', 'Buch', 'Kiste', 'Brille', 'Tasse', 'Jacke', 'Kette', 'Bürste', 'Hut', 'Ring', 'Kerze', 'Eimer', 'Fahrrad', 'Socke', 'Vase', 'Schere', 'Telefon', 'Stift', 'Flasche', 'Lampe', 'Löffel', 'Rucksack', 'Geige', 'Blume', 'Kamera']",465.9950790000148,465.9978154001292,None,465.99794250004925,466.00049509992823,None,,,466.00060450006276,466.0032566001173,None,466.00336720002815,466.00478920014575,466.00480240001343,472.010176199954,0,,,,,,,,,,,,,,,,,,,,,,,,,,,,,,,,,,,,,,,,,,,,,,2,2024-01-30_12h01.14.746,watkins1,2023.2.3,99.6706879991844,103,2024-01-30 12h01.21.815605 +0000,
,,,,,,,,,,,,,,,,,,,,,,,,,,,,,,,,,,,,,,,,,,,,,,,,,,,,,,,,,,,,,,,,,,,,,,,2,,,,,,,,,,,,,,,,,,,,,,,,,,,,,,,,,,,,,,,,,,,,,,,,,,,,,,,,,,,,,,,,,,,,,,2,2024-01-30_12h01.14.746,watkins1,2023.2.3,99.6706879991844,103,2024-01-30 12h01.21.815605 +0000,
(6 x 3) + 10 = 27 ,Incorrect,button_incorrect,,,,,,,,,,,,,0,0,0,8,,,,,,,,,489.3281793000642,,,,,,,,,,488.2968075000681,489.3005295000039,,,,,['button_incorrect'],[4.350280300015584],,,,,,,,,,,,,,,,,,,,,,,,,,distractorTask,2,,,,,,,,,,,,,,,,,,,,,,,,,489.31664780015126,489.3281793000642,493.67231109994464,[-0.3527777777777778],[-0.4064814814814815],[1],[0],[0],[4.350280300015584],['button_incorrect'],493.67297239997424,494.6760579000693,,,,,,,,,,,,,,,,,,,,,,,,,,,,,,,,,,2,2024-01-30_12h01.14.746,watkins1,2023.2.3,99.6706879991844,103,2024-01-30 12h01.21.815605 +0000,
(54 : 6) - 10 = 0 ,Incorrect,button_incorrect,,,,,,,,,,,,,0,1,1,5,,,,,,,,,494.6861392001156,,,,,,,,,,,,,,,,['button_incorrect'],[9.606251700082794],,,,,,,,,,,,,,,,,,,,,,,,,,distractorTask,2,,,,,,,,,,,,,,,,,,,,,,,,,494.6762483001221,494.6861392001156,504.28545500012115,[-0.2898148148148148],[-0.387037037037037],[1],[0],[0],[9.606251700082794],['button_incorrect'],504.2858414000366,505.2893265001476,,,,,,,,,,,,,,,,,,,,,,,,,,,,,,,,,,2,2024-01-30_12h01.14.746,watkins1,2023.2.3,99.6706879991844,103,2024-01-30 12h01.21.815605 +0000,
(80 : 10) + 9 = 17 ,Correct,button_correct,,,,,,,,,,,,,0,2,2,3,,,,,,,,,505.2993084001355,,,,,,,,,,,,,,,,['button_correct'],[2.828532700194046],,,,,,,,,,,,,,,,,,,,,,,,,,distractorTask,2,,,,,,,,,,,,,,,,,,,,,,,,,505.28953070007265,505.2993084001355,508.121551200049,[0.3527777777777778],[-0.41759259259259257],[1],[0],[0],[2.828532700194046],['button_correct'],508.12192780012265,509.1250479000155,,,,,,,,,,,,,,,,,,,,,,,,,,,,,,,,,,2,2024-01-30_12h01.14.746,watkins1,2023.2.3,99.6706879991844,103,2024-01-30 12h01.21.815605 +0000,
(28 : 7) - 3 = 1 ,Correct,button_correct,,,,,,,,,,,,,0,3,3,0,,,,,,,,,509.13508530007675,,,,,,,,,,,,,,,,['button_correct'],[3.9746327998582274],,,,,,,,,,,,,,,,,,,,,,,,,,distractorTask,2,,,,,,,,,,,,,,,,,,,,,,,,,509.12524470011704,509.13508530007675,513.1016884001438,[0.40925925925925927],[-0.3925925925925926],[1],[0],[0],[3.9746327998582274],['button_correct'],513.1020645999815,514.1052203001454,,,,,,,,,,,,,,,,,,,,,,,,,,,,,,,,,,2,2024-01-30_12h01.14.746,watkins1,2023.2.3,99.6706879991844,103,2024-01-30 12h01.21.815605 +0000,
(7 x 6) + 9 = 48 ,Incorrect,button_incorrect,,,,,,,,,,,,,0,4,4,9,,,,,,,,,514.115228000097,,,,,,,,,,,,,,,,['button_incorrect'],[6.776893100002781],,,,,,,,,,,,,,,,,,,,,,,,,,distractorTask,2,,,,,,,,,,,,,,,,,,,,,,,,,514.1054092000704,514.115228000097,520.8841764000244,[-0.34074074074074073],[-0.40370370370370373],[1],[0],[0],[6.776893100002781],['button_incorrect'],520.8845520000905,521.8877129999455,,,,,,,,,,,,,,,,,,,,,,,,,,,,,,,,,,2,2024-01-30_12h01.14.746,watkins1,2023.2.3,99.6706879991844,103,2024-01-30 12h01.21.815605 +0000,
(25 : 5) + 5 = 9 ,Incorrect,button_incorrect,,,,,,,,,,,,,0,5,5,6,,,,,,,,,521.89766649995,,,,,,,,,,,,,,,,['button_incorrect'],[2.278739199973643],,,,,,,,,,,,,,,,,,,,,,,,,,distractorTask,2,,,,,,,,,,,,,,,,,,,,,,,,,521.8879023999907,521.89766649995,524.1683571001049,[-0.2777777777777778],[-0.38425925925925924],[1],[0],[0],[2.278739199973643],['button_incorrect'],524.1687386000995,525.1721159000881,,,,,,,,,,,,,,,,,,,,,,,,,,,,,,,,,,2,2024-01-30_12h01.14.746,watkins1,2023.2.3,99.6706879991844,103,2024-01-30 12h01.21.815605 +0000,
(40 : 5) + 8 = 15 ,Incorrect,button_incorrect,,,,,,,,,,,,,0,6,6,7,,,,,,,,,525.1820785999298,,,,,,,,,,,,,,,,['button_incorrect'],[3.091022100066766],,,,,,,,,,,,,,,,,,,,,,,,,,distractorTask,2,,,,,,,,,,,,,,,,,,,,,,,,,525.1723178001121,525.1820785999298,528.2650355999358,[-0.33796296296296297],[-0.3861111111111111],[1],[0],[0],[3.091022100066766],['button_incorrect'],528.2656739000231,529.2685398000758,,,,,,,,,,,,,,,,,,,,,,,,,,,,,,,,,,2,2024-01-30_12h01.14.746,watkins1,2023.2.3,99.6706879991844,103,2024-01-30 12h01.21.815605 +0000,
(9 x 5) - 9 = 36 ,Correct,button_correct,,,,,,,,,,,,,0,7,7,4,,,,,,,,,529.2785207000561,,,,,,,,,,,,,,,,['button_correct'],[4.57683669985272],,,,,,,,,,,,,,,,,,,,,,,,,,distractorTask,2,,,,,,,,,,,,,,,,,,,,,,,,,529.2687326001469,529.2785207000561,533.847302300157,[0.38981481481481484],[-0.3907407407407407],[1],[0],[0],[4.57683669985272],['button_correct'],533.8476842001546,534.8508134000003,,,,,,,,,,,,,,,,,,,,,,,,,,,,,,,,,,2,2024-01-30_12h01.14.746,watkins1,2023.2.3,99.6706879991844,103,2024-01-30 12h01.21.815605 +0000,
(2 x 5) + 3 = 13 ,Correct,button_correct,,,,,,,,,,,,,0,8,8,2,,,,,,,,,534.8608524999581,,,,,,,,,,,,,,,,['button_correct'],[1.7159492999780923],,,,,,,,,,,,,,,,,,,,,,,,,,distractorTask,2,,,,,,,,,,,,,,,,,,,,,,,,,534.8510026999284,534.8608524999581,536.5688124001026,[0.3638888888888889],[-0.4046296296296296],[1],[0],[0],[1.7159492999780923],['button_correct'],536.5692237000912,537.5718070999719,,,,,,,,,,,,,,,,,,,,,,,,,,,,,,,,,,2,2024-01-30_12h01.14.746,watkins1,2023.2.3,99.6706879991844,103,2024-01-30 12h01.21.815605 +0000,
(4 : 2) + 4 = 6 ,Correct,button_correct,,,,,,,,,,,,,0,9,9,1,,,,,,,,,537.5818970000837,,,,,,,,,,,,,,,,['button_correct'],[3.010533900000155],,,,,,,,,,,,,,,,,,,,,,,,,,distractorTask,2,,,,,,,,,,,,,,,,,,,,,,,,,537.5719981000293,537.5818970000837,540.5842230999842,[0.35555555555555557],[-0.38981481481481484],[1],[0],[0],[3.010533900000155],['button_correct'],540.5845989999361,541.5879496999551,,,,,,,,,,,,,,,,,,,,,,,,,,,,,,,,,,2,2024-01-30_12h01.14.746,watkins1,2023.2.3,99.6706879991844,103,2024-01-30 12h01.21.815605 +0000,
,,,,,,,,,,,,,,,,,,,,,,,,,,,,,,,,,,,,,,,,,,,,,,,,,,,,,,,,,,,,,,,,,,,,,,,2,,,,,,,,,,,,,,,,,,,,,,,,,,,,,,,,,,,,,,,,,,,,,,,,,,,,,,,,,,,,,,,,,,,,,,2,2024-01-30_12h01.14.746,watkins1,2023.2.3,99.6706879991844,103,2024-01-30 12h01.21.815605 +0000,
,,,,,,,,,,,,,,,,,,,0,0,0,0,,,,,550.7947456000838,,,,,,,,,,,,,,,,Brille,7.373075700132176,,,,,,,,,,,,4.256763300159946,None,,,,,,,,,,,,,freeRecallSub,2,,,,,,,,,,,,,,,,,,,,,,,,,,,,,,,,,,,,,550.786028600065,550.7947456000838,550.7947456000838,558.1749190001283,return,7.373075700132176,None,Brille,[],[],[],[],[],[],[],,,,,,,,,,,,,,,,,,,2,2024-01-30_12h01.14.746,watkins1,2023.2.3,99.6706879991844,103,2024-01-30 12h01.21.815605 +0000,
,,,,,,,,,,,,,,,,,,,1,0,1,0,,,,,558.1870244001038,,,,,,,,,,,,,,,,Jacke,1.6606757000554353,,,,,,,,,,,,0.6143126001115888,None,,,,,,,,,,,,,freeRecallSub,2,,,,,,,,,,,,,,,,,,,,,,,,,,,,,,,,,,,,,558.1766697000712,558.1870244001038,558.1870244001038,559.8552959000226,return,1.6606757000554353,None,Jacke,[],[],[],[],[],[],[],,,,,,,,,,,,,,,,,,,2,2024-01-30_12h01.14.746,watkins1,2023.2.3,99.6706879991844,103,2024-01-30 12h01.21.815605 +0000,
,,,,,,,,,,,,,,,,,,,2,0,2,0,,,,,559.8659757999703,,,,,,,,,,,,,,,,Vase,1.637830600142479,,,,,,,,,,,,0.30099879996851087,None,,,,,,,,,,,,,freeRecallSub,2,,,,,,,,,,,,,,,,,,,,,,,,,,,,,,,,,,,,,559.8565074999351,559.8659757999703,559.8659757999703,561.5127669000067,return,1.637830600142479,None,Vase,[],[],[],[],[],[],[],,,,,,,,,,,,,,,,,,,2,2024-01-30_12h01.14.746,watkins1,2023.2.3,99.6706879991844,103,2024-01-30 12h01.21.815605 +0000,
,,,,,,,,,,,,,,,,,,,3,0,3,0,,,,,561.5233790001366,,,,,,,,,,,,,,,,Schere,2.044380299979821,,,,,,,,,,,,0.993884600000456,None,,,,,,,,,,,,,freeRecallSub,2,,,,,,,,,,,,,,,,,,,,,,,,,,,,,,,,,,,,,561.5140199000016,561.5233790001366,561.5233790001366,563.5723307000007,return,2.044380299979821,None,Schere,[],[],[],[],[],[],[],,,,,,,,,,,,,,,,,,,2,2024-01-30_12h01.14.746,watkins1,2023.2.3,99.6706879991844,103,2024-01-30 12h01.21.815605 +0000,
,,,,,,,,,,,,,,,,,,,4,0,4,0,,,,,563.5831154999323,,,,,,,,,,,,,,,,Kiste,1.4725958998315036,,,,,,,,,,,,0.5621591999661177,None,,,,,,,,,,,,,freeRecallSub,2,,,,,,,,,,,,,,,,,,,,,,,,,,,,,,,,,,,,,563.5735504000913,563.5831154999323,563.5831154999323,565.059768000152,return,1.4725958998315036,None,Kiste,[],[],[],[],[],[],[],,,,,,,,,,,,,,,,,,,2,2024-01-30_12h01.14.746,watkins1,2023.2.3,99.6706879991844,103,2024-01-30 12h01.21.815605 +0000,
,,,,,,,,,,,,,,,,,,,5,0,5,0,,,,,565.0709214000963,,,,,,,,,,,,,,,,Löffel,3.3929169999901205,,,,,,,,,,,,0.3722746998537332,None,,,,,,,,,,,,,freeRecallSub,2,,,,,,,,,,,,,,,,,,,,,,,,,,,,,,,,,,,,,565.0610156001057,565.0709214000963,565.0709214000963,568.465335899964,return,3.3929169999901205,None,Löffel,[],[],[],[],[],[],[],,,,,,,,,,,,,,,,,,,2,2024-01-30_12h01.14.746,watkins1,2023.2.3,99.6706879991844,103,2024-01-30 12h01.21.815605 +0000,
,,,,,,,,,,,,,,,,,,,6,0,6,0,,,,,568.4768145999406,,,,,,,,,,,,,,,,Ring,31.675008499994874,,,,,,,,,,,,30.88704390008934,None,,,,,,,,,,,,,freeRecallSub,2,,,,,,,,,,,,,,,,,,,,,,,,,,,,,,,,,,,,,568.4665864999406,568.4768145999406,568.4768145999406,600.1572086000815,return,31.675008499994874,None,Ring,[],[],[],[],[],[],[],,,,,,,,,,,,,,,,,,,2,2024-01-30_12h01.14.746,watkins1,2023.2.3,99.6706879991844,103,2024-01-30 12h01.21.815605 +0000,
,,,,,,,,,,,,,,,,,,,7,0,7,0,,,,,600.1689033999573,,,,,,,,,,,,,,,,Rucksack,8.054974499857053,,,,,,,,,,,,4.770878700073808,None,,,,,,,,,,,,,freeRecallSub,2,,,,,,,,,,,,,,,,,,,,,,,,,,,,,,,,,,,,,600.1584638999775,600.1689033999573,600.1689033999573,608.232700600056,return,8.054974499857053,None,Rucksack,[],[],[],[],[],[],[],,,,,,,,,,,,,,,,,,,2,2024-01-30_12h01.14.746,watkins1,2023.2.3,99.6706879991844,103,2024-01-30 12h01.21.815605 +0000,
,,,,,,,,,,,,,,,,,,,8,0,8,0,,,,,608.2447466999292,,,,,,,,,,,,,,,,Stift,34.61905579990707,,,,,,,,,,,,32.15353640005924,None,,,,,,,,,,,,,freeRecallSub,2,,,,,,,,,,,,,,,,,,,,,,,,,,,,,,,,,,,,,608.2340075999964,608.2447466999292,608.2447466999292,642.8680034000427,return,34.61905579990707,None,Stift,[],[],[],[],[],[],[],,,,,,,,,,,,,,,,,,,2,2024-01-30_12h01.14.746,watkins1,2023.2.3,99.6706879991844,103,2024-01-30 12h01.21.815605 +0000,
,,,,,,,,,,,,,,,,,,,9,0,9,0,,,,,642.8795622000471,,,,,,,,,,,,,,,,Uhr,22.320245999842882,,,,,,,,,,,,20.806382699869573,None,,,,,,,,,,,,,freeRecallSub,2,,,,,,,,,,,,,,,,,,,,,,,,,,,,,,,,,,,,,642.8692457999568,642.8795622000471,642.8795622000471,665.2026206001174,return,22.320245999842882,None,Uhr,[],[],[],[],[],[],[],,,,,,,,,,,,,,,,,,,2,2024-01-30_12h01.14.746,watkins1,2023.2.3,99.6706879991844,103,2024-01-30 12h01.21.815605 +0000,
,,,,,,,,,,,,,,,,,,,10,0,10,0,,,,,665.2146664001048,,,,,,,,,,,,,,,,Telefon,35.48125339997932,,,,,,,,,,,,28.24727389984764,None,,,,,,,,,,,,,freeRecallSub,2,,,,,,,,,,,,,,,,,,,,,,,,,,,,,,,,,,,,,665.2038386000786,665.2146664001048,665.2146664001048,700.7006676001474,return,35.48125339997932,None,Telefon,[],[],[],[],[],[],[],,,,,,,,,,,,,,,,,,,2,2024-01-30_12h01.14.746,watkins1,2023.2.3,99.6706879991844,103,2024-01-30 12h01.21.815605 +0000,
,,,,,,,,,,,,,,,,,,,11,0,11,0,,,,,700.7133899000473,,,,,,,,,,,,,,,,Blume,23.91841349983588,,,,,,,,,,,,21.018616700079292,None,,,,,,,,,,,,,freeRecallSub,2,,,,,,,,,,,,,,,,,,,,,,,,,,,,,,,,,,,,,700.7019494001288,700.7133899000473,700.7133899000473,724.6327043999918,return,23.91841349983588,None,Blume,[],[],[],[],[],[],[],,,,,,,,,,,,,,,,,,,2,2024-01-30_12h01.14.746,watkins1,2023.2.3,99.6706879991844,103,2024-01-30 12h01.21.815605 +0000,
,,,,,,,,,,,,,,,,,,,12,0,12,0,,,,,724.6453835000284,,,,,,,,,,,,,,,,,[],,,,,,,,,,,,None,None,,,,,,,,,,,,,freeRecallSub,2,,,,,,,,,,,,,,,,,,,,,,,,,,,,,,,,,,,,,724.6339676000644,724.6453835000284,724.6453835000284,731.8571630001534,None,,,,[0.43703703703703706],[-0.39814814814814814],[1],[0],[0],[7.218032500008121],"['button_continue', 'continue_text']",,,,,,,,,,,,,,,,,,,2,2024-01-30_12h01.14.746,watkins1,2023.2.3,99.6706879991844,103,2024-01-30 12h01.21.815605 +0000,
,,,,,,,,,,,,,,,,,,,,,,,,,,,,,,,,,,,,,,,,,,,,,,,,,,,,,,,,,,,,,,,,,,,,,,,2,,,,,,,,,,,,,,,,,,,,,,,,,,,,,,,,,,,,,,,,,,,,,,,,,,,,,,,,,,,,,,,,,,,,,,2,2024-01-30_12h01.14.746,watkins1,2023.2.3,99.6706879991844,103,2024-01-30 12h01.21.815605 +0000,
,,,,,,,,,,,,,,,,,,,,,,,0,0,0,0,738.545069700107,,,,,,,,,,,,742.2541124999989,742.7520822000224,,,,3.7029350998345762,,,,,,,,,,,,None,None,,,,,,,,,,Schere,,,cuedRecallAdj,2,,,,,,,,,,,,,,,,,,,,,,,,0,,,,,,,,,,,,,,,,,,,,,,,,,,,,738.5360088001471,738.545069700107,738.545069700107,742.2504881999921,nass,return,3.7029350998345762,None,742.2508799000643,742.2600092999637,742.2600092999637,742.2539578999858,,None,,,,,2,2024-01-30_12h01.14.746,watkins1,2023.2.3,99.6706879991844,103,2024-01-30 12h01.21.815605 +0000,
,,,,,,,,,,,,,,,,,,,,,,,1,0,1,0,742.7619872000068,,,,,,,,,,,,746.5513572001364,747.0500976999756,,,,3.781894400017336,,,,,,,,,,,,None,None,,,,,,,,,,Geige,,,cuedRecallAdj,2,,,,,,,,,,,,,,,,,,,,,,,,0,,,,,,,,,,,,,,,,,,,,,,,,,,,,742.7523261001334,742.7619872000068,742.7619872000068,746.5485205000732,hohl,return,3.781894400017336,None,746.5487881000154,746.5580778000876,746.5580778000876,746.5512552000582,,None,,,,,2,2024-01-30_12h01.14.746,watkins1,2023.2.3,99.6706879991844,103,2024-01-30 12h01.21.815605 +0000,
,,,,,,,,,,,,,,,,,,,,,,,2,0,2,0,747.0600413000211,,,,,,,,,,,,749.8448942999821,750.3435823000036,,,,2.771910100011155,,,,,,,,,,,,None,None,,,,,,,,,,Rucksack,,,cuedRecallAdj,2,,,,,,,,,,,,,,,,,,,,,,,,0,,,,,,,,,,,,,,,,,,,,,,,,,,,,747.050341000082,747.0600413000211,747.0600413000211,749.8418145999312,kratzig,return,2.771910100011155,None,749.8420786999632,749.8515019000042,749.8515019000042,749.8447920000181,,None,,,,,2,2024-01-30_12h01.14.746,watkins1,2023.2.3,99.6706879991844,103,2024-01-30 12h01.21.815605 +0000,
,,,,,,,,,,,,,,,,,,,,,,,3,0,3,0,750.3536106999964,,,,,,,,,,,,753.2088018001523,753.7072691000067,,,,2.847955600125715,,,,,,,,,,,,None,None,,,,,,,,,,Löffel,,,cuedRecallAdj,2,,,,,,,,,,,,,,,,,,,,,,,,0,,,,,,,,,,,,,,,,,,,,,,,,,,,,750.3438316001557,750.3536106999964,750.3536106999964,753.2057113000192,elegant,return,2.847955600125715,None,753.205994399963,753.2152303999756,753.2152303999756,753.2086670999415,,None,,,,,2,2024-01-30_12h01.14.746,watkins1,2023.2.3,99.6706879991844,103,2024-01-30 12h01.21.815605 +0000,
,,,,,,,,,,,,,,,,,,,,,,,4,0,4,0,753.7172584000509,,,,,,,,,,,,757.2051473001484,757.7038144001272,,,,3.482585299992934,,,,,,,,,,,,None,None,,,,,,,,,,Eimer,,,cuedRecallAdj,2,,,,,,,,,,,,,,,,,,,,,,,,0,,,,,,,,,,,,,,,,,,,,,,,,,,,,753.7075211999472,753.7172584000509,753.7172584000509,757.2021814000327,kaputt,return,3.482585299992934,None,757.2024489000905,757.21173560014,757.21173560014,757.2050461000763,,None,,,,,2,2024-01-30_12h01.14.746,watkins1,2023.2.3,99.6706879991844,103,2024-01-30 12h01.21.815605 +0000,
,,,,,,,,,,,,,,,,,,,,,,,5,0,5,0,757.7137037001085,,,,,,,,,,,,763.1994773999322,763.6979539000895,,,,5.478228700114414,,,,,,,,,,,,None,None,,,,,,,,,,Brille,,,cuedRecallAdj,2,,,,,,,,,,,,,,,,,,,,,,,,0,,,,,,,,,,,,,,,,,,,,,,,,,,,,757.7040582001209,757.7137037001085,757.7137037001085,763.1962838999461,glänzend,return,5.478228700114414,None,763.1965463000815,763.2058325000107,763.2058325000107,763.1993764999788,,None,,,,,2,2024-01-30_12h01.14.746,watkins1,2023.2.3,99.6706879991844,103,2024-01-30 12h01.21.815605 +0000,
,,,,,,,,,,,,,,,,,,,,,,,6,0,6,0,763.707893300103,,,,,,,,,,,,767.3960520001128,767.8949695001356,,,,3.684085899963975,,,,,,,,,,,,None,None,,,,,,,,,,Kette,,,cuedRecallAdj,2,,,,,,,,,,,,,,,,,,,,,,,,0,,,,,,,,,,,,,,,,,,,,,,,,,,,,763.6981971000787,763.707893300103,763.707893300103,767.3930983000901,flach,return,3.684085899963975,None,767.3933633000124,767.4026103999931,767.4026103999931,767.3959499001503,,None,,,,,2,2024-01-30_12h01.14.746,watkins1,2023.2.3,99.6706879991844,103,2024-01-30 12h01.21.815605 +0000,
,,,,,,,,,,,,,,,,,,,,,,,7,0,7,0,767.9049172999803,,,,,,,,,,,,770.177310799947,770.6759093999863,,,,2.263089300133288,,,,,,,,,,,,None,None,,,,,,,,,,Tasche,,,cuedRecallAdj,2,,,,,,,,,,,,,,,,,,,,,,,,0,,,,,,,,,,,,,,,,,,,,,,,,,,,,767.8952120000031,767.9049172999803,767.9049172999803,770.1743014999665,gut,return,2.263089300133288,None,770.1745651999954,770.1838821999263,770.1838821999263,770.1772092001047,,None,,,,,2,2024-01-30_12h01.14.746,watkins1,2023.2.3,99.6706879991844,103,2024-01-30 12h01.21.815605 +0000,
,,,,,,,,,,,,,,,,,,,,,,,8,0,8,0,770.6858560000546,,,,,,,,,,,,772.7381140000653,773.2367100000847,,,,2.0421025999821723,,,,,,,,,,,,None,None,,,,,,,,,,Kamera,,,cuedRecallAdj,2,,,,,,,,,,,,,,,,,,,,,,,,0,,,,,,,,,,,,,,,,,,,,,,,,,,,,770.6761562000029,770.6858560000546,770.6858560000546,772.7351321999449,groß,return,2.0421025999821723,None,772.7353940999601,772.7447011000477,772.7447011000477,772.7380127999932,,None,,,,,2,2024-01-30_12h01.14.746,watkins1,2023.2.3,99.6706879991844,103,2024-01-30 12h01.21.815605 +0000,
,,,,,,,,,,,,,,,,,,,,,,,9,0,9,0,773.2465914001223,,,,,,,,,,,,784.0964619999286,784.5857134000398,,,,10.841422500088811,,,,,,,,,,,,None,None,,,,,,,,,,Buch,,,cuedRecallAdj,2,,,,,,,,,,,,,,,,,,,,,,,,0,,,,,,,,,,,,,,,,,,,,,,,,,,,,773.2369725001045,773.2465914001223,773.2465914001223,784.0942432000302,,return,10.841422500088811,None,784.0945063000545,784.1038335999474,784.1038335999474,784.0963598000817,,None,,,,,2,2024-01-30_12h01.14.746,watkins1,2023.2.3,99.6706879991844,103,2024-01-30 12h01.21.815605 +0000,
,,,,,,,,,,,,,,,,,,,,,,,10,0,10,0,784.595717899967,,,,,,,,,,,,787.4709892999381,787.9696452999488,,,,2.86827820003964,,,,,,,,,,,,None,None,,,,,,,,,,Jacke,,,cuedRecallAdj,2,,,,,,,,,,,,,,,,,,,,,,,,0,,,,,,,,,,,,,,,,,,,,,,,,,,,,784.5859579001553,784.595717899967,784.595717899967,787.4680062001571,lang,return,2.86827820003964,None,787.4682694000658,787.4775390999857,787.4775390999857,787.4708873999771,,None,,,,,2,2024-01-30_12h01.14.746,watkins1,2023.2.3,99.6706879991844,103,2024-01-30 12h01.21.815605 +0000,
,,,,,,,,,,,,,,,,,,,,,,,11,0,11,0,787.9795941000339,,,,,,,,,,,,803.8370495999698,804.3357478000689,,,,15.844490299932659,,,,,,,,,,,,None,None,,,,,,,,,,Kiste,,,cuedRecallAdj,2,,,,,,,,,,,,,,,,,,,,,,,,0,,,,,,,,,,,,,,,,,,,,,,,,,,,,787.9698843001388,787.9795941000339,787.9795941000339,803.8339978000149,glänzend,return,15.844490299932659,None,803.8342655000743,803.8437002999708,803.8437002999708,803.8369251999538,,None,,,,,2,2024-01-30_12h01.14.746,watkins1,2023.2.3,99.6706879991844,103,2024-01-30 12h01.21.815605 +0000,
,,,,,,,,,,,,,,,,,,,,,,,12,0,12,0,804.3456574000884,,,,,,,,,,,,809.0583794999402,809.5569527000189,,,,4.7023843000642955,,,,,,,,,,,,None,None,,,,,,,,,,Tasse,,,cuedRecallAdj,2,,,,,,,,,,,,,,,,,,,,,,,,0,,,,,,,,,,,,,,,,,,,,,,,,,,,,804.3359922999516,804.3456574000884,804.3456574000884,809.0553174000233,rustikal,return,4.7023843000642955,None,809.0555815999396,809.064864099957,809.064864099957,809.0582777999807,,None,,,,,2,2024-01-30_12h01.14.746,watkins1,2023.2.3,99.6706879991844,103,2024-01-30 12h01.21.815605 +0000,
,,,,,,,,,,,,,,,,,,,,,,,13,0,13,0,809.5668957999442,,,,,,,,,,,,814.2696915999986,814.7683300001081,,,,4.697100300109014,,,,,,,,,,,,None,None,,,,,,,,,,Telefon,,,cuedRecallAdj,2,,,,,,,,,,,,,,,,,,,,,,,,0,,,,,,,,,,,,,,,,,,,,,,,,,,,,809.5572013000492,809.5668957999442,809.5668957999442,814.2667287001386,schwer,return,4.697100300109014,None,814.2669913000427,814.276274099946,814.276274099946,814.2695919000544,,None,,,,,2,2024-01-30_12h01.14.746,watkins1,2023.2.3,99.6706879991844,103,2024-01-30 12h01.21.815605 +0000,
,,,,,,,,,,,,,,,,,,,,,,,14,0,14,0,814.778279799968,,,,,,,,,,,,822.2322971001267,822.7307637999766,,,,7.445695000002161,,,,,,,,,,,,None,None,,,,,,,,,,Vase,,,cuedRecallAdj,2,,,,,,,,,,,,,,,,,,,,,,,,0,,,,,,,,,,,,,,,,,,,,,,,,,,,,814.7685742001049,814.778279799968,814.778279799968,822.2291981000453,flauschig,return,7.445695000002161,None,822.2294594999403,822.2387691000476,822.2387691000476,822.2321943999268,,None,,,,,2,2024-01-30_12h01.14.746,watkins1,2023.2.3,99.6706879991844,103,2024-01-30 12h01.21.815605 +0000,
,,,,,,,,,,,,,,,,,,,,,,,15,0,15,0,822.740715800086,,,,,,,,,,,,832.4729746000376,832.9623700999655,,,,9.72320230002515,,,,,,,,,,,,None,None,,,,,,,,,,Bürste,,,cuedRecallAdj,2,,,,,,,,,,,,,,,,,,,,,,,,0,,,,,,,,,,,,,,,,,,,,,,,,,,,,822.7310079999734,822.740715800086,822.740715800086,832.4705757999327,,return,9.72320230002515,None,832.4708428999875,832.480135400081,832.480135400081,832.4728735000826,,None,,,,,2,2024-01-30_12h01.14.746,watkins1,2023.2.3,99.6706879991844,103,2024-01-30 12h01.21.815605 +0000,
,,,,,,,,,,,,,,,,,,,,,,,16,0,16,0,832.972316800151,,,,,,,,,,,,838.9299063000362,839.4284099000506,,,,5.947671099798754,,,,,,,,,,,,None,None,,,,,,,,,,Schlüssel,,,cuedRecallAdj,2,,,,,,,,,,,,,,,,,,,,,,,,0,,,,,,,,,,,,,,,,,,,,,,,,,,,,832.9626178001054,832.972316800151,832.972316800151,838.926813500002,kurz,return,5.947671099798754,None,838.9270779001527,838.936415300006,838.936415300006,838.9298032999504,,None,,,,,2,2024-01-30_12h01.14.746,watkins1,2023.2.3,99.6706879991844,103,2024-01-30 12h01.21.815605 +0000,
,,,,,,,,,,,,,,,,,,,,,,,17,0,17,0,839.4383572000079,,,,,,,,,,,,841.4598387000151,841.9586885999888,,,,2.009656799957156,,,,,,,,,,,,None,None,,,,,,,,,,Lampe,,,cuedRecallAdj,2,,,,,,,,,,,,,,,,,,,,,,,,0,,,,,,,,,,,,,,,,,,,,,,,,,,,,839.4286539000459,839.4383572000079,839.4383572000079,841.456988299964,hohl,return,2.009656799957156,None,841.4572509001009,841.4667072000448,841.4667072000448,841.45973709994,,None,,,,,2,2024-01-30_12h01.14.746,watkins1,2023.2.3,99.6706879991844,103,2024-01-30 12h01.21.815605 +0000,
,,,,,,,,,,,,,,,,,,,,,,,18,0,18,0,841.9685999001376,,,,,,,,,,,,845.4077403999399,845.9059131001122,,,,3.4314810999203473,,,,,,,,,,,,None,None,,,,,,,,,,Kerze,,,cuedRecallAdj,2,,,,,,,,,,,,,,,,,,,,,,,,0,,,,,,,,,,,,,,,,,,,,,,,,,,,,841.9589319999795,841.9685999001376,841.9685999001376,845.4043815000914,praktisch,return,3.4314810999203473,None,845.4046647001524,845.4138966000173,845.4138966000173,845.4076396001037,,None,,,,,2,2024-01-30_12h01.14.746,watkins1,2023.2.3,99.6706879991844,103,2024-01-30 12h01.21.815605 +0000,
,,,,,,,,,,,,,,,,,,,,,,,19,0,19,0,845.9158634000923,,,,,,,,,,,,852.6677622001152,853.1661030000541,,,,6.748143300181255,,,,,,,,,,,,None,None,,,,,,,,,,Socke,,,cuedRecallAdj,2,,,,,,,,,,,,,,,,,,,,,,,,0,,,,,,,,,,,,,,,,,,,,,,,,,,,,845.9061604000162,845.9158634000923,845.9158634000923,852.6646309001371,klobig,return,6.748143300181255,None,852.6649114000611,852.674176499946,852.674176499946,852.6676539001055,,None,,,,,2,2024-01-30_12h01.14.746,watkins1,2023.2.3,99.6706879991844,103,2024-01-30 12h01.21.815605 +0000,
,,,,,,,,,,,,,,,,,,,,,,,20,0,20,0,853.1761507000774,,,,,,,,,,,,862.5272647000384,863.0260956999846,,,,9.34387609991245,,,,,,,,,,,,None,None,,,,,,,,,,Ring,,,cuedRecallAdj,2,,,,,,,,,,,,,,,,,,,,,,,,0,,,,,,,,,,,,,,,,,,,,,,,,,,,,853.1663443001453,853.1761507000774,853.1761507000774,862.5244309001137,schön,return,9.34387609991245,None,862.524695500033,862.5340297999792,862.5340297999792,862.5271636999678,,None,,,,,2,2024-01-30_12h01.14.746,watkins1,2023.2.3,99.6706879991844,103,2024-01-30 12h01.21.815605 +0000,
,,,,,,,,,,,,,,,,,,,,,,,21,0,21,0,863.0360344999935,,,,,,,,,,,,866.7342099000234,867.2328437000979,,,,3.692007400095463,,,,,,,,,,,,None,None,,,,,,,,,,Hut,,,cuedRecallAdj,2,,,,,,,,,,,,,,,,,,,,,,,,0,,,,,,,,,,,,,,,,,,,,,,,,,,,,863.0263469000347,863.0360344999935,863.0360344999935,866.7313298999798,bunt,return,3.692007400095463,None,866.7316010999493,866.7408625001553,866.7408625001553,866.7341082999483,,None,,,,,2,2024-01-30_12h01.14.746,watkins1,2023.2.3,99.6706879991844,103,2024-01-30 12h01.21.815605 +0000,
,,,,,,,,,,,,,,,,,,,,,,,22,0,22,0,867.2428916001227,,,,,,,,,,,,870.5496297001373,871.0484408999328,,,,3.3011491999495775,,,,,,,,,,,,None,None,,,,,,,,,,Stift,,,cuedRecallAdj,2,,,,,,,,,,,,,,,,,,,,,,,,0,,,,,,,,,,,,,,,,,,,,,,,,,,,,867.2330871000886,867.2428916001227,867.2428916001227,870.5468758000061,matt,return,3.3011491999495775,None,870.5471324000973,870.5563888000324,870.5563888000324,870.5495238001458,,None,,,,,2,2024-01-30_12h01.14.746,watkins1,2023.2.3,99.6706879991844,103,2024-01-30 12h01.21.815605 +0000,
,,,,,,,,,,,,,,,,,,,,,,,23,0,23,0,871.0584996000398,,,,,,,,,,,,877.1156572001055,877.6052103999536,,,,6.053481999784708,,,,,,,,,,,,None,None,,,,,,,,,,Uhr,,,cuedRecallAdj,2,,,,,,,,,,,,,,,,,,,,,,,,0,,,,,,,,,,,,,,,,,,,,,,,,,,,,871.0486823001411,871.0584996000398,871.0584996000398,877.1135955001228,,return,6.053481999784708,None,877.1138621999417,877.1231474999804,877.1231474999804,877.1155529001262,,None,,,,,2,2024-01-30_12h01.14.746,watkins1,2023.2.3,99.6706879991844,103,2024-01-30 12h01.21.815605 +0000,
,,,,,,,,,,,,,,,,,,,,,,,24,0,24,0,877.6151606999338,,,,,,,,,,,,898.6247040000744,899.1233467001002,,,,21.000918799778447,,,,,,,,,,,,None,None,,,,,,,,,,Würfel,,,cuedRecallAdj,2,,,,,,,,,,,,,,,,,,,,,,,,0,,,,,,,,,,,,,,,,,,,,,,,,,,,,877.6054539999459,877.6151606999338,877.6151606999338,898.6217221999541,simpel,return,21.000918799778447,None,898.6219862001017,898.631334300153,898.631334300153,898.6246015001088,,None,,,,,2,2024-01-30_12h01.14.746,watkins1,2023.2.3,99.6706879991844,103,2024-01-30 12h01.21.815605 +0000,
,,,,,,,,,,,,,,,,,,,,,,,25,0,25,0,899.1332692999858,,,,,,,,,,,,903.1823164001107,903.6715921000578,,,,4.042726199841127,,,,,,,,,,,,None,None,,,,,,,,,,Blume,,,cuedRecallAdj,2,,,,,,,,,,,,,,,,,,,,,,,,0,,,,,,,,,,,,,,,,,,,,,,,,,,,,899.1235907000955,899.1332692999858,899.1332692999858,903.1800870001316,,return,4.042726199841127,None,903.1803520999383,903.1896391001064,903.1896391001064,903.1822148000356,,None,,,,,2,2024-01-30_12h01.14.746,watkins1,2023.2.3,99.6706879991844,103,2024-01-30 12h01.21.815605 +0000,
,,,,,,,,,,,,,,,,,,,,,,,26,0,26,0,903.6815069001168,,,,,,,,,,,,906.696242999984,907.1857559999917,,,,3.0065856999717653,,,,,,,,,,,,None,None,,,,,,,,,,Trommel,,,cuedRecallAdj,2,,,,,,,,,,,,,,,,,,,,,,,,0,,,,,,,,,,,,,,,,,,,,,,,,,,,,903.6718413000926,903.6815069001168,903.6815069001168,906.6941627000924,,return,3.0065856999717653,None,906.6944264001213,906.7037722000387,906.7037722000387,906.6961414001416,,None,,,,,2,2024-01-30_12h01.14.746,watkins1,2023.2.3,99.6706879991844,103,2024-01-30 12h01.21.815605 +0000,
,,,,,,,,,,,,,,,,,,,,,,,27,0,27,0,907.195716700051,,,,,,,,,,,,910.1911951999646,910.6897444999777,,,,2.9882954000495374,,,,,,,,,,,,None,None,,,,,,,,,,Fahrrad,,,cuedRecallAdj,2,,,,,,,,,,,,,,,,,,,,,,,,0,,,,,,,,,,,,,,,,,,,,,,,,,,,,907.1859979999717,907.195716700051,907.195716700051,910.1881889000069,kaputt,return,2.9882954000495374,None,910.1884536000434,910.1977609000169,910.1977609000169,910.1910918999929,,None,,,,,2,2024-01-30_12h01.14.746,watkins1,2023.2.3,99.6706879991844,103,2024-01-30 12h01.21.815605 +0000,
,,,,,,,,,,,,,,,,,,,,,,,28,0,28,0,910.6997865999583,,,,,,,,,,,,917.1987284000497,917.6879867000971,,,,6.492181000066921,,,,,,,,,,,,None,None,,,,,,,,,,Flasche,,,cuedRecallAdj,2,,,,,,,,,,,,,,,,,,,,,,,,0,,,,,,,,,,,,,,,,,,,,,,,,,,,,910.6899918001145,910.6997865999583,910.6997865999583,917.1964603001252,,return,6.492181000066921,None,917.196726599941,917.2059843000025,917.2059843000025,917.1986259999685,,None,,,,,2,2024-01-30_12h01.14.746,watkins1,2023.2.3,99.6706879991844,103,2024-01-30 12h01.21.815605 +0000,
,,,,,,,,,,,,,,,,,,,,,,,29,0,29,0,917.6979431000073,,,,,,,,,,,,921.1252820999362,921.6238987999968,,,,3.41422629985027,,,,,,,,,,,,None,None,,,,,,,,,,Hammer,,,cuedRecallAdj,2,,,,,,,,,,,,,,,,,,,,,,,,0,,,,,,,,,,,,,,,,,,,,,,,,,,,,917.6882293999661,917.6979431000073,917.6979431000073,921.1221946000587,gepunktet,return,3.41422629985027,None,921.1224609999917,921.1319114000071,921.1319114000071,921.1251807999797,,None,,,,,2,2024-01-30_12h01.14.746,watkins1,2023.2.3,99.6706879991844,103,2024-01-30 12h01.21.815605 +0000,
,,,,,,,,,,,,,,,,,,,,,,,,,,,,,,,,,,,,,,,,,,,,,,,,,,,,,,,,,,,,,,,,,,,,,,,2,,,,,,,,,,,,,,,,,,,,,,,,,,,,,,,,,,,,,,,,,,,,,,,,,,,,,,,,,,,,,,,,,,921.6407761999872,q,4252.026369899977,None,2,2024-01-30_12h01.14.746,watkins1,2023.2.3,99.6706879991844,103,2024-01-30 12h01.21.815605 +0000,
