Equation,CorrectResponse,Correctbutton,trials_7.thisRepN,trials_7.thisTrialN,trials_7.thisN,trials_7.thisIndex,trials.thisRepN,trials.thisTrialN,trials.thisN,trials.thisIndex,trials_3.thisRepN,trials_3.thisTrialN,trials_3.thisN,trials_3.thisIndex,trials_2.thisRepN,trials_2.thisTrialN,trials_2.thisN,trials_2.thisIndex,trials_4.thisRepN,trials_4.thisTrialN,trials_4.thisN,trials_4.thisIndex,trials_5.thisRepN,trials_5.thisTrialN,trials_5.thisN,trials_5.thisIndex,thisRow.t,notes,list_sub_restudy,list_sub_testsub,code_marius.started,code_marius.stopped,welcome.started,welcome.stopped,instruction_study.started,instruction_study.stopped,fixationcross.started,fixationcross.stopped,blanc.started,blanc.stopped,study_control_probe.started,study_control_probe.stopped,responseKey,responseTime,scale_answer_2.keys,study_control_probe_2.started,study_control_probe_2.stopped,scale_answer_3.keys,blanc_2.started,blanc_2.stopped,test_attr_probe.started,test_attr_probe.stopped,recalled_attr,firstKeyTime,secondWordTime,blanc_3.started,blanc_3.stopped,test_sub_probe.started,test_sub_probe.stopped,recalled_sub,instruction_probe_end.started,instruction_probe_end.stopped,study.started,study.stopped,substantive,adjective,wordpair,task,condition,liste_sub_phase1,liste_adj_phase1,scale_answer.keys,scale_answer.rt,scale_answer.duration,code_defineWordsInit.started,code_defineWordsInit.stopped,liste_sub_phase2,study_control.started,study_control.stopped,scale_answer_4.keys,restudy_same.started,restudy_same.stopped,scale_answer_5.keys,scale_answer_5.rt,scale_answer_5.duration,restudy_different.started,restudy_different.stopped,scale_answer_6.keys,test_attr.started,test_attr.stopped,test_sub.started,test_sub.stopped,correct,distractortask.started,equation_text.started,distractortask.stopped,mouse_answer.x,mouse_answer.y,mouse_answer.leftButton,mouse_answer.midButton,mouse_answer.rightButton,mouse_answer.time,mouse_answer.clicked_name,feedback_distractortask.started,feedback_distractortask.stopped,free_recall.started,text_enter.started,key_resp.started,free_recall.stopped,key_resp.keys,key_resp.rt,key_resp.duration,free_recalled_sub,mouse_continue.x,mouse_continue.y,mouse_continue.leftButton,mouse_continue.midButton,mouse_continue.rightButton,mouse_continue.time,mouse_continue.clicked_name,cued_recall.started,text_enter_2.started,key_continue.started,cued_recall.stopped,recalled_attr1,key_continue.keys,key_continue.rt,key_continue.duration,cued_recall_2.started,text_enter_3.started,key_continue_2.started,cued_recall_2.stopped,recalled_attr2,key_continue_2.keys,key_resp_8.started,key_resp_8.keys,key_resp_8.rt,key_resp_8.duration,condition,date,expName,psychopyVersion,frameRate,participant,expStart,
,,,,,,,,,,,,,,,,,,,,,,,,,,,,,"['Jacke', 'Vase', 'Rucksack', 'Flasche', 'Schere', 'Eimer', 'Stift', 'Lampe', 'Tasse', 'Ring', 'Hammer', 'Löffel', 'Kamera', 'Brille', 'Würfel']","['Kerze', 'Trommel', 'Kette', 'Tasche', 'Buch', 'Fahrrad', 'Hut', 'Blume', 'Socke', 'Bürste', 'Uhr', 'Kiste', 'Schlüssel', 'Telefon', 'Geige']",0.1108784000389278,0.11094550043344498,0.11095360014587641,4.744305400177836,,,,,,,,,,,,,,,,,,,,,,,,,,,,,,,,,,,2,,,,,,,,,,,,,,,,,,,,,,,,,,,,,,,,,,,,,,,,,,,,,,,,,,,,,,,,,,,,,,,,,,,,,,2,2024-01-10_13h40.43.851,watkins1,2023.2.3,99.73390966766998,85,2024-01-10 13h40.54.180457 +0000,
,,,,,,,,,,,,,,,,,,,,,,,,,,,,,,,,,,,4.744365000165999,47.67366630025208,,,,,,,,,,,,,,,,,,,,,,,,,,,,,,,,,2,,,,,,,,,,,,,,,,,,,,,,,,,,,,,,,,,,,,,,,,,,,,,,,,,,,,,,,,,,,,,,,,,,,,,,2,2024-01-10_13h40.43.851,watkins1,2023.2.3,99.73390966766998,85,2024-01-10 13h40.54.180457 +0000,
,,,0,0,0,0,,,,,,,,,,,,,,,,,,,,,48.6872551003471,,,,,,,,,,47.67368350038305,48.677249000407755,55.17075980035588,55.66208440018818,49.16926430026069,55.17059520026669,[],[],None,55.66209510015324,61.67122740019113,None,61.67138150008395,61.67140440037474,61.671411300078034,61.67148860031739,,1.7069732998497784,None,61.671661000233144,62.16298750042915,62.16299970028922,68.16830060025677,Hund,,,,,,,,,2,,,,,,,,,,,,,,,,,,,,,,,,,,,,,,,,,,,,,,,,,,,,,,,,,,,,,,,,,,,,,,,,,,,,,,2,2024-01-10_13h40.43.851,watkins1,2023.2.3,99.73390966766998,85,2024-01-10 13h40.54.180457 +0000,
,,,,,,,,,,,,,,,,,,,,,,,,,,,,,,,,,,,,,,,,,,,,,,,,,,,,,,,,,,,,,68.16845920030028,74.47469360008836,,,,,,,2,,,,,,,,,,,,,,,,,,,,,,,,,,,,,,,,,,,,,,,,,,,,,,,,,,,,,,,,,,,,,,,,,,,,,,2,2024-01-10_13h40.43.851,watkins1,2023.2.3,99.73390966766998,85,2024-01-10 13h40.54.180457 +0000,
,,,,,,,0,0,0,0,,,,,,,,,,,,,,,,,75.48861040035263,,,,,,,,,,74.4747111001052,75.47864150023088,75.47912430018187,75.97063360037282,,,None,[],,,,,,,,,,,,,,,,,,,75.9706442002207,81.97646350041032,Bürste,nachhaltig,"['Bürste', 'nachhaltig']",test_sub,2,"['Bürste', 'Vase', 'Tasse', 'Kerze', 'Blume', 'Trommel', 'Buch', 'Flasche', 'Brille', 'Stift', 'Fahrrad', 'Kamera', 'Telefon', 'Rucksack', 'Socke', 'Ring', 'Eimer', 'Hammer', 'Löffel', 'Lampe', 'Schlüssel', 'Schere', 'Jacke', 'Kette', 'Kiste', 'Hut', 'Würfel', 'Uhr', 'Geige', 'Tasche']",['nachhaltig'],None,,,,,,,,,,,,,,,,,,,,,,,,,,,,,,,,,,,,,,,,,,,,,,,,,,,,,,,,,,,,,,,,,,,2,2024-01-10_13h40.43.851,watkins1,2023.2.3,99.73390966766998,85,2024-01-10 13h40.54.180457 +0000,
,,,,,,,1,0,1,0,,,,,,,,,,,,,,,,,81.98599210008979,,,,,,,,,,,,81.97689350042492,82.46806730004027,,,None,[],,,,,,,,,,,,,,,,,,,82.46807810012251,88.47263330034912,Vase,dunkel,"['Vase', 'dunkel']",restudy,2,"['Bürste', 'Vase', 'Tasse', 'Kerze', 'Blume', 'Trommel', 'Buch', 'Flasche', 'Brille', 'Stift', 'Fahrrad', 'Kamera', 'Telefon', 'Rucksack', 'Socke', 'Ring', 'Eimer', 'Hammer', 'Löffel', 'Lampe', 'Schlüssel', 'Schere', 'Jacke', 'Kette', 'Kiste', 'Hut', 'Würfel', 'Uhr', 'Geige', 'Tasche']","['nachhaltig', 'dunkel']",None,,,,,,,,,,,,,,,,,,,,,,,,,,,,,,,,,,,,,,,,,,,,,,,,,,,,,,,,,,,,,,,,,,,2,2024-01-10_13h40.43.851,watkins1,2023.2.3,99.73390966766998,85,2024-01-10 13h40.54.180457 +0000,
,,,,,,,2,0,2,0,,,,,,,,,,,,,,,,,88.48214340023696,,,,,,,,,,,,88.47300480026752,88.96405150042847,,,3,2.9024515002965927,,,,,,,,,,,,,,,,,,,88.96406220039353,94.97035800013691,Tasse,praktisch,"['Tasse', 'praktisch']",restudy,2,"['Bürste', 'Vase', 'Tasse', 'Kerze', 'Blume', 'Trommel', 'Buch', 'Flasche', 'Brille', 'Stift', 'Fahrrad', 'Kamera', 'Telefon', 'Rucksack', 'Socke', 'Ring', 'Eimer', 'Hammer', 'Löffel', 'Lampe', 'Schlüssel', 'Schere', 'Jacke', 'Kette', 'Kiste', 'Hut', 'Würfel', 'Uhr', 'Geige', 'Tasche']","['nachhaltig', 'dunkel', 'praktisch']",3,2.9024515002965927,None,,,,,,,,,,,,,,,,,,,,,,,,,,,,,,,,,,,,,,,,,,,,,,,,,,,,,,,,,,,,,,,,,2,2024-01-10_13h40.43.851,watkins1,2023.2.3,99.73390966766998,85,2024-01-10 13h40.54.180457 +0000,
,,,,,,,3,0,3,0,,,,,,,,,,,,,,,,,94.97987240040675,,,,,,,,,,,,94.97095950040966,95.46198060037568,,,3,1.4927449002861977,,,,,,,,,,,,,,,,,,,95.46199070010334,101.46400300040841,Kerze,bunt,"['Kerze', 'bunt']",test_sub,2,"['Bürste', 'Vase', 'Tasse', 'Kerze', 'Blume', 'Trommel', 'Buch', 'Flasche', 'Brille', 'Stift', 'Fahrrad', 'Kamera', 'Telefon', 'Rucksack', 'Socke', 'Ring', 'Eimer', 'Hammer', 'Löffel', 'Lampe', 'Schlüssel', 'Schere', 'Jacke', 'Kette', 'Kiste', 'Hut', 'Würfel', 'Uhr', 'Geige', 'Tasche']","['nachhaltig', 'dunkel', 'praktisch', 'bunt']",3,1.4927449002861977,None,,,,,,,,,,,,,,,,,,,,,,,,,,,,,,,,,,,,,,,,,,,,,,,,,,,,,,,,,,,,,,,,,2,2024-01-10_13h40.43.851,watkins1,2023.2.3,99.73390966766998,85,2024-01-10 13h40.54.180457 +0000,
,,,,,,,4,0,4,0,,,,,,,,,,,,,,,,,101.47345460020006,,,,,,,,,,,,101.46453900029883,101.95533560030162,,,2,1.7117351000197232,,,,,,,,,,,,,,,,,,,101.95534640038386,107.96542440028861,Blume,sauber,"['Blume', 'sauber']",test_sub,2,"['Bürste', 'Vase', 'Tasse', 'Kerze', 'Blume', 'Trommel', 'Buch', 'Flasche', 'Brille', 'Stift', 'Fahrrad', 'Kamera', 'Telefon', 'Rucksack', 'Socke', 'Ring', 'Eimer', 'Hammer', 'Löffel', 'Lampe', 'Schlüssel', 'Schere', 'Jacke', 'Kette', 'Kiste', 'Hut', 'Würfel', 'Uhr', 'Geige', 'Tasche']","['nachhaltig', 'dunkel', 'praktisch', 'bunt', 'sauber']",2,1.7117351000197232,None,,,,,,,,,,,,,,,,,,,,,,,,,,,,,,,,,,,,,,,,,,,,,,,,,,,,,,,,,,,,,,,,,2,2024-01-10_13h40.43.851,watkins1,2023.2.3,99.73390966766998,85,2024-01-10 13h40.54.180457 +0000,
,,,,,,,5,0,5,0,,,,,,,,,,,,,,,,,107.97496330039576,,,,,,,,,,,,107.96594610018656,108.45693460013717,,,3,2.482571499887854,,,,,,,,,,,,,,,,,,,108.45694550033659,114.45920910034329,Trommel,hohl,"['Trommel', 'hohl']",test_sub,2,"['Bürste', 'Vase', 'Tasse', 'Kerze', 'Blume', 'Trommel', 'Buch', 'Flasche', 'Brille', 'Stift', 'Fahrrad', 'Kamera', 'Telefon', 'Rucksack', 'Socke', 'Ring', 'Eimer', 'Hammer', 'Löffel', 'Lampe', 'Schlüssel', 'Schere', 'Jacke', 'Kette', 'Kiste', 'Hut', 'Würfel', 'Uhr', 'Geige', 'Tasche']","['nachhaltig', 'dunkel', 'praktisch', 'bunt', 'sauber', 'hohl']",3,2.482571499887854,None,,,,,,,,,,,,,,,,,,,,,,,,,,,,,,,,,,,,,,,,,,,,,,,,,,,,,,,,,,,,,,,,,2,2024-01-10_13h40.43.851,watkins1,2023.2.3,99.73390966766998,85,2024-01-10 13h40.54.180457 +0000,
,,,,,,,6,0,6,0,,,,,,,,,,,,,,,,,114.46869010012597,,,,,,,,,,,,114.45973430015147,114.9507730002515,,,1,1.6451572002843022,,,,,,,,,,,,,,,,,,,114.95078410021961,120.95947620039806,Buch,kratzig,"['Buch', 'kratzig']",test_sub,2,"['Bürste', 'Vase', 'Tasse', 'Kerze', 'Blume', 'Trommel', 'Buch', 'Flasche', 'Brille', 'Stift', 'Fahrrad', 'Kamera', 'Telefon', 'Rucksack', 'Socke', 'Ring', 'Eimer', 'Hammer', 'Löffel', 'Lampe', 'Schlüssel', 'Schere', 'Jacke', 'Kette', 'Kiste', 'Hut', 'Würfel', 'Uhr', 'Geige', 'Tasche']","['nachhaltig', 'dunkel', 'praktisch', 'bunt', 'sauber', 'hohl', 'kratzig']",1,1.6451572002843022,None,,,,,,,,,,,,,,,,,,,,,,,,,,,,,,,,,,,,,,,,,,,,,,,,,,,,,,,,,,,,,,,,,2,2024-01-10_13h40.43.851,watkins1,2023.2.3,99.73390966766998,85,2024-01-10 13h40.54.180457 +0000,
,,,,,,,7,0,7,0,,,,,,,,,,,,,,,,,120.96891080029309,,,,,,,,,,,,120.95999040035531,121.45096560008824,,,3,2.648807200137526,,,,,,,,,,,,,,,,,,,121.45097590005025,127.45213950006291,Flasche,gut,"['Flasche', 'gut']",restudy,2,"['Bürste', 'Vase', 'Tasse', 'Kerze', 'Blume', 'Trommel', 'Buch', 'Flasche', 'Brille', 'Stift', 'Fahrrad', 'Kamera', 'Telefon', 'Rucksack', 'Socke', 'Ring', 'Eimer', 'Hammer', 'Löffel', 'Lampe', 'Schlüssel', 'Schere', 'Jacke', 'Kette', 'Kiste', 'Hut', 'Würfel', 'Uhr', 'Geige', 'Tasche']","['nachhaltig', 'dunkel', 'praktisch', 'bunt', 'sauber', 'hohl', 'kratzig', 'gut']",3,2.648807200137526,None,,,,,,,,,,,,,,,,,,,,,,,,,,,,,,,,,,,,,,,,,,,,,,,,,,,,,,,,,,,,,,,,,2,2024-01-10_13h40.43.851,watkins1,2023.2.3,99.73390966766998,85,2024-01-10 13h40.54.180457 +0000,
,,,,,,,8,0,8,0,,,,,,,,,,,,,,,,,127.4615668002516,,,,,,,,,,,,127.45266140019521,127.94355640001595,,,1,3.876145400106907,,,,,,,,,,,,,,,,,,,127.94356730021536,133.95356010040268,Brille,hübsch,"['Brille', 'hübsch']",restudy,2,"['Bürste', 'Vase', 'Tasse', 'Kerze', 'Blume', 'Trommel', 'Buch', 'Flasche', 'Brille', 'Stift', 'Fahrrad', 'Kamera', 'Telefon', 'Rucksack', 'Socke', 'Ring', 'Eimer', 'Hammer', 'Löffel', 'Lampe', 'Schlüssel', 'Schere', 'Jacke', 'Kette', 'Kiste', 'Hut', 'Würfel', 'Uhr', 'Geige', 'Tasche']","['nachhaltig', 'dunkel', 'praktisch', 'bunt', 'sauber', 'hohl', 'kratzig', 'gut', 'hübsch']",1,3.876145400106907,None,,,,,,,,,,,,,,,,,,,,,,,,,,,,,,,,,,,,,,,,,,,,,,,,,,,,,,,,,,,,,,,,,2,2024-01-10_13h40.43.851,watkins1,2023.2.3,99.73390966766998,85,2024-01-10 13h40.54.180457 +0000,
,,,,,,,9,0,9,0,,,,,,,,,,,,,,,,,133.9631157000549,,,,,,,,,,,,133.95406100014225,134.44514270033687,,,1,3.1977480999194086,,,,,,,,,,,,,,,,,,,134.4451530002989,140.44726380007342,Stift,gestreift,"['Stift', 'gestreift']",restudy,2,"['Bürste', 'Vase', 'Tasse', 'Kerze', 'Blume', 'Trommel', 'Buch', 'Flasche', 'Brille', 'Stift', 'Fahrrad', 'Kamera', 'Telefon', 'Rucksack', 'Socke', 'Ring', 'Eimer', 'Hammer', 'Löffel', 'Lampe', 'Schlüssel', 'Schere', 'Jacke', 'Kette', 'Kiste', 'Hut', 'Würfel', 'Uhr', 'Geige', 'Tasche']","['nachhaltig', 'dunkel', 'praktisch', 'bunt', 'sauber', 'hohl', 'kratzig', 'gut', 'hübsch', 'gestreift']",1,3.1977480999194086,None,,,,,,,,,,,,,,,,,,,,,,,,,,,,,,,,,,,,,,,,,,,,,,,,,,,,,,,,,,,,,,,,,2,2024-01-10_13h40.43.851,watkins1,2023.2.3,99.73390966766998,85,2024-01-10 13h40.54.180457 +0000,
,,,,,,,10,0,10,0,,,,,,,,,,,,,,,,,140.4566926001571,,,,,,,,,,,,140.44778680009767,140.9393564001657,,,3,2.6486638002097607,,,,,,,,,,,,,,,,,,,140.9393670000136,146.94526470033452,Fahrrad,neu,"['Fahrrad', 'neu']",test_sub,2,"['Bürste', 'Vase', 'Tasse', 'Kerze', 'Blume', 'Trommel', 'Buch', 'Flasche', 'Brille', 'Stift', 'Fahrrad', 'Kamera', 'Telefon', 'Rucksack', 'Socke', 'Ring', 'Eimer', 'Hammer', 'Löffel', 'Lampe', 'Schlüssel', 'Schere', 'Jacke', 'Kette', 'Kiste', 'Hut', 'Würfel', 'Uhr', 'Geige', 'Tasche']","['nachhaltig', 'dunkel', 'praktisch', 'bunt', 'sauber', 'hohl', 'kratzig', 'gut', 'hübsch', 'gestreift', 'neu']",3,2.6486638002097607,None,,,,,,,,,,,,,,,,,,,,,,,,,,,,,,,,,,,,,,,,,,,,,,,,,,,,,,,,,,,,,,,,,2,2024-01-10_13h40.43.851,watkins1,2023.2.3,99.73390966766998,85,2024-01-10 13h40.54.180457 +0000,
,,,,,,,11,0,11,0,,,,,,,,,,,,,,,,,146.95477820001543,,,,,,,,,,,,146.94578150007874,147.43682540021837,,,3,2.046745900064707,,,,,,,,,,,,,,,,,,,147.43683510040864,153.44446470029652,Kamera,lustig,"['Kamera', 'lustig']",restudy,2,"['Bürste', 'Vase', 'Tasse', 'Kerze', 'Blume', 'Trommel', 'Buch', 'Flasche', 'Brille', 'Stift', 'Fahrrad', 'Kamera', 'Telefon', 'Rucksack', 'Socke', 'Ring', 'Eimer', 'Hammer', 'Löffel', 'Lampe', 'Schlüssel', 'Schere', 'Jacke', 'Kette', 'Kiste', 'Hut', 'Würfel', 'Uhr', 'Geige', 'Tasche']","['nachhaltig', 'dunkel', 'praktisch', 'bunt', 'sauber', 'hohl', 'kratzig', 'gut', 'hübsch', 'gestreift', 'neu', 'lustig']",3,2.046745900064707,None,,,,,,,,,,,,,,,,,,,,,,,,,,,,,,,,,,,,,,,,,,,,,,,,,,,,,,,,,,,,,,,,,2,2024-01-10_13h40.43.851,watkins1,2023.2.3,99.73390966766998,85,2024-01-10 13h40.54.180457 +0000,
,,,,,,,12,0,12,0,,,,,,,,,,,,,,,,,153.4539196002297,,,,,,,,,,,,153.44496640004218,153.93587420042604,,,1,3.1868469999171793,,,,,,,,,,,,,,,,,,,153.93588470015675,159.94177230028436,Telefon,groß,"['Telefon', 'groß']",test_sub,2,"['Bürste', 'Vase', 'Tasse', 'Kerze', 'Blume', 'Trommel', 'Buch', 'Flasche', 'Brille', 'Stift', 'Fahrrad', 'Kamera', 'Telefon', 'Rucksack', 'Socke', 'Ring', 'Eimer', 'Hammer', 'Löffel', 'Lampe', 'Schlüssel', 'Schere', 'Jacke', 'Kette', 'Kiste', 'Hut', 'Würfel', 'Uhr', 'Geige', 'Tasche']","['nachhaltig', 'dunkel', 'praktisch', 'bunt', 'sauber', 'hohl', 'kratzig', 'gut', 'hübsch', 'gestreift', 'neu', 'lustig', 'groß']",1,3.1868469999171793,None,,,,,,,,,,,,,,,,,,,,,,,,,,,,,,,,,,,,,,,,,,,,,,,,,,,,,,,,,,,,,,,,,2,2024-01-10_13h40.43.851,watkins1,2023.2.3,99.73390966766998,85,2024-01-10 13h40.54.180457 +0000,
,,,,,,,13,0,13,0,,,,,,,,,,,,,,,,,159.95125000039116,,,,,,,,,,,,159.94229360017926,160.43321270029992,,,1,1.497704999987036,,,,,,,,,,,,,,,,,,,160.43322280002758,166.43684540037066,Rucksack,elegant,"['Rucksack', 'elegant']",restudy,2,"['Bürste', 'Vase', 'Tasse', 'Kerze', 'Blume', 'Trommel', 'Buch', 'Flasche', 'Brille', 'Stift', 'Fahrrad', 'Kamera', 'Telefon', 'Rucksack', 'Socke', 'Ring', 'Eimer', 'Hammer', 'Löffel', 'Lampe', 'Schlüssel', 'Schere', 'Jacke', 'Kette', 'Kiste', 'Hut', 'Würfel', 'Uhr', 'Geige', 'Tasche']","['nachhaltig', 'dunkel', 'praktisch', 'bunt', 'sauber', 'hohl', 'kratzig', 'gut', 'hübsch', 'gestreift', 'neu', 'lustig', 'groß', 'elegant']",1,1.497704999987036,None,,,,,,,,,,,,,,,,,,,,,,,,,,,,,,,,,,,,,,,,,,,,,,,,,,,,,,,,,,,,,,,,,2,2024-01-10_13h40.43.851,watkins1,2023.2.3,99.73390966766998,85,2024-01-10 13h40.54.180457 +0000,
,,,,,,,14,0,14,0,,,,,,,,,,,,,,,,,166.44626380037516,,,,,,,,,,,,166.4373620999977,166.92821990000084,,,1,2.5875678001902997,,,,,,,,,,,,,,,,,,,166.9282304001972,172.93814300000668,Socke,klobig,"['Socke', 'klobig']",test_sub,2,"['Bürste', 'Vase', 'Tasse', 'Kerze', 'Blume', 'Trommel', 'Buch', 'Flasche', 'Brille', 'Stift', 'Fahrrad', 'Kamera', 'Telefon', 'Rucksack', 'Socke', 'Ring', 'Eimer', 'Hammer', 'Löffel', 'Lampe', 'Schlüssel', 'Schere', 'Jacke', 'Kette', 'Kiste', 'Hut', 'Würfel', 'Uhr', 'Geige', 'Tasche']","['nachhaltig', 'dunkel', 'praktisch', 'bunt', 'sauber', 'hohl', 'kratzig', 'gut', 'hübsch', 'gestreift', 'neu', 'lustig', 'groß', 'elegant', 'klobig']",1,2.5875678001902997,None,,,,,,,,,,,,,,,,,,,,,,,,,,,,,,,,,,,,,,,,,,,,,,,,,,,,,,,,,,,,,,,,,2,2024-01-10_13h40.43.851,watkins1,2023.2.3,99.73390966766998,85,2024-01-10 13h40.54.180457 +0000,
,,,,,,,15,0,15,0,,,,,,,,,,,,,,,,,172.94760660035536,,,,,,,,,,,,172.93866930017248,173.42974360007793,,,1,2.6543739000335336,,,,,,,,,,,,,,,,,,,173.42975400015712,179.43260020017624,Ring,sportlich,"['Ring', 'sportlich']",restudy,2,"['Bürste', 'Vase', 'Tasse', 'Kerze', 'Blume', 'Trommel', 'Buch', 'Flasche', 'Brille', 'Stift', 'Fahrrad', 'Kamera', 'Telefon', 'Rucksack', 'Socke', 'Ring', 'Eimer', 'Hammer', 'Löffel', 'Lampe', 'Schlüssel', 'Schere', 'Jacke', 'Kette', 'Kiste', 'Hut', 'Würfel', 'Uhr', 'Geige', 'Tasche']","['nachhaltig', 'dunkel', 'praktisch', 'bunt', 'sauber', 'hohl', 'kratzig', 'gut', 'hübsch', 'gestreift', 'neu', 'lustig', 'groß', 'elegant', 'klobig', 'sportlich']",1,2.6543739000335336,None,,,,,,,,,,,,,,,,,,,,,,,,,,,,,,,,,,,,,,,,,,,,,,,,,,,,,,,,,,,,,,,,,2,2024-01-10_13h40.43.851,watkins1,2023.2.3,99.73390966766998,85,2024-01-10 13h40.54.180457 +0000,
,,,,,,,16,0,16,0,,,,,,,,,,,,,,,,,179.44206530041993,,,,,,,,,,,,179.43311810027808,179.92395200021565,,,1,1.4469733000732958,,,,,,,,,,,,,,,,,,,179.9239627001807,185.9264295003377,Eimer,teuer,"['Eimer', 'teuer']",restudy,2,"['Bürste', 'Vase', 'Tasse', 'Kerze', 'Blume', 'Trommel', 'Buch', 'Flasche', 'Brille', 'Stift', 'Fahrrad', 'Kamera', 'Telefon', 'Rucksack', 'Socke', 'Ring', 'Eimer', 'Hammer', 'Löffel', 'Lampe', 'Schlüssel', 'Schere', 'Jacke', 'Kette', 'Kiste', 'Hut', 'Würfel', 'Uhr', 'Geige', 'Tasche']","['nachhaltig', 'dunkel', 'praktisch', 'bunt', 'sauber', 'hohl', 'kratzig', 'gut', 'hübsch', 'gestreift', 'neu', 'lustig', 'groß', 'elegant', 'klobig', 'sportlich', 'teuer']",1,1.4469733000732958,None,,,,,,,,,,,,,,,,,,,,,,,,,,,,,,,,,,,,,,,,,,,,,,,,,,,,,,,,,,,,,,,,,2,2024-01-10_13h40.43.851,watkins1,2023.2.3,99.73390966766998,85,2024-01-10 13h40.54.180457 +0000,
,,,,,,,17,0,17,0,,,,,,,,,,,,,,,,,185.9358893004246,,,,,,,,,,,,185.92694910010323,186.41805850015953,,,1,2.561947399750352,,,,,,,,,,,,,,,,,,,186.41806910000741,192.42658950015903,Hammer,kurz,"['Hammer', 'kurz']",restudy,2,"['Bürste', 'Vase', 'Tasse', 'Kerze', 'Blume', 'Trommel', 'Buch', 'Flasche', 'Brille', 'Stift', 'Fahrrad', 'Kamera', 'Telefon', 'Rucksack', 'Socke', 'Ring', 'Eimer', 'Hammer', 'Löffel', 'Lampe', 'Schlüssel', 'Schere', 'Jacke', 'Kette', 'Kiste', 'Hut', 'Würfel', 'Uhr', 'Geige', 'Tasche']","['nachhaltig', 'dunkel', 'praktisch', 'bunt', 'sauber', 'hohl', 'kratzig', 'gut', 'hübsch', 'gestreift', 'neu', 'lustig', 'groß', 'elegant', 'klobig', 'sportlich', 'teuer', 'kurz']",1,2.561947399750352,None,,,,,,,,,,,,,,,,,,,,,,,,,,,,,,,,,,,,,,,,,,,,,,,,,,,,,,,,,,,,,,,,,2,2024-01-10_13h40.43.851,watkins1,2023.2.3,99.73390966766998,85,2024-01-10 13h40.54.180457 +0000,
,,,,,,,18,0,18,0,,,,,,,,,,,,,,,,,192.43605110002682,,,,,,,,,,,,192.4271184001118,192.91807620041072,,,1,1.5804893001914024,,,,,,,,,,,,,,,,,,,192.91808670014143,198.92580340011045,Löffel,dick,"['Löffel', 'dick']",restudy,2,"['Bürste', 'Vase', 'Tasse', 'Kerze', 'Blume', 'Trommel', 'Buch', 'Flasche', 'Brille', 'Stift', 'Fahrrad', 'Kamera', 'Telefon', 'Rucksack', 'Socke', 'Ring', 'Eimer', 'Hammer', 'Löffel', 'Lampe', 'Schlüssel', 'Schere', 'Jacke', 'Kette', 'Kiste', 'Hut', 'Würfel', 'Uhr', 'Geige', 'Tasche']","['nachhaltig', 'dunkel', 'praktisch', 'bunt', 'sauber', 'hohl', 'kratzig', 'gut', 'hübsch', 'gestreift', 'neu', 'lustig', 'groß', 'elegant', 'klobig', 'sportlich', 'teuer', 'kurz', 'dick']",1,1.5804893001914024,None,,,,,,,,,,,,,,,,,,,,,,,,,,,,,,,,,,,,,,,,,,,,,,,,,,,,,,,,,,,,,,,,,2,2024-01-10_13h40.43.851,watkins1,2023.2.3,99.73390966766998,85,2024-01-10 13h40.54.180457 +0000,
,,,,,,,19,0,19,0,,,,,,,,,,,,,,,,,198.93533300003037,,,,,,,,,,,,198.926330300048,199.41733790002763,,,3,1.330233100336045,,,,,,,,,,,,,,,,,,,199.4173485999927,205.4260840001516,Lampe,strahlend,"['Lampe', 'strahlend']",restudy,2,"['Bürste', 'Vase', 'Tasse', 'Kerze', 'Blume', 'Trommel', 'Buch', 'Flasche', 'Brille', 'Stift', 'Fahrrad', 'Kamera', 'Telefon', 'Rucksack', 'Socke', 'Ring', 'Eimer', 'Hammer', 'Löffel', 'Lampe', 'Schlüssel', 'Schere', 'Jacke', 'Kette', 'Kiste', 'Hut', 'Würfel', 'Uhr', 'Geige', 'Tasche']","['nachhaltig', 'dunkel', 'praktisch', 'bunt', 'sauber', 'hohl', 'kratzig', 'gut', 'hübsch', 'gestreift', 'neu', 'lustig', 'groß', 'elegant', 'klobig', 'sportlich', 'teuer', 'kurz', 'dick', 'strahlend']",3,1.330233100336045,None,,,,,,,,,,,,,,,,,,,,,,,,,,,,,,,,,,,,,,,,,,,,,,,,,,,,,,,,,,,,,,,,,2,2024-01-10_13h40.43.851,watkins1,2023.2.3,99.73390966766998,85,2024-01-10 13h40.54.180457 +0000,
,,,,,,,20,0,20,0,,,,,,,,,,,,,,,,,205.43558900011703,,,,,,,,,,,,205.42662780033424,205.91768100019544,,,3,4.606506300158799,,,,,,,,,,,,,,,,,,,205.9176909001544,211.92600430035964,Schlüssel,lang,"['Schlüssel', 'lang']",test_sub,2,"['Bürste', 'Vase', 'Tasse', 'Kerze', 'Blume', 'Trommel', 'Buch', 'Flasche', 'Brille', 'Stift', 'Fahrrad', 'Kamera', 'Telefon', 'Rucksack', 'Socke', 'Ring', 'Eimer', 'Hammer', 'Löffel', 'Lampe', 'Schlüssel', 'Schere', 'Jacke', 'Kette', 'Kiste', 'Hut', 'Würfel', 'Uhr', 'Geige', 'Tasche']","['nachhaltig', 'dunkel', 'praktisch', 'bunt', 'sauber', 'hohl', 'kratzig', 'gut', 'hübsch', 'gestreift', 'neu', 'lustig', 'groß', 'elegant', 'klobig', 'sportlich', 'teuer', 'kurz', 'dick', 'strahlend', 'lang']",3,4.606506300158799,None,,,,,,,,,,,,,,,,,,,,,,,,,,,,,,,,,,,,,,,,,,,,,,,,,,,,,,,,,,,,,,,,,2,2024-01-10_13h40.43.851,watkins1,2023.2.3,99.73390966766998,85,2024-01-10 13h40.54.180457 +0000,
,,,,,,,21,0,21,0,,,,,,,,,,,,,,,,,211.93547170003876,,,,,,,,,,,,211.9265246000141,212.4175657001324,,,1,1.4742100001312792,,,,,,,,,,,,,,,,,,,212.4175761002116,218.41812960011885,Schere,schmutzig,"['Schere', 'schmutzig']",restudy,2,"['Bürste', 'Vase', 'Tasse', 'Kerze', 'Blume', 'Trommel', 'Buch', 'Flasche', 'Brille', 'Stift', 'Fahrrad', 'Kamera', 'Telefon', 'Rucksack', 'Socke', 'Ring', 'Eimer', 'Hammer', 'Löffel', 'Lampe', 'Schlüssel', 'Schere', 'Jacke', 'Kette', 'Kiste', 'Hut', 'Würfel', 'Uhr', 'Geige', 'Tasche']","['nachhaltig', 'dunkel', 'praktisch', 'bunt', 'sauber', 'hohl', 'kratzig', 'gut', 'hübsch', 'gestreift', 'neu', 'lustig', 'groß', 'elegant', 'klobig', 'sportlich', 'teuer', 'kurz', 'dick', 'strahlend', 'lang', 'schmutzig']",1,1.4742100001312792,None,,,,,,,,,,,,,,,,,,,,,,,,,,,,,,,,,,,,,,,,,,,,,,,,,,,,,,,,,,,,,,,,,2,2024-01-10_13h40.43.851,watkins1,2023.2.3,99.73390966766998,85,2024-01-10 13h40.54.180457 +0000,
,,,,,,,22,0,22,0,,,,,,,,,,,,,,,,,218.4276886000298,,,,,,,,,,,,218.4186436003074,218.909691600129,,,3,1.1170179001055658,,,,,,,,,,,,,,,,,,,218.90970250032842,224.91256500035524,Jacke,flauschig,"['Jacke', 'flauschig']",restudy,2,"['Bürste', 'Vase', 'Tasse', 'Kerze', 'Blume', 'Trommel', 'Buch', 'Flasche', 'Brille', 'Stift', 'Fahrrad', 'Kamera', 'Telefon', 'Rucksack', 'Socke', 'Ring', 'Eimer', 'Hammer', 'Löffel', 'Lampe', 'Schlüssel', 'Schere', 'Jacke', 'Kette', 'Kiste', 'Hut', 'Würfel', 'Uhr', 'Geige', 'Tasche']","['nachhaltig', 'dunkel', 'praktisch', 'bunt', 'sauber', 'hohl', 'kratzig', 'gut', 'hübsch', 'gestreift', 'neu', 'lustig', 'groß', 'elegant', 'klobig', 'sportlich', 'teuer', 'kurz', 'dick', 'strahlend', 'lang', 'schmutzig', 'flauschig']",3,1.1170179001055658,None,,,,,,,,,,,,,,,,,,,,,,,,,,,,,,,,,,,,,,,,,,,,,,,,,,,,,,,,,,,,,,,,,2,2024-01-10_13h40.43.851,watkins1,2023.2.3,99.73390966766998,85,2024-01-10 13h40.54.180457 +0000,
,,,,,,,23,0,23,0,,,,,,,,,,,,,,,,,224.9220328000374,,,,,,,,,,,,224.91308110021055,225.40415140008554,,,3,2.1276150001212955,,,,,,,,,,,,,,,,,,,225.40416220016778,231.40666209999472,Kette,schlicht,"['Kette', 'schlicht']",test_sub,2,"['Bürste', 'Vase', 'Tasse', 'Kerze', 'Blume', 'Trommel', 'Buch', 'Flasche', 'Brille', 'Stift', 'Fahrrad', 'Kamera', 'Telefon', 'Rucksack', 'Socke', 'Ring', 'Eimer', 'Hammer', 'Löffel', 'Lampe', 'Schlüssel', 'Schere', 'Jacke', 'Kette', 'Kiste', 'Hut', 'Würfel', 'Uhr', 'Geige', 'Tasche']","['nachhaltig', 'dunkel', 'praktisch', 'bunt', 'sauber', 'hohl', 'kratzig', 'gut', 'hübsch', 'gestreift', 'neu', 'lustig', 'groß', 'elegant', 'klobig', 'sportlich', 'teuer', 'kurz', 'dick', 'strahlend', 'lang', 'schmutzig', 'flauschig', 'schlicht']",3,2.1276150001212955,None,,,,,,,,,,,,,,,,,,,,,,,,,,,,,,,,,,,,,,,,,,,,,,,,,,,,,,,,,,,,,,,,,2,2024-01-10_13h40.43.851,watkins1,2023.2.3,99.73390966766998,85,2024-01-10 13h40.54.180457 +0000,
,,,,,,,24,0,24,0,,,,,,,,,,,,,,,,,231.41613490041345,,,,,,,,,,,,231.40718960016966,231.89810780016705,,,1,1.3375508999451995,,,,,,,,,,,,,,,,,,,231.89811900025234,237.90838680043817,Kiste,niedlich,"['Kiste', 'niedlich']",test_sub,2,"['Bürste', 'Vase', 'Tasse', 'Kerze', 'Blume', 'Trommel', 'Buch', 'Flasche', 'Brille', 'Stift', 'Fahrrad', 'Kamera', 'Telefon', 'Rucksack', 'Socke', 'Ring', 'Eimer', 'Hammer', 'Löffel', 'Lampe', 'Schlüssel', 'Schere', 'Jacke', 'Kette', 'Kiste', 'Hut', 'Würfel', 'Uhr', 'Geige', 'Tasche']","['nachhaltig', 'dunkel', 'praktisch', 'bunt', 'sauber', 'hohl', 'kratzig', 'gut', 'hübsch', 'gestreift', 'neu', 'lustig', 'groß', 'elegant', 'klobig', 'sportlich', 'teuer', 'kurz', 'dick', 'strahlend', 'lang', 'schmutzig', 'flauschig', 'schlicht', 'niedlich']",1,1.3375508999451995,None,,,,,,,,,,,,,,,,,,,,,,,,,,,,,,,,,,,,,,,,,,,,,,,,,,,,,,,,,,,,,,,,,2,2024-01-10_13h40.43.851,watkins1,2023.2.3,99.73390966766998,85,2024-01-10 13h40.54.180457 +0000,
,,,,,,,25,0,25,0,,,,,,,,,,,,,,,,,237.9178733001463,,,,,,,,,,,,237.9089070004411,238.39992590015754,,,1,3.0359507999382913,,,,,,,,,,,,,,,,,,,238.3999366001226,244.40884150005877,Hut,rustikal,"['Hut', 'rustikal']",test_sub,2,"['Bürste', 'Vase', 'Tasse', 'Kerze', 'Blume', 'Trommel', 'Buch', 'Flasche', 'Brille', 'Stift', 'Fahrrad', 'Kamera', 'Telefon', 'Rucksack', 'Socke', 'Ring', 'Eimer', 'Hammer', 'Löffel', 'Lampe', 'Schlüssel', 'Schere', 'Jacke', 'Kette', 'Kiste', 'Hut', 'Würfel', 'Uhr', 'Geige', 'Tasche']","['nachhaltig', 'dunkel', 'praktisch', 'bunt', 'sauber', 'hohl', 'kratzig', 'gut', 'hübsch', 'gestreift', 'neu', 'lustig', 'groß', 'elegant', 'klobig', 'sportlich', 'teuer', 'kurz', 'dick', 'strahlend', 'lang', 'schmutzig', 'flauschig', 'schlicht', 'niedlich', 'rustikal']",1,3.0359507999382913,None,,,,,,,,,,,,,,,,,,,,,,,,,,,,,,,,,,,,,,,,,,,,,,,,,,,,,,,,,,,,,,,,,2,2024-01-10_13h40.43.851,watkins1,2023.2.3,99.73390966766998,85,2024-01-10 13h40.54.180457 +0000,
,,,,,,,26,0,26,0,,,,,,,,,,,,,,,,,244.4183233003132,,,,,,,,,,,,244.4093719003722,244.90034120017663,,,1,1.3422066997736692,,,,,,,,,,,,,,,,,,,244.90035290038213,250.90955840004608,Würfel,schwer,"['Würfel', 'schwer']",restudy,2,"['Bürste', 'Vase', 'Tasse', 'Kerze', 'Blume', 'Trommel', 'Buch', 'Flasche', 'Brille', 'Stift', 'Fahrrad', 'Kamera', 'Telefon', 'Rucksack', 'Socke', 'Ring', 'Eimer', 'Hammer', 'Löffel', 'Lampe', 'Schlüssel', 'Schere', 'Jacke', 'Kette', 'Kiste', 'Hut', 'Würfel', 'Uhr', 'Geige', 'Tasche']","['nachhaltig', 'dunkel', 'praktisch', 'bunt', 'sauber', 'hohl', 'kratzig', 'gut', 'hübsch', 'gestreift', 'neu', 'lustig', 'groß', 'elegant', 'klobig', 'sportlich', 'teuer', 'kurz', 'dick', 'strahlend', 'lang', 'schmutzig', 'flauschig', 'schlicht', 'niedlich', 'rustikal', 'schwer']",1,1.3422066997736692,None,,,,,,,,,,,,,,,,,,,,,,,,,,,,,,,,,,,,,,,,,,,,,,,,,,,,,,,,,,,,,,,,,2,2024-01-10_13h40.43.851,watkins1,2023.2.3,99.73390966766998,85,2024-01-10 13h40.54.180457 +0000,
,,,,,,,27,0,27,0,,,,,,,,,,,,,,,,,250.9190774001181,,,,,,,,,,,,250.9100785003975,251.40118789998814,,,1,2.6177077000029385,,,,,,,,,,,,,,,,,,,251.40119910007343,257.40252530016005,Uhr,krumm,"['Uhr', 'krumm']",test_sub,2,"['Bürste', 'Vase', 'Tasse', 'Kerze', 'Blume', 'Trommel', 'Buch', 'Flasche', 'Brille', 'Stift', 'Fahrrad', 'Kamera', 'Telefon', 'Rucksack', 'Socke', 'Ring', 'Eimer', 'Hammer', 'Löffel', 'Lampe', 'Schlüssel', 'Schere', 'Jacke', 'Kette', 'Kiste', 'Hut', 'Würfel', 'Uhr', 'Geige', 'Tasche']","['nachhaltig', 'dunkel', 'praktisch', 'bunt', 'sauber', 'hohl', 'kratzig', 'gut', 'hübsch', 'gestreift', 'neu', 'lustig', 'groß', 'elegant', 'klobig', 'sportlich', 'teuer', 'kurz', 'dick', 'strahlend', 'lang', 'schmutzig', 'flauschig', 'schlicht', 'niedlich', 'rustikal', 'schwer', 'krumm']",1,2.6177077000029385,None,,,,,,,,,,,,,,,,,,,,,,,,,,,,,,,,,,,,,,,,,,,,,,,,,,,,,,,,,,,,,,,,,2,2024-01-10_13h40.43.851,watkins1,2023.2.3,99.73390966766998,85,2024-01-10 13h40.54.180457 +0000,
,,,,,,,28,0,28,0,,,,,,,,,,,,,,,,,257.411998399999,,,,,,,,,,,,257.403044000268,257.89403420034796,,,1,4.860869899857789,,,,,,,,,,,,,,,,,,,257.8940444001928,263.90462500043213,Geige,biegsam,"['Geige', 'biegsam']",test_sub,2,"['Bürste', 'Vase', 'Tasse', 'Kerze', 'Blume', 'Trommel', 'Buch', 'Flasche', 'Brille', 'Stift', 'Fahrrad', 'Kamera', 'Telefon', 'Rucksack', 'Socke', 'Ring', 'Eimer', 'Hammer', 'Löffel', 'Lampe', 'Schlüssel', 'Schere', 'Jacke', 'Kette', 'Kiste', 'Hut', 'Würfel', 'Uhr', 'Geige', 'Tasche']","['nachhaltig', 'dunkel', 'praktisch', 'bunt', 'sauber', 'hohl', 'kratzig', 'gut', 'hübsch', 'gestreift', 'neu', 'lustig', 'groß', 'elegant', 'klobig', 'sportlich', 'teuer', 'kurz', 'dick', 'strahlend', 'lang', 'schmutzig', 'flauschig', 'schlicht', 'niedlich', 'rustikal', 'schwer', 'krumm', 'biegsam']",1,4.860869899857789,None,,,,,,,,,,,,,,,,,,,,,,,,,,,,,,,,,,,,,,,,,,,,,,,,,,,,,,,,,,,,,,,,,2,2024-01-10_13h40.43.851,watkins1,2023.2.3,99.73390966766998,85,2024-01-10 13h40.54.180457 +0000,
,,,,,,,29,0,29,0,,,,,,,,,,,,,,,,,263.91413850011304,,,,,,,,,,,,263.90515710040927,264.3961804001592,,,1,1.3517593001015484,,,,,,,,,,,,,,,,,,,264.39619140001014,270.40460360003635,Tasche,matt,"['Tasche', 'matt']",test_sub,2,"['Bürste', 'Vase', 'Tasse', 'Kerze', 'Blume', 'Trommel', 'Buch', 'Flasche', 'Brille', 'Stift', 'Fahrrad', 'Kamera', 'Telefon', 'Rucksack', 'Socke', 'Ring', 'Eimer', 'Hammer', 'Löffel', 'Lampe', 'Schlüssel', 'Schere', 'Jacke', 'Kette', 'Kiste', 'Hut', 'Würfel', 'Uhr', 'Geige', 'Tasche']","['nachhaltig', 'dunkel', 'praktisch', 'bunt', 'sauber', 'hohl', 'kratzig', 'gut', 'hübsch', 'gestreift', 'neu', 'lustig', 'groß', 'elegant', 'klobig', 'sportlich', 'teuer', 'kurz', 'dick', 'strahlend', 'lang', 'schmutzig', 'flauschig', 'schlicht', 'niedlich', 'rustikal', 'schwer', 'krumm', 'biegsam', 'matt']",1,1.3517593001015484,None,,,,,,,,,,,,,,,,,,,,,,,,,,,,,,,,,,,,,,,,,,,,,,,,,,,,,,,,,,,,,,,,,2,2024-01-10_13h40.43.851,watkins1,2023.2.3,99.73390966766998,85,2024-01-10 13h40.54.180457 +0000,
,,,,,,,,,,,0,0,0,0,,,,,,,,,,,,,270.41412420012057,,,,,,,,,,,,270.40545830037445,270.89613920031115,,,[],[],,,,,,,,,,None,None,,,,,,,,,,Eimer,teuer,"['Eimer', 'teuer']",restudy,2,,,,,,270.4053831002675,270.40543100005016,"['Eimer', 'Kamera', 'Kerze', 'Ring', 'Stift', 'Flasche', 'Blume', 'Fahrrad', 'Geige', 'Trommel', 'Lampe', 'Bürste', 'Jacke', 'Socke', 'Brille', 'Uhr', 'Buch', 'Kiste', 'Rucksack', 'Kette', 'Vase', 'Löffel', 'Schere', 'Hammer', 'Hut', 'Tasse', 'Würfel', 'Telefon', 'Tasche', 'Schlüssel']",270.89615030027926,270.8987376000732,None,270.89892180031165,276.90030750026926,1,3.0567447999492288,None,276.90071920026094,276.903343600221,None,276.90349790034816,276.90462659997866,276.90463830018416,276.90584970032796,,,,,,,,,,,,,,,,,,,,,,,,,,,,,,,,,,,,,,,,,,,,,,,2,2024-01-10_13h40.43.851,watkins1,2023.2.3,99.73390966766998,85,2024-01-10 13h40.54.180457 +0000,
,,,,,,,,,,,1,0,1,0,,,,,,,,,,,,,276.90981780039147,,,,,,,,,,,,276.9061283003539,277.4019391001202,,,[],[],,,,,,,,,,None,None,,,,,,,,,,Kamera,lustig,"['Kamera', 'lustig']",restudy,2,,,,,,276.90606420021504,276.90610170038417,"['Eimer', 'Kamera', 'Kerze', 'Ring', 'Stift', 'Flasche', 'Blume', 'Fahrrad', 'Geige', 'Trommel', 'Lampe', 'Bürste', 'Jacke', 'Socke', 'Brille', 'Uhr', 'Buch', 'Kiste', 'Rucksack', 'Kette', 'Vase', 'Löffel', 'Schere', 'Hammer', 'Hut', 'Tasse', 'Würfel', 'Telefon', 'Tasche', 'Schlüssel']",277.40195000031963,277.4046674002893,None,277.4047921001911,283.4096375000663,3,2.1030341000296175,None,283.4099318003282,283.4127434003167,None,283.41285470034927,283.41406350024045,283.41407530009747,283.4152717003599,,,,,,,,,,,,,,,,,,,,,,,,,,,,,,,,,,,,,,,,,,,,,,,2,2024-01-10_13h40.43.851,watkins1,2023.2.3,99.73390966766998,85,2024-01-10 13h40.54.180457 +0000,
,,,,,,,,,,,2,0,2,0,,,,,,,,,,,,,283.4191209003329,,,,,,,,,,,,283.41555670043454,283.91123050032184,,,[],[],,,,,,,,,,4.48715479997918,5.91279979981482,,,,,,,,,,Kerze,bunt,"['Kerze', 'bunt']",test_sub,2,,,,,,283.4154911004007,283.41553020011634,"['Eimer', 'Kamera', 'Kerze', 'Ring', 'Stift', 'Flasche', 'Blume', 'Fahrrad', 'Geige', 'Trommel', 'Lampe', 'Bürste', 'Jacke', 'Socke', 'Brille', 'Uhr', 'Buch', 'Kiste', 'Rucksack', 'Kette', 'Vase', 'Löffel', 'Schere', 'Hammer', 'Hut', 'Tasse', 'Würfel', 'Telefon', 'Tasche', 'Schlüssel']",283.9112417004071,283.91399450041354,None,283.9141210000962,283.91555989999324,None,,,283.9156699003652,283.9171179002151,None,283.9172278000042,283.91839710017666,283.9184099002741,289.92202420020476,0,,,,,,,,,,,,,,,,,,,,,,,,,,,,,,,,,,,,,,,,,,,,,,2,2024-01-10_13h40.43.851,watkins1,2023.2.3,99.73390966766998,85,2024-01-10 13h40.54.180457 +0000,
,,,,,,,,,,,3,0,3,0,,,,,,,,,,,,,289.93185790022835,,,,,,,,,,,,289.9223061003722,290.4138524001464,,,[],[],,,,,,,,,,None,None,,,,,,,,,,Ring,sportlich,"['Ring', 'sportlich']",restudy,2,,,,,,289.92224080022424,289.9222776000388,"['Eimer', 'Kamera', 'Kerze', 'Ring', 'Stift', 'Flasche', 'Blume', 'Fahrrad', 'Geige', 'Trommel', 'Lampe', 'Bürste', 'Jacke', 'Socke', 'Brille', 'Uhr', 'Buch', 'Kiste', 'Rucksack', 'Kette', 'Vase', 'Löffel', 'Schere', 'Hammer', 'Hut', 'Tasse', 'Würfel', 'Telefon', 'Tasche', 'Schlüssel']",290.4138629003428,290.4163058004342,None,290.4164327001199,296.42267010034993,1,3.283418799750507,None,296.4229634003714,296.4256421001628,None,296.42574990028515,296.4268020000309,296.4268139000051,296.42806680034846,,,,,,,,,,,,,,,,,,,,,,,,,,,,,,,,,,,,,,,,,,,,,,,2,2024-01-10_13h40.43.851,watkins1,2023.2.3,99.73390966766998,85,2024-01-10 13h40.54.180457 +0000,
,,,,,,,,,,,4,0,4,0,,,,,,,,,,,,,296.4320615003817,,,,,,,,,,,,296.4283572002314,296.92434420017526,,,[],[],,,,,,,,,,None,None,,,,,,,,,,Stift,gestreift,"['Stift', 'gestreift']",restudy,2,,,,,,296.42828940041363,296.4283300000243,"['Eimer', 'Kamera', 'Kerze', 'Ring', 'Stift', 'Flasche', 'Blume', 'Fahrrad', 'Geige', 'Trommel', 'Lampe', 'Bürste', 'Jacke', 'Socke', 'Brille', 'Uhr', 'Buch', 'Kiste', 'Rucksack', 'Kette', 'Vase', 'Löffel', 'Schere', 'Hammer', 'Hut', 'Tasse', 'Würfel', 'Telefon', 'Tasche', 'Schlüssel']",296.9243557001464,296.927139100153,None,296.92726470017806,302.92863500025123,3,5.156700999941677,None,302.9289714000188,302.93168120039627,None,302.9317924003117,302.93292340030894,302.9329349002801,302.934160400182,,,,,,,,,,,,,,,,,,,,,,,,,,,,,,,,,,,,,,,,,,,,,,,2,2024-01-10_13h40.43.851,watkins1,2023.2.3,99.73390966766998,85,2024-01-10 13h40.54.180457 +0000,
,,,,,,,,,,,5,0,5,0,,,,,,,,,,,,,302.9381367000751,,,,,,,,,,,,302.93443730007857,303.4302715002559,,,[],[],,,,,,,,,,None,None,,,,,,,,,,Flasche,gut,"['Flasche', 'gut']",restudy,2,,,,,,302.93437350029126,302.9344112002291,"['Eimer', 'Kamera', 'Kerze', 'Ring', 'Stift', 'Flasche', 'Blume', 'Fahrrad', 'Geige', 'Trommel', 'Lampe', 'Bürste', 'Jacke', 'Socke', 'Brille', 'Uhr', 'Buch', 'Kiste', 'Rucksack', 'Kette', 'Vase', 'Löffel', 'Schere', 'Hammer', 'Hut', 'Tasse', 'Würfel', 'Telefon', 'Tasche', 'Schlüssel']",303.430282200221,303.4330661003478,None,303.43318810034543,309.43559980019927,3,1.7870852001942694,None,309.43589810002595,309.43842920009047,None,309.43854130012915,309.4397207000293,309.4397321003489,309.44073720043525,,,,,,,,,,,,,,,,,,,,,,,,,,,,,,,,,,,,,,,,,,,,,,,2,2024-01-10_13h40.43.851,watkins1,2023.2.3,99.73390966766998,85,2024-01-10 13h40.54.180457 +0000,
,,,,,,,,,,,6,0,6,0,,,,,,,,,,,,,309.4451093003154,,,,,,,,,,,,309.44101450033486,309.93724360037595,,,[],[],,,,,,,,,,4.6073135999031365,None,,,,,,,,,,Blume,sauber,"['Blume', 'sauber']",test_sub,2,,,,,,309.44095030007884,309.4409885001369,"['Eimer', 'Kamera', 'Kerze', 'Ring', 'Stift', 'Flasche', 'Blume', 'Fahrrad', 'Geige', 'Trommel', 'Lampe', 'Bürste', 'Jacke', 'Socke', 'Brille', 'Uhr', 'Buch', 'Kiste', 'Rucksack', 'Kette', 'Vase', 'Löffel', 'Schere', 'Hammer', 'Hut', 'Tasse', 'Würfel', 'Telefon', 'Tasche', 'Schlüssel']",309.9372543999925,309.9398918002844,None,309.9400170003064,309.9414338003844,None,,,309.9415422002785,309.94326040009037,None,309.943367600441,309.94451430020854,309.9445266001858,315.9479377004318,0,,,,,,,,,,,,,,,,,,,,,,,,,,,,,,,,,,,,,,,,,,,,,,2,2024-01-10_13h40.43.851,watkins1,2023.2.3,99.73390966766998,85,2024-01-10 13h40.54.180457 +0000,
,,,,,,,,,,,7,0,7,0,,,,,,,,,,,,,315.95775030041113,,,,,,,,,,,,315.9482091004029,316.4398005004041,,,[],[],,,,,,,,,,1.8078499999828637,None,,,,,Fahrrad,,,,,Fahrrad,neu,"['Fahrrad', 'neu']",test_sub,2,,,,,,315.94814580027014,315.9481818000786,"['Eimer', 'Kamera', 'Kerze', 'Ring', 'Stift', 'Flasche', 'Blume', 'Fahrrad', 'Geige', 'Trommel', 'Lampe', 'Bürste', 'Jacke', 'Socke', 'Brille', 'Uhr', 'Buch', 'Kiste', 'Rucksack', 'Kette', 'Vase', 'Löffel', 'Schere', 'Hammer', 'Hut', 'Tasse', 'Würfel', 'Telefon', 'Tasche', 'Schlüssel']",316.439811100252,316.44257300021127,None,316.4426950002089,316.44526680000126,None,,,316.44537890003994,316.4479593001306,None,316.44806640036404,316.44926460040733,316.4492769003846,322.45454970002174,1,,,,,,,,,,,,,,,,,,,,,,,,,,,,,,,,,,,,,,,,,,,,,,2,2024-01-10_13h40.43.851,watkins1,2023.2.3,99.73390966766998,85,2024-01-10 13h40.54.180457 +0000,
,,,,,,,,,,,8,0,8,0,,,,,,,,,,,,,322.46433430025354,,,,,,,,,,,,322.45482970029116,322.946402200032,,,[],[],,,,,,,,,,1.5774552999064326,None,,,,,Geige,,,,,Geige,biegsam,"['Geige', 'biegsam']",test_sub,2,,,,,,322.4547626003623,322.45480100018904,"['Eimer', 'Kamera', 'Kerze', 'Ring', 'Stift', 'Flasche', 'Blume', 'Fahrrad', 'Geige', 'Trommel', 'Lampe', 'Bürste', 'Jacke', 'Socke', 'Brille', 'Uhr', 'Buch', 'Kiste', 'Rucksack', 'Kette', 'Vase', 'Löffel', 'Schere', 'Hammer', 'Hut', 'Tasse', 'Würfel', 'Telefon', 'Tasche', 'Schlüssel']",322.94641330000013,322.9489614004269,None,322.94908570032567,322.95146450027823,None,,,322.9515746003017,322.9540925002657,None,322.9542008000426,322.9553573001176,322.95536970021203,328.9617869001813,1,,,,,,,,,,,,,,,,,,,,,,,,,,,,,,,,,,,,,,,,,,,,,,2,2024-01-10_13h40.43.851,watkins1,2023.2.3,99.73390966766998,85,2024-01-10 13h40.54.180457 +0000,
,,,,,,,,,,,9,0,9,0,,,,,,,,,,,,,328.97158090025187,,,,,,,,,,,,328.9620690001175,329.45370650012046,,,[],[],,,,,,,,,,1.858459500130266,None,,,,,Trommel,,,,,Trommel,hohl,"['Trommel', 'hohl']",test_sub,2,,,,,,328.9620015001856,328.96204020036384,"['Eimer', 'Kamera', 'Kerze', 'Ring', 'Stift', 'Flasche', 'Blume', 'Fahrrad', 'Geige', 'Trommel', 'Lampe', 'Bürste', 'Jacke', 'Socke', 'Brille', 'Uhr', 'Buch', 'Kiste', 'Rucksack', 'Kette', 'Vase', 'Löffel', 'Schere', 'Hammer', 'Hut', 'Tasse', 'Würfel', 'Telefon', 'Tasche', 'Schlüssel']",329.4537172000855,329.45647340035066,None,329.45659580035135,329.45916790002957,None,,,329.4592751003802,329.4618206000887,None,329.4619281999767,329.46311160037294,329.46312370011583,335.4713722001761,1,,,,,,,,,,,,,,,,,,,,,,,,,,,,,,,,,,,,,,,,,,,,,,2,2024-01-10_13h40.43.851,watkins1,2023.2.3,99.73390966766998,85,2024-01-10 13h40.54.180457 +0000,
,,,,,,,,,,,10,0,10,0,,,,,,,,,,,,,335.481180800125,,,,,,,,,,,,335.47165620001033,335.96328820008785,,,[],[],,,,,,,,,,None,None,,,,,,,,,,Lampe,strahlend,"['Lampe', 'strahlend']",restudy,2,,,,,,335.47158760018647,335.47162770014256,"['Eimer', 'Kamera', 'Kerze', 'Ring', 'Stift', 'Flasche', 'Blume', 'Fahrrad', 'Geige', 'Trommel', 'Lampe', 'Bürste', 'Jacke', 'Socke', 'Brille', 'Uhr', 'Buch', 'Kiste', 'Rucksack', 'Kette', 'Vase', 'Löffel', 'Schere', 'Hammer', 'Hut', 'Tasse', 'Würfel', 'Telefon', 'Tasche', 'Schlüssel']",335.96329910028726,335.96587439998984,None,335.9659975999966,341.9760858002119,3,1.78945600008592,None,341.9763852003962,341.97918100003153,None,341.9792944001965,341.98061080044135,341.98062280006707,341.9821936003864,,,,,,,,,,,,,,,,,,,,,,,,,,,,,,,,,,,,,,,,,,,,,,,2,2024-01-10_13h40.43.851,watkins1,2023.2.3,99.73390966766998,85,2024-01-10 13h40.54.180457 +0000,
,,,,,,,,,,,11,0,11,0,,,,,,,,,,,,,341.9855129001662,,,,,,,,,,,,341.9824820002541,342.47779890010133,,,[],[],,,,,,,,,,2.2783396998420358,None,,,,,Bürste,,,,,Bürste,nachhaltig,"['Bürste', 'nachhaltig']",test_sub,2,,,,,,341.98241510009393,341.98245520005,"['Eimer', 'Kamera', 'Kerze', 'Ring', 'Stift', 'Flasche', 'Blume', 'Fahrrad', 'Geige', 'Trommel', 'Lampe', 'Bürste', 'Jacke', 'Socke', 'Brille', 'Uhr', 'Buch', 'Kiste', 'Rucksack', 'Kette', 'Vase', 'Löffel', 'Schere', 'Hammer', 'Hut', 'Tasse', 'Würfel', 'Telefon', 'Tasche', 'Schlüssel']",342.4778101001866,342.48070600023493,None,342.48083350015804,342.4822721001692,None,,,342.48238000040874,342.48381980042905,None,342.48392730019987,342.4850925002247,342.4851050004363,348.48874430032447,1,,,,,,,,,,,,,,,,,,,,,,,,,,,,,,,,,,,,,,,,,,,,,,2,2024-01-10_13h40.43.851,watkins1,2023.2.3,99.73390966766998,85,2024-01-10 13h40.54.180457 +0000,
,,,,,,,,,,,12,0,12,0,,,,,,,,,,,,,348.4986431002617,,,,,,,,,,,,348.4890267001465,348.9808292002417,,,[],[],,,,,,,,,,None,None,,,,,,,,,,Jacke,flauschig,"['Jacke', 'flauschig']",restudy,2,,,,,,348.4889607001096,348.48899880005047,"['Eimer', 'Kamera', 'Kerze', 'Ring', 'Stift', 'Flasche', 'Blume', 'Fahrrad', 'Geige', 'Trommel', 'Lampe', 'Bürste', 'Jacke', 'Socke', 'Brille', 'Uhr', 'Buch', 'Kiste', 'Rucksack', 'Kette', 'Vase', 'Löffel', 'Schere', 'Hammer', 'Hut', 'Tasse', 'Würfel', 'Telefon', 'Tasche', 'Schlüssel']",348.98084070021287,348.9836230003275,None,348.98374780034646,354.9911956000142,3,1.6682199998758733,None,354.99149000039324,354.99425270035863,None,354.9943656004034,354.99553900025785,354.99555110000074,354.99711410002783,,,,,,,,,,,,,,,,,,,,,,,,,,,,,,,,,,,,,,,,,,,,,,,2,2024-01-10_13h40.43.851,watkins1,2023.2.3,99.73390966766998,85,2024-01-10 13h40.54.180457 +0000,
,,,,,,,,,,,13,0,13,0,,,,,,,,,,,,,355.00057780044153,,,,,,,,,,,,354.99739790009335,355.4927546000108,,,[],[],,,,,,,,,,4.155776999890804,None,,,,,Würfel,,,,,Socke,klobig,"['Socke', 'klobig']",test_sub,2,,,,,,354.9973315000534,354.9973707003519,"['Eimer', 'Kamera', 'Kerze', 'Ring', 'Stift', 'Flasche', 'Blume', 'Fahrrad', 'Geige', 'Trommel', 'Lampe', 'Bürste', 'Jacke', 'Socke', 'Brille', 'Uhr', 'Buch', 'Kiste', 'Rucksack', 'Kette', 'Vase', 'Löffel', 'Schere', 'Hammer', 'Hut', 'Tasse', 'Würfel', 'Telefon', 'Tasche', 'Schlüssel']",355.49276620009914,355.4955699001439,None,355.4956937003881,355.4971394003369,None,,,355.4972519003786,355.49885700037703,None,355.4989700000733,355.5001586000435,355.5001716003753,361.50356670003384,0,,,,,,,,,,,,,,,,,,,,,,,,,,,,,,,,,,,,,,,,,,,,,,2,2024-01-10_13h40.43.851,watkins1,2023.2.3,99.73390966766998,85,2024-01-10 13h40.54.180457 +0000,
,,,,,,,,,,,14,0,14,0,,,,,,,,,,,,,361.51347210025415,,,,,,,,,,,,361.5038380003534,361.9955570003949,,,[],[],,,,,,,,,,None,None,,,,,,,,,,Brille,hübsch,"['Brille', 'hübsch']",restudy,2,,,,,,361.5037732999772,361.50380970025435,"['Eimer', 'Kamera', 'Kerze', 'Ring', 'Stift', 'Flasche', 'Blume', 'Fahrrad', 'Geige', 'Trommel', 'Lampe', 'Bürste', 'Jacke', 'Socke', 'Brille', 'Uhr', 'Buch', 'Kiste', 'Rucksack', 'Kette', 'Vase', 'Löffel', 'Schere', 'Hammer', 'Hut', 'Tasse', 'Würfel', 'Telefon', 'Tasche', 'Schlüssel']",361.9955675001256,361.9983318001032,None,361.9984526000917,368.0029984000139,1,1.7734667998738587,None,368.0032949000597,368.0060023004189,None,368.0061130002141,368.00730260042474,368.0073142000474,368.00880030030385,,,,,,,,,,,,,,,,,,,,,,,,,,,,,,,,,,,,,,,,,,,,,,,2,2024-01-10_13h40.43.851,watkins1,2023.2.3,99.73390966766998,85,2024-01-10 13h40.54.180457 +0000,
,,,,,,,,,,,15,0,15,0,,,,,,,,,,,,,368.01246150024235,,,,,,,,,,,,368.0090819001198,368.5045153000392,,,[],[],,,,,,,,,,2.648872799705714,None,,,,,Uhr,,,,,Uhr,krumm,"['Uhr', 'krumm']",test_sub,2,,,,,,368.00901660043746,368.0090550002642,"['Eimer', 'Kamera', 'Kerze', 'Ring', 'Stift', 'Flasche', 'Blume', 'Fahrrad', 'Geige', 'Trommel', 'Lampe', 'Bürste', 'Jacke', 'Socke', 'Brille', 'Uhr', 'Buch', 'Kiste', 'Rucksack', 'Kette', 'Vase', 'Löffel', 'Schere', 'Hammer', 'Hut', 'Tasse', 'Würfel', 'Telefon', 'Tasche', 'Schlüssel']",368.50452690012753,368.5072712004185,None,368.5073957000859,368.5086865001358,None,,,368.508794200141,368.5100849000737,None,368.51019250042737,368.51120720012113,368.51121979998425,374.5143354004249,1,,,,,,,,,,,,,,,,,,,,,,,,,,,,,,,,,,,,,,,,,,,,,,2,2024-01-10_13h40.43.851,watkins1,2023.2.3,99.73390966766998,85,2024-01-10 13h40.54.180457 +0000,
,,,,,,,,,,,16,0,16,0,,,,,,,,,,,,,374.52420610003173,,,,,,,,,,,,374.51461170008406,375.00639520026743,,,[],[],,,,,,,,,,None,None,,,,,,,,,,Buch,kratzig,"['Buch', 'kratzig']",test_sub,2,,,,,,374.5145452003926,374.5145811000839,"['Eimer', 'Kamera', 'Kerze', 'Ring', 'Stift', 'Flasche', 'Blume', 'Fahrrad', 'Geige', 'Trommel', 'Lampe', 'Bürste', 'Jacke', 'Socke', 'Brille', 'Uhr', 'Buch', 'Kiste', 'Rucksack', 'Kette', 'Vase', 'Löffel', 'Schere', 'Hammer', 'Hut', 'Tasse', 'Würfel', 'Telefon', 'Tasche', 'Schlüssel']",375.00640630023554,375.0090048001148,None,375.00912940036505,375.0116062001325,None,,,375.01171430014074,375.0140953999944,None,375.01420300034806,375.01524930028245,375.0152616002597,381.0210114000365,0,,,,,,,,,,,,,,,,,,,,,,,,,,,,,,,,,,,,,,,,,,,,,,2,2024-01-10_13h40.43.851,watkins1,2023.2.3,99.73390966766998,85,2024-01-10 13h40.54.180457 +0000,
,,,,,,,,,,,17,0,17,0,,,,,,,,,,,,,381.03082590037957,,,,,,,,,,,,381.0212915004231,381.51285290019587,,,[],[],,,,,,,,,,2.6115839001722634,None,,,,,Kiste,,,,,Kiste,niedlich,"['Kiste', 'niedlich']",test_sub,2,,,,,,381.021225000266,381.02126310020685,"['Eimer', 'Kamera', 'Kerze', 'Ring', 'Stift', 'Flasche', 'Blume', 'Fahrrad', 'Geige', 'Trommel', 'Lampe', 'Bürste', 'Jacke', 'Socke', 'Brille', 'Uhr', 'Buch', 'Kiste', 'Rucksack', 'Kette', 'Vase', 'Löffel', 'Schere', 'Hammer', 'Hut', 'Tasse', 'Würfel', 'Telefon', 'Tasche', 'Schlüssel']",381.5128638003953,381.51556219998747,None,381.51568390009925,381.51820780010894,None,,,381.5183166000061,381.5208297003992,None,381.520938700065,381.5221023000777,381.5221146000549,387.52769210003316,1,,,,,,,,,,,,,,,,,,,,,,,,,,,,,,,,,,,,,,,,,,,,,,2,2024-01-10_13h40.43.851,watkins1,2023.2.3,99.73390966766998,85,2024-01-10 13h40.54.180457 +0000,
,,,,,,,,,,,18,0,18,0,,,,,,,,,,,,,387.5374971004203,,,,,,,,,,,,387.52797290030867,388.0199324004352,,,[],[],,,,,,,,,,None,None,,,,,,,,,,Rucksack,elegant,"['Rucksack', 'elegant']",restudy,2,,,,,,387.5279058003798,387.52794410008937,"['Eimer', 'Kamera', 'Kerze', 'Ring', 'Stift', 'Flasche', 'Blume', 'Fahrrad', 'Geige', 'Trommel', 'Lampe', 'Bürste', 'Jacke', 'Socke', 'Brille', 'Uhr', 'Buch', 'Kiste', 'Rucksack', 'Kette', 'Vase', 'Löffel', 'Schere', 'Hammer', 'Hut', 'Tasse', 'Würfel', 'Telefon', 'Tasche', 'Schlüssel']",388.01994280004874,388.022740600165,None,388.02286080038175,394.0237716999836,1,1.957227099686861,None,394.0240684002638,394.02694400027394,None,394.02705650031567,394.0284077003598,394.0284198001027,394.02994600031525,,,,,,,,,,,,,,,,,,,,,,,,,,,,,,,,,,,,,,,,,,,,,,,2,2024-01-10_13h40.43.851,watkins1,2023.2.3,99.73390966766998,85,2024-01-10 13h40.54.180457 +0000,
,,,,,,,,,,,19,0,19,0,,,,,,,,,,,,,394.033202000428,,,,,,,,,,,,394.0302310003899,394.52531860023737,,,[],[],,,,,,,,,,None,None,,,,,,,,,,Kette,schlicht,"['Kette', 'schlicht']",test_sub,2,,,,,,394.03016460034996,394.03020410006866,"['Eimer', 'Kamera', 'Kerze', 'Ring', 'Stift', 'Flasche', 'Blume', 'Fahrrad', 'Geige', 'Trommel', 'Lampe', 'Bürste', 'Jacke', 'Socke', 'Brille', 'Uhr', 'Buch', 'Kiste', 'Rucksack', 'Kette', 'Vase', 'Löffel', 'Schere', 'Hammer', 'Hut', 'Tasse', 'Würfel', 'Telefon', 'Tasche', 'Schlüssel']",394.52533050021157,394.528074900154,None,394.52820080006495,394.52963100001216,None,,,394.5297395000234,394.5311751002446,None,394.5312834000215,394.532442800235,394.5324554000981,400.5358987003565,0,,,,,,,,,,,,,,,,,,,,,,,,,,,,,,,,,,,,,,,,,,,,,,2,2024-01-10_13h40.43.851,watkins1,2023.2.3,99.73390966766998,85,2024-01-10 13h40.54.180457 +0000,
,,,,,,,,,,,20,0,20,0,,,,,,,,,,,,,400.5457004001364,,,,,,,,,,,,400.53618300007656,401.02772170025855,,,[],[],,,,,,,,,,None,None,,,,,,,,,,Vase,dunkel,"['Vase', 'dunkel']",restudy,2,,,,,,400.5361175001599,400.5361542003229,"['Eimer', 'Kamera', 'Kerze', 'Ring', 'Stift', 'Flasche', 'Blume', 'Fahrrad', 'Geige', 'Trommel', 'Lampe', 'Bürste', 'Jacke', 'Socke', 'Brille', 'Uhr', 'Buch', 'Kiste', 'Rucksack', 'Kette', 'Vase', 'Löffel', 'Schere', 'Hammer', 'Hut', 'Tasse', 'Würfel', 'Telefon', 'Tasche', 'Schlüssel']",401.02773460000753,401.03041550004855,None,401.03054050030187,407.032262600027,2,3.6933595999144018,None,407.032570600044,407.0351201002486,None,407.03523180028424,407.03639050014317,407.0364020001143,407.0375765003264,,,,,,,,,,,,,,,,,,,,,,,,,,,,,,,,,,,,,,,,,,,,,,,2,2024-01-10_13h40.43.851,watkins1,2023.2.3,99.73390966766998,85,2024-01-10 13h40.54.180457 +0000,
,,,,,,,,,,,21,0,21,0,,,,,,,,,,,,,407.0417298004031,,,,,,,,,,,,407.0378773002885,407.53392010042444,,,[],[],,,,,,,,,,None,None,,,,,,,,,,Löffel,dick,"['Löffel', 'dick']",restudy,2,,,,,,407.03780840011314,407.0378493000753,"['Eimer', 'Kamera', 'Kerze', 'Ring', 'Stift', 'Flasche', 'Blume', 'Fahrrad', 'Geige', 'Trommel', 'Lampe', 'Bürste', 'Jacke', 'Socke', 'Brille', 'Uhr', 'Buch', 'Kiste', 'Rucksack', 'Kette', 'Vase', 'Löffel', 'Schere', 'Hammer', 'Hut', 'Tasse', 'Würfel', 'Telefon', 'Tasche', 'Schlüssel']",407.53393110027537,407.5366430003196,None,407.5367662003264,413.54055890021846,1,1.9315333999693394,None,413.5408537001349,413.54351220000535,None,413.5436247000471,413.5447945999913,413.5448062000796,413.54584760032594,,,,,,,,,,,,,,,,,,,,,,,,,,,,,,,,,,,,,,,,,,,,,,,2,2024-01-10_13h40.43.851,watkins1,2023.2.3,99.73390966766998,85,2024-01-10 13h40.54.180457 +0000,
,,,,,,,,,,,22,0,22,0,,,,,,,,,,,,,413.5499758999795,,,,,,,,,,,,413.54613010026515,414.0421178000979,,,[],[],,,,,,,,,,None,None,,,,,,,,,,Schere,schmutzig,"['Schere', 'schmutzig']",restudy,2,,,,,,413.54606410022825,413.54610290005803,"['Eimer', 'Kamera', 'Kerze', 'Ring', 'Stift', 'Flasche', 'Blume', 'Fahrrad', 'Geige', 'Trommel', 'Lampe', 'Bürste', 'Jacke', 'Socke', 'Brille', 'Uhr', 'Buch', 'Kiste', 'Rucksack', 'Kette', 'Vase', 'Löffel', 'Schere', 'Hammer', 'Hut', 'Tasse', 'Würfel', 'Telefon', 'Tasche', 'Schlüssel']",414.0421288004145,414.0446699000895,None,414.04479330033064,420.0524462000467,1,1.8791903997771442,None,420.0527403000742,420.05548840016127,None,420.0555996000767,420.05687140021473,420.05688330018893,420.05812290031463,,,,,,,,,,,,,,,,,,,,,,,,,,,,,,,,,,,,,,,,,,,,,,,2,2024-01-10_13h40.43.851,watkins1,2023.2.3,99.73390966766998,85,2024-01-10 13h40.54.180457 +0000,
,,,,,,,,,,,23,0,23,0,,,,,,,,,,,,,420.0618859999813,,,,,,,,,,,,420.0584050002508,420.5540579999797,,,[],[],,,,,,,,,,None,None,,,,,,,,,,Hammer,kurz,"['Hammer', 'kurz']",restudy,2,,,,,,420.05833959998563,420.0583782000467,"['Eimer', 'Kamera', 'Kerze', 'Ring', 'Stift', 'Flasche', 'Blume', 'Fahrrad', 'Geige', 'Trommel', 'Lampe', 'Bürste', 'Jacke', 'Socke', 'Brille', 'Uhr', 'Buch', 'Kiste', 'Rucksack', 'Kette', 'Vase', 'Löffel', 'Schere', 'Hammer', 'Hut', 'Tasse', 'Würfel', 'Telefon', 'Tasche', 'Schlüssel']",420.5540689001791,420.5573743004352,None,420.5575027000159,426.56362130027264,1,2.0066022998653352,None,426.5639096000232,426.5664028003812,None,426.56651590019464,426.56777850026265,426.56779030011967,426.5688107004389,,,,,,,,,,,,,,,,,,,,,,,,,,,,,,,,,,,,,,,,,,,,,,,2,2024-01-10_13h40.43.851,watkins1,2023.2.3,99.73390966766998,85,2024-01-10 13h40.54.180457 +0000,
,,,,,,,,,,,24,0,24,0,,,,,,,,,,,,,426.57310050027445,,,,,,,,,,,,426.569093500264,427.06520500034094,,,[],[],,,,,,,,,,1.8752108002081513,None,,,,,Hut,,,,,Hut,rustikal,"['Hut', 'rustikal']",test_sub,2,,,,,,426.569028200116,426.5690663000569,"['Eimer', 'Kamera', 'Kerze', 'Ring', 'Stift', 'Flasche', 'Blume', 'Fahrrad', 'Geige', 'Trommel', 'Lampe', 'Bürste', 'Jacke', 'Socke', 'Brille', 'Uhr', 'Buch', 'Kiste', 'Rucksack', 'Kette', 'Vase', 'Löffel', 'Schere', 'Hammer', 'Hut', 'Tasse', 'Würfel', 'Telefon', 'Tasche', 'Schlüssel']",427.06521600019187,427.06758550042287,None,427.06770860031247,427.0689731002785,None,,,427.06907960027456,427.0703450003639,None,427.0704526002519,427.0714520001784,427.0714644002728,433.07377160014585,1,,,,,,,,,,,,,,,,,,,,,,,,,,,,,,,,,,,,,,,,,,,,,,2,2024-01-10_13h40.43.851,watkins1,2023.2.3,99.73390966766998,85,2024-01-10 13h40.54.180457 +0000,
,,,,,,,,,,,25,0,25,0,,,,,,,,,,,,,433.0835528001189,,,,,,,,,,,,433.07405400043353,433.56572770001367,,,[],[],,,,,,,,,,None,None,,,,,,,,,,Tasse,praktisch,"['Tasse', 'praktisch']",restudy,2,,,,,,433.07398790027946,433.0740253003314,"['Eimer', 'Kamera', 'Kerze', 'Ring', 'Stift', 'Flasche', 'Blume', 'Fahrrad', 'Geige', 'Trommel', 'Lampe', 'Bürste', 'Jacke', 'Socke', 'Brille', 'Uhr', 'Buch', 'Kiste', 'Rucksack', 'Kette', 'Vase', 'Löffel', 'Schere', 'Hammer', 'Hut', 'Tasse', 'Würfel', 'Telefon', 'Tasche', 'Schlüssel']",433.5657390002161,433.5685478001833,None,433.5686708004214,439.5709798000753,3,1.8912802999839187,None,439.5712694004178,439.57401640014723,None,439.5741292000748,439.575402200222,439.57541400007904,439.5769435004331,,,,,,,,,,,,,,,,,,,,,,,,,,,,,,,,,,,,,,,,,,,,,,,2,2024-01-10_13h40.43.851,watkins1,2023.2.3,99.73390966766998,85,2024-01-10 13h40.54.180457 +0000,
,,,,,,,,,,,26,0,26,0,,,,,,,,,,,,,439.5804619002156,,,,,,,,,,,,439.57722300011665,440.0726067000069,,,[],[],,,,,,,,,,None,None,,,,,,,,,,Würfel,schwer,"['Würfel', 'schwer']",restudy,2,,,,,,439.577157900203,439.5771966003813,"['Eimer', 'Kamera', 'Kerze', 'Ring', 'Stift', 'Flasche', 'Blume', 'Fahrrad', 'Geige', 'Trommel', 'Lampe', 'Bürste', 'Jacke', 'Socke', 'Brille', 'Uhr', 'Buch', 'Kiste', 'Rucksack', 'Kette', 'Vase', 'Löffel', 'Schere', 'Hammer', 'Hut', 'Tasse', 'Würfel', 'Telefon', 'Tasche', 'Schlüssel']",440.0726174004376,440.07535910001025,None,440.075480400119,446.0793080003932,1,1.808517700061202,None,446.0796068003401,446.08241070015356,None,446.08252570033073,446.0837125000544,446.0837241001427,446.0849045002833,,,,,,,,,,,,,,,,,,,,,,,,,,,,,,,,,,,,,,,,,,,,,,,2,2024-01-10_13h40.43.851,watkins1,2023.2.3,99.73390966766998,85,2024-01-10 13h40.54.180457 +0000,
,,,,,,,,,,,27,0,27,0,,,,,,,,,,,,,446.08882560022175,,,,,,,,,,,,446.08519180025905,446.5812165001407,,,[],[],,,,,,,,,,None,None,,,,,,,,,,Telefon,groß,"['Telefon', 'groß']",test_sub,2,,,,,,446.08512580022216,446.08516460005194,"['Eimer', 'Kamera', 'Kerze', 'Ring', 'Stift', 'Flasche', 'Blume', 'Fahrrad', 'Geige', 'Trommel', 'Lampe', 'Bürste', 'Jacke', 'Socke', 'Brille', 'Uhr', 'Buch', 'Kiste', 'Rucksack', 'Kette', 'Vase', 'Löffel', 'Schere', 'Hammer', 'Hut', 'Tasse', 'Würfel', 'Telefon', 'Tasche', 'Schlüssel']",446.5812278999947,446.583978000097,None,446.5841081002727,446.58557730028406,None,,,446.58568720007315,446.5871383002959,None,446.5872462000698,446.5884434999898,446.5884560002014,452.59164310013875,0,,,,,,,,,,,,,,,,,,,,,,,,,,,,,,,,,,,,,,,,,,,,,,2,2024-01-10_13h40.43.851,watkins1,2023.2.3,99.73390966766998,85,2024-01-10 13h40.54.180457 +0000,
,,,,,,,,,,,28,0,28,0,,,,,,,,,,,,,452.60145660024136,,,,,,,,,,,,452.5919242003001,453.08332930039614,,,[],[],,,,,,,,,,None,None,,,,,,,,,,Tasche,matt,"['Tasche', 'matt']",test_sub,2,,,,,,452.5918580000289,452.59189520031214,"['Eimer', 'Kamera', 'Kerze', 'Ring', 'Stift', 'Flasche', 'Blume', 'Fahrrad', 'Geige', 'Trommel', 'Lampe', 'Bürste', 'Jacke', 'Socke', 'Brille', 'Uhr', 'Buch', 'Kiste', 'Rucksack', 'Kette', 'Vase', 'Löffel', 'Schere', 'Hammer', 'Hut', 'Tasse', 'Würfel', 'Telefon', 'Tasche', 'Schlüssel']",453.0833401000127,453.08595760026947,None,453.0860826000571,453.08861940028146,None,,,453.08872920041904,453.0911395000294,None,453.09124860027805,453.0924406000413,453.09245290001854,459.0982978004031,0,,,,,,,,,,,,,,,,,,,,,,,,,,,,,,,,,,,,,,,,,,,,,,2,2024-01-10_13h40.43.851,watkins1,2023.2.3,99.73390966766998,85,2024-01-10 13h40.54.180457 +0000,
,,,,,,,,,,,29,0,29,0,,,,,,,,,,,,,459.10808140039444,,,,,,,,,,,,459.0985802002251,459.59009490022436,,,[],[],,,,,,,,,,2.862085800152272,None,,,,,Schöüssel,,,,,Schlüssel,lang,"['Schlüssel', 'lang']",test_sub,2,,,,,,459.0985145000741,459.0985514000058,"['Eimer', 'Kamera', 'Kerze', 'Ring', 'Stift', 'Flasche', 'Blume', 'Fahrrad', 'Geige', 'Trommel', 'Lampe', 'Bürste', 'Jacke', 'Socke', 'Brille', 'Uhr', 'Buch', 'Kiste', 'Rucksack', 'Kette', 'Vase', 'Löffel', 'Schere', 'Hammer', 'Hut', 'Tasse', 'Würfel', 'Telefon', 'Tasche', 'Schlüssel']",459.5901059000753,459.5928097004071,None,459.5929330000654,459.59540950041264,None,,,459.59551840042695,459.5979870003648,None,459.59809510037303,459.59933790005744,459.5993506000377,465.6045711999759,0,,,,,,,,,,,,,,,,,,,,,,,,,,,,,,,,,,,,,,,,,,,,,,2,2024-01-10_13h40.43.851,watkins1,2023.2.3,99.73390966766998,85,2024-01-10 13h40.54.180457 +0000,
,,,,,,,,,,,,,,,,,,,,,,,,,,,,,,,,,,,,,,,,,,,,,,,,,,,,,,,,,,,,,,,,,,,,,2,,,,,,,,,,,,,,,,,,,,,,,,,,,,,,,,,,,,,,,,,,,,,,,,,,,,,,,,,,,,,,,,,,,,,,2,2024-01-10_13h40.43.851,watkins1,2023.2.3,99.73390966766998,85,2024-01-10 13h40.54.180457 +0000,
(80 : 10) + 9 = 17 ,Correct,button_correct,,,,,,,,,,,,,0,0,0,3,,,,,,,,,493.0671695000492,,,,,,,,,,492.035914900247,493.039514800068,,,,,['button_correct'],[3.7783766998909414],,,,,,,,,,,,,,,,,,,,,,,,distractorTask,2,,,,,,,,,,,,,,,,,,,,,,,,,493.0556948003359,493.0671695000492,496.8394571002573,[0.3148148148148148],[-0.3990740740740741],[1],[0],[0],[3.7783766998909414],['button_correct'],496.8401248003356,497.8430938003585,,,,,,,,,,,,,,,,,,,,,,,,,,,,,,,,,,2,2024-01-10_13h40.43.851,watkins1,2023.2.3,99.73390966766998,85,2024-01-10 13h40.54.180457 +0000,
(4 : 2) + 4 = 6 ,Correct,button_correct,,,,,,,,,,,,,0,1,1,1,,,,,,,,,497.85307450033724,,,,,,,,,,,,,,,,['button_correct'],[2.206797099672258],,,,,,,,,,,,,,,,,,,,,,,,distractorTask,2,,,,,,,,,,,,,,,,,,,,,,,,,497.84328890033066,497.85307450033724,500.05262930039316,[0.2972222222222222],[-0.3824074074074074],[1],[0],[0],[2.206797099672258],['button_correct'],500.0530087002553,501.0561725003645,,,,,,,,,,,,,,,,,,,,,,,,,,,,,,,,,,2,2024-01-10_13h40.43.851,watkins1,2023.2.3,99.73390966766998,85,2024-01-10 13h40.54.180457 +0000,
(7 x 6) + 9 = 48 ,Incorrect,button_incorrect,,,,,,,,,,,,,0,2,2,9,,,,,,,,,501.0661552003585,,,,,,,,,,,,,,,,['button_incorrect'],[9.406844799872488],,,,,,,,,,,,,,,,,,,,,,,,distractorTask,2,,,,,,,,,,,,,,,,,,,,,,,,,501.05636840034276,501.0661552003585,510.4660239000805,[-0.37222222222222223],[-0.3851851851851852],[1],[0],[0],[9.406844799872488],['button_incorrect'],510.46642010007054,511.469819100108,,,,,,,,,,,,,,,,,,,,,,,,,,,,,,,,,,2,2024-01-10_13h40.43.851,watkins1,2023.2.3,99.73390966766998,85,2024-01-10 13h40.54.180457 +0000,
(9 x 5) - 9 = 36 ,Correct,button_correct,,,,,,,,,,,,,0,3,3,4,,,,,,,,,511.4798350003548,,,,,,,,,,,,,,,,['button_correct'],[5.641319899819791],,,,,,,,,,,,,,,,,,,,,,,,distractorTask,2,,,,,,,,,,,,,,,,,,,,,,,,,511.4700137004256,511.4798350003548,517.1142543000169,[0.3194444444444444],[-0.3787037037037037],[1],[0],[0],[5.641319899819791],['button_correct'],517.1146324002184,518.1178568000905,,,,,,,,,,,,,,,,,,,,,,,,,,,,,,,,,,2,2024-01-10_13h40.43.851,watkins1,2023.2.3,99.73390966766998,85,2024-01-10 13h40.54.180457 +0000,
(28 : 7) - 3 = 1 ,Correct,button_correct,,,,,,,,,,,,,0,4,4,0,,,,,,,,,518.12780270027,,,,,,,,,,,,,,,,['button_correct'],[4.517436699941754],,,,,,,,,,,,,,,,,,,,,,,,distractorTask,2,,,,,,,,,,,,,,,,,,,,,,,,,518.1180463000201,518.12780270027,522.6372190001421,[0.2962962962962963],[-0.39444444444444443],[1],[0],[0],[4.517436699941754],['button_correct'],522.6375958002172,523.6408030004241,,,,,,,,,,,,,,,,,,,,,,,,,,,,,,,,,,2,2024-01-10_13h40.43.851,watkins1,2023.2.3,99.73390966766998,85,2024-01-10 13h40.54.180457 +0000,
(2 x 5) + 3 = 13 ,Correct,button_correct,,,,,,,,,,,,,0,5,5,2,,,,,,,,,523.6508888001554,,,,,,,,,,,,,,,,['button_correct'],[1.9465815001167357],,,,,,,,,,,,,,,,,,,,,,,,distractorTask,2,,,,,,,,,,,,,,,,,,,,,,,,,523.6409936002456,523.6508888001554,525.589418000076,[0.34074074074074073],[-0.41759259259259257],[1],[0],[0],[1.9465815001167357],['button_correct'],525.5897975000553,526.5934984004125,,,,,,,,,,,,,,,,,,,,,,,,,,,,,,,,,,2,2024-01-10_13h40.43.851,watkins1,2023.2.3,99.73390966766998,85,2024-01-10 13h40.54.180457 +0000,
(25 : 5) + 5 = 9 ,Incorrect,button_incorrect,,,,,,,,,,,,,0,6,6,6,,,,,,,,,526.6035855002701,,,,,,,,,,,,,,,,['button_incorrect'],[2.498936700168997],,,,,,,,,,,,,,,,,,,,,,,,distractorTask,2,,,,,,,,,,,,,,,,,,,,,,,,,526.5936883003451,526.6035855002701,529.0943326000124,[-0.32685185185185184],[-0.37777777777777777],[1],[0],[0],[2.498936700168997],['button_incorrect'],529.0947118001059,530.098088900093,,,,,,,,,,,,,,,,,,,,,,,,,,,,,,,,,,2,2024-01-10_13h40.43.851,watkins1,2023.2.3,99.73390966766998,85,2024-01-10 13h40.54.180457 +0000,
(6 x 3) + 10 = 27 ,Incorrect,button_incorrect,,,,,,,,,,,,,0,7,7,8,,,,,,,,,530.1080749002285,,,,,,,,,,,,,,,,['button_incorrect'],[3.7340966002084315],,,,,,,,,,,,,,,,,,,,,,,,distractorTask,2,,,,,,,,,,,,,,,,,,,,,,,,,530.0982812000439,530.1080749002285,533.8341072001494,[-0.362962962962963],[-0.3814814814814815],[1],[0],[0],[3.7340966002084315],['button_incorrect'],533.8344863001257,534.8376129004173,,,,,,,,,,,,,,,,,,,,,,,,,,,,,,,,,,2,2024-01-10_13h40.43.851,watkins1,2023.2.3,99.73390966766998,85,2024-01-10 13h40.54.180457 +0000,
(54 : 6) - 10 = 0 ,Incorrect,button_incorrect,,,,,,,,,,,,,0,8,8,5,,,,,,,,,534.8475850000978,,,,,,,,,,,,,,,,['button_incorrect'],[4.657853499986231],,,,,,,,,,,,,,,,,,,,,,,,distractorTask,2,,,,,,,,,,,,,,,,,,,,,,,,,534.8378078001551,534.8475850000978,539.4975607004017,[-0.38055555555555554],[-0.387037037037037],[1],[0],[0],[4.657853499986231],['button_incorrect'],539.4979401002638,540.5014059999958,,,,,,,,,,,,,,,,,,,,,,,,,,,,,,,,,,2,2024-01-10_13h40.43.851,watkins1,2023.2.3,99.73390966766998,85,2024-01-10 13h40.54.180457 +0000,
(40 : 5) + 8 = 15 ,Incorrect,button_incorrect,,,,,,,,,,,,,0,9,9,7,,,,,,,,,540.5114532001317,,,,,,,,,,,,,,,,['button_incorrect'],"[3.874563400167972, 4.32655719993636]",,,,,,,,,,,,,,,,,,,,,,,,distractorTask,2,,,,,,,,,,,,,,,,,,,,,,,,,540.5015992000699,540.5114532001317,544.8299016002566,"[-0.30092592592592593, -0.29907407407407405]","[-0.3731481481481482, -0.38796296296296295]","[1, 1]","[0, 0]","[0, 0]","[3.874563400167972, 4.32655719993636]",['button_incorrect'],544.8303080000915,545.8338870001025,,,,,,,,,,,,,,,,,,,,,,,,,,,,,,,,,,2,2024-01-10_13h40.43.851,watkins1,2023.2.3,99.73390966766998,85,2024-01-10 13h40.54.180457 +0000,
,,,,,,,,,,,,,,,,,,,,,,,,,,,,,,,,,,,,,,,,,,,,,,,,,,,,,,,,,,,,,,,,,,,,,2,,,,,,,,,,,,,,,,,,,,,,,,,,,,,,,,,,,,,,,,,,,,,,,,,,,,,,,,,,,,,,,,,,,,,,2,2024-01-10_13h40.43.851,watkins1,2023.2.3,99.73390966766998,85,2024-01-10 13h40.54.180457 +0000,
,,,,,,,,,,,,,,,,,,,0,0,0,0,,,,,557.9438120000996,,,,,,,,,,,,,,,,Schlüssel,6.080593300051987,,,,,,,,,,3.674511000048369,None,,,,,,,,,,,,,freeRecallSub,2,,,,,,,,,,,,,,,,,,,,,,,,,,,,,,,,,,,,,557.9352362002246,557.9438120000996,557.9438120000996,564.0299537000246,return,6.080593300051987,None,Schlüssel,[-0.07592592592592592],[0.06111111111111111],[1],[0],[0],[1.7561869001947343],[],,,,,,,,,,,,,,,,,,,2,2024-01-10_13h40.43.851,watkins1,2023.2.3,99.73390966766998,85,2024-01-10 13h40.54.180457 +0000,
,,,,,,,,,,,,,,,,,,,1,0,1,0,,,,,564.0424810000695,,,,,,,,,,,,,,,,Eimer,1.8375544999726117,,,,,,,,,,0.4645810998044908,None,,,,,,,,,,,,,freeRecallSub,2,,,,,,,,,,,,,,,,,,,,,,,,,,,,,,,,,,,,,564.0317920004018,564.0424810000695,564.0424810000695,565.8830842003226,return,1.8375544999726117,None,Eimer,[],[],[],[],[],[],[],,,,,,,,,,,,,,,,,,,2,2024-01-10_13h40.43.851,watkins1,2023.2.3,99.73390966766998,85,2024-01-10 13h40.54.180457 +0000,
,,,,,,,,,,,,,,,,,,,2,0,2,0,,,,,565.8939912002534,,,,,,,,,,,,,,,,Würfel,1.6742338999174535,,,,,,,,,,0.2212131000123918,None,,,,,,,,,,,,,freeRecallSub,2,,,,,,,,,,,,,,,,,,,,,,,,,,,,,,,,,,,,,565.8843363001943,565.8939912002534,565.8939912002534,567.572053400334,return,1.6742338999174535,None,Würfel,[],[],[],[],[],[],[],,,,,,,,,,,,,,,,,,,2,2024-01-10_13h40.43.851,watkins1,2023.2.3,99.73390966766998,85,2024-01-10 13h40.54.180457 +0000,
,,,,,,,,,,,,,,,,,,,3,0,3,0,,,,,567.5828046002425,,,,,,,,,,,,,,,,Trommel,1.6493277000263333,,,,,,,,,,0.1807845002040267,None,,,,,,,,,,,,,freeRecallSub,2,,,,,,,,,,,,,,,,,,,,,,,,,,,,,,,,,,,,,567.5732970000245,567.5828046002425,567.5828046002425,569.2401335001923,return,1.6493277000263333,None,Trommel,[],[],[],[],[],[],[],,,,,,,,,,,,,,,,,,,2,2024-01-10_13h40.43.851,watkins1,2023.2.3,99.73390966766998,85,2024-01-10 13h40.54.180457 +0000,
,,,,,,,,,,,,,,,,,,,4,0,4,0,,,,,569.2508236002177,,,,,,,,,,,,,,,,Hut,1.0052970997057855,,,,,,,,,,0.22072610026225448,None,,,,,,,,,,,,,freeRecallSub,2,,,,,,,,,,,,,,,,,,,,,,,,,,,,,,,,,,,,,569.2413594000973,569.2508236002177,569.2508236002177,570.2653479999863,return,1.0052970997057855,None,Hut,[],[],[],[],[],[],[],,,,,,,,,,,,,,,,,,,2,2024-01-10_13h40.43.851,watkins1,2023.2.3,99.73390966766998,85,2024-01-10 13h40.54.180457 +0000,
,,,,,,,,,,,,,,,,,,,5,0,5,0,,,,,570.2765004001558,,,,,,,,,,,,,,,,Rucksack,13.443645700346678,,,,,,,,,,3.1835771002806723,None,,,,,,,,,,,,,freeRecallSub,2,,,,,,,,,,,,,,,,,,,,,,,,,,,,,,,,,,,,,570.2665896001272,570.2765004001558,570.2765004001558,583.7225066004321,return,13.443645700346678,None,Rucksack,[0.003703703703703704],[0.03611111111111111],[1],[0],[0],[2.2465266999788582],[],,,,,,,,,,,,,,,,,,,2,2024-01-10_13h40.43.851,watkins1,2023.2.3,99.73390966766998,85,2024-01-10 13h40.54.180457 +0000,
,,,,,,,,,,,,,,,,,,,6,0,6,0,,,,,583.7342620003037,,,,,,,,,,,,,,,,Kamera,2.649972999934107,,,,,,,,,,0.36322429962456226,None,,,,,,,,,,,,,freeRecallSub,2,,,,,,,,,,,,,,,,,,,,,,,,,,,,,,,,,,,,,583.7238017003983,583.7342620003037,583.7342620003037,586.3865647003986,return,2.649972999934107,None,Kamera,[],[],[],[],[],[],[],,,,,,,,,,,,,,,,,,,2,2024-01-10_13h40.43.851,watkins1,2023.2.3,99.73390966766998,85,2024-01-10 13h40.54.180457 +0000,
,,,,,,,,,,,,,,,,,,,7,0,7,0,,,,,586.3982040002011,,,,,,,,,,,,,,,,Bürste,6.625957400072366,,,,,,,,,,4.550655799917877,None,,,,,,,,,,,,,freeRecallSub,2,,,,,,,,,,,,,,,,,,,,,,,,,,,,,,,,,,,,,586.3878054004163,586.3982040002011,586.3982040002011,593.0271966001019,return,6.625957400072366,None,Bürste,[0.004629629629629629],[0.037037037037037035],[1],[0],[0],[2.106485900003463],[],,,,,,,,,,,,,,,,,,,2,2024-01-10_13h40.43.851,watkins1,2023.2.3,99.73390966766998,85,2024-01-10 13h40.54.180457 +0000,
,,,,,,,,,,,,,,,,,,,8,0,8,0,,,,,593.0389786004089,,,,,,,,,,,,,,,,Vas,4.201286899857223,,,,,,,,,,3.345527000259608,None,,,,,,,,,,,,,freeRecallSub,2,,,,,,,,,,,,,,,,,,,,,,,,,,,,,,,,,,,,,593.0284680002369,593.0389786004089,593.0389786004089,597.2484910003841,return,4.201286899857223,None,Vas,[],[],[],[],[],[],[],,,,,,,,,,,,,,,,,,,2,2024-01-10_13h40.43.851,watkins1,2023.2.3,99.73390966766998,85,2024-01-10 13h40.54.180457 +0000,
,,,,,,,,,,,,,,,,,,,9,0,9,0,,,,,597.259990000166,,,,,,,,,,,,,,,,Vase,2.972198899835348,,,,,,,,,,1.6597438999451697,None,,,,,,,,,,,,,freeRecallSub,2,,,,,,,,,,,,,,,,,,,,,,,,,,,,,,,,,,,,,597.2497267001309,597.259990000166,597.259990000166,600.2349062003195,return,2.972198899835348,None,Vase,[],[],[],[],[],[],[],,,,,,,,,,,,,,,,,,,2,2024-01-10_13h40.43.851,watkins1,2023.2.3,99.73390966766998,85,2024-01-10 13h40.54.180457 +0000,
,,,,,,,,,,,,,,,,,,,10,0,10,0,,,,,600.2466480000876,,,,,,,,,,,,,,,,Geige,56.60957959992811,,,,,,,,,,54.98012460023165,None,,,,,,,,,,,,,freeRecallSub,2,,,,,,,,,,,,,,,,,,,,,,,,,,,,,,,,,,,,,600.2361555001698,600.2466480000876,600.2466480000876,656.8632256002165,return,56.60957959992811,None,Geige,[],[],[],[],[],[],[],,,,,,,,,,,,,,,,,,,2,2024-01-10_13h40.43.851,watkins1,2023.2.3,99.73390966766998,85,2024-01-10 13h40.54.180457 +0000,
,,,,,,,,,,,,,,,,,,,11,0,11,0,,,,,656.8756889002398,,,,,,,,,,,,,,,,Kette,41.87646140018478,,,,,,,,,,39.94832849968225,None,,,,,,,,,,,,,freeRecallSub,2,,,,,,,,,,,,,,,,,,,,,,,,,,,,,,,,,,,,,656.8645091000944,656.8756889002398,656.8756889002398,698.7607706002891,return,41.87646140018478,None,Kette,[],[],[],[],[],[],[],,,,,,,,,,,,,,,,,,,2,2024-01-10_13h40.43.851,watkins1,2023.2.3,99.73390966766998,85,2024-01-10 13h40.54.180457 +0000,
,,,,,,,,,,,,,,,,,,,12,0,12,0,,,,,698.7729071001522,,,,,,,,,,,,,,,,,[],,,,,,,,,,None,None,,,,,,,,,,,,,freeRecallSub,2,,,,,,,,,,,,,,,,,,,,,,,,,,,,,,,,,,,,,698.7620360003784,698.7729071001522,698.7729071001522,767.1513762003742,None,,,,[0.2824074074074074],[-0.4185185185185185],[1],[0],[0],[68.38460150035098],['button_continue'],,,,,,,,,,,,,,,,,,,2,2024-01-10_13h40.43.851,watkins1,2023.2.3,99.73390966766998,85,2024-01-10 13h40.54.180457 +0000,
,,,,,,,,,,,,,,,,,,,,,,,,,,,,,,,,,,,,,,,,,,,,,,,,,,,,,,,,,,,,,,,,,,,,,2,,,,,,,,,,,,,,,,,,,,,,,,,,,,,,,,,,,,,,,,,,,,,,,,,,,,,,,,,,,,,,,,,,,,,,2,2024-01-10_13h40.43.851,watkins1,2023.2.3,99.73390966766998,85,2024-01-10 13h40.54.180457 +0000,
,,,,,,,,,,,,,,,,,,,,,,,0,0,0,0,779.7755960002542,,,,,,,,,,,,783.494769200217,783.9932031002827,,,,3.7125650998204947,,,,,,,,,,None,None,,,,,,,,,,Kamera,,,cuedRecallAdj,2,,,,,,,,,,,,,,,,,,,,,,,,0,,,,,,,,,,,,,,,,,,,,,,,,,,,,779.7666168999858,779.7755960002542,779.7755960002542,783.4915806003846,Lustig,return,3.7125650998204947,None,783.491973800119,783.5011587003246,783.5011587003246,783.4946202002466,,None,,,,,2,2024-01-10_13h40.43.851,watkins1,2023.2.3,99.73390966766998,85,2024-01-10 13h40.54.180457 +0000,
,,,,,,,,,,,,,,,,,,,,,,,1,0,1,0,784.003149300348,,,,,,,,,,,,787.6317369001918,788.1303293001838,,,,3.6210145000368357,,,,,,,,,,None,None,,,,,,,,,,Geige,,,cuedRecallAdj,2,,,,,,,,,,,,,,,,,,,,,,,,0,,,,,,,,,,,,,,,,,,,,,,,,,,,,783.993486000225,784.003149300348,784.003149300348,787.6287368000485,biegsam,return,3.6210145000368357,None,787.6289982004091,787.6383147002198,787.6383147002198,787.6316315000877,,None,,,,,2,2024-01-10_13h40.43.851,watkins1,2023.2.3,99.73390966766998,85,2024-01-10 13h40.54.180457 +0000,
,,,,,,,,,,,,,,,,,,,,,,,2,0,2,0,788.140325000044,,,,,,,,,,,,807.1223005000502,807.6211939002387,,,,18.97176989959553,,,,,,,,,,None,None,,,,,,,,,,Kette,,,cuedRecallAdj,2,,,,,,,,,,,,,,,,,,,,,,,,0,,,,,,,,,,,,,,,,,,,,,,,,,,,,788.130574400071,788.140325000044,788.140325000044,807.1193018001504,dezent,return,18.97176989959553,None,807.1195663004182,807.1287881000899,807.1287881000899,807.1221990999766,,None,,,,,2,2024-01-10_13h40.43.851,watkins1,2023.2.3,99.73390966766998,85,2024-01-10 13h40.54.180457 +0000,
,,,,,,,,,,,,,,,,,,,,,,,3,0,3,0,807.6311333002523,,,,,,,,,,,,811.7014001002535,812.2000906001776,,,,4.065102099906653,,,,,,,,,,None,None,,,,,,,,,,Lampe,,,cuedRecallAdj,2,,,,,,,,,,,,,,,,,,,,,,,,0,,,,,,,,,,,,,,,,,,,,,,,,,,,,807.6214417000301,807.6311333002523,807.6311333002523,811.6983129000291,strahlend,return,4.065102099906653,None,811.6985779004171,811.7078210003674,811.7078210003674,811.701298400294,,None,,,,,2,2024-01-10_13h40.43.851,watkins1,2023.2.3,99.73390966766998,85,2024-01-10 13h40.54.180457 +0000,
,,,,,,,,,,,,,,,,,,,,,,,4,0,4,0,812.2101389002055,,,,,,,,,,,,816.3005675002933,816.7992718000896,,,,4.077995300292969,,,,,,,,,,None,None,,,,,,,,,,Brille,,,cuedRecallAdj,2,,,,,,,,,,,,,,,,,,,,,,,,0,,,,,,,,,,,,,,,,,,,,,,,,,,,,812.2003327002749,812.2101389002055,812.2101389002055,816.2973908004351,hübsch,return,4.077995300292969,None,816.2976511004381,816.3071663002484,816.3071663002484,816.3004660001025,,None,,,,,2,2024-01-10_13h40.43.851,watkins1,2023.2.3,99.73390966766998,85,2024-01-10 13h40.54.180457 +0000,
,,,,,,,,,,,,,,,,,,,,,,,5,0,5,0,816.8092279001139,,,,,,,,,,,,826.2420423002914,826.7405895004049,,,,9.423032000195235,,,,,,,,,,None,None,,,,,,,,,,Buch,,,cuedRecallAdj,2,,,,,,,,,,,,,,,,,,,,,,,,0,,,,,,,,,,,,,,,,,,,,,,,,,,,,816.7995295003057,816.8092279001139,816.8092279001139,826.239047200419,schwer,return,9.423032000195235,None,826.2393147000112,826.2486221999861,826.2486221999861,826.2419406999834,,None,,,,,2,2024-01-10_13h40.43.851,watkins1,2023.2.3,99.73390966766998,85,2024-01-10 13h40.54.180457 +0000,
,,,,,,,,,,,,,,,,,,,,,,,6,0,6,0,826.7505030999891,,,,,,,,,,,,830.5198835004121,831.0183431003243,,,,3.7617039000615478,,,,,,,,,,None,None,,,,,,,,,,Socke,,,cuedRecallAdj,2,,,,,,,,,,,,,,,,,,,,,,,,0,,,,,,,,,,,,,,,,,,,,,,,,,,,,826.7408412001096,826.7505030999891,826.7505030999891,830.5169060002081,klobig,return,3.7617039000615478,None,830.5171707002446,830.5264475001022,830.5264475001022,830.5197829999961,,None,,,,,2,2024-01-10_13h40.43.851,watkins1,2023.2.3,99.73390966766998,85,2024-01-10 13h40.54.180457 +0000,
,,,,,,,,,,,,,,,,,,,,,,,7,0,7,0,831.0283078001812,,,,,,,,,,,,838.1217252002098,838.6200874000788,,,,7.083917700219899,,,,,,,,,,None,None,,,,,,,,,,Jacke,,,cuedRecallAdj,2,,,,,,,,,,,,,,,,,,,,,,,,0,,,,,,,,,,,,,,,,,,,,,,,,,,,,831.0185925001279,831.0283078001812,831.0283078001812,838.1185131003149,kuschelig,return,7.083917700219899,None,838.1187770003453,838.1280716001056,838.1280716001056,838.1216244003735,,None,,,,,2,2024-01-10_13h40.43.851,watkins1,2023.2.3,99.73390966766998,85,2024-01-10 13h40.54.180457 +0000,
,,,,,,,,,,,,,,,,,,,,,,,8,0,8,0,838.6300286999904,,,,,,,,,,,,840.9629721003585,841.4618554003537,,,,2.322116400115192,,,,,,,,,,None,None,,,,,,,,,,Löffel,,,cuedRecallAdj,2,,,,,,,,,,,,,,,,,,,,,,,,0,,,,,,,,,,,,,,,,,,,,,,,,,,,,838.6203338000923,838.6300286999904,838.6300286999904,840.960102900397,dick,return,2.322116400115192,None,840.9603644004092,840.9698365000077,840.9698365000077,840.9628718001768,,None,,,,,2,2024-01-10_13h40.43.851,watkins1,2023.2.3,99.73390966766998,85,2024-01-10 13h40.54.180457 +0000,
,,,,,,,,,,,,,,,,,,,,,,,9,0,9,0,841.4719033003785,,,,,,,,,,,,844.5077213002369,845.0064435000531,,,,3.0243358998559415,,,,,,,,,,None,None,,,,,,,,,,Ring,,,cuedRecallAdj,2,,,,,,,,,,,,,,,,,,,,,,,,0,,,,,,,,,,,,,,,,,,,,,,,,,,,,841.4620953002013,841.4719033003785,841.4719033003785,844.5046196002513,sportlich,return,3.0243358998559415,None,844.5048766001128,844.5143769001588,844.5143769001588,844.5076222000644,,None,,,,,2,2024-01-10_13h40.43.851,watkins1,2023.2.3,99.73390966766998,85,2024-01-10 13h40.54.180457 +0000,
,,,,,,,,,,,,,,,,,,,,,,,10,0,10,0,845.0164972003549,,,,,,,,,,,,848.4442214001901,848.9427339001559,,,,3.4236999000422657,,,,,,,,,,None,None,,,,,,,,,,Tasse,,,cuedRecallAdj,2,,,,,,,,,,,,,,,,,,,,,,,,0,,,,,,,,,,,,,,,,,,,,,,,,,,,,845.0066937003285,845.0164972003549,845.0164972003549,848.4411359000951,praktisch,return,3.4236999000422657,None,848.4413986001164,848.4506996003911,848.4506996003911,848.4441208001226,,None,,,,,2,2024-01-10_13h40.43.851,watkins1,2023.2.3,99.73390966766998,85,2024-01-10 13h40.54.180457 +0000,
,,,,,,,,,,,,,,,,,,,,,,,11,0,11,0,848.9526190999895,,,,,,,,,,,,859.1092282002792,859.607388400007,,,,10.151677699759603,,,,,,,,,,None,None,,,,,,,,,,Kiste,,,cuedRecallAdj,2,,,,,,,,,,,,,,,,,,,,,,,,0,,,,,,,,,,,,,,,,,,,,,,,,,,,,848.9429801004007,848.9526190999895,848.9526190999895,859.1058450001292,niedlich,return,10.151677699759603,None,859.1061089001596,859.115398300346,859.115398300346,859.1091281999834,,None,,,,,2,2024-01-10_13h40.43.851,watkins1,2023.2.3,99.73390966766998,85,2024-01-10 13h40.54.180457 +0000,
,,,,,,,,,,,,,,,,,,,,,,,12,0,12,0,859.6174012003466,,,,,,,,,,,,863.4064703001641,863.9055104004219,,,,3.7828707001172006,,,,,,,,,,None,None,,,,,,,,,,Hut,,,cuedRecallAdj,2,,,,,,,,,,,,,,,,,,,,,,,,0,,,,,,,,,,,,,,,,,,,,,,,,,,,,859.607636900153,859.6174012003466,859.6174012003466,863.4035835000686,rustikal,return,3.7828707001172006,None,863.4038506001234,863.413116700016,863.413116700016,863.4063690002076,,None,,,,,2,2024-01-10_13h40.43.851,watkins1,2023.2.3,99.73390966766998,85,2024-01-10 13h40.54.180457 +0000,
,,,,,,,,,,,,,,,,,,,,,,,13,0,13,0,863.9154598000459,,,,,,,,,,,,870.0946008004248,870.5929125002585,,,,6.17266339994967,,,,,,,,,,None,None,,,,,,,,,,Stift,,,cuedRecallAdj,2,,,,,,,,,,,,,,,,,,,,,,,,0,,,,,,,,,,,,,,,,,,,,,,,,,,,,863.905756900087,863.9154598000459,863.9154598000459,870.0913564004004,gestreift,return,6.17266339994967,None,870.0916211004369,870.1009375001304,870.1009375001304,870.0945012001321,,None,,,,,2,2024-01-10_13h40.43.851,watkins1,2023.2.3,99.73390966766998,85,2024-01-10 13h40.54.180457 +0000,
,,,,,,,,,,,,,,,,,,,,,,,14,0,14,0,870.6029749000445,,,,,,,,,,,,876.6215465003625,877.1199254002422,,,,6.013185900170356,,,,,,,,,,None,None,,,,,,,,,,Bürste,,,cuedRecallAdj,2,,,,,,,,,,,,,,,,,,,,,,,,0,,,,,,,,,,,,,,,,,,,,,,,,,,,,870.5931571000256,870.6029749000445,870.6029749000445,876.6182506000623,nachhaltig,return,6.013185900170356,None,876.6185174002312,876.6278499001637,876.6278499001637,876.6214458001778,,None,,,,,2,2024-01-10_13h40.43.851,watkins1,2023.2.3,99.73390966766998,85,2024-01-10 13h40.54.180457 +0000,
,,,,,,,,,,,,,,,,,,,,,,,15,0,15,0,877.1298961001448,,,,,,,,,,,,882.3748735003173,882.8738020001911,,,,5.238391799852252,,,,,,,,,,None,None,,,,,,,,,,Tasche,,,cuedRecallAdj,2,,,,,,,,,,,,,,,,,,,,,,,,0,,,,,,,,,,,,,,,,,,,,,,,,,,,,877.1201694002375,877.1298961001448,877.1298961001448,882.372074900195,matt,return,5.238391799852252,None,882.3723321002908,882.3817362003028,882.3817362003028,882.3747724001296,,None,,,,,2,2024-01-10_13h40.43.851,watkins1,2023.2.3,99.73390966766998,85,2024-01-10 13h40.54.180457 +0000,
,,,,,,,,,,,,,,,,,,,,,,,16,0,16,0,882.8837267002091,,,,,,,,,,,,885.2370237000287,885.7360420003533,,,,2.3404393000528216,,,,,,,,,,None,None,,,,,,,,,,Uhr,,,cuedRecallAdj,2,,,,,,,,,,,,,,,,,,,,,,,,0,,,,,,,,,,,,,,,,,,,,,,,,,,,,882.8740491000935,882.8837267002091,882.8837267002091,885.2342120003887,krumm,return,2.3404393000528216,None,885.234481099993,885.2439710004255,885.2439710004255,885.2369240000844,,None,,,,,2,2024-01-10_13h40.43.851,watkins1,2023.2.3,99.73390966766998,85,2024-01-10 13h40.54.180457 +0000,
,,,,,,,,,,,,,,,,,,,,,,,17,0,17,0,885.7459798003547,,,,,,,,,,,,891.1013133004308,891.6000407002866,,,,5.3422997002489865,,,,,,,,,,None,None,,,,,,,,,,Kerze,,,cuedRecallAdj,2,,,,,,,,,,,,,,,,,,,,,,,,0,,,,,,,,,,,,,,,,,,,,,,,,,,,,885.7362870001234,885.7459798003547,885.7459798003547,891.0981541001238,schwer,return,5.3422997002489865,None,891.0984203000553,891.1078218002804,891.1078218002804,891.1012121001258,,None,,,,,2,2024-01-10_13h40.43.851,watkins1,2023.2.3,99.73390966766998,85,2024-01-10 13h40.54.180457 +0000,
,,,,,,,,,,,,,,,,,,,,,,,18,0,18,0,891.6100151999854,,,,,,,,,,,,901.6051827999763,902.103962100111,,,,9.982137099839747,,,,,,,,,,None,None,,,,,,,,,,Eimer,,,cuedRecallAdj,2,,,,,,,,,,,,,,,,,,,,,,,,0,,,,,,,,,,,,,,,,,,,,,,,,,,,,891.6003070003353,891.6100151999854,891.6100151999854,901.602194300387,teuer,return,9.982137099839747,None,901.6024613003246,901.6119030001573,901.6119030001573,901.6050805002451,,None,,,,,2,2024-01-10_13h40.43.851,watkins1,2023.2.3,99.73390966766998,85,2024-01-10 13h40.54.180457 +0000,
,,,,,,,,,,,,,,,,,,,,,,,19,0,19,0,902.113955100067,,,,,,,,,,,,923.0045009003952,923.5028017000295,,,,20.88619939982891,,,,,,,,,,None,None,,,,,,,,,,Blume,,,cuedRecallAdj,2,,,,,,,,,,,,,,,,,,,,,,,,0,,,,,,,,,,,,,,,,,,,,,,,,,,,,902.1041980003938,902.113955100067,902.113955100067,923.0013084001839,schwer,return,20.88619939982891,None,923.0015742001124,923.0108664003201,923.0108664003201,923.0043995003216,,None,,,,,2,2024-01-10_13h40.43.851,watkins1,2023.2.3,99.73390966766998,85,2024-01-10 13h40.54.180457 +0000,
,,,,,,,,,,,,,,,,,,,,,,,20,0,20,0,923.5127094001509,,,,,,,,,,,,927.3522939002141,927.8509889002889,,,,3.8314375998452306,,,,,,,,,,None,None,,,,,,,,,,Schlüssel,,,cuedRecallAdj,2,,,,,,,,,,,,,,,,,,,,,,,,0,,,,,,,,,,,,,,,,,,,,,,,,,,,,923.5030486001633,923.5127094001509,923.5127094001509,927.349390400108,lang,return,3.8314375998452306,None,927.3496483000927,927.3589820000343,927.3589820000343,927.3521942002699,,None,,,,,2,2024-01-10_13h40.43.851,watkins1,2023.2.3,99.73390966766998,85,2024-01-10 13h40.54.180457 +0000,
,,,,,,,,,,,,,,,,,,,,,,,21,0,21,0,927.8609366002493,,,,,,,,,,,,931.2182774003595,931.7172093000263,,,,3.347263100091368,,,,,,,,,,None,None,,,,,,,,,,Vase,,,cuedRecallAdj,2,,,,,,,,,,,,,,,,,,,,,,,,0,,,,,,,,,,,,,,,,,,,,,,,,,,,,927.8512310003862,927.8609366002493,927.8609366002493,931.2152151004411,dunkel,return,3.347263100091368,None,931.2154823001474,931.2248239000328,931.2248239000328,931.2181767001748,,None,,,,,2,2024-01-10_13h40.43.851,watkins1,2023.2.3,99.73390966766998,85,2024-01-10 13h40.54.180457 +0000,
,,,,,,,,,,,,,,,,,,,,,,,22,0,22,0,931.7271609003656,,,,,,,,,,,,935.4759015003219,935.9744382002391,,,,3.745116400066763,,,,,,,,,,None,None,,,,,,,,,,Flasche,,,cuedRecallAdj,2,,,,,,,,,,,,,,,,,,,,,,,,0,,,,,,,,,,,,,,,,,,,,,,,,,,,,931.7174553000368,931.7271609003656,931.7271609003656,935.4730426003225,gut,return,3.745116400066763,None,935.4733068002388,935.4825350004248,935.4825350004248,935.475800300017,,None,,,,,2,2024-01-10_13h40.43.851,watkins1,2023.2.3,99.73390966766998,85,2024-01-10 13h40.54.180457 +0000,
,,,,,,,,,,,,,,,,,,,,,,,23,0,23,0,935.9843479003757,,,,,,,,,,,,942.4245762000792,942.9232082003728,,,,6.431861199904233,,,,,,,,,,None,None,,,,,,,,,,Würfel,,,cuedRecallAdj,2,,,,,,,,,,,,,,,,,,,,,,,,0,,,,,,,,,,,,,,,,,,,,,,,,,,,,935.9746846002527,935.9843479003757,935.9843479003757,942.4215786000714,schwer,return,6.431861199904233,None,942.4218427999876,942.4311654004268,942.4311654004268,942.4244751003571,,None,,,,,2,2024-01-10_13h40.43.851,watkins1,2023.2.3,99.73390966766998,85,2024-01-10 13h40.54.180457 +0000,
,,,,,,,,,,,,,,,,,,,,,,,24,0,24,0,942.9331624000333,,,,,,,,,,,,945.6378474002704,946.1365043004043,,,,2.6990657998248935,,,,,,,,,,None,None,,,,,,,,,,Rucksack,,,cuedRecallAdj,2,,,,,,,,,,,,,,,,,,,,,,,,0,,,,,,,,,,,,,,,,,,,,,,,,,,,,942.9234521002509,942.9331624000333,942.9331624000333,945.6347682001069,elegant,return,2.6990657998248935,None,945.6350340000354,945.6443175002933,945.6443175002933,945.6377468002029,,None,,,,,2,2024-01-10_13h40.43.851,watkins1,2023.2.3,99.73390966766998,85,2024-01-10 13h40.54.180457 +0000,
,,,,,,,,,,,,,,,,,,,,,,,25,0,25,0,946.146421900019,,,,,,,,,,,,948.1782400002703,948.6771317003295,,,,2.021736599970609,,,,,,,,,,None,None,,,,,,,,,,Fahrrad,,,cuedRecallAdj,2,,,,,,,,,,,,,,,,,,,,,,,,0,,,,,,,,,,,,,,,,,,,,,,,,,,,,946.136753000319,946.146421900019,946.146421900019,948.1753477002494,neu,return,2.021736599970609,None,948.175615800079,948.1849354002625,948.1849354002625,948.1781383003108,,None,,,,,2,2024-01-10_13h40.43.851,watkins1,2023.2.3,99.73390966766998,85,2024-01-10 13h40.54.180457 +0000,
,,,,,,,,,,,,,,,,,,,,,,,26,0,26,0,948.687074800022,,,,,,,,,,,,951.1304287002422,951.6292082001455,,,,2.433186899870634,,,,,,,,,,None,None,,,,,,,,,,Trommel,,,cuedRecallAdj,2,,,,,,,,,,,,,,,,,,,,,,,,0,,,,,,,,,,,,,,,,,,,,,,,,,,,,948.6773775001056,948.687074800022,948.687074800022,951.1275285002775,hohl,return,2.433186899870634,None,951.1277942000888,951.1372397001833,951.1372397001833,951.1303251003847,,None,,,,,2,2024-01-10_13h40.43.851,watkins1,2023.2.3,99.73390966766998,85,2024-01-10 13h40.54.180457 +0000,
,,,,,,,,,,,,,,,,,,,,,,,27,0,27,0,951.6391250002198,,,,,,,,,,,,955.2677523000166,955.7664726004004,,,,3.6251535997726023,,,,,,,,,,None,None,,,,,,,,,,Schere,,,cuedRecallAdj,2,,,,,,,,,,,,,,,,,,,,,,,,0,,,,,,,,,,,,,,,,,,,,,,,,,,,,951.6294565000571,951.6391250002198,951.6391250002198,955.2647547000088,schmutzig,return,3.6251535997726023,None,955.2650164002553,955.2742670001462,955.2742670001462,955.2676539001986,,None,,,,,2,2024-01-10_13h40.43.851,watkins1,2023.2.3,99.73390966766998,85,2024-01-10 13h40.54.180457 +0000,
,,,,,,,,,,,,,,,,,,,,,,,28,0,28,0,955.7764170002192,,,,,,,,,,,,959.736262800172,960.234874300193,,,,3.9517864999361336,,,,,,,,,,None,None,,,,,,,,,,Hammer,,,cuedRecallAdj,2,,,,,,,,,,,,,,,,,,,,,,,,0,,,,,,,,,,,,,,,,,,,,,,,,,,,,955.7667232002132,955.7764170002192,955.7764170002192,959.7333461004309,kurz,return,3.9517864999361336,None,959.7336284001358,959.7428504000418,959.7428504000418,959.7361615002155,,None,,,,,2,2024-01-10_13h40.43.851,watkins1,2023.2.3,99.73390966766998,85,2024-01-10 13h40.54.180457 +0000,
,,,,,,,,,,,,,,,,,,,,,,,29,0,29,0,960.244801599998,,,,,,,,,,,,964.6669449000619,965.1654781000689,,,,4.411420800257474,,,,,,,,,,None,None,,,,,,,,,,Telefon,,,cuedRecallAdj,2,,,,,,,,,,,,,,,,,,,,,,,,0,,,,,,,,,,,,,,,,,,,,,,,,,,,,960.2351111001335,960.244801599998,960.244801599998,964.6637963000685,groß,return,4.411420800257474,None,964.6640616003424,964.6735222004354,964.6735222004354,964.6668433002196,,None,,,,,2,2024-01-10_13h40.43.851,watkins1,2023.2.3,99.73390966766998,85,2024-01-10 13h40.54.180457 +0000,
,,,,,,,,,,,,,,,,,,,,,,,,,,,,,,,,,,,,,,,,,,,,,,,,,,,,,,,,,,,,,,,,,,,,,2,,,,,,,,,,,,,,,,,,,,,,,,,,,,,,,,,,,,,,,,,,,,,,,,,,,,,,,,,,,,,,,,,,965.1825442002155,q,4294.538139400072,None,2,2024-01-10_13h40.43.851,watkins1,2023.2.3,99.73390966766998,85,2024-01-10 13h40.54.180457 +0000,
