Equation,CorrectResponse,Correctbutton,trials_7.thisRepN,trials_7.thisTrialN,trials_7.thisN,trials_7.thisIndex,trials.thisRepN,trials.thisTrialN,trials.thisN,trials.thisIndex,trials_3.thisRepN,trials_3.thisTrialN,trials_3.thisN,trials_3.thisIndex,trials_2.thisRepN,trials_2.thisTrialN,trials_2.thisN,trials_2.thisIndex,trials_4.thisRepN,trials_4.thisTrialN,trials_4.thisN,trials_4.thisIndex,trials_5.thisRepN,trials_5.thisTrialN,trials_5.thisN,trials_5.thisIndex,thisRow.t,notes,code_marius.started,code_marius.stopped,welcome.started,welcome.stopped,instruction_study.started,instruction_study.stopped,fixationcross.started,fixationcross.stopped,blanc.started,blanc.stopped,study_control_probe.started,study_control_probe.stopped,responseKey,responseTime,scale_answer_2.keys,study_control_probe_2.started,study_control_probe_2.stopped,scale_answer_3.keys,scale_answer_3.rt,scale_answer_3.duration,blanc_2.started,blanc_2.stopped,test_attr_probe.started,test_attr_probe.stopped,recalled_attr,firstKeyTime,secondWordTime,blanc_3.started,blanc_3.stopped,test_sub_probe.started,test_sub_probe.stopped,recalled_sub,instruction_probe_end.started,instruction_probe_end.stopped,study.started,study.stopped,substantive,adjective,wordpair,task,condition,liste_sub_phase1,liste_adj_phase1,scale_answer.keys,scale_answer.rt,scale_answer.duration,code_defineWordsInit.started,code_defineWordsInit.stopped,liste_sub_phase2,study_control.started,study_control.stopped,scale_answer_4.keys,restudy_same.started,restudy_same.stopped,scale_answer_5.keys,restudy_different.started,restudy_different.stopped,scale_answer_6.keys,test_attr.started,correct,test_attr.stopped,test_sub.started,test_sub.stopped,scale_answer_5.rt,scale_answer_5.duration,distractortask.started,equation_text.started,distractortask.stopped,mouse_answer.x,mouse_answer.y,mouse_answer.leftButton,mouse_answer.midButton,mouse_answer.rightButton,mouse_answer.time,mouse_answer.clicked_name,feedback_distractortask.started,feedback_distractortask.stopped,free_recall.started,text_enter.started,key_resp.started,free_recall.stopped,key_resp.keys,key_resp.rt,key_resp.duration,free_recalled_sub,mouse_continue.x,mouse_continue.y,mouse_continue.leftButton,mouse_continue.midButton,mouse_continue.rightButton,mouse_continue.time,mouse_continue.clicked_name,cued_recall.started,text_enter_2.started,key_continue.started,cued_recall.stopped,recalled_attr1,key_continue.keys,key_continue.rt,key_continue.duration,cued_recall_2.started,text_enter_3.started,key_continue_2.started,cued_recall_2.stopped,recalled_attr2,key_continue_2.keys,key_resp_8.started,key_resp_8.keys,key_resp_8.rt,key_resp_8.duration,condition,date,expName,psychopyVersion,frameRate,participant,expStart,
,,,,,,,,,,,,,,,,,,,,,,,,,,,,,0.11848200019448996,0.11855500005185604,0.11856359988451004,5.096936400048435,,,,,,,,,,,,,,,,,,,,,,,,,,,,,,,,,,,,,3,,,,,,,,,,,,,,,,,,,,,,,,,,,,,,,,,,,,,,,,,,,,,,,,,,,,,,,,,,,,,,,,,,,,,,3,2024-01-16_11h33.06.343,watkins1,2023.2.3,99.78605882654837,91,2024-01-16 11h33.12.220084 +0000,
,,,,,,,,,,,,,,,,,,,,,,,,,,,,,,,,,5.096985999960452,45.09746589977294,,,,,,,,,,,,,,,,,,,,,,,,,,,,,,,,,,,3,,,,,,,,,,,,,,,,,,,,,,,,,,,,,,,,,,,,,,,,,,,,,,,,,,,,,,,,,,,,,,,,,,,,,,3,2024-01-16_11h33.06.343,watkins1,2023.2.3,99.78605882654837,91,2024-01-16 11h33.12.220084 +0000,
,,,0,0,0,0,,,,,,,,,,,,,,,,,,,,,46.11116039985791,,,,,,,,45.097482999786735,46.10112900007516,52.59683959977701,53.08781549986452,46.59309069998562,52.59667500015348,3,3.9768172004260123,None,53.087826299946755,59.09421239979565,3,3.9768172004260123,None,59.09450569981709,59.58585170004517,59.58586309989914,65.59068789985031,vergnügt,None,None,65.59090820001438,65.59093159995973,65.59093890013173,65.5910260998644,,,,,,,,,,3,,,,,,,,,,,,,,,,,,,,,,,,,,,,,,,,,,,,,,,,,,,,,,,,,,,,,,,,,,,,,,,,,,,,,,3,2024-01-16_11h33.06.343,watkins1,2023.2.3,99.78605882654837,91,2024-01-16 11h33.12.220084 +0000,
,,,,,,,,,,,,,,,,,,,,,,,,,,,,,,,,,,,,,,,,,,,,,,,,,,,,,,,,,,,,,65.5911468998529,72.17961600003764,,,,,,,3,,,,,,,,,,,,,,,,,,,,,,,,,,,,,,,,,,,,,,,,,,,,,,,,,,,,,,,,,,,,,,,,,,,,,,3,2024-01-16_11h33.06.343,watkins1,2023.2.3,99.78605882654837,91,2024-01-16 11h33.12.220084 +0000,
,,,,,,,0,0,0,0,,,,,,,,,,,,,,,,,73.1930808997713,,,,,,,,72.17963430006057,73.18309349985793,73.18355959979817,73.67534160008654,,,3,2.8086156998761,,,,,,,,,,,,,,,,,,,,,73.6753523000516,79.67897999985144,Geige,hohl,"['Geige', 'hohl']",test_adj,3,"['Geige', 'Rucksack', 'Uhr', 'Flasche', 'Eimer', 'Vase', 'Tasche', 'Hut', 'Jacke', 'Trommel', 'Kerze', 'Buch', 'Tasse', 'Löffel', 'Schlüssel', 'Stift', 'Kamera', 'Würfel', 'Lampe', 'Hammer', 'Telefon', 'Kiste', 'Schere', 'Blume', 'Ring', 'Brille', 'Bürste', 'Socke', 'Kette', 'Fahrrad']",['hohl'],3,2.8086156998761,None,,,,,,,,,,,,,,,,,,,,,,,,,,,,,,,,,,,,,,,,,,,,,,,,,,,,,,,,,,,,,,,,,3,2024-01-16_11h33.06.343,watkins1,2023.2.3,99.78605882654837,91,2024-01-16 11h33.12.220084 +0000,
,,,,,,,1,0,1,0,,,,,,,,,,,,,,,,,79.6884186998941,,,,,,,,,,79.67963160015643,80.17047300003469,,,2,3.1379844998009503,,,,,,,,,,,,,,,,,,,,,80.17048399988562,86.17573580006137,Rucksack,niedlich,"['Rucksack', 'niedlich']",restudy,3,"['Geige', 'Rucksack', 'Uhr', 'Flasche', 'Eimer', 'Vase', 'Tasche', 'Hut', 'Jacke', 'Trommel', 'Kerze', 'Buch', 'Tasse', 'Löffel', 'Schlüssel', 'Stift', 'Kamera', 'Würfel', 'Lampe', 'Hammer', 'Telefon', 'Kiste', 'Schere', 'Blume', 'Ring', 'Brille', 'Bürste', 'Socke', 'Kette', 'Fahrrad']","['hohl', 'niedlich']",2,3.1379844998009503,None,,,,,,,,,,,,,,,,,,,,,,,,,,,,,,,,,,,,,,,,,,,,,,,,,,,,,,,,,,,,,,,,,3,2024-01-16_11h33.06.343,watkins1,2023.2.3,99.78605882654837,91,2024-01-16 11h33.12.220084 +0000,
,,,,,,,2,0,2,0,,,,,,,,,,,,,,,,,86.18522370001301,,,,,,,,,,86.17633830010891,86.6669756998308,,,3,1.8416090998798609,,,,,,,,,,,,,,,,,,,,,86.66698649991304,92.66936310008168,Uhr,glänzend,"['Uhr', 'glänzend']",restudy,3,"['Geige', 'Rucksack', 'Uhr', 'Flasche', 'Eimer', 'Vase', 'Tasche', 'Hut', 'Jacke', 'Trommel', 'Kerze', 'Buch', 'Tasse', 'Löffel', 'Schlüssel', 'Stift', 'Kamera', 'Würfel', 'Lampe', 'Hammer', 'Telefon', 'Kiste', 'Schere', 'Blume', 'Ring', 'Brille', 'Bürste', 'Socke', 'Kette', 'Fahrrad']","['hohl', 'niedlich', 'glänzend']",3,1.8416090998798609,None,,,,,,,,,,,,,,,,,,,,,,,,,,,,,,,,,,,,,,,,,,,,,,,,,,,,,,,,,,,,,,,,,3,2024-01-16_11h33.06.343,watkins1,2023.2.3,99.78605882654837,91,2024-01-16 11h33.12.220084 +0000,
,,,,,,,3,0,3,0,,,,,,,,,,,,,,,,,92.67887290008366,,,,,,,,,,92.66989810019732,93.16101690009236,,,1,3.5727098998613656,,,,,,,,,,,,,,,,,,,,,93.16102749994025,99.16173989977688,Flasche,kurz,"['Flasche', 'kurz']",restudy,3,"['Geige', 'Rucksack', 'Uhr', 'Flasche', 'Eimer', 'Vase', 'Tasche', 'Hut', 'Jacke', 'Trommel', 'Kerze', 'Buch', 'Tasse', 'Löffel', 'Schlüssel', 'Stift', 'Kamera', 'Würfel', 'Lampe', 'Hammer', 'Telefon', 'Kiste', 'Schere', 'Blume', 'Ring', 'Brille', 'Bürste', 'Socke', 'Kette', 'Fahrrad']","['hohl', 'niedlich', 'glänzend', 'kurz']",1,3.5727098998613656,None,,,,,,,,,,,,,,,,,,,,,,,,,,,,,,,,,,,,,,,,,,,,,,,,,,,,,,,,,,,,,,,,,3,2024-01-16_11h33.06.343,watkins1,2023.2.3,99.78605882654837,91,2024-01-16 11h33.12.220084 +0000,
,,,,,,,4,0,4,0,,,,,,,,,,,,,,,,,99.17115949979052,,,,,,,,,,99.16227950016037,99.65345939993858,,,3,1.4154217997565866,,,,,,,,,,,,,,,,,,,,,99.65346990013495,105.6554224002175,Eimer,schwer,"['Eimer', 'schwer']",test_adj,3,"['Geige', 'Rucksack', 'Uhr', 'Flasche', 'Eimer', 'Vase', 'Tasche', 'Hut', 'Jacke', 'Trommel', 'Kerze', 'Buch', 'Tasse', 'Löffel', 'Schlüssel', 'Stift', 'Kamera', 'Würfel', 'Lampe', 'Hammer', 'Telefon', 'Kiste', 'Schere', 'Blume', 'Ring', 'Brille', 'Bürste', 'Socke', 'Kette', 'Fahrrad']","['hohl', 'niedlich', 'glänzend', 'kurz', 'schwer']",3,1.4154217997565866,None,,,,,,,,,,,,,,,,,,,,,,,,,,,,,,,,,,,,,,,,,,,,,,,,,,,,,,,,,,,,,,,,,3,2024-01-16_11h33.06.343,watkins1,2023.2.3,99.78605882654837,91,2024-01-16 11h33.12.220084 +0000,
,,,,,,,5,0,5,0,,,,,,,,,,,,,,,,,105.66491710022092,,,,,,,,,,105.65597379999235,106.14693729998544,,,3,1.7387162996456027,,,,,,,,,,,,,,,,,,,,,106.14694730006158,112.14766310015693,Vase,elegant,"['Vase', 'elegant']",test_adj,3,"['Geige', 'Rucksack', 'Uhr', 'Flasche', 'Eimer', 'Vase', 'Tasche', 'Hut', 'Jacke', 'Trommel', 'Kerze', 'Buch', 'Tasse', 'Löffel', 'Schlüssel', 'Stift', 'Kamera', 'Würfel', 'Lampe', 'Hammer', 'Telefon', 'Kiste', 'Schere', 'Blume', 'Ring', 'Brille', 'Bürste', 'Socke', 'Kette', 'Fahrrad']","['hohl', 'niedlich', 'glänzend', 'kurz', 'schwer', 'elegant']",3,1.7387162996456027,None,,,,,,,,,,,,,,,,,,,,,,,,,,,,,,,,,,,,,,,,,,,,,,,,,,,,,,,,,,,,,,,,,3,2024-01-16_11h33.06.343,watkins1,2023.2.3,99.78605882654837,91,2024-01-16 11h33.12.220084 +0000,
,,,,,,,6,0,6,0,,,,,,,,,,,,,,,,,112.1571101997979,,,,,,,,,,112.14818560006097,112.63958049984649,,,3,5.637748599983752,,,,,,,,,,,,,,,,,,,,,112.6395907998085,118.6454679002054,Tasche,dunkel,"['Tasche', 'dunkel']",test_adj,3,"['Geige', 'Rucksack', 'Uhr', 'Flasche', 'Eimer', 'Vase', 'Tasche', 'Hut', 'Jacke', 'Trommel', 'Kerze', 'Buch', 'Tasse', 'Löffel', 'Schlüssel', 'Stift', 'Kamera', 'Würfel', 'Lampe', 'Hammer', 'Telefon', 'Kiste', 'Schere', 'Blume', 'Ring', 'Brille', 'Bürste', 'Socke', 'Kette', 'Fahrrad']","['hohl', 'niedlich', 'glänzend', 'kurz', 'schwer', 'elegant', 'dunkel']",3,5.637748599983752,None,,,,,,,,,,,,,,,,,,,,,,,,,,,,,,,,,,,,,,,,,,,,,,,,,,,,,,,,,,,,,,,,,3,2024-01-16_11h33.06.343,watkins1,2023.2.3,99.78605882654837,91,2024-01-16 11h33.12.220084 +0000,
,,,,,,,7,0,7,0,,,,,,,,,,,,,,,,,118.65505729988217,,,,,,,,,,118.64598059980199,119.13714870018885,,,1,2.540394499897957,,,,,,,,,,,,,,,,,,,,,119.13715900015086,125.13827429991215,Hut,nachhaltig,"['Hut', 'nachhaltig']",test_adj,3,"['Geige', 'Rucksack', 'Uhr', 'Flasche', 'Eimer', 'Vase', 'Tasche', 'Hut', 'Jacke', 'Trommel', 'Kerze', 'Buch', 'Tasse', 'Löffel', 'Schlüssel', 'Stift', 'Kamera', 'Würfel', 'Lampe', 'Hammer', 'Telefon', 'Kiste', 'Schere', 'Blume', 'Ring', 'Brille', 'Bürste', 'Socke', 'Kette', 'Fahrrad']","['hohl', 'niedlich', 'glänzend', 'kurz', 'schwer', 'elegant', 'dunkel', 'nachhaltig']",1,2.540394499897957,None,,,,,,,,,,,,,,,,,,,,,,,,,,,,,,,,,,,,,,,,,,,,,,,,,,,,,,,,,,,,,,,,,3,2024-01-16_11h33.06.343,watkins1,2023.2.3,99.78605882654837,91,2024-01-16 11h33.12.220084 +0000,
,,,,,,,8,0,8,0,,,,,,,,,,,,,,,,,125.14770569978282,,,,,,,,,,125.1387796998024,125.62980849994346,,,2,1.975465300027281,,,,,,,,,,,,,,,,,,,,,125.62981909979135,131.6314535997808,Jacke,glatt,"['Jacke', 'glatt']",test_adj,3,"['Geige', 'Rucksack', 'Uhr', 'Flasche', 'Eimer', 'Vase', 'Tasche', 'Hut', 'Jacke', 'Trommel', 'Kerze', 'Buch', 'Tasse', 'Löffel', 'Schlüssel', 'Stift', 'Kamera', 'Würfel', 'Lampe', 'Hammer', 'Telefon', 'Kiste', 'Schere', 'Blume', 'Ring', 'Brille', 'Bürste', 'Socke', 'Kette', 'Fahrrad']","['hohl', 'niedlich', 'glänzend', 'kurz', 'schwer', 'elegant', 'dunkel', 'nachhaltig', 'glatt']",2,1.975465300027281,None,,,,,,,,,,,,,,,,,,,,,,,,,,,,,,,,,,,,,,,,,,,,,,,,,,,,,,,,,,,,,,,,,3,2024-01-16_11h33.06.343,watkins1,2023.2.3,99.78605882654837,91,2024-01-16 11h33.12.220084 +0000,
,,,,,,,9,0,9,0,,,,,,,,,,,,,,,,,131.64091750001535,,,,,,,,,,131.6319865998812,132.12302749976516,,,3,3.290341400075704,,,,,,,,,,,,,,,,,,,,,132.12303860019892,138.12395290005952,Trommel,gepunktet,"['Trommel', 'gepunktet']",restudy,3,"['Geige', 'Rucksack', 'Uhr', 'Flasche', 'Eimer', 'Vase', 'Tasche', 'Hut', 'Jacke', 'Trommel', 'Kerze', 'Buch', 'Tasse', 'Löffel', 'Schlüssel', 'Stift', 'Kamera', 'Würfel', 'Lampe', 'Hammer', 'Telefon', 'Kiste', 'Schere', 'Blume', 'Ring', 'Brille', 'Bürste', 'Socke', 'Kette', 'Fahrrad']","['hohl', 'niedlich', 'glänzend', 'kurz', 'schwer', 'elegant', 'dunkel', 'nachhaltig', 'glatt', 'gepunktet']",3,3.290341400075704,None,,,,,,,,,,,,,,,,,,,,,,,,,,,,,,,,,,,,,,,,,,,,,,,,,,,,,,,,,,,,,,,,,3,2024-01-16_11h33.06.343,watkins1,2023.2.3,99.78605882654837,91,2024-01-16 11h33.12.220084 +0000,
,,,,,,,10,0,10,0,,,,,,,,,,,,,,,,,138.1334309000522,,,,,,,,,,138.12447840021923,138.61544909980148,,,2,4.268640799913555,,,,,,,,,,,,,,,,,,,,,138.61546040000394,144.6191611001268,Kerze,rustikal,"['Kerze', 'rustikal']",test_adj,3,"['Geige', 'Rucksack', 'Uhr', 'Flasche', 'Eimer', 'Vase', 'Tasche', 'Hut', 'Jacke', 'Trommel', 'Kerze', 'Buch', 'Tasse', 'Löffel', 'Schlüssel', 'Stift', 'Kamera', 'Würfel', 'Lampe', 'Hammer', 'Telefon', 'Kiste', 'Schere', 'Blume', 'Ring', 'Brille', 'Bürste', 'Socke', 'Kette', 'Fahrrad']","['hohl', 'niedlich', 'glänzend', 'kurz', 'schwer', 'elegant', 'dunkel', 'nachhaltig', 'glatt', 'gepunktet', 'rustikal']",2,4.268640799913555,None,,,,,,,,,,,,,,,,,,,,,,,,,,,,,,,,,,,,,,,,,,,,,,,,,,,,,,,,,,,,,,,,,3,2024-01-16_11h33.06.343,watkins1,2023.2.3,99.78605882654837,91,2024-01-16 11h33.12.220084 +0000,
,,,,,,,11,0,11,0,,,,,,,,,,,,,,,,,144.62861699983478,,,,,,,,,,144.61968499980867,145.1105182999745,,,2,4.574861600063741,,,,,,,,,,,,,,,,,,,,,145.11052910005674,151.11883760010824,Buch,kaputt,"['Buch', 'kaputt']",restudy,3,"['Geige', 'Rucksack', 'Uhr', 'Flasche', 'Eimer', 'Vase', 'Tasche', 'Hut', 'Jacke', 'Trommel', 'Kerze', 'Buch', 'Tasse', 'Löffel', 'Schlüssel', 'Stift', 'Kamera', 'Würfel', 'Lampe', 'Hammer', 'Telefon', 'Kiste', 'Schere', 'Blume', 'Ring', 'Brille', 'Bürste', 'Socke', 'Kette', 'Fahrrad']","['hohl', 'niedlich', 'glänzend', 'kurz', 'schwer', 'elegant', 'dunkel', 'nachhaltig', 'glatt', 'gepunktet', 'rustikal', 'kaputt']",2,4.574861600063741,None,,,,,,,,,,,,,,,,,,,,,,,,,,,,,,,,,,,,,,,,,,,,,,,,,,,,,,,,,,,,,,,,,3,2024-01-16_11h33.06.343,watkins1,2023.2.3,99.78605882654837,91,2024-01-16 11h33.12.220084 +0000,
,,,,,,,12,0,12,0,,,,,,,,,,,,,,,,,151.1283615999855,,,,,,,,,,151.11935930000618,151.61040720017627,,,2,2.3637612997554243,,,,,,,,,,,,,,,,,,,,,151.61041809991002,157.61264389986172,Tasse,krumm,"['Tasse', 'krumm']",restudy,3,"['Geige', 'Rucksack', 'Uhr', 'Flasche', 'Eimer', 'Vase', 'Tasche', 'Hut', 'Jacke', 'Trommel', 'Kerze', 'Buch', 'Tasse', 'Löffel', 'Schlüssel', 'Stift', 'Kamera', 'Würfel', 'Lampe', 'Hammer', 'Telefon', 'Kiste', 'Schere', 'Blume', 'Ring', 'Brille', 'Bürste', 'Socke', 'Kette', 'Fahrrad']","['hohl', 'niedlich', 'glänzend', 'kurz', 'schwer', 'elegant', 'dunkel', 'nachhaltig', 'glatt', 'gepunktet', 'rustikal', 'kaputt', 'krumm']",2,2.3637612997554243,None,,,,,,,,,,,,,,,,,,,,,,,,,,,,,,,,,,,,,,,,,,,,,,,,,,,,,,,,,,,,,,,,,3,2024-01-16_11h33.06.343,watkins1,2023.2.3,99.78605882654837,91,2024-01-16 11h33.12.220084 +0000,
,,,,,,,13,0,13,0,,,,,,,,,,,,,,,,,157.62211780017242,,,,,,,,,,157.61317239981145,158.10420380020514,,,1,1.484332799911499,,,,,,,,,,,,,,,,,,,,,158.10421459982172,164.1064597000368,Löffel,sportlich,"['Löffel', 'sportlich']",test_adj,3,"['Geige', 'Rucksack', 'Uhr', 'Flasche', 'Eimer', 'Vase', 'Tasche', 'Hut', 'Jacke', 'Trommel', 'Kerze', 'Buch', 'Tasse', 'Löffel', 'Schlüssel', 'Stift', 'Kamera', 'Würfel', 'Lampe', 'Hammer', 'Telefon', 'Kiste', 'Schere', 'Blume', 'Ring', 'Brille', 'Bürste', 'Socke', 'Kette', 'Fahrrad']","['hohl', 'niedlich', 'glänzend', 'kurz', 'schwer', 'elegant', 'dunkel', 'nachhaltig', 'glatt', 'gepunktet', 'rustikal', 'kaputt', 'krumm', 'sportlich']",1,1.484332799911499,None,,,,,,,,,,,,,,,,,,,,,,,,,,,,,,,,,,,,,,,,,,,,,,,,,,,,,,,,,,,,,,,,,3,2024-01-16_11h33.06.343,watkins1,2023.2.3,99.78605882654837,91,2024-01-16 11h33.12.220084 +0000,
,,,,,,,14,0,14,0,,,,,,,,,,,,,,,,,164.1159353000112,,,,,,,,,,164.10698729986325,164.59786390000954,,,3,3.6958114998415112,,,,,,,,,,,,,,,,,,,,,164.59787480020896,170.60423219995573,Schlüssel,winzig,"['Schlüssel', 'winzig']",test_adj,3,"['Geige', 'Rucksack', 'Uhr', 'Flasche', 'Eimer', 'Vase', 'Tasche', 'Hut', 'Jacke', 'Trommel', 'Kerze', 'Buch', 'Tasse', 'Löffel', 'Schlüssel', 'Stift', 'Kamera', 'Würfel', 'Lampe', 'Hammer', 'Telefon', 'Kiste', 'Schere', 'Blume', 'Ring', 'Brille', 'Bürste', 'Socke', 'Kette', 'Fahrrad']","['hohl', 'niedlich', 'glänzend', 'kurz', 'schwer', 'elegant', 'dunkel', 'nachhaltig', 'glatt', 'gepunktet', 'rustikal', 'kaputt', 'krumm', 'sportlich', 'winzig']",3,3.6958114998415112,None,,,,,,,,,,,,,,,,,,,,,,,,,,,,,,,,,,,,,,,,,,,,,,,,,,,,,,,,,,,,,,,,,3,2024-01-16_11h33.06.343,watkins1,2023.2.3,99.78605882654837,91,2024-01-16 11h33.12.220084 +0000,
,,,,,,,15,0,15,0,,,,,,,,,,,,,,,,,170.61369840009138,,,,,,,,,,170.60476739984006,171.09579539997503,,,3,1.5823407000862062,,,,,,,,,,,,,,,,,,,,,171.09580620005727,177.1053697001189,Stift,teuer,"['Stift', 'teuer']",restudy,3,"['Geige', 'Rucksack', 'Uhr', 'Flasche', 'Eimer', 'Vase', 'Tasche', 'Hut', 'Jacke', 'Trommel', 'Kerze', 'Buch', 'Tasse', 'Löffel', 'Schlüssel', 'Stift', 'Kamera', 'Würfel', 'Lampe', 'Hammer', 'Telefon', 'Kiste', 'Schere', 'Blume', 'Ring', 'Brille', 'Bürste', 'Socke', 'Kette', 'Fahrrad']","['hohl', 'niedlich', 'glänzend', 'kurz', 'schwer', 'elegant', 'dunkel', 'nachhaltig', 'glatt', 'gepunktet', 'rustikal', 'kaputt', 'krumm', 'sportlich', 'winzig', 'teuer']",3,1.5823407000862062,None,,,,,,,,,,,,,,,,,,,,,,,,,,,,,,,,,,,,,,,,,,,,,,,,,,,,,,,,,,,,,,,,,3,2024-01-16_11h33.06.343,watkins1,2023.2.3,99.78605882654837,91,2024-01-16 11h33.12.220084 +0000,
,,,,,,,16,0,16,0,,,,,,,,,,,,,,,,,177.11487659998238,,,,,,,,,,177.10589860007167,177.59692210005596,,,2,2.3053434998728335,,,,,,,,,,,,,,,,,,,,,177.59693330014125,183.60495659988374,Kamera,dick,"['Kamera', 'dick']",restudy,3,"['Geige', 'Rucksack', 'Uhr', 'Flasche', 'Eimer', 'Vase', 'Tasche', 'Hut', 'Jacke', 'Trommel', 'Kerze', 'Buch', 'Tasse', 'Löffel', 'Schlüssel', 'Stift', 'Kamera', 'Würfel', 'Lampe', 'Hammer', 'Telefon', 'Kiste', 'Schere', 'Blume', 'Ring', 'Brille', 'Bürste', 'Socke', 'Kette', 'Fahrrad']","['hohl', 'niedlich', 'glänzend', 'kurz', 'schwer', 'elegant', 'dunkel', 'nachhaltig', 'glatt', 'gepunktet', 'rustikal', 'kaputt', 'krumm', 'sportlich', 'winzig', 'teuer', 'dick']",2,2.3053434998728335,None,,,,,,,,,,,,,,,,,,,,,,,,,,,,,,,,,,,,,,,,,,,,,,,,,,,,,,,,,,,,,,,,,3,2024-01-16_11h33.06.343,watkins1,2023.2.3,99.78605882654837,91,2024-01-16 11h33.12.220084 +0000,
,,,,,,,17,0,17,0,,,,,,,,,,,,,,,,,183.61447869986296,,,,,,,,,,183.6054818998091,184.0962923001498,,,2,3.6606370001100004,,,,,,,,,,,,,,,,,,,,,184.09630289999768,190.09976939996704,Würfel,schmutzig,"['Würfel', 'schmutzig']",restudy,3,"['Geige', 'Rucksack', 'Uhr', 'Flasche', 'Eimer', 'Vase', 'Tasche', 'Hut', 'Jacke', 'Trommel', 'Kerze', 'Buch', 'Tasse', 'Löffel', 'Schlüssel', 'Stift', 'Kamera', 'Würfel', 'Lampe', 'Hammer', 'Telefon', 'Kiste', 'Schere', 'Blume', 'Ring', 'Brille', 'Bürste', 'Socke', 'Kette', 'Fahrrad']","['hohl', 'niedlich', 'glänzend', 'kurz', 'schwer', 'elegant', 'dunkel', 'nachhaltig', 'glatt', 'gepunktet', 'rustikal', 'kaputt', 'krumm', 'sportlich', 'winzig', 'teuer', 'dick', 'schmutzig']",2,3.6606370001100004,None,,,,,,,,,,,,,,,,,,,,,,,,,,,,,,,,,,,,,,,,,,,,,,,,,,,,,,,,,,,,,,,,,3,2024-01-16_11h33.06.343,watkins1,2023.2.3,99.78605882654837,91,2024-01-16 11h33.12.220084 +0000,
,,,,,,,18,0,18,0,,,,,,,,,,,,,,,,,190.10924419993535,,,,,,,,,,190.10029880004004,190.59118749992922,,,3,1.8305828999727964,,,,,,,,,,,,,,,,,,,,,190.5911980001256,196.6012563998811,Lampe,biegsam,"['Lampe', 'biegsam']",restudy,3,"['Geige', 'Rucksack', 'Uhr', 'Flasche', 'Eimer', 'Vase', 'Tasche', 'Hut', 'Jacke', 'Trommel', 'Kerze', 'Buch', 'Tasse', 'Löffel', 'Schlüssel', 'Stift', 'Kamera', 'Würfel', 'Lampe', 'Hammer', 'Telefon', 'Kiste', 'Schere', 'Blume', 'Ring', 'Brille', 'Bürste', 'Socke', 'Kette', 'Fahrrad']","['hohl', 'niedlich', 'glänzend', 'kurz', 'schwer', 'elegant', 'dunkel', 'nachhaltig', 'glatt', 'gepunktet', 'rustikal', 'kaputt', 'krumm', 'sportlich', 'winzig', 'teuer', 'dick', 'schmutzig', 'biegsam']",3,1.8305828999727964,None,,,,,,,,,,,,,,,,,,,,,,,,,,,,,,,,,,,,,,,,,,,,,,,,,,,,,,,,,,,,,,,,,3,2024-01-16_11h33.06.343,watkins1,2023.2.3,99.78605882654837,91,2024-01-16 11h33.12.220084 +0000,
,,,,,,,19,0,19,0,,,,,,,,,,,,,,,,,196.61073350021616,,,,,,,,,,196.60178600018844,197.09281890001148,,,3,1.2882412001490593,,,,,,,,,,,,,,,,,,,,,197.09282959997654,203.09395150002092,Hammer,groß,"['Hammer', 'groß']",restudy,3,"['Geige', 'Rucksack', 'Uhr', 'Flasche', 'Eimer', 'Vase', 'Tasche', 'Hut', 'Jacke', 'Trommel', 'Kerze', 'Buch', 'Tasse', 'Löffel', 'Schlüssel', 'Stift', 'Kamera', 'Würfel', 'Lampe', 'Hammer', 'Telefon', 'Kiste', 'Schere', 'Blume', 'Ring', 'Brille', 'Bürste', 'Socke', 'Kette', 'Fahrrad']","['hohl', 'niedlich', 'glänzend', 'kurz', 'schwer', 'elegant', 'dunkel', 'nachhaltig', 'glatt', 'gepunktet', 'rustikal', 'kaputt', 'krumm', 'sportlich', 'winzig', 'teuer', 'dick', 'schmutzig', 'biegsam', 'groß']",3,1.2882412001490593,None,,,,,,,,,,,,,,,,,,,,,,,,,,,,,,,,,,,,,,,,,,,,,,,,,,,,,,,,,,,,,,,,,3,2024-01-16_11h33.06.343,watkins1,2023.2.3,99.78605882654837,91,2024-01-16 11h33.12.220084 +0000,
,,,,,,,20,0,20,0,,,,,,,,,,,,,,,,,203.1033804998733,,,,,,,,,,203.09451099997386,203.58545230003074,,,2,2.244606800377369,,,,,,,,,,,,,,,,,,,,,203.58546310011297,209.59489719988778,Telefon,nass,"['Telefon', 'nass']",restudy,3,"['Geige', 'Rucksack', 'Uhr', 'Flasche', 'Eimer', 'Vase', 'Tasche', 'Hut', 'Jacke', 'Trommel', 'Kerze', 'Buch', 'Tasse', 'Löffel', 'Schlüssel', 'Stift', 'Kamera', 'Würfel', 'Lampe', 'Hammer', 'Telefon', 'Kiste', 'Schere', 'Blume', 'Ring', 'Brille', 'Bürste', 'Socke', 'Kette', 'Fahrrad']","['hohl', 'niedlich', 'glänzend', 'kurz', 'schwer', 'elegant', 'dunkel', 'nachhaltig', 'glatt', 'gepunktet', 'rustikal', 'kaputt', 'krumm', 'sportlich', 'winzig', 'teuer', 'dick', 'schmutzig', 'biegsam', 'groß', 'nass']",2,2.244606800377369,None,,,,,,,,,,,,,,,,,,,,,,,,,,,,,,,,,,,,,,,,,,,,,,,,,,,,,,,,,,,,,,,,,3,2024-01-16_11h33.06.343,watkins1,2023.2.3,99.78605882654837,91,2024-01-16 11h33.12.220084 +0000,
,,,,,,,21,0,21,0,,,,,,,,,,,,,,,,,209.6043969001621,,,,,,,,,,209.59543030010536,210.0864563002251,,,2,5.135407600086182,,,,,,,,,,,,,,,,,,,,,210.08646679995582,216.09495879989117,Kiste,verspielt,"['Kiste', 'verspielt']",test_adj,3,"['Geige', 'Rucksack', 'Uhr', 'Flasche', 'Eimer', 'Vase', 'Tasche', 'Hut', 'Jacke', 'Trommel', 'Kerze', 'Buch', 'Tasse', 'Löffel', 'Schlüssel', 'Stift', 'Kamera', 'Würfel', 'Lampe', 'Hammer', 'Telefon', 'Kiste', 'Schere', 'Blume', 'Ring', 'Brille', 'Bürste', 'Socke', 'Kette', 'Fahrrad']","['hohl', 'niedlich', 'glänzend', 'kurz', 'schwer', 'elegant', 'dunkel', 'nachhaltig', 'glatt', 'gepunktet', 'rustikal', 'kaputt', 'krumm', 'sportlich', 'winzig', 'teuer', 'dick', 'schmutzig', 'biegsam', 'groß', 'nass', 'verspielt']",2,5.135407600086182,None,,,,,,,,,,,,,,,,,,,,,,,,,,,,,,,,,,,,,,,,,,,,,,,,,,,,,,,,,,,,,,,,,3,2024-01-16_11h33.06.343,watkins1,2023.2.3,99.78605882654837,91,2024-01-16 11h33.12.220084 +0000,
,,,,,,,22,0,22,0,,,,,,,,,,,,,,,,,216.1043881000951,,,,,,,,,,216.09551079990342,216.58644270012155,,,2,1.875213099643588,,,,,,,,,,,,,,,,,,,,,216.58645300008357,222.59388589998707,Schere,durchsichtig,"['Schere', 'durchsichtig']",test_adj,3,"['Geige', 'Rucksack', 'Uhr', 'Flasche', 'Eimer', 'Vase', 'Tasche', 'Hut', 'Jacke', 'Trommel', 'Kerze', 'Buch', 'Tasse', 'Löffel', 'Schlüssel', 'Stift', 'Kamera', 'Würfel', 'Lampe', 'Hammer', 'Telefon', 'Kiste', 'Schere', 'Blume', 'Ring', 'Brille', 'Bürste', 'Socke', 'Kette', 'Fahrrad']","['hohl', 'niedlich', 'glänzend', 'kurz', 'schwer', 'elegant', 'dunkel', 'nachhaltig', 'glatt', 'gepunktet', 'rustikal', 'kaputt', 'krumm', 'sportlich', 'winzig', 'teuer', 'dick', 'schmutzig', 'biegsam', 'groß', 'nass', 'verspielt', 'durchsichtig']",2,1.875213099643588,None,,,,,,,,,,,,,,,,,,,,,,,,,,,,,,,,,,,,,,,,,,,,,,,,,,,,,,,,,,,,,,,,,3,2024-01-16_11h33.06.343,watkins1,2023.2.3,99.78605882654837,91,2024-01-16 11h33.12.220084 +0000,
,,,,,,,23,0,23,0,,,,,,,,,,,,,,,,,222.6033108001575,,,,,,,,,,222.59442280000076,223.08544760011137,,,1,1.9362608999945223,,,,,,,,,,,,,,,,,,,,,223.0854577999562,229.0884814998135,Blume,robust,"['Blume', 'robust']",test_adj,3,"['Geige', 'Rucksack', 'Uhr', 'Flasche', 'Eimer', 'Vase', 'Tasche', 'Hut', 'Jacke', 'Trommel', 'Kerze', 'Buch', 'Tasse', 'Löffel', 'Schlüssel', 'Stift', 'Kamera', 'Würfel', 'Lampe', 'Hammer', 'Telefon', 'Kiste', 'Schere', 'Blume', 'Ring', 'Brille', 'Bürste', 'Socke', 'Kette', 'Fahrrad']","['hohl', 'niedlich', 'glänzend', 'kurz', 'schwer', 'elegant', 'dunkel', 'nachhaltig', 'glatt', 'gepunktet', 'rustikal', 'kaputt', 'krumm', 'sportlich', 'winzig', 'teuer', 'dick', 'schmutzig', 'biegsam', 'groß', 'nass', 'verspielt', 'durchsichtig', 'robust']",1,1.9362608999945223,None,,,,,,,,,,,,,,,,,,,,,,,,,,,,,,,,,,,,,,,,,,,,,,,,,,,,,,,,,,,,,,,,,3,2024-01-16_11h33.06.343,watkins1,2023.2.3,99.78605882654837,91,2024-01-16 11h33.12.220084 +0000,
,,,,,,,24,0,24,0,,,,,,,,,,,,,,,,,229.0980429998599,,,,,,,,,,229.08900040015578,229.5799977001734,,,3,1.46623450005427,,,,,,,,,,,,,,,,,,,,,229.58001099992543,235.58829589979723,Ring,strahlend,"['Ring', 'strahlend']",restudy,3,"['Geige', 'Rucksack', 'Uhr', 'Flasche', 'Eimer', 'Vase', 'Tasche', 'Hut', 'Jacke', 'Trommel', 'Kerze', 'Buch', 'Tasse', 'Löffel', 'Schlüssel', 'Stift', 'Kamera', 'Würfel', 'Lampe', 'Hammer', 'Telefon', 'Kiste', 'Schere', 'Blume', 'Ring', 'Brille', 'Bürste', 'Socke', 'Kette', 'Fahrrad']","['hohl', 'niedlich', 'glänzend', 'kurz', 'schwer', 'elegant', 'dunkel', 'nachhaltig', 'glatt', 'gepunktet', 'rustikal', 'kaputt', 'krumm', 'sportlich', 'winzig', 'teuer', 'dick', 'schmutzig', 'biegsam', 'groß', 'nass', 'verspielt', 'durchsichtig', 'robust', 'strahlend']",3,1.46623450005427,None,,,,,,,,,,,,,,,,,,,,,,,,,,,,,,,,,,,,,,,,,,,,,,,,,,,,,,,,,,,,,,,,,3,2024-01-16_11h33.06.343,watkins1,2023.2.3,99.78605882654837,91,2024-01-16 11h33.12.220084 +0000,
,,,,,,,25,0,25,0,,,,,,,,,,,,,,,,,235.59778930014,,,,,,,,,,235.58882179996,236.07976880017668,,,3,1.6461555999703705,,,,,,,,,,,,,,,,,,,,,236.07977870013565,242.08216129988432,Brille,hübsch,"['Brille', 'hübsch']",test_adj,3,"['Geige', 'Rucksack', 'Uhr', 'Flasche', 'Eimer', 'Vase', 'Tasche', 'Hut', 'Jacke', 'Trommel', 'Kerze', 'Buch', 'Tasse', 'Löffel', 'Schlüssel', 'Stift', 'Kamera', 'Würfel', 'Lampe', 'Hammer', 'Telefon', 'Kiste', 'Schere', 'Blume', 'Ring', 'Brille', 'Bürste', 'Socke', 'Kette', 'Fahrrad']","['hohl', 'niedlich', 'glänzend', 'kurz', 'schwer', 'elegant', 'dunkel', 'nachhaltig', 'glatt', 'gepunktet', 'rustikal', 'kaputt', 'krumm', 'sportlich', 'winzig', 'teuer', 'dick', 'schmutzig', 'biegsam', 'groß', 'nass', 'verspielt', 'durchsichtig', 'robust', 'strahlend', 'hübsch']",3,1.6461555999703705,None,,,,,,,,,,,,,,,,,,,,,,,,,,,,,,,,,,,,,,,,,,,,,,,,,,,,,,,,,,,,,,,,,3,2024-01-16_11h33.06.343,watkins1,2023.2.3,99.78605882654837,91,2024-01-16 11h33.12.220084 +0000,
,,,,,,,26,0,26,0,,,,,,,,,,,,,,,,,242.09161800006405,,,,,,,,,,242.08269120007753,242.57358259987086,,,1,1.3685996998101473,,,,,,,,,,,,,,,,,,,,,242.57359310006723,248.57539679994807,Bürste,lustig,"['Bürste', 'lustig']",test_adj,3,"['Geige', 'Rucksack', 'Uhr', 'Flasche', 'Eimer', 'Vase', 'Tasche', 'Hut', 'Jacke', 'Trommel', 'Kerze', 'Buch', 'Tasse', 'Löffel', 'Schlüssel', 'Stift', 'Kamera', 'Würfel', 'Lampe', 'Hammer', 'Telefon', 'Kiste', 'Schere', 'Blume', 'Ring', 'Brille', 'Bürste', 'Socke', 'Kette', 'Fahrrad']","['hohl', 'niedlich', 'glänzend', 'kurz', 'schwer', 'elegant', 'dunkel', 'nachhaltig', 'glatt', 'gepunktet', 'rustikal', 'kaputt', 'krumm', 'sportlich', 'winzig', 'teuer', 'dick', 'schmutzig', 'biegsam', 'groß', 'nass', 'verspielt', 'durchsichtig', 'robust', 'strahlend', 'hübsch', 'lustig']",1,1.3685996998101473,None,,,,,,,,,,,,,,,,,,,,,,,,,,,,,,,,,,,,,,,,,,,,,,,,,,,,,,,,,,,,,,,,,3,2024-01-16_11h33.06.343,watkins1,2023.2.3,99.78605882654837,91,2024-01-16 11h33.12.220084 +0000,
,,,,,,,27,0,27,0,,,,,,,,,,,,,,,,,248.5849171001464,,,,,,,,,,248.57592919981107,249.06703299982473,,,2,3.266976199578494,,,,,,,,,,,,,,,,,,,,,249.0670428997837,255.07324759988114,Socke,schlicht,"['Socke', 'schlicht']",test_adj,3,"['Geige', 'Rucksack', 'Uhr', 'Flasche', 'Eimer', 'Vase', 'Tasche', 'Hut', 'Jacke', 'Trommel', 'Kerze', 'Buch', 'Tasse', 'Löffel', 'Schlüssel', 'Stift', 'Kamera', 'Würfel', 'Lampe', 'Hammer', 'Telefon', 'Kiste', 'Schere', 'Blume', 'Ring', 'Brille', 'Bürste', 'Socke', 'Kette', 'Fahrrad']","['hohl', 'niedlich', 'glänzend', 'kurz', 'schwer', 'elegant', 'dunkel', 'nachhaltig', 'glatt', 'gepunktet', 'rustikal', 'kaputt', 'krumm', 'sportlich', 'winzig', 'teuer', 'dick', 'schmutzig', 'biegsam', 'groß', 'nass', 'verspielt', 'durchsichtig', 'robust', 'strahlend', 'hübsch', 'lustig', 'schlicht']",2,3.266976199578494,None,,,,,,,,,,,,,,,,,,,,,,,,,,,,,,,,,,,,,,,,,,,,,,,,,,,,,,,,,,,,,,,,,3,2024-01-16_11h33.06.343,watkins1,2023.2.3,99.78605882654837,91,2024-01-16 11h33.12.220084 +0000,
,,,,,,,28,0,28,0,,,,,,,,,,,,,,,,,255.0827294997871,,,,,,,,,,255.07377019990236,255.56470419978723,,,2,2.6095985998399556,,,,,,,,,,,,,,,,,,,,,255.564715300221,261.56844299985096,Kette,matt,"['Kette', 'matt']",restudy,3,"['Geige', 'Rucksack', 'Uhr', 'Flasche', 'Eimer', 'Vase', 'Tasche', 'Hut', 'Jacke', 'Trommel', 'Kerze', 'Buch', 'Tasse', 'Löffel', 'Schlüssel', 'Stift', 'Kamera', 'Würfel', 'Lampe', 'Hammer', 'Telefon', 'Kiste', 'Schere', 'Blume', 'Ring', 'Brille', 'Bürste', 'Socke', 'Kette', 'Fahrrad']","['hohl', 'niedlich', 'glänzend', 'kurz', 'schwer', 'elegant', 'dunkel', 'nachhaltig', 'glatt', 'gepunktet', 'rustikal', 'kaputt', 'krumm', 'sportlich', 'winzig', 'teuer', 'dick', 'schmutzig', 'biegsam', 'groß', 'nass', 'verspielt', 'durchsichtig', 'robust', 'strahlend', 'hübsch', 'lustig', 'schlicht', 'matt']",2,2.6095985998399556,None,,,,,,,,,,,,,,,,,,,,,,,,,,,,,,,,,,,,,,,,,,,,,,,,,,,,,,,,,,,,,,,,,3,2024-01-16_11h33.06.343,watkins1,2023.2.3,99.78605882654837,91,2024-01-16 11h33.12.220084 +0000,
,,,,,,,29,0,29,0,,,,,,,,,,,,,,,,,261.57796970009804,,,,,,,,,,261.56896940013394,262.05998399993405,,,2,1.9219430997036397,,,,,,,,,,,,,,,,,,,,,262.0599945001304,268.0704704998061,Fahrrad,klobig,"['Fahrrad', 'klobig']",restudy,3,"['Geige', 'Rucksack', 'Uhr', 'Flasche', 'Eimer', 'Vase', 'Tasche', 'Hut', 'Jacke', 'Trommel', 'Kerze', 'Buch', 'Tasse', 'Löffel', 'Schlüssel', 'Stift', 'Kamera', 'Würfel', 'Lampe', 'Hammer', 'Telefon', 'Kiste', 'Schere', 'Blume', 'Ring', 'Brille', 'Bürste', 'Socke', 'Kette', 'Fahrrad']","['hohl', 'niedlich', 'glänzend', 'kurz', 'schwer', 'elegant', 'dunkel', 'nachhaltig', 'glatt', 'gepunktet', 'rustikal', 'kaputt', 'krumm', 'sportlich', 'winzig', 'teuer', 'dick', 'schmutzig', 'biegsam', 'groß', 'nass', 'verspielt', 'durchsichtig', 'robust', 'strahlend', 'hübsch', 'lustig', 'schlicht', 'matt', 'klobig']",2,1.9219430997036397,None,,,,,,,,,,,,,,,,,,,,,,,,,,,,,,,,,,,,,,,,,,,,,,,,,,,,,,,,,,,,,,,,,3,2024-01-16_11h33.06.343,watkins1,2023.2.3,99.78605882654837,91,2024-01-16 11h33.12.220084 +0000,
,,,,,,,,,,,0,0,0,0,,,,,,,,,,,,,268.0799950999208,,,,,,,,,,268.07133150007576,268.5619275998324,,,[],[],,,,,,,,,,,sportlich,None,None,,,,,,,,,,Löffel,sportlich,"['Löffel', 'sportlich']",test_adj,3,,,,,,268.0712554999627,268.071304500103,"['Löffel', 'Kerze', 'Ring', 'Kiste', 'Schere', 'Socke', 'Fahrrad', 'Schlüssel', 'Lampe', 'Hammer', 'Kette', 'Geige', 'Stift', 'Buch', 'Eimer', 'Brille', 'Hut', 'Telefon', 'Trommel', 'Bürste', 'Uhr', 'Tasse', 'Vase', 'Flasche', 'Blume', 'Würfel', 'Rucksack', 'Kamera', 'Jacke', 'Tasche']",268.56193839991465,268.56470469990745,None,268.5648876000196,268.5675003998913,None,268.56765849981457,268.5701891002245,None,268.5703467000276,0,274.57575719989836,274.57577219977975,274.577152099926,,,,,,,,,,,,,,,,,,,,,,,,,,,,,,,,,,,,,,,,,,,,,,,,3,2024-01-16_11h33.06.343,watkins1,2023.2.3,99.78605882654837,91,2024-01-16 11h33.12.220084 +0000,
,,,,,,,,,,,1,0,1,0,,,,,,,,,,,,,274.58553989976645,,,,,,,,,,274.5774428001605,275.067695800215,,,[],[],,,,,,,,,,,,None,None,,,,,,,,,,Kerze,rustikal,"['Kerze', 'rustikal']",test_adj,3,,,,,,274.5773748001084,274.5774139999412,"['Löffel', 'Kerze', 'Ring', 'Kiste', 'Schere', 'Socke', 'Fahrrad', 'Schlüssel', 'Lampe', 'Hammer', 'Kette', 'Geige', 'Stift', 'Buch', 'Eimer', 'Brille', 'Hut', 'Telefon', 'Trommel', 'Bürste', 'Uhr', 'Tasse', 'Vase', 'Flasche', 'Blume', 'Würfel', 'Rucksack', 'Kamera', 'Jacke', 'Tasche']",275.067705700174,275.0705094002187,None,275.0706289000809,275.07321929978207,None,275.07332810014486,275.0759095000103,None,275.0760186999105,0,281.0808888999745,281.0809023999609,281.08221899997443,,,,,,,,,,,,,,,,,,,,,,,,,,,,,,,,,,,,,,,,,,,,,,,,3,2024-01-16_11h33.06.343,watkins1,2023.2.3,99.78605882654837,91,2024-01-16 11h33.12.220084 +0000,
,,,,,,,,,,,2,0,2,0,,,,,,,,,,,,,281.09066609991714,,,,,,,,,,281.0825009997934,281.5726931998506,,,[],[],,,,,,,,,,,,None,None,,,,,,,,,,Ring,strahlend,"['Ring', 'strahlend']",restudy,3,,,,,,281.0824350998737,281.08247310016304,"['Löffel', 'Kerze', 'Ring', 'Kiste', 'Schere', 'Socke', 'Fahrrad', 'Schlüssel', 'Lampe', 'Hammer', 'Kette', 'Geige', 'Stift', 'Buch', 'Eimer', 'Brille', 'Hut', 'Telefon', 'Trommel', 'Bürste', 'Uhr', 'Tasse', 'Vase', 'Flasche', 'Blume', 'Würfel', 'Rucksack', 'Kamera', 'Jacke', 'Tasche']",281.5727045000531,281.5753452000208,None,281.5754737998359,287.58104429999366,3,287.5814197999425,287.58408800000325,None,287.5841987999156,,287.5852398998104,287.5852518999018,287.5864877998829,4.8458966999314725,None,,,,,,,,,,,,,,,,,,,,,,,,,,,,,,,,,,,,,,,,,,,,,,3,2024-01-16_11h33.06.343,watkins1,2023.2.3,99.78605882654837,91,2024-01-16 11h33.12.220084 +0000,
,,,,,,,,,,,3,0,3,0,,,,,,,,,,,,,287.5905507002026,,,,,,,,,,287.5867694001645,288.08288249978796,,,[],[],,,,,,,,,,,verspielt,None,None,,,,,,,,,,Kiste,verspielt,"['Kiste', 'verspielt']",test_adj,3,,,,,,287.5867042001337,287.5867425999604,"['Löffel', 'Kerze', 'Ring', 'Kiste', 'Schere', 'Socke', 'Fahrrad', 'Schlüssel', 'Lampe', 'Hammer', 'Kette', 'Geige', 'Stift', 'Buch', 'Eimer', 'Brille', 'Hut', 'Telefon', 'Trommel', 'Bürste', 'Uhr', 'Tasse', 'Vase', 'Flasche', 'Blume', 'Würfel', 'Rucksack', 'Kamera', 'Jacke', 'Tasche']",288.0828955001198,288.08575010020286,None,288.0858797999099,288.0874967998825,None,288.08761110017076,288.08906230004504,None,288.089175300207,0,294.0928365001455,294.0928500997834,294.0942127001472,,,,,,,,,,,,,,,,,,,,,,,,,,,,,,,,,,,,,,,,,,,,,,,,3,2024-01-16_11h33.06.343,watkins1,2023.2.3,99.78605882654837,91,2024-01-16 11h33.12.220084 +0000,
,,,,,,,,,,,4,0,4,0,,,,,,,,,,,,,294.1026073000394,,,,,,,,,,294.09449629997835,294.58457500021905,,,[],[],,,,,,,,,,,durchsichtig,None,None,,,,,,,,,,Schere,durchsichtig,"['Schere', 'durchsichtig']",test_adj,3,,,,,,294.0944293998182,294.09446799987927,"['Löffel', 'Kerze', 'Ring', 'Kiste', 'Schere', 'Socke', 'Fahrrad', 'Schlüssel', 'Lampe', 'Hammer', 'Kette', 'Geige', 'Stift', 'Buch', 'Eimer', 'Brille', 'Hut', 'Telefon', 'Trommel', 'Bürste', 'Uhr', 'Tasse', 'Vase', 'Flasche', 'Blume', 'Würfel', 'Rucksack', 'Kamera', 'Jacke', 'Tasche']",294.58458600007,294.5874068001285,None,294.5875324001536,294.5901799998246,None,294.5902912002057,294.5929216002114,None,294.5930301002227,0,300.5984646999277,300.5984796001576,300.59995719976723,,,,,,,,,,,,,,,,,,,,,,,,,,,,,,,,,,,,,,,,,,,,,,,,3,2024-01-16_11h33.06.343,watkins1,2023.2.3,99.78605882654837,91,2024-01-16 11h33.12.220084 +0000,
,,,,,,,,,,,5,0,5,0,,,,,,,,,,,,,300.60826520016417,,,,,,,,,,300.60025400016457,301.0902562998235,,,[],[],,,,,,,,,,,schlicht,None,None,,,,,,,,,,Socke,schlicht,"['Socke', 'schlicht']",test_adj,3,,,,,,300.600182000082,300.60022309981287,"['Löffel', 'Kerze', 'Ring', 'Kiste', 'Schere', 'Socke', 'Fahrrad', 'Schlüssel', 'Lampe', 'Hammer', 'Kette', 'Geige', 'Stift', 'Buch', 'Eimer', 'Brille', 'Hut', 'Telefon', 'Trommel', 'Bürste', 'Uhr', 'Tasse', 'Vase', 'Flasche', 'Blume', 'Würfel', 'Rucksack', 'Kamera', 'Jacke', 'Tasche']",301.09026690013707,301.09310169983655,None,301.09322830010206,301.09593020007014,None,301.0960409999825,301.0987256998196,None,301.0988357998431,0,307.10426100017503,307.104275399819,307.10563710005954,,,,,,,,,,,,,,,,,,,,,,,,,,,,,,,,,,,,,,,,,,,,,,,,3,2024-01-16_11h33.06.343,watkins1,2023.2.3,99.78605882654837,91,2024-01-16 11h33.12.220084 +0000,
,,,,,,,,,,,6,0,6,0,,,,,,,,,,,,,307.1140940999612,,,,,,,,,,307.10592859983444,307.5960788000375,,,[],[],,,,,,,,,,,,None,None,,,,,,,,,,Fahrrad,klobig,"['Fahrrad', 'klobig']",restudy,3,,,,,,307.1058570998721,307.10589940007776,"['Löffel', 'Kerze', 'Ring', 'Kiste', 'Schere', 'Socke', 'Fahrrad', 'Schlüssel', 'Lampe', 'Hammer', 'Kette', 'Geige', 'Stift', 'Buch', 'Eimer', 'Brille', 'Hut', 'Telefon', 'Trommel', 'Bürste', 'Uhr', 'Tasse', 'Vase', 'Flasche', 'Blume', 'Würfel', 'Rucksack', 'Kamera', 'Jacke', 'Tasche']",307.59609030000865,307.5990073001012,None,307.59913320001215,313.6054000998847,1,313.6056951000355,313.6085334001109,None,313.6086476999335,,313.61017380002886,313.61018580012023,313.6113702999428,2.727655400056392,None,,,,,,,,,,,,,,,,,,,,,,,,,,,,,,,,,,,,,,,,,,,,,,3,2024-01-16_11h33.06.343,watkins1,2023.2.3,99.78605882654837,91,2024-01-16 11h33.12.220084 +0000,
,,,,,,,,,,,7,0,7,0,,,,,,,,,,,,,313.61492120008916,,,,,,,,,,313.61165460012853,314.1068925000727,,,[],[],,,,,,,,,,,winzig,None,None,,,,,,,,,,Schlüssel,winzig,"['Schlüssel', 'winzig']",test_adj,3,,,,,,313.6115888999775,313.61162729980424,"['Löffel', 'Kerze', 'Ring', 'Kiste', 'Schere', 'Socke', 'Fahrrad', 'Schlüssel', 'Lampe', 'Hammer', 'Kette', 'Geige', 'Stift', 'Buch', 'Eimer', 'Brille', 'Hut', 'Telefon', 'Trommel', 'Bürste', 'Uhr', 'Tasse', 'Vase', 'Flasche', 'Blume', 'Würfel', 'Rucksack', 'Kamera', 'Jacke', 'Tasche']",314.106903700158,314.10970159992576,None,314.1098286998458,314.1113526998088,None,314.1114656999707,314.1129871001467,None,314.1130953999236,0,320.1157224997878,320.1157363001257,320.1170645998791,,,,,,,,,,,,,,,,,,,,,,,,,,,,,,,,,,,,,,,,,,,,,,,,3,2024-01-16_11h33.06.343,watkins1,2023.2.3,99.78605882654837,91,2024-01-16 11h33.12.220084 +0000,
,,,,,,,,,,,8,0,8,0,,,,,,,,,,,,,320.12551779998466,,,,,,,,,,320.11736290017143,320.6075427001342,,,[],[],,,,,,,,,,,,None,None,,,,,,,,,,Lampe,biegsam,"['Lampe', 'biegsam']",restudy,3,,,,,,320.1172943999991,320.117334399838,"['Löffel', 'Kerze', 'Ring', 'Kiste', 'Schere', 'Socke', 'Fahrrad', 'Schlüssel', 'Lampe', 'Hammer', 'Kette', 'Geige', 'Stift', 'Buch', 'Eimer', 'Brille', 'Hut', 'Telefon', 'Trommel', 'Bürste', 'Uhr', 'Tasse', 'Vase', 'Flasche', 'Blume', 'Würfel', 'Rucksack', 'Kamera', 'Jacke', 'Tasche']",320.60755369998515,320.6102891000919,None,320.61041510012,326.6155272000469,3,326.61582290008664,326.6185739999637,None,326.61868860013783,,326.6201971000992,326.62020929995924,326.6214344999753,2.4441894004121423,None,,,,,,,,,,,,,,,,,,,,,,,,,,,,,,,,,,,,,,,,,,,,,,3,2024-01-16_11h33.06.343,watkins1,2023.2.3,99.78605882654837,91,2024-01-16 11h33.12.220084 +0000,
,,,,,,,,,,,9,0,9,0,,,,,,,,,,,,,326.62493420019746,,,,,,,,,,326.62171889981255,327.1172468001023,,,[],[],,,,,,,,,,,,None,None,,,,,,,,,,Hammer,groß,"['Hammer', 'groß']",restudy,3,,,,,,326.62165270000696,326.6216910001822,"['Löffel', 'Kerze', 'Ring', 'Kiste', 'Schere', 'Socke', 'Fahrrad', 'Schlüssel', 'Lampe', 'Hammer', 'Kette', 'Geige', 'Stift', 'Buch', 'Eimer', 'Brille', 'Hut', 'Telefon', 'Trommel', 'Bürste', 'Uhr', 'Tasse', 'Vase', 'Flasche', 'Blume', 'Würfel', 'Rucksack', 'Kamera', 'Jacke', 'Tasche']",327.11725769983605,327.1200101999566,None,327.120136000216,333.1218965998851,3,333.1221988000907,333.12475509988144,None,333.124864900019,,333.1260386998765,333.1260505001992,333.12708909995854,1.3740517999976873,None,,,,,,,,,,,,,,,,,,,,,,,,,,,,,,,,,,,,,,,,,,,,,,3,2024-01-16_11h33.06.343,watkins1,2023.2.3,99.78605882654837,91,2024-01-16 11h33.12.220084 +0000,
,,,,,,,,,,,10,0,10,0,,,,,,,,,,,,,333.131405999884,,,,,,,,,,333.1273749000393,333.62346349982545,,,[],[],,,,,,,,,,,,None,None,,,,,,,,,,Kette,matt,"['Kette', 'matt']",restudy,3,,,,,,333.1273031998426,333.12734049977735,"['Löffel', 'Kerze', 'Ring', 'Kiste', 'Schere', 'Socke', 'Fahrrad', 'Schlüssel', 'Lampe', 'Hammer', 'Kette', 'Geige', 'Stift', 'Buch', 'Eimer', 'Brille', 'Hut', 'Telefon', 'Trommel', 'Bürste', 'Uhr', 'Tasse', 'Vase', 'Flasche', 'Blume', 'Würfel', 'Rucksack', 'Kamera', 'Jacke', 'Tasche']",333.62347619980574,333.62605830002576,None,333.6261853999458,339.6320022,2,339.6323061999865,339.63550949981436,None,339.63562119985,,339.6368013001047,339.6368133998476,339.6378832999617,1.6040870998986065,None,,,,,,,,,,,,,,,,,,,,,,,,,,,,,,,,,,,,,,,,,,,,,,3,2024-01-16_11h33.06.343,watkins1,2023.2.3,99.78605882654837,91,2024-01-16 11h33.12.220084 +0000,
,,,,,,,,,,,11,0,11,0,,,,,,,,,,,,,339.6415236000903,,,,,,,,,,339.6381723000668,340.1336905998178,,,[],[],,,,,,,,,,,hohl,None,None,,,,,,,,,,Geige,hohl,"['Geige', 'hohl']",test_adj,3,,,,,,339.6381057999097,339.6381447999738,"['Löffel', 'Kerze', 'Ring', 'Kiste', 'Schere', 'Socke', 'Fahrrad', 'Schlüssel', 'Lampe', 'Hammer', 'Kette', 'Geige', 'Stift', 'Buch', 'Eimer', 'Brille', 'Hut', 'Telefon', 'Trommel', 'Bürste', 'Uhr', 'Tasse', 'Vase', 'Flasche', 'Blume', 'Würfel', 'Rucksack', 'Kamera', 'Jacke', 'Tasche']",340.1337016001344,340.1362374997698,None,340.1363611998968,340.13780040014535,None,340.1379129001871,340.13934940006584,None,340.13945979997516,0,346.14171590004116,346.1417298000306,346.1429158002138,,,,,,,,,,,,,,,,,,,,,,,,,,,,,,,,,,,,,,,,,,,,,,,,3,2024-01-16_11h33.06.343,watkins1,2023.2.3,99.78605882654837,91,2024-01-16 11h33.12.220084 +0000,
,,,,,,,,,,,12,0,12,0,,,,,,,,,,,,,346.15150950010866,,,,,,,,,,346.1432059002109,346.6335726999678,,,[],[],,,,,,,,,,,,None,None,,,,,,,,,,Stift,teuer,"['Stift', 'teuer']",restudy,3,,,,,,346.1431375001557,346.14317659987137,"['Löffel', 'Kerze', 'Ring', 'Kiste', 'Schere', 'Socke', 'Fahrrad', 'Schlüssel', 'Lampe', 'Hammer', 'Kette', 'Geige', 'Stift', 'Buch', 'Eimer', 'Brille', 'Hut', 'Telefon', 'Trommel', 'Bürste', 'Uhr', 'Tasse', 'Vase', 'Flasche', 'Blume', 'Würfel', 'Rucksack', 'Kamera', 'Jacke', 'Tasche']",346.6335836998187,346.63622359978035,None,346.6363482000306,352.6400935999118,3,352.64038879983127,352.64305870002136,None,352.64317080006003,,352.644803899806,352.64481619978324,352.64633679995313,1.4820102001540363,None,,,,,,,,,,,,,,,,,,,,,,,,,,,,,,,,,,,,,,,,,,,,,,3,2024-01-16_11h33.06.343,watkins1,2023.2.3,99.78605882654837,91,2024-01-16 11h33.12.220084 +0000,
,,,,,,,,,,,13,0,13,0,,,,,,,,,,,,,352.64959299983457,,,,,,,,,,352.6466291998513,353.14164120005444,,,[],[],,,,,,,,,,,,None,None,,,,,,,,,,Buch,kaputt,"['Buch', 'kaputt']",restudy,3,,,,,,352.6465615001507,352.6466018999927,"['Löffel', 'Kerze', 'Ring', 'Kiste', 'Schere', 'Socke', 'Fahrrad', 'Schlüssel', 'Lampe', 'Hammer', 'Kette', 'Geige', 'Stift', 'Buch', 'Eimer', 'Brille', 'Hut', 'Telefon', 'Trommel', 'Bürste', 'Uhr', 'Tasse', 'Vase', 'Flasche', 'Blume', 'Würfel', 'Rucksack', 'Kamera', 'Jacke', 'Tasche']",353.1416520997882,353.1442359997891,None,353.14435860002413,359.1460996000096,2,359.1463895998895,359.14894430013373,None,359.1490580998361,,359.1501123998314,359.15012460015714,359.15140959993005,1.605939299799502,None,,,,,,,,,,,,,,,,,,,,,,,,,,,,,,,,,,,,,,,,,,,,,,3,2024-01-16_11h33.06.343,watkins1,2023.2.3,99.78605882654837,91,2024-01-16 11h33.12.220084 +0000,
,,,,,,,,,,,14,0,14,0,,,,,,,,,,,,,359.15561079978943,,,,,,,,,,359.15169139998034,359.647598200012,,,[],[],,,,,,,,,,,schwer,None,None,,,,,,,,,,Eimer,schwer,"['Eimer', 'schwer']",test_adj,3,,,,,,359.1516257999465,359.1516641001217,"['Löffel', 'Kerze', 'Ring', 'Kiste', 'Schere', 'Socke', 'Fahrrad', 'Schlüssel', 'Lampe', 'Hammer', 'Kette', 'Geige', 'Stift', 'Buch', 'Eimer', 'Brille', 'Hut', 'Telefon', 'Trommel', 'Bürste', 'Uhr', 'Tasse', 'Vase', 'Flasche', 'Blume', 'Würfel', 'Rucksack', 'Kamera', 'Jacke', 'Tasche']",359.6476098001003,359.6503554000519,None,359.65048190020025,359.65192710002884,None,359.6520385001786,359.6534791998565,None,359.6535889999941,0,365.65689199976623,365.6569059002213,365.65832359995693,,,,,,,,,,,,,,,,,,,,,,,,,,,,,,,,,,,,,,,,,,,,,,,,3,2024-01-16_11h33.06.343,watkins1,2023.2.3,99.78605882654837,91,2024-01-16 11h33.12.220084 +0000,
,,,,,,,,,,,15,0,15,0,,,,,,,,,,,,,365.66674390016124,,,,,,,,,,365.6586144999601,366.1485856999643,,,[],[],,,,,,,,,,,hübsch,None,None,,,,,,,,,,Brille,hübsch,"['Brille', 'hübsch']",test_adj,3,,,,,,365.6585463001393,365.6585861002095,"['Löffel', 'Kerze', 'Ring', 'Kiste', 'Schere', 'Socke', 'Fahrrad', 'Schlüssel', 'Lampe', 'Hammer', 'Kette', 'Geige', 'Stift', 'Buch', 'Eimer', 'Brille', 'Hut', 'Telefon', 'Trommel', 'Bürste', 'Uhr', 'Tasse', 'Vase', 'Flasche', 'Blume', 'Würfel', 'Rucksack', 'Kamera', 'Jacke', 'Tasche']",366.1485969000496,366.15132679976523,None,366.15145249990746,366.1540279001929,None,366.1541400998831,366.1567095001228,None,366.1568180997856,0,372.16161479987204,372.16162869986147,372.16294550010934,,,,,,,,,,,,,,,,,,,,,,,,,,,,,,,,,,,,,,,,,,,,,,,,3,2024-01-16_11h33.06.343,watkins1,2023.2.3,99.78605882654837,91,2024-01-16 11h33.12.220084 +0000,
,,,,,,,,,,,16,0,16,0,,,,,,,,,,,,,372.17146300012246,,,,,,,,,,372.16323699988425,372.6534710000269,,,[],[],,,,,,,,,,,,None,None,,,,,,,,,,Hut,nachhaltig,"['Hut', 'nachhaltig']",test_adj,3,,,,,,372.1631669001654,372.16320799989626,"['Löffel', 'Kerze', 'Ring', 'Kiste', 'Schere', 'Socke', 'Fahrrad', 'Schlüssel', 'Lampe', 'Hammer', 'Kette', 'Geige', 'Stift', 'Buch', 'Eimer', 'Brille', 'Hut', 'Telefon', 'Trommel', 'Bürste', 'Uhr', 'Tasse', 'Vase', 'Flasche', 'Blume', 'Würfel', 'Rucksack', 'Kamera', 'Jacke', 'Tasche']",372.65348180010915,372.6560483998619,None,372.65617460012436,372.6585853998549,None,372.6586945001036,372.6610937002115,None,372.66120239999145,0,378.6653343997896,378.66534869978204,378.6667597000487,,,,,,,,,,,,,,,,,,,,,,,,,,,,,,,,,,,,,,,,,,,,,,,,3,2024-01-16_11h33.06.343,watkins1,2023.2.3,99.78605882654837,91,2024-01-16 11h33.12.220084 +0000,
,,,,,,,,,,,17,0,17,0,,,,,,,,,,,,,378.67519399989396,,,,,,,,,,378.6670547001995,379.157195399981,,,[],[],,,,,,,,,,,,None,None,,,,,,,,,,Telefon,nass,"['Telefon', 'nass']",restudy,3,,,,,,378.66698420001194,378.6670258999802,"['Löffel', 'Kerze', 'Ring', 'Kiste', 'Schere', 'Socke', 'Fahrrad', 'Schlüssel', 'Lampe', 'Hammer', 'Kette', 'Geige', 'Stift', 'Buch', 'Eimer', 'Brille', 'Hut', 'Telefon', 'Trommel', 'Bürste', 'Uhr', 'Tasse', 'Vase', 'Flasche', 'Blume', 'Würfel', 'Rucksack', 'Kamera', 'Jacke', 'Tasche']",379.1572059998289,379.16001980006695,None,379.16014809999615,385.16781960008666,2,385.1681114998646,385.1706595001742,None,385.1707673999481,,385.1719423001632,385.1719538997859,385.1729613998905,1.4381392002105713,None,,,,,,,,,,,,,,,,,,,,,,,,,,,,,,,,,,,,,,,,,,,,,,3,2024-01-16_11h33.06.343,watkins1,2023.2.3,99.78605882654837,91,2024-01-16 11h33.12.220084 +0000,
,,,,,,,,,,,18,0,18,0,,,,,,,,,,,,,385.177370400168,,,,,,,,,,385.17324250005186,385.6695507997647,,,[],[],,,,,,,,,,,,None,None,,,,,,,,,,Trommel,gepunktet,"['Trommel', 'gepunktet']",restudy,3,,,,,,385.1731782001443,385.17321590008214,"['Löffel', 'Kerze', 'Ring', 'Kiste', 'Schere', 'Socke', 'Fahrrad', 'Schlüssel', 'Lampe', 'Hammer', 'Kette', 'Geige', 'Stift', 'Buch', 'Eimer', 'Brille', 'Hut', 'Telefon', 'Trommel', 'Bürste', 'Uhr', 'Tasse', 'Vase', 'Flasche', 'Blume', 'Würfel', 'Rucksack', 'Kamera', 'Jacke', 'Tasche']",385.66956220008433,385.67214970011264,None,385.6722748000175,391.67411080002785,2,391.67440660018474,391.67717749997973,None,391.6772909001447,,391.6785011999309,391.6785132000223,391.67975080013275,1.6856920002028346,None,,,,,,,,,,,,,,,,,,,,,,,,,,,,,,,,,,,,,,,,,,,,,,3,2024-01-16_11h33.06.343,watkins1,2023.2.3,99.78605882654837,91,2024-01-16 11h33.12.220084 +0000,
,,,,,,,,,,,19,0,19,0,,,,,,,,,,,,,391.6836037999019,,,,,,,,,,391.68003620021045,392.17569370009005,,,[],[],,,,,,,,,,,witzig,None,None,,,,,,,,,,Bürste,lustig,"['Bürste', 'lustig']",test_adj,3,,,,,,391.6799701000564,391.68000839976594,"['Löffel', 'Kerze', 'Ring', 'Kiste', 'Schere', 'Socke', 'Fahrrad', 'Schlüssel', 'Lampe', 'Hammer', 'Kette', 'Geige', 'Stift', 'Buch', 'Eimer', 'Brille', 'Hut', 'Telefon', 'Trommel', 'Bürste', 'Uhr', 'Tasse', 'Vase', 'Flasche', 'Blume', 'Würfel', 'Rucksack', 'Kamera', 'Jacke', 'Tasche']",392.1757045001723,392.17862269980833,None,392.1787487999536,392.18020620010793,None,392.1803207998164,392.1817598999478,None,392.18186789983884,0,398.18448110017926,398.18449530005455,398.18581969989464,,,,,,,,,,,,,,,,,,,,,,,,,,,,,,,,,,,,,,,,,,,,,,,,3,2024-01-16_11h33.06.343,watkins1,2023.2.3,99.78605882654837,91,2024-01-16 11h33.12.220084 +0000,
,,,,,,,,,,,20,0,20,0,,,,,,,,,,,,,398.1942953001708,,,,,,,,,,398.18611150002107,398.67637360002846,,,[],[],,,,,,,,,,,,None,None,,,,,,,,,,Uhr,glänzend,"['Uhr', 'glänzend']",restudy,3,,,,,,398.18604330020025,398.1860822997987,"['Löffel', 'Kerze', 'Ring', 'Kiste', 'Schere', 'Socke', 'Fahrrad', 'Schlüssel', 'Lampe', 'Hammer', 'Kette', 'Geige', 'Stift', 'Buch', 'Eimer', 'Brille', 'Hut', 'Telefon', 'Trommel', 'Bürste', 'Uhr', 'Tasse', 'Vase', 'Flasche', 'Blume', 'Würfel', 'Rucksack', 'Kamera', 'Jacke', 'Tasche']",398.67638569977134,398.67899530008435,None,398.6791218998842,404.68134059989825,3,404.68165649985895,404.68423580005765,None,404.68435350013897,,404.6856776000932,404.6856893999502,404.6868988000788,1.2788789002224803,None,,,,,,,,,,,,,,,,,,,,,,,,,,,,,,,,,,,,,,,,,,,,,,3,2024-01-16_11h33.06.343,watkins1,2023.2.3,99.78605882654837,91,2024-01-16 11h33.12.220084 +0000,
,,,,,,,,,,,21,0,21,0,,,,,,,,,,,,,404.6908451002091,,,,,,,,,,404.68718109978363,405.1829869998619,,,[],[],,,,,,,,,,,,None,None,,,,,,,,,,Tasse,krumm,"['Tasse', 'krumm']",restudy,3,,,,,,404.68711569998413,404.687153799925,"['Löffel', 'Kerze', 'Ring', 'Kiste', 'Schere', 'Socke', 'Fahrrad', 'Schlüssel', 'Lampe', 'Hammer', 'Kette', 'Geige', 'Stift', 'Buch', 'Eimer', 'Brille', 'Hut', 'Telefon', 'Trommel', 'Bürste', 'Uhr', 'Tasse', 'Vase', 'Flasche', 'Blume', 'Würfel', 'Rucksack', 'Kamera', 'Jacke', 'Tasche']",405.18299769982696,405.1859547998756,None,405.1860837000422,411.1918105999939,2,411.19210520014167,411.1946976999752,None,411.1948084998876,,411.195985800121,411.195997599978,411.19713099999353,1.1640757001005113,None,,,,,,,,,,,,,,,,,,,,,,,,,,,,,,,,,,,,,,,,,,,,,,3,2024-01-16_11h33.06.343,watkins1,2023.2.3,99.78605882654837,91,2024-01-16 11h33.12.220084 +0000,
,,,,,,,,,,,22,0,22,0,,,,,,,,,,,,,411.2012780997902,,,,,,,,,,411.1974101997912,411.69341540010646,,,[],[],,,,,,,,,,,elegant,None,None,,,,,,,,,,Vase,elegant,"['Vase', 'elegant']",test_adj,3,,,,,,411.19734539976344,411.1973831001669,"['Löffel', 'Kerze', 'Ring', 'Kiste', 'Schere', 'Socke', 'Fahrrad', 'Schlüssel', 'Lampe', 'Hammer', 'Kette', 'Geige', 'Stift', 'Buch', 'Eimer', 'Brille', 'Hut', 'Telefon', 'Trommel', 'Bürste', 'Uhr', 'Tasse', 'Vase', 'Flasche', 'Blume', 'Würfel', 'Rucksack', 'Kamera', 'Jacke', 'Tasche']",411.6934262998402,411.6961348000914,None,411.696260899771,411.69758890010417,None,411.6977014997974,411.6990225999616,None,411.699133799877,0,417.7009859001264,417.7010001000017,417.7023471998982,,,,,,,,,,,,,,,,,,,,,,,,,,,,,,,,,,,,,,,,,,,,,,,,3,2024-01-16_11h33.06.343,watkins1,2023.2.3,99.78605882654837,91,2024-01-16 11h33.12.220084 +0000,
,,,,,,,,,,,23,0,23,0,,,,,,,,,,,,,417.71076369984075,,,,,,,,,,417.70264409994707,418.192922399845,,,[],[],,,,,,,,,,,,None,None,,,,,,,,,,Flasche,kurz,"['Flasche', 'kurz']",restudy,3,,,,,,417.7025755997747,417.7026150999591,"['Löffel', 'Kerze', 'Ring', 'Kiste', 'Schere', 'Socke', 'Fahrrad', 'Schlüssel', 'Lampe', 'Hammer', 'Kette', 'Geige', 'Stift', 'Buch', 'Eimer', 'Brille', 'Hut', 'Telefon', 'Trommel', 'Bürste', 'Uhr', 'Tasse', 'Vase', 'Flasche', 'Blume', 'Würfel', 'Rucksack', 'Kamera', 'Jacke', 'Tasche']",418.1929334998131,418.19569029984996,None,418.1958161997609,424.20246609998867,1,424.20276190014556,424.2053375001997,None,424.20544969988987,,424.20694239996374,424.2069544000551,424.20799579983577,1.2740807998925447,None,,,,,,,,,,,,,,,,,,,,,,,,,,,,,,,,,,,,,,,,,,,,,,3,2024-01-16_11h33.06.343,watkins1,2023.2.3,99.78605882654837,91,2024-01-16 11h33.12.220084 +0000,
,,,,,,,,,,,24,0,24,0,,,,,,,,,,,,,424.21193289989606,,,,,,,,,,424.2082789000124,424.7039985000156,,,[],[],,,,,,,,,,,rustikal,None,None,,,,,,,,,,Blume,robust,"['Blume', 'robust']",test_adj,3,,,,,,424.2082128999755,424.20825169980526,"['Löffel', 'Kerze', 'Ring', 'Kiste', 'Schere', 'Socke', 'Fahrrad', 'Schlüssel', 'Lampe', 'Hammer', 'Kette', 'Geige', 'Stift', 'Buch', 'Eimer', 'Brille', 'Hut', 'Telefon', 'Trommel', 'Bürste', 'Uhr', 'Tasse', 'Vase', 'Flasche', 'Blume', 'Würfel', 'Rucksack', 'Kamera', 'Jacke', 'Tasche']",424.70400970010087,424.7067098999396,None,424.70683690020815,424.7082644999027,None,424.70837409980595,424.70984270004556,None,424.7099512000568,0,430.71207740018144,430.7120917001739,430.71339859999716,,,,,,,,,,,,,,,,,,,,,,,,,,,,,,,,,,,,,,,,,,,,,,,,3,2024-01-16_11h33.06.343,watkins1,2023.2.3,99.78605882654837,91,2024-01-16 11h33.12.220084 +0000,
,,,,,,,,,,,25,0,25,0,,,,,,,,,,,,,430.72193090012297,,,,,,,,,,430.7136904001236,431.20403299992904,,,[],[],,,,,,,,,,,,None,None,,,,,,,,,,Würfel,schmutzig,"['Würfel', 'schmutzig']",restudy,3,,,,,,430.7136193001643,430.71366069978103,"['Löffel', 'Kerze', 'Ring', 'Kiste', 'Schere', 'Socke', 'Fahrrad', 'Schlüssel', 'Lampe', 'Hammer', 'Kette', 'Geige', 'Stift', 'Buch', 'Eimer', 'Brille', 'Hut', 'Telefon', 'Trommel', 'Bürste', 'Uhr', 'Tasse', 'Vase', 'Flasche', 'Blume', 'Würfel', 'Rucksack', 'Kamera', 'Jacke', 'Tasche']",431.2040438000113,431.2067507999018,None,431.2068753000349,437.2085657999851,2,437.20885720010847,437.2116219000891,None,437.21173480013385,,437.2132158000022,437.21322740009055,437.21447019977495,1.4552259999327362,None,,,,,,,,,,,,,,,,,,,,,,,,,,,,,,,,,,,,,,,,,,,,,,3,2024-01-16_11h33.06.343,watkins1,2023.2.3,99.78605882654837,91,2024-01-16 11h33.12.220084 +0000,
,,,,,,,,,,,26,0,26,0,,,,,,,,,,,,,437.21794740017503,,,,,,,,,,437.2147531998344,437.710010800045,,,[],[],,,,,,,,,,,,None,None,,,,,,,,,,Rucksack,niedlich,"['Rucksack', 'niedlich']",restudy,3,,,,,,437.214687500149,437.2147262999788,"['Löffel', 'Kerze', 'Ring', 'Kiste', 'Schere', 'Socke', 'Fahrrad', 'Schlüssel', 'Lampe', 'Hammer', 'Kette', 'Geige', 'Stift', 'Buch', 'Eimer', 'Brille', 'Hut', 'Telefon', 'Trommel', 'Bürste', 'Uhr', 'Tasse', 'Vase', 'Flasche', 'Blume', 'Würfel', 'Rucksack', 'Kamera', 'Jacke', 'Tasche']",437.7100224997848,437.712838599924,None,437.7129647000693,443.71961250016466,2,443.71990989986807,443.72280910005793,None,443.7229228001088,,443.7241209000349,443.7241329001263,443.72532750014216,2.005218400154263,None,,,,,,,,,,,,,,,,,,,,,,,,,,,,,,,,,,,,,,,,,,,,,,3,2024-01-16_11h33.06.343,watkins1,2023.2.3,99.78605882654837,91,2024-01-16 11h33.12.220084 +0000,
,,,,,,,,,,,27,0,27,0,,,,,,,,,,,,,443.7290878999047,,,,,,,,,,443.7256058999337,444.2211581999436,,,[],[],,,,,,,,,,,,None,None,,,,,,,,,,Kamera,dick,"['Kamera', 'dick']",restudy,3,,,,,,443.7255402998999,443.72557839984074,"['Löffel', 'Kerze', 'Ring', 'Kiste', 'Schere', 'Socke', 'Fahrrad', 'Schlüssel', 'Lampe', 'Hammer', 'Kette', 'Geige', 'Stift', 'Buch', 'Eimer', 'Brille', 'Hut', 'Telefon', 'Trommel', 'Bürste', 'Uhr', 'Tasse', 'Vase', 'Flasche', 'Blume', 'Würfel', 'Rucksack', 'Kamera', 'Jacke', 'Tasche']",444.22116969991475,444.2239128998481,None,444.22403830010444,450.2249974999577,2,450.2252930998802,450.2279941998422,None,450.2281105997972,,450.22931500012055,450.22932709986344,450.2303840997629,1.1263371002860367,None,,,,,,,,,,,,,,,,,,,,,,,,,,,,,,,,,,,,,,,,,,,,,,3,2024-01-16_11h33.06.343,watkins1,2023.2.3,99.78605882654837,91,2024-01-16 11h33.12.220084 +0000,
,,,,,,,,,,,28,0,28,0,,,,,,,,,,,,,450.2343795001507,,,,,,,,,,450.23067330010235,450.7271068999544,,,[],[],,,,,,,,,,,glatt,None,None,,,,,,,,,,Jacke,glatt,"['Jacke', 'glatt']",test_adj,3,,,,,,450.2306062001735,450.2306456998922,"['Löffel', 'Kerze', 'Ring', 'Kiste', 'Schere', 'Socke', 'Fahrrad', 'Schlüssel', 'Lampe', 'Hammer', 'Kette', 'Geige', 'Stift', 'Buch', 'Eimer', 'Brille', 'Hut', 'Telefon', 'Trommel', 'Bürste', 'Uhr', 'Tasse', 'Vase', 'Flasche', 'Blume', 'Würfel', 'Rucksack', 'Kamera', 'Jacke', 'Tasche']",450.72711829980835,450.72972139995545,None,450.7298523001373,450.73131470009685,None,450.7314255000092,450.73287039995193,None,450.7329795002006,0,456.7353655998595,456.7353790998459,456.73673080001026,,,,,,,,,,,,,,,,,,,,,,,,,,,,,,,,,,,,,,,,,,,,,,,,3,2024-01-16_11h33.06.343,watkins1,2023.2.3,99.78605882654837,91,2024-01-16 11h33.12.220084 +0000,
,,,,,,,,,,,29,0,29,0,,,,,,,,,,,,,456.745145900175,,,,,,,,,,456.73701329994947,457.22725080000237,,,[],[],,,,,,,,,,,,None,None,,,,,,,,,,Tasche,dunkel,"['Tasche', 'dunkel']",test_adj,3,,,,,,456.7369463997893,456.7369849001989,"['Löffel', 'Kerze', 'Ring', 'Kiste', 'Schere', 'Socke', 'Fahrrad', 'Schlüssel', 'Lampe', 'Hammer', 'Kette', 'Geige', 'Stift', 'Buch', 'Eimer', 'Brille', 'Hut', 'Telefon', 'Trommel', 'Bürste', 'Uhr', 'Tasse', 'Vase', 'Flasche', 'Blume', 'Würfel', 'Rucksack', 'Kamera', 'Jacke', 'Tasche']",457.2272617998533,457.2299997000955,None,457.2301274999045,457.2327054999769,None,457.2328210999258,457.23537919996306,None,457.2354887998663,0,463.24026479991153,463.24027930013835,463.2417628997937,,,,,,,,,,,,,,,,,,,,,,,,,,,,,,,,,,,,,,,,,,,,,,,,3,2024-01-16_11h33.06.343,watkins1,2023.2.3,99.78605882654837,91,2024-01-16 11h33.12.220084 +0000,
,,,,,,,,,,,,,,,,,,,,,,,,,,,,,,,,,,,,,,,,,,,,,,,,,,,,,,,,,,,,,,,,,,,,,3,,,,,,,,,,,,,,,,,,,,,,,,,,,,,,,,,,,,,,,,,,,,,,,,,,,,,,,,,,,,,,,,,,,,,,3,2024-01-16_11h33.06.343,watkins1,2023.2.3,99.78605882654837,91,2024-01-16 11h33.12.220084 +0000,
(4 : 2) + 4 = 6 ,Correct,button_correct,,,,,,,,,,,,,0,0,0,1,,,,,,,,,491.99874499998987,,,,,,,,490.96802539983764,491.97171089984477,,,,,['button_correct'],[5.033725600223988],,,,,,,,,,,,,,,,,,,,,,,,,,distractorTask,3,,,,,,,,,,,,,,,,,,,,,,,,,491.98819389985874,491.99874499998987,497.02618120005354,[0.3490740740740741],[-0.4],[1],[0],[0],[5.033725600223988],['button_correct'],497.0268497997895,498.03004010021687,,,,,,,,,,,,,,,,,,,,,,,,,,,,,,,,,,3,2024-01-16_11h33.06.343,watkins1,2023.2.3,99.78605882654837,91,2024-01-16 11h33.12.220084 +0000,
(80 : 10) + 9 = 17 ,Correct,button_correct,,,,,,,,,,,,,0,1,1,3,,,,,,,,,498.04001840017736,,,,,,,,,,,,,,['button_correct'],"[3.982666699681431, 4.685536799952388]",,,,,,,,,,,,,,,,,,,,,,,,,,distractorTask,3,,,,,,,,,,,,,,,,,,,,,,,,,498.0302319000475,498.04001840017736,502.71974929980934,"[0.29259259259259257, 0.3037037037037037]","[-0.37222222222222223, -0.38796296296296295]","[1, 1]","[0, 0]","[0, 0]","[3.982666699681431, 4.685536799952388]",['button_correct'],502.7201601001434,503.72339789988473,,,,,,,,,,,,,,,,,,,,,,,,,,,,,,,,,,3,2024-01-16_11h33.06.343,watkins1,2023.2.3,99.78605882654837,91,2024-01-16 11h33.12.220084 +0000,
(40 : 5) + 8 = 15 ,Incorrect,button_incorrect,,,,,,,,,,,,,0,2,2,7,,,,,,,,,503.73347890004516,,,,,,,,,,,,,,['button_incorrect'],[8.36373159987852],,,,,,,,,,,,,,,,,,,,,,,,,,distractorTask,3,,,,,,,,,,,,,,,,,,,,,,,,,503.72360539995134,503.73347890004516,512.0896633998491,[-0.32314814814814813],[-0.39537037037037037],[1],[0],[0],[8.36373159987852],['button_incorrect'],512.0900460002013,513.0931726000272,,,,,,,,,,,,,,,,,,,,,,,,,,,,,,,,,,3,2024-01-16_11h33.06.343,watkins1,2023.2.3,99.78605882654837,91,2024-01-16 11h33.12.220084 +0000,
(54 : 6) - 10 = 0 ,Incorrect,button_incorrect,,,,,,,,,,,,,0,3,3,5,,,,,,,,,513.1032512998208,,,,,,,,,,,,,,['button_incorrect'],[7.037645599804819],,,,,,,,,,,,,,,,,,,,,,,,,,distractorTask,3,,,,,,,,,,,,,,,,,,,,,,,,,513.0933651002124,513.1032512998208,520.1332955001853,[-0.29074074074074074],[-0.39166666666666666],[1],[0],[0],[7.037645599804819],['button_incorrect'],520.1336727999151,521.1370200999081,,,,,,,,,,,,,,,,,,,,,,,,,,,,,,,,,,3,2024-01-16_11h33.06.343,watkins1,2023.2.3,99.78605882654837,91,2024-01-16 11h33.12.220084 +0000,
(28 : 7) - 3 = 1 ,Correct,button_correct,,,,,,,,,,,,,0,4,4,0,,,,,,,,,521.14696810022,,,,,,,,,,,,,,['button_incorrect'],[3.943695300258696],,,,,,,,,,,,,,,,,,,,,,,,,,distractorTask,3,,,,,,,,,,,,,,,,,,,,,,,,,521.1372103998438,521.14696810022,525.0834372998215,[-0.28888888888888886],[-0.38981481481481484],[1],[0],[0],[3.943695300258696],['button_incorrect'],525.0838178000413,526.0873647001572,,,,,,,,,,,,,,,,,,,,,,,,,,,,,,,,,,3,2024-01-16_11h33.06.343,watkins1,2023.2.3,99.78605882654837,91,2024-01-16 11h33.12.220084 +0000,
(9 x 5) - 9 = 36 ,Correct,button_correct,,,,,,,,,,,,,0,5,5,4,,,,,,,,,526.0973422997631,,,,,,,,,,,,,,['button_correct'],[5.711311900056899],,,,,,,,,,,,,,,,,,,,,,,,,,distractorTask,3,,,,,,,,,,,,,,,,,,,,,,,,,526.0875548999757,526.0973422997631,531.8016901998781,[0.2898148148148148],[-0.42314814814814816],[1],[0],[0],[5.711311900056899],['button_correct'],531.8020770000294,532.8053302997723,,,,,,,,,,,,,,,,,,,,,,,,,,,,,,,,,,3,2024-01-16_11h33.06.343,watkins1,2023.2.3,99.78605882654837,91,2024-01-16 11h33.12.220084 +0000,
(2 x 5) + 3 = 13 ,Correct,button_correct,,,,,,,,,,,,,0,6,6,2,,,,,,,,,532.8154242001474,,,,,,,,,,,,,,['button_incorrect'],[3.452952300198376],,,,,,,,,,,,,,,,,,,,,,,,,,distractorTask,3,,,,,,,,,,,,,,,,,,,,,,,,,532.8055191999301,532.8154242001474,536.2601859001443,[-0.31203703703703706],[-0.37777777777777777],[1],[0],[0],[3.452952300198376],['button_incorrect'],536.2605689000338,537.2637740001082,,,,,,,,,,,,,,,,,,,,,,,,,,,,,,,,,,3,2024-01-16_11h33.06.343,watkins1,2023.2.3,99.78605882654837,91,2024-01-16 11h33.12.220084 +0000,
(6 x 3) + 10 = 27 ,Incorrect,button_incorrect,,,,,,,,,,,,,0,7,7,8,,,,,,,,,537.2738601001911,,,,,,,,,,,,,,['button_incorrect'],"[8.875285299960524, 9.377825000323355]",,,,,,,,,,,,,,,,,,,,,,,,,,distractorTask,3,,,,,,,,,,,,,,,,,,,,,,,,,537.2639644998126,537.2738601001911,546.6435201000422,"[-0.275, -0.2898148148148148]","[-0.38333333333333336, -0.3851851851851852]","[1, 1]","[0, 0]","[0, 0]","[8.875285299960524, 9.377825000323355]",['button_incorrect'],546.643924199976,547.646655799821,,,,,,,,,,,,,,,,,,,,,,,,,,,,,,,,,,3,2024-01-16_11h33.06.343,watkins1,2023.2.3,99.78605882654837,91,2024-01-16 11h33.12.220084 +0000,
(7 x 6) + 9 = 48 ,Incorrect,button_incorrect,,,,,,,,,,,,,0,8,8,9,,,,,,,,,547.6567362998612,,,,,,,,,,,,,,['button_incorrect'],[6.1639860002323985],,,,,,,,,,,,,,,,,,,,,,,,,,distractorTask,3,,,,,,,,,,,,,,,,,,,,,,,,,547.6468476997688,547.6567362998612,553.8126929998398,[-0.2851851851851852],[-0.3787037037037037],[1],[0],[0],[6.1639860002323985],['button_incorrect'],553.8130777999759,554.8162910998799,,,,,,,,,,,,,,,,,,,,,,,,,,,,,,,,,,3,2024-01-16_11h33.06.343,watkins1,2023.2.3,99.78605882654837,91,2024-01-16 11h33.12.220084 +0000,
(25 : 5) + 5 = 9 ,Incorrect,button_incorrect,,,,,,,,,,,,,0,9,9,6,,,,,,,,,554.8262721002102,,,,,,,,,,,,,,['button_incorrect'],[3.031025200150907],,,,,,,,,,,,,,,,,,,,,,,,,,distractorTask,3,,,,,,,,,,,,,,,,,,,,,,,,,554.8164821001701,554.8262721002102,557.8492581997998,[-0.287962962962963],[-0.38055555555555554],[1],[0],[0],[3.031025200150907],['button_incorrect'],557.8496392997913,558.8529504002072,,,,,,,,,,,,,,,,,,,,,,,,,,,,,,,,,,3,2024-01-16_11h33.06.343,watkins1,2023.2.3,99.78605882654837,91,2024-01-16 11h33.12.220084 +0000,
,,,,,,,,,,,,,,,,,,,,,,,,,,,,,,,,,,,,,,,,,,,,,,,,,,,,,,,,,,,,,,,,,,,,,3,,,,,,,,,,,,,,,,,,,,,,,,,,,,,,,,,,,,,,,,,,,,,,,,,,,,,,,,,,,,,,,,,,,,,,3,2024-01-16_11h33.06.343,watkins1,2023.2.3,99.78605882654837,91,2024-01-16 11h33.12.220084 +0000,
,,,,,,,,,,,,,,,,,,,0,0,0,0,,,,,568.591348099988,,,,,,,,,,,,,,rucksack,9.39522820012644,,,,,,,,,,,,7.781831099651754,None,,,,,,,,,,,,,freeRecallSub,3,,,,,,,,,,,,,,,,,,,,,,,,,,,,,,,,,,,,,568.5826081000268,568.591348099988,568.591348099988,577.9906362998299,return,9.39522820012644,None,rucksack,[],[],[],[],[],[],[],,,,,,,,,,,,,,,,,,,3,2024-01-16_11h33.06.343,watkins1,2023.2.3,99.78605882654837,91,2024-01-16 11h33.12.220084 +0000,
,,,,,,,,,,,,,,,,,,,1,0,1,0,,,,,578.0030804998241,,,,,,,,,,,,,,schere,3.607471799943596,,,,,,,,,,,,2.282165199983865,None,,,,,,,,,,,,,freeRecallSub,3,,,,,,,,,,,,,,,,,,,,,,,,,,,,,,,,,,,,,577.9923880998977,578.0030804998241,578.0030804998241,581.6200085999444,return,3.607471799943596,None,schere,[],[],[],[],[],[],[],,,,,,,,,,,,,,,,,,,3,2024-01-16_11h33.06.343,watkins1,2023.2.3,99.78605882654837,91,2024-01-16 11h33.12.220084 +0000,
,,,,,,,,,,,,,,,,,,,2,0,2,0,,,,,581.6306802001782,,,,,,,,,,,,,,vase,4.179842800367624,,,,,,,,,,,,3.192756500095129,None,,,,,,,,,,,,,freeRecallSub,3,,,,,,,,,,,,,,,,,,,,,,,,,,,,,,,,,,,,,581.6212642998435,581.6306802001782,581.6306802001782,585.8180610002019,return,4.179842800367624,None,vase,[],[],[],[],[],[],[],,,,,,,,,,,,,,,,,,,3,2024-01-16_11h33.06.343,watkins1,2023.2.3,99.78605882654837,91,2024-01-16 11h33.12.220084 +0000,
,,,,,,,,,,,,,,,,,,,3,0,3,0,,,,,585.8286898001097,,,,,,,,,,,,,,jacke,15.693815300241113,,,,,,,,,,,,14.088718099985272,None,,,,,,,,,,,,,freeRecallSub,3,,,,,,,,,,,,,,,,,,,,,,,,,,,,,,,,,,,,,585.8193172998726,585.8286898001097,585.8286898001097,601.5247562001459,return,15.693815300241113,None,jacke,[],[],[],[],[],[],[],,,,,,,,,,,,,,,,,,,3,2024-01-16_11h33.06.343,watkins1,2023.2.3,99.78605882654837,91,2024-01-16 11h33.12.220084 +0000,
,,,,,,,,,,,,,,,,,,,4,0,4,0,,,,,601.5357690001838,,,,,,,,,,,,,,hammer,2.1386227002367377,,,,,,,,,,,,1.1050482001155615,None,,,,,,,,,,,,,freeRecallSub,3,,,,,,,,,,,,,,,,,,,,,,,,,,,,,,,,,,,,,601.5260075000115,601.5357690001838,601.5357690001838,603.6755542000756,return,2.1386227002367377,None,hammer,[],[],[],[],[],[],[],,,,,,,,,,,,,,,,,,,3,2024-01-16_11h33.06.343,watkins1,2023.2.3,99.78605882654837,91,2024-01-16 11h33.12.220084 +0000,
,,,,,,,,,,,,,,,,,,,5,0,5,0,,,,,603.6866079000756,,,,,,,,,,,,,,blume,7.939912900328636,,,,,,,,,,,,6.708332600072026,None,,,,,,,,,,,,,freeRecallSub,3,,,,,,,,,,,,,,,,,,,,,,,,,,,,,,,,,,,,,603.6768267001025,603.6866079000756,603.6866079000756,611.6303278999403,return,7.939912900328636,None,blume,[],[],[],[],[],[],[],,,,,,,,,,,,,,,,,,,3,2024-01-16_11h33.06.343,watkins1,2023.2.3,99.78605882654837,91,2024-01-16 11h33.12.220084 +0000,
,,,,,,,,,,,,,,,,,,,6,0,6,0,,,,,611.6418089000508,,,,,,,,,,,,,,flasche,47.776703000068665,,,,,,,,,,,,44.39544849982485,None,,,,,,,,,,,,,freeRecallSub,3,,,,,,,,,,,,,,,,,,,,,,,,,,,,,,,,,,,,,611.6315910001285,611.6418089000508,611.6418089000508,659.4212938998826,return,47.776703000068665,None,flasche,[],[],[],[],[],[],[],,,,,,,,,,,,,,,,,,,3,2024-01-16_11h33.06.343,watkins1,2023.2.3,99.78605882654837,91,2024-01-16 11h33.12.220084 +0000,
,,,,,,,,,,,,,,,,,,,7,0,7,0,,,,,659.4330984000117,,,,,,,,,,,,,,schlüssel,55.56932940008119,,,,,,,,,,,,51.967324799858034,None,,,,,,,,,,,,,freeRecallSub,3,,,,,,,,,,,,,,,,,,,,,,,,,,,,,,,,,,,,,659.422571499832,659.4330984000117,659.4330984000117,715.0051223998889,return,55.56932940008119,None,schlüssel,[],[],[],[],[],[],[],,,,,,,,,,,,,,,,,,,3,2024-01-16_11h33.06.343,watkins1,2023.2.3,99.78605882654837,91,2024-01-16 11h33.12.220084 +0000,
,,,,,,,,,,,,,,,,,,,8,0,8,0,,,,,715.0181038998999,,,,,,,,,,,,,,,[],,,,,,,,,,,,None,None,,,,,,,,,,,,,freeRecallSub,3,,,,,,,,,,,,,,,,,,,,,,,,,,,,,,,,,,,,,715.0064110998064,715.0181038998999,715.0181038998999,751.9427447998896,None,,,,[0.3814814814814815],[-0.4203703703703704],[1],[0],[0],[36.93188049970195],['button_continue'],,,,,,,,,,,,,,,,,,,3,2024-01-16_11h33.06.343,watkins1,2023.2.3,99.78605882654837,91,2024-01-16 11h33.12.220084 +0000,
,,,,,,,,,,,,,,,,,,,,,,,,,,,,,,,,,,,,,,,,,,,,,,,,,,,,,,,,,,,,,,,,,,,,,3,,,,,,,,,,,,,,,,,,,,,,,,,,,,,,,,,,,,,,,,,,,,,,,,,,,,,,,,,,,,,,,,,,,,,,3,2024-01-16_11h33.06.343,watkins1,2023.2.3,99.78605882654837,91,2024-01-16 11h33.12.220084 +0000,
,,,,,,,,,,,,,,,,,,,,,,,0,0,0,0,758.5600753999315,,,,,,,,,,761.5863398001529,762.084866899997,,,,3.0183033999055624,,,,,,,,,,,,None,None,,,,,,,,,,Kamera,,,cuedRecallAdj,3,,,,,,,,,,,,,,,,,,,0,,,,,,,,,,,,,,,,,,,,,,,,,,,,,,,,,758.5512393000536,758.5600753999315,758.5600753999315,761.583235300146,dick,return,3.0183033999055624,None,761.5836298000067,761.5928094000556,761.5928094000556,761.5861873999238,,None,,,,,3,2024-01-16_11h33.06.343,watkins1,2023.2.3,99.78605882654837,91,2024-01-16 11h33.12.220084 +0000,
,,,,,,,,,,,,,,,,,,,,,,,1,0,1,0,762.0947334999219,,,,,,,,,,766.6985952998511,767.1968856002204,,,,4.595548000186682,,,,,,,,,,,,None,None,,,,,,,,,,Trommel,,,cuedRecallAdj,3,,,,,,,,,,,,,,,,,,,0,,,,,,,,,,,,,,,,,,,,,,,,,,,,,,,,,762.0851107998751,762.0947334999219,762.0947334999219,766.6953122001141,gepunktet,return,4.595548000186682,None,766.6955792000517,766.7048304001801,766.7048304001801,766.6984919998795,,None,,,,,3,2024-01-16_11h33.06.343,watkins1,2023.2.3,99.78605882654837,91,2024-01-16 11h33.12.220084 +0000,
,,,,,,,,,,,,,,,,,,,,,,,2,0,2,0,767.2069291998632,,,,,,,,,,770.3030789000914,770.8019778998569,,,,3.0834460998885334,,,,,,,,,,,,None,None,,,,,,,,,,Vase,,,cuedRecallAdj,3,,,,,,,,,,,,,,,,,,,0,,,,,,,,,,,,,,,,,,,,,,,,,,,,,,,,,767.1971277999692,767.2069291998632,767.2069291998632,770.3001665999182,elegant,return,3.0834460998885334,None,770.3004327998497,770.3099166997708,770.3099166997708,770.3029767000116,,None,,,,,3,2024-01-16_11h33.06.343,watkins1,2023.2.3,99.78605882654837,91,2024-01-16 11h33.12.220084 +0000,
,,,,,,,,,,,,,,,,,,,,,,,3,0,3,0,770.8118778001517,,,,,,,,,,773.9584598997608,774.4572739000432,,,,3.134558900259435,,,,,,,,,,,,None,None,,,,,,,,,,Eimer,,,cuedRecallAdj,3,,,,,,,,,,,,,,,,,,,0,,,,,,,,,,,,,,,,,,,,,,,,,,,,,,,,,770.8022268000059,770.8118778001517,770.8118778001517,773.9554481999949,schwer,return,3.134558900259435,None,773.9557145000435,773.9651637999341,773.9651637999341,773.9583586999215,,None,,,,,3,2024-01-16_11h33.06.343,watkins1,2023.2.3,99.78605882654837,91,2024-01-16 11h33.12.220084 +0000,
,,,,,,,,,,,,,,,,,,,,,,,4,0,4,0,774.4672209001146,,,,,,,,,,780.455370400101,780.9539503999986,,,,5.9830117002129555,,,,,,,,,,,,None,None,,,,,,,,,,Tasche,,,cuedRecallAdj,3,,,,,,,,,,,,,,,,,,,0,,,,,,,,,,,,,,,,,,,,,,,,,,,,,,,,,774.4575192998163,774.4672209001146,774.4672209001146,780.4522779001854,niedlich,return,5.9830117002129555,None,780.452547099907,780.4617686998099,780.4617686998099,780.4552682000212,,None,,,,,3,2024-01-16_11h33.06.343,watkins1,2023.2.3,99.78605882654837,91,2024-01-16 11h33.12.220084 +0000,
,,,,,,,,,,,,,,,,,,,,,,,5,0,5,0,780.9638951998204,,,,,,,,,,784.9338595001027,785.4327984000556,,,,3.9585211002267897,,,,,,,,,,,,None,None,,,,,,,,,,Uhr,,,cuedRecallAdj,3,,,,,,,,,,,,,,,,,,,0,,,,,,,,,,,,,,,,,,,,,,,,,,,,,,,,,780.9542009998113,780.9638951998204,780.9638951998204,784.9309426997788,glänzed,return,3.9585211002267897,None,784.9312074999325,784.9407144999132,784.9407144999132,784.933757300023,,None,,,,,3,2024-01-16_11h33.06.343,watkins1,2023.2.3,99.78605882654837,91,2024-01-16 11h33.12.220084 +0000,
,,,,,,,,,,,,,,,,,,,,,,,6,0,6,0,785.4426958998665,,,,,,,,,,787.4442512001842,787.942997999955,,,,1.9915470997802913,,,,,,,,,,,,None,None,,,,,,,,,,Geige,,,cuedRecallAdj,3,,,,,,,,,,,,,,,,,,,0,,,,,,,,,,,,,,,,,,,,,,,,,,,,,,,,,785.4330445001833,785.4426958998665,785.4426958998665,787.4413669002242,hohl,return,1.9915470997802913,None,787.4416303001344,787.450945999939,787.450945999939,787.4441479998641,,None,,,,,3,2024-01-16_11h33.06.343,watkins1,2023.2.3,99.78605882654837,91,2024-01-16 11h33.12.220084 +0000,
,,,,,,,,,,,,,,,,,,,,,,,7,0,7,0,787.953039499931,,,,,,,,,,794.8249645000324,795.3235162999481,,,,6.865257800091058,,,,,,,,,,,,None,None,,,,,,,,,,Kerze,,,cuedRecallAdj,3,,,,,,,,,,,,,,,,,,,0,,,,,,,,,,,,,,,,,,,,,,,,,,,,,,,,,787.9432446998544,787.953039499931,787.953039499931,794.8219053000212,rustikal,return,6.865257800091058,None,794.8221652000211,794.8314370000735,794.8314370000735,794.8248633998446,,None,,,,,3,2024-01-16_11h33.06.343,watkins1,2023.2.3,99.78605882654837,91,2024-01-16 11h33.12.220084 +0000,
,,,,,,,,,,,,,,,,,,,,,,,8,0,8,0,795.3335644998588,,,,,,,,,,799.4930157000199,799.9829139998183,,,,4.148780199699104,,,,,,,,,,,,None,None,,,,,,,,,,Blume,,,cuedRecallAdj,3,,,,,,,,,,,,,,,,,,,0,,,,,,,,,,,,,,,,,,,,,,,,,,,,,,,,,795.3237550999038,795.3335644998588,795.3335644998588,799.4909697999246,rustikal,return,4.148780199699104,None,799.4912351001985,799.5007186001167,799.5007186001167,799.4929152000695,,None,,,,,3,2024-01-16_11h33.06.343,watkins1,2023.2.3,99.78605882654837,91,2024-01-16 11h33.12.220084 +0000,
,,,,,,,,,,,,,,,,,,,,,,,9,0,9,0,799.9928609998897,,,,,,,,,,802.6678965999745,803.1660918002017,,,,2.66552189970389,,,,,,,,,,,,None,None,,,,,,,,,,Bürste,,,cuedRecallAdj,3,,,,,,,,,,,,,,,,,,,0,,,,,,,,,,,,,,,,,,,,,,,,,,,,,,,,,799.9831576999277,799.9928609998897,799.9928609998897,802.6644824999385,witzih,return,2.66552189970389,None,802.6647688997909,802.674006300047,802.674006300047,802.667787999846,,None,,,,,3,2024-01-16_11h33.06.343,watkins1,2023.2.3,99.78605882654837,91,2024-01-16 11h33.12.220084 +0000,
,,,,,,,,,,,,,,,,,,,,,,,10,0,10,0,803.1760350000113,,,,,,,,,,807.3271558000706,807.8252880000509,,,,4.138294400181621,,,,,,,,,,,,None,None,,,,,,,,,,Stift,,,cuedRecallAdj,3,,,,,,,,,,,,,,,,,,,0,,,,,,,,,,,,,,,,,,,,,,,,,,,,,,,,,803.1663358998485,803.1760350000113,803.1760350000113,807.3237906000577,teuer,return,4.138294400181621,None,807.324055199977,807.3335497998632,807.3335497998632,807.3270541001111,,None,,,,,3,2024-01-16_11h33.06.343,watkins1,2023.2.3,99.78605882654837,91,2024-01-16 11h33.12.220084 +0000,
,,,,,,,,,,,,,,,,,,,,,,,11,0,11,0,807.8351998999715,,,,,,,,,,812.8499650000595,813.3483382998966,,,,5.00714090000838,,,,,,,,,,,,None,None,,,,,,,,,,Löffel,,,cuedRecallAdj,3,,,,,,,,,,,,,,,,,,,0,,,,,,,,,,,,,,,,,,,,,,,,,,,,,,,,,807.8255408001132,807.8351998999715,807.8351998999715,812.8466356000863,sportlich,return,5.00714090000838,None,812.846901900135,812.8561970000155,812.8561970000155,812.849863700103,,None,,,,,3,2024-01-16_11h33.06.343,watkins1,2023.2.3,99.78605882654837,91,2024-01-16 11h33.12.220084 +0000,
,,,,,,,,,,,,,,,,,,,,,,,12,0,12,0,813.3582635000348,,,,,,,,,,819.5970549997874,820.0866260998882,,,,6.227981500327587,,,,,,,,,,,,None,None,,,,,,,,,,Telefon,,,cuedRecallAdj,3,,,,,,,,,,,,,,,,,,,0,,,,,,,,,,,,,,,,,,,,,,,,,,,,,,,,,813.3485762001947,813.3582635000348,813.3582635000348,819.5947719998658,,return,6.227981500327587,None,819.5950389001518,819.6045196000487,819.6045196000487,819.5969543000683,,None,,,,,3,2024-01-16_11h33.06.343,watkins1,2023.2.3,99.78605882654837,91,2024-01-16 11h33.12.220084 +0000,
,,,,,,,,,,,,,,,,,,,,,,,13,0,13,0,820.0965765998699,,,,,,,,,,822.4395428998396,822.9381400002167,,,,2.3376640998758376,,,,,,,,,,,,None,None,,,,,,,,,,Hammer,,,cuedRecallAdj,3,,,,,,,,,,,,,,,,,,,0,,,,,,,,,,,,,,,,,,,,,,,,,,,,,,,,,820.0868719001301,820.0965765998699,820.0965765998699,822.4366097999737,schwer,return,2.3376640998758376,None,822.4368708999828,822.4461428998038,822.4461428998038,822.4394431998953,,None,,,,,3,2024-01-16_11h33.06.343,watkins1,2023.2.3,99.78605882654837,91,2024-01-16 11h33.12.220084 +0000,
,,,,,,,,,,,,,,,,,,,,,,,14,0,14,0,822.948117100168,,,,,,,,,,825.2613748000003,825.7601704001427,,,,2.3022092999890447,,,,,,,,,,,,None,None,,,,,,,,,,Kette,,,cuedRecallAdj,3,,,,,,,,,,,,,,,,,,,0,,,,,,,,,,,,,,,,,,,,,,,,,,,,,,,,,822.9383878000081,822.948117100168,822.948117100168,825.2584016998298,matt,return,2.3022092999890447,None,825.258669000119,825.2681058999151,825.2681058999151,825.2612741999328,,None,,,,,3,2024-01-16_11h33.06.343,watkins1,2023.2.3,99.78605882654837,91,2024-01-16 11h33.12.220084 +0000,
,,,,,,,,,,,,,,,,,,,,,,,15,0,15,0,825.7700829999521,,,,,,,,,,831.7981003997847,832.2969836001284,,,,6.0241616000421345,,,,,,,,,,,,None,None,,,,,,,,,,Tasse,,,cuedRecallAdj,3,,,,,,,,,,,,,,,,,,,0,,,,,,,,,,,,,,,,,,,,,,,,,,,,,,,,,825.7604161999188,825.7700829999521,825.7700829999521,831.7951833000407,krumm,return,6.0241616000421345,None,831.7954481001943,831.8047038000077,831.8047038000077,831.7980006998405,,None,,,,,3,2024-01-16_11h33.06.343,watkins1,2023.2.3,99.78605882654837,91,2024-01-16 11h33.12.220084 +0000,
,,,,,,,,,,,,,,,,,,,,,,,16,0,16,0,832.3069258998148,,,,,,,,,,837.2010738002136,837.6996324998327,,,,4.8873725002631545,,,,,,,,,,,,None,None,,,,,,,,,,Schere,,,cuedRecallAdj,3,,,,,,,,,,,,,,,,,,,0,,,,,,,,,,,,,,,,,,,,,,,,,,,,,,,,,832.2972301999107,832.3069258998148,832.3069258998148,837.1979288998991,durchsichtig,return,4.8873725002631545,None,837.1981951999478,837.2075108001009,837.2075108001009,837.2009727000259,,None,,,,,3,2024-01-16_11h33.06.343,watkins1,2023.2.3,99.78605882654837,91,2024-01-16 11h33.12.220084 +0000,
,,,,,,,,,,,,,,,,,,,,,,,17,0,17,0,837.7095796000212,,,,,,,,,,841.579068900086,842.0776450000703,,,,3.860720300115645,,,,,,,,,,,,None,None,,,,,,,,,,Buch,,,cuedRecallAdj,3,,,,,,,,,,,,,,,,,,,0,,,,,,,,,,,,,,,,,,,,,,,,,,,,,,,,,837.6998777999543,837.7095796000212,837.7095796000212,841.5760241001844,kaputt,return,3.860720300115645,None,841.5762867000885,841.5855871997774,841.5855871997774,841.5789668001235,,None,,,,,3,2024-01-16_11h33.06.343,watkins1,2023.2.3,99.78605882654837,91,2024-01-16 11h33.12.220084 +0000,
,,,,,,,,,,,,,,,,,,,,,,,18,0,18,0,842.0876871999353,,,,,,,,,,848.4278119998053,848.9262736998498,,,,6.330618199892342,,,,,,,,,,,,None,None,,,,,,,,,,Ring,,,cuedRecallAdj,3,,,,,,,,,,,,,,,,,,,0,,,,,,,,,,,,,,,,,,,,,,,,,,,,,,,,,842.0778919002041,842.0876871999353,842.0876871999353,848.4245297000743,glänzend,return,6.330618199892342,None,848.4247938999906,848.434104999993,848.434104999993,848.4277105000801,,None,,,,,3,2024-01-16_11h33.06.343,watkins1,2023.2.3,99.78605882654837,91,2024-01-16 11h33.12.220084 +0000,
,,,,,,,,,,,,,,,,,,,,,,,19,0,19,0,848.9362102001905,,,,,,,,,,851.0480276001617,851.5373009000905,,,,2.106122300028801,,,,,,,,,,,,None,None,,,,,,,,,,Hut,,,cuedRecallAdj,3,,,,,,,,,,,,,,,,,,,0,,,,,,,,,,,,,,,,,,,,,,,,,,,,,,,,,848.9265192998573,848.9362102001905,848.9362102001905,851.0457884999923,,return,2.106122300028801,None,851.0460550999269,851.0553223001771,851.0553223001771,851.047926499974,,None,,,,,3,2024-01-16_11h33.06.343,watkins1,2023.2.3,99.78605882654837,91,2024-01-16 11h33.12.220084 +0000,
,,,,,,,,,,,,,,,,,,,,,,,20,0,20,0,851.5472568999976,,,,,,,,,,854.1113007999957,854.6101473001763,,,,2.5510213999077678,,,,,,,,,,,,None,None,,,,,,,,,,Jacke,,,cuedRecallAdj,3,,,,,,,,,,,,,,,,,,,0,,,,,,,,,,,,,,,,,,,,,,,,,,,,,,,,,851.5375409000553,851.5472568999976,851.5472568999976,854.1083244001493,glatt,return,2.5510213999077678,None,854.1085950001143,854.1180467000231,854.1180467000231,854.1111984997988,,None,,,,,3,2024-01-16_11h33.06.343,watkins1,2023.2.3,99.78605882654837,91,2024-01-16 11h33.12.220084 +0000,
,,,,,,,,,,,,,,,,,,,,,,,21,0,21,0,854.6200899998657,,,,,,,,,,857.646524600219,858.1451518000104,,,,3.0141898998990655,,,,,,,,,,,,None,None,,,,,,,,,,Flasche,,,cuedRecallAdj,3,,,,,,,,,,,,,,,,,,,0,,,,,,,,,,,,,,,,,,,,,,,,,,,,,,,,,854.6103921001777,854.6200899998657,854.6200899998657,857.6436111000367,kurz,return,3.0141898998990655,None,857.6438747998327,857.6532959998585,857.6532959998585,857.6464224997908,,None,,,,,3,2024-01-16_11h33.06.343,watkins1,2023.2.3,99.78605882654837,91,2024-01-16 11h33.12.220084 +0000,
,,,,,,,,,,,,,,,,,,,,,,,22,0,22,0,858.1550678000785,,,,,,,,,,862.2154391999356,862.7142063998617,,,,4.047114400193095,,,,,,,,,,,,None,None,,,,,,,,,,Schlüssel,,,cuedRecallAdj,3,,,,,,,,,,,,,,,,,,,0,,,,,,,,,,,,,,,,,,,,,,,,,,,,,,,,,858.1453996999189,858.1550678000785,858.1550678000785,862.2123587001115,winzig,return,4.047114400193095,None,862.2126235999167,862.2221277002245,862.2221277002245,862.2153385998681,,None,,,,,3,2024-01-16_11h33.06.343,watkins1,2023.2.3,99.78605882654837,91,2024-01-16 11h33.12.220084 +0000,
,,,,,,,,,,,,,,,,,,,,,,,23,0,23,0,862.7241592998616,,,,,,,,,,867.286534300074,867.7850151001476,,,,4.558161499910057,,,,,,,,,,,,None,None,,,,,,,,,,Socke,,,cuedRecallAdj,3,,,,,,,,,,,,,,,,,,,0,,,,,,,,,,,,,,,,,,,,,,,,,,,,,,,,,862.7144534997642,862.7241592998616,862.7241592998616,867.2834463999607,schlicht,return,4.558161499910057,None,867.2837121998891,867.2929949997924,867.2929949997924,867.286433099769,,None,,,,,3,2024-01-16_11h33.06.343,watkins1,2023.2.3,99.78605882654837,91,2024-01-16 11h33.12.220084 +0000,
,,,,,,,,,,,,,,,,,,,,,,,24,0,24,0,867.7949131000787,,,,,,,,,,872.4068562998436,872.8961176997982,,,,4.607371000107378,,,,,,,,,,,,None,None,,,,,,,,,,Fahrrad,,,cuedRecallAdj,3,,,,,,,,,,,,,,,,,,,0,,,,,,,,,,,,,,,,,,,,,,,,,,,,,,,,,867.7852671002038,867.7949131000787,867.7949131000787,872.40456000017,,return,4.607371000107378,None,872.4048254000954,872.4140591998585,872.4140591998585,872.4067541998811,,None,,,,,3,2024-01-16_11h33.06.343,watkins1,2023.2.3,99.78605882654837,91,2024-01-16 11h33.12.220084 +0000,
,,,,,,,,,,,,,,,,,,,,,,,25,0,25,0,872.9060721998103,,,,,,,,,,877.7094648000784,878.208084799815,,,,4.792230899911374,,,,,,,,,,,,None,None,,,,,,,,,,Kiste,,,cuedRecallAdj,3,,,,,,,,,,,,,,,,,,,0,,,,,,,,,,,,,,,,,,,,,,,,,,,,,,,,,872.8963641999289,872.9060721998103,872.9060721998103,877.7063454999588,spielerisch,return,4.792230899911374,None,877.7066124998964,877.7160522001795,877.7160522001795,877.7093619997613,,None,,,,,3,2024-01-16_11h33.06.343,watkins1,2023.2.3,99.78605882654837,91,2024-01-16 11h33.12.220084 +0000,
,,,,,,,,,,,,,,,,,,,,,,,26,0,26,0,878.2180826999247,,,,,,,,,,881.5888817999512,882.0872574001551,,,,3.360293199773878,,,,,,,,,,,,None,None,,,,,,,,,,Brille,,,cuedRecallAdj,3,,,,,,,,,,,,,,,,,,,0,,,,,,,,,,,,,,,,,,,,,,,,,,,,,,,,,878.2083303001709,878.2180826999247,878.2180826999247,881.5856646997854,hübsch,return,3.360293199773878,None,881.5859507001005,881.5952121000737,881.5952121000737,881.5887731001712,,None,,,,,3,2024-01-16_11h33.06.343,watkins1,2023.2.3,99.78605882654837,91,2024-01-16 11h33.12.220084 +0000,
,,,,,,,,,,,,,,,,,,,,,,,27,0,27,0,882.0971980998293,,,,,,,,,,886.4593091998249,886.9580740001984,,,,4.353060200344771,,,,,,,,,,,,None,None,,,,,,,,,,Lampe,,,cuedRecallAdj,3,,,,,,,,,,,,,,,,,,,0,,,,,,,,,,,,,,,,,,,,,,,,,,,,,,,,,882.0875083999708,882.0971980998293,882.0971980998293,886.4562506000511,biegsam,return,4.353060200344771,None,886.4565186998807,886.465798499994,886.465798499994,886.4592055999674,,None,,,,,3,2024-01-16_11h33.06.343,watkins1,2023.2.3,99.78605882654837,91,2024-01-16 11h33.12.220084 +0000,
,,,,,,,,,,,,,,,,,,,,,,,28,0,28,0,886.9680262999609,,,,,,,,,,890.6465568998829,891.1451918999664,,,,3.6662703999318182,,,,,,,,,,,,None,None,,,,,,,,,,Rucksack,,,cuedRecallAdj,3,,,,,,,,,,,,,,,,,,,0,,,,,,,,,,,,,,,,,,,,,,,,,,,,,,,,,886.9583161999471,886.9680262999609,886.9680262999609,890.6434276998043,niedlich,return,3.6662703999318182,None,890.6436946000904,890.6531377998181,890.6531377998181,890.6464543999173,,None,,,,,3,2024-01-16_11h33.06.343,watkins1,2023.2.3,99.78605882654837,91,2024-01-16 11h33.12.220084 +0000,
,,,,,,,,,,,,,,,,,,,,,,,29,0,29,0,891.1550958999433,,,,,,,,,,896.7831354998052,897.2813602997921,,,,5.623153199907392,,,,,,,,,,,,None,None,,,,,,,,,,Würfel,,,cuedRecallAdj,3,,,,,,,,,,,,,,,,,,,0,,,,,,,,,,,,,,,,,,,,,,,,,,,,,,,,,891.1454389002174,891.1550958999433,891.1550958999433,896.7796491999179,schmutzig,return,5.623153199907392,None,896.7799309999682,896.7891571000218,896.7891571000218,896.783026999794,,None,,,,,3,2024-01-16_11h33.06.343,watkins1,2023.2.3,99.78605882654837,91,2024-01-16 11h33.12.220084 +0000,
,,,,,,,,,,,,,,,,,,,,,,,,,,,,,,,,,,,,,,,,,,,,,,,,,,,,,,,,,,,,,,,,,,,,,3,,,,,,,,,,,,,,,,,,,,,,,,,,,,,,,,,,,,,,,,,,,,,,,,,,,,,,,,,,,,,,,,,,897.2979144998826,q,1303.7433298998512,None,3,2024-01-16_11h33.06.343,watkins1,2023.2.3,99.78605882654837,91,2024-01-16 11h33.12.220084 +0000,
