Equation,CorrectResponse,Correctbutton,trials_7.thisRepN,trials_7.thisTrialN,trials_7.thisN,trials_7.thisIndex,trials.thisRepN,trials.thisTrialN,trials.thisN,trials.thisIndex,trials_3.thisRepN,trials_3.thisTrialN,trials_3.thisN,trials_3.thisIndex,trials_2.thisRepN,trials_2.thisTrialN,trials_2.thisN,trials_2.thisIndex,trials_4.thisRepN,trials_4.thisTrialN,trials_4.thisN,trials_4.thisIndex,trials_5.thisRepN,trials_5.thisTrialN,trials_5.thisN,trials_5.thisIndex,thisRow.t,notes,code_marius.started,code_marius.stopped,welcome.started,welcome.stopped,instruction_study.started,instruction_study.stopped,fixationcross.started,fixationcross.stopped,blanc.started,blanc.stopped,study_control_probe.started,study_control_probe.stopped,responseKey,responseTime,scale_answer_2.keys,study_control_probe_2.started,study_control_probe_2.stopped,scale_answer_3.keys,scale_answer_3.rt,scale_answer_3.duration,blanc_2.started,blanc_2.stopped,test_attr_probe.started,test_attr_probe.stopped,recalled_attr,firstKeyTime,secondWordTime,blanc_3.started,blanc_3.stopped,test_sub_probe.started,test_sub_probe.stopped,recalled_sub,instruction_probe_end.started,instruction_probe_end.stopped,study.started,study.stopped,substantive,adjective,wordpair,task,condition,liste_sub_phase1,liste_adj_phase1,scale_answer.keys,scale_answer.rt,scale_answer.duration,code_defineWordsInit.started,code_defineWordsInit.stopped,liste_sub_phase2,study_control.started,study_control.stopped,scale_answer_4.keys,restudy_same.started,restudy_same.stopped,scale_answer_5.keys,restudy_different.started,restudy_different.stopped,scale_answer_6.keys,test_attr.started,correct,test_attr.stopped,test_sub.started,test_sub.stopped,scale_answer_5.rt,scale_answer_5.duration,distractortask.started,equation_text.started,distractortask.stopped,mouse_answer.x,mouse_answer.y,mouse_answer.leftButton,mouse_answer.midButton,mouse_answer.rightButton,mouse_answer.time,mouse_answer.clicked_name,feedback_distractortask.started,feedback_distractortask.stopped,free_recall.started,text_enter.started,key_resp.started,free_recall.stopped,key_resp.keys,key_resp.rt,key_resp.duration,free_recalled_sub,mouse_continue.x,mouse_continue.y,mouse_continue.leftButton,mouse_continue.midButton,mouse_continue.rightButton,mouse_continue.time,mouse_continue.clicked_name,cued_recall.started,text_enter_2.started,key_continue.started,cued_recall.stopped,recalled_attr1,key_continue.keys,key_continue.rt,key_continue.duration,cued_recall_2.started,text_enter_3.started,key_continue_2.started,cued_recall_2.stopped,recalled_attr2,key_continue_2.keys,key_resp_8.started,key_resp_8.keys,key_resp_8.rt,key_resp_8.duration,condition,date,expName,psychopyVersion,frameRate,participant,expStart,
,,,,,,,,,,,,,,,,,,,,,,,,,,,,,0.12903619999997318,0.1291031998116523,0.12911119987256825,5.28358930000104,,,,,,,,,,,,,,,,,,,,,,,,,,,,,,,,,,,,,3,,,,,,,,,,,,,,,,,,,,,,,,,,,,,,,,,,,,,,,,,,,,,,,,,,,,,,,,,,,,,,,,,,,,,,3,2023-12-12_08h35.54.506,watkins1,2023.2.3,99.75888282560597,59,2023-12-12 08h36.10.813558 +0000,
,,,,,,,,,,,,,,,,,,,,,,,,,,,,,,,,,5.283638899913058,35.927943099988624,,,,,,,,,,,,,,,,,,,,,,,,,,,,,,,,,,,3,,,,,,,,,,,,,,,,,,,,,,,,,,,,,,,,,,,,,,,,,,,,,,,,,,,,,,,,,,,,,,,,,,,,,,3,2023-12-12_08h35.54.506,watkins1,2023.2.3,99.75888282560597,59,2023-12-12 08h36.10.813558 +0000,
,,,0,0,0,0,,,,,,,,,,,,,,,,,,,,,36.94163479981944,,,,,,,,35.927958599990234,36.931648899801075,43.43245749990456,43.92377080000006,37.42363439989276,43.43228659988381,2,3.106659600045532,None,43.92378129996359,49.92577079986222,2,3.106659600045532,None,49.92607049993239,50.417332199867815,50.417343199951574,56.42262710002251,vergnügt,None,None,56.4228544998914,56.42287849984132,56.42288580001332,56.42297219997272,,,,,,,,,,3,,,,,,,,,,,,,,,,,,,,,,,,,,,,,,,,,,,,,,,,,,,,,,,,,,,,,,,,,,,,,,,,,,,,,,3,2023-12-12_08h35.54.506,watkins1,2023.2.3,99.75888282560597,59,2023-12-12 08h36.10.813558 +0000,
,,,,,,,,,,,,,,,,,,,,,,,,,,,,,,,,,,,,,,,,,,,,,,,,,,,,,,,,,,,,,56.423093299847096,60.630582799902186,,,,,,,3,,,,,,,,,,,,,,,,,,,,,,,,,,,,,,,,,,,,,,,,,,,,,,,,,,,,,,,,,,,,,,,,,,,,,,3,2023-12-12_08h35.54.506,watkins1,2023.2.3,99.75888282560597,59,2023-12-12 08h36.10.813558 +0000,
,,,,,,,0,0,0,0,,,,,,,,,,,,,,,,,61.6445927999448,,,,,,,,60.63059899979271,61.634590399917215,61.6350568998605,62.1264795998577,,,1,1.9306735000573099,,,,,,,,,,,,,,,,,,,,,62.12649039993994,68.13663479988463,Trommel,gepunktet,"['Trommel', 'gepunktet']",restudy,3,"['Trommel', 'Kerze', 'Blume', 'Geige', 'Fahrrad', 'Bürste', 'Schere', 'Telefon', 'Buch', 'Würfel', 'Stift', 'Schlüssel', 'Rucksack', 'Hut', 'Ring', 'Vase', 'Socke', 'Hammer', 'Brille', 'Kamera', 'Kette', 'Tasche', 'Uhr', 'Tasse', 'Jacke', 'Kiste', 'Flasche', 'Eimer', 'Lampe', 'Löffel']",['gepunktet'],1,1.9306735000573099,None,,,,,,,,,,,,,,,,,,,,,,,,,,,,,,,,,,,,,,,,,,,,,,,,,,,,,,,,,,,,,,,,,3,2023-12-12_08h35.54.506,watkins1,2023.2.3,99.75888282560597,59,2023-12-12 08h36.10.813558 +0000,
,,,,,,,1,0,1,0,,,,,,,,,,,,,,,,,68.14610249991529,,,,,,,,,,68.13729789992794,68.6279839000199,,,3,1.3909924000035971,,,,,,,,,,,,,,,,,,,,,68.62799489987083,74.63249029987492,Kerze,verspielt,"['Kerze', 'verspielt']",test_adj,3,"['Trommel', 'Kerze', 'Blume', 'Geige', 'Fahrrad', 'Bürste', 'Schere', 'Telefon', 'Buch', 'Würfel', 'Stift', 'Schlüssel', 'Rucksack', 'Hut', 'Ring', 'Vase', 'Socke', 'Hammer', 'Brille', 'Kamera', 'Kette', 'Tasche', 'Uhr', 'Tasse', 'Jacke', 'Kiste', 'Flasche', 'Eimer', 'Lampe', 'Löffel']","['gepunktet', 'verspielt']",3,1.3909924000035971,None,,,,,,,,,,,,,,,,,,,,,,,,,,,,,,,,,,,,,,,,,,,,,,,,,,,,,,,,,,,,,,,,,3,2023-12-12_08h35.54.506,watkins1,2023.2.3,99.75888282560597,59,2023-12-12 08h36.10.813558 +0000,
,,,,,,,2,0,2,0,,,,,,,,,,,,,,,,,74.64190729986876,,,,,,,,,,74.63302189996466,75.12405879981816,,,1,2.1676366000901908,,,,,,,,,,,,,,,,,,,,,75.12406899989583,81.13060839986429,Blume,kratzig,"['Blume', 'kratzig']",test_adj,3,"['Trommel', 'Kerze', 'Blume', 'Geige', 'Fahrrad', 'Bürste', 'Schere', 'Telefon', 'Buch', 'Würfel', 'Stift', 'Schlüssel', 'Rucksack', 'Hut', 'Ring', 'Vase', 'Socke', 'Hammer', 'Brille', 'Kamera', 'Kette', 'Tasche', 'Uhr', 'Tasse', 'Jacke', 'Kiste', 'Flasche', 'Eimer', 'Lampe', 'Löffel']","['gepunktet', 'verspielt', 'kratzig']",1,2.1676366000901908,None,,,,,,,,,,,,,,,,,,,,,,,,,,,,,,,,,,,,,,,,,,,,,,,,,,,,,,,,,,,,,,,,,3,2023-12-12_08h35.54.506,watkins1,2023.2.3,99.75888282560597,59,2023-12-12 08h36.10.813558 +0000,
,,,,,,,3,0,3,0,,,,,,,,,,,,,,,,,81.14007480000146,,,,,,,,,,81.13115359982476,81.62211479991674,,,2,2.853230700129643,,,,,,,,,,,,,,,,,,,,,81.62212539999746,87.62524169986136,Geige,niedlich,"['Geige', 'niedlich']",restudy,3,"['Trommel', 'Kerze', 'Blume', 'Geige', 'Fahrrad', 'Bürste', 'Schere', 'Telefon', 'Buch', 'Würfel', 'Stift', 'Schlüssel', 'Rucksack', 'Hut', 'Ring', 'Vase', 'Socke', 'Hammer', 'Brille', 'Kamera', 'Kette', 'Tasche', 'Uhr', 'Tasse', 'Jacke', 'Kiste', 'Flasche', 'Eimer', 'Lampe', 'Löffel']","['gepunktet', 'verspielt', 'kratzig', 'niedlich']",2,2.853230700129643,None,,,,,,,,,,,,,,,,,,,,,,,,,,,,,,,,,,,,,,,,,,,,,,,,,,,,,,,,,,,,,,,,,3,2023-12-12_08h35.54.506,watkins1,2023.2.3,99.75888282560597,59,2023-12-12 08h36.10.813558 +0000,
,,,,,,,4,0,4,0,,,,,,,,,,,,,,,,,87.63465959997848,,,,,,,,,,87.62577869999222,88.11694259988144,,,3,3.2709819998126477,,,,,,,,,,,,,,,,,,,,,88.11695299996063,94.12523729982786,Fahrrad,hübsch,"['Fahrrad', 'hübsch']",test_adj,3,"['Trommel', 'Kerze', 'Blume', 'Geige', 'Fahrrad', 'Bürste', 'Schere', 'Telefon', 'Buch', 'Würfel', 'Stift', 'Schlüssel', 'Rucksack', 'Hut', 'Ring', 'Vase', 'Socke', 'Hammer', 'Brille', 'Kamera', 'Kette', 'Tasche', 'Uhr', 'Tasse', 'Jacke', 'Kiste', 'Flasche', 'Eimer', 'Lampe', 'Löffel']","['gepunktet', 'verspielt', 'kratzig', 'niedlich', 'hübsch']",3,3.2709819998126477,None,,,,,,,,,,,,,,,,,,,,,,,,,,,,,,,,,,,,,,,,,,,,,,,,,,,,,,,,,,,,,,,,,3,2023-12-12_08h35.54.506,watkins1,2023.2.3,99.75888282560597,59,2023-12-12 08h36.10.813558 +0000,
,,,,,,,5,0,5,0,,,,,,,,,,,,,,,,,94.13470589998178,,,,,,,,,,94.12578389979899,94.61683319997974,,,1,2.6355484002269804,,,,,,,,,,,,,,,,,,,,,94.61684379982762,100.62704099994153,Bürste,teuer,"['Bürste', 'teuer']",restudy,3,"['Trommel', 'Kerze', 'Blume', 'Geige', 'Fahrrad', 'Bürste', 'Schere', 'Telefon', 'Buch', 'Würfel', 'Stift', 'Schlüssel', 'Rucksack', 'Hut', 'Ring', 'Vase', 'Socke', 'Hammer', 'Brille', 'Kamera', 'Kette', 'Tasche', 'Uhr', 'Tasse', 'Jacke', 'Kiste', 'Flasche', 'Eimer', 'Lampe', 'Löffel']","['gepunktet', 'verspielt', 'kratzig', 'niedlich', 'hübsch', 'teuer']",1,2.6355484002269804,None,,,,,,,,,,,,,,,,,,,,,,,,,,,,,,,,,,,,,,,,,,,,,,,,,,,,,,,,,,,,,,,,,3,2023-12-12_08h35.54.506,watkins1,2023.2.3,99.75888282560597,59,2023-12-12 08h36.10.813558 +0000,
,,,,,,,6,0,6,0,,,,,,,,,,,,,,,,,100.63650379981846,,,,,,,,,,100.62759639997967,101.11856989981607,,,1,2.9819701998494565,,,,,,,,,,,,,,,,,,,,,101.11858020001091,107.12386900000274,Schere,kurz,"['Schere', 'kurz']",restudy,3,"['Trommel', 'Kerze', 'Blume', 'Geige', 'Fahrrad', 'Bürste', 'Schere', 'Telefon', 'Buch', 'Würfel', 'Stift', 'Schlüssel', 'Rucksack', 'Hut', 'Ring', 'Vase', 'Socke', 'Hammer', 'Brille', 'Kamera', 'Kette', 'Tasche', 'Uhr', 'Tasse', 'Jacke', 'Kiste', 'Flasche', 'Eimer', 'Lampe', 'Löffel']","['gepunktet', 'verspielt', 'kratzig', 'niedlich', 'hübsch', 'teuer', 'kurz']",1,2.9819701998494565,None,,,,,,,,,,,,,,,,,,,,,,,,,,,,,,,,,,,,,,,,,,,,,,,,,,,,,,,,,,,,,,,,,3,2023-12-12_08h35.54.506,watkins1,2023.2.3,99.75888282560597,59,2023-12-12 08h36.10.813558 +0000,
,,,,,,,7,0,7,0,,,,,,,,,,,,,,,,,107.13339339988306,,,,,,,,,,107.12439779983833,107.61551469983533,,,1,1.452460499946028,,,,,,,,,,,,,,,,,,,,,107.61552499979734,113.61728219990619,Telefon,blass,"['Telefon', 'blass']",restudy,3,"['Trommel', 'Kerze', 'Blume', 'Geige', 'Fahrrad', 'Bürste', 'Schere', 'Telefon', 'Buch', 'Würfel', 'Stift', 'Schlüssel', 'Rucksack', 'Hut', 'Ring', 'Vase', 'Socke', 'Hammer', 'Brille', 'Kamera', 'Kette', 'Tasche', 'Uhr', 'Tasse', 'Jacke', 'Kiste', 'Flasche', 'Eimer', 'Lampe', 'Löffel']","['gepunktet', 'verspielt', 'kratzig', 'niedlich', 'hübsch', 'teuer', 'kurz', 'blass']",1,1.452460499946028,None,,,,,,,,,,,,,,,,,,,,,,,,,,,,,,,,,,,,,,,,,,,,,,,,,,,,,,,,,,,,,,,,,3,2023-12-12_08h35.54.506,watkins1,2023.2.3,99.75888282560597,59,2023-12-12 08h36.10.813558 +0000,
,,,,,,,8,0,8,0,,,,,,,,,,,,,,,,,113.62664999999106,,,,,,,,,,113.61783030000515,114.10871119983494,,,2,1.8641941999085248,,,,,,,,,,,,,,,,,,,,,114.10872079990804,120.10980349988677,Buch,gestreift,"['Buch', 'gestreift']",test_adj,3,"['Trommel', 'Kerze', 'Blume', 'Geige', 'Fahrrad', 'Bürste', 'Schere', 'Telefon', 'Buch', 'Würfel', 'Stift', 'Schlüssel', 'Rucksack', 'Hut', 'Ring', 'Vase', 'Socke', 'Hammer', 'Brille', 'Kamera', 'Kette', 'Tasche', 'Uhr', 'Tasse', 'Jacke', 'Kiste', 'Flasche', 'Eimer', 'Lampe', 'Löffel']","['gepunktet', 'verspielt', 'kratzig', 'niedlich', 'hübsch', 'teuer', 'kurz', 'blass', 'gestreift']",2,1.8641941999085248,None,,,,,,,,,,,,,,,,,,,,,,,,,,,,,,,,,,,,,,,,,,,,,,,,,,,,,,,,,,,,,,,,,3,2023-12-12_08h35.54.506,watkins1,2023.2.3,99.75888282560597,59,2023-12-12 08h36.10.813558 +0000,
,,,,,,,9,0,9,0,,,,,,,,,,,,,,,,,120.11928309989162,,,,,,,,,,120.11033019982278,120.60130829992704,,,2,2.6106105998624116,,,,,,,,,,,,,,,,,,,,,120.60131910000928,126.60983480000868,Würfel,winzig,"['Würfel', 'winzig']",restudy,3,"['Trommel', 'Kerze', 'Blume', 'Geige', 'Fahrrad', 'Bürste', 'Schere', 'Telefon', 'Buch', 'Würfel', 'Stift', 'Schlüssel', 'Rucksack', 'Hut', 'Ring', 'Vase', 'Socke', 'Hammer', 'Brille', 'Kamera', 'Kette', 'Tasche', 'Uhr', 'Tasse', 'Jacke', 'Kiste', 'Flasche', 'Eimer', 'Lampe', 'Löffel']","['gepunktet', 'verspielt', 'kratzig', 'niedlich', 'hübsch', 'teuer', 'kurz', 'blass', 'gestreift', 'winzig']",2,2.6106105998624116,None,,,,,,,,,,,,,,,,,,,,,,,,,,,,,,,,,,,,,,,,,,,,,,,,,,,,,,,,,,,,,,,,,3,2023-12-12_08h35.54.506,watkins1,2023.2.3,99.75888282560597,59,2023-12-12 08h36.10.813558 +0000,
,,,,,,,10,0,10,0,,,,,,,,,,,,,,,,,126.61935189994983,,,,,,,,,,126.61037030001171,127.10136620001867,,,1,3.49514969997108,,,,,,,,,,,,,,,,,,,,,127.10137659986503,133.1083133998327,Stift,kaputt,"['Stift', 'kaputt']",test_adj,3,"['Trommel', 'Kerze', 'Blume', 'Geige', 'Fahrrad', 'Bürste', 'Schere', 'Telefon', 'Buch', 'Würfel', 'Stift', 'Schlüssel', 'Rucksack', 'Hut', 'Ring', 'Vase', 'Socke', 'Hammer', 'Brille', 'Kamera', 'Kette', 'Tasche', 'Uhr', 'Tasse', 'Jacke', 'Kiste', 'Flasche', 'Eimer', 'Lampe', 'Löffel']","['gepunktet', 'verspielt', 'kratzig', 'niedlich', 'hübsch', 'teuer', 'kurz', 'blass', 'gestreift', 'winzig', 'kaputt']",1,3.49514969997108,None,,,,,,,,,,,,,,,,,,,,,,,,,,,,,,,,,,,,,,,,,,,,,,,,,,,,,,,,,,,,,,,,,3,2023-12-12_08h35.54.506,watkins1,2023.2.3,99.75888282560597,59,2023-12-12 08h36.10.813558 +0000,
,,,,,,,11,0,11,0,,,,,,,,,,,,,,,,,133.11772119998932,,,,,,,,,,133.1088434997946,133.59983439999633,,,1,2.17275150003843,,,,,,,,,,,,,,,,,,,,,133.59984439983964,139.609276099829,Schlüssel,strahlend,"['Schlüssel', 'strahlend']",restudy,3,"['Trommel', 'Kerze', 'Blume', 'Geige', 'Fahrrad', 'Bürste', 'Schere', 'Telefon', 'Buch', 'Würfel', 'Stift', 'Schlüssel', 'Rucksack', 'Hut', 'Ring', 'Vase', 'Socke', 'Hammer', 'Brille', 'Kamera', 'Kette', 'Tasche', 'Uhr', 'Tasse', 'Jacke', 'Kiste', 'Flasche', 'Eimer', 'Lampe', 'Löffel']","['gepunktet', 'verspielt', 'kratzig', 'niedlich', 'hübsch', 'teuer', 'kurz', 'blass', 'gestreift', 'winzig', 'kaputt', 'strahlend']",1,2.17275150003843,None,,,,,,,,,,,,,,,,,,,,,,,,,,,,,,,,,,,,,,,,,,,,,,,,,,,,,,,,,,,,,,,,,3,2023-12-12_08h35.54.506,watkins1,2023.2.3,99.75888282560597,59,2023-12-12 08h36.10.813558 +0000,
,,,,,,,12,0,12,0,,,,,,,,,,,,,,,,,139.618736699922,,,,,,,,,,139.6098129998427,140.10053369984962,,,1,2.1512025999836624,,,,,,,,,,,,,,,,,,,,,140.10054429993033,146.110346699832,Rucksack,hohl,"['Rucksack', 'hohl']",test_adj,3,"['Trommel', 'Kerze', 'Blume', 'Geige', 'Fahrrad', 'Bürste', 'Schere', 'Telefon', 'Buch', 'Würfel', 'Stift', 'Schlüssel', 'Rucksack', 'Hut', 'Ring', 'Vase', 'Socke', 'Hammer', 'Brille', 'Kamera', 'Kette', 'Tasche', 'Uhr', 'Tasse', 'Jacke', 'Kiste', 'Flasche', 'Eimer', 'Lampe', 'Löffel']","['gepunktet', 'verspielt', 'kratzig', 'niedlich', 'hübsch', 'teuer', 'kurz', 'blass', 'gestreift', 'winzig', 'kaputt', 'strahlend', 'hohl']",1,2.1512025999836624,None,,,,,,,,,,,,,,,,,,,,,,,,,,,,,,,,,,,,,,,,,,,,,,,,,,,,,,,,,,,,,,,,,3,2023-12-12_08h35.54.506,watkins1,2023.2.3,99.75888282560597,59,2023-12-12 08h36.10.813558 +0000,
,,,,,,,13,0,13,0,,,,,,,,,,,,,,,,,146.11984609998763,,,,,,,,,,146.11088149994612,146.60196729982272,,,3,3.3300962999928743,,,,,,,,,,,,,,,,,,,,,146.6019780000206,152.60494599980302,Hut,neu,"['Hut', 'neu']",restudy,3,"['Trommel', 'Kerze', 'Blume', 'Geige', 'Fahrrad', 'Bürste', 'Schere', 'Telefon', 'Buch', 'Würfel', 'Stift', 'Schlüssel', 'Rucksack', 'Hut', 'Ring', 'Vase', 'Socke', 'Hammer', 'Brille', 'Kamera', 'Kette', 'Tasche', 'Uhr', 'Tasse', 'Jacke', 'Kiste', 'Flasche', 'Eimer', 'Lampe', 'Löffel']","['gepunktet', 'verspielt', 'kratzig', 'niedlich', 'hübsch', 'teuer', 'kurz', 'blass', 'gestreift', 'winzig', 'kaputt', 'strahlend', 'hohl', 'neu']",3,3.3300962999928743,None,,,,,,,,,,,,,,,,,,,,,,,,,,,,,,,,,,,,,,,,,,,,,,,,,,,,,,,,,,,,,,,,,3,2023-12-12_08h35.54.506,watkins1,2023.2.3,99.75888282560597,59,2023-12-12 08h36.10.813558 +0000,
,,,,,,,14,0,14,0,,,,,,,,,,,,,,,,,152.61445729993284,,,,,,,,,,152.60548389982432,153.09639479988255,,,3,2.1324114999733865,,,,,,,,,,,,,,,,,,,,,153.0964054998476,159.09779759985395,Ring,breit,"['Ring', 'breit']",test_adj,3,"['Trommel', 'Kerze', 'Blume', 'Geige', 'Fahrrad', 'Bürste', 'Schere', 'Telefon', 'Buch', 'Würfel', 'Stift', 'Schlüssel', 'Rucksack', 'Hut', 'Ring', 'Vase', 'Socke', 'Hammer', 'Brille', 'Kamera', 'Kette', 'Tasche', 'Uhr', 'Tasse', 'Jacke', 'Kiste', 'Flasche', 'Eimer', 'Lampe', 'Löffel']","['gepunktet', 'verspielt', 'kratzig', 'niedlich', 'hübsch', 'teuer', 'kurz', 'blass', 'gestreift', 'winzig', 'kaputt', 'strahlend', 'hohl', 'neu', 'breit']",3,2.1324114999733865,None,,,,,,,,,,,,,,,,,,,,,,,,,,,,,,,,,,,,,,,,,,,,,,,,,,,,,,,,,,,,,,,,,3,2023-12-12_08h35.54.506,watkins1,2023.2.3,99.75888282560597,59,2023-12-12 08h36.10.813558 +0000,
,,,,,,,15,0,15,0,,,,,,,,,,,,,,,,,159.10721079981886,,,,,,,,,,159.09833129984327,159.5893225998152,,,3,1.9266719999723136,,,,,,,,,,,,,,,,,,,,,159.58933270000853,165.5920798999723,Vase,elegant,"['Vase', 'elegant']",test_adj,3,"['Trommel', 'Kerze', 'Blume', 'Geige', 'Fahrrad', 'Bürste', 'Schere', 'Telefon', 'Buch', 'Würfel', 'Stift', 'Schlüssel', 'Rucksack', 'Hut', 'Ring', 'Vase', 'Socke', 'Hammer', 'Brille', 'Kamera', 'Kette', 'Tasche', 'Uhr', 'Tasse', 'Jacke', 'Kiste', 'Flasche', 'Eimer', 'Lampe', 'Löffel']","['gepunktet', 'verspielt', 'kratzig', 'niedlich', 'hübsch', 'teuer', 'kurz', 'blass', 'gestreift', 'winzig', 'kaputt', 'strahlend', 'hohl', 'neu', 'breit', 'elegant']",3,1.9266719999723136,None,,,,,,,,,,,,,,,,,,,,,,,,,,,,,,,,,,,,,,,,,,,,,,,,,,,,,,,,,,,,,,,,,3,2023-12-12_08h35.54.506,watkins1,2023.2.3,99.75888282560597,59,2023-12-12 08h36.10.813558 +0000,
,,,,,,,16,0,16,0,,,,,,,,,,,,,,,,,165.60162689979188,,,,,,,,,,165.5926234999206,166.08360289991833,,,2,1.968737700022757,,,,,,,,,,,,,,,,,,,,,166.08361259987578,172.0935571999289,Socke,flach,"['Socke', 'flach']",restudy,3,"['Trommel', 'Kerze', 'Blume', 'Geige', 'Fahrrad', 'Bürste', 'Schere', 'Telefon', 'Buch', 'Würfel', 'Stift', 'Schlüssel', 'Rucksack', 'Hut', 'Ring', 'Vase', 'Socke', 'Hammer', 'Brille', 'Kamera', 'Kette', 'Tasche', 'Uhr', 'Tasse', 'Jacke', 'Kiste', 'Flasche', 'Eimer', 'Lampe', 'Löffel']","['gepunktet', 'verspielt', 'kratzig', 'niedlich', 'hübsch', 'teuer', 'kurz', 'blass', 'gestreift', 'winzig', 'kaputt', 'strahlend', 'hohl', 'neu', 'breit', 'elegant', 'flach']",2,1.968737700022757,None,,,,,,,,,,,,,,,,,,,,,,,,,,,,,,,,,,,,,,,,,,,,,,,,,,,,,,,,,,,,,,,,,3,2023-12-12_08h35.54.506,watkins1,2023.2.3,99.75888282560597,59,2023-12-12 08h36.10.813558 +0000,
,,,,,,,17,0,17,0,,,,,,,,,,,,,,,,,172.10311929997988,,,,,,,,,,172.0940937998239,172.58507939986885,,,3,1.5873106000944972,,,,,,,,,,,,,,,,,,,,,172.58508969983086,178.59496439993382,Hammer,praktisch,"['Hammer', 'praktisch']",restudy,3,"['Trommel', 'Kerze', 'Blume', 'Geige', 'Fahrrad', 'Bürste', 'Schere', 'Telefon', 'Buch', 'Würfel', 'Stift', 'Schlüssel', 'Rucksack', 'Hut', 'Ring', 'Vase', 'Socke', 'Hammer', 'Brille', 'Kamera', 'Kette', 'Tasche', 'Uhr', 'Tasse', 'Jacke', 'Kiste', 'Flasche', 'Eimer', 'Lampe', 'Löffel']","['gepunktet', 'verspielt', 'kratzig', 'niedlich', 'hübsch', 'teuer', 'kurz', 'blass', 'gestreift', 'winzig', 'kaputt', 'strahlend', 'hohl', 'neu', 'breit', 'elegant', 'flach', 'praktisch']",3,1.5873106000944972,None,,,,,,,,,,,,,,,,,,,,,,,,,,,,,,,,,,,,,,,,,,,,,,,,,,,,,,,,,,,,,,,,,3,2023-12-12_08h35.54.506,watkins1,2023.2.3,99.75888282560597,59,2023-12-12 08h36.10.813558 +0000,
,,,,,,,18,0,18,0,,,,,,,,,,,,,,,,,178.60442160000093,,,,,,,,,,178.5954906998668,179.08642599987797,,,3,3.550396299920976,,,,,,,,,,,,,,,,,,,,,179.0864357999526,185.09575129998848,Brille,gut,"['Brille', 'gut']",restudy,3,"['Trommel', 'Kerze', 'Blume', 'Geige', 'Fahrrad', 'Bürste', 'Schere', 'Telefon', 'Buch', 'Würfel', 'Stift', 'Schlüssel', 'Rucksack', 'Hut', 'Ring', 'Vase', 'Socke', 'Hammer', 'Brille', 'Kamera', 'Kette', 'Tasche', 'Uhr', 'Tasse', 'Jacke', 'Kiste', 'Flasche', 'Eimer', 'Lampe', 'Löffel']","['gepunktet', 'verspielt', 'kratzig', 'niedlich', 'hübsch', 'teuer', 'kurz', 'blass', 'gestreift', 'winzig', 'kaputt', 'strahlend', 'hohl', 'neu', 'breit', 'elegant', 'flach', 'praktisch', 'gut']",3,3.550396299920976,None,,,,,,,,,,,,,,,,,,,,,,,,,,,,,,,,,,,,,,,,,,,,,,,,,,,,,,,,,,,,,,,,,3,2023-12-12_08h35.54.506,watkins1,2023.2.3,99.75888282560597,59,2023-12-12 08h36.10.813558 +0000,
,,,,,,,19,0,19,0,,,,,,,,,,,,,,,,,185.10532590001822,,,,,,,,,,185.09629799984396,185.5872758999467,,,3,3.129111099988222,,,,,,,,,,,,,,,,,,,,,185.58728629979305,191.58812739979476,Kamera,schwer,"['Kamera', 'schwer']",restudy,3,"['Trommel', 'Kerze', 'Blume', 'Geige', 'Fahrrad', 'Bürste', 'Schere', 'Telefon', 'Buch', 'Würfel', 'Stift', 'Schlüssel', 'Rucksack', 'Hut', 'Ring', 'Vase', 'Socke', 'Hammer', 'Brille', 'Kamera', 'Kette', 'Tasche', 'Uhr', 'Tasse', 'Jacke', 'Kiste', 'Flasche', 'Eimer', 'Lampe', 'Löffel']","['gepunktet', 'verspielt', 'kratzig', 'niedlich', 'hübsch', 'teuer', 'kurz', 'blass', 'gestreift', 'winzig', 'kaputt', 'strahlend', 'hohl', 'neu', 'breit', 'elegant', 'flach', 'praktisch', 'gut', 'schwer']",3,3.129111099988222,None,,,,,,,,,,,,,,,,,,,,,,,,,,,,,,,,,,,,,,,,,,,,,,,,,,,,,,,,,,,,,,,,,3,2023-12-12_08h35.54.506,watkins1,2023.2.3,99.75888282560597,59,2023-12-12 08h36.10.813558 +0000,
,,,,,,,20,0,20,0,,,,,,,,,,,,,,,,,191.5975839998573,,,,,,,,,,191.58867399999872,192.0795616998803,,,2,2.2919342000968754,,,,,,,,,,,,,,,,,,,,,192.07957219984382,198.08218379993923,Kette,hässlich,"['Kette', 'hässlich']",restudy,3,"['Trommel', 'Kerze', 'Blume', 'Geige', 'Fahrrad', 'Bürste', 'Schere', 'Telefon', 'Buch', 'Würfel', 'Stift', 'Schlüssel', 'Rucksack', 'Hut', 'Ring', 'Vase', 'Socke', 'Hammer', 'Brille', 'Kamera', 'Kette', 'Tasche', 'Uhr', 'Tasse', 'Jacke', 'Kiste', 'Flasche', 'Eimer', 'Lampe', 'Löffel']","['gepunktet', 'verspielt', 'kratzig', 'niedlich', 'hübsch', 'teuer', 'kurz', 'blass', 'gestreift', 'winzig', 'kaputt', 'strahlend', 'hohl', 'neu', 'breit', 'elegant', 'flach', 'praktisch', 'gut', 'schwer', 'hässlich']",2,2.2919342000968754,None,,,,,,,,,,,,,,,,,,,,,,,,,,,,,,,,,,,,,,,,,,,,,,,,,,,,,,,,,,,,,,,,,3,2023-12-12_08h35.54.506,watkins1,2023.2.3,99.75888282560597,59,2023-12-12 08h36.10.813558 +0000,
,,,,,,,21,0,21,0,,,,,,,,,,,,,,,,,198.09169199992903,,,,,,,,,,198.08273319993168,198.57379739987664,,,2,1.7745986001100391,,,,,,,,,,,,,,,,,,,,,198.57380709983408,204.58099869987927,Tasche,glänzend,"['Tasche', 'glänzend']",test_adj,3,"['Trommel', 'Kerze', 'Blume', 'Geige', 'Fahrrad', 'Bürste', 'Schere', 'Telefon', 'Buch', 'Würfel', 'Stift', 'Schlüssel', 'Rucksack', 'Hut', 'Ring', 'Vase', 'Socke', 'Hammer', 'Brille', 'Kamera', 'Kette', 'Tasche', 'Uhr', 'Tasse', 'Jacke', 'Kiste', 'Flasche', 'Eimer', 'Lampe', 'Löffel']","['gepunktet', 'verspielt', 'kratzig', 'niedlich', 'hübsch', 'teuer', 'kurz', 'blass', 'gestreift', 'winzig', 'kaputt', 'strahlend', 'hohl', 'neu', 'breit', 'elegant', 'flach', 'praktisch', 'gut', 'schwer', 'hässlich', 'glänzend']",2,1.7745986001100391,None,,,,,,,,,,,,,,,,,,,,,,,,,,,,,,,,,,,,,,,,,,,,,,,,,,,,,,,,,,,,,,,,,3,2023-12-12_08h35.54.506,watkins1,2023.2.3,99.75888282560597,59,2023-12-12 08h36.10.813558 +0000,
,,,,,,,22,0,22,0,,,,,,,,,,,,,,,,,204.59043839992955,,,,,,,,,,204.5815481999889,205.07262449990958,,,1,1.0583941999357194,,,,,,,,,,,,,,,,,,,,,205.07263489998877,211.0780178999994,Uhr,flauschig,"['Uhr', 'flauschig']",restudy,3,"['Trommel', 'Kerze', 'Blume', 'Geige', 'Fahrrad', 'Bürste', 'Schere', 'Telefon', 'Buch', 'Würfel', 'Stift', 'Schlüssel', 'Rucksack', 'Hut', 'Ring', 'Vase', 'Socke', 'Hammer', 'Brille', 'Kamera', 'Kette', 'Tasche', 'Uhr', 'Tasse', 'Jacke', 'Kiste', 'Flasche', 'Eimer', 'Lampe', 'Löffel']","['gepunktet', 'verspielt', 'kratzig', 'niedlich', 'hübsch', 'teuer', 'kurz', 'blass', 'gestreift', 'winzig', 'kaputt', 'strahlend', 'hohl', 'neu', 'breit', 'elegant', 'flach', 'praktisch', 'gut', 'schwer', 'hässlich', 'glänzend', 'flauschig']",1,1.0583941999357194,None,,,,,,,,,,,,,,,,,,,,,,,,,,,,,,,,,,,,,,,,,,,,,,,,,,,,,,,,,,,,,,,,,3,2023-12-12_08h35.54.506,watkins1,2023.2.3,99.75888282560597,59,2023-12-12 08h36.10.813558 +0000,
,,,,,,,23,0,23,0,,,,,,,,,,,,,,,,,211.08746119984426,,,,,,,,,,211.07854159991257,211.56967170001008,,,2,1.730895800050348,,,,,,,,,,,,,,,,,,,,,211.56968209985644,217.5741386997979,Tasse,matt,"['Tasse', 'matt']",test_adj,3,"['Trommel', 'Kerze', 'Blume', 'Geige', 'Fahrrad', 'Bürste', 'Schere', 'Telefon', 'Buch', 'Würfel', 'Stift', 'Schlüssel', 'Rucksack', 'Hut', 'Ring', 'Vase', 'Socke', 'Hammer', 'Brille', 'Kamera', 'Kette', 'Tasche', 'Uhr', 'Tasse', 'Jacke', 'Kiste', 'Flasche', 'Eimer', 'Lampe', 'Löffel']","['gepunktet', 'verspielt', 'kratzig', 'niedlich', 'hübsch', 'teuer', 'kurz', 'blass', 'gestreift', 'winzig', 'kaputt', 'strahlend', 'hohl', 'neu', 'breit', 'elegant', 'flach', 'praktisch', 'gut', 'schwer', 'hässlich', 'glänzend', 'flauschig', 'matt']",2,1.730895800050348,None,,,,,,,,,,,,,,,,,,,,,,,,,,,,,,,,,,,,,,,,,,,,,,,,,,,,,,,,,,,,,,,,,3,2023-12-12_08h35.54.506,watkins1,2023.2.3,99.75888282560597,59,2023-12-12 08h36.10.813558 +0000,
,,,,,,,24,0,24,0,,,,,,,,,,,,,,,,,217.58355029998347,,,,,,,,,,217.57471309998073,218.06606129999273,,,3,1.497469199821353,,,,,,,,,,,,,,,,,,,,,218.06607159995474,224.07365269982256,Jacke,dunkel,"['Jacke', 'dunkel']",test_adj,3,"['Trommel', 'Kerze', 'Blume', 'Geige', 'Fahrrad', 'Bürste', 'Schere', 'Telefon', 'Buch', 'Würfel', 'Stift', 'Schlüssel', 'Rucksack', 'Hut', 'Ring', 'Vase', 'Socke', 'Hammer', 'Brille', 'Kamera', 'Kette', 'Tasche', 'Uhr', 'Tasse', 'Jacke', 'Kiste', 'Flasche', 'Eimer', 'Lampe', 'Löffel']","['gepunktet', 'verspielt', 'kratzig', 'niedlich', 'hübsch', 'teuer', 'kurz', 'blass', 'gestreift', 'winzig', 'kaputt', 'strahlend', 'hohl', 'neu', 'breit', 'elegant', 'flach', 'praktisch', 'gut', 'schwer', 'hässlich', 'glänzend', 'flauschig', 'matt', 'dunkel']",3,1.497469199821353,None,,,,,,,,,,,,,,,,,,,,,,,,,,,,,,,,,,,,,,,,,,,,,,,,,,,,,,,,,,,,,,,,,3,2023-12-12_08h35.54.506,watkins1,2023.2.3,99.75888282560597,59,2023-12-12 08h36.10.813558 +0000,
,,,,,,,25,0,25,0,,,,,,,,,,,,,,,,,224.0830649000127,,,,,,,,,,224.07417929987423,224.56544749997556,,,2,1.646500299917534,,,,,,,,,,,,,,,,,,,,,224.56545809982345,230.57438629982062,Kiste,sauber,"['Kiste', 'sauber']",test_adj,3,"['Trommel', 'Kerze', 'Blume', 'Geige', 'Fahrrad', 'Bürste', 'Schere', 'Telefon', 'Buch', 'Würfel', 'Stift', 'Schlüssel', 'Rucksack', 'Hut', 'Ring', 'Vase', 'Socke', 'Hammer', 'Brille', 'Kamera', 'Kette', 'Tasche', 'Uhr', 'Tasse', 'Jacke', 'Kiste', 'Flasche', 'Eimer', 'Lampe', 'Löffel']","['gepunktet', 'verspielt', 'kratzig', 'niedlich', 'hübsch', 'teuer', 'kurz', 'blass', 'gestreift', 'winzig', 'kaputt', 'strahlend', 'hohl', 'neu', 'breit', 'elegant', 'flach', 'praktisch', 'gut', 'schwer', 'hässlich', 'glänzend', 'flauschig', 'matt', 'dunkel', 'sauber']",2,1.646500299917534,None,,,,,,,,,,,,,,,,,,,,,,,,,,,,,,,,,,,,,,,,,,,,,,,,,,,,,,,,,,,,,,,,,3,2023-12-12_08h35.54.506,watkins1,2023.2.3,99.75888282560597,59,2023-12-12 08h36.10.813558 +0000,
,,,,,,,26,0,26,0,,,,,,,,,,,,,,,,,230.583861899795,,,,,,,,,,230.57491819979623,231.06586979981512,,,3,1.289684700081125,,,,,,,,,,,,,,,,,,,,,231.0658803000115,237.06943119992502,Flasche,groß,"['Flasche', 'groß']",test_adj,3,"['Trommel', 'Kerze', 'Blume', 'Geige', 'Fahrrad', 'Bürste', 'Schere', 'Telefon', 'Buch', 'Würfel', 'Stift', 'Schlüssel', 'Rucksack', 'Hut', 'Ring', 'Vase', 'Socke', 'Hammer', 'Brille', 'Kamera', 'Kette', 'Tasche', 'Uhr', 'Tasse', 'Jacke', 'Kiste', 'Flasche', 'Eimer', 'Lampe', 'Löffel']","['gepunktet', 'verspielt', 'kratzig', 'niedlich', 'hübsch', 'teuer', 'kurz', 'blass', 'gestreift', 'winzig', 'kaputt', 'strahlend', 'hohl', 'neu', 'breit', 'elegant', 'flach', 'praktisch', 'gut', 'schwer', 'hässlich', 'glänzend', 'flauschig', 'matt', 'dunkel', 'sauber', 'groß']",3,1.289684700081125,None,,,,,,,,,,,,,,,,,,,,,,,,,,,,,,,,,,,,,,,,,,,,,,,,,,,,,,,,,,,,,,,,,3,2023-12-12_08h35.54.506,watkins1,2023.2.3,99.75888282560597,59,2023-12-12 08h36.10.813558 +0000,
,,,,,,,27,0,27,0,,,,,,,,,,,,,,,,,237.07886969996616,,,,,,,,,,237.06996799982153,237.5609452999197,,,2,1.378179799998179,,,,,,,,,,,,,,,,,,,,,237.56095619988628,243.5635424000211,Eimer,nass,"['Eimer', 'nass']",restudy,3,"['Trommel', 'Kerze', 'Blume', 'Geige', 'Fahrrad', 'Bürste', 'Schere', 'Telefon', 'Buch', 'Würfel', 'Stift', 'Schlüssel', 'Rucksack', 'Hut', 'Ring', 'Vase', 'Socke', 'Hammer', 'Brille', 'Kamera', 'Kette', 'Tasche', 'Uhr', 'Tasse', 'Jacke', 'Kiste', 'Flasche', 'Eimer', 'Lampe', 'Löffel']","['gepunktet', 'verspielt', 'kratzig', 'niedlich', 'hübsch', 'teuer', 'kurz', 'blass', 'gestreift', 'winzig', 'kaputt', 'strahlend', 'hohl', 'neu', 'breit', 'elegant', 'flach', 'praktisch', 'gut', 'schwer', 'hässlich', 'glänzend', 'flauschig', 'matt', 'dunkel', 'sauber', 'groß', 'nass']",2,1.378179799998179,None,,,,,,,,,,,,,,,,,,,,,,,,,,,,,,,,,,,,,,,,,,,,,,,,,,,,,,,,,,,,,,,,,3,2023-12-12_08h35.54.506,watkins1,2023.2.3,99.75888282560597,59,2023-12-12 08h36.10.813558 +0000,
,,,,,,,28,0,28,0,,,,,,,,,,,,,,,,,243.57299709995277,,,,,,,,,,243.56407879991457,244.05509379995055,,,1,2.9087353001814336,,,,,,,,,,,,,,,,,,,,,244.05510409991257,250.06411009980366,Lampe,klobig,"['Lampe', 'klobig']",test_adj,3,"['Trommel', 'Kerze', 'Blume', 'Geige', 'Fahrrad', 'Bürste', 'Schere', 'Telefon', 'Buch', 'Würfel', 'Stift', 'Schlüssel', 'Rucksack', 'Hut', 'Ring', 'Vase', 'Socke', 'Hammer', 'Brille', 'Kamera', 'Kette', 'Tasche', 'Uhr', 'Tasse', 'Jacke', 'Kiste', 'Flasche', 'Eimer', 'Lampe', 'Löffel']","['gepunktet', 'verspielt', 'kratzig', 'niedlich', 'hübsch', 'teuer', 'kurz', 'blass', 'gestreift', 'winzig', 'kaputt', 'strahlend', 'hohl', 'neu', 'breit', 'elegant', 'flach', 'praktisch', 'gut', 'schwer', 'hässlich', 'glänzend', 'flauschig', 'matt', 'dunkel', 'sauber', 'groß', 'nass', 'klobig']",1,2.9087353001814336,None,,,,,,,,,,,,,,,,,,,,,,,,,,,,,,,,,,,,,,,,,,,,,,,,,,,,,,,,,,,,,,,,,3,2023-12-12_08h35.54.506,watkins1,2023.2.3,99.75888282560597,59,2023-12-12 08h36.10.813558 +0000,
,,,,,,,29,0,29,0,,,,,,,,,,,,,,,,,250.07552349986508,,,,,,,,,,250.06465119984932,250.5592231999617,,,3,1.9322871000040323,,,,,,,,,,,,,,,,,,,,,250.5592337998096,256.5692413998768,Löffel,krumm,"['Löffel', 'krumm']",test_adj,3,"['Trommel', 'Kerze', 'Blume', 'Geige', 'Fahrrad', 'Bürste', 'Schere', 'Telefon', 'Buch', 'Würfel', 'Stift', 'Schlüssel', 'Rucksack', 'Hut', 'Ring', 'Vase', 'Socke', 'Hammer', 'Brille', 'Kamera', 'Kette', 'Tasche', 'Uhr', 'Tasse', 'Jacke', 'Kiste', 'Flasche', 'Eimer', 'Lampe', 'Löffel']","['gepunktet', 'verspielt', 'kratzig', 'niedlich', 'hübsch', 'teuer', 'kurz', 'blass', 'gestreift', 'winzig', 'kaputt', 'strahlend', 'hohl', 'neu', 'breit', 'elegant', 'flach', 'praktisch', 'gut', 'schwer', 'hässlich', 'glänzend', 'flauschig', 'matt', 'dunkel', 'sauber', 'groß', 'nass', 'klobig', 'krumm']",3,1.9322871000040323,None,,,,,,,,,,,,,,,,,,,,,,,,,,,,,,,,,,,,,,,,,,,,,,,,,,,,,,,,,,,,,,,,,3,2023-12-12_08h35.54.506,watkins1,2023.2.3,99.75888282560597,59,2023-12-12 08h36.10.813558 +0000,
,,,,,,,,,,,0,0,0,0,,,,,,,,,,,,,256.57871339982376,,,,,,,,,,256.5700966999866,257.06084269983694,,,[],[],,,,,,,,,,,krumm,None,None,,,,,,,,,,Löffel,krumm,"['Löffel', 'krumm']",test_adj,3,,,,,,256.57001949986443,256.5700691000093,"['Löffel', 'Schlüssel', 'Hut', 'Trommel', 'Telefon', 'Rucksack', 'Hammer', 'Flasche', 'Kette', 'Socke', 'Bürste', 'Ring', 'Uhr', 'Blume', 'Stift', 'Tasche', 'Brille', 'Schere', 'Jacke', 'Lampe', 'Buch', 'Kerze', 'Kamera', 'Vase', 'Fahrrad', 'Kiste', 'Eimer', 'Geige', 'Tasse', 'Würfel']",257.06085299979895,257.06358079984784,None,257.06376419984736,257.0663634999655,None,257.0665249999147,257.069032699801,None,257.06942750001326,0,263.07564779999666,263.0756633998826,263.0770246000029,,,,,,,,,,,,,,,,,,,,,,,,,,,,,,,,,,,,,,,,,,,,,,,,3,2023-12-12_08h35.54.506,watkins1,2023.2.3,99.75888282560597,59,2023-12-12 08h36.10.813558 +0000,
,,,,,,,,,,,1,0,1,0,,,,,,,,,,,,,263.08532049995847,,,,,,,,,,263.07733140001073,263.56735119991936,,,[],[],,,,,,,,,,,,None,None,,,,,,,,,,Schlüssel,strahlend,"['Schlüssel', 'strahlend']",restudy,3,,,,,,263.0772607999388,263.0773020000197,"['Löffel', 'Schlüssel', 'Hut', 'Trommel', 'Telefon', 'Rucksack', 'Hammer', 'Flasche', 'Kette', 'Socke', 'Bürste', 'Ring', 'Uhr', 'Blume', 'Stift', 'Tasche', 'Brille', 'Schere', 'Jacke', 'Lampe', 'Buch', 'Kerze', 'Kamera', 'Vase', 'Fahrrad', 'Kiste', 'Eimer', 'Geige', 'Tasse', 'Würfel']",263.5673618998844,263.56908389995806,None,263.5692151999101,269.57838999992236,1,269.5787682000082,269.58161679981276,None,269.58173349988647,,269.58329420001246,269.5833063998725,269.584548200015,3.658278699964285,None,,,,,,,,,,,,,,,,,,,,,,,,,,,,,,,,,,,,,,,,,,,,,,3,2023-12-12_08h35.54.506,watkins1,2023.2.3,99.75888282560597,59,2023-12-12 08h36.10.813558 +0000,
,,,,,,,,,,,2,0,2,0,,,,,,,,,,,,,269.58781389985234,,,,,,,,,,269.58483619987965,270.07986089983024,,,[],[],,,,,,,,,,,,None,None,,,,,,,,,,Hut,neu,"['Hut', 'neu']",restudy,3,,,,,,269.5847699998412,269.58480949979275,"['Löffel', 'Schlüssel', 'Hut', 'Trommel', 'Telefon', 'Rucksack', 'Hammer', 'Flasche', 'Kette', 'Socke', 'Bürste', 'Ring', 'Uhr', 'Blume', 'Stift', 'Tasche', 'Brille', 'Schere', 'Jacke', 'Lampe', 'Buch', 'Kerze', 'Kamera', 'Vase', 'Fahrrad', 'Kiste', 'Eimer', 'Geige', 'Tasse', 'Würfel']",270.07987149991095,270.0824593999423,None,270.0825860998593,276.08777869981714,3,276.08810029993765,276.09094879985787,None,276.0910745000001,,276.09221899998374,276.0922314999625,276.09328949986957,2.2503863000310957,None,,,,,,,,,,,,,,,,,,,,,,,,,,,,,,,,,,,,,,,,,,,,,,3,2023-12-12_08h35.54.506,watkins1,2023.2.3,99.75888282560597,59,2023-12-12 08h36.10.813558 +0000,
,,,,,,,,,,,3,0,3,0,,,,,,,,,,,,,276.09715719986707,,,,,,,,,,276.0936019998044,276.5890734998975,,,[],[],,,,,,,,,,,,None,None,,,,,,,,,,Trommel,gepunktet,"['Trommel', 'gepunktet']",restudy,3,,,,,,276.09352339990437,276.09357279981486,"['Löffel', 'Schlüssel', 'Hut', 'Trommel', 'Telefon', 'Rucksack', 'Hammer', 'Flasche', 'Kette', 'Socke', 'Bürste', 'Ring', 'Uhr', 'Blume', 'Stift', 'Tasche', 'Brille', 'Schere', 'Jacke', 'Lampe', 'Buch', 'Kerze', 'Kamera', 'Vase', 'Fahrrad', 'Kiste', 'Eimer', 'Geige', 'Tasse', 'Würfel']",276.58908499986865,276.59169709985144,None,276.59182849992067,282.596356799826,1,282.59666259982623,282.5995627997909,None,282.59968300000764,,282.6012064998504,282.60121899982914,282.6027704998851,1.0923594001214951,None,,,,,,,,,,,,,,,,,,,,,,,,,,,,,,,,,,,,,,,,,,,,,,3,2023-12-12_08h35.54.506,watkins1,2023.2.3,99.75888282560597,59,2023-12-12 08h36.10.813558 +0000,
,,,,,,,,,,,4,0,4,0,,,,,,,,,,,,,282.6059963000007,,,,,,,,,,282.6030950997956,283.09800049988553,,,[],[],,,,,,,,,,,,None,None,,,,,,,,,,Telefon,blass,"['Telefon', 'blass']",restudy,3,,,,,,282.60302489995956,282.6030669999309,"['Löffel', 'Schlüssel', 'Hut', 'Trommel', 'Telefon', 'Rucksack', 'Hammer', 'Flasche', 'Kette', 'Socke', 'Bürste', 'Ring', 'Uhr', 'Blume', 'Stift', 'Tasche', 'Brille', 'Schere', 'Jacke', 'Lampe', 'Buch', 'Kerze', 'Kamera', 'Vase', 'Fahrrad', 'Kiste', 'Eimer', 'Geige', 'Tasse', 'Würfel']",283.09801099984907,283.1007906999439,None,283.1009174999781,289.10232639987953,1,289.10263169999234,289.10541499988176,None,289.1055326999631,,289.10674309986643,289.10675549996085,289.1079257999081,1.1436318999622017,None,,,,,,,,,,,,,,,,,,,,,,,,,,,,,,,,,,,,,,,,,,,,,,3,2023-12-12_08h35.54.506,watkins1,2023.2.3,99.75888282560597,59,2023-12-12 08h36.10.813558 +0000,
,,,,,,,,,,,5,0,5,0,,,,,,,,,,,,,289.1117891999893,,,,,,,,,,289.1082178999204,289.6037442998495,,,[],[],,,,,,,,,,,hohl,None,None,,,,,,,,,,Rucksack,hohl,"['Rucksack', 'hohl']",test_adj,3,,,,,,289.10815139999613,289.10819089994766,"['Löffel', 'Schlüssel', 'Hut', 'Trommel', 'Telefon', 'Rucksack', 'Hammer', 'Flasche', 'Kette', 'Socke', 'Bürste', 'Ring', 'Uhr', 'Blume', 'Stift', 'Tasche', 'Brille', 'Schere', 'Jacke', 'Lampe', 'Buch', 'Kerze', 'Kamera', 'Vase', 'Fahrrad', 'Kiste', 'Eimer', 'Geige', 'Tasse', 'Würfel']",289.60375529993325,289.6065729998518,None,289.6067059999332,289.6082173998002,None,289.60833139996976,289.6098378999159,None,289.60995079996064,0,295.61279339995235,295.6128081998322,295.6140852998942,,,,,,,,,,,,,,,,,,,,,,,,,,,,,,,,,,,,,,,,,,,,,,,,3,2023-12-12_08h35.54.506,watkins1,2023.2.3,99.75888282560597,59,2023-12-12 08h36.10.813558 +0000,
,,,,,,,,,,,6,0,6,0,,,,,,,,,,,,,295.6225564000197,,,,,,,,,,295.61438349983655,296.1047025998123,,,[],[],,,,,,,,,,,,None,None,,,,,,,,,,Hammer,praktisch,"['Hammer', 'praktisch']",restudy,3,,,,,,295.6143104999792,295.6143520998303,"['Löffel', 'Schlüssel', 'Hut', 'Trommel', 'Telefon', 'Rucksack', 'Hammer', 'Flasche', 'Kette', 'Socke', 'Bürste', 'Ring', 'Uhr', 'Blume', 'Stift', 'Tasche', 'Brille', 'Schere', 'Jacke', 'Lampe', 'Buch', 'Kerze', 'Kamera', 'Vase', 'Fahrrad', 'Kiste', 'Eimer', 'Geige', 'Tasse', 'Würfel']",296.10471310000867,296.1073262998834,None,296.1074533998035,302.11204669997096,3,302.11235999991186,302.11521800002083,None,302.1153323999606,,302.11683499999344,302.1168472999707,302.11809599981643,1.5929260000120848,None,,,,,,,,,,,,,,,,,,,,,,,,,,,,,,,,,,,,,,,,,,,,,,3,2023-12-12_08h35.54.506,watkins1,2023.2.3,99.75888282560597,59,2023-12-12 08h36.10.813558 +0000,
,,,,,,,,,,,7,0,7,0,,,,,,,,,,,,,302.1215019999072,,,,,,,,,,302.11838659993373,302.61362309986725,,,[],[],,,,,,,,,,,groß,None,None,,,,,,,,,,Flasche,groß,"['Flasche', 'groß']",test_adj,3,,,,,,302.1183199000079,302.11835959996097,"['Löffel', 'Schlüssel', 'Hut', 'Trommel', 'Telefon', 'Rucksack', 'Hammer', 'Flasche', 'Kette', 'Socke', 'Bürste', 'Ring', 'Uhr', 'Blume', 'Stift', 'Tasche', 'Brille', 'Schere', 'Jacke', 'Lampe', 'Buch', 'Kerze', 'Kamera', 'Vase', 'Fahrrad', 'Kiste', 'Eimer', 'Geige', 'Tasse', 'Würfel']",302.6136338999495,302.6164471998345,None,302.6165749998763,302.6180411998648,None,302.6181534000207,302.6196090998128,None,302.61971899983473,0,308.6222227998078,308.6222366997972,308.6238417997956,,,,,,,,,,,,,,,,,,,,,,,,,,,,,,,,,,,,,,,,,,,,,,,,3,2023-12-12_08h35.54.506,watkins1,2023.2.3,99.75888282560597,59,2023-12-12 08h36.10.813558 +0000,
,,,,,,,,,,,8,0,8,0,,,,,,,,,,,,,308.6320163998753,,,,,,,,,,308.62413799995556,309.1140254999045,,,[],[],,,,,,,,,,,,None,None,,,,,,,,,,Kette,hässlich,"['Kette', 'hässlich']",restudy,3,,,,,,308.624069100013,308.6241093999706,"['Löffel', 'Schlüssel', 'Hut', 'Trommel', 'Telefon', 'Rucksack', 'Hammer', 'Flasche', 'Kette', 'Socke', 'Bürste', 'Ring', 'Uhr', 'Blume', 'Stift', 'Tasche', 'Brille', 'Schere', 'Jacke', 'Lampe', 'Buch', 'Kerze', 'Kamera', 'Vase', 'Fahrrad', 'Kiste', 'Eimer', 'Geige', 'Tasse', 'Würfel']",309.1140358999837,309.11659099999815,None,309.11671649990603,315.12556539988145,2,315.1258811999578,315.12872079992667,None,315.1288381998893,,315.13033189997077,315.13034429983236,315.1315911000129,3.047664700075984,None,,,,,,,,,,,,,,,,,,,,,,,,,,,,,,,,,,,,,,,,,,,,,,3,2023-12-12_08h35.54.506,watkins1,2023.2.3,99.75888282560597,59,2023-12-12 08h36.10.813558 +0000,
,,,,,,,,,,,9,0,9,0,,,,,,,,,,,,,315.13496519997716,,,,,,,,,,315.13188399979845,315.6271533998661,,,[],[],,,,,,,,,,,,None,None,,,,,,,,,,Socke,flach,"['Socke', 'flach']",restudy,3,,,,,,315.13181699998677,315.1318569998257,"['Löffel', 'Schlüssel', 'Hut', 'Trommel', 'Telefon', 'Rucksack', 'Hammer', 'Flasche', 'Kette', 'Socke', 'Bürste', 'Ring', 'Uhr', 'Blume', 'Stift', 'Tasche', 'Brille', 'Schere', 'Jacke', 'Lampe', 'Buch', 'Kerze', 'Kamera', 'Vase', 'Fahrrad', 'Kiste', 'Eimer', 'Geige', 'Tasse', 'Würfel']",315.62716459995136,315.629952599993,None,315.63008149992675,321.63393140002154,2,321.6342247999273,321.63696019980125,None,321.63707279996015,,321.63821969996206,321.6382314998191,321.63938449998386,1.5103308998513967,None,,,,,,,,,,,,,,,,,,,,,,,,,,,,,,,,,,,,,,,,,,,,,,3,2023-12-12_08h35.54.506,watkins1,2023.2.3,99.75888282560597,59,2023-12-12 08h36.10.813558 +0000,
,,,,,,,,,,,10,0,10,0,,,,,,,,,,,,,321.64333110000007,,,,,,,,,,321.63966659992,322.1354874998797,,,[],[],,,,,,,,,,,,None,None,,,,,,,,,,Bürste,teuer,"['Bürste', 'teuer']",restudy,3,,,,,,321.6396004999988,321.6396401999518,"['Löffel', 'Schlüssel', 'Hut', 'Trommel', 'Telefon', 'Rucksack', 'Hammer', 'Flasche', 'Kette', 'Socke', 'Bürste', 'Ring', 'Uhr', 'Blume', 'Stift', 'Tasche', 'Brille', 'Schere', 'Jacke', 'Lampe', 'Buch', 'Kerze', 'Kamera', 'Vase', 'Fahrrad', 'Kiste', 'Eimer', 'Geige', 'Tasse', 'Würfel']",322.13549849996343,322.13822409999557,None,322.13835239992477,328.1417343998328,1,328.14203049987555,328.1447991000023,None,328.1449135998264,,328.1461120999884,328.1461236998439,328.14726869994774,2.9460968000348657,None,,,,,,,,,,,,,,,,,,,,,,,,,,,,,,,,,,,,,,,,,,,,,,3,2023-12-12_08h35.54.506,watkins1,2023.2.3,99.75888282560597,59,2023-12-12 08h36.10.813558 +0000,
,,,,,,,,,,,11,0,11,0,,,,,,,,,,,,,328.15113199991174,,,,,,,,,,328.1475523998961,328.6435073998291,,,[],[],,,,,,,,,,,breit,None,None,,,,,,,,,,Ring,breit,"['Ring', 'breit']",test_adj,3,,,,,,328.14748679986224,328.14752579992637,"['Löffel', 'Schlüssel', 'Hut', 'Trommel', 'Telefon', 'Rucksack', 'Hammer', 'Flasche', 'Kette', 'Socke', 'Bürste', 'Ring', 'Uhr', 'Blume', 'Stift', 'Tasche', 'Brille', 'Schere', 'Jacke', 'Lampe', 'Buch', 'Kerze', 'Kamera', 'Vase', 'Fahrrad', 'Kiste', 'Eimer', 'Geige', 'Tasse', 'Würfel']",328.64351789979264,328.6461326999124,None,328.64625679980963,328.647595499875,None,328.6477359000128,328.64905699994415,None,328.64916589995846,0,334.65224269987084,334.65225689997897,334.6536642999854,,,,,,,,,,,,,,,,,,,,,,,,,,,,,,,,,,,,,,,,,,,,,,,,3,2023-12-12_08h35.54.506,watkins1,2023.2.3,99.75888282560597,59,2023-12-12 08h36.10.813558 +0000,
,,,,,,,,,,,12,0,12,0,,,,,,,,,,,,,334.66204059985466,,,,,,,,,,334.6539580000099,335.1441296997946,,,[],[],,,,,,,,,,,,None,None,,,,,,,,,,Uhr,flauschig,"['Uhr', 'flauschig']",restudy,3,,,,,,334.65388899995014,334.6539290000219,"['Löffel', 'Schlüssel', 'Hut', 'Trommel', 'Telefon', 'Rucksack', 'Hammer', 'Flasche', 'Kette', 'Socke', 'Bürste', 'Ring', 'Uhr', 'Blume', 'Stift', 'Tasche', 'Brille', 'Schere', 'Jacke', 'Lampe', 'Buch', 'Kerze', 'Kamera', 'Vase', 'Fahrrad', 'Kiste', 'Eimer', 'Geige', 'Tasse', 'Würfel']",335.1441404998768,335.1466971000191,None,335.14682519994676,341.15000649983995,1,341.1503108998295,341.1531201999169,None,341.1532473999541,,341.15462579997256,341.1546377998311,341.1558824998792,1.2496229000389576,None,,,,,,,,,,,,,,,,,,,,,,,,,,,,,,,,,,,,,,,,,,,,,,3,2023-12-12_08h35.54.506,watkins1,2023.2.3,99.75888282560597,59,2023-12-12 08h36.10.813558 +0000,
,,,,,,,,,,,13,0,13,0,,,,,,,,,,,,,341.159569399897,,,,,,,,,,341.1561730999965,341.6516246998217,,,[],[],,,,,,,,,,,zackig,None,None,,,,,,,,,,Blume,kratzig,"['Blume', 'kratzig']",test_adj,3,,,,,,341.15610289992765,341.1561451999005,"['Löffel', 'Schlüssel', 'Hut', 'Trommel', 'Telefon', 'Rucksack', 'Hammer', 'Flasche', 'Kette', 'Socke', 'Bürste', 'Ring', 'Uhr', 'Blume', 'Stift', 'Tasche', 'Brille', 'Schere', 'Jacke', 'Lampe', 'Buch', 'Kerze', 'Kamera', 'Vase', 'Fahrrad', 'Kiste', 'Eimer', 'Geige', 'Tasse', 'Würfel']",341.651635899907,341.6544082998298,None,341.6545374998823,341.65597349987365,None,341.65608419990167,341.65753829991445,None,341.6576522998512,0,347.6612619999796,347.66127609997056,347.6626106998883,,,,,,,,,,,,,,,,,,,,,,,,,,,,,,,,,,,,,,,,,,,,,,,,3,2023-12-12_08h35.54.506,watkins1,2023.2.3,99.75888282560597,59,2023-12-12 08h36.10.813558 +0000,
,,,,,,,,,,,14,0,14,0,,,,,,,,,,,,,347.67117240000516,,,,,,,,,,347.66290789982304,348.15313519979827,,,[],[],,,,,,,,,,,kaputt,None,None,,,,,,,,,,Stift,kaputt,"['Stift', 'kaputt']",test_adj,3,,,,,,347.66283889999613,347.66287889983505,"['Löffel', 'Schlüssel', 'Hut', 'Trommel', 'Telefon', 'Rucksack', 'Hammer', 'Flasche', 'Kette', 'Socke', 'Bürste', 'Ring', 'Uhr', 'Blume', 'Stift', 'Tasche', 'Brille', 'Schere', 'Jacke', 'Lampe', 'Buch', 'Kerze', 'Kamera', 'Vase', 'Fahrrad', 'Kiste', 'Eimer', 'Geige', 'Tasse', 'Würfel']",348.15314619988203,348.15589099982753,None,348.15602059988305,348.15860059997067,None,348.1587873999961,348.16136479983106,None,348.16147819999605,0,354.1670240999665,354.16703849984333,354.16837009997107,,,,,,,,,,,,,,,,,,,,,,,,,,,,,,,,,,,,,,,,,,,,,,,,3,2023-12-12_08h35.54.506,watkins1,2023.2.3,99.75888282560597,59,2023-12-12 08h36.10.813558 +0000,
,,,,,,,,,,,15,0,15,0,,,,,,,,,,,,,354.1768170997966,,,,,,,,,,354.16866839979775,354.6588943998795,,,[],[],,,,,,,,,,,glänzend,None,None,,,,,,,,,,Tasche,glänzend,"['Tasche', 'glänzend']",test_adj,3,,,,,,354.16859759995714,354.16863889992237,"['Löffel', 'Schlüssel', 'Hut', 'Trommel', 'Telefon', 'Rucksack', 'Hammer', 'Flasche', 'Kette', 'Socke', 'Bürste', 'Ring', 'Uhr', 'Blume', 'Stift', 'Tasche', 'Brille', 'Schere', 'Jacke', 'Lampe', 'Buch', 'Kerze', 'Kamera', 'Vase', 'Fahrrad', 'Kiste', 'Eimer', 'Geige', 'Tasse', 'Würfel']",354.6589049999602,354.6616332998965,None,354.66176069993526,354.66447189985774,None,354.664584599901,354.66715359990485,None,354.6672651998233,0,360.6726929999422,360.672706999816,360.67407789989375,,,,,,,,,,,,,,,,,,,,,,,,,,,,,,,,,,,,,,,,,,,,,,,,3,2023-12-12_08h35.54.506,watkins1,2023.2.3,99.75888282560597,59,2023-12-12 08h36.10.813558 +0000,
,,,,,,,,,,,16,0,16,0,,,,,,,,,,,,,360.6824872000143,,,,,,,,,,360.67437589983456,361.16484480001964,,,[],[],,,,,,,,,,,,None,None,,,,,,,,,,Brille,gut,"['Brille', 'gut']",restudy,3,,,,,,360.67430499987677,360.6743465999607,"['Löffel', 'Schlüssel', 'Hut', 'Trommel', 'Telefon', 'Rucksack', 'Hammer', 'Flasche', 'Kette', 'Socke', 'Bürste', 'Ring', 'Uhr', 'Blume', 'Stift', 'Tasche', 'Brille', 'Schere', 'Jacke', 'Lampe', 'Buch', 'Kerze', 'Kamera', 'Vase', 'Fahrrad', 'Kiste', 'Eimer', 'Geige', 'Tasse', 'Würfel']",361.16485509998165,361.1676097000018,None,361.1677360998001,367.174273399869,3,367.17458059987985,367.1771246998105,None,367.17724009999074,,367.17873009992763,367.17874230002053,367.17975789983757,1.588812300004065,None,,,,,,,,,,,,,,,,,,,,,,,,,,,,,,,,,,,,,,,,,,,,,,3,2023-12-12_08h35.54.506,watkins1,2023.2.3,99.75888282560597,59,2023-12-12 08h36.10.813558 +0000,
,,,,,,,,,,,17,0,17,0,,,,,,,,,,,,,367.1838520998135,,,,,,,,,,367.1800488999579,367.67593039991334,,,[],[],,,,,,,,,,,,None,None,,,,,,,,,,Schere,kurz,"['Schere', 'kurz']",restudy,3,,,,,,367.1799817997962,367.180022199871,"['Löffel', 'Schlüssel', 'Hut', 'Trommel', 'Telefon', 'Rucksack', 'Hammer', 'Flasche', 'Kette', 'Socke', 'Bürste', 'Ring', 'Uhr', 'Blume', 'Stift', 'Tasche', 'Brille', 'Schere', 'Jacke', 'Lampe', 'Buch', 'Kerze', 'Kamera', 'Vase', 'Fahrrad', 'Kiste', 'Eimer', 'Geige', 'Tasse', 'Würfel']",367.67594149988145,367.6784969000146,None,367.6786252998281,373.68538969988003,1,373.6856862998102,373.68823099997826,None,373.6883451999165,,373.68952569994144,373.6895379999187,373.6905753000174,1.4614594001322985,None,,,,,,,,,,,,,,,,,,,,,,,,,,,,,,,,,,,,,,,,,,,,,,3,2023-12-12_08h35.54.506,watkins1,2023.2.3,99.75888282560597,59,2023-12-12 08h36.10.813558 +0000,
,,,,,,,,,,,18,0,18,0,,,,,,,,,,,,,373.6948444999289,,,,,,,,,,373.69086440000683,374.1869257998187,,,[],[],,,,,,,,,,,,None,None,,,,,,,,,,Jacke,dunkel,"['Jacke', 'dunkel']",test_adj,3,,,,,,373.69079809985124,373.6908371997997,"['Löffel', 'Schlüssel', 'Hut', 'Trommel', 'Telefon', 'Rucksack', 'Hammer', 'Flasche', 'Kette', 'Socke', 'Bürste', 'Ring', 'Uhr', 'Blume', 'Stift', 'Tasche', 'Brille', 'Schere', 'Jacke', 'Lampe', 'Buch', 'Kerze', 'Kamera', 'Vase', 'Fahrrad', 'Kiste', 'Eimer', 'Geige', 'Tasse', 'Würfel']",374.18693679990247,374.18964549992234,None,374.18977329996414,374.19118650001474,None,374.1913066999987,374.19272039993666,None,374.1928302999586,0,380.1954707999248,380.19548489991575,380.1969020999968,,,,,,,,,,,,,,,,,,,,,,,,,,,,,,,,,,,,,,,,,,,,,,,,3,2023-12-12_08h35.54.506,watkins1,2023.2.3,99.75888282560597,59,2023-12-12 08h36.10.813558 +0000,
,,,,,,,,,,,19,0,19,0,,,,,,,,,,,,,380.2052598998416,,,,,,,,,,380.1971946998965,380.6872332999483,,,[],[],,,,,,,,,,,klobig,None,None,,,,,,,,,,Lampe,klobig,"['Lampe', 'klobig']",test_adj,3,,,,,,380.19712659996003,380.1971656999085,"['Löffel', 'Schlüssel', 'Hut', 'Trommel', 'Telefon', 'Rucksack', 'Hammer', 'Flasche', 'Kette', 'Socke', 'Bürste', 'Ring', 'Uhr', 'Blume', 'Stift', 'Tasche', 'Brille', 'Schere', 'Jacke', 'Lampe', 'Buch', 'Kerze', 'Kamera', 'Vase', 'Fahrrad', 'Kiste', 'Eimer', 'Geige', 'Tasse', 'Würfel']",380.6872432997916,380.68996109999716,None,380.69008809980005,380.69262619991787,None,380.69274499989115,380.6952916998416,None,380.6954034999944,0,386.70020949980244,386.7002240999136,386.70152799994685,,,,,,,,,,,,,,,,,,,,,,,,,,,,,,,,,,,,,,,,,,,,,,,,3,2023-12-12_08h35.54.506,watkins1,2023.2.3,99.75888282560597,59,2023-12-12 08h36.10.813558 +0000,
,,,,,,,,,,,20,0,20,0,,,,,,,,,,,,,386.71000829990953,,,,,,,,,,386.7018201998435,387.1920909998007,,,[],[],,,,,,,,,,,gestreift,None,None,,,,,,,,,,Buch,gestreift,"['Buch', 'gestreift']",test_adj,3,,,,,,386.70175149990246,386.7017911998555,"['Löffel', 'Schlüssel', 'Hut', 'Trommel', 'Telefon', 'Rucksack', 'Hammer', 'Flasche', 'Kette', 'Socke', 'Bürste', 'Ring', 'Uhr', 'Blume', 'Stift', 'Tasche', 'Brille', 'Schere', 'Jacke', 'Lampe', 'Buch', 'Kerze', 'Kamera', 'Vase', 'Fahrrad', 'Kiste', 'Eimer', 'Geige', 'Tasse', 'Würfel']",387.19210099987686,387.19465159997344,None,387.1947776998859,387.19718469982035,None,387.1972966999747,387.1997047998011,None,387.19981749984436,0,393.20441659982316,393.20443139993586,393.20580290001817,,,,,,,,,,,,,,,,,,,,,,,,,,,,,,,,,,,,,,,,,,,,,,,,3,2023-12-12_08h35.54.506,watkins1,2023.2.3,99.75888282560597,59,2023-12-12 08h36.10.813558 +0000,
,,,,,,,,,,,21,0,21,0,,,,,,,,,,,,,393.2141851999331,,,,,,,,,,393.20609789993614,393.69635059987195,,,[],[],,,,,,,,,,,flauschig,None,None,,,,,,,,,,Kerze,verspielt,"['Kerze', 'verspielt']",test_adj,3,,,,,,393.2060273999814,393.2060682999436,"['Löffel', 'Schlüssel', 'Hut', 'Trommel', 'Telefon', 'Rucksack', 'Hammer', 'Flasche', 'Kette', 'Socke', 'Bürste', 'Ring', 'Uhr', 'Blume', 'Stift', 'Tasche', 'Brille', 'Schere', 'Jacke', 'Lampe', 'Buch', 'Kerze', 'Kamera', 'Vase', 'Fahrrad', 'Kiste', 'Eimer', 'Geige', 'Tasse', 'Würfel']",393.696361299837,393.69910430000164,None,393.6992338998243,393.70181260001846,None,393.7019270998426,393.7045024000108,None,393.7046121999156,0,399.709679499967,399.709693999961,399.7110569998622,,,,,,,,,,,,,,,,,,,,,,,,,,,,,,,,,,,,,,,,,,,,,,,,3,2023-12-12_08h35.54.506,watkins1,2023.2.3,99.75888282560597,59,2023-12-12 08h36.10.813558 +0000,
,,,,,,,,,,,22,0,22,0,,,,,,,,,,,,,399.71947759995237,,,,,,,,,,399.7113526999019,400.20154939987697,,,[],[],,,,,,,,,,,,None,None,,,,,,,,,,Kamera,schwer,"['Kamera', 'schwer']",restudy,3,,,,,,399.711280999938,399.7113226999063,"['Löffel', 'Schlüssel', 'Hut', 'Trommel', 'Telefon', 'Rucksack', 'Hammer', 'Flasche', 'Kette', 'Socke', 'Bürste', 'Ring', 'Uhr', 'Blume', 'Stift', 'Tasche', 'Brille', 'Schere', 'Jacke', 'Lampe', 'Buch', 'Kerze', 'Kamera', 'Vase', 'Fahrrad', 'Kiste', 'Eimer', 'Geige', 'Tasse', 'Würfel']",400.20155979995616,400.2043160998728,None,400.20444180001505,406.20928279985674,3,406.20959219988436,406.21238749986514,None,406.21250209980644,,406.21398979984224,406.214002299821,406.2151828999631,1.5038048001006246,None,,,,,,,,,,,,,,,,,,,,,,,,,,,,,,,,,,,,,,,,,,,,,,3,2023-12-12_08h35.54.506,watkins1,2023.2.3,99.75888282560597,59,2023-12-12 08h36.10.813558 +0000,
,,,,,,,,,,,23,0,23,0,,,,,,,,,,,,,406.21874309983104,,,,,,,,,,406.21547359996475,406.7106262999587,,,[],[],,,,,,,,,,,elegant,None,None,,,,,,,,,,Vase,elegant,"['Vase', 'elegant']",test_adj,3,,,,,,406.21540559991263,406.2154457999859,"['Löffel', 'Schlüssel', 'Hut', 'Trommel', 'Telefon', 'Rucksack', 'Hammer', 'Flasche', 'Kette', 'Socke', 'Bürste', 'Ring', 'Uhr', 'Blume', 'Stift', 'Tasche', 'Brille', 'Schere', 'Jacke', 'Lampe', 'Buch', 'Kerze', 'Kamera', 'Vase', 'Fahrrad', 'Kiste', 'Eimer', 'Geige', 'Tasse', 'Würfel']",406.7106370998081,406.7132426998578,None,406.7133714999072,406.7146971998736,None,406.7148113998119,406.71614339994267,None,406.7162552999798,0,412.7191405999474,412.7191548999399,412.7204851999413,,,,,,,,,,,,,,,,,,,,,,,,,,,,,,,,,,,,,,,,,,,,,,,,3,2023-12-12_08h35.54.506,watkins1,2023.2.3,99.75888282560597,59,2023-12-12 08h36.10.813558 +0000,
,,,,,,,,,,,24,0,24,0,,,,,,,,,,,,,412.7289423998445,,,,,,,,,,412.7207795998547,413.21104369987734,,,[],[],,,,,,,,,,,hübsch,None,None,,,,,,,,,,Fahrrad,hübsch,"['Fahrrad', 'hübsch']",test_adj,3,,,,,,412.72071000002325,412.72074999986216,"['Löffel', 'Schlüssel', 'Hut', 'Trommel', 'Telefon', 'Rucksack', 'Hammer', 'Flasche', 'Kette', 'Socke', 'Bürste', 'Ring', 'Uhr', 'Blume', 'Stift', 'Tasche', 'Brille', 'Schere', 'Jacke', 'Lampe', 'Buch', 'Kerze', 'Kamera', 'Vase', 'Fahrrad', 'Kiste', 'Eimer', 'Geige', 'Tasse', 'Würfel']",413.2110540999565,413.2138344999403,None,413.2139627998695,413.21656439988874,None,413.216678599827,413.2197855999693,None,413.2198981998954,0,419.22626949986443,419.2262837998569,419.2276058997959,,,,,,,,,,,,,,,,,,,,,,,,,,,,,,,,,,,,,,,,,,,,,,,,3,2023-12-12_08h35.54.506,watkins1,2023.2.3,99.75888282560597,59,2023-12-12 08h36.10.813558 +0000,
,,,,,,,,,,,25,0,25,0,,,,,,,,,,,,,419.23606669995934,,,,,,,,,,419.2278998999391,419.7180596999824,,,[],[],,,,,,,,,,,sauber,None,None,,,,,,,,,,Kiste,sauber,"['Kiste', 'sauber']",test_adj,3,,,,,,419.2278299999889,419.2278707998339,"['Löffel', 'Schlüssel', 'Hut', 'Trommel', 'Telefon', 'Rucksack', 'Hammer', 'Flasche', 'Kette', 'Socke', 'Bürste', 'Ring', 'Uhr', 'Blume', 'Stift', 'Tasche', 'Brille', 'Schere', 'Jacke', 'Lampe', 'Buch', 'Kerze', 'Kamera', 'Vase', 'Fahrrad', 'Kiste', 'Eimer', 'Geige', 'Tasse', 'Würfel']",419.71807009982876,419.7208875999786,None,419.72101480001584,419.7235184998717,None,419.72362939990126,419.72613539989106,None,419.72624569991603,0,425.73128509987146,425.731299799867,425.73261939990334,,,,,,,,,,,,,,,,,,,,,,,,,,,,,,,,,,,,,,,,,,,,,,,,3,2023-12-12_08h35.54.506,watkins1,2023.2.3,99.75888282560597,59,2023-12-12 08h36.10.813558 +0000,
,,,,,,,,,,,26,0,26,0,,,,,,,,,,,,,425.741087900009,,,,,,,,,,425.7329151998274,426.22332199988887,,,[],[],,,,,,,,,,,,None,None,,,,,,,,,,Eimer,nass,"['Eimer', 'nass']",restudy,3,,,,,,425.7328443999868,425.732885699952,"['Löffel', 'Schlüssel', 'Hut', 'Trommel', 'Telefon', 'Rucksack', 'Hammer', 'Flasche', 'Kette', 'Socke', 'Bürste', 'Ring', 'Uhr', 'Blume', 'Stift', 'Tasche', 'Brille', 'Schere', 'Jacke', 'Lampe', 'Buch', 'Kerze', 'Kamera', 'Vase', 'Fahrrad', 'Kiste', 'Eimer', 'Geige', 'Tasse', 'Würfel']",426.22333219996653,426.2260654999409,None,426.2262001999188,432.2292371999938,2,432.2295382998418,432.2321557998657,None,432.2322728999425,,432.23374479985796,432.2337570998352,432.2348080999218,1.5861954998690635,None,,,,,,,,,,,,,,,,,,,,,,,,,,,,,,,,,,,,,,,,,,,,,,3,2023-12-12_08h35.54.506,watkins1,2023.2.3,99.75888282560597,59,2023-12-12 08h36.10.813558 +0000,
,,,,,,,,,,,27,0,27,0,,,,,,,,,,,,,432.2385743998457,,,,,,,,,,432.2350967999082,432.73064199998043,,,[],[],,,,,,,,,,,,None,None,,,,,,,,,,Geige,niedlich,"['Geige', 'niedlich']",restudy,3,,,,,,432.23503019986674,432.2350698998198,"['Löffel', 'Schlüssel', 'Hut', 'Trommel', 'Telefon', 'Rucksack', 'Hammer', 'Flasche', 'Kette', 'Socke', 'Bürste', 'Ring', 'Uhr', 'Blume', 'Stift', 'Tasche', 'Brille', 'Schere', 'Jacke', 'Lampe', 'Buch', 'Kerze', 'Kamera', 'Vase', 'Fahrrad', 'Kiste', 'Eimer', 'Geige', 'Tasse', 'Würfel']",432.7306521998253,432.7332062998321,None,432.73333349986933,438.7365941000171,2,438.7369016997982,438.73969379998744,None,438.73981299996376,,438.7409946999978,438.7410070998594,438.74224769999273,2.03123790002428,None,,,,,,,,,,,,,,,,,,,,,,,,,,,,,,,,,,,,,,,,,,,,,,3,2023-12-12_08h35.54.506,watkins1,2023.2.3,99.75888282560597,59,2023-12-12 08h36.10.813558 +0000,
,,,,,,,,,,,28,0,28,0,,,,,,,,,,,,,438.74603319983,,,,,,,,,,438.74254149990156,439.23856049985625,,,[],[],,,,,,,,,,,,None,None,,,,,,,,,,Tasse,matt,"['Tasse', 'matt']",test_adj,3,,,,,,438.7424733999651,438.74251359980553,"['Löffel', 'Schlüssel', 'Hut', 'Trommel', 'Telefon', 'Rucksack', 'Hammer', 'Flasche', 'Kette', 'Socke', 'Bürste', 'Ring', 'Uhr', 'Blume', 'Stift', 'Tasche', 'Brille', 'Schere', 'Jacke', 'Lampe', 'Buch', 'Kerze', 'Kamera', 'Vase', 'Fahrrad', 'Kiste', 'Eimer', 'Geige', 'Tasse', 'Würfel']",439.23857079981826,439.24128999980167,None,439.2414190999698,439.2429984998889,None,439.2431120998226,439.2445294999052,None,439.24464049981907,0,445.24777239980176,445.24778769980185,445.24911809992045,,,,,,,,,,,,,,,,,,,,,,,,,,,,,,,,,,,,,,,,,,,,,,,,3,2023-12-12_08h35.54.506,watkins1,2023.2.3,99.75888282560597,59,2023-12-12 08h36.10.813558 +0000,
,,,,,,,,,,,29,0,29,0,,,,,,,,,,,,,445.2574804998003,,,,,,,,,,445.24944249982946,445.73954699980095,,,[],[],,,,,,,,,,,,None,None,,,,,,,,,,Würfel,winzig,"['Würfel', 'winzig']",restudy,3,,,,,,445.2493670999538,445.24941199994646,"['Löffel', 'Schlüssel', 'Hut', 'Trommel', 'Telefon', 'Rucksack', 'Hammer', 'Flasche', 'Kette', 'Socke', 'Bürste', 'Ring', 'Uhr', 'Blume', 'Stift', 'Tasche', 'Brille', 'Schere', 'Jacke', 'Lampe', 'Buch', 'Kerze', 'Kamera', 'Vase', 'Fahrrad', 'Kiste', 'Eimer', 'Geige', 'Tasse', 'Würfel']",445.7395577998832,445.7421426998917,None,445.74227039981633,451.7459239999298,2,451.7462229998782,451.7490465999581,None,451.7491627999116,,451.7503577999305,451.7503698999062,451.7515584998764,1.9419262001756579,None,,,,,,,,,,,,,,,,,,,,,,,,,,,,,,,,,,,,,,,,,,,,,,3,2023-12-12_08h35.54.506,watkins1,2023.2.3,99.75888282560597,59,2023-12-12 08h36.10.813558 +0000,
,,,,,,,,,,,,,,,,,,,,,,,,,,,,,,,,,,,,,,,,,,,,,,,,,,,,,,,,,,,,,,,,,,,,,3,,,,,,,,,,,,,,,,,,,,,,,,,,,,,,,,,,,,,,,,,,,,,,,,,,,,,,,,,,,,,,,,,,,,,,3,2023-12-12_08h35.54.506,watkins1,2023.2.3,99.75888282560597,59,2023-12-12 08h36.10.813558 +0000,
(80 : 10) + 9 = 17 ,Correct,button_correct,,,,,,,,,,,,,0,0,0,3,,,,,,,,,470.94499639980495,,,,,,,,469.90580589999445,470.90946120000444,,,,,['button_correct'],[5.583898300072178],,,,,,,,,,,,,,,,,,,,,,,,,,distractorTask,3,,,,,,,,,,,,,,,,,,,,,,,,,470.93311339989305,470.94499639980495,476.5225592998322,[0.2916666666666667],[-0.37777777777777777],[1],[0],[0],[5.583898300072178],['button_correct'],476.5232431998011,477.52610949985683,,,,,,,,,,,,,,,,,,,,,,,,,,,,,,,,,,3,2023-12-12_08h35.54.506,watkins1,2023.2.3,99.75888282560597,59,2023-12-12 08h36.10.813558 +0000,
(28 : 7) - 3 = 1 ,Correct,button_correct,,,,,,,,,,,,,0,1,1,0,,,,,,,,,477.5361802999396,,,,,,,,,,,,,,['button_correct'],[5.480644900118932],,,,,,,,,,,,,,,,,,,,,,,,,,distractorTask,3,,,,,,,,,,,,,,,,,,,,,,,,,477.5263012999203,477.5361802999396,483.00968829984777,[0.30925925925925923],[-0.3787037037037037],[1],[0],[0],[5.480644900118932],['button_correct'],483.010081499815,484.0135982998181,,,,,,,,,,,,,,,,,,,,,,,,,,,,,,,,,,3,2023-12-12_08h35.54.506,watkins1,2023.2.3,99.75888282560597,59,2023-12-12 08h36.10.813558 +0000,
(6 x 3) + 10 = 27 ,Incorrect,button_incorrect,,,,,,,,,,,,,0,2,2,8,,,,,,,,,484.02359179989435,,,,,,,,,,,,,,['button_incorrect'],[2.8893875000067055],,,,,,,,,,,,,,,,,,,,,,,,,,distractorTask,3,,,,,,,,,,,,,,,,,,,,,,,,,484.013797899941,484.02359179989435,486.90617169998586,[-0.3398148148148148],[-0.39444444444444443],[1],[0],[0],[2.8893875000067055],['button_incorrect'],486.90655339998193,487.9099391999189,,,,,,,,,,,,,,,,,,,,,,,,,,,,,,,,,,3,2023-12-12_08h35.54.506,watkins1,2023.2.3,99.75888282560597,59,2023-12-12 08h36.10.813558 +0000,
(54 : 6) - 10 = 0 ,Incorrect,button_incorrect,,,,,,,,,,,,,0,3,3,5,,,,,,,,,487.9198679998517,,,,,,,,,,,,,,['button_incorrect'],[3.3619383999612182],,,,,,,,,,,,,,,,,,,,,,,,,,distractorTask,3,,,,,,,,,,,,,,,,,,,,,,,,,487.9101329999976,487.9198679998517,491.2745536000002,[-0.29259259259259257],[-0.39351851851851855],[1],[0],[0],[3.3619383999612182],['button_incorrect'],491.2749409999233,492.2783756998833,,,,,,,,,,,,,,,,,,,,,,,,,,,,,,,,,,3,2023-12-12_08h35.54.506,watkins1,2023.2.3,99.75888282560597,59,2023-12-12 08h36.10.813558 +0000,
(2 x 5) + 3 = 13 ,Correct,button_correct,,,,,,,,,,,,,0,4,4,2,,,,,,,,,492.28836170001887,,,,,,,,,,,,,,['button_correct'],[1.6656406000256538],,,,,,,,,,,,,,,,,,,,,,,,,,distractorTask,3,,,,,,,,,,,,,,,,,,,,,,,,,492.2785713998601,492.28836170001887,493.94593199994415,[0.32037037037037036],[-0.4166666666666667],[1],[0],[0],[1.6656406000256538],['button_correct'],493.94631829997525,494.94960019993596,,,,,,,,,,,,,,,,,,,,,,,,,,,,,,,,,,3,2023-12-12_08h35.54.506,watkins1,2023.2.3,99.75888282560597,59,2023-12-12 08h36.10.813558 +0000,
(4 : 2) + 4 = 6 ,Correct,button_correct,,,,,,,,,,,,,0,5,5,1,,,,,,,,,494.9595876999665,,,,,,,,,,,,,,['button_correct'],[2.901096999878064],,,,,,,,,,,,,,,,,,,,,,,,,,distractorTask,3,,,,,,,,,,,,,,,,,,,,,,,,,494.94979859981686,494.9595876999665,497.8526073999237,[0.29259259259259257],[-0.3972222222222222],[1],[0],[0],[2.901096999878064],['button_correct'],497.8529991998803,498.85627559991553,,,,,,,,,,,,,,,,,,,,,,,,,,,,,,,,,,3,2023-12-12_08h35.54.506,watkins1,2023.2.3,99.75888282560597,59,2023-12-12 08h36.10.813558 +0000,
(40 : 5) + 8 = 15 ,Incorrect,button_incorrect,,,,,,,,,,,,,0,6,6,7,,,,,,,,,498.8662568998989,,,,,,,,,,,,,,['button_incorrect'],[3.7038780997972935],,,,,,,,,,,,,,,,,,,,,,,,,,distractorTask,3,,,,,,,,,,,,,,,,,,,,,,,,,498.8564678998664,498.8662568998989,502.5620660998393,[-0.31203703703703706],[-0.39351851851851855],[1],[0],[0],[3.7038780997972935],['button_incorrect'],502.5624611999374,503.5660164000001,,,,,,,,,,,,,,,,,,,,,,,,,,,,,,,,,,3,2023-12-12_08h35.54.506,watkins1,2023.2.3,99.75888282560597,59,2023-12-12 08h36.10.813558 +0000,
(9 x 5) - 9 = 36 ,Correct,button_correct,,,,,,,,,,,,,0,7,7,4,,,,,,,,,503.5759979998693,,,,,,,,,,,,,,['button_correct'],[3.6539723000023514],,,,,,,,,,,,,,,,,,,,,,,,,,distractorTask,3,,,,,,,,,,,,,,,,,,,,,,,,,503.5662107998505,503.5759979998693,507.22189960000105,[0.28888888888888886],[-0.3990740740740741],[1],[0],[0],[3.6539723000023514],['button_correct'],507.2222831998952,508.2254419999663,,,,,,,,,,,,,,,,,,,,,,,,,,,,,,,,,,3,2023-12-12_08h35.54.506,watkins1,2023.2.3,99.75888282560597,59,2023-12-12 08h36.10.813558 +0000,
(25 : 5) + 5 = 9 ,Incorrect,button_incorrect,,,,,,,,,,,,,0,8,8,6,,,,,,,,,508.23553109983914,,,,,,,,,,,,,,['button_incorrect'],[1.8971412000246346],,,,,,,,,,,,,,,,,,,,,,,,,,distractorTask,3,,,,,,,,,,,,,,,,,,,,,,,,,508.2256314000115,508.23553109983914,510.1244799999986,[-0.3],[-0.38981481481481484],[1],[0],[0],[1.8971412000246346],['button_incorrect'],510.1248671999201,511.12803729996085,,,,,,,,,,,,,,,,,,,,,,,,,,,,,,,,,,3,2023-12-12_08h35.54.506,watkins1,2023.2.3,99.75888282560597,59,2023-12-12 08h36.10.813558 +0000,
(7 x 6) + 9 = 48 ,Incorrect,button_incorrect,,,,,,,,,,,,,0,9,9,9,,,,,,,,,511.1379908998497,,,,,,,,,,,,,,['button_incorrect'],[3.5234427000395954],,,,,,,,,,,,,,,,,,,,,,,,,,distractorTask,3,,,,,,,,,,,,,,,,,,,,,,,,,511.1282303999178,511.1379908998497,514.6535236998461,[-0.3388888888888889],[-0.38425925925925924],[1],[0],[0],[3.5234427000395954],['button_incorrect'],514.6539105998818,515.6569817999844,,,,,,,,,,,,,,,,,,,,,,,,,,,,,,,,,,3,2023-12-12_08h35.54.506,watkins1,2023.2.3,99.75888282560597,59,2023-12-12 08h36.10.813558 +0000,
,,,,,,,,,,,,,,,,,,,,,,,,,,,,,,,,,,,,,,,,,,,,,,,,,,,,,,,,,,,,,,,,,,,,,3,,,,,,,,,,,,,,,,,,,,,,,,,,,,,,,,,,,,,,,,,,,,,,,,,,,,,,,,,,,,,,,,,,,,,,3,2023-12-12_08h35.54.506,watkins1,2023.2.3,99.75888282560597,59,2023-12-12 08h36.10.813558 +0000,
,,,,,,,,,,,,,,,,,,,0,0,0,0,,,,,525.2255390000064,,,,,,,,,,,,,,Tasche,7.183056199923158,,,,,,,,,,,,3.393804900115356,None,,,,,,,,,,,,,freeRecallSub,3,,,,,,,,,,,,,,,,,,,,,,,,,,,,,,,,,,,,,525.2168972999789,525.2255390000064,525.2255390000064,532.4158375000115,return,7.183056199923158,None,Tasche,[-0.027777777777777776],[0.03888888888888889],[1],[0],[0],[2.4893757000099868],[],,,,,,,,,,,,,,,,,,,3,2023-12-12_08h35.54.506,watkins1,2023.2.3,99.75888282560597,59,2023-12-12 08h36.10.813558 +0000,
,,,,,,,,,,,,,,,,,,,1,0,1,0,,,,,532.4280406998005,,,,,,,,,,,,,,Tasse,1.2125678998418152,,,,,,,,,,,,0.2128686998039484,None,,,,,,,,,,,,,freeRecallSub,3,,,,,,,,,,,,,,,,,,,,,,,,,,,,,,,,,,,,,532.4176358999684,532.4280406998005,532.4280406998005,533.6447818998713,return,1.2125678998418152,None,Tasse,[],[],[],[],[],[],[],,,,,,,,,,,,,,,,,,,3,2023-12-12_08h35.54.506,watkins1,2023.2.3,99.75888282560597,59,2023-12-12 08h36.10.813558 +0000,
,,,,,,,,,,,,,,,,,,,2,0,2,0,,,,,533.655417499831,,,,,,,,,,,,,,Fahrrad,1.713194299954921,,,,,,,,,,,,0.24060739995911717,None,,,,,,,,,,,,,freeRecallSub,3,,,,,,,,,,,,,,,,,,,,,,,,,,,,,,,,,,,,,533.6460551999044,533.655417499831,533.655417499831,535.3728306000121,return,1.713194299954921,None,Fahrrad,[],[],[],[],[],[],[],,,,,,,,,,,,,,,,,,,3,2023-12-12_08h35.54.506,watkins1,2023.2.3,99.75888282560597,59,2023-12-12 08h36.10.813558 +0000,
,,,,,,,,,,,,,,,,,,,3,0,3,0,,,,,535.3839580998756,,,,,,,,,,,,,,Würfel,1.6405990999192,,,,,,,,,,,,0.2613971000537276,None,,,,,,,,,,,,,freeRecallSub,3,,,,,,,,,,,,,,,,,,,,,,,,,,,,,,,,,,,,,535.3740995000117,535.3839580998756,535.3839580998756,537.0311793999281,return,1.6405990999192,None,Würfel,[],[],[],[],[],[],[],,,,,,,,,,,,,,,,,,,3,2023-12-12_08h35.54.506,watkins1,2023.2.3,99.75888282560597,59,2023-12-12 08h36.10.813558 +0000,
,,,,,,,,,,,,,,,,,,,4,0,4,0,,,,,537.042531499872,,,,,,,,,,,,,,Jacke,1.086008399957791,,,,,,,,,,,,0.19142000004649162,None,,,,,,,,,,,,,freeRecallSub,3,,,,,,,,,,,,,,,,,,,,,,,,,,,,,,,,,,,,,537.0324605999049,537.042531499872,537.042531499872,538.1376370999496,return,1.086008399957791,None,Jacke,[],[],[],[],[],[],[],,,,,,,,,,,,,,,,,,,3,2023-12-12_08h35.54.506,watkins1,2023.2.3,99.75888282560597,59,2023-12-12 08h36.10.813558 +0000,
,,,,,,,,,,,,,,,,,,,5,0,5,0,,,,,538.1492388998158,,,,,,,,,,,,,,Rucksack,2.427291200030595,,,,,,,,,,,,0.31262990017421544,None,,,,,,,,,,,,,freeRecallSub,3,,,,,,,,,,,,,,,,,,,,,,,,,,,,,,,,,,,,,538.1389125999995,538.1492388998158,538.1492388998158,540.5805289999116,return,2.427291200030595,None,Rucksack,[],[],[],[],[],[],[],,,,,,,,,,,,,,,,,,,3,2023-12-12_08h35.54.506,watkins1,2023.2.3,99.75888282560597,59,2023-12-12 08h36.10.813558 +0000,
,,,,,,,,,,,,,,,,,,,6,0,6,0,,,,,540.5925162998028,,,,,,,,,,,,,,Geige,3.5360793999861926,,,,,,,,,,,,1.7999292998574674,None,,,,,,,,,,,,,freeRecallSub,3,,,,,,,,,,,,,,,,,,,,,,,,,,,,,,,,,,,,,540.5819110998418,540.5925162998028,540.5925162998028,544.1292464998551,return,3.5360793999861926,None,Geige,[],[],[],[],[],[],[],,,,,,,,,,,,,,,,,,,3,2023-12-12_08h35.54.506,watkins1,2023.2.3,99.75888282560597,59,2023-12-12 08h36.10.813558 +0000,
,,,,,,,,,,,,,,,,,,,7,0,7,0,,,,,544.1414797999896,,,,,,,,,,,,,,Fahrrad,2.202949699945748,,,,,,,,,,,,0.8159639001823962,None,,,,,,,,,,,,,freeRecallSub,3,,,,,,,,,,,,,,,,,,,,,,,,,,,,,,,,,,,,,544.1305155998562,544.1414797999896,544.1414797999896,546.3523907999042,return,2.202949699945748,None,Fahrrad,[],[],[],[],[],[],[],,,,,,,,,,,,,,,,,,,3,2023-12-12_08h35.54.506,watkins1,2023.2.3,99.75888282560597,59,2023-12-12 08h36.10.813558 +0000,
,,,,,,,,,,,,,,,,,,,8,0,8,0,,,,,546.3640123999212,,,,,,,,,,,,,,Kiste,3.0444727998692542,,,,,,,,,,,,1.3569660999346524,None,,,,,,,,,,,,,freeRecallSub,3,,,,,,,,,,,,,,,,,,,,,,,,,,,,,,,,,,,,,546.353661699919,546.3640123999212,546.3640123999212,549.4179431998637,return,3.0444727998692542,None,Kiste,[],[],[],[],[],[],[],,,,,,,,,,,,,,,,,,,3,2023-12-12_08h35.54.506,watkins1,2023.2.3,99.75888282560597,59,2023-12-12 08h36.10.813558 +0000,
,,,,,,,,,,,,,,,,,,,9,0,9,0,,,,,549.4303718998563,,,,,,,,,,,,,,Lampe,2.2981706999707967,,,,,,,,,,,,0.5347875999286771,None,,,,,,,,,,,,,freeRecallSub,3,,,,,,,,,,,,,,,,,,,,,,,,,,,,,,,,,,,,,549.4192528999411,549.4303718998563,549.4303718998563,551.7318210999947,return,2.2981706999707967,None,Lampe,[],[],[],[],[],[],[],,,,,,,,,,,,,,,,,,,3,2023-12-12_08h35.54.506,watkins1,2023.2.3,99.75888282560597,59,2023-12-12 08h36.10.813558 +0000,
,,,,,,,,,,,,,,,,,,,10,0,10,0,,,,,551.7444642998744,,,,,,,,,,,,,,Blume,39.67996979993768,,,,,,,,,,,,38.506156999850646,None,,,,,,,,,,,,,freeRecallSub,3,,,,,,,,,,,,,,,,,,,,,,,,,,,,,,,,,,,,,551.7330998999532,551.7444642998744,551.7444642998744,591.4343007998541,return,39.67996979993768,None,Blume,[],[],[],[],[],[],[],,,,,,,,,,,,,,,,,,,3,2023-12-12_08h35.54.506,watkins1,2023.2.3,99.75888282560597,59,2023-12-12 08h36.10.813558 +0000,
,,,,,,,,,,,,,,,,,,,11,0,11,0,,,,,591.4469516999088,,,,,,,,,,,,,,Ring,15.441432199906558,,,,,,,,,,,,14.494249500101432,None,,,,,,,,,,,,,freeRecallSub,3,,,,,,,,,,,,,,,,,,,,,,,,,,,,,,,,,,,,,591.4355842999648,591.4469516999088,591.4469516999088,606.8939305997919,return,15.441432199906558,None,Ring,[],[],[],[],[],[],[],,,,,,,,,,,,,,,,,,,3,2023-12-12_08h35.54.506,watkins1,2023.2.3,99.75888282560597,59,2023-12-12 08h36.10.813558 +0000,
,,,,,,,,,,,,,,,,,,,12,0,12,0,,,,,606.9067976998631,,,,,,,,,,,,,,Hut,9.837568100076169,,,,,,,,,,,,8.87189820013009,None,,,,,,,,,,,,,freeRecallSub,3,,,,,,,,,,,,,,,,,,,,,,,,,,,,,,,,,,,,,606.895226099994,606.9067976998631,606.9067976998631,616.7512348999735,return,9.837568100076169,None,Hut,[],[],[],[],[],[],[],,,,,,,,,,,,,,,,,,,3,2023-12-12_08h35.54.506,watkins1,2023.2.3,99.75888282560597,59,2023-12-12 08h36.10.813558 +0000,
,,,,,,,,,,,,,,,,,,,13,0,13,0,,,,,616.7644280998502,,,,,,,,,,,,,,Flasche,38.467930500162765,,,,,,,,,,,,33.1375380998943,35.617803799919784,,,,,,,,,,,,,freeRecallSub,3,,,,,,,,,,,,,,,,,,,,,,,,,,,,,,,,,,,,,616.752508699894,616.7644280998502,616.7644280998502,655.2420132998377,return,38.467930500162765,None,Flasche,[],[],[],[],[],[],[],,,,,,,,,,,,,,,,,,,3,2023-12-12_08h35.54.506,watkins1,2023.2.3,99.75888282560597,59,2023-12-12 08h36.10.813558 +0000,
,,,,,,,,,,,,,,,,,,,14,0,14,0,,,,,655.2552989998367,,,,,,,,,,,,,,Stift,48.33716859994456,,,,,,,,,,,,45.66767130000517,None,,,,,,,,,,,,,freeRecallSub,3,,,,,,,,,,,,,,,,,,,,,,,,,,,,,,,,,,,,,655.2433356998954,655.2552989998367,655.2552989998367,703.6024009999819,return,48.33716859994456,None,Stift,[],[],[],[],[],[],[],,,,,,,,,,,,,,,,,,,3,2023-12-12_08h35.54.506,watkins1,2023.2.3,99.75888282560597,59,2023-12-12 08h36.10.813558 +0000,
,,,,,,,,,,,,,,,,,,,15,0,15,0,,,,,703.6160824999679,,,,,,,,,,,,,,Kerze,24.048093700082973,,,,,,,,,,,,22.912666499847546,None,,,,,,,,,,,,,freeRecallSub,3,,,,,,,,,,,,,,,,,,,,,,,,,,,,,,,,,,,,,703.6037116998341,703.6160824999679,703.6160824999679,727.6711420000065,return,24.048093700082973,None,Kerze,[],[],[],[],[],[],[],,,,,,,,,,,,,,,,,,,3,2023-12-12_08h35.54.506,watkins1,2023.2.3,99.75888282560597,59,2023-12-12 08h36.10.813558 +0000,
,,,,,,,,,,,,,,,,,,,16,0,16,0,,,,,727.6849873999599,,,,,,,,,,,,,,Bürste,60.88308180007152,,,,,,,,,,,,59.33981049992144,None,,,,,,,,,,,,,freeRecallSub,3,,,,,,,,,,,,,,,,,,,,,,,,,,,,,,,,,,,,,727.67241619993,727.6849873999599,727.6849873999599,788.5691434999462,return,60.88308180007152,None,Bürste,[],[],[],[],[],[],[],,,,,,,,,,,,,,,,,,,3,2023-12-12_08h35.54.506,watkins1,2023.2.3,99.75888282560597,59,2023-12-12 08h36.10.813558 +0000,
,,,,,,,,,,,,,,,,,,,17,0,17,0,,,,,788.5826887998264,,,,,,,,,,,,,,Kamera,216.2649112001527,,,,,,,,,,,,214.73326490004547,None,,,,,,,,,,,,,freeRecallSub,3,,,,,,,,,,,,,,,,,,,,,,,,,,,,,,,,,,,,,788.5704140998423,788.5826887998264,788.5826887998264,1004.8502828998026,return,216.2649112001527,None,Kamera,[],[],[],[],[],[],[],,,,,,,,,,,,,,,,,,,3,2023-12-12_08h35.54.506,watkins1,2023.2.3,99.75888282560597,59,2023-12-12 08h36.10.813558 +0000,
,,,,,,,,,,,,,,,,,,,18,0,18,0,,,,,1004.8641875998583,,,,,,,,,,,,,,,[],,,,,,,,,,,,None,None,,,,,,,,,,,,,freeRecallSub,3,,,,,,,,,,,,,,,,,,,,,,,,,,,,,,,,,,,,,1004.8515943000093,1004.8641875998583,1004.8641875998583,1154.6193796999287,None,,,,[0.10462962962962963],[-0.3925925925925926],[1],[0],[0],[149.7614529998973],['button_continue'],,,,,,,,,,,,,,,,,,,3,2023-12-12_08h35.54.506,watkins1,2023.2.3,99.75888282560597,59,2023-12-12 08h36.10.813558 +0000,
,,,,,,,,,,,,,,,,,,,,,,,,,,,,,,,,,,,,,,,,,,,,,,,,,,,,,,,,,,,,,,,,,,,,,3,,,,,,,,,,,,,,,,,,,,,,,,,,,,,,,,,,,,,,,,,,,,,,,,,,,,,,,,,,,,,,,,,,,,,,3,2023-12-12_08h35.54.506,watkins1,2023.2.3,99.75888282560597,59,2023-12-12 08h36.10.813558 +0000,
,,,,,,,,,,,,,,,,,,,,,,,0,0,0,0,1162.2725666998886,,,,,,,,,,1166.2827293998562,1166.781478999881,,,,3.998697000090033,,,,,,,,,,,,None,None,,,,,,,,,,Eimer,,,cuedRecallAdj,3,,,,,,,,,,,,,,,,,,,0,,,,,,,,,,,,,,,,,,,,,,,,,,,,,,,,,1162.2635865998454,1162.2725666998886,1162.2725666998886,1166.279686999973,nass,return,3.998697000090033,None,1166.280084399972,1166.2893860000186,1166.2893860000186,1166.2825780999847,,None,,,,,3,2023-12-12_08h35.54.506,watkins1,2023.2.3,99.75888282560597,59,2023-12-12 08h36.10.813558 +0000,
,,,,,,,,,,,,,,,,,,,,,,,1,0,1,0,1166.791373200016,,,,,,,,,,1169.2551104999147,1169.7536716000177,,,,2.4558876000810415,,,,,,,,,,,,None,None,,,,,,,,,,Fahrrad,,,cuedRecallAdj,3,,,,,,,,,,,,,,,,,,,0,,,,,,,,,,,,,,,,,,,,,,,,,,,,,,,,,1166.7817314998247,1166.791373200016,1166.791373200016,1169.2520675999112,hübsch,return,2.4558876000810415,None,1169.2523386999965,1169.261566199828,1169.261566199828,1169.2550076998305,,None,,,,,3,2023-12-12_08h35.54.506,watkins1,2023.2.3,99.75888282560597,59,2023-12-12 08h36.10.813558 +0000,
,,,,,,,,,,,,,,,,,,,,,,,2,0,2,0,1169.7637195999268,,,,,,,,,,1173.361846299842,1173.8605247999076,,,,3.587559700012207,,,,,,,,,,,,None,None,,,,,,,,,,Lampe,,,cuedRecallAdj,3,,,,,,,,,,,,,,,,,,,0,,,,,,,,,,,,,,,,,,,,,,,,,,,,,,,,,1169.7539210999385,1169.7637195999268,1169.7637195999268,1173.3588346999604,klobig,return,3.587559700012207,None,1173.3591052999254,1173.368509599939,1173.368509599939,1173.361740999855,,None,,,,,3,2023-12-12_08h35.54.506,watkins1,2023.2.3,99.75888282560597,59,2023-12-12 08h36.10.813558 +0000,
,,,,,,,,,,,,,,,,,,,,,,,3,0,3,0,1173.8703987998888,,,,,,,,,,1177.439087799983,1177.9377267998643,,,,3.5609387001022696,,,,,,,,,,,,None,None,,,,,,,,,,Bürste,,,cuedRecallAdj,3,,,,,,,,,,,,,,,,,,,0,,,,,,,,,,,,,,,,,,,,,,,,,,,,,,,,,1173.8607778998557,1173.8703987998888,1173.8703987998888,1177.43607289996,teuer,return,3.5609387001022696,None,1177.436344599817,1177.4455854999833,1177.4455854999833,1177.4389841000084,,None,,,,,3,2023-12-12_08h35.54.506,watkins1,2023.2.3,99.75888282560597,59,2023-12-12 08h36.10.813558 +0000,
,,,,,,,,,,,,,,,,,,,,,,,4,0,4,0,1177.947656299919,,,,,,,,,,1181.0036116999108,1181.5023993998766,,,,3.0515371998772025,,,,,,,,,,,,None,None,,,,,,,,,,Brille,,,cuedRecallAdj,3,,,,,,,,,,,,,,,,,,,0,,,,,,,,,,,,,,,,,,,,,,,,,,,,,,,,,1177.9379703998566,1177.947656299919,1177.947656299919,1181.0007574998308,gut,return,3.0515371998772025,None,1181.0010299999267,1181.0103066999,1181.0103066999,1181.0035076998174,,None,,,,,3,2023-12-12_08h35.54.506,watkins1,2023.2.3,99.75888282560597,59,2023-12-12 08h36.10.813558 +0000,
,,,,,,,,,,,,,,,,,,,,,,,5,0,5,0,1181.512294099899,,,,,,,,,,1183.5040784999728,1184.002715999959,,,,1.9830033998005092,,,,,,,,,,,,None,None,,,,,,,,,,Schere,,,cuedRecallAdj,3,,,,,,,,,,,,,,,,,,,0,,,,,,,,,,,,,,,,,,,,,,,,,,,,,,,,,1181.5026511999313,1181.512294099899,1181.512294099899,1183.501177099999,kurz,return,1.9830033998005092,None,1183.5014456999488,1183.5107293999754,1183.5107293999754,1183.5039744998794,,None,,,,,3,2023-12-12_08h35.54.506,watkins1,2023.2.3,99.75888282560597,59,2023-12-12 08h36.10.813558 +0000,
,,,,,,,,,,,,,,,,,,,,,,,6,0,6,0,1184.0127222000156,,,,,,,,,,1186.2152558998205,1186.704455500003,,,,2.194480799837038,,,,,,,,,,,,None,None,,,,,,,,,,Löffel,,,cuedRecallAdj,3,,,,,,,,,,,,,,,,,,,0,,,,,,,,,,,,,,,,,,,,,,,,,,,,,,,,,1184.0029658998828,1184.0127222000156,1184.0127222000156,1186.2122636998538,krumm,return,2.194480799837038,None,1186.2125307999086,1186.2218736999203,1186.2218736999203,1186.2151520999614,,None,,,,,3,2023-12-12_08h35.54.506,watkins1,2023.2.3,99.75888282560597,59,2023-12-12 08h36.10.813558 +0000,
,,,,,,,,,,,,,,,,,,,,,,,7,0,7,0,1186.714353099931,,,,,,,,,,1189.891215399839,1190.389526899904,,,,3.1729735999833792,,,,,,,,,,,,None,None,,,,,,,,,,Geige,,,cuedRecallAdj,3,,,,,,,,,,,,,,,,,,,0,,,,,,,,,,,,,,,,,,,,,,,,,,,,,,,,,1186.7047055999283,1186.714353099931,1186.714353099931,1189.8881023998838,niedlich,return,3.1729735999833792,None,1189.88836969994,1189.8976168998051,1189.8976168998051,1189.8911116998643,,None,,,,,3,2023-12-12_08h35.54.506,watkins1,2023.2.3,99.75888282560597,59,2023-12-12 08h36.10.813558 +0000,
,,,,,,,,,,,,,,,,,,,,,,,8,0,8,0,1190.39943819982,,,,,,,,,,1193.3554881999735,1193.8542316998355,,,,2.943785500014201,,,,,,,,,,,,None,None,,,,,,,,,,Buch,,,cuedRecallAdj,3,,,,,,,,,,,,,,,,,,,0,,,,,,,,,,,,,,,,,,,,,,,,,,,,,,,,,1190.3897847000044,1190.39943819982,1190.39943819982,1193.3524999998044,gestreift,return,2.943785500014201,None,1193.3527664998546,1193.3623179998249,1193.3623179998249,1193.355381899979,,None,,,,,3,2023-12-12_08h35.54.506,watkins1,2023.2.3,99.75888282560597,59,2023-12-12 08h36.10.813558 +0000,
,,,,,,,,,,,,,,,,,,,,,,,9,0,9,0,1193.8641385999508,,,,,,,,,,1195.695404099999,1196.1941342998762,,,,1.8230810000095516,,,,,,,,,,,,None,None,,,,,,,,,,Rucksack,,,cuedRecallAdj,3,,,,,,,,,,,,,,,,,,,0,,,,,,,,,,,,,,,,,,,,,,,,,,,,,,,,,1193.8544848999009,1193.8641385999508,1193.8641385999508,1195.692504499806,hohl,return,1.8230810000095516,None,1195.69276669994,1195.702045999933,1195.702045999933,1195.6952889999375,,None,,,,,3,2023-12-12_08h35.54.506,watkins1,2023.2.3,99.75888282560597,59,2023-12-12 08h36.10.813558 +0000,
,,,,,,,,,,,,,,,,,,,,,,,10,0,10,0,1196.2040484999306,,,,,,,,,,1199.2702942998149,1199.7689660999458,,,,3.059154300019145,,,,,,,,,,,,None,None,,,,,,,,,,Tasche,,,cuedRecallAdj,3,,,,,,,,,,,,,,,,,,,0,,,,,,,,,,,,,,,,,,,,,,,,,,,,,,,,,1196.1943816998973,1196.2040484999306,1196.2040484999306,1199.2672438998707,glänzend,return,3.059154300019145,None,1199.2675112998113,1199.2768511998001,1199.2768511998001,1199.2701914999634,,None,,,,,3,2023-12-12_08h35.54.506,watkins1,2023.2.3,99.75888282560597,59,2023-12-12 08h36.10.813558 +0000,
,,,,,,,,,,,,,,,,,,,,,,,11,0,11,0,1199.7788720999379,,,,,,,,,,1201.8305126000196,1202.3297051999252,,,,2.0442932001315057,,,,,,,,,,,,None,None,,,,,,,,,,Hut,,,cuedRecallAdj,3,,,,,,,,,,,,,,,,,,,0,,,,,,,,,,,,,,,,,,,,,,,,,,,,,,,,,1199.7692187000066,1199.7788720999379,1199.7788720999379,1201.827806999907,neu,return,2.0442932001315057,None,1201.8280753998552,1201.8373579999898,1201.8373579999898,1201.830408199923,,None,,,,,3,2023-12-12_08h35.54.506,watkins1,2023.2.3,99.75888282560597,59,2023-12-12 08h36.10.813558 +0000,
,,,,,,,,,,,,,,,,,,,,,,,12,0,12,0,1202.3396651998628,,,,,,,,,,1204.481676099822,1204.9805397000164,,,,2.1316170999780297,,,,,,,,,,,,None,None,,,,,,,,,,Flasche,,,cuedRecallAdj,3,,,,,,,,,,,,,,,,,,,0,,,,,,,,,,,,,,,,,,,,,,,,,,,,,,,,,1202.3299506998155,1202.3396651998628,1202.3396651998628,1204.478762099985,groß,return,2.1316170999780297,None,1204.47902660002,1204.488476799801,1204.488476799801,1204.4815728999674,,None,,,,,3,2023-12-12_08h35.54.506,watkins1,2023.2.3,99.75888282560597,59,2023-12-12 08h36.10.813558 +0000,
,,,,,,,,,,,,,,,,,,,,,,,13,0,13,0,1204.9904899999965,,,,,,,,,,1207.2837309997994,1207.7824062998407,,,,2.28867659997195,,,,,,,,,,,,None,None,,,,,,,,,,Vase,,,cuedRecallAdj,3,,,,,,,,,,,,,,,,,,,0,,,,,,,,,,,,,,,,,,,,,,,,,,,,,,,,,1204.9807825000025,1204.9904899999965,1204.9904899999965,1207.2807572998572,elegant,return,2.28867659997195,None,1207.2810428999364,1207.2903587999754,1207.2903587999754,1207.2836278998293,,None,,,,,3,2023-12-12_08h35.54.506,watkins1,2023.2.3,99.75888282560597,59,2023-12-12 08h36.10.813558 +0000,
,,,,,,,,,,,,,,,,,,,,,,,14,0,14,0,1207.792408599984,,,,,,,,,,1210.4667372999247,1210.9654204999097,,,,2.662893299944699,,,,,,,,,,,,None,None,,,,,,,,,,Stift,,,cuedRecallAdj,3,,,,,,,,,,,,,,,,,,,0,,,,,,,,,,,,,,,,,,,,,,,,,,,,,,,,,1207.7826534998603,1207.792408599984,1207.792408599984,1210.4637307999656,kaputt,return,2.662893299944699,None,1210.4640034998301,1210.4734488998074,1210.4734488998074,1210.4666347999591,,None,,,,,3,2023-12-12_08h35.54.506,watkins1,2023.2.3,99.75888282560597,59,2023-12-12 08h36.10.813558 +0000,
,,,,,,,,,,,,,,,,,,,,,,,15,0,15,0,1210.975341900019,,,,,,,,,,1218.9022297000047,1219.4007600999903,,,,7.919804600067437,,,,,,,,,,,,None,None,,,,,,,,,,Kiste,,,cuedRecallAdj,3,,,,,,,,,,,,,,,,,,,0,,,,,,,,,,,,,,,,,,,,,,,,,,,,,,,,,1210.9656693998259,1210.975341900019,1210.975341900019,1218.8990760999732,sauber,return,7.919804600067437,None,1218.8993479998317,1218.9085921999067,1218.9085921999067,1218.9021277998108,,None,,,,,3,2023-12-12_08h35.54.506,watkins1,2023.2.3,99.75888282560597,59,2023-12-12 08h36.10.813558 +0000,
,,,,,,,,,,,,,,,,,,,,,,,16,0,16,0,1219.4107046998106,,,,,,,,,,1227.779326699907,1228.2781783998944,,,,8.356521500041708,,,,,,,,,,,,None,None,,,,,,,,,,Kerze,,,cuedRecallAdj,3,,,,,,,,,,,,,,,,,,,0,,,,,,,,,,,,,,,,,,,,,,,,,,,,,,,,,1219.4010093999095,1219.4107046998106,1219.4107046998106,1227.7762376999017,flauschig,return,8.356521500041708,None,1227.7765055999625,1227.7860486998688,1227.7860486998688,1227.7792239999399,,None,,,,,3,2023-12-12_08h35.54.506,watkins1,2023.2.3,99.75888282560597,59,2023-12-12 08h36.10.813558 +0000,
,,,,,,,,,,,,,,,,,,,,,,,17,0,17,0,1228.288123199949,,,,,,,,,,1231.5853818999603,1232.0839664000086,,,,3.287032000022009,,,,,,,,,,,,None,None,,,,,,,,,,Schlüssel,,,cuedRecallAdj,3,,,,,,,,,,,,,,,,,,,0,,,,,,,,,,,,,,,,,,,,,,,,,,,,,,,,,1228.2784221000038,1228.288123199949,1228.288123199949,1231.5822428998072,glänzend,return,3.287032000022009,None,1231.582513500005,1231.5917860998306,1231.5917860998306,1231.5852780998684,,None,,,,,3,2023-12-12_08h35.54.506,watkins1,2023.2.3,99.75888282560597,59,2023-12-12 08h36.10.813558 +0000,
,,,,,,,,,,,,,,,,,,,,,,,18,0,18,0,1232.0939174999949,,,,,,,,,,1234.0353228999302,1234.534212099854,,,,1.937296099960804,,,,,,,,,,,,None,None,,,,,,,,,,Ring,,,cuedRecallAdj,3,,,,,,,,,,,,,,,,,,,0,,,,,,,,,,,,,,,,,,,,,,,,,,,,,,,,,1232.0842152999248,1232.0939174999949,1232.0939174999949,1234.0324474999215,breit,return,1.937296099960804,None,1234.0327158998698,1234.0420658998191,1234.0420658998191,1234.0352183999494,,None,,,,,3,2023-12-12_08h35.54.506,watkins1,2023.2.3,99.75888282560597,59,2023-12-12 08h36.10.813558 +0000,
,,,,,,,,,,,,,,,,,,,,,,,19,0,19,0,1234.5441148998216,,,,,,,,,,1236.6769857998006,1237.1753030999098,,,,2.1270292000845075,,,,,,,,,,,,None,None,,,,,,,,,,Kamera,,,cuedRecallAdj,3,,,,,,,,,,,,,,,,,,,0,,,,,,,,,,,,,,,,,,,,,,,,,,,,,,,,,1234.5344606998842,1234.5441148998216,1234.5441148998216,1236.6735721000005,schwer,return,2.1270292000845075,None,1236.673839099938,1236.6831433000043,1236.6831433000043,1236.6768830998335,,None,,,,,3,2023-12-12_08h35.54.506,watkins1,2023.2.3,99.75888282560597,59,2023-12-12 08h36.10.813558 +0000,
,,,,,,,,,,,,,,,,,,,,,,,20,0,20,0,1237.1851948997937,,,,,,,,,,1239.3475873998832,1239.8462961998302,,,,2.1579317001160234,,,,,,,,,,,,None,None,,,,,,,,,,Socke,,,cuedRecallAdj,3,,,,,,,,,,,,,,,,,,,0,,,,,,,,,,,,,,,,,,,,,,,,,,,,,,,,,1237.1755502999295,1237.1851948997937,1237.1851948997937,1239.3445891998708,flach,return,2.1579317001160234,None,1239.3448576999363,1239.354148000013,1239.354148000013,1239.347480499884,,None,,,,,3,2023-12-12_08h35.54.506,watkins1,2023.2.3,99.75888282560597,59,2023-12-12 08h36.10.813558 +0000,
,,,,,,,,,,,,,,,,,,,,,,,21,0,21,0,1239.8562282999046,,,,,,,,,,1243.715597299859,1244.2142970999703,,,,3.8549268001224846,,,,,,,,,,,,None,None,,,,,,,,,,Hammer,,,cuedRecallAdj,3,,,,,,,,,,,,,,,,,,,0,,,,,,,,,,,,,,,,,,,,,,,,,,,,,,,,,1239.8465462999884,1239.8562282999046,1239.8562282999046,1243.7125058998354,praktisch,return,3.8549268001224846,None,1243.7127749999054,1243.7221106998622,1243.7221106998622,1243.7154941000044,,None,,,,,3,2023-12-12_08h35.54.506,watkins1,2023.2.3,99.75888282560597,59,2023-12-12 08h36.10.813558 +0000,
,,,,,,,,,,,,,,,,,,,,,,,22,0,22,0,1244.2242480998393,,,,,,,,,,1247.9631697998848,1248.4620444998145,,,,3.7269086001906544,,,,,,,,,,,,None,None,,,,,,,,,,Jacke,,,cuedRecallAdj,3,,,,,,,,,,,,,,,,,,,0,,,,,,,,,,,,,,,,,,,,,,,,,,,,,,,,,1244.214549999917,1244.2242480998393,1244.2242480998393,1247.9601502998266,schwarz,return,3.7269086001906544,None,1247.9604193998966,1247.9699681999628,1247.9699681999628,1247.963066799799,,None,,,,,3,2023-12-12_08h35.54.506,watkins1,2023.2.3,99.75888282560597,59,2023-12-12 08h36.10.813558 +0000,
,,,,,,,,,,,,,,,,,,,,,,,23,0,23,0,1248.4719991998281,,,,,,,,,,1251.630441099871,1252.128594599897,,,,3.151164600159973,,,,,,,,,,,,None,None,,,,,,,,,,Kette,,,cuedRecallAdj,3,,,,,,,,,,,,,,,,,,,0,,,,,,,,,,,,,,,,,,,,,,,,,,,,,,,,,1248.4622933999635,1248.4719991998281,1248.4719991998281,1251.627112200018,hässlich,return,3.151164600159973,None,1251.6273992999922,1251.636647599982,1251.636647599982,1251.630338100018,,None,,,,,3,2023-12-12_08h35.54.506,watkins1,2023.2.3,99.75888282560597,59,2023-12-12 08h36.10.813558 +0000,
,,,,,,,,,,,,,,,,,,,,,,,24,0,24,0,1252.1385972998105,,,,,,,,,,1256.1789306998253,1256.6774128999095,,,,4.036473200190812,,,,,,,,,,,,None,None,,,,,,,,,,Trommel,,,cuedRecallAdj,3,,,,,,,,,,,,,,,,,,,0,,,,,,,,,,,,,,,,,,,,,,,,,,,,,,,,,1252.128845399944,1252.1385972998105,1252.1385972998105,1256.1758135999553,gepunktet,return,4.036473200190812,None,1256.176081100013,1256.185344999889,1256.185344999889,1256.1788277998567,,None,,,,,3,2023-12-12_08h35.54.506,watkins1,2023.2.3,99.75888282560597,59,2023-12-12 08h36.10.813558 +0000,
,,,,,,,,,,,,,,,,,,,,,,,25,0,25,0,1256.6873095999472,,,,,,,,,,1261.4002830998506,1261.8989777998067,,,,4.703826099867001,,,,,,,,,,,,None,None,,,,,,,,,,Uhr,,,cuedRecallAdj,3,,,,,,,,,,,,,,,,,,,0,,,,,,,,,,,,,,,,,,,,,,,,,,,,,,,,,1256.6776589998044,1256.6873095999472,1256.6873095999472,1261.3973318999633,flauschig,return,4.703826099867001,None,1261.3975998999085,1261.4068195999134,1261.4068195999134,1261.4001791998744,,None,,,,,3,2023-12-12_08h35.54.506,watkins1,2023.2.3,99.75888282560597,59,2023-12-12 08h36.10.813558 +0000,
,,,,,,,,,,,,,,,,,,,,,,,26,0,26,0,1261.9089255998842,,,,,,,,,,1268.6109938998707,1269.1097872999962,,,,6.6901817000471056,,,,,,,,,,,,None,None,,,,,,,,,,Tasse,,,cuedRecallAdj,3,,,,,,,,,,,,,,,,,,,0,,,,,,,,,,,,,,,,,,,,,,,,,,,,,,,,,1261.8992287998553,1261.9089255998842,1261.9089255998842,1268.6079778999556,neu,return,6.6901817000471056,None,1268.6082487998065,1268.617704599863,1268.617704599863,1268.6108907000162,,None,,,,,3,2023-12-12_08h35.54.506,watkins1,2023.2.3,99.75888282560597,59,2023-12-12 08h36.10.813558 +0000,
,,,,,,,,,,,,,,,,,,,,,,,27,0,27,0,1269.1197269000113,,,,,,,,,,1271.3323158998974,1271.8309102000203,,,,2.2073666998185217,,,,,,,,,,,,None,None,,,,,,,,,,Würfel,,,cuedRecallAdj,3,,,,,,,,,,,,,,,,,,,0,,,,,,,,,,,,,,,,,,,,,,,,,,,,,,,,,1269.1100319998804,1269.1197269000113,1269.1197269000113,1271.3293149999809,winzig,return,2.2073666998185217,None,1271.329583699815,1271.338874900015,1271.338874900015,1271.3322138998192,,None,,,,,3,2023-12-12_08h35.54.506,watkins1,2023.2.3,99.75888282560597,59,2023-12-12 08h36.10.813558 +0000,
,,,,,,,,,,,,,,,,,,,,,,,28,0,28,0,1271.840909899911,,,,,,,,,,1276.8148755999282,1277.3135958998464,,,,4.966116399969906,,,,,,,,,,,,None,None,,,,,,,,,,Telefon,,,cuedRecallAdj,3,,,,,,,,,,,,,,,,,,,0,,,,,,,,,,,,,,,,,,,,,,,,,,,,,,,,,1271.8311609998345,1271.840909899911,1271.840909899911,1276.8118628999218,blass,return,4.966116399969906,None,1276.812134699896,1276.8214728999883,1276.8214728999883,1276.8147718999535,,None,,,,,3,2023-12-12_08h35.54.506,watkins1,2023.2.3,99.75888282560597,59,2023-12-12 08h36.10.813558 +0000,
,,,,,,,,,,,,,,,,,,,,,,,29,0,29,0,1277.3235305999406,,,,,,,,,,1282.207795499824,1282.7063684000168,,,,4.875599900027737,,,,,,,,,,,,None,None,,,,,,,,,,Blume,,,cuedRecallAdj,3,,,,,,,,,,,,,,,,,,,0,,,,,,,,,,,,,,,,,,,,,,,,,,,,,,,,,1277.3139009999577,1277.3235305999406,1277.3235305999406,1282.204727299977,stachelig,return,4.875599900027737,None,1282.2049959998112,1282.2142672999762,1282.2142672999762,1282.2076921998523,,None,,,,,3,2023-12-12_08h35.54.506,watkins1,2023.2.3,99.75888282560597,59,2023-12-12 08h36.10.813558 +0000,
,,,,,,,,,,,,,,,,,,,,,,,,,,,,,,,,,,,,,,,,,,,,,,,,,,,,,,,,,,,,,,,,,,,,,3,,,,,,,,,,,,,,,,,,,,,,,,,,,,,,,,,,,,,,,,,,,,,,,,,,,,,,,,,,,,,,,,,,1282.722921699984,q,1561.5211312999018,None,3,2023-12-12_08h35.54.506,watkins1,2023.2.3,99.75888282560597,59,2023-12-12 08h36.10.813558 +0000,
