Equation,CorrectResponse,Correctbutton,trials_7.thisRepN,trials_7.thisTrialN,trials_7.thisN,trials_7.thisIndex,trials.thisRepN,trials.thisTrialN,trials.thisN,trials.thisIndex,trials_3.thisRepN,trials_3.thisTrialN,trials_3.thisN,trials_3.thisIndex,trials_2.thisRepN,trials_2.thisTrialN,trials_2.thisN,trials_2.thisIndex,trials_4.thisRepN,trials_4.thisTrialN,trials_4.thisN,trials_4.thisIndex,trials_5.thisRepN,trials_5.thisTrialN,trials_5.thisN,trials_5.thisIndex,thisRow.t,notes,code_marius.started,code_marius.stopped,welcome.started,welcome.stopped,instruction_study.started,instruction_study.stopped,fixationcross.started,fixationcross.stopped,blanc.started,blanc.stopped,study_control_probe.started,study_control_probe.stopped,responseKey,responseTime,scale_answer_2.keys,study_control_probe_2.started,study_control_probe_2.stopped,scale_answer_3.keys,scale_answer_3.rt,scale_answer_3.duration,blanc_2.started,blanc_2.stopped,test_attr_probe.started,test_attr_probe.stopped,recalled_attr,firstKeyTime,secondWordTime,blanc_3.started,blanc_3.stopped,test_sub_probe.started,test_sub_probe.stopped,recalled_sub,instruction_probe_end.started,instruction_probe_end.stopped,study.started,study.stopped,substantive,adjective,wordpair,task,condition,liste_sub_phase1,liste_adj_phase1,scale_answer.keys,scale_answer.rt,scale_answer.duration,code_defineWordsInit.started,code_defineWordsInit.stopped,liste_sub_phase2,study_control.started,study_control.stopped,scale_answer_4.keys,restudy_same.started,restudy_same.stopped,scale_answer_5.keys,restudy_different.started,restudy_different.stopped,scale_answer_6.keys,test_attr.started,correct,test_attr.stopped,test_sub.started,test_sub.stopped,scale_answer_5.rt,scale_answer_5.duration,distractortask.started,equation_text.started,distractortask.stopped,mouse_answer.x,mouse_answer.y,mouse_answer.leftButton,mouse_answer.midButton,mouse_answer.rightButton,mouse_answer.time,mouse_answer.clicked_name,feedback_distractortask.started,feedback_distractortask.stopped,free_recall.started,text_enter.started,key_resp.started,free_recall.stopped,key_resp.keys,key_resp.rt,key_resp.duration,free_recalled_sub,mouse_continue.x,mouse_continue.y,mouse_continue.leftButton,mouse_continue.midButton,mouse_continue.rightButton,mouse_continue.time,mouse_continue.clicked_name,cued_recall.started,text_enter_2.started,key_continue.started,cued_recall.stopped,recalled_attr1,key_continue.keys,key_continue.rt,key_continue.duration,cued_recall_2.started,text_enter_3.started,key_continue_2.started,cued_recall_2.stopped,recalled_attr2,key_continue_2.keys,key_resp_8.started,key_resp_8.keys,key_resp_8.rt,key_resp_8.duration,condition,date,expName,psychopyVersion,frameRate,participant,expStart,
,,,,,,,,,,,,,,,,,,,,,,,,,,,,,0.10075099999085069,0.10081830015406013,0.10082649998366833,15.619766399962828,,,,,,,,,,,,,,,,,,,,,,,,,,,,,,,,,,,,,3,,,,,,,,,,,,,,,,,,,,,,,,,,,,,,,,,,,,,,,,,,,,,,,,,,,,,,,,,,,,,,,,,,,,,,3,2023-11-29_12h15.28.036,watkins1,2023.2.3,99.75231499712342,30,2023-11-29 12h15.35.024777 +0000,
,,,,,,,,,,,,,,,,,,,,,,,,,,,,,,,,,15.619814000092447,39.10165510000661,,,,,,,,,,,,,,,,,,,,,,,,,,,,,,,,,,,3,,,,,,,,,,,,,,,,,,,,,,,,,,,,,,,,,,,,,,,,,,,,,,,,,,,,,,,,,,,,,,,,,,,,,,3,2023-11-29_12h15.28.036,watkins1,2023.2.3,99.75231499712342,30,2023-11-29 12h15.35.024777 +0000,
,,,0,0,0,0,,,,,,,,,,,,,,,,,,,,,40.11537260003388,,,,,,,,39.101670700125396,40.105391799937934,46.603442300111055,47.09487559995614,40.59773880010471,46.603263000026345,2,2.7043830000329763,None,47.09488550014794,53.102521900087595,2,2.7043830000329763,None,53.10282040014863,53.59402270009741,53.59403320006095,59.59947370016016,vergnügt,None,None,59.599694000091404,59.599717000033706,59.59972400008701,59.59980840003118,,,,,,,,,,3,,,,,,,,,,,,,,,,,,,,,,,,,,,,,,,,,,,,,,,,,,,,,,,,,,,,,,,,,,,,,,,,,,,,,,3,2023-11-29_12h15.28.036,watkins1,2023.2.3,99.75231499712342,30,2023-11-29 12h15.35.024777 +0000,
,,,,,,,,,,,,,,,,,,,,,,,,,,,,,,,,,,,,,,,,,,,,,,,,,,,,,,,,,,,,,59.59992639999837,62.75289210001938,,,,,,,3,,,,,,,,,,,,,,,,,,,,,,,,,,,,,,,,,,,,,,,,,,,,,,,,,,,,,,,,,,,,,,,,,,,,,,3,2023-11-29_12h15.28.036,watkins1,2023.2.3,99.75231499712342,30,2023-11-29 12h15.35.024777 +0000,
,,,,,,,0,0,0,0,,,,,,,,,,,,,,,,,63.76606489997357,,,,,,,,62.7529112000484,63.75612820009701,63.7565898001194,64.24821280012839,,,1,1.2103382998611778,,,,,,,,,,,,,,,,,,,,,64.24822270008735,70.25365240010433,Tasse,flauschig,"['Tasse', 'flauschig']",test_adj,3,"['Tasse', 'Trommel', 'Fahrrad', 'Eimer', 'Kiste', 'Jacke', 'Telefon', 'Ring', 'Bürste', 'Stift', 'Würfel', 'Kerze', 'Blume', 'Brille', 'Rucksack', 'Geige', 'Löffel', 'Vase', 'Schere', 'Kette', 'Buch', 'Schlüssel', 'Socke', 'Hut', 'Tasche', 'Lampe', 'Flasche', 'Hammer', 'Uhr', 'Kamera']",['flauschig'],1,1.2103382998611778,None,,,,,,,,,,,,,,,,,,,,,,,,,,,,,,,,,,,,,,,,,,,,,,,,,,,,,,,,,,,,,,,,,3,2023-11-29_12h15.28.036,watkins1,2023.2.3,99.75231499712342,30,2023-11-29 12h15.35.024777 +0000,
,,,,,,,1,0,1,0,,,,,,,,,,,,,,,,,70.26314079994336,,,,,,,,,,70.25430559995584,70.74509229999967,,,1,1.3716239999048412,,,,,,,,,,,,,,,,,,,,,70.74510230007581,76.74670909997076,Trommel,kurz,"['Trommel', 'kurz']",restudy,3,"['Tasse', 'Trommel', 'Fahrrad', 'Eimer', 'Kiste', 'Jacke', 'Telefon', 'Ring', 'Bürste', 'Stift', 'Würfel', 'Kerze', 'Blume', 'Brille', 'Rucksack', 'Geige', 'Löffel', 'Vase', 'Schere', 'Kette', 'Buch', 'Schlüssel', 'Socke', 'Hut', 'Tasche', 'Lampe', 'Flasche', 'Hammer', 'Uhr', 'Kamera']","['flauschig', 'kurz']",1,1.3716239999048412,None,,,,,,,,,,,,,,,,,,,,,,,,,,,,,,,,,,,,,,,,,,,,,,,,,,,,,,,,,,,,,,,,,3,2023-11-29_12h15.28.036,watkins1,2023.2.3,99.75231499712342,30,2023-11-29 12h15.35.024777 +0000,
,,,,,,,2,0,2,0,,,,,,,,,,,,,,,,,76.7561824999284,,,,,,,,,,76.74723260011524,77.23841200000606,,,2,1.7906831000000238,,,,,,,,,,,,,,,,,,,,,77.23842240008526,83.24501030007377,Fahrrad,schlicht,"['Fahrrad', 'schlicht']",test_adj,3,"['Tasse', 'Trommel', 'Fahrrad', 'Eimer', 'Kiste', 'Jacke', 'Telefon', 'Ring', 'Bürste', 'Stift', 'Würfel', 'Kerze', 'Blume', 'Brille', 'Rucksack', 'Geige', 'Löffel', 'Vase', 'Schere', 'Kette', 'Buch', 'Schlüssel', 'Socke', 'Hut', 'Tasche', 'Lampe', 'Flasche', 'Hammer', 'Uhr', 'Kamera']","['flauschig', 'kurz', 'schlicht']",2,1.7906831000000238,None,,,,,,,,,,,,,,,,,,,,,,,,,,,,,,,,,,,,,,,,,,,,,,,,,,,,,,,,,,,,,,,,,3,2023-11-29_12h15.28.036,watkins1,2023.2.3,99.75231499712342,30,2023-11-29 12h15.35.024777 +0000,
,,,,,,,3,0,3,0,,,,,,,,,,,,,,,,,83.25459780008532,,,,,,,,,,83.24554020003416,83.7366500000935,,,2,1.1648336998187006,,,,,,,,,,,,,,,,,,,,,83.73666019993834,89.74009119998664,Eimer,neu,"['Eimer', 'neu']",restudy,3,"['Tasse', 'Trommel', 'Fahrrad', 'Eimer', 'Kiste', 'Jacke', 'Telefon', 'Ring', 'Bürste', 'Stift', 'Würfel', 'Kerze', 'Blume', 'Brille', 'Rucksack', 'Geige', 'Löffel', 'Vase', 'Schere', 'Kette', 'Buch', 'Schlüssel', 'Socke', 'Hut', 'Tasche', 'Lampe', 'Flasche', 'Hammer', 'Uhr', 'Kamera']","['flauschig', 'kurz', 'schlicht', 'neu']",2,1.1648336998187006,None,,,,,,,,,,,,,,,,,,,,,,,,,,,,,,,,,,,,,,,,,,,,,,,,,,,,,,,,,,,,,,,,,3,2023-11-29_12h15.28.036,watkins1,2023.2.3,99.75231499712342,30,2023-11-29 12h15.35.024777 +0000,
,,,,,,,4,0,4,0,,,,,,,,,,,,,,,,,89.74958120007068,,,,,,,,,,89.74061170010827,90.2316068999935,,,2,1.6054155000019819,,,,,,,,,,,,,,,,,,,,,90.23161730007268,96.2382408999838,Kiste,rustikal,"['Kiste', 'rustikal']",restudy,3,"['Tasse', 'Trommel', 'Fahrrad', 'Eimer', 'Kiste', 'Jacke', 'Telefon', 'Ring', 'Bürste', 'Stift', 'Würfel', 'Kerze', 'Blume', 'Brille', 'Rucksack', 'Geige', 'Löffel', 'Vase', 'Schere', 'Kette', 'Buch', 'Schlüssel', 'Socke', 'Hut', 'Tasche', 'Lampe', 'Flasche', 'Hammer', 'Uhr', 'Kamera']","['flauschig', 'kurz', 'schlicht', 'neu', 'rustikal']",2,1.6054155000019819,None,,,,,,,,,,,,,,,,,,,,,,,,,,,,,,,,,,,,,,,,,,,,,,,,,,,,,,,,,,,,,,,,,3,2023-11-29_12h15.28.036,watkins1,2023.2.3,99.75231499712342,30,2023-11-29 12h15.35.024777 +0000,
,,,,,,,5,0,5,0,,,,,,,,,,,,,,,,,96.247698900057,,,,,,,,,,96.23877110006288,96.72974640014581,,,3,2.259392600040883,,,,,,,,,,,,,,,,,,,,,96.72975690010935,102.73046760004945,Jacke,lang,"['Jacke', 'lang']",test_adj,3,"['Tasse', 'Trommel', 'Fahrrad', 'Eimer', 'Kiste', 'Jacke', 'Telefon', 'Ring', 'Bürste', 'Stift', 'Würfel', 'Kerze', 'Blume', 'Brille', 'Rucksack', 'Geige', 'Löffel', 'Vase', 'Schere', 'Kette', 'Buch', 'Schlüssel', 'Socke', 'Hut', 'Tasche', 'Lampe', 'Flasche', 'Hammer', 'Uhr', 'Kamera']","['flauschig', 'kurz', 'schlicht', 'neu', 'rustikal', 'lang']",3,2.259392600040883,None,,,,,,,,,,,,,,,,,,,,,,,,,,,,,,,,,,,,,,,,,,,,,,,,,,,,,,,,,,,,,,,,,3,2023-11-29_12h15.28.036,watkins1,2023.2.3,99.75231499712342,30,2023-11-29 12h15.35.024777 +0000,
,,,,,,,6,0,6,0,,,,,,,,,,,,,,,,,102.7398846000433,,,,,,,,,,102.73100930009969,103.22196900006384,,,1,0.9913389999419451,,,,,,,,,,,,,,,,,,,,,103.2219797000289,109.23234100011177,Telefon,breit,"['Telefon', 'breit']",restudy,3,"['Tasse', 'Trommel', 'Fahrrad', 'Eimer', 'Kiste', 'Jacke', 'Telefon', 'Ring', 'Bürste', 'Stift', 'Würfel', 'Kerze', 'Blume', 'Brille', 'Rucksack', 'Geige', 'Löffel', 'Vase', 'Schere', 'Kette', 'Buch', 'Schlüssel', 'Socke', 'Hut', 'Tasche', 'Lampe', 'Flasche', 'Hammer', 'Uhr', 'Kamera']","['flauschig', 'kurz', 'schlicht', 'neu', 'rustikal', 'lang', 'breit']",1,0.9913389999419451,None,,,,,,,,,,,,,,,,,,,,,,,,,,,,,,,,,,,,,,,,,,,,,,,,,,,,,,,,,,,,,,,,,3,2023-11-29_12h15.28.036,watkins1,2023.2.3,99.75231499712342,30,2023-11-29 12h15.35.024777 +0000,
,,,,,,,7,0,7,0,,,,,,,,,,,,,,,,,109.24187269993126,,,,,,,,,,109.23285520006903,109.72398829995655,,,2,1.3692567001562566,,,,,,,,,,,,,,,,,,,,,109.72399830003269,115.73360879998654,Ring,strahlend,"['Ring', 'strahlend']",test_adj,3,"['Tasse', 'Trommel', 'Fahrrad', 'Eimer', 'Kiste', 'Jacke', 'Telefon', 'Ring', 'Bürste', 'Stift', 'Würfel', 'Kerze', 'Blume', 'Brille', 'Rucksack', 'Geige', 'Löffel', 'Vase', 'Schere', 'Kette', 'Buch', 'Schlüssel', 'Socke', 'Hut', 'Tasche', 'Lampe', 'Flasche', 'Hammer', 'Uhr', 'Kamera']","['flauschig', 'kurz', 'schlicht', 'neu', 'rustikal', 'lang', 'breit', 'strahlend']",2,1.3692567001562566,None,,,,,,,,,,,,,,,,,,,,,,,,,,,,,,,,,,,,,,,,,,,,,,,,,,,,,,,,,,,,,,,,,3,2023-11-29_12h15.28.036,watkins1,2023.2.3,99.75231499712342,30,2023-11-29 12h15.35.024777 +0000,
,,,,,,,8,0,8,0,,,,,,,,,,,,,,,,,115.74309210013598,,,,,,,,,,115.73412519996054,116.22525220015086,,,1,1.243397600017488,,,,,,,,,,,,,,,,,,,,,116.22526219999418,122.22615669993684,Bürste,verspielt,"['Bürste', 'verspielt']",restudy,3,"['Tasse', 'Trommel', 'Fahrrad', 'Eimer', 'Kiste', 'Jacke', 'Telefon', 'Ring', 'Bürste', 'Stift', 'Würfel', 'Kerze', 'Blume', 'Brille', 'Rucksack', 'Geige', 'Löffel', 'Vase', 'Schere', 'Kette', 'Buch', 'Schlüssel', 'Socke', 'Hut', 'Tasche', 'Lampe', 'Flasche', 'Hammer', 'Uhr', 'Kamera']","['flauschig', 'kurz', 'schlicht', 'neu', 'rustikal', 'lang', 'breit', 'strahlend', 'verspielt']",1,1.243397600017488,None,,,,,,,,,,,,,,,,,,,,,,,,,,,,,,,,,,,,,,,,,,,,,,,,,,,,,,,,,,,,,,,,,3,2023-11-29_12h15.28.036,watkins1,2023.2.3,99.75231499712342,30,2023-11-29 12h15.35.024777 +0000,
,,,,,,,9,0,9,0,,,,,,,,,,,,,,,,,122.23573380010203,,,,,,,,,,122.22668980015442,122.71776410005987,,,1,1.5677459998987615,,,,,,,,,,,,,,,,,,,,,122.71777410013601,128.72414169996046,Stift,flach,"['Stift', 'flach']",restudy,3,"['Tasse', 'Trommel', 'Fahrrad', 'Eimer', 'Kiste', 'Jacke', 'Telefon', 'Ring', 'Bürste', 'Stift', 'Würfel', 'Kerze', 'Blume', 'Brille', 'Rucksack', 'Geige', 'Löffel', 'Vase', 'Schere', 'Kette', 'Buch', 'Schlüssel', 'Socke', 'Hut', 'Tasche', 'Lampe', 'Flasche', 'Hammer', 'Uhr', 'Kamera']","['flauschig', 'kurz', 'schlicht', 'neu', 'rustikal', 'lang', 'breit', 'strahlend', 'verspielt', 'flach']",1,1.5677459998987615,None,,,,,,,,,,,,,,,,,,,,,,,,,,,,,,,,,,,,,,,,,,,,,,,,,,,,,,,,,,,,,,,,,3,2023-11-29_12h15.28.036,watkins1,2023.2.3,99.75231499712342,30,2023-11-29 12h15.35.024777 +0000,
,,,,,,,10,0,10,0,,,,,,,,,,,,,,,,,128.73360899998806,,,,,,,,,,128.72464779997244,129.2155836999882,,,2,1.8455644000787288,,,,,,,,,,,,,,,,,,,,,129.21559350006282,135.2219779000152,Würfel,hohl,"['Würfel', 'hohl']",test_adj,3,"['Tasse', 'Trommel', 'Fahrrad', 'Eimer', 'Kiste', 'Jacke', 'Telefon', 'Ring', 'Bürste', 'Stift', 'Würfel', 'Kerze', 'Blume', 'Brille', 'Rucksack', 'Geige', 'Löffel', 'Vase', 'Schere', 'Kette', 'Buch', 'Schlüssel', 'Socke', 'Hut', 'Tasche', 'Lampe', 'Flasche', 'Hammer', 'Uhr', 'Kamera']","['flauschig', 'kurz', 'schlicht', 'neu', 'rustikal', 'lang', 'breit', 'strahlend', 'verspielt', 'flach', 'hohl']",2,1.8455644000787288,None,,,,,,,,,,,,,,,,,,,,,,,,,,,,,,,,,,,,,,,,,,,,,,,,,,,,,,,,,,,,,,,,,3,2023-11-29_12h15.28.036,watkins1,2023.2.3,99.75231499712342,30,2023-11-29 12h15.35.024777 +0000,
,,,,,,,11,0,11,0,,,,,,,,,,,,,,,,,135.23146060016006,,,,,,,,,,135.22249680012465,135.713493200019,,,2,1.555885599926114,,,,,,,,,,,,,,,,,,,,,135.7135032999795,141.71839469997212,Kerze,schwer,"['Kerze', 'schwer']",restudy,3,"['Tasse', 'Trommel', 'Fahrrad', 'Eimer', 'Kiste', 'Jacke', 'Telefon', 'Ring', 'Bürste', 'Stift', 'Würfel', 'Kerze', 'Blume', 'Brille', 'Rucksack', 'Geige', 'Löffel', 'Vase', 'Schere', 'Kette', 'Buch', 'Schlüssel', 'Socke', 'Hut', 'Tasche', 'Lampe', 'Flasche', 'Hammer', 'Uhr', 'Kamera']","['flauschig', 'kurz', 'schlicht', 'neu', 'rustikal', 'lang', 'breit', 'strahlend', 'verspielt', 'flach', 'hohl', 'schwer']",2,1.555885599926114,None,,,,,,,,,,,,,,,,,,,,,,,,,,,,,,,,,,,,,,,,,,,,,,,,,,,,,,,,,,,,,,,,,3,2023-11-29_12h15.28.036,watkins1,2023.2.3,99.75231499712342,30,2023-11-29 12h15.35.024777 +0000,
,,,,,,,12,0,12,0,,,,,,,,,,,,,,,,,141.72798290010542,,,,,,,,,,141.71891890000552,142.20996100013144,,,1,1.6278814999386668,,,,,,,,,,,,,,,,,,,,,142.2099713999778,148.21868159994483,Blume,robust,"['Blume', 'robust']",test_adj,3,"['Tasse', 'Trommel', 'Fahrrad', 'Eimer', 'Kiste', 'Jacke', 'Telefon', 'Ring', 'Bürste', 'Stift', 'Würfel', 'Kerze', 'Blume', 'Brille', 'Rucksack', 'Geige', 'Löffel', 'Vase', 'Schere', 'Kette', 'Buch', 'Schlüssel', 'Socke', 'Hut', 'Tasche', 'Lampe', 'Flasche', 'Hammer', 'Uhr', 'Kamera']","['flauschig', 'kurz', 'schlicht', 'neu', 'rustikal', 'lang', 'breit', 'strahlend', 'verspielt', 'flach', 'hohl', 'schwer', 'robust']",1,1.6278814999386668,None,,,,,,,,,,,,,,,,,,,,,,,,,,,,,,,,,,,,,,,,,,,,,,,,,,,,,,,,,,,,,,,,,3,2023-11-29_12h15.28.036,watkins1,2023.2.3,99.75231499712342,30,2023-11-29 12h15.35.024777 +0000,
,,,,,,,13,0,13,0,,,,,,,,,,,,,,,,,148.22814580006525,,,,,,,,,,148.21920499997213,148.7102016999852,,,3,1.0236978998873383,,,,,,,,,,,,,,,,,,,,,148.71021219994873,154.71959919994697,Brille,sauber,"['Brille', 'sauber']",test_adj,3,"['Tasse', 'Trommel', 'Fahrrad', 'Eimer', 'Kiste', 'Jacke', 'Telefon', 'Ring', 'Bürste', 'Stift', 'Würfel', 'Kerze', 'Blume', 'Brille', 'Rucksack', 'Geige', 'Löffel', 'Vase', 'Schere', 'Kette', 'Buch', 'Schlüssel', 'Socke', 'Hut', 'Tasche', 'Lampe', 'Flasche', 'Hammer', 'Uhr', 'Kamera']","['flauschig', 'kurz', 'schlicht', 'neu', 'rustikal', 'lang', 'breit', 'strahlend', 'verspielt', 'flach', 'hohl', 'schwer', 'robust', 'sauber']",3,1.0236978998873383,None,,,,,,,,,,,,,,,,,,,,,,,,,,,,,,,,,,,,,,,,,,,,,,,,,,,,,,,,,,,,,,,,,3,2023-11-29_12h15.28.036,watkins1,2023.2.3,99.75231499712342,30,2023-11-29 12h15.35.024777 +0000,
,,,,,,,14,0,14,0,,,,,,,,,,,,,,,,,154.72879570000805,,,,,,,,,,154.72012119996361,155.2107202000916,,,2,0.9869695999659598,,,,,,,,,,,,,,,,,,,,,155.2107299999334,161.21327279997058,Rucksack,teuer,"['Rucksack', 'teuer']",restudy,3,"['Tasse', 'Trommel', 'Fahrrad', 'Eimer', 'Kiste', 'Jacke', 'Telefon', 'Ring', 'Bürste', 'Stift', 'Würfel', 'Kerze', 'Blume', 'Brille', 'Rucksack', 'Geige', 'Löffel', 'Vase', 'Schere', 'Kette', 'Buch', 'Schlüssel', 'Socke', 'Hut', 'Tasche', 'Lampe', 'Flasche', 'Hammer', 'Uhr', 'Kamera']","['flauschig', 'kurz', 'schlicht', 'neu', 'rustikal', 'lang', 'breit', 'strahlend', 'verspielt', 'flach', 'hohl', 'schwer', 'robust', 'sauber', 'teuer']",2,0.9869695999659598,None,,,,,,,,,,,,,,,,,,,,,,,,,,,,,,,,,,,,,,,,,,,,,,,,,,,,,,,,,,,,,,,,,3,2023-11-29_12h15.28.036,watkins1,2023.2.3,99.75231499712342,30,2023-11-29 12h15.35.024777 +0000,
,,,,,,,15,0,15,0,,,,,,,,,,,,,,,,,161.22276010015048,,,,,,,,,,161.2137963999994,161.70483050006442,,,1,1.61199969984591,,,,,,,,,,,,,,,,,,,,,161.70484070014209,167.71415879996493,Geige,winzig,"['Geige', 'winzig']",test_adj,3,"['Tasse', 'Trommel', 'Fahrrad', 'Eimer', 'Kiste', 'Jacke', 'Telefon', 'Ring', 'Bürste', 'Stift', 'Würfel', 'Kerze', 'Blume', 'Brille', 'Rucksack', 'Geige', 'Löffel', 'Vase', 'Schere', 'Kette', 'Buch', 'Schlüssel', 'Socke', 'Hut', 'Tasche', 'Lampe', 'Flasche', 'Hammer', 'Uhr', 'Kamera']","['flauschig', 'kurz', 'schlicht', 'neu', 'rustikal', 'lang', 'breit', 'strahlend', 'verspielt', 'flach', 'hohl', 'schwer', 'robust', 'sauber', 'teuer', 'winzig']",1,1.61199969984591,None,,,,,,,,,,,,,,,,,,,,,,,,,,,,,,,,,,,,,,,,,,,,,,,,,,,,,,,,,,,,,,,,,3,2023-11-29_12h15.28.036,watkins1,2023.2.3,99.75231499712342,30,2023-11-29 12h15.35.024777 +0000,
,,,,,,,16,0,16,0,,,,,,,,,,,,,,,,,167.7236363000702,,,,,,,,,,167.71468380000442,168.2056688000448,,,2,1.2142694001086056,,,,,,,,,,,,,,,,,,,,,168.20567830000073,174.20770870009437,Löffel,groß,"['Löffel', 'groß']",restudy,3,"['Tasse', 'Trommel', 'Fahrrad', 'Eimer', 'Kiste', 'Jacke', 'Telefon', 'Ring', 'Bürste', 'Stift', 'Würfel', 'Kerze', 'Blume', 'Brille', 'Rucksack', 'Geige', 'Löffel', 'Vase', 'Schere', 'Kette', 'Buch', 'Schlüssel', 'Socke', 'Hut', 'Tasche', 'Lampe', 'Flasche', 'Hammer', 'Uhr', 'Kamera']","['flauschig', 'kurz', 'schlicht', 'neu', 'rustikal', 'lang', 'breit', 'strahlend', 'verspielt', 'flach', 'hohl', 'schwer', 'robust', 'sauber', 'teuer', 'winzig', 'groß']",2,1.2142694001086056,None,,,,,,,,,,,,,,,,,,,,,,,,,,,,,,,,,,,,,,,,,,,,,,,,,,,,,,,,,,,,,,,,,3,2023-11-29_12h15.28.036,watkins1,2023.2.3,99.75231499712342,30,2023-11-29 12h15.35.024777 +0000,
,,,,,,,17,0,17,0,,,,,,,,,,,,,,,,,174.21720650000498,,,,,,,,,,174.20822590007447,174.6992320001591,,,2,1.0099887000396848,,,,,,,,,,,,,,,,,,,,,174.6992418000009,180.70895560015924,Vase,schmutzig,"['Vase', 'schmutzig']",test_adj,3,"['Tasse', 'Trommel', 'Fahrrad', 'Eimer', 'Kiste', 'Jacke', 'Telefon', 'Ring', 'Bürste', 'Stift', 'Würfel', 'Kerze', 'Blume', 'Brille', 'Rucksack', 'Geige', 'Löffel', 'Vase', 'Schere', 'Kette', 'Buch', 'Schlüssel', 'Socke', 'Hut', 'Tasche', 'Lampe', 'Flasche', 'Hammer', 'Uhr', 'Kamera']","['flauschig', 'kurz', 'schlicht', 'neu', 'rustikal', 'lang', 'breit', 'strahlend', 'verspielt', 'flach', 'hohl', 'schwer', 'robust', 'sauber', 'teuer', 'winzig', 'groß', 'schmutzig']",2,1.0099887000396848,None,,,,,,,,,,,,,,,,,,,,,,,,,,,,,,,,,,,,,,,,,,,,,,,,,,,,,,,,,,,,,,,,,3,2023-11-29_12h15.28.036,watkins1,2023.2.3,99.75231499712342,30,2023-11-29 12h15.35.024777 +0000,
,,,,,,,18,0,18,0,,,,,,,,,,,,,,,,,180.71836129995063,,,,,,,,,,180.7094694999978,181.20052880002186,,,1,1.0930768998805434,,,,,,,,,,,,,,,,,,,,,181.20053869998083,187.21100650005974,Schere,nachhaltig,"['Schere', 'nachhaltig']",restudy,3,"['Tasse', 'Trommel', 'Fahrrad', 'Eimer', 'Kiste', 'Jacke', 'Telefon', 'Ring', 'Bürste', 'Stift', 'Würfel', 'Kerze', 'Blume', 'Brille', 'Rucksack', 'Geige', 'Löffel', 'Vase', 'Schere', 'Kette', 'Buch', 'Schlüssel', 'Socke', 'Hut', 'Tasche', 'Lampe', 'Flasche', 'Hammer', 'Uhr', 'Kamera']","['flauschig', 'kurz', 'schlicht', 'neu', 'rustikal', 'lang', 'breit', 'strahlend', 'verspielt', 'flach', 'hohl', 'schwer', 'robust', 'sauber', 'teuer', 'winzig', 'groß', 'schmutzig', 'nachhaltig']",1,1.0930768998805434,None,,,,,,,,,,,,,,,,,,,,,,,,,,,,,,,,,,,,,,,,,,,,,,,,,,,,,,,,,,,,,,,,,3,2023-11-29_12h15.28.036,watkins1,2023.2.3,99.75231499712342,30,2023-11-29 12h15.35.024777 +0000,
,,,,,,,19,0,19,0,,,,,,,,,,,,,,,,,187.22048310004175,,,,,,,,,,187.21153500000946,187.70242260000668,,,3,2.2953931000083685,,,,,,,,,,,,,,,,,,,,,187.70243249996565,193.70883260015398,Kette,gut,"['Kette', 'gut']",restudy,3,"['Tasse', 'Trommel', 'Fahrrad', 'Eimer', 'Kiste', 'Jacke', 'Telefon', 'Ring', 'Bürste', 'Stift', 'Würfel', 'Kerze', 'Blume', 'Brille', 'Rucksack', 'Geige', 'Löffel', 'Vase', 'Schere', 'Kette', 'Buch', 'Schlüssel', 'Socke', 'Hut', 'Tasche', 'Lampe', 'Flasche', 'Hammer', 'Uhr', 'Kamera']","['flauschig', 'kurz', 'schlicht', 'neu', 'rustikal', 'lang', 'breit', 'strahlend', 'verspielt', 'flach', 'hohl', 'schwer', 'robust', 'sauber', 'teuer', 'winzig', 'groß', 'schmutzig', 'nachhaltig', 'gut']",3,2.2953931000083685,None,,,,,,,,,,,,,,,,,,,,,,,,,,,,,,,,,,,,,,,,,,,,,,,,,,,,,,,,,,,,,,,,,3,2023-11-29_12h15.28.036,watkins1,2023.2.3,99.75231499712342,30,2023-11-29 12h15.35.024777 +0000,
,,,,,,,20,0,20,0,,,,,,,,,,,,,,,,,193.7183084001299,,,,,,,,,,193.7093589999713,194.20038660010323,,,1,1.0454537000041455,,,,,,,,,,,,,,,,,,,,,194.20039710006677,200.20863250014372,Buch,gestreift,"['Buch', 'gestreift']",test_adj,3,"['Tasse', 'Trommel', 'Fahrrad', 'Eimer', 'Kiste', 'Jacke', 'Telefon', 'Ring', 'Bürste', 'Stift', 'Würfel', 'Kerze', 'Blume', 'Brille', 'Rucksack', 'Geige', 'Löffel', 'Vase', 'Schere', 'Kette', 'Buch', 'Schlüssel', 'Socke', 'Hut', 'Tasche', 'Lampe', 'Flasche', 'Hammer', 'Uhr', 'Kamera']","['flauschig', 'kurz', 'schlicht', 'neu', 'rustikal', 'lang', 'breit', 'strahlend', 'verspielt', 'flach', 'hohl', 'schwer', 'robust', 'sauber', 'teuer', 'winzig', 'groß', 'schmutzig', 'nachhaltig', 'gut', 'gestreift']",1,1.0454537000041455,None,,,,,,,,,,,,,,,,,,,,,,,,,,,,,,,,,,,,,,,,,,,,,,,,,,,,,,,,,,,,,,,,,3,2023-11-29_12h15.28.036,watkins1,2023.2.3,99.75231499712342,30,2023-11-29 12h15.35.024777 +0000,
,,,,,,,21,0,21,0,,,,,,,,,,,,,,,,,200.2180586999748,,,,,,,,,,200.20918070012704,200.70023420010693,,,1,1.537434000056237,,,,,,,,,,,,,,,,,,,,,200.70024470007047,206.70279829995707,Schlüssel,lustig,"['Schlüssel', 'lustig']",restudy,3,"['Tasse', 'Trommel', 'Fahrrad', 'Eimer', 'Kiste', 'Jacke', 'Telefon', 'Ring', 'Bürste', 'Stift', 'Würfel', 'Kerze', 'Blume', 'Brille', 'Rucksack', 'Geige', 'Löffel', 'Vase', 'Schere', 'Kette', 'Buch', 'Schlüssel', 'Socke', 'Hut', 'Tasche', 'Lampe', 'Flasche', 'Hammer', 'Uhr', 'Kamera']","['flauschig', 'kurz', 'schlicht', 'neu', 'rustikal', 'lang', 'breit', 'strahlend', 'verspielt', 'flach', 'hohl', 'schwer', 'robust', 'sauber', 'teuer', 'winzig', 'groß', 'schmutzig', 'nachhaltig', 'gut', 'gestreift', 'lustig']",1,1.537434000056237,None,,,,,,,,,,,,,,,,,,,,,,,,,,,,,,,,,,,,,,,,,,,,,,,,,,,,,,,,,,,,,,,,,3,2023-11-29_12h15.28.036,watkins1,2023.2.3,99.75231499712342,30,2023-11-29 12h15.35.024777 +0000,
,,,,,,,22,0,22,0,,,,,,,,,,,,,,,,,206.71228189999238,,,,,,,,,,206.7033188000787,207.19423940009438,,,2,1.1873343999031931,,,,,,,,,,,,,,,,,,,,,207.19424919993617,213.19738969998434,Socke,gepunktet,"['Socke', 'gepunktet']",restudy,3,"['Tasse', 'Trommel', 'Fahrrad', 'Eimer', 'Kiste', 'Jacke', 'Telefon', 'Ring', 'Bürste', 'Stift', 'Würfel', 'Kerze', 'Blume', 'Brille', 'Rucksack', 'Geige', 'Löffel', 'Vase', 'Schere', 'Kette', 'Buch', 'Schlüssel', 'Socke', 'Hut', 'Tasche', 'Lampe', 'Flasche', 'Hammer', 'Uhr', 'Kamera']","['flauschig', 'kurz', 'schlicht', 'neu', 'rustikal', 'lang', 'breit', 'strahlend', 'verspielt', 'flach', 'hohl', 'schwer', 'robust', 'sauber', 'teuer', 'winzig', 'groß', 'schmutzig', 'nachhaltig', 'gut', 'gestreift', 'lustig', 'gepunktet']",2,1.1873343999031931,None,,,,,,,,,,,,,,,,,,,,,,,,,,,,,,,,,,,,,,,,,,,,,,,,,,,,,,,,,,,,,,,,,3,2023-11-29_12h15.28.036,watkins1,2023.2.3,99.75231499712342,30,2023-11-29 12h15.35.024777 +0000,
,,,,,,,23,0,23,0,,,,,,,,,,,,,,,,,213.20687330001965,,,,,,,,,,213.19790849997662,213.68890370009467,,,1,1.2363727998454124,,,,,,,,,,,,,,,,,,,,,213.68891369993798,219.689447700046,Hut,niedlich,"['Hut', 'niedlich']",test_adj,3,"['Tasse', 'Trommel', 'Fahrrad', 'Eimer', 'Kiste', 'Jacke', 'Telefon', 'Ring', 'Bürste', 'Stift', 'Würfel', 'Kerze', 'Blume', 'Brille', 'Rucksack', 'Geige', 'Löffel', 'Vase', 'Schere', 'Kette', 'Buch', 'Schlüssel', 'Socke', 'Hut', 'Tasche', 'Lampe', 'Flasche', 'Hammer', 'Uhr', 'Kamera']","['flauschig', 'kurz', 'schlicht', 'neu', 'rustikal', 'lang', 'breit', 'strahlend', 'verspielt', 'flach', 'hohl', 'schwer', 'robust', 'sauber', 'teuer', 'winzig', 'groß', 'schmutzig', 'nachhaltig', 'gut', 'gestreift', 'lustig', 'gepunktet', 'niedlich']",1,1.2363727998454124,None,,,,,,,,,,,,,,,,,,,,,,,,,,,,,,,,,,,,,,,,,,,,,,,,,,,,,,,,,,,,,,,,,3,2023-11-29_12h15.28.036,watkins1,2023.2.3,99.75231499712342,30,2023-11-29 12h15.35.024777 +0000,
,,,,,,,24,0,24,0,,,,,,,,,,,,,,,,,219.69888709997758,,,,,,,,,,219.68997700000182,220.1811413001269,,,1,1.6083540997933596,,,,,,,,,,,,,,,,,,,,,220.18115169997327,226.18590739998035,Tasche,blass,"['Tasche', 'blass']",restudy,3,"['Tasse', 'Trommel', 'Fahrrad', 'Eimer', 'Kiste', 'Jacke', 'Telefon', 'Ring', 'Bürste', 'Stift', 'Würfel', 'Kerze', 'Blume', 'Brille', 'Rucksack', 'Geige', 'Löffel', 'Vase', 'Schere', 'Kette', 'Buch', 'Schlüssel', 'Socke', 'Hut', 'Tasche', 'Lampe', 'Flasche', 'Hammer', 'Uhr', 'Kamera']","['flauschig', 'kurz', 'schlicht', 'neu', 'rustikal', 'lang', 'breit', 'strahlend', 'verspielt', 'flach', 'hohl', 'schwer', 'robust', 'sauber', 'teuer', 'winzig', 'groß', 'schmutzig', 'nachhaltig', 'gut', 'gestreift', 'lustig', 'gepunktet', 'niedlich', 'blass']",1,1.6083540997933596,None,,,,,,,,,,,,,,,,,,,,,,,,,,,,,,,,,,,,,,,,,,,,,,,,,,,,,,,,,,,,,,,,,3,2023-11-29_12h15.28.036,watkins1,2023.2.3,99.75231499712342,30,2023-11-29 12h15.35.024777 +0000,
,,,,,,,25,0,25,0,,,,,,,,,,,,,,,,,226.1953698999714,,,,,,,,,,226.18642839998938,226.6774027000647,,,1,1.1124090999364853,,,,,,,,,,,,,,,,,,,,,226.6774128000252,232.67888589994982,Lampe,kalt,"['Lampe', 'kalt']",test_adj,3,"['Tasse', 'Trommel', 'Fahrrad', 'Eimer', 'Kiste', 'Jacke', 'Telefon', 'Ring', 'Bürste', 'Stift', 'Würfel', 'Kerze', 'Blume', 'Brille', 'Rucksack', 'Geige', 'Löffel', 'Vase', 'Schere', 'Kette', 'Buch', 'Schlüssel', 'Socke', 'Hut', 'Tasche', 'Lampe', 'Flasche', 'Hammer', 'Uhr', 'Kamera']","['flauschig', 'kurz', 'schlicht', 'neu', 'rustikal', 'lang', 'breit', 'strahlend', 'verspielt', 'flach', 'hohl', 'schwer', 'robust', 'sauber', 'teuer', 'winzig', 'groß', 'schmutzig', 'nachhaltig', 'gut', 'gestreift', 'lustig', 'gepunktet', 'niedlich', 'blass', 'kalt']",1,1.1124090999364853,None,,,,,,,,,,,,,,,,,,,,,,,,,,,,,,,,,,,,,,,,,,,,,,,,,,,,,,,,,,,,,,,,,3,2023-11-29_12h15.28.036,watkins1,2023.2.3,99.75231499712342,30,2023-11-29 12h15.35.024777 +0000,
,,,,,,,26,0,26,0,,,,,,,,,,,,,,,,,232.68838570010848,,,,,,,,,,232.67940620006993,233.17044829996303,,,1,1.4034572998061776,,,,,,,,,,,,,,,,,,,,,233.17045760015026,239.1745188999921,Flasche,dick,"['Flasche', 'dick']",test_adj,3,"['Tasse', 'Trommel', 'Fahrrad', 'Eimer', 'Kiste', 'Jacke', 'Telefon', 'Ring', 'Bürste', 'Stift', 'Würfel', 'Kerze', 'Blume', 'Brille', 'Rucksack', 'Geige', 'Löffel', 'Vase', 'Schere', 'Kette', 'Buch', 'Schlüssel', 'Socke', 'Hut', 'Tasche', 'Lampe', 'Flasche', 'Hammer', 'Uhr', 'Kamera']","['flauschig', 'kurz', 'schlicht', 'neu', 'rustikal', 'lang', 'breit', 'strahlend', 'verspielt', 'flach', 'hohl', 'schwer', 'robust', 'sauber', 'teuer', 'winzig', 'groß', 'schmutzig', 'nachhaltig', 'gut', 'gestreift', 'lustig', 'gepunktet', 'niedlich', 'blass', 'kalt', 'dick']",1,1.4034572998061776,None,,,,,,,,,,,,,,,,,,,,,,,,,,,,,,,,,,,,,,,,,,,,,,,,,,,,,,,,,,,,,,,,,3,2023-11-29_12h15.28.036,watkins1,2023.2.3,99.75231499712342,30,2023-11-29 12h15.35.024777 +0000,
,,,,,,,27,0,27,0,,,,,,,,,,,,,,,,,239.18400430004112,,,,,,,,,,239.1750541999936,239.666039200034,,,1,1.0353403000626713,,,,,,,,,,,,,,,,,,,,,239.66604940011166,245.6754898999352,Hammer,nass,"['Hammer', 'nass']",test_adj,3,"['Tasse', 'Trommel', 'Fahrrad', 'Eimer', 'Kiste', 'Jacke', 'Telefon', 'Ring', 'Bürste', 'Stift', 'Würfel', 'Kerze', 'Blume', 'Brille', 'Rucksack', 'Geige', 'Löffel', 'Vase', 'Schere', 'Kette', 'Buch', 'Schlüssel', 'Socke', 'Hut', 'Tasche', 'Lampe', 'Flasche', 'Hammer', 'Uhr', 'Kamera']","['flauschig', 'kurz', 'schlicht', 'neu', 'rustikal', 'lang', 'breit', 'strahlend', 'verspielt', 'flach', 'hohl', 'schwer', 'robust', 'sauber', 'teuer', 'winzig', 'groß', 'schmutzig', 'nachhaltig', 'gut', 'gestreift', 'lustig', 'gepunktet', 'niedlich', 'blass', 'kalt', 'dick', 'nass']",1,1.0353403000626713,None,,,,,,,,,,,,,,,,,,,,,,,,,,,,,,,,,,,,,,,,,,,,,,,,,,,,,,,,,,,,,,,,,3,2023-11-29_12h15.28.036,watkins1,2023.2.3,99.75231499712342,30,2023-11-29 12h15.35.024777 +0000,
,,,,,,,28,0,28,0,,,,,,,,,,,,,,,,,245.68491589999758,,,,,,,,,,245.67601160006598,246.16697830008343,,,2,1.2538989000022411,,,,,,,,,,,,,,,,,,,,,246.1669882000424,252.1693055999931,Uhr,klobig,"['Uhr', 'klobig']",restudy,3,"['Tasse', 'Trommel', 'Fahrrad', 'Eimer', 'Kiste', 'Jacke', 'Telefon', 'Ring', 'Bürste', 'Stift', 'Würfel', 'Kerze', 'Blume', 'Brille', 'Rucksack', 'Geige', 'Löffel', 'Vase', 'Schere', 'Kette', 'Buch', 'Schlüssel', 'Socke', 'Hut', 'Tasche', 'Lampe', 'Flasche', 'Hammer', 'Uhr', 'Kamera']","['flauschig', 'kurz', 'schlicht', 'neu', 'rustikal', 'lang', 'breit', 'strahlend', 'verspielt', 'flach', 'hohl', 'schwer', 'robust', 'sauber', 'teuer', 'winzig', 'groß', 'schmutzig', 'nachhaltig', 'gut', 'gestreift', 'lustig', 'gepunktet', 'niedlich', 'blass', 'kalt', 'dick', 'nass', 'klobig']",2,1.2538989000022411,None,,,,,,,,,,,,,,,,,,,,,,,,,,,,,,,,,,,,,,,,,,,,,,,,,,,,,,,,,,,,,,,,,3,2023-11-29_12h15.28.036,watkins1,2023.2.3,99.75231499712342,30,2023-11-29 12h15.35.024777 +0000,
,,,,,,,29,0,29,0,,,,,,,,,,,,,,,,,252.17878800001927,,,,,,,,,,252.16982970014215,252.66078300005756,,,1,1.6729649000335485,,,,,,,,,,,,,,,,,,,,,252.66079400014132,258.6645124000497,Kamera,elegant,"['Kamera', 'elegant']",test_adj,3,"['Tasse', 'Trommel', 'Fahrrad', 'Eimer', 'Kiste', 'Jacke', 'Telefon', 'Ring', 'Bürste', 'Stift', 'Würfel', 'Kerze', 'Blume', 'Brille', 'Rucksack', 'Geige', 'Löffel', 'Vase', 'Schere', 'Kette', 'Buch', 'Schlüssel', 'Socke', 'Hut', 'Tasche', 'Lampe', 'Flasche', 'Hammer', 'Uhr', 'Kamera']","['flauschig', 'kurz', 'schlicht', 'neu', 'rustikal', 'lang', 'breit', 'strahlend', 'verspielt', 'flach', 'hohl', 'schwer', 'robust', 'sauber', 'teuer', 'winzig', 'groß', 'schmutzig', 'nachhaltig', 'gut', 'gestreift', 'lustig', 'gepunktet', 'niedlich', 'blass', 'kalt', 'dick', 'nass', 'klobig', 'elegant']",1,1.6729649000335485,None,,,,,,,,,,,,,,,,,,,,,,,,,,,,,,,,,,,,,,,,,,,,,,,,,,,,,,,,,,,,,,,,,3,2023-11-29_12h15.28.036,watkins1,2023.2.3,99.75231499712342,30,2023-11-29 12h15.35.024777 +0000,
,,,,,,,,,,,0,0,0,0,,,,,,,,,,,,,258.6739332000725,,,,,,,,,,258.6653527999297,259.15614089998417,,,[],[],,,,,,,,,,,lang,None,None,,,,,,,,,,Jacke,lang,"['Jacke', 'lang']",test_adj,3,,,,,,258.66527709993534,258.6653259000741,"['Jacke', 'Bürste', 'Socke', 'Ring', 'Vase', 'Schere', 'Löffel', 'Hammer', 'Blume', 'Fahrrad', 'Kette', 'Uhr', 'Kerze', 'Brille', 'Stift', 'Schlüssel', 'Flasche', 'Rucksack', 'Tasche', 'Kiste', 'Tasse', 'Kamera', 'Würfel', 'Trommel', 'Eimer', 'Geige', 'Buch', 'Hut', 'Telefon', 'Lampe']",259.15615110006183,259.15897119999863,None,259.15915250009857,259.1616762999911,None,259.161832800135,259.1643989000004,None,259.16455400013365,0,265.1696208000649,265.1696349000558,265.1707983999513,,,,,,,,,,,,,,,,,,,,,,,,,,,,,,,,,,,,,,,,,,,,,,,,3,2023-11-29_12h15.28.036,watkins1,2023.2.3,99.75231499712342,30,2023-11-29 12h15.35.024777 +0000,
,,,,,,,,,,,1,0,1,0,,,,,,,,,,,,,265.17941979994066,,,,,,,,,,265.17108840006404,265.6613917001523,,,[],[],,,,,,,,,,,,None,None,,,,,,,,,,Bürste,verspielt,"['Bürste', 'verspielt']",restudy,3,,,,,,265.171021200018,265.17105989996344,"['Jacke', 'Bürste', 'Socke', 'Ring', 'Vase', 'Schere', 'Löffel', 'Hammer', 'Blume', 'Fahrrad', 'Kette', 'Uhr', 'Kerze', 'Brille', 'Stift', 'Schlüssel', 'Flasche', 'Rucksack', 'Tasche', 'Kiste', 'Tasse', 'Kamera', 'Würfel', 'Trommel', 'Eimer', 'Geige', 'Buch', 'Hut', 'Telefon', 'Lampe']",265.6614020001143,265.66408000001684,None,265.6642050000373,271.6687167000491,1,271.6690877999645,271.67184910015203,None,271.6719625000842,,271.6734434000682,271.67345520015806,271.6746871001087,1.8929387999232858,None,,,,,,,,,,,,,,,,,,,,,,,,,,,,,,,,,,,,,,,,,,,,,,3,2023-11-29_12h15.28.036,watkins1,2023.2.3,99.75231499712342,30,2023-11-29 12h15.35.024777 +0000,
,,,,,,,,,,,2,0,2,0,,,,,,,,,,,,,271.6781995999627,,,,,,,,,,271.67496850015596,272.1703167001251,,,[],[],,,,,,,,,,,,None,None,,,,,,,,,,Socke,gepunktet,"['Socke', 'gepunktet']",restudy,3,,,,,,271.6749045001343,271.67494180006906,"['Jacke', 'Bürste', 'Socke', 'Ring', 'Vase', 'Schere', 'Löffel', 'Hammer', 'Blume', 'Fahrrad', 'Kette', 'Uhr', 'Kerze', 'Brille', 'Stift', 'Schlüssel', 'Flasche', 'Rucksack', 'Tasche', 'Kiste', 'Tasse', 'Kamera', 'Würfel', 'Trommel', 'Eimer', 'Geige', 'Buch', 'Hut', 'Telefon', 'Lampe']",272.17032789997756,272.17307310015894,None,272.1731994000729,278.17416770011187,2,278.17446270002984,278.1772489999421,None,278.17736169998534,,278.1785230000969,278.1785347999539,278.1797911999747,1.608720000134781,None,,,,,,,,,,,,,,,,,,,,,,,,,,,,,,,,,,,,,,,,,,,,,,3,2023-11-29_12h15.28.036,watkins1,2023.2.3,99.75231499712342,30,2023-11-29 12h15.35.024777 +0000,
,,,,,,,,,,,3,0,3,0,,,,,,,,,,,,,278.1836467999965,,,,,,,,,,278.1800804999657,278.6757847999688,,,[],[],,,,,,,,,,,strahlend,None,None,,,,,,,,,,Ring,strahlend,"['Ring', 'strahlend']",test_adj,3,,,,,,278.180014600046,278.18005300010554,"['Jacke', 'Bürste', 'Socke', 'Ring', 'Vase', 'Schere', 'Löffel', 'Hammer', 'Blume', 'Fahrrad', 'Kette', 'Uhr', 'Kerze', 'Brille', 'Stift', 'Schlüssel', 'Flasche', 'Rucksack', 'Tasche', 'Kiste', 'Tasse', 'Kamera', 'Würfel', 'Trommel', 'Eimer', 'Geige', 'Buch', 'Hut', 'Telefon', 'Lampe']",278.6757958000526,278.6784588000737,None,278.67859020014293,278.679918800015,None,278.6800287000369,278.68133000005037,None,278.6814377999399,0,284.6830490999855,284.6830627999734,284.6848284001462,,,,,,,,,,,,,,,,,,,,,,,,,,,,,,,,,,,,,,,,,,,,,,,,3,2023-11-29_12h15.28.036,watkins1,2023.2.3,99.75231499712342,30,2023-11-29 12h15.35.024777 +0000,
,,,,,,,,,,,4,0,4,0,,,,,,,,,,,,,284.6928081000224,,,,,,,,,,284.6851151001174,285.17491000005975,,,[],[],,,,,,,,,,,schmutzig,None,None,,,,,,,,,,Vase,schmutzig,"['Vase', 'schmutzig']",test_adj,3,,,,,,284.68504790007137,284.6850874000229,"['Jacke', 'Bürste', 'Socke', 'Ring', 'Vase', 'Schere', 'Löffel', 'Hammer', 'Blume', 'Fahrrad', 'Kette', 'Uhr', 'Kerze', 'Brille', 'Stift', 'Schlüssel', 'Flasche', 'Rucksack', 'Tasche', 'Kiste', 'Tasse', 'Kamera', 'Würfel', 'Trommel', 'Eimer', 'Geige', 'Buch', 'Hut', 'Telefon', 'Lampe']",285.1749205000233,285.17755830008537,None,285.17768540000543,285.18017249996774,None,285.1802872000262,285.1827640000265,None,285.18287130002864,0,291.18714489997365,291.1871591999661,291.1885274001397,,,,,,,,,,,,,,,,,,,,,,,,,,,,,,,,,,,,,,,,,,,,,,,,3,2023-11-29_12h15.28.036,watkins1,2023.2.3,99.75231499712342,30,2023-11-29 12h15.35.024777 +0000,
,,,,,,,,,,,5,0,5,0,,,,,,,,,,,,,291.1968807000667,,,,,,,,,,291.18880570004694,291.6790316000115,,,[],[],,,,,,,,,,,,None,None,,,,,,,,,,Schere,nachhaltig,"['Schere', 'nachhaltig']",restudy,3,,,,,,291.1887386001181,291.18877739994787,"['Jacke', 'Bürste', 'Socke', 'Ring', 'Vase', 'Schere', 'Löffel', 'Hammer', 'Blume', 'Fahrrad', 'Kette', 'Uhr', 'Kerze', 'Brille', 'Stift', 'Schlüssel', 'Flasche', 'Rucksack', 'Tasche', 'Kiste', 'Tasse', 'Kamera', 'Würfel', 'Trommel', 'Eimer', 'Geige', 'Buch', 'Hut', 'Telefon', 'Lampe']",291.67904209997505,291.68181150010787,None,291.6819434000645,297.68558580009267,1,297.68589109997265,297.68878440000117,None,297.6889007000718,,297.6903703000862,297.6903822000604,297.6916239000857,1.7397331001702696,None,,,,,,,,,,,,,,,,,,,,,,,,,,,,,,,,,,,,,,,,,,,,,,3,2023-11-29_12h15.28.036,watkins1,2023.2.3,99.75231499712342,30,2023-11-29 12h15.35.024777 +0000,
,,,,,,,,,,,6,0,6,0,,,,,,,,,,,,,297.695076999953,,,,,,,,,,297.6919059001375,298.18727870006114,,,[],[],,,,,,,,,,,,None,None,,,,,,,,,,Löffel,groß,"['Löffel', 'groß']",restudy,3,,,,,,297.69184079999104,297.6918792000506,"['Jacke', 'Bürste', 'Socke', 'Ring', 'Vase', 'Schere', 'Löffel', 'Hammer', 'Blume', 'Fahrrad', 'Kette', 'Uhr', 'Kerze', 'Brille', 'Stift', 'Schlüssel', 'Flasche', 'Rucksack', 'Tasche', 'Kiste', 'Tasse', 'Kamera', 'Würfel', 'Trommel', 'Eimer', 'Geige', 'Buch', 'Hut', 'Telefon', 'Lampe']",298.1872894000262,298.1900814000983,None,298.19020850001834,304.20067090005614,2,304.2009695000015,304.20356860011816,None,304.2036812999286,,304.20485500013456,304.2048667999916,304.2059005999472,1.3998908000066876,None,,,,,,,,,,,,,,,,,,,,,,,,,,,,,,,,,,,,,,,,,,,,,,3,2023-11-29_12h15.28.036,watkins1,2023.2.3,99.75231499712342,30,2023-11-29 12h15.35.024777 +0000,
,,,,,,,,,,,7,0,7,0,,,,,,,,,,,,,304.2102898999583,,,,,,,,,,304.2061815999914,304.7022577000316,,,[],[],,,,,,,,,,,nass,None,None,,,,,,,,,,Hammer,nass,"['Hammer', 'nass']",test_adj,3,,,,,,304.20611710008234,304.20615510013886,"['Jacke', 'Bürste', 'Socke', 'Ring', 'Vase', 'Schere', 'Löffel', 'Hammer', 'Blume', 'Fahrrad', 'Kette', 'Uhr', 'Kerze', 'Brille', 'Stift', 'Schlüssel', 'Flasche', 'Rucksack', 'Tasche', 'Kiste', 'Tasse', 'Kamera', 'Würfel', 'Trommel', 'Eimer', 'Geige', 'Buch', 'Hut', 'Telefon', 'Lampe']",304.7022675999906,304.704796400154,None,304.704918500036,304.70633459999226,None,304.70644149999134,304.70786090008914,None,304.70796869997866,0,310.71017670002766,310.7101901001297,310.71135960007086,,,,,,,,,,,,,,,,,,,,,,,,,,,,,,,,,,,,,,,,,,,,,,,,3,2023-11-29_12h15.28.036,watkins1,2023.2.3,99.75231499712342,30,2023-11-29 12h15.35.024777 +0000,
,,,,,,,,,,,8,0,8,0,,,,,,,,,,,,,310.71998349996284,,,,,,,,,,310.7116452001501,311.2019809000194,,,[],[],,,,,,,,,,,,None,None,,,,,,,,,,Blume,robust,"['Blume', 'robust']",test_adj,3,,,,,,310.711579099996,310.71161710005254,"['Jacke', 'Bürste', 'Socke', 'Ring', 'Vase', 'Schere', 'Löffel', 'Hammer', 'Blume', 'Fahrrad', 'Kette', 'Uhr', 'Kerze', 'Brille', 'Stift', 'Schlüssel', 'Flasche', 'Rucksack', 'Tasche', 'Kiste', 'Tasse', 'Kamera', 'Würfel', 'Trommel', 'Eimer', 'Geige', 'Buch', 'Hut', 'Telefon', 'Lampe']",311.2019911999814,311.2045178001281,None,311.2046420001425,311.2070202000905,None,311.207132200012,311.20950970007107,None,311.2096164000686,0,317.2137558001559,317.2137693001423,317.2150729999412,,,,,,,,,,,,,,,,,,,,,,,,,,,,,,,,,,,,,,,,,,,,,,,,3,2023-11-29_12h15.28.036,watkins1,2023.2.3,99.75231499712342,30,2023-11-29 12h15.35.024777 +0000,
,,,,,,,,,,,9,0,9,0,,,,,,,,,,,,,317.22365770000033,,,,,,,,,,317.2153589001391,317.70569920004345,,,[],[],,,,,,,,,,,,None,None,,,,,,,,,,Fahrrad,schlicht,"['Fahrrad', 'schlicht']",test_adj,3,,,,,,317.21529199997894,317.2153304000385,"['Jacke', 'Bürste', 'Socke', 'Ring', 'Vase', 'Schere', 'Löffel', 'Hammer', 'Blume', 'Fahrrad', 'Kette', 'Uhr', 'Kerze', 'Brille', 'Stift', 'Schlüssel', 'Flasche', 'Rucksack', 'Tasche', 'Kiste', 'Tasse', 'Kamera', 'Würfel', 'Trommel', 'Eimer', 'Geige', 'Buch', 'Hut', 'Telefon', 'Lampe']",317.70570980012417,317.708511200035,None,317.7086366999429,317.711187900044,None,317.7112980999518,317.71402120008133,None,317.71413059998304,0,323.7185889000539,323.7186026000418,323.7199731001165,,,,,,,,,,,,,,,,,,,,,,,,,,,,,,,,,,,,,,,,,,,,,,,,3,2023-11-29_12h15.28.036,watkins1,2023.2.3,99.75231499712342,30,2023-11-29 12h15.35.024777 +0000,
,,,,,,,,,,,10,0,10,0,,,,,,,,,,,,,323.7283797999844,,,,,,,,,,323.720267200144,324.21057070000097,,,[],[],,,,,,,,,,,,None,None,,,,,,,,,,Kette,gut,"['Kette', 'gut']",restudy,3,,,,,,323.7201919001527,323.72023810003884,"['Jacke', 'Bürste', 'Socke', 'Ring', 'Vase', 'Schere', 'Löffel', 'Hammer', 'Blume', 'Fahrrad', 'Kette', 'Uhr', 'Kerze', 'Brille', 'Stift', 'Schlüssel', 'Flasche', 'Rucksack', 'Tasche', 'Kiste', 'Tasse', 'Kamera', 'Würfel', 'Trommel', 'Eimer', 'Geige', 'Buch', 'Hut', 'Telefon', 'Lampe']",324.2105821000878,324.21371040004306,None,324.21383769996464,330.2158107000869,2,330.2161046001129,330.21869820007123,None,330.2188099999912,,330.2199812999461,330.21999340015464,330.22101889993064,1.3921735999174416,None,,,,,,,,,,,,,,,,,,,,,,,,,,,,,,,,,,,,,,,,,,,,,,3,2023-11-29_12h15.28.036,watkins1,2023.2.3,99.75231499712342,30,2023-11-29 12h15.35.024777 +0000,
,,,,,,,,,,,11,0,11,0,,,,,,,,,,,,,330.2252506001387,,,,,,,,,,330.2212992000859,330.71741820010357,,,[],[],,,,,,,,,,,,None,None,,,,,,,,,,Uhr,klobig,"['Uhr', 'klobig']",restudy,3,,,,,,330.22123389993794,330.22127220011316,"['Jacke', 'Bürste', 'Socke', 'Ring', 'Vase', 'Schere', 'Löffel', 'Hammer', 'Blume', 'Fahrrad', 'Kette', 'Uhr', 'Kerze', 'Brille', 'Stift', 'Schlüssel', 'Flasche', 'Rucksack', 'Tasche', 'Kiste', 'Tasse', 'Kamera', 'Würfel', 'Trommel', 'Eimer', 'Geige', 'Buch', 'Hut', 'Telefon', 'Lampe']",330.7174285999499,330.7198070001323,None,330.7199343999382,336.7243133999873,2,336.7246169000864,336.7272199001163,None,336.72733110003173,,336.7283441000618,336.72835570015013,336.7295377999544,1.1660458000842482,None,,,,,,,,,,,,,,,,,,,,,,,,,,,,,,,,,,,,,,,,,,,,,,3,2023-11-29_12h15.28.036,watkins1,2023.2.3,99.75231499712342,30,2023-11-29 12h15.35.024777 +0000,
,,,,,,,,,,,12,0,12,0,,,,,,,,,,,,,336.73380589997396,,,,,,,,,,336.7298175001051,337.2258345000446,,,[],[],,,,,,,,,,,,None,None,,,,,,,,,,Kerze,schwer,"['Kerze', 'schwer']",restudy,3,,,,,,336.72975299996324,336.72979100001976,"['Jacke', 'Bürste', 'Socke', 'Ring', 'Vase', 'Schere', 'Löffel', 'Hammer', 'Blume', 'Fahrrad', 'Kette', 'Uhr', 'Kerze', 'Brille', 'Stift', 'Schlüssel', 'Flasche', 'Rucksack', 'Tasche', 'Kiste', 'Tasse', 'Kamera', 'Würfel', 'Trommel', 'Eimer', 'Geige', 'Buch', 'Hut', 'Telefon', 'Lampe']",337.2258451001253,337.2285025001038,None,337.2286300000269,343.23444829997607,1,343.234739900101,343.23752019996755,None,343.23763440013863,,343.2388021000661,343.2388137001544,343.2399995001033,1.409228099975735,None,,,,,,,,,,,,,,,,,,,,,,,,,,,,,,,,,,,,,,,,,,,,,,3,2023-11-29_12h15.28.036,watkins1,2023.2.3,99.75231499712342,30,2023-11-29 12h15.35.024777 +0000,
,,,,,,,,,,,13,0,13,0,,,,,,,,,,,,,343.2439326001331,,,,,,,,,,343.24028549995273,343.7359982000198,,,[],[],,,,,,,,,,,sauber,None,None,,,,,,,,,,Brille,sauber,"['Brille', 'sauber']",test_adj,3,,,,,,343.2402197001502,343.24025780009106,"['Jacke', 'Bürste', 'Socke', 'Ring', 'Vase', 'Schere', 'Löffel', 'Hammer', 'Blume', 'Fahrrad', 'Kette', 'Uhr', 'Kerze', 'Brille', 'Stift', 'Schlüssel', 'Flasche', 'Rucksack', 'Tasche', 'Kiste', 'Tasse', 'Kamera', 'Würfel', 'Trommel', 'Eimer', 'Geige', 'Buch', 'Hut', 'Telefon', 'Lampe']",343.7360092001036,343.7386783999391,None,343.7388079999946,343.7402375000529,None,343.74034680007026,343.7417767001316,None,343.7418856001459,0,349.74398469994776,349.7439989000559,349.7452964000404,,,,,,,,,,,,,,,,,,,,,,,,,,,,,,,,,,,,,,,,,,,,,,,,3,2023-11-29_12h15.28.036,watkins1,2023.2.3,99.75231499712342,30,2023-11-29 12h15.35.024777 +0000,
,,,,,,,,,,,14,0,14,0,,,,,,,,,,,,,349.7537974999286,,,,,,,,,,349.74558370001614,350.2358530999627,,,[],[],,,,,,,,,,,,None,None,,,,,,,,,,Stift,flach,"['Stift', 'flach']",restudy,3,,,,,,349.74551669997163,349.7455548001453,"['Jacke', 'Bürste', 'Socke', 'Ring', 'Vase', 'Schere', 'Löffel', 'Hammer', 'Blume', 'Fahrrad', 'Kette', 'Uhr', 'Kerze', 'Brille', 'Stift', 'Schlüssel', 'Flasche', 'Rucksack', 'Tasche', 'Kiste', 'Tasse', 'Kamera', 'Würfel', 'Trommel', 'Eimer', 'Geige', 'Buch', 'Hut', 'Telefon', 'Lampe']",350.2358629000373,350.23850540001877,None,350.2386275001336,356.24216819996946,1,356.2424604999833,356.2450781001244,None,356.24518990004435,,356.24665169999935,356.2466633000877,356.24783050012775,1.3753010001964867,None,,,,,,,,,,,,,,,,,,,,,,,,,,,,,,,,,,,,,,,,,,,,,,3,2023-11-29_12h15.28.036,watkins1,2023.2.3,99.75231499712342,30,2023-11-29 12h15.35.024777 +0000,
,,,,,,,,,,,15,0,15,0,,,,,,,,,,,,,356.25164739997126,,,,,,,,,,356.24810890015215,356.7437919001095,,,[],[],,,,,,,,,,,,None,None,,,,,,,,,,Schlüssel,lustig,"['Schlüssel', 'lustig']",restudy,3,,,,,,356.24804440001026,356.24808220006526,"['Jacke', 'Bürste', 'Socke', 'Ring', 'Vase', 'Schere', 'Löffel', 'Hammer', 'Blume', 'Fahrrad', 'Kette', 'Uhr', 'Kerze', 'Brille', 'Stift', 'Schlüssel', 'Flasche', 'Rucksack', 'Tasche', 'Kiste', 'Tasse', 'Kamera', 'Würfel', 'Trommel', 'Eimer', 'Geige', 'Buch', 'Hut', 'Telefon', 'Lampe']",356.7438036999665,356.74654980003834,None,356.7466760999523,362.75423780013807,1,362.7545270000119,362.7573253000155,None,362.7574353001546,,362.7586563001387,362.75866780010983,362.7598123000935,1.4270033000502735,None,,,,,,,,,,,,,,,,,,,,,,,,,,,,,,,,,,,,,,,,,,,,,,3,2023-11-29_12h15.28.036,watkins1,2023.2.3,99.75231499712342,30,2023-11-29 12h15.35.024777 +0000,
,,,,,,,,,,,16,0,16,0,,,,,,,,,,,,,362.76370200002566,,,,,,,,,,362.76008499995805,363.25585429999046,,,[],[],,,,,,,,,,,,None,None,,,,,,,,,,Flasche,dick,"['Flasche', 'dick']",test_adj,3,,,,,,362.7600221000612,362.7600589999929,"['Jacke', 'Bürste', 'Socke', 'Ring', 'Vase', 'Schere', 'Löffel', 'Hammer', 'Blume', 'Fahrrad', 'Kette', 'Uhr', 'Kerze', 'Brille', 'Stift', 'Schlüssel', 'Flasche', 'Rucksack', 'Tasche', 'Kiste', 'Tasse', 'Kamera', 'Würfel', 'Trommel', 'Eimer', 'Geige', 'Buch', 'Hut', 'Telefon', 'Lampe']",363.25586439995095,363.2585611001123,None,363.25868560001254,363.26013029995374,None,363.2602385999635,363.2616920999717,None,363.26180039998144,0,369.26376230013557,369.26377600012347,369.2650260999799,,,,,,,,,,,,,,,,,,,,,,,,,,,,,,,,,,,,,,,,,,,,,,,,3,2023-11-29_12h15.28.036,watkins1,2023.2.3,99.75231499712342,30,2023-11-29 12h15.35.024777 +0000,
,,,,,,,,,,,17,0,17,0,,,,,,,,,,,,,369.27367700007744,,,,,,,,,,369.26531030004844,369.7557868999429,,,[],[],,,,,,,,,,,,None,None,,,,,,,,,,Rucksack,teuer,"['Rucksack', 'teuer']",restudy,3,,,,,,369.265243700007,369.26528199994937,"['Jacke', 'Bürste', 'Socke', 'Ring', 'Vase', 'Schere', 'Löffel', 'Hammer', 'Blume', 'Fahrrad', 'Kette', 'Uhr', 'Kerze', 'Brille', 'Stift', 'Schlüssel', 'Flasche', 'Rucksack', 'Tasche', 'Kiste', 'Tasse', 'Kamera', 'Würfel', 'Trommel', 'Eimer', 'Geige', 'Buch', 'Hut', 'Telefon', 'Lampe']",369.75579790002666,369.758400300052,None,369.75852550007403,375.76110540004447,2,375.76140379998833,375.764123900095,None,375.76423550001346,,375.7654546999838,375.765466599958,375.7666214001365,2.2788752999622375,None,,,,,,,,,,,,,,,,,,,,,,,,,,,,,,,,,,,,,,,,,,,,,,3,2023-11-29_12h15.28.036,watkins1,2023.2.3,99.75231499712342,30,2023-11-29 12h15.35.024777 +0000,
,,,,,,,,,,,18,0,18,0,,,,,,,,,,,,,375.77052110014483,,,,,,,,,,375.7669017999433,376.26257270015776,,,[],[],,,,,,,,,,,,None,None,,,,,,,,,,Tasche,blass,"['Tasche', 'blass']",restudy,3,,,,,,375.76683650002815,375.7668751999736,"['Jacke', 'Bürste', 'Socke', 'Ring', 'Vase', 'Schere', 'Löffel', 'Hammer', 'Blume', 'Fahrrad', 'Kette', 'Uhr', 'Kerze', 'Brille', 'Stift', 'Schlüssel', 'Flasche', 'Rucksack', 'Tasche', 'Kiste', 'Tasse', 'Kamera', 'Würfel', 'Trommel', 'Eimer', 'Geige', 'Buch', 'Hut', 'Telefon', 'Lampe']",376.26258380012587,376.2652485999279,None,376.26537539996207,382.2682902000379,1,382.2685927001294,382.2712489000987,None,382.27136320015416,,382.2725411001593,382.2725530001335,382.27370520005934,1.3003696999512613,None,,,,,,,,,,,,,,,,,,,,,,,,,,,,,,,,,,,,,,,,,,,,,,3,2023-11-29_12h15.28.036,watkins1,2023.2.3,99.75231499712342,30,2023-11-29 12h15.35.024777 +0000,
,,,,,,,,,,,19,0,19,0,,,,,,,,,,,,,382.2777339001186,,,,,,,,,,382.27398769999854,382.76984470011666,,,[],[],,,,,,,,,,,,None,None,,,,,,,,,,Kiste,rustikal,"['Kiste', 'rustikal']",restudy,3,,,,,,382.2739228999708,382.2739609000273,"['Jacke', 'Bürste', 'Socke', 'Ring', 'Vase', 'Schere', 'Löffel', 'Hammer', 'Blume', 'Fahrrad', 'Kette', 'Uhr', 'Kerze', 'Brille', 'Stift', 'Schlüssel', 'Flasche', 'Rucksack', 'Tasche', 'Kiste', 'Tasse', 'Kamera', 'Würfel', 'Trommel', 'Eimer', 'Geige', 'Buch', 'Hut', 'Telefon', 'Lampe']",382.7698552000802,382.77250650012866,None,382.77263230015524,388.7756876000203,1,388.7759925001301,388.7787150000222,None,388.7788279999513,,388.7800751000177,388.7800869999919,388.781318299938,1.209072900004685,None,,,,,,,,,,,,,,,,,,,,,,,,,,,,,,,,,,,,,,,,,,,,,,3,2023-11-29_12h15.28.036,watkins1,2023.2.3,99.75231499712342,30,2023-11-29 12h15.35.024777 +0000,
,,,,,,,,,,,20,0,20,0,,,,,,,,,,,,,388.785157199949,,,,,,,,,,388.78160069999285,389.2772041000426,,,[],[],,,,,,,,,,,lu,None,None,,,,,,,,,,Tasse,flauschig,"['Tasse', 'flauschig']",test_adj,3,,,,,,388.781535099959,388.78157410002314,"['Jacke', 'Bürste', 'Socke', 'Ring', 'Vase', 'Schere', 'Löffel', 'Hammer', 'Blume', 'Fahrrad', 'Kette', 'Uhr', 'Kerze', 'Brille', 'Stift', 'Schlüssel', 'Flasche', 'Rucksack', 'Tasche', 'Kiste', 'Tasse', 'Kamera', 'Würfel', 'Trommel', 'Eimer', 'Geige', 'Buch', 'Hut', 'Telefon', 'Lampe']",389.2772147001233,389.2800823999569,None,389.2802057999652,389.2816240999382,None,389.2817331000697,389.2831475001294,None,389.28325530001894,0,395.2856523001101,395.2856668999884,395.28702550008893,,,,,,,,,,,,,,,,,,,,,,,,,,,,,,,,,,,,,,,,,,,,,,,,3,2023-11-29_12h15.28.036,watkins1,2023.2.3,99.75231499712342,30,2023-11-29 12h15.35.024777 +0000,
,,,,,,,,,,,21,0,21,0,,,,,,,,,,,,,395.2954554001335,,,,,,,,,,395.2873158000875,395.77740860008635,,,[],[],,,,,,,,,,,teuer,None,None,,,,,,,,,,Kamera,elegant,"['Kamera', 'elegant']",test_adj,3,,,,,,395.2872447001282,395.2872842999641,"['Jacke', 'Bürste', 'Socke', 'Ring', 'Vase', 'Schere', 'Löffel', 'Hammer', 'Blume', 'Fahrrad', 'Kette', 'Uhr', 'Kerze', 'Brille', 'Stift', 'Schlüssel', 'Flasche', 'Rucksack', 'Tasche', 'Kiste', 'Tasse', 'Kamera', 'Würfel', 'Trommel', 'Eimer', 'Geige', 'Buch', 'Hut', 'Telefon', 'Lampe']",395.77741939993575,395.7801926000975,None,395.7803189000115,395.7828906001523,None,395.783001099946,395.7855730999727,None,395.7856803999748,0,401.7905771001242,401.79059120011516,401.79190300009213,,,,,,,,,,,,,,,,,,,,,,,,,,,,,,,,,,,,,,,,,,,,,,,,3,2023-11-29_12h15.28.036,watkins1,2023.2.3,99.75231499712342,30,2023-11-29 12h15.35.024777 +0000,
,,,,,,,,,,,22,0,22,0,,,,,,,,,,,,,401.8004165000748,,,,,,,,,,401.7921959001105,402.28244360000826,,,[],[],,,,,,,,,,,hohl,None,None,,,,,,,,,,Würfel,hohl,"['Würfel', 'hohl']",test_adj,3,,,,,,401.79212470003404,401.7921655999962,"['Jacke', 'Bürste', 'Socke', 'Ring', 'Vase', 'Schere', 'Löffel', 'Hammer', 'Blume', 'Fahrrad', 'Kette', 'Uhr', 'Kerze', 'Brille', 'Stift', 'Schlüssel', 'Flasche', 'Rucksack', 'Tasche', 'Kiste', 'Tasse', 'Kamera', 'Würfel', 'Trommel', 'Eimer', 'Geige', 'Buch', 'Hut', 'Telefon', 'Lampe']",402.28245349996723,402.28514970000833,None,402.285274800146,402.28781610005535,None,402.2879260999616,402.29047300014645,None,402.29058010014705,0,408.29604150005616,408.2960580000654,408.2972140000202,,,,,,,,,,,,,,,,,,,,,,,,,,,,,,,,,,,,,,,,,,,,,,,,3,2023-11-29_12h15.28.036,watkins1,2023.2.3,99.75231499712342,30,2023-11-29 12h15.35.024777 +0000,
,,,,,,,,,,,23,0,23,0,,,,,,,,,,,,,408.3058396000415,,,,,,,,,,408.29750049998984,408.7879089000635,,,[],[],,,,,,,,,,,,None,None,,,,,,,,,,Trommel,kurz,"['Trommel', 'kurz']",restudy,3,,,,,,408.2974308000412,408.29747200012207,"['Jacke', 'Bürste', 'Socke', 'Ring', 'Vase', 'Schere', 'Löffel', 'Hammer', 'Blume', 'Fahrrad', 'Kette', 'Uhr', 'Kerze', 'Brille', 'Stift', 'Schlüssel', 'Flasche', 'Rucksack', 'Tasche', 'Kiste', 'Tasse', 'Kamera', 'Würfel', 'Trommel', 'Eimer', 'Geige', 'Buch', 'Hut', 'Telefon', 'Lampe']",408.7879193001427,408.7906440999359,None,408.790774699999,414.7923175001051,1,414.7926110001281,414.7952583001461,None,414.795371199958,,414.79687880002894,414.79689090000466,414.79792369995266,1.383111499948427,None,,,,,,,,,,,,,,,,,,,,,,,,,,,,,,,,,,,,,,,,,,,,,,3,2023-11-29_12h15.28.036,watkins1,2023.2.3,99.75231499712342,30,2023-11-29 12h15.35.024777 +0000,
,,,,,,,,,,,24,0,24,0,,,,,,,,,,,,,414.8017911000643,,,,,,,,,,414.7982054001186,415.2940225000493,,,[],[],,,,,,,,,,,,None,None,,,,,,,,,,Eimer,neu,"['Eimer', 'neu']",restudy,3,,,,,,414.7981398999691,414.7981779000256,"['Jacke', 'Bürste', 'Socke', 'Ring', 'Vase', 'Schere', 'Löffel', 'Hammer', 'Blume', 'Fahrrad', 'Kette', 'Uhr', 'Kerze', 'Brille', 'Stift', 'Schlüssel', 'Flasche', 'Rucksack', 'Tasche', 'Kiste', 'Tasse', 'Kamera', 'Würfel', 'Trommel', 'Eimer', 'Geige', 'Buch', 'Hut', 'Telefon', 'Lampe']",415.29403280001134,415.29653099994175,None,415.2966553999577,421.3068578001112,2,421.3071508000139,421.30971890012734,None,421.30983259994537,,421.31098970002495,421.3110015001148,421.3120242001023,1.3092960000503808,None,,,,,,,,,,,,,,,,,,,,,,,,,,,,,,,,,,,,,,,,,,,,,,3,2023-11-29_12h15.28.036,watkins1,2023.2.3,99.75231499712342,30,2023-11-29 12h15.35.024777 +0000,
,,,,,,,,,,,25,0,25,0,,,,,,,,,,,,,421.3163701000158,,,,,,,,,,421.31230859993957,421.8085868000053,,,[],[],,,,,,,,,,,winz,None,None,,,,,,,,,,Geige,winzig,"['Geige', 'winzig']",test_adj,3,,,,,,421.3122415000107,421.3122813999653,"['Jacke', 'Bürste', 'Socke', 'Ring', 'Vase', 'Schere', 'Löffel', 'Hammer', 'Blume', 'Fahrrad', 'Kette', 'Uhr', 'Kerze', 'Brille', 'Stift', 'Schlüssel', 'Flasche', 'Rucksack', 'Tasche', 'Kiste', 'Tasse', 'Kamera', 'Würfel', 'Trommel', 'Eimer', 'Geige', 'Buch', 'Hut', 'Telefon', 'Lampe']",421.8085980999749,421.81113280006684,None,421.811259200098,421.8126799999736,None,421.8127900001127,421.81421059998684,None,421.81431880011223,0,427.81788240000606,427.81789720011875,427.819087699987,,,,,,,,,,,,,,,,,,,,,,,,,,,,,,,,,,,,,,,,,,,,,,,,3,2023-11-29_12h15.28.036,watkins1,2023.2.3,99.75231499712342,30,2023-11-29 12h15.35.024777 +0000,
,,,,,,,,,,,26,0,26,0,,,,,,,,,,,,,427.8263908000663,,,,,,,,,,427.819372799946,428.3185628000647,,,[],[],,,,,,,,,,,gestreift,None,None,,,,,,,,,,Buch,gestreift,"['Buch', 'gestreift']",test_adj,3,,,,,,427.81930420012213,427.8193441000767,"['Jacke', 'Bürste', 'Socke', 'Ring', 'Vase', 'Schere', 'Löffel', 'Hammer', 'Blume', 'Fahrrad', 'Kette', 'Uhr', 'Kerze', 'Brille', 'Stift', 'Schlüssel', 'Flasche', 'Rucksack', 'Tasche', 'Kiste', 'Tasse', 'Kamera', 'Würfel', 'Trommel', 'Eimer', 'Geige', 'Buch', 'Hut', 'Telefon', 'Lampe']",428.31857380014844,428.3211581001524,None,428.321287299972,428.3236688999459,None,428.3237791999709,428.3261870001443,None,428.32629669993185,0,434.3302609999664,434.3302746999543,434.3316419001203,,,,,,,,,,,,,,,,,,,,,,,,,,,,,,,,,,,,,,,,,,,,,,,,3,2023-11-29_12h15.28.036,watkins1,2023.2.3,99.75231499712342,30,2023-11-29 12h15.35.024777 +0000,
,,,,,,,,,,,27,0,27,0,,,,,,,,,,,,,434.3401206000708,,,,,,,,,,434.33192920009606,434.82225230010226,,,[],[],,,,,,,,,,,,None,None,,,,,,,,,,Hut,niedlich,"['Hut', 'niedlich']",test_adj,3,,,,,,434.3318593001459,434.33190069999546,"['Jacke', 'Bürste', 'Socke', 'Ring', 'Vase', 'Schere', 'Löffel', 'Hammer', 'Blume', 'Fahrrad', 'Kette', 'Uhr', 'Kerze', 'Brille', 'Stift', 'Schlüssel', 'Flasche', 'Rucksack', 'Tasche', 'Kiste', 'Tasse', 'Kamera', 'Würfel', 'Trommel', 'Eimer', 'Geige', 'Buch', 'Hut', 'Telefon', 'Lampe']",434.8222624999471,434.824810200138,None,434.82493790006265,434.8273488001432,None,434.82745820004493,434.8298742000479,None,434.8299823999405,0,440.8347211999353,440.83473460003734,440.8361116000451,,,,,,,,,,,,,,,,,,,,,,,,,,,,,,,,,,,,,,,,,,,,,,,,3,2023-11-29_12h15.28.036,watkins1,2023.2.3,99.75231499712342,30,2023-11-29 12h15.35.024777 +0000,
,,,,,,,,,,,28,0,28,0,,,,,,,,,,,,,440.8445156000089,,,,,,,,,,440.8363984001335,441.32654380006716,,,[],[],,,,,,,,,,,,None,None,,,,,,,,,,Telefon,breit,"['Telefon', 'breit']",restudy,3,,,,,,440.8363284000661,440.83637000015005,"['Jacke', 'Bürste', 'Socke', 'Ring', 'Vase', 'Schere', 'Löffel', 'Hammer', 'Blume', 'Fahrrad', 'Kette', 'Uhr', 'Kerze', 'Brille', 'Stift', 'Schlüssel', 'Flasche', 'Rucksack', 'Tasche', 'Kiste', 'Tasse', 'Kamera', 'Würfel', 'Trommel', 'Eimer', 'Geige', 'Buch', 'Hut', 'Telefon', 'Lampe']",441.32655410002917,441.3292674999684,None,441.32938929996453,447.3398349999916,1,447.34012790001,447.34279550006613,None,447.342909200117,,447.34409629995935,447.344107999932,447.3453812999651,1.1962792999111116,None,,,,,,,,,,,,,,,,,,,,,,,,,,,,,,,,,,,,,,,,,,,,,,3,2023-11-29_12h15.28.036,watkins1,2023.2.3,99.75231499712342,30,2023-11-29 12h15.35.024777 +0000,
,,,,,,,,,,,29,0,29,0,,,,,,,,,,,,,447.349361800123,,,,,,,,,,447.3456662001554,447.8414223000873,,,[],[],,,,,,,,,,,,None,None,,,,,,,,,,Lampe,kalt,"['Lampe', 'kalt']",test_adj,3,,,,,,447.3455974000972,447.3456383999437,"['Jacke', 'Bürste', 'Socke', 'Ring', 'Vase', 'Schere', 'Löffel', 'Hammer', 'Blume', 'Fahrrad', 'Kette', 'Uhr', 'Kerze', 'Brille', 'Stift', 'Schlüssel', 'Flasche', 'Rucksack', 'Tasche', 'Kiste', 'Tasse', 'Kamera', 'Würfel', 'Trommel', 'Eimer', 'Geige', 'Buch', 'Hut', 'Telefon', 'Lampe']",447.84143349993974,447.84427560004406,None,447.8444070001133,447.84584369999357,None,447.84595580003224,447.84737650002353,None,447.84748590015806,0,453.8502805000171,453.85029460000806,453.85144910006784,,,,,,,,,,,,,,,,,,,,,,,,,,,,,,,,,,,,,,,,,,,,,,,,3,2023-11-29_12h15.28.036,watkins1,2023.2.3,99.75231499712342,30,2023-11-29 12h15.35.024777 +0000,
,,,,,,,,,,,,,,,,,,,,,,,,,,,,,,,,,,,,,,,,,,,,,,,,,,,,,,,,,,,,,,,,,,,,,3,,,,,,,,,,,,,,,,,,,,,,,,,,,,,,,,,,,,,,,,,,,,,,,,,,,,,,,,,,,,,,,,,,,,,,3,2023-11-29_12h15.28.036,watkins1,2023.2.3,99.75231499712342,30,2023-11-29 12h15.35.024777 +0000,
(9 x 5) - 9 = 36 ,Correct,button_correct,,,,,,,,,,,,,0,0,0,4,,,,,,,,,462.3302968000062,,,,,,,,461.28341050003655,462.2872145001311,,,,,['button_correct'],[2.807040899991989],,,,,,,,,,,,,,,,,,,,,,,,,,distractorTask,3,,,,,,,,,,,,,,,,,,,,,,,,,462.31255210004747,462.3302968000062,465.12475299998187,[0.3537037037037037],[-0.4009259259259259],[1],[0],[0],[2.807040899991989],['button_correct'],465.12542910012417,466.1283414000645,,,,,,,,,,,,,,,,,,,,,,,,,,,,,,,,,,3,2023-11-29_12h15.28.036,watkins1,2023.2.3,99.75231499712342,30,2023-11-29 12h15.35.024777 +0000,
(40 : 5) + 8 = 15 ,Incorrect,button_incorrect,,,,,,,,,,,,,0,1,1,7,,,,,,,,,466.13829430006444,,,,,,,,,,,,,,['button_incorrect'],[4.42461089999415],,,,,,,,,,,,,,,,,,,,,,,,,,distractorTask,3,,,,,,,,,,,,,,,,,,,,,,,,,466.1285329000093,466.13829430006444,470.55727360001765,[-0.31851851851851853],[-0.38796296296296295],[1],[0],[0],[4.42461089999415],['button_incorrect'],470.5576506999787,471.56094769993797,,,,,,,,,,,,,,,,,,,,,,,,,,,,,,,,,,3,2023-11-29_12h15.28.036,watkins1,2023.2.3,99.75231499712342,30,2023-11-29 12h15.35.024777 +0000,
(80 : 10) + 9 = 17 ,Correct,button_correct,,,,,,,,,,,,,0,2,2,3,,,,,,,,,471.5708528000396,,,,,,,,,,,,,,['button_correct'],[1.7149232998490334],,,,,,,,,,,,,,,,,,,,,,,,,,distractorTask,3,,,,,,,,,,,,,,,,,,,,,,,,,471.5611427000258,471.5708528000396,473.27848700014874,[0.2953703703703704],[-0.37777777777777777],[1],[0],[0],[1.7149232998490334],['button_correct'],473.27886210009456,474.2820445999969,,,,,,,,,,,,,,,,,,,,,,,,,,,,,,,,,,3,2023-11-29_12h15.28.036,watkins1,2023.2.3,99.75231499712342,30,2023-11-29 12h15.35.024777 +0000,
(25 : 5) + 5 = 9 ,Incorrect,button_incorrect,,,,,,,,,,,,,0,3,3,6,,,,,,,,,474.29209390003234,,,,,,,,,,,,,,['button_incorrect'],[1.5948309998493642],,,,,,,,,,,,,,,,,,,,,,,,,,distractorTask,3,,,,,,,,,,,,,,,,,,,,,,,,,474.2822438001167,474.29209390003234,475.8792161999736,[-0.3962962962962963],[-0.40555555555555556],[1],[0],[0],[1.5948309998493642],['button_incorrect'],475.8795934000518,476.8828589001205,,,,,,,,,,,,,,,,,,,,,,,,,,,,,,,,,,3,2023-11-29_12h15.28.036,watkins1,2023.2.3,99.75231499712342,30,2023-11-29 12h15.35.024777 +0000,
(6 x 3) + 10 = 27 ,Incorrect,button_incorrect,,,,,,,,,,,,,0,4,4,8,,,,,,,,,476.89294199994765,,,,,,,,,,,,,,['button_incorrect'],[1.7258395999670029],,,,,,,,,,,,,,,,,,,,,,,,,,distractorTask,3,,,,,,,,,,,,,,,,,,,,,,,,,476.883049499942,476.89294199994765,478.61061660014093,[-0.32685185185185184],[-0.3925925925925926],[1],[0],[0],[1.7258395999670029],['button_incorrect'],478.61098950007,479.6141850000713,,,,,,,,,,,,,,,,,,,,,,,,,,,,,,,,,,3,2023-11-29_12h15.28.036,watkins1,2023.2.3,99.75231499712342,30,2023-11-29 12h15.35.024777 +0000,
(4 : 2) + 4 = 6 ,Correct,button_correct,,,,,,,,,,,,,0,5,5,1,,,,,,,,,479.62427110015415,,,,,,,,,,,,,,['button_correct'],[1.57520979992114],,,,,,,,,,,,,,,,,,,,,,,,,,distractorTask,3,,,,,,,,,,,,,,,,,,,,,,,,,479.6143765000161,479.62427110015415,481.1912740999833,[0.3277777777777778],[-0.38981481481481484],[1],[0],[0],[1.57520979992114],['button_correct'],481.1916462001391,482.19487589993514,,,,,,,,,,,,,,,,,,,,,,,,,,,,,,,,,,3,2023-11-29_12h15.28.036,watkins1,2023.2.3,99.75231499712342,30,2023-11-29 12h15.35.024777 +0000,
(2 x 5) + 3 = 13 ,Correct,button_correct,,,,,,,,,,,,,0,6,6,2,,,,,,,,,482.2048553000204,,,,,,,,,,,,,,['button_correct'],[1.3944331998936832],,,,,,,,,,,,,,,,,,,,,,,,,,distractorTask,3,,,,,,,,,,,,,,,,,,,,,,,,,482.1950644000899,482.2048553000204,483.59120190003887,[0.40370370370370373],[-0.41203703703703703],[1],[0],[0],[1.3944331998936832],['button_correct'],483.5915843001567,484.594912200002,,,,,,,,,,,,,,,,,,,,,,,,,,,,,,,,,,3,2023-11-29_12h15.28.036,watkins1,2023.2.3,99.75231499712342,30,2023-11-29 12h15.35.024777 +0000,
(28 : 7) - 3 = 1 ,Correct,button_correct,,,,,,,,,,,,,0,7,7,0,,,,,,,,,484.6049065000843,,,,,,,,,,,,,,['button_incorrect'],[2.9606376998126507],,,,,,,,,,,,,,,,,,,,,,,,,,distractorTask,3,,,,,,,,,,,,,,,,,,,,,,,,,484.5951052000746,484.6049065000843,487.5576174999587,[-0.33611111111111114],[-0.412962962962963],[1],[0],[0],[2.9606376998126507],['button_incorrect'],487.5580033999868,488.5612697999459,,,,,,,,,,,,,,,,,,,,,,,,,,,,,,,,,,3,2023-11-29_12h15.28.036,watkins1,2023.2.3,99.75231499712342,30,2023-11-29 12h15.35.024777 +0000,
(54 : 6) - 10 = 0 ,Incorrect,button_incorrect,,,,,,,,,,,,,0,8,8,5,,,,,,,,,488.57126320013776,,,,,,,,,,,,,,['button_incorrect'],[3.4237971000839025],,,,,,,,,,,,,,,,,,,,,,,,,,distractorTask,3,,,,,,,,,,,,,,,,,,,,,,,,,488.5614662000444,488.57126320013776,491.9869882001076,[-0.28888888888888886],[-0.39537037037037037],[1],[0],[0],[3.4237971000839025],['button_incorrect'],491.9873959000688,492.98999310005456,,,,,,,,,,,,,,,,,,,,,,,,,,,,,,,,,,3,2023-11-29_12h15.28.036,watkins1,2023.2.3,99.75231499712342,30,2023-11-29 12h15.35.024777 +0000,
(7 x 6) + 9 = 48 ,Incorrect,button_incorrect,,,,,,,,,,,,,0,9,9,9,,,,,,,,,492.9999293999281,,,,,,,,,,,,,,['button_incorrect'],[2.6202595999930054],,,,,,,,,,,,,,,,,,,,,,,,,,distractorTask,3,,,,,,,,,,,,,,,,,,,,,,,,,492.99018560000695,492.9999293999281,495.612166200066,[-0.29814814814814816],[-0.4083333333333333],[1],[0],[0],[2.6202595999930054],['button_incorrect'],495.6125473000575,496.61573490011506,,,,,,,,,,,,,,,,,,,,,,,,,,,,,,,,,,3,2023-11-29_12h15.28.036,watkins1,2023.2.3,99.75231499712342,30,2023-11-29 12h15.35.024777 +0000,
,,,,,,,,,,,,,,,,,,,,,,,,,,,,,,,,,,,,,,,,,,,,,,,,,,,,,,,,,,,,,,,,,,,,,3,,,,,,,,,,,,,,,,,,,,,,,,,,,,,,,,,,,,,,,,,,,,,,,,,,,,,,,,,,,,,,,,,,,,,,3,2023-11-29_12h15.28.036,watkins1,2023.2.3,99.75231499712342,30,2023-11-29 12h15.35.024777 +0000,
,,,,,,,,,,,,,,,,,,,0,0,0,0,,,,,502.80906220013276,,,,,,,,,,,,,,Hut,4.19267989997752,,,,,,,,,,,,2.861326400190592,None,,,,,,,,,,,,,freeRecallSub,3,,,,,,,,,,,,,,,,,,,,,,,,,,,,,,,,,,,,,502.80046109994873,502.80906220013276,502.80906220013276,507.0070241999347,return,4.19267989997752,None,Hut,"[0.008333333333333333, 0.006481481481481481]","[0.06944444444444445, 0.06018518518518518]","[1, 1]","[0, 0]","[0, 0]","[1.8465730000752956, 2.2179279001429677]",[],,,,,,,,,,,,,,,,,,,3,2023-11-29_12h15.28.036,watkins1,2023.2.3,99.75231499712342,30,2023-11-29 12h15.35.024777 +0000,
,,,,,,,,,,,,,,,,,,,1,0,1,0,,,,,507.0185885000974,,,,,,,,,,,,,,Eimer,6.199113700073212,,,,,,,,,,,,2.6722860999871045,None,,,,,,,,,,,,,freeRecallSub,3,,,,,,,,,,,,,,,,,,,,,,,,,,,,,,,,,,,,,507.0087983000558,507.0185885000974,507.0185885000974,513.2257318000775,return,6.199113700073212,None,Eimer,[],[],[],[],[],[],[],,,,,,,,,,,,,,,,,,,3,2023-11-29_12h15.28.036,watkins1,2023.2.3,99.75231499712342,30,2023-11-29 12h15.35.024777 +0000,
,,,,,,,,,,,,,,,,,,,2,0,2,0,,,,,513.2356243000831,,,,,,,,,,,,,,Blume,2.6141079999506474,,,,,,,,,,,,0.8725823999848217,None,,,,,,,,,,,,,freeRecallSub,3,,,,,,,,,,,,,,,,,,,,,,,,,,,,,,,,,,,,,513.2269782000221,513.2356243000831,513.2356243000831,515.8567586001009,return,2.6141079999506474,None,Blume,[],[],[],[],[],[],[],,,,,,,,,,,,,,,,,,,3,2023-11-29_12h15.28.036,watkins1,2023.2.3,99.75231499712342,30,2023-11-29 12h15.35.024777 +0000,
,,,,,,,,,,,,,,,,,,,3,0,3,0,,,,,515.868281000061,,,,,,,,,,,,,,Uhr,2.037445299793035,,,,,,,,,,,,1.2766325001139194,None,,,,,,,,,,,,,freeRecallSub,3,,,,,,,,,,,,,,,,,,,,,,,,,,,,,,,,,,,,,515.8580009001307,515.868281000061,515.868281000061,517.907788499957,return,2.037445299793035,None,Uhr,[],[],[],[],[],[],[],,,,,,,,,,,,,,,,,,,3,2023-11-29_12h15.28.036,watkins1,2023.2.3,99.75231499712342,30,2023-11-29 12h15.35.024777 +0000,
,,,,,,,,,,,,,,,,,,,4,0,4,0,,,,,517.9184081000276,,,,,,,,,,,,,,Schüssel,2.979349499801174,,,,,,,,,,,,0.2306648998055607,None,,,,,,,,,,,,,freeRecallSub,3,,,,,,,,,,,,,,,,,,,,,,,,,,,,,,,,,,,,,517.9090307999868,517.9184081000276,517.9184081000276,520.9012011000887,return,2.979349499801174,None,Schüssel,[],[],[],[],[],[],[],,,,,,,,,,,,,,,,,,,3,2023-11-29_12h15.28.036,watkins1,2023.2.3,99.75231499712342,30,2023-11-29 12h15.35.024777 +0000,
,,,,,,,,,,,,,,,,,,,5,0,5,0,,,,,520.9123718999326,,,,,,,,,,,,,,Trommel,4.585321799851954,,,,,,,,,,,,3.144419599790126,None,,,,,,,,,,,,,freeRecallSub,3,,,,,,,,,,,,,,,,,,,,,,,,,,,,,,,,,,,,,520.902445100015,520.9123718999326,520.9123718999326,525.5030769000296,return,4.585321799851954,None,Trommel,[],[],[],[],[],[],[],,,,,,,,,,,,,,,,,,,3,2023-11-29_12h15.28.036,watkins1,2023.2.3,99.75231499712342,30,2023-11-29 12h15.35.024777 +0000,
,,,,,,,,,,,,,,,,,,,6,0,6,0,,,,,525.5141727000009,,,,,,,,,,,,,,Würfel,17.735539000015706,,,,,,,,,,,,16.017769099911675,None,,,,,,,,,,,,,freeRecallSub,3,,,,,,,,,,,,,,,,,,,,,,,,,,,,,,,,,,,,,525.5043365999591,525.5141727000009,525.5141727000009,543.2592758999672,return,17.735539000015706,None,Würfel,[],[],[],[],[],[],[],,,,,,,,,,,,,,,,,,,3,2023-11-29_12h15.28.036,watkins1,2023.2.3,99.75231499712342,30,2023-11-29 12h15.35.024777 +0000,
,,,,,,,,,,,,,,,,,,,7,0,7,0,,,,,543.2708924999461,,,,,,,,,,,,,,Tasche,1.5468053000513464,,,,,,,,,,,,0.6544257001951337,None,,,,,,,,,,,,,freeRecallSub,3,,,,,,,,,,,,,,,,,,,,,,,,,,,,,,,,,,,,,543.260513999965,543.2708924999461,543.2708924999461,544.818677800009,return,1.5468053000513464,None,Tasche,[],[],[],[],[],[],[],,,,,,,,,,,,,,,,,,,3,2023-11-29_12h15.28.036,watkins1,2023.2.3,99.75231499712342,30,2023-11-29 12h15.35.024777 +0000,
,,,,,,,,,,,,,,,,,,,8,0,8,0,,,,,544.8303658000659,,,,,,,,,,,,,,Rucksack,2.803305699955672,,,,,,,,,,,,0.27300829999148846,None,,,,,,,,,,,,,freeRecallSub,3,,,,,,,,,,,,,,,,,,,,,,,,,,,,,,,,,,,,,544.8199186001439,544.8303658000659,544.8303658000659,547.6435424000956,return,2.803305699955672,None,Rucksack,[],[],[],[],[],[],[],,,,,,,,,,,,,,,,,,,3,2023-11-29_12h15.28.036,watkins1,2023.2.3,99.75231499712342,30,2023-11-29 12h15.35.024777 +0000,
,,,,,,,,,,,,,,,,,,,9,0,9,0,,,,,547.6554291001521,,,,,,,,,,,,,,Löffel,24.722261300077662,,,,,,,,,,,,23.118672200012952,None,,,,,,,,,,,,,freeRecallSub,3,,,,,,,,,,,,,,,,,,,,,,,,,,,,,,,,,,,,,547.6447791000828,547.6554291001521,547.6554291001521,572.380392299965,return,24.722261300077662,None,Löffel,[],[],[],[],[],[],[],,,,,,,,,,,,,,,,,,,3,2023-11-29_12h15.28.036,watkins1,2023.2.3,99.75231499712342,30,2023-11-29 12h15.35.024777 +0000,
,,,,,,,,,,,,,,,,,,,10,0,10,0,,,,,572.3926073000766,,,,,,,,,,,,,,Socken,33.72896150010638,,,,,,,,,,,,32.67800320009701,None,,,,,,,,,,,,,freeRecallSub,3,,,,,,,,,,,,,,,,,,,,,,,,,,,,,,,,,,,,,572.3816567999311,572.3926073000766,572.3926073000766,606.1242395001464,return,33.72896150010638,None,Socken,[],[],[],[],[],[],[],,,,,,,,,,,,,,,,,,,3,2023-11-29_12h15.28.036,watkins1,2023.2.3,99.75231499712342,30,2023-11-29 12h15.35.024777 +0000,
,,,,,,,,,,,,,,,,,,,11,0,11,0,,,,,606.1366044001188,,,,,,,,,,,,,,Buch,4.273167100036517,,,,,,,,,,,,3.176254600053653,None,,,,,,,,,,,,,freeRecallSub,3,,,,,,,,,,,,,,,,,,,,,,,,,,,,,,,,,,,,,606.1255052001216,606.1366044001188,606.1366044001188,610.4163162000477,return,4.273167100036517,None,Buch,[],[],[],[],[],[],[],,,,,,,,,,,,,,,,,,,3,2023-11-29_12h15.28.036,watkins1,2023.2.3,99.75231499712342,30,2023-11-29 12h15.35.024777 +0000,
,,,,,,,,,,,,,,,,,,,12,0,12,0,,,,,610.4284719999414,,,,,,,,,,,,,,,[],,,,,,,,,,,,None,None,,,,,,,,,,,,,freeRecallSub,3,,,,,,,,,,,,,,,,,,,,,,,,,,,,,,,,,,,,,610.4175671001431,610.4284719999414,610.4284719999414,622.8525098001119,None,,,,[0.35648148148148145],[-0.4185185185185185],[1],[0],[0],[12.430103700142354],['button_continue'],,,,,,,,,,,,,,,,,,,3,2023-11-29_12h15.28.036,watkins1,2023.2.3,99.75231499712342,30,2023-11-29 12h15.35.024777 +0000,
,,,,,,,,,,,,,,,,,,,,,,,,,,,,,,,,,,,,,,,,,,,,,,,,,,,,,,,,,,,,,,,,,,,,,3,,,,,,,,,,,,,,,,,,,,,,,,,,,,,,,,,,,,,,,,,,,,,,,,,,,,,,,,,,,,,,,,,,,,,,3,2023-11-29_12h15.28.036,watkins1,2023.2.3,99.75231499712342,30,2023-11-29 12h15.35.024777 +0000,
,,,,,,,,,,,,,,,,,,,,,,,0,0,0,0,631.4376153999474,,,,,,,,,,634.2630185999442,634.7616586000659,,,,2.8198857000097632,,,,,,,,,,,,None,None,,,,,,,,,,Trommel,,,cuedRecallAdj,3,,,,,,,,,,,,,,,,,,,0,,,,,,,,,,,,,,,,,,,,,,,,,,,,,,,,,631.4285969000775,631.4376153999474,631.4376153999474,634.2600001001265,kurz,return,2.8198857000097632,None,634.2603883000556,634.2695286001544,634.2695286001544,634.2628731001168,,None,,,,,3,2023-11-29_12h15.28.036,watkins1,2023.2.3,99.75231499712342,30,2023-11-29 12h15.35.024777 +0000,
,,,,,,,,,,,,,,,,,,,,,,,1,0,1,0,634.7716035000049,,,,,,,,,,638.9018115000799,639.4007828999311,,,,4.117984600132331,,,,,,,,,,,,None,None,,,,,,,,,,Vase,,,cuedRecallAdj,3,,,,,,,,,,,,,,,,,,,0,,,,,,,,,,,,,,,,,,,,,,,,,,,,,,,,,634.7619094001129,634.7716035000049,634.7716035000049,638.898891699966,schmutzig,return,4.117984600132331,None,638.8991543999873,638.9086657001171,638.9086657001171,638.9017090999987,,None,,,,,3,2023-11-29_12h15.28.036,watkins1,2023.2.3,99.75231499712342,30,2023-11-29 12h15.35.024777 +0000,
,,,,,,,,,,,,,,,,,,,,,,,2,0,2,0,639.4107339000329,,,,,,,,,,643.9336228999309,644.4325296999887,,,,4.51881489995867,,,,,,,,,,,,None,None,,,,,,,,,,Kerze,,,cuedRecallAdj,3,,,,,,,,,,,,,,,,,,,0,,,,,,,,,,,,,,,,,,,,,,,,,,,,,,,,,639.4010181999765,639.4107339000329,639.4107339000329,643.9307876001112,lang,return,4.51881489995867,None,643.9310506000184,643.9404390000273,643.9404390000273,643.9335215999745,,None,,,,,3,2023-11-29_12h15.28.036,watkins1,2023.2.3,99.75231499712342,30,2023-11-29 12h15.35.024777 +0000,
,,,,,,,,,,,,,,,,,,,,,,,3,0,3,0,644.4424715000205,,,,,,,,,,646.3138187001459,646.8123659000266,,,,1.86301330011338,,,,,,,,,,,,None,None,,,,,,,,,,Rucksack,,,cuedRecallAdj,3,,,,,,,,,,,,,,,,,,,0,,,,,,,,,,,,,,,,,,,,,,,,,,,,,,,,,644.4327714000829,644.4424715000205,644.4424715000205,646.3106410000473,teuer,return,1.86301330011338,None,646.3109057999682,646.320190800121,646.320190800121,646.313716399949,,None,,,,,3,2023-11-29_12h15.28.036,watkins1,2023.2.3,99.75231499712342,30,2023-11-29 12h15.35.024777 +0000,
,,,,,,,,,,,,,,,,,,,,,,,4,0,4,0,646.8223141999915,,,,,,,,,,648.4421886999626,648.9411210999824,,,,1.6113169000018388,,,,,,,,,,,,None,None,,,,,,,,,,Hammer,,,cuedRecallAdj,3,,,,,,,,,,,,,,,,,,,0,,,,,,,,,,,,,,,,,,,,,,,,,,,,,,,,,646.8126066001132,646.8223141999915,646.8223141999915,648.4393353001215,nass,return,1.6113169000018388,None,648.4396007999312,648.4489496001042,648.4489496001042,648.4420866,,None,,,,,3,2023-11-29_12h15.28.036,watkins1,2023.2.3,99.75231499712342,30,2023-11-29 12h15.35.024777 +0000,
,,,,,,,,,,,,,,,,,,,,,,,5,0,5,0,648.9510642001405,,,,,,,,,,652.1174449000973,652.616271100007,,,,3.1544309000018984,,,,,,,,,,,,None,None,,,,,,,,,,Kiste,,,cuedRecallAdj,3,,,,,,,,,,,,,,,,,,,0,,,,,,,,,,,,,,,,,,,,,,,,,,,,,,,,,648.9413624000736,648.9510642001405,648.9510642001405,652.1143946000375,rustikal,return,3.1544309000018984,None,652.1146587999538,652.1240819001105,652.1240819001105,652.1173430001363,,None,,,,,3,2023-11-29_12h15.28.036,watkins1,2023.2.3,99.75231499712342,30,2023-11-29 12h15.35.024777 +0000,
,,,,,,,,,,,,,,,,,,,,,,,6,0,6,0,652.6261388000567,,,,,,,,,,654.8792898000684,655.3778312001377,,,,2.2474209999199957,,,,,,,,,,,,None,None,,,,,,,,,,Kette,,,cuedRecallAdj,3,,,,,,,,,,,,,,,,,,,0,,,,,,,,,,,,,,,,,,,,,,,,,,,,,,,,,652.6165185000282,652.6261388000567,652.6261388000567,654.8762906999327,gut,return,2.2474209999199957,None,654.8765781000257,654.8858376001008,654.8858376001008,654.8791825999506,,None,,,,,3,2023-11-29_12h15.28.036,watkins1,2023.2.3,99.75231499712342,30,2023-11-29 12h15.35.024777 +0000,
,,,,,,,,,,,,,,,,,,,,,,,7,0,7,0,655.3878773001488,,,,,,,,,,657.2185120000504,657.7076965000015,,,,1.821758999954909,,,,,,,,,,,,None,None,,,,,,,,,,Flasche,,,cuedRecallAdj,3,,,,,,,,,,,,,,,,,,,0,,,,,,,,,,,,,,,,,,,,,,,,,,,,,,,,,655.3780758001376,655.3878773001488,655.3878773001488,657.2160911001265,,return,1.821758999954909,None,657.2163720000535,657.2256279001012,657.2256279001012,657.2184033000376,,None,,,,,3,2023-11-29_12h15.28.036,watkins1,2023.2.3,99.75231499712342,30,2023-11-29 12h15.35.024777 +0000,
,,,,,,,,,,,,,,,,,,,,,,,8,0,8,0,657.7175950999372,,,,,,,,,,661.7174358000048,662.2162997000851,,,,3.9879501999821514,,,,,,,,,,,,None,None,,,,,,,,,,Buch,,,cuedRecallAdj,3,,,,,,,,,,,,,,,,,,,0,,,,,,,,,,,,,,,,,,,,,,,,,,,,,,,,,657.7079457000364,657.7175950999372,657.7175950999372,661.7145321001299,gestreift,return,3.9879501999821514,None,661.7147967999335,661.7242457999382,661.7242457999382,661.7173338001594,,None,,,,,3,2023-11-29_12h15.28.036,watkins1,2023.2.3,99.75231499712342,30,2023-11-29 12h15.35.024777 +0000,
,,,,,,,,,,,,,,,,,,,,,,,9,0,9,0,662.2262450000271,,,,,,,,,,668.5258416000288,669.0243717001285,,,,6.295310199959204,,,,,,,,,,,,None,None,,,,,,,,,,Hut,,,cuedRecallAdj,3,,,,,,,,,,,,,,,,,,,0,,,,,,,,,,,,,,,,,,,,,,,,,,,,,,,,,662.2165405999403,662.2262450000271,662.2262450000271,668.5228279000148,klobig,return,6.295310199959204,None,668.5231111000758,668.5323634999804,668.5323634999804,668.5257330001332,,None,,,,,3,2023-11-29_12h15.28.036,watkins1,2023.2.3,99.75231499712342,30,2023-11-29 12h15.35.024777 +0000,
,,,,,,,,,,,,,,,,,,,,,,,10,0,10,0,669.0343132000417,,,,,,,,,,672.1620680000633,672.66072169994,,,,3.119228099938482,,,,,,,,,,,,None,None,,,,,,,,,,Ring,,,cuedRecallAdj,3,,,,,,,,,,,,,,,,,,,0,,,,,,,,,,,,,,,,,,,,,,,,,,,,,,,,,669.0246115000919,669.0343132000417,669.0343132000417,672.1591358000878,strahlend,return,3.119228099938482,None,672.1593995001167,672.1686484001111,672.1686484001111,672.1619635999668,,None,,,,,3,2023-11-29_12h15.28.036,watkins1,2023.2.3,99.75231499712342,30,2023-11-29 12h15.35.024777 +0000,
,,,,,,,,,,,,,,,,,,,,,,,11,0,11,0,672.6707232000772,,,,,,,,,,678.7593578000087,679.2584252001252,,,,6.082833199994639,,,,,,,,,,,,None,None,,,,,,,,,,Kamera,,,cuedRecallAdj,3,,,,,,,,,,,,,,,,,,,0,,,,,,,,,,,,,,,,,,,,,,,,,,,,,,,,,672.6609621001408,672.6707232000772,672.6707232000772,678.7563625001349,teuer,return,6.082833199994639,None,678.7566337999888,678.76585480012,678.76585480012,678.7592569000553,,None,,,,,3,2023-11-29_12h15.28.036,watkins1,2023.2.3,99.75231499712342,30,2023-11-29 12h15.35.024777 +0000,
,,,,,,,,,,,,,,,,,,,,,,,12,0,12,0,679.2683630001266,,,,,,,,,,681.5812433999963,682.0799615001306,,,,2.309198800008744,,,,,,,,,,,,None,None,,,,,,,,,,Brille,,,cuedRecallAdj,3,,,,,,,,,,,,,,,,,,,0,,,,,,,,,,,,,,,,,,,,,,,,,,,,,,,,,679.2586638999637,679.2683630001266,679.2683630001266,681.5782568000723,sauber,return,2.309198800008744,None,681.5785179000814,681.5878878999501,681.5878878999501,681.5811427999288,,None,,,,,3,2023-11-29_12h15.28.036,watkins1,2023.2.3,99.75231499712342,30,2023-11-29 12h15.35.024777 +0000,
,,,,,,,,,,,,,,,,,,,,,,,13,0,13,0,682.0899682000745,,,,,,,,,,684.6741649000905,685.1729765001219,,,,2.575619600014761,,,,,,,,,,,,None,None,,,,,,,,,,Uhr,,,cuedRecallAdj,3,,,,,,,,,,,,,,,,,,,0,,,,,,,,,,,,,,,,,,,,,,,,,,,,,,,,,682.0802046000026,682.0899682000745,682.0899682000745,684.6713130001444,klobig,return,2.575619600014761,None,684.671576499939,684.6808587999549,684.6808587999549,684.6740641000215,,None,,,,,3,2023-11-29_12h15.28.036,watkins1,2023.2.3,99.75231499712342,30,2023-11-29 12h15.35.024777 +0000,
,,,,,,,,,,,,,,,,,,,,,,,14,0,14,0,685.1829156000167,,,,,,,,,,688.8107483999338,689.3000304000452,,,,3.6185701000504196,,,,,,,,,,,,None,None,,,,,,,,,,Tasse,,,cuedRecallAdj,3,,,,,,,,,,,,,,,,,,,0,,,,,,,,,,,,,,,,,,,,,,,,,,,,,,,,,685.1732212000061,685.1829156000167,685.1829156000167,688.8085301001556,,return,3.6185701000504196,None,688.8087933000643,688.8180623999797,688.8180623999797,688.81064660009,,None,,,,,3,2023-11-29_12h15.28.036,watkins1,2023.2.3,99.75231499712342,30,2023-11-29 12h15.35.024777 +0000,
,,,,,,,,,,,,,,,,,,,,,,,15,0,15,0,689.3100859001279,,,,,,,,,,690.9389417001512,691.4288182000164,,,,1.6195333998184651,,,,,,,,,,,,None,None,,,,,,,,,,Telefon,,,cuedRecallAdj,3,,,,,,,,,,,,,,,,,,,0,,,,,,,,,,,,,,,,,,,,,,,,,,,,,,,,,689.3002655000892,689.3100859001279,689.3100859001279,690.93700120016,,return,1.6195333998184651,None,690.937266800087,690.9466866001021,690.9466866001021,690.9388415000867,,None,,,,,3,2023-11-29_12h15.28.036,watkins1,2023.2.3,99.75231499712342,30,2023-11-29 12h15.35.024777 +0000,
,,,,,,,,,,,,,,,,,,,,,,,16,0,16,0,691.4388762000017,,,,,,,,,,696.10079460009,696.5904632001184,,,,4.658629799960181,,,,,,,,,,,,None,None,,,,,,,,,,Eimer,,,cuedRecallAdj,3,,,,,,,,,,,,,,,,,,,0,,,,,,,,,,,,,,,,,,,,,,,,,,,,,,,,,691.4290553000756,691.4388762000017,691.4388762000017,696.0988841999788,,return,4.658629799960181,None,696.0991498001385,696.108405200066,696.108405200066,696.1006943001412,,None,,,,,3,2023-11-29_12h15.28.036,watkins1,2023.2.3,99.75231499712342,30,2023-11-29 12h15.35.024777 +0000,
,,,,,,,,,,,,,,,,,,,,,,,17,0,17,0,696.6003622000571,,,,,,,,,,701.4340484000277,701.932426400017,,,,4.825126700103283,,,,,,,,,,,,None,None,,,,,,,,,,Schlüssel,,,cuedRecallAdj,3,,,,,,,,,,,,,,,,,,,0,,,,,,,,,,,,,,,,,,,,,,,,,,,,,,,,,696.59071759996,696.6003622000571,696.6003622000571,701.4308219000231,lustig,return,4.825126700103283,None,701.4311067999806,701.4403900001198,701.4403900001198,701.4339379000012,,None,,,,,3,2023-11-29_12h15.28.036,watkins1,2023.2.3,99.75231499712342,30,2023-11-29 12h15.35.024777 +0000,
,,,,,,,,,,,,,,,,,,,,,,,18,0,18,0,701.9424775000662,,,,,,,,,,706.8663427999709,707.3649804000743,,,,4.9150792001746595,,,,,,,,,,,,None,None,,,,,,,,,,Lampe,,,cuedRecallAdj,3,,,,,,,,,,,,,,,,,,,0,,,,,,,,,,,,,,,,,,,,,,,,,,,,,,,,,701.9326649000868,701.9424775000662,701.9424775000662,706.8633700001519,winzig,return,4.9150792001746595,None,706.8636358000804,706.8729197001085,706.8729197001085,706.8662424001377,,None,,,,,3,2023-11-29_12h15.28.036,watkins1,2023.2.3,99.75231499712342,30,2023-11-29 12h15.35.024777 +0000,
,,,,,,,,,,,,,,,,,,,,,,,19,0,19,0,707.3749279000331,,,,,,,,,,709.9691113000736,710.4677516000811,,,,2.58663469995372,,,,,,,,,,,,None,None,,,,,,,,,,Löffel,,,cuedRecallAdj,3,,,,,,,,,,,,,,,,,,,0,,,,,,,,,,,,,,,,,,,,,,,,,,,,,,,,,707.3652234999463,707.3749279000331,707.3749279000331,709.9660672000609,gro?,return,2.58663469995372,None,709.9663327001035,709.9757276999298,709.9757276999298,709.9690090999939,,None,,,,,3,2023-11-29_12h15.28.036,watkins1,2023.2.3,99.75231499712342,30,2023-11-29 12h15.35.024777 +0000,
,,,,,,,,,,,,,,,,,,,,,,,20,0,20,0,710.4777126000263,,,,,,,,,,714.2269578000996,714.7253676000983,,,,3.7397718001157045,,,,,,,,,,,,None,None,,,,,,,,,,Socke,,,cuedRecallAdj,3,,,,,,,,,,,,,,,,,,,0,,,,,,,,,,,,,,,,,,,,,,,,,,,,,,,,,710.4679895001464,710.4777126000263,710.4777126000263,714.2237390000373,gepunktet,return,3.7397718001157045,None,714.224005700089,714.2333007000852,714.2333007000852,714.2268561001401,,None,,,,,3,2023-11-29_12h15.28.036,watkins1,2023.2.3,99.75231499712342,30,2023-11-29 12h15.35.024777 +0000,
,,,,,,,,,,,,,,,,,,,,,,,21,0,21,0,714.7354191001505,,,,,,,,,,717.7914760999847,718.2900428001303,,,,3.050091699929908,,,,,,,,,,,,None,None,,,,,,,,,,Würfel,,,cuedRecallAdj,3,,,,,,,,,,,,,,,,,,,0,,,,,,,,,,,,,,,,,,,,,,,,,,,,,,,,,714.7256090000737,714.7354191001505,714.7354191001505,717.7884379001334,hohl,return,3.050091699929908,None,717.7887015000451,717.7980257000308,717.7980257000308,717.7913748000283,,None,,,,,3,2023-11-29_12h15.28.036,watkins1,2023.2.3,99.75231499712342,30,2023-11-29 12h15.35.024777 +0000,
,,,,,,,,,,,,,,,,,,,,,,,22,0,22,0,718.3000388001092,,,,,,,,,,720.6520791000221,721.1416893999558,,,,2.341380599886179,,,,,,,,,,,,None,None,,,,,,,,,,Blume,,,cuedRecallAdj,3,,,,,,,,,,,,,,,,,,,0,,,,,,,,,,,,,,,,,,,,,,,,,,,,,,,,,718.2902886001393,718.3000388001092,718.3000388001092,720.6498330000322,,return,2.341380599886179,None,720.6501005999744,720.6595079000108,720.6595079000108,720.651978299953,,None,,,,,3,2023-11-29_12h15.28.036,watkins1,2023.2.3,99.75231499712342,30,2023-11-29 12h15.35.024777 +0000,
,,,,,,,,,,,,,,,,,,,,,,,23,0,23,0,721.1516681001522,,,,,,,,,,727.5721615999937,728.0706732999533,,,,6.409868200076744,,,,,,,,,,,,None,None,,,,,,,,,,Tasche,,,cuedRecallAdj,3,,,,,,,,,,,,,,,,,,,0,,,,,,,,,,,,,,,,,,,,,,,,,,,,,,,,,721.1419299000409,721.1516681001522,721.1516681001522,727.5689073000103,winzig,return,6.409868200076744,None,727.5691709001549,727.578611999983,727.578611999983,727.5720590001438,,None,,,,,3,2023-11-29_12h15.28.036,watkins1,2023.2.3,99.75231499712342,30,2023-11-29 12h15.35.024777 +0000,
,,,,,,,,,,,,,,,,,,,,,,,24,0,24,0,728.0806191000156,,,,,,,,,,730.4030494000763,730.8922997000627,,,,2.3129153999034315,,,,,,,,,,,,None,None,,,,,,,,,,Stift,,,cuedRecallAdj,3,,,,,,,,,,,,,,,,,,,0,,,,,,,,,,,,,,,,,,,,,,,,,,,,,,,,,728.0709113001358,728.0806191000156,728.0806191000156,730.4007053000387,,return,2.3129153999034315,None,730.4009724999778,730.4102104001213,730.4102104001213,730.4029475999996,,None,,,,,3,2023-11-29_12h15.28.036,watkins1,2023.2.3,99.75231499712342,30,2023-11-29 12h15.35.024777 +0000,
,,,,,,,,,,,,,,,,,,,,,,,25,0,25,0,730.902218400035,,,,,,,,,,732.8929324001074,733.3825414001476,,,,1.9873449997976422,,,,,,,,,,,,None,None,,,,,,,,,,Bürste,,,cuedRecallAdj,3,,,,,,,,,,,,,,,,,,,0,,,,,,,,,,,,,,,,,,,,,,,,,,,,,,,,,730.8925431000534,730.902218400035,730.902218400035,732.8909732000902,,return,1.9873449997976422,None,732.8912415001541,732.9005197000224,732.9005197000224,732.8928317001555,,None,,,,,3,2023-11-29_12h15.28.036,watkins1,2023.2.3,99.75231499712342,30,2023-11-29 12h15.35.024777 +0000,
,,,,,,,,,,,,,,,,,,,,,,,26,0,26,0,733.3926000001375,,,,,,,,,,737.6136539999861,738.1121441000141,,,,4.216917699901387,,,,,,,,,,,,None,None,,,,,,,,,,Schere,,,cuedRecallAdj,3,,,,,,,,,,,,,,,,,,,0,,,,,,,,,,,,,,,,,,,,,,,,,,,,,,,,,733.382783900015,733.3926000001375,733.3926000001375,737.6105701001361,nachhaltig,return,4.216917699901387,None,737.6108341000509,737.6200826000422,737.6200826000422,737.6135514001362,,None,,,,,3,2023-11-29_12h15.28.036,watkins1,2023.2.3,99.75231499712342,30,2023-11-29 12h15.35.024777 +0000,
,,,,,,,,,,,,,,,,,,,,,,,27,0,27,0,738.1221964999568,,,,,,,,,,741.2281653000973,741.7271660999395,,,,3.0952810999006033,,,,,,,,,,,,None,None,,,,,,,,,,Fahrrad,,,cuedRecallAdj,3,,,,,,,,,,,,,,,,,,,0,,,,,,,,,,,,,,,,,,,,,,,,,,,,,,,,,738.1123824999668,738.1221964999568,738.1221964999568,741.2252907999791,gro?,return,3.0952810999006033,None,741.225553400116,741.2350304999854,741.2350304999854,741.2280636001378,,None,,,,,3,2023-11-29_12h15.28.036,watkins1,2023.2.3,99.75231499712342,30,2023-11-29 12h15.35.024777 +0000,
,,,,,,,,,,,,,,,,,,,,,,,28,0,28,0,741.737112800125,,,,,,,,,,744.301100899931,744.7996567001101,,,,2.5603897001128644,,,,,,,,,,,,None,None,,,,,,,,,,Geige,,,cuedRecallAdj,3,,,,,,,,,,,,,,,,,,,0,,,,,,,,,,,,,,,,,,,,,,,,,,,,,,,,,741.727410600055,741.737112800125,741.737112800125,744.2981372999493,winzig,return,2.5603897001128644,None,744.2983977999538,744.3076804000884,744.3076804000884,744.301001300104,,None,,,,,3,2023-11-29_12h15.28.036,watkins1,2023.2.3,99.75231499712342,30,2023-11-29 12h15.35.024777 +0000,
,,,,,,,,,,,,,,,,,,,,,,,29,0,29,0,744.8096617001574,,,,,,,,,,747.1928668001201,747.6917614000849,,,,2.3758735000155866,,,,,,,,,,,,None,None,,,,,,,,,,Jacke,,,cuedRecallAdj,3,,,,,,,,,,,,,,,,,,,0,,,,,,,,,,,,,,,,,,,,,,,,,,,,,,,,,744.799897500081,744.8096617001574,744.8096617001574,747.1900259000249,lang,return,2.3758735000155866,None,747.1902898000553,747.1996573000215,747.1996573000215,747.1927643001545,,None,,,,,3,2023-11-29_12h15.28.036,watkins1,2023.2.3,99.75231499712342,30,2023-11-29 12h15.35.024777 +0000,
,,,,,,,,,,,,,,,,,,,,,,,,,,,,,,,,,,,,,,,,,,,,,,,,,,,,,,,,,,,,,,,,,,,,,3,,,,,,,,,,,,,,,,,,,,,,,,,,,,,,,,,,,,,,,,,,,,,,,,,,,,,,,,,,,,,,,,,,747.7086309001315,q,1567.4512219999451,None,3,2023-11-29_12h15.28.036,watkins1,2023.2.3,99.75231499712342,30,2023-11-29 12h15.35.024777 +0000,
