Equation,CorrectResponse,Correctbutton,trials_7.thisRepN,trials_7.thisTrialN,trials_7.thisN,trials_7.thisIndex,trials.thisRepN,trials.thisTrialN,trials.thisN,trials.thisIndex,trials_3.thisRepN,trials_3.thisTrialN,trials_3.thisN,trials_3.thisIndex,trials_2.thisRepN,trials_2.thisTrialN,trials_2.thisN,trials_2.thisIndex,trials_4.thisRepN,trials_4.thisTrialN,trials_4.thisN,trials_4.thisIndex,trials_5.thisRepN,trials_5.thisTrialN,trials_5.thisN,trials_5.thisIndex,thisRow.t,notes,code_marius.started,code_marius.stopped,welcome.started,welcome.stopped,instruction_study.started,instruction_study.stopped,fixationcross.started,fixationcross.stopped,blanc.started,blanc.stopped,study_control_probe.started,study_control_probe.stopped,responseKey,responseTime,scale_answer_2.keys,study_control_probe_2.started,study_control_probe_2.stopped,scale_answer_3.keys,scale_answer_3.rt,scale_answer_3.duration,blanc_2.started,blanc_2.stopped,test_attr_probe.started,test_attr_probe.stopped,recalled_attr,firstKeyTime,secondWordTime,blanc_3.started,blanc_3.stopped,test_sub_probe.started,test_sub_probe.stopped,recalled_sub,instruction_probe_end.started,instruction_probe_end.stopped,study.started,study.stopped,substantive,adjective,wordpair,task,condition,liste_sub_phase1,liste_adj_phase1,scale_answer.keys,scale_answer.rt,scale_answer.duration,code_defineWordsInit.started,code_defineWordsInit.stopped,liste_sub_phase2,study_control.started,study_control.stopped,scale_answer_4.keys,restudy_same.started,restudy_same.stopped,scale_answer_5.keys,restudy_different.started,restudy_different.stopped,scale_answer_6.keys,test_attr.started,correct,test_attr.stopped,test_sub.started,test_sub.stopped,scale_answer_5.rt,scale_answer_5.duration,distractortask.started,equation_text.started,distractortask.stopped,mouse_answer.x,mouse_answer.y,mouse_answer.leftButton,mouse_answer.midButton,mouse_answer.rightButton,mouse_answer.time,mouse_answer.clicked_name,feedback_distractortask.started,feedback_distractortask.stopped,free_recall.started,text_enter.started,key_resp.started,free_recall.stopped,key_resp.keys,key_resp.rt,key_resp.duration,free_recalled_sub,mouse_continue.x,mouse_continue.y,mouse_continue.leftButton,mouse_continue.midButton,mouse_continue.rightButton,mouse_continue.time,mouse_continue.clicked_name,cued_recall.started,text_enter_2.started,key_continue.started,cued_recall.stopped,recalled_attr1,key_continue.keys,key_continue.rt,key_continue.duration,cued_recall_2.started,text_enter_3.started,key_continue_2.started,cued_recall_2.stopped,recalled_attr2,key_continue_2.keys,key_resp_8.started,key_resp_8.keys,key_resp_8.rt,key_resp_8.duration,condition,date,expName,psychopyVersion,frameRate,participant,expStart,
,,,,,,,,,,,,,,,,,,,,,,,,,,,,,0.11296580033376813,0.11303310003131628,0.11304110009223223,8.079015200026333,,,,,,,,,,,,,,,,,,,,,,,,,,,,,,,,,,,,,3,,,,,,,,,,,,,,,,,,,,,,,,,,,,,,,,,,,,,,,,,,,,,,,,,,,,,,,,,,,,,,,,,,,,,,3,2024-01-16_09h36.54.413,watkins1,2023.2.3,99.70994367782326,88,2024-01-16 09h37.22.776211 +0000,
,,,,,,,,,,,,,,,,,,,,,,,,,,,,,,,,,8.07906230026856,42.92230670014396,,,,,,,,,,,,,,,,,,,,,,,,,,,,,,,,,,,3,,,,,,,,,,,,,,,,,,,,,,,,,,,,,,,,,,,,,,,,,,,,,,,,,,,,,,,,,,,,,,,,,,,,,,3,2024-01-16_09h36.54.413,watkins1,2023.2.3,99.70994367782326,88,2024-01-16 09h37.22.776211 +0000,
,,,0,0,0,0,,,,,,,,,,,,,,,,,,,,,43.93590540019795,,,,,,,,42.92232279991731,43.925968300085515,50.428614700213075,50.924884099978954,44.41788290021941,50.42844820022583,2,3.1337028997950256,None,50.924894500058144,56.932942599989474,2,3.1337028997950256,None,56.93323690025136,57.42433340009302,57.424344500061125,63.42930530011654,vergnügt,None,None,63.42952900007367,63.42955180024728,63.42955880006775,63.42964249989018,,,,,,,,,,3,,,,,,,,,,,,,,,,,,,,,,,,,,,,,,,,,,,,,,,,,,,,,,,,,,,,,,,,,,,,,,,,,,,,,,3,2024-01-16_09h36.54.413,watkins1,2023.2.3,99.70994367782326,88,2024-01-16 09h37.22.776211 +0000,
,,,,,,,,,,,,,,,,,,,,,,,,,,,,,,,,,,,,,,,,,,,,,,,,,,,,,,,,,,,,,63.42975979996845,67.27562860026956,,,,,,,3,,,,,,,,,,,,,,,,,,,,,,,,,,,,,,,,,,,,,,,,,,,,,,,,,,,,,,,,,,,,,,,,,,,,,,3,2024-01-16_09h36.54.413,watkins1,2023.2.3,99.70994367782326,88,2024-01-16 09h37.22.776211 +0000,
,,,,,,,0,0,0,0,,,,,,,,,,,,,,,,,68.28922929987311,,,,,,,,67.27564450027421,68.27928070025519,68.27974890032783,68.77136050025001,,,2,3.314533299766481,,,,,,,,,,,,,,,,,,,,,68.77137050032616,74.7784021999687,Jacke,hübsch,"['Jacke', 'hübsch']",test_adj,3,"['Jacke', 'Schlüssel', 'Kamera', 'Hut', 'Kiste', 'Eimer', 'Telefon', 'Buch', 'Stift', 'Würfel', 'Kette', 'Tasche', 'Ring', 'Bürste', 'Geige', 'Löffel', 'Tasse', 'Brille', 'Hammer', 'Trommel', 'Blume', 'Rucksack', 'Flasche', 'Socke', 'Schere', 'Fahrrad', 'Kerze', 'Lampe', 'Vase', 'Uhr']",['hübsch'],2,3.314533299766481,None,,,,,,,,,,,,,,,,,,,,,,,,,,,,,,,,,,,,,,,,,,,,,,,,,,,,,,,,,,,,,,,,,3,2024-01-16_09h36.54.413,watkins1,2023.2.3,99.70994367782326,88,2024-01-16 09h37.22.776211 +0000,
,,,,,,,1,0,1,0,,,,,,,,,,,,,,,,,74.78782329987735,,,,,,,,,,74.77905200002715,75.26992350025102,,,3,3.058071100153029,,,,,,,,,,,,,,,,,,,,,75.26993359997869,81.27221699990332,Schlüssel,neu,"['Schlüssel', 'neu']",restudy,3,"['Jacke', 'Schlüssel', 'Kamera', 'Hut', 'Kiste', 'Eimer', 'Telefon', 'Buch', 'Stift', 'Würfel', 'Kette', 'Tasche', 'Ring', 'Bürste', 'Geige', 'Löffel', 'Tasse', 'Brille', 'Hammer', 'Trommel', 'Blume', 'Rucksack', 'Flasche', 'Socke', 'Schere', 'Fahrrad', 'Kerze', 'Lampe', 'Vase', 'Uhr']","['hübsch', 'neu']",3,3.058071100153029,None,,,,,,,,,,,,,,,,,,,,,,,,,,,,,,,,,,,,,,,,,,,,,,,,,,,,,,,,,,,,,,,,,3,2024-01-16_09h36.54.413,watkins1,2023.2.3,99.70994367782326,88,2024-01-16 09h37.22.776211 +0000,
,,,,,,,2,0,2,0,,,,,,,,,,,,,,,,,81.2816029000096,,,,,,,,,,81.2727626003325,81.76372120017186,,,2,3.4281335002742708,,,,,,,,,,,,,,,,,,,,,81.7637306000106,87.76706109987572,Kamera,dunkel,"['Kamera', 'dunkel']",test_adj,3,"['Jacke', 'Schlüssel', 'Kamera', 'Hut', 'Kiste', 'Eimer', 'Telefon', 'Buch', 'Stift', 'Würfel', 'Kette', 'Tasche', 'Ring', 'Bürste', 'Geige', 'Löffel', 'Tasse', 'Brille', 'Hammer', 'Trommel', 'Blume', 'Rucksack', 'Flasche', 'Socke', 'Schere', 'Fahrrad', 'Kerze', 'Lampe', 'Vase', 'Uhr']","['hübsch', 'neu', 'dunkel']",2,3.4281335002742708,None,,,,,,,,,,,,,,,,,,,,,,,,,,,,,,,,,,,,,,,,,,,,,,,,,,,,,,,,,,,,,,,,,3,2024-01-16_09h36.54.413,watkins1,2023.2.3,99.70994367782326,88,2024-01-16 09h37.22.776211 +0000,
,,,,,,,3,0,3,0,,,,,,,,,,,,,,,,,87.77645729994401,,,,,,,,,,87.76758449990302,88.25861870031804,,,3,2.3735337001271546,,,,,,,,,,,,,,,,,,,,,88.25862900028005,94.2657027002424,Hut,breit,"['Hut', 'breit']",restudy,3,"['Jacke', 'Schlüssel', 'Kamera', 'Hut', 'Kiste', 'Eimer', 'Telefon', 'Buch', 'Stift', 'Würfel', 'Kette', 'Tasche', 'Ring', 'Bürste', 'Geige', 'Löffel', 'Tasse', 'Brille', 'Hammer', 'Trommel', 'Blume', 'Rucksack', 'Flasche', 'Socke', 'Schere', 'Fahrrad', 'Kerze', 'Lampe', 'Vase', 'Uhr']","['hübsch', 'neu', 'dunkel', 'breit']",3,2.3735337001271546,None,,,,,,,,,,,,,,,,,,,,,,,,,,,,,,,,,,,,,,,,,,,,,,,,,,,,,,,,,,,,,,,,,3,2024-01-16_09h36.54.413,watkins1,2023.2.3,99.70994367782326,88,2024-01-16 09h37.22.776211 +0000,
,,,,,,,4,0,4,0,,,,,,,,,,,,,,,,,94.27511640032753,,,,,,,,,,94.26624590018764,94.75707460008562,,,1,2.491505100391805,,,,,,,,,,,,,,,,,,,,,94.75708410004154,100.75921329995617,Kiste,flach,"['Kiste', 'flach']",test_adj,3,"['Jacke', 'Schlüssel', 'Kamera', 'Hut', 'Kiste', 'Eimer', 'Telefon', 'Buch', 'Stift', 'Würfel', 'Kette', 'Tasche', 'Ring', 'Bürste', 'Geige', 'Löffel', 'Tasse', 'Brille', 'Hammer', 'Trommel', 'Blume', 'Rucksack', 'Flasche', 'Socke', 'Schere', 'Fahrrad', 'Kerze', 'Lampe', 'Vase', 'Uhr']","['hübsch', 'neu', 'dunkel', 'breit', 'flach']",1,2.491505100391805,None,,,,,,,,,,,,,,,,,,,,,,,,,,,,,,,,,,,,,,,,,,,,,,,,,,,,,,,,,,,,,,,,,3,2024-01-16_09h36.54.413,watkins1,2023.2.3,99.70994367782326,88,2024-01-16 09h37.22.776211 +0000,
,,,,,,,5,0,5,0,,,,,,,,,,,,,,,,,100.76865069987252,,,,,,,,,,100.75975710013881,101.2506686002016,,,3,1.6367181004025042,,,,,,,,,,,,,,,,,,,,,101.25067909993231,107.25587709993124,Eimer,glänzend,"['Eimer', 'glänzend']",restudy,3,"['Jacke', 'Schlüssel', 'Kamera', 'Hut', 'Kiste', 'Eimer', 'Telefon', 'Buch', 'Stift', 'Würfel', 'Kette', 'Tasche', 'Ring', 'Bürste', 'Geige', 'Löffel', 'Tasse', 'Brille', 'Hammer', 'Trommel', 'Blume', 'Rucksack', 'Flasche', 'Socke', 'Schere', 'Fahrrad', 'Kerze', 'Lampe', 'Vase', 'Uhr']","['hübsch', 'neu', 'dunkel', 'breit', 'flach', 'glänzend']",3,1.6367181004025042,None,,,,,,,,,,,,,,,,,,,,,,,,,,,,,,,,,,,,,,,,,,,,,,,,,,,,,,,,,,,,,,,,,3,2024-01-16_09h36.54.413,watkins1,2023.2.3,99.70994367782326,88,2024-01-16 09h37.22.776211 +0000,
,,,,,,,6,0,6,0,,,,,,,,,,,,,,,,,107.26528100017458,,,,,,,,,,107.25640340009704,107.7473158002831,,,1,1.6362679000012577,,,,,,,,,,,,,,,,,,,,,107.74732550000772,113.75330119999126,Telefon,gepunktet,"['Telefon', 'gepunktet']",restudy,3,"['Jacke', 'Schlüssel', 'Kamera', 'Hut', 'Kiste', 'Eimer', 'Telefon', 'Buch', 'Stift', 'Würfel', 'Kette', 'Tasche', 'Ring', 'Bürste', 'Geige', 'Löffel', 'Tasse', 'Brille', 'Hammer', 'Trommel', 'Blume', 'Rucksack', 'Flasche', 'Socke', 'Schere', 'Fahrrad', 'Kerze', 'Lampe', 'Vase', 'Uhr']","['hübsch', 'neu', 'dunkel', 'breit', 'flach', 'glänzend', 'gepunktet']",1,1.6362679000012577,None,,,,,,,,,,,,,,,,,,,,,,,,,,,,,,,,,,,,,,,,,,,,,,,,,,,,,,,,,,,,,,,,,3,2024-01-16_09h36.54.413,watkins1,2023.2.3,99.70994367782326,88,2024-01-16 09h37.22.776211 +0000,
,,,,,,,7,0,7,0,,,,,,,,,,,,,,,,,113.76278610015288,,,,,,,,,,113.75382840028033,114.24538110010326,,,1,2.562391999643296,,,,,,,,,,,,,,,,,,,,,114.2453912999481,120.25305340019986,Buch,groß,"['Buch', 'groß']",test_adj,3,"['Jacke', 'Schlüssel', 'Kamera', 'Hut', 'Kiste', 'Eimer', 'Telefon', 'Buch', 'Stift', 'Würfel', 'Kette', 'Tasche', 'Ring', 'Bürste', 'Geige', 'Löffel', 'Tasse', 'Brille', 'Hammer', 'Trommel', 'Blume', 'Rucksack', 'Flasche', 'Socke', 'Schere', 'Fahrrad', 'Kerze', 'Lampe', 'Vase', 'Uhr']","['hübsch', 'neu', 'dunkel', 'breit', 'flach', 'glänzend', 'gepunktet', 'groß']",1,2.562391999643296,None,,,,,,,,,,,,,,,,,,,,,,,,,,,,,,,,,,,,,,,,,,,,,,,,,,,,,,,,,,,,,,,,,3,2024-01-16_09h36.54.413,watkins1,2023.2.3,99.70994367782326,88,2024-01-16 09h37.22.776211 +0000,
,,,,,,,8,0,8,0,,,,,,,,,,,,,,,,,120.26247050007805,,,,,,,,,,120.25356950005516,120.74456090014428,,,1,1.4803724000230432,,,,,,,,,,,,,,,,,,,,,120.74457090022042,126.75176900019869,Stift,hässlich,"['Stift', 'hässlich']",restudy,3,"['Jacke', 'Schlüssel', 'Kamera', 'Hut', 'Kiste', 'Eimer', 'Telefon', 'Buch', 'Stift', 'Würfel', 'Kette', 'Tasche', 'Ring', 'Bürste', 'Geige', 'Löffel', 'Tasse', 'Brille', 'Hammer', 'Trommel', 'Blume', 'Rucksack', 'Flasche', 'Socke', 'Schere', 'Fahrrad', 'Kerze', 'Lampe', 'Vase', 'Uhr']","['hübsch', 'neu', 'dunkel', 'breit', 'flach', 'glänzend', 'gepunktet', 'groß', 'hässlich']",1,1.4803724000230432,None,,,,,,,,,,,,,,,,,,,,,,,,,,,,,,,,,,,,,,,,,,,,,,,,,,,,,,,,,,,,,,,,,3,2024-01-16_09h36.54.413,watkins1,2023.2.3,99.70994367782326,88,2024-01-16 09h37.22.776211 +0000,
,,,,,,,9,0,9,0,,,,,,,,,,,,,,,,,126.76113320002332,,,,,,,,,,126.7522880001925,127.2434641001746,,,1,1.6209131004288793,,,,,,,,,,,,,,,,,,,,,127.24347459990531,133.24496200028807,Würfel,zart,"['Würfel', 'zart']",test_adj,3,"['Jacke', 'Schlüssel', 'Kamera', 'Hut', 'Kiste', 'Eimer', 'Telefon', 'Buch', 'Stift', 'Würfel', 'Kette', 'Tasche', 'Ring', 'Bürste', 'Geige', 'Löffel', 'Tasse', 'Brille', 'Hammer', 'Trommel', 'Blume', 'Rucksack', 'Flasche', 'Socke', 'Schere', 'Fahrrad', 'Kerze', 'Lampe', 'Vase', 'Uhr']","['hübsch', 'neu', 'dunkel', 'breit', 'flach', 'glänzend', 'gepunktet', 'groß', 'hässlich', 'zart']",1,1.6209131004288793,None,,,,,,,,,,,,,,,,,,,,,,,,,,,,,,,,,,,,,,,,,,,,,,,,,,,,,,,,,,,,,,,,,3,2024-01-16_09h36.54.413,watkins1,2023.2.3,99.70994367782326,88,2024-01-16 09h37.22.776211 +0000,
,,,,,,,10,0,10,0,,,,,,,,,,,,,,,,,133.2544396002777,,,,,,,,,,133.24549099989235,133.73666399996728,,,2,2.9601285001263022,,,,,,,,,,,,,,,,,,,,,133.7366741001606,139.74712100019678,Kette,dick,"['Kette', 'dick']",restudy,3,"['Jacke', 'Schlüssel', 'Kamera', 'Hut', 'Kiste', 'Eimer', 'Telefon', 'Buch', 'Stift', 'Würfel', 'Kette', 'Tasche', 'Ring', 'Bürste', 'Geige', 'Löffel', 'Tasse', 'Brille', 'Hammer', 'Trommel', 'Blume', 'Rucksack', 'Flasche', 'Socke', 'Schere', 'Fahrrad', 'Kerze', 'Lampe', 'Vase', 'Uhr']","['hübsch', 'neu', 'dunkel', 'breit', 'flach', 'glänzend', 'gepunktet', 'groß', 'hässlich', 'zart', 'dick']",2,2.9601285001263022,None,,,,,,,,,,,,,,,,,,,,,,,,,,,,,,,,,,,,,,,,,,,,,,,,,,,,,,,,,,,,,,,,,3,2024-01-16_09h36.54.413,watkins1,2023.2.3,99.70994367782326,88,2024-01-16 09h37.22.776211 +0000,
,,,,,,,11,0,11,0,,,,,,,,,,,,,,,,,139.7565890001133,,,,,,,,,,139.74765249993652,140.23888269998133,,,3,1.3379160999320447,,,,,,,,,,,,,,,,,,,,,140.23889250028878,146.23987339995801,Tasche,teuer,"['Tasche', 'teuer']",test_adj,3,"['Jacke', 'Schlüssel', 'Kamera', 'Hut', 'Kiste', 'Eimer', 'Telefon', 'Buch', 'Stift', 'Würfel', 'Kette', 'Tasche', 'Ring', 'Bürste', 'Geige', 'Löffel', 'Tasse', 'Brille', 'Hammer', 'Trommel', 'Blume', 'Rucksack', 'Flasche', 'Socke', 'Schere', 'Fahrrad', 'Kerze', 'Lampe', 'Vase', 'Uhr']","['hübsch', 'neu', 'dunkel', 'breit', 'flach', 'glänzend', 'gepunktet', 'groß', 'hässlich', 'zart', 'dick', 'teuer']",3,1.3379160999320447,None,,,,,,,,,,,,,,,,,,,,,,,,,,,,,,,,,,,,,,,,,,,,,,,,,,,,,,,,,,,,,,,,,3,2024-01-16_09h36.54.413,watkins1,2023.2.3,99.70994367782326,88,2024-01-16 09h37.22.776211 +0000,
,,,,,,,12,0,12,0,,,,,,,,,,,,,,,,,146.24918760033324,,,,,,,,,,146.2404911001213,146.73112920019776,,,2,1.8453024001792073,,,,,,,,,,,,,,,,,,,,,146.73113910015672,152.7326711001806,Ring,matt,"['Ring', 'matt']",test_adj,3,"['Jacke', 'Schlüssel', 'Kamera', 'Hut', 'Kiste', 'Eimer', 'Telefon', 'Buch', 'Stift', 'Würfel', 'Kette', 'Tasche', 'Ring', 'Bürste', 'Geige', 'Löffel', 'Tasse', 'Brille', 'Hammer', 'Trommel', 'Blume', 'Rucksack', 'Flasche', 'Socke', 'Schere', 'Fahrrad', 'Kerze', 'Lampe', 'Vase', 'Uhr']","['hübsch', 'neu', 'dunkel', 'breit', 'flach', 'glänzend', 'gepunktet', 'groß', 'hässlich', 'zart', 'dick', 'teuer', 'matt']",2,1.8453024001792073,None,,,,,,,,,,,,,,,,,,,,,,,,,,,,,,,,,,,,,,,,,,,,,,,,,,,,,,,,,,,,,,,,,3,2024-01-16_09h36.54.413,watkins1,2023.2.3,99.70994367782326,88,2024-01-16 09h37.22.776211 +0000,
,,,,,,,13,0,13,0,,,,,,,,,,,,,,,,,152.74210750032216,,,,,,,,,,152.73320250026882,153.2244426002726,,,1,1.5365916998125613,,,,,,,,,,,,,,,,,,,,,153.22445299988613,159.23283690027893,Bürste,kurz,"['Bürste', 'kurz']",restudy,3,"['Jacke', 'Schlüssel', 'Kamera', 'Hut', 'Kiste', 'Eimer', 'Telefon', 'Buch', 'Stift', 'Würfel', 'Kette', 'Tasche', 'Ring', 'Bürste', 'Geige', 'Löffel', 'Tasse', 'Brille', 'Hammer', 'Trommel', 'Blume', 'Rucksack', 'Flasche', 'Socke', 'Schere', 'Fahrrad', 'Kerze', 'Lampe', 'Vase', 'Uhr']","['hübsch', 'neu', 'dunkel', 'breit', 'flach', 'glänzend', 'gepunktet', 'groß', 'hässlich', 'zart', 'dick', 'teuer', 'matt', 'kurz']",1,1.5365916998125613,None,,,,,,,,,,,,,,,,,,,,,,,,,,,,,,,,,,,,,,,,,,,,,,,,,,,,,,,,,,,,,,,,,3,2024-01-16_09h36.54.413,watkins1,2023.2.3,99.70994367782326,88,2024-01-16 09h37.22.776211 +0000,
,,,,,,,14,0,14,0,,,,,,,,,,,,,,,,,159.24227470019832,,,,,,,,,,159.23336479999125,159.72427330026403,,,1,2.0594481001608074,,,,,,,,,,,,,,,,,,,,,159.724283200223,165.73131680022925,Geige,klobig,"['Geige', 'klobig']",restudy,3,"['Jacke', 'Schlüssel', 'Kamera', 'Hut', 'Kiste', 'Eimer', 'Telefon', 'Buch', 'Stift', 'Würfel', 'Kette', 'Tasche', 'Ring', 'Bürste', 'Geige', 'Löffel', 'Tasse', 'Brille', 'Hammer', 'Trommel', 'Blume', 'Rucksack', 'Flasche', 'Socke', 'Schere', 'Fahrrad', 'Kerze', 'Lampe', 'Vase', 'Uhr']","['hübsch', 'neu', 'dunkel', 'breit', 'flach', 'glänzend', 'gepunktet', 'groß', 'hässlich', 'zart', 'dick', 'teuer', 'matt', 'kurz', 'klobig']",1,2.0594481001608074,None,,,,,,,,,,,,,,,,,,,,,,,,,,,,,,,,,,,,,,,,,,,,,,,,,,,,,,,,,,,,,,,,,3,2024-01-16_09h36.54.413,watkins1,2023.2.3,99.70994367782326,88,2024-01-16 09h37.22.776211 +0000,
,,,,,,,15,0,15,0,,,,,,,,,,,,,,,,,165.7407001000829,,,,,,,,,,165.73184469994158,166.22274760017172,,,2,1.6565584996715188,,,,,,,,,,,,,,,,,,,,,166.22275780001655,172.22718260018155,Löffel,schwer,"['Löffel', 'schwer']",restudy,3,"['Jacke', 'Schlüssel', 'Kamera', 'Hut', 'Kiste', 'Eimer', 'Telefon', 'Buch', 'Stift', 'Würfel', 'Kette', 'Tasche', 'Ring', 'Bürste', 'Geige', 'Löffel', 'Tasse', 'Brille', 'Hammer', 'Trommel', 'Blume', 'Rucksack', 'Flasche', 'Socke', 'Schere', 'Fahrrad', 'Kerze', 'Lampe', 'Vase', 'Uhr']","['hübsch', 'neu', 'dunkel', 'breit', 'flach', 'glänzend', 'gepunktet', 'groß', 'hässlich', 'zart', 'dick', 'teuer', 'matt', 'kurz', 'klobig', 'schwer']",2,1.6565584996715188,None,,,,,,,,,,,,,,,,,,,,,,,,,,,,,,,,,,,,,,,,,,,,,,,,,,,,,,,,,,,,,,,,,3,2024-01-16_09h36.54.413,watkins1,2023.2.3,99.70994367782326,88,2024-01-16 09h37.22.776211 +0000,
,,,,,,,16,0,16,0,,,,,,,,,,,,,,,,,172.23666789988056,,,,,,,,,,172.22770859999582,172.7186883999966,,,3,1.6341476002708077,,,,,,,,,,,,,,,,,,,,,172.71869810018688,178.728510200046,Tasse,kaputt,"['Tasse', 'kaputt']",restudy,3,"['Jacke', 'Schlüssel', 'Kamera', 'Hut', 'Kiste', 'Eimer', 'Telefon', 'Buch', 'Stift', 'Würfel', 'Kette', 'Tasche', 'Ring', 'Bürste', 'Geige', 'Löffel', 'Tasse', 'Brille', 'Hammer', 'Trommel', 'Blume', 'Rucksack', 'Flasche', 'Socke', 'Schere', 'Fahrrad', 'Kerze', 'Lampe', 'Vase', 'Uhr']","['hübsch', 'neu', 'dunkel', 'breit', 'flach', 'glänzend', 'gepunktet', 'groß', 'hässlich', 'zart', 'dick', 'teuer', 'matt', 'kurz', 'klobig', 'schwer', 'kaputt']",3,1.6341476002708077,None,,,,,,,,,,,,,,,,,,,,,,,,,,,,,,,,,,,,,,,,,,,,,,,,,,,,,,,,,,,,,,,,,3,2024-01-16_09h36.54.413,watkins1,2023.2.3,99.70994367782326,88,2024-01-16 09h37.22.776211 +0000,
,,,,,,,17,0,17,0,,,,,,,,,,,,,,,,,178.73797419993207,,,,,,,,,,178.72903320007026,179.2200763002038,,,3,1.6764934998936951,,,,,,,,,,,,,,,,,,,,,179.22008650004864,185.22128470009193,Brille,praktisch,"['Brille', 'praktisch']",test_adj,3,"['Jacke', 'Schlüssel', 'Kamera', 'Hut', 'Kiste', 'Eimer', 'Telefon', 'Buch', 'Stift', 'Würfel', 'Kette', 'Tasche', 'Ring', 'Bürste', 'Geige', 'Löffel', 'Tasse', 'Brille', 'Hammer', 'Trommel', 'Blume', 'Rucksack', 'Flasche', 'Socke', 'Schere', 'Fahrrad', 'Kerze', 'Lampe', 'Vase', 'Uhr']","['hübsch', 'neu', 'dunkel', 'breit', 'flach', 'glänzend', 'gepunktet', 'groß', 'hässlich', 'zart', 'dick', 'teuer', 'matt', 'kurz', 'klobig', 'schwer', 'kaputt', 'praktisch']",3,1.6764934998936951,None,,,,,,,,,,,,,,,,,,,,,,,,,,,,,,,,,,,,,,,,,,,,,,,,,,,,,,,,,,,,,,,,,3,2024-01-16_09h36.54.413,watkins1,2023.2.3,99.70994367782326,88,2024-01-16 09h37.22.776211 +0000,
,,,,,,,18,0,18,0,,,,,,,,,,,,,,,,,185.23075630003586,,,,,,,,,,185.22181389993057,185.71278379997239,,,2,2.5441967002116144,,,,,,,,,,,,,,,,,,,,,185.71279360027984,191.72019470017403,Hammer,gut,"['Hammer', 'gut']",test_adj,3,"['Jacke', 'Schlüssel', 'Kamera', 'Hut', 'Kiste', 'Eimer', 'Telefon', 'Buch', 'Stift', 'Würfel', 'Kette', 'Tasche', 'Ring', 'Bürste', 'Geige', 'Löffel', 'Tasse', 'Brille', 'Hammer', 'Trommel', 'Blume', 'Rucksack', 'Flasche', 'Socke', 'Schere', 'Fahrrad', 'Kerze', 'Lampe', 'Vase', 'Uhr']","['hübsch', 'neu', 'dunkel', 'breit', 'flach', 'glänzend', 'gepunktet', 'groß', 'hässlich', 'zart', 'dick', 'teuer', 'matt', 'kurz', 'klobig', 'schwer', 'kaputt', 'praktisch', 'gut']",2,2.5441967002116144,None,,,,,,,,,,,,,,,,,,,,,,,,,,,,,,,,,,,,,,,,,,,,,,,,,,,,,,,,,,,,,,,,,3,2024-01-16_09h36.54.413,watkins1,2023.2.3,99.70994367782326,88,2024-01-16 09h37.22.776211 +0000,
,,,,,,,19,0,19,0,,,,,,,,,,,,,,,,,191.7296076999046,,,,,,,,,,191.7207081001252,192.21165250008926,,,1,2.3492080001160502,,,,,,,,,,,,,,,,,,,,,192.21166360005736,198.22223519999534,Trommel,nass,"['Trommel', 'nass']",test_adj,3,"['Jacke', 'Schlüssel', 'Kamera', 'Hut', 'Kiste', 'Eimer', 'Telefon', 'Buch', 'Stift', 'Würfel', 'Kette', 'Tasche', 'Ring', 'Bürste', 'Geige', 'Löffel', 'Tasse', 'Brille', 'Hammer', 'Trommel', 'Blume', 'Rucksack', 'Flasche', 'Socke', 'Schere', 'Fahrrad', 'Kerze', 'Lampe', 'Vase', 'Uhr']","['hübsch', 'neu', 'dunkel', 'breit', 'flach', 'glänzend', 'gepunktet', 'groß', 'hässlich', 'zart', 'dick', 'teuer', 'matt', 'kurz', 'klobig', 'schwer', 'kaputt', 'praktisch', 'gut', 'nass']",1,2.3492080001160502,None,,,,,,,,,,,,,,,,,,,,,,,,,,,,,,,,,,,,,,,,,,,,,,,,,,,,,,,,,,,,,,,,,3,2024-01-16_09h36.54.413,watkins1,2023.2.3,99.70994367782326,88,2024-01-16 09h37.22.776211 +0000,
,,,,,,,20,0,20,0,,,,,,,,,,,,,,,,,198.23152370005846,,,,,,,,,,198.22278820024803,198.7136645000428,,,3,1.2714291997253895,,,,,,,,,,,,,,,,,,,,,198.7136741001159,204.71521280007437,Blume,bunt,"['Blume', 'bunt']",restudy,3,"['Jacke', 'Schlüssel', 'Kamera', 'Hut', 'Kiste', 'Eimer', 'Telefon', 'Buch', 'Stift', 'Würfel', 'Kette', 'Tasche', 'Ring', 'Bürste', 'Geige', 'Löffel', 'Tasse', 'Brille', 'Hammer', 'Trommel', 'Blume', 'Rucksack', 'Flasche', 'Socke', 'Schere', 'Fahrrad', 'Kerze', 'Lampe', 'Vase', 'Uhr']","['hübsch', 'neu', 'dunkel', 'breit', 'flach', 'glänzend', 'gepunktet', 'groß', 'hässlich', 'zart', 'dick', 'teuer', 'matt', 'kurz', 'klobig', 'schwer', 'kaputt', 'praktisch', 'gut', 'nass', 'bunt']",3,1.2714291997253895,None,,,,,,,,,,,,,,,,,,,,,,,,,,,,,,,,,,,,,,,,,,,,,,,,,,,,,,,,,,,,,,,,,3,2024-01-16_09h36.54.413,watkins1,2023.2.3,99.70994367782326,88,2024-01-16 09h37.22.776211 +0000,
,,,,,,,21,0,21,0,,,,,,,,,,,,,,,,,204.72460910025984,,,,,,,,,,204.7157568000257,205.20685590012,,,1,1.409058699849993,,,,,,,,,,,,,,,,,,,,,205.20686609996483,211.20958380028605,Rucksack,lustig,"['Rucksack', 'lustig']",test_adj,3,"['Jacke', 'Schlüssel', 'Kamera', 'Hut', 'Kiste', 'Eimer', 'Telefon', 'Buch', 'Stift', 'Würfel', 'Kette', 'Tasche', 'Ring', 'Bürste', 'Geige', 'Löffel', 'Tasse', 'Brille', 'Hammer', 'Trommel', 'Blume', 'Rucksack', 'Flasche', 'Socke', 'Schere', 'Fahrrad', 'Kerze', 'Lampe', 'Vase', 'Uhr']","['hübsch', 'neu', 'dunkel', 'breit', 'flach', 'glänzend', 'gepunktet', 'groß', 'hässlich', 'zart', 'dick', 'teuer', 'matt', 'kurz', 'klobig', 'schwer', 'kaputt', 'praktisch', 'gut', 'nass', 'bunt', 'lustig']",1,1.409058699849993,None,,,,,,,,,,,,,,,,,,,,,,,,,,,,,,,,,,,,,,,,,,,,,,,,,,,,,,,,,,,,,,,,,3,2024-01-16_09h36.54.413,watkins1,2023.2.3,99.70994367782326,88,2024-01-16 09h37.22.776211 +0000,
,,,,,,,22,0,22,0,,,,,,,,,,,,,,,,,211.21907219989225,,,,,,,,,,211.21011550026014,211.7008871003054,,,1,1.8432096000760794,,,,,,,,,,,,,,,,,,,,,211.70089700026438,217.70228180009872,Flasche,blass,"['Flasche', 'blass']",restudy,3,"['Jacke', 'Schlüssel', 'Kamera', 'Hut', 'Kiste', 'Eimer', 'Telefon', 'Buch', 'Stift', 'Würfel', 'Kette', 'Tasche', 'Ring', 'Bürste', 'Geige', 'Löffel', 'Tasse', 'Brille', 'Hammer', 'Trommel', 'Blume', 'Rucksack', 'Flasche', 'Socke', 'Schere', 'Fahrrad', 'Kerze', 'Lampe', 'Vase', 'Uhr']","['hübsch', 'neu', 'dunkel', 'breit', 'flach', 'glänzend', 'gepunktet', 'groß', 'hässlich', 'zart', 'dick', 'teuer', 'matt', 'kurz', 'klobig', 'schwer', 'kaputt', 'praktisch', 'gut', 'nass', 'bunt', 'lustig', 'blass']",1,1.8432096000760794,None,,,,,,,,,,,,,,,,,,,,,,,,,,,,,,,,,,,,,,,,,,,,,,,,,,,,,,,,,,,,,,,,,3,2024-01-16_09h36.54.413,watkins1,2023.2.3,99.70994367782326,88,2024-01-16 09h37.22.776211 +0000,
,,,,,,,23,0,23,0,,,,,,,,,,,,,,,,,217.7116708001122,,,,,,,,,,217.7028060001321,218.19362389994785,,,3,1.462716399691999,,,,,,,,,,,,,,,,,,,,,218.19363419990987,224.199093000032,Socke,schmutzig,"['Socke', 'schmutzig']",test_adj,3,"['Jacke', 'Schlüssel', 'Kamera', 'Hut', 'Kiste', 'Eimer', 'Telefon', 'Buch', 'Stift', 'Würfel', 'Kette', 'Tasche', 'Ring', 'Bürste', 'Geige', 'Löffel', 'Tasse', 'Brille', 'Hammer', 'Trommel', 'Blume', 'Rucksack', 'Flasche', 'Socke', 'Schere', 'Fahrrad', 'Kerze', 'Lampe', 'Vase', 'Uhr']","['hübsch', 'neu', 'dunkel', 'breit', 'flach', 'glänzend', 'gepunktet', 'groß', 'hässlich', 'zart', 'dick', 'teuer', 'matt', 'kurz', 'klobig', 'schwer', 'kaputt', 'praktisch', 'gut', 'nass', 'bunt', 'lustig', 'blass', 'schmutzig']",3,1.462716399691999,None,,,,,,,,,,,,,,,,,,,,,,,,,,,,,,,,,,,,,,,,,,,,,,,,,,,,,,,,,,,,,,,,,3,2024-01-16_09h36.54.413,watkins1,2023.2.3,99.70994367782326,88,2024-01-16 09h37.22.776211 +0000,
,,,,,,,24,0,24,0,,,,,,,,,,,,,,,,,224.20855680014938,,,,,,,,,,224.19960570009425,224.69053710019216,,,1,2.1580656999722123,,,,,,,,,,,,,,,,,,,,,224.69054740015417,230.6928642001003,Schere,biegsam,"['Schere', 'biegsam']",test_adj,3,"['Jacke', 'Schlüssel', 'Kamera', 'Hut', 'Kiste', 'Eimer', 'Telefon', 'Buch', 'Stift', 'Würfel', 'Kette', 'Tasche', 'Ring', 'Bürste', 'Geige', 'Löffel', 'Tasse', 'Brille', 'Hammer', 'Trommel', 'Blume', 'Rucksack', 'Flasche', 'Socke', 'Schere', 'Fahrrad', 'Kerze', 'Lampe', 'Vase', 'Uhr']","['hübsch', 'neu', 'dunkel', 'breit', 'flach', 'glänzend', 'gepunktet', 'groß', 'hässlich', 'zart', 'dick', 'teuer', 'matt', 'kurz', 'klobig', 'schwer', 'kaputt', 'praktisch', 'gut', 'nass', 'bunt', 'lustig', 'blass', 'schmutzig', 'biegsam']",1,2.1580656999722123,None,,,,,,,,,,,,,,,,,,,,,,,,,,,,,,,,,,,,,,,,,,,,,,,,,,,,,,,,,,,,,,,,,3,2024-01-16_09h36.54.413,watkins1,2023.2.3,99.70994367782326,88,2024-01-16 09h37.22.776211 +0000,
,,,,,,,25,0,25,0,,,,,,,,,,,,,,,,,230.70224340027198,,,,,,,,,,230.69338140031323,231.18428520020097,,,1,1.608496899716556,,,,,,,,,,,,,,,,,,,,,231.18429510015994,237.18619750021026,Fahrrad,hohl,"['Fahrrad', 'hohl']",test_adj,3,"['Jacke', 'Schlüssel', 'Kamera', 'Hut', 'Kiste', 'Eimer', 'Telefon', 'Buch', 'Stift', 'Würfel', 'Kette', 'Tasche', 'Ring', 'Bürste', 'Geige', 'Löffel', 'Tasse', 'Brille', 'Hammer', 'Trommel', 'Blume', 'Rucksack', 'Flasche', 'Socke', 'Schere', 'Fahrrad', 'Kerze', 'Lampe', 'Vase', 'Uhr']","['hübsch', 'neu', 'dunkel', 'breit', 'flach', 'glänzend', 'gepunktet', 'groß', 'hässlich', 'zart', 'dick', 'teuer', 'matt', 'kurz', 'klobig', 'schwer', 'kaputt', 'praktisch', 'gut', 'nass', 'bunt', 'lustig', 'blass', 'schmutzig', 'biegsam', 'hohl']",1,1.608496899716556,None,,,,,,,,,,,,,,,,,,,,,,,,,,,,,,,,,,,,,,,,,,,,,,,,,,,,,,,,,,,,,,,,,3,2024-01-16_09h36.54.413,watkins1,2023.2.3,99.70994367782326,88,2024-01-16 09h37.22.776211 +0000,
,,,,,,,26,0,26,0,,,,,,,,,,,,,,,,,237.19556870032102,,,,,,,,,,237.18677050014958,237.67782009998336,,,2,1.6829409999772906,,,,,,,,,,,,,,,,,,,,,237.67782999994233,243.68716750014573,Kerze,rustikal,"['Kerze', 'rustikal']",restudy,3,"['Jacke', 'Schlüssel', 'Kamera', 'Hut', 'Kiste', 'Eimer', 'Telefon', 'Buch', 'Stift', 'Würfel', 'Kette', 'Tasche', 'Ring', 'Bürste', 'Geige', 'Löffel', 'Tasse', 'Brille', 'Hammer', 'Trommel', 'Blume', 'Rucksack', 'Flasche', 'Socke', 'Schere', 'Fahrrad', 'Kerze', 'Lampe', 'Vase', 'Uhr']","['hübsch', 'neu', 'dunkel', 'breit', 'flach', 'glänzend', 'gepunktet', 'groß', 'hässlich', 'zart', 'dick', 'teuer', 'matt', 'kurz', 'klobig', 'schwer', 'kaputt', 'praktisch', 'gut', 'nass', 'bunt', 'lustig', 'blass', 'schmutzig', 'biegsam', 'hohl', 'rustikal']",2,1.6829409999772906,None,,,,,,,,,,,,,,,,,,,,,,,,,,,,,,,,,,,,,,,,,,,,,,,,,,,,,,,,,,,,,,,,,3,2024-01-16_09h36.54.413,watkins1,2023.2.3,99.70994367782326,88,2024-01-16 09h37.22.776211 +0000,
,,,,,,,27,0,27,0,,,,,,,,,,,,,,,,,243.6965900999494,,,,,,,,,,243.68770050024614,244.18224100023508,,,2,2.1046186997555196,,,,,,,,,,,,,,,,,,,,,244.1822513001971,250.18425079993904,Lampe,robust,"['Lampe', 'robust']",restudy,3,"['Jacke', 'Schlüssel', 'Kamera', 'Hut', 'Kiste', 'Eimer', 'Telefon', 'Buch', 'Stift', 'Würfel', 'Kette', 'Tasche', 'Ring', 'Bürste', 'Geige', 'Löffel', 'Tasse', 'Brille', 'Hammer', 'Trommel', 'Blume', 'Rucksack', 'Flasche', 'Socke', 'Schere', 'Fahrrad', 'Kerze', 'Lampe', 'Vase', 'Uhr']","['hübsch', 'neu', 'dunkel', 'breit', 'flach', 'glänzend', 'gepunktet', 'groß', 'hässlich', 'zart', 'dick', 'teuer', 'matt', 'kurz', 'klobig', 'schwer', 'kaputt', 'praktisch', 'gut', 'nass', 'bunt', 'lustig', 'blass', 'schmutzig', 'biegsam', 'hohl', 'rustikal', 'robust']",2,2.1046186997555196,None,,,,,,,,,,,,,,,,,,,,,,,,,,,,,,,,,,,,,,,,,,,,,,,,,,,,,,,,,,,,,,,,,3,2024-01-16_09h36.54.413,watkins1,2023.2.3,99.70994367782326,88,2024-01-16 09h37.22.776211 +0000,
,,,,,,,28,0,28,0,,,,,,,,,,,,,,,,,250.19369130022824,,,,,,,,,,250.18477699998766,250.67565000010654,,,2,2.484566899947822,,,,,,,,,,,,,,,,,,,,,250.67566040018573,256.67651450028643,Vase,gestreift,"['Vase', 'gestreift']",restudy,3,"['Jacke', 'Schlüssel', 'Kamera', 'Hut', 'Kiste', 'Eimer', 'Telefon', 'Buch', 'Stift', 'Würfel', 'Kette', 'Tasche', 'Ring', 'Bürste', 'Geige', 'Löffel', 'Tasse', 'Brille', 'Hammer', 'Trommel', 'Blume', 'Rucksack', 'Flasche', 'Socke', 'Schere', 'Fahrrad', 'Kerze', 'Lampe', 'Vase', 'Uhr']","['hübsch', 'neu', 'dunkel', 'breit', 'flach', 'glänzend', 'gepunktet', 'groß', 'hässlich', 'zart', 'dick', 'teuer', 'matt', 'kurz', 'klobig', 'schwer', 'kaputt', 'praktisch', 'gut', 'nass', 'bunt', 'lustig', 'blass', 'schmutzig', 'biegsam', 'hohl', 'rustikal', 'robust', 'gestreift']",2,2.484566899947822,None,,,,,,,,,,,,,,,,,,,,,,,,,,,,,,,,,,,,,,,,,,,,,,,,,,,,,,,,,,,,,,,,,3,2024-01-16_09h36.54.413,watkins1,2023.2.3,99.70994367782326,88,2024-01-16 09h37.22.776211 +0000,
,,,,,,,29,0,29,0,,,,,,,,,,,,,,,,,256.68591880006716,,,,,,,,,,256.6770458002575,257.16798279993236,,,2,3.135948699899018,,,,,,,,,,,,,,,,,,,,,257.1679929001257,263.16970580024645,Uhr,schlicht,"['Uhr', 'schlicht']",test_adj,3,"['Jacke', 'Schlüssel', 'Kamera', 'Hut', 'Kiste', 'Eimer', 'Telefon', 'Buch', 'Stift', 'Würfel', 'Kette', 'Tasche', 'Ring', 'Bürste', 'Geige', 'Löffel', 'Tasse', 'Brille', 'Hammer', 'Trommel', 'Blume', 'Rucksack', 'Flasche', 'Socke', 'Schere', 'Fahrrad', 'Kerze', 'Lampe', 'Vase', 'Uhr']","['hübsch', 'neu', 'dunkel', 'breit', 'flach', 'glänzend', 'gepunktet', 'groß', 'hässlich', 'zart', 'dick', 'teuer', 'matt', 'kurz', 'klobig', 'schwer', 'kaputt', 'praktisch', 'gut', 'nass', 'bunt', 'lustig', 'blass', 'schmutzig', 'biegsam', 'hohl', 'rustikal', 'robust', 'gestreift', 'schlicht']",2,3.135948699899018,None,,,,,,,,,,,,,,,,,,,,,,,,,,,,,,,,,,,,,,,,,,,,,,,,,,,,,,,,,,,,,,,,,3,2024-01-16_09h36.54.413,watkins1,2023.2.3,99.70994367782326,88,2024-01-16 09h37.22.776211 +0000,
,,,,,,,,,,,0,0,0,0,,,,,,,,,,,,,263.1791052999906,,,,,,,,,,263.17056210013106,263.6611872999929,,,[],[],,,,,,,,,,,nass,None,None,,,,,,,,,,Trommel,nass,"['Trommel', 'nass']",test_adj,3,,,,,,263.1704869000241,263.1705346000381,"['Trommel', 'Kerze', 'Vase', 'Geige', 'Brille', 'Buch', 'Telefon', 'Rucksack', 'Stift', 'Tasche', 'Flasche', 'Hut', 'Kamera', 'Schlüssel', 'Ring', 'Hammer', 'Fahrrad', 'Uhr', 'Lampe', 'Socke', 'Jacke', 'Löffel', 'Tasse', 'Schere', 'Kette', 'Blume', 'Würfel', 'Kiste', 'Bürste', 'Eimer']",263.6611977000721,263.66398510010913,None,263.6641724999063,263.66682909987867,None,263.6669882000424,263.6696254000999,None,263.66978830005974,0,269.6765387998894,269.6765534998849,269.67770900018513,,,,,,,,,,,,,,,,,,,,,,,,,,,,,,,,,,,,,,,,,,,,,,,,3,2024-01-16_09h36.54.413,watkins1,2023.2.3,99.70994367782326,88,2024-01-16 09h37.22.776211 +0000,
,,,,,,,,,,,1,0,1,0,,,,,,,,,,,,,269.686339400243,,,,,,,,,,269.6779983001761,270.1683880002238,,,[],[],,,,,,,,,,,,None,None,,,,,,,,,,Kerze,rustikal,"['Kerze', 'rustikal']",restudy,3,,,,,,269.6779294000007,269.677968100179,"['Trommel', 'Kerze', 'Vase', 'Geige', 'Brille', 'Buch', 'Telefon', 'Rucksack', 'Stift', 'Tasche', 'Flasche', 'Hut', 'Kamera', 'Schlüssel', 'Ring', 'Hammer', 'Fahrrad', 'Uhr', 'Lampe', 'Socke', 'Jacke', 'Löffel', 'Tasse', 'Schere', 'Kette', 'Blume', 'Würfel', 'Kiste', 'Bürste', 'Eimer']",270.168398800306,270.1709525003098,None,270.1710769003257,276.17524889996275,2,276.1756274001673,276.1782927000895,None,276.1784039000049,,276.1798395002261,276.1798507999629,276.1810242999345,3.773085500113666,None,,,,,,,,,,,,,,,,,,,,,,,,,,,,,,,,,,,,,,,,,,,,,,3,2024-01-16_09h36.54.413,watkins1,2023.2.3,99.70994367782326,88,2024-01-16 09h37.22.776211 +0000,
,,,,,,,,,,,2,0,2,0,,,,,,,,,,,,,276.1846735002473,,,,,,,,,,276.1813023001887,276.6767366998829,,,[],[],,,,,,,,,,,,None,None,,,,,,,,,,Vase,gestreift,"['Vase', 'gestreift']",restudy,3,,,,,,276.1812378000468,276.1812756001018,"['Trommel', 'Kerze', 'Vase', 'Geige', 'Brille', 'Buch', 'Telefon', 'Rucksack', 'Stift', 'Tasche', 'Flasche', 'Hut', 'Kamera', 'Schlüssel', 'Ring', 'Hammer', 'Fahrrad', 'Uhr', 'Lampe', 'Socke', 'Jacke', 'Löffel', 'Tasse', 'Schere', 'Kette', 'Blume', 'Würfel', 'Kiste', 'Bürste', 'Eimer']",276.6767470999621,276.6793380002491,None,276.67946540005505,282.6888576000929,3,282.68915680004284,282.6917246002704,None,282.69183670030907,,282.6928917001933,282.69290339993313,282.6941578001715,2.881353000178933,None,,,,,,,,,,,,,,,,,,,,,,,,,,,,,,,,,,,,,,,,,,,,,,3,2024-01-16_09h36.54.413,watkins1,2023.2.3,99.70994367782326,88,2024-01-16 09h37.22.776211 +0000,
,,,,,,,,,,,3,0,3,0,,,,,,,,,,,,,282.6983382999897,,,,,,,,,,282.6944472999312,283.19062909996137,,,[],[],,,,,,,,,,,,None,None,,,,,,,,,,Geige,klobig,"['Geige', 'klobig']",restudy,3,,,,,,282.6943811001256,282.6944198003039,"['Trommel', 'Kerze', 'Vase', 'Geige', 'Brille', 'Buch', 'Telefon', 'Rucksack', 'Stift', 'Tasche', 'Flasche', 'Hut', 'Kamera', 'Schlüssel', 'Ring', 'Hammer', 'Fahrrad', 'Uhr', 'Lampe', 'Socke', 'Jacke', 'Löffel', 'Tasse', 'Schere', 'Kette', 'Blume', 'Würfel', 'Kiste', 'Bürste', 'Eimer']",283.19064040016383,283.1934397001751,None,283.19356450019404,289.2018867000006,1,289.20218389993533,289.2049879003316,None,289.2051053000614,,289.20626430027187,289.2062760000117,289.20744120003656,2.0945085999555886,None,,,,,,,,,,,,,,,,,,,,,,,,,,,,,,,,,,,,,,,,,,,,,,3,2024-01-16_09h36.54.413,watkins1,2023.2.3,99.70994367782326,88,2024-01-16 09h37.22.776211 +0000,
,,,,,,,,,,,4,0,4,0,,,,,,,,,,,,,289.21119570033625,,,,,,,,,,289.20772590022534,289.7033230001107,,,[],[],,,,,,,,,,,praktis,None,None,,,,,,,,,,Brille,praktisch,"['Brille', 'praktisch']",test_adj,3,,,,,,289.2076603001915,289.20769939990714,"['Trommel', 'Kerze', 'Vase', 'Geige', 'Brille', 'Buch', 'Telefon', 'Rucksack', 'Stift', 'Tasche', 'Flasche', 'Hut', 'Kamera', 'Schlüssel', 'Ring', 'Hammer', 'Fahrrad', 'Uhr', 'Lampe', 'Socke', 'Jacke', 'Löffel', 'Tasse', 'Schere', 'Kette', 'Blume', 'Würfel', 'Kiste', 'Bürste', 'Eimer']",289.7033331999555,289.70599099993706,None,289.70611630007625,289.7075529000722,None,289.7076648999937,289.7091009002179,None,289.7092106002383,0,295.71165310032666,295.7116682003252,295.7129488000646,,,,,,,,,,,,,,,,,,,,,,,,,,,,,,,,,,,,,,,,,,,,,,,,3,2024-01-16_09h36.54.413,watkins1,2023.2.3,99.70994367782326,88,2024-01-16 09h37.22.776211 +0000,
,,,,,,,,,,,5,0,5,0,,,,,,,,,,,,,295.7214056001976,,,,,,,,,,295.71323390025645,296.2035610000603,,,[],[],,,,,,,,,,,groß,None,None,,,,,,,,,,Buch,groß,"['Buch', 'groß']",test_adj,3,,,,,,295.713166099973,295.7132056001574,"['Trommel', 'Kerze', 'Vase', 'Geige', 'Brille', 'Buch', 'Telefon', 'Rucksack', 'Stift', 'Tasche', 'Flasche', 'Hut', 'Kamera', 'Schlüssel', 'Ring', 'Hammer', 'Fahrrad', 'Uhr', 'Lampe', 'Socke', 'Jacke', 'Löffel', 'Tasse', 'Schere', 'Kette', 'Blume', 'Würfel', 'Kiste', 'Bürste', 'Eimer']",296.20357170002535,296.20622819988057,None,296.2063589002937,296.2088375003077,None,296.2089487002231,296.2115112002939,None,296.2116208001971,0,302.21832610014826,302.21834030002356,302.21950950007886,,,,,,,,,,,,,,,,,,,,,,,,,,,,,,,,,,,,,,,,,,,,,,,,3,2024-01-16_09h36.54.413,watkins1,2023.2.3,99.70994367782326,88,2024-01-16 09h37.22.776211 +0000,
,,,,,,,,,,,6,0,6,0,,,,,,,,,,,,,302.2281289999373,,,,,,,,,,302.21980010019615,302.71030830033123,,,[],[],,,,,,,,,,,,None,None,,,,,,,,,,Telefon,gepunktet,"['Telefon', 'gepunktet']",restudy,3,,,,,,302.21973050013185,302.21976980008185,"['Trommel', 'Kerze', 'Vase', 'Geige', 'Brille', 'Buch', 'Telefon', 'Rucksack', 'Stift', 'Tasche', 'Flasche', 'Hut', 'Kamera', 'Schlüssel', 'Ring', 'Hammer', 'Fahrrad', 'Uhr', 'Lampe', 'Socke', 'Jacke', 'Löffel', 'Tasse', 'Schere', 'Kette', 'Blume', 'Würfel', 'Kiste', 'Bürste', 'Eimer']",302.7103185001761,302.7129029002972,None,302.71302630007267,308.7160571999848,1,308.71635990031064,308.71913149999455,None,308.7192452000454,,308.7207420002669,308.7207539998926,308.72199109988287,2.5675553996115923,None,,,,,,,,,,,,,,,,,,,,,,,,,,,,,,,,,,,,,,,,,,,,,,3,2024-01-16_09h36.54.413,watkins1,2023.2.3,99.70994367782326,88,2024-01-16 09h37.22.776211 +0000,
,,,,,,,,,,,7,0,7,0,,,,,,,,,,,,,308.72548269992694,,,,,,,,,,308.72227430017665,309.2175623001531,,,[],[],,,,,,,,,,,lustig,None,None,,,,,,,,,,Rucksack,lustig,"['Rucksack', 'lustig']",test_adj,3,,,,,,308.7222095001489,308.72224760008976,"['Trommel', 'Kerze', 'Vase', 'Geige', 'Brille', 'Buch', 'Telefon', 'Rucksack', 'Stift', 'Tasche', 'Flasche', 'Hut', 'Kamera', 'Schlüssel', 'Ring', 'Hammer', 'Fahrrad', 'Uhr', 'Lampe', 'Socke', 'Jacke', 'Löffel', 'Tasse', 'Schere', 'Kette', 'Blume', 'Würfel', 'Kiste', 'Bürste', 'Eimer']",309.2175735998899,309.22035090019926,None,309.220478199888,309.22193620027974,None,309.22204380016774,309.22354539996013,None,309.2236544000916,0,315.2262014001608,315.2262162002735,315.2275056000799,,,,,,,,,,,,,,,,,,,,,,,,,,,,,,,,,,,,,,,,,,,,,,,,3,2024-01-16_09h36.54.413,watkins1,2023.2.3,99.70994367782326,88,2024-01-16 09h37.22.776211 +0000,
,,,,,,,,,,,8,0,8,0,,,,,,,,,,,,,315.23601310001686,,,,,,,,,,315.22779279993847,315.718061900232,,,[],[],,,,,,,,,,,,None,None,,,,,,,,,,Stift,hässlich,"['Stift', 'hässlich']",restudy,3,,,,,,315.2277222000994,315.2277621002868,"['Trommel', 'Kerze', 'Vase', 'Geige', 'Brille', 'Buch', 'Telefon', 'Rucksack', 'Stift', 'Tasche', 'Flasche', 'Hut', 'Kamera', 'Schlüssel', 'Ring', 'Hammer', 'Fahrrad', 'Uhr', 'Lampe', 'Socke', 'Jacke', 'Löffel', 'Tasse', 'Schere', 'Kette', 'Blume', 'Würfel', 'Kiste', 'Bürste', 'Eimer']",315.71807260019705,315.7207563002594,None,315.72088330006227,321.72867750003934,1,321.7289689001627,321.7316804002039,None,321.7317916001193,,321.73323079990223,321.73324250010774,321.7344567999244,2.0559196998365223,None,,,,,,,,,,,,,,,,,,,,,,,,,,,,,,,,,,,,,,,,,,,,,,3,2024-01-16_09h36.54.413,watkins1,2023.2.3,99.70994367782326,88,2024-01-16 09h37.22.776211 +0000,
,,,,,,,,,,,9,0,9,0,,,,,,,,,,,,,321.7380316001363,,,,,,,,,,321.7347361999564,322.2300975001417,,,[],[],,,,,,,,,,,teuer,None,None,,,,,,,,,,Tasche,teuer,"['Tasche', 'teuer']",test_adj,3,,,,,,321.7346707000397,321.7347091999836,"['Trommel', 'Kerze', 'Vase', 'Geige', 'Brille', 'Buch', 'Telefon', 'Rucksack', 'Stift', 'Tasche', 'Flasche', 'Hut', 'Kamera', 'Schlüssel', 'Ring', 'Hammer', 'Fahrrad', 'Uhr', 'Lampe', 'Socke', 'Jacke', 'Löffel', 'Tasse', 'Schere', 'Kette', 'Blume', 'Würfel', 'Kiste', 'Bürste', 'Eimer']",322.23010849999264,322.233024999965,None,322.2331547001377,322.2345839003101,None,322.2346935002133,322.23611460020766,None,322.23622369999066,0,328.2388940001838,328.23890849994496,328.2401972003281,,,,,,,,,,,,,,,,,,,,,,,,,,,,,,,,,,,,,,,,,,,,,,,,3,2024-01-16_09h36.54.413,watkins1,2023.2.3,99.70994367782326,88,2024-01-16 09h37.22.776211 +0000,
,,,,,,,,,,,10,0,10,0,,,,,,,,,,,,,328.24874790012836,,,,,,,,,,328.2404859000817,328.7308959001675,,,[],[],,,,,,,,,,,,None,None,,,,,,,,,,Flasche,blass,"['Flasche', 'blass']",restudy,3,,,,,,328.2404171000235,328.24045730009675,"['Trommel', 'Kerze', 'Vase', 'Geige', 'Brille', 'Buch', 'Telefon', 'Rucksack', 'Stift', 'Tasche', 'Flasche', 'Hut', 'Kamera', 'Schlüssel', 'Ring', 'Hammer', 'Fahrrad', 'Uhr', 'Lampe', 'Socke', 'Jacke', 'Löffel', 'Tasse', 'Schere', 'Kette', 'Blume', 'Würfel', 'Kiste', 'Bürste', 'Eimer']",328.73090559989214,328.73366810008883,None,328.73379480000585,334.7444152003154,1,334.74471440026537,334.7473205002025,None,334.74743100022897,,334.7490012999624,334.74901290005073,334.7501312000677,1.7229257002472878,None,,,,,,,,,,,,,,,,,,,,,,,,,,,,,,,,,,,,,,,,,,,,,,3,2024-01-16_09h36.54.413,watkins1,2023.2.3,99.70994367782326,88,2024-01-16 09h37.22.776211 +0000,
,,,,,,,,,,,11,0,11,0,,,,,,,,,,,,,334.75384620018303,,,,,,,,,,334.750404600054,335.24577119993046,,,[],[],,,,,,,,,,,,None,None,,,,,,,,,,Hut,breit,"['Hut', 'breit']",restudy,3,,,,,,334.7503410000354,334.75037850020453,"['Trommel', 'Kerze', 'Vase', 'Geige', 'Brille', 'Buch', 'Telefon', 'Rucksack', 'Stift', 'Tasche', 'Flasche', 'Hut', 'Kamera', 'Schlüssel', 'Ring', 'Hammer', 'Fahrrad', 'Uhr', 'Lampe', 'Socke', 'Jacke', 'Löffel', 'Tasse', 'Schere', 'Kette', 'Blume', 'Würfel', 'Kiste', 'Bürste', 'Eimer']",335.24578229989856,335.24833140010014,None,335.2484697001055,341.2506969003007,3,341.25099840015173,341.2535402001813,None,341.25370670016855,,341.2550075999461,341.25501980027184,341.25619069999084,2.208335400093347,None,,,,,,,,,,,,,,,,,,,,,,,,,,,,,,,,,,,,,,,,,,,,,,3,2024-01-16_09h36.54.413,watkins1,2023.2.3,99.70994367782326,88,2024-01-16 09h37.22.776211 +0000,
,,,,,,,,,,,12,0,12,0,,,,,,,,,,,,,341.260088799987,,,,,,,,,,341.25647890008986,341.7522585000843,,,[],[],,,,,,,,,,,dunkel,None,None,,,,,,,,,,Kamera,dunkel,"['Kamera', 'dunkel']",test_adj,3,,,,,,341.2564126001671,341.25645150011405,"['Trommel', 'Kerze', 'Vase', 'Geige', 'Brille', 'Buch', 'Telefon', 'Rucksack', 'Stift', 'Tasche', 'Flasche', 'Hut', 'Kamera', 'Schlüssel', 'Ring', 'Hammer', 'Fahrrad', 'Uhr', 'Lampe', 'Socke', 'Jacke', 'Löffel', 'Tasse', 'Schere', 'Kette', 'Blume', 'Würfel', 'Kiste', 'Bürste', 'Eimer']",341.7522693001665,341.75497990008444,None,341.75511110015213,341.7565631000325,None,341.75667300028726,341.75813540024683,None,341.75824570003897,0,347.76123009994626,347.76124470029026,347.76263440027833,,,,,,,,,,,,,,,,,,,,,,,,,,,,,,,,,,,,,,,,,,,,,,,,3,2024-01-16_09h36.54.413,watkins1,2023.2.3,99.70994367782326,88,2024-01-16 09h37.22.776211 +0000,
,,,,,,,,,,,13,0,13,0,,,,,,,,,,,,,347.77101649995893,,,,,,,,,,347.762922400143,348.25300370017067,,,[],[],,,,,,,,,,,,None,None,,,,,,,,,,Schlüssel,neu,"['Schlüssel', 'neu']",restudy,3,,,,,,347.76285549998283,347.76289399992675,"['Trommel', 'Kerze', 'Vase', 'Geige', 'Brille', 'Buch', 'Telefon', 'Rucksack', 'Stift', 'Tasche', 'Flasche', 'Hut', 'Kamera', 'Schlüssel', 'Ring', 'Hammer', 'Fahrrad', 'Uhr', 'Lampe', 'Socke', 'Jacke', 'Löffel', 'Tasse', 'Schere', 'Kette', 'Blume', 'Würfel', 'Kiste', 'Bürste', 'Eimer']",348.25301490025595,348.25579020008445,None,348.25592070026323,354.26310730027035,3,354.2634044000879,354.26608060020953,None,354.2661914001219,,354.2677202001214,354.2677319003269,354.2687114002183,2.28086580010131,None,,,,,,,,,,,,,,,,,,,,,,,,,,,,,,,,,,,,,,,,,,,,,,3,2024-01-16_09h36.54.413,watkins1,2023.2.3,99.70994367782326,88,2024-01-16 09h37.22.776211 +0000,
,,,,,,,,,,,14,0,14,0,,,,,,,,,,,,,354.27250420022756,,,,,,,,,,354.2689992999658,354.7646119003184,,,[],[],,,,,,,,,,,matt,None,None,,,,,,,,,,Ring,matt,"['Ring', 'matt']",test_adj,3,,,,,,354.26893590018153,354.26897299988195,"['Trommel', 'Kerze', 'Vase', 'Geige', 'Brille', 'Buch', 'Telefon', 'Rucksack', 'Stift', 'Tasche', 'Flasche', 'Hut', 'Kamera', 'Schlüssel', 'Ring', 'Hammer', 'Fahrrad', 'Uhr', 'Lampe', 'Socke', 'Jacke', 'Löffel', 'Tasse', 'Schere', 'Kette', 'Blume', 'Würfel', 'Kiste', 'Bürste', 'Eimer']",354.7646224000491,354.7669756002724,None,354.767101299949,354.76839890005067,None,354.7685112003237,354.769798300229,None,354.7699066000059,0,360.77189700026065,360.77191120013595,360.7730690999888,,,,,,,,,,,,,,,,,,,,,,,,,,,,,,,,,,,,,,,,,,,,,,,,3,2024-01-16_09h36.54.413,watkins1,2023.2.3,99.70994367782326,88,2024-01-16 09h37.22.776211 +0000,
,,,,,,,,,,,15,0,15,0,,,,,,,,,,,,,360.7817490003072,,,,,,,,,,360.7733575999737,361.26408550003543,,,[],[],,,,,,,,,,,gut,None,None,,,,,,,,,,Hammer,gut,"['Hammer', 'gut']",test_adj,3,,,,,,360.7732890001498,360.773328400217,"['Trommel', 'Kerze', 'Vase', 'Geige', 'Brille', 'Buch', 'Telefon', 'Rucksack', 'Stift', 'Tasche', 'Flasche', 'Hut', 'Kamera', 'Schlüssel', 'Ring', 'Hammer', 'Fahrrad', 'Uhr', 'Lampe', 'Socke', 'Jacke', 'Löffel', 'Tasse', 'Schere', 'Kette', 'Blume', 'Würfel', 'Kiste', 'Bürste', 'Eimer']",361.26409649988636,361.26666929991916,None,361.26679609995335,361.2691971003078,None,361.26930660009384,361.27170570008457,None,361.2718136003241,0,367.2773764003068,367.2773906001821,367.2785245999694,,,,,,,,,,,,,,,,,,,,,,,,,,,,,,,,,,,,,,,,,,,,,,,,3,2024-01-16_09h36.54.413,watkins1,2023.2.3,99.70994367782326,88,2024-01-16 09h37.22.776211 +0000,
,,,,,,,,,,,16,0,16,0,,,,,,,,,,,,,367.287173199933,,,,,,,,,,367.2788031999953,367.7692883000709,,,[],[],,,,,,,,,,,hohl,None,None,,,,,,,,,,Fahrrad,hohl,"['Fahrrad', 'hohl']",test_adj,3,,,,,,367.27873670030385,367.27877550013363,"['Trommel', 'Kerze', 'Vase', 'Geige', 'Brille', 'Buch', 'Telefon', 'Rucksack', 'Stift', 'Tasche', 'Flasche', 'Hut', 'Kamera', 'Schlüssel', 'Ring', 'Hammer', 'Fahrrad', 'Uhr', 'Lampe', 'Socke', 'Jacke', 'Löffel', 'Tasse', 'Schere', 'Kette', 'Blume', 'Würfel', 'Kiste', 'Bürste', 'Eimer']",367.7692980002612,367.77180889993906,None,367.77192769991234,367.77430019993335,None,367.77440680004656,367.7767769000493,None,367.77688329992816,0,373.7815566002391,373.78157379990444,373.78271610010415,,,,,,,,,,,,,,,,,,,,,,,,,,,,,,,,,,,,,,,,,,,,,,,,3,2024-01-16_09h36.54.413,watkins1,2023.2.3,99.70994367782326,88,2024-01-16 09h37.22.776211 +0000,
,,,,,,,,,,,17,0,17,0,,,,,,,,,,,,,373.7913214000873,,,,,,,,,,373.78300070017576,374.2733360999264,,,[],[],,,,,,,,,,,schlicht,None,None,,,,,,,,,,Uhr,schlicht,"['Uhr', 'schlicht']",test_adj,3,,,,,,373.78293320024386,373.78297280007973,"['Trommel', 'Kerze', 'Vase', 'Geige', 'Brille', 'Buch', 'Telefon', 'Rucksack', 'Stift', 'Tasche', 'Flasche', 'Hut', 'Kamera', 'Schlüssel', 'Ring', 'Hammer', 'Fahrrad', 'Uhr', 'Lampe', 'Socke', 'Jacke', 'Löffel', 'Tasse', 'Schere', 'Kette', 'Blume', 'Würfel', 'Kiste', 'Bürste', 'Eimer']",374.2733478001319,374.27570590004325,None,374.2758345999755,374.2780534001067,None,374.2781605999917,374.28037310019135,None,374.28048210032284,0,380.2843609000556,380.28437560005113,380.2857201001607,,,,,,,,,,,,,,,,,,,,,,,,,,,,,,,,,,,,,,,,,,,,,,,,3,2024-01-16_09h36.54.413,watkins1,2023.2.3,99.70994367782326,88,2024-01-16 09h37.22.776211 +0000,
,,,,,,,,,,,18,0,18,0,,,,,,,,,,,,,380.2941952003166,,,,,,,,,,380.28600730001926,380.7761895000003,,,[],[],,,,,,,,,,,,None,None,,,,,,,,,,Lampe,robust,"['Lampe', 'robust']",restudy,3,,,,,,380.2859372003004,380.2859789999202,"['Trommel', 'Kerze', 'Vase', 'Geige', 'Brille', 'Buch', 'Telefon', 'Rucksack', 'Stift', 'Tasche', 'Flasche', 'Hut', 'Kamera', 'Schlüssel', 'Ring', 'Hammer', 'Fahrrad', 'Uhr', 'Lampe', 'Socke', 'Jacke', 'Löffel', 'Tasse', 'Schere', 'Kette', 'Blume', 'Würfel', 'Kiste', 'Bürste', 'Eimer']",380.77619979996234,380.77890140004456,None,380.77902740007266,386.7893992001191,2,386.7896970002912,386.79232570016757,None,386.7924367003143,,386.79392520012334,386.79393699998036,386.7950937002897,1.893774800002575,None,,,,,,,,,,,,,,,,,,,,,,,,,,,,,,,,,,,,,,,,,,,,,,3,2024-01-16_09h36.54.413,watkins1,2023.2.3,99.70994367782326,88,2024-01-16 09h37.22.776211 +0000,
,,,,,,,,,,,19,0,19,0,,,,,,,,,,,,,386.7988205999136,,,,,,,,,,386.7953830999322,387.2909583998844,,,[],[],,,,,,,,,,,schmutzig,None,None,,,,,,,,,,Socke,schmutzig,"['Socke', 'schmutzig']",test_adj,3,,,,,,386.7953172000125,386.79535540007055,"['Trommel', 'Kerze', 'Vase', 'Geige', 'Brille', 'Buch', 'Telefon', 'Rucksack', 'Stift', 'Tasche', 'Flasche', 'Hut', 'Kamera', 'Schlüssel', 'Ring', 'Hammer', 'Fahrrad', 'Uhr', 'Lampe', 'Socke', 'Jacke', 'Löffel', 'Tasse', 'Schere', 'Kette', 'Blume', 'Würfel', 'Kiste', 'Bürste', 'Eimer']",387.290969400201,387.2936185002327,None,387.29374570026994,387.2951491000131,None,387.29525900026783,387.2966694999486,None,387.29677839996293,0,393.2990688001737,393.29908340005204,393.3004561001435,,,,,,,,,,,,,,,,,,,,,,,,,,,,,,,,,,,,,,,,,,,,,,,,3,2024-01-16_09h36.54.413,watkins1,2023.2.3,99.70994367782326,88,2024-01-16 09h37.22.776211 +0000,
,,,,,,,,,,,20,0,20,0,,,,,,,,,,,,,393.30881540011615,,,,,,,,,,393.3007473000325,393.79092580033466,,,[],[],,,,,,,,,,,,None,None,,,,,,,,,,Jacke,hübsch,"['Jacke', 'hübsch']",test_adj,3,,,,,,393.30067809997126,393.3007187000476,"['Trommel', 'Kerze', 'Vase', 'Geige', 'Brille', 'Buch', 'Telefon', 'Rucksack', 'Stift', 'Tasche', 'Flasche', 'Hut', 'Kamera', 'Schlüssel', 'Ring', 'Hammer', 'Fahrrad', 'Uhr', 'Lampe', 'Socke', 'Jacke', 'Löffel', 'Tasse', 'Schere', 'Kette', 'Blume', 'Würfel', 'Kiste', 'Bürste', 'Eimer']",393.79093630006537,393.7937831003219,None,393.79391170013696,393.7964924001135,None,393.7966042002663,393.7991706999019,None,393.7992822001688,0,399.8053605998866,399.8053760002367,399.80667390022427,,,,,,,,,,,,,,,,,,,,,,,,,,,,,,,,,,,,,,,,,,,,,,,,3,2024-01-16_09h36.54.413,watkins1,2023.2.3,99.70994367782326,88,2024-01-16 09h37.22.776211 +0000,
,,,,,,,,,,,21,0,21,0,,,,,,,,,,,,,399.81526650022715,,,,,,,,,,399.8069620002061,400.2972939000465,,,[],[],,,,,,,,,,,,None,None,,,,,,,,,,Löffel,schwer,"['Löffel', 'schwer']",restudy,3,,,,,,399.8068917002529,399.8069315003231,"['Trommel', 'Kerze', 'Vase', 'Geige', 'Brille', 'Buch', 'Telefon', 'Rucksack', 'Stift', 'Tasche', 'Flasche', 'Hut', 'Kamera', 'Schlüssel', 'Ring', 'Hammer', 'Fahrrad', 'Uhr', 'Lampe', 'Socke', 'Jacke', 'Löffel', 'Tasse', 'Schere', 'Kette', 'Blume', 'Würfel', 'Kiste', 'Bürste', 'Eimer']",400.29730460001156,400.299951300025,None,400.3000795999542,406.3021555999294,2,406.302467700094,406.3051220001653,None,406.3052366999909,,406.30640790006146,406.30641980003566,406.30757350008935,2.2768899998627603,None,,,,,,,,,,,,,,,,,,,,,,,,,,,,,,,,,,,,,,,,,,,,,,3,2024-01-16_09h36.54.413,watkins1,2023.2.3,99.70994367782326,88,2024-01-16 09h37.22.776211 +0000,
,,,,,,,,,,,22,0,22,0,,,,,,,,,,,,,406.311447000131,,,,,,,,,,406.3078548000194,406.80356079991907,,,[],[],,,,,,,,,,,,None,None,,,,,,,,,,Tasse,kaputt,"['Tasse', 'kaputt']",restudy,3,,,,,,406.30779079999775,406.3078287001699,"['Trommel', 'Kerze', 'Vase', 'Geige', 'Brille', 'Buch', 'Telefon', 'Rucksack', 'Stift', 'Tasche', 'Flasche', 'Hut', 'Kamera', 'Schlüssel', 'Ring', 'Hammer', 'Fahrrad', 'Uhr', 'Lampe', 'Socke', 'Jacke', 'Löffel', 'Tasse', 'Schere', 'Kette', 'Blume', 'Würfel', 'Kiste', 'Bürste', 'Eimer']",406.8035717001185,406.80638130009174,None,406.8065069001168,412.81482989992946,3,412.81512490008026,412.8177336999215,None,412.8178459000774,,412.8189779003151,412.8189898002893,412.82018609996885,1.9383728001266718,None,,,,,,,,,,,,,,,,,,,,,,,,,,,,,,,,,,,,,,,,,,,,,,3,2024-01-16_09h36.54.413,watkins1,2023.2.3,99.70994367782326,88,2024-01-16 09h37.22.776211 +0000,
,,,,,,,,,,,23,0,23,0,,,,,,,,,,,,,412.82422670023516,,,,,,,,,,412.82046850025654,413.3161730999127,,,[],[],,,,,,,,,,,biegsam,None,None,,,,,,,,,,Schere,biegsam,"['Schere', 'biegsam']",test_adj,3,,,,,,412.82040240010247,412.8204413000494,"['Trommel', 'Kerze', 'Vase', 'Geige', 'Brille', 'Buch', 'Telefon', 'Rucksack', 'Stift', 'Tasche', 'Flasche', 'Hut', 'Kamera', 'Schlüssel', 'Ring', 'Hammer', 'Fahrrad', 'Uhr', 'Lampe', 'Socke', 'Jacke', 'Löffel', 'Tasse', 'Schere', 'Kette', 'Blume', 'Würfel', 'Kiste', 'Bürste', 'Eimer']",413.3161840001121,413.3190111001022,None,413.31913780001923,413.3205810999498,None,413.3206926002167,413.32212659996003,None,413.3222365002148,0,419.3251821999438,419.32519640028477,419.32650890015066,,,,,,,,,,,,,,,,,,,,,,,,,,,,,,,,,,,,,,,,,,,,,,,,3,2024-01-16_09h36.54.413,watkins1,2023.2.3,99.70994367782326,88,2024-01-16 09h37.22.776211 +0000,
,,,,,,,,,,,24,0,24,0,,,,,,,,,,,,,419.33492049993947,,,,,,,,,,419.32678860006854,419.8170684003271,,,[],[],,,,,,,,,,,,None,None,,,,,,,,,,Kette,dick,"['Kette', 'dick']",restudy,3,,,,,,419.3267222000286,419.3267608000897,"['Trommel', 'Kerze', 'Vase', 'Geige', 'Brille', 'Buch', 'Telefon', 'Rucksack', 'Stift', 'Tasche', 'Flasche', 'Hut', 'Kamera', 'Schlüssel', 'Ring', 'Hammer', 'Fahrrad', 'Uhr', 'Lampe', 'Socke', 'Jacke', 'Löffel', 'Tasse', 'Schere', 'Kette', 'Blume', 'Würfel', 'Kiste', 'Bürste', 'Eimer']",419.8170783999376,419.8198408000171,None,419.81996370013803,425.8219133000821,2,425.822220900096,425.82471750024706,None,425.82482900004834,,425.826261700131,425.8262733002193,425.8272923999466,1.5569792999885976,None,,,,,,,,,,,,,,,,,,,,,,,,,,,,,,,,,,,,,,,,,,,,,,3,2024-01-16_09h36.54.413,watkins1,2023.2.3,99.70994367782326,88,2024-01-16 09h37.22.776211 +0000,
,,,,,,,,,,,25,0,25,0,,,,,,,,,,,,,425.8313560001552,,,,,,,,,,425.8275717003271,426.32368620019406,,,[],[],,,,,,,,,,,,None,None,,,,,,,,,,Blume,bunt,"['Blume', 'bunt']",restudy,3,,,,,,425.8275072001852,425.82754540024325,"['Trommel', 'Kerze', 'Vase', 'Geige', 'Brille', 'Buch', 'Telefon', 'Rucksack', 'Stift', 'Tasche', 'Flasche', 'Hut', 'Kamera', 'Schlüssel', 'Ring', 'Hammer', 'Fahrrad', 'Uhr', 'Lampe', 'Socke', 'Jacke', 'Löffel', 'Tasse', 'Schere', 'Kette', 'Blume', 'Würfel', 'Kiste', 'Bürste', 'Eimer']",426.3236970999278,426.3262483999133,None,426.3263758001849,432.3310634000227,3,432.3313567000441,432.3338880999945,None,432.334000099916,,432.33513540029526,432.33514730026945,432.3361605000682,1.3305480000562966,None,,,,,,,,,,,,,,,,,,,,,,,,,,,,,,,,,,,,,,,,,,,,,,3,2024-01-16_09h36.54.413,watkins1,2023.2.3,99.70994367782326,88,2024-01-16 09h37.22.776211 +0000,
,,,,,,,,,,,26,0,26,0,,,,,,,,,,,,,432.3405653000809,,,,,,,,,,432.336440899875,432.8326801001094,,,[],[],,,,,,,,,,,seicht,None,None,,,,,,,,,,Würfel,zart,"['Würfel', 'zart']",test_adj,3,,,,,,432.3363757999614,432.3364141001366,"['Trommel', 'Kerze', 'Vase', 'Geige', 'Brille', 'Buch', 'Telefon', 'Rucksack', 'Stift', 'Tasche', 'Flasche', 'Hut', 'Kamera', 'Schlüssel', 'Ring', 'Hammer', 'Fahrrad', 'Uhr', 'Lampe', 'Socke', 'Jacke', 'Löffel', 'Tasse', 'Schere', 'Kette', 'Blume', 'Würfel', 'Kiste', 'Bürste', 'Eimer']",432.8326901001856,432.8351834001951,None,432.83530670031905,432.8367209001444,None,432.83682980015874,432.8382323998958,None,432.8383524999954,0,438.84103960031644,438.84105370007455,438.8421809999272,,,,,,,,,,,,,,,,,,,,,,,,,,,,,,,,,,,,,,,,,,,,,,,,3,2024-01-16_09h36.54.413,watkins1,2023.2.3,99.70994367782326,88,2024-01-16 09h37.22.776211 +0000,
,,,,,,,,,,,27,0,27,0,,,,,,,,,,,,,438.85081240022555,,,,,,,,,,438.8424650998786,439.33294970029965,,,[],[],,,,,,,,,,,flach,None,None,,,,,,,,,,Kiste,flach,"['Kiste', 'flach']",test_adj,3,,,,,,438.84239850007,438.84243649989367,"['Trommel', 'Kerze', 'Vase', 'Geige', 'Brille', 'Buch', 'Telefon', 'Rucksack', 'Stift', 'Tasche', 'Flasche', 'Hut', 'Kamera', 'Schlüssel', 'Ring', 'Hammer', 'Fahrrad', 'Uhr', 'Lampe', 'Socke', 'Jacke', 'Löffel', 'Tasse', 'Schere', 'Kette', 'Blume', 'Würfel', 'Kiste', 'Bürste', 'Eimer']",439.33296030014753,439.3358646002598,None,439.33599509997293,439.3383227000013,None,439.3384330002591,439.3407558002509,None,439.3408637000248,0,445.3457955000922,445.3458098000847,445.34718540031463,,,,,,,,,,,,,,,,,,,,,,,,,,,,,,,,,,,,,,,,,,,,,,,,3,2024-01-16_09h36.54.413,watkins1,2023.2.3,99.70994367782326,88,2024-01-16 09h37.22.776211 +0000,
,,,,,,,,,,,28,0,28,0,,,,,,,,,,,,,445.3555327001959,,,,,,,,,,445.347469500266,445.83771490026265,,,[],[],,,,,,,,,,,,None,None,,,,,,,,,,Bürste,kurz,"['Bürste', 'kurz']",restudy,3,,,,,,445.34740209998563,445.34744160017,"['Trommel', 'Kerze', 'Vase', 'Geige', 'Brille', 'Buch', 'Telefon', 'Rucksack', 'Stift', 'Tasche', 'Flasche', 'Hut', 'Kamera', 'Schlüssel', 'Ring', 'Hammer', 'Fahrrad', 'Uhr', 'Lampe', 'Socke', 'Jacke', 'Löffel', 'Tasse', 'Schere', 'Kette', 'Blume', 'Würfel', 'Kiste', 'Bürste', 'Eimer']",445.83772550011054,445.84041670011356,None,445.84054560028017,451.8471011999063,1,451.8473971001804,451.850045400206,None,451.8501581000164,,451.8516647000797,451.8516766000539,451.85273490007967,1.9362943000160158,None,,,,,,,,,,,,,,,,,,,,,,,,,,,,,,,,,,,,,,,,,,,,,,3,2024-01-16_09h36.54.413,watkins1,2023.2.3,99.70994367782326,88,2024-01-16 09h37.22.776211 +0000,
,,,,,,,,,,,29,0,29,0,,,,,,,,,,,,,451.85652079991996,,,,,,,,,,451.85301680024713,452.34868590021506,,,[],[],,,,,,,,,,,,None,None,,,,,,,,,,Eimer,glänzend,"['Eimer', 'glänzend']",restudy,3,,,,,,451.8529525999911,451.85299060028046,"['Trommel', 'Kerze', 'Vase', 'Geige', 'Brille', 'Buch', 'Telefon', 'Rucksack', 'Stift', 'Tasche', 'Flasche', 'Hut', 'Kamera', 'Schlüssel', 'Ring', 'Hammer', 'Fahrrad', 'Uhr', 'Lampe', 'Socke', 'Jacke', 'Löffel', 'Tasse', 'Schere', 'Kette', 'Blume', 'Würfel', 'Kiste', 'Bürste', 'Eimer']",452.3486961000599,452.35120530007407,None,452.3513267003,458.3600679002702,3,458.3603662000969,458.3632259001024,None,458.36334270006046,,458.36449410021305,458.36450590007007,458.36571970023215,1.9368643998168409,None,,,,,,,,,,,,,,,,,,,,,,,,,,,,,,,,,,,,,,,,,,,,,,3,2024-01-16_09h36.54.413,watkins1,2023.2.3,99.70994367782326,88,2024-01-16 09h37.22.776211 +0000,
,,,,,,,,,,,,,,,,,,,,,,,,,,,,,,,,,,,,,,,,,,,,,,,,,,,,,,,,,,,,,,,,,,,,,3,,,,,,,,,,,,,,,,,,,,,,,,,,,,,,,,,,,,,,,,,,,,,,,,,,,,,,,,,,,,,,,,,,,,,,3,2024-01-16_09h36.54.413,watkins1,2023.2.3,99.70994367782326,88,2024-01-16 09h37.22.776211 +0000,
(2 x 5) + 3 = 13 ,Correct,button_correct,,,,,,,,,,,,,0,0,0,2,,,,,,,,,472.78490700013936,,,,,,,,471.73826700029895,472.74182360013947,,,,,['button_correct'],[4.0441875997930765],,,,,,,,,,,,,,,,,,,,,,,,,,distractorTask,3,,,,,,,,,,,,,,,,,,,,,,,,,472.7656537001021,472.78490700013936,476.81463930010796,[0.3055555555555556],[-0.3925925925925926],[1],[0],[0],[4.0441875997930765],['button_correct'],476.81531410012394,477.8180267000571,,,,,,,,,,,,,,,,,,,,,,,,,,,,,,,,,,3,2024-01-16_09h36.54.413,watkins1,2023.2.3,99.70994367782326,88,2024-01-16 09h37.22.776211 +0000,
(9 x 5) - 9 = 36 ,Correct,button_correct,,,,,,,,,,,,,0,1,1,4,,,,,,,,,477.82797260023654,,,,,,,,,,,,,,['button_correct'],[3.993952099699527],,,,,,,,,,,,,,,,,,,,,,,,,,distractorTask,3,,,,,,,,,,,,,,,,,,,,,,,,,477.81821769988164,477.82797260023654,481.81549199996516,[0.2898148148148148],[-0.4027777777777778],[1],[0],[0],[3.993952099699527],['button_correct'],481.81586620025337,482.8192427000031,,,,,,,,,,,,,,,,,,,,,,,,,,,,,,,,,,3,2024-01-16_09h36.54.413,watkins1,2023.2.3,99.70994367782326,88,2024-01-16 09h37.22.776211 +0000,
(25 : 5) + 5 = 9 ,Incorrect,button_incorrect,,,,,,,,,,,,,0,2,2,6,,,,,,,,,482.8292275001295,,,,,,,,,,,,,,['button_incorrect'],[2.407909400295466],,,,,,,,,,,,,,,,,,,,,,,,,,distractorTask,3,,,,,,,,,,,,,,,,,,,,,,,,,482.81943059992045,482.8292275001295,485.22955529997125,[-0.412962962962963],[-0.4064814814814815],[1],[0],[0],[2.407909400295466],['button_incorrect'],485.22993190027773,486.2333621000871,,,,,,,,,,,,,,,,,,,,,,,,,,,,,,,,,,3,2024-01-16_09h36.54.413,watkins1,2023.2.3,99.70994367782326,88,2024-01-16 09h37.22.776211 +0000,
(40 : 5) + 8 = 15 ,Incorrect,button_incorrect,,,,,,,,,,,,,0,3,3,7,,,,,,,,,486.2433434003033,,,,,,,,,,,,,,['button_incorrect'],[2.8989094998687506],,,,,,,,,,,,,,,,,,,,,,,,,,distractorTask,3,,,,,,,,,,,,,,,,,,,,,,,,,486.23355730017647,486.2433434003033,489.1358509003185,[-0.2833333333333333],[-0.39814814814814814],[1],[0],[0],[2.8989094998687506],['button_incorrect'],489.136226600036,490.13958609988913,,,,,,,,,,,,,,,,,,,,,,,,,,,,,,,,,,3,2024-01-16_09h36.54.413,watkins1,2023.2.3,99.70994367782326,88,2024-01-16 09h37.22.776211 +0000,
(28 : 7) - 3 = 1 ,Correct,button_correct,,,,,,,,,,,,,0,4,4,0,,,,,,,,,490.14956550020725,,,,,,,,,,,,,,['button_correct'],[3.0406016996130347],,,,,,,,,,,,,,,,,,,,,,,,,,distractorTask,3,,,,,,,,,,,,,,,,,,,,,,,,,490.13978160033,490.14956550020725,493.1827675001696,[0.33240740740740743],[-0.4],[1],[0],[0],[3.0406016996130347],['button_correct'],493.1831435998902,494.1862552999519,,,,,,,,,,,,,,,,,,,,,,,,,,,,,,,,,,3,2024-01-16_09h36.54.413,watkins1,2023.2.3,99.70994367782326,88,2024-01-16 09h37.22.776211 +0000,
(7 x 6) + 9 = 48 ,Incorrect,button_incorrect,,,,,,,,,,,,,0,5,5,9,,,,,,,,,494.19632659992203,,,,,,,,,,,,,,['button_incorrect'],[3.834379500243813],,,,,,,,,,,,,,,,,,,,,,,,,,distractorTask,3,,,,,,,,,,,,,,,,,,,,,,,,,494.18645780021325,494.19632659992203,498.02256439998746,[-0.3972222222222222],[-0.39166666666666666],[1],[0],[0],[3.834379500243813],['button_incorrect'],498.0229430999607,499.0263311001472,,,,,,,,,,,,,,,,,,,,,,,,,,,,,,,,,,3,2024-01-16_09h36.54.413,watkins1,2023.2.3,99.70994367782326,88,2024-01-16 09h37.22.776211 +0000,
(4 : 2) + 4 = 6 ,Correct,button_correct,,,,,,,,,,,,,0,6,6,1,,,,,,,,,499.0364133999683,,,,,,,,,,,,,,['button_correct'],[2.53916829964146],,,,,,,,,,,,,,,,,,,,,,,,,,distractorTask,3,,,,,,,,,,,,,,,,,,,,,,,,,499.02652270020917,499.0364133999683,501.5673748003319,[0.3851851851851852],[-0.4009259259259259],[1],[0],[0],[2.53916829964146],['button_correct'],501.56775869987905,502.5711493003182,,,,,,,,,,,,,,,,,,,,,,,,,,,,,,,,,,3,2024-01-16_09h36.54.413,watkins1,2023.2.3,99.70994367782326,88,2024-01-16 09h37.22.776211 +0000,
(54 : 6) - 10 = 0 ,Incorrect,button_incorrect,,,,,,,,,,,,,0,7,7,5,,,,,,,,,502.5811308003031,,,,,,,,,,,,,,['button_incorrect'],[3.271731000393629],,,,,,,,,,,,,,,,,,,,,,,,,,distractorTask,3,,,,,,,,,,,,,,,,,,,,,,,,,502.5713395001367,502.5811308003031,505.84493019990623,[-0.2861111111111111],[-0.4009259259259259],[1],[0],[0],[3.271731000393629],['button_incorrect'],505.845321000088,506.84871360007674,,,,,,,,,,,,,,,,,,,,,,,,,,,,,,,,,,3,2024-01-16_09h36.54.413,watkins1,2023.2.3,99.70994367782326,88,2024-01-16 09h37.22.776211 +0000,
(80 : 10) + 9 = 17 ,Correct,button_correct,,,,,,,,,,,,,0,8,8,3,,,,,,,,,506.85865360032767,,,,,,,,,,,,,,['button_correct'],"[3.141677999868989, 3.4930110997520387]",,,,,,,,,,,,,,,,,,,,,,,,,,distractorTask,3,,,,,,,,,,,,,,,,,,,,,,,,,506.84890499990433,506.85865360032767,510.3437508000061,"[0.2638888888888889, 0.29444444444444445]","[-0.4101851851851852, -0.4074074074074074]","[1, 1]","[0, 0]","[0, 0]","[3.141677999868989, 3.4930110997520387]",['button_correct'],510.344145399984,511.347463699989,,,,,,,,,,,,,,,,,,,,,,,,,,,,,,,,,,3,2024-01-16_09h36.54.413,watkins1,2023.2.3,99.70994367782326,88,2024-01-16 09h37.22.776211 +0000,
(6 x 3) + 10 = 27 ,Incorrect,button_incorrect,,,,,,,,,,,,,0,9,9,8,,,,,,,,,511.35744599998,,,,,,,,,,,,,,['button_incorrect'],[3.5531955999322236],,,,,,,,,,,,,,,,,,,,,,,,,,distractorTask,3,,,,,,,,,,,,,,,,,,,,,,,,,511.3476515999064,511.35744599998,514.9025996001437,[-0.28703703703703703],[-0.39166666666666666],[1],[0],[0],[3.5531955999322236],['button_incorrect'],514.9029780998826,515.9066588999704,,,,,,,,,,,,,,,,,,,,,,,,,,,,,,,,,,3,2024-01-16_09h36.54.413,watkins1,2023.2.3,99.70994367782326,88,2024-01-16 09h37.22.776211 +0000,
,,,,,,,,,,,,,,,,,,,,,,,,,,,,,,,,,,,,,,,,,,,,,,,,,,,,,,,,,,,,,,,,,,,,,3,,,,,,,,,,,,,,,,,,,,,,,,,,,,,,,,,,,,,,,,,,,,,,,,,,,,,,,,,,,,,,,,,,,,,,3,2024-01-16_09h36.54.413,watkins1,2023.2.3,99.70994367782326,88,2024-01-16 09h37.22.776211 +0000,
,,,,,,,,,,,,,,,,,,,0,0,0,0,,,,,524.6014324999414,,,,,,,,,,,,,,Brille,7.140079700388014,,,,,,,,,,,,4.789315700065345,None,,,,,,,,,,,,,freeRecallSub,3,,,,,,,,,,,,,,,,,,,,,,,,,,,,,,,,,,,,,524.5928571000695,524.6014324999414,524.6014324999414,531.742670299951,return,7.140079700388014,None,Brille,[0.016666666666666666],[0.06388888888888888],[1],[0],[0],[2.037095899693668],[],,,,,,,,,,,,,,,,,,,3,2024-01-16_09h36.54.413,watkins1,2023.2.3,99.70994367782326,88,2024-01-16 09h37.22.776211 +0000,
,,,,,,,,,,,,,,,,,,,1,0,1,0,,,,,531.7570461002178,,,,,,,,,,,,,,Schere,3.152563599869609,,,,,,,,,,,,1.1295761000365019,None,,,,,,,,,,,,,freeRecallSub,3,,,,,,,,,,,,,,,,,,,,,,,,,,,,,,,,,,,,,531.7460270002484,531.7570461002178,531.7570461002178,534.9141343003139,return,3.152563599869609,None,Schere,[],[],[],[],[],[],[],,,,,,,,,,,,,,,,,,,3,2024-01-16_09h36.54.413,watkins1,2023.2.3,99.70994367782326,88,2024-01-16 09h37.22.776211 +0000,
,,,,,,,,,,,,,,,,,,,2,0,2,0,,,,,534.9249303000979,,,,,,,,,,,,,,Blume,2.2885444997809827,,,,,,,,,,,,0.8735678000375628,None,,,,,,,,,,,,,freeRecallSub,3,,,,,,,,,,,,,,,,,,,,,,,,,,,,,,,,,,,,,534.915391500108,534.9249303000979,534.9249303000979,537.2149674003012,return,2.2885444997809827,None,Blume,[],[],[],[],[],[],[],,,,,,,,,,,,,,,,,,,3,2024-01-16_09h36.54.413,watkins1,2023.2.3,99.70994367782326,88,2024-01-16 09h37.22.776211 +0000,
,,,,,,,,,,,,,,,,,,,3,0,3,0,,,,,537.2257266999222,,,,,,,,,,,,,,Jacke,2.819706699810922,,,,,,,,,,,,0.9138067997992039,None,,,,,,,,,,,,,freeRecallSub,3,,,,,,,,,,,,,,,,,,,,,,,,,,,,,,,,,,,,,537.2162286001258,537.2257266999222,537.2257266999222,540.0480742999353,return,2.819706699810922,None,Jacke,[],[],[],[],[],[],[],,,,,,,,,,,,,,,,,,,3,2024-01-16_09h36.54.413,watkins1,2023.2.3,99.70994367782326,88,2024-01-16 09h37.22.776211 +0000,
,,,,,,,,,,,,,,,,,,,4,0,4,0,,,,,540.0593078001402,,,,,,,,,,,,,,Trommel,5.450083899777383,,,,,,,,,,,,1.7882651002146304,None,,,,,,,,,,,,,freeRecallSub,3,,,,,,,,,,,,,,,,,,,,,,,,,,,,,,,,,,,,,540.0493445000611,540.0593078001402,540.0593078001402,545.5129590001889,return,5.450083899777383,None,Trommel,[],[],[],[],[],[],[],,,,,,,,,,,,,,,,,,,3,2024-01-16_09h36.54.413,watkins1,2023.2.3,99.70994367782326,88,2024-01-16 09h37.22.776211 +0000,
,,,,,,,,,,,,,,,,,,,5,0,5,0,,,,,545.5242745000869,,,,,,,,,,,,,,Tasche,3.2251730002462864,,,,,,,,,,,,1.2963398997671902,None,,,,,,,,,,,,,freeRecallSub,3,,,,,,,,,,,,,,,,,,,,,,,,,,,,,,,,,,,,,545.5142226000316,545.5242745000869,545.5242745000869,548.7585634998977,return,3.2251730002462864,None,Tasche,[],[],[],[],[],[],[],,,,,,,,,,,,,,,,,,,3,2024-01-16_09h36.54.413,watkins1,2023.2.3,99.70994367782326,88,2024-01-16 09h37.22.776211 +0000,
,,,,,,,,,,,,,,,,,,,6,0,6,0,,,,,548.7702486999333,,,,,,,,,,,,,,Uhr,1.7392174997366965,,,,,,,,,,,,0.7848185999318957,None,,,,,,,,,,,,,freeRecallSub,3,,,,,,,,,,,,,,,,,,,,,,,,,,,,,,,,,,,,,548.7598256003112,548.7702486999333,548.7702486999333,550.5187572999857,return,1.7392174997366965,None,Uhr,[],[],[],[],[],[],[],,,,,,,,,,,,,,,,,,,3,2024-01-16_09h36.54.413,watkins1,2023.2.3,99.70994367782326,88,2024-01-16 09h37.22.776211 +0000,
,,,,,,,,,,,,,,,,,,,7,0,7,0,,,,,550.5305921002291,,,,,,,,,,,,,,Geige,6.666863000020385,,,,,,,,,,,,4.27947559999302,None,,,,,,,,,,,,,freeRecallSub,3,,,,,,,,,,,,,,,,,,,,,,,,,,,,,,,,,,,,,550.5200156001374,550.5305921002291,550.5305921002291,557.1996468999423,return,6.666863000020385,None,Geige,[],[],[],[],[],[],[],,,,,,,,,,,,,,,,,,,3,2024-01-16_09h36.54.413,watkins1,2023.2.3,99.70994367782326,88,2024-01-16 09h37.22.776211 +0000,
,,,,,,,,,,,,,,,,,,,8,0,8,0,,,,,557.2116955001839,,,,,,,,,,,,,,Rucksack,4.2897124998271465,,,,,,,,,,,,1.8300860999152064,None,,,,,,,,,,,,,freeRecallSub,3,,,,,,,,,,,,,,,,,,,,,,,,,,,,,,,,,,,,,557.200875100214,557.2116955001839,557.2116955001839,561.5019263001159,return,4.2897124998271465,None,Rucksack,[],[],[],[],[],[],[],,,,,,,,,,,,,,,,,,,3,2024-01-16_09h36.54.413,watkins1,2023.2.3,99.70994367782326,88,2024-01-16 09h37.22.776211 +0000,
,,,,,,,,,,,,,,,,,,,9,0,9,0,,,,,561.5139497001655,,,,,,,,,,,,,,Würfel,21.635508800391108,,,,,,,,,,,,19.242588200140744,None,,,,,,,,,,,,,freeRecallSub,3,,,,,,,,,,,,,,,,,,,,,,,,,,,,,,,,,,,,,561.5031806002371,561.5139497001655,561.5139497001655,583.1559262000956,return,21.635508800391108,None,Würfel,[],[],[],[],[],[],[],,,,,,,,,,,,,,,,,,,3,2024-01-16_09h36.54.413,watkins1,2023.2.3,99.70994367782326,88,2024-01-16 09h37.22.776211 +0000,
,,,,,,,,,,,,,,,,,,,10,0,10,0,,,,,583.1684483001009,,,,,,,,,,,,,,Tift,5.300893099978566,,,,,,,,,,,,3.5179050997830927,None,,,,,,,,,,,,,freeRecallSub,3,,,,,,,,,,,,,,,,,,,,,,,,,,,,,,,,,,,,,583.1571845998988,583.1684483001009,583.1684483001009,588.4726609000936,return,5.300893099978566,None,Tift,[],[],[],[],[],[],[],,,,,,,,,,,,,,,,,,,3,2024-01-16_09h36.54.413,watkins1,2023.2.3,99.70994367782326,88,2024-01-16 09h37.22.776211 +0000,
,,,,,,,,,,,,,,,,,,,11,0,11,0,,,,,588.4857850000262,,,,,,,,,,,,,,Stift,4.039645100012422,,,,,,,,,,,,2.1936396001838148,None,,,,,,,,,,,,,freeRecallSub,3,,,,,,,,,,,,,,,,,,,,,,,,,,,,,,,,,,,,,588.4739236999303,588.4857850000262,588.4857850000262,592.5352865001187,return,4.039645100012422,None,Stift,[],[],[],[],[],[],[],,,,,,,,,,,,,,,,,,,3,2024-01-16_09h36.54.413,watkins1,2023.2.3,99.70994367782326,88,2024-01-16 09h37.22.776211 +0000,
,,,,,,,,,,,,,,,,,,,12,0,12,0,,,,,592.5478473999538,,,,,,,,,,,,,,Vase,18.161540099885315,,,,,,,,,,,,16.330704899970442,None,,,,,,,,,,,,,freeRecallSub,3,,,,,,,,,,,,,,,,,,,,,,,,,,,,,,,,,,,,,592.5365492003039,592.5478473999538,592.5478473999538,610.7149374000728,return,18.161540099885315,None,Vase,[],[],[],[],[],[],[],,,,,,,,,,,,,,,,,,,3,2024-01-16_09h36.54.413,watkins1,2023.2.3,99.70994367782326,88,2024-01-16 09h37.22.776211 +0000,
,,,,,,,,,,,,,,,,,,,13,0,13,0,,,,,610.7281626001932,,,,,,,,,,,,,,Buch,12.237275399733335,,,,,,,,,,,,10.056352999992669,None,,,,,,,,,,,,,freeRecallSub,3,,,,,,,,,,,,,,,,,,,,,,,,,,,,,,,,,,,,,610.7162389000878,610.7281626001932,610.7281626001932,622.9717753999867,return,12.237275399733335,None,Buch,[],[],[],[],[],[],[],,,,,,,,,,,,,,,,,,,3,2024-01-16_09h36.54.413,watkins1,2023.2.3,99.70994367782326,88,2024-01-16 09h37.22.776211 +0000,
,,,,,,,,,,,,,,,,,,,14,0,14,0,,,,,622.9843807001598,,,,,,,,,,,,,,Löffel,26.221023300196975,,,,,,,,,,,,23.60260079987347,None,,,,,,,,,,,,,freeRecallSub,3,,,,,,,,,,,,,,,,,,,,,,,,,,,,,,,,,,,,,622.9730430003256,622.9843807001598,622.9843807001598,649.2068072003312,return,26.221023300196975,None,Löffel,[],[],[],[],[],[],[],,,,,,,,,,,,,,,,,,,3,2024-01-16_09h36.54.413,watkins1,2023.2.3,99.70994367782326,88,2024-01-16 09h37.22.776211 +0000,
,,,,,,,,,,,,,,,,,,,15,0,15,0,,,,,649.22052180022,,,,,,,,,,,,,,Schlüssel,32.83276579994708,,,,,,,,,,,,28.987207899801433,None,,,,,,,,,,,,,freeRecallSub,3,,,,,,,,,,,,,,,,,,,,,,,,,,,,,,,,,,,,,649.2080900999717,649.22052180022,649.22052180022,682.0612802999094,return,32.83276579994708,None,Schlüssel,[],[],[],[],[],[],[],,,,,,,,,,,,,,,,,,,3,2024-01-16_09h36.54.413,watkins1,2023.2.3,99.70994367782326,88,2024-01-16 09h37.22.776211 +0000,
,,,,,,,,,,,,,,,,,,,16,0,16,0,,,,,682.0746979000978,,,,,,,,,,,,,,Eimer,2.3386792996898293,,,,,,,,,,,,0.8083382002077997,None,,,,,,,,,,,,,freeRecallSub,3,,,,,,,,,,,,,,,,,,,,,,,,,,,,,,,,,,,,,682.0625465000048,682.0746979000978,682.0746979000978,684.417473200243,return,2.3386792996898293,None,Eimer,[],[],[],[],[],[],[],,,,,,,,,,,,,,,,,,,3,2024-01-16_09h36.54.413,watkins1,2023.2.3,99.70994367782326,88,2024-01-16 09h37.22.776211 +0000,
,,,,,,,,,,,,,,,,,,,17,0,17,0,,,,,684.4314888003282,,,,,,,,,,,,,,Ring,11.757860500365496,,,,,,,,,,,,9.957685499917716,None,,,,,,,,,,,,,freeRecallSub,3,,,,,,,,,,,,,,,,,,,,,,,,,,,,,,,,,,,,,684.4187250002287,684.4314888003282,684.4314888003282,696.1942918002605,return,11.757860500365496,None,Ring,[],[],[],[],[],[],[],,,,,,,,,,,,,,,,,,,3,2024-01-16_09h36.54.413,watkins1,2023.2.3,99.70994367782326,88,2024-01-16 09h37.22.776211 +0000,
,,,,,,,,,,,,,,,,,,,18,0,18,0,,,,,696.2090317001566,,,,,,,,,,,,,,Telefon,56.00421430030838,,,,,,,,,,,,51.643088000360876,None,,,,,,,,,,,,,freeRecallSub,3,,,,,,,,,,,,,,,,,,,,,,,,,,,,,,,,,,,,,696.1955634001642,696.2090317001566,696.2090317001566,752.2166427001357,return,56.00421430030838,None,Telefon,[-0.5916666666666667],[-0.025925925925925925],[1],[0],[0],[10.134737400338054],[],,,,,,,,,,,,,,,,,,,3,2024-01-16_09h36.54.413,watkins1,2023.2.3,99.70994367782326,88,2024-01-16 09h37.22.776211 +0000,
,,,,,,,,,,,,,,,,,,,19,0,19,0,,,,,752.2308546002023,,,,,,,,,,,,,,,[],,,,,,,,,,,,None,None,,,,,,,,,,,,,freeRecallSub,3,,,,,,,,,,,,,,,,,,,,,,,,,,,,,,,,,,,,,752.2179922000505,752.2308546002023,752.2308546002023,775.222607200034,None,,,,[0.25833333333333336],[-0.4064814814814815],[1],[0],[0],[22.99829459981993],"['button_continue', 'continue_text']",,,,,,,,,,,,,,,,,,,3,2024-01-16_09h36.54.413,watkins1,2023.2.3,99.70994367782326,88,2024-01-16 09h37.22.776211 +0000,
,,,,,,,,,,,,,,,,,,,,,,,,,,,,,,,,,,,,,,,,,,,,,,,,,,,,,,,,,,,,,,,,,,,,,3,,,,,,,,,,,,,,,,,,,,,,,,,,,,,,,,,,,,,,,,,,,,,,,,,,,,,,,,,,,,,,,,,,,,,,3,2024-01-16_09h36.54.413,watkins1,2023.2.3,99.70994367782326,88,2024-01-16 09h37.22.776211 +0000,
,,,,,,,,,,,,,,,,,,,,,,,0,0,0,0,783.4374231002294,,,,,,,,,,790.1288009001873,790.6273475000635,,,,6.679797799792141,,,,,,,,,,,,None,None,,,,,,,,,,Rucksack,,,cuedRecallAdj,3,,,,,,,,,,,,,,,,,,,0,,,,,,,,,,,,,,,,,,,,,,,,,,,,,,,,,783.4284029002301,783.4374231002294,783.4374231002294,790.1256014001556,lustig,return,6.679797799792141,None,790.1259933002293,790.1353417001665,790.1353417001665,790.1286484003067,,None,,,,,3,2024-01-16_09h36.54.413,watkins1,2023.2.3,99.70994367782326,88,2024-01-16 09h37.22.776211 +0000,
,,,,,,,,,,,,,,,,,,,,,,,1,0,1,0,790.6373554002494,,,,,,,,,,795.952889600303,796.4514890001155,,,,5.311851300299168,,,,,,,,,,,,None,None,,,,,,,,,,Vase,,,cuedRecallAdj,3,,,,,,,,,,,,,,,,,,,0,,,,,,,,,,,,,,,,,,,,,,,,,,,,,,,,,790.6275905999355,790.6373554002494,790.6373554002494,795.9499659002759,gestreift,return,5.311851300299168,None,795.9502334003337,795.959491699934,795.959491699934,795.952787199989,,None,,,,,3,2024-01-16_09h36.54.413,watkins1,2023.2.3,99.70994367782326,88,2024-01-16 09h37.22.776211 +0000,
,,,,,,,,,,,,,,,,,,,,,,,2,0,2,0,796.4615424000658,,,,,,,,,,799.3775515998714,799.8762616999447,,,,2.9116950002498925,,,,,,,,,,,,None,None,,,,,,,,,,Schere,,,cuedRecallAdj,3,,,,,,,,,,,,,,,,,,,0,,,,,,,,,,,,,,,,,,,,,,,,,,,,,,,,,796.4517367999069,796.4615424000658,796.4615424000658,799.3746064002626,biegsam,return,2.9116950002498925,None,799.3748667002656,799.3841730002314,799.3841730002314,799.3774522002786,,None,,,,,3,2024-01-16_09h36.54.413,watkins1,2023.2.3,99.70994367782326,88,2024-01-16 09h37.22.776211 +0000,
,,,,,,,,,,,,,,,,,,,,,,,3,0,3,0,799.8861984000541,,,,,,,,,,805.4426597002894,805.9414563002065,,,,5.551085100043565,,,,,,,,,,,,None,None,,,,,,,,,,Lampe,,,cuedRecallAdj,3,,,,,,,,,,,,,,,,,,,0,,,,,,,,,,,,,,,,,,,,,,,,,,,,,,,,,799.8765058000572,799.8861984000541,799.8861984000541,805.439677500166,robust,return,5.551085100043565,None,805.4399474998936,805.4492291002534,805.4492291002534,805.4425568999723,,None,,,,,3,2024-01-16_09h36.54.413,watkins1,2023.2.3,99.70994367782326,88,2024-01-16 09h37.22.776211 +0000,
,,,,,,,,,,,,,,,,,,,,,,,4,0,4,0,805.9514987999573,,,,,,,,,,807.9433623002842,808.4421942001209,,,,1.9819865003228188,,,,,,,,,,,,None,None,,,,,,,,,,Schlüssel,,,cuedRecallAdj,3,,,,,,,,,,,,,,,,,,,0,,,,,,,,,,,,,,,,,,,,,,,,,,,,,,,,,805.941706399899,805.9514987999573,805.9514987999573,807.9404250001535,neu,return,1.9819865003228188,None,807.9406846002676,807.949957200326,807.949957200326,807.9432486002333,,None,,,,,3,2024-01-16_09h36.54.413,watkins1,2023.2.3,99.70994367782326,88,2024-01-16 09h37.22.776211 +0000,
,,,,,,,,,,,,,,,,,,,,,,,5,0,5,0,808.4521408001892,,,,,,,,,,813.537131300196,814.0354833002202,,,,5.081129900179803,,,,,,,,,,,,None,None,,,,,,,,,,Kiste,,,cuedRecallAdj,3,,,,,,,,,,,,,,,,,,,0,,,,,,,,,,,,,,,,,,,,,,,,,,,,,,,,,808.4424383998848,808.4521408001892,808.4521408001892,813.5340796001256,flach,return,5.081129900179803,None,813.5343673001043,813.5430912002921,813.5430912002921,813.5370283001103,,None,,,,,3,2024-01-16_09h36.54.413,watkins1,2023.2.3,99.70994367782326,88,2024-01-16 09h37.22.776211 +0000,
,,,,,,,,,,,,,,,,,,,,,,,6,0,6,0,814.0454275999218,,,,,,,,,,817.7942328001373,818.2929660999216,,,,3.7358889002352953,,,,,,,,,,,,None,None,,,,,,,,,,Stift,,,cuedRecallAdj,3,,,,,,,,,,,,,,,,,,,0,,,,,,,,,,,,,,,,,,,,,,,,,,,,,,,,,814.0357297998853,814.0454275999218,814.0454275999218,817.7910910001956,hässlich,return,3.7358889002352953,None,817.7913592001423,817.8009069003165,817.8009069003165,817.7941302000545,,None,,,,,3,2024-01-16_09h36.54.413,watkins1,2023.2.3,99.70994367782326,88,2024-01-16 09h37.22.776211 +0000,
,,,,,,,,,,,,,,,,,,,,,,,7,0,7,0,818.3029041001573,,,,,,,,,,822.162630900275,822.6612789002247,,,,3.846367100253701,,,,,,,,,,,,None,None,,,,,,,,,,Socke,,,cuedRecallAdj,3,,,,,,,,,,,,,,,,,,,0,,,,,,,,,,,,,,,,,,,,,,,,,,,,,,,,,818.2932136002928,818.3029041001573,818.3029041001573,822.1593770999461,schmutzig,return,3.846367100253701,None,822.1596480002627,822.169055600185,822.169055600185,822.162528899964,,None,,,,,3,2024-01-16_09h36.54.413,watkins1,2023.2.3,99.70994367782326,88,2024-01-16 09h37.22.776211 +0000,
,,,,,,,,,,,,,,,,,,,,,,,8,0,8,0,822.6711430000141,,,,,,,,,,825.2353427000344,825.7340684002265,,,,2.5580588998273015,,,,,,,,,,,,None,None,,,,,,,,,,Kette,,,cuedRecallAdj,3,,,,,,,,,,,,,,,,,,,0,,,,,,,,,,,,,,,,,,,,,,,,,,,,,,,,,822.6615257002413,822.6711430000141,822.6711430000141,825.2324708001688,dick,return,2.5580588998273015,None,825.2327407998964,825.242013100069,825.242013100069,825.2352398000658,,None,,,,,3,2024-01-16_09h36.54.413,watkins1,2023.2.3,99.70994367782326,88,2024-01-16 09h37.22.776211 +0000,
,,,,,,,,,,,,,,,,,,,,,,,9,0,9,0,825.7440663999878,,,,,,,,,,830.7080806000158,831.2066959999502,,,,4.9571158001199365,,,,,,,,,,,,None,None,,,,,,,,,,Brille,,,cuedRecallAdj,3,,,,,,,,,,,,,,,,,,,0,,,,,,,,,,,,,,,,,,,,,,,,,,,,,,,,,825.7343175001442,825.7440663999878,825.7440663999878,830.7050095000304,praktisch,return,4.9571158001199365,None,830.7052981001325,830.7145091001876,830.7145091001876,830.7079793000594,,None,,,,,3,2024-01-16_09h36.54.413,watkins1,2023.2.3,99.70994367782326,88,2024-01-16 09h37.22.776211 +0000,
,,,,,,,,,,,,,,,,,,,,,,,10,0,10,0,831.216595500242,,,,,,,,,,835.0759859001264,835.5746188000776,,,,3.852544100023806,,,,,,,,,,,,None,None,,,,,,,,,,Kerze,,,cuedRecallAdj,3,,,,,,,,,,,,,,,,,,,0,,,,,,,,,,,,,,,,,,,,,,,,,,,,,,,,,831.206943300087,831.216595500242,831.216595500242,835.0729722999968,rustikal,return,3.852544100023806,None,835.0732408999465,835.0825184001587,835.0825184001587,835.0758843999356,,None,,,,,3,2024-01-16_09h36.54.413,watkins1,2023.2.3,99.70994367782326,88,2024-01-16 09h37.22.776211 +0000,
,,,,,,,,,,,,,,,,,,,,,,,11,0,11,0,835.5845693000592,,,,,,,,,,887.4434613999911,887.9420173000544,,,,51.852559600025415,,,,,,,,,,,,None,None,,,,,,,,,,Jacke,,,cuedRecallAdj,3,,,,,,,,,,,,,,,,,,,0,,,,,,,,,,,,,,,,,,,,,,,,,,,,,,,,,835.5748616000637,835.5845693000592,835.5845693000592,887.4404505998828,schön,return,51.852559600025415,None,887.4407215001993,887.4500033003278,887.4500033003278,887.4433571998961,,None,,,,,3,2024-01-16_09h36.54.413,watkins1,2023.2.3,99.70994367782326,88,2024-01-16 09h37.22.776211 +0000,
,,,,,,,,,,,,,,,,,,,,,,,12,0,12,0,887.9520652000792,,,,,,,,,,892.8355767000467,893.3342825002037,,,,4.8771846001036465,,,,,,,,,,,,None,None,,,,,,,,,,Uhr,,,cuedRecallAdj,3,,,,,,,,,,,,,,,,,,,0,,,,,,,,,,,,,,,,,,,,,,,,,,,,,,,,,887.9422679999843,887.9520652000792,887.9520652000792,892.8327160002664,schlicht,return,4.8771846001036465,None,892.8329802001826,892.8422693000175,892.8422693000175,892.835474499967,,None,,,,,3,2024-01-16_09h36.54.413,watkins1,2023.2.3,99.70994367782326,88,2024-01-16 09h37.22.776211 +0000,
,,,,,,,,,,,,,,,,,,,,,,,13,0,13,0,893.3442961000837,,,,,,,,,,895.9179789000191,896.4170610001311,,,,2.5649545998312533,,,,,,,,,,,,None,None,,,,,,,,,,Ring,,,cuedRecallAdj,3,,,,,,,,,,,,,,,,,,,0,,,,,,,,,,,,,,,,,,,,,,,,,,,,,,,,,893.3345332001336,893.3442961000837,893.3442961000837,895.9153523002751,matt,return,2.5649545998312533,None,895.9156106999144,895.9249024000019,895.9249024000019,895.9178786999546,,None,,,,,3,2024-01-16_09h36.54.413,watkins1,2023.2.3,99.70994367782326,88,2024-01-16 09h37.22.776211 +0000,
,,,,,,,,,,,,,,,,,,,,,,,14,0,14,0,896.4270013002679,,,,,,,,,,899.785504899919,900.2829967001453,,,,3.3541477997787297,,,,,,,,,,,,None,None,,,,,,,,,,Eimer,,,cuedRecallAdj,3,,,,,,,,,,,,,,,,,,,0,,,,,,,,,,,,,,,,,,,,,,,,,,,,,,,,,896.4173065000214,896.4270013002679,896.4270013002679,899.7822154001333,glänzend,return,3.3541477997787297,None,899.7824812000617,899.7909063999541,899.7909063999541,899.7854017000645,,None,,,,,3,2024-01-16_09h36.54.413,watkins1,2023.2.3,99.70994367782326,88,2024-01-16 09h37.22.776211 +0000,
,,,,,,,,,,,,,,,,,,,,,,,15,0,15,0,900.2929263999686,,,,,,,,,,909.3440673002042,909.842697000131,,,,9.040136199910194,,,,,,,,,,,,None,None,,,,,,,,,,Würfel,,,cuedRecallAdj,3,,,,,,,,,,,,,,,,,,,0,,,,,,,,,,,,,,,,,,,,,,,,,,,,,,,,,900.2832452999428,900.2929263999686,900.2929263999686,909.3409405001439,sanft,return,9.040136199910194,None,909.341210000217,909.3506915001199,909.3506915001199,909.3439654000103,,None,,,,,3,2024-01-16_09h36.54.413,watkins1,2023.2.3,99.70994367782326,88,2024-01-16 09h37.22.776211 +0000,
,,,,,,,,,,,,,,,,,,,,,,,16,0,16,0,909.8526604003273,,,,,,,,,,912.0349109000526,912.5340586001985,,,,2.176551599986851,,,,,,,,,,,,None,None,,,,,,,,,,Hammer,,,cuedRecallAdj,3,,,,,,,,,,,,,,,,,,,0,,,,,,,,,,,,,,,,,,,,,,,,,,,,,,,,,909.8429459999315,909.8526604003273,909.8526604003273,912.0320688001812,gut,return,2.176551599986851,None,912.0323347998783,912.041691900231,912.041691900231,912.0348085002042,,None,,,,,3,2024-01-16_09h36.54.413,watkins1,2023.2.3,99.70994367782326,88,2024-01-16 09h37.22.776211 +0000,
,,,,,,,,,,,,,,,,,,,,,,,17,0,17,0,912.5440139002167,,,,,,,,,,914.9271594001912,915.4259127001278,,,,2.3732127002440393,,,,,,,,,,,,None,None,,,,,,,,,,Tasche,,,cuedRecallAdj,3,,,,,,,,,,,,,,,,,,,0,,,,,,,,,,,,,,,,,,,,,,,,,,,,,,,,,912.5343059999868,912.5440139002167,912.5440139002167,914.9241969999857,teuer,return,2.3732127002440393,None,914.9244629000314,914.9337447001599,914.9337447001599,914.9270558003336,,None,,,,,3,2024-01-16_09h36.54.413,watkins1,2023.2.3,99.70994367782326,88,2024-01-16 09h37.22.776211 +0000,
,,,,,,,,,,,,,,,,,,,,,,,18,0,18,0,915.4358323002234,,,,,,,,,,918.7125948001631,919.2115499000065,,,,3.2652055001817644,,,,,,,,,,,,None,None,,,,,,,,,,Fahrrad,,,cuedRecallAdj,3,,,,,,,,,,,,,,,,,,,0,,,,,,,,,,,,,,,,,,,,,,,,,,,,,,,,,915.4261576998979,915.4358323002234,915.4358323002234,918.7095145001076,hohl,return,3.2652055001817644,None,918.7097829999402,918.7192808003165,918.7192808003165,918.712490899954,,None,,,,,3,2024-01-16_09h36.54.413,watkins1,2023.2.3,99.70994367782326,88,2024-01-16 09h37.22.776211 +0000,
,,,,,,,,,,,,,,,,,,,,,,,19,0,19,0,919.2215034998953,,,,,,,,,,921.8459796002135,922.3447767999023,,,,2.6156591000035405,,,,,,,,,,,,None,None,,,,,,,,,,Bürste,,,cuedRecallAdj,3,,,,,,,,,,,,,,,,,,,0,,,,,,,,,,,,,,,,,,,,,,,,,,,,,,,,,919.2117912000977,919.2215034998953,919.2215034998953,921.8431182000786,kurz,return,2.6156591000035405,None,921.8433852000162,921.8526332001202,921.8526332001202,921.8458781000227,,None,,,,,3,2024-01-16_09h36.54.413,watkins1,2023.2.3,99.70994367782326,88,2024-01-16 09h37.22.776211 +0000,
,,,,,,,,,,,,,,,,,,,,,,,20,0,20,0,922.3547233999707,,,,,,,,,,925.2799162999727,925.7790343998931,,,,2.9144784002564847,,,,,,,,,,,,None,None,,,,,,,,,,Hut,,,cuedRecallAdj,3,,,,,,,,,,,,,,,,,,,0,,,,,,,,,,,,,,,,,,,,,,,,,,,,,,,,,922.34502290003,922.3547233999707,922.3547233999707,925.2770918998867,breit,return,2.9144784002564847,None,925.2773584001698,925.2867976999842,925.2867976999842,925.2798132998869,,None,,,,,3,2024-01-16_09h36.54.413,watkins1,2023.2.3,99.70994367782326,88,2024-01-16 09h37.22.776211 +0000,
,,,,,,,,,,,,,,,,,,,,,,,21,0,21,0,925.7889554002322,,,,,,,,,,929.949623499997,930.4482995001599,,,,4.152206699829549,,,,,,,,,,,,None,None,,,,,,,,,,Trommel,,,cuedRecallAdj,3,,,,,,,,,,,,,,,,,,,0,,,,,,,,,,,,,,,,,,,,,,,,,,,,,,,,,925.7792782001197,925.7889554002322,925.7889554002322,929.9467527000234,nass,return,4.152206699829549,None,929.9470176002942,929.9562957002781,929.9562957002781,929.9495172998868,,None,,,,,3,2024-01-16_09h36.54.413,watkins1,2023.2.3,99.70994367782326,88,2024-01-16 09h37.22.776211 +0000,
,,,,,,,,,,,,,,,,,,,,,,,22,0,22,0,930.4582994999364,,,,,,,,,,932.6606534002349,933.1597154000774,,,,2.1948605002835393,,,,,,,,,,,,None,None,,,,,,,,,,Blume,,,cuedRecallAdj,3,,,,,,,,,,,,,,,,,,,0,,,,,,,,,,,,,,,,,,,,,,,,,,,,,,,,,930.4485436002724,930.4582994999364,930.4582994999364,932.6578697999939,bunt,return,2.1948605002835393,None,932.6581287002191,932.6674127001315,932.6674127001315,932.6605544001795,,None,,,,,3,2024-01-16_09h36.54.413,watkins1,2023.2.3,99.70994367782326,88,2024-01-16 09h37.22.776211 +0000,
,,,,,,,,,,,,,,,,,,,,,,,23,0,23,0,933.1696533001959,,,,,,,,,,935.854425500147,936.3530375002883,,,,2.67542070010677,,,,,,,,,,,,None,None,,,,,,,,,,Kamera,,,cuedRecallAdj,3,,,,,,,,,,,,,,,,,,,0,,,,,,,,,,,,,,,,,,,,,,,,,,,,,,,,,933.1599657000042,933.1696533001959,933.1696533001959,935.8514029001817,dunkel,return,2.67542070010677,None,935.8516707001254,935.8609044998884,935.8609044998884,935.8543239999563,,None,,,,,3,2024-01-16_09h36.54.413,watkins1,2023.2.3,99.70994367782326,88,2024-01-16 09h37.22.776211 +0000,
,,,,,,,,,,,,,,,,,,,,,,,24,0,24,0,936.3629856999032,,,,,,,,,,954.2707365001552,954.7692351001315,,,,17.898396800272167,,,,,,,,,,,,None,None,,,,,,,,,,Flasche,,,cuedRecallAdj,3,,,,,,,,,,,,,,,,,,,0,,,,,,,,,,,,,,,,,,,,,,,,,,,,,,,,,936.3532857000828,936.3629856999032,936.3629856999032,954.267733800225,trüb,return,17.898396800272167,None,954.2680037999526,954.2773561999202,954.2773561999202,954.2706333003007,,None,,,,,3,2024-01-16_09h36.54.413,watkins1,2023.2.3,99.70994367782326,88,2024-01-16 09h37.22.776211 +0000,
,,,,,,,,,,,,,,,,,,,,,,,25,0,25,0,954.7793288002722,,,,,,,,,,961.9427625001408,962.4412869000807,,,,7.153841900173575,,,,,,,,,,,,None,None,,,,,,,,,,Geige,,,cuedRecallAdj,3,,,,,,,,,,,,,,,,,,,0,,,,,,,,,,,,,,,,,,,,,,,,,,,,,,,,,954.7694816999137,954.7793288002722,954.7793288002722,961.9395857001655,klobig,return,7.153841900173575,None,961.9398540998809,961.9491189001128,961.9491189001128,961.9426601002924,,None,,,,,3,2024-01-16_09h36.54.413,watkins1,2023.2.3,99.70994367782326,88,2024-01-16 09h37.22.776211 +0000,
,,,,,,,,,,,,,,,,,,,,,,,26,0,26,0,962.4513103999197,,,,,,,,,,964.6233908003196,965.122434000019,,,,2.1618327000178397,,,,,,,,,,,,None,None,,,,,,,,,,Buch,,,cuedRecallAdj,3,,,,,,,,,,,,,,,,,,,0,,,,,,,,,,,,,,,,,,,,,,,,,,,,,,,,,962.4415327999741,962.4513103999197,962.4513103999197,964.6206861003302,groß,return,2.1618327000178397,None,964.6209491998889,964.6303945002146,964.6303945002146,964.623289800249,,None,,,,,3,2024-01-16_09h36.54.413,watkins1,2023.2.3,99.70994367782326,88,2024-01-16 09h37.22.776211 +0000,
,,,,,,,,,,,,,,,,,,,,,,,27,0,27,0,965.1324074999429,,,,,,,,,,975.4102304000407,975.9088902999647,,,,10.272629200015217,,,,,,,,,,,,None,None,,,,,,,,,,Tasse,,,cuedRecallAdj,3,,,,,,,,,,,,,,,,,,,0,,,,,,,,,,,,,,,,,,,,,,,,,,,,,,,,,965.1226805001497,965.1324074999429,965.1324074999429,975.4071174003184,zerbrochen,return,10.272629200015217,None,975.407379699871,975.4167607002892,975.4167607002892,975.4101300002076,,None,,,,,3,2024-01-16_09h36.54.413,watkins1,2023.2.3,99.70994367782326,88,2024-01-16 09h37.22.776211 +0000,
,,,,,,,,,,,,,,,,,,,,,,,28,0,28,0,975.9189371000975,,,,,,,,,,978.2922026999295,978.7907683001831,,,,2.3662297995761037,,,,,,,,,,,,None,None,,,,,,,,,,Löffel,,,cuedRecallAdj,3,,,,,,,,,,,,,,,,,,,0,,,,,,,,,,,,,,,,,,,,,,,,,,,,,,,,,975.9091350999661,975.9189371000975,975.9189371000975,978.2892179000191,schwer,return,2.3662297995761037,None,978.2894911002368,978.2987244999968,978.2987244999968,978.2921000001952,,None,,,,,3,2024-01-16_09h36.54.413,watkins1,2023.2.3,99.70994367782326,88,2024-01-16 09h37.22.776211 +0000,
,,,,,,,,,,,,,,,,,,,,,,,29,0,29,0,978.8008278999478,,,,,,,,,,984.5381547003053,985.0369279002771,,,,5.72437519999221,,,,,,,,,,,,None,None,,,,,,,,,,Telefon,,,cuedRecallAdj,3,,,,,,,,,,,,,,,,,,,0,,,,,,,,,,,,,,,,,,,,,,,,,,,,,,,,,978.7910108002834,978.8008278999478,978.8008278999478,984.5350966001861,gepunktet,return,5.72437519999221,None,984.5353616001084,984.5448696003295,984.5448696003295,984.5380517002195,,None,,,,,3,2024-01-16_09h36.54.413,watkins1,2023.2.3,99.70994367782326,88,2024-01-16 09h37.22.776211 +0000,
,,,,,,,,,,,,,,,,,,,,,,,,,,,,,,,,,,,,,,,,,,,,,,,,,,,,,,,,,,,,,,,,,,,,,3,,,,,,,,,,,,,,,,,,,,,,,,,,,,,,,,,,,,,,,,,,,,,,,,,,,,,,,,,,,,,,,,,,985.0535249002278,q,2509.7416997998953,None,3,2024-01-16_09h36.54.413,watkins1,2023.2.3,99.70994367782326,88,2024-01-16 09h37.22.776211 +0000,
