Equation,CorrectResponse,Correctbutton,trials_7.thisRepN,trials_7.thisTrialN,trials_7.thisN,trials_7.thisIndex,trials.thisRepN,trials.thisTrialN,trials.thisN,trials.thisIndex,trials_3.thisRepN,trials_3.thisTrialN,trials_3.thisN,trials_3.thisIndex,trials_2.thisRepN,trials_2.thisTrialN,trials_2.thisN,trials_2.thisIndex,trials_4.thisRepN,trials_4.thisTrialN,trials_4.thisN,trials_4.thisIndex,trials_5.thisRepN,trials_5.thisTrialN,trials_5.thisN,trials_5.thisIndex,thisRow.t,notes,code_marius.started,code_marius.stopped,welcome.started,welcome.stopped,instruction_study.started,instruction_study.stopped,fixationcross.started,fixationcross.stopped,blanc.started,blanc.stopped,study_control_probe.started,study_control_probe.stopped,responseKey,responseTime,scale_answer_2.keys,study_control_probe_2.started,study_control_probe_2.stopped,scale_answer_3.keys,scale_answer_3.rt,scale_answer_3.duration,blanc_2.started,blanc_2.stopped,test_attr_probe.started,test_attr_probe.stopped,recalled_attr,firstKeyTime,secondWordTime,blanc_3.started,blanc_3.stopped,test_sub_probe.started,test_sub_probe.stopped,recalled_sub,instruction_probe_end.started,instruction_probe_end.stopped,study.started,study.stopped,substantive,adjective,wordpair,task,condition,liste_sub_phase1,liste_adj_phase1,scale_answer.keys,scale_answer.rt,scale_answer.duration,code_defineWordsInit.started,code_defineWordsInit.stopped,liste_sub_phase2,study_control.started,study_control.stopped,scale_answer_4.keys,restudy_same.started,restudy_same.stopped,scale_answer_5.keys,restudy_different.started,restudy_different.stopped,scale_answer_6.keys,scale_answer_6.rt,scale_answer_6.duration,test_attr.started,test_attr.stopped,test_sub.started,test_sub.stopped,scale_answer_4.rt,scale_answer_4.duration,distractortask.started,equation_text.started,distractortask.stopped,mouse_answer.x,mouse_answer.y,mouse_answer.leftButton,mouse_answer.midButton,mouse_answer.rightButton,mouse_answer.time,mouse_answer.clicked_name,feedback_distractortask.started,feedback_distractortask.stopped,free_recall.started,text_enter.started,key_resp.started,free_recall.stopped,key_resp.keys,key_resp.rt,key_resp.duration,free_recalled_sub,mouse_continue.x,mouse_continue.y,mouse_continue.leftButton,mouse_continue.midButton,mouse_continue.rightButton,mouse_continue.time,mouse_continue.clicked_name,cued_recall.started,text_enter_2.started,correct,key_continue.started,cued_recall.stopped,recalled_attr1,key_continue.keys,key_continue.rt,key_continue.duration,cued_recall_2.started,text_enter_3.started,key_continue_2.started,cued_recall_2.stopped,recalled_attr2,key_continue_2.keys,key_continue_2.rt,key_continue_2.duration,key_resp_8.started,key_resp_8.keys,key_resp_8.rt,key_resp_8.duration,condition,date,expName,psychopyVersion,frameRate,participant,expStart,
,,,,,,,,,,,,,,,,,,,,,,,,,,,,,0.10568500007502735,0.10575480002444237,0.10576320008840412,20.55326640000567,,,,,,,,,,,,,,,,,,,,,,,,,,,,,,,,,,,,,1,,,,,,,,,,,,,,,,,,,,,,,,,,,,,,,,,,,,,,,,,,,,,,,,,,,,,,,,,,,,,,,,,,,,,,,,,,1,2023-11-21_13h51.07.912,watkins1,2023.2.3,99.71988681783283,4,2023-11-21 13h51.19.743321 +0000,
,,,,,,,,,,,,,,,,,,,,,,,,,,,,,,,,,20.55331510002725,53.48892939998768,,,,,,,,,,,,,,,,,,,,,,,,,,,,,,,,,,,1,,,,,,,,,,,,,,,,,,,,,,,,,,,,,,,,,,,,,,,,,,,,,,,,,,,,,,,,,,,,,,,,,,,,,,,,,,1,2023-11-21_13h51.07.912,watkins1,2023.2.3,99.71988681783283,4,2023-11-21 13h51.19.743321 +0000,
,,,0,0,0,0,,,,,,,,,,,,,,,,,,,,,54.50257030001376,,,,,,,,53.488945799996145,54.49264040007256,60.986597100039944,61.47795640002005,54.9846146000782,60.98643010004889,2,3.5394272999837995,None,61.47796729998663,67.48719600006007,2,3.5394272999837995,None,67.4875078999903,67.48753220005892,67.48753969999962,67.4876228000503,,None,None,67.48778820002917,67.48780940007418,67.48781670001335,67.48789009999018,,,,,,,,,,1,,,,,,,,,,,,,,,,,,,,,,,,,,,,,,,,,,,,,,,,,,,,,,,,,,,,,,,,,,,,,,,,,,,,,,,,,,1,2023-11-21_13h51.07.912,watkins1,2023.2.3,99.71988681783283,4,2023-11-21 13h51.19.743321 +0000,
,,,,,,,,,,,,,,,,,,,,,,,,,,,,,,,,,,,,,,,,,,,,,,,,,,,,,,,,,,,,,67.48800410004333,74.26136740006041,,,,,,,1,,,,,,,,,,,,,,,,,,,,,,,,,,,,,,,,,,,,,,,,,,,,,,,,,,,,,,,,,,,,,,,,,,,,,,,,,,1,2023-11-21_13h51.07.912,watkins1,2023.2.3,99.71988681783283,4,2023-11-21 13h51.19.743321 +0000,
,,,,,,,0,0,0,0,,,,,,,,,,,,,,,,,75.27497830009088,,,,,,,,74.26138360006735,75.26498910004739,75.26542519999202,75.75708650005981,,,1,2.30082530004438,,,,,,,,,,,,,,,,,,,,,75.7570974000264,81.76405190001242,Eimer,verspielt,"['Eimer', 'verspielt']",control,1,"['Eimer', 'Brille', 'Geige', 'Tasse', 'Hut', 'Ring', 'Tasche', 'Hammer', 'Schlüssel', 'Vase', 'Stift', 'Kerze', 'Bürste', 'Telefon', 'Löffel', 'Buch', 'Uhr', 'Flasche', 'Schere', 'Rucksack', 'Lampe', 'Socke']",['verspielt'],1,2.30082530004438,None,,,,,,,,,,,,,,,,,,,,,,,,,,,,,,,,,,,,,,,,,,,,,,,,,,,,,,,,,,,,,,,,,,,,,1,2023-11-21_13h51.07.912,watkins1,2023.2.3,99.71988681783283,4,2023-11-21 13h51.19.743321 +0000,
,,,,,,,1,0,1,0,,,,,,,,,,,,,,,,,81.77351130009629,,,,,,,,,,81.76465630007442,82.25554690009449,,,3,1.4712076999712735,,,,,,,,,,,,,,,,,,,,,82.25555830006488,88.26229240000248,Brille,teuer,"['Brille', 'teuer']",restudy_diff,1,"['Eimer', 'Brille', 'Geige', 'Tasse', 'Hut', 'Ring', 'Tasche', 'Hammer', 'Schlüssel', 'Vase', 'Stift', 'Kerze', 'Bürste', 'Telefon', 'Löffel', 'Buch', 'Uhr', 'Flasche', 'Schere', 'Rucksack', 'Lampe', 'Socke']","['verspielt', 'teuer']",3,1.4712076999712735,None,,,,,,,,,,,,,,,,,,,,,,,,,,,,,,,,,,,,,,,,,,,,,,,,,,,,,,,,,,,,,,,,,,,,,1,2023-11-21_13h51.07.912,watkins1,2023.2.3,99.71988681783283,4,2023-11-21 13h51.19.743321 +0000,
,,,,,,,2,0,2,0,,,,,,,,,,,,,,,,,88.2718704000581,,,,,,,,,,88.26285490009468,88.75390320003498,,,1,2.2437790000112727,,,,,,,,,,,,,,,,,,,,,88.75391390000004,94.76343120005913,Geige,durchsichtig,"['Geige', 'durchsichtig']",control,1,"['Eimer', 'Brille', 'Geige', 'Tasse', 'Hut', 'Ring', 'Tasche', 'Hammer', 'Schlüssel', 'Vase', 'Stift', 'Kerze', 'Bürste', 'Telefon', 'Löffel', 'Buch', 'Uhr', 'Flasche', 'Schere', 'Rucksack', 'Lampe', 'Socke']","['verspielt', 'teuer', 'durchsichtig']",1,2.2437790000112727,None,,,,,,,,,,,,,,,,,,,,,,,,,,,,,,,,,,,,,,,,,,,,,,,,,,,,,,,,,,,,,,,,,,,,,1,2023-11-21_13h51.07.912,watkins1,2023.2.3,99.71988681783283,4,2023-11-21 13h51.19.743321 +0000,
,,,,,,,3,0,3,0,,,,,,,,,,,,,,,,,94.77288140007295,,,,,,,,,,94.76391350000631,95.25497130001895,,,3,2.511899400036782,,,,,,,,,,,,,,,,,,,,,95.2549822999863,101.26398759998847,Tasse,glatt,"['Tasse', 'glatt']",restudy_diff,1,"['Eimer', 'Brille', 'Geige', 'Tasse', 'Hut', 'Ring', 'Tasche', 'Hammer', 'Schlüssel', 'Vase', 'Stift', 'Kerze', 'Bürste', 'Telefon', 'Löffel', 'Buch', 'Uhr', 'Flasche', 'Schere', 'Rucksack', 'Lampe', 'Socke']","['verspielt', 'teuer', 'durchsichtig', 'glatt']",3,2.511899400036782,None,,,,,,,,,,,,,,,,,,,,,,,,,,,,,,,,,,,,,,,,,,,,,,,,,,,,,,,,,,,,,,,,,,,,,1,2023-11-21_13h51.07.912,watkins1,2023.2.3,99.71988681783283,4,2023-11-21 13h51.19.743321 +0000,
,,,,,,,4,0,4,0,,,,,,,,,,,,,,,,,101.27273140009493,,,,,,,,,,101.26448190002702,101.75541770004202,,,3,3.315302399918437,,,,,,,,,,,,,,,,,,,,,101.7554291000124,107.76535290002357,Hut,robust,"['Hut', 'robust']",restudy_diff,1,"['Eimer', 'Brille', 'Geige', 'Tasse', 'Hut', 'Ring', 'Tasche', 'Hammer', 'Schlüssel', 'Vase', 'Stift', 'Kerze', 'Bürste', 'Telefon', 'Löffel', 'Buch', 'Uhr', 'Flasche', 'Schere', 'Rucksack', 'Lampe', 'Socke']","['verspielt', 'teuer', 'durchsichtig', 'glatt', 'robust']",3,3.315302399918437,None,,,,,,,,,,,,,,,,,,,,,,,,,,,,,,,,,,,,,,,,,,,,,,,,,,,,,,,,,,,,,,,,,,,,,1,2023-11-21_13h51.07.912,watkins1,2023.2.3,99.71988681783283,4,2023-11-21 13h51.19.743321 +0000,
,,,,,,,5,0,5,0,,,,,,,,,,,,,,,,,107.77481319999788,,,,,,,,,,107.76583490008488,108.25678030005656,,,2,1.7737909000134096,,,,,,,,,,,,,,,,,,,,,108.25679160002619,114.26267970004119,Ring,dick,"['Ring', 'dick']",restudy_diff,1,"['Eimer', 'Brille', 'Geige', 'Tasse', 'Hut', 'Ring', 'Tasche', 'Hammer', 'Schlüssel', 'Vase', 'Stift', 'Kerze', 'Bürste', 'Telefon', 'Löffel', 'Buch', 'Uhr', 'Flasche', 'Schere', 'Rucksack', 'Lampe', 'Socke']","['verspielt', 'teuer', 'durchsichtig', 'glatt', 'robust', 'dick']",2,1.7737909000134096,None,,,,,,,,,,,,,,,,,,,,,,,,,,,,,,,,,,,,,,,,,,,,,,,,,,,,,,,,,,,,,,,,,,,,,1,2023-11-21_13h51.07.912,watkins1,2023.2.3,99.71988681783283,4,2023-11-21 13h51.19.743321 +0000,
,,,,,,,6,0,6,0,,,,,,,,,,,,,,,,,114.27216040005442,,,,,,,,,,114.26317330007441,114.75410960009322,,,1,3.3179867999861017,,,,,,,,,,,,,,,,,,,,,114.75412030005828,120.76422450004611,Tasche,lang,"['Tasche', 'lang']",restudy_diff,1,"['Eimer', 'Brille', 'Geige', 'Tasse', 'Hut', 'Ring', 'Tasche', 'Hammer', 'Schlüssel', 'Vase', 'Stift', 'Kerze', 'Bürste', 'Telefon', 'Löffel', 'Buch', 'Uhr', 'Flasche', 'Schere', 'Rucksack', 'Lampe', 'Socke']","['verspielt', 'teuer', 'durchsichtig', 'glatt', 'robust', 'dick', 'lang']",1,3.3179867999861017,None,,,,,,,,,,,,,,,,,,,,,,,,,,,,,,,,,,,,,,,,,,,,,,,,,,,,,,,,,,,,,,,,,,,,,1,2023-11-21_13h51.07.912,watkins1,2023.2.3,99.71988681783283,4,2023-11-21 13h51.19.743321 +0000,
,,,,,,,7,0,7,0,,,,,,,,,,,,,,,,,120.7737969000591,,,,,,,,,,120.76473220007028,121.25578940007836,,,1,1.5115742000052705,,,,,,,,,,,,,,,,,,,,,121.25580010004342,127.264498500037,Hammer,bunt,"['Hammer', 'bunt']",restudy_diff,1,"['Eimer', 'Brille', 'Geige', 'Tasse', 'Hut', 'Ring', 'Tasche', 'Hammer', 'Schlüssel', 'Vase', 'Stift', 'Kerze', 'Bürste', 'Telefon', 'Löffel', 'Buch', 'Uhr', 'Flasche', 'Schere', 'Rucksack', 'Lampe', 'Socke']","['verspielt', 'teuer', 'durchsichtig', 'glatt', 'robust', 'dick', 'lang', 'bunt']",1,1.5115742000052705,None,,,,,,,,,,,,,,,,,,,,,,,,,,,,,,,,,,,,,,,,,,,,,,,,,,,,,,,,,,,,,,,,,,,,,1,2023-11-21_13h51.07.912,watkins1,2023.2.3,99.71988681783283,4,2023-11-21 13h51.19.743321 +0000,
,,,,,,,8,0,8,0,,,,,,,,,,,,,,,,,127.27397760003805,,,,,,,,,,127.26497870008461,127.75606040004641,,,3,4.194910499965772,,,,,,,,,,,,,,,,,,,,,127.75607080000918,133.76018900005147,Schlüssel,hübsch,"['Schlüssel', 'hübsch']",restudy_diff,1,"['Eimer', 'Brille', 'Geige', 'Tasse', 'Hut', 'Ring', 'Tasche', 'Hammer', 'Schlüssel', 'Vase', 'Stift', 'Kerze', 'Bürste', 'Telefon', 'Löffel', 'Buch', 'Uhr', 'Flasche', 'Schere', 'Rucksack', 'Lampe', 'Socke']","['verspielt', 'teuer', 'durchsichtig', 'glatt', 'robust', 'dick', 'lang', 'bunt', 'hübsch']",3,4.194910499965772,None,,,,,,,,,,,,,,,,,,,,,,,,,,,,,,,,,,,,,,,,,,,,,,,,,,,,,,,,,,,,,,,,,,,,,1,2023-11-21_13h51.07.912,watkins1,2023.2.3,99.71988681783283,4,2023-11-21 13h51.19.743321 +0000,
,,,,,,,9,0,9,0,,,,,,,,,,,,,,,,,133.7697623000713,,,,,,,,,,133.76066620007623,134.25183319998905,,,1,1.2752556999912485,,,,,,,,,,,,,,,,,,,,,134.25184390007053,140.25848060008138,Vase,strahlend,"['Vase', 'strahlend']",restudy_diff,1,"['Eimer', 'Brille', 'Geige', 'Tasse', 'Hut', 'Ring', 'Tasche', 'Hammer', 'Schlüssel', 'Vase', 'Stift', 'Kerze', 'Bürste', 'Telefon', 'Löffel', 'Buch', 'Uhr', 'Flasche', 'Schere', 'Rucksack', 'Lampe', 'Socke']","['verspielt', 'teuer', 'durchsichtig', 'glatt', 'robust', 'dick', 'lang', 'bunt', 'hübsch', 'strahlend']",1,1.2752556999912485,None,,,,,,,,,,,,,,,,,,,,,,,,,,,,,,,,,,,,,,,,,,,,,,,,,,,,,,,,,,,,,,,,,,,,,1,2023-11-21_13h51.07.912,watkins1,2023.2.3,99.71988681783283,4,2023-11-21 13h51.19.743321 +0000,
,,,,,,,10,0,10,0,,,,,,,,,,,,,,,,,140.26796299999114,,,,,,,,,,140.25895310007036,140.75004280009307,,,2,2.9612019000342116,,,,,,,,,,,,,,,,,,,,,140.75005340005737,146.75277300004382,Stift,biegsam,"['Stift', 'biegsam']",control,1,"['Eimer', 'Brille', 'Geige', 'Tasse', 'Hut', 'Ring', 'Tasche', 'Hammer', 'Schlüssel', 'Vase', 'Stift', 'Kerze', 'Bürste', 'Telefon', 'Löffel', 'Buch', 'Uhr', 'Flasche', 'Schere', 'Rucksack', 'Lampe', 'Socke']","['verspielt', 'teuer', 'durchsichtig', 'glatt', 'robust', 'dick', 'lang', 'bunt', 'hübsch', 'strahlend', 'biegsam']",2,2.9612019000342116,None,,,,,,,,,,,,,,,,,,,,,,,,,,,,,,,,,,,,,,,,,,,,,,,,,,,,,,,,,,,,,,,,,,,,,1,2023-11-21_13h51.07.912,watkins1,2023.2.3,99.71988681783283,4,2023-11-21 13h51.19.743321 +0000,
,,,,,,,11,0,11,0,,,,,,,,,,,,,,,,,146.76219100004528,,,,,,,,,,146.75325100007467,147.24437850003596,,,1,2.8498223000206053,,,,,,,,,,,,,,,,,,,,,147.24438869999722,153.25482120004017,Kerze,winzig,"['Kerze', 'winzig']",control,1,"['Eimer', 'Brille', 'Geige', 'Tasse', 'Hut', 'Ring', 'Tasche', 'Hammer', 'Schlüssel', 'Vase', 'Stift', 'Kerze', 'Bürste', 'Telefon', 'Löffel', 'Buch', 'Uhr', 'Flasche', 'Schere', 'Rucksack', 'Lampe', 'Socke']","['verspielt', 'teuer', 'durchsichtig', 'glatt', 'robust', 'dick', 'lang', 'bunt', 'hübsch', 'strahlend', 'biegsam', 'winzig']",1,2.8498223000206053,None,,,,,,,,,,,,,,,,,,,,,,,,,,,,,,,,,,,,,,,,,,,,,,,,,,,,,,,,,,,,,,,,,,,,,1,2023-11-21_13h51.07.912,watkins1,2023.2.3,99.71988681783283,4,2023-11-21 13h51.19.743321 +0000,
,,,,,,,12,0,12,0,,,,,,,,,,,,,,,,,153.264283800032,,,,,,,,,,153.2552954000421,153.74627790006343,,,1,1.2296758000738919,,,,,,,,,,,,,,,,,,,,,153.74628810002469,159.75531360006426,Bürste,lustig,"['Bürste', 'lustig']",restudy_diff,1,"['Eimer', 'Brille', 'Geige', 'Tasse', 'Hut', 'Ring', 'Tasche', 'Hammer', 'Schlüssel', 'Vase', 'Stift', 'Kerze', 'Bürste', 'Telefon', 'Löffel', 'Buch', 'Uhr', 'Flasche', 'Schere', 'Rucksack', 'Lampe', 'Socke']","['verspielt', 'teuer', 'durchsichtig', 'glatt', 'robust', 'dick', 'lang', 'bunt', 'hübsch', 'strahlend', 'biegsam', 'winzig', 'lustig']",1,1.2296758000738919,None,,,,,,,,,,,,,,,,,,,,,,,,,,,,,,,,,,,,,,,,,,,,,,,,,,,,,,,,,,,,,,,,,,,,,1,2023-11-21_13h51.07.912,watkins1,2023.2.3,99.71988681783283,4,2023-11-21 13h51.19.743321 +0000,
,,,,,,,13,0,13,0,,,,,,,,,,,,,,,,,159.76473590009846,,,,,,,,,,159.75578870007303,160.2468358000042,,,1,2.673357199993916,,,,,,,,,,,,,,,,,,,,,160.2468467000872,166.24861510004848,Telefon,flauschig,"['Telefon', 'flauschig']",control,1,"['Eimer', 'Brille', 'Geige', 'Tasse', 'Hut', 'Ring', 'Tasche', 'Hammer', 'Schlüssel', 'Vase', 'Stift', 'Kerze', 'Bürste', 'Telefon', 'Löffel', 'Buch', 'Uhr', 'Flasche', 'Schere', 'Rucksack', 'Lampe', 'Socke']","['verspielt', 'teuer', 'durchsichtig', 'glatt', 'robust', 'dick', 'lang', 'bunt', 'hübsch', 'strahlend', 'biegsam', 'winzig', 'lustig', 'flauschig']",1,2.673357199993916,None,,,,,,,,,,,,,,,,,,,,,,,,,,,,,,,,,,,,,,,,,,,,,,,,,,,,,,,,,,,,,,,,,,,,,1,2023-11-21_13h51.07.912,watkins1,2023.2.3,99.71988681783283,4,2023-11-21 13h51.19.743321 +0000,
,,,,,,,14,0,14,0,,,,,,,,,,,,,,,,,166.2580969000701,,,,,,,,,,166.24909900000785,166.7401043000864,,,2,2.5704564000479877,,,,,,,,,,,,,,,,,,,,,166.74011480004992,172.74321470002178,Löffel,matt,"['Löffel', 'matt']",control,1,"['Eimer', 'Brille', 'Geige', 'Tasse', 'Hut', 'Ring', 'Tasche', 'Hammer', 'Schlüssel', 'Vase', 'Stift', 'Kerze', 'Bürste', 'Telefon', 'Löffel', 'Buch', 'Uhr', 'Flasche', 'Schere', 'Rucksack', 'Lampe', 'Socke']","['verspielt', 'teuer', 'durchsichtig', 'glatt', 'robust', 'dick', 'lang', 'bunt', 'hübsch', 'strahlend', 'biegsam', 'winzig', 'lustig', 'flauschig', 'matt']",2,2.5704564000479877,None,,,,,,,,,,,,,,,,,,,,,,,,,,,,,,,,,,,,,,,,,,,,,,,,,,,,,,,,,,,,,,,,,,,,,1,2023-11-21_13h51.07.912,watkins1,2023.2.3,99.71988681783283,4,2023-11-21 13h51.19.743321 +0000,
,,,,,,,15,0,15,0,,,,,,,,,,,,,,,,,172.75279230007436,,,,,,,,,,172.7436899000313,173.23489820002578,,,2,2.7249290000181645,,,,,,,,,,,,,,,,,,,,,173.23490889999084,179.24433920008596,Buch,schmutzig,"['Buch', 'schmutzig']",control,1,"['Eimer', 'Brille', 'Geige', 'Tasse', 'Hut', 'Ring', 'Tasche', 'Hammer', 'Schlüssel', 'Vase', 'Stift', 'Kerze', 'Bürste', 'Telefon', 'Löffel', 'Buch', 'Uhr', 'Flasche', 'Schere', 'Rucksack', 'Lampe', 'Socke']","['verspielt', 'teuer', 'durchsichtig', 'glatt', 'robust', 'dick', 'lang', 'bunt', 'hübsch', 'strahlend', 'biegsam', 'winzig', 'lustig', 'flauschig', 'matt', 'schmutzig']",2,2.7249290000181645,None,,,,,,,,,,,,,,,,,,,,,,,,,,,,,,,,,,,,,,,,,,,,,,,,,,,,,,,,,,,,,,,,,,,,,1,2023-11-21_13h51.07.912,watkins1,2023.2.3,99.71988681783283,4,2023-11-21 13h51.19.743321 +0000,
,,,,,,,16,0,16,0,,,,,,,,,,,,,,,,,179.2536398000084,,,,,,,,,,179.24481300008483,179.7357382000191,,,1,1.9754647000227123,,,,,,,,,,,,,,,,,,,,,179.73574800009374,185.74614950001705,Uhr,kurz,"['Uhr', 'kurz']",restudy_diff,1,"['Eimer', 'Brille', 'Geige', 'Tasse', 'Hut', 'Ring', 'Tasche', 'Hammer', 'Schlüssel', 'Vase', 'Stift', 'Kerze', 'Bürste', 'Telefon', 'Löffel', 'Buch', 'Uhr', 'Flasche', 'Schere', 'Rucksack', 'Lampe', 'Socke']","['verspielt', 'teuer', 'durchsichtig', 'glatt', 'robust', 'dick', 'lang', 'bunt', 'hübsch', 'strahlend', 'biegsam', 'winzig', 'lustig', 'flauschig', 'matt', 'schmutzig', 'kurz']",1,1.9754647000227123,None,,,,,,,,,,,,,,,,,,,,,,,,,,,,,,,,,,,,,,,,,,,,,,,,,,,,,,,,,,,,,,,,,,,,,1,2023-11-21_13h51.07.912,watkins1,2023.2.3,99.71988681783283,4,2023-11-21 13h51.19.743321 +0000,
,,,,,,,17,0,17,0,,,,,,,,,,,,,,,,,185.75562230008654,,,,,,,,,,185.746628300054,186.23769530002028,,,3,2.337036200100556,,,,,,,,,,,,,,,,,,,,,186.23770629998762,192.2416649000952,Flasche,nachhaltig,"['Flasche', 'nachhaltig']",restudy_diff,1,"['Eimer', 'Brille', 'Geige', 'Tasse', 'Hut', 'Ring', 'Tasche', 'Hammer', 'Schlüssel', 'Vase', 'Stift', 'Kerze', 'Bürste', 'Telefon', 'Löffel', 'Buch', 'Uhr', 'Flasche', 'Schere', 'Rucksack', 'Lampe', 'Socke']","['verspielt', 'teuer', 'durchsichtig', 'glatt', 'robust', 'dick', 'lang', 'bunt', 'hübsch', 'strahlend', 'biegsam', 'winzig', 'lustig', 'flauschig', 'matt', 'schmutzig', 'kurz', 'nachhaltig']",3,2.337036200100556,None,,,,,,,,,,,,,,,,,,,,,,,,,,,,,,,,,,,,,,,,,,,,,,,,,,,,,,,,,,,,,,,,,,,,,1,2023-11-21_13h51.07.912,watkins1,2023.2.3,99.71988681783283,4,2023-11-21 13h51.19.743321 +0000,
,,,,,,,18,0,18,0,,,,,,,,,,,,,,,,,192.2512440000428,,,,,,,,,,192.24213850009255,192.73326960008126,,,2,2.3067709000315517,,,,,,,,,,,,,,,,,,,,,192.73328020004556,198.74036210007034,Schere,krumm,"['Schere', 'krumm']",restudy_diff,1,"['Eimer', 'Brille', 'Geige', 'Tasse', 'Hut', 'Ring', 'Tasche', 'Hammer', 'Schlüssel', 'Vase', 'Stift', 'Kerze', 'Bürste', 'Telefon', 'Löffel', 'Buch', 'Uhr', 'Flasche', 'Schere', 'Rucksack', 'Lampe', 'Socke']","['verspielt', 'teuer', 'durchsichtig', 'glatt', 'robust', 'dick', 'lang', 'bunt', 'hübsch', 'strahlend', 'biegsam', 'winzig', 'lustig', 'flauschig', 'matt', 'schmutzig', 'kurz', 'nachhaltig', 'krumm']",2,2.3067709000315517,None,,,,,,,,,,,,,,,,,,,,,,,,,,,,,,,,,,,,,,,,,,,,,,,,,,,,,,,,,,,,,,,,,,,,,1,2023-11-21_13h51.07.912,watkins1,2023.2.3,99.71988681783283,4,2023-11-21 13h51.19.743321 +0000,
,,,,,,,19,0,19,0,,,,,,,,,,,,,,,,,198.74978660000488,,,,,,,,,,198.74084220000077,199.23188410000876,,,2,3.5118438999634236,,,,,,,,,,,,,,,,,,,,,199.23189520009328,205.23978820000775,Rucksack,flach,"['Rucksack', 'flach']",restudy_diff,1,"['Eimer', 'Brille', 'Geige', 'Tasse', 'Hut', 'Ring', 'Tasche', 'Hammer', 'Schlüssel', 'Vase', 'Stift', 'Kerze', 'Bürste', 'Telefon', 'Löffel', 'Buch', 'Uhr', 'Flasche', 'Schere', 'Rucksack', 'Lampe', 'Socke']","['verspielt', 'teuer', 'durchsichtig', 'glatt', 'robust', 'dick', 'lang', 'bunt', 'hübsch', 'strahlend', 'biegsam', 'winzig', 'lustig', 'flauschig', 'matt', 'schmutzig', 'kurz', 'nachhaltig', 'krumm', 'flach']",2,3.5118438999634236,None,,,,,,,,,,,,,,,,,,,,,,,,,,,,,,,,,,,,,,,,,,,,,,,,,,,,,,,,,,,,,,,,,,,,,1,2023-11-21_13h51.07.912,watkins1,2023.2.3,99.71988681783283,4,2023-11-21 13h51.19.743321 +0000,
,,,,,,,20,0,20,0,,,,,,,,,,,,,,,,,205.24926489999052,,,,,,,,,,205.24028530006763,205.73118810006417,,,3,1.3246338999597356,,,,,,,,,,,,,,,,,,,,,205.7311986000277,211.74010290007573,Lampe,kaputt,"['Lampe', 'kaputt']",restudy_diff,1,"['Eimer', 'Brille', 'Geige', 'Tasse', 'Hut', 'Ring', 'Tasche', 'Hammer', 'Schlüssel', 'Vase', 'Stift', 'Kerze', 'Bürste', 'Telefon', 'Löffel', 'Buch', 'Uhr', 'Flasche', 'Schere', 'Rucksack', 'Lampe', 'Socke']","['verspielt', 'teuer', 'durchsichtig', 'glatt', 'robust', 'dick', 'lang', 'bunt', 'hübsch', 'strahlend', 'biegsam', 'winzig', 'lustig', 'flauschig', 'matt', 'schmutzig', 'kurz', 'nachhaltig', 'krumm', 'flach', 'kaputt']",3,1.3246338999597356,None,,,,,,,,,,,,,,,,,,,,,,,,,,,,,,,,,,,,,,,,,,,,,,,,,,,,,,,,,,,,,,,,,,,,,1,2023-11-21_13h51.07.912,watkins1,2023.2.3,99.71988681783283,4,2023-11-21 13h51.19.743321 +0000,
,,,,,,,21,0,21,0,,,,,,,,,,,,,,,,,211.7496145000914,,,,,,,,,,211.74056589999236,212.2316871000221,,,1,1.9122052000602707,,,,,,,,,,,,,,,,,,,,,212.2316976999864,218.2406570999883,Socke,kalt,"['Socke', 'kalt']",restudy_diff,1,"['Eimer', 'Brille', 'Geige', 'Tasse', 'Hut', 'Ring', 'Tasche', 'Hammer', 'Schlüssel', 'Vase', 'Stift', 'Kerze', 'Bürste', 'Telefon', 'Löffel', 'Buch', 'Uhr', 'Flasche', 'Schere', 'Rucksack', 'Lampe', 'Socke']","['verspielt', 'teuer', 'durchsichtig', 'glatt', 'robust', 'dick', 'lang', 'bunt', 'hübsch', 'strahlend', 'biegsam', 'winzig', 'lustig', 'flauschig', 'matt', 'schmutzig', 'kurz', 'nachhaltig', 'krumm', 'flach', 'kaputt', 'kalt']",1,1.9122052000602707,None,,,,,,,,,,,,,,,,,,,,,,,,,,,,,,,,,,,,,,,,,,,,,,,,,,,,,,,,,,,,,,,,,,,,,1,2023-11-21_13h51.07.912,watkins1,2023.2.3,99.71988681783283,4,2023-11-21 13h51.19.743321 +0000,
,,,,,,,,,,,0,0,0,0,,,,,,,,,,,,,218.25022889999673,,,,,,,,,,218.24147650005762,218.73279710009228,,,2,2.5890268000075594,,,,,,,,,,,,None,None,,,,,,,,,,Flasche,sauber,"['Flasche', 'sauber']",restudy_diff,1,,,,,,218.2414033000823,218.24145130009856,"['Flasche', 'Bürste', 'Schere', 'Vase', 'Jacke', 'Ring', 'Rucksack', 'Trommel', 'Socke', 'Uhr', 'Kamera', 'Schlüssel', 'Lampe', 'Kiste', 'Kette', 'Blume', 'Hut', 'Tasche', 'Fahrrad', 'Tasse', 'Brille', 'Hammer', 'Würfel']",218.7328084000619,218.73543070000596,None,218.7356063000625,218.7381493001012,None,218.7382981000701,224.74351520009805,2,2.5890268000075594,None,224.74391190009192,224.74531820008997,224.74533090007026,224.7465283999918,,,,,,,,,,,,,,,,,,,,,,,,,,,,,,,,,,,,,,,,,,,,,,,,,,,1,2023-11-21_13h51.07.912,watkins1,2023.2.3,99.71988681783283,4,2023-11-21 13h51.19.743321 +0000,
,,,,,,,,,,,1,0,1,0,,,,,,,,,,,,,224.7529363000067,,,,,,,,,,224.74679470004048,225.24505800008774,,,3,1.5653976000612602,,,,,,,,,,,,None,None,,,,,,,,,,Bürste,klobig,"['Bürste', 'klobig']",restudy_diff,1,,,,,,224.7467310000211,224.74676840007305,"['Flasche', 'Bürste', 'Schere', 'Vase', 'Jacke', 'Ring', 'Rucksack', 'Trommel', 'Socke', 'Uhr', 'Kamera', 'Schlüssel', 'Lampe', 'Kiste', 'Kette', 'Blume', 'Hut', 'Tasche', 'Fahrrad', 'Tasse', 'Brille', 'Hammer', 'Würfel']",225.24506930005737,225.2478270001011,None,225.2479429000523,225.25052700005472,None,225.25063220004085,231.2544690000359,3,1.5653976000612602,None,231.25474850006867,231.25611150008626,231.25612390006427,231.25733090005815,,,,,,,,,,,,,,,,,,,,,,,,,,,,,,,,,,,,,,,,,,,,,,,,,,,1,2023-11-21_13h51.07.912,watkins1,2023.2.3,99.71988681783283,4,2023-11-21 13h51.19.743321 +0000,
,,,,,,,,,,,2,0,2,0,,,,,,,,,,,,,231.26390180003364,,,,,,,,,,231.2576050000498,231.75612710008863,,,1,1.1423327999655157,,,,,,,,,,,,None,None,,,,,,,,,,Schere,nass,"['Schere', 'nass']",restudy_diff,1,,,,,,231.2575403000228,231.2575781000778,"['Flasche', 'Bürste', 'Schere', 'Vase', 'Jacke', 'Ring', 'Rucksack', 'Trommel', 'Socke', 'Uhr', 'Kamera', 'Schlüssel', 'Lampe', 'Kiste', 'Kette', 'Blume', 'Hut', 'Tasche', 'Fahrrad', 'Tasse', 'Brille', 'Hammer', 'Würfel']",231.75614070007578,231.75894940004218,None,231.759066300001,231.76165580004454,None,231.76175820000935,237.77221650001593,1,1.1423327999655157,None,237.77249260002282,237.77381440007593,237.7738274000585,237.77488360006828,,,,,,,,,,,,,,,,,,,,,,,,,,,,,,,,,,,,,,,,,,,,,,,,,,,1,2023-11-21_13h51.07.912,watkins1,2023.2.3,99.71988681783283,4,2023-11-21 13h51.19.743321 +0000,
,,,,,,,,,,,3,0,3,0,,,,,,,,,,,,,237.78167240007315,,,,,,,,,,237.77515300002415,238.27379310003016,,,3,2.2332711999770254,,,,,,,,,,,,None,None,,,,,,,,,,Vase,rustikal,"['Vase', 'rustikal']",restudy_diff,1,,,,,,237.77508660010062,237.7751265000552,"['Flasche', 'Bürste', 'Schere', 'Vase', 'Jacke', 'Ring', 'Rucksack', 'Trommel', 'Socke', 'Uhr', 'Kamera', 'Schlüssel', 'Lampe', 'Kiste', 'Kette', 'Blume', 'Hut', 'Tasche', 'Fahrrad', 'Tasse', 'Brille', 'Hammer', 'Würfel']",238.2738046000013,238.2762667000061,None,238.27638490009122,238.27874030009843,None,238.2788457000861,244.28000070003327,3,2.2332711999770254,None,244.28028270008508,244.28146830003243,244.28148040000815,244.34771650005132,,,,,,,,,,,,,,,,,,,,,,,,,,,,,,,,,,,,,,,,,,,,,,,,,,,1,2023-11-21_13h51.07.912,watkins1,2023.2.3,99.71988681783283,4,2023-11-21 13h51.19.743321 +0000,
,,,,,,,,,,,4,0,4,0,,,,,,,,,,,,,244.35136410000268,,,,,,,,,,244.34809470002074,244.842560900026,,,[],[],,,,,,,,,,,,None,None,,,,,,,,,,Jacke,groß,"['Jacke', 'groß']",control,1,,,,,,244.34799820010085,244.3480617000023,"['Flasche', 'Bürste', 'Schere', 'Vase', 'Jacke', 'Ring', 'Rucksack', 'Trommel', 'Socke', 'Uhr', 'Kamera', 'Schlüssel', 'Lampe', 'Kiste', 'Kette', 'Blume', 'Hut', 'Tasche', 'Fahrrad', 'Tasse', 'Brille', 'Hammer', 'Würfel']",244.8425722999964,250.84640050004236,3,250.8467549000634,250.8493591999868,None,250.84946470009163,250.8518686000025,None,,,250.8519721000921,250.85328090004623,250.85329320002347,250.85434800002258,0.867001400096342,None,,,,,,,,,,,,,,,,,,,,,,,,,,,,,,,,,,,,,,,,,,,,,,,,,1,2023-11-21_13h51.07.912,watkins1,2023.2.3,99.71988681783283,4,2023-11-21 13h51.19.743321 +0000,
,,,,,,,,,,,5,0,5,0,,,,,,,,,,,,,250.85799510008655,,,,,,,,,,250.85461480007507,251.3510927000316,,,1,1.877864500042051,,,,,,,,,,,,None,None,,,,,,,,,,Ring,gepunktet,"['Ring', 'gepunktet']",restudy_diff,1,,,,,,250.85455060005188,250.85458919999655,"['Flasche', 'Bürste', 'Schere', 'Vase', 'Jacke', 'Ring', 'Rucksack', 'Trommel', 'Socke', 'Uhr', 'Kamera', 'Schlüssel', 'Lampe', 'Kiste', 'Kette', 'Blume', 'Hut', 'Tasche', 'Fahrrad', 'Tasse', 'Brille', 'Hammer', 'Würfel']",251.35110410000198,251.3525630000513,None,251.35267990001012,251.3540204000892,None,251.35412330005784,257.3632213000674,1,1.877864500042051,None,257.36350289999973,257.364663299988,257.3646771000931,257.36593440000433,,,,,,,,,,,,,,,,,,,,,,,,,,,,,,,,,,,,,,,,,,,,,,,,,,,1,2023-11-21_13h51.07.912,watkins1,2023.2.3,99.71988681783283,4,2023-11-21 13h51.19.743321 +0000,
,,,,,,,,,,,6,0,6,0,,,,,,,,,,,,,257.37268870009575,,,,,,,,,,257.3662046000827,257.864732200047,,,3,1.3533982000080869,,,,,,,,,,,,None,None,,,,,,,,,,Rucksack,praktisch,"['Rucksack', 'praktisch']",restudy_diff,1,,,,,,257.36614030005876,257.36617860000115,"['Flasche', 'Bürste', 'Schere', 'Vase', 'Jacke', 'Ring', 'Rucksack', 'Trommel', 'Socke', 'Uhr', 'Kamera', 'Schlüssel', 'Lampe', 'Kiste', 'Kette', 'Blume', 'Hut', 'Tasche', 'Fahrrad', 'Tasse', 'Brille', 'Hammer', 'Würfel']",257.8647430000128,257.86758710001595,None,257.86770410009194,257.8703722000355,None,257.8704762000125,263.8778525000671,3,1.3533982000080869,None,263.87813379999716,263.879559300025,263.87957180000376,263.8808504000772,,,,,,,,,,,,,,,,,,,,,,,,,,,,,,,,,,,,,,,,,,,,,,,,,,,1,2023-11-21_13h51.07.912,watkins1,2023.2.3,99.71988681783283,4,2023-11-21 13h51.19.743321 +0000,
,,,,,,,,,,,7,0,7,0,,,,,,,,,,,,,263.88741690001916,,,,,,,,,,263.88111850002315,264.3794685000321,,,[],[],,,,,,,,,,,,None,None,,,,,,,,,,Trommel,hohl,"['Trommel', 'hohl']",control,1,,,,,,263.88105480000377,263.88109310006257,"['Flasche', 'Bürste', 'Schere', 'Vase', 'Jacke', 'Ring', 'Rucksack', 'Trommel', 'Socke', 'Uhr', 'Kamera', 'Schlüssel', 'Lampe', 'Kiste', 'Kette', 'Blume', 'Hut', 'Tasche', 'Fahrrad', 'Tasse', 'Brille', 'Hammer', 'Würfel']",264.3794799000025,270.3819839000935,3,270.38226470001973,270.3848927000072,None,270.3849979999941,270.3875654999865,None,,,270.3876681000693,270.3890177999856,270.38902980007697,270.39007870003115,1.516259399941191,None,,,,,,,,,,,,,,,,,,,,,,,,,,,,,,,,,,,,,,,,,,,,,,,,,1,2023-11-21_13h51.07.912,watkins1,2023.2.3,99.71988681783283,4,2023-11-21 13h51.19.743321 +0000,
,,,,,,,,,,,8,0,8,0,,,,,,,,,,,,,270.39367140003014,,,,,,,,,,270.39034630008973,270.8868794000009,,,3,1.2774636000394821,,,,,,,,,,,,None,None,,,,,,,,,,Socke,dunkel,"['Socke', 'dunkel']",restudy_diff,1,,,,,,270.39028310007416,270.3903223000234,"['Flasche', 'Bürste', 'Schere', 'Vase', 'Jacke', 'Ring', 'Rucksack', 'Trommel', 'Socke', 'Uhr', 'Kamera', 'Schlüssel', 'Lampe', 'Kiste', 'Kette', 'Blume', 'Hut', 'Tasche', 'Fahrrad', 'Tasse', 'Brille', 'Hammer', 'Würfel']",270.88689020008314,270.88845339999534,None,270.88856850005686,270.8904038000619,None,270.89050850004423,276.8929849000415,3,1.2774636000394821,None,276.89327550004236,276.8945706000086,276.8945832999889,276.8957946000155,,,,,,,,,,,,,,,,,,,,,,,,,,,,,,,,,,,,,,,,,,,,,,,,,,,1,2023-11-21_13h51.07.912,watkins1,2023.2.3,99.71988681783283,4,2023-11-21 13h51.19.743321 +0000,
,,,,,,,,,,,9,0,9,0,,,,,,,,,,,,,276.90245819999836,,,,,,,,,,276.8960637000855,277.3946521000471,,,2,1.927117899991572,,,,,,,,,,,,None,None,,,,,,,,,,Uhr,hässlich,"['Uhr', 'hässlich']",restudy_diff,1,,,,,,276.8959993000608,276.8960378000047,"['Flasche', 'Bürste', 'Schere', 'Vase', 'Jacke', 'Ring', 'Rucksack', 'Trommel', 'Socke', 'Uhr', 'Kamera', 'Schlüssel', 'Lampe', 'Kiste', 'Kette', 'Blume', 'Hut', 'Tasche', 'Fahrrad', 'Tasse', 'Brille', 'Hammer', 'Würfel']",277.3946634000167,277.39726690005045,None,277.39738380000927,277.3998171000276,None,277.39992120000534,283.4075209000148,2,1.927117899991572,None,283.40779760002624,283.4089169000508,283.40892920002807,283.41014960000757,,,,,,,,,,,,,,,,,,,,,,,,,,,,,,,,,,,,,,,,,,,,,,,,,,,1,2023-11-21_13h51.07.912,watkins1,2023.2.3,99.71988681783283,4,2023-11-21 13h51.19.743321 +0000,
,,,,,,,,,,,10,0,10,0,,,,,,,,,,,,,283.41724370000884,,,,,,,,,,283.4104152000509,283.90926690003835,,,[],[],,,,,,,,,,,,None,None,,,,,,,,,,Kamera,neu,"['Kamera', 'neu']",control,1,,,,,,283.4103527000407,283.4103899000911,"['Flasche', 'Bürste', 'Schere', 'Vase', 'Jacke', 'Ring', 'Rucksack', 'Trommel', 'Socke', 'Uhr', 'Kamera', 'Schlüssel', 'Lampe', 'Kiste', 'Kette', 'Blume', 'Hut', 'Tasche', 'Fahrrad', 'Tasse', 'Brille', 'Hammer', 'Würfel']",283.9092776000034,289.9193739000475,3,289.91965140006505,289.9222823000746,None,289.92238640005235,289.9247764000902,None,,,289.9248799000634,289.926070000045,289.9260817000177,289.9270917000249,1.0667916999664158,None,,,,,,,,,,,,,,,,,,,,,,,,,,,,,,,,,,,,,,,,,,,,,,,,,1,2023-11-21_13h51.07.912,watkins1,2023.2.3,99.71988681783283,4,2023-11-21 13h51.19.743321 +0000,
,,,,,,,,,,,11,0,11,0,,,,,,,,,,,,,289.93074740003794,,,,,,,,,,289.9273598000873,290.423518500058,,,3,1.052794300019741,,,,,,,,,,,,None,None,,,,,,,,,,Schlüssel,elegant,"['Schlüssel', 'elegant']",restudy_diff,1,,,,,,289.9272974000778,289.9273359000217,"['Flasche', 'Bürste', 'Schere', 'Vase', 'Jacke', 'Ring', 'Rucksack', 'Trommel', 'Socke', 'Uhr', 'Kamera', 'Schlüssel', 'Lampe', 'Kiste', 'Kette', 'Blume', 'Hut', 'Tasche', 'Fahrrad', 'Tasse', 'Brille', 'Hammer', 'Würfel']",290.4235296000261,290.4251979000401,None,290.42531540000346,290.42684289999306,None,290.42694720008876,296.4293682000134,3,1.052794300019741,None,296.4296493000584,296.4310402000556,296.4310526000336,296.4322756000329,,,,,,,,,,,,,,,,,,,,,,,,,,,,,,,,,,,,,,,,,,,,,,,,,,,1,2023-11-21_13h51.07.912,watkins1,2023.2.3,99.71988681783283,4,2023-11-21 13h51.19.743321 +0000,
,,,,,,,,,,,12,0,12,0,,,,,,,,,,,,,296.4388979000505,,,,,,,,,,296.4325453999918,296.9310399000533,,,2,3.4795461000176147,,,,,,,,,,,,None,None,,,,,,,,,,Lampe,zart,"['Lampe', 'zart']",restudy_diff,1,,,,,,296.4324813000858,296.4325195000274,"['Flasche', 'Bürste', 'Schere', 'Vase', 'Jacke', 'Ring', 'Rucksack', 'Trommel', 'Socke', 'Uhr', 'Kamera', 'Schlüssel', 'Lampe', 'Kiste', 'Kette', 'Blume', 'Hut', 'Tasche', 'Fahrrad', 'Tasse', 'Brille', 'Hammer', 'Würfel']",296.9310507000191,296.93375230010133,None,296.9338677000487,296.93642490007915,None,296.9365285000531,302.94109080010094,2,3.4795461000176147,None,302.9413890000433,302.94275930000003,302.94277269998565,302.94382260006387,,,,,,,,,,,,,,,,,,,,,,,,,,,,,,,,,,,,,,,,,,,,,,,,,,,1,2023-11-21_13h51.07.912,watkins1,2023.2.3,99.71988681783283,4,2023-11-21 13h51.19.743321 +0000,
,,,,,,,,,,,13,0,13,0,,,,,,,,,,,,,302.9506229000399,,,,,,,,,,302.9440980000654,303.44282290001865,,,[],[],,,,,,,,,,,,None,None,,,,,,,,,,Kiste,niedlich,"['Kiste', 'niedlich']",control,1,,,,,,302.9440323000308,302.94407020008657,"['Flasche', 'Bürste', 'Schere', 'Vase', 'Jacke', 'Ring', 'Rucksack', 'Trommel', 'Socke', 'Uhr', 'Kamera', 'Schlüssel', 'Lampe', 'Kiste', 'Kette', 'Blume', 'Hut', 'Tasche', 'Fahrrad', 'Tasse', 'Brille', 'Hammer', 'Würfel']",303.4428343999898,309.44492430007085,1,309.4452043999918,309.44790690008085,None,309.4480113000609,309.4505835000891,None,,,309.4506865000585,309.45183999999426,309.45185220008716,309.45319400005974,1.3009969999548048,None,,,,,,,,,,,,,,,,,,,,,,,,,,,,,,,,,,,,,,,,,,,,,,,,,1,2023-11-21_13h51.07.912,watkins1,2023.2.3,99.71988681783283,4,2023-11-21 13h51.19.743321 +0000,
,,,,,,,,,,,14,0,14,0,,,,,,,,,,,,,309.45681120001245,,,,,,,,,,309.45345710008405,309.95026670000516,,,[],[],,,,,,,,,,,,None,None,,,,,,,,,,Kette,blass,"['Kette', 'blass']",control,1,,,,,,309.4533952000784,309.45343330001924,"['Flasche', 'Bürste', 'Schere', 'Vase', 'Jacke', 'Ring', 'Rucksack', 'Trommel', 'Socke', 'Uhr', 'Kamera', 'Schlüssel', 'Lampe', 'Kiste', 'Kette', 'Blume', 'Hut', 'Tasche', 'Fahrrad', 'Tasse', 'Brille', 'Hammer', 'Würfel']",309.95027740008663,315.9513132000575,1,315.9515877000522,315.9542130000191,None,315.9543160999892,315.95682110008784,None,,,315.95692300004885,315.958067700034,315.9580799000105,315.9593445000937,1.3376595000736415,None,,,,,,,,,,,,,,,,,,,,,,,,,,,,,,,,,,,,,,,,,,,,,,,,,1,2023-11-21_13h51.07.912,watkins1,2023.2.3,99.71988681783283,4,2023-11-21 13h51.19.743321 +0000,
,,,,,,,,,,,15,0,15,0,,,,,,,,,,,,,315.9629400999984,,,,,,,,,,315.9596067999955,316.45642699999735,,,[],[],,,,,,,,,,,,None,None,,,,,,,,,,Blume,sportlich,"['Blume', 'sportlich']",control,1,,,,,,315.9595454999944,315.9595834000502,"['Flasche', 'Bürste', 'Schere', 'Vase', 'Jacke', 'Ring', 'Rucksack', 'Trommel', 'Socke', 'Uhr', 'Kamera', 'Schlüssel', 'Lampe', 'Kiste', 'Kette', 'Blume', 'Hut', 'Tasche', 'Fahrrad', 'Tasse', 'Brille', 'Hammer', 'Würfel']",316.45643790008035,322.46661590004805,1,322.4668879000237,322.4695889999857,None,322.46969040005933,322.4723072000779,None,,,322.47240850003436,322.4735564000439,322.4735685000196,322.47509930003434,1.4312952999025583,None,,,,,,,,,,,,,,,,,,,,,,,,,,,,,,,,,,,,,,,,,,,,,,,,,1,2023-11-21_13h51.07.912,watkins1,2023.2.3,99.71988681783283,4,2023-11-21 13h51.19.743321 +0000,
,,,,,,,,,,,16,0,16,0,,,,,,,,,,,,,322.47872950008605,,,,,,,,,,322.47536370006856,322.97245930007193,,,2,1.8404736999655142,,,,,,,,,,,,None,None,,,,,,,,,,Hut,schwer,"['Hut', 'schwer']",restudy_diff,1,,,,,,322.4753013000591,322.4753400000045,"['Flasche', 'Bürste', 'Schere', 'Vase', 'Jacke', 'Ring', 'Rucksack', 'Trommel', 'Socke', 'Uhr', 'Kamera', 'Schlüssel', 'Lampe', 'Kiste', 'Kette', 'Blume', 'Hut', 'Tasche', 'Fahrrad', 'Tasse', 'Brille', 'Hammer', 'Würfel']",322.9724697000347,322.97387660003733,None,322.9739903000882,322.9752955000149,None,322.97539480007254,328.98248280002736,2,1.8404736999655142,None,328.9827574000228,328.98388120008167,328.98389370006043,328.98508220002986,,,,,,,,,,,,,,,,,,,,,,,,,,,,,,,,,,,,,,,,,,,,,,,,,,,1,2023-11-21_13h51.07.912,watkins1,2023.2.3,99.71988681783283,4,2023-11-21 13h51.19.743321 +0000,
,,,,,,,,,,,17,0,17,0,,,,,,,,,,,,,328.99199800007045,,,,,,,,,,328.98534720006865,329.48437359998934,,,3,1.7018879000097513,,,,,,,,,,,,None,None,,,,,,,,,,Tasche,schlicht,"['Tasche', 'schlicht']",restudy_diff,1,,,,,,328.9852847000584,328.9853219999932,"['Flasche', 'Bürste', 'Schere', 'Vase', 'Jacke', 'Ring', 'Rucksack', 'Trommel', 'Socke', 'Uhr', 'Kamera', 'Schlüssel', 'Lampe', 'Kiste', 'Kette', 'Blume', 'Hut', 'Tasche', 'Fahrrad', 'Tasse', 'Brille', 'Hammer', 'Würfel']",329.48438450007234,329.4871560999891,None,329.487270200043,329.4898212000262,None,329.48992040008307,335.50025879999157,3,1.7018879000097513,None,335.50053650001064,335.50185500003863,335.5018675000174,335.50309630006086,,,,,,,,,,,,,,,,,,,,,,,,,,,,,,,,,,,,,,,,,,,,,,,,,,,1,2023-11-21_13h51.07.912,watkins1,2023.2.3,99.71988681783283,4,2023-11-21 13h51.19.743321 +0000,
,,,,,,,,,,,18,0,18,0,,,,,,,,,,,,,335.5098342000274,,,,,,,,,,335.50336620002054,336.001849399996,,,[],[],,,,,,,,,,,,None,None,,,,,,,,,,Fahrrad,breit,"['Fahrrad', 'breit']",control,1,,,,,,335.50330149999354,335.5033402000554,"['Flasche', 'Bürste', 'Schere', 'Vase', 'Jacke', 'Ring', 'Rucksack', 'Trommel', 'Socke', 'Uhr', 'Kamera', 'Schlüssel', 'Lampe', 'Kiste', 'Kette', 'Blume', 'Hut', 'Tasche', 'Fahrrad', 'Tasse', 'Brille', 'Hammer', 'Würfel']",336.0018610000843,342.011898900033,1,342.0121786000673,342.01487479999196,None,342.0149788000854,342.0174943000311,None,,,342.0175966999959,342.0188060000073,342.01881790009793,342.0199553000275,1.8378337000031024,None,,,,,,,,,,,,,,,,,,,,,,,,,,,,,,,,,,,,,,,,,,,,,,,,,1,2023-11-21_13h51.07.912,watkins1,2023.2.3,99.71988681783283,4,2023-11-21 13h51.19.743321 +0000,
,,,,,,,,,,,19,0,19,0,,,,,,,,,,,,,342.02356620004866,,,,,,,,,,342.02021880005486,342.5172625000123,,,3,1.543255600030534,,,,,,,,,,,,None,None,,,,,,,,,,Tasse,kratzig,"['Tasse', 'kratzig']",restudy_diff,1,,,,,,342.0201584000606,342.0201956999954,"['Flasche', 'Bürste', 'Schere', 'Vase', 'Jacke', 'Ring', 'Rucksack', 'Trommel', 'Socke', 'Uhr', 'Kamera', 'Schlüssel', 'Lampe', 'Kiste', 'Kette', 'Blume', 'Hut', 'Tasche', 'Fahrrad', 'Tasse', 'Brille', 'Hammer', 'Würfel']",342.5172755999956,342.5189905000152,None,342.519105900079,342.52053060010076,None,342.52063120005187,348.5262819000054,3,1.543255600030534,None,348.5265658000717,348.5279037000146,348.52791639999487,348.5291397999972,,,,,,,,,,,,,,,,,,,,,,,,,,,,,,,,,,,,,,,,,,,,,,,,,,,1,2023-11-21_13h51.07.912,watkins1,2023.2.3,99.71988681783283,4,2023-11-21 13h51.19.743321 +0000,
,,,,,,,,,,,20,0,20,0,,,,,,,,,,,,,348.53579670004547,,,,,,,,,,348.5294120000908,349.0280162000563,,,1,1.3821049999678507,,,,,,,,,,,,None,None,,,,,,,,,,Brille,gestreift,"['Brille', 'gestreift']",restudy_diff,1,,,,,,348.5293473000638,348.52938600000925,"['Flasche', 'Bürste', 'Schere', 'Vase', 'Jacke', 'Ring', 'Rucksack', 'Trommel', 'Socke', 'Uhr', 'Kamera', 'Schlüssel', 'Lampe', 'Kiste', 'Kette', 'Blume', 'Hut', 'Tasche', 'Fahrrad', 'Tasse', 'Brille', 'Hammer', 'Würfel']",349.0280278000282,349.0307494000299,None,349.0308672999963,349.03356830007397,None,349.03367130004335,355.03862180002034,1,1.3821049999678507,None,355.0389075001003,355.0402291000355,355.04024140001275,355.0414923999924,,,,,,,,,,,,,,,,,,,,,,,,,,,,,,,,,,,,,,,,,,,,,,,,,,,1,2023-11-21_13h51.07.912,watkins1,2023.2.3,99.71988681783283,4,2023-11-21 13h51.19.743321 +0000,
,,,,,,,,,,,21,0,21,0,,,,,,,,,,,,,355.0480846000137,,,,,,,,,,355.0417634000769,355.54004450002685,,,3,1.4700275999493897,,,,,,,,,,,,None,None,,,,,,,,,,Hammer,glänzend,"['Hammer', 'glänzend']",restudy_diff,1,,,,,,355.04169880005065,355.04173679999076,"['Flasche', 'Bürste', 'Schere', 'Vase', 'Jacke', 'Ring', 'Rucksack', 'Trommel', 'Socke', 'Uhr', 'Kamera', 'Schlüssel', 'Lampe', 'Kiste', 'Kette', 'Blume', 'Hut', 'Tasche', 'Fahrrad', 'Tasse', 'Brille', 'Hammer', 'Würfel']",355.5400549999904,355.54280230007134,None,355.542918000021,355.54554010007996,None,355.5456430000486,361.5552709000185,3,1.4700275999493897,None,361.5555630000308,361.5569218000164,361.55693439999595,361.5581689000828,,,,,,,,,,,,,,,,,,,,,,,,,,,,,,,,,,,,,,,,,,,,,,,,,,,1,2023-11-21_13h51.07.912,watkins1,2023.2.3,99.71988681783283,4,2023-11-21 13h51.19.743321 +0000,
,,,,,,,,,,,22,0,22,0,,,,,,,,,,,,,361.5647109000711,,,,,,,,,,361.5584388000425,362.05675950006116,,,[],[],,,,,,,,,,,,None,None,,,,,,,,,,Würfel,gut,"['Würfel', 'gut']",control,1,,,,,,361.5583736000117,361.55841310007963,"['Flasche', 'Bürste', 'Schere', 'Vase', 'Jacke', 'Ring', 'Rucksack', 'Trommel', 'Socke', 'Uhr', 'Kamera', 'Schlüssel', 'Lampe', 'Kiste', 'Kette', 'Blume', 'Hut', 'Tasche', 'Fahrrad', 'Tasse', 'Brille', 'Hammer', 'Würfel']",362.05677070003003,368.0596325000515,3,368.05991390009876,368.06253009999637,None,368.0626356001012,368.0650343000889,None,,,368.0651380000636,368.06632830004673,368.06634090002626,368.06735850009136,1.022480999934487,None,,,,,,,,,,,,,,,,,,,,,,,,,,,,,,,,,,,,,,,,,,,,,,,,,1,2023-11-21_13h51.07.912,watkins1,2023.2.3,99.71988681783283,4,2023-11-21 13h51.19.743321 +0000,
,,,,,,,,,,,,,,,,,,,,,,,,,,,,,,,,,,,,,,,,,,,,,,,,,,,,,,,,,,,,,,,,,,,,,1,,,,,,,,,,,,,,,,,,,,,,,,,,,,,,,,,,,,,,,,,,,,,,,,,,,,,,,,,,,,,,,,,,,,,,,,,,1,2023-11-21_13h51.07.912,watkins1,2023.2.3,99.71988681783283,4,2023-11-21 13h51.19.743321 +0000,
(80 : 10) + 9 = 17 ,Correct,button_correct,,,,,,,,,,,,,0,0,0,3,,,,,,,,,393.7755510000279,,,,,,,,392.7286176000489,393.7323438000167,,,,,['button_correct'],[3.4503295000176877],,,,,,,,,,,,,,,,,,,,,,,,,,distractorTask,1,,,,,,,,,,,,,,,,,,,,,,,,,,393.75635859998874,393.7755510000279,397.2121069000568,[0.3509259259259259],[-0.40370370370370373],[1],[0],[0],[3.4503295000176877],['button_correct'],397.2127972000744,398.21598169999197,,,,,,,,,,,,,,,,,,,,,,,,,,,,,,,,,,,,,1,2023-11-21_13h51.07.912,watkins1,2023.2.3,99.71988681783283,4,2023-11-21 13h51.19.743321 +0000,
(4 : 2) + 4 = 6 ,Correct,button_correct,,,,,,,,,,,,,0,1,1,1,,,,,,,,,398.22588760009967,,,,,,,,,,,,,,['button_correct'],[2.1264432999305427],,,,,,,,,,,,,,,,,,,,,,,,,,distractorTask,1,,,,,,,,,,,,,,,,,,,,,,,,,,398.21618069999386,398.22588760009967,400.3452087000478,[0.3574074074074074],[-0.4148148148148148],[1],[0],[0],[2.1264432999305427],['button_correct'],400.345606100047,401.34909030003473,,,,,,,,,,,,,,,,,,,,,,,,,,,,,,,,,,,,,1,2023-11-21_13h51.07.912,watkins1,2023.2.3,99.71988681783283,4,2023-11-21 13h51.19.743321 +0000,
(2 x 5) + 3 = 13 ,Correct,button_correct,,,,,,,,,,,,,0,2,2,2,,,,,,,,,401.359054200002,,,,,,,,,,,,,,['button_correct'],[1.713999699917622],,,,,,,,,,,,,,,,,,,,,,,,,,distractorTask,1,,,,,,,,,,,,,,,,,,,,,,,,,,401.34929849999025,401.359054200002,403.06666200002655,[0.3138888888888889],[-0.38425925925925924],[1],[0],[0],[1.713999699917622],['button_correct'],403.06705790001433,404.07027440005913,,,,,,,,,,,,,,,,,,,,,,,,,,,,,,,,,,,,,1,2023-11-21_13h51.07.912,watkins1,2023.2.3,99.71988681783283,4,2023-11-21 13h51.19.743321 +0000,
(7 x 6) + 9 = 48 ,Incorrect,button_incorrect,,,,,,,,,,,,,0,3,3,9,,,,,,,,,404.08036310004536,,,,,,,,,,,,,,['button_incorrect'],[3.3124853000044823],,,,,,,,,,,,,,,,,,,,,,,,,,distractorTask,1,,,,,,,,,,,,,,,,,,,,,,,,,,404.0704693000298,404.08036310004536,407.3846699000569,[-0.375],[-0.38425925925925924],[1],[0],[0],[3.3124853000044823],['button_incorrect'],407.3850578001002,408.3883747000946,,,,,,,,,,,,,,,,,,,,,,,,,,,,,,,,,,,,,1,2023-11-21_13h51.07.912,watkins1,2023.2.3,99.71988681783283,4,2023-11-21 13h51.19.743321 +0000,
(54 : 6) - 10 = 0 ,Incorrect,button_incorrect,,,,,,,,,,,,,0,4,4,5,,,,,,,,,408.3984714000253,,,,,,,,,,,,,,['button_incorrect'],[2.980322999996133],,,,,,,,,,,,,,,,,,,,,,,,,,distractorTask,1,,,,,,,,,,,,,,,,,,,,,,,,,,408.3885684000561,408.3984714000253,411.3712814000901,[-0.2953703703703704],[-0.39537037037037037],[1],[0],[0],[2.980322999996133],['button_incorrect'],411.37170630006585,412.3749693999998,,,,,,,,,,,,,,,,,,,,,,,,,,,,,,,,,,,,,1,2023-11-21_13h51.07.912,watkins1,2023.2.3,99.71988681783283,4,2023-11-21 13h51.19.743321 +0000,
(6 x 3) + 10 = 27 ,Incorrect,button_incorrect,,,,,,,,,,,,,0,5,5,8,,,,,,,,,412.3849152000621,,,,,,,,,,,,,,['button_incorrect'],[2.0268863999517635],,,,,,,,,,,,,,,,,,,,,,,,,,distractorTask,1,,,,,,,,,,,,,,,,,,,,,,,,,,412.37516310007777,412.3849152000621,414.40378270007204,[-0.2759259259259259],[-0.3824074074074074],[1],[0],[0],[2.0268863999517635],['button_incorrect'],414.40417830005754,415.4076924000401,,,,,,,,,,,,,,,,,,,,,,,,,,,,,,,,,,,,,1,2023-11-21_13h51.07.912,watkins1,2023.2.3,99.71988681783283,4,2023-11-21 13h51.19.743321 +0000,
(28 : 7) - 3 = 1 ,Correct,button_correct,,,,,,,,,,,,,0,6,6,0,,,,,,,,,415.4176746000303,,,,,,,,,,,,,,['button_correct'],[2.2681041999021545],,,,,,,,,,,,,,,,,,,,,,,,,,distractorTask,1,,,,,,,,,,,,,,,,,,,,,,,,,,415.4078826000914,415.4176746000303,417.67769000004046,[0.4027777777777778],[-0.3824074074074074],[1],[0],[0],[2.2681041999021545],['button_correct'],417.6780728000449,418.68131370004267,,,,,,,,,,,,,,,,,,,,,,,,,,,,,,,,,,,,,1,2023-11-21_13h51.07.912,watkins1,2023.2.3,99.71988681783283,4,2023-11-21 13h51.19.743321 +0000,
(9 x 5) - 9 = 36 ,Correct,button_correct,,,,,,,,,,,,,0,7,7,4,,,,,,,,,418.6912414000835,,,,,,,,,,,,,,['button_correct'],[2.3783249999396503],,,,,,,,,,,,,,,,,,,,,,,,,,distractorTask,1,,,,,,,,,,,,,,,,,,,,,,,,,,418.68151010002475,418.6912414000835,421.06155630003195,[0.4],[-0.4064814814814815],[1],[0],[0],[2.3783249999396503],['button_correct'],421.061944300076,422.06530290003866,,,,,,,,,,,,,,,,,,,,,,,,,,,,,,,,,,,,,1,2023-11-21_13h51.07.912,watkins1,2023.2.3,99.71988681783283,4,2023-11-21 13h51.19.743321 +0000,
(40 : 5) + 8 = 15 ,Incorrect,button_incorrect,,,,,,,,,,,,,0,8,8,7,,,,,,,,,422.0753423999995,,,,,,,,,,,,,,['button_incorrect'],[2.2883204000536352],,,,,,,,,,,,,,,,,,,,,,,,,,distractorTask,1,,,,,,,,,,,,,,,,,,,,,,,,,,422.06549639999866,422.0753423999995,424.3555330000818,[-0.3861111111111111],[-0.4064814814814815],[1],[0],[0],[2.2883204000536352],['button_incorrect'],424.35592550004367,425.35949850000907,,,,,,,,,,,,,,,,,,,,,,,,,,,,,,,,,,,,,1,2023-11-21_13h51.07.912,watkins1,2023.2.3,99.71988681783283,4,2023-11-21 13h51.19.743321 +0000,
(25 : 5) + 5 = 9 ,Incorrect,button_incorrect,,,,,,,,,,,,,0,9,9,6,,,,,,,,,425.36947760009207,,,,,,,,,,,,,,['button_incorrect'],[1.4744205999886617],,,,,,,,,,,,,,,,,,,,,,,,,,distractorTask,1,,,,,,,,,,,,,,,,,,,,,,,,,,425.35968930006493,425.36947760009207,426.8358218000503,[-0.30648148148148147],[-0.38796296296296295],[1],[0],[0],[1.4744205999886617],['button_incorrect'],426.8362170000328,427.83969330007676,,,,,,,,,,,,,,,,,,,,,,,,,,,,,,,,,,,,,1,2023-11-21_13h51.07.912,watkins1,2023.2.3,99.71988681783283,4,2023-11-21 13h51.19.743321 +0000,
,,,,,,,,,,,,,,,,,,,,,,,,,,,,,,,,,,,,,,,,,,,,,,,,,,,,,,,,,,,,,,,,,,,,,1,,,,,,,,,,,,,,,,,,,,,,,,,,,,,,,,,,,,,,,,,,,,,,,,,,,,,,,,,,,,,,,,,,,,,,,,,,1,2023-11-21_13h51.07.912,watkins1,2023.2.3,99.71988681783283,4,2023-11-21 13h51.19.743321 +0000,
,,,,,,,,,,,,,,,,,,,0,0,0,0,,,,,441.08223530009855,,,,,,,,,,,,,,Hut,11.145839000004344,,,,,,,,,,,,9.046852800063789,None,,,,,,,,,,,,,freeRecallSub,1,,,,,,,,,,,,,,,,,,,,,,,,,,,,,,,,,,,,,,441.0735171000706,441.08223530009855,441.08223530009855,452.2287498000078,return,11.145839000004344,None,Hut,"[-0.09722222222222222, -0.01574074074074074, -0.01574074074074074, -0.012037037037037037]","[0.03796296296296296, 0.019444444444444445, 0.019444444444444445, 0.037037037037037035]","[1, 1, 1, 1]","[0, 0, 0, 0]","[0, 0, 0, 0]","[1.2842435000929981, 4.166234700009227, 4.3268260000040755, 4.969315700000152]",[],,,,,,,,,,,,,,,,,,,,,,1,2023-11-21_13h51.07.912,watkins1,2023.2.3,99.71988681783283,4,2023-11-21 13h51.19.743321 +0000,
,,,,,,,,,,,,,,,,,,,1,0,1,0,,,,,452.24039310007356,,,,,,,,,,,,,,Brille,5.0916407000040635,,,,,,,,,,,,3.2546509000239894,None,,,,,,,,,,,,,freeRecallSub,1,,,,,,,,,,,,,,,,,,,,,,,,,,,,,,,,,,,,,,452.230580600095,452.24039310007356,452.24039310007356,457.33307150006294,return,5.0916407000040635,None,Brille,[],[],[],[],[],[],[],,,,,,,,,,,,,,,,,,,,,,1,2023-11-21_13h51.07.912,watkins1,2023.2.3,99.71988681783283,4,2023-11-21 13h51.19.743321 +0000,
,,,,,,,,,,,,,,,,,,,2,0,2,0,,,,,457.3437026999891,,,,,,,,,,,,,,Würfel,10.140300699975342,,,,,,,,,,,,7.782073400099762,None,,,,,,,,,,,,,freeRecallSub,1,,,,,,,,,,,,,,,,,,,,,,,,,,,,,,,,,,,,,,457.33433149999473,457.3437026999891,457.3437026999891,467.4863993000472,return,10.140300699975342,None,Würfel,[],[],[],[],[],[],[],,,,,,,,,,,,,,,,,,,,,,1,2023-11-21_13h51.07.912,watkins1,2023.2.3,99.71988681783283,4,2023-11-21 13h51.19.743321 +0000,
,,,,,,,,,,,,,,,,,,,3,0,3,0,,,,,467.49692569999024,,,,,,,,,,,,,,Tasche,5.67508109996561,,,,,,,,,,,,3.7952773000579327,None,,,,,,,,,,,,,freeRecallSub,1,,,,,,,,,,,,,,,,,,,,,,,,,,,,,,,,,,,,,,467.4876640000148,467.49692569999024,467.49692569999024,473.18080530001316,return,5.67508109996561,None,Tasche,[],[],[],[],[],[],[],,,,,,,,,,,,,,,,,,,,,,1,2023-11-21_13h51.07.912,watkins1,2023.2.3,99.71988681783283,4,2023-11-21 13h51.19.743321 +0000,
,,,,,,,,,,,,,,,,,,,4,0,4,0,,,,,473.1918976000743,,,,,,,,,,,,,,Uhr,6.308101800037548,,,,,,,,,,,,5.262098300037906,None,,,,,,,,,,,,,freeRecallSub,1,,,,,,,,,,,,,,,,,,,,,,,,,,,,,,,,,,,,,,473.1820839000866,473.1918976000743,473.1918976000743,479.50851660000626,return,6.308101800037548,None,Uhr,[],[],[],[],[],[],[],,,,,,,,,,,,,,,,,,,,,,1,2023-11-21_13h51.07.912,watkins1,2023.2.3,99.71988681783283,4,2023-11-21 13h51.19.743321 +0000,
,,,,,,,,,,,,,,,,,,,5,0,5,0,,,,,479.5193339000689,,,,,,,,,,,,,,Schlüssel,8.244606800028123,,,,,,,,,,,,4.297524799942039,None,,,,,,,,,,,,,freeRecallSub,1,,,,,,,,,,,,,,,,,,,,,,,,,,,,,,,,,,,,,,479.5098065000493,479.5193339000689,479.5193339000689,487.77375739999115,return,8.244606800028123,None,Schlüssel,[],[],[],[],[],[],[],,,,,,,,,,,,,,,,,,,,,,1,2023-11-21_13h51.07.912,watkins1,2023.2.3,99.71988681783283,4,2023-11-21 13h51.19.743321 +0000,
,,,,,,,,,,,,,,,,,,,6,0,6,0,,,,,487.7848921000259,,,,,,,,,,,,,,Socke,6.371081400080584,,,,,,,,,,,,4.438775599934161,None,,,,,,,,,,,,,freeRecallSub,1,,,,,,,,,,,,,,,,,,,,,,,,,,,,,,,,,,,,,,487.7750243000919,487.7848921000259,487.7848921000259,494.16207560000475,return,6.371081400080584,None,Socke,[],[],[],[],[],[],[],,,,,,,,,,,,,,,,,,,,,,1,2023-11-21_13h51.07.912,watkins1,2023.2.3,99.71988681783283,4,2023-11-21 13h51.19.743321 +0000,
,,,,,,,,,,,,,,,,,,,7,0,7,0,,,,,494.173706300091,,,,,,,,,,,,,,Kiste,7.974346100003459,,,,,,,,,,,,6.870004100026563,None,,,,,,,,,,,,,freeRecallSub,1,,,,,,,,,,,,,,,,,,,,,,,,,,,,,,,,,,,,,,494.1633619000204,494.173706300091,494.173706300091,502.15799340000376,return,7.974346100003459,None,Kiste,[],[],[],[],[],[],[],,,,,,,,,,,,,,,,,,,,,,1,2023-11-21_13h51.07.912,watkins1,2023.2.3,99.71988681783283,4,2023-11-21 13h51.19.743321 +0000,
,,,,,,,,,,,,,,,,,,,8,0,8,0,,,,,502.16966340004,,,,,,,,,,,,,,Tasse,71.4182654999895,,,,,,,,,,,,34.96751989994664,39.46625389996916,,,,,,,,,,,,,freeRecallSub,1,,,,,,,,,,,,,,,,,,,,,,,,,,,,,,,,,,,,,,502.1592975000385,502.16966340004,502.16966340004,573.5975779000437,return,71.4182654999895,None,Tasse,[],[],[],[],[],[],[],,,,,,,,,,,,,,,,,,,,,,1,2023-11-21_13h51.07.912,watkins1,2023.2.3,99.71988681783283,4,2023-11-21 13h51.19.743321 +0000,
,,,,,,,,,,,,,,,,,,,9,0,9,0,,,,,573.6090751000447,,,,,,,,,,,,,,Trommel,11.090870199957862,,,,,,,,,,,,7.773261100053787,None,,,,,,,,,,,,,freeRecallSub,1,,,,,,,,,,,,,,,,,,,,,,,,,,,,,,,,,,,,,,573.5988682000898,573.6090751000447,573.6090751000447,584.7060699000722,return,11.090870199957862,None,Trommel,[],[],[],[],[],[],[],,,,,,,,,,,,,,,,,,,,,,1,2023-11-21_13h51.07.912,watkins1,2023.2.3,99.71988681783283,4,2023-11-21 13h51.19.743321 +0000,
,,,,,,,,,,,,,,,,,,,10,0,10,0,,,,,584.7183338000905,,,,,,,,,,,,,,Telefon,29.39747179998085,,,,,,,,,,,,26.883872899925336,None,,,,,,,,,,,,,freeRecallSub,1,,,,,,,,,,,,,,,,,,,,,,,,,,,,,,,,,,,,,,584.7073432999896,584.7183338000905,584.7183338000905,614.1222624999937,return,29.39747179998085,None,Telefon,[],[],[],[],[],[],[],,,,,,,,,,,,,,,,,,,,,,1,2023-11-21_13h51.07.912,watkins1,2023.2.3,99.71988681783283,4,2023-11-21 13h51.19.743321 +0000,
,,,,,,,,,,,,,,,,,,,11,0,11,0,,,,,614.1351126000518,,,,,,,,,,,,,,Stift,61.69270380004309,,,,,,,,,,,,60.12331129994709,None,,,,,,,,,,,,,freeRecallSub,1,,,,,,,,,,,,,,,,,,,,,,,,,,,,,,,,,,,,,,614.1237644000212,614.1351126000518,614.1351126000518,675.8337535000173,return,61.69270380004309,None,Stift,[],[],[],[],[],[],[],,,,,,,,,,,,,,,,,,,,,,1,2023-11-21_13h51.07.912,watkins1,2023.2.3,99.71988681783283,4,2023-11-21 13h51.19.743321 +0000,
,,,,,,,,,,,,,,,,,,,12,0,12,0,,,,,675.846112200059,,,,,,,,,,,,,,,[],,,,,,,,,,,,None,None,,,,,,,,,,,,,freeRecallSub,1,,,,,,,,,,,,,,,,,,,,,,,,,,,,,,,,,,,,,,675.8350470000878,675.846112200059,675.846112200059,743.3706972000655,None,,,,[0.3037037037037037],[-0.3990740740740741],[1],[0],[0],[67.53078310005367],"['button_continue', 'continue_text']",,,,,,,,,,,,,,,,,,,,,,1,2023-11-21_13h51.07.912,watkins1,2023.2.3,99.71988681783283,4,2023-11-21 13h51.19.743321 +0000,
,,,,,,,,,,,,,,,,,,,,,,,,,,,,,,,,,,,,,,,,,,,,,,,,,,,,,,,,,,,,,,,,,,,,,1,,,,,,,,,,,,,,,,,,,,,,,,,,,,,,,,,,,,,,,,,,,,,,,,,,,,,,,,,,,,,,,,,,,,,,,,,,1,2023-11-21_13h51.07.912,watkins1,2023.2.3,99.71988681783283,4,2023-11-21 13h51.19.743321 +0000,
,,,,,,,,,,,,,,,,,,,,,,,0,0,0,0,769.5954433000879,,,,,,,,,,780.0329364000354,780.53153570008,,,,10.424201799905859,,,,,,,,,,,,None,None,,,,,,,,,,Geige,,,cuedRecallAdj,1,,,,,,,,,,,,,,,,,,,,,,,,,,,,,,,,,,,,,,,,,,,,,,,,,,,,,769.5865167999873,769.5954433000879,0,769.5954433000879,780.0296190000372,durchsichtig,return,10.424201799905859,None,780.0300159000326,780.0393565000268,780.0393565000268,780.0327841000399,,None,,,,,,,1,2023-11-21_13h51.07.912,watkins1,2023.2.3,99.71988681783283,4,2023-11-21 13h51.19.743321 +0000,
,,,,,,,,,,,,,,,,,,,,,,,1,0,1,0,780.5414743000874,,,,,,,,,,815.8287250000285,816.3200369999977,,,bunt,10.902172399917617,,,,,,,,,,,,23.18523289996665,None,,,,,,,,,,Uhr,,,cuedRecallAdj,1,,,,,,,,,,,,,,,,,,,,,,,,,,,,,,,,,,,,,,,,,,,,,,,,,,,,,780.5317840999924,780.5414743000874,0,780.5414743000874,791.4474474000745,winzigt,return,10.902172399917617,None,791.4477153000189,791.4569887000835,791.4569887000835,815.8283677999862,bunt,return,24.3707172999857,None,,,,,1,2023-11-21_13h51.07.912,watkins1,2023.2.3,99.71988681783283,4,2023-11-21 13h51.19.743321 +0000,
,,,,,,,,,,,,,,,,,,,,,,,2,0,2,0,816.3299514000537,,,,,,,,,,829.2151688000886,829.7067553000525,,,kalt,3.7697480999631807,,,,,,,,,,,,8.103695400059223,None,,,,,,,,,,Socke,,,cuedRecallAdj,1,,,,,,,,,,,,,,,,,,,,,,,,,,,,,,,,,,,,,,,,,,,,,,,,,,,,,816.3203046000563,816.3299514000537,0,816.3299514000537,820.1062298000325,dunkel,return,3.7697480999631807,None,820.1064961000811,820.115867500077,820.115867500077,829.2148847000208,kalt,return,9.095723000005819,None,,,,,1,2023-11-21_13h51.07.912,watkins1,2023.2.3,99.71988681783283,4,2023-11-21 13h51.19.743321 +0000,
,,,,,,,,,,,,,,,,,,,,,,,3,0,3,0,829.7167200000258,,,,,,,,,,856.2370732000563,856.7284624000313,,,matt,4.598929699975997,,,,,,,,,,,,21.13655850000214,None,,,,,,,,,,Schere,,,cuedRecallAdj,1,,,,,,,,,,,,,,,,,,,,,,,,,,,,,,,,,,,,,,,,,,,,,,,,,,,,,829.706999200047,829.7167200000258,0,829.7167200000258,834.3162040000316,krumm,return,4.598929699975997,None,834.316484500072,834.3256874000654,834.3256874000654,856.2368036000989,matt,return,21.909897099947557,None,,,,,1,2023-11-21_13h51.07.912,watkins1,2023.2.3,99.71988681783283,4,2023-11-21 13h51.19.743321 +0000,
,,,,,,,,,,,,,,,,,,,,,,,4,0,4,0,856.7384095999878,,,,,,,,,,885.2087413000409,885.7000580000458,,,bunt,18.12923610000871,,,,,,,,,,,,9.16742479999084,None,,,,,,,,,,Hammer,,,cuedRecallAdj,1,,,,,,,,,,,,,,,,,,,,,,,,,,,,,,,,,,,,,,,,,,,,,,,,,,,,,856.7287059000228,856.7384095999878,0,856.7384095999878,874.8755324000958,glänzend,return,18.12923610000871,None,874.875795800006,874.8852435000008,874.8852435000008,885.2084525000537,bunt,return,10.318265999900177,None,,,,,1,2023-11-21_13h51.07.912,watkins1,2023.2.3,99.71988681783283,4,2023-11-21 13h51.19.743321 +0000,
,,,,,,,,,,,,,,,,,,,,,,,5,0,5,0,885.710108700092,,,,,,,,,,900.1643063999945,900.6626126000192,,,,14.445437999907881,,,,,,,,,,,,None,None,,,,,,,,,,Eimer,,,cuedRecallAdj,1,,,,,,,,,,,,,,,,,,,,,,,,,,,,,,,,,,,,,,,,,,,,,,,,,,,,,885.7002931000898,885.710108700092,0,885.710108700092,900.1608478000853,flauschig,return,14.445437999907881,None,900.1611162000336,900.1705050000455,900.1705050000455,900.164204700035,,None,,,,,,,1,2023-11-21_13h51.07.912,watkins1,2023.2.3,99.71988681783283,4,2023-11-21 13h51.19.743321 +0000,
,,,,,,,,,,,,,,,,,,,,,,,6,0,6,0,900.6725453000981,,,,,,,,,,909.6109499000013,910.1022505000001,,,lang,4.675034399959259,,,,,,,,,,,,0.6520196999190375,None,,,,,,,,,,Tasche,,,cuedRecallAdj,1,,,,,,,,,,,,,,,,,,,,,,,,,,,,,,,,,,,,,,,,,,,,,,,,,,,,,900.6628485000692,900.6725453000981,0,900.6725453000981,905.352873200085,praktisch,return,4.675034399959259,None,905.3531547000166,905.3624044000171,905.3624044000171,909.6106610000134,lang,return,4.241079600062221,None,,,,,1,2023-11-21_13h51.07.912,watkins1,2023.2.3,99.71988681783283,4,2023-11-21 13h51.19.743321 +0000,
,,,,,,,,,,,,,,,,,,,,,,,7,0,7,0,910.112202999997,,,,,,,,,,930.8091766000725,931.3004664999899,,,klein,4.8513463999843225,,,,,,,,,,,,14.47933300002478,None,,,,,,,,,,Vase,,,cuedRecallAdj,1,,,,,,,,,,,,,,,,,,,,,,,,,,,,,,,,,,,,,,,,,,,,,,,,,,,,,910.1024952000007,910.112202999997,0,910.112202999997,914.9726760000922,klobig,return,4.8513463999843225,None,914.9729457000503,914.98243860004,914.98243860004,930.8088910999941,klein,return,15.821134999976493,None,,,,,1,2023-11-21_13h51.07.912,watkins1,2023.2.3,99.71988681783283,4,2023-11-21 13h51.19.743321 +0000,
,,,,,,,,,,,,,,,,,,,,,,,8,0,8,0,931.3105285000056,,,,,,,,,,939.0331328000175,939.5244563000742,,,dick,3.7570418000686914,,,,,,,,,,,,3.333258599974215,None,,,,,,,,,,Ring,,,cuedRecallAdj,1,,,,,,,,,,,,,,,,,,,,,,,,,,,,,,,,,,,,,,,,,,,,,,,,,,,,,931.3007085000863,931.3105285000056,0,931.3105285000056,935.0762854000786,gepunktet,return,3.7570418000686914,None,935.0765514000086,935.0861106000375,935.0861106000375,939.032867000089,dick,return,3.941473999992013,None,,,,,1,2023-11-21_13h51.07.912,watkins1,2023.2.3,99.71988681783283,4,2023-11-21 13h51.19.743321 +0000,
,,,,,,,,,,,,,,,,,,,,,,,9,0,9,0,939.5343659000937,,,,,,,,,,942.1687828000868,942.667499900097,,,,2.621174699976109,,,,,,,,,,,,None,None,,,,,,,,,,Löffel,,,cuedRecallAdj,1,,,,,,,,,,,,,,,,,,,,,,,,,,,,,,,,,,,,,,,,,,,,,,,,,,,,,939.5247008000733,939.5343659000937,0,939.5343659000937,942.1656249000225,matt,return,2.621174699976109,None,942.1658902000636,942.1753194000339,942.1753194000339,942.1686811000109,,None,,,,,,,1,2023-11-21_13h51.07.912,watkins1,2023.2.3,99.71988681783283,4,2023-11-21 13h51.19.743321 +0000,
,,,,,,,,,,,,,,,,,,,,,,,10,0,10,0,942.6774531000992,,,,,,,,,,948.8787747999886,949.3775672999909,,,,6.190122599946335,,,,,,,,,,,,None,None,,,,,,,,,,Kette,,,cuedRecallAdj,1,,,,,,,,,,,,,,,,,,,,,,,,,,,,,,,,,,,,,,,,,,,,,,,,,,,,,942.6677479000064,942.6774531000992,0,942.6774531000992,948.8755788000999,durchsichtig,return,6.190122599946335,None,948.875845600036,948.8853366000112,948.8853366000112,948.8786718000192,,None,,,,,,,1,2023-11-21_13h51.07.912,watkins1,2023.2.3,99.71988681783283,4,2023-11-21 13h51.19.743321 +0000,
,,,,,,,,,,,,,,,,,,,,,,,11,0,11,0,949.3874958000379,,,,,,,,,,951.4494683000958,951.9483924000524,,,,2.055937199969776,,,,,,,,,,,,None,None,,,,,,,,,,Trommel,,,cuedRecallAdj,1,,,,,,,,,,,,,,,,,,,,,,,,,,,,,,,,,,,,,,,,,,,,,,,,,,,,,949.3778260000981,949.3874958000379,0,949.3874958000379,951.4465600000694,hohl,return,2.055937199969776,None,951.4468269000063,951.4560650000349,951.4560650000349,951.4493663000176,,None,,,,,,,1,2023-11-21_13h51.07.912,watkins1,2023.2.3,99.71988681783283,4,2023-11-21 13h51.19.743321 +0000,
,,,,,,,,,,,,,,,,,,,,,,,12,0,12,0,951.9583573000273,,,,,,,,,,962.8148298000451,963.3063461000565,,,klein,4.685033899964765,,,,,,,,,,,,4.337664999999106,None,,,,,,,,,,Schlüssel,,,cuedRecallAdj,1,,,,,,,,,,,,,,,,,,,,,,,,,,,,,,,,,,,,,,,,,,,,,,,,,,,,,951.9486450999975,951.9583573000273,0,951.9583573000273,956.6487306000199,elegant,return,4.685033899964765,None,956.6489972000709,956.6582382000051,956.6582382000051,962.8145656000124,klein,return,6.153298000106588,None,,,,,1,2023-11-21_13h51.07.912,watkins1,2023.2.3,99.71988681783283,4,2023-11-21 13h51.19.743321 +0000,
,,,,,,,,,,,,,,,,,,,,,,,13,0,13,0,963.3163071000017,,,,,,,,,,973.9812427000143,974.472519800067,,,schmal,4.071189799928106,,,,,,,,,,,,5.251047499943525,None,,,,,,,,,,Rucksack,,,cuedRecallAdj,1,,,,,,,,,,,,,,,,,,,,,,,,,,,,,,,,,,,,,,,,,,,,,,,,,,,,,963.3065890000435,963.3163071000017,0,963.3163071000017,967.393628800055,praktisch,return,4.071189799928106,None,967.3938930000877,967.4031937000109,967.4031937000109,973.980974700069,schmal,return,6.576352800009772,None,,,,,1,2023-11-21_13h51.07.912,watkins1,2023.2.3,99.71988681783283,4,2023-11-21 13h51.19.743321 +0000,
,,,,,,,,,,,,,,,,,,,,,,,14,0,14,0,974.4825761000393,,,,,,,,,,977.739778200048,978.2380972000537,,,,3.2488888000370935,,,,,,,,,,,,None,None,,,,,,,,,,Buch,,,cuedRecallAdj,1,,,,,,,,,,,,,,,,,,,,,,,,,,,,,,,,,,,,,,,,,,,,,,,,,,,,,974.472759300028,974.4825761000393,0,974.4825761000393,977.7364346000832,dreckig,return,3.2488888000370935,None,977.7367165000178,977.7460456000408,977.7460456000408,977.739669200033,,None,,,,,,,1,2023-11-21_13h51.07.912,watkins1,2023.2.3,99.71988681783283,4,2023-11-21 13h51.19.743321 +0000,
,,,,,,,,,,,,,,,,,,,,,,,15,0,15,0,978.2481052000076,,,,,,,,,,980.792103099986,981.2908458000747,,,,2.539358100038953,,,,,,,,,,,,None,None,,,,,,,,,,Fahrrad,,,cuedRecallAdj,1,,,,,,,,,,,,,,,,,,,,,,,,,,,,,,,,,,,,,,,,,,,,,,,,,,,,,978.2383474000962,978.2481052000076,0,978.2481052000076,980.7891120000277,breit,return,2.539358100038953,None,980.7893762000604,980.7987179000629,980.7987179000629,980.7920020000311,,None,,,,,,,1,2023-11-21_13h51.07.912,watkins1,2023.2.3,99.71988681783283,4,2023-11-21 13h51.19.743321 +0000,
,,,,,,,,,,,,,,,,,,,,,,,16,0,16,0,981.3007864000974,,,,,,,,,,997.1917872000486,997.6810241000494,,,,15.886616899981163,,,,,,,,,,,,None,None,,,,,,,,,,Kiste,,,cuedRecallAdj,1,,,,,,,,,,,,,,,,,,,,,,,,,,,,,,,,,,,,,,,,,,,,,,,,,,,,,981.2910853000358,981.3007864000974,0,981.3007864000974,997.1886597000994,niedlich,return,15.886616899981163,None,997.1889285000507,997.198172400007,997.198172400007,997.1916779000312,,None,,,,,,,1,2023-11-21_13h51.07.912,watkins1,2023.2.3,99.71988681783283,4,2023-11-21 13h51.19.743321 +0000,
,,,,,,,,,,,,,,,,,,,,,,,17,0,17,0,997.6909920000471,,,,,,,,,,1004.232824100065,1004.7312552999938,,,,6.536501100054011,,,,,,,,,,,,None,None,,,,,,,,,,Stift,,,cuedRecallAdj,1,,,,,,,,,,,,,,,,,,,,,,,,,,,,,,,,,,,,,,,,,,,,,,,,,,,,,997.681262500002,997.6909920000471,0,997.6909920000471,1004.2296284000622,biegsam,return,6.536501100054011,None,1004.229918200057,1004.2391752999974,1004.2391752999974,1004.2327143000439,,None,,,,,,,1,2023-11-21_13h51.07.912,watkins1,2023.2.3,99.71988681783283,4,2023-11-21 13h51.19.743321 +0000,
,,,,,,,,,,,,,,,,,,,,,,,18,0,18,0,1004.7411963000195,,,,,,,,,,1011.1522400000831,1011.650549700018,,,,6.4061973000643775,,,,,,,,,,,,None,None,,,,,,,,,,Jacke,,,cuedRecallAdj,1,,,,,,,,,,,,,,,,,,,,,,,,,,,,,,,,,,,,,,,,,,,,,,,,,,,,,1004.731502700015,1004.7411963000195,0,1004.7411963000195,1011.1488563000457,praktisch,return,6.4061973000643775,None,1011.1491379000945,1011.158406100003,1011.158406100003,1011.1521291000536,,None,,,,,,,1,2023-11-21_13h51.07.912,watkins1,2023.2.3,99.71988681783283,4,2023-11-21 13h51.19.743321 +0000,
,,,,,,,,,,,,,,,,,,,,,,,19,0,19,0,1011.6605031000217,,,,,,,,,,1015.7208373000612,1016.2194314000662,,,,4.047019700054079,,,,,,,,,,,,None,None,,,,,,,,,,Kerze,,,cuedRecallAdj,1,,,,,,,,,,,,,,,,,,,,,,,,,,,,,,,,,,,,,,,,,,,,,,,,,,,,,1011.650790499989,1011.6605031000217,0,1011.6605031000217,1015.7176309000934,winzig,return,4.047019700054079,None,1015.7178947000066,1015.7273590000113,1015.7273590000113,1015.7207356999861,,None,,,,,,,1,2023-11-21_13h51.07.912,watkins1,2023.2.3,99.71988681783283,4,2023-11-21 13h51.19.743321 +0000,
,,,,,,,,,,,,,,,,,,,,,,,20,0,20,0,1016.2293550000759,,,,,,,,,,1032.076614300022,1032.5681727000047,,,schwer,14.061991600086913,,,,,,,,,,,,0.5215476000448689,None,,,,,,,,,,Hut,,,cuedRecallAdj,1,,,,,,,,,,,,,,,,,,,,,,,,,,,,,,,,,,,,,,,,,,,,,,,,,,,,,1016.219677700079,1016.2293550000759,0,1016.2293550000759,1030.298938699998,groß,return,14.061991600086913,None,1030.2992055000504,1030.308654600056,1030.308654600056,1032.0763486000942,schwer,return,1.7588026999728754,None,,,,,1,2023-11-21_13h51.07.912,watkins1,2023.2.3,99.71988681783283,4,2023-11-21 13h51.19.743321 +0000,
,,,,,,,,,,,,,,,,,,,,,,,21,0,21,0,1032.5781231999863,,,,,,,,,,1035.4438201000448,1035.9423506000312,,,,2.8573220999678597,,,,,,,,,,,,None,None,,,,,,,,,,Würfel,,,cuedRecallAdj,1,,,,,,,,,,,,,,,,,,,,,,,,,,,,,,,,,,,,,,,,,,,,,,,,,,,,,1032.5684146001004,1032.5781231999863,0,1032.5781231999863,1035.4406571000582,gut,return,2.8573220999678597,None,1035.440923999995,1035.4502011000877,1035.4502011000877,1035.4437189000892,,None,,,,,,,1,2023-11-21_13h51.07.912,watkins1,2023.2.3,99.71988681783283,4,2023-11-21 13h51.19.743321 +0000,
,,,,,,,,,,,,,,,,,,,,,,,22,0,22,0,1035.9522989999969,,,,,,,,,,1052.2619447000325,1052.75325300009,,,bunt,5.251096499967389,,,,,,,,,,,,8.063592000049539,None,,,,,,,,,,Bürste,,,cuedRecallAdj,1,,,,,,,,,,,,,,,,,,,,,,,,,,,,,,,,,,,,,,,,,,,,,,,,,,,,,1035.9425872000866,1035.9522989999969,0,1035.9522989999969,1041.204904400045,klobig,return,5.251096499967389,None,1041.2051679000724,1041.214449500083,1041.214449500083,1052.2616558000445,bunt,return,11.044897699961439,None,,,,,1,2023-11-21_13h51.07.912,watkins1,2023.2.3,99.71988681783283,4,2023-11-21 13h51.19.743321 +0000,
,,,,,,,,,,,,,,,,,,,,,,,23,0,23,0,1052.7632031000685,,,,,,,,,,1085.7812524000183,1086.2728058000794,,,klein,10.09619950002525,,,,,,,,,,,,21.850022800033912,None,,,,,,,,,,Flasche,,,cuedRecallAdj,1,,,,,,,,,,,,,,,,,,,,,,,,,,,,,,,,,,,,,,,,,,,,,,,,,,,,,1052.753497500089,1052.7632031000685,0,1052.7632031000685,1062.8658758000238,nachhaltig,return,10.09619950002525,None,1062.8661417000694,1062.875419900054,1062.875419900054,1085.7809858000837,klein,return,22.895907999947667,None,,,,,1,2023-11-21_13h51.07.912,watkins1,2023.2.3,99.71988681783283,4,2023-11-21 13h51.19.743321 +0000,
,,,,,,,,,,,,,,,,,,,,,,,24,0,24,0,1086.2827606000938,,,,,,,,,,1105.2771922000684,1105.7754332000623,,,,18.984613599954173,,,,,,,,,,,,None,None,,,,,,,,,,Kamera,,,cuedRecallAdj,1,,,,,,,,,,,,,,,,,,,,,,,,,,,,,,,,,,,,,,,,,,,,,,,,,,,,,1086.2730472000549,1086.2827606000938,0,1086.2827606000938,1105.2738483999856,neu,return,18.984613599954173,None,1105.2741329000564,1105.2833778000204,1105.2833778000204,1105.2770836000564,,None,,,,,,,1,2023-11-21_13h51.07.912,watkins1,2023.2.3,99.71988681783283,4,2023-11-21 13h51.19.743321 +0000,
,,,,,,,,,,,,,,,,,,,,,,,25,0,25,0,1105.7853483000072,,,,,,,,,,1112.72773839999,1113.2264694999903,,,,6.930024500004947,,,,,,,,,,,,None,None,,,,,,,,,,Blume,,,cuedRecallAdj,1,,,,,,,,,,,,,,,,,,,,,,,,,,,,,,,,,,,,,,,,,,,,,,,,,,,,,1105.775671100011,1105.7853483000072,0,1105.7853483000072,1112.7246647999855,praktisch,return,6.930024500004947,None,1112.7249281000113,1112.7343521000585,1112.7343521000585,1112.7276371000335,,None,,,,,,,1,2023-11-21_13h51.07.912,watkins1,2023.2.3,99.71988681783283,4,2023-11-21 13h51.19.743321 +0000,
,,,,,,,,,,,,,,,,,,,,,,,26,0,26,0,1113.2364123000298,,,,,,,,,,1124.5842509000795,1125.0757363000885,,,kaputt,5.894933499977924,,,,,,,,,,,,3.5040319999679923,None,,,,,,,,,,Lampe,,,cuedRecallAdj,1,,,,,,,,,,,,,,,,,,,,,,,,,,,,,,,,,,,,,,,,,,,,,,,,,,,,,1113.2267157000024,1113.2364123000298,0,1113.2364123000298,1119.1411542000715,elegant,return,5.894933499977924,None,1119.1414223000174,1119.150852199993,1119.150852199993,1124.5839807000011,kaputt,return,5.428462199983187,None,,,,,1,2023-11-21_13h51.07.912,watkins1,2023.2.3,99.71988681783283,4,2023-11-21 13h51.19.743321 +0000,
,,,,,,,,,,,,,,,,,,,,,,,27,0,27,0,1125.085688900086,,,,,,,,,,1175.2750832000747,1175.766642200062,,,bunt,43.04553409991786,,,,,,,,,,,,0.9230443999404088,5.7030423999531195,,,,,,,,,,Brille,,,cuedRecallAdj,1,,,,,,,,,,,,,,,,,,,,,,,,,,,,,,,,,,,,,,,,,,,,,,,,,,,,,1125.0759792000754,1125.085688900086,0,1125.085688900086,1168.1353111000499,gestreift,return,43.04553409991786,None,1168.1355769000947,1168.1448064000579,1168.1448064000579,1175.274814000004,bunt,return,7.122520599979907,None,,,,,1,2023-11-21_13h51.07.912,watkins1,2023.2.3,99.71988681783283,4,2023-11-21 13h51.19.743321 +0000,
,,,,,,,,,,,,,,,,,,,,,,,28,0,28,0,1175.776644900092,,,,,,,,,,1181.1023000000278,1181.6008114999859,,,,5.314648999948986,,,,,,,,,,,,None,None,,,,,,,,,,Telefon,,,cuedRecallAdj,1,,,,,,,,,,,,,,,,,,,,,,,,,,,,,,,,,,,,,,,,,,,,,,,,,,,,,1175.7668907000916,1175.776644900092,0,1175.776644900092,1181.0989467999898,plüschig,return,5.314648999948986,None,1181.0992088000057,1181.1087707000552,1181.1087707000552,1181.102198000066,,None,,,,,,,1,2023-11-21_13h51.07.912,watkins1,2023.2.3,99.71988681783283,4,2023-11-21 13h51.19.743321 +0000,
,,,,,,,,,,,,,,,,,,,,,,,29,0,29,0,1181.6108598000137,,,,,,,,,,1195.3494894000469,1195.8409456000663,,,matt,3.040439400007017,,,,,,,,,,,,9.810471699922346,None,,,,,,,,,,Tasse,,,cuedRecallAdj,1,,,,,,,,,,,,,,,,,,,,,,,,,,,,,,,,,,,,,,,,,,,,,,,,,,,,,1181.6010568999918,1181.6108598000137,0,1181.6108598000137,1184.6546579001006,kratzig,return,3.040439400007017,None,1184.6549224000191,1184.6641776000615,1184.6641776000615,1195.3492195000872,matt,return,10.675106400041841,None,,,,,1,2023-11-21_13h51.07.912,watkins1,2023.2.3,99.71988681783283,4,2023-11-21 13h51.19.743321 +0000,
,,,,,,,,,,,,,,,,,,,,,,,,,,,,,,,,,,,,,,,,,,,,,,,,,,,,,,,,,,,,,,,,,,,,,1,,,,,,,,,,,,,,,,,,,,,,,,,,,,,,,,,,,,,,,,,,,,,,,,,,,,,,,,,,,,,,,,,,,,,,1195.8574882000685,q,133.80153349996544,None,1,2023-11-21_13h51.07.912,watkins1,2023.2.3,99.71988681783283,4,2023-11-21 13h51.19.743321 +0000,
