Equation,CorrectResponse,Correctbutton,trials_7.thisRepN,trials_7.thisTrialN,trials_7.thisN,trials_7.thisIndex,trials.thisRepN,trials.thisTrialN,trials.thisN,trials.thisIndex,trials_3.thisRepN,trials_3.thisTrialN,trials_3.thisN,trials_3.thisIndex,trials_2.thisRepN,trials_2.thisTrialN,trials_2.thisN,trials_2.thisIndex,trials_4.thisRepN,trials_4.thisTrialN,trials_4.thisN,trials_4.thisIndex,trials_5.thisRepN,trials_5.thisTrialN,trials_5.thisN,trials_5.thisIndex,thisRow.t,notes,code_marius.started,code_marius.stopped,welcome.started,welcome.stopped,instruction_study.started,instruction_study.stopped,fixationcross.started,fixationcross.stopped,blanc.started,blanc.stopped,study_control_probe.started,study_control_probe.stopped,responseKey,responseTime,scale_answer_2.keys,study_control_probe_2.started,study_control_probe_2.stopped,scale_answer_3.keys,scale_answer_3.rt,scale_answer_3.duration,blanc_2.started,blanc_2.stopped,test_attr_probe.started,test_attr_probe.stopped,recalled_attr,firstKeyTime,secondWordTime,blanc_3.started,blanc_3.stopped,test_sub_probe.started,test_sub_probe.stopped,recalled_sub,instruction_probe_end.started,instruction_probe_end.stopped,study.started,study.stopped,substantive,adjective,wordpair,task,condition,liste_sub_phase1,liste_adj_phase1,scale_answer.keys,scale_answer.rt,scale_answer.duration,code_defineWordsInit.started,code_defineWordsInit.stopped,liste_sub_phase2,study_control.started,study_control.stopped,scale_answer_4.keys,scale_answer_4.rt,scale_answer_4.duration,restudy_same.started,restudy_same.stopped,scale_answer_5.keys,restudy_different.started,restudy_different.stopped,scale_answer_6.keys,test_attr.started,test_attr.stopped,test_sub.started,test_sub.stopped,scale_answer_6.rt,scale_answer_6.duration,distractortask.started,equation_text.started,distractortask.stopped,mouse_answer.x,mouse_answer.y,mouse_answer.leftButton,mouse_answer.midButton,mouse_answer.rightButton,mouse_answer.time,mouse_answer.clicked_name,feedback_distractortask.started,feedback_distractortask.stopped,free_recall.started,text_enter.started,key_resp.started,free_recall.stopped,key_resp.keys,key_resp.rt,key_resp.duration,free_recalled_sub,mouse_continue.x,mouse_continue.y,mouse_continue.leftButton,mouse_continue.midButton,mouse_continue.rightButton,mouse_continue.time,mouse_continue.clicked_name,cued_recall.started,text_enter_2.started,correct,key_continue.started,cued_recall.stopped,recalled_attr1,key_continue.keys,key_continue.rt,key_continue.duration,cued_recall_2.started,text_enter_3.started,key_continue_2.started,cued_recall_2.stopped,recalled_attr2,key_continue_2.keys,key_continue_2.rt,key_continue_2.duration,key_resp_8.started,key_resp_8.keys,key_resp_8.rt,key_resp_8.duration,condition,date,expName,psychopyVersion,frameRate,participant,expStart,
,,,,,,,,,,,,,,,,,,,,,,,,,,,,,0.09578529999998864,0.09585030000016559,0.09585890000016661,8.454357499998878,,,,,,,,,,,,,,,,,,,,,,,,,,,,,,,,,,,,,1,,,,,,,,,,,,,,,,,,,,,,,,,,,,,,,,,,,,,,,,,,,,,,,,,,,,,,,,,,,,,,,,,,,,,,,,,,1,2023-11-22_13h56.50.371,watkins1,2023.2.3,99.69085864676819,10,2023-11-22 13h56.58.285853 +0000,
,,,,,,,,,,,,,,,,,,,,,,,,,,,,,,,,,8.45440570000028,44.551937799998996,,,,,,,,,,,,,,,,,,,,,,,,,,,,,,,,,,,1,,,,,,,,,,,,,,,,,,,,,,,,,,,,,,,,,,,,,,,,,,,,,,,,,,,,,,,,,,,,,,,,,,,,,,,,,,1,2023-11-22_13h56.50.371,watkins1,2023.2.3,99.69085864676819,10,2023-11-22 13h56.58.285853 +0000,
,,,0,0,0,0,,,,,,,,,,,,,,,,,,,,,45.565388499999244,,,,,,,,44.551955400000224,45.55541389999962,52.05426520000037,52.54801090000001,46.047490599999946,52.05410060000031,2,1.898456900000383,None,52.54802120000022,58.553180099999736,2,1.898456900000383,None,58.55347710000024,58.55350039999939,58.553507399999944,58.55358659999911,,None,None,58.55375400000048,58.55377469999985,58.55378129999917,58.553853999999774,,,,,,,,,,1,,,,,,,,,,,,,,,,,,,,,,,,,,,,,,,,,,,,,,,,,,,,,,,,,,,,,,,,,,,,,,,,,,,,,,,,,,1,2023-11-22_13h56.50.371,watkins1,2023.2.3,99.69085864676819,10,2023-11-22 13h56.58.285853 +0000,
,,,,,,,,,,,,,,,,,,,,,,,,,,,,,,,,,,,,,,,,,,,,,,,,,,,,,,,,,,,,,58.553968399999576,63.00804810000045,,,,,,,1,,,,,,,,,,,,,,,,,,,,,,,,,,,,,,,,,,,,,,,,,,,,,,,,,,,,,,,,,,,,,,,,,,,,,,,,,,1,2023-11-22_13h56.50.371,watkins1,2023.2.3,99.69085864676819,10,2023-11-22 13h56.58.285853 +0000,
,,,,,,,0,0,0,0,,,,,,,,,,,,,,,,,64.02159319999919,,,,,,,,63.008064800000284,64.01162250000016,64.01206889999958,64.5036342000003,,,2,2.124529099999563,,,,,,,,,,,,,,,,,,,,,64.50364439999976,70.50460569999996,Tasche,biegsam,"['Tasche', 'biegsam']",restudy_diff,1,"['Tasche', 'Schere', 'Kiste', 'Trommel', 'Vase', 'Tasse', 'Hut', 'Jacke', 'Schlüssel', 'Geige', 'Kerze', 'Eimer', 'Lampe', 'Ring', 'Brille', 'Socke', 'Löffel', 'Würfel', 'Bürste', 'Telefon', 'Kette', 'Kamera']",['biegsam'],2,2.124529099999563,None,,,,,,,,,,,,,,,,,,,,,,,,,,,,,,,,,,,,,,,,,,,,,,,,,,,,,,,,,,,,,,,,,,,,,1,2023-11-22_13h56.50.371,watkins1,2023.2.3,99.69085864676819,10,2023-11-22 13h56.58.285853 +0000,
,,,,,,,1,0,1,0,,,,,,,,,,,,,,,,,70.51409969999986,,,,,,,,,,70.50522379999893,70.99613200000022,,,2,1.4998944999988453,,,,,,,,,,,,,,,,,,,,,70.99614160000056,77.00030239999978,Schere,bunt,"['Schere', 'bunt']",restudy_diff,1,"['Tasche', 'Schere', 'Kiste', 'Trommel', 'Vase', 'Tasse', 'Hut', 'Jacke', 'Schlüssel', 'Geige', 'Kerze', 'Eimer', 'Lampe', 'Ring', 'Brille', 'Socke', 'Löffel', 'Würfel', 'Bürste', 'Telefon', 'Kette', 'Kamera']","['biegsam', 'bunt']",2,1.4998944999988453,None,,,,,,,,,,,,,,,,,,,,,,,,,,,,,,,,,,,,,,,,,,,,,,,,,,,,,,,,,,,,,,,,,,,,,1,2023-11-22_13h56.50.371,watkins1,2023.2.3,99.69085864676819,10,2023-11-22 13h56.58.285853 +0000,
,,,,,,,2,0,2,0,,,,,,,,,,,,,,,,,77.00977090000015,,,,,,,,,,77.00087150000036,77.49179720000029,,,3,1.9569583000011335,,,,,,,,,,,,,,,,,,,,,77.49180720000004,83.49583399999938,Kiste,hässlich,"['Kiste', 'hässlich']",restudy_diff,1,"['Tasche', 'Schere', 'Kiste', 'Trommel', 'Vase', 'Tasse', 'Hut', 'Jacke', 'Schlüssel', 'Geige', 'Kerze', 'Eimer', 'Lampe', 'Ring', 'Brille', 'Socke', 'Löffel', 'Würfel', 'Bürste', 'Telefon', 'Kette', 'Kamera']","['biegsam', 'bunt', 'hässlich']",3,1.9569583000011335,None,,,,,,,,,,,,,,,,,,,,,,,,,,,,,,,,,,,,,,,,,,,,,,,,,,,,,,,,,,,,,,,,,,,,,1,2023-11-22_13h56.50.371,watkins1,2023.2.3,99.69085864676819,10,2023-11-22 13h56.58.285853 +0000,
,,,,,,,3,0,3,0,,,,,,,,,,,,,,,,,83.50529649999953,,,,,,,,,,83.49632410000049,83.98730239999895,,,2,1.766084499999124,,,,,,,,,,,,,,,,,,,,,83.98731179999959,89.98823020000054,Trommel,teuer,"['Trommel', 'teuer']",control,1,"['Tasche', 'Schere', 'Kiste', 'Trommel', 'Vase', 'Tasse', 'Hut', 'Jacke', 'Schlüssel', 'Geige', 'Kerze', 'Eimer', 'Lampe', 'Ring', 'Brille', 'Socke', 'Löffel', 'Würfel', 'Bürste', 'Telefon', 'Kette', 'Kamera']","['biegsam', 'bunt', 'hässlich', 'teuer']",2,1.766084499999124,None,,,,,,,,,,,,,,,,,,,,,,,,,,,,,,,,,,,,,,,,,,,,,,,,,,,,,,,,,,,,,,,,,,,,,1,2023-11-22_13h56.50.371,watkins1,2023.2.3,99.69085864676819,10,2023-11-22 13h56.58.285853 +0000,
,,,,,,,4,0,4,0,,,,,,,,,,,,,,,,,89.99772309999935,,,,,,,,,,89.98881459999939,90.47975029999907,,,3,1.6892141999996966,,,,,,,,,,,,,,,,,,,,,90.47976070000004,96.48179619999974,Vase,kalt,"['Vase', 'kalt']",control,1,"['Tasche', 'Schere', 'Kiste', 'Trommel', 'Vase', 'Tasse', 'Hut', 'Jacke', 'Schlüssel', 'Geige', 'Kerze', 'Eimer', 'Lampe', 'Ring', 'Brille', 'Socke', 'Löffel', 'Würfel', 'Bürste', 'Telefon', 'Kette', 'Kamera']","['biegsam', 'bunt', 'hässlich', 'teuer', 'kalt']",3,1.6892141999996966,None,,,,,,,,,,,,,,,,,,,,,,,,,,,,,,,,,,,,,,,,,,,,,,,,,,,,,,,,,,,,,,,,,,,,,1,2023-11-22_13h56.50.371,watkins1,2023.2.3,99.69085864676819,10,2023-11-22 13h56.58.285853 +0000,
,,,,,,,5,0,5,0,,,,,,,,,,,,,,,,,96.49124929999925,,,,,,,,,,96.48229489999903,96.97325730000011,,,1,2.036714199999551,,,,,,,,,,,,,,,,,,,,,96.9732673999988,102.97970969999915,Tasse,blass,"['Tasse', 'blass']",restudy_diff,1,"['Tasche', 'Schere', 'Kiste', 'Trommel', 'Vase', 'Tasse', 'Hut', 'Jacke', 'Schlüssel', 'Geige', 'Kerze', 'Eimer', 'Lampe', 'Ring', 'Brille', 'Socke', 'Löffel', 'Würfel', 'Bürste', 'Telefon', 'Kette', 'Kamera']","['biegsam', 'bunt', 'hässlich', 'teuer', 'kalt', 'blass']",1,2.036714199999551,None,,,,,,,,,,,,,,,,,,,,,,,,,,,,,,,,,,,,,,,,,,,,,,,,,,,,,,,,,,,,,,,,,,,,,1,2023-11-22_13h56.50.371,watkins1,2023.2.3,99.69085864676819,10,2023-11-22 13h56.58.285853 +0000,
,,,,,,,6,0,6,0,,,,,,,,,,,,,,,,,102.9891934999996,,,,,,,,,,102.98020199999883,103.47143549999964,,,2,2.969664100000955,,,,,,,,,,,,,,,,,,,,,103.47144519999893,109.47295420000046,Hut,klobig,"['Hut', 'klobig']",control,1,"['Tasche', 'Schere', 'Kiste', 'Trommel', 'Vase', 'Tasse', 'Hut', 'Jacke', 'Schlüssel', 'Geige', 'Kerze', 'Eimer', 'Lampe', 'Ring', 'Brille', 'Socke', 'Löffel', 'Würfel', 'Bürste', 'Telefon', 'Kette', 'Kamera']","['biegsam', 'bunt', 'hässlich', 'teuer', 'kalt', 'blass', 'klobig']",2,2.969664100000955,None,,,,,,,,,,,,,,,,,,,,,,,,,,,,,,,,,,,,,,,,,,,,,,,,,,,,,,,,,,,,,,,,,,,,,1,2023-11-22_13h56.50.371,watkins1,2023.2.3,99.69085864676819,10,2023-11-22 13h56.58.285853 +0000,
,,,,,,,7,0,7,0,,,,,,,,,,,,,,,,,109.48233479999908,,,,,,,,,,109.47344560000056,109.96443910000016,,,2,2.3563262000006944,,,,,,,,,,,,,,,,,,,,,109.96444809999957,115.9668031000001,Jacke,schmutzig,"['Jacke', 'schmutzig']",restudy_diff,1,"['Tasche', 'Schere', 'Kiste', 'Trommel', 'Vase', 'Tasse', 'Hut', 'Jacke', 'Schlüssel', 'Geige', 'Kerze', 'Eimer', 'Lampe', 'Ring', 'Brille', 'Socke', 'Löffel', 'Würfel', 'Bürste', 'Telefon', 'Kette', 'Kamera']","['biegsam', 'bunt', 'hässlich', 'teuer', 'kalt', 'blass', 'klobig', 'schmutzig']",2,2.3563262000006944,None,,,,,,,,,,,,,,,,,,,,,,,,,,,,,,,,,,,,,,,,,,,,,,,,,,,,,,,,,,,,,,,,,,,,,1,2023-11-22_13h56.50.371,watkins1,2023.2.3,99.69085864676819,10,2023-11-22 13h56.58.285853 +0000,
,,,,,,,8,0,8,0,,,,,,,,,,,,,,,,,115.9763251000004,,,,,,,,,,115.96730419999949,116.45848320000005,,,1,1.846829300000536,,,,,,,,,,,,,,,,,,,,,116.45849289999933,122.46048969999902,Schlüssel,breit,"['Schlüssel', 'breit']",control,1,"['Tasche', 'Schere', 'Kiste', 'Trommel', 'Vase', 'Tasse', 'Hut', 'Jacke', 'Schlüssel', 'Geige', 'Kerze', 'Eimer', 'Lampe', 'Ring', 'Brille', 'Socke', 'Löffel', 'Würfel', 'Bürste', 'Telefon', 'Kette', 'Kamera']","['biegsam', 'bunt', 'hässlich', 'teuer', 'kalt', 'blass', 'klobig', 'schmutzig', 'breit']",1,1.846829300000536,None,,,,,,,,,,,,,,,,,,,,,,,,,,,,,,,,,,,,,,,,,,,,,,,,,,,,,,,,,,,,,,,,,,,,,1,2023-11-22_13h56.50.371,watkins1,2023.2.3,99.69085864676819,10,2023-11-22 13h56.58.285853 +0000,
,,,,,,,9,0,9,0,,,,,,,,,,,,,,,,,122.46993839999959,,,,,,,,,,122.46097399999962,122.9525993999996,,,3,1.3286554999995133,,,,,,,,,,,,,,,,,,,,,122.95260950000011,128.95531440000013,Geige,zart,"['Geige', 'zart']",restudy_diff,1,"['Tasche', 'Schere', 'Kiste', 'Trommel', 'Vase', 'Tasse', 'Hut', 'Jacke', 'Schlüssel', 'Geige', 'Kerze', 'Eimer', 'Lampe', 'Ring', 'Brille', 'Socke', 'Löffel', 'Würfel', 'Bürste', 'Telefon', 'Kette', 'Kamera']","['biegsam', 'bunt', 'hässlich', 'teuer', 'kalt', 'blass', 'klobig', 'schmutzig', 'breit', 'zart']",3,1.3286554999995133,None,,,,,,,,,,,,,,,,,,,,,,,,,,,,,,,,,,,,,,,,,,,,,,,,,,,,,,,,,,,,,,,,,,,,,1,2023-11-22_13h56.50.371,watkins1,2023.2.3,99.69085864676819,10,2023-11-22 13h56.58.285853 +0000,
,,,,,,,10,0,10,0,,,,,,,,,,,,,,,,,128.96476319999965,,,,,,,,,,128.95579759999964,129.4472855999993,,,1,1.2416505000001052,,,,,,,,,,,,,,,,,,,,,129.4472955000001,135.4503253999992,Kerze,sportlich,"['Kerze', 'sportlich']",control,1,"['Tasche', 'Schere', 'Kiste', 'Trommel', 'Vase', 'Tasse', 'Hut', 'Jacke', 'Schlüssel', 'Geige', 'Kerze', 'Eimer', 'Lampe', 'Ring', 'Brille', 'Socke', 'Löffel', 'Würfel', 'Bürste', 'Telefon', 'Kette', 'Kamera']","['biegsam', 'bunt', 'hässlich', 'teuer', 'kalt', 'blass', 'klobig', 'schmutzig', 'breit', 'zart', 'sportlich']",1,1.2416505000001052,None,,,,,,,,,,,,,,,,,,,,,,,,,,,,,,,,,,,,,,,,,,,,,,,,,,,,,,,,,,,,,,,,,,,,,1,2023-11-22_13h56.50.371,watkins1,2023.2.3,99.69085864676819,10,2023-11-22 13h56.58.285853 +0000,
,,,,,,,11,0,11,0,,,,,,,,,,,,,,,,,135.45974009999918,,,,,,,,,,135.45080880000023,135.9417584999992,,,3,1.5474137000001065,,,,,,,,,,,,,,,,,,,,,135.94176849999894,141.94781859999966,Eimer,schlicht,"['Eimer', 'schlicht']",restudy_diff,1,"['Tasche', 'Schere', 'Kiste', 'Trommel', 'Vase', 'Tasse', 'Hut', 'Jacke', 'Schlüssel', 'Geige', 'Kerze', 'Eimer', 'Lampe', 'Ring', 'Brille', 'Socke', 'Löffel', 'Würfel', 'Bürste', 'Telefon', 'Kette', 'Kamera']","['biegsam', 'bunt', 'hässlich', 'teuer', 'kalt', 'blass', 'klobig', 'schmutzig', 'breit', 'zart', 'sportlich', 'schlicht']",3,1.5474137000001065,None,,,,,,,,,,,,,,,,,,,,,,,,,,,,,,,,,,,,,,,,,,,,,,,,,,,,,,,,,,,,,,,,,,,,,1,2023-11-22_13h56.50.371,watkins1,2023.2.3,99.69085864676819,10,2023-11-22 13h56.58.285853 +0000,
,,,,,,,12,0,12,0,,,,,,,,,,,,,,,,,141.95725850000053,,,,,,,,,,141.9483092999999,142.43934239999908,,,3,1.1700770000006742,,,,,,,,,,,,,,,,,,,,,142.439352899999,148.44747710000047,Lampe,praktisch,"['Lampe', 'praktisch']",restudy_diff,1,"['Tasche', 'Schere', 'Kiste', 'Trommel', 'Vase', 'Tasse', 'Hut', 'Jacke', 'Schlüssel', 'Geige', 'Kerze', 'Eimer', 'Lampe', 'Ring', 'Brille', 'Socke', 'Löffel', 'Würfel', 'Bürste', 'Telefon', 'Kette', 'Kamera']","['biegsam', 'bunt', 'hässlich', 'teuer', 'kalt', 'blass', 'klobig', 'schmutzig', 'breit', 'zart', 'sportlich', 'schlicht', 'praktisch']",3,1.1700770000006742,None,,,,,,,,,,,,,,,,,,,,,,,,,,,,,,,,,,,,,,,,,,,,,,,,,,,,,,,,,,,,,,,,,,,,,1,2023-11-22_13h56.50.371,watkins1,2023.2.3,99.69085864676819,10,2023-11-22 13h56.58.285853 +0000,
,,,,,,,13,0,13,0,,,,,,,,,,,,,,,,,148.45687019999968,,,,,,,,,,148.44796119999955,148.93905730000006,,,2,2.4544558999987203,,,,,,,,,,,,,,,,,,,,,148.93906669999888,154.94931319999887,Ring,hohl,"['Ring', 'hohl']",control,1,"['Tasche', 'Schere', 'Kiste', 'Trommel', 'Vase', 'Tasse', 'Hut', 'Jacke', 'Schlüssel', 'Geige', 'Kerze', 'Eimer', 'Lampe', 'Ring', 'Brille', 'Socke', 'Löffel', 'Würfel', 'Bürste', 'Telefon', 'Kette', 'Kamera']","['biegsam', 'bunt', 'hässlich', 'teuer', 'kalt', 'blass', 'klobig', 'schmutzig', 'breit', 'zart', 'sportlich', 'schlicht', 'praktisch', 'hohl']",2,2.4544558999987203,None,,,,,,,,,,,,,,,,,,,,,,,,,,,,,,,,,,,,,,,,,,,,,,,,,,,,,,,,,,,,,,,,,,,,,1,2023-11-22_13h56.50.371,watkins1,2023.2.3,99.69085864676819,10,2023-11-22 13h56.58.285853 +0000,
,,,,,,,14,0,14,0,,,,,,,,,,,,,,,,,154.95877269999983,,,,,,,,,,154.94979749999948,155.44073840000055,,,2,2.231971799999883,,,,,,,,,,,,,,,,,,,,,155.4407482000006,161.4433998000004,Brille,strahlend,"['Brille', 'strahlend']",restudy_diff,1,"['Tasche', 'Schere', 'Kiste', 'Trommel', 'Vase', 'Tasse', 'Hut', 'Jacke', 'Schlüssel', 'Geige', 'Kerze', 'Eimer', 'Lampe', 'Ring', 'Brille', 'Socke', 'Löffel', 'Würfel', 'Bürste', 'Telefon', 'Kette', 'Kamera']","['biegsam', 'bunt', 'hässlich', 'teuer', 'kalt', 'blass', 'klobig', 'schmutzig', 'breit', 'zart', 'sportlich', 'schlicht', 'praktisch', 'hohl', 'strahlend']",2,2.231971799999883,None,,,,,,,,,,,,,,,,,,,,,,,,,,,,,,,,,,,,,,,,,,,,,,,,,,,,,,,,,,,,,,,,,,,,,1,2023-11-22_13h56.50.371,watkins1,2023.2.3,99.69085864676819,10,2023-11-22 13h56.58.285853 +0000,
,,,,,,,15,0,15,0,,,,,,,,,,,,,,,,,161.45286789999955,,,,,,,,,,161.4438893000006,161.9350185000003,,,3,2.026140399999349,,,,,,,,,,,,,,,,,,,,,161.93502819999958,167.93901299999925,Socke,gestreift,"['Socke', 'gestreift']",restudy_diff,1,"['Tasche', 'Schere', 'Kiste', 'Trommel', 'Vase', 'Tasse', 'Hut', 'Jacke', 'Schlüssel', 'Geige', 'Kerze', 'Eimer', 'Lampe', 'Ring', 'Brille', 'Socke', 'Löffel', 'Würfel', 'Bürste', 'Telefon', 'Kette', 'Kamera']","['biegsam', 'bunt', 'hässlich', 'teuer', 'kalt', 'blass', 'klobig', 'schmutzig', 'breit', 'zart', 'sportlich', 'schlicht', 'praktisch', 'hohl', 'strahlend', 'gestreift']",3,2.026140399999349,None,,,,,,,,,,,,,,,,,,,,,,,,,,,,,,,,,,,,,,,,,,,,,,,,,,,,,,,,,,,,,,,,,,,,,1,2023-11-22_13h56.50.371,watkins1,2023.2.3,99.69085864676819,10,2023-11-22 13h56.58.285853 +0000,
,,,,,,,16,0,16,0,,,,,,,,,,,,,,,,,167.94857219999903,,,,,,,,,,167.9394967999997,168.43056930000057,,,1,1.0984067999997933,,,,,,,,,,,,,,,,,,,,,168.43057950000002,174.43499840000004,Löffel,kaputt,"['Löffel', 'kaputt']",restudy_diff,1,"['Tasche', 'Schere', 'Kiste', 'Trommel', 'Vase', 'Tasse', 'Hut', 'Jacke', 'Schlüssel', 'Geige', 'Kerze', 'Eimer', 'Lampe', 'Ring', 'Brille', 'Socke', 'Löffel', 'Würfel', 'Bürste', 'Telefon', 'Kette', 'Kamera']","['biegsam', 'bunt', 'hässlich', 'teuer', 'kalt', 'blass', 'klobig', 'schmutzig', 'breit', 'zart', 'sportlich', 'schlicht', 'praktisch', 'hohl', 'strahlend', 'gestreift', 'kaputt']",1,1.0984067999997933,None,,,,,,,,,,,,,,,,,,,,,,,,,,,,,,,,,,,,,,,,,,,,,,,,,,,,,,,,,,,,,,,,,,,,,1,2023-11-22_13h56.50.371,watkins1,2023.2.3,99.69085864676819,10,2023-11-22 13h56.58.285853 +0000,
,,,,,,,17,0,17,0,,,,,,,,,,,,,,,,,174.44444719999956,,,,,,,,,,174.4354870999996,174.9270550000001,,,2,2.3860411000005115,,,,,,,,,,,,,,,,,,,,,174.92706559999897,180.93076549999932,Würfel,sauber,"['Würfel', 'sauber']",restudy_diff,1,"['Tasche', 'Schere', 'Kiste', 'Trommel', 'Vase', 'Tasse', 'Hut', 'Jacke', 'Schlüssel', 'Geige', 'Kerze', 'Eimer', 'Lampe', 'Ring', 'Brille', 'Socke', 'Löffel', 'Würfel', 'Bürste', 'Telefon', 'Kette', 'Kamera']","['biegsam', 'bunt', 'hässlich', 'teuer', 'kalt', 'blass', 'klobig', 'schmutzig', 'breit', 'zart', 'sportlich', 'schlicht', 'praktisch', 'hohl', 'strahlend', 'gestreift', 'kaputt', 'sauber']",2,2.3860411000005115,None,,,,,,,,,,,,,,,,,,,,,,,,,,,,,,,,,,,,,,,,,,,,,,,,,,,,,,,,,,,,,,,,,,,,,1,2023-11-22_13h56.50.371,watkins1,2023.2.3,99.69085864676819,10,2023-11-22 13h56.58.285853 +0000,
,,,,,,,18,0,18,0,,,,,,,,,,,,,,,,,180.94021489999977,,,,,,,,,,180.93126759999905,181.4220377999991,,,3,1.0355629999994562,,,,,,,,,,,,,,,,,,,,,181.4220476999999,187.423307699999,Bürste,kratzig,"['Bürste', 'kratzig']",control,1,"['Tasche', 'Schere', 'Kiste', 'Trommel', 'Vase', 'Tasse', 'Hut', 'Jacke', 'Schlüssel', 'Geige', 'Kerze', 'Eimer', 'Lampe', 'Ring', 'Brille', 'Socke', 'Löffel', 'Würfel', 'Bürste', 'Telefon', 'Kette', 'Kamera']","['biegsam', 'bunt', 'hässlich', 'teuer', 'kalt', 'blass', 'klobig', 'schmutzig', 'breit', 'zart', 'sportlich', 'schlicht', 'praktisch', 'hohl', 'strahlend', 'gestreift', 'kaputt', 'sauber', 'kratzig']",3,1.0355629999994562,None,,,,,,,,,,,,,,,,,,,,,,,,,,,,,,,,,,,,,,,,,,,,,,,,,,,,,,,,,,,,,,,,,,,,,1,2023-11-22_13h56.50.371,watkins1,2023.2.3,99.69085864676819,10,2023-11-22 13h56.58.285853 +0000,
,,,,,,,19,0,19,0,,,,,,,,,,,,,,,,,187.4327675000004,,,,,,,,,,187.42380389999926,187.91486749999967,,,1,0.9908894000000146,,,,,,,,,,,,,,,,,,,,,187.91487729999972,193.9251559000004,Telefon,flauschig,"['Telefon', 'flauschig']",restudy_diff,1,"['Tasche', 'Schere', 'Kiste', 'Trommel', 'Vase', 'Tasse', 'Hut', 'Jacke', 'Schlüssel', 'Geige', 'Kerze', 'Eimer', 'Lampe', 'Ring', 'Brille', 'Socke', 'Löffel', 'Würfel', 'Bürste', 'Telefon', 'Kette', 'Kamera']","['biegsam', 'bunt', 'hässlich', 'teuer', 'kalt', 'blass', 'klobig', 'schmutzig', 'breit', 'zart', 'sportlich', 'schlicht', 'praktisch', 'hohl', 'strahlend', 'gestreift', 'kaputt', 'sauber', 'kratzig', 'flauschig']",1,0.9908894000000146,None,,,,,,,,,,,,,,,,,,,,,,,,,,,,,,,,,,,,,,,,,,,,,,,,,,,,,,,,,,,,,,,,,,,,,1,2023-11-22_13h56.50.371,watkins1,2023.2.3,99.69085864676819,10,2023-11-22 13h56.58.285853 +0000,
,,,,,,,20,0,20,0,,,,,,,,,,,,,,,,,193.93461729999945,,,,,,,,,,193.9256623000001,194.41660670000056,,,1,1.209171000000424,,,,,,,,,,,,,,,,,,,,,194.4166169,200.42612969999936,Kette,nass,"['Kette', 'nass']",restudy_diff,1,"['Tasche', 'Schere', 'Kiste', 'Trommel', 'Vase', 'Tasse', 'Hut', 'Jacke', 'Schlüssel', 'Geige', 'Kerze', 'Eimer', 'Lampe', 'Ring', 'Brille', 'Socke', 'Löffel', 'Würfel', 'Bürste', 'Telefon', 'Kette', 'Kamera']","['biegsam', 'bunt', 'hässlich', 'teuer', 'kalt', 'blass', 'klobig', 'schmutzig', 'breit', 'zart', 'sportlich', 'schlicht', 'praktisch', 'hohl', 'strahlend', 'gestreift', 'kaputt', 'sauber', 'kratzig', 'flauschig', 'nass']",1,1.209171000000424,None,,,,,,,,,,,,,,,,,,,,,,,,,,,,,,,,,,,,,,,,,,,,,,,,,,,,,,,,,,,,,,,,,,,,,1,2023-11-22_13h56.50.371,watkins1,2023.2.3,99.69085864676819,10,2023-11-22 13h56.58.285853 +0000,
,,,,,,,21,0,21,0,,,,,,,,,,,,,,,,,200.43558680000024,,,,,,,,,,200.42662139999993,200.9176764999993,,,1,1.9003147999992507,,,,,,,,,,,,,,,,,,,,,200.91768609999963,206.9225465999989,Kamera,dunkel,"['Kamera', 'dunkel']",restudy_diff,1,"['Tasche', 'Schere', 'Kiste', 'Trommel', 'Vase', 'Tasse', 'Hut', 'Jacke', 'Schlüssel', 'Geige', 'Kerze', 'Eimer', 'Lampe', 'Ring', 'Brille', 'Socke', 'Löffel', 'Würfel', 'Bürste', 'Telefon', 'Kette', 'Kamera']","['biegsam', 'bunt', 'hässlich', 'teuer', 'kalt', 'blass', 'klobig', 'schmutzig', 'breit', 'zart', 'sportlich', 'schlicht', 'praktisch', 'hohl', 'strahlend', 'gestreift', 'kaputt', 'sauber', 'kratzig', 'flauschig', 'nass', 'dunkel']",1,1.9003147999992507,None,,,,,,,,,,,,,,,,,,,,,,,,,,,,,,,,,,,,,,,,,,,,,,,,,,,,,,,,,,,,,,,,,,,,,1,2023-11-22_13h56.50.371,watkins1,2023.2.3,99.69085864676819,10,2023-11-22 13h56.58.285853 +0000,
,,,,,,,,,,,0,0,0,0,,,,,,,,,,,,,206.9319718000006,,,,,,,,,,206.92337570000018,207.4140812000005,,,[],[],,,,,,,,,,,,None,None,,,,,,,,,,Flasche,winzig,"['Flasche', 'winzig']",control,1,,,,,,206.9233009999989,206.92335040000034,"['Flasche', 'Jacke', 'Fahrrad', 'Kiste', 'Geige', 'Uhr', 'Schere', 'Rucksack', 'Hammer', 'Blume', 'Würfel', 'Socke', 'Lampe', 'Tasse', 'Eimer', 'Kamera', 'Löffel', 'Telefon', 'Buch', 'Stift', 'Brille', 'Kette', 'Tasche']",207.4140912999992,213.41871899999933,2,1.465367900000274,None,213.41912109999976,213.4218380000002,None,213.4219917999999,213.42486669999926,None,213.42502199999944,213.42623719999938,213.42624950000027,213.4274408000001,,,,,,,,,,,,,,,,,,,,,,,,,,,,,,,,,,,,,,,,,,,,,,,,,,,1,2023-11-22_13h56.50.371,watkins1,2023.2.3,99.69085864676819,10,2023-11-22 13h56.58.285853 +0000,
,,,,,,,,,,,1,0,1,0,,,,,,,,,,,,,213.43109709999953,,,,,,,,,,213.42772460000015,213.9249194999993,,,2,1.7530253999993874,,,,,,,,,,,,None,None,,,,,,,,,,Jacke,matt,"['Jacke', 'matt']",restudy_diff,1,,,,,,213.42765959999997,213.42769919999955,"['Flasche', 'Jacke', 'Fahrrad', 'Kiste', 'Geige', 'Uhr', 'Schere', 'Rucksack', 'Hammer', 'Blume', 'Würfel', 'Socke', 'Lampe', 'Tasse', 'Eimer', 'Kamera', 'Löffel', 'Telefon', 'Buch', 'Stift', 'Brille', 'Kette', 'Tasche']",213.9249294000001,213.92657060000056,None,,,213.92668839999897,213.92815969999901,None,213.9282648999997,219.93226349999895,2,219.9326258000001,219.9339177999991,219.93392999999924,219.93499150000025,1.7530253999993874,None,,,,,,,,,,,,,,,,,,,,,,,,,,,,,,,,,,,,,,,,,,,,,,,,,1,2023-11-22_13h56.50.371,watkins1,2023.2.3,99.69085864676819,10,2023-11-22 13h56.58.285853 +0000,
,,,,,,,,,,,2,0,2,0,,,,,,,,,,,,,219.94184180000047,,,,,,,,,,219.9352644999999,220.4339345999997,,,[],[],,,,,,,,,,,,None,None,,,,,,,,,,Fahrrad,lang,"['Fahrrad', 'lang']",control,1,,,,,,219.93519939999896,219.93523789999927,"['Flasche', 'Jacke', 'Fahrrad', 'Kiste', 'Geige', 'Uhr', 'Schere', 'Rucksack', 'Hammer', 'Blume', 'Würfel', 'Socke', 'Lampe', 'Tasse', 'Eimer', 'Kamera', 'Löffel', 'Telefon', 'Buch', 'Stift', 'Brille', 'Kette', 'Tasche']",220.43394520000038,226.44310550000046,1,1.320040799999333,None,226.44338889999926,226.44604210000034,None,226.44614939999883,226.44863189999887,None,226.4487396000004,226.44997200000034,226.44998379999925,226.45104340000034,,,,,,,,,,,,,,,,,,,,,,,,,,,,,,,,,,,,,,,,,,,,,,,,,,,1,2023-11-22_13h56.50.371,watkins1,2023.2.3,99.69085864676819,10,2023-11-22 13h56.58.285853 +0000,
,,,,,,,,,,,3,0,3,0,,,,,,,,,,,,,226.4547275999994,,,,,,,,,,226.4513167999994,226.94774080000025,,,2,1.402647299999444,,,,,,,,,,,,None,None,,,,,,,,,,Kiste,gepunktet,"['Kiste', 'gepunktet']",restudy_diff,1,,,,,,226.4512534000005,226.45129169999927,"['Flasche', 'Jacke', 'Fahrrad', 'Kiste', 'Geige', 'Uhr', 'Schere', 'Rucksack', 'Hammer', 'Blume', 'Würfel', 'Socke', 'Lampe', 'Tasse', 'Eimer', 'Kamera', 'Löffel', 'Telefon', 'Buch', 'Stift', 'Brille', 'Kette', 'Tasche']",226.94775069999923,226.94932030000018,None,,,226.94943629999943,226.95090039999923,None,226.95100559999992,232.95996770000056,2,232.9602505999992,232.9615904000002,232.96160260000033,232.96289699999943,1.402647299999444,None,,,,,,,,,,,,,,,,,,,,,,,,,,,,,,,,,,,,,,,,,,,,,,,,,1,2023-11-22_13h56.50.371,watkins1,2023.2.3,99.69085864676819,10,2023-11-22 13h56.58.285853 +0000,
,,,,,,,,,,,4,0,4,0,,,,,,,,,,,,,232.9694139000003,,,,,,,,,,232.96317330000056,233.4613515000001,,,2,1.8703764000001684,,,,,,,,,,,,None,None,,,,,,,,,,Geige,glatt,"['Geige', 'glatt']",restudy_diff,1,,,,,,232.96310880000055,232.96314709999933,"['Flasche', 'Jacke', 'Fahrrad', 'Kiste', 'Geige', 'Uhr', 'Schere', 'Rucksack', 'Hammer', 'Blume', 'Würfel', 'Socke', 'Lampe', 'Tasse', 'Eimer', 'Kamera', 'Löffel', 'Telefon', 'Buch', 'Stift', 'Brille', 'Kette', 'Tasche']",233.46136259999912,233.46419459999925,None,,,233.46431610000036,233.46698900000047,None,233.46709989999908,239.46935080000003,2,239.46963649999998,239.47102369999993,239.47103609999976,239.47222870000041,1.8703764000001684,None,,,,,,,,,,,,,,,,,,,,,,,,,,,,,,,,,,,,,,,,,,,,,,,,,1,2023-11-22_13h56.50.371,watkins1,2023.2.3,99.69085864676819,10,2023-11-22 13h56.58.285853 +0000,
,,,,,,,,,,,5,0,5,0,,,,,,,,,,,,,239.4788391000002,,,,,,,,,,239.47250340000028,239.97107999999935,,,[],[],,,,,,,,,,,,None,None,,,,,,,,,,Uhr,lustig,"['Uhr', 'lustig']",control,1,,,,,,239.47243750000052,239.47247549999884,"['Flasche', 'Jacke', 'Fahrrad', 'Kiste', 'Geige', 'Uhr', 'Schere', 'Rucksack', 'Hammer', 'Blume', 'Würfel', 'Socke', 'Lampe', 'Tasse', 'Eimer', 'Kamera', 'Löffel', 'Telefon', 'Buch', 'Stift', 'Brille', 'Kette', 'Tasche']",239.97109020000062,245.9724153999996,1,1.326003899999705,None,245.9726943000005,245.97526599999946,None,245.97537379999994,245.97809020000022,None,245.978197299999,245.97927449999952,245.97928689999935,245.98047939999924,,,,,,,,,,,,,,,,,,,,,,,,,,,,,,,,,,,,,,,,,,,,,,,,,,,1,2023-11-22_13h56.50.371,watkins1,2023.2.3,99.69085864676819,10,2023-11-22 13h56.58.285853 +0000,
,,,,,,,,,,,6,0,6,0,,,,,,,,,,,,,245.98412439999993,,,,,,,,,,245.98075590000008,246.47733530000005,,,1,1.2810797000001912,,,,,,,,,,,,None,None,,,,,,,,,,Schere,durchsichtig,"['Schere', 'durchsichtig']",restudy_diff,1,,,,,,245.980691499999,245.98073180000029,"['Flasche', 'Jacke', 'Fahrrad', 'Kiste', 'Geige', 'Uhr', 'Schere', 'Rucksack', 'Hammer', 'Blume', 'Würfel', 'Socke', 'Lampe', 'Tasse', 'Eimer', 'Kamera', 'Löffel', 'Telefon', 'Buch', 'Stift', 'Brille', 'Kette', 'Tasche']",246.4773466000006,246.47894169999927,None,,,246.47906109999894,246.4805364999993,None,246.48064270000032,252.48506090000046,1,252.48534590000054,252.48673000000053,252.48674199999914,252.48806960000002,1.2810797000001912,None,,,,,,,,,,,,,,,,,,,,,,,,,,,,,,,,,,,,,,,,,,,,,,,,,1,2023-11-22_13h56.50.371,watkins1,2023.2.3,99.69085864676819,10,2023-11-22 13h56.58.285853 +0000,
,,,,,,,,,,,7,0,7,0,,,,,,,,,,,,,252.4946258,,,,,,,,,,252.4883436,252.98662560000048,,,[],[],,,,,,,,,,,,None,None,,,,,,,,,,Rucksack,rustikal,"['Rucksack', 'rustikal']",control,1,,,,,,252.4882796999991,252.4883179999997,"['Flasche', 'Jacke', 'Fahrrad', 'Kiste', 'Geige', 'Uhr', 'Schere', 'Rucksack', 'Hammer', 'Blume', 'Würfel', 'Socke', 'Lampe', 'Tasse', 'Eimer', 'Kamera', 'Löffel', 'Telefon', 'Buch', 'Stift', 'Brille', 'Kette', 'Tasche']",252.98663560000023,258.9959710000003,3,1.7110979999997653,None,258.9962531000001,258.99907750000057,None,258.9991895000003,259.00186609999946,None,259.0019726999999,259.003327299999,259.0033392999994,259.00457090000054,,,,,,,,,,,,,,,,,,,,,,,,,,,,,,,,,,,,,,,,,,,,,,,,,,,1,2023-11-22_13h56.50.371,watkins1,2023.2.3,99.69085864676819,10,2023-11-22 13h56.58.285853 +0000,
,,,,,,,,,,,8,0,8,0,,,,,,,,,,,,,259.0081933999991,,,,,,,,,,259.0048440999999,259.50180609999916,,,[],[],,,,,,,,,,,,None,None,,,,,,,,,,Hammer,niedlich,"['Hammer', 'niedlich']",control,1,,,,,,259.0047795999999,259.00481799999943,"['Flasche', 'Jacke', 'Fahrrad', 'Kiste', 'Geige', 'Uhr', 'Schere', 'Rucksack', 'Hammer', 'Blume', 'Würfel', 'Socke', 'Lampe', 'Tasse', 'Eimer', 'Kamera', 'Löffel', 'Telefon', 'Buch', 'Stift', 'Brille', 'Kette', 'Tasche']",259.50181669999984,265.5023425999989,1,0.9398208000002342,None,265.50263110000014,265.5053957,None,265.50550959999964,265.50813349999953,None,265.50824119999925,265.5095567999997,265.50956869999936,265.51079500000014,,,,,,,,,,,,,,,,,,,,,,,,,,,,,,,,,,,,,,,,,,,,,,,,,,,1,2023-11-22_13h56.50.371,watkins1,2023.2.3,99.69085864676819,10,2023-11-22 13h56.58.285853 +0000,
,,,,,,,,,,,9,0,9,0,,,,,,,,,,,,,265.51443459999973,,,,,,,,,,265.5110700999994,266.00801370000045,,,[],[],,,,,,,,,,,,None,None,,,,,,,,,,Blume,flach,"['Blume', 'flach']",control,1,,,,,,265.51100679999945,265.51104569999916,"['Flasche', 'Jacke', 'Fahrrad', 'Kiste', 'Geige', 'Uhr', 'Schere', 'Rucksack', 'Hammer', 'Blume', 'Würfel', 'Socke', 'Lampe', 'Tasse', 'Eimer', 'Kamera', 'Löffel', 'Telefon', 'Buch', 'Stift', 'Brille', 'Kette', 'Tasche']",266.00802359999943,272.00870159999977,1,0.9302317000001494,None,272.00898159999997,272.01166139999987,None,272.0117723000003,272.0142992000001,None,272.01440469999943,272.0157051999995,272.0157171999999,272.0168819999999,,,,,,,,,,,,,,,,,,,,,,,,,,,,,,,,,,,,,,,,,,,,,,,,,,,1,2023-11-22_13h56.50.371,watkins1,2023.2.3,99.69085864676819,10,2023-11-22 13h56.58.285853 +0000,
,,,,,,,,,,,10,0,10,0,,,,,,,,,,,,,272.0205081999993,,,,,,,,,,272.01715709999917,272.5137276000005,,,2,1.4368086000013136,,,,,,,,,,,,None,None,,,,,,,,,,Würfel,elegant,"['Würfel', 'elegant']",restudy_diff,1,,,,,,272.0170937999992,272.0171327999997,"['Flasche', 'Jacke', 'Fahrrad', 'Kiste', 'Geige', 'Uhr', 'Schere', 'Rucksack', 'Hammer', 'Blume', 'Würfel', 'Socke', 'Lampe', 'Tasse', 'Eimer', 'Kamera', 'Löffel', 'Telefon', 'Buch', 'Stift', 'Brille', 'Kette', 'Tasche']",272.51373839999906,272.51535049999984,None,,,272.51547240000036,272.5169550999999,None,272.5170617999993,278.5200805000004,2,278.5203779000003,278.52176019999933,278.5217723000005,278.52310190000026,1.4368086000013136,None,,,,,,,,,,,,,,,,,,,,,,,,,,,,,,,,,,,,,,,,,,,,,,,,,1,2023-11-22_13h56.50.371,watkins1,2023.2.3,99.69085864676819,10,2023-11-22 13h56.58.285853 +0000,
,,,,,,,,,,,11,0,11,0,,,,,,,,,,,,,278.5295439999991,,,,,,,,,,278.52337629999965,279.0216918999995,,,1,0.8857917999994243,,,,,,,,,,,,None,None,,,,,,,,,,Socke,verspielt,"['Socke', 'verspielt']",restudy_diff,1,,,,,,278.5233124000006,278.5233506000004,"['Flasche', 'Jacke', 'Fahrrad', 'Kiste', 'Geige', 'Uhr', 'Schere', 'Rucksack', 'Hammer', 'Blume', 'Würfel', 'Socke', 'Lampe', 'Tasse', 'Eimer', 'Kamera', 'Löffel', 'Telefon', 'Buch', 'Stift', 'Brille', 'Kette', 'Tasche']",279.02170230000047,279.02441009999893,None,,,279.02452769999945,279.0271173000001,None,279.02722259999973,285.03267479999886,1,285.0329619999993,285.03435460000037,285.0343668000005,285.0356463999997,0.8857917999994243,None,,,,,,,,,,,,,,,,,,,,,,,,,,,,,,,,,,,,,,,,,,,,,,,,,1,2023-11-22_13h56.50.371,watkins1,2023.2.3,99.69085864676819,10,2023-11-22 13h56.58.285853 +0000,
,,,,,,,,,,,12,0,12,0,,,,,,,,,,,,,285.0421299999998,,,,,,,,,,285.0359229000005,285.5342406999989,,,3,0.9490587000000232,,,,,,,,,,,,None,None,,,,,,,,,,Lampe,groß,"['Lampe', 'groß']",restudy_diff,1,,,,,,285.0358579999993,285.0358963999988,"['Flasche', 'Jacke', 'Fahrrad', 'Kiste', 'Geige', 'Uhr', 'Schere', 'Rucksack', 'Hammer', 'Blume', 'Würfel', 'Socke', 'Lampe', 'Tasse', 'Eimer', 'Kamera', 'Löffel', 'Telefon', 'Buch', 'Stift', 'Brille', 'Kette', 'Tasche']",285.5342514999993,285.53706839999904,None,,,285.53719119999914,285.5398690999991,None,285.53997979999986,291.5416406000004,3,291.5419344000002,291.54331699999966,291.543329099999,291.54440129999966,0.9490587000000232,None,,,,,,,,,,,,,,,,,,,,,,,,,,,,,,,,,,,,,,,,,,,,,,,,,1,2023-11-22_13h56.50.371,watkins1,2023.2.3,99.69085864676819,10,2023-11-22 13h56.58.285853 +0000,
,,,,,,,,,,,13,0,13,0,,,,,,,,,,,,,291.55104889999893,,,,,,,,,,291.5446780000002,292.04317979999905,,,1,0.7296471999998175,,,,,,,,,,,,None,None,,,,,,,,,,Tasse,dick,"['Tasse', 'dick']",restudy_diff,1,,,,,,291.54461289999927,291.54465080000045,"['Flasche', 'Jacke', 'Fahrrad', 'Kiste', 'Geige', 'Uhr', 'Schere', 'Rucksack', 'Hammer', 'Blume', 'Würfel', 'Socke', 'Lampe', 'Tasse', 'Eimer', 'Kamera', 'Löffel', 'Telefon', 'Buch', 'Stift', 'Brille', 'Kette', 'Tasche']",292.04319039999973,292.04579059999924,None,,,292.0459109000003,292.0483485999994,None,292.04845530000057,298.0533832000001,1,298.05367970000043,298.0549702999997,298.05498199999965,298.05614179999975,0.7296471999998175,None,,,,,,,,,,,,,,,,,,,,,,,,,,,,,,,,,,,,,,,,,,,,,,,,,1,2023-11-22_13h56.50.371,watkins1,2023.2.3,99.69085864676819,10,2023-11-22 13h56.58.285853 +0000,
,,,,,,,,,,,14,0,14,0,,,,,,,,,,,,,298.06284849999975,,,,,,,,,,298.0564166999993,298.5548517999996,,,1,0.8736460000000079,,,,,,,,,,,,None,None,,,,,,,,,,Eimer,glänzend,"['Eimer', 'glänzend']",restudy_diff,1,,,,,,298.0563519999996,298.05639019999944,"['Flasche', 'Jacke', 'Fahrrad', 'Kiste', 'Geige', 'Uhr', 'Schere', 'Rucksack', 'Hammer', 'Blume', 'Würfel', 'Socke', 'Lampe', 'Tasse', 'Eimer', 'Kamera', 'Löffel', 'Telefon', 'Buch', 'Stift', 'Brille', 'Kette', 'Tasche']",298.5548624000003,298.5574446999999,None,,,298.55756350000047,298.55999899999915,None,298.5601048999997,304.56886379999924,1,304.56915189999927,304.5704635000002,304.5704757000003,304.5718261999991,0.8736460000000079,None,,,,,,,,,,,,,,,,,,,,,,,,,,,,,,,,,,,,,,,,,,,,,,,,,1,2023-11-22_13h56.50.371,watkins1,2023.2.3,99.69085864676819,10,2023-11-22 13h56.58.285853 +0000,
,,,,,,,,,,,15,0,15,0,,,,,,,,,,,,,304.57828119999976,,,,,,,,,,304.5721018000004,305.0704640999993,,,2,1.1734704000009515,,,,,,,,,,,,None,None,,,,,,,,,,Kamera,robust,"['Kamera', 'robust']",restudy_diff,1,,,,,,304.57203689999915,304.5720758999996,"['Flasche', 'Jacke', 'Fahrrad', 'Kiste', 'Geige', 'Uhr', 'Schere', 'Rucksack', 'Hammer', 'Blume', 'Würfel', 'Socke', 'Lampe', 'Tasse', 'Eimer', 'Kamera', 'Löffel', 'Telefon', 'Buch', 'Stift', 'Brille', 'Kette', 'Tasche']",305.0704747999989,305.0732575999991,None,,,305.0733772000003,305.0760207000003,None,305.076125399999,311.0810524999997,2,311.0813359999993,311.0826785999998,311.0826906000002,311.08399289999943,1.1734704000009515,None,,,,,,,,,,,,,,,,,,,,,,,,,,,,,,,,,,,,,,,,,,,,,,,,,1,2023-11-22_13h56.50.371,watkins1,2023.2.3,99.69085864676819,10,2023-11-22 13h56.58.285853 +0000,
,,,,,,,,,,,16,0,16,0,,,,,,,,,,,,,311.09051849999923,,,,,,,,,,311.08426529999997,311.58256450000044,,,3,1.3893941000005725,,,,,,,,,,,,None,None,,,,,,,,,,Löffel,nachhaltig,"['Löffel', 'nachhaltig']",restudy_diff,1,,,,,,311.0842023999994,311.0842403000006,"['Flasche', 'Jacke', 'Fahrrad', 'Kiste', 'Geige', 'Uhr', 'Schere', 'Rucksack', 'Hammer', 'Blume', 'Würfel', 'Socke', 'Lampe', 'Tasse', 'Eimer', 'Kamera', 'Löffel', 'Telefon', 'Buch', 'Stift', 'Brille', 'Kette', 'Tasche']",311.58257539999977,311.5853139999999,None,,,311.5854347000004,311.58805980000034,None,311.5881647999995,317.59057799999937,3,317.5908684999995,317.59220839999944,317.59222039999986,317.59360559999914,1.3893941000005725,None,,,,,,,,,,,,,,,,,,,,,,,,,,,,,,,,,,,,,,,,,,,,,,,,,1,2023-11-22_13h56.50.371,watkins1,2023.2.3,99.69085864676819,10,2023-11-22 13h56.58.285853 +0000,
,,,,,,,,,,,17,0,17,0,,,,,,,,,,,,,317.5999864000005,,,,,,,,,,317.59387849999985,318.09211099999993,,,1,0.9437460999997711,,,,,,,,,,,,None,None,,,,,,,,,,Telefon,krumm,"['Telefon', 'krumm']",restudy_diff,1,,,,,,317.5938141000006,317.5938525999991,"['Flasche', 'Jacke', 'Fahrrad', 'Kiste', 'Geige', 'Uhr', 'Schere', 'Rucksack', 'Hammer', 'Blume', 'Würfel', 'Socke', 'Lampe', 'Tasse', 'Eimer', 'Kamera', 'Löffel', 'Telefon', 'Buch', 'Stift', 'Brille', 'Kette', 'Tasche']",318.0921209999997,318.09494389999963,None,,,318.09506820000024,318.0977612000006,None,318.09786969999914,324.1061959999988,1,324.1064796999999,324.10786089999965,324.1078727999993,324.1091875000002,0.9437460999997711,None,,,,,,,,,,,,,,,,,,,,,,,,,,,,,,,,,,,,,,,,,,,,,,,,,1,2023-11-22_13h56.50.371,watkins1,2023.2.3,99.69085864676819,10,2023-11-22 13h56.58.285853 +0000,
,,,,,,,,,,,18,0,18,0,,,,,,,,,,,,,324.1156544000005,,,,,,,,,,324.1094654999997,324.6076770999989,,,[],[],,,,,,,,,,,,None,None,,,,,,,,,,Buch,gut,"['Buch', 'gut']",control,1,,,,,,324.1094011999994,324.1094396999997,"['Flasche', 'Jacke', 'Fahrrad', 'Kiste', 'Geige', 'Uhr', 'Schere', 'Rucksack', 'Hammer', 'Blume', 'Würfel', 'Socke', 'Lampe', 'Tasse', 'Eimer', 'Kamera', 'Löffel', 'Telefon', 'Buch', 'Stift', 'Brille', 'Kette', 'Tasche']",324.6076885000002,330.6171395000001,3,0.9940829000006488,None,330.61742120000054,330.6198495999997,None,330.6199582999998,330.62250270000004,None,330.6226119999992,330.6236764000005,330.62368830000014,330.62472569999954,,,,,,,,,,,,,,,,,,,,,,,,,,,,,,,,,,,,,,,,,,,,,,,,,,,1,2023-11-22_13h56.50.371,watkins1,2023.2.3,99.69085864676819,10,2023-11-22 13h56.58.285853 +0000,
,,,,,,,,,,,19,0,19,0,,,,,,,,,,,,,330.62845579999885,,,,,,,,,,330.6249984999995,331.1213773999989,,,[],[],,,,,,,,,,,,None,None,,,,,,,,,,Stift,neu,"['Stift', 'neu']",control,1,,,,,,330.62493600000016,330.6249743999997,"['Flasche', 'Jacke', 'Fahrrad', 'Kiste', 'Geige', 'Uhr', 'Schere', 'Rucksack', 'Hammer', 'Blume', 'Würfel', 'Socke', 'Lampe', 'Tasse', 'Eimer', 'Kamera', 'Löffel', 'Telefon', 'Buch', 'Stift', 'Brille', 'Kette', 'Tasche']",331.12138849999974,337.1305188000006,3,0.9762208000011015,None,337.13079859999925,337.1333489999997,None,337.13345689999915,337.1358660999995,None,337.1359718999993,337.1371927,337.1372045999997,337.1382362000004,,,,,,,,,,,,,,,,,,,,,,,,,,,,,,,,,,,,,,,,,,,,,,,,,,,1,2023-11-22_13h56.50.371,watkins1,2023.2.3,99.69085864676819,10,2023-11-22 13h56.58.285853 +0000,
,,,,,,,,,,,20,0,20,0,,,,,,,,,,,,,337.1419604999992,,,,,,,,,,337.1385087999988,337.63473879999947,,,3,0.923481300000276,,,,,,,,,,,,None,None,,,,,,,,,,Brille,hübsch,"['Brille', 'hübsch']",restudy_diff,1,,,,,,337.1384466999989,337.13848510000025,"['Flasche', 'Jacke', 'Fahrrad', 'Kiste', 'Geige', 'Uhr', 'Schere', 'Rucksack', 'Hammer', 'Blume', 'Würfel', 'Socke', 'Lampe', 'Tasse', 'Eimer', 'Kamera', 'Löffel', 'Telefon', 'Buch', 'Stift', 'Brille', 'Kette', 'Tasche']",337.6347489999989,337.6365313999995,None,,,337.6366521,337.6381249999995,None,337.6382300000005,343.64569709999887,3,343.64597779999895,343.6473007000004,343.64731310000025,343.6485111000002,0.923481300000276,None,,,,,,,,,,,,,,,,,,,,,,,,,,,,,,,,,,,,,,,,,,,,,,,,,1,2023-11-22_13h56.50.371,watkins1,2023.2.3,99.69085864676819,10,2023-11-22 13h56.58.285853 +0000,
,,,,,,,,,,,21,0,21,0,,,,,,,,,,,,,343.6551323999993,,,,,,,,,,343.64878879999924,344.14726410000003,,,3,1.1365567000011652,,,,,,,,,,,,None,None,,,,,,,,,,Kette,kurz,"['Kette', 'kurz']",restudy_diff,1,,,,,,343.64872540000033,343.6487632999997,"['Flasche', 'Jacke', 'Fahrrad', 'Kiste', 'Geige', 'Uhr', 'Schere', 'Rucksack', 'Hammer', 'Blume', 'Würfel', 'Socke', 'Lampe', 'Tasse', 'Eimer', 'Kamera', 'Löffel', 'Telefon', 'Buch', 'Stift', 'Brille', 'Kette', 'Tasche']",344.1472749000004,344.1499674000006,None,,,344.15008619999935,344.15283400000044,None,344.1529412,350.15893849999884,3,350.1592134000002,350.1604662999998,350.16047830000025,350.16152839999995,1.1365567000011652,None,,,,,,,,,,,,,,,,,,,,,,,,,,,,,,,,,,,,,,,,,,,,,,,,,1,2023-11-22_13h56.50.371,watkins1,2023.2.3,99.69085864676819,10,2023-11-22 13h56.58.285853 +0000,
,,,,,,,,,,,22,0,22,0,,,,,,,,,,,,,350.168379499999,,,,,,,,,,350.1617925999999,350.6603899999991,,,3,0.8638778999993519,,,,,,,,,,,,None,None,,,,,,,,,,Tasche,schwer,"['Tasche', 'schwer']",restudy_diff,1,,,,,,350.1617305999989,350.1617676999995,"['Flasche', 'Jacke', 'Fahrrad', 'Kiste', 'Geige', 'Uhr', 'Schere', 'Rucksack', 'Hammer', 'Blume', 'Würfel', 'Socke', 'Lampe', 'Tasse', 'Eimer', 'Kamera', 'Löffel', 'Telefon', 'Buch', 'Stift', 'Brille', 'Kette', 'Tasche']",350.6604005999998,350.66298689999894,None,,,350.6631078999999,350.66569100000015,None,350.66579769999953,356.6742185000003,3,356.67450459999964,356.67583319999903,356.67584519999946,356.6770285999992,0.8638778999993519,None,,,,,,,,,,,,,,,,,,,,,,,,,,,,,,,,,,,,,,,,,,,,,,,,,1,2023-11-22_13h56.50.371,watkins1,2023.2.3,99.69085864676819,10,2023-11-22 13h56.58.285853 +0000,
,,,,,,,,,,,,,,,,,,,,,,,,,,,,,,,,,,,,,,,,,,,,,,,,,,,,,,,,,,,,,,,,,,,,,1,,,,,,,,,,,,,,,,,,,,,,,,,,,,,,,,,,,,,,,,,,,,,,,,,,,,,,,,,,,,,,,,,,,,,,,,,,1,2023-11-22_13h56.50.371,watkins1,2023.2.3,99.69085864676819,10,2023-11-22 13h56.58.285853 +0000,
(80 : 10) + 9 = 17 ,Correct,button_correct,,,,,,,,,,,,,0,0,0,3,,,,,,,,,377.4539375000004,,,,,,,,376.42337289999887,377.42643469999894,,,,,['button_correct'],[3.587452800000392],,,,,,,,,,,,,,,,,,,,,,,,,,distractorTask,1,,,,,,,,,,,,,,,,,,,,,,,,,,377.44231819999914,377.4539375000004,381.0349004999989,[0.2916666666666667],[-0.37962962962962965],[1],[0],[0],[3.587452800000392],['button_correct'],381.0355932000002,382.0385127999998,,,,,,,,,,,,,,,,,,,,,,,,,,,,,,,,,,,,,1,2023-11-22_13h56.50.371,watkins1,2023.2.3,99.69085864676819,10,2023-11-22 13h56.58.285853 +0000,
(40 : 5) + 8 = 15 ,Incorrect,button_incorrect,,,,,,,,,,,,,0,1,1,7,,,,,,,,,382.0484527999997,,,,,,,,,,,,,,['button_incorrect'],[2.297613700000511],,,,,,,,,,,,,,,,,,,,,,,,,,distractorTask,1,,,,,,,,,,,,,,,,,,,,,,,,,,382.038709299999,382.0484527999997,384.3387118999999,[-0.27870370370370373],[-0.37962962962962965],[1],[0],[0],[2.297613700000511],['button_incorrect'],384.33910789999936,385.342311299999,,,,,,,,,,,,,,,,,,,,,,,,,,,,,,,,,,,,,1,2023-11-22_13h56.50.371,watkins1,2023.2.3,99.69085864676819,10,2023-11-22 13h56.58.285853 +0000,
(2 x 5) + 3 = 13 ,Correct,button_correct,,,,,,,,,,,,,0,2,2,2,,,,,,,,,385.35238430000027,,,,,,,,,,,,,,['button_correct'],[1.8747653999998874],,,,,,,,,,,,,,,,,,,,,,,,,,distractorTask,1,,,,,,,,,,,,,,,,,,,,,,,,,,385.3425186000004,385.35238430000027,387.22075589999986,[0.37222222222222223],[-0.3814814814814815],[1],[0],[0],[1.8747653999998874],['button_correct'],387.22115379999923,388.2242705999997,,,,,,,,,,,,,,,,,,,,,,,,,,,,,,,,,,,,,1,2023-11-22_13h56.50.371,watkins1,2023.2.3,99.69085864676819,10,2023-11-22 13h56.58.285853 +0000,
(25 : 5) + 5 = 9 ,Incorrect,button_incorrect,,,,,,,,,,,,,0,3,3,6,,,,,,,,,388.23435380000046,,,,,,,,,,,,,,['button_incorrect'],"[2.31831880000027, 2.790086599999995]",,,,,,,,,,,,,,,,,,,,,,,,,,distractorTask,1,,,,,,,,,,,,,,,,,,,,,,,,,,388.2244695999998,388.23435380000046,391.01629440000033,"[-0.4009259259259259, -0.3972222222222222]","[-0.37407407407407406, -0.3814814814814815]","[1, 1]","[0, 0]","[0, 0]","[2.31831880000027, 2.790086599999995]",['button_incorrect'],391.0167177000003,392.02029109999967,,,,,,,,,,,,,,,,,,,,,,,,,,,,,,,,,,,,,1,2023-11-22_13h56.50.371,watkins1,2023.2.3,99.69085864676819,10,2023-11-22 13h56.58.285853 +0000,
(9 x 5) - 9 = 36 ,Correct,button_correct,,,,,,,,,,,,,0,4,4,4,,,,,,,,,392.0302905999997,,,,,,,,,,,,,,['button_correct'],"[2.869226199998593, 3.823129799999151]",,,,,,,,,,,,,,,,,,,,,,,,,,distractorTask,1,,,,,,,,,,,,,,,,,,,,,,,,,,392.02048990000003,392.0302905999997,395.8463728000006,"[0.2861111111111111, 0.2814814814814815]","[-0.3731481481481482, -0.3824074074074074]","[1, 1]","[0, 0]","[0, 0]","[2.869226199998593, 3.823129799999151]",['button_correct'],395.84680259999914,396.8502303999994,,,,,,,,,,,,,,,,,,,,,,,,,,,,,,,,,,,,,1,2023-11-22_13h56.50.371,watkins1,2023.2.3,99.69085864676819,10,2023-11-22 13h56.58.285853 +0000,
(4 : 2) + 4 = 6 ,Correct,button_correct,,,,,,,,,,,,,0,5,5,1,,,,,,,,,396.8602074999999,,,,,,,,,,,,,,['button_correct'],[2.7802158999984385],,,,,,,,,,,,,,,,,,,,,,,,,,distractorTask,1,,,,,,,,,,,,,,,,,,,,,,,,,,396.85042819999944,396.8602074999999,399.6323530999998,[0.3490740740740741],[-0.3907407407407407],[1],[0],[0],[2.7802158999984385],['button_correct'],399.63274939999974,400.6369116999995,,,,,,,,,,,,,,,,,,,,,,,,,,,,,,,,,,,,,1,2023-11-22_13h56.50.371,watkins1,2023.2.3,99.69085864676819,10,2023-11-22 13h56.58.285853 +0000,
(7 x 6) + 9 = 48 ,Incorrect,button_incorrect,,,,,,,,,,,,,0,6,6,9,,,,,,,,,400.6468511000003,,,,,,,,,,,,,,['button_incorrect'],[2.9809824999992998],,,,,,,,,,,,,,,,,,,,,,,,,,distractorTask,1,,,,,,,,,,,,,,,,,,,,,,,,,,400.6371044999996,400.6468511000003,403.61980009999934,[-0.4074074074074074],[-0.39166666666666666],[1],[0],[0],[2.9809824999992998],['button_incorrect'],403.6203353000001,404.6235204000004,,,,,,,,,,,,,,,,,,,,,,,,,,,,,,,,,,,,,1,2023-11-22_13h56.50.371,watkins1,2023.2.3,99.69085864676819,10,2023-11-22 13h56.58.285853 +0000,
(54 : 6) - 10 = 0 ,Incorrect,button_incorrect,,,,,,,,,,,,,0,7,7,5,,,,,,,,,404.63350100000025,,,,,,,,,,,,,,['button_incorrect'],[2.137358199999653],,,,,,,,,,,,,,,,,,,,,,,,,,distractorTask,1,,,,,,,,,,,,,,,,,,,,,,,,,,404.6237165000002,404.63350100000025,406.7628091000006,[-0.2851851851851852],[-0.3851851851851852],[1],[0],[0],[2.137358199999653],['button_incorrect'],406.76320639999904,407.7664091000006,,,,,,,,,,,,,,,,,,,,,,,,,,,,,,,,,,,,,1,2023-11-22_13h56.50.371,watkins1,2023.2.3,99.69085864676819,10,2023-11-22 13h56.58.285853 +0000,
(28 : 7) - 3 = 1 ,Correct,button_correct,,,,,,,,,,,,,0,8,8,0,,,,,,,,,407.77649369999926,,,,,,,,,,,,,,['button_correct'],[2.247589099999459],,,,,,,,,,,,,,,,,,,,,,,,,,distractorTask,1,,,,,,,,,,,,,,,,,,,,,,,,,,407.766598799999,407.77649369999926,410.01615440000023,[0.337037037037037],[-0.3888888888888889],[1],[0],[0],[2.247589099999459],['button_correct'],410.0165536000004,411.01999219999925,,,,,,,,,,,,,,,,,,,,,,,,,,,,,,,,,,,,,1,2023-11-22_13h56.50.371,watkins1,2023.2.3,99.69085864676819,10,2023-11-22 13h56.58.285853 +0000,
(6 x 3) + 10 = 27 ,Incorrect,button_incorrect,,,,,,,,,,,,,0,9,9,8,,,,,,,,,411.02998130000014,,,,,,,,,,,,,,['button_incorrect'],[2.127224699999715],,,,,,,,,,,,,,,,,,,,,,,,,,distractorTask,1,,,,,,,,,,,,,,,,,,,,,,,,,,411.0201846,411.02998130000014,413.1492890999998,[-0.30648148148148147],[-0.38796296296296295],[1],[0],[0],[2.127224699999715],['button_incorrect'],413.1496853999997,414.15299760000016,,,,,,,,,,,,,,,,,,,,,,,,,,,,,,,,,,,,,1,2023-11-22_13h56.50.371,watkins1,2023.2.3,99.69085864676819,10,2023-11-22 13h56.58.285853 +0000,
,,,,,,,,,,,,,,,,,,,,,,,,,,,,,,,,,,,,,,,,,,,,,,,,,,,,,,,,,,,,,,,,,,,,,1,,,,,,,,,,,,,,,,,,,,,,,,,,,,,,,,,,,,,,,,,,,,,,,,,,,,,,,,,,,,,,,,,,,,,,,,,,1,2023-11-22_13h56.50.371,watkins1,2023.2.3,99.69085864676819,10,2023-11-22 13h56.58.285853 +0000,
,,,,,,,,,,,,,,,,,,,0,0,0,0,,,,,436.02261139999973,,,,,,,,,,,,,,Uhr,3.647581300001548,,,,,,,,,,,,2.469550199999503,None,,,,,,,,,,,,,freeRecallSub,1,,,,,,,,,,,,,,,,,,,,,,,,,,,,,,,,,,,,,,436.01400119999926,436.02261139999973,436.02261139999973,439.6778925999988,return,3.647581300001548,None,Uhr,[-0.08888888888888889],[0.049074074074074076],[1],[0],[0],[1.1031861000010394],[],,,,,,,,,,,,,,,,,,,,,,1,2023-11-22_13h56.50.371,watkins1,2023.2.3,99.69085864676819,10,2023-11-22 13h56.58.285853 +0000,
,,,,,,,,,,,,,,,,,,,1,0,1,0,,,,,439.68977950000044,,,,,,,,,,,,,,Tasche,3.8923504000013054,,,,,,,,,,,,0.8449753000004421,None,,,,,,,,,,,,,freeRecallSub,1,,,,,,,,,,,,,,,,,,,,,,,,,,,,,,,,,,,,,,439.6797456000004,439.68977950000044,439.68977950000044,443.5873793999999,return,3.8923504000013054,None,Tasche,[],[],[],[],[],[],[],,,,,,,,,,,,,,,,,,,,,,1,2023-11-22_13h56.50.371,watkins1,2023.2.3,99.69085864676819,10,2023-11-22 13h56.58.285853 +0000,
,,,,,,,,,,,,,,,,,,,2,0,2,0,,,,,443.59817809999913,,,,,,,,,,,,,,Telefon,10.455891400000837,,,,,,,,,,,,3.9663901000003534,4.468568799999048,,,,,,,,,,,,,freeRecallSub,1,,,,,,,,,,,,,,,,,,,,,,,,,,,,,,,,,,,,,,443.58869810000033,443.59817809999913,443.59817809999913,454.0620020999995,return,10.455891400000837,None,Telefon,[],[],[],[],[],[],[],,,,,,,,,,,,,,,,,,,,,,1,2023-11-22_13h56.50.371,watkins1,2023.2.3,99.69085864676819,10,2023-11-22 13h56.58.285853 +0000,
,,,,,,,,,,,,,,,,,,,3,0,3,0,,,,,454.0729071000005,,,,,,,,,,,,,,Geige,19.23722699999962,,,,,,,,,,,,16.17710310000075,None,,,,,,,,,,,,,freeRecallSub,1,,,,,,,,,,,,,,,,,,,,,,,,,,,,,,,,,,,,,,454.0633390999992,454.0729071000005,454.0729071000005,473.3133522999997,return,19.23722699999962,None,Geige,[],[],[],[],[],[],[],,,,,,,,,,,,,,,,,,,,,,1,2023-11-22_13h56.50.371,watkins1,2023.2.3,99.69085864676819,10,2023-11-22 13h56.58.285853 +0000,
,,,,,,,,,,,,,,,,,,,4,0,4,0,,,,,473.32421950000025,,,,,,,,,,,,,,Stift,10.233844000000317,,,,,,,,,,,,8.676350499999899,None,,,,,,,,,,,,,freeRecallSub,1,,,,,,,,,,,,,,,,,,,,,,,,,,,,,,,,,,,,,,473.3146706999996,473.32421950000025,473.32421950000025,483.5676631000006,return,10.233844000000317,None,Stift,[],[],[],[],[],[],[],,,,,,,,,,,,,,,,,,,,,,1,2023-11-22_13h56.50.371,watkins1,2023.2.3,99.69085864676819,10,2023-11-22 13h56.58.285853 +0000,
,,,,,,,,,,,,,,,,,,,5,0,5,0,,,,,483.5790586000003,,,,,,,,,,,,,,Tasse,12.426978999999847,,,,,,,,,,,,10.614471500000946,None,,,,,,,,,,,,,freeRecallSub,1,,,,,,,,,,,,,,,,,,,,,,,,,,,,,,,,,,,,,,483.56918509999923,483.5790586000003,483.5790586000003,496.01121349999994,return,12.426978999999847,None,Tasse,[],[],[],[],[],[],[],,,,,,,,,,,,,,,,,,,,,,1,2023-11-22_13h56.50.371,watkins1,2023.2.3,99.69085864676819,10,2023-11-22 13h56.58.285853 +0000,
,,,,,,,,,,,,,,,,,,,6,0,6,0,,,,,496.02194729999974,,,,,,,,,,,,,,Löffel,7.368080100000952,,,,,,,,,,,,4.9502025000001595,None,,,,,,,,,,,,,freeRecallSub,1,,,,,,,,,,,,,,,,,,,,,,,,,,,,,,,,,,,,,,496.0125255999992,496.02194729999974,496.02194729999974,503.3928341999999,return,7.368080100000952,None,Löffel,[],[],[],[],[],[],[],,,,,,,,,,,,,,,,,,,,,,1,2023-11-22_13h56.50.371,watkins1,2023.2.3,99.69085864676819,10,2023-11-22 13h56.58.285853 +0000,
,,,,,,,,,,,,,,,,,,,7,0,7,0,,,,,503.40492359999917,,,,,,,,,,,,,,Jacke,13.625060799999119,,,,,,,,,,,,12.413332300000548,None,,,,,,,,,,,,,freeRecallSub,1,,,,,,,,,,,,,,,,,,,,,,,,,,,,,,,,,,,,,,503.39434699999947,503.40492359999917,503.40492359999917,517.0327784000001,return,13.625060799999119,None,Jacke,[],[],[],[],[],[],[],,,,,,,,,,,,,,,,,,,,,,1,2023-11-22_13h56.50.371,watkins1,2023.2.3,99.69085864676819,10,2023-11-22 13h56.58.285853 +0000,
,,,,,,,,,,,,,,,,,,,8,0,8,0,,,,,517.044625999999,,,,,,,,,,,,,,Socke,3.929350799999156,,,,,,,,,,,,2.893756499999654,None,,,,,,,,,,,,,freeRecallSub,1,,,,,,,,,,,,,,,,,,,,,,,,,,,,,,,,,,,,,,517.0340888999999,517.044625999999,517.044625999999,520.9821226000004,return,3.929350799999156,None,Socke,[],[],[],[],[],[],[],,,,,,,,,,,,,,,,,,,,,,1,2023-11-22_13h56.50.371,watkins1,2023.2.3,99.69085864676819,10,2023-11-22 13h56.58.285853 +0000,
,,,,,,,,,,,,,,,,,,,9,0,9,0,,,,,520.9937699000002,,,,,,,,,,,,,,Eimer,3.924086499999248,,,,,,,,,,,,2.7427418999996007,None,,,,,,,,,,,,,freeRecallSub,1,,,,,,,,,,,,,,,,,,,,,,,,,,,,,,,,,,,,,,520.9834389999996,520.9937699000002,520.9937699000002,524.9213058000005,return,3.924086499999248,None,Eimer,[],[],[],[],[],[],[],,,,,,,,,,,,,,,,,,,,,,1,2023-11-22_13h56.50.371,watkins1,2023.2.3,99.69085864676819,10,2023-11-22 13h56.58.285853 +0000,
,,,,,,,,,,,,,,,,,,,10,0,10,0,,,,,524.9337904000004,,,,,,,,,,,,,,Schlüssel,13.248124600000665,,,,,,,,,,,,10.164849599999798,None,,,,,,,,,,,,,freeRecallSub,1,,,,,,,,,,,,,,,,,,,,,,,,,,,,,,,,,,,,,,524.9226354000002,524.9337904000004,524.9337904000004,538.1906569999992,return,13.248124600000665,None,Schlüssel,[],[],[],[],[],[],[],,,,,,,,,,,,,,,,,,,,,,1,2023-11-22_13h56.50.371,watkins1,2023.2.3,99.69085864676819,10,2023-11-22 13h56.58.285853 +0000,
,,,,,,,,,,,,,,,,,,,11,0,11,0,,,,,538.2033797999993,,,,,,,,,,,,,,Blume,25.01844019999953,,,,,,,,,,,,23.32152529999985,None,,,,,,,,,,,,,freeRecallSub,1,,,,,,,,,,,,,,,,,,,,,,,,,,,,,,,,,,,,,,538.1919794000005,538.2033797999993,538.2033797999993,563.2305235000003,return,25.01844019999953,None,Blume,[],[],[],[],[],[],[],,,,,,,,,,,,,,,,,,,,,,1,2023-11-22_13h56.50.371,watkins1,2023.2.3,99.69085864676819,10,2023-11-22 13h56.58.285853 +0000,
,,,,,,,,,,,,,,,,,,,12,0,12,0,,,,,563.2435528999995,,,,,,,,,,,,,,Schere,40.2102974999998,,,,,,,,,,,,37.18763890000082,None,,,,,,,,,,,,,freeRecallSub,1,,,,,,,,,,,,,,,,,,,,,,,,,,,,,,,,,,,,,,563.231851999999,563.2435528999995,563.2435528999995,603.4625025999994,return,40.2102974999998,None,Schere,[],[],[],[],[],[],[],,,,,,,,,,,,,,,,,,,,,,1,2023-11-22_13h56.50.371,watkins1,2023.2.3,99.69085864676819,10,2023-11-22 13h56.58.285853 +0000,
,,,,,,,,,,,,,,,,,,,13,0,13,0,,,,,603.4756445000003,,,,,,,,,,,,,,,[],,,,,,,,,,,,None,None,,,,,,,,,,,,,freeRecallSub,1,,,,,,,,,,,,,,,,,,,,,,,,,,,,,,,,,,,,,,603.4638384999998,603.4756445000003,603.4756445000003,627.3666042000004,None,,,,[0.5388888888888889],[-0.39351851851851855],[1],[0],[0],[23.8973404999997],"['button_continue', 'continue_text']",,,,,,,,,,,,,,,,,,,,,,1,2023-11-22_13h56.50.371,watkins1,2023.2.3,99.69085864676819,10,2023-11-22 13h56.58.285853 +0000,
,,,,,,,,,,,,,,,,,,,,,,,,,,,,,,,,,,,,,,,,,,,,,,,,,,,,,,,,,,,,,,,,,,,,,1,,,,,,,,,,,,,,,,,,,,,,,,,,,,,,,,,,,,,,,,,,,,,,,,,,,,,,,,,,,,,,,,,,,,,,,,,,1,2023-11-22_13h56.50.371,watkins1,2023.2.3,99.69085864676819,10,2023-11-22 13h56.58.285853 +0000,
,,,,,,,,,,,,,,,,,,,,,,,0,0,0,0,640.4248805999996,,,,,,,,,,674.7613103000003,675.2529032000002,,,gerade,9.020863100000497,,,,,,,,,,,,21.439177700000073,None,,,,,,,,,,Geige,,,cuedRecallAdj,1,,,,,,,,,,,,,,,,,,,,,,,,,,,,,,,,,,,,,,,,,,,,,,,,,,,,,640.4157491000005,640.4248805999996,0,640.4248805999996,649.4526437999994,zart,return,9.020863100000497,None,649.4530472000006,649.4622904999997,649.4622904999997,674.7609178999992,gerade,return,25.29537789999995,None,,,,,1,2023-11-22_13h56.50.371,watkins1,2023.2.3,99.69085864676819,10,2023-11-22 13h56.58.285853 +0000,
,,,,,,,,,,,,,,,,,,,,,,,1,0,1,0,675.2629321000004,,,,,,,,,,685.0476435,685.5391414000005,,,kaputt,7.606703599998582,,,,,,,,,,,,0.6621931999998196,None,,,,,,,,,,Löffel,,,cuedRecallAdj,1,,,,,,,,,,,,,,,,,,,,,,,,,,,,,,,,,,,,,,,,,,,,,,,,,,,,,675.2531564000001,675.2629321000004,0,675.2629321000004,682.8783626000004,nachhaltig,return,7.606703599998582,None,682.878634499999,682.8880281000002,682.8880281000002,685.0473720999998,kaputt,return,2.1496237000010296,None,,,,,1,2023-11-22_13h56.50.371,watkins1,2023.2.3,99.69085864676819,10,2023-11-22 13h56.58.285853 +0000,
,,,,,,,,,,,,,,,,,,,,,,,2,0,2,0,685.5490869999994,,,,,,,,,,687.4306359000002,687.9289002000005,,,,1.8726846000008663,,,,,,,,,,,,None,None,,,,,,,,,,Buch,,,cuedRecallAdj,1,,,,,,,,,,,,,,,,,,,,,,,,,,,,,,,,,,,,,,,,,,,,,,,,,,,,,685.5393858999996,685.5490869999994,0,685.5490869999994,687.4272284999988,gut,return,1.8726846000008663,None,687.4275006999997,687.4367409999995,687.4367409999995,687.4305318000006,,None,,,,,,,1,2023-11-22_13h56.50.371,watkins1,2023.2.3,99.69085864676819,10,2023-11-22 13h56.58.285853 +0000,
,,,,,,,,,,,,,,,,,,,,,,,3,0,3,0,687.9389546000002,,,,,,,,,,699.9989389999992,700.4904465,,,flauschig,8.354678800000329,,,,,,,,,,,,0.8830484000009164,None,,,,,,,,,,Telefon,,,cuedRecallAdj,1,,,,,,,,,,,,,,,,,,,,,,,,,,,,,,,,,,,,,,,,,,,,,,,,,,,,,687.9291408999998,687.9389546000002,0,687.9389546000002,696.3035899999995,krumm,return,8.354678800000329,None,696.3038629000002,696.3132955000001,696.3132955000001,699.9986640999996,flauschig,return,3.6763128000002325,None,,,,,1,2023-11-22_13h56.50.371,watkins1,2023.2.3,99.69085864676819,10,2023-11-22 13h56.58.285853 +0000,
,,,,,,,,,,,,,,,,,,,,,,,4,0,4,0,700.5005038999989,,,,,,,,,,707.6707384000001,708.1621255999999,,,biegsam,3.0891310000006342,,,,,,,,,,,,0.7423868000005314,None,,,,,,,,,,Tasche,,,cuedRecallAdj,1,,,,,,,,,,,,,,,,,,,,,,,,,,,,,,,,,,,,,,,,,,,,,,,,,,,,,700.4906900000005,700.5005038999989,0,700.5005038999989,703.5936421999995,schwer,return,3.0891310000006342,None,703.5939352000005,703.6032285000001,703.6032285000001,707.6704616999996,biegsam,return,4.066539099998408,None,,,,,1,2023-11-22_13h56.50.371,watkins1,2023.2.3,99.69085864676819,10,2023-11-22 13h56.58.285853 +0000,
,,,,,,,,,,,,,,,,,,,,,,,5,0,5,0,708.1720501999989,,,,,,,,,,710.123641799999,710.6222099000006,,,,1.9456004000003304,,,,,,,,,,,,None,None,,,,,,,,,,Vase,,,cuedRecallAdj,1,,,,,,,,,,,,,,,,,,,,,,,,,,,,,,,,,,,,,,,,,,,,,,,,,,,,,708.1623707999988,708.1720501999989,0,708.1720501999989,710.1206022000006,kalt,return,1.9456004000003304,None,710.1208757000004,710.1301679999997,710.1301679999997,710.1235373999989,,None,,,,,,,1,2023-11-22_13h56.50.371,watkins1,2023.2.3,99.69085864676819,10,2023-11-22 13h56.58.285853 +0000,
,,,,,,,,,,,,,,,,,,,,,,,6,0,6,0,710.6321664999996,,,,,,,,,,717.0923318999994,717.5909231000005,,,,6.453458599999067,,,,,,,,,,,,None,None,,,,,,,,,,Rucksack,,,cuedRecallAdj,1,,,,,,,,,,,,,,,,,,,,,,,,,,,,,,,,,,,,,,,,,,,,,,,,,,,,,710.6224526999995,710.6321664999996,0,710.6321664999996,717.0892096999996,rustikal,return,6.453458599999067,None,717.0894831999994,717.0987836000004,717.0987836000004,717.0922290999988,,None,,,,,,,1,2023-11-22_13h56.50.371,watkins1,2023.2.3,99.69085864676819,10,2023-11-22 13h56.58.285853 +0000,
,,,,,,,,,,,,,,,,,,,,,,,7,0,7,0,717.600864,,,,,,,,,,724.0983663999996,724.5897439,,,durchsichtig,2.7246565999994345,,,,,,,,,,,,0.7223795000008977,None,,,,,,,,,,Schere,,,cuedRecallAdj,1,,,,,,,,,,,,,,,,,,,,,,,,,,,,,,,,,,,,,,,,,,,,,,,,,,,,,717.5911713000005,717.600864,0,717.600864,720.3324427999996,bunt,return,2.7246565999994345,None,720.3327178999989,720.3420876,720.3420876,724.0980915,durchsichtig,return,3.7514714999997523,None,,,,,1,2023-11-22_13h56.50.371,watkins1,2023.2.3,99.69085864676819,10,2023-11-22 13h56.58.285853 +0000,
,,,,,,,,,,,,,,,,,,,,,,,8,0,8,0,724.5996599999999,,,,,,,,,,729.6311605999999,730.122507099999,,,kurz,3.17393439999978,,,,,,,,,,,,0.6120517999988806,None,,,,,,,,,,Kette,,,cuedRecallAdj,1,,,,,,,,,,,,,,,,,,,,,,,,,,,,,,,,,,,,,,,,,,,,,,,,,,,,,724.589987899999,724.5996599999999,0,724.5996599999999,727.7830011000005,nass,return,3.17393439999978,None,727.7832734999993,727.7928300000003,727.7928300000003,729.6308692999992,kurz,return,1.836705299998357,None,,,,,1,2023-11-22_13h56.50.371,watkins1,2023.2.3,99.69085864676819,10,2023-11-22 13h56.58.285853 +0000,
,,,,,,,,,,,,,,,,,,,,,,,9,0,9,0,730.1324531999999,,,,,,,,,,740.7567997000006,741.2481702999994,,,sauber,5.801081600000543,,,,,,,,,,,,3.6943723000003956,None,,,,,,,,,,Würfel,,,cuedRecallAdj,1,,,,,,,,,,,,,,,,,,,,,,,,,,,,,,,,,,,,,,,,,,,,,,,,,,,,,730.1227493000006,730.1324531999999,0,730.1324531999999,735.9367886,elegant,return,5.801081600000543,None,735.9370660999994,735.9463242000002,735.9463242000002,740.7565228000003,sauber,return,4.803247799998644,None,,,,,1,2023-11-22_13h56.50.371,watkins1,2023.2.3,99.69085864676819,10,2023-11-22 13h56.58.285853 +0000,
,,,,,,,,,,,,,,,,,,,,,,,10,0,10,0,741.2581061000001,,,,,,,,,,743.3003516999997,743.7985678000005,,,,2.03549380000004,,,,,,,,,,,,None,None,,,,,,,,,,Schlüssel,,,cuedRecallAdj,1,,,,,,,,,,,,,,,,,,,,,,,,,,,,,,,,,,,,,,,,,,,,,,,,,,,,,741.2484199999999,741.2581061000001,0,741.2581061000001,743.2969027999989,breit,return,2.03549380000004,None,743.2971756999996,743.3064130999992,743.3064130999992,743.3002464000001,,None,,,,,,,1,2023-11-22_13h56.50.371,watkins1,2023.2.3,99.69085864676819,10,2023-11-22 13h56.58.285853 +0000,
,,,,,,,,,,,,,,,,,,,,,,,11,0,11,0,743.8084756999997,,,,,,,,,,748.7623655999996,749.2609907000005,,,,4.949081099999603,,,,,,,,,,,,None,None,,,,,,,,,,Hut,,,cuedRecallAdj,1,,,,,,,,,,,,,,,,,,,,,,,,,,,,,,,,,,,,,,,,,,,,,,,,,,,,,743.7988119000001,743.8084756999997,0,743.8084756999997,748.7593269999998,klobig,return,4.949081099999603,None,748.7595994000003,748.7688469999994,748.7688469999994,748.7622608999991,,None,,,,,,,1,2023-11-22_13h56.50.371,watkins1,2023.2.3,99.69085864676819,10,2023-11-22 13h56.58.285853 +0000,
,,,,,,,,,,,,,,,,,,,,,,,12,0,12,0,749.2709942999991,,,,,,,,,,753.9743029000001,754.4725128999999,,,,4.694549800000459,,,,,,,,,,,,None,None,,,,,,,,,,Kerze,,,cuedRecallAdj,1,,,,,,,,,,,,,,,,,,,,,,,,,,,,,,,,,,,,,,,,,,,,,,,,,,,,,749.2612355000001,749.2709942999991,0,749.2709942999991,753.9708176999993,sportlich,return,4.694549800000459,None,753.971090699999,753.9804731999993,753.9804731999993,753.9741983000004,,None,,,,,,,1,2023-11-22_13h56.50.371,watkins1,2023.2.3,99.69085864676819,10,2023-11-22 13h56.58.285853 +0000,
,,,,,,,,,,,,,,,,,,,,,,,13,0,13,0,754.4824522999988,,,,,,,,,,795.0215160999996,795.5131084999994,,,,7.083061799999996,,,,,,,,,,,,33.448545600000216,None,,,,,,,,,,Socke,,,cuedRecallAdj,1,,,,,,,,,,,,,,,,,,,,,,,,,,,,,,,,,,,,,,,,,,,,,,,,,,,,,754.4727662000005,754.4824522999988,0,754.4824522999988,761.5721312000005,gestreift,return,7.083061799999996,None,761.5724057999996,761.5816593,761.5816593,795.0212403999994,,return,33.431757300000754,None,,,,,1,2023-11-22_13h56.50.371,watkins1,2023.2.3,99.69085864676819,10,2023-11-22 13h56.58.285853 +0000,
,,,,,,,,,,,,,,,,,,,,,,,14,0,14,0,795.5230556999995,,,,,,,,,,797.394045699999,797.8927944999996,,,,1.8663916000004974,,,,,,,,,,,,None,None,,,,,,,,,,Stift,,,cuedRecallAdj,1,,,,,,,,,,,,,,,,,,,,,,,,,,,,,,,,,,,,,,,,,,,,,,,,,,,,,795.5133599000001,795.5230556999995,0,795.5230556999995,797.3911822999999,neu,return,1.8663916000004974,None,797.3914537,797.4007287000004,797.4007287000004,797.3939399999999,,None,,,,,,,1,2023-11-22_13h56.50.371,watkins1,2023.2.3,99.69085864676819,10,2023-11-22 13h56.58.285853 +0000,
,,,,,,,,,,,,,,,,,,,,,,,15,0,15,0,797.9028474000006,,,,,,,,,,800.9987170000004,801.4976678999992,,,,3.0865636999988055,,,,,,,,,,,,None,None,,,,,,,,,,Uhr,,,cuedRecallAdj,1,,,,,,,,,,,,,,,,,,,,,,,,,,,,,,,,,,,,,,,,,,,,,,,,,,,,,797.8930409000004,797.9028474000006,0,797.9028474000006,800.9958527999988,lustig,return,3.0865636999988055,None,800.9961244000006,801.005484199999,801.005484199999,800.9986128,,None,,,,,,,1,2023-11-22_13h56.50.371,watkins1,2023.2.3,99.69085864676819,10,2023-11-22 13h56.58.285853 +0000,
,,,,,,,,,,,,,,,,,,,,,,,16,0,16,0,801.5076122999999,,,,,,,,,,818.3979980999993,818.8895185999991,,,,2.993786799999725,,,,,,,,,,,,13.886889900000824,None,,,,,,,,,,Jacke,,,cuedRecallAdj,1,,,,,,,,,,,,,,,,,,,,,,,,,,,,,,,,,,,,,,,,,,,,,,,,,,,,,801.4979134000005,801.5076122999999,0,801.5076122999999,804.5102795000003,schmutzig,return,2.993786799999725,None,804.5105507999997,804.519957999999,804.519957999999,818.3977212999998,,return,13.869467399999849,None,,,,,1,2023-11-22_13h56.50.371,watkins1,2023.2.3,99.69085864676819,10,2023-11-22 13h56.58.285853 +0000,
,,,,,,,,,,,,,,,,,,,,,,,17,0,17,0,818.8994710999996,,,,,,,,,,840.4994774999996,840.9907163999997,,,,21.345839999999953,,,,,,,,,,,,0.2503316000002087,None,,,,,,,,,,Tasse,,,cuedRecallAdj,1,,,,,,,,,,,,,,,,,,,,,,,,,,,,,,,,,,,,,,,,,,,,,,,,,,,,,818.8897598999993,818.8994710999996,0,818.8994710999996,840.2481435999998,dick,return,21.345839999999953,None,840.2484203000004,840.2577670999999,840.2577670999999,840.4992048000004,,return,0.2355743000007351,None,,,,,1,2023-11-22_13h56.50.371,watkins1,2023.2.3,99.69085864676819,10,2023-11-22 13h56.58.285853 +0000,
,,,,,,,,,,,,,,,,,,,,,,,18,0,18,0,841.0007721999991,,,,,,,,,,862.4904525000002,862.9816883999993,,,robust,8.044523799999297,,,,,,,,,,,,7.088576999998622,None,,,,,,,,,,Kamera,,,cuedRecallAdj,1,,,,,,,,,,,,,,,,,,,,,,,,,,,,,,,,,,,,,,,,,,,,,,,,,,,,,840.9909681999998,841.0007721999991,0,841.0007721999991,849.0546613999995,dunkel,return,8.044523799999297,None,849.0549343999992,849.0644210999999,849.0644210999999,862.4901773000001,robust,return,13.42082020000089,None,,,,,1,2023-11-22_13h56.50.371,watkins1,2023.2.3,99.69085864676819,10,2023-11-22 13h56.58.285853 +0000,
,,,,,,,,,,,,,,,,,,,,,,,19,0,19,0,862.9917391999988,,,,,,,,,,871.8587821000001,872.3500932999996,,,groß,6.917587600000843,,,,,,,,,,,,0.5716238999993948,None,,,,,,,,,,Lampe,,,cuedRecallAdj,1,,,,,,,,,,,,,,,,,,,,,,,,,,,,,,,,,,,,,,,,,,,,,,,,,,,,,862.981932499999,862.9917391999988,0,862.9917391999988,869.910563899999,praktisch,return,6.917587600000843,None,869.9108381000005,869.9200822999992,869.9200822999992,871.8585079999993,groß,return,1.933201799998642,None,,,,,1,2023-11-22_13h56.50.371,watkins1,2023.2.3,99.69085864676819,10,2023-11-22 13h56.58.285853 +0000,
,,,,,,,,,,,,,,,,,,,,,,,20,0,20,0,872.3600442999996,,,,,,,,,,879.5606485999997,880.0519827999997,,,gepunktet,2.8612511000010272,,,,,,,,,,,,0.5816979000010178,None,,,,,,,,,,Kiste,,,cuedRecallAdj,1,,,,,,,,,,,,,,,,,,,,,,,,,,,,,,,,,,,,,,,,,,,,,,,,,,,,,872.350343099999,872.3600442999996,0,872.3600442999996,875.2226123,hässlich,return,2.8612511000010272,None,875.222883299999,875.2321713999991,875.2321713999991,879.560375699999,gepunktet,return,4.325082699999257,None,,,,,1,2023-11-22_13h56.50.371,watkins1,2023.2.3,99.69085864676819,10,2023-11-22 13h56.58.285853 +0000,
,,,,,,,,,,,,,,,,,,,,,,,21,0,21,0,880.0620375999988,,,,,,,,,,938.1758171000001,938.6671157000001,,,,57.687092699999994,,,,,,,,,,,,0.4210894999996526,None,,,,,,,,,,Eimer,,,cuedRecallAdj,1,,,,,,,,,,,,,,,,,,,,,,,,,,,,,,,,,,,,,,,,,,,,,,,,,,,,,880.0522318999992,880.0620375999988,0,880.0620375999988,937.7537212999996,,return,57.687092699999994,None,937.7539959000005,937.7633193000001,937.7633193000001,938.1755434000006,,return,0.40988540000034845,None,,,,,1,2023-11-22_13h56.50.371,watkins1,2023.2.3,99.69085864676819,10,2023-11-22 13h56.58.285853 +0000,
,,,,,,,,,,,,,,,,,,,,,,,22,0,22,0,938.6770242999992,,,,,,,,,,950.8799646999996,951.3698014000001,,,,12.192211600000519,,,,,,,,,,,,None,None,,,,,,,,,,Hammer,,,cuedRecallAdj,1,,,,,,,,,,,,,,,,,,,,,,,,,,,,,,,,,,,,,,,,,,,,,,,,,,,,,938.667365199999,938.6770242999992,0,938.6770242999992,950.8780108999999,,return,12.192211600000519,None,950.878288599999,950.8877809000005,950.8877809000005,950.8798602999996,,None,,,,,,,1,2023-11-22_13h56.50.371,watkins1,2023.2.3,99.69085864676819,10,2023-11-22 13h56.58.285853 +0000,
,,,,,,,,,,,,,,,,,,,,,,,23,0,23,0,951.3797094000001,,,,,,,,,,956.1527323999999,956.6515901000002,,,,4.761379199999283,,,,,,,,,,,,None,None,,,,,,,,,,Fahrrad,,,cuedRecallAdj,1,,,,,,,,,,,,,,,,,,,,,,,,,,,,,,,,,,,,,,,,,,,,,,,,,,,,,951.3700470000003,951.3797094000001,0,951.3797094000001,956.1498195000004,lang,return,4.761379199999283,None,956.1500916000005,956.1595388999995,956.1595388999995,956.1526269000005,,None,,,,,,,1,2023-11-22_13h56.50.371,watkins1,2023.2.3,99.69085864676819,10,2023-11-22 13h56.58.285853 +0000,
,,,,,,,,,,,,,,,,,,,,,,,24,0,24,0,956.661535199999,,,,,,,,,,960.6512153999993,961.1502287999992,,,,3.983599099999992,,,,,,,,,,,,None,None,,,,,,,,,,Ring,,,cuedRecallAdj,1,,,,,,,,,,,,,,,,,,,,,,,,,,,,,,,,,,,,,,,,,,,,,,,,,,,,,956.6518388000004,956.661535199999,0,956.661535199999,960.6484450999997,hohl,return,3.983599099999992,None,960.6487197999995,960.6580924999998,960.6580924999998,960.6511105999998,,None,,,,,,,1,2023-11-22_13h56.50.371,watkins1,2023.2.3,99.69085864676819,10,2023-11-22 13h56.58.285853 +0000,
,,,,,,,,,,,,,,,,,,,,,,,25,0,25,0,961.1601687000002,,,,,,,,,,972.1574275000003,972.648991099999,,,strahlend,8.597037000001365,,,,,,,,,,,,0.7526297000003979,None,,,,,,,,,,Brille,,,cuedRecallAdj,1,,,,,,,,,,,,,,,,,,,,,,,,,,,,,,,,,,,,,,,,,,,,,,,,,,,,,961.1504764000001,961.1601687000002,0,961.1601687000002,969.7672681999993,hübsch,return,8.597037000001365,None,969.7675392000001,969.777082999999,969.777082999999,972.1571519999998,strahlend,return,2.3720361000014236,None,,,,,1,2023-11-22_13h56.50.371,watkins1,2023.2.3,99.69085864676819,10,2023-11-22 13h56.58.285853 +0000,
,,,,,,,,,,,,,,,,,,,,,,,26,0,26,0,972.658942,,,,,,,,,,976.4884333999998,976.9869116999998,,,,3.8181076000000758,,,,,,,,,,,,None,None,,,,,,,,,,Flasche,,,cuedRecallAdj,1,,,,,,,,,,,,,,,,,,,,,,,,,,,,,,,,,,,,,,,,,,,,,,,,,,,,,972.6492371000004,972.658942,0,972.658942,976.4850530000003,winzig,return,3.8181076000000758,None,976.4853256999995,976.4947659999998,976.4947659999998,976.488328899999,,None,,,,,,,1,2023-11-22_13h56.50.371,watkins1,2023.2.3,99.69085864676819,10,2023-11-22 13h56.58.285853 +0000,
,,,,,,,,,,,,,,,,,,,,,,,27,0,27,0,976.9968611000004,,,,,,,,,,980.0831923000005,980.581790799999,,,,3.0802650000005087,,,,,,,,,,,,None,None,,,,,,,,,,Bürste,,,cuedRecallAdj,1,,,,,,,,,,,,,,,,,,,,,,,,,,,,,,,,,,,,,,,,,,,,,,,,,,,,,976.9871573,976.9968611000004,0,976.9968611000004,980.0801102999994,kratzig,return,3.0802650000005087,None,980.0803837999993,980.0896680999995,980.0896680999995,980.0830874000003,,None,,,,,,,1,2023-11-22_13h56.50.371,watkins1,2023.2.3,99.69085864676819,10,2023-11-22 13h56.58.285853 +0000,
,,,,,,,,,,,,,,,,,,,,,,,28,0,28,0,980.5916978999994,,,,,,,,,,983.5873965999999,984.0862206999991,,,,2.9893508999994083,,,,,,,,,,,,None,None,,,,,,,,,,Trommel,,,cuedRecallAdj,1,,,,,,,,,,,,,,,,,,,,,,,,,,,,,,,,,,,,,,,,,,,,,,,,,,,,,980.5820523000002,980.5916978999994,0,980.5916978999994,983.5844711999998,teur,return,2.9893508999994083,None,983.5847445999989,983.5941313999992,983.5941313999992,983.5872928999997,,None,,,,,,,1,2023-11-22_13h56.50.371,watkins1,2023.2.3,99.69085864676819,10,2023-11-22 13h56.58.285853 +0000,
,,,,,,,,,,,,,,,,,,,,,,,29,0,29,0,984.0961083999991,,,,,,,,,,988.2767674999996,988.7754915999994,,,,4.172997899999245,,,,,,,,,,,,None,None,,,,,,,,,,Blume,,,cuedRecallAdj,1,,,,,,,,,,,,,,,,,,,,,,,,,,,,,,,,,,,,,,,,,,,,,,,,,,,,,984.0864640999989,984.0961083999991,0,984.0961083999991,988.2737515999997,flach,return,4.172997899999245,None,988.2740259999991,988.2832921999998,988.2832921999998,988.2766634,,None,,,,,,,1,2023-11-22_13h56.50.371,watkins1,2023.2.3,99.69085864676819,10,2023-11-22 13h56.58.285853 +0000,
,,,,,,,,,,,,,,,,,,,,,,,,,,,,,,,,,,,,,,,,,,,,,,,,,,,,,,,,,,,,,,,,,,,,,1,,,,,,,,,,,,,,,,,,,,,,,,,,,,,,,,,,,,,,,,,,,,,,,,,,,,,,,,,,,,,,,,,,,,,,988.7920541999993,q,1172.4746923999992,None,1,2023-11-22_13h56.50.371,watkins1,2023.2.3,99.69085864676819,10,2023-11-22 13h56.58.285853 +0000,
