Equation,CorrectResponse,Correctbutton,trials_7.thisRepN,trials_7.thisTrialN,trials_7.thisN,trials_7.thisIndex,trials.thisRepN,trials.thisTrialN,trials.thisN,trials.thisIndex,trials_3.thisRepN,trials_3.thisTrialN,trials_3.thisN,trials_3.thisIndex,trials_2.thisRepN,trials_2.thisTrialN,trials_2.thisN,trials_2.thisIndex,trials_4.thisRepN,trials_4.thisTrialN,trials_4.thisN,trials_4.thisIndex,trials_5.thisRepN,trials_5.thisTrialN,trials_5.thisN,trials_5.thisIndex,thisRow.t,notes,code_marius.started,code_marius.stopped,welcome.started,welcome.stopped,instruction_study.started,instruction_study.stopped,fixationcross.started,fixationcross.stopped,blanc.started,blanc.stopped,study_control_probe.started,study_control_probe.stopped,responseKey,responseTime,scale_answer_2.keys,study_control_probe_2.started,study_control_probe_2.stopped,scale_answer_3.keys,scale_answer_3.rt,scale_answer_3.duration,blanc_2.started,blanc_2.stopped,test_attr_probe.started,test_attr_probe.stopped,recalled_attr,firstKeyTime,secondWordTime,blanc_3.started,blanc_3.stopped,test_sub_probe.started,test_sub_probe.stopped,recalled_sub,instruction_probe_end.started,instruction_probe_end.stopped,study.started,study.stopped,substantive,adjective,wordpair,task,condition,liste_sub_phase1,liste_adj_phase1,scale_answer.keys,scale_answer.rt,scale_answer.duration,code_defineWordsInit.started,code_defineWordsInit.stopped,liste_sub_phase2,study_control.started,study_control.stopped,scale_answer_4.keys,scale_answer_4.rt,scale_answer_4.duration,restudy_same.started,restudy_same.stopped,scale_answer_5.keys,restudy_different.started,restudy_different.stopped,scale_answer_6.keys,test_attr.started,test_attr.stopped,test_sub.started,test_sub.stopped,scale_answer_6.rt,scale_answer_6.duration,distractortask.started,equation_text.started,distractortask.stopped,mouse_answer.x,mouse_answer.y,mouse_answer.leftButton,mouse_answer.midButton,mouse_answer.rightButton,mouse_answer.time,mouse_answer.clicked_name,feedback_distractortask.started,feedback_distractortask.stopped,free_recall.started,text_enter.started,key_resp.started,free_recall.stopped,key_resp.keys,key_resp.rt,key_resp.duration,free_recalled_sub,mouse_continue.x,mouse_continue.y,mouse_continue.leftButton,mouse_continue.midButton,mouse_continue.rightButton,mouse_continue.time,mouse_continue.clicked_name,cued_recall.started,text_enter_2.started,correct,key_continue.started,cued_recall.stopped,recalled_attr1,key_continue.keys,key_continue.rt,key_continue.duration,cued_recall_2.started,text_enter_3.started,key_continue_2.started,cued_recall_2.stopped,recalled_attr2,key_continue_2.keys,key_continue_2.rt,key_continue_2.duration,key_resp_8.started,key_resp_8.keys,key_resp_8.rt,key_resp_8.duration,condition,date,expName,psychopyVersion,frameRate,participant,expStart,
,,,,,,,,,,,,,,,,,,,,,,,,,,,,,0.10978439962491393,0.10986049985513091,0.10986860003322363,9.402319699991494,,,,,,,,,,,,,,,,,,,,,,,,,,,,,,,,,,,,,1,,,,,,,,,,,,,,,,,,,,,,,,,,,,,,,,,,,,,,,,,,,,,,,,,,,,,,,,,,,,,,,,,,,,,,,,,,1,2024-01-09_08h31.20.277,watkins1,2023.2.3,99.76873584248791,76,2024-01-09 08h31.28.358415 +0000,
,,,,,,,,,,,,,,,,,,,,,,,,,,,,,,,,,9.402367699891329,53.37007029959932,,,,,,,,,,,,,,,,,,,,,,,,,,,,,,,,,,,1,,,,,,,,,,,,,,,,,,,,,,,,,,,,,,,,,,,,,,,,,,,,,,,,,,,,,,,,,,,,,,,,,,,,,,,,,,1,2024-01-09_08h31.20.277,watkins1,2023.2.3,99.76873584248791,76,2024-01-09 08h31.28.358415 +0000,
,,,0,0,0,0,,,,,,,,,,,,,,,,,,,,,54.383670799899846,,,,,,,,53.370086199603975,54.3737152996473,60.87100399984047,61.3622955000028,54.86594759998843,60.870821999851614,2,3.4490110999904573,None,61.362305499613285,67.36540400004014,2,3.4490110999904573,None,67.36569539969787,67.36571999965236,67.36572699993849,67.3658049996011,,None,None,67.36596229998395,67.36599209997803,67.36599899968132,67.36607049964368,,,,,,,,,,1,,,,,,,,,,,,,,,,,,,,,,,,,,,,,,,,,,,,,,,,,,,,,,,,,,,,,,,,,,,,,,,,,,,,,,,,,,1,2024-01-09_08h31.20.277,watkins1,2023.2.3,99.76873584248791,76,2024-01-09 08h31.28.358415 +0000,
,,,,,,,,,,,,,,,,,,,,,,,,,,,,,,,,,,,,,,,,,,,,,,,,,,,,,,,,,,,,,67.3661799998954,71.45888899965212,,,,,,,1,,,,,,,,,,,,,,,,,,,,,,,,,,,,,,,,,,,,,,,,,,,,,,,,,,,,,,,,,,,,,,,,,,,,,,,,,,1,2024-01-09_08h31.20.277,watkins1,2023.2.3,99.76873584248791,76,2024-01-09 08h31.28.358415 +0000,
,,,,,,,0,0,0,0,,,,,,,,,,,,,,,,,72.4724713996984,,,,,,,,71.45890509989113,72.46249429974705,72.46294059976935,72.95511999959126,,,1,2.617765000090003,,,,,,,,,,,,,,,,,,,,,72.95513110002503,78.9646528000012,Hut,matt,"['Hut', 'matt']",restudy_diff,1,"['Hut', 'Blume', 'Ring', 'Schlüssel', 'Jacke', 'Kerze', 'Buch', 'Bürste', 'Rucksack', 'Brille', 'Tasse', 'Kamera', 'Schere', 'Geige', 'Eimer', 'Telefon', 'Lampe', 'Vase', 'Kiste', 'Stift', 'Löffel', 'Tasche']",['matt'],1,2.617765000090003,None,,,,,,,,,,,,,,,,,,,,,,,,,,,,,,,,,,,,,,,,,,,,,,,,,,,,,,,,,,,,,,,,,,,,,1,2024-01-09_08h31.20.277,watkins1,2023.2.3,99.76873584248791,76,2024-01-09 08h31.28.358415 +0000,
,,,,,,,1,0,1,0,,,,,,,,,,,,,,,,,78.97406739974394,,,,,,,,,,78.96523319976404,79.4560701996088,,,2,3.814650199841708,,,,,,,,,,,,,,,,,,,,,79.45608099969104,85.46334169991314,Blume,schwer,"['Blume', 'schwer']",restudy_diff,1,"['Hut', 'Blume', 'Ring', 'Schlüssel', 'Jacke', 'Kerze', 'Buch', 'Bürste', 'Rucksack', 'Brille', 'Tasse', 'Kamera', 'Schere', 'Geige', 'Eimer', 'Telefon', 'Lampe', 'Vase', 'Kiste', 'Stift', 'Löffel', 'Tasche']","['matt', 'schwer']",2,3.814650199841708,None,,,,,,,,,,,,,,,,,,,,,,,,,,,,,,,,,,,,,,,,,,,,,,,,,,,,,,,,,,,,,,,,,,,,,1,2024-01-09_08h31.20.277,watkins1,2023.2.3,99.76873584248791,76,2024-01-09 08h31.28.358415 +0000,
,,,,,,,2,0,2,0,,,,,,,,,,,,,,,,,85.47273479960859,,,,,,,,,,85.46382179995999,85.95481649972498,,,3,2.676924599800259,,,,,,,,,,,,,,,,,,,,,85.95482799969614,91.96489749988541,Ring,sportlich,"['Ring', 'sportlich']",control,1,"['Hut', 'Blume', 'Ring', 'Schlüssel', 'Jacke', 'Kerze', 'Buch', 'Bürste', 'Rucksack', 'Brille', 'Tasse', 'Kamera', 'Schere', 'Geige', 'Eimer', 'Telefon', 'Lampe', 'Vase', 'Kiste', 'Stift', 'Löffel', 'Tasche']","['matt', 'schwer', 'sportlich']",3,2.676924599800259,None,,,,,,,,,,,,,,,,,,,,,,,,,,,,,,,,,,,,,,,,,,,,,,,,,,,,,,,,,,,,,,,,,,,,,1,2024-01-09_08h31.20.277,watkins1,2023.2.3,99.76873584248791,76,2024-01-09 08h31.28.358415 +0000,
,,,,,,,3,0,3,0,,,,,,,,,,,,,,,,,91.97430929960683,,,,,,,,,,91.96537650004029,92.45642279973254,,,1,2.728345100302249,,,,,,,,,,,,,,,,,,,,,92.45643339958042,98.46419780002907,Schlüssel,lustig,"['Schlüssel', 'lustig']",restudy_diff,1,"['Hut', 'Blume', 'Ring', 'Schlüssel', 'Jacke', 'Kerze', 'Buch', 'Bürste', 'Rucksack', 'Brille', 'Tasse', 'Kamera', 'Schere', 'Geige', 'Eimer', 'Telefon', 'Lampe', 'Vase', 'Kiste', 'Stift', 'Löffel', 'Tasche']","['matt', 'schwer', 'sportlich', 'lustig']",1,2.728345100302249,None,,,,,,,,,,,,,,,,,,,,,,,,,,,,,,,,,,,,,,,,,,,,,,,,,,,,,,,,,,,,,,,,,,,,,1,2024-01-09_08h31.20.277,watkins1,2023.2.3,99.76873584248791,76,2024-01-09 08h31.28.358415 +0000,
,,,,,,,4,0,4,0,,,,,,,,,,,,,,,,,98.47300109965727,,,,,,,,,,98.46471560001373,98.95562919974327,,,2,3.0447328998707235,,,,,,,,,,,,,,,,,,,,,98.95564009994268,104.96283059986308,Jacke,klobig,"['Jacke', 'klobig']",control,1,"['Hut', 'Blume', 'Ring', 'Schlüssel', 'Jacke', 'Kerze', 'Buch', 'Bürste', 'Rucksack', 'Brille', 'Tasse', 'Kamera', 'Schere', 'Geige', 'Eimer', 'Telefon', 'Lampe', 'Vase', 'Kiste', 'Stift', 'Löffel', 'Tasche']","['matt', 'schwer', 'sportlich', 'lustig', 'klobig']",2,3.0447328998707235,None,,,,,,,,,,,,,,,,,,,,,,,,,,,,,,,,,,,,,,,,,,,,,,,,,,,,,,,,,,,,,,,,,,,,,1,2024-01-09_08h31.20.277,watkins1,2023.2.3,99.76873584248791,76,2024-01-09 08h31.28.358415 +0000,
,,,,,,,5,0,5,0,,,,,,,,,,,,,,,,,104.97229969967157,,,,,,,,,,104.96329799992964,105.45435949973762,,,1,3.338045900221914,,,,,,,,,,,,,,,,,,,,,105.45437079994008,111.461722899694,Kerze,flach,"['Kerze', 'flach']",restudy_diff,1,"['Hut', 'Blume', 'Ring', 'Schlüssel', 'Jacke', 'Kerze', 'Buch', 'Bürste', 'Rucksack', 'Brille', 'Tasse', 'Kamera', 'Schere', 'Geige', 'Eimer', 'Telefon', 'Lampe', 'Vase', 'Kiste', 'Stift', 'Löffel', 'Tasche']","['matt', 'schwer', 'sportlich', 'lustig', 'klobig', 'flach']",1,3.338045900221914,None,,,,,,,,,,,,,,,,,,,,,,,,,,,,,,,,,,,,,,,,,,,,,,,,,,,,,,,,,,,,,,,,,,,,,1,2024-01-09_08h31.20.277,watkins1,2023.2.3,99.76873584248791,76,2024-01-09 08h31.28.358415 +0000,
,,,,,,,6,0,6,0,,,,,,,,,,,,,,,,,111.47113729966804,,,,,,,,,,111.46221769973636,111.95320410002023,,,1,1.8328631999902427,,,,,,,,,,,,,,,,,,,,,111.9532162998803,117.96252479963005,Buch,winzig,"['Buch', 'winzig']",restudy_diff,1,"['Hut', 'Blume', 'Ring', 'Schlüssel', 'Jacke', 'Kerze', 'Buch', 'Bürste', 'Rucksack', 'Brille', 'Tasse', 'Kamera', 'Schere', 'Geige', 'Eimer', 'Telefon', 'Lampe', 'Vase', 'Kiste', 'Stift', 'Löffel', 'Tasche']","['matt', 'schwer', 'sportlich', 'lustig', 'klobig', 'flach', 'winzig']",1,1.8328631999902427,None,,,,,,,,,,,,,,,,,,,,,,,,,,,,,,,,,,,,,,,,,,,,,,,,,,,,,,,,,,,,,,,,,,,,,1,2024-01-09_08h31.20.277,watkins1,2023.2.3,99.76873584248791,76,2024-01-09 08h31.28.358415 +0000,
,,,,,,,7,0,7,0,,,,,,,,,,,,,,,,,117.97200409974903,,,,,,,,,,117.96299879997969,118.45400939974934,,,3,3.7551819998770952,,,,,,,,,,,,,,,,,,,,,118.45401959959418,124.45739719970152,Bürste,strahlend,"['Bürste', 'strahlend']",control,1,"['Hut', 'Blume', 'Ring', 'Schlüssel', 'Jacke', 'Kerze', 'Buch', 'Bürste', 'Rucksack', 'Brille', 'Tasse', 'Kamera', 'Schere', 'Geige', 'Eimer', 'Telefon', 'Lampe', 'Vase', 'Kiste', 'Stift', 'Löffel', 'Tasche']","['matt', 'schwer', 'sportlich', 'lustig', 'klobig', 'flach', 'winzig', 'strahlend']",3,3.7551819998770952,None,,,,,,,,,,,,,,,,,,,,,,,,,,,,,,,,,,,,,,,,,,,,,,,,,,,,,,,,,,,,,,,,,,,,,1,2024-01-09_08h31.20.277,watkins1,2023.2.3,99.76873584248791,76,2024-01-09 08h31.28.358415 +0000,
,,,,,,,8,0,8,0,,,,,,,,,,,,,,,,,124.46673019975424,,,,,,,,,,124.45788150001317,124.94888099981472,,,1,3.7321180002763867,,,,,,,,,,,,,,,,,,,,,124.94889199966565,130.9501578998752,Rucksack,verspielt,"['Rucksack', 'verspielt']",restudy_diff,1,"['Hut', 'Blume', 'Ring', 'Schlüssel', 'Jacke', 'Kerze', 'Buch', 'Bürste', 'Rucksack', 'Brille', 'Tasse', 'Kamera', 'Schere', 'Geige', 'Eimer', 'Telefon', 'Lampe', 'Vase', 'Kiste', 'Stift', 'Löffel', 'Tasche']","['matt', 'schwer', 'sportlich', 'lustig', 'klobig', 'flach', 'winzig', 'strahlend', 'verspielt']",1,3.7321180002763867,None,,,,,,,,,,,,,,,,,,,,,,,,,,,,,,,,,,,,,,,,,,,,,,,,,,,,,,,,,,,,,,,,,,,,,1,2024-01-09_08h31.20.277,watkins1,2023.2.3,99.76873584248791,76,2024-01-09 08h31.28.358415 +0000,
,,,,,,,9,0,9,0,,,,,,,,,,,,,,,,,130.95963619975373,,,,,,,,,,130.95063429977745,131.4418493998237,,,1,3.151843899860978,,,,,,,,,,,,,,,,,,,,,131.44185999967158,137.45178439980373,Brille,nachhaltig,"['Brille', 'nachhaltig']",restudy_diff,1,"['Hut', 'Blume', 'Ring', 'Schlüssel', 'Jacke', 'Kerze', 'Buch', 'Bürste', 'Rucksack', 'Brille', 'Tasse', 'Kamera', 'Schere', 'Geige', 'Eimer', 'Telefon', 'Lampe', 'Vase', 'Kiste', 'Stift', 'Löffel', 'Tasche']","['matt', 'schwer', 'sportlich', 'lustig', 'klobig', 'flach', 'winzig', 'strahlend', 'verspielt', 'nachhaltig']",1,3.151843899860978,None,,,,,,,,,,,,,,,,,,,,,,,,,,,,,,,,,,,,,,,,,,,,,,,,,,,,,,,,,,,,,,,,,,,,,1,2024-01-09_08h31.20.277,watkins1,2023.2.3,99.76873584248791,76,2024-01-09 08h31.28.358415 +0000,
,,,,,,,10,0,10,0,,,,,,,,,,,,,,,,,137.4612372997217,,,,,,,,,,137.45224320003763,137.94316499959677,,,3,1.9140964997932315,,,,,,,,,,,,,,,,,,,,,137.94317629979923,143.9519476997666,Tasse,praktisch,"['Tasse', 'praktisch']",control,1,"['Hut', 'Blume', 'Ring', 'Schlüssel', 'Jacke', 'Kerze', 'Buch', 'Bürste', 'Rucksack', 'Brille', 'Tasse', 'Kamera', 'Schere', 'Geige', 'Eimer', 'Telefon', 'Lampe', 'Vase', 'Kiste', 'Stift', 'Löffel', 'Tasche']","['matt', 'schwer', 'sportlich', 'lustig', 'klobig', 'flach', 'winzig', 'strahlend', 'verspielt', 'nachhaltig', 'praktisch']",3,1.9140964997932315,None,,,,,,,,,,,,,,,,,,,,,,,,,,,,,,,,,,,,,,,,,,,,,,,,,,,,,,,,,,,,,,,,,,,,,1,2024-01-09_08h31.20.277,watkins1,2023.2.3,99.76873584248791,76,2024-01-09 08h31.28.358415 +0000,
,,,,,,,11,0,11,0,,,,,,,,,,,,,,,,,143.96132420003414,,,,,,,,,,143.95242409966886,144.44330139970407,,,1,1.7183882999233902,,,,,,,,,,,,,,,,,,,,,144.44331229990348,150.44936480000615,Kamera,glatt,"['Kamera', 'glatt']",restudy_diff,1,"['Hut', 'Blume', 'Ring', 'Schlüssel', 'Jacke', 'Kerze', 'Buch', 'Bürste', 'Rucksack', 'Brille', 'Tasse', 'Kamera', 'Schere', 'Geige', 'Eimer', 'Telefon', 'Lampe', 'Vase', 'Kiste', 'Stift', 'Löffel', 'Tasche']","['matt', 'schwer', 'sportlich', 'lustig', 'klobig', 'flach', 'winzig', 'strahlend', 'verspielt', 'nachhaltig', 'praktisch', 'glatt']",1,1.7183882999233902,None,,,,,,,,,,,,,,,,,,,,,,,,,,,,,,,,,,,,,,,,,,,,,,,,,,,,,,,,,,,,,,,,,,,,,1,2024-01-09_08h31.20.277,watkins1,2023.2.3,99.76873584248791,76,2024-01-09 08h31.28.358415 +0000,
,,,,,,,12,0,12,0,,,,,,,,,,,,,,,,,150.45878799958155,,,,,,,,,,150.44983509974554,150.94079079991207,,,3,1.6681980998255312,,,,,,,,,,,,,,,,,,,,,150.94080189988017,156.94192119967192,Schere,groß,"['Schere', 'groß']",restudy_diff,1,"['Hut', 'Blume', 'Ring', 'Schlüssel', 'Jacke', 'Kerze', 'Buch', 'Bürste', 'Rucksack', 'Brille', 'Tasse', 'Kamera', 'Schere', 'Geige', 'Eimer', 'Telefon', 'Lampe', 'Vase', 'Kiste', 'Stift', 'Löffel', 'Tasche']","['matt', 'schwer', 'sportlich', 'lustig', 'klobig', 'flach', 'winzig', 'strahlend', 'verspielt', 'nachhaltig', 'praktisch', 'glatt', 'groß']",3,1.6681980998255312,None,,,,,,,,,,,,,,,,,,,,,,,,,,,,,,,,,,,,,,,,,,,,,,,,,,,,,,,,,,,,,,,,,,,,,1,2024-01-09_08h31.20.277,watkins1,2023.2.3,99.76873584248791,76,2024-01-09 08h31.28.358415 +0000,
,,,,,,,13,0,13,0,,,,,,,,,,,,,,,,,156.95136309973896,,,,,,,,,,156.9423934998922,157.43326959991828,,,1,1.5197620997205377,,,,,,,,,,,,,,,,,,,,,157.43328009964898,163.43651369959116,Geige,kurz,"['Geige', 'kurz']",restudy_diff,1,"['Hut', 'Blume', 'Ring', 'Schlüssel', 'Jacke', 'Kerze', 'Buch', 'Bürste', 'Rucksack', 'Brille', 'Tasse', 'Kamera', 'Schere', 'Geige', 'Eimer', 'Telefon', 'Lampe', 'Vase', 'Kiste', 'Stift', 'Löffel', 'Tasche']","['matt', 'schwer', 'sportlich', 'lustig', 'klobig', 'flach', 'winzig', 'strahlend', 'verspielt', 'nachhaltig', 'praktisch', 'glatt', 'groß', 'kurz']",1,1.5197620997205377,None,,,,,,,,,,,,,,,,,,,,,,,,,,,,,,,,,,,,,,,,,,,,,,,,,,,,,,,,,,,,,,,,,,,,,1,2024-01-09_08h31.20.277,watkins1,2023.2.3,99.76873584248791,76,2024-01-09 08h31.28.358415 +0000,
,,,,,,,14,0,14,0,,,,,,,,,,,,,,,,,163.4459250997752,,,,,,,,,,163.4369884999469,163.927885199897,,,1,1.4166309996508062,,,,,,,,,,,,,,,,,,,,,163.9278962998651,169.93432129966095,Eimer,hübsch,"['Eimer', 'hübsch']",restudy_diff,1,"['Hut', 'Blume', 'Ring', 'Schlüssel', 'Jacke', 'Kerze', 'Buch', 'Bürste', 'Rucksack', 'Brille', 'Tasse', 'Kamera', 'Schere', 'Geige', 'Eimer', 'Telefon', 'Lampe', 'Vase', 'Kiste', 'Stift', 'Löffel', 'Tasche']","['matt', 'schwer', 'sportlich', 'lustig', 'klobig', 'flach', 'winzig', 'strahlend', 'verspielt', 'nachhaltig', 'praktisch', 'glatt', 'groß', 'kurz', 'hübsch']",1,1.4166309996508062,None,,,,,,,,,,,,,,,,,,,,,,,,,,,,,,,,,,,,,,,,,,,,,,,,,,,,,,,,,,,,,,,,,,,,,1,2024-01-09_08h31.20.277,watkins1,2023.2.3,99.76873584248791,76,2024-01-09 08h31.28.358415 +0000,
,,,,,,,15,0,15,0,,,,,,,,,,,,,,,,,169.9437392000109,,,,,,,,,,169.9348063999787,170.42577069997787,,,1,2.7362631000578403,,,,,,,,,,,,,,,,,,,,,170.42578159971163,176.43491899967194,Telefon,breit,"['Telefon', 'breit']",restudy_diff,1,"['Hut', 'Blume', 'Ring', 'Schlüssel', 'Jacke', 'Kerze', 'Buch', 'Bürste', 'Rucksack', 'Brille', 'Tasse', 'Kamera', 'Schere', 'Geige', 'Eimer', 'Telefon', 'Lampe', 'Vase', 'Kiste', 'Stift', 'Löffel', 'Tasche']","['matt', 'schwer', 'sportlich', 'lustig', 'klobig', 'flach', 'winzig', 'strahlend', 'verspielt', 'nachhaltig', 'praktisch', 'glatt', 'groß', 'kurz', 'hübsch', 'breit']",1,2.7362631000578403,None,,,,,,,,,,,,,,,,,,,,,,,,,,,,,,,,,,,,,,,,,,,,,,,,,,,,,,,,,,,,,,,,,,,,,1,2024-01-09_08h31.20.277,watkins1,2023.2.3,99.76873584248791,76,2024-01-09 08h31.28.358415 +0000,
,,,,,,,16,0,16,0,,,,,,,,,,,,,,,,,176.44436910003424,,,,,,,,,,176.43539409991354,176.92633249983191,,,3,1.8186432998627424,,,,,,,,,,,,,,,,,,,,,176.92634349968284,182.92744500003755,Lampe,robust,"['Lampe', 'robust']",control,1,"['Hut', 'Blume', 'Ring', 'Schlüssel', 'Jacke', 'Kerze', 'Buch', 'Bürste', 'Rucksack', 'Brille', 'Tasse', 'Kamera', 'Schere', 'Geige', 'Eimer', 'Telefon', 'Lampe', 'Vase', 'Kiste', 'Stift', 'Löffel', 'Tasche']","['matt', 'schwer', 'sportlich', 'lustig', 'klobig', 'flach', 'winzig', 'strahlend', 'verspielt', 'nachhaltig', 'praktisch', 'glatt', 'groß', 'kurz', 'hübsch', 'breit', 'robust']",3,1.8186432998627424,None,,,,,,,,,,,,,,,,,,,,,,,,,,,,,,,,,,,,,,,,,,,,,,,,,,,,,,,,,,,,,,,,,,,,,1,2024-01-09_08h31.20.277,watkins1,2023.2.3,99.76873584248791,76,2024-01-09 08h31.28.358415 +0000,
,,,,,,,17,0,17,0,,,,,,,,,,,,,,,,,182.93686269968748,,,,,,,,,,182.9279147000052,183.41994549985975,,,3,1.7410799995996058,,,,,,,,,,,,,,,,,,,,,183.419956299942,189.42381649976596,Vase,gepunktet,"['Vase', 'gepunktet']",restudy_diff,1,"['Hut', 'Blume', 'Ring', 'Schlüssel', 'Jacke', 'Kerze', 'Buch', 'Bürste', 'Rucksack', 'Brille', 'Tasse', 'Kamera', 'Schere', 'Geige', 'Eimer', 'Telefon', 'Lampe', 'Vase', 'Kiste', 'Stift', 'Löffel', 'Tasche']","['matt', 'schwer', 'sportlich', 'lustig', 'klobig', 'flach', 'winzig', 'strahlend', 'verspielt', 'nachhaltig', 'praktisch', 'glatt', 'groß', 'kurz', 'hübsch', 'breit', 'robust', 'gepunktet']",3,1.7410799995996058,None,,,,,,,,,,,,,,,,,,,,,,,,,,,,,,,,,,,,,,,,,,,,,,,,,,,,,,,,,,,,,,,,,,,,,1,2024-01-09_08h31.20.277,watkins1,2023.2.3,99.76873584248791,76,2024-01-09 08h31.28.358415 +0000,
,,,,,,,18,0,18,0,,,,,,,,,,,,,,,,,189.43317649979144,,,,,,,,,,189.4242856996134,189.9152690996416,,,2,1.9907022002153099,,,,,,,,,,,,,,,,,,,,,189.91528009995818,195.92491899989545,Kiste,dick,"['Kiste', 'dick']",control,1,"['Hut', 'Blume', 'Ring', 'Schlüssel', 'Jacke', 'Kerze', 'Buch', 'Bürste', 'Rucksack', 'Brille', 'Tasse', 'Kamera', 'Schere', 'Geige', 'Eimer', 'Telefon', 'Lampe', 'Vase', 'Kiste', 'Stift', 'Löffel', 'Tasche']","['matt', 'schwer', 'sportlich', 'lustig', 'klobig', 'flach', 'winzig', 'strahlend', 'verspielt', 'nachhaltig', 'praktisch', 'glatt', 'groß', 'kurz', 'hübsch', 'breit', 'robust', 'gepunktet', 'dick']",2,1.9907022002153099,None,,,,,,,,,,,,,,,,,,,,,,,,,,,,,,,,,,,,,,,,,,,,,,,,,,,,,,,,,,,,,,,,,,,,,1,2024-01-09_08h31.20.277,watkins1,2023.2.3,99.76873584248791,76,2024-01-09 08h31.28.358415 +0000,
,,,,,,,19,0,19,0,,,,,,,,,,,,,,,,,195.93433459987864,,,,,,,,,,195.92540539987385,196.41637909971178,,,3,1.5054919002577662,,,,,,,,,,,,,,,,,,,,,196.41638930002227,202.41824049968272,Stift,neu,"['Stift', 'neu']",restudy_diff,1,"['Hut', 'Blume', 'Ring', 'Schlüssel', 'Jacke', 'Kerze', 'Buch', 'Bürste', 'Rucksack', 'Brille', 'Tasse', 'Kamera', 'Schere', 'Geige', 'Eimer', 'Telefon', 'Lampe', 'Vase', 'Kiste', 'Stift', 'Löffel', 'Tasche']","['matt', 'schwer', 'sportlich', 'lustig', 'klobig', 'flach', 'winzig', 'strahlend', 'verspielt', 'nachhaltig', 'praktisch', 'glatt', 'groß', 'kurz', 'hübsch', 'breit', 'robust', 'gepunktet', 'dick', 'neu']",3,1.5054919002577662,None,,,,,,,,,,,,,,,,,,,,,,,,,,,,,,,,,,,,,,,,,,,,,,,,,,,,,,,,,,,,,,,,,,,,,1,2024-01-09_08h31.20.277,watkins1,2023.2.3,99.76873584248791,76,2024-01-09 08h31.28.358415 +0000,
,,,,,,,20,0,20,0,,,,,,,,,,,,,,,,,202.42758529959247,,,,,,,,,,202.41872039996088,202.91013479977846,,,1,1.4668282000347972,,,,,,,,,,,,,,,,,,,,,202.91014529997483,208.91865309979767,Löffel,niedlich,"['Löffel', 'niedlich']",control,1,"['Hut', 'Blume', 'Ring', 'Schlüssel', 'Jacke', 'Kerze', 'Buch', 'Bürste', 'Rucksack', 'Brille', 'Tasse', 'Kamera', 'Schere', 'Geige', 'Eimer', 'Telefon', 'Lampe', 'Vase', 'Kiste', 'Stift', 'Löffel', 'Tasche']","['matt', 'schwer', 'sportlich', 'lustig', 'klobig', 'flach', 'winzig', 'strahlend', 'verspielt', 'nachhaltig', 'praktisch', 'glatt', 'groß', 'kurz', 'hübsch', 'breit', 'robust', 'gepunktet', 'dick', 'neu', 'niedlich']",1,1.4668282000347972,None,,,,,,,,,,,,,,,,,,,,,,,,,,,,,,,,,,,,,,,,,,,,,,,,,,,,,,,,,,,,,,,,,,,,,1,2024-01-09_08h31.20.277,watkins1,2023.2.3,99.76873584248791,76,2024-01-09 08h31.28.358415 +0000,
,,,,,,,21,0,21,0,,,,,,,,,,,,,,,,,208.9280224996619,,,,,,,,,,208.91912259999663,209.41007969994098,,,1,2.1036843000911176,,,,,,,,,,,,,,,,,,,,,209.41009090002626,215.41978329978883,Tasche,blass,"['Tasche', 'blass']",restudy_diff,1,"['Hut', 'Blume', 'Ring', 'Schlüssel', 'Jacke', 'Kerze', 'Buch', 'Bürste', 'Rucksack', 'Brille', 'Tasse', 'Kamera', 'Schere', 'Geige', 'Eimer', 'Telefon', 'Lampe', 'Vase', 'Kiste', 'Stift', 'Löffel', 'Tasche']","['matt', 'schwer', 'sportlich', 'lustig', 'klobig', 'flach', 'winzig', 'strahlend', 'verspielt', 'nachhaltig', 'praktisch', 'glatt', 'groß', 'kurz', 'hübsch', 'breit', 'robust', 'gepunktet', 'dick', 'neu', 'niedlich', 'blass']",1,2.1036843000911176,None,,,,,,,,,,,,,,,,,,,,,,,,,,,,,,,,,,,,,,,,,,,,,,,,,,,,,,,,,,,,,,,,,,,,,1,2024-01-09_08h31.20.277,watkins1,2023.2.3,99.76873584248791,76,2024-01-09 08h31.28.358415 +0000,
,,,,,,,,,,,0,0,0,0,,,,,,,,,,,,,215.42918329965323,,,,,,,,,,215.42061949986964,215.91155669977888,,,[],[],,,,,,,,,,,,None,None,,,,,,,,,,Uhr,kaputt,"['Uhr', 'kaputt']",control,1,,,,,,215.42053279979154,215.4205931997858,"['Uhr', 'Schlüssel', 'Stift', 'Socke', 'Kamera', 'Tasche', 'Flasche', 'Vase', 'Kette', 'Schere', 'Telefon', 'Buch', 'Brille', 'Blume', 'Geige', 'Fahrrad', 'Hammer', 'Rucksack', 'Trommel', 'Kerze', 'Hut', 'Eimer', 'Würfel']",215.91156809963286,221.91858349973336,3,1.912995900027454,None,221.91898299986497,221.9215902998112,None,221.92174199968576,221.92414209991693,None,221.9242920000106,221.92532399995252,221.92533599957824,221.9265987998806,,,,,,,,,,,,,,,,,,,,,,,,,,,,,,,,,,,,,,,,,,,,,,,,,,,1,2024-01-09_08h31.20.277,watkins1,2023.2.3,99.76873584248791,76,2024-01-09 08h31.28.358415 +0000,
,,,,,,,,,,,1,0,1,0,,,,,,,,,,,,,221.93023919966072,,,,,,,,,,221.92687029996887,222.42348130000755,,,2,2.334660300053656,,,,,,,,,,,,None,None,,,,,,,,,,Schlüssel,zart,"['Schlüssel', 'zart']",restudy_diff,1,,,,,,221.92680479958653,221.9268442997709,"['Uhr', 'Schlüssel', 'Stift', 'Socke', 'Kamera', 'Tasche', 'Flasche', 'Vase', 'Kette', 'Schere', 'Telefon', 'Buch', 'Brille', 'Blume', 'Geige', 'Fahrrad', 'Hammer', 'Rucksack', 'Trommel', 'Kerze', 'Hut', 'Eimer', 'Würfel']",222.42349179973826,222.42512799985707,None,,,222.4252434996888,222.42677739961073,None,222.42687910003588,228.43435189966112,2,228.4347092998214,228.43620539968833,228.43621769966558,228.4372739996761,2.334660300053656,None,,,,,,,,,,,,,,,,,,,,,,,,,,,,,,,,,,,,,,,,,,,,,,,,,1,2024-01-09_08h31.20.277,watkins1,2023.2.3,99.76873584248791,76,2024-01-09 08h31.28.358415 +0000,
,,,,,,,,,,,2,0,2,0,,,,,,,,,,,,,228.44379089958966,,,,,,,,,,228.43754209997132,228.93590729963034,,,1,2.4371086000464857,,,,,,,,,,,,None,None,,,,,,,,,,Stift,krumm,"['Stift', 'krumm']",restudy_diff,1,,,,,,228.4374771998264,228.43751519965008,"['Uhr', 'Schlüssel', 'Stift', 'Socke', 'Kamera', 'Tasche', 'Flasche', 'Vase', 'Kette', 'Schere', 'Telefon', 'Buch', 'Brille', 'Blume', 'Geige', 'Fahrrad', 'Hammer', 'Rucksack', 'Trommel', 'Kerze', 'Hut', 'Eimer', 'Würfel']",228.9359178999439,228.9384905998595,None,,,228.93860919959843,228.9410265996121,None,228.94112839968875,234.94577409978956,1,234.94604369997978,234.94742989959195,234.94744189968333,234.9485889999196,2.4371086000464857,None,,,,,,,,,,,,,,,,,,,,,,,,,,,,,,,,,,,,,,,,,,,,,,,,,1,2024-01-09_08h31.20.277,watkins1,2023.2.3,99.76873584248791,76,2024-01-09 08h31.28.358415 +0000,
,,,,,,,,,,,3,0,3,0,,,,,,,,,,,,,234.95518799964339,,,,,,,,,,234.94885349972174,235.44724110001698,,,[],[],,,,,,,,,,,,None,None,,,,,,,,,,Socke,schlicht,"['Socke', 'schlicht']",control,1,,,,,,234.94878899957985,234.94882629998028,"['Uhr', 'Schlüssel', 'Stift', 'Socke', 'Kamera', 'Tasche', 'Flasche', 'Vase', 'Kette', 'Schere', 'Telefon', 'Buch', 'Brille', 'Blume', 'Geige', 'Fahrrad', 'Hammer', 'Rucksack', 'Trommel', 'Kerze', 'Hut', 'Eimer', 'Würfel']",235.44725169986486,241.45742789981887,2,1.3706071004271507,None,241.45770609984174,241.46045669959858,None,241.46056359959766,241.46325349994004,None,241.46335709979758,241.46453109988943,241.46454269997776,241.46610850002617,,,,,,,,,,,,,,,,,,,,,,,,,,,,,,,,,,,,,,,,,,,,,,,,,,,1,2024-01-09_08h31.20.277,watkins1,2023.2.3,99.76873584248791,76,2024-01-09 08h31.28.358415 +0000,
,,,,,,,,,,,4,0,4,0,,,,,,,,,,,,,241.46976020000875,,,,,,,,,,241.4663833999075,241.96348829986528,,,1,3.651243600063026,,,,,,,,,,,,None,None,,,,,,,,,,Kamera,gestreift,"['Kamera', 'gestreift']",restudy_diff,1,,,,,,241.46631519962102,241.46635719994083,"['Uhr', 'Schlüssel', 'Stift', 'Socke', 'Kamera', 'Tasche', 'Flasche', 'Vase', 'Kette', 'Schere', 'Telefon', 'Buch', 'Brille', 'Blume', 'Geige', 'Fahrrad', 'Hammer', 'Rucksack', 'Trommel', 'Kerze', 'Hut', 'Eimer', 'Würfel']",241.96349949995056,241.96510729985312,None,,,241.9652245999314,241.96670399978757,None,241.96680649975315,247.97656829981133,1,247.97684689983726,247.97817659983411,247.978188699577,247.97945979982615,3.651243600063026,None,,,,,,,,,,,,,,,,,,,,,,,,,,,,,,,,,,,,,,,,,,,,,,,,,1,2024-01-09_08h31.20.277,watkins1,2023.2.3,99.76873584248791,76,2024-01-09 08h31.28.358415 +0000,
,,,,,,,,,,,5,0,5,0,,,,,,,,,,,,,247.98604929959401,,,,,,,,,,247.97975039994344,248.47815679991618,,,2,1.8463222002610564,,,,,,,,,,,,None,None,,,,,,,,,,Tasche,rustikal,"['Tasche', 'rustikal']",restudy_diff,1,,,,,,247.97968159988523,247.97972149960697,"['Uhr', 'Schlüssel', 'Stift', 'Socke', 'Kamera', 'Tasche', 'Flasche', 'Vase', 'Kette', 'Schere', 'Telefon', 'Buch', 'Brille', 'Blume', 'Geige', 'Fahrrad', 'Hammer', 'Rucksack', 'Trommel', 'Kerze', 'Hut', 'Eimer', 'Würfel']",248.47816759999841,248.48095889994875,None,,,248.48107669968158,248.48369129979983,None,248.48379399999976,254.48987549962476,2,254.4901678999886,254.49150269990787,254.49151489976794,254.49280059989542,1.8463222002610564,None,,,,,,,,,,,,,,,,,,,,,,,,,,,,,,,,,,,,,,,,,,,,,,,,,1,2024-01-09_08h31.20.277,watkins1,2023.2.3,99.76873584248791,76,2024-01-09 08h31.28.358415 +0000,
,,,,,,,,,,,6,0,6,0,,,,,,,,,,,,,254.49926059972495,,,,,,,,,,254.49307159986347,254.99155469983816,,,[],[],,,,,,,,,,,,None,None,,,,,,,,,,Flasche,glänzend,"['Flasche', 'glänzend']",control,1,,,,,,254.49300719983876,254.49304550001398,"['Uhr', 'Schlüssel', 'Stift', 'Socke', 'Kamera', 'Tasche', 'Flasche', 'Vase', 'Kette', 'Schere', 'Telefon', 'Buch', 'Brille', 'Blume', 'Geige', 'Fahrrad', 'Hammer', 'Rucksack', 'Trommel', 'Kerze', 'Hut', 'Eimer', 'Würfel']",254.99156499980018,260.9962255996652,3,2.1287446999922395,None,260.9964960999787,260.99922119965777,None,260.99932419974357,261.00187139958143,None,261.00197270000353,261.0031520999037,261.0031637996435,261.00435029994696,,,,,,,,,,,,,,,,,,,,,,,,,,,,,,,,,,,,,,,,,,,,,,,,,,,1,2024-01-09_08h31.20.277,watkins1,2023.2.3,99.76873584248791,76,2024-01-09 08h31.28.358415 +0000,
,,,,,,,,,,,7,0,7,0,,,,,,,,,,,,,261.0079655996524,,,,,,,,,,261.0046117999591,261.50127579970285,,,3,1.8579111997969449,,,,,,,,,,,,None,None,,,,,,,,,,Vase,nass,"['Vase', 'nass']",restudy_diff,1,,,,,,261.00454999972135,261.00458769965917,"['Uhr', 'Schlüssel', 'Stift', 'Socke', 'Kamera', 'Tasche', 'Flasche', 'Vase', 'Kette', 'Schere', 'Telefon', 'Buch', 'Brille', 'Blume', 'Geige', 'Fahrrad', 'Hammer', 'Rucksack', 'Trommel', 'Kerze', 'Hut', 'Eimer', 'Würfel']",261.50128680001944,261.50274130003527,None,,,261.50285949977115,261.50419020000845,None,261.5042924997397,267.50527359964326,3,267.5055416999385,267.5067420997657,267.50675419997424,267.50777299981564,1.8579111997969449,None,,,,,,,,,,,,,,,,,,,,,,,,,,,,,,,,,,,,,,,,,,,,,,,,,1,2024-01-09_08h31.20.277,watkins1,2023.2.3,99.76873584248791,76,2024-01-09 08h31.28.358415 +0000,
,,,,,,,,,,,8,0,8,0,,,,,,,,,,,,,267.51467109983787,,,,,,,,,,267.5080350995995,268.0067687998526,,,[],[],,,,,,,,,,,,None,None,,,,,,,,,,Kette,biegsam,"['Kette', 'biegsam']",control,1,,,,,,267.50797249982134,267.50800939975306,"['Uhr', 'Schlüssel', 'Stift', 'Socke', 'Kamera', 'Tasche', 'Flasche', 'Vase', 'Kette', 'Schere', 'Telefon', 'Buch', 'Brille', 'Blume', 'Geige', 'Fahrrad', 'Hammer', 'Rucksack', 'Trommel', 'Kerze', 'Hut', 'Eimer', 'Würfel']",268.00677969958633,274.0147941997275,3,1.4032577998004854,None,274.0150681999512,274.0178529997356,None,274.01795729994774,274.0205333996564,None,274.0206372998655,274.0218233997002,274.0218352996744,274.0230342997238,,,,,,,,,,,,,,,,,,,,,,,,,,,,,,,,,,,,,,,,,,,,,,,,,,,1,2024-01-09_08h31.20.277,watkins1,2023.2.3,99.76873584248791,76,2024-01-09 08h31.28.358415 +0000,
,,,,,,,,,,,9,0,9,0,,,,,,,,,,,,,274.0266495998949,,,,,,,,,,274.023303899914,274.52004459965974,,,1,1.3987819999456406,,,,,,,,,,,,None,None,,,,,,,,,,Schere,hohl,"['Schere', 'hohl']",restudy_diff,1,,,,,,274.02323929965496,274.0232788999565,"['Uhr', 'Schlüssel', 'Stift', 'Socke', 'Kamera', 'Tasche', 'Flasche', 'Vase', 'Kette', 'Schere', 'Telefon', 'Buch', 'Brille', 'Blume', 'Geige', 'Fahrrad', 'Hammer', 'Rucksack', 'Trommel', 'Kerze', 'Hut', 'Eimer', 'Würfel']",274.5200551999733,274.52165469992906,None,,,274.52177499979734,274.523238199763,None,274.5233424999751,280.5317908995785,1,280.53207209985703,280.5334314997308,280.5334483999759,280.53452029963955,1.3987819999456406,None,,,,,,,,,,,,,,,,,,,,,,,,,,,,,,,,,,,,,,,,,,,,,,,,,1,2024-01-09_08h31.20.277,watkins1,2023.2.3,99.76873584248791,76,2024-01-09 08h31.28.358415 +0000,
,,,,,,,,,,,10,0,10,0,,,,,,,,,,,,,280.5412120996043,,,,,,,,,,280.5348082999699,281.0335253998637,,,1,2.1074914997443557,,,,,,,,,,,,None,None,,,,,,,,,,Telefon,bunt,"['Telefon', 'bunt']",restudy_diff,1,,,,,,280.53474269993603,280.53478170000017,"['Uhr', 'Schlüssel', 'Stift', 'Socke', 'Kamera', 'Tasche', 'Flasche', 'Vase', 'Kette', 'Schere', 'Telefon', 'Buch', 'Brille', 'Blume', 'Geige', 'Fahrrad', 'Hammer', 'Rucksack', 'Trommel', 'Kerze', 'Hut', 'Eimer', 'Würfel']",281.0335364998318,281.0360893998295,None,,,281.03620840003714,281.03863439988345,None,281.038736499846,287.0448976997286,1,287.0451793996617,287.04658089997247,287.0465928995982,287.04764499980956,2.1074914997443557,None,,,,,,,,,,,,,,,,,,,,,,,,,,,,,,,,,,,,,,,,,,,,,,,,,1,2024-01-09_08h31.20.277,watkins1,2023.2.3,99.76873584248791,76,2024-01-09 08h31.28.358415 +0000,
,,,,,,,,,,,11,0,11,0,,,,,,,,,,,,,287.0542233996093,,,,,,,,,,287.04791620001197,287.5463270996697,,,1,2.1629498000256717,,,,,,,,,,,,None,None,,,,,,,,,,Buch,kalt,"['Buch', 'kalt']",restudy_diff,1,,,,,,287.0478505999781,287.04788969969377,"['Uhr', 'Schlüssel', 'Stift', 'Socke', 'Kamera', 'Tasche', 'Flasche', 'Vase', 'Kette', 'Schere', 'Telefon', 'Buch', 'Brille', 'Blume', 'Geige', 'Fahrrad', 'Hammer', 'Rucksack', 'Trommel', 'Kerze', 'Hut', 'Eimer', 'Würfel']",287.5463385996409,287.5488918996416,None,,,287.5490106996149,287.5513076996431,None,287.5514106997289,293.557621399872,1,293.55790819972754,293.559087799862,293.5590999997221,293.5601548999548,2.1629498000256717,None,,,,,,,,,,,,,,,,,,,,,,,,,,,,,,,,,,,,,,,,,,,,,,,,,1,2024-01-09_08h31.20.277,watkins1,2023.2.3,99.76873584248791,76,2024-01-09 08h31.28.358415 +0000,
,,,,,,,,,,,12,0,12,0,,,,,,,,,,,,,293.5670741000213,,,,,,,,,,293.5604263995774,294.05927969980985,,,3,1.5451703001745045,,,,,,,,,,,,None,None,,,,,,,,,,Brille,schmutzig,"['Brille', 'schmutzig']",restudy_diff,1,,,,,,293.56035939976573,293.5603979998268,"['Uhr', 'Schlüssel', 'Stift', 'Socke', 'Kamera', 'Tasche', 'Flasche', 'Vase', 'Kette', 'Schere', 'Telefon', 'Buch', 'Brille', 'Blume', 'Geige', 'Fahrrad', 'Hammer', 'Rucksack', 'Trommel', 'Kerze', 'Hut', 'Eimer', 'Würfel']",294.05929029965773,294.06186429969966,None,,,294.0619826996699,294.0644145999104,None,294.0645169997588,300.0672347997315,3,300.06753249978647,300.06884930003434,300.06886200001463,300.07013199990615,1.5451703001745045,None,,,,,,,,,,,,,,,,,,,,,,,,,,,,,,,,,,,,,,,,,,,,,,,,,1,2024-01-09_08h31.20.277,watkins1,2023.2.3,99.76873584248791,76,2024-01-09 08h31.28.358415 +0000,
,,,,,,,,,,,13,0,13,0,,,,,,,,,,,,,300.0766533999704,,,,,,,,,,300.0704122995958,300.5688320999034,,,1,1.7872393997386098,,,,,,,,,,,,None,None,,,,,,,,,,Blume,hässlich,"['Blume', 'hässlich']",restudy_diff,1,,,,,,300.0703467000276,300.07038559997454,"['Uhr', 'Schlüssel', 'Stift', 'Socke', 'Kamera', 'Tasche', 'Flasche', 'Vase', 'Kette', 'Schere', 'Telefon', 'Buch', 'Brille', 'Blume', 'Geige', 'Fahrrad', 'Hammer', 'Rucksack', 'Trommel', 'Kerze', 'Hut', 'Eimer', 'Würfel']",300.56884329998866,300.5717793996446,None,,,300.57190399989486,300.5745327998884,None,300.57463539997116,306.5829027998261,1,306.58317609969527,306.5844568000175,306.5844689998776,306.58569409977645,1.7872393997386098,None,,,,,,,,,,,,,,,,,,,,,,,,,,,,,,,,,,,,,,,,,,,,,,,,,1,2024-01-09_08h31.20.277,watkins1,2023.2.3,99.76873584248791,76,2024-01-09 08h31.28.358415 +0000,
,,,,,,,,,,,14,0,14,0,,,,,,,,,,,,,306.5923659997061,,,,,,,,,,306.58596629975364,307.0842848997563,,,3,0.9434126997366548,,,,,,,,,,,,None,None,,,,,,,,,,Geige,elegant,"['Geige', 'elegant']",restudy_diff,1,,,,,,306.5859005996026,306.58593939989805,"['Uhr', 'Schlüssel', 'Stift', 'Socke', 'Kamera', 'Tasche', 'Flasche', 'Vase', 'Kette', 'Schere', 'Telefon', 'Buch', 'Brille', 'Blume', 'Geige', 'Fahrrad', 'Hammer', 'Rucksack', 'Trommel', 'Kerze', 'Hut', 'Eimer', 'Würfel']",307.0842955997214,307.08720869990066,None,,,307.0873275999911,307.08995119994506,None,307.09005540004,313.09175399970263,3,313.0920329997316,313.0933221997693,313.09333739988506,313.0945476000197,0.9434126997366548,None,,,,,,,,,,,,,,,,,,,,,,,,,,,,,,,,,,,,,,,,,,,,,,,,,1,2024-01-09_08h31.20.277,watkins1,2023.2.3,99.76873584248791,76,2024-01-09 08h31.28.358415 +0000,
,,,,,,,,,,,15,0,15,0,,,,,,,,,,,,,313.1010902998969,,,,,,,,,,313.0948197999969,313.5930932997726,,,[],[],,,,,,,,,,,,None,None,,,,,,,,,,Fahrrad,dunkel,"['Fahrrad', 'dunkel']",control,1,,,,,,313.0947547997348,313.0947932000272,"['Uhr', 'Schlüssel', 'Stift', 'Socke', 'Kamera', 'Tasche', 'Flasche', 'Vase', 'Kette', 'Schere', 'Telefon', 'Buch', 'Brille', 'Blume', 'Geige', 'Fahrrad', 'Hammer', 'Rucksack', 'Trommel', 'Kerze', 'Hut', 'Eimer', 'Würfel']",313.5931043997407,319.60326449992135,2,1.5768351000733674,None,319.60353819979355,319.6062408997677,None,319.60634589986876,319.60890979971737,None,319.60901569994166,319.6102250996046,319.61023689992726,319.611411199905,,,,,,,,,,,,,,,,,,,,,,,,,,,,,,,,,,,,,,,,,,,,,,,,,,,1,2024-01-09_08h31.20.277,watkins1,2023.2.3,99.76873584248791,76,2024-01-09 08h31.28.358415 +0000,
,,,,,,,,,,,16,0,16,0,,,,,,,,,,,,,319.6149344998412,,,,,,,,,,319.61167669994757,320.10810919990763,,,[],[],,,,,,,,,,,,None,None,,,,,,,,,,Hammer,lang,"['Hammer', 'lang']",control,1,,,,,,319.61161389993504,319.611652799882,"['Uhr', 'Schlüssel', 'Stift', 'Socke', 'Kamera', 'Tasche', 'Flasche', 'Vase', 'Kette', 'Schere', 'Telefon', 'Buch', 'Brille', 'Blume', 'Geige', 'Fahrrad', 'Hammer', 'Rucksack', 'Trommel', 'Kerze', 'Hut', 'Eimer', 'Würfel']",320.10812049964443,326.1090442999266,2,1.9252280001528561,None,326.10931759979576,326.1118884999305,None,326.1119939000346,326.1144279995933,None,326.1145348995924,326.1157284998335,326.1157402996905,326.1167925996706,,,,,,,,,,,,,,,,,,,,,,,,,,,,,,,,,,,,,,,,,,,,,,,,,,,1,2024-01-09_08h31.20.277,watkins1,2023.2.3,99.76873584248791,76,2024-01-09 08h31.28.358415 +0000,
,,,,,,,,,,,17,0,17,0,,,,,,,,,,,,,326.1205078996718,,,,,,,,,,326.1170609998517,326.61348459962755,,,1,2.8809688999317586,,,,,,,,,,,,None,None,,,,,,,,,,Rucksack,durchsichtig,"['Rucksack', 'durchsichtig']",restudy_diff,1,,,,,,326.1169961998239,326.1170361000113,"['Uhr', 'Schlüssel', 'Stift', 'Socke', 'Kamera', 'Tasche', 'Flasche', 'Vase', 'Kette', 'Schere', 'Telefon', 'Buch', 'Brille', 'Blume', 'Geige', 'Fahrrad', 'Hammer', 'Rucksack', 'Trommel', 'Kerze', 'Hut', 'Eimer', 'Würfel']",326.61349549982697,326.6151470998302,None,,,326.6152699999511,326.6167723997496,None,326.6168763996102,332.62778549967334,1,332.62806160002947,332.6294173998758,332.6294294996187,332.6307446998544,2.8809688999317586,None,,,,,,,,,,,,,,,,,,,,,,,,,,,,,,,,,,,,,,,,,,,,,,,,,1,2024-01-09_08h31.20.277,watkins1,2023.2.3,99.76873584248791,76,2024-01-09 08h31.28.358415 +0000,
,,,,,,,,,,,18,0,18,0,,,,,,,,,,,,,332.63726699957624,,,,,,,,,,332.63101270003244,333.1296688998118,,,[],[],,,,,,,,,,,,None,None,,,,,,,,,,Trommel,gut,"['Trommel', 'gut']",control,1,,,,,,332.6309480997734,332.63098669983447,"['Uhr', 'Schlüssel', 'Stift', 'Socke', 'Kamera', 'Tasche', 'Flasche', 'Vase', 'Kette', 'Schere', 'Telefon', 'Buch', 'Brille', 'Blume', 'Geige', 'Fahrrad', 'Hammer', 'Rucksack', 'Trommel', 'Kerze', 'Hut', 'Eimer', 'Würfel']",333.12967989966273,339.1333117997274,2,2.400862299837172,None,339.13358949963003,339.13616639981046,None,339.13627310004085,339.1388338999823,None,339.1389389997348,339.14015309978276,339.14016499975696,339.1411979999393,,,,,,,,,,,,,,,,,,,,,,,,,,,,,,,,,,,,,,,,,,,,,,,,,,,1,2024-01-09_08h31.20.277,watkins1,2023.2.3,99.76873584248791,76,2024-01-09 08h31.28.358415 +0000,
,,,,,,,,,,,19,0,19,0,,,,,,,,,,,,,339.14481359999627,,,,,,,,,,339.1414708998054,339.6379571999423,,,3,3.1207041000016034,,,,,,,,,,,,None,None,,,,,,,,,,Kerze,sauber,"['Kerze', 'sauber']",restudy_diff,1,,,,,,339.1414064997807,339.1414460996166,"['Uhr', 'Schlüssel', 'Stift', 'Socke', 'Kamera', 'Tasche', 'Flasche', 'Vase', 'Kette', 'Schere', 'Telefon', 'Buch', 'Brille', 'Blume', 'Geige', 'Fahrrad', 'Hammer', 'Rucksack', 'Trommel', 'Kerze', 'Hut', 'Eimer', 'Würfel']",339.6379684996791,339.63958139996976,None,,,339.6397025999613,339.64115569973364,None,339.64125889958814,345.64944859966636,3,345.6497291997075,345.6511172000319,345.6511295000091,345.65233419975266,3.1207041000016034,None,,,,,,,,,,,,,,,,,,,,,,,,,,,,,,,,,,,,,,,,,,,,,,,,,1,2024-01-09_08h31.20.277,watkins1,2023.2.3,99.76873584248791,76,2024-01-09 08h31.28.358415 +0000,
,,,,,,,,,,,20,0,20,0,,,,,,,,,,,,,345.65891449991614,,,,,,,,,,345.652607599739,346.1509902998805,,,2,2.0776891000568867,,,,,,,,,,,,None,None,,,,,,,,,,Hut,flauschig,"['Hut', 'flauschig']",restudy_diff,1,,,,,,345.65254269959405,345.6525812000036,"['Uhr', 'Schlüssel', 'Stift', 'Socke', 'Kamera', 'Tasche', 'Flasche', 'Vase', 'Kette', 'Schere', 'Telefon', 'Buch', 'Brille', 'Blume', 'Geige', 'Fahrrad', 'Hammer', 'Rucksack', 'Trommel', 'Kerze', 'Hut', 'Eimer', 'Würfel']",346.1510013998486,346.1536752996035,None,,,346.15379639994353,346.1562373996712,None,346.15634309966117,352.163630399853,2,352.16391039965674,352.1650530998595,352.1650654999539,352.16632639989257,2.0776891000568867,None,,,,,,,,,,,,,,,,,,,,,,,,,,,,,,,,,,,,,,,,,,,,,,,,,1,2024-01-09_08h31.20.277,watkins1,2023.2.3,99.76873584248791,76,2024-01-09 08h31.28.358415 +0000,
,,,,,,,,,,,21,0,21,0,,,,,,,,,,,,,352.17308750003576,,,,,,,,,,352.16660070000216,352.66524099977687,,,1,1.1949800997972488,,,,,,,,,,,,None,None,,,,,,,,,,Eimer,kratzig,"['Eimer', 'kratzig']",restudy_diff,1,,,,,,352.16653629997745,352.1665745000355,"['Uhr', 'Schlüssel', 'Stift', 'Socke', 'Kamera', 'Tasche', 'Flasche', 'Vase', 'Kette', 'Schere', 'Telefon', 'Buch', 'Brille', 'Blume', 'Geige', 'Fahrrad', 'Hammer', 'Rucksack', 'Trommel', 'Kerze', 'Hut', 'Eimer', 'Würfel']",352.665252099745,352.6680630999617,None,,,352.66818319959566,352.67080729966983,None,352.67091099964455,358.67452759994194,1,358.6748067997396,358.6760982000269,358.6761102997698,358.67729389993474,1.1949800997972488,None,,,,,,,,,,,,,,,,,,,,,,,,,,,,,,,,,,,,,,,,,,,,,,,,,1,2024-01-09_08h31.20.277,watkins1,2023.2.3,99.76873584248791,76,2024-01-09 08h31.28.358415 +0000,
,,,,,,,,,,,22,0,22,0,,,,,,,,,,,,,358.6839656997472,,,,,,,,,,358.67756149964407,359.1760359997861,,,[],[],,,,,,,,,,,,None,None,,,,,,,,,,Würfel,teuer,"['Würfel', 'teuer']",control,1,,,,,,358.67749699996784,358.6775352996774,"['Uhr', 'Schlüssel', 'Stift', 'Socke', 'Kamera', 'Tasche', 'Flasche', 'Vase', 'Kette', 'Schere', 'Telefon', 'Buch', 'Brille', 'Blume', 'Geige', 'Fahrrad', 'Hammer', 'Rucksack', 'Trommel', 'Kerze', 'Hut', 'Eimer', 'Würfel']",359.17604779964313,365.1832508998923,2,2.361048100050539,None,365.18351959995925,365.18617310002446,None,365.18627559999004,365.1887457999401,None,365.18884689966217,365.19001459982246,365.1900260997936,365.19115509977564,,,,,,,,,,,,,,,,,,,,,,,,,,,,,,,,,,,,,,,,,,,,,,,,,,,1,2024-01-09_08h31.20.277,watkins1,2023.2.3,99.76873584248791,76,2024-01-09 08h31.28.358415 +0000,
,,,,,,,,,,,,,,,,,,,,,,,,,,,,,,,,,,,,,,,,,,,,,,,,,,,,,,,,,,,,,,,,,,,,,1,,,,,,,,,,,,,,,,,,,,,,,,,,,,,,,,,,,,,,,,,,,,,,,,,,,,,,,,,,,,,,,,,,,,,,,,,,1,2024-01-09_08h31.20.277,watkins1,2023.2.3,99.76873584248791,76,2024-01-09 08h31.28.358415 +0000,
(6 x 3) + 10 = 27 ,Incorrect,button_incorrect,,,,,,,,,,,,,0,0,0,8,,,,,,,,,385.95378969982266,,,,,,,,384.8540663998574,385.85780050000176,,,,,['button_incorrect'],[4.457936500199139],,,,,,,,,,,,,,,,,,,,,,,,,,distractorTask,1,,,,,,,,,,,,,,,,,,,,,,,,,,385.9265417996794,385.95378969982266,390.40077069960535,[-0.3351851851851852],[-0.4074074074074074],[1],[0],[0],[4.457936500199139],['button_incorrect'],390.4014639998786,391.40454899985343,,,,,,,,,,,,,,,,,,,,,,,,,,,,,,,,,,,,,1,2024-01-09_08h31.20.277,watkins1,2023.2.3,99.76873584248791,76,2024-01-09 08h31.28.358415 +0000,
(2 x 5) + 3 = 13 ,Correct,button_correct,,,,,,,,,,,,,0,1,1,2,,,,,,,,,391.4145311997272,,,,,,,,,,,,,,['button_correct'],[2.648766600061208],,,,,,,,,,,,,,,,,,,,,,,,,,distractorTask,1,,,,,,,,,,,,,,,,,,,,,,,,,,391.4047495997511,391.4145311997272,394.0558152999729,[0.31296296296296294],[-0.3888888888888889],[1],[0],[0],[2.648766600061208],['button_correct'],394.0562120997347,395.05973690003157,,,,,,,,,,,,,,,,,,,,,,,,,,,,,,,,,,,,,1,2024-01-09_08h31.20.277,watkins1,2023.2.3,99.76873584248791,76,2024-01-09 08h31.28.358415 +0000,
(4 : 2) + 4 = 6 ,Correct,button_correct,,,,,,,,,,,,,0,2,2,1,,,,,,,,,395.0697225998156,,,,,,,,,,,,,,['button_correct'],[2.518158699851483],,,,,,,,,,,,,,,,,,,,,,,,,,distractorTask,1,,,,,,,,,,,,,,,,,,,,,,,,,,395.0599356996827,395.0697225998156,397.5806119996123,[0.4064814814814815],[-0.3990740740740741],[1],[0],[0],[2.518158699851483],['button_correct'],397.58100899960846,398.5841230000369,,,,,,,,,,,,,,,,,,,,,,,,,,,,,,,,,,,,,1,2024-01-09_08h31.20.277,watkins1,2023.2.3,99.76873584248791,76,2024-01-09 08h31.28.358415 +0000,
(28 : 7) - 3 = 1 ,Correct,button_correct,,,,,,,,,,,,,0,3,3,0,,,,,,,,,398.5942075997591,,,,,,,,,,,,,,['button_correct'],[3.4616360999643803],,,,,,,,,,,,,,,,,,,,,,,,,,distractorTask,1,,,,,,,,,,,,,,,,,,,,,,,,,,398.58432929962873,398.5942075997591,402.0490866997279,[0.3611111111111111],[-0.39351851851851855],[1],[0],[0],[3.4616360999643803],['button_correct'],402.0494794999249,403.0525982999243,,,,,,,,,,,,,,,,,,,,,,,,,,,,,,,,,,,,,1,2024-01-09_08h31.20.277,watkins1,2023.2.3,99.76873584248791,76,2024-01-09 08h31.28.358415 +0000,
(80 : 10) + 9 = 17 ,Correct,button_correct,,,,,,,,,,,,,0,4,4,3,,,,,,,,,403.0625459998846,,,,,,,,,,,,,,['button_correct'],[2.2969368998892605],,,,,,,,,,,,,,,,,,,,,,,,,,distractorTask,1,,,,,,,,,,,,,,,,,,,,,,,,,,403.0527953999117,403.0625459998846,405.35266699967906,[0.3],[-0.3861111111111111],[1],[0],[0],[2.2969368998892605],['button_correct'],405.3530543996021,406.3564851996489,,,,,,,,,,,,,,,,,,,,,,,,,,,,,,,,,,,,,1,2024-01-09_08h31.20.277,watkins1,2023.2.3,99.76873584248791,76,2024-01-09 08h31.28.358415 +0000,
(25 : 5) + 5 = 9 ,Incorrect,button_incorrect,,,,,,,,,,,,,0,5,5,6,,,,,,,,,406.3664654996246,,,,,,,,,,,,,,['button_incorrect'],"[2.0570526998490095, 2.6090126000344753]",,,,,,,,,,,,,,,,,,,,,,,,,,distractorTask,1,,,,,,,,,,,,,,,,,,,,,,,,,,406.3566755997017,406.3664654996246,408.9675398999825,"[-0.31296296296296294, -0.3101851851851852]","[-0.37222222222222223, -0.38796296296296295]","[1, 1]","[0, 0]","[0, 0]","[2.0570526998490095, 2.6090126000344753]",['button_incorrect'],408.96795059973374,409.971461399924,,,,,,,,,,,,,,,,,,,,,,,,,,,,,,,,,,,,,1,2024-01-09_08h31.20.277,watkins1,2023.2.3,99.76873584248791,76,2024-01-09 08h31.28.358415 +0000,
(54 : 6) - 10 = 0 ,Incorrect,button_incorrect,,,,,,,,,,,,,0,6,6,5,,,,,,,,,409.981446699705,,,,,,,,,,,,,,['button_incorrect'],[3.3727120999246836],,,,,,,,,,,,,,,,,,,,,,,,,,distractorTask,1,,,,,,,,,,,,,,,,,,,,,,,,,,409.97165169985965,409.981446699705,413.3461076999083,[-0.30925925925925923],[-0.3990740740740741],[1],[0],[0],[3.3727120999246836],['button_incorrect'],413.34649819973856,414.3495037998073,,,,,,,,,,,,,,,,,,,,,,,,,,,,,,,,,,,,,1,2024-01-09_08h31.20.277,watkins1,2023.2.3,99.76873584248791,76,2024-01-09 08h31.28.358415 +0000,
(9 x 5) - 9 = 36 ,Correct,button_correct,,,,,,,,,,,,,0,7,7,4,,,,,,,,,414.3594426997006,,,,,,,,,,,,,,['button_incorrect'],[4.196440099738538],,,,,,,,,,,,,,,,,,,,,,,,,,distractorTask,1,,,,,,,,,,,,,,,,,,,,,,,,,,414.34969819989055,414.3594426997006,418.54786809999496,[-0.35462962962962963],[-0.4009259259259259],[1],[0],[0],[4.196440099738538],['button_incorrect'],418.54825459979475,419.5514711998403,,,,,,,,,,,,,,,,,,,,,,,,,,,,,,,,,,,,,1,2024-01-09_08h31.20.277,watkins1,2023.2.3,99.76873584248791,76,2024-01-09 08h31.28.358415 +0000,
(40 : 5) + 8 = 15 ,Incorrect,button_incorrect,,,,,,,,,,,,,0,8,8,7,,,,,,,,,419.5614287997596,,,,,,,,,,,,,,['button_incorrect'],[4.085372599773109],,,,,,,,,,,,,,,,,,,,,,,,,,distractorTask,1,,,,,,,,,,,,,,,,,,,,,,,,,,419.5516654998064,419.5614287997596,423.6387550998479,[-0.35833333333333334],[-0.39814814814814814],[1],[0],[0],[4.085372599773109],['button_incorrect'],423.63913899986073,424.6426530997269,,,,,,,,,,,,,,,,,,,,,,,,,,,,,,,,,,,,,1,2024-01-09_08h31.20.277,watkins1,2023.2.3,99.76873584248791,76,2024-01-09 08h31.28.358415 +0000,
(7 x 6) + 9 = 48 ,Incorrect,button_incorrect,,,,,,,,,,,,,0,9,9,9,,,,,,,,,424.6526289000176,,,,,,,,,,,,,,['button_incorrect'],[2.8500800002366304],,,,,,,,,,,,,,,,,,,,,,,,,,distractorTask,1,,,,,,,,,,,,,,,,,,,,,,,,,,424.6428500995971,424.6526289000176,427.49463319964707,[-0.3990740740740741],[-0.4009259259259259],[1],[0],[0],[2.8500800002366304],['button_incorrect'],427.4950221995823,428.4983313996345,,,,,,,,,,,,,,,,,,,,,,,,,,,,,,,,,,,,,1,2024-01-09_08h31.20.277,watkins1,2023.2.3,99.76873584248791,76,2024-01-09 08h31.28.358415 +0000,
,,,,,,,,,,,,,,,,,,,,,,,,,,,,,,,,,,,,,,,,,,,,,,,,,,,,,,,,,,,,,,,,,,,,,1,,,,,,,,,,,,,,,,,,,,,,,,,,,,,,,,,,,,,,,,,,,,,,,,,,,,,,,,,,,,,,,,,,,,,,,,,,1,2024-01-09_08h31.20.277,watkins1,2023.2.3,99.76873584248791,76,2024-01-09 08h31.28.358415 +0000,
,,,,,,,,,,,,,,,,,,,0,0,0,0,,,,,440.88805879978463,,,,,,,,,,,,,,Hut,5.014582099858671,,,,,,,,,,,,2.7208283003419638,None,,,,,,,,,,,,,freeRecallSub,1,,,,,,,,,,,,,,,,,,,,,,,,,,,,,,,,,,,,,,440.8795258998871,440.88805879978463,440.88805879978463,445.9094589999877,return,5.014582099858671,None,Hut,[-0.03611111111111111],[0.05462962962962963],[1],[0],[0],[1.675700799562037],[],,,,,,,,,,,,,,,,,,,,,,1,2024-01-09_08h31.20.277,watkins1,2023.2.3,99.76873584248791,76,2024-01-09 08h31.28.358415 +0000,
,,,,,,,,,,,,,,,,,,,1,0,1,0,,,,,445.92136389994994,,,,,,,,,,,,,,Tasse,3.205282500013709,,,,,,,,,,,,1.1361269997432828,None,,,,,,,,,,,,,freeRecallSub,1,,,,,,,,,,,,,,,,,,,,,,,,,,,,,,,,,,,,,,445.9112827000208,445.92136389994994,445.92136389994994,449.13644599961117,return,3.205282500013709,None,Tasse,[],[],[],[],[],[],[],,,,,,,,,,,,,,,,,,,,,,1,2024-01-09_08h31.20.277,watkins1,2023.2.3,99.76873584248791,76,2024-01-09 08h31.28.358415 +0000,
,,,,,,,,,,,,,,,,,,,2,0,2,0,,,,,449.14714469993487,,,,,,,,,,,,,,Schere,2.8035827996209264,,,,,,,,,,,,0.572148600127548,None,,,,,,,,,,,,,freeRecallSub,1,,,,,,,,,,,,,,,,,,,,,,,,,,,,,,,,,,,,,,449.13770439988,449.14714469993487,449.14714469993487,451.9588794996962,return,2.8035827996209264,None,Schere,[],[],[],[],[],[],[],,,,,,,,,,,,,,,,,,,,,,1,2024-01-09_08h31.20.277,watkins1,2023.2.3,99.76873584248791,76,2024-01-09 08h31.28.358415 +0000,
,,,,,,,,,,,,,,,,,,,3,0,3,0,,,,,451.97011619992554,,,,,,,,,,,,,,Tasche,2.8686425001360476,,,,,,,,,,,,0.7841668999753892,None,,,,,,,,,,,,,freeRecallSub,1,,,,,,,,,,,,,,,,,,,,,,,,,,,,,,,,,,,,,,451.96014670003206,451.97011619992554,451.97011619992554,454.8435325999744,return,2.8686425001360476,None,Tasche,[],[],[],[],[],[],[],,,,,,,,,,,,,,,,,,,,,,1,2024-01-09_08h31.20.277,watkins1,2023.2.3,99.76873584248791,76,2024-01-09 08h31.28.358415 +0000,
,,,,,,,,,,,,,,,,,,,4,0,4,0,,,,,454.85408849967644,,,,,,,,,,,,,,Eimer,2.0487356996163726,,,,,,,,,,,,0.6220308002084494,None,,,,,,,,,,,,,freeRecallSub,1,,,,,,,,,,,,,,,,,,,,,,,,,,,,,,,,,,,,,,454.8448042999953,454.85408849967644,454.85408849967644,456.91277489997447,return,2.0487356996163726,None,Eimer,[],[],[],[],[],[],[],,,,,,,,,,,,,,,,,,,,,,1,2024-01-09_08h31.20.277,watkins1,2023.2.3,99.76873584248791,76,2024-01-09 08h31.28.358415 +0000,
,,,,,,,,,,,,,,,,,,,5,0,5,0,,,,,456.9243238000199,,,,,,,,,,,,,,Blume,2.6424549999646842,,,,,,,,,,,,1.1759788999333978,None,,,,,,,,,,,,,freeRecallSub,1,,,,,,,,,,,,,,,,,,,,,,,,,,,,,,,,,,,,,,456.91413269983605,456.9243238000199,456.9243238000199,459.5762016000226,return,2.6424549999646842,None,Blume,[],[],[],[],[],[],[],,,,,,,,,,,,,,,,,,,,,,1,2024-01-09_08h31.20.277,watkins1,2023.2.3,99.76873584248791,76,2024-01-09 08h31.28.358415 +0000,
,,,,,,,,,,,,,,,,,,,6,0,6,0,,,,,459.5879032998346,,,,,,,,,,,,,,Kerze,2.114756400231272,,,,,,,,,,,,1.066196100320667,None,,,,,,,,,,,,,freeRecallSub,1,,,,,,,,,,,,,,,,,,,,,,,,,,,,,,,,,,,,,,459.5774637996219,459.5879032998346,459.5879032998346,461.70811829995364,return,2.114756400231272,None,Kerze,[],[],[],[],[],[],[],,,,,,,,,,,,,,,,,,,,,,1,2024-01-09_08h31.20.277,watkins1,2023.2.3,99.76873584248791,76,2024-01-09 08h31.28.358415 +0000,
,,,,,,,,,,,,,,,,,,,7,0,7,0,,,,,461.7195110996254,,,,,,,,,,,,,,Jacke,11.855233500245959,,,,,,,,,,,,10.656472300179303,None,,,,,,,,,,,,,freeRecallSub,1,,,,,,,,,,,,,,,,,,,,,,,,,,,,,,,,,,,,,,461.7093702997081,461.7195110996254,461.7195110996254,473.58099409984425,return,11.855233500245959,None,Jacke,[],[],[],[],[],[],[],,,,,,,,,,,,,,,,,,,,,,1,2024-01-09_08h31.20.277,watkins1,2023.2.3,99.76873584248791,76,2024-01-09 08h31.28.358415 +0000,
,,,,,,,,,,,,,,,,,,,8,0,8,0,,,,,473.59303809981793,,,,,,,,,,,,,,Katze,6.101605399977416,,,,,,,,,,,,4.380148000083864,None,,,,,,,,,,,,,freeRecallSub,1,,,,,,,,,,,,,,,,,,,,,,,,,,,,,,,,,,,,,,473.5822824998759,473.59303809981793,473.59303809981793,479.7000229000114,return,6.101605399977416,None,Katze,[],[],[],[],[],[],[],,,,,,,,,,,,,,,,,,,,,,1,2024-01-09_08h31.20.277,watkins1,2023.2.3,99.76873584248791,76,2024-01-09 08h31.28.358415 +0000,
,,,,,,,,,,,,,,,,,,,9,0,9,0,,,,,479.71177939977497,,,,,,,,,,,,,,Buch,8.126933199819177,,,,,,,,,,,,6.940369300078601,None,,,,,,,,,,,,,freeRecallSub,1,,,,,,,,,,,,,,,,,,,,,,,,,,,,,,,,,,,,,,479.7012871997431,479.71177939977497,479.71177939977497,487.8465673997998,return,8.126933199819177,None,Buch,[],[],[],[],[],[],[],,,,,,,,,,,,,,,,,,,,,,1,2024-01-09_08h31.20.277,watkins1,2023.2.3,99.76873584248791,76,2024-01-09 08h31.28.358415 +0000,
,,,,,,,,,,,,,,,,,,,10,0,10,0,,,,,487.85837739985436,,,,,,,,,,,,,,Löffel,37.85229890001938,,,,,,,,,,,,36.231570600066334,None,,,,,,,,,,,,,freeRecallSub,1,,,,,,,,,,,,,,,,,,,,,,,,,,,,,,,,,,,,,,487.84784049959853,487.85837739985436,487.85837739985436,525.716102199629,return,37.85229890001938,None,Löffel,[-0.011111111111111112],[0.049074074074074076],[1],[0],[0],[31.468401999678463],[],,,,,,,,,,,,,,,,,,,,,,1,2024-01-09_08h31.20.277,watkins1,2023.2.3,99.76873584248791,76,2024-01-09 08h31.28.358415 +0000,
,,,,,,,,,,,,,,,,,,,11,0,11,0,,,,,525.7292399997823,,,,,,,,,,,,,,Flasche,23.717424100264907,,,,,,,,,,,,21.979820599779487,None,,,,,,,,,,,,,freeRecallSub,1,,,,,,,,,,,,,,,,,,,,,,,,,,,,,,,,,,,,,,525.7174430997111,525.7292399997823,525.7292399997823,549.4546182998456,return,23.717424100264907,None,Flasche,[],[],[],[],[],[],[],,,,,,,,,,,,,,,,,,,,,,1,2024-01-09_08h31.20.277,watkins1,2023.2.3,99.76873584248791,76,2024-01-09 08h31.28.358415 +0000,
,,,,,,,,,,,,,,,,,,,12,0,12,0,,,,,549.4672375000082,,,,,,,,,,,,,,Rucksack,6.139480600133538,,,,,,,,,,,,4.431938300374895,None,,,,,,,,,,,,,freeRecallSub,1,,,,,,,,,,,,,,,,,,,,,,,,,,,,,,,,,,,,,,549.4558862997219,549.4672375000082,549.4672375000082,555.6151604996994,return,6.139480600133538,None,Rucksack,[],[],[],[],[],[],[],,,,,,,,,,,,,,,,,,,,,,1,2024-01-09_08h31.20.277,watkins1,2023.2.3,99.76873584248791,76,2024-01-09 08h31.28.358415 +0000,
,,,,,,,,,,,,,,,,,,,13,0,13,0,,,,,555.6283920998685,,,,,,,,,,,,,,Telefon,29.138258300255984,,,,,,,,,,,,26.556205399800092,None,,,,,,,,,,,,,freeRecallSub,1,,,,,,,,,,,,,,,,,,,,,,,,,,,,,,,,,,,,,,555.6163975000381,555.6283920998685,555.6283920998685,584.7732975999825,return,29.138258300255984,None,Telefon,[],[],[],[],[],[],[],,,,,,,,,,,,,,,,,,,,,,1,2024-01-09_08h31.20.277,watkins1,2023.2.3,99.76873584248791,76,2024-01-09 08h31.28.358415 +0000,
,,,,,,,,,,,,,,,,,,,14,0,14,0,,,,,584.7872567996383,,,,,,,,,,,,,,,[],,,,,,,,,,,,None,None,,,,,,,,,,,,,freeRecallSub,1,,,,,,,,,,,,,,,,,,,,,,,,,,,,,,,,,,,,,,584.7745785997249,584.7872567996383,584.7872567996383,597.2323483997025,None,,,,[0.2037037037037037],[-0.38981481481481484],[1],[0],[0],[12.45157549995929],"['button_continue', 'continue_text']",,,,,,,,,,,,,,,,,,,,,,1,2024-01-09_08h31.20.277,watkins1,2023.2.3,99.76873584248791,76,2024-01-09 08h31.28.358415 +0000,
,,,,,,,,,,,,,,,,,,,,,,,,,,,,,,,,,,,,,,,,,,,,,,,,,,,,,,,,,,,,,,,,,,,,,1,,,,,,,,,,,,,,,,,,,,,,,,,,,,,,,,,,,,,,,,,,,,,,,,,,,,,,,,,,,,,,,,,,,,,,,,,,1,2024-01-09_08h31.20.277,watkins1,2023.2.3,99.76873584248791,76,2024-01-09 08h31.28.358415 +0000,
,,,,,,,,,,,,,,,,,,,,,,,0,0,0,0,610.9033255996183,,,,,,,,,,617.955709300004,618.4542772998102,,,,7.039380599744618,,,,,,,,,,,,None,None,,,,,,,,,,Hammer,,,cuedRecallAdj,1,,,,,,,,,,,,,,,,,,,,,,,,,,,,,,,,,,,,,,,,,,,,,,,,,,,,,610.8943741000257,610.9033255996183,0,610.9033255996183,617.9526529000141,lang,return,7.039380599744618,None,617.953043599613,617.9623431996442,617.9623431996442,617.9555585999042,,None,,,,,,,1,2024-01-09_08h31.20.277,watkins1,2023.2.3,99.76873584248791,76,2024-01-09 08h31.28.358415 +0000,
,,,,,,,,,,,,,,,,,,,,,,,1,0,1,0,618.4642692999914,,,,,,,,,,623.5793407997116,624.0779468999244,,,,5.11049020010978,,,,,,,,,,,,None,None,,,,,,,,,,Fahrrad,,,cuedRecallAdj,1,,,,,,,,,,,,,,,,,,,,,,,,,,,,,,,,,,,,,,,,,,,,,,,,,,,,,618.4545262996107,618.4642692999914,0,618.4642692999914,623.5763052999973,dunkel,return,5.11049020010978,None,623.5766038997099,623.5859027998522,623.5859027998522,623.5792288999073,,None,,,,,,,1,2024-01-09_08h31.20.277,watkins1,2023.2.3,99.76873584248791,76,2024-01-09 08h31.28.358415 +0000,
,,,,,,,,,,,,,,,,,,,,,,,2,0,2,0,624.0878556999378,,,,,,,,,,630.9407879998907,631.4394768998027,,,,6.84693260025233,,,,,,,,,,,,None,None,,,,,,,,,,Bürste,,,cuedRecallAdj,1,,,,,,,,,,,,,,,,,,,,,,,,,,,,,,,,,,,,,,,,,,,,,,,,,,,,,624.0781949996017,624.0878556999378,0,624.0878556999378,630.9377818997018,glänzend,return,6.84693260025233,None,630.9380405996926,630.9474005997181,630.9474005997181,630.9406870999373,,None,,,,,,,1,2024-01-09_08h31.20.277,watkins1,2023.2.3,99.76873584248791,76,2024-01-09 08h31.28.358415 +0000,
,,,,,,,,,,,,,,,,,,,,,,,3,0,3,0,631.4494198998436,,,,,,,,,,638.5322341998108,639.0310929999687,,,,7.077379799913615,,,,,,,,,,,,None,None,,,,,,,,,,Lampe,,,cuedRecallAdj,1,,,,,,,,,,,,,,,,,,,,,,,,,,,,,,,,,,,,,,,,,,,,,,,,,,,,,631.4397195996717,631.4494198998436,0,631.4494198998436,638.529341999907,matt,return,7.077379799913615,None,638.5296093998477,638.538966299966,638.538966299966,638.5321320998482,,None,,,,,,,1,2024-01-09_08h31.20.277,watkins1,2023.2.3,99.76873584248791,76,2024-01-09 08h31.28.358415 +0000,
,,,,,,,,,,,,,,,,,,,,,,,4,0,4,0,639.0410392996855,,,,,,,,,,653.70393829979,654.1953594000079,,,hohl,12.493708199821413,,,,,,,,,,,,1.1049017002806067,None,,,,,,,,,,Schere,,,cuedRecallAdj,1,,,,,,,,,,,,,,,,,,,,,,,,,,,,,,,,,,,,,,,,,,,,,,,,,,,,,639.0313382996246,639.0410392996855,0,639.0410392996855,651.5437498996034,groß,return,12.493708199821413,None,651.5440133996308,651.5534665999003,651.5534665999003,653.7035961998627,hohl,return,2.1413940000347793,None,,,,,1,2024-01-09_08h31.20.277,watkins1,2023.2.3,99.76873584248791,76,2024-01-09 08h31.28.358415 +0000,
,,,,,,,,,,,,,,,,,,,,,,,5,0,5,0,654.2053104997613,,,,,,,,,,664.458695799578,664.9500332996249,,,gestreift,4.705465300008655,,,,,,,,,,,,2.961609600111842,None,,,,,,,,,,Kamera,,,cuedRecallAdj,1,,,,,,,,,,,,,,,,,,,,,,,,,,,,,,,,,,,,,,,,,,,,,,,,,,,,,654.1955984998494,654.2053104997613,0,654.2053104997613,658.9152299999259,glatt,return,4.705465300008655,None,658.9154901998118,658.9248412000015,658.9248412000015,664.4584283996373,gestreift,return,5.529918599873781,None,,,,,1,2024-01-09_08h31.20.277,watkins1,2023.2.3,99.76873584248791,76,2024-01-09 08h31.28.358415 +0000,
,,,,,,,,,,,,,,,,,,,,,,,6,0,6,0,664.959957299754,,,,,,,,,,676.397645900026,676.8888820996508,,,matt,10.086719499900937,,,,,,,,,,,,0.7122236997820437,None,,,,,,,,,,Schlüssel,,,cuedRecallAdj,1,,,,,,,,,,,,,,,,,,,,,,,,,,,,,,,,,,,,,,,,,,,,,,,,,,,,,664.9502832000144,664.959957299754,0,664.959957299754,675.0517539000139,zart,return,10.086719499900937,None,675.0520116998814,675.0614001997747,675.0614001997747,676.3973784996197,matt,return,1.3293783999979496,None,,,,,1,2024-01-09_08h31.20.277,watkins1,2023.2.3,99.76873584248791,76,2024-01-09 08h31.28.358415 +0000,
,,,,,,,,,,,,,,,,,,,,,,,7,0,7,0,676.898796999827,,,,,,,,,,684.1995446998626,684.6909587997943,,,flauschig,4.380017700139433,,,,,,,,,,,,1.0438069002702832,None,,,,,,,,,,Hut,,,cuedRecallAdj,1,,,,,,,,,,,,,,,,,,,,,,,,,,,,,,,,,,,,,,,,,,,,,,,,,,,,,676.8891244996339,676.898796999827,0,676.898796999827,681.2871323996224,matt,return,4.380017700139433,None,681.2873999997973,681.2969304998405,681.2969304998405,684.1992587000132,flauschig,return,2.9018223001621664,None,,,,,1,2024-01-09_08h31.20.277,watkins1,2023.2.3,99.76873584248791,76,2024-01-09 08h31.28.358415 +0000,
,,,,,,,,,,,,,,,,,,,,,,,8,0,8,0,684.7009999998845,,,,,,,,,,701.3717287997715,701.8630034998059,,,durchsichtig,6.929677200037986,,,,,,,,,,,,7.700884799938649,None,,,,,,,,,,Brille,,,cuedRecallAdj,1,,,,,,,,,,,,,,,,,,,,,,,,,,,,,,,,,,,,,,,,,,,,,,,,,,,,,684.6912058996968,684.7009999998845,0,684.7009999998845,691.6315151997842,sauber,return,6.929677200037986,None,691.631782299839,691.6409787996672,691.6409787996672,701.371440900024,durchsichtig,return,9.725727600045502,None,,,,,1,2024-01-09_08h31.20.277,watkins1,2023.2.3,99.76873584248791,76,2024-01-09 08h31.28.358415 +0000,
,,,,,,,,,,,,,,,,,,,,,,,9,0,9,0,701.873053399846,,,,,,,,,,710.2425151998177,710.7406910997815,,,,8.365778500214219,,,,,,,,,,,,None,None,,,,,,,,,,Jacke,,,cuedRecallAdj,1,,,,,,,,,,,,,,,,,,,,,,,,,,,,,,,,,,,,,,,,,,,,,,,,,,,,,701.8632555999793,701.873053399846,0,701.873053399846,710.2392254997976,matt,return,8.365778500214219,None,710.2395073999651,710.2485795998946,710.2485795998946,710.2424067999236,,None,,,,,,,1,2024-01-09_08h31.20.277,watkins1,2023.2.3,99.76873584248791,76,2024-01-09 08h31.28.358415 +0000,
,,,,,,,,,,,,,,,,,,,,,,,10,0,10,0,710.7506122998893,,,,,,,,,,718.2961690998636,718.7945650997572,,,,7.536123100202531,,,,,,,,,,,,None,None,,,,,,,,,,Flasche,,,cuedRecallAdj,1,,,,,,,,,,,,,,,,,,,,,,,,,,,,,,,,,,,,,,,,,,,,,,,,,,,,,710.7409365996718,710.7506122998893,0,710.7506122998893,718.2930410997942,glänzend,return,7.536123100202531,None,718.2933270996436,718.3025431996211,718.3025431996211,718.2960660997778,,None,,,,,,,1,2024-01-09_08h31.20.277,watkins1,2023.2.3,99.76873584248791,76,2024-01-09 08h31.28.358415 +0000,
,,,,,,,,,,,,,,,,,,,,,,,11,0,11,0,718.804437499959,,,,,,,,,,735.8077324996702,736.2991906995885,,,hohl,7.330305899959058,,,,,,,,,,,,8.725681799929589,None,,,,,,,,,,Buch,,,cuedRecallAdj,1,,,,,,,,,,,,,,,,,,,,,,,,,,,,,,,,,,,,,,,,,,,,,,,,,,,,,718.7948086997494,718.804437499959,0,718.804437499959,726.1372181996703,winzig,return,7.330305899959058,None,726.137484499719,726.1468334998935,726.1468334998935,735.807465699967,hohl,return,9.651828800328076,None,,,,,1,2024-01-09_08h31.20.277,watkins1,2023.2.3,99.76873584248791,76,2024-01-09 08h31.28.358415 +0000,
,,,,,,,,,,,,,,,,,,,,,,,12,0,12,0,736.3092004996724,,,,,,,,,,751.7838798998855,752.2753867995925,,,brilliant,5.249539700336754,,,,,,,,,,,,1.1841974998824298,None,,,,,,,,,,Telefon,,,cuedRecallAdj,1,,,,,,,,,,,,,,,,,,,,,,,,,,,,,,,,,,,,,,,,,,,,,,,,,,,,,736.2994364998303,736.3092004996724,0,736.3092004996724,741.5613492997363,breit,return,5.249539700336754,None,741.5616134000011,741.5709552997723,741.5709552997723,751.7836098000407,brilliant,return,10.203830800019205,None,,,,,1,2024-01-09_08h31.20.277,watkins1,2023.2.3,99.76873584248791,76,2024-01-09 08h31.28.358415 +0000,
,,,,,,,,,,,,,,,,,,,,,,,13,0,13,0,752.2852997998707,,,,,,,,,,760.5905681997538,761.0818847999908,,,matt,3.0975450999103487,,,,,,,,,,,,3.2529045999981463,None,,,,,,,,,,Stift,,,cuedRecallAdj,1,,,,,,,,,,,,,,,,,,,,,,,,,,,,,,,,,,,,,,,,,,,,,,,,,,,,,752.2756303995848,752.2852997998707,0,752.2852997998707,755.3886825996451,neu,return,3.0975450999103487,None,755.3889460996725,755.3982492997311,755.3982492997311,760.5903073996305,matt,return,5.184515800327063,None,,,,,1,2024-01-09_08h31.20.277,watkins1,2023.2.3,99.76873584248791,76,2024-01-09 08h31.28.358415 +0000,
,,,,,,,,,,,,,,,,,,,,,,,14,0,14,0,761.0918263997883,,,,,,,,,,771.479786099866,771.9780904999934,,,,10.378847799729556,,,,,,,,,,,,None,None,,,,,,,,,,Socke,,,cuedRecallAdj,1,,,,,,,,,,,,,,,,,,,,,,,,,,,,,,,,,,,,,,,,,,,,,,,,,,,,,761.082132499665,761.0918263997883,0,761.0918263997883,771.4766054996289,warm,return,10.378847799729556,None,771.4768725000322,771.485988299828,771.485988299828,771.4796838997863,,None,,,,,,,1,2024-01-09_08h31.20.277,watkins1,2023.2.3,99.76873584248791,76,2024-01-09 08h31.28.358415 +0000,
,,,,,,,,,,,,,,,,,,,,,,,15,0,15,0,771.987985599786,,,,,,,,,,778.8167409999296,779.3081953995861,,,gtau,5.25872189970687,,,,,,,,,,,,0.7523080999962986,None,,,,,,,,,,Tasche,,,cuedRecallAdj,1,,,,,,,,,,,,,,,,,,,,,,,,,,,,,,,,,,,,,,,,,,,,,,,,,,,,,771.9783370997757,771.987985599786,0,771.987985599786,777.2502754996531,blass,return,5.25872189970687,None,777.2505403999239,777.2597934999503,777.2597934999503,778.8164764996618,gtau,return,1.5470114001072943,None,,,,,1,2024-01-09_08h31.20.277,watkins1,2023.2.3,99.76873584248791,76,2024-01-09 08h31.28.358415 +0000,
,,,,,,,,,,,,,,,,,,,,,,,16,0,16,0,779.3182514999062,,,,,,,,,,785.3971305997111,785.895596199669,,,,6.072525799740106,,,,,,,,,,,,None,None,,,,,,,,,,Ring,,,cuedRecallAdj,1,,,,,,,,,,,,,,,,,,,,,,,,,,,,,,,,,,,,,,,,,,,,,,,,,,,,,779.3084397995844,779.3182514999062,0,779.3182514999062,785.3938910998404,sportlich,return,6.072525799740106,None,785.3941560997628,785.4034664998762,785.4034664998762,785.3970280997455,,None,,,,,,,1,2024-01-09_08h31.20.277,watkins1,2023.2.3,99.76873584248791,76,2024-01-09 08h31.28.358415 +0000,
,,,,,,,,,,,,,,,,,,,,,,,17,0,17,0,785.9055437999777,,,,,,,,,,801.1702475999482,801.6618194999173,,,kurz,4.637205600272864,,,,,,,,,,,,9.64965150039643,None,,,,,,,,,,Geige,,,cuedRecallAdj,1,,,,,,,,,,,,,,,,,,,,,,,,,,,,,,,,,,,,,,,,,,,,,,,,,,,,,785.8958415999077,785.9055437999777,0,785.9055437999777,790.5455079996027,elegant,return,4.637205600272864,None,790.5457699997351,790.5550523996353,790.5550523996353,801.1699791997671,kurz,return,10.611664099618793,None,,,,,1,2024-01-09_08h31.20.277,watkins1,2023.2.3,99.76873584248791,76,2024-01-09 08h31.28.358415 +0000,
,,,,,,,,,,,,,,,,,,,,,,,18,0,18,0,801.6717544998974,,,,,,,,,,805.280589199625,805.7787274997681,,,,3.5990272001363337,,,,,,,,,,,,None,None,,,,,,,,,,Kette,,,cuedRecallAdj,1,,,,,,,,,,,,,,,,,,,,,,,,,,,,,,,,,,,,,,,,,,,,,,,,,,,,,801.6620612000115,801.6717544998974,0,801.6717544998974,805.277208799962,eng,return,3.5990272001363337,None,805.2774916999042,805.2867564996704,805.2867564996704,805.2804866996594,,None,,,,,,,1,2024-01-09_08h31.20.277,watkins1,2023.2.3,99.76873584248791,76,2024-01-09 08h31.28.358415 +0000,
,,,,,,,,,,,,,,,,,,,,,,,19,0,19,0,805.7887795995921,,,,,,,,,,808.0716160000302,808.5703938999213,,,,2.273972200229764,,,,,,,,,,,,None,None,,,,,,,,,,Uhr,,,cuedRecallAdj,1,,,,,,,,,,,,,,,,,,,,,,,,,,,,,,,,,,,,,,,,,,,,,,,,,,,,,805.7789741000161,805.7887795995921,0,805.7887795995921,808.0687106996775,kaputt,return,2.273972200229764,None,808.0689793997444,808.0782066998072,808.0782066998072,808.0715139997192,,None,,,,,,,1,2024-01-09_08h31.20.277,watkins1,2023.2.3,99.76873584248791,76,2024-01-09 08h31.28.358415 +0000,
,,,,,,,,,,,,,,,,,,,,,,,20,0,20,0,808.5802861996926,,,,,,,,,,818.6325202998705,819.1239746999927,,,hell,6.962611299939454,,,,,,,,,,,,2.449448899831623,None,,,,,,,,,,Kerze,,,cuedRecallAdj,1,,,,,,,,,,,,,,,,,,,,,,,,,,,,,,,,,,,,,,,,,,,,,,,,,,,,,808.5706407995895,808.5802861996926,0,808.5802861996926,815.5495323999785,flach,return,6.962611299939454,None,815.549798999913,815.5592455998994,815.5592455998994,818.6322518996894,hell,return,3.063429200090468,None,,,,,1,2024-01-09_08h31.20.277,watkins1,2023.2.3,99.76873584248791,76,2024-01-09 08h31.28.358415 +0000,
,,,,,,,,,,,,,,,,,,,,,,,21,0,21,0,819.133912099991,,,,,,,,,,825.5713769998401,826.0626594997011,,,hässlich,3.2408285001292825,,,,,,,,,,,,1.696164000313729,None,,,,,,,,,,Blume,,,cuedRecallAdj,1,,,,,,,,,,,,,,,,,,,,,,,,,,,,,,,,,,,,,,,,,,,,,,,,,,,,,819.1242181998678,819.133912099991,0,819.133912099991,822.3778980998322,schwer,return,3.2408285001292825,None,822.378155299928,822.3874584999867,822.3874584999867,825.5711186998524,hässlich,return,3.179278400260955,None,,,,,1,2024-01-09_08h31.20.277,watkins1,2023.2.3,99.76873584248791,76,2024-01-09 08h31.28.358415 +0000,
,,,,,,,,,,,,,,,,,,,,,,,22,0,22,0,826.0726053998806,,,,,,,,,,831.8070999998599,832.2985794995911,,,kratzig,3.726129600312561,,,,,,,,,,,,0.5917918998748064,None,,,,,,,,,,Eimer,,,cuedRecallAdj,1,,,,,,,,,,,,,,,,,,,,,,,,,,,,,,,,,,,,,,,,,,,,,,,,,,,,,826.0629022996873,826.0726053998806,0,826.0726053998806,829.8085559997708,hübsch,return,3.726129600312561,None,829.8088240996003,829.8182723997161,829.8182723997161,831.8068347997032,kratzig,return,1.9807611000724137,None,,,,,1,2024-01-09_08h31.20.277,watkins1,2023.2.3,99.76873584248791,76,2024-01-09 08h31.28.358415 +0000,
,,,,,,,,,,,,,,,,,,,,,,,23,0,23,0,832.3085290999152,,,,,,,,,,840.3120967997238,840.80348699959,,,praktisch,4.906248500104994,,,,,,,,,,,,1.5057129999622703,None,,,,,,,,,,Rucksack,,,cuedRecallAdj,1,,,,,,,,,,,,,,,,,,,,,,,,,,,,,,,,,,,,,,,,,,,,,,,,,,,,,832.2988180997781,832.3085290999152,0,832.3085290999152,837.2190064997412,durchsichtig,return,4.906248500104994,None,837.2192748999223,837.2284954995848,837.2284954995848,840.3118306999095,praktisch,return,3.07432430004701,None,,,,,1,2024-01-09_08h31.20.277,watkins1,2023.2.3,99.76873584248791,76,2024-01-09 08h31.28.358415 +0000,
,,,,,,,,,,,,,,,,,,,,,,,24,0,24,0,840.8135351999663,,,,,,,,,,843.3178596999496,843.815986099653,,,,2.4972651000134647,,,,,,,,,,,,None,None,,,,,,,,,,Würfel,,,cuedRecallAdj,1,,,,,,,,,,,,,,,,,,,,,,,,,,,,,,,,,,,,,,,,,,,,,,,,,,,,,840.8037314997055,840.8135351999663,0,840.8135351999663,843.314345699735,teuer,return,2.4972651000134647,None,843.3146361997351,843.3239952996373,843.3239952996373,843.3177521997131,,None,,,,,,,1,2024-01-09_08h31.20.277,watkins1,2023.2.3,99.76873584248791,76,2024-01-09 08h31.28.358415 +0000,
,,,,,,,,,,,,,,,,,,,,,,,25,0,25,0,843.8259335998446,,,,,,,,,,848.0669847996905,848.5656822999008,,,,4.2287679999135435,,,,,,,,,,,,None,None,,,,,,,,,,Tasse,,,cuedRecallAdj,1,,,,,,,,,,,,,,,,,,,,,,,,,,,,,,,,,,,,,,,,,,,,,,,,,,,,,843.8162344996817,843.8259335998446,0,843.8259335998446,848.0639375997707,praktisch,return,4.2287679999135435,None,848.0642069997266,848.0736568998545,848.0736568998545,848.0668843998574,,None,,,,,,,1,2024-01-09_08h31.20.277,watkins1,2023.2.3,99.76873584248791,76,2024-01-09 08h31.28.358415 +0000,
,,,,,,,,,,,,,,,,,,,,,,,26,0,26,0,848.5756307998672,,,,,,,,,,853.4593862998299,853.9582387995906,,,,4.87907089991495,,,,,,,,,,,,None,None,,,,,,,,,,Kiste,,,cuedRecallAdj,1,,,,,,,,,,,,,,,,,,,,,,,,,,,,,,,,,,,,,,,,,,,,,,,,,,,,,848.5659249997698,848.5756307998672,0,848.5756307998672,853.456533299759,dick,return,4.87907089991495,None,853.4567996999249,853.4660942996852,853.4660942996852,853.4592844997533,,None,,,,,,,1,2024-01-09_08h31.20.277,watkins1,2023.2.3,99.76873584248791,76,2024-01-09 08h31.28.358415 +0000,
,,,,,,,,,,,,,,,,,,,,,,,27,0,27,0,853.9681983999908,,,,,,,,,,863.2074898998253,863.6987918997183,,,schwer,5.7106123003177345,,,,,,,,,,,,0.7320948000997305,None,,,,,,,,,,Vase,,,cuedRecallAdj,1,,,,,,,,,,,,,,,,,,,,,,,,,,,,,,,,,,,,,,,,,,,,,,,,,,,,,853.9584822999313,853.9681983999908,0,853.9681983999908,859.6824044999667,gepunktet,return,5.7106123003177345,None,859.6826732000336,859.6920076999813,859.6920076999813,863.2072232998908,schwer,return,3.5146722001954913,None,,,,,1,2024-01-09_08h31.20.277,watkins1,2023.2.3,99.76873584248791,76,2024-01-09 08h31.28.358415 +0000,
,,,,,,,,,,,,,,,,,,,,,,,28,0,28,0,863.7087476998568,,,,,,,,,,866.0322249997407,866.5304049998522,,,,2.3139420999214053,,,,,,,,,,,,None,None,,,,,,,,,,Löffel,,,cuedRecallAdj,1,,,,,,,,,,,,,,,,,,,,,,,,,,,,,,,,,,,,,,,,,,,,,,,,,,,,,863.6990349995904,863.7087476998568,0,863.7087476998568,866.0288645997643,niedlich,return,2.3139420999214053,None,866.029128999915,866.0383929996751,866.0383929996751,866.0321190999821,,None,,,,,,,1,2024-01-09_08h31.20.277,watkins1,2023.2.3,99.76873584248791,76,2024-01-09 08h31.28.358415 +0000,
,,,,,,,,,,,,,,,,,,,,,,,29,0,29,0,866.5403324998915,,,,,,,,,,868.1007331996225,868.5997738996521,,,,1.554314199835062,,,,,,,,,,,,None,None,,,,,,,,,,Trommel,,,cuedRecallAdj,1,,,,,,,,,,,,,,,,,,,,,,,,,,,,,,,,,,,,,,,,,,,,,,,,,,,,,866.5306437998079,866.5403324998915,0,866.5403324998915,868.0978592997417,gut,return,1.554314199835062,None,868.0981484996155,868.1074231998064,868.1074231998064,868.1006339997984,,None,,,,,,,1,2024-01-09_08h31.20.277,watkins1,2023.2.3,99.76873584248791,76,2024-01-09 08h31.28.358415 +0000,
,,,,,,,,,,,,,,,,,,,,,,,,,,,,,,,,,,,,,,,,,,,,,,,,,,,,,,,,,,,,,,,,,,,,,1,,,,,,,,,,,,,,,,,,,,,,,,,,,,,,,,,,,,,,,,,,,,,,,,,,,,,,,,,,,,,,,,,,,,,,868.616368399933,q,428.93439420033246,None,1,2024-01-09_08h31.20.277,watkins1,2023.2.3,99.76873584248791,76,2024-01-09 08h31.28.358415 +0000,
