Equation,CorrectResponse,Correctbutton,trials_7.thisRepN,trials_7.thisTrialN,trials_7.thisN,trials_7.thisIndex,trials.thisRepN,trials.thisTrialN,trials.thisN,trials.thisIndex,trials_3.thisRepN,trials_3.thisTrialN,trials_3.thisN,trials_3.thisIndex,trials_2.thisRepN,trials_2.thisTrialN,trials_2.thisN,trials_2.thisIndex,trials_4.thisRepN,trials_4.thisTrialN,trials_4.thisN,trials_4.thisIndex,trials_5.thisRepN,trials_5.thisTrialN,trials_5.thisN,trials_5.thisIndex,thisRow.t,notes,list_sub_restudy,list_sub_testsub,code_marius.started,code_marius.stopped,welcome.started,welcome.stopped,instruction_study.started,instruction_study.stopped,fixationcross.started,fixationcross.stopped,blanc.started,blanc.stopped,study_control_probe.started,study_control_probe.stopped,responseKey,responseTime,scale_answer_2.keys,study_control_probe_2.started,study_control_probe_2.stopped,scale_answer_3.keys,scale_answer_3.rt,scale_answer_3.duration,blanc_2.started,blanc_2.stopped,test_attr_probe.started,test_attr_probe.stopped,recalled_attr,firstKeyTime,secondWordTime,blanc_3.started,blanc_3.stopped,test_sub_probe.started,test_sub_probe.stopped,recalled_sub,instruction_probe_end.started,instruction_probe_end.stopped,study.started,study.stopped,substantive,adjective,wordpair,task,condition,liste_sub_phase1,liste_adj_phase1,scale_answer.keys,scale_answer.rt,scale_answer.duration,code_defineWordsInit.started,code_defineWordsInit.stopped,liste_sub_phase2,study_control.started,study_control.stopped,scale_answer_4.keys,restudy_same.started,restudy_same.stopped,scale_answer_5.keys,restudy_different.started,restudy_different.stopped,scale_answer_6.keys,test_attr.started,test_attr.stopped,test_sub.started,correct,test_sub.stopped,scale_answer_5.rt,scale_answer_5.duration,distractortask.started,equation_text.started,distractortask.stopped,mouse_answer.x,mouse_answer.y,mouse_answer.leftButton,mouse_answer.midButton,mouse_answer.rightButton,mouse_answer.time,mouse_answer.clicked_name,feedback_distractortask.started,feedback_distractortask.stopped,free_recall.started,text_enter.started,key_resp.started,free_recall.stopped,key_resp.keys,key_resp.rt,key_resp.duration,free_recalled_sub,mouse_continue.x,mouse_continue.y,mouse_continue.leftButton,mouse_continue.midButton,mouse_continue.rightButton,mouse_continue.time,mouse_continue.clicked_name,cued_recall.started,text_enter_2.started,key_continue.started,cued_recall.stopped,recalled_attr1,key_continue.keys,key_continue.rt,key_continue.duration,cued_recall_2.started,text_enter_3.started,key_continue_2.started,cued_recall_2.stopped,recalled_attr2,key_continue_2.keys,key_resp_8.started,key_resp_8.keys,key_resp_8.rt,key_resp_8.duration,condition,date,expName,psychopyVersion,frameRate,participant,expStart,
,,,,,,,,,,,,,,,,,,,,,,,,,,,,,"['Tasse', 'Geige', 'Kiste', 'Jacke', 'Lampe', 'Hammer', 'Schlüssel', 'Blume', 'Hut', 'Bürste', 'Kette', 'Telefon', 'Kamera', 'Löffel', 'Socke']","['Tasche', 'Vase', 'Rucksack', 'Fahrrad', 'Kerze', 'Stift', 'Brille', 'Würfel', 'Ring', 'Trommel', 'Buch', 'Flasche', 'Uhr', 'Schere', 'Eimer']",0.10862710000947118,0.10869499994441867,0.10870310012251139,4.9561248999089,,,,,,,,,,,,,,,,,,,,,,,,,,,,,,,,,,,,,2,,,,,,,,,,,,,,,,,,,,,,,,,,,,,,,,,,,,,,,,,,,,,,,,,,,,,,,,,,,,,,,,,,,,,,2,2024-01-16_14h37.48.354,watkins1,2023.2.3,99.6827098626323,92,2024-01-16 14h38.02.724976 +0000,
,,,,,,,,,,,,,,,,,,,,,,,,,,,,,,,,,,,4.956173799932003,46.15912560001016,,,,,,,,,,,,,,,,,,,,,,,,,,,,,,,,,,,2,,,,,,,,,,,,,,,,,,,,,,,,,,,,,,,,,,,,,,,,,,,,,,,,,,,,,,,,,,,,,,,,,,,,,,2,2024-01-16_14h37.48.354,watkins1,2023.2.3,99.6827098626323,92,2024-01-16 14h38.02.724976 +0000,
,,,0,0,0,0,,,,,,,,,,,,,,,,,,,,,47.172601600177586,,,,,,,,,,46.15914350003004,47.16261570015922,53.65805780002847,54.14912990015,47.65460979985073,53.65789130004123,3,2.5559292999096215,None,54.149139599874616,60.157806099858135,3,2.5559292999096215,None,60.15810009976849,60.15812479984015,60.158131800126284,60.158213399816304,,2.439639599993825,None,60.15838140016422,60.6492538000457,60.6492650997825,66.65386159997433,capslockhcapslock,,,,,,,,,2,,,,,,,,,,,,,,,,,,,,,,,,,,,,,,,,,,,,,,,,,,,,,,,,,,,,,,,,,,,,,,,,,,,,,,2,2024-01-16_14h37.48.354,watkins1,2023.2.3,99.6827098626323,92,2024-01-16 14h38.02.724976 +0000,
,,,,,,,,,,,,,,,,,,,,,,,,,,,,,,,,,,,,,,,,,,,,,,,,,,,,,,,,,,,,,,,66.65402119979262,75.46197010017931,,,,,,,2,,,,,,,,,,,,,,,,,,,,,,,,,,,,,,,,,,,,,,,,,,,,,,,,,,,,,,,,,,,,,,,,,,,,,,2,2024-01-16_14h37.48.354,watkins1,2023.2.3,99.6827098626323,92,2024-01-16 14h38.02.724976 +0000,
,,,,,,,0,0,0,0,,,,,,,,,,,,,,,,,76.475685399957,,,,,,,,,,75.46198799973354,76.4657005998306,76.46615590015426,76.95771260000765,,,3,3.175668700132519,,,,,,,,,,,,,,,,,,,,,76.95772340008989,82.9602879001759,Vase,flauschig,"['Vase', 'flauschig']",test_sub,2,"['Vase', 'Blume', 'Uhr', 'Ring', 'Geige', 'Hammer', 'Kiste', 'Brille', 'Löffel', 'Lampe', 'Flasche', 'Buch', 'Hut', 'Kette', 'Rucksack', 'Kerze', 'Schlüssel', 'Fahrrad', 'Tasche', 'Jacke', 'Trommel', 'Socke', 'Würfel', 'Tasse', 'Bürste', 'Telefon', 'Stift', 'Schere', 'Kamera', 'Eimer']",['flauschig'],3,3.175668700132519,None,,,,,,,,,,,,,,,,,,,,,,,,,,,,,,,,,,,,,,,,,,,,,,,,,,,,,,,,,,,,,,,,,2,2024-01-16_14h37.48.354,watkins1,2023.2.3,99.6827098626323,92,2024-01-16 14h38.02.724976 +0000,
,,,,,,,1,0,1,0,,,,,,,,,,,,,,,,,82.96980069996789,,,,,,,,,,,,82.96093120006844,83.45183059992269,,,1,2.7385914004407823,,,,,,,,,,,,,,,,,,,,,83.45184159977362,89.45938629982993,Blume,elegant,"['Blume', 'elegant']",restudy,2,"['Vase', 'Blume', 'Uhr', 'Ring', 'Geige', 'Hammer', 'Kiste', 'Brille', 'Löffel', 'Lampe', 'Flasche', 'Buch', 'Hut', 'Kette', 'Rucksack', 'Kerze', 'Schlüssel', 'Fahrrad', 'Tasche', 'Jacke', 'Trommel', 'Socke', 'Würfel', 'Tasse', 'Bürste', 'Telefon', 'Stift', 'Schere', 'Kamera', 'Eimer']","['flauschig', 'elegant']",1,2.7385914004407823,None,,,,,,,,,,,,,,,,,,,,,,,,,,,,,,,,,,,,,,,,,,,,,,,,,,,,,,,,,,,,,,,,,2,2024-01-16_14h37.48.354,watkins1,2023.2.3,99.6827098626323,92,2024-01-16 14h38.02.724976 +0000,
,,,,,,,2,0,2,0,,,,,,,,,,,,,,,,,89.46886660018936,,,,,,,,,,,,89.45991599978879,89.95205459976569,,,1,2.9987989999353886,,,,,,,,,,,,,,,,,,,,,89.95206729974598,95.95499210013077,Uhr,hohl,"['Uhr', 'hohl']",test_sub,2,"['Vase', 'Blume', 'Uhr', 'Ring', 'Geige', 'Hammer', 'Kiste', 'Brille', 'Löffel', 'Lampe', 'Flasche', 'Buch', 'Hut', 'Kette', 'Rucksack', 'Kerze', 'Schlüssel', 'Fahrrad', 'Tasche', 'Jacke', 'Trommel', 'Socke', 'Würfel', 'Tasse', 'Bürste', 'Telefon', 'Stift', 'Schere', 'Kamera', 'Eimer']","['flauschig', 'elegant', 'hohl']",1,2.9987989999353886,None,,,,,,,,,,,,,,,,,,,,,,,,,,,,,,,,,,,,,,,,,,,,,,,,,,,,,,,,,,,,,,,,,2,2024-01-16_14h37.48.354,watkins1,2023.2.3,99.6827098626323,92,2024-01-16 14h38.02.724976 +0000,
,,,,,,,3,0,3,0,,,,,,,,,,,,,,,,,95.9645223999396,,,,,,,,,,,,95.95552199985832,96.44643810018897,,,2,3.688372100237757,,,,,,,,,,,,,,,,,,,,,96.44644830003381,102.44912160001695,Ring,kratzig,"['Ring', 'kratzig']",test_sub,2,"['Vase', 'Blume', 'Uhr', 'Ring', 'Geige', 'Hammer', 'Kiste', 'Brille', 'Löffel', 'Lampe', 'Flasche', 'Buch', 'Hut', 'Kette', 'Rucksack', 'Kerze', 'Schlüssel', 'Fahrrad', 'Tasche', 'Jacke', 'Trommel', 'Socke', 'Würfel', 'Tasse', 'Bürste', 'Telefon', 'Stift', 'Schere', 'Kamera', 'Eimer']","['flauschig', 'elegant', 'hohl', 'kratzig']",2,3.688372100237757,None,,,,,,,,,,,,,,,,,,,,,,,,,,,,,,,,,,,,,,,,,,,,,,,,,,,,,,,,,,,,,,,,,2,2024-01-16_14h37.48.354,watkins1,2023.2.3,99.6827098626323,92,2024-01-16 14h38.02.724976 +0000,
,,,,,,,4,0,4,0,,,,,,,,,,,,,,,,,102.45857430016622,,,,,,,,,,,,102.44965009996668,102.94061379972845,,,3,1.546152399852872,,,,,,,,,,,,,,,,,,,,,102.94062490016222,108.94335149973631,Geige,nass,"['Geige', 'nass']",restudy,2,"['Vase', 'Blume', 'Uhr', 'Ring', 'Geige', 'Hammer', 'Kiste', 'Brille', 'Löffel', 'Lampe', 'Flasche', 'Buch', 'Hut', 'Kette', 'Rucksack', 'Kerze', 'Schlüssel', 'Fahrrad', 'Tasche', 'Jacke', 'Trommel', 'Socke', 'Würfel', 'Tasse', 'Bürste', 'Telefon', 'Stift', 'Schere', 'Kamera', 'Eimer']","['flauschig', 'elegant', 'hohl', 'kratzig', 'nass']",3,1.546152399852872,None,,,,,,,,,,,,,,,,,,,,,,,,,,,,,,,,,,,,,,,,,,,,,,,,,,,,,,,,,,,,,,,,,2,2024-01-16_14h37.48.354,watkins1,2023.2.3,99.6827098626323,92,2024-01-16 14h38.02.724976 +0000,
,,,,,,,5,0,5,0,,,,,,,,,,,,,,,,,108.95285389991477,,,,,,,,,,,,108.94388320017606,109.43485599989071,,,3,1.75616140011698,,,,,,,,,,,,,,,,,,,,,109.43486650008708,115.43789659999311,Hammer,zart,"['Hammer', 'zart']",restudy,2,"['Vase', 'Blume', 'Uhr', 'Ring', 'Geige', 'Hammer', 'Kiste', 'Brille', 'Löffel', 'Lampe', 'Flasche', 'Buch', 'Hut', 'Kette', 'Rucksack', 'Kerze', 'Schlüssel', 'Fahrrad', 'Tasche', 'Jacke', 'Trommel', 'Socke', 'Würfel', 'Tasse', 'Bürste', 'Telefon', 'Stift', 'Schere', 'Kamera', 'Eimer']","['flauschig', 'elegant', 'hohl', 'kratzig', 'nass', 'zart']",3,1.75616140011698,None,,,,,,,,,,,,,,,,,,,,,,,,,,,,,,,,,,,,,,,,,,,,,,,,,,,,,,,,,,,,,,,,,2,2024-01-16_14h37.48.354,watkins1,2023.2.3,99.6827098626323,92,2024-01-16 14h38.02.724976 +0000,
,,,,,,,6,0,6,0,,,,,,,,,,,,,,,,,115.44737590011209,,,,,,,,,,,,115.43842549994588,115.9292790000327,,,2,4.1092586000449955,,,,,,,,,,,,,,,,,,,,,115.92929029976949,121.93966779997572,Kiste,bunt,"['Kiste', 'bunt']",restudy,2,"['Vase', 'Blume', 'Uhr', 'Ring', 'Geige', 'Hammer', 'Kiste', 'Brille', 'Löffel', 'Lampe', 'Flasche', 'Buch', 'Hut', 'Kette', 'Rucksack', 'Kerze', 'Schlüssel', 'Fahrrad', 'Tasche', 'Jacke', 'Trommel', 'Socke', 'Würfel', 'Tasse', 'Bürste', 'Telefon', 'Stift', 'Schere', 'Kamera', 'Eimer']","['flauschig', 'elegant', 'hohl', 'kratzig', 'nass', 'zart', 'bunt']",2,4.1092586000449955,None,,,,,,,,,,,,,,,,,,,,,,,,,,,,,,,,,,,,,,,,,,,,,,,,,,,,,,,,,,,,,,,,,2,2024-01-16_14h37.48.354,watkins1,2023.2.3,99.6827098626323,92,2024-01-16 14h38.02.724976 +0000,
,,,,,,,7,0,7,0,,,,,,,,,,,,,,,,,121.94915550015867,,,,,,,,,,,,121.94018220016733,122.4311251998879,,,3,3.488535300362855,,,,,,,,,,,,,,,,,,,,,122.43113599997014,128.43920229980722,Brille,schmutzig,"['Brille', 'schmutzig']",test_sub,2,"['Vase', 'Blume', 'Uhr', 'Ring', 'Geige', 'Hammer', 'Kiste', 'Brille', 'Löffel', 'Lampe', 'Flasche', 'Buch', 'Hut', 'Kette', 'Rucksack', 'Kerze', 'Schlüssel', 'Fahrrad', 'Tasche', 'Jacke', 'Trommel', 'Socke', 'Würfel', 'Tasse', 'Bürste', 'Telefon', 'Stift', 'Schere', 'Kamera', 'Eimer']","['flauschig', 'elegant', 'hohl', 'kratzig', 'nass', 'zart', 'bunt', 'schmutzig']",3,3.488535300362855,None,,,,,,,,,,,,,,,,,,,,,,,,,,,,,,,,,,,,,,,,,,,,,,,,,,,,,,,,,,,,,,,,,2,2024-01-16_14h37.48.354,watkins1,2023.2.3,99.6827098626323,92,2024-01-16 14h38.02.724976 +0000,
,,,,,,,8,0,8,0,,,,,,,,,,,,,,,,,128.44870929978788,,,,,,,,,,,,128.4397130999714,128.93073080014437,,,1,2.4517514002509415,,,,,,,,,,,,,,,,,,,,,128.9307426000014,134.9376171999611,Löffel,glatt,"['Löffel', 'glatt']",restudy,2,"['Vase', 'Blume', 'Uhr', 'Ring', 'Geige', 'Hammer', 'Kiste', 'Brille', 'Löffel', 'Lampe', 'Flasche', 'Buch', 'Hut', 'Kette', 'Rucksack', 'Kerze', 'Schlüssel', 'Fahrrad', 'Tasche', 'Jacke', 'Trommel', 'Socke', 'Würfel', 'Tasse', 'Bürste', 'Telefon', 'Stift', 'Schere', 'Kamera', 'Eimer']","['flauschig', 'elegant', 'hohl', 'kratzig', 'nass', 'zart', 'bunt', 'schmutzig', 'glatt']",1,2.4517514002509415,None,,,,,,,,,,,,,,,,,,,,,,,,,,,,,,,,,,,,,,,,,,,,,,,,,,,,,,,,,,,,,,,,,2,2024-01-16_14h37.48.354,watkins1,2023.2.3,99.6827098626323,92,2024-01-16 14h38.02.724976 +0000,
,,,,,,,9,0,9,0,,,,,,,,,,,,,,,,,134.9470363999717,,,,,,,,,,,,134.9381279000081,135.42942349985242,,,3,4.3456525998190045,,,,,,,,,,,,,,,,,,,,,135.4294340000488,141.43391310004517,Lampe,durchsichtig,"['Lampe', 'durchsichtig']",restudy,2,"['Vase', 'Blume', 'Uhr', 'Ring', 'Geige', 'Hammer', 'Kiste', 'Brille', 'Löffel', 'Lampe', 'Flasche', 'Buch', 'Hut', 'Kette', 'Rucksack', 'Kerze', 'Schlüssel', 'Fahrrad', 'Tasche', 'Jacke', 'Trommel', 'Socke', 'Würfel', 'Tasse', 'Bürste', 'Telefon', 'Stift', 'Schere', 'Kamera', 'Eimer']","['flauschig', 'elegant', 'hohl', 'kratzig', 'nass', 'zart', 'bunt', 'schmutzig', 'glatt', 'durchsichtig']",3,4.3456525998190045,None,,,,,,,,,,,,,,,,,,,,,,,,,,,,,,,,,,,,,,,,,,,,,,,,,,,,,,,,,,,,,,,,,2,2024-01-16_14h37.48.354,watkins1,2023.2.3,99.6827098626323,92,2024-01-16 14h38.02.724976 +0000,
,,,,,,,10,0,10,0,,,,,,,,,,,,,,,,,141.44339649984613,,,,,,,,,,,,141.43442559987307,141.9253708999604,,,1,2.72172569995746,,,,,,,,,,,,,,,,,,,,,141.9253818001598,147.92707319976762,Flasche,biegsam,"['Flasche', 'biegsam']",test_sub,2,"['Vase', 'Blume', 'Uhr', 'Ring', 'Geige', 'Hammer', 'Kiste', 'Brille', 'Löffel', 'Lampe', 'Flasche', 'Buch', 'Hut', 'Kette', 'Rucksack', 'Kerze', 'Schlüssel', 'Fahrrad', 'Tasche', 'Jacke', 'Trommel', 'Socke', 'Würfel', 'Tasse', 'Bürste', 'Telefon', 'Stift', 'Schere', 'Kamera', 'Eimer']","['flauschig', 'elegant', 'hohl', 'kratzig', 'nass', 'zart', 'bunt', 'schmutzig', 'glatt', 'durchsichtig', 'biegsam']",1,2.72172569995746,None,,,,,,,,,,,,,,,,,,,,,,,,,,,,,,,,,,,,,,,,,,,,,,,,,,,,,,,,,,,,,,,,,2,2024-01-16_14h37.48.354,watkins1,2023.2.3,99.6827098626323,92,2024-01-16 14h38.02.724976 +0000,
,,,,,,,11,0,11,0,,,,,,,,,,,,,,,,,147.93653640011325,,,,,,,,,,,,147.92760160006583,148.41851089987904,,,2,3.2124131000600755,,,,,,,,,,,,,,,,,,,,,148.4185207001865,154.42508130008355,Buch,groß,"['Buch', 'groß']",test_sub,2,"['Vase', 'Blume', 'Uhr', 'Ring', 'Geige', 'Hammer', 'Kiste', 'Brille', 'Löffel', 'Lampe', 'Flasche', 'Buch', 'Hut', 'Kette', 'Rucksack', 'Kerze', 'Schlüssel', 'Fahrrad', 'Tasche', 'Jacke', 'Trommel', 'Socke', 'Würfel', 'Tasse', 'Bürste', 'Telefon', 'Stift', 'Schere', 'Kamera', 'Eimer']","['flauschig', 'elegant', 'hohl', 'kratzig', 'nass', 'zart', 'bunt', 'schmutzig', 'glatt', 'durchsichtig', 'biegsam', 'groß']",2,3.2124131000600755,None,,,,,,,,,,,,,,,,,,,,,,,,,,,,,,,,,,,,,,,,,,,,,,,,,,,,,,,,,,,,,,,,,2,2024-01-16_14h37.48.354,watkins1,2023.2.3,99.6827098626323,92,2024-01-16 14h38.02.724976 +0000,
,,,,,,,12,0,12,0,,,,,,,,,,,,,,,,,154.43455290002748,,,,,,,,,,,,154.4255992998369,154.91655729990453,,,3,3.9784423001110554,,,,,,,,,,,,,,,,,,,,,154.9165684999898,160.92026200005785,Hut,dunkel,"['Hut', 'dunkel']",restudy,2,"['Vase', 'Blume', 'Uhr', 'Ring', 'Geige', 'Hammer', 'Kiste', 'Brille', 'Löffel', 'Lampe', 'Flasche', 'Buch', 'Hut', 'Kette', 'Rucksack', 'Kerze', 'Schlüssel', 'Fahrrad', 'Tasche', 'Jacke', 'Trommel', 'Socke', 'Würfel', 'Tasse', 'Bürste', 'Telefon', 'Stift', 'Schere', 'Kamera', 'Eimer']","['flauschig', 'elegant', 'hohl', 'kratzig', 'nass', 'zart', 'bunt', 'schmutzig', 'glatt', 'durchsichtig', 'biegsam', 'groß', 'dunkel']",3,3.9784423001110554,None,,,,,,,,,,,,,,,,,,,,,,,,,,,,,,,,,,,,,,,,,,,,,,,,,,,,,,,,,,,,,,,,,2,2024-01-16_14h37.48.354,watkins1,2023.2.3,99.6827098626323,92,2024-01-16 14h38.02.724976 +0000,
,,,,,,,13,0,13,0,,,,,,,,,,,,,,,,,160.92971180006862,,,,,,,,,,,,160.920776899904,161.4123919000849,,,3,1.8104489999823272,,,,,,,,,,,,,,,,,,,,,161.41240289993584,167.42159650009125,Kette,hübsch,"['Kette', 'hübsch']",restudy,2,"['Vase', 'Blume', 'Uhr', 'Ring', 'Geige', 'Hammer', 'Kiste', 'Brille', 'Löffel', 'Lampe', 'Flasche', 'Buch', 'Hut', 'Kette', 'Rucksack', 'Kerze', 'Schlüssel', 'Fahrrad', 'Tasche', 'Jacke', 'Trommel', 'Socke', 'Würfel', 'Tasse', 'Bürste', 'Telefon', 'Stift', 'Schere', 'Kamera', 'Eimer']","['flauschig', 'elegant', 'hohl', 'kratzig', 'nass', 'zart', 'bunt', 'schmutzig', 'glatt', 'durchsichtig', 'biegsam', 'groß', 'dunkel', 'hübsch']",3,1.8104489999823272,None,,,,,,,,,,,,,,,,,,,,,,,,,,,,,,,,,,,,,,,,,,,,,,,,,,,,,,,,,,,,,,,,,2,2024-01-16_14h37.48.354,watkins1,2023.2.3,99.6827098626323,92,2024-01-16 14h38.02.724976 +0000,
,,,,,,,14,0,14,0,,,,,,,,,,,,,,,,,167.431102800183,,,,,,,,,,,,167.42211320018396,167.9131817999296,,,3,3.7664059000089765,,,,,,,,,,,,,,,,,,,,,167.91319279978052,173.9214686001651,Rucksack,klobig,"['Rucksack', 'klobig']",test_sub,2,"['Vase', 'Blume', 'Uhr', 'Ring', 'Geige', 'Hammer', 'Kiste', 'Brille', 'Löffel', 'Lampe', 'Flasche', 'Buch', 'Hut', 'Kette', 'Rucksack', 'Kerze', 'Schlüssel', 'Fahrrad', 'Tasche', 'Jacke', 'Trommel', 'Socke', 'Würfel', 'Tasse', 'Bürste', 'Telefon', 'Stift', 'Schere', 'Kamera', 'Eimer']","['flauschig', 'elegant', 'hohl', 'kratzig', 'nass', 'zart', 'bunt', 'schmutzig', 'glatt', 'durchsichtig', 'biegsam', 'groß', 'dunkel', 'hübsch', 'klobig']",3,3.7664059000089765,None,,,,,,,,,,,,,,,,,,,,,,,,,,,,,,,,,,,,,,,,,,,,,,,,,,,,,,,,,,,,,,,,,2,2024-01-16_14h37.48.354,watkins1,2023.2.3,99.6827098626323,92,2024-01-16 14h38.02.724976 +0000,
,,,,,,,15,0,15,0,,,,,,,,,,,,,,,,,173.9309398997575,,,,,,,,,,,,173.9219929999672,174.41285450011492,,,2,3.8272445001639426,,,,,,,,,,,,,,,,,,,,,174.4128644997254,180.42056240001693,Kerze,kaputt,"['Kerze', 'kaputt']",test_sub,2,"['Vase', 'Blume', 'Uhr', 'Ring', 'Geige', 'Hammer', 'Kiste', 'Brille', 'Löffel', 'Lampe', 'Flasche', 'Buch', 'Hut', 'Kette', 'Rucksack', 'Kerze', 'Schlüssel', 'Fahrrad', 'Tasche', 'Jacke', 'Trommel', 'Socke', 'Würfel', 'Tasse', 'Bürste', 'Telefon', 'Stift', 'Schere', 'Kamera', 'Eimer']","['flauschig', 'elegant', 'hohl', 'kratzig', 'nass', 'zart', 'bunt', 'schmutzig', 'glatt', 'durchsichtig', 'biegsam', 'groß', 'dunkel', 'hübsch', 'klobig', 'kaputt']",2,3.8272445001639426,None,,,,,,,,,,,,,,,,,,,,,,,,,,,,,,,,,,,,,,,,,,,,,,,,,,,,,,,,,,,,,,,,,2,2024-01-16_14h37.48.354,watkins1,2023.2.3,99.6827098626323,92,2024-01-16 14h38.02.724976 +0000,
,,,,,,,16,0,16,0,,,,,,,,,,,,,,,,,180.4300211998634,,,,,,,,,,,,180.42107969988137,180.91212760005146,,,1,2.286843300331384,,,,,,,,,,,,,,,,,,,,,180.9121385999024,186.9135337001644,Schlüssel,blass,"['Schlüssel', 'blass']",restudy,2,"['Vase', 'Blume', 'Uhr', 'Ring', 'Geige', 'Hammer', 'Kiste', 'Brille', 'Löffel', 'Lampe', 'Flasche', 'Buch', 'Hut', 'Kette', 'Rucksack', 'Kerze', 'Schlüssel', 'Fahrrad', 'Tasche', 'Jacke', 'Trommel', 'Socke', 'Würfel', 'Tasse', 'Bürste', 'Telefon', 'Stift', 'Schere', 'Kamera', 'Eimer']","['flauschig', 'elegant', 'hohl', 'kratzig', 'nass', 'zart', 'bunt', 'schmutzig', 'glatt', 'durchsichtig', 'biegsam', 'groß', 'dunkel', 'hübsch', 'klobig', 'kaputt', 'blass']",1,2.286843300331384,None,,,,,,,,,,,,,,,,,,,,,,,,,,,,,,,,,,,,,,,,,,,,,,,,,,,,,,,,,,,,,,,,,2,2024-01-16_14h37.48.354,watkins1,2023.2.3,99.6827098626323,92,2024-01-16 14h38.02.724976 +0000,
,,,,,,,17,0,17,0,,,,,,,,,,,,,,,,,186.92307690018788,,,,,,,,,,,,186.91405900008976,187.4050451000221,,,1,3.4586696000769734,,,,,,,,,,,,,,,,,,,,,187.40505479974672,193.41314580012113,Fahrrad,flach,"['Fahrrad', 'flach']",test_sub,2,"['Vase', 'Blume', 'Uhr', 'Ring', 'Geige', 'Hammer', 'Kiste', 'Brille', 'Löffel', 'Lampe', 'Flasche', 'Buch', 'Hut', 'Kette', 'Rucksack', 'Kerze', 'Schlüssel', 'Fahrrad', 'Tasche', 'Jacke', 'Trommel', 'Socke', 'Würfel', 'Tasse', 'Bürste', 'Telefon', 'Stift', 'Schere', 'Kamera', 'Eimer']","['flauschig', 'elegant', 'hohl', 'kratzig', 'nass', 'zart', 'bunt', 'schmutzig', 'glatt', 'durchsichtig', 'biegsam', 'groß', 'dunkel', 'hübsch', 'klobig', 'kaputt', 'blass', 'flach']",1,3.4586696000769734,None,,,,,,,,,,,,,,,,,,,,,,,,,,,,,,,,,,,,,,,,,,,,,,,,,,,,,,,,,,,,,,,,,2,2024-01-16_14h37.48.354,watkins1,2023.2.3,99.6827098626323,92,2024-01-16 14h38.02.724976 +0000,
,,,,,,,18,0,18,0,,,,,,,,,,,,,,,,,193.4225882999599,,,,,,,,,,,,193.41366459988058,193.90464949980378,,,2,3.541993800085038,,,,,,,,,,,,,,,,,,,,,193.90466019976884,199.9080849001184,Tasche,sauber,"['Tasche', 'sauber']",test_sub,2,"['Vase', 'Blume', 'Uhr', 'Ring', 'Geige', 'Hammer', 'Kiste', 'Brille', 'Löffel', 'Lampe', 'Flasche', 'Buch', 'Hut', 'Kette', 'Rucksack', 'Kerze', 'Schlüssel', 'Fahrrad', 'Tasche', 'Jacke', 'Trommel', 'Socke', 'Würfel', 'Tasse', 'Bürste', 'Telefon', 'Stift', 'Schere', 'Kamera', 'Eimer']","['flauschig', 'elegant', 'hohl', 'kratzig', 'nass', 'zart', 'bunt', 'schmutzig', 'glatt', 'durchsichtig', 'biegsam', 'groß', 'dunkel', 'hübsch', 'klobig', 'kaputt', 'blass', 'flach', 'sauber']",2,3.541993800085038,None,,,,,,,,,,,,,,,,,,,,,,,,,,,,,,,,,,,,,,,,,,,,,,,,,,,,,,,,,,,,,,,,,2,2024-01-16_14h37.48.354,watkins1,2023.2.3,99.6827098626323,92,2024-01-16 14h38.02.724976 +0000,
,,,,,,,19,0,19,0,,,,,,,,,,,,,,,,,199.91757000004873,,,,,,,,,,,,199.90862660016865,200.3995644999668,,,3,1.991127900313586,,,,,,,,,,,,,,,,,,,,,200.39957500016317,206.4100772999227,Jacke,praktisch,"['Jacke', 'praktisch']",restudy,2,"['Vase', 'Blume', 'Uhr', 'Ring', 'Geige', 'Hammer', 'Kiste', 'Brille', 'Löffel', 'Lampe', 'Flasche', 'Buch', 'Hut', 'Kette', 'Rucksack', 'Kerze', 'Schlüssel', 'Fahrrad', 'Tasche', 'Jacke', 'Trommel', 'Socke', 'Würfel', 'Tasse', 'Bürste', 'Telefon', 'Stift', 'Schere', 'Kamera', 'Eimer']","['flauschig', 'elegant', 'hohl', 'kratzig', 'nass', 'zart', 'bunt', 'schmutzig', 'glatt', 'durchsichtig', 'biegsam', 'groß', 'dunkel', 'hübsch', 'klobig', 'kaputt', 'blass', 'flach', 'sauber', 'praktisch']",3,1.991127900313586,None,,,,,,,,,,,,,,,,,,,,,,,,,,,,,,,,,,,,,,,,,,,,,,,,,,,,,,,,,,,,,,,,,2,2024-01-16_14h37.48.354,watkins1,2023.2.3,99.6827098626323,92,2024-01-16 14h38.02.724976 +0000,
,,,,,,,20,0,20,0,,,,,,,,,,,,,,,,,206.41955569991842,,,,,,,,,,,,206.41059869993478,206.90167120005935,,,3,2.2419689996168017,,,,,,,,,,,,,,,,,,,,,206.90168230002746,212.9116632998921,Trommel,teuer,"['Trommel', 'teuer']",test_sub,2,"['Vase', 'Blume', 'Uhr', 'Ring', 'Geige', 'Hammer', 'Kiste', 'Brille', 'Löffel', 'Lampe', 'Flasche', 'Buch', 'Hut', 'Kette', 'Rucksack', 'Kerze', 'Schlüssel', 'Fahrrad', 'Tasche', 'Jacke', 'Trommel', 'Socke', 'Würfel', 'Tasse', 'Bürste', 'Telefon', 'Stift', 'Schere', 'Kamera', 'Eimer']","['flauschig', 'elegant', 'hohl', 'kratzig', 'nass', 'zart', 'bunt', 'schmutzig', 'glatt', 'durchsichtig', 'biegsam', 'groß', 'dunkel', 'hübsch', 'klobig', 'kaputt', 'blass', 'flach', 'sauber', 'praktisch', 'teuer']",3,2.2419689996168017,None,,,,,,,,,,,,,,,,,,,,,,,,,,,,,,,,,,,,,,,,,,,,,,,,,,,,,,,,,,,,,,,,,2,2024-01-16_14h37.48.354,watkins1,2023.2.3,99.6827098626323,92,2024-01-16 14h38.02.724976 +0000,
,,,,,,,21,0,21,0,,,,,,,,,,,,,,,,,212.92117039998993,,,,,,,,,,,,212.912184599787,213.40313619980589,,,3,3.7967163999564946,,,,,,,,,,,,,,,,,,,,,213.40314720012248,219.411804900039,Socke,gut,"['Socke', 'gut']",restudy,2,"['Vase', 'Blume', 'Uhr', 'Ring', 'Geige', 'Hammer', 'Kiste', 'Brille', 'Löffel', 'Lampe', 'Flasche', 'Buch', 'Hut', 'Kette', 'Rucksack', 'Kerze', 'Schlüssel', 'Fahrrad', 'Tasche', 'Jacke', 'Trommel', 'Socke', 'Würfel', 'Tasse', 'Bürste', 'Telefon', 'Stift', 'Schere', 'Kamera', 'Eimer']","['flauschig', 'elegant', 'hohl', 'kratzig', 'nass', 'zart', 'bunt', 'schmutzig', 'glatt', 'durchsichtig', 'biegsam', 'groß', 'dunkel', 'hübsch', 'klobig', 'kaputt', 'blass', 'flach', 'sauber', 'praktisch', 'teuer', 'gut']",3,3.7967163999564946,None,,,,,,,,,,,,,,,,,,,,,,,,,,,,,,,,,,,,,,,,,,,,,,,,,,,,,,,,,,,,,,,,,2,2024-01-16_14h37.48.354,watkins1,2023.2.3,99.6827098626323,92,2024-01-16 14h38.02.724976 +0000,
,,,,,,,22,0,22,0,,,,,,,,,,,,,,,,,219.42128439992666,,,,,,,,,,,,219.41233809990808,219.90325250010937,,,3,3.111683299764991,,,,,,,,,,,,,,,,,,,,,219.903263699729,225.91076420014724,Würfel,gepunktet,"['Würfel', 'gepunktet']",test_sub,2,"['Vase', 'Blume', 'Uhr', 'Ring', 'Geige', 'Hammer', 'Kiste', 'Brille', 'Löffel', 'Lampe', 'Flasche', 'Buch', 'Hut', 'Kette', 'Rucksack', 'Kerze', 'Schlüssel', 'Fahrrad', 'Tasche', 'Jacke', 'Trommel', 'Socke', 'Würfel', 'Tasse', 'Bürste', 'Telefon', 'Stift', 'Schere', 'Kamera', 'Eimer']","['flauschig', 'elegant', 'hohl', 'kratzig', 'nass', 'zart', 'bunt', 'schmutzig', 'glatt', 'durchsichtig', 'biegsam', 'groß', 'dunkel', 'hübsch', 'klobig', 'kaputt', 'blass', 'flach', 'sauber', 'praktisch', 'teuer', 'gut', 'gepunktet']",3,3.111683299764991,None,,,,,,,,,,,,,,,,,,,,,,,,,,,,,,,,,,,,,,,,,,,,,,,,,,,,,,,,,,,,,,,,,2,2024-01-16_14h37.48.354,watkins1,2023.2.3,99.6827098626323,92,2024-01-16 14h38.02.724976 +0000,
,,,,,,,23,0,23,0,,,,,,,,,,,,,,,,,225.92021160013974,,,,,,,,,,,,225.9113733000122,226.40255590016022,,,2,4.357186700217426,,,,,,,,,,,,,,,,,,,,,226.4025658997707,232.41104000015184,Tasse,strahlend,"['Tasse', 'strahlend']",restudy,2,"['Vase', 'Blume', 'Uhr', 'Ring', 'Geige', 'Hammer', 'Kiste', 'Brille', 'Löffel', 'Lampe', 'Flasche', 'Buch', 'Hut', 'Kette', 'Rucksack', 'Kerze', 'Schlüssel', 'Fahrrad', 'Tasche', 'Jacke', 'Trommel', 'Socke', 'Würfel', 'Tasse', 'Bürste', 'Telefon', 'Stift', 'Schere', 'Kamera', 'Eimer']","['flauschig', 'elegant', 'hohl', 'kratzig', 'nass', 'zart', 'bunt', 'schmutzig', 'glatt', 'durchsichtig', 'biegsam', 'groß', 'dunkel', 'hübsch', 'klobig', 'kaputt', 'blass', 'flach', 'sauber', 'praktisch', 'teuer', 'gut', 'gepunktet', 'strahlend']",2,4.357186700217426,None,,,,,,,,,,,,,,,,,,,,,,,,,,,,,,,,,,,,,,,,,,,,,,,,,,,,,,,,,,,,,,,,,2,2024-01-16_14h37.48.354,watkins1,2023.2.3,99.6827098626323,92,2024-01-16 14h38.02.724976 +0000,
,,,,,,,24,0,24,0,,,,,,,,,,,,,,,,,232.42055669985712,,,,,,,,,,,,232.41156060015783,232.90244309976697,,,1,2.1128623001277447,,,,,,,,,,,,,,,,,,,,,232.90245429985225,238.90503650018945,Bürste,sportlich,"['Bürste', 'sportlich']",restudy,2,"['Vase', 'Blume', 'Uhr', 'Ring', 'Geige', 'Hammer', 'Kiste', 'Brille', 'Löffel', 'Lampe', 'Flasche', 'Buch', 'Hut', 'Kette', 'Rucksack', 'Kerze', 'Schlüssel', 'Fahrrad', 'Tasche', 'Jacke', 'Trommel', 'Socke', 'Würfel', 'Tasse', 'Bürste', 'Telefon', 'Stift', 'Schere', 'Kamera', 'Eimer']","['flauschig', 'elegant', 'hohl', 'kratzig', 'nass', 'zart', 'bunt', 'schmutzig', 'glatt', 'durchsichtig', 'biegsam', 'groß', 'dunkel', 'hübsch', 'klobig', 'kaputt', 'blass', 'flach', 'sauber', 'praktisch', 'teuer', 'gut', 'gepunktet', 'strahlend', 'sportlich']",1,2.1128623001277447,None,,,,,,,,,,,,,,,,,,,,,,,,,,,,,,,,,,,,,,,,,,,,,,,,,,,,,,,,,,,,,,,,,2,2024-01-16_14h37.48.354,watkins1,2023.2.3,99.6827098626323,92,2024-01-16 14h38.02.724976 +0000,
,,,,,,,25,0,25,0,,,,,,,,,,,,,,,,,238.9145806999877,,,,,,,,,,,,238.9055523998104,239.39644020004198,,,1,2.4191199000924826,,,,,,,,,,,,,,,,,,,,,239.39645159989595,245.39778089988977,Telefon,lustig,"['Telefon', 'lustig']",restudy,2,"['Vase', 'Blume', 'Uhr', 'Ring', 'Geige', 'Hammer', 'Kiste', 'Brille', 'Löffel', 'Lampe', 'Flasche', 'Buch', 'Hut', 'Kette', 'Rucksack', 'Kerze', 'Schlüssel', 'Fahrrad', 'Tasche', 'Jacke', 'Trommel', 'Socke', 'Würfel', 'Tasse', 'Bürste', 'Telefon', 'Stift', 'Schere', 'Kamera', 'Eimer']","['flauschig', 'elegant', 'hohl', 'kratzig', 'nass', 'zart', 'bunt', 'schmutzig', 'glatt', 'durchsichtig', 'biegsam', 'groß', 'dunkel', 'hübsch', 'klobig', 'kaputt', 'blass', 'flach', 'sauber', 'praktisch', 'teuer', 'gut', 'gepunktet', 'strahlend', 'sportlich', 'lustig']",1,2.4191199000924826,None,,,,,,,,,,,,,,,,,,,,,,,,,,,,,,,,,,,,,,,,,,,,,,,,,,,,,,,,,,,,,,,,,2,2024-01-16_14h37.48.354,watkins1,2023.2.3,99.6827098626323,92,2024-01-16 14h38.02.724976 +0000,
,,,,,,,26,0,26,0,,,,,,,,,,,,,,,,,245.40731759974733,,,,,,,,,,,,245.39831480011344,245.8895135000348,,,2,4.621191099751741,,,,,,,,,,,,,,,,,,,,,245.88952510012314,251.89596580015495,Stift,verspielt,"['Stift', 'verspielt']",test_sub,2,"['Vase', 'Blume', 'Uhr', 'Ring', 'Geige', 'Hammer', 'Kiste', 'Brille', 'Löffel', 'Lampe', 'Flasche', 'Buch', 'Hut', 'Kette', 'Rucksack', 'Kerze', 'Schlüssel', 'Fahrrad', 'Tasche', 'Jacke', 'Trommel', 'Socke', 'Würfel', 'Tasse', 'Bürste', 'Telefon', 'Stift', 'Schere', 'Kamera', 'Eimer']","['flauschig', 'elegant', 'hohl', 'kratzig', 'nass', 'zart', 'bunt', 'schmutzig', 'glatt', 'durchsichtig', 'biegsam', 'groß', 'dunkel', 'hübsch', 'klobig', 'kaputt', 'blass', 'flach', 'sauber', 'praktisch', 'teuer', 'gut', 'gepunktet', 'strahlend', 'sportlich', 'lustig', 'verspielt']",2,4.621191099751741,None,,,,,,,,,,,,,,,,,,,,,,,,,,,,,,,,,,,,,,,,,,,,,,,,,,,,,,,,,,,,,,,,,2,2024-01-16_14h37.48.354,watkins1,2023.2.3,99.6827098626323,92,2024-01-16 14h38.02.724976 +0000,
,,,,,,,27,0,27,0,,,,,,,,,,,,,,,,,251.9054589997977,,,,,,,,,,,,251.89647749997675,252.3875369997695,,,1,3.297430300153792,,,,,,,,,,,,,,,,,,,,,252.38754769973457,258.39791940012947,Schere,matt,"['Schere', 'matt']",test_sub,2,"['Vase', 'Blume', 'Uhr', 'Ring', 'Geige', 'Hammer', 'Kiste', 'Brille', 'Löffel', 'Lampe', 'Flasche', 'Buch', 'Hut', 'Kette', 'Rucksack', 'Kerze', 'Schlüssel', 'Fahrrad', 'Tasche', 'Jacke', 'Trommel', 'Socke', 'Würfel', 'Tasse', 'Bürste', 'Telefon', 'Stift', 'Schere', 'Kamera', 'Eimer']","['flauschig', 'elegant', 'hohl', 'kratzig', 'nass', 'zart', 'bunt', 'schmutzig', 'glatt', 'durchsichtig', 'biegsam', 'groß', 'dunkel', 'hübsch', 'klobig', 'kaputt', 'blass', 'flach', 'sauber', 'praktisch', 'teuer', 'gut', 'gepunktet', 'strahlend', 'sportlich', 'lustig', 'verspielt', 'matt']",1,3.297430300153792,None,,,,,,,,,,,,,,,,,,,,,,,,,,,,,,,,,,,,,,,,,,,,,,,,,,,,,,,,,,,,,,,,,2,2024-01-16_14h37.48.354,watkins1,2023.2.3,99.6827098626323,92,2024-01-16 14h38.02.724976 +0000,
,,,,,,,28,0,28,0,,,,,,,,,,,,,,,,,258.40735880006105,,,,,,,,,,,,258.3984236000106,258.88927659997717,,,1,4.421432099770755,,,,,,,,,,,,,,,,,,,,,258.8892879001796,264.8933083000593,Kamera,hässlich,"['Kamera', 'hässlich']",restudy,2,"['Vase', 'Blume', 'Uhr', 'Ring', 'Geige', 'Hammer', 'Kiste', 'Brille', 'Löffel', 'Lampe', 'Flasche', 'Buch', 'Hut', 'Kette', 'Rucksack', 'Kerze', 'Schlüssel', 'Fahrrad', 'Tasche', 'Jacke', 'Trommel', 'Socke', 'Würfel', 'Tasse', 'Bürste', 'Telefon', 'Stift', 'Schere', 'Kamera', 'Eimer']","['flauschig', 'elegant', 'hohl', 'kratzig', 'nass', 'zart', 'bunt', 'schmutzig', 'glatt', 'durchsichtig', 'biegsam', 'groß', 'dunkel', 'hübsch', 'klobig', 'kaputt', 'blass', 'flach', 'sauber', 'praktisch', 'teuer', 'gut', 'gepunktet', 'strahlend', 'sportlich', 'lustig', 'verspielt', 'matt', 'hässlich']",1,4.421432099770755,None,,,,,,,,,,,,,,,,,,,,,,,,,,,,,,,,,,,,,,,,,,,,,,,,,,,,,,,,,,,,,,,,,2,2024-01-16_14h37.48.354,watkins1,2023.2.3,99.6827098626323,92,2024-01-16 14h38.02.724976 +0000,
,,,,,,,29,0,29,0,,,,,,,,,,,,,,,,,264.90275079989806,,,,,,,,,,,,264.8938353997655,265.38476669974625,,,2,2.7499737003818154,,,,,,,,,,,,,,,,,,,,,265.3847774998285,271.38681870000437,Eimer,schwer,"['Eimer', 'schwer']",test_sub,2,"['Vase', 'Blume', 'Uhr', 'Ring', 'Geige', 'Hammer', 'Kiste', 'Brille', 'Löffel', 'Lampe', 'Flasche', 'Buch', 'Hut', 'Kette', 'Rucksack', 'Kerze', 'Schlüssel', 'Fahrrad', 'Tasche', 'Jacke', 'Trommel', 'Socke', 'Würfel', 'Tasse', 'Bürste', 'Telefon', 'Stift', 'Schere', 'Kamera', 'Eimer']","['flauschig', 'elegant', 'hohl', 'kratzig', 'nass', 'zart', 'bunt', 'schmutzig', 'glatt', 'durchsichtig', 'biegsam', 'groß', 'dunkel', 'hübsch', 'klobig', 'kaputt', 'blass', 'flach', 'sauber', 'praktisch', 'teuer', 'gut', 'gepunktet', 'strahlend', 'sportlich', 'lustig', 'verspielt', 'matt', 'hässlich', 'schwer']",2,2.7499737003818154,None,,,,,,,,,,,,,,,,,,,,,,,,,,,,,,,,,,,,,,,,,,,,,,,,,,,,,,,,,,,,,,,,,2,2024-01-16_14h37.48.354,watkins1,2023.2.3,99.6827098626323,92,2024-01-16 14h38.02.724976 +0000,
,,,,,,,,,,,0,0,0,0,,,,,,,,,,,,,271.3963554999791,,,,,,,,,,,,271.38766109989956,271.8783641997725,,,[],[],,,,,,,,,,,,None,None,,,,,,,,,,Buch,groß,"['Buch', 'groß']",test_sub,2,,,,,,271.3875857000239,271.38763369992375,"['Buch', 'Trommel', 'Ring', 'Brille', 'Eimer', 'Kamera', 'Kette', 'Tasse', 'Blume', 'Geige', 'Hut', 'Kiste', 'Uhr', 'Bürste', 'Schere', 'Rucksack', 'Würfel', 'Flasche', 'Vase', 'Löffel', 'Fahrrad', 'Stift', 'Socke', 'Telefon', 'Kerze', 'Hammer', 'Tasche', 'Jacke', 'Lampe', 'Schlüssel']",271.87837549997494,271.8809417001903,None,271.8811244000681,271.88350829994306,None,271.8836682997644,271.8861822001636,None,271.88633750006557,271.8873685998842,271.8873807997443,0,277.8920279997401,,,,,,,,,,,,,,,,,,,,,,,,,,,,,,,,,,,,,,,,,,,,,,,,2,2024-01-16_14h37.48.354,watkins1,2023.2.3,99.6827098626323,92,2024-01-16 14h38.02.724976 +0000,
,,,,,,,,,,,1,0,1,0,,,,,,,,,,,,,277.90181040018797,,,,,,,,,,,,277.8923094999045,278.38389470009133,,,[],[],,,,,,,,,,,,2.8414676999673247,None,,,,,trommek,,,,,Trommel,teuer,"['Trommel', 'teuer']",test_sub,2,,,,,,277.89224469987676,277.8922812999226,"['Buch', 'Trommel', 'Ring', 'Brille', 'Eimer', 'Kamera', 'Kette', 'Tasse', 'Blume', 'Geige', 'Hut', 'Kiste', 'Uhr', 'Bürste', 'Schere', 'Rucksack', 'Würfel', 'Flasche', 'Vase', 'Löffel', 'Fahrrad', 'Stift', 'Socke', 'Telefon', 'Kerze', 'Hammer', 'Tasche', 'Jacke', 'Lampe', 'Schlüssel']",278.3839051001705,278.38651009975,None,278.3866302999668,278.3891496001743,None,278.38925880007446,278.3916756999679,None,278.3917831997387,278.3929908997379,278.39300320018083,0,284.39730229973793,,,,,,,,,,,,,,,,,,,,,,,,,,,,,,,,,,,,,,,,,,,,,,,,2,2024-01-16_14h37.48.354,watkins1,2023.2.3,99.6827098626323,92,2024-01-16 14h38.02.724976 +0000,
,,,,,,,,,,,2,0,2,0,,,,,,,,,,,,,284.4071055999957,,,,,,,,,,,,284.3975841999054,284.88907889975235,,,[],[],,,,,,,,,,,,4.387899199966341,None,,,,,ring,,,,,Ring,kratzig,"['Ring', 'kratzig']",test_sub,2,,,,,,284.39751760009676,284.3975554998033,"['Buch', 'Trommel', 'Ring', 'Brille', 'Eimer', 'Kamera', 'Kette', 'Tasse', 'Blume', 'Geige', 'Hut', 'Kiste', 'Uhr', 'Bürste', 'Schere', 'Rucksack', 'Würfel', 'Flasche', 'Vase', 'Löffel', 'Fahrrad', 'Stift', 'Socke', 'Telefon', 'Kerze', 'Hammer', 'Tasche', 'Jacke', 'Lampe', 'Schlüssel']",284.8890900001861,284.89164269994944,None,284.8917645001784,284.89413699973375,None,284.8942460999824,284.8966195001267,None,284.8967279000208,284.89776099985465,284.8977732001804,0,290.9023641999811,,,,,,,,,,,,,,,,,,,,,,,,,,,,,,,,,,,,,,,,,,,,,,,,2,2024-01-16_14h37.48.354,watkins1,2023.2.3,99.6827098626323,92,2024-01-16 14h38.02.724976 +0000,
,,,,,,,,,,,3,0,3,0,,,,,,,,,,,,,290.91222429974005,,,,,,,,,,,,290.9026420000009,291.39416879974306,,,[],[],,,,,,,,,,,,4.268607299774885,None,,,,,tasche,,,,,Brille,schmutzig,"['Brille', 'schmutzig']",test_sub,2,,,,,,290.90257519995794,290.9026132998988,"['Buch', 'Trommel', 'Ring', 'Brille', 'Eimer', 'Kamera', 'Kette', 'Tasse', 'Blume', 'Geige', 'Hut', 'Kiste', 'Uhr', 'Bürste', 'Schere', 'Rucksack', 'Würfel', 'Flasche', 'Vase', 'Löffel', 'Fahrrad', 'Stift', 'Socke', 'Telefon', 'Kerze', 'Hammer', 'Tasche', 'Jacke', 'Lampe', 'Schlüssel']",291.39417969994247,291.39688629982993,None,291.39700530003756,291.3995313998312,None,291.39963909983635,291.4021491999738,None,291.4022550000809,291.4034212999977,291.403433999978,0,297.4093700000085,,,,,,,,,,,,,,,,,,,,,,,,,,,,,,,,,,,,,,,,,,,,,,,,2,2024-01-16_14h37.48.354,watkins1,2023.2.3,99.6827098626323,92,2024-01-16 14h38.02.724976 +0000,
,,,,,,,,,,,4,0,4,0,,,,,,,,,,,,,297.4190716999583,,,,,,,,,,,,297.4096555998549,297.90108639979735,,,[],[],,,,,,,,,,,,1.7984747998416424,None,,,,,eimer,,,,,Eimer,schwer,"['Eimer', 'schwer']",test_sub,2,,,,,,297.4095871001482,297.40962619986385,"['Buch', 'Trommel', 'Ring', 'Brille', 'Eimer', 'Kamera', 'Kette', 'Tasse', 'Blume', 'Geige', 'Hut', 'Kiste', 'Uhr', 'Bürste', 'Schere', 'Rucksack', 'Würfel', 'Flasche', 'Vase', 'Löffel', 'Fahrrad', 'Stift', 'Socke', 'Telefon', 'Kerze', 'Hammer', 'Tasche', 'Jacke', 'Lampe', 'Schlüssel']",297.9010979998857,297.90387240005657,None,297.90399729972705,297.90657219989225,None,297.90668109990656,297.9092537998222,None,297.9093610998243,297.91051129996777,297.9105258998461,0,303.91601340007037,,,,,,,,,,,,,,,,,,,,,,,,,,,,,,,,,,,,,,,,,,,,,,,,2,2024-01-16_14h37.48.354,watkins1,2023.2.3,99.6827098626323,92,2024-01-16 14h38.02.724976 +0000,
,,,,,,,,,,,5,0,5,0,,,,,,,,,,,,,303.92578649986535,,,,,,,,,,,,303.91629830002785,304.4078160999343,,,[],[],,,,,,,,,,,,None,None,,,,,,,,,,Kamera,hässlich,"['Kamera', 'hässlich']",restudy,2,,,,,,303.9162288000807,303.9162682997994,"['Buch', 'Trommel', 'Ring', 'Brille', 'Eimer', 'Kamera', 'Kette', 'Tasse', 'Blume', 'Geige', 'Hut', 'Kiste', 'Uhr', 'Bürste', 'Schere', 'Rucksack', 'Würfel', 'Flasche', 'Vase', 'Löffel', 'Fahrrad', 'Stift', 'Socke', 'Telefon', 'Kerze', 'Hammer', 'Tasche', 'Jacke', 'Lampe', 'Schlüssel']",304.40782650001347,304.41053280001506,None,304.41065239999443,310.41331540001556,None,310.4134479998611,310.4161720997654,None,310.4162840000354,310.4174465998076,310.41745790001005,,310.41897269990295,,,,,,,,,,,,,,,,,,,,,,,,,,,,,,,,,,,,,,,,,,,,,,,,2,2024-01-16_14h37.48.354,watkins1,2023.2.3,99.6827098626323,92,2024-01-16 14h38.02.724976 +0000,
,,,,,,,,,,,6,0,6,0,,,,,,,,,,,,,310.42276229988784,,,,,,,,,,,,310.41925649996847,310.91486370004714,,,[],[],,,,,,,,,,,,None,None,,,,,,,,,,Kette,hübsch,"['Kette', 'hübsch']",restudy,2,,,,,,310.4191919998266,310.4192296997644,"['Buch', 'Trommel', 'Ring', 'Brille', 'Eimer', 'Kamera', 'Kette', 'Tasse', 'Blume', 'Geige', 'Hut', 'Kiste', 'Uhr', 'Bürste', 'Schere', 'Rucksack', 'Würfel', 'Flasche', 'Vase', 'Löffel', 'Fahrrad', 'Stift', 'Socke', 'Telefon', 'Kerze', 'Hammer', 'Tasche', 'Jacke', 'Lampe', 'Schlüssel']",310.91487549990416,310.9176265997812,None,310.9177505001426,316.9189820997417,3,316.9193659997545,316.9220293997787,None,316.92214079992846,316.92329829977825,316.9233097000979,,316.92448149994016,2.473981199786067,None,,,,,,,,,,,,,,,,,,,,,,,,,,,,,,,,,,,,,,,,,,,,,,2,2024-01-16_14h37.48.354,watkins1,2023.2.3,99.6827098626323,92,2024-01-16 14h38.02.724976 +0000,
,,,,,,,,,,,7,0,7,0,,,,,,,,,,,,,316.9284612997435,,,,,,,,,,,,316.9247623998672,317.42046120017767,,,[],[],,,,,,,,,,,,None,None,,,,,,,,,,Tasse,strahlend,"['Tasse', 'strahlend']",restudy,2,,,,,,316.92469829972833,316.9247361999005,"['Buch', 'Trommel', 'Ring', 'Brille', 'Eimer', 'Kamera', 'Kette', 'Tasse', 'Blume', 'Geige', 'Hut', 'Kiste', 'Uhr', 'Bürste', 'Schere', 'Rucksack', 'Würfel', 'Flasche', 'Vase', 'Löffel', 'Fahrrad', 'Stift', 'Socke', 'Telefon', 'Kerze', 'Hammer', 'Tasche', 'Jacke', 'Lampe', 'Schlüssel']",317.4204723001458,317.42327750008553,None,317.423399399966,323.4241232997738,2,323.42441400000826,323.42714540008456,None,323.4272594000213,323.42842350015417,323.4284353000112,,323.42967960005626,4.080867000389844,None,,,,,,,,,,,,,,,,,,,,,,,,,,,,,,,,,,,,,,,,,,,,,,2,2024-01-16_14h37.48.354,watkins1,2023.2.3,99.6827098626323,92,2024-01-16 14h38.02.724976 +0000,
,,,,,,,,,,,8,0,8,0,,,,,,,,,,,,,323.43365240003914,,,,,,,,,,,,323.42995949974284,323.9255790999159,,,[],[],,,,,,,,,,,,None,None,,,,,,,,,,Blume,elegant,"['Blume', 'elegant']",restudy,2,,,,,,323.42989409994334,323.4299324997701,"['Buch', 'Trommel', 'Ring', 'Brille', 'Eimer', 'Kamera', 'Kette', 'Tasse', 'Blume', 'Geige', 'Hut', 'Kiste', 'Uhr', 'Bürste', 'Schere', 'Rucksack', 'Würfel', 'Flasche', 'Vase', 'Löffel', 'Fahrrad', 'Stift', 'Socke', 'Telefon', 'Kerze', 'Hammer', 'Tasche', 'Jacke', 'Lampe', 'Schlüssel']",323.9255904001184,323.92851570015773,None,323.9286389001645,329.93435089988634,3,329.93464889982715,329.9373250999488,None,329.93743509985507,329.93857990019023,329.93859119992703,,329.9397753998637,1.8950720001012087,None,,,,,,,,,,,,,,,,,,,,,,,,,,,,,,,,,,,,,,,,,,,,,,2,2024-01-16_14h37.48.354,watkins1,2023.2.3,99.6827098626323,92,2024-01-16 14h38.02.724976 +0000,
,,,,,,,,,,,9,0,9,0,,,,,,,,,,,,,329.9438414997421,,,,,,,,,,,,329.9400537000038,330.43597669992596,,,[],[],,,,,,,,,,,,None,None,,,,,,,,,,Geige,nass,"['Geige', 'nass']",restudy,2,,,,,,329.93998949974775,329.9400268001482,"['Buch', 'Trommel', 'Ring', 'Brille', 'Eimer', 'Kamera', 'Kette', 'Tasse', 'Blume', 'Geige', 'Hut', 'Kiste', 'Uhr', 'Bürste', 'Schere', 'Rucksack', 'Würfel', 'Flasche', 'Vase', 'Löffel', 'Fahrrad', 'Stift', 'Socke', 'Telefon', 'Kerze', 'Hammer', 'Tasche', 'Jacke', 'Lampe', 'Schlüssel']",330.43598729977384,330.4387984997593,None,330.43891789996997,336.44557159999385,1,336.44595429999754,336.4485035999678,None,336.4486140999943,336.449770799838,336.44978229980916,,336.450819300022,2.129188199993223,None,,,,,,,,,,,,,,,,,,,,,,,,,,,,,,,,,,,,,,,,,,,,,,2,2024-01-16_14h37.48.354,watkins1,2023.2.3,99.6827098626323,92,2024-01-16 14h38.02.724976 +0000,
,,,,,,,,,,,10,0,10,0,,,,,,,,,,,,,336.4544135001488,,,,,,,,,,,,336.4511000998318,336.94678629981354,,,[],[],,,,,,,,,,,,None,None,,,,,,,,,,Hut,dunkel,"['Hut', 'dunkel']",restudy,2,,,,,,336.45103529980406,336.451073799748,"['Buch', 'Trommel', 'Ring', 'Brille', 'Eimer', 'Kamera', 'Kette', 'Tasse', 'Blume', 'Geige', 'Hut', 'Kiste', 'Uhr', 'Bürste', 'Schere', 'Rucksack', 'Würfel', 'Flasche', 'Vase', 'Löffel', 'Fahrrad', 'Stift', 'Socke', 'Telefon', 'Kerze', 'Hammer', 'Tasche', 'Jacke', 'Lampe', 'Schlüssel']",336.9467981001362,336.9492278001271,None,336.94935210002586,342.9527467000298,3,342.9530428000726,342.9555711001158,None,342.95567969977856,342.9567446000874,342.95675620017573,,342.95792010007426,3.0742224999703467,None,,,,,,,,,,,,,,,,,,,,,,,,,,,,,,,,,,,,,,,,,,,,,,2,2024-01-16_14h37.48.354,watkins1,2023.2.3,99.6827098626323,92,2024-01-16 14h38.02.724976 +0000,
,,,,,,,,,,,11,0,11,0,,,,,,,,,,,,,342.9622335000895,,,,,,,,,,,,342.9582014000043,343.4543150998652,,,[],[],,,,,,,,,,,,None,None,,,,,,,,,,Kiste,bunt,"['Kiste', 'bunt']",restudy,2,,,,,,342.9581363997422,342.9581742999144,"['Buch', 'Trommel', 'Ring', 'Brille', 'Eimer', 'Kamera', 'Kette', 'Tasse', 'Blume', 'Geige', 'Hut', 'Kiste', 'Uhr', 'Bürste', 'Schere', 'Rucksack', 'Würfel', 'Flasche', 'Vase', 'Löffel', 'Fahrrad', 'Stift', 'Socke', 'Telefon', 'Kerze', 'Hammer', 'Tasche', 'Jacke', 'Lampe', 'Schlüssel']",343.4543254999444,343.45693180011585,None,343.4570503998548,349.4670571000315,2,349.4673457997851,349.46989079983905,None,349.4700023997575,349.4711862001568,349.4711976000108,,349.47228639991954,2.550952599849552,None,,,,,,,,,,,,,,,,,,,,,,,,,,,,,,,,,,,,,,,,,,,,,,2,2024-01-16_14h37.48.354,watkins1,2023.2.3,99.6827098626323,92,2024-01-16 14h38.02.724976 +0000,
,,,,,,,,,,,12,0,12,0,,,,,,,,,,,,,349.47659040009603,,,,,,,,,,,,349.4725727001205,349.96855109976605,,,[],[],,,,,,,,,,,,2.4186412999406457,None,,,,,uhr,,,,,Uhr,hohl,"['Uhr', 'hohl']",test_sub,2,,,,,,349.4725008001551,349.4725387999788,"['Buch', 'Trommel', 'Ring', 'Brille', 'Eimer', 'Kamera', 'Kette', 'Tasse', 'Blume', 'Geige', 'Hut', 'Kiste', 'Uhr', 'Bürste', 'Schere', 'Rucksack', 'Würfel', 'Flasche', 'Vase', 'Löffel', 'Fahrrad', 'Stift', 'Socke', 'Telefon', 'Kerze', 'Hammer', 'Tasche', 'Jacke', 'Lampe', 'Schlüssel']",349.96856299974024,349.9710038001649,None,349.9711285000667,349.97243520012125,None,349.9725448000245,349.97385289985687,None,349.97396059986204,349.9751397999935,349.97515260009095,0,355.9785132999532,,,,,,,,,,,,,,,,,,,,,,,,,,,,,,,,,,,,,,,,,,,,,,,,2,2024-01-16_14h37.48.354,watkins1,2023.2.3,99.6827098626323,92,2024-01-16 14h38.02.724976 +0000,
,,,,,,,,,,,13,0,13,0,,,,,,,,,,,,,355.9883253001608,,,,,,,,,,,,355.9787905998528,356.47034960007295,,,[],[],,,,,,,,,,,,None,None,,,,,,,,,,Bürste,sportlich,"['Bürste', 'sportlich']",restudy,2,,,,,,355.97872560005635,355.9787622997537,"['Buch', 'Trommel', 'Ring', 'Brille', 'Eimer', 'Kamera', 'Kette', 'Tasse', 'Blume', 'Geige', 'Hut', 'Kiste', 'Uhr', 'Bürste', 'Schere', 'Rucksack', 'Würfel', 'Flasche', 'Vase', 'Löffel', 'Fahrrad', 'Stift', 'Socke', 'Telefon', 'Kerze', 'Hammer', 'Tasche', 'Jacke', 'Lampe', 'Schlüssel']",356.4703596998006,356.47290469985455,None,356.4730201000348,362.48329210001975,1,362.4836165001616,362.4864326999523,None,362.48654170008376,362.4877113997936,362.4877226999961,,362.4892242997885,4.078877300024033,None,,,,,,,,,,,,,,,,,,,,,,,,,,,,,,,,,,,,,,,,,,,,,,2,2024-01-16_14h37.48.354,watkins1,2023.2.3,99.6827098626323,92,2024-01-16 14h38.02.724976 +0000,
,,,,,,,,,,,14,0,14,0,,,,,,,,,,,,,362.4927472998388,,,,,,,,,,,,362.4895004997961,362.9847793998197,,,[],[],,,,,,,,,,,,2.909947599750012,None,,,,,schere,,,,,Schere,matt,"['Schere', 'matt']",test_sub,2,,,,,,362.48943640012294,362.48947429982945,"['Buch', 'Trommel', 'Ring', 'Brille', 'Eimer', 'Kamera', 'Kette', 'Tasse', 'Blume', 'Geige', 'Hut', 'Kiste', 'Uhr', 'Bürste', 'Schere', 'Rucksack', 'Würfel', 'Flasche', 'Vase', 'Löffel', 'Fahrrad', 'Stift', 'Socke', 'Telefon', 'Kerze', 'Hammer', 'Tasche', 'Jacke', 'Lampe', 'Schlüssel']",362.9847911000252,362.9875825000927,None,362.98770899977535,362.9891713997349,None,362.9892790000886,362.990715299733,None,362.99082149984315,362.9920111000538,362.99202329991385,0,368.99461970012635,,,,,,,,,,,,,,,,,,,,,,,,,,,,,,,,,,,,,,,,,,,,,,,,2,2024-01-16_14h37.48.354,watkins1,2023.2.3,99.6827098626323,92,2024-01-16 14h38.02.724976 +0000,
,,,,,,,,,,,15,0,15,0,,,,,,,,,,,,,369.0044211000204,,,,,,,,,,,,368.99490169994533,369.4864852000028,,,[],[],,,,,,,,,,,,None,None,,,,,,,,,,Rucksack,klobig,"['Rucksack', 'klobig']",test_sub,2,,,,,,368.99483359977603,368.9948705001734,"['Buch', 'Trommel', 'Ring', 'Brille', 'Eimer', 'Kamera', 'Kette', 'Tasse', 'Blume', 'Geige', 'Hut', 'Kiste', 'Uhr', 'Bürste', 'Schere', 'Rucksack', 'Würfel', 'Flasche', 'Vase', 'Löffel', 'Fahrrad', 'Stift', 'Socke', 'Telefon', 'Kerze', 'Hammer', 'Tasche', 'Jacke', 'Lampe', 'Schlüssel']",369.4864962999709,369.4890854000114,None,369.4892100999132,369.49162819981575,None,369.49173460016027,369.49414080008864,None,369.4942481997423,369.4954535001889,369.4954655999318,0,375.50053700013086,,,,,,,,,,,,,,,,,,,,,,,,,,,,,,,,,,,,,,,,,,,,,,,,2,2024-01-16_14h37.48.354,watkins1,2023.2.3,99.6827098626323,92,2024-01-16 14h38.02.724976 +0000,
,,,,,,,,,,,16,0,16,0,,,,,,,,,,,,,375.5103072999045,,,,,,,,,,,,375.5008200001903,375.9923133999109,,,[],[],,,,,,,,,,,,1.6679400000721216,None,,,,,würfel,,,,,Würfel,gepunktet,"['Würfel', 'gepunktet']",test_sub,2,,,,,,375.5007541999221,375.50079179974273,"['Buch', 'Trommel', 'Ring', 'Brille', 'Eimer', 'Kamera', 'Kette', 'Tasse', 'Blume', 'Geige', 'Hut', 'Kiste', 'Uhr', 'Bürste', 'Schere', 'Rucksack', 'Würfel', 'Flasche', 'Vase', 'Löffel', 'Fahrrad', 'Stift', 'Socke', 'Telefon', 'Kerze', 'Hammer', 'Tasche', 'Jacke', 'Lampe', 'Schlüssel']",375.9923247997649,375.99505130015314,None,375.9951806999743,375.997711900156,None,375.99782139994204,376.00038139987737,None,376.00049579981714,376.0017328998074,376.0017460999079,0,382.0072770998813,,,,,,,,,,,,,,,,,,,,,,,,,,,,,,,,,,,,,,,,,,,,,,,,2,2024-01-16_14h37.48.354,watkins1,2023.2.3,99.6827098626323,92,2024-01-16 14h38.02.724976 +0000,
,,,,,,,,,,,17,0,17,0,,,,,,,,,,,,,382.0171102001332,,,,,,,,,,,,382.0075588999316,382.49904619995505,,,[],[],,,,,,,,,,,,2.893572899978608,None,,,,,flasche,,,,,Flasche,biegsam,"['Flasche', 'biegsam']",test_sub,2,,,,,,382.0074920998886,382.00752979982644,"['Buch', 'Trommel', 'Ring', 'Brille', 'Eimer', 'Kamera', 'Kette', 'Tasse', 'Blume', 'Geige', 'Hut', 'Kiste', 'Uhr', 'Bürste', 'Schere', 'Rucksack', 'Würfel', 'Flasche', 'Vase', 'Löffel', 'Fahrrad', 'Stift', 'Socke', 'Telefon', 'Kerze', 'Hammer', 'Tasche', 'Jacke', 'Lampe', 'Schlüssel']",382.49905660003424,382.50188279990107,None,382.5020055999048,382.5046367999166,None,382.5047474000603,382.50755409989506,None,382.5076619000174,382.50885900016874,382.508871300146,0,388.51487969979644,,,,,,,,,,,,,,,,,,,,,,,,,,,,,,,,,,,,,,,,,,,,,,,,2,2024-01-16_14h37.48.354,watkins1,2023.2.3,99.6827098626323,92,2024-01-16 14h38.02.724976 +0000,
,,,,,,,,,,,18,0,18,0,,,,,,,,,,,,,388.52462129993364,,,,,,,,,,,,388.5151685997844,389.00674299988896,,,[],[],,,,,,,,,,,,None,None,,,,,,,,,,Vase,flauschig,"['Vase', 'flauschig']",test_sub,2,,,,,,388.5150990001857,388.5151392999105,"['Buch', 'Trommel', 'Ring', 'Brille', 'Eimer', 'Kamera', 'Kette', 'Tasse', 'Blume', 'Geige', 'Hut', 'Kiste', 'Uhr', 'Bürste', 'Schere', 'Rucksack', 'Würfel', 'Flasche', 'Vase', 'Löffel', 'Fahrrad', 'Stift', 'Socke', 'Telefon', 'Kerze', 'Hammer', 'Tasche', 'Jacke', 'Lampe', 'Schlüssel']",389.0067539997399,389.0093911001459,None,389.00951319979504,389.0119489999488,None,389.0120588997379,389.0144735998474,None,389.0145824998617,389.0156255001202,389.01563799986616,0,395.020910799969,,,,,,,,,,,,,,,,,,,,,,,,,,,,,,,,,,,,,,,,,,,,,,,,2,2024-01-16_14h37.48.354,watkins1,2023.2.3,99.6827098626323,92,2024-01-16 14h38.02.724976 +0000,
,,,,,,,,,,,19,0,19,0,,,,,,,,,,,,,395.0306874997914,,,,,,,,,,,,395.0211948999204,395.5127905001864,,,[],[],,,,,,,,,,,,None,None,,,,,,,,,,Löffel,glatt,"['Löffel', 'glatt']",restudy,2,,,,,,395.02112609986216,395.02116629993543,"['Buch', 'Trommel', 'Ring', 'Brille', 'Eimer', 'Kamera', 'Kette', 'Tasse', 'Blume', 'Geige', 'Hut', 'Kiste', 'Uhr', 'Bürste', 'Schere', 'Rucksack', 'Würfel', 'Flasche', 'Vase', 'Löffel', 'Fahrrad', 'Stift', 'Socke', 'Telefon', 'Kerze', 'Hammer', 'Tasche', 'Jacke', 'Lampe', 'Schlüssel']",395.5128009999171,395.51560769975185,None,395.5157253998332,401.5166245000437,3,401.51692589977756,401.5195375001058,None,401.5196464997716,401.5207877997309,401.5207993998192,,401.5219088997692,3.451999499928206,None,,,,,,,,,,,,,,,,,,,,,,,,,,,,,,,,,,,,,,,,,,,,,,2,2024-01-16_14h37.48.354,watkins1,2023.2.3,99.6827098626323,92,2024-01-16 14h38.02.724976 +0000,
,,,,,,,,,,,20,0,20,0,,,,,,,,,,,,,401.526041300036,,,,,,,,,,,,401.5221838001162,402.0181836001575,,,[],[],,,,,,,,,,,,2.33824640000239,None,,,,,fahrrad,,,,,Fahrrad,flach,"['Fahrrad', 'flach']",test_sub,2,,,,,,401.5221200999804,401.52215800015256,"['Buch', 'Trommel', 'Ring', 'Brille', 'Eimer', 'Kamera', 'Kette', 'Tasse', 'Blume', 'Geige', 'Hut', 'Kiste', 'Uhr', 'Bürste', 'Schere', 'Rucksack', 'Würfel', 'Flasche', 'Vase', 'Löffel', 'Fahrrad', 'Stift', 'Socke', 'Telefon', 'Kerze', 'Hammer', 'Tasche', 'Jacke', 'Lampe', 'Schlüssel']",402.0181962000206,402.02098080003634,None,402.0211078999564,402.0225483998656,None,402.0226603997871,402.0241018999368,None,402.02421039994806,402.0255685998127,402.025581699796,0,408.02857539989054,,,,,,,,,,,,,,,,,,,,,,,,,,,,,,,,,,,,,,,,,,,,,,,,2,2024-01-16_14h37.48.354,watkins1,2023.2.3,99.6827098626323,92,2024-01-16 14h38.02.724976 +0000,
,,,,,,,,,,,21,0,21,0,,,,,,,,,,,,,408.0384228997864,,,,,,,,,,,,408.02885700017214,408.5204178998247,,,[],[],,,,,,,,,,,,5.965131300035864,None,,,,,s,,,,,Stift,verspielt,"['Stift', 'verspielt']",test_sub,2,,,,,,408.02879109978676,408.02882819995284,"['Buch', 'Trommel', 'Ring', 'Brille', 'Eimer', 'Kamera', 'Kette', 'Tasse', 'Blume', 'Geige', 'Hut', 'Kiste', 'Uhr', 'Bürste', 'Schere', 'Rucksack', 'Würfel', 'Flasche', 'Vase', 'Löffel', 'Fahrrad', 'Stift', 'Socke', 'Telefon', 'Kerze', 'Hammer', 'Tasche', 'Jacke', 'Lampe', 'Schlüssel']",408.5204288000241,408.5231582997367,None,408.5232810000889,408.5257381000556,None,408.52584829973057,408.5283663999289,None,408.5284740999341,408.52961939992383,408.5296316999011,0,414.53513510013,,,,,,,,,,,,,,,,,,,,,,,,,,,,,,,,,,,,,,,,,,,,,,,,2,2024-01-16_14h37.48.354,watkins1,2023.2.3,99.6827098626323,92,2024-01-16 14h38.02.724976 +0000,
,,,,,,,,,,,22,0,22,0,,,,,,,,,,,,,414.5449709999375,,,,,,,,,,,,414.5354161001742,415.0269355997443,,,[],[],,,,,,,,,,,,None,None,,,,,,,,,,Socke,gut,"['Socke', 'gut']",restudy,2,,,,,,414.53534899977967,414.5353871001862,"['Buch', 'Trommel', 'Ring', 'Brille', 'Eimer', 'Kamera', 'Kette', 'Tasse', 'Blume', 'Geige', 'Hut', 'Kiste', 'Uhr', 'Bürste', 'Schere', 'Rucksack', 'Würfel', 'Flasche', 'Vase', 'Löffel', 'Fahrrad', 'Stift', 'Socke', 'Telefon', 'Kerze', 'Hammer', 'Tasche', 'Jacke', 'Lampe', 'Schlüssel']",415.0269468999468,415.0296605997719,None,415.02978309988976,421.0354856001213,3,421.035772100091,421.0382403000258,None,421.03835029993206,421.03961989982054,421.039631200023,,421.04093889985234,4.089930700138211,None,,,,,,,,,,,,,,,,,,,,,,,,,,,,,,,,,,,,,,,,,,,,,,2,2024-01-16_14h37.48.354,watkins1,2023.2.3,99.6827098626323,92,2024-01-16 14h38.02.724976 +0000,
,,,,,,,,,,,23,0,23,0,,,,,,,,,,,,,421.0449282997288,,,,,,,,,,,,421.0412208000198,421.53696539998055,,,[],[],,,,,,,,,,,,None,None,,,,,,,,,,Telefon,lustig,"['Telefon', 'lustig']",restudy,2,,,,,,421.04115439997986,421.0411942000501,"['Buch', 'Trommel', 'Ring', 'Brille', 'Eimer', 'Kamera', 'Kette', 'Tasse', 'Blume', 'Geige', 'Hut', 'Kiste', 'Uhr', 'Bürste', 'Schere', 'Rucksack', 'Würfel', 'Flasche', 'Vase', 'Löffel', 'Fahrrad', 'Stift', 'Socke', 'Telefon', 'Kerze', 'Hammer', 'Tasche', 'Jacke', 'Lampe', 'Schlüssel']",421.53697649994865,421.53947820002213,None,421.53959900001064,427.54999559978023,1,427.5502794999629,427.5528902001679,None,427.55299740005285,427.55427929991856,427.5542909000069,,427.5554223000072,3.2203975999727845,None,,,,,,,,,,,,,,,,,,,,,,,,,,,,,,,,,,,,,,,,,,,,,,2,2024-01-16_14h37.48.354,watkins1,2023.2.3,99.6827098626323,92,2024-01-16 14h38.02.724976 +0000,
,,,,,,,,,,,24,0,24,0,,,,,,,,,,,,,427.5594506999478,,,,,,,,,,,,427.5556967998855,428.0514333001338,,,[],[],,,,,,,,,,,,None,None,,,,,,,,,,Kerze,kaputt,"['Kerze', 'kaputt']",test_sub,2,,,,,,427.5556330997497,427.55567049980164,"['Buch', 'Trommel', 'Ring', 'Brille', 'Eimer', 'Kamera', 'Kette', 'Tasse', 'Blume', 'Geige', 'Hut', 'Kiste', 'Uhr', 'Bürste', 'Schere', 'Rucksack', 'Würfel', 'Flasche', 'Vase', 'Löffel', 'Fahrrad', 'Stift', 'Socke', 'Telefon', 'Kerze', 'Hammer', 'Tasche', 'Jacke', 'Lampe', 'Schlüssel']",428.05144499987364,428.05414839973673,None,428.0542724998668,428.05570060014725,None,428.05580820003524,428.05723010003567,None,428.057337500155,428.05849009985104,428.0585027001798,0,434.06123489979655,,,,,,,,,,,,,,,,,,,,,,,,,,,,,,,,,,,,,,,,,,,,,,,,2,2024-01-16_14h37.48.354,watkins1,2023.2.3,99.6827098626323,92,2024-01-16 14h38.02.724976 +0000,
,,,,,,,,,,,25,0,25,0,,,,,,,,,,,,,434.0710732997395,,,,,,,,,,,,434.06151359993964,434.5530980001204,,,[],[],,,,,,,,,,,,None,None,,,,,,,,,,Hammer,zart,"['Hammer', 'zart']",restudy,2,,,,,,434.06144890002906,434.0614851000719,"['Buch', 'Trommel', 'Ring', 'Brille', 'Eimer', 'Kamera', 'Kette', 'Tasse', 'Blume', 'Geige', 'Hut', 'Kiste', 'Uhr', 'Bürste', 'Schere', 'Rucksack', 'Würfel', 'Flasche', 'Vase', 'Löffel', 'Fahrrad', 'Stift', 'Socke', 'Telefon', 'Kerze', 'Hammer', 'Tasche', 'Jacke', 'Lampe', 'Schlüssel']",434.55310959974304,434.55581509973854,None,434.55593940010294,440.55826740013435,1,440.5585583001375,440.56103259976953,None,440.5611409000121,440.5622841999866,440.5622954000719,,440.56333230016753,1.9561445000581443,None,,,,,,,,,,,,,,,,,,,,,,,,,,,,,,,,,,,,,,,,,,,,,,2,2024-01-16_14h37.48.354,watkins1,2023.2.3,99.6827098626323,92,2024-01-16 14h38.02.724976 +0000,
,,,,,,,,,,,26,0,26,0,,,,,,,,,,,,,440.5677426001057,,,,,,,,,,,,440.5636078999378,441.05981250014156,,,[],[],,,,,,,,,,,,2.278131800238043,None,,,,,tasche,,,,,Tasche,sauber,"['Tasche', 'sauber']",test_sub,2,,,,,,440.563544199802,440.5635818997398,"['Buch', 'Trommel', 'Ring', 'Brille', 'Eimer', 'Kamera', 'Kette', 'Tasse', 'Blume', 'Geige', 'Hut', 'Kiste', 'Uhr', 'Bürste', 'Schere', 'Rucksack', 'Würfel', 'Flasche', 'Vase', 'Löffel', 'Fahrrad', 'Stift', 'Socke', 'Telefon', 'Kerze', 'Hammer', 'Tasche', 'Jacke', 'Lampe', 'Schlüssel']",441.0598256001249,441.06251739989966,None,441.0626384001225,441.0640627001412,None,441.064169799909,441.0656586000696,None,441.06576499994844,441.06709669996053,441.0671092001721,0,447.0702533000149,,,,,,,,,,,,,,,,,,,,,,,,,,,,,,,,,,,,,,,,,,,,,,,,2,2024-01-16_14h37.48.354,watkins1,2023.2.3,99.6827098626323,92,2024-01-16 14h38.02.724976 +0000,
,,,,,,,,,,,27,0,27,0,,,,,,,,,,,,,447.080062400084,,,,,,,,,,,,447.07052499987185,447.562055000104,,,[],[],,,,,,,,,,,,None,None,,,,,,,,,,Jacke,praktisch,"['Jacke', 'praktisch']",restudy,2,,,,,,447.0704608000815,447.07049690000713,"['Buch', 'Trommel', 'Ring', 'Brille', 'Eimer', 'Kamera', 'Kette', 'Tasse', 'Blume', 'Geige', 'Hut', 'Kiste', 'Uhr', 'Bürste', 'Schere', 'Rucksack', 'Würfel', 'Flasche', 'Vase', 'Löffel', 'Fahrrad', 'Stift', 'Socke', 'Telefon', 'Kerze', 'Hammer', 'Tasche', 'Jacke', 'Lampe', 'Schlüssel']",447.56206580018625,447.5647199000232,None,447.5648377998732,453.5723219998181,3,453.57260830001906,453.5753496000543,None,453.5754625000991,453.5765916998498,453.5766027998179,,453.57809819979593,2.67509080003947,None,,,,,,,,,,,,,,,,,,,,,,,,,,,,,,,,,,,,,,,,,,,,,,2,2024-01-16_14h37.48.354,watkins1,2023.2.3,99.6827098626323,92,2024-01-16 14h38.02.724976 +0000,
,,,,,,,,,,,28,0,28,0,,,,,,,,,,,,,453.58178209979087,,,,,,,,,,,,453.5783771001734,454.075802099891,,,[],[],,,,,,,,,,,,None,None,,,,,,,,,,Lampe,durchsichtig,"['Lampe', 'durchsichtig']",restudy,2,,,,,,453.5783103001304,453.5783482999541,"['Buch', 'Trommel', 'Ring', 'Brille', 'Eimer', 'Kamera', 'Kette', 'Tasse', 'Blume', 'Geige', 'Hut', 'Kiste', 'Uhr', 'Bürste', 'Schere', 'Rucksack', 'Würfel', 'Flasche', 'Vase', 'Löffel', 'Fahrrad', 'Stift', 'Socke', 'Telefon', 'Kerze', 'Hammer', 'Tasche', 'Jacke', 'Lampe', 'Schlüssel']",454.0758139998652,454.07867849990726,None,454.07880079979077,460.0794379999861,2,460.07972559984773,460.08253319980577,None,460.082640199922,460.08375289989635,460.0837642000988,,460.08502520015463,3.033344099763781,None,,,,,,,,,,,,,,,,,,,,,,,,,,,,,,,,,,,,,,,,,,,,,,2,2024-01-16_14h37.48.354,watkins1,2023.2.3,99.6827098626323,92,2024-01-16 14h38.02.724976 +0000,
,,,,,,,,,,,29,0,29,0,,,,,,,,,,,,,460.0889952997677,,,,,,,,,,,,460.085303099826,460.5809706998989,,,[],[],,,,,,,,,,,,None,None,,,,,,,,,,Schlüssel,blass,"['Schlüssel', 'blass']",restudy,2,,,,,,460.0852389000356,460.08527710009366,"['Buch', 'Trommel', 'Ring', 'Brille', 'Eimer', 'Kamera', 'Kette', 'Tasse', 'Blume', 'Geige', 'Hut', 'Kiste', 'Uhr', 'Bürste', 'Schere', 'Rucksack', 'Würfel', 'Flasche', 'Vase', 'Löffel', 'Fahrrad', 'Stift', 'Socke', 'Telefon', 'Kerze', 'Hammer', 'Tasche', 'Jacke', 'Lampe', 'Schlüssel']",460.580981799867,460.583816899918,None,460.5839394000359,466.5871874000877,1,466.58748009987175,466.590279399883,None,466.59039010014385,466.59163070004433,466.59164230013266,,466.5927896001376,1.8800401999615133,None,,,,,,,,,,,,,,,,,,,,,,,,,,,,,,,,,,,,,,,,,,,,,,2,2024-01-16_14h37.48.354,watkins1,2023.2.3,99.6827098626323,92,2024-01-16 14h38.02.724976 +0000,
,,,,,,,,,,,,,,,,,,,,,,,,,,,,,,,,,,,,,,,,,,,,,,,,,,,,,,,,,,,,,,,,,,,,,,,2,,,,,,,,,,,,,,,,,,,,,,,,,,,,,,,,,,,,,,,,,,,,,,,,,,,,,,,,,,,,,,,,,,,,,,2,2024-01-16_14h37.48.354,watkins1,2023.2.3,99.6827098626323,92,2024-01-16 14h38.02.724976 +0000,
(7 x 6) + 9 = 48 ,Incorrect,button_incorrect,,,,,,,,,,,,,0,0,0,9,,,,,,,,,480.36196599993855,,,,,,,,,,479.33046089997515,480.33395610004663,,,,,['button_correct'],[4.842167800292373],,,,,,,,,,,,,,,,,,,,,,,,,,distractorTask,2,,,,,,,,,,,,,,,,,,,,,,,,,480.35015860013664,480.36196599993855,485.19806049996987,[0.28888888888888886],[-0.37777777777777777],[1],[0],[0],[4.842167800292373],['button_correct'],485.19872550014406,486.201803999953,,,,,,,,,,,,,,,,,,,,,,,,,,,,,,,,,,2,2024-01-16_14h37.48.354,watkins1,2023.2.3,99.6827098626323,92,2024-01-16 14h38.02.724976 +0000,
(40 : 5) + 8 = 15 ,Incorrect,button_incorrect,,,,,,,,,,,,,0,1,1,7,,,,,,,,,486.21178669994697,,,,,,,,,,,,,,,,['button_incorrect'],[21.805341199971735],,,,,,,,,,,,,,,,,,,,,,,,,,distractorTask,2,,,,,,,,,,,,,,,,,,,,,,,,,486.20199619978666,486.21178669994697,508.01022469997406,[-0.3907407407407407],[-0.39814814814814814],[1],[0],[0],[21.805341199971735],['button_incorrect'],508.01062959991395,509.0141563001089,,,,,,,,,,,,,,,,,,,,,,,,,,,,,,,,,,2,2024-01-16_14h37.48.354,watkins1,2023.2.3,99.6827098626323,92,2024-01-16 14h38.02.724976 +0000,
(9 x 5) - 9 = 36 ,Correct,button_correct,,,,,,,,,,,,,0,2,2,4,,,,,,,,,509.02424379996955,,,,,,,,,,,,,,,,['button_incorrect'],[6.995509599801153],,,,,,,,,,,,,,,,,,,,,,,,,,distractorTask,2,,,,,,,,,,,,,,,,,,,,,,,,,509.0143555998802,509.02424379996955,516.012575800065,[-0.3611111111111111],[-0.4083333333333333],[1],[0],[0],[6.995509599801153],['button_incorrect'],516.0129579999484,517.0162273999304,,,,,,,,,,,,,,,,,,,,,,,,,,,,,,,,,,2,2024-01-16_14h37.48.354,watkins1,2023.2.3,99.6827098626323,92,2024-01-16 14h38.02.724976 +0000,
(54 : 6) - 10 = 0 ,Incorrect,button_incorrect,,,,,,,,,,,,,0,3,3,5,,,,,,,,,517.026314899791,,,,,,,,,,,,,,,,['button_incorrect'],[31.19354970008135],,,,,,,,,,,,,,,,,,,,,,,,,,distractorTask,2,,,,,,,,,,,,,,,,,,,,,,,,,517.0164179997519,517.026314899791,548.2116769999266,[-0.4046296296296296],[-0.4083333333333333],[1],[0],[0],[31.19354970008135],['button_incorrect'],548.2120689000003,549.2154004001059,,,,,,,,,,,,,,,,,,,,,,,,,,,,,,,,,,2,2024-01-16_14h37.48.354,watkins1,2023.2.3,99.6827098626323,92,2024-01-16 14h38.02.724976 +0000,
(25 : 5) + 5 = 9 ,Incorrect,button_incorrect,,,,,,,,,,,,,0,4,4,6,,,,,,,,,549.2253855997697,,,,,,,,,,,,,,,,['button_incorrect'],[3.552426300011575],,,,,,,,,,,,,,,,,,,,,,,,,,distractorTask,2,,,,,,,,,,,,,,,,,,,,,,,,,549.2155935000628,549.2253855997697,552.7701906999573,[-0.4009259259259259],[-0.4064814814814815],[1],[0],[0],[3.552426300011575],['button_incorrect'],552.7705692001618,553.7737488001585,,,,,,,,,,,,,,,,,,,,,,,,,,,,,,,,,,2,2024-01-16_14h37.48.354,watkins1,2023.2.3,99.6827098626323,92,2024-01-16 14h38.02.724976 +0000,
(28 : 7) - 3 = 1 ,Correct,button_correct,,,,,,,,,,,,,0,5,5,0,,,,,,,,,553.7837414001115,,,,,,,,,,,,,,,,['button_correct'],[8.141174599993974],,,,,,,,,,,,,,,,,,,,,,,,,,distractorTask,2,,,,,,,,,,,,,,,,,,,,,,,,,553.7739351000637,553.7837414001115,561.9167961999774,[0.3962962962962963],[-0.3814814814814815],[1],[0],[0],[8.141174599993974],['button_correct'],561.9171775998548,562.9203923000023,,,,,,,,,,,,,,,,,,,,,,,,,,,,,,,,,,2,2024-01-16_14h37.48.354,watkins1,2023.2.3,99.6827098626323,92,2024-01-16 14h38.02.724976 +0000,
(80 : 10) + 9 = 17 ,Correct,button_correct,,,,,,,,,,,,,0,6,6,3,,,,,,,,,562.9304546997882,,,,,,,,,,,,,,,,['button_correct'],[10.841726299840957],,,,,,,,,,,,,,,,,,,,,,,,,,distractorTask,2,,,,,,,,,,,,,,,,,,,,,,,,,562.9205820998177,562.9304546997882,573.7643713001162,[0.3490740740740741],[-0.40925925925925927],[1],[0],[0],[10.841726299840957],['button_correct'],573.7647580998018,574.7677886998281,,,,,,,,,,,,,,,,,,,,,,,,,,,,,,,,,,2,2024-01-16_14h37.48.354,watkins1,2023.2.3,99.6827098626323,92,2024-01-16 14h38.02.724976 +0000,
(4 : 2) + 4 = 6 ,Correct,button_correct,,,,,,,,,,,,,0,7,7,1,,,,,,,,,574.7778078000993,,,,,,,,,,,,,,,,['button_correct'],[2.8099886998534203],,,,,,,,,,,,,,,,,,,,,,,,,,distractorTask,2,,,,,,,,,,,,,,,,,,,,,,,,,574.7679824000224,574.7778078000993,577.5797105999663,[0.3490740740740741],[-0.40925925925925927],[1],[0],[0],[2.8099886998534203],['button_correct'],577.5800835001282,578.5833593001589,,,,,,,,,,,,,,,,,,,,,,,,,,,,,,,,,,2,2024-01-16_14h37.48.354,watkins1,2023.2.3,99.6827098626323,92,2024-01-16 14h38.02.724976 +0000,
(2 x 5) + 3 = 13 ,Correct,button_correct,,,,,,,,,,,,,0,8,8,2,,,,,,,,,578.5933479000814,,,,,,,,,,,,,,,,['button_correct'],[3.3618582002818584],,,,,,,,,,,,,,,,,,,,,,,,,,distractorTask,2,,,,,,,,,,,,,,,,,,,,,,,,,578.5835465001874,578.5933479000814,581.9471575999632,[0.35],[-0.4083333333333333],[1],[0],[0],[3.3618582002818584],['button_correct'],581.9475328000262,582.9509076997638,,,,,,,,,,,,,,,,,,,,,,,,,,,,,,,,,,2,2024-01-16_14h37.48.354,watkins1,2023.2.3,99.6827098626323,92,2024-01-16 14h38.02.724976 +0000,
(6 x 3) + 10 = 27 ,Incorrect,button_incorrect,,,,,,,,,,,,,0,9,9,8,,,,,,,,,582.9609913001768,,,,,,,,,,,,,,,,['button_incorrect'],[5.942390500102192],,,,,,,,,,,,,,,,,,,,,,,,,,distractorTask,2,,,,,,,,,,,,,,,,,,,,,,,,,582.9510979000479,582.9609913001768,588.8953812997788,[-0.3537037037037037],[-0.4027777777777778],[1],[0],[0],[5.942390500102192],['button_incorrect'],588.8957623997703,589.8987997998483,,,,,,,,,,,,,,,,,,,,,,,,,,,,,,,,,,2,2024-01-16_14h37.48.354,watkins1,2023.2.3,99.6827098626323,92,2024-01-16 14h38.02.724976 +0000,
,,,,,,,,,,,,,,,,,,,,,,,,,,,,,,,,,,,,,,,,,,,,,,,,,,,,,,,,,,,,,,,,,,,,,,,2,,,,,,,,,,,,,,,,,,,,,,,,,,,,,,,,,,,,,,,,,,,,,,,,,,,,,,,,,,,,,,,,,,,,,,2,2024-01-16_14h37.48.354,watkins1,2023.2.3,99.6827098626323,92,2024-01-16 14h38.02.724976 +0000,
,,,,,,,,,,,,,,,,,,,0,0,0,0,,,,,600.4895592001267,,,,,,,,,,,,,,,,eimer,7.290555799845606,,,,,,,,,,,,5.501627499703318,None,,,,,,,,,,,,,freeRecallSub,2,,,,,,,,,,,,,,,,,,,,,,,,,,,,,,,,,,,,,600.4808681001887,600.4895592001267,600.4895592001267,607.7890019998886,return,7.290555799845606,None,eimer,[-0.03796296296296296],[0.05740740740740741],[1],[0],[0],[3.02089269971475],[],,,,,,,,,,,,,,,,,,,2,2024-01-16_14h37.48.354,watkins1,2023.2.3,99.6827098626323,92,2024-01-16 14h38.02.724976 +0000,
,,,,,,,,,,,,,,,,,,,1,0,1,0,,,,,607.8013371997513,,,,,,,,,,,,,,,,fahrrad,4.450819400139153,,,,,,,,,,,,2.0407489999197423,None,,,,,,,,,,,,,freeRecallSub,2,,,,,,,,,,,,,,,,,,,,,,,,,,,,,,,,,,,,,607.7907981998287,607.8013371997513,607.8013371997513,612.2612880999222,return,4.450819400139153,None,fahrrad,[],[],[],[],[],[],[],,,,,,,,,,,,,,,,,,,2,2024-01-16_14h37.48.354,watkins1,2023.2.3,99.6827098626323,92,2024-01-16 14h38.02.724976 +0000,
,,,,,,,,,,,,,,,,,,,2,0,2,0,,,,,612.2719848998822,,,,,,,,,,,,,,,,vase,8.532092600129545,,,,,,,,,,,,7.339151100255549,None,,,,,,,,,,,,,freeRecallSub,2,,,,,,,,,,,,,,,,,,,,,,,,,,,,,,,,,,,,,612.2625405001454,612.2719848998822,612.2719848998822,620.806972600054,return,8.532092600129545,None,vase,[],[],[],[],[],[],[],,,,,,,,,,,,,,,,,,,2,2024-01-16_14h37.48.354,watkins1,2023.2.3,99.6827098626323,92,2024-01-16 14h38.02.724976 +0000,
,,,,,,,,,,,,,,,,,,,3,0,3,0,,,,,620.8179196999408,,,,,,,,,,,,,,,,stift,7.4422383001074195,,,,,,,,,,,,5.7636744999326766,None,,,,,,,,,,,,,freeRecallSub,2,,,,,,,,,,,,,,,,,,,,,,,,,,,,,,,,,,,,,620.808412999846,620.8179196999408,620.8179196999408,628.2686709999107,return,7.4422383001074195,None,stift,[],[],[],[],[],[],[],,,,,,,,,,,,,,,,,,,2,2024-01-16_14h37.48.354,watkins1,2023.2.3,99.6827098626323,92,2024-01-16 14h38.02.724976 +0000,
,,,,,,,,,,,,,,,,,,,4,0,4,0,,,,,628.2792897997424,,,,,,,,,,,,,,,,flasche,5.380882699973881,,,,,,,,,,,,2.128060800023377,None,,,,,,,,,,,,,freeRecallSub,2,,,,,,,,,,,,,,,,,,,,,,,,,,,,,,,,,,,,,628.2699175998569,628.2792897997424,628.2792897997424,633.6611641999334,return,5.380882699973881,None,flasche,[],[],[],[],[],[],[],,,,,,,,,,,,,,,,,,,2,2024-01-16_14h37.48.354,watkins1,2023.2.3,99.6827098626323,92,2024-01-16 14h38.02.724976 +0000,
,,,,,,,,,,,,,,,,,,,5,0,5,0,,,,,633.6722150999121,,,,,,,,,,,,,,,,tasche,20.363828600384295,,,,,,,,,,,,18.776323299854994,None,,,,,,,,,,,,,freeRecallSub,2,,,,,,,,,,,,,,,,,,,,,,,,,,,,,,,,,,,,,633.6624170001596,633.6722150999121,633.6722150999121,654.04525739979,return,20.363828600384295,None,tasche,[],[],[],[],[],[],[],,,,,,,,,,,,,,,,,,,2,2024-01-16_14h37.48.354,watkins1,2023.2.3,99.6827098626323,92,2024-01-16 14h38.02.724976 +0000,
,,,,,,,,,,,,,,,,,,,6,0,6,0,,,,,654.0603477000259,,,,,,,,,,,,,,,,rucksack,3.6077530002221465,,,,,,,,,,,,0.6071434002369642,None,,,,,,,,,,,,,freeRecallSub,2,,,,,,,,,,,,,,,,,,,,,,,,,,,,,,,,,,,,,654.050800899975,654.0603477000259,654.0603477000259,657.6693191998638,return,3.6077530002221465,None,rucksack,[],[],[],[],[],[],[],,,,,,,,,,,,,,,,,,,2,2024-01-16_14h37.48.354,watkins1,2023.2.3,99.6827098626323,92,2024-01-16 14h38.02.724976 +0000,
,,,,,,,,,,,,,,,,,,,7,0,7,0,,,,,657.6810037000105,,,,,,,,,,,,,,,,Blume,48.0190059999004,,,,,,,,,,,,5.815872699953616,43.528274099808186,,,,,,,,,,,,,freeRecallSub,2,,,,,,,,,,,,,,,,,,,,,,,,,,,,,,,,,,,,,657.6705728000961,657.6810037000105,657.6810037000105,705.7070796997286,return,48.0190059999004,None,Blume,[],[],[],[],[],[],[],,,,,,,,,,,,,,,,,,,2,2024-01-16_14h37.48.354,watkins1,2023.2.3,99.6827098626323,92,2024-01-16 14h38.02.724976 +0000,
,,,,,,,,,,,,,,,,,,,8,0,8,0,,,,,705.7190564000048,,,,,,,,,,,,,,,,Kette,6.628943299874663,,,,,,,,,,,,3.4964554999023676,None,,,,,,,,,,,,,freeRecallSub,2,,,,,,,,,,,,,,,,,,,,,,,,,,,,,,,,,,,,,705.7083680001087,705.7190564000048,705.7190564000048,712.3573682000861,return,6.628943299874663,None,Kette,[],[],[],[],[],[],[],,,,,,,,,,,,,,,,,,,2,2024-01-16_14h37.48.354,watkins1,2023.2.3,99.6827098626323,92,2024-01-16 14h38.02.724976 +0000,
,,,,,,,,,,,,,,,,,,,9,0,9,0,,,,,712.369222600013,,,,,,,,,,,,,,,,Ring,11.554887800011784,,,,,,,,,,,,9.462394800037146,None,,,,,,,,,,,,,freeRecallSub,2,,,,,,,,,,,,,,,,,,,,,,,,,,,,,,,,,,,,,712.3585883998312,712.369222600013,712.369222600013,723.9295517001301,return,11.554887800011784,None,Ring,[],[],[],[],[],[],[],,,,,,,,,,,,,,,,,,,2,2024-01-16_14h37.48.354,watkins1,2023.2.3,99.6827098626323,92,2024-01-16 14h38.02.724976 +0000,
,,,,,,,,,,,,,,,,,,,10,0,10,0,,,,,723.9416904998943,,,,,,,,,,,,,,,,Uhr,59.55838229972869,,,,,,,,,,,,51.13839159999043,56.499918799847364,,,,,,,,,,,,,freeRecallSub,2,,,,,,,,,,,,,,,,,,,,,,,,,,,,,,,,,,,,,723.9307854999788,723.9416904998943,723.9416904998943,783.5034008999355,return,59.55838229972869,None,Uhr,[],[],[],[],[],[],[],,,,,,,,,,,,,,,,,,,2,2024-01-16_14h37.48.354,watkins1,2023.2.3,99.6827098626323,92,2024-01-16 14h38.02.724976 +0000,
,,,,,,,,,,,,,,,,,,,11,0,11,0,,,,,783.5158526999876,,,,,,,,,,,,,,,,Jacke,33.704280599951744,,,,,,,,,,,,26.93214779999107,30.165628400165588,,,,,,,,,,,,,freeRecallSub,2,,,,,,,,,,,,,,,,,,,,,,,,,,,,,,,,,,,,,783.5046748998575,783.5158526999876,783.5158526999876,817.2250383999199,return,33.704280599951744,None,Jacke,[],[],[],[],[],[],[],,,,,,,,,,,,,,,,,,,2,2024-01-16_14h37.48.354,watkins1,2023.2.3,99.6827098626323,92,2024-01-16 14h38.02.724976 +0000,
,,,,,,,,,,,,,,,,,,,12,0,12,0,,,,,817.2375376997516,,,,,,,,,,,,,,,,Katze,62.72649720031768,,,,,,,,,,,,56.119761700276285,59.061703600455076,,,,,,,,,,,,,freeRecallSub,2,,,,,,,,,,,,,,,,,,,,,,,,,,,,,,,,,,,,,817.2262784000486,817.2375376997516,817.2375376997516,879.9726833999157,return,62.72649720031768,None,Katze,[],[],[],[],[],[],[],,,,,,,,,,,,,,,,,,,2,2024-01-16_14h37.48.354,watkins1,2023.2.3,99.6827098626323,92,2024-01-16 14h38.02.724976 +0000,
,,,,,,,,,,,,,,,,,,,13,0,13,0,,,,,879.9855312998407,,,,,,,,,,,,,,,,Hund,3.3625056999735534,,,,,,,,,,,,1.4999365000985563,None,,,,,,,,,,,,,freeRecallSub,2,,,,,,,,,,,,,,,,,,,,,,,,,,,,,,,,,,,,,879.9739418998361,879.9855312998407,879.9855312998407,883.3517033997923,return,3.3625056999735534,None,Hund,[],[],[],[],[],[],[],,,,,,,,,,,,,,,,,,,2,2024-01-16_14h37.48.354,watkins1,2023.2.3,99.6827098626323,92,2024-01-16 14h38.02.724976 +0000,
,,,,,,,,,,,,,,,,,,,14,0,14,0,,,,,883.3646780001,,,,,,,,,,,,,,,,,[],,,,,,,,,,,,None,None,,,,,,,,,,,,,freeRecallSub,2,,,,,,,,,,,,,,,,,,,,,,,,,,,,,,,,,,,,,883.3529583998024,883.3646780001,883.3646780001,946.6960609997623,None,,,,[0.23981481481481481],[-0.38796296296296295],[1],[0],[0],[63.33758219983429],"['button_continue', 'continue_text']",,,,,,,,,,,,,,,,,,,2,2024-01-16_14h37.48.354,watkins1,2023.2.3,99.6827098626323,92,2024-01-16 14h38.02.724976 +0000,
,,,,,,,,,,,,,,,,,,,,,,,,,,,,,,,,,,,,,,,,,,,,,,,,,,,,,,,,,,,,,,,,,,,,,,,2,,,,,,,,,,,,,,,,,,,,,,,,,,,,,,,,,,,,,,,,,,,,,,,,,,,,,,,,,,,,,,,,,,,,,,2,2024-01-16_14h37.48.354,watkins1,2023.2.3,99.6827098626323,92,2024-01-16 14h38.02.724976 +0000,
,,,,,,,,,,,,,,,,,,,,,,,0,0,0,0,954.8295419998467,,,,,,,,,,,,967.3837871998549,967.8822592999786,,,,12.542459200136364,,,,,,,,,,,,None,None,,,,,,,,,,Löffel,,,cuedRecallAdj,2,,,,,,,,,,,,,,,,,,,,,0,,,,,,,,,,,,,,,,,,,,,,,,,,,,,,,954.8204081999138,954.8295419998467,954.8295419998467,967.3804377000779,glatt,return,12.542459200136364,None,967.3808319000527,967.3901948998682,967.3901948998682,967.3836346999742,,None,,,,,2,2024-01-16_14h37.48.354,watkins1,2023.2.3,99.6827098626323,92,2024-01-16 14h38.02.724976 +0000,
,,,,,,,,,,,,,,,,,,,,,,,1,0,1,0,967.8922998001799,,,,,,,,,,,,975.3964543999173,975.8952799998224,,,,7.495888100005686,,,,,,,,,,,,None,None,,,,,,,,,,Würfel,,,cuedRecallAdj,2,,,,,,,,,,,,,,,,,,,,,0,,,,,,,,,,,,,,,,,,,,,,,,,,,,,,,967.882505999878,967.8922998001799,967.8922998001799,975.3934168000706,gepunktet,return,7.495888100005686,None,975.3936755000614,975.4029729999602,975.4029729999602,975.3963548000902,,None,,,,,2,2024-01-16_14h37.48.354,watkins1,2023.2.3,99.6827098626323,92,2024-01-16 14h38.02.724976 +0000,
,,,,,,,,,,,,,,,,,,,,,,,2,0,2,0,975.9051859998144,,,,,,,,,,,,985.890078399796,986.3888186998665,,,,9.9788609999232,,,,,,,,,,,,None,None,,,,,,,,,,Hammer,,,cuedRecallAdj,2,,,,,,,,,,,,,,,,,,,,,0,,,,,,,,,,,,,,,,,,,,,,,,,,,,,,,975.8955247001722,975.9051859998144,975.9051859998144,985.8872119998559,zart,return,9.9788609999232,None,985.8874725000933,985.896844800096,985.896844800096,985.8899774998426,,None,,,,,2,2024-01-16_14h37.48.354,watkins1,2023.2.3,99.6827098626323,92,2024-01-16 14h38.02.724976 +0000,
,,,,,,,,,,,,,,,,,,,,,,,3,0,3,0,986.3987794001587,,,,,,,,,,,,992.2156317001209,992.71447490016,,,,5.805264299735427,,,,,,,,,,,,None,None,,,,,,,,,,Brille,,,cuedRecallAdj,2,,,,,,,,,,,,,,,,,,,,,0,,,,,,,,,,,,,,,,,,,,,,,,,,,,,,,986.3890602998435,986.3987794001587,986.3987794001587,992.2125345999375,schmutzig,return,5.805264299735427,None,992.2128002000973,992.2221933999099,992.2221933999099,992.2155296998098,,None,,,,,2,2024-01-16_14h37.48.354,watkins1,2023.2.3,99.6827098626323,92,2024-01-16 14h38.02.724976 +0000,
,,,,,,,,,,,,,,,,,,,,,,,4,0,4,0,992.7243794999085,,,,,,,,,,,,996.9446978997439,997.4432259001769,,,,4.21565859997645,,,,,,,,,,,,None,None,,,,,,,,,,Blume,,,cuedRecallAdj,2,,,,,,,,,,,,,,,,,,,,,0,,,,,,,,,,,,,,,,,,,,,,,,,,,,,,,992.7147218999453,992.7243794999085,992.7243794999085,996.9416697998531,elegant,return,4.21565859997645,None,996.941935100127,996.9511506999843,996.9511506999843,996.9445974999107,,None,,,,,2,2024-01-16_14h37.48.354,watkins1,2023.2.3,99.6827098626323,92,2024-01-16 14h38.02.724976 +0000,
,,,,,,,,,,,,,,,,,,,,,,,5,0,5,0,997.453268900048,,,,,,,,,,,,1001.13143389998,1001.6301905000582,,,,3.670857399702072,,,,,,,,,,,,None,None,,,,,,,,,,Tasche,,,cuedRecallAdj,2,,,,,,,,,,,,,,,,,,,,,0,,,,,,,,,,,,,,,,,,,,,,,,,,,,,,,997.443463999778,997.453268900048,997.453268900048,1001.1285135000944,sauber,return,3.670857399702072,None,1001.1287750997581,1001.1381183001213,1001.1381183001213,1001.1313343998045,,None,,,,,2,2024-01-16_14h37.48.354,watkins1,2023.2.3,99.6827098626323,92,2024-01-16 14h38.02.724976 +0000,
,,,,,,,,,,,,,,,,,,,,,,,6,0,6,0,1001.640136399772,,,,,,,,,,,,1007.6878631999716,1008.186767899897,,,,6.035891899839044,,,,,,,,,,,,None,None,,,,,,,,,,Ring,,,cuedRecallAdj,2,,,,,,,,,,,,,,,,,,,,,0,,,,,,,,,,,,,,,,,,,,,,,,,,,,,,,1001.6304346998222,1001.640136399772,1001.640136399772,1007.6849883999676,kratzig,return,6.035891899839044,None,1007.6852536001243,1007.6947653000243,1007.6947653000243,1007.6877624997869,,None,,,,,2,2024-01-16_14h37.48.354,watkins1,2023.2.3,99.6827098626323,92,2024-01-16 14h38.02.724976 +0000,
,,,,,,,,,,,,,,,,,,,,,,,7,0,7,0,1008.1968069998547,,,,,,,,,,,,1013.6521372999996,1014.1507405000739,,,,5.4472145000472665,,,,,,,,,,,,None,None,,,,,,,,,,Telefon,,,cuedRecallAdj,2,,,,,,,,,,,,,,,,,,,,,0,,,,,,,,,,,,,,,,,,,,,,,,,,,,,,,1008.1870156000368,1008.1968069998547,1008.1968069998547,1013.6491197999567,lustig,return,5.4472145000472665,None,1013.6493867998943,1013.6586645999923,1013.6586645999923,1013.6520361001603,,None,,,,,2,2024-01-16_14h37.48.354,watkins1,2023.2.3,99.6827098626323,92,2024-01-16 14h38.02.724976 +0000,
,,,,,,,,,,,,,,,,,,,,,,,8,0,8,0,1014.1606894000433,,,,,,,,,,,,1025.6809891997837,1026.1794996997342,,,,11.515468599740416,,,,,,,,,,,,None,None,,,,,,,,,,Fahrrad,,,cuedRecallAdj,2,,,,,,,,,,,,,,,,,,,,,0,,,,,,,,,,,,,,,,,,,,,,,,,,,,,,,1014.1509867999703,1014.1606894000433,1014.1606894000433,1025.6779943997972,flach,return,11.515468599740416,None,1025.6782609997317,1025.687484699767,1025.687484699767,1025.6808870998211,,None,,,,,2,2024-01-16_14h37.48.354,watkins1,2023.2.3,99.6827098626323,92,2024-01-16 14h38.02.724976 +0000,
,,,,,,,,,,,,,,,,,,,,,,,9,0,9,0,1026.189548799768,,,,,,,,,,,,1031.0328251998872,1031.531723199878,,,,4.838636199943721,,,,,,,,,,,,None,None,,,,,,,,,,Buch,,,cuedRecallAdj,2,,,,,,,,,,,,,,,,,,,,,0,,,,,,,,,,,,,,,,,,,,,,,,,,,,,,,1026.1797409001738,1026.189548799768,1026.189548799768,1031.0300969001837,gro?,return,4.838636199943721,None,1031.0303587000817,1031.0396453998983,1031.0396453998983,1031.0327205001377,,None,,,,,2,2024-01-16_14h37.48.354,watkins1,2023.2.3,99.6827098626323,92,2024-01-16 14h38.02.724976 +0000,
,,,,,,,,,,,,,,,,,,,,,,,10,0,10,0,1031.5416700998321,,,,,,,,,,,,1050.200802099891,1050.6995366001502,,,,18.64638049993664,,,,,,,,,,,,None,None,,,,,,,,,,Kette,,,cuedRecallAdj,2,,,,,,,,,,,,,,,,,,,,,0,,,,,,,,,,,,,,,,,,,,,,,,,,,,,,,1031.5319610000588,1031.5416700998321,1031.5416700998321,1050.197809500154,hübsch,return,18.64638049993664,None,1050.1980725000612,1050.2075029998086,1050.2075029998086,1050.2006995999254,,None,,,,,2,2024-01-16_14h37.48.354,watkins1,2023.2.3,99.6827098626323,92,2024-01-16 14h38.02.724976 +0000,
,,,,,,,,,,,,,,,,,,,,,,,11,0,11,0,1050.7095830999315,,,,,,,,,,,,1055.1508753998205,1055.649662999902,,,,4.430459499824792,,,,,,,,,,,,None,None,,,,,,,,,,Rucksack,,,cuedRecallAdj,2,,,,,,,,,,,,,,,,,,,,,0,,,,,,,,,,,,,,,,,,,,,,,,,,,,,,,1050.6997842001729,1050.7095830999315,1050.7095830999315,1055.14784159977,klobig,return,4.430459499824792,None,1055.148099400103,1055.15755000012,1055.15755000012,1055.1507782000117,,None,,,,,2,2024-01-16_14h37.48.354,watkins1,2023.2.3,99.6827098626323,92,2024-01-16 14h38.02.724976 +0000,
,,,,,,,,,,,,,,,,,,,,,,,12,0,12,0,1055.6596095999703,,,,,,,,,,,,1060.0606677997857,1060.5592931001447,,,,4.392512099817395,,,,,,,,,,,,None,None,,,,,,,,,,Trommel,,,cuedRecallAdj,2,,,,,,,,,,,,,,,,,,,,,0,,,,,,,,,,,,,,,,,,,,,,,,,,,,,,,1055.649902800098,1055.6596095999703,1055.6596095999703,1060.0576475998387,teuer,return,4.392512099817395,None,1060.057912999764,1060.0672507998534,1060.0672507998534,1060.0605672001839,,None,,,,,2,2024-01-16_14h37.48.354,watkins1,2023.2.3,99.6827098626323,92,2024-01-16 14h38.02.724976 +0000,
,,,,,,,,,,,,,,,,,,,,,,,13,0,13,0,1060.5692146997899,,,,,,,,,,,,1065.9842183999717,1066.483024700079,,,,5.410898300353438,,,,,,,,,,,,None,None,,,,,,,,,,Vase,,,cuedRecallAdj,2,,,,,,,,,,,,,,,,,,,,,0,,,,,,,,,,,,,,,,,,,,,,,,,,,,,,,1060.5595374000259,1060.5692146997899,1060.5692146997899,1065.9812751999125,flauschig,return,5.410898300353438,None,1065.9815450999886,1065.9908197000623,1065.9908197000623,1065.9841171000153,,None,,,,,2,2024-01-16_14h37.48.354,watkins1,2023.2.3,99.6827098626323,92,2024-01-16 14h38.02.724976 +0000,
,,,,,,,,,,,,,,,,,,,,,,,14,0,14,0,1066.4930714000948,,,,,,,,,,,,1070.0205120998435,1070.5191656001844,,,,3.518993700388819,,,,,,,,,,,,None,None,,,,,,,,,,Socke,,,cuedRecallAdj,2,,,,,,,,,,,,,,,,,,,,,0,,,,,,,,,,,,,,,,,,,,,,,,,,,,,,,1066.4832632998005,1066.4930714000948,1066.4930714000948,1070.0176778999157,gut,return,3.518993700388819,None,1070.017941699829,1070.0271935998462,1070.0271935998462,1070.020408899989,,None,,,,,2,2024-01-16_14h37.48.354,watkins1,2023.2.3,99.6827098626323,92,2024-01-16 14h38.02.724976 +0000,
,,,,,,,,,,,,,,,,,,,,,,,15,0,15,0,1070.5292106000707,,,,,,,,,,,,1073.8957891999744,1074.3946687001735,,,,3.3549061003141105,,,,,,,,,,,,None,None,,,,,,,,,,Kiste,,,cuedRecallAdj,2,,,,,,,,,,,,,,,,,,,,,0,,,,,,,,,,,,,,,,,,,,,,,,,,,,,,,1070.5194109999575,1070.5292106000707,1070.5292106000707,1073.8929551001638,bunt,return,3.3549061003141105,None,1073.893218900077,1073.9027321999893,1073.9027321999893,1073.8956892001443,,None,,,,,2,2024-01-16_14h37.48.354,watkins1,2023.2.3,99.6827098626323,92,2024-01-16 14h38.02.724976 +0000,
,,,,,,,,,,,,,,,,,,,,,,,16,0,16,0,1074.4047154001892,,,,,,,,,,,,1099.9009867999703,1100.3996295998804,,,,25.487560600042343,,,,,,,,,,,,None,None,,,,,,,,,,Bürste,,,cuedRecallAdj,2,,,,,,,,,,,,,,,,,,,,,0,,,,,,,,,,,,,,,,,,,,,,,,,,,,,,,1074.394908899907,1074.4047154001892,1074.4047154001892,1099.8979988000356,kaputt,return,25.487560600042343,None,1099.8982651997358,1099.9076085998677,1099.9076085998677,1099.900890099816,,None,,,,,2,2024-01-16_14h37.48.354,watkins1,2023.2.3,99.6827098626323,92,2024-01-16 14h38.02.724976 +0000,
,,,,,,,,,,,,,,,,,,,,,,,17,0,17,0,1100.4095669998787,,,,,,,,,,,,1104.27728929976,1104.767071499955,,,,3.8585477001033723,,,,,,,,,,,,None,None,,,,,,,,,,Kerze,,,cuedRecallAdj,2,,,,,,,,,,,,,,,,,,,,,0,,,,,,,,,,,,,,,,,,,,,,,,,,,,,,,1100.3998700999655,1100.4095669998787,1100.4095669998787,1104.2753792000003,kaputt,return,3.8585477001033723,None,1104.275637399871,1104.2850493001752,1104.2850493001752,1104.2771605998278,,None,,,,,2,2024-01-16_14h37.48.354,watkins1,2023.2.3,99.6827098626323,92,2024-01-16 14h38.02.724976 +0000,
,,,,,,,,,,,,,,,,,,,,,,,18,0,18,0,1104.7771171997301,,,,,,,,,,,,1110.1218191999942,1110.6205392000265,,,,5.338932599872351,,,,,,,,,,,,None,None,,,,,,,,,,Kamera,,,cuedRecallAdj,2,,,,,,,,,,,,,,,,,,,,,0,,,,,,,,,,,,,,,,,,,,,,,,,,,,,,,1104.7673161998391,1104.7771171997301,1104.7771171997301,1110.1187704000622,hässlich,return,5.338932599872351,None,1110.1190367001109,1110.1283015999943,1110.1283015999943,1110.1217196001671,,None,,,,,2,2024-01-16_14h37.48.354,watkins1,2023.2.3,99.6827098626323,92,2024-01-16 14h38.02.724976 +0000,
,,,,,,,,,,,,,,,,,,,,,,,19,0,19,0,1110.6305798999965,,,,,,,,,,,,1153.9704066999257,1154.4687447999604,,,,43.33348919963464,,,,,,,,,,,,None,None,,,,,,,,,,Stift,,,cuedRecallAdj,2,,,,,,,,,,,,,,,,,,,,,0,,,,,,,,,,,,,,,,,,,,,,,,,,,,,,,1110.6207809997723,1110.6305798999965,1110.6305798999965,1153.9672095999122,kreativ,return,43.33348919963464,None,1153.9674760997295,1153.9768134998158,1153.9768134998158,1153.9703032998368,,None,,,,,2,2024-01-16_14h37.48.354,watkins1,2023.2.3,99.6827098626323,92,2024-01-16 14h38.02.724976 +0000,
,,,,,,,,,,,,,,,,,,,,,,,20,0,20,0,1154.478668499738,,,,,,,,,,,,1162.5958026000299,1163.0943835000508,,,,8.10935979988426,,,,,,,,,,,,None,None,,,,,,,,,,Schlüssel,,,cuedRecallAdj,2,,,,,,,,,,,,,,,,,,,,,0,,,,,,,,,,,,,,,,,,,,,,,,,,,,,,,1154.468989700079,1154.478668499738,1154.478668499738,1162.5927430000156,blass,return,8.10935979988426,None,1162.5930099999532,1162.6022904999554,1162.6022904999554,1162.595699999947,,None,,,,,2,2024-01-16_14h37.48.354,watkins1,2023.2.3,99.6827098626323,92,2024-01-16 14h38.02.724976 +0000,
,,,,,,,,,,,,,,,,,,,,,,,21,0,21,0,1163.104318600148,,,,,,,,,,,,1167.4048878997564,1167.903607999906,,,,4.291841899976134,,,,,,,,,,,,None,None,,,,,,,,,,Hut,,,cuedRecallAdj,2,,,,,,,,,,,,,,,,,,,,,0,,,,,,,,,,,,,,,,,,,,,,,,,,,,,,,1163.094631999731,1163.104318600148,1163.104318600148,1167.4020285001025,dunkel,return,4.291841899976134,None,1167.402294400148,1167.4115734999068,1167.4115734999068,1167.4047865998,,None,,,,,2,2024-01-16_14h37.48.354,watkins1,2023.2.3,99.6827098626323,92,2024-01-16 14h38.02.724976 +0000,
,,,,,,,,,,,,,,,,,,,,,,,22,0,22,0,1167.9135590000078,,,,,,,,,,,,1172.9776694998145,1173.476100299973,,,,5.058626800309867,,,,,,,,,,,,None,None,,,,,,,,,,Jacke,,,cuedRecallAdj,2,,,,,,,,,,,,,,,,,,,,,0,,,,,,,,,,,,,,,,,,,,,,,,,,,,,,,1167.9038553000428,1167.9135590000078,1167.9135590000078,1172.9744480000809,praktisch,return,5.058626800309867,None,1172.9747302997857,1172.9840424000286,1172.9840424000286,1172.977563700173,,None,,,,,2,2024-01-16_14h37.48.354,watkins1,2023.2.3,99.6827098626323,92,2024-01-16 14h38.02.724976 +0000,
,,,,,,,,,,,,,,,,,,,,,,,23,0,23,0,1173.4860505000688,,,,,,,,,,,,1177.7061493997462,1178.205063499976,,,,4.2141791000030935,,,,,,,,,,,,None,None,,,,,,,,,,Uhr,,,cuedRecallAdj,2,,,,,,,,,,,,,,,,,,,,,0,,,,,,,,,,,,,,,,,,,,,,,,,,,,,,,1173.4763472001068,1173.4860505000688,1173.4860505000688,1177.70329760015,hohl,return,4.2141791000030935,None,1177.7035662997514,1177.7128145000897,1177.7128145000897,1177.706048999913,,None,,,,,2,2024-01-16_14h37.48.354,watkins1,2023.2.3,99.6827098626323,92,2024-01-16 14h38.02.724976 +0000,
,,,,,,,,,,,,,,,,,,,,,,,24,0,24,0,1178.2150694997981,,,,,,,,,,,,1189.1629498000257,1189.6613704999909,,,,10.94106510002166,,,,,,,,,,,,None,None,,,,,,,,,,Lampe,,,cuedRecallAdj,2,,,,,,,,,,,,,,,,,,,,,0,,,,,,,,,,,,,,,,,,,,,,,,,,,,,,,1178.205303600058,1178.2150694997981,1178.2150694997981,1189.1597484000959,durchscheinend,return,10.94106510002166,None,1189.1600127997808,1189.169349099975,1189.169349099975,1189.1628497000784,,None,,,,,2,2024-01-16_14h37.48.354,watkins1,2023.2.3,99.6827098626323,92,2024-01-16 14h38.02.724976 +0000,
,,,,,,,,,,,,,,,,,,,,,,,25,0,25,0,1189.6713189999573,,,,,,,,,,,,1193.5599917997606,1194.0589104997925,,,,3.876771999988705,,,,,,,,,,,,None,None,,,,,,,,,,Geige,,,cuedRecallAdj,2,,,,,,,,,,,,,,,,,,,,,0,,,,,,,,,,,,,,,,,,,,,,,,,,,,,,,1189.6616127998568,1189.6713189999573,1189.6713189999573,1193.5571698001586,nass,return,3.876771999988705,None,1193.5574305001646,1193.566870899871,1193.566870899871,1193.5598895000294,,None,,,,,2,2024-01-16_14h37.48.354,watkins1,2023.2.3,99.6827098626323,92,2024-01-16 14h38.02.724976 +0000,
,,,,,,,,,,,,,,,,,,,,,,,26,0,26,0,1194.0688493000343,,,,,,,,,,,,1197.375432800036,1197.8740411000326,,,,3.2953669000416994,,,,,,,,,,,,None,None,,,,,,,,,,Schere,,,cuedRecallAdj,2,,,,,,,,,,,,,,,,,,,,,0,,,,,,,,,,,,,,,,,,,,,,,,,,,,,,,1194.0591572001576,1194.0688493000343,1194.0688493000343,1197.3723846999928,matt,return,3.2953669000416994,None,1197.3726452998817,1197.3821589001454,1197.3821589001454,1197.3753309999593,,None,,,,,2,2024-01-16_14h37.48.354,watkins1,2023.2.3,99.6827098626323,92,2024-01-16 14h38.02.724976 +0000,
,,,,,,,,,,,,,,,,,,,,,,,27,0,27,0,1197.8840418001637,,,,,,,,,,,,1201.2811286998913,1201.7799797998741,,,,3.384150799829513,,,,,,,,,,,,None,None,,,,,,,,,,Eimer,,,cuedRecallAdj,2,,,,,,,,,,,,,,,,,,,,,0,,,,,,,,,,,,,,,,,,,,,,,,,,,,,,,1197.8742995001376,1197.8840418001637,1197.8840418001637,1201.2781557999551,schwer,return,3.384150799829513,None,1201.2784187998623,1201.2878903998062,1201.2878903998062,1201.281027900055,,None,,,,,2,2024-01-16_14h37.48.354,watkins1,2023.2.3,99.6827098626323,92,2024-01-16 14h38.02.724976 +0000,
,,,,,,,,,,,,,,,,,,,,,,,28,0,28,0,1201.7899287999608,,,,,,,,,,,,1206.3317991998047,1206.8301539998502,,,,4.5341692003421485,,,,,,,,,,,,None,None,,,,,,,,,,Flasche,,,cuedRecallAdj,2,,,,,,,,,,,,,,,,,,,,,0,,,,,,,,,,,,,,,,,,,,,,,,,,,,,,,1201.7802272001281,1201.7899287999608,1201.7899287999608,1206.3285063998774,biegsam,return,4.5341692003421485,None,1206.3287728000432,1206.3380657001399,1206.3380657001399,1206.3316986998543,,None,,,,,2,2024-01-16_14h37.48.354,watkins1,2023.2.3,99.6827098626323,92,2024-01-16 14h38.02.724976 +0000,
,,,,,,,,,,,,,,,,,,,,,,,29,0,29,0,1206.8401065999642,,,,,,,,,,,,1218.129697700031,1218.6276587001048,,,,11.283964899834245,,,,,,,,,,,,None,None,,,,,,,,,,Tasse,,,cuedRecallAdj,2,,,,,,,,,,,,,,,,,,,,,0,,,,,,,,,,,,,,,,,,,,,,,,,,,,,,,1206.8303978000768,1206.8401065999642,1206.8401065999642,1218.1264046998695,glänzend,return,11.283964899834245,None,1218.1266648997553,1218.1358786998317,1218.1358786998317,1218.1295993998647,,None,,,,,2,2024-01-16_14h37.48.354,watkins1,2023.2.3,99.6827098626323,92,2024-01-16 14h38.02.724976 +0000,
,,,,,,,,,,,,,,,,,,,,,,,,,,,,,,,,,,,,,,,,,,,,,,,,,,,,,,,,,,,,,,,,,,,,,,,2,,,,,,,,,,,,,,,,,,,,,,,,,,,,,,,,,,,,,,,,,,,,,,,,,,,,,,,,,,,,,,,,,,1218.6445132000372,q,306.32754470035434,None,2,2024-01-16_14h37.48.354,watkins1,2023.2.3,99.6827098626323,92,2024-01-16 14h38.02.724976 +0000,
