Equation,CorrectResponse,Correctbutton,trials_7.thisRepN,trials_7.thisTrialN,trials_7.thisN,trials_7.thisIndex,trials.thisRepN,trials.thisTrialN,trials.thisN,trials.thisIndex,trials_3.thisRepN,trials_3.thisTrialN,trials_3.thisN,trials_3.thisIndex,trials_2.thisRepN,trials_2.thisTrialN,trials_2.thisN,trials_2.thisIndex,trials_4.thisRepN,trials_4.thisTrialN,trials_4.thisN,trials_4.thisIndex,trials_5.thisRepN,trials_5.thisTrialN,trials_5.thisN,trials_5.thisIndex,thisRow.t,notes,code_marius.started,code_marius.stopped,welcome.started,welcome.stopped,instruction_study.started,instruction_study.stopped,fixationcross.started,fixationcross.stopped,blanc.started,blanc.stopped,study_control_probe.started,study_control_probe.stopped,responseKey,responseTime,scale_answer_2.keys,study_control_probe_2.started,study_control_probe_2.stopped,scale_answer_3.keys,scale_answer_3.rt,scale_answer_3.duration,blanc_2.started,blanc_2.stopped,test_attr_probe.started,test_attr_probe.stopped,recalled_attr,firstKeyTime,secondWordTime,blanc_3.started,blanc_3.stopped,test_sub_probe.started,test_sub_probe.stopped,recalled_sub,instruction_probe_end.started,instruction_probe_end.stopped,study.started,study.stopped,substantive,adjective,wordpair,task,condition,liste_sub_phase1,liste_adj_phase1,scale_answer.keys,scale_answer.rt,scale_answer.duration,code_defineWordsInit.started,code_defineWordsInit.stopped,liste_sub_phase2,study_control.started,study_control.stopped,scale_answer_4.keys,restudy_same.started,restudy_same.stopped,scale_answer_5.keys,restudy_different.started,restudy_different.stopped,scale_answer_6.keys,scale_answer_6.rt,scale_answer_6.duration,test_attr.started,test_attr.stopped,test_sub.started,test_sub.stopped,scale_answer_4.rt,scale_answer_4.duration,distractortask.started,equation_text.started,distractortask.stopped,mouse_answer.x,mouse_answer.y,mouse_answer.leftButton,mouse_answer.midButton,mouse_answer.rightButton,mouse_answer.time,mouse_answer.clicked_name,feedback_distractortask.started,feedback_distractortask.stopped,free_recall.started,text_enter.started,key_resp.started,free_recall.stopped,key_resp.keys,key_resp.rt,key_resp.duration,free_recalled_sub,mouse_continue.x,mouse_continue.y,mouse_continue.leftButton,mouse_continue.midButton,mouse_continue.rightButton,mouse_continue.time,mouse_continue.clicked_name,cued_recall.started,text_enter_2.started,correct,key_continue.started,cued_recall.stopped,recalled_attr1,key_continue.keys,key_continue.rt,key_continue.duration,cued_recall_2.started,text_enter_3.started,key_continue_2.started,cued_recall_2.stopped,recalled_attr2,key_continue_2.keys,key_continue_2.rt,key_continue_2.duration,key_resp_8.started,key_resp_8.keys,key_resp_8.rt,key_resp_8.duration,condition,date,expName,psychopyVersion,frameRate,participant,expStart,
,,,,,,,,,,,,,,,,,,,,,,,,,,,,,0.11306060012429953,0.11313079996034503,0.11313930014148355,9.01282860012725,,,,,,,,,,,,,,,,,,,,,,,,,,,,,,,,,,,,,1,,,,,,,,,,,,,,,,,,,,,,,,,,,,,,,,,,,,,,,,,,,,,,,,,,,,,,,,,,,,,,,,,,,,,,,,,,1,2023-12-12_13h39.43.361,watkins1,2023.2.3,99.71680434810368,62,2023-12-12 13h39.51.087737 +0000,
,,,,,,,,,,,,,,,,,,,,,,,,,,,,,,,,,9.012875699903816,61.4645313997753,,,,,,,,,,,,,,,,,,,,,,,,,,,,,,,,,,,1,,,,,,,,,,,,,,,,,,,,,,,,,,,,,,,,,,,,,,,,,,,,,,,,,,,,,,,,,,,,,,,,,,,,,,,,,,1,2023-12-12_13h39.43.361,watkins1,2023.2.3,99.71680434810368,62,2023-12-12 13h39.51.087737 +0000,
,,,0,0,0,0,,,,,,,,,,,,,,,,,,,,,62.47810739977285,,,,,,,,61.464548899792135,62.46813349984586,68.96941399993375,69.46103730006143,62.96021320018917,68.96924429992214,2,3.0772778000682592,None,69.46104749990627,75.47075110021979,2,3.0772778000682592,None,75.47105540009215,75.47107909992337,75.47108619986102,75.47116759978235,,None,None,75.47132819984108,75.47134779999033,75.4713546000421,75.47142850002274,,,,,,,,,,1,,,,,,,,,,,,,,,,,,,,,,,,,,,,,,,,,,,,,,,,,,,,,,,,,,,,,,,,,,,,,,,,,,,,,,,,,,1,2023-12-12_13h39.43.361,watkins1,2023.2.3,99.71680434810368,62,2023-12-12 13h39.51.087737 +0000,
,,,,,,,,,,,,,,,,,,,,,,,,,,,,,,,,,,,,,,,,,,,,,,,,,,,,,,,,,,,,,75.47154089994729,81.88332069991156,,,,,,,1,,,,,,,,,,,,,,,,,,,,,,,,,,,,,,,,,,,,,,,,,,,,,,,,,,,,,,,,,,,,,,,,,,,,,,,,,,1,2023-12-12_13h39.43.361,watkins1,2023.2.3,99.71680434810368,62,2023-12-12 13h39.51.087737 +0000,
,,,,,,,0,0,0,0,,,,,,,,,,,,,,,,,82.897074600216,,,,,,,,81.88333739992231,82.8870431999676,82.88748539984226,83.37921580020338,,,3,2.047101799864322,,,,,,,,,,,,,,,,,,,,,83.37922579981387,89.38129450008273,Jacke,elegant,"['Jacke', 'elegant']",restudy_diff,1,"['Jacke', 'Flasche', 'Trommel', 'Brille', 'Blume', 'Tasse', 'Fahrrad', 'Stift', 'Eimer', 'Rucksack', 'Schere', 'Kamera', 'Uhr', 'Telefon', 'Vase', 'Kette', 'Hut', 'Hammer', 'Löffel', 'Kerze', 'Socke', 'Kiste']",['elegant'],3,2.047101799864322,None,,,,,,,,,,,,,,,,,,,,,,,,,,,,,,,,,,,,,,,,,,,,,,,,,,,,,,,,,,,,,,,,,,,,,1,2023-12-12_13h39.43.361,watkins1,2023.2.3,99.71680434810368,62,2023-12-12 13h39.51.087737 +0000,
,,,,,,,1,0,1,0,,,,,,,,,,,,,,,,,89.39072880009189,,,,,,,,,,89.38188510015607,89.87277759984136,,,3,2.3478345000185072,,,,,,,,,,,,,,,,,,,,,89.87278930004686,95.87822629977018,Flasche,schmutzig,"['Flasche', 'schmutzig']",restudy_diff,1,"['Jacke', 'Flasche', 'Trommel', 'Brille', 'Blume', 'Tasse', 'Fahrrad', 'Stift', 'Eimer', 'Rucksack', 'Schere', 'Kamera', 'Uhr', 'Telefon', 'Vase', 'Kette', 'Hut', 'Hammer', 'Löffel', 'Kerze', 'Socke', 'Kiste']","['elegant', 'schmutzig']",3,2.3478345000185072,None,,,,,,,,,,,,,,,,,,,,,,,,,,,,,,,,,,,,,,,,,,,,,,,,,,,,,,,,,,,,,,,,,,,,,1,2023-12-12_13h39.43.361,watkins1,2023.2.3,99.71680434810368,62,2023-12-12 13h39.51.087737 +0000,
,,,,,,,2,0,2,0,,,,,,,,,,,,,,,,,95.88771050004289,,,,,,,,,,95.87870460003614,96.36972599988803,,,3,1.6853303997777402,,,,,,,,,,,,,,,,,,,,,96.36973610008135,102.37239899998531,Trommel,glatt,"['Trommel', 'glatt']",restudy_diff,1,"['Jacke', 'Flasche', 'Trommel', 'Brille', 'Blume', 'Tasse', 'Fahrrad', 'Stift', 'Eimer', 'Rucksack', 'Schere', 'Kamera', 'Uhr', 'Telefon', 'Vase', 'Kette', 'Hut', 'Hammer', 'Löffel', 'Kerze', 'Socke', 'Kiste']","['elegant', 'schmutzig', 'glatt']",3,1.6853303997777402,None,,,,,,,,,,,,,,,,,,,,,,,,,,,,,,,,,,,,,,,,,,,,,,,,,,,,,,,,,,,,,,,,,,,,,1,2023-12-12_13h39.43.361,watkins1,2023.2.3,99.71680434810368,62,2023-12-12 13h39.51.087737 +0000,
,,,,,,,3,0,3,0,,,,,,,,,,,,,,,,,102.38198469998315,,,,,,,,,,102.3728906000033,102.86401899997145,,,3,2.8703821999952197,,,,,,,,,,,,,,,,,,,,,102.86402919981629,108.8722025998868,Brille,strahlend,"['Brille', 'strahlend']",restudy_diff,1,"['Jacke', 'Flasche', 'Trommel', 'Brille', 'Blume', 'Tasse', 'Fahrrad', 'Stift', 'Eimer', 'Rucksack', 'Schere', 'Kamera', 'Uhr', 'Telefon', 'Vase', 'Kette', 'Hut', 'Hammer', 'Löffel', 'Kerze', 'Socke', 'Kiste']","['elegant', 'schmutzig', 'glatt', 'strahlend']",3,2.8703821999952197,None,,,,,,,,,,,,,,,,,,,,,,,,,,,,,,,,,,,,,,,,,,,,,,,,,,,,,,,,,,,,,,,,,,,,,1,2023-12-12_13h39.43.361,watkins1,2023.2.3,99.71680434810368,62,2023-12-12 13h39.51.087737 +0000,
,,,,,,,4,0,4,0,,,,,,,,,,,,,,,,,108.88167080003768,,,,,,,,,,108.87267340021208,109.36358249979094,,,1,1.6044363998807967,,,,,,,,,,,,,,,,,,,,,109.36359270010144,115.37312289979309,Blume,lustig,"['Blume', 'lustig']",restudy_diff,1,"['Jacke', 'Flasche', 'Trommel', 'Brille', 'Blume', 'Tasse', 'Fahrrad', 'Stift', 'Eimer', 'Rucksack', 'Schere', 'Kamera', 'Uhr', 'Telefon', 'Vase', 'Kette', 'Hut', 'Hammer', 'Löffel', 'Kerze', 'Socke', 'Kiste']","['elegant', 'schmutzig', 'glatt', 'strahlend', 'lustig']",1,1.6044363998807967,None,,,,,,,,,,,,,,,,,,,,,,,,,,,,,,,,,,,,,,,,,,,,,,,,,,,,,,,,,,,,,,,,,,,,,1,2023-12-12_13h39.43.361,watkins1,2023.2.3,99.71680434810368,62,2023-12-12 13h39.51.087737 +0000,
,,,,,,,5,0,5,0,,,,,,,,,,,,,,,,,115.38257949985564,,,,,,,,,,115.3736001001671,115.86473890021443,,,3,1.1026314999908209,,,,,,,,,,,,,,,,,,,,,115.8647489999421,121.865510399919,Tasse,bunt,"['Tasse', 'bunt']",restudy_diff,1,"['Jacke', 'Flasche', 'Trommel', 'Brille', 'Blume', 'Tasse', 'Fahrrad', 'Stift', 'Eimer', 'Rucksack', 'Schere', 'Kamera', 'Uhr', 'Telefon', 'Vase', 'Kette', 'Hut', 'Hammer', 'Löffel', 'Kerze', 'Socke', 'Kiste']","['elegant', 'schmutzig', 'glatt', 'strahlend', 'lustig', 'bunt']",3,1.1026314999908209,None,,,,,,,,,,,,,,,,,,,,,,,,,,,,,,,,,,,,,,,,,,,,,,,,,,,,,,,,,,,,,,,,,,,,,1,2023-12-12_13h39.43.361,watkins1,2023.2.3,99.71680434810368,62,2023-12-12 13h39.51.087737 +0000,
,,,,,,,6,0,6,0,,,,,,,,,,,,,,,,,121.87498719990253,,,,,,,,,,121.8659781999886,122.35702130012214,,,3,1.95517300022766,,,,,,,,,,,,,,,,,,,,,122.35703130019829,128.36328929988667,Fahrrad,nass,"['Fahrrad', 'nass']",restudy_diff,1,"['Jacke', 'Flasche', 'Trommel', 'Brille', 'Blume', 'Tasse', 'Fahrrad', 'Stift', 'Eimer', 'Rucksack', 'Schere', 'Kamera', 'Uhr', 'Telefon', 'Vase', 'Kette', 'Hut', 'Hammer', 'Löffel', 'Kerze', 'Socke', 'Kiste']","['elegant', 'schmutzig', 'glatt', 'strahlend', 'lustig', 'bunt', 'nass']",3,1.95517300022766,None,,,,,,,,,,,,,,,,,,,,,,,,,,,,,,,,,,,,,,,,,,,,,,,,,,,,,,,,,,,,,,,,,,,,,1,2023-12-12_13h39.43.361,watkins1,2023.2.3,99.71680434810368,62,2023-12-12 13h39.51.087737 +0000,
,,,,,,,7,0,7,0,,,,,,,,,,,,,,,,,128.37262840010226,,,,,,,,,,128.36388419987634,128.85480399988592,,,3,2.5840638000518084,,,,,,,,,,,,,,,,,,,,,128.85481429984793,134.860870399978,Stift,teuer,"['Stift', 'teuer']",control,1,"['Jacke', 'Flasche', 'Trommel', 'Brille', 'Blume', 'Tasse', 'Fahrrad', 'Stift', 'Eimer', 'Rucksack', 'Schere', 'Kamera', 'Uhr', 'Telefon', 'Vase', 'Kette', 'Hut', 'Hammer', 'Löffel', 'Kerze', 'Socke', 'Kiste']","['elegant', 'schmutzig', 'glatt', 'strahlend', 'lustig', 'bunt', 'nass', 'teuer']",3,2.5840638000518084,None,,,,,,,,,,,,,,,,,,,,,,,,,,,,,,,,,,,,,,,,,,,,,,,,,,,,,,,,,,,,,,,,,,,,,1,2023-12-12_13h39.43.361,watkins1,2023.2.3,99.71680434810368,62,2023-12-12 13h39.51.087737 +0000,
,,,,,,,8,0,8,0,,,,,,,,,,,,,,,,,134.87045150017366,,,,,,,,,,134.86135949986055,135.35243709990755,,,3,1.614824399817735,,,,,,,,,,,,,,,,,,,,,135.3524470999837,141.35612619994208,Eimer,neu,"['Eimer', 'neu']",control,1,"['Jacke', 'Flasche', 'Trommel', 'Brille', 'Blume', 'Tasse', 'Fahrrad', 'Stift', 'Eimer', 'Rucksack', 'Schere', 'Kamera', 'Uhr', 'Telefon', 'Vase', 'Kette', 'Hut', 'Hammer', 'Löffel', 'Kerze', 'Socke', 'Kiste']","['elegant', 'schmutzig', 'glatt', 'strahlend', 'lustig', 'bunt', 'nass', 'teuer', 'neu']",3,1.614824399817735,None,,,,,,,,,,,,,,,,,,,,,,,,,,,,,,,,,,,,,,,,,,,,,,,,,,,,,,,,,,,,,,,,,,,,,1,2023-12-12_13h39.43.361,watkins1,2023.2.3,99.71680434810368,62,2023-12-12 13h39.51.087737 +0000,
,,,,,,,9,0,9,0,,,,,,,,,,,,,,,,,141.36570939980447,,,,,,,,,,141.3565989001654,141.8476987001486,,,3,1.3585499003529549,,,,,,,,,,,,,,,,,,,,,141.84770879987627,147.85135179990903,Rucksack,schwer,"['Rucksack', 'schwer']",control,1,"['Jacke', 'Flasche', 'Trommel', 'Brille', 'Blume', 'Tasse', 'Fahrrad', 'Stift', 'Eimer', 'Rucksack', 'Schere', 'Kamera', 'Uhr', 'Telefon', 'Vase', 'Kette', 'Hut', 'Hammer', 'Löffel', 'Kerze', 'Socke', 'Kiste']","['elegant', 'schmutzig', 'glatt', 'strahlend', 'lustig', 'bunt', 'nass', 'teuer', 'neu', 'schwer']",3,1.3585499003529549,None,,,,,,,,,,,,,,,,,,,,,,,,,,,,,,,,,,,,,,,,,,,,,,,,,,,,,,,,,,,,,,,,,,,,,1,2023-12-12_13h39.43.361,watkins1,2023.2.3,99.71680434810368,62,2023-12-12 13h39.51.087737 +0000,
,,,,,,,10,0,10,0,,,,,,,,,,,,,,,,,147.86078750016168,,,,,,,,,,147.85182450013235,148.34319620020688,,,3,1.5437579997815192,,,,,,,,,,,,,,,,,,,,,148.3432064000517,154.34440209995955,Schere,glänzend,"['Schere', 'glänzend']",control,1,"['Jacke', 'Flasche', 'Trommel', 'Brille', 'Blume', 'Tasse', 'Fahrrad', 'Stift', 'Eimer', 'Rucksack', 'Schere', 'Kamera', 'Uhr', 'Telefon', 'Vase', 'Kette', 'Hut', 'Hammer', 'Löffel', 'Kerze', 'Socke', 'Kiste']","['elegant', 'schmutzig', 'glatt', 'strahlend', 'lustig', 'bunt', 'nass', 'teuer', 'neu', 'schwer', 'glänzend']",3,1.5437579997815192,None,,,,,,,,,,,,,,,,,,,,,,,,,,,,,,,,,,,,,,,,,,,,,,,,,,,,,,,,,,,,,,,,,,,,,1,2023-12-12_13h39.43.361,watkins1,2023.2.3,99.71680434810368,62,2023-12-12 13h39.51.087737 +0000,
,,,,,,,11,0,11,0,,,,,,,,,,,,,,,,,154.3538394998759,,,,,,,,,,154.34487080015242,154.83592899981886,,,3,1.506510699633509,,,,,,,,,,,,,,,,,,,,,154.83593950001523,160.84348550019786,Kamera,hübsch,"['Kamera', 'hübsch']",control,1,"['Jacke', 'Flasche', 'Trommel', 'Brille', 'Blume', 'Tasse', 'Fahrrad', 'Stift', 'Eimer', 'Rucksack', 'Schere', 'Kamera', 'Uhr', 'Telefon', 'Vase', 'Kette', 'Hut', 'Hammer', 'Löffel', 'Kerze', 'Socke', 'Kiste']","['elegant', 'schmutzig', 'glatt', 'strahlend', 'lustig', 'bunt', 'nass', 'teuer', 'neu', 'schwer', 'glänzend', 'hübsch']",3,1.506510699633509,None,,,,,,,,,,,,,,,,,,,,,,,,,,,,,,,,,,,,,,,,,,,,,,,,,,,,,,,,,,,,,,,,,,,,,1,2023-12-12_13h39.43.361,watkins1,2023.2.3,99.71680434810368,62,2023-12-12 13h39.51.087737 +0000,
,,,,,,,12,0,12,0,,,,,,,,,,,,,,,,,160.85284590022638,,,,,,,,,,160.84397190017626,161.3349862000905,,,1,2.1035029999911785,,,,,,,,,,,,,,,,,,,,,161.3349966998212,167.33690480003133,Uhr,gepunktet,"['Uhr', 'gepunktet']",control,1,"['Jacke', 'Flasche', 'Trommel', 'Brille', 'Blume', 'Tasse', 'Fahrrad', 'Stift', 'Eimer', 'Rucksack', 'Schere', 'Kamera', 'Uhr', 'Telefon', 'Vase', 'Kette', 'Hut', 'Hammer', 'Löffel', 'Kerze', 'Socke', 'Kiste']","['elegant', 'schmutzig', 'glatt', 'strahlend', 'lustig', 'bunt', 'nass', 'teuer', 'neu', 'schwer', 'glänzend', 'hübsch', 'gepunktet']",1,2.1035029999911785,None,,,,,,,,,,,,,,,,,,,,,,,,,,,,,,,,,,,,,,,,,,,,,,,,,,,,,,,,,,,,,,,,,,,,,1,2023-12-12_13h39.43.361,watkins1,2023.2.3,99.71680434810368,62,2023-12-12 13h39.51.087737 +0000,
,,,,,,,13,0,13,0,,,,,,,,,,,,,,,,,167.34633649978787,,,,,,,,,,167.33737089997157,167.82850580010563,,,1,3.6592664001509547,,,,,,,,,,,,,,,,,,,,,167.8285165000707,173.83664959995076,Telefon,nachhaltig,"['Telefon', 'nachhaltig']",restudy_diff,1,"['Jacke', 'Flasche', 'Trommel', 'Brille', 'Blume', 'Tasse', 'Fahrrad', 'Stift', 'Eimer', 'Rucksack', 'Schere', 'Kamera', 'Uhr', 'Telefon', 'Vase', 'Kette', 'Hut', 'Hammer', 'Löffel', 'Kerze', 'Socke', 'Kiste']","['elegant', 'schmutzig', 'glatt', 'strahlend', 'lustig', 'bunt', 'nass', 'teuer', 'neu', 'schwer', 'glänzend', 'hübsch', 'gepunktet', 'nachhaltig']",1,3.6592664001509547,None,,,,,,,,,,,,,,,,,,,,,,,,,,,,,,,,,,,,,,,,,,,,,,,,,,,,,,,,,,,,,,,,,,,,,1,2023-12-12_13h39.43.361,watkins1,2023.2.3,99.71680434810368,62,2023-12-12 13h39.51.087737 +0000,
,,,,,,,14,0,14,0,,,,,,,,,,,,,,,,,173.84608120005578,,,,,,,,,,173.83717299997807,174.32818860001862,,,3,2.1989116999320686,,,,,,,,,,,,,,,,,,,,,174.3281984999776,180.33649960020557,Vase,blass,"['Vase', 'blass']",restudy_diff,1,"['Jacke', 'Flasche', 'Trommel', 'Brille', 'Blume', 'Tasse', 'Fahrrad', 'Stift', 'Eimer', 'Rucksack', 'Schere', 'Kamera', 'Uhr', 'Telefon', 'Vase', 'Kette', 'Hut', 'Hammer', 'Löffel', 'Kerze', 'Socke', 'Kiste']","['elegant', 'schmutzig', 'glatt', 'strahlend', 'lustig', 'bunt', 'nass', 'teuer', 'neu', 'schwer', 'glänzend', 'hübsch', 'gepunktet', 'nachhaltig', 'blass']",3,2.1989116999320686,None,,,,,,,,,,,,,,,,,,,,,,,,,,,,,,,,,,,,,,,,,,,,,,,,,,,,,,,,,,,,,,,,,,,,,1,2023-12-12_13h39.43.361,watkins1,2023.2.3,99.71680434810368,62,2023-12-12 13h39.51.087737 +0000,
,,,,,,,15,0,15,0,,,,,,,,,,,,,,,,,180.34597259992734,,,,,,,,,,180.33697219984606,180.82798929978162,,,1,1.3236956000328064,,,,,,,,,,,,,,,,,,,,,180.827999799978,186.83727400004864,Kette,krumm,"['Kette', 'krumm']",restudy_diff,1,"['Jacke', 'Flasche', 'Trommel', 'Brille', 'Blume', 'Tasse', 'Fahrrad', 'Stift', 'Eimer', 'Rucksack', 'Schere', 'Kamera', 'Uhr', 'Telefon', 'Vase', 'Kette', 'Hut', 'Hammer', 'Löffel', 'Kerze', 'Socke', 'Kiste']","['elegant', 'schmutzig', 'glatt', 'strahlend', 'lustig', 'bunt', 'nass', 'teuer', 'neu', 'schwer', 'glänzend', 'hübsch', 'gepunktet', 'nachhaltig', 'blass', 'krumm']",1,1.3236956000328064,None,,,,,,,,,,,,,,,,,,,,,,,,,,,,,,,,,,,,,,,,,,,,,,,,,,,,,,,,,,,,,,,,,,,,,1,2023-12-12_13h39.43.361,watkins1,2023.2.3,99.71680434810368,62,2023-12-12 13h39.51.087737 +0000,
,,,,,,,16,0,16,0,,,,,,,,,,,,,,,,,186.84670089976862,,,,,,,,,,186.8377458001487,187.32855849992484,,,1,1.142396999988705,,,,,,,,,,,,,,,,,,,,,187.3285690001212,193.33040269976482,Hut,biegsam,"['Hut', 'biegsam']",control,1,"['Jacke', 'Flasche', 'Trommel', 'Brille', 'Blume', 'Tasse', 'Fahrrad', 'Stift', 'Eimer', 'Rucksack', 'Schere', 'Kamera', 'Uhr', 'Telefon', 'Vase', 'Kette', 'Hut', 'Hammer', 'Löffel', 'Kerze', 'Socke', 'Kiste']","['elegant', 'schmutzig', 'glatt', 'strahlend', 'lustig', 'bunt', 'nass', 'teuer', 'neu', 'schwer', 'glänzend', 'hübsch', 'gepunktet', 'nachhaltig', 'blass', 'krumm', 'biegsam']",1,1.142396999988705,None,,,,,,,,,,,,,,,,,,,,,,,,,,,,,,,,,,,,,,,,,,,,,,,,,,,,,,,,,,,,,,,,,,,,,1,2023-12-12_13h39.43.361,watkins1,2023.2.3,99.71680434810368,62,2023-12-12 13h39.51.087737 +0000,
,,,,,,,17,0,17,0,,,,,,,,,,,,,,,,,193.3398345001042,,,,,,,,,,193.33087900001556,193.82193019986153,,,3,2.809562100097537,,,,,,,,,,,,,,,,,,,,,193.8219407000579,199.8249130998738,Hammer,dunkel,"['Hammer', 'dunkel']",restudy_diff,1,"['Jacke', 'Flasche', 'Trommel', 'Brille', 'Blume', 'Tasse', 'Fahrrad', 'Stift', 'Eimer', 'Rucksack', 'Schere', 'Kamera', 'Uhr', 'Telefon', 'Vase', 'Kette', 'Hut', 'Hammer', 'Löffel', 'Kerze', 'Socke', 'Kiste']","['elegant', 'schmutzig', 'glatt', 'strahlend', 'lustig', 'bunt', 'nass', 'teuer', 'neu', 'schwer', 'glänzend', 'hübsch', 'gepunktet', 'nachhaltig', 'blass', 'krumm', 'biegsam', 'dunkel']",3,2.809562100097537,None,,,,,,,,,,,,,,,,,,,,,,,,,,,,,,,,,,,,,,,,,,,,,,,,,,,,,,,,,,,,,,,,,,,,,1,2023-12-12_13h39.43.361,watkins1,2023.2.3,99.71680434810368,62,2023-12-12 13h39.51.087737 +0000,
,,,,,,,18,0,18,0,,,,,,,,,,,,,,,,,199.83438010001555,,,,,,,,,,199.82539399992675,200.3165184999816,,,1,2.0424848003312945,,,,,,,,,,,,,,,,,,,,,200.31652879994363,206.32530699996278,Löffel,gestreift,"['Löffel', 'gestreift']",restudy_diff,1,"['Jacke', 'Flasche', 'Trommel', 'Brille', 'Blume', 'Tasse', 'Fahrrad', 'Stift', 'Eimer', 'Rucksack', 'Schere', 'Kamera', 'Uhr', 'Telefon', 'Vase', 'Kette', 'Hut', 'Hammer', 'Löffel', 'Kerze', 'Socke', 'Kiste']","['elegant', 'schmutzig', 'glatt', 'strahlend', 'lustig', 'bunt', 'nass', 'teuer', 'neu', 'schwer', 'glänzend', 'hübsch', 'gepunktet', 'nachhaltig', 'blass', 'krumm', 'biegsam', 'dunkel', 'gestreift']",1,2.0424848003312945,None,,,,,,,,,,,,,,,,,,,,,,,,,,,,,,,,,,,,,,,,,,,,,,,,,,,,,,,,,,,,,,,,,,,,,1,2023-12-12_13h39.43.361,watkins1,2023.2.3,99.71680434810368,62,2023-12-12 13h39.51.087737 +0000,
,,,,,,,19,0,19,0,,,,,,,,,,,,,,,,,206.33489090017974,,,,,,,,,,206.32579259993508,206.8169597000815,,,3,1.9427682999521494,,,,,,,,,,,,,,,,,,,,,206.8169701001607,212.82632650015876,Kerze,winzig,"['Kerze', 'winzig']",restudy_diff,1,"['Jacke', 'Flasche', 'Trommel', 'Brille', 'Blume', 'Tasse', 'Fahrrad', 'Stift', 'Eimer', 'Rucksack', 'Schere', 'Kamera', 'Uhr', 'Telefon', 'Vase', 'Kette', 'Hut', 'Hammer', 'Löffel', 'Kerze', 'Socke', 'Kiste']","['elegant', 'schmutzig', 'glatt', 'strahlend', 'lustig', 'bunt', 'nass', 'teuer', 'neu', 'schwer', 'glänzend', 'hübsch', 'gepunktet', 'nachhaltig', 'blass', 'krumm', 'biegsam', 'dunkel', 'gestreift', 'winzig']",3,1.9427682999521494,None,,,,,,,,,,,,,,,,,,,,,,,,,,,,,,,,,,,,,,,,,,,,,,,,,,,,,,,,,,,,,,,,,,,,,1,2023-12-12_13h39.43.361,watkins1,2023.2.3,99.71680434810368,62,2023-12-12 13h39.51.087737 +0000,
,,,,,,,20,0,20,0,,,,,,,,,,,,,,,,,212.83578469976783,,,,,,,,,,212.82682429999113,213.3178190002218,,,3,2.329891400411725,,,,,,,,,,,,,,,,,,,,,213.31782920006663,219.32204330014065,Socke,klobig,"['Socke', 'klobig']",restudy_diff,1,"['Jacke', 'Flasche', 'Trommel', 'Brille', 'Blume', 'Tasse', 'Fahrrad', 'Stift', 'Eimer', 'Rucksack', 'Schere', 'Kamera', 'Uhr', 'Telefon', 'Vase', 'Kette', 'Hut', 'Hammer', 'Löffel', 'Kerze', 'Socke', 'Kiste']","['elegant', 'schmutzig', 'glatt', 'strahlend', 'lustig', 'bunt', 'nass', 'teuer', 'neu', 'schwer', 'glänzend', 'hübsch', 'gepunktet', 'nachhaltig', 'blass', 'krumm', 'biegsam', 'dunkel', 'gestreift', 'winzig', 'klobig']",3,2.329891400411725,None,,,,,,,,,,,,,,,,,,,,,,,,,,,,,,,,,,,,,,,,,,,,,,,,,,,,,,,,,,,,,,,,,,,,,1,2023-12-12_13h39.43.361,watkins1,2023.2.3,99.71680434810368,62,2023-12-12 13h39.51.087737 +0000,
,,,,,,,21,0,21,0,,,,,,,,,,,,,,,,,219.33149839984253,,,,,,,,,,219.32252039993182,219.8135424000211,,,3,1.3135063997469842,,,,,,,,,,,,,,,,,,,,,219.81355259986594,225.8144188998267,Kiste,sauber,"['Kiste', 'sauber']",restudy_diff,1,"['Jacke', 'Flasche', 'Trommel', 'Brille', 'Blume', 'Tasse', 'Fahrrad', 'Stift', 'Eimer', 'Rucksack', 'Schere', 'Kamera', 'Uhr', 'Telefon', 'Vase', 'Kette', 'Hut', 'Hammer', 'Löffel', 'Kerze', 'Socke', 'Kiste']","['elegant', 'schmutzig', 'glatt', 'strahlend', 'lustig', 'bunt', 'nass', 'teuer', 'neu', 'schwer', 'glänzend', 'hübsch', 'gepunktet', 'nachhaltig', 'blass', 'krumm', 'biegsam', 'dunkel', 'gestreift', 'winzig', 'klobig', 'sauber']",3,1.3135063997469842,None,,,,,,,,,,,,,,,,,,,,,,,,,,,,,,,,,,,,,,,,,,,,,,,,,,,,,,,,,,,,,,,,,,,,,1,2023-12-12_13h39.43.361,watkins1,2023.2.3,99.71680434810368,62,2023-12-12 13h39.51.087737 +0000,
,,,,,,,,,,,0,0,0,0,,,,,,,,,,,,,225.82399429986253,,,,,,,,,,225.81527920020744,226.3060575001873,,,1,1.8636570000089705,,,,,,,,,,,,None,None,,,,,,,,,,Kerze,hohl,"['Kerze', 'hohl']",restudy_diff,1,,,,,,225.81520330021158,225.8152521001175,"['Kerze', 'Kette', 'Socke', 'Tasche', 'Ring', 'Lampe', 'Buch', 'Tasse', 'Schlüssel', 'Löffel', 'Blume', 'Würfel', 'Trommel', 'Bürste', 'Brille', 'Hammer', 'Telefon', 'Jacke', 'Vase', 'Kiste', 'Fahrrad', 'Flasche', 'Geige']",226.3060674997978,226.30872929980978,None,226.30890019983053,226.31166750006378,None,226.3118194998242,232.31566780013964,1,1.8636570000089705,None,232.31606510002166,232.3173468997702,232.31735880021006,232.3184722000733,,,,,,,,,,,,,,,,,,,,,,,,,,,,,,,,,,,,,,,,,,,,,,,,,,,1,2023-12-12_13h39.43.361,watkins1,2023.2.3,99.71680434810368,62,2023-12-12 13h39.51.087737 +0000,
,,,,,,,,,,,1,0,1,0,,,,,,,,,,,,,232.3252044999972,,,,,,,,,,232.31873490009457,232.81746120005846,,,3,1.313213599845767,,,,,,,,,,,,None,None,,,,,,,,,,Kette,kaputt,"['Kette', 'kaputt']",restudy_diff,1,,,,,,232.31867130007595,232.31870839977637,"['Kerze', 'Kette', 'Socke', 'Tasche', 'Ring', 'Lampe', 'Buch', 'Tasse', 'Schlüssel', 'Löffel', 'Blume', 'Würfel', 'Trommel', 'Bürste', 'Brille', 'Hammer', 'Telefon', 'Jacke', 'Vase', 'Kiste', 'Fahrrad', 'Flasche', 'Geige']",232.81747259991243,232.82010849984363,None,232.8202272001654,232.82261710008606,None,232.82272120006382,238.83075099997222,3,1.313213599845767,None,238.83103099977598,238.83240289986134,238.83241460006684,238.83360130013898,,,,,,,,,,,,,,,,,,,,,,,,,,,,,,,,,,,,,,,,,,,,,,,,,,,1,2023-12-12_13h39.43.361,watkins1,2023.2.3,99.71680434810368,62,2023-12-12 13h39.51.087737 +0000,
,,,,,,,,,,,2,0,2,0,,,,,,,,,,,,,238.84032899979502,,,,,,,,,,238.83386769983917,239.3323349999264,,,3,1.0462807998992503,,,,,,,,,,,,None,None,,,,,,,,,,Socke,dick,"['Socke', 'dick']",restudy_diff,1,,,,,,238.8338029999286,238.83384090010077,"['Kerze', 'Kette', 'Socke', 'Tasche', 'Ring', 'Lampe', 'Buch', 'Tasse', 'Schlüssel', 'Löffel', 'Blume', 'Würfel', 'Trommel', 'Bürste', 'Brille', 'Hammer', 'Telefon', 'Jacke', 'Vase', 'Kiste', 'Fahrrad', 'Flasche', 'Geige']",239.33234569989145,239.33505700016394,None,239.33517359988764,239.33771040011197,None,239.33781199995428,245.34142220020294,3,1.0462807998992503,None,245.3416991000995,245.3432799000293,245.3432918000035,245.3443438000977,,,,,,,,,,,,,,,,,,,,,,,,,,,,,,,,,,,,,,,,,,,,,,,,,,,1,2023-12-12_13h39.43.361,watkins1,2023.2.3,99.71680434810368,62,2023-12-12 13h39.51.087737 +0000,
,,,,,,,,,,,3,0,3,0,,,,,,,,,,,,,245.35089090000838,,,,,,,,,,245.34461299981922,245.84303240012378,,,[],[],,,,,,,,,,,,None,None,,,,,,,,,,Tasche,kalt,"['Tasche', 'kalt']",control,1,,,,,,245.34454869991168,245.3445863998495,"['Kerze', 'Kette', 'Socke', 'Tasche', 'Ring', 'Lampe', 'Buch', 'Tasse', 'Schlüssel', 'Löffel', 'Blume', 'Würfel', 'Trommel', 'Bürste', 'Brille', 'Hammer', 'Telefon', 'Jacke', 'Vase', 'Kiste', 'Fahrrad', 'Flasche', 'Geige']",245.84304310008883,251.84419069997966,1,251.84454439999536,251.84712250018492,None,251.84722629981115,251.85010109981522,None,,,251.8502107001841,251.8514682999812,251.85148070007563,251.85257630003616,3.0117231998592615,None,,,,,,,,,,,,,,,,,,,,,,,,,,,,,,,,,,,,,,,,,,,,,,,,,1,2023-12-12_13h39.43.361,watkins1,2023.2.3,99.71680434810368,62,2023-12-12 13h39.51.087737 +0000,
,,,,,,,,,,,4,0,4,0,,,,,,,,,,,,,251.85621300013736,,,,,,,,,,251.8528554001823,252.34968739980832,,,[],[],,,,,,,,,,,,None,None,,,,,,,,,,Ring,breit,"['Ring', 'breit']",control,1,,,,,,251.85278780013323,251.8528288998641,"['Kerze', 'Kette', 'Socke', 'Tasche', 'Ring', 'Lampe', 'Buch', 'Tasse', 'Schlüssel', 'Löffel', 'Blume', 'Würfel', 'Trommel', 'Bürste', 'Brille', 'Hammer', 'Telefon', 'Jacke', 'Vase', 'Kiste', 'Fahrrad', 'Flasche', 'Geige']",252.34969800012186,258.35055969981477,3,258.35083690006286,258.35340319992974,None,258.35350700002164,258.35594390006736,None,,,258.35604629991576,258.3570979000069,258.35710939997807,258.35827289987355,1.6582766002975404,None,,,,,,,,,,,,,,,,,,,,,,,,,,,,,,,,,,,,,,,,,,,,,,,,,1,2023-12-12_13h39.43.361,watkins1,2023.2.3,99.71680434810368,62,2023-12-12 13h39.51.087737 +0000,
,,,,,,,,,,,5,0,5,0,,,,,,,,,,,,,258.3619360001758,,,,,,,,,,258.35853989981115,258.8549529998563,,,[],[],,,,,,,,,,,,None,None,,,,,,,,,,Lampe,sportlich,"['Lampe', 'sportlich']",control,1,,,,,,258.3584754001349,258.3585141999647,"['Kerze', 'Kette', 'Socke', 'Tasche', 'Ring', 'Lampe', 'Buch', 'Tasse', 'Schlüssel', 'Löffel', 'Blume', 'Würfel', 'Trommel', 'Bürste', 'Brille', 'Hammer', 'Telefon', 'Jacke', 'Vase', 'Kiste', 'Fahrrad', 'Flasche', 'Geige']",258.8549640001729,264.8568561999127,1,264.85712970001623,264.8598962998949,None,264.85999950021505,264.8625695002265,None,,,264.8626708998345,264.863824499771,264.86383579997346,264.865066899918,2.536426099948585,None,,,,,,,,,,,,,,,,,,,,,,,,,,,,,,,,,,,,,,,,,,,,,,,,,1,2023-12-12_13h39.43.361,watkins1,2023.2.3,99.71680434810368,62,2023-12-12 13h39.51.087737 +0000,
,,,,,,,,,,,6,0,6,0,,,,,,,,,,,,,264.8686644998379,,,,,,,,,,264.86533050006256,265.36185480002314,,,[],[],,,,,,,,,,,,None,None,,,,,,,,,,Buch,flauschig,"['Buch', 'flauschig']",control,1,,,,,,264.86526690004393,264.86530619999394,"['Kerze', 'Kette', 'Socke', 'Tasche', 'Ring', 'Lampe', 'Buch', 'Tasse', 'Schlüssel', 'Löffel', 'Blume', 'Würfel', 'Trommel', 'Bürste', 'Brille', 'Hammer', 'Telefon', 'Jacke', 'Vase', 'Kiste', 'Fahrrad', 'Flasche', 'Geige']",265.3618654999882,271.3678059000522,1,271.3680846001953,271.37118060002103,None,271.3712848997675,271.37378829997033,None,,,271.3738950002007,271.3749393001199,271.3749512000941,271.37620740011334,1.5739298998378217,None,,,,,,,,,,,,,,,,,,,,,,,,,,,,,,,,,,,,,,,,,,,,,,,,,1,2023-12-12_13h39.43.361,watkins1,2023.2.3,99.71680434810368,62,2023-12-12 13h39.51.087737 +0000,
,,,,,,,,,,,7,0,7,0,,,,,,,,,,,,,271.3798378999345,,,,,,,,,,271.3764749998227,271.873507599812,,,3,1.3552072998136282,,,,,,,,,,,,None,None,,,,,,,,,,Tasse,gut,"['Tasse', 'gut']",restudy_diff,1,,,,,,271.3764125001617,271.37645110022277,"['Kerze', 'Kette', 'Socke', 'Tasche', 'Ring', 'Lampe', 'Buch', 'Tasse', 'Schlüssel', 'Löffel', 'Blume', 'Würfel', 'Trommel', 'Bürste', 'Brille', 'Hammer', 'Telefon', 'Jacke', 'Vase', 'Kiste', 'Fahrrad', 'Flasche', 'Geige']",271.8735186001286,271.87509159976617,None,271.8752113999799,271.8768166000955,None,271.8769196001813,277.878421400208,3,1.3552072998136282,None,277.878706399817,277.8799832998775,277.879995000083,277.8810139000416,,,,,,,,,,,,,,,,,,,,,,,,,,,,,,,,,,,,,,,,,,,,,,,,,,,1,2023-12-12_13h39.43.361,watkins1,2023.2.3,99.71680434810368,62,2023-12-12 13h39.51.087737 +0000,
,,,,,,,,,,,8,0,8,0,,,,,,,,,,,,,277.8879045001231,,,,,,,,,,277.8812760999426,278.38000730006024,,,[],[],,,,,,,,,,,,None,None,,,,,,,,,,Schlüssel,kratzig,"['Schlüssel', 'kratzig']",control,1,,,,,,277.8812134000473,277.88125059986487,"['Kerze', 'Kette', 'Socke', 'Tasche', 'Ring', 'Lampe', 'Buch', 'Tasse', 'Schlüssel', 'Löffel', 'Blume', 'Würfel', 'Trommel', 'Bürste', 'Brille', 'Hammer', 'Telefon', 'Jacke', 'Vase', 'Kiste', 'Fahrrad', 'Flasche', 'Geige']",278.38001709990203,284.39047330012545,1,284.3907456002198,284.39356609992683,None,284.3936672997661,284.39622099976987,None,,,284.39632100006565,284.3975372998975,284.39754870021716,284.3987028999254,2.2596568996086717,None,,,,,,,,,,,,,,,,,,,,,,,,,,,,,,,,,,,,,,,,,,,,,,,,,1,2023-12-12_13h39.43.361,watkins1,2023.2.3,99.71680434810368,62,2023-12-12 13h39.51.087737 +0000,
,,,,,,,,,,,9,0,9,0,,,,,,,,,,,,,284.4023048002273,,,,,,,,,,284.398961099796,284.89556409977376,,,1,1.2688023000955582,,,,,,,,,,,,None,None,,,,,,,,,,Löffel,niedlich,"['Löffel', 'niedlich']",restudy_diff,1,,,,,,284.39889989979565,284.3989377999678,"['Kerze', 'Kette', 'Socke', 'Tasche', 'Ring', 'Lampe', 'Buch', 'Tasse', 'Schlüssel', 'Löffel', 'Blume', 'Würfel', 'Trommel', 'Bürste', 'Brille', 'Hammer', 'Telefon', 'Jacke', 'Vase', 'Kiste', 'Fahrrad', 'Flasche', 'Geige']",284.8955747000873,284.89720690017566,None,284.8973297998309,284.8987905997783,None,284.8988940999843,290.90120719978586,1,1.2688023000955582,None,290.90148459980264,290.90282349986956,290.90283539984375,290.9040773999877,,,,,,,,,,,,,,,,,,,,,,,,,,,,,,,,,,,,,,,,,,,,,,,,,,,1,2023-12-12_13h39.43.361,watkins1,2023.2.3,99.71680434810368,62,2023-12-12 13h39.51.087737 +0000,
,,,,,,,,,,,10,0,10,0,,,,,,,,,,,,,290.9107862999663,,,,,,,,,,290.9043446001597,291.40328639978543,,,1,1.2059523998759687,,,,,,,,,,,,None,None,,,,,,,,,,Blume,verspielt,"['Blume', 'verspielt']",restudy_diff,1,,,,,,290.9042799999006,290.9043184998445,"['Kerze', 'Kette', 'Socke', 'Tasche', 'Ring', 'Lampe', 'Buch', 'Tasse', 'Schlüssel', 'Löffel', 'Blume', 'Würfel', 'Trommel', 'Bürste', 'Brille', 'Hammer', 'Telefon', 'Jacke', 'Vase', 'Kiste', 'Fahrrad', 'Flasche', 'Geige']",291.4032998001203,291.40598439984024,None,291.40609999978915,291.4089095001109,None,291.40901429997757,297.41453740000725,1,1.2059523998759687,None,297.4148149997927,297.4160894998349,297.4161013001576,297.4173610000871,,,,,,,,,,,,,,,,,,,,,,,,,,,,,,,,,,,,,,,,,,,,,,,,,,,1,2023-12-12_13h39.43.361,watkins1,2023.2.3,99.71680434810368,62,2023-12-12 13h39.51.087737 +0000,
,,,,,,,,,,,11,0,11,0,,,,,,,,,,,,,297.42396980011836,,,,,,,,,,297.4176249001175,297.9160250998102,,,[],[],,,,,,,,,,,,None,None,,,,,,,,,,Würfel,kurz,"['Würfel', 'kurz']",control,1,,,,,,297.4175611999817,297.4175990000367,"['Kerze', 'Kette', 'Socke', 'Tasche', 'Ring', 'Lampe', 'Buch', 'Tasse', 'Schlüssel', 'Löffel', 'Blume', 'Würfel', 'Trommel', 'Bürste', 'Brille', 'Hammer', 'Telefon', 'Jacke', 'Vase', 'Kiste', 'Fahrrad', 'Flasche', 'Geige']",297.91603589989245,303.9232971998863,1,303.92359780007973,303.92619120003656,None,303.9262983999215,303.9289795001969,None,,,303.9290832998231,303.9302709000185,303.9302827999927,303.93131919996813,1.835193000268191,None,,,,,,,,,,,,,,,,,,,,,,,,,,,,,,,,,,,,,,,,,,,,,,,,,1,2023-12-12_13h39.43.361,watkins1,2023.2.3,99.71680434810368,62,2023-12-12 13h39.51.087737 +0000,
,,,,,,,,,,,12,0,12,0,,,,,,,,,,,,,303.9348435997963,,,,,,,,,,303.9315861999057,304.42776399990544,,,1,2.7359434999525547,,,,,,,,,,,,None,None,,,,,,,,,,Trommel,praktisch,"['Trommel', 'praktisch']",restudy_diff,1,,,,,,303.93152219988406,303.93156140018255,"['Kerze', 'Kette', 'Socke', 'Tasche', 'Ring', 'Lampe', 'Buch', 'Tasse', 'Schlüssel', 'Löffel', 'Blume', 'Würfel', 'Trommel', 'Bürste', 'Brille', 'Hammer', 'Telefon', 'Jacke', 'Vase', 'Kiste', 'Fahrrad', 'Flasche', 'Geige']",304.42777429986745,304.42939579999074,None,304.4295153999701,304.4309954000637,None,304.43109800014645,310.4353959998116,1,2.7359434999525547,None,310.4357974999584,310.4372421000153,310.43725410010666,310.43852519989014,,,,,,,,,,,,,,,,,,,,,,,,,,,,,,,,,,,,,,,,,,,,,,,,,,,1,2023-12-12_13h39.43.361,watkins1,2023.2.3,99.71680434810368,62,2023-12-12 13h39.51.087737 +0000,
,,,,,,,,,,,13,0,13,0,,,,,,,,,,,,,310.4448711001314,,,,,,,,,,310.43879690021276,310.9372731000185,,,[],[],,,,,,,,,,,,None,None,,,,,,,,,,Bürste,hässlich,"['Bürste', 'hässlich']",control,1,,,,,,310.43873250018805,310.4387709000148,"['Kerze', 'Kette', 'Socke', 'Tasche', 'Ring', 'Lampe', 'Buch', 'Tasse', 'Schlüssel', 'Löffel', 'Blume', 'Würfel', 'Trommel', 'Bürste', 'Brille', 'Hammer', 'Telefon', 'Jacke', 'Vase', 'Kiste', 'Fahrrad', 'Flasche', 'Geige']",310.93728440022096,316.9417575998232,3,316.94203720008954,316.9447952997871,None,316.9449004000053,316.94751439988613,None,,,316.9476184002124,316.9489233000204,316.94893479999155,316.95017539989203,2.430403099860996,None,,,,,,,,,,,,,,,,,,,,,,,,,,,,,,,,,,,,,,,,,,,,,,,,,1,2023-12-12_13h39.43.361,watkins1,2023.2.3,99.71680434810368,62,2023-12-12 13h39.51.087737 +0000,
,,,,,,,,,,,14,0,14,0,,,,,,,,,,,,,316.953798700124,,,,,,,,,,316.9504439001903,317.4475035998039,,,3,1.5890593002550304,,,,,,,,,,,,None,None,,,,,,,,,,Brille,schlicht,"['Brille', 'schlicht']",restudy_diff,1,,,,,,316.95038110017776,316.95041990000755,"['Kerze', 'Kette', 'Socke', 'Tasche', 'Ring', 'Lampe', 'Buch', 'Tasse', 'Schlüssel', 'Löffel', 'Blume', 'Würfel', 'Trommel', 'Bürste', 'Brille', 'Hammer', 'Telefon', 'Jacke', 'Vase', 'Kiste', 'Fahrrad', 'Flasche', 'Geige']",317.44751420011744,317.449100300204,None,317.44921710016206,317.45066910004243,None,317.45077280001715,323.45792530011386,3,1.5890593002550304,None,323.4581977999769,323.4595082998276,323.4595201998018,323.46085770009086,,,,,,,,,,,,,,,,,,,,,,,,,,,,,,,,,,,,,,,,,,,,,,,,,,,1,2023-12-12_13h39.43.361,watkins1,2023.2.3,99.71680434810368,62,2023-12-12 13h39.51.087737 +0000,
,,,,,,,,,,,15,0,15,0,,,,,,,,,,,,,323.46745660016313,,,,,,,,,,323.4611265999265,323.9596170000732,,,1,4.178787199780345,,,,,,,,,,,,None,None,,,,,,,,,,Hammer,zart,"['Hammer', 'zart']",restudy_diff,1,,,,,,323.4610628001392,323.46110090008005,"['Kerze', 'Kette', 'Socke', 'Tasche', 'Ring', 'Lampe', 'Buch', 'Tasse', 'Schlüssel', 'Löffel', 'Blume', 'Würfel', 'Trommel', 'Bürste', 'Brille', 'Hammer', 'Telefon', 'Jacke', 'Vase', 'Kiste', 'Fahrrad', 'Flasche', 'Geige']",323.95962789980695,323.962392100133,None,323.96250970009714,323.96509130019695,None,323.9651962998323,329.97027189983055,1,4.178787199780345,None,329.97054910007864,329.9718431998044,329.9718550001271,329.97298489976674,,,,,,,,,,,,,,,,,,,,,,,,,,,,,,,,,,,,,,,,,,,,,,,,,,,1,2023-12-12_13h39.43.361,watkins1,2023.2.3,99.71680434810368,62,2023-12-12 13h39.51.087737 +0000,
,,,,,,,,,,,16,0,16,0,,,,,,,,,,,,,329.9797189999372,,,,,,,,,,329.97325100004673,330.47191930003464,,,3,1.3627696000039577,,,,,,,,,,,,None,None,,,,,,,,,,Telefon,rustikal,"['Telefon', 'rustikal']",restudy_diff,1,,,,,,329.973187699914,329.97322490019724,"['Kerze', 'Kette', 'Socke', 'Tasche', 'Ring', 'Lampe', 'Buch', 'Tasse', 'Schlüssel', 'Löffel', 'Blume', 'Würfel', 'Trommel', 'Bürste', 'Brille', 'Hammer', 'Telefon', 'Jacke', 'Vase', 'Kiste', 'Fahrrad', 'Flasche', 'Geige']",330.4719291999936,330.47448759991676,None,330.47460399987176,330.4770065001212,None,330.4771104999818,336.48301699990407,3,1.3627696000039577,None,336.4832925000228,336.48460379987955,336.4846157999709,336.4859438999556,,,,,,,,,,,,,,,,,,,,,,,,,,,,,,,,,,,,,,,,,,,,,,,,,,,1,2023-12-12_13h39.43.361,watkins1,2023.2.3,99.71680434810368,62,2023-12-12 13h39.51.087737 +0000,
,,,,,,,,,,,17,0,17,0,,,,,,,,,,,,,336.49248979985714,,,,,,,,,,336.4862099001184,336.9845048999414,,,3,1.4654703000560403,,,,,,,,,,,,None,None,,,,,,,,,,Jacke,matt,"['Jacke', 'matt']",restudy_diff,1,,,,,,336.48614520020783,336.48618379980326,"['Kerze', 'Kette', 'Socke', 'Tasche', 'Ring', 'Lampe', 'Buch', 'Tasse', 'Schlüssel', 'Löffel', 'Blume', 'Würfel', 'Trommel', 'Bürste', 'Brille', 'Hammer', 'Telefon', 'Jacke', 'Vase', 'Kiste', 'Fahrrad', 'Flasche', 'Geige']",336.98451610002667,336.9876945000142,None,336.9878123998642,336.9904160001315,None,336.99051890010014,342.99441879987717,3,1.4654703000560403,None,342.9946913998574,342.99596480000764,342.9959769998677,342.9971145000309,,,,,,,,,,,,,,,,,,,,,,,,,,,,,,,,,,,,,,,,,,,,,,,,,,,1,2023-12-12_13h39.43.361,watkins1,2023.2.3,99.71680434810368,62,2023-12-12 13h39.51.087737 +0000,
,,,,,,,,,,,18,0,18,0,,,,,,,,,,,,,343.0038486002013,,,,,,,,,,342.99738090019673,343.4960326999426,,,3,2.7713330001570284,,,,,,,,,,,,None,None,,,,,,,,,,Vase,lang,"['Vase', 'lang']",restudy_diff,1,,,,,,342.99731720006093,342.99735489999875,"['Kerze', 'Kette', 'Socke', 'Tasche', 'Ring', 'Lampe', 'Buch', 'Tasse', 'Schlüssel', 'Löffel', 'Blume', 'Würfel', 'Trommel', 'Bürste', 'Brille', 'Hammer', 'Telefon', 'Jacke', 'Vase', 'Kiste', 'Fahrrad', 'Flasche', 'Geige']",343.49604270001873,343.4984168000519,None,343.4985298002139,343.5007898998447,None,343.5008918000385,349.508103299886,3,2.7713330001570284,None,349.50837690010667,349.50953599996865,349.50954770017415,349.51058429991826,,,,,,,,,,,,,,,,,,,,,,,,,,,,,,,,,,,,,,,,,,,,,,,,,,,1,2023-12-12_13h39.43.361,watkins1,2023.2.3,99.71680434810368,62,2023-12-12 13h39.51.087737 +0000,
,,,,,,,,,,,19,0,19,0,,,,,,,,,,,,,349.51769049977884,,,,,,,,,,349.51084699993953,350.00954610016197,,,3,0.8559404001571238,,,,,,,,,,,,None,None,,,,,,,,,,Kiste,groß,"['Kiste', 'groß']",restudy_diff,1,,,,,,349.510784199927,349.5108213000931,"['Kerze', 'Kette', 'Socke', 'Tasche', 'Ring', 'Lampe', 'Buch', 'Tasse', 'Schlüssel', 'Löffel', 'Blume', 'Würfel', 'Trommel', 'Bürste', 'Brille', 'Hammer', 'Telefon', 'Jacke', 'Vase', 'Kiste', 'Fahrrad', 'Flasche', 'Geige']",350.0095584001392,350.01232919981703,None,350.0124487997964,350.014862800017,None,350.01496709976345,356.0245933001861,3,0.8559404001571238,None,356.0248690000735,356.0261673000641,356.0261792000383,356.0272181001492,,,,,,,,,,,,,,,,,,,,,,,,,,,,,,,,,,,,,,,,,,,,,,,,,,,1,2023-12-12_13h39.43.361,watkins1,2023.2.3,99.71680434810368,62,2023-12-12 13h39.51.087737 +0000,
,,,,,,,,,,,20,0,20,0,,,,,,,,,,,,,356.0340356999077,,,,,,,,,,356.0274827000685,356.5261118998751,,,3,1.1239835997112095,,,,,,,,,,,,None,None,,,,,,,,,,Fahrrad,robust,"['Fahrrad', 'robust']",restudy_diff,1,,,,,,356.02741729980335,356.0274551999755,"['Kerze', 'Kette', 'Socke', 'Tasche', 'Ring', 'Lampe', 'Buch', 'Tasse', 'Schlüssel', 'Löffel', 'Blume', 'Würfel', 'Trommel', 'Bürste', 'Brille', 'Hammer', 'Telefon', 'Jacke', 'Vase', 'Kiste', 'Fahrrad', 'Flasche', 'Geige']",356.52612259984016,356.6070743999444,None,356.6072256998159,356.6103098001331,None,356.6104366998188,362.61333000008017,3,1.1239835997112095,None,362.6136109000072,362.6149438000284,362.61495540011674,362.6161285000853,,,,,,,,,,,,,,,,,,,,,,,,,,,,,,,,,,,,,,,,,,,,,,,,,,,1,2023-12-12_13h39.43.361,watkins1,2023.2.3,99.71680434810368,62,2023-12-12 13h39.51.087737 +0000,
,,,,,,,,,,,21,0,21,0,,,,,,,,,,,,,362.62280040001497,,,,,,,,,,362.6163920997642,363.1148485997692,,,3,2.3749702000059187,,,,,,,,,,,,None,None,,,,,,,,,,Flasche,durchsichtig,"['Flasche', 'durchsichtig']",restudy_diff,1,,,,,,362.61632779985666,362.61636620014906,"['Kerze', 'Kette', 'Socke', 'Tasche', 'Ring', 'Lampe', 'Buch', 'Tasse', 'Schlüssel', 'Löffel', 'Blume', 'Würfel', 'Trommel', 'Bürste', 'Brille', 'Hammer', 'Telefon', 'Jacke', 'Vase', 'Kiste', 'Fahrrad', 'Flasche', 'Geige']",363.1148593998514,363.1177467000671,None,363.1178673999384,363.1204496999271,None,363.12055539991707,369.12562320008874,3,2.3749702000059187,None,369.12590850004926,369.1272702999413,369.1272820997983,369.1286003999412,,,,,,,,,,,,,,,,,,,,,,,,,,,,,,,,,,,,,,,,,,,,,,,,,,,1,2023-12-12_13h39.43.361,watkins1,2023.2.3,99.71680434810368,62,2023-12-12 13h39.51.087737 +0000,
,,,,,,,,,,,22,0,22,0,,,,,,,,,,,,,369.1350537999533,,,,,,,,,,369.1288711000234,369.62723009986803,,,[],[],,,,,,,,,,,,None,None,,,,,,,,,,Geige,flach,"['Geige', 'flach']",control,1,,,,,,369.1288057998754,369.1288435999304,"['Kerze', 'Kette', 'Socke', 'Tasche', 'Ring', 'Lampe', 'Buch', 'Tasse', 'Schlüssel', 'Löffel', 'Blume', 'Würfel', 'Trommel', 'Bürste', 'Brille', 'Hammer', 'Telefon', 'Jacke', 'Vase', 'Kiste', 'Fahrrad', 'Flasche', 'Geige']",369.6272411001846,375.62988490005955,3,375.63017849996686,375.6327960998751,None,375.6328997001983,375.6353688999079,None,,,375.6354697998613,375.63661050004885,375.6366221997887,375.63775449991226,3.1953018000349402,None,,,,,,,,,,,,,,,,,,,,,,,,,,,,,,,,,,,,,,,,,,,,,,,,,1,2023-12-12_13h39.43.361,watkins1,2023.2.3,99.71680434810368,62,2023-12-12 13h39.51.087737 +0000,
,,,,,,,,,,,,,,,,,,,,,,,,,,,,,,,,,,,,,,,,,,,,,,,,,,,,,,,,,,,,,,,,,,,,,1,,,,,,,,,,,,,,,,,,,,,,,,,,,,,,,,,,,,,,,,,,,,,,,,,,,,,,,,,,,,,,,,,,,,,,,,,,1,2023-12-12_13h39.43.361,watkins1,2023.2.3,99.71680434810368,62,2023-12-12 13h39.51.087737 +0000,
(25 : 5) + 5 = 9 ,Incorrect,button_incorrect,,,,,,,,,,,,,0,0,0,6,,,,,,,,,400.9478792999871,,,,,,,,399.9174930998124,400.92090409994125,,,,,['button_incorrect'],[3.8178285001777112],,,,,,,,,,,,,,,,,,,,,,,,,,distractorTask,1,,,,,,,,,,,,,,,,,,,,,,,,,,400.93704870017245,400.9478792999871,404.75929880002514,[-0.362962962962963],[-0.4027777777777778],[1],[0],[0],[3.8178285001777112],['button_incorrect'],404.7599798999727,405.76297269994393,,,,,,,,,,,,,,,,,,,,,,,,,,,,,,,,,,,,,1,2023-12-12_13h39.43.361,watkins1,2023.2.3,99.71680434810368,62,2023-12-12 13h39.51.087737 +0000,
(9 x 5) - 9 = 36 ,Correct,button_correct,,,,,,,,,,,,,0,1,1,4,,,,,,,,,405.7730037998408,,,,,,,,,,,,,,['button_incorrect'],[5.881243299692869],,,,,,,,,,,,,,,,,,,,,,,,,,distractorTask,1,,,,,,,,,,,,,,,,,,,,,,,,,,405.76317929988727,405.7730037998408,411.6478018001653,[-0.33796296296296297],[-0.37777777777777777],[1],[0],[0],[5.881243299692869],['button_incorrect'],411.64819010021165,412.65156379994005,,,,,,,,,,,,,,,,,,,,,,,,,,,,,,,,,,,,,1,2023-12-12_13h39.43.361,watkins1,2023.2.3,99.71680434810368,62,2023-12-12 13h39.51.087737 +0000,
(6 x 3) + 10 = 27 ,Incorrect,button_incorrect,,,,,,,,,,,,,0,2,2,8,,,,,,,,,412.6616262998432,,,,,,,,,,,,,,['button_incorrect'],[3.6325464001856744],,,,,,,,,,,,,,,,,,,,,,,,,,distractorTask,1,,,,,,,,,,,,,,,,,,,,,,,,,,412.65175969991833,412.6616262998432,416.2871705000289,[-0.32685185185185184],[-0.38333333333333336],[1],[0],[0],[3.6325464001856744],['button_incorrect'],416.2875550999306,417.29146800003946,,,,,,,,,,,,,,,,,,,,,,,,,,,,,,,,,,,,,1,2023-12-12_13h39.43.361,watkins1,2023.2.3,99.71680434810368,62,2023-12-12 13h39.51.087737 +0000,
(28 : 7) - 3 = 1 ,Correct,button_correct,,,,,,,,,,,,,0,3,3,0,,,,,,,,,417.3014257000759,,,,,,,,,,,,,,['button_incorrect'],[5.9319865996949375],,,,,,,,,,,,,,,,,,,,,,,,,,distractorTask,1,,,,,,,,,,,,,,,,,,,,,,,,,,417.2916582999751,417.3014257000759,423.2264371002093,[-0.3388888888888889],[-0.3888888888888889],[1],[0],[0],[5.9319865996949375],['button_incorrect'],423.2268249997869,424.23013490019366,,,,,,,,,,,,,,,,,,,,,,,,,,,,,,,,,,,,,1,2023-12-12_13h39.43.361,watkins1,2023.2.3,99.71680434810368,62,2023-12-12 13h39.51.087737 +0000,
(80 : 10) + 9 = 17 ,Correct,button_correct,,,,,,,,,,,,,0,4,4,3,,,,,,,,,424.24010050017387,,,,,,,,,,,,,,['button_correct'],[3.814268199726939],,,,,,,,,,,,,,,,,,,,,,,,,,distractorTask,1,,,,,,,,,,,,,,,,,,,,,,,,,,424.23032659990713,424.24010050017387,428.04659669985995,[0.2777777777777778],[-0.3861111111111111],[1],[0],[0],[3.814268199726939],['button_correct'],428.04698139987886,429.050350099802,,,,,,,,,,,,,,,,,,,,,,,,,,,,,,,,,,,,,1,2023-12-12_13h39.43.361,watkins1,2023.2.3,99.71680434810368,62,2023-12-12 13h39.51.087737 +0000,
(40 : 5) + 8 = 15 ,Incorrect,button_incorrect,,,,,,,,,,,,,0,5,5,7,,,,,,,,,429.06039390014485,,,,,,,,,,,,,,['button_correct'],[6.394046800211072],,,,,,,,,,,,,,,,,,,,,,,,,,distractorTask,1,,,,,,,,,,,,,,,,,,,,,,,,,,429.0506071001291,429.06039390014485,435.4471853999421,[0.2833333333333333],[-0.38333333333333336],[1],[0],[0],[6.394046800211072],['button_correct'],435.4475777000189,436.45095899980515,,,,,,,,,,,,,,,,,,,,,,,,,,,,,,,,,,,,,1,2023-12-12_13h39.43.361,watkins1,2023.2.3,99.71680434810368,62,2023-12-12 13h39.51.087737 +0000,
(4 : 2) + 4 = 6 ,Correct,button_correct,,,,,,,,,,,,,0,6,6,1,,,,,,,,,436.4610508000478,,,,,,,,,,,,,,['button_correct'],"[2.5590101997368038, 3.041056700050831]",,,,,,,,,,,,,,,,,,,,,,,,,,distractorTask,1,,,,,,,,,,,,,,,,,,,,,,,,,,436.45115600014105,436.4610508000478,439.49389990000054,"[0.275, 0.28703703703703703]","[-0.39166666666666666, -0.3907407407407407]","[1, 1]","[0, 0]","[0, 0]","[2.5590101997368038, 3.041056700050831]",['button_correct'],439.4943063999526,440.49776209983975,,,,,,,,,,,,,,,,,,,,,,,,,,,,,,,,,,,,,1,2023-12-12_13h39.43.361,watkins1,2023.2.3,99.71680434810368,62,2023-12-12 13h39.51.087737 +0000,
(7 x 6) + 9 = 48 ,Incorrect,button_incorrect,,,,,,,,,,,,,0,7,7,9,,,,,,,,,440.50773870013654,,,,,,,,,,,,,,['button_incorrect'],[10.642648899927735],,,,,,,,,,,,,,,,,,,,,,,,,,distractorTask,1,,,,,,,,,,,,,,,,,,,,,,,,,,440.4979522000067,440.50773870013654,451.1423182999715,[-0.29259259259259257],[-0.38425925925925924],[1],[0],[0],[10.642648899927735],['button_incorrect'],451.14269979996607,452.14589750021696,,,,,,,,,,,,,,,,,,,,,,,,,,,,,,,,,,,,,1,2023-12-12_13h39.43.361,watkins1,2023.2.3,99.71680434810368,62,2023-12-12 13h39.51.087737 +0000,
(2 x 5) + 3 = 13 ,Correct,button_correct,,,,,,,,,,,,,0,8,8,2,,,,,,,,,452.15588690014556,,,,,,,,,,,,,,['button_correct'],[3.28233620012179],,,,,,,,,,,,,,,,,,,,,,,,,,distractorTask,1,,,,,,,,,,,,,,,,,,,,,,,,,,452.1460923999548,452.15588690014556,455.43030110001564,[0.3537037037037037],[-0.3962962962962963],[1],[0],[0],[3.28233620012179],['button_correct'],455.4306823001243,456.4340857998468,,,,,,,,,,,,,,,,,,,,,,,,,,,,,,,,,,,,,1,2023-12-12_13h39.43.361,watkins1,2023.2.3,99.71680434810368,62,2023-12-12 13h39.51.087737 +0000,
(54 : 6) - 10 = 0 ,Incorrect,button_incorrect,,,,,,,,,,,,,0,9,9,5,,,,,,,,,456.4440733999945,,,,,,,,,,,,,,['button_incorrect'],[11.958565299864858],,,,,,,,,,,,,,,,,,,,,,,,,,distractorTask,1,,,,,,,,,,,,,,,,,,,,,,,,,,456.4342836998403,456.4440733999945,468.3945888997987,[-0.3425925925925926],[-0.3851851851851852],[1],[0],[0],[11.958565299864858],['button_incorrect'],468.39497319981456,469.39848960004747,,,,,,,,,,,,,,,,,,,,,,,,,,,,,,,,,,,,,1,2023-12-12_13h39.43.361,watkins1,2023.2.3,99.71680434810368,62,2023-12-12 13h39.51.087737 +0000,
,,,,,,,,,,,,,,,,,,,,,,,,,,,,,,,,,,,,,,,,,,,,,,,,,,,,,,,,,,,,,,,,,,,,,1,,,,,,,,,,,,,,,,,,,,,,,,,,,,,,,,,,,,,,,,,,,,,,,,,,,,,,,,,,,,,,,,,,,,,,,,,,1,2023-12-12_13h39.43.361,watkins1,2023.2.3,99.71680434810368,62,2023-12-12 13h39.51.087737 +0000,
,,,,,,,,,,,,,,,,,,,0,0,0,0,,,,,494.15013429988176,,,,,,,,,,,,,,Geige,7.597998300101608,,,,,,,,,,,,5.008022400084883,None,,,,,,,,,,,,,freeRecallSub,1,,,,,,,,,,,,,,,,,,,,,,,,,,,,,,,,,,,,,,494.1412450000644,494.15013429988176,494.15013429988176,501.751291600056,return,7.597998300101608,None,Geige,"[0.032407407407407406, 0.10925925925925926]","[0.041666666666666664, 0.04537037037037037]","[1, 1]","[0, 0]","[0, 0]","[1.5756931998766959, 3.141962899826467]",[],,,,,,,,,,,,,,,,,,,,,,1,2023-12-12_13h39.43.361,watkins1,2023.2.3,99.71680434810368,62,2023-12-12 13h39.51.087737 +0000,
,,,,,,,,,,,,,,,,,,,1,0,1,0,,,,,501.7633819999173,,,,,,,,,,,,,,Fahrrad,4.200751699972898,,,,,,,,,,,,0.9958425001241267,None,,,,,,,,,,,,,freeRecallSub,1,,,,,,,,,,,,,,,,,,,,,,,,,,,,,,,,,,,,,,501.75313000008464,501.7633819999173,501.7633819999173,505.9726239000447,return,4.200751699972898,None,Fahrrad,[],[],[],[],[],[],[],,,,,,,,,,,,,,,,,,,,,,1,2023-12-12_13h39.43.361,watkins1,2023.2.3,99.71680434810368,62,2023-12-12 13h39.51.087737 +0000,
,,,,,,,,,,,,,,,,,,,2,0,2,0,,,,,505.9835215997882,,,,,,,,,,,,,,Vase,3.740530699957162,,,,,,,,,,,,2.3197289002127945,None,,,,,,,,,,,,,freeRecallSub,1,,,,,,,,,,,,,,,,,,,,,,,,,,,,,,,,,,,,,,505.97389149991795,505.9835215997882,505.9835215997882,509.72971590003,return,3.740530699957162,None,Vase,[],[],[],[],[],[],[],,,,,,,,,,,,,,,,,,,,,,1,2023-12-12_13h39.43.361,watkins1,2023.2.3,99.71680434810368,62,2023-12-12 13h39.51.087737 +0000,
,,,,,,,,,,,,,,,,,,,3,0,3,0,,,,,509.7402360001579,,,,,,,,,,,,,,Kiste,5.8238537004217505,,,,,,,,,,,,3.8357653999701142,None,,,,,,,,,,,,,freeRecallSub,1,,,,,,,,,,,,,,,,,,,,,,,,,,,,,,,,,,,,,,509.73098549991846,509.7402360001579,509.7402360001579,515.5655482001603,return,5.8238537004217505,None,Kiste,[],[],[],[],[],[],[],,,,,,,,,,,,,,,,,,,,,,1,2023-12-12_13h39.43.361,watkins1,2023.2.3,99.71680434810368,62,2023-12-12 13h39.51.087737 +0000,
,,,,,,,,,,,,,,,,,,,4,0,4,0,,,,,515.5766659998335,,,,,,,,,,,,,,Tasse,3.4273228999227285,,,,,,,,,,,,0.7136302995495498,None,,,,,,,,,,,,,freeRecallSub,1,,,,,,,,,,,,,,,,,,,,,,,,,,,,,,,,,,,,,,515.5668162000366,515.5766659998335,515.5766659998335,519.0116808000021,return,3.4273228999227285,None,Tasse,[],[],[],[],[],[],[],,,,,,,,,,,,,,,,,,,,,,1,2023-12-12_13h39.43.361,watkins1,2023.2.3,99.71680434810368,62,2023-12-12 13h39.51.087737 +0000,
,,,,,,,,,,,,,,,,,,,5,0,5,0,,,,,519.0226147999056,,,,,,,,,,,,,,Socke,17.98935650009662,,,,,,,,,,,,16.05696259997785,None,,,,,,,,,,,,,freeRecallSub,1,,,,,,,,,,,,,,,,,,,,,,,,,,,,,,,,,,,,,,519.0129463998601,519.0226147999056,519.0226147999056,537.0180831002071,return,17.98935650009662,None,Socke,[],[],[],[],[],[],[],,,,,,,,,,,,,,,,,,,,,,1,2023-12-12_13h39.43.361,watkins1,2023.2.3,99.71680434810368,62,2023-12-12 13h39.51.087737 +0000,
,,,,,,,,,,,,,,,,,,,6,0,6,0,,,,,537.0297463000752,,,,,,,,,,,,,,Kerze,21.174279500264674,,,,,,,,,,,,19.582235799636692,None,,,,,,,,,,,,,freeRecallSub,1,,,,,,,,,,,,,,,,,,,,,,,,,,,,,,,,,,,,,,537.0193560998887,537.0297463000752,537.0297463000752,558.2084190999158,return,21.174279500264674,None,Kerze,[],[],[],[],[],[],[],,,,,,,,,,,,,,,,,,,,,,1,2023-12-12_13h39.43.361,watkins1,2023.2.3,99.71680434810368,62,2023-12-12 13h39.51.087737 +0000,
,,,,,,,,,,,,,,,,,,,7,0,7,0,,,,,558.2194246998988,,,,,,,,,,,,,,Trommel,22.88059759978205,,,,,,,,,,,,20.66675530001521,None,,,,,,,,,,,,,freeRecallSub,1,,,,,,,,,,,,,,,,,,,,,,,,,,,,,,,,,,,,,,558.2096739998087,558.2194246998988,558.2194246998988,581.1060057999566,return,22.88059759978205,None,Trommel,[],[],[],[],[],[],[],,,,,,,,,,,,,,,,,,,,,,1,2023-12-12_13h39.43.361,watkins1,2023.2.3,99.71680434810368,62,2023-12-12 13h39.51.087737 +0000,
,,,,,,,,,,,,,,,,,,,8,0,8,0,,,,,581.1180302998982,,,,,,,,,,,,,,,[],,,,,,,,,,,,None,None,,,,,,,,,,,,,freeRecallSub,1,,,,,,,,,,,,,,,,,,,,,,,,,,,,,,,,,,,,,,581.1072840001434,581.1180302998982,581.1180302998982,636.3685356997885,None,,,,[0.28425925925925927],[-0.4083333333333333],[1],[0],[0],[55.256777399685234],"['button_continue', 'continue_text']",,,,,,,,,,,,,,,,,,,,,,1,2023-12-12_13h39.43.361,watkins1,2023.2.3,99.71680434810368,62,2023-12-12 13h39.51.087737 +0000,
,,,,,,,,,,,,,,,,,,,,,,,,,,,,,,,,,,,,,,,,,,,,,,,,,,,,,,,,,,,,,,,,,,,,,1,,,,,,,,,,,,,,,,,,,,,,,,,,,,,,,,,,,,,,,,,,,,,,,,,,,,,,,,,,,,,,,,,,,,,,,,,,1,2023-12-12_13h39.43.361,watkins1,2023.2.3,99.71680434810368,62,2023-12-12 13h39.51.087737 +0000,
,,,,,,,,,,,,,,,,,,,,,,,0,0,0,0,649.206759000197,,,,,,,,,,674.1656785998493,674.6638433001935,,,,24.949167900253087,,,,,,,,,,,,None,None,,,,,,,,,,Bürste,,,cuedRecallAdj,1,,,,,,,,,,,,,,,,,,,,,,,,,,,,,,,,,,,,,,,,,,,,,,,,,,,,,649.1975599001162,649.206759000197,0,649.206759000197,674.1624398999847,schmutzig,return,24.949167900253087,None,674.1628323001787,674.171953199897,674.171953199897,674.1655287998728,,None,,,,,,,1,2023-12-12_13h39.43.361,watkins1,2023.2.3,99.71680434810368,62,2023-12-12 13h39.51.087737 +0000,
,,,,,,,,,,,,,,,,,,,,,,,1,0,1,0,674.6737286997959,,,,,,,,,,722.947018600069,723.4388152998872,,,,6.682051699608564,,,,,,,,,,,,41.58376509975642,None,,,,,,,,,,Blume,,,cuedRecallAdj,1,,,,,,,,,,,,,,,,,,,,,,,,,,,,,,,,,,,,,,,,,,,,,,,,,,,,,674.6640959000215,674.6737286997959,0,674.6737286997959,681.3621335998178,lustig,return,6.682051699608564,None,681.3623978001997,681.3716762000695,681.3716762000695,722.9466633000411,,return,41.56815339997411,None,,,,,1,2023-12-12_13h39.43.361,watkins1,2023.2.3,99.71680434810368,62,2023-12-12 13h39.51.087737 +0000,
,,,,,,,,,,,,,,,,,,,,,,,2,0,2,0,723.4487637002021,,,,,,,,,,738.2209359998815,738.7123027001508,,,winzig,7.331026599742472,,,,,,,,,,,,2.389448800124228,None,,,,,,,,,,Kerze,,,cuedRecallAdj,1,,,,,,,,,,,,,,,,,,,,,,,,,,,,,,,,,,,,,,,,,,,,,,,,,,,,,723.4390556998551,723.4487637002021,0,723.4487637002021,730.789257499855,hohl,return,7.331026599742472,None,730.7895206999965,730.7990824999288,730.7990824999288,738.2206724002026,winzig,return,7.420699399895966,None,,,,,1,2023-12-12_13h39.43.361,watkins1,2023.2.3,99.71680434810368,62,2023-12-12 13h39.51.087737 +0000,
,,,,,,,,,,,,,,,,,,,,,,,3,0,3,0,738.7222535000183,,,,,,,,,,767.8862363002263,768.3776842998341,,,,3.09749409975484,,,,,,,,,,,,26.059497999958694,None,,,,,,,,,,Fahrrad,,,cuedRecallAdj,1,,,,,,,,,,,,,,,,,,,,,,,,,,,,,,,,,,,,,,,,,,,,,,,,,,,,,738.7125367000699,738.7222535000183,0,738.7222535000183,741.8259227001108,nass,return,3.09749409975484,None,741.826186100021,741.8355485000648,741.8355485000648,767.8859724998474,,return,26.040366700384766,None,,,,,1,2023-12-12_13h39.43.361,watkins1,2023.2.3,99.71680434810368,62,2023-12-12 13h39.51.087737 +0000,
,,,,,,,,,,,,,,,,,,,,,,,4,0,4,0,768.3877387000248,,,,,,,,,,778.1613595997915,778.6600108998828,,,,9.76806729985401,,,,,,,,,,,,None,None,,,,,,,,,,Buch,,,cuedRecallAdj,1,,,,,,,,,,,,,,,,,,,,,,,,,,,,,,,,,,,,,,,,,,,,,,,,,,,,,768.3779172999784,768.3877387000248,0,768.3877387000248,778.1584243997931,flauschig,return,9.76806729985401,None,778.1586871999316,778.1679463000037,778.1679463000037,778.1612587999552,,None,,,,,,,1,2023-12-12_13h39.43.361,watkins1,2023.2.3,99.71680434810368,62,2023-12-12 13h39.51.087737 +0000,
,,,,,,,,,,,,,,,,,,,,,,,5,0,5,0,778.6699518999085,,,,,,,,,,780.9829211002216,781.4815980000421,,,,2.3018843000754714,,,,,,,,,,,,None,None,,,,,,,,,,Eimer,,,cuedRecallAdj,1,,,,,,,,,,,,,,,,,,,,,,,,,,,,,,,,,,,,,,,,,,,,,,,,,,,,,778.6602505999617,778.6699518999085,0,778.6699518999085,780.9798371000215,neu,return,2.3018843000754714,None,780.9801044999622,780.9895770000294,780.9895770000294,780.9828198999166,,None,,,,,,,1,2023-12-12_13h39.43.361,watkins1,2023.2.3,99.71680434810368,62,2023-12-12 13h39.51.087737 +0000,
,,,,,,,,,,,,,,,,,,,,,,,6,0,6,0,781.4915499999188,,,,,,,,,,788.5715183001012,789.0635307999328,,,glatt,5.2722525000572205,,,,,,,,,,,,0.2807887000963092,None,,,,,,,,,,Trommel,,,cuedRecallAdj,1,,,,,,,,,,,,,,,,,,,,,,,,,,,,,,,,,,,,,,,,,,,,,,,,,,,,,781.4818397997878,781.4915499999188,0,781.4915499999188,786.773638300132,praktisch,return,5.2722525000572205,None,786.7739006998017,786.7834617001936,786.7834617001936,788.5712530999444,glatt,return,1.7803408997133374,None,,,,,1,2023-12-12_13h39.43.361,watkins1,2023.2.3,99.71680434810368,62,2023-12-12 13h39.51.087737 +0000,
,,,,,,,,,,,,,,,,,,,,,,,7,0,7,0,789.0734843998216,,,,,,,,,,803.7063131998293,804.1974578001536,,,,7.850212000310421,,,,,,,,,,,,6.77723819995299,None,,,,,,,,,,Hammer,,,cuedRecallAdj,1,,,,,,,,,,,,,,,,,,,,,,,,,,,,,,,,,,,,,,,,,,,,,,,,,,,,,789.0637803999707,789.0734843998216,0,789.0734843998216,796.9280782002024,sanft,return,7.850212000310421,None,796.9283436001278,796.9376043998636,796.9376043998636,803.706048199907,,return,6.762107599992305,None,,,,,1,2023-12-12_13h39.43.361,watkins1,2023.2.3,99.71680434810368,62,2023-12-12 13h39.51.087737 +0000,
,,,,,,,,,,,,,,,,,,,,,,,8,0,8,0,804.2073825001717,,,,,,,,,,808.5187205998227,809.0175435999408,,,,4.300445199944079,,,,,,,,,,,,None,None,,,,,,,,,,Kamera,,,cuedRecallAdj,1,,,,,,,,,,,,,,,,,,,,,,,,,,,,,,,,,,,,,,,,,,,,,,,,,,,,,804.1977053000592,804.2073825001717,0,804.2073825001717,808.5157404001802,schön,return,4.300445199944079,None,808.5160003001802,808.5254126000218,808.5254126000218,808.5186176002026,,None,,,,,,,1,2023-12-12_13h39.43.361,watkins1,2023.2.3,99.71680434810368,62,2023-12-12 13h39.51.087737 +0000,
,,,,,,,,,,,,,,,,,,,,,,,9,0,9,0,809.0275459000841,,,,,,,,,,812.8677900000475,813.3663045000285,,,,3.832296200096607,,,,,,,,,,,,None,None,,,,,,,,,,Schere,,,cuedRecallAdj,1,,,,,,,,,,,,,,,,,,,,,,,,,,,,,,,,,,,,,,,,,,,,,,,,,,,,,809.0177890998311,809.0275459000841,0,809.0275459000841,812.8647198998369,glänzend,return,3.832296200096607,None,812.8649858999997,812.874237400014,812.874237400014,812.8676884002052,,None,,,,,,,1,2023-12-12_13h39.43.361,watkins1,2023.2.3,99.71680434810368,62,2023-12-12 13h39.51.087737 +0000,
,,,,,,,,,,,,,,,,,,,,,,,10,0,10,0,813.3762473999523,,,,,,,,,,818.7017351998948,819.2008214001544,,,,5.315464000217617,,,,,,,,,,,,None,None,,,,,,,,,,Uhr,,,cuedRecallAdj,1,,,,,,,,,,,,,,,,,,,,,,,,,,,,,,,,,,,,,,,,,,,,,,,,,,,,,813.3665462001227,813.3762473999523,0,813.3762473999523,818.6988087999634,gepunktet,return,5.315464000217617,None,818.6990674999543,818.7084273998626,818.7084273998626,818.7016361998394,,None,,,,,,,1,2023-12-12_13h39.43.361,watkins1,2023.2.3,99.71680434810368,62,2023-12-12 13h39.51.087737 +0000,
,,,,,,,,,,,,,,,,,,,,,,,11,0,11,0,819.2106726998463,,,,,,,,,,846.114901300054,846.6061027999967,,,gross,5.449000600259751,,,,,,,,,,,,0.7923353998921812,None,,,,,,,,,,Kiste,,,cuedRecallAdj,1,,,,,,,,,,,,,,,,,,,,,,,,,,,,,,,,,,,,,,,,,,,,,,,,,,,,,819.2010615998879,819.2106726998463,0,819.2106726998463,824.664980399888,sauber,return,5.449000600259751,None,824.6652457001619,824.6745262998156,824.6745262998156,846.1146366000175,gross,return,21.433182200416923,None,,,,,1,2023-12-12_13h39.43.361,watkins1,2023.2.3,99.71680434810368,62,2023-12-12 13h39.51.087737 +0000,
,,,,,,,,,,,,,,,,,,,,,,,12,0,12,0,846.616018500179,,,,,,,,,,862.733798599802,863.2251144000329,,,,8.147628499660641,,,,,,,,,,,,7.962466899771243,None,,,,,,,,,,Jacke,,,cuedRecallAdj,1,,,,,,,,,,,,,,,,,,,,,,,,,,,,,,,,,,,,,,,,,,,,,,,,,,,,,846.606343400199,846.616018500179,0,846.616018500179,854.770313499961,elegant,return,8.147628499660641,None,854.7705792998895,854.7799064000137,854.7799064000137,862.7335312999785,,return,7.951750599779189,None,,,,,1,2023-12-12_13h39.43.361,watkins1,2023.2.3,99.71680434810368,62,2023-12-12 13h39.51.087737 +0000,
,,,,,,,,,,,,,,,,,,,,,,,13,0,13,0,863.2350229998119,,,,,,,,,,873.50823580008,873.9996267999522,,,durchsichtig,6.3047091998159885,,,,,,,,,,,,0.7522702002897859,None,,,,,,,,,,Flasche,,,cuedRecallAdj,1,,,,,,,,,,,,,,,,,,,,,,,,,,,,,,,,,,,,,,,,,,,,,,,,,,,,,863.2253608000465,863.2350229998119,0,863.2350229998119,869.5418461998925,schmutzig,return,6.3047091998159885,None,869.542130399961,869.5513606001623,869.5513606001623,873.5079573001713,durchsichtig,return,3.9482160001061857,None,,,,,1,2023-12-12_13h39.43.361,watkins1,2023.2.3,99.71680434810368,62,2023-12-12 13h39.51.087737 +0000,
,,,,,,,,,,,,,,,,,,,,,,,14,0,14,0,874.0096788001247,,,,,,,,,,887.8281447999179,888.3196550998837,,,,8.841953000053763,,,,,,,,,,,,4.970123999752104,None,,,,,,,,,,Löffel,,,cuedRecallAdj,1,,,,,,,,,,,,,,,,,,,,,,,,,,,,,,,,,,,,,,,,,,,,,,,,,,,,,873.9998682998121,874.0096788001247,0,874.0096788001247,882.8572072000243,niedlich,return,8.841953000053763,None,882.8574719000608,882.8668750999495,882.8668750999495,887.8278851998039,,return,4.95275150006637,None,,,,,1,2023-12-12_13h39.43.361,watkins1,2023.2.3,99.71680434810368,62,2023-12-12 13h39.51.087737 +0000,
,,,,,,,,,,,,,,,,,,,,,,,15,0,15,0,888.329554699827,,,,,,,,,,910.0317207998596,910.5230581997894,,,,11.082079399842769,,,,,,,,,,,,10.613621599972248,None,,,,,,,,,,Tasse,,,cuedRecallAdj,1,,,,,,,,,,,,,,,,,,,,,,,,,,,,,,,,,,,,,,,,,,,,,,,,,,,,,888.3198973000981,888.329554699827,0,888.329554699827,899.4171008002013,bunt,return,11.082079399842769,None,899.4173709000461,899.4266587002203,899.4266587002203,910.0314532001503,,return,10.600982799660414,None,,,,,1,2023-12-12_13h39.43.361,watkins1,2023.2.3,99.71680434810368,62,2023-12-12 13h39.51.087737 +0000,
,,,,,,,,,,,,,,,,,,,,,,,16,0,16,0,910.5330063002184,,,,,,,,,,926.1791234998964,926.6706662001088,,,,9.998532500118017,,,,,,,,,,,,5.643508799839765,None,,,,,,,,,,Telefon,,,cuedRecallAdj,1,,,,,,,,,,,,,,,,,,,,,,,,,,,,,,,,,,,,,,,,,,,,,,,,,,,,,910.5233009997755,910.5330063002184,0,910.5330063002184,920.5345471999608,nachhaltig,return,9.998532500118017,None,920.5348167000338,920.5440173000097,920.5440173000097,926.178839399945,,return,5.627605400048196,None,,,,,1,2023-12-12_13h39.43.361,watkins1,2023.2.3,99.71680434810368,62,2023-12-12 13h39.51.087737 +0000,
,,,,,,,,,,,,,,,,,,,,,,,17,0,17,0,926.6804637000896,,,,,,,,,,940.3305607000366,940.8289884999394,,,,13.643154200166464,,,,,,,,,,,,None,None,,,,,,,,,,Geige,,,cuedRecallAdj,1,,,,,,,,,,,,,,,,,,,,,,,,,,,,,,,,,,,,,,,,,,,,,,,,,,,,,926.670937300194,926.6804637000896,0,926.6804637000896,940.327467800118,flach,return,13.643154200166464,None,940.3277316000313,940.3370802002028,940.3370802002028,940.330459299963,,None,,,,,,,1,2023-12-12_13h39.43.361,watkins1,2023.2.3,99.71680434810368,62,2023-12-12 13h39.51.087737 +0000,
,,,,,,,,,,,,,,,,,,,,,,,18,0,18,0,940.838925700169,,,,,,,,,,945.4490956999362,945.94050219981,,,,3.6367496997117996,,,,,,,,,,,,0.9635443002916873,None,,,,,,,,,,Kette,,,cuedRecallAdj,1,,,,,,,,,,,,,,,,,,,,,,,,,,,,,,,,,,,,,,,,,,,,,,,,,,,,,940.8292414997704,940.838925700169,0,940.838925700169,944.4845766001381,schief,return,3.6367496997117996,None,944.4848453998566,944.4942578999326,944.4942578999326,945.4488309998997,,return,0.9494179002940655,None,,,,,1,2023-12-12_13h39.43.361,watkins1,2023.2.3,99.71680434810368,62,2023-12-12 13h39.51.087737 +0000,
,,,,,,,,,,,,,,,,,,,,,,,19,0,19,0,945.950465799775,,,,,,,,,,949.7795568997972,950.2783443001099,,,,3.821064400020987,,,,,,,,,,,,None,None,,,,,,,,,,Hut,,,cuedRecallAdj,1,,,,,,,,,,,,,,,,,,,,,,,,,,,,,,,,,,,,,,,,,,,,,,,,,,,,,945.9407474999316,945.950465799775,0,945.950465799775,949.7766907000914,biegsam,return,3.821064400020987,None,949.7769519998692,949.7862788001075,949.7862788001075,949.7794571002014,,None,,,,,,,1,2023-12-12_13h39.43.361,watkins1,2023.2.3,99.71680434810368,62,2023-12-12 13h39.51.087737 +0000,
,,,,,,,,,,,,,,,,,,,,,,,20,0,20,0,950.2883402002044,,,,,,,,,,955.4705886999145,955.961795500014,,,,2.7952157999388874,,,,,,,,,,,,2.379101200029254,None,,,,,,,,,,Socke,,,cuedRecallAdj,1,,,,,,,,,,,,,,,,,,,,,,,,,,,,,,,,,,,,,,,,,,,,,,,,,,,,,950.27858929988,950.2883402002044,0,950.2883402002044,953.0905078998767,klobig,return,2.7952157999388874,None,953.0907753999345,953.1000620000996,953.1000620000996,955.470320600085,,return,2.3674916001036763,None,,,,,1,2023-12-12_13h39.43.361,watkins1,2023.2.3,99.71680434810368,62,2023-12-12 13h39.51.087737 +0000,
,,,,,,,,,,,,,,,,,,,,,,,21,0,21,0,955.9717019000091,,,,,,,,,,963.6372213000432,964.1360162999481,,,,7.655825300142169,,,,,,,,,,,,None,None,,,,,,,,,,Tasche,,,cuedRecallAdj,1,,,,,,,,,,,,,,,,,,,,,,,,,,,,,,,,,,,,,,,,,,,,,,,,,,,,,955.9620388001204,955.9717019000091,0,955.9717019000091,963.6343880998902,,return,7.655825300142169,None,963.6346705001779,963.6440163999796,963.6440163999796,963.6371216000989,,None,,,,,,,1,2023-12-12_13h39.43.361,watkins1,2023.2.3,99.71680434810368,62,2023-12-12 13h39.51.087737 +0000,
,,,,,,,,,,,,,,,,,,,,,,,22,0,22,0,964.1460678000003,,,,,,,,,,974.5011160997674,974.9909239001572,,,,10.345458299852908,,,,,,,,,,,,None,None,,,,,,,,,,Stift,,,cuedRecallAdj,1,,,,,,,,,,,,,,,,,,,,,,,,,,,,,,,,,,,,,,,,,,,,,,,,,,,,,964.1362637002021,964.1460678000003,0,964.1460678000003,974.4990093000233,,return,10.345458299852908,None,974.4992741998285,974.5088299000636,974.5088299000636,974.5010130000301,,None,,,,,,,1,2023-12-12_13h39.43.361,watkins1,2023.2.3,99.71680434810368,62,2023-12-12 13h39.51.087737 +0000,
,,,,,,,,,,,,,,,,,,,,,,,23,0,23,0,975.0008658999577,,,,,,,,,,988.2663241000846,988.7578965998255,,,,3.9707263000309467,,,,,,,,,,,,9.28762839967385,None,,,,,,,,,,Brille,,,cuedRecallAdj,1,,,,,,,,,,,,,,,,,,,,,,,,,,,,,,,,,,,,,,,,,,,,,,,,,,,,,974.9911684999242,975.0008658999577,0,975.0008658999577,978.9776821001433,glänzend,return,3.9707263000309467,None,978.9779444001615,978.9873307999223,978.9873307999223,988.2660538000055,,return,9.272187200374901,None,,,,,1,2023-12-12_13h39.43.361,watkins1,2023.2.3,99.71680434810368,62,2023-12-12 13h39.51.087737 +0000,
,,,,,,,,,,,,,,,,,,,,,,,24,0,24,0,988.767860900145,,,,,,,,,,994.6759792999364,995.1744671999477,,,,5.899686600081623,,,,,,,,,,,,None,None,,,,,,,,,,Würfel,,,cuedRecallAdj,1,,,,,,,,,,,,,,,,,,,,,,,,,,,,,,,,,,,,,,,,,,,,,,,,,,,,,988.7581333997659,988.767860900145,0,988.767860900145,994.6727939001285,klein,return,5.899686600081623,None,994.6730688000098,994.6823406000622,994.6823406000622,994.6758774002083,,None,,,,,,,1,2023-12-12_13h39.43.361,watkins1,2023.2.3,99.71680434810368,62,2023-12-12 13h39.51.087737 +0000,
,,,,,,,,,,,,,,,,,,,,,,,25,0,25,0,995.1844171998091,,,,,,,,,,999.7264840002172,1000.2251977999695,,,,4.531176399905235,,,,,,,,,,,,None,None,,,,,,,,,,Schlüssel,,,cuedRecallAdj,1,,,,,,,,,,,,,,,,,,,,,,,,,,,,,,,,,,,,,,,,,,,,,,,,,,,,,995.174710100051,995.1844171998091,0,995.1844171998091,999.7233552001417,kratzig,return,4.531176399905235,None,999.7236215001903,999.7331635998562,999.7331635998562,999.7263821000233,,None,,,,,,,1,2023-12-12_13h39.43.361,watkins1,2023.2.3,99.71680434810368,62,2023-12-12 13h39.51.087737 +0000,
,,,,,,,,,,,,,,,,,,,,,,,26,0,26,0,1000.2351454999298,,,,,,,,,,1003.1603024997748,1003.6592661999166,,,,2.9123722999356687,,,,,,,,,,,,None,None,,,,,,,,,,Ring,,,cuedRecallAdj,1,,,,,,,,,,,,,,,,,,,,,,,,,,,,,,,,,,,,,,,,,,,,,,,,,,,,,1000.2254403000697,1000.2351454999298,0,1000.2351454999298,1003.157448399812,breit,return,2.9123722999356687,None,1003.1577115999535,1003.1671662000008,1003.1671662000008,1003.1602007001638,,None,,,,,,,1,2023-12-12_13h39.43.361,watkins1,2023.2.3,99.71680434810368,62,2023-12-12 13h39.51.087737 +0000,
,,,,,,,,,,,,,,,,,,,,,,,27,0,27,0,1003.6692083999515,,,,,,,,,,1019.585900099948,1020.0774655002169,,,hoch,3.926545000169426,,,,,,,,,,,,1.565439300145954,None,,,,,,,,,,Vase,,,cuedRecallAdj,1,,,,,,,,,,,,,,,,,,,,,,,,,,,,,,,,,,,,,,,,,,,,,,,,,,,,,1003.659502599854,1003.6692083999515,0,1003.6692083999515,1007.596179000102,matt,return,3.926545000169426,None,1007.5964605999179,1007.6055176001973,1007.6055176001973,1019.5856300001033,hoch,return,11.973924700170755,None,,,,,1,2023-12-12_13h39.43.361,watkins1,2023.2.3,99.71680434810368,62,2023-12-12 13h39.51.087737 +0000,
,,,,,,,,,,,,,,,,,,,,,,,28,0,28,0,1020.0874132998288,,,,,,,,,,1028.1258888999,1028.624103799928,,,,8.028154900297523,,,,,,,,,,,,None,None,,,,,,,,,,Rucksack,,,cuedRecallAdj,1,,,,,,,,,,,,,,,,,,,,,,,,,,,,,,,,,,,,,,,,,,,,,,,,,,,,,1020.077709000092,1020.0874132998288,0,1020.0874132998288,1028.122638199944,gross,return,8.028154900297523,None,1028.1228991001844,1028.1321771000512,1028.1321771000512,1028.125789700076,,None,,,,,,,1,2023-12-12_13h39.43.361,watkins1,2023.2.3,99.71680434810368,62,2023-12-12 13h39.51.087737 +0000,
,,,,,,,,,,,,,,,,,,,,,,,29,0,29,0,1028.6341626001522,,,,,,,,,,1035.4960070000961,1035.9945422997698,,,,6.857313000131398,,,,,,,,,,,,None,None,,,,,,,,,,Lampe,,,cuedRecallAdj,1,,,,,,,,,,,,,,,,,,,,,,,,,,,,,,,,,,,,,,,,,,,,,,,,,,,,,1028.6243471000344,1028.6341626001522,0,1028.6341626001522,1035.4929685997777,sportlich,return,6.857313000131398,None,1035.4932317999192,1035.5025078998879,1035.5025078998879,1035.4959069001488,,None,,,,,,,1,2023-12-12_13h39.43.361,watkins1,2023.2.3,99.71680434810368,62,2023-12-12 13h39.51.087737 +0000,
,,,,,,,,,,,,,,,,,,,,,,,,,,,,,,,,,,,,,,,,,,,,,,,,,,,,,,,,,,,,,,,,,,,,,1,,,,,,,,,,,,,,,,,,,,,,,,,,,,,,,,,,,,,,,,,,,,,,,,,,,,,,,,,,,,,,,,,,,,,,1036.0110553000122,q,575.0078491996974,None,1,2023-12-12_13h39.43.361,watkins1,2023.2.3,99.71680434810368,62,2023-12-12 13h39.51.087737 +0000,
