Equation,CorrectResponse,Correctbutton,trials_7.thisRepN,trials_7.thisTrialN,trials_7.thisN,trials_7.thisIndex,trials.thisRepN,trials.thisTrialN,trials.thisN,trials.thisIndex,trials_3.thisRepN,trials_3.thisTrialN,trials_3.thisN,trials_3.thisIndex,trials_2.thisRepN,trials_2.thisTrialN,trials_2.thisN,trials_2.thisIndex,trials_4.thisRepN,trials_4.thisTrialN,trials_4.thisN,trials_4.thisIndex,trials_5.thisRepN,trials_5.thisTrialN,trials_5.thisN,trials_5.thisIndex,thisRow.t,notes,list_sub_restudy,list_sub_testsub,code_marius.started,code_marius.stopped,welcome.started,welcome.stopped,instruction_study.started,instruction_study.stopped,fixationcross.started,fixationcross.stopped,blanc.started,blanc.stopped,study_control_probe.started,study_control_probe.stopped,responseKey,responseTime,scale_answer_2.keys,study_control_probe_2.started,study_control_probe_2.stopped,scale_answer_3.keys,scale_answer_3.rt,scale_answer_3.duration,blanc_2.started,blanc_2.stopped,test_attr_probe.started,test_attr_probe.stopped,recalled_attr,firstKeyTime,secondWordTime,blanc_3.started,blanc_3.stopped,test_sub_probe.started,test_sub_probe.stopped,recalled_sub,instruction_probe_end.started,instruction_probe_end.stopped,study.started,study.stopped,substantive,adjective,wordpair,task,condition,liste_sub_phase1,liste_adj_phase1,scale_answer.keys,scale_answer.rt,scale_answer.duration,code_defineWordsInit.started,code_defineWordsInit.stopped,liste_sub_phase2,study_control.started,study_control.stopped,scale_answer_4.keys,restudy_same.started,restudy_same.stopped,scale_answer_5.keys,restudy_different.started,restudy_different.stopped,scale_answer_6.keys,test_attr.started,test_attr.stopped,test_sub.started,correct,test_sub.stopped,scale_answer_5.rt,scale_answer_5.duration,distractortask.started,equation_text.started,distractortask.stopped,mouse_answer.x,mouse_answer.y,mouse_answer.leftButton,mouse_answer.midButton,mouse_answer.rightButton,mouse_answer.time,mouse_answer.clicked_name,feedback_distractortask.started,feedback_distractortask.stopped,free_recall.started,text_enter.started,key_resp.started,free_recall.stopped,key_resp.keys,key_resp.rt,key_resp.duration,free_recalled_sub,mouse_continue.x,mouse_continue.y,mouse_continue.leftButton,mouse_continue.midButton,mouse_continue.rightButton,mouse_continue.time,mouse_continue.clicked_name,cued_recall.started,text_enter_2.started,key_continue.started,cued_recall.stopped,recalled_attr1,key_continue.keys,key_continue.rt,key_continue.duration,cued_recall_2.started,text_enter_3.started,key_continue_2.started,cued_recall_2.stopped,recalled_attr2,key_continue_2.keys,key_resp_8.started,key_resp_8.keys,key_resp_8.rt,key_resp_8.duration,condition,date,expName,psychopyVersion,frameRate,participant,expStart,
,,,,,,,,,,,,,,,,,,,,,,,,,,,,,"['Hut', 'Rucksack', 'Stift', 'Geige', 'Vase', 'Schere', 'Uhr', 'Kamera', 'Würfel', 'Tasche', 'Schlüssel', 'Tasse', 'Ring', 'Hammer', 'Trommel']","['Flasche', 'Lampe', 'Socke', 'Eimer', 'Löffel', 'Jacke', 'Kette', 'Kerze', 'Brille', 'Bürste', 'Buch', 'Blume', 'Telefon', 'Fahrrad', 'Kiste']",0.10905510000884533,0.10912390006706119,0.10913249989971519,4.50901440018788,,,,,,,,,,,,,,,,,,,,,,,,,,,,,,,,,,,,,2,,,,,,,,,,,,,,,,,,,,,,,,,,,,,,,,,,,,,,,,,,,,,,,,,,,,,,,,,,,,,,,,,,,,,,2,2023-12-11_11h37.15.895,watkins1,2023.2.3,99.71889264611796,56,2023-12-11 11h37.22.535019 +0000,
,,,,,,,,,,,,,,,,,,,,,,,,,,,,,,,,,,,4.509061899967492,56.313948899973184,,,,,,,,,,,,,,,,,,,,,,,,,,,,,,,,,,,2,,,,,,,,,,,,,,,,,,,,,,,,,,,,,,,,,,,,,,,,,,,,,,,,,,,,,,,,,,,,,,,,,,,,,,2,2023-12-11_11h37.15.895,watkins1,2023.2.3,99.71889264611796,56,2023-12-11 11h37.22.535019 +0000,
,,,0,0,0,0,,,,,,,,,,,,,,,,,,,,,57.327505600173026,,,,,,,,,,56.31396469986066,57.317538800183684,63.81900129979476,64.31023659976199,57.80950859980658,63.81883759982884,2,3.004382200073451,None,64.31024730019271,70.31839049980044,2,3.004382200073451,None,70.31868459982798,70.31870849989355,70.31871569994837,70.31879890011624,,3.1237765001133084,None,70.31896190019324,70.80973589979112,70.80974679999053,76.8154472000897,Hund,,,,,,,,,2,,,,,,,,,,,,,,,,,,,,,,,,,,,,,,,,,,,,,,,,,,,,,,,,,,,,,,,,,,,,,,,,,,,,,,2,2023-12-11_11h37.15.895,watkins1,2023.2.3,99.71889264611796,56,2023-12-11 11h37.22.535019 +0000,
,,,,,,,,,,,,,,,,,,,,,,,,,,,,,,,,,,,,,,,,,,,,,,,,,,,,,,,,,,,,,,,76.81560549978167,81.21292629977688,,,,,,,2,,,,,,,,,,,,,,,,,,,,,,,,,,,,,,,,,,,,,,,,,,,,,,,,,,,,,,,,,,,,,,,,,,,,,,2,2023-12-11_11h37.15.895,watkins1,2023.2.3,99.71889264611796,56,2023-12-11 11h37.22.535019 +0000,
,,,,,,,0,0,0,0,,,,,,,,,,,,,,,,,82.22657939977944,,,,,,,,,,81.21294219978154,82.21664620004594,82.21711920015514,82.70851060003042,,,3,3.248824799899012,,,,,,,,,,,,,,,,,,,,,82.70852109976113,88.71682830015197,Bürste,schmutzig,"['Bürste', 'schmutzig']",test_sub,2,"['Bürste', 'Uhr', 'Tasche', 'Brille', 'Kiste', 'Eimer', 'Lampe', 'Vase', 'Fahrrad', 'Würfel', 'Telefon', 'Geige', 'Hammer', 'Trommel', 'Schlüssel', 'Buch', 'Kette', 'Tasse', 'Löffel', 'Stift', 'Ring', 'Blume', 'Hut', 'Jacke', 'Kerze', 'Rucksack', 'Kamera', 'Socke', 'Schere', 'Flasche']",['schmutzig'],3,3.248824799899012,None,,,,,,,,,,,,,,,,,,,,,,,,,,,,,,,,,,,,,,,,,,,,,,,,,,,,,,,,,,,,,,,,,2,2023-12-11_11h37.15.895,watkins1,2023.2.3,99.71889264611796,56,2023-12-11 11h37.22.535019 +0000,
,,,,,,,1,0,1,0,,,,,,,,,,,,,,,,,88.72629449982196,,,,,,,,,,,,88.7174769998528,89.20824910001829,,,1,2.117947999853641,,,,,,,,,,,,,,,,,,,,,89.20825950009748,95.21853660000488,Uhr,schwer,"['Uhr', 'schwer']",restudy,2,"['Bürste', 'Uhr', 'Tasche', 'Brille', 'Kiste', 'Eimer', 'Lampe', 'Vase', 'Fahrrad', 'Würfel', 'Telefon', 'Geige', 'Hammer', 'Trommel', 'Schlüssel', 'Buch', 'Kette', 'Tasse', 'Löffel', 'Stift', 'Ring', 'Blume', 'Hut', 'Jacke', 'Kerze', 'Rucksack', 'Kamera', 'Socke', 'Schere', 'Flasche']","['schmutzig', 'schwer']",1,2.117947999853641,None,,,,,,,,,,,,,,,,,,,,,,,,,,,,,,,,,,,,,,,,,,,,,,,,,,,,,,,,,,,,,,,,,2,2023-12-11_11h37.15.895,watkins1,2023.2.3,99.71889264611796,56,2023-12-11 11h37.22.535019 +0000,
,,,,,,,2,0,2,0,,,,,,,,,,,,,,,,,95.22736420016736,,,,,,,,,,,,95.21907510003075,95.70979369990528,,,1,2.321957000065595,,,,,,,,,,,,,,,,,,,,,95.70980449998751,101.71153010008857,Tasche,flauschig,"['Tasche', 'flauschig']",restudy,2,"['Bürste', 'Uhr', 'Tasche', 'Brille', 'Kiste', 'Eimer', 'Lampe', 'Vase', 'Fahrrad', 'Würfel', 'Telefon', 'Geige', 'Hammer', 'Trommel', 'Schlüssel', 'Buch', 'Kette', 'Tasse', 'Löffel', 'Stift', 'Ring', 'Blume', 'Hut', 'Jacke', 'Kerze', 'Rucksack', 'Kamera', 'Socke', 'Schere', 'Flasche']","['schmutzig', 'schwer', 'flauschig']",1,2.321957000065595,None,,,,,,,,,,,,,,,,,,,,,,,,,,,,,,,,,,,,,,,,,,,,,,,,,,,,,,,,,,,,,,,,,2,2023-12-11_11h37.15.895,watkins1,2023.2.3,99.71889264611796,56,2023-12-11 11h37.22.535019 +0000,
,,,,,,,3,0,3,0,,,,,,,,,,,,,,,,,101.72097790008411,,,,,,,,,,,,101.71205940004438,102.20294039975852,,,2,1.8624030002392828,,,,,,,,,,,,,,,,,,,,,102.20295060006902,108.21175390016288,Brille,matt,"['Brille', 'matt']",test_sub,2,"['Bürste', 'Uhr', 'Tasche', 'Brille', 'Kiste', 'Eimer', 'Lampe', 'Vase', 'Fahrrad', 'Würfel', 'Telefon', 'Geige', 'Hammer', 'Trommel', 'Schlüssel', 'Buch', 'Kette', 'Tasse', 'Löffel', 'Stift', 'Ring', 'Blume', 'Hut', 'Jacke', 'Kerze', 'Rucksack', 'Kamera', 'Socke', 'Schere', 'Flasche']","['schmutzig', 'schwer', 'flauschig', 'matt']",2,1.8624030002392828,None,,,,,,,,,,,,,,,,,,,,,,,,,,,,,,,,,,,,,,,,,,,,,,,,,,,,,,,,,,,,,,,,,2,2023-12-11_11h37.15.895,watkins1,2023.2.3,99.71889264611796,56,2023-12-11 11h37.22.535019 +0000,
,,,,,,,4,0,4,0,,,,,,,,,,,,,,,,,108.22132819984108,,,,,,,,,,,,108.21227899985388,108.70318019995466,,,1,1.681386100128293,,,,,,,,,,,,,,,,,,,,,108.70318969991058,114.71240960014984,Kiste,elegant,"['Kiste', 'elegant']",test_sub,2,"['Bürste', 'Uhr', 'Tasche', 'Brille', 'Kiste', 'Eimer', 'Lampe', 'Vase', 'Fahrrad', 'Würfel', 'Telefon', 'Geige', 'Hammer', 'Trommel', 'Schlüssel', 'Buch', 'Kette', 'Tasse', 'Löffel', 'Stift', 'Ring', 'Blume', 'Hut', 'Jacke', 'Kerze', 'Rucksack', 'Kamera', 'Socke', 'Schere', 'Flasche']","['schmutzig', 'schwer', 'flauschig', 'matt', 'elegant']",1,1.681386100128293,None,,,,,,,,,,,,,,,,,,,,,,,,,,,,,,,,,,,,,,,,,,,,,,,,,,,,,,,,,,,,,,,,,2,2023-12-11_11h37.15.895,watkins1,2023.2.3,99.71889264611796,56,2023-12-11 11h37.22.535019 +0000,
,,,,,,,5,0,5,0,,,,,,,,,,,,,,,,,114.72197789978236,,,,,,,,,,,,114.7129394998774,115.20395170012489,,,1,1.4598579001612961,,,,,,,,,,,,,,,,,,,,,115.2039613998495,121.20485810004175,Eimer,verspielt,"['Eimer', 'verspielt']",test_sub,2,"['Bürste', 'Uhr', 'Tasche', 'Brille', 'Kiste', 'Eimer', 'Lampe', 'Vase', 'Fahrrad', 'Würfel', 'Telefon', 'Geige', 'Hammer', 'Trommel', 'Schlüssel', 'Buch', 'Kette', 'Tasse', 'Löffel', 'Stift', 'Ring', 'Blume', 'Hut', 'Jacke', 'Kerze', 'Rucksack', 'Kamera', 'Socke', 'Schere', 'Flasche']","['schmutzig', 'schwer', 'flauschig', 'matt', 'elegant', 'verspielt']",1,1.4598579001612961,None,,,,,,,,,,,,,,,,,,,,,,,,,,,,,,,,,,,,,,,,,,,,,,,,,,,,,,,,,,,,,,,,,2,2023-12-11_11h37.15.895,watkins1,2023.2.3,99.71889264611796,56,2023-12-11 11h37.22.535019 +0000,
,,,,,,,6,0,6,0,,,,,,,,,,,,,,,,,121.21442189998925,,,,,,,,,,,,121.20539329992607,121.69625890022144,,,3,2.120203099679202,,,,,,,,,,,,,,,,,,,,,121.69626929983497,127.69778600009158,Lampe,bunt,"['Lampe', 'bunt']",test_sub,2,"['Bürste', 'Uhr', 'Tasche', 'Brille', 'Kiste', 'Eimer', 'Lampe', 'Vase', 'Fahrrad', 'Würfel', 'Telefon', 'Geige', 'Hammer', 'Trommel', 'Schlüssel', 'Buch', 'Kette', 'Tasse', 'Löffel', 'Stift', 'Ring', 'Blume', 'Hut', 'Jacke', 'Kerze', 'Rucksack', 'Kamera', 'Socke', 'Schere', 'Flasche']","['schmutzig', 'schwer', 'flauschig', 'matt', 'elegant', 'verspielt', 'bunt']",3,2.120203099679202,None,,,,,,,,,,,,,,,,,,,,,,,,,,,,,,,,,,,,,,,,,,,,,,,,,,,,,,,,,,,,,,,,,2,2023-12-11_11h37.15.895,watkins1,2023.2.3,99.71889264611796,56,2023-12-11 11h37.22.535019 +0000,
,,,,,,,7,0,7,0,,,,,,,,,,,,,,,,,127.70736029976979,,,,,,,,,,,,127.69830670021474,128.18933629989624,,,2,2.835051900241524,,,,,,,,,,,,,,,,,,,,,128.18934640008956,134.19966410007328,Vase,dick,"['Vase', 'dick']",restudy,2,"['Bürste', 'Uhr', 'Tasche', 'Brille', 'Kiste', 'Eimer', 'Lampe', 'Vase', 'Fahrrad', 'Würfel', 'Telefon', 'Geige', 'Hammer', 'Trommel', 'Schlüssel', 'Buch', 'Kette', 'Tasse', 'Löffel', 'Stift', 'Ring', 'Blume', 'Hut', 'Jacke', 'Kerze', 'Rucksack', 'Kamera', 'Socke', 'Schere', 'Flasche']","['schmutzig', 'schwer', 'flauschig', 'matt', 'elegant', 'verspielt', 'bunt', 'dick']",2,2.835051900241524,None,,,,,,,,,,,,,,,,,,,,,,,,,,,,,,,,,,,,,,,,,,,,,,,,,,,,,,,,,,,,,,,,,2,2023-12-11_11h37.15.895,watkins1,2023.2.3,99.71889264611796,56,2023-12-11 11h37.22.535019 +0000,
,,,,,,,8,0,8,0,,,,,,,,,,,,,,,,,134.20919249998406,,,,,,,,,,,,134.20018769986928,134.69128740020096,,,1,1.5571277001872659,,,,,,,,,,,,,,,,,,,,,134.69129730015993,140.6965878000483,Fahrrad,lustig,"['Fahrrad', 'lustig']",test_sub,2,"['Bürste', 'Uhr', 'Tasche', 'Brille', 'Kiste', 'Eimer', 'Lampe', 'Vase', 'Fahrrad', 'Würfel', 'Telefon', 'Geige', 'Hammer', 'Trommel', 'Schlüssel', 'Buch', 'Kette', 'Tasse', 'Löffel', 'Stift', 'Ring', 'Blume', 'Hut', 'Jacke', 'Kerze', 'Rucksack', 'Kamera', 'Socke', 'Schere', 'Flasche']","['schmutzig', 'schwer', 'flauschig', 'matt', 'elegant', 'verspielt', 'bunt', 'dick', 'lustig']",1,1.5571277001872659,None,,,,,,,,,,,,,,,,,,,,,,,,,,,,,,,,,,,,,,,,,,,,,,,,,,,,,,,,,,,,,,,,,2,2023-12-11_11h37.15.895,watkins1,2023.2.3,99.71889264611796,56,2023-12-11 11h37.22.535019 +0000,
,,,,,,,9,0,9,0,,,,,,,,,,,,,,,,,140.70600070012733,,,,,,,,,,,,140.69711339985952,141.18802030012012,,,2,2.9083541999571025,,,,,,,,,,,,,,,,,,,,,141.18803060008213,147.19809029996395,Würfel,hübsch,"['Würfel', 'hübsch']",restudy,2,"['Bürste', 'Uhr', 'Tasche', 'Brille', 'Kiste', 'Eimer', 'Lampe', 'Vase', 'Fahrrad', 'Würfel', 'Telefon', 'Geige', 'Hammer', 'Trommel', 'Schlüssel', 'Buch', 'Kette', 'Tasse', 'Löffel', 'Stift', 'Ring', 'Blume', 'Hut', 'Jacke', 'Kerze', 'Rucksack', 'Kamera', 'Socke', 'Schere', 'Flasche']","['schmutzig', 'schwer', 'flauschig', 'matt', 'elegant', 'verspielt', 'bunt', 'dick', 'lustig', 'hübsch']",2,2.9083541999571025,None,,,,,,,,,,,,,,,,,,,,,,,,,,,,,,,,,,,,,,,,,,,,,,,,,,,,,,,,,,,,,,,,,2,2023-12-11_11h37.15.895,watkins1,2023.2.3,99.71889264611796,56,2023-12-11 11h37.22.535019 +0000,
,,,,,,,10,0,10,0,,,,,,,,,,,,,,,,,147.2076551998034,,,,,,,,,,,,147.19860919984058,147.68965120008215,,,3,4.335053300019354,,,,,,,,,,,,,,,,,,,,,147.68966110004112,153.69992299983278,Telefon,teuer,"['Telefon', 'teuer']",test_sub,2,"['Bürste', 'Uhr', 'Tasche', 'Brille', 'Kiste', 'Eimer', 'Lampe', 'Vase', 'Fahrrad', 'Würfel', 'Telefon', 'Geige', 'Hammer', 'Trommel', 'Schlüssel', 'Buch', 'Kette', 'Tasse', 'Löffel', 'Stift', 'Ring', 'Blume', 'Hut', 'Jacke', 'Kerze', 'Rucksack', 'Kamera', 'Socke', 'Schere', 'Flasche']","['schmutzig', 'schwer', 'flauschig', 'matt', 'elegant', 'verspielt', 'bunt', 'dick', 'lustig', 'hübsch', 'teuer']",3,4.335053300019354,None,,,,,,,,,,,,,,,,,,,,,,,,,,,,,,,,,,,,,,,,,,,,,,,,,,,,,,,,,,,,,,,,,2,2023-12-11_11h37.15.895,watkins1,2023.2.3,99.71889264611796,56,2023-12-11 11h37.22.535019 +0000,
,,,,,,,11,0,11,0,,,,,,,,,,,,,,,,,153.72237680014223,,,,,,,,,,,,153.70043900003657,154.1903507001698,,,2,2.913848999887705,,,,,,,,,,,,,,,,,,,,,154.19036109978333,160.1914237998426,Geige,niedlich,"['Geige', 'niedlich']",restudy,2,"['Bürste', 'Uhr', 'Tasche', 'Brille', 'Kiste', 'Eimer', 'Lampe', 'Vase', 'Fahrrad', 'Würfel', 'Telefon', 'Geige', 'Hammer', 'Trommel', 'Schlüssel', 'Buch', 'Kette', 'Tasse', 'Löffel', 'Stift', 'Ring', 'Blume', 'Hut', 'Jacke', 'Kerze', 'Rucksack', 'Kamera', 'Socke', 'Schere', 'Flasche']","['schmutzig', 'schwer', 'flauschig', 'matt', 'elegant', 'verspielt', 'bunt', 'dick', 'lustig', 'hübsch', 'teuer', 'niedlich']",2,2.913848999887705,None,,,,,,,,,,,,,,,,,,,,,,,,,,,,,,,,,,,,,,,,,,,,,,,,,,,,,,,,,,,,,,,,,2,2023-12-11_11h37.15.895,watkins1,2023.2.3,99.71889264611796,56,2023-12-11 11h37.22.535019 +0000,
,,,,,,,12,0,12,0,,,,,,,,,,,,,,,,,160.20098649989814,,,,,,,,,,,,160.19194529997185,160.68301900010556,,,1,1.4382970998995006,,,,,,,,,,,,,,,,,,,,,160.68302909983322,166.69163039978594,Hammer,zart,"['Hammer', 'zart']",restudy,2,"['Bürste', 'Uhr', 'Tasche', 'Brille', 'Kiste', 'Eimer', 'Lampe', 'Vase', 'Fahrrad', 'Würfel', 'Telefon', 'Geige', 'Hammer', 'Trommel', 'Schlüssel', 'Buch', 'Kette', 'Tasse', 'Löffel', 'Stift', 'Ring', 'Blume', 'Hut', 'Jacke', 'Kerze', 'Rucksack', 'Kamera', 'Socke', 'Schere', 'Flasche']","['schmutzig', 'schwer', 'flauschig', 'matt', 'elegant', 'verspielt', 'bunt', 'dick', 'lustig', 'hübsch', 'teuer', 'niedlich', 'zart']",1,1.4382970998995006,None,,,,,,,,,,,,,,,,,,,,,,,,,,,,,,,,,,,,,,,,,,,,,,,,,,,,,,,,,,,,,,,,,2,2023-12-11_11h37.15.895,watkins1,2023.2.3,99.71889264611796,56,2023-12-11 11h37.22.535019 +0000,
,,,,,,,13,0,13,0,,,,,,,,,,,,,,,,,166.70111039979383,,,,,,,,,,,,166.69216329976916,167.18327210005373,,,1,3.169209999963641,,,,,,,,,,,,,,,,,,,,,167.18328290013596,173.18967209989205,Trommel,hässlich,"['Trommel', 'hässlich']",restudy,2,"['Bürste', 'Uhr', 'Tasche', 'Brille', 'Kiste', 'Eimer', 'Lampe', 'Vase', 'Fahrrad', 'Würfel', 'Telefon', 'Geige', 'Hammer', 'Trommel', 'Schlüssel', 'Buch', 'Kette', 'Tasse', 'Löffel', 'Stift', 'Ring', 'Blume', 'Hut', 'Jacke', 'Kerze', 'Rucksack', 'Kamera', 'Socke', 'Schere', 'Flasche']","['schmutzig', 'schwer', 'flauschig', 'matt', 'elegant', 'verspielt', 'bunt', 'dick', 'lustig', 'hübsch', 'teuer', 'niedlich', 'zart', 'hässlich']",1,3.169209999963641,None,,,,,,,,,,,,,,,,,,,,,,,,,,,,,,,,,,,,,,,,,,,,,,,,,,,,,,,,,,,,,,,,,2,2023-12-11_11h37.15.895,watkins1,2023.2.3,99.71889264611796,56,2023-12-11 11h37.22.535019 +0000,
,,,,,,,14,0,14,0,,,,,,,,,,,,,,,,,173.1990960999392,,,,,,,,,,,,173.1902009001933,173.68103149998933,,,1,1.607393499929458,,,,,,,,,,,,,,,,,,,,,173.6810420998372,179.6841605999507,Schlüssel,blass,"['Schlüssel', 'blass']",restudy,2,"['Bürste', 'Uhr', 'Tasche', 'Brille', 'Kiste', 'Eimer', 'Lampe', 'Vase', 'Fahrrad', 'Würfel', 'Telefon', 'Geige', 'Hammer', 'Trommel', 'Schlüssel', 'Buch', 'Kette', 'Tasse', 'Löffel', 'Stift', 'Ring', 'Blume', 'Hut', 'Jacke', 'Kerze', 'Rucksack', 'Kamera', 'Socke', 'Schere', 'Flasche']","['schmutzig', 'schwer', 'flauschig', 'matt', 'elegant', 'verspielt', 'bunt', 'dick', 'lustig', 'hübsch', 'teuer', 'niedlich', 'zart', 'hässlich', 'blass']",1,1.607393499929458,None,,,,,,,,,,,,,,,,,,,,,,,,,,,,,,,,,,,,,,,,,,,,,,,,,,,,,,,,,,,,,,,,,2,2023-12-11_11h37.15.895,watkins1,2023.2.3,99.71889264611796,56,2023-12-11 11h37.22.535019 +0000,
,,,,,,,15,0,15,0,,,,,,,,,,,,,,,,,179.6936176000163,,,,,,,,,,,,179.68468210007995,180.17571179987863,,,2,1.8015623004175723,,,,,,,,,,,,,,,,,,,,,180.175722300075,186.18358779978007,Buch,robust,"['Buch', 'robust']",test_sub,2,"['Bürste', 'Uhr', 'Tasche', 'Brille', 'Kiste', 'Eimer', 'Lampe', 'Vase', 'Fahrrad', 'Würfel', 'Telefon', 'Geige', 'Hammer', 'Trommel', 'Schlüssel', 'Buch', 'Kette', 'Tasse', 'Löffel', 'Stift', 'Ring', 'Blume', 'Hut', 'Jacke', 'Kerze', 'Rucksack', 'Kamera', 'Socke', 'Schere', 'Flasche']","['schmutzig', 'schwer', 'flauschig', 'matt', 'elegant', 'verspielt', 'bunt', 'dick', 'lustig', 'hübsch', 'teuer', 'niedlich', 'zart', 'hässlich', 'blass', 'robust']",2,1.8015623004175723,None,,,,,,,,,,,,,,,,,,,,,,,,,,,,,,,,,,,,,,,,,,,,,,,,,,,,,,,,,,,,,,,,,2,2023-12-11_11h37.15.895,watkins1,2023.2.3,99.71889264611796,56,2023-12-11 11h37.22.535019 +0000,
,,,,,,,16,0,16,0,,,,,,,,,,,,,,,,,186.1930518997833,,,,,,,,,,,,186.18410750012845,186.67508439999074,,,3,1.382082900032401,,,,,,,,,,,,,,,,,,,,,186.67509379982948,192.68118730001152,Kette,glänzend,"['Kette', 'glänzend']",test_sub,2,"['Bürste', 'Uhr', 'Tasche', 'Brille', 'Kiste', 'Eimer', 'Lampe', 'Vase', 'Fahrrad', 'Würfel', 'Telefon', 'Geige', 'Hammer', 'Trommel', 'Schlüssel', 'Buch', 'Kette', 'Tasse', 'Löffel', 'Stift', 'Ring', 'Blume', 'Hut', 'Jacke', 'Kerze', 'Rucksack', 'Kamera', 'Socke', 'Schere', 'Flasche']","['schmutzig', 'schwer', 'flauschig', 'matt', 'elegant', 'verspielt', 'bunt', 'dick', 'lustig', 'hübsch', 'teuer', 'niedlich', 'zart', 'hässlich', 'blass', 'robust', 'glänzend']",3,1.382082900032401,None,,,,,,,,,,,,,,,,,,,,,,,,,,,,,,,,,,,,,,,,,,,,,,,,,,,,,,,,,,,,,,,,,2,2023-12-11_11h37.15.895,watkins1,2023.2.3,99.71889264611796,56,2023-12-11 11h37.22.535019 +0000,
,,,,,,,17,0,17,0,,,,,,,,,,,,,,,,,192.6907341000624,,,,,,,,,,,,192.68171859998256,193.1726667000912,,,1,1.2602696004323661,,,,,,,,,,,,,,,,,,,,,193.1726786000654,199.18166519980878,Tasse,kratzig,"['Tasse', 'kratzig']",restudy,2,"['Bürste', 'Uhr', 'Tasche', 'Brille', 'Kiste', 'Eimer', 'Lampe', 'Vase', 'Fahrrad', 'Würfel', 'Telefon', 'Geige', 'Hammer', 'Trommel', 'Schlüssel', 'Buch', 'Kette', 'Tasse', 'Löffel', 'Stift', 'Ring', 'Blume', 'Hut', 'Jacke', 'Kerze', 'Rucksack', 'Kamera', 'Socke', 'Schere', 'Flasche']","['schmutzig', 'schwer', 'flauschig', 'matt', 'elegant', 'verspielt', 'bunt', 'dick', 'lustig', 'hübsch', 'teuer', 'niedlich', 'zart', 'hässlich', 'blass', 'robust', 'glänzend', 'kratzig']",1,1.2602696004323661,None,,,,,,,,,,,,,,,,,,,,,,,,,,,,,,,,,,,,,,,,,,,,,,,,,,,,,,,,,,,,,,,,,2,2023-12-11_11h37.15.895,watkins1,2023.2.3,99.71889264611796,56,2023-12-11 11h37.22.535019 +0000,
,,,,,,,18,0,18,0,,,,,,,,,,,,,,,,,199.19107860000804,,,,,,,,,,,,199.1822120998986,199.6731183999218,,,3,1.5271819001063704,,,,,,,,,,,,,,,,,,,,,199.67312839999795,205.68318209983408,Löffel,glatt,"['Löffel', 'glatt']",test_sub,2,"['Bürste', 'Uhr', 'Tasche', 'Brille', 'Kiste', 'Eimer', 'Lampe', 'Vase', 'Fahrrad', 'Würfel', 'Telefon', 'Geige', 'Hammer', 'Trommel', 'Schlüssel', 'Buch', 'Kette', 'Tasse', 'Löffel', 'Stift', 'Ring', 'Blume', 'Hut', 'Jacke', 'Kerze', 'Rucksack', 'Kamera', 'Socke', 'Schere', 'Flasche']","['schmutzig', 'schwer', 'flauschig', 'matt', 'elegant', 'verspielt', 'bunt', 'dick', 'lustig', 'hübsch', 'teuer', 'niedlich', 'zart', 'hässlich', 'blass', 'robust', 'glänzend', 'kratzig', 'glatt']",3,1.5271819001063704,None,,,,,,,,,,,,,,,,,,,,,,,,,,,,,,,,,,,,,,,,,,,,,,,,,,,,,,,,,,,,,,,,,2,2023-12-11_11h37.15.895,watkins1,2023.2.3,99.71889264611796,56,2023-12-11 11h37.22.535019 +0000,
,,,,,,,19,0,19,0,,,,,,,,,,,,,,,,,205.69262380013242,,,,,,,,,,,,205.68369549978524,206.17456179996952,,,1,1.9944270001724362,,,,,,,,,,,,,,,,,,,,,206.17457220004871,212.18267509993166,Stift,gepunktet,"['Stift', 'gepunktet']",restudy,2,"['Bürste', 'Uhr', 'Tasche', 'Brille', 'Kiste', 'Eimer', 'Lampe', 'Vase', 'Fahrrad', 'Würfel', 'Telefon', 'Geige', 'Hammer', 'Trommel', 'Schlüssel', 'Buch', 'Kette', 'Tasse', 'Löffel', 'Stift', 'Ring', 'Blume', 'Hut', 'Jacke', 'Kerze', 'Rucksack', 'Kamera', 'Socke', 'Schere', 'Flasche']","['schmutzig', 'schwer', 'flauschig', 'matt', 'elegant', 'verspielt', 'bunt', 'dick', 'lustig', 'hübsch', 'teuer', 'niedlich', 'zart', 'hässlich', 'blass', 'robust', 'glänzend', 'kratzig', 'glatt', 'gepunktet']",1,1.9944270001724362,None,,,,,,,,,,,,,,,,,,,,,,,,,,,,,,,,,,,,,,,,,,,,,,,,,,,,,,,,,,,,,,,,,2,2023-12-11_11h37.15.895,watkins1,2023.2.3,99.71889264611796,56,2023-12-11 11h37.22.535019 +0000,
,,,,,,,20,0,20,0,,,,,,,,,,,,,,,,,212.19207330001518,,,,,,,,,,,,212.18319790018722,212.67420569993556,,,3,1.4940311997197568,,,,,,,,,,,,,,,,,,,,,212.67421629978344,218.67782330000773,Ring,strahlend,"['Ring', 'strahlend']",restudy,2,"['Bürste', 'Uhr', 'Tasche', 'Brille', 'Kiste', 'Eimer', 'Lampe', 'Vase', 'Fahrrad', 'Würfel', 'Telefon', 'Geige', 'Hammer', 'Trommel', 'Schlüssel', 'Buch', 'Kette', 'Tasse', 'Löffel', 'Stift', 'Ring', 'Blume', 'Hut', 'Jacke', 'Kerze', 'Rucksack', 'Kamera', 'Socke', 'Schere', 'Flasche']","['schmutzig', 'schwer', 'flauschig', 'matt', 'elegant', 'verspielt', 'bunt', 'dick', 'lustig', 'hübsch', 'teuer', 'niedlich', 'zart', 'hässlich', 'blass', 'robust', 'glänzend', 'kratzig', 'glatt', 'gepunktet', 'strahlend']",3,1.4940311997197568,None,,,,,,,,,,,,,,,,,,,,,,,,,,,,,,,,,,,,,,,,,,,,,,,,,,,,,,,,,,,,,,,,,2,2023-12-11_11h37.15.895,watkins1,2023.2.3,99.71889264611796,56,2023-12-11 11h37.22.535019 +0000,
,,,,,,,21,0,21,0,,,,,,,,,,,,,,,,,218.68723599985242,,,,,,,,,,,,218.67835259996355,219.169502499979,,,2,1.7354577002115548,,,,,,,,,,,,,,,,,,,,,219.16951300017536,225.1740482999012,Blume,schlicht,"['Blume', 'schlicht']",test_sub,2,"['Bürste', 'Uhr', 'Tasche', 'Brille', 'Kiste', 'Eimer', 'Lampe', 'Vase', 'Fahrrad', 'Würfel', 'Telefon', 'Geige', 'Hammer', 'Trommel', 'Schlüssel', 'Buch', 'Kette', 'Tasse', 'Löffel', 'Stift', 'Ring', 'Blume', 'Hut', 'Jacke', 'Kerze', 'Rucksack', 'Kamera', 'Socke', 'Schere', 'Flasche']","['schmutzig', 'schwer', 'flauschig', 'matt', 'elegant', 'verspielt', 'bunt', 'dick', 'lustig', 'hübsch', 'teuer', 'niedlich', 'zart', 'hässlich', 'blass', 'robust', 'glänzend', 'kratzig', 'glatt', 'gepunktet', 'strahlend', 'schlicht']",2,1.7354577002115548,None,,,,,,,,,,,,,,,,,,,,,,,,,,,,,,,,,,,,,,,,,,,,,,,,,,,,,,,,,,,,,,,,,2,2023-12-11_11h37.15.895,watkins1,2023.2.3,99.71889264611796,56,2023-12-11 11h37.22.535019 +0000,
,,,,,,,22,0,22,0,,,,,,,,,,,,,,,,,225.18346840003505,,,,,,,,,,,,225.17458730004728,225.66550110001117,,,1,2.19157089991495,,,,,,,,,,,,,,,,,,,,,225.66551110008731,231.67538300016895,Hut,winzig,"['Hut', 'winzig']",restudy,2,"['Bürste', 'Uhr', 'Tasche', 'Brille', 'Kiste', 'Eimer', 'Lampe', 'Vase', 'Fahrrad', 'Würfel', 'Telefon', 'Geige', 'Hammer', 'Trommel', 'Schlüssel', 'Buch', 'Kette', 'Tasse', 'Löffel', 'Stift', 'Ring', 'Blume', 'Hut', 'Jacke', 'Kerze', 'Rucksack', 'Kamera', 'Socke', 'Schere', 'Flasche']","['schmutzig', 'schwer', 'flauschig', 'matt', 'elegant', 'verspielt', 'bunt', 'dick', 'lustig', 'hübsch', 'teuer', 'niedlich', 'zart', 'hässlich', 'blass', 'robust', 'glänzend', 'kratzig', 'glatt', 'gepunktet', 'strahlend', 'schlicht', 'winzig']",1,2.19157089991495,None,,,,,,,,,,,,,,,,,,,,,,,,,,,,,,,,,,,,,,,,,,,,,,,,,,,,,,,,,,,,,,,,,2,2023-12-11_11h37.15.895,watkins1,2023.2.3,99.71889264611796,56,2023-12-11 11h37.22.535019 +0000,
,,,,,,,23,0,23,0,,,,,,,,,,,,,,,,,231.68486090004444,,,,,,,,,,,,231.6759128998965,232.16690179985017,,,2,3.0174146997742355,,,,,,,,,,,,,,,,,,,,,232.16691209981218,238.16871980018914,Jacke,neu,"['Jacke', 'neu']",test_sub,2,"['Bürste', 'Uhr', 'Tasche', 'Brille', 'Kiste', 'Eimer', 'Lampe', 'Vase', 'Fahrrad', 'Würfel', 'Telefon', 'Geige', 'Hammer', 'Trommel', 'Schlüssel', 'Buch', 'Kette', 'Tasse', 'Löffel', 'Stift', 'Ring', 'Blume', 'Hut', 'Jacke', 'Kerze', 'Rucksack', 'Kamera', 'Socke', 'Schere', 'Flasche']","['schmutzig', 'schwer', 'flauschig', 'matt', 'elegant', 'verspielt', 'bunt', 'dick', 'lustig', 'hübsch', 'teuer', 'niedlich', 'zart', 'hässlich', 'blass', 'robust', 'glänzend', 'kratzig', 'glatt', 'gepunktet', 'strahlend', 'schlicht', 'winzig', 'neu']",2,3.0174146997742355,None,,,,,,,,,,,,,,,,,,,,,,,,,,,,,,,,,,,,,,,,,,,,,,,,,,,,,,,,,,,,,,,,,2,2023-12-11_11h37.15.895,watkins1,2023.2.3,99.71889264611796,56,2023-12-11 11h37.22.535019 +0000,
,,,,,,,24,0,24,0,,,,,,,,,,,,,,,,,238.17880359990522,,,,,,,,,,,,238.16925159981474,238.66126530012116,,,1,1.1796330995857716,,,,,,,,,,,,,,,,,,,,,238.661275499966,244.6712017999962,Kerze,flach,"['Kerze', 'flach']",test_sub,2,"['Bürste', 'Uhr', 'Tasche', 'Brille', 'Kiste', 'Eimer', 'Lampe', 'Vase', 'Fahrrad', 'Würfel', 'Telefon', 'Geige', 'Hammer', 'Trommel', 'Schlüssel', 'Buch', 'Kette', 'Tasse', 'Löffel', 'Stift', 'Ring', 'Blume', 'Hut', 'Jacke', 'Kerze', 'Rucksack', 'Kamera', 'Socke', 'Schere', 'Flasche']","['schmutzig', 'schwer', 'flauschig', 'matt', 'elegant', 'verspielt', 'bunt', 'dick', 'lustig', 'hübsch', 'teuer', 'niedlich', 'zart', 'hässlich', 'blass', 'robust', 'glänzend', 'kratzig', 'glatt', 'gepunktet', 'strahlend', 'schlicht', 'winzig', 'neu', 'flach']",1,1.1796330995857716,None,,,,,,,,,,,,,,,,,,,,,,,,,,,,,,,,,,,,,,,,,,,,,,,,,,,,,,,,,,,,,,,,,2,2023-12-11_11h37.15.895,watkins1,2023.2.3,99.71889264611796,56,2023-12-11 11h37.22.535019 +0000,
,,,,,,,25,0,25,0,,,,,,,,,,,,,,,,,244.68060840014368,,,,,,,,,,,,244.67172739980742,245.16278549982235,,,1,2.2381382999010384,,,,,,,,,,,,,,,,,,,,,245.16279600001872,251.1728249997832,Rucksack,rustikal,"['Rucksack', 'rustikal']",restudy,2,"['Bürste', 'Uhr', 'Tasche', 'Brille', 'Kiste', 'Eimer', 'Lampe', 'Vase', 'Fahrrad', 'Würfel', 'Telefon', 'Geige', 'Hammer', 'Trommel', 'Schlüssel', 'Buch', 'Kette', 'Tasse', 'Löffel', 'Stift', 'Ring', 'Blume', 'Hut', 'Jacke', 'Kerze', 'Rucksack', 'Kamera', 'Socke', 'Schere', 'Flasche']","['schmutzig', 'schwer', 'flauschig', 'matt', 'elegant', 'verspielt', 'bunt', 'dick', 'lustig', 'hübsch', 'teuer', 'niedlich', 'zart', 'hässlich', 'blass', 'robust', 'glänzend', 'kratzig', 'glatt', 'gepunktet', 'strahlend', 'schlicht', 'winzig', 'neu', 'flach', 'rustikal']",1,2.2381382999010384,None,,,,,,,,,,,,,,,,,,,,,,,,,,,,,,,,,,,,,,,,,,,,,,,,,,,,,,,,,,,,,,,,,2,2023-12-11_11h37.15.895,watkins1,2023.2.3,99.71889264611796,56,2023-12-11 11h37.22.535019 +0000,
,,,,,,,26,0,26,0,,,,,,,,,,,,,,,,,251.18224930018187,,,,,,,,,,,,251.17335169995204,251.66463219979778,,,1,1.4403498996980488,,,,,,,,,,,,,,,,,,,,,251.66464269999415,257.67257290007547,Kamera,krumm,"['Kamera', 'krumm']",restudy,2,"['Bürste', 'Uhr', 'Tasche', 'Brille', 'Kiste', 'Eimer', 'Lampe', 'Vase', 'Fahrrad', 'Würfel', 'Telefon', 'Geige', 'Hammer', 'Trommel', 'Schlüssel', 'Buch', 'Kette', 'Tasse', 'Löffel', 'Stift', 'Ring', 'Blume', 'Hut', 'Jacke', 'Kerze', 'Rucksack', 'Kamera', 'Socke', 'Schere', 'Flasche']","['schmutzig', 'schwer', 'flauschig', 'matt', 'elegant', 'verspielt', 'bunt', 'dick', 'lustig', 'hübsch', 'teuer', 'niedlich', 'zart', 'hässlich', 'blass', 'robust', 'glänzend', 'kratzig', 'glatt', 'gepunktet', 'strahlend', 'schlicht', 'winzig', 'neu', 'flach', 'rustikal', 'krumm']",1,1.4403498996980488,None,,,,,,,,,,,,,,,,,,,,,,,,,,,,,,,,,,,,,,,,,,,,,,,,,,,,,,,,,,,,,,,,,2,2023-12-11_11h37.15.895,watkins1,2023.2.3,99.71889264611796,56,2023-12-11 11h37.22.535019 +0000,
,,,,,,,27,0,27,0,,,,,,,,,,,,,,,,,257.6820513000712,,,,,,,,,,,,257.6730916001834,258.16396800009534,,,1,1.3811527998186648,,,,,,,,,,,,,,,,,,,,,258.16397849982604,264.1720130001195,Socke,nass,"['Socke', 'nass']",test_sub,2,"['Bürste', 'Uhr', 'Tasche', 'Brille', 'Kiste', 'Eimer', 'Lampe', 'Vase', 'Fahrrad', 'Würfel', 'Telefon', 'Geige', 'Hammer', 'Trommel', 'Schlüssel', 'Buch', 'Kette', 'Tasse', 'Löffel', 'Stift', 'Ring', 'Blume', 'Hut', 'Jacke', 'Kerze', 'Rucksack', 'Kamera', 'Socke', 'Schere', 'Flasche']","['schmutzig', 'schwer', 'flauschig', 'matt', 'elegant', 'verspielt', 'bunt', 'dick', 'lustig', 'hübsch', 'teuer', 'niedlich', 'zart', 'hässlich', 'blass', 'robust', 'glänzend', 'kratzig', 'glatt', 'gepunktet', 'strahlend', 'schlicht', 'winzig', 'neu', 'flach', 'rustikal', 'krumm', 'nass']",1,1.3811527998186648,None,,,,,,,,,,,,,,,,,,,,,,,,,,,,,,,,,,,,,,,,,,,,,,,,,,,,,,,,,,,,,,,,,2,2023-12-11_11h37.15.895,watkins1,2023.2.3,99.71889264611796,56,2023-12-11 11h37.22.535019 +0000,
,,,,,,,28,0,28,0,,,,,,,,,,,,,,,,,264.1814818000421,,,,,,,,,,,,264.17253979993984,264.6633883002214,,,3,2.057697500102222,,,,,,,,,,,,,,,,,,,,,264.6633982001804,270.67140759993345,Schere,kalt,"['Schere', 'kalt']",restudy,2,"['Bürste', 'Uhr', 'Tasche', 'Brille', 'Kiste', 'Eimer', 'Lampe', 'Vase', 'Fahrrad', 'Würfel', 'Telefon', 'Geige', 'Hammer', 'Trommel', 'Schlüssel', 'Buch', 'Kette', 'Tasse', 'Löffel', 'Stift', 'Ring', 'Blume', 'Hut', 'Jacke', 'Kerze', 'Rucksack', 'Kamera', 'Socke', 'Schere', 'Flasche']","['schmutzig', 'schwer', 'flauschig', 'matt', 'elegant', 'verspielt', 'bunt', 'dick', 'lustig', 'hübsch', 'teuer', 'niedlich', 'zart', 'hässlich', 'blass', 'robust', 'glänzend', 'kratzig', 'glatt', 'gepunktet', 'strahlend', 'schlicht', 'winzig', 'neu', 'flach', 'rustikal', 'krumm', 'nass', 'kalt']",3,2.057697500102222,None,,,,,,,,,,,,,,,,,,,,,,,,,,,,,,,,,,,,,,,,,,,,,,,,,,,,,,,,,,,,,,,,,2,2023-12-11_11h37.15.895,watkins1,2023.2.3,99.71889264611796,56,2023-12-11 11h37.22.535019 +0000,
,,,,,,,29,0,29,0,,,,,,,,,,,,,,,,,270.6808909000829,,,,,,,,,,,,270.6719328998588,271.1628952999599,,,3,2.0940025001764297,,,,,,,,,,,,,,,,,,,,,271.1629058001563,277.1641929000616,Flasche,klobig,"['Flasche', 'klobig']",test_sub,2,"['Bürste', 'Uhr', 'Tasche', 'Brille', 'Kiste', 'Eimer', 'Lampe', 'Vase', 'Fahrrad', 'Würfel', 'Telefon', 'Geige', 'Hammer', 'Trommel', 'Schlüssel', 'Buch', 'Kette', 'Tasse', 'Löffel', 'Stift', 'Ring', 'Blume', 'Hut', 'Jacke', 'Kerze', 'Rucksack', 'Kamera', 'Socke', 'Schere', 'Flasche']","['schmutzig', 'schwer', 'flauschig', 'matt', 'elegant', 'verspielt', 'bunt', 'dick', 'lustig', 'hübsch', 'teuer', 'niedlich', 'zart', 'hässlich', 'blass', 'robust', 'glänzend', 'kratzig', 'glatt', 'gepunktet', 'strahlend', 'schlicht', 'winzig', 'neu', 'flach', 'rustikal', 'krumm', 'nass', 'kalt', 'klobig']",3,2.0940025001764297,None,,,,,,,,,,,,,,,,,,,,,,,,,,,,,,,,,,,,,,,,,,,,,,,,,,,,,,,,,,,,,,,,,2,2023-12-11_11h37.15.895,watkins1,2023.2.3,99.71889264611796,56,2023-12-11 11h37.22.535019 +0000,
,,,,,,,,,,,0,0,0,0,,,,,,,,,,,,,277.1736516999081,,,,,,,,,,,,277.16505050007254,277.65568230021745,,,[],[],,,,,,,,,,,,1.6084031998179853,None,,,,,Flasche,,,,,Flasche,klobig,"['Flasche', 'klobig']",test_sub,2,,,,,,277.1649759998545,277.16502369986847,"['Flasche', 'Löffel', 'Hut', 'Eimer', 'Ring', 'Lampe', 'Kette', 'Trommel', 'Kamera', 'Vase', 'Kiste', 'Würfel', 'Fahrrad', 'Schlüssel', 'Uhr', 'Tasse', 'Stift', 'Hammer', 'Socke', 'Telefon', 'Jacke', 'Buch', 'Geige', 'Rucksack', 'Brille', 'Blume', 'Schere', 'Bürste', 'Kerze', 'Tasche']",277.65569340018556,277.6585276997648,None,277.6587144997902,277.66129430010915,None,277.6614505997859,277.66424469975755,None,277.66440049977973,277.66560500022024,277.665617399849,1,283.6720706000924,,,,,,,,,,,,,,,,,,,,,,,,,,,,,,,,,,,,,,,,,,,,,,,,2,2023-12-11_11h37.15.895,watkins1,2023.2.3,99.71889264611796,56,2023-12-11 11h37.22.535019 +0000,
,,,,,,,,,,,1,0,1,0,,,,,,,,,,,,,283.68187279999256,,,,,,,,,,,,283.6723517999053,284.16398660000414,,,[],[],,,,,,,,,,,,None,None,,,,,,,,,,Löffel,glatt,"['Löffel', 'glatt']",test_sub,2,,,,,,283.67228549998254,283.6723226001486,"['Flasche', 'Löffel', 'Hut', 'Eimer', 'Ring', 'Lampe', 'Kette', 'Trommel', 'Kamera', 'Vase', 'Kiste', 'Würfel', 'Fahrrad', 'Schlüssel', 'Uhr', 'Tasse', 'Stift', 'Hammer', 'Socke', 'Telefon', 'Jacke', 'Buch', 'Geige', 'Rucksack', 'Brille', 'Blume', 'Schere', 'Bürste', 'Kerze', 'Tasche']",284.1639978000894,284.16567090013996,None,284.16579690016806,284.1672506998293,None,284.16735990019515,284.1688401000574,None,284.16894809994847,284.17012919997796,284.1701416000724,0,290.17266280017793,,,,,,,,,,,,,,,,,,,,,,,,,,,,,,,,,,,,,,,,,,,,,,,,2,2023-12-11_11h37.15.895,watkins1,2023.2.3,99.71889264611796,56,2023-12-11 11h37.22.535019 +0000,
,,,,,,,,,,,2,0,2,0,,,,,,,,,,,,,290.1824818998575,,,,,,,,,,,,290.17294010007754,290.6644665999338,,,[],[],,,,,,,,,,,,None,None,,,,,,,,,,Hut,winzig,"['Hut', 'winzig']",restudy,2,,,,,,290.17287399992347,290.17291129985824,"['Flasche', 'Löffel', 'Hut', 'Eimer', 'Ring', 'Lampe', 'Kette', 'Trommel', 'Kamera', 'Vase', 'Kiste', 'Würfel', 'Fahrrad', 'Schlüssel', 'Uhr', 'Tasse', 'Stift', 'Hammer', 'Socke', 'Telefon', 'Jacke', 'Buch', 'Geige', 'Rucksack', 'Brille', 'Blume', 'Schere', 'Bürste', 'Kerze', 'Tasche']",290.6644768998958,290.66711070016026,None,290.66723550017923,296.66974380007014,1,296.67012340016663,296.6729871998541,None,296.67310089990497,296.674104699865,296.67411600006744,,296.6752677997574,3.3655493003316224,None,,,,,,,,,,,,,,,,,,,,,,,,,,,,,,,,,,,,,,,,,,,,,,2,2023-12-11_11h37.15.895,watkins1,2023.2.3,99.71889264611796,56,2023-12-11 11h37.22.535019 +0000,
,,,,,,,,,,,3,0,3,0,,,,,,,,,,,,,296.67921030009165,,,,,,,,,,,,296.6755459001288,297.17128519993275,,,[],[],,,,,,,,,,,,None,None,,,,,,,,,,Eimer,verspielt,"['Eimer', 'verspielt']",test_sub,2,,,,,,296.6754813999869,296.67551930015907,"['Flasche', 'Löffel', 'Hut', 'Eimer', 'Ring', 'Lampe', 'Kette', 'Trommel', 'Kamera', 'Vase', 'Kiste', 'Würfel', 'Fahrrad', 'Schlüssel', 'Uhr', 'Tasse', 'Stift', 'Hammer', 'Socke', 'Telefon', 'Jacke', 'Buch', 'Geige', 'Rucksack', 'Brille', 'Blume', 'Schere', 'Bürste', 'Kerze', 'Tasche']",297.1712958998978,297.17393880011514,None,297.174062800128,297.17548089986667,None,297.175588299986,297.1769910999574,None,297.1770970998332,297.1782483002171,297.178260799963,0,303.1811894001439,,,,,,,,,,,,,,,,,,,,,,,,,,,,,,,,,,,,,,,,,,,,,,,,2,2023-12-11_11h37.15.895,watkins1,2023.2.3,99.71889264611796,56,2023-12-11 11h37.22.535019 +0000,
,,,,,,,,,,,4,0,4,0,,,,,,,,,,,,,303.1910143001005,,,,,,,,,,,,303.18146659992635,303.67288450011984,,,[],[],,,,,,,,,,,,None,None,,,,,,,,,,Ring,strahlend,"['Ring', 'strahlend']",restudy,2,,,,,,303.18140200013295,303.1814379999414,"['Flasche', 'Löffel', 'Hut', 'Eimer', 'Ring', 'Lampe', 'Kette', 'Trommel', 'Kamera', 'Vase', 'Kiste', 'Würfel', 'Fahrrad', 'Schlüssel', 'Uhr', 'Tasse', 'Stift', 'Hammer', 'Socke', 'Telefon', 'Jacke', 'Buch', 'Geige', 'Rucksack', 'Brille', 'Blume', 'Schere', 'Bürste', 'Kerze', 'Tasche']",303.67289419984445,303.67562540015206,None,303.6757482001558,309.67917629983276,3,309.67947129998356,309.68208320019767,None,309.6821949998848,309.68324839975685,309.6832598000765,,309.6846349998377,3.22131900023669,None,,,,,,,,,,,,,,,,,,,,,,,,,,,,,,,,,,,,,,,,,,,,,,2,2023-12-11_11h37.15.895,watkins1,2023.2.3,99.71889264611796,56,2023-12-11 11h37.22.535019 +0000,
,,,,,,,,,,,5,0,5,0,,,,,,,,,,,,,309.6885712998919,,,,,,,,,,,,309.68491930002347,310.18078880012035,,,[],[],,,,,,,,,,,,2.477986800018698,None,,,,,Lampe,,,,,Lampe,bunt,"['Lampe', 'bunt']",test_sub,2,,,,,,309.68485340010375,309.6848924998194,"['Flasche', 'Löffel', 'Hut', 'Eimer', 'Ring', 'Lampe', 'Kette', 'Trommel', 'Kamera', 'Vase', 'Kiste', 'Würfel', 'Fahrrad', 'Schlüssel', 'Uhr', 'Tasse', 'Stift', 'Hammer', 'Socke', 'Telefon', 'Jacke', 'Buch', 'Geige', 'Rucksack', 'Brille', 'Blume', 'Schere', 'Bürste', 'Kerze', 'Tasche']",310.1807988001965,310.18354209978133,None,310.1836639000103,310.18508849991485,None,310.18519670004025,310.1866287998855,None,310.1867383001372,310.18789830012247,310.1879107998684,1,316.1903916997835,,,,,,,,,,,,,,,,,,,,,,,,,,,,,,,,,,,,,,,,,,,,,,,,2,2023-12-11_11h37.15.895,watkins1,2023.2.3,99.71889264611796,56,2023-12-11 11h37.22.535019 +0000,
,,,,,,,,,,,6,0,6,0,,,,,,,,,,,,,316.20016059977934,,,,,,,,,,,,316.19067519996315,316.6825700001791,,,[],[],,,,,,,,,,,,1.566776900086552,None,,,,,Ring,,,,,Kette,glänzend,"['Kette', 'glänzend']",test_sub,2,,,,,,316.1906087999232,316.19064619997516,"['Flasche', 'Löffel', 'Hut', 'Eimer', 'Ring', 'Lampe', 'Kette', 'Trommel', 'Kamera', 'Vase', 'Kiste', 'Würfel', 'Fahrrad', 'Schlüssel', 'Uhr', 'Tasse', 'Stift', 'Hammer', 'Socke', 'Telefon', 'Jacke', 'Buch', 'Geige', 'Rucksack', 'Brille', 'Blume', 'Schere', 'Bürste', 'Kerze', 'Tasche']",316.6825799997896,316.6850919998251,None,316.6852143998258,316.68757149996236,None,316.6876787999645,316.6900173998438,None,316.690122500062,316.6912559000775,316.69126969994977,0,322.6959346001968,,,,,,,,,,,,,,,,,,,,,,,,,,,,,,,,,,,,,,,,,,,,,,,,2,2023-12-11_11h37.15.895,watkins1,2023.2.3,99.71889264611796,56,2023-12-11 11h37.22.535019 +0000,
,,,,,,,,,,,7,0,7,0,,,,,,,,,,,,,322.7057039998472,,,,,,,,,,,,322.69621679978445,323.18787090014666,,,[],[],,,,,,,,,,,,None,None,,,,,,,,,,Trommel,hässlich,"['Trommel', 'hässlich']",restudy,2,,,,,,322.6961472998373,322.6961860000156,"['Flasche', 'Löffel', 'Hut', 'Eimer', 'Ring', 'Lampe', 'Kette', 'Trommel', 'Kamera', 'Vase', 'Kiste', 'Würfel', 'Fahrrad', 'Schlüssel', 'Uhr', 'Tasse', 'Stift', 'Hammer', 'Socke', 'Telefon', 'Jacke', 'Buch', 'Geige', 'Rucksack', 'Brille', 'Blume', 'Schere', 'Bürste', 'Kerze', 'Tasche']",323.1878816001117,323.1907001999207,None,323.19082630006596,329.19423259980977,1,329.19452559994534,329.1973493997939,None,329.197463999968,329.1986993001774,329.1987111000344,,329.200300199911,4.330624399706721,None,,,,,,,,,,,,,,,,,,,,,,,,,,,,,,,,,,,,,,,,,,,,,,2,2023-12-11_11h37.15.895,watkins1,2023.2.3,99.71889264611796,56,2023-12-11 11h37.22.535019 +0000,
,,,,,,,,,,,8,0,8,0,,,,,,,,,,,,,329.20369949983433,,,,,,,,,,,,329.20059629995376,329.6957069002092,,,[],[],,,,,,,,,,,,None,None,,,,,,,,,,Kamera,krumm,"['Kamera', 'krumm']",restudy,2,,,,,,329.2005255999975,329.20056870020926,"['Flasche', 'Löffel', 'Hut', 'Eimer', 'Ring', 'Lampe', 'Kette', 'Trommel', 'Kamera', 'Vase', 'Kiste', 'Würfel', 'Fahrrad', 'Schlüssel', 'Uhr', 'Tasse', 'Stift', 'Hammer', 'Socke', 'Telefon', 'Jacke', 'Buch', 'Geige', 'Rucksack', 'Brille', 'Blume', 'Schere', 'Bürste', 'Kerze', 'Tasche']",329.69571769982576,329.698467399925,None,329.6985904001631,335.7090978999622,1,335.70939199998975,335.7120380997658,None,335.71214800002053,335.71332670003176,335.7133383997716,,335.71449980000034,1.5185505002737045,None,,,,,,,,,,,,,,,,,,,,,,,,,,,,,,,,,,,,,,,,,,,,,,2,2023-12-11_11h37.15.895,watkins1,2023.2.3,99.71889264611796,56,2023-12-11 11h37.22.535019 +0000,
,,,,,,,,,,,9,0,9,0,,,,,,,,,,,,,335.71852630004287,,,,,,,,,,,,335.71478360006586,336.2105780998245,,,[],[],,,,,,,,,,,,None,None,,,,,,,,,,Vase,dick,"['Vase', 'dick']",restudy,2,,,,,,335.71471789991483,335.71475639985874,"['Flasche', 'Löffel', 'Hut', 'Eimer', 'Ring', 'Lampe', 'Kette', 'Trommel', 'Kamera', 'Vase', 'Kiste', 'Würfel', 'Fahrrad', 'Schlüssel', 'Uhr', 'Tasse', 'Stift', 'Hammer', 'Socke', 'Telefon', 'Jacke', 'Buch', 'Geige', 'Rucksack', 'Brille', 'Blume', 'Schere', 'Bürste', 'Kerze', 'Tasche']",336.21058980003,336.21315639978275,None,336.21328510018066,342.22267849976197,2,342.222974000033,342.2254949999042,None,342.22561090020463,342.2266720999032,342.22668369999155,,342.2277183001861,1.9479412999935448,None,,,,,,,,,,,,,,,,,,,,,,,,,,,,,,,,,,,,,,,,,,,,,,2,2023-12-11_11h37.15.895,watkins1,2023.2.3,99.71889264611796,56,2023-12-11 11h37.22.535019 +0000,
,,,,,,,,,,,10,0,10,0,,,,,,,,,,,,,342.23213559994474,,,,,,,,,,,,342.227998000104,342.7241870998405,,,[],[],,,,,,,,,,,,None,None,,,,,,,,,,Kiste,elegant,"['Kiste', 'elegant']",test_sub,2,,,,,,342.2279340000823,342.22797159990296,"['Flasche', 'Löffel', 'Hut', 'Eimer', 'Ring', 'Lampe', 'Kette', 'Trommel', 'Kamera', 'Vase', 'Kiste', 'Würfel', 'Fahrrad', 'Schlüssel', 'Uhr', 'Tasse', 'Stift', 'Hammer', 'Socke', 'Telefon', 'Jacke', 'Buch', 'Geige', 'Rucksack', 'Brille', 'Blume', 'Schere', 'Bürste', 'Kerze', 'Tasche']",342.72419920004904,342.7267232998274,None,342.72684689983726,342.728260200005,None,342.7283692001365,342.7297765999101,None,342.7298834999092,342.7310476000421,342.7310601999052,0,348.7337572001852,,,,,,,,,,,,,,,,,,,,,,,,,,,,,,,,,,,,,,,,,,,,,,,,2,2023-12-11_11h37.15.895,watkins1,2023.2.3,99.71889264611796,56,2023-12-11 11h37.22.535019 +0000,
,,,,,,,,,,,11,0,11,0,,,,,,,,,,,,,348.74357500020415,,,,,,,,,,,,348.73403290007263,349.2255607000552,,,[],[],,,,,,,,,,,,None,None,,,,,,,,,,Würfel,hübsch,"['Würfel', 'hübsch']",restudy,2,,,,,,348.7339685000479,348.73400440020487,"['Flasche', 'Löffel', 'Hut', 'Eimer', 'Ring', 'Lampe', 'Kette', 'Trommel', 'Kamera', 'Vase', 'Kiste', 'Würfel', 'Fahrrad', 'Schlüssel', 'Uhr', 'Tasse', 'Stift', 'Hammer', 'Socke', 'Telefon', 'Jacke', 'Buch', 'Geige', 'Rucksack', 'Brille', 'Blume', 'Schere', 'Bürste', 'Kerze', 'Tasche']",349.2255711997859,349.2282855999656,None,349.2284078001976,355.2387626999989,2,355.23906859988347,355.24176979996264,None,355.24188550002873,355.2430845000781,355.24309600004926,,355.2442748998292,2.23669630009681,None,,,,,,,,,,,,,,,,,,,,,,,,,,,,,,,,,,,,,,,,,,,,,,2,2023-12-11_11h37.15.895,watkins1,2023.2.3,99.71889264611796,56,2023-12-11 11h37.22.535019 +0000,
,,,,,,,,,,,12,0,12,0,,,,,,,,,,,,,355.24818750005215,,,,,,,,,,,,355.24455810012296,355.7403175001964,,,[],[],,,,,,,,,,,,None,None,,,,,,,,,,Fahrrad,lustig,"['Fahrrad', 'lustig']",test_sub,2,,,,,,355.2444895999506,355.2445280998945,"['Flasche', 'Löffel', 'Hut', 'Eimer', 'Ring', 'Lampe', 'Kette', 'Trommel', 'Kamera', 'Vase', 'Kiste', 'Würfel', 'Fahrrad', 'Schlüssel', 'Uhr', 'Tasse', 'Stift', 'Hammer', 'Socke', 'Telefon', 'Jacke', 'Buch', 'Geige', 'Rucksack', 'Brille', 'Blume', 'Schere', 'Bürste', 'Kerze', 'Tasche']",355.740328699816,355.74306190013885,None,355.7431879998185,355.74463240010664,None,355.7447401997633,355.7461788998917,None,355.7462845998816,355.74746820004657,355.747482100036,0,361.7502231001854,,,,,,,,,,,,,,,,,,,,,,,,,,,,,,,,,,,,,,,,,,,,,,,,2,2023-12-11_11h37.15.895,watkins1,2023.2.3,99.71889264611796,56,2023-12-11 11h37.22.535019 +0000,
,,,,,,,,,,,13,0,13,0,,,,,,,,,,,,,361.7599654002115,,,,,,,,,,,,361.7505092998035,362.2419805000536,,,[],[],,,,,,,,,,,,None,None,,,,,,,,,,Schlüssel,blass,"['Schlüssel', 'blass']",restudy,2,,,,,,361.75044229999185,361.7504790001549,"['Flasche', 'Löffel', 'Hut', 'Eimer', 'Ring', 'Lampe', 'Kette', 'Trommel', 'Kamera', 'Vase', 'Kiste', 'Würfel', 'Fahrrad', 'Schlüssel', 'Uhr', 'Tasse', 'Stift', 'Hammer', 'Socke', 'Telefon', 'Jacke', 'Buch', 'Geige', 'Rucksack', 'Brille', 'Blume', 'Schere', 'Bürste', 'Kerze', 'Tasche']",362.24199139978737,362.2448670999147,None,362.2449940000661,368.25110730016604,1,368.25141720008105,368.2541570998728,None,368.2542678997852,368.2554999999702,368.25551149994135,,368.25665189977735,1.9158764001913369,None,,,,,,,,,,,,,,,,,,,,,,,,,,,,,,,,,,,,,,,,,,,,,,2,2023-12-11_11h37.15.895,watkins1,2023.2.3,99.71889264611796,56,2023-12-11 11h37.22.535019 +0000,
,,,,,,,,,,,14,0,14,0,,,,,,,,,,,,,368.26057709986344,,,,,,,,,,,,368.2569296997972,368.7526173000224,,,[],[],,,,,,,,,,,,None,None,,,,,,,,,,Uhr,schwer,"['Uhr', 'schwer']",restudy,2,,,,,,368.2568648997694,368.2569029000588,"['Flasche', 'Löffel', 'Hut', 'Eimer', 'Ring', 'Lampe', 'Kette', 'Trommel', 'Kamera', 'Vase', 'Kiste', 'Würfel', 'Fahrrad', 'Schlüssel', 'Uhr', 'Tasse', 'Stift', 'Hammer', 'Socke', 'Telefon', 'Jacke', 'Buch', 'Geige', 'Rucksack', 'Brille', 'Blume', 'Schere', 'Bürste', 'Kerze', 'Tasche']",368.7526274002157,368.7552939001471,None,368.75541799981147,374.7560819000937,1,374.7563785999082,374.7589210998267,None,374.75903310021386,374.7600659998134,374.76007749978453,,374.7612483999692,2.1982215996831656,None,,,,,,,,,,,,,,,,,,,,,,,,,,,,,,,,,,,,,,,,,,,,,,2,2023-12-11_11h37.15.895,watkins1,2023.2.3,99.71889264611796,56,2023-12-11 11h37.22.535019 +0000,
,,,,,,,,,,,15,0,15,0,,,,,,,,,,,,,374.76553560001776,,,,,,,,,,,,374.76152520021424,375.2575102997944,,,[],[],,,,,,,,,,,,None,None,,,,,,,,,,Tasse,kratzig,"['Tasse', 'kratzig']",restudy,2,,,,,,374.7614608001895,374.76149859977886,"['Flasche', 'Löffel', 'Hut', 'Eimer', 'Ring', 'Lampe', 'Kette', 'Trommel', 'Kamera', 'Vase', 'Kiste', 'Würfel', 'Fahrrad', 'Schlüssel', 'Uhr', 'Tasse', 'Stift', 'Hammer', 'Socke', 'Telefon', 'Jacke', 'Buch', 'Geige', 'Rucksack', 'Brille', 'Blume', 'Schere', 'Bürste', 'Kerze', 'Tasche']",375.25752069987357,375.2602141001262,None,375.2603393997997,381.2627824000083,1,381.2630743999034,381.26575270015746,None,381.26586339995265,381.2670180001296,381.26702960021794,,381.26822199998423,1.1006803000345826,None,,,,,,,,,,,,,,,,,,,,,,,,,,,,,,,,,,,,,,,,,,,,,,2,2023-12-11_11h37.15.895,watkins1,2023.2.3,99.71889264611796,56,2023-12-11 11h37.22.535019 +0000,
,,,,,,,,,,,16,0,16,0,,,,,,,,,,,,,381.2723489999771,,,,,,,,,,,,381.268501999788,381.76427750010043,,,[],[],,,,,,,,,,,,None,None,,,,,,,,,,Stift,gepunktet,"['Stift', 'gepunktet']",restudy,2,,,,,,381.2684371997602,381.2684749998152,"['Flasche', 'Löffel', 'Hut', 'Eimer', 'Ring', 'Lampe', 'Kette', 'Trommel', 'Kamera', 'Vase', 'Kiste', 'Würfel', 'Fahrrad', 'Schlüssel', 'Uhr', 'Tasse', 'Stift', 'Hammer', 'Socke', 'Telefon', 'Jacke', 'Buch', 'Geige', 'Rucksack', 'Brille', 'Blume', 'Schere', 'Bürste', 'Kerze', 'Tasche']",381.7642875998281,381.76709500001743,None,381.76721710013226,387.7693965001963,1,387.76969589991495,387.7724123997614,None,387.7725232997909,387.7736709001474,387.7736824997701,,387.7749270000495,1.1617496996186674,None,,,,,,,,,,,,,,,,,,,,,,,,,,,,,,,,,,,,,,,,,,,,,,2,2023-12-11_11h37.15.895,watkins1,2023.2.3,99.71889264611796,56,2023-12-11 11h37.22.535019 +0000,
,,,,,,,,,,,17,0,17,0,,,,,,,,,,,,,387.77886539977044,,,,,,,,,,,,387.7752065998502,388.2709567998536,,,[],[],,,,,,,,,,,,None,None,,,,,,,,,,Hammer,zart,"['Hammer', 'zart']",restudy,2,,,,,,387.7751413998194,387.77517940010875,"['Flasche', 'Löffel', 'Hut', 'Eimer', 'Ring', 'Lampe', 'Kette', 'Trommel', 'Kamera', 'Vase', 'Kiste', 'Würfel', 'Fahrrad', 'Schlüssel', 'Uhr', 'Tasse', 'Stift', 'Hammer', 'Socke', 'Telefon', 'Jacke', 'Buch', 'Geige', 'Rucksack', 'Brille', 'Blume', 'Schere', 'Bürste', 'Kerze', 'Tasche']",388.2709670998156,388.27391320001334,None,388.2740365997888,394.27860620012507,1,394.27891260012984,394.28146150009707,None,394.28157089976594,394.2827499997802,394.2827616999857,,394.2837924999185,1.2791458000428975,None,,,,,,,,,,,,,,,,,,,,,,,,,,,,,,,,,,,,,,,,,,,,,,2,2023-12-11_11h37.15.895,watkins1,2023.2.3,99.71889264611796,56,2023-12-11 11h37.22.535019 +0000,
,,,,,,,,,,,18,0,18,0,,,,,,,,,,,,,394.2880644998513,,,,,,,,,,,,394.2840710999444,394.77994830021635,,,[],[],,,,,,,,,,,,2.578942900057882,None,,,,,Socke,,,,,Socke,nass,"['Socke', 'nass']",test_sub,2,,,,,,394.28400610014796,394.284044300206,"['Flasche', 'Löffel', 'Hut', 'Eimer', 'Ring', 'Lampe', 'Kette', 'Trommel', 'Kamera', 'Vase', 'Kiste', 'Würfel', 'Fahrrad', 'Schlüssel', 'Uhr', 'Tasse', 'Stift', 'Hammer', 'Socke', 'Telefon', 'Jacke', 'Buch', 'Geige', 'Rucksack', 'Brille', 'Blume', 'Schere', 'Bürste', 'Kerze', 'Tasche']",394.77995949983597,394.78267390001565,None,394.7827996998094,394.7842306001112,None,394.78434159979224,394.7857822999358,None,394.7858890998177,394.7870570998639,394.78707000007853,1,400.7903828001581,,,,,,,,,,,,,,,,,,,,,,,,,,,,,,,,,,,,,,,,,,,,,,,,2,2023-12-11_11h37.15.895,watkins1,2023.2.3,99.71889264611796,56,2023-12-11 11h37.22.535019 +0000,
,,,,,,,,,,,19,0,19,0,,,,,,,,,,,,,400.8001410998404,,,,,,,,,,,,400.7906638998538,401.28218080010265,,,[],[],,,,,,,,,,,,None,None,,,,,,,,,,Telefon,teuer,"['Telefon', 'teuer']",test_sub,2,,,,,,400.7905963999219,400.7906336998567,"['Flasche', 'Löffel', 'Hut', 'Eimer', 'Ring', 'Lampe', 'Kette', 'Trommel', 'Kamera', 'Vase', 'Kiste', 'Würfel', 'Fahrrad', 'Schlüssel', 'Uhr', 'Tasse', 'Stift', 'Hammer', 'Socke', 'Telefon', 'Jacke', 'Buch', 'Geige', 'Rucksack', 'Brille', 'Blume', 'Schere', 'Bürste', 'Kerze', 'Tasche']",401.28219110006467,401.2847723001614,None,401.2848992999643,401.28731539985165,None,401.2874238998629,401.2899373997934,None,401.2900450997986,401.29123609978706,401.2912483001128,0,407.2966764001176,,,,,,,,,,,,,,,,,,,,,,,,,,,,,,,,,,,,,,,,,,,,,,,,2,2023-12-11_11h37.15.895,watkins1,2023.2.3,99.71889264611796,56,2023-12-11 11h37.22.535019 +0000,
,,,,,,,,,,,20,0,20,0,,,,,,,,,,,,,407.3063403000124,,,,,,,,,,,,407.29697160003707,407.78839429980144,,,[],[],,,,,,,,,,,,1.79848189977929,None,,,,,Jacke,,,,,Jacke,neu,"['Jacke', 'neu']",test_sub,2,,,,,,407.29690279997885,407.29694190016016,"['Flasche', 'Löffel', 'Hut', 'Eimer', 'Ring', 'Lampe', 'Kette', 'Trommel', 'Kamera', 'Vase', 'Kiste', 'Würfel', 'Fahrrad', 'Schlüssel', 'Uhr', 'Tasse', 'Stift', 'Hammer', 'Socke', 'Telefon', 'Jacke', 'Buch', 'Geige', 'Rucksack', 'Brille', 'Blume', 'Schere', 'Bürste', 'Kerze', 'Tasche']",407.78840520000085,407.7910531000234,None,407.79117800015956,407.7936400999315,None,407.7937483000569,407.79620679980144,None,407.796313600149,407.7974828002043,407.79749529995024,1,413.8017112999223,,,,,,,,,,,,,,,,,,,,,,,,,,,,,,,,,,,,,,,,,,,,,,,,2,2023-12-11_11h37.15.895,watkins1,2023.2.3,99.71889264611796,56,2023-12-11 11h37.22.535019 +0000,
,,,,,,,,,,,21,0,21,0,,,,,,,,,,,,,413.81152610015124,,,,,,,,,,,,413.80199429998174,414.29356480017304,,,[],[],,,,,,,,,,,,3.022750500123948,None,,,,,Buch,,,,,Buch,robust,"['Buch', 'robust']",test_sub,2,,,,,,413.8019270999357,413.8019655998796,"['Flasche', 'Löffel', 'Hut', 'Eimer', 'Ring', 'Lampe', 'Kette', 'Trommel', 'Kamera', 'Vase', 'Kiste', 'Würfel', 'Fahrrad', 'Schlüssel', 'Uhr', 'Tasse', 'Stift', 'Hammer', 'Socke', 'Telefon', 'Jacke', 'Buch', 'Geige', 'Rucksack', 'Brille', 'Blume', 'Schere', 'Bürste', 'Kerze', 'Tasche']",414.29357510013506,414.2960089999251,None,414.2961327000521,414.2983884001151,None,414.2984985001385,414.30073839984834,None,414.30084889987484,414.301890200004,414.3019024999812,1,420.3065975001082,,,,,,,,,,,,,,,,,,,,,,,,,,,,,,,,,,,,,,,,,,,,,,,,2,2023-12-11_11h37.15.895,watkins1,2023.2.3,99.71889264611796,56,2023-12-11 11h37.22.535019 +0000,
,,,,,,,,,,,22,0,22,0,,,,,,,,,,,,,420.3164468999021,,,,,,,,,,,,420.3068785998039,420.7983423001133,,,[],[],,,,,,,,,,,,None,None,,,,,,,,,,Geige,niedlich,"['Geige', 'niedlich']",restudy,2,,,,,,420.3068107999861,420.3068496999331,"['Flasche', 'Löffel', 'Hut', 'Eimer', 'Ring', 'Lampe', 'Kette', 'Trommel', 'Kamera', 'Vase', 'Kiste', 'Würfel', 'Fahrrad', 'Schlüssel', 'Uhr', 'Tasse', 'Stift', 'Hammer', 'Socke', 'Telefon', 'Jacke', 'Buch', 'Geige', 'Rucksack', 'Brille', 'Blume', 'Schere', 'Bürste', 'Kerze', 'Tasche']",420.7983519998379,420.8010093001649,None,420.80113109992817,426.81142510008067,2,426.81171960011125,426.81445549987257,None,426.81456580013037,426.81575910001993,426.81577070010826,,426.8172786999494,1.9039909997954965,None,,,,,,,,,,,,,,,,,,,,,,,,,,,,,,,,,,,,,,,,,,,,,,2,2023-12-11_11h37.15.895,watkins1,2023.2.3,99.71889264611796,56,2023-12-11 11h37.22.535019 +0000,
,,,,,,,,,,,23,0,23,0,,,,,,,,,,,,,426.8209775001742,,,,,,,,,,,,426.8175634997897,427.3128605000675,,,[],[],,,,,,,,,,,,None,None,,,,,,,,,,Rucksack,rustikal,"['Rucksack', 'rustikal']",restudy,2,,,,,,426.81749820010737,426.8175364998169,"['Flasche', 'Löffel', 'Hut', 'Eimer', 'Ring', 'Lampe', 'Kette', 'Trommel', 'Kamera', 'Vase', 'Kiste', 'Würfel', 'Fahrrad', 'Schlüssel', 'Uhr', 'Tasse', 'Stift', 'Hammer', 'Socke', 'Telefon', 'Jacke', 'Buch', 'Geige', 'Rucksack', 'Brille', 'Blume', 'Schere', 'Bürste', 'Kerze', 'Tasche']",427.31287120003253,427.3156798998825,None,427.31580360000953,433.3170807999559,1,433.3173794001341,433.3201338001527,None,433.32024540007114,433.32145329983905,433.3214648999274,,433.3226737999357,1.9890199000947177,None,,,,,,,,,,,,,,,,,,,,,,,,,,,,,,,,,,,,,,,,,,,,,,2,2023-12-11_11h37.15.895,watkins1,2023.2.3,99.71889264611796,56,2023-12-11 11h37.22.535019 +0000,
,,,,,,,,,,,24,0,24,0,,,,,,,,,,,,,433.326455200091,,,,,,,,,,,,433.32295549986884,433.8189210998826,,,[],[],,,,,,,,,,,,1.6247854996472597,None,,,,,Brille,,,,,Brille,matt,"['Brille', 'matt']",test_sub,2,,,,,,433.32288949983194,433.3229282000102,"['Flasche', 'Löffel', 'Hut', 'Eimer', 'Ring', 'Lampe', 'Kette', 'Trommel', 'Kamera', 'Vase', 'Kiste', 'Würfel', 'Fahrrad', 'Schlüssel', 'Uhr', 'Tasse', 'Stift', 'Hammer', 'Socke', 'Telefon', 'Jacke', 'Buch', 'Geige', 'Rucksack', 'Brille', 'Blume', 'Schere', 'Bürste', 'Kerze', 'Tasche']",433.8189313998446,433.8215839997865,None,433.8217050000094,433.82327250018716,None,433.82338010007516,433.8248129999265,None,433.82491869991645,433.826057900209,433.82606999995187,1,439.82896929979324,,,,,,,,,,,,,,,,,,,,,,,,,,,,,,,,,,,,,,,,,,,,,,,,2,2023-12-11_11h37.15.895,watkins1,2023.2.3,99.71889264611796,56,2023-12-11 11h37.22.535019 +0000,
,,,,,,,,,,,25,0,25,0,,,,,,,,,,,,,439.8386498000473,,,,,,,,,,,,439.82925749989226,440.32067030016333,,,[],[],,,,,,,,,,,,None,None,,,,,,,,,,Blume,schlicht,"['Blume', 'schlicht']",test_sub,2,,,,,,439.82918860018253,439.8292276998982,"['Flasche', 'Löffel', 'Hut', 'Eimer', 'Ring', 'Lampe', 'Kette', 'Trommel', 'Kamera', 'Vase', 'Kiste', 'Würfel', 'Fahrrad', 'Schlüssel', 'Uhr', 'Tasse', 'Stift', 'Hammer', 'Socke', 'Telefon', 'Jacke', 'Buch', 'Geige', 'Rucksack', 'Brille', 'Blume', 'Schere', 'Bürste', 'Kerze', 'Tasche']",440.320680399891,440.3232493000105,None,440.3233733000234,440.3257244997658,None,440.3258318998851,440.32818470010534,None,440.328290599864,440.32956469990313,440.3295769998804,0,446.3343885000795,,,,,,,,,,,,,,,,,,,,,,,,,,,,,,,,,,,,,,,,,,,,,,,,2,2023-12-11_11h37.15.895,watkins1,2023.2.3,99.71889264611796,56,2023-12-11 11h37.22.535019 +0000,
,,,,,,,,,,,26,0,26,0,,,,,,,,,,,,,446.3442163001746,,,,,,,,,,,,446.33466940000653,446.8263572999276,,,[],[],,,,,,,,,,,,None,None,,,,,,,,,,Schere,kalt,"['Schere', 'kalt']",restudy,2,,,,,,446.33460249984637,446.33464040001854,"['Flasche', 'Löffel', 'Hut', 'Eimer', 'Ring', 'Lampe', 'Kette', 'Trommel', 'Kamera', 'Vase', 'Kiste', 'Würfel', 'Fahrrad', 'Schlüssel', 'Uhr', 'Tasse', 'Stift', 'Hammer', 'Socke', 'Telefon', 'Jacke', 'Buch', 'Geige', 'Rucksack', 'Brille', 'Blume', 'Schere', 'Bürste', 'Kerze', 'Tasche']",446.8263671998866,446.82911239983514,None,446.82923510018736,452.8308414001949,3,452.831135999877,452.8336738999933,None,452.83378419978544,452.83495939988643,452.83497099997476,,452.83599939988926,1.8117913999594748,None,,,,,,,,,,,,,,,,,,,,,,,,,,,,,,,,,,,,,,,,,,,,,,2,2023-12-11_11h37.15.895,watkins1,2023.2.3,99.71889264611796,56,2023-12-11 11h37.22.535019 +0000,
,,,,,,,,,,,27,0,27,0,,,,,,,,,,,,,452.8403067002073,,,,,,,,,,,,452.8362809000537,453.33234409987926,,,[],[],,,,,,,,,,,,None,None,,,,,,,,,,Bürste,schmutzig,"['Bürste', 'schmutzig']",test_sub,2,,,,,,452.83621589979157,452.8362541999668,"['Flasche', 'Löffel', 'Hut', 'Eimer', 'Ring', 'Lampe', 'Kette', 'Trommel', 'Kamera', 'Vase', 'Kiste', 'Würfel', 'Fahrrad', 'Schlüssel', 'Uhr', 'Tasse', 'Stift', 'Hammer', 'Socke', 'Telefon', 'Jacke', 'Buch', 'Geige', 'Rucksack', 'Brille', 'Blume', 'Schere', 'Bürste', 'Kerze', 'Tasche']",453.33235510019585,453.3348765000701,None,453.33500069985166,453.33642130019143,None,453.3365270998329,453.3379363999702,None,453.3380432999693,453.33921340014786,453.3392257997766,0,459.3418756998144,,,,,,,,,,,,,,,,,,,,,,,,,,,,,,,,,,,,,,,,,,,,,,,,2,2023-12-11_11h37.15.895,watkins1,2023.2.3,99.71889264611796,56,2023-12-11 11h37.22.535019 +0000,
,,,,,,,,,,,28,0,28,0,,,,,,,,,,,,,459.3516759998165,,,,,,,,,,,,459.34215639997274,459.83363940007985,,,[],[],,,,,,,,,,,,1.737443100195378,None,,,,,Kerze,,,,,Kerze,flach,"['Kerze', 'flach']",test_sub,2,,,,,,459.34208810003474,459.34212720021605,"['Flasche', 'Löffel', 'Hut', 'Eimer', 'Ring', 'Lampe', 'Kette', 'Trommel', 'Kamera', 'Vase', 'Kiste', 'Würfel', 'Fahrrad', 'Schlüssel', 'Uhr', 'Tasse', 'Stift', 'Hammer', 'Socke', 'Telefon', 'Jacke', 'Buch', 'Geige', 'Rucksack', 'Brille', 'Blume', 'Schere', 'Bürste', 'Kerze', 'Tasche']",459.8336493000388,459.83644580002874,None,459.8365663001314,459.83912800019607,None,459.83923819987103,459.84179619979113,None,459.8419047999196,459.84305489994586,459.8430671999231,1,465.8477813000791,,,,,,,,,,,,,,,,,,,,,,,,,,,,,,,,,,,,,,,,,,,,,,,,2,2023-12-11_11h37.15.895,watkins1,2023.2.3,99.71889264611796,56,2023-12-11 11h37.22.535019 +0000,
,,,,,,,,,,,29,0,29,0,,,,,,,,,,,,,465.85757130011916,,,,,,,,,,,,465.84806199977174,466.33958130003884,,,[],[],,,,,,,,,,,,None,None,,,,,,,,,,Tasche,flauschig,"['Tasche', 'flauschig']",restudy,2,,,,,,465.8479953999631,465.84803280001506,"['Flasche', 'Löffel', 'Hut', 'Eimer', 'Ring', 'Lampe', 'Kette', 'Trommel', 'Kamera', 'Vase', 'Kiste', 'Würfel', 'Fahrrad', 'Schlüssel', 'Uhr', 'Tasse', 'Stift', 'Hammer', 'Socke', 'Telefon', 'Jacke', 'Buch', 'Geige', 'Rucksack', 'Brille', 'Blume', 'Schere', 'Bürste', 'Kerze', 'Tasche']",466.33959179976955,466.34227850008756,None,466.3424057997763,472.34451329987496,1,472.34480600012466,472.34757310012355,None,472.347683200147,472.3488480001688,472.3488594000228,,472.35039500007406,2.170541100203991,None,,,,,,,,,,,,,,,,,,,,,,,,,,,,,,,,,,,,,,,,,,,,,,2,2023-12-11_11h37.15.895,watkins1,2023.2.3,99.71889264611796,56,2023-12-11 11h37.22.535019 +0000,
,,,,,,,,,,,,,,,,,,,,,,,,,,,,,,,,,,,,,,,,,,,,,,,,,,,,,,,,,,,,,,,,,,,,,,,2,,,,,,,,,,,,,,,,,,,,,,,,,,,,,,,,,,,,,,,,,,,,,,,,,,,,,,,,,,,,,,,,,,,,,,2,2023-12-11_11h37.15.895,watkins1,2023.2.3,99.71889264611796,56,2023-12-11 11h37.22.535019 +0000,
(4 : 2) + 4 = 6 ,Correct,button_correct,,,,,,,,,,,,,0,0,0,1,,,,,,,,,521.7268798998557,,,,,,,,,,520.6803954998031,521.6836606999859,,,,,['button_correct'],[2.4975224998779595],,,,,,,,,,,,,,,,,,,,,,,,,,distractorTask,2,,,,,,,,,,,,,,,,,,,,,,,,,521.7077966998331,521.7268798998557,524.209455399774,[0.29444444444444445],[-0.387037037037037],[1],[0],[0],[2.4975224998779595],['button_correct'],524.2101396000944,525.2130776997656,,,,,,,,,,,,,,,,,,,,,,,,,,,,,,,,,,2,2023-12-11_11h37.15.895,watkins1,2023.2.3,99.71889264611796,56,2023-12-11 11h37.22.535019 +0000,
(28 : 7) - 3 = 1 ,Correct,button_correct,,,,,,,,,,,,,0,1,1,0,,,,,,,,,525.2230146997608,,,,,,,,,,,,,,,,['button_correct'],[7.115613999776542],,,,,,,,,,,,,,,,,,,,,,,,,,distractorTask,2,,,,,,,,,,,,,,,,,,,,,,,,,525.2132709999569,525.2230146997608,532.3322560000233,[0.2824074074074074],[-0.3888888888888889],[1],[0],[0],[7.115613999776542],['button_correct'],532.3326316000894,533.3362973001786,,,,,,,,,,,,,,,,,,,,,,,,,,,,,,,,,,2,2023-12-11_11h37.15.895,watkins1,2023.2.3,99.71889264611796,56,2023-12-11 11h37.22.535019 +0000,
(54 : 6) - 10 = 0 ,Incorrect,button_incorrect,,,,,,,,,,,,,0,2,2,5,,,,,,,,,533.3462769999169,,,,,,,,,,,,,,,,['button_incorrect'],[5.851157399825752],,,,,,,,,,,,,,,,,,,,,,,,,,distractorTask,2,,,,,,,,,,,,,,,,,,,,,,,,,533.3364936998114,533.3462769999169,539.1904778000899,[-0.375],[-0.38055555555555554],[1],[0],[0],[5.851157399825752],['button_incorrect'],539.1908611999825,540.1938179000281,,,,,,,,,,,,,,,,,,,,,,,,,,,,,,,,,,2,2023-12-11_11h37.15.895,watkins1,2023.2.3,99.71889264611796,56,2023-12-11 11h37.22.535019 +0000,
(9 x 5) - 9 = 36 ,Correct,button_correct,,,,,,,,,,,,,0,3,3,4,,,,,,,,,540.2038686000742,,,,,,,,,,,,,,,,['button_correct'],[6.644200900103897],,,,,,,,,,,,,,,,,,,,,,,,,,distractorTask,2,,,,,,,,,,,,,,,,,,,,,,,,,540.1940108998679,540.2038686000742,546.8414635998197,[0.3768518518518518],[-0.4111111111111111],[1],[0],[0],[6.644200900103897],['button_correct'],546.841840100009,547.8448753999546,,,,,,,,,,,,,,,,,,,,,,,,,,,,,,,,,,2,2023-12-11_11h37.15.895,watkins1,2023.2.3,99.71889264611796,56,2023-12-11 11h37.22.535019 +0000,
(80 : 10) + 9 = 17 ,Correct,button_correct,,,,,,,,,,,,,0,4,4,3,,,,,,,,,547.8548575001769,,,,,,,,,,,,,,,,['button_correct'],[4.185459099709988],,,,,,,,,,,,,,,,,,,,,,,,,,distractorTask,2,,,,,,,,,,,,,,,,,,,,,,,,,547.8450611000881,547.8548575001769,552.0324895000085,[0.33055555555555555],[-0.4212962962962963],[1],[0],[0],[4.185459099709988],['button_correct'],552.0328660001978,553.0358969997615,,,,,,,,,,,,,,,,,,,,,,,,,,,,,,,,,,2,2023-12-11_11h37.15.895,watkins1,2023.2.3,99.71889264611796,56,2023-12-11 11h37.22.535019 +0000,
(6 x 3) + 10 = 27 ,Incorrect,button_incorrect,,,,,,,,,,,,,0,5,5,8,,,,,,,,,553.0459308000281,,,,,,,,,,,,,,,,['button_incorrect'],[3.191322499886155],,,,,,,,,,,,,,,,,,,,,,,,,,distractorTask,2,,,,,,,,,,,,,,,,,,,,,,,,,553.0360881998204,553.0459308000281,556.2291573998518,[-0.29259259259259257],[-0.3972222222222222],[1],[0],[0],[3.191322499886155],['button_incorrect'],556.2295376998372,557.2327902000397,,,,,,,,,,,,,,,,,,,,,,,,,,,,,,,,,,2,2023-12-11_11h37.15.895,watkins1,2023.2.3,99.71889264611796,56,2023-12-11 11h37.22.535019 +0000,
(7 x 6) + 9 = 48 ,Incorrect,button_incorrect,,,,,,,,,,,,,0,6,6,9,,,,,,,,,557.2427496002056,,,,,,,,,,,,,,,,['button_incorrect'],[9.086103700101376],,,,,,,,,,,,,,,,,,,,,,,,,,distractorTask,2,,,,,,,,,,,,,,,,,,,,,,,,,557.2329918001778,557.2427496002056,566.3208535001613,[-0.35833333333333334],[-0.3990740740740741],[1],[0],[0],[9.086103700101376],['button_incorrect'],566.3212378001772,567.3242959999479,,,,,,,,,,,,,,,,,,,,,,,,,,,,,,,,,,2,2023-12-11_11h37.15.895,watkins1,2023.2.3,99.71889264611796,56,2023-12-11 11h37.22.535019 +0000,
(25 : 5) + 5 = 9 ,Incorrect,button_incorrect,,,,,,,,,,,,,0,7,7,6,,,,,,,,,567.3342177998275,,,,,,,,,,,,,,,,['button_incorrect'],[2.418543000239879],,,,,,,,,,,,,,,,,,,,,,,,,,distractorTask,2,,,,,,,,,,,,,,,,,,,,,,,,,567.3244961998425,567.3342177998275,569.7447513001971,[-0.35648148148148145],[-0.3972222222222222],[1],[0],[0],[2.418543000239879],['button_incorrect'],569.7451252997853,570.7481929999776,,,,,,,,,,,,,,,,,,,,,,,,,,,,,,,,,,2,2023-12-11_11h37.15.895,watkins1,2023.2.3,99.71889264611796,56,2023-12-11 11h37.22.535019 +0000,
(2 x 5) + 3 = 13 ,Correct,button_correct,,,,,,,,,,,,,0,8,8,2,,,,,,,,,570.7581718000583,,,,,,,,,,,,,,,,['button_correct'],[2.2875656001269817],,,,,,,,,,,,,,,,,,,,,,,,,,distractorTask,2,,,,,,,,,,,,,,,,,,,,,,,,,570.7483802000061,570.7581718000583,573.0376741001382,[0.40925925925925927],[-0.4074074074074074],[1],[0],[0],[2.2875656001269817],['button_correct'],573.0380501002073,574.042419299949,,,,,,,,,,,,,,,,,,,,,,,,,,,,,,,,,,2,2023-12-11_11h37.15.895,watkins1,2023.2.3,99.71889264611796,56,2023-12-11 11h37.22.535019 +0000,
(40 : 5) + 8 = 15 ,Incorrect,button_incorrect,,,,,,,,,,,,,0,9,9,7,,,,,,,,,574.0513463998213,,,,,,,,,,,,,,,,['button_incorrect'],[2.778811900410801],,,,,,,,,,,,,,,,,,,,,,,,,,distractorTask,2,,,,,,,,,,,,,,,,,,,,,,,,,574.0426317001693,574.0513463998213,576.8231890001334,[-0.3527777777777778],[-0.39444444444444443],[1],[0],[0],[2.778811900410801],['button_incorrect'],576.8235681001097,577.8267406001687,,,,,,,,,,,,,,,,,,,,,,,,,,,,,,,,,,2,2023-12-11_11h37.15.895,watkins1,2023.2.3,99.71889264611796,56,2023-12-11 11h37.22.535019 +0000,
,,,,,,,,,,,,,,,,,,,,,,,,,,,,,,,,,,,,,,,,,,,,,,,,,,,,,,,,,,,,,,,,,,,,,,,2,,,,,,,,,,,,,,,,,,,,,,,,,,,,,,,,,,,,,,,,,,,,,,,,,,,,,,,,,,,,,,,,,,,,,,2,2023-12-11_11h37.15.895,watkins1,2023.2.3,99.71889264611796,56,2023-12-11 11h37.22.535019 +0000,
,,,,,,,,,,,,,,,,,,,0,0,0,0,,,,,600.597203399986,,,,,,,,,,,,,,,,Schere,7.783920200075954,,,,,,,,,,,,5.733276699669659,None,,,,,,,,,,,,,freeRecallSub,2,,,,,,,,,,,,,,,,,,,,,,,,,,,,,,,,,,,,,600.5885830000043,600.597203399986,600.597203399986,608.38970900001,return,7.783920200075954,None,Schere,"[0.049074074074074076, 0.025925925925925925]","[0.06296296296296296, 0.05185185185185185]","[1, 1]","[0, 0]","[0, 0]","[2.167561300098896, 3.00090270023793]",[],,,,,,,,,,,,,,,,,,,2,2023-12-11_11h37.15.895,watkins1,2023.2.3,99.71889264611796,56,2023-12-11 11h37.22.535019 +0000,
,,,,,,,,,,,,,,,,,,,1,0,1,0,,,,,608.4017881001346,,,,,,,,,,,,,,,,Buch,2.6353670000098646,,,,,,,,,,,,1.6485321996733546,None,,,,,,,,,,,,,freeRecallSub,2,,,,,,,,,,,,,,,,,,,,,,,,,,,,,,,,,,,,,608.3914965000004,608.4017881001346,608.4017881001346,611.044050199911,return,2.6353670000098646,None,Buch,[],[],[],[],[],[],[],,,,,,,,,,,,,,,,,,,2,2023-12-11_11h37.15.895,watkins1,2023.2.3,99.71889264611796,56,2023-12-11 11h37.22.535019 +0000,
,,,,,,,,,,,,,,,,,,,2,0,2,0,,,,,611.0546214999631,,,,,,,,,,,,,,,,Kerze,1.3984433999285102,,,,,,,,,,,,0.33074280014261603,None,,,,,,,,,,,,,freeRecallSub,2,,,,,,,,,,,,,,,,,,,,,,,,,,,,,,,,,,,,,611.0453026997857,611.0546214999631,611.0546214999631,612.4603649000637,return,1.3984433999285102,None,Kerze,[],[],[],[],[],[],[],,,,,,,,,,,,,,,,,,,2,2023-12-11_11h37.15.895,watkins1,2023.2.3,99.71889264611796,56,2023-12-11 11h37.22.535019 +0000,
,,,,,,,,,,,,,,,,,,,3,0,3,0,,,,,612.4703595000319,,,,,,,,,,,,,,,,Jacke,6.006756500340998,,,,,,,,,,,,1.4350658003240824,3.352940599899739,,,,,,,,,,,,,freeRecallSub,2,,,,,,,,,,,,,,,,,,,,,,,,,,,,,,,,,,,,,612.4616267001256,612.4703595000319,612.4703595000319,618.4852905999869,return,6.006756500340998,None,Jacke,[],[],[],[],[],[],[],,,,,,,,,,,,,,,,,,,2,2023-12-11_11h37.15.895,watkins1,2023.2.3,99.71889264611796,56,2023-12-11 11h37.22.535019 +0000,
,,,,,,,,,,,,,,,,,,,4,0,4,0,,,,,618.4961554999463,,,,,,,,,,,,,,,,Brille,2.6609459999017417,,,,,,,,,,,,0.963935500010848,None,,,,,,,,,,,,,freeRecallSub,2,,,,,,,,,,,,,,,,,,,,,,,,,,,,,,,,,,,,,618.4865407999605,618.4961554999463,618.4961554999463,621.1574802999385,return,2.6609459999017417,None,Brille,[],[],[],[],[],[],[],,,,,,,,,,,,,,,,,,,2,2023-12-11_11h37.15.895,watkins1,2023.2.3,99.71889264611796,56,2023-12-11 11h37.22.535019 +0000,
,,,,,,,,,,,,,,,,,,,5,0,5,0,,,,,621.1686879000627,,,,,,,,,,,,,,,,Hammer,4.148444199934602,,,,,,,,,,,,2.822033999953419,None,,,,,,,,,,,,,freeRecallSub,2,,,,,,,,,,,,,,,,,,,,,,,,,,,,,,,,,,,,,621.158740399871,621.1686879000627,621.1686879000627,625.326062399894,return,4.148444199934602,None,Hammer,[],[],[],[],[],[],[],,,,,,,,,,,,,,,,,,,2,2023-12-11_11h37.15.895,watkins1,2023.2.3,99.71889264611796,56,2023-12-11 11h37.22.535019 +0000,
,,,,,,,,,,,,,,,,,,,6,0,6,0,,,,,625.3375218999572,,,,,,,,,,,,,,,,Vase,2.0595405003987253,,,,,,,,,,,,0.7741411998867989,None,,,,,,,,,,,,,freeRecallSub,2,,,,,,,,,,,,,,,,,,,,,,,,,,,,,,,,,,,,,625.3273089001887,625.3375218999572,625.3375218999572,627.4066345999017,return,2.0595405003987253,None,Vase,[],[],[],[],[],[],[],,,,,,,,,,,,,,,,,,,2,2023-12-11_11h37.15.895,watkins1,2023.2.3,99.71889264611796,56,2023-12-11 11h37.22.535019 +0000,
,,,,,,,,,,,,,,,,,,,7,0,7,0,,,,,627.4180672001094,,,,,,,,,,,,,,,,Hund,3.5149672999978065,,,,,,,,,,,,2.621766499709338,None,,,,,,,,,,,,,freeRecallSub,2,,,,,,,,,,,,,,,,,,,,,,,,,,,,,,,,,,,,,627.4078787001781,627.4180672001094,627.4180672001094,630.9335472998209,return,3.5149672999978065,None,Hund,[],[],[],[],[],[],[],,,,,,,,,,,,,,,,,,,2,2023-12-11_11h37.15.895,watkins1,2023.2.3,99.71889264611796,56,2023-12-11 11h37.22.535019 +0000,
,,,,,,,,,,,,,,,,,,,8,0,8,0,,,,,630.9469743999653,,,,,,,,,,,,,,,,Katze,1.890046200249344,,,,,,,,,,,,0.36648689955472946,None,,,,,,,,,,,,,freeRecallSub,2,,,,,,,,,,,,,,,,,,,,,,,,,,,,,,,,,,,,,630.9350660000928,630.9469743999653,630.9469743999653,632.8390092998743,return,1.890046200249344,None,Katze,[],[],[],[],[],[],[],,,,,,,,,,,,,,,,,,,2,2023-12-11_11h37.15.895,watkins1,2023.2.3,99.71889264611796,56,2023-12-11 11h37.22.535019 +0000,
,,,,,,,,,,,,,,,,,,,9,0,9,0,,,,,632.85087009985,,,,,,,,,,,,,,,,Ring,10.346200000029057,,,,,,,,,,,,9.229655199684203,None,,,,,,,,,,,,,freeRecallSub,2,,,,,,,,,,,,,,,,,,,,,,,,,,,,,,,,,,,,,632.8402535999194,632.85087009985,632.85087009985,643.2044409001246,return,10.346200000029057,None,Ring,[],[],[],[],[],[],[],,,,,,,,,,,,,,,,,,,2,2023-12-11_11h37.15.895,watkins1,2023.2.3,99.71889264611796,56,2023-12-11 11h37.22.535019 +0000,
,,,,,,,,,,,,,,,,,,,10,0,10,0,,,,,643.2165517997928,,,,,,,,,,,,,,,,Tasse,34.16456950036809,,,,,,,,,,,,32.69555209996179,None,,,,,,,,,,,,,freeRecallSub,2,,,,,,,,,,,,,,,,,,,,,,,,,,,,,,,,,,,,,643.2056928998791,643.2165517997928,643.2165517997928,677.3872400000691,return,34.16456950036809,None,Tasse,[],[],[],[],[],[],[],,,,,,,,,,,,,,,,,,,2,2023-12-11_11h37.15.895,watkins1,2023.2.3,99.71889264611796,56,2023-12-11 11h37.22.535019 +0000,
,,,,,,,,,,,,,,,,,,,11,0,11,0,,,,,677.3995640999638,,,,,,,,,,,,,,,,Socke,10.765441399998963,,,,,,,,,,,,8.61803250014782,None,,,,,,,,,,,,,freeRecallSub,2,,,,,,,,,,,,,,,,,,,,,,,,,,,,,,,,,,,,,677.3884939998388,677.3995640999638,677.3995640999638,688.1655228999443,return,10.765441399998963,None,Socke,[],[],[],[],[],[],[],,,,,,,,,,,,,,,,,,,2,2023-12-11_11h37.15.895,watkins1,2023.2.3,99.71889264611796,56,2023-12-11 11h37.22.535019 +0000,
,,,,,,,,,,,,,,,,,,,12,0,12,0,,,,,688.1780461999588,,,,,,,,,,,,,,,,Kamera,5.890889099799097,,,,,,,,,,,,4.443356900010258,None,,,,,,,,,,,,,freeRecallSub,2,,,,,,,,,,,,,,,,,,,,,,,,,,,,,,,,,,,,,688.1667817002162,688.1780461999588,688.1780461999588,694.0759642999619,return,5.890889099799097,None,Kamera,[],[],[],[],[],[],[],,,,,,,,,,,,,,,,,,,2,2023-12-11_11h37.15.895,watkins1,2023.2.3,99.71889264611796,56,2023-12-11 11h37.22.535019 +0000,
,,,,,,,,,,,,,,,,,,,13,0,13,0,,,,,694.0883086998947,,,,,,,,,,,,,,,,Lampe,6.868733699899167,,,,,,,,,,,,5.635679299943149,None,,,,,,,,,,,,,freeRecallSub,2,,,,,,,,,,,,,,,,,,,,,,,,,,,,,,,,,,,,,694.0772227998823,694.0883086998947,694.0883086998947,700.9580614999868,return,6.868733699899167,None,Lampe,[],[],[],[],[],[],[],,,,,,,,,,,,,,,,,,,2,2023-12-11_11h37.15.895,watkins1,2023.2.3,99.71889264611796,56,2023-12-11 11h37.22.535019 +0000,
,,,,,,,,,,,,,,,,,,,14,0,14,0,,,,,700.9713082001545,,,,,,,,,,,,,,,,Flasche,13.393588700331748,,,,,,,,,,,,11.00937629956752,None,,,,,,,,,,,,,freeRecallSub,2,,,,,,,,,,,,,,,,,,,,,,,,,,,,,,,,,,,,,700.9593293000944,700.9713082001545,700.9713082001545,714.3684113998897,return,13.393588700331748,None,Flasche,[],[],[],[],[],[],[],,,,,,,,,,,,,,,,,,,2,2023-12-11_11h37.15.895,watkins1,2023.2.3,99.71889264611796,56,2023-12-11 11h37.22.535019 +0000,
,,,,,,,,,,,,,,,,,,,15,0,15,0,,,,,714.3817336000502,,,,,,,,,,,,,,,,Schöüssel,9.383381300140172,,,,,,,,,,,,6.902946799993515,None,,,,,,,,,,,,,freeRecallSub,2,,,,,,,,,,,,,,,,,,,,,,,,,,,,,,,,,,,,,714.3696655998938,714.3817336000502,714.3817336000502,723.7728554001078,return,9.383381300140172,None,Schöüssel,[],[],[],[],[],[],[],,,,,,,,,,,,,,,,,,,2,2023-12-11_11h37.15.895,watkins1,2023.2.3,99.71889264611796,56,2023-12-11 11h37.22.535019 +0000,
,,,,,,,,,,,,,,,,,,,16,0,16,0,,,,,723.7881188997999,,,,,,,,,,,,,,,,Rucksack,26.304763399995863,,,,,,,,,,,,23.042411900125444,None,,,,,,,,,,,,,freeRecallSub,2,,,,,,,,,,,,,,,,,,,,,,,,,,,,,,,,,,,,,723.7740997001529,723.7881188997999,723.7881188997999,750.0995554998517,return,26.304763399995863,None,Rucksack,[],[],[],[],[],[],[],,,,,,,,,,,,,,,,,,,2,2023-12-11_11h37.15.895,watkins1,2023.2.3,99.71889264611796,56,2023-12-11 11h37.22.535019 +0000,
,,,,,,,,,,,,,,,,,,,17,0,17,0,,,,,750.1130932001397,,,,,,,,,,,,,,,,Würfel,143.04376279981807,,,,,,,,,,,,140.03508369997144,None,,,,,,,,,,,,,freeRecallSub,2,,,,,,,,,,,,,,,,,,,,,,,,,,,,,,,,,,,,,750.1008180999197,750.1130932001397,750.1130932001397,893.1580485999584,return,143.04376279981807,None,Würfel,"[-0.5731481481481482, -0.5962962962962963, -0.6064814814814815, -0.6027777777777777, 0.01574074074074074]","[-0.12037037037037036, -0.1175925925925926, -0.1175925925925926, -0.11574074074074074, 0.05925925925925926]","[1, 1, 1, 1, 1]","[0, 0, 0, 0, 0]","[0, 0, 0, 0, 0]","[14.880960800219327, 15.734477899968624, 18.15593250002712, 19.279202099889517, 137.39002609997988]",[],,,,,,,,,,,,,,,,,,,2,2023-12-11_11h37.15.895,watkins1,2023.2.3,99.71889264611796,56,2023-12-11 11h37.22.535019 +0000,
,,,,,,,,,,,,,,,,,,,18,0,18,0,,,,,893.1723833000287,,,,,,,,,,,,,,,,Uhr,71.26429239986464,,,,,,,,,,,,69.8304539998062,None,,,,,,,,,,,,,freeRecallSub,2,,,,,,,,,,,,,,,,,,,,,,,,,,,,,,,,,,,,,893.1594158997759,893.1723833000287,893.1723833000287,964.4457259997725,return,71.26429239986464,None,Uhr,[],[],[],[],[],[],[],,,,,,,,,,,,,,,,,,,2,2023-12-11_11h37.15.895,watkins1,2023.2.3,99.71889264611796,56,2023-12-11 11h37.22.535019 +0000,
,,,,,,,,,,,,,,,,,,,19,0,19,0,,,,,964.4600276001729,,,,,,,,,,,,,,,,Telefon,129.37647140026093,,,,,,,,,,,,124.54941059974954,None,,,,,,,,,,,,,freeRecallSub,2,,,,,,,,,,,,,,,,,,,,,,,,,,,,,,,,,,,,,964.4470123001374,964.4600276001729,964.4600276001729,1093.8457888998091,return,129.37647140026093,None,Telefon,[],[],[],[],[],[],[],,,,,,,,,,,,,,,,,,,2,2023-12-11_11h37.15.895,watkins1,2023.2.3,99.71889264611796,56,2023-12-11 11h37.22.535019 +0000,
,,,,,,,,,,,,,,,,,,,20,0,20,0,,,,,1093.8598421001807,,,,,,,,,,,,,,,,,[],,,,,,,,,,,,None,None,,,,,,,,,,,,,freeRecallSub,2,,,,,,,,,,,,,,,,,,,,,,,,,,,,,,,,,,,,,1093.8470697999,1093.8598421001807,1093.8598421001807,1167.606488800142,None,,,,[0.2611111111111111],[-0.3888888888888889],[1],[0],[0],[73.7529048002325],"['button_continue', 'continue_text']",,,,,,,,,,,,,,,,,,,2,2023-12-11_11h37.15.895,watkins1,2023.2.3,99.71889264611796,56,2023-12-11 11h37.22.535019 +0000,
,,,,,,,,,,,,,,,,,,,,,,,,,,,,,,,,,,,,,,,,,,,,,,,,,,,,,,,,,,,,,,,,,,,,,,,2,,,,,,,,,,,,,,,,,,,,,,,,,,,,,,,,,,,,,,,,,,,,,,,,,,,,,,,,,,,,,,,,,,,,,,2,2023-12-11_11h37.15.895,watkins1,2023.2.3,99.71889264611796,56,2023-12-11 11h37.22.535019 +0000,
,,,,,,,,,,,,,,,,,,,,,,,0,0,0,0,1175.4388100998476,,,,,,,,,,,,1179.539098400157,1180.0375566999428,,,,4.093751300126314,,,,,,,,,,,,None,None,,,,,,,,,,Telefon,,,cuedRecallAdj,2,,,,,,,,,,,,,,,,,,,,,0,,,,,,,,,,,,,,,,,,,,,,,,,,,,,,,1175.4297918998636,1175.4388100998476,1175.4388100998476,1179.5359147000127,Teuer,return,4.093751300126314,None,1179.5363134001382,1179.54546929989,1179.54546929989,1179.5389474998228,,None,,,,,2,2023-12-11_11h37.15.895,watkins1,2023.2.3,99.71889264611796,56,2023-12-11 11h37.22.535019 +0000,
,,,,,,,,,,,,,,,,,,,,,,,1,0,1,0,1180.04750970006,,,,,,,,,,,,1187.6008057999425,1188.099712499883,,,,7.541004200000316,,,,,,,,,,,,None,None,,,,,,,,,,Buch,,,cuedRecallAdj,2,,,,,,,,,,,,,,,,,,,,,0,,,,,,,,,,,,,,,,,,,,,,,,,,,,,,,1180.0378069998696,1180.04750970006,1180.04750970006,1187.597945000045,robust,return,7.541004200000316,None,1187.5982111999765,1187.6076643001288,1187.6076643001288,1187.6007019998506,,None,,,,,2,2023-12-11_11h37.15.895,watkins1,2023.2.3,99.71889264611796,56,2023-12-11 11h37.22.535019 +0000,
,,,,,,,,,,,,,,,,,,,,,,,2,0,2,0,1188.109654000029,,,,,,,,,,,,1192.1092103999108,1192.607707099989,,,,3.990817899815738,,,,,,,,,,,,None,None,,,,,,,,,,Brille,,,cuedRecallAdj,2,,,,,,,,,,,,,,,,,,,,,0,,,,,,,,,,,,,,,,,,,,,,,,,,,,,,,1188.0999572998844,1188.109654000029,1188.109654000029,1192.1061880001798,matt,return,3.990817899815738,None,1192.106453599874,1192.1157467998564,1192.1157467998564,1192.1091101998463,,None,,,,,2,2023-12-11_11h37.15.895,watkins1,2023.2.3,99.71889264611796,56,2023-12-11 11h37.22.535019 +0000,
,,,,,,,,,,,,,,,,,,,,,,,3,0,3,0,1192.6175698000006,,,,,,,,,,,,1198.7762124999426,1199.2747964998707,,,,6.154919600114226,,,,,,,,,,,,None,None,,,,,,,,,,Tasse,,,cuedRecallAdj,2,,,,,,,,,,,,,,,,,,,,,0,,,,,,,,,,,,,,,,,,,,,,,,,,,,,,,1192.6079480000772,1192.6175698000006,1192.6175698000006,1198.7732310001738,kratzig,return,6.154919600114226,None,1198.773493700195,1198.7826844998635,1198.7826844998635,1198.7761111999862,,None,,,,,2,2023-12-11_11h37.15.895,watkins1,2023.2.3,99.71889264611796,56,2023-12-11 11h37.22.535019 +0000,
,,,,,,,,,,,,,,,,,,,,,,,4,0,4,0,1199.2847007000819,,,,,,,,,,,,1205.2222644002177,1205.7208467000164,,,,5.9278325997292995,,,,,,,,,,,,None,None,,,,,,,,,,Löffel,,,cuedRecallAdj,2,,,,,,,,,,,,,,,,,,,,,0,,,,,,,,,,,,,,,,,,,,,,,,,,,,,,,1199.2750407001004,1199.2847007000819,1199.2847007000819,1205.2192215002142,glänzend,return,5.9278325997292995,None,1205.2194885001518,1205.2287073000334,1205.2287073000334,1205.2221614001319,,None,,,,,2,2023-12-11_11h37.15.895,watkins1,2023.2.3,99.71889264611796,56,2023-12-11 11h37.22.535019 +0000,
,,,,,,,,,,,,,,,,,,,,,,,5,0,5,0,1205.7307400000282,,,,,,,,,,,,1208.3042732998729,1208.803329399787,,,,2.561676800251007,,,,,,,,,,,,None,None,,,,,,,,,,Jacke,,,cuedRecallAdj,2,,,,,,,,,,,,,,,,,,,,,0,,,,,,,,,,,,,,,,,,,,,,,,,,,,,,,1205.7210967000574,1205.7307400000282,1205.7307400000282,1208.3014508998021,neu,return,2.561676800251007,None,1208.3017119001597,1208.3111498998478,1208.3111498998478,1208.3041718001477,,None,,,,,2,2023-12-11_11h37.15.895,watkins1,2023.2.3,99.71889264611796,56,2023-12-11 11h37.22.535019 +0000,
,,,,,,,,,,,,,,,,,,,,,,,6,0,6,0,1208.813233599998,,,,,,,,,,,,1212.3715590001084,1212.8701659999788,,,,3.551331300288439,,,,,,,,,,,,None,None,,,,,,,,,,Kerze,,,cuedRecallAdj,2,,,,,,,,,,,,,,,,,,,,,0,,,,,,,,,,,,,,,,,,,,,,,,,,,,,,,1208.8035701001063,1208.813233599998,1208.813233599998,1212.3685894999653,flach,return,3.551331300288439,None,1212.36885660002,1212.378105300013,1212.378105300013,1212.3714580000378,,None,,,,,2,2023-12-11_11h37.15.895,watkins1,2023.2.3,99.71889264611796,56,2023-12-11 11h37.22.535019 +0000,
,,,,,,,,,,,,,,,,,,,,,,,7,0,7,0,1212.8800745997578,,,,,,,,,,,,1216.0260891998187,1216.5246991999447,,,,3.1403549001552165,,,,,,,,,,,,None,None,,,,,,,,,,Hammer,,,cuedRecallAdj,2,,,,,,,,,,,,,,,,,,,,,0,,,,,,,,,,,,,,,,,,,,,,,,,,,,,,,1212.8704105000943,1212.8800745997578,1212.8800745997578,1216.0231059999205,sanft,return,3.1403549001552165,None,1216.0233682999387,1216.0326200001873,1216.0326200001873,1216.0259891999885,,None,,,,,2,2023-12-11_11h37.15.895,watkins1,2023.2.3,99.71889264611796,56,2023-12-11 11h37.22.535019 +0000,
,,,,,,,,,,,,,,,,,,,,,,,8,0,8,0,1216.534645699896,,,,,,,,,,,,1223.9892671001144,1224.4878883999772,,,,7.445855000056326,,,,,,,,,,,,None,None,,,,,,,,,,Kiste,,,cuedRecallAdj,2,,,,,,,,,,,,,,,,,,,,,0,,,,,,,,,,,,,,,,,,,,,,,,,,,,,,,1216.5249457000755,1216.534645699896,1216.534645699896,1223.9862751001492,hübsch,return,7.445855000056326,None,1223.9865422998555,1223.9958334001713,1223.9958334001713,1223.9891671999358,,None,,,,,2,2023-12-11_11h37.15.895,watkins1,2023.2.3,99.71889264611796,56,2023-12-11 11h37.22.535019 +0000,
,,,,,,,,,,,,,,,,,,,,,,,9,0,9,0,1224.4978330000304,,,,,,,,,,,,1230.194242599886,1230.6929048001766,,,,5.690616199746728,,,,,,,,,,,,None,None,,,,,,,,,,Kamera,,,cuedRecallAdj,2,,,,,,,,,,,,,,,,,,,,,0,,,,,,,,,,,,,,,,,,,,,,,,,,,,,,,1224.4881342998706,1224.4978330000304,1224.4978330000304,1230.1912560001947,krumm,return,5.690616199746728,None,1230.1915200999938,1230.2008135998622,1230.2008135998622,1230.194138799794,,None,,,,,2,2023-12-11_11h37.15.895,watkins1,2023.2.3,99.71889264611796,56,2023-12-11 11h37.22.535019 +0000,
,,,,,,,,,,,,,,,,,,,,,,,10,0,10,0,1230.7028450998478,,,,,,,,,,,,1233.3570177000947,1233.8557834997773,,,,2.645599900279194,,,,,,,,,,,,None,None,,,,,,,,,,Vase,,,cuedRecallAdj,2,,,,,,,,,,,,,,,,,,,,,0,,,,,,,,,,,,,,,,,,,,,,,,,,,,,,,1230.6931477999315,1230.7028450998478,1230.7028450998478,1233.35421400005,dick,return,2.645599900279194,None,1233.3544780001976,1233.3637724001892,1233.3637724001892,1233.3569176001474,,None,,,,,2,2023-12-11_11h37.15.895,watkins1,2023.2.3,99.71889264611796,56,2023-12-11 11h37.22.535019 +0000,
,,,,,,,,,,,,,,,,,,,,,,,11,0,11,0,1233.8657149001956,,,,,,,,,,,,1238.1566510000266,1238.655230499804,,,,4.282645700033754,,,,,,,,,,,,None,None,,,,,,,,,,Trommel,,,cuedRecallAdj,2,,,,,,,,,,,,,,,,,,,,,0,,,,,,,,,,,,,,,,,,,,,,,,,,,,,,,1233.8560222000815,1233.8657149001956,1233.8657149001956,1238.1533893998712,hässlich,return,4.282645700033754,None,1238.15365569992,1238.1628589998,1238.1628589998,1238.1565494001843,,None,,,,,2,2023-12-11_11h37.15.895,watkins1,2023.2.3,99.71889264611796,56,2023-12-11 11h37.22.535019 +0000,
,,,,,,,,,,,,,,,,,,,,,,,12,0,12,0,1238.665276300162,,,,,,,,,,,,1246.9934555999935,1247.491937099956,,,,8.323133800178766,,,,,,,,,,,,None,None,,,,,,,,,,Flasche,,,cuedRecallAdj,2,,,,,,,,,,,,,,,,,,,,,0,,,,,,,,,,,,,,,,,,,,,,,,,,,,,,,1238.655471699778,1238.665276300162,1238.665276300162,1246.990405399818,klobig,return,8.323133800178766,None,1246.9906705999747,1246.9998774998821,1246.9998774998821,1246.993352800142,,None,,,,,2,2023-12-11_11h37.15.895,watkins1,2023.2.3,99.71889264611796,56,2023-12-11 11h37.22.535019 +0000,
,,,,,,,,,,,,,,,,,,,,,,,13,0,13,0,1247.5018744999543,,,,,,,,,,,,1250.0655608000234,1250.564283600077,,,,2.5586367999203503,,,,,,,,,,,,None,None,,,,,,,,,,Uhr,,,cuedRecallAdj,2,,,,,,,,,,,,,,,,,,,,,0,,,,,,,,,,,,,,,,,,,,,,,,,,,,,,,1247.4921826999635,1247.5018744999543,1247.5018744999543,1250.0626925001852,schwer,return,2.5586367999203503,None,1250.0629557999782,1250.0722481999546,1250.0722481999546,1250.0654601999559,,None,,,,,2,2023-12-11_11h37.15.895,watkins1,2023.2.3,99.71889264611796,56,2023-12-11 11h37.22.535019 +0000,
,,,,,,,,,,,,,,,,,,,,,,,14,0,14,0,1250.5742244999856,,,,,,,,,,,,1254.0718975998461,1254.5704616000876,,,,3.4941564998589456,,,,,,,,,,,,None,None,,,,,,,,,,Ring,,,cuedRecallAdj,2,,,,,,,,,,,,,,,,,,,,,0,,,,,,,,,,,,,,,,,,,,,,,,,,,,,,,1250.5645260000601,1250.5742244999856,1250.5742244999856,1254.0689817997627,glänzend,return,3.4941564998589456,None,1254.069244899787,1254.0785162001848,1254.0785162001848,1254.0717974998988,,None,,,,,2,2023-12-11_11h37.15.895,watkins1,2023.2.3,99.71889264611796,56,2023-12-11 11h37.22.535019 +0000,
,,,,,,,,,,,,,,,,,,,,,,,15,0,15,0,1254.5804634001106,,,,,,,,,,,,1281.2507927999832,1281.7404486997984,,,,26.663941599894315,,,,,,,,,,,,None,None,,,,,,,,,,Kette,,,cuedRecallAdj,2,,,,,,,,,,,,,,,,,,,,,0,,,,,,,,,,,,,,,,,,,,,,,,,,,,,,,1254.5707104001194,1254.5804634001106,1254.5804634001106,1281.248889000155,glänzend,return,26.663941599894315,None,1281.2491520000622,1281.2583996998146,1281.2583996998146,1281.2506908001378,,None,,,,,2,2023-12-11_11h37.15.895,watkins1,2023.2.3,99.71889264611796,56,2023-12-11 11h37.22.535019 +0000,
,,,,,,,,,,,,,,,,,,,,,,,16,0,16,0,1281.7503549000248,,,,,,,,,,,,1290.6497411997989,1291.148187499959,,,,8.894058200065047,,,,,,,,,,,,None,None,,,,,,,,,,Eimer,,,cuedRecallAdj,2,,,,,,,,,,,,,,,,,,,,,0,,,,,,,,,,,,,,,,,,,,,,,,,,,,,,,1281.7406914997846,1281.7503549000248,1281.7503549000248,1290.6466037998907,hübsch,return,8.894058200065047,None,1290.646886399947,1290.6561465999112,1290.6561465999112,1290.6496342997998,,None,,,,,2,2023-12-11_11h37.15.895,watkins1,2023.2.3,99.71889264611796,56,2023-12-11 11h37.22.535019 +0000,
,,,,,,,,,,,,,,,,,,,,,,,17,0,17,0,1291.1580921001732,,,,,,,,,,,,1299.1436120998114,1299.642147500068,,,,7.9743801997974515,,,,,,,,,,,,None,None,,,,,,,,,,Geige,,,cuedRecallAdj,2,,,,,,,,,,,,,,,,,,,,,0,,,,,,,,,,,,,,,,,,,,,,,,,,,,,,,1291.1484403000213,1291.1580921001732,1291.1580921001732,1299.1404738998972,süß,return,7.9743801997974515,None,1299.1407345999032,1299.1501413998194,1299.1501413998194,1299.1435106000863,,None,,,,,2,2023-12-11_11h37.15.895,watkins1,2023.2.3,99.71889264611796,56,2023-12-11 11h37.22.535019 +0000,
,,,,,,,,,,,,,,,,,,,,,,,18,0,18,0,1299.6521931001917,,,,,,,,,,,,1304.1842328999192,1304.683267899789,,,,4.5201728995889425,,,,,,,,,,,,None,None,,,,,,,,,,Schere,,,cuedRecallAdj,2,,,,,,,,,,,,,,,,,,,,,0,,,,,,,,,,,,,,,,,,,,,,,,,,,,,,,1299.6423915000632,1299.6521931001917,1299.6521931001917,1304.1813725000247,kalt,return,4.5201728995889425,None,1304.18163739983,1304.1912020999007,1304.1912020999007,1304.1841322002,,None,,,,,2,2023-12-11_11h37.15.895,watkins1,2023.2.3,99.71889264611796,56,2023-12-11 11h37.22.535019 +0000,
,,,,,,,,,,,,,,,,,,,,,,,19,0,19,0,1304.693163299933,,,,,,,,,,,,1313.6827842998318,1314.1814182000235,,,,8.983155299909413,,,,,,,,,,,,None,None,,,,,,,,,,Tasche,,,cuedRecallAdj,2,,,,,,,,,,,,,,,,,,,,,0,,,,,,,,,,,,,,,,,,,,,,,,,,,,,,,1304.6835097000003,1304.693163299933,1304.693163299933,1313.6797215999104,flauschig,return,8.983155299909413,None,1313.6799857001752,1313.689374399837,1313.689374399837,1313.6826813002117,,None,,,,,2,2023-12-11_11h37.15.895,watkins1,2023.2.3,99.71889264611796,56,2023-12-11 11h37.22.535019 +0000,
,,,,,,,,,,,,,,,,,,,,,,,20,0,20,0,1314.1913613001816,,,,,,,,,,,,1322.1971863000654,1322.6956938998774,,,,7.997136400081217,,,,,,,,,,,,None,None,,,,,,,,,,Würfel,,,cuedRecallAdj,2,,,,,,,,,,,,,,,,,,,,,0,,,,,,,,,,,,,,,,,,,,,,,,,,,,,,,1314.1816612998955,1314.1913613001816,1314.1913613001816,1322.1940357000567,hübsch,return,7.997136400081217,None,1322.1942953998223,1322.2035496998578,1322.2035496998578,1322.1970844999887,,None,,,,,2,2023-12-11_11h37.15.895,watkins1,2023.2.3,99.71889264611796,56,2023-12-11 11h37.22.535019 +0000,
,,,,,,,,,,,,,,,,,,,,,,,21,0,21,0,1322.7056379001588,,,,,,,,,,,,1324.8777430001646,1325.37659349991,,,,2.162735799793154,,,,,,,,,,,,None,None,,,,,,,,,,Socke,,,cuedRecallAdj,2,,,,,,,,,,,,,,,,,,,,,0,,,,,,,,,,,,,,,,,,,,,,,,,,,,,,,1322.6959401001222,1322.7056379001588,1322.7056379001588,1324.874904599972,nass,return,2.162735799793154,None,1324.8751667002216,1324.8845334998332,1324.8845334998332,1324.8776418999769,,None,,,,,2,2023-12-11_11h37.15.895,watkins1,2023.2.3,99.71889264611796,56,2023-12-11 11h37.22.535019 +0000,
,,,,,,,,,,,,,,,,,,,,,,,22,0,22,0,1325.3865971998312,,,,,,,,,,,,1330.0745962997898,1330.5731271998957,,,,4.6818122998811305,,,,,,,,,,,,None,None,,,,,,,,,,Rucksack,,,cuedRecallAdj,2,,,,,,,,,,,,,,,,,,,,,0,,,,,,,,,,,,,,,,,,,,,,,,,,,,,,,1325.3768341001123,1325.3865971998312,1325.3865971998312,1330.071508999914,rustikal,return,4.6818122998811305,None,1330.0717783002183,1330.0810445998795,1330.0810445998795,1330.0744938999414,,None,,,,,2,2023-12-11_11h37.15.895,watkins1,2023.2.3,99.71889264611796,56,2023-12-11 11h37.22.535019 +0000,
,,,,,,,,,,,,,,,,,,,,,,,23,0,23,0,1330.5830731000751,,,,,,,,,,,,1341.8014222001657,1342.2999438000843,,,,11.205292999744415,,,,,,,,,,,,None,None,,,,,,,,,,Blume,,,cuedRecallAdj,2,,,,,,,,,,,,,,,,,,,,,0,,,,,,,,,,,,,,,,,,,,,,,,,,,,,,,1330.57336940011,1330.5830731000751,1330.5830731000751,1341.7980809998699,einfach,return,11.205292999744415,None,1341.7983468999155,1341.8078637002036,1341.8078637002036,1341.801321899984,,None,,,,,2,2023-12-11_11h37.15.895,watkins1,2023.2.3,99.71889264611796,56,2023-12-11 11h37.22.535019 +0000,
,,,,,,,,,,,,,,,,,,,,,,,24,0,24,0,1342.3098821002059,,,,,,,,,,,,1350.044542499818,1350.5430737999268,,,,7.726472300011665,,,,,,,,,,,,None,None,,,,,,,,,,Bürste,,,cuedRecallAdj,2,,,,,,,,,,,,,,,,,,,,,0,,,,,,,,,,,,,,,,,,,,,,,,,,,,,,,1342.3001875001937,1342.3098821002059,1342.3098821002059,1350.0413584997877,dreckig,return,7.726472300011665,None,1350.0416236999445,1350.0510132000782,1350.0510132000782,1350.0444415998645,,None,,,,,2,2023-12-11_11h37.15.895,watkins1,2023.2.3,99.71889264611796,56,2023-12-11 11h37.22.535019 +0000,
,,,,,,,,,,,,,,,,,,,,,,,25,0,25,0,1350.5530237997882,,,,,,,,,,,,1355.5972337001003,1356.0953521002084,,,,5.035224399995059,,,,,,,,,,,,None,None,,,,,,,,,,Stift,,,cuedRecallAdj,2,,,,,,,,,,,,,,,,,,,,,0,,,,,,,,,,,,,,,,,,,,,,,,,,,,,,,1350.5433183000423,1350.5530237997882,1350.5530237997882,1355.593768000137,gepunktet,return,5.035224399995059,None,1355.5940319001675,1355.6033224998973,1355.6033224998973,1355.597134300042,,None,,,,,2,2023-12-11_11h37.15.895,watkins1,2023.2.3,99.71889264611796,56,2023-12-11 11h37.22.535019 +0000,
,,,,,,,,,,,,,,,,,,,,,,,26,0,26,0,1356.1053019999526,,,,,,,,,,,,1359.2010206999257,1359.6997326998971,,,,3.0910749002359807,,,,,,,,,,,,None,None,,,,,,,,,,Lampe,,,cuedRecallAdj,2,,,,,,,,,,,,,,,,,,,,,0,,,,,,,,,,,,,,,,,,,,,,,,,,,,,,,1356.0956711000763,1356.1053019999526,1356.1053019999526,1359.1981645999476,bunt,return,3.0910749002359807,None,1359.1984317000024,1359.2076600999571,1359.2076600999571,1359.2009193999693,,None,,,,,2,2023-12-11_11h37.15.895,watkins1,2023.2.3,99.71889264611796,56,2023-12-11 11h37.22.535019 +0000,
,,,,,,,,,,,,,,,,,,,,,,,27,0,27,0,1359.7096365001053,,,,,,,,,,,,1373.2082119998522,1373.706923800055,,,,13.486639300361276,,,,,,,,,,,,None,None,,,,,,,,,,Hut,,,cuedRecallAdj,2,,,,,,,,,,,,,,,,,,,,,0,,,,,,,,,,,,,,,,,,,,,,,,,,,,,,,1359.6999777001329,1359.7096365001053,1359.7096365001053,1373.2051698002033,klein,return,13.486639300361276,None,1373.2054343000054,1373.2148933000863,1373.2148933000863,1373.2081110998988,,None,,,,,2,2023-12-11_11h37.15.895,watkins1,2023.2.3,99.71889264611796,56,2023-12-11 11h37.22.535019 +0000,
,,,,,,,,,,,,,,,,,,,,,,,28,0,28,0,1373.7168704997748,,,,,,,,,,,,1385.6483489000238,1386.1468897000886,,,,11.92741520004347,,,,,,,,,,,,None,None,,,,,,,,,,Fahrrad,,,cuedRecallAdj,2,,,,,,,,,,,,,,,,,,,,,0,,,,,,,,,,,,,,,,,,,,,,,,,,,,,,,1373.7071631997824,1373.7168704997748,1373.7168704997748,1385.6452771001495,schnell,return,11.92741520004347,None,1385.645543599967,1385.6548212999478,1385.6548212999478,1385.6482484000735,,None,,,,,2,2023-12-11_11h37.15.895,watkins1,2023.2.3,99.71889264611796,56,2023-12-11 11h37.22.535019 +0000,
,,,,,,,,,,,,,,,,,,,,,,,29,0,29,0,1386.1568486001343,,,,,,,,,,,,1391.6223148000427,1392.1210674000904,,,,5.455515600275248,,,,,,,,,,,,None,None,,,,,,,,,,Schlüssel,,,cuedRecallAdj,2,,,,,,,,,,,,,,,,,,,,,0,,,,,,,,,,,,,,,,,,,,,,,,,,,,,,,1386.1471354998648,1386.1568486001343,1386.1568486001343,1391.6192334000953,blass,return,5.455515600275248,None,1391.6194988000207,1391.6287547000684,1391.6287547000684,1391.622214899864,,None,,,,,2,2023-12-11_11h37.15.895,watkins1,2023.2.3,99.71889264611796,56,2023-12-11 11h37.22.535019 +0000,
,,,,,,,,,,,,,,,,,,,,,,,,,,,,,,,,,,,,,,,,,,,,,,,,,,,,,,,,,,,,,,,,,,,,,,,2,,,,,,,,,,,,,,,,,,,,,,,,,,,,,,,,,,,,,,,,,,,,,,,,,,,,,,,,,,,,,,,,,,1392.1378223998472,q,5596.972935100086,None,2,2023-12-11_11h37.15.895,watkins1,2023.2.3,99.71889264611796,56,2023-12-11 11h37.22.535019 +0000,
