Equation,CorrectResponse,Correctbutton,trials_7.thisRepN,trials_7.thisTrialN,trials_7.thisN,trials_7.thisIndex,trials.thisRepN,trials.thisTrialN,trials.thisN,trials.thisIndex,trials_3.thisRepN,trials_3.thisTrialN,trials_3.thisN,trials_3.thisIndex,trials_2.thisRepN,trials_2.thisTrialN,trials_2.thisN,trials_2.thisIndex,trials_4.thisRepN,trials_4.thisTrialN,trials_4.thisN,trials_4.thisIndex,trials_5.thisRepN,trials_5.thisTrialN,trials_5.thisN,trials_5.thisIndex,thisRow.t,notes,list_sub_restudy,list_sub_testsub,code_marius.started,code_marius.stopped,welcome.started,welcome.stopped,instruction_study.started,instruction_study.stopped,fixationcross.started,fixationcross.stopped,blanc.started,blanc.stopped,study_control_probe.started,study_control_probe.stopped,responseKey,responseTime,scale_answer_2.keys,study_control_probe_2.started,study_control_probe_2.stopped,scale_answer_3.keys,scale_answer_3.rt,scale_answer_3.duration,blanc_2.started,blanc_2.stopped,test_attr_probe.started,test_attr_probe.stopped,recalled_attr,firstKeyTime,secondWordTime,blanc_3.started,blanc_3.stopped,test_sub_probe.started,test_sub_probe.stopped,recalled_sub,instruction_probe_end.started,instruction_probe_end.stopped,study.started,study.stopped,substantive,adjective,wordpair,task,condition,liste_sub_phase1,liste_adj_phase1,scale_answer.keys,scale_answer.rt,scale_answer.duration,code_defineWordsInit.started,code_defineWordsInit.stopped,liste_sub_phase2,study_control.started,study_control.stopped,scale_answer_4.keys,restudy_same.started,restudy_same.stopped,scale_answer_5.keys,restudy_different.started,restudy_different.stopped,scale_answer_6.keys,test_attr.started,test_attr.stopped,test_sub.started,correct,test_sub.stopped,scale_answer_5.rt,scale_answer_5.duration,distractortask.started,equation_text.started,distractortask.stopped,mouse_answer.x,mouse_answer.y,mouse_answer.leftButton,mouse_answer.midButton,mouse_answer.rightButton,mouse_answer.time,mouse_answer.clicked_name,feedback_distractortask.started,feedback_distractortask.stopped,free_recall.started,text_enter.started,key_resp.started,free_recall.stopped,key_resp.keys,key_resp.rt,key_resp.duration,free_recalled_sub,mouse_continue.x,mouse_continue.y,mouse_continue.leftButton,mouse_continue.midButton,mouse_continue.rightButton,mouse_continue.time,mouse_continue.clicked_name,cued_recall.started,text_enter_2.started,key_continue.started,cued_recall.stopped,recalled_attr1,key_continue.keys,key_continue.rt,key_continue.duration,cued_recall_2.started,text_enter_3.started,key_continue_2.started,cued_recall_2.stopped,recalled_attr2,key_continue_2.keys,key_resp_8.started,key_resp_8.keys,key_resp_8.rt,key_resp_8.duration,condition,date,expName,psychopyVersion,frameRate,participant,expStart,
,,,,,,,,,,,,,,,,,,,,,,,,,,,,,"['Würfel', 'Tasche', 'Brille', 'Socke', 'Kamera', 'Kiste', 'Kerze', 'Rucksack', 'Vase', 'Trommel', 'Eimer', 'Hut', 'Bürste', 'Ring', 'Blume']","['Schere', 'Flasche', 'Tasse', 'Buch', 'Schlüssel', 'Kette', 'Hammer', 'Fahrrad', 'Löffel', 'Jacke', 'Stift', 'Geige', 'Telefon', 'Uhr', 'Lampe']",0.11198960000183433,0.11206399998627603,0.11207220004871488,4.896267100004479,,,,,,,,,,,,,,,,,,,,,,,,,,,,,,,,,,,,,2,,,,,,,,,,,,,,,,,,,,,,,,,,,,,,,,,,,,,,,,,,,,,,,,,,,,,,,,,,,,,,,,,,,,,,2,2023-11-21_08h39.09.227,watkins1,2023.2.3,99.75480270919152,1,2023-11-21 08h39.17.654564 +0000,
,,,,,,,,,,,,,,,,,,,,,,,,,,,,,,,,,,,4.896315400023013,46.96220099995844,,,,,,,,,,,,,,,,,,,,,,,,,,,,,,,,,,,2,,,,,,,,,,,,,,,,,,,,,,,,,,,,,,,,,,,,,,,,,,,,,,,,,,,,,,,,,,,,,,,,,,,,,,2,2023-11-21_08h39.09.227,watkins1,2023.2.3,99.75480270919152,1,2023-11-21 08h39.17.654564 +0000,
,,,0,0,0,0,,,,,,,,,,,,,,,,,,,,,47.97582299995702,,,,,,,,,,46.962218199972995,47.96587760001421,54.46642620000057,54.95766970003024,48.457991800038144,54.46624400001019,2,4.936252099927515,None,54.95768049999606,60.95978060003836,2,4.936252099927515,None,60.960083100013435,60.9601074999664,60.96011470002122,60.96019390004221,,2.6313304000068456,None,60.960361600038595,61.45107219996862,61.45108390005771,67.45646380004473,Hund,,,,,,,,,2,,,,,,,,,,,,,,,,,,,,,,,,,,,,,,,,,,,,,,,,,,,,,,,,,,,,,,,,,,,,,,,,,,,,,,2,2023-11-21_08h39.09.227,watkins1,2023.2.3,99.75480270919152,1,2023-11-21 08h39.17.654564 +0000,
,,,,,,,,,,,,,,,,,,,,,,,,,,,,,,,,,,,,,,,,,,,,,,,,,,,,,,,,,,,,,,,67.45662519999314,71.242587500019,,,,,,,2,,,,,,,,,,,,,,,,,,,,,,,,,,,,,,,,,,,,,,,,,,,,,,,,,,,,,,,,,,,,,,,,,,,,,,2,2023-11-21_08h39.09.227,watkins1,2023.2.3,99.75480270919152,1,2023-11-21 08h39.17.654564 +0000,
,,,,,,,0,0,0,0,,,,,,,,,,,,,,,,,72.25629040005151,,,,,,,,,,71.24260450003203,72.24627510004211,72.24674139998388,72.73831749998499,,,3,4.15817780001089,,,,,,,,,,,,,,,,,,,,,72.73832770006265,78.74095720006153,Kette,teuer,"['Kette', 'teuer']",test_sub,2,"['Kette', 'Löffel', 'Socke', 'Rucksack', 'Stift', 'Bürste', 'Kamera', 'Telefon', 'Kerze', 'Blume', 'Jacke', 'Buch', 'Ring', 'Eimer', 'Fahrrad', 'Hut', 'Brille', 'Tasche', 'Tasse', 'Hammer', 'Schere', 'Lampe', 'Schlüssel', 'Flasche', 'Vase', 'Trommel', 'Kiste', 'Uhr', 'Würfel', 'Geige']",['teuer'],3,4.15817780001089,None,,,,,,,,,,,,,,,,,,,,,,,,,,,,,,,,,,,,,,,,,,,,,,,,,,,,,,,,,,,,,,,,,2,2023-11-21_08h39.09.227,watkins1,2023.2.3,99.75480270919152,1,2023-11-21 08h39.17.654564 +0000,
,,,,,,,1,0,1,0,,,,,,,,,,,,,,,,,78.75042940001003,,,,,,,,,,,,78.74162410001736,79.23241020005662,,,1,2.4318912000162527,,,,,,,,,,,,,,,,,,,,,79.23242070002016,85.2374986000359,Löffel,dunkel,"['Löffel', 'dunkel']",test_sub,2,"['Kette', 'Löffel', 'Socke', 'Rucksack', 'Stift', 'Bürste', 'Kamera', 'Telefon', 'Kerze', 'Blume', 'Jacke', 'Buch', 'Ring', 'Eimer', 'Fahrrad', 'Hut', 'Brille', 'Tasche', 'Tasse', 'Hammer', 'Schere', 'Lampe', 'Schlüssel', 'Flasche', 'Vase', 'Trommel', 'Kiste', 'Uhr', 'Würfel', 'Geige']","['teuer', 'dunkel']",1,2.4318912000162527,None,,,,,,,,,,,,,,,,,,,,,,,,,,,,,,,,,,,,,,,,,,,,,,,,,,,,,,,,,,,,,,,,,2,2023-11-21_08h39.09.227,watkins1,2023.2.3,99.75480270919152,1,2023-11-21 08h39.17.654564 +0000,
,,,,,,,2,0,2,0,,,,,,,,,,,,,,,,,85.24708370002918,,,,,,,,,,,,85.23803610005416,85.72921819996554,,,2,3.7997689000330865,,,,,,,,,,,,,,,,,,,,,85.72922880004626,91.73587990005035,Socke,glatt,"['Socke', 'glatt']",restudy,2,"['Kette', 'Löffel', 'Socke', 'Rucksack', 'Stift', 'Bürste', 'Kamera', 'Telefon', 'Kerze', 'Blume', 'Jacke', 'Buch', 'Ring', 'Eimer', 'Fahrrad', 'Hut', 'Brille', 'Tasche', 'Tasse', 'Hammer', 'Schere', 'Lampe', 'Schlüssel', 'Flasche', 'Vase', 'Trommel', 'Kiste', 'Uhr', 'Würfel', 'Geige']","['teuer', 'dunkel', 'glatt']",2,3.7997689000330865,None,,,,,,,,,,,,,,,,,,,,,,,,,,,,,,,,,,,,,,,,,,,,,,,,,,,,,,,,,,,,,,,,,2,2023-11-21_08h39.09.227,watkins1,2023.2.3,99.75480270919152,1,2023-11-21 08h39.17.654564 +0000,
,,,,,,,3,0,3,0,,,,,,,,,,,,,,,,,91.74532500002533,,,,,,,,,,,,91.7364196999697,92.2274444999639,,,3,1.557244100025855,,,,,,,,,,,,,,,,,,,,,92.22745440003928,98.23613690002821,Rucksack,schwer,"['Rucksack', 'schwer']",restudy,2,"['Kette', 'Löffel', 'Socke', 'Rucksack', 'Stift', 'Bürste', 'Kamera', 'Telefon', 'Kerze', 'Blume', 'Jacke', 'Buch', 'Ring', 'Eimer', 'Fahrrad', 'Hut', 'Brille', 'Tasche', 'Tasse', 'Hammer', 'Schere', 'Lampe', 'Schlüssel', 'Flasche', 'Vase', 'Trommel', 'Kiste', 'Uhr', 'Würfel', 'Geige']","['teuer', 'dunkel', 'glatt', 'schwer']",3,1.557244100025855,None,,,,,,,,,,,,,,,,,,,,,,,,,,,,,,,,,,,,,,,,,,,,,,,,,,,,,,,,,,,,,,,,,2,2023-11-21_08h39.09.227,watkins1,2023.2.3,99.75480270919152,1,2023-11-21 08h39.17.654564 +0000,
,,,,,,,4,0,4,0,,,,,,,,,,,,,,,,,98.24559139995836,,,,,,,,,,,,98.23667959996965,98.72758690000046,,,2,2.378848700085655,,,,,,,,,,,,,,,,,,,,,98.727597399964,104.73706229997333,Stift,gut,"['Stift', 'gut']",test_sub,2,"['Kette', 'Löffel', 'Socke', 'Rucksack', 'Stift', 'Bürste', 'Kamera', 'Telefon', 'Kerze', 'Blume', 'Jacke', 'Buch', 'Ring', 'Eimer', 'Fahrrad', 'Hut', 'Brille', 'Tasche', 'Tasse', 'Hammer', 'Schere', 'Lampe', 'Schlüssel', 'Flasche', 'Vase', 'Trommel', 'Kiste', 'Uhr', 'Würfel', 'Geige']","['teuer', 'dunkel', 'glatt', 'schwer', 'gut']",2,2.378848700085655,None,,,,,,,,,,,,,,,,,,,,,,,,,,,,,,,,,,,,,,,,,,,,,,,,,,,,,,,,,,,,,,,,,2,2023-11-21_08h39.09.227,watkins1,2023.2.3,99.75480270919152,1,2023-11-21 08h39.17.654564 +0000,
,,,,,,,5,0,5,0,,,,,,,,,,,,,,,,,104.74652329995297,,,,,,,,,,,,104.73761429998558,105.22860999999102,,,3,4.492749400087632,,,,,,,,,,,,,,,,,,,,,105.22862069995608,111.22960630001035,Bürste,neu,"['Bürste', 'neu']",restudy,2,"['Kette', 'Löffel', 'Socke', 'Rucksack', 'Stift', 'Bürste', 'Kamera', 'Telefon', 'Kerze', 'Blume', 'Jacke', 'Buch', 'Ring', 'Eimer', 'Fahrrad', 'Hut', 'Brille', 'Tasche', 'Tasse', 'Hammer', 'Schere', 'Lampe', 'Schlüssel', 'Flasche', 'Vase', 'Trommel', 'Kiste', 'Uhr', 'Würfel', 'Geige']","['teuer', 'dunkel', 'glatt', 'schwer', 'gut', 'neu']",3,4.492749400087632,None,,,,,,,,,,,,,,,,,,,,,,,,,,,,,,,,,,,,,,,,,,,,,,,,,,,,,,,,,,,,,,,,,2,2023-11-21_08h39.09.227,watkins1,2023.2.3,99.75480270919152,1,2023-11-21 08h39.17.654564 +0000,
,,,,,,,6,0,6,0,,,,,,,,,,,,,,,,,111.23907839995809,,,,,,,,,,,,111.23014370002784,111.72107690002304,,,1,1.96068529994227,,,,,,,,,,,,,,,,,,,,,111.72108769998886,117.73151149996556,Kamera,kalt,"['Kamera', 'kalt']",restudy,2,"['Kette', 'Löffel', 'Socke', 'Rucksack', 'Stift', 'Bürste', 'Kamera', 'Telefon', 'Kerze', 'Blume', 'Jacke', 'Buch', 'Ring', 'Eimer', 'Fahrrad', 'Hut', 'Brille', 'Tasche', 'Tasse', 'Hammer', 'Schere', 'Lampe', 'Schlüssel', 'Flasche', 'Vase', 'Trommel', 'Kiste', 'Uhr', 'Würfel', 'Geige']","['teuer', 'dunkel', 'glatt', 'schwer', 'gut', 'neu', 'kalt']",1,1.96068529994227,None,,,,,,,,,,,,,,,,,,,,,,,,,,,,,,,,,,,,,,,,,,,,,,,,,,,,,,,,,,,,,,,,,2,2023-11-21_08h39.09.227,watkins1,2023.2.3,99.75480270919152,1,2023-11-21 08h39.17.654564 +0000,
,,,,,,,7,0,7,0,,,,,,,,,,,,,,,,,117.74099029996432,,,,,,,,,,,,117.732038200018,118.22310209996067,,,1,5.466355299926363,,,,,,,,,,,,,,,,,,,,,118.22311260004062,124.22439890005626,Telefon,nass,"['Telefon', 'nass']",test_sub,2,"['Kette', 'Löffel', 'Socke', 'Rucksack', 'Stift', 'Bürste', 'Kamera', 'Telefon', 'Kerze', 'Blume', 'Jacke', 'Buch', 'Ring', 'Eimer', 'Fahrrad', 'Hut', 'Brille', 'Tasche', 'Tasse', 'Hammer', 'Schere', 'Lampe', 'Schlüssel', 'Flasche', 'Vase', 'Trommel', 'Kiste', 'Uhr', 'Würfel', 'Geige']","['teuer', 'dunkel', 'glatt', 'schwer', 'gut', 'neu', 'kalt', 'nass']",1,5.466355299926363,None,,,,,,,,,,,,,,,,,,,,,,,,,,,,,,,,,,,,,,,,,,,,,,,,,,,,,,,,,,,,,,,,,2,2023-11-21_08h39.09.227,watkins1,2023.2.3,99.75480270919152,1,2023-11-21 08h39.17.654564 +0000,
,,,,,,,8,0,8,0,,,,,,,,,,,,,,,,,124.23398160003126,,,,,,,,,,,,124.22492079995573,124.7163453999674,,,2,2.1972637999569997,,,,,,,,,,,,,,,,,,,,,124.71635570004582,130.72213819995522,Kerze,schlicht,"['Kerze', 'schlicht']",restudy,2,"['Kette', 'Löffel', 'Socke', 'Rucksack', 'Stift', 'Bürste', 'Kamera', 'Telefon', 'Kerze', 'Blume', 'Jacke', 'Buch', 'Ring', 'Eimer', 'Fahrrad', 'Hut', 'Brille', 'Tasche', 'Tasse', 'Hammer', 'Schere', 'Lampe', 'Schlüssel', 'Flasche', 'Vase', 'Trommel', 'Kiste', 'Uhr', 'Würfel', 'Geige']","['teuer', 'dunkel', 'glatt', 'schwer', 'gut', 'neu', 'kalt', 'nass', 'schlicht']",2,2.1972637999569997,None,,,,,,,,,,,,,,,,,,,,,,,,,,,,,,,,,,,,,,,,,,,,,,,,,,,,,,,,,,,,,,,,,2,2023-11-21_08h39.09.227,watkins1,2023.2.3,99.75480270919152,1,2023-11-21 08h39.17.654564 +0000,
,,,,,,,9,0,9,0,,,,,,,,,,,,,,,,,130.73156430001836,,,,,,,,,,,,130.7226600999711,131.21371709997766,,,1,1.332342499983497,,,,,,,,,,,,,,,,,,,,,131.21372680005152,137.21451990003698,Blume,schmutzig,"['Blume', 'schmutzig']",restudy,2,"['Kette', 'Löffel', 'Socke', 'Rucksack', 'Stift', 'Bürste', 'Kamera', 'Telefon', 'Kerze', 'Blume', 'Jacke', 'Buch', 'Ring', 'Eimer', 'Fahrrad', 'Hut', 'Brille', 'Tasche', 'Tasse', 'Hammer', 'Schere', 'Lampe', 'Schlüssel', 'Flasche', 'Vase', 'Trommel', 'Kiste', 'Uhr', 'Würfel', 'Geige']","['teuer', 'dunkel', 'glatt', 'schwer', 'gut', 'neu', 'kalt', 'nass', 'schlicht', 'schmutzig']",1,1.332342499983497,None,,,,,,,,,,,,,,,,,,,,,,,,,,,,,,,,,,,,,,,,,,,,,,,,,,,,,,,,,,,,,,,,,2,2023-11-21_08h39.09.227,watkins1,2023.2.3,99.75480270919152,1,2023-11-21 08h39.17.654564 +0000,
,,,,,,,10,0,10,0,,,,,,,,,,,,,,,,,137.22397639998235,,,,,,,,,,,,137.21505140000954,137.70588909997605,,,1,3.383323200047016,,,,,,,,,,,,,,,,,,,,,137.70590050006285,143.70779799995944,Jacke,rustikal,"['Jacke', 'rustikal']",test_sub,2,"['Kette', 'Löffel', 'Socke', 'Rucksack', 'Stift', 'Bürste', 'Kamera', 'Telefon', 'Kerze', 'Blume', 'Jacke', 'Buch', 'Ring', 'Eimer', 'Fahrrad', 'Hut', 'Brille', 'Tasche', 'Tasse', 'Hammer', 'Schere', 'Lampe', 'Schlüssel', 'Flasche', 'Vase', 'Trommel', 'Kiste', 'Uhr', 'Würfel', 'Geige']","['teuer', 'dunkel', 'glatt', 'schwer', 'gut', 'neu', 'kalt', 'nass', 'schlicht', 'schmutzig', 'rustikal']",1,3.383323200047016,None,,,,,,,,,,,,,,,,,,,,,,,,,,,,,,,,,,,,,,,,,,,,,,,,,,,,,,,,,,,,,,,,,2,2023-11-21_08h39.09.227,watkins1,2023.2.3,99.75480270919152,1,2023-11-21 08h39.17.654564 +0000,
,,,,,,,11,0,11,0,,,,,,,,,,,,,,,,,143.71720479999203,,,,,,,,,,,,143.70833379996475,144.19928099995013,,,2,3.338597399997525,,,,,,,,,,,,,,,,,,,,,144.19929030002095,150.20538759999909,Buch,robust,"['Buch', 'robust']",test_sub,2,"['Kette', 'Löffel', 'Socke', 'Rucksack', 'Stift', 'Bürste', 'Kamera', 'Telefon', 'Kerze', 'Blume', 'Jacke', 'Buch', 'Ring', 'Eimer', 'Fahrrad', 'Hut', 'Brille', 'Tasche', 'Tasse', 'Hammer', 'Schere', 'Lampe', 'Schlüssel', 'Flasche', 'Vase', 'Trommel', 'Kiste', 'Uhr', 'Würfel', 'Geige']","['teuer', 'dunkel', 'glatt', 'schwer', 'gut', 'neu', 'kalt', 'nass', 'schlicht', 'schmutzig', 'rustikal', 'robust']",2,3.338597399997525,None,,,,,,,,,,,,,,,,,,,,,,,,,,,,,,,,,,,,,,,,,,,,,,,,,,,,,,,,,,,,,,,,,2,2023-11-21_08h39.09.227,watkins1,2023.2.3,99.75480270919152,1,2023-11-21 08h39.17.654564 +0000,
,,,,,,,12,0,12,0,,,,,,,,,,,,,,,,,150.21487110003363,,,,,,,,,,,,150.2059159000637,150.69684790004976,,,2,3.9365684998920187,,,,,,,,,,,,,,,,,,,,,150.69685800001025,156.70524160005152,Ring,kaputt,"['Ring', 'kaputt']",restudy,2,"['Kette', 'Löffel', 'Socke', 'Rucksack', 'Stift', 'Bürste', 'Kamera', 'Telefon', 'Kerze', 'Blume', 'Jacke', 'Buch', 'Ring', 'Eimer', 'Fahrrad', 'Hut', 'Brille', 'Tasche', 'Tasse', 'Hammer', 'Schere', 'Lampe', 'Schlüssel', 'Flasche', 'Vase', 'Trommel', 'Kiste', 'Uhr', 'Würfel', 'Geige']","['teuer', 'dunkel', 'glatt', 'schwer', 'gut', 'neu', 'kalt', 'nass', 'schlicht', 'schmutzig', 'rustikal', 'robust', 'kaputt']",2,3.9365684998920187,None,,,,,,,,,,,,,,,,,,,,,,,,,,,,,,,,,,,,,,,,,,,,,,,,,,,,,,,,,,,,,,,,,2,2023-11-21_08h39.09.227,watkins1,2023.2.3,99.75480270919152,1,2023-11-21 08h39.17.654564 +0000,
,,,,,,,13,0,13,0,,,,,,,,,,,,,,,,,156.71471610001754,,,,,,,,,,,,156.70577450003475,157.19670640002005,,,1,1.2766797000076622,,,,,,,,,,,,,,,,,,,,,157.19671639997978,163.19732999999542,Eimer,elegant,"['Eimer', 'elegant']",restudy,2,"['Kette', 'Löffel', 'Socke', 'Rucksack', 'Stift', 'Bürste', 'Kamera', 'Telefon', 'Kerze', 'Blume', 'Jacke', 'Buch', 'Ring', 'Eimer', 'Fahrrad', 'Hut', 'Brille', 'Tasche', 'Tasse', 'Hammer', 'Schere', 'Lampe', 'Schlüssel', 'Flasche', 'Vase', 'Trommel', 'Kiste', 'Uhr', 'Würfel', 'Geige']","['teuer', 'dunkel', 'glatt', 'schwer', 'gut', 'neu', 'kalt', 'nass', 'schlicht', 'schmutzig', 'rustikal', 'robust', 'kaputt', 'elegant']",1,1.2766797000076622,None,,,,,,,,,,,,,,,,,,,,,,,,,,,,,,,,,,,,,,,,,,,,,,,,,,,,,,,,,,,,,,,,,2,2023-11-21_08h39.09.227,watkins1,2023.2.3,99.75480270919152,1,2023-11-21 08h39.17.654564 +0000,
,,,,,,,14,0,14,0,,,,,,,,,,,,,,,,,163.20678510004655,,,,,,,,,,,,163.19787050003652,163.68879110005219,,,3,2.1448997000698,,,,,,,,,,,,,,,,,,,,,163.68880210001953,169.69830980000552,Fahrrad,bunt,"['Fahrrad', 'bunt']",test_sub,2,"['Kette', 'Löffel', 'Socke', 'Rucksack', 'Stift', 'Bürste', 'Kamera', 'Telefon', 'Kerze', 'Blume', 'Jacke', 'Buch', 'Ring', 'Eimer', 'Fahrrad', 'Hut', 'Brille', 'Tasche', 'Tasse', 'Hammer', 'Schere', 'Lampe', 'Schlüssel', 'Flasche', 'Vase', 'Trommel', 'Kiste', 'Uhr', 'Würfel', 'Geige']","['teuer', 'dunkel', 'glatt', 'schwer', 'gut', 'neu', 'kalt', 'nass', 'schlicht', 'schmutzig', 'rustikal', 'robust', 'kaputt', 'elegant', 'bunt']",3,2.1448997000698,None,,,,,,,,,,,,,,,,,,,,,,,,,,,,,,,,,,,,,,,,,,,,,,,,,,,,,,,,,,,,,,,,,2,2023-11-21_08h39.09.227,watkins1,2023.2.3,99.75480270919152,1,2023-11-21 08h39.17.654564 +0000,
,,,,,,,15,0,15,0,,,,,,,,,,,,,,,,,169.7078706000466,,,,,,,,,,,,169.69884209998418,170.18997199996375,,,1,2.852173399995081,,,,,,,,,,,,,,,,,,,,,170.18998190003913,176.19812449999154,Hut,sportlich,"['Hut', 'sportlich']",restudy,2,"['Kette', 'Löffel', 'Socke', 'Rucksack', 'Stift', 'Bürste', 'Kamera', 'Telefon', 'Kerze', 'Blume', 'Jacke', 'Buch', 'Ring', 'Eimer', 'Fahrrad', 'Hut', 'Brille', 'Tasche', 'Tasse', 'Hammer', 'Schere', 'Lampe', 'Schlüssel', 'Flasche', 'Vase', 'Trommel', 'Kiste', 'Uhr', 'Würfel', 'Geige']","['teuer', 'dunkel', 'glatt', 'schwer', 'gut', 'neu', 'kalt', 'nass', 'schlicht', 'schmutzig', 'rustikal', 'robust', 'kaputt', 'elegant', 'bunt', 'sportlich']",1,2.852173399995081,None,,,,,,,,,,,,,,,,,,,,,,,,,,,,,,,,,,,,,,,,,,,,,,,,,,,,,,,,,,,,,,,,,2,2023-11-21_08h39.09.227,watkins1,2023.2.3,99.75480270919152,1,2023-11-21 08h39.17.654564 +0000,
,,,,,,,16,0,16,0,,,,,,,,,,,,,,,,,176.20760259998497,,,,,,,,,,,,176.19865300005767,176.68969370005652,,,2,1.3754502000520006,,,,,,,,,,,,,,,,,,,,,176.6897049000254,182.6907739000162,Brille,glänzend,"['Brille', 'glänzend']",restudy,2,"['Kette', 'Löffel', 'Socke', 'Rucksack', 'Stift', 'Bürste', 'Kamera', 'Telefon', 'Kerze', 'Blume', 'Jacke', 'Buch', 'Ring', 'Eimer', 'Fahrrad', 'Hut', 'Brille', 'Tasche', 'Tasse', 'Hammer', 'Schere', 'Lampe', 'Schlüssel', 'Flasche', 'Vase', 'Trommel', 'Kiste', 'Uhr', 'Würfel', 'Geige']","['teuer', 'dunkel', 'glatt', 'schwer', 'gut', 'neu', 'kalt', 'nass', 'schlicht', 'schmutzig', 'rustikal', 'robust', 'kaputt', 'elegant', 'bunt', 'sportlich', 'glänzend']",2,1.3754502000520006,None,,,,,,,,,,,,,,,,,,,,,,,,,,,,,,,,,,,,,,,,,,,,,,,,,,,,,,,,,,,,,,,,,2,2023-11-21_08h39.09.227,watkins1,2023.2.3,99.75480270919152,1,2023-11-21 08h39.17.654564 +0000,
,,,,,,,17,0,17,0,,,,,,,,,,,,,,,,,182.70025640004314,,,,,,,,,,,,182.6913032999728,183.18236800003797,,,3,1.4515960999997333,,,,,,,,,,,,,,,,,,,,,183.18237840000074,189.19178820005618,Tasche,praktisch,"['Tasche', 'praktisch']",restudy,2,"['Kette', 'Löffel', 'Socke', 'Rucksack', 'Stift', 'Bürste', 'Kamera', 'Telefon', 'Kerze', 'Blume', 'Jacke', 'Buch', 'Ring', 'Eimer', 'Fahrrad', 'Hut', 'Brille', 'Tasche', 'Tasse', 'Hammer', 'Schere', 'Lampe', 'Schlüssel', 'Flasche', 'Vase', 'Trommel', 'Kiste', 'Uhr', 'Würfel', 'Geige']","['teuer', 'dunkel', 'glatt', 'schwer', 'gut', 'neu', 'kalt', 'nass', 'schlicht', 'schmutzig', 'rustikal', 'robust', 'kaputt', 'elegant', 'bunt', 'sportlich', 'glänzend', 'praktisch']",3,1.4515960999997333,None,,,,,,,,,,,,,,,,,,,,,,,,,,,,,,,,,,,,,,,,,,,,,,,,,,,,,,,,,,,,,,,,,2,2023-11-21_08h39.09.227,watkins1,2023.2.3,99.75480270919152,1,2023-11-21 08h39.17.654564 +0000,
,,,,,,,18,0,18,0,,,,,,,,,,,,,,,,,189.2012042000424,,,,,,,,,,,,189.19232479995117,189.6833309000358,,,1,1.2305728999199346,,,,,,,,,,,,,,,,,,,,,189.68334139999934,195.68405949999578,Tasse,lustig,"['Tasse', 'lustig']",test_sub,2,"['Kette', 'Löffel', 'Socke', 'Rucksack', 'Stift', 'Bürste', 'Kamera', 'Telefon', 'Kerze', 'Blume', 'Jacke', 'Buch', 'Ring', 'Eimer', 'Fahrrad', 'Hut', 'Brille', 'Tasche', 'Tasse', 'Hammer', 'Schere', 'Lampe', 'Schlüssel', 'Flasche', 'Vase', 'Trommel', 'Kiste', 'Uhr', 'Würfel', 'Geige']","['teuer', 'dunkel', 'glatt', 'schwer', 'gut', 'neu', 'kalt', 'nass', 'schlicht', 'schmutzig', 'rustikal', 'robust', 'kaputt', 'elegant', 'bunt', 'sportlich', 'glänzend', 'praktisch', 'lustig']",1,1.2305728999199346,None,,,,,,,,,,,,,,,,,,,,,,,,,,,,,,,,,,,,,,,,,,,,,,,,,,,,,,,,,,,,,,,,,2,2023-11-21_08h39.09.227,watkins1,2023.2.3,99.75480270919152,1,2023-11-21 08h39.17.654564 +0000,
,,,,,,,19,0,19,0,,,,,,,,,,,,,,,,,195.69352169998456,,,,,,,,,,,,195.68460369994864,196.17553410003893,,,1,2.066655100090429,,,,,,,,,,,,,,,,,,,,,196.17554409999866,202.18419739999808,Hammer,hohl,"['Hammer', 'hohl']",test_sub,2,"['Kette', 'Löffel', 'Socke', 'Rucksack', 'Stift', 'Bürste', 'Kamera', 'Telefon', 'Kerze', 'Blume', 'Jacke', 'Buch', 'Ring', 'Eimer', 'Fahrrad', 'Hut', 'Brille', 'Tasche', 'Tasse', 'Hammer', 'Schere', 'Lampe', 'Schlüssel', 'Flasche', 'Vase', 'Trommel', 'Kiste', 'Uhr', 'Würfel', 'Geige']","['teuer', 'dunkel', 'glatt', 'schwer', 'gut', 'neu', 'kalt', 'nass', 'schlicht', 'schmutzig', 'rustikal', 'robust', 'kaputt', 'elegant', 'bunt', 'sportlich', 'glänzend', 'praktisch', 'lustig', 'hohl']",1,2.066655100090429,None,,,,,,,,,,,,,,,,,,,,,,,,,,,,,,,,,,,,,,,,,,,,,,,,,,,,,,,,,,,,,,,,,2,2023-11-21_08h39.09.227,watkins1,2023.2.3,99.75480270919152,1,2023-11-21 08h39.17.654564 +0000,
,,,,,,,20,0,20,0,,,,,,,,,,,,,,,,,202.19363890006207,,,,,,,,,,,,202.1847473999951,202.67567200004123,,,1,4.486296799965203,,,,,,,,,,,,,,,,,,,,,202.6756829000078,208.67805109999608,Schere,hübsch,"['Schere', 'hübsch']",test_sub,2,"['Kette', 'Löffel', 'Socke', 'Rucksack', 'Stift', 'Bürste', 'Kamera', 'Telefon', 'Kerze', 'Blume', 'Jacke', 'Buch', 'Ring', 'Eimer', 'Fahrrad', 'Hut', 'Brille', 'Tasche', 'Tasse', 'Hammer', 'Schere', 'Lampe', 'Schlüssel', 'Flasche', 'Vase', 'Trommel', 'Kiste', 'Uhr', 'Würfel', 'Geige']","['teuer', 'dunkel', 'glatt', 'schwer', 'gut', 'neu', 'kalt', 'nass', 'schlicht', 'schmutzig', 'rustikal', 'robust', 'kaputt', 'elegant', 'bunt', 'sportlich', 'glänzend', 'praktisch', 'lustig', 'hohl', 'hübsch']",1,4.486296799965203,None,,,,,,,,,,,,,,,,,,,,,,,,,,,,,,,,,,,,,,,,,,,,,,,,,,,,,,,,,,,,,,,,,2,2023-11-21_08h39.09.227,watkins1,2023.2.3,99.75480270919152,1,2023-11-21 08h39.17.654564 +0000,
,,,,,,,21,0,21,0,,,,,,,,,,,,,,,,,208.687396000023,,,,,,,,,,,,208.67858850001357,209.16948909999337,,,None,[],,,,,,,,,,,,,,,,,,,,,209.1694985999493,215.17050590005238,Lampe,krumm,"['Lampe', 'krumm']",test_sub,2,"['Kette', 'Löffel', 'Socke', 'Rucksack', 'Stift', 'Bürste', 'Kamera', 'Telefon', 'Kerze', 'Blume', 'Jacke', 'Buch', 'Ring', 'Eimer', 'Fahrrad', 'Hut', 'Brille', 'Tasche', 'Tasse', 'Hammer', 'Schere', 'Lampe', 'Schlüssel', 'Flasche', 'Vase', 'Trommel', 'Kiste', 'Uhr', 'Würfel', 'Geige']","['teuer', 'dunkel', 'glatt', 'schwer', 'gut', 'neu', 'kalt', 'nass', 'schlicht', 'schmutzig', 'rustikal', 'robust', 'kaputt', 'elegant', 'bunt', 'sportlich', 'glänzend', 'praktisch', 'lustig', 'hohl', 'hübsch', 'krumm']",None,,,,,,,,,,,,,,,,,,,,,,,,,,,,,,,,,,,,,,,,,,,,,,,,,,,,,,,,,,,,,,,,,,,2,2023-11-21_08h39.09.227,watkins1,2023.2.3,99.75480270919152,1,2023-11-21 08h39.17.654564 +0000,
,,,,,,,22,0,22,0,,,,,,,,,,,,,,,,,215.180070900009,,,,,,,,,,,,215.17088260001037,215.66214110003784,,,1,2.6595973999937996,,,,,,,,,,,,,,,,,,,,,215.66215139999986,221.66924309998285,Schlüssel,winzig,"['Schlüssel', 'winzig']",test_sub,2,"['Kette', 'Löffel', 'Socke', 'Rucksack', 'Stift', 'Bürste', 'Kamera', 'Telefon', 'Kerze', 'Blume', 'Jacke', 'Buch', 'Ring', 'Eimer', 'Fahrrad', 'Hut', 'Brille', 'Tasche', 'Tasse', 'Hammer', 'Schere', 'Lampe', 'Schlüssel', 'Flasche', 'Vase', 'Trommel', 'Kiste', 'Uhr', 'Würfel', 'Geige']","['teuer', 'dunkel', 'glatt', 'schwer', 'gut', 'neu', 'kalt', 'nass', 'schlicht', 'schmutzig', 'rustikal', 'robust', 'kaputt', 'elegant', 'bunt', 'sportlich', 'glänzend', 'praktisch', 'lustig', 'hohl', 'hübsch', 'krumm', 'winzig']",1,2.6595973999937996,None,,,,,,,,,,,,,,,,,,,,,,,,,,,,,,,,,,,,,,,,,,,,,,,,,,,,,,,,,,,,,,,,,2,2023-11-21_08h39.09.227,watkins1,2023.2.3,99.75480270919152,1,2023-11-21 08h39.17.654564 +0000,
,,,,,,,23,0,23,0,,,,,,,,,,,,,,,,,221.6786868000636,,,,,,,,,,,,221.6697955999989,222.16073650005274,,,1,1.8250942999729887,,,,,,,,,,,,,,,,,,,,,222.16074660001323,228.16895990003832,Flasche,biegsam,"['Flasche', 'biegsam']",test_sub,2,"['Kette', 'Löffel', 'Socke', 'Rucksack', 'Stift', 'Bürste', 'Kamera', 'Telefon', 'Kerze', 'Blume', 'Jacke', 'Buch', 'Ring', 'Eimer', 'Fahrrad', 'Hut', 'Brille', 'Tasche', 'Tasse', 'Hammer', 'Schere', 'Lampe', 'Schlüssel', 'Flasche', 'Vase', 'Trommel', 'Kiste', 'Uhr', 'Würfel', 'Geige']","['teuer', 'dunkel', 'glatt', 'schwer', 'gut', 'neu', 'kalt', 'nass', 'schlicht', 'schmutzig', 'rustikal', 'robust', 'kaputt', 'elegant', 'bunt', 'sportlich', 'glänzend', 'praktisch', 'lustig', 'hohl', 'hübsch', 'krumm', 'winzig', 'biegsam']",1,1.8250942999729887,None,,,,,,,,,,,,,,,,,,,,,,,,,,,,,,,,,,,,,,,,,,,,,,,,,,,,,,,,,,,,,,,,,2,2023-11-21_08h39.09.227,watkins1,2023.2.3,99.75480270919152,1,2023-11-21 08h39.17.654564 +0000,
,,,,,,,24,0,24,0,,,,,,,,,,,,,,,,,228.1783860999858,,,,,,,,,,,,228.16949660005048,228.66051680000965,,,1,2.884831600007601,,,,,,,,,,,,,,,,,,,,,228.6605269999709,234.66292829997838,Vase,klobig,"['Vase', 'klobig']",restudy,2,"['Kette', 'Löffel', 'Socke', 'Rucksack', 'Stift', 'Bürste', 'Kamera', 'Telefon', 'Kerze', 'Blume', 'Jacke', 'Buch', 'Ring', 'Eimer', 'Fahrrad', 'Hut', 'Brille', 'Tasche', 'Tasse', 'Hammer', 'Schere', 'Lampe', 'Schlüssel', 'Flasche', 'Vase', 'Trommel', 'Kiste', 'Uhr', 'Würfel', 'Geige']","['teuer', 'dunkel', 'glatt', 'schwer', 'gut', 'neu', 'kalt', 'nass', 'schlicht', 'schmutzig', 'rustikal', 'robust', 'kaputt', 'elegant', 'bunt', 'sportlich', 'glänzend', 'praktisch', 'lustig', 'hohl', 'hübsch', 'krumm', 'winzig', 'biegsam', 'klobig']",1,2.884831600007601,None,,,,,,,,,,,,,,,,,,,,,,,,,,,,,,,,,,,,,,,,,,,,,,,,,,,,,,,,,,,,,,,,,2,2023-11-21_08h39.09.227,watkins1,2023.2.3,99.75480270919152,1,2023-11-21 08h39.17.654564 +0000,
,,,,,,,25,0,25,0,,,,,,,,,,,,,,,,,234.67239389999304,,,,,,,,,,,,234.6634616999654,235.1544490000233,,,2,3.854939699987881,,,,,,,,,,,,,,,,,,,,,235.15445899998304,241.1602176000597,Trommel,verspielt,"['Trommel', 'verspielt']",restudy,2,"['Kette', 'Löffel', 'Socke', 'Rucksack', 'Stift', 'Bürste', 'Kamera', 'Telefon', 'Kerze', 'Blume', 'Jacke', 'Buch', 'Ring', 'Eimer', 'Fahrrad', 'Hut', 'Brille', 'Tasche', 'Tasse', 'Hammer', 'Schere', 'Lampe', 'Schlüssel', 'Flasche', 'Vase', 'Trommel', 'Kiste', 'Uhr', 'Würfel', 'Geige']","['teuer', 'dunkel', 'glatt', 'schwer', 'gut', 'neu', 'kalt', 'nass', 'schlicht', 'schmutzig', 'rustikal', 'robust', 'kaputt', 'elegant', 'bunt', 'sportlich', 'glänzend', 'praktisch', 'lustig', 'hohl', 'hübsch', 'krumm', 'winzig', 'biegsam', 'klobig', 'verspielt']",2,3.854939699987881,None,,,,,,,,,,,,,,,,,,,,,,,,,,,,,,,,,,,,,,,,,,,,,,,,,,,,,,,,,,,,,,,,,2,2023-11-21_08h39.09.227,watkins1,2023.2.3,99.75480270919152,1,2023-11-21 08h39.17.654564 +0000,
,,,,,,,26,0,26,0,,,,,,,,,,,,,,,,,241.16969230002724,,,,,,,,,,,,241.16075449995697,241.651692799991,,,1,1.894120700075291,,,,,,,,,,,,,,,,,,,,,241.65170369995758,247.65902370004915,Kiste,strahlend,"['Kiste', 'strahlend']",restudy,2,"['Kette', 'Löffel', 'Socke', 'Rucksack', 'Stift', 'Bürste', 'Kamera', 'Telefon', 'Kerze', 'Blume', 'Jacke', 'Buch', 'Ring', 'Eimer', 'Fahrrad', 'Hut', 'Brille', 'Tasche', 'Tasse', 'Hammer', 'Schere', 'Lampe', 'Schlüssel', 'Flasche', 'Vase', 'Trommel', 'Kiste', 'Uhr', 'Würfel', 'Geige']","['teuer', 'dunkel', 'glatt', 'schwer', 'gut', 'neu', 'kalt', 'nass', 'schlicht', 'schmutzig', 'rustikal', 'robust', 'kaputt', 'elegant', 'bunt', 'sportlich', 'glänzend', 'praktisch', 'lustig', 'hohl', 'hübsch', 'krumm', 'winzig', 'biegsam', 'klobig', 'verspielt', 'strahlend']",1,1.894120700075291,None,,,,,,,,,,,,,,,,,,,,,,,,,,,,,,,,,,,,,,,,,,,,,,,,,,,,,,,,,,,,,,,,,2,2023-11-21_08h39.09.227,watkins1,2023.2.3,99.75480270919152,1,2023-11-21 08h39.17.654564 +0000,
,,,,,,,27,0,27,0,,,,,,,,,,,,,,,,,247.6684144999599,,,,,,,,,,,,247.65955009998288,248.1507421999704,,,2,4.818300599930808,,,,,,,,,,,,,,,,,,,,,248.15075320005417,254.15919859998394,Uhr,dick,"['Uhr', 'dick']",test_sub,2,"['Kette', 'Löffel', 'Socke', 'Rucksack', 'Stift', 'Bürste', 'Kamera', 'Telefon', 'Kerze', 'Blume', 'Jacke', 'Buch', 'Ring', 'Eimer', 'Fahrrad', 'Hut', 'Brille', 'Tasche', 'Tasse', 'Hammer', 'Schere', 'Lampe', 'Schlüssel', 'Flasche', 'Vase', 'Trommel', 'Kiste', 'Uhr', 'Würfel', 'Geige']","['teuer', 'dunkel', 'glatt', 'schwer', 'gut', 'neu', 'kalt', 'nass', 'schlicht', 'schmutzig', 'rustikal', 'robust', 'kaputt', 'elegant', 'bunt', 'sportlich', 'glänzend', 'praktisch', 'lustig', 'hohl', 'hübsch', 'krumm', 'winzig', 'biegsam', 'klobig', 'verspielt', 'strahlend', 'dick']",2,4.818300599930808,None,,,,,,,,,,,,,,,,,,,,,,,,,,,,,,,,,,,,,,,,,,,,,,,,,,,,,,,,,,,,,,,,,2,2023-11-21_08h39.09.227,watkins1,2023.2.3,99.75480270919152,1,2023-11-21 08h39.17.654564 +0000,
,,,,,,,28,0,28,0,,,,,,,,,,,,,,,,,254.16867240006104,,,,,,,,,,,,254.15972760005388,254.6507808000315,,,3,2.0863358000060543,,,,,,,,,,,,,,,,,,,,,254.65079079999123,260.6513590000104,Würfel,gepunktet,"['Würfel', 'gepunktet']",restudy,2,"['Kette', 'Löffel', 'Socke', 'Rucksack', 'Stift', 'Bürste', 'Kamera', 'Telefon', 'Kerze', 'Blume', 'Jacke', 'Buch', 'Ring', 'Eimer', 'Fahrrad', 'Hut', 'Brille', 'Tasche', 'Tasse', 'Hammer', 'Schere', 'Lampe', 'Schlüssel', 'Flasche', 'Vase', 'Trommel', 'Kiste', 'Uhr', 'Würfel', 'Geige']","['teuer', 'dunkel', 'glatt', 'schwer', 'gut', 'neu', 'kalt', 'nass', 'schlicht', 'schmutzig', 'rustikal', 'robust', 'kaputt', 'elegant', 'bunt', 'sportlich', 'glänzend', 'praktisch', 'lustig', 'hohl', 'hübsch', 'krumm', 'winzig', 'biegsam', 'klobig', 'verspielt', 'strahlend', 'dick', 'gepunktet']",3,2.0863358000060543,None,,,,,,,,,,,,,,,,,,,,,,,,,,,,,,,,,,,,,,,,,,,,,,,,,,,,,,,,,,,,,,,,,2,2023-11-21_08h39.09.227,watkins1,2023.2.3,99.75480270919152,1,2023-11-21 08h39.17.654564 +0000,
,,,,,,,29,0,29,0,,,,,,,,,,,,,,,,,260.6607895999914,,,,,,,,,,,,260.6518987000454,261.1428372999653,,,2,3.7300946000032127,,,,,,,,,,,,,,,,,,,,,261.1428477000445,267.1451411000453,Geige,gestreift,"['Geige', 'gestreift']",test_sub,2,"['Kette', 'Löffel', 'Socke', 'Rucksack', 'Stift', 'Bürste', 'Kamera', 'Telefon', 'Kerze', 'Blume', 'Jacke', 'Buch', 'Ring', 'Eimer', 'Fahrrad', 'Hut', 'Brille', 'Tasche', 'Tasse', 'Hammer', 'Schere', 'Lampe', 'Schlüssel', 'Flasche', 'Vase', 'Trommel', 'Kiste', 'Uhr', 'Würfel', 'Geige']","['teuer', 'dunkel', 'glatt', 'schwer', 'gut', 'neu', 'kalt', 'nass', 'schlicht', 'schmutzig', 'rustikal', 'robust', 'kaputt', 'elegant', 'bunt', 'sportlich', 'glänzend', 'praktisch', 'lustig', 'hohl', 'hübsch', 'krumm', 'winzig', 'biegsam', 'klobig', 'verspielt', 'strahlend', 'dick', 'gepunktet', 'gestreift']",2,3.7300946000032127,None,,,,,,,,,,,,,,,,,,,,,,,,,,,,,,,,,,,,,,,,,,,,,,,,,,,,,,,,,,,,,,,,,2,2023-11-21_08h39.09.227,watkins1,2023.2.3,99.75480270919152,1,2023-11-21 08h39.17.654564 +0000,
,,,,,,,,,,,0,0,0,0,,,,,,,,,,,,,267.1546139999991,,,,,,,,,,,,267.145998800057,267.6366098000435,,,[],[],,,,,,,,,,,,3.496217899955809,None,,,,,Fahrrad,,,,,Fahrrad,bunt,"['Fahrrad', 'bunt']",test_sub,2,,,,,,267.1459236999508,267.14597219997086,"['Fahrrad', 'Kerze', 'Kiste', 'Schere', 'Kamera', 'Schlüssel', 'Buch', 'Hut', 'Socke', 'Eimer', 'Würfel', 'Geige', 'Telefon', 'Tasse', 'Blume', 'Uhr', 'Löffel', 'Flasche', 'Lampe', 'Kette', 'Hammer', 'Jacke', 'Brille', 'Stift', 'Tasche', 'Bürste', 'Vase', 'Rucksack', 'Trommel', 'Ring']",267.63662080001086,267.63952369999606,None,267.6397165999515,267.6423892000457,None,267.6425508999964,267.64524600002915,None,267.6454041999532,267.6467644999502,267.6467772000469,1,273.6536018999759,,,,,,,,,,,,,,,,,,,,,,,,,,,,,,,,,,,,,,,,,,,,,,,,2,2023-11-21_08h39.09.227,watkins1,2023.2.3,99.75480270919152,1,2023-11-21 08h39.17.654564 +0000,
,,,,,,,,,,,1,0,1,0,,,,,,,,,,,,,273.6634053000016,,,,,,,,,,,,273.6538848000346,274.14543659996707,,,[],[],,,,,,,,,,,,None,None,,,,,,,,,,Kerze,schlicht,"['Kerze', 'schlicht']",restudy,2,,,,,,273.6538179999916,273.65385540004354,"['Fahrrad', 'Kerze', 'Kiste', 'Schere', 'Kamera', 'Schlüssel', 'Buch', 'Hut', 'Socke', 'Eimer', 'Würfel', 'Geige', 'Telefon', 'Tasse', 'Blume', 'Uhr', 'Löffel', 'Flasche', 'Lampe', 'Kette', 'Hammer', 'Jacke', 'Brille', 'Stift', 'Tasche', 'Bürste', 'Vase', 'Rucksack', 'Trommel', 'Ring']",274.14544730004855,274.14800010004546,None,274.1481249999488,280.15078480006196,2,280.15131360001396,280.1542616999941,None,280.1543824999826,280.1555625000037,280.1555738999741,,280.15713189996313,5.5574866000097245,None,,,,,,,,,,,,,,,,,,,,,,,,,,,,,,,,,,,,,,,,,,,,,,2,2023-11-21_08h39.09.227,watkins1,2023.2.3,99.75480270919152,1,2023-11-21 08h39.17.654564 +0000,
,,,,,,,,,,,2,0,2,0,,,,,,,,,,,,,280.1603923999937,,,,,,,,,,,,280.1574274000013,280.6524346000515,,,[],[],,,,,,,,,,,,None,None,,,,,,,,,,Kiste,strahlend,"['Kiste', 'strahlend']",restudy,2,,,,,,280.15735900006257,280.1574005000293,"['Fahrrad', 'Kerze', 'Kiste', 'Schere', 'Kamera', 'Schlüssel', 'Buch', 'Hut', 'Socke', 'Eimer', 'Würfel', 'Geige', 'Telefon', 'Tasse', 'Blume', 'Uhr', 'Löffel', 'Flasche', 'Lampe', 'Kette', 'Hammer', 'Jacke', 'Brille', 'Stift', 'Tasche', 'Bürste', 'Vase', 'Rucksack', 'Trommel', 'Ring']",280.6524460000219,280.6552435000194,None,280.6553712000605,286.6566218000371,1,286.6569268000312,286.6597918999614,None,286.6599076000275,286.6610945999855,286.66110619995743,,286.662383900024,5.443055799929425,None,,,,,,,,,,,,,,,,,,,,,,,,,,,,,,,,,,,,,,,,,,,,,,2,2023-11-21_08h39.09.227,watkins1,2023.2.3,99.75480270919152,1,2023-11-21 08h39.17.654564 +0000,
,,,,,,,,,,,3,0,3,0,,,,,,,,,,,,,286.6661871999968,,,,,,,,,,,,286.6626697999891,287.15826249995735,,,[],[],,,,,,,,,,,,None,None,,,,,,,,,,Schere,hübsch,"['Schere', 'hübsch']",test_sub,2,,,,,,286.6626047999598,286.6626429000171,"['Fahrrad', 'Kerze', 'Kiste', 'Schere', 'Kamera', 'Schlüssel', 'Buch', 'Hut', 'Socke', 'Eimer', 'Würfel', 'Geige', 'Telefon', 'Tasse', 'Blume', 'Uhr', 'Löffel', 'Flasche', 'Lampe', 'Kette', 'Hammer', 'Jacke', 'Brille', 'Stift', 'Tasche', 'Bürste', 'Vase', 'Rucksack', 'Trommel', 'Ring']",287.1582740000449,287.1611029000487,None,287.16123189998325,287.1627129999688,None,287.16282640001737,287.1642904999899,None,287.16440050001256,287.16559950006194,287.16561190003995,0,293.16935250000097,,,,,,,,,,,,,,,,,,,,,,,,,,,,,,,,,,,,,,,,,,,,,,,,2,2023-11-21_08h39.09.227,watkins1,2023.2.3,99.75480270919152,1,2023-11-21 08h39.17.654564 +0000,
,,,,,,,,,,,4,0,4,0,,,,,,,,,,,,,293.17904990003444,,,,,,,,,,,,293.16964340000413,293.661075299955,,,[],[],,,,,,,,,,,,None,None,,,,,,,,,,Kamera,kalt,"['Kamera', 'kalt']",restudy,2,,,,,,293.16957549995277,293.1696121999994,"['Fahrrad', 'Kerze', 'Kiste', 'Schere', 'Kamera', 'Schlüssel', 'Buch', 'Hut', 'Socke', 'Eimer', 'Würfel', 'Geige', 'Telefon', 'Tasse', 'Blume', 'Uhr', 'Löffel', 'Flasche', 'Lampe', 'Kette', 'Hammer', 'Jacke', 'Brille', 'Stift', 'Tasche', 'Bürste', 'Vase', 'Rucksack', 'Trommel', 'Ring']",293.66108620003797,293.6638240000466,None,293.66395139996894,299.66539900004864,1,299.66570430004504,299.66829639999196,None,299.66841339995153,299.6696186000481,299.66963040002156,,299.6706643999787,4.618276000022888,None,,,,,,,,,,,,,,,,,,,,,,,,,,,,,,,,,,,,,,,,,,,,,,2,2023-11-21_08h39.09.227,watkins1,2023.2.3,99.75480270919152,1,2023-11-21 08h39.17.654564 +0000,
,,,,,,,,,,,5,0,5,0,,,,,,,,,,,,,299.674823999987,,,,,,,,,,,,299.67094840004575,300.16688070003875,,,[],[],,,,,,,,,,,,None,None,,,,,,,,,,Schlüssel,winzig,"['Schlüssel', 'winzig']",test_sub,2,,,,,,299.67088340001646,299.6709212999558,"['Fahrrad', 'Kerze', 'Kiste', 'Schere', 'Kamera', 'Schlüssel', 'Buch', 'Hut', 'Socke', 'Eimer', 'Würfel', 'Geige', 'Telefon', 'Tasse', 'Blume', 'Uhr', 'Löffel', 'Flasche', 'Lampe', 'Kette', 'Hammer', 'Jacke', 'Brille', 'Stift', 'Tasche', 'Bürste', 'Vase', 'Rucksack', 'Trommel', 'Ring']",300.16689180000685,300.16971970000304,None,300.16984800004866,300.1713715000078,None,300.17148160003126,300.1730027999729,None,300.1731129999971,300.1743684000103,300.17438089998905,0,306.178494199994,,,,,,,,,,,,,,,,,,,,,,,,,,,,,,,,,,,,,,,,,,,,,,,,2,2023-11-21_08h39.09.227,watkins1,2023.2.3,99.75480270919152,1,2023-11-21 08h39.17.654564 +0000,
,,,,,,,,,,,6,0,6,0,,,,,,,,,,,,,306.18828540004324,,,,,,,,,,,,306.1787760000443,306.67065470002126,,,[],[],,,,,,,,,,,,1.8780720001086593,None,,,,,Buch,,,,,Buch,robust,"['Buch', 'robust']",test_sub,2,,,,,,306.17871040001046,306.1787468000548,"['Fahrrad', 'Kerze', 'Kiste', 'Schere', 'Kamera', 'Schlüssel', 'Buch', 'Hut', 'Socke', 'Eimer', 'Würfel', 'Geige', 'Telefon', 'Tasse', 'Blume', 'Uhr', 'Löffel', 'Flasche', 'Lampe', 'Kette', 'Hammer', 'Jacke', 'Brille', 'Stift', 'Tasche', 'Bürste', 'Vase', 'Rucksack', 'Trommel', 'Ring']",306.6706653999863,306.6732651999919,None,306.6733904000139,306.67581579997204,None,306.67592760000844,306.67836300004274,None,306.6784720000578,306.6796568999998,306.67966929997783,1,312.68489629996475,,,,,,,,,,,,,,,,,,,,,,,,,,,,,,,,,,,,,,,,,,,,,,,,2,2023-11-21_08h39.09.227,watkins1,2023.2.3,99.75480270919152,1,2023-11-21 08h39.17.654564 +0000,
,,,,,,,,,,,7,0,7,0,,,,,,,,,,,,,312.6946939000627,,,,,,,,,,,,312.68517730000895,313.1767104000319,,,[],[],,,,,,,,,,,,None,None,,,,,,,,,,Hut,sportlich,"['Hut', 'sportlich']",restudy,2,,,,,,312.6851111999713,312.6851485000225,"['Fahrrad', 'Kerze', 'Kiste', 'Schere', 'Kamera', 'Schlüssel', 'Buch', 'Hut', 'Socke', 'Eimer', 'Würfel', 'Geige', 'Telefon', 'Tasse', 'Blume', 'Uhr', 'Löffel', 'Flasche', 'Lampe', 'Kette', 'Hammer', 'Jacke', 'Brille', 'Stift', 'Tasche', 'Bürste', 'Vase', 'Rucksack', 'Trommel', 'Ring']",313.1767208999954,313.1792690999573,None,313.179396099993,319.18015459994785,1,319.180451799999,319.18305049999617,None,319.183161700028,319.1842123999959,319.1842239999678,,319.18580129998736,2.398805300006643,None,,,,,,,,,,,,,,,,,,,,,,,,,,,,,,,,,,,,,,,,,,,,,,2,2023-11-21_08h39.09.227,watkins1,2023.2.3,99.75480270919152,1,2023-11-21 08h39.17.654564 +0000,
,,,,,,,,,,,8,0,8,0,,,,,,,,,,,,,319.1897401000606,,,,,,,,,,,,319.1860856000567,319.68170159996953,,,[],[],,,,,,,,,,,,None,None,,,,,,,,,,Socke,glatt,"['Socke', 'glatt']",restudy,2,,,,,,319.1860206000274,319.18605849996675,"['Fahrrad', 'Kerze', 'Kiste', 'Schere', 'Kamera', 'Schlüssel', 'Buch', 'Hut', 'Socke', 'Eimer', 'Würfel', 'Geige', 'Telefon', 'Tasse', 'Blume', 'Uhr', 'Löffel', 'Flasche', 'Lampe', 'Kette', 'Hammer', 'Jacke', 'Brille', 'Stift', 'Tasche', 'Bürste', 'Vase', 'Rucksack', 'Trommel', 'Ring']",319.68171240005177,319.684640499996,None,319.68476590001956,325.69152250001207,2,325.6918203999521,325.6944747000234,None,325.6945882999571,325.6957395999925,325.69575119996443,,325.69690740003716,2.7013993000146,None,,,,,,,,,,,,,,,,,,,,,,,,,,,,,,,,,,,,,,,,,,,,,,2,2023-11-21_08h39.09.227,watkins1,2023.2.3,99.75480270919152,1,2023-11-21 08h39.17.654564 +0000,
,,,,,,,,,,,9,0,9,0,,,,,,,,,,,,,325.70109670003876,,,,,,,,,,,,325.6971895999741,326.19330210005865,,,[],[],,,,,,,,,,,,None,None,,,,,,,,,,Eimer,elegant,"['Eimer', 'elegant']",restudy,2,,,,,,325.69712599995546,325.6971632000059,"['Fahrrad', 'Kerze', 'Kiste', 'Schere', 'Kamera', 'Schlüssel', 'Buch', 'Hut', 'Socke', 'Eimer', 'Würfel', 'Geige', 'Telefon', 'Tasse', 'Blume', 'Uhr', 'Löffel', 'Flasche', 'Lampe', 'Kette', 'Hammer', 'Jacke', 'Brille', 'Stift', 'Tasche', 'Bürste', 'Vase', 'Rucksack', 'Trommel', 'Ring']",326.19331320002675,326.19600710005034,None,326.1961338999681,332.19760389998555,1,332.1979016000405,332.2006074000383,None,332.2007201999659,332.2018841999816,332.201895999955,,332.20308789995033,2.3579899999313056,None,,,,,,,,,,,,,,,,,,,,,,,,,,,,,,,,,,,,,,,,,,,,,,2,2023-11-21_08h39.09.227,watkins1,2023.2.3,99.75480270919152,1,2023-11-21 08h39.17.654564 +0000,
,,,,,,,,,,,10,0,10,0,,,,,,,,,,,,,332.2070755000459,,,,,,,,,,,,332.20336879999377,332.6992522999644,,,[],[],,,,,,,,,,,,None,None,,,,,,,,,,Würfel,gepunktet,"['Würfel', 'gepunktet']",restudy,2,,,,,,332.2033044999698,332.20334220002405,"['Fahrrad', 'Kerze', 'Kiste', 'Schere', 'Kamera', 'Schlüssel', 'Buch', 'Hut', 'Socke', 'Eimer', 'Würfel', 'Geige', 'Telefon', 'Tasse', 'Blume', 'Uhr', 'Löffel', 'Flasche', 'Lampe', 'Kette', 'Hammer', 'Jacke', 'Brille', 'Stift', 'Tasche', 'Bürste', 'Vase', 'Rucksack', 'Trommel', 'Ring']",332.6992632000474,332.7019965000218,None,332.7021242000628,338.7037029999774,3,338.7040087999776,338.7067755999742,None,338.7068874000106,338.70805959997233,338.70807120006066,,338.7093018000014,2.3877963999984786,None,,,,,,,,,,,,,,,,,,,,,,,,,,,,,,,,,,,,,,,,,,,,,,2,2023-11-21_08h39.09.227,watkins1,2023.2.3,99.75480270919152,1,2023-11-21 08h39.17.654564 +0000,
,,,,,,,,,,,11,0,11,0,,,,,,,,,,,,,338.7132550999522,,,,,,,,,,,,338.7095831000479,339.20532790001016,,,[],[],,,,,,,,,,,,1.8763116999762133,None,,,,,Geige,,,,,Geige,gestreift,"['Geige', 'gestreift']",test_sub,2,,,,,,338.7095187000232,338.7095565999625,"['Fahrrad', 'Kerze', 'Kiste', 'Schere', 'Kamera', 'Schlüssel', 'Buch', 'Hut', 'Socke', 'Eimer', 'Würfel', 'Geige', 'Telefon', 'Tasse', 'Blume', 'Uhr', 'Löffel', 'Flasche', 'Lampe', 'Kette', 'Hammer', 'Jacke', 'Brille', 'Stift', 'Tasche', 'Bürste', 'Vase', 'Rucksack', 'Trommel', 'Ring']",339.205338699976,339.2082525000442,None,339.2083789999597,339.20981250004843,None,339.2099229999585,339.21134769998025,None,339.2114564999938,339.21259989996906,339.21261210006196,1,345.21610259998124,,,,,,,,,,,,,,,,,,,,,,,,,,,,,,,,,,,,,,,,,,,,,,,,2,2023-11-21_08h39.09.227,watkins1,2023.2.3,99.75480270919152,1,2023-11-21 08h39.17.654564 +0000,
,,,,,,,,,,,12,0,12,0,,,,,,,,,,,,,345.22595590003766,,,,,,,,,,,,345.2163839000277,345.7080680000363,,,[],[],,,,,,,,,,,,None,None,,,,,,,,,,Telefon,nass,"['Telefon', 'nass']",test_sub,2,,,,,,345.2163174999878,345.2163547000382,"['Fahrrad', 'Kerze', 'Kiste', 'Schere', 'Kamera', 'Schlüssel', 'Buch', 'Hut', 'Socke', 'Eimer', 'Würfel', 'Geige', 'Telefon', 'Tasse', 'Blume', 'Uhr', 'Löffel', 'Flasche', 'Lampe', 'Kette', 'Hammer', 'Jacke', 'Brille', 'Stift', 'Tasche', 'Bürste', 'Vase', 'Rucksack', 'Trommel', 'Ring']",345.70807900000364,345.71092420001514,None,345.7110506000463,345.7137056000065,None,345.7138176000444,345.7165939999977,None,345.7167038000189,345.717914900044,345.71792740002275,0,351.7243578999769,,,,,,,,,,,,,,,,,,,,,,,,,,,,,,,,,,,,,,,,,,,,,,,,2,2023-11-21_08h39.09.227,watkins1,2023.2.3,99.75480270919152,1,2023-11-21 08h39.17.654564 +0000,
,,,,,,,,,,,13,0,13,0,,,,,,,,,,,,,351.7342567000305,,,,,,,,,,,,351.724640200031,352.21631679998245,,,[],[],,,,,,,,,,,,2.219287100015208,None,,,,,Tasse,,,,,Tasse,lustig,"['Tasse', 'lustig']",test_sub,2,,,,,,351.72457379999105,351.7246110000415,"['Fahrrad', 'Kerze', 'Kiste', 'Schere', 'Kamera', 'Schlüssel', 'Buch', 'Hut', 'Socke', 'Eimer', 'Würfel', 'Geige', 'Telefon', 'Tasse', 'Blume', 'Uhr', 'Löffel', 'Flasche', 'Lampe', 'Kette', 'Hammer', 'Jacke', 'Brille', 'Stift', 'Tasche', 'Bürste', 'Vase', 'Rucksack', 'Trommel', 'Ring']",352.21632740006316,352.21889190003276,None,352.21901710005477,352.22142720001284,None,352.22153820004314,352.22393480001483,None,352.2240451000398,352.22520850005094,352.22522060002666,1,358.23062619997654,,,,,,,,,,,,,,,,,,,,,,,,,,,,,,,,,,,,,,,,,,,,,,,,2,2023-11-21_08h39.09.227,watkins1,2023.2.3,99.75480270919152,1,2023-11-21 08h39.17.654564 +0000,
,,,,,,,,,,,14,0,14,0,,,,,,,,,,,,,358.2400725999614,,,,,,,,,,,,358.2309122000588,358.72219170001335,,,[],[],,,,,,,,,,,,None,None,,,,,,,,,,Blume,schmutzig,"['Blume', 'schmutzig']",restudy,2,,,,,,358.23084480001125,358.2308831999544,"['Fahrrad', 'Kerze', 'Kiste', 'Schere', 'Kamera', 'Schlüssel', 'Buch', 'Hut', 'Socke', 'Eimer', 'Würfel', 'Geige', 'Telefon', 'Tasse', 'Blume', 'Uhr', 'Löffel', 'Flasche', 'Lampe', 'Kette', 'Hammer', 'Jacke', 'Brille', 'Stift', 'Tasche', 'Bürste', 'Vase', 'Rucksack', 'Trommel', 'Ring']",358.7222024999792,358.72508790006395,None,358.7252142999787,364.7276115999557,1,364.72791220003273,364.73077130003367,None,364.7308865999803,364.7320522000082,364.7320635999786,,364.7336225999752,4.100850100046955,None,,,,,,,,,,,,,,,,,,,,,,,,,,,,,,,,,,,,,,,,,,,,,,2,2023-11-21_08h39.09.227,watkins1,2023.2.3,99.75480270919152,1,2023-11-21 08h39.17.654564 +0000,
,,,,,,,,,,,15,0,15,0,,,,,,,,,,,,,364.73708270001225,,,,,,,,,,,,364.73390760004986,365.2292038999731,,,[],[],,,,,,,,,,,,3.2007312000496313,None,,,,,Uhr,,,,,Uhr,dick,"['Uhr', 'dick']",test_sub,2,,,,,,364.733842000016,364.7338802999584,"['Fahrrad', 'Kerze', 'Kiste', 'Schere', 'Kamera', 'Schlüssel', 'Buch', 'Hut', 'Socke', 'Eimer', 'Würfel', 'Geige', 'Telefon', 'Tasse', 'Blume', 'Uhr', 'Löffel', 'Flasche', 'Lampe', 'Kette', 'Hammer', 'Jacke', 'Brille', 'Stift', 'Tasche', 'Bürste', 'Vase', 'Rucksack', 'Trommel', 'Ring']",365.22921460005455,365.2318586000474,None,365.23198140005115,365.2332760000136,None,365.2333864000393,365.23466880002525,None,365.2347778000403,365.23579659999814,365.2358087999746,1,371.23837739997543,,,,,,,,,,,,,,,,,,,,,,,,,,,,,,,,,,,,,,,,,,,,,,,,2,2023-11-21_08h39.09.227,watkins1,2023.2.3,99.75480270919152,1,2023-11-21 08h39.17.654564 +0000,
,,,,,,,,,,,16,0,16,0,,,,,,,,,,,,,371.24817769997753,,,,,,,,,,,,371.23866070003714,371.73028550005984,,,[],[],,,,,,,,,,,,None,None,,,,,,,,,,Löffel,dunkel,"['Löffel', 'dunkel']",test_sub,2,,,,,,371.23859439999796,371.2386316000484,"['Fahrrad', 'Kerze', 'Kiste', 'Schere', 'Kamera', 'Schlüssel', 'Buch', 'Hut', 'Socke', 'Eimer', 'Würfel', 'Geige', 'Telefon', 'Tasse', 'Blume', 'Uhr', 'Löffel', 'Flasche', 'Lampe', 'Kette', 'Hammer', 'Jacke', 'Brille', 'Stift', 'Tasche', 'Bürste', 'Vase', 'Rucksack', 'Trommel', 'Ring']",371.730297000031,371.73297719995026,None,371.73311459994875,371.73569999996107,None,371.7358189000515,371.73837060004007,None,371.7384814999532,371.739658699953,371.73967310006265,0,377.74622199998703,,,,,,,,,,,,,,,,,,,,,,,,,,,,,,,,,,,,,,,,,,,,,,,,2,2023-11-21_08h39.09.227,watkins1,2023.2.3,99.75480270919152,1,2023-11-21 08h39.17.654564 +0000,
,,,,,,,,,,,17,0,17,0,,,,,,,,,,,,,377.756129699992,,,,,,,,,,,,377.7465070000617,378.23813389998395,,,[],[],,,,,,,,,,,,3.7363447999814525,None,,,,,Flasche,,,,,Flasche,biegsam,"['Flasche', 'biegsam']",test_sub,2,,,,,,377.746440500021,377.74647779995576,"['Fahrrad', 'Kerze', 'Kiste', 'Schere', 'Kamera', 'Schlüssel', 'Buch', 'Hut', 'Socke', 'Eimer', 'Würfel', 'Geige', 'Telefon', 'Tasse', 'Blume', 'Uhr', 'Löffel', 'Flasche', 'Lampe', 'Kette', 'Hammer', 'Jacke', 'Brille', 'Stift', 'Tasche', 'Bürste', 'Vase', 'Rucksack', 'Trommel', 'Ring']",378.2381436000578,378.24088469997514,None,378.2410068999743,378.2437199000269,None,378.2438296000473,378.24645350000355,None,378.2465633000247,378.2477584000444,378.24777070002165,1,384.25371179997455,,,,,,,,,,,,,,,,,,,,,,,,,,,,,,,,,,,,,,,,,,,,,,,,2,2023-11-21_08h39.09.227,watkins1,2023.2.3,99.75480270919152,1,2023-11-21 08h39.17.654564 +0000,
,,,,,,,,,,,18,0,18,0,,,,,,,,,,,,,384.2634490999626,,,,,,,,,,,,384.2539892999921,384.74566030001733,,,[],[],,,,,,,,,,,,4.721008399967104,None,,,,,Lampe,,,,,Lampe,krumm,"['Lampe', 'krumm']",test_sub,2,,,,,,384.2539235999575,384.2539606000064,"['Fahrrad', 'Kerze', 'Kiste', 'Schere', 'Kamera', 'Schlüssel', 'Buch', 'Hut', 'Socke', 'Eimer', 'Würfel', 'Geige', 'Telefon', 'Tasse', 'Blume', 'Uhr', 'Löffel', 'Flasche', 'Lampe', 'Kette', 'Hammer', 'Jacke', 'Brille', 'Stift', 'Tasche', 'Bürste', 'Vase', 'Rucksack', 'Trommel', 'Ring']",384.7456716999877,384.748429600033,None,384.74855639995076,384.7511287999805,None,384.75124020001385,384.75379850005265,None,384.75391279999167,384.7552649000427,384.7552773000207,1,390.7617833999684,,,,,,,,,,,,,,,,,,,,,,,,,,,,,,,,,,,,,,,,,,,,,,,,2,2023-11-21_08h39.09.227,watkins1,2023.2.3,99.75480270919152,1,2023-11-21 08h39.17.654564 +0000,
,,,,,,,,,,,19,0,19,0,,,,,,,,,,,,,390.7715961999493,,,,,,,,,,,,390.76206660002936,391.2536818999797,,,[],[],,,,,,,,,,,,None,None,,,,,,,,,,Kette,teuer,"['Kette', 'teuer']",test_sub,2,,,,,,390.76199879997876,390.7620378000429,"['Fahrrad', 'Kerze', 'Kiste', 'Schere', 'Kamera', 'Schlüssel', 'Buch', 'Hut', 'Socke', 'Eimer', 'Würfel', 'Geige', 'Telefon', 'Tasse', 'Blume', 'Uhr', 'Löffel', 'Flasche', 'Lampe', 'Kette', 'Hammer', 'Jacke', 'Brille', 'Stift', 'Tasche', 'Bürste', 'Vase', 'Rucksack', 'Trommel', 'Ring']",391.2536921000574,391.25634379999246,None,391.2564679000061,391.25899300002493,None,391.25910370005295,391.2616178999888,None,391.2617276000092,391.26288469997235,391.2628969999496,0,397.26884270005394,,,,,,,,,,,,,,,,,,,,,,,,,,,,,,,,,,,,,,,,,,,,,,,,2,2023-11-21_08h39.09.227,watkins1,2023.2.3,99.75480270919152,1,2023-11-21 08h39.17.654564 +0000,
,,,,,,,,,,,20,0,20,0,,,,,,,,,,,,,397.2785820000572,,,,,,,,,,,,397.2691247999901,397.76067930005956,,,[],[],,,,,,,,,,,,1.9180247000185773,None,,,,,Hammer,,,,,Hammer,hohl,"['Hammer', 'hohl']",test_sub,2,,,,,,397.2690565000521,397.26909459999297,"['Fahrrad', 'Kerze', 'Kiste', 'Schere', 'Kamera', 'Schlüssel', 'Buch', 'Hut', 'Socke', 'Eimer', 'Würfel', 'Geige', 'Telefon', 'Tasse', 'Blume', 'Uhr', 'Löffel', 'Flasche', 'Lampe', 'Kette', 'Hammer', 'Jacke', 'Brille', 'Stift', 'Tasche', 'Bürste', 'Vase', 'Rucksack', 'Trommel', 'Ring']",397.7606901000254,397.76340189995244,None,397.7635282999836,397.76607100002,None,397.76618120004423,397.76871099998243,None,397.7688206000021,397.76999339996837,397.7700058000628,1,403.7752371999668,,,,,,,,,,,,,,,,,,,,,,,,,,,,,,,,,,,,,,,,,,,,,,,,2,2023-11-21_08h39.09.227,watkins1,2023.2.3,99.75480270919152,1,2023-11-21 08h39.17.654564 +0000,
,,,,,,,,,,,21,0,21,0,,,,,,,,,,,,,403.7850303000305,,,,,,,,,,,,403.7755211000331,404.2670490000164,,,[],[],,,,,,,,,,,,1.8488923000404611,None,,,,,Jacke,,,,,Jacke,rustikal,"['Jacke', 'rustikal']",test_sub,2,,,,,,403.77545279997867,403.77549240004737,"['Fahrrad', 'Kerze', 'Kiste', 'Schere', 'Kamera', 'Schlüssel', 'Buch', 'Hut', 'Socke', 'Eimer', 'Würfel', 'Geige', 'Telefon', 'Tasse', 'Blume', 'Uhr', 'Löffel', 'Flasche', 'Lampe', 'Kette', 'Hammer', 'Jacke', 'Brille', 'Stift', 'Tasche', 'Bürste', 'Vase', 'Rucksack', 'Trommel', 'Ring']",404.2670603999868,404.2696264999686,None,404.26975229999516,404.2723408000311,None,404.2724540999625,404.2749254000373,None,404.27503629995044,404.2762051000027,404.27621759998146,1,410.28319320001174,,,,,,,,,,,,,,,,,,,,,,,,,,,,,,,,,,,,,,,,,,,,,,,,2,2023-11-21_08h39.09.227,watkins1,2023.2.3,99.75480270919152,1,2023-11-21 08h39.17.654564 +0000,
,,,,,,,,,,,22,0,22,0,,,,,,,,,,,,,410.2929620000068,,,,,,,,,,,,410.2834804999875,410.7749695000239,,,[],[],,,,,,,,,,,,None,None,,,,,,,,,,Brille,glänzend,"['Brille', 'glänzend']",restudy,2,,,,,,410.2834104000358,410.28345139999874,"['Fahrrad', 'Kerze', 'Kiste', 'Schere', 'Kamera', 'Schlüssel', 'Buch', 'Hut', 'Socke', 'Eimer', 'Würfel', 'Geige', 'Telefon', 'Tasse', 'Blume', 'Uhr', 'Löffel', 'Flasche', 'Lampe', 'Kette', 'Hammer', 'Jacke', 'Brille', 'Stift', 'Tasche', 'Bürste', 'Vase', 'Rucksack', 'Trommel', 'Ring']",410.77497989998665,410.77771409996785,None,410.7778413000051,416.7822582999943,2,416.78255590004846,416.7852732000174,None,416.78538719995413,416.7865614000475,416.7865731000202,,416.7881053000456,2.7197101999772713,None,,,,,,,,,,,,,,,,,,,,,,,,,,,,,,,,,,,,,,,,,,,,,,2,2023-11-21_08h39.09.227,watkins1,2023.2.3,99.75480270919152,1,2023-11-21 08h39.17.654564 +0000,
,,,,,,,,,,,23,0,23,0,,,,,,,,,,,,,416.79163590003736,,,,,,,,,,,,416.7883884999901,417.2838307999773,,,[],[],,,,,,,,,,,,3.371869400027208,None,,,,,Stift,,,,,Stift,gut,"['Stift', 'gut']",test_sub,2,,,,,,416.7883234999608,416.7883614000166,"['Fahrrad', 'Kerze', 'Kiste', 'Schere', 'Kamera', 'Schlüssel', 'Buch', 'Hut', 'Socke', 'Eimer', 'Würfel', 'Geige', 'Telefon', 'Tasse', 'Blume', 'Uhr', 'Löffel', 'Flasche', 'Lampe', 'Kette', 'Hammer', 'Jacke', 'Brille', 'Stift', 'Tasche', 'Bürste', 'Vase', 'Rucksack', 'Trommel', 'Ring']",417.2838419000618,417.28656639996916,None,417.28669169999193,417.2881168000167,None,417.28822830005083,417.28964580001775,None,417.2897561000427,417.2909002000233,417.2909127000021,1,423.293884200044,,,,,,,,,,,,,,,,,,,,,,,,,,,,,,,,,,,,,,,,,,,,,,,,2,2023-11-21_08h39.09.227,watkins1,2023.2.3,99.75480270919152,1,2023-11-21 08h39.17.654564 +0000,
,,,,,,,,,,,24,0,24,0,,,,,,,,,,,,,423.30368610005826,,,,,,,,,,,,423.2941663999809,423.7857829000568,,,[],[],,,,,,,,,,,,None,None,,,,,,,,,,Tasche,praktisch,"['Tasche', 'praktisch']",restudy,2,,,,,,423.29410060006194,423.2941378999967,"['Fahrrad', 'Kerze', 'Kiste', 'Schere', 'Kamera', 'Schlüssel', 'Buch', 'Hut', 'Socke', 'Eimer', 'Würfel', 'Geige', 'Telefon', 'Tasse', 'Blume', 'Uhr', 'Löffel', 'Flasche', 'Lampe', 'Kette', 'Hammer', 'Jacke', 'Brille', 'Stift', 'Tasche', 'Bürste', 'Vase', 'Rucksack', 'Trommel', 'Ring']",423.7857930000173,423.7883845999604,None,423.7885059999535,429.7896549999714,3,429.7899525000248,429.79269569995813,None,429.7928083000006,429.7939823999768,429.7939938000636,,429.7955251999665,1.9174384999787435,None,,,,,,,,,,,,,,,,,,,,,,,,,,,,,,,,,,,,,,,,,,,,,,2,2023-11-21_08h39.09.227,watkins1,2023.2.3,99.75480270919152,1,2023-11-21 08h39.17.654564 +0000,
,,,,,,,,,,,25,0,25,0,,,,,,,,,,,,,429.7991654999787,,,,,,,,,,,,429.79580690001603,430.29128969996236,,,[],[],,,,,,,,,,,,None,None,,,,,,,,,,Bürste,neu,"['Bürste', 'neu']",restudy,2,,,,,,429.7957432999974,429.79578070004936,"['Fahrrad', 'Kerze', 'Kiste', 'Schere', 'Kamera', 'Schlüssel', 'Buch', 'Hut', 'Socke', 'Eimer', 'Würfel', 'Geige', 'Telefon', 'Tasse', 'Blume', 'Uhr', 'Löffel', 'Flasche', 'Lampe', 'Kette', 'Hammer', 'Jacke', 'Brille', 'Stift', 'Tasche', 'Bürste', 'Vase', 'Rucksack', 'Trommel', 'Ring']",430.29130090004764,430.2940689000534,None,430.29419369995594,436.2961165000452,2,436.2964236000553,436.2989819999784,None,436.2990952000255,436.3003253999632,436.3003370000515,,436.301361400052,4.619744100025855,None,,,,,,,,,,,,,,,,,,,,,,,,,,,,,,,,,,,,,,,,,,,,,,2,2023-11-21_08h39.09.227,watkins1,2023.2.3,99.75480270919152,1,2023-11-21 08h39.17.654564 +0000,
,,,,,,,,,,,26,0,26,0,,,,,,,,,,,,,436.30554710002616,,,,,,,,,,,,436.30165050004143,436.797791399993,,,[],[],,,,,,,,,,,,None,None,,,,,,,,,,Vase,klobig,"['Vase', 'klobig']",restudy,2,,,,,,436.3015859000152,436.30162379995454,"['Fahrrad', 'Kerze', 'Kiste', 'Schere', 'Kamera', 'Schlüssel', 'Buch', 'Hut', 'Socke', 'Eimer', 'Würfel', 'Geige', 'Telefon', 'Tasse', 'Blume', 'Uhr', 'Löffel', 'Flasche', 'Lampe', 'Kette', 'Hammer', 'Jacke', 'Brille', 'Stift', 'Tasche', 'Bürste', 'Vase', 'Rucksack', 'Trommel', 'Ring']",436.7978019999573,436.8002123000333,None,436.80033790005837,442.8093162999721,1,442.8096144000301,442.81222329998855,None,442.8123393000569,442.81339300004765,442.81340540002566,,442.8145880999509,2.249645399977453,None,,,,,,,,,,,,,,,,,,,,,,,,,,,,,,,,,,,,,,,,,,,,,,2,2023-11-21_08h39.09.227,watkins1,2023.2.3,99.75480270919152,1,2023-11-21 08h39.17.654564 +0000,
,,,,,,,,,,,27,0,27,0,,,,,,,,,,,,,442.81879289995413,,,,,,,,,,,,442.8148817999754,443.3108980000252,,,[],[],,,,,,,,,,,,None,None,,,,,,,,,,Rucksack,schwer,"['Rucksack', 'schwer']",restudy,2,,,,,,442.8148118000245,442.8148538999958,"['Fahrrad', 'Kerze', 'Kiste', 'Schere', 'Kamera', 'Schlüssel', 'Buch', 'Hut', 'Socke', 'Eimer', 'Würfel', 'Geige', 'Telefon', 'Tasse', 'Blume', 'Uhr', 'Löffel', 'Flasche', 'Lampe', 'Kette', 'Hammer', 'Jacke', 'Brille', 'Stift', 'Tasche', 'Bürste', 'Vase', 'Rucksack', 'Trommel', 'Ring']",443.3109090999933,443.31363330001477,None,443.31376269995235,449.315647099982,3,449.3159439000301,449.31864750001114,None,449.31875920004677,449.319989599986,449.3200009999564,,449.32116229995154,2.223950699903071,None,,,,,,,,,,,,,,,,,,,,,,,,,,,,,,,,,,,,,,,,,,,,,,2,2023-11-21_08h39.09.227,watkins1,2023.2.3,99.75480270919152,1,2023-11-21 08h39.17.654564 +0000,
,,,,,,,,,,,28,0,28,0,,,,,,,,,,,,,449.32512599998154,,,,,,,,,,,,449.3214428999927,449.817240400007,,,[],[],,,,,,,,,,,,None,None,,,,,,,,,,Trommel,verspielt,"['Trommel', 'verspielt']",restudy,2,,,,,,449.32137939997483,449.3214168000268,"['Fahrrad', 'Kerze', 'Kiste', 'Schere', 'Kamera', 'Schlüssel', 'Buch', 'Hut', 'Socke', 'Eimer', 'Würfel', 'Geige', 'Telefon', 'Tasse', 'Blume', 'Uhr', 'Löffel', 'Flasche', 'Lampe', 'Kette', 'Hammer', 'Jacke', 'Brille', 'Stift', 'Tasche', 'Bürste', 'Vase', 'Rucksack', 'Trommel', 'Ring']",449.81725109997205,449.8199126999825,None,449.82003529998474,455.8215157999657,2,455.8218168000458,455.8246957999654,None,455.82481220003683,455.82603380002547,455.8260455999989,,455.82729879999533,2.3417918999912217,None,,,,,,,,,,,,,,,,,,,,,,,,,,,,,,,,,,,,,,,,,,,,,,2,2023-11-21_08h39.09.227,watkins1,2023.2.3,99.75480270919152,1,2023-11-21 08h39.17.654564 +0000,
,,,,,,,,,,,29,0,29,0,,,,,,,,,,,,,455.83094989997335,,,,,,,,,,,,455.8275904000038,456.32315469998866,,,[],[],,,,,,,,,,,,None,None,,,,,,,,,,Ring,kaputt,"['Ring', 'kaputt']",restudy,2,,,,,,455.82752130005974,455.8275631000288,"['Fahrrad', 'Kerze', 'Kiste', 'Schere', 'Kamera', 'Schlüssel', 'Buch', 'Hut', 'Socke', 'Eimer', 'Würfel', 'Geige', 'Telefon', 'Tasse', 'Blume', 'Uhr', 'Löffel', 'Flasche', 'Lampe', 'Kette', 'Hammer', 'Jacke', 'Brille', 'Stift', 'Tasche', 'Bürste', 'Vase', 'Rucksack', 'Trommel', 'Ring']",456.3231654999545,456.3258302999893,None,456.32596040004864,462.3326285999501,2,462.33293000003323,462.3354883999564,None,462.33560360001866,462.3366541999858,462.3366655999562,,462.33784829999786,2.0844739000312984,None,,,,,,,,,,,,,,,,,,,,,,,,,,,,,,,,,,,,,,,,,,,,,,2,2023-11-21_08h39.09.227,watkins1,2023.2.3,99.75480270919152,1,2023-11-21 08h39.17.654564 +0000,
,,,,,,,,,,,,,,,,,,,,,,,,,,,,,,,,,,,,,,,,,,,,,,,,,,,,,,,,,,,,,,,,,,,,,,,2,,,,,,,,,,,,,,,,,,,,,,,,,,,,,,,,,,,,,,,,,,,,,,,,,,,,,,,,,,,,,,,,,,,,,,2,2023-11-21_08h39.09.227,watkins1,2023.2.3,99.75480270919152,1,2023-11-21 08h39.17.654564 +0000,
(4 : 2) + 4 = 6 ,Correct,button_correct,,,,,,,,,,,,,0,0,0,1,,,,,,,,,477.75089140003547,,,,,,,,,,476.65214959997684,477.6558494999772,,,,,['button_correct'],"[3.970765999983996, 4.503949399921112]",,,,,,,,,,,,,,,,,,,,,,,,,,distractorTask,2,,,,,,,,,,,,,,,,,,,,,,,,,477.7392235000152,477.75089140003547,482.24795330001507,"[0.4009259259259259, 0.4]","[-0.3731481481481482, -0.3824074074074074]","[1, 1]","[0, 0]","[0, 0]","[3.970765999983996, 4.503949399921112]",['button_correct'],482.2486679999856,483.2505942999851,,,,,,,,,,,,,,,,,,,,,,,,,,,,,,,,,,2,2023-11-21_08h39.09.227,watkins1,2023.2.3,99.75480270919152,1,2023-11-21 08h39.17.654564 +0000,
(9 x 5) - 9 = 36 ,Correct,button_correct,,,,,,,,,,,,,0,1,1,4,,,,,,,,,483.2667387999827,,,,,,,,,,,,,,,,['button_correct'],[4.5098650000290945],,,,,,,,,,,,,,,,,,,,,,,,,,distractorTask,2,,,,,,,,,,,,,,,,,,,,,,,,,483.2507921999786,483.2667387999827,487.7709083999507,[0.3398148148148148],[-0.3925925925925926],[1],[0],[0],[4.5098650000290945],['button_correct'],487.77129199996125,488.77435790002346,,,,,,,,,,,,,,,,,,,,,,,,,,,,,,,,,,2,2023-11-21_08h39.09.227,watkins1,2023.2.3,99.75480270919152,1,2023-11-21 08h39.17.654564 +0000,
(6 x 3) + 10 = 27 ,Incorrect,button_incorrect,,,,,,,,,,,,,0,2,2,8,,,,,,,,,488.78445619996637,,,,,,,,,,,,,,,,['button_incorrect'],"[3.210703300079331, 4.084194199997]",,,,,,,,,,,,,,,,,,,,,,,,,,distractorTask,2,,,,,,,,,,,,,,,,,,,,,,,,,488.77454759995453,488.78445619996637,492.86171480000485,"[-0.30925925925925923, -0.30277777777777776]","[-0.3731481481481482, -0.38333333333333336]","[1, 1]","[0, 0]","[0, 0]","[3.210703300079331, 4.084194199997]",['button_incorrect'],492.86212509998586,493.8655741000548,,,,,,,,,,,,,,,,,,,,,,,,,,,,,,,,,,2,2023-11-21_08h39.09.227,watkins1,2023.2.3,99.75480270919152,1,2023-11-21 08h39.17.654564 +0000,
(2 x 5) + 3 = 13 ,Correct,button_correct,,,,,,,,,,,,,0,3,3,2,,,,,,,,,493.8755570000503,,,,,,,,,,,,,,,,['button_correct'],[2.2579493999946862],,,,,,,,,,,,,,,,,,,,,,,,,,distractorTask,2,,,,,,,,,,,,,,,,,,,,,,,,,493.86576930002775,493.8755570000503,496.1254158000229,[0.42407407407407405],[-0.4222222222222222],[1],[0],[0],[2.2579493999946862],['button_correct'],496.1258023000555,497.12914670002647,,,,,,,,,,,,,,,,,,,,,,,,,,,,,,,,,,2,2023-11-21_08h39.09.227,watkins1,2023.2.3,99.75480270919152,1,2023-11-21 08h39.17.654564 +0000,
(40 : 5) + 8 = 15 ,Incorrect,button_incorrect,,,,,,,,,,,,,0,4,4,7,,,,,,,,,497.13912529998925,,,,,,,,,,,,,,,,['button_incorrect'],[2.939646399929188],,,,,,,,,,,,,,,,,,,,,,,,,,distractorTask,2,,,,,,,,,,,,,,,,,,,,,,,,,497.1293384999735,497.13912529998925,500.07175630005077,[-0.3925925925925926],[-0.3925925925925926],[1],[0],[0],[2.939646399929188],['button_incorrect'],500.07214409997687,501.07547629997134,,,,,,,,,,,,,,,,,,,,,,,,,,,,,,,,,,2,2023-11-21_08h39.09.227,watkins1,2023.2.3,99.75480270919152,1,2023-11-21 08h39.17.654564 +0000,
(80 : 10) + 9 = 17 ,Correct,button_correct,,,,,,,,,,,,,0,5,5,3,,,,,,,,,501.08541679999325,,,,,,,,,,,,,,,,['button_correct'],"[2.809950500028208, 3.3222321999492124]",,,,,,,,,,,,,,,,,,,,,,,,,,distractorTask,2,,,,,,,,,,,,,,,,,,,,,,,,,501.07567499997094,501.08541679999325,504.3997364999959,"[0.31203703703703706, 0.3148148148148148]","[-0.42685185185185187, -0.3824074074074074]","[1, 1]","[0, 0]","[0, 0]","[2.809950500028208, 3.3222321999492124]",['button_correct'],504.4001455999678,505.40338909998536,,,,,,,,,,,,,,,,,,,,,,,,,,,,,,,,,,2,2023-11-21_08h39.09.227,watkins1,2023.2.3,99.75480270919152,1,2023-11-21 08h39.17.654564 +0000,
(28 : 7) - 3 = 1 ,Correct,button_correct,,,,,,,,,,,,,0,6,6,0,,,,,,,,,505.41333490004763,,,,,,,,,,,,,,,,['button_correct'],[3.994974400033243],,,,,,,,,,,,,,,,,,,,,,,,,,distractorTask,2,,,,,,,,,,,,,,,,,,,,,,,,,505.4035886999918,505.41333490004763,509.4004073999822,[0.4083333333333333],[-0.3851851851851852],[1],[0],[0],[3.994974400033243],['button_correct'],509.40079360001255,510.4041193999583,,,,,,,,,,,,,,,,,,,,,,,,,,,,,,,,,,2,2023-11-21_08h39.09.227,watkins1,2023.2.3,99.75480270919152,1,2023-11-21 08h39.17.654564 +0000,
(54 : 6) - 10 = 0 ,Incorrect,button_incorrect,,,,,,,,,,,,,0,7,7,5,,,,,,,,,510.4140946000116,,,,,,,,,,,,,,,,['button_incorrect'],"[3.613726600073278, 4.206104199984111]",,,,,,,,,,,,,,,,,,,,,,,,,,distractorTask,2,,,,,,,,,,,,,,,,,,,,,,,,,510.40430940000806,510.4140946000116,514.6121420999989,"[-0.3111111111111111, -0.30925925925925923]","[-0.37222222222222223, -0.37962962962962965]","[1, 1]","[0, 0]","[0, 0]","[3.613726600073278, 4.206104199984111]",['button_incorrect'],514.6125498999609,515.6158618000336,,,,,,,,,,,,,,,,,,,,,,,,,,,,,,,,,,2,2023-11-21_08h39.09.227,watkins1,2023.2.3,99.75480270919152,1,2023-11-21 08h39.17.654564 +0000,
(25 : 5) + 5 = 9 ,Incorrect,button_incorrect,,,,,,,,,,,,,0,8,8,6,,,,,,,,,515.6258459000383,,,,,,,,,,,,,,,,['button_incorrect'],[1.805984399979934],,,,,,,,,,,,,,,,,,,,,,,,,,distractorTask,2,,,,,,,,,,,,,,,,,,,,,,,,,515.6160495999502,515.6258459000383,517.4237398999976,[-0.30925925925925923],[-0.37962962962962965],[1],[0],[0],[1.805984399979934],['button_incorrect'],517.4241291000508,518.4273815000197,,,,,,,,,,,,,,,,,,,,,,,,,,,,,,,,,,2,2023-11-21_08h39.09.227,watkins1,2023.2.3,99.75480270919152,1,2023-11-21 08h39.17.654564 +0000,
(7 x 6) + 9 = 48 ,Incorrect,button_incorrect,,,,,,,,,,,,,0,9,9,9,,,,,,,,,518.4373692000518,,,,,,,,,,,,,,,,['button_incorrect'],[2.107253799913451],,,,,,,,,,,,,,,,,,,,,,,,,,distractorTask,2,,,,,,,,,,,,,,,,,,,,,,,,,518.4275711999508,518.4373692000518,520.5365552000003,[-0.30925925925925923],[-0.37962962962962965],[1],[0],[0],[2.107253799913451],['button_incorrect'],520.5369410000276,521.5403063000413,,,,,,,,,,,,,,,,,,,,,,,,,,,,,,,,,,2,2023-11-21_08h39.09.227,watkins1,2023.2.3,99.75480270919152,1,2023-11-21 08h39.17.654564 +0000,
,,,,,,,,,,,,,,,,,,,,,,,,,,,,,,,,,,,,,,,,,,,,,,,,,,,,,,,,,,,,,,,,,,,,,,,2,,,,,,,,,,,,,,,,,,,,,,,,,,,,,,,,,,,,,,,,,,,,,,,,,,,,,,,,,,,,,,,,,,,,,,2,2023-11-21_08h39.09.227,watkins1,2023.2.3,99.75480270919152,1,2023-11-21 08h39.17.654564 +0000,
,,,,,,,,,,,,,,,,,,,0,0,0,0,,,,,534.9147120000562,,,,,,,,,,,,,,,, ,17.411507099983282,,,,,,,,,,,,9.821525400038809,None,,,,,,,,,,,,,freeRecallSub,2,,,,,,,,,,,,,,,,,,,,,,,,,,,,,,,,,,,,,534.905962800025,534.9147120000562,534.9147120000562,552.3292533999775,return,17.411507099983282,None, ,"[0.013888888888888888, 0.017592592592592594, -0.6194444444444445, 0.02962962962962963, -0.021296296296296296, -0.021296296296296296, -0.5851851851851851, -0.5851851851851851]","[0.07037037037037037, 0.06018518518518518, 0.07962962962962963, 0.04351851851851852, 0.06111111111111111, 0.06111111111111111, 0.2712962962962963, 0.2712962962962963]","[1, 1, 1, 1, 1, 1, 1, 1]","[0, 0, 0, 0, 0, 0, 0, 0]","[0, 0, 0, 0, 0, 0, 0, 0]","[4.036668499931693, 4.6292569999350235, 5.994841199950315, 10.805681400001049, 13.214983299956657, 13.38562409998849, 14.149710300029255, 14.31963469996117]",[],,,,,,,,,,,,,,,,,,,2,2023-11-21_08h39.09.227,watkins1,2023.2.3,99.75480270919152,1,2023-11-21 08h39.17.654564 +0000,
,,,,,,,,,,,,,,,,,,,1,0,1,0,,,,,552.3412970999489,,,,,,,,,,,,,,,,Rucksack,13.760833500069566,,,,,,,,,,,,7.67650349996984,None,,,,,,,,,,,,,freeRecallSub,2,,,,,,,,,,,,,,,,,,,,,,,,,,,,,,,,,,,,,552.3311345999828,552.3412970999489,552.3412970999489,566.1029830999905,return,13.760833500069566,None,Rucksack,"[0.012962962962962963, 0.012962962962962963, -0.006481481481481481, -0.007407407407407408, -0.023148148148148147]","[0.044444444444444446, 0.044444444444444446, 0.04351851851851852, 0.04537037037037037, 0.06388888888888888]","[1, 1, 1, 1, 0]","[0, 0, 0, 0, 1]","[0, 0, 0, 0, 0]","[1.484779000049457, 1.6652968999696895, 4.216864799964242, 4.648937299964018, 5.149930100073107]",[],,,,,,,,,,,,,,,,,,,2,2023-11-21_08h39.09.227,watkins1,2023.2.3,99.75480270919152,1,2023-11-21 08h39.17.654564 +0000,
,,,,,,,,,,,,,,,,,,,2,0,2,0,,,,,566.1139953000238,,,,,,,,,,,,,,,,Geige,3.444143099943176,,,,,,,,,,,,1.165022199973464,None,,,,,,,,,,,,,freeRecallSub,2,,,,,,,,,,,,,,,,,,,,,,,,,,,,,,,,,,,,,566.1043550999602,566.1139953000238,566.1139953000238,569.5589637999656,return,3.444143099943176,None,Geige,[],[],[],[],[],[],[],,,,,,,,,,,,,,,,,,,2,2023-11-21_08h39.09.227,watkins1,2023.2.3,99.75480270919152,1,2023-11-21 08h39.17.654564 +0000,
,,,,,,,,,,,,,,,,,,,3,0,3,0,,,,,569.5696980999783,,,,,,,,,,,,,,,,Tasse,2.4683346000965685,,,,,,,,,,,,0.6224712999537587,None,,,,,,,,,,,,,freeRecallSub,2,,,,,,,,,,,,,,,,,,,,,,,,,,,,,,,,,,,,,569.5602389000123,569.5696980999783,569.5696980999783,572.0405293999938,return,2.4683346000965685,None,Tasse,[],[],[],[],[],[],[],,,,,,,,,,,,,,,,,,,2,2023-11-21_08h39.09.227,watkins1,2023.2.3,99.75480270919152,1,2023-11-21 08h39.17.654564 +0000,
,,,,,,,,,,,,,,,,,,,4,0,4,0,,,,,572.0514126999769,,,,,,,,,,,,,,,,Brille,3.282636500080116,,,,,,,,,,,,1.7575121000409126,None,,,,,,,,,,,,,freeRecallSub,2,,,,,,,,,,,,,,,,,,,,,,,,,,,,,,,,,,,,,572.0417874000268,572.0514126999769,572.0514126999769,575.3357243000064,return,3.282636500080116,None,Brille,[],[],[],[],[],[],[],,,,,,,,,,,,,,,,,,,2,2023-11-21_08h39.09.227,watkins1,2023.2.3,99.75480270919152,1,2023-11-21 08h39.17.654564 +0000,
,,,,,,,,,,,,,,,,,,,5,0,5,0,,,,,575.3470037999796,,,,,,,,,,,,,,,,Bürste,4.187101899995469,,,,,,,,,,,,0.7239203000208363,None,,,,,,,,,,,,,freeRecallSub,2,,,,,,,,,,,,,,,,,,,,,,,,,,,,,,,,,,,,,575.3370988999959,575.3470037999796,575.3470037999796,579.535938499961,return,4.187101899995469,None,Bürste,[],[],[],[],[],[],[],,,,,,,,,,,,,,,,,,,2,2023-11-21_08h39.09.227,watkins1,2023.2.3,99.75480270919152,1,2023-11-21 08h39.17.654564 +0000,
,,,,,,,,,,,,,,,,,,,6,0,6,0,,,,,579.5471614999697,,,,,,,,,,,,,,,,Hund,5.010979100014083,,,,,,,,,,,,3.445009100018069,None,,,,,,,,,,,,,freeRecallSub,2,,,,,,,,,,,,,,,,,,,,,,,,,,,,,,,,,,,,,579.5372144000139,579.5471614999697,579.5471614999697,584.5589624999557,return,5.010979100014083,None,Hund,[],[],[],[],[],[],[],,,,,,,,,,,,,,,,,,,2,2023-11-21_08h39.09.227,watkins1,2023.2.3,99.75480270919152,1,2023-11-21 08h39.17.654564 +0000,
,,,,,,,,,,,,,,,,,,,7,0,7,0,,,,,584.5706428999547,,,,,,,,,,,,,,,,Katze,2.4914765999419615,,,,,,,,,,,,1.1268011000938714,None,,,,,,,,,,,,,freeRecallSub,2,,,,,,,,,,,,,,,,,,,,,,,,,,,,,,,,,,,,,584.5602376000024,584.5706428999547,584.5706428999547,587.0627770000137,return,2.4914765999419615,None,Katze,[],[],[],[],[],[],[],,,,,,,,,,,,,,,,,,,2,2023-11-21_08h39.09.227,watkins1,2023.2.3,99.75480270919152,1,2023-11-21 08h39.17.654564 +0000,
,,,,,,,,,,,,,,,,,,,8,0,8,0,,,,,587.0749913000036,,,,,,,,,,,,,,,,Stift,6.219123100047,,,,,,,,,,,,2.8552173000061885,None,,,,,,,,,,,,,freeRecallSub,2,,,,,,,,,,,,,,,,,,,,,,,,,,,,,,,,,,,,,587.0640567999799,587.0749913000036,587.0749913000036,593.3035134000238,return,6.219123100047,None,Stift,[],[],[],[],[],[],[],,,,,,,,,,,,,,,,,,,2,2023-11-21_08h39.09.227,watkins1,2023.2.3,99.75480270919152,1,2023-11-21 08h39.17.654564 +0000,
,,,,,,,,,,,,,,,,,,,9,0,9,0,,,,,593.3153901000042,,,,,,,,,,,,,,,,Buch,4.722637000028044,,,,,,,,,,,,2.211209300090559,None,,,,,,,,,,,,,freeRecallSub,2,,,,,,,,,,,,,,,,,,,,,,,,,,,,,,,,,,,,,593.3047923999839,593.3153901000042,593.3153901000042,598.0465673999861,return,4.722637000028044,None,Buch,[],[],[],[],[],[],[],,,,,,,,,,,,,,,,,,,2,2023-11-21_08h39.09.227,watkins1,2023.2.3,99.75480270919152,1,2023-11-21 08h39.17.654564 +0000,
,,,,,,,,,,,,,,,,,,,10,0,10,0,,,,,598.0584337000037,,,,,,,,,,,,,,,,Jacke,5.411669600056484,,,,,,,,,,,,2.0605168999172747,None,,,,,,,,,,,,,freeRecallSub,2,,,,,,,,,,,,,,,,,,,,,,,,,,,,,,,,,,,,,598.0478430000367,598.0584337000037,598.0584337000037,603.4724170999834,return,5.411669600056484,None,Jacke,[],[],[],[],[],[],[],,,,,,,,,,,,,,,,,,,2,2023-11-21_08h39.09.227,watkins1,2023.2.3,99.75480270919152,1,2023-11-21 08h39.17.654564 +0000,
,,,,,,,,,,,,,,,,,,,11,0,11,0,,,,,603.484618699993,,,,,,,,,,,,,,,,Vase,11.537458000006154,,,,,,,,,,,,9.471765599912032,None,,,,,,,,,,,,,freeRecallSub,2,,,,,,,,,,,,,,,,,,,,,,,,,,,,,,,,,,,,,603.4736790000461,603.484618699993,603.484618699993,615.0241491999477,return,11.537458000006154,None,Vase,[],[],[],[],[],[],[],,,,,,,,,,,,,,,,,,,2,2023-11-21_08h39.09.227,watkins1,2023.2.3,99.75480270919152,1,2023-11-21 08h39.17.654564 +0000,
,,,,,,,,,,,,,,,,,,,12,0,12,0,,,,,615.0365274000214,,,,,,,,,,,,,,,,Flasche,26.08158270001877,,,,,,,,,,,,22.797790099983104,None,,,,,,,,,,,,,freeRecallSub,2,,,,,,,,,,,,,,,,,,,,,,,,,,,,,,,,,,,,,615.025405399967,615.0365274000214,615.0365274000214,641.1268653000006,return,26.08158270001877,None,Flasche,[],[],[],[],[],[],[],,,,,,,,,,,,,,,,,,,2,2023-11-21_08h39.09.227,watkins1,2023.2.3,99.75480270919152,1,2023-11-21 08h39.17.654564 +0000,
,,,,,,,,,,,,,,,,,,,13,0,13,0,,,,,641.1395877000177,,,,,,,,,,,,,,,,Lampe,9.242531700059772,,,,,,,,,,,,6.3095392000395805,None,,,,,,,,,,,,,freeRecallSub,2,,,,,,,,,,,,,,,,,,,,,,,,,,,,,,,,,,,,,641.1281457999721,641.1395877000177,641.1395877000177,650.3899003999541,return,9.242531700059772,None,Lampe,[],[],[],[],[],[],[],,,,,,,,,,,,,,,,,,,2,2023-11-21_08h39.09.227,watkins1,2023.2.3,99.75480270919152,1,2023-11-21 08h39.17.654564 +0000,
,,,,,,,,,,,,,,,,,,,14,0,14,0,,,,,650.4031252999557,,,,,,,,,,,,,,,,Trommel ,27.050837299902923,,,,,,,,,,,,22.88070229999721,None,,,,,,,,,,,,,freeRecallSub,2,,,,,,,,,,,,,,,,,,,,,,,,,,,,,,,,,,,,,650.3911818000488,650.4031252999557,650.4031252999557,677.4595446999883,return,27.050837299902923,None,Trommel ,[],[],[],[],[],[],[],,,,,,,,,,,,,,,,,,,2,2023-11-21_08h39.09.227,watkins1,2023.2.3,99.75480270919152,1,2023-11-21 08h39.17.654564 +0000,
,,,,,,,,,,,,,,,,,,,15,0,15,0,,,,,677.4729426000267,,,,,,,,,,,,,,,,Eimer,19.86904110002797,,,,,,,,,,,,16.302374099963345,None,,,,,,,,,,,,,freeRecallSub,2,,,,,,,,,,,,,,,,,,,,,,,,,,,,,,,,,,,,,677.4608082000632,677.4729426000267,677.4729426000267,697.3480600999901,return,19.86904110002797,None,Eimer,[],[],[],[],[],[],[],,,,,,,,,,,,,,,,,,,2,2023-11-21_08h39.09.227,watkins1,2023.2.3,99.75480270919152,1,2023-11-21 08h39.17.654564 +0000,
,,,,,,,,,,,,,,,,,,,16,0,16,0,,,,,697.3615335000213,,,,,,,,,,,,,,,,,[],,,,,,,,,,,,None,None,,,,,,,,,,,,,freeRecallSub,2,,,,,,,,,,,,,,,,,,,,,,,,,,,,,,,,,,,,,697.3493335000239,697.3615335000213,697.3615335000213,738.901703099953,None,,,,[0.37592592592592594],[-0.387037037037037],[1],[0],[0],[41.54644029994961],"['button_continue', 'continue_text']",,,,,,,,,,,,,,,,,,,2,2023-11-21_08h39.09.227,watkins1,2023.2.3,99.75480270919152,1,2023-11-21 08h39.17.654564 +0000,
,,,,,,,,,,,,,,,,,,,,,,,,,,,,,,,,,,,,,,,,,,,,,,,,,,,,,,,,,,,,,,,,,,,,,,,2,,,,,,,,,,,,,,,,,,,,,,,,,,,,,,,,,,,,,,,,,,,,,,,,,,,,,,,,,,,,,,,,,,,,,,2,2023-11-21_08h39.09.227,watkins1,2023.2.3,99.75480270919152,1,2023-11-21 08h39.17.654564 +0000,
,,,,,,,,,,,,,,,,,,,,,,,0,0,0,0,749.0934402999701,,,,,,,,,,,,755.2824957000557,755.7811870999867,,,,6.176451200037263,,,,,,,,,,,,None,None,,,,,,,,,,Ring,,,cuedRecallAdj,2,,,,,,,,,,,,,,,,,,,,,0,,,,,,,,,,,,,,,,,,,,,,,,,,,,,,,749.0844143000431,749.0934402999701,749.0934402999701,755.2792661000276,kaputter,return,6.176451200037263,None,755.2796607000055,755.2890949000139,755.2890949000139,755.2822020000312,,None,,,,,2,2023-11-21_08h39.09.227,watkins1,2023.2.3,99.75480270919152,1,2023-11-21 08h39.17.654564 +0000,
,,,,,,,,,,,,,,,,,,,,,,,1,0,1,0,755.7911275000079,,,,,,,,,,,,766.097142499988,766.595984500018,,,,10.29484109999612,,,,,,,,,,,,None,None,,,,,,,,,,Lampe,,,cuedRecallAdj,2,,,,,,,,,,,,,,,,,,,,,0,,,,,,,,,,,,,,,,,,,,,,,,,,,,,,,755.7814325999934,755.7911275000079,755.7911275000079,766.0941501000198,krumme,return,10.29484109999612,None,766.0944261000259,766.1038733000169,766.1038733000169,766.0970408000285,,None,,,,,2,2023-11-21_08h39.09.227,watkins1,2023.2.3,99.75480270919152,1,2023-11-21 08h39.17.654564 +0000,
,,,,,,,,,,,,,,,,,,,,,,,2,0,2,0,766.6059276000597,,,,,,,,,,,,777.7158489000285,778.2143877999624,,,,11.103937699925154,,,,,,,,,,,,None,None,,,,,,,,,,Trommel,,,cuedRecallAdj,2,,,,,,,,,,,,,,,,,,,,,0,,,,,,,,,,,,,,,,,,,,,,,,,,,,,,,766.5962309000315,766.6059276000597,766.6059276000597,777.712745900033,verspielt,return,11.103937699925154,None,777.7130104999524,777.7222914999584,777.7222914999584,777.7157467999496,,None,,,,,2,2023-11-21_08h39.09.227,watkins1,2023.2.3,99.75480270919152,1,2023-11-21 08h39.17.654564 +0000,
,,,,,,,,,,,,,,,,,,,,,,,3,0,3,0,778.2243408999639,,,,,,,,,,,,783.1279712000396,783.6268586999504,,,,4.893720700056292,,,,,,,,,,,,None,None,,,,,,,,,,Hammer,,,cuedRecallAdj,2,,,,,,,,,,,,,,,,,,,,,0,,,,,,,,,,,,,,,,,,,,,,,,,,,,,,,778.2146333999699,778.2243408999639,778.2243408999639,783.1251093000174,hohl,return,4.893720700056292,None,783.1253761999542,783.1346414999571,783.1346414999571,783.1278695999645,,None,,,,,2,2023-11-21_08h39.09.227,watkins1,2023.2.3,99.75480270919152,1,2023-11-21 08h39.17.654564 +0000,
,,,,,,,,,,,,,,,,,,,,,,,4,0,4,0,783.6368017999921,,,,,,,,,,,,787.8176086000167,788.3162093999563,,,,4.177139200037345,,,,,,,,,,,,None,None,,,,,,,,,,Bürste,,,cuedRecallAdj,2,,,,,,,,,,,,,,,,,,,,,0,,,,,,,,,,,,,,,,,,,,,,,,,,,,,,,783.627103799954,783.6368017999921,783.6368017999921,787.8145512000192,neu,return,4.177139200037345,None,787.8148172999499,787.8240964000579,787.8240964000579,787.8175054000458,,None,,,,,2,2023-11-21_08h39.09.227,watkins1,2023.2.3,99.75480270919152,1,2023-11-21 08h39.17.654564 +0000,
,,,,,,,,,,,,,,,,,,,,,,,5,0,5,0,788.3261197999818,,,,,,,,,,,,793.3103388999589,793.8088021000149,,,,4.97581730003003,,,,,,,,,,,,None,None,,,,,,,,,,Würfel,,,cuedRecallAdj,2,,,,,,,,,,,,,,,,,,,,,0,,,,,,,,,,,,,,,,,,,,,,,,,,,,,,,788.3164557999698,788.3261197999818,788.3261197999818,793.3070976999588,gepunktet,return,4.97581730003003,None,793.307363800006,793.3166021000361,793.3166021000361,793.310235699988,,None,,,,,2,2023-11-21_08h39.09.227,watkins1,2023.2.3,99.75480270919152,1,2023-11-21 08h39.17.654564 +0000,
,,,,,,,,,,,,,,,,,,,,,,,6,0,6,0,793.8187538000057,,,,,,,,,,,,798.3308823000407,798.8298018999631,,,,4.499141299980693,,,,,,,,,,,,None,None,,,,,,,,,,Telefon,,,cuedRecallAdj,2,,,,,,,,,,,,,,,,,,,,,0,,,,,,,,,,,,,,,,,,,,,,,,,,,,,,,793.8090431999881,793.8187538000057,793.8187538000057,798.3280036000069,nass,return,4.499141299980693,None,798.3282722999575,798.3377252999926,798.3377252999926,798.3307796999579,,None,,,,,2,2023-11-21_08h39.09.227,watkins1,2023.2.3,99.75480270919152,1,2023-11-21 08h39.17.654564 +0000,
,,,,,,,,,,,,,,,,,,,,,,,7,0,7,0,798.8397475000238,,,,,,,,,,,,802.2275646999478,802.7261450999649,,,,3.3821440000319853,,,,,,,,,,,,None,None,,,,,,,,,,Buch,,,cuedRecallAdj,2,,,,,,,,,,,,,,,,,,,,,0,,,,,,,,,,,,,,,,,,,,,,,,,,,,,,,798.8300469999667,798.8397475000238,798.8397475000238,802.2245000000112,robust,return,3.3821440000319853,None,802.2247887999984,802.2340602000477,802.2340602000477,802.227441300056,,None,,,,,2,2023-11-21_08h39.09.227,watkins1,2023.2.3,99.75480270919152,1,2023-11-21 08h39.17.654564 +0000,
,,,,,,,,,,,,,,,,,,,,,,,8,0,8,0,802.73609390005,,,,,,,,,,,,806.7660660999827,807.2647785999579,,,,4.021783499978483,,,,,,,,,,,,None,None,,,,,,,,,,Fahrrad,,,cuedRecallAdj,2,,,,,,,,,,,,,,,,,,,,,0,,,,,,,,,,,,,,,,,,,,,,,,,,,,,,,802.7263874000637,802.73609390005,802.73609390005,806.7631551000522,bunt,return,4.021783499978483,None,806.7634225999936,806.7726177000441,806.7726177000441,806.7659639000194,,None,,,,,2,2023-11-21_08h39.09.227,watkins1,2023.2.3,99.75480270919152,1,2023-11-21 08h39.17.654564 +0000,
,,,,,,,,,,,,,,,,,,,,,,,9,0,9,0,807.2747273000423,,,,,,,,,,,,814.4779770000605,814.9764703999972,,,,7.195156199974008,,,,,,,,,,,,None,None,,,,,,,,,,Blume,,,cuedRecallAdj,2,,,,,,,,,,,,,,,,,,,,,0,,,,,,,,,,,,,,,,,,,,,,,,,,,,,,,807.2650205000537,807.2747273000423,807.2747273000423,814.4749058999587,schmutzig,return,7.195156199974008,None,814.4751726000104,814.4844646999845,814.4844646999845,814.4778736999724,,None,,,,,2,2023-11-21_08h39.09.227,watkins1,2023.2.3,99.75480270919152,1,2023-11-21 08h39.17.654564 +0000,
,,,,,,,,,,,,,,,,,,,,,,,10,0,10,0,814.9864943999564,,,,,,,,,,,,825.7046428000322,826.2036207000492,,,,10.707300499896519,,,,,,,,,,,,None,None,,,,,,,,,,Rucksack,,,cuedRecallAdj,2,,,,,,,,,,,,,,,,,,,,,0,,,,,,,,,,,,,,,,,,,,,,,,,,,,,,,814.9767109999666,814.9864943999564,814.9864943999564,825.7014260999858,schwer,return,10.707300499896519,None,825.7016910000239,825.7111540000187,825.7111540000187,825.7045399000635,,None,,,,,2,2023-11-21_08h39.09.227,watkins1,2023.2.3,99.75480270919152,1,2023-11-21 08h39.17.654564 +0000,
,,,,,,,,,,,,,,,,,,,,,,,11,0,11,0,826.2135701000225,,,,,,,,,,,,829.5806961000198,830.0796100000152,,,,3.360227099969052,,,,,,,,,,,,None,None,,,,,,,,,,Kamera,,,cuedRecallAdj,2,,,,,,,,,,,,,,,,,,,,,0,,,,,,,,,,,,,,,,,,,,,,,,,,,,,,,826.2038651000476,826.2135701000225,826.2135701000225,829.5778227000264,kalt,return,3.360227099969052,None,829.578087599948,829.5875089999754,829.5875089999754,829.5805925000459,,None,,,,,2,2023-11-21_08h39.09.227,watkins1,2023.2.3,99.75480270919152,1,2023-11-21 08h39.17.654564 +0000,
,,,,,,,,,,,,,,,,,,,,,,,12,0,12,0,830.0895710999612,,,,,,,,,,,,838.7097286999924,839.2081332999514,,,,8.61223979992792,,,,,,,,,,,,None,None,,,,,,,,,,Kiste,,,cuedRecallAdj,2,,,,,,,,,,,,,,,,,,,,,0,,,,,,,,,,,,,,,,,,,,,,,,,,,,,,,830.0798515999923,830.0895710999612,830.0895710999612,838.7064921000274,strahlend,return,8.61223979992792,None,838.7067585999612,838.71603650006,838.71603650006,838.7096249000169,,None,,,,,2,2023-11-21_08h39.09.227,watkins1,2023.2.3,99.75480270919152,1,2023-11-21 08h39.17.654564 +0000,
,,,,,,,,,,,,,,,,,,,,,,,13,0,13,0,839.2180400999496,,,,,,,,,,,,843.4095066000009,843.9081369000487,,,,4.179709699936211,,,,,,,,,,,,None,None,,,,,,,,,,Hut,,,cuedRecallAdj,2,,,,,,,,,,,,,,,,,,,,,0,,,,,,,,,,,,,,,,,,,,,,,,,,,,,,,839.208379299962,839.2180400999496,839.2180400999496,843.4065662999637,sportlich,return,4.179709699936211,None,843.4068341000238,843.4162874000613,843.4162874000613,843.4094037000323,,None,,,,,2,2023-11-21_08h39.09.227,watkins1,2023.2.3,99.75480270919152,1,2023-11-21 08h39.17.654564 +0000,
,,,,,,,,,,,,,,,,,,,,,,,14,0,14,0,843.9181452000048,,,,,,,,,,,,856.0418772000121,856.5405432999833,,,,12.119722199975513,,,,,,,,,,,,None,None,,,,,,,,,,Schlüssel,,,cuedRecallAdj,2,,,,,,,,,,,,,,,,,,,,,0,,,,,,,,,,,,,,,,,,,,,,,,,,,,,,,843.9083801000379,843.9181452000048,843.9181452000048,856.0387378999731,praktisch,return,12.119722199975513,None,856.0390035000164,856.0483941000421,856.0483941000421,856.0417748000473,,None,,,,,2,2023-11-21_08h39.09.227,watkins1,2023.2.3,99.75480270919152,1,2023-11-21 08h39.17.654564 +0000,
,,,,,,,,,,,,,,,,,,,,,,,15,0,15,0,856.5504393000156,,,,,,,,,,,,859.405772899976,859.9043642999604,,,,2.8472912999568507,,,,,,,,,,,,None,None,,,,,,,,,,Eimer,,,cuedRecallAdj,2,,,,,,,,,,,,,,,,,,,,,0,,,,,,,,,,,,,,,,,,,,,,,,,,,,,,,856.5407863999717,856.5504393000156,856.5504393000156,859.4027512000175,elegant,return,2.8472912999568507,None,859.4030188999604,859.412321300013,859.412321300013,859.4056695000036,,None,,,,,2,2023-11-21_08h39.09.227,watkins1,2023.2.3,99.75480270919152,1,2023-11-21 08h39.17.654564 +0000,
,,,,,,,,,,,,,,,,,,,,,,,16,0,16,0,859.9143105000257,,,,,,,,,,,,861.8857818000251,862.384585199994,,,,1.96344089997001,,,,,,,,,,,,None,None,,,,,,,,,,Stift,,,cuedRecallAdj,2,,,,,,,,,,,,,,,,,,,,,0,,,,,,,,,,,,,,,,,,,,,,,,,,,,,,,859.9046049000463,859.9143105000257,859.9143105000257,861.8829619999742,gut,return,1.96344089997001,None,861.8832293000305,861.8925312999636,861.8925312999636,861.8856775000459,,None,,,,,2,2023-11-21_08h39.09.227,watkins1,2023.2.3,99.75480270919152,1,2023-11-21 08h39.17.654564 +0000,
,,,,,,,,,,,,,,,,,,,,,,,17,0,17,0,862.3946398999542,,,,,,,,,,,,868.5128815999487,869.0117796000559,,,,6.107127700001001,,,,,,,,,,,,None,None,,,,,,,,,,Kette,,,cuedRecallAdj,2,,,,,,,,,,,,,,,,,,,,,0,,,,,,,,,,,,,,,,,,,,,,,,,,,,,,,862.384831000003,862.3946398999542,862.3946398999542,868.5100130999926,teuer,return,6.107127700001001,None,868.5102757000132,868.5198146000039,868.5198146000039,868.5127800999908,,None,,,,,2,2023-11-21_08h39.09.227,watkins1,2023.2.3,99.75480270919152,1,2023-11-21 08h39.17.654564 +0000,
,,,,,,,,,,,,,,,,,,,,,,,18,0,18,0,869.0218287999742,,,,,,,,,,,,873.9456996000372,874.4442583000055,,,,4.91199510009028,,,,,,,,,,,,None,None,,,,,,,,,,Tasche,,,cuedRecallAdj,2,,,,,,,,,,,,,,,,,,,,,0,,,,,,,,,,,,,,,,,,,,,,,,,,,,,,,869.0120204000268,869.0218287999742,869.0218287999742,873.9424681999953,praktisch,return,4.91199510009028,None,873.9427328000311,873.9521851000609,873.9521851000609,873.9455959000625,,None,,,,,2,2023-11-21_08h39.09.227,watkins1,2023.2.3,99.75480270919152,1,2023-11-21 08h39.17.654564 +0000,
,,,,,,,,,,,,,,,,,,,,,,,19,0,19,0,874.4542072999757,,,,,,,,,,,,877.7411532000406,878.2399581000209,,,,3.2795561000239104,,,,,,,,,,,,None,None,,,,,,,,,,Vase,,,cuedRecallAdj,2,,,,,,,,,,,,,,,,,,,,,0,,,,,,,,,,,,,,,,,,,,,,,,,,,,,,,874.4445062000304,874.4542072999757,874.4542072999757,877.7382057999494,kolbig,return,3.2795561000239104,None,877.7384926000377,877.7477543000132,877.7477543000132,877.741050099954,,None,,,,,2,2023-11-21_08h39.09.227,watkins1,2023.2.3,99.75480270919152,1,2023-11-21 08h39.17.654564 +0000,
,,,,,,,,,,,,,,,,,,,,,,,20,0,20,0,878.249858599971,,,,,,,,,,,,886.9694871000247,887.4680672000395,,,,8.716004500049166,,,,,,,,,,,,None,None,,,,,,,,,,Brille,,,cuedRecallAdj,2,,,,,,,,,,,,,,,,,,,,,0,,,,,,,,,,,,,,,,,,,,,,,,,,,,,,,878.2402194000315,878.249858599971,878.249858599971,886.9664066999685,glänzend,return,8.716004500049166,None,886.9666683999822,886.975903899991,886.975903899991,886.9693866999587,,None,,,,,2,2023-11-21_08h39.09.227,watkins1,2023.2.3,99.75480270919152,1,2023-11-21 08h39.17.654564 +0000,
,,,,,,,,,,,,,,,,,,,,,,,21,0,21,0,887.478051800048,,,,,,,,,,,,891.5082697999896,892.0067724999972,,,,4.023801899980754,,,,,,,,,,,,None,None,,,,,,,,,,Geige,,,cuedRecallAdj,2,,,,,,,,,,,,,,,,,,,,,0,,,,,,,,,,,,,,,,,,,,,,,,,,,,,,,887.4683115000371,887.478051800048,887.478051800048,891.5051314999582,gestreift,return,4.023801899980754,None,891.505419800058,891.514668900054,891.514668900054,891.5081657000119,,None,,,,,2,2023-11-21_08h39.09.227,watkins1,2023.2.3,99.75480270919152,1,2023-11-21 08h39.17.654564 +0000,
,,,,,,,,,,,,,,,,,,,,,,,22,0,22,0,892.0167193999514,,,,,,,,,,,,894.2594511000207,894.758210400003,,,,2.2370527999009937,,,,,,,,,,,,None,None,,,,,,,,,,Socke,,,cuedRecallAdj,2,,,,,,,,,,,,,,,,,,,,,0,,,,,,,,,,,,,,,,,,,,,,,,,,,,,,,892.0070177000016,892.0167193999514,892.0167193999514,894.2564079000149,glatt,return,2.2370527999009937,None,894.256676799967,894.2660260000266,894.2660260000266,894.259347800049,,None,,,,,2,2023-11-21_08h39.09.227,watkins1,2023.2.3,99.75480270919152,1,2023-11-21 08h39.17.654564 +0000,
,,,,,,,,,,,,,,,,,,,,,,,23,0,23,0,894.7681483000051,,,,,,,,,,,,905.4259913000278,905.9245256000431,,,,10.653643500059843,,,,,,,,,,,,None,None,,,,,,,,,,Flasche,,,cuedRecallAdj,2,,,,,,,,,,,,,,,,,,,,,0,,,,,,,,,,,,,,,,,,,,,,,,,,,,,,,894.7584609000478,894.7681483000051,894.7681483000051,905.4228741000406,gebogen,return,10.653643500059843,None,905.4231404999737,905.4325335000176,905.4325335000176,905.4258866000455,,None,,,,,2,2023-11-21_08h39.09.227,watkins1,2023.2.3,99.75480270919152,1,2023-11-21 08h39.17.654564 +0000,
,,,,,,,,,,,,,,,,,,,,,,,24,0,24,0,905.9345730000641,,,,,,,,,,,,913.8509445999516,914.3497160000261,,,,7.911212799954228,,,,,,,,,,,,None,None,,,,,,,,,,Schere,,,cuedRecallAdj,2,,,,,,,,,,,,,,,,,,,,,0,,,,,,,,,,,,,,,,,,,,,,,,,,,,,,,905.9247673000209,905.9345730000641,905.9345730000641,913.8478814000264,glänzend,return,7.911212799954228,None,913.8481533000013,913.8573950000573,913.8573950000573,913.8508423999883,,None,,,,,2,2023-11-21_08h39.09.227,watkins1,2023.2.3,99.75480270919152,1,2023-11-21 08h39.17.654564 +0000,
,,,,,,,,,,,,,,,,,,,,,,,25,0,25,0,914.3596630999818,,,,,,,,,,,,920.3084643000038,920.8069480999839,,,,5.942115999991074,,,,,,,,,,,,None,None,,,,,,,,,,Jacke,,,cuedRecallAdj,2,,,,,,,,,,,,,,,,,,,,,0,,,,,,,,,,,,,,,,,,,,,,,,,,,,,,,914.349975900026,914.3596630999818,914.3596630999818,920.3054163999623,rustikal,return,5.942115999991074,None,920.3056839000201,920.3148975999793,920.3148975999793,920.308361500036,,None,,,,,2,2023-11-21_08h39.09.227,watkins1,2023.2.3,99.75480270919152,1,2023-11-21 08h39.17.654564 +0000,
,,,,,,,,,,,,,,,,,,,,,,,26,0,26,0,920.8169978000224,,,,,,,,,,,,923.7542195999995,924.2529820000054,,,,2.9326865000184625,,,,,,,,,,,,None,None,,,,,,,,,,Tasse,,,cuedRecallAdj,2,,,,,,,,,,,,,,,,,,,,,0,,,,,,,,,,,,,,,,,,,,,,,,,,,,,,,920.8071920999791,920.8169978000224,920.8169978000224,923.7512442000443,lustig,return,2.9326865000184625,None,923.7515120999888,923.7608753000386,923.7608753000386,923.7541170000331,,None,,,,,2,2023-11-21_08h39.09.227,watkins1,2023.2.3,99.75480270919152,1,2023-11-21 08h39.17.654564 +0000,
,,,,,,,,,,,,,,,,,,,,,,,27,0,27,0,924.2629231000319,,,,,,,,,,,,927.2488942999626,927.7478012000211,,,,2.9748270999407396,,,,,,,,,,,,None,None,,,,,,,,,,Löffel,,,cuedRecallAdj,2,,,,,,,,,,,,,,,,,,,,,0,,,,,,,,,,,,,,,,,,,,,,,,,,,,,,,924.2532252999954,924.2629231000319,924.2629231000319,927.2459052000195,dunkel,return,2.9748270999407396,None,927.2461709000636,927.255736400024,927.255736400024,927.2487919999985,,None,,,,,2,2023-11-21_08h39.09.227,watkins1,2023.2.3,99.75480270919152,1,2023-11-21 08h39.17.654564 +0000,
,,,,,,,,,,,,,,,,,,,,,,,28,0,28,0,927.7577672000043,,,,,,,,,,,,930.6325828999979,931.131625900045,,,,2.8640253000194207,,,,,,,,,,,,None,None,,,,,,,,,,Uhr,,,cuedRecallAdj,2,,,,,,,,,,,,,,,,,,,,,0,,,,,,,,,,,,,,,,,,,,,,,,,,,,,,,927.7480449000141,927.7577672000043,927.7577672000043,930.6298575999681,dick,return,2.8640253000194207,None,930.6301251000259,930.6395724000176,930.6395724000176,930.632479700027,,None,,,,,2,2023-11-21_08h39.09.227,watkins1,2023.2.3,99.75480270919152,1,2023-11-21 08h39.17.654564 +0000,
,,,,,,,,,,,,,,,,,,,,,,,29,0,29,0,931.1416793999961,,,,,,,,,,,,936.2161257000407,936.7146269000368,,,,5.064087099977769,,,,,,,,,,,,None,None,,,,,,,,,,Kerze,,,cuedRecallAdj,2,,,,,,,,,,,,,,,,,,,,,0,,,,,,,,,,,,,,,,,,,,,,,,,,,,,,,931.1318708000472,931.1416793999961,931.1416793999961,936.212974700029,schlicht,return,5.064087099977769,None,936.2132419999689,936.2226208000211,936.2226208000211,936.2160231999587,,None,,,,,2,2023-11-21_08h39.09.227,watkins1,2023.2.3,99.75480270919152,1,2023-11-21 08h39.17.654564 +0000,
,,,,,,,,,,,,,,,,,,,,,,,,,,,,,,,,,,,,,,,,,,,,,,,,,,,,,,,,,,,,,,,,,,,,,,,2,,,,,,,,,,,,,,,,,,,,,,,,,,,,,,,,,,,,,,,,,,,,,,,,,,,,,,,,,,,,,,,,,,936.7312740000198,q,450.0179022999946,None,2,2023-11-21_08h39.09.227,watkins1,2023.2.3,99.75480270919152,1,2023-11-21 08h39.17.654564 +0000,
