Equation,CorrectResponse,Correctbutton,trials_7.thisRepN,trials_7.thisTrialN,trials_7.thisN,trials_7.thisIndex,trials.thisRepN,trials.thisTrialN,trials.thisN,trials.thisIndex,trials_3.thisRepN,trials_3.thisTrialN,trials_3.thisN,trials_3.thisIndex,trials_2.thisRepN,trials_2.thisTrialN,trials_2.thisN,trials_2.thisIndex,trials_4.thisRepN,trials_4.thisTrialN,trials_4.thisN,trials_4.thisIndex,trials_5.thisRepN,trials_5.thisTrialN,trials_5.thisN,trials_5.thisIndex,thisRow.t,notes,list_sub_restudy,list_sub_testsub,code_marius.started,code_marius.stopped,welcome.started,welcome.stopped,instruction_study.started,instruction_study.stopped,fixationcross.started,fixationcross.stopped,blanc.started,blanc.stopped,study_control_probe.started,study_control_probe.stopped,responseKey,responseTime,scale_answer_2.keys,study_control_probe_2.started,study_control_probe_2.stopped,scale_answer_3.keys,scale_answer_3.rt,scale_answer_3.duration,blanc_2.started,blanc_2.stopped,test_attr_probe.started,test_attr_probe.stopped,recalled_attr,firstKeyTime,secondWordTime,blanc_3.started,blanc_3.stopped,test_sub_probe.started,test_sub_probe.stopped,recalled_sub,instruction_probe_end.started,instruction_probe_end.stopped,study.started,study.stopped,substantive,adjective,wordpair,task,condition,liste_sub_phase1,liste_adj_phase1,scale_answer.keys,scale_answer.rt,scale_answer.duration,code_defineWordsInit.started,code_defineWordsInit.stopped,liste_sub_phase2,study_control.started,study_control.stopped,scale_answer_4.keys,restudy_same.started,restudy_same.stopped,scale_answer_5.keys,restudy_different.started,restudy_different.stopped,scale_answer_6.keys,test_attr.started,test_attr.stopped,test_sub.started,correct,test_sub.stopped,scale_answer_5.rt,scale_answer_5.duration,distractortask.started,equation_text.started,distractortask.stopped,mouse_answer.x,mouse_answer.y,mouse_answer.leftButton,mouse_answer.midButton,mouse_answer.rightButton,mouse_answer.time,mouse_answer.clicked_name,feedback_distractortask.started,feedback_distractortask.stopped,free_recall.started,text_enter.started,key_resp.started,free_recall.stopped,key_resp.keys,key_resp.rt,key_resp.duration,free_recalled_sub,mouse_continue.x,mouse_continue.y,mouse_continue.leftButton,mouse_continue.midButton,mouse_continue.rightButton,mouse_continue.time,mouse_continue.clicked_name,cued_recall.started,text_enter_2.started,key_continue.started,cued_recall.stopped,recalled_attr1,key_continue.keys,key_continue.rt,key_continue.duration,cued_recall_2.started,text_enter_3.started,key_continue_2.started,cued_recall_2.stopped,recalled_attr2,key_continue_2.keys,key_resp_8.started,key_resp_8.keys,key_resp_8.rt,key_resp_8.duration,condition,date,expName,psychopyVersion,frameRate,participant,expStart,
,,,,,,,,,,,,,,,,,,,,,,,,,,,,,"['Vase', 'Trommel', 'Hammer', 'Löffel', 'Blume', 'Schere', 'Tasse', 'Fahrrad', 'Tasche', 'Buch', 'Lampe', 'Ring', 'Eimer', 'Kiste', 'Flasche']","['Geige', 'Kerze', 'Schlüssel', 'Kamera', 'Telefon', 'Socke', 'Hut', 'Brille', 'Stift', 'Jacke', 'Rucksack', 'Kette', 'Bürste', 'Würfel', 'Uhr']",0.11792040010914207,0.11799040017649531,0.11799880024045706,5.995041100308299,,,,,,,,,,,,,,,,,,,,,,,,,,,,,,,,,,,,,2,,,,,,,,,,,,,,,,,,,,,,,,,,,,,,,,,,,,,,,,,,,,,,,,,,,,,,,,,,,,,,,,,,,,,,2,2023-12-12_08h36.14.010,watkins1,2023.2.3,99.71630705898762,60,2023-12-12 08h36.22.366032 +0000,
,,,,,,,,,,,,,,,,,,,,,,,,,,,,,,,,,,,5.99509060010314,38.5334950000979,,,,,,,,,,,,,,,,,,,,,,,,,,,,,,,,,,,2,,,,,,,,,,,,,,,,,,,,,,,,,,,,,,,,,,,,,,,,,,,,,,,,,,,,,,,,,,,,,,,,,,,,,,2,2023-12-12_08h36.14.010,watkins1,2023.2.3,99.71630705898762,60,2023-12-12 08h36.22.366032 +0000,
,,,0,0,0,0,,,,,,,,,,,,,,,,,,,,,39.548130200244486,,,,,,,,,,38.533511999994516,39.538056100253016,46.03714939998463,46.52841570042074,40.02984640002251,46.03697800030932,2,2.2896829997189343,None,46.52842650003731,52.531497000250965,2,2.2896829997189343,None,52.531787500251085,52.53181490022689,52.53182200016454,52.53190350020304,,1.6566604999825358,None,52.532403600402176,53.023103600367904,53.023114500101656,59.02811249997467,Hund,,,,,,,,,2,,,,,,,,,,,,,,,,,,,,,,,,,,,,,,,,,,,,,,,,,,,,,,,,,,,,,,,,,,,,,,,,,,,,,,2,2023-12-12_08h36.14.010,watkins1,2023.2.3,99.71630705898762,60,2023-12-12 08h36.22.366032 +0000,
,,,,,,,,,,,,,,,,,,,,,,,,,,,,,,,,,,,,,,,,,,,,,,,,,,,,,,,,,,,,,,,59.02827000012621,65.05318130040541,,,,,,,2,,,,,,,,,,,,,,,,,,,,,,,,,,,,,,,,,,,,,,,,,,,,,,,,,,,,,,,,,,,,,,,,,,,,,,2,2023-12-12_08h36.14.010,watkins1,2023.2.3,99.71630705898762,60,2023-12-12 08h36.22.366032 +0000,
,,,,,,,0,0,0,0,,,,,,,,,,,,,,,,,66.06694700010121,,,,,,,,,,65.05319900019094,66.05696259997785,66.05741650005803,66.5489382003434,,,3,2.552898199763149,,,,,,,,,,,,,,,,,,,,,66.5489487000741,72.55188939999789,Tasse,nass,"['Tasse', 'nass']",restudy,2,"['Tasse', 'Lampe', 'Trommel', 'Socke', 'Kette', 'Löffel', 'Blume', 'Eimer', 'Fahrrad', 'Brille', 'Kamera', 'Ring', 'Buch', 'Schere', 'Kiste', 'Tasche', 'Stift', 'Jacke', 'Hammer', 'Telefon', 'Geige', 'Rucksack', 'Vase', 'Schlüssel', 'Bürste', 'Uhr', 'Würfel', 'Hut', 'Flasche', 'Kerze']",['nass'],3,2.552898199763149,None,,,,,,,,,,,,,,,,,,,,,,,,,,,,,,,,,,,,,,,,,,,,,,,,,,,,,,,,,,,,,,,,,2,2023-12-12_08h36.14.010,watkins1,2023.2.3,99.71630705898762,60,2023-12-12 08h36.22.366032 +0000,
,,,,,,,1,0,1,0,,,,,,,,,,,,,,,,,72.56147260032594,,,,,,,,,,,,72.55255230003968,73.04350060038269,,,1,1.890069699846208,,,,,,,,,,,,,,,,,,,,,73.04351059999317,79.04751490009949,Lampe,kratzig,"['Lampe', 'kratzig']",restudy,2,"['Tasse', 'Lampe', 'Trommel', 'Socke', 'Kette', 'Löffel', 'Blume', 'Eimer', 'Fahrrad', 'Brille', 'Kamera', 'Ring', 'Buch', 'Schere', 'Kiste', 'Tasche', 'Stift', 'Jacke', 'Hammer', 'Telefon', 'Geige', 'Rucksack', 'Vase', 'Schlüssel', 'Bürste', 'Uhr', 'Würfel', 'Hut', 'Flasche', 'Kerze']","['nass', 'kratzig']",1,1.890069699846208,None,,,,,,,,,,,,,,,,,,,,,,,,,,,,,,,,,,,,,,,,,,,,,,,,,,,,,,,,,,,,,,,,,2,2023-12-12_08h36.14.010,watkins1,2023.2.3,99.71630705898762,60,2023-12-12 08h36.22.366032 +0000,
,,,,,,,2,0,2,0,,,,,,,,,,,,,,,,,79.05698680039495,,,,,,,,,,,,79.04803680023178,79.53910880023614,,,1,1.8756909002549946,,,,,,,,,,,,,,,,,,,,,79.53912750026211,85.54256890015677,Trommel,biegsam,"['Trommel', 'biegsam']",restudy,2,"['Tasse', 'Lampe', 'Trommel', 'Socke', 'Kette', 'Löffel', 'Blume', 'Eimer', 'Fahrrad', 'Brille', 'Kamera', 'Ring', 'Buch', 'Schere', 'Kiste', 'Tasche', 'Stift', 'Jacke', 'Hammer', 'Telefon', 'Geige', 'Rucksack', 'Vase', 'Schlüssel', 'Bürste', 'Uhr', 'Würfel', 'Hut', 'Flasche', 'Kerze']","['nass', 'kratzig', 'biegsam']",1,1.8756909002549946,None,,,,,,,,,,,,,,,,,,,,,,,,,,,,,,,,,,,,,,,,,,,,,,,,,,,,,,,,,,,,,,,,,2,2023-12-12_08h36.14.010,watkins1,2023.2.3,99.71630705898762,60,2023-12-12 08h36.22.366032 +0000,
,,,,,,,3,0,3,0,,,,,,,,,,,,,,,,,85.55203710030764,,,,,,,,,,,,85.54309489997104,86.03399360040203,,,1,1.6443147999234498,,,,,,,,,,,,,,,,,,,,,86.0340052000247,92.03941920027137,Socke,blass,"['Socke', 'blass']",test_sub,2,"['Tasse', 'Lampe', 'Trommel', 'Socke', 'Kette', 'Löffel', 'Blume', 'Eimer', 'Fahrrad', 'Brille', 'Kamera', 'Ring', 'Buch', 'Schere', 'Kiste', 'Tasche', 'Stift', 'Jacke', 'Hammer', 'Telefon', 'Geige', 'Rucksack', 'Vase', 'Schlüssel', 'Bürste', 'Uhr', 'Würfel', 'Hut', 'Flasche', 'Kerze']","['nass', 'kratzig', 'biegsam', 'blass']",1,1.6443147999234498,None,,,,,,,,,,,,,,,,,,,,,,,,,,,,,,,,,,,,,,,,,,,,,,,,,,,,,,,,,,,,,,,,,2,2023-12-12_08h36.14.010,watkins1,2023.2.3,99.71630705898762,60,2023-12-12 08h36.22.366032 +0000,
,,,,,,,4,0,4,0,,,,,,,,,,,,,,,,,92.04889550013468,,,,,,,,,,,,92.03995670005679,92.53079070011154,,,1,2.0195309999398887,,,,,,,,,,,,,,,,,,,,,92.530802000314,98.53378370031714,Kette,dunkel,"['Kette', 'dunkel']",test_sub,2,"['Tasse', 'Lampe', 'Trommel', 'Socke', 'Kette', 'Löffel', 'Blume', 'Eimer', 'Fahrrad', 'Brille', 'Kamera', 'Ring', 'Buch', 'Schere', 'Kiste', 'Tasche', 'Stift', 'Jacke', 'Hammer', 'Telefon', 'Geige', 'Rucksack', 'Vase', 'Schlüssel', 'Bürste', 'Uhr', 'Würfel', 'Hut', 'Flasche', 'Kerze']","['nass', 'kratzig', 'biegsam', 'blass', 'dunkel']",1,2.0195309999398887,None,,,,,,,,,,,,,,,,,,,,,,,,,,,,,,,,,,,,,,,,,,,,,,,,,,,,,,,,,,,,,,,,,2,2023-12-12_08h36.14.010,watkins1,2023.2.3,99.71630705898762,60,2023-12-12 08h36.22.366032 +0000,
,,,,,,,5,0,5,0,,,,,,,,,,,,,,,,,98.54320760024711,,,,,,,,,,,,98.5343255000189,99.02539130020887,,,2,2.093109400011599,,,,,,,,,,,,,,,,,,,,,99.02540200017393,105.02783989999443,Löffel,kurz,"['Löffel', 'kurz']",restudy,2,"['Tasse', 'Lampe', 'Trommel', 'Socke', 'Kette', 'Löffel', 'Blume', 'Eimer', 'Fahrrad', 'Brille', 'Kamera', 'Ring', 'Buch', 'Schere', 'Kiste', 'Tasche', 'Stift', 'Jacke', 'Hammer', 'Telefon', 'Geige', 'Rucksack', 'Vase', 'Schlüssel', 'Bürste', 'Uhr', 'Würfel', 'Hut', 'Flasche', 'Kerze']","['nass', 'kratzig', 'biegsam', 'blass', 'dunkel', 'kurz']",2,2.093109400011599,None,,,,,,,,,,,,,,,,,,,,,,,,,,,,,,,,,,,,,,,,,,,,,,,,,,,,,,,,,,,,,,,,,2,2023-12-12_08h36.14.010,watkins1,2023.2.3,99.71630705898762,60,2023-12-12 08h36.22.366032 +0000,
,,,,,,,6,0,6,0,,,,,,,,,,,,,,,,,105.03730880003422,,,,,,,,,,,,105.0283746002242,105.51941890036687,,,1,1.575575000140816,,,,,,,,,,,,,,,,,,,,,105.51942969998345,111.52011599997059,Blume,elegant,"['Blume', 'elegant']",restudy,2,"['Tasse', 'Lampe', 'Trommel', 'Socke', 'Kette', 'Löffel', 'Blume', 'Eimer', 'Fahrrad', 'Brille', 'Kamera', 'Ring', 'Buch', 'Schere', 'Kiste', 'Tasche', 'Stift', 'Jacke', 'Hammer', 'Telefon', 'Geige', 'Rucksack', 'Vase', 'Schlüssel', 'Bürste', 'Uhr', 'Würfel', 'Hut', 'Flasche', 'Kerze']","['nass', 'kratzig', 'biegsam', 'blass', 'dunkel', 'kurz', 'elegant']",1,1.575575000140816,None,,,,,,,,,,,,,,,,,,,,,,,,,,,,,,,,,,,,,,,,,,,,,,,,,,,,,,,,,,,,,,,,,2,2023-12-12_08h36.14.010,watkins1,2023.2.3,99.71630705898762,60,2023-12-12 08h36.22.366032 +0000,
,,,,,,,7,0,7,0,,,,,,,,,,,,,,,,,111.52941670035943,,,,,,,,,,,,111.52063000015914,112.0115121002309,,,2,1.5873166997916996,,,,,,,,,,,,,,,,,,,,,112.0115240002051,118.01448500016704,Eimer,gepunktet,"['Eimer', 'gepunktet']",restudy,2,"['Tasse', 'Lampe', 'Trommel', 'Socke', 'Kette', 'Löffel', 'Blume', 'Eimer', 'Fahrrad', 'Brille', 'Kamera', 'Ring', 'Buch', 'Schere', 'Kiste', 'Tasche', 'Stift', 'Jacke', 'Hammer', 'Telefon', 'Geige', 'Rucksack', 'Vase', 'Schlüssel', 'Bürste', 'Uhr', 'Würfel', 'Hut', 'Flasche', 'Kerze']","['nass', 'kratzig', 'biegsam', 'blass', 'dunkel', 'kurz', 'elegant', 'gepunktet']",2,1.5873166997916996,None,,,,,,,,,,,,,,,,,,,,,,,,,,,,,,,,,,,,,,,,,,,,,,,,,,,,,,,,,,,,,,,,,2,2023-12-12_08h36.14.010,watkins1,2023.2.3,99.71630705898762,60,2023-12-12 08h36.22.366032 +0000,
,,,,,,,8,0,8,0,,,,,,,,,,,,,,,,,118.02395780012012,,,,,,,,,,,,118.01500540040433,118.50583210028708,,,2,2.6131165996193886,,,,,,,,,,,,,,,,,,,,,118.50584270013496,124.50903670024127,Fahrrad,strahlend,"['Fahrrad', 'strahlend']",restudy,2,"['Tasse', 'Lampe', 'Trommel', 'Socke', 'Kette', 'Löffel', 'Blume', 'Eimer', 'Fahrrad', 'Brille', 'Kamera', 'Ring', 'Buch', 'Schere', 'Kiste', 'Tasche', 'Stift', 'Jacke', 'Hammer', 'Telefon', 'Geige', 'Rucksack', 'Vase', 'Schlüssel', 'Bürste', 'Uhr', 'Würfel', 'Hut', 'Flasche', 'Kerze']","['nass', 'kratzig', 'biegsam', 'blass', 'dunkel', 'kurz', 'elegant', 'gepunktet', 'strahlend']",2,2.6131165996193886,None,,,,,,,,,,,,,,,,,,,,,,,,,,,,,,,,,,,,,,,,,,,,,,,,,,,,,,,,,,,,,,,,,2,2023-12-12_08h36.14.010,watkins1,2023.2.3,99.71630705898762,60,2023-12-12 08h36.22.366032 +0000,
,,,,,,,9,0,9,0,,,,,,,,,,,,,,,,,124.51847560005262,,,,,,,,,,,,124.50955990003422,125.00065890001133,,,1,2.5189065001904964,,,,,,,,,,,,,,,,,,,,,125.00066930009052,131.01064970018342,Brille,flach,"['Brille', 'flach']",test_sub,2,"['Tasse', 'Lampe', 'Trommel', 'Socke', 'Kette', 'Löffel', 'Blume', 'Eimer', 'Fahrrad', 'Brille', 'Kamera', 'Ring', 'Buch', 'Schere', 'Kiste', 'Tasche', 'Stift', 'Jacke', 'Hammer', 'Telefon', 'Geige', 'Rucksack', 'Vase', 'Schlüssel', 'Bürste', 'Uhr', 'Würfel', 'Hut', 'Flasche', 'Kerze']","['nass', 'kratzig', 'biegsam', 'blass', 'dunkel', 'kurz', 'elegant', 'gepunktet', 'strahlend', 'flach']",1,2.5189065001904964,None,,,,,,,,,,,,,,,,,,,,,,,,,,,,,,,,,,,,,,,,,,,,,,,,,,,,,,,,,,,,,,,,,2,2023-12-12_08h36.14.010,watkins1,2023.2.3,99.71630705898762,60,2023-12-12 08h36.22.366032 +0000,
,,,,,,,10,0,10,0,,,,,,,,,,,,,,,,,131.02019469998777,,,,,,,,,,,,131.01116480026394,131.50219930009916,,,2,1.7525426000356674,,,,,,,,,,,,,,,,,,,,,131.5022099004127,137.51272120000795,Kamera,groß,"['Kamera', 'groß']",test_sub,2,"['Tasse', 'Lampe', 'Trommel', 'Socke', 'Kette', 'Löffel', 'Blume', 'Eimer', 'Fahrrad', 'Brille', 'Kamera', 'Ring', 'Buch', 'Schere', 'Kiste', 'Tasche', 'Stift', 'Jacke', 'Hammer', 'Telefon', 'Geige', 'Rucksack', 'Vase', 'Schlüssel', 'Bürste', 'Uhr', 'Würfel', 'Hut', 'Flasche', 'Kerze']","['nass', 'kratzig', 'biegsam', 'blass', 'dunkel', 'kurz', 'elegant', 'gepunktet', 'strahlend', 'flach', 'groß']",2,1.7525426000356674,None,,,,,,,,,,,,,,,,,,,,,,,,,,,,,,,,,,,,,,,,,,,,,,,,,,,,,,,,,,,,,,,,,2,2023-12-12_08h36.14.010,watkins1,2023.2.3,99.71630705898762,60,2023-12-12 08h36.22.366032 +0000,
,,,,,,,11,0,11,0,,,,,,,,,,,,,,,,,137.5222280002199,,,,,,,,,,,,137.5132448002696,138.0046435003169,,,1,1.698252699803561,,,,,,,,,,,,,,,,,,,,,138.00465420028195,144.00837410008535,Ring,flauschig,"['Ring', 'flauschig']",restudy,2,"['Tasse', 'Lampe', 'Trommel', 'Socke', 'Kette', 'Löffel', 'Blume', 'Eimer', 'Fahrrad', 'Brille', 'Kamera', 'Ring', 'Buch', 'Schere', 'Kiste', 'Tasche', 'Stift', 'Jacke', 'Hammer', 'Telefon', 'Geige', 'Rucksack', 'Vase', 'Schlüssel', 'Bürste', 'Uhr', 'Würfel', 'Hut', 'Flasche', 'Kerze']","['nass', 'kratzig', 'biegsam', 'blass', 'dunkel', 'kurz', 'elegant', 'gepunktet', 'strahlend', 'flach', 'groß', 'flauschig']",1,1.698252699803561,None,,,,,,,,,,,,,,,,,,,,,,,,,,,,,,,,,,,,,,,,,,,,,,,,,,,,,,,,,,,,,,,,,2,2023-12-12_08h36.14.010,watkins1,2023.2.3,99.71630705898762,60,2023-12-12 08h36.22.366032 +0000,
,,,,,,,12,0,12,0,,,,,,,,,,,,,,,,,144.01785550033674,,,,,,,,,,,,144.00890700006858,144.49986590025946,,,3,2.1079482999630272,,,,,,,,,,,,,,,,,,,,,144.49987660022452,150.50632619997486,Buch,neu,"['Buch', 'neu']",restudy,2,"['Tasse', 'Lampe', 'Trommel', 'Socke', 'Kette', 'Löffel', 'Blume', 'Eimer', 'Fahrrad', 'Brille', 'Kamera', 'Ring', 'Buch', 'Schere', 'Kiste', 'Tasche', 'Stift', 'Jacke', 'Hammer', 'Telefon', 'Geige', 'Rucksack', 'Vase', 'Schlüssel', 'Bürste', 'Uhr', 'Würfel', 'Hut', 'Flasche', 'Kerze']","['nass', 'kratzig', 'biegsam', 'blass', 'dunkel', 'kurz', 'elegant', 'gepunktet', 'strahlend', 'flach', 'groß', 'flauschig', 'neu']",3,2.1079482999630272,None,,,,,,,,,,,,,,,,,,,,,,,,,,,,,,,,,,,,,,,,,,,,,,,,,,,,,,,,,,,,,,,,,2,2023-12-12_08h36.14.010,watkins1,2023.2.3,99.71630705898762,60,2023-12-12 08h36.22.366032 +0000,
,,,,,,,13,0,13,0,,,,,,,,,,,,,,,,,150.51573880016804,,,,,,,,,,,,150.50684530008584,150.99783210037276,,,1,1.6097093001008034,,,,,,,,,,,,,,,,,,,,,150.9978423002176,157.00716780032963,Schere,hohl,"['Schere', 'hohl']",restudy,2,"['Tasse', 'Lampe', 'Trommel', 'Socke', 'Kette', 'Löffel', 'Blume', 'Eimer', 'Fahrrad', 'Brille', 'Kamera', 'Ring', 'Buch', 'Schere', 'Kiste', 'Tasche', 'Stift', 'Jacke', 'Hammer', 'Telefon', 'Geige', 'Rucksack', 'Vase', 'Schlüssel', 'Bürste', 'Uhr', 'Würfel', 'Hut', 'Flasche', 'Kerze']","['nass', 'kratzig', 'biegsam', 'blass', 'dunkel', 'kurz', 'elegant', 'gepunktet', 'strahlend', 'flach', 'groß', 'flauschig', 'neu', 'hohl']",1,1.6097093001008034,None,,,,,,,,,,,,,,,,,,,,,,,,,,,,,,,,,,,,,,,,,,,,,,,,,,,,,,,,,,,,,,,,,2,2023-12-12_08h36.14.010,watkins1,2023.2.3,99.71630705898762,60,2023-12-12 08h36.22.366032 +0000,
,,,,,,,14,0,14,0,,,,,,,,,,,,,,,,,157.01658070040867,,,,,,,,,,,,157.0076997000724,157.49860490020365,,,2,1.9332553995773196,,,,,,,,,,,,,,,,,,,,,157.4986149002798,163.5088341999799,Kiste,bunt,"['Kiste', 'bunt']",restudy,2,"['Tasse', 'Lampe', 'Trommel', 'Socke', 'Kette', 'Löffel', 'Blume', 'Eimer', 'Fahrrad', 'Brille', 'Kamera', 'Ring', 'Buch', 'Schere', 'Kiste', 'Tasche', 'Stift', 'Jacke', 'Hammer', 'Telefon', 'Geige', 'Rucksack', 'Vase', 'Schlüssel', 'Bürste', 'Uhr', 'Würfel', 'Hut', 'Flasche', 'Kerze']","['nass', 'kratzig', 'biegsam', 'blass', 'dunkel', 'kurz', 'elegant', 'gepunktet', 'strahlend', 'flach', 'groß', 'flauschig', 'neu', 'hohl', 'bunt']",2,1.9332553995773196,None,,,,,,,,,,,,,,,,,,,,,,,,,,,,,,,,,,,,,,,,,,,,,,,,,,,,,,,,,,,,,,,,,2,2023-12-12_08h36.14.010,watkins1,2023.2.3,99.71630705898762,60,2023-12-12 08h36.22.366032 +0000,
,,,,,,,15,0,15,0,,,,,,,,,,,,,,,,,163.51825640024617,,,,,,,,,,,,163.50935680000111,164.0004371004179,,,2,1.7432862003333867,,,,,,,,,,,,,,,,,,,,,164.0004477002658,170.00956180039793,Tasche,dick,"['Tasche', 'dick']",restudy,2,"['Tasse', 'Lampe', 'Trommel', 'Socke', 'Kette', 'Löffel', 'Blume', 'Eimer', 'Fahrrad', 'Brille', 'Kamera', 'Ring', 'Buch', 'Schere', 'Kiste', 'Tasche', 'Stift', 'Jacke', 'Hammer', 'Telefon', 'Geige', 'Rucksack', 'Vase', 'Schlüssel', 'Bürste', 'Uhr', 'Würfel', 'Hut', 'Flasche', 'Kerze']","['nass', 'kratzig', 'biegsam', 'blass', 'dunkel', 'kurz', 'elegant', 'gepunktet', 'strahlend', 'flach', 'groß', 'flauschig', 'neu', 'hohl', 'bunt', 'dick']",2,1.7432862003333867,None,,,,,,,,,,,,,,,,,,,,,,,,,,,,,,,,,,,,,,,,,,,,,,,,,,,,,,,,,,,,,,,,,2,2023-12-12_08h36.14.010,watkins1,2023.2.3,99.71630705898762,60,2023-12-12 08h36.22.366032 +0000,
,,,,,,,16,0,16,0,,,,,,,,,,,,,,,,,170.01903370022774,,,,,,,,,,,,170.01007840037346,170.50098210014403,,,1,1.594769200310111,,,,,,,,,,,,,,,,,,,,,170.50099300034344,176.5084693999961,Stift,kalt,"['Stift', 'kalt']",test_sub,2,"['Tasse', 'Lampe', 'Trommel', 'Socke', 'Kette', 'Löffel', 'Blume', 'Eimer', 'Fahrrad', 'Brille', 'Kamera', 'Ring', 'Buch', 'Schere', 'Kiste', 'Tasche', 'Stift', 'Jacke', 'Hammer', 'Telefon', 'Geige', 'Rucksack', 'Vase', 'Schlüssel', 'Bürste', 'Uhr', 'Würfel', 'Hut', 'Flasche', 'Kerze']","['nass', 'kratzig', 'biegsam', 'blass', 'dunkel', 'kurz', 'elegant', 'gepunktet', 'strahlend', 'flach', 'groß', 'flauschig', 'neu', 'hohl', 'bunt', 'dick', 'kalt']",1,1.594769200310111,None,,,,,,,,,,,,,,,,,,,,,,,,,,,,,,,,,,,,,,,,,,,,,,,,,,,,,,,,,,,,,,,,,2,2023-12-12_08h36.14.010,watkins1,2023.2.3,99.71630705898762,60,2023-12-12 08h36.22.366032 +0000,
,,,,,,,17,0,17,0,,,,,,,,,,,,,,,,,176.51795420004055,,,,,,,,,,,,176.5089911003597,177.00002190005034,,,1,1.3743024002760649,,,,,,,,,,,,,,,,,,,,,177.00003200024366,183.00697190035135,Jacke,krumm,"['Jacke', 'krumm']",test_sub,2,"['Tasse', 'Lampe', 'Trommel', 'Socke', 'Kette', 'Löffel', 'Blume', 'Eimer', 'Fahrrad', 'Brille', 'Kamera', 'Ring', 'Buch', 'Schere', 'Kiste', 'Tasche', 'Stift', 'Jacke', 'Hammer', 'Telefon', 'Geige', 'Rucksack', 'Vase', 'Schlüssel', 'Bürste', 'Uhr', 'Würfel', 'Hut', 'Flasche', 'Kerze']","['nass', 'kratzig', 'biegsam', 'blass', 'dunkel', 'kurz', 'elegant', 'gepunktet', 'strahlend', 'flach', 'groß', 'flauschig', 'neu', 'hohl', 'bunt', 'dick', 'kalt', 'krumm']",1,1.3743024002760649,None,,,,,,,,,,,,,,,,,,,,,,,,,,,,,,,,,,,,,,,,,,,,,,,,,,,,,,,,,,,,,,,,,2,2023-12-12_08h36.14.010,watkins1,2023.2.3,99.71630705898762,60,2023-12-12 08h36.22.366032 +0000,
,,,,,,,18,0,18,0,,,,,,,,,,,,,,,,,183.0163604002446,,,,,,,,,,,,183.0075009004213,183.4984006001614,,,1,2.117103200405836,,,,,,,,,,,,,,,,,,,,,183.49841140024364,189.50663310009986,Hammer,nachhaltig,"['Hammer', 'nachhaltig']",restudy,2,"['Tasse', 'Lampe', 'Trommel', 'Socke', 'Kette', 'Löffel', 'Blume', 'Eimer', 'Fahrrad', 'Brille', 'Kamera', 'Ring', 'Buch', 'Schere', 'Kiste', 'Tasche', 'Stift', 'Jacke', 'Hammer', 'Telefon', 'Geige', 'Rucksack', 'Vase', 'Schlüssel', 'Bürste', 'Uhr', 'Würfel', 'Hut', 'Flasche', 'Kerze']","['nass', 'kratzig', 'biegsam', 'blass', 'dunkel', 'kurz', 'elegant', 'gepunktet', 'strahlend', 'flach', 'groß', 'flauschig', 'neu', 'hohl', 'bunt', 'dick', 'kalt', 'krumm', 'nachhaltig']",1,2.117103200405836,None,,,,,,,,,,,,,,,,,,,,,,,,,,,,,,,,,,,,,,,,,,,,,,,,,,,,,,,,,,,,,,,,,2,2023-12-12_08h36.14.010,watkins1,2023.2.3,99.71630705898762,60,2023-12-12 08h36.22.366032 +0000,
,,,,,,,19,0,19,0,,,,,,,,,,,,,,,,,189.51619900017977,,,,,,,,,,,,189.5071554002352,189.9982293001376,,,2,2.056703899987042,,,,,,,,,,,,,,,,,,,,,189.99823940033093,195.99957460025325,Telefon,winzig,"['Telefon', 'winzig']",test_sub,2,"['Tasse', 'Lampe', 'Trommel', 'Socke', 'Kette', 'Löffel', 'Blume', 'Eimer', 'Fahrrad', 'Brille', 'Kamera', 'Ring', 'Buch', 'Schere', 'Kiste', 'Tasche', 'Stift', 'Jacke', 'Hammer', 'Telefon', 'Geige', 'Rucksack', 'Vase', 'Schlüssel', 'Bürste', 'Uhr', 'Würfel', 'Hut', 'Flasche', 'Kerze']","['nass', 'kratzig', 'biegsam', 'blass', 'dunkel', 'kurz', 'elegant', 'gepunktet', 'strahlend', 'flach', 'groß', 'flauschig', 'neu', 'hohl', 'bunt', 'dick', 'kalt', 'krumm', 'nachhaltig', 'winzig']",2,2.056703899987042,None,,,,,,,,,,,,,,,,,,,,,,,,,,,,,,,,,,,,,,,,,,,,,,,,,,,,,,,,,,,,,,,,,2,2023-12-12_08h36.14.010,watkins1,2023.2.3,99.71630705898762,60,2023-12-12 08h36.22.366032 +0000,
,,,,,,,20,0,20,0,,,,,,,,,,,,,,,,,196.00905170012265,,,,,,,,,,,,196.00011640042067,196.4913881001994,,,1,1.6751862997189164,,,,,,,,,,,,,,,,,,,,,196.49139910005033,202.49393590027466,Geige,schmutzig,"['Geige', 'schmutzig']",test_sub,2,"['Tasse', 'Lampe', 'Trommel', 'Socke', 'Kette', 'Löffel', 'Blume', 'Eimer', 'Fahrrad', 'Brille', 'Kamera', 'Ring', 'Buch', 'Schere', 'Kiste', 'Tasche', 'Stift', 'Jacke', 'Hammer', 'Telefon', 'Geige', 'Rucksack', 'Vase', 'Schlüssel', 'Bürste', 'Uhr', 'Würfel', 'Hut', 'Flasche', 'Kerze']","['nass', 'kratzig', 'biegsam', 'blass', 'dunkel', 'kurz', 'elegant', 'gepunktet', 'strahlend', 'flach', 'groß', 'flauschig', 'neu', 'hohl', 'bunt', 'dick', 'kalt', 'krumm', 'nachhaltig', 'winzig', 'schmutzig']",1,1.6751862997189164,None,,,,,,,,,,,,,,,,,,,,,,,,,,,,,,,,,,,,,,,,,,,,,,,,,,,,,,,,,,,,,,,,,2,2023-12-12_08h36.14.010,watkins1,2023.2.3,99.71630705898762,60,2023-12-12 08h36.22.366032 +0000,
,,,,,,,21,0,21,0,,,,,,,,,,,,,,,,,202.5034800004214,,,,,,,,,,,,202.49446980003268,202.98567490000278,,,2,1.6057473998516798,,,,,,,,,,,,,,,,,,,,,202.9856856004335,208.99330440023914,Rucksack,gestreift,"['Rucksack', 'gestreift']",test_sub,2,"['Tasse', 'Lampe', 'Trommel', 'Socke', 'Kette', 'Löffel', 'Blume', 'Eimer', 'Fahrrad', 'Brille', 'Kamera', 'Ring', 'Buch', 'Schere', 'Kiste', 'Tasche', 'Stift', 'Jacke', 'Hammer', 'Telefon', 'Geige', 'Rucksack', 'Vase', 'Schlüssel', 'Bürste', 'Uhr', 'Würfel', 'Hut', 'Flasche', 'Kerze']","['nass', 'kratzig', 'biegsam', 'blass', 'dunkel', 'kurz', 'elegant', 'gepunktet', 'strahlend', 'flach', 'groß', 'flauschig', 'neu', 'hohl', 'bunt', 'dick', 'kalt', 'krumm', 'nachhaltig', 'winzig', 'schmutzig', 'gestreift']",2,1.6057473998516798,None,,,,,,,,,,,,,,,,,,,,,,,,,,,,,,,,,,,,,,,,,,,,,,,,,,,,,,,,,,,,,,,,,2,2023-12-12_08h36.14.010,watkins1,2023.2.3,99.71630705898762,60,2023-12-12 08h36.22.366032 +0000,
,,,,,,,22,0,22,0,,,,,,,,,,,,,,,,,209.0027897004038,,,,,,,,,,,,208.99382260022685,209.4847709001042,,,3,1.3455016002990305,,,,,,,,,,,,,,,,,,,,,209.48478140030056,215.48914440022781,Vase,hübsch,"['Vase', 'hübsch']",restudy,2,"['Tasse', 'Lampe', 'Trommel', 'Socke', 'Kette', 'Löffel', 'Blume', 'Eimer', 'Fahrrad', 'Brille', 'Kamera', 'Ring', 'Buch', 'Schere', 'Kiste', 'Tasche', 'Stift', 'Jacke', 'Hammer', 'Telefon', 'Geige', 'Rucksack', 'Vase', 'Schlüssel', 'Bürste', 'Uhr', 'Würfel', 'Hut', 'Flasche', 'Kerze']","['nass', 'kratzig', 'biegsam', 'blass', 'dunkel', 'kurz', 'elegant', 'gepunktet', 'strahlend', 'flach', 'groß', 'flauschig', 'neu', 'hohl', 'bunt', 'dick', 'kalt', 'krumm', 'nachhaltig', 'winzig', 'schmutzig', 'gestreift', 'hübsch']",3,1.3455016002990305,None,,,,,,,,,,,,,,,,,,,,,,,,,,,,,,,,,,,,,,,,,,,,,,,,,,,,,,,,,,,,,,,,,2,2023-12-12_08h36.14.010,watkins1,2023.2.3,99.71630705898762,60,2023-12-12 08h36.22.366032 +0000,
,,,,,,,23,0,23,0,,,,,,,,,,,,,,,,,215.49868040019646,,,,,,,,,,,,215.48967050015926,215.98086010012776,,,2,2.4745831000618637,,,,,,,,,,,,,,,,,,,,,215.98087080009282,221.98206870025024,Schlüssel,klobig,"['Schlüssel', 'klobig']",test_sub,2,"['Tasse', 'Lampe', 'Trommel', 'Socke', 'Kette', 'Löffel', 'Blume', 'Eimer', 'Fahrrad', 'Brille', 'Kamera', 'Ring', 'Buch', 'Schere', 'Kiste', 'Tasche', 'Stift', 'Jacke', 'Hammer', 'Telefon', 'Geige', 'Rucksack', 'Vase', 'Schlüssel', 'Bürste', 'Uhr', 'Würfel', 'Hut', 'Flasche', 'Kerze']","['nass', 'kratzig', 'biegsam', 'blass', 'dunkel', 'kurz', 'elegant', 'gepunktet', 'strahlend', 'flach', 'groß', 'flauschig', 'neu', 'hohl', 'bunt', 'dick', 'kalt', 'krumm', 'nachhaltig', 'winzig', 'schmutzig', 'gestreift', 'hübsch', 'klobig']",2,2.4745831000618637,None,,,,,,,,,,,,,,,,,,,,,,,,,,,,,,,,,,,,,,,,,,,,,,,,,,,,,,,,,,,,,,,,,2,2023-12-12_08h36.14.010,watkins1,2023.2.3,99.71630705898762,60,2023-12-12 08h36.22.366032 +0000,
,,,,,,,24,0,24,0,,,,,,,,,,,,,,,,,221.99154190020636,,,,,,,,,,,,221.98260610038415,222.47354899998754,,,1,1.8613099004141986,,,,,,,,,,,,,,,,,,,,,222.4735595001839,228.4839916001074,Bürste,verspielt,"['Bürste', 'verspielt']",test_sub,2,"['Tasse', 'Lampe', 'Trommel', 'Socke', 'Kette', 'Löffel', 'Blume', 'Eimer', 'Fahrrad', 'Brille', 'Kamera', 'Ring', 'Buch', 'Schere', 'Kiste', 'Tasche', 'Stift', 'Jacke', 'Hammer', 'Telefon', 'Geige', 'Rucksack', 'Vase', 'Schlüssel', 'Bürste', 'Uhr', 'Würfel', 'Hut', 'Flasche', 'Kerze']","['nass', 'kratzig', 'biegsam', 'blass', 'dunkel', 'kurz', 'elegant', 'gepunktet', 'strahlend', 'flach', 'groß', 'flauschig', 'neu', 'hohl', 'bunt', 'dick', 'kalt', 'krumm', 'nachhaltig', 'winzig', 'schmutzig', 'gestreift', 'hübsch', 'klobig', 'verspielt']",1,1.8613099004141986,None,,,,,,,,,,,,,,,,,,,,,,,,,,,,,,,,,,,,,,,,,,,,,,,,,,,,,,,,,,,,,,,,,2,2023-12-12_08h36.14.010,watkins1,2023.2.3,99.71630705898762,60,2023-12-12 08h36.22.366032 +0000,
,,,,,,,25,0,25,0,,,,,,,,,,,,,,,,,228.4934509000741,,,,,,,,,,,,228.48451410001144,228.97555340034887,,,1,1.7431882000528276,,,,,,,,,,,,,,,,,,,,,228.97556430008262,234.9798432001844,Uhr,durchsichtig,"['Uhr', 'durchsichtig']",test_sub,2,"['Tasse', 'Lampe', 'Trommel', 'Socke', 'Kette', 'Löffel', 'Blume', 'Eimer', 'Fahrrad', 'Brille', 'Kamera', 'Ring', 'Buch', 'Schere', 'Kiste', 'Tasche', 'Stift', 'Jacke', 'Hammer', 'Telefon', 'Geige', 'Rucksack', 'Vase', 'Schlüssel', 'Bürste', 'Uhr', 'Würfel', 'Hut', 'Flasche', 'Kerze']","['nass', 'kratzig', 'biegsam', 'blass', 'dunkel', 'kurz', 'elegant', 'gepunktet', 'strahlend', 'flach', 'groß', 'flauschig', 'neu', 'hohl', 'bunt', 'dick', 'kalt', 'krumm', 'nachhaltig', 'winzig', 'schmutzig', 'gestreift', 'hübsch', 'klobig', 'verspielt', 'durchsichtig']",1,1.7431882000528276,None,,,,,,,,,,,,,,,,,,,,,,,,,,,,,,,,,,,,,,,,,,,,,,,,,,,,,,,,,,,,,,,,,2,2023-12-12_08h36.14.010,watkins1,2023.2.3,99.71630705898762,60,2023-12-12 08h36.22.366032 +0000,
,,,,,,,26,0,26,0,,,,,,,,,,,,,,,,,234.98942350037396,,,,,,,,,,,,234.9803651003167,235.47137780021876,,,1,1.5506266001611948,,,,,,,,,,,,,,,,,,,,,235.47138890018687,241.47579480009153,Würfel,hässlich,"['Würfel', 'hässlich']",test_sub,2,"['Tasse', 'Lampe', 'Trommel', 'Socke', 'Kette', 'Löffel', 'Blume', 'Eimer', 'Fahrrad', 'Brille', 'Kamera', 'Ring', 'Buch', 'Schere', 'Kiste', 'Tasche', 'Stift', 'Jacke', 'Hammer', 'Telefon', 'Geige', 'Rucksack', 'Vase', 'Schlüssel', 'Bürste', 'Uhr', 'Würfel', 'Hut', 'Flasche', 'Kerze']","['nass', 'kratzig', 'biegsam', 'blass', 'dunkel', 'kurz', 'elegant', 'gepunktet', 'strahlend', 'flach', 'groß', 'flauschig', 'neu', 'hohl', 'bunt', 'dick', 'kalt', 'krumm', 'nachhaltig', 'winzig', 'schmutzig', 'gestreift', 'hübsch', 'klobig', 'verspielt', 'durchsichtig', 'hässlich']",1,1.5506266001611948,None,,,,,,,,,,,,,,,,,,,,,,,,,,,,,,,,,,,,,,,,,,,,,,,,,,,,,,,,,,,,,,,,,2,2023-12-12_08h36.14.010,watkins1,2023.2.3,99.71630705898762,60,2023-12-12 08h36.22.366032 +0000,
,,,,,,,27,0,27,0,,,,,,,,,,,,,,,,,241.4852423002012,,,,,,,,,,,,241.4763253000565,241.96713990019634,,,1,1.3602563003078103,,,,,,,,,,,,,,,,,,,,,241.96715050004423,247.970310700126,Hut,glatt,"['Hut', 'glatt']",test_sub,2,"['Tasse', 'Lampe', 'Trommel', 'Socke', 'Kette', 'Löffel', 'Blume', 'Eimer', 'Fahrrad', 'Brille', 'Kamera', 'Ring', 'Buch', 'Schere', 'Kiste', 'Tasche', 'Stift', 'Jacke', 'Hammer', 'Telefon', 'Geige', 'Rucksack', 'Vase', 'Schlüssel', 'Bürste', 'Uhr', 'Würfel', 'Hut', 'Flasche', 'Kerze']","['nass', 'kratzig', 'biegsam', 'blass', 'dunkel', 'kurz', 'elegant', 'gepunktet', 'strahlend', 'flach', 'groß', 'flauschig', 'neu', 'hohl', 'bunt', 'dick', 'kalt', 'krumm', 'nachhaltig', 'winzig', 'schmutzig', 'gestreift', 'hübsch', 'klobig', 'verspielt', 'durchsichtig', 'hässlich', 'glatt']",1,1.3602563003078103,None,,,,,,,,,,,,,,,,,,,,,,,,,,,,,,,,,,,,,,,,,,,,,,,,,,,,,,,,,,,,,,,,,2,2023-12-12_08h36.14.010,watkins1,2023.2.3,99.71630705898762,60,2023-12-12 08h36.22.366032 +0000,
,,,,,,,28,0,28,0,,,,,,,,,,,,,,,,,247.97978230006993,,,,,,,,,,,,247.9708370002918,248.46173120010644,,,1,2.9618239998817444,,,,,,,,,,,,,,,,,,,,,248.46174230007455,254.4630861002952,Flasche,zart,"['Flasche', 'zart']",restudy,2,"['Tasse', 'Lampe', 'Trommel', 'Socke', 'Kette', 'Löffel', 'Blume', 'Eimer', 'Fahrrad', 'Brille', 'Kamera', 'Ring', 'Buch', 'Schere', 'Kiste', 'Tasche', 'Stift', 'Jacke', 'Hammer', 'Telefon', 'Geige', 'Rucksack', 'Vase', 'Schlüssel', 'Bürste', 'Uhr', 'Würfel', 'Hut', 'Flasche', 'Kerze']","['nass', 'kratzig', 'biegsam', 'blass', 'dunkel', 'kurz', 'elegant', 'gepunktet', 'strahlend', 'flach', 'groß', 'flauschig', 'neu', 'hohl', 'bunt', 'dick', 'kalt', 'krumm', 'nachhaltig', 'winzig', 'schmutzig', 'gestreift', 'hübsch', 'klobig', 'verspielt', 'durchsichtig', 'hässlich', 'glatt', 'zart']",1,2.9618239998817444,None,,,,,,,,,,,,,,,,,,,,,,,,,,,,,,,,,,,,,,,,,,,,,,,,,,,,,,,,,,,,,,,,,2,2023-12-12_08h36.14.010,watkins1,2023.2.3,99.71630705898762,60,2023-12-12 08h36.22.366032 +0000,
,,,,,,,29,0,29,0,,,,,,,,,,,,,,,,,254.47255090018734,,,,,,,,,,,,254.4636177001521,254.95457709999755,,,2,1.4683750998228788,,,,,,,,,,,,,,,,,,,,,254.95458820043132,260.9635167000815,Kerze,robust,"['Kerze', 'robust']",test_sub,2,"['Tasse', 'Lampe', 'Trommel', 'Socke', 'Kette', 'Löffel', 'Blume', 'Eimer', 'Fahrrad', 'Brille', 'Kamera', 'Ring', 'Buch', 'Schere', 'Kiste', 'Tasche', 'Stift', 'Jacke', 'Hammer', 'Telefon', 'Geige', 'Rucksack', 'Vase', 'Schlüssel', 'Bürste', 'Uhr', 'Würfel', 'Hut', 'Flasche', 'Kerze']","['nass', 'kratzig', 'biegsam', 'blass', 'dunkel', 'kurz', 'elegant', 'gepunktet', 'strahlend', 'flach', 'groß', 'flauschig', 'neu', 'hohl', 'bunt', 'dick', 'kalt', 'krumm', 'nachhaltig', 'winzig', 'schmutzig', 'gestreift', 'hübsch', 'klobig', 'verspielt', 'durchsichtig', 'hässlich', 'glatt', 'zart', 'robust']",2,1.4683750998228788,None,,,,,,,,,,,,,,,,,,,,,,,,,,,,,,,,,,,,,,,,,,,,,,,,,,,,,,,,,,,,,,,,,2,2023-12-12_08h36.14.010,watkins1,2023.2.3,99.71630705898762,60,2023-12-12 08h36.22.366032 +0000,
,,,,,,,,,,,0,0,0,0,,,,,,,,,,,,,260.9729236001149,,,,,,,,,,,,260.9643685002811,261.45496550016105,,,[],[],,,,,,,,,,,,4.861647699959576,None,,,,,Hund,,,,,Stift,kalt,"['Stift', 'kalt']",test_sub,2,,,,,,260.96429210016504,260.9643407003023,"['Stift', 'Schlüssel', 'Brille', 'Eimer', 'Kerze', 'Geige', 'Kiste', 'Hammer', 'Rucksack', 'Kette', 'Würfel', 'Bürste', 'Telefon', 'Fahrrad', 'Jacke', 'Uhr', 'Tasche', 'Tasse', 'Flasche', 'Schere', 'Lampe', 'Löffel', 'Hut', 'Buch', 'Trommel', 'Kamera', 'Vase', 'Ring', 'Socke', 'Blume']",261.45497640036047,261.4576942999847,None,261.45787800010294,261.460479200352,None,261.46063990006223,261.4632959002629,None,261.4634540001862,261.4646563003771,261.46466930024326,0,267.4713167999871,,,,,,,,,,,,,,,,,,,,,,,,,,,,,,,,,,,,,,,,,,,,,,,,2,2023-12-12_08h36.14.010,watkins1,2023.2.3,99.71630705898762,60,2023-12-12 08h36.22.366032 +0000,
,,,,,,,,,,,1,0,1,0,,,,,,,,,,,,,267.4811190003529,,,,,,,,,,,,267.4716044003144,267.9630869003013,,,[],[],,,,,,,,,,,,2.1199949998408556,None,,,,,Uhr,,,,,Schlüssel,klobig,"['Schlüssel', 'klobig']",test_sub,2,,,,,,267.471537000034,267.4715749002062,"['Stift', 'Schlüssel', 'Brille', 'Eimer', 'Kerze', 'Geige', 'Kiste', 'Hammer', 'Rucksack', 'Kette', 'Würfel', 'Bürste', 'Telefon', 'Fahrrad', 'Jacke', 'Uhr', 'Tasche', 'Tasse', 'Flasche', 'Schere', 'Lampe', 'Löffel', 'Hut', 'Buch', 'Trommel', 'Kamera', 'Vase', 'Ring', 'Socke', 'Blume']",267.9630972002633,267.9657658999786,None,267.9658870003186,267.9683865001425,None,267.96849450003356,267.9709721002728,None,267.9710797001608,267.9723386000842,267.97235120041296,0,273.9790655001998,,,,,,,,,,,,,,,,,,,,,,,,,,,,,,,,,,,,,,,,,,,,,,,,2,2023-12-12_08h36.14.010,watkins1,2023.2.3,99.71630705898762,60,2023-12-12 08h36.22.366032 +0000,
,,,,,,,,,,,2,0,2,0,,,,,,,,,,,,,273.98882140032947,,,,,,,,,,,,273.9793573003262,274.4710025000386,,,[],[],,,,,,,,,,,,1.5276946001686156,None,,,,,Hut,,,,,Brille,flach,"['Brille', 'flach']",test_sub,2,,,,,,273.97928990004584,273.97932850010693,"['Stift', 'Schlüssel', 'Brille', 'Eimer', 'Kerze', 'Geige', 'Kiste', 'Hammer', 'Rucksack', 'Kette', 'Würfel', 'Bürste', 'Telefon', 'Fahrrad', 'Jacke', 'Uhr', 'Tasche', 'Tasse', 'Flasche', 'Schere', 'Lampe', 'Löffel', 'Hut', 'Buch', 'Trommel', 'Kamera', 'Vase', 'Ring', 'Socke', 'Blume']",274.4710141001269,274.47375550027937,None,274.4738845000975,274.47644120035693,None,274.47655180003494,274.4791262000799,None,274.4792353003286,274.48043300025165,274.48044570023194,0,280.48665880039334,,,,,,,,,,,,,,,,,,,,,,,,,,,,,,,,,,,,,,,,,,,,,,,,2,2023-12-12_08h36.14.010,watkins1,2023.2.3,99.71630705898762,60,2023-12-12 08h36.22.366032 +0000,
,,,,,,,,,,,3,0,3,0,,,,,,,,,,,,,280.49656810006127,,,,,,,,,,,,280.4869521004148,280.97868850035593,,,[],[],,,,,,,,,,,,None,None,,,,,,,,,,Eimer,gepunktet,"['Eimer', 'gepunktet']",restudy,2,,,,,,280.4868839001283,280.48692290019244,"['Stift', 'Schlüssel', 'Brille', 'Eimer', 'Kerze', 'Geige', 'Kiste', 'Hammer', 'Rucksack', 'Kette', 'Würfel', 'Bürste', 'Telefon', 'Fahrrad', 'Jacke', 'Uhr', 'Tasche', 'Tasse', 'Flasche', 'Schere', 'Lampe', 'Löffel', 'Hut', 'Buch', 'Trommel', 'Kamera', 'Vase', 'Ring', 'Socke', 'Blume']",280.97869900008664,280.98142069997266,None,280.98154370021075,286.9851118000224,2,286.9855031003244,286.9882658002898,None,286.9883817001246,286.9896712000482,286.98968300037086,,286.9912315001711,3.5770796998403966,None,,,,,,,,,,,,,,,,,,,,,,,,,,,,,,,,,,,,,,,,,,,,,,2,2023-12-12_08h36.14.010,watkins1,2023.2.3,99.71630705898762,60,2023-12-12 08h36.22.366032 +0000,
,,,,,,,,,,,4,0,4,0,,,,,,,,,,,,,286.99458380043507,,,,,,,,,,,,286.9915180001408,287.48661370016634,,,[],[],,,,,,,,,,,,3.26226340001449,None,,,,,Uhr,,,,,Kerze,robust,"['Kerze', 'robust']",test_sub,2,,,,,,286.99145160010085,286.99149080039933,"['Stift', 'Schlüssel', 'Brille', 'Eimer', 'Kerze', 'Geige', 'Kiste', 'Hammer', 'Rucksack', 'Kette', 'Würfel', 'Bürste', 'Telefon', 'Fahrrad', 'Jacke', 'Uhr', 'Tasche', 'Tasse', 'Flasche', 'Schere', 'Lampe', 'Löffel', 'Hut', 'Buch', 'Trommel', 'Kamera', 'Vase', 'Ring', 'Socke', 'Blume']",287.4866251000203,287.489433800336,None,287.4895596001297,287.49099850002676,None,287.4911095001735,287.4925477001816,None,287.4926560004242,287.49382770014927,287.49384050024673,0,293.4976926003583,,,,,,,,,,,,,,,,,,,,,,,,,,,,,,,,,,,,,,,,,,,,,,,,2,2023-12-12_08h36.14.010,watkins1,2023.2.3,99.71630705898762,60,2023-12-12 08h36.22.366032 +0000,
,,,,,,,,,,,5,0,5,0,,,,,,,,,,,,,293.5074395001866,,,,,,,,,,,,293.49798270035535,293.98951710015535,,,[],[],,,,,,,,,,,,2.6317765996791422,None,,,,,Tasse,,,,,Geige,schmutzig,"['Geige', 'schmutzig']",test_sub,2,,,,,,293.49791250005364,293.4979528002441,"['Stift', 'Schlüssel', 'Brille', 'Eimer', 'Kerze', 'Geige', 'Kiste', 'Hammer', 'Rucksack', 'Kette', 'Würfel', 'Bürste', 'Telefon', 'Fahrrad', 'Jacke', 'Uhr', 'Tasche', 'Tasse', 'Flasche', 'Schere', 'Lampe', 'Löffel', 'Hut', 'Buch', 'Trommel', 'Kamera', 'Vase', 'Ring', 'Socke', 'Blume']",293.9895281000063,293.992216499988,None,293.9923386001028,293.9948513000272,None,293.9949593003839,293.9974685003981,None,293.9975769002922,293.99873010022566,293.99874280020595,0,300.0048060002737,,,,,,,,,,,,,,,,,,,,,,,,,,,,,,,,,,,,,,,,,,,,,,,,2,2023-12-12_08h36.14.010,watkins1,2023.2.3,99.71630705898762,60,2023-12-12 08h36.22.366032 +0000,
,,,,,,,,,,,6,0,6,0,,,,,,,,,,,,,300.0145733002573,,,,,,,,,,,,300.00510299997404,300.49649420008063,,,[],[],,,,,,,,,,,,None,None,,,,,,,,,,Kiste,bunt,"['Kiste', 'bunt']",restudy,2,,,,,,300.00502949999645,300.0050713000819,"['Stift', 'Schlüssel', 'Brille', 'Eimer', 'Kerze', 'Geige', 'Kiste', 'Hammer', 'Rucksack', 'Kette', 'Würfel', 'Bürste', 'Telefon', 'Fahrrad', 'Jacke', 'Uhr', 'Tasche', 'Tasse', 'Flasche', 'Schere', 'Lampe', 'Löffel', 'Hut', 'Buch', 'Trommel', 'Kamera', 'Vase', 'Ring', 'Socke', 'Blume']",300.496506200172,300.49930250039324,None,300.49943390022963,306.5043527004309,1,306.50464679999277,306.50719670020044,None,306.50730920024216,306.508472900372,306.5084848999977,,306.5098537001759,3.308250700123608,None,,,,,,,,,,,,,,,,,,,,,,,,,,,,,,,,,,,,,,,,,,,,,,2,2023-12-12_08h36.14.010,watkins1,2023.2.3,99.71630705898762,60,2023-12-12 08h36.22.366032 +0000,
,,,,,,,,,,,7,0,7,0,,,,,,,,,,,,,306.513819700107,,,,,,,,,,,,306.5101429000497,307.0060313004069,,,[],[],,,,,,,,,,,,None,None,,,,,,,,,,Hammer,nachhaltig,"['Hammer', 'nachhaltig']",restudy,2,,,,,,306.51007060008124,306.51011490030214,"['Stift', 'Schlüssel', 'Brille', 'Eimer', 'Kerze', 'Geige', 'Kiste', 'Hammer', 'Rucksack', 'Kette', 'Würfel', 'Bürste', 'Telefon', 'Fahrrad', 'Jacke', 'Uhr', 'Tasche', 'Tasse', 'Flasche', 'Schere', 'Lampe', 'Löffel', 'Hut', 'Buch', 'Trommel', 'Kamera', 'Vase', 'Ring', 'Socke', 'Blume']",307.0060421000235,307.0085959001444,None,307.00871740002185,313.0115968002938,1,313.0118904002011,313.0147627000697,None,313.01487790001556,313.0160810002126,313.01609320007265,,313.0173604004085,1.6467865998856723,None,,,,,,,,,,,,,,,,,,,,,,,,,,,,,,,,,,,,,,,,,,,,,,2,2023-12-12_08h36.14.010,watkins1,2023.2.3,99.71630705898762,60,2023-12-12 08h36.22.366032 +0000,
,,,,,,,,,,,8,0,8,0,,,,,,,,,,,,,313.02114690002054,,,,,,,,,,,,313.01764330035076,313.51318000024185,,,[],[],,,,,,,,,,,,5.291027799714357,None,,,,,Ie,,,,,Rucksack,gestreift,"['Rucksack', 'gestreift']",test_sub,2,,,,,,313.01757600018755,313.0176156000234,"['Stift', 'Schlüssel', 'Brille', 'Eimer', 'Kerze', 'Geige', 'Kiste', 'Hammer', 'Rucksack', 'Kette', 'Würfel', 'Bürste', 'Telefon', 'Fahrrad', 'Jacke', 'Uhr', 'Tasche', 'Tasse', 'Flasche', 'Schere', 'Lampe', 'Löffel', 'Hut', 'Buch', 'Trommel', 'Kamera', 'Vase', 'Ring', 'Socke', 'Blume']",313.5131916999817,313.5160778001882,None,313.5162038002163,313.51771550020203,None,313.51782490033656,313.51931760041043,None,313.51942570041865,313.5206609000452,313.5206734002568,0,319.52478149998933,,,,,,,,,,,,,,,,,,,,,,,,,,,,,,,,,,,,,,,,,,,,,,,,2,2023-12-12_08h36.14.010,watkins1,2023.2.3,99.71630705898762,60,2023-12-12 08h36.22.366032 +0000,
,,,,,,,,,,,9,0,9,0,,,,,,,,,,,,,319.5346833001822,,,,,,,,,,,,319.52506220014766,320.0168067002669,,,[],[],,,,,,,,,,,,1.427371600177139,None,,,,,Kette,,,,,Kette,dunkel,"['Kette', 'dunkel']",test_sub,2,,,,,,319.5249958001077,319.525033000391,"['Stift', 'Schlüssel', 'Brille', 'Eimer', 'Kerze', 'Geige', 'Kiste', 'Hammer', 'Rucksack', 'Kette', 'Würfel', 'Bürste', 'Telefon', 'Fahrrad', 'Jacke', 'Uhr', 'Tasche', 'Tasse', 'Flasche', 'Schere', 'Lampe', 'Löffel', 'Hut', 'Buch', 'Trommel', 'Kamera', 'Vase', 'Ring', 'Socke', 'Blume']",320.01681740023196,320.0195730002597,None,320.01969490014017,320.02228100039065,None,320.0223925001919,320.0249889004044,None,320.02509720018134,320.02630930021405,320.02632250031456,1,326.0330463000573,,,,,,,,,,,,,,,,,,,,,,,,,,,,,,,,,,,,,,,,,,,,,,,,2,2023-12-12_08h36.14.010,watkins1,2023.2.3,99.71630705898762,60,2023-12-12 08h36.22.366032 +0000,
,,,,,,,,,,,10,0,10,0,,,,,,,,,,,,,326.04282490024343,,,,,,,,,,,,326.03333140024915,326.5247802999802,,,[],[],,,,,,,,,,,,3.968018100131303,None,,,,,Stirn,,,,,Würfel,hässlich,"['Würfel', 'hässlich']",test_sub,2,,,,,,326.03326310031116,326.0333021003753,"['Stift', 'Schlüssel', 'Brille', 'Eimer', 'Kerze', 'Geige', 'Kiste', 'Hammer', 'Rucksack', 'Kette', 'Würfel', 'Bürste', 'Telefon', 'Fahrrad', 'Jacke', 'Uhr', 'Tasche', 'Tasse', 'Flasche', 'Schere', 'Lampe', 'Löffel', 'Hut', 'Buch', 'Trommel', 'Kamera', 'Vase', 'Ring', 'Socke', 'Blume']",326.52479140041396,326.5275526000187,None,326.52767640026286,326.53025130042806,None,326.5303609003313,326.5329367001541,None,326.53304500039667,326.53426050022244,326.53427310008556,0,332.54082520026714,,,,,,,,,,,,,,,,,,,,,,,,,,,,,,,,,,,,,,,,,,,,,,,,2,2023-12-12_08h36.14.010,watkins1,2023.2.3,99.71630705898762,60,2023-12-12 08h36.22.366032 +0000,
,,,,,,,,,,,11,0,11,0,,,,,,,,,,,,,332.5507319001481,,,,,,,,,,,,332.5411086003296,333.0328898001462,,,[],[],,,,,,,,,,,,1.5983271999284625,None,,,,,Bürste,,,,,Bürste,verspielt,"['Bürste', 'verspielt']",test_sub,2,,,,,,332.5410403003916,332.54107940010726,"['Stift', 'Schlüssel', 'Brille', 'Eimer', 'Kerze', 'Geige', 'Kiste', 'Hammer', 'Rucksack', 'Kette', 'Würfel', 'Bürste', 'Telefon', 'Fahrrad', 'Jacke', 'Uhr', 'Tasche', 'Tasse', 'Flasche', 'Schere', 'Lampe', 'Löffel', 'Hut', 'Buch', 'Trommel', 'Kamera', 'Vase', 'Ring', 'Socke', 'Blume']",333.0329010002315,333.0356674003415,None,333.0357920001261,333.03838430019096,None,333.0384951001033,333.04125080024824,None,333.04135970026255,333.0426079002209,333.04262300021946,1,339.0496856002137,,,,,,,,,,,,,,,,,,,,,,,,,,,,,,,,,,,,,,,,,,,,,,,,2,2023-12-12_08h36.14.010,watkins1,2023.2.3,99.71630705898762,60,2023-12-12 08h36.22.366032 +0000,
,,,,,,,,,,,12,0,12,0,,,,,,,,,,,,,339.059394699987,,,,,,,,,,,,339.04997440008447,339.5413875002414,,,[],[],,,,,,,,,,,,1.8894179998897016,None,,,,,Handy,,,,,Telefon,winzig,"['Telefon', 'winzig']",test_sub,2,,,,,,339.04990400001407,339.04994489997625,"['Stift', 'Schlüssel', 'Brille', 'Eimer', 'Kerze', 'Geige', 'Kiste', 'Hammer', 'Rucksack', 'Kette', 'Würfel', 'Bürste', 'Telefon', 'Fahrrad', 'Jacke', 'Uhr', 'Tasche', 'Tasse', 'Flasche', 'Schere', 'Lampe', 'Löffel', 'Hut', 'Buch', 'Trommel', 'Kamera', 'Vase', 'Ring', 'Socke', 'Blume']",339.54139839997515,339.5442360001616,None,339.5443613003008,339.54702730011195,None,339.54713830025867,339.54979280009866,None,339.54990110034123,339.55120300035924,339.55121579999104,0,345.5579600003548,,,,,,,,,,,,,,,,,,,,,,,,,,,,,,,,,,,,,,,,,,,,,,,,2,2023-12-12_08h36.14.010,watkins1,2023.2.3,99.71630705898762,60,2023-12-12 08h36.22.366032 +0000,
,,,,,,,,,,,13,0,13,0,,,,,,,,,,,,,345.56776090012863,,,,,,,,,,,,345.55824230005965,346.04977210005745,,,[],[],,,,,,,,,,,,None,None,,,,,,,,,,Fahrrad,strahlend,"['Fahrrad', 'strahlend']",restudy,2,,,,,,345.5581736001186,345.558213500306,"['Stift', 'Schlüssel', 'Brille', 'Eimer', 'Kerze', 'Geige', 'Kiste', 'Hammer', 'Rucksack', 'Kette', 'Würfel', 'Bürste', 'Telefon', 'Fahrrad', 'Jacke', 'Uhr', 'Tasche', 'Tasse', 'Flasche', 'Schere', 'Lampe', 'Löffel', 'Hut', 'Buch', 'Trommel', 'Kamera', 'Vase', 'Ring', 'Socke', 'Blume']",346.04978300025687,346.0525107001886,None,346.05263310018927,352.0570404003374,2,352.05733530037105,352.06028500013053,None,352.06039830017835,352.0616121003404,352.0616241004318,,352.06319510005414,2.3068607999011874,None,,,,,,,,,,,,,,,,,,,,,,,,,,,,,,,,,,,,,,,,,,,,,,2,2023-12-12_08h36.14.010,watkins1,2023.2.3,99.71630705898762,60,2023-12-12 08h36.22.366032 +0000,
,,,,,,,,,,,14,0,14,0,,,,,,,,,,,,,352.0663657002151,,,,,,,,,,,,352.0634779003449,352.5583525002003,,,[],[],,,,,,,,,,,,None,None,,,,,,,,,,Jacke,krumm,"['Jacke', 'krumm']",test_sub,2,,,,,,352.06341140018776,352.0634506000206,"['Stift', 'Schlüssel', 'Brille', 'Eimer', 'Kerze', 'Geige', 'Kiste', 'Hammer', 'Rucksack', 'Kette', 'Würfel', 'Bürste', 'Telefon', 'Fahrrad', 'Jacke', 'Uhr', 'Tasche', 'Tasse', 'Flasche', 'Schere', 'Lampe', 'Löffel', 'Hut', 'Buch', 'Trommel', 'Kamera', 'Vase', 'Ring', 'Socke', 'Blume']",352.55836370028555,352.56113970000297,None,352.5612639002502,352.56269680010155,None,352.5628082002513,352.5642320001498,None,352.5643404000439,352.56549720000476,352.56550989998505,0,358.57049520034343,,,,,,,,,,,,,,,,,,,,,,,,,,,,,,,,,,,,,,,,,,,,,,,,2,2023-12-12_08h36.14.010,watkins1,2023.2.3,99.71630705898762,60,2023-12-12 08h36.22.366032 +0000,
,,,,,,,,,,,15,0,15,0,,,,,,,,,,,,,358.58039630018175,,,,,,,,,,,,358.57077530026436,359.06244330015033,,,[],[],,,,,,,,,,,,1.526657400187105,None,,,,,Uhr,,,,,Uhr,durchsichtig,"['Uhr', 'durchsichtig']",test_sub,2,,,,,,358.5707089002244,358.57074580015615,"['Stift', 'Schlüssel', 'Brille', 'Eimer', 'Kerze', 'Geige', 'Kiste', 'Hammer', 'Rucksack', 'Kette', 'Würfel', 'Bürste', 'Telefon', 'Fahrrad', 'Jacke', 'Uhr', 'Tasche', 'Tasse', 'Flasche', 'Schere', 'Lampe', 'Löffel', 'Hut', 'Buch', 'Trommel', 'Kamera', 'Vase', 'Ring', 'Socke', 'Blume']",359.06245440011844,359.06510920030996,None,359.0652371002361,359.06763410009444,None,359.0677427002229,359.07011190010235,None,359.0702234003693,359.07124750036746,359.0712600001134,1,365.07641690038145,,,,,,,,,,,,,,,,,,,,,,,,,,,,,,,,,,,,,,,,,,,,,,,,2,2023-12-12_08h36.14.010,watkins1,2023.2.3,99.71630705898762,60,2023-12-12 08h36.22.366032 +0000,
,,,,,,,,,,,16,0,16,0,,,,,,,,,,,,,365.0862073004246,,,,,,,,,,,,365.07669810019433,365.56820780038834,,,[],[],,,,,,,,,,,,None,None,,,,,,,,,,Tasche,dick,"['Tasche', 'dick']",restudy,2,,,,,,365.0766307003796,365.0766688003205,"['Stift', 'Schlüssel', 'Brille', 'Eimer', 'Kerze', 'Geige', 'Kiste', 'Hammer', 'Rucksack', 'Kette', 'Würfel', 'Bürste', 'Telefon', 'Fahrrad', 'Jacke', 'Uhr', 'Tasche', 'Tasse', 'Flasche', 'Schere', 'Lampe', 'Löffel', 'Hut', 'Buch', 'Trommel', 'Kamera', 'Vase', 'Ring', 'Socke', 'Blume']",365.5682184002362,365.5712562003173,None,365.57137989997864,371.58063660003245,1,371.5809325003065,371.58364540012553,None,371.58375870017335,371.5849564000964,371.58496850030497,,371.5863342001103,1.9801915003918111,None,,,,,,,,,,,,,,,,,,,,,,,,,,,,,,,,,,,,,,,,,,,,,,2,2023-12-12_08h36.14.010,watkins1,2023.2.3,99.71630705898762,60,2023-12-12 08h36.22.366032 +0000,
,,,,,,,,,,,17,0,17,0,,,,,,,,,,,,,371.590129500255,,,,,,,,,,,,371.58662000019103,372.0829374999739,,,[],[],,,,,,,,,,,,None,None,,,,,,,,,,Tasse,nass,"['Tasse', 'nass']",restudy,2,,,,,,371.58655240014195,371.58659100020304,"['Stift', 'Schlüssel', 'Brille', 'Eimer', 'Kerze', 'Geige', 'Kiste', 'Hammer', 'Rucksack', 'Kette', 'Würfel', 'Bürste', 'Telefon', 'Fahrrad', 'Jacke', 'Uhr', 'Tasche', 'Tasse', 'Flasche', 'Schere', 'Lampe', 'Löffel', 'Hut', 'Buch', 'Trommel', 'Kamera', 'Vase', 'Ring', 'Socke', 'Blume']",372.0829486004077,372.08549710037187,None,372.08561950037256,378.0895562004298,2,378.08984440006316,378.0924743004143,None,378.0925857000984,378.0937431002967,378.09375480003655,,378.0947895999998,2.8979438999667764,None,,,,,,,,,,,,,,,,,,,,,,,,,,,,,,,,,,,,,,,,,,,,,,2,2023-12-12_08h36.14.010,watkins1,2023.2.3,99.71630705898762,60,2023-12-12 08h36.22.366032 +0000,
,,,,,,,,,,,18,0,18,0,,,,,,,,,,,,,378.09903739998117,,,,,,,,,,,,378.0950716002844,378.59109750017524,,,[],[],,,,,,,,,,,,None,None,,,,,,,,,,Flasche,zart,"['Flasche', 'zart']",restudy,2,,,,,,378.09500530036166,378.0950442003086,"['Stift', 'Schlüssel', 'Brille', 'Eimer', 'Kerze', 'Geige', 'Kiste', 'Hammer', 'Rucksack', 'Kette', 'Würfel', 'Bürste', 'Telefon', 'Fahrrad', 'Jacke', 'Uhr', 'Tasche', 'Tasse', 'Flasche', 'Schere', 'Lampe', 'Löffel', 'Hut', 'Buch', 'Trommel', 'Kamera', 'Vase', 'Ring', 'Socke', 'Blume']",378.59110910026357,378.5936918002553,None,378.5938160000369,384.6037620003335,1,384.6040575001389,384.60666610021144,None,384.6067797001451,384.6080998000689,384.60811160039157,,384.60916230035946,2.2219046000391245,None,,,,,,,,,,,,,,,,,,,,,,,,,,,,,,,,,,,,,,,,,,,,,,2,2023-12-12_08h36.14.010,watkins1,2023.2.3,99.71630705898762,60,2023-12-12 08h36.22.366032 +0000,
,,,,,,,,,,,19,0,19,0,,,,,,,,,,,,,384.61323050037026,,,,,,,,,,,,384.60944660007954,385.10531270038337,,,[],[],,,,,,,,,,,,None,None,,,,,,,,,,Schere,hohl,"['Schere', 'hohl']",restudy,2,,,,,,384.60937970038503,384.6094196001068,"['Stift', 'Schlüssel', 'Brille', 'Eimer', 'Kerze', 'Geige', 'Kiste', 'Hammer', 'Rucksack', 'Kette', 'Würfel', 'Bürste', 'Telefon', 'Fahrrad', 'Jacke', 'Uhr', 'Tasche', 'Tasse', 'Flasche', 'Schere', 'Lampe', 'Löffel', 'Hut', 'Buch', 'Trommel', 'Kamera', 'Vase', 'Ring', 'Socke', 'Blume']",385.10532410023734,385.10796060040593,None,385.1080897003412,391.10936700040475,1,391.1096634999849,391.1121970000677,None,391.1123073003255,391.11347810039297,391.11349000036716,,391.114631799981,1.5156213003210723,None,,,,,,,,,,,,,,,,,,,,,,,,,,,,,,,,,,,,,,,,,,,,,,2,2023-12-12_08h36.14.010,watkins1,2023.2.3,99.71630705898762,60,2023-12-12 08h36.22.366032 +0000,
,,,,,,,,,,,20,0,20,0,,,,,,,,,,,,,391.11883669998497,,,,,,,,,,,,391.11491430038586,391.6108998004347,,,[],[],,,,,,,,,,,,None,None,,,,,,,,,,Lampe,kratzig,"['Lampe', 'kratzig']",restudy,2,,,,,,391.11484799999744,391.11488690041006,"['Stift', 'Schlüssel', 'Brille', 'Eimer', 'Kerze', 'Geige', 'Kiste', 'Hammer', 'Rucksack', 'Kette', 'Würfel', 'Bürste', 'Telefon', 'Fahrrad', 'Jacke', 'Uhr', 'Tasche', 'Tasse', 'Flasche', 'Schere', 'Lampe', 'Löffel', 'Hut', 'Buch', 'Trommel', 'Kamera', 'Vase', 'Ring', 'Socke', 'Blume']",391.61091150017455,391.61344520002604,None,391.61356730014086,397.61924870032817,1,397.6195539999753,397.62224190030247,None,397.622355400119,397.6234984002076,397.6235103001818,,397.62481800001115,1.906044800300151,None,,,,,,,,,,,,,,,,,,,,,,,,,,,,,,,,,,,,,,,,,,,,,,2,2023-12-12_08h36.14.010,watkins1,2023.2.3,99.71630705898762,60,2023-12-12 08h36.22.366032 +0000,
,,,,,,,,,,,21,0,21,0,,,,,,,,,,,,,397.6288173003122,,,,,,,,,,,,397.6251013004221,398.12079560011625,,,[],[],,,,,,,,,,,,None,None,,,,,,,,,,Löffel,kurz,"['Löffel', 'kurz']",restudy,2,,,,,,397.62503570038825,397.6250742999837,"['Stift', 'Schlüssel', 'Brille', 'Eimer', 'Kerze', 'Geige', 'Kiste', 'Hammer', 'Rucksack', 'Kette', 'Würfel', 'Bürste', 'Telefon', 'Fahrrad', 'Jacke', 'Uhr', 'Tasche', 'Tasse', 'Flasche', 'Schere', 'Lampe', 'Löffel', 'Hut', 'Buch', 'Trommel', 'Kamera', 'Vase', 'Ring', 'Socke', 'Blume']",398.1208069003187,398.12352540018037,None,398.1236527999863,404.1249792003073,2,404.1252813003957,404.1278106002137,None,404.12792090000585,404.1290879002772,404.1291000000201,,404.13012950029224,1.7559608002193272,None,,,,,,,,,,,,,,,,,,,,,,,,,,,,,,,,,,,,,,,,,,,,,,2,2023-12-12_08h36.14.010,watkins1,2023.2.3,99.71630705898762,60,2023-12-12 08h36.22.366032 +0000,
,,,,,,,,,,,22,0,22,0,,,,,,,,,,,,,404.1344496002421,,,,,,,,,,,,404.13040899997577,404.62653790041804,,,[],[],,,,,,,,,,,,4.5562666999176145,None,,,,,Stock,,,,,Hut,glatt,"['Hut', 'glatt']",test_sub,2,,,,,,404.13034470006824,404.130382000003,"['Stift', 'Schlüssel', 'Brille', 'Eimer', 'Kerze', 'Geige', 'Kiste', 'Hammer', 'Rucksack', 'Kette', 'Würfel', 'Bürste', 'Telefon', 'Fahrrad', 'Jacke', 'Uhr', 'Tasche', 'Tasse', 'Flasche', 'Schere', 'Lampe', 'Löffel', 'Hut', 'Buch', 'Trommel', 'Kamera', 'Vase', 'Ring', 'Socke', 'Blume']",404.6265494003892,404.6289436002262,None,404.62906780000776,404.63034160016105,None,404.6304487003945,404.6317156003788,None,404.6318224002607,404.6328360000625,404.6328487000428,0,410.63533810013905,,,,,,,,,,,,,,,,,,,,,,,,,,,,,,,,,,,,,,,,,,,,,,,,2,2023-12-12_08h36.14.010,watkins1,2023.2.3,99.71630705898762,60,2023-12-12 08h36.22.366032 +0000,
,,,,,,,,,,,23,0,23,0,,,,,,,,,,,,,410.6450889003463,,,,,,,,,,,,410.6356180002913,411.1271848999895,,,[],[],,,,,,,,,,,,None,None,,,,,,,,,,Buch,neu,"['Buch', 'neu']",restudy,2,,,,,,410.63555180002004,410.6355891004205,"['Stift', 'Schlüssel', 'Brille', 'Eimer', 'Kerze', 'Geige', 'Kiste', 'Hammer', 'Rucksack', 'Kette', 'Würfel', 'Bürste', 'Telefon', 'Fahrrad', 'Jacke', 'Uhr', 'Tasche', 'Tasse', 'Flasche', 'Schere', 'Lampe', 'Löffel', 'Hut', 'Buch', 'Trommel', 'Kamera', 'Vase', 'Ring', 'Socke', 'Blume']",411.1271959003061,411.12989680003375,None,411.1300202002749,417.13442150037736,3,417.13471750030294,417.1371111003682,None,417.1372218001634,417.1382665000856,417.1382783004083,,417.1398844001815,1.5416047000326216,None,,,,,,,,,,,,,,,,,,,,,,,,,,,,,,,,,,,,,,,,,,,,,,2,2023-12-12_08h36.14.010,watkins1,2023.2.3,99.71630705898762,60,2023-12-12 08h36.22.366032 +0000,
,,,,,,,,,,,24,0,24,0,,,,,,,,,,,,,417.14389490010217,,,,,,,,,,,,417.14016550034285,417.6359792002477,,,[],[],,,,,,,,,,,,None,None,,,,,,,,,,Trommel,biegsam,"['Trommel', 'biegsam']",restudy,2,,,,,,417.1401001000777,417.1401384002529,"['Stift', 'Schlüssel', 'Brille', 'Eimer', 'Kerze', 'Geige', 'Kiste', 'Hammer', 'Rucksack', 'Kette', 'Würfel', 'Bürste', 'Telefon', 'Fahrrad', 'Jacke', 'Uhr', 'Tasche', 'Tasse', 'Flasche', 'Schere', 'Lampe', 'Löffel', 'Hut', 'Buch', 'Trommel', 'Kamera', 'Vase', 'Ring', 'Socke', 'Blume']",417.63599040033296,417.63898889999837,None,417.63911560038105,423.6441511004232,1,423.64445560006425,423.64722470007837,None,423.6473509003408,423.6485574003309,423.6485695000738,,423.6497736000456,3.384400799870491,None,,,,,,,,,,,,,,,,,,,,,,,,,,,,,,,,,,,,,,,,,,,,,,2,2023-12-12_08h36.14.010,watkins1,2023.2.3,99.71630705898762,60,2023-12-12 08h36.22.366032 +0000,
,,,,,,,,,,,25,0,25,0,,,,,,,,,,,,,423.6535971001722,,,,,,,,,,,,423.65006170002744,424.1456570001319,,,[],[],,,,,,,,,,,,4.116013899911195,None,,,,,Hund,,,,,Kamera,groß,"['Kamera', 'groß']",test_sub,2,,,,,,423.64999480033293,423.65003430005163,"['Stift', 'Schlüssel', 'Brille', 'Eimer', 'Kerze', 'Geige', 'Kiste', 'Hammer', 'Rucksack', 'Kette', 'Würfel', 'Bürste', 'Telefon', 'Fahrrad', 'Jacke', 'Uhr', 'Tasche', 'Tasse', 'Flasche', 'Schere', 'Lampe', 'Löffel', 'Hut', 'Buch', 'Trommel', 'Kamera', 'Vase', 'Ring', 'Socke', 'Blume']",424.1456681001,424.1485522002913,None,424.14867650019005,424.15054780011997,None,424.1506577003747,424.15210560010746,None,424.1522137001157,424.15339430002496,424.1534071001224,0,430.1574185001664,,,,,,,,,,,,,,,,,,,,,,,,,,,,,,,,,,,,,,,,,,,,,,,,2,2023-12-12_08h36.14.010,watkins1,2023.2.3,99.71630705898762,60,2023-12-12 08h36.22.366032 +0000,
,,,,,,,,,,,26,0,26,0,,,,,,,,,,,,,430.1672074003145,,,,,,,,,,,,430.15770400036126,430.649291400332,,,[],[],,,,,,,,,,,,None,None,,,,,,,,,,Vase,hübsch,"['Vase', 'hübsch']",restudy,2,,,,,,430.1576369004324,430.1576748001389,"['Stift', 'Schlüssel', 'Brille', 'Eimer', 'Kerze', 'Geige', 'Kiste', 'Hammer', 'Rucksack', 'Kette', 'Würfel', 'Bürste', 'Telefon', 'Fahrrad', 'Jacke', 'Uhr', 'Tasche', 'Tasse', 'Flasche', 'Schere', 'Lampe', 'Löffel', 'Hut', 'Buch', 'Trommel', 'Kamera', 'Vase', 'Ring', 'Socke', 'Blume']",430.64930160017684,430.6517511000857,None,430.65187379997224,436.6588568002917,3,436.65914980042726,436.66171320015565,None,436.6618238002993,436.66286909999326,436.66288090031594,,436.6643768004142,1.8037294000387192,None,,,,,,,,,,,,,,,,,,,,,,,,,,,,,,,,,,,,,,,,,,,,,,2,2023-12-12_08h36.14.010,watkins1,2023.2.3,99.71630705898762,60,2023-12-12 08h36.22.366032 +0000,
,,,,,,,,,,,27,0,27,0,,,,,,,,,,,,,436.6683130003512,,,,,,,,,,,,436.6646621003747,437.16047000000253,,,[],[],,,,,,,,,,,,None,None,,,,,,,,,,Ring,flauschig,"['Ring', 'flauschig']",restudy,2,,,,,,436.6645964002237,436.6646348000504,"['Stift', 'Schlüssel', 'Brille', 'Eimer', 'Kerze', 'Geige', 'Kiste', 'Hammer', 'Rucksack', 'Kette', 'Würfel', 'Bürste', 'Telefon', 'Fahrrad', 'Jacke', 'Uhr', 'Tasche', 'Tasse', 'Flasche', 'Schere', 'Lampe', 'Löffel', 'Hut', 'Buch', 'Trommel', 'Kamera', 'Vase', 'Ring', 'Socke', 'Blume']",437.16048109997064,437.163035500329,None,437.1631586002186,443.1648617000319,1,443.16516089998186,443.1678065001033,None,443.16791750025004,443.1689805001952,443.1689924001694,,443.1702599003911,1.740427799988538,None,,,,,,,,,,,,,,,,,,,,,,,,,,,,,,,,,,,,,,,,,,,,,,2,2023-12-12_08h36.14.010,watkins1,2023.2.3,99.71630705898762,60,2023-12-12 08h36.22.366032 +0000,
,,,,,,,,,,,28,0,28,0,,,,,,,,,,,,,443.17441920004785,,,,,,,,,,,,443.17054300010204,443.6667766002938,,,[],[],,,,,,,,,,,,None,None,,,,,,,,,,Socke,blass,"['Socke', 'blass']",test_sub,2,,,,,,443.1704773004167,443.1705158003606,"['Stift', 'Schlüssel', 'Brille', 'Eimer', 'Kerze', 'Geige', 'Kiste', 'Hammer', 'Rucksack', 'Kette', 'Würfel', 'Bürste', 'Telefon', 'Fahrrad', 'Jacke', 'Uhr', 'Tasche', 'Tasse', 'Flasche', 'Schere', 'Lampe', 'Löffel', 'Hut', 'Buch', 'Trommel', 'Kamera', 'Vase', 'Ring', 'Socke', 'Blume']",443.66678760014474,443.669527400285,None,443.669652600307,443.67105580028147,None,443.67116320040077,443.6725600003265,None,443.6726673999801,443.6742002000101,443.67421280033886,0,449.6782467002049,,,,,,,,,,,,,,,,,,,,,,,,,,,,,,,,,,,,,,,,,,,,,,,,2,2023-12-12_08h36.14.010,watkins1,2023.2.3,99.71630705898762,60,2023-12-12 08h36.22.366032 +0000,
,,,,,,,,,,,29,0,29,0,,,,,,,,,,,,,449.6880049002357,,,,,,,,,,,,449.67852680012584,450.17013190034777,,,[],[],,,,,,,,,,,,None,None,,,,,,,,,,Blume,elegant,"['Blume', 'elegant']",restudy,2,,,,,,449.678461200092,449.6784981000237,"['Stift', 'Schlüssel', 'Brille', 'Eimer', 'Kerze', 'Geige', 'Kiste', 'Hammer', 'Rucksack', 'Kette', 'Würfel', 'Bürste', 'Telefon', 'Fahrrad', 'Jacke', 'Uhr', 'Tasche', 'Tasse', 'Flasche', 'Schere', 'Lampe', 'Löffel', 'Hut', 'Buch', 'Trommel', 'Kamera', 'Vase', 'Ring', 'Socke', 'Blume']",450.1701437002048,450.172939600423,None,450.1730670002289,456.17549940012395,1,456.1757963001728,456.17851180024445,None,456.1786237000488,456.17990570003167,456.17991760000587,,456.18110370030627,1.4181025000289083,None,,,,,,,,,,,,,,,,,,,,,,,,,,,,,,,,,,,,,,,,,,,,,,2,2023-12-12_08h36.14.010,watkins1,2023.2.3,99.71630705898762,60,2023-12-12 08h36.22.366032 +0000,
,,,,,,,,,,,,,,,,,,,,,,,,,,,,,,,,,,,,,,,,,,,,,,,,,,,,,,,,,,,,,,,,,,,,,,,2,,,,,,,,,,,,,,,,,,,,,,,,,,,,,,,,,,,,,,,,,,,,,,,,,,,,,,,,,,,,,,,,,,,,,,2,2023-12-12_08h36.14.010,watkins1,2023.2.3,99.71630705898762,60,2023-12-12 08h36.22.366032 +0000,
(80 : 10) + 9 = 17 ,Correct,button_correct,,,,,,,,,,,,,0,0,0,3,,,,,,,,,467.6106569003314,,,,,,,,,,466.53082090010867,467.53449770016596,,,,,['button_correct'],[4.772721700370312],,,,,,,,,,,,,,,,,,,,,,,,,,distractorTask,2,,,,,,,,,,,,,,,,,,,,,,,,,467.5895939003676,467.6106569003314,472.3729090001434,[0.35648148148148145],[-0.38796296296296295],[1],[0],[0],[4.772721700370312],['button_correct'],472.37360770022497,473.3765700003132,,,,,,,,,,,,,,,,,,,,,,,,,,,,,,,,,,2,2023-12-12_08h36.14.010,watkins1,2023.2.3,99.71630705898762,60,2023-12-12 08h36.22.366032 +0000,
(40 : 5) + 8 = 15 ,Incorrect,button_incorrect,,,,,,,,,,,,,0,1,1,7,,,,,,,,,473.38651170022786,,,,,,,,,,,,,,,,['button_incorrect'],[3.090629800222814],,,,,,,,,,,,,,,,,,,,,,,,,,distractorTask,2,,,,,,,,,,,,,,,,,,,,,,,,,473.37676210002974,473.38651170022786,476.4697904000059,[-0.30092592592592593],[-0.3851851851851852],[1],[0],[0],[3.090629800222814],['button_incorrect'],476.47017810028046,477.47349080024287,,,,,,,,,,,,,,,,,,,,,,,,,,,,,,,,,,2,2023-12-12_08h36.14.010,watkins1,2023.2.3,99.71630705898762,60,2023-12-12 08h36.22.366032 +0000,
(2 x 5) + 3 = 13 ,Correct,button_correct,,,,,,,,,,,,,0,2,2,2,,,,,,,,,477.48358190013096,,,,,,,,,,,,,,,,['button_correct'],[2.3872128003276885],,,,,,,,,,,,,,,,,,,,,,,,,,distractorTask,2,,,,,,,,,,,,,,,,,,,,,,,,,477.4736827001907,477.48358190013096,479.8641416002065,[0.4111111111111111],[-0.41388888888888886],[1],[0],[0],[2.3872128003276885],['button_correct'],479.8645317000337,480.86767120007426,,,,,,,,,,,,,,,,,,,,,,,,,,,,,,,,,,2,2023-12-12_08h36.14.010,watkins1,2023.2.3,99.71630705898762,60,2023-12-12 08h36.22.366032 +0000,
(28 : 7) - 3 = 1 ,Correct,button_correct,,,,,,,,,,,,,0,3,3,0,,,,,,,,,480.8776535000652,,,,,,,,,,,,,,,,['button_incorrect'],"[2.799749500118196, 3.211517899762839]",,,,,,,,,,,,,,,,,,,,,,,,,,distractorTask,2,,,,,,,,,,,,,,,,,,,,,,,,,480.8678605002351,480.8776535000652,484.0816202000715,"[-0.27037037037037037, -0.30277777777777776]","[-0.39166666666666666, -0.3972222222222222]","[1, 1]","[0, 0]","[0, 0]","[2.799749500118196, 3.211517899762839]",['button_incorrect'],484.0820255000144,485.0851195002906,,,,,,,,,,,,,,,,,,,,,,,,,,,,,,,,,,2,2023-12-12_08h36.14.010,watkins1,2023.2.3,99.71630705898762,60,2023-12-12 08h36.22.366032 +0000,
(54 : 6) - 10 = 0 ,Incorrect,button_incorrect,,,,,,,,,,,,,0,4,4,5,,,,,,,,,485.09519450040534,,,,,,,,,,,,,,,,['button_incorrect'],[4.848831799812615],,,,,,,,,,,,,,,,,,,,,,,,,,distractorTask,2,,,,,,,,,,,,,,,,,,,,,,,,,485.0853159003891,485.09519450040534,489.9363865000196,[-0.3638888888888889],[-0.387037037037037],[1],[0],[0],[4.848831799812615],['button_incorrect'],489.93677010014653,490.9404271002859,,,,,,,,,,,,,,,,,,,,,,,,,,,,,,,,,,2,2023-12-12_08h36.14.010,watkins1,2023.2.3,99.71630705898762,60,2023-12-12 08h36.22.366032 +0000,
(6 x 3) + 10 = 27 ,Incorrect,button_incorrect,,,,,,,,,,,,,0,5,5,8,,,,,,,,,490.95041450019926,,,,,,,,,,,,,,,,['button_incorrect'],[2.5892401998862624],,,,,,,,,,,,,,,,,,,,,,,,,,distractorTask,2,,,,,,,,,,,,,,,,,,,,,,,,,490.9406190002337,490.95041450019926,493.5315926000476,[-0.287962962962963],[-0.40555555555555556],[1],[0],[0],[2.5892401998862624],['button_incorrect'],493.53200340038165,494.53547940030694,,,,,,,,,,,,,,,,,,,,,,,,,,,,,,,,,,2,2023-12-12_08h36.14.010,watkins1,2023.2.3,99.71630705898762,60,2023-12-12 08h36.22.366032 +0000,
(9 x 5) - 9 = 36 ,Correct,button_correct,,,,,,,,,,,,,0,6,6,4,,,,,,,,,494.5454179001972,,,,,,,,,,,,,,,,['button_correct'],[3.9350546998903155],,,,,,,,,,,,,,,,,,,,,,,,,,distractorTask,2,,,,,,,,,,,,,,,,,,,,,,,,,494.53570770006627,494.5454179001972,498.47254440002143,[0.40555555555555556],[-0.41759259259259257],[1],[0],[0],[3.9350546998903155],['button_correct'],498.47292990004644,499.4760406999849,,,,,,,,,,,,,,,,,,,,,,,,,,,,,,,,,,2,2023-12-12_08h36.14.010,watkins1,2023.2.3,99.71630705898762,60,2023-12-12 08h36.22.366032 +0000,
(7 x 6) + 9 = 48 ,Incorrect,button_incorrect,,,,,,,,,,,,,0,7,7,9,,,,,,,,,499.486079600174,,,,,,,,,,,,,,,,['button_incorrect'],[3.824727199971676],,,,,,,,,,,,,,,,,,,,,,,,,,distractorTask,2,,,,,,,,,,,,,,,,,,,,,,,,,499.4762362004258,499.486079600174,503.3028398002498,[-0.2861111111111111],[-0.39351851851851855],[1],[0],[0],[3.824727199971676],['button_incorrect'],503.3032274004072,504.3064756002277,,,,,,,,,,,,,,,,,,,,,,,,,,,,,,,,,,2,2023-12-12_08h36.14.010,watkins1,2023.2.3,99.71630705898762,60,2023-12-12 08h36.22.366032 +0000,
(25 : 5) + 5 = 9 ,Incorrect,button_incorrect,,,,,,,,,,,,,0,8,8,6,,,,,,,,,504.31646690005437,,,,,,,,,,,,,,,,['button_incorrect'],[1.6353950998745859],,,,,,,,,,,,,,,,,,,,,,,,,,distractorTask,2,,,,,,,,,,,,,,,,,,,,,,,,,504.3066738001071,504.31646690005437,505.94381440011784,[-0.29259259259259257],[-0.3888888888888889],[1],[0],[0],[1.6353950998745859],['button_incorrect'],505.94419450033456,506.94757400033996,,,,,,,,,,,,,,,,,,,,,,,,,,,,,,,,,,2,2023-12-12_08h36.14.010,watkins1,2023.2.3,99.71630705898762,60,2023-12-12 08h36.22.366032 +0000,
(4 : 2) + 4 = 6 ,Correct,button_correct,,,,,,,,,,,,,0,9,9,1,,,,,,,,,506.9575591003522,,,,,,,,,,,,,,,,['button_correct'],[3.432865099981427],,,,,,,,,,,,,,,,,,,,,,,,,,distractorTask,2,,,,,,,,,,,,,,,,,,,,,,,,,506.94776470027864,506.9575591003522,510.38232190022245,[0.36944444444444446],[-0.39537037037037037],[1],[0],[0],[3.432865099981427],['button_correct'],510.38270170008764,511.38581850007176,,,,,,,,,,,,,,,,,,,,,,,,,,,,,,,,,,2,2023-12-12_08h36.14.010,watkins1,2023.2.3,99.71630705898762,60,2023-12-12 08h36.22.366032 +0000,
,,,,,,,,,,,,,,,,,,,,,,,,,,,,,,,,,,,,,,,,,,,,,,,,,,,,,,,,,,,,,,,,,,,,,,,2,,,,,,,,,,,,,,,,,,,,,,,,,,,,,,,,,,,,,,,,,,,,,,,,,,,,,,,,,,,,,,,,,,,,,,2,2023-12-12_08h36.14.010,watkins1,2023.2.3,99.71630705898762,60,2023-12-12 08h36.22.366032 +0000,
,,,,,,,,,,,,,,,,,,,0,0,0,0,,,,,523.6548991003074,,,,,,,,,,,,,,,,Löffel,6.3169202003628016,,,,,,,,,,,,2.269033799879253,None,,,,,,,,,,,,,freeRecallSub,2,,,,,,,,,,,,,,,,,,,,,,,,,,,,,,,,,,,,,523.6460206001066,523.6548991003074,523.6548991003074,529.9795525004156,return,6.3169202003628016,None,Löffel,[],[],[],[],[],[],[],,,,,,,,,,,,,,,,,,,2,2023-12-12_08h36.14.010,watkins1,2023.2.3,99.71630705898762,60,2023-12-12 08h36.22.366032 +0000,
,,,,,,,,,,,,,,,,,,,1,0,1,0,,,,,529.9921739003621,,,,,,,,,,,,,,,,Tqsse,2.9077033000066876,,,,,,,,,,,,1.8107803002931178,None,,,,,,,,,,,,,freeRecallSub,2,,,,,,,,,,,,,,,,,,,,,,,,,,,,,,,,,,,,,529.9812628002837,529.9921739003621,529.9921739003621,532.9065753002651,return,2.9077033000066876,None,Tqsse,[],[],[],[],[],[],[],,,,,,,,,,,,,,,,,,,2,2023-12-12_08h36.14.010,watkins1,2023.2.3,99.71630705898762,60,2023-12-12 08h36.22.366032 +0000,
,,,,,,,,,,,,,,,,,,,2,0,2,0,,,,,532.9174231002107,,,,,,,,,,,,,,,,Hund,1.0783881000243127,,,,,,,,,,,,0.2509683002717793,None,,,,,,,,,,,,,freeRecallSub,2,,,,,,,,,,,,,,,,,,,,,,,,,,,,,,,,,,,,,532.9078439003788,532.9174231002107,532.9174231002107,534.0021762000397,return,1.0783881000243127,None,Hund,[],[],[],[],[],[],[],,,,,,,,,,,,,,,,,,,2,2023-12-12_08h36.14.010,watkins1,2023.2.3,99.71630705898762,60,2023-12-12 08h36.22.366032 +0000,
,,,,,,,,,,,,,,,,,,,3,0,3,0,,,,,534.0132470000535,,,,,,,,,,,,,,,,Katze,2.662586800288409,,,,,,,,,,,,0.20100829983130097,None,,,,,,,,,,,,,freeRecallSub,2,,,,,,,,,,,,,,,,,,,,,,,,,,,,,,,,,,,,,534.0034295003861,534.0132470000535,534.0132470000535,536.6845483002253,return,2.662586800288409,None,Katze,[],[],[],[],[],[],[],,,,,,,,,,,,,,,,,,,2,2023-12-12_08h36.14.010,watkins1,2023.2.3,99.71630705898762,60,2023-12-12 08h36.22.366032 +0000,
,,,,,,,,,,,,,,,,,,,4,0,4,0,,,,,536.695713000372,,,,,,,,,,,,,,,,Eimer,2.404123399872333,,,,,,,,,,,,0.8440852002240717,None,,,,,,,,,,,,,freeRecallSub,2,,,,,,,,,,,,,,,,,,,,,,,,,,,,,,,,,,,,,536.6857847999781,536.695713000372,536.695713000372,539.1069931001402,return,2.404123399872333,None,Eimer,[],[],[],[],[],[],[],,,,,,,,,,,,,,,,,,,2,2023-12-12_08h36.14.010,watkins1,2023.2.3,99.71630705898762,60,2023-12-12 08h36.22.366032 +0000,
,,,,,,,,,,,,,,,,,,,5,0,5,0,,,,,539.1184031004086,,,,,,,,,,,,,,,,Handy,5.5094600999727845,,,,,,,,,,,,2.461076899897307,None,,,,,,,,,,,,,freeRecallSub,2,,,,,,,,,,,,,,,,,,,,,,,,,,,,,,,,,,,,,539.1082368004136,539.1184031004086,539.1184031004086,544.6329683000222,return,5.5094600999727845,None,Handy,[],[],[],[],[],[],[],,,,,,,,,,,,,,,,,,,2,2023-12-12_08h36.14.010,watkins1,2023.2.3,99.71630705898762,60,2023-12-12 08h36.22.366032 +0000,
,,,,,,,,,,,,,,,,,,,6,0,6,0,,,,,544.64435290033,,,,,,,,,,,,,,,,Uhr,4.631497700233012,,,,,,,,,,,,3.09377000015229,None,,,,,,,,,,,,,freeRecallSub,2,,,,,,,,,,,,,,,,,,,,,,,,,,,,,,,,,,,,,544.6342310002074,544.64435290033,544.64435290033,549.284390900284,return,4.631497700233012,None,Uhr,[],[],[],[],[],[],[],,,,,,,,,,,,,,,,,,,2,2023-12-12_08h36.14.010,watkins1,2023.2.3,99.71630705898762,60,2023-12-12 08h36.22.366032 +0000,
,,,,,,,,,,,,,,,,,,,7,0,7,0,,,,,549.2958654002286,,,,,,,,,,,,,,,,Blume,5.843897300306708,,,,,,,,,,,,2.391830099746585,None,,,,,,,,,,,,,freeRecallSub,2,,,,,,,,,,,,,,,,,,,,,,,,,,,,,,,,,,,,,549.2856213003397,549.2958654002286,549.2958654002286,555.1419663000852,return,5.843897300306708,None,Blume,[],[],[],[],[],[],[],,,,,,,,,,,,,,,,,,,2,2023-12-12_08h36.14.010,watkins1,2023.2.3,99.71630705898762,60,2023-12-12 08h36.22.366032 +0000,
,,,,,,,,,,,,,,,,,,,8,0,8,0,,,,,555.1538458000869,,,,,,,,,,,,,,,,Kette,12.242071500048041,,,,,,,,,,,,9.501186100300401,None,,,,,,,,,,,,,freeRecallSub,2,,,,,,,,,,,,,,,,,,,,,,,,,,,,,,,,,,,,,555.1432213000953,555.1538458000869,555.1538458000869,567.4055989002809,return,12.242071500048041,None,Kette,[],[],[],[],[],[],[],,,,,,,,,,,,,,,,,,,2,2023-12-12_08h36.14.010,watkins1,2023.2.3,99.71630705898762,60,2023-12-12 08h36.22.366032 +0000,
,,,,,,,,,,,,,,,,,,,9,0,9,0,,,,,567.4173996001482,,,,,,,,,,,,,,,,Tasse,54.65832690009847,,,,,,,,,,,,52.64635069994256,None,,,,,,,,,,,,,freeRecallSub,2,,,,,,,,,,,,,,,,,,,,,,,,,,,,,,,,,,,,,567.4068654002622,567.4173996001482,567.4173996001482,622.0824784999713,return,54.65832690009847,None,Tasse,[],[],[],[],[],[],[],,,,,,,,,,,,,,,,,,,2,2023-12-12_08h36.14.010,watkins1,2023.2.3,99.71630705898762,60,2023-12-12 08h36.22.366032 +0000,
,,,,,,,,,,,,,,,,,,,10,0,10,0,,,,,622.0943197002634,,,,,,,,,,,,,,,,Fahrrad,17.837325499858707,,,,,,,,,,,,15.054659000132233,None,,,,,,,,,,,,,freeRecallSub,2,,,,,,,,,,,,,,,,,,,,,,,,,,,,,,,,,,,,,622.0837660003453,622.0943197002634,622.0943197002634,639.9399014003575,return,17.837325499858707,None,Fahrrad,[],[],[],[],[],[],[],,,,,,,,,,,,,,,,,,,2,2023-12-12_08h36.14.010,watkins1,2023.2.3,99.71630705898762,60,2023-12-12 08h36.22.366032 +0000,
,,,,,,,,,,,,,,,,,,,11,0,11,0,,,,,639.9524274002761,,,,,,,,,,,,,,,,Kiste,47.6991805001162,,,,,,,,,,,,46.134930999949574,None,,,,,,,,,,,,,freeRecallSub,2,,,,,,,,,,,,,,,,,,,,,,,,,,,,,,,,,,,,,639.9411606001668,639.9524274002761,639.9524274002761,687.6530478000641,return,47.6991805001162,None,Kiste,[],[],[],[],[],[],[],,,,,,,,,,,,,,,,,,,2,2023-12-12_08h36.14.010,watkins1,2023.2.3,99.71630705898762,60,2023-12-12 08h36.22.366032 +0000,
,,,,,,,,,,,,,,,,,,,12,0,12,0,,,,,687.6654560002498,,,,,,,,,,,,,,,,Buch,18.898255500011146,,,,,,,,,,,,16.983443700242788,None,,,,,,,,,,,,,freeRecallSub,2,,,,,,,,,,,,,,,,,,,,,,,,,,,,,,,,,,,,,687.6543127000332,687.6654560002498,687.6654560002498,706.5658291000873,return,18.898255500011146,None,Buch,[],[],[],[],[],[],[],,,,,,,,,,,,,,,,,,,2,2023-12-12_08h36.14.010,watkins1,2023.2.3,99.71630705898762,60,2023-12-12 08h36.22.366032 +0000,
,,,,,,,,,,,,,,,,,,,13,0,13,0,,,,,706.5787103003822,,,,,,,,,,,,,,,,Matheaufgaben,81.20882619963959,,,,,,,,,,,,76.8428869000636,None,,,,,,,,,,,,,freeRecallSub,2,,,,,,,,,,,,,,,,,,,,,,,,,,,,,,,,,,,,,706.5671171001159,706.5787103003822,706.5787103003822,787.7887025000528,return,81.20882619963959,None,Matheaufgaben,[],[],[],[],[],[],[],,,,,,,,,,,,,,,,,,,2,2023-12-12_08h36.14.010,watkins1,2023.2.3,99.71630705898762,60,2023-12-12 08h36.22.366032 +0000,
,,,,,,,,,,,,,,,,,,,14,0,14,0,,,,,787.8024667003192,,,,,,,,,,,,,,,,Richtig,1.4410418001934886,,,,,,,,,,,,0.22685640025883913,None,,,,,,,,,,,,,freeRecallSub,2,,,,,,,,,,,,,,,,,,,,,,,,,,,,,,,,,,,,,787.7899693003856,787.8024667003192,787.8024667003192,789.2518713003956,return,1.4410418001934886,None,Richtig,[],[],[],[],[],[],[],,,,,,,,,,,,,,,,,,,2,2023-12-12_08h36.14.010,watkins1,2023.2.3,99.71630705898762,60,2023-12-12 08h36.22.366032 +0000,
,,,,,,,,,,,,,,,,,,,15,0,15,0,,,,,789.2655066000298,,,,,,,,,,,,,,,,Falsch,9.330121699720621,,,,,,,,,,,,0.31631150003522635,6.471734299790114,,,,,,,,,,,,,freeRecallSub,2,,,,,,,,,,,,,,,,,,,,,,,,,,,,,,,,,,,,,789.2531212000176,789.2655066000298,789.2655066000298,798.5971395000815,return,9.330121699720621,None,Falsch,[],[],[],[],[],[],[],,,,,,,,,,,,,,,,,,,2,2023-12-12_08h36.14.010,watkins1,2023.2.3,99.71630705898762,60,2023-12-12 08h36.22.366032 +0000,
,,,,,,,,,,,,,,,,,,,16,0,16,0,,,,,798.6105019003153,,,,,,,,,,,,,,,,Vase,57.22529440000653,,,,,,,,,,,,54.60606510005891,None,,,,,,,,,,,,,freeRecallSub,2,,,,,,,,,,,,,,,,,,,,,,,,,,,,,,,,,,,,,798.5984009001404,798.6105019003153,798.6105019003153,855.8455107002519,return,57.22529440000653,None,Vase,[],[],[],[],[],[],[],,,,,,,,,,,,,,,,,,,2,2023-12-12_08h36.14.010,watkins1,2023.2.3,99.71630705898762,60,2023-12-12 08h36.22.366032 +0000,
,,,,,,,,,,,,,,,,,,,17,0,17,0,,,,,855.8596447003074,,,,,,,,,,,,,,,,,[],,,,,,,,,,,,None,None,,,,,,,,,,,,,freeRecallSub,2,,,,,,,,,,,,,,,,,,,,,,,,,,,,,,,,,,,,,855.8467864003032,855.8596447003074,855.8596447003074,925.2630467000417,None,,,,[0.5111111111111111],[-0.38796296296296295],[1],[0],[0],[69.40955960005522],"['button_continue', 'continue_text']",,,,,,,,,,,,,,,,,,,2,2023-12-12_08h36.14.010,watkins1,2023.2.3,99.71630705898762,60,2023-12-12 08h36.22.366032 +0000,
,,,,,,,,,,,,,,,,,,,,,,,,,,,,,,,,,,,,,,,,,,,,,,,,,,,,,,,,,,,,,,,,,,,,,,,2,,,,,,,,,,,,,,,,,,,,,,,,,,,,,,,,,,,,,,,,,,,,,,,,,,,,,,,,,,,,,,,,,,,,,,2,2023-12-12_08h36.14.010,watkins1,2023.2.3,99.71630705898762,60,2023-12-12 08h36.22.366032 +0000,
,,,,,,,,,,,,,,,,,,,,,,,0,0,0,0,933.5984329003841,,,,,,,,,,,,937.3475665003061,937.8461088002659,,,,3.7410093997605145,,,,,,,,,,,,None,None,,,,,,,,,,Kiste,,,cuedRecallAdj,2,,,,,,,,,,,,,,,,,,,,,0,,,,,,,,,,,,,,,,,,,,,,,,,,,,,,,933.5892411000095,933.5984329003841,933.5984329003841,937.3443640000187,bunt,return,3.7410093997605145,None,937.3447826001793,937.3540038000792,937.3540038000792,937.3474085000344,,None,,,,,2,2023-12-12_08h36.14.010,watkins1,2023.2.3,99.71630705898762,60,2023-12-12 08h36.22.366032 +0000,
,,,,,,,,,,,,,,,,,,,,,,,1,0,1,0,937.8560411003418,,,,,,,,,,,,941.0625342000276,941.5613902001642,,,,3.1954803997650743,,,,,,,,,,,,None,None,,,,,,,,,,Vase,,,cuedRecallAdj,2,,,,,,,,,,,,,,,,,,,,,0,,,,,,,,,,,,,,,,,,,,,,,,,,,,,,,937.8463568002917,937.8560411003418,937.8560411003418,941.0596515000798,schön,return,3.1954803997650743,None,941.059915299993,941.0693620000966,941.0693620000966,941.0624258001335,,None,,,,,2,2023-12-12_08h36.14.010,watkins1,2023.2.3,99.71630705898762,60,2023-12-12 08h36.22.366032 +0000,
,,,,,,,,,,,,,,,,,,,,,,,2,0,2,0,941.5714406999759,,,,,,,,,,,,949.8394489004277,950.338073100429,,,,8.256002599839121,,,,,,,,,,,,None,None,,,,,,,,,,Rucksack,,,cuedRecallAdj,2,,,,,,,,,,,,,,,,,,,,,0,,,,,,,,,,,,,,,,,,,,,,,,,,,,,,,941.561636000406,941.5714406999759,941.5714406999759,949.8363714003935,leicht,return,8.256002599839121,None,949.836635700427,949.8460921002552,949.8460921002552,949.8393473001197,,None,,,,,2,2023-12-12_08h36.14.010,watkins1,2023.2.3,99.71630705898762,60,2023-12-12 08h36.22.366032 +0000,
,,,,,,,,,,,,,,,,,,,,,,,3,0,3,0,950.3480057003908,,,,,,,,,,,,955.3726594001055,955.8712098002434,,,,5.01528639998287,,,,,,,,,,,,None,None,,,,,,,,,,Fahrrad,,,cuedRecallAdj,2,,,,,,,,,,,,,,,,,,,,,0,,,,,,,,,,,,,,,,,,,,,,,,,,,,,,,950.3383136000484,950.3480057003908,950.3480057003908,955.3695498001762,strahlend,return,5.01528639998287,None,955.3698141002096,955.3790430002846,955.3790430002846,955.3725595003925,,None,,,,,2,2023-12-12_08h36.14.010,watkins1,2023.2.3,99.71630705898762,60,2023-12-12 08h36.22.366032 +0000,
,,,,,,,,,,,,,,,,,,,,,,,4,0,4,0,955.881153000053,,,,,,,,,,,,959.6802394003607,960.1790304002352,,,,3.794203700032085,,,,,,,,,,,,None,None,,,,,,,,,,Tasche,,,cuedRecallAdj,2,,,,,,,,,,,,,,,,,,,,,0,,,,,,,,,,,,,,,,,,,,,,,,,,,,,,,955.8714523999952,955.881153000053,955.881153000053,959.6773361000232,dick,return,3.794203700032085,None,959.6776014002971,959.6868075001985,959.6868075001985,959.6801375001669,,None,,,,,2,2023-12-12_08h36.14.010,watkins1,2023.2.3,99.71630705898762,60,2023-12-12 08h36.22.366032 +0000,
,,,,,,,,,,,,,,,,,,,,,,,5,0,5,0,960.1890132003464,,,,,,,,,,,,964.8817442003638,965.3806286002509,,,,4.686302800197154,,,,,,,,,,,,None,None,,,,,,,,,,Hut,,,cuedRecallAdj,2,,,,,,,,,,,,,,,,,,,,,0,,,,,,,,,,,,,,,,,,,,,,,,,,,,,,,960.1792729003355,960.1890132003464,960.1890132003464,964.8788800002076,schmal,return,4.686302800197154,None,964.8791430001147,964.8884498002008,964.8884498002008,964.8816409003921,,None,,,,,2,2023-12-12_08h36.14.010,watkins1,2023.2.3,99.71630705898762,60,2023-12-12 08h36.22.366032 +0000,
,,,,,,,,,,,,,,,,,,,,,,,6,0,6,0,965.3905817000195,,,,,,,,,,,,968.6976328999735,969.1963409003802,,,,3.300838000141084,,,,,,,,,,,,None,None,,,,,,,,,,Löffel,,,cuedRecallAdj,2,,,,,,,,,,,,,,,,,,,,,0,,,,,,,,,,,,,,,,,,,,,,,,,,,,,,,965.3808675999753,965.3905817000195,965.3905817000195,968.6947282999754,kurz,return,3.300838000141084,None,968.6949926000088,968.7042283001356,968.7042283001356,968.6975302002393,,None,,,,,2,2023-12-12_08h36.14.010,watkins1,2023.2.3,99.71630705898762,60,2023-12-12 08h36.22.366032 +0000,
,,,,,,,,,,,,,,,,,,,,,,,7,0,7,0,969.2062518000603,,,,,,,,,,,,974.752955400385,975.2517449003644,,,,5.541008000262082,,,,,,,,,,,,None,None,,,,,,,,,,Bürste,,,cuedRecallAdj,2,,,,,,,,,,,,,,,,,,,,,0,,,,,,,,,,,,,,,,,,,,,,,,,,,,,,,969.196582000237,969.2062518000603,969.2062518000603,974.749863000121,spielend,return,5.541008000262082,None,974.7501267003827,974.7593781002797,974.7593781002797,974.752853400074,,None,,,,,2,2023-12-12_08h36.14.010,watkins1,2023.2.3,99.71630705898762,60,2023-12-12 08h36.22.366032 +0000,
,,,,,,,,,,,,,,,,,,,,,,,8,0,8,0,975.2616886002943,,,,,,,,,,,,979.1817950000986,979.6803671000525,,,,3.9098485000431538,,,,,,,,,,,,None,None,,,,,,,,,,Würfel,,,cuedRecallAdj,2,,,,,,,,,,,,,,,,,,,,,0,,,,,,,,,,,,,,,,,,,,,,,,,,,,,,,975.2519877003506,975.2616886002943,975.2616886002943,979.1785913002677,knapp,return,3.9098485000431538,None,979.1788808000274,979.1882228003815,979.1882228003815,979.1816850001924,,None,,,,,2,2023-12-12_08h36.14.010,watkins1,2023.2.3,99.71630705898762,60,2023-12-12 08h36.22.366032 +0000,
,,,,,,,,,,,,,,,,,,,,,,,9,0,9,0,979.6902591004036,,,,,,,,,,,,983.098089999985,983.5964609002694,,,,3.401146899908781,,,,,,,,,,,,None,None,,,,,,,,,,Eimer,,,cuedRecallAdj,2,,,,,,,,,,,,,,,,,,,,,0,,,,,,,,,,,,,,,,,,,,,,,,,,,,,,,979.6806136001833,979.6902591004036,979.6902591004036,983.0949174002744,gepunktet,return,3.401146899908781,None,983.0951819000766,983.1044729002751,983.1044729002751,983.0979891000316,,None,,,,,2,2023-12-12_08h36.14.010,watkins1,2023.2.3,99.71630705898762,60,2023-12-12 08h36.22.366032 +0000,
,,,,,,,,,,,,,,,,,,,,,,,10,0,10,0,983.6065116003156,,,,,,,,,,,,985.2866739002056,985.7855311003514,,,,1.6767746000550687,,,,,,,,,,,,None,None,,,,,,,,,,Tasse,,,cuedRecallAdj,2,,,,,,,,,,,,,,,,,,,,,0,,,,,,,,,,,,,,,,,,,,,,,,,,,,,,,983.5967071000487,983.6065116003156,983.6065116003156,985.2838193001226,nass,return,1.6767746000550687,None,985.2840829002671,985.2934227003716,985.2934227003716,985.286572100129,,None,,,,,2,2023-12-12_08h36.14.010,watkins1,2023.2.3,99.71630705898762,60,2023-12-12 08h36.22.366032 +0000,
,,,,,,,,,,,,,,,,,,,,,,,11,0,11,0,985.7954145004041,,,,,,,,,,,,991.1419077003375,991.6404719999991,,,,5.335891500115395,,,,,,,,,,,,None,None,,,,,,,,,,Telefon,,,cuedRecallAdj,2,,,,,,,,,,,,,,,,,,,,,0,,,,,,,,,,,,,,,,,,,,,,,,,,,,,,,985.7857719999738,985.7954145004041,985.7954145004041,991.1387401004322,durchsichtig,return,5.335891500115395,None,991.1390049001202,991.1484129000455,991.1484129000455,991.1418040003628,,None,,,,,2,2023-12-12_08h36.14.010,watkins1,2023.2.3,99.71630705898762,60,2023-12-12 08h36.22.366032 +0000,
,,,,,,,,,,,,,,,,,,,,,,,12,0,12,0,991.6504820003174,,,,,,,,,,,,998.5926300003193,999.0912632001564,,,,6.936915299855173,,,,,,,,,,,,None,None,,,,,,,,,,Stift,,,cuedRecallAdj,2,,,,,,,,,,,,,,,,,,,,,0,,,,,,,,,,,,,,,,,,,,,,,,,,,,,,,991.640719700139,991.6504820003174,991.6504820003174,998.5896277003922,schmal,return,6.936915299855173,None,998.5898926001973,998.5991785000078,998.5991785000078,998.5925281001255,,None,,,,,2,2023-12-12_08h36.14.010,watkins1,2023.2.3,99.71630705898762,60,2023-12-12 08h36.22.366032 +0000,
,,,,,,,,,,,,,,,,,,,,,,,13,0,13,0,999.1011793003418,,,,,,,,,,,,1002.7402043002658,1003.2385196001269,,,,3.6301633999682963,,,,,,,,,,,,None,None,,,,,,,,,,Geige,,,cuedRecallAdj,2,,,,,,,,,,,,,,,,,,,,,0,,,,,,,,,,,,,,,,,,,,,,,,,,,,,,,999.0915055000223,999.1011793003418,999.1011793003418,1002.7368469000794,schief,return,3.6301633999682963,None,1002.7371291001327,1002.7463932000101,1002.7463932000101,1002.7400957001373,,None,,,,,2,2023-12-12_08h36.14.010,watkins1,2023.2.3,99.71630705898762,60,2023-12-12 08h36.22.366032 +0000,
,,,,,,,,,,,,,,,,,,,,,,,14,0,14,0,1003.248474500142,,,,,,,,,,,,1008.1419144002721,1008.6408416000195,,,,4.882881000172347,,,,,,,,,,,,None,None,,,,,,,,,,Jacke,,,cuedRecallAdj,2,,,,,,,,,,,,,,,,,,,,,0,,,,,,,,,,,,,,,,,,,,,,,,,,,,,,,1003.2387618003413,1003.248474500142,1003.248474500142,1008.1389811001718,warm,return,4.882881000172347,None,1008.1392504000105,1008.1488049002364,1008.1488049002364,1008.1418124004267,,None,,,,,2,2023-12-12_08h36.14.010,watkins1,2023.2.3,99.71630705898762,60,2023-12-12 08h36.22.366032 +0000,
,,,,,,,,,,,,,,,,,,,,,,,15,0,15,0,1008.6507476000115,,,,,,,,,,,,1011.3452793001197,1011.844193500001,,,,2.688572400249541,,,,,,,,,,,,None,None,,,,,,,,,,Schere,,,cuedRecallAdj,2,,,,,,,,,,,,,,,,,,,,,0,,,,,,,,,,,,,,,,,,,,,,,,,,,,,,,1008.6410848000087,1008.6507476000115,1008.6507476000115,1011.3424796001054,hohl,return,2.688572400249541,None,1011.3427384002134,1011.3520769001916,1011.3520769001916,1011.3451801002957,,None,,,,,2,2023-12-12_08h36.14.010,watkins1,2023.2.3,99.71630705898762,60,2023-12-12 08h36.22.366032 +0000,
,,,,,,,,,,,,,,,,,,,,,,,16,0,16,0,1011.8540917001665,,,,,,,,,,,,1015.5433475002646,1016.0421714000404,,,,3.6771945003420115,,,,,,,,,,,,None,None,,,,,,,,,,Brille,,,cuedRecallAdj,2,,,,,,,,,,,,,,,,,,,,,0,,,,,,,,,,,,,,,,,,,,,,,,,,,,,,,1011.8444369002245,1011.8540917001665,1011.8540917001665,1015.5402962001972,flach,return,3.6771945003420115,None,1015.5405596001074,1015.5500210002065,1015.5500210002065,1015.5432465001941,,None,,,,,2,2023-12-12_08h36.14.010,watkins1,2023.2.3,99.71630705898762,60,2023-12-12 08h36.22.366032 +0000,
,,,,,,,,,,,,,,,,,,,,,,,17,0,17,0,1016.0521480003372,,,,,,,,,,,,1022.392562800087,1022.8911977000535,,,,6.327225800137967,,,,,,,,,,,,None,None,,,,,,,,,,Schlüssel,,,cuedRecallAdj,2,,,,,,,,,,,,,,,,,,,,,0,,,,,,,,,,,,,,,,,,,,,,,,,,,,,,,1016.0424185004085,1016.0521480003372,1016.0521480003372,1022.3894894002005,globig,return,6.327225800137967,None,1022.3897558003664,1022.3992060003802,1022.3992060003802,1022.3924624002539,,None,,,,,2,2023-12-12_08h36.14.010,watkins1,2023.2.3,99.71630705898762,60,2023-12-12 08h36.22.366032 +0000,
,,,,,,,,,,,,,,,,,,,,,,,18,0,18,0,1022.9011008003727,,,,,,,,,,,,1026.851167500019,1027.3495478001423,,,,3.942236099857837,,,,,,,,,,,,None,None,,,,,,,,,,Kette,,,cuedRecallAdj,2,,,,,,,,,,,,,,,,,,,,,0,,,,,,,,,,,,,,,,,,,,,,,,,,,,,,,1022.8914469000883,1022.9011008003727,1022.9011008003727,1026.847982100211,dunkel,return,3.942236099857837,None,1026.8482472002506,1026.8575149001554,1026.8575149001554,1026.851065600291,,None,,,,,2,2023-12-12_08h36.14.010,watkins1,2023.2.3,99.71630705898762,60,2023-12-12 08h36.22.366032 +0000,
,,,,,,,,,,,,,,,,,,,,,,,19,0,19,0,1027.359547200147,,,,,,,,,,,,1041.512073900085,1042.0109878000803,,,,14.139710500370711,,,,,,,,,,,,None,None,,,,,,,,,,Lampe,,,cuedRecallAdj,2,,,,,,,,,,,,,,,,,,,,,0,,,,,,,,,,,,,,,,,,,,,,,,,,,,,,,1027.349788899999,1027.359547200147,1027.359547200147,1041.5090546002612,holzig,return,14.139710500370711,None,1041.5093179000542,1041.5188229000196,1041.5188229000196,1041.5119713000022,,None,,,,,2,2023-12-12_08h36.14.010,watkins1,2023.2.3,99.71630705898762,60,2023-12-12 08h36.22.366032 +0000,
,,,,,,,,,,,,,,,,,,,,,,,20,0,20,0,1042.0209278999828,,,,,,,,,,,,1044.1328259999864,1044.6318599004298,,,,2.1023438996635377,,,,,,,,,,,,None,None,,,,,,,,,,Buch,,,cuedRecallAdj,2,,,,,,,,,,,,,,,,,,,,,0,,,,,,,,,,,,,,,,,,,,,,,,,,,,,,,1042.0112304002978,1042.0209278999828,1042.0209278999828,1044.1300878999755,neu,return,2.1023438996635377,None,1044.130351100117,1044.1396330003627,1044.1396330003627,1044.1327239000238,,None,,,,,2,2023-12-12_08h36.14.010,watkins1,2023.2.3,99.71630705898762,60,2023-12-12 08h36.22.366032 +0000,
,,,,,,,,,,,,,,,,,,,,,,,21,0,21,0,1044.6418103002943,,,,,,,,,,,,1049.7568434001878,1050.255377500318,,,,5.105509900022298,,,,,,,,,,,,None,None,,,,,,,,,,Trommel,,,cuedRecallAdj,2,,,,,,,,,,,,,,,,,,,,,0,,,,,,,,,,,,,,,,,,,,,,,,,,,,,,,1044.632102700416,1044.6418103002943,1044.6418103002943,1049.7537766001187,biegbar,return,5.105509900022298,None,1049.7540419003926,1049.7633381001651,1049.7633381001651,1049.7567424001172,,None,,,,,2,2023-12-12_08h36.14.010,watkins1,2023.2.3,99.71630705898762,60,2023-12-12 08h36.22.366032 +0000,
,,,,,,,,,,,,,,,,,,,,,,,22,0,22,0,1050.2653300003149,,,,,,,,,,,,1054.0542363002896,1054.5530954003334,,,,3.777994600124657,,,,,,,,,,,,None,None,,,,,,,,,,Socke,,,cuedRecallAdj,2,,,,,,,,,,,,,,,,,,,,,0,,,,,,,,,,,,,,,,,,,,,,,,,,,,,,,1050.2556247999892,1050.2653300003149,1050.2653300003149,1054.0511663001962,gestreift,return,3.777994600124657,None,1054.0514307999983,1054.0609949002974,1054.0609949002974,1054.0541340000927,,None,,,,,2,2023-12-12_08h36.14.010,watkins1,2023.2.3,99.71630705898762,60,2023-12-12 08h36.22.366032 +0000,
,,,,,,,,,,,,,,,,,,,,,,,23,0,23,0,1054.5630431002937,,,,,,,,,,,,1059.28623290034,1059.7850726000033,,,,4.712248499970883,,,,,,,,,,,,None,None,,,,,,,,,,Kerze,,,cuedRecallAdj,2,,,,,,,,,,,,,,,,,,,,,0,,,,,,,,,,,,,,,,,,,,,,,,,,,,,,,1054.5533404001035,1054.5630431002937,1054.5630431002937,1059.2832249002531,weich,return,4.712248499970883,None,1059.2834883001633,1059.2929490003735,1059.2929490003735,1059.2861307002604,,None,,,,,2,2023-12-12_08h36.14.010,watkins1,2023.2.3,99.71630705898762,60,2023-12-12 08h36.22.366032 +0000,
,,,,,,,,,,,,,,,,,,,,,,,24,0,24,0,1059.7950369999744,,,,,,,,,,,,1062.71040550014,1063.2091963002458,,,,2.904292299877852,,,,,,,,,,,,None,None,,,,,,,,,,Ring,,,cuedRecallAdj,2,,,,,,,,,,,,,,,,,,,,,0,,,,,,,,,,,,,,,,,,,,,,,,,,,,,,,1059.7853171001188,1059.7950369999744,1059.7950369999744,1062.7073757001199,flauschig,return,2.904292299877852,None,1062.7076403000392,1062.7171972002834,1062.7171972002834,1062.7103032004088,,None,,,,,2,2023-12-12_08h36.14.010,watkins1,2023.2.3,99.71630705898762,60,2023-12-12 08h36.22.366032 +0000,
,,,,,,,,,,,,,,,,,,,,,,,25,0,25,0,1063.2191067002714,,,,,,,,,,,,1073.2539327000268,1073.7528775003739,,,,10.024234900251031,,,,,,,,,,,,None,None,,,,,,,,,,Uhr,,,cuedRecallAdj,2,,,,,,,,,,,,,,,,,,,,,0,,,,,,,,,,,,,,,,,,,,,,,,,,,,,,,1063.2094405000098,1063.2191067002714,1063.2191067002714,1073.251035200432,schmal,return,10.024234900251031,None,1073.2513026003726,1073.2607069001533,1073.2607069001533,1073.2538285003975,,None,,,,,2,2023-12-12_08h36.14.010,watkins1,2023.2.3,99.71630705898762,60,2023-12-12 08h36.22.366032 +0000,
,,,,,,,,,,,,,,,,,,,,,,,26,0,26,0,1073.7628608001396,,,,,,,,,,,,1083.6993153002113,1084.1978444000706,,,,9.928369499742985,,,,,,,,,,,,None,None,,,,,,,,,,Flasche,,,cuedRecallAdj,2,,,,,,,,,,,,,,,,,,,,,0,,,,,,,,,,,,,,,,,,,,,,,,,,,,,,,1073.7531322003342,1073.7628608001396,1073.7628608001396,1083.6962117999792,hässlich,return,9.928369499742985,None,1083.696474800352,1083.7057576002553,1083.7057576002553,1083.6992134000175,,None,,,,,2,2023-12-12_08h36.14.010,watkins1,2023.2.3,99.71630705898762,60,2023-12-12 08h36.22.366032 +0000,
,,,,,,,,,,,,,,,,,,,,,,,27,0,27,0,1084.2078703003936,,,,,,,,,,,,1099.6988049000502,1100.1973952003755,,,,15.483306699898094,,,,,,,,,,,,None,None,,,,,,,,,,Hammer,,,cuedRecallAdj,2,,,,,,,,,,,,,,,,,,,,,0,,,,,,,,,,,,,,,,,,,,,,,,,,,,,,,1084.1980849001557,1084.2078703003936,1084.2078703003936,1099.6957509000786,leicht,return,15.483306699898094,None,1099.696021700278,1099.7053404999897,1099.7053404999897,1099.6987020000815,,None,,,,,2,2023-12-12_08h36.14.010,watkins1,2023.2.3,99.71630705898762,60,2023-12-12 08h36.22.366032 +0000,
,,,,,,,,,,,,,,,,,,,,,,,28,0,28,0,1100.2073982004076,,,,,,,,,,,,1111.0769144999795,1111.575612200424,,,,10.859869099687785,,,,,,,,,,,,None,None,,,,,,,,,,Blume,,,cuedRecallAdj,2,,,,,,,,,,,,,,,,,,,,,0,,,,,,,,,,,,,,,,,,,,,,,,,,,,,,,1100.1976381000131,1100.2073982004076,1100.2073982004076,1111.073895000387,elegant,return,10.859869099687785,None,1111.074160600081,1111.0833992003463,1111.0833992003463,1111.0768116000108,,None,,,,,2,2023-12-12_08h36.14.010,watkins1,2023.2.3,99.71630705898762,60,2023-12-12 08h36.22.366032 +0000,
,,,,,,,,,,,,,,,,,,,,,,,29,0,29,0,1111.5854996000417,,,,,,,,,,,,1116.007078600116,1116.505957600195,,,,4.417657700367272,,,,,,,,,,,,None,None,,,,,,,,,,Kamera,,,cuedRecallAdj,2,,,,,,,,,,,,,,,,,,,,,0,,,,,,,,,,,,,,,,,,,,,,,,,,,,,,,1111.5758581003174,1111.5854996000417,1111.5854996000417,1116.0042700003833,groß,return,4.417657700367272,None,1116.0045289001428,1116.0138134001754,1116.0138134001754,1116.0069789001718,,None,,,,,2,2023-12-12_08h36.14.010,watkins1,2023.2.3,99.71630705898762,60,2023-12-12 08h36.22.366032 +0000,
,,,,,,,,,,,,,,,,,,,,,,,,,,,,,,,,,,,,,,,,,,,,,,,,,,,,,,,,,,,,,,,,,,,,,,,2,,,,,,,,,,,,,,,,,,,,,,,,,,,,,,,,,,,,,,,,,,,,,,,,,,,,,,,,,,,,,,,,,,1116.5228081000969,q,1711.9827521000989,None,2,2023-12-12_08h36.14.010,watkins1,2023.2.3,99.71630705898762,60,2023-12-12 08h36.22.366032 +0000,
