Equation,CorrectResponse,Correctbutton,trials_7.thisRepN,trials_7.thisTrialN,trials_7.thisN,trials_7.thisIndex,trials.thisRepN,trials.thisTrialN,trials.thisN,trials.thisIndex,trials_3.thisRepN,trials_3.thisTrialN,trials_3.thisN,trials_3.thisIndex,trials_2.thisRepN,trials_2.thisTrialN,trials_2.thisN,trials_2.thisIndex,trials_4.thisRepN,trials_4.thisTrialN,trials_4.thisN,trials_4.thisIndex,trials_5.thisRepN,trials_5.thisTrialN,trials_5.thisN,trials_5.thisIndex,thisRow.t,notes,code_marius.started,code_marius.stopped,welcome.started,welcome.stopped,instruction_study.started,instruction_study.stopped,fixationcross.started,fixationcross.stopped,blanc.started,blanc.stopped,study_control_probe.started,study_control_probe.stopped,responseKey,responseTime,scale_answer_2.keys,study_control_probe_2.started,study_control_probe_2.stopped,scale_answer_3.keys,scale_answer_3.rt,scale_answer_3.duration,blanc_2.started,blanc_2.stopped,test_attr_probe.started,test_attr_probe.stopped,recalled_attr,firstKeyTime,secondWordTime,blanc_3.started,blanc_3.stopped,test_sub_probe.started,test_sub_probe.stopped,recalled_sub,instruction_probe_end.started,instruction_probe_end.stopped,study.started,study.stopped,substantive,adjective,wordpair,task,condition,liste_sub_phase1,liste_adj_phase1,scale_answer.keys,scale_answer.rt,scale_answer.duration,code_defineWordsInit.started,code_defineWordsInit.stopped,liste_sub_phase2,study_control.started,study_control.stopped,scale_answer_4.keys,restudy_same.started,restudy_same.stopped,scale_answer_5.keys,restudy_different.started,restudy_different.stopped,scale_answer_6.keys,test_attr.started,correct,test_attr.stopped,test_sub.started,test_sub.stopped,scale_answer_5.rt,scale_answer_5.duration,distractortask.started,equation_text.started,distractortask.stopped,mouse_answer.x,mouse_answer.y,mouse_answer.leftButton,mouse_answer.midButton,mouse_answer.rightButton,mouse_answer.time,mouse_answer.clicked_name,feedback_distractortask.started,feedback_distractortask.stopped,free_recall.started,text_enter.started,key_resp.started,free_recall.stopped,key_resp.keys,key_resp.rt,key_resp.duration,free_recalled_sub,mouse_continue.x,mouse_continue.y,mouse_continue.leftButton,mouse_continue.midButton,mouse_continue.rightButton,mouse_continue.time,mouse_continue.clicked_name,cued_recall.started,text_enter_2.started,key_continue.started,cued_recall.stopped,recalled_attr1,key_continue.keys,key_continue.rt,key_continue.duration,cued_recall_2.started,text_enter_3.started,key_continue_2.started,cued_recall_2.stopped,recalled_attr2,key_continue_2.keys,key_resp_8.started,key_resp_8.keys,key_resp_8.rt,key_resp_8.duration,condition,date,expName,psychopyVersion,frameRate,participant,expStart,
,,,,,,,,,,,,,,,,,,,,,,,,,,,,,0.1166622000746429,0.11672970000654459,0.11673790006898344,8.952971899881959,,,,,,,,,,,,,,,,,,,,,,,,,,,,,,,,,,,,,3,,,,,,,,,,,,,,,,,,,,,,,,,,,,,,,,,,,,,,,,,,,,,,,,,,,,,,,,,,,,,,,,,,,,,,3,2023-12-07_10h34.24.348,watkins1,2023.2.3,99.75410613730513,52,2023-12-07 10h34.30.914276 +0000,
,,,,,,,,,,,,,,,,,,,,,,,,,,,,,,,,,8.953020700020716,65.61390540003777,,,,,,,,,,,,,,,,,,,,,,,,,,,,,,,,,,,3,,,,,,,,,,,,,,,,,,,,,,,,,,,,,,,,,,,,,,,,,,,,,,,,,,,,,,,,,,,,,,,,,,,,,,3,2023-12-07_10h34.24.348,watkins1,2023.2.3,99.75410613730513,52,2023-12-07 10h34.30.914276 +0000,
,,,0,0,0,0,,,,,,,,,,,,,,,,,,,,,66.62751889997162,,,,,,,,65.61392439994961,66.61754689994268,73.11132490006275,73.60274309990928,67.10958210006356,73.11115540005267,2,1.5305643999017775,None,73.60275429999456,79.61173760006204,2,1.5305643999017775,None,79.61203640000895,80.10325649986044,80.1032674999442,86.1093327999115,vergnügt,None,None,86.10956209991127,86.10958569985814,86.10959280002862,86.10967879998498,,,,,,,,,,3,,,,,,,,,,,,,,,,,,,,,,,,,,,,,,,,,,,,,,,,,,,,,,,,,,,,,,,,,,,,,,,,,,,,,,3,2023-12-07_10h34.24.348,watkins1,2023.2.3,99.75410613730513,52,2023-12-07 10h34.30.914276 +0000,
,,,,,,,,,,,,,,,,,,,,,,,,,,,,,,,,,,,,,,,,,,,,,,,,,,,,,,,,,,,,,86.10979859996587,92.28528269985691,,,,,,,3,,,,,,,,,,,,,,,,,,,,,,,,,,,,,,,,,,,,,,,,,,,,,,,,,,,,,,,,,,,,,,,,,,,,,,3,2023-12-07_10h34.24.348,watkins1,2023.2.3,99.75410613730513,52,2023-12-07 10h34.30.914276 +0000,
,,,,,,,0,0,0,0,,,,,,,,,,,,,,,,,93.29917829995975,,,,,,,,92.2853000999894,93.2892686999403,93.28979409998283,93.78122949996032,,,1,2.1883737000171095,,,,,,,,,,,,,,,,,,,,,93.78124130005017,99.78973659989424,Uhr,blass,"['Uhr', 'blass']",test_adj,3,"['Uhr', 'Rucksack', 'Tasse', 'Telefon', 'Socke', 'Löffel', 'Hut', 'Fahrrad', 'Schlüssel', 'Kerze', 'Vase', 'Blume', 'Brille', 'Lampe', 'Würfel', 'Eimer', 'Kiste', 'Buch', 'Ring', 'Schere', 'Kamera', 'Geige', 'Jacke', 'Trommel', 'Kette', 'Flasche', 'Tasche', 'Hammer', 'Stift', 'Bürste']",['blass'],1,2.1883737000171095,None,,,,,,,,,,,,,,,,,,,,,,,,,,,,,,,,,,,,,,,,,,,,,,,,,,,,,,,,,,,,,,,,,3,2023-12-07_10h34.24.348,watkins1,2023.2.3,99.75410613730513,52,2023-12-07 10h34.30.914276 +0000,
,,,,,,,1,0,1,0,,,,,,,,,,,,,,,,,99.79921599989757,,,,,,,,,,99.7904070999939,100.28114510001615,,,1,1.777160899946466,,,,,,,,,,,,,,,,,,,,,100.28115599998273,106.28343499987386,Rucksack,kratzig,"['Rucksack', 'kratzig']",restudy,3,"['Uhr', 'Rucksack', 'Tasse', 'Telefon', 'Socke', 'Löffel', 'Hut', 'Fahrrad', 'Schlüssel', 'Kerze', 'Vase', 'Blume', 'Brille', 'Lampe', 'Würfel', 'Eimer', 'Kiste', 'Buch', 'Ring', 'Schere', 'Kamera', 'Geige', 'Jacke', 'Trommel', 'Kette', 'Flasche', 'Tasche', 'Hammer', 'Stift', 'Bürste']","['blass', 'kratzig']",1,1.777160899946466,None,,,,,,,,,,,,,,,,,,,,,,,,,,,,,,,,,,,,,,,,,,,,,,,,,,,,,,,,,,,,,,,,,3,2023-12-07_10h34.24.348,watkins1,2023.2.3,99.75410613730513,52,2023-12-07 10h34.30.914276 +0000,
,,,,,,,2,0,2,0,,,,,,,,,,,,,,,,,106.29301599995233,,,,,,,,,,106.28397340001538,106.77513489988633,,,2,2.4442513999529183,,,,,,,,,,,,,,,,,,,,,106.77514569996856,112.78447610000148,Tasse,teuer,"['Tasse', 'teuer']",restudy,3,"['Uhr', 'Rucksack', 'Tasse', 'Telefon', 'Socke', 'Löffel', 'Hut', 'Fahrrad', 'Schlüssel', 'Kerze', 'Vase', 'Blume', 'Brille', 'Lampe', 'Würfel', 'Eimer', 'Kiste', 'Buch', 'Ring', 'Schere', 'Kamera', 'Geige', 'Jacke', 'Trommel', 'Kette', 'Flasche', 'Tasche', 'Hammer', 'Stift', 'Bürste']","['blass', 'kratzig', 'teuer']",2,2.4442513999529183,None,,,,,,,,,,,,,,,,,,,,,,,,,,,,,,,,,,,,,,,,,,,,,,,,,,,,,,,,,,,,,,,,,3,2023-12-07_10h34.24.348,watkins1,2023.2.3,99.75410613730513,52,2023-12-07 10h34.30.914276 +0000,
,,,,,,,3,0,3,0,,,,,,,,,,,,,,,,,112.79394209990278,,,,,,,,,,112.7850094998721,113.27593669993803,,,1,1.8784368999768049,,,,,,,,,,,,,,,,,,,,,113.27594750002027,119.28398180007935,Telefon,sportlich,"['Telefon', 'sportlich']",test_adj,3,"['Uhr', 'Rucksack', 'Tasse', 'Telefon', 'Socke', 'Löffel', 'Hut', 'Fahrrad', 'Schlüssel', 'Kerze', 'Vase', 'Blume', 'Brille', 'Lampe', 'Würfel', 'Eimer', 'Kiste', 'Buch', 'Ring', 'Schere', 'Kamera', 'Geige', 'Jacke', 'Trommel', 'Kette', 'Flasche', 'Tasche', 'Hammer', 'Stift', 'Bürste']","['blass', 'kratzig', 'teuer', 'sportlich']",1,1.8784368999768049,None,,,,,,,,,,,,,,,,,,,,,,,,,,,,,,,,,,,,,,,,,,,,,,,,,,,,,,,,,,,,,,,,,3,2023-12-07_10h34.24.348,watkins1,2023.2.3,99.75410613730513,52,2023-12-07 10h34.30.914276 +0000,
,,,,,,,4,0,4,0,,,,,,,,,,,,,,,,,119.29341070004739,,,,,,,,,,119.28450950002298,119.77562689990737,,,2,2.635644600028172,,,,,,,,,,,,,,,,,,,,,119.77571379998699,125.78516949992627,Socke,klobig,"['Socke', 'klobig']",restudy,3,"['Uhr', 'Rucksack', 'Tasse', 'Telefon', 'Socke', 'Löffel', 'Hut', 'Fahrrad', 'Schlüssel', 'Kerze', 'Vase', 'Blume', 'Brille', 'Lampe', 'Würfel', 'Eimer', 'Kiste', 'Buch', 'Ring', 'Schere', 'Kamera', 'Geige', 'Jacke', 'Trommel', 'Kette', 'Flasche', 'Tasche', 'Hammer', 'Stift', 'Bürste']","['blass', 'kratzig', 'teuer', 'sportlich', 'klobig']",2,2.635644600028172,None,,,,,,,,,,,,,,,,,,,,,,,,,,,,,,,,,,,,,,,,,,,,,,,,,,,,,,,,,,,,,,,,,3,2023-12-07_10h34.24.348,watkins1,2023.2.3,99.75410613730513,52,2023-12-07 10h34.30.914276 +0000,
,,,,,,,5,0,5,0,,,,,,,,,,,,,,,,,125.79465439985506,,,,,,,,,,125.78570830007084,126.27679009991698,,,3,2.469934199936688,,,,,,,,,,,,,,,,,,,,,126.27680079988204,132.28096730005927,Löffel,lustig,"['Löffel', 'lustig']",test_adj,3,"['Uhr', 'Rucksack', 'Tasse', 'Telefon', 'Socke', 'Löffel', 'Hut', 'Fahrrad', 'Schlüssel', 'Kerze', 'Vase', 'Blume', 'Brille', 'Lampe', 'Würfel', 'Eimer', 'Kiste', 'Buch', 'Ring', 'Schere', 'Kamera', 'Geige', 'Jacke', 'Trommel', 'Kette', 'Flasche', 'Tasche', 'Hammer', 'Stift', 'Bürste']","['blass', 'kratzig', 'teuer', 'sportlich', 'klobig', 'lustig']",3,2.469934199936688,None,,,,,,,,,,,,,,,,,,,,,,,,,,,,,,,,,,,,,,,,,,,,,,,,,,,,,,,,,,,,,,,,,3,2023-12-07_10h34.24.348,watkins1,2023.2.3,99.75410613730513,52,2023-12-07 10h34.30.914276 +0000,
,,,,,,,6,0,6,0,,,,,,,,,,,,,,,,,132.29043819988146,,,,,,,,,,132.28150719986297,132.77249070000835,,,2,2.902457899879664,,,,,,,,,,,,,,,,,,,,,132.77250209986232,138.77349959989078,Hut,niedlich,"['Hut', 'niedlich']",restudy,3,"['Uhr', 'Rucksack', 'Tasse', 'Telefon', 'Socke', 'Löffel', 'Hut', 'Fahrrad', 'Schlüssel', 'Kerze', 'Vase', 'Blume', 'Brille', 'Lampe', 'Würfel', 'Eimer', 'Kiste', 'Buch', 'Ring', 'Schere', 'Kamera', 'Geige', 'Jacke', 'Trommel', 'Kette', 'Flasche', 'Tasche', 'Hammer', 'Stift', 'Bürste']","['blass', 'kratzig', 'teuer', 'sportlich', 'klobig', 'lustig', 'niedlich']",2,2.902457899879664,None,,,,,,,,,,,,,,,,,,,,,,,,,,,,,,,,,,,,,,,,,,,,,,,,,,,,,,,,,,,,,,,,,3,2023-12-07_10h34.24.348,watkins1,2023.2.3,99.75410613730513,52,2023-12-07 10h34.30.914276 +0000,
,,,,,,,7,0,7,0,,,,,,,,,,,,,,,,,138.78296909993514,,,,,,,,,,138.7740273999516,139.2650385000743,,,2,2.7146883998066187,,,,,,,,,,,,,,,,,,,,,139.26504840003327,145.27413469995372,Fahrrad,lang,"['Fahrrad', 'lang']",test_adj,3,"['Uhr', 'Rucksack', 'Tasse', 'Telefon', 'Socke', 'Löffel', 'Hut', 'Fahrrad', 'Schlüssel', 'Kerze', 'Vase', 'Blume', 'Brille', 'Lampe', 'Würfel', 'Eimer', 'Kiste', 'Buch', 'Ring', 'Schere', 'Kamera', 'Geige', 'Jacke', 'Trommel', 'Kette', 'Flasche', 'Tasche', 'Hammer', 'Stift', 'Bürste']","['blass', 'kratzig', 'teuer', 'sportlich', 'klobig', 'lustig', 'niedlich', 'lang']",2,2.7146883998066187,None,,,,,,,,,,,,,,,,,,,,,,,,,,,,,,,,,,,,,,,,,,,,,,,,,,,,,,,,,,,,,,,,,3,2023-12-07_10h34.24.348,watkins1,2023.2.3,99.75410613730513,52,2023-12-07 10h34.30.914276 +0000,
,,,,,,,8,0,8,0,,,,,,,,,,,,,,,,,145.2837246998679,,,,,,,,,,145.2746627999004,145.76572129991837,,,3,2.6061863000504673,,,,,,,,,,,,,,,,,,,,,145.76573159988038,151.76970759988762,Schlüssel,strahlend,"['Schlüssel', 'strahlend']",restudy,3,"['Uhr', 'Rucksack', 'Tasse', 'Telefon', 'Socke', 'Löffel', 'Hut', 'Fahrrad', 'Schlüssel', 'Kerze', 'Vase', 'Blume', 'Brille', 'Lampe', 'Würfel', 'Eimer', 'Kiste', 'Buch', 'Ring', 'Schere', 'Kamera', 'Geige', 'Jacke', 'Trommel', 'Kette', 'Flasche', 'Tasche', 'Hammer', 'Stift', 'Bürste']","['blass', 'kratzig', 'teuer', 'sportlich', 'klobig', 'lustig', 'niedlich', 'lang', 'strahlend']",3,2.6061863000504673,None,,,,,,,,,,,,,,,,,,,,,,,,,,,,,,,,,,,,,,,,,,,,,,,,,,,,,,,,,,,,,,,,,3,2023-12-07_10h34.24.348,watkins1,2023.2.3,99.75410613730513,52,2023-12-07 10h34.30.914276 +0000,
,,,,,,,9,0,9,0,,,,,,,,,,,,,,,,,151.77917039999738,,,,,,,,,,151.77023770008236,152.26101949997246,,,2,2.3980793999508023,,,,,,,,,,,,,,,,,,,,,152.2610303000547,158.26740240002982,Kerze,kurz,"['Kerze', 'kurz']",test_adj,3,"['Uhr', 'Rucksack', 'Tasse', 'Telefon', 'Socke', 'Löffel', 'Hut', 'Fahrrad', 'Schlüssel', 'Kerze', 'Vase', 'Blume', 'Brille', 'Lampe', 'Würfel', 'Eimer', 'Kiste', 'Buch', 'Ring', 'Schere', 'Kamera', 'Geige', 'Jacke', 'Trommel', 'Kette', 'Flasche', 'Tasche', 'Hammer', 'Stift', 'Bürste']","['blass', 'kratzig', 'teuer', 'sportlich', 'klobig', 'lustig', 'niedlich', 'lang', 'strahlend', 'kurz']",2,2.3980793999508023,None,,,,,,,,,,,,,,,,,,,,,,,,,,,,,,,,,,,,,,,,,,,,,,,,,,,,,,,,,,,,,,,,,3,2023-12-07_10h34.24.348,watkins1,2023.2.3,99.75410613730513,52,2023-12-07 10h34.30.914276 +0000,
,,,,,,,10,0,10,0,,,,,,,,,,,,,,,,,158.2769845998846,,,,,,,,,,158.2679248000495,158.75904749985784,,,3,2.292841099901125,,,,,,,,,,,,,,,,,,,,,158.75905829994008,164.76285559986718,Vase,elegant,"['Vase', 'elegant']",restudy,3,"['Uhr', 'Rucksack', 'Tasse', 'Telefon', 'Socke', 'Löffel', 'Hut', 'Fahrrad', 'Schlüssel', 'Kerze', 'Vase', 'Blume', 'Brille', 'Lampe', 'Würfel', 'Eimer', 'Kiste', 'Buch', 'Ring', 'Schere', 'Kamera', 'Geige', 'Jacke', 'Trommel', 'Kette', 'Flasche', 'Tasche', 'Hammer', 'Stift', 'Bürste']","['blass', 'kratzig', 'teuer', 'sportlich', 'klobig', 'lustig', 'niedlich', 'lang', 'strahlend', 'kurz', 'elegant']",3,2.292841099901125,None,,,,,,,,,,,,,,,,,,,,,,,,,,,,,,,,,,,,,,,,,,,,,,,,,,,,,,,,,,,,,,,,,3,2023-12-07_10h34.24.348,watkins1,2023.2.3,99.75410613730513,52,2023-12-07 10h34.30.914276 +0000,
,,,,,,,11,0,11,0,,,,,,,,,,,,,,,,,164.77239589998499,,,,,,,,,,164.76338739995845,165.25449940003455,,,1,1.8282772998791188,,,,,,,,,,,,,,,,,,,,,165.25451039988548,171.2557206999045,Blume,durchsichtig,"['Blume', 'durchsichtig']",restudy,3,"['Uhr', 'Rucksack', 'Tasse', 'Telefon', 'Socke', 'Löffel', 'Hut', 'Fahrrad', 'Schlüssel', 'Kerze', 'Vase', 'Blume', 'Brille', 'Lampe', 'Würfel', 'Eimer', 'Kiste', 'Buch', 'Ring', 'Schere', 'Kamera', 'Geige', 'Jacke', 'Trommel', 'Kette', 'Flasche', 'Tasche', 'Hammer', 'Stift', 'Bürste']","['blass', 'kratzig', 'teuer', 'sportlich', 'klobig', 'lustig', 'niedlich', 'lang', 'strahlend', 'kurz', 'elegant', 'durchsichtig']",1,1.8282772998791188,None,,,,,,,,,,,,,,,,,,,,,,,,,,,,,,,,,,,,,,,,,,,,,,,,,,,,,,,,,,,,,,,,,3,2023-12-07_10h34.24.348,watkins1,2023.2.3,99.75410613730513,52,2023-12-07 10h34.30.914276 +0000,
,,,,,,,12,0,12,0,,,,,,,,,,,,,,,,,171.2651976000052,,,,,,,,,,171.2562472000718,171.74727190006524,,,1,3.168814699864015,,,,,,,,,,,,,,,,,,,,,171.74728249991313,177.75589470006526,Brille,dick,"['Brille', 'dick']",test_adj,3,"['Uhr', 'Rucksack', 'Tasse', 'Telefon', 'Socke', 'Löffel', 'Hut', 'Fahrrad', 'Schlüssel', 'Kerze', 'Vase', 'Blume', 'Brille', 'Lampe', 'Würfel', 'Eimer', 'Kiste', 'Buch', 'Ring', 'Schere', 'Kamera', 'Geige', 'Jacke', 'Trommel', 'Kette', 'Flasche', 'Tasche', 'Hammer', 'Stift', 'Bürste']","['blass', 'kratzig', 'teuer', 'sportlich', 'klobig', 'lustig', 'niedlich', 'lang', 'strahlend', 'kurz', 'elegant', 'durchsichtig', 'dick']",1,3.168814699864015,None,,,,,,,,,,,,,,,,,,,,,,,,,,,,,,,,,,,,,,,,,,,,,,,,,,,,,,,,,,,,,,,,,3,2023-12-07_10h34.24.348,watkins1,2023.2.3,99.75410613730513,52,2023-12-07 10h34.30.914276 +0000,
,,,,,,,13,0,13,0,,,,,,,,,,,,,,,,,177.76532989996485,,,,,,,,,,177.75642019999214,178.24742030003108,,,2,3.5245041998568922,,,,,,,,,,,,,,,,,,,,,178.2474313999992,184.25143969990313,Lampe,breit,"['Lampe', 'breit']",test_adj,3,"['Uhr', 'Rucksack', 'Tasse', 'Telefon', 'Socke', 'Löffel', 'Hut', 'Fahrrad', 'Schlüssel', 'Kerze', 'Vase', 'Blume', 'Brille', 'Lampe', 'Würfel', 'Eimer', 'Kiste', 'Buch', 'Ring', 'Schere', 'Kamera', 'Geige', 'Jacke', 'Trommel', 'Kette', 'Flasche', 'Tasche', 'Hammer', 'Stift', 'Bürste']","['blass', 'kratzig', 'teuer', 'sportlich', 'klobig', 'lustig', 'niedlich', 'lang', 'strahlend', 'kurz', 'elegant', 'durchsichtig', 'dick', 'breit']",2,3.5245041998568922,None,,,,,,,,,,,,,,,,,,,,,,,,,,,,,,,,,,,,,,,,,,,,,,,,,,,,,,,,,,,,,,,,,3,2023-12-07_10h34.24.348,watkins1,2023.2.3,99.75410613730513,52,2023-12-07 10h34.30.914276 +0000,
,,,,,,,14,0,14,0,,,,,,,,,,,,,,,,,184.26101429993287,,,,,,,,,,184.2519685998559,184.74302980001085,,,1,1.3401128000114113,,,,,,,,,,,,,,,,,,,,,184.74304069997743,190.74464929988608,Würfel,hübsch,"['Würfel', 'hübsch']",test_adj,3,"['Uhr', 'Rucksack', 'Tasse', 'Telefon', 'Socke', 'Löffel', 'Hut', 'Fahrrad', 'Schlüssel', 'Kerze', 'Vase', 'Blume', 'Brille', 'Lampe', 'Würfel', 'Eimer', 'Kiste', 'Buch', 'Ring', 'Schere', 'Kamera', 'Geige', 'Jacke', 'Trommel', 'Kette', 'Flasche', 'Tasche', 'Hammer', 'Stift', 'Bürste']","['blass', 'kratzig', 'teuer', 'sportlich', 'klobig', 'lustig', 'niedlich', 'lang', 'strahlend', 'kurz', 'elegant', 'durchsichtig', 'dick', 'breit', 'hübsch']",1,1.3401128000114113,None,,,,,,,,,,,,,,,,,,,,,,,,,,,,,,,,,,,,,,,,,,,,,,,,,,,,,,,,,,,,,,,,,3,2023-12-07_10h34.24.348,watkins1,2023.2.3,99.75410613730513,52,2023-12-07 10h34.30.914276 +0000,
,,,,,,,15,0,15,0,,,,,,,,,,,,,,,,,190.75407469994389,,,,,,,,,,190.7451803998556,191.2361812000163,,,3,1.6072275000624359,,,,,,,,,,,,,,,,,,,,,191.23619139986113,197.24225290003233,Eimer,gut,"['Eimer', 'gut']",test_adj,3,"['Uhr', 'Rucksack', 'Tasse', 'Telefon', 'Socke', 'Löffel', 'Hut', 'Fahrrad', 'Schlüssel', 'Kerze', 'Vase', 'Blume', 'Brille', 'Lampe', 'Würfel', 'Eimer', 'Kiste', 'Buch', 'Ring', 'Schere', 'Kamera', 'Geige', 'Jacke', 'Trommel', 'Kette', 'Flasche', 'Tasche', 'Hammer', 'Stift', 'Bürste']","['blass', 'kratzig', 'teuer', 'sportlich', 'klobig', 'lustig', 'niedlich', 'lang', 'strahlend', 'kurz', 'elegant', 'durchsichtig', 'dick', 'breit', 'hübsch', 'gut']",3,1.6072275000624359,None,,,,,,,,,,,,,,,,,,,,,,,,,,,,,,,,,,,,,,,,,,,,,,,,,,,,,,,,,,,,,,,,,3,2023-12-07_10h34.24.348,watkins1,2023.2.3,99.75410613730513,52,2023-12-07 10h34.30.914276 +0000,
,,,,,,,16,0,16,0,,,,,,,,,,,,,,,,,197.251722099958,,,,,,,,,,197.2428033000324,197.73376509989612,,,1,2.2702893000096083,,,,,,,,,,,,,,,,,,,,,197.73377559985965,203.74245309992693,Kiste,zart,"['Kiste', 'zart']",restudy,3,"['Uhr', 'Rucksack', 'Tasse', 'Telefon', 'Socke', 'Löffel', 'Hut', 'Fahrrad', 'Schlüssel', 'Kerze', 'Vase', 'Blume', 'Brille', 'Lampe', 'Würfel', 'Eimer', 'Kiste', 'Buch', 'Ring', 'Schere', 'Kamera', 'Geige', 'Jacke', 'Trommel', 'Kette', 'Flasche', 'Tasche', 'Hammer', 'Stift', 'Bürste']","['blass', 'kratzig', 'teuer', 'sportlich', 'klobig', 'lustig', 'niedlich', 'lang', 'strahlend', 'kurz', 'elegant', 'durchsichtig', 'dick', 'breit', 'hübsch', 'gut', 'zart']",1,2.2702893000096083,None,,,,,,,,,,,,,,,,,,,,,,,,,,,,,,,,,,,,,,,,,,,,,,,,,,,,,,,,,,,,,,,,,3,2023-12-07_10h34.24.348,watkins1,2023.2.3,99.75410613730513,52,2023-12-07 10h34.30.914276 +0000,
,,,,,,,17,0,17,0,,,,,,,,,,,,,,,,,203.7519207999576,,,,,,,,,,203.74299889989197,204.2339498999063,,,3,2.898047599941492,,,,,,,,,,,,,,,,,,,,,204.23396069998853,210.2425011000596,Buch,verspielt,"['Buch', 'verspielt']",restudy,3,"['Uhr', 'Rucksack', 'Tasse', 'Telefon', 'Socke', 'Löffel', 'Hut', 'Fahrrad', 'Schlüssel', 'Kerze', 'Vase', 'Blume', 'Brille', 'Lampe', 'Würfel', 'Eimer', 'Kiste', 'Buch', 'Ring', 'Schere', 'Kamera', 'Geige', 'Jacke', 'Trommel', 'Kette', 'Flasche', 'Tasche', 'Hammer', 'Stift', 'Bürste']","['blass', 'kratzig', 'teuer', 'sportlich', 'klobig', 'lustig', 'niedlich', 'lang', 'strahlend', 'kurz', 'elegant', 'durchsichtig', 'dick', 'breit', 'hübsch', 'gut', 'zart', 'verspielt']",3,2.898047599941492,None,,,,,,,,,,,,,,,,,,,,,,,,,,,,,,,,,,,,,,,,,,,,,,,,,,,,,,,,,,,,,,,,,3,2023-12-07_10h34.24.348,watkins1,2023.2.3,99.75410613730513,52,2023-12-07 10h34.30.914276 +0000,
,,,,,,,18,0,18,0,,,,,,,,,,,,,,,,,210.252053800039,,,,,,,,,,210.24302779999562,210.73428219999187,,,3,2.6378960001748055,,,,,,,,,,,,,,,,,,,,,210.73429289995693,216.73666929989122,Ring,neu,"['Ring', 'neu']",restudy,3,"['Uhr', 'Rucksack', 'Tasse', 'Telefon', 'Socke', 'Löffel', 'Hut', 'Fahrrad', 'Schlüssel', 'Kerze', 'Vase', 'Blume', 'Brille', 'Lampe', 'Würfel', 'Eimer', 'Kiste', 'Buch', 'Ring', 'Schere', 'Kamera', 'Geige', 'Jacke', 'Trommel', 'Kette', 'Flasche', 'Tasche', 'Hammer', 'Stift', 'Bürste']","['blass', 'kratzig', 'teuer', 'sportlich', 'klobig', 'lustig', 'niedlich', 'lang', 'strahlend', 'kurz', 'elegant', 'durchsichtig', 'dick', 'breit', 'hübsch', 'gut', 'zart', 'verspielt', 'neu']",3,2.6378960001748055,None,,,,,,,,,,,,,,,,,,,,,,,,,,,,,,,,,,,,,,,,,,,,,,,,,,,,,,,,,,,,,,,,,3,2023-12-07_10h34.24.348,watkins1,2023.2.3,99.75410613730513,52,2023-12-07 10h34.30.914276 +0000,
,,,,,,,19,0,19,0,,,,,,,,,,,,,,,,,216.74625289998949,,,,,,,,,,216.73719380004331,217.22827359987423,,,3,3.11827649991028,,,,,,,,,,,,,,,,,,,,,217.22828439995646,223.22991949995048,Schere,glänzend,"['Schere', 'glänzend']",test_adj,3,"['Uhr', 'Rucksack', 'Tasse', 'Telefon', 'Socke', 'Löffel', 'Hut', 'Fahrrad', 'Schlüssel', 'Kerze', 'Vase', 'Blume', 'Brille', 'Lampe', 'Würfel', 'Eimer', 'Kiste', 'Buch', 'Ring', 'Schere', 'Kamera', 'Geige', 'Jacke', 'Trommel', 'Kette', 'Flasche', 'Tasche', 'Hammer', 'Stift', 'Bürste']","['blass', 'kratzig', 'teuer', 'sportlich', 'klobig', 'lustig', 'niedlich', 'lang', 'strahlend', 'kurz', 'elegant', 'durchsichtig', 'dick', 'breit', 'hübsch', 'gut', 'zart', 'verspielt', 'neu', 'glänzend']",3,3.11827649991028,None,,,,,,,,,,,,,,,,,,,,,,,,,,,,,,,,,,,,,,,,,,,,,,,,,,,,,,,,,,,,,,,,,3,2023-12-07_10h34.24.348,watkins1,2023.2.3,99.75410613730513,52,2023-12-07 10h34.30.914276 +0000,
,,,,,,,20,0,20,0,,,,,,,,,,,,,,,,,223.2393475000281,,,,,,,,,,223.23045079992153,223.7215215000324,,,1,3.177838899893686,,,,,,,,,,,,,,,,,,,,,223.72153249988332,229.72303849994205,Kamera,winzig,"['Kamera', 'winzig']",restudy,3,"['Uhr', 'Rucksack', 'Tasse', 'Telefon', 'Socke', 'Löffel', 'Hut', 'Fahrrad', 'Schlüssel', 'Kerze', 'Vase', 'Blume', 'Brille', 'Lampe', 'Würfel', 'Eimer', 'Kiste', 'Buch', 'Ring', 'Schere', 'Kamera', 'Geige', 'Jacke', 'Trommel', 'Kette', 'Flasche', 'Tasche', 'Hammer', 'Stift', 'Bürste']","['blass', 'kratzig', 'teuer', 'sportlich', 'klobig', 'lustig', 'niedlich', 'lang', 'strahlend', 'kurz', 'elegant', 'durchsichtig', 'dick', 'breit', 'hübsch', 'gut', 'zart', 'verspielt', 'neu', 'glänzend', 'winzig']",1,3.177838899893686,None,,,,,,,,,,,,,,,,,,,,,,,,,,,,,,,,,,,,,,,,,,,,,,,,,,,,,,,,,,,,,,,,,3,2023-12-07_10h34.24.348,watkins1,2023.2.3,99.75410613730513,52,2023-12-07 10h34.30.914276 +0000,
,,,,,,,21,0,21,0,,,,,,,,,,,,,,,,,229.7324906999711,,,,,,,,,,229.72356999991462,230.21445179986767,,,2,1.788539599860087,,,,,,,,,,,,,,,,,,,,,230.2144629000686,236.22299979999661,Geige,matt,"['Geige', 'matt']",restudy,3,"['Uhr', 'Rucksack', 'Tasse', 'Telefon', 'Socke', 'Löffel', 'Hut', 'Fahrrad', 'Schlüssel', 'Kerze', 'Vase', 'Blume', 'Brille', 'Lampe', 'Würfel', 'Eimer', 'Kiste', 'Buch', 'Ring', 'Schere', 'Kamera', 'Geige', 'Jacke', 'Trommel', 'Kette', 'Flasche', 'Tasche', 'Hammer', 'Stift', 'Bürste']","['blass', 'kratzig', 'teuer', 'sportlich', 'klobig', 'lustig', 'niedlich', 'lang', 'strahlend', 'kurz', 'elegant', 'durchsichtig', 'dick', 'breit', 'hübsch', 'gut', 'zart', 'verspielt', 'neu', 'glänzend', 'winzig', 'matt']",2,1.788539599860087,None,,,,,,,,,,,,,,,,,,,,,,,,,,,,,,,,,,,,,,,,,,,,,,,,,,,,,,,,,,,,,,,,,3,2023-12-07_10h34.24.348,watkins1,2023.2.3,99.75410613730513,52,2023-12-07 10h34.30.914276 +0000,
,,,,,,,22,0,22,0,,,,,,,,,,,,,,,,,236.2325309999287,,,,,,,,,,236.22357979998924,236.71455749985762,,,1,3.1603528999257833,,,,,,,,,,,,,,,,,,,,,236.71456840005703,242.71965510002337,Jacke,hässlich,"['Jacke', 'hässlich']",test_adj,3,"['Uhr', 'Rucksack', 'Tasse', 'Telefon', 'Socke', 'Löffel', 'Hut', 'Fahrrad', 'Schlüssel', 'Kerze', 'Vase', 'Blume', 'Brille', 'Lampe', 'Würfel', 'Eimer', 'Kiste', 'Buch', 'Ring', 'Schere', 'Kamera', 'Geige', 'Jacke', 'Trommel', 'Kette', 'Flasche', 'Tasche', 'Hammer', 'Stift', 'Bürste']","['blass', 'kratzig', 'teuer', 'sportlich', 'klobig', 'lustig', 'niedlich', 'lang', 'strahlend', 'kurz', 'elegant', 'durchsichtig', 'dick', 'breit', 'hübsch', 'gut', 'zart', 'verspielt', 'neu', 'glänzend', 'winzig', 'matt', 'hässlich']",1,3.1603528999257833,None,,,,,,,,,,,,,,,,,,,,,,,,,,,,,,,,,,,,,,,,,,,,,,,,,,,,,,,,,,,,,,,,,3,2023-12-07_10h34.24.348,watkins1,2023.2.3,99.75410613730513,52,2023-12-07 10h34.30.914276 +0000,
,,,,,,,23,0,23,0,,,,,,,,,,,,,,,,,242.72914030007087,,,,,,,,,,242.7201872000005,243.2112801000476,,,3,2.1123918001540005,,,,,,,,,,,,,,,,,,,,,243.2112918999046,249.2189078000374,Trommel,robust,"['Trommel', 'robust']",restudy,3,"['Uhr', 'Rucksack', 'Tasse', 'Telefon', 'Socke', 'Löffel', 'Hut', 'Fahrrad', 'Schlüssel', 'Kerze', 'Vase', 'Blume', 'Brille', 'Lampe', 'Würfel', 'Eimer', 'Kiste', 'Buch', 'Ring', 'Schere', 'Kamera', 'Geige', 'Jacke', 'Trommel', 'Kette', 'Flasche', 'Tasche', 'Hammer', 'Stift', 'Bürste']","['blass', 'kratzig', 'teuer', 'sportlich', 'klobig', 'lustig', 'niedlich', 'lang', 'strahlend', 'kurz', 'elegant', 'durchsichtig', 'dick', 'breit', 'hübsch', 'gut', 'zart', 'verspielt', 'neu', 'glänzend', 'winzig', 'matt', 'hässlich', 'robust']",3,2.1123918001540005,None,,,,,,,,,,,,,,,,,,,,,,,,,,,,,,,,,,,,,,,,,,,,,,,,,,,,,,,,,,,,,,,,,3,2023-12-07_10h34.24.348,watkins1,2023.2.3,99.75410613730513,52,2023-12-07 10h34.30.914276 +0000,
,,,,,,,24,0,24,0,,,,,,,,,,,,,,,,,249.22837399994023,,,,,,,,,,249.21944850008003,249.71041519986466,,,1,1.6458038000855595,,,,,,,,,,,,,,,,,,,,,249.71042650006711,255.71610590000637,Kette,nass,"['Kette', 'nass']",restudy,3,"['Uhr', 'Rucksack', 'Tasse', 'Telefon', 'Socke', 'Löffel', 'Hut', 'Fahrrad', 'Schlüssel', 'Kerze', 'Vase', 'Blume', 'Brille', 'Lampe', 'Würfel', 'Eimer', 'Kiste', 'Buch', 'Ring', 'Schere', 'Kamera', 'Geige', 'Jacke', 'Trommel', 'Kette', 'Flasche', 'Tasche', 'Hammer', 'Stift', 'Bürste']","['blass', 'kratzig', 'teuer', 'sportlich', 'klobig', 'lustig', 'niedlich', 'lang', 'strahlend', 'kurz', 'elegant', 'durchsichtig', 'dick', 'breit', 'hübsch', 'gut', 'zart', 'verspielt', 'neu', 'glänzend', 'winzig', 'matt', 'hässlich', 'robust', 'nass']",1,1.6458038000855595,None,,,,,,,,,,,,,,,,,,,,,,,,,,,,,,,,,,,,,,,,,,,,,,,,,,,,,,,,,,,,,,,,,3,2023-12-07_10h34.24.348,watkins1,2023.2.3,99.75410613730513,52,2023-12-07 10h34.30.914276 +0000,
,,,,,,,25,0,25,0,,,,,,,,,,,,,,,,,255.7256289999932,,,,,,,,,,255.71663629985414,256.20773219992407,,,3,1.4751372998580337,,,,,,,,,,,,,,,,,,,,,256.20774229988456,262.2085061999969,Flasche,groß,"['Flasche', 'groß']",test_adj,3,"['Uhr', 'Rucksack', 'Tasse', 'Telefon', 'Socke', 'Löffel', 'Hut', 'Fahrrad', 'Schlüssel', 'Kerze', 'Vase', 'Blume', 'Brille', 'Lampe', 'Würfel', 'Eimer', 'Kiste', 'Buch', 'Ring', 'Schere', 'Kamera', 'Geige', 'Jacke', 'Trommel', 'Kette', 'Flasche', 'Tasche', 'Hammer', 'Stift', 'Bürste']","['blass', 'kratzig', 'teuer', 'sportlich', 'klobig', 'lustig', 'niedlich', 'lang', 'strahlend', 'kurz', 'elegant', 'durchsichtig', 'dick', 'breit', 'hübsch', 'gut', 'zart', 'verspielt', 'neu', 'glänzend', 'winzig', 'matt', 'hässlich', 'robust', 'nass', 'groß']",3,1.4751372998580337,None,,,,,,,,,,,,,,,,,,,,,,,,,,,,,,,,,,,,,,,,,,,,,,,,,,,,,,,,,,,,,,,,,3,2023-12-07_10h34.24.348,watkins1,2023.2.3,99.75410613730513,52,2023-12-07 10h34.30.914276 +0000,
,,,,,,,26,0,26,0,,,,,,,,,,,,,,,,,262.2179849999957,,,,,,,,,,262.20904419990256,262.7001294000074,,,1,3.4475849999580532,,,,,,,,,,,,,,,,,,,,,262.70014069997706,268.7047951000277,Tasche,biegsam,"['Tasche', 'biegsam']",restudy,3,"['Uhr', 'Rucksack', 'Tasse', 'Telefon', 'Socke', 'Löffel', 'Hut', 'Fahrrad', 'Schlüssel', 'Kerze', 'Vase', 'Blume', 'Brille', 'Lampe', 'Würfel', 'Eimer', 'Kiste', 'Buch', 'Ring', 'Schere', 'Kamera', 'Geige', 'Jacke', 'Trommel', 'Kette', 'Flasche', 'Tasche', 'Hammer', 'Stift', 'Bürste']","['blass', 'kratzig', 'teuer', 'sportlich', 'klobig', 'lustig', 'niedlich', 'lang', 'strahlend', 'kurz', 'elegant', 'durchsichtig', 'dick', 'breit', 'hübsch', 'gut', 'zart', 'verspielt', 'neu', 'glänzend', 'winzig', 'matt', 'hässlich', 'robust', 'nass', 'groß', 'biegsam']",1,3.4475849999580532,None,,,,,,,,,,,,,,,,,,,,,,,,,,,,,,,,,,,,,,,,,,,,,,,,,,,,,,,,,,,,,,,,,3,2023-12-07_10h34.24.348,watkins1,2023.2.3,99.75410613730513,52,2023-12-07 10h34.30.914276 +0000,
,,,,,,,27,0,27,0,,,,,,,,,,,,,,,,,268.7142219999805,,,,,,,,,,268.70533389993943,269.1963448000606,,,2,2.0312727000564337,,,,,,,,,,,,,,,,,,,,,269.1963553999085,275.2055559998844,Hammer,dunkel,"['Hammer', 'dunkel']",test_adj,3,"['Uhr', 'Rucksack', 'Tasse', 'Telefon', 'Socke', 'Löffel', 'Hut', 'Fahrrad', 'Schlüssel', 'Kerze', 'Vase', 'Blume', 'Brille', 'Lampe', 'Würfel', 'Eimer', 'Kiste', 'Buch', 'Ring', 'Schere', 'Kamera', 'Geige', 'Jacke', 'Trommel', 'Kette', 'Flasche', 'Tasche', 'Hammer', 'Stift', 'Bürste']","['blass', 'kratzig', 'teuer', 'sportlich', 'klobig', 'lustig', 'niedlich', 'lang', 'strahlend', 'kurz', 'elegant', 'durchsichtig', 'dick', 'breit', 'hübsch', 'gut', 'zart', 'verspielt', 'neu', 'glänzend', 'winzig', 'matt', 'hässlich', 'robust', 'nass', 'groß', 'biegsam', 'dunkel']",2,2.0312727000564337,None,,,,,,,,,,,,,,,,,,,,,,,,,,,,,,,,,,,,,,,,,,,,,,,,,,,,,,,,,,,,,,,,,3,2023-12-07_10h34.24.348,watkins1,2023.2.3,99.75410613730513,52,2023-12-07 10h34.30.914276 +0000,
,,,,,,,28,0,28,0,,,,,,,,,,,,,,,,,275.2149883999955,,,,,,,,,,275.20608749985695,275.69716009986587,,,2,2.402554100146517,,,,,,,,,,,,,,,,,,,,,275.69717160006985,281.70704280002974,Stift,schmutzig,"['Stift', 'schmutzig']",test_adj,3,"['Uhr', 'Rucksack', 'Tasse', 'Telefon', 'Socke', 'Löffel', 'Hut', 'Fahrrad', 'Schlüssel', 'Kerze', 'Vase', 'Blume', 'Brille', 'Lampe', 'Würfel', 'Eimer', 'Kiste', 'Buch', 'Ring', 'Schere', 'Kamera', 'Geige', 'Jacke', 'Trommel', 'Kette', 'Flasche', 'Tasche', 'Hammer', 'Stift', 'Bürste']","['blass', 'kratzig', 'teuer', 'sportlich', 'klobig', 'lustig', 'niedlich', 'lang', 'strahlend', 'kurz', 'elegant', 'durchsichtig', 'dick', 'breit', 'hübsch', 'gut', 'zart', 'verspielt', 'neu', 'glänzend', 'winzig', 'matt', 'hässlich', 'robust', 'nass', 'groß', 'biegsam', 'dunkel', 'schmutzig']",2,2.402554100146517,None,,,,,,,,,,,,,,,,,,,,,,,,,,,,,,,,,,,,,,,,,,,,,,,,,,,,,,,,,,,,,,,,,3,2023-12-07_10h34.24.348,watkins1,2023.2.3,99.75410613730513,52,2023-12-07 10h34.30.914276 +0000,
,,,,,,,29,0,29,0,,,,,,,,,,,,,,,,,281.71650650002994,,,,,,,,,,281.707571499981,282.1987022999674,,,3,1.7566560001578182,,,,,,,,,,,,,,,,,,,,,282.19871330005117,288.20764639996924,Bürste,nachhaltig,"['Bürste', 'nachhaltig']",test_adj,3,"['Uhr', 'Rucksack', 'Tasse', 'Telefon', 'Socke', 'Löffel', 'Hut', 'Fahrrad', 'Schlüssel', 'Kerze', 'Vase', 'Blume', 'Brille', 'Lampe', 'Würfel', 'Eimer', 'Kiste', 'Buch', 'Ring', 'Schere', 'Kamera', 'Geige', 'Jacke', 'Trommel', 'Kette', 'Flasche', 'Tasche', 'Hammer', 'Stift', 'Bürste']","['blass', 'kratzig', 'teuer', 'sportlich', 'klobig', 'lustig', 'niedlich', 'lang', 'strahlend', 'kurz', 'elegant', 'durchsichtig', 'dick', 'breit', 'hübsch', 'gut', 'zart', 'verspielt', 'neu', 'glänzend', 'winzig', 'matt', 'hässlich', 'robust', 'nass', 'groß', 'biegsam', 'dunkel', 'schmutzig', 'nachhaltig']",3,1.7566560001578182,None,,,,,,,,,,,,,,,,,,,,,,,,,,,,,,,,,,,,,,,,,,,,,,,,,,,,,,,,,,,,,,,,,3,2023-12-07_10h34.24.348,watkins1,2023.2.3,99.75410613730513,52,2023-12-07 10h34.30.914276 +0000,
,,,,,,,,,,,0,0,0,0,,,,,,,,,,,,,288.21715319994837,,,,,,,,,,288.20851769996807,288.6994694999885,,,[],[],,,,,,,,,,,kurz,None,None,,,,,,,,,,Kerze,kurz,"['Kerze', 'kurz']",test_adj,3,,,,,,288.20844169985503,288.20849079987966,"['Kerze', 'Buch', 'Ring', 'Tasse', 'Kamera', 'Tasche', 'Blume', 'Schere', 'Schlüssel', 'Fahrrad', 'Bürste', 'Lampe', 'Hut', 'Socke', 'Vase', 'Kiste', 'Rucksack', 'Jacke', 'Kette', 'Flasche', 'Geige', 'Würfel', 'Uhr', 'Telefon', 'Trommel', 'Brille', 'Hammer', 'Eimer', 'Löffel', 'Stift']",288.6994811000768,288.7023024999071,None,288.702489499934,288.705183400074,None,288.70534290000796,288.7079745999072,None,288.70813299994916,0,294.7134358000476,294.71345090004615,294.7146353998687,,,,,,,,,,,,,,,,,,,,,,,,,,,,,,,,,,,,,,,,,,,,,,,,3,2023-12-07_10h34.24.348,watkins1,2023.2.3,99.75410613730513,52,2023-12-07 10h34.30.914276 +0000,
,,,,,,,,,,,1,0,1,0,,,,,,,,,,,,,294.72314770007506,,,,,,,,,,294.71496780007146,295.20535250008106,,,[],[],,,,,,,,,,,,None,None,,,,,,,,,,Buch,verspielt,"['Buch', 'verspielt']",restudy,3,,,,,,294.7148684998974,294.714925999986,"['Kerze', 'Buch', 'Ring', 'Tasse', 'Kamera', 'Tasche', 'Blume', 'Schere', 'Schlüssel', 'Fahrrad', 'Bürste', 'Lampe', 'Hut', 'Socke', 'Vase', 'Kiste', 'Rucksack', 'Jacke', 'Kette', 'Flasche', 'Geige', 'Würfel', 'Uhr', 'Telefon', 'Trommel', 'Brille', 'Hammer', 'Eimer', 'Löffel', 'Stift']",295.2053636999335,295.20782379992306,None,295.2079503000714,301.2106800999027,3,301.21107369987294,301.2137279000599,None,301.21384079987183,,301.21520109986886,301.21521280007437,301.2164527999703,3.507232000119984,None,,,,,,,,,,,,,,,,,,,,,,,,,,,,,,,,,,,,,,,,,,,,,,3,2023-12-07_10h34.24.348,watkins1,2023.2.3,99.75410613730513,52,2023-12-07 10h34.30.914276 +0000,
,,,,,,,,,,,2,0,2,0,,,,,,,,,,,,,301.22013540007174,,,,,,,,,,301.2167412999552,301.7121858999599,,,[],[],,,,,,,,,,,,None,None,,,,,,,,,,Ring,neu,"['Ring', 'neu']",restudy,3,,,,,,301.2166762999259,301.2167145998683,"['Kerze', 'Buch', 'Ring', 'Tasse', 'Kamera', 'Tasche', 'Blume', 'Schere', 'Schlüssel', 'Fahrrad', 'Bürste', 'Lampe', 'Hut', 'Socke', 'Vase', 'Kiste', 'Rucksack', 'Jacke', 'Kette', 'Flasche', 'Geige', 'Würfel', 'Uhr', 'Telefon', 'Trommel', 'Brille', 'Hammer', 'Eimer', 'Löffel', 'Stift']",301.71219759993255,301.71481569996104,None,301.714941999875,307.7213480998762,3,307.72166160005145,307.7241293999832,None,307.7242433000356,,307.7252825999167,307.72529440000653,307.7263217000291,2.9373082001693547,None,,,,,,,,,,,,,,,,,,,,,,,,,,,,,,,,,,,,,,,,,,,,,,3,2023-12-07_10h34.24.348,watkins1,2023.2.3,99.75410613730513,52,2023-12-07 10h34.30.914276 +0000,
,,,,,,,,,,,3,0,3,0,,,,,,,,,,,,,307.7307666998822,,,,,,,,,,307.7266069999896,308.2229277000297,,,[],[],,,,,,,,,,,,None,None,,,,,,,,,,Tasse,teuer,"['Tasse', 'teuer']",restudy,3,,,,,,307.7265411999542,307.7265804000199,"['Kerze', 'Buch', 'Ring', 'Tasse', 'Kamera', 'Tasche', 'Blume', 'Schere', 'Schlüssel', 'Fahrrad', 'Bürste', 'Lampe', 'Hut', 'Socke', 'Vase', 'Kiste', 'Rucksack', 'Jacke', 'Kette', 'Flasche', 'Geige', 'Würfel', 'Uhr', 'Telefon', 'Trommel', 'Brille', 'Hammer', 'Eimer', 'Löffel', 'Stift']",308.22293829987757,308.22545189992525,None,308.2255756999366,314.2268173000775,2,314.2271173999179,314.2298681999091,None,314.229983399855,,314.2311615999788,314.23117320006713,314.2323255999945,2.0269011999480426,None,,,,,,,,,,,,,,,,,,,,,,,,,,,,,,,,,,,,,,,,,,,,,,3,2023-12-07_10h34.24.348,watkins1,2023.2.3,99.75410613730513,52,2023-12-07 10h34.30.914276 +0000,
,,,,,,,,,,,4,0,4,0,,,,,,,,,,,,,314.23628249997273,,,,,,,,,,314.23261109995656,314.728352899896,,,[],[],,,,,,,,,,,,None,None,,,,,,,,,,Kamera,winzig,"['Kamera', 'winzig']",restudy,3,,,,,,314.2325454999227,314.2325845998712,"['Kerze', 'Buch', 'Ring', 'Tasse', 'Kamera', 'Tasche', 'Blume', 'Schere', 'Schlüssel', 'Fahrrad', 'Bürste', 'Lampe', 'Hut', 'Socke', 'Vase', 'Kiste', 'Rucksack', 'Jacke', 'Kette', 'Flasche', 'Geige', 'Würfel', 'Uhr', 'Telefon', 'Trommel', 'Brille', 'Hammer', 'Eimer', 'Löffel', 'Stift']",314.7283651998732,314.7310554999858,None,314.73118159989826,320.7322885999456,1,320.7325965000782,320.73539300006814,None,320.7355070998892,,320.7366975999903,320.7367092000786,320.7378928998951,2.0568051000591367,None,,,,,,,,,,,,,,,,,,,,,,,,,,,,,,,,,,,,,,,,,,,,,,3,2023-12-07_10h34.24.348,watkins1,2023.2.3,99.75410613730513,52,2023-12-07 10h34.30.914276 +0000,
,,,,,,,,,,,5,0,5,0,,,,,,,,,,,,,320.7417848999612,,,,,,,,,,320.73818230000325,321.23373189987615,,,[],[],,,,,,,,,,,,None,None,,,,,,,,,,Tasche,biegsam,"['Tasche', 'biegsam']",restudy,3,,,,,,320.7381154000759,320.7381551999133,"['Kerze', 'Buch', 'Ring', 'Tasse', 'Kamera', 'Tasche', 'Blume', 'Schere', 'Schlüssel', 'Fahrrad', 'Bürste', 'Lampe', 'Hut', 'Socke', 'Vase', 'Kiste', 'Rucksack', 'Jacke', 'Kette', 'Flasche', 'Geige', 'Würfel', 'Uhr', 'Telefon', 'Trommel', 'Brille', 'Hammer', 'Eimer', 'Löffel', 'Stift']",321.2337426999584,321.2367000998929,None,321.2368258999195,327.24613370001316,1,327.2464387998916,327.24925059988163,None,327.24936469993554,,327.25055589992553,327.2505679000169,327.2517770999111,1.2228373000398278,None,,,,,,,,,,,,,,,,,,,,,,,,,,,,,,,,,,,,,,,,,,,,,,3,2023-12-07_10h34.24.348,watkins1,2023.2.3,99.75410613730513,52,2023-12-07 10h34.30.914276 +0000,
,,,,,,,,,,,6,0,6,0,,,,,,,,,,,,,327.25559039996006,,,,,,,,,,327.2520667000208,327.74768709996715,,,[],[],,,,,,,,,,,,None,None,,,,,,,,,,Blume,durchsichtig,"['Blume', 'durchsichtig']",restudy,3,,,,,,327.2520001998637,327.2520397999324,"['Kerze', 'Buch', 'Ring', 'Tasse', 'Kamera', 'Tasche', 'Blume', 'Schere', 'Schlüssel', 'Fahrrad', 'Bürste', 'Lampe', 'Hut', 'Socke', 'Vase', 'Kiste', 'Rucksack', 'Jacke', 'Kette', 'Flasche', 'Geige', 'Würfel', 'Uhr', 'Telefon', 'Trommel', 'Brille', 'Hammer', 'Eimer', 'Löffel', 'Stift']",327.74769819993526,327.750433600042,None,327.7505663000047,333.7576361000538,1,333.7579353998881,333.76084830006585,None,333.7609619998839,,333.76213110005483,333.7621430999134,333.76343779987656,1.1651399000547826,None,,,,,,,,,,,,,,,,,,,,,,,,,,,,,,,,,,,,,,,,,,,,,,3,2023-12-07_10h34.24.348,watkins1,2023.2.3,99.75410613730513,52,2023-12-07 10h34.30.914276 +0000,
,,,,,,,,,,,7,0,7,0,,,,,,,,,,,,,333.7671095998958,,,,,,,,,,333.76372729986906,334.2592112000566,,,[],[],,,,,,,,,,,glänzend,None,None,,,,,,,,,,Schere,glänzend,"['Schere', 'glänzend']",test_adj,3,,,,,,333.7636603999417,333.7637002998963,"['Kerze', 'Buch', 'Ring', 'Tasse', 'Kamera', 'Tasche', 'Blume', 'Schere', 'Schlüssel', 'Fahrrad', 'Bürste', 'Lampe', 'Hut', 'Socke', 'Vase', 'Kiste', 'Rucksack', 'Jacke', 'Kette', 'Flasche', 'Geige', 'Würfel', 'Uhr', 'Telefon', 'Trommel', 'Brille', 'Hammer', 'Eimer', 'Löffel', 'Stift']",334.25922190002166,334.2620252999477,None,334.26215169997886,334.26377990003675,None,334.263894099975,334.2653431999497,None,334.26545409997925,0,340.2682403998915,340.26825449988246,340.2696022999007,,,,,,,,,,,,,,,,,,,,,,,,,,,,,,,,,,,,,,,,,,,,,,,,3,2023-12-07_10h34.24.348,watkins1,2023.2.3,99.75410613730513,52,2023-12-07 10h34.30.914276 +0000,
,,,,,,,,,,,8,0,8,0,,,,,,,,,,,,,340.2780351000838,,,,,,,,,,340.2698921998963,340.7601530000102,,,[],[],,,,,,,,,,,,None,None,,,,,,,,,,Schlüssel,strahlend,"['Schlüssel', 'strahlend']",restudy,3,,,,,,340.2698224999476,340.26986310002394,"['Kerze', 'Buch', 'Ring', 'Tasse', 'Kamera', 'Tasche', 'Blume', 'Schere', 'Schlüssel', 'Fahrrad', 'Bürste', 'Lampe', 'Hut', 'Socke', 'Vase', 'Kiste', 'Rucksack', 'Jacke', 'Kette', 'Flasche', 'Geige', 'Würfel', 'Uhr', 'Telefon', 'Trommel', 'Brille', 'Hammer', 'Eimer', 'Löffel', 'Stift']",340.7601642999798,340.76300220005214,None,340.7631286000833,346.76842139987275,3,346.76872309995815,346.7715854998678,None,346.7716979999095,,346.77324720006436,346.77325890003704,346.7745016000699,2.8644212000072002,None,,,,,,,,,,,,,,,,,,,,,,,,,,,,,,,,,,,,,,,,,,,,,,3,2023-12-07_10h34.24.348,watkins1,2023.2.3,99.75410613730513,52,2023-12-07 10h34.30.914276 +0000,
,,,,,,,,,,,9,0,9,0,,,,,,,,,,,,,346.77790510002524,,,,,,,,,,346.77478610002436,347.2698408998549,,,[],[],,,,,,,,,,,lang,None,None,,,,,,,,,,Fahrrad,lang,"['Fahrrad', 'lang']",test_adj,3,,,,,,346.774720299989,346.7747589999344,"['Kerze', 'Buch', 'Ring', 'Tasse', 'Kamera', 'Tasche', 'Blume', 'Schere', 'Schlüssel', 'Fahrrad', 'Bürste', 'Lampe', 'Hut', 'Socke', 'Vase', 'Kiste', 'Rucksack', 'Jacke', 'Kette', 'Flasche', 'Geige', 'Würfel', 'Uhr', 'Telefon', 'Trommel', 'Brille', 'Hammer', 'Eimer', 'Löffel', 'Stift']",347.26985189993866,347.27266609994695,None,347.27279060008004,347.27426269999705,None,347.2743748999201,347.2758513998706,None,347.27596020000055,0,353.27882950007915,353.278843899956,353.28000340005383,,,,,,,,,,,,,,,,,,,,,,,,,,,,,,,,,,,,,,,,,,,,,,,,3,2023-12-07_10h34.24.348,watkins1,2023.2.3,99.75410613730513,52,2023-12-07 10h34.30.914276 +0000,
,,,,,,,,,,,10,0,10,0,,,,,,,,,,,,,353.2886236999184,,,,,,,,,,353.28029050002806,353.77077689999714,,,[],[],,,,,,,,,,,nachhaltig,None,None,,,,,,,,,,Bürste,nachhaltig,"['Bürste', 'nachhaltig']",test_adj,3,,,,,,353.2802230999805,353.2802623999305,"['Kerze', 'Buch', 'Ring', 'Tasse', 'Kamera', 'Tasche', 'Blume', 'Schere', 'Schlüssel', 'Fahrrad', 'Bürste', 'Lampe', 'Hut', 'Socke', 'Vase', 'Kiste', 'Rucksack', 'Jacke', 'Kette', 'Flasche', 'Geige', 'Würfel', 'Uhr', 'Telefon', 'Trommel', 'Brille', 'Hammer', 'Eimer', 'Löffel', 'Stift']",353.77078830008395,353.77338199992664,None,353.7735077000689,353.775911899982,None,353.7760238999035,353.7784241999034,None,353.77853200002573,0,359.7841616999358,359.7841763999313,359.7859507999383,,,,,,,,,,,,,,,,,,,,,,,,,,,,,,,,,,,,,,,,,,,,,,,,3,2023-12-07_10h34.24.348,watkins1,2023.2.3,99.75410613730513,52,2023-12-07 10h34.30.914276 +0000,
,,,,,,,,,,,11,0,11,0,,,,,,,,,,,,,359.7938141999766,,,,,,,,,,359.78627000004053,360.2760395000223,,,[],[],,,,,,,,,,,breit,None,None,,,,,,,,,,Lampe,breit,"['Lampe', 'breit']",test_adj,3,,,,,,359.7861917000264,359.786240800051,"['Kerze', 'Buch', 'Ring', 'Tasse', 'Kamera', 'Tasche', 'Blume', 'Schere', 'Schlüssel', 'Fahrrad', 'Bürste', 'Lampe', 'Hut', 'Socke', 'Vase', 'Kiste', 'Rucksack', 'Jacke', 'Kette', 'Flasche', 'Geige', 'Würfel', 'Uhr', 'Telefon', 'Trommel', 'Brille', 'Hammer', 'Eimer', 'Löffel', 'Stift']",360.2760512998793,360.2789588999003,None,360.27908849995583,360.28175719990395,None,360.2818672999274,360.28474289993756,None,360.28486969997175,0,366.2918765998911,366.2918916998897,366.2932261999231,,,,,,,,,,,,,,,,,,,,,,,,,,,,,,,,,,,,,,,,,,,,,,,,3,2023-12-07_10h34.24.348,watkins1,2023.2.3,99.75410613730513,52,2023-12-07 10h34.30.914276 +0000,
,,,,,,,,,,,12,0,12,0,,,,,,,,,,,,,366.3016538999509,,,,,,,,,,366.2935262999963,366.7837265999988,,,[],[],,,,,,,,,,,,None,None,,,,,,,,,,Hut,niedlich,"['Hut', 'niedlich']",restudy,3,,,,,,366.2934524999,366.29349719989114,"['Kerze', 'Buch', 'Ring', 'Tasse', 'Kamera', 'Tasche', 'Blume', 'Schere', 'Schlüssel', 'Fahrrad', 'Bürste', 'Lampe', 'Hut', 'Socke', 'Vase', 'Kiste', 'Rucksack', 'Jacke', 'Kette', 'Flasche', 'Geige', 'Würfel', 'Uhr', 'Telefon', 'Trommel', 'Brille', 'Hammer', 'Eimer', 'Löffel', 'Stift']",366.7837380999699,366.7862746999599,None,366.78641549986787,372.79307939996943,2,372.79338490008377,372.7959656000603,None,372.79607879999094,,372.7974143999163,372.7974262998905,372.798630699981,2.945640299934894,None,,,,,,,,,,,,,,,,,,,,,,,,,,,,,,,,,,,,,,,,,,,,,,3,2023-12-07_10h34.24.348,watkins1,2023.2.3,99.75410613730513,52,2023-12-07 10h34.30.914276 +0000,
,,,,,,,,,,,13,0,13,0,,,,,,,,,,,,,372.80252619995736,,,,,,,,,,372.798911199905,373.2945874000434,,,[],[],,,,,,,,,,,,None,None,,,,,,,,,,Socke,klobig,"['Socke', 'klobig']",restudy,3,,,,,,372.7988451998681,372.79888459993526,"['Kerze', 'Buch', 'Ring', 'Tasse', 'Kamera', 'Tasche', 'Blume', 'Schere', 'Schlüssel', 'Fahrrad', 'Bürste', 'Lampe', 'Hut', 'Socke', 'Vase', 'Kiste', 'Rucksack', 'Jacke', 'Kette', 'Flasche', 'Geige', 'Würfel', 'Uhr', 'Telefon', 'Trommel', 'Brille', 'Hammer', 'Eimer', 'Löffel', 'Stift']",373.2945983998943,373.2973074000329,None,373.2974332999438,379.2982119000517,2,379.2985131999012,379.3011773999315,None,379.30128949997015,,379.30243519996293,379.3024472000543,379.303658900084,1.7624923000112176,None,,,,,,,,,,,,,,,,,,,,,,,,,,,,,,,,,,,,,,,,,,,,,,3,2023-12-07_10h34.24.348,watkins1,2023.2.3,99.75410613730513,52,2023-12-07 10h34.30.914276 +0000,
,,,,,,,,,,,14,0,14,0,,,,,,,,,,,,,379.30779849993996,,,,,,,,,,379.30394820007496,379.7998226999771,,,[],[],,,,,,,,,,,,None,None,,,,,,,,,,Vase,elegant,"['Vase', 'elegant']",restudy,3,,,,,,379.3038784998935,379.30391869996674,"['Kerze', 'Buch', 'Ring', 'Tasse', 'Kamera', 'Tasche', 'Blume', 'Schere', 'Schlüssel', 'Fahrrad', 'Bürste', 'Lampe', 'Hut', 'Socke', 'Vase', 'Kiste', 'Rucksack', 'Jacke', 'Kette', 'Flasche', 'Geige', 'Würfel', 'Uhr', 'Telefon', 'Trommel', 'Brille', 'Hammer', 'Eimer', 'Löffel', 'Stift']",379.79983339994214,379.8024043000769,None,379.80252849985845,385.806278700009,3,385.8065831998829,385.8091493998654,None,385.80926240002736,,385.81029829988256,385.8103100999724,385.81150020007044,0.992826399859041,None,,,,,,,,,,,,,,,,,,,,,,,,,,,,,,,,,,,,,,,,,,,,,,3,2023-12-07_10h34.24.348,watkins1,2023.2.3,99.75410613730513,52,2023-12-07 10h34.30.914276 +0000,
,,,,,,,,,,,15,0,15,0,,,,,,,,,,,,,385.81575329997577,,,,,,,,,,385.8117839000188,386.30779329990037,,,[],[],,,,,,,,,,,,None,None,,,,,,,,,,Kiste,zart,"['Kiste', 'zart']",restudy,3,,,,,,385.8117185998708,385.81175699993037,"['Kerze', 'Buch', 'Ring', 'Tasse', 'Kamera', 'Tasche', 'Blume', 'Schere', 'Schlüssel', 'Fahrrad', 'Bürste', 'Lampe', 'Hut', 'Socke', 'Vase', 'Kiste', 'Rucksack', 'Jacke', 'Kette', 'Flasche', 'Geige', 'Würfel', 'Uhr', 'Telefon', 'Trommel', 'Brille', 'Hammer', 'Eimer', 'Löffel', 'Stift']",386.30780419986695,386.3104890999384,None,386.31061380007304,392.3133779000491,1,392.313678199891,392.3162249000743,None,392.3163389998954,,392.3174948999658,392.3175069000572,392.3185393998865,1.1249458000529557,None,,,,,,,,,,,,,,,,,,,,,,,,,,,,,,,,,,,,,,,,,,,,,,3,2023-12-07_10h34.24.348,watkins1,2023.2.3,99.75410613730513,52,2023-12-07 10h34.30.914276 +0000,
,,,,,,,,,,,16,0,16,0,,,,,,,,,,,,,392.3229429998901,,,,,,,,,,392.3188207000494,392.8151138999965,,,[],[],,,,,,,,,,,,None,None,,,,,,,,,,Rucksack,kratzig,"['Rucksack', 'kratzig']",restudy,3,,,,,,392.318754900014,392.3187943000812,"['Kerze', 'Buch', 'Ring', 'Tasse', 'Kamera', 'Tasche', 'Blume', 'Schere', 'Schlüssel', 'Fahrrad', 'Bürste', 'Lampe', 'Hut', 'Socke', 'Vase', 'Kiste', 'Rucksack', 'Jacke', 'Kette', 'Flasche', 'Geige', 'Würfel', 'Uhr', 'Telefon', 'Trommel', 'Brille', 'Hammer', 'Eimer', 'Löffel', 'Stift']",392.8151272998657,392.81793799996376,None,392.81807280005887,398.8211049998645,1,398.82141770003363,398.824194899993,None,398.82431069994345,,398.82553349994123,398.8255455000326,398.82674410007894,1.7209850999061018,None,,,,,,,,,,,,,,,,,,,,,,,,,,,,,,,,,,,,,,,,,,,,,,3,2023-12-07_10h34.24.348,watkins1,2023.2.3,99.75410613730513,52,2023-12-07 10h34.30.914276 +0000,
,,,,,,,,,,,17,0,17,0,,,,,,,,,,,,,398.8305480000563,,,,,,,,,,398.8270302999299,399.3226666999981,,,[],[],,,,,,,,,,,hässlich,None,None,,,,,,,,,,Jacke,hässlich,"['Jacke', 'hässlich']",test_adj,3,,,,,,398.8269632998854,398.8270030999556,"['Kerze', 'Buch', 'Ring', 'Tasse', 'Kamera', 'Tasche', 'Blume', 'Schere', 'Schlüssel', 'Fahrrad', 'Bürste', 'Lampe', 'Hut', 'Socke', 'Vase', 'Kiste', 'Rucksack', 'Jacke', 'Kette', 'Flasche', 'Geige', 'Würfel', 'Uhr', 'Telefon', 'Trommel', 'Brille', 'Hammer', 'Eimer', 'Löffel', 'Stift']",399.3226782998536,399.325396399945,None,399.3255219999701,399.3269656000193,None,399.32707779994234,399.3285125999246,None,399.3286230000667,0,405.3350176999811,405.3350318998564,405.3363826998975,,,,,,,,,,,,,,,,,,,,,,,,,,,,,,,,,,,,,,,,,,,,,,,,3,2023-12-07_10h34.24.348,watkins1,2023.2.3,99.75410613730513,52,2023-12-07 10h34.30.914276 +0000,
,,,,,,,,,,,18,0,18,0,,,,,,,,,,,,,405.3447737998795,,,,,,,,,,405.3366704999935,405.82680230005644,,,[],[],,,,,,,,,,,,None,None,,,,,,,,,,Kette,nass,"['Kette', 'nass']",restudy,3,,,,,,405.3366004000418,405.33664079988375,"['Kerze', 'Buch', 'Ring', 'Tasse', 'Kamera', 'Tasche', 'Blume', 'Schere', 'Schlüssel', 'Fahrrad', 'Bürste', 'Lampe', 'Hut', 'Socke', 'Vase', 'Kiste', 'Rucksack', 'Jacke', 'Kette', 'Flasche', 'Geige', 'Würfel', 'Uhr', 'Telefon', 'Trommel', 'Brille', 'Hammer', 'Eimer', 'Löffel', 'Stift']",405.82681389991194,405.82954939990304,None,405.82967459992506,411.8312407999765,1,411.83168080006726,411.83630259986967,None,411.8364734998904,,411.83846349990927,411.8384799999185,411.8397460000124,1.1901984999421984,None,,,,,,,,,,,,,,,,,,,,,,,,,,,,,,,,,,,,,,,,,,,,,,3,2023-12-07_10h34.24.348,watkins1,2023.2.3,99.75410613730513,52,2023-12-07 10h34.30.914276 +0000,
,,,,,,,,,,,19,0,19,0,,,,,,,,,,,,,411.8436072000768,,,,,,,,,,411.84009770001285,412.3381256000139,,,[],[],,,,,,,,,,,groß,None,None,,,,,,,,,,Flasche,groß,"['Flasche', 'groß']",test_adj,3,,,,,,411.8400081000291,411.840067199897,"['Kerze', 'Buch', 'Ring', 'Tasse', 'Kamera', 'Tasche', 'Blume', 'Schere', 'Schlüssel', 'Fahrrad', 'Bürste', 'Lampe', 'Hut', 'Socke', 'Vase', 'Kiste', 'Rucksack', 'Jacke', 'Kette', 'Flasche', 'Geige', 'Würfel', 'Uhr', 'Telefon', 'Trommel', 'Brille', 'Hammer', 'Eimer', 'Löffel', 'Stift']",412.3381373998709,412.34153570001945,None,412.34167360002175,412.3434089999646,None,412.34354469995014,412.34541609999724,None,412.3455421999097,0,418.3495427998714,418.3495573999826,418.3507176998537,,,,,,,,,,,,,,,,,,,,,,,,,,,,,,,,,,,,,,,,,,,,,,,,3,2023-12-07_10h34.24.348,watkins1,2023.2.3,99.75410613730513,52,2023-12-07 10h34.30.914276 +0000,
,,,,,,,,,,,20,0,20,0,,,,,,,,,,,,,418.3594555000309,,,,,,,,,,418.3510090999771,418.84167929994874,,,[],[],,,,,,,,,,,,None,None,,,,,,,,,,Geige,matt,"['Geige', 'matt']",restudy,3,,,,,,418.35093829990365,418.3509780999739,"['Kerze', 'Buch', 'Ring', 'Tasse', 'Kamera', 'Tasche', 'Blume', 'Schere', 'Schlüssel', 'Fahrrad', 'Bürste', 'Lampe', 'Hut', 'Socke', 'Vase', 'Kiste', 'Rucksack', 'Jacke', 'Kette', 'Flasche', 'Geige', 'Würfel', 'Uhr', 'Telefon', 'Trommel', 'Brille', 'Hammer', 'Eimer', 'Löffel', 'Stift']",418.841691599926,418.84445229987614,None,418.8445824999362,424.84594310005195,2,424.8462449000217,424.8488018999342,None,424.84891479997896,,424.85037999995984,424.85039189993404,424.8514292999171,1.727584999985993,None,,,,,,,,,,,,,,,,,,,,,,,,,,,,,,,,,,,,,,,,,,,,,,3,2023-12-07_10h34.24.348,watkins1,2023.2.3,99.75410613730513,52,2023-12-07 10h34.30.914276 +0000,
,,,,,,,,,,,21,0,21,0,,,,,,,,,,,,,424.8554451998789,,,,,,,,,,424.85171959991567,425.3477030999493,,,[],[],,,,,,,,,,,,None,None,,,,,,,,,,Würfel,hübsch,"['Würfel', 'hübsch']",test_adj,3,,,,,,424.8516476000659,424.85169219993986,"['Kerze', 'Buch', 'Ring', 'Tasse', 'Kamera', 'Tasche', 'Blume', 'Schere', 'Schlüssel', 'Fahrrad', 'Bürste', 'Lampe', 'Hut', 'Socke', 'Vase', 'Kiste', 'Rucksack', 'Jacke', 'Kette', 'Flasche', 'Geige', 'Würfel', 'Uhr', 'Telefon', 'Trommel', 'Brille', 'Hammer', 'Eimer', 'Löffel', 'Stift']",425.34771430003457,425.35029609990306,None,425.3504357000347,425.3518908000551,None,425.35200070007704,425.3534510000609,None,425.353561299853,0,431.3557325999718,431.3557464000769,431.357046399964,,,,,,,,,,,,,,,,,,,,,,,,,,,,,,,,,,,,,,,,,,,,,,,,3,2023-12-07_10h34.24.348,watkins1,2023.2.3,99.75410613730513,52,2023-12-07 10h34.30.914276 +0000,
,,,,,,,,,,,22,0,22,0,,,,,,,,,,,,,431.36564900004305,,,,,,,,,,431.3573332999367,431.8478337000124,,,[],[],,,,,,,,,,,,None,None,,,,,,,,,,Uhr,blass,"['Uhr', 'blass']",test_adj,3,,,,,,431.35726419999264,431.35730429994874,"['Kerze', 'Buch', 'Ring', 'Tasse', 'Kamera', 'Tasche', 'Blume', 'Schere', 'Schlüssel', 'Fahrrad', 'Bürste', 'Lampe', 'Hut', 'Socke', 'Vase', 'Kiste', 'Rucksack', 'Jacke', 'Kette', 'Flasche', 'Geige', 'Würfel', 'Uhr', 'Telefon', 'Trommel', 'Brille', 'Hammer', 'Eimer', 'Löffel', 'Stift']",431.84784679999575,431.85048640007153,None,431.850617100019,431.8529984999914,None,431.8531110000331,431.8556288999971,None,431.8557392999064,0,437.86451660003513,437.8645311000291,437.86583879985847,,,,,,,,,,,,,,,,,,,,,,,,,,,,,,,,,,,,,,,,,,,,,,,,3,2023-12-07_10h34.24.348,watkins1,2023.2.3,99.75410613730513,52,2023-12-07 10h34.30.914276 +0000,
,,,,,,,,,,,23,0,23,0,,,,,,,,,,,,,437.87431419990025,,,,,,,,,,437.8661285000853,438.35637359996326,,,[],[],,,,,,,,,,,,None,None,,,,,,,,,,Telefon,sportlich,"['Telefon', 'sportlich']",test_adj,3,,,,,,437.8660615000408,437.86609989986755,"['Kerze', 'Buch', 'Ring', 'Tasse', 'Kamera', 'Tasche', 'Blume', 'Schere', 'Schlüssel', 'Fahrrad', 'Bürste', 'Lampe', 'Hut', 'Socke', 'Vase', 'Kiste', 'Rucksack', 'Jacke', 'Kette', 'Flasche', 'Geige', 'Würfel', 'Uhr', 'Telefon', 'Trommel', 'Brille', 'Hammer', 'Eimer', 'Löffel', 'Stift']",438.3563842999283,438.35904480004683,None,438.3591676999349,438.36170909996144,None,438.36182039999403,438.36434679990634,None,438.36445580003783,0,444.36874639987946,444.36876019998454,444.3701593000442,,,,,,,,,,,,,,,,,,,,,,,,,,,,,,,,,,,,,,,,,,,,,,,,3,2023-12-07_10h34.24.348,watkins1,2023.2.3,99.75410613730513,52,2023-12-07 10h34.30.914276 +0000,
,,,,,,,,,,,24,0,24,0,,,,,,,,,,,,,444.37855269992724,,,,,,,,,,444.3704462000169,444.86062940000556,,,[],[],,,,,,,,,,,,None,None,,,,,,,,,,Trommel,robust,"['Trommel', 'robust']",restudy,3,,,,,,444.37037879996933,444.3704166000243,"['Kerze', 'Buch', 'Ring', 'Tasse', 'Kamera', 'Tasche', 'Blume', 'Schere', 'Schlüssel', 'Fahrrad', 'Bürste', 'Lampe', 'Hut', 'Socke', 'Vase', 'Kiste', 'Rucksack', 'Jacke', 'Kette', 'Flasche', 'Geige', 'Würfel', 'Uhr', 'Telefon', 'Trommel', 'Brille', 'Hammer', 'Eimer', 'Löffel', 'Stift']",444.8606408999767,444.86342419986613,None,444.86354789999314,450.8650495999027,3,450.8653537998907,450.8681135000661,None,450.86823030002415,,450.8694323999807,450.8694446000736,450.8706221000757,1.4602743000723422,None,,,,,,,,,,,,,,,,,,,,,,,,,,,,,,,,,,,,,,,,,,,,,,3,2023-12-07_10h34.24.348,watkins1,2023.2.3,99.75410613730513,52,2023-12-07 10h34.30.914276 +0000,
,,,,,,,,,,,25,0,25,0,,,,,,,,,,,,,450.87453979998827,,,,,,,,,,450.87091089994647,451.36668329988606,,,[],[],,,,,,,,,,,dick,None,None,,,,,,,,,,Brille,dick,"['Brille', 'dick']",test_adj,3,,,,,,450.8708426998928,450.8708836999722,"['Kerze', 'Buch', 'Ring', 'Tasse', 'Kamera', 'Tasche', 'Blume', 'Schere', 'Schlüssel', 'Fahrrad', 'Bürste', 'Lampe', 'Hut', 'Socke', 'Vase', 'Kiste', 'Rucksack', 'Jacke', 'Kette', 'Flasche', 'Geige', 'Würfel', 'Uhr', 'Telefon', 'Trommel', 'Brille', 'Hammer', 'Eimer', 'Löffel', 'Stift']",451.36669499985874,451.3695471000392,None,451.3696741000749,451.37109489995055,None,451.3712043000851,451.3726236000657,None,451.3727323000785,0,457.37615490006283,457.3761690000538,457.3773805999663,,,,,,,,,,,,,,,,,,,,,,,,,,,,,,,,,,,,,,,,,,,,,,,,3,2023-12-07_10h34.24.348,watkins1,2023.2.3,99.75410613730513,52,2023-12-07 10h34.30.914276 +0000,
,,,,,,,,,,,26,0,26,0,,,,,,,,,,,,,457.38593279989436,,,,,,,,,,457.37767429999076,457.86799119994976,,,[],[],,,,,,,,,,,dunkel,None,None,,,,,,,,,,Hammer,dunkel,"['Hammer', 'dunkel']",test_adj,3,,,,,,457.37760469992645,457.37764479988255,"['Kerze', 'Buch', 'Ring', 'Tasse', 'Kamera', 'Tasche', 'Blume', 'Schere', 'Schlüssel', 'Fahrrad', 'Bürste', 'Lampe', 'Hut', 'Socke', 'Vase', 'Kiste', 'Rucksack', 'Jacke', 'Kette', 'Flasche', 'Geige', 'Würfel', 'Uhr', 'Telefon', 'Trommel', 'Brille', 'Hammer', 'Eimer', 'Löffel', 'Stift']",457.8680026999209,457.87073710002005,None,457.87086539994925,457.8732859999873,None,457.87339790002443,457.87582419998944,None,457.87593359989114,0,463.8811494000256,463.88116510002874,463.8824680999387,,,,,,,,,,,,,,,,,,,,,,,,,,,,,,,,,,,,,,,,,,,,,,,,3,2023-12-07_10h34.24.348,watkins1,2023.2.3,99.75410613730513,52,2023-12-07 10h34.30.914276 +0000,
,,,,,,,,,,,27,0,27,0,,,,,,,,,,,,,463.8909584998619,,,,,,,,,,463.88275459990837,464.37302939989604,,,[],[],,,,,,,,,,,gut,None,None,,,,,,,,,,Eimer,gut,"['Eimer', 'gut']",test_adj,3,,,,,,463.8826846999582,463.88272519991733,"['Kerze', 'Buch', 'Ring', 'Tasse', 'Kamera', 'Tasche', 'Blume', 'Schere', 'Schlüssel', 'Fahrrad', 'Bürste', 'Lampe', 'Hut', 'Socke', 'Vase', 'Kiste', 'Rucksack', 'Jacke', 'Kette', 'Flasche', 'Geige', 'Würfel', 'Uhr', 'Telefon', 'Trommel', 'Brille', 'Hammer', 'Eimer', 'Löffel', 'Stift']",464.3730405999813,464.3757338998839,None,464.3758642000612,464.37839589989744,None,464.37850459991023,464.3810310999397,None,464.3811409000773,0,470.3862606000621,470.38627470005304,470.3874113999773,,,,,,,,,,,,,,,,,,,,,,,,,,,,,,,,,,,,,,,,,,,,,,,,3,2023-12-07_10h34.24.348,watkins1,2023.2.3,99.75410613730513,52,2023-12-07 10h34.30.914276 +0000,
,,,,,,,,,,,28,0,28,0,,,,,,,,,,,,,470.3960631999653,,,,,,,,,,470.38769900007173,470.8783052000217,,,[],[],,,,,,,,,,,glänzend,None,None,,,,,,,,,,Löffel,lustig,"['Löffel', 'lustig']",test_adj,3,,,,,,470.38762929989025,470.38767049997114,"['Kerze', 'Buch', 'Ring', 'Tasse', 'Kamera', 'Tasche', 'Blume', 'Schere', 'Schlüssel', 'Fahrrad', 'Bürste', 'Lampe', 'Hut', 'Socke', 'Vase', 'Kiste', 'Rucksack', 'Jacke', 'Kette', 'Flasche', 'Geige', 'Würfel', 'Uhr', 'Telefon', 'Trommel', 'Brille', 'Hammer', 'Eimer', 'Löffel', 'Stift']",470.8783160999883,470.8808498000726,None,470.8809742999729,470.8833677000366,None,470.8834881000221,470.8859035000205,None,470.88601149991155,0,476.89282789989375,476.8928431000095,476.8943751999177,,,,,,,,,,,,,,,,,,,,,,,,,,,,,,,,,,,,,,,,,,,,,,,,3,2023-12-07_10h34.24.348,watkins1,2023.2.3,99.75410613730513,52,2023-12-07 10h34.30.914276 +0000,
,,,,,,,,,,,29,0,29,0,,,,,,,,,,,,,476.9026872999966,,,,,,,,,,476.89467679988593,477.38491040002555,,,[],[],,,,,,,,,,,dreckig,None,None,,,,,,,,,,Stift,schmutzig,"['Stift', 'schmutzig']",test_adj,3,,,,,,476.8946022000164,476.89464730001055,"['Kerze', 'Buch', 'Ring', 'Tasse', 'Kamera', 'Tasche', 'Blume', 'Schere', 'Schlüssel', 'Fahrrad', 'Bürste', 'Lampe', 'Hut', 'Socke', 'Vase', 'Kiste', 'Rucksack', 'Jacke', 'Kette', 'Flasche', 'Geige', 'Würfel', 'Uhr', 'Telefon', 'Trommel', 'Brille', 'Hammer', 'Eimer', 'Löffel', 'Stift']",477.38492129999213,477.3876056999434,None,477.38772969995625,477.39026580005884,None,477.39037859998643,477.39289909997024,None,477.39300929987803,0,483.39838279993273,483.39839680003934,483.39978610002436,,,,,,,,,,,,,,,,,,,,,,,,,,,,,,,,,,,,,,,,,,,,,,,,3,2023-12-07_10h34.24.348,watkins1,2023.2.3,99.75410613730513,52,2023-12-07 10h34.30.914276 +0000,
,,,,,,,,,,,,,,,,,,,,,,,,,,,,,,,,,,,,,,,,,,,,,,,,,,,,,,,,,,,,,,,,,,,,,3,,,,,,,,,,,,,,,,,,,,,,,,,,,,,,,,,,,,,,,,,,,,,,,,,,,,,,,,,,,,,,,,,,,,,,3,2023-12-07_10h34.24.348,watkins1,2023.2.3,99.75410613730513,52,2023-12-07 10h34.30.914276 +0000,
(2 x 5) + 3 = 13 ,Correct,button_correct,,,,,,,,,,,,,0,0,0,2,,,,,,,,,502.2727129000705,,,,,,,,501.2257840000093,502.2296045999974,,,,,['button_correct'],[2.5167010999284685],,,,,,,,,,,,,,,,,,,,,,,,,,distractorTask,3,,,,,,,,,,,,,,,,,,,,,,,,,502.2540897000581,502.2727129000705,504.77555999998003,[0.337037037037037],[-0.3851851851851852],[1],[0],[0],[2.5167010999284685],['button_correct'],504.77628470002674,505.7791237998754,,,,,,,,,,,,,,,,,,,,,,,,,,,,,,,,,,3,2023-12-07_10h34.24.348,watkins1,2023.2.3,99.75410613730513,52,2023-12-07 10h34.30.914276 +0000,
(7 x 6) + 9 = 48 ,Incorrect,button_incorrect,,,,,,,,,,,,,0,1,1,9,,,,,,,,,505.7891094000079,,,,,,,,,,,,,,['button_incorrect'],[4.655812399927527],,,,,,,,,,,,,,,,,,,,,,,,,,distractorTask,3,,,,,,,,,,,,,,,,,,,,,,,,,505.7793181000743,505.7891094000079,510.43894789996557,[-0.2935185185185185],[-0.3851851851851852],[1],[0],[0],[4.655812399927527],['button_incorrect'],510.4393364000134,511.4426094999071,,,,,,,,,,,,,,,,,,,,,,,,,,,,,,,,,,3,2023-12-07_10h34.24.348,watkins1,2023.2.3,99.75410613730513,52,2023-12-07 10h34.30.914276 +0000,
(80 : 10) + 9 = 17 ,Correct,button_correct,,,,,,,,,,,,,0,2,2,3,,,,,,,,,511.4525935999118,,,,,,,,,,,,,,['button_incorrect'],[3.230666699819267],,,,,,,,,,,,,,,,,,,,,,,,,,distractorTask,3,,,,,,,,,,,,,,,,,,,,,,,,,511.4428061998915,511.4525935999118,514.6765682999976,[-0.34074074074074073],[-0.3888888888888889],[1],[0],[0],[3.230666699819267],['button_incorrect'],514.6769572999328,515.6800257998984,,,,,,,,,,,,,,,,,,,,,,,,,,,,,,,,,,3,2023-12-07_10h34.24.348,watkins1,2023.2.3,99.75410613730513,52,2023-12-07 10h34.30.914276 +0000,
(40 : 5) + 8 = 15 ,Incorrect,button_incorrect,,,,,,,,,,,,,0,3,3,7,,,,,,,,,515.6900045999791,,,,,,,,,,,,,,['button_incorrect'],[6.856694199843332],,,,,,,,,,,,,,,,,,,,,,,,,,distractorTask,3,,,,,,,,,,,,,,,,,,,,,,,,,515.6802210998721,515.6900045999791,522.5390135999769,[-0.33240740740740743],[-0.40185185185185185],[1],[0],[0],[6.856694199843332],['button_incorrect'],522.5394015999045,523.5426165999379,,,,,,,,,,,,,,,,,,,,,,,,,,,,,,,,,,3,2023-12-07_10h34.24.348,watkins1,2023.2.3,99.75410613730513,52,2023-12-07 10h34.30.914276 +0000,
(4 : 2) + 4 = 6 ,Correct,button_correct,,,,,,,,,,,,,0,4,4,1,,,,,,,,,523.5525934998877,,,,,,,,,,,,,,['button_correct'],[3.182126200059429],,,,,,,,,,,,,,,,,,,,,,,,,,distractorTask,3,,,,,,,,,,,,,,,,,,,,,,,,,523.5428102998994,523.5525934998877,526.7266255998984,[0.37962962962962965],[-0.4064814814814815],[1],[0],[0],[3.182126200059429],['button_correct'],526.7270154000726,527.7302606999874,,,,,,,,,,,,,,,,,,,,,,,,,,,,,,,,,,3,2023-12-07_10h34.24.348,watkins1,2023.2.3,99.75410613730513,52,2023-12-07 10h34.30.914276 +0000,
(28 : 7) - 3 = 1 ,Correct,button_correct,,,,,,,,,,,,,0,5,5,0,,,,,,,,,527.7402417000849,,,,,,,,,,,,,,['button_incorrect'],[4.355941999936476],,,,,,,,,,,,,,,,,,,,,,,,,,distractorTask,3,,,,,,,,,,,,,,,,,,,,,,,,,527.7304503000341,527.7402417000849,532.0887321999762,[-0.31296296296296294],[-0.4009259259259259],[1],[0],[0],[4.355941999936476],['button_incorrect'],532.089116799878,533.0925207999535,,,,,,,,,,,,,,,,,,,,,,,,,,,,,,,,,,3,2023-12-07_10h34.24.348,watkins1,2023.2.3,99.75410613730513,52,2023-12-07 10h34.30.914276 +0000,
(54 : 6) - 10 = 0 ,Incorrect,button_incorrect,,,,,,,,,,,,,0,6,6,5,,,,,,,,,533.1026031998917,,,,,,,,,,,,,,['button_incorrect'],[7.891184899955988],,,,,,,,,,,,,,,,,,,,,,,,,,distractorTask,3,,,,,,,,,,,,,,,,,,,,,,,,,533.092712600017,533.1026031998917,540.9856705998536,[-0.31851851851851853],[-0.40555555555555556],[1],[0],[0],[7.891184899955988],['button_incorrect'],540.9860622000415,541.9895146999042,,,,,,,,,,,,,,,,,,,,,,,,,,,,,,,,,,3,2023-12-07_10h34.24.348,watkins1,2023.2.3,99.75410613730513,52,2023-12-07 10h34.30.914276 +0000,
(6 x 3) + 10 = 27 ,Incorrect,button_incorrect,,,,,,,,,,,,,0,7,7,8,,,,,,,,,541.9994266000576,,,,,,,,,,,,,,['button_incorrect'],[4.537536499788985],,,,,,,,,,,,,,,,,,,,,,,,,,distractorTask,3,,,,,,,,,,,,,,,,,,,,,,,,,541.9897121998947,541.9994266000576,546.5290679999162,[-0.31851851851851853],[-0.40555555555555556],[1],[0],[0],[4.537536499788985],['button_incorrect'],546.5294538000599,547.5327830999158,,,,,,,,,,,,,,,,,,,,,,,,,,,,,,,,,,3,2023-12-07_10h34.24.348,watkins1,2023.2.3,99.75410613730513,52,2023-12-07 10h34.30.914276 +0000,
(25 : 5) + 5 = 9 ,Incorrect,button_incorrect,,,,,,,,,,,,,0,8,8,6,,,,,,,,,547.5427594999783,,,,,,,,,,,,,,['button_incorrect'],[2.5595524001400918],,,,,,,,,,,,,,,,,,,,,,,,,,distractorTask,3,,,,,,,,,,,,,,,,,,,,,,,,,547.5329763998743,547.5427594999783,550.0942349000834,[-0.31851851851851853],[-0.40555555555555556],[1],[0],[0],[2.5595524001400918],['button_incorrect'],550.0946229998954,551.0978731999639,,,,,,,,,,,,,,,,,,,,,,,,,,,,,,,,,,3,2023-12-07_10h34.24.348,watkins1,2023.2.3,99.75410613730513,52,2023-12-07 10h34.30.914276 +0000,
(9 x 5) - 9 = 36 ,Correct,button_correct,,,,,,,,,,,,,0,9,9,4,,,,,,,,,551.1077956999652,,,,,,,,,,,,,,['button_correct'],[5.4009177999105304],,,,,,,,,,,,,,,,,,,,,,,,,,distractorTask,3,,,,,,,,,,,,,,,,,,,,,,,,,551.0980634000152,551.1077956999652,556.5006969000679,[0.32592592592592595],[-0.41759259259259257],[1],[0],[0],[5.4009177999105304],['button_correct'],556.5010867998935,557.504122500075,,,,,,,,,,,,,,,,,,,,,,,,,,,,,,,,,,3,2023-12-07_10h34.24.348,watkins1,2023.2.3,99.75410613730513,52,2023-12-07 10h34.30.914276 +0000,
,,,,,,,,,,,,,,,,,,,,,,,,,,,,,,,,,,,,,,,,,,,,,,,,,,,,,,,,,,,,,,,,,,,,,3,,,,,,,,,,,,,,,,,,,,,,,,,,,,,,,,,,,,,,,,,,,,,,,,,,,,,,,,,,,,,,,,,,,,,,3,2023-12-07_10h34.24.348,watkins1,2023.2.3,99.75410613730513,52,2023-12-07 10h34.30.914276 +0000,
,,,,,,,,,,,,,,,,,,,0,0,0,0,,,,,570.1555268000811,,,,,,,,,,,,,,gut,6.380308500025421,,,,,,,,,,,,3.9157706999685615,None,,,,,,,,,,,,,freeRecallSub,3,,,,,,,,,,,,,,,,,,,,,,,,,,,,,,,,,,,,,570.1467559000012,570.1555268000811,570.1555268000811,576.5427786998916,return,6.380308500025421,None,gut,"[-0.06759259259259259, -0.06388888888888888, -0.06574074074074074]","[0.0712962962962963, 0.058333333333333334, 0.04537037037037037]","[1, 1, 1]","[0, 0, 0]","[0, 0, 0]","[1.6356534999795258, 2.107585299992934, 2.569700499996543]",[],,,,,,,,,,,,,,,,,,,3,2023-12-07_10h34.24.348,watkins1,2023.2.3,99.75410613730513,52,2023-12-07 10h34.30.914276 +0000,
,,,,,,,,,,,,,,,,,,,1,0,1,0,,,,,576.5547996000387,,,,,,,,,,,,,,schmutzig,8.429059599991888,,,,,,,,,,,,6.006518499925733,None,,,,,,,,,,,,,freeRecallSub,3,,,,,,,,,,,,,,,,,,,,,,,,,,,,,,,,,,,,,576.5445888999384,576.5547996000387,576.5547996000387,584.9914075999986,return,8.429059599991888,None,schmutzig,[-0.06666666666666667],[0.044444444444444446],[1],[0],[0],[2.2476033000275493],[],,,,,,,,,,,,,,,,,,,3,2023-12-07_10h34.24.348,watkins1,2023.2.3,99.75410613730513,52,2023-12-07 10h34.30.914276 +0000,
,,,,,,,,,,,,,,,,,,,2,0,2,0,,,,,585.0022402000614,,,,,,,,,,,,,,elegant,5.413700900040567,,,,,,,,,,,,2.942110300064087,None,,,,,,,,,,,,,freeRecallSub,3,,,,,,,,,,,,,,,,,,,,,,,,,,,,,,,,,,,,,584.9927205999848,585.0022402000614,585.0022402000614,590.4250900999177,return,5.413700900040567,None,elegant,[],[],[],[],[],[],[],,,,,,,,,,,,,,,,,,,3,2023-12-07_10h34.24.348,watkins1,2023.2.3,99.75410613730513,52,2023-12-07 10h34.30.914276 +0000,
,,,,,,,,,,,,,,,,,,,3,0,3,0,,,,,590.43607899989,,,,,,,,,,,,,,glänzend,2.8518482001964003,,,,,,,,,,,,0.622848599916324,None,,,,,,,,,,,,,freeRecallSub,3,,,,,,,,,,,,,,,,,,,,,,,,,,,,,,,,,,,,,590.4263521998655,590.43607899989,590.43607899989,593.2918978999369,return,2.8518482001964003,None,glänzend,[],[],[],[],[],[],[],,,,,,,,,,,,,,,,,,,3,2023-12-07_10h34.24.348,watkins1,2023.2.3,99.75410613730513,52,2023-12-07 10h34.30.914276 +0000,
,,,,,,,,,,,,,,,,,,,4,0,4,0,,,,,593.3028239000123,,,,,,,,,,,,,,klobig,14.289080400019884,,,,,,,,,,,,12.72339989989996,None,,,,,,,,,,,,,freeRecallSub,3,,,,,,,,,,,,,,,,,,,,,,,,,,,,,,,,,,,,,593.2933288000058,593.3028239000123,593.3028239000123,607.593358400045,return,14.289080400019884,None,klobig,[],[],[],[],[],[],[],,,,,,,,,,,,,,,,,,,3,2023-12-07_10h34.24.348,watkins1,2023.2.3,99.75410613730513,52,2023-12-07 10h34.30.914276 +0000,
,,,,,,,,,,,,,,,,,,,5,0,5,0,,,,,607.6047229999676,,,,,,,,,,,,,,dick,3.0511351998429745,,,,,,,,,,,,1.1359455999918282,None,,,,,,,,,,,,,freeRecallSub,3,,,,,,,,,,,,,,,,,,,,,,,,,,,,,,,,,,,,,607.5946454999503,607.6047229999676,607.6047229999676,610.6586851999164,return,3.0511351998429745,None,dick,[],[],[],[],[],[],[],,,,,,,,,,,,,,,,,,,3,2023-12-07_10h34.24.348,watkins1,2023.2.3,99.75410613730513,52,2023-12-07 10h34.30.914276 +0000,
,,,,,,,,,,,,,,,,,,,6,0,6,0,,,,,610.6697229000274,,,,,,,,,,,,,,lang,2.7780611000489444,,,,,,,,,,,,1.5368427999783307,None,,,,,,,,,,,,,freeRecallSub,3,,,,,,,,,,,,,,,,,,,,,,,,,,,,,,,,,,,,,610.6599484998733,610.6697229000274,610.6697229000274,613.4520737999119,return,2.7780611000489444,None,lang,[],[],[],[],[],[],[],,,,,,,,,,,,,,,,,,,3,2023-12-07_10h34.24.348,watkins1,2023.2.3,99.75410613730513,52,2023-12-07 10h34.30.914276 +0000,
,,,,,,,,,,,,,,,,,,,7,0,7,0,,,,,613.4631808998529,,,,,,,,,,,,,,biegsam,39.12065399996936,,,,,,,,,,,,37.48651230009273,None,,,,,,,,,,,,,freeRecallSub,3,,,,,,,,,,,,,,,,,,,,,,,,,,,,,,,,,,,,,613.4533575999085,613.4631808998529,613.4631808998529,652.5894873999059,return,39.12065399996936,None,biegsam,[],[],[],[],[],[],[],,,,,,,,,,,,,,,,,,,3,2023-12-07_10h34.24.348,watkins1,2023.2.3,99.75410613730513,52,2023-12-07 10h34.30.914276 +0000,
,,,,,,,,,,,,,,,,,,,8,0,8,0,,,,,652.6006267999765,,,,,,,,,,,,,,verspielt,53.40734069980681,,,,,,,,,,,,50.44115060009062,None,,,,,,,,,,,,,freeRecallSub,3,,,,,,,,,,,,,,,,,,,,,,,,,,,,,,,,,,,,,652.5907338000834,652.6006267999765,652.6006267999765,706.0142190998886,return,53.40734069980681,None,verspielt,[0.03981481481481482],[0.030555555555555555],[1],[0],[0],[24.900781699921936],[],,,,,,,,,,,,,,,,,,,3,2023-12-07_10h34.24.348,watkins1,2023.2.3,99.75410613730513,52,2023-12-07 10h34.30.914276 +0000,
,,,,,,,,,,,,,,,,,,,9,0,9,0,,,,,706.0266430999618,,,,,,,,,,,,,,vergnügt,5.021179699804634,,,,,,,,,,,,2.704098899848759,None,,,,,,,,,,,,,freeRecallSub,3,,,,,,,,,,,,,,,,,,,,,,,,,,,,,,,,,,,,,706.0155710000545,706.0266430999618,706.0266430999618,711.0493151999544,return,5.021179699804634,None,vergnügt,[],[],[],[],[],[],[],,,,,,,,,,,,,,,,,,,3,2023-12-07_10h34.24.348,watkins1,2023.2.3,99.75410613730513,52,2023-12-07 10h34.30.914276 +0000,
,,,,,,,,,,,,,,,,,,,10,0,10,0,,,,,711.0617040998768,,,,,,,,,,,,,,,[],,,,,,,,,,,,None,None,,,,,,,,,,,,,freeRecallSub,3,,,,,,,,,,,,,,,,,,,,,,,,,,,,,,,,,,,,,711.0505721999798,711.0617040998768,711.0617040998768,714.0865273999516,None,,,,[0.3537037037037037],[-0.4027777777777778],[1],[0],[0],[3.031007800018415],"['button_continue', 'continue_text']",,,,,,,,,,,,,,,,,,,3,2023-12-07_10h34.24.348,watkins1,2023.2.3,99.75410613730513,52,2023-12-07 10h34.30.914276 +0000,
,,,,,,,,,,,,,,,,,,,,,,,,,,,,,,,,,,,,,,,,,,,,,,,,,,,,,,,,,,,,,,,,,,,,,3,,,,,,,,,,,,,,,,,,,,,,,,,,,,,,,,,,,,,,,,,,,,,,,,,,,,,,,,,,,,,,,,,,,,,,3,2023-12-07_10h34.24.348,watkins1,2023.2.3,99.75410613730513,52,2023-12-07 10h34.30.914276 +0000,
,,,,,,,,,,,,,,,,,,,,,,,0,0,0,0,743.4811410000548,,,,,,,,,,748.7874270000029,749.285840800032,,,,5.294610299868509,,,,,,,,,,,,None,None,,,,,,,,,,Trommel,,,cuedRecallAdj,3,,,,,,,,,,,,,,,,,,,0,,,,,,,,,,,,,,,,,,,,,,,,,,,,,,,,,743.4721736998763,743.4811410000548,743.4811410000548,748.7839883000124,robust,return,5.294610299868509,None,748.7843784999568,748.7937173000537,748.7937173000537,748.7872792000417,,None,,,,,3,2023-12-07_10h34.24.348,watkins1,2023.2.3,99.75410613730513,52,2023-12-07 10h34.30.914276 +0000,
,,,,,,,,,,,,,,,,,,,,,,,1,0,1,0,749.2957383000758,,,,,,,,,,754.6716801000293,755.170129599981,,,,5.367916899966076,,,,,,,,,,,,None,None,,,,,,,,,,Tasse,,,cuedRecallAdj,3,,,,,,,,,,,,,,,,,,,0,,,,,,,,,,,,,,,,,,,,,,,,,,,,,,,,,749.2860945998691,749.2957383000758,749.2957383000758,754.6685088998638,teuer,return,5.367916899966076,None,754.668778100051,754.678100900026,754.678100900026,754.6715770999435,,None,,,,,3,2023-12-07_10h34.24.348,watkins1,2023.2.3,99.75410613730513,52,2023-12-07 10h34.30.914276 +0000,
,,,,,,,,,,,,,,,,,,,,,,,2,0,2,0,755.1800873000175,,,,,,,,,,759.2003700998612,759.6988762998953,,,,4.011577100027353,,,,,,,,,,,,None,None,,,,,,,,,,Blume,,,cuedRecallAdj,3,,,,,,,,,,,,,,,,,,,0,,,,,,,,,,,,,,,,,,,,,,,,,,,,,,,,,755.1703723000828,755.1800873000175,755.1800873000175,759.1972296000458,durchsichtig,return,4.011577100027353,None,759.1974939999636,759.2068584000226,759.2068584000226,759.2002675998956,,None,,,,,3,2023-12-07_10h34.24.348,watkins1,2023.2.3,99.75410613730513,52,2023-12-07 10h34.30.914276 +0000,
,,,,,,,,,,,,,,,,,,,,,,,3,0,3,0,759.7087783999741,,,,,,,,,,767.0415723000187,767.5310251999181,,,,7.322823999915272,,,,,,,,,,,,None,None,,,,,,,,,,Telefon,,,cuedRecallAdj,3,,,,,,,,,,,,,,,,,,,0,,,,,,,,,,,,,,,,,,,,,,,,,,,,,,,,,759.6991244999226,759.7087783999741,759.7087783999741,767.0392827000469,,return,7.322823999915272,None,767.0395535998978,767.0490085999481,767.0490085999481,767.0414668000303,,None,,,,,3,2023-12-07_10h34.24.348,watkins1,2023.2.3,99.75410613730513,52,2023-12-07 10h34.30.914276 +0000,
,,,,,,,,,,,,,,,,,,,,,,,4,0,4,0,767.5410911000799,,,,,,,,,,771.5410174999852,772.0397254999261,,,,3.9945396999828517,,,,,,,,,,,,None,None,,,,,,,,,,Kerze,,,cuedRecallAdj,3,,,,,,,,,,,,,,,,,,,0,,,,,,,,,,,,,,,,,,,,,,,,,,,,,,,,,767.5312707000412,767.5410911000799,767.5410911000799,771.5381879999768,kurz,return,3.9945396999828517,None,771.5384541999083,771.5478538000025,771.5478538000025,771.5409148999024,,None,,,,,3,2023-12-07_10h34.24.348,watkins1,2023.2.3,99.75410613730513,52,2023-12-07 10h34.30.914276 +0000,
,,,,,,,,,,,,,,,,,,,,,,,5,0,5,0,772.0497137999628,,,,,,,,,,773.8607850999106,774.3595030000433,,,,1.805974300019443,,,,,,,,,,,,None,None,,,,,,,,,,Eimer,,,cuedRecallAdj,3,,,,,,,,,,,,,,,,,,,0,,,,,,,,,,,,,,,,,,,,,,,,,,,,,,,,,772.039975799853,772.0497137999628,772.0497137999628,773.8579353999812,gut,return,1.805974300019443,None,773.8582015000284,773.8674647998996,773.8674647998996,773.8606819000561,,None,,,,,3,2023-12-07_10h34.24.348,watkins1,2023.2.3,99.75410613730513,52,2023-12-07 10h34.30.914276 +0000,
,,,,,,,,,,,,,,,,,,,,,,,6,0,6,0,774.3695068999659,,,,,,,,,,777.6468648998998,778.1452382998541,,,,3.2701353998854756,,,,,,,,,,,,None,None,,,,,,,,,,Fahrrad,,,cuedRecallAdj,3,,,,,,,,,,,,,,,,,,,0,,,,,,,,,,,,,,,,,,,,,,,,,,,,,,,,,774.3597424000036,774.3695068999659,774.3695068999659,777.6437852000818,lang,return,3.2701353998854756,None,777.6440755999647,777.6533375999425,777.6533375999425,777.6467539998703,,None,,,,,3,2023-12-07_10h34.24.348,watkins1,2023.2.3,99.75410613730513,52,2023-12-07 10h34.30.914276 +0000,
,,,,,,,,,,,,,,,,,,,,,,,7,0,7,0,778.1551379999146,,,,,,,,,,787.8278739999514,788.3173088999465,,,,9.668447199976072,,,,,,,,,,,,None,None,,,,,,,,,,Hut,,,cuedRecallAdj,3,,,,,,,,,,,,,,,,,,,0,,,,,,,,,,,,,,,,,,,,,,,,,,,,,,,,,778.1454858998768,778.1551379999146,778.1551379999146,787.8257696998771,,return,9.668447199976072,None,787.8260419999715,787.8352190998849,787.8352190998849,787.8277719998732,,None,,,,,3,2023-12-07_10h34.24.348,watkins1,2023.2.3,99.75410613730513,52,2023-12-07 10h34.30.914276 +0000,
,,,,,,,,,,,,,,,,,,,,,,,8,0,8,0,788.3272130999248,,,,,,,,,,793.4920333998743,793.9905169999693,,,,5.16046079993248,,,,,,,,,,,,None,None,,,,,,,,,,Bürste,,,cuedRecallAdj,3,,,,,,,,,,,,,,,,,,,0,,,,,,,,,,,,,,,,,,,,,,,,,,,,,,,,,788.3175524000544,788.3272130999248,788.3272130999248,793.4889434999786,nachhaltig,return,5.16046079993248,None,793.4892106999177,793.4985036998987,793.4985036998987,793.4919308000244,,None,,,,,3,2023-12-07_10h34.24.348,watkins1,2023.2.3,99.75410613730513,52,2023-12-07 10h34.30.914276 +0000,
,,,,,,,,,,,,,,,,,,,,,,,9,0,9,0,794.0005510000046,,,,,,,,,,797.1771992999129,797.6758749999572,,,,3.1670472999103367,,,,,,,,,,,,None,None,,,,,,,,,,Vase,,,cuedRecallAdj,3,,,,,,,,,,,,,,,,,,,0,,,,,,,,,,,,,,,,,,,,,,,,,,,,,,,,,793.9907678000163,794.0005510000046,794.0005510000046,797.1741253999062,elegant,return,3.1670472999103367,None,797.1743940999731,797.1836258999538,797.1836258999538,797.1770983000752,,None,,,,,3,2023-12-07_10h34.24.348,watkins1,2023.2.3,99.75410613730513,52,2023-12-07 10h34.30.914276 +0000,
,,,,,,,,,,,,,,,,,,,,,,,10,0,10,0,797.685832799878,,,,,,,,,,802.4990081000142,802.9982406999916,,,,4.8018237999640405,,,,,,,,,,,,None,None,,,,,,,,,,Löffel,,,cuedRecallAdj,3,,,,,,,,,,,,,,,,,,,0,,,,,,,,,,,,,,,,,,,,,,,,,,,,,,,,,797.6761244998779,797.685832799878,797.685832799878,802.4960340000689,glänzend,return,4.8018237999640405,None,802.4962937000673,802.505734999897,802.505734999897,802.4989070999436,,None,,,,,3,2023-12-07_10h34.24.348,watkins1,2023.2.3,99.75410613730513,52,2023-12-07 10h34.30.914276 +0000,
,,,,,,,,,,,,,,,,,,,,,,,11,0,11,0,803.008183500031,,,,,,,,,,805.7428276999854,806.2417464000173,,,,2.7274203000124544,,,,,,,,,,,,None,None,,,,,,,,,,Geige,,,cuedRecallAdj,3,,,,,,,,,,,,,,,,,,,0,,,,,,,,,,,,,,,,,,,,,,,,,,,,,,,,,802.9984925000463,803.008183500031,803.008183500031,805.7399748000316,matt,return,2.7274203000124544,None,805.7402480000164,805.7496426000725,805.7496426000725,805.7427254000213,,None,,,,,3,2023-12-07_10h34.24.348,watkins1,2023.2.3,99.75410613730513,52,2023-12-07 10h34.30.914276 +0000,
,,,,,,,,,,,,,,,,,,,,,,,12,0,12,0,806.2517031999305,,,,,,,,,,815.4040302999783,815.9026589998975,,,,9.147987199947238,,,,,,,,,,,,None,None,,,,,,,,,,Stift,,,cuedRecallAdj,3,,,,,,,,,,,,,,,,,,,0,,,,,,,,,,,,,,,,,,,,,,,,,,,,,,,,,806.2419914999045,806.2517031999305,806.2517031999305,815.4010220998898,schmutzig,return,9.147987199947238,None,815.401284399908,815.4114613998681,815.4114613998681,815.403925599996,,None,,,,,3,2023-12-07_10h34.24.348,watkins1,2023.2.3,99.75410613730513,52,2023-12-07 10h34.30.914276 +0000,
,,,,,,,,,,,,,,,,,,,,,,,13,0,13,0,815.9125588000752,,,,,,,,,,824.3600341000129,824.8496270000469,,,,8.439103400101885,,,,,,,,,,,,None,None,,,,,,,,,,Uhr,,,cuedRecallAdj,3,,,,,,,,,,,,,,,,,,,0,,,,,,,,,,,,,,,,,,,,,,,,,,,,,,,,,815.9029107000679,815.9125588000752,815.9125588000752,824.3579579000361,,return,8.439103400101885,None,824.3582198999356,824.3674506999087,824.3674506999087,824.3599338999484,,None,,,,,3,2023-12-07_10h34.24.348,watkins1,2023.2.3,99.75410613730513,52,2023-12-07 10h34.30.914276 +0000,
,,,,,,,,,,,,,,,,,,,,,,,14,0,14,0,824.859581500059,,,,,,,,,,827.7245402999688,828.2234548998531,,,,2.85204999987036,,,,,,,,,,,,None,None,,,,,,,,,,Buch,,,cuedRecallAdj,3,,,,,,,,,,,,,,,,,,,0,,,,,,,,,,,,,,,,,,,,,,,,,,,,,,,,,824.8498670998961,824.859581500059,824.859581500059,827.7215873999521,verspielt,return,2.85204999987036,None,827.7218575000297,827.7314001000486,827.7314001000486,827.7244386000093,,None,,,,,3,2023-12-07_10h34.24.348,watkins1,2023.2.3,99.75410613730513,52,2023-12-07 10h34.30.914276 +0000,
,,,,,,,,,,,,,,,,,,,,,,,15,0,15,0,828.23340440006,,,,,,,,,,831.2900050000753,831.7885767999105,,,,3.046438399935141,,,,,,,,,,,,None,None,,,,,,,,,,Kamera,,,cuedRecallAdj,3,,,,,,,,,,,,,,,,,,,0,,,,,,,,,,,,,,,,,,,,,,,,,,,,,,,,,828.2236993000843,828.23340440006,828.23340440006,831.2868921998888,klein,return,3.046438399935141,None,831.2871864000335,831.2963697998784,831.2963697998784,831.2898999999743,,None,,,,,3,2023-12-07_10h34.24.348,watkins1,2023.2.3,99.75410613730513,52,2023-12-07 10h34.30.914276 +0000,
,,,,,,,,,,,,,,,,,,,,,,,16,0,16,0,831.7985201999545,,,,,,,,,,836.5922504998744,837.0907946000807,,,,4.785090799909085,,,,,,,,,,,,None,None,,,,,,,,,,Schere,,,cuedRecallAdj,3,,,,,,,,,,,,,,,,,,,0,,,,,,,,,,,,,,,,,,,,,,,,,,,,,,,,,831.788822799921,831.7985201999545,831.7985201999545,836.5891634998843,glänzend,return,4.785090799909085,None,836.5894293000456,836.5986607000232,836.5986607000232,836.5921473000199,,None,,,,,3,2023-12-07_10h34.24.348,watkins1,2023.2.3,99.75410613730513,52,2023-12-07 10h34.30.914276 +0000,
,,,,,,,,,,,,,,,,,,,,,,,17,0,17,0,837.1007246000227,,,,,,,,,,849.8479136999231,850.3466276999097,,,,12.738861000165343,,,,,,,,,,,,None,None,,,,,,,,,,Jacke,,,cuedRecallAdj,3,,,,,,,,,,,,,,,,,,,0,,,,,,,,,,,,,,,,,,,,,,,,,,,,,,,,,837.091044300003,837.1007246000227,837.1007246000227,849.8449690998532,hässlich,return,12.738861000165343,None,849.8452288999688,849.8545359999407,849.8545359999407,849.8478141999803,,None,,,,,3,2023-12-07_10h34.24.348,watkins1,2023.2.3,99.75410613730513,52,2023-12-07 10h34.30.914276 +0000,
,,,,,,,,,,,,,,,,,,,,,,,18,0,18,0,850.3565209000371,,,,,,,,,,853.422675000038,853.9214254999533,,,,3.0590743999928236,,,,,,,,,,,,None,None,,,,,,,,,,Flasche,,,cuedRecallAdj,3,,,,,,,,,,,,,,,,,,,0,,,,,,,,,,,,,,,,,,,,,,,,,,,,,,,,,850.346878600074,850.3565209000371,850.3565209000371,853.4197895000689,groß,return,3.0590743999928236,None,853.4200563998893,853.4292907000054,853.4292907000054,853.422574199969,,None,,,,,3,2023-12-07_10h34.24.348,watkins1,2023.2.3,99.75410613730513,52,2023-12-07 10h34.30.914276 +0000,
,,,,,,,,,,,,,,,,,,,,,,,19,0,19,0,853.9313222998753,,,,,,,,,,856.1939689000137,856.6835078999866,,,,2.252280700020492,,,,,,,,,,,,None,None,,,,,,,,,,Kette,,,cuedRecallAdj,3,,,,,,,,,,,,,,,,,,,0,,,,,,,,,,,,,,,,,,,,,,,,,,,,,,,,,853.9216757998802,853.9313222998753,853.9313222998753,856.1911333000753,nass,return,2.252280700020492,None,856.1914039999247,856.2009604000486,856.2009604000486,856.1938652999233,,None,,,,,3,2023-12-07_10h34.24.348,watkins1,2023.2.3,99.75410613730513,52,2023-12-07 10h34.30.914276 +0000,
,,,,,,,,,,,,,,,,,,,,,,,20,0,20,0,856.6934660999104,,,,,,,,,,869.2188299000263,869.7177033999469,,,,12.522185600129887,,,,,,,,,,,,None,None,,,,,,,,,,Ring,,,cuedRecallAdj,3,,,,,,,,,,,,,,,,,,,0,,,,,,,,,,,,,,,,,,,,,,,,,,,,,,,,,856.6837532999925,856.6934660999104,856.6934660999104,869.2160789000336,neu,return,12.522185600129887,None,869.2163702999242,869.225452600047,869.225452600047,869.2187264999375,,None,,,,,3,2023-12-07_10h34.24.348,watkins1,2023.2.3,99.75410613730513,52,2023-12-07 10h34.30.914276 +0000,
,,,,,,,,,,,,,,,,,,,,,,,21,0,21,0,869.7277548999991,,,,,,,,,,873.3655232999008,873.8647193000652,,,,3.631860100198537,,,,,,,,,,,,None,None,,,,,,,,,,Schlüssel,,,cuedRecallAdj,3,,,,,,,,,,,,,,,,,,,0,,,,,,,,,,,,,,,,,,,,,,,,,,,,,,,,,869.717954199994,869.7277548999991,869.7277548999991,873.3631814999972,,return,3.631860100198537,None,873.3634538999759,873.3726931000128,873.3726931000128,873.3654207999352,,None,,,,,3,2023-12-07_10h34.24.348,watkins1,2023.2.3,99.75410613730513,52,2023-12-07 10h34.30.914276 +0000,
,,,,,,,,,,,,,,,,,,,,,,,22,0,22,0,873.8746622998733,,,,,,,,,,876.347560999915,876.8372823998798,,,,2.4609340000897646,,,,,,,,,,,,None,None,,,,,,,,,,Würfel,,,cuedRecallAdj,3,,,,,,,,,,,,,,,,,,,0,,,,,,,,,,,,,,,,,,,,,,,,,,,,,,,,,873.8649699999951,873.8746622998733,873.8746622998733,876.3454817000311,,return,2.4609340000897646,None,876.3457494999748,876.3552031000145,876.3552031000145,876.3474584000651,,None,,,,,3,2023-12-07_10h34.24.348,watkins1,2023.2.3,99.75410613730513,52,2023-12-07 10h34.30.914276 +0000,
,,,,,,,,,,,,,,,,,,,,,,,23,0,23,0,876.8472394999117,,,,,,,,,,879.4413831999991,879.9401839000639,,,,2.584311299957335,,,,,,,,,,,,None,None,,,,,,,,,,Socke,,,cuedRecallAdj,3,,,,,,,,,,,,,,,,,,,0,,,,,,,,,,,,,,,,,,,,,,,,,,,,,,,,,876.8375311999116,876.8472394999117,876.8472394999117,879.4384002999868,klobig,return,2.584311299957335,None,879.4386733998545,879.447994499933,879.447994499933,879.441281599924,,None,,,,,3,2023-12-07_10h34.24.348,watkins1,2023.2.3,99.75410613730513,52,2023-12-07 10h34.30.914276 +0000,
,,,,,,,,,,,,,,,,,,,,,,,24,0,24,0,879.95013189991,,,,,,,,,,885.6470131999813,886.1456128000282,,,,5.6894851999823,,,,,,,,,,,,None,None,,,,,,,,,,Kiste,,,cuedRecallAdj,3,,,,,,,,,,,,,,,,,,,0,,,,,,,,,,,,,,,,,,,,,,,,,,,,,,,,,879.940442299936,879.95013189991,879.95013189991,885.6439733000007,zart,return,5.6894851999823,None,885.6442426000722,885.6536443999503,885.6536443999503,885.6469095000066,,None,,,,,3,2023-12-07_10h34.24.348,watkins1,2023.2.3,99.75410613730513,52,2023-12-07 10h34.30.914276 +0000,
,,,,,,,,,,,,,,,,,,,,,,,25,0,25,0,886.1555166000035,,,,,,,,,,889.6371122000273,890.1355435999576,,,,3.4760484001599252,,,,,,,,,,,,None,None,,,,,,,,,,Rucksack,,,cuedRecallAdj,3,,,,,,,,,,,,,,,,,,,0,,,,,,,,,,,,,,,,,,,,,,,,,,,,,,,,,886.145868799882,886.1555166000035,886.1555166000035,889.6339851000812,kratzig,return,3.4760484001599252,None,889.6342541999184,889.6435060000513,889.6435060000513,889.6370103999507,,None,,,,,3,2023-12-07_10h34.24.348,watkins1,2023.2.3,99.75410613730513,52,2023-12-07 10h34.30.914276 +0000,
,,,,,,,,,,,,,,,,,,,,,,,26,0,26,0,890.1454391998705,,,,,,,,,,894.2453987998888,894.7440313999541,,,,4.094087899895385,,,,,,,,,,,,None,None,,,,,,,,,,Lampe,,,cuedRecallAdj,3,,,,,,,,,,,,,,,,,,,0,,,,,,,,,,,,,,,,,,,,,,,,,,,,,,,,,890.1357900998555,890.1454391998705,890.1454391998705,894.2424399000593,breit,return,4.094087899895385,None,894.2427073998842,894.2519980999641,894.2519980999641,894.2452974999323,,None,,,,,3,2023-12-07_10h34.24.348,watkins1,2023.2.3,99.75410613730513,52,2023-12-07 10h34.30.914276 +0000,
,,,,,,,,,,,,,,,,,,,,,,,27,0,27,0,894.7540233999025,,,,,,,,,,899.3560502999462,899.854663599981,,,,4.597459099953994,,,,,,,,,,,,None,None,,,,,,,,,,Tasche,,,cuedRecallAdj,3,,,,,,,,,,,,,,,,,,,0,,,,,,,,,,,,,,,,,,,,,,,,,,,,,,,,,894.7442785999738,894.7540233999025,894.7540233999025,899.353018600028,biegsam,return,4.597459099953994,None,899.3532916000113,899.3625727999024,899.3625727999024,899.3559464998543,,None,,,,,3,2023-12-07_10h34.24.348,watkins1,2023.2.3,99.75410613730513,52,2023-12-07 10h34.30.914276 +0000,
,,,,,,,,,,,,,,,,,,,,,,,28,0,28,0,899.8645671000704,,,,,,,,,,902.5490174000151,903.0474779000506,,,,2.6709608000237495,,,,,,,,,,,,None,None,,,,,,,,,,Hammer,,,cuedRecallAdj,3,,,,,,,,,,,,,,,,,,,0,,,,,,,,,,,,,,,,,,,,,,,,,,,,,,,,,899.8549180999398,899.8645671000704,899.8645671000704,902.5456185999792,dunkel,return,2.6709608000237495,None,902.5458843999077,902.5554416000377,902.5554416000377,902.5489149000496,,None,,,,,3,2023-12-07_10h34.24.348,watkins1,2023.2.3,99.75410613730513,52,2023-12-07 10h34.30.914276 +0000,
,,,,,,,,,,,,,,,,,,,,,,,29,0,29,0,903.0574308000505,,,,,,,,,,905.300006999867,905.7987208999693,,,,2.2381603999529034,,,,,,,,,,,,None,None,,,,,,,,,,Brille,,,cuedRecallAdj,3,,,,,,,,,,,,,,,,,,,0,,,,,,,,,,,,,,,,,,,,,,,,,,,,,,,,,903.0477213999256,903.0574308000505,903.0574308000505,905.2969726000447,dick,return,2.2381603999529034,None,905.2972568999976,905.3066260998603,905.3066260998603,905.299899399979,,None,,,,,3,2023-12-07_10h34.24.348,watkins1,2023.2.3,99.75410613730513,52,2023-12-07 10h34.30.914276 +0000,
,,,,,,,,,,,,,,,,,,,,,,,,,,,,,,,,,,,,,,,,,,,,,,,,,,,,,,,,,,,,,,,,,,,,,3,,,,,,,,,,,,,,,,,,,,,,,,,,,,,,,,,,,,,,,,,,,,,,,,,,,,,,,,,,,,,,,,,,905.8151646999177,q,1850.6944432000164,None,3,2023-12-07_10h34.24.348,watkins1,2023.2.3,99.75410613730513,52,2023-12-07 10h34.30.914276 +0000,
