Equation,CorrectResponse,Correctbutton,trials_7.thisRepN,trials_7.thisTrialN,trials_7.thisN,trials_7.thisIndex,trials.thisRepN,trials.thisTrialN,trials.thisN,trials.thisIndex,trials_3.thisRepN,trials_3.thisTrialN,trials_3.thisN,trials_3.thisIndex,trials_2.thisRepN,trials_2.thisTrialN,trials_2.thisN,trials_2.thisIndex,trials_4.thisRepN,trials_4.thisTrialN,trials_4.thisN,trials_4.thisIndex,trials_5.thisRepN,trials_5.thisTrialN,trials_5.thisN,trials_5.thisIndex,thisRow.t,notes,list_sub_restudy,list_sub_testsub,code_marius.started,code_marius.stopped,welcome.started,welcome.stopped,instruction_study.started,instruction_study.stopped,fixationcross.started,fixationcross.stopped,blanc.started,blanc.stopped,study_control_probe.started,study_control_probe.stopped,responseKey,responseTime,scale_answer_2.keys,study_control_probe_2.started,study_control_probe_2.stopped,scale_answer_3.keys,scale_answer_3.rt,scale_answer_3.duration,blanc_2.started,blanc_2.stopped,test_attr_probe.started,test_attr_probe.stopped,recalled_attr,firstKeyTime,secondWordTime,blanc_3.started,blanc_3.stopped,test_sub_probe.started,test_sub_probe.stopped,recalled_sub,instruction_probe_end.started,instruction_probe_end.stopped,study.started,study.stopped,substantive,adjective,wordpair,task,condition,liste_sub_phase1,liste_adj_phase1,scale_answer.keys,scale_answer.rt,scale_answer.duration,code_defineWordsInit.started,code_defineWordsInit.stopped,liste_sub_phase2,study_control.started,study_control.stopped,scale_answer_4.keys,restudy_same.started,restudy_same.stopped,scale_answer_5.keys,restudy_different.started,restudy_different.stopped,scale_answer_6.keys,test_attr.started,test_attr.stopped,test_sub.started,correct,test_sub.stopped,scale_answer_5.rt,scale_answer_5.duration,distractortask.started,equation_text.started,distractortask.stopped,mouse_answer.x,mouse_answer.y,mouse_answer.leftButton,mouse_answer.midButton,mouse_answer.rightButton,mouse_answer.time,mouse_answer.clicked_name,feedback_distractortask.started,feedback_distractortask.stopped,free_recall.started,text_enter.started,key_resp.started,free_recall.stopped,key_resp.keys,key_resp.rt,key_resp.duration,free_recalled_sub,mouse_continue.x,mouse_continue.y,mouse_continue.leftButton,mouse_continue.midButton,mouse_continue.rightButton,mouse_continue.time,mouse_continue.clicked_name,cued_recall.started,text_enter_2.started,key_continue.started,cued_recall.stopped,recalled_attr1,key_continue.keys,key_continue.rt,key_continue.duration,cued_recall_2.started,text_enter_3.started,key_continue_2.started,cued_recall_2.stopped,recalled_attr2,key_continue_2.keys,key_resp_8.started,key_resp_8.keys,key_resp_8.rt,key_resp_8.duration,condition,date,expName,psychopyVersion,frameRate,participant,expStart,
,,,,,,,,,,,,,,,,,,,,,,,,,,,,,"['Kerze', 'Trommel', 'Flasche', 'Eimer', 'Fahrrad', 'Jacke', 'Bürste', 'Tasche', 'Tasse', 'Schere', 'Hammer', 'Stift', 'Lampe', 'Ring', 'Brille']","['Schlüssel', 'Löffel', 'Blume', 'Hut', 'Kamera', 'Geige', 'Kette', 'Socke', 'Vase', 'Buch', 'Telefon', 'Würfel', 'Rucksack', 'Uhr', 'Kiste']",0.10366870003053918,0.10373810003511608,0.1037470000446774,4.752419500029646,,,,,,,,,,,,,,,,,,,,,,,,,,,,,,,,,,,,,2,,,,,,,,,,,,,,,,,,,,,,,,,,,,,,,,,,,,,,,,,,,,,,,,,,,,,,,,,,,,,,,,,,,,,,2,2023-11-27_10h45.39.218,watkins1,2023.2.3,99.73062757877582,16,2023-11-27 10h45.46.049120 +0000,
,,,,,,,,,,,,,,,,,,,,,,,,,,,,,,,,,,,4.752467400045134,40.09922540001571,,,,,,,,,,,,,,,,,,,,,,,,,,,,,,,,,,,2,,,,,,,,,,,,,,,,,,,,,,,,,,,,,,,,,,,,,,,,,,,,,,,,,,,,,,,,,,,,,,,,,,,,,,2,2023-11-27_10h45.39.218,watkins1,2023.2.3,99.73062757877582,16,2023-11-27 10h45.46.049120 +0000,
,,,0,0,0,0,,,,,,,,,,,,,,,,,,,,,41.11303520004731,,,,,,,,,,40.09924100001808,41.10295260004932,47.600843300053384,48.092140800028574,41.5949729999993,47.60067750001326,3,1.5793183000059798,None,48.09215120004956,54.099725700041745,3,1.5793183000059798,None,54.10002650000388,54.10005110001657,54.10005830001319,54.100139300047886,,2.148570600023959,5.763166400021873,54.1003051000298,54.59133840003051,54.59134940005606,60.59557780000614,capslockhcapslockun,,,,,,,,,2,,,,,,,,,,,,,,,,,,,,,,,,,,,,,,,,,,,,,,,,,,,,,,,,,,,,,,,,,,,,,,,,,,,,,,2,2023-11-27_10h45.39.218,watkins1,2023.2.3,99.73062757877582,16,2023-11-27 10h45.46.049120 +0000,
,,,,,,,,,,,,,,,,,,,,,,,,,,,,,,,,,,,,,,,,,,,,,,,,,,,,,,,,,,,,,,,60.59573200001614,65.02210870001,,,,,,,2,,,,,,,,,,,,,,,,,,,,,,,,,,,,,,,,,,,,,,,,,,,,,,,,,,,,,,,,,,,,,,,,,,,,,,2,2023-11-27_10h45.39.218,watkins1,2023.2.3,99.73062757877582,16,2023-11-27 10h45.46.049120 +0000,
,,,,,,,0,0,0,0,,,,,,,,,,,,,,,,,66.03559160005534,,,,,,,,,,65.02212510001846,66.0256108000176,66.02607050002553,66.5176296000136,,,1,1.5185030000284314,,,,,,,,,,,,,,,,,,,,,66.51764040003764,72.52017790003447,Lampe,dunkel,"['Lampe', 'dunkel']",restudy,2,"['Lampe', 'Fahrrad', 'Rucksack', 'Brille', 'Uhr', 'Schere', 'Hammer', 'Tasche', 'Socke', 'Kamera', 'Stift', 'Jacke', 'Telefon', 'Würfel', 'Trommel', 'Schlüssel', 'Buch', 'Bürste', 'Geige', 'Ring', 'Vase', 'Löffel', 'Eimer', 'Flasche', 'Kerze', 'Tasse', 'Hut', 'Kette', 'Blume', 'Kiste']",['dunkel'],1,1.5185030000284314,None,,,,,,,,,,,,,,,,,,,,,,,,,,,,,,,,,,,,,,,,,,,,,,,,,,,,,,,,,,,,,,,,,2,2023-11-27_10h45.39.218,watkins1,2023.2.3,99.73062757877582,16,2023-11-27 10h45.46.049120 +0000,
,,,,,,,1,0,1,0,,,,,,,,,,,,,,,,,72.52963760000421,,,,,,,,,,,,72.52082830003928,73.01164200005587,,,2,1.745197799988091,,,,,,,,,,,,,,,,,,,,,73.01165250001941,79.0122111000237,Fahrrad,schlicht,"['Fahrrad', 'schlicht']",restudy,2,"['Lampe', 'Fahrrad', 'Rucksack', 'Brille', 'Uhr', 'Schere', 'Hammer', 'Tasche', 'Socke', 'Kamera', 'Stift', 'Jacke', 'Telefon', 'Würfel', 'Trommel', 'Schlüssel', 'Buch', 'Bürste', 'Geige', 'Ring', 'Vase', 'Löffel', 'Eimer', 'Flasche', 'Kerze', 'Tasse', 'Hut', 'Kette', 'Blume', 'Kiste']","['dunkel', 'schlicht']",2,1.745197799988091,None,,,,,,,,,,,,,,,,,,,,,,,,,,,,,,,,,,,,,,,,,,,,,,,,,,,,,,,,,,,,,,,,,2,2023-11-27_10h45.39.218,watkins1,2023.2.3,99.73062757877582,16,2023-11-27 10h45.46.049120 +0000,
,,,,,,,2,0,2,0,,,,,,,,,,,,,,,,,79.02166270004818,,,,,,,,,,,,79.01274060003925,79.50362800003495,,,1,2.060828399960883,,,,,,,,,,,,,,,,,,,,,79.50363880000077,85.50733880000189,Rucksack,kratzig,"['Rucksack', 'kratzig']",test_sub,2,"['Lampe', 'Fahrrad', 'Rucksack', 'Brille', 'Uhr', 'Schere', 'Hammer', 'Tasche', 'Socke', 'Kamera', 'Stift', 'Jacke', 'Telefon', 'Würfel', 'Trommel', 'Schlüssel', 'Buch', 'Bürste', 'Geige', 'Ring', 'Vase', 'Löffel', 'Eimer', 'Flasche', 'Kerze', 'Tasse', 'Hut', 'Kette', 'Blume', 'Kiste']","['dunkel', 'schlicht', 'kratzig']",1,2.060828399960883,None,,,,,,,,,,,,,,,,,,,,,,,,,,,,,,,,,,,,,,,,,,,,,,,,,,,,,,,,,,,,,,,,,2,2023-11-27_10h45.39.218,watkins1,2023.2.3,99.73062757877582,16,2023-11-27 10h45.46.049120 +0000,
,,,,,,,3,0,3,0,,,,,,,,,,,,,,,,,85.51685540005565,,,,,,,,,,,,85.50787030003266,85.9989214000525,,,1,2.0779174000490457,,,,,,,,,,,,,,,,,,,,,85.99893110000994,92.00321930000791,Brille,flauschig,"['Brille', 'flauschig']",restudy,2,"['Lampe', 'Fahrrad', 'Rucksack', 'Brille', 'Uhr', 'Schere', 'Hammer', 'Tasche', 'Socke', 'Kamera', 'Stift', 'Jacke', 'Telefon', 'Würfel', 'Trommel', 'Schlüssel', 'Buch', 'Bürste', 'Geige', 'Ring', 'Vase', 'Löffel', 'Eimer', 'Flasche', 'Kerze', 'Tasse', 'Hut', 'Kette', 'Blume', 'Kiste']","['dunkel', 'schlicht', 'kratzig', 'flauschig']",1,2.0779174000490457,None,,,,,,,,,,,,,,,,,,,,,,,,,,,,,,,,,,,,,,,,,,,,,,,,,,,,,,,,,,,,,,,,,2,2023-11-27_10h45.39.218,watkins1,2023.2.3,99.73062757877582,16,2023-11-27 10h45.46.049120 +0000,
,,,,,,,4,0,4,0,,,,,,,,,,,,,,,,,92.01267470000312,,,,,,,,,,,,92.00375160004478,92.49471880000783,,,1,1.1740635000169277,,,,,,,,,,,,,,,,,,,,,92.49472910002805,98.50333340000361,Uhr,schwer,"['Uhr', 'schwer']",test_sub,2,"['Lampe', 'Fahrrad', 'Rucksack', 'Brille', 'Uhr', 'Schere', 'Hammer', 'Tasche', 'Socke', 'Kamera', 'Stift', 'Jacke', 'Telefon', 'Würfel', 'Trommel', 'Schlüssel', 'Buch', 'Bürste', 'Geige', 'Ring', 'Vase', 'Löffel', 'Eimer', 'Flasche', 'Kerze', 'Tasse', 'Hut', 'Kette', 'Blume', 'Kiste']","['dunkel', 'schlicht', 'kratzig', 'flauschig', 'schwer']",1,1.1740635000169277,None,,,,,,,,,,,,,,,,,,,,,,,,,,,,,,,,,,,,,,,,,,,,,,,,,,,,,,,,,,,,,,,,,2,2023-11-27_10h45.39.218,watkins1,2023.2.3,99.73062757877582,16,2023-11-27 10h45.46.049120 +0000,
,,,,,,,5,0,5,0,,,,,,,,,,,,,,,,,98.5128564000479,,,,,,,,,,,,98.50387150002643,98.9948428000207,,,2,2.3865053999470547,,,,,,,,,,,,,,,,,,,,,98.99485320004169,104.99788030004129,Schere,elegant,"['Schere', 'elegant']",restudy,2,"['Lampe', 'Fahrrad', 'Rucksack', 'Brille', 'Uhr', 'Schere', 'Hammer', 'Tasche', 'Socke', 'Kamera', 'Stift', 'Jacke', 'Telefon', 'Würfel', 'Trommel', 'Schlüssel', 'Buch', 'Bürste', 'Geige', 'Ring', 'Vase', 'Löffel', 'Eimer', 'Flasche', 'Kerze', 'Tasse', 'Hut', 'Kette', 'Blume', 'Kiste']","['dunkel', 'schlicht', 'kratzig', 'flauschig', 'schwer', 'elegant']",2,2.3865053999470547,None,,,,,,,,,,,,,,,,,,,,,,,,,,,,,,,,,,,,,,,,,,,,,,,,,,,,,,,,,,,,,,,,,2,2023-11-27_10h45.39.218,watkins1,2023.2.3,99.73062757877582,16,2023-11-27 10h45.46.049120 +0000,
,,,,,,,6,0,6,0,,,,,,,,,,,,,,,,,105.00734480004758,,,,,,,,,,,,104.99843000003602,105.48929840000346,,,3,2.1791114999796264,,,,,,,,,,,,,,,,,,,,,105.4893084000214,111.4922993000364,Hammer,hässlich,"['Hammer', 'hässlich']",restudy,2,"['Lampe', 'Fahrrad', 'Rucksack', 'Brille', 'Uhr', 'Schere', 'Hammer', 'Tasche', 'Socke', 'Kamera', 'Stift', 'Jacke', 'Telefon', 'Würfel', 'Trommel', 'Schlüssel', 'Buch', 'Bürste', 'Geige', 'Ring', 'Vase', 'Löffel', 'Eimer', 'Flasche', 'Kerze', 'Tasse', 'Hut', 'Kette', 'Blume', 'Kiste']","['dunkel', 'schlicht', 'kratzig', 'flauschig', 'schwer', 'elegant', 'hässlich']",3,2.1791114999796264,None,,,,,,,,,,,,,,,,,,,,,,,,,,,,,,,,,,,,,,,,,,,,,,,,,,,,,,,,,,,,,,,,,2,2023-11-27_10h45.39.218,watkins1,2023.2.3,99.73062757877582,16,2023-11-27 10h45.46.049120 +0000,
,,,,,,,7,0,7,0,,,,,,,,,,,,,,,,,111.50177130004158,,,,,,,,,,,,111.4928284000489,111.98378940002294,,,1,1.7578003999660723,,,,,,,,,,,,,,,,,,,,,111.98379970004316,117.98509320005542,Tasche,dick,"['Tasche', 'dick']",restudy,2,"['Lampe', 'Fahrrad', 'Rucksack', 'Brille', 'Uhr', 'Schere', 'Hammer', 'Tasche', 'Socke', 'Kamera', 'Stift', 'Jacke', 'Telefon', 'Würfel', 'Trommel', 'Schlüssel', 'Buch', 'Bürste', 'Geige', 'Ring', 'Vase', 'Löffel', 'Eimer', 'Flasche', 'Kerze', 'Tasse', 'Hut', 'Kette', 'Blume', 'Kiste']","['dunkel', 'schlicht', 'kratzig', 'flauschig', 'schwer', 'elegant', 'hässlich', 'dick']",1,1.7578003999660723,None,,,,,,,,,,,,,,,,,,,,,,,,,,,,,,,,,,,,,,,,,,,,,,,,,,,,,,,,,,,,,,,,,2,2023-11-27_10h45.39.218,watkins1,2023.2.3,99.73062757877582,16,2023-11-27 10h45.46.049120 +0000,
,,,,,,,8,0,8,0,,,,,,,,,,,,,,,,,117.99455660005333,,,,,,,,,,,,117.98562330001732,118.47649030003231,,,2,1.8328405999927782,,,,,,,,,,,,,,,,,,,,,118.47650100005558,124.48694270005217,Socke,blass,"['Socke', 'blass']",test_sub,2,"['Lampe', 'Fahrrad', 'Rucksack', 'Brille', 'Uhr', 'Schere', 'Hammer', 'Tasche', 'Socke', 'Kamera', 'Stift', 'Jacke', 'Telefon', 'Würfel', 'Trommel', 'Schlüssel', 'Buch', 'Bürste', 'Geige', 'Ring', 'Vase', 'Löffel', 'Eimer', 'Flasche', 'Kerze', 'Tasse', 'Hut', 'Kette', 'Blume', 'Kiste']","['dunkel', 'schlicht', 'kratzig', 'flauschig', 'schwer', 'elegant', 'hässlich', 'dick', 'blass']",2,1.8328405999927782,None,,,,,,,,,,,,,,,,,,,,,,,,,,,,,,,,,,,,,,,,,,,,,,,,,,,,,,,,,,,,,,,,,2,2023-11-27_10h45.39.218,watkins1,2023.2.3,99.73062757877582,16,2023-11-27 10h45.46.049120 +0000,
,,,,,,,9,0,9,0,,,,,,,,,,,,,,,,,124.49629960005404,,,,,,,,,,,,124.4874655000167,124.9781780000194,,,3,1.0912833999609575,,,,,,,,,,,,,,,,,,,,,124.97818790003657,130.9881884000497,Kamera,gut,"['Kamera', 'gut']",test_sub,2,"['Lampe', 'Fahrrad', 'Rucksack', 'Brille', 'Uhr', 'Schere', 'Hammer', 'Tasche', 'Socke', 'Kamera', 'Stift', 'Jacke', 'Telefon', 'Würfel', 'Trommel', 'Schlüssel', 'Buch', 'Bürste', 'Geige', 'Ring', 'Vase', 'Löffel', 'Eimer', 'Flasche', 'Kerze', 'Tasse', 'Hut', 'Kette', 'Blume', 'Kiste']","['dunkel', 'schlicht', 'kratzig', 'flauschig', 'schwer', 'elegant', 'hässlich', 'dick', 'blass', 'gut']",3,1.0912833999609575,None,,,,,,,,,,,,,,,,,,,,,,,,,,,,,,,,,,,,,,,,,,,,,,,,,,,,,,,,,,,,,,,,,2,2023-11-27_10h45.39.218,watkins1,2023.2.3,99.73062757877582,16,2023-11-27 10h45.46.049120 +0000,
,,,,,,,10,0,10,0,,,,,,,,,,,,,,,,,130.9976619000081,,,,,,,,,,,,130.98872090002988,131.4797397000366,,,1,1.510001199960243,,,,,,,,,,,,,,,,,,,,,131.47975009999936,137.48113330005435,Stift,biegsam,"['Stift', 'biegsam']",restudy,2,"['Lampe', 'Fahrrad', 'Rucksack', 'Brille', 'Uhr', 'Schere', 'Hammer', 'Tasche', 'Socke', 'Kamera', 'Stift', 'Jacke', 'Telefon', 'Würfel', 'Trommel', 'Schlüssel', 'Buch', 'Bürste', 'Geige', 'Ring', 'Vase', 'Löffel', 'Eimer', 'Flasche', 'Kerze', 'Tasse', 'Hut', 'Kette', 'Blume', 'Kiste']","['dunkel', 'schlicht', 'kratzig', 'flauschig', 'schwer', 'elegant', 'hässlich', 'dick', 'blass', 'gut', 'biegsam']",1,1.510001199960243,None,,,,,,,,,,,,,,,,,,,,,,,,,,,,,,,,,,,,,,,,,,,,,,,,,,,,,,,,,,,,,,,,,2,2023-11-27_10h45.39.218,watkins1,2023.2.3,99.73062757877582,16,2023-11-27 10h45.46.049120 +0000,
,,,,,,,11,0,11,0,,,,,,,,,,,,,,,,,137.49070300004678,,,,,,,,,,,,137.48165740002878,137.97257650003303,,,2,1.1047959999996237,,,,,,,,,,,,,,,,,,,,,137.97258660005173,143.98227560002124,Jacke,neu,"['Jacke', 'neu']",restudy,2,"['Lampe', 'Fahrrad', 'Rucksack', 'Brille', 'Uhr', 'Schere', 'Hammer', 'Tasche', 'Socke', 'Kamera', 'Stift', 'Jacke', 'Telefon', 'Würfel', 'Trommel', 'Schlüssel', 'Buch', 'Bürste', 'Geige', 'Ring', 'Vase', 'Löffel', 'Eimer', 'Flasche', 'Kerze', 'Tasse', 'Hut', 'Kette', 'Blume', 'Kiste']","['dunkel', 'schlicht', 'kratzig', 'flauschig', 'schwer', 'elegant', 'hässlich', 'dick', 'blass', 'gut', 'biegsam', 'neu']",2,1.1047959999996237,None,,,,,,,,,,,,,,,,,,,,,,,,,,,,,,,,,,,,,,,,,,,,,,,,,,,,,,,,,,,,,,,,,2,2023-11-27_10h45.39.218,watkins1,2023.2.3,99.73062757877582,16,2023-11-27 10h45.46.049120 +0000,
,,,,,,,12,0,12,0,,,,,,,,,,,,,,,,,143.9917362999986,,,,,,,,,,,,143.98280060000252,144.47385840001516,,,1,1.4439274999895133,,,,,,,,,,,,,,,,,,,,,144.47386870003538,150.47841410001274,Telefon,gestreift,"['Telefon', 'gestreift']",test_sub,2,"['Lampe', 'Fahrrad', 'Rucksack', 'Brille', 'Uhr', 'Schere', 'Hammer', 'Tasche', 'Socke', 'Kamera', 'Stift', 'Jacke', 'Telefon', 'Würfel', 'Trommel', 'Schlüssel', 'Buch', 'Bürste', 'Geige', 'Ring', 'Vase', 'Löffel', 'Eimer', 'Flasche', 'Kerze', 'Tasse', 'Hut', 'Kette', 'Blume', 'Kiste']","['dunkel', 'schlicht', 'kratzig', 'flauschig', 'schwer', 'elegant', 'hässlich', 'dick', 'blass', 'gut', 'biegsam', 'neu', 'gestreift']",1,1.4439274999895133,None,,,,,,,,,,,,,,,,,,,,,,,,,,,,,,,,,,,,,,,,,,,,,,,,,,,,,,,,,,,,,,,,,2,2023-11-27_10h45.39.218,watkins1,2023.2.3,99.73062757877582,16,2023-11-27 10h45.46.049120 +0000,
,,,,,,,13,0,13,0,,,,,,,,,,,,,,,,,150.48797890002606,,,,,,,,,,,,150.47893540002406,150.9699041999993,,,2,1.4908558999886736,,,,,,,,,,,,,,,,,,,,,150.96991390001494,156.97359740000684,Würfel,hübsch,"['Würfel', 'hübsch']",test_sub,2,"['Lampe', 'Fahrrad', 'Rucksack', 'Brille', 'Uhr', 'Schere', 'Hammer', 'Tasche', 'Socke', 'Kamera', 'Stift', 'Jacke', 'Telefon', 'Würfel', 'Trommel', 'Schlüssel', 'Buch', 'Bürste', 'Geige', 'Ring', 'Vase', 'Löffel', 'Eimer', 'Flasche', 'Kerze', 'Tasse', 'Hut', 'Kette', 'Blume', 'Kiste']","['dunkel', 'schlicht', 'kratzig', 'flauschig', 'schwer', 'elegant', 'hässlich', 'dick', 'blass', 'gut', 'biegsam', 'neu', 'gestreift', 'hübsch']",2,1.4908558999886736,None,,,,,,,,,,,,,,,,,,,,,,,,,,,,,,,,,,,,,,,,,,,,,,,,,,,,,,,,,,,,,,,,,2,2023-11-27_10h45.39.218,watkins1,2023.2.3,99.73062757877582,16,2023-11-27 10h45.46.049120 +0000,
,,,,,,,14,0,14,0,,,,,,,,,,,,,,,,,156.98305460001575,,,,,,,,,,,,156.97412940004142,157.46504249999998,,,2,1.4210179999936372,,,,,,,,,,,,,,,,,,,,,157.46505290002096,163.4736443000147,Trommel,bunt,"['Trommel', 'bunt']",restudy,2,"['Lampe', 'Fahrrad', 'Rucksack', 'Brille', 'Uhr', 'Schere', 'Hammer', 'Tasche', 'Socke', 'Kamera', 'Stift', 'Jacke', 'Telefon', 'Würfel', 'Trommel', 'Schlüssel', 'Buch', 'Bürste', 'Geige', 'Ring', 'Vase', 'Löffel', 'Eimer', 'Flasche', 'Kerze', 'Tasse', 'Hut', 'Kette', 'Blume', 'Kiste']","['dunkel', 'schlicht', 'kratzig', 'flauschig', 'schwer', 'elegant', 'hässlich', 'dick', 'blass', 'gut', 'biegsam', 'neu', 'gestreift', 'hübsch', 'bunt']",2,1.4210179999936372,None,,,,,,,,,,,,,,,,,,,,,,,,,,,,,,,,,,,,,,,,,,,,,,,,,,,,,,,,,,,,,,,,,2,2023-11-27_10h45.39.218,watkins1,2023.2.3,99.73062757877582,16,2023-11-27 10h45.46.049120 +0000,
,,,,,,,15,0,15,0,,,,,,,,,,,,,,,,,163.4831194000435,,,,,,,,,,,,163.47416640003212,163.96507360000396,,,1,1.1207698000362143,,,,,,,,,,,,,,,,,,,,,163.9650836000219,169.96968620002735,Schlüssel,niedlich,"['Schlüssel', 'niedlich']",test_sub,2,"['Lampe', 'Fahrrad', 'Rucksack', 'Brille', 'Uhr', 'Schere', 'Hammer', 'Tasche', 'Socke', 'Kamera', 'Stift', 'Jacke', 'Telefon', 'Würfel', 'Trommel', 'Schlüssel', 'Buch', 'Bürste', 'Geige', 'Ring', 'Vase', 'Löffel', 'Eimer', 'Flasche', 'Kerze', 'Tasse', 'Hut', 'Kette', 'Blume', 'Kiste']","['dunkel', 'schlicht', 'kratzig', 'flauschig', 'schwer', 'elegant', 'hässlich', 'dick', 'blass', 'gut', 'biegsam', 'neu', 'gestreift', 'hübsch', 'bunt', 'niedlich']",1,1.1207698000362143,None,,,,,,,,,,,,,,,,,,,,,,,,,,,,,,,,,,,,,,,,,,,,,,,,,,,,,,,,,,,,,,,,,2,2023-11-27_10h45.39.218,watkins1,2023.2.3,99.73062757877582,16,2023-11-27 10h45.46.049120 +0000,
,,,,,,,16,0,16,0,,,,,,,,,,,,,,,,,169.97914550005225,,,,,,,,,,,,169.97020910005085,170.46116610005265,,,3,1.512722700019367,,,,,,,,,,,,,,,,,,,,,170.46117640001466,176.46948760002851,Buch,glatt,"['Buch', 'glatt']",test_sub,2,"['Lampe', 'Fahrrad', 'Rucksack', 'Brille', 'Uhr', 'Schere', 'Hammer', 'Tasche', 'Socke', 'Kamera', 'Stift', 'Jacke', 'Telefon', 'Würfel', 'Trommel', 'Schlüssel', 'Buch', 'Bürste', 'Geige', 'Ring', 'Vase', 'Löffel', 'Eimer', 'Flasche', 'Kerze', 'Tasse', 'Hut', 'Kette', 'Blume', 'Kiste']","['dunkel', 'schlicht', 'kratzig', 'flauschig', 'schwer', 'elegant', 'hässlich', 'dick', 'blass', 'gut', 'biegsam', 'neu', 'gestreift', 'hübsch', 'bunt', 'niedlich', 'glatt']",3,1.512722700019367,None,,,,,,,,,,,,,,,,,,,,,,,,,,,,,,,,,,,,,,,,,,,,,,,,,,,,,,,,,,,,,,,,,2,2023-11-27_10h45.39.218,watkins1,2023.2.3,99.73062757877582,16,2023-11-27 10h45.46.049120 +0000,
,,,,,,,17,0,17,0,,,,,,,,,,,,,,,,,176.47893590002786,,,,,,,,,,,,176.47001190000447,176.960927200038,,,1,1.3488330999971367,,,,,,,,,,,,,,,,,,,,,176.96093760000076,182.96869560005143,Bürste,lustig,"['Bürste', 'lustig']",restudy,2,"['Lampe', 'Fahrrad', 'Rucksack', 'Brille', 'Uhr', 'Schere', 'Hammer', 'Tasche', 'Socke', 'Kamera', 'Stift', 'Jacke', 'Telefon', 'Würfel', 'Trommel', 'Schlüssel', 'Buch', 'Bürste', 'Geige', 'Ring', 'Vase', 'Löffel', 'Eimer', 'Flasche', 'Kerze', 'Tasse', 'Hut', 'Kette', 'Blume', 'Kiste']","['dunkel', 'schlicht', 'kratzig', 'flauschig', 'schwer', 'elegant', 'hässlich', 'dick', 'blass', 'gut', 'biegsam', 'neu', 'gestreift', 'hübsch', 'bunt', 'niedlich', 'glatt', 'lustig']",1,1.3488330999971367,None,,,,,,,,,,,,,,,,,,,,,,,,,,,,,,,,,,,,,,,,,,,,,,,,,,,,,,,,,,,,,,,,,2,2023-11-27_10h45.39.218,watkins1,2023.2.3,99.73062757877582,16,2023-11-27 10h45.46.049120 +0000,
,,,,,,,18,0,18,0,,,,,,,,,,,,,,,,,182.9781177000259,,,,,,,,,,,,182.96921790001215,183.46018570003798,,,2,1.5605350999976508,,,,,,,,,,,,,,,,,,,,,183.46019530005287,189.46929220005404,Geige,praktisch,"['Geige', 'praktisch']",test_sub,2,"['Lampe', 'Fahrrad', 'Rucksack', 'Brille', 'Uhr', 'Schere', 'Hammer', 'Tasche', 'Socke', 'Kamera', 'Stift', 'Jacke', 'Telefon', 'Würfel', 'Trommel', 'Schlüssel', 'Buch', 'Bürste', 'Geige', 'Ring', 'Vase', 'Löffel', 'Eimer', 'Flasche', 'Kerze', 'Tasse', 'Hut', 'Kette', 'Blume', 'Kiste']","['dunkel', 'schlicht', 'kratzig', 'flauschig', 'schwer', 'elegant', 'hässlich', 'dick', 'blass', 'gut', 'biegsam', 'neu', 'gestreift', 'hübsch', 'bunt', 'niedlich', 'glatt', 'lustig', 'praktisch']",2,1.5605350999976508,None,,,,,,,,,,,,,,,,,,,,,,,,,,,,,,,,,,,,,,,,,,,,,,,,,,,,,,,,,,,,,,,,,2,2023-11-27_10h45.39.218,watkins1,2023.2.3,99.73062757877582,16,2023-11-27 10h45.46.049120 +0000,
,,,,,,,19,0,19,0,,,,,,,,,,,,,,,,,189.47875280003063,,,,,,,,,,,,189.46982830000343,189.96068220003508,,,3,1.2051815999438986,,,,,,,,,,,,,,,,,,,,,189.96069180004997,195.96961280005053,Ring,robust,"['Ring', 'robust']",restudy,2,"['Lampe', 'Fahrrad', 'Rucksack', 'Brille', 'Uhr', 'Schere', 'Hammer', 'Tasche', 'Socke', 'Kamera', 'Stift', 'Jacke', 'Telefon', 'Würfel', 'Trommel', 'Schlüssel', 'Buch', 'Bürste', 'Geige', 'Ring', 'Vase', 'Löffel', 'Eimer', 'Flasche', 'Kerze', 'Tasse', 'Hut', 'Kette', 'Blume', 'Kiste']","['dunkel', 'schlicht', 'kratzig', 'flauschig', 'schwer', 'elegant', 'hässlich', 'dick', 'blass', 'gut', 'biegsam', 'neu', 'gestreift', 'hübsch', 'bunt', 'niedlich', 'glatt', 'lustig', 'praktisch', 'robust']",3,1.2051815999438986,None,,,,,,,,,,,,,,,,,,,,,,,,,,,,,,,,,,,,,,,,,,,,,,,,,,,,,,,,,,,,,,,,,2,2023-11-27_10h45.39.218,watkins1,2023.2.3,99.73062757877582,16,2023-11-27 10h45.46.049120 +0000,
,,,,,,,20,0,20,0,,,,,,,,,,,,,,,,,195.97909850004362,,,,,,,,,,,,195.970137300028,196.4610278000473,,,2,1.6081362999975681,,,,,,,,,,,,,,,,,,,,,196.4610384000116,202.47038500005146,Vase,schmutzig,"['Vase', 'schmutzig']",test_sub,2,"['Lampe', 'Fahrrad', 'Rucksack', 'Brille', 'Uhr', 'Schere', 'Hammer', 'Tasche', 'Socke', 'Kamera', 'Stift', 'Jacke', 'Telefon', 'Würfel', 'Trommel', 'Schlüssel', 'Buch', 'Bürste', 'Geige', 'Ring', 'Vase', 'Löffel', 'Eimer', 'Flasche', 'Kerze', 'Tasse', 'Hut', 'Kette', 'Blume', 'Kiste']","['dunkel', 'schlicht', 'kratzig', 'flauschig', 'schwer', 'elegant', 'hässlich', 'dick', 'blass', 'gut', 'biegsam', 'neu', 'gestreift', 'hübsch', 'bunt', 'niedlich', 'glatt', 'lustig', 'praktisch', 'robust', 'schmutzig']",2,1.6081362999975681,None,,,,,,,,,,,,,,,,,,,,,,,,,,,,,,,,,,,,,,,,,,,,,,,,,,,,,,,,,,,,,,,,,2,2023-11-27_10h45.39.218,watkins1,2023.2.3,99.73062757877582,16,2023-11-27 10h45.46.049120 +0000,
,,,,,,,21,0,21,0,,,,,,,,,,,,,,,,,202.4798067000229,,,,,,,,,,,,202.47092810005415,202.96180510002887,,,2,1.5863952000509016,,,,,,,,,,,,,,,,,,,,,202.9618154000491,208.96324480004841,Löffel,groß,"['Löffel', 'groß']",test_sub,2,"['Lampe', 'Fahrrad', 'Rucksack', 'Brille', 'Uhr', 'Schere', 'Hammer', 'Tasche', 'Socke', 'Kamera', 'Stift', 'Jacke', 'Telefon', 'Würfel', 'Trommel', 'Schlüssel', 'Buch', 'Bürste', 'Geige', 'Ring', 'Vase', 'Löffel', 'Eimer', 'Flasche', 'Kerze', 'Tasse', 'Hut', 'Kette', 'Blume', 'Kiste']","['dunkel', 'schlicht', 'kratzig', 'flauschig', 'schwer', 'elegant', 'hässlich', 'dick', 'blass', 'gut', 'biegsam', 'neu', 'gestreift', 'hübsch', 'bunt', 'niedlich', 'glatt', 'lustig', 'praktisch', 'robust', 'schmutzig', 'groß']",2,1.5863952000509016,None,,,,,,,,,,,,,,,,,,,,,,,,,,,,,,,,,,,,,,,,,,,,,,,,,,,,,,,,,,,,,,,,,2,2023-11-27_10h45.39.218,watkins1,2023.2.3,99.73062757877582,16,2023-11-27 10h45.46.049120 +0000,
,,,,,,,22,0,22,0,,,,,,,,,,,,,,,,,208.9727163000498,,,,,,,,,,,,208.96378280001227,209.4547625000123,,,1,1.6540125000174157,,,,,,,,,,,,,,,,,,,,,209.454772600031,215.45947660005186,Eimer,glänzend,"['Eimer', 'glänzend']",restudy,2,"['Lampe', 'Fahrrad', 'Rucksack', 'Brille', 'Uhr', 'Schere', 'Hammer', 'Tasche', 'Socke', 'Kamera', 'Stift', 'Jacke', 'Telefon', 'Würfel', 'Trommel', 'Schlüssel', 'Buch', 'Bürste', 'Geige', 'Ring', 'Vase', 'Löffel', 'Eimer', 'Flasche', 'Kerze', 'Tasse', 'Hut', 'Kette', 'Blume', 'Kiste']","['dunkel', 'schlicht', 'kratzig', 'flauschig', 'schwer', 'elegant', 'hässlich', 'dick', 'blass', 'gut', 'biegsam', 'neu', 'gestreift', 'hübsch', 'bunt', 'niedlich', 'glatt', 'lustig', 'praktisch', 'robust', 'schmutzig', 'groß', 'glänzend']",1,1.6540125000174157,None,,,,,,,,,,,,,,,,,,,,,,,,,,,,,,,,,,,,,,,,,,,,,,,,,,,,,,,,,,,,,,,,,2,2023-11-27_10h45.39.218,watkins1,2023.2.3,99.73062757877582,16,2023-11-27 10h45.46.049120 +0000,
,,,,,,,23,0,23,0,,,,,,,,,,,,,,,,,215.46896020002896,,,,,,,,,,,,215.46000000002095,215.95098970003892,,,1,1.5907143999938853,,,,,,,,,,,,,,,,,,,,,215.9510001000017,221.95427280000877,Flasche,matt,"['Flasche', 'matt']",restudy,2,"['Lampe', 'Fahrrad', 'Rucksack', 'Brille', 'Uhr', 'Schere', 'Hammer', 'Tasche', 'Socke', 'Kamera', 'Stift', 'Jacke', 'Telefon', 'Würfel', 'Trommel', 'Schlüssel', 'Buch', 'Bürste', 'Geige', 'Ring', 'Vase', 'Löffel', 'Eimer', 'Flasche', 'Kerze', 'Tasse', 'Hut', 'Kette', 'Blume', 'Kiste']","['dunkel', 'schlicht', 'kratzig', 'flauschig', 'schwer', 'elegant', 'hässlich', 'dick', 'blass', 'gut', 'biegsam', 'neu', 'gestreift', 'hübsch', 'bunt', 'niedlich', 'glatt', 'lustig', 'praktisch', 'robust', 'schmutzig', 'groß', 'glänzend', 'matt']",1,1.5907143999938853,None,,,,,,,,,,,,,,,,,,,,,,,,,,,,,,,,,,,,,,,,,,,,,,,,,,,,,,,,,,,,,,,,,2,2023-11-27_10h45.39.218,watkins1,2023.2.3,99.73062757877582,16,2023-11-27 10h45.46.049120 +0000,
,,,,,,,24,0,24,0,,,,,,,,,,,,,,,,,221.96375030005584,,,,,,,,,,,,221.95480110001517,222.44567040004767,,,1,1.4952100000227802,,,,,,,,,,,,,,,,,,,,,222.44568060000893,228.45442240004195,Kerze,sportlich,"['Kerze', 'sportlich']",restudy,2,"['Lampe', 'Fahrrad', 'Rucksack', 'Brille', 'Uhr', 'Schere', 'Hammer', 'Tasche', 'Socke', 'Kamera', 'Stift', 'Jacke', 'Telefon', 'Würfel', 'Trommel', 'Schlüssel', 'Buch', 'Bürste', 'Geige', 'Ring', 'Vase', 'Löffel', 'Eimer', 'Flasche', 'Kerze', 'Tasse', 'Hut', 'Kette', 'Blume', 'Kiste']","['dunkel', 'schlicht', 'kratzig', 'flauschig', 'schwer', 'elegant', 'hässlich', 'dick', 'blass', 'gut', 'biegsam', 'neu', 'gestreift', 'hübsch', 'bunt', 'niedlich', 'glatt', 'lustig', 'praktisch', 'robust', 'schmutzig', 'groß', 'glänzend', 'matt', 'sportlich']",1,1.4952100000227802,None,,,,,,,,,,,,,,,,,,,,,,,,,,,,,,,,,,,,,,,,,,,,,,,,,,,,,,,,,,,,,,,,,2,2023-11-27_10h45.39.218,watkins1,2023.2.3,99.73062757877582,16,2023-11-27 10h45.46.049120 +0000,
,,,,,,,25,0,25,0,,,,,,,,,,,,,,,,,228.46387890004553,,,,,,,,,,,,228.45493780000834,228.945783400035,,,2,1.491708599962294,,,,,,,,,,,,,,,,,,,,,228.94579360005446,234.9477792000398,Tasse,nass,"['Tasse', 'nass']",restudy,2,"['Lampe', 'Fahrrad', 'Rucksack', 'Brille', 'Uhr', 'Schere', 'Hammer', 'Tasche', 'Socke', 'Kamera', 'Stift', 'Jacke', 'Telefon', 'Würfel', 'Trommel', 'Schlüssel', 'Buch', 'Bürste', 'Geige', 'Ring', 'Vase', 'Löffel', 'Eimer', 'Flasche', 'Kerze', 'Tasse', 'Hut', 'Kette', 'Blume', 'Kiste']","['dunkel', 'schlicht', 'kratzig', 'flauschig', 'schwer', 'elegant', 'hässlich', 'dick', 'blass', 'gut', 'biegsam', 'neu', 'gestreift', 'hübsch', 'bunt', 'niedlich', 'glatt', 'lustig', 'praktisch', 'robust', 'schmutzig', 'groß', 'glänzend', 'matt', 'sportlich', 'nass']",2,1.491708599962294,None,,,,,,,,,,,,,,,,,,,,,,,,,,,,,,,,,,,,,,,,,,,,,,,,,,,,,,,,,,,,,,,,,2,2023-11-27_10h45.39.218,watkins1,2023.2.3,99.73062757877582,16,2023-11-27 10h45.46.049120 +0000,
,,,,,,,26,0,26,0,,,,,,,,,,,,,,,,,234.95724760001758,,,,,,,,,,,,234.9483078000485,235.43925180000952,,,1,1.5665237000212073,,,,,,,,,,,,,,,,,,,,,235.4392622000305,241.45479310001247,Hut,kaputt,"['Hut', 'kaputt']",test_sub,2,"['Lampe', 'Fahrrad', 'Rucksack', 'Brille', 'Uhr', 'Schere', 'Hammer', 'Tasche', 'Socke', 'Kamera', 'Stift', 'Jacke', 'Telefon', 'Würfel', 'Trommel', 'Schlüssel', 'Buch', 'Bürste', 'Geige', 'Ring', 'Vase', 'Löffel', 'Eimer', 'Flasche', 'Kerze', 'Tasse', 'Hut', 'Kette', 'Blume', 'Kiste']","['dunkel', 'schlicht', 'kratzig', 'flauschig', 'schwer', 'elegant', 'hässlich', 'dick', 'blass', 'gut', 'biegsam', 'neu', 'gestreift', 'hübsch', 'bunt', 'niedlich', 'glatt', 'lustig', 'praktisch', 'robust', 'schmutzig', 'groß', 'glänzend', 'matt', 'sportlich', 'nass', 'kaputt']",1,1.5665237000212073,None,,,,,,,,,,,,,,,,,,,,,,,,,,,,,,,,,,,,,,,,,,,,,,,,,,,,,,,,,,,,,,,,,2,2023-11-27_10h45.39.218,watkins1,2023.2.3,99.73062757877582,16,2023-11-27 10h45.46.049120 +0000,
,,,,,,,27,0,27,0,,,,,,,,,,,,,,,,,241.46420820005005,,,,,,,,,,,,241.45532510004705,241.95074380002916,,,2,1.9430818000109866,,,,,,,,,,,,,,,,,,,,,241.95075390004786,247.95604050002294,Kette,kurz,"['Kette', 'kurz']",test_sub,2,"['Lampe', 'Fahrrad', 'Rucksack', 'Brille', 'Uhr', 'Schere', 'Hammer', 'Tasche', 'Socke', 'Kamera', 'Stift', 'Jacke', 'Telefon', 'Würfel', 'Trommel', 'Schlüssel', 'Buch', 'Bürste', 'Geige', 'Ring', 'Vase', 'Löffel', 'Eimer', 'Flasche', 'Kerze', 'Tasse', 'Hut', 'Kette', 'Blume', 'Kiste']","['dunkel', 'schlicht', 'kratzig', 'flauschig', 'schwer', 'elegant', 'hässlich', 'dick', 'blass', 'gut', 'biegsam', 'neu', 'gestreift', 'hübsch', 'bunt', 'niedlich', 'glatt', 'lustig', 'praktisch', 'robust', 'schmutzig', 'groß', 'glänzend', 'matt', 'sportlich', 'nass', 'kaputt', 'kurz']",2,1.9430818000109866,None,,,,,,,,,,,,,,,,,,,,,,,,,,,,,,,,,,,,,,,,,,,,,,,,,,,,,,,,,,,,,,,,,2,2023-11-27_10h45.39.218,watkins1,2023.2.3,99.73062757877582,16,2023-11-27 10h45.46.049120 +0000,
,,,,,,,28,0,28,0,,,,,,,,,,,,,,,,,247.9653959000134,,,,,,,,,,,,247.95657020004,248.4473457999993,,,1,1.8464116000104696,,,,,,,,,,,,,,,,,,,,,248.44735560001573,254.45749820000492,Blume,klobig,"['Blume', 'klobig']",test_sub,2,"['Lampe', 'Fahrrad', 'Rucksack', 'Brille', 'Uhr', 'Schere', 'Hammer', 'Tasche', 'Socke', 'Kamera', 'Stift', 'Jacke', 'Telefon', 'Würfel', 'Trommel', 'Schlüssel', 'Buch', 'Bürste', 'Geige', 'Ring', 'Vase', 'Löffel', 'Eimer', 'Flasche', 'Kerze', 'Tasse', 'Hut', 'Kette', 'Blume', 'Kiste']","['dunkel', 'schlicht', 'kratzig', 'flauschig', 'schwer', 'elegant', 'hässlich', 'dick', 'blass', 'gut', 'biegsam', 'neu', 'gestreift', 'hübsch', 'bunt', 'niedlich', 'glatt', 'lustig', 'praktisch', 'robust', 'schmutzig', 'groß', 'glänzend', 'matt', 'sportlich', 'nass', 'kaputt', 'kurz', 'klobig']",1,1.8464116000104696,None,,,,,,,,,,,,,,,,,,,,,,,,,,,,,,,,,,,,,,,,,,,,,,,,,,,,,,,,,,,,,,,,,2,2023-11-27_10h45.39.218,watkins1,2023.2.3,99.73062757877582,16,2023-11-27 10h45.46.049120 +0000,
,,,,,,,29,0,29,0,,,,,,,,,,,,,,,,,254.4668698000023,,,,,,,,,,,,254.45802479999838,254.9491331000463,,,1,2.2165559999994002,,,,,,,,,,,,,,,,,,,,,254.94914290000452,260.94995370000834,Kiste,kalt,"['Kiste', 'kalt']",test_sub,2,"['Lampe', 'Fahrrad', 'Rucksack', 'Brille', 'Uhr', 'Schere', 'Hammer', 'Tasche', 'Socke', 'Kamera', 'Stift', 'Jacke', 'Telefon', 'Würfel', 'Trommel', 'Schlüssel', 'Buch', 'Bürste', 'Geige', 'Ring', 'Vase', 'Löffel', 'Eimer', 'Flasche', 'Kerze', 'Tasse', 'Hut', 'Kette', 'Blume', 'Kiste']","['dunkel', 'schlicht', 'kratzig', 'flauschig', 'schwer', 'elegant', 'hässlich', 'dick', 'blass', 'gut', 'biegsam', 'neu', 'gestreift', 'hübsch', 'bunt', 'niedlich', 'glatt', 'lustig', 'praktisch', 'robust', 'schmutzig', 'groß', 'glänzend', 'matt', 'sportlich', 'nass', 'kaputt', 'kurz', 'klobig', 'kalt']",1,2.2165559999994002,None,,,,,,,,,,,,,,,,,,,,,,,,,,,,,,,,,,,,,,,,,,,,,,,,,,,,,,,,,,,,,,,,,2,2023-11-27_10h45.39.218,watkins1,2023.2.3,99.73062757877582,16,2023-11-27 10h45.46.049120 +0000,
,,,,,,,,,,,0,0,0,0,,,,,,,,,,,,,260.9593745000311,,,,,,,,,,,,260.95079120004084,261.4418578000041,,,[],[],,,,,,,,,,,,2.6719937999732792,None,,,,,kette,,,,,Kette,kurz,"['Kette', 'kurz']",test_sub,2,,,,,,260.95071490004193,260.950763300003,"['Kette', 'Kiste', 'Brille', 'Bürste', 'Lampe', 'Schlüssel', 'Stift', 'Telefon', 'Geige', 'Eimer', 'Hammer', 'Uhr', 'Rucksack', 'Kamera', 'Socke', 'Löffel', 'Hut', 'Trommel', 'Jacke', 'Kerze', 'Schere', 'Ring', 'Buch', 'Fahrrad', 'Blume', 'Vase', 'Flasche', 'Tasse', 'Tasche', 'Würfel']",261.4418686000281,261.4445863000001,None,261.4447731000255,261.44719770003576,None,261.4473591000424,261.4498774000094,None,261.4500353000476,261.45122510002693,261.4512378000072,0,267.4569140000385,,,,,,,,,,,,,,,,,,,,,,,,,,,,,,,,,,,,,,,,,,,,,,,,2,2023-11-27_10h45.39.218,watkins1,2023.2.3,99.73062757877582,16,2023-11-27 10h45.46.049120 +0000,
,,,,,,,,,,,1,0,1,0,,,,,,,,,,,,,267.46671550004976,,,,,,,,,,,,267.4572007000097,267.94864010001766,,,[],[],,,,,,,,,,,,1.868325299990829,None,,,,,tasse,,,,,Kiste,kalt,"['Kiste', 'kalt']",test_sub,2,,,,,,267.45713360002264,267.4571722000255,"['Kette', 'Kiste', 'Brille', 'Bürste', 'Lampe', 'Schlüssel', 'Stift', 'Telefon', 'Geige', 'Eimer', 'Hammer', 'Uhr', 'Rucksack', 'Kamera', 'Socke', 'Löffel', 'Hut', 'Trommel', 'Jacke', 'Kerze', 'Schere', 'Ring', 'Buch', 'Fahrrad', 'Blume', 'Vase', 'Flasche', 'Tasse', 'Tasche', 'Würfel']",267.9486509000417,267.951288100041,None,267.9514179000398,267.95387540000957,None,267.95399080001516,267.95643120002933,None,267.95654060004745,267.95773050002754,267.9577432000078,0,273.9631656000274,,,,,,,,,,,,,,,,,,,,,,,,,,,,,,,,,,,,,,,,,,,,,,,,2,2023-11-27_10h45.39.218,watkins1,2023.2.3,99.73062757877582,16,2023-11-27 10h45.46.049120 +0000,
,,,,,,,,,,,2,0,2,0,,,,,,,,,,,,,273.97297850000905,,,,,,,,,,,,273.9634482000256,274.45567650004523,,,[],[],,,,,,,,,,,,None,None,,,,,,,,,,Brille,flauschig,"['Brille', 'flauschig']",restudy,2,,,,,,273.9633807000355,273.96341930003837,"['Kette', 'Kiste', 'Brille', 'Bürste', 'Lampe', 'Schlüssel', 'Stift', 'Telefon', 'Geige', 'Eimer', 'Hammer', 'Uhr', 'Rucksack', 'Kamera', 'Socke', 'Löffel', 'Hut', 'Trommel', 'Jacke', 'Kerze', 'Schere', 'Ring', 'Buch', 'Fahrrad', 'Blume', 'Vase', 'Flasche', 'Tasse', 'Tasche', 'Würfel']",274.4556871000095,274.4583143000491,None,274.4584393000114,280.45982360001653,1,280.46020860003773,280.46309510001447,None,280.4632112000254,280.4644135000417,280.4644251000136,,280.4660137000028,3.4026746000163257,None,,,,,,,,,,,,,,,,,,,,,,,,,,,,,,,,,,,,,,,,,,,,,,2,2023-11-27_10h45.39.218,watkins1,2023.2.3,99.73062757877582,16,2023-11-27 10h45.46.049120 +0000,
,,,,,,,,,,,3,0,3,0,,,,,,,,,,,,,280.4692630000063,,,,,,,,,,,,280.46630030003143,280.9612803000491,,,[],[],,,,,,,,,,,,None,None,,,,,,,,,,Bürste,lustig,"['Bürste', 'lustig']",restudy,2,,,,,,280.4662352000014,280.46627330000047,"['Kette', 'Kiste', 'Brille', 'Bürste', 'Lampe', 'Schlüssel', 'Stift', 'Telefon', 'Geige', 'Eimer', 'Hammer', 'Uhr', 'Rucksack', 'Kamera', 'Socke', 'Löffel', 'Hut', 'Trommel', 'Jacke', 'Kerze', 'Schere', 'Ring', 'Buch', 'Fahrrad', 'Blume', 'Vase', 'Flasche', 'Tasse', 'Tasche', 'Würfel']",280.96129130001646,280.9642153000459,None,280.96433860005345,286.9725189000019,1,286.9728208000306,286.9756132000475,None,286.97572490002494,286.97693880001316,286.97695050004404,,286.97815790004097,1.9053987999795936,None,,,,,,,,,,,,,,,,,,,,,,,,,,,,,,,,,,,,,,,,,,,,,,2,2023-11-27_10h45.39.218,watkins1,2023.2.3,99.73062757877582,16,2023-11-27 10h45.46.049120 +0000,
,,,,,,,,,,,4,0,4,0,,,,,,,,,,,,,286.98195530002704,,,,,,,,,,,,286.9784406000399,287.47408250003355,,,[],[],,,,,,,,,,,,None,None,,,,,,,,,,Lampe,dunkel,"['Lampe', 'dunkel']",restudy,2,,,,,,286.9783739000559,286.9784139000112,"['Kette', 'Kiste', 'Brille', 'Bürste', 'Lampe', 'Schlüssel', 'Stift', 'Telefon', 'Geige', 'Eimer', 'Hammer', 'Uhr', 'Rucksack', 'Kamera', 'Socke', 'Löffel', 'Hut', 'Trommel', 'Jacke', 'Kerze', 'Schere', 'Ring', 'Buch', 'Fahrrad', 'Blume', 'Vase', 'Flasche', 'Tasse', 'Tasche', 'Würfel']",287.4740937000024,287.47682989999885,None,287.4769570000353,293.48760430002585,1,293.4878978000488,293.49060910003027,None,293.4907210000092,293.49191050004447,293.49192220001714,,293.4931407000404,2.1291049999999814,None,,,,,,,,,,,,,,,,,,,,,,,,,,,,,,,,,,,,,,,,,,,,,,2,2023-11-27_10h45.39.218,watkins1,2023.2.3,99.73062757877582,16,2023-11-27 10h45.46.049120 +0000,
,,,,,,,,,,,5,0,5,0,,,,,,,,,,,,,293.4970699000405,,,,,,,,,,,,293.4934222000302,293.9891107000294,,,[],[],,,,,,,,,,,,2.077804400003515,None,,,,,brille,,,,,Schlüssel,niedlich,"['Schlüssel', 'niedlich']",test_sub,2,,,,,,293.4933568999986,293.4933953,"['Kette', 'Kiste', 'Brille', 'Bürste', 'Lampe', 'Schlüssel', 'Stift', 'Telefon', 'Geige', 'Eimer', 'Hammer', 'Uhr', 'Rucksack', 'Kamera', 'Socke', 'Löffel', 'Hut', 'Trommel', 'Jacke', 'Kerze', 'Schere', 'Ring', 'Buch', 'Fahrrad', 'Blume', 'Vase', 'Flasche', 'Tasse', 'Tasche', 'Würfel']",293.9891214000527,293.9919500000542,None,293.9920736000058,293.99361679999856,None,293.9937262000167,293.9952739000437,None,293.9953825000557,293.9966678000055,293.996680100041,0,300.00259780004853,,,,,,,,,,,,,,,,,,,,,,,,,,,,,,,,,,,,,,,,,,,,,,,,2,2023-11-27_10h45.39.218,watkins1,2023.2.3,99.73062757877582,16,2023-11-27 10h45.46.049120 +0000,
,,,,,,,,,,,6,0,6,0,,,,,,,,,,,,,300.01235430000816,,,,,,,,,,,,300.00291940005263,300.49449160002405,,,[],[],,,,,,,,,,,,None,None,,,,,,,,,,Stift,biegsam,"['Stift', 'biegsam']",restudy,2,,,,,,300.0028393000248,300.00288960000034,"['Kette', 'Kiste', 'Brille', 'Bürste', 'Lampe', 'Schlüssel', 'Stift', 'Telefon', 'Geige', 'Eimer', 'Hammer', 'Uhr', 'Rucksack', 'Kamera', 'Socke', 'Löffel', 'Hut', 'Trommel', 'Jacke', 'Kerze', 'Schere', 'Ring', 'Buch', 'Fahrrad', 'Blume', 'Vase', 'Flasche', 'Tasse', 'Tasche', 'Würfel']",300.4945021000458,300.4972681000363,None,300.4973915000446,306.50357000000076,1,306.50387400004547,306.5065789000364,None,306.5066894000047,306.5079633000423,306.50797490001423,,306.50949720002245,2.2924123000120744,None,,,,,,,,,,,,,,,,,,,,,,,,,,,,,,,,,,,,,,,,,,,,,,2,2023-11-27_10h45.39.218,watkins1,2023.2.3,99.73062757877582,16,2023-11-27 10h45.46.049120 +0000,
,,,,,,,,,,,7,0,7,0,,,,,,,,,,,,,306.51298690005206,,,,,,,,,,,,306.50977890001377,307.005486500042,,,[],[],,,,,,,,,,,,5.301440300012473,None,,,,,bri,,,,,Telefon,gestreift,"['Telefon', 'gestreift']",test_sub,2,,,,,,306.5097129000351,306.5097524000448,"['Kette', 'Kiste', 'Brille', 'Bürste', 'Lampe', 'Schlüssel', 'Stift', 'Telefon', 'Geige', 'Eimer', 'Hammer', 'Uhr', 'Rucksack', 'Kamera', 'Socke', 'Löffel', 'Hut', 'Trommel', 'Jacke', 'Kerze', 'Schere', 'Ring', 'Buch', 'Fahrrad', 'Blume', 'Vase', 'Flasche', 'Tasse', 'Tasche', 'Würfel']",307.00549680000404,307.0081995000364,None,307.00831840001047,307.0098021000158,None,307.00990860001184,307.0113731000456,None,307.0114835000131,307.0126745000016,307.0126866000355,0,313.017612100055,,,,,,,,,,,,,,,,,,,,,,,,,,,,,,,,,,,,,,,,,,,,,,,,2,2023-11-27_10h45.39.218,watkins1,2023.2.3,99.73062757877582,16,2023-11-27 10h45.46.049120 +0000,
,,,,,,,,,,,8,0,8,0,,,,,,,,,,,,,313.0274108000449,,,,,,,,,,,,313.0178928000387,313.50947000004817,,,[],[],,,,,,,,,,,,4.5098908000509255,None,,,,,geige,,,,,Geige,praktisch,"['Geige', 'praktisch']",test_sub,2,,,,,,313.0178264999995,313.01786390005145,"['Kette', 'Kiste', 'Brille', 'Bürste', 'Lampe', 'Schlüssel', 'Stift', 'Telefon', 'Geige', 'Eimer', 'Hammer', 'Uhr', 'Rucksack', 'Kamera', 'Socke', 'Löffel', 'Hut', 'Trommel', 'Jacke', 'Kerze', 'Schere', 'Ring', 'Buch', 'Fahrrad', 'Blume', 'Vase', 'Flasche', 'Tasse', 'Tasche', 'Würfel']",313.5094807000132,313.51230410003336,None,313.51242860005004,313.51507640001364,None,313.515187800047,313.5178465000354,None,313.5179549000459,313.51913220004644,313.51914460002445,0,319.52527330000885,,,,,,,,,,,,,,,,,,,,,,,,,,,,,,,,,,,,,,,,,,,,,,,,2,2023-11-27_10h45.39.218,watkins1,2023.2.3,99.73062757877582,16,2023-11-27 10h45.46.049120 +0000,
,,,,,,,,,,,9,0,9,0,,,,,,,,,,,,,319.5351642000023,,,,,,,,,,,,319.52555840002606,320.0169251000043,,,[],[],,,,,,,,,,,,None,None,,,,,,,,,,Eimer,glänzend,"['Eimer', 'glänzend']",restudy,2,,,,,,319.5254902000306,319.52552950003883,"['Kette', 'Kiste', 'Brille', 'Bürste', 'Lampe', 'Schlüssel', 'Stift', 'Telefon', 'Geige', 'Eimer', 'Hammer', 'Uhr', 'Rucksack', 'Kamera', 'Socke', 'Löffel', 'Hut', 'Trommel', 'Jacke', 'Kerze', 'Schere', 'Ring', 'Buch', 'Fahrrad', 'Blume', 'Vase', 'Flasche', 'Tasse', 'Tasche', 'Würfel']",320.0169354000245,320.01975100004347,None,320.01987580000423,326.02870220004115,1,326.02899660001276,326.03176860004896,None,326.0318805000279,326.03306020004675,326.0330722000217,,326.03464570001233,2.2579037999967113,None,,,,,,,,,,,,,,,,,,,,,,,,,,,,,,,,,,,,,,,,,,,,,,2,2023-11-27_10h45.39.218,watkins1,2023.2.3,99.73062757877582,16,2023-11-27 10h45.46.049120 +0000,
,,,,,,,,,,,10,0,10,0,,,,,,,,,,,,,326.03817600000184,,,,,,,,,,,,326.03493000002345,326.530158700014,,,[],[],,,,,,,,,,,,None,None,,,,,,,,,,Hammer,hässlich,"['Hammer', 'hässlich']",restudy,2,,,,,,326.0348641000455,326.03490280004917,"['Kette', 'Kiste', 'Brille', 'Bürste', 'Lampe', 'Schlüssel', 'Stift', 'Telefon', 'Geige', 'Eimer', 'Hammer', 'Uhr', 'Rucksack', 'Kamera', 'Socke', 'Löffel', 'Hut', 'Trommel', 'Jacke', 'Kerze', 'Schere', 'Ring', 'Buch', 'Fahrrad', 'Blume', 'Vase', 'Flasche', 'Tasse', 'Tasche', 'Würfel']",326.53016940003727,326.5329739000299,None,326.5331014000112,332.53840240003774,3,332.5386946000508,332.5414994000457,None,332.5416110000224,332.54281340003945,332.5428254000144,,332.5440627000062,2.512337399995886,None,,,,,,,,,,,,,,,,,,,,,,,,,,,,,,,,,,,,,,,,,,,,,,2,2023-11-27_10h45.39.218,watkins1,2023.2.3,99.73062757877582,16,2023-11-27 10h45.46.049120 +0000,
,,,,,,,,,,,11,0,11,0,,,,,,,,,,,,,332.54785610002,,,,,,,,,,,,332.5443459000089,333.0398762000259,,,[],[],,,,,,,,,,,,4.3458829000010155,None,,,,,tasche,,,,,Uhr,schwer,"['Uhr', 'schwer']",test_sub,2,,,,,,332.5442808000371,332.5443186000339,"['Kette', 'Kiste', 'Brille', 'Bürste', 'Lampe', 'Schlüssel', 'Stift', 'Telefon', 'Geige', 'Eimer', 'Hammer', 'Uhr', 'Rucksack', 'Kamera', 'Socke', 'Löffel', 'Hut', 'Trommel', 'Jacke', 'Kerze', 'Schere', 'Ring', 'Buch', 'Fahrrad', 'Blume', 'Vase', 'Flasche', 'Tasse', 'Tasche', 'Würfel']",333.03988670004765,333.04293340002187,None,333.04305950005073,333.0443806000403,None,333.0444900000002,333.04582080000546,None,333.0459283000091,333.04696390003664,333.04697660001693,0,339.0499000000418,,,,,,,,,,,,,,,,,,,,,,,,,,,,,,,,,,,,,,,,,,,,,,,,2,2023-11-27_10h45.39.218,watkins1,2023.2.3,99.73062757877582,16,2023-11-27 10h45.46.049120 +0000,
,,,,,,,,,,,12,0,12,0,,,,,,,,,,,,,339.05965570005355,,,,,,,,,,,,339.05018040002324,339.5417295000516,,,[],[],,,,,,,,,,,,4.611175899975933,None,,,,,rucksack,,,,,Rucksack,kratzig,"['Rucksack', 'kratzig']",test_sub,2,,,,,,339.0501137000392,339.0501510000322,"['Kette', 'Kiste', 'Brille', 'Bürste', 'Lampe', 'Schlüssel', 'Stift', 'Telefon', 'Geige', 'Eimer', 'Hammer', 'Uhr', 'Rucksack', 'Kamera', 'Socke', 'Löffel', 'Hut', 'Trommel', 'Jacke', 'Kerze', 'Schere', 'Ring', 'Buch', 'Fahrrad', 'Blume', 'Vase', 'Flasche', 'Tasse', 'Tasche', 'Würfel']",339.54174070002045,339.54455510003027,None,339.5446802000515,339.5474362000241,None,339.54755150002893,339.55017930001486,None,339.55028700002003,339.5515111000277,339.551523800008,0,345.55848570005037,,,,,,,,,,,,,,,,,,,,,,,,,,,,,,,,,,,,,,,,,,,,,,,,2,2023-11-27_10h45.39.218,watkins1,2023.2.3,99.73062757877582,16,2023-11-27 10h45.46.049120 +0000,
,,,,,,,,,,,13,0,13,0,,,,,,,,,,,,,345.5682830000296,,,,,,,,,,,,345.55877370003145,346.05033410002943,,,[],[],,,,,,,,,,,,4.027872900012881,None,,,,,uhr,,,,,Kamera,gut,"['Kamera', 'gut']",test_sub,2,,,,,,345.5587050000322,345.5587448000442,"['Kette', 'Kiste', 'Brille', 'Bürste', 'Lampe', 'Schlüssel', 'Stift', 'Telefon', 'Geige', 'Eimer', 'Hammer', 'Uhr', 'Rucksack', 'Kamera', 'Socke', 'Löffel', 'Hut', 'Trommel', 'Jacke', 'Kerze', 'Schere', 'Ring', 'Buch', 'Fahrrad', 'Blume', 'Vase', 'Flasche', 'Tasse', 'Tasche', 'Würfel']",346.05034470005194,346.05311670002993,None,346.0532404000405,346.0558491999982,None,346.0559584000148,346.0591112000402,None,346.0592202000553,346.06042750005145,346.0604400000302,0,352.0663820000482,,,,,,,,,,,,,,,,,,,,,,,,,,,,,,,,,,,,,,,,,,,,,,,,2,2023-11-27_10h45.39.218,watkins1,2023.2.3,99.73062757877582,16,2023-11-27 10h45.46.049120 +0000,
,,,,,,,,,,,14,0,14,0,,,,,,,,,,,,,352.07615410001017,,,,,,,,,,,,352.0666702000308,352.55821540002944,,,[],[],,,,,,,,,,,,1.8986677000066265,None,,,,,socke,,,,,Socke,blass,"['Socke', 'blass']",test_sub,2,,,,,,352.06660170003306,352.0666409000405,"['Kette', 'Kiste', 'Brille', 'Bürste', 'Lampe', 'Schlüssel', 'Stift', 'Telefon', 'Geige', 'Eimer', 'Hammer', 'Uhr', 'Rucksack', 'Kamera', 'Socke', 'Löffel', 'Hut', 'Trommel', 'Jacke', 'Kerze', 'Schere', 'Ring', 'Buch', 'Fahrrad', 'Blume', 'Vase', 'Flasche', 'Tasse', 'Tasche', 'Würfel']",352.55822550004814,352.5607978000189,None,352.5609199000173,352.5633368000272,None,352.56344730005367,352.5658549000509,None,352.565965900023,352.56714940001257,352.5671618000488,0,358.5726858000271,,,,,,,,,,,,,,,,,,,,,,,,,,,,,,,,,,,,,,,,,,,,,,,,2,2023-11-27_10h45.39.218,watkins1,2023.2.3,99.73062757877582,16,2023-11-27 10h45.46.049120 +0000,
,,,,,,,,,,,15,0,15,0,,,,,,,,,,,,,358.5825428000535,,,,,,,,,,,,358.5729709000443,359.06461470003705,,,[],[],,,,,,,,,,,,None,None,,,,,,,,,,Löffel,groß,"['Löffel', 'groß']",test_sub,2,,,,,,358.57290170004126,358.57294160005404,"['Kette', 'Kiste', 'Brille', 'Bürste', 'Lampe', 'Schlüssel', 'Stift', 'Telefon', 'Geige', 'Eimer', 'Hammer', 'Uhr', 'Rucksack', 'Kamera', 'Socke', 'Löffel', 'Hut', 'Trommel', 'Jacke', 'Kerze', 'Schere', 'Ring', 'Buch', 'Fahrrad', 'Blume', 'Vase', 'Flasche', 'Tasse', 'Tasche', 'Würfel']",359.064624700055,359.0675074000028,None,359.0676292999997,359.070191900013,None,359.0703016000334,359.0728449000162,None,359.0729541000328,359.07414540002355,359.07415760000004,0,365.0799162000185,,,,,,,,,,,,,,,,,,,,,,,,,,,,,,,,,,,,,,,,,,,,,,,,2,2023-11-27_10h45.39.218,watkins1,2023.2.3,99.73062757877582,16,2023-11-27 10h45.46.049120 +0000,
,,,,,,,,,,,16,0,16,0,,,,,,,,,,,,,365.08966019999934,,,,,,,,,,,,365.0802003000281,365.5717531000264,,,[],[],,,,,,,,,,,,None,None,,,,,,,,,,Hut,kaputt,"['Hut', 'kaputt']",test_sub,2,,,,,,365.0801319000311,365.0801720000454,"['Kette', 'Kiste', 'Brille', 'Bürste', 'Lampe', 'Schlüssel', 'Stift', 'Telefon', 'Geige', 'Eimer', 'Hammer', 'Uhr', 'Rucksack', 'Kamera', 'Socke', 'Löffel', 'Hut', 'Trommel', 'Jacke', 'Kerze', 'Schere', 'Ring', 'Buch', 'Fahrrad', 'Blume', 'Vase', 'Flasche', 'Tasse', 'Tasche', 'Würfel']",365.57176410005195,365.57423130003735,None,365.5743569000042,365.5766260000528,None,365.5767326000496,365.57899320003344,None,365.5790994000272,365.5801219000132,365.58013410004787,0,371.5841829000274,,,,,,,,,,,,,,,,,,,,,,,,,,,,,,,,,,,,,,,,,,,,,,,,2,2023-11-27_10h45.39.218,watkins1,2023.2.3,99.73062757877582,16,2023-11-27 10h45.46.049120 +0000,
,,,,,,,,,,,17,0,17,0,,,,,,,,,,,,,371.5939823000226,,,,,,,,,,,,371.58446810004534,372.0759386999998,,,[],[],,,,,,,,,,,,None,None,,,,,,,,,,Trommel,bunt,"['Trommel', 'bunt']",restudy,2,,,,,,371.5843988000415,371.58443880005507,"['Kette', 'Kiste', 'Brille', 'Bürste', 'Lampe', 'Schlüssel', 'Stift', 'Telefon', 'Geige', 'Eimer', 'Hammer', 'Uhr', 'Rucksack', 'Kamera', 'Socke', 'Löffel', 'Hut', 'Trommel', 'Jacke', 'Kerze', 'Schere', 'Ring', 'Buch', 'Fahrrad', 'Blume', 'Vase', 'Flasche', 'Tasse', 'Tasche', 'Würfel']",372.0759491000208,372.078727300046,None,372.0788525000098,378.08528620004654,1,378.0855781999999,378.0882857000106,None,378.08839790005004,378.08961360005196,378.08962530002464,,378.0906730000279,2.807342299958691,None,,,,,,,,,,,,,,,,,,,,,,,,,,,,,,,,,,,,,,,,,,,,,,2,2023-11-27_10h45.39.218,watkins1,2023.2.3,99.73062757877582,16,2023-11-27 10h45.46.049120 +0000,
,,,,,,,,,,,18,0,18,0,,,,,,,,,,,,,378.09481480001705,,,,,,,,,,,,378.0909544000169,378.58687940001255,,,[],[],,,,,,,,,,,,None,None,,,,,,,,,,Jacke,neu,"['Jacke', 'neu']",restudy,2,,,,,,378.09088890004205,378.0909276000457,"['Kette', 'Kiste', 'Brille', 'Bürste', 'Lampe', 'Schlüssel', 'Stift', 'Telefon', 'Geige', 'Eimer', 'Hammer', 'Uhr', 'Rucksack', 'Kamera', 'Socke', 'Löffel', 'Hut', 'Trommel', 'Jacke', 'Kerze', 'Schere', 'Ring', 'Buch', 'Fahrrad', 'Blume', 'Vase', 'Flasche', 'Tasse', 'Tasche', 'Würfel']",378.5868902000366,378.58947130001616,None,378.58959650003817,384.59045910002897,2,384.5907521000481,384.5933893000474,None,384.5935016000294,384.59466660005273,384.59467850002693,,384.59570380003424,3.416235099954065,None,,,,,,,,,,,,,,,,,,,,,,,,,,,,,,,,,,,,,,,,,,,,,,2,2023-11-27_10h45.39.218,watkins1,2023.2.3,99.73062757877582,16,2023-11-27 10h45.46.049120 +0000,
,,,,,,,,,,,19,0,19,0,,,,,,,,,,,,,384.59986560000107,,,,,,,,,,,,384.59599100000923,385.09175660001347,,,[],[],,,,,,,,,,,,None,None,,,,,,,,,,Kerze,sportlich,"['Kerze', 'sportlich']",restudy,2,,,,,,384.59592470002826,384.59596410003724,"['Kette', 'Kiste', 'Brille', 'Bürste', 'Lampe', 'Schlüssel', 'Stift', 'Telefon', 'Geige', 'Eimer', 'Hammer', 'Uhr', 'Rucksack', 'Kamera', 'Socke', 'Löffel', 'Hut', 'Trommel', 'Jacke', 'Kerze', 'Schere', 'Ring', 'Buch', 'Fahrrad', 'Blume', 'Vase', 'Flasche', 'Tasse', 'Tasche', 'Würfel']",385.091767600039,385.09429990005447,None,385.0944229000015,391.09544820000883,1,391.0957463000086,391.09859300003154,None,391.0987057000166,391.09987080004066,391.0998826000141,,391.1011248000432,1.518941199989058,None,,,,,,,,,,,,,,,,,,,,,,,,,,,,,,,,,,,,,,,,,,,,,,2,2023-11-27_10h45.39.218,watkins1,2023.2.3,99.73062757877582,16,2023-11-27 10h45.46.049120 +0000,
,,,,,,,,,,,20,0,20,0,,,,,,,,,,,,,391.10491210001055,,,,,,,,,,,,391.10141180001665,391.59695940004895,,,[],[],,,,,,,,,,,,None,None,,,,,,,,,,Schere,elegant,"['Schere', 'elegant']",restudy,2,,,,,,391.10134350002045,391.1013817000203,"['Kette', 'Kiste', 'Brille', 'Bürste', 'Lampe', 'Schlüssel', 'Stift', 'Telefon', 'Geige', 'Eimer', 'Hammer', 'Uhr', 'Rucksack', 'Kamera', 'Socke', 'Löffel', 'Hut', 'Trommel', 'Jacke', 'Kerze', 'Schere', 'Ring', 'Buch', 'Fahrrad', 'Blume', 'Vase', 'Flasche', 'Tasse', 'Tasche', 'Würfel']",391.5969709000201,391.5998024000437,None,391.5999265999999,397.604936800024,2,397.6052313000546,397.6080095000216,None,397.60812290001195,397.60929100000067,397.6093026000308,,397.6105191000388,1.6297446999815293,None,,,,,,,,,,,,,,,,,,,,,,,,,,,,,,,,,,,,,,,,,,,,,,2,2023-11-27_10h45.39.218,watkins1,2023.2.3,99.73062757877582,16,2023-11-27 10h45.46.049120 +0000,
,,,,,,,,,,,21,0,21,0,,,,,,,,,,,,,397.61445260001346,,,,,,,,,,,,397.6107998000225,398.10716150002554,,,[],[],,,,,,,,,,,,None,None,,,,,,,,,,Ring,robust,"['Ring', 'robust']",restudy,2,,,,,,397.6107344000484,397.61077300005127,"['Kette', 'Kiste', 'Brille', 'Bürste', 'Lampe', 'Schlüssel', 'Stift', 'Telefon', 'Geige', 'Eimer', 'Hammer', 'Uhr', 'Rucksack', 'Kamera', 'Socke', 'Löffel', 'Hut', 'Trommel', 'Jacke', 'Kerze', 'Schere', 'Ring', 'Buch', 'Fahrrad', 'Blume', 'Vase', 'Flasche', 'Tasse', 'Tasche', 'Würfel']",398.1071722000488,398.10971230000723,None,398.10983650002163,404.11126750003314,3,404.1115538000013,404.11414240003796,None,404.1142509000492,404.1154114000383,404.11542290000943,,404.1166185000329,1.4879737000446767,None,,,,,,,,,,,,,,,,,,,,,,,,,,,,,,,,,,,,,,,,,,,,,,2,2023-11-27_10h45.39.218,watkins1,2023.2.3,99.73062757877582,16,2023-11-27 10h45.46.049120 +0000,
,,,,,,,,,,,22,0,22,0,,,,,,,,,,,,,404.1207838000264,,,,,,,,,,,,404.1169251000392,404.61298700002953,,,[],[],,,,,,,,,,,,2.950952799990773,None,,,,,buch,,,,,Buch,glatt,"['Buch', 'glatt']",test_sub,2,,,,,,404.11686110001756,404.1168985000113,"['Kette', 'Kiste', 'Brille', 'Bürste', 'Lampe', 'Schlüssel', 'Stift', 'Telefon', 'Geige', 'Eimer', 'Hammer', 'Uhr', 'Rucksack', 'Kamera', 'Socke', 'Löffel', 'Hut', 'Trommel', 'Jacke', 'Kerze', 'Schere', 'Ring', 'Buch', 'Fahrrad', 'Blume', 'Vase', 'Flasche', 'Tasse', 'Tasche', 'Würfel']",404.61299829999916,404.61559340002714,None,404.61571780004306,404.6170343999984,None,404.6171435000142,404.61846440000227,None,404.6185724000097,404.61961470003007,404.6196273000096,0,410.62307780003175,,,,,,,,,,,,,,,,,,,,,,,,,,,,,,,,,,,,,,,,,,,,,,,,2,2023-11-27_10h45.39.218,watkins1,2023.2.3,99.73062757877582,16,2023-11-27 10h45.46.049120 +0000,
,,,,,,,,,,,23,0,23,0,,,,,,,,,,,,,410.632873100054,,,,,,,,,,,,410.62335750000784,411.1147343000048,,,[],[],,,,,,,,,,,,None,None,,,,,,,,,,Fahrrad,schlicht,"['Fahrrad', 'schlicht']",restudy,2,,,,,,410.6232909000246,410.62332830001833,"['Kette', 'Kiste', 'Brille', 'Bürste', 'Lampe', 'Schlüssel', 'Stift', 'Telefon', 'Geige', 'Eimer', 'Hammer', 'Uhr', 'Rucksack', 'Kamera', 'Socke', 'Löffel', 'Hut', 'Trommel', 'Jacke', 'Kerze', 'Schere', 'Ring', 'Buch', 'Fahrrad', 'Blume', 'Vase', 'Flasche', 'Tasse', 'Tasche', 'Würfel']",411.1147441000212,411.1174558000057,None,411.117575100041,417.1187200000277,2,417.11901480000233,417.1218966000015,None,417.1220094000455,417.1232207000139,417.1232327000471,,417.12478050001664,2.223844000021927,None,,,,,,,,,,,,,,,,,,,,,,,,,,,,,,,,,,,,,,,,,,,,,,2,2023-11-27_10h45.39.218,watkins1,2023.2.3,99.73062757877582,16,2023-11-27 10h45.46.049120 +0000,
,,,,,,,,,,,24,0,24,0,,,,,,,,,,,,,417.1282144000288,,,,,,,,,,,,417.1250644000247,417.62039200001163,,,[],[],,,,,,,,,,,,None,None,,,,,,,,,,Blume,klobig,"['Blume', 'klobig']",test_sub,2,,,,,,417.12499830004526,417.12503690004814,"['Kette', 'Kiste', 'Brille', 'Bürste', 'Lampe', 'Schlüssel', 'Stift', 'Telefon', 'Geige', 'Eimer', 'Hammer', 'Uhr', 'Rucksack', 'Kamera', 'Socke', 'Löffel', 'Hut', 'Trommel', 'Jacke', 'Kerze', 'Schere', 'Ring', 'Buch', 'Fahrrad', 'Blume', 'Vase', 'Flasche', 'Tasse', 'Tasche', 'Würfel']",417.6204025000334,417.6231602000189,None,417.6232859000447,417.62474870000733,None,417.62485810002545,417.62630610005,None,417.6264150000061,417.62758870003745,417.627601300017,0,423.6307196000125,,,,,,,,,,,,,,,,,,,,,,,,,,,,,,,,,,,,,,,,,,,,,,,,2,2023-11-27_10h45.39.218,watkins1,2023.2.3,99.73062757877582,16,2023-11-27 10h45.46.049120 +0000,
,,,,,,,,,,,25,0,25,0,,,,,,,,,,,,,423.6405164000462,,,,,,,,,,,,423.63100410002517,424.1224857000052,,,[],[],,,,,,,,,,,,None,None,,,,,,,,,,Vase,schmutzig,"['Vase', 'schmutzig']",test_sub,2,,,,,,423.63093920005485,423.630975600041,"['Kette', 'Kiste', 'Brille', 'Bürste', 'Lampe', 'Schlüssel', 'Stift', 'Telefon', 'Geige', 'Eimer', 'Hammer', 'Uhr', 'Rucksack', 'Kamera', 'Socke', 'Löffel', 'Hut', 'Trommel', 'Jacke', 'Kerze', 'Schere', 'Ring', 'Buch', 'Fahrrad', 'Blume', 'Vase', 'Flasche', 'Tasse', 'Tasche', 'Würfel']",424.12249660003,424.12521640001796,None,424.12533990002703,424.1277834000066,None,424.1278957000468,424.13034280005377,None,424.13045170000987,424.1315067000105,424.1315191000467,0,430.13596500002313,,,,,,,,,,,,,,,,,,,,,,,,,,,,,,,,,,,,,,,,,,,,,,,,2,2023-11-27_10h45.39.218,watkins1,2023.2.3,99.73062757877582,16,2023-11-27 10h45.46.049120 +0000,
,,,,,,,,,,,26,0,26,0,,,,,,,,,,,,,430.1458687999984,,,,,,,,,,,,430.13624670001445,430.6277860000264,,,[],[],,,,,,,,,,,,None,None,,,,,,,,,,Flasche,matt,"['Flasche', 'matt']",restudy,2,,,,,,430.1361808000365,430.1362181000295,"['Kette', 'Kiste', 'Brille', 'Bürste', 'Lampe', 'Schlüssel', 'Stift', 'Telefon', 'Geige', 'Eimer', 'Hammer', 'Uhr', 'Rucksack', 'Kamera', 'Socke', 'Löffel', 'Hut', 'Trommel', 'Jacke', 'Kerze', 'Schere', 'Ring', 'Buch', 'Fahrrad', 'Blume', 'Vase', 'Flasche', 'Tasse', 'Tasche', 'Würfel']",430.62779620004585,430.6307641000021,None,430.6308897000272,436.6350024000276,1,436.63530520000495,436.63792510004714,None,436.63803580001695,436.6392533000326,436.6392654000083,,436.64032610005233,2.422718800022267,None,,,,,,,,,,,,,,,,,,,,,,,,,,,,,,,,,,,,,,,,,,,,,,2,2023-11-27_10h45.39.218,watkins1,2023.2.3,99.73062757877582,16,2023-11-27 10h45.46.049120 +0000,
,,,,,,,,,,,27,0,27,0,,,,,,,,,,,,,436.6445170000079,,,,,,,,,,,,436.6406102000037,437.1365490000462,,,[],[],,,,,,,,,,,,None,None,,,,,,,,,,Tasse,nass,"['Tasse', 'nass']",restudy,2,,,,,,436.64054420002503,436.64058350003324,"['Kette', 'Kiste', 'Brille', 'Bürste', 'Lampe', 'Schlüssel', 'Stift', 'Telefon', 'Geige', 'Eimer', 'Hammer', 'Uhr', 'Rucksack', 'Kamera', 'Socke', 'Löffel', 'Hut', 'Trommel', 'Jacke', 'Kerze', 'Schere', 'Ring', 'Buch', 'Fahrrad', 'Blume', 'Vase', 'Flasche', 'Tasse', 'Tasche', 'Würfel']",437.13655930000823,437.1393604000332,None,437.13948390004225,443.1401340000448,2,443.1404284000164,443.1429859000491,None,443.1430979000288,443.14426310005365,443.1442748000263,,443.1453260999988,1.226201299985405,None,,,,,,,,,,,,,,,,,,,,,,,,,,,,,,,,,,,,,,,,,,,,,,2,2023-11-27_10h45.39.218,watkins1,2023.2.3,99.73062757877582,16,2023-11-27 10h45.46.049120 +0000,
,,,,,,,,,,,28,0,28,0,,,,,,,,,,,,,443.14954270003363,,,,,,,,,,,,443.14561080001295,443.64161890000105,,,[],[],,,,,,,,,,,,None,None,,,,,,,,,,Tasche,dick,"['Tasche', 'dick']",restudy,2,,,,,,443.1455452000373,443.14558360003866,"['Kette', 'Kiste', 'Brille', 'Bürste', 'Lampe', 'Schlüssel', 'Stift', 'Telefon', 'Geige', 'Eimer', 'Hammer', 'Uhr', 'Rucksack', 'Kamera', 'Socke', 'Löffel', 'Hut', 'Trommel', 'Jacke', 'Kerze', 'Schere', 'Ring', 'Buch', 'Fahrrad', 'Blume', 'Vase', 'Flasche', 'Tasse', 'Tasche', 'Würfel']",443.6416296000243,443.6446073000552,None,443.64473060000455,449.64875089999987,2,449.6490479000495,449.651651400025,None,449.6517642000108,449.6529681000393,449.65298010001425,,449.6540376000339,3.200820600031875,None,,,,,,,,,,,,,,,,,,,,,,,,,,,,,,,,,,,,,,,,,,,,,,2,2023-11-27_10h45.39.218,watkins1,2023.2.3,99.73062757877582,16,2023-11-27 10h45.46.049120 +0000,
,,,,,,,,,,,29,0,29,0,,,,,,,,,,,,,449.6581715000211,,,,,,,,,,,,449.65432420000434,450.15020319999894,,,[],[],,,,,,,,,,,,None,None,,,,,,,,,,Würfel,hübsch,"['Würfel', 'hübsch']",test_sub,2,,,,,,449.65425800002413,449.6542969000293,"['Kette', 'Kiste', 'Brille', 'Bürste', 'Lampe', 'Schlüssel', 'Stift', 'Telefon', 'Geige', 'Eimer', 'Hammer', 'Uhr', 'Rucksack', 'Kamera', 'Socke', 'Löffel', 'Hut', 'Trommel', 'Jacke', 'Kerze', 'Schere', 'Ring', 'Buch', 'Fahrrad', 'Blume', 'Vase', 'Flasche', 'Tasse', 'Tasche', 'Würfel']",450.15021430002525,450.15280060004443,None,450.1529257000075,450.1545755000552,None,450.1546852000174,450.1561540000257,None,450.15626260003773,450.15745480003534,450.1574675000156,0,456.16149610001594,,,,,,,,,,,,,,,,,,,,,,,,,,,,,,,,,,,,,,,,,,,,,,,,2,2023-11-27_10h45.39.218,watkins1,2023.2.3,99.73062757877582,16,2023-11-27 10h45.46.049120 +0000,
,,,,,,,,,,,,,,,,,,,,,,,,,,,,,,,,,,,,,,,,,,,,,,,,,,,,,,,,,,,,,,,,,,,,,,,2,,,,,,,,,,,,,,,,,,,,,,,,,,,,,,,,,,,,,,,,,,,,,,,,,,,,,,,,,,,,,,,,,,,,,,2,2023-11-27_10h45.39.218,watkins1,2023.2.3,99.73062757877582,16,2023-11-27 10h45.46.049120 +0000,
(28 : 7) - 3 = 1 ,Correct,button_correct,,,,,,,,,,,,,0,0,0,0,,,,,,,,,465.65806820004946,,,,,,,,,,464.6265218000044,465.6302214000025,,,,,['button_correct'],[12.543338900024537],,,,,,,,,,,,,,,,,,,,,,,,,,distractorTask,2,,,,,,,,,,,,,,,,,,,,,,,,,465.6469232000527,465.65806820004946,478.1952633000328,[0.3861111111111111],[-0.3824074074074074],[1],[0],[0],[12.543338900024537],['button_correct'],478.19595480000135,479.1988009000197,,,,,,,,,,,,,,,,,,,,,,,,,,,,,,,,,,2,2023-11-27_10h45.39.218,watkins1,2023.2.3,99.73062757877582,16,2023-11-27 10h45.46.049120 +0000,
(9 x 5) - 9 = 36 ,Correct,button_correct,,,,,,,,,,,,,0,1,1,4,,,,,,,,,479.2087603000109,,,,,,,,,,,,,,,,['button_correct'],[6.050888900004793],,,,,,,,,,,,,,,,,,,,,,,,,,distractorTask,2,,,,,,,,,,,,,,,,,,,,,,,,,479.1989918000181,479.2087603000109,485.25341840001056,[0.3398148148148148],[-0.38055555555555554],[1],[0],[0],[6.050888900004793],['button_correct'],485.25380010000663,486.25700440001674,,,,,,,,,,,,,,,,,,,,,,,,,,,,,,,,,,2,2023-11-27_10h45.39.218,watkins1,2023.2.3,99.73062757877582,16,2023-11-27 10h45.46.049120 +0000,
(80 : 10) + 9 = 17 ,Correct,button_correct,,,,,,,,,,,,,0,2,2,3,,,,,,,,,486.26698190002935,,,,,,,,,,,,,,,,['button_incorrect'],[3.742457900021691],,,,,,,,,,,,,,,,,,,,,,,,,,distractorTask,2,,,,,,,,,,,,,,,,,,,,,,,,,486.25719450000906,486.26698190002935,490.0024916000548,[-0.3814814814814815],[-0.4],[1],[0],[0],[3.742457900021691],['button_incorrect'],490.00287300004857,491.0059851000551,,,,,,,,,,,,,,,,,,,,,,,,,,,,,,,,,,2,2023-11-27_10h45.39.218,watkins1,2023.2.3,99.73062757877582,16,2023-11-27 10h45.46.049120 +0000,
(40 : 5) + 8 = 15 ,Incorrect,button_incorrect,,,,,,,,,,,,,0,3,3,7,,,,,,,,,491.015914800053,,,,,,,,,,,,,,,,['button_correct'],[6.52613279997604],,,,,,,,,,,,,,,,,,,,,,,,,,distractorTask,2,,,,,,,,,,,,,,,,,,,,,,,,,491.00617540004896,491.015914800053,497.5345055000507,[0.3138888888888889],[-0.3888888888888889],[1],[0],[0],[6.52613279997604],['button_correct'],497.53489640000043,498.53789190005045,,,,,,,,,,,,,,,,,,,,,,,,,,,,,,,,,,2,2023-11-27_10h45.39.218,watkins1,2023.2.3,99.73062757877582,16,2023-11-27 10h45.46.049120 +0000,
(4 : 2) + 4 = 6 ,Correct,button_correct,,,,,,,,,,,,,0,4,4,1,,,,,,,,,498.5479267000337,,,,,,,,,,,,,,,,['button_correct'],[2.920481999986805],,,,,,,,,,,,,,,,,,,,,,,,,,distractorTask,2,,,,,,,,,,,,,,,,,,,,,,,,,498.5380866000196,498.5479267000337,501.4603145000292,[0.37222222222222223],[-0.38055555555555554],[1],[0],[0],[2.920481999986805],['button_correct'],501.46070990001317,502.463672300044,,,,,,,,,,,,,,,,,,,,,,,,,,,,,,,,,,2,2023-11-27_10h45.39.218,watkins1,2023.2.3,99.73062757877582,16,2023-11-27 10h45.46.049120 +0000,
(25 : 5) + 5 = 9 ,Incorrect,button_incorrect,,,,,,,,,,,,,0,5,5,6,,,,,,,,,502.4736257000477,,,,,,,,,,,,,,,,['button_incorrect'],[2.016759100020863],,,,,,,,,,,,,,,,,,,,,,,,,,distractorTask,2,,,,,,,,,,,,,,,,,,,,,,,,,502.463868300023,502.4736257000477,504.48235290002776,[-0.3111111111111111],[-0.3925925925925926],[1],[0],[0],[2.016759100020863],['button_incorrect'],504.4827331000124,505.485822800023,,,,,,,,,,,,,,,,,,,,,,,,,,,,,,,,,,2,2023-11-27_10h45.39.218,watkins1,2023.2.3,99.73062757877582,16,2023-11-27 10h45.46.049120 +0000,
(6 x 3) + 10 = 27 ,Incorrect,button_incorrect,,,,,,,,,,,,,0,6,6,8,,,,,,,,,505.49584860005416,,,,,,,,,,,,,,,,['button_incorrect'],[2.649612800043542],,,,,,,,,,,,,,,,,,,,,,,,,,distractorTask,2,,,,,,,,,,,,,,,,,,,,,,,,,505.48601420002524,505.49584860005416,508.13740450004116,[-0.3472222222222222],[-0.39537037037037037],[1],[0],[0],[2.649612800043542],['button_incorrect'],508.13778250000905,509.14089860004606,,,,,,,,,,,,,,,,,,,,,,,,,,,,,,,,,,2,2023-11-27_10h45.39.218,watkins1,2023.2.3,99.73062757877582,16,2023-11-27 10h45.46.049120 +0000,
(7 x 6) + 9 = 48 ,Incorrect,button_incorrect,,,,,,,,,,,,,0,7,7,9,,,,,,,,,509.1509744000505,,,,,,,,,,,,,,,,['button_incorrect'],[3.352997400041204],,,,,,,,,,,,,,,,,,,,,,,,,,distractorTask,2,,,,,,,,,,,,,,,,,,,,,,,,,509.1410847000079,509.1509744000505,512.4958169000456,[-0.3277777777777778],[-0.37777777777777777],[1],[0],[0],[3.352997400041204],['button_incorrect'],512.4961945000105,513.4992132000043,,,,,,,,,,,,,,,,,,,,,,,,,,,,,,,,,,2,2023-11-27_10h45.39.218,watkins1,2023.2.3,99.73062757877582,16,2023-11-27 10h45.46.049120 +0000,
(2 x 5) + 3 = 13 ,Correct,button_correct,,,,,,,,,,,,,0,8,8,2,,,,,,,,,513.5091989000211,,,,,,,,,,,,,,,,['button_correct'],[2.008511600026395],,,,,,,,,,,,,,,,,,,,,,,,,,distractorTask,2,,,,,,,,,,,,,,,,,,,,,,,,,513.4994068000233,513.5091989000211,515.5098135000444,[0.34444444444444444],[-0.3851851851851852],[1],[0],[0],[2.008511600026395],['button_correct'],515.5102273000521,516.5131033000071,,,,,,,,,,,,,,,,,,,,,,,,,,,,,,,,,,2,2023-11-27_10h45.39.218,watkins1,2023.2.3,99.73062757877582,16,2023-11-27 10h45.46.049120 +0000,
(54 : 6) - 10 = 0 ,Incorrect,button_incorrect,,,,,,,,,,,,,0,9,9,5,,,,,,,,,516.5230327000027,,,,,,,,,,,,,,,,['button_incorrect'],[6.546080100000836],,,,,,,,,,,,,,,,,,,,,,,,,,distractorTask,2,,,,,,,,,,,,,,,,,,,,,,,,,516.5132926000515,516.5230327000027,523.0611383000505,[-0.29074074074074074],[-0.38055555555555554],[1],[0],[0],[6.546080100000836],['button_incorrect'],523.061666499998,524.0648059000378,,,,,,,,,,,,,,,,,,,,,,,,,,,,,,,,,,2,2023-11-27_10h45.39.218,watkins1,2023.2.3,99.73062757877582,16,2023-11-27 10h45.46.049120 +0000,
,,,,,,,,,,,,,,,,,,,,,,,,,,,,,,,,,,,,,,,,,,,,,,,,,,,,,,,,,,,,,,,,,,,,,,,2,,,,,,,,,,,,,,,,,,,,,,,,,,,,,,,,,,,,,,,,,,,,,,,,,,,,,,,,,,,,,,,,,,,,,,2,2023-11-27_10h45.39.218,watkins1,2023.2.3,99.73062757877582,16,2023-11-27 10h45.46.049120 +0000,
,,,,,,,,,,,,,,,,,,,0,0,0,0,,,,,531.312415100052,,,,,,,,,,,,,,,,tasse,4.313228199956939,,,,,,,,,,,,2.35910810000496,None,,,,,,,,,,,,,freeRecallSub,2,,,,,,,,,,,,,,,,,,,,,,,,,,,,,,,,,,,,,531.303577600047,531.312415100052,531.312415100052,535.6301257000305,return,4.313228199956939,None,tasse,[0.04814814814814815],[0.04537037037037037],[1],[0],[0],[1.0531977000064217],[],,,,,,,,,,,,,,,,,,,2,2023-11-27_10h45.39.218,watkins1,2023.2.3,99.73062757877582,16,2023-11-27 10h45.46.049120 +0000,
,,,,,,,,,,,,,,,,,,,1,0,1,0,,,,,535.6419911000412,,,,,,,,,,,,,,,,rucksack,5.855641599977389,,,,,,,,,,,,4.038705199956894,None,,,,,,,,,,,,,freeRecallSub,2,,,,,,,,,,,,,,,,,,,,,,,,,,,,,,,,,,,,,535.63189410005,535.6419911000412,535.6419911000412,541.4981620000326,return,5.855641599977389,None,rucksack,[],[],[],[],[],[],[],,,,,,,,,,,,,,,,,,,2,2023-11-27_10h45.39.218,watkins1,2023.2.3,99.73062757877582,16,2023-11-27 10h45.46.049120 +0000,
,,,,,,,,,,,,,,,,,,,2,0,2,0,,,,,541.50915420003,,,,,,,,,,,,,,,,schere,4.548554799985141,,,,,,,,,,,,3.3339444999583066,None,,,,,,,,,,,,,freeRecallSub,2,,,,,,,,,,,,,,,,,,,,,,,,,,,,,,,,,,,,,541.4994196000043,541.50915420003,541.50915420003,546.0582978000166,return,4.548554799985141,None,schere,[],[],[],[],[],[],[],,,,,,,,,,,,,,,,,,,2,2023-11-27_10h45.39.218,watkins1,2023.2.3,99.73062757877582,16,2023-11-27 10h45.46.049120 +0000,
,,,,,,,,,,,,,,,,,,,3,0,3,0,,,,,546.0689927000203,,,,,,,,,,,,,,,,tasche,5.0606439000112005,,,,,,,,,,,,2.7611548000131734,None,,,,,,,,,,,,,freeRecallSub,2,,,,,,,,,,,,,,,,,,,,,,,,,,,,,,,,,,,,,546.0595511000138,546.0689927000203,546.0689927000203,551.1303921000217,return,5.0606439000112005,None,tasche,[],[],[],[],[],[],[],,,,,,,,,,,,,,,,,,,2,2023-11-27_10h45.39.218,watkins1,2023.2.3,99.73062757877582,16,2023-11-27 10h45.46.049120 +0000,
,,,,,,,,,,,,,,,,,,,4,0,4,0,,,,,551.1407367000356,,,,,,,,,,,,,,,,brille,2.66888030001428,,,,,,,,,,,,1.1842202000552788,None,,,,,,,,,,,,,freeRecallSub,2,,,,,,,,,,,,,,,,,,,,,,,,,,,,,,,,,,,,,551.1316427999991,551.1407367000356,551.1407367000356,553.8120157000376,return,2.66888030001428,None,brille,[],[],[],[],[],[],[],,,,,,,,,,,,,,,,,,,2,2023-11-27_10h45.39.218,watkins1,2023.2.3,99.73062757877582,16,2023-11-27 10h45.46.049120 +0000,
,,,,,,,,,,,,,,,,,,,5,0,5,0,,,,,553.8234163000016,,,,,,,,,,,,,,,,ring,8.562283999985084,,,,,,,,,,,,7.651812500029337,None,,,,,,,,,,,,,freeRecallSub,2,,,,,,,,,,,,,,,,,,,,,,,,,,,,,,,,,,,,,553.8132666000165,553.8234163000016,553.8234163000016,562.3889241000288,return,8.562283999985084,None,ring,[],[],[],[],[],[],[],,,,,,,,,,,,,,,,,,,2,2023-11-27_10h45.39.218,watkins1,2023.2.3,99.73062757877582,16,2023-11-27 10h45.46.049120 +0000,
,,,,,,,,,,,,,,,,,,,6,0,6,0,,,,,562.4003391000442,,,,,,,,,,,,,,,,uhr,8.95326219999697,,,,,,,,,,,,7.984576500020921,None,,,,,,,,,,,,,freeRecallSub,2,,,,,,,,,,,,,,,,,,,,,,,,,,,,,,,,,,,,,562.3901797000435,562.4003391000442,562.4003391000442,571.3589761000476,return,8.95326219999697,None,uhr,[],[],[],[],[],[],[],,,,,,,,,,,,,,,,,,,2,2023-11-27_10h45.39.218,watkins1,2023.2.3,99.73062757877582,16,2023-11-27 10h45.46.049120 +0000,
,,,,,,,,,,,,,,,,,,,7,0,7,0,,,,,571.370317700028,,,,,,,,,,,,,,,,fahrrad,29.39120220002951,,,,,,,,,,,,27.724603999988176,None,,,,,,,,,,,,,freeRecallSub,2,,,,,,,,,,,,,,,,,,,,,,,,,,,,,,,,,,,,,571.360233000014,571.370317700028,571.370317700028,600.7714610000257,return,29.39120220002951,None,fahrrad,[],[],[],[],[],[],[],,,,,,,,,,,,,,,,,,,2,2023-11-27_10h45.39.218,watkins1,2023.2.3,99.73062757877582,16,2023-11-27 10h45.46.049120 +0000,
,,,,,,,,,,,,,,,,,,,8,0,8,0,,,,,600.7834434000542,,,,,,,,,,,,,,,,buch,15.170122699986678,,,,,,,,,,,,13.983362800034229,None,,,,,,,,,,,,,freeRecallSub,2,,,,,,,,,,,,,,,,,,,,,,,,,,,,,,,,,,,,,600.772735400009,600.7834434000542,600.7834434000542,615.9608562000212,return,15.170122699986678,None,buch,[],[],[],[],[],[],[],,,,,,,,,,,,,,,,,,,2,2023-11-27_10h45.39.218,watkins1,2023.2.3,99.73062757877582,16,2023-11-27 10h45.46.049120 +0000,
,,,,,,,,,,,,,,,,,,,9,0,9,0,,,,,615.9724970000098,,,,,,,,,,,,,,,,,[],,,,,,,,,,,,None,None,,,,,,,,,,,,,freeRecallSub,2,,,,,,,,,,,,,,,,,,,,,,,,,,,,,,,,,,,,,615.962130800006,615.9724970000098,615.9724970000098,650.805775100016,None,,,,[0.2564814814814815],[-0.39814814814814814],[1],[0],[0],[34.83962119999342],"['button_continue', 'continue_text']",,,,,,,,,,,,,,,,,,,2,2023-11-27_10h45.39.218,watkins1,2023.2.3,99.73062757877582,16,2023-11-27 10h45.46.049120 +0000,
,,,,,,,,,,,,,,,,,,,,,,,,,,,,,,,,,,,,,,,,,,,,,,,,,,,,,,,,,,,,,,,,,,,,,,,2,,,,,,,,,,,,,,,,,,,,,,,,,,,,,,,,,,,,,,,,,,,,,,,,,,,,,,,,,,,,,,,,,,,,,,2,2023-11-27_10h45.39.218,watkins1,2023.2.3,99.73062757877582,16,2023-11-27 10h45.46.049120 +0000,
,,,,,,,,,,,,,,,,,,,,,,,0,0,0,0,662.5434240000322,,,,,,,,,,,,669.8567080000066,670.3549611000344,,,,7.3059022999950685,,,,,,,,,,,,None,None,,,,,,,,,,Telefon,,,cuedRecallAdj,2,,,,,,,,,,,,,,,,,,,,,0,,,,,,,,,,,,,,,,,,,,,,,,,,,,,,,662.5343282000395,662.5434240000322,662.5434240000322,669.853312500054,flauschig,return,7.3059022999950685,None,669.8537076000357,669.862859600049,669.862859600049,669.8565555000096,,None,,,,,2,2023-11-27_10h45.39.218,watkins1,2023.2.3,99.73062757877582,16,2023-11-27 10h45.46.049120 +0000,
,,,,,,,,,,,,,,,,,,,,,,,1,0,1,0,670.3649037000141,,,,,,,,,,,,679.3043003000203,679.8029174000258,,,,8.932500599999912,,,,,,,,,,,,None,None,,,,,,,,,,Fahrrad,,,cuedRecallAdj,2,,,,,,,,,,,,,,,,,,,,,0,,,,,,,,,,,,,,,,,,,,,,,,,,,,,,,670.3552096000058,670.3649037000141,670.3649037000141,679.3012085000519,schlicht,return,8.932500599999912,None,679.3014747000416,679.3108694000402,679.3108694000402,679.3041973000509,,None,,,,,2,2023-11-27_10h45.39.218,watkins1,2023.2.3,99.73062757877582,16,2023-11-27 10h45.46.049120 +0000,
,,,,,,,,,,,,,,,,,,,,,,,2,0,2,0,679.8128120000474,,,,,,,,,,,,682.4065496000112,682.9052895000204,,,,2.588601599971298,,,,,,,,,,,,None,None,,,,,,,,,,Buch,,,cuedRecallAdj,2,,,,,,,,,,,,,,,,,,,,,0,,,,,,,,,,,,,,,,,,,,,,,,,,,,,,,679.8031617000233,679.8128120000474,679.8128120000474,682.4036881000502,glatt,return,2.588601599971298,None,682.4039542000392,682.4132341000368,682.4132341000368,682.406446500041,,None,,,,,2,2023-11-27_10h45.39.218,watkins1,2023.2.3,99.73062757877582,16,2023-11-27 10h45.46.049120 +0000,
,,,,,,,,,,,,,,,,,,,,,,,3,0,3,0,682.9152077000472,,,,,,,,,,,,685.2079475000501,685.7066358000156,,,,2.2861762999673374,,,,,,,,,,,,None,None,,,,,,,,,,Flasche,,,cuedRecallAdj,2,,,,,,,,,,,,,,,,,,,,,0,,,,,,,,,,,,,,,,,,,,,,,,,,,,,,,682.9055336000165,682.9152077000472,682.9152077000472,685.2048772000126,matt,return,2.2861762999673374,None,685.2051654000534,685.2145225999993,685.2145225999993,685.2078433000133,,None,,,,,2,2023-11-27_10h45.39.218,watkins1,2023.2.3,99.73062757877582,16,2023-11-27 10h45.46.049120 +0000,
,,,,,,,,,,,,,,,,,,,,,,,4,0,4,0,685.7165443000267,,,,,,,,,,,,689.585573600023,690.0841498000082,,,,3.860844500013627,,,,,,,,,,,,None,None,,,,,,,,,,Bürste,,,cuedRecallAdj,2,,,,,,,,,,,,,,,,,,,,,0,,,,,,,,,,,,,,,,,,,,,,,,,,,,,,,685.7068805000163,685.7165443000267,685.7165443000267,689.582498600008,kratzig,return,3.860844500013627,None,689.5827645000536,689.592048600025,689.592048600025,689.5854704000521,,None,,,,,2,2023-11-27_10h45.39.218,watkins1,2023.2.3,99.73062757877582,16,2023-11-27 10h45.46.049120 +0000,
,,,,,,,,,,,,,,,,,,,,,,,5,0,5,0,690.0940187000087,,,,,,,,,,,,693.0899059000076,693.5880484000081,,,,2.9873654999537393,,,,,,,,,,,,None,None,,,,,,,,,,Stift,,,cuedRecallAdj,2,,,,,,,,,,,,,,,,,,,,,0,,,,,,,,,,,,,,,,,,,,,,,,,,,,,,,690.0843936000019,690.0940187000087,690.0940187000087,693.0865122000105,biegsam,return,2.9873654999537393,None,693.086801700003,693.0961068000179,693.0961068000179,693.0897991000093,,None,,,,,2,2023-11-27_10h45.39.218,watkins1,2023.2.3,99.73062757877582,16,2023-11-27 10h45.46.049120 +0000,
,,,,,,,,,,,,,,,,,,,,,,,6,0,6,0,693.5980767000001,,,,,,,,,,,,696.1418352000182,696.6406713000033,,,,2.531245999969542,,,,,,,,,,,,None,None,,,,,,,,,,Kette,,,cuedRecallAdj,2,,,,,,,,,,,,,,,,,,,,,0,,,,,,,,,,,,,,,,,,,,,,,,,,,,,,,693.5882962000323,693.5980767000001,693.5980767000001,696.1389513000031,kurz,return,2.531245999969542,None,696.1392192000058,696.1486575000454,696.1486575000454,696.141733000055,,None,,,,,2,2023-11-27_10h45.39.218,watkins1,2023.2.3,99.73062757877582,16,2023-11-27 10h45.46.049120 +0000,
,,,,,,,,,,,,,,,,,,,,,,,7,0,7,0,696.6506142000435,,,,,,,,,,,,699.0336541000288,699.5321634000284,,,,2.374692299985327,,,,,,,,,,,,None,None,,,,,,,,,,Schere,,,cuedRecallAdj,2,,,,,,,,,,,,,,,,,,,,,0,,,,,,,,,,,,,,,,,,,,,,,,,,,,,,,696.6409174000146,696.6506142000435,696.6506142000435,699.030602200015,elegant,return,2.374692299985327,None,699.0308685000055,699.0401191000128,699.0401191000128,699.0335527000134,,None,,,,,2,2023-11-27_10h45.39.218,watkins1,2023.2.3,99.73062757877582,16,2023-11-27 10h45.46.049120 +0000,
,,,,,,,,,,,,,,,,,,,,,,,8,0,8,0,699.5420779000269,,,,,,,,,,,,703.2209405000322,703.7194670000463,,,,3.6753075000015087,,,,,,,,,,,,None,None,,,,,,,,,,Eimer,,,cuedRecallAdj,2,,,,,,,,,,,,,,,,,,,,,0,,,,,,,,,,,,,,,,,,,,,,,,,,,,,,,699.5324224000215,699.5420779000269,699.5420779000269,703.2178929000511,nass,return,3.6753075000015087,None,703.218160700053,703.227437100024,703.227437100024,703.2208370000008,,None,,,,,2,2023-11-27_10h45.39.218,watkins1,2023.2.3,99.73062757877582,16,2023-11-27 10h45.46.049120 +0000,
,,,,,,,,,,,,,,,,,,,,,,,9,0,9,0,703.72942040005,,,,,,,,,,,,706.3634983000229,706.8626439000363,,,,2.623884900007397,,,,,,,,,,,,None,None,,,,,,,,,,Löffel,,,cuedRecallAdj,2,,,,,,,,,,,,,,,,,,,,,0,,,,,,,,,,,,,,,,,,,,,,,,,,,,,,,703.719712500053,703.72942040005,703.72942040005,706.3606159000192,groß,return,2.623884900007397,None,706.360883300018,706.3702307000058,706.3702307000058,706.3633980000159,,None,,,,,2,2023-11-27_10h45.39.218,watkins1,2023.2.3,99.73062757877582,16,2023-11-27 10h45.46.049120 +0000,
,,,,,,,,,,,,,,,,,,,,,,,10,0,10,0,706.8726473000133,,,,,,,,,,,,712.3178099000361,712.816815600032,,,,5.432667700049933,,,,,,,,,,,,None,None,,,,,,,,,,Tasche,,,cuedRecallAdj,2,,,,,,,,,,,,,,,,,,,,,0,,,,,,,,,,,,,,,,,,,,,,,,,,,,,,,706.8628856000141,706.8726473000133,706.8726473000133,712.3147906000377,dick,return,5.432667700049933,None,712.3150551000144,712.3244913000381,712.3244913000381,712.3177072000108,,None,,,,,2,2023-11-27_10h45.39.218,watkins1,2023.2.3,99.73062757877582,16,2023-11-27 10h45.46.049120 +0000,
,,,,,,,,,,,,,,,,,,,,,,,11,0,11,0,712.8267640999984,,,,,,,,,,,,721.0632708000485,721.5616942000343,,,,8.23052139999345,,,,,,,,,,,,None,None,,,,,,,,,,Uhr,,,cuedRecallAdj,2,,,,,,,,,,,,,,,,,,,,,0,,,,,,,,,,,,,,,,,,,,,,,,,,,,,,,712.817061800044,712.8267640999984,712.8267640999984,721.060147000011,flauschig,return,8.23052139999345,None,721.0604368000058,721.0696843000478,721.0696843000478,721.0631591000129,,None,,,,,2,2023-11-27_10h45.39.218,watkins1,2023.2.3,99.73062757877582,16,2023-11-27 10h45.46.049120 +0000,
,,,,,,,,,,,,,,,,,,,,,,,12,0,12,0,721.5717376000248,,,,,,,,,,,,732.1587513000122,732.6572517000022,,,,10.58156570000574,,,,,,,,,,,,None,None,,,,,,,,,,Geige,,,cuedRecallAdj,2,,,,,,,,,,,,,,,,,,,,,0,,,,,,,,,,,,,,,,,,,,,,,,,,,,,,,721.5619386000326,721.5717376000248,721.5717376000248,732.1556845000014,praktisch,return,10.58156570000574,None,732.1559514000546,732.1652174000046,732.1652174000046,732.1586484000436,,None,,,,,2,2023-11-27_10h45.39.218,watkins1,2023.2.3,99.73062757877582,16,2023-11-27 10h45.46.049120 +0000,
,,,,,,,,,,,,,,,,,,,,,,,13,0,13,0,732.6672947000479,,,,,,,,,,,,735.6227616000106,736.1211871000123,,,,2.949977200012654,,,,,,,,,,,,None,None,,,,,,,,,,Hammer,,,cuedRecallAdj,2,,,,,,,,,,,,,,,,,,,,,0,,,,,,,,,,,,,,,,,,,,,,,,,,,,,,,732.6574971000082,732.6672947000479,732.6672947000479,735.6196271000081,hässlich,return,2.949977200012654,None,735.619911900023,735.6291548000299,735.6291548000299,735.6226582000381,,None,,,,,2,2023-11-27_10h45.39.218,watkins1,2023.2.3,99.73062757877582,16,2023-11-27 10h45.46.049120 +0000,
,,,,,,,,,,,,,,,,,,,,,,,14,0,14,0,736.1311300000525,,,,,,,,,,,,741.6467579000164,742.1453261999995,,,,5.5101748000015505,,,,,,,,,,,,None,None,,,,,,,,,,Kamera,,,cuedRecallAdj,2,,,,,,,,,,,,,,,,,,,,,0,,,,,,,,,,,,,,,,,,,,,,,,,,,,,,,736.1214248000178,736.1311300000525,736.1311300000525,741.643692600017,schön,return,5.5101748000015505,None,741.643979000044,741.6532232000027,741.6532232000027,741.6466555000516,,None,,,,,2,2023-11-27_10h45.39.218,watkins1,2023.2.3,99.73062757877582,16,2023-11-27 10h45.46.049120 +0000,
,,,,,,,,,,,,,,,,,,,,,,,15,0,15,0,742.1552757000318,,,,,,,,,,,,746.7170924000093,747.2157878000289,,,,4.557999100012239,,,,,,,,,,,,None,None,,,,,,,,,,Hut,,,cuedRecallAdj,2,,,,,,,,,,,,,,,,,,,,,0,,,,,,,,,,,,,,,,,,,,,,,,,,,,,,,742.1455831000349,742.1552757000318,742.1552757000318,746.7142159000505,kaputt,return,4.557999100012239,None,746.7144811000326,746.7237003000337,746.7237003000337,746.716988500033,,None,,,,,2,2023-11-27_10h45.39.218,watkins1,2023.2.3,99.73062757877582,16,2023-11-27 10h45.46.049120 +0000,
,,,,,,,,,,,,,,,,,,,,,,,16,0,16,0,747.225723200012,,,,,,,,,,,,751.6269814000116,752.1256666000118,,,,4.391562100034207,,,,,,,,,,,,None,None,,,,,,,,,,Kerze,,,cuedRecallAdj,2,,,,,,,,,,,,,,,,,,,,,0,,,,,,,,,,,,,,,,,,,,,,,,,,,,,,,747.2160326000303,747.225723200012,747.225723200012,751.6240913000074,hell,return,4.391562100034207,None,751.6243562000454,751.6336411000229,751.6336411000229,751.6268791000475,,None,,,,,2,2023-11-27_10h45.39.218,watkins1,2023.2.3,99.73062757877582,16,2023-11-27 10h45.46.049120 +0000,
,,,,,,,,,,,,,,,,,,,,,,,17,0,17,0,752.1356132000219,,,,,,,,,,,,755.2215000000433,755.7112016000319,,,,3.081525599991437,,,,,,,,,,,,None,None,,,,,,,,,,Kiste,,,cuedRecallAdj,2,,,,,,,,,,,,,,,,,,,,,0,,,,,,,,,,,,,,,,,,,,,,,,,,,,,,,752.1259091000538,752.1356132000219,752.1356132000219,755.2185010000248,schwer,return,3.081525599991437,None,755.2187682000222,755.2280527000548,755.2280527000548,755.2213967000134,,None,,,,,2,2023-11-27_10h45.39.218,watkins1,2023.2.3,99.73062757877582,16,2023-11-27 10h45.46.049120 +0000,
,,,,,,,,,,,,,,,,,,,,,,,18,0,18,0,755.7212612000294,,,,,,,,,,,,758.646365600056,759.1449649000424,,,,2.9199917999794707,,,,,,,,,,,,None,None,,,,,,,,,,Socke,,,cuedRecallAdj,2,,,,,,,,,,,,,,,,,,,,,0,,,,,,,,,,,,,,,,,,,,,,,,,,,,,,,755.7114500000025,755.7212612000294,755.7212612000294,758.6434433000395,blass,return,2.9199917999794707,None,758.6437015000265,758.6530028000125,758.6530028000125,758.6462642000406,,None,,,,,2,2023-11-27_10h45.39.218,watkins1,2023.2.3,99.73062757877582,16,2023-11-27 10h45.46.049120 +0000,
,,,,,,,,,,,,,,,,,,,,,,,19,0,19,0,759.1550193000003,,,,,,,,,,,,762.1509444000549,762.6497092000209,,,,2.990176799998153,,,,,,,,,,,,None,None,,,,,,,,,,Ring,,,cuedRecallAdj,2,,,,,,,,,,,,,,,,,,,,,0,,,,,,,,,,,,,,,,,,,,,,,,,,,,,,,759.1452128000092,759.1550193000003,759.1550193000003,762.148035500024,robust,return,2.990176799998153,None,762.1483021000167,762.1576892000157,762.1576892000157,762.1508403000189,,None,,,,,2,2023-11-27_10h45.39.218,watkins1,2023.2.3,99.73062757877582,16,2023-11-27 10h45.46.049120 +0000,
,,,,,,,,,,,,,,,,,,,,,,,20,0,20,0,762.6596578000463,,,,,,,,,,,,764.480212000024,764.9790029000142,,,,1.8135426999651827,,,,,,,,,,,,None,None,,,,,,,,,,Tasse,,,cuedRecallAdj,2,,,,,,,,,,,,,,,,,,,,,0,,,,,,,,,,,,,,,,,,,,,,,,,,,,,,,762.6499542000238,762.6596578000463,762.6596578000463,764.4773363000131,nass,return,1.8135426999651827,None,764.477606200031,764.486849500041,764.486849500041,764.4801097000018,,None,,,,,2,2023-11-27_10h45.39.218,watkins1,2023.2.3,99.73062757877582,16,2023-11-27 10h45.46.049120 +0000,
,,,,,,,,,,,,,,,,,,,,,,,21,0,21,0,764.9889071000507,,,,,,,,,,,,770.4240748000448,770.92275170004,,,,5.428293799981475,,,,,,,,,,,,None,None,,,,,,,,,,Vase,,,cuedRecallAdj,2,,,,,,,,,,,,,,,,,,,,,0,,,,,,,,,,,,,,,,,,,,,,,,,,,,,,,764.9792436000425,764.9889071000507,764.9889071000507,770.421175800031,schmutzig,return,5.428293799981475,None,770.4214341000188,770.4307243000367,770.4307243000367,770.4239734000294,,None,,,,,2,2023-11-27_10h45.39.218,watkins1,2023.2.3,99.73062757877582,16,2023-11-27 10h45.46.049120 +0000,
,,,,,,,,,,,,,,,,,,,,,,,22,0,22,0,770.9327079000068,,,,,,,,,,,,775.3843220000272,775.8823894000379,,,,4.44438399997307,,,,,,,,,,,,None,None,,,,,,,,,,Brille,,,cuedRecallAdj,2,,,,,,,,,,,,,,,,,,,,,0,,,,,,,,,,,,,,,,,,,,,,,,,,,,,,,770.9229921000078,770.9327079000068,770.9327079000068,775.3807719000033,flauschig,return,4.44438399997307,None,775.3810326000093,775.3902218000148,775.3902218000148,775.3841907000169,,None,,,,,2,2023-11-27_10h45.39.218,watkins1,2023.2.3,99.73062757877582,16,2023-11-27 10h45.46.049120 +0000,
,,,,,,,,,,,,,,,,,,,,,,,23,0,23,0,775.8923090000171,,,,,,,,,,,,780.7658660000307,781.264506400039,,,,4.8688552000094205,,,,,,,,,,,,None,None,,,,,,,,,,Jacke,,,cuedRecallAdj,2,,,,,,,,,,,,,,,,,,,,,0,,,,,,,,,,,,,,,,,,,,,,,,,,,,,,,775.8826276000473,775.8923090000171,775.8923090000171,780.7626863000332,schwer,return,4.8688552000094205,None,780.7629721000558,780.7722470000153,780.7722470000153,780.7657422000193,,None,,,,,2,2023-11-27_10h45.39.218,watkins1,2023.2.3,99.73062757877582,16,2023-11-27 10h45.46.049120 +0000,
,,,,,,,,,,,,,,,,,,,,,,,24,0,24,0,781.274450100027,,,,,,,,,,,,784.0990281000268,784.5978175000055,,,,2.814816400001291,,,,,,,,,,,,None,None,,,,,,,,,,Trommel,,,cuedRecallAdj,2,,,,,,,,,,,,,,,,,,,,,0,,,,,,,,,,,,,,,,,,,,,,,,,,,,,,,781.2647520000464,781.274450100027,781.274450100027,784.0961143000168,bunt,return,2.814816400001291,None,784.0963797000004,784.1057142000063,784.1057142000063,784.0989249000559,,None,,,,,2,2023-11-27_10h45.39.218,watkins1,2023.2.3,99.73062757877582,16,2023-11-27 10h45.46.049120 +0000,
,,,,,,,,,,,,,,,,,,,,,,,25,0,25,0,784.6077657000278,,,,,,,,,,,,789.1699504000135,789.6681338000344,,,,4.553439699986484,,,,,,,,,,,,None,None,,,,,,,,,,Rucksack,,,cuedRecallAdj,2,,,,,,,,,,,,,,,,,,,,,0,,,,,,,,,,,,,,,,,,,,,,,,,,,,,,,784.5980628000107,784.6077657000278,784.6077657000278,789.1665220000432,schwer,return,4.553439699986484,None,789.166791399999,789.1761285000248,789.1761285000248,789.1698464000365,,None,,,,,2,2023-11-27_10h45.39.218,watkins1,2023.2.3,99.73062757877582,16,2023-11-27 10h45.46.049120 +0000,
,,,,,,,,,,,,,,,,,,,,,,,26,0,26,0,789.678085600026,,,,,,,,,,,,798.2860147000174,798.7846149000106,,,,8.595070899988059,,,,,,,,,,,,None,None,,,,,,,,,,Schlüssel,,,cuedRecallAdj,2,,,,,,,,,,,,,,,,,,,,,0,,,,,,,,,,,,,,,,,,,,,,,,,,,,,,,789.6683821000042,789.678085600026,789.678085600026,798.2828921000473,leicht,return,8.595070899988059,None,798.2831627000123,798.2925600000308,798.2925600000308,798.2859002000187,,None,,,,,2,2023-11-27_10h45.39.218,watkins1,2023.2.3,99.73062757877582,16,2023-11-27 10h45.46.049120 +0000,
,,,,,,,,,,,,,,,,,,,,,,,27,0,27,0,798.7945274000522,,,,,,,,,,,,804.0492412000312,804.5476589000318,,,,5.246630100009497,,,,,,,,,,,,None,None,,,,,,,,,,Würfel,,,cuedRecallAdj,2,,,,,,,,,,,,,,,,,,,,,0,,,,,,,,,,,,,,,,,,,,,,,,,,,,,,,798.7848708000383,798.7945274000522,798.7945274000522,804.0460247000447,kantig,return,5.246630100009497,None,804.0463069000398,804.0556490000454,804.0556490000454,804.0491301000002,,None,,,,,2,2023-11-27_10h45.39.218,watkins1,2023.2.3,99.73062757877582,16,2023-11-27 10h45.46.049120 +0000,
,,,,,,,,,,,,,,,,,,,,,,,28,0,28,0,804.5575628000079,,,,,,,,,,,,806.9003973000217,807.399306300038,,,,2.3314711999846622,,,,,,,,,,,,None,None,,,,,,,,,,Lampe,,,cuedRecallAdj,2,,,,,,,,,,,,,,,,,,,,,0,,,,,,,,,,,,,,,,,,,,,,,,,,,,,,,804.5479049000423,804.5575628000079,804.5575628000079,806.8975094000343,hell,return,2.3314711999846622,None,806.8977761000278,806.9073263000464,806.9073263000464,806.9002927000402,,None,,,,,2,2023-11-27_10h45.39.218,watkins1,2023.2.3,99.73062757877582,16,2023-11-27 10h45.46.049120 +0000,
,,,,,,,,,,,,,,,,,,,,,,,29,0,29,0,807.4092044000281,,,,,,,,,,,,810.0232203000342,810.5219123000279,,,,2.6079326000181027,,,,,,,,,,,,None,None,,,,,,,,,,Blume,,,cuedRecallAdj,2,,,,,,,,,,,,,,,,,,,,,0,,,,,,,,,,,,,,,,,,,,,,,,,,,,,,,807.3995532000554,807.4092044000281,807.4092044000281,810.0201878000516,bunt,return,2.6079326000181027,None,810.0204744000221,810.0297867000336,810.0297867000336,810.0231168000028,,None,,,,,2,2023-11-27_10h45.39.218,watkins1,2023.2.3,99.73062757877582,16,2023-11-27 10h45.46.049120 +0000,
,,,,,,,,,,,,,,,,,,,,,,,,,,,,,,,,,,,,,,,,,,,,,,,,,,,,,,,,,,,,,,,,,,,,,,,2,,,,,,,,,,,,,,,,,,,,,,,,,,,,,,,,,,,,,,,,,,,,,,,,,,,,,,,,,,,,,,,,,,810.5387246000464,q,1862.8587591999676,None,2,2023-11-27_10h45.39.218,watkins1,2023.2.3,99.73062757877582,16,2023-11-27 10h45.46.049120 +0000,
