Equation,CorrectResponse,Correctbutton,trials_7.thisRepN,trials_7.thisTrialN,trials_7.thisN,trials_7.thisIndex,trials.thisRepN,trials.thisTrialN,trials.thisN,trials.thisIndex,trials_3.thisRepN,trials_3.thisTrialN,trials_3.thisN,trials_3.thisIndex,trials_2.thisRepN,trials_2.thisTrialN,trials_2.thisN,trials_2.thisIndex,trials_4.thisRepN,trials_4.thisTrialN,trials_4.thisN,trials_4.thisIndex,trials_5.thisRepN,trials_5.thisTrialN,trials_5.thisN,trials_5.thisIndex,thisRow.t,notes,list_sub_restudy,list_sub_testsub,code_marius.started,code_marius.stopped,welcome.started,welcome.stopped,instruction_study.started,instruction_study.stopped,fixationcross.started,fixationcross.stopped,blanc.started,blanc.stopped,study_control_probe.started,study_control_probe.stopped,responseKey,responseTime,scale_answer_2.keys,study_control_probe_2.started,study_control_probe_2.stopped,scale_answer_3.keys,scale_answer_3.rt,scale_answer_3.duration,blanc_2.started,blanc_2.stopped,test_attr_probe.started,test_attr_probe.stopped,recalled_attr,firstKeyTime,secondWordTime,blanc_3.started,blanc_3.stopped,test_sub_probe.started,test_sub_probe.stopped,recalled_sub,instruction_probe_end.started,instruction_probe_end.stopped,study.started,study.stopped,substantive,adjective,wordpair,task,condition,liste_sub_phase1,liste_adj_phase1,scale_answer.keys,scale_answer.rt,scale_answer.duration,code_defineWordsInit.started,code_defineWordsInit.stopped,liste_sub_phase2,study_control.started,study_control.stopped,scale_answer_4.keys,restudy_same.started,restudy_same.stopped,scale_answer_5.keys,restudy_different.started,restudy_different.stopped,scale_answer_6.keys,test_attr.started,test_attr.stopped,test_sub.started,correct,test_sub.stopped,scale_answer_5.rt,scale_answer_5.duration,distractortask.started,equation_text.started,distractortask.stopped,mouse_answer.x,mouse_answer.y,mouse_answer.leftButton,mouse_answer.midButton,mouse_answer.rightButton,mouse_answer.time,mouse_answer.clicked_name,feedback_distractortask.started,feedback_distractortask.stopped,free_recall.started,text_enter.started,key_resp.started,free_recall.stopped,key_resp.keys,key_resp.rt,key_resp.duration,free_recalled_sub,mouse_continue.x,mouse_continue.y,mouse_continue.leftButton,mouse_continue.midButton,mouse_continue.rightButton,mouse_continue.time,mouse_continue.clicked_name,cued_recall.started,text_enter_2.started,key_continue.started,cued_recall.stopped,recalled_attr1,key_continue.keys,key_continue.rt,key_continue.duration,cued_recall_2.started,text_enter_3.started,key_continue_2.started,cued_recall_2.stopped,recalled_attr2,key_continue_2.keys,key_resp_8.started,key_resp_8.keys,key_resp_8.rt,key_resp_8.duration,condition,date,expName,psychopyVersion,frameRate,participant,expStart,
,,,,,,,,,,,,,,,,,,,,,,,,,,,,,"['Kiste', 'Schere', 'Rucksack', 'Hut', 'Tasche', 'Kette', 'Socke', 'Ring', 'Eimer', 'Schlüssel', 'Blume', 'Hammer', 'Kerze', 'Vase', 'Würfel']","['Telefon', 'Lampe', 'Fahrrad', 'Geige', 'Buch', 'Uhr', 'Flasche', 'Bürste', 'Löffel', 'Jacke', 'Kamera', 'Stift', 'Brille', 'Tasse', 'Trommel']",0.09951639996143058,0.09958259999984875,0.09959050000179559,7.126750600000378,,,,,,,,,,,,,,,,,,,,,,,,,,,,,,,,,,,,,2,,,,,,,,,,,,,,,,,,,,,,,,,,,,,,,,,,,,,,,,,,,,,,,,,,,,,,,,,,,,,,,,,,,,,,2,2023-11-27_11h34.30.477,watkins1,2023.2.3,99.71819640200785,18,2023-11-27 11h34.35.947935 +0000,
,,,,,,,,,,,,,,,,,,,,,,,,,,,,,,,,,,,7.126798400015105,77.93038540001726,,,,,,,,,,,,,,,,,,,,,,,,,,,,,,,,,,,2,,,,,,,,,,,,,,,,,,,,,,,,,,,,,,,,,,,,,,,,,,,,,,,,,,,,,,,,,,,,,,,,,,,,,,2,2023-11-27_11h34.30.477,watkins1,2023.2.3,99.71819640200785,18,2023-11-27 11h34.35.947935 +0000,
,,,0,0,0,0,,,,,,,,,,,,,,,,,,,,,78.94379879999906,,,,,,,,,,77.9304038999835,78.93376330001047,85.4338623000076,85.92533120000735,79.42580929998076,85.43369839998195,3,3.047100500029046,None,85.92534209997393,91.92807969998103,3,3.047100500029046,None,91.92837609996786,91.92840009997599,91.92840709997108,91.92848579998827,,2.370095400023274,None,91.92864980001468,92.4196408999851,92.41965250001522,98.42496099998243,hund,,,,,,,,,2,,,,,,,,,,,,,,,,,,,,,,,,,,,,,,,,,,,,,,,,,,,,,,,,,,,,,,,,,,,,,,,,,,,,,,2,2023-11-27_11h34.30.477,watkins1,2023.2.3,99.71819640200785,18,2023-11-27 11h34.35.947935 +0000,
,,,,,,,,,,,,,,,,,,,,,,,,,,,,,,,,,,,,,,,,,,,,,,,,,,,,,,,,,,,,,,,98.42513019999024,109.33906849997584,,,,,,,2,,,,,,,,,,,,,,,,,,,,,,,,,,,,,,,,,,,,,,,,,,,,,,,,,,,,,,,,,,,,,,,,,,,,,,2,2023-11-27_11h34.30.477,watkins1,2023.2.3,99.71819640200785,18,2023-11-27 11h34.35.947935 +0000,
,,,,,,,0,0,0,0,,,,,,,,,,,,,,,,,110.35250749997795,,,,,,,,,,109.3390848999843,110.34252469998319,110.34301949996734,110.83443439996336,,,1,2.5416707000113092,,,,,,,,,,,,,,,,,,,,,110.834446199995,116.83725509996293,Kerze,matt,"['Kerze', 'matt']",restudy,2,"['Kerze', 'Fahrrad', 'Tasse', 'Blume', 'Würfel', 'Jacke', 'Kamera', 'Telefon', 'Trommel', 'Hammer', 'Löffel', 'Ring', 'Eimer', 'Lampe', 'Vase', 'Flasche', 'Kette', 'Schere', 'Brille', 'Kiste', 'Buch', 'Tasche', 'Schlüssel', 'Bürste', 'Stift', 'Uhr', 'Hut', 'Geige', 'Socke', 'Rucksack']",['matt'],1,2.5416707000113092,None,,,,,,,,,,,,,,,,,,,,,,,,,,,,,,,,,,,,,,,,,,,,,,,,,,,,,,,,,,,,,,,,,2,2023-11-27_11h34.30.477,watkins1,2023.2.3,99.71819640200785,18,2023-11-27 11h34.35.947935 +0000,
,,,,,,,1,0,1,0,,,,,,,,,,,,,,,,,116.84674110001652,,,,,,,,,,,,116.8379014999955,117.32868619996589,,,2,3.2813039000029676,,,,,,,,,,,,,,,,,,,,,117.32869639998535,123.33889229997294,Fahrrad,krumm,"['Fahrrad', 'krumm']",test_sub,2,"['Kerze', 'Fahrrad', 'Tasse', 'Blume', 'Würfel', 'Jacke', 'Kamera', 'Telefon', 'Trommel', 'Hammer', 'Löffel', 'Ring', 'Eimer', 'Lampe', 'Vase', 'Flasche', 'Kette', 'Schere', 'Brille', 'Kiste', 'Buch', 'Tasche', 'Schlüssel', 'Bürste', 'Stift', 'Uhr', 'Hut', 'Geige', 'Socke', 'Rucksack']","['matt', 'krumm']",2,3.2813039000029676,None,,,,,,,,,,,,,,,,,,,,,,,,,,,,,,,,,,,,,,,,,,,,,,,,,,,,,,,,,,,,,,,,,2,2023-11-27_11h34.30.477,watkins1,2023.2.3,99.71819640200785,18,2023-11-27 11h34.35.947935 +0000,
,,,,,,,2,0,2,0,,,,,,,,,,,,,,,,,123.34837570000673,,,,,,,,,,,,123.33941209997283,123.8304687999771,,,3,3.435106899996754,,,,,,,,,,,,,,,,,,,,,123.83047980000265,129.83607789996313,Tasse,robust,"['Tasse', 'robust']",test_sub,2,"['Kerze', 'Fahrrad', 'Tasse', 'Blume', 'Würfel', 'Jacke', 'Kamera', 'Telefon', 'Trommel', 'Hammer', 'Löffel', 'Ring', 'Eimer', 'Lampe', 'Vase', 'Flasche', 'Kette', 'Schere', 'Brille', 'Kiste', 'Buch', 'Tasche', 'Schlüssel', 'Bürste', 'Stift', 'Uhr', 'Hut', 'Geige', 'Socke', 'Rucksack']","['matt', 'krumm', 'robust']",3,3.435106899996754,None,,,,,,,,,,,,,,,,,,,,,,,,,,,,,,,,,,,,,,,,,,,,,,,,,,,,,,,,,,,,,,,,,2,2023-11-27_11h34.30.477,watkins1,2023.2.3,99.71819640200785,18,2023-11-27 11h34.35.947935 +0000,
,,,,,,,3,0,3,0,,,,,,,,,,,,,,,,,129.84560860000784,,,,,,,,,,,,129.83660280000186,130.32760429999325,,,1,2.6740578999742866,,,,,,,,,,,,,,,,,,,,,130.32761510001728,136.32825029996457,Blume,rustikal,"['Blume', 'rustikal']",restudy,2,"['Kerze', 'Fahrrad', 'Tasse', 'Blume', 'Würfel', 'Jacke', 'Kamera', 'Telefon', 'Trommel', 'Hammer', 'Löffel', 'Ring', 'Eimer', 'Lampe', 'Vase', 'Flasche', 'Kette', 'Schere', 'Brille', 'Kiste', 'Buch', 'Tasche', 'Schlüssel', 'Bürste', 'Stift', 'Uhr', 'Hut', 'Geige', 'Socke', 'Rucksack']","['matt', 'krumm', 'robust', 'rustikal']",1,2.6740578999742866,None,,,,,,,,,,,,,,,,,,,,,,,,,,,,,,,,,,,,,,,,,,,,,,,,,,,,,,,,,,,,,,,,,2,2023-11-27_11h34.30.477,watkins1,2023.2.3,99.71819640200785,18,2023-11-27 11h34.35.947935 +0000,
,,,,,,,4,0,4,0,,,,,,,,,,,,,,,,,136.33783259999473,,,,,,,,,,,,136.32877809996717,136.81986859999597,,,1,2.2377107000211254,,,,,,,,,,,,,,,,,,,,,136.81987900001695,142.8301757000154,Würfel,lustig,"['Würfel', 'lustig']",restudy,2,"['Kerze', 'Fahrrad', 'Tasse', 'Blume', 'Würfel', 'Jacke', 'Kamera', 'Telefon', 'Trommel', 'Hammer', 'Löffel', 'Ring', 'Eimer', 'Lampe', 'Vase', 'Flasche', 'Kette', 'Schere', 'Brille', 'Kiste', 'Buch', 'Tasche', 'Schlüssel', 'Bürste', 'Stift', 'Uhr', 'Hut', 'Geige', 'Socke', 'Rucksack']","['matt', 'krumm', 'robust', 'rustikal', 'lustig']",1,2.2377107000211254,None,,,,,,,,,,,,,,,,,,,,,,,,,,,,,,,,,,,,,,,,,,,,,,,,,,,,,,,,,,,,,,,,,2,2023-11-27_11h34.30.477,watkins1,2023.2.3,99.71819640200785,18,2023-11-27 11h34.35.947935 +0000,
,,,,,,,5,0,5,0,,,,,,,,,,,,,,,,,142.83959469996626,,,,,,,,,,,,142.8307070999872,143.32158459996572,,,2,4.520594899950083,,,,,,,,,,,,,,,,,,,,,143.3215954999905,149.32557340001222,Jacke,elegant,"['Jacke', 'elegant']",test_sub,2,"['Kerze', 'Fahrrad', 'Tasse', 'Blume', 'Würfel', 'Jacke', 'Kamera', 'Telefon', 'Trommel', 'Hammer', 'Löffel', 'Ring', 'Eimer', 'Lampe', 'Vase', 'Flasche', 'Kette', 'Schere', 'Brille', 'Kiste', 'Buch', 'Tasche', 'Schlüssel', 'Bürste', 'Stift', 'Uhr', 'Hut', 'Geige', 'Socke', 'Rucksack']","['matt', 'krumm', 'robust', 'rustikal', 'lustig', 'elegant']",2,4.520594899950083,None,,,,,,,,,,,,,,,,,,,,,,,,,,,,,,,,,,,,,,,,,,,,,,,,,,,,,,,,,,,,,,,,,2,2023-11-27_11h34.30.477,watkins1,2023.2.3,99.71819640200785,18,2023-11-27 11h34.35.947935 +0000,
,,,,,,,6,0,6,0,,,,,,,,,,,,,,,,,149.3350551999756,,,,,,,,,,,,149.3261063999962,149.81711419997737,,,2,2.881778299983125,,,,,,,,,,,,,,,,,,,,,149.81712479999987,155.82518970000092,Kamera,neu,"['Kamera', 'neu']",test_sub,2,"['Kerze', 'Fahrrad', 'Tasse', 'Blume', 'Würfel', 'Jacke', 'Kamera', 'Telefon', 'Trommel', 'Hammer', 'Löffel', 'Ring', 'Eimer', 'Lampe', 'Vase', 'Flasche', 'Kette', 'Schere', 'Brille', 'Kiste', 'Buch', 'Tasche', 'Schlüssel', 'Bürste', 'Stift', 'Uhr', 'Hut', 'Geige', 'Socke', 'Rucksack']","['matt', 'krumm', 'robust', 'rustikal', 'lustig', 'elegant', 'neu']",2,2.881778299983125,None,,,,,,,,,,,,,,,,,,,,,,,,,,,,,,,,,,,,,,,,,,,,,,,,,,,,,,,,,,,,,,,,,2,2023-11-27_11h34.30.477,watkins1,2023.2.3,99.71819640200785,18,2023-11-27 11h34.35.947935 +0000,
,,,,,,,7,0,7,0,,,,,,,,,,,,,,,,,155.83466960000806,,,,,,,,,,,,155.82571429997915,156.3166693999665,,,2,3.558193900040351,,,,,,,,,,,,,,,,,,,,,156.31668019999051,162.3243542999844,Telefon,dunkel,"['Telefon', 'dunkel']",test_sub,2,"['Kerze', 'Fahrrad', 'Tasse', 'Blume', 'Würfel', 'Jacke', 'Kamera', 'Telefon', 'Trommel', 'Hammer', 'Löffel', 'Ring', 'Eimer', 'Lampe', 'Vase', 'Flasche', 'Kette', 'Schere', 'Brille', 'Kiste', 'Buch', 'Tasche', 'Schlüssel', 'Bürste', 'Stift', 'Uhr', 'Hut', 'Geige', 'Socke', 'Rucksack']","['matt', 'krumm', 'robust', 'rustikal', 'lustig', 'elegant', 'neu', 'dunkel']",2,3.558193900040351,None,,,,,,,,,,,,,,,,,,,,,,,,,,,,,,,,,,,,,,,,,,,,,,,,,,,,,,,,,,,,,,,,,2,2023-11-27_11h34.30.477,watkins1,2023.2.3,99.71819640200785,18,2023-11-27 11h34.35.947935 +0000,
,,,,,,,8,0,8,0,,,,,,,,,,,,,,,,,162.33382329996675,,,,,,,,,,,,162.32487399998354,162.815850999963,,,1,3.0656992999720387,,,,,,,,,,,,,,,,,,,,,162.81586249999236,168.81779940001434,Trommel,verspielt,"['Trommel', 'verspielt']",test_sub,2,"['Kerze', 'Fahrrad', 'Tasse', 'Blume', 'Würfel', 'Jacke', 'Kamera', 'Telefon', 'Trommel', 'Hammer', 'Löffel', 'Ring', 'Eimer', 'Lampe', 'Vase', 'Flasche', 'Kette', 'Schere', 'Brille', 'Kiste', 'Buch', 'Tasche', 'Schlüssel', 'Bürste', 'Stift', 'Uhr', 'Hut', 'Geige', 'Socke', 'Rucksack']","['matt', 'krumm', 'robust', 'rustikal', 'lustig', 'elegant', 'neu', 'dunkel', 'verspielt']",1,3.0656992999720387,None,,,,,,,,,,,,,,,,,,,,,,,,,,,,,,,,,,,,,,,,,,,,,,,,,,,,,,,,,,,,,,,,,2,2023-11-27_11h34.30.477,watkins1,2023.2.3,99.71819640200785,18,2023-11-27 11h34.35.947935 +0000,
,,,,,,,9,0,9,0,,,,,,,,,,,,,,,,,168.82725039997604,,,,,,,,,,,,168.81833019998157,169.30921350000426,,,2,2.5170184000162408,,,,,,,,,,,,,,,,,,,,,169.30922429997008,175.31846149999183,Hammer,lang,"['Hammer', 'lang']",restudy,2,"['Kerze', 'Fahrrad', 'Tasse', 'Blume', 'Würfel', 'Jacke', 'Kamera', 'Telefon', 'Trommel', 'Hammer', 'Löffel', 'Ring', 'Eimer', 'Lampe', 'Vase', 'Flasche', 'Kette', 'Schere', 'Brille', 'Kiste', 'Buch', 'Tasche', 'Schlüssel', 'Bürste', 'Stift', 'Uhr', 'Hut', 'Geige', 'Socke', 'Rucksack']","['matt', 'krumm', 'robust', 'rustikal', 'lustig', 'elegant', 'neu', 'dunkel', 'verspielt', 'lang']",2,2.5170184000162408,None,,,,,,,,,,,,,,,,,,,,,,,,,,,,,,,,,,,,,,,,,,,,,,,,,,,,,,,,,,,,,,,,,2,2023-11-27_11h34.30.477,watkins1,2023.2.3,99.71819640200785,18,2023-11-27 11h34.35.947935 +0000,
,,,,,,,10,0,10,0,,,,,,,,,,,,,,,,,175.3279967000126,,,,,,,,,,,,175.3189904000028,175.81006739998702,,,3,2.630577399977483,,,,,,,,,,,,,,,,,,,,,175.8100781000103,181.8133172999951,Löffel,glänzend,"['Löffel', 'glänzend']",test_sub,2,"['Kerze', 'Fahrrad', 'Tasse', 'Blume', 'Würfel', 'Jacke', 'Kamera', 'Telefon', 'Trommel', 'Hammer', 'Löffel', 'Ring', 'Eimer', 'Lampe', 'Vase', 'Flasche', 'Kette', 'Schere', 'Brille', 'Kiste', 'Buch', 'Tasche', 'Schlüssel', 'Bürste', 'Stift', 'Uhr', 'Hut', 'Geige', 'Socke', 'Rucksack']","['matt', 'krumm', 'robust', 'rustikal', 'lustig', 'elegant', 'neu', 'dunkel', 'verspielt', 'lang', 'glänzend']",3,2.630577399977483,None,,,,,,,,,,,,,,,,,,,,,,,,,,,,,,,,,,,,,,,,,,,,,,,,,,,,,,,,,,,,,,,,,2,2023-11-27_11h34.30.477,watkins1,2023.2.3,99.71819640200785,18,2023-11-27 11h34.35.947935 +0000,
,,,,,,,11,0,11,0,,,,,,,,,,,,,,,,,181.82284029998118,,,,,,,,,,,,181.81383569998434,182.304833400005,,,1,2.2407893000054173,,,,,,,,,,,,,,,,,,,,,182.3048434999655,188.31518589996267,Ring,groß,"['Ring', 'groß']",restudy,2,"['Kerze', 'Fahrrad', 'Tasse', 'Blume', 'Würfel', 'Jacke', 'Kamera', 'Telefon', 'Trommel', 'Hammer', 'Löffel', 'Ring', 'Eimer', 'Lampe', 'Vase', 'Flasche', 'Kette', 'Schere', 'Brille', 'Kiste', 'Buch', 'Tasche', 'Schlüssel', 'Bürste', 'Stift', 'Uhr', 'Hut', 'Geige', 'Socke', 'Rucksack']","['matt', 'krumm', 'robust', 'rustikal', 'lustig', 'elegant', 'neu', 'dunkel', 'verspielt', 'lang', 'glänzend', 'groß']",1,2.2407893000054173,None,,,,,,,,,,,,,,,,,,,,,,,,,,,,,,,,,,,,,,,,,,,,,,,,,,,,,,,,,,,,,,,,,2,2023-11-27_11h34.30.477,watkins1,2023.2.3,99.71819640200785,18,2023-11-27 11h34.35.947935 +0000,
,,,,,,,12,0,12,0,,,,,,,,,,,,,,,,,188.32462949998444,,,,,,,,,,,,188.31569650000893,188.80666459997883,,,3,2.507366300036665,,,,,,,,,,,,,,,,,,,,,188.80667560000438,194.8159350999631,Eimer,schlicht,"['Eimer', 'schlicht']",restudy,2,"['Kerze', 'Fahrrad', 'Tasse', 'Blume', 'Würfel', 'Jacke', 'Kamera', 'Telefon', 'Trommel', 'Hammer', 'Löffel', 'Ring', 'Eimer', 'Lampe', 'Vase', 'Flasche', 'Kette', 'Schere', 'Brille', 'Kiste', 'Buch', 'Tasche', 'Schlüssel', 'Bürste', 'Stift', 'Uhr', 'Hut', 'Geige', 'Socke', 'Rucksack']","['matt', 'krumm', 'robust', 'rustikal', 'lustig', 'elegant', 'neu', 'dunkel', 'verspielt', 'lang', 'glänzend', 'groß', 'schlicht']",3,2.507366300036665,None,,,,,,,,,,,,,,,,,,,,,,,,,,,,,,,,,,,,,,,,,,,,,,,,,,,,,,,,,,,,,,,,,2,2023-11-27_11h34.30.477,watkins1,2023.2.3,99.71819640200785,18,2023-11-27 11h34.35.947935 +0000,
,,,,,,,13,0,13,0,,,,,,,,,,,,,,,,,194.82540099998005,,,,,,,,,,,,194.81647259998135,195.30739259999245,,,1,2.3992832000367343,,,,,,,,,,,,,,,,,,,,,195.30740320001496,201.30950619996293,Lampe,kratzig,"['Lampe', 'kratzig']",test_sub,2,"['Kerze', 'Fahrrad', 'Tasse', 'Blume', 'Würfel', 'Jacke', 'Kamera', 'Telefon', 'Trommel', 'Hammer', 'Löffel', 'Ring', 'Eimer', 'Lampe', 'Vase', 'Flasche', 'Kette', 'Schere', 'Brille', 'Kiste', 'Buch', 'Tasche', 'Schlüssel', 'Bürste', 'Stift', 'Uhr', 'Hut', 'Geige', 'Socke', 'Rucksack']","['matt', 'krumm', 'robust', 'rustikal', 'lustig', 'elegant', 'neu', 'dunkel', 'verspielt', 'lang', 'glänzend', 'groß', 'schlicht', 'kratzig']",1,2.3992832000367343,None,,,,,,,,,,,,,,,,,,,,,,,,,,,,,,,,,,,,,,,,,,,,,,,,,,,,,,,,,,,,,,,,,2,2023-11-27_11h34.30.477,watkins1,2023.2.3,99.71819640200785,18,2023-11-27 11h34.35.947935 +0000,
,,,,,,,14,0,14,0,,,,,,,,,,,,,,,,,201.31893249996938,,,,,,,,,,,,201.31004989997018,201.80120149999857,,,1,2.7610992999980226,,,,,,,,,,,,,,,,,,,,,201.8012124999659,207.8071536999778,Vase,biegsam,"['Vase', 'biegsam']",restudy,2,"['Kerze', 'Fahrrad', 'Tasse', 'Blume', 'Würfel', 'Jacke', 'Kamera', 'Telefon', 'Trommel', 'Hammer', 'Löffel', 'Ring', 'Eimer', 'Lampe', 'Vase', 'Flasche', 'Kette', 'Schere', 'Brille', 'Kiste', 'Buch', 'Tasche', 'Schlüssel', 'Bürste', 'Stift', 'Uhr', 'Hut', 'Geige', 'Socke', 'Rucksack']","['matt', 'krumm', 'robust', 'rustikal', 'lustig', 'elegant', 'neu', 'dunkel', 'verspielt', 'lang', 'glänzend', 'groß', 'schlicht', 'kratzig', 'biegsam']",1,2.7610992999980226,None,,,,,,,,,,,,,,,,,,,,,,,,,,,,,,,,,,,,,,,,,,,,,,,,,,,,,,,,,,,,,,,,,2,2023-11-27_11h34.30.477,watkins1,2023.2.3,99.71819640200785,18,2023-11-27 11h34.35.947935 +0000,
,,,,,,,15,0,15,0,,,,,,,,,,,,,,,,,207.81661310000345,,,,,,,,,,,,207.80768369999714,208.29869299998973,,,1,4.784090200031642,,,,,,,,,,,,,,,,,,,,,208.29870410001604,214.30497870000545,Flasche,blass,"['Flasche', 'blass']",test_sub,2,"['Kerze', 'Fahrrad', 'Tasse', 'Blume', 'Würfel', 'Jacke', 'Kamera', 'Telefon', 'Trommel', 'Hammer', 'Löffel', 'Ring', 'Eimer', 'Lampe', 'Vase', 'Flasche', 'Kette', 'Schere', 'Brille', 'Kiste', 'Buch', 'Tasche', 'Schlüssel', 'Bürste', 'Stift', 'Uhr', 'Hut', 'Geige', 'Socke', 'Rucksack']","['matt', 'krumm', 'robust', 'rustikal', 'lustig', 'elegant', 'neu', 'dunkel', 'verspielt', 'lang', 'glänzend', 'groß', 'schlicht', 'kratzig', 'biegsam', 'blass']",1,4.784090200031642,None,,,,,,,,,,,,,,,,,,,,,,,,,,,,,,,,,,,,,,,,,,,,,,,,,,,,,,,,,,,,,,,,,2,2023-11-27_11h34.30.477,watkins1,2023.2.3,99.71819640200785,18,2023-11-27 11h34.35.947935 +0000,
,,,,,,,16,0,16,0,,,,,,,,,,,,,,,,,214.31442949996563,,,,,,,,,,,,214.30550229997607,214.79646849998971,,,2,3.7582693999866024,,,,,,,,,,,,,,,,,,,,,214.79647910001222,220.80424889997812,Kette,flach,"['Kette', 'flach']",restudy,2,"['Kerze', 'Fahrrad', 'Tasse', 'Blume', 'Würfel', 'Jacke', 'Kamera', 'Telefon', 'Trommel', 'Hammer', 'Löffel', 'Ring', 'Eimer', 'Lampe', 'Vase', 'Flasche', 'Kette', 'Schere', 'Brille', 'Kiste', 'Buch', 'Tasche', 'Schlüssel', 'Bürste', 'Stift', 'Uhr', 'Hut', 'Geige', 'Socke', 'Rucksack']","['matt', 'krumm', 'robust', 'rustikal', 'lustig', 'elegant', 'neu', 'dunkel', 'verspielt', 'lang', 'glänzend', 'groß', 'schlicht', 'kratzig', 'biegsam', 'blass', 'flach']",2,3.7582693999866024,None,,,,,,,,,,,,,,,,,,,,,,,,,,,,,,,,,,,,,,,,,,,,,,,,,,,,,,,,,,,,,,,,,2,2023-11-27_11h34.30.477,watkins1,2023.2.3,99.71819640200785,18,2023-11-27 11h34.35.947935 +0000,
,,,,,,,17,0,17,0,,,,,,,,,,,,,,,,,220.81382039998425,,,,,,,,,,,,220.8047761999769,221.29588059999514,,,1,3.5461798000033014,,,,,,,,,,,,,,,,,,,,,221.2958915999625,227.30494070000714,Schere,glatt,"['Schere', 'glatt']",restudy,2,"['Kerze', 'Fahrrad', 'Tasse', 'Blume', 'Würfel', 'Jacke', 'Kamera', 'Telefon', 'Trommel', 'Hammer', 'Löffel', 'Ring', 'Eimer', 'Lampe', 'Vase', 'Flasche', 'Kette', 'Schere', 'Brille', 'Kiste', 'Buch', 'Tasche', 'Schlüssel', 'Bürste', 'Stift', 'Uhr', 'Hut', 'Geige', 'Socke', 'Rucksack']","['matt', 'krumm', 'robust', 'rustikal', 'lustig', 'elegant', 'neu', 'dunkel', 'verspielt', 'lang', 'glänzend', 'groß', 'schlicht', 'kratzig', 'biegsam', 'blass', 'flach', 'glatt']",1,3.5461798000033014,None,,,,,,,,,,,,,,,,,,,,,,,,,,,,,,,,,,,,,,,,,,,,,,,,,,,,,,,,,,,,,,,,,2,2023-11-27_11h34.30.477,watkins1,2023.2.3,99.71819640200785,18,2023-11-27 11h34.35.947935 +0000,
,,,,,,,18,0,18,0,,,,,,,,,,,,,,,,,227.31442499998957,,,,,,,,,,,,227.30546840000898,227.7964436999755,,,1,2.805736599955708,,,,,,,,,,,,,,,,,,,,,227.79645470000105,233.8031645999872,Brille,winzig,"['Brille', 'winzig']",test_sub,2,"['Kerze', 'Fahrrad', 'Tasse', 'Blume', 'Würfel', 'Jacke', 'Kamera', 'Telefon', 'Trommel', 'Hammer', 'Löffel', 'Ring', 'Eimer', 'Lampe', 'Vase', 'Flasche', 'Kette', 'Schere', 'Brille', 'Kiste', 'Buch', 'Tasche', 'Schlüssel', 'Bürste', 'Stift', 'Uhr', 'Hut', 'Geige', 'Socke', 'Rucksack']","['matt', 'krumm', 'robust', 'rustikal', 'lustig', 'elegant', 'neu', 'dunkel', 'verspielt', 'lang', 'glänzend', 'groß', 'schlicht', 'kratzig', 'biegsam', 'blass', 'flach', 'glatt', 'winzig']",1,2.805736599955708,None,,,,,,,,,,,,,,,,,,,,,,,,,,,,,,,,,,,,,,,,,,,,,,,,,,,,,,,,,,,,,,,,,2,2023-11-27_11h34.30.477,watkins1,2023.2.3,99.71819640200785,18,2023-11-27 11h34.35.947935 +0000,
,,,,,,,19,0,19,0,,,,,,,,,,,,,,,,,233.81261580000864,,,,,,,,,,,,233.80369520001113,234.29431199998362,,,1,2.020118100044783,,,,,,,,,,,,,,,,,,,,,234.29432169999927,240.30301709997002,Kiste,sportlich,"['Kiste', 'sportlich']",restudy,2,"['Kerze', 'Fahrrad', 'Tasse', 'Blume', 'Würfel', 'Jacke', 'Kamera', 'Telefon', 'Trommel', 'Hammer', 'Löffel', 'Ring', 'Eimer', 'Lampe', 'Vase', 'Flasche', 'Kette', 'Schere', 'Brille', 'Kiste', 'Buch', 'Tasche', 'Schlüssel', 'Bürste', 'Stift', 'Uhr', 'Hut', 'Geige', 'Socke', 'Rucksack']","['matt', 'krumm', 'robust', 'rustikal', 'lustig', 'elegant', 'neu', 'dunkel', 'verspielt', 'lang', 'glänzend', 'groß', 'schlicht', 'kratzig', 'biegsam', 'blass', 'flach', 'glatt', 'winzig', 'sportlich']",1,2.020118100044783,None,,,,,,,,,,,,,,,,,,,,,,,,,,,,,,,,,,,,,,,,,,,,,,,,,,,,,,,,,,,,,,,,,2,2023-11-27_11h34.30.477,watkins1,2023.2.3,99.71819640200785,18,2023-11-27 11h34.35.947935 +0000,
,,,,,,,20,0,20,0,,,,,,,,,,,,,,,,,240.31249320000643,,,,,,,,,,,,240.3035555999959,240.79451959999278,,,1,2.1921218000352383,,,,,,,,,,,,,,,,,,,,,240.79453050001757,246.8021418999997,Buch,durchsichtig,"['Buch', 'durchsichtig']",test_sub,2,"['Kerze', 'Fahrrad', 'Tasse', 'Blume', 'Würfel', 'Jacke', 'Kamera', 'Telefon', 'Trommel', 'Hammer', 'Löffel', 'Ring', 'Eimer', 'Lampe', 'Vase', 'Flasche', 'Kette', 'Schere', 'Brille', 'Kiste', 'Buch', 'Tasche', 'Schlüssel', 'Bürste', 'Stift', 'Uhr', 'Hut', 'Geige', 'Socke', 'Rucksack']","['matt', 'krumm', 'robust', 'rustikal', 'lustig', 'elegant', 'neu', 'dunkel', 'verspielt', 'lang', 'glänzend', 'groß', 'schlicht', 'kratzig', 'biegsam', 'blass', 'flach', 'glatt', 'winzig', 'sportlich', 'durchsichtig']",1,2.1921218000352383,None,,,,,,,,,,,,,,,,,,,,,,,,,,,,,,,,,,,,,,,,,,,,,,,,,,,,,,,,,,,,,,,,,2,2023-11-27_11h34.30.477,watkins1,2023.2.3,99.71819640200785,18,2023-11-27 11h34.35.947935 +0000,
,,,,,,,21,0,21,0,,,,,,,,,,,,,,,,,246.8115325999679,,,,,,,,,,,,246.8026735999738,247.2936339000007,,,1,3.069094499980565,,,,,,,,,,,,,,,,,,,,,247.29364419996273,253.3023737000185,Tasche,zart,"['Tasche', 'zart']",restudy,2,"['Kerze', 'Fahrrad', 'Tasse', 'Blume', 'Würfel', 'Jacke', 'Kamera', 'Telefon', 'Trommel', 'Hammer', 'Löffel', 'Ring', 'Eimer', 'Lampe', 'Vase', 'Flasche', 'Kette', 'Schere', 'Brille', 'Kiste', 'Buch', 'Tasche', 'Schlüssel', 'Bürste', 'Stift', 'Uhr', 'Hut', 'Geige', 'Socke', 'Rucksack']","['matt', 'krumm', 'robust', 'rustikal', 'lustig', 'elegant', 'neu', 'dunkel', 'verspielt', 'lang', 'glänzend', 'groß', 'schlicht', 'kratzig', 'biegsam', 'blass', 'flach', 'glatt', 'winzig', 'sportlich', 'durchsichtig', 'zart']",1,3.069094499980565,None,,,,,,,,,,,,,,,,,,,,,,,,,,,,,,,,,,,,,,,,,,,,,,,,,,,,,,,,,,,,,,,,,2,2023-11-27_11h34.30.477,watkins1,2023.2.3,99.71819640200785,18,2023-11-27 11h34.35.947935 +0000,
,,,,,,,22,0,22,0,,,,,,,,,,,,,,,,,253.3118073999649,,,,,,,,,,,,253.30290660000173,253.7938594999723,,,2,4.471983399998862,,,,,,,,,,,,,,,,,,,,,253.79387049999787,259.8031669000047,Schlüssel,kalt,"['Schlüssel', 'kalt']",restudy,2,"['Kerze', 'Fahrrad', 'Tasse', 'Blume', 'Würfel', 'Jacke', 'Kamera', 'Telefon', 'Trommel', 'Hammer', 'Löffel', 'Ring', 'Eimer', 'Lampe', 'Vase', 'Flasche', 'Kette', 'Schere', 'Brille', 'Kiste', 'Buch', 'Tasche', 'Schlüssel', 'Bürste', 'Stift', 'Uhr', 'Hut', 'Geige', 'Socke', 'Rucksack']","['matt', 'krumm', 'robust', 'rustikal', 'lustig', 'elegant', 'neu', 'dunkel', 'verspielt', 'lang', 'glänzend', 'groß', 'schlicht', 'kratzig', 'biegsam', 'blass', 'flach', 'glatt', 'winzig', 'sportlich', 'durchsichtig', 'zart', 'kalt']",2,4.471983399998862,None,,,,,,,,,,,,,,,,,,,,,,,,,,,,,,,,,,,,,,,,,,,,,,,,,,,,,,,,,,,,,,,,,2,2023-11-27_11h34.30.477,watkins1,2023.2.3,99.71819640200785,18,2023-11-27 11h34.35.947935 +0000,
,,,,,,,23,0,23,0,,,,,,,,,,,,,,,,,259.81272469996475,,,,,,,,,,,,259.80370370001765,260.29483640001854,,,1,2.9638979000155814,,,,,,,,,,,,,,,,,,,,,260.2948470999836,266.29950459999964,Bürste,niedlich,"['Bürste', 'niedlich']",test_sub,2,"['Kerze', 'Fahrrad', 'Tasse', 'Blume', 'Würfel', 'Jacke', 'Kamera', 'Telefon', 'Trommel', 'Hammer', 'Löffel', 'Ring', 'Eimer', 'Lampe', 'Vase', 'Flasche', 'Kette', 'Schere', 'Brille', 'Kiste', 'Buch', 'Tasche', 'Schlüssel', 'Bürste', 'Stift', 'Uhr', 'Hut', 'Geige', 'Socke', 'Rucksack']","['matt', 'krumm', 'robust', 'rustikal', 'lustig', 'elegant', 'neu', 'dunkel', 'verspielt', 'lang', 'glänzend', 'groß', 'schlicht', 'kratzig', 'biegsam', 'blass', 'flach', 'glatt', 'winzig', 'sportlich', 'durchsichtig', 'zart', 'kalt', 'niedlich']",1,2.9638979000155814,None,,,,,,,,,,,,,,,,,,,,,,,,,,,,,,,,,,,,,,,,,,,,,,,,,,,,,,,,,,,,,,,,,2,2023-11-27_11h34.30.477,watkins1,2023.2.3,99.71819640200785,18,2023-11-27 11h34.35.947935 +0000,
,,,,,,,24,0,24,0,,,,,,,,,,,,,,,,,266.30897710000863,,,,,,,,,,,,266.30003699997906,266.79090969997924,,,2,3.883473900030367,,,,,,,,,,,,,,,,,,,,,266.790920200001,272.79180559999077,Stift,gepunktet,"['Stift', 'gepunktet']",test_sub,2,"['Kerze', 'Fahrrad', 'Tasse', 'Blume', 'Würfel', 'Jacke', 'Kamera', 'Telefon', 'Trommel', 'Hammer', 'Löffel', 'Ring', 'Eimer', 'Lampe', 'Vase', 'Flasche', 'Kette', 'Schere', 'Brille', 'Kiste', 'Buch', 'Tasche', 'Schlüssel', 'Bürste', 'Stift', 'Uhr', 'Hut', 'Geige', 'Socke', 'Rucksack']","['matt', 'krumm', 'robust', 'rustikal', 'lustig', 'elegant', 'neu', 'dunkel', 'verspielt', 'lang', 'glänzend', 'groß', 'schlicht', 'kratzig', 'biegsam', 'blass', 'flach', 'glatt', 'winzig', 'sportlich', 'durchsichtig', 'zart', 'kalt', 'niedlich', 'gepunktet']",2,3.883473900030367,None,,,,,,,,,,,,,,,,,,,,,,,,,,,,,,,,,,,,,,,,,,,,,,,,,,,,,,,,,,,,,,,,,2,2023-11-27_11h34.30.477,watkins1,2023.2.3,99.71819640200785,18,2023-11-27 11h34.35.947935 +0000,
,,,,,,,25,0,25,0,,,,,,,,,,,,,,,,,272.8012338000117,,,,,,,,,,,,272.7923298999667,273.28338440001244,,,1,2.198513199982699,,,,,,,,,,,,,,,,,,,,,273.28339469997445,279.28735759999836,Uhr,kurz,"['Uhr', 'kurz']",test_sub,2,"['Kerze', 'Fahrrad', 'Tasse', 'Blume', 'Würfel', 'Jacke', 'Kamera', 'Telefon', 'Trommel', 'Hammer', 'Löffel', 'Ring', 'Eimer', 'Lampe', 'Vase', 'Flasche', 'Kette', 'Schere', 'Brille', 'Kiste', 'Buch', 'Tasche', 'Schlüssel', 'Bürste', 'Stift', 'Uhr', 'Hut', 'Geige', 'Socke', 'Rucksack']","['matt', 'krumm', 'robust', 'rustikal', 'lustig', 'elegant', 'neu', 'dunkel', 'verspielt', 'lang', 'glänzend', 'groß', 'schlicht', 'kratzig', 'biegsam', 'blass', 'flach', 'glatt', 'winzig', 'sportlich', 'durchsichtig', 'zart', 'kalt', 'niedlich', 'gepunktet', 'kurz']",1,2.198513199982699,None,,,,,,,,,,,,,,,,,,,,,,,,,,,,,,,,,,,,,,,,,,,,,,,,,,,,,,,,,,,,,,,,,2,2023-11-27_11h34.30.477,watkins1,2023.2.3,99.71819640200785,18,2023-11-27 11h34.35.947935 +0000,
,,,,,,,26,0,26,0,,,,,,,,,,,,,,,,,279.29681719996734,,,,,,,,,,,,279.28787639999064,279.7788671000162,,,2,3.6476304000243545,,,,,,,,,,,,,,,,,,,,,279.77887859998737,285.77950870001223,Hut,kaputt,"['Hut', 'kaputt']",restudy,2,"['Kerze', 'Fahrrad', 'Tasse', 'Blume', 'Würfel', 'Jacke', 'Kamera', 'Telefon', 'Trommel', 'Hammer', 'Löffel', 'Ring', 'Eimer', 'Lampe', 'Vase', 'Flasche', 'Kette', 'Schere', 'Brille', 'Kiste', 'Buch', 'Tasche', 'Schlüssel', 'Bürste', 'Stift', 'Uhr', 'Hut', 'Geige', 'Socke', 'Rucksack']","['matt', 'krumm', 'robust', 'rustikal', 'lustig', 'elegant', 'neu', 'dunkel', 'verspielt', 'lang', 'glänzend', 'groß', 'schlicht', 'kratzig', 'biegsam', 'blass', 'flach', 'glatt', 'winzig', 'sportlich', 'durchsichtig', 'zart', 'kalt', 'niedlich', 'gepunktet', 'kurz', 'kaputt']",2,3.6476304000243545,None,,,,,,,,,,,,,,,,,,,,,,,,,,,,,,,,,,,,,,,,,,,,,,,,,,,,,,,,,,,,,,,,,2,2023-11-27_11h34.30.477,watkins1,2023.2.3,99.71819640200785,18,2023-11-27 11h34.35.947935 +0000,
,,,,,,,27,0,27,0,,,,,,,,,,,,,,,,,285.78897339996183,,,,,,,,,,,,285.78003929997794,286.27096729999175,,,1,4.274578999960795,,,,,,,,,,,,,,,,,,,,,286.270977600012,292.27321299997857,Geige,hübsch,"['Geige', 'hübsch']",test_sub,2,"['Kerze', 'Fahrrad', 'Tasse', 'Blume', 'Würfel', 'Jacke', 'Kamera', 'Telefon', 'Trommel', 'Hammer', 'Löffel', 'Ring', 'Eimer', 'Lampe', 'Vase', 'Flasche', 'Kette', 'Schere', 'Brille', 'Kiste', 'Buch', 'Tasche', 'Schlüssel', 'Bürste', 'Stift', 'Uhr', 'Hut', 'Geige', 'Socke', 'Rucksack']","['matt', 'krumm', 'robust', 'rustikal', 'lustig', 'elegant', 'neu', 'dunkel', 'verspielt', 'lang', 'glänzend', 'groß', 'schlicht', 'kratzig', 'biegsam', 'blass', 'flach', 'glatt', 'winzig', 'sportlich', 'durchsichtig', 'zart', 'kalt', 'niedlich', 'gepunktet', 'kurz', 'kaputt', 'hübsch']",1,4.274578999960795,None,,,,,,,,,,,,,,,,,,,,,,,,,,,,,,,,,,,,,,,,,,,,,,,,,,,,,,,,,,,,,,,,,2,2023-11-27_11h34.30.477,watkins1,2023.2.3,99.71819640200785,18,2023-11-27 11h34.35.947935 +0000,
,,,,,,,28,0,28,0,,,,,,,,,,,,,,,,,292.282553899975,,,,,,,,,,,,292.27374139998574,292.7646863000118,,,3,4.109568500018213,,,,,,,,,,,,,,,,,,,,,292.76469709997764,298.77354680001736,Socke,gestreift,"['Socke', 'gestreift']",restudy,2,"['Kerze', 'Fahrrad', 'Tasse', 'Blume', 'Würfel', 'Jacke', 'Kamera', 'Telefon', 'Trommel', 'Hammer', 'Löffel', 'Ring', 'Eimer', 'Lampe', 'Vase', 'Flasche', 'Kette', 'Schere', 'Brille', 'Kiste', 'Buch', 'Tasche', 'Schlüssel', 'Bürste', 'Stift', 'Uhr', 'Hut', 'Geige', 'Socke', 'Rucksack']","['matt', 'krumm', 'robust', 'rustikal', 'lustig', 'elegant', 'neu', 'dunkel', 'verspielt', 'lang', 'glänzend', 'groß', 'schlicht', 'kratzig', 'biegsam', 'blass', 'flach', 'glatt', 'winzig', 'sportlich', 'durchsichtig', 'zart', 'kalt', 'niedlich', 'gepunktet', 'kurz', 'kaputt', 'hübsch', 'gestreift']",3,4.109568500018213,None,,,,,,,,,,,,,,,,,,,,,,,,,,,,,,,,,,,,,,,,,,,,,,,,,,,,,,,,,,,,,,,,,2,2023-11-27_11h34.30.477,watkins1,2023.2.3,99.71819640200785,18,2023-11-27 11h34.35.947935 +0000,
,,,,,,,29,0,29,0,,,,,,,,,,,,,,,,,298.7829655999667,,,,,,,,,,,,298.7740995999775,299.26498549996177,,,1,3.625636700016912,,,,,,,,,,,,,,,,,,,,,299.2649965999881,305.27285629999824,Rucksack,hohl,"['Rucksack', 'hohl']",restudy,2,"['Kerze', 'Fahrrad', 'Tasse', 'Blume', 'Würfel', 'Jacke', 'Kamera', 'Telefon', 'Trommel', 'Hammer', 'Löffel', 'Ring', 'Eimer', 'Lampe', 'Vase', 'Flasche', 'Kette', 'Schere', 'Brille', 'Kiste', 'Buch', 'Tasche', 'Schlüssel', 'Bürste', 'Stift', 'Uhr', 'Hut', 'Geige', 'Socke', 'Rucksack']","['matt', 'krumm', 'robust', 'rustikal', 'lustig', 'elegant', 'neu', 'dunkel', 'verspielt', 'lang', 'glänzend', 'groß', 'schlicht', 'kratzig', 'biegsam', 'blass', 'flach', 'glatt', 'winzig', 'sportlich', 'durchsichtig', 'zart', 'kalt', 'niedlich', 'gepunktet', 'kurz', 'kaputt', 'hübsch', 'gestreift', 'hohl']",1,3.625636700016912,None,,,,,,,,,,,,,,,,,,,,,,,,,,,,,,,,,,,,,,,,,,,,,,,,,,,,,,,,,,,,,,,,,2,2023-11-27_11h34.30.477,watkins1,2023.2.3,99.71819640200785,18,2023-11-27 11h34.35.947935 +0000,
,,,,,,,,,,,0,0,0,0,,,,,,,,,,,,,305.28232439997373,,,,,,,,,,,,305.27372250001645,305.76418870000634,,,[],[],,,,,,,,,,,,3.4542299000313506,None,,,,,Uhr,,,,,Uhr,kurz,"['Uhr', 'kurz']",test_sub,2,,,,,,305.27364540001145,305.27369559998624,"['Uhr', 'Blume', 'Hammer', 'Kamera', 'Tasse', 'Kerze', 'Flasche', 'Schlüssel', 'Stift', 'Buch', 'Kette', 'Telefon', 'Würfel', 'Socke', 'Geige', 'Eimer', 'Vase', 'Ring', 'Jacke', 'Tasche', 'Brille', 'Bürste', 'Hut', 'Lampe', 'Fahrrad', 'Trommel', 'Schere', 'Kiste', 'Rucksack', 'Löffel']",305.764200399979,305.76670530001866,None,305.76688929996453,305.76917799998773,None,305.7693403000012,305.77172789996257,None,305.7718905999791,305.7729271000135,305.7729398999945,1,311.7775312999729,,,,,,,,,,,,,,,,,,,,,,,,,,,,,,,,,,,,,,,,,,,,,,,,2,2023-11-27_11h34.30.477,watkins1,2023.2.3,99.71819640200785,18,2023-11-27 11h34.35.947935 +0000,
,,,,,,,,,,,1,0,1,0,,,,,,,,,,,,,311.78728879999835,,,,,,,,,,,,311.7778113000095,312.2692795000039,,,[],[],,,,,,,,,,,,None,None,,,,,,,,,,Blume,rustikal,"['Blume', 'rustikal']",restudy,2,,,,,,311.7777459999779,311.7777827999671,"['Uhr', 'Blume', 'Hammer', 'Kamera', 'Tasse', 'Kerze', 'Flasche', 'Schlüssel', 'Stift', 'Buch', 'Kette', 'Telefon', 'Würfel', 'Socke', 'Geige', 'Eimer', 'Vase', 'Ring', 'Jacke', 'Tasche', 'Brille', 'Bürste', 'Hut', 'Lampe', 'Fahrrad', 'Trommel', 'Schere', 'Kiste', 'Rucksack', 'Löffel']",312.2692897999659,312.27192999998806,None,312.2720506999758,318.2767653000192,1,318.27715039998293,318.2798553999746,None,318.2799670000095,318.2811270999955,318.2811386999674,,318.2826650000061,3.7214954999508336,None,,,,,,,,,,,,,,,,,,,,,,,,,,,,,,,,,,,,,,,,,,,,,,2,2023-11-27_11h34.30.477,watkins1,2023.2.3,99.71819640200785,18,2023-11-27 11h34.35.947935 +0000,
,,,,,,,,,,,2,0,2,0,,,,,,,,,,,,,318.28619439998874,,,,,,,,,,,,318.28295459999936,318.77829749998637,,,[],[],,,,,,,,,,,,None,None,,,,,,,,,,Hammer,lang,"['Hammer', 'lang']",restudy,2,,,,,,318.2828889999655,318.28292769996915,"['Uhr', 'Blume', 'Hammer', 'Kamera', 'Tasse', 'Kerze', 'Flasche', 'Schlüssel', 'Stift', 'Buch', 'Kette', 'Telefon', 'Würfel', 'Socke', 'Geige', 'Eimer', 'Vase', 'Ring', 'Jacke', 'Tasche', 'Brille', 'Bürste', 'Hut', 'Lampe', 'Fahrrad', 'Trommel', 'Schere', 'Kiste', 'Rucksack', 'Löffel']",318.77830920001725,318.78104450000683,None,318.78117019997444,324.7912182,2,324.79150920000393,324.7939868000103,None,324.7940965999733,324.7952492000186,324.7952607999905,,324.7962677999749,4.909766199998558,None,,,,,,,,,,,,,,,,,,,,,,,,,,,,,,,,,,,,,,,,,,,,,,2,2023-11-27_11h34.30.477,watkins1,2023.2.3,99.71819640200785,18,2023-11-27 11h34.35.947935 +0000,
,,,,,,,,,,,3,0,3,0,,,,,,,,,,,,,324.8006629999727,,,,,,,,,,,,324.79654010001104,325.29276450001635,,,[],[],,,,,,,,,,,,None,None,,,,,,,,,,Kamera,neu,"['Kamera', 'neu']",test_sub,2,,,,,,324.7964772999985,324.79651389998617,"['Uhr', 'Blume', 'Hammer', 'Kamera', 'Tasse', 'Kerze', 'Flasche', 'Schlüssel', 'Stift', 'Buch', 'Kette', 'Telefon', 'Würfel', 'Socke', 'Geige', 'Eimer', 'Vase', 'Ring', 'Jacke', 'Tasche', 'Brille', 'Bürste', 'Hut', 'Lampe', 'Fahrrad', 'Trommel', 'Schere', 'Kiste', 'Rucksack', 'Löffel']",325.2927816999727,325.2953365999856,None,325.2954592999886,325.29700159997446,None,325.29710949998116,325.2985367999645,None,325.2986448999727,325.29981349996524,325.2998263000045,0,331.3018947999808,,,,,,,,,,,,,,,,,,,,,,,,,,,,,,,,,,,,,,,,,,,,,,,,2,2023-11-27_11h34.30.477,watkins1,2023.2.3,99.71819640200785,18,2023-11-27 11h34.35.947935 +0000,
,,,,,,,,,,,4,0,4,0,,,,,,,,,,,,,331.31173089996446,,,,,,,,,,,,331.30218759999843,331.7937616999843,,,[],[],,,,,,,,,,,,4.869713699968997,None,,,,,tasse,,,,,Tasse,robust,"['Tasse', 'robust']",test_sub,2,,,,,,331.3021187999984,331.30215780000435,"['Uhr', 'Blume', 'Hammer', 'Kamera', 'Tasse', 'Kerze', 'Flasche', 'Schlüssel', 'Stift', 'Buch', 'Kette', 'Telefon', 'Würfel', 'Socke', 'Geige', 'Eimer', 'Vase', 'Ring', 'Jacke', 'Tasche', 'Brille', 'Bürste', 'Hut', 'Lampe', 'Fahrrad', 'Trommel', 'Schere', 'Kiste', 'Rucksack', 'Löffel']",331.79377330001444,331.79628700000467,None,331.7964111000183,331.7987610999844,None,331.79886839998653,331.8012086999952,None,331.8013159999973,331.80247029999737,331.8024828999769,0,337.8069971000077,,,,,,,,,,,,,,,,,,,,,,,,,,,,,,,,,,,,,,,,,,,,,,,,2,2023-11-27_11h34.30.477,watkins1,2023.2.3,99.71819640200785,18,2023-11-27 11h34.35.947935 +0000,
,,,,,,,,,,,5,0,5,0,,,,,,,,,,,,,337.8168869999936,,,,,,,,,,,,337.80727459996706,338.2988100000075,,,[],[],,,,,,,,,,,,None,None,,,,,,,,,,Kerze,matt,"['Kerze', 'matt']",restudy,2,,,,,,337.80720989999827,337.8072465999867,"['Uhr', 'Blume', 'Hammer', 'Kamera', 'Tasse', 'Kerze', 'Flasche', 'Schlüssel', 'Stift', 'Buch', 'Kette', 'Telefon', 'Würfel', 'Socke', 'Geige', 'Eimer', 'Vase', 'Ring', 'Jacke', 'Tasche', 'Brille', 'Bürste', 'Hut', 'Lampe', 'Fahrrad', 'Trommel', 'Schere', 'Kiste', 'Rucksack', 'Löffel']",338.2988205999718,338.30146469996544,None,338.3015859000152,344.30388580000727,2,344.30418490001466,344.3069794999901,None,344.3071000999771,344.3083375999704,344.3083503000089,,344.3097758999793,2.349208700004965,None,,,,,,,,,,,,,,,,,,,,,,,,,,,,,,,,,,,,,,,,,,,,,,2,2023-11-27_11h34.30.477,watkins1,2023.2.3,99.71819640200785,18,2023-11-27 11h34.35.947935 +0000,
,,,,,,,,,,,6,0,6,0,,,,,,,,,,,,,344.3134485000046,,,,,,,,,,,,344.3100786000141,344.8053837000043,,,[],[],,,,,,,,,,,,3.081273600051645,None,,,,,flasche,,,,,Flasche,blass,"['Flasche', 'blass']",test_sub,2,,,,,,344.31000910000876,344.310050399974,"['Uhr', 'Blume', 'Hammer', 'Kamera', 'Tasse', 'Kerze', 'Flasche', 'Schlüssel', 'Stift', 'Buch', 'Kette', 'Telefon', 'Würfel', 'Socke', 'Geige', 'Eimer', 'Vase', 'Ring', 'Jacke', 'Tasche', 'Brille', 'Bürste', 'Hut', 'Lampe', 'Fahrrad', 'Trommel', 'Schere', 'Kiste', 'Rucksack', 'Löffel']",344.8053960999823,344.80798869999126,None,344.80811400001403,344.809594499995,None,344.8097039000131,344.81134569999995,None,344.8114537000074,344.8126539000077,344.81266679998953,0,350.8158877000096,,,,,,,,,,,,,,,,,,,,,,,,,,,,,,,,,,,,,,,,,,,,,,,,2,2023-11-27_11h34.30.477,watkins1,2023.2.3,99.71819640200785,18,2023-11-27 11h34.35.947935 +0000,
,,,,,,,,,,,7,0,7,0,,,,,,,,,,,,,350.8256908999756,,,,,,,,,,,,350.81616889999714,351.3077042999794,,,[],[],,,,,,,,,,,,None,None,,,,,,,,,,Schlüssel,kalt,"['Schlüssel', 'kalt']",restudy,2,,,,,,350.8161025000154,350.81613990000915,"['Uhr', 'Blume', 'Hammer', 'Kamera', 'Tasse', 'Kerze', 'Flasche', 'Schlüssel', 'Stift', 'Buch', 'Kette', 'Telefon', 'Würfel', 'Socke', 'Geige', 'Eimer', 'Vase', 'Ring', 'Jacke', 'Tasche', 'Brille', 'Bürste', 'Hut', 'Lampe', 'Fahrrad', 'Trommel', 'Schere', 'Kiste', 'Rucksack', 'Löffel']",351.30771470000036,351.3105278000003,None,351.3106479999842,357.3209865000099,2,357.3212826999952,357.32396790001076,None,357.32407739997143,357.32528739998816,357.3252989000175,,357.3266067999648,2.164025500009302,None,,,,,,,,,,,,,,,,,,,,,,,,,,,,,,,,,,,,,,,,,,,,,,2,2023-11-27_11h34.30.477,watkins1,2023.2.3,99.71819640200785,18,2023-11-27 11h34.35.947935 +0000,
,,,,,,,,,,,8,0,8,0,,,,,,,,,,,,,357.3304460999789,,,,,,,,,,,,357.3268810000154,357.8224630000186,,,[],[],,,,,,,,,,,,2.126759300008416,None,,,,,stift,,,,,Stift,gepunktet,"['Stift', 'gepunktet']",test_sub,2,,,,,,357.32681749999756,357.32685479999054,"['Uhr', 'Blume', 'Hammer', 'Kamera', 'Tasse', 'Kerze', 'Flasche', 'Schlüssel', 'Stift', 'Buch', 'Kette', 'Telefon', 'Würfel', 'Socke', 'Geige', 'Eimer', 'Vase', 'Ring', 'Jacke', 'Tasche', 'Brille', 'Bürste', 'Hut', 'Lampe', 'Fahrrad', 'Trommel', 'Schere', 'Kiste', 'Rucksack', 'Löffel']",357.82247509999434,357.8250599000021,None,357.82518569997046,357.8265951999929,None,357.8267029999988,357.8281133999699,None,357.8282204999705,357.8293913999805,357.829404100019,0,363.83214680000674,,,,,,,,,,,,,,,,,,,,,,,,,,,,,,,,,,,,,,,,,,,,,,,,2,2023-11-27_11h34.30.477,watkins1,2023.2.3,99.71819640200785,18,2023-11-27 11h34.35.947935 +0000,
,,,,,,,,,,,9,0,9,0,,,,,,,,,,,,,363.84200419997796,,,,,,,,,,,,363.8324272999889,364.32401320000645,,,[],[],,,,,,,,,,,,2.491005000018049,None,,,,,buch,,,,,Buch,durchsichtig,"['Buch', 'durchsichtig']",test_sub,2,,,,,,363.83236230001785,363.83239900000626,"['Uhr', 'Blume', 'Hammer', 'Kamera', 'Tasse', 'Kerze', 'Flasche', 'Schlüssel', 'Stift', 'Buch', 'Kette', 'Telefon', 'Würfel', 'Socke', 'Geige', 'Eimer', 'Vase', 'Ring', 'Jacke', 'Tasche', 'Brille', 'Bürste', 'Hut', 'Lampe', 'Fahrrad', 'Trommel', 'Schere', 'Kiste', 'Rucksack', 'Löffel']",364.32402429997455,364.32663999998476,None,364.3267637999961,364.32920999999624,None,364.32932069996605,364.33178329997463,None,364.33189319999656,364.33293819997925,364.33295060001547,0,370.33807759999763,,,,,,,,,,,,,,,,,,,,,,,,,,,,,,,,,,,,,,,,,,,,,,,,2,2023-11-27_11h34.30.477,watkins1,2023.2.3,99.71819640200785,18,2023-11-27 11h34.35.947935 +0000,
,,,,,,,,,,,10,0,10,0,,,,,,,,,,,,,370.3479861000087,,,,,,,,,,,,370.3383573999745,370.8300728999893,,,[],[],,,,,,,,,,,,None,None,,,,,,,,,,Kette,flach,"['Kette', 'flach']",restudy,2,,,,,,370.3382905999897,370.338328599988,"['Uhr', 'Blume', 'Hammer', 'Kamera', 'Tasse', 'Kerze', 'Flasche', 'Schlüssel', 'Stift', 'Buch', 'Kette', 'Telefon', 'Würfel', 'Socke', 'Geige', 'Eimer', 'Vase', 'Ring', 'Jacke', 'Tasche', 'Brille', 'Bürste', 'Hut', 'Lampe', 'Fahrrad', 'Trommel', 'Schere', 'Kiste', 'Rucksack', 'Löffel']",370.83008420001715,370.8328935999889,None,370.8330145999789,376.83372599998256,1,376.8340181999956,376.83664649998536,None,376.83675700001186,376.8379094999982,376.8379210999701,,376.8393762999913,3.009737899992615,None,,,,,,,,,,,,,,,,,,,,,,,,,,,,,,,,,,,,,,,,,,,,,,2,2023-11-27_11h34.30.477,watkins1,2023.2.3,99.71819640200785,18,2023-11-27 11h34.35.947935 +0000,
,,,,,,,,,,,11,0,11,0,,,,,,,,,,,,,376.8432902999921,,,,,,,,,,,,376.83965759997955,377.33531719999155,,,[],[],,,,,,,,,,,,None,None,,,,,,,,,,Telefon,dunkel,"['Telefon', 'dunkel']",test_sub,2,,,,,,376.8395933000138,376.839630500006,"['Uhr', 'Blume', 'Hammer', 'Kamera', 'Tasse', 'Kerze', 'Flasche', 'Schlüssel', 'Stift', 'Buch', 'Kette', 'Telefon', 'Würfel', 'Socke', 'Geige', 'Eimer', 'Vase', 'Ring', 'Jacke', 'Tasche', 'Brille', 'Bürste', 'Hut', 'Lampe', 'Fahrrad', 'Trommel', 'Schere', 'Kiste', 'Rucksack', 'Löffel']",377.3353280000156,377.3379885000177,None,377.33811119996244,377.3395543000079,None,377.3396628999617,377.34110229997896,None,377.34120839997195,377.34255820000544,377.3425709999865,0,383.34711179998703,,,,,,,,,,,,,,,,,,,,,,,,,,,,,,,,,,,,,,,,,,,,,,,,2,2023-11-27_11h34.30.477,watkins1,2023.2.3,99.71819640200785,18,2023-11-27 11h34.35.947935 +0000,
,,,,,,,,,,,12,0,12,0,,,,,,,,,,,,,383.35701989999507,,,,,,,,,,,,383.3473900000099,383.83900689997245,,,[],[],,,,,,,,,,,,None,None,,,,,,,,,,Würfel,lustig,"['Würfel', 'lustig']",restudy,2,,,,,,383.3473258999875,383.34736119996523,"['Uhr', 'Blume', 'Hammer', 'Kamera', 'Tasse', 'Kerze', 'Flasche', 'Schlüssel', 'Stift', 'Buch', 'Kette', 'Telefon', 'Würfel', 'Socke', 'Geige', 'Eimer', 'Vase', 'Ring', 'Jacke', 'Tasche', 'Brille', 'Bürste', 'Hut', 'Lampe', 'Fahrrad', 'Trommel', 'Schere', 'Kiste', 'Rucksack', 'Löffel']",383.839017899998,383.8416764999856,None,383.8417948000133,389.8451109000016,1,389.8454045999679,389.84806619997835,None,389.8481771000079,389.84934429998975,389.8493562999647,,389.85051580000436,1.5847063999972306,None,,,,,,,,,,,,,,,,,,,,,,,,,,,,,,,,,,,,,,,,,,,,,,2,2023-11-27_11h34.30.477,watkins1,2023.2.3,99.71819640200785,18,2023-11-27 11h34.35.947935 +0000,
,,,,,,,,,,,13,0,13,0,,,,,,,,,,,,,389.85459000000264,,,,,,,,,,,,389.8507978999987,390.3465843999875,,,[],[],,,,,,,,,,,,None,None,,,,,,,,,,Socke,gestreift,"['Socke', 'gestreift']",restudy,2,,,,,,389.8507326999679,389.85077069996623,"['Uhr', 'Blume', 'Hammer', 'Kamera', 'Tasse', 'Kerze', 'Flasche', 'Schlüssel', 'Stift', 'Buch', 'Kette', 'Telefon', 'Würfel', 'Socke', 'Geige', 'Eimer', 'Vase', 'Ring', 'Jacke', 'Tasche', 'Brille', 'Bürste', 'Hut', 'Lampe', 'Fahrrad', 'Trommel', 'Schere', 'Kiste', 'Rucksack', 'Löffel']",390.3465962999617,390.3492651999695,None,390.3493916000007,396.3537916999776,2,396.3540893999743,396.35684239998227,None,396.35695629997645,396.35821679997025,396.3582288000034,,396.35947550000856,4.164959800022189,None,,,,,,,,,,,,,,,,,,,,,,,,,,,,,,,,,,,,,,,,,,,,,,2,2023-11-27_11h34.30.477,watkins1,2023.2.3,99.71819640200785,18,2023-11-27 11h34.35.947935 +0000,
,,,,,,,,,,,14,0,14,0,,,,,,,,,,,,,396.3632501999964,,,,,,,,,,,,396.35975569998845,396.85522389999824,,,[],[],,,,,,,,,,,,None,None,,,,,,,,,,Geige,hübsch,"['Geige', 'hübsch']",test_sub,2,,,,,,396.3596899000113,396.35972850001417,"['Uhr', 'Blume', 'Hammer', 'Kamera', 'Tasse', 'Kerze', 'Flasche', 'Schlüssel', 'Stift', 'Buch', 'Kette', 'Telefon', 'Würfel', 'Socke', 'Geige', 'Eimer', 'Vase', 'Ring', 'Jacke', 'Tasche', 'Brille', 'Bürste', 'Hut', 'Lampe', 'Fahrrad', 'Trommel', 'Schere', 'Kiste', 'Rucksack', 'Löffel']",396.8552358999732,396.85797830001684,None,396.85810499999207,396.85951719997684,None,396.8596271999995,396.861051600019,None,396.8611616999842,396.86231890000636,396.8623316999874,0,402.86660339997616,,,,,,,,,,,,,,,,,,,,,,,,,,,,,,,,,,,,,,,,,,,,,,,,2,2023-11-27_11h34.30.477,watkins1,2023.2.3,99.71819640200785,18,2023-11-27 11h34.35.947935 +0000,
,,,,,,,,,,,15,0,15,0,,,,,,,,,,,,,402.87635869998485,,,,,,,,,,,,402.86688210000284,403.3584904000163,,,[],[],,,,,,,,,,,,None,None,,,,,,,,,,Eimer,schlicht,"['Eimer', 'schlicht']",restudy,2,,,,,,402.86681689997204,402.8668529000133,"['Uhr', 'Blume', 'Hammer', 'Kamera', 'Tasse', 'Kerze', 'Flasche', 'Schlüssel', 'Stift', 'Buch', 'Kette', 'Telefon', 'Würfel', 'Socke', 'Geige', 'Eimer', 'Vase', 'Ring', 'Jacke', 'Tasche', 'Brille', 'Bürste', 'Hut', 'Lampe', 'Fahrrad', 'Trommel', 'Schere', 'Kiste', 'Rucksack', 'Löffel']",403.358502099989,403.3612783999997,None,403.3614019000088,409.36579259997234,3,409.36608259996865,409.36874519998673,None,409.3688563000178,409.37012109998614,409.37013250001473,,409.3713272999739,2.0092176999896765,None,,,,,,,,,,,,,,,,,,,,,,,,,,,,,,,,,,,,,,,,,,,,,,2,2023-11-27_11h34.30.477,watkins1,2023.2.3,99.71819640200785,18,2023-11-27 11h34.35.947935 +0000,
,,,,,,,,,,,16,0,16,0,,,,,,,,,,,,,409.3752302000066,,,,,,,,,,,,409.3716096999706,409.8672249999945,,,[],[],,,,,,,,,,,,None,None,,,,,,,,,,Vase,biegsam,"['Vase', 'biegsam']",restudy,2,,,,,,409.37154229998123,409.37158049998106,"['Uhr', 'Blume', 'Hammer', 'Kamera', 'Tasse', 'Kerze', 'Flasche', 'Schlüssel', 'Stift', 'Buch', 'Kette', 'Telefon', 'Würfel', 'Socke', 'Geige', 'Eimer', 'Vase', 'Ring', 'Jacke', 'Tasche', 'Brille', 'Bürste', 'Hut', 'Lampe', 'Fahrrad', 'Trommel', 'Schere', 'Kiste', 'Rucksack', 'Löffel']",409.8672386999824,409.8698852999951,None,409.8700062999851,415.8713263999671,1,415.8716207999969,415.8742608000175,None,415.874372899998,415.87540550000267,415.8754172999761,,415.8767238999717,1.3886082000099123,None,,,,,,,,,,,,,,,,,,,,,,,,,,,,,,,,,,,,,,,,,,,,,,2,2023-11-27_11h34.30.477,watkins1,2023.2.3,99.71819640200785,18,2023-11-27 11h34.35.947935 +0000,
,,,,,,,,,,,17,0,17,0,,,,,,,,,,,,,415.8807952000061,,,,,,,,,,,,415.8770056999638,416.3728426999878,,,[],[],,,,,,,,,,,,None,None,,,,,,,,,,Ring,groß,"['Ring', 'groß']",restudy,2,,,,,,415.87693979998585,415.8769781999872,"['Uhr', 'Blume', 'Hammer', 'Kamera', 'Tasse', 'Kerze', 'Flasche', 'Schlüssel', 'Stift', 'Buch', 'Kette', 'Telefon', 'Würfel', 'Socke', 'Geige', 'Eimer', 'Vase', 'Ring', 'Jacke', 'Tasche', 'Brille', 'Bürste', 'Hut', 'Lampe', 'Fahrrad', 'Trommel', 'Schere', 'Kiste', 'Rucksack', 'Löffel']",416.3728544000187,416.3754054000019,None,416.3755288000102,422.3770914999768,1,422.3773843999952,422.3798611999955,None,422.3799699000083,422.3809923999943,422.3810039999662,,422.38211299997056,1.5792317999876104,None,,,,,,,,,,,,,,,,,,,,,,,,,,,,,,,,,,,,,,,,,,,,,,2,2023-11-27_11h34.30.477,watkins1,2023.2.3,99.71819640200785,18,2023-11-27 11h34.35.947935 +0000,
,,,,,,,,,,,18,0,18,0,,,,,,,,,,,,,422.38661619997583,,,,,,,,,,,,422.3823897999828,422.87918889999855,,,[],[],,,,,,,,,,,,1.8362741000019014,None,,,,,jacke,,,,,Jacke,elegant,"['Jacke', 'elegant']",test_sub,2,,,,,,422.38232619996415,422.38236350001534,"['Uhr', 'Blume', 'Hammer', 'Kamera', 'Tasse', 'Kerze', 'Flasche', 'Schlüssel', 'Stift', 'Buch', 'Kette', 'Telefon', 'Würfel', 'Socke', 'Geige', 'Eimer', 'Vase', 'Ring', 'Jacke', 'Tasche', 'Brille', 'Bürste', 'Hut', 'Lampe', 'Fahrrad', 'Trommel', 'Schere', 'Kiste', 'Rucksack', 'Löffel']",422.8792000999674,422.88170530000934,None,422.8818249999895,422.88321619998896,None,422.88332409999566,422.8847207999788,None,422.8848252000171,422.88595949998125,422.8859722999623,0,428.88921559997834,,,,,,,,,,,,,,,,,,,,,,,,,,,,,,,,,,,,,,,,,,,,,,,,2,2023-11-27_11h34.30.477,watkins1,2023.2.3,99.71819640200785,18,2023-11-27 11h34.35.947935 +0000,
,,,,,,,,,,,19,0,19,0,,,,,,,,,,,,,428.8990189000033,,,,,,,,,,,,428.889494300005,429.38098369998625,,,[],[],,,,,,,,,,,,None,None,,,,,,,,,,Tasche,zart,"['Tasche', 'zart']",restudy,2,,,,,,428.8894286999712,428.8894656000193,"['Uhr', 'Blume', 'Hammer', 'Kamera', 'Tasse', 'Kerze', 'Flasche', 'Schlüssel', 'Stift', 'Buch', 'Kette', 'Telefon', 'Würfel', 'Socke', 'Geige', 'Eimer', 'Vase', 'Ring', 'Jacke', 'Tasche', 'Brille', 'Bürste', 'Hut', 'Lampe', 'Fahrrad', 'Trommel', 'Schere', 'Kiste', 'Rucksack', 'Löffel']",429.38099480001256,429.38374329998624,None,429.38386509998236,435.39008260000264,1,435.3903767999727,435.39287270000204,None,435.39298030000646,435.3941335999989,435.3941449999693,,435.39545680000447,3.338534700043965,None,,,,,,,,,,,,,,,,,,,,,,,,,,,,,,,,,,,,,,,,,,,,,,2,2023-11-27_11h34.30.477,watkins1,2023.2.3,99.71819640200785,18,2023-11-27 11h34.35.947935 +0000,
,,,,,,,,,,,20,0,20,0,,,,,,,,,,,,,435.3995426999754,,,,,,,,,,,,435.3957309999969,435.89160209998954,,,[],[],,,,,,,,,,,,1.8657373000169173,None,,,,,brille,,,,,Brille,winzig,"['Brille', 'winzig']",test_sub,2,,,,,,435.3956675999798,435.39570489997277,"['Uhr', 'Blume', 'Hammer', 'Kamera', 'Tasse', 'Kerze', 'Flasche', 'Schlüssel', 'Stift', 'Buch', 'Kette', 'Telefon', 'Würfel', 'Socke', 'Geige', 'Eimer', 'Vase', 'Ring', 'Jacke', 'Tasche', 'Brille', 'Bürste', 'Hut', 'Lampe', 'Fahrrad', 'Trommel', 'Schere', 'Kiste', 'Rucksack', 'Löffel']",435.8916143999668,435.89434250001796,None,435.89446589996805,435.89589230000274,None,435.89600329997484,435.89742679998744,None,435.8975349999964,435.89871500001755,435.89872769999783,0,441.90137649996905,,,,,,,,,,,,,,,,,,,,,,,,,,,,,,,,,,,,,,,,,,,,,,,,2,2023-11-27_11h34.30.477,watkins1,2023.2.3,99.71819640200785,18,2023-11-27 11h34.35.947935 +0000,
,,,,,,,,,,,21,0,21,0,,,,,,,,,,,,,441.91112060000887,,,,,,,,,,,,441.9016606999794,442.393061699986,,,[],[],,,,,,,,,,,,None,None,,,,,,,,,,Bürste,niedlich,"['Bürste', 'niedlich']",test_sub,2,,,,,,441.9015948000015,441.9016319999937,"['Uhr', 'Blume', 'Hammer', 'Kamera', 'Tasse', 'Kerze', 'Flasche', 'Schlüssel', 'Stift', 'Buch', 'Kette', 'Telefon', 'Würfel', 'Socke', 'Geige', 'Eimer', 'Vase', 'Ring', 'Jacke', 'Tasche', 'Brille', 'Bürste', 'Hut', 'Lampe', 'Fahrrad', 'Trommel', 'Schere', 'Kiste', 'Rucksack', 'Löffel']",442.3930734000169,442.3958418999682,None,442.3959665999864,442.39853720000247,None,442.39864570001373,442.4011967999977,None,442.40130610001506,442.4024807999958,442.4024932999746,0,448.4085104999831,,,,,,,,,,,,,,,,,,,,,,,,,,,,,,,,,,,,,,,,,,,,,,,,2,2023-11-27_11h34.30.477,watkins1,2023.2.3,99.71819640200785,18,2023-11-27 11h34.35.947935 +0000,
,,,,,,,,,,,22,0,22,0,,,,,,,,,,,,,448.4184036999941,,,,,,,,,,,,448.4087899000151,448.9003098999965,,,[],[],,,,,,,,,,,,None,None,,,,,,,,,,Hut,kaputt,"['Hut', 'kaputt']",restudy,2,,,,,,448.4087244999828,448.408761699975,"['Uhr', 'Blume', 'Hammer', 'Kamera', 'Tasse', 'Kerze', 'Flasche', 'Schlüssel', 'Stift', 'Buch', 'Kette', 'Telefon', 'Würfel', 'Socke', 'Geige', 'Eimer', 'Vase', 'Ring', 'Jacke', 'Tasche', 'Brille', 'Bürste', 'Hut', 'Lampe', 'Fahrrad', 'Trommel', 'Schere', 'Kiste', 'Rucksack', 'Löffel']",448.9003215999692,448.9028873000061,None,448.903011300019,454.90719990001526,2,454.90749249997316,454.91001280001365,None,454.91012839996256,454.9112622999819,454.9112744000158,,454.91243600001326,2.147374899999704,None,,,,,,,,,,,,,,,,,,,,,,,,,,,,,,,,,,,,,,,,,,,,,,2,2023-11-27_11h34.30.477,watkins1,2023.2.3,99.71819640200785,18,2023-11-27 11h34.35.947935 +0000,
,,,,,,,,,,,23,0,23,0,,,,,,,,,,,,,454.9167814999819,,,,,,,,,,,,454.91271519998554,455.4088410999975,,,[],[],,,,,,,,,,,,None,None,,,,,,,,,,Lampe,kratzig,"['Lampe', 'kratzig']",test_sub,2,,,,,,454.9126501000137,454.912688100012,"['Uhr', 'Blume', 'Hammer', 'Kamera', 'Tasse', 'Kerze', 'Flasche', 'Schlüssel', 'Stift', 'Buch', 'Kette', 'Telefon', 'Würfel', 'Socke', 'Geige', 'Eimer', 'Vase', 'Ring', 'Jacke', 'Tasche', 'Brille', 'Bürste', 'Hut', 'Lampe', 'Fahrrad', 'Trommel', 'Schere', 'Kiste', 'Rucksack', 'Löffel']",455.4088522999664,455.4114995999844,None,455.4116208999767,455.41303960001096,None,455.4131476000184,455.4145485999761,None,455.41465589997824,455.4158023999771,455.4158151000156,0,461.41825220000464,,,,,,,,,,,,,,,,,,,,,,,,,,,,,,,,,,,,,,,,,,,,,,,,2,2023-11-27_11h34.30.477,watkins1,2023.2.3,99.71819640200785,18,2023-11-27 11h34.35.947935 +0000,
,,,,,,,,,,,24,0,24,0,,,,,,,,,,,,,461.42815980000887,,,,,,,,,,,,461.41852999996627,461.9101731000119,,,[],[],,,,,,,,,,,,2.199560000037309,4.568991100008134,,,,,,,,,,Fahrrad,krumm,"['Fahrrad', 'krumm']",test_sub,2,,,,,,461.41846590000205,461.41850159998285,"['Uhr', 'Blume', 'Hammer', 'Kamera', 'Tasse', 'Kerze', 'Flasche', 'Schlüssel', 'Stift', 'Buch', 'Kette', 'Telefon', 'Würfel', 'Socke', 'Geige', 'Eimer', 'Vase', 'Ring', 'Jacke', 'Tasche', 'Brille', 'Bürste', 'Hut', 'Lampe', 'Fahrrad', 'Trommel', 'Schere', 'Kiste', 'Rucksack', 'Löffel']",461.91018509998685,461.9130280999816,None,461.91315239999676,461.91571789997397,None,461.9158274999936,461.9183699999703,None,461.9184773999732,461.91965970001183,461.91967229999136,0,467.92457929998636,,,,,,,,,,,,,,,,,,,,,,,,,,,,,,,,,,,,,,,,,,,,,,,,2,2023-11-27_11h34.30.477,watkins1,2023.2.3,99.71819640200785,18,2023-11-27 11h34.35.947935 +0000,
,,,,,,,,,,,25,0,25,0,,,,,,,,,,,,,467.93433149997145,,,,,,,,,,,,467.92486259998986,468.4163237999892,,,[],[],,,,,,,,,,,,5.472460000019055,None,,,,,tr,,,,,Trommel,verspielt,"['Trommel', 'verspielt']",test_sub,2,,,,,,467.9247968000127,467.9248341000057,"['Uhr', 'Blume', 'Hammer', 'Kamera', 'Tasse', 'Kerze', 'Flasche', 'Schlüssel', 'Stift', 'Buch', 'Kette', 'Telefon', 'Würfel', 'Socke', 'Geige', 'Eimer', 'Vase', 'Ring', 'Jacke', 'Tasche', 'Brille', 'Bürste', 'Hut', 'Lampe', 'Fahrrad', 'Trommel', 'Schere', 'Kiste', 'Rucksack', 'Löffel']",468.41633480001474,468.419012999977,None,468.4191350999754,468.4216611000011,None,468.4217700000154,468.42430089996196,None,468.4244114999892,468.42560030001914,468.42561269999715,0,474.4304485999746,,,,,,,,,,,,,,,,,,,,,,,,,,,,,,,,,,,,,,,,,,,,,,,,2,2023-11-27_11h34.30.477,watkins1,2023.2.3,99.71819640200785,18,2023-11-27 11h34.35.947935 +0000,
,,,,,,,,,,,26,0,26,0,,,,,,,,,,,,,474.44023850001395,,,,,,,,,,,,474.4307273000013,474.9223120000097,,,[],[],,,,,,,,,,,,None,None,,,,,,,,,,Schere,glatt,"['Schere', 'glatt']",restudy,2,,,,,,474.43066050001653,474.4306986000156,"['Uhr', 'Blume', 'Hammer', 'Kamera', 'Tasse', 'Kerze', 'Flasche', 'Schlüssel', 'Stift', 'Buch', 'Kette', 'Telefon', 'Würfel', 'Socke', 'Geige', 'Eimer', 'Vase', 'Ring', 'Jacke', 'Tasche', 'Brille', 'Bürste', 'Hut', 'Lampe', 'Fahrrad', 'Trommel', 'Schere', 'Kiste', 'Rucksack', 'Löffel']",474.92232269997476,474.925082199974,None,474.92520529998,480.92670419998467,1,480.92699920001905,480.92962710000575,None,480.929737199971,480.93091190000996,480.9309238999849,,480.9323632000014,2.733111600042321,None,,,,,,,,,,,,,,,,,,,,,,,,,,,,,,,,,,,,,,,,,,,,,,2,2023-11-27_11h34.30.477,watkins1,2023.2.3,99.71819640200785,18,2023-11-27 11h34.35.947935 +0000,
,,,,,,,,,,,27,0,27,0,,,,,,,,,,,,,480.9361685999902,,,,,,,,,,,,480.9326461000019,481.42821939999703,,,[],[],,,,,,,,,,,,None,None,,,,,,,,,,Kiste,sportlich,"['Kiste', 'sportlich']",restudy,2,,,,,,480.9325805999688,480.9326188999694,"['Uhr', 'Blume', 'Hammer', 'Kamera', 'Tasse', 'Kerze', 'Flasche', 'Schlüssel', 'Stift', 'Buch', 'Kette', 'Telefon', 'Würfel', 'Socke', 'Geige', 'Eimer', 'Vase', 'Ring', 'Jacke', 'Tasche', 'Brille', 'Bürste', 'Hut', 'Lampe', 'Fahrrad', 'Trommel', 'Schere', 'Kiste', 'Rucksack', 'Löffel']",481.4282302999636,481.4308093999862,None,481.43093109998154,487.44091890001437,1,487.44121620000806,487.4439553999691,None,487.44406820001313,487.44521410000743,487.4452257999801,,487.44646890001604,1.8836247000144795,None,,,,,,,,,,,,,,,,,,,,,,,,,,,,,,,,,,,,,,,,,,,,,,2,2023-11-27_11h34.30.477,watkins1,2023.2.3,99.71819640200785,18,2023-11-27 11h34.35.947935 +0000,
,,,,,,,,,,,28,0,28,0,,,,,,,,,,,,,487.450396500004,,,,,,,,,,,,487.44676019996405,487.9424185999669,,,[],[],,,,,,,,,,,,None,None,,,,,,,,,,Rucksack,hohl,"['Rucksack', 'hohl']",restudy,2,,,,,,487.4466947999899,487.446732899989,"['Uhr', 'Blume', 'Hammer', 'Kamera', 'Tasse', 'Kerze', 'Flasche', 'Schlüssel', 'Stift', 'Buch', 'Kette', 'Telefon', 'Würfel', 'Socke', 'Geige', 'Eimer', 'Vase', 'Ring', 'Jacke', 'Tasche', 'Brille', 'Bürste', 'Hut', 'Lampe', 'Fahrrad', 'Trommel', 'Schere', 'Kiste', 'Rucksack', 'Löffel']",487.94243039999856,487.94524540001294,None,487.9453711999813,493.94595089997165,2,493.94625520001864,493.9488580999896,None,493.94897179998225,493.95019140001386,493.9502033999888,,493.9512362999958,2.1848197000217624,None,,,,,,,,,,,,,,,,,,,,,,,,,,,,,,,,,,,,,,,,,,,,,,2,2023-11-27_11h34.30.477,watkins1,2023.2.3,99.71819640200785,18,2023-11-27 11h34.35.947935 +0000,
,,,,,,,,,,,29,0,29,0,,,,,,,,,,,,,493.9553901000181,,,,,,,,,,,,493.9515153999673,494.4475361999939,,,[],[],,,,,,,,,,,,5.932097600016277,None,,,,,s,,,,,Löffel,glänzend,"['Löffel', 'glänzend']",test_sub,2,,,,,,493.9514502999955,493.9514884999953,"['Uhr', 'Blume', 'Hammer', 'Kamera', 'Tasse', 'Kerze', 'Flasche', 'Schlüssel', 'Stift', 'Buch', 'Kette', 'Telefon', 'Würfel', 'Socke', 'Geige', 'Eimer', 'Vase', 'Ring', 'Jacke', 'Tasche', 'Brille', 'Bürste', 'Hut', 'Lampe', 'Fahrrad', 'Trommel', 'Schere', 'Kiste', 'Rucksack', 'Löffel']",494.44754749996355,494.45006409997586,None,494.45018489996437,494.4516546999803,None,494.4517669999623,494.453212399967,None,494.45332049997523,494.45464000001084,494.45465259999037,0,500.4572923000087,,,,,,,,,,,,,,,,,,,,,,,,,,,,,,,,,,,,,,,,,,,,,,,,2,2023-11-27_11h34.30.477,watkins1,2023.2.3,99.71819640200785,18,2023-11-27 11h34.35.947935 +0000,
,,,,,,,,,,,,,,,,,,,,,,,,,,,,,,,,,,,,,,,,,,,,,,,,,,,,,,,,,,,,,,,,,,,,,,,2,,,,,,,,,,,,,,,,,,,,,,,,,,,,,,,,,,,,,,,,,,,,,,,,,,,,,,,,,,,,,,,,,,,,,,2,2023-11-27_11h34.30.477,watkins1,2023.2.3,99.71819640200785,18,2023-11-27 11h34.35.947935 +0000,
(6 x 3) + 10 = 27 ,Incorrect,button_incorrect,,,,,,,,,,,,,0,0,0,8,,,,,,,,,540.313120900013,,,,,,,,,,539.2663986000116,540.2700318999705,,,,,['button_incorrect'],[3.7516860000323504],,,,,,,,,,,,,,,,,,,,,,,,,,distractorTask,2,,,,,,,,,,,,,,,,,,,,,,,,,540.2938006999902,540.313120900013,544.0508631999837,[-0.28703703703703703],[-0.37962962962962965],[1],[0],[0],[3.7516860000323504],['button_incorrect'],544.051537899999,545.054577199975,,,,,,,,,,,,,,,,,,,,,,,,,,,,,,,,,,2,2023-11-27_11h34.30.477,watkins1,2023.2.3,99.71819640200785,18,2023-11-27 11h34.35.947935 +0000,
(7 x 6) + 9 = 48 ,Incorrect,button_incorrect,,,,,,,,,,,,,0,1,1,9,,,,,,,,,545.0645243999898,,,,,,,,,,,,,,,,['button_incorrect'],[5.197955499985255],,,,,,,,,,,,,,,,,,,,,,,,,,distractorTask,2,,,,,,,,,,,,,,,,,,,,,,,,,545.0547736000153,545.0645243999898,550.2561398000107,[-0.30277777777777776],[-0.41944444444444445],[1],[0],[0],[5.197955499985255],['button_incorrect'],550.2565551999724,551.259657699964,,,,,,,,,,,,,,,,,,,,,,,,,,,,,,,,,,2,2023-11-27_11h34.30.477,watkins1,2023.2.3,99.71819640200785,18,2023-11-27 11h34.35.947935 +0000,
(54 : 6) - 10 = 0 ,Incorrect,button_incorrect,,,,,,,,,,,,,0,2,2,5,,,,,,,,,551.2697342999745,,,,,,,,,,,,,,,,['button_incorrect'],[5.470514099986758],,,,,,,,,,,,,,,,,,,,,,,,,,distractorTask,2,,,,,,,,,,,,,,,,,,,,,,,,,551.2598484000191,551.2697342999745,556.7330974999932,[-0.30277777777777776],[-0.3768518518518518],[1],[0],[0],[5.470514099986758],['button_incorrect'],556.7334715999896,557.736799700011,,,,,,,,,,,,,,,,,,,,,,,,,,,,,,,,,,2,2023-11-27_11h34.30.477,watkins1,2023.2.3,99.71819640200785,18,2023-11-27 11h34.35.947935 +0000,
(9 x 5) - 9 = 36 ,Correct,button_correct,,,,,,,,,,,,,0,3,3,4,,,,,,,,,557.746799000015,,,,,,,,,,,,,,,,['button_correct'],[5.301048399996944],,,,,,,,,,,,,,,,,,,,,,,,,,distractorTask,2,,,,,,,,,,,,,,,,,,,,,,,,,557.7369902000064,557.746799000015,563.0397748000105,[0.3416666666666667],[-0.41388888888888886],[1],[0],[0],[5.301048399996944],['button_correct'],563.040151299967,564.0425541999866,,,,,,,,,,,,,,,,,,,,,,,,,,,,,,,,,,2,2023-11-27_11h34.30.477,watkins1,2023.2.3,99.71819640200785,18,2023-11-27 11h34.35.947935 +0000,
(40 : 5) + 8 = 15 ,Incorrect,button_incorrect,,,,,,,,,,,,,0,4,4,7,,,,,,,,,564.0525291999802,,,,,,,,,,,,,,,,['button_incorrect'],[8.513414800050668],,,,,,,,,,,,,,,,,,,,,,,,,,distractorTask,2,,,,,,,,,,,,,,,,,,,,,,,,,564.0427513999748,564.0525291999802,572.5578817999922,[-0.28888888888888886],[-0.4074074074074074],[1],[0],[0],[8.513414800050668],['button_incorrect'],572.5582571999985,573.5614080000087,,,,,,,,,,,,,,,,,,,,,,,,,,,,,,,,,,2,2023-11-27_11h34.30.477,watkins1,2023.2.3,99.71819640200785,18,2023-11-27 11h34.35.947935 +0000,
(4 : 2) + 4 = 6 ,Correct,button_correct,,,,,,,,,,,,,0,5,5,1,,,,,,,,,573.5714405999752,,,,,,,,,,,,,,,,['button_correct'],[2.2576093999668956],,,,,,,,,,,,,,,,,,,,,,,,,,distractorTask,2,,,,,,,,,,,,,,,,,,,,,,,,,573.5615954999812,573.5714405999752,575.8210401000106,[0.3472222222222222],[-0.39814814814814814],[1],[0],[0],[2.2576093999668956],['button_correct'],575.8214184999815,576.8248108999687,,,,,,,,,,,,,,,,,,,,,,,,,,,,,,,,,,2,2023-11-27_11h34.30.477,watkins1,2023.2.3,99.71819640200785,18,2023-11-27 11h34.35.947935 +0000,
(25 : 5) + 5 = 9 ,Incorrect,button_incorrect,,,,,,,,,,,,,0,6,6,6,,,,,,,,,576.8352526999661,,,,,,,,,,,,,,,,['button_incorrect'],[2.9804360999842174],,,,,,,,,,,,,,,,,,,,,,,,,,distractorTask,2,,,,,,,,,,,,,,,,,,,,,,,,,576.8250206999946,576.8352526999661,579.8073337000096,[-0.41574074074074074],[-0.4064814814814815],[1],[0],[0],[2.9804360999842174],['button_incorrect'],579.8077039999771,580.8110456999857,,,,,,,,,,,,,,,,,,,,,,,,,,,,,,,,,,2,2023-11-27_11h34.30.477,watkins1,2023.2.3,99.71819640200785,18,2023-11-27 11h34.35.947935 +0000,
(2 x 5) + 3 = 13 ,Correct,button_correct,,,,,,,,,,,,,0,7,7,2,,,,,,,,,580.8210259000189,,,,,,,,,,,,,,,,['button_correct'],[2.558872000023257],,,,,,,,,,,,,,,,,,,,,,,,,,distractorTask,2,,,,,,,,,,,,,,,,,,,,,,,,,580.8112335000187,580.8210259000189,583.3717818000005,[0.41203703703703703],[-0.387037037037037],[1],[0],[0],[2.558872000023257],['button_correct'],583.3721603999729,584.3754315999686,,,,,,,,,,,,,,,,,,,,,,,,,,,,,,,,,,2,2023-11-27_11h34.30.477,watkins1,2023.2.3,99.71819640200785,18,2023-11-27 11h34.35.947935 +0000,
(80 : 10) + 9 = 17 ,Correct,button_correct,,,,,,,,,,,,,0,8,8,3,,,,,,,,,584.3854019999853,,,,,,,,,,,,,,,,['button_correct'],[3.4232681000139564],,,,,,,,,,,,,,,,,,,,,,,,,,distractorTask,2,,,,,,,,,,,,,,,,,,,,,,,,,584.3756227999693,584.3854019999853,587.8007257999852,[0.3398148148148148],[-0.41203703703703703],[1],[0],[0],[3.4232681000139564],['button_correct'],587.8010996999801,588.8039133999846,,,,,,,,,,,,,,,,,,,,,,,,,,,,,,,,,,2,2023-11-27_11h34.30.477,watkins1,2023.2.3,99.71819640200785,18,2023-11-27 11h34.35.947935 +0000,
(28 : 7) - 3 = 1 ,Correct,button_correct,,,,,,,,,,,,,0,9,9,0,,,,,,,,,588.8139669999946,,,,,,,,,,,,,,,,['button_incorrect'],[8.905306400032714],,,,,,,,,,,,,,,,,,,,,,,,,,distractorTask,2,,,,,,,,,,,,,,,,,,,,,,,,,588.8041029999731,588.8139669999946,597.7111282999977,[-0.3537037037037037],[-0.3851851851851852],[1],[0],[0],[8.905306400032714],['button_incorrect'],597.7115167999873,598.7148651999887,,,,,,,,,,,,,,,,,,,,,,,,,,,,,,,,,,2,2023-11-27_11h34.30.477,watkins1,2023.2.3,99.71819640200785,18,2023-11-27 11h34.35.947935 +0000,
,,,,,,,,,,,,,,,,,,,,,,,,,,,,,,,,,,,,,,,,,,,,,,,,,,,,,,,,,,,,,,,,,,,,,,,2,,,,,,,,,,,,,,,,,,,,,,,,,,,,,,,,,,,,,,,,,,,,,,,,,,,,,,,,,,,,,,,,,,,,,,2,2023-11-27_11h34.30.477,watkins1,2023.2.3,99.71819640200785,18,2023-11-27 11h34.35.947935 +0000,
,,,,,,,,,,,,,,,,,,,0,0,0,0,,,,,624.105615700013,,,,,,,,,,,,,,,,Fahrrad,10.516533599991817,,,,,,,,,,,,5.541975600004662,None,,,,,,,,,,,,,freeRecallSub,2,,,,,,,,,,,,,,,,,,,,,,,,,,,,,,,,,,,,,624.0967238000012,624.105615700013,624.105615700013,634.6287101999624,return,10.516533599991817,None,Fahrrad,[-0.09259259259259259],[0.044444444444444446],[1],[0],[0],[1.8666808999842033],[],,,,,,,,,,,,,,,,,,,2,2023-11-27_11h34.30.477,watkins1,2023.2.3,99.71819640200785,18,2023-11-27 11h34.35.947935 +0000,
,,,,,,,,,,,,,,,,,,,1,0,1,0,,,,,634.6407922999933,,,,,,,,,,,,,,,,Blume,4.0373037999961525,,,,,,,,,,,,1.6685010999790393,None,,,,,,,,,,,,,freeRecallSub,2,,,,,,,,,,,,,,,,,,,,,,,,,,,,,,,,,,,,,634.6305035999976,634.6407922999933,634.6407922999933,638.6790742999874,return,4.0373037999961525,None,Blume,[],[],[],[],[],[],[],,,,,,,,,,,,,,,,,,,2,2023-11-27_11h34.30.477,watkins1,2023.2.3,99.71819640200785,18,2023-11-27 11h34.35.947935 +0000,
,,,,,,,,,,,,,,,,,,,2,0,2,0,,,,,638.6902769000153,,,,,,,,,,,,,,,,Vase,5.115855499985628,,,,,,,,,,,,1.5982179999700747,2.974242399970535,,,,,,,,,,,,,freeRecallSub,2,,,,,,,,,,,,,,,,,,,,,,,,,,,,,,,,,,,,,638.6803043999826,638.6902769000153,638.6902769000153,643.8130256999866,return,5.115855499985628,None,Vase,[],[],[],[],[],[],[],,,,,,,,,,,,,,,,,,,2,2023-11-27_11h34.30.477,watkins1,2023.2.3,99.71819640200785,18,2023-11-27 11h34.35.947935 +0000,
,,,,,,,,,,,,,,,,,,,3,0,3,0,,,,,643.8236877999734,,,,,,,,,,,,,,,,Tasse,6.246582599997055,,,,,,,,,,,,3.8353032000013627,None,,,,,,,,,,,,,freeRecallSub,2,,,,,,,,,,,,,,,,,,,,,,,,,,,,,,,,,,,,,643.8142685999628,643.8236877999734,643.8236877999734,650.079353899986,return,6.246582599997055,None,Tasse,[],[],[],[],[],[],[],,,,,,,,,,,,,,,,,,,2,2023-11-27_11h34.30.477,watkins1,2023.2.3,99.71819640200785,18,2023-11-27 11h34.35.947935 +0000,
,,,,,,,,,,,,,,,,,,,4,0,4,0,,,,,650.0899568999885,,,,,,,,,,,,,,,,Jacke,9.620257500035223,,,,,,,,,,,,1.866949699993711,6.16413609997835,,,,,,,,,,,,,freeRecallSub,2,,,,,,,,,,,,,,,,,,,,,,,,,,,,,,,,,,,,,650.080611500016,650.0899568999885,650.0899568999885,659.7188376999693,return,9.620257500035223,None,Jacke,[],[],[],[],[],[],[],,,,,,,,,,,,,,,,,,,2,2023-11-27_11h34.30.477,watkins1,2023.2.3,99.71819640200785,18,2023-11-27 11h34.35.947935 +0000,
,,,,,,,,,,,,,,,,,,,5,0,5,0,,,,,659.7299818000174,,,,,,,,,,,,,,,,Uhr,1.7642068999703042,,,,,,,,,,,,0.5325771999778226,None,,,,,,,,,,,,,freeRecallSub,2,,,,,,,,,,,,,,,,,,,,,,,,,,,,,,,,,,,,,659.7200938999886,659.7299818000174,659.7299818000174,661.4978239999618,return,1.7642068999703042,None,Uhr,[],[],[],[],[],[],[],,,,,,,,,,,,,,,,,,,2,2023-11-27_11h34.30.477,watkins1,2023.2.3,99.71819640200785,18,2023-11-27 11h34.35.947935 +0000,
,,,,,,,,,,,,,,,,,,,6,0,6,0,,,,,661.5089166999678,,,,,,,,,,,,,,,,Kerze,6.521216099965386,,,,,,,,,,,,4.598890799970832,None,,,,,,,,,,,,,freeRecallSub,2,,,,,,,,,,,,,,,,,,,,,,,,,,,,,,,,,,,,,661.4990656999871,661.5089166999678,661.5089166999678,668.0356970999856,return,6.521216099965386,None,Kerze,[],[],[],[],[],[],[],,,,,,,,,,,,,,,,,,,2,2023-11-27_11h34.30.477,watkins1,2023.2.3,99.71819640200785,18,2023-11-27 11h34.35.947935 +0000,
,,,,,,,,,,,,,,,,,,,7,0,7,0,,,,,668.0473507000133,,,,,,,,,,,,,,,,Brille,14.0468142000027,,,,,,,,,,,,11.207023700000718,None,,,,,,,,,,,,,freeRecallSub,2,,,,,,,,,,,,,,,,,,,,,,,,,,,,,,,,,,,,,668.0369455000036,668.0473507000133,668.0473507000133,682.0959916000138,return,14.0468142000027,None,Brille,[],[],[],[],[],[],[],,,,,,,,,,,,,,,,,,,2,2023-11-27_11h34.30.477,watkins1,2023.2.3,99.71819640200785,18,2023-11-27 11h34.35.947935 +0000,
,,,,,,,,,,,,,,,,,,,8,0,8,0,,,,,682.1077547000023,,,,,,,,,,,,,,,,Schere,13.050351099984255,,,,,,,,,,,,11.127110000001267,None,,,,,,,,,,,,,freeRecallSub,2,,,,,,,,,,,,,,,,,,,,,,,,,,,,,,,,,,,,,682.0972425999935,682.1077547000023,682.1077547000023,695.1622583999997,return,13.050351099984255,None,Schere,[],[],[],[],[],[],[],,,,,,,,,,,,,,,,,,,2,2023-11-27_11h34.30.477,watkins1,2023.2.3,99.71819640200785,18,2023-11-27 11h34.35.947935 +0000,
,,,,,,,,,,,,,,,,,,,9,0,9,0,,,,,695.174386699975,,,,,,,,,,,,,,,,Trompete,16.759801399952266,,,,,,,,,,,,8.215819199976977,10.816224599955603,,,,,,,,,,,,,freeRecallSub,2,,,,,,,,,,,,,,,,,,,,,,,,,,,,,,,,,,,,,695.1638421000098,695.174386699975,695.174386699975,711.9440487999818,return,16.759801399952266,None,Trompete,[],[],[],[],[],[],[],,,,,,,,,,,,,,,,,,,2,2023-11-27_11h34.30.477,watkins1,2023.2.3,99.71819640200785,18,2023-11-27 11h34.35.947935 +0000,
,,,,,,,,,,,,,,,,,,,10,0,10,0,,,,,711.9564209000091,,,,,,,,,,,,,,,,Geige,6.5297291000024416,,,,,,,,,,,,4.852316099975724,None,,,,,,,,,,,,,freeRecallSub,2,,,,,,,,,,,,,,,,,,,,,,,,,,,,,,,,,,,,,711.9453217000118,711.9564209000091,711.9564209000091,718.4944793999894,return,6.5297291000024416,None,Geige,[],[],[],[],[],[],[],,,,,,,,,,,,,,,,,,,2,2023-11-27_11h34.30.477,watkins1,2023.2.3,99.71819640200785,18,2023-11-27 11h34.35.947935 +0000,
,,,,,,,,,,,,,,,,,,,11,0,11,0,,,,,718.5067776999786,,,,,,,,,,,,,,,,Ring,18.379267199954484,,,,,,,,,,,,16.328297699976247,None,,,,,,,,,,,,,freeRecallSub,2,,,,,,,,,,,,,,,,,,,,,,,,,,,,,,,,,,,,,718.4957169999834,718.5067776999786,718.5067776999786,736.8926510000019,return,18.379267199954484,None,Ring,[],[],[],[],[],[],[],,,,,,,,,,,,,,,,,,,2,2023-11-27_11h34.30.477,watkins1,2023.2.3,99.71819640200785,18,2023-11-27 11h34.35.947935 +0000,
,,,,,,,,,,,,,,,,,,,12,0,12,0,,,,,736.9054009999963,,,,,,,,,,,,,,,,Flasche,47.94854630000191,,,,,,,,,,,,44.37231479998445,45.617418799956795,,,,,,,,,,,,,freeRecallSub,2,,,,,,,,,,,,,,,,,,,,,,,,,,,,,,,,,,,,,736.8938849999686,736.9054009999963,736.9054009999963,784.8607857999741,return,47.94854630000191,None,Flasche,[],[],[],[],[],[],[],,,,,,,,,,,,,,,,,,,2,2023-11-27_11h34.30.477,watkins1,2023.2.3,99.71819640200785,18,2023-11-27 11h34.35.947935 +0000,
,,,,,,,,,,,,,,,,,,,13,0,13,0,,,,,784.8734497000114,,,,,,,,,,,,,,,,Buch,4.724552100000437,,,,,,,,,,,,3.2667603999725543,None,,,,,,,,,,,,,freeRecallSub,2,,,,,,,,,,,,,,,,,,,,,,,,,,,,,,,,,,,,,784.8620335999876,784.8734497000114,784.8734497000114,789.604645400017,return,4.724552100000437,None,Buch,[],[],[],[],[],[],[],,,,,,,,,,,,,,,,,,,2,2023-11-27_11h34.30.477,watkins1,2023.2.3,99.71819640200785,18,2023-11-27 11h34.35.947935 +0000,
,,,,,,,,,,,,,,,,,,,14,0,14,0,,,,,789.617191599973,,,,,,,,,,,,,,,,Tasche,27.796691499999724,,,,,,,,,,,,25.897504699998535,None,,,,,,,,,,,,,freeRecallSub,2,,,,,,,,,,,,,,,,,,,,,,,,,,,,,,,,,,,,,789.6058907000115,789.617191599973,789.617191599973,817.4212908999762,return,27.796691499999724,None,Tasche,[],[],[],[],[],[],[],,,,,,,,,,,,,,,,,,,2,2023-11-27_11h34.30.477,watkins1,2023.2.3,99.71819640200785,18,2023-11-27 11h34.35.947935 +0000,
,,,,,,,,,,,,,,,,,,,15,0,15,0,,,,,817.4341639999766,,,,,,,,,,,,,,,,Rucksack,4.171766700048465,,,,,,,,,,,,0.6164114999701269,None,,,,,,,,,,,,,freeRecallSub,2,,,,,,,,,,,,,,,,,,,,,,,,,,,,,,,,,,,,,817.4225717000081,817.4341639999766,817.4341639999766,821.6132676000125,return,4.171766700048465,None,Rucksack,[],[],[],[],[],[],[],,,,,,,,,,,,,,,,,,,2,2023-11-27_11h34.30.477,watkins1,2023.2.3,99.71819640200785,18,2023-11-27 11h34.35.947935 +0000,
,,,,,,,,,,,,,,,,,,,16,0,16,0,,,,,821.6263391000102,,,,,,,,,,,,,,,,,[],,,,,,,,,,,,None,None,,,,,,,,,,,,,freeRecallSub,2,,,,,,,,,,,,,,,,,,,,,,,,,,,,,,,,,,,,,821.6145295000169,821.6263391000102,821.6263391000102,888.0578605000046,None,,,,[0.4287037037037037],[-0.41388888888888886],[1],[0],[0],[66.43772320001153],"['button_continue', 'continue_text']",,,,,,,,,,,,,,,,,,,2,2023-11-27_11h34.30.477,watkins1,2023.2.3,99.71819640200785,18,2023-11-27 11h34.35.947935 +0000,
,,,,,,,,,,,,,,,,,,,,,,,,,,,,,,,,,,,,,,,,,,,,,,,,,,,,,,,,,,,,,,,,,,,,,,,2,,,,,,,,,,,,,,,,,,,,,,,,,,,,,,,,,,,,,,,,,,,,,,,,,,,,,,,,,,,,,,,,,,,,,,2,2023-11-27_11h34.30.477,watkins1,2023.2.3,99.71819640200785,18,2023-11-27 11h34.35.947935 +0000,
,,,,,,,,,,,,,,,,,,,,,,,0,0,0,0,899.2335444999626,,,,,,,,,,,,909.1071117999963,909.6057998000178,,,,9.868239699979313,,,,,,,,,,,,None,None,,,,,,,,,,Hammer,,,cuedRecallAdj,2,,,,,,,,,,,,,,,,,,,,,0,,,,,,,,,,,,,,,,,,,,,,,,,,,,,,,899.224593699968,899.2335444999626,899.2335444999626,909.1039439999731,lang,return,9.868239699979313,None,909.1043439999921,909.1135357000167,909.1135357000167,909.1069617000176,,None,,,,,2,2023-11-27_11h34.30.477,watkins1,2023.2.3,99.71819640200785,18,2023-11-27 11h34.35.947935 +0000,
,,,,,,,,,,,,,,,,,,,,,,,1,0,1,0,909.6157498999964,,,,,,,,,,,,917.6816527000046,918.1801990999957,,,,8.05393560003722,,,,,,,,,,,,None,None,,,,,,,,,,Socke,,,cuedRecallAdj,2,,,,,,,,,,,,,,,,,,,,,0,,,,,,,,,,,,,,,,,,,,,,,,,,,,,,,909.6060381999705,909.6157498999964,909.6157498999964,917.6785685999785,gestreift,return,8.05393560003722,None,917.6788325000089,917.6882758999709,917.6882758999709,917.68155139999,,None,,,,,2,2023-11-27_11h34.30.477,watkins1,2023.2.3,99.71819640200785,18,2023-11-27 11h34.35.947935 +0000,
,,,,,,,,,,,,,,,,,,,,,,,2,0,2,0,918.1902513999958,,,,,,,,,,,,921.4565466999775,921.9554768999806,,,,3.2554170999792404,,,,,,,,,,,,None,None,,,,,,,,,,Uhr,,,cuedRecallAdj,2,,,,,,,,,,,,,,,,,,,,,0,,,,,,,,,,,,,,,,,,,,,,,,,,,,,,,918.180436900002,918.1902513999958,918.1902513999958,921.4536572999787,kruzlctrl,return,3.2554170999792404,None,921.4539226999623,921.4634675999987,921.4634675999987,921.456442900002,,None,,,,,2,2023-11-27_11h34.30.477,watkins1,2023.2.3,99.71819640200785,18,2023-11-27 11h34.35.947935 +0000,
,,,,,,,,,,,,,,,,,,,,,,,3,0,3,0,921.965427899966,,,,,,,,,,,,929.2483122000122,929.7467942999792,,,,7.27219339995645,,,,,,,,,,,,None,None,,,,,,,,,,Stift,,,cuedRecallAdj,2,,,,,,,,,,,,,,,,,,,,,0,,,,,,,,,,,,,,,,,,,,,,,,,,,,,,,921.9557222999865,921.965427899966,921.965427899966,929.2450850000023,gepunktet,return,7.27219339995645,None,929.2453517999966,929.2548091000062,929.2548091000062,929.2482099999906,,None,,,,,2,2023-11-27_11h34.30.477,watkins1,2023.2.3,99.71819640200785,18,2023-11-27 11h34.35.947935 +0000,
,,,,,,,,,,,,,,,,,,,,,,,4,0,4,0,929.7567754999618,,,,,,,,,,,,932.2906408999697,932.7893470000126,,,,2.5289449999690987,,,,,,,,,,,,None,None,,,,,,,,,,Rucksack,,,cuedRecallAdj,2,,,,,,,,,,,,,,,,,,,,,0,,,,,,,,,,,,,,,,,,,,,,,,,,,,,,,929.747038499976,929.7567754999618,929.7567754999618,932.2877431999659,hohl,return,2.5289449999690987,None,932.2880087000085,932.297266700014,932.297266700014,932.2905394000118,,None,,,,,2,2023-11-27_11h34.30.477,watkins1,2023.2.3,99.71819640200785,18,2023-11-27 11h34.35.947935 +0000,
,,,,,,,,,,,,,,,,,,,,,,,5,0,5,0,932.7992919000098,,,,,,,,,,,,947.542471599998,948.0411228999728,,,,14.734325099969283,,,,,,,,,,,,None,None,,,,,,,,,,Bürste,,,cuedRecallAdj,2,,,,,,,,,,,,,,,,,,,,,0,,,,,,,,,,,,,,,,,,,,,,,,,,,,,,,932.7895884999889,932.7992919000098,932.7992919000098,947.539447499963,niedlich,return,14.734325099969283,None,947.5397123000002,947.5491023999639,947.5491023999639,947.5423707999871,,None,,,,,2,2023-11-27_11h34.30.477,watkins1,2023.2.3,99.71819640200785,18,2023-11-27 11h34.35.947935 +0000,
,,,,,,,,,,,,,,,,,,,,,,,6,0,6,0,948.0511630999972,,,,,,,,,,,,951.2373092999915,951.7359234999749,,,,3.178482300019823,,,,,,,,,,,,None,None,,,,,,,,,,Jacke,,,cuedRecallAdj,2,,,,,,,,,,,,,,,,,,,,,0,,,,,,,,,,,,,,,,,,,,,,,,,,,,,,,948.0413667999674,948.0511630999972,948.0511630999972,951.234297499992,elegant,return,3.178482300019823,None,951.2345615999657,951.2438547000056,951.2438547000056,951.2372076999745,,None,,,,,2,2023-11-27_11h34.30.477,watkins1,2023.2.3,99.71819640200785,18,2023-11-27 11h34.35.947935 +0000,
,,,,,,,,,,,,,,,,,,,,,,,7,0,7,0,951.7458198000095,,,,,,,,,,,,953.8478644000133,954.3465858999989,,,,2.0919843000010587,,,,,,,,,,,,None,None,,,,,,,,,,Kamera,,,cuedRecallAdj,2,,,,,,,,,,,,,,,,,,,,,0,,,,,,,,,,,,,,,,,,,,,,,,,,,,,,,951.7361690999824,951.7458198000095,951.7458198000095,953.8449939999846,neu,return,2.0919843000010587,None,953.8452584000188,953.8545876999851,953.8545876999851,953.8477644000086,,None,,,,,2,2023-11-27_11h34.30.477,watkins1,2023.2.3,99.71819640200785,18,2023-11-27 11h34.35.947935 +0000,
,,,,,,,,,,,,,,,,,,,,,,,8,0,8,0,954.3565366999828,,,,,,,,,,,,958.6573821000056,959.1559361999971,,,,4.289105000032578,,,,,,,,,,,,None,None,,,,,,,,,,Brille,,,cuedRecallAdj,2,,,,,,,,,,,,,,,,,,,,,0,,,,,,,,,,,,,,,,,,,,,,,,,,,,,,,954.3468275999767,954.3565366999828,954.3565366999828,958.6542219999828,winzig,return,4.289105000032578,None,958.6544846000033,958.6639518999727,958.6639518999727,958.6572800999857,,None,,,,,2,2023-11-27_11h34.30.477,watkins1,2023.2.3,99.71819640200785,18,2023-11-27 11h34.35.947935 +0000,
,,,,,,,,,,,,,,,,,,,,,,,9,0,9,0,959.1659878999926,,,,,,,,,,,,963.9291354999878,964.4271924999775,,,,4.759763900015969,,,,,,,,,,,,None,None,,,,,,,,,,Hut,,,cuedRecallAdj,2,,,,,,,,,,,,,,,,,,,,,0,,,,,,,,,,,,,,,,,,,,,,,,,,,,,,,959.1561793999863,959.1659878999926,959.1659878999926,963.926142900018,kaputt,return,4.759763900015969,None,963.9264257000177,963.9353993000113,963.9353993000113,963.9290276999818,,None,,,,,2,2023-11-27_11h34.30.477,watkins1,2023.2.3,99.71819640200785,18,2023-11-27 11h34.35.947935 +0000,
,,,,,,,,,,,,,,,,,,,,,,,10,0,10,0,964.437189899967,,,,,,,,,,,,969.6414057000075,970.1403640999924,,,,5.192385400005151,,,,,,,,,,,,None,None,,,,,,,,,,Tasse,,,cuedRecallAdj,2,,,,,,,,,,,,,,,,,,,,,0,,,,,,,,,,,,,,,,,,,,,,,,,,,,,,,964.4274368999759,964.437189899967,964.437189899967,969.6384779000073,robust,return,5.192385400005151,None,969.6387352999882,969.6482531999936,969.6482531999936,969.641304299992,,None,,,,,2,2023-11-27_11h34.30.477,watkins1,2023.2.3,99.71819640200785,18,2023-11-27 11h34.35.947935 +0000,
,,,,,,,,,,,,,,,,,,,,,,,11,0,11,0,970.1502686999738,,,,,,,,,,,,972.7743117999635,973.2730542999925,,,,2.6153612000052817,,,,,,,,,,,,None,None,,,,,,,,,,Würfel,,,cuedRecallAdj,2,,,,,,,,,,,,,,,,,,,,,0,,,,,,,,,,,,,,,,,,,,,,,,,,,,,,,970.1406099000014,970.1502686999738,970.1502686999738,972.7714667000109,neu,return,2.6153612000052817,None,972.7717384999851,972.7809815999935,972.7809815999935,972.7742109000101,,None,,,,,2,2023-11-27_11h34.30.477,watkins1,2023.2.3,99.71819640200785,18,2023-11-27 11h34.35.947935 +0000,
,,,,,,,,,,,,,,,,,,,,,,,12,0,12,0,973.2830189999659,,,,,,,,,,,,977.6943302999716,978.1929347999976,,,,4.402589200006332,,,,,,,,,,,,None,None,,,,,,,,,,Blume,,,cuedRecallAdj,2,,,,,,,,,,,,,,,,,,,,,0,,,,,,,,,,,,,,,,,,,,,,,,,,,,,,,973.2732974999817,973.2830189999659,973.2830189999659,977.6912495999713,rustikal,return,4.402589200006332,None,977.6915181999793,977.7007912999834,977.7007912999834,977.6942258999916,,None,,,,,2,2023-11-27_11h34.30.477,watkins1,2023.2.3,99.71819640200785,18,2023-11-27 11h34.35.947935 +0000,
,,,,,,,,,,,,,,,,,,,,,,,13,0,13,0,978.2028815000085,,,,,,,,,,,,984.9334515999653,985.4319748000125,,,,6.7227036000113,,,,,,,,,,,,None,None,,,,,,,,,,Buch,,,cuedRecallAdj,2,,,,,,,,,,,,,,,,,,,,,0,,,,,,,,,,,,,,,,,,,,,,,,,,,,,,,978.1931789999944,978.2028815000085,978.2028815000085,984.9304212999996,durchsichtig,return,6.7227036000113,None,984.9306870999862,984.939911399968,984.939911399968,984.9333493000013,,None,,,,,2,2023-11-27_11h34.30.477,watkins1,2023.2.3,99.71819640200785,18,2023-11-27 11h34.35.947935 +0000,
,,,,,,,,,,,,,,,,,,,,,,,14,0,14,0,985.4419134999625,,,,,,,,,,,,989.421210200002,989.9200294999755,,,,3.971649599960074,,,,,,,,,,,,None,None,,,,,,,,,,Kette,,,cuedRecallAdj,2,,,,,,,,,,,,,,,,,,,,,0,,,,,,,,,,,,,,,,,,,,,,,,,,,,,,,985.4322172999964,985.4419134999625,985.4419134999625,989.4182875999832,flach,return,3.971649599960074,None,989.4185543999774,989.4279021999682,989.4279021999682,989.421110299998,,None,,,,,2,2023-11-27_11h34.30.477,watkins1,2023.2.3,99.71819640200785,18,2023-11-27 11h34.35.947935 +0000,
,,,,,,,,,,,,,,,,,,,,,,,15,0,15,0,989.9299784000032,,,,,,,,,,,,993.5184082000051,994.0169903999777,,,,3.579607699997723,,,,,,,,,,,,None,None,,,,,,,,,,Fahrrad,,,cuedRecallAdj,2,,,,,,,,,,,,,,,,,,,,,0,,,,,,,,,,,,,,,,,,,,,,,,,,,,,,,989.920269299997,989.9299784000032,989.9299784000032,993.5154323999886,krumm,return,3.579607699997723,None,993.5156970999669,993.5249455000157,993.5249455000157,993.5183076999965,,None,,,,,2,2023-11-27_11h34.30.477,watkins1,2023.2.3,99.71819640200785,18,2023-11-27 11h34.35.947935 +0000,
,,,,,,,,,,,,,,,,,,,,,,,16,0,16,0,994.0269018000108,,,,,,,,,,,,1001.6622509000008,1002.160842799989,,,,7.626676900021266,,,,,,,,,,,,None,None,,,,,,,,,,Schere,,,cuedRecallAdj,2,,,,,,,,,,,,,,,,,,,,,0,,,,,,,,,,,,,,,,,,,,,,,,,,,,,,,994.0172346999752,994.0269018000108,994.0269018000108,1001.6594016000163,matt,return,7.626676900021266,None,1001.6596707999706,1001.6688574000145,1001.6688574000145,1001.6621495999862,,None,,,,,2,2023-11-27_11h34.30.477,watkins1,2023.2.3,99.71819640200785,18,2023-11-27 11h34.35.947935 +0000,
,,,,,,,,,,,,,,,,,,,,,,,17,0,17,0,1002.1708891000017,,,,,,,,,,,,1047.3675201999722,1047.8569501999882,,,,45.18650319997687,,,,,,,,,,,,None,None,,,,,,,,,,Tasche,,,cuedRecallAdj,2,,,,,,,,,,,,,,,,,,,,,0,,,,,,,,,,,,,,,,,,,,,,,,,,,,,,,1002.1610808999976,1002.1708891000017,1002.1708891000017,1047.365232800017,,return,45.18650319997687,None,1047.3655047999928,1047.3748891999712,1047.3748891999712,1047.3674196999636,,None,,,,,2,2023-11-27_11h34.30.477,watkins1,2023.2.3,99.71819640200785,18,2023-11-27 11h34.35.947935 +0000,
,,,,,,,,,,,,,,,,,,,,,,,18,0,18,0,1047.8669143000152,,,,,,,,,,,,1054.6581209999858,1055.1569490999682,,,,6.7865737999673,,,,,,,,,,,,None,None,,,,,,,,,,Kerze,,,cuedRecallAdj,2,,,,,,,,,,,,,,,,,,,,,0,,,,,,,,,,,,,,,,,,,,,,,,,,,,,,,1047.8571945999865,1047.8669143000152,1047.8669143000152,1054.655289300019,matt,return,6.7865737999673,None,1054.6555552000063,1054.6647509000031,1054.6647509000031,1054.6580204999773,,None,,,,,2,2023-11-27_11h34.30.477,watkins1,2023.2.3,99.71819640200785,18,2023-11-27 11h34.35.947935 +0000,
,,,,,,,,,,,,,,,,,,,,,,,19,0,19,0,1055.1669004000141,,,,,,,,,,,,1059.0460083999787,1059.544510799984,,,,3.870581299997866,,,,,,,,,,,,None,None,,,,,,,,,,Flasche,,,cuedRecallAdj,2,,,,,,,,,,,,,,,,,,,,,0,,,,,,,,,,,,,,,,,,,,,,,,,,,,,,,1055.1571931999642,1055.1669004000141,1055.1669004000141,1059.0430342999753,blass,return,3.870581299997866,None,1059.0433000000194,1059.0525174000068,1059.0525174000068,1059.0459084999748,,None,,,,,2,2023-11-27_11h34.30.477,watkins1,2023.2.3,99.71819640200785,18,2023-11-27 11h34.35.947935 +0000,
,,,,,,,,,,,,,,,,,,,,,,,20,0,20,0,1059.5545164999785,,,,,,,,,,,,1064.257230999996,1064.7556517000194,,,,4.698847100022249,,,,,,,,,,,,None,None,,,,,,,,,,Telefon,,,cuedRecallAdj,2,,,,,,,,,,,,,,,,,,,,,0,,,,,,,,,,,,,,,,,,,,,,,,,,,,,,,1059.5447462999728,1059.5545164999785,1059.5545164999785,1064.254033299978,dunkel,return,4.698847100022249,None,1064.254315899976,1064.2635959999752,1064.2635959999752,1064.2571220999816,,None,,,,,2,2023-11-27_11h34.30.477,watkins1,2023.2.3,99.71819640200785,18,2023-11-27 11h34.35.947935 +0000,
,,,,,,,,,,,,,,,,,,,,,,,21,0,21,0,1064.7655349000124,,,,,,,,,,,,1077.630870699999,1078.1292548999772,,,,12.85583899996709,,,,,,,,,,,,None,None,,,,,,,,,,Lampe,,,cuedRecallAdj,2,,,,,,,,,,,,,,,,,,,,,0,,,,,,,,,,,,,,,,,,,,,,,,,,,,,,,1064.755903000012,1064.7655349000124,1064.7655349000124,1077.6277068000054,kratzig,return,12.85583899996709,None,1077.6279707999784,1077.6372500999714,1077.6372500999714,1077.6307699999888,,None,,,,,2,2023-11-27_11h34.30.477,watkins1,2023.2.3,99.71819640200785,18,2023-11-27 11h34.35.947935 +0000,
,,,,,,,,,,,,,,,,,,,,,,,22,0,22,0,1078.1391515000141,,,,,,,,,,,,1088.585315299977,1089.0833793999627,,,,10.442239099997096,,,,,,,,,,,,None,None,,,,,,,,,,Trommel,,,cuedRecallAdj,2,,,,,,,,,,,,,,,,,,,,,0,,,,,,,,,,,,,,,,,,,,,,,,,,,,,,,1078.1295010999893,1078.1391515000141,1078.1391515000141,1088.5818832999794,verspielt,return,10.442239099997096,None,1088.5821674999897,1088.5912965000025,1088.5912965000025,1088.5852068999666,,None,,,,,2,2023-11-27_11h34.30.477,watkins1,2023.2.3,99.71819640200785,18,2023-11-27 11h34.35.947935 +0000,
,,,,,,,,,,,,,,,,,,,,,,,23,0,23,0,1089.0933728999807,,,,,,,,,,,,1096.0752462999662,1096.5737208999926,,,,6.976015800028108,,,,,,,,,,,,None,None,,,,,,,,,,Vase,,,cuedRecallAdj,2,,,,,,,,,,,,,,,,,,,,,0,,,,,,,,,,,,,,,,,,,,,,,,,,,,,,,1089.083616000018,1089.0933728999807,1089.0933728999807,1096.072219899972,biegsam,return,6.976015800028108,None,1096.0724897999899,1096.0817335000029,1096.0817335000029,1096.0751446000068,,None,,,,,2,2023-11-27_11h34.30.477,watkins1,2023.2.3,99.71819640200785,18,2023-11-27 11h34.35.947935 +0000,
,,,,,,,,,,,,,,,,,,,,,,,24,0,24,0,1096.5836663999944,,,,,,,,,,,,1103.113971200015,1103.6130879999837,,,,6.517634899995755,,,,,,,,,,,,None,None,,,,,,,,,,Kiste,,,cuedRecallAdj,2,,,,,,,,,,,,,,,,,,,,,0,,,,,,,,,,,,,,,,,,,,,,,,,,,,,,,1096.5739578999928,1096.5836663999944,1096.5836663999944,1103.110948299989,sportlich,return,6.517634899995755,None,1103.1112057999708,1103.1207372999634,1103.1207372999634,1103.1138735999702,,None,,,,,2,2023-11-27_11h34.30.477,watkins1,2023.2.3,99.71819640200785,18,2023-11-27 11h34.35.947935 +0000,
,,,,,,,,,,,,,,,,,,,,,,,25,0,25,0,1103.623023299966,,,,,,,,,,,,1108.1948724999675,1108.6934019000037,,,,4.566371099965181,,,,,,,,,,,,None,None,,,,,,,,,,Löffel,,,cuedRecallAdj,2,,,,,,,,,,,,,,,,,,,,,0,,,,,,,,,,,,,,,,,,,,,,,,,,,,,,,1103.6133259999915,1103.623023299966,1103.623023299966,1108.1918377999682,glänzend,return,4.566371099965181,None,1108.1921038000146,1108.2013367000036,1108.2013367000036,1108.1947668999783,,None,,,,,2,2023-11-27_11h34.30.477,watkins1,2023.2.3,99.71819640200785,18,2023-11-27 11h34.35.947935 +0000,
,,,,,,,,,,,,,,,,,,,,,,,26,0,26,0,1108.7033428999712,,,,,,,,,,,,1112.3613745999755,1112.8601971999742,,,,3.6460098999668844,,,,,,,,,,,,None,None,,,,,,,,,,Geige,,,cuedRecallAdj,2,,,,,,,,,,,,,,,,,,,,,0,,,,,,,,,,,,,,,,,,,,,,,,,,,,,,,1108.6936505999765,1108.7033428999712,1108.7033428999712,1112.3583944999846,hübsch,return,3.6460098999668844,None,1112.358659599966,1112.3681156999664,1112.3681156999664,1112.3612739999662,,None,,,,,2,2023-11-27_11h34.30.477,watkins1,2023.2.3,99.71819640200785,18,2023-11-27 11h34.35.947935 +0000,
,,,,,,,,,,,,,,,,,,,,,,,27,0,27,0,1112.8701474000118,,,,,,,,,,,,1116.4179177999613,1116.9164724000148,,,,3.535163900000043,,,,,,,,,,,,None,None,,,,,,,,,,Schlüssel,,,cuedRecallAdj,2,,,,,,,,,,,,,,,,,,,,,0,,,,,,,,,,,,,,,,,,,,,,,,,,,,,,,1112.8604401999619,1112.8701474000118,1112.8701474000118,1116.414638999966,kalt,return,3.535163900000043,None,1116.4149016999872,1116.4243671000004,1116.4243671000004,1116.4178145999904,,None,,,,,2,2023-11-27_11h34.30.477,watkins1,2023.2.3,99.71819640200785,18,2023-11-27 11h34.35.947935 +0000,
,,,,,,,,,,,,,,,,,,,,,,,28,0,28,0,1116.9263893999741,,,,,,,,,,,,1121.7495646000025,1122.2478919000132,,,,4.814924500009511,,,,,,,,,,,,None,None,,,,,,,,,,Eimer,,,cuedRecallAdj,2,,,,,,,,,,,,,,,,,,,,,0,,,,,,,,,,,,,,,,,,,,,,,,,,,,,,,1116.9167135999887,1116.9263893999741,1116.9263893999741,1121.7463625000091,schlicht,return,4.814924500009511,None,1121.7466300000087,1121.7558629999985,1121.7558629999985,1121.7494597000186,,None,,,,,2,2023-11-27_11h34.30.477,watkins1,2023.2.3,99.71819640200785,18,2023-11-27 11h34.35.947935 +0000,
,,,,,,,,,,,,,,,,,,,,,,,29,0,29,0,1122.2577915000147,,,,,,,,,,,,1126.1364264999866,1126.635499899974,,,,3.867506999988109,,,,,,,,,,,,None,None,,,,,,,,,,Ring,,,cuedRecallAdj,2,,,,,,,,,,,,,,,,,,,,,0,,,,,,,,,,,,,,,,,,,,,,,,,,,,,,,1122.2481296000187,1122.2577915000147,1122.2577915000147,1126.1337051999872,groß,return,3.867506999988109,None,1126.133976000012,1126.1434262999683,1126.1434262999683,1126.1363245999673,,None,,,,,2,2023-11-27_11h34.30.477,watkins1,2023.2.3,99.71819640200785,18,2023-11-27 11h34.35.947935 +0000,
,,,,,,,,,,,,,,,,,,,,,,,,,,,,,,,,,,,,,,,,,,,,,,,,,,,,,,,,,,,,,,,,,,,,,,,2,,,,,,,,,,,,,,,,,,,,,,,,,,,,,,,,,,,,,,,,,,,,,,,,,,,,,,,,,,,,,,,,,,1126.652086899965,q,541.1200993999955,None,2,2023-11-27_11h34.30.477,watkins1,2023.2.3,99.71819640200785,18,2023-11-27 11h34.35.947935 +0000,
