Equation,CorrectResponse,Correctbutton,trials_7.thisRepN,trials_7.thisTrialN,trials_7.thisN,trials_7.thisIndex,trials.thisRepN,trials.thisTrialN,trials.thisN,trials.thisIndex,trials_3.thisRepN,trials_3.thisTrialN,trials_3.thisN,trials_3.thisIndex,trials_2.thisRepN,trials_2.thisTrialN,trials_2.thisN,trials_2.thisIndex,trials_4.thisRepN,trials_4.thisTrialN,trials_4.thisN,trials_4.thisIndex,trials_5.thisRepN,trials_5.thisTrialN,trials_5.thisN,trials_5.thisIndex,thisRow.t,notes,code_marius.started,code_marius.stopped,welcome.started,welcome.stopped,instruction_study.started,instruction_study.stopped,fixationcross.started,fixationcross.stopped,blanc.started,blanc.stopped,study_control_probe.started,study_control_probe.stopped,responseKey,responseTime,scale_answer_2.keys,study_control_probe_2.started,study_control_probe_2.stopped,scale_answer_3.keys,scale_answer_3.rt,scale_answer_3.duration,blanc_2.started,blanc_2.stopped,test_attr_probe.started,test_attr_probe.stopped,recalled_attr,firstKeyTime,secondWordTime,blanc_3.started,blanc_3.stopped,test_sub_probe.started,test_sub_probe.stopped,recalled_sub,instruction_probe_end.started,instruction_probe_end.stopped,study.started,study.stopped,substantive,adjective,wordpair,task,condition,liste_sub_phase1,liste_adj_phase1,scale_answer.keys,scale_answer.rt,scale_answer.duration,code_defineWordsInit.started,code_defineWordsInit.stopped,liste_sub_phase2,study_control.started,study_control.stopped,scale_answer_4.keys,restudy_same.started,restudy_same.stopped,scale_answer_5.keys,restudy_different.started,restudy_different.stopped,scale_answer_6.keys,test_attr.started,correct,test_attr.stopped,test_sub.started,test_sub.stopped,scale_answer_5.rt,scale_answer_5.duration,distractortask.started,equation_text.started,distractortask.stopped,mouse_answer.x,mouse_answer.y,mouse_answer.leftButton,mouse_answer.midButton,mouse_answer.rightButton,mouse_answer.time,mouse_answer.clicked_name,feedback_distractortask.started,feedback_distractortask.stopped,free_recall.started,text_enter.started,key_resp.started,free_recall.stopped,key_resp.keys,key_resp.rt,key_resp.duration,free_recalled_sub,mouse_continue.x,mouse_continue.y,mouse_continue.leftButton,mouse_continue.midButton,mouse_continue.rightButton,mouse_continue.time,mouse_continue.clicked_name,cued_recall.started,text_enter_2.started,key_continue.started,cued_recall.stopped,recalled_attr1,key_continue.keys,key_continue.rt,key_continue.duration,cued_recall_2.started,text_enter_3.started,key_continue_2.started,cued_recall_2.stopped,recalled_attr2,key_continue_2.keys,key_resp_8.started,key_resp_8.keys,key_resp_8.rt,key_resp_8.duration,condition,date,expName,psychopyVersion,frameRate,participant,expStart,
,,,,,,,,,,,,,,,,,,,,,,,,,,,,,0.11130290012806654,0.11136930016800761,0.11137770023196936,4.405935199931264,,,,,,,,,,,,,,,,,,,,,,,,,,,,,,,,,,,,,3,,,,,,,,,,,,,,,,,,,,,,,,,,,,,,,,,,,,,,,,,,,,,,,,,,,,,,,,,,,,,,,,,,,,,,3,2024-01-16_11h32.44.481,watkins1,2023.2.3,99.71660524665177,90,2024-01-16 11h32.52.128726 +0000,
,,,,,,,,,,,,,,,,,,,,,,,,,,,,,,,,,4.405982700176537,33.49200830003247,,,,,,,,,,,,,,,,,,,,,,,,,,,,,,,,,,,3,,,,,,,,,,,,,,,,,,,,,,,,,,,,,,,,,,,,,,,,,,,,,,,,,,,,,,,,,,,,,,,,,,,,,,3,2024-01-16_11h32.44.481,watkins1,2023.2.3,99.71660524665177,90,2024-01-16 11h32.52.128726 +0000,
,,,0,0,0,0,,,,,,,,,,,,,,,,,,,,,34.50586349982768,,,,,,,,33.492024099919945,34.4958954998292,40.99476539995521,41.486481700092554,34.98778050020337,40.99460509978235,2,3.784093499649316,None,41.48649139981717,47.49039229983464,2,3.784093499649316,None,47.49068860011175,47.981806700117886,47.98181750020012,53.98621289990842,vergnügt,None,None,53.98643309995532,53.986455800011754,53.986462799832225,53.986545199994,,,,,,,,,,3,,,,,,,,,,,,,,,,,,,,,,,,,,,,,,,,,,,,,,,,,,,,,,,,,,,,,,,,,,,,,,,,,,,,,,3,2024-01-16_11h32.44.481,watkins1,2023.2.3,99.71660524665177,90,2024-01-16 11h32.52.128726 +0000,
,,,,,,,,,,,,,,,,,,,,,,,,,,,,,,,,,,,,,,,,,,,,,,,,,,,,,,,,,,,,,53.986662900075316,59.1069200001657,,,,,,,3,,,,,,,,,,,,,,,,,,,,,,,,,,,,,,,,,,,,,,,,,,,,,,,,,,,,,,,,,,,,,,,,,,,,,,3,2024-01-16_11h32.44.481,watkins1,2023.2.3,99.71660524665177,90,2024-01-16 11h32.52.128726 +0000,
,,,,,,,0,0,0,0,,,,,,,,,,,,,,,,,60.120759199839085,,,,,,,,59.1069363001734,60.1107807001099,60.11124090012163,60.6028578998521,,,1,1.82314969971776,,,,,,,,,,,,,,,,,,,,,60.60286909993738,66.60577049991116,Buch,schmutzig,"['Buch', 'schmutzig']",test_adj,3,"['Buch', 'Schere', 'Rucksack', 'Geige', 'Löffel', 'Hut', 'Stift', 'Jacke', 'Würfel', 'Hammer', 'Uhr', 'Flasche', 'Brille', 'Eimer', 'Blume', 'Ring', 'Vase', 'Fahrrad', 'Trommel', 'Kette', 'Lampe', 'Schlüssel', 'Bürste', 'Telefon', 'Kerze', 'Socke', 'Tasche', 'Tasse', 'Kiste', 'Kamera']",['schmutzig'],1,1.82314969971776,None,,,,,,,,,,,,,,,,,,,,,,,,,,,,,,,,,,,,,,,,,,,,,,,,,,,,,,,,,,,,,,,,,3,2024-01-16_11h32.44.481,watkins1,2023.2.3,99.71660524665177,90,2024-01-16 11h32.52.128726 +0000,
,,,,,,,1,0,1,0,,,,,,,,,,,,,,,,,66.61526709981263,,,,,,,,,,66.60642059985548,67.09697150019929,,,1,2.138421199750155,,,,,,,,,,,,,,,,,,,,,67.0969818001613,73.10406510019675,Schere,kratzig,"['Schere', 'kratzig']",test_adj,3,"['Buch', 'Schere', 'Rucksack', 'Geige', 'Löffel', 'Hut', 'Stift', 'Jacke', 'Würfel', 'Hammer', 'Uhr', 'Flasche', 'Brille', 'Eimer', 'Blume', 'Ring', 'Vase', 'Fahrrad', 'Trommel', 'Kette', 'Lampe', 'Schlüssel', 'Bürste', 'Telefon', 'Kerze', 'Socke', 'Tasche', 'Tasse', 'Kiste', 'Kamera']","['schmutzig', 'kratzig']",1,2.138421199750155,None,,,,,,,,,,,,,,,,,,,,,,,,,,,,,,,,,,,,,,,,,,,,,,,,,,,,,,,,,,,,,,,,,3,2024-01-16_11h32.44.481,watkins1,2023.2.3,99.71660524665177,90,2024-01-16 11h32.52.128726 +0000,
,,,,,,,2,0,2,0,,,,,,,,,,,,,,,,,73.11354239983484,,,,,,,,,,73.10458019981161,73.59557410003617,,,3,2.8160056001506746,,,,,,,,,,,,,,,,,,,,,73.59558429988101,79.6010835999623,Rucksack,klobig,"['Rucksack', 'klobig']",test_adj,3,"['Buch', 'Schere', 'Rucksack', 'Geige', 'Löffel', 'Hut', 'Stift', 'Jacke', 'Würfel', 'Hammer', 'Uhr', 'Flasche', 'Brille', 'Eimer', 'Blume', 'Ring', 'Vase', 'Fahrrad', 'Trommel', 'Kette', 'Lampe', 'Schlüssel', 'Bürste', 'Telefon', 'Kerze', 'Socke', 'Tasche', 'Tasse', 'Kiste', 'Kamera']","['schmutzig', 'kratzig', 'klobig']",3,2.8160056001506746,None,,,,,,,,,,,,,,,,,,,,,,,,,,,,,,,,,,,,,,,,,,,,,,,,,,,,,,,,,,,,,,,,,3,2024-01-16_11h32.44.481,watkins1,2023.2.3,99.71660524665177,90,2024-01-16 11h32.52.128726 +0000,
,,,,,,,3,0,3,0,,,,,,,,,,,,,,,,,79.6106050000526,,,,,,,,,,79.60160729987547,80.09257380012423,,,1,1.6068996000103652,,,,,,,,,,,,,,,,,,,,,80.09258389985189,86.0968944998458,Geige,durchsichtig,"['Geige', 'durchsichtig']",test_adj,3,"['Buch', 'Schere', 'Rucksack', 'Geige', 'Löffel', 'Hut', 'Stift', 'Jacke', 'Würfel', 'Hammer', 'Uhr', 'Flasche', 'Brille', 'Eimer', 'Blume', 'Ring', 'Vase', 'Fahrrad', 'Trommel', 'Kette', 'Lampe', 'Schlüssel', 'Bürste', 'Telefon', 'Kerze', 'Socke', 'Tasche', 'Tasse', 'Kiste', 'Kamera']","['schmutzig', 'kratzig', 'klobig', 'durchsichtig']",1,1.6068996000103652,None,,,,,,,,,,,,,,,,,,,,,,,,,,,,,,,,,,,,,,,,,,,,,,,,,,,,,,,,,,,,,,,,,3,2024-01-16_11h32.44.481,watkins1,2023.2.3,99.71660524665177,90,2024-01-16 11h32.52.128726 +0000,
,,,,,,,4,0,4,0,,,,,,,,,,,,,,,,,86.10640020016581,,,,,,,,,,86.09741829987615,86.58854829985648,,,2,2.7428589002229273,,,,,,,,,,,,,,,,,,,,,86.58855819981545,92.59327040007338,Löffel,matt,"['Löffel', 'matt']",test_adj,3,"['Buch', 'Schere', 'Rucksack', 'Geige', 'Löffel', 'Hut', 'Stift', 'Jacke', 'Würfel', 'Hammer', 'Uhr', 'Flasche', 'Brille', 'Eimer', 'Blume', 'Ring', 'Vase', 'Fahrrad', 'Trommel', 'Kette', 'Lampe', 'Schlüssel', 'Bürste', 'Telefon', 'Kerze', 'Socke', 'Tasche', 'Tasse', 'Kiste', 'Kamera']","['schmutzig', 'kratzig', 'klobig', 'durchsichtig', 'matt']",2,2.7428589002229273,None,,,,,,,,,,,,,,,,,,,,,,,,,,,,,,,,,,,,,,,,,,,,,,,,,,,,,,,,,,,,,,,,,3,2024-01-16_11h32.44.481,watkins1,2023.2.3,99.71660524665177,90,2024-01-16 11h32.52.128726 +0000,
,,,,,,,5,0,5,0,,,,,,,,,,,,,,,,,92.6027080998756,,,,,,,,,,92.59379140008241,93.0846437998116,,,1,3.271445699967444,,,,,,,,,,,,,,,,,,,,,93.08465459989384,99.09513150015846,Hut,rustikal,"['Hut', 'rustikal']",test_adj,3,"['Buch', 'Schere', 'Rucksack', 'Geige', 'Löffel', 'Hut', 'Stift', 'Jacke', 'Würfel', 'Hammer', 'Uhr', 'Flasche', 'Brille', 'Eimer', 'Blume', 'Ring', 'Vase', 'Fahrrad', 'Trommel', 'Kette', 'Lampe', 'Schlüssel', 'Bürste', 'Telefon', 'Kerze', 'Socke', 'Tasche', 'Tasse', 'Kiste', 'Kamera']","['schmutzig', 'kratzig', 'klobig', 'durchsichtig', 'matt', 'rustikal']",1,3.271445699967444,None,,,,,,,,,,,,,,,,,,,,,,,,,,,,,,,,,,,,,,,,,,,,,,,,,,,,,,,,,,,,,,,,,3,2024-01-16_11h32.44.481,watkins1,2023.2.3,99.71660524665177,90,2024-01-16 11h32.52.128726 +0000,
,,,,,,,6,0,6,0,,,,,,,,,,,,,,,,,99.10453369980678,,,,,,,,,,99.09565379982814,99.58664949983358,,,2,2.6663421001285315,,,,,,,,,,,,,,,,,,,,,99.58665939979255,105.59029000019655,Stift,zart,"['Stift', 'zart']",restudy,3,"['Buch', 'Schere', 'Rucksack', 'Geige', 'Löffel', 'Hut', 'Stift', 'Jacke', 'Würfel', 'Hammer', 'Uhr', 'Flasche', 'Brille', 'Eimer', 'Blume', 'Ring', 'Vase', 'Fahrrad', 'Trommel', 'Kette', 'Lampe', 'Schlüssel', 'Bürste', 'Telefon', 'Kerze', 'Socke', 'Tasche', 'Tasse', 'Kiste', 'Kamera']","['schmutzig', 'kratzig', 'klobig', 'durchsichtig', 'matt', 'rustikal', 'zart']",2,2.6663421001285315,None,,,,,,,,,,,,,,,,,,,,,,,,,,,,,,,,,,,,,,,,,,,,,,,,,,,,,,,,,,,,,,,,,3,2024-01-16_11h32.44.481,watkins1,2023.2.3,99.71660524665177,90,2024-01-16 11h32.52.128726 +0000,
,,,,,,,7,0,7,0,,,,,,,,,,,,,,,,,105.5997831998393,,,,,,,,,,105.59082730021328,106.08177309995517,,,1,2.330274499952793,,,,,,,,,,,,,,,,,,,,,106.08178299991414,112.09229920012876,Jacke,lustig,"['Jacke', 'lustig']",restudy,3,"['Buch', 'Schere', 'Rucksack', 'Geige', 'Löffel', 'Hut', 'Stift', 'Jacke', 'Würfel', 'Hammer', 'Uhr', 'Flasche', 'Brille', 'Eimer', 'Blume', 'Ring', 'Vase', 'Fahrrad', 'Trommel', 'Kette', 'Lampe', 'Schlüssel', 'Bürste', 'Telefon', 'Kerze', 'Socke', 'Tasche', 'Tasse', 'Kiste', 'Kamera']","['schmutzig', 'kratzig', 'klobig', 'durchsichtig', 'matt', 'rustikal', 'zart', 'lustig']",1,2.330274499952793,None,,,,,,,,,,,,,,,,,,,,,,,,,,,,,,,,,,,,,,,,,,,,,,,,,,,,,,,,,,,,,,,,,3,2024-01-16_11h32.44.481,watkins1,2023.2.3,99.71660524665177,90,2024-01-16 11h32.52.128726 +0000,
,,,,,,,8,0,8,0,,,,,,,,,,,,,,,,,112.10178489983082,,,,,,,,,,112.09282029978931,112.58390669990331,,,3,2.23606859985739,,,,,,,,,,,,,,,,,,,,,112.58391690021381,118.5904276999645,Würfel,neu,"['Würfel', 'neu']",restudy,3,"['Buch', 'Schere', 'Rucksack', 'Geige', 'Löffel', 'Hut', 'Stift', 'Jacke', 'Würfel', 'Hammer', 'Uhr', 'Flasche', 'Brille', 'Eimer', 'Blume', 'Ring', 'Vase', 'Fahrrad', 'Trommel', 'Kette', 'Lampe', 'Schlüssel', 'Bürste', 'Telefon', 'Kerze', 'Socke', 'Tasche', 'Tasse', 'Kiste', 'Kamera']","['schmutzig', 'kratzig', 'klobig', 'durchsichtig', 'matt', 'rustikal', 'zart', 'lustig', 'neu']",3,2.23606859985739,None,,,,,,,,,,,,,,,,,,,,,,,,,,,,,,,,,,,,,,,,,,,,,,,,,,,,,,,,,,,,,,,,,3,2024-01-16_11h32.44.481,watkins1,2023.2.3,99.71660524665177,90,2024-01-16 11h32.52.128726 +0000,
,,,,,,,9,0,9,0,,,,,,,,,,,,,,,,,118.59988360013813,,,,,,,,,,118.59094059979543,119.08183339983225,,,3,3.1230101003311574,,,,,,,,,,,,,,,,,,,,,119.08184329979122,125.09150050021708,Hammer,nachhaltig,"['Hammer', 'nachhaltig']",test_adj,3,"['Buch', 'Schere', 'Rucksack', 'Geige', 'Löffel', 'Hut', 'Stift', 'Jacke', 'Würfel', 'Hammer', 'Uhr', 'Flasche', 'Brille', 'Eimer', 'Blume', 'Ring', 'Vase', 'Fahrrad', 'Trommel', 'Kette', 'Lampe', 'Schlüssel', 'Bürste', 'Telefon', 'Kerze', 'Socke', 'Tasche', 'Tasse', 'Kiste', 'Kamera']","['schmutzig', 'kratzig', 'klobig', 'durchsichtig', 'matt', 'rustikal', 'zart', 'lustig', 'neu', 'nachhaltig']",3,3.1230101003311574,None,,,,,,,,,,,,,,,,,,,,,,,,,,,,,,,,,,,,,,,,,,,,,,,,,,,,,,,,,,,,,,,,,3,2024-01-16_11h32.44.481,watkins1,2023.2.3,99.71660524665177,90,2024-01-16 11h32.52.128726 +0000,
,,,,,,,10,0,10,0,,,,,,,,,,,,,,,,,125.10094390017912,,,,,,,,,,125.09201119979843,125.58292269986123,,,1,1.3651813003234565,,,,,,,,,,,,,,,,,,,,,125.5829332000576,131.58919929992408,Uhr,blass,"['Uhr', 'blass']",restudy,3,"['Buch', 'Schere', 'Rucksack', 'Geige', 'Löffel', 'Hut', 'Stift', 'Jacke', 'Würfel', 'Hammer', 'Uhr', 'Flasche', 'Brille', 'Eimer', 'Blume', 'Ring', 'Vase', 'Fahrrad', 'Trommel', 'Kette', 'Lampe', 'Schlüssel', 'Bürste', 'Telefon', 'Kerze', 'Socke', 'Tasche', 'Tasse', 'Kiste', 'Kamera']","['schmutzig', 'kratzig', 'klobig', 'durchsichtig', 'matt', 'rustikal', 'zart', 'lustig', 'neu', 'nachhaltig', 'blass']",1,1.3651813003234565,None,,,,,,,,,,,,,,,,,,,,,,,,,,,,,,,,,,,,,,,,,,,,,,,,,,,,,,,,,,,,,,,,,3,2024-01-16_11h32.44.481,watkins1,2023.2.3,99.71660524665177,90,2024-01-16 11h32.52.128726 +0000,
,,,,,,,11,0,11,0,,,,,,,,,,,,,,,,,131.59860889986157,,,,,,,,,,131.58972149994224,132.0807000999339,,,3,1.2355435001663864,,,,,,,,,,,,,,,,,,,,,132.08071050001308,138.08205190021545,Flasche,sauber,"['Flasche', 'sauber']",restudy,3,"['Buch', 'Schere', 'Rucksack', 'Geige', 'Löffel', 'Hut', 'Stift', 'Jacke', 'Würfel', 'Hammer', 'Uhr', 'Flasche', 'Brille', 'Eimer', 'Blume', 'Ring', 'Vase', 'Fahrrad', 'Trommel', 'Kette', 'Lampe', 'Schlüssel', 'Bürste', 'Telefon', 'Kerze', 'Socke', 'Tasche', 'Tasse', 'Kiste', 'Kamera']","['schmutzig', 'kratzig', 'klobig', 'durchsichtig', 'matt', 'rustikal', 'zart', 'lustig', 'neu', 'nachhaltig', 'blass', 'sauber']",3,1.2355435001663864,None,,,,,,,,,,,,,,,,,,,,,,,,,,,,,,,,,,,,,,,,,,,,,,,,,,,,,,,,,,,,,,,,,3,2024-01-16_11h32.44.481,watkins1,2023.2.3,99.71660524665177,90,2024-01-16 11h32.52.128726 +0000,
,,,,,,,12,0,12,0,,,,,,,,,,,,,,,,,138.091495399829,,,,,,,,,,138.08257109997794,138.5738001000136,,,3,3.4949515997432172,,,,,,,,,,,,,,,,,,,,,138.57381029985845,144.57857549982145,Brille,krumm,"['Brille', 'krumm']",test_adj,3,"['Buch', 'Schere', 'Rucksack', 'Geige', 'Löffel', 'Hut', 'Stift', 'Jacke', 'Würfel', 'Hammer', 'Uhr', 'Flasche', 'Brille', 'Eimer', 'Blume', 'Ring', 'Vase', 'Fahrrad', 'Trommel', 'Kette', 'Lampe', 'Schlüssel', 'Bürste', 'Telefon', 'Kerze', 'Socke', 'Tasche', 'Tasse', 'Kiste', 'Kamera']","['schmutzig', 'kratzig', 'klobig', 'durchsichtig', 'matt', 'rustikal', 'zart', 'lustig', 'neu', 'nachhaltig', 'blass', 'sauber', 'krumm']",3,3.4949515997432172,None,,,,,,,,,,,,,,,,,,,,,,,,,,,,,,,,,,,,,,,,,,,,,,,,,,,,,,,,,,,,,,,,,3,2024-01-16_11h32.44.481,watkins1,2023.2.3,99.71660524665177,90,2024-01-16 11h32.52.128726 +0000,
,,,,,,,13,0,13,0,,,,,,,,,,,,,,,,,144.58796809986234,,,,,,,,,,144.57907930016518,145.0698957000859,,,2,1.9665280999615788,,,,,,,,,,,,,,,,,,,,,145.06990619981661,151.0724805998616,Eimer,breit,"['Eimer', 'breit']",restudy,3,"['Buch', 'Schere', 'Rucksack', 'Geige', 'Löffel', 'Hut', 'Stift', 'Jacke', 'Würfel', 'Hammer', 'Uhr', 'Flasche', 'Brille', 'Eimer', 'Blume', 'Ring', 'Vase', 'Fahrrad', 'Trommel', 'Kette', 'Lampe', 'Schlüssel', 'Bürste', 'Telefon', 'Kerze', 'Socke', 'Tasche', 'Tasse', 'Kiste', 'Kamera']","['schmutzig', 'kratzig', 'klobig', 'durchsichtig', 'matt', 'rustikal', 'zart', 'lustig', 'neu', 'nachhaltig', 'blass', 'sauber', 'krumm', 'breit']",2,1.9665280999615788,None,,,,,,,,,,,,,,,,,,,,,,,,,,,,,,,,,,,,,,,,,,,,,,,,,,,,,,,,,,,,,,,,,3,2024-01-16_11h32.44.481,watkins1,2023.2.3,99.71660524665177,90,2024-01-16 11h32.52.128726 +0000,
,,,,,,,14,0,14,0,,,,,,,,,,,,,,,,,151.08200900023803,,,,,,,,,,151.0729979998432,151.5640006000176,,,3,1.2571123000234365,,,,,,,,,,,,,,,,,,,,,151.56401049997658,157.57062930008397,Blume,strahlend,"['Blume', 'strahlend']",test_adj,3,"['Buch', 'Schere', 'Rucksack', 'Geige', 'Löffel', 'Hut', 'Stift', 'Jacke', 'Würfel', 'Hammer', 'Uhr', 'Flasche', 'Brille', 'Eimer', 'Blume', 'Ring', 'Vase', 'Fahrrad', 'Trommel', 'Kette', 'Lampe', 'Schlüssel', 'Bürste', 'Telefon', 'Kerze', 'Socke', 'Tasche', 'Tasse', 'Kiste', 'Kamera']","['schmutzig', 'kratzig', 'klobig', 'durchsichtig', 'matt', 'rustikal', 'zart', 'lustig', 'neu', 'nachhaltig', 'blass', 'sauber', 'krumm', 'breit', 'strahlend']",3,1.2571123000234365,None,,,,,,,,,,,,,,,,,,,,,,,,,,,,,,,,,,,,,,,,,,,,,,,,,,,,,,,,,,,,,,,,,3,2024-01-16_11h32.44.481,watkins1,2023.2.3,99.71660524665177,90,2024-01-16 11h32.52.128726 +0000,
,,,,,,,15,0,15,0,,,,,,,,,,,,,,,,,157.58011180022731,,,,,,,,,,157.57115070009604,158.062162599992,,,1,1.8218109998852015,,,,,,,,,,,,,,,,,,,,,158.06217289995402,164.06276299990714,Ring,hässlich,"['Ring', 'hässlich']",test_adj,3,"['Buch', 'Schere', 'Rucksack', 'Geige', 'Löffel', 'Hut', 'Stift', 'Jacke', 'Würfel', 'Hammer', 'Uhr', 'Flasche', 'Brille', 'Eimer', 'Blume', 'Ring', 'Vase', 'Fahrrad', 'Trommel', 'Kette', 'Lampe', 'Schlüssel', 'Bürste', 'Telefon', 'Kerze', 'Socke', 'Tasche', 'Tasse', 'Kiste', 'Kamera']","['schmutzig', 'kratzig', 'klobig', 'durchsichtig', 'matt', 'rustikal', 'zart', 'lustig', 'neu', 'nachhaltig', 'blass', 'sauber', 'krumm', 'breit', 'strahlend', 'hässlich']",1,1.8218109998852015,None,,,,,,,,,,,,,,,,,,,,,,,,,,,,,,,,,,,,,,,,,,,,,,,,,,,,,,,,,,,,,,,,,3,2024-01-16_11h32.44.481,watkins1,2023.2.3,99.71660524665177,90,2024-01-16 11h32.52.128726 +0000,
,,,,,,,16,0,16,0,,,,,,,,,,,,,,,,,164.07228739978746,,,,,,,,,,164.06328879995272,164.55419029993936,,,3,2.9302085996605456,,,,,,,,,,,,,,,,,,,,,164.5542004001327,170.55517139984295,Vase,hohl,"['Vase', 'hohl']",restudy,3,"['Buch', 'Schere', 'Rucksack', 'Geige', 'Löffel', 'Hut', 'Stift', 'Jacke', 'Würfel', 'Hammer', 'Uhr', 'Flasche', 'Brille', 'Eimer', 'Blume', 'Ring', 'Vase', 'Fahrrad', 'Trommel', 'Kette', 'Lampe', 'Schlüssel', 'Bürste', 'Telefon', 'Kerze', 'Socke', 'Tasche', 'Tasse', 'Kiste', 'Kamera']","['schmutzig', 'kratzig', 'klobig', 'durchsichtig', 'matt', 'rustikal', 'zart', 'lustig', 'neu', 'nachhaltig', 'blass', 'sauber', 'krumm', 'breit', 'strahlend', 'hässlich', 'hohl']",3,2.9302085996605456,None,,,,,,,,,,,,,,,,,,,,,,,,,,,,,,,,,,,,,,,,,,,,,,,,,,,,,,,,,,,,,,,,,3,2024-01-16_11h32.44.481,watkins1,2023.2.3,99.71660524665177,90,2024-01-16 11h32.52.128726 +0000,
,,,,,,,17,0,17,0,,,,,,,,,,,,,,,,,170.56467439979315,,,,,,,,,,170.55568420002237,171.0467244000174,,,1,1.6221525999717414,,,,,,,,,,,,,,,,,,,,,171.04673459986225,177.04810639983043,Fahrrad,glatt,"['Fahrrad', 'glatt']",test_adj,3,"['Buch', 'Schere', 'Rucksack', 'Geige', 'Löffel', 'Hut', 'Stift', 'Jacke', 'Würfel', 'Hammer', 'Uhr', 'Flasche', 'Brille', 'Eimer', 'Blume', 'Ring', 'Vase', 'Fahrrad', 'Trommel', 'Kette', 'Lampe', 'Schlüssel', 'Bürste', 'Telefon', 'Kerze', 'Socke', 'Tasche', 'Tasse', 'Kiste', 'Kamera']","['schmutzig', 'kratzig', 'klobig', 'durchsichtig', 'matt', 'rustikal', 'zart', 'lustig', 'neu', 'nachhaltig', 'blass', 'sauber', 'krumm', 'breit', 'strahlend', 'hässlich', 'hohl', 'glatt']",1,1.6221525999717414,None,,,,,,,,,,,,,,,,,,,,,,,,,,,,,,,,,,,,,,,,,,,,,,,,,,,,,,,,,,,,,,,,,3,2024-01-16_11h32.44.481,watkins1,2023.2.3,99.71660524665177,90,2024-01-16 11h32.52.128726 +0000,
,,,,,,,18,0,18,0,,,,,,,,,,,,,,,,,177.05761059978977,,,,,,,,,,177.04863859992474,177.53998149977997,,,2,1.7281663999892771,,,,,,,,,,,,,,,,,,,,,177.53999180020764,183.54436120018363,Trommel,elegant,"['Trommel', 'elegant']",restudy,3,"['Buch', 'Schere', 'Rucksack', 'Geige', 'Löffel', 'Hut', 'Stift', 'Jacke', 'Würfel', 'Hammer', 'Uhr', 'Flasche', 'Brille', 'Eimer', 'Blume', 'Ring', 'Vase', 'Fahrrad', 'Trommel', 'Kette', 'Lampe', 'Schlüssel', 'Bürste', 'Telefon', 'Kerze', 'Socke', 'Tasche', 'Tasse', 'Kiste', 'Kamera']","['schmutzig', 'kratzig', 'klobig', 'durchsichtig', 'matt', 'rustikal', 'zart', 'lustig', 'neu', 'nachhaltig', 'blass', 'sauber', 'krumm', 'breit', 'strahlend', 'hässlich', 'hohl', 'glatt', 'elegant']",2,1.7281663999892771,None,,,,,,,,,,,,,,,,,,,,,,,,,,,,,,,,,,,,,,,,,,,,,,,,,,,,,,,,,,,,,,,,,3,2024-01-16_11h32.44.481,watkins1,2023.2.3,99.71660524665177,90,2024-01-16 11h32.52.128726 +0000,
,,,,,,,19,0,19,0,,,,,,,,,,,,,,,,,183.5537918000482,,,,,,,,,,183.5448842998594,184.03577989991754,,,3,1.3282626001164317,,,,,,,,,,,,,,,,,,,,,184.0357897998765,190.03675469988957,Kette,niedlich,"['Kette', 'niedlich']",test_adj,3,"['Buch', 'Schere', 'Rucksack', 'Geige', 'Löffel', 'Hut', 'Stift', 'Jacke', 'Würfel', 'Hammer', 'Uhr', 'Flasche', 'Brille', 'Eimer', 'Blume', 'Ring', 'Vase', 'Fahrrad', 'Trommel', 'Kette', 'Lampe', 'Schlüssel', 'Bürste', 'Telefon', 'Kerze', 'Socke', 'Tasche', 'Tasse', 'Kiste', 'Kamera']","['schmutzig', 'kratzig', 'klobig', 'durchsichtig', 'matt', 'rustikal', 'zart', 'lustig', 'neu', 'nachhaltig', 'blass', 'sauber', 'krumm', 'breit', 'strahlend', 'hässlich', 'hohl', 'glatt', 'elegant', 'niedlich']",3,1.3282626001164317,None,,,,,,,,,,,,,,,,,,,,,,,,,,,,,,,,,,,,,,,,,,,,,,,,,,,,,,,,,,,,,,,,,3,2024-01-16_11h32.44.481,watkins1,2023.2.3,99.71660524665177,90,2024-01-16 11h32.52.128726 +0000,
,,,,,,,20,0,20,0,,,,,,,,,,,,,,,,,190.0462492997758,,,,,,,,,,190.0372822000645,190.52818799996749,,,3,1.019519300200045,,,,,,,,,,,,,,,,,,,,,190.52819859981537,196.52917039999738,Lampe,hübsch,"['Lampe', 'hübsch']",restudy,3,"['Buch', 'Schere', 'Rucksack', 'Geige', 'Löffel', 'Hut', 'Stift', 'Jacke', 'Würfel', 'Hammer', 'Uhr', 'Flasche', 'Brille', 'Eimer', 'Blume', 'Ring', 'Vase', 'Fahrrad', 'Trommel', 'Kette', 'Lampe', 'Schlüssel', 'Bürste', 'Telefon', 'Kerze', 'Socke', 'Tasche', 'Tasse', 'Kiste', 'Kamera']","['schmutzig', 'kratzig', 'klobig', 'durchsichtig', 'matt', 'rustikal', 'zart', 'lustig', 'neu', 'nachhaltig', 'blass', 'sauber', 'krumm', 'breit', 'strahlend', 'hässlich', 'hohl', 'glatt', 'elegant', 'niedlich', 'hübsch']",3,1.019519300200045,None,,,,,,,,,,,,,,,,,,,,,,,,,,,,,,,,,,,,,,,,,,,,,,,,,,,,,,,,,,,,,,,,,3,2024-01-16_11h32.44.481,watkins1,2023.2.3,99.71660524665177,90,2024-01-16 11h32.52.128726 +0000,
,,,,,,,21,0,21,0,,,,,,,,,,,,,,,,,196.53857599990442,,,,,,,,,,196.52969780005515,197.02047049999237,,,3,1.2801011996343732,,,,,,,,,,,,,,,,,,,,,197.0204813000746,203.0299538001418,Schlüssel,flach,"['Schlüssel', 'flach']",test_adj,3,"['Buch', 'Schere', 'Rucksack', 'Geige', 'Löffel', 'Hut', 'Stift', 'Jacke', 'Würfel', 'Hammer', 'Uhr', 'Flasche', 'Brille', 'Eimer', 'Blume', 'Ring', 'Vase', 'Fahrrad', 'Trommel', 'Kette', 'Lampe', 'Schlüssel', 'Bürste', 'Telefon', 'Kerze', 'Socke', 'Tasche', 'Tasse', 'Kiste', 'Kamera']","['schmutzig', 'kratzig', 'klobig', 'durchsichtig', 'matt', 'rustikal', 'zart', 'lustig', 'neu', 'nachhaltig', 'blass', 'sauber', 'krumm', 'breit', 'strahlend', 'hässlich', 'hohl', 'glatt', 'elegant', 'niedlich', 'hübsch', 'flach']",3,1.2801011996343732,None,,,,,,,,,,,,,,,,,,,,,,,,,,,,,,,,,,,,,,,,,,,,,,,,,,,,,,,,,,,,,,,,,3,2024-01-16_11h32.44.481,watkins1,2023.2.3,99.71660524665177,90,2024-01-16 11h32.52.128726 +0000,
,,,,,,,22,0,22,0,,,,,,,,,,,,,,,,,203.0394310001284,,,,,,,,,,203.03049030015245,203.52152859978378,,,1,1.2503483002074063,,,,,,,,,,,,,,,,,,,,,203.52153840009123,209.53005459997803,Bürste,schwer,"['Bürste', 'schwer']",restudy,3,"['Buch', 'Schere', 'Rucksack', 'Geige', 'Löffel', 'Hut', 'Stift', 'Jacke', 'Würfel', 'Hammer', 'Uhr', 'Flasche', 'Brille', 'Eimer', 'Blume', 'Ring', 'Vase', 'Fahrrad', 'Trommel', 'Kette', 'Lampe', 'Schlüssel', 'Bürste', 'Telefon', 'Kerze', 'Socke', 'Tasche', 'Tasse', 'Kiste', 'Kamera']","['schmutzig', 'kratzig', 'klobig', 'durchsichtig', 'matt', 'rustikal', 'zart', 'lustig', 'neu', 'nachhaltig', 'blass', 'sauber', 'krumm', 'breit', 'strahlend', 'hässlich', 'hohl', 'glatt', 'elegant', 'niedlich', 'hübsch', 'flach', 'schwer']",1,1.2503483002074063,None,,,,,,,,,,,,,,,,,,,,,,,,,,,,,,,,,,,,,,,,,,,,,,,,,,,,,,,,,,,,,,,,,3,2024-01-16_11h32.44.481,watkins1,2023.2.3,99.71660524665177,90,2024-01-16 11h32.52.128726 +0000,
,,,,,,,23,0,23,0,,,,,,,,,,,,,,,,,209.53955679992214,,,,,,,,,,209.53057340020314,210.02151839993894,,,1,1.0475929998792708,,,,,,,,,,,,,,,,,,,,,210.02152859978378,216.0268443999812,Telefon,nass,"['Telefon', 'nass']",restudy,3,"['Buch', 'Schere', 'Rucksack', 'Geige', 'Löffel', 'Hut', 'Stift', 'Jacke', 'Würfel', 'Hammer', 'Uhr', 'Flasche', 'Brille', 'Eimer', 'Blume', 'Ring', 'Vase', 'Fahrrad', 'Trommel', 'Kette', 'Lampe', 'Schlüssel', 'Bürste', 'Telefon', 'Kerze', 'Socke', 'Tasche', 'Tasse', 'Kiste', 'Kamera']","['schmutzig', 'kratzig', 'klobig', 'durchsichtig', 'matt', 'rustikal', 'zart', 'lustig', 'neu', 'nachhaltig', 'blass', 'sauber', 'krumm', 'breit', 'strahlend', 'hässlich', 'hohl', 'glatt', 'elegant', 'niedlich', 'hübsch', 'flach', 'schwer', 'nass']",1,1.0475929998792708,None,,,,,,,,,,,,,,,,,,,,,,,,,,,,,,,,,,,,,,,,,,,,,,,,,,,,,,,,,,,,,,,,,3,2024-01-16_11h32.44.481,watkins1,2023.2.3,99.71660524665177,90,2024-01-16 11h32.52.128726 +0000,
,,,,,,,24,0,24,0,,,,,,,,,,,,,,,,,216.0364319998771,,,,,,,,,,216.02736849989742,216.51864090003073,,,1,2.5581967998296022,,,,,,,,,,,,,,,,,,,,,216.51865090010688,222.52825079998001,Kerze,dunkel,"['Kerze', 'dunkel']",restudy,3,"['Buch', 'Schere', 'Rucksack', 'Geige', 'Löffel', 'Hut', 'Stift', 'Jacke', 'Würfel', 'Hammer', 'Uhr', 'Flasche', 'Brille', 'Eimer', 'Blume', 'Ring', 'Vase', 'Fahrrad', 'Trommel', 'Kette', 'Lampe', 'Schlüssel', 'Bürste', 'Telefon', 'Kerze', 'Socke', 'Tasche', 'Tasse', 'Kiste', 'Kamera']","['schmutzig', 'kratzig', 'klobig', 'durchsichtig', 'matt', 'rustikal', 'zart', 'lustig', 'neu', 'nachhaltig', 'blass', 'sauber', 'krumm', 'breit', 'strahlend', 'hässlich', 'hohl', 'glatt', 'elegant', 'niedlich', 'hübsch', 'flach', 'schwer', 'nass', 'dunkel']",1,2.5581967998296022,None,,,,,,,,,,,,,,,,,,,,,,,,,,,,,,,,,,,,,,,,,,,,,,,,,,,,,,,,,,,,,,,,,3,2024-01-16_11h32.44.481,watkins1,2023.2.3,99.71660524665177,90,2024-01-16 11h32.52.128726 +0000,
,,,,,,,25,0,25,0,,,,,,,,,,,,,,,,,222.5378029998392,,,,,,,,,,222.52877839980647,223.020042499993,,,1,1.5850211000069976,,,,,,,,,,,,,,,,,,,,,223.02005239995196,229.0270356000401,Socke,kalt,"['Socke', 'kalt']",restudy,3,"['Buch', 'Schere', 'Rucksack', 'Geige', 'Löffel', 'Hut', 'Stift', 'Jacke', 'Würfel', 'Hammer', 'Uhr', 'Flasche', 'Brille', 'Eimer', 'Blume', 'Ring', 'Vase', 'Fahrrad', 'Trommel', 'Kette', 'Lampe', 'Schlüssel', 'Bürste', 'Telefon', 'Kerze', 'Socke', 'Tasche', 'Tasse', 'Kiste', 'Kamera']","['schmutzig', 'kratzig', 'klobig', 'durchsichtig', 'matt', 'rustikal', 'zart', 'lustig', 'neu', 'nachhaltig', 'blass', 'sauber', 'krumm', 'breit', 'strahlend', 'hässlich', 'hohl', 'glatt', 'elegant', 'niedlich', 'hübsch', 'flach', 'schwer', 'nass', 'dunkel', 'kalt']",1,1.5850211000069976,None,,,,,,,,,,,,,,,,,,,,,,,,,,,,,,,,,,,,,,,,,,,,,,,,,,,,,,,,,,,,,,,,,3,2024-01-16_11h32.44.481,watkins1,2023.2.3,99.71660524665177,90,2024-01-16 11h32.52.128726 +0000,
,,,,,,,26,0,26,0,,,,,,,,,,,,,,,,,229.0365209998563,,,,,,,,,,229.02756789978594,229.51856679981574,,,3,1.118141799699515,,,,,,,,,,,,,,,,,,,,,229.51857650000602,235.52481909980997,Tasche,robust,"['Tasche', 'robust']",restudy,3,"['Buch', 'Schere', 'Rucksack', 'Geige', 'Löffel', 'Hut', 'Stift', 'Jacke', 'Würfel', 'Hammer', 'Uhr', 'Flasche', 'Brille', 'Eimer', 'Blume', 'Ring', 'Vase', 'Fahrrad', 'Trommel', 'Kette', 'Lampe', 'Schlüssel', 'Bürste', 'Telefon', 'Kerze', 'Socke', 'Tasche', 'Tasse', 'Kiste', 'Kamera']","['schmutzig', 'kratzig', 'klobig', 'durchsichtig', 'matt', 'rustikal', 'zart', 'lustig', 'neu', 'nachhaltig', 'blass', 'sauber', 'krumm', 'breit', 'strahlend', 'hässlich', 'hohl', 'glatt', 'elegant', 'niedlich', 'hübsch', 'flach', 'schwer', 'nass', 'dunkel', 'kalt', 'robust']",3,1.118141799699515,None,,,,,,,,,,,,,,,,,,,,,,,,,,,,,,,,,,,,,,,,,,,,,,,,,,,,,,,,,,,,,,,,,3,2024-01-16_11h32.44.481,watkins1,2023.2.3,99.71660524665177,90,2024-01-16 11h32.52.128726 +0000,
,,,,,,,27,0,27,0,,,,,,,,,,,,,,,,,235.53432520013303,,,,,,,,,,235.5253266999498,236.01631869981065,,,3,1.2924864999949932,,,,,,,,,,,,,,,,,,,,,236.01632890012115,242.02182740019634,Tasse,glänzend,"['Tasse', 'glänzend']",restudy,3,"['Buch', 'Schere', 'Rucksack', 'Geige', 'Löffel', 'Hut', 'Stift', 'Jacke', 'Würfel', 'Hammer', 'Uhr', 'Flasche', 'Brille', 'Eimer', 'Blume', 'Ring', 'Vase', 'Fahrrad', 'Trommel', 'Kette', 'Lampe', 'Schlüssel', 'Bürste', 'Telefon', 'Kerze', 'Socke', 'Tasche', 'Tasse', 'Kiste', 'Kamera']","['schmutzig', 'kratzig', 'klobig', 'durchsichtig', 'matt', 'rustikal', 'zart', 'lustig', 'neu', 'nachhaltig', 'blass', 'sauber', 'krumm', 'breit', 'strahlend', 'hässlich', 'hohl', 'glatt', 'elegant', 'niedlich', 'hübsch', 'flach', 'schwer', 'nass', 'dunkel', 'kalt', 'robust', 'glänzend']",3,1.2924864999949932,None,,,,,,,,,,,,,,,,,,,,,,,,,,,,,,,,,,,,,,,,,,,,,,,,,,,,,,,,,,,,,,,,,3,2024-01-16_11h32.44.481,watkins1,2023.2.3,99.71660524665177,90,2024-01-16 11h32.52.128726 +0000,
,,,,,,,28,0,28,0,,,,,,,,,,,,,,,,,242.0312700001523,,,,,,,,,,242.0223416001536,242.5154233998619,,,2,3.4172777999192476,,,,,,,,,,,,,,,,,,,,,242.51543270004913,248.5160194998607,Kiste,sportlich,"['Kiste', 'sportlich']",test_adj,3,"['Buch', 'Schere', 'Rucksack', 'Geige', 'Löffel', 'Hut', 'Stift', 'Jacke', 'Würfel', 'Hammer', 'Uhr', 'Flasche', 'Brille', 'Eimer', 'Blume', 'Ring', 'Vase', 'Fahrrad', 'Trommel', 'Kette', 'Lampe', 'Schlüssel', 'Bürste', 'Telefon', 'Kerze', 'Socke', 'Tasche', 'Tasse', 'Kiste', 'Kamera']","['schmutzig', 'kratzig', 'klobig', 'durchsichtig', 'matt', 'rustikal', 'zart', 'lustig', 'neu', 'nachhaltig', 'blass', 'sauber', 'krumm', 'breit', 'strahlend', 'hässlich', 'hohl', 'glatt', 'elegant', 'niedlich', 'hübsch', 'flach', 'schwer', 'nass', 'dunkel', 'kalt', 'robust', 'glänzend', 'sportlich']",2,3.4172777999192476,None,,,,,,,,,,,,,,,,,,,,,,,,,,,,,,,,,,,,,,,,,,,,,,,,,,,,,,,,,,,,,,,,,3,2024-01-16_11h32.44.481,watkins1,2023.2.3,99.71660524665177,90,2024-01-16 11h32.52.128726 +0000,
,,,,,,,29,0,29,0,,,,,,,,,,,,,,,,,248.52548829978332,,,,,,,,,,248.51654040021822,249.00734280003235,,,1,1.637239699717611,,,,,,,,,,,,,,,,,,,,,249.00735320011154,255.01139339990914,Kamera,winzig,"['Kamera', 'winzig']",test_adj,3,"['Buch', 'Schere', 'Rucksack', 'Geige', 'Löffel', 'Hut', 'Stift', 'Jacke', 'Würfel', 'Hammer', 'Uhr', 'Flasche', 'Brille', 'Eimer', 'Blume', 'Ring', 'Vase', 'Fahrrad', 'Trommel', 'Kette', 'Lampe', 'Schlüssel', 'Bürste', 'Telefon', 'Kerze', 'Socke', 'Tasche', 'Tasse', 'Kiste', 'Kamera']","['schmutzig', 'kratzig', 'klobig', 'durchsichtig', 'matt', 'rustikal', 'zart', 'lustig', 'neu', 'nachhaltig', 'blass', 'sauber', 'krumm', 'breit', 'strahlend', 'hässlich', 'hohl', 'glatt', 'elegant', 'niedlich', 'hübsch', 'flach', 'schwer', 'nass', 'dunkel', 'kalt', 'robust', 'glänzend', 'sportlich', 'winzig']",1,1.637239699717611,None,,,,,,,,,,,,,,,,,,,,,,,,,,,,,,,,,,,,,,,,,,,,,,,,,,,,,,,,,,,,,,,,,3,2024-01-16_11h32.44.481,watkins1,2023.2.3,99.71660524665177,90,2024-01-16 11h32.52.128726 +0000,
,,,,,,,,,,,0,0,0,0,,,,,,,,,,,,,255.02079779980704,,,,,,,,,,255.01224739989266,255.5030287997797,,,[],[],,,,,,,,,,,klobig,None,None,,,,,,,,,,Rucksack,klobig,"['Rucksack', 'klobig']",test_adj,3,,,,,,255.01217189989984,255.01222010003403,"['Rucksack', 'Socke', 'Jacke', 'Stift', 'Geige', 'Flasche', 'Tasche', 'Buch', 'Hut', 'Eimer', 'Telefon', 'Schlüssel', 'Schere', 'Kiste', 'Tasse', 'Kamera', 'Bürste', 'Würfel', 'Uhr', 'Hammer', 'Kerze', 'Brille', 'Löffel', 'Kette', 'Vase', 'Fahrrad', 'Blume', 'Lampe', 'Ring', 'Trommel']",255.50303959986195,255.50587189989164,None,255.5060560000129,255.50864790007472,None,255.5088030998595,255.51135780010372,None,255.5115642999299,0,261.516548700165,261.5165623999201,261.5178673998453,,,,,,,,,,,,,,,,,,,,,,,,,,,,,,,,,,,,,,,,,,,,,,,,3,2024-01-16_11h32.44.481,watkins1,2023.2.3,99.71660524665177,90,2024-01-16 11h32.52.128726 +0000,
,,,,,,,,,,,1,0,1,0,,,,,,,,,,,,,261.5263589997776,,,,,,,,,,261.5181518997997,262.0082656000741,,,[],[],,,,,,,,,,,,None,None,,,,,,,,,,Socke,kalt,"['Socke', 'kalt']",restudy,3,,,,,,261.5180851998739,261.5181236998178,"['Rucksack', 'Socke', 'Jacke', 'Stift', 'Geige', 'Flasche', 'Tasche', 'Buch', 'Hut', 'Eimer', 'Telefon', 'Schlüssel', 'Schere', 'Kiste', 'Tasse', 'Kamera', 'Bürste', 'Würfel', 'Uhr', 'Hammer', 'Kerze', 'Brille', 'Löffel', 'Kette', 'Vase', 'Fahrrad', 'Blume', 'Lampe', 'Ring', 'Trommel']",262.00827619992197,262.0110776000656,None,262.0112032000907,268.01301490003243,1,268.01338869985193,268.01588719990104,None,268.0160083998926,,268.0175771000795,268.0175884999335,268.01860650023445,2.737082100007683,None,,,,,,,,,,,,,,,,,,,,,,,,,,,,,,,,,,,,,,,,,,,,,,3,2024-01-16_11h32.44.481,watkins1,2023.2.3,99.71660524665177,90,2024-01-16 11h32.52.128726 +0000,
,,,,,,,,,,,2,0,2,0,,,,,,,,,,,,,268.0224934001453,,,,,,,,,,268.0188873000443,268.5145625001751,,,[],[],,,,,,,,,,,,None,None,,,,,,,,,,Jacke,lustig,"['Jacke', 'lustig']",restudy,3,,,,,,268.01882070023566,268.0188584001735,"['Rucksack', 'Socke', 'Jacke', 'Stift', 'Geige', 'Flasche', 'Tasche', 'Buch', 'Hut', 'Eimer', 'Telefon', 'Schlüssel', 'Schere', 'Kiste', 'Tasse', 'Kamera', 'Bürste', 'Würfel', 'Uhr', 'Hammer', 'Kerze', 'Brille', 'Löffel', 'Kette', 'Vase', 'Fahrrad', 'Blume', 'Lampe', 'Ring', 'Trommel']",268.5145724997856,268.5170701001771,None,268.5171896000393,274.5190824000165,1,274.51937490003183,274.5221539000049,None,274.52226509992033,,274.5234206998721,274.52343200007454,274.5245941001922,2.1919235000386834,None,,,,,,,,,,,,,,,,,,,,,,,,,,,,,,,,,,,,,,,,,,,,,,3,2024-01-16_11h32.44.481,watkins1,2023.2.3,99.71660524665177,90,2024-01-16 11h32.52.128726 +0000,
,,,,,,,,,,,3,0,3,0,,,,,,,,,,,,,274.5285229999572,,,,,,,,,,274.52487409999594,275.0206606001593,,,[],[],,,,,,,,,,,,None,None,,,,,,,,,,Stift,zart,"['Stift', 'zart']",restudy,3,,,,,,274.52480879984796,274.52484720014036,"['Rucksack', 'Socke', 'Jacke', 'Stift', 'Geige', 'Flasche', 'Tasche', 'Buch', 'Hut', 'Eimer', 'Telefon', 'Schlüssel', 'Schere', 'Kiste', 'Tasse', 'Kamera', 'Bürste', 'Würfel', 'Uhr', 'Hammer', 'Kerze', 'Brille', 'Löffel', 'Kette', 'Vase', 'Fahrrad', 'Blume', 'Lampe', 'Ring', 'Trommel']",275.0206710002385,275.02336370013654,None,275.02349120005965,281.02509579993784,2,281.02539739990607,281.02802000008523,None,281.028131400235,,281.0294150002301,281.02942640008405,281.03046299982816,1.8057865002192557,None,,,,,,,,,,,,,,,,,,,,,,,,,,,,,,,,,,,,,,,,,,,,,,3,2024-01-16_11h32.44.481,watkins1,2023.2.3,99.71660524665177,90,2024-01-16 11h32.52.128726 +0000,
,,,,,,,,,,,4,0,4,0,,,,,,,,,,,,,281.03456699987873,,,,,,,,,,281.0307451998815,281.5265708998777,,,[],[],,,,,,,,,,,durchsichtig,None,None,,,,,,,,,,Geige,durchsichtig,"['Geige', 'durchsichtig']",test_adj,3,,,,,,281.0306784999557,281.0307175000198,"['Rucksack', 'Socke', 'Jacke', 'Stift', 'Geige', 'Flasche', 'Tasche', 'Buch', 'Hut', 'Eimer', 'Telefon', 'Schlüssel', 'Schere', 'Kiste', 'Tasse', 'Kamera', 'Bürste', 'Würfel', 'Uhr', 'Hammer', 'Kerze', 'Brille', 'Löffel', 'Kette', 'Vase', 'Fahrrad', 'Blume', 'Lampe', 'Ring', 'Trommel']",281.52658159984276,281.52915570000187,None,281.52927959989756,281.5307153998874,None,281.5308242999017,281.53229570016265,None,281.53240500018,0,287.53402419993654,287.5340378000401,287.53552479995415,,,,,,,,,,,,,,,,,,,,,,,,,,,,,,,,,,,,,,,,,,,,,,,,3,2024-01-16_11h32.44.481,watkins1,2023.2.3,99.71660524665177,90,2024-01-16 11h32.52.128726 +0000,
,,,,,,,,,,,5,0,5,0,,,,,,,,,,,,,287.5438367999159,,,,,,,,,,287.53581380005926,288.0258567999117,,,[],[],,,,,,,,,,,,None,None,,,,,,,,,,Flasche,sauber,"['Flasche', 'sauber']",restudy,3,,,,,,287.53574489988387,287.5357845998369,"['Rucksack', 'Socke', 'Jacke', 'Stift', 'Geige', 'Flasche', 'Tasche', 'Buch', 'Hut', 'Eimer', 'Telefon', 'Schlüssel', 'Schere', 'Kiste', 'Tasse', 'Kamera', 'Bürste', 'Würfel', 'Uhr', 'Hammer', 'Kerze', 'Brille', 'Löffel', 'Kette', 'Vase', 'Fahrrad', 'Blume', 'Lampe', 'Ring', 'Trommel']",288.0258670998737,288.0287604997866,None,288.02888379991055,294.0302519998513,3,294.0305436998606,294.0332805002108,None,294.0333910002373,,294.0349236000329,294.0349355000071,294.0361211001873,1.5999798001721501,None,,,,,,,,,,,,,,,,,,,,,,,,,,,,,,,,,,,,,,,,,,,,,,3,2024-01-16_11h32.44.481,watkins1,2023.2.3,99.71660524665177,90,2024-01-16 11h32.52.128726 +0000,
,,,,,,,,,,,6,0,6,0,,,,,,,,,,,,,294.03968930011615,,,,,,,,,,294.03640259988606,294.53169750003144,,,[],[],,,,,,,,,,,,None,None,,,,,,,,,,Tasche,robust,"['Tasche', 'robust']",restudy,3,,,,,,294.03633749997243,294.0363757000305,"['Rucksack', 'Socke', 'Jacke', 'Stift', 'Geige', 'Flasche', 'Tasche', 'Buch', 'Hut', 'Eimer', 'Telefon', 'Schlüssel', 'Schere', 'Kiste', 'Tasse', 'Kamera', 'Bürste', 'Würfel', 'Uhr', 'Hammer', 'Kerze', 'Brille', 'Löffel', 'Kette', 'Vase', 'Fahrrad', 'Blume', 'Lampe', 'Ring', 'Trommel']",294.53170790011063,294.5346014001407,None,294.5347245000303,300.5406856001355,3,300.5409813001752,300.5436899000779,None,300.5438008001074,,300.5449827997945,300.54499430023134,300.5461647999473,1.3505032998509705,None,,,,,,,,,,,,,,,,,,,,,,,,,,,,,,,,,,,,,,,,,,,,,,3,2024-01-16_11h32.44.481,watkins1,2023.2.3,99.71660524665177,90,2024-01-16 11h32.52.128726 +0000,
,,,,,,,,,,,7,0,7,0,,,,,,,,,,,,,300.55020229984075,,,,,,,,,,300.54644240019843,301.0421016002074,,,[],[],,,,,,,,,,,,None,None,,,,,,,,,,Buch,schmutzig,"['Buch', 'schmutzig']",test_adj,3,,,,,,300.5463772001676,300.5464158002287,"['Rucksack', 'Socke', 'Jacke', 'Stift', 'Geige', 'Flasche', 'Tasche', 'Buch', 'Hut', 'Eimer', 'Telefon', 'Schlüssel', 'Schere', 'Kiste', 'Tasse', 'Kamera', 'Bürste', 'Würfel', 'Uhr', 'Hammer', 'Kerze', 'Brille', 'Löffel', 'Kette', 'Vase', 'Fahrrad', 'Blume', 'Lampe', 'Ring', 'Trommel']",301.04211220005527,301.0447450000793,None,301.04487199988216,301.0462182001211,None,301.0463278000243,301.0476541998796,None,301.04776069987565,0,307.05028689978644,307.0503006000072,307.05172290001065,,,,,,,,,,,,,,,,,,,,,,,,,,,,,,,,,,,,,,,,,,,,,,,,3,2024-01-16_11h32.44.481,watkins1,2023.2.3,99.71660524665177,90,2024-01-16 11h32.52.128726 +0000,
,,,,,,,,,,,8,0,8,0,,,,,,,,,,,,,307.0600525001064,,,,,,,,,,307.052006599959,307.54209249978885,,,[],[],,,,,,,,,,,robust,None,None,,,,,,,,,,Hut,rustikal,"['Hut', 'rustikal']",test_adj,3,,,,,,307.0519376997836,307.0519762998447,"['Rucksack', 'Socke', 'Jacke', 'Stift', 'Geige', 'Flasche', 'Tasche', 'Buch', 'Hut', 'Eimer', 'Telefon', 'Schlüssel', 'Schere', 'Kiste', 'Tasse', 'Kamera', 'Bürste', 'Würfel', 'Uhr', 'Hammer', 'Kerze', 'Brille', 'Löffel', 'Kette', 'Vase', 'Fahrrad', 'Blume', 'Lampe', 'Ring', 'Trommel']",307.5421023000963,307.5448985998519,None,307.54502450022846,307.5475587998517,None,307.5476699001156,307.5502832001075,None,307.55039640003815,0,313.55475819995627,313.5547715998255,313.5561687001027,,,,,,,,,,,,,,,,,,,,,,,,,,,,,,,,,,,,,,,,,,,,,,,,3,2024-01-16_11h32.44.481,watkins1,2023.2.3,99.71660524665177,90,2024-01-16 11h32.52.128726 +0000,
,,,,,,,,,,,9,0,9,0,,,,,,,,,,,,,313.5645269001834,,,,,,,,,,313.5564581002109,314.04661299986765,,,[],[],,,,,,,,,,,,None,None,,,,,,,,,,Eimer,breit,"['Eimer', 'breit']",restudy,3,,,,,,313.5563881001435,313.5564291002229,"['Rucksack', 'Socke', 'Jacke', 'Stift', 'Geige', 'Flasche', 'Tasche', 'Buch', 'Hut', 'Eimer', 'Telefon', 'Schlüssel', 'Schere', 'Kiste', 'Tasse', 'Kamera', 'Bürste', 'Würfel', 'Uhr', 'Hammer', 'Kerze', 'Brille', 'Löffel', 'Kette', 'Vase', 'Fahrrad', 'Blume', 'Lampe', 'Ring', 'Trommel']",314.0466259000823,314.0493772998452,None,314.04950089985505,320.05262230010703,2,320.05291790002957,320.05565779982135,None,320.0557760000229,,320.0572648001835,320.0572764999233,320.0584383998066,1.9235008000396192,None,,,,,,,,,,,,,,,,,,,,,,,,,,,,,,,,,,,,,,,,,,,,,,3,2024-01-16_11h32.44.481,watkins1,2023.2.3,99.71660524665177,90,2024-01-16 11h32.52.128726 +0000,
,,,,,,,,,,,10,0,10,0,,,,,,,,,,,,,320.0620686998591,,,,,,,,,,320.05871909996495,320.5540869999677,,,[],[],,,,,,,,,,,,None,None,,,,,,,,,,Telefon,nass,"['Telefon', 'nass']",restudy,3,,,,,,320.0586542999372,320.0586928999983,"['Rucksack', 'Socke', 'Jacke', 'Stift', 'Geige', 'Flasche', 'Tasche', 'Buch', 'Hut', 'Eimer', 'Telefon', 'Schlüssel', 'Schere', 'Kiste', 'Tasse', 'Kamera', 'Bürste', 'Würfel', 'Uhr', 'Hammer', 'Kerze', 'Brille', 'Löffel', 'Kette', 'Vase', 'Fahrrad', 'Blume', 'Lampe', 'Ring', 'Trommel']",320.554097100161,320.55678919982165,None,320.55690999981016,326.56431460008025,1,326.5645988001488,326.56720199994743,None,326.56731089996174,,326.5684945001267,326.5685056000948,326.56952549982816,1.256269899662584,None,,,,,,,,,,,,,,,,,,,,,,,,,,,,,,,,,,,,,,,,,,,,,,3,2024-01-16_11h32.44.481,watkins1,2023.2.3,99.71660524665177,90,2024-01-16 11h32.52.128726 +0000,
,,,,,,,,,,,11,0,11,0,,,,,,,,,,,,,326.5737637002021,,,,,,,,,,326.56979619991034,327.0658053001389,,,[],[],,,,,,,,,,,flach,None,None,,,,,,,,,,Schlüssel,flach,"['Schlüssel', 'flach']",test_adj,3,,,,,,326.5697325998917,326.5697699999437,"['Rucksack', 'Socke', 'Jacke', 'Stift', 'Geige', 'Flasche', 'Tasche', 'Buch', 'Hut', 'Eimer', 'Telefon', 'Schlüssel', 'Schere', 'Kiste', 'Tasse', 'Kamera', 'Bürste', 'Würfel', 'Uhr', 'Hammer', 'Kerze', 'Brille', 'Löffel', 'Kette', 'Vase', 'Fahrrad', 'Blume', 'Lampe', 'Ring', 'Trommel']",327.0658157998696,327.0685959002003,None,327.06872100010514,327.07025030022487,None,327.0703583001159,327.0718752001412,None,327.0719828000292,0,333.07423420017585,333.07424709992483,333.0756061999127,,,,,,,,,,,,,,,,,,,,,,,,,,,,,,,,,,,,,,,,,,,,,,,,3,2024-01-16_11h32.44.481,watkins1,2023.2.3,99.71660524665177,90,2024-01-16 11h32.52.128726 +0000,
,,,,,,,,,,,12,0,12,0,,,,,,,,,,,,,333.0839784001,,,,,,,,,,333.0758843999356,333.56597250001505,,,[],[],,,,,,,,,,,kratzig,None,None,,,,,,,,,,Schere,kratzig,"['Schere', 'kratzig']",test_adj,3,,,,,,333.07581860013306,333.07585640018806,"['Rucksack', 'Socke', 'Jacke', 'Stift', 'Geige', 'Flasche', 'Tasche', 'Buch', 'Hut', 'Eimer', 'Telefon', 'Schlüssel', 'Schere', 'Kiste', 'Tasse', 'Kamera', 'Bürste', 'Würfel', 'Uhr', 'Hammer', 'Kerze', 'Brille', 'Löffel', 'Kette', 'Vase', 'Fahrrad', 'Blume', 'Lampe', 'Ring', 'Trommel']",333.5659826998599,333.56868320005015,None,333.5688074999489,333.57134260004386,None,333.5714508998208,333.5739857000299,None,333.57409289991483,0,339.5783763998188,339.5783897000365,339.57970310002565,,,,,,,,,,,,,,,,,,,,,,,,,,,,,,,,,,,,,,,,,,,,,,,,3,2024-01-16_11h32.44.481,watkins1,2023.2.3,99.71660524665177,90,2024-01-16 11h32.52.128726 +0000,
,,,,,,,,,,,13,0,13,0,,,,,,,,,,,,,339.5881981002167,,,,,,,,,,339.5799814001657,340.0702006001957,,,[],[],,,,,,,,,,,sportlich,None,None,,,,,,,,,,Kiste,sportlich,"['Kiste', 'sportlich']",test_adj,3,,,,,,339.57991519989446,339.57995360018685,"['Rucksack', 'Socke', 'Jacke', 'Stift', 'Geige', 'Flasche', 'Tasche', 'Buch', 'Hut', 'Eimer', 'Telefon', 'Schlüssel', 'Schere', 'Kiste', 'Tasse', 'Kamera', 'Bürste', 'Würfel', 'Uhr', 'Hammer', 'Kerze', 'Brille', 'Löffel', 'Kette', 'Vase', 'Fahrrad', 'Blume', 'Lampe', 'Ring', 'Trommel']",340.07021120004356,340.0729527999647,None,340.07307679997757,340.07564740022644,None,340.0757569000125,340.078340199776,None,340.07844869978726,0,346.084133700002,346.08414719998837,346.0855586999096,,,,,,,,,,,,,,,,,,,,,,,,,,,,,,,,,,,,,,,,,,,,,,,,3,2024-01-16_11h32.44.481,watkins1,2023.2.3,99.71660524665177,90,2024-01-16 11h32.52.128726 +0000,
,,,,,,,,,,,14,0,14,0,,,,,,,,,,,,,346.0939640002325,,,,,,,,,,346.0858513000421,346.5758925001137,,,[],[],,,,,,,,,,,,None,None,,,,,,,,,,Tasse,glänzend,"['Tasse', 'glänzend']",restudy,3,,,,,,346.0857811998576,346.0858219000511,"['Rucksack', 'Socke', 'Jacke', 'Stift', 'Geige', 'Flasche', 'Tasche', 'Buch', 'Hut', 'Eimer', 'Telefon', 'Schlüssel', 'Schere', 'Kiste', 'Tasse', 'Kamera', 'Bürste', 'Würfel', 'Uhr', 'Hammer', 'Kerze', 'Brille', 'Löffel', 'Kette', 'Vase', 'Fahrrad', 'Blume', 'Lampe', 'Ring', 'Trommel']",346.57590269995853,346.578667699825,None,346.578791399952,352.58394260006025,3,352.5842356001958,352.5869582002051,None,352.5870680999942,,352.5885163000785,352.5885275998153,352.5897232000716,2.010221400298178,None,,,,,,,,,,,,,,,,,,,,,,,,,,,,,,,,,,,,,,,,,,,,,,3,2024-01-16_11h32.44.481,watkins1,2023.2.3,99.71660524665177,90,2024-01-16 11h32.52.128726 +0000,
,,,,,,,,,,,15,0,15,0,,,,,,,,,,,,,352.5934334001504,,,,,,,,,,352.58999569993466,353.08551419992,,,[],[],,,,,,,,,,,winzig,None,None,,,,,,,,,,Kamera,winzig,"['Kamera', 'winzig']",test_adj,3,,,,,,352.58993110014126,352.58996899984777,"['Rucksack', 'Socke', 'Jacke', 'Stift', 'Geige', 'Flasche', 'Tasche', 'Buch', 'Hut', 'Eimer', 'Telefon', 'Schlüssel', 'Schere', 'Kiste', 'Tasse', 'Kamera', 'Bürste', 'Würfel', 'Uhr', 'Hammer', 'Kerze', 'Brille', 'Löffel', 'Kette', 'Vase', 'Fahrrad', 'Blume', 'Lampe', 'Ring', 'Trommel']",353.0855258000083,353.0882974001579,None,353.0884206998162,353.09004550008103,None,353.09015589999035,353.091582799796,None,353.0916880997829,0,359.0936426999979,359.09365600021556,359.095002300106,,,,,,,,,,,,,,,,,,,,,,,,,,,,,,,,,,,,,,,,,,,,,,,,3,2024-01-16_11h32.44.481,watkins1,2023.2.3,99.71660524665177,90,2024-01-16 11h32.52.128726 +0000,
,,,,,,,,,,,16,0,16,0,,,,,,,,,,,,,359.103412500117,,,,,,,,,,359.095290500205,359.58568589994684,,,[],[],,,,,,,,,,,,None,None,,,,,,,,,,Bürste,schwer,"['Bürste', 'schwer']",restudy,3,,,,,,359.09522139979526,359.09526009997353,"['Rucksack', 'Socke', 'Jacke', 'Stift', 'Geige', 'Flasche', 'Tasche', 'Buch', 'Hut', 'Eimer', 'Telefon', 'Schlüssel', 'Schere', 'Kiste', 'Tasse', 'Kamera', 'Bürste', 'Würfel', 'Uhr', 'Hammer', 'Kerze', 'Brille', 'Löffel', 'Kette', 'Vase', 'Fahrrad', 'Blume', 'Lampe', 'Ring', 'Trommel']",359.58569619990885,359.58848380018026,None,359.5886089000851,365.59145910013467,1,365.59175889985636,365.59448359999806,None,365.5945945000276,,365.59620890021324,365.5962205999531,365.5974050001241,1.464538600295782,None,,,,,,,,,,,,,,,,,,,,,,,,,,,,,,,,,,,,,,,,,,,,,,3,2024-01-16_11h32.44.481,watkins1,2023.2.3,99.71660524665177,90,2024-01-16 11h32.52.128726 +0000,
,,,,,,,,,,,17,0,17,0,,,,,,,,,,,,,365.6009760000743,,,,,,,,,,365.59768529981375,366.0929931998253,,,[],[],,,,,,,,,,,,None,None,,,,,,,,,,Würfel,neu,"['Würfel', 'neu']",restudy,3,,,,,,365.597620499786,365.5976586001925,"['Rucksack', 'Socke', 'Jacke', 'Stift', 'Geige', 'Flasche', 'Tasche', 'Buch', 'Hut', 'Eimer', 'Telefon', 'Schlüssel', 'Schere', 'Kiste', 'Tasse', 'Kamera', 'Bürste', 'Würfel', 'Uhr', 'Hammer', 'Kerze', 'Brille', 'Löffel', 'Kette', 'Vase', 'Fahrrad', 'Blume', 'Lampe', 'Ring', 'Trommel']",366.09300380013883,366.09573969990015,None,366.0958630000241,372.100324800238,3,372.1006221999414,372.1034516999498,None,372.10356240021065,,372.10473540006205,372.10474669979885,372.105741399806,2.0373728997074068,None,,,,,,,,,,,,,,,,,,,,,,,,,,,,,,,,,,,,,,,,,,,,,,3,2024-01-16_11h32.44.481,watkins1,2023.2.3,99.71660524665177,90,2024-01-16 11h32.52.128726 +0000,
,,,,,,,,,,,18,0,18,0,,,,,,,,,,,,,372.1097686998546,,,,,,,,,,372.10601670015603,372.60191630013287,,,[],[],,,,,,,,,,,,None,None,,,,,,,,,,Uhr,blass,"['Uhr', 'blass']",restudy,3,,,,,,372.1059524999,372.10599080007523,"['Rucksack', 'Socke', 'Jacke', 'Stift', 'Geige', 'Flasche', 'Tasche', 'Buch', 'Hut', 'Eimer', 'Telefon', 'Schlüssel', 'Schere', 'Kiste', 'Tasse', 'Kamera', 'Bürste', 'Würfel', 'Uhr', 'Hammer', 'Kerze', 'Brille', 'Löffel', 'Kette', 'Vase', 'Fahrrad', 'Blume', 'Lampe', 'Ring', 'Trommel']",372.6019266000949,372.60425810003653,None,372.6043806998059,378.6070981998928,1,378.60739509994164,378.609922000207,None,378.6100349999033,,378.6110565001145,378.6110684000887,378.6123616998084,0.9688256001099944,None,,,,,,,,,,,,,,,,,,,,,,,,,,,,,,,,,,,,,,,,,,,,,,3,2024-01-16_11h32.44.481,watkins1,2023.2.3,99.71660524665177,90,2024-01-16 11h32.52.128726 +0000,
,,,,,,,,,,,19,0,19,0,,,,,,,,,,,,,378.61650850018486,,,,,,,,,,378.6126485997811,379.1086017000489,,,[],[],,,,,,,,,,,nachhaltig,None,None,,,,,,,,,,Hammer,nachhaltig,"['Hammer', 'nachhaltig']",test_adj,3,,,,,,378.6125810998492,378.61262079980224,"['Rucksack', 'Socke', 'Jacke', 'Stift', 'Geige', 'Flasche', 'Tasche', 'Buch', 'Hut', 'Eimer', 'Telefon', 'Schlüssel', 'Schere', 'Kiste', 'Tasse', 'Kamera', 'Bürste', 'Würfel', 'Uhr', 'Hammer', 'Kerze', 'Brille', 'Löffel', 'Kette', 'Vase', 'Fahrrad', 'Blume', 'Lampe', 'Ring', 'Trommel']",379.1086145997979,379.111330000218,None,379.1114540998824,379.11291449982673,None,379.1130241001956,379.1144825001247,None,379.1145902997814,0,385.11681269994006,385.11682619992644,385.1182352001779,,,,,,,,,,,,,,,,,,,,,,,,,,,,,,,,,,,,,,,,,,,,,,,,3,2024-01-16_11h32.44.481,watkins1,2023.2.3,99.71660524665177,90,2024-01-16 11h32.52.128726 +0000,
,,,,,,,,,,,20,0,20,0,,,,,,,,,,,,,385.1265762001276,,,,,,,,,,385.1185146998614,385.6087368000299,,,[],[],,,,,,,,,,,,None,None,,,,,,,,,,Kerze,dunkel,"['Kerze', 'dunkel']",restudy,3,,,,,,385.11844829982147,385.11848699999973,"['Rucksack', 'Socke', 'Jacke', 'Stift', 'Geige', 'Flasche', 'Tasche', 'Buch', 'Hut', 'Eimer', 'Telefon', 'Schlüssel', 'Schere', 'Kiste', 'Tasse', 'Kamera', 'Bürste', 'Würfel', 'Uhr', 'Hammer', 'Kerze', 'Brille', 'Löffel', 'Kette', 'Vase', 'Fahrrad', 'Blume', 'Lampe', 'Ring', 'Trommel']",385.60874749999493,385.6115096001886,None,385.61163590010256,391.61831550020725,1,391.6186140999198,391.6213254001923,None,391.6214343998581,,391.6229010000825,391.62291250005364,391.62408549990505,1.42512569995597,None,,,,,,,,,,,,,,,,,,,,,,,,,,,,,,,,,,,,,,,,,,,,,,3,2024-01-16_11h32.44.481,watkins1,2023.2.3,99.71660524665177,90,2024-01-16 11h32.52.128726 +0000,
,,,,,,,,,,,21,0,21,0,,,,,,,,,,,,,391.62772519979626,,,,,,,,,,391.6243631001562,392.1197743997909,,,[],[],,,,,,,,,,,rund,None,None,,,,,,,,,,Brille,krumm,"['Brille', 'krumm']",test_adj,3,,,,,,391.62429750012234,391.6243364000693,"['Rucksack', 'Socke', 'Jacke', 'Stift', 'Geige', 'Flasche', 'Tasche', 'Buch', 'Hut', 'Eimer', 'Telefon', 'Schlüssel', 'Schere', 'Kiste', 'Tasse', 'Kamera', 'Bürste', 'Würfel', 'Uhr', 'Hammer', 'Kerze', 'Brille', 'Löffel', 'Kette', 'Vase', 'Fahrrad', 'Blume', 'Lampe', 'Ring', 'Trommel']",392.1197852999903,392.1225077002309,None,392.1226319000125,392.12407439993694,None,392.1241819001734,392.1256154999137,None,392.1257230998017,0,398.13039790000767,398.13041129987687,398.13167170016095,,,,,,,,,,,,,,,,,,,,,,,,,,,,,,,,,,,,,,,,,,,,,,,,3,2024-01-16_11h32.44.481,watkins1,2023.2.3,99.71660524665177,90,2024-01-16 11h32.52.128726 +0000,
,,,,,,,,,,,22,0,22,0,,,,,,,,,,,,,398.1402320000343,,,,,,,,,,398.1319960001856,398.6220549000427,,,[],[],,,,,,,,,,,matt,None,None,,,,,,,,,,Löffel,matt,"['Löffel', 'matt']",test_adj,3,,,,,,398.13193009980023,398.1319682998583,"['Rucksack', 'Socke', 'Jacke', 'Stift', 'Geige', 'Flasche', 'Tasche', 'Buch', 'Hut', 'Eimer', 'Telefon', 'Schlüssel', 'Schere', 'Kiste', 'Tasse', 'Kamera', 'Bürste', 'Würfel', 'Uhr', 'Hammer', 'Kerze', 'Brille', 'Löffel', 'Kette', 'Vase', 'Fahrrad', 'Blume', 'Lampe', 'Ring', 'Trommel']",398.6220660000108,398.62496160017326,None,398.62508760020137,398.62764819990844,None,398.6277581001632,398.6303103999235,None,398.63042100006714,0,404.6369384001009,404.6369532002136,404.63829499995336,,,,,,,,,,,,,,,,,,,,,,,,,,,,,,,,,,,,,,,,,,,,,,,,3,2024-01-16_11h32.44.481,watkins1,2023.2.3,99.71660524665177,90,2024-01-16 11h32.52.128726 +0000,
,,,,,,,,,,,23,0,23,0,,,,,,,,,,,,,404.6467261998914,,,,,,,,,,404.63858640007675,405.1286701001227,,,[],[],,,,,,,,,,,niedlich,None,None,,,,,,,,,,Kette,niedlich,"['Kette', 'niedlich']",test_adj,3,,,,,,404.63851530011743,404.6385555001907,"['Rucksack', 'Socke', 'Jacke', 'Stift', 'Geige', 'Flasche', 'Tasche', 'Buch', 'Hut', 'Eimer', 'Telefon', 'Schlüssel', 'Schere', 'Kiste', 'Tasse', 'Kamera', 'Bürste', 'Würfel', 'Uhr', 'Hammer', 'Kerze', 'Brille', 'Löffel', 'Kette', 'Vase', 'Fahrrad', 'Blume', 'Lampe', 'Ring', 'Trommel']",405.12867949996144,405.1313220001757,None,405.1314436001703,405.1338400999084,None,405.13394889980555,405.13634809991345,None,405.1364560998045,0,411.14021549979225,411.14022930013016,411.1416075001471,,,,,,,,,,,,,,,,,,,,,,,,,,,,,,,,,,,,,,,,,,,,,,,,3,2024-01-16_11h32.44.481,watkins1,2023.2.3,99.71660524665177,90,2024-01-16 11h32.52.128726 +0000,
,,,,,,,,,,,24,0,24,0,,,,,,,,,,,,,411.1500091999769,,,,,,,,,,411.141896400135,411.6319478000514,,,[],[],,,,,,,,,,,,None,None,,,,,,,,,,Vase,hohl,"['Vase', 'hohl']",restudy,3,,,,,,411.14182560006157,411.14186669979244,"['Rucksack', 'Socke', 'Jacke', 'Stift', 'Geige', 'Flasche', 'Tasche', 'Buch', 'Hut', 'Eimer', 'Telefon', 'Schlüssel', 'Schere', 'Kiste', 'Tasse', 'Kamera', 'Bürste', 'Würfel', 'Uhr', 'Hammer', 'Kerze', 'Brille', 'Löffel', 'Kette', 'Vase', 'Fahrrad', 'Blume', 'Lampe', 'Ring', 'Trommel']",411.63195810001343,411.6345684998669,None,411.63469360023737,417.64271620009094,3,417.6430044998415,417.64536760002375,None,417.6454739999026,,417.64691369980574,417.6469250000082,417.647933000233,1.3945637000724673,None,,,,,,,,,,,,,,,,,,,,,,,,,,,,,,,,,,,,,,,,,,,,,,3,2024-01-16_11h32.44.481,watkins1,2023.2.3,99.71660524665177,90,2024-01-16 11h32.52.128726 +0000,
,,,,,,,,,,,25,0,25,0,,,,,,,,,,,,,417.6521143000573,,,,,,,,,,417.64820480020717,418.144105900079,,,[],[],,,,,,,,,,,glatt,None,None,,,,,,,,,,Fahrrad,glatt,"['Fahrrad', 'glatt']",test_adj,3,,,,,,417.648140899837,417.6481781001203,"['Rucksack', 'Socke', 'Jacke', 'Stift', 'Geige', 'Flasche', 'Tasche', 'Buch', 'Hut', 'Eimer', 'Telefon', 'Schlüssel', 'Schere', 'Kiste', 'Tasse', 'Kamera', 'Bürste', 'Würfel', 'Uhr', 'Hammer', 'Kerze', 'Brille', 'Löffel', 'Kette', 'Vase', 'Fahrrad', 'Blume', 'Lampe', 'Ring', 'Trommel']",418.144116200041,418.1467041000724,None,418.1468277000822,418.14828860014677,None,418.1483966000378,418.149856899865,None,418.1499640000984,0,424.15118690021336,424.15120030008256,424.15254899999127,,,,,,,,,,,,,,,,,,,,,,,,,,,,,,,,,,,,,,,,,,,,,,,,3,2024-01-16_11h32.44.481,watkins1,2023.2.3,99.71660524665177,90,2024-01-16 11h32.52.128726 +0000,
,,,,,,,,,,,26,0,26,0,,,,,,,,,,,,,424.16095620021224,,,,,,,,,,424.15282509988174,424.64292389992625,,,[],[],,,,,,,,,,,strahlend,None,None,,,,,,,,,,Blume,strahlend,"['Blume', 'strahlend']",test_adj,3,,,,,,424.1527599999681,424.1527972999029,"['Rucksack', 'Socke', 'Jacke', 'Stift', 'Geige', 'Flasche', 'Tasche', 'Buch', 'Hut', 'Eimer', 'Telefon', 'Schlüssel', 'Schere', 'Kiste', 'Tasse', 'Kamera', 'Bürste', 'Würfel', 'Uhr', 'Hammer', 'Kerze', 'Brille', 'Löffel', 'Kette', 'Vase', 'Fahrrad', 'Blume', 'Lampe', 'Ring', 'Trommel']",424.6429345002398,424.64560429984704,None,424.64573010010645,424.648232200183,None,424.6483410000801,424.6508196000941,None,424.6509273000993,0,430.6549637001008,430.6549778999761,430.6563559998758,,,,,,,,,,,,,,,,,,,,,,,,,,,,,,,,,,,,,,,,,,,,,,,,3,2024-01-16_11h32.44.481,watkins1,2023.2.3,99.71660524665177,90,2024-01-16 11h32.52.128726 +0000,
,,,,,,,,,,,27,0,27,0,,,,,,,,,,,,,430.6647618999705,,,,,,,,,,430.65663979994133,431.1466434998438,,,[],[],,,,,,,,,,,,None,None,,,,,,,,,,Lampe,hübsch,"['Lampe', 'hübsch']",restudy,3,,,,,,430.65657069999725,430.65661060018465,"['Rucksack', 'Socke', 'Jacke', 'Stift', 'Geige', 'Flasche', 'Tasche', 'Buch', 'Hut', 'Eimer', 'Telefon', 'Schlüssel', 'Schere', 'Kiste', 'Tasse', 'Kamera', 'Bürste', 'Würfel', 'Uhr', 'Hammer', 'Kerze', 'Brille', 'Löffel', 'Kette', 'Vase', 'Fahrrad', 'Blume', 'Lampe', 'Ring', 'Trommel']",431.1466541001573,431.1494044000283,None,431.1495304000564,437.1581252999604,3,437.15842129988596,437.16114680003375,None,437.1612598001957,,437.16276839980856,437.16278020013124,437.16411100002006,1.2153590000234544,None,,,,,,,,,,,,,,,,,,,,,,,,,,,,,,,,,,,,,,,,,,,,,,3,2024-01-16_11h32.44.481,watkins1,2023.2.3,99.71660524665177,90,2024-01-16 11h32.52.128726 +0000,
,,,,,,,,,,,28,0,28,0,,,,,,,,,,,,,437.1676533999853,,,,,,,,,,437.16439219983295,437.65965209994465,,,[],[],,,,,,,,,,,alt,None,None,,,,,,,,,,Ring,hässlich,"['Ring', 'hässlich']",test_adj,3,,,,,,437.1643241001293,437.1643627998419,"['Rucksack', 'Socke', 'Jacke', 'Stift', 'Geige', 'Flasche', 'Tasche', 'Buch', 'Hut', 'Eimer', 'Telefon', 'Schlüssel', 'Schere', 'Kiste', 'Tasse', 'Kamera', 'Bürste', 'Würfel', 'Uhr', 'Hammer', 'Kerze', 'Brille', 'Löffel', 'Kette', 'Vase', 'Fahrrad', 'Blume', 'Lampe', 'Ring', 'Trommel']",437.6596630997956,437.66226649982855,None,437.662391200196,437.66371880006045,None,437.6638273000717,437.66514849988744,None,437.66525720013306,0,443.667243800126,443.6672578002326,443.6686058999039,,,,,,,,,,,,,,,,,,,,,,,,,,,,,,,,,,,,,,,,,,,,,,,,3,2024-01-16_11h32.44.481,watkins1,2023.2.3,99.71660524665177,90,2024-01-16 11h32.52.128726 +0000,
,,,,,,,,,,,29,0,29,0,,,,,,,,,,,,,443.6770517998375,,,,,,,,,,443.66889410000294,444.15904559986666,,,[],[],,,,,,,,,,,,None,None,,,,,,,,,,Trommel,elegant,"['Trommel', 'elegant']",restudy,3,,,,,,443.66882679983974,443.6688648997806,"['Rucksack', 'Socke', 'Jacke', 'Stift', 'Geige', 'Flasche', 'Tasche', 'Buch', 'Hut', 'Eimer', 'Telefon', 'Schlüssel', 'Schere', 'Kiste', 'Tasse', 'Kamera', 'Bürste', 'Würfel', 'Uhr', 'Hammer', 'Kerze', 'Brille', 'Löffel', 'Kette', 'Vase', 'Fahrrad', 'Blume', 'Lampe', 'Ring', 'Trommel']",444.15905519993976,444.1618878999725,None,444.1620093001984,450.1651702998206,2,450.1654691998847,450.16826590010896,None,450.1683797999285,,450.16990670002997,450.1699183001183,450.1712528001517,1.8350586998276412,None,,,,,,,,,,,,,,,,,,,,,,,,,,,,,,,,,,,,,,,,,,,,,,3,2024-01-16_11h32.44.481,watkins1,2023.2.3,99.71660524665177,90,2024-01-16 11h32.52.128726 +0000,
,,,,,,,,,,,,,,,,,,,,,,,,,,,,,,,,,,,,,,,,,,,,,,,,,,,,,,,,,,,,,,,,,,,,,3,,,,,,,,,,,,,,,,,,,,,,,,,,,,,,,,,,,,,,,,,,,,,,,,,,,,,,,,,,,,,,,,,,,,,,3,2024-01-16_11h32.44.481,watkins1,2023.2.3,99.71660524665177,90,2024-01-16 11h32.52.128726 +0000,
(7 x 6) + 9 = 48 ,Incorrect,button_incorrect,,,,,,,,,,,,,0,0,0,9,,,,,,,,,478.80277279997244,,,,,,,,477.771566899959,478.7750828000717,,,,,['button_incorrect'],[4.993058399762958],,,,,,,,,,,,,,,,,,,,,,,,,,distractorTask,3,,,,,,,,,,,,,,,,,,,,,,,,,478.79109439998865,478.80277279997244,483.7894978001714,[-0.33425925925925926],[-0.40555555555555556],[1],[0],[0],[4.993058399762958],['button_incorrect'],483.79015649994835,484.7929867999628,,,,,,,,,,,,,,,,,,,,,,,,,,,,,,,,,,3,2024-01-16_11h32.44.481,watkins1,2023.2.3,99.71660524665177,90,2024-01-16 11h32.52.128726 +0000,
(40 : 5) + 8 = 15 ,Incorrect,button_incorrect,,,,,,,,,,,,,0,1,1,7,,,,,,,,,484.80294180009514,,,,,,,,,,,,,,['button_incorrect'],[4.173837900161743],,,,,,,,,,,,,,,,,,,,,,,,,,distractorTask,3,,,,,,,,,,,,,,,,,,,,,,,,,484.79318829998374,484.80294180009514,488.97041120007634,[-0.3435185185185185],[-0.3851851851851852],[1],[0],[0],[4.173837900161743],['button_incorrect'],488.9707837002352,489.9741068999283,,,,,,,,,,,,,,,,,,,,,,,,,,,,,,,,,,3,2024-01-16_11h32.44.481,watkins1,2023.2.3,99.71660524665177,90,2024-01-16 11h32.52.128726 +0000,
(4 : 2) + 4 = 6 ,Correct,button_correct,,,,,,,,,,,,,0,2,2,1,,,,,,,,,489.98408460011706,,,,,,,,,,,,,,['button_correct'],[2.29726260015741],,,,,,,,,,,,,,,,,,,,,,,,,,distractorTask,3,,,,,,,,,,,,,,,,,,,,,,,,,489.9742958000861,489.98408460011706,492.2736800001003,[0.39537037037037037],[-0.4185185185185185],[1],[0],[0],[2.29726260015741],['button_correct'],492.27405699994415,493.2772812000476,,,,,,,,,,,,,,,,,,,,,,,,,,,,,,,,,,3,2024-01-16_11h32.44.481,watkins1,2023.2.3,99.71660524665177,90,2024-01-16 11h32.52.128726 +0000,
(54 : 6) - 10 = 0 ,Incorrect,button_incorrect,,,,,,,,,,,,,0,3,3,5,,,,,,,,,493.2873741001822,,,,,,,,,,,,,,['button_incorrect'],[4.194848400074989],,,,,,,,,,,,,,,,,,,,,,,,,,distractorTask,3,,,,,,,,,,,,,,,,,,,,,,,,,493.27746829995885,493.2873741001822,497.4746082001366,[-0.27685185185185185],[-0.4064814814814815],[1],[0],[0],[4.194848400074989],['button_incorrect'],497.47499109990895,498.47835640003905,,,,,,,,,,,,,,,,,,,,,,,,,,,,,,,,,,3,2024-01-16_11h32.44.481,watkins1,2023.2.3,99.71660524665177,90,2024-01-16 11h32.52.128726 +0000,
(9 x 5) - 9 = 36 ,Correct,button_correct,,,,,,,,,,,,,0,4,4,4,,,,,,,,,498.48830270022154,,,,,,,,,,,,,,['button_correct'],[4.616672799922526],,,,,,,,,,,,,,,,,,,,,,,,,,distractorTask,3,,,,,,,,,,,,,,,,,,,,,,,,,498.4785501002334,498.48830270022154,503.0978043000214,[0.33611111111111114],[-0.41388888888888886],[1],[0],[0],[4.616672799922526],['button_correct'],503.0981924999505,504.10152410017326,,,,,,,,,,,,,,,,,,,,,,,,,,,,,,,,,,3,2024-01-16_11h32.44.481,watkins1,2023.2.3,99.71660524665177,90,2024-01-16 11h32.52.128726 +0000,
(80 : 10) + 9 = 17 ,Correct,button_correct,,,,,,,,,,,,,0,5,5,3,,,,,,,,,504.11147279990837,,,,,,,,,,,,,,['button_correct'],[2.568545199930668],,,,,,,,,,,,,,,,,,,,,,,,,,distractorTask,3,,,,,,,,,,,,,,,,,,,,,,,,,504.1017239000648,504.11147279990837,506.67232469981536,[0.2833333333333333],[-0.38333333333333336],[1],[0],[0],[2.568545199930668],['button_correct'],506.67270640004426,507.67573239980265,,,,,,,,,,,,,,,,,,,,,,,,,,,,,,,,,,3,2024-01-16_11h32.44.481,watkins1,2023.2.3,99.71660524665177,90,2024-01-16 11h32.52.128726 +0000,
(2 x 5) + 3 = 13 ,Correct,button_correct,,,,,,,,,,,,,0,6,6,2,,,,,,,,,507.68581350008026,,,,,,,,,,,,,,['button_correct'],[1.5347901997156441],,,,,,,,,,,,,,,,,,,,,,,,,,distractorTask,3,,,,,,,,,,,,,,,,,,,,,,,,,507.67592060007155,507.68581350008026,509.2124795001,[0.2916666666666667],[-0.39166666666666666],[1],[0],[0],[1.5347901997156441],['button_correct'],509.2128554000519,510.2160304998979,,,,,,,,,,,,,,,,,,,,,,,,,,,,,,,,,,3,2024-01-16_11h32.44.481,watkins1,2023.2.3,99.71660524665177,90,2024-01-16 11h32.52.128726 +0000,
(25 : 5) + 5 = 9 ,Incorrect,button_incorrect,,,,,,,,,,,,,0,7,7,6,,,,,,,,,510.226012900006,,,,,,,,,,,,,,['button_incorrect'],[2.0569271999411285],,,,,,,,,,,,,,,,,,,,,,,,,,distractorTask,3,,,,,,,,,,,,,,,,,,,,,,,,,510.216214899905,510.226012900006,512.2748588998802,[-0.32222222222222224],[-0.39814814814814814],[1],[0],[0],[2.0569271999411285],['button_incorrect'],512.2752396999858,513.2784070000052,,,,,,,,,,,,,,,,,,,,,,,,,,,,,,,,,,3,2024-01-16_11h32.44.481,watkins1,2023.2.3,99.71660524665177,90,2024-01-16 11h32.52.128726 +0000,
(28 : 7) - 3 = 1 ,Correct,button_correct,,,,,,,,,,,,,0,8,8,0,,,,,,,,,513.288399099838,,,,,,,,,,,,,,['button_incorrect'],[3.4526871000416577],,,,,,,,,,,,,,,,,,,,,,,,,,distractorTask,3,,,,,,,,,,,,,,,,,,,,,,,,,513.2785960999317,513.288399099838,516.7330172997899,[-0.3638888888888889],[-0.38796296296296295],[1],[0],[0],[3.4526871000416577],['button_incorrect'],516.7333949999884,517.7366598998196,,,,,,,,,,,,,,,,,,,,,,,,,,,,,,,,,,3,2024-01-16_11h32.44.481,watkins1,2023.2.3,99.71660524665177,90,2024-01-16 11h32.52.128726 +0000,
(6 x 3) + 10 = 27 ,Incorrect,button_incorrect,,,,,,,,,,,,,0,9,9,8,,,,,,,,,517.7466067001224,,,,,,,,,,,,,,['button_incorrect'],[4.054667099844664],,,,,,,,,,,,,,,,,,,,,,,,,,distractorTask,3,,,,,,,,,,,,,,,,,,,,,,,,,517.736852100119,517.7466067001224,521.7932608998381,[-0.35648148148148145],[-0.3814814814814815],[1],[0],[0],[4.054667099844664],['button_incorrect'],521.793637599796,522.7969117998146,,,,,,,,,,,,,,,,,,,,,,,,,,,,,,,,,,3,2024-01-16_11h32.44.481,watkins1,2023.2.3,99.71660524665177,90,2024-01-16 11h32.52.128726 +0000,
,,,,,,,,,,,,,,,,,,,,,,,,,,,,,,,,,,,,,,,,,,,,,,,,,,,,,,,,,,,,,,,,,,,,,3,,,,,,,,,,,,,,,,,,,,,,,,,,,,,,,,,,,,,,,,,,,,,,,,,,,,,,,,,,,,,,,,,,,,,,3,2024-01-16_11h32.44.481,watkins1,2023.2.3,99.71660524665177,90,2024-01-16 11h32.52.128726 +0000,
,,,,,,,,,,,,,,,,,,,0,0,0,0,,,,,533.2681271000765,,,,,,,,,,,,,,Tasse,4.373499499633908,,,,,,,,,,,,2.8209850997664034,None,,,,,,,,,,,,,freeRecallSub,3,,,,,,,,,,,,,,,,,,,,,,,,,,,,,,,,,,,,,533.2592225000262,533.2681271000765,533.2681271000765,537.6462274999358,return,4.373499499633908,None,Tasse,[0.016666666666666666],[0.04259259259259259],[1],[0],[0],[1.5754439001902938],[],,,,,,,,,,,,,,,,,,,3,2024-01-16_11h32.44.481,watkins1,2023.2.3,99.71660524665177,90,2024-01-16 11h32.52.128726 +0000,
,,,,,,,,,,,,,,,,,,,1,0,1,0,,,,,537.6586384000257,,,,,,,,,,,,,,Löffel,2.0309015000239015,,,,,,,,,,,,0.5848044999875128,None,,,,,,,,,,,,,freeRecallSub,3,,,,,,,,,,,,,,,,,,,,,,,,,,,,,,,,,,,,,537.648012700025,537.6586384000257,537.6586384000257,539.6988869998604,return,2.0309015000239015,None,Löffel,[],[],[],[],[],[],[],,,,,,,,,,,,,,,,,,,3,2024-01-16_11h32.44.481,watkins1,2023.2.3,99.71660524665177,90,2024-01-16 11h32.52.128726 +0000,
,,,,,,,,,,,,,,,,,,,2,0,2,0,,,,,539.7096064002253,,,,,,,,,,,,,,Geige,1.0118658998981118,,,,,,,,,,,,0.17040230007842183,None,,,,,,,,,,,,,freeRecallSub,3,,,,,,,,,,,,,,,,,,,,,,,,,,,,,,,,,,,,,539.7001295997761,539.7096064002253,539.7096064002253,540.7239915998653,return,1.0118658998981118,None,Geige,[],[],[],[],[],[],[],,,,,,,,,,,,,,,,,,,3,2024-01-16_11h32.44.481,watkins1,2023.2.3,99.71660524665177,90,2024-01-16 11h32.52.128726 +0000,
,,,,,,,,,,,,,,,,,,,3,0,3,0,,,,,540.7349469000474,,,,,,,,,,,,,,Uhr,0.9386542001739144,,,,,,,,,,,,0.19113609986379743,None,,,,,,,,,,,,,freeRecallSub,3,,,,,,,,,,,,,,,,,,,,,,,,,,,,,,,,,,,,,540.7252298002131,540.7349469000474,540.7349469000474,541.6795895998366,return,0.9386542001739144,None,Uhr,[],[],[],[],[],[],[],,,,,,,,,,,,,,,,,,,3,2024-01-16_11h32.44.481,watkins1,2023.2.3,99.71660524665177,90,2024-01-16 11h32.52.128726 +0000,
,,,,,,,,,,,,,,,,,,,4,0,4,0,,,,,541.6905831000768,,,,,,,,,,,,,,Fahrrad,4.175048999954015,,,,,,,,,,,,0.2012331997975707,None,,,,,,,,,,,,,freeRecallSub,3,,,,,,,,,,,,,,,,,,,,,,,,,,,,,,,,,,,,,541.6808155998588,541.6905831000768,541.6905831000768,545.8681870000437,return,4.175048999954015,None,Fahrrad,[],[],[],[],[],[],[],,,,,,,,,,,,,,,,,,,3,2024-01-16_11h32.44.481,watkins1,2023.2.3,99.71660524665177,90,2024-01-16 11h32.52.128726 +0000,
,,,,,,,,,,,,,,,,,,,5,0,5,0,,,,,545.8796247998253,,,,,,,,,,,,,,Schlüssel,3.433903600089252,,,,,,,,,,,,1.4372684000991285,None,,,,,,,,,,,,,freeRecallSub,3,,,,,,,,,,,,,,,,,,,,,,,,,,,,,,,,,,,,,545.8694416000508,545.8796247998253,545.8796247998253,549.3149517998099,return,3.433903600089252,None,Schlüssel,[],[],[],[],[],[],[],,,,,,,,,,,,,,,,,,,3,2024-01-16_11h32.44.481,watkins1,2023.2.3,99.71660524665177,90,2024-01-16 11h32.52.128726 +0000,
,,,,,,,,,,,,,,,,,,,6,0,6,0,,,,,549.3266039998271,,,,,,,,,,,,,,Tasche,1.3950032996945083,,,,,,,,,,,,0.21262439992278814,None,,,,,,,,,,,,,freeRecallSub,3,,,,,,,,,,,,,,,,,,,,,,,,,,,,,,,,,,,,,549.3162004998885,549.3266039998271,549.3266039998271,550.723785799928,return,1.3950032996945083,None,Tasche,[],[],[],[],[],[],[],,,,,,,,,,,,,,,,,,,3,2024-01-16_11h32.44.481,watkins1,2023.2.3,99.71660524665177,90,2024-01-16 11h32.52.128726 +0000,
,,,,,,,,,,,,,,,,,,,7,0,7,0,,,,,550.7352293999866,,,,,,,,,,,,,,Rucksack,4.914278199896216,,,,,,,,,,,,0.20189560018479824,None,,,,,,,,,,,,,freeRecallSub,3,,,,,,,,,,,,,,,,,,,,,,,,,,,,,,,,,,,,,550.725238500163,550.7352293999866,550.7352293999866,555.656484299805,return,4.914278199896216,None,Rucksack,[],[],[],[],[],[],[],,,,,,,,,,,,,,,,,,,3,2024-01-16_11h32.44.481,watkins1,2023.2.3,99.71660524665177,90,2024-01-16 11h32.52.128726 +0000,
,,,,,,,,,,,,,,,,,,,8,0,8,0,,,,,555.6687507000752,,,,,,,,,,,,,,Hut,1.412781700026244,,,,,,,,,,,,0.7357512000016868,None,,,,,,,,,,,,,freeRecallSub,3,,,,,,,,,,,,,,,,,,,,,,,,,,,,,,,,,,,,,555.6577357999049,555.6687507000752,555.6687507000752,557.0865166001022,return,1.412781700026244,None,Hut,[],[],[],[],[],[],[],,,,,,,,,,,,,,,,,,,3,2024-01-16_11h32.44.481,watkins1,2023.2.3,99.71660524665177,90,2024-01-16 11h32.52.128726 +0000,
,,,,,,,,,,,,,,,,,,,9,0,9,0,,,,,557.0988226002082,,,,,,,,,,,,,,Jacke,1.4788203001953661,,,,,,,,,,,,0.1837881999090314,None,,,,,,,,,,,,,freeRecallSub,3,,,,,,,,,,,,,,,,,,,,,,,,,,,,,,,,,,,,,557.0877546998672,557.0988226002082,557.0988226002082,558.586821500212,return,1.4788203001953661,None,Jacke,[],[],[],[],[],[],[],,,,,,,,,,,,,,,,,,,3,2024-01-16_11h32.44.481,watkins1,2023.2.3,99.71660524665177,90,2024-01-16 11h32.52.128726 +0000,
,,,,,,,,,,,,,,,,,,,10,0,10,0,,,,,558.5989171001129,,,,,,,,,,,,,,Ring,3.122651499696076,,,,,,,,,,,,2.2614640998654068,None,,,,,,,,,,,,,freeRecallSub,3,,,,,,,,,,,,,,,,,,,,,,,,,,,,,,,,,,,,,558.5880676000379,558.5989171001129,558.5989171001129,561.7230866001919,return,3.122651499696076,None,Ring,[],[],[],[],[],[],[],,,,,,,,,,,,,,,,,,,3,2024-01-16_11h32.44.481,watkins1,2023.2.3,99.71660524665177,90,2024-01-16 11h32.52.128726 +0000,
,,,,,,,,,,,,,,,,,,,11,0,11,0,,,,,561.7357291998342,,,,,,,,,,,,,,Kette,1.033862099982798,,,,,,,,,,,,0.12395879998803139,None,,,,,,,,,,,,,freeRecallSub,3,,,,,,,,,,,,,,,,,,,,,,,,,,,,,,,,,,,,,561.7243286999874,561.7357291998342,561.7357291998342,562.7723857001401,return,1.033862099982798,None,Kette,[],[],[],[],[],[],[],,,,,,,,,,,,,,,,,,,3,2024-01-16_11h32.44.481,watkins1,2023.2.3,99.71660524665177,90,2024-01-16 11h32.52.128726 +0000,
,,,,,,,,,,,,,,,,,,,12,0,12,0,,,,,562.7854514000937,,,,,,,,,,,,,,Blume,10.840150800067931,,,,,,,,,,,,8.076902000233531,None,,,,,,,,,,,,,freeRecallSub,3,,,,,,,,,,,,,,,,,,,,,,,,,,,,,,,,,,,,,562.7736272001639,562.7854514000937,562.7854514000937,573.6318743000738,return,10.840150800067931,None,Blume,[],[],[],[],[],[],[],,,,,,,,,,,,,,,,,,,3,2024-01-16_11h32.44.481,watkins1,2023.2.3,99.71660524665177,90,2024-01-16 11h32.52.128726 +0000,
,,,,,,,,,,,,,,,,,,,13,0,13,0,,,,,573.6449122000486,,,,,,,,,,,,,,Flasche,32.64460620004684,,,,,,,,,,,,3.377950499765575,None,,,,,,,,,,,,,freeRecallSub,3,,,,,,,,,,,,,,,,,,,,,,,,,,,,,,,,,,,,,573.6331302998587,573.6449122000486,573.6449122000486,606.2906193002127,return,32.64460620004684,None,Flasche,[],[],[],[],[],[],[],,,,,,,,,,,,,,,,,,,3,2024-01-16_11h32.44.481,watkins1,2023.2.3,99.71660524665177,90,2024-01-16 11h32.52.128726 +0000,
,,,,,,,,,,,,,,,,,,,14,0,14,0,,,,,606.303359599784,,,,,,,,,,,,,,Buch,5.506260899826884,,,,,,,,,,,,4.030135000124574,None,,,,,,,,,,,,,freeRecallSub,3,,,,,,,,,,,,,,,,,,,,,,,,,,,,,,,,,,,,,606.2918936000206,606.303359599784,606.303359599784,611.8179513001814,return,5.506260899826884,None,Buch,[],[],[],[],[],[],[],,,,,,,,,,,,,,,,,,,3,2024-01-16_11h32.44.481,watkins1,2023.2.3,99.71660524665177,90,2024-01-16 11h32.52.128726 +0000,
,,,,,,,,,,,,,,,,,,,15,0,15,0,,,,,611.8309952998534,,,,,,,,,,,,,,Hammer,10.210560000035912,,,,,,,,,,,,9.030875999946147,None,,,,,,,,,,,,,freeRecallSub,3,,,,,,,,,,,,,,,,,,,,,,,,,,,,,,,,,,,,,611.8193789999932,611.8309952998534,611.8309952998534,622.044972000178,return,10.210560000035912,None,Hammer,[],[],[],[],[],[],[],,,,,,,,,,,,,,,,,,,3,2024-01-16_11h32.44.481,watkins1,2023.2.3,99.71660524665177,90,2024-01-16 11h32.52.128726 +0000,
,,,,,,,,,,,,,,,,,,,16,0,16,0,,,,,622.0582718998194,,,,,,,,,,,,,,Schere,62.855190800037235,,,,,,,,,,,,61.64500380028039,None,,,,,,,,,,,,,freeRecallSub,3,,,,,,,,,,,,,,,,,,,,,,,,,,,,,,,,,,,,,622.0462249000557,622.0582718998194,622.0582718998194,684.9162750001997,return,62.855190800037235,None,Schere,[],[],[],[],[],[],[],,,,,,,,,,,,,,,,,,,3,2024-01-16_11h32.44.481,watkins1,2023.2.3,99.71660524665177,90,2024-01-16 11h32.52.128726 +0000,
,,,,,,,,,,,,,,,,,,,17,0,17,0,,,,,684.9296625000425,,,,,,,,,,,,,,Brille,4.463832400273532,,,,,,,,,,,,3.32818750012666,None,,,,,,,,,,,,,freeRecallSub,3,,,,,,,,,,,,,,,,,,,,,,,,,,,,,,,,,,,,,684.9175358000211,684.9296625000425,684.9296625000425,689.400619099848,return,4.463832400273532,None,Brille,[],[],[],[],[],[],[],,,,,,,,,,,,,,,,,,,3,2024-01-16_11h32.44.481,watkins1,2023.2.3,99.71660524665177,90,2024-01-16 11h32.52.128726 +0000,
,,,,,,,,,,,,,,,,,,,18,0,18,0,,,,,689.4141166000627,,,,,,,,,,,,,,Würfel,34.54740480007604,,,,,,,,,,,,33.260067800059915,None,,,,,,,,,,,,,freeRecallSub,3,,,,,,,,,,,,,,,,,,,,,,,,,,,,,,,,,,,,,689.401840900071,689.4141166000627,689.4141166000627,723.9672229997814,return,34.54740480007604,None,Würfel,[],[],[],[],[],[],[],,,,,,,,,,,,,,,,,,,3,2024-01-16_11h32.44.481,watkins1,2023.2.3,99.71660524665177,90,2024-01-16 11h32.52.128726 +0000,
,,,,,,,,,,,,,,,,,,,19,0,19,0,,,,,723.9815495000221,,,,,,,,,,,,,,Kiste,3.940018600318581,,,,,,,,,,,,1.6436789999715984,None,,,,,,,,,,,,,freeRecallSub,3,,,,,,,,,,,,,,,,,,,,,,,,,,,,,,,,,,,,,723.9684871998616,723.9815495000221,723.9815495000221,727.9314383999445,return,3.940018600318581,None,Kiste,[],[],[],[],[],[],[],,,,,,,,,,,,,,,,,,,3,2024-01-16_11h32.44.481,watkins1,2023.2.3,99.71660524665177,90,2024-01-16 11h32.52.128726 +0000,
,,,,,,,,,,,,,,,,,,,20,0,20,0,,,,,727.9455094998702,,,,,,,,,,,,,,Stift,18.648101599887013,,,,,,,,,,,,17.33706369996071,None,,,,,,,,,,,,,freeRecallSub,3,,,,,,,,,,,,,,,,,,,,,,,,,,,,,,,,,,,,,727.9326484999619,727.9455094998702,727.9455094998702,746.5954331001267,return,18.648101599887013,None,Stift,[],[],[],[],[],[],[],,,,,,,,,,,,,,,,,,,3,2024-01-16_11h32.44.481,watkins1,2023.2.3,99.71660524665177,90,2024-01-16 11h32.52.128726 +0000,
,,,,,,,,,,,,,,,,,,,21,0,21,0,,,,,746.6095535000786,,,,,,,,,,,,,,Telefon,60.728056400083005,,,,,,,,,,,,54.426213999744505,None,,,,,,,,,,,,,freeRecallSub,3,,,,,,,,,,,,,,,,,,,,,,,,,,,,,,,,,,,,,746.5966440998018,746.6095535000786,746.6095535000786,807.3381857001223,return,60.728056400083005,None,Telefon,[],[],[],[],[],[],[],,,,,,,,,,,,,,,,,,,3,2024-01-16_11h32.44.481,watkins1,2023.2.3,99.71660524665177,90,2024-01-16 11h32.52.128726 +0000,
,,,,,,,,,,,,,,,,,,,22,0,22,0,,,,,807.3535294001922,,,,,,,,,,,,,,Lampe,55.01605980005115,,,,,,,,,,,,53.45815350022167,None,,,,,,,,,,,,,freeRecallSub,3,,,,,,,,,,,,,,,,,,,,,,,,,,,,,,,,,,,,,807.3394716000184,807.3535294001922,807.3535294001922,862.3741834000684,return,55.01605980005115,None,Lampe,[],[],[],[],[],[],[],,,,,,,,,,,,,,,,,,,3,2024-01-16_11h32.44.481,watkins1,2023.2.3,99.71660524665177,90,2024-01-16 11h32.52.128726 +0000,
,,,,,,,,,,,,,,,,,,,23,0,23,0,,,,,862.3896575998515,,,,,,,,,,,,,,Kerze,4.1878545000217855,,,,,,,,,,,,3.2928313999436796,None,,,,,,,,,,,,,freeRecallSub,3,,,,,,,,,,,,,,,,,,,,,,,,,,,,,,,,,,,,,862.3754413002171,862.3896575998515,862.3896575998515,866.5820871000178,return,4.1878545000217855,None,Kerze,[],[],[],[],[],[],[],,,,,,,,,,,,,,,,,,,3,2024-01-16_11h32.44.481,watkins1,2023.2.3,99.71660524665177,90,2024-01-16 11h32.52.128726 +0000,
,,,,,,,,,,,,,,,,,,,24,0,24,0,,,,,866.5977845001034,,,,,,,,,,,,,,Vase,82.52387510007247,,,,,,,,,,,,81.66003309981897,None,,,,,,,,,,,,,freeRecallSub,3,,,,,,,,,,,,,,,,,,,,,,,,,,,,,,,,,,,,,866.5833156001754,866.5977845001034,866.5977845001034,949.1271115001291,return,82.52387510007247,None,Vase,[],[],[],[],[],[],[],,,,,,,,,,,,,,,,,,,3,2024-01-16_11h32.44.481,watkins1,2023.2.3,99.71660524665177,90,2024-01-16 11h32.52.128726 +0000,
,,,,,,,,,,,,,,,,,,,25,0,25,0,,,,,949.142831500154,,,,,,,,,,,,,,,[],,,,,,,,,,,,None,None,,,,,,,,,,,,,freeRecallSub,3,,,,,,,,,,,,,,,,,,,,,,,,,,,,,,,,,,,,,949.1283829999156,949.142831500154,949.142831500154,979.6021111998707,None,,,,[0.3611111111111111],[-0.40925925925925927],[1],[0],[0],[30.465479400008917],"['button_continue', 'continue_text']",,,,,,,,,,,,,,,,,,,3,2024-01-16_11h32.44.481,watkins1,2023.2.3,99.71660524665177,90,2024-01-16 11h32.52.128726 +0000,
,,,,,,,,,,,,,,,,,,,,,,,,,,,,,,,,,,,,,,,,,,,,,,,,,,,,,,,,,,,,,,,,,,,,,3,,,,,,,,,,,,,,,,,,,,,,,,,,,,,,,,,,,,,,,,,,,,,,,,,,,,,,,,,,,,,,,,,,,,,,3,2024-01-16_11h32.44.481,watkins1,2023.2.3,99.71660524665177,90,2024-01-16 11h32.52.128726 +0000,
,,,,,,,,,,,,,,,,,,,,,,,0,0,0,0,984.6821475001052,,,,,,,,,,987.4071666002274,987.9051978001371,,,,2.7194609995931387,,,,,,,,,,,,None,None,,,,,,,,,,Telefon,,,cuedRecallAdj,3,,,,,,,,,,,,,,,,,,,0,,,,,,,,,,,,,,,,,,,,,,,,,,,,,,,,,984.6730106999166,984.6821475001052,984.6821475001052,987.4035819000565,nass,return,2.7194609995931387,None,987.4039595997892,987.4131426000968,987.4131426000968,987.4070211998187,,None,,,,,3,2024-01-16_11h32.44.481,watkins1,2023.2.3,99.71660524665177,90,2024-01-16 11h32.52.128726 +0000,
,,,,,,,,,,,,,,,,,,,,,,,1,0,1,0,987.9151109000668,,,,,,,,,,993.2601069002412,993.7589353001676,,,,5.334475500043482,,,,,,,,,,,,None,None,,,,,,,,,,Kiste,,,cuedRecallAdj,3,,,,,,,,,,,,,,,,,,,0,,,,,,,,,,,,,,,,,,,,,,,,,,,,,,,,,987.9054355002008,987.9151109000668,987.9151109000668,993.2571236998774,sportlich,return,5.334475500043482,None,993.2573838001117,993.2668034001254,993.2668034001254,993.2600083001889,,None,,,,,3,2024-01-16_11h32.44.481,watkins1,2023.2.3,99.71660524665177,90,2024-01-16 11h32.52.128726 +0000,
,,,,,,,,,,,,,,,,,,,,,,,2,0,2,0,993.7688899999484,,,,,,,,,,997.0453483001329,997.5442197998054,,,,3.2646980001591146,,,,,,,,,,,,None,None,,,,,,,,,,Tasse,,,cuedRecallAdj,3,,,,,,,,,,,,,,,,,,,0,,,,,,,,,,,,,,,,,,,,,,,,,,,,,,,,,993.7591813001782,993.7688899999484,993.7688899999484,997.0423595998436,glänzend,return,3.2646980001591146,None,997.0426258002408,997.0520386002026,997.0520386002026,997.0452502002008,,None,,,,,3,2024-01-16_11h32.44.481,watkins1,2023.2.3,99.71660524665177,90,2024-01-16 11h32.52.128726 +0000,
,,,,,,,,,,,,,,,,,,,,,,,3,0,3,0,997.554115400184,,,,,,,,,,999.7963788998313,1000.295304399915,,,,2.231483700219542,,,,,,,,,,,,None,None,,,,,,,,,,Vase,,,cuedRecallAdj,3,,,,,,,,,,,,,,,,,,,0,,,,,,,,,,,,,,,,,,,,,,,,,,,,,,,,,997.5444609997794,997.554115400184,997.554115400184,999.793665099889,hohl,return,2.231483700219542,None,999.7939319000579,999.8034530999139,999.8034530999139,999.7962775002234,,None,,,,,3,2024-01-16_11h32.44.481,watkins1,2023.2.3,99.71660524665177,90,2024-01-16 11h32.52.128726 +0000,
,,,,,,,,,,,,,,,,,,,,,,,4,0,4,0,1000.3052691998892,,,,,,,,,,1002.4476708997972,1002.9462272999808,,,,2.1363552999682724,,,,,,,,,,,,None,None,,,,,,,,,,Schere,,,cuedRecallAdj,3,,,,,,,,,,,,,,,,,,,0,,,,,,,,,,,,,,,,,,,,,,,,,,,,,,,,,1000.2955554001965,1000.3052691998892,1000.3052691998892,1002.4446120997891,kratzig,return,2.1363552999682724,None,1002.4448739998043,1002.4541504001245,1002.4541504001245,1002.4475704999641,,None,,,,,3,2024-01-16_11h32.44.481,watkins1,2023.2.3,99.71660524665177,90,2024-01-16 11h32.52.128726 +0000,
,,,,,,,,,,,,,,,,,,,,,,,5,0,5,0,1002.9561151000671,,,,,,,,,,1004.7868876000866,1005.2856391998939,,,,1.8214098000898957,,,,,,,,,,,,None,None,,,,,,,,,,Stift,,,cuedRecallAdj,3,,,,,,,,,,,,,,,,,,,0,,,,,,,,,,,,,,,,,,,,,,,,,,,,,,,,,1002.9464759998955,1002.9561151000671,1002.9561151000671,1004.7839851002209,zart,return,1.8214098000898957,None,1004.7842484000139,1004.7935579000041,1004.7935579000041,1004.7867125999182,,None,,,,,3,2024-01-16_11h32.44.481,watkins1,2023.2.3,99.71660524665177,90,2024-01-16 11h32.52.128726 +0000,
,,,,,,,,,,,,,,,,,,,,,,,6,0,6,0,1005.2955931001343,,,,,,,,,,1019.9181645000353,1020.4166132002138,,,,14.617941100150347,,,,,,,,,,,,None,None,,,,,,,,,,Trommel,,,cuedRecallAdj,3,,,,,,,,,,,,,,,,,,,0,,,,,,,,,,,,,,,,,,,,,,,,,,,,,,,,,1005.2858819998801,1005.2955931001343,1005.2955931001343,1019.9149637999944,elegant,return,14.617941100150347,None,1019.915256400127,1019.9246148997918,1019.9246148997918,1019.9180649998598,,None,,,,,3,2024-01-16_11h32.44.481,watkins1,2023.2.3,99.71660524665177,90,2024-01-16 11h32.52.128726 +0000,
,,,,,,,,,,,,,,,,,,,,,,,7,0,7,0,1020.4266595998779,,,,,,,,,,1022.7695259000175,1023.2681510997936,,,,2.3349899002350867,,,,,,,,,,,,None,None,,,,,,,,,,Kerze,,,cuedRecallAdj,3,,,,,,,,,,,,,,,,,,,0,,,,,,,,,,,,,,,,,,,,,,,,,,,,,,,,,1020.4168584002182,1020.4266595998779,1020.4266595998779,1022.7665359000675,dunkel,return,2.3349899002350867,None,1022.7667983002029,1022.7760939002037,1022.7760939002037,1022.7694255998358,,None,,,,,3,2024-01-16_11h32.44.481,watkins1,2023.2.3,99.71660524665177,90,2024-01-16 11h32.52.128726 +0000,
,,,,,,,,,,,,,,,,,,,,,,,8,0,8,0,1023.2781014000066,,,,,,,,,,1027.0867733000778,1027.5854487000033,,,,3.803495599888265,,,,,,,,,,,,None,None,,,,,,,,,,Rucksack,,,cuedRecallAdj,3,,,,,,,,,,,,,,,,,,,0,,,,,,,,,,,,,,,,,,,,,,,,,,,,,,,,,1023.2683926001191,1023.2781014000066,1023.2781014000066,1027.0837745000608,klobig,return,3.803495599888265,None,1027.0840348000638,1027.0933580999263,1027.0933580999263,1027.0866744997911,,None,,,,,3,2024-01-16_11h32.44.481,watkins1,2023.2.3,99.71660524665177,90,2024-01-16 11h32.52.128726 +0000,
,,,,,,,,,,,,,,,,,,,,,,,9,0,9,0,1027.5953970998526,,,,,,,,,,1030.23972029984,1030.7381782000884,,,,2.63811120018363,,,,,,,,,,,,None,None,,,,,,,,,,Hammer,,,cuedRecallAdj,3,,,,,,,,,,,,,,,,,,,0,,,,,,,,,,,,,,,,,,,,,,,,,,,,,,,,,1027.5856980001554,1027.5953970998526,1027.5953970998526,1030.2366146999411,nachhaltig,return,2.63811120018363,None,1030.2368769999593,1030.2461588000879,1030.2461588000879,1030.23962080013,,None,,,,,3,2024-01-16_11h32.44.481,watkins1,2023.2.3,99.71660524665177,90,2024-01-16 11h32.52.128726 +0000,
,,,,,,,,,,,,,,,,,,,,,,,10,0,10,0,1030.7480839001946,,,,,,,,,,1034.055133599788,1034.5534775000997,,,,3.301475199870765,,,,,,,,,,,,None,None,,,,,,,,,,Geige,,,cuedRecallAdj,3,,,,,,,,,,,,,,,,,,,0,,,,,,,,,,,,,,,,,,,,,,,,,,,,,,,,,1030.7384258001111,1030.7480839001946,1030.7480839001946,1034.0518562998623,durchsichtig,return,3.301475199870765,None,1034.0521201002412,1034.0614277999848,1034.0614277999848,1034.0550334001891,,None,,,,,3,2024-01-16_11h32.44.481,watkins1,2023.2.3,99.71660524665177,90,2024-01-16 11h32.52.128726 +0000,
,,,,,,,,,,,,,,,,,,,,,,,11,0,11,0,1034.563473999966,,,,,,,,,,1036.805577099789,1037.3045409000479,,,,2.2300809998996556,,,,,,,,,,,,None,None,,,,,,,,,,Socke,,,cuedRecallAdj,3,,,,,,,,,,,,,,,,,,,0,,,,,,,,,,,,,,,,,,,,,,,,,,,,,,,,,1034.553725299891,1034.563473999966,1034.563473999966,1036.8027045000345,kalt,return,2.2300809998996556,None,1036.8029676000588,1036.8124557998963,1036.8124557998963,1036.8054745001718,,None,,,,,3,2024-01-16_11h32.44.481,watkins1,2023.2.3,99.71660524665177,90,2024-01-16 11h32.52.128726 +0000,
,,,,,,,,,,,,,,,,,,,,,,,12,0,12,0,1037.3145171999931,,,,,,,,,,1041.6055490002036,1042.1042307000607,,,,4.279106899630278,,,,,,,,,,,,None,None,,,,,,,,,,Schlüssel,,,cuedRecallAdj,3,,,,,,,,,,,,,,,,,,,0,,,,,,,,,,,,,,,,,,,,,,,,,,,,,,,,,1037.3047861000523,1037.3145171999931,1037.3145171999931,1041.6025044000708,flach,return,4.279106899630278,None,1041.6027651000768,1041.6122182998806,1041.6122182998806,1041.6054489999078,,None,,,,,3,2024-01-16_11h32.44.481,watkins1,2023.2.3,99.71660524665177,90,2024-01-16 11h32.52.128726 +0000,
,,,,,,,,,,,,,,,,,,,,,,,13,0,13,0,1042.114140199963,,,,,,,,,,1044.888848300092,1045.3873418997973,,,,2.7674924000166357,,,,,,,,,,,,None,None,,,,,,,,,,Lampe,,,cuedRecallAdj,3,,,,,,,,,,,,,,,,,,,0,,,,,,,,,,,,,,,,,,,,,,,,,,,,,,,,,1042.1044759000652,1042.114140199963,1042.114140199963,1044.8858265001327,hübsch,return,2.7674924000166357,None,1044.8860947000794,1044.89538979996,1044.89538979996,1044.8887487999164,,None,,,,,3,2024-01-16_11h32.44.481,watkins1,2023.2.3,99.71660524665177,90,2024-01-16 11h32.52.128726 +0000,
,,,,,,,,,,,,,,,,,,,,,,,14,0,14,0,1045.3972665001638,,,,,,,,,,1047.51964019984,1048.0182893001474,,,,2.1163435000926256,,,,,,,,,,,,None,None,,,,,,,,,,Kamera,,,cuedRecallAdj,3,,,,,,,,,,,,,,,,,,,0,,,,,,,,,,,,,,,,,,,,,,,,,,,,,,,,,1045.3875859999098,1045.3972665001638,1045.3972665001638,1047.5166230001487,winzig,return,2.1163435000926256,None,1047.516890199855,1047.5261798999272,1047.5261798999272,1047.5195377999917,,None,,,,,3,2024-01-16_11h32.44.481,watkins1,2023.2.3,99.71660524665177,90,2024-01-16 11h32.52.128726 +0000,
,,,,,,,,,,,,,,,,,,,,,,,15,0,15,0,1048.02822940005,,,,,,,,,,1051.0143515001982,1051.5129888998345,,,,2.981359400320798,,,,,,,,,,,,None,None,,,,,,,,,,Ring,,,cuedRecallAdj,3,,,,,,,,,,,,,,,,,,,0,,,,,,,,,,,,,,,,,,,,,,,,,,,,,,,,,1048.0185346999206,1048.02822940005,1048.02822940005,1051.0114242001437,hässlich,return,2.981359400320798,None,1051.0116858999245,1051.020975400228,1051.020975400228,1051.0142513001338,,None,,,,,3,2024-01-16_11h32.44.481,watkins1,2023.2.3,99.71660524665177,90,2024-01-16 11h32.52.128726 +0000,
,,,,,,,,,,,,,,,,,,,,,,,16,0,16,0,1051.5230327998288,,,,,,,,,,1054.1369246002287,1054.63560329983,,,,2.6065700999461114,,,,,,,,,,,,None,None,,,,,,,,,,Jacke,,,cuedRecallAdj,3,,,,,,,,,,,,,,,,,,,0,,,,,,,,,,,,,,,,,,,,,,,,,,,,,,,,,1051.513236099854,1051.5230327998288,1051.5230327998288,1054.133979300037,lustig,return,2.6065700999461114,None,1054.1342380000278,1054.1435429998673,1054.1435429998673,1054.136826899834,,None,,,,,3,2024-01-16_11h32.44.481,watkins1,2023.2.3,99.71660524665177,90,2024-01-16 11h32.52.128726 +0000,
,,,,,,,,,,,,,,,,,,,,,,,17,0,17,0,1054.6455562999472,,,,,,,,,,1057.5306052002124,1058.0298712002113,,,,2.876008199993521,,,,,,,,,,,,None,None,,,,,,,,,,Kette,,,cuedRecallAdj,3,,,,,,,,,,,,,,,,,,,0,,,,,,,,,,,,,,,,,,,,,,,,,,,,,,,,,1054.6358447000384,1054.6455562999472,1054.6455562999472,1057.527615699917,niedlich,return,2.876008199993521,None,1057.5278695002198,1057.537108299788,1057.537108299788,1057.5305058998056,,None,,,,,3,2024-01-16_11h32.44.481,watkins1,2023.2.3,99.71660524665177,90,2024-01-16 11h32.52.128726 +0000,
,,,,,,,,,,,,,,,,,,,,,,,18,0,18,0,1058.039815499913,,,,,,,,,,1068.0040572998114,1068.5030152001418,,,,9.953785300254822,,,,,,,,,,,,None,None,,,,,,,,,,Brille,,,cuedRecallAdj,3,,,,,,,,,,,,,,,,,,,0,,,,,,,,,,,,,,,,,,,,,,,,,,,,,,,,,1058.0301165999845,1058.039815499913,1058.039815499913,1068.0012019001879,rund,return,9.953785300254822,None,1068.001464500092,1068.0109518999234,1068.0109518999234,1068.0039555002004,,None,,,,,3,2024-01-16_11h32.44.481,watkins1,2023.2.3,99.71660524665177,90,2024-01-16 11h32.52.128726 +0000,
,,,,,,,,,,,,,,,,,,,,,,,19,0,19,0,1068.5129668000154,,,,,,,,,,1070.1025986000896,1070.6012086002156,,,,1.5846146000549197,,,,,,,,,,,,None,None,,,,,,,,,,Würfel,,,cuedRecallAdj,3,,,,,,,,,,,,,,,,,,,0,,,,,,,,,,,,,,,,,,,,,,,,,,,,,,,,,1068.5032545002177,1068.5129668000154,1068.5129668000154,1070.099834000226,neu,return,1.5846146000549197,None,1070.100094300229,1070.1093880999833,1070.1093880999833,1070.10249989992,,None,,,,,3,2024-01-16_11h32.44.481,watkins1,2023.2.3,99.71660524665177,90,2024-01-16 11h32.52.128726 +0000,
,,,,,,,,,,,,,,,,,,,,,,,20,0,20,0,1070.6111972997896,,,,,,,,,,1073.2055897000246,1073.7043095999397,,,,2.5823951000347733,,,,,,,,,,,,None,None,,,,,,,,,,Löffel,,,cuedRecallAdj,3,,,,,,,,,,,,,,,,,,,0,,,,,,,,,,,,,,,,,,,,,,,,,,,,,,,,,1070.601449499838,1070.6111972997896,1070.6111972997896,1073.2025607000105,matt,return,2.5823951000347733,None,1073.202824300155,1073.2122840001248,1073.2122840001248,1073.2054885001853,,None,,,,,3,2024-01-16_11h32.44.481,watkins1,2023.2.3,99.71660524665177,90,2024-01-16 11h32.52.128726 +0000,
,,,,,,,,,,,,,,,,,,,,,,,21,0,21,0,1073.7143489001319,,,,,,,,,,1075.6051747999154,1076.103936099913,,,,1.8792643998749554,,,,,,,,,,,,None,None,,,,,,,,,,Flasche,,,cuedRecallAdj,3,,,,,,,,,,,,,,,,,,,0,,,,,,,,,,,,,,,,,,,,,,,,,,,,,,,,,1073.7045543999411,1073.7143489001319,1073.7143489001319,1075.6021585999988,sauber,return,1.8792643998749554,None,1075.6024235999212,1075.611874899827,1075.611874899827,1075.6050741001964,,None,,,,,3,2024-01-16_11h32.44.481,watkins1,2023.2.3,99.71660524665177,90,2024-01-16 11h32.52.128726 +0000,
,,,,,,,,,,,,,,,,,,,,,,,22,0,22,0,1076.1139783998951,,,,,,,,,,1078.6174502000213,1079.116091699805,,,,2.495543799828738,,,,,,,,,,,,None,None,,,,,,,,,,Uhr,,,cuedRecallAdj,3,,,,,,,,,,,,,,,,,,,0,,,,,,,,,,,,,,,,,,,,,,,,,,,,,,,,,1076.104177299887,1076.1139783998951,1076.1139783998951,1078.61443029996,blass,return,2.495543799828738,None,1078.6146924998611,1078.6240373002365,1078.6240373002365,1078.6173493000679,,None,,,,,3,2024-01-16_11h32.44.481,watkins1,2023.2.3,99.71660524665177,90,2024-01-16 11h32.52.128726 +0000,
,,,,,,,,,,,,,,,,,,,,,,,23,0,23,0,1079.1260234001093,,,,,,,,,,1082.4030639999546,1082.9017034000717,,,,3.2675737999379635,,,,,,,,,,,,None,None,,,,,,,,,,Buch,,,cuedRecallAdj,3,,,,,,,,,,,,,,,,,,,0,,,,,,,,,,,,,,,,,,,,,,,,,,,,,,,,,1079.1163317998871,1079.1260234001093,1079.1260234001093,1082.4001321000978,schmutzig,return,3.2675737999379635,None,1082.4003965999,1082.4096991000697,1082.4096991000697,1082.4029622999951,,None,,,,,3,2024-01-16_11h32.44.481,watkins1,2023.2.3,99.71660524665177,90,2024-01-16 11h32.52.128726 +0000,
,,,,,,,,,,,,,,,,,,,,,,,24,0,24,0,1082.9115895000286,,,,,,,,,,1092.554531800095,1093.0529931001365,,,,9.633915500249714,,,,,,,,,,,,None,None,,,,,,,,,,Tasche,,,cuedRecallAdj,3,,,,,,,,,,,,,,,,,,,0,,,,,,,,,,,,,,,,,,,,,,,,,,,,,,,,,1082.901949599851,1082.9115895000286,1082.9115895000286,1092.5514815999195,robust,return,9.633915500249714,None,1092.5517489998601,1092.5610181000084,1092.5610181000084,1092.5544293001294,,None,,,,,3,2024-01-16_11h32.44.481,watkins1,2023.2.3,99.71660524665177,90,2024-01-16 11h32.52.128726 +0000,
,,,,,,,,,,,,,,,,,,,,,,,25,0,25,0,1093.062886300031,,,,,,,,,,1095.2052040002309,1095.7040296997875,,,,2.1306799999438226,,,,,,,,,,,,None,None,,,,,,,,,,Fahrrad,,,cuedRecallAdj,3,,,,,,,,,,,,,,,,,,,0,,,,,,,,,,,,,,,,,,,,,,,,,,,,,,,,,1093.053242099937,1093.062886300031,1093.062886300031,1095.2022056998685,glatt,return,2.1306799999438226,None,1095.2024730001576,1095.2119156001136,1095.2119156001136,1095.2051034998149,,None,,,,,3,2024-01-16_11h32.44.481,watkins1,2023.2.3,99.71660524665177,90,2024-01-16 11h32.52.128726 +0000,
,,,,,,,,,,,,,,,,,,,,,,,26,0,26,0,1095.714074399788,,,,,,,,,,1099.5528949000873,1100.0516245001927,,,,3.831491199787706,,,,,,,,,,,,None,None,,,,,,,,,,Hut,,,cuedRecallAdj,3,,,,,,,,,,,,,,,,,,,0,,,,,,,,,,,,,,,,,,,,,,,,,,,,,,,,,1095.7042788001709,1095.714074399788,1095.714074399788,1099.5499823000282,klobig,return,3.831491199787706,None,1099.5502470000647,1099.5595673001371,1099.5595673001371,1099.5527913002297,,None,,,,,3,2024-01-16_11h32.44.481,watkins1,2023.2.3,99.71660524665177,90,2024-01-16 11h32.52.128726 +0000,
,,,,,,,,,,,,,,,,,,,,,,,27,0,27,0,1100.0614582998678,,,,,,,,,,1103.8007339998148,1104.2994335000403,,,,3.732170899864286,,,,,,,,,,,,None,None,,,,,,,,,,Blume,,,cuedRecallAdj,3,,,,,,,,,,,,,,,,,,,0,,,,,,,,,,,,,,,,,,,,,,,,,,,,,,,,,1100.0518633998,1100.0614582998678,1100.0614582998678,1103.7977415001951,strahlend,return,3.732170899864286,None,1103.7979974001646,1103.807318000123,1103.807318000123,1103.8006343999878,,None,,,,,3,2024-01-16_11h32.44.481,watkins1,2023.2.3,99.71660524665177,90,2024-01-16 11h32.52.128726 +0000,
,,,,,,,,,,,,,,,,,,,,,,,28,0,28,0,1104.3093801001087,,,,,,,,,,1106.5417431001551,1107.0405431999825,,,,2.2202046997845173,,,,,,,,,,,,None,None,,,,,,,,,,Eimer,,,cuedRecallAdj,3,,,,,,,,,,,,,,,,,,,0,,,,,,,,,,,,,,,,,,,,,,,,,,,,,,,,,1104.2996697998606,1104.3093801001087,1104.3093801001087,1106.5387899000198,breit,return,2.2202046997845173,None,1106.5390539001673,1106.548512000125,1106.548512000125,1106.5416403999552,,None,,,,,3,2024-01-16_11h32.44.481,watkins1,2023.2.3,99.71660524665177,90,2024-01-16 11h32.52.128726 +0000,
,,,,,,,,,,,,,,,,,,,,,,,29,0,29,0,1107.0504871997982,,,,,,,,,,1109.453955499921,1109.9521408998407,,,,2.3991425996646285,,,,,,,,,,,,None,None,,,,,,,,,,Bürste,,,cuedRecallAdj,3,,,,,,,,,,,,,,,,,,,0,,,,,,,,,,,,,,,,,,,,,,,,,,,,,,,,,1107.0407878998667,1107.0504871997982,1107.0504871997982,1109.4506986998022,schwer,return,2.3991425996646285,None,1109.450962100178,1109.4602680997923,1109.4602680997923,1109.4538509999402,,None,,,,,3,2024-01-16_11h32.44.481,watkins1,2023.2.3,99.71660524665177,90,2024-01-16 11h32.52.128726 +0000,
,,,,,,,,,,,,,,,,,,,,,,,,,,,,,,,,,,,,,,,,,,,,,,,,,,,,,,,,,,,,,,,,,,,,,3,,,,,,,,,,,,,,,,,,,,,,,,,,,,,,,,,,,,,,,,,,,,,,,,,,,,,,,,,,,,,,,,,,1109.9689123998396,q,1106.0406885999255,None,3,2024-01-16_11h32.44.481,watkins1,2023.2.3,99.71660524665177,90,2024-01-16 11h32.52.128726 +0000,
