Equation,CorrectResponse,Correctbutton,trials_7.thisRepN,trials_7.thisTrialN,trials_7.thisN,trials_7.thisIndex,trials.thisRepN,trials.thisTrialN,trials.thisN,trials.thisIndex,trials_3.thisRepN,trials_3.thisTrialN,trials_3.thisN,trials_3.thisIndex,trials_2.thisRepN,trials_2.thisTrialN,trials_2.thisN,trials_2.thisIndex,trials_4.thisRepN,trials_4.thisTrialN,trials_4.thisN,trials_4.thisIndex,trials_5.thisRepN,trials_5.thisTrialN,trials_5.thisN,trials_5.thisIndex,thisRow.t,notes,code_marius.started,code_marius.stopped,welcome.started,welcome.stopped,instruction_study.started,instruction_study.stopped,fixationcross.started,fixationcross.stopped,blanc.started,blanc.stopped,study_control_probe.started,study_control_probe.stopped,responseKey,responseTime,scale_answer_2.keys,study_control_probe_2.started,study_control_probe_2.stopped,scale_answer_3.keys,scale_answer_3.rt,scale_answer_3.duration,blanc_2.started,blanc_2.stopped,test_attr_probe.started,test_attr_probe.stopped,recalled_attr,firstKeyTime,secondWordTime,blanc_3.started,blanc_3.stopped,test_sub_probe.started,test_sub_probe.stopped,recalled_sub,instruction_probe_end.started,instruction_probe_end.stopped,study.started,study.stopped,substantive,adjective,wordpair,task,condition,liste_sub_phase1,liste_adj_phase1,scale_answer.keys,scale_answer.rt,scale_answer.duration,code_defineWordsInit.started,code_defineWordsInit.stopped,liste_sub_phase2,study_control.started,study_control.stopped,scale_answer_4.keys,restudy_same.started,restudy_same.stopped,scale_answer_5.keys,restudy_different.started,restudy_different.stopped,scale_answer_6.keys,scale_answer_6.rt,scale_answer_6.duration,test_attr.started,test_attr.stopped,test_sub.started,test_sub.stopped,scale_answer_4.rt,scale_answer_4.duration,distractortask.started,equation_text.started,distractortask.stopped,mouse_answer.x,mouse_answer.y,mouse_answer.leftButton,mouse_answer.midButton,mouse_answer.rightButton,mouse_answer.time,mouse_answer.clicked_name,feedback_distractortask.started,feedback_distractortask.stopped,free_recall.started,text_enter.started,key_resp.started,free_recall.stopped,key_resp.keys,key_resp.rt,key_resp.duration,free_recalled_sub,mouse_continue.x,mouse_continue.y,mouse_continue.leftButton,mouse_continue.midButton,mouse_continue.rightButton,mouse_continue.time,mouse_continue.clicked_name,cued_recall.started,text_enter_2.started,correct,key_continue.started,cued_recall.stopped,recalled_attr1,key_continue.keys,key_continue.rt,key_continue.duration,cued_recall_2.started,text_enter_3.started,key_continue_2.started,cued_recall_2.stopped,recalled_attr2,key_continue_2.keys,key_continue_2.rt,key_continue_2.duration,key_resp_8.started,key_resp_8.keys,key_resp_8.rt,key_resp_8.duration,condition,date,expName,psychopyVersion,frameRate,participant,expStart,
,,,,,,,,,,,,,,,,,,,,,,,,,,,,,0.11168209998868406,0.11175170005299151,0.11175979999825358,9.673731799935922,,,,,,,,,,,,,,,,,,,,,,,,,,,,,,,,,,,,,1,,,,,,,,,,,,,,,,,,,,,,,,,,,,,,,,,,,,,,,,,,,,,,,,,,,,,,,,,,,,,,,,,,,,,,,,,,1,2023-11-28_11h12.50.307,watkins1,2023.2.3,99.73659575809017,27,2023-11-28 11h12.56.893835 +0000,
,,,,,,,,,,,,,,,,,,,,,,,,,,,,,,,,,9.673779400065541,35.59166719997302,,,,,,,,,,,,,,,,,,,,,,,,,,,,,,,,,,,1,,,,,,,,,,,,,,,,,,,,,,,,,,,,,,,,,,,,,,,,,,,,,,,,,,,,,,,,,,,,,,,,,,,,,,,,,,1,2023-11-28_11h12.50.307,watkins1,2023.2.3,99.73659575809017,27,2023-11-28 11h12.56.893835 +0000,
,,,0,0,0,0,,,,,,,,,,,,,,,,,,,,,36.60533610009588,,,,,,,,35.591683000093326,36.59535539988428,43.096127399941906,43.587610099930316,37.08732579997741,43.09596340009011,1,2.9050563001073897,None,43.587621100014076,49.59057129989378,1,2.9050563001073897,None,49.59086530003697,49.590889299986884,49.59089610003866,49.59098539990373,,None,None,49.591149599989876,49.591169900028035,49.59117679996416,49.591250699944794,,,,,,,,,,1,,,,,,,,,,,,,,,,,,,,,,,,,,,,,,,,,,,,,,,,,,,,,,,,,,,,,,,,,,,,,,,,,,,,,,,,,,1,2023-11-28_11h12.50.307,watkins1,2023.2.3,99.73659575809017,27,2023-11-28 11h12.56.893835 +0000,
,,,,,,,,,,,,,,,,,,,,,,,,,,,,,,,,,,,,,,,,,,,,,,,,,,,,,,,,,,,,,49.591361900093034,53.28180900006555,,,,,,,1,,,,,,,,,,,,,,,,,,,,,,,,,,,,,,,,,,,,,,,,,,,,,,,,,,,,,,,,,,,,,,,,,,,,,,,,,,1,2023-11-28_11h12.50.307,watkins1,2023.2.3,99.73659575809017,27,2023-11-28 11h12.56.893835 +0000,
,,,,,,,0,0,0,0,,,,,,,,,,,,,,,,,54.295703399926424,,,,,,,,53.28182470006868,54.285766599932685,54.286204000003636,54.7777333999984,,,2,2.154277400113642,,,,,,,,,,,,,,,,,,,,,54.77774460008368,60.7804552000016,Kette,klobig,"['Kette', 'klobig']",control,1,"['Kette', 'Kiste', 'Uhr', 'Buch', 'Vase', 'Telefon', 'Socke', 'Fahrrad', 'Brille', 'Tasse', 'Löffel', 'Flasche', 'Bürste', 'Lampe', 'Tasche', 'Eimer', 'Hammer', 'Stift', 'Blume', 'Trommel', 'Geige', 'Würfel']",['klobig'],2,2.154277400113642,None,,,,,,,,,,,,,,,,,,,,,,,,,,,,,,,,,,,,,,,,,,,,,,,,,,,,,,,,,,,,,,,,,,,,,1,2023-11-28_11h12.50.307,watkins1,2023.2.3,99.73659575809017,27,2023-11-28 11h12.56.893835 +0000,
,,,,,,,1,0,1,0,,,,,,,,,,,,,,,,,60.78988149994984,,,,,,,,,,60.7810509998817,61.272013700101525,,,2,2.9531678000930697,,,,,,,,,,,,,,,,,,,,,61.27202429994941,67.27473619999364,Kiste,gestreift,"['Kiste', 'gestreift']",restudy_diff,1,"['Kette', 'Kiste', 'Uhr', 'Buch', 'Vase', 'Telefon', 'Socke', 'Fahrrad', 'Brille', 'Tasse', 'Löffel', 'Flasche', 'Bürste', 'Lampe', 'Tasche', 'Eimer', 'Hammer', 'Stift', 'Blume', 'Trommel', 'Geige', 'Würfel']","['klobig', 'gestreift']",2,2.9531678000930697,None,,,,,,,,,,,,,,,,,,,,,,,,,,,,,,,,,,,,,,,,,,,,,,,,,,,,,,,,,,,,,,,,,,,,,1,2023-11-28_11h12.50.307,watkins1,2023.2.3,99.73659575809017,27,2023-11-28 11h12.56.893835 +0000,
,,,,,,,2,0,2,0,,,,,,,,,,,,,,,,,67.28416740009561,,,,,,,,,,67.27519589988515,67.76625139988028,,,1,1.4346887001302093,,,,,,,,,,,,,,,,,,,,,67.76626219996251,73.76950819999911,Uhr,gepunktet,"['Uhr', 'gepunktet']",restudy_diff,1,"['Kette', 'Kiste', 'Uhr', 'Buch', 'Vase', 'Telefon', 'Socke', 'Fahrrad', 'Brille', 'Tasse', 'Löffel', 'Flasche', 'Bürste', 'Lampe', 'Tasche', 'Eimer', 'Hammer', 'Stift', 'Blume', 'Trommel', 'Geige', 'Würfel']","['klobig', 'gestreift', 'gepunktet']",1,1.4346887001302093,None,,,,,,,,,,,,,,,,,,,,,,,,,,,,,,,,,,,,,,,,,,,,,,,,,,,,,,,,,,,,,,,,,,,,,1,2023-11-28_11h12.50.307,watkins1,2023.2.3,99.73659575809017,27,2023-11-28 11h12.56.893835 +0000,
,,,,,,,3,0,3,0,,,,,,,,,,,,,,,,,73.77907179994509,,,,,,,,,,73.76997609995306,74.26106039993465,,,2,4.716512999963015,,,,,,,,,,,,,,,,,,,,,74.26107080001384,80.26540019991808,Buch,biegsam,"['Buch', 'biegsam']",control,1,"['Kette', 'Kiste', 'Uhr', 'Buch', 'Vase', 'Telefon', 'Socke', 'Fahrrad', 'Brille', 'Tasse', 'Löffel', 'Flasche', 'Bürste', 'Lampe', 'Tasche', 'Eimer', 'Hammer', 'Stift', 'Blume', 'Trommel', 'Geige', 'Würfel']","['klobig', 'gestreift', 'gepunktet', 'biegsam']",2,4.716512999963015,None,,,,,,,,,,,,,,,,,,,,,,,,,,,,,,,,,,,,,,,,,,,,,,,,,,,,,,,,,,,,,,,,,,,,,1,2023-11-28_11h12.50.307,watkins1,2023.2.3,99.73659575809017,27,2023-11-28 11h12.56.893835 +0000,
,,,,,,,4,0,4,0,,,,,,,,,,,,,,,,,80.27440400002524,,,,,,,,,,80.26586679997854,80.75672430009581,,,1,2.293521400075406,,,,,,,,,,,,,,,,,,,,,80.75673500006087,86.75725560006686,Vase,blass,"['Vase', 'blass']",control,1,"['Kette', 'Kiste', 'Uhr', 'Buch', 'Vase', 'Telefon', 'Socke', 'Fahrrad', 'Brille', 'Tasse', 'Löffel', 'Flasche', 'Bürste', 'Lampe', 'Tasche', 'Eimer', 'Hammer', 'Stift', 'Blume', 'Trommel', 'Geige', 'Würfel']","['klobig', 'gestreift', 'gepunktet', 'biegsam', 'blass']",1,2.293521400075406,None,,,,,,,,,,,,,,,,,,,,,,,,,,,,,,,,,,,,,,,,,,,,,,,,,,,,,,,,,,,,,,,,,,,,,1,2023-11-28_11h12.50.307,watkins1,2023.2.3,99.73659575809017,27,2023-11-28 11h12.56.893835 +0000,
,,,,,,,5,0,5,0,,,,,,,,,,,,,,,,,86.76683470001444,,,,,,,,,,86.75773159996606,87.24887309991755,,,2,2.6812982000410557,,,,,,,,,,,,,,,,,,,,,87.2488845998887,93.24993539997377,Telefon,rustikal,"['Telefon', 'rustikal']",restudy_diff,1,"['Kette', 'Kiste', 'Uhr', 'Buch', 'Vase', 'Telefon', 'Socke', 'Fahrrad', 'Brille', 'Tasse', 'Löffel', 'Flasche', 'Bürste', 'Lampe', 'Tasche', 'Eimer', 'Hammer', 'Stift', 'Blume', 'Trommel', 'Geige', 'Würfel']","['klobig', 'gestreift', 'gepunktet', 'biegsam', 'blass', 'rustikal']",2,2.6812982000410557,None,,,,,,,,,,,,,,,,,,,,,,,,,,,,,,,,,,,,,,,,,,,,,,,,,,,,,,,,,,,,,,,,,,,,,1,2023-11-28_11h12.50.307,watkins1,2023.2.3,99.73659575809017,27,2023-11-28 11h12.56.893835 +0000,
,,,,,,,6,0,6,0,,,,,,,,,,,,,,,,,93.25941639998928,,,,,,,,,,93.25041080010124,93.74148339987732,,,3,1.5088422999251634,,,,,,,,,,,,,,,,,,,,,93.74149379995652,99.74437500000931,Socke,flauschig,"['Socke', 'flauschig']",restudy_diff,1,"['Kette', 'Kiste', 'Uhr', 'Buch', 'Vase', 'Telefon', 'Socke', 'Fahrrad', 'Brille', 'Tasse', 'Löffel', 'Flasche', 'Bürste', 'Lampe', 'Tasche', 'Eimer', 'Hammer', 'Stift', 'Blume', 'Trommel', 'Geige', 'Würfel']","['klobig', 'gestreift', 'gepunktet', 'biegsam', 'blass', 'rustikal', 'flauschig']",3,1.5088422999251634,None,,,,,,,,,,,,,,,,,,,,,,,,,,,,,,,,,,,,,,,,,,,,,,,,,,,,,,,,,,,,,,,,,,,,,1,2023-11-28_11h12.50.307,watkins1,2023.2.3,99.73659575809017,27,2023-11-28 11h12.56.893835 +0000,
,,,,,,,7,0,7,0,,,,,,,,,,,,,,,,,99.75386520009488,,,,,,,,,,99.74486349988729,100.23586930008605,,,2,1.6385131999850273,,,,,,,,,,,,,,,,,,,,,100.23587949993089,106.24617030005902,Fahrrad,gut,"['Fahrrad', 'gut']",restudy_diff,1,"['Kette', 'Kiste', 'Uhr', 'Buch', 'Vase', 'Telefon', 'Socke', 'Fahrrad', 'Brille', 'Tasse', 'Löffel', 'Flasche', 'Bürste', 'Lampe', 'Tasche', 'Eimer', 'Hammer', 'Stift', 'Blume', 'Trommel', 'Geige', 'Würfel']","['klobig', 'gestreift', 'gepunktet', 'biegsam', 'blass', 'rustikal', 'flauschig', 'gut']",2,1.6385131999850273,None,,,,,,,,,,,,,,,,,,,,,,,,,,,,,,,,,,,,,,,,,,,,,,,,,,,,,,,,,,,,,,,,,,,,,1,2023-11-28_11h12.50.307,watkins1,2023.2.3,99.73659575809017,27,2023-11-28 11h12.56.893835 +0000,
,,,,,,,8,0,8,0,,,,,,,,,,,,,,,,,106.25564890005626,,,,,,,,,,106.24665060010739,106.73767829989083,,,2,2.880135599989444,,,,,,,,,,,,,,,,,,,,,106.73768909997307,112.74029690003954,Brille,glänzend,"['Brille', 'glänzend']",restudy_diff,1,"['Kette', 'Kiste', 'Uhr', 'Buch', 'Vase', 'Telefon', 'Socke', 'Fahrrad', 'Brille', 'Tasse', 'Löffel', 'Flasche', 'Bürste', 'Lampe', 'Tasche', 'Eimer', 'Hammer', 'Stift', 'Blume', 'Trommel', 'Geige', 'Würfel']","['klobig', 'gestreift', 'gepunktet', 'biegsam', 'blass', 'rustikal', 'flauschig', 'gut', 'glänzend']",2,2.880135599989444,None,,,,,,,,,,,,,,,,,,,,,,,,,,,,,,,,,,,,,,,,,,,,,,,,,,,,,,,,,,,,,,,,,,,,,1,2023-11-28_11h12.50.307,watkins1,2023.2.3,99.73659575809017,27,2023-11-28 11h12.56.893835 +0000,
,,,,,,,9,0,9,0,,,,,,,,,,,,,,,,,112.74983410001732,,,,,,,,,,112.7407654998824,113.23191539989784,,,3,2.5231455999892205,,,,,,,,,,,,,,,,,,,,,113.23192539997399,119.23714350000955,Tasse,schlicht,"['Tasse', 'schlicht']",control,1,"['Kette', 'Kiste', 'Uhr', 'Buch', 'Vase', 'Telefon', 'Socke', 'Fahrrad', 'Brille', 'Tasse', 'Löffel', 'Flasche', 'Bürste', 'Lampe', 'Tasche', 'Eimer', 'Hammer', 'Stift', 'Blume', 'Trommel', 'Geige', 'Würfel']","['klobig', 'gestreift', 'gepunktet', 'biegsam', 'blass', 'rustikal', 'flauschig', 'gut', 'glänzend', 'schlicht']",3,2.5231455999892205,None,,,,,,,,,,,,,,,,,,,,,,,,,,,,,,,,,,,,,,,,,,,,,,,,,,,,,,,,,,,,,,,,,,,,,1,2023-11-28_11h12.50.307,watkins1,2023.2.3,99.73659575809017,27,2023-11-28 11h12.56.893835 +0000,
,,,,,,,10,0,10,0,,,,,,,,,,,,,,,,,119.24657210009173,,,,,,,,,,119.23760639992543,119.72851029993035,,,2,2.505238800076768,,,,,,,,,,,,,,,,,,,,,119.72852110001259,125.73679609992541,Löffel,robust,"['Löffel', 'robust']",restudy_diff,1,"['Kette', 'Kiste', 'Uhr', 'Buch', 'Vase', 'Telefon', 'Socke', 'Fahrrad', 'Brille', 'Tasse', 'Löffel', 'Flasche', 'Bürste', 'Lampe', 'Tasche', 'Eimer', 'Hammer', 'Stift', 'Blume', 'Trommel', 'Geige', 'Würfel']","['klobig', 'gestreift', 'gepunktet', 'biegsam', 'blass', 'rustikal', 'flauschig', 'gut', 'glänzend', 'schlicht', 'robust']",2,2.505238800076768,None,,,,,,,,,,,,,,,,,,,,,,,,,,,,,,,,,,,,,,,,,,,,,,,,,,,,,,,,,,,,,,,,,,,,,1,2023-11-28_11h12.50.307,watkins1,2023.2.3,99.73659575809017,27,2023-11-28 11h12.56.893835 +0000,
,,,,,,,11,0,11,0,,,,,,,,,,,,,,,,,125.74630420003086,,,,,,,,,,125.73727119993418,126.22843990009278,,,1,3.0788511000573635,,,,,,,,,,,,,,,,,,,,,126.22845069994219,132.23614099994302,Flasche,matt,"['Flasche', 'matt']",restudy_diff,1,"['Kette', 'Kiste', 'Uhr', 'Buch', 'Vase', 'Telefon', 'Socke', 'Fahrrad', 'Brille', 'Tasse', 'Löffel', 'Flasche', 'Bürste', 'Lampe', 'Tasche', 'Eimer', 'Hammer', 'Stift', 'Blume', 'Trommel', 'Geige', 'Würfel']","['klobig', 'gestreift', 'gepunktet', 'biegsam', 'blass', 'rustikal', 'flauschig', 'gut', 'glänzend', 'schlicht', 'robust', 'matt']",1,3.0788511000573635,None,,,,,,,,,,,,,,,,,,,,,,,,,,,,,,,,,,,,,,,,,,,,,,,,,,,,,,,,,,,,,,,,,,,,,1,2023-11-28_11h12.50.307,watkins1,2023.2.3,99.73659575809017,27,2023-11-28 11h12.56.893835 +0000,
,,,,,,,12,0,12,0,,,,,,,,,,,,,,,,,132.2456189999357,,,,,,,,,,132.2366067999974,132.72773630009033,,,1,1.474758200114593,,,,,,,,,,,,,,,,,,,,,132.7277466999367,138.7380907998886,Bürste,dunkel,"['Bürste', 'dunkel']",control,1,"['Kette', 'Kiste', 'Uhr', 'Buch', 'Vase', 'Telefon', 'Socke', 'Fahrrad', 'Brille', 'Tasse', 'Löffel', 'Flasche', 'Bürste', 'Lampe', 'Tasche', 'Eimer', 'Hammer', 'Stift', 'Blume', 'Trommel', 'Geige', 'Würfel']","['klobig', 'gestreift', 'gepunktet', 'biegsam', 'blass', 'rustikal', 'flauschig', 'gut', 'glänzend', 'schlicht', 'robust', 'matt', 'dunkel']",1,1.474758200114593,None,,,,,,,,,,,,,,,,,,,,,,,,,,,,,,,,,,,,,,,,,,,,,,,,,,,,,,,,,,,,,,,,,,,,,1,2023-11-28_11h12.50.307,watkins1,2023.2.3,99.73659575809017,27,2023-11-28 11h12.56.893835 +0000,
,,,,,,,13,0,13,0,,,,,,,,,,,,,,,,,138.74751950008795,,,,,,,,,,138.7385615000967,139.2296968998853,,,1,1.9414897998794913,,,,,,,,,,,,,,,,,,,,,139.22970709996298,145.23804440000094,Lampe,kratzig,"['Lampe', 'kratzig']",restudy_diff,1,"['Kette', 'Kiste', 'Uhr', 'Buch', 'Vase', 'Telefon', 'Socke', 'Fahrrad', 'Brille', 'Tasse', 'Löffel', 'Flasche', 'Bürste', 'Lampe', 'Tasche', 'Eimer', 'Hammer', 'Stift', 'Blume', 'Trommel', 'Geige', 'Würfel']","['klobig', 'gestreift', 'gepunktet', 'biegsam', 'blass', 'rustikal', 'flauschig', 'gut', 'glänzend', 'schlicht', 'robust', 'matt', 'dunkel', 'kratzig']",1,1.9414897998794913,None,,,,,,,,,,,,,,,,,,,,,,,,,,,,,,,,,,,,,,,,,,,,,,,,,,,,,,,,,,,,,,,,,,,,,1,2023-11-28_11h12.50.307,watkins1,2023.2.3,99.73659575809017,27,2023-11-28 11h12.56.893835 +0000,
,,,,,,,14,0,14,0,,,,,,,,,,,,,,,,,145.24750449997373,,,,,,,,,,145.23851089994423,145.72966989991255,,,2,2.993233500048518,,,,,,,,,,,,,,,,,,,,,145.72968009999022,151.7341889999807,Tasche,hässlich,"['Tasche', 'hässlich']",restudy_diff,1,"['Kette', 'Kiste', 'Uhr', 'Buch', 'Vase', 'Telefon', 'Socke', 'Fahrrad', 'Brille', 'Tasse', 'Löffel', 'Flasche', 'Bürste', 'Lampe', 'Tasche', 'Eimer', 'Hammer', 'Stift', 'Blume', 'Trommel', 'Geige', 'Würfel']","['klobig', 'gestreift', 'gepunktet', 'biegsam', 'blass', 'rustikal', 'flauschig', 'gut', 'glänzend', 'schlicht', 'robust', 'matt', 'dunkel', 'kratzig', 'hässlich']",2,2.993233500048518,None,,,,,,,,,,,,,,,,,,,,,,,,,,,,,,,,,,,,,,,,,,,,,,,,,,,,,,,,,,,,,,,,,,,,,1,2023-11-28_11h12.50.307,watkins1,2023.2.3,99.73659575809017,27,2023-11-28 11h12.56.893835 +0000,
,,,,,,,15,0,15,0,,,,,,,,,,,,,,,,,151.7435216999147,,,,,,,,,,151.73465709993616,152.22570060007274,,,1,4.065068399999291,,,,,,,,,,,,,,,,,,,,,152.2257099999115,158.2355205998756,Eimer,hohl,"['Eimer', 'hohl']",restudy_diff,1,"['Kette', 'Kiste', 'Uhr', 'Buch', 'Vase', 'Telefon', 'Socke', 'Fahrrad', 'Brille', 'Tasse', 'Löffel', 'Flasche', 'Bürste', 'Lampe', 'Tasche', 'Eimer', 'Hammer', 'Stift', 'Blume', 'Trommel', 'Geige', 'Würfel']","['klobig', 'gestreift', 'gepunktet', 'biegsam', 'blass', 'rustikal', 'flauschig', 'gut', 'glänzend', 'schlicht', 'robust', 'matt', 'dunkel', 'kratzig', 'hässlich', 'hohl']",1,4.065068399999291,None,,,,,,,,,,,,,,,,,,,,,,,,,,,,,,,,,,,,,,,,,,,,,,,,,,,,,,,,,,,,,,,,,,,,,1,2023-11-28_11h12.50.307,watkins1,2023.2.3,99.73659575809017,27,2023-11-28 11h12.56.893835 +0000,
,,,,,,,16,0,16,0,,,,,,,,,,,,,,,,,158.24494119989686,,,,,,,,,,158.2360064999666,158.72747959988192,,,1,1.5069548999890685,,,,,,,,,,,,,,,,,,,,,158.72748979995959,164.73045450006612,Hammer,bunt,"['Hammer', 'bunt']",restudy_diff,1,"['Kette', 'Kiste', 'Uhr', 'Buch', 'Vase', 'Telefon', 'Socke', 'Fahrrad', 'Brille', 'Tasse', 'Löffel', 'Flasche', 'Bürste', 'Lampe', 'Tasche', 'Eimer', 'Hammer', 'Stift', 'Blume', 'Trommel', 'Geige', 'Würfel']","['klobig', 'gestreift', 'gepunktet', 'biegsam', 'blass', 'rustikal', 'flauschig', 'gut', 'glänzend', 'schlicht', 'robust', 'matt', 'dunkel', 'kratzig', 'hässlich', 'hohl', 'bunt']",1,1.5069548999890685,None,,,,,,,,,,,,,,,,,,,,,,,,,,,,,,,,,,,,,,,,,,,,,,,,,,,,,,,,,,,,,,,,,,,,,1,2023-11-28_11h12.50.307,watkins1,2023.2.3,99.73659575809017,27,2023-11-28 11h12.56.893835 +0000,
,,,,,,,17,0,17,0,,,,,,,,,,,,,,,,,164.73989839991555,,,,,,,,,,164.73092609993182,165.2220312000718,,,1,1.0771870000753552,,,,,,,,,,,,,,,,,,,,,165.22204079991207,171.22319959988818,Stift,zart,"['Stift', 'zart']",control,1,"['Kette', 'Kiste', 'Uhr', 'Buch', 'Vase', 'Telefon', 'Socke', 'Fahrrad', 'Brille', 'Tasse', 'Löffel', 'Flasche', 'Bürste', 'Lampe', 'Tasche', 'Eimer', 'Hammer', 'Stift', 'Blume', 'Trommel', 'Geige', 'Würfel']","['klobig', 'gestreift', 'gepunktet', 'biegsam', 'blass', 'rustikal', 'flauschig', 'gut', 'glänzend', 'schlicht', 'robust', 'matt', 'dunkel', 'kratzig', 'hässlich', 'hohl', 'bunt', 'zart']",1,1.0771870000753552,None,,,,,,,,,,,,,,,,,,,,,,,,,,,,,,,,,,,,,,,,,,,,,,,,,,,,,,,,,,,,,,,,,,,,,1,2023-11-28_11h12.50.307,watkins1,2023.2.3,99.73659575809017,27,2023-11-28 11h12.56.893835 +0000,
,,,,,,,18,0,18,0,,,,,,,,,,,,,,,,,171.23268150002696,,,,,,,,,,171.22366690007038,171.71483179996721,,,2,2.647756799822673,,,,,,,,,,,,,,,,,,,,,171.71484320005402,177.72452210006304,Blume,glatt,"['Blume', 'glatt']",restudy_diff,1,"['Kette', 'Kiste', 'Uhr', 'Buch', 'Vase', 'Telefon', 'Socke', 'Fahrrad', 'Brille', 'Tasse', 'Löffel', 'Flasche', 'Bürste', 'Lampe', 'Tasche', 'Eimer', 'Hammer', 'Stift', 'Blume', 'Trommel', 'Geige', 'Würfel']","['klobig', 'gestreift', 'gepunktet', 'biegsam', 'blass', 'rustikal', 'flauschig', 'gut', 'glänzend', 'schlicht', 'robust', 'matt', 'dunkel', 'kratzig', 'hässlich', 'hohl', 'bunt', 'zart', 'glatt']",2,2.647756799822673,None,,,,,,,,,,,,,,,,,,,,,,,,,,,,,,,,,,,,,,,,,,,,,,,,,,,,,,,,,,,,,,,,,,,,,1,2023-11-28_11h12.50.307,watkins1,2023.2.3,99.73659575809017,27,2023-11-28 11h12.56.893835 +0000,
,,,,,,,19,0,19,0,,,,,,,,,,,,,,,,,177.73405100009404,,,,,,,,,,177.7249958999455,178.2162581998855,,,2,1.3781034999992698,,,,,,,,,,,,,,,,,,,,,178.21626819996163,184.2187948001083,Trommel,verspielt,"['Trommel', 'verspielt']",control,1,"['Kette', 'Kiste', 'Uhr', 'Buch', 'Vase', 'Telefon', 'Socke', 'Fahrrad', 'Brille', 'Tasse', 'Löffel', 'Flasche', 'Bürste', 'Lampe', 'Tasche', 'Eimer', 'Hammer', 'Stift', 'Blume', 'Trommel', 'Geige', 'Würfel']","['klobig', 'gestreift', 'gepunktet', 'biegsam', 'blass', 'rustikal', 'flauschig', 'gut', 'glänzend', 'schlicht', 'robust', 'matt', 'dunkel', 'kratzig', 'hässlich', 'hohl', 'bunt', 'zart', 'glatt', 'verspielt']",2,1.3781034999992698,None,,,,,,,,,,,,,,,,,,,,,,,,,,,,,,,,,,,,,,,,,,,,,,,,,,,,,,,,,,,,,,,,,,,,,1,2023-11-28_11h12.50.307,watkins1,2023.2.3,99.73659575809017,27,2023-11-28 11h12.56.893835 +0000,
,,,,,,,20,0,20,0,,,,,,,,,,,,,,,,,184.22827060008422,,,,,,,,,,184.21926270006225,184.71033339994028,,,2,1.3717161999084055,,,,,,,,,,,,,,,,,,,,,184.71034460002556,190.71108489995822,Geige,lustig,"['Geige', 'lustig']",restudy_diff,1,"['Kette', 'Kiste', 'Uhr', 'Buch', 'Vase', 'Telefon', 'Socke', 'Fahrrad', 'Brille', 'Tasse', 'Löffel', 'Flasche', 'Bürste', 'Lampe', 'Tasche', 'Eimer', 'Hammer', 'Stift', 'Blume', 'Trommel', 'Geige', 'Würfel']","['klobig', 'gestreift', 'gepunktet', 'biegsam', 'blass', 'rustikal', 'flauschig', 'gut', 'glänzend', 'schlicht', 'robust', 'matt', 'dunkel', 'kratzig', 'hässlich', 'hohl', 'bunt', 'zart', 'glatt', 'verspielt', 'lustig']",2,1.3717161999084055,None,,,,,,,,,,,,,,,,,,,,,,,,,,,,,,,,,,,,,,,,,,,,,,,,,,,,,,,,,,,,,,,,,,,,,1,2023-11-28_11h12.50.307,watkins1,2023.2.3,99.73659575809017,27,2023-11-28 11h12.56.893835 +0000,
,,,,,,,21,0,21,0,,,,,,,,,,,,,,,,,190.72065900010057,,,,,,,,,,190.71155059989542,191.20300169987604,,,1,1.1272918002214283,,,,,,,,,,,,,,,,,,,,,191.20301200007088,197.20949040004052,Würfel,teuer,"['Würfel', 'teuer']",restudy_diff,1,"['Kette', 'Kiste', 'Uhr', 'Buch', 'Vase', 'Telefon', 'Socke', 'Fahrrad', 'Brille', 'Tasse', 'Löffel', 'Flasche', 'Bürste', 'Lampe', 'Tasche', 'Eimer', 'Hammer', 'Stift', 'Blume', 'Trommel', 'Geige', 'Würfel']","['klobig', 'gestreift', 'gepunktet', 'biegsam', 'blass', 'rustikal', 'flauschig', 'gut', 'glänzend', 'schlicht', 'robust', 'matt', 'dunkel', 'kratzig', 'hässlich', 'hohl', 'bunt', 'zart', 'glatt', 'verspielt', 'lustig', 'teuer']",1,1.1272918002214283,None,,,,,,,,,,,,,,,,,,,,,,,,,,,,,,,,,,,,,,,,,,,,,,,,,,,,,,,,,,,,,,,,,,,,,1,2023-11-28_11h12.50.307,watkins1,2023.2.3,99.73659575809017,27,2023-11-28 11h12.56.893835 +0000,
,,,,,,,,,,,0,0,0,0,,,,,,,,,,,,,197.2189650000073,,,,,,,,,,197.2103009999264,197.70090300007723,,,2,1.8319898000918329,,,,,,,,,,,,None,None,,,,,,,,,,Flasche,sauber,"['Flasche', 'sauber']",restudy_diff,1,,,,,,197.21022689994425,197.21027599996887,"['Flasche', 'Schere', 'Rucksack', 'Hammer', 'Ring', 'Tasche', 'Blume', 'Kamera', 'Lampe', 'Brille', 'Socke', 'Geige', 'Würfel', 'Löffel', 'Uhr', 'Kerze', 'Eimer', 'Hut', 'Telefon', 'Jacke', 'Fahrrad', 'Kiste', 'Schlüssel']",197.70091299992055,197.70370589988306,None,197.70387779991142,197.70638759993017,None,197.70653750002384,203.71138569992036,2,1.8319898000918329,None,203.71179479989223,203.71312030008994,203.71313240006566,203.71430639992468,,,,,,,,,,,,,,,,,,,,,,,,,,,,,,,,,,,,,,,,,,,,,,,,,,,1,2023-11-28_11h12.50.307,watkins1,2023.2.3,99.73659575809017,27,2023-11-28 11h12.56.893835 +0000,
,,,,,,,,,,,1,0,1,0,,,,,,,,,,,,,203.7208630000241,,,,,,,,,,203.71457349997945,204.2133601999376,,,[],[],,,,,,,,,,,,None,None,,,,,,,,,,Schere,nachhaltig,"['Schere', 'nachhaltig']",control,1,,,,,,203.71450849995017,203.71454549999908,"['Flasche', 'Schere', 'Rucksack', 'Hammer', 'Ring', 'Tasche', 'Blume', 'Kamera', 'Lampe', 'Brille', 'Socke', 'Geige', 'Würfel', 'Löffel', 'Uhr', 'Kerze', 'Eimer', 'Hut', 'Telefon', 'Jacke', 'Fahrrad', 'Kiste', 'Schlüssel']",204.2133708000183,210.22362739988603,1,210.2239755000919,210.2267626998946,None,210.22686560009606,210.22948509990238,None,,,210.22958640009165,210.23077649995685,210.23078819992952,210.232041799929,1.6849288998637348,None,,,,,,,,,,,,,,,,,,,,,,,,,,,,,,,,,,,,,,,,,,,,,,,,,1,2023-11-28_11h12.50.307,watkins1,2023.2.3,99.73659575809017,27,2023-11-28 11h12.56.893835 +0000,
,,,,,,,,,,,2,0,2,0,,,,,,,,,,,,,210.23562270007096,,,,,,,,,,210.232309400104,210.7290211999789,,,[],[],,,,,,,,,,,,None,None,,,,,,,,,,Rucksack,schwer,"['Rucksack', 'schwer']",control,1,,,,,,210.23224629997276,210.23228459991515,"['Flasche', 'Schere', 'Rucksack', 'Hammer', 'Ring', 'Tasche', 'Blume', 'Kamera', 'Lampe', 'Brille', 'Socke', 'Geige', 'Würfel', 'Löffel', 'Uhr', 'Kerze', 'Eimer', 'Hut', 'Telefon', 'Jacke', 'Fahrrad', 'Kiste', 'Schlüssel']",210.72903120005503,216.73771240003407,3,216.73798689991236,216.74074789998122,None,216.74085159995593,216.74344339990057,None,,,216.7435461001005,216.7447669999674,216.74477869994007,216.74596349988133,1.4883882999420166,None,,,,,,,,,,,,,,,,,,,,,,,,,,,,,,,,,,,,,,,,,,,,,,,,,1,2023-11-28_11h12.50.307,watkins1,2023.2.3,99.73659575809017,27,2023-11-28 11h12.56.893835 +0000,
,,,,,,,,,,,3,0,3,0,,,,,,,,,,,,,216.7495361000765,,,,,,,,,,216.74623050005175,217.24283799994737,,,1,2.1570492999162525,,,,,,,,,,,,None,None,,,,,,,,,,Hammer,lang,"['Hammer', 'lang']",restudy_diff,1,,,,,,216.74616690003313,216.74620559997857,"['Flasche', 'Schere', 'Rucksack', 'Hammer', 'Ring', 'Tasche', 'Blume', 'Kamera', 'Lampe', 'Brille', 'Socke', 'Geige', 'Würfel', 'Löffel', 'Uhr', 'Kerze', 'Eimer', 'Hut', 'Telefon', 'Jacke', 'Fahrrad', 'Kiste', 'Schlüssel']",217.24284809990786,217.2445735000074,None,217.24468660005368,217.2461504000239,None,217.24625450000167,223.25027860002592,1,2.1570492999162525,None,223.25054859998636,223.2518639001064,223.25187609996647,223.25292119989172,,,,,,,,,,,,,,,,,,,,,,,,,,,,,,,,,,,,,,,,,,,,,,,,,,,1,2023-11-28_11h12.50.307,watkins1,2023.2.3,99.73659575809017,27,2023-11-28 11h12.56.893835 +0000,
,,,,,,,,,,,4,0,4,0,,,,,,,,,,,,,223.25969329988584,,,,,,,,,,223.25319129996933,223.75186070008203,,,[],[],,,,,,,,,,,,None,None,,,,,,,,,,Ring,elegant,"['Ring', 'elegant']",control,1,,,,,,223.2531270000618,223.25316439988092,"['Flasche', 'Schere', 'Rucksack', 'Hammer', 'Ring', 'Tasche', 'Blume', 'Kamera', 'Lampe', 'Brille', 'Socke', 'Geige', 'Würfel', 'Löffel', 'Uhr', 'Kerze', 'Eimer', 'Hut', 'Telefon', 'Jacke', 'Fahrrad', 'Kiste', 'Schlüssel']",223.75187129992992,229.75852519995533,3,229.75879690004513,229.76146649988368,None,229.76213079993613,229.76457210001536,None,,,229.76467570010573,229.7657198999077,229.76573149999604,229.76692910003476,1.8273140001110733,None,,,,,,,,,,,,,,,,,,,,,,,,,,,,,,,,,,,,,,,,,,,,,,,,,1,2023-11-28_11h12.50.307,watkins1,2023.2.3,99.73659575809017,27,2023-11-28 11h12.56.893835 +0000,
,,,,,,,,,,,5,0,5,0,,,,,,,,,,,,,229.77048889989965,,,,,,,,,,229.76719660009257,230.2637672999408,,,1,4.75981769990176,,,,,,,,,,,,None,None,,,,,,,,,,Tasche,durchsichtig,"['Tasche', 'durchsichtig']",restudy_diff,1,,,,,,229.7671322999522,229.7671705998946,"['Flasche', 'Schere', 'Rucksack', 'Hammer', 'Ring', 'Tasche', 'Blume', 'Kamera', 'Lampe', 'Brille', 'Socke', 'Geige', 'Würfel', 'Löffel', 'Uhr', 'Kerze', 'Eimer', 'Hut', 'Telefon', 'Jacke', 'Fahrrad', 'Kiste', 'Schlüssel']",230.26377759990282,230.26536659989506,None,230.26547869993374,230.26692519988865,None,230.26702659996226,236.27213210007176,1,4.75981769990176,None,236.2724025999196,236.27373389992863,236.27374570001848,236.27507489989512,,,,,,,,,,,,,,,,,,,,,,,,,,,,,,,,,,,,,,,,,,,,,,,,,,,1,2023-11-28_11h12.50.307,watkins1,2023.2.3,99.73659575809017,27,2023-11-28 11h12.56.893835 +0000,
,,,,,,,,,,,6,0,6,0,,,,,,,,,,,,,236.28161230008118,,,,,,,,,,236.27534599998035,236.77356330002658,,,1,1.3038280000910163,,,,,,,,,,,,None,None,,,,,,,,,,Blume,breit,"['Blume', 'breit']",restudy_diff,1,,,,,,236.27528259996325,236.2753204999026,"['Flasche', 'Schere', 'Rucksack', 'Hammer', 'Ring', 'Tasche', 'Blume', 'Kamera', 'Lampe', 'Brille', 'Socke', 'Geige', 'Würfel', 'Löffel', 'Uhr', 'Kerze', 'Eimer', 'Hut', 'Telefon', 'Jacke', 'Fahrrad', 'Kiste', 'Schlüssel']",236.77357399999164,236.77640240010805,None,236.7765170999337,236.7791627999395,None,236.77926689991727,242.78316099988297,1,1.3038280000910163,None,242.78342920006253,242.78468860010616,242.78469999996014,242.78583250008523,,,,,,,,,,,,,,,,,,,,,,,,,,,,,,,,,,,,,,,,,,,,,,,,,,,1,2023-11-28_11h12.50.307,watkins1,2023.2.3,99.73659575809017,27,2023-11-28 11h12.56.893835 +0000,
,,,,,,,,,,,7,0,7,0,,,,,,,,,,,,,242.7926231001038,,,,,,,,,,242.78609189996496,243.2847792999819,,,[],[],,,,,,,,,,,,None,None,,,,,,,,,,Kamera,sportlich,"['Kamera', 'sportlich']",control,1,,,,,,242.78603020007722,242.78606659988873,"['Flasche', 'Schere', 'Rucksack', 'Hammer', 'Ring', 'Tasche', 'Blume', 'Kamera', 'Lampe', 'Brille', 'Socke', 'Geige', 'Würfel', 'Löffel', 'Uhr', 'Kerze', 'Eimer', 'Hut', 'Telefon', 'Jacke', 'Fahrrad', 'Kiste', 'Schlüssel']",243.28479030006565,249.29339840007015,2,249.2936694000382,249.2965005999431,None,249.2966048999224,249.29917620006017,None,,,249.29927790001966,249.3004513999913,249.30046260007657,249.30170070007443,1.414266400039196,None,,,,,,,,,,,,,,,,,,,,,,,,,,,,,,,,,,,,,,,,,,,,,,,,,1,2023-11-28_11h12.50.307,watkins1,2023.2.3,99.73659575809017,27,2023-11-28 11h12.56.893835 +0000,
,,,,,,,,,,,8,0,8,0,,,,,,,,,,,,,249.3052801999729,,,,,,,,,,249.30196779989637,249.7986518999096,,,1,1.0334687000140548,,,,,,,,,,,,None,None,,,,,,,,,,Lampe,kalt,"['Lampe', 'kalt']",restudy_diff,1,,,,,,249.3019053998869,249.30194399994798,"['Flasche', 'Schere', 'Rucksack', 'Hammer', 'Ring', 'Tasche', 'Blume', 'Kamera', 'Lampe', 'Brille', 'Socke', 'Geige', 'Würfel', 'Löffel', 'Uhr', 'Kerze', 'Eimer', 'Hut', 'Telefon', 'Jacke', 'Fahrrad', 'Kiste', 'Schlüssel']",249.79866220010445,249.80020159995183,None,249.80031550000422,249.80181610002182,None,249.80191750009544,255.81056579994038,1,1.0334687000140548,None,255.81083450000733,255.81211500009522,255.81212690006942,255.81316450005397,,,,,,,,,,,,,,,,,,,,,,,,,,,,,,,,,,,,,,,,,,,,,,,,,,,1,2023-11-28_11h12.50.307,watkins1,2023.2.3,99.73659575809017,27,2023-11-28 11h12.56.893835 +0000,
,,,,,,,,,,,9,0,9,0,,,,,,,,,,,,,255.8200570999179,,,,,,,,,,255.81343199987896,256.31193510000594,,,1,0.9739026001188904,,,,,,,,,,,,None,None,,,,,,,,,,Brille,dick,"['Brille', 'dick']",restudy_diff,1,,,,,,255.81336909998208,255.8134067999199,"['Flasche', 'Schere', 'Rucksack', 'Hammer', 'Ring', 'Tasche', 'Blume', 'Kamera', 'Lampe', 'Brille', 'Socke', 'Geige', 'Würfel', 'Löffel', 'Uhr', 'Kerze', 'Eimer', 'Hut', 'Telefon', 'Jacke', 'Fahrrad', 'Kiste', 'Schlüssel']",256.3119459000882,256.3145087000448,None,256.3146273000166,256.31703800009564,None,256.3171401999425,262.3207537000999,1,0.9739026001188904,None,262.3210330000147,262.32281009992585,262.32282230001874,262.3238697000779,,,,,,,,,,,,,,,,,,,,,,,,,,,,,,,,,,,,,,,,,,,,,,,,,,,1,2023-11-28_11h12.50.307,watkins1,2023.2.3,99.73659575809017,27,2023-11-28 11h12.56.893835 +0000,
,,,,,,,,,,,10,0,10,0,,,,,,,,,,,,,262.33023239998147,,,,,,,,,,262.3241417000536,262.82241400005296,,,1,1.6475917999632657,,,,,,,,,,,,None,None,,,,,,,,,,Socke,strahlend,"['Socke', 'strahlend']",restudy_diff,1,,,,,,262.32407779991627,262.32411559997126,"['Flasche', 'Schere', 'Rucksack', 'Hammer', 'Ring', 'Tasche', 'Blume', 'Kamera', 'Lampe', 'Brille', 'Socke', 'Geige', 'Würfel', 'Löffel', 'Uhr', 'Kerze', 'Eimer', 'Hut', 'Telefon', 'Jacke', 'Fahrrad', 'Kiste', 'Schlüssel']",262.8224235998932,262.8249248000793,None,262.8250382998958,262.827416599961,None,262.82751809991896,268.8297681999393,1,1.6475917999632657,None,268.83004130003974,268.8313211000059,268.83133290009573,268.83269699988887,,,,,,,,,,,,,,,,,,,,,,,,,,,,,,,,,,,,,,,,,,,,,,,,,,,1,2023-11-28_11h12.50.307,watkins1,2023.2.3,99.73659575809017,27,2023-11-28 11h12.56.893835 +0000,
,,,,,,,,,,,11,0,11,0,,,,,,,,,,,,,268.83923769998364,,,,,,,,,,268.83296440006234,269.33142550010234,,,1,1.1220497000031173,,,,,,,,,,,,None,None,,,,,,,,,,Geige,schmutzig,"['Geige', 'schmutzig']",restudy_diff,1,,,,,,268.83290089992806,268.83293880010024,"['Flasche', 'Schere', 'Rucksack', 'Hammer', 'Ring', 'Tasche', 'Blume', 'Kamera', 'Lampe', 'Brille', 'Socke', 'Geige', 'Würfel', 'Löffel', 'Uhr', 'Kerze', 'Eimer', 'Hut', 'Telefon', 'Jacke', 'Fahrrad', 'Kiste', 'Schlüssel']",269.3314364000689,269.3342226999812,None,269.3343386000488,269.33691870002076,None,269.3370195000898,275.3386520999484,1,1.1220497000031173,None,275.338922200026,275.34020170010626,275.3402132000774,275.3415651000105,,,,,,,,,,,,,,,,,,,,,,,,,,,,,,,,,,,,,,,,,,,,,,,,,,,1,2023-11-28_11h12.50.307,watkins1,2023.2.3,99.73659575809017,27,2023-11-28 11h12.56.893835 +0000,
,,,,,,,,,,,12,0,12,0,,,,,,,,,,,,,275.34823830006644,,,,,,,,,,275.34183009993285,275.84029820002615,,,1,0.9255766998976469,,,,,,,,,,,,None,None,,,,,,,,,,Würfel,nass,"['Würfel', 'nass']",restudy_diff,1,,,,,,275.341767200036,275.34180449997075,"['Flasche', 'Schere', 'Rucksack', 'Hammer', 'Ring', 'Tasche', 'Blume', 'Kamera', 'Lampe', 'Brille', 'Socke', 'Geige', 'Würfel', 'Löffel', 'Uhr', 'Kerze', 'Eimer', 'Hut', 'Telefon', 'Jacke', 'Fahrrad', 'Kiste', 'Schlüssel']",275.84030849998817,275.84303059987724,None,275.8431426999159,275.84575939993374,None,275.84586229990236,281.85192609997466,1,0.9255766998976469,None,281.8521964000538,281.853507099906,281.8535192999989,281.85455970000476,,,,,,,,,,,,,,,,,,,,,,,,,,,,,,,,,,,,,,,,,,,,,,,,,,,1,2023-11-28_11h12.50.307,watkins1,2023.2.3,99.73659575809017,27,2023-11-28 11h12.56.893835 +0000,
,,,,,,,,,,,13,0,13,0,,,,,,,,,,,,,281.86139829992317,,,,,,,,,,281.8548314999789,282.3534343999345,,,2,2.468474799999967,,,,,,,,,,,,None,None,,,,,,,,,,Löffel,flach,"['Löffel', 'flach']",restudy_diff,1,,,,,,281.8547680999618,281.8548057998996,"['Flasche', 'Schere', 'Rucksack', 'Hammer', 'Ring', 'Tasche', 'Blume', 'Kamera', 'Lampe', 'Brille', 'Socke', 'Geige', 'Würfel', 'Löffel', 'Uhr', 'Kerze', 'Eimer', 'Hut', 'Telefon', 'Jacke', 'Fahrrad', 'Kiste', 'Schlüssel']",282.3534456999041,282.35603959998116,None,282.3561551999301,282.358577700099,None,282.3586794999428,288.3621493000537,2,2.468474799999967,None,288.3624291000888,288.3637749000918,288.363786800066,288.3649396998808,,,,,,,,,,,,,,,,,,,,,,,,,,,,,,,,,,,,,,,,,,,,,,,,,,,1,2023-11-28_11h12.50.307,watkins1,2023.2.3,99.73659575809017,27,2023-11-28 11h12.56.893835 +0000,
,,,,,,,,,,,14,0,14,0,,,,,,,,,,,,,288.3717306999024,,,,,,,,,,288.3652089999523,288.86380139994435,,,3,1.5899606000166386,,,,,,,,,,,,None,None,,,,,,,,,,Uhr,hübsch,"['Uhr', 'hübsch']",restudy_diff,1,,,,,,288.3651429999154,288.3651805999689,"['Flasche', 'Schere', 'Rucksack', 'Hammer', 'Ring', 'Tasche', 'Blume', 'Kamera', 'Lampe', 'Brille', 'Socke', 'Geige', 'Würfel', 'Löffel', 'Uhr', 'Kerze', 'Eimer', 'Hut', 'Telefon', 'Jacke', 'Fahrrad', 'Kiste', 'Schlüssel']",288.863811600022,288.86664350004867,None,288.8667576999869,288.86912179994397,None,288.86922380002216,294.8749750999268,3,1.5899606000166386,None,294.87524800002575,294.8763816000428,294.8763931998983,294.87758919992484,,,,,,,,,,,,,,,,,,,,,,,,,,,,,,,,,,,,,,,,,,,,,,,,,,,1,2023-11-28_11h12.50.307,watkins1,2023.2.3,99.73659575809017,27,2023-11-28 11h12.56.893835 +0000,
,,,,,,,,,,,15,0,15,0,,,,,,,,,,,,,294.8844534000382,,,,,,,,,,294.8779029001016,295.3765072999522,,,[],[],,,,,,,,,,,,None,None,,,,,,,,,,Kerze,niedlich,"['Kerze', 'niedlich']",control,1,,,,,,294.8778025000356,294.8778637999203,"['Flasche', 'Schere', 'Rucksack', 'Hammer', 'Ring', 'Tasche', 'Blume', 'Kamera', 'Lampe', 'Brille', 'Socke', 'Geige', 'Würfel', 'Löffel', 'Uhr', 'Kerze', 'Eimer', 'Hut', 'Telefon', 'Jacke', 'Fahrrad', 'Kiste', 'Schlüssel']",295.37651830003597,301.3777681000065,2,301.37805699999444,301.38079559989274,None,301.38090119999833,301.38346539996564,None,,,301.3835694999434,301.3847384999972,301.384749900084,301.38598249992356,2.642433000029996,None,,,,,,,,,,,,,,,,,,,,,,,,,,,,,,,,,,,,,,,,,,,,,,,,,1,2023-11-28_11h12.50.307,watkins1,2023.2.3,99.73659575809017,27,2023-11-28 11h12.56.893835 +0000,
,,,,,,,,,,,16,0,16,0,,,,,,,,,,,,,301.3895282999147,,,,,,,,,,301.3862491999753,301.88275910005905,,,2,2.0691819000057876,,,,,,,,,,,,None,None,,,,,,,,,,Eimer,neu,"['Eimer', 'neu']",restudy_diff,1,,,,,,301.3861867999658,301.3862256000284,"['Flasche', 'Schere', 'Rucksack', 'Hammer', 'Ring', 'Tasche', 'Blume', 'Kamera', 'Lampe', 'Brille', 'Socke', 'Geige', 'Würfel', 'Löffel', 'Uhr', 'Kerze', 'Eimer', 'Hut', 'Telefon', 'Jacke', 'Fahrrad', 'Kiste', 'Schlüssel']",301.88277020002715,301.8845176999457,None,301.88463360001333,301.8860539998859,None,301.8861589001026,307.8930154000409,2,2.0691819000057876,None,307.8932898999192,307.8945818999782,307.8945937999524,307.89561960007995,,,,,,,,,,,,,,,,,,,,,,,,,,,,,,,,,,,,,,,,,,,,,,,,,,,1,2023-11-28_11h12.50.307,watkins1,2023.2.3,99.73659575809017,27,2023-11-28 11h12.56.893835 +0000,
,,,,,,,,,,,17,0,17,0,,,,,,,,,,,,,307.90249729994684,,,,,,,,,,307.8958850998897,308.39465510006994,,,[],[],,,,,,,,,,,,None,None,,,,,,,,,,Hut,kaputt,"['Hut', 'kaputt']",control,1,,,,,,307.89582139998674,307.8958594999276,"['Flasche', 'Schere', 'Rucksack', 'Hammer', 'Ring', 'Tasche', 'Blume', 'Kamera', 'Lampe', 'Brille', 'Socke', 'Geige', 'Würfel', 'Löffel', 'Uhr', 'Kerze', 'Eimer', 'Hut', 'Telefon', 'Jacke', 'Fahrrad', 'Kiste', 'Schlüssel']",308.394665800035,314.39640039997175,3,314.3966741999611,314.3993281999137,None,314.39943220000714,314.40184789989144,None,,,314.40195140009746,314.40298469993286,314.40299639990553,314.4042001001071,1.7365015000104904,None,,,,,,,,,,,,,,,,,,,,,,,,,,,,,,,,,,,,,,,,,,,,,,,,,1,2023-11-28_11h12.50.307,watkins1,2023.2.3,99.73659575809017,27,2023-11-28 11h12.56.893835 +0000,
,,,,,,,,,,,18,0,18,0,,,,,,,,,,,,,314.40788630000316,,,,,,,,,,314.4044679000508,314.90089450008236,,,3,1.47469239984639,,,,,,,,,,,,None,None,,,,,,,,,,Telefon,praktisch,"['Telefon', 'praktisch']",restudy_diff,1,,,,,,314.4044045000337,314.4044437999837,"['Flasche', 'Schere', 'Rucksack', 'Hammer', 'Ring', 'Tasche', 'Blume', 'Kamera', 'Lampe', 'Brille', 'Socke', 'Geige', 'Würfel', 'Löffel', 'Uhr', 'Kerze', 'Eimer', 'Hut', 'Telefon', 'Jacke', 'Fahrrad', 'Kiste', 'Schlüssel']",314.9009050000459,314.9025286999531,None,314.9026436000131,314.90412029996514,None,314.90422299993224,320.9061994999647,3,1.47469239984639,None,320.90647289995104,320.90778949996457,320.9078013000544,320.9090670000296,,,,,,,,,,,,,,,,,,,,,,,,,,,,,,,,,,,,,,,,,,,,,,,,,,,1,2023-11-28_11h12.50.307,watkins1,2023.2.3,99.73659575809017,27,2023-11-28 11h12.56.893835 +0000,
,,,,,,,,,,,19,0,19,0,,,,,,,,,,,,,320.9156808999833,,,,,,,,,,320.90933630010113,321.4078518000897,,,[],[],,,,,,,,,,,,None,None,,,,,,,,,,Jacke,kurz,"['Jacke', 'kurz']",control,1,,,,,,320.90927290008403,320.9093106999062,"['Flasche', 'Schere', 'Rucksack', 'Hammer', 'Ring', 'Tasche', 'Blume', 'Kamera', 'Lampe', 'Brille', 'Socke', 'Geige', 'Würfel', 'Löffel', 'Uhr', 'Kerze', 'Eimer', 'Hut', 'Telefon', 'Jacke', 'Fahrrad', 'Kiste', 'Schlüssel']",321.40786170004867,327.41067390004173,3,327.41094599990174,327.41346499999054,None,327.4135682999622,327.4162258000579,None,,,327.4163273999002,327.4174881000072,327.4174995999783,327.4185313000344,0.9783960999920964,None,,,,,,,,,,,,,,,,,,,,,,,,,,,,,,,,,,,,,,,,,,,,,,,,,1,2023-11-28_11h12.50.307,watkins1,2023.2.3,99.73659575809017,27,2023-11-28 11h12.56.893835 +0000,
,,,,,,,,,,,20,0,20,0,,,,,,,,,,,,,327.4221797999926,,,,,,,,,,327.41879709996283,327.91513100010343,,,2,1.6918701000977308,,,,,,,,,,,,None,None,,,,,,,,,,Fahrrad,groß,"['Fahrrad', 'groß']",restudy_diff,1,,,,,,327.4187344999518,327.41877299989574,"['Flasche', 'Schere', 'Rucksack', 'Hammer', 'Ring', 'Tasche', 'Blume', 'Kamera', 'Lampe', 'Brille', 'Socke', 'Geige', 'Würfel', 'Löffel', 'Uhr', 'Kerze', 'Eimer', 'Hut', 'Telefon', 'Jacke', 'Fahrrad', 'Kiste', 'Schlüssel']",327.9151407000609,327.9167071999982,None,327.91681910003535,327.91826559999026,None,327.91836569993757,333.92595049995,2,1.6918701000977308,None,333.92622589995153,333.92775389994495,333.9277661999222,333.9288113999646,,,,,,,,,,,,,,,,,,,,,,,,,,,,,,,,,,,,,,,,,,,,,,,,,,,1,2023-11-28_11h12.50.307,watkins1,2023.2.3,99.73659575809017,27,2023-11-28 11h12.56.893835 +0000,
,,,,,,,,,,,21,0,21,0,,,,,,,,,,,,,333.9354304000735,,,,,,,,,,333.92907979991287,334.4275559000671,,,2,1.4904048999305815,,,,,,,,,,,,None,None,,,,,,,,,,Kiste,winzig,"['Kiste', 'winzig']",restudy_diff,1,,,,,,333.92901730001904,333.92905450006947,"['Flasche', 'Schere', 'Rucksack', 'Hammer', 'Ring', 'Tasche', 'Blume', 'Kamera', 'Lampe', 'Brille', 'Socke', 'Geige', 'Würfel', 'Löffel', 'Uhr', 'Kerze', 'Eimer', 'Hut', 'Telefon', 'Jacke', 'Fahrrad', 'Kiste', 'Schlüssel']",334.427566899918,334.43011369998567,None,334.43022989993915,334.4325983999297,None,334.4327006000094,340.43936139997095,2,1.4904048999305815,None,340.4396387001034,340.4409179999493,340.44092980003916,340.4421065999195,,,,,,,,,,,,,,,,,,,,,,,,,,,,,,,,,,,,,,,,,,,,,,,,,,,1,2023-11-28_11h12.50.307,watkins1,2023.2.3,99.73659575809017,27,2023-11-28 11h12.56.893835 +0000,
,,,,,,,,,,,22,0,22,0,,,,,,,,,,,,,340.4489325999748,,,,,,,,,,340.4423752001021,340.94098700000905,,,[],[],,,,,,,,,,,,None,None,,,,,,,,,,Schlüssel,krumm,"['Schlüssel', 'krumm']",control,1,,,,,,340.44231220008805,340.4423497999087,"['Flasche', 'Schere', 'Rucksack', 'Hammer', 'Ring', 'Tasche', 'Blume', 'Kamera', 'Lampe', 'Brille', 'Socke', 'Geige', 'Würfel', 'Löffel', 'Uhr', 'Kerze', 'Eimer', 'Hut', 'Telefon', 'Jacke', 'Fahrrad', 'Kiste', 'Schlüssel']",340.9409970000852,346.9422277000267,2,346.94249669997953,346.94525310001336,None,346.9453563001007,346.9479155000299,None,,,346.94801710010506,346.9492516000755,346.949263199931,346.95040210010484,1.325971899786964,None,,,,,,,,,,,,,,,,,,,,,,,,,,,,,,,,,,,,,,,,,,,,,,,,,1,2023-11-28_11h12.50.307,watkins1,2023.2.3,99.73659575809017,27,2023-11-28 11h12.56.893835 +0000,
,,,,,,,,,,,,,,,,,,,,,,,,,,,,,,,,,,,,,,,,,,,,,,,,,,,,,,,,,,,,,,,,,,,,,1,,,,,,,,,,,,,,,,,,,,,,,,,,,,,,,,,,,,,,,,,,,,,,,,,,,,,,,,,,,,,,,,,,,,,,,,,,1,2023-11-28_11h12.50.307,watkins1,2023.2.3,99.73659575809017,27,2023-11-28 11h12.56.893835 +0000,
(2 x 5) + 3 = 13 ,Correct,button_correct,,,,,,,,,,,,,0,0,0,2,,,,,,,,,367.6034933999181,,,,,,,,366.5726741000544,367.57623200002126,,,,,['button_correct'],[3.19522300013341],,,,,,,,,,,,,,,,,,,,,,,,,,distractorTask,1,,,,,,,,,,,,,,,,,,,,,,,,,,367.5925211000722,367.6034933999181,370.79262789990753,[0.3592592592592593],[-0.40555555555555556],[1],[0],[0],[3.19522300013341],['button_correct'],370.7934196998831,371.79648140002973,,,,,,,,,,,,,,,,,,,,,,,,,,,,,,,,,,,,,1,2023-11-28_11h12.50.307,watkins1,2023.2.3,99.73659575809017,27,2023-11-28 11h12.56.893835 +0000,
(28 : 7) - 3 = 1 ,Correct,button_correct,,,,,,,,,,,,,0,1,1,0,,,,,,,,,371.8064651999157,,,,,,,,,,,,,,['button_correct'],[5.640244900016114],,,,,,,,,,,,,,,,,,,,,,,,,,distractorTask,1,,,,,,,,,,,,,,,,,,,,,,,,,,371.79667589999735,371.8064651999157,377.44020000007004,[0.35833333333333334],[-0.4009259259259259],[1],[0],[0],[5.640244900016114],['button_correct'],377.4405795999337,378.44378020009026,,,,,,,,,,,,,,,,,,,,,,,,,,,,,,,,,,,,,1,2023-11-28_11h12.50.307,watkins1,2023.2.3,99.73659575809017,27,2023-11-28 11h12.56.893835 +0000,
(7 x 6) + 9 = 48 ,Incorrect,button_incorrect,,,,,,,,,,,,,0,2,2,9,,,,,,,,,378.453732999973,,,,,,,,,,,,,,['button_incorrect'],[4.455735400086269],,,,,,,,,,,,,,,,,,,,,,,,,,distractorTask,1,,,,,,,,,,,,,,,,,,,,,,,,,,378.44397519994527,378.453732999973,382.9030627000611,[-0.3685185185185185],[-0.4111111111111111],[1],[0],[0],[4.455735400086269],['button_incorrect'],382.9034426000435,383.90684930002317,,,,,,,,,,,,,,,,,,,,,,,,,,,,,,,,,,,,,1,2023-11-28_11h12.50.307,watkins1,2023.2.3,99.73659575809017,27,2023-11-28 11h12.56.893835 +0000,
(54 : 6) - 10 = 0 ,Incorrect,button_incorrect,,,,,,,,,,,,,0,3,3,5,,,,,,,,,383.91697490005754,,,,,,,,,,,,,,['button_incorrect'],[6.224048600066453],,,,,,,,,,,,,,,,,,,,,,,,,,distractorTask,1,,,,,,,,,,,,,,,,,,,,,,,,,,383.9070405000821,383.91697490005754,390.133594899904,[-0.34814814814814815],[-0.41388888888888886],[1],[0],[0],[6.224048600066453],['button_incorrect'],390.1339783000294,391.13719210005365,,,,,,,,,,,,,,,,,,,,,,,,,,,,,,,,,,,,,1,2023-11-28_11h12.50.307,watkins1,2023.2.3,99.73659575809017,27,2023-11-28 11h12.56.893835 +0000,
(4 : 2) + 4 = 6 ,Correct,button_correct,,,,,,,,,,,,,0,4,4,1,,,,,,,,,391.1472932000179,,,,,,,,,,,,,,['button_correct'],[3.1515758999157697],,,,,,,,,,,,,,,,,,,,,,,,,,distractorTask,1,,,,,,,,,,,,,,,,,,,,,,,,,,391.1373825999908,391.1472932000179,394.2907767998986,[0.3712962962962963],[-0.40555555555555556],[1],[0],[0],[3.1515758999157697],['button_correct'],394.2911584000103,395.2944666000549,,,,,,,,,,,,,,,,,,,,,,,,,,,,,,,,,,,,,1,2023-11-28_11h12.50.307,watkins1,2023.2.3,99.73659575809017,27,2023-11-28 11h12.56.893835 +0000,
(9 x 5) - 9 = 36 ,Correct,button_correct,,,,,,,,,,,,,0,5,5,4,,,,,,,,,395.3044523000717,,,,,,,,,,,,,,['button_correct'],[5.059574499959126],,,,,,,,,,,,,,,,,,,,,,,,,,distractorTask,1,,,,,,,,,,,,,,,,,,,,,,,,,,395.29466250003316,395.3044523000717,400.3559622000903,[0.33425925925925926],[-0.412962962962963],[1],[0],[0],[5.059574499959126],['button_correct'],400.3563530999236,401.35948139987886,,,,,,,,,,,,,,,,,,,,,,,,,,,,,,,,,,,,,1,2023-11-28_11h12.50.307,watkins1,2023.2.3,99.73659575809017,27,2023-11-28 11h12.56.893835 +0000,
(25 : 5) + 5 = 9 ,Incorrect,button_incorrect,,,,,,,,,,,,,0,6,6,6,,,,,,,,,401.36957650003023,,,,,,,,,,,,,,['button_incorrect'],[2.870642299996689],,,,,,,,,,,,,,,,,,,,,,,,,,distractorTask,1,,,,,,,,,,,,,,,,,,,,,,,,,,401.35969049995765,401.36957650003023,404.23207430006005,[-0.3055555555555556],[-0.39444444444444443],[1],[0],[0],[2.870642299996689],['button_incorrect'],404.23245540005155,405.23571759997867,,,,,,,,,,,,,,,,,,,,,,,,,,,,,,,,,,,,,1,2023-11-28_11h12.50.307,watkins1,2023.2.3,99.73659575809017,27,2023-11-28 11h12.56.893835 +0000,
(6 x 3) + 10 = 27 ,Incorrect,button_incorrect,,,,,,,,,,,,,0,7,7,8,,,,,,,,,405.2456978999544,,,,,,,,,,,,,,['button_incorrect'],[3.5838452000170946],,,,,,,,,,,,,,,,,,,,,,,,,,distractorTask,1,,,,,,,,,,,,,,,,,,,,,,,,,,405.2359066999052,405.2456978999544,408.82146860007197,[-0.3212962962962963],[-0.4148148148148148],[1],[0],[0],[3.5838452000170946],['button_incorrect'],408.82188880001195,409.82511719991453,,,,,,,,,,,,,,,,,,,,,,,,,,,,,,,,,,,,,1,2023-11-28_11h12.50.307,watkins1,2023.2.3,99.73659575809017,27,2023-11-28 11h12.56.893835 +0000,
(40 : 5) + 8 = 15 ,Incorrect,button_incorrect,,,,,,,,,,,,,0,8,8,7,,,,,,,,,409.8351060000714,,,,,,,,,,,,,,['button_incorrect'],[7.188857099972665],,,,,,,,,,,,,,,,,,,,,,,,,,distractorTask,1,,,,,,,,,,,,,,,,,,,,,,,,,,409.82530839997344,409.8351060000714,417.0158752000425,[-0.36018518518518516],[-0.41944444444444445],[1],[0],[0],[7.188857099972665],['button_incorrect'],417.0162575999275,418.01928950008005,,,,,,,,,,,,,,,,,,,,,,,,,,,,,,,,,,,,,1,2023-11-28_11h12.50.307,watkins1,2023.2.3,99.73659575809017,27,2023-11-28 11h12.56.893835 +0000,
(80 : 10) + 9 = 17 ,Correct,button_correct,,,,,,,,,,,,,0,9,9,3,,,,,,,,,418.02922250004485,,,,,,,,,,,,,,['button_correct'],[3.855065699899569],,,,,,,,,,,,,,,,,,,,,,,,,,distractorTask,1,,,,,,,,,,,,,,,,,,,,,,,,,,418.0194816000294,418.02922250004485,421.876397700049,[0.3212962962962963],[-0.41388888888888886],[1],[0],[0],[3.855065699899569],['button_correct'],421.87681640009396,422.88013379997574,,,,,,,,,,,,,,,,,,,,,,,,,,,,,,,,,,,,,1,2023-11-28_11h12.50.307,watkins1,2023.2.3,99.73659575809017,27,2023-11-28 11h12.56.893835 +0000,
,,,,,,,,,,,,,,,,,,,,,,,,,,,,,,,,,,,,,,,,,,,,,,,,,,,,,,,,,,,,,,,,,,,,,1,,,,,,,,,,,,,,,,,,,,,,,,,,,,,,,,,,,,,,,,,,,,,,,,,,,,,,,,,,,,,,,,,,,,,,,,,,1,2023-11-28_11h12.50.307,watkins1,2023.2.3,99.73659575809017,27,2023-11-28 11h12.56.893835 +0000,
,,,,,,,,,,,,,,,,,,,0,0,0,0,,,,,457.3405094000045,,,,,,,,,,,,,,Uhr,5.586782699916512,,,,,,,,,,,,3.5641878999304026,None,,,,,,,,,,,,,freeRecallSub,1,,,,,,,,,,,,,,,,,,,,,,,,,,,,,,,,,,,,,,457.3318572000135,457.3405094000045,457.3405094000045,462.933733999962,return,5.586782699916512,None,Uhr,[-0.022222222222222223],[0.05092592592592592],[1],[0],[0],[2.308394599938765],[],,,,,,,,,,,,,,,,,,,,,,1,2023-11-28_11h12.50.307,watkins1,2023.2.3,99.73659575809017,27,2023-11-28 11h12.56.893835 +0000,
,,,,,,,,,,,,,,,,,,,1,0,1,0,,,,,462.94560600002296,,,,,,,,,,,,,,Eimer,1.9415339999832213,,,,,,,,,,,,0.5838363999500871,None,,,,,,,,,,,,,freeRecallSub,1,,,,,,,,,,,,,,,,,,,,,,,,,,,,,,,,,,,,,,462.935532100033,462.94560600002296,462.94560600002296,464.8950978999492,return,1.9415339999832213,None,Eimer,[],[],[],[],[],[],[],,,,,,,,,,,,,,,,,,,,,,1,2023-11-28_11h12.50.307,watkins1,2023.2.3,99.73659575809017,27,2023-11-28 11h12.56.893835 +0000,
,,,,,,,,,,,,,,,,,,,2,0,2,0,,,,,464.9060557000339,,,,,,,,,,,,,,Fahrrad,1.9730010000057518,,,,,,,,,,,,0.28139870008453727,None,,,,,,,,,,,,,freeRecallSub,1,,,,,,,,,,,,,,,,,,,,,,,,,,,,,,,,,,,,,,464.89636419992894,464.9060557000339,464.9060557000339,466.8849440999329,return,1.9730010000057518,None,Fahrrad,[],[],[],[],[],[],[],,,,,,,,,,,,,,,,,,,,,,1,2023-11-28_11h12.50.307,watkins1,2023.2.3,99.73659575809017,27,2023-11-28 11h12.56.893835 +0000,
,,,,,,,,,,,,,,,,,,,3,0,3,0,,,,,466.8955105000641,,,,,,,,,,,,,,Ring,1.639596699969843,,,,,,,,,,,,0.6423750999383628,None,,,,,,,,,,,,,freeRecallSub,1,,,,,,,,,,,,,,,,,,,,,,,,,,,,,,,,,,,,,,466.8862038999796,466.8955105000641,466.8955105000641,468.54265709989704,return,1.639596699969843,None,Ring,[],[],[],[],[],[],[],,,,,,,,,,,,,,,,,,,,,,1,2023-11-28_11h12.50.307,watkins1,2023.2.3,99.73659575809017,27,2023-11-28 11h12.56.893835 +0000,
,,,,,,,,,,,,,,,,,,,4,0,4,0,,,,,468.55392819992267,,,,,,,,,,,,,,Kiste,2.5972297000698745,,,,,,,,,,,,1.0752435000613332,None,,,,,,,,,,,,,freeRecallSub,1,,,,,,,,,,,,,,,,,,,,,,,,,,,,,,,,,,,,,,468.54391920007765,468.55392819992267,468.55392819992267,471.15563439996913,return,2.5972297000698745,None,Kiste,[],[],[],[],[],[],[],,,,,,,,,,,,,,,,,,,,,,1,2023-11-28_11h12.50.307,watkins1,2023.2.3,99.73659575809017,27,2023-11-28 11h12.56.893835 +0000,
,,,,,,,,,,,,,,,,,,,5,0,5,0,,,,,471.16683229990304,,,,,,,,,,,,,,Hund,11.328237200155854,,,,,,,,,,,,10.032628800021484,None,,,,,,,,,,,,,freeRecallSub,1,,,,,,,,,,,,,,,,,,,,,,,,,,,,,,,,,,,,,,471.15688770008273,471.16683229990304,471.16683229990304,482.50496950000525,return,11.328237200155854,None,Hund,[],[],[],[],[],[],[],,,,,,,,,,,,,,,,,,,,,,1,2023-11-28_11h12.50.307,watkins1,2023.2.3,99.73659575809017,27,2023-11-28 11h12.56.893835 +0000,
,,,,,,,,,,,,,,,,,,,6,0,6,0,,,,,482.5160846998915,,,,,,,,,,,,,,Katze,1.4430394999217242,,,,,,,,,,,,0.22148229996673763,None,,,,,,,,,,,,,freeRecallSub,1,,,,,,,,,,,,,,,,,,,,,,,,,,,,,,,,,,,,,,482.50622659991495,482.5160846998915,482.5160846998915,483.9629488000646,return,1.4430394999217242,None,Katze,[],[],[],[],[],[],[],,,,,,,,,,,,,,,,,,,,,,1,2023-11-28_11h12.50.307,watkins1,2023.2.3,99.73659575809017,27,2023-11-28 11h12.56.893835 +0000,
,,,,,,,,,,,,,,,,,,,7,0,7,0,,,,,483.9741986000445,,,,,,,,,,,,,,Socke,1.0889814998954535,,,,,,,,,,,,0.16163769992999732,None,,,,,,,,,,,,,freeRecallSub,1,,,,,,,,,,,,,,,,,,,,,,,,,,,,,,,,,,,,,,483.96420820010826,483.9741986000445,483.9741986000445,485.06976000010036,return,1.0889814998954535,None,Socke,[],[],[],[],[],[],[],,,,,,,,,,,,,,,,,,,,,,1,2023-11-28_11h12.50.307,watkins1,2023.2.3,99.73659575809017,27,2023-11-28 11h12.56.893835 +0000,
,,,,,,,,,,,,,,,,,,,8,0,8,0,,,,,485.0819367999211,,,,,,,,,,,,,,Kette,26.52520090015605,,,,,,,,,,,,24.75593869993463,None,,,,,,,,,,,,,freeRecallSub,1,,,,,,,,,,,,,,,,,,,,,,,,,,,,,,,,,,,,,,485.07101120008156,485.0819367999211,485.0819367999211,511.61455850000493,return,26.52520090015605,None,Kette,[],[],[],[],[],[],[],,,,,,,,,,,,,,,,,,,,,,1,2023-11-28_11h12.50.307,watkins1,2023.2.3,99.73659575809017,27,2023-11-28 11h12.56.893835 +0000,
,,,,,,,,,,,,,,,,,,,9,0,9,0,,,,,511.6259568000678,,,,,,,,,,,,,,Hammer,10.237116699805483,,,,,,,,,,,,9.029027599841356,None,,,,,,,,,,,,,freeRecallSub,1,,,,,,,,,,,,,,,,,,,,,,,,,,,,,,,,,,,,,,511.61584169999696,511.6259568000678,511.6259568000678,521.8701037000865,return,10.237116699805483,None,Hammer,[],[],[],[],[],[],[],,,,,,,,,,,,,,,,,,,,,,1,2023-11-28_11h12.50.307,watkins1,2023.2.3,99.73659575809017,27,2023-11-28 11h12.56.893835 +0000,
,,,,,,,,,,,,,,,,,,,10,0,10,0,,,,,521.8816768000834,,,,,,,,,,,,,,,[],,,,,,,,,,,,None,None,,,,,,,,,,,,,freeRecallSub,1,,,,,,,,,,,,,,,,,,,,,,,,,,,,,,,,,,,,,,521.8713541999459,521.8816768000834,521.8816768000834,530.1480568000115,None,,,,[0.32314814814814813],[-0.40370370370370373],[1],[0],[0],[8.272600200027227],"['button_continue', 'continue_text']",,,,,,,,,,,,,,,,,,,,,,1,2023-11-28_11h12.50.307,watkins1,2023.2.3,99.73659575809017,27,2023-11-28 11h12.56.893835 +0000,
,,,,,,,,,,,,,,,,,,,,,,,,,,,,,,,,,,,,,,,,,,,,,,,,,,,,,,,,,,,,,,,,,,,,,1,,,,,,,,,,,,,,,,,,,,,,,,,,,,,,,,,,,,,,,,,,,,,,,,,,,,,,,,,,,,,,,,,,,,,,,,,,1,2023-11-28_11h12.50.307,watkins1,2023.2.3,99.73659575809017,27,2023-11-28 11h12.56.893835 +0000,
,,,,,,,,,,,,,,,,,,,,,,,0,0,0,0,547.0621179000009,,,,,,,,,,553.8033926000353,554.3020262001082,,,,6.736875799950212,,,,,,,,,,,,None,None,,,,,,,,,,Kerze,,,cuedRecallAdj,1,,,,,,,,,,,,,,,,,,,,,,,,,,,,,,,,,,,,,,,,,,,,,,,,,,,,,547.0529801999219,547.0621179000009,0,547.0621179000009,553.8003861999605,bunt,return,6.736875799950212,None,553.8007741000038,553.809938200051,553.809938200051,553.8032426000573,,None,,,,,,,1,2023-11-28_11h12.50.307,watkins1,2023.2.3,99.73659575809017,27,2023-11-28 11h12.56.893835 +0000,
,,,,,,,,,,,,,,,,,,,,,,,1,0,1,0,554.3119846000336,,,,,,,,,,575.3509521998931,575.8423007999081,,,hell,15.879052799893543,,,,,,,,,,,,4.2172743999399245,None,,,,,,,,,,Lampe,,,cuedRecallAdj,1,,,,,,,,,,,,,,,,,,,,,,,,,,,,,,,,,,,,,,,,,,,,,,,,,,,,,554.3022721998859,554.3119846000336,0,554.3119846000336,570.1986652000342,dunkel,return,15.879052799893543,None,570.1989245000295,570.2083397000097,570.2083397000097,575.3506072999444,hell,return,5.134652100037783,None,,,,,1,2023-11-28_11h12.50.307,watkins1,2023.2.3,99.73659575809017,27,2023-11-28 11h12.56.893835 +0000,
,,,,,,,,,,,,,,,,,,,,,,,2,0,2,0,575.8523492999375,,,,,,,,,,578.6676928999368,579.1665217000991,,,,2.802718000020832,,,,,,,,,,,,None,None,,,,,,,,,,Jacke,,,cuedRecallAdj,1,,,,,,,,,,,,,,,,,,,,,,,,,,,,,,,,,,,,,,,,,,,,,,,,,,,,,575.8425410999916,575.8523492999375,0,575.8523492999375,578.6645704000257,kurz,return,2.802718000020832,None,578.6648305999115,578.6742980000563,578.6742980000563,578.6675942000002,,None,,,,,,,1,2023-11-28_11h12.50.307,watkins1,2023.2.3,99.73659575809017,27,2023-11-28 11h12.56.893835 +0000,
,,,,,,,,,,,,,,,,,,,,,,,3,0,3,0,579.1764712000731,,,,,,,,,,585.9959468999878,586.4873057000805,,,sauber,4.654558700043708,,,,,,,,,,,,0.7726864998694509,None,,,,,,,,,,Flasche,,,cuedRecallAdj,1,,,,,,,,,,,,,,,,,,,,,,,,,,,,,,,,,,,,,,,,,,,,,,,,,,,,,579.166762100067,579.1764712000731,0,579.1764712000731,583.8363423999399,matt,return,4.654558700043708,None,583.8366052999627,583.8458785999101,583.8458785999101,585.9956821000669,sauber,return,2.1451822000090033,None,,,,,1,2023-11-28_11h12.50.307,watkins1,2023.2.3,99.73659575809017,27,2023-11-28 11h12.56.893835 +0000,
,,,,,,,,,,,,,,,,,,,,,,,4,0,4,0,586.497202700004,,,,,,,,,,589.8047519999091,590.3030085999053,,,,3.3017874998040497,,,,,,,,,,,,None,None,,,,,,,,,,Schlüssel,,,cuedRecallAdj,1,,,,,,,,,,,,,,,,,,,,,,,,,,,,,,,,,,,,,,,,,,,,,,,,,,,,,586.487547500059,586.497202700004,0,586.497202700004,589.8013953000773,krumm,return,3.3017874998040497,None,589.8016566999722,589.8108943998814,589.8108943998814,589.8046520000789,,None,,,,,,,1,2023-11-28_11h12.50.307,watkins1,2023.2.3,99.73659575809017,27,2023-11-28 11h12.56.893835 +0000,
,,,,,,,,,,,,,,,,,,,,,,,5,0,5,0,590.3129290998913,,,,,,,,,,598.0357146998867,598.5270777000114,,,groß,5.630035300040618,,,,,,,,,,,,0.8527766999322921,None,,,,,,,,,,Fahrrad,,,cuedRecallAdj,1,,,,,,,,,,,,,,,,,,,,,,,,,,,,,,,,,,,,,,,,,,,,,,,,,,,,,590.3032426999416,590.3129290998913,0,590.3129290998913,595.9467583999503,gut,return,5.630035300040618,None,595.9470204000827,595.9564312999137,595.9564312999137,598.0354500999674,groß,return,2.074560899985954,None,,,,,1,2023-11-28_11h12.50.307,watkins1,2023.2.3,99.73659575809017,27,2023-11-28 11h12.56.893835 +0000,
,,,,,,,,,,,,,,,,,,,,,,,6,0,6,0,598.5370275001042,,,,,,,,,,610.2977919999976,610.7891305000521,,,bunt,4.181899500079453,,,,,,,,,,,,6.9587005998473614,None,,,,,,,,,,Blume,,,cuedRecallAdj,1,,,,,,,,,,,,,,,,,,,,,,,,,,,,,,,,,,,,,,,,,,,,,,,,,,,,,598.5273227998987,598.5370275001042,0,598.5370275001042,602.7255973999854,glatt,return,4.181899500079453,None,602.7258558000904,602.7351385999937,602.7351385999937,610.2975300999824,bunt,return,7.559845600044355,None,,,,,1,2023-11-28_11h12.50.307,watkins1,2023.2.3,99.73659575809017,27,2023-11-28 11h12.56.893835 +0000,
,,,,,,,,,,,,,,,,,,,,,,,7,0,7,0,610.7990407000761,,,,,,,,,,616.4461753999349,616.944733900018,,,,5.639904599869624,,,,,,,,,,,,None,None,,,,,,,,,,Kette,,,cuedRecallAdj,1,,,,,,,,,,,,,,,,,,,,,,,,,,,,,,,,,,,,,,,,,,,,,,,,,,,,,610.7893672001082,610.7990407000761,0,610.7990407000761,616.4428983000107,klobig,return,5.639904599869624,None,616.4431562998798,616.4525202000514,616.4525202000514,616.4460752001032,,None,,,,,,,1,2023-11-28_11h12.50.307,watkins1,2023.2.3,99.73659575809017,27,2023-11-28 11h12.56.893835 +0000,
,,,,,,,,,,,,,,,,,,,,,,,8,0,8,0,616.9546775999479,,,,,,,,,,625.2795567000285,625.7710828999989,,,schräg,3.844212499912828,,,,,,,,,,,,2.730582500109449,None,,,,,,,,,,Löffel,,,cuedRecallAdj,1,,,,,,,,,,,,,,,,,,,,,,,,,,,,,,,,,,,,,,,,,,,,,,,,,,,,,616.9449789000209,616.9546775999479,0,616.9546775999479,620.8010726999491,flach,return,3.844212499912828,None,620.8013351000845,620.8105878001079,620.8105878001079,625.279293099884,schräg,return,4.460312800016254,None,,,,,1,2023-11-28_11h12.50.307,watkins1,2023.2.3,99.73659575809017,27,2023-11-28 11h12.56.893835 +0000,
,,,,,,,,,,,,,,,,,,,,,,,9,0,9,0,625.7810017000884,,,,,,,,,,636.6676531000994,637.1590573000722,,,bunt,9.03400839981623,,,,,,,,,,,,1.1941096000373363,None,,,,,,,,,,Uhr,,,cuedRecallAdj,1,,,,,,,,,,,,,,,,,,,,,,,,,,,,,,,,,,,,,,,,,,,,,,,,,,,,,625.7713208000641,625.7810017000884,0,625.7810017000884,634.819884999888,hübsch,return,9.03400839981623,None,634.8201478999108,634.8293945998885,634.8293945998885,636.6673904000781,bunt,return,1.8335798000916839,None,,,,,1,2023-11-28_11h12.50.307,watkins1,2023.2.3,99.73659575809017,27,2023-11-28 11h12.56.893835 +0000,
,,,,,,,,,,,,,,,,,,,,,,,10,0,10,0,637.168952499982,,,,,,,,,,645.2464687000029,645.7449902000371,,,,8.070057599805295,,,,,,,,,,,,None,None,,,,,,,,,,Vase,,,cuedRecallAdj,1,,,,,,,,,,,,,,,,,,,,,,,,,,,,,,,,,,,,,,,,,,,,,,,,,,,,,637.1592971000355,637.168952499982,0,637.168952499982,645.2432548000943,schlicht,return,8.070057599805295,None,645.2435178998858,645.2527699999046,645.2527699999046,645.2463686999399,,None,,,,,,,1,2023-11-28_11h12.50.307,watkins1,2023.2.3,99.73659575809017,27,2023-11-28 11h12.56.893835 +0000,
,,,,,,,,,,,,,,,,,,,,,,,11,0,11,0,645.7549364001025,,,,,,,,,,658.830425000051,659.3218127998989,,,eckig,3.80401899991557,,,,,,,,,,,,7.47060800017789,None,,,,,,,,,,Würfel,,,cuedRecallAdj,1,,,,,,,,,,,,,,,,,,,,,,,,,,,,,,,,,,,,,,,,,,,,,,,,,,,,,645.745231699897,645.7549364001025,0,645.7549364001025,649.5611954000778,bunt,return,3.80401899991557,None,649.5614529000595,649.5707310999278,649.5707310999278,658.8301568001043,eckig,return,9.252102700062096,None,,,,,1,2023-11-28_11h12.50.307,watkins1,2023.2.3,99.73659575809017,27,2023-11-28 11h12.56.893835 +0000,
,,,,,,,,,,,,,,,,,,,,,,,12,0,12,0,659.3317652000114,,,,,,,,,,669.7987218000926,670.2973976999056,,,,10.459148800000548,,,,,,,,,,,,None,None,,,,,,,,,,Buch,,,cuedRecallAdj,1,,,,,,,,,,,,,,,,,,,,,,,,,,,,,,,,,,,,,,,,,,,,,,,,,,,,,659.3220599000342,659.3317652000114,0,659.3317652000114,669.7957546000835,gut,return,10.459148800000548,None,669.7960169001017,669.8052687000018,669.8052687000018,669.7986216999125,,None,,,,,,,1,2023-11-28_11h12.50.307,watkins1,2023.2.3,99.73659575809017,27,2023-11-28 11h12.56.893835 +0000,
,,,,,,,,,,,,,,,,,,,,,,,13,0,13,0,670.3074527999852,,,,,,,,,,673.6848379001021,674.1836041000206,,,,3.3714995000045747,,,,,,,,,,,,None,None,,,,,,,,,,Hut,,,cuedRecallAdj,1,,,,,,,,,,,,,,,,,,,,,,,,,,,,,,,,,,,,,,,,,,,,,,,,,,,,,670.2976391999982,670.3074527999852,0,670.3074527999852,673.6820372999646,kaputt,return,3.3714995000045747,None,673.6822995000985,673.6915788999759,673.6915788999759,673.6847367999144,,None,,,,,,,1,2023-11-28_11h12.50.307,watkins1,2023.2.3,99.73659575809017,27,2023-11-28 11h12.56.893835 +0000,
,,,,,,,,,,,,,,,,,,,,,,,14,0,14,0,674.1936087999493,,,,,,,,,,681.6957229999825,682.187086599879,,,neu,5.997336799977347,,,,,,,,,,,,0.47152259992435575,None,,,,,,,,,,Eimer,,,cuedRecallAdj,1,,,,,,,,,,,,,,,,,,,,,,,,,,,,,,,,,,,,,,,,,,,,,,,,,,,,,674.1838436999824,674.1936087999493,0,674.1936087999493,680.198986500036,hohl,return,5.997336799977347,None,680.1992504000664,680.208810799988,680.208810799988,681.6954459999688,neu,return,1.4860976999625564,None,,,,,1,2023-11-28_11h12.50.307,watkins1,2023.2.3,99.73659575809017,27,2023-11-28 11h12.56.893835 +0000,
,,,,,,,,,,,,,,,,,,,,,,,15,0,15,0,682.1969681000337,,,,,,,,,,690.2320558999199,690.7234555999748,,,gut,2.5699432999826968,,,,,,,,,,,,5.0703381998464465,None,,,,,,,,,,Hammer,,,cuedRecallAdj,1,,,,,,,,,,,,,,,,,,,,,,,,,,,,,,,,,,,,,,,,,,,,,,,,,,,,,682.187325600069,682.1969681000337,0,682.1969681000337,684.7693072000984,lang,return,2.5699432999826968,None,684.7695694998838,684.7788327999879,684.7788327999879,690.2317939999048,gut,return,5.4440591998863965,None,,,,,1,2023-11-28_11h12.50.307,watkins1,2023.2.3,99.73659575809017,27,2023-11-28 11h12.56.893835 +0000,
,,,,,,,,,,,,,,,,,,,,,,,16,0,16,0,690.7335145000834,,,,,,,,,,703.6808845000342,704.1790829000529,,,,12.937391400104389,,,,,,,,,,,,None,None,,,,,,,,,,Stift,,,cuedRecallAdj,1,,,,,,,,,,,,,,,,,,,,,,,,,,,,,,,,,,,,,,,,,,,,,,,,,,,,,690.7236949000508,690.7335145000834,0,690.7335145000834,703.677478000056,zart,return,12.937391400104389,None,703.6777411000803,703.6870397999883,703.6870397999883,703.6807836000808,,None,,,,,,,1,2023-11-28_11h12.50.307,watkins1,2023.2.3,99.73659575809017,27,2023-11-28 11h12.56.893835 +0000,
,,,,,,,,,,,,,,,,,,,,,,,17,0,17,0,704.1890376999509,,,,,,,,,,719.4225236999337,719.9140387000516,,,gut,12.121797099942341,,,,,,,,,,,,2.7005479000508785,None,,,,,,,,,,Brille,,,cuedRecallAdj,1,,,,,,,,,,,,,,,,,,,,,,,,,,,,,,,,,,,,,,,,,,,,,,,,,,,,,704.1793255999219,704.1890376999509,0,704.1890376999509,716.319401799934,bunt,return,12.121797099942341,None,716.3196616000496,716.3292449999135,716.3292449999135,719.4222605999094,gut,return,3.08556989999488,None,,,,,1,2023-11-28_11h12.50.307,watkins1,2023.2.3,99.73659575809017,27,2023-11-28 11h12.56.893835 +0000,
,,,,,,,,,,,,,,,,,,,,,,,18,0,18,0,719.924005500041,,,,,,,,,,725.2701642999891,725.7688025000971,,,,5.338955299928784,,,,,,,,,,,,None,None,,,,,,,,,,Kamera,,,cuedRecallAdj,1,,,,,,,,,,,,,,,,,,,,,,,,,,,,,,,,,,,,,,,,,,,,,,,,,,,,,719.9142777000088,719.924005500041,0,719.924005500041,725.2668626999948,sportlich,return,5.338955299928784,None,725.2671217001043,725.27637029998,725.27637029998,725.270065400051,,None,,,,,,,1,2023-11-28_11h12.50.307,watkins1,2023.2.3,99.73659575809017,27,2023-11-28 11h12.56.893835 +0000,
,,,,,,,,,,,,,,,,,,,,,,,19,0,19,0,725.7787268999964,,,,,,,,,,734.0969181999099,734.5883084998932,,,neu,4.252068900037557,,,,,,,,,,,,3.574211400002241,None,,,,,,,,,,Geige,,,cuedRecallAdj,1,,,,,,,,,,,,,,,,,,,,,,,,,,,,,,,,,,,,,,,,,,,,,,,,,,,,,725.7690419999417,725.7787268999964,0,725.7787268999964,730.0398182000499,lustig,return,4.252068900037557,None,730.040079300059,730.0495384000242,730.0495384000242,734.0966554000042,neu,return,4.045267000095919,None,,,,,1,2023-11-28_11h12.50.307,watkins1,2023.2.3,99.73659575809017,27,2023-11-28 11h12.56.893835 +0000,
,,,,,,,,,,,,,,,,,,,,,,,20,0,20,0,734.5982576999813,,,,,,,,,,739.9641537000425,740.4626726999413,,,,5.352600599871948,,,,,,,,,,,,None,None,,,,,,,,,,Trommel,,,cuedRecallAdj,1,,,,,,,,,,,,,,,,,,,,,,,,,,,,,,,,,,,,,,,,,,,,,,,,,,,,,734.5885532000102,734.5982576999813,0,734.5982576999813,739.9608173999004,fröhlich,return,5.352600599871948,None,739.9610794000328,739.9705376001075,739.9705376001075,739.9640520999674,,None,,,,,,,1,2023-11-28_11h12.50.307,watkins1,2023.2.3,99.73659575809017,27,2023-11-28 11h12.56.893835 +0000,
,,,,,,,,,,,,,,,,,,,,,,,21,0,21,0,740.4726195998956,,,,,,,,,,746.3506690999493,746.8494168000761,,,,5.870218000141904,,,,,,,,,,,,None,None,,,,,,,,,,Ring,,,cuedRecallAdj,1,,,,,,,,,,,,,,,,,,,,,,,,,,,,,,,,,,,,,,,,,,,,,,,,,,,,,740.4629182999488,740.4726195998956,0,740.4726195998956,746.347776700044,elegant,return,5.870218000141904,None,746.3480408999603,746.3573715998791,746.3573715998791,746.3505673001055,,None,,,,,,,1,2023-11-28_11h12.50.307,watkins1,2023.2.3,99.73659575809017,27,2023-11-28 11h12.56.893835 +0000,
,,,,,,,,,,,,,,,,,,,,,,,22,0,22,0,746.8594712999184,,,,,,,,,,751.7228647000156,752.221574400086,,,,4.859385099960491,,,,,,,,,,,,None,None,,,,,,,,,,Tasse,,,cuedRecallAdj,1,,,,,,,,,,,,,,,,,,,,,,,,,,,,,,,,,,,,,,,,,,,,,,,,,,,,,746.8496610999573,746.8594712999184,0,746.8594712999184,751.7200352998916,leer,return,4.859385099960491,None,751.7202957000118,751.7295641000383,751.7295641000383,751.722762899939,,None,,,,,,,1,2023-11-28_11h12.50.307,watkins1,2023.2.3,99.73659575809017,27,2023-11-28 11h12.56.893835 +0000,
,,,,,,,,,,,,,,,,,,,,,,,23,0,23,0,752.2315281999763,,,,,,,,,,765.5578985000029,766.0491223998833,,,neu,10.311242999974638,,,,,,,,,,,,2.097997600212693,None,,,,,,,,,,Tasche,,,cuedRecallAdj,1,,,,,,,,,,,,,,,,,,,,,,,,,,,,,,,,,,,,,,,,,,,,,,,,,,,,,752.2218168000691,752.2315281999763,0,752.2315281999763,762.5450887999032,schmutzig,return,10.311242999974638,None,762.5453512000386,762.5547436000779,762.5547436000779,765.5576341000851,neu,return,2.996024199994281,None,,,,,1,2023-11-28_11h12.50.307,watkins1,2023.2.3,99.73659575809017,27,2023-11-28 11h12.56.893835 +0000,
,,,,,,,,,,,,,,,,,,,,,,,24,0,24,0,766.0591291000601,,,,,,,,,,775.7515656000469,776.2431051000021,,,eckig,5.819702800130472,,,,,,,,,,,,2.963283299934119,None,,,,,,,,,,Kiste,,,cuedRecallAdj,1,,,,,,,,,,,,,,,,,,,,,,,,,,,,,,,,,,,,,,,,,,,,,,,,,,,,,766.0493586999364,766.0591291000601,0,766.0591291000601,771.8837699000724,krumm,return,5.819702800130472,None,771.8840284000617,771.8933329000138,771.8933329000138,775.751303399913,eckig,return,3.849449000088498,None,,,,,1,2023-11-28_11h12.50.307,watkins1,2023.2.3,99.73659575809017,27,2023-11-28 11h12.56.893835 +0000,
,,,,,,,,,,,,,,,,,,,,,,,25,0,25,0,776.2531574999448,,,,,,,,,,781.4553819000721,781.94697239995,,,bunt,3.769655399955809,,,,,,,,,,,,0.8226990001276135,None,,,,,,,,,,Socke,,,cuedRecallAdj,1,,,,,,,,,,,,,,,,,,,,,,,,,,,,,,,,,,,,,,,,,,,,,,,,,,,,,776.2433458999731,776.2531574999448,0,776.2531574999448,780.0293455999345,flauschig,return,3.769655399955809,None,780.0296070000622,780.0388597000856,780.0388597000856,781.4551055000629,bunt,return,1.407890500035137,None,,,,,1,2023-11-28_11h12.50.307,watkins1,2023.2.3,99.73659575809017,27,2023-11-28 11h12.56.893835 +0000,
,,,,,,,,,,,,,,,,,,,,,,,26,0,26,0,781.9568662999664,,,,,,,,,,788.1236431000289,788.6150875999592,,,neu,3.8098559000063688,,,,,,,,,,,,1.7571616999339312,None,,,,,,,,,,Telefon,,,cuedRecallAdj,1,,,,,,,,,,,,,,,,,,,,,,,,,,,,,,,,,,,,,,,,,,,,,,,,,,,,,781.9472169999499,781.9568662999664,0,781.9568662999664,785.7730521000922,praktisch,return,3.8098559000063688,None,785.7733136999886,785.7826837999746,785.7826837999746,788.123380899895,neu,return,2.336093100020662,None,,,,,1,2023-11-28_11h12.50.307,watkins1,2023.2.3,99.73659575809017,27,2023-11-28 11h12.56.893835 +0000,
,,,,,,,,,,,,,,,,,,,,,,,27,0,27,0,788.6249816999771,,,,,,,,,,792.0533833999652,792.5516240000725,,,,3.4218075999524444,,,,,,,,,,,,None,None,,,,,,,,,,Schere,,,cuedRecallAdj,1,,,,,,,,,,,,,,,,,,,,,,,,,,,,,,,,,,,,,,,,,,,,,,,,,,,,,788.6153329000808,788.6249816999771,0,788.6249816999771,792.0500606999267,krumm,return,3.4218075999524444,None,792.0503275999799,792.0596123000141,792.0596123000141,792.0532269000541,,None,,,,,,,1,2023-11-28_11h12.50.307,watkins1,2023.2.3,99.73659575809017,27,2023-11-28 11h12.56.893835 +0000,
,,,,,,,,,,,,,,,,,,,,,,,28,0,28,0,792.5616713000927,,,,,,,,,,796.6117881999817,797.1104242000729,,,,4.045154899824411,,,,,,,,,,,,None,None,,,,,,,,,,Rucksack,,,cuedRecallAdj,1,,,,,,,,,,,,,,,,,,,,,,,,,,,,,,,,,,,,,,,,,,,,,,,,,,,,,792.5518678000662,792.5616713000927,0,792.5616713000927,796.6087523999158,schwer,return,4.045154899824411,None,796.6090136000421,796.6184187000617,796.6184187000617,796.6116867000237,,None,,,,,,,1,2023-11-28_11h12.50.307,watkins1,2023.2.3,99.73659575809017,27,2023-11-28 11h12.56.893835 +0000,
,,,,,,,,,,,,,,,,,,,,,,,29,0,29,0,797.1203600999434,,,,,,,,,,800.3874544000719,800.8863711000886,,,,3.2624395999591798,,,,,,,,,,,,None,None,,,,,,,,,,Bürste,,,cuedRecallAdj,1,,,,,,,,,,,,,,,,,,,,,,,,,,,,,,,,,,,,,,,,,,,,,,,,,,,,,797.110667699948,797.1203600999434,0,797.1203600999434,800.3845987999812,bunt,return,3.2624395999591798,None,800.384861700004,800.3942656998988,800.3942656998988,800.3873532998841,,None,,,,,,,1,2023-11-28_11h12.50.307,watkins1,2023.2.3,99.73659575809017,27,2023-11-28 11h12.56.893835 +0000,
,,,,,,,,,,,,,,,,,,,,,,,,,,,,,,,,,,,,,,,,,,,,,,,,,,,,,,,,,,,,,,,,,,,,,1,,,,,,,,,,,,,,,,,,,,,,,,,,,,,,,,,,,,,,,,,,,,,,,,,,,,,,,,,,,,,,,,,,,,,,800.902941999957,q,326.21541539998725,None,1,2023-11-28_11h12.50.307,watkins1,2023.2.3,99.73659575809017,27,2023-11-28 11h12.56.893835 +0000,
