Equation,CorrectResponse,Correctbutton,trials_7.thisRepN,trials_7.thisTrialN,trials_7.thisN,trials_7.thisIndex,trials.thisRepN,trials.thisTrialN,trials.thisN,trials.thisIndex,trials_3.thisRepN,trials_3.thisTrialN,trials_3.thisN,trials_3.thisIndex,trials_2.thisRepN,trials_2.thisTrialN,trials_2.thisN,trials_2.thisIndex,trials_4.thisRepN,trials_4.thisTrialN,trials_4.thisN,trials_4.thisIndex,trials_5.thisRepN,trials_5.thisTrialN,trials_5.thisN,trials_5.thisIndex,thisRow.t,notes,code_marius.started,code_marius.stopped,welcome.started,welcome.stopped,instruction_study.started,instruction_study.stopped,fixationcross.started,fixationcross.stopped,blanc.started,blanc.stopped,study_control_probe.started,study_control_probe.stopped,responseKey,responseTime,scale_answer_2.keys,study_control_probe_2.started,study_control_probe_2.stopped,scale_answer_3.keys,blanc_2.started,blanc_2.stopped,test_attr_probe.started,test_attr_probe.stopped,recalled_attr,firstKeyTime,secondWordTime,blanc_3.started,blanc_3.stopped,test_sub_probe.started,test_sub_probe.stopped,recalled_sub,instruction_probe_end.started,instruction_probe_end.stopped,study.started,study.stopped,substantive,adjective,wordpair,task,condition,liste_sub_phase1,liste_adj_phase1,scale_answer.keys,scale_answer.rt,scale_answer.duration,code_defineWordsInit.started,code_defineWordsInit.stopped,liste_sub_phase2,study_control.started,study_control.stopped,scale_answer_4.keys,restudy_same.started,restudy_same.stopped,scale_answer_5.keys,restudy_different.started,restudy_different.stopped,scale_answer_6.keys,test_attr.started,correct,test_attr.stopped,test_sub.started,test_sub.stopped,scale_answer_5.rt,scale_answer_5.duration,distractortask.started,equation_text.started,distractortask.stopped,mouse_answer.x,mouse_answer.y,mouse_answer.leftButton,mouse_answer.midButton,mouse_answer.rightButton,mouse_answer.time,mouse_answer.clicked_name,feedback_distractortask.started,feedback_distractortask.stopped,free_recall.started,text_enter.started,key_resp.started,free_recall.stopped,key_resp.keys,key_resp.rt,key_resp.duration,free_recalled_sub,mouse_continue.x,mouse_continue.y,mouse_continue.leftButton,mouse_continue.midButton,mouse_continue.rightButton,mouse_continue.time,mouse_continue.clicked_name,cued_recall.started,text_enter_2.started,key_continue.started,cued_recall.stopped,recalled_attr1,key_continue.keys,key_continue.rt,key_continue.duration,cued_recall_2.started,text_enter_3.started,key_continue_2.started,cued_recall_2.stopped,recalled_attr2,key_continue_2.keys,key_resp_8.started,key_resp_8.keys,key_resp_8.rt,key_resp_8.duration,condition,date,expName,psychopyVersion,frameRate,participant,expStart,
,,,,,,,,,,,,,,,,,,,,,,,,,,,,,0.09916620003059506,0.09923380007967353,0.0992417000234127,6.603874700143933,,,,,,,,,,,,,,,,,,,,,,,,,,,,,,,,,,,3,,,,,,,,,,,,,,,,,,,,,,,,,,,,,,,,,,,,,,,,,,,,,,,,,,,,,,,,,,,,,,,,,,,,,,3,2023-11-27_11h30.52.702,watkins1,2023.2.3,99.71750028337864,17,2023-11-27 11h30.59.477323 +0000,
,,,,,,,,,,,,,,,,,,,,,,,,,,,,,,,,,6.603923300048336,46.657337500015274,,,,,,,,,,,,,,,,,,,,,,,,,,,,,,,,,3,,,,,,,,,,,,,,,,,,,,,,,,,,,,,,,,,,,,,,,,,,,,,,,,,,,,,,,,,,,,,,,,,,,,,,3,2023-11-27_11h30.52.702,watkins1,2023.2.3,99.71750028337864,17,2023-11-27 11h30.59.477323 +0000,
,,,0,0,0,0,,,,,,,,,,,,,,,,,,,,,47.67099140002392,,,,,,,,46.6573540000245,47.661005600122735,54.15940170013346,54.650732500012964,48.15303890011273,54.15924030006863,[],[],None,54.65074239997193,60.65489550004713,None,60.65504310000688,61.146256000036374,61.14626660011709,67.15119830006734,spas,None,None,67.15141930012032,67.1514425999485,67.15145050012507,67.15152900014073,,,,,,,,,,3,,,,,,,,,,,,,,,,,,,,,,,,,,,,,,,,,,,,,,,,,,,,,,,,,,,,,,,,,,,,,,,,,,,,,,3,2023-11-27_11h30.52.702,watkins1,2023.2.3,99.71750028337864,17,2023-11-27 11h30.59.477323 +0000,
,,,,,,,,,,,,,,,,,,,,,,,,,,,,,,,,,,,,,,,,,,,,,,,,,,,,,,,,,,,67.15164589998312,126.86930260015652,,,,,,,3,,,,,,,,,,,,,,,,,,,,,,,,,,,,,,,,,,,,,,,,,,,,,,,,,,,,,,,,,,,,,,,,,,,,,,3,2023-11-27_11h30.52.702,watkins1,2023.2.3,99.71750028337864,17,2023-11-27 11h30.59.477323 +0000,
,,,,,,,0,0,0,0,,,,,,,,,,,,,,,,,127.88299600011669,,,,,,,,126.8693202000577,127.87300610006787,127.8735338000115,128.36498220008798,,,2,2.6817796998657286,,,,,,,,,,,,,,,,,,,128.36499240016565,134.3705991001334,Hut,lang,"['Hut', 'lang']",test_adj,3,"['Hut', 'Lampe', 'Tasse', 'Jacke', 'Ring', 'Löffel', 'Flasche', 'Bürste', 'Würfel', 'Buch', 'Brille', 'Trommel', 'Blume', 'Tasche', 'Schere', 'Kerze', 'Uhr', 'Fahrrad', 'Hammer', 'Stift', 'Kiste', 'Geige', 'Kamera', 'Rucksack', 'Vase', 'Socke', 'Telefon', 'Kette', 'Eimer', 'Schlüssel']",['lang'],2,2.6817796998657286,None,,,,,,,,,,,,,,,,,,,,,,,,,,,,,,,,,,,,,,,,,,,,,,,,,,,,,,,,,,,,,,,,,3,2023-11-27_11h30.52.702,watkins1,2023.2.3,99.71750028337864,17,2023-11-27 11h30.59.477323 +0000,
,,,,,,,1,0,1,0,,,,,,,,,,,,,,,,,134.38018530001864,,,,,,,,,,134.3712476999499,134.862253600033,,,1,2.1686651001218706,,,,,,,,,,,,,,,,,,,134.862263899995,140.86838190001436,Lampe,flauschig,"['Lampe', 'flauschig']",restudy,3,"['Hut', 'Lampe', 'Tasse', 'Jacke', 'Ring', 'Löffel', 'Flasche', 'Bürste', 'Würfel', 'Buch', 'Brille', 'Trommel', 'Blume', 'Tasche', 'Schere', 'Kerze', 'Uhr', 'Fahrrad', 'Hammer', 'Stift', 'Kiste', 'Geige', 'Kamera', 'Rucksack', 'Vase', 'Socke', 'Telefon', 'Kette', 'Eimer', 'Schlüssel']","['lang', 'flauschig']",1,2.1686651001218706,None,,,,,,,,,,,,,,,,,,,,,,,,,,,,,,,,,,,,,,,,,,,,,,,,,,,,,,,,,,,,,,,,,3,2023-11-27_11h30.52.702,watkins1,2023.2.3,99.71750028337864,17,2023-11-27 11h30.59.477323 +0000,
,,,,,,,2,0,2,0,,,,,,,,,,,,,,,,,140.87791880010627,,,,,,,,,,140.8689075000584,141.3600019000005,,,3,3.503703899914399,,,,,,,,,,,,,,,,,,,141.36001170007512,147.36157579999417,Tasse,dunkel,"['Tasse', 'dunkel']",test_adj,3,"['Hut', 'Lampe', 'Tasse', 'Jacke', 'Ring', 'Löffel', 'Flasche', 'Bürste', 'Würfel', 'Buch', 'Brille', 'Trommel', 'Blume', 'Tasche', 'Schere', 'Kerze', 'Uhr', 'Fahrrad', 'Hammer', 'Stift', 'Kiste', 'Geige', 'Kamera', 'Rucksack', 'Vase', 'Socke', 'Telefon', 'Kette', 'Eimer', 'Schlüssel']","['lang', 'flauschig', 'dunkel']",3,3.503703899914399,None,,,,,,,,,,,,,,,,,,,,,,,,,,,,,,,,,,,,,,,,,,,,,,,,,,,,,,,,,,,,,,,,,3,2023-11-27_11h30.52.702,watkins1,2023.2.3,99.71750028337864,17,2023-11-27 11h30.59.477323 +0000,
,,,,,,,3,0,3,0,,,,,,,,,,,,,,,,,147.37105310009792,,,,,,,,,,147.36209740000777,147.8530668001622,,,2,2.5311624000314623,,,,,,,,,,,,,,,,,,,147.85307650011964,153.85361650004052,Jacke,glatt,"['Jacke', 'glatt']",restudy,3,"['Hut', 'Lampe', 'Tasse', 'Jacke', 'Ring', 'Löffel', 'Flasche', 'Bürste', 'Würfel', 'Buch', 'Brille', 'Trommel', 'Blume', 'Tasche', 'Schere', 'Kerze', 'Uhr', 'Fahrrad', 'Hammer', 'Stift', 'Kiste', 'Geige', 'Kamera', 'Rucksack', 'Vase', 'Socke', 'Telefon', 'Kette', 'Eimer', 'Schlüssel']","['lang', 'flauschig', 'dunkel', 'glatt']",2,2.5311624000314623,None,,,,,,,,,,,,,,,,,,,,,,,,,,,,,,,,,,,,,,,,,,,,,,,,,,,,,,,,,,,,,,,,,3,2023-11-27_11h30.52.702,watkins1,2023.2.3,99.71750028337864,17,2023-11-27 11h30.59.477323 +0000,
,,,,,,,4,0,4,0,,,,,,,,,,,,,,,,,153.86307850014418,,,,,,,,,,153.8541397000663,154.3450303999707,,,2,3.1193647999316454,,,,,,,,,,,,,,,,,,,154.34504070016555,160.35512250009924,Ring,flach,"['Ring', 'flach']",restudy,3,"['Hut', 'Lampe', 'Tasse', 'Jacke', 'Ring', 'Löffel', 'Flasche', 'Bürste', 'Würfel', 'Buch', 'Brille', 'Trommel', 'Blume', 'Tasche', 'Schere', 'Kerze', 'Uhr', 'Fahrrad', 'Hammer', 'Stift', 'Kiste', 'Geige', 'Kamera', 'Rucksack', 'Vase', 'Socke', 'Telefon', 'Kette', 'Eimer', 'Schlüssel']","['lang', 'flauschig', 'dunkel', 'glatt', 'flach']",2,3.1193647999316454,None,,,,,,,,,,,,,,,,,,,,,,,,,,,,,,,,,,,,,,,,,,,,,,,,,,,,,,,,,,,,,,,,,3,2023-11-27_11h30.52.702,watkins1,2023.2.3,99.71750028337864,17,2023-11-27 11h30.59.477323 +0000,
,,,,,,,5,0,5,0,,,,,,,,,,,,,,,,,160.3646951999981,,,,,,,,,,160.35565240005963,160.84669389994815,,,3,2.017514299834147,,,,,,,,,,,,,,,,,,,160.84670460014604,166.85145370010287,Löffel,krumm,"['Löffel', 'krumm']",restudy,3,"['Hut', 'Lampe', 'Tasse', 'Jacke', 'Ring', 'Löffel', 'Flasche', 'Bürste', 'Würfel', 'Buch', 'Brille', 'Trommel', 'Blume', 'Tasche', 'Schere', 'Kerze', 'Uhr', 'Fahrrad', 'Hammer', 'Stift', 'Kiste', 'Geige', 'Kamera', 'Rucksack', 'Vase', 'Socke', 'Telefon', 'Kette', 'Eimer', 'Schlüssel']","['lang', 'flauschig', 'dunkel', 'glatt', 'flach', 'krumm']",3,2.017514299834147,None,,,,,,,,,,,,,,,,,,,,,,,,,,,,,,,,,,,,,,,,,,,,,,,,,,,,,,,,,,,,,,,,,3,2023-11-27_11h30.52.702,watkins1,2023.2.3,99.71750028337864,17,2023-11-27 11h30.59.477323 +0000,
,,,,,,,6,0,6,0,,,,,,,,,,,,,,,,,166.86088429996744,,,,,,,,,,166.85199049999937,167.34295870014466,,,3,2.553836200153455,,,,,,,,,,,,,,,,,,,167.3429682001006,173.34388990001753,Flasche,schwer,"['Flasche', 'schwer']",test_adj,3,"['Hut', 'Lampe', 'Tasse', 'Jacke', 'Ring', 'Löffel', 'Flasche', 'Bürste', 'Würfel', 'Buch', 'Brille', 'Trommel', 'Blume', 'Tasche', 'Schere', 'Kerze', 'Uhr', 'Fahrrad', 'Hammer', 'Stift', 'Kiste', 'Geige', 'Kamera', 'Rucksack', 'Vase', 'Socke', 'Telefon', 'Kette', 'Eimer', 'Schlüssel']","['lang', 'flauschig', 'dunkel', 'glatt', 'flach', 'krumm', 'schwer']",3,2.553836200153455,None,,,,,,,,,,,,,,,,,,,,,,,,,,,,,,,,,,,,,,,,,,,,,,,,,,,,,,,,,,,,,,,,,3,2023-11-27_11h30.52.702,watkins1,2023.2.3,99.71750028337864,17,2023-11-27 11h30.59.477323 +0000,
,,,,,,,7,0,7,0,,,,,,,,,,,,,,,,,173.35331350006163,,,,,,,,,,173.34440420009196,173.83539819996804,,,3,3.7167971001472324,,,,,,,,,,,,,,,,,,,173.8354087001644,179.83942109998316,Bürste,gut,"['Bürste', 'gut']",restudy,3,"['Hut', 'Lampe', 'Tasse', 'Jacke', 'Ring', 'Löffel', 'Flasche', 'Bürste', 'Würfel', 'Buch', 'Brille', 'Trommel', 'Blume', 'Tasche', 'Schere', 'Kerze', 'Uhr', 'Fahrrad', 'Hammer', 'Stift', 'Kiste', 'Geige', 'Kamera', 'Rucksack', 'Vase', 'Socke', 'Telefon', 'Kette', 'Eimer', 'Schlüssel']","['lang', 'flauschig', 'dunkel', 'glatt', 'flach', 'krumm', 'schwer', 'gut']",3,3.7167971001472324,None,,,,,,,,,,,,,,,,,,,,,,,,,,,,,,,,,,,,,,,,,,,,,,,,,,,,,,,,,,,,,,,,,3,2023-11-27_11h30.52.702,watkins1,2023.2.3,99.71750028337864,17,2023-11-27 11h30.59.477323 +0000,
,,,,,,,8,0,8,0,,,,,,,,,,,,,,,,,179.84883230016567,,,,,,,,,,179.83993989997543,180.33101720013656,,,1,2.4930410000961274,,,,,,,,,,,,,,,,,,,180.33102679997683,186.33534260001034,Würfel,blass,"['Würfel', 'blass']",test_adj,3,"['Hut', 'Lampe', 'Tasse', 'Jacke', 'Ring', 'Löffel', 'Flasche', 'Bürste', 'Würfel', 'Buch', 'Brille', 'Trommel', 'Blume', 'Tasche', 'Schere', 'Kerze', 'Uhr', 'Fahrrad', 'Hammer', 'Stift', 'Kiste', 'Geige', 'Kamera', 'Rucksack', 'Vase', 'Socke', 'Telefon', 'Kette', 'Eimer', 'Schlüssel']","['lang', 'flauschig', 'dunkel', 'glatt', 'flach', 'krumm', 'schwer', 'gut', 'blass']",1,2.4930410000961274,None,,,,,,,,,,,,,,,,,,,,,,,,,,,,,,,,,,,,,,,,,,,,,,,,,,,,,,,,,,,,,,,,,3,2023-11-27_11h30.52.702,watkins1,2023.2.3,99.71750028337864,17,2023-11-27 11h30.59.477323 +0000,
,,,,,,,9,0,9,0,,,,,,,,,,,,,,,,,186.3447661001701,,,,,,,,,,186.33586870017461,186.82685920014046,,,3,2.149083500029519,,,,,,,,,,,,,,,,,,,186.82686959998682,192.83051860006526,Buch,groß,"['Buch', 'groß']",test_adj,3,"['Hut', 'Lampe', 'Tasse', 'Jacke', 'Ring', 'Löffel', 'Flasche', 'Bürste', 'Würfel', 'Buch', 'Brille', 'Trommel', 'Blume', 'Tasche', 'Schere', 'Kerze', 'Uhr', 'Fahrrad', 'Hammer', 'Stift', 'Kiste', 'Geige', 'Kamera', 'Rucksack', 'Vase', 'Socke', 'Telefon', 'Kette', 'Eimer', 'Schlüssel']","['lang', 'flauschig', 'dunkel', 'glatt', 'flach', 'krumm', 'schwer', 'gut', 'blass', 'groß']",3,2.149083500029519,None,,,,,,,,,,,,,,,,,,,,,,,,,,,,,,,,,,,,,,,,,,,,,,,,,,,,,,,,,,,,,,,,,3,2023-11-27_11h30.52.702,watkins1,2023.2.3,99.71750028337864,17,2023-11-27 11h30.59.477323 +0000,
,,,,,,,10,0,10,0,,,,,,,,,,,,,,,,,192.84009560011327,,,,,,,,,,192.8310476001352,193.32222740002908,,,3,3.3986184000968933,,,,,,,,,,,,,,,,,,,193.3222380001098,199.33036940009333,Brille,niedlich,"['Brille', 'niedlich']",restudy,3,"['Hut', 'Lampe', 'Tasse', 'Jacke', 'Ring', 'Löffel', 'Flasche', 'Bürste', 'Würfel', 'Buch', 'Brille', 'Trommel', 'Blume', 'Tasche', 'Schere', 'Kerze', 'Uhr', 'Fahrrad', 'Hammer', 'Stift', 'Kiste', 'Geige', 'Kamera', 'Rucksack', 'Vase', 'Socke', 'Telefon', 'Kette', 'Eimer', 'Schlüssel']","['lang', 'flauschig', 'dunkel', 'glatt', 'flach', 'krumm', 'schwer', 'gut', 'blass', 'groß', 'niedlich']",3,3.3986184000968933,None,,,,,,,,,,,,,,,,,,,,,,,,,,,,,,,,,,,,,,,,,,,,,,,,,,,,,,,,,,,,,,,,,3,2023-11-27_11h30.52.702,watkins1,2023.2.3,99.71750028337864,17,2023-11-27 11h30.59.477323 +0000,
,,,,,,,11,0,11,0,,,,,,,,,,,,,,,,,199.33978720009327,,,,,,,,,,199.33088829996996,199.82177680009045,,,1,4.139010700164363,,,,,,,,,,,,,,,,,,,199.82178730005398,205.8278443000745,Trommel,klobig,"['Trommel', 'klobig']",test_adj,3,"['Hut', 'Lampe', 'Tasse', 'Jacke', 'Ring', 'Löffel', 'Flasche', 'Bürste', 'Würfel', 'Buch', 'Brille', 'Trommel', 'Blume', 'Tasche', 'Schere', 'Kerze', 'Uhr', 'Fahrrad', 'Hammer', 'Stift', 'Kiste', 'Geige', 'Kamera', 'Rucksack', 'Vase', 'Socke', 'Telefon', 'Kette', 'Eimer', 'Schlüssel']","['lang', 'flauschig', 'dunkel', 'glatt', 'flach', 'krumm', 'schwer', 'gut', 'blass', 'groß', 'niedlich', 'klobig']",1,4.139010700164363,None,,,,,,,,,,,,,,,,,,,,,,,,,,,,,,,,,,,,,,,,,,,,,,,,,,,,,,,,,,,,,,,,,3,2023-11-27_11h30.52.702,watkins1,2023.2.3,99.71750028337864,17,2023-11-27 11h30.59.477323 +0000,
,,,,,,,12,0,12,0,,,,,,,,,,,,,,,,,205.8373199000489,,,,,,,,,,205.82836759998463,206.31931570009328,,,3,1.6255446998402476,,,,,,,,,,,,,,,,,,,206.31932720006444,212.32449580007233,Blume,bunt,"['Blume', 'bunt']",restudy,3,"['Hut', 'Lampe', 'Tasse', 'Jacke', 'Ring', 'Löffel', 'Flasche', 'Bürste', 'Würfel', 'Buch', 'Brille', 'Trommel', 'Blume', 'Tasche', 'Schere', 'Kerze', 'Uhr', 'Fahrrad', 'Hammer', 'Stift', 'Kiste', 'Geige', 'Kamera', 'Rucksack', 'Vase', 'Socke', 'Telefon', 'Kette', 'Eimer', 'Schlüssel']","['lang', 'flauschig', 'dunkel', 'glatt', 'flach', 'krumm', 'schwer', 'gut', 'blass', 'groß', 'niedlich', 'klobig', 'bunt']",3,1.6255446998402476,None,,,,,,,,,,,,,,,,,,,,,,,,,,,,,,,,,,,,,,,,,,,,,,,,,,,,,,,,,,,,,,,,,3,2023-11-27_11h30.52.702,watkins1,2023.2.3,99.71750028337864,17,2023-11-27 11h30.59.477323 +0000,
,,,,,,,13,0,13,0,,,,,,,,,,,,,,,,,212.33392020012252,,,,,,,,,,212.32501270016655,212.8161579000298,,,2,2.399755100021139,,,,,,,,,,,,,,,,,,,212.81616830010898,218.822775100125,Tasche,glänzend,"['Tasche', 'glänzend']",restudy,3,"['Hut', 'Lampe', 'Tasse', 'Jacke', 'Ring', 'Löffel', 'Flasche', 'Bürste', 'Würfel', 'Buch', 'Brille', 'Trommel', 'Blume', 'Tasche', 'Schere', 'Kerze', 'Uhr', 'Fahrrad', 'Hammer', 'Stift', 'Kiste', 'Geige', 'Kamera', 'Rucksack', 'Vase', 'Socke', 'Telefon', 'Kette', 'Eimer', 'Schlüssel']","['lang', 'flauschig', 'dunkel', 'glatt', 'flach', 'krumm', 'schwer', 'gut', 'blass', 'groß', 'niedlich', 'klobig', 'bunt', 'glänzend']",2,2.399755100021139,None,,,,,,,,,,,,,,,,,,,,,,,,,,,,,,,,,,,,,,,,,,,,,,,,,,,,,,,,,,,,,,,,,3,2023-11-27_11h30.52.702,watkins1,2023.2.3,99.71750028337864,17,2023-11-27 11h30.59.477323 +0000,
,,,,,,,14,0,14,0,,,,,,,,,,,,,,,,,218.83223209995776,,,,,,,,,,218.82330640009604,219.31422770000063,,,1,2.429703800007701,,,,,,,,,,,,,,,,,,,219.31423810007982,225.31754840002395,Schere,verspielt,"['Schere', 'verspielt']",restudy,3,"['Hut', 'Lampe', 'Tasse', 'Jacke', 'Ring', 'Löffel', 'Flasche', 'Bürste', 'Würfel', 'Buch', 'Brille', 'Trommel', 'Blume', 'Tasche', 'Schere', 'Kerze', 'Uhr', 'Fahrrad', 'Hammer', 'Stift', 'Kiste', 'Geige', 'Kamera', 'Rucksack', 'Vase', 'Socke', 'Telefon', 'Kette', 'Eimer', 'Schlüssel']","['lang', 'flauschig', 'dunkel', 'glatt', 'flach', 'krumm', 'schwer', 'gut', 'blass', 'groß', 'niedlich', 'klobig', 'bunt', 'glänzend', 'verspielt']",1,2.429703800007701,None,,,,,,,,,,,,,,,,,,,,,,,,,,,,,,,,,,,,,,,,,,,,,,,,,,,,,,,,,,,,,,,,,3,2023-11-27_11h30.52.702,watkins1,2023.2.3,99.71750028337864,17,2023-11-27 11h30.59.477323 +0000,
,,,,,,,15,0,15,0,,,,,,,,,,,,,,,,,225.32695890008472,,,,,,,,,,225.31807420006953,225.80911030014977,,,1,3.463266799924895,,,,,,,,,,,,,,,,,,,225.8091208001133,231.81925210007466,Kerze,neu,"['Kerze', 'neu']",restudy,3,"['Hut', 'Lampe', 'Tasse', 'Jacke', 'Ring', 'Löffel', 'Flasche', 'Bürste', 'Würfel', 'Buch', 'Brille', 'Trommel', 'Blume', 'Tasche', 'Schere', 'Kerze', 'Uhr', 'Fahrrad', 'Hammer', 'Stift', 'Kiste', 'Geige', 'Kamera', 'Rucksack', 'Vase', 'Socke', 'Telefon', 'Kette', 'Eimer', 'Schlüssel']","['lang', 'flauschig', 'dunkel', 'glatt', 'flach', 'krumm', 'schwer', 'gut', 'blass', 'groß', 'niedlich', 'klobig', 'bunt', 'glänzend', 'verspielt', 'neu']",1,3.463266799924895,None,,,,,,,,,,,,,,,,,,,,,,,,,,,,,,,,,,,,,,,,,,,,,,,,,,,,,,,,,,,,,,,,,3,2023-11-27_11h30.52.702,watkins1,2023.2.3,99.71750028337864,17,2023-11-27 11h30.59.477323 +0000,
,,,,,,,16,0,16,0,,,,,,,,,,,,,,,,,231.82864010008052,,,,,,,,,,231.81977880001068,232.31070589995943,,,1,1.5934118998702615,,,,,,,,,,,,,,,,,,,232.31071550003253,238.31302410014905,Uhr,schmutzig,"['Uhr', 'schmutzig']",test_adj,3,"['Hut', 'Lampe', 'Tasse', 'Jacke', 'Ring', 'Löffel', 'Flasche', 'Bürste', 'Würfel', 'Buch', 'Brille', 'Trommel', 'Blume', 'Tasche', 'Schere', 'Kerze', 'Uhr', 'Fahrrad', 'Hammer', 'Stift', 'Kiste', 'Geige', 'Kamera', 'Rucksack', 'Vase', 'Socke', 'Telefon', 'Kette', 'Eimer', 'Schlüssel']","['lang', 'flauschig', 'dunkel', 'glatt', 'flach', 'krumm', 'schwer', 'gut', 'blass', 'groß', 'niedlich', 'klobig', 'bunt', 'glänzend', 'verspielt', 'neu', 'schmutzig']",1,1.5934118998702615,None,,,,,,,,,,,,,,,,,,,,,,,,,,,,,,,,,,,,,,,,,,,,,,,,,,,,,,,,,,,,,,,,,3,2023-11-27_11h30.52.702,watkins1,2023.2.3,99.71750028337864,17,2023-11-27 11h30.59.477323 +0000,
,,,,,,,17,0,17,0,,,,,,,,,,,,,,,,,238.3226052999962,,,,,,,,,,238.31354740005918,238.8046790000517,,,3,2.108071899972856,,,,,,,,,,,,,,,,,,,238.80468920012936,244.81459500011988,Fahrrad,biegsam,"['Fahrrad', 'biegsam']",test_adj,3,"['Hut', 'Lampe', 'Tasse', 'Jacke', 'Ring', 'Löffel', 'Flasche', 'Bürste', 'Würfel', 'Buch', 'Brille', 'Trommel', 'Blume', 'Tasche', 'Schere', 'Kerze', 'Uhr', 'Fahrrad', 'Hammer', 'Stift', 'Kiste', 'Geige', 'Kamera', 'Rucksack', 'Vase', 'Socke', 'Telefon', 'Kette', 'Eimer', 'Schlüssel']","['lang', 'flauschig', 'dunkel', 'glatt', 'flach', 'krumm', 'schwer', 'gut', 'blass', 'groß', 'niedlich', 'klobig', 'bunt', 'glänzend', 'verspielt', 'neu', 'schmutzig', 'biegsam']",3,2.108071899972856,None,,,,,,,,,,,,,,,,,,,,,,,,,,,,,,,,,,,,,,,,,,,,,,,,,,,,,,,,,,,,,,,,,3,2023-11-27_11h30.52.702,watkins1,2023.2.3,99.71750028337864,17,2023-11-27 11h30.59.477323 +0000,
,,,,,,,18,0,18,0,,,,,,,,,,,,,,,,,244.82399390009232,,,,,,,,,,244.81511349999346,245.3062245999463,,,3,2.5344555999618024,,,,,,,,,,,,,,,,,,,245.30623380001634,251.31364920013584,Hammer,praktisch,"['Hammer', 'praktisch']",restudy,3,"['Hut', 'Lampe', 'Tasse', 'Jacke', 'Ring', 'Löffel', 'Flasche', 'Bürste', 'Würfel', 'Buch', 'Brille', 'Trommel', 'Blume', 'Tasche', 'Schere', 'Kerze', 'Uhr', 'Fahrrad', 'Hammer', 'Stift', 'Kiste', 'Geige', 'Kamera', 'Rucksack', 'Vase', 'Socke', 'Telefon', 'Kette', 'Eimer', 'Schlüssel']","['lang', 'flauschig', 'dunkel', 'glatt', 'flach', 'krumm', 'schwer', 'gut', 'blass', 'groß', 'niedlich', 'klobig', 'bunt', 'glänzend', 'verspielt', 'neu', 'schmutzig', 'biegsam', 'praktisch']",3,2.5344555999618024,None,,,,,,,,,,,,,,,,,,,,,,,,,,,,,,,,,,,,,,,,,,,,,,,,,,,,,,,,,,,,,,,,,3,2023-11-27_11h30.52.702,watkins1,2023.2.3,99.71750028337864,17,2023-11-27 11h30.59.477323 +0000,
,,,,,,,19,0,19,0,,,,,,,,,,,,,,,,,251.32311360002495,,,,,,,,,,251.31417490006424,251.80506730009802,,,1,2.0116018999833614,,,,,,,,,,,,,,,,,,,251.80507780006155,257.81511349999346,Stift,sportlich,"['Stift', 'sportlich']",restudy,3,"['Hut', 'Lampe', 'Tasse', 'Jacke', 'Ring', 'Löffel', 'Flasche', 'Bürste', 'Würfel', 'Buch', 'Brille', 'Trommel', 'Blume', 'Tasche', 'Schere', 'Kerze', 'Uhr', 'Fahrrad', 'Hammer', 'Stift', 'Kiste', 'Geige', 'Kamera', 'Rucksack', 'Vase', 'Socke', 'Telefon', 'Kette', 'Eimer', 'Schlüssel']","['lang', 'flauschig', 'dunkel', 'glatt', 'flach', 'krumm', 'schwer', 'gut', 'blass', 'groß', 'niedlich', 'klobig', 'bunt', 'glänzend', 'verspielt', 'neu', 'schmutzig', 'biegsam', 'praktisch', 'sportlich']",1,2.0116018999833614,None,,,,,,,,,,,,,,,,,,,,,,,,,,,,,,,,,,,,,,,,,,,,,,,,,,,,,,,,,,,,,,,,,3,2023-11-27_11h30.52.702,watkins1,2023.2.3,99.71750028337864,17,2023-11-27 11h30.59.477323 +0000,
,,,,,,,20,0,20,0,,,,,,,,,,,,,,,,,257.8245803001337,,,,,,,,,,257.81563520012423,258.3065955999773,,,2,2.094318699790165,,,,,,,,,,,,,,,,,,,258.30660580005497,264.3108290999662,Kiste,robust,"['Kiste', 'robust']",restudy,3,"['Hut', 'Lampe', 'Tasse', 'Jacke', 'Ring', 'Löffel', 'Flasche', 'Bürste', 'Würfel', 'Buch', 'Brille', 'Trommel', 'Blume', 'Tasche', 'Schere', 'Kerze', 'Uhr', 'Fahrrad', 'Hammer', 'Stift', 'Kiste', 'Geige', 'Kamera', 'Rucksack', 'Vase', 'Socke', 'Telefon', 'Kette', 'Eimer', 'Schlüssel']","['lang', 'flauschig', 'dunkel', 'glatt', 'flach', 'krumm', 'schwer', 'gut', 'blass', 'groß', 'niedlich', 'klobig', 'bunt', 'glänzend', 'verspielt', 'neu', 'schmutzig', 'biegsam', 'praktisch', 'sportlich', 'robust']",2,2.094318699790165,None,,,,,,,,,,,,,,,,,,,,,,,,,,,,,,,,,,,,,,,,,,,,,,,,,,,,,,,,,,,,,,,,,3,2023-11-27_11h30.52.702,watkins1,2023.2.3,99.71750028337864,17,2023-11-27 11h30.59.477323 +0000,
,,,,,,,21,0,21,0,,,,,,,,,,,,,,,,,264.3202571000438,,,,,,,,,,264.3113586001564,264.80246240017004,,,1,1.5734626001212746,,,,,,,,,,,,,,,,,,,264.80247240001336,270.8100566000212,Geige,lustig,"['Geige', 'lustig']",test_adj,3,"['Hut', 'Lampe', 'Tasse', 'Jacke', 'Ring', 'Löffel', 'Flasche', 'Bürste', 'Würfel', 'Buch', 'Brille', 'Trommel', 'Blume', 'Tasche', 'Schere', 'Kerze', 'Uhr', 'Fahrrad', 'Hammer', 'Stift', 'Kiste', 'Geige', 'Kamera', 'Rucksack', 'Vase', 'Socke', 'Telefon', 'Kette', 'Eimer', 'Schlüssel']","['lang', 'flauschig', 'dunkel', 'glatt', 'flach', 'krumm', 'schwer', 'gut', 'blass', 'groß', 'niedlich', 'klobig', 'bunt', 'glänzend', 'verspielt', 'neu', 'schmutzig', 'biegsam', 'praktisch', 'sportlich', 'robust', 'lustig']",1,1.5734626001212746,None,,,,,,,,,,,,,,,,,,,,,,,,,,,,,,,,,,,,,,,,,,,,,,,,,,,,,,,,,,,,,,,,,3,2023-11-27_11h30.52.702,watkins1,2023.2.3,99.71750028337864,17,2023-11-27 11h30.59.477323 +0000,
,,,,,,,22,0,22,0,,,,,,,,,,,,,,,,,270.81953199999407,,,,,,,,,,270.8105850000866,271.30154130002484,,,1,1.8990386000368744,,,,,,,,,,,,,,,,,,,271.3015515001025,277.3073762001004,Kamera,kratzig,"['Kamera', 'kratzig']",test_adj,3,"['Hut', 'Lampe', 'Tasse', 'Jacke', 'Ring', 'Löffel', 'Flasche', 'Bürste', 'Würfel', 'Buch', 'Brille', 'Trommel', 'Blume', 'Tasche', 'Schere', 'Kerze', 'Uhr', 'Fahrrad', 'Hammer', 'Stift', 'Kiste', 'Geige', 'Kamera', 'Rucksack', 'Vase', 'Socke', 'Telefon', 'Kette', 'Eimer', 'Schlüssel']","['lang', 'flauschig', 'dunkel', 'glatt', 'flach', 'krumm', 'schwer', 'gut', 'blass', 'groß', 'niedlich', 'klobig', 'bunt', 'glänzend', 'verspielt', 'neu', 'schmutzig', 'biegsam', 'praktisch', 'sportlich', 'robust', 'lustig', 'kratzig']",1,1.8990386000368744,None,,,,,,,,,,,,,,,,,,,,,,,,,,,,,,,,,,,,,,,,,,,,,,,,,,,,,,,,,,,,,,,,,3,2023-11-27_11h30.52.702,watkins1,2023.2.3,99.71750028337864,17,2023-11-27 11h30.59.477323 +0000,
,,,,,,,23,0,23,0,,,,,,,,,,,,,,,,,277.3168449001387,,,,,,,,,,277.30789429997094,277.79895840003155,,,3,1.745953599922359,,,,,,,,,,,,,,,,,,,277.7989688999951,283.80777920014225,Rucksack,dick,"['Rucksack', 'dick']",test_adj,3,"['Hut', 'Lampe', 'Tasse', 'Jacke', 'Ring', 'Löffel', 'Flasche', 'Bürste', 'Würfel', 'Buch', 'Brille', 'Trommel', 'Blume', 'Tasche', 'Schere', 'Kerze', 'Uhr', 'Fahrrad', 'Hammer', 'Stift', 'Kiste', 'Geige', 'Kamera', 'Rucksack', 'Vase', 'Socke', 'Telefon', 'Kette', 'Eimer', 'Schlüssel']","['lang', 'flauschig', 'dunkel', 'glatt', 'flach', 'krumm', 'schwer', 'gut', 'blass', 'groß', 'niedlich', 'klobig', 'bunt', 'glänzend', 'verspielt', 'neu', 'schmutzig', 'biegsam', 'praktisch', 'sportlich', 'robust', 'lustig', 'kratzig', 'dick']",3,1.745953599922359,None,,,,,,,,,,,,,,,,,,,,,,,,,,,,,,,,,,,,,,,,,,,,,,,,,,,,,,,,,,,,,,,,,3,2023-11-27_11h30.52.702,watkins1,2023.2.3,99.71750028337864,17,2023-11-27 11h30.59.477323 +0000,
,,,,,,,24,0,24,0,,,,,,,,,,,,,,,,,283.8171535001602,,,,,,,,,,283.8083089001011,284.2992732001003,,,3,4.821127699920908,,,,,,,,,,,,,,,,,,,284.2992833000608,290.30015040002763,Vase,teuer,"['Vase', 'teuer']",test_adj,3,"['Hut', 'Lampe', 'Tasse', 'Jacke', 'Ring', 'Löffel', 'Flasche', 'Bürste', 'Würfel', 'Buch', 'Brille', 'Trommel', 'Blume', 'Tasche', 'Schere', 'Kerze', 'Uhr', 'Fahrrad', 'Hammer', 'Stift', 'Kiste', 'Geige', 'Kamera', 'Rucksack', 'Vase', 'Socke', 'Telefon', 'Kette', 'Eimer', 'Schlüssel']","['lang', 'flauschig', 'dunkel', 'glatt', 'flach', 'krumm', 'schwer', 'gut', 'blass', 'groß', 'niedlich', 'klobig', 'bunt', 'glänzend', 'verspielt', 'neu', 'schmutzig', 'biegsam', 'praktisch', 'sportlich', 'robust', 'lustig', 'kratzig', 'dick', 'teuer']",3,4.821127699920908,None,,,,,,,,,,,,,,,,,,,,,,,,,,,,,,,,,,,,,,,,,,,,,,,,,,,,,,,,,,,,,,,,,3,2023-11-27_11h30.52.702,watkins1,2023.2.3,99.71750028337864,17,2023-11-27 11h30.59.477323 +0000,
,,,,,,,25,0,25,0,,,,,,,,,,,,,,,,,290.3096166001633,,,,,,,,,,290.30067400005646,290.79167239996605,,,2,2.593083299929276,,,,,,,,,,,,,,,,,,,290.7916834000498,296.8006335000973,Socke,kurz,"['Socke', 'kurz']",test_adj,3,"['Hut', 'Lampe', 'Tasse', 'Jacke', 'Ring', 'Löffel', 'Flasche', 'Bürste', 'Würfel', 'Buch', 'Brille', 'Trommel', 'Blume', 'Tasche', 'Schere', 'Kerze', 'Uhr', 'Fahrrad', 'Hammer', 'Stift', 'Kiste', 'Geige', 'Kamera', 'Rucksack', 'Vase', 'Socke', 'Telefon', 'Kette', 'Eimer', 'Schlüssel']","['lang', 'flauschig', 'dunkel', 'glatt', 'flach', 'krumm', 'schwer', 'gut', 'blass', 'groß', 'niedlich', 'klobig', 'bunt', 'glänzend', 'verspielt', 'neu', 'schmutzig', 'biegsam', 'praktisch', 'sportlich', 'robust', 'lustig', 'kratzig', 'dick', 'teuer', 'kurz']",2,2.593083299929276,None,,,,,,,,,,,,,,,,,,,,,,,,,,,,,,,,,,,,,,,,,,,,,,,,,,,,,,,,,,,,,,,,,3,2023-11-27_11h30.52.702,watkins1,2023.2.3,99.71750028337864,17,2023-11-27 11h30.59.477323 +0000,
,,,,,,,26,0,26,0,,,,,,,,,,,,,,,,,296.81014290009625,,,,,,,,,,296.8011688000988,297.29209830006585,,,1,1.9967195999342948,,,,,,,,,,,,,,,,,,,297.2921082000248,303.2942476000171,Telefon,rustikal,"['Telefon', 'rustikal']",test_adj,3,"['Hut', 'Lampe', 'Tasse', 'Jacke', 'Ring', 'Löffel', 'Flasche', 'Bürste', 'Würfel', 'Buch', 'Brille', 'Trommel', 'Blume', 'Tasche', 'Schere', 'Kerze', 'Uhr', 'Fahrrad', 'Hammer', 'Stift', 'Kiste', 'Geige', 'Kamera', 'Rucksack', 'Vase', 'Socke', 'Telefon', 'Kette', 'Eimer', 'Schlüssel']","['lang', 'flauschig', 'dunkel', 'glatt', 'flach', 'krumm', 'schwer', 'gut', 'blass', 'groß', 'niedlich', 'klobig', 'bunt', 'glänzend', 'verspielt', 'neu', 'schmutzig', 'biegsam', 'praktisch', 'sportlich', 'robust', 'lustig', 'kratzig', 'dick', 'teuer', 'kurz', 'rustikal']",1,1.9967195999342948,None,,,,,,,,,,,,,,,,,,,,,,,,,,,,,,,,,,,,,,,,,,,,,,,,,,,,,,,,,,,,,,,,,3,2023-11-27_11h30.52.702,watkins1,2023.2.3,99.71750028337864,17,2023-11-27 11h30.59.477323 +0000,
,,,,,,,27,0,27,0,,,,,,,,,,,,,,,,,303.3036695001647,,,,,,,,,,303.29477560007945,303.78577190008946,,,1,2.69489790010266,,,,,,,,,,,,,,,,,,,303.7857822000515,309.79162920010276,Kette,nachhaltig,"['Kette', 'nachhaltig']",test_adj,3,"['Hut', 'Lampe', 'Tasse', 'Jacke', 'Ring', 'Löffel', 'Flasche', 'Bürste', 'Würfel', 'Buch', 'Brille', 'Trommel', 'Blume', 'Tasche', 'Schere', 'Kerze', 'Uhr', 'Fahrrad', 'Hammer', 'Stift', 'Kiste', 'Geige', 'Kamera', 'Rucksack', 'Vase', 'Socke', 'Telefon', 'Kette', 'Eimer', 'Schlüssel']","['lang', 'flauschig', 'dunkel', 'glatt', 'flach', 'krumm', 'schwer', 'gut', 'blass', 'groß', 'niedlich', 'klobig', 'bunt', 'glänzend', 'verspielt', 'neu', 'schmutzig', 'biegsam', 'praktisch', 'sportlich', 'robust', 'lustig', 'kratzig', 'dick', 'teuer', 'kurz', 'rustikal', 'nachhaltig']",1,2.69489790010266,None,,,,,,,,,,,,,,,,,,,,,,,,,,,,,,,,,,,,,,,,,,,,,,,,,,,,,,,,,,,,,,,,,3,2023-11-27_11h30.52.702,watkins1,2023.2.3,99.71750028337864,17,2023-11-27 11h30.59.477323 +0000,
,,,,,,,28,0,28,0,,,,,,,,,,,,,,,,,309.80110629997216,,,,,,,,,,309.79215029999614,310.28308770013973,,,2,3.9332103999331594,,,,,,,,,,,,,,,,,,,310.28309800010175,316.2934628999792,Eimer,sauber,"['Eimer', 'sauber']",restudy,3,"['Hut', 'Lampe', 'Tasse', 'Jacke', 'Ring', 'Löffel', 'Flasche', 'Bürste', 'Würfel', 'Buch', 'Brille', 'Trommel', 'Blume', 'Tasche', 'Schere', 'Kerze', 'Uhr', 'Fahrrad', 'Hammer', 'Stift', 'Kiste', 'Geige', 'Kamera', 'Rucksack', 'Vase', 'Socke', 'Telefon', 'Kette', 'Eimer', 'Schlüssel']","['lang', 'flauschig', 'dunkel', 'glatt', 'flach', 'krumm', 'schwer', 'gut', 'blass', 'groß', 'niedlich', 'klobig', 'bunt', 'glänzend', 'verspielt', 'neu', 'schmutzig', 'biegsam', 'praktisch', 'sportlich', 'robust', 'lustig', 'kratzig', 'dick', 'teuer', 'kurz', 'rustikal', 'nachhaltig', 'sauber']",2,3.9332103999331594,None,,,,,,,,,,,,,,,,,,,,,,,,,,,,,,,,,,,,,,,,,,,,,,,,,,,,,,,,,,,,,,,,,3,2023-11-27_11h30.52.702,watkins1,2023.2.3,99.71750028337864,17,2023-11-27 11h30.59.477323 +0000,
,,,,,,,29,0,29,0,,,,,,,,,,,,,,,,,316.30293320002966,,,,,,,,,,316.29399120016024,316.7849743999541,,,2,2.0636750000994653,,,,,,,,,,,,,,,,,,,316.7849850000348,322.79453260009177,Schlüssel,winzig,"['Schlüssel', 'winzig']",restudy,3,"['Hut', 'Lampe', 'Tasse', 'Jacke', 'Ring', 'Löffel', 'Flasche', 'Bürste', 'Würfel', 'Buch', 'Brille', 'Trommel', 'Blume', 'Tasche', 'Schere', 'Kerze', 'Uhr', 'Fahrrad', 'Hammer', 'Stift', 'Kiste', 'Geige', 'Kamera', 'Rucksack', 'Vase', 'Socke', 'Telefon', 'Kette', 'Eimer', 'Schlüssel']","['lang', 'flauschig', 'dunkel', 'glatt', 'flach', 'krumm', 'schwer', 'gut', 'blass', 'groß', 'niedlich', 'klobig', 'bunt', 'glänzend', 'verspielt', 'neu', 'schmutzig', 'biegsam', 'praktisch', 'sportlich', 'robust', 'lustig', 'kratzig', 'dick', 'teuer', 'kurz', 'rustikal', 'nachhaltig', 'sauber', 'winzig']",2,2.0636750000994653,None,,,,,,,,,,,,,,,,,,,,,,,,,,,,,,,,,,,,,,,,,,,,,,,,,,,,,,,,,,,,,,,,,3,2023-11-27_11h30.52.702,watkins1,2023.2.3,99.71750028337864,17,2023-11-27 11h30.59.477323 +0000,
,,,,,,,,,,,0,0,0,0,,,,,,,,,,,,,322.8041145000607,,,,,,,,,,322.7953763999976,323.2861111999955,,,[],[],,,,,,,,,musika,None,None,,,,,,,,,,Geige,lustig,"['Geige', 'lustig']",test_adj,3,,,,,,322.79529969999567,322.79534860001877,"['Geige', 'Eimer', 'Kiste', 'Tasse', 'Lampe', 'Buch', 'Telefon', 'Fahrrad', 'Kerze', 'Hut', 'Tasche', 'Rucksack', 'Vase', 'Schlüssel', 'Uhr', 'Ring', 'Kette', 'Schere', 'Hammer', 'Trommel', 'Stift', 'Brille', 'Kamera', 'Blume', 'Flasche', 'Löffel', 'Jacke', 'Socke', 'Bürste', 'Würfel']",323.28612189996056,323.2887838999741,None,323.28896150016226,323.29172500013374,None,323.2918853999581,323.294400600018,None,323.2945569001604,0,329.30030410015024,329.3003173000179,329.3015936999582,,,,,,,,,,,,,,,,,,,,,,,,,,,,,,,,,,,,,,,,,,,,,,,,3,2023-11-27_11h30.52.702,watkins1,2023.2.3,99.71750028337864,17,2023-11-27 11h30.59.477323 +0000,
,,,,,,,,,,,1,0,1,0,,,,,,,,,,,,,329.3102145001758,,,,,,,,,,329.30188250006177,329.79217300005257,,,[],[],,,,,,,,,,None,None,,,,,,,,,,Eimer,sauber,"['Eimer', 'sauber']",restudy,3,,,,,,329.30181580013596,329.30185399996117,"['Geige', 'Eimer', 'Kiste', 'Tasse', 'Lampe', 'Buch', 'Telefon', 'Fahrrad', 'Kerze', 'Hut', 'Tasche', 'Rucksack', 'Vase', 'Schlüssel', 'Uhr', 'Ring', 'Kette', 'Schere', 'Hammer', 'Trommel', 'Stift', 'Brille', 'Kamera', 'Blume', 'Flasche', 'Löffel', 'Jacke', 'Socke', 'Bürste', 'Würfel']",329.7921836001333,329.79486050014384,None,329.7949837001506,335.8008459000848,1,335.8012203001417,335.8038765001111,None,335.8039887000341,,335.8054559000302,335.8054676000029,335.8066420999821,4.428849400021136,None,,,,,,,,,,,,,,,,,,,,,,,,,,,,,,,,,,,,,,,,,,,,,,3,2023-11-27_11h30.52.702,watkins1,2023.2.3,99.71750028337864,17,2023-11-27 11h30.59.477323 +0000,
,,,,,,,,,,,2,0,2,0,,,,,,,,,,,,,335.810277499957,,,,,,,,,,335.8069248001557,336.30244160001166,,,[],[],,,,,,,,,,None,None,,,,,,,,,,Kiste,robust,"['Kiste', 'robust']",restudy,3,,,,,,335.80686020012945,335.8068981000688,"['Geige', 'Eimer', 'Kiste', 'Tasse', 'Lampe', 'Buch', 'Telefon', 'Fahrrad', 'Kerze', 'Hut', 'Tasche', 'Rucksack', 'Vase', 'Schlüssel', 'Uhr', 'Ring', 'Kette', 'Schere', 'Hammer', 'Trommel', 'Stift', 'Brille', 'Kamera', 'Blume', 'Flasche', 'Löffel', 'Jacke', 'Socke', 'Bürste', 'Würfel']",336.3024518999737,336.3052718001418,None,336.3053942001425,342.31280339998193,1,342.313097700011,342.315743900137,None,342.3158575000707,,342.31700920010917,342.31702079996467,342.31819470017217,5.76755249989219,None,,,,,,,,,,,,,,,,,,,,,,,,,,,,,,,,,,,,,,,,,,,,,,3,2023-11-27_11h30.52.702,watkins1,2023.2.3,99.71750028337864,17,2023-11-27 11h30.59.477323 +0000,
,,,,,,,,,,,3,0,3,0,,,,,,,,,,,,,342.32227819995023,,,,,,,,,,342.3184784001205,342.81443849997595,,,[],[],,,,,,,,,rund,None,None,,,,,,,,,,Tasse,dunkel,"['Tasse', 'dunkel']",test_adj,3,,,,,,342.3184126999695,342.3184518001508,"['Geige', 'Eimer', 'Kiste', 'Tasse', 'Lampe', 'Buch', 'Telefon', 'Fahrrad', 'Kerze', 'Hut', 'Tasche', 'Rucksack', 'Vase', 'Schlüssel', 'Uhr', 'Ring', 'Kette', 'Schere', 'Hammer', 'Trommel', 'Stift', 'Brille', 'Kamera', 'Blume', 'Flasche', 'Löffel', 'Jacke', 'Socke', 'Bürste', 'Würfel']",342.8144488001708,342.8171206000261,None,342.81724440003745,342.81866770004854,None,342.8187764000613,342.8201868000906,None,342.8202955001034,0,348.822270500008,348.8222839999944,348.82358580012806,,,,,,,,,,,,,,,,,,,,,,,,,,,,,,,,,,,,,,,,,,,,,,,,3,2023-11-27_11h30.52.702,watkins1,2023.2.3,99.71750028337864,17,2023-11-27 11h30.59.477323 +0000,
,,,,,,,,,,,4,0,4,0,,,,,,,,,,,,,348.83217650000006,,,,,,,,,,348.82387419999577,349.31422280007973,,,[],[],,,,,,,,,,None,None,,,,,,,,,,Lampe,flauschig,"['Lampe', 'flauschig']",restudy,3,,,,,,348.82380719995126,348.82384530012496,"['Geige', 'Eimer', 'Kiste', 'Tasse', 'Lampe', 'Buch', 'Telefon', 'Fahrrad', 'Kerze', 'Hut', 'Tasche', 'Rucksack', 'Vase', 'Schlüssel', 'Uhr', 'Ring', 'Kette', 'Schere', 'Hammer', 'Trommel', 'Stift', 'Brille', 'Kamera', 'Blume', 'Flasche', 'Löffel', 'Jacke', 'Socke', 'Bürste', 'Würfel']",349.3142322001513,349.3170092999935,None,349.3171308999881,355.319015200017,1,355.3193100001663,355.3220157001633,None,355.3221265000757,,355.32357520004734,355.3235870001372,355.32494470011443,5.419702100101858,None,,,,,,,,,,,,,,,,,,,,,,,,,,,,,,,,,,,,,,,,,,,,,,3,2023-11-27_11h30.52.702,watkins1,2023.2.3,99.71750028337864,17,2023-11-27 11h30.59.477323 +0000,
,,,,,,,,,,,5,0,5,0,,,,,,,,,,,,,355.32859340007417,,,,,,,,,,355.32522969995625,355.82067030016333,,,[],[],,,,,,,,,dick,None,None,,,,,,,,,,Buch,groß,"['Buch', 'groß']",test_adj,3,,,,,,355.3251628000289,355.3252018999774,"['Geige', 'Eimer', 'Kiste', 'Tasse', 'Lampe', 'Buch', 'Telefon', 'Fahrrad', 'Kerze', 'Hut', 'Tasche', 'Rucksack', 'Vase', 'Schlüssel', 'Uhr', 'Ring', 'Kette', 'Schere', 'Hammer', 'Trommel', 'Stift', 'Brille', 'Kamera', 'Blume', 'Flasche', 'Löffel', 'Jacke', 'Socke', 'Bürste', 'Würfel']",355.82068080012687,355.82326239999384,None,355.82338170008734,355.824670500122,None,355.82477720011957,355.82606770005077,None,355.8261752000544,0,361.8278443000745,361.82785760005936,361.82901780004613,,,,,,,,,,,,,,,,,,,,,,,,,,,,,,,,,,,,,,,,,,,,,,,,3,2023-11-27_11h30.52.702,watkins1,2023.2.3,99.71750028337864,17,2023-11-27 11h30.59.477323 +0000,
,,,,,,,,,,,6,0,6,0,,,,,,,,,,,,,361.8376515000127,,,,,,,,,,361.82930500013754,362.3197125000879,,,[],[],,,,,,,,,rustik,None,None,,,,,,,,,,Telefon,rustikal,"['Telefon', 'rustikal']",test_adj,3,,,,,,361.8292376999743,361.8292764001526,"['Geige', 'Eimer', 'Kiste', 'Tasse', 'Lampe', 'Buch', 'Telefon', 'Fahrrad', 'Kerze', 'Hut', 'Tasche', 'Rucksack', 'Vase', 'Schlüssel', 'Uhr', 'Ring', 'Kette', 'Schere', 'Hammer', 'Trommel', 'Stift', 'Brille', 'Kamera', 'Blume', 'Flasche', 'Löffel', 'Jacke', 'Socke', 'Bürste', 'Würfel']",362.3197229001671,362.32226909999736,None,362.32239069999196,362.32479510013945,None,362.3249054001644,362.3273112999741,None,362.327419700101,0,368.33203690010123,368.33205029997043,368.3333016000688,,,,,,,,,,,,,,,,,,,,,,,,,,,,,,,,,,,,,,,,,,,,,,,,3,2023-11-27_11h30.52.702,watkins1,2023.2.3,99.71750028337864,17,2023-11-27 11h30.59.477323 +0000,
,,,,,,,,,,,7,0,7,0,,,,,,,,,,,,,368.341867600102,,,,,,,,,,368.33358820015565,368.82424500002526,,,[],[],,,,,,,,,biegsam,None,None,,,,,,,,,,Fahrrad,biegsam,"['Fahrrad', 'biegsam']",test_adj,3,,,,,,368.3335204999894,368.3335595000535,"['Geige', 'Eimer', 'Kiste', 'Tasse', 'Lampe', 'Buch', 'Telefon', 'Fahrrad', 'Kerze', 'Hut', 'Tasche', 'Rucksack', 'Vase', 'Schlüssel', 'Uhr', 'Ring', 'Kette', 'Schere', 'Hammer', 'Trommel', 'Stift', 'Brille', 'Kamera', 'Blume', 'Flasche', 'Löffel', 'Jacke', 'Socke', 'Bürste', 'Würfel']",368.82425589999184,368.8269897000864,None,368.8271143999882,368.8296725000255,None,368.8297790000215,368.8323377999477,None,368.83244380005635,0,374.83736220002174,374.8373758001253,374.83870370010845,,,,,,,,,,,,,,,,,,,,,,,,,,,,,,,,,,,,,,,,,,,,,,,,3,2023-11-27_11h30.52.702,watkins1,2023.2.3,99.71750028337864,17,2023-11-27 11h30.59.477323 +0000,
,,,,,,,,,,,8,0,8,0,,,,,,,,,,,,,374.84712030016817,,,,,,,,,,374.8389916999731,375.3291607000865,,,[],[],,,,,,,,,,None,None,,,,,,,,,,Kerze,neu,"['Kerze', 'neu']",restudy,3,,,,,,374.8389233001508,374.83896300010383,"['Geige', 'Eimer', 'Kiste', 'Tasse', 'Lampe', 'Buch', 'Telefon', 'Fahrrad', 'Kerze', 'Hut', 'Tasche', 'Rucksack', 'Vase', 'Schlüssel', 'Uhr', 'Ring', 'Kette', 'Schere', 'Hammer', 'Trommel', 'Stift', 'Brille', 'Kamera', 'Blume', 'Flasche', 'Löffel', 'Jacke', 'Socke', 'Bürste', 'Würfel']",375.3291705001611,375.33181790006347,None,375.33193830004893,381.33365850010887,1,381.3339494999964,381.3364653000608,None,381.3365756999701,,381.3380355001427,381.3380470001139,381.33905810001306,4.461186500033364,None,,,,,,,,,,,,,,,,,,,,,,,,,,,,,,,,,,,,,,,,,,,,,,3,2023-11-27_11h30.52.702,watkins1,2023.2.3,99.71750028337864,17,2023-11-27 11h30.59.477323 +0000,
,,,,,,,,,,,9,0,9,0,,,,,,,,,,,,,381.3431146000512,,,,,,,,,,381.3393445000984,381.8350256001577,,,[],[],,,,,,,,,lang,None,None,,,,,,,,,,Hut,lang,"['Hut', 'lang']",test_adj,3,,,,,,381.3392789999489,381.33931740000844,"['Geige', 'Eimer', 'Kiste', 'Tasse', 'Lampe', 'Buch', 'Telefon', 'Fahrrad', 'Kerze', 'Hut', 'Tasche', 'Rucksack', 'Vase', 'Schlüssel', 'Uhr', 'Ring', 'Kette', 'Schere', 'Hammer', 'Trommel', 'Stift', 'Brille', 'Kamera', 'Blume', 'Flasche', 'Löffel', 'Jacke', 'Socke', 'Bürste', 'Würfel']",381.8350367001258,381.8376150999684,None,381.83773649996147,381.8390164000448,None,381.8391237000469,381.8403968999628,None,381.84050459996797,0,387.8421604000032,387.8421736001037,387.8433409000281,,,,,,,,,,,,,,,,,,,,,,,,,,,,,,,,,,,,,,,,,,,,,,,,3,2023-11-27_11h30.52.702,watkins1,2023.2.3,99.71750028337864,17,2023-11-27 11h30.59.477323 +0000,
,,,,,,,,,,,10,0,10,0,,,,,,,,,,,,,387.85197219997644,,,,,,,,,,387.8436282000039,388.3340121000074,,,[],[],,,,,,,,,,None,None,,,,,,,,,,Tasche,glänzend,"['Tasche', 'glänzend']",restudy,3,,,,,,387.8435605999548,387.8435994000174,"['Geige', 'Eimer', 'Kiste', 'Tasse', 'Lampe', 'Buch', 'Telefon', 'Fahrrad', 'Kerze', 'Hut', 'Tasche', 'Rucksack', 'Vase', 'Schlüssel', 'Uhr', 'Ring', 'Kette', 'Schere', 'Hammer', 'Trommel', 'Stift', 'Brille', 'Kamera', 'Blume', 'Flasche', 'Löffel', 'Jacke', 'Socke', 'Bürste', 'Würfel']",388.3340221999679,388.3367459999863,None,388.33686730009504,394.34116029995494,2,394.34146400005557,394.34418610017747,None,394.34429579996504,,394.3458014000207,394.345814100001,394.34724760008976,2.567421399988234,None,,,,,,,,,,,,,,,,,,,,,,,,,,,,,,,,,,,,,,,,,,,,,,3,2023-11-27_11h30.52.702,watkins1,2023.2.3,99.71750028337864,17,2023-11-27 11h30.59.477323 +0000,
,,,,,,,,,,,11,0,11,0,,,,,,,,,,,,,394.35054949996993,,,,,,,,,,394.3475496999454,394.8427031999454,,,[],[],,,,,,,,,groß,None,None,,,,,,,,,,Rucksack,dick,"['Rucksack', 'dick']",test_adj,3,,,,,,394.34747919999063,394.34752109996043,"['Geige', 'Eimer', 'Kiste', 'Tasse', 'Lampe', 'Buch', 'Telefon', 'Fahrrad', 'Kerze', 'Hut', 'Tasche', 'Rucksack', 'Vase', 'Schlüssel', 'Uhr', 'Ring', 'Kette', 'Schere', 'Hammer', 'Trommel', 'Stift', 'Brille', 'Kamera', 'Blume', 'Flasche', 'Löffel', 'Jacke', 'Socke', 'Bürste', 'Würfel']",394.8427143001463,394.8454944000114,None,394.8456173001323,394.84709489997476,None,394.84720259997994,394.84866619994864,None,394.84877460007556,0,400.8509305000771,400.85094560007565,400.8521847000811,,,,,,,,,,,,,,,,,,,,,,,,,,,,,,,,,,,,,,,,,,,,,,,,3,2023-11-27_11h30.52.702,watkins1,2023.2.3,99.71750028337864,17,2023-11-27 11h30.59.477323 +0000,
,,,,,,,,,,,12,0,12,0,,,,,,,,,,,,,400.8607367000077,,,,,,,,,,400.852473200066,401.34277890017256,,,[],[],,,,,,,,,teuer,None,None,,,,,,,,,,Vase,teuer,"['Vase', 'teuer']",test_adj,3,,,,,,400.85240410012193,400.85244249994867,"['Geige', 'Eimer', 'Kiste', 'Tasse', 'Lampe', 'Buch', 'Telefon', 'Fahrrad', 'Kerze', 'Hut', 'Tasche', 'Rucksack', 'Vase', 'Schlüssel', 'Uhr', 'Ring', 'Kette', 'Schere', 'Hammer', 'Trommel', 'Stift', 'Brille', 'Kamera', 'Blume', 'Flasche', 'Löffel', 'Jacke', 'Socke', 'Bürste', 'Würfel']",401.3427883000113,401.34514570003375,None,401.34526400011964,401.34749810001813,None,401.3476059001405,401.3498186999932,None,401.3499253001064,0,407.35321100009605,407.3532243000809,407.3544890000485,,,,,,,,,,,,,,,,,,,,,,,,,,,,,,,,,,,,,,,,,,,,,,,,3,2023-11-27_11h30.52.702,watkins1,2023.2.3,99.71750028337864,17,2023-11-27 11h30.59.477323 +0000,
,,,,,,,,,,,13,0,13,0,,,,,,,,,,,,,407.3629682001192,,,,,,,,,,407.3547760001384,407.8451100999955,,,[],[],,,,,,,,,,None,None,,,,,,,,,,Schlüssel,winzig,"['Schlüssel', 'winzig']",restudy,3,,,,,,407.3547090999782,407.3547478001565,"['Geige', 'Eimer', 'Kiste', 'Tasse', 'Lampe', 'Buch', 'Telefon', 'Fahrrad', 'Kerze', 'Hut', 'Tasche', 'Rucksack', 'Vase', 'Schlüssel', 'Uhr', 'Ring', 'Kette', 'Schere', 'Hammer', 'Trommel', 'Stift', 'Brille', 'Kamera', 'Blume', 'Flasche', 'Löffel', 'Jacke', 'Socke', 'Bürste', 'Würfel']",407.84512079996057,407.8478672001511,None,407.8479939000681,413.855034600012,2,413.8553260001354,413.8580506001599,None,413.8581608000677,,413.85968770016916,413.85969930002466,413.86085400008596,2.3288849000819027,None,,,,,,,,,,,,,,,,,,,,,,,,,,,,,,,,,,,,,,,,,,,,,,3,2023-11-27_11h30.52.702,watkins1,2023.2.3,99.71750028337864,17,2023-11-27 11h30.59.477323 +0000,
,,,,,,,,,,,14,0,14,0,,,,,,,,,,,,,413.864515400026,,,,,,,,,,413.8611387000419,414.35667970008217,,,[],[],,,,,,,,,glänzend,None,None,,,,,,,,,,Uhr,schmutzig,"['Uhr', 'schmutzig']",test_adj,3,,,,,,413.8610733000096,413.8611121000722,"['Geige', 'Eimer', 'Kiste', 'Tasse', 'Lampe', 'Buch', 'Telefon', 'Fahrrad', 'Kerze', 'Hut', 'Tasche', 'Rucksack', 'Vase', 'Schlüssel', 'Uhr', 'Ring', 'Kette', 'Schere', 'Hammer', 'Trommel', 'Stift', 'Brille', 'Kamera', 'Blume', 'Flasche', 'Löffel', 'Jacke', 'Socke', 'Bürste', 'Würfel']",414.35669060004875,414.359216199955,None,414.3593387999572,414.3606211000588,None,414.3607290000655,414.361998999957,None,414.36210600007325,0,420.3636291001458,420.36364330002107,420.3649927000515,,,,,,,,,,,,,,,,,,,,,,,,,,,,,,,,,,,,,,,,,,,,,,,,3,2023-11-27_11h30.52.702,watkins1,2023.2.3,99.71750028337864,17,2023-11-27 11h30.59.477323 +0000,
,,,,,,,,,,,15,0,15,0,,,,,,,,,,,,,420.37342890002765,,,,,,,,,,420.36528260004707,420.8555239001289,,,[],[],,,,,,,,,,None,None,,,,,,,,,,Ring,flach,"['Ring', 'flach']",restudy,3,,,,,,420.3652145001106,420.36525340005755,"['Geige', 'Eimer', 'Kiste', 'Tasse', 'Lampe', 'Buch', 'Telefon', 'Fahrrad', 'Kerze', 'Hut', 'Tasche', 'Rucksack', 'Vase', 'Schlüssel', 'Uhr', 'Ring', 'Kette', 'Schere', 'Hammer', 'Trommel', 'Stift', 'Brille', 'Kamera', 'Blume', 'Flasche', 'Löffel', 'Jacke', 'Socke', 'Bürste', 'Würfel']",420.85553520009853,420.85813710000366,None,420.8582628001459,426.8596231001429,2,426.85991720017046,426.86248790007085,None,426.86260069999844,,426.8639340000227,426.8639458999969,426.86508990009315,2.310806800145656,None,,,,,,,,,,,,,,,,,,,,,,,,,,,,,,,,,,,,,,,,,,,,,,3,2023-11-27_11h30.52.702,watkins1,2023.2.3,99.71750028337864,17,2023-11-27 11h30.59.477323 +0000,
,,,,,,,,,,,16,0,16,0,,,,,,,,,,,,,426.869100500131,,,,,,,,,,426.86537610017695,427.3611175001133,,,[],[],,,,,,,,,,None,None,,,,,,,,,,Kette,nachhaltig,"['Kette', 'nachhaltig']",test_adj,3,,,,,,426.8653099001385,426.86534809996374,"['Geige', 'Eimer', 'Kiste', 'Tasse', 'Lampe', 'Buch', 'Telefon', 'Fahrrad', 'Kerze', 'Hut', 'Tasche', 'Rucksack', 'Vase', 'Schlüssel', 'Uhr', 'Ring', 'Kette', 'Schere', 'Hammer', 'Trommel', 'Stift', 'Brille', 'Kamera', 'Blume', 'Flasche', 'Löffel', 'Jacke', 'Socke', 'Bürste', 'Würfel']",427.36112829996273,427.3637364001479,None,427.3638585000299,427.3654412000906,None,427.3655501001049,427.3669451000169,None,427.3670507001225,0,433.36918630008586,433.3691994000692,433.37058600015007,,,,,,,,,,,,,,,,,,,,,,,,,,,,,,,,,,,,,,,,,,,,,,,,3,2023-11-27_11h30.52.702,watkins1,2023.2.3,99.71750028337864,17,2023-11-27 11h30.59.477323 +0000,
,,,,,,,,,,,17,0,17,0,,,,,,,,,,,,,433.3789966001641,,,,,,,,,,433.37087139999494,433.86101140012033,,,[],[],,,,,,,,,,None,None,,,,,,,,,,Schere,verspielt,"['Schere', 'verspielt']",restudy,3,,,,,,433.37080490007065,433.3708429001272,"['Geige', 'Eimer', 'Kiste', 'Tasse', 'Lampe', 'Buch', 'Telefon', 'Fahrrad', 'Kerze', 'Hut', 'Tasche', 'Rucksack', 'Vase', 'Schlüssel', 'Uhr', 'Ring', 'Kette', 'Schere', 'Hammer', 'Trommel', 'Stift', 'Brille', 'Kamera', 'Blume', 'Flasche', 'Löffel', 'Jacke', 'Socke', 'Bürste', 'Würfel']",433.86102219996974,433.863795600133,None,433.86391920014285,439.86594110005535,2,439.86623160005547,439.86897459998727,None,439.86908540013246,,439.8702485000249,439.8702601001132,439.8714920000639,2.4808849000837654,None,,,,,,,,,,,,,,,,,,,,,,,,,,,,,,,,,,,,,,,,,,,,,,3,2023-11-27_11h30.52.702,watkins1,2023.2.3,99.71750028337864,17,2023-11-27 11h30.59.477323 +0000,
,,,,,,,,,,,18,0,18,0,,,,,,,,,,,,,439.87540070014074,,,,,,,,,,439.8717766001355,440.36740220012143,,,[],[],,,,,,,,,,None,None,,,,,,,,,,Hammer,praktisch,"['Hammer', 'praktisch']",restudy,3,,,,,,439.87170829996467,439.8717466001399,"['Geige', 'Eimer', 'Kiste', 'Tasse', 'Lampe', 'Buch', 'Telefon', 'Fahrrad', 'Kerze', 'Hut', 'Tasche', 'Rucksack', 'Vase', 'Schlüssel', 'Uhr', 'Ring', 'Kette', 'Schere', 'Hammer', 'Trommel', 'Stift', 'Brille', 'Kamera', 'Blume', 'Flasche', 'Löffel', 'Jacke', 'Socke', 'Bürste', 'Würfel']",440.36741250008345,440.3701391001232,None,440.37025950010866,446.3726908999961,3,446.37298159999773,446.37572950008325,None,446.3758414001204,,446.37707719998434,446.377088899957,446.3783254001755,1.9825150999240577,None,,,,,,,,,,,,,,,,,,,,,,,,,,,,,,,,,,,,,,,,,,,,,,3,2023-11-27_11h30.52.702,watkins1,2023.2.3,99.71750028337864,17,2023-11-27 11h30.59.477323 +0000,
,,,,,,,,,,,19,0,19,0,,,,,,,,,,,,,446.38215940003283,,,,,,,,,,446.37861140002497,446.8742676000111,,,[],[],,,,,,,,,robust,None,None,,,,,,,,,,Trommel,klobig,"['Trommel', 'klobig']",test_adj,3,,,,,,446.37854599999264,446.37858480005525,"['Geige', 'Eimer', 'Kiste', 'Tasse', 'Lampe', 'Buch', 'Telefon', 'Fahrrad', 'Kerze', 'Hut', 'Tasche', 'Rucksack', 'Vase', 'Schlüssel', 'Uhr', 'Ring', 'Kette', 'Schere', 'Hammer', 'Trommel', 'Stift', 'Brille', 'Kamera', 'Blume', 'Flasche', 'Löffel', 'Jacke', 'Socke', 'Bürste', 'Würfel']",446.87427849997766,446.8775961000938,None,446.87771699996665,446.8793204999529,None,446.8794287999626,446.8808713001199,None,446.88097930001095,0,452.8838486999739,452.88386179995723,452.88514939998277,,,,,,,,,,,,,,,,,,,,,,,,,,,,,,,,,,,,,,,,,,,,,,,,3,2023-11-27_11h30.52.702,watkins1,2023.2.3,99.71750028337864,17,2023-11-27 11h30.59.477323 +0000,
,,,,,,,,,,,20,0,20,0,,,,,,,,,,,,,452.8936534000095,,,,,,,,,,452.88543490017764,453.37578770006076,,,[],[],,,,,,,,,,None,None,,,,,,,,,,Stift,sportlich,"['Stift', 'sportlich']",restudy,3,,,,,,452.8853675001301,452.88540609995835,"['Geige', 'Eimer', 'Kiste', 'Tasse', 'Lampe', 'Buch', 'Telefon', 'Fahrrad', 'Kerze', 'Hut', 'Tasche', 'Rucksack', 'Vase', 'Schlüssel', 'Uhr', 'Ring', 'Kette', 'Schere', 'Hammer', 'Trommel', 'Stift', 'Brille', 'Kamera', 'Blume', 'Flasche', 'Löffel', 'Jacke', 'Socke', 'Bürste', 'Würfel']",453.3757975001354,453.37846469995566,None,453.3785853001755,459.3806896000169,1,459.38099039997905,459.3837111000903,None,459.3838241000194,,459.3852735001128,459.3852868000977,459.38653100002557,1.3981361999176443,None,,,,,,,,,,,,,,,,,,,,,,,,,,,,,,,,,,,,,,,,,,,,,,3,2023-11-27_11h30.52.702,watkins1,2023.2.3,99.71750028337864,17,2023-11-27 11h30.59.477323 +0000,
,,,,,,,,,,,21,0,21,0,,,,,,,,,,,,,459.39014649996534,,,,,,,,,,459.38681429997087,459.8822200000286,,,[],[],,,,,,,,,,None,None,,,,,,,,,,Brille,niedlich,"['Brille', 'niedlich']",restudy,3,,,,,,459.3867478000466,459.3867872999981,"['Geige', 'Eimer', 'Kiste', 'Tasse', 'Lampe', 'Buch', 'Telefon', 'Fahrrad', 'Kerze', 'Hut', 'Tasche', 'Rucksack', 'Vase', 'Schlüssel', 'Uhr', 'Ring', 'Kette', 'Schere', 'Hammer', 'Trommel', 'Stift', 'Brille', 'Kamera', 'Blume', 'Flasche', 'Löffel', 'Jacke', 'Socke', 'Bürste', 'Würfel']",459.88223100011237,459.88514679996297,None,459.8852713999804,465.8917603001464,2,465.8920559999533,465.8947624999564,None,465.89487370010465,,465.8960428000428,465.896054700017,465.89726690016687,2.723539900034666,None,,,,,,,,,,,,,,,,,,,,,,,,,,,,,,,,,,,,,,,,,,,,,,3,2023-11-27_11h30.52.702,watkins1,2023.2.3,99.71750028337864,17,2023-11-27 11h30.59.477323 +0000,
,,,,,,,,,,,22,0,22,0,,,,,,,,,,,,,465.90122930007055,,,,,,,,,,465.897545899963,466.39373690006323,,,[],[],,,,,,,,,neu,None,None,,,,,,,,,,Kamera,kratzig,"['Kamera', 'kratzig']",test_adj,3,,,,,,465.89748060004786,465.8975188001059,"['Geige', 'Eimer', 'Kiste', 'Tasse', 'Lampe', 'Buch', 'Telefon', 'Fahrrad', 'Kerze', 'Hut', 'Tasche', 'Rucksack', 'Vase', 'Schlüssel', 'Uhr', 'Ring', 'Kette', 'Schere', 'Hammer', 'Trommel', 'Stift', 'Brille', 'Kamera', 'Blume', 'Flasche', 'Löffel', 'Jacke', 'Socke', 'Bürste', 'Würfel']",466.3937470000237,466.3965473000426,None,466.3966694001574,466.39808159996755,None,466.39818949997425,466.39959700009786,None,466.39970459998585,0,472.40234000002965,472.4023536001332,472.4036602000706,,,,,,,,,,,,,,,,,,,,,,,,,,,,,,,,,,,,,,,,,,,,,,,,3,2023-11-27_11h30.52.702,watkins1,2023.2.3,99.71750028337864,17,2023-11-27 11h30.59.477323 +0000,
,,,,,,,,,,,23,0,23,0,,,,,,,,,,,,,472.41225669998676,,,,,,,,,,472.4039481000509,472.8942929999903,,,[],[],,,,,,,,,,None,None,,,,,,,,,,Blume,bunt,"['Blume', 'bunt']",restudy,3,,,,,,472.4038813000079,472.40391919994727,"['Geige', 'Eimer', 'Kiste', 'Tasse', 'Lampe', 'Buch', 'Telefon', 'Fahrrad', 'Kerze', 'Hut', 'Tasche', 'Rucksack', 'Vase', 'Schlüssel', 'Uhr', 'Ring', 'Kette', 'Schere', 'Hammer', 'Trommel', 'Stift', 'Brille', 'Kamera', 'Blume', 'Flasche', 'Löffel', 'Jacke', 'Socke', 'Bürste', 'Würfel']",472.8943040999584,472.8969521999825,None,472.89707570010796,478.90235630003735,3,478.9026556999888,478.9051473001018,None,478.90525790001266,,478.90670090005733,478.9067124000285,478.9077296999749,2.351956200087443,None,,,,,,,,,,,,,,,,,,,,,,,,,,,,,,,,,,,,,,,,,,,,,,3,2023-11-27_11h30.52.702,watkins1,2023.2.3,99.71750028337864,17,2023-11-27 11h30.59.477323 +0000,
,,,,,,,,,,,24,0,24,0,,,,,,,,,,,,,478.9118278999813,,,,,,,,,,478.9080111000221,479.40390350017697,,,[],[],,,,,,,,,klein,None,None,,,,,,,,,,Flasche,schwer,"['Flasche', 'schwer']",test_adj,3,,,,,,478.9079454001039,478.90798420016654,"['Geige', 'Eimer', 'Kiste', 'Tasse', 'Lampe', 'Buch', 'Telefon', 'Fahrrad', 'Kerze', 'Hut', 'Tasche', 'Rucksack', 'Vase', 'Schlüssel', 'Uhr', 'Ring', 'Kette', 'Schere', 'Hammer', 'Trommel', 'Stift', 'Brille', 'Kamera', 'Blume', 'Flasche', 'Löffel', 'Jacke', 'Socke', 'Bürste', 'Würfel']",479.40391330001876,479.4064025999978,None,479.4065221999772,479.4079522001557,None,479.40806040004827,479.409486599965,None,479.40959309996106,0,485.4116587000899,485.41167409997433,485.41297699999996,,,,,,,,,,,,,,,,,,,,,,,,,,,,,,,,,,,,,,,,,,,,,,,,3,2023-11-27_11h30.52.702,watkins1,2023.2.3,99.71750028337864,17,2023-11-27 11h30.59.477323 +0000,
,,,,,,,,,,,25,0,25,0,,,,,,,,,,,,,485.42156899999827,,,,,,,,,,485.4132654001005,485.90353430015966,,,[],[],,,,,,,,,,None,None,,,,,,,,,,Löffel,krumm,"['Löffel', 'krumm']",restudy,3,,,,,,485.41319700004533,485.4132354001049,"['Geige', 'Eimer', 'Kiste', 'Tasse', 'Lampe', 'Buch', 'Telefon', 'Fahrrad', 'Kerze', 'Hut', 'Tasche', 'Rucksack', 'Vase', 'Schlüssel', 'Uhr', 'Ring', 'Kette', 'Schere', 'Hammer', 'Trommel', 'Stift', 'Brille', 'Kamera', 'Blume', 'Flasche', 'Löffel', 'Jacke', 'Socke', 'Bürste', 'Würfel']",485.903544700006,485.90620020008646,None,485.9063242999837,491.9075253000483,3,491.90783459995873,491.91049759997986,None,491.91061000013724,,491.9120877000969,491.9120996000711,491.913242300041,2.6144226000178605,None,,,,,,,,,,,,,,,,,,,,,,,,,,,,,,,,,,,,,,,,,,,,,,3,2023-11-27_11h30.52.702,watkins1,2023.2.3,99.71750028337864,17,2023-11-27 11h30.59.477323 +0000,
,,,,,,,,,,,26,0,26,0,,,,,,,,,,,,,491.91695890016854,,,,,,,,,,491.91352870012634,492.40915119997226,,,[],[],,,,,,,,,,None,None,,,,,,,,,,Jacke,glatt,"['Jacke', 'glatt']",restudy,3,,,,,,491.913463300094,491.91350200003944,"['Geige', 'Eimer', 'Kiste', 'Tasse', 'Lampe', 'Buch', 'Telefon', 'Fahrrad', 'Kerze', 'Hut', 'Tasche', 'Rucksack', 'Vase', 'Schlüssel', 'Uhr', 'Ring', 'Kette', 'Schere', 'Hammer', 'Trommel', 'Stift', 'Brille', 'Kamera', 'Blume', 'Flasche', 'Löffel', 'Jacke', 'Socke', 'Bürste', 'Würfel']",492.40916160005145,492.41177270002663,None,492.41189560014755,498.4194716999773,2,498.41977429995313,498.4224148001522,None,498.42252560006455,,498.4236688001547,498.4236807001289,498.4248160000425,1.8527188000734895,None,,,,,,,,,,,,,,,,,,,,,,,,,,,,,,,,,,,,,,,,,,,,,,3,2023-11-27_11h30.52.702,watkins1,2023.2.3,99.71750028337864,17,2023-11-27 11h30.59.477323 +0000,
,,,,,,,,,,,27,0,27,0,,,,,,,,,,,,,498.42903800006025,,,,,,,,,,498.4250994999893,498.9210385000333,,,[],[],,,,,,,,,kurz,None,None,,,,,,,,,,Socke,kurz,"['Socke', 'kurz']",test_adj,3,,,,,,498.42503309994936,498.42507220013067,"['Geige', 'Eimer', 'Kiste', 'Tasse', 'Lampe', 'Buch', 'Telefon', 'Fahrrad', 'Kerze', 'Hut', 'Tasche', 'Rucksack', 'Vase', 'Schlüssel', 'Uhr', 'Ring', 'Kette', 'Schere', 'Hammer', 'Trommel', 'Stift', 'Brille', 'Kamera', 'Blume', 'Flasche', 'Löffel', 'Jacke', 'Socke', 'Bürste', 'Würfel']",498.9210496000014,498.9241692000069,None,498.924295200035,498.925697500119,None,498.92580680013634,498.92722250008956,None,498.92733089998364,0,504.9297825000249,504.9297962000128,504.9309439000208,,,,,,,,,,,,,,,,,,,,,,,,,,,,,,,,,,,,,,,,,,,,,,,,3,2023-11-27_11h30.52.702,watkins1,2023.2.3,99.71750028337864,17,2023-11-27 11h30.59.477323 +0000,
,,,,,,,,,,,28,0,28,0,,,,,,,,,,,,,504.93958320003003,,,,,,,,,,504.9312319001183,505.42160330014303,,,[],[],,,,,,,,,,None,None,,,,,,,,,,Bürste,gut,"['Bürste', 'gut']",restudy,3,,,,,,504.9311649000738,504.93120330013335,"['Geige', 'Eimer', 'Kiste', 'Tasse', 'Lampe', 'Buch', 'Telefon', 'Fahrrad', 'Kerze', 'Hut', 'Tasche', 'Rucksack', 'Vase', 'Schlüssel', 'Uhr', 'Ring', 'Kette', 'Schere', 'Hammer', 'Trommel', 'Stift', 'Brille', 'Kamera', 'Blume', 'Flasche', 'Löffel', 'Jacke', 'Socke', 'Bürste', 'Würfel']",505.42161409999244,505.4241378000006,None,505.42426050012,511.4277186000254,2,511.4280139999464,511.4305096999742,None,511.43062160001136,,511.43210060009733,511.43211239995435,511.43311160011217,1.6887754001654685,None,,,,,,,,,,,,,,,,,,,,,,,,,,,,,,,,,,,,,,,,,,,,,,3,2023-11-27_11h30.52.702,watkins1,2023.2.3,99.71750028337864,17,2023-11-27 11h30.59.477323 +0000,
,,,,,,,,,,,29,0,29,0,,,,,,,,,,,,,511.4371758000925,,,,,,,,,,511.4333943000529,511.92920490005054,,,[],[],,,,,,,,,eckig,None,None,,,,,,,,,,Würfel,blass,"['Würfel', 'blass']",test_adj,3,,,,,,511.4333293000236,511.4333679000847,"['Geige', 'Eimer', 'Kiste', 'Tasse', 'Lampe', 'Buch', 'Telefon', 'Fahrrad', 'Kerze', 'Hut', 'Tasche', 'Rucksack', 'Vase', 'Schlüssel', 'Uhr', 'Ring', 'Kette', 'Schere', 'Hammer', 'Trommel', 'Stift', 'Brille', 'Kamera', 'Blume', 'Flasche', 'Löffel', 'Jacke', 'Socke', 'Bürste', 'Würfel']",511.9292161001358,511.93172900006175,None,511.9318500000518,511.9332677000202,None,511.9333752000239,511.93480450008065,None,511.93491409998387,0,517.9372023001779,517.9372162001673,517.9384727000725,,,,,,,,,,,,,,,,,,,,,,,,,,,,,,,,,,,,,,,,,,,,,,,,3,2023-11-27_11h30.52.702,watkins1,2023.2.3,99.71750028337864,17,2023-11-27 11h30.59.477323 +0000,
,,,,,,,,,,,,,,,,,,,,,,,,,,,,,,,,,,,,,,,,,,,,,,,,,,,,,,,,,,,,,,,,,,,3,,,,,,,,,,,,,,,,,,,,,,,,,,,,,,,,,,,,,,,,,,,,,,,,,,,,,,,,,,,,,,,,,,,,,,3,2023-11-27_11h30.52.702,watkins1,2023.2.3,99.71750028337864,17,2023-11-27 11h30.59.477323 +0000,
(2 x 5) + 3 = 13 ,Correct,button_correct,,,,,,,,,,,,,0,0,0,2,,,,,,,,,544.953812800115,,,,,,,,543.9068678000476,544.910599600058,,,,,['button_correct'],[3.0787060998845845],,,,,,,,,,,,,,,,,,,,,,,,distractorTask,3,,,,,,,,,,,,,,,,,,,,,,,,,544.9353789000306,544.953812800115,548.0189949001651,[0.4046296296296296],[-0.4101851851851852],[1],[0],[0],[3.0787060998845845],['button_correct'],548.0196536001749,549.0226759000216,,,,,,,,,,,,,,,,,,,,,,,,,,,,,,,,,,3,2023-11-27_11h30.52.702,watkins1,2023.2.3,99.71750028337864,17,2023-11-27 11h30.59.477323 +0000,
(28 : 7) - 3 = 1 ,Correct,button_correct,,,,,,,,,,,,,0,1,1,0,,,,,,,,,549.0326594000217,,,,,,,,,,,,,,['button_correct'],[4.123839100124314],,,,,,,,,,,,,,,,,,,,,,,,distractorTask,3,,,,,,,,,,,,,,,,,,,,,,,,,549.0228657000698,549.0326594000217,553.1500339000486,[0.4046296296296296],[-0.4101851851851852],[1],[0],[0],[4.123839100124314],['button_correct'],553.1504047999624,554.1537697000895,,,,,,,,,,,,,,,,,,,,,,,,,,,,,,,,,,3,2023-11-27_11h30.52.702,watkins1,2023.2.3,99.71750028337864,17,2023-11-27 11h30.59.477323 +0000,
(7 x 6) + 9 = 48 ,Incorrect,button_incorrect,,,,,,,,,,,,,0,2,2,9,,,,,,,,,554.1638517000247,,,,,,,,,,,,,,['button_incorrect'],[4.626074600033462],,,,,,,,,,,,,,,,,,,,,,,,distractorTask,3,,,,,,,,,,,,,,,,,,,,,,,,,554.153954599984,554.1638517000247,558.7831993000582,[-0.42314814814814816],[-0.39444444444444443],[1],[0],[0],[4.626074600033462],['button_incorrect'],558.7835749001242,559.7869556001388,,,,,,,,,,,,,,,,,,,,,,,,,,,,,,,,,,3,2023-11-27_11h30.52.702,watkins1,2023.2.3,99.71750028337864,17,2023-11-27 11h30.59.477323 +0000,
(25 : 5) + 5 = 9 ,Incorrect,button_incorrect,,,,,,,,,,,,,0,3,3,6,,,,,,,,,559.796988400165,,,,,,,,,,,,,,['button_incorrect'],[2.900730499997735],,,,,,,,,,,,,,,,,,,,,,,,distractorTask,3,,,,,,,,,,,,,,,,,,,,,,,,,559.7871447999496,559.796988400165,562.6895648001228,[-0.2833333333333333],[-0.40925925925925927],[1],[0],[0],[2.900730499997735],['button_incorrect'],562.6899377000518,563.6931362999603,,,,,,,,,,,,,,,,,,,,,,,,,,,,,,,,,,3,2023-11-27_11h30.52.702,watkins1,2023.2.3,99.71750028337864,17,2023-11-27 11h30.59.477323 +0000,
(40 : 5) + 8 = 15 ,Incorrect,button_incorrect,,,,,,,,,,,,,0,4,4,7,,,,,,,,,563.70323069999,,,,,,,,,,,,,,['button_incorrect'],[4.144846600014716],,,,,,,,,,,,,,,,,,,,,,,,distractorTask,3,,,,,,,,,,,,,,,,,,,,,,,,,563.6933232999872,563.70323069999,567.8408822000492,[-0.3675925925925926],[-0.40185185185185185],[1],[0],[0],[4.144846600014716],['button_incorrect'],567.8412570001092,568.8444829001091,,,,,,,,,,,,,,,,,,,,,,,,,,,,,,,,,,3,2023-11-27_11h30.52.702,watkins1,2023.2.3,99.71750028337864,17,2023-11-27 11h30.59.477323 +0000,
(80 : 10) + 9 = 17 ,Correct,button_correct,,,,,,,,,,,,,0,5,5,3,,,,,,,,,568.8544604000635,,,,,,,,,,,,,,['button_correct'],[3.713866699952632],,,,,,,,,,,,,,,,,,,,,,,,distractorTask,3,,,,,,,,,,,,,,,,,,,,,,,,,568.8446698000189,568.8544604000635,572.5603593001142,[0.40370370370370373],[-0.4148148148148148],[1],[0],[0],[3.713866699952632],['button_correct'],572.5607326000463,573.5640307001304,,,,,,,,,,,,,,,,,,,,,,,,,,,,,,,,,,3,2023-11-27_11h30.52.702,watkins1,2023.2.3,99.71750028337864,17,2023-11-27 11h30.59.477323 +0000,
(54 : 6) - 10 = 0 ,Incorrect,button_incorrect,,,,,,,,,,,,,0,6,6,5,,,,,,,,,573.5740651001688,,,,,,,,,,,,,,['button_incorrect'],[4.969177799997851],,,,,,,,,,,,,,,,,,,,,,,,distractorTask,3,,,,,,,,,,,,,,,,,,,,,,,,,573.5642204000615,573.5740651001688,578.5351003999822,[-0.3333333333333333],[-0.4111111111111111],[1],[0],[0],[4.969177799997851],['button_incorrect'],578.5354731001426,579.5388245000504,,,,,,,,,,,,,,,,,,,,,,,,,,,,,,,,,,3,2023-11-27_11h30.52.702,watkins1,2023.2.3,99.71750028337864,17,2023-11-27 11h30.59.477323 +0000,
(9 x 5) - 9 = 36 ,Correct,button_correct,,,,,,,,,,,,,0,7,7,4,,,,,,,,,579.5487967000809,,,,,,,,,,,,,,['button_correct'],[3.6239104999694973],,,,,,,,,,,,,,,,,,,,,,,,distractorTask,3,,,,,,,,,,,,,,,,,,,,,,,,,579.5390155999921,579.5487967000809,583.1646471000277,[0.31296296296296294],[-0.41388888888888886],[1],[0],[0],[3.6239104999694973],['button_correct'],583.1650225999765,584.1682545000222,,,,,,,,,,,,,,,,,,,,,,,,,,,,,,,,,,3,2023-11-27_11h30.52.702,watkins1,2023.2.3,99.71750028337864,17,2023-11-27 11h30.59.477323 +0000,
(4 : 2) + 4 = 6 ,Correct,button_correct,,,,,,,,,,,,,0,8,8,1,,,,,,,,,584.1782323999796,,,,,,,,,,,,,,['button_correct'],[2.9707786000799388],,,,,,,,,,,,,,,,,,,,,,,,distractorTask,3,,,,,,,,,,,,,,,,,,,,,,,,,584.1684426001739,584.1782323999796,587.1408967999741,[0.37407407407407406],[-0.41574074074074074],[1],[0],[0],[2.9707786000799388],['button_correct'],587.1412715001497,588.1446328000166,,,,,,,,,,,,,,,,,,,,,,,,,,,,,,,,,,3,2023-11-27_11h30.52.702,watkins1,2023.2.3,99.71750028337864,17,2023-11-27 11h30.59.477323 +0000,
(6 x 3) + 10 = 27 ,Incorrect,button_incorrect,,,,,,,,,,,,,0,9,9,8,,,,,,,,,588.1546202001628,,,,,,,,,,,,,,['button_incorrect'],[3.0311396999750286],,,,,,,,,,,,,,,,,,,,,,,,distractorTask,3,,,,,,,,,,,,,,,,,,,,,,,,,588.1448178000282,588.1546202001628,591.177670400124,[-0.40925925925925927],[-0.38425925925925924],[1],[0],[0],[3.0311396999750286],['button_incorrect'],591.178048199974,592.1813387000002,,,,,,,,,,,,,,,,,,,,,,,,,,,,,,,,,,3,2023-11-27_11h30.52.702,watkins1,2023.2.3,99.71750028337864,17,2023-11-27 11h30.59.477323 +0000,
,,,,,,,,,,,,,,,,,,,,,,,,,,,,,,,,,,,,,,,,,,,,,,,,,,,,,,,,,,,,,,,,,,,3,,,,,,,,,,,,,,,,,,,,,,,,,,,,,,,,,,,,,,,,,,,,,,,,,,,,,,,,,,,,,,,,,,,,,,3,2023-11-27_11h30.52.702,watkins1,2023.2.3,99.71750028337864,17,2023-11-27 11h30.59.477323 +0000,
,,,,,,,,,,,,,,,,,,,0,0,0,0,,,,,603.2149351001717,,,,,,,,,,,,,,Hut,8.702108099823818,,,,,,,,,,6.73761499999091,None,,,,,,,,,,,,,freeRecallSub,3,,,,,,,,,,,,,,,,,,,,,,,,,,,,,,,,,,,,,603.2059851000085,603.2149351001717,603.2149351001717,611.9212984000333,return,8.702108099823818,None,Hut,[-0.08148148148148149],[0.05740740740740741],[1],[0],[0],[4.175820699892938],[],,,,,,,,,,,,,,,,,,,3,2023-11-27_11h30.52.702,watkins1,2023.2.3,99.71750028337864,17,2023-11-27 11h30.59.477323 +0000,
,,,,,,,,,,,,,,,,,,,1,0,1,0,,,,,611.933068400016,,,,,,,,,,,,,,Würfel,5.3919734000228345,,,,,,,,,,2.995395999867469,None,,,,,,,,,,,,,freeRecallSub,3,,,,,,,,,,,,,,,,,,,,,,,,,,,,,,,,,,,,,611.9230562001467,611.933068400016,611.933068400016,617.3284466001205,return,5.3919734000228345,None,Würfel,[],[],[],[],[],[],[],,,,,,,,,,,,,,,,,,,3,2023-11-27_11h30.52.702,watkins1,2023.2.3,99.71750028337864,17,2023-11-27 11h30.59.477323 +0000,
,,,,,,,,,,,,,,,,,,,2,0,2,0,,,,,617.3392348999623,,,,,,,,,,,,,,Flasche,6.6737184000667185,,,,,,,,,,3.926185900112614,None,,,,,,,,,,,,,freeRecallSub,3,,,,,,,,,,,,,,,,,,,,,,,,,,,,,,,,,,,,,617.3297068001702,617.3392348999623,617.3392348999623,624.017480700044,return,6.6737184000667185,None,Flasche,[],[],[],[],[],[],[],,,,,,,,,,,,,,,,,,,3,2023-11-27_11h30.52.702,watkins1,2023.2.3,99.71750028337864,17,2023-11-27 11h30.59.477323 +0000,
,,,,,,,,,,,,,,,,,,,3,0,3,0,,,,,624.0282426001504,,,,,,,,,,,,,,Jacke,2.6647626999765635,,,,,,,,,,1.18496030010283,None,,,,,,,,,,,,,freeRecallSub,3,,,,,,,,,,,,,,,,,,,,,,,,,,,,,,,,,,,,,624.0187246999703,624.0282426001504,624.0282426001504,626.6997825000435,return,2.6647626999765635,None,Jacke,[],[],[],[],[],[],[],,,,,,,,,,,,,,,,,,,3,2023-11-27_11h30.52.702,watkins1,2023.2.3,99.71750028337864,17,2023-11-27 11h30.59.477323 +0000,
,,,,,,,,,,,,,,,,,,,4,0,4,0,,,,,626.7106676001567,,,,,,,,,,,,,,Blume,6.8303581001237035,,,,,,,,,,5.3920862001832575,None,,,,,,,,,,,,,freeRecallSub,3,,,,,,,,,,,,,,,,,,,,,,,,,,,,,,,,,,,,,626.7012255999725,626.7106676001567,626.7106676001567,633.549309700029,return,6.8303581001237035,None,Blume,[],[],[],[],[],[],[],,,,,,,,,,,,,,,,,,,3,2023-11-27_11h30.52.702,watkins1,2023.2.3,99.71750028337864,17,2023-11-27 11h30.59.477323 +0000,
,,,,,,,,,,,,,,,,,,,5,0,5,0,,,,,633.5602504000999,,,,,,,,,,,,,,Uhr,4.412769000045955,,,,,,,,,,1.2854376998730004,None,,,,,,,,,,,,,freeRecallSub,3,,,,,,,,,,,,,,,,,,,,,,,,,,,,,,,,,,,,,633.5505681999493,633.5602504000999,633.5602504000999,637.9790555001236,return,4.412769000045955,None,Uhr,[],[],[],[],[],[],[],,,,,,,,,,,,,,,,,,,3,2023-11-27_11h30.52.702,watkins1,2023.2.3,99.71750028337864,17,2023-11-27 11h30.59.477323 +0000,
,,,,,,,,,,,,,,,,,,,6,0,6,0,,,,,637.9900485000107,,,,,,,,,,,,,,Bürste,2.463004000019282,,,,,,,,,,0.4120268002152443,None,,,,,,,,,,,,,freeRecallSub,3,,,,,,,,,,,,,,,,,,,,,,,,,,,,,,,,,,,,,637.980304799974,637.9900485000107,637.9900485000107,640.4607949000783,return,2.463004000019282,None,Bürste,[],[],[],[],[],[],[],,,,,,,,,,,,,,,,,,,3,2023-11-27_11h30.52.702,watkins1,2023.2.3,99.71750028337864,17,2023-11-27 11h30.59.477323 +0000,
,,,,,,,,,,,,,,,,,,,7,0,7,0,,,,,640.4718375001103,,,,,,,,,,,,,,Karton,21.709160800091922,,,,,,,,,,19.59114579996094,None,,,,,,,,,,,,,freeRecallSub,3,,,,,,,,,,,,,,,,,,,,,,,,,,,,,,,,,,,,,640.4620290000457,640.4718375001103,640.4718375001103,662.1820189000573,return,21.709160800091922,None,Karton,[],[],[],[],[],[],[],,,,,,,,,,,,,,,,,,,3,2023-11-27_11h30.52.702,watkins1,2023.2.3,99.71750028337864,17,2023-11-27 11h30.59.477323 +0000,
,,,,,,,,,,,,,,,,,,,8,0,8,0,,,,,662.1940069000702,,,,,,,,,,,,,,Kette,24.298987899906933,,,,,,,,,,22.585772499907762,None,,,,,,,,,,,,,freeRecallSub,3,,,,,,,,,,,,,,,,,,,,,,,,,,,,,,,,,,,,,662.1832642999943,662.1940069000702,662.1940069000702,686.496289800154,return,24.298987899906933,None,Kette,[],[],[],[],[],[],[],,,,,,,,,,,,,,,,,,,3,2023-11-27_11h30.52.702,watkins1,2023.2.3,99.71750028337864,17,2023-11-27 11h30.59.477323 +0000,
,,,,,,,,,,,,,,,,,,,9,0,9,0,,,,,686.5079975000117,,,,,,,,,,,,,,Kiste,18.0089491000399,,,,,,,,,,16.68119990010746,None,,,,,,,,,,,,,freeRecallSub,3,,,,,,,,,,,,,,,,,,,,,,,,,,,,,,,,,,,,,686.49754510005,686.5079975000117,686.5079975000117,704.5241980000865,return,18.0089491000399,None,Kiste,[],[],[],[],[],[],[],,,,,,,,,,,,,,,,,,,3,2023-11-27_11h30.52.702,watkins1,2023.2.3,99.71750028337864,17,2023-11-27 11h30.59.477323 +0000,
,,,,,,,,,,,,,,,,,,,10,0,10,0,,,,,704.5363839000929,,,,,,,,,,,,,,,[],,,,,,,,,,None,None,,,,,,,,,,,,,freeRecallSub,3,,,,,,,,,,,,,,,,,,,,,,,,,,,,,,,,,,,,,704.5254703001119,704.5363839000929,704.5363839000929,729.5982174000237,None,,,,[0.11944444444444445],[-0.40370370370370373],[1],[0],[0],[25.068052100017667],['button_continue'],,,,,,,,,,,,,,,,,,,3,2023-11-27_11h30.52.702,watkins1,2023.2.3,99.71750028337864,17,2023-11-27 11h30.59.477323 +0000,
,,,,,,,,,,,,,,,,,,,,,,,,,,,,,,,,,,,,,,,,,,,,,,,,,,,,,,,,,,,,,,,,,,,3,,,,,,,,,,,,,,,,,,,,,,,,,,,,,,,,,,,,,,,,,,,,,,,,,,,,,,,,,,,,,,,,,,,,,,3,2023-11-27_11h30.52.702,watkins1,2023.2.3,99.71750028337864,17,2023-11-27 11h30.59.477323 +0000,
,,,,,,,,,,,,,,,,,,,,,,,0,0,0,0,741.0667671000119,,,,,,,,,,748.4007818000391,748.8990901999641,,,,7.330071300035343,,,,,,,,,,None,None,,,,,,,,,,Flasche,,,cuedRecallAdj,3,,,,,,,,,,,,,,,,,,,0,,,,,,,,,,,,,,,,,,,,,,,,,,,,,,,,,741.0576031999663,741.0667671000119,741.0667671000119,748.3974752000067,schwer,return,7.330071300035343,None,748.3978671000805,748.4069858000148,748.4069858000148,748.4006350000855,,None,,,,,3,2023-11-27_11h30.52.702,watkins1,2023.2.3,99.71750028337864,17,2023-11-27 11h30.59.477323 +0000,
,,,,,,,,,,,,,,,,,,,,,,,1,0,1,0,748.9090474999975,,,,,,,,,,754.3248153000604,754.8233707000036,,,,5.407837799983099,,,,,,,,,,None,None,,,,,,,,,,Schlüssel,,,cuedRecallAdj,3,,,,,,,,,,,,,,,,,,,0,,,,,,,,,,,,,,,,,,,,,,,,,,,,,,,,,748.8993361000903,748.9090474999975,748.9090474999975,754.3216348001733,klein,return,5.407837799983099,None,754.3218980999663,754.3312419999857,754.3312419999857,754.3247152999975,,None,,,,,3,2023-11-27_11h30.52.702,watkins1,2023.2.3,99.71750028337864,17,2023-11-27 11h30.59.477323 +0000,
,,,,,,,,,,,,,,,,,,,,,,,2,0,2,0,754.8332781000063,,,,,,,,,,764.81815990014,765.3168826999608,,,,9.979514299891889,,,,,,,,,,None,None,,,,,,,,,,Trommel,,,cuedRecallAdj,3,,,,,,,,,,,,,,,,,,,0,,,,,,,,,,,,,,,,,,,,,,,,,,,,,,,,,754.8236169000156,754.8332781000063,754.8332781000063,764.8151659001596,robust,return,9.979514299891889,None,764.8154293999542,764.8246826000977,764.8246826000977,764.8180587999523,,None,,,,,3,2023-11-27_11h30.52.702,watkins1,2023.2.3,99.71750028337864,17,2023-11-27 11h30.59.477323 +0000,
,,,,,,,,,,,,,,,,,,,,,,,3,0,3,0,765.3268294001464,,,,,,,,,,773.1128382000607,773.611456300132,,,,7.774053399916738,,,,,,,,,,None,None,,,,,,,,,,Tasche,,,cuedRecallAdj,3,,,,,,,,,,,,,,,,,,,0,,,,,,,,,,,,,,,,,,,,,,,,,,,,,,,,,765.3171238000505,765.3268294001464,765.3268294001464,773.1097526000813,glänzend,return,7.774053399916738,None,773.1100139000919,773.1194335999899,773.1194335999899,773.1127389001194,,None,,,,,3,2023-11-27_11h30.52.702,watkins1,2023.2.3,99.71750028337864,17,2023-11-27 11h30.59.477323 +0000,
,,,,,,,,,,,,,,,,,,,,,,,4,0,4,0,773.6215133001097,,,,,,,,,,777.6017392000649,778.1004280000925,,,,3.9753415000159293,,,,,,,,,,None,None,,,,,,,,,,Fahrrad,,,cuedRecallAdj,3,,,,,,,,,,,,,,,,,,,0,,,,,,,,,,,,,,,,,,,,,,,,,,,,,,,,,773.6117003001273,773.6215133001097,773.6215133001097,777.5987333999947,biegsam,return,3.9753415000159293,None,777.5989952001255,777.6082894001156,777.6082894001156,777.6016383001115,,None,,,,,3,2023-11-27_11h30.52.702,watkins1,2023.2.3,99.71750028337864,17,2023-11-27 11h30.59.477323 +0000,
,,,,,,,,,,,,,,,,,,,,,,,5,0,5,0,778.1103713000193,,,,,,,,,,781.4572833999991,781.9561234000139,,,,3.3345429999753833,,,,,,,,,,None,None,,,,,,,,,,Jacke,,,cuedRecallAdj,3,,,,,,,,,,,,,,,,,,,0,,,,,,,,,,,,,,,,,,,,,,,,,,,,,,,,,778.1006692000665,778.1103713000193,778.1103713000193,781.4543459000997,glatt,return,3.3345429999753833,None,781.4546096001286,781.4640739001334,781.4640739001334,781.4571820001584,,None,,,,,3,2023-11-27_11h30.52.702,watkins1,2023.2.3,99.71750028337864,17,2023-11-27 11h30.59.477323 +0000,
,,,,,,,,,,,,,,,,,,,,,,,6,0,6,0,781.9660442001186,,,,,,,,,,791.4389307000674,791.937927900115,,,,9.46294749993831,,,,,,,,,,None,None,,,,,,,,,,Ring,,,cuedRecallAdj,3,,,,,,,,,,,,,,,,,,,0,,,,,,,,,,,,,,,,,,,,,,,,,,,,,,,,,781.9563675001264,781.9660442001186,781.9660442001186,791.4360893000849,flach,return,9.46294749993831,None,791.4363549000118,791.4456092000473,791.4456092000473,791.4388292999938,,None,,,,,3,2023-11-27_11h30.52.702,watkins1,2023.2.3,99.71750028337864,17,2023-11-27 11h30.59.477323 +0000,
,,,,,,,,,,,,,,,,,,,,,,,7,0,7,0,791.9478285999503,,,,,,,,,,810.4176690999884,810.9161478001624,,,,18.46500530000776,,,,,,,,,,None,None,,,,,,,,,,Hammer,,,cuedRecallAdj,3,,,,,,,,,,,,,,,,,,,0,,,,,,,,,,,,,,,,,,,,,,,,,,,,,,,,,791.9381961999461,791.9478285999503,791.9478285999503,810.4146231999621,brauchbar,return,18.46500530000776,None,810.4148846999742,810.4241736000404,810.4241736000404,810.4175680000335,,None,,,,,3,2023-11-27_11h30.52.702,watkins1,2023.2.3,99.71750028337864,17,2023-11-27 11h30.59.477323 +0000,
,,,,,,,,,,,,,,,,,,,,,,,8,0,8,0,810.9261476001702,,,,,,,,,,813.7816306001041,814.2804871001281,,,,2.8466765999328345,,,,,,,,,,None,None,,,,,,,,,,Kamera,,,cuedRecallAdj,3,,,,,,,,,,,,,,,,,,,0,,,,,,,,,,,,,,,,,,,,,,,,,,,,,,,,,810.9163920001592,810.9261476001702,810.9261476001702,813.7788260001689,neu,return,2.8466765999328345,None,813.7790868000593,813.7883953000419,813.7883953000419,813.781529400032,,None,,,,,3,2023-11-27_11h30.52.702,watkins1,2023.2.3,99.71750028337864,17,2023-11-27 11h30.59.477323 +0000,
,,,,,,,,,,,,,,,,,,,,,,,9,0,9,0,814.2904386001173,,,,,,,,,,820.6502972999588,821.1488508000039,,,,6.354362800018862,,,,,,,,,,None,None,,,,,,,,,,Würfel,,,cuedRecallAdj,3,,,,,,,,,,,,,,,,,,,0,,,,,,,,,,,,,,,,,,,,,,,,,,,,,,,,,814.280725199962,814.2904386001173,814.2904386001173,820.6472690000664,rustikal,return,6.354362800018862,None,820.6475341999903,820.6567863000091,820.6567863000091,820.6501967001241,,None,,,,,3,2023-11-27_11h30.52.702,watkins1,2023.2.3,99.71750028337864,17,2023-11-27 11h30.59.477323 +0000,
,,,,,,,,,,,,,,,,,,,,,,,10,0,10,0,821.1587925001513,,,,,,,,,,824.2651440000627,824.763762100134,,,,3.1019276999868453,,,,,,,,,,None,None,,,,,,,,,,Eimer,,,cuedRecallAdj,3,,,,,,,,,,,,,,,,,,,0,,,,,,,,,,,,,,,,,,,,,,,,,,,,,,,,,821.1490983001422,821.1587925001513,821.1587925001513,824.262035400141,sauber,return,3.1019276999868453,None,824.2622969001532,824.2716143000871,824.2716143000871,824.2650444000028,,None,,,,,3,2023-11-27_11h30.52.702,watkins1,2023.2.3,99.71750028337864,17,2023-11-27 11h30.59.477323 +0000,
,,,,,,,,,,,,,,,,,,,,,,,11,0,11,0,824.7737160001416,,,,,,,,,,828.492167300079,828.99114129995,,,,3.7111303999554366,,,,,,,,,,None,None,,,,,,,,,,Hut,,,cuedRecallAdj,3,,,,,,,,,,,,,,,,,,,0,,,,,,,,,,,,,,,,,,,,,,,,,,,,,,,,,824.7640044,824.7737160001416,824.7737160001416,828.489510799991,lang,return,3.7111303999554366,None,828.4897739000153,828.4990658999886,828.4990658999886,828.492065000115,,None,,,,,3,2023-11-27_11h30.52.702,watkins1,2023.2.3,99.71750028337864,17,2023-11-27 11h30.59.477323 +0000,
,,,,,,,,,,,,,,,,,,,,,,,12,0,12,0,829.0010857000016,,,,,,,,,,840.7537383001763,841.2525194999762,,,,11.747741600032896,,,,,,,,,,None,None,,,,,,,,,,Schere,,,cuedRecallAdj,3,,,,,,,,,,,,,,,,,,,0,,,,,,,,,,,,,,,,,,,,,,,,,,,,,,,,,828.9913847001735,829.0010857000016,829.0010857000016,840.7506785001606,verspielt,return,11.747741600032896,None,840.7509459999856,840.7603256001603,840.7603256001603,840.7536377001088,,None,,,,,3,2023-11-27_11h30.52.702,watkins1,2023.2.3,99.71750028337864,17,2023-11-27 11h30.59.477323 +0000,
,,,,,,,,,,,,,,,,,,,,,,,13,0,13,0,841.2624540999532,,,,,,,,,,845.3727902001701,845.8716870001517,,,,4.102343000005931,,,,,,,,,,None,None,,,,,,,,,,Bürste,,,cuedRecallAdj,3,,,,,,,,,,,,,,,,,,,0,,,,,,,,,,,,,,,,,,,,,,,,,,,,,,,,,841.2527630999684,841.2624540999532,841.2624540999532,845.3699778001755,gut,return,4.102343000005931,None,845.3702386999503,845.3795440001413,845.3795440001413,845.3726902999915,,None,,,,,3,2023-11-27_11h30.52.702,watkins1,2023.2.3,99.71750028337864,17,2023-11-27 11h30.59.477323 +0000,
,,,,,,,,,,,,,,,,,,,,,,,14,0,14,0,845.8816227000207,,,,,,,,,,851.8797894001473,852.3786798999645,,,,5.9871499999426305,,,,,,,,,,None,None,,,,,,,,,,Tasse,,,cuedRecallAdj,3,,,,,,,,,,,,,,,,,,,0,,,,,,,,,,,,,,,,,,,,,,,,,,,,,,,,,845.8719316001516,845.8816227000207,845.8816227000207,851.876816800097,schwarz,return,5.9871499999426305,None,851.877078999998,851.8865414999891,851.8865414999891,851.8796894000843,,None,,,,,3,2023-11-27_11h30.52.702,watkins1,2023.2.3,99.71750028337864,17,2023-11-27 11h30.59.477323 +0000,
,,,,,,,,,,,,,,,,,,,,,,,15,0,15,0,852.3886359001044,,,,,,,,,,855.9366660001688,856.4353291001171,,,,3.544191800057888,,,,,,,,,,None,None,,,,,,,,,,Socke,,,cuedRecallAdj,3,,,,,,,,,,,,,,,,,,,0,,,,,,,,,,,,,,,,,,,,,,,,,,,,,,,,,852.3789209001698,852.3886359001044,852.3886359001044,855.9336795001291,kurz,return,3.544191800057888,None,855.9339389000088,855.9431491000578,855.9431491000578,855.9365674001165,,None,,,,,3,2023-11-27_11h30.52.702,watkins1,2023.2.3,99.71750028337864,17,2023-11-27 11h30.59.477323 +0000,
,,,,,,,,,,,,,,,,,,,,,,,16,0,16,0,856.4452850001398,,,,,,,,,,859.9732494000345,860.4719613001216,,,,3.519492599880323,,,,,,,,,,None,None,,,,,,,,,,Geige,,,cuedRecallAdj,3,,,,,,,,,,,,,,,,,,,0,,,,,,,,,,,,,,,,,,,,,,,,,,,,,,,,,856.4355679000728,856.4452850001398,856.4452850001398,859.970291600097,lustig,return,3.519492599880323,None,859.9705554000102,859.9798294999637,859.9798294999637,859.9731507000979,,None,,,,,3,2023-11-27_11h30.52.702,watkins1,2023.2.3,99.71750028337864,17,2023-11-27 11h30.59.477323 +0000,
,,,,,,,,,,,,,,,,,,,,,,,17,0,17,0,860.4818651999813,,,,,,,,,,866.4600515000056,866.9586661001667,,,,5.970872699981555,,,,,,,,,,None,None,,,,,,,,,,Stift,,,cuedRecallAdj,3,,,,,,,,,,,,,,,,,,,0,,,,,,,,,,,,,,,,,,,,,,,,,,,,,,,,,860.4722037999891,860.4818651999813,860.4818651999813,866.4570373001043,sportlich,return,5.970872699981555,None,866.4573060001712,866.4665471999906,866.4665471999906,866.4599518000614,,None,,,,,3,2023-11-27_11h30.52.702,watkins1,2023.2.3,99.71750028337864,17,2023-11-27 11h30.59.477323 +0000,
,,,,,,,,,,,,,,,,,,,,,,,18,0,18,0,866.968620599946,,,,,,,,,,869.3818455000874,869.8807391000446,,,,2.4041588997934014,,,,,,,,,,None,None,,,,,,,,,,Blume,,,cuedRecallAdj,3,,,,,,,,,,,,,,,,,,,0,,,,,,,,,,,,,,,,,,,,,,,,,,,,,,,,,866.958913099952,866.968620599946,866.968620599946,869.3790229000151,bunt,return,2.4041588997934014,None,869.3792900999542,869.3886285000481,869.3886285000481,869.3817447000183,,None,,,,,3,2023-11-27_11h30.52.702,watkins1,2023.2.3,99.71750028337864,17,2023-11-27 11h30.59.477323 +0000,
,,,,,,,,,,,,,,,,,,,,,,,19,0,19,0,869.890797900036,,,,,,,,,,878.7205207000952,879.2193239000626,,,,8.817913000006229,,,,,,,,,,None,None,,,,,,,,,,Kerze,,,cuedRecallAdj,3,,,,,,,,,,,,,,,,,,,0,,,,,,,,,,,,,,,,,,,,,,,,,,,,,,,,,869.8809822001494,869.890797900036,869.890797900036,878.7174295000732,neu,return,8.817913000006229,None,878.7176969000138,878.7271885001101,878.7271885001101,878.7204206001479,,None,,,,,3,2023-11-27_11h30.52.702,watkins1,2023.2.3,99.71750028337864,17,2023-11-27 11h30.59.477323 +0000,
,,,,,,,,,,,,,,,,,,,,,,,20,0,20,0,879.229324300075,,,,,,,,,,885.046599100111,885.5453309000004,,,,5.807459099916741,,,,,,,,,,None,None,,,,,,,,,,Lampe,,,cuedRecallAdj,3,,,,,,,,,,,,,,,,,,,0,,,,,,,,,,,,,,,,,,,,,,,,,,,,,,,,,879.2195666001644,879.229324300075,879.229324300075,885.0436021001078,rustikal,return,5.807459099916741,None,885.0438628999982,885.0532732000574,885.0532732000574,885.0464992001653,,None,,,,,3,2023-11-27_11h30.52.702,watkins1,2023.2.3,99.71750028337864,17,2023-11-27 11h30.59.477323 +0000,
,,,,,,,,,,,,,,,,,,,,,,,21,0,21,0,885.5552779000718,,,,,,,,,,893.5816403999925,894.0804847001564,,,,8.01747619989328,,,,,,,,,,None,None,,,,,,,,,,Kiste,,,cuedRecallAdj,3,,,,,,,,,,,,,,,,,,,0,,,,,,,,,,,,,,,,,,,,,,,,,,,,,,,,,885.5455712000839,885.5552779000718,885.5552779000718,893.578704399988,robust,return,8.01747619989328,None,893.5789669000078,893.5882262999658,893.5882262999658,893.5815396001562,,None,,,,,3,2023-11-27_11h30.52.702,watkins1,2023.2.3,99.71750028337864,17,2023-11-27 11h30.59.477323 +0000,
,,,,,,,,,,,,,,,,,,,,,,,22,0,22,0,894.0904320001137,,,,,,,,,,913.0019803999458,913.5006339000538,,,,18.898284999886528,,,,,,,,,,None,None,,,,,,,,,,Telefon,,,cuedRecallAdj,3,,,,,,,,,,,,,,,,,,,0,,,,,,,,,,,,,,,,,,,,,,,,,,,,,,,,,894.0807324000634,894.0904320001137,894.0904320001137,912.9988002001774,modern,return,18.898284999886528,None,912.999067600118,913.0085100999568,913.0085100999568,913.0018802001141,,None,,,,,3,2023-11-27_11h30.52.702,watkins1,2023.2.3,99.71750028337864,17,2023-11-27 11h30.59.477323 +0000,
,,,,,,,,,,,,,,,,,,,,,,,23,0,23,0,913.5105731999502,,,,,,,,,,917.0081144999713,917.5071378999855,,,,3.486177199985832,,,,,,,,,,None,None,,,,,,,,,,Vase,,,cuedRecallAdj,3,,,,,,,,,,,,,,,,,,,0,,,,,,,,,,,,,,,,,,,,,,,,,,,,,,,,,913.5008809999563,913.5105731999502,913.5105731999502,917.0052740999963,teuer,return,3.486177199985832,None,917.0055331999902,917.0150970001705,917.0150970001705,917.0080149001442,,None,,,,,3,2023-11-27_11h30.52.702,watkins1,2023.2.3,99.71750028337864,17,2023-11-27 11h30.59.477323 +0000,
,,,,,,,,,,,,,,,,,,,,,,,24,0,24,0,917.5170367001556,,,,,,,,,,922.3002218001056,922.7991692000069,,,,4.775691099930555,,,,,,,,,,None,None,,,,,,,,,,Buch,,,cuedRecallAdj,3,,,,,,,,,,,,,,,,,,,0,,,,,,,,,,,,,,,,,,,,,,,,,,,,,,,,,917.5073764000554,917.5170367001556,917.5170367001556,922.2975449000951,grpß,return,4.775691099930555,None,922.2978066001087,922.3071000999771,922.3071000999771,922.3001211001538,,None,,,,,3,2023-11-27_11h30.52.702,watkins1,2023.2.3,99.71750028337864,17,2023-11-27 11h30.59.477323 +0000,
,,,,,,,,,,,,,,,,,,,,,,,25,0,25,0,922.8091713001486,,,,,,,,,,933.9785595000722,934.4772489001043,,,,11.16355670010671,,,,,,,,,,None,None,,,,,,,,,,Rucksack,,,cuedRecallAdj,3,,,,,,,,,,,,,,,,,,,0,,,,,,,,,,,,,,,,,,,,,,,,,,,,,,,,,922.7994091000874,922.8091713001486,922.8091713001486,933.9756780001335,groß,return,11.16355670010671,None,933.9759383001365,933.9851889000274,933.9851889000274,933.9784599000122,,None,,,,,3,2023-11-27_11h30.52.702,watkins1,2023.2.3,99.71750028337864,17,2023-11-27 11h30.59.477323 +0000,
,,,,,,,,,,,,,,,,,,,,,,,26,0,26,0,934.4873163001612,,,,,,,,,,949.7634507000912,950.2621603000443,,,,15.26941840001382,,,,,,,,,,None,None,,,,,,,,,,Löffel,,,cuedRecallAdj,3,,,,,,,,,,,,,,,,,,,0,,,,,,,,,,,,,,,,,,,,,,,,,,,,,,,,,934.4774871000554,934.4873163001612,934.4873163001612,949.7604135000147,verbogen,return,15.26941840001382,None,949.7606814999599,949.7700269999914,949.7700269999914,949.7633510001469,,None,,,,,3,2023-11-27_11h30.52.702,watkins1,2023.2.3,99.71750028337864,17,2023-11-27 11h30.59.477323 +0000,
,,,,,,,,,,,,,,,,,,,,,,,27,0,27,0,950.2720983000472,,,,,,,,,,967.400053099962,967.8987706000917,,,,17.124486499931663,,,,,,,,,,None,None,,,,,,,,,,Kette,,,cuedRecallAdj,3,,,,,,,,,,,,,,,,,,,0,,,,,,,,,,,,,,,,,,,,,,,,,,,,,,,,,950.2624021000229,950.2720983000472,950.2720983000472,967.397104700096,schön,return,17.124486499931663,None,967.3973692001309,967.4066515001468,967.4066515001468,967.3999532000162,,None,,,,,3,2023-11-27_11h30.52.702,watkins1,2023.2.3,99.71750028337864,17,2023-11-27 11h30.59.477323 +0000,
,,,,,,,,,,,,,,,,,,,,,,,28,0,28,0,967.908818300115,,,,,,,,,,975.1519421001431,975.6509108000901,,,,7.231825900031254,,,,,,,,,,None,None,,,,,,,,,,Uhr,,,cuedRecallAdj,3,,,,,,,,,,,,,,,,,,,0,,,,,,,,,,,,,,,,,,,,,,,,,,,,,,,,,967.899016899988,967.908818300115,967.908818300115,975.149058900075,glänzend,return,7.231825900031254,None,975.1493198999669,975.1588703000452,975.1588703000452,975.1518386001699,,None,,,,,3,2023-11-27_11h30.52.702,watkins1,2023.2.3,99.71750028337864,17,2023-11-27 11h30.59.477323 +0000,
,,,,,,,,,,,,,,,,,,,,,,,29,0,29,0,975.6608607999515,,,,,,,,,,979.3496161000803,979.8481907001697,,,,3.6798322000540793,,,,,,,,,,None,None,,,,,,,,,,Brille,,,cuedRecallAdj,3,,,,,,,,,,,,,,,,,,,0,,,,,,,,,,,,,,,,,,,,,,,,,,,,,,,,,975.651147400029,975.6608607999515,975.6608607999515,979.3464701001067,niedlich,return,3.6798322000540793,None,979.3467467001174,979.3559938999824,979.3559938999824,979.3495148001239,,None,,,,,3,2023-11-27_11h30.52.702,watkins1,2023.2.3,99.71750028337864,17,2023-11-27 11h30.59.477323 +0000,
,,,,,,,,,,,,,,,,,,,,,,,,,,,,,,,,,,,,,,,,,,,,,,,,,,,,,,,,,,,,,,,,,,,3,,,,,,,,,,,,,,,,,,,,,,,,,,,,,,,,,,,,,,,,,,,,,,,,,,,,,,,,,,,,,,,,,,979.8647501000669,q,900.994907299988,None,3,2023-11-27_11h30.52.702,watkins1,2023.2.3,99.71750028337864,17,2023-11-27 11h30.59.477323 +0000,
