Equation,CorrectResponse,Correctbutton,trials_7.thisRepN,trials_7.thisTrialN,trials_7.thisN,trials_7.thisIndex,trials.thisRepN,trials.thisTrialN,trials.thisN,trials.thisIndex,trials_3.thisRepN,trials_3.thisTrialN,trials_3.thisN,trials_3.thisIndex,trials_2.thisRepN,trials_2.thisTrialN,trials_2.thisN,trials_2.thisIndex,trials_4.thisRepN,trials_4.thisTrialN,trials_4.thisN,trials_4.thisIndex,trials_5.thisRepN,trials_5.thisTrialN,trials_5.thisN,trials_5.thisIndex,thisRow.t,notes,code_marius.started,code_marius.stopped,welcome.started,welcome.stopped,instruction_study.started,instruction_study.stopped,fixationcross.started,fixationcross.stopped,blanc.started,blanc.stopped,study_control_probe.started,study_control_probe.stopped,responseKey,responseTime,scale_answer_2.keys,study_control_probe_2.started,study_control_probe_2.stopped,scale_answer_3.keys,scale_answer_3.rt,scale_answer_3.duration,blanc_2.started,blanc_2.stopped,test_attr_probe.started,test_attr_probe.stopped,recalled_attr,firstKeyTime,secondWordTime,blanc_3.started,blanc_3.stopped,test_sub_probe.started,test_sub_probe.stopped,recalled_sub,instruction_probe_end.started,instruction_probe_end.stopped,study.started,study.stopped,substantive,adjective,wordpair,task,condition,liste_sub_phase1,liste_adj_phase1,scale_answer.keys,scale_answer.rt,scale_answer.duration,code_defineWordsInit.started,code_defineWordsInit.stopped,liste_sub_phase2,study_control.started,study_control.stopped,scale_answer_4.keys,restudy_same.started,restudy_same.stopped,scale_answer_5.keys,scale_answer_5.rt,scale_answer_5.duration,restudy_different.started,restudy_different.stopped,scale_answer_6.keys,test_attr.started,test_attr.stopped,test_sub.started,test_sub.stopped,correct,distractortask.started,equation_text.started,distractortask.stopped,mouse_answer.x,mouse_answer.y,mouse_answer.leftButton,mouse_answer.midButton,mouse_answer.rightButton,mouse_answer.time,mouse_answer.clicked_name,feedback_distractortask.started,feedback_distractortask.stopped,free_recall.started,text_enter.started,key_resp.started,free_recall.stopped,key_resp.keys,key_resp.rt,key_resp.duration,free_recalled_sub,mouse_continue.x,mouse_continue.y,mouse_continue.leftButton,mouse_continue.midButton,mouse_continue.rightButton,mouse_continue.time,mouse_continue.clicked_name,cued_recall.started,text_enter_2.started,key_continue.started,cued_recall.stopped,recalled_attr1,key_continue.keys,key_continue.rt,key_continue.duration,cued_recall_2.started,text_enter_3.started,key_continue_2.started,cued_recall_2.stopped,recalled_attr2,key_continue_2.keys,key_resp_8.started,key_resp_8.keys,key_resp_8.rt,key_resp_8.duration,condition,date,expName,psychopyVersion,frameRate,participant,expStart,
,,,,,,,,,,,,,,,,,,,,,,,,,,,,,0.11658270000771154,0.11665100000391249,0.11665950001042802,11.874176000012085,,,,,,,,,,,,,,,,,,,,,,,,,,,,,,,,,,,,,3,,,,,,,,,,,,,,,,,,,,,,,,,,,,,,,,,,,,,,,,,,,,,,,,,,,,,,,,,,,,,,,,,,,,,,3,2024-01-18_11h10.50.190,watkins1,2023.2.3,99.69751772891392,95,2024-01-18 11h10.58.882222 +0000,
,,,,,,,,,,,,,,,,,,,,,,,,,,,,,,,,,11.874224200000754,57.106233300000895,,,,,,,,,,,,,,,,,,,,,,,,,,,,,,,,,,,3,,,,,,,,,,,,,,,,,,,,,,,,,,,,,,,,,,,,,,,,,,,,,,,,,,,,,,,,,,,,,,,,,,,,,,3,2024-01-18_11h10.50.190,watkins1,2023.2.3,99.69751772891392,95,2024-01-18 11h10.58.882222 +0000,
,,,0,0,0,0,,,,,,,,,,,,,,,,,,,,,58.11990100001276,,,,,,,,57.10625130000699,58.10981440001342,64.61160070000915,65.10377960000187,58.60187910000968,64.61143630000879,1,3.9655872000003,None,65.10379030001059,71.11335390000022,1,3.9655872000003,None,71.11365000001388,71.6048465000058,71.60485780000454,77.60975090001011,vergnügt,None,None,77.60997170000337,77.60999700000684,77.61000420000346,77.61008750001201,,,,,,,,,,3,,,,,,,,,,,,,,,,,,,,,,,,,,,,,,,,,,,,,,,,,,,,,,,,,,,,,,,,,,,,,,,,,,,,,,3,2024-01-18_11h10.50.190,watkins1,2023.2.3,99.69751772891392,95,2024-01-18 11h10.58.882222 +0000,
,,,,,,,,,,,,,,,,,,,,,,,,,,,,,,,,,,,,,,,,,,,,,,,,,,,,,,,,,,,,,77.61020340000687,85.29212890000781,,,,,,,3,,,,,,,,,,,,,,,,,,,,,,,,,,,,,,,,,,,,,,,,,,,,,,,,,,,,,,,,,,,,,,,,,,,,,,3,2024-01-18_11h10.50.190,watkins1,2023.2.3,99.69751772891392,95,2024-01-18 11h10.58.882222 +0000,
,,,,,,,0,0,0,0,,,,,,,,,,,,,,,,,86.30570060000173,,,,,,,,85.29214520000096,86.29577070000232,86.29625320000923,86.78771280001092,,,1,4.966127099993173,,,,,,,,,,,,,,,,,,,,,86.78772330000356,92.79314230001182,Stift,elegant,"['Stift', 'elegant']",test_adj,3,"['Stift', 'Kette', 'Brille', 'Tasse', 'Kamera', 'Kiste', 'Tasche', 'Blume', 'Ring', 'Schere', 'Bürste', 'Jacke', 'Hut', 'Eimer', 'Trommel', 'Geige', 'Uhr', 'Rucksack', 'Telefon', 'Vase', 'Buch', 'Würfel', 'Schlüssel', 'Socke', 'Kerze', 'Löffel', 'Fahrrad', 'Hammer', 'Lampe', 'Flasche']",['elegant'],1,4.966127099993173,None,,,,,,,,,,,,,,,,,,,,,,,,,,,,,,,,,,,,,,,,,,,,,,,,,,,,,,,,,,,,,,,,,3,2024-01-18_11h10.50.190,watkins1,2023.2.3,99.69751772891392,95,2024-01-18 11h10.58.882222 +0000,
,,,,,,,1,0,1,0,,,,,,,,,,,,,,,,,92.80259180000576,,,,,,,,,,92.79398950000177,93.2846864000021,,,None,[],,,,,,,,,,,,,,,,,,,,,93.2846961000032,99.28579870000249,Kette,nachhaltig,"['Kette', 'nachhaltig']",restudy,3,"['Stift', 'Kette', 'Brille', 'Tasse', 'Kamera', 'Kiste', 'Tasche', 'Blume', 'Ring', 'Schere', 'Bürste', 'Jacke', 'Hut', 'Eimer', 'Trommel', 'Geige', 'Uhr', 'Rucksack', 'Telefon', 'Vase', 'Buch', 'Würfel', 'Schlüssel', 'Socke', 'Kerze', 'Löffel', 'Fahrrad', 'Hammer', 'Lampe', 'Flasche']","['elegant', 'nachhaltig']",None,,,,,,,,,,,,,,,,,,,,,,,,,,,,,,,,,,,,,,,,,,,,,,,,,,,,,,,,,,,,,,,,,,,3,2024-01-18_11h10.50.190,watkins1,2023.2.3,99.69751772891392,95,2024-01-18 11h10.58.882222 +0000,
,,,,,,,2,0,2,0,,,,,,,,,,,,,,,,,99.29520870000124,,,,,,,,,,99.28620060000685,99.77744670001266,,,1,1.9454820999962976,,,,,,,,,,,,,,,,,,,,,99.7774572000053,105.7810518000042,Brille,matt,"['Brille', 'matt']",restudy,3,"['Stift', 'Kette', 'Brille', 'Tasse', 'Kamera', 'Kiste', 'Tasche', 'Blume', 'Ring', 'Schere', 'Bürste', 'Jacke', 'Hut', 'Eimer', 'Trommel', 'Geige', 'Uhr', 'Rucksack', 'Telefon', 'Vase', 'Buch', 'Würfel', 'Schlüssel', 'Socke', 'Kerze', 'Löffel', 'Fahrrad', 'Hammer', 'Lampe', 'Flasche']","['elegant', 'nachhaltig', 'matt']",1,1.9454820999962976,None,,,,,,,,,,,,,,,,,,,,,,,,,,,,,,,,,,,,,,,,,,,,,,,,,,,,,,,,,,,,,,,,,3,2024-01-18_11h10.50.190,watkins1,2023.2.3,99.69751772891392,95,2024-01-18 11h10.58.882222 +0000,
,,,,,,,3,0,3,0,,,,,,,,,,,,,,,,,105.79052090000187,,,,,,,,,,105.78158580001036,106.27263100001437,,,1,2.6584648999996716,,,,,,,,,,,,,,,,,,,,,106.2726418000093,112.27785980000044,Tasse,sportlich,"['Tasse', 'sportlich']",restudy,3,"['Stift', 'Kette', 'Brille', 'Tasse', 'Kamera', 'Kiste', 'Tasche', 'Blume', 'Ring', 'Schere', 'Bürste', 'Jacke', 'Hut', 'Eimer', 'Trommel', 'Geige', 'Uhr', 'Rucksack', 'Telefon', 'Vase', 'Buch', 'Würfel', 'Schlüssel', 'Socke', 'Kerze', 'Löffel', 'Fahrrad', 'Hammer', 'Lampe', 'Flasche']","['elegant', 'nachhaltig', 'matt', 'sportlich']",1,2.6584648999996716,None,,,,,,,,,,,,,,,,,,,,,,,,,,,,,,,,,,,,,,,,,,,,,,,,,,,,,,,,,,,,,,,,,3,2024-01-18_11h10.50.190,watkins1,2023.2.3,99.69751772891392,95,2024-01-18 11h10.58.882222 +0000,
,,,,,,,4,0,4,0,,,,,,,,,,,,,,,,,112.28738410001097,,,,,,,,,,112.27838909999991,112.76942090000375,,,3,2.514176700002281,,,,,,,,,,,,,,,,,,,,,112.76943170001323,118.7760011000064,Kamera,gut,"['Kamera', 'gut']",test_adj,3,"['Stift', 'Kette', 'Brille', 'Tasse', 'Kamera', 'Kiste', 'Tasche', 'Blume', 'Ring', 'Schere', 'Bürste', 'Jacke', 'Hut', 'Eimer', 'Trommel', 'Geige', 'Uhr', 'Rucksack', 'Telefon', 'Vase', 'Buch', 'Würfel', 'Schlüssel', 'Socke', 'Kerze', 'Löffel', 'Fahrrad', 'Hammer', 'Lampe', 'Flasche']","['elegant', 'nachhaltig', 'matt', 'sportlich', 'gut']",3,2.514176700002281,None,,,,,,,,,,,,,,,,,,,,,,,,,,,,,,,,,,,,,,,,,,,,,,,,,,,,,,,,,,,,,,,,,3,2024-01-18_11h10.50.190,watkins1,2023.2.3,99.69751772891392,95,2024-01-18 11h10.58.882222 +0000,
,,,,,,,5,0,5,0,,,,,,,,,,,,,,,,,118.78540590000921,,,,,,,,,,118.77652080000553,119.26756210000894,,,3,1.7196968999924138,,,,,,,,,,,,,,,,,,,,,119.26757240000006,125.26861300000746,Kiste,praktisch,"['Kiste', 'praktisch']",restudy,3,"['Stift', 'Kette', 'Brille', 'Tasse', 'Kamera', 'Kiste', 'Tasche', 'Blume', 'Ring', 'Schere', 'Bürste', 'Jacke', 'Hut', 'Eimer', 'Trommel', 'Geige', 'Uhr', 'Rucksack', 'Telefon', 'Vase', 'Buch', 'Würfel', 'Schlüssel', 'Socke', 'Kerze', 'Löffel', 'Fahrrad', 'Hammer', 'Lampe', 'Flasche']","['elegant', 'nachhaltig', 'matt', 'sportlich', 'gut', 'praktisch']",3,1.7196968999924138,None,,,,,,,,,,,,,,,,,,,,,,,,,,,,,,,,,,,,,,,,,,,,,,,,,,,,,,,,,,,,,,,,,3,2024-01-18_11h10.50.190,watkins1,2023.2.3,99.69751772891392,95,2024-01-18 11h10.58.882222 +0000,
,,,,,,,6,0,6,0,,,,,,,,,,,,,,,,,125.27815540001029,,,,,,,,,,125.26913900001091,125.76021610001044,,,1,1.9557740000018384,,,,,,,,,,,,,,,,,,,,,125.76022660000308,131.77012380000087,Tasche,lustig,"['Tasche', 'lustig']",restudy,3,"['Stift', 'Kette', 'Brille', 'Tasse', 'Kamera', 'Kiste', 'Tasche', 'Blume', 'Ring', 'Schere', 'Bürste', 'Jacke', 'Hut', 'Eimer', 'Trommel', 'Geige', 'Uhr', 'Rucksack', 'Telefon', 'Vase', 'Buch', 'Würfel', 'Schlüssel', 'Socke', 'Kerze', 'Löffel', 'Fahrrad', 'Hammer', 'Lampe', 'Flasche']","['elegant', 'nachhaltig', 'matt', 'sportlich', 'gut', 'praktisch', 'lustig']",1,1.9557740000018384,None,,,,,,,,,,,,,,,,,,,,,,,,,,,,,,,,,,,,,,,,,,,,,,,,,,,,,,,,,,,,,,,,,3,2024-01-18_11h10.50.190,watkins1,2023.2.3,99.69751772891392,95,2024-01-18 11h10.58.882222 +0000,
,,,,,,,7,0,7,0,,,,,,,,,,,,,,,,,131.77957950001291,,,,,,,,,,131.77064050000627,132.2616701000079,,,1,3.0380023999896366,,,,,,,,,,,,,,,,,,,,,132.26168060000055,138.26234930001374,Blume,durchsichtig,"['Blume', 'durchsichtig']",restudy,3,"['Stift', 'Kette', 'Brille', 'Tasse', 'Kamera', 'Kiste', 'Tasche', 'Blume', 'Ring', 'Schere', 'Bürste', 'Jacke', 'Hut', 'Eimer', 'Trommel', 'Geige', 'Uhr', 'Rucksack', 'Telefon', 'Vase', 'Buch', 'Würfel', 'Schlüssel', 'Socke', 'Kerze', 'Löffel', 'Fahrrad', 'Hammer', 'Lampe', 'Flasche']","['elegant', 'nachhaltig', 'matt', 'sportlich', 'gut', 'praktisch', 'lustig', 'durchsichtig']",1,3.0380023999896366,None,,,,,,,,,,,,,,,,,,,,,,,,,,,,,,,,,,,,,,,,,,,,,,,,,,,,,,,,,,,,,,,,,3,2024-01-18_11h10.50.190,watkins1,2023.2.3,99.69751772891392,95,2024-01-18 11h10.58.882222 +0000,
,,,,,,,8,0,8,0,,,,,,,,,,,,,,,,,138.27186410001013,,,,,,,,,,138.26286850000906,138.7538920000079,,,3,2.513707500009332,,,,,,,,,,,,,,,,,,,,,138.7539026000013,144.7559140000085,Ring,nass,"['Ring', 'nass']",restudy,3,"['Stift', 'Kette', 'Brille', 'Tasse', 'Kamera', 'Kiste', 'Tasche', 'Blume', 'Ring', 'Schere', 'Bürste', 'Jacke', 'Hut', 'Eimer', 'Trommel', 'Geige', 'Uhr', 'Rucksack', 'Telefon', 'Vase', 'Buch', 'Würfel', 'Schlüssel', 'Socke', 'Kerze', 'Löffel', 'Fahrrad', 'Hammer', 'Lampe', 'Flasche']","['elegant', 'nachhaltig', 'matt', 'sportlich', 'gut', 'praktisch', 'lustig', 'durchsichtig', 'nass']",3,2.513707500009332,None,,,,,,,,,,,,,,,,,,,,,,,,,,,,,,,,,,,,,,,,,,,,,,,,,,,,,,,,,,,,,,,,,3,2024-01-18_11h10.50.190,watkins1,2023.2.3,99.69751772891392,95,2024-01-18 11h10.58.882222 +0000,
,,,,,,,9,0,9,0,,,,,,,,,,,,,,,,,144.76541940000607,,,,,,,,,,144.75644480000483,145.2477773000137,,,3,2.3476872999890475,,,,,,,,,,,,,,,,,,,,,145.2477879000071,151.25304360000882,Schere,kaputt,"['Schere', 'kaputt']",test_adj,3,"['Stift', 'Kette', 'Brille', 'Tasse', 'Kamera', 'Kiste', 'Tasche', 'Blume', 'Ring', 'Schere', 'Bürste', 'Jacke', 'Hut', 'Eimer', 'Trommel', 'Geige', 'Uhr', 'Rucksack', 'Telefon', 'Vase', 'Buch', 'Würfel', 'Schlüssel', 'Socke', 'Kerze', 'Löffel', 'Fahrrad', 'Hammer', 'Lampe', 'Flasche']","['elegant', 'nachhaltig', 'matt', 'sportlich', 'gut', 'praktisch', 'lustig', 'durchsichtig', 'nass', 'kaputt']",3,2.3476872999890475,None,,,,,,,,,,,,,,,,,,,,,,,,,,,,,,,,,,,,,,,,,,,,,,,,,,,,,,,,,,,,,,,,,3,2024-01-18_11h10.50.190,watkins1,2023.2.3,99.69751772891392,95,2024-01-18 11h10.58.882222 +0000,
,,,,,,,10,0,10,0,,,,,,,,,,,,,,,,,151.26250650000293,,,,,,,,,,151.25356500000635,151.74456810000993,,,1,3.0433429999975488,,,,,,,,,,,,,,,,,,,,,151.7445788000041,157.74574440000288,Bürste,rustikal,"['Bürste', 'rustikal']",test_adj,3,"['Stift', 'Kette', 'Brille', 'Tasse', 'Kamera', 'Kiste', 'Tasche', 'Blume', 'Ring', 'Schere', 'Bürste', 'Jacke', 'Hut', 'Eimer', 'Trommel', 'Geige', 'Uhr', 'Rucksack', 'Telefon', 'Vase', 'Buch', 'Würfel', 'Schlüssel', 'Socke', 'Kerze', 'Löffel', 'Fahrrad', 'Hammer', 'Lampe', 'Flasche']","['elegant', 'nachhaltig', 'matt', 'sportlich', 'gut', 'praktisch', 'lustig', 'durchsichtig', 'nass', 'kaputt', 'rustikal']",1,3.0433429999975488,None,,,,,,,,,,,,,,,,,,,,,,,,,,,,,,,,,,,,,,,,,,,,,,,,,,,,,,,,,,,,,,,,,3,2024-01-18_11h10.50.190,watkins1,2023.2.3,99.69751772891392,95,2024-01-18 11h10.58.882222 +0000,
,,,,,,,11,0,11,0,,,,,,,,,,,,,,,,,157.75525090000883,,,,,,,,,,157.746269700001,158.23711860000913,,,3,2.0059789000079036,,,,,,,,,,,,,,,,,,,,,158.23712890000024,164.2386664000078,Jacke,flauschig,"['Jacke', 'flauschig']",test_adj,3,"['Stift', 'Kette', 'Brille', 'Tasse', 'Kamera', 'Kiste', 'Tasche', 'Blume', 'Ring', 'Schere', 'Bürste', 'Jacke', 'Hut', 'Eimer', 'Trommel', 'Geige', 'Uhr', 'Rucksack', 'Telefon', 'Vase', 'Buch', 'Würfel', 'Schlüssel', 'Socke', 'Kerze', 'Löffel', 'Fahrrad', 'Hammer', 'Lampe', 'Flasche']","['elegant', 'nachhaltig', 'matt', 'sportlich', 'gut', 'praktisch', 'lustig', 'durchsichtig', 'nass', 'kaputt', 'rustikal', 'flauschig']",3,2.0059789000079036,None,,,,,,,,,,,,,,,,,,,,,,,,,,,,,,,,,,,,,,,,,,,,,,,,,,,,,,,,,,,,,,,,,3,2024-01-18_11h10.50.190,watkins1,2023.2.3,99.69751772891392,95,2024-01-18 11h10.58.882222 +0000,
,,,,,,,12,0,12,0,,,,,,,,,,,,,,,,,164.24810400001297,,,,,,,,,,164.23919010000827,164.73029170000518,,,1,2.112850999998045,,,,,,,,,,,,,,,,,,,,,164.73030180000933,170.73106290001306,Hut,klobig,"['Hut', 'klobig']",test_adj,3,"['Stift', 'Kette', 'Brille', 'Tasse', 'Kamera', 'Kiste', 'Tasche', 'Blume', 'Ring', 'Schere', 'Bürste', 'Jacke', 'Hut', 'Eimer', 'Trommel', 'Geige', 'Uhr', 'Rucksack', 'Telefon', 'Vase', 'Buch', 'Würfel', 'Schlüssel', 'Socke', 'Kerze', 'Löffel', 'Fahrrad', 'Hammer', 'Lampe', 'Flasche']","['elegant', 'nachhaltig', 'matt', 'sportlich', 'gut', 'praktisch', 'lustig', 'durchsichtig', 'nass', 'kaputt', 'rustikal', 'flauschig', 'klobig']",1,2.112850999998045,None,,,,,,,,,,,,,,,,,,,,,,,,,,,,,,,,,,,,,,,,,,,,,,,,,,,,,,,,,,,,,,,,,3,2024-01-18_11h10.50.190,watkins1,2023.2.3,99.69751772891392,95,2024-01-18 11h10.58.882222 +0000,
,,,,,,,13,0,13,0,,,,,,,,,,,,,,,,,170.74057930000708,,,,,,,,,,170.7315890000027,171.2226296000008,,,2,2.8128431999939494,,,,,,,,,,,,,,,,,,,,,171.22264000000723,177.22845060001418,Eimer,gestreift,"['Eimer', 'gestreift']",restudy,3,"['Stift', 'Kette', 'Brille', 'Tasse', 'Kamera', 'Kiste', 'Tasche', 'Blume', 'Ring', 'Schere', 'Bürste', 'Jacke', 'Hut', 'Eimer', 'Trommel', 'Geige', 'Uhr', 'Rucksack', 'Telefon', 'Vase', 'Buch', 'Würfel', 'Schlüssel', 'Socke', 'Kerze', 'Löffel', 'Fahrrad', 'Hammer', 'Lampe', 'Flasche']","['elegant', 'nachhaltig', 'matt', 'sportlich', 'gut', 'praktisch', 'lustig', 'durchsichtig', 'nass', 'kaputt', 'rustikal', 'flauschig', 'klobig', 'gestreift']",2,2.8128431999939494,None,,,,,,,,,,,,,,,,,,,,,,,,,,,,,,,,,,,,,,,,,,,,,,,,,,,,,,,,,,,,,,,,,3,2024-01-18_11h10.50.190,watkins1,2023.2.3,99.69751772891392,95,2024-01-18 11h10.58.882222 +0000,
,,,,,,,14,0,14,0,,,,,,,,,,,,,,,,,177.23791160000837,,,,,,,,,,177.22897060000105,177.71993130000192,,,1,2.4921123999956762,,,,,,,,,,,,,,,,,,,,,177.71994260000065,183.72890640000696,Trommel,lang,"['Trommel', 'lang']",restudy,3,"['Stift', 'Kette', 'Brille', 'Tasse', 'Kamera', 'Kiste', 'Tasche', 'Blume', 'Ring', 'Schere', 'Bürste', 'Jacke', 'Hut', 'Eimer', 'Trommel', 'Geige', 'Uhr', 'Rucksack', 'Telefon', 'Vase', 'Buch', 'Würfel', 'Schlüssel', 'Socke', 'Kerze', 'Löffel', 'Fahrrad', 'Hammer', 'Lampe', 'Flasche']","['elegant', 'nachhaltig', 'matt', 'sportlich', 'gut', 'praktisch', 'lustig', 'durchsichtig', 'nass', 'kaputt', 'rustikal', 'flauschig', 'klobig', 'gestreift', 'lang']",1,2.4921123999956762,None,,,,,,,,,,,,,,,,,,,,,,,,,,,,,,,,,,,,,,,,,,,,,,,,,,,,,,,,,,,,,,,,,3,2024-01-18_11h10.50.190,watkins1,2023.2.3,99.69751772891392,95,2024-01-18 11h10.58.882222 +0000,
,,,,,,,15,0,15,0,,,,,,,,,,,,,,,,,183.73891080000612,,,,,,,,,,183.72941990000254,184.2204453000013,,,1,1.7748888000060106,,,,,,,,,,,,,,,,,,,,,184.2204563000123,190.22298800000863,Geige,dick,"['Geige', 'dick']",test_adj,3,"['Stift', 'Kette', 'Brille', 'Tasse', 'Kamera', 'Kiste', 'Tasche', 'Blume', 'Ring', 'Schere', 'Bürste', 'Jacke', 'Hut', 'Eimer', 'Trommel', 'Geige', 'Uhr', 'Rucksack', 'Telefon', 'Vase', 'Buch', 'Würfel', 'Schlüssel', 'Socke', 'Kerze', 'Löffel', 'Fahrrad', 'Hammer', 'Lampe', 'Flasche']","['elegant', 'nachhaltig', 'matt', 'sportlich', 'gut', 'praktisch', 'lustig', 'durchsichtig', 'nass', 'kaputt', 'rustikal', 'flauschig', 'klobig', 'gestreift', 'lang', 'dick']",1,1.7748888000060106,None,,,,,,,,,,,,,,,,,,,,,,,,,,,,,,,,,,,,,,,,,,,,,,,,,,,,,,,,,,,,,,,,,3,2024-01-18_11h10.50.190,watkins1,2023.2.3,99.69751772891392,95,2024-01-18 11h10.58.882222 +0000,
,,,,,,,16,0,16,0,,,,,,,,,,,,,,,,,190.23248290001357,,,,,,,,,,190.22351020001224,190.71474090000265,,,2,2.4561455999937607,,,,,,,,,,,,,,,,,,,,,190.71475250000367,196.71769600000698,Uhr,zart,"['Uhr', 'zart']",restudy,3,"['Stift', 'Kette', 'Brille', 'Tasse', 'Kamera', 'Kiste', 'Tasche', 'Blume', 'Ring', 'Schere', 'Bürste', 'Jacke', 'Hut', 'Eimer', 'Trommel', 'Geige', 'Uhr', 'Rucksack', 'Telefon', 'Vase', 'Buch', 'Würfel', 'Schlüssel', 'Socke', 'Kerze', 'Löffel', 'Fahrrad', 'Hammer', 'Lampe', 'Flasche']","['elegant', 'nachhaltig', 'matt', 'sportlich', 'gut', 'praktisch', 'lustig', 'durchsichtig', 'nass', 'kaputt', 'rustikal', 'flauschig', 'klobig', 'gestreift', 'lang', 'dick', 'zart']",2,2.4561455999937607,None,,,,,,,,,,,,,,,,,,,,,,,,,,,,,,,,,,,,,,,,,,,,,,,,,,,,,,,,,,,,,,,,,3,2024-01-18_11h10.50.190,watkins1,2023.2.3,99.69751772891392,95,2024-01-18 11h10.58.882222 +0000,
,,,,,,,17,0,17,0,,,,,,,,,,,,,,,,,196.72715900000185,,,,,,,,,,196.71822140000586,197.20927120000124,,,1,3.1058249000052456,,,,,,,,,,,,,,,,,,,,,197.20928190000996,203.21893860001,Rucksack,glänzend,"['Rucksack', 'glänzend']",test_adj,3,"['Stift', 'Kette', 'Brille', 'Tasse', 'Kamera', 'Kiste', 'Tasche', 'Blume', 'Ring', 'Schere', 'Bürste', 'Jacke', 'Hut', 'Eimer', 'Trommel', 'Geige', 'Uhr', 'Rucksack', 'Telefon', 'Vase', 'Buch', 'Würfel', 'Schlüssel', 'Socke', 'Kerze', 'Löffel', 'Fahrrad', 'Hammer', 'Lampe', 'Flasche']","['elegant', 'nachhaltig', 'matt', 'sportlich', 'gut', 'praktisch', 'lustig', 'durchsichtig', 'nass', 'kaputt', 'rustikal', 'flauschig', 'klobig', 'gestreift', 'lang', 'dick', 'zart', 'glänzend']",1,3.1058249000052456,None,,,,,,,,,,,,,,,,,,,,,,,,,,,,,,,,,,,,,,,,,,,,,,,,,,,,,,,,,,,,,,,,,3,2024-01-18_11h10.50.190,watkins1,2023.2.3,99.69751772891392,95,2024-01-18 11h10.58.882222 +0000,
,,,,,,,18,0,18,0,,,,,,,,,,,,,,,,,203.22846060000302,,,,,,,,,,203.21947760001058,203.71035480000137,,,3,2.957736600001226,,,,,,,,,,,,,,,,,,,,,203.71036560001085,209.72013460000744,Telefon,kalt,"['Telefon', 'kalt']",restudy,3,"['Stift', 'Kette', 'Brille', 'Tasse', 'Kamera', 'Kiste', 'Tasche', 'Blume', 'Ring', 'Schere', 'Bürste', 'Jacke', 'Hut', 'Eimer', 'Trommel', 'Geige', 'Uhr', 'Rucksack', 'Telefon', 'Vase', 'Buch', 'Würfel', 'Schlüssel', 'Socke', 'Kerze', 'Löffel', 'Fahrrad', 'Hammer', 'Lampe', 'Flasche']","['elegant', 'nachhaltig', 'matt', 'sportlich', 'gut', 'praktisch', 'lustig', 'durchsichtig', 'nass', 'kaputt', 'rustikal', 'flauschig', 'klobig', 'gestreift', 'lang', 'dick', 'zart', 'glänzend', 'kalt']",3,2.957736600001226,None,,,,,,,,,,,,,,,,,,,,,,,,,,,,,,,,,,,,,,,,,,,,,,,,,,,,,,,,,,,,,,,,,3,2024-01-18_11h10.50.190,watkins1,2023.2.3,99.69751772891392,95,2024-01-18 11h10.58.882222 +0000,
,,,,,,,19,0,19,0,,,,,,,,,,,,,,,,,209.7295681000105,,,,,,,,,,209.7206639000069,210.2117336000083,,,1,3.7998930999892764,,,,,,,,,,,,,,,,,,,,,210.21174390001397,216.21426040001097,Vase,strahlend,"['Vase', 'strahlend']",test_adj,3,"['Stift', 'Kette', 'Brille', 'Tasse', 'Kamera', 'Kiste', 'Tasche', 'Blume', 'Ring', 'Schere', 'Bürste', 'Jacke', 'Hut', 'Eimer', 'Trommel', 'Geige', 'Uhr', 'Rucksack', 'Telefon', 'Vase', 'Buch', 'Würfel', 'Schlüssel', 'Socke', 'Kerze', 'Löffel', 'Fahrrad', 'Hammer', 'Lampe', 'Flasche']","['elegant', 'nachhaltig', 'matt', 'sportlich', 'gut', 'praktisch', 'lustig', 'durchsichtig', 'nass', 'kaputt', 'rustikal', 'flauschig', 'klobig', 'gestreift', 'lang', 'dick', 'zart', 'glänzend', 'kalt', 'strahlend']",1,3.7998930999892764,None,,,,,,,,,,,,,,,,,,,,,,,,,,,,,,,,,,,,,,,,,,,,,,,,,,,,,,,,,,,,,,,,,3,2024-01-18_11h10.50.190,watkins1,2023.2.3,99.69751772891392,95,2024-01-18 11h10.58.882222 +0000,
,,,,,,,20,0,20,0,,,,,,,,,,,,,,,,,216.22372980001091,,,,,,,,,,216.21479080000427,216.70560340001248,,,3,1.706587099994067,,,,,,,,,,,,,,,,,,,,,216.70561390000512,222.7115354000125,Buch,bunt,"['Buch', 'bunt']",test_adj,3,"['Stift', 'Kette', 'Brille', 'Tasse', 'Kamera', 'Kiste', 'Tasche', 'Blume', 'Ring', 'Schere', 'Bürste', 'Jacke', 'Hut', 'Eimer', 'Trommel', 'Geige', 'Uhr', 'Rucksack', 'Telefon', 'Vase', 'Buch', 'Würfel', 'Schlüssel', 'Socke', 'Kerze', 'Löffel', 'Fahrrad', 'Hammer', 'Lampe', 'Flasche']","['elegant', 'nachhaltig', 'matt', 'sportlich', 'gut', 'praktisch', 'lustig', 'durchsichtig', 'nass', 'kaputt', 'rustikal', 'flauschig', 'klobig', 'gestreift', 'lang', 'dick', 'zart', 'glänzend', 'kalt', 'strahlend', 'bunt']",3,1.706587099994067,None,,,,,,,,,,,,,,,,,,,,,,,,,,,,,,,,,,,,,,,,,,,,,,,,,,,,,,,,,,,,,,,,,3,2024-01-18_11h10.50.190,watkins1,2023.2.3,99.69751772891392,95,2024-01-18 11h10.58.882222 +0000,
,,,,,,,21,0,21,0,,,,,,,,,,,,,,,,,222.72100010000577,,,,,,,,,,222.71206070001062,223.20300580000912,,,1,2.8644821000052616,,,,,,,,,,,,,,,,,,,,,223.20301630000176,229.2064653000125,Würfel,flach,"['Würfel', 'flach']",restudy,3,"['Stift', 'Kette', 'Brille', 'Tasse', 'Kamera', 'Kiste', 'Tasche', 'Blume', 'Ring', 'Schere', 'Bürste', 'Jacke', 'Hut', 'Eimer', 'Trommel', 'Geige', 'Uhr', 'Rucksack', 'Telefon', 'Vase', 'Buch', 'Würfel', 'Schlüssel', 'Socke', 'Kerze', 'Löffel', 'Fahrrad', 'Hammer', 'Lampe', 'Flasche']","['elegant', 'nachhaltig', 'matt', 'sportlich', 'gut', 'praktisch', 'lustig', 'durchsichtig', 'nass', 'kaputt', 'rustikal', 'flauschig', 'klobig', 'gestreift', 'lang', 'dick', 'zart', 'glänzend', 'kalt', 'strahlend', 'bunt', 'flach']",1,2.8644821000052616,None,,,,,,,,,,,,,,,,,,,,,,,,,,,,,,,,,,,,,,,,,,,,,,,,,,,,,,,,,,,,,,,,,3,2024-01-18_11h10.50.190,watkins1,2023.2.3,99.69751772891392,95,2024-01-18 11h10.58.882222 +0000,
,,,,,,,22,0,22,0,,,,,,,,,,,,,,,,,229.21597780000593,,,,,,,,,,229.20699300001434,229.69794500000717,,,1,2.9781644999893615,,,,,,,,,,,,,,,,,,,,,229.6979551000113,235.70353940001223,Schlüssel,hübsch,"['Schlüssel', 'hübsch']",restudy,3,"['Stift', 'Kette', 'Brille', 'Tasse', 'Kamera', 'Kiste', 'Tasche', 'Blume', 'Ring', 'Schere', 'Bürste', 'Jacke', 'Hut', 'Eimer', 'Trommel', 'Geige', 'Uhr', 'Rucksack', 'Telefon', 'Vase', 'Buch', 'Würfel', 'Schlüssel', 'Socke', 'Kerze', 'Löffel', 'Fahrrad', 'Hammer', 'Lampe', 'Flasche']","['elegant', 'nachhaltig', 'matt', 'sportlich', 'gut', 'praktisch', 'lustig', 'durchsichtig', 'nass', 'kaputt', 'rustikal', 'flauschig', 'klobig', 'gestreift', 'lang', 'dick', 'zart', 'glänzend', 'kalt', 'strahlend', 'bunt', 'flach', 'hübsch']",1,2.9781644999893615,None,,,,,,,,,,,,,,,,,,,,,,,,,,,,,,,,,,,,,,,,,,,,,,,,,,,,,,,,,,,,,,,,,3,2024-01-18_11h10.50.190,watkins1,2023.2.3,99.69751772891392,95,2024-01-18 11h10.58.882222 +0000,
,,,,,,,23,0,23,0,,,,,,,,,,,,,,,,,235.71296670001175,,,,,,,,,,235.70407190000697,236.19535650000034,,,1,2.545322499994654,,,,,,,,,,,,,,,,,,,,,236.1953671000083,242.20151280000573,Socke,hohl,"['Socke', 'hohl']",restudy,3,"['Stift', 'Kette', 'Brille', 'Tasse', 'Kamera', 'Kiste', 'Tasche', 'Blume', 'Ring', 'Schere', 'Bürste', 'Jacke', 'Hut', 'Eimer', 'Trommel', 'Geige', 'Uhr', 'Rucksack', 'Telefon', 'Vase', 'Buch', 'Würfel', 'Schlüssel', 'Socke', 'Kerze', 'Löffel', 'Fahrrad', 'Hammer', 'Lampe', 'Flasche']","['elegant', 'nachhaltig', 'matt', 'sportlich', 'gut', 'praktisch', 'lustig', 'durchsichtig', 'nass', 'kaputt', 'rustikal', 'flauschig', 'klobig', 'gestreift', 'lang', 'dick', 'zart', 'glänzend', 'kalt', 'strahlend', 'bunt', 'flach', 'hübsch', 'hohl']",1,2.545322499994654,None,,,,,,,,,,,,,,,,,,,,,,,,,,,,,,,,,,,,,,,,,,,,,,,,,,,,,,,,,,,,,,,,,3,2024-01-18_11h10.50.190,watkins1,2023.2.3,99.69751772891392,95,2024-01-18 11h10.58.882222 +0000,
,,,,,,,24,0,24,0,,,,,,,,,,,,,,,,,242.21101650000492,,,,,,,,,,242.20204090001062,242.6930956000142,,,1,1.910983199995826,,,,,,,,,,,,,,,,,,,,,242.69310590000532,248.6988243000087,Kerze,biegsam,"['Kerze', 'biegsam']",test_adj,3,"['Stift', 'Kette', 'Brille', 'Tasse', 'Kamera', 'Kiste', 'Tasche', 'Blume', 'Ring', 'Schere', 'Bürste', 'Jacke', 'Hut', 'Eimer', 'Trommel', 'Geige', 'Uhr', 'Rucksack', 'Telefon', 'Vase', 'Buch', 'Würfel', 'Schlüssel', 'Socke', 'Kerze', 'Löffel', 'Fahrrad', 'Hammer', 'Lampe', 'Flasche']","['elegant', 'nachhaltig', 'matt', 'sportlich', 'gut', 'praktisch', 'lustig', 'durchsichtig', 'nass', 'kaputt', 'rustikal', 'flauschig', 'klobig', 'gestreift', 'lang', 'dick', 'zart', 'glänzend', 'kalt', 'strahlend', 'bunt', 'flach', 'hübsch', 'hohl', 'biegsam']",1,1.910983199995826,None,,,,,,,,,,,,,,,,,,,,,,,,,,,,,,,,,,,,,,,,,,,,,,,,,,,,,,,,,,,,,,,,,3,2024-01-18_11h10.50.190,watkins1,2023.2.3,99.69751772891392,95,2024-01-18 11h10.58.882222 +0000,
,,,,,,,25,0,25,0,,,,,,,,,,,,,,,,,248.70834140000807,,,,,,,,,,248.69934540000395,249.19044110001414,,,3,2.132490499992855,,,,,,,,,,,,,,,,,,,,,249.19045220001135,255.1980387000076,Löffel,sauber,"['Löffel', 'sauber']",test_adj,3,"['Stift', 'Kette', 'Brille', 'Tasse', 'Kamera', 'Kiste', 'Tasche', 'Blume', 'Ring', 'Schere', 'Bürste', 'Jacke', 'Hut', 'Eimer', 'Trommel', 'Geige', 'Uhr', 'Rucksack', 'Telefon', 'Vase', 'Buch', 'Würfel', 'Schlüssel', 'Socke', 'Kerze', 'Löffel', 'Fahrrad', 'Hammer', 'Lampe', 'Flasche']","['elegant', 'nachhaltig', 'matt', 'sportlich', 'gut', 'praktisch', 'lustig', 'durchsichtig', 'nass', 'kaputt', 'rustikal', 'flauschig', 'klobig', 'gestreift', 'lang', 'dick', 'zart', 'glänzend', 'kalt', 'strahlend', 'bunt', 'flach', 'hübsch', 'hohl', 'biegsam', 'sauber']",3,2.132490499992855,None,,,,,,,,,,,,,,,,,,,,,,,,,,,,,,,,,,,,,,,,,,,,,,,,,,,,,,,,,,,,,,,,,3,2024-01-18_11h10.50.190,watkins1,2023.2.3,99.69751772891392,95,2024-01-18 11h10.58.882222 +0000,
,,,,,,,26,0,26,0,,,,,,,,,,,,,,,,,255.20753030000196,,,,,,,,,,255.19856750000326,255.6896054000099,,,2,2.4422996000066632,,,,,,,,,,,,,,,,,,,,,255.6896160000033,261.69539000000805,Fahrrad,neu,"['Fahrrad', 'neu']",restudy,3,"['Stift', 'Kette', 'Brille', 'Tasse', 'Kamera', 'Kiste', 'Tasche', 'Blume', 'Ring', 'Schere', 'Bürste', 'Jacke', 'Hut', 'Eimer', 'Trommel', 'Geige', 'Uhr', 'Rucksack', 'Telefon', 'Vase', 'Buch', 'Würfel', 'Schlüssel', 'Socke', 'Kerze', 'Löffel', 'Fahrrad', 'Hammer', 'Lampe', 'Flasche']","['elegant', 'nachhaltig', 'matt', 'sportlich', 'gut', 'praktisch', 'lustig', 'durchsichtig', 'nass', 'kaputt', 'rustikal', 'flauschig', 'klobig', 'gestreift', 'lang', 'dick', 'zart', 'glänzend', 'kalt', 'strahlend', 'bunt', 'flach', 'hübsch', 'hohl', 'biegsam', 'sauber', 'neu']",2,2.4422996000066632,None,,,,,,,,,,,,,,,,,,,,,,,,,,,,,,,,,,,,,,,,,,,,,,,,,,,,,,,,,,,,,,,,,3,2024-01-18_11h10.50.190,watkins1,2023.2.3,99.69751772891392,95,2024-01-18 11h10.58.882222 +0000,
,,,,,,,27,0,27,0,,,,,,,,,,,,,,,,,261.70494450000115,,,,,,,,,,261.69591220001166,262.18700970000646,,,1,2.081243699998595,,,,,,,,,,,,,,,,,,,,,262.1870209000044,268.1961745000008,Hammer,teuer,"['Hammer', 'teuer']",test_adj,3,"['Stift', 'Kette', 'Brille', 'Tasse', 'Kamera', 'Kiste', 'Tasche', 'Blume', 'Ring', 'Schere', 'Bürste', 'Jacke', 'Hut', 'Eimer', 'Trommel', 'Geige', 'Uhr', 'Rucksack', 'Telefon', 'Vase', 'Buch', 'Würfel', 'Schlüssel', 'Socke', 'Kerze', 'Löffel', 'Fahrrad', 'Hammer', 'Lampe', 'Flasche']","['elegant', 'nachhaltig', 'matt', 'sportlich', 'gut', 'praktisch', 'lustig', 'durchsichtig', 'nass', 'kaputt', 'rustikal', 'flauschig', 'klobig', 'gestreift', 'lang', 'dick', 'zart', 'glänzend', 'kalt', 'strahlend', 'bunt', 'flach', 'hübsch', 'hohl', 'biegsam', 'sauber', 'neu', 'teuer']",1,2.081243699998595,None,,,,,,,,,,,,,,,,,,,,,,,,,,,,,,,,,,,,,,,,,,,,,,,,,,,,,,,,,,,,,,,,,3,2024-01-18_11h10.50.190,watkins1,2023.2.3,99.69751772891392,95,2024-01-18 11h10.58.882222 +0000,
,,,,,,,28,0,28,0,,,,,,,,,,,,,,,,,268.205638000014,,,,,,,,,,268.1967055000132,268.68803520000074,,,3,1.675501899997471,,,,,,,,,,,,,,,,,,,,,268.688046100011,274.6979226000112,Lampe,schwer,"['Lampe', 'schwer']",test_adj,3,"['Stift', 'Kette', 'Brille', 'Tasse', 'Kamera', 'Kiste', 'Tasche', 'Blume', 'Ring', 'Schere', 'Bürste', 'Jacke', 'Hut', 'Eimer', 'Trommel', 'Geige', 'Uhr', 'Rucksack', 'Telefon', 'Vase', 'Buch', 'Würfel', 'Schlüssel', 'Socke', 'Kerze', 'Löffel', 'Fahrrad', 'Hammer', 'Lampe', 'Flasche']","['elegant', 'nachhaltig', 'matt', 'sportlich', 'gut', 'praktisch', 'lustig', 'durchsichtig', 'nass', 'kaputt', 'rustikal', 'flauschig', 'klobig', 'gestreift', 'lang', 'dick', 'zart', 'glänzend', 'kalt', 'strahlend', 'bunt', 'flach', 'hübsch', 'hohl', 'biegsam', 'sauber', 'neu', 'teuer', 'schwer']",3,1.675501899997471,None,,,,,,,,,,,,,,,,,,,,,,,,,,,,,,,,,,,,,,,,,,,,,,,,,,,,,,,,,,,,,,,,,3,2024-01-18_11h10.50.190,watkins1,2023.2.3,99.69751772891392,95,2024-01-18 11h10.58.882222 +0000,
,,,,,,,29,0,29,0,,,,,,,,,,,,,,,,,274.7073520000122,,,,,,,,,,274.69845420001366,275.1894528000121,,,2,2.6866364999877987,,,,,,,,,,,,,,,,,,,,,275.1894639000093,281.1909481000039,Flasche,dunkel,"['Flasche', 'dunkel']",test_adj,3,"['Stift', 'Kette', 'Brille', 'Tasse', 'Kamera', 'Kiste', 'Tasche', 'Blume', 'Ring', 'Schere', 'Bürste', 'Jacke', 'Hut', 'Eimer', 'Trommel', 'Geige', 'Uhr', 'Rucksack', 'Telefon', 'Vase', 'Buch', 'Würfel', 'Schlüssel', 'Socke', 'Kerze', 'Löffel', 'Fahrrad', 'Hammer', 'Lampe', 'Flasche']","['elegant', 'nachhaltig', 'matt', 'sportlich', 'gut', 'praktisch', 'lustig', 'durchsichtig', 'nass', 'kaputt', 'rustikal', 'flauschig', 'klobig', 'gestreift', 'lang', 'dick', 'zart', 'glänzend', 'kalt', 'strahlend', 'bunt', 'flach', 'hübsch', 'hohl', 'biegsam', 'sauber', 'neu', 'teuer', 'schwer', 'dunkel']",2,2.6866364999877987,None,,,,,,,,,,,,,,,,,,,,,,,,,,,,,,,,,,,,,,,,,,,,,,,,,,,,,,,,,,,,,,,,,3,2024-01-18_11h10.50.190,watkins1,2023.2.3,99.69751772891392,95,2024-01-18 11h10.58.882222 +0000,
,,,,,,,,,,,0,0,0,0,,,,,,,,,,,,,281.2004290000041,,,,,,,,,,281.19178980001016,281.6824505000113,,,[],[],,,,,,,,,,,,None,None,,,,,,,,,,Socke,hohl,"['Socke', 'hohl']",restudy,3,,,,,,281.19171490000736,281.19176290000905,"['Socke', 'Buch', 'Würfel', 'Eimer', 'Kamera', 'Löffel', 'Bürste', 'Stift', 'Jacke', 'Blume', 'Tasse', 'Vase', 'Ring', 'Hut', 'Kiste', 'Telefon', 'Rucksack', 'Uhr', 'Brille', 'Kerze', 'Schere', 'Kette', 'Hammer', 'Lampe', 'Tasche', 'Flasche', 'Trommel', 'Schlüssel', 'Fahrrad', 'Geige']",281.682461400007,281.68525720000616,None,281.685444200004,287.68796380001004,1,3.5825731999939308,None,287.6884029000066,287.6909963000071,None,287.69116020000365,287.6923317000037,287.69234380000853,287.69337860000087,,,,,,,,,,,,,,,,,,,,,,,,,,,,,,,,,,,,,,,,,,,,,,,3,2024-01-18_11h10.50.190,watkins1,2023.2.3,99.69751772891392,95,2024-01-18 11h10.58.882222 +0000,
,,,,,,,,,,,1,0,1,0,,,,,,,,,,,,,287.6974416000012,,,,,,,,,,287.69366440000886,288.1894777000125,,,[],[],,,,,,,,,,,bunt,None,None,,,,,,,,,,Buch,bunt,"['Buch', 'bunt']",test_adj,3,,,,,,287.69360000001325,287.693637400007,"['Socke', 'Buch', 'Würfel', 'Eimer', 'Kamera', 'Löffel', 'Bürste', 'Stift', 'Jacke', 'Blume', 'Tasse', 'Vase', 'Ring', 'Hut', 'Kiste', 'Telefon', 'Rucksack', 'Uhr', 'Brille', 'Kerze', 'Schere', 'Kette', 'Hammer', 'Lampe', 'Tasche', 'Flasche', 'Trommel', 'Schlüssel', 'Fahrrad', 'Geige']",288.1894888000097,288.19203600000765,None,288.1921624000097,288.19348240000545,None,,,288.19359360000817,288.19492740000715,None,288.19503760000225,294.1980799000012,294.19809430000896,294.1992700000119,0,,,,,,,,,,,,,,,,,,,,,,,,,,,,,,,,,,,,,,,,,,,,,,3,2024-01-18_11h10.50.190,watkins1,2023.2.3,99.69751772891392,95,2024-01-18 11h10.58.882222 +0000,
,,,,,,,,,,,2,0,2,0,,,,,,,,,,,,,294.20785630001046,,,,,,,,,,294.1995580000075,294.68994020001264,,,[],[],,,,,,,,,,,,None,None,,,,,,,,,,Würfel,flach,"['Würfel', 'flach']",restudy,3,,,,,,294.19949130000896,294.1995298000111,"['Socke', 'Buch', 'Würfel', 'Eimer', 'Kamera', 'Löffel', 'Bürste', 'Stift', 'Jacke', 'Blume', 'Tasse', 'Vase', 'Ring', 'Hut', 'Kiste', 'Telefon', 'Rucksack', 'Uhr', 'Brille', 'Kerze', 'Schere', 'Kette', 'Hammer', 'Lampe', 'Tasche', 'Flasche', 'Trommel', 'Schlüssel', 'Fahrrad', 'Geige']",294.6899502000015,294.6926394000038,None,294.6927629000129,300.70113590000255,1,2.3435037000017473,None,300.7014610000042,300.7041764000023,None,300.7042916000064,300.70582200000354,300.70583360000455,300.70699460001197,,,,,,,,,,,,,,,,,,,,,,,,,,,,,,,,,,,,,,,,,,,,,,,3,2024-01-18_11h10.50.190,watkins1,2023.2.3,99.69751772891392,95,2024-01-18 11h10.58.882222 +0000,
,,,,,,,,,,,3,0,3,0,,,,,,,,,,,,,300.7106050000002,,,,,,,,,,300.7072779000009,301.20267710000917,,,[],[],,,,,,,,,,,,None,None,,,,,,,,,,Eimer,gestreift,"['Eimer', 'gestreift']",restudy,3,,,,,,300.70721250001225,300.70725080001284,"['Socke', 'Buch', 'Würfel', 'Eimer', 'Kamera', 'Löffel', 'Bürste', 'Stift', 'Jacke', 'Blume', 'Tasse', 'Vase', 'Ring', 'Hut', 'Kiste', 'Telefon', 'Rucksack', 'Uhr', 'Brille', 'Kerze', 'Schere', 'Kette', 'Hammer', 'Lampe', 'Tasche', 'Flasche', 'Trommel', 'Schlüssel', 'Fahrrad', 'Geige']",301.20268850000866,301.20533490000525,None,301.2054596000089,307.2120678000065,2,3.1990231000090716,None,307.21236350000254,307.21512300000177,None,307.2152342000045,307.2163739000098,307.2163852000085,307.21761170000536,,,,,,,,,,,,,,,,,,,,,,,,,,,,,,,,,,,,,,,,,,,,,,,3,2024-01-18_11h10.50.190,watkins1,2023.2.3,99.69751772891392,95,2024-01-18 11h10.58.882222 +0000,
,,,,,,,,,,,4,0,4,0,,,,,,,,,,,,,307.2215251000016,,,,,,,,,,307.217888500003,307.713588100014,,,[],[],,,,,,,,,,,gut,None,None,,,,,,,,,,Kamera,gut,"['Kamera', 'gut']",test_adj,3,,,,,,307.2178242000082,307.21786200000497,"['Socke', 'Buch', 'Würfel', 'Eimer', 'Kamera', 'Löffel', 'Bürste', 'Stift', 'Jacke', 'Blume', 'Tasse', 'Vase', 'Ring', 'Hut', 'Kiste', 'Telefon', 'Rucksack', 'Uhr', 'Brille', 'Kerze', 'Schere', 'Kette', 'Hammer', 'Lampe', 'Tasche', 'Flasche', 'Trommel', 'Schlüssel', 'Fahrrad', 'Geige']",307.71359890000895,307.7165621000022,None,307.716691300011,307.71837960000266,None,,,307.7184905000031,307.7199561000016,None,307.7200645000121,313.7238614000089,313.72387580000213,313.7250262000016,0,,,,,,,,,,,,,,,,,,,,,,,,,,,,,,,,,,,,,,,,,,,,,,3,2024-01-18_11h10.50.190,watkins1,2023.2.3,99.69751772891392,95,2024-01-18 11h10.58.882222 +0000,
,,,,,,,,,,,5,0,5,0,,,,,,,,,,,,,313.7336129000032,,,,,,,,,,313.7253228000045,314.2157554000005,,,[],[],,,,,,,,,,,sauber,None,None,,,,,,,,,,Löffel,sauber,"['Löffel', 'sauber']",test_adj,3,,,,,,313.7252554000006,313.7252940000035,"['Socke', 'Buch', 'Würfel', 'Eimer', 'Kamera', 'Löffel', 'Bürste', 'Stift', 'Jacke', 'Blume', 'Tasse', 'Vase', 'Ring', 'Hut', 'Kiste', 'Telefon', 'Rucksack', 'Uhr', 'Brille', 'Kerze', 'Schere', 'Kette', 'Hammer', 'Lampe', 'Tasche', 'Flasche', 'Trommel', 'Schlüssel', 'Fahrrad', 'Geige']",314.2157664000115,314.2182929000119,None,314.21841730001324,314.2207733000105,None,,,314.2208834000048,314.223244400011,None,314.22335230000317,320.22769790000166,320.2277122000087,320.22902910000994,0,,,,,,,,,,,,,,,,,,,,,,,,,,,,,,,,,,,,,,,,,,,,,,3,2024-01-18_11h10.50.190,watkins1,2023.2.3,99.69751772891392,95,2024-01-18 11h10.58.882222 +0000,
,,,,,,,,,,,6,0,6,0,,,,,,,,,,,,,320.2375116000039,,,,,,,,,,320.2293162000133,320.719631800006,,,[],[],,,,,,,,,,,rustikal,None,None,,,,,,,,,,Bürste,rustikal,"['Bürste', 'rustikal']",test_adj,3,,,,,,320.2292480000033,320.22928690000845,"['Socke', 'Buch', 'Würfel', 'Eimer', 'Kamera', 'Löffel', 'Bürste', 'Stift', 'Jacke', 'Blume', 'Tasse', 'Vase', 'Ring', 'Hut', 'Kiste', 'Telefon', 'Rucksack', 'Uhr', 'Brille', 'Kerze', 'Schere', 'Kette', 'Hammer', 'Lampe', 'Tasche', 'Flasche', 'Trommel', 'Schlüssel', 'Fahrrad', 'Geige']",320.7196423000132,320.72238350000407,None,320.7225068000116,320.72506120000617,None,,,320.7251697000029,320.72787680001056,None,320.72798700000567,326.73363630000676,326.7336496000062,326.73503450000135,0,,,,,,,,,,,,,,,,,,,,,,,,,,,,,,,,,,,,,,,,,,,,,,3,2024-01-18_11h10.50.190,watkins1,2023.2.3,99.69751772891392,95,2024-01-18 11h10.58.882222 +0000,
,,,,,,,,,,,7,0,7,0,,,,,,,,,,,,,326.7433825000044,,,,,,,,,,326.735316700011,327.2254207000078,,,[],[],,,,,,,,,,,elegant,None,None,,,,,,,,,,Stift,elegant,"['Stift', 'elegant']",test_adj,3,,,,,,326.7352493000071,326.7352885,"['Socke', 'Buch', 'Würfel', 'Eimer', 'Kamera', 'Löffel', 'Bürste', 'Stift', 'Jacke', 'Blume', 'Tasse', 'Vase', 'Ring', 'Hut', 'Kiste', 'Telefon', 'Rucksack', 'Uhr', 'Brille', 'Kerze', 'Schere', 'Kette', 'Hammer', 'Lampe', 'Tasche', 'Flasche', 'Trommel', 'Schlüssel', 'Fahrrad', 'Geige']",327.225431800005,327.22817390000273,None,327.2282997000002,327.2308825000073,None,,,327.2309957000107,327.2335743000003,None,327.23368290001235,333.23897620000935,333.2389903000003,333.24032350000925,0,,,,,,,,,,,,,,,,,,,,,,,,,,,,,,,,,,,,,,,,,,,,,,3,2024-01-18_11h10.50.190,watkins1,2023.2.3,99.69751772891392,95,2024-01-18 11h10.58.882222 +0000,
,,,,,,,,,,,8,0,8,0,,,,,,,,,,,,,333.2487683000072,,,,,,,,,,333.2406069000135,333.7309177000134,,,[],[],,,,,,,,,,,flauschig,None,None,,,,,,,,,,Jacke,flauschig,"['Jacke', 'flauschig']",test_adj,3,,,,,,333.2405378000112,333.2405781000125,"['Socke', 'Buch', 'Würfel', 'Eimer', 'Kamera', 'Löffel', 'Bürste', 'Stift', 'Jacke', 'Blume', 'Tasse', 'Vase', 'Ring', 'Hut', 'Kiste', 'Telefon', 'Rucksack', 'Uhr', 'Brille', 'Kerze', 'Schere', 'Kette', 'Hammer', 'Lampe', 'Tasche', 'Flasche', 'Trommel', 'Schlüssel', 'Fahrrad', 'Geige']",333.73092810000526,333.73361940000905,None,333.73374350000813,333.73630990000675,None,,,333.7364185000042,333.73894510000537,None,333.73905340000056,339.7438342000096,339.74384850000206,339.7453577000124,0,,,,,,,,,,,,,,,,,,,,,,,,,,,,,,,,,,,,,,,,,,,,,,3,2024-01-18_11h10.50.190,watkins1,2023.2.3,99.69751772891392,95,2024-01-18 11h10.58.882222 +0000,
,,,,,,,,,,,9,0,9,0,,,,,,,,,,,,,339.7536468000035,,,,,,,,,,339.74564810001175,340.2357304000034,,,[],[],,,,,,,,,,,,None,None,,,,,,,,,,Blume,durchsichtig,"['Blume', 'durchsichtig']",restudy,3,,,,,,339.74557680000726,339.74561930001073,"['Socke', 'Buch', 'Würfel', 'Eimer', 'Kamera', 'Löffel', 'Bürste', 'Stift', 'Jacke', 'Blume', 'Tasse', 'Vase', 'Ring', 'Hut', 'Kiste', 'Telefon', 'Rucksack', 'Uhr', 'Brille', 'Kerze', 'Schere', 'Kette', 'Hammer', 'Lampe', 'Tasche', 'Flasche', 'Trommel', 'Schlüssel', 'Fahrrad', 'Geige']",340.2357422000059,340.23851250000007,None,340.23864200001117,346.24806720000925,1,2.8296008000033908,None,346.2483596000093,346.2512606000091,None,346.25137240000186,346.25289860001067,346.2529104000132,346.2542037000094,,,,,,,,,,,,,,,,,,,,,,,,,,,,,,,,,,,,,,,,,,,,,,,3,2024-01-18_11h10.50.190,watkins1,2023.2.3,99.69751772891392,95,2024-01-18 11h10.58.882222 +0000,
,,,,,,,,,,,10,0,10,0,,,,,,,,,,,,,346.2575499000086,,,,,,,,,,346.25448750000214,346.749432800003,,,[],[],,,,,,,,,,,,None,None,,,,,,,,,,Tasse,sportlich,"['Tasse', 'sportlich']",restudy,3,,,,,,346.2544193000067,346.25445830001263,"['Socke', 'Buch', 'Würfel', 'Eimer', 'Kamera', 'Löffel', 'Bürste', 'Stift', 'Jacke', 'Blume', 'Tasse', 'Vase', 'Ring', 'Hut', 'Kiste', 'Telefon', 'Rucksack', 'Uhr', 'Brille', 'Kerze', 'Schere', 'Kette', 'Hammer', 'Lampe', 'Tasche', 'Flasche', 'Trommel', 'Schlüssel', 'Fahrrad', 'Geige']",346.74944400000095,346.7523057000071,None,346.7524291000009,352.7603314000007,1,3.163796100008767,None,352.76062900001125,352.7634594000119,None,352.76357270000153,352.76477970000997,352.76479140001175,352.7660455000005,,,,,,,,,,,,,,,,,,,,,,,,,,,,,,,,,,,,,,,,,,,,,,,3,2024-01-18_11h10.50.190,watkins1,2023.2.3,99.69751772891392,95,2024-01-18 11h10.58.882222 +0000,
,,,,,,,,,,,11,0,11,0,,,,,,,,,,,,,352.76970900000015,,,,,,,,,,352.7663314000092,353.2619912000082,,,[],[],,,,,,,,,,,matt,None,None,,,,,,,,,,Vase,strahlend,"['Vase', 'strahlend']",test_adj,3,,,,,,352.76626640000904,352.7663046000089,"['Socke', 'Buch', 'Würfel', 'Eimer', 'Kamera', 'Löffel', 'Bürste', 'Stift', 'Jacke', 'Blume', 'Tasse', 'Vase', 'Ring', 'Hut', 'Kiste', 'Telefon', 'Rucksack', 'Uhr', 'Brille', 'Kerze', 'Schere', 'Kette', 'Hammer', 'Lampe', 'Tasche', 'Flasche', 'Trommel', 'Schlüssel', 'Fahrrad', 'Geige']",353.26200300001074,353.26468690000183,None,353.26482360000955,353.266157200007,None,,,353.26626670001133,353.2675787000044,None,353.2676875000034,359.27001050001127,359.27002429999993,359.27139450001414,0,,,,,,,,,,,,,,,,,,,,,,,,,,,,,,,,,,,,,,,,,,,,,,3,2024-01-18_11h10.50.190,watkins1,2023.2.3,99.69751772891392,95,2024-01-18 11h10.58.882222 +0000,
,,,,,,,,,,,12,0,12,0,,,,,,,,,,,,,359.2798160000093,,,,,,,,,,359.27168040000834,359.7618055000057,,,[],[],,,,,,,,,,,,None,None,,,,,,,,,,Ring,nass,"['Ring', 'nass']",restudy,3,,,,,,359.2716098000092,359.2716478000075,"['Socke', 'Buch', 'Würfel', 'Eimer', 'Kamera', 'Löffel', 'Bürste', 'Stift', 'Jacke', 'Blume', 'Tasse', 'Vase', 'Ring', 'Hut', 'Kiste', 'Telefon', 'Rucksack', 'Uhr', 'Brille', 'Kerze', 'Schere', 'Kette', 'Hammer', 'Lampe', 'Tasche', 'Flasche', 'Trommel', 'Schlüssel', 'Fahrrad', 'Geige']",359.7618158000114,359.7646037000086,None,359.764729100003,365.77101590001257,3,2.247993700002553,None,365.77131960001134,365.7737421000056,None,365.77385350000986,365.77520780000486,365.7752194000059,365.77626340001007,,,,,,,,,,,,,,,,,,,,,,,,,,,,,,,,,,,,,,,,,,,,,,,3,2024-01-18_11h10.50.190,watkins1,2023.2.3,99.69751772891392,95,2024-01-18 11h10.58.882222 +0000,
,,,,,,,,,,,13,0,13,0,,,,,,,,,,,,,365.7804899000039,,,,,,,,,,365.77654020000773,366.2725751000107,,,[],[],,,,,,,,,,,,None,None,,,,,,,,,,Hut,klobig,"['Hut', 'klobig']",test_adj,3,,,,,,365.77647660000366,365.7765139000112,"['Socke', 'Buch', 'Würfel', 'Eimer', 'Kamera', 'Löffel', 'Bürste', 'Stift', 'Jacke', 'Blume', 'Tasse', 'Vase', 'Ring', 'Hut', 'Kiste', 'Telefon', 'Rucksack', 'Uhr', 'Brille', 'Kerze', 'Schere', 'Kette', 'Hammer', 'Lampe', 'Tasche', 'Flasche', 'Trommel', 'Schlüssel', 'Fahrrad', 'Geige']",366.27258560000337,366.27497500000754,None,366.27509850000206,366.27638000001025,None,,,366.2764865000063,366.27777070000593,None,366.27787940000417,372.27949070000614,372.27950450000935,372.28081750001,0,,,,,,,,,,,,,,,,,,,,,,,,,,,,,,,,,,,,,,,,,,,,,,3,2024-01-18_11h10.50.190,watkins1,2023.2.3,99.69751772891392,95,2024-01-18 11h10.58.882222 +0000,
,,,,,,,,,,,14,0,14,0,,,,,,,,,,,,,372.2893322000018,,,,,,,,,,372.2811034000042,372.7714616000012,,,[],[],,,,,,,,,,,,None,None,,,,,,,,,,Kiste,praktisch,"['Kiste', 'praktisch']",restudy,3,,,,,,372.2810370000079,372.28107440000167,"['Socke', 'Buch', 'Würfel', 'Eimer', 'Kamera', 'Löffel', 'Bürste', 'Stift', 'Jacke', 'Blume', 'Tasse', 'Vase', 'Ring', 'Hut', 'Kiste', 'Telefon', 'Rucksack', 'Uhr', 'Brille', 'Kerze', 'Schere', 'Kette', 'Hammer', 'Lampe', 'Tasche', 'Flasche', 'Trommel', 'Schlüssel', 'Fahrrad', 'Geige']",372.77147289999994,372.7741762000078,None,372.7743016000022,378.7783504000108,3,1.6781192000053125,None,378.77864700001373,378.78145570000925,None,378.7815777000069,378.7827940000134,378.7828067000082,378.78410910000093,,,,,,,,,,,,,,,,,,,,,,,,,,,,,,,,,,,,,,,,,,,,,,,3,2024-01-18_11h10.50.190,watkins1,2023.2.3,99.69751772891392,95,2024-01-18 11h10.58.882222 +0000,
,,,,,,,,,,,15,0,15,0,,,,,,,,,,,,,378.78785180000705,,,,,,,,,,378.7844036000024,379.2799655000126,,,[],[],,,,,,,,,,,,None,None,,,,,,,,,,Telefon,kalt,"['Telefon', 'kalt']",restudy,3,,,,,,378.7843345000001,378.78437570000824,"['Socke', 'Buch', 'Würfel', 'Eimer', 'Kamera', 'Löffel', 'Bürste', 'Stift', 'Jacke', 'Blume', 'Tasse', 'Vase', 'Ring', 'Hut', 'Kiste', 'Telefon', 'Rucksack', 'Uhr', 'Brille', 'Kerze', 'Schere', 'Kette', 'Hammer', 'Lampe', 'Tasche', 'Flasche', 'Trommel', 'Schlüssel', 'Fahrrad', 'Geige']",379.279976100006,379.2828392000083,None,379.28296510000655,385.28469010000117,3,2.785436699996353,None,385.28498610001407,385.2875680000143,None,385.2876799000078,385.28888000000734,385.2888918000099,385.28992900000594,,,,,,,,,,,,,,,,,,,,,,,,,,,,,,,,,,,,,,,,,,,,,,,3,2024-01-18_11h10.50.190,watkins1,2023.2.3,99.69751772891392,95,2024-01-18 11h10.58.882222 +0000,
,,,,,,,,,,,16,0,16,0,,,,,,,,,,,,,385.29413330000534,,,,,,,,,,385.29021060001105,385.7863073000044,,,[],[],,,,,,,,,,,praktisch,None,None,,,,,,,,,,Rucksack,glänzend,"['Rucksack', 'glänzend']",test_adj,3,,,,,,385.29014570001164,385.29018390001147,"['Socke', 'Buch', 'Würfel', 'Eimer', 'Kamera', 'Löffel', 'Bürste', 'Stift', 'Jacke', 'Blume', 'Tasse', 'Vase', 'Ring', 'Hut', 'Kiste', 'Telefon', 'Rucksack', 'Uhr', 'Brille', 'Kerze', 'Schere', 'Kette', 'Hammer', 'Lampe', 'Tasche', 'Flasche', 'Trommel', 'Schlüssel', 'Fahrrad', 'Geige']",385.7863182000001,385.78930350000155,None,385.78942910001206,385.790914600002,None,,,385.7910220000049,385.79249790000904,None,385.7926066000073,391.7957948000112,391.7958085999999,391.7971700000053,0,,,,,,,,,,,,,,,,,,,,,,,,,,,,,,,,,,,,,,,,,,,,,,3,2024-01-18_11h10.50.190,watkins1,2023.2.3,99.69751772891392,95,2024-01-18 11h10.58.882222 +0000,
,,,,,,,,,,,17,0,17,0,,,,,,,,,,,,,391.8056054000044,,,,,,,,,,391.7974530000065,392.28769530000864,,,[],[],,,,,,,,,,,,None,None,,,,,,,,,,Uhr,zart,"['Uhr', 'zart']",restudy,3,,,,,,391.79738550000184,391.7974242000055,"['Socke', 'Buch', 'Würfel', 'Eimer', 'Kamera', 'Löffel', 'Bürste', 'Stift', 'Jacke', 'Blume', 'Tasse', 'Vase', 'Ring', 'Hut', 'Kiste', 'Telefon', 'Rucksack', 'Uhr', 'Brille', 'Kerze', 'Schere', 'Kette', 'Hammer', 'Lampe', 'Tasche', 'Flasche', 'Trommel', 'Schlüssel', 'Fahrrad', 'Geige']",392.28770660000737,392.2902982000087,None,392.29042710000067,398.29164810001384,1,1.6107500999933109,None,398.29194560000906,398.2943794000021,None,398.29449410000234,398.29584530000284,398.29585690000386,398.2970109000016,,,,,,,,,,,,,,,,,,,,,,,,,,,,,,,,,,,,,,,,,,,,,,,3,2024-01-18_11h10.50.190,watkins1,2023.2.3,99.69751772891392,95,2024-01-18 11h10.58.882222 +0000,
,,,,,,,,,,,18,0,18,0,,,,,,,,,,,,,398.30116620000626,,,,,,,,,,398.29729270000826,398.7934696000011,,,[],[],,,,,,,,,,,,None,None,,,,,,,,,,Brille,matt,"['Brille', 'matt']",restudy,3,,,,,,398.29722750000656,398.2972659000079,"['Socke', 'Buch', 'Würfel', 'Eimer', 'Kamera', 'Löffel', 'Bürste', 'Stift', 'Jacke', 'Blume', 'Tasse', 'Vase', 'Ring', 'Hut', 'Kiste', 'Telefon', 'Rucksack', 'Uhr', 'Brille', 'Kerze', 'Schere', 'Kette', 'Hammer', 'Lampe', 'Tasche', 'Flasche', 'Trommel', 'Schlüssel', 'Fahrrad', 'Geige']",398.7934804000106,398.7960177000059,None,398.7961423000088,404.797117500013,1,3.1846009000000777,None,404.7974308000121,404.7999615000008,None,404.80007290000503,404.80133780000324,404.80134970000654,404.80236510001123,,,,,,,,,,,,,,,,,,,,,,,,,,,,,,,,,,,,,,,,,,,,,,,3,2024-01-18_11h10.50.190,watkins1,2023.2.3,99.69751772891392,95,2024-01-18 11h10.58.882222 +0000,
,,,,,,,,,,,19,0,19,0,,,,,,,,,,,,,404.80659570000716,,,,,,,,,,404.80264510000416,405.29878160000953,,,[],[],,,,,,,,,,,biegsam,None,None,,,,,,,,,,Kerze,biegsam,"['Kerze', 'biegsam']",test_adj,3,,,,,,404.80258040000626,404.8026183000038,"['Socke', 'Buch', 'Würfel', 'Eimer', 'Kamera', 'Löffel', 'Bürste', 'Stift', 'Jacke', 'Blume', 'Tasse', 'Vase', 'Ring', 'Hut', 'Kiste', 'Telefon', 'Rucksack', 'Uhr', 'Brille', 'Kerze', 'Schere', 'Kette', 'Hammer', 'Lampe', 'Tasche', 'Flasche', 'Trommel', 'Schlüssel', 'Fahrrad', 'Geige']",405.2987931000098,405.30130620001,None,405.3014312000014,405.30285350000486,None,,,405.30296369999996,405.30437390001316,None,405.3044804000092,411.30651220001164,411.3065262000018,411.307924800014,0,,,,,,,,,,,,,,,,,,,,,,,,,,,,,,,,,,,,,,,,,,,,,,3,2024-01-18_11h10.50.190,watkins1,2023.2.3,99.69751772891392,95,2024-01-18 11h10.58.882222 +0000,
,,,,,,,,,,,20,0,20,0,,,,,,,,,,,,,411.31630340000265,,,,,,,,,,411.3082083000045,411.79863090001163,,,[],[],,,,,,,,,,,kaputt,None,None,,,,,,,,,,Schere,kaputt,"['Schere', 'kaputt']",test_adj,3,,,,,,411.30814080001437,411.3081796000042,"['Socke', 'Buch', 'Würfel', 'Eimer', 'Kamera', 'Löffel', 'Bürste', 'Stift', 'Jacke', 'Blume', 'Tasse', 'Vase', 'Ring', 'Hut', 'Kiste', 'Telefon', 'Rucksack', 'Uhr', 'Brille', 'Kerze', 'Schere', 'Kette', 'Hammer', 'Lampe', 'Tasche', 'Flasche', 'Trommel', 'Schlüssel', 'Fahrrad', 'Geige']",411.79864200000884,411.8013546000002,None,411.8014792000031,411.8040325000038,None,,,411.80414290000044,411.8066880000115,None,411.8067951000121,417.81208160000097,417.81209570000647,417.8134110000101,0,,,,,,,,,,,,,,,,,,,,,,,,,,,,,,,,,,,,,,,,,,,,,,3,2024-01-18_11h10.50.190,watkins1,2023.2.3,99.69751772891392,95,2024-01-18 11h10.58.882222 +0000,
,,,,,,,,,,,21,0,21,0,,,,,,,,,,,,,417.8227767000062,,,,,,,,,,417.8137021000002,418.3039262000093,,,[],[],,,,,,,,,,,,None,None,,,,,,,,,,Kette,nachhaltig,"['Kette', 'nachhaltig']",restudy,3,,,,,,417.813633200014,417.8136729000107,"['Socke', 'Buch', 'Würfel', 'Eimer', 'Kamera', 'Löffel', 'Bürste', 'Stift', 'Jacke', 'Blume', 'Tasse', 'Vase', 'Ring', 'Hut', 'Kiste', 'Telefon', 'Rucksack', 'Uhr', 'Brille', 'Kerze', 'Schere', 'Kette', 'Hammer', 'Lampe', 'Tasche', 'Flasche', 'Trommel', 'Schlüssel', 'Fahrrad', 'Geige']",418.3039366000012,418.30664180000895,None,418.3067674000049,424.31504900001164,1,1.8896922999992967,None,424.3153452000115,424.31810780000524,None,424.31822070000635,424.31969010000466,424.31970200000796,424.3209590000042,,,,,,,,,,,,,,,,,,,,,,,,,,,,,,,,,,,,,,,,,,,,,,,3,2024-01-18_11h10.50.190,watkins1,2023.2.3,99.69751772891392,95,2024-01-18 11h10.58.882222 +0000,
,,,,,,,,,,,22,0,22,0,,,,,,,,,,,,,424.32456620001176,,,,,,,,,,424.32124300001306,424.81667710001057,,,[],[],,,,,,,,,,,teuer,None,None,,,,,,,,,,Hammer,teuer,"['Hammer', 'teuer']",test_adj,3,,,,,,424.32117730000755,424.3212157000089,"['Socke', 'Buch', 'Würfel', 'Eimer', 'Kamera', 'Löffel', 'Bürste', 'Stift', 'Jacke', 'Blume', 'Tasse', 'Vase', 'Ring', 'Hut', 'Kiste', 'Telefon', 'Rucksack', 'Uhr', 'Brille', 'Kerze', 'Schere', 'Kette', 'Hammer', 'Lampe', 'Tasche', 'Flasche', 'Trommel', 'Schlüssel', 'Fahrrad', 'Geige']",424.81668850001006,424.8194514000061,None,424.81957630001125,424.8210126000049,None,,,424.82112060001236,424.8227220000117,None,424.82283020000614,430.831646000006,430.831660300013,430.8329706000077,0,,,,,,,,,,,,,,,,,,,,,,,,,,,,,,,,,,,,,,,,,,,,,,3,2024-01-18_11h10.50.190,watkins1,2023.2.3,99.69751772891392,95,2024-01-18 11h10.58.882222 +0000,
,,,,,,,,,,,23,0,23,0,,,,,,,,,,,,,430.8414160000102,,,,,,,,,,430.8332575000095,431.32361310000124,,,[],[],,,,,,,,,,,schwer,None,None,,,,,,,,,,Lampe,schwer,"['Lampe', 'schwer']",test_adj,3,,,,,,430.8331899000041,430.8332286000077,"['Socke', 'Buch', 'Würfel', 'Eimer', 'Kamera', 'Löffel', 'Bürste', 'Stift', 'Jacke', 'Blume', 'Tasse', 'Vase', 'Ring', 'Hut', 'Kiste', 'Telefon', 'Rucksack', 'Uhr', 'Brille', 'Kerze', 'Schere', 'Kette', 'Hammer', 'Lampe', 'Tasche', 'Flasche', 'Trommel', 'Schlüssel', 'Fahrrad', 'Geige']",431.32362330000615,431.3263835000107,None,431.32650800001284,431.3289769000112,None,,,431.3290859000117,431.33155770000303,None,431.3316660000128,437.3364822000003,437.336495800002,437.3377882000059,0,,,,,,,,,,,,,,,,,,,,,,,,,,,,,,,,,,,,,,,,,,,,,,3,2024-01-18_11h10.50.190,watkins1,2023.2.3,99.69751772891392,95,2024-01-18 11h10.58.882222 +0000,
,,,,,,,,,,,24,0,24,0,,,,,,,,,,,,,437.346371800013,,,,,,,,,,437.3380676000088,437.8282681000128,,,[],[],,,,,,,,,,,,None,None,,,,,,,,,,Tasche,lustig,"['Tasche', 'lustig']",restudy,3,,,,,,437.338001000011,437.33803940001235,"['Socke', 'Buch', 'Würfel', 'Eimer', 'Kamera', 'Löffel', 'Bürste', 'Stift', 'Jacke', 'Blume', 'Tasse', 'Vase', 'Ring', 'Hut', 'Kiste', 'Telefon', 'Rucksack', 'Uhr', 'Brille', 'Kerze', 'Schere', 'Kette', 'Hammer', 'Lampe', 'Tasche', 'Flasche', 'Trommel', 'Schlüssel', 'Fahrrad', 'Geige']",437.8282794000115,437.83098410000093,None,437.8311071000062,443.8341032000026,1,2.0375785999931395,None,443.8344063000113,443.83716060000006,None,443.8372756000026,443.8387831,443.83879490000254,443.83998110001266,,,,,,,,,,,,,,,,,,,,,,,,,,,,,,,,,,,,,,,,,,,,,,,3,2024-01-18_11h10.50.190,watkins1,2023.2.3,99.69751772891392,95,2024-01-18 11h10.58.882222 +0000,
,,,,,,,,,,,25,0,25,0,,,,,,,,,,,,,443.84353750001173,,,,,,,,,,443.8402649000054,444.33601310000813,,,[],[],,,,,,,,,,,dunkel,None,None,,,,,,,,,,Flasche,dunkel,"['Flasche', 'dunkel']",test_adj,3,,,,,,443.8402003000083,443.8402383000066,"['Socke', 'Buch', 'Würfel', 'Eimer', 'Kamera', 'Löffel', 'Bürste', 'Stift', 'Jacke', 'Blume', 'Tasse', 'Vase', 'Ring', 'Hut', 'Kiste', 'Telefon', 'Rucksack', 'Uhr', 'Brille', 'Kerze', 'Schere', 'Kette', 'Hammer', 'Lampe', 'Tasche', 'Flasche', 'Trommel', 'Schlüssel', 'Fahrrad', 'Geige']",444.33602440000686,444.3387580000126,None,444.3388837000093,444.3403410000028,None,,,444.34044900001027,444.3419001000002,None,444.3420107000129,450.34451760000957,450.3445318000013,450.3459293000051,0,,,,,,,,,,,,,,,,,,,,,,,,,,,,,,,,,,,,,,,,,,,,,,3,2024-01-18_11h10.50.190,watkins1,2023.2.3,99.69751772891392,95,2024-01-18 11h10.58.882222 +0000,
,,,,,,,,,,,26,0,26,0,,,,,,,,,,,,,450.3543223000015,,,,,,,,,,450.3462181000068,450.83629860001383,,,[],[],,,,,,,,,,,,None,None,,,,,,,,,,Trommel,lang,"['Trommel', 'lang']",restudy,3,,,,,,450.34615000001213,450.346189200005,"['Socke', 'Buch', 'Würfel', 'Eimer', 'Kamera', 'Löffel', 'Bürste', 'Stift', 'Jacke', 'Blume', 'Tasse', 'Vase', 'Ring', 'Hut', 'Kiste', 'Telefon', 'Rucksack', 'Uhr', 'Brille', 'Kerze', 'Schere', 'Kette', 'Hammer', 'Lampe', 'Tasche', 'Flasche', 'Trommel', 'Schlüssel', 'Fahrrad', 'Geige']",450.83630970001104,450.8390252000099,None,450.83915230000275,456.8412160000007,1,1.7255759999970905,None,456.8415146000043,456.8441196000058,None,456.8442326000077,456.84575620001124,456.84576820000075,456.8468011000077,,,,,,,,,,,,,,,,,,,,,,,,,,,,,,,,,,,,,,,,,,,,,,,3,2024-01-18_11h10.50.190,watkins1,2023.2.3,99.69751772891392,95,2024-01-18 11h10.58.882222 +0000,
,,,,,,,,,,,27,0,27,0,,,,,,,,,,,,,456.85065130000294,,,,,,,,,,456.8470803000091,457.3427989000047,,,[],[],,,,,,,,,,,,None,None,,,,,,,,,,Schlüssel,hübsch,"['Schlüssel', 'hübsch']",restudy,3,,,,,,456.8470166000043,456.8470539000118,"['Socke', 'Buch', 'Würfel', 'Eimer', 'Kamera', 'Löffel', 'Bürste', 'Stift', 'Jacke', 'Blume', 'Tasse', 'Vase', 'Ring', 'Hut', 'Kiste', 'Telefon', 'Rucksack', 'Uhr', 'Brille', 'Kerze', 'Schere', 'Kette', 'Hammer', 'Lampe', 'Tasche', 'Flasche', 'Trommel', 'Schlüssel', 'Fahrrad', 'Geige']",457.34281040000496,457.3454446000105,None,457.3455706000095,463.3474758000084,1,1.874572700005956,None,463.3477752000035,463.3505613000016,None,463.3506761000026,463.35192300000926,463.3519348000118,463.3531143,,,,,,,,,,,,,,,,,,,,,,,,,,,,,,,,,,,,,,,,,,,,,,,3,2024-01-18_11h10.50.190,watkins1,2023.2.3,99.69751772891392,95,2024-01-18 11h10.58.882222 +0000,
,,,,,,,,,,,28,0,28,0,,,,,,,,,,,,,463.35699460000615,,,,,,,,,,463.3533967000112,463.849251800013,,,[],[],,,,,,,,,,,,None,None,,,,,,,,,,Fahrrad,neu,"['Fahrrad', 'neu']",restudy,3,,,,,,463.353331300008,463.35336970000935,"['Socke', 'Buch', 'Würfel', 'Eimer', 'Kamera', 'Löffel', 'Bürste', 'Stift', 'Jacke', 'Blume', 'Tasse', 'Vase', 'Ring', 'Hut', 'Kiste', 'Telefon', 'Rucksack', 'Uhr', 'Brille', 'Kerze', 'Schere', 'Kette', 'Hammer', 'Lampe', 'Tasche', 'Flasche', 'Trommel', 'Schlüssel', 'Fahrrad', 'Geige']",463.84926330001326,463.85217650000413,None,463.85230540001066,469.8546994000062,2,2.0162120000022696,None,469.8550038000103,469.8575385000004,None,469.8576497000031,469.8588347000041,469.8588465000066,469.85984870001266,,,,,,,,,,,,,,,,,,,,,,,,,,,,,,,,,,,,,,,,,,,,,,,3,2024-01-18_11h10.50.190,watkins1,2023.2.3,99.69751772891392,95,2024-01-18 11h10.58.882222 +0000,
,,,,,,,,,,,29,0,29,0,,,,,,,,,,,,,469.8641738000006,,,,,,,,,,469.860128100001,470.3562719000038,,,[],[],,,,,,,,,,,ho,None,None,,,,,,,,,,Geige,dick,"['Geige', 'dick']",test_adj,3,,,,,,469.8600628000131,469.8601011999999,"['Socke', 'Buch', 'Würfel', 'Eimer', 'Kamera', 'Löffel', 'Bürste', 'Stift', 'Jacke', 'Blume', 'Tasse', 'Vase', 'Ring', 'Hut', 'Kiste', 'Telefon', 'Rucksack', 'Uhr', 'Brille', 'Kerze', 'Schere', 'Kette', 'Hammer', 'Lampe', 'Tasche', 'Flasche', 'Trommel', 'Schlüssel', 'Fahrrad', 'Geige']",470.35628310000175,470.35892110000714,None,470.35904560000927,470.36045380000724,None,,,470.36056040000403,470.3619839000021,None,470.3620912000042,476.3644120000099,476.3644263000024,476.3655282000109,0,,,,,,,,,,,,,,,,,,,,,,,,,,,,,,,,,,,,,,,,,,,,,,3,2024-01-18_11h10.50.190,watkins1,2023.2.3,99.69751772891392,95,2024-01-18 11h10.58.882222 +0000,
,,,,,,,,,,,,,,,,,,,,,,,,,,,,,,,,,,,,,,,,,,,,,,,,,,,,,,,,,,,,,,,,,,,,,3,,,,,,,,,,,,,,,,,,,,,,,,,,,,,,,,,,,,,,,,,,,,,,,,,,,,,,,,,,,,,,,,,,,,,,3,2024-01-18_11h10.50.190,watkins1,2023.2.3,99.69751772891392,95,2024-01-18 11h10.58.882222 +0000,
(4 : 2) + 4 = 6 ,Correct,button_correct,,,,,,,,,,,,,0,0,0,1,,,,,,,,,496.1569628000143,,,,,,,,495.11658010000247,496.1200051000051,,,,,['button_correct'],[3.2049472000071546],,,,,,,,,,,,,,,,,,,,,,,,,,distractorTask,3,,,,,,,,,,,,,,,,,,,,,,,,,496.1468159000069,496.1569628000143,499.35583600000245,[0.3111111111111111],[-0.41388888888888886],[1],[0],[0],[3.2049472000071546],['button_correct'],499.3565252000117,500.3592450000142,,,,,,,,,,,,,,,,,,,,,,,,,,,,,,,,,,3,2024-01-18_11h10.50.190,watkins1,2023.2.3,99.69751772891392,95,2024-01-18 11h10.58.882222 +0000,
(2 x 5) + 3 = 13 ,Correct,button_correct,,,,,,,,,,,,,0,1,1,2,,,,,,,,,500.36933880001015,,,,,,,,,,,,,,['button_correct'],[2.2465789999987464],,,,,,,,,,,,,,,,,,,,,,,,,,distractorTask,3,,,,,,,,,,,,,,,,,,,,,,,,,500.359454800011,500.36933880001015,502.60936570000194,[0.34074074074074073],[-0.39537037037037037],[1],[0],[0],[2.2465789999987464],['button_correct'],502.6097456000134,503.6128951999999,,,,,,,,,,,,,,,,,,,,,,,,,,,,,,,,,,3,2024-01-18_11h10.50.190,watkins1,2023.2.3,99.69751772891392,95,2024-01-18 11h10.58.882222 +0000,
(40 : 5) + 8 = 15 ,Incorrect,button_incorrect,,,,,,,,,,,,,0,2,2,7,,,,,,,,,503.6228739000071,,,,,,,,,,,,,,['button_incorrect'],[7.69909190000908],,,,,,,,,,,,,,,,,,,,,,,,,,distractorTask,3,,,,,,,,,,,,,,,,,,,,,,,,,503.6130886000028,503.6228739000071,511.31533780001337,[-0.3527777777777778],[-0.4046296296296296],[1],[0],[0],[7.69909190000908],['button_incorrect'],511.31572400000005,512.3188085000002,,,,,,,,,,,,,,,,,,,,,,,,,,,,,,,,,,3,2024-01-18_11h10.50.190,watkins1,2023.2.3,99.69751772891392,95,2024-01-18 11h10.58.882222 +0000,
(54 : 6) - 10 = 0 ,Incorrect,button_incorrect,,,,,,,,,,,,,0,3,3,5,,,,,,,,,512.3288890000113,,,,,,,,,,,,,,['button_incorrect'],[4.636845999993966],,,,,,,,,,,,,,,,,,,,,,,,,,distractorTask,3,,,,,,,,,,,,,,,,,,,,,,,,,512.3189977000002,512.3288890000113,516.9582647000061,[-0.35555555555555557],[-0.3972222222222222],[1],[0],[0],[4.636845999993966],['button_incorrect'],516.9586432000069,517.961967700001,,,,,,,,,,,,,,,,,,,,,,,,,,,,,,,,,,3,2024-01-18_11h10.50.190,watkins1,2023.2.3,99.69751772891392,95,2024-01-18 11h10.58.882222 +0000,
(7 x 6) + 9 = 48 ,Incorrect,button_incorrect,,,,,,,,,,,,,0,4,4,9,,,,,,,,,517.9719243,,,,,,,,,,,,,,['button_incorrect'],[7.548659799998859],,,,,,,,,,,,,,,,,,,,,,,,,,distractorTask,3,,,,,,,,,,,,,,,,,,,,,,,,,517.9621582000109,517.9719243,525.5139479000063,[-0.3472222222222222],[-0.39166666666666666],[1],[0],[0],[7.548659799998859],['button_incorrect'],525.5143280000048,526.5174553000106,,,,,,,,,,,,,,,,,,,,,,,,,,,,,,,,,,3,2024-01-18_11h10.50.190,watkins1,2023.2.3,99.69751772891392,95,2024-01-18 11h10.58.882222 +0000,
(80 : 10) + 9 = 17 ,Correct,button_correct,,,,,,,,,,,,,0,5,5,3,,,,,,,,,526.5275358000072,,,,,,,,,,,,,,['button_correct'],[4.2253143999987515],,,,,,,,,,,,,,,,,,,,,,,,,,distractorTask,3,,,,,,,,,,,,,,,,,,,,,,,,,526.5176522000111,526.5275358000072,530.7448423000023,[0.38333333333333336],[-0.4111111111111111],[1],[0],[0],[4.2253143999987515],['button_correct'],530.7452310000081,531.7487831000035,,,,,,,,,,,,,,,,,,,,,,,,,,,,,,,,,,3,2024-01-18_11h10.50.190,watkins1,2023.2.3,99.69751772891392,95,2024-01-18 11h10.58.882222 +0000,
(6 x 3) + 10 = 27 ,Incorrect,button_incorrect,,,,,,,,,,,,,0,6,6,8,,,,,,,,,531.7588720000058,,,,,,,,,,,,,,['button_incorrect'],[2.699615999998059],,,,,,,,,,,,,,,,,,,,,,,,,,distractorTask,3,,,,,,,,,,,,,,,,,,,,,,,,,531.748974400005,531.7588720000058,534.4503278000047,[-0.3861111111111111],[-0.39166666666666666],[1],[0],[0],[2.699615999998059],['button_incorrect'],534.4507047000079,535.4537400000117,,,,,,,,,,,,,,,,,,,,,,,,,,,,,,,,,,3,2024-01-18_11h10.50.190,watkins1,2023.2.3,99.69751772891392,95,2024-01-18 11h10.58.882222 +0000,
(28 : 7) - 3 = 1 ,Correct,button_correct,,,,,,,,,,,,,0,7,7,0,,,,,,,,,535.4636624000123,,,,,,,,,,,,,,['button_correct'],[5.260570099999313],,,,,,,,,,,,,,,,,,,,,,,,,,distractorTask,3,,,,,,,,,,,,,,,,,,,,,,,,,535.4539312000124,535.4636624000123,540.716386,[0.3990740740740741],[-0.40555555555555556],[1],[0],[0],[5.260570099999313],['button_correct'],540.7167707000044,541.7199213000131,,,,,,,,,,,,,,,,,,,,,,,,,,,,,,,,,,3,2024-01-18_11h10.50.190,watkins1,2023.2.3,99.69751772891392,95,2024-01-18 11h10.58.882222 +0000,
(9 x 5) - 9 = 36 ,Correct,button_correct,,,,,,,,,,,,,0,8,8,4,,,,,,,,,541.7298825000034,,,,,,,,,,,,,,['button_correct'],[8.011081000004197],,,,,,,,,,,,,,,,,,,,,,,,,,distractorTask,3,,,,,,,,,,,,,,,,,,,,,,,,,541.7201103000116,541.7298825000034,549.7329019000026,[0.33240740740740743],[-0.41388888888888886],[1],[0],[0],[8.011081000004197],['button_correct'],549.733284300004,550.736390200007,,,,,,,,,,,,,,,,,,,,,,,,,,,,,,,,,,3,2024-01-18_11h10.50.190,watkins1,2023.2.3,99.69751772891392,95,2024-01-18 11h10.58.882222 +0000,
(25 : 5) + 5 = 9 ,Incorrect,button_incorrect,,,,,,,,,,,,,0,9,9,6,,,,,,,,,550.7463149000105,,,,,,,,,,,,,,['button_incorrect'],[2.6893932999955723],,,,,,,,,,,,,,,,,,,,,,,,,,distractorTask,3,,,,,,,,,,,,,,,,,,,,,,,,,550.7365787000017,550.7463149000105,553.4277106000081,[-0.4074074074074074],[-0.4212962962962963],[1],[0],[0],[2.6893932999955723],['button_incorrect'],553.4280898000143,554.4314144000091,,,,,,,,,,,,,,,,,,,,,,,,,,,,,,,,,,3,2024-01-18_11h10.50.190,watkins1,2023.2.3,99.69751772891392,95,2024-01-18 11h10.58.882222 +0000,
,,,,,,,,,,,,,,,,,,,,,,,,,,,,,,,,,,,,,,,,,,,,,,,,,,,,,,,,,,,,,,,,,,,,,3,,,,,,,,,,,,,,,,,,,,,,,,,,,,,,,,,,,,,,,,,,,,,,,,,,,,,,,,,,,,,,,,,,,,,,3,2024-01-18_11h10.50.190,watkins1,2023.2.3,99.69751772891392,95,2024-01-18 11h10.58.882222 +0000,
,,,,,,,,,,,,,,,,,,,0,0,0,0,,,,,572.4429444000125,,,,,,,,,,,,,,Hut,14.40600540000014,,,,,,,,,,,,6.9666189999989,None,,,,,,,,,,,,,freeRecallSub,3,,,,,,,,,,,,,,,,,,,,,,,,,,,,,,,,,,,,,572.4356385000137,572.4429444000125,572.4429444000125,586.8520480000007,return,14.40600540000014,None,Hut,[0.014814814814814815],[0.04814814814814815],[1],[0],[0],[6.122530100008589],[],,,,,,,,,,,,,,,,,,,3,2024-01-18_11h10.50.190,watkins1,2023.2.3,99.69751772891392,95,2024-01-18 11h10.58.882222 +0000,
,,,,,,,,,,,,,,,,,,,1,0,1,0,,,,,586.8640194000036,,,,,,,,,,,,,,Geige,3.544842299990705,,,,,,,,,,,,1.9800073000078555,None,,,,,,,,,,,,,freeRecallSub,3,,,,,,,,,,,,,,,,,,,,,,,,,,,,,,,,,,,,,586.8538676000026,586.8640194000036,586.8640194000036,590.4102296000056,return,3.544842299990705,None,Geige,[],[],[],[],[],[],[],,,,,,,,,,,,,,,,,,,3,2024-01-18_11h10.50.190,watkins1,2023.2.3,99.69751772891392,95,2024-01-18 11h10.58.882222 +0000,
,,,,,,,,,,,,,,,,,,,2,0,2,0,,,,,590.4209044000017,,,,,,,,,,,,,,Brille,1.48382870000205,,,,,,,,,,,,0.39152379998995457,None,,,,,,,,,,,,,freeRecallSub,3,,,,,,,,,,,,,,,,,,,,,,,,,,,,,,,,,,,,,590.4114750000008,590.4209044000017,590.4209044000017,591.9077591000096,return,1.48382870000205,None,Brille,[],[],[],[],[],[],[],,,,,,,,,,,,,,,,,,,3,2024-01-18_11h10.50.190,watkins1,2023.2.3,99.69751772891392,95,2024-01-18 11h10.58.882222 +0000,
,,,,,,,,,,,,,,,,,,,3,0,3,0,,,,,591.9182345000008,,,,,,,,,,,,,,Kette,5.354688899999019,,,,,,,,,,,,2.2284749999962514,None,,,,,,,,,,,,,freeRecallSub,3,,,,,,,,,,,,,,,,,,,,,,,,,,,,,,,,,,,,,591.9090079000016,591.9182345000008,591.9182345000008,597.2803213000007,return,5.354688899999019,None,Kette,[],[],[],[],[],[],[],,,,,,,,,,,,,,,,,,,3,2024-01-18_11h10.50.190,watkins1,2023.2.3,99.69751772891392,95,2024-01-18 11h10.58.882222 +0000,
,,,,,,,,,,,,,,,,,,,4,0,4,0,,,,,597.2908870000101,,,,,,,,,,,,,,Fahrrad,2.461941699992167,,,,,,,,,,,,0.621862300002249,None,,,,,,,,,,,,,freeRecallSub,3,,,,,,,,,,,,,,,,,,,,,,,,,,,,,,,,,,,,,597.2815697000042,597.2908870000101,597.2908870000101,599.761038800003,return,2.461941699992167,None,Fahrrad,[],[],[],[],[],[],[],,,,,,,,,,,,,,,,,,,3,2024-01-18_11h10.50.190,watkins1,2023.2.3,99.69751772891392,95,2024-01-18 11h10.58.882222 +0000,
,,,,,,,,,,,,,,,,,,,5,0,5,0,,,,,599.7725344000064,,,,,,,,,,,,,,Hund,4.85248450000654,,,,,,,,,,,,2.511600099998759,3.8068892000010237,,,,,,,,,,,,,freeRecallSub,3,,,,,,,,,,,,,,,,,,,,,,,,,,,,,,,,,,,,,599.7622848000028,599.7725344000064,599.7725344000064,604.6334721000021,return,4.85248450000654,None,Hund,[],[],[],[],[],[],[],,,,,,,,,,,,,,,,,,,3,2024-01-18_11h10.50.190,watkins1,2023.2.3,99.69751772891392,95,2024-01-18 11h10.58.882222 +0000,
,,,,,,,,,,,,,,,,,,,6,0,6,0,,,,,604.644569600001,,,,,,,,,,,,,,Katze,2.3963045999989845,,,,,,,,,,,,1.4163235000014538,None,,,,,,,,,,,,,freeRecallSub,3,,,,,,,,,,,,,,,,,,,,,,,,,,,,,,,,,,,,,604.6346914000023,604.644569600001,604.644569600001,607.0451886000083,return,2.3963045999989845,None,Katze,[],[],[],[],[],[],[],,,,,,,,,,,,,,,,,,,3,2024-01-18_11h10.50.190,watkins1,2023.2.3,99.69751772891392,95,2024-01-18 11h10.58.882222 +0000,
,,,,,,,,,,,,,,,,,,,7,0,7,0,,,,,607.0565343000053,,,,,,,,,,,,,,Jacke,3.4643729999952484,,,,,,,,,,,,1.6579544999985956,None,,,,,,,,,,,,,freeRecallSub,3,,,,,,,,,,,,,,,,,,,,,,,,,,,,,,,,,,,,,607.0464060000086,607.0565343000053,607.0565343000053,610.5218693000061,return,3.4643729999952484,None,Jacke,[],[],[],[],[],[],[],,,,,,,,,,,,,,,,,,,3,2024-01-18_11h10.50.190,watkins1,2023.2.3,99.69751772891392,95,2024-01-18 11h10.58.882222 +0000,
,,,,,,,,,,,,,,,,,,,8,0,8,0,,,,,610.5338127000141,,,,,,,,,,,,,,Ring,7.307074299998931,,,,,,,,,,,,6.1371628000051714,None,,,,,,,,,,,,,freeRecallSub,3,,,,,,,,,,,,,,,,,,,,,,,,,,,,,,,,,,,,,610.5231157000089,610.5338127000141,610.5338127000141,617.8451724000042,return,7.307074299998931,None,Ring,[],[],[],[],[],[],[],,,,,,,,,,,,,,,,,,,3,2024-01-18_11h10.50.190,watkins1,2023.2.3,99.69751772891392,95,2024-01-18 11h10.58.882222 +0000,
,,,,,,,,,,,,,,,,,,,9,0,9,0,,,,,617.8568791000143,,,,,,,,,,,,,,Telefon,13.824058899990632,,,,,,,,,,,,0.5238676000008127,None,,,,,,,,,,,,,freeRecallSub,3,,,,,,,,,,,,,,,,,,,,,,,,,,,,,,,,,,,,,617.8464129000058,617.8568791000143,617.8568791000143,631.6846414000029,return,13.824058899990632,None,Telefon,[],[],[],[],[],[],[],,,,,,,,,,,,,,,,,,,3,2024-01-18_11h10.50.190,watkins1,2023.2.3,99.69751772891392,95,2024-01-18 11h10.58.882222 +0000,
,,,,,,,,,,,,,,,,,,,10,0,10,0,,,,,631.6968467000115,,,,,,,,,,,,,,Schlüssel,31.440115500008687,,,,,,,,,,,,29.412088199998834,None,,,,,,,,,,,,,freeRecallSub,3,,,,,,,,,,,,,,,,,,,,,,,,,,,,,,,,,,,,,631.6858628000045,631.6968467000115,631.6968467000115,663.1461971000099,return,31.440115500008687,None,Schlüssel,[],[],[],[],[],[],[],,,,,,,,,,,,,,,,,,,3,2024-01-18_11h10.50.190,watkins1,2023.2.3,99.69751772891392,95,2024-01-18 11h10.58.882222 +0000,
,,,,,,,,,,,,,,,,,,,11,0,11,0,,,,,663.1588334000116,,,,,,,,,,,,,,Hammer,9.986106199998176,,,,,,,,,,,,8.59787560001132,None,,,,,,,,,,,,,freeRecallSub,3,,,,,,,,,,,,,,,,,,,,,,,,,,,,,,,,,,,,,663.1474580000067,663.1588334000116,663.1588334000116,673.1512685000052,return,9.986106199998176,None,Hammer,[],[],[],[],[],[],[],,,,,,,,,,,,,,,,,,,3,2024-01-18_11h10.50.190,watkins1,2023.2.3,99.69751772891392,95,2024-01-18 11h10.58.882222 +0000,
,,,,,,,,,,,,,,,,,,,12,0,12,0,,,,,673.1640901000064,,,,,,,,,,,,,,Lampe,3.4528780999971787,,,,,,,,,,,,1.8314451999904122,None,,,,,,,,,,,,,freeRecallSub,3,,,,,,,,,,,,,,,,,,,,,,,,,,,,,,,,,,,,,673.1525190000102,673.1640901000064,673.1640901000064,676.6206864000123,return,3.4528780999971787,None,Lampe,[],[],[],[],[],[],[],,,,,,,,,,,,,,,,,,,3,2024-01-18_11h10.50.190,watkins1,2023.2.3,99.69751772891392,95,2024-01-18 11h10.58.882222 +0000,
,,,,,,,,,,,,,,,,,,,13,0,13,0,,,,,676.6336411000084,,,,,,,,,,,,,,Löffel,9.591256200001226,,,,,,,,,,,,7.916379600006621,None,,,,,,,,,,,,,freeRecallSub,3,,,,,,,,,,,,,,,,,,,,,,,,,,,,,,,,,,,,,676.621919600002,676.6336411000084,676.6336411000084,686.2253625000012,return,9.591256200001226,None,Löffel,[],[],[],[],[],[],[],,,,,,,,,,,,,,,,,,,3,2024-01-18_11h10.50.190,watkins1,2023.2.3,99.69751772891392,95,2024-01-18 11h10.58.882222 +0000,
,,,,,,,,,,,,,,,,,,,14,0,14,0,,,,,686.2385364000074,,,,,,,,,,,,,,,[],,,,,,,,,,,,None,None,,,,,,,,,,,,,freeRecallSub,3,,,,,,,,,,,,,,,,,,,,,,,,,,,,,,,,,,,,,686.226573900014,686.2385364000074,686.2385364000074,704.0144321000116,None,,,,"[0.35462962962962963, 0.3574074074074074]","[-0.425, -0.41203703703703703]","[1, 1]","[0, 0]","[0, 0]","[17.28999130000011, 17.782123700002558]","['button_continue', 'continue_text']",,,,,,,,,,,,,,,,,,,3,2024-01-18_11h10.50.190,watkins1,2023.2.3,99.69751772891392,95,2024-01-18 11h10.58.882222 +0000,
,,,,,,,,,,,,,,,,,,,,,,,,,,,,,,,,,,,,,,,,,,,,,,,,,,,,,,,,,,,,,,,,,,,,,3,,,,,,,,,,,,,,,,,,,,,,,,,,,,,,,,,,,,,,,,,,,,,,,,,,,,,,,,,,,,,,,,,,,,,,3,2024-01-18_11h10.50.190,watkins1,2023.2.3,99.69751772891392,95,2024-01-18 11h10.58.882222 +0000,
,,,,,,,,,,,,,,,,,,,,,,,0,0,0,0,715.5317464000109,,,,,,,,,,742.6459077000036,743.1353368000127,,,,27.109267100007855,,,,,,,,,,,,None,None,,,,,,,,,,Tasche,,,cuedRecallAdj,3,,,,,,,,,,,,,,,,,,,,,,,,0,,,,,,,,,,,,,,,,,,,,,,,,,,,,715.5227564000088,715.5317464000109,715.5317464000109,742.6438060000073,,return,27.109267100007855,None,742.6441951000015,742.6533352000115,742.6533352000115,742.645760200001,,None,,,,,3,2024-01-18_11h10.50.190,watkins1,2023.2.3,99.69751772891392,95,2024-01-18 11h10.58.882222 +0000,
,,,,,,,,,,,,,,,,,,,,,,,1,0,1,0,743.1452927000064,,,,,,,,,,748.1489280000096,748.6477552000142,,,,4.991669800001546,,,,,,,,,,,,None,None,,,,,,,,,,Bürste,,,cuedRecallAdj,3,,,,,,,,,,,,,,,,,,,,,,,,0,,,,,,,,,,,,,,,,,,,,,,,,,,,,743.1355786000058,743.1452927000064,743.1452927000064,748.1459541000077,rustikal,return,4.991669800001546,None,748.1462112000008,748.1556429000048,748.1556429000048,748.1488283000072,,None,,,,,3,2024-01-18_11h10.50.190,watkins1,2023.2.3,99.69751772891392,95,2024-01-18 11h10.58.882222 +0000,
,,,,,,,,,,,,,,,,,,,,,,,2,0,2,0,748.6576978000085,,,,,,,,,,754.0929759000137,754.5919650000142,,,,5.423277900001267,,,,,,,,,,,,None,None,,,,,,,,,,Trommel,,,cuedRecallAdj,3,,,,,,,,,,,,,,,,,,,,,,,,0,,,,,,,,,,,,,,,,,,,,,,,,,,,,748.6479999000003,748.6576978000085,748.6576978000085,754.0900555000117,hohl,return,5.423277900001267,None,754.0903207000083,754.0998248000105,754.0998248000105,754.0928744000121,,None,,,,,3,2024-01-18_11h10.50.190,watkins1,2023.2.3,99.69751772891392,95,2024-01-18 11h10.58.882222 +0000,
,,,,,,,,,,,,,,,,,,,,,,,3,0,3,0,754.6019869000011,,,,,,,,,,756.7844347000064,757.2830410000024,,,,2.1750241000117967,,,,,,,,,,,,None,None,,,,,,,,,,Geige,,,cuedRecallAdj,3,,,,,,,,,,,,,,,,,,,,,,,,0,,,,,,,,,,,,,,,,,,,,,,,,,,,,754.5922101000033,754.6019869000011,754.6019869000011,756.7814159000118,hoch,return,2.1750241000117967,None,756.7817004000099,756.7909967000014,756.7909967000014,756.7843253000028,,None,,,,,3,2024-01-18_11h10.50.190,watkins1,2023.2.3,99.69751772891392,95,2024-01-18 11h10.58.882222 +0000,
,,,,,,,,,,,,,,,,,,,,,,,4,0,4,0,757.2929332000058,,,,,,,,,,762.9090435000107,763.4077593000111,,,,5.612041800006409,,,,,,,,,,,,None,None,,,,,,,,,,Uhr,,,cuedRecallAdj,3,,,,,,,,,,,,,,,,,,,,,,,,0,,,,,,,,,,,,,,,,,,,,,,,,,,,,757.2832861000061,757.2929332000058,757.2929332000058,762.906320500013,zart,return,5.612041800006409,None,762.9065777000069,762.9159302000044,762.9159302000044,762.9089130000066,,None,,,,,3,2024-01-18_11h10.50.190,watkins1,2023.2.3,99.69751772891392,95,2024-01-18 11h10.58.882222 +0000,
,,,,,,,,,,,,,,,,,,,,,,,5,0,5,0,763.4177544000122,,,,,,,,,,766.0620636000094,766.5607168000133,,,,2.631121600003098,,,,,,,,,,,,None,None,,,,,,,,,,Flasche,,,cuedRecallAdj,3,,,,,,,,,,,,,,,,,,,,,,,,0,,,,,,,,,,,,,,,,,,,,,,,,,,,,763.4080035000079,763.4177544000122,763.4177544000122,766.0588801000122,dunkel,return,2.631121600003098,None,766.0591428000043,766.0685707000084,766.0685707000084,766.0619621000078,,None,,,,,3,2024-01-18_11h10.50.190,watkins1,2023.2.3,99.69751772891392,95,2024-01-18 11h10.58.882222 +0000,
,,,,,,,,,,,,,,,,,,,,,,,6,0,6,0,766.5706585000007,,,,,,,,,,769.1949476000009,769.6933907000057,,,,2.614284100010991,,,,,,,,,,,,None,None,,,,,,,,,,Lampe,,,cuedRecallAdj,3,,,,,,,,,,,,,,,,,,,,,,,,0,,,,,,,,,,,,,,,,,,,,,,,,,,,,766.5609580000018,766.5706585000007,766.5706585000007,769.1917840000096,schwer,return,2.614284100010991,None,769.1920486000017,769.2014030000137,769.2014030000137,769.1948454000085,,None,,,,,3,2024-01-18_11h10.50.190,watkins1,2023.2.3,99.69751772891392,95,2024-01-18 11h10.58.882222 +0000,
,,,,,,,,,,,,,,,,,,,,,,,7,0,7,0,769.703337400002,,,,,,,,,,775.6018877000024,776.100615000003,,,,5.889683800007333,,,,,,,,,,,,None,None,,,,,,,,,,Schlüssel,,,cuedRecallAdj,3,,,,,,,,,,,,,,,,,,,,,,,,0,,,,,,,,,,,,,,,,,,,,,,,,,,,,769.693629100002,769.703337400002,769.703337400002,775.5988345000078,hübsch,return,5.889683800007333,None,775.5990992000006,775.6084427000023,775.6084427000023,775.6017877000122,,None,,,,,3,2024-01-18_11h10.50.190,watkins1,2023.2.3,99.69751772891392,95,2024-01-18 11h10.58.882222 +0000,
,,,,,,,,,,,,,,,,,,,,,,,8,0,8,0,776.110514400003,,,,,,,,,,781.4851162000123,781.9744262000022,,,,5.370503500002087,,,,,,,,,,,,None,None,,,,,,,,,,Eimer,,,cuedRecallAdj,3,,,,,,,,,,,,,,,,,,,,,,,,0,,,,,,,,,,,,,,,,,,,,,,,,,,,,776.1008582000068,776.110514400003,776.110514400003,781.482799800011,,return,5.370503500002087,None,781.4830561000126,781.4923823000136,781.4923823000136,781.4850169000129,,None,,,,,3,2024-01-18_11h10.50.190,watkins1,2023.2.3,99.69751772891392,95,2024-01-18 11h10.58.882222 +0000,
,,,,,,,,,,,,,,,,,,,,,,,9,0,9,0,781.9843761000084,,,,,,,,,,791.1550998000021,791.6535398000124,,,,9.160652599995956,,,,,,,,,,,,None,None,,,,,,,,,,Rucksack,,,cuedRecallAdj,3,,,,,,,,,,,,,,,,,,,,,,,,0,,,,,,,,,,,,,,,,,,,,,,,,,,,,781.9746700000105,781.9843761000084,781.9843761000084,791.1519735000038,praktisch,return,9.160652599995956,None,791.1522380000097,791.1615090000123,791.1615090000123,791.1549970000051,,None,,,,,3,2024-01-18_11h10.50.190,watkins1,2023.2.3,99.69751772891392,95,2024-01-18 11h10.58.882222 +0000,
,,,,,,,,,,,,,,,,,,,,,,,10,0,10,0,791.663483100012,,,,,,,,,,793.6852673000103,794.1837569000054,,,,2.017491299993708,,,,,,,,,,,,None,None,,,,,,,,,,Löffel,,,cuedRecallAdj,3,,,,,,,,,,,,,,,,,,,,,,,,0,,,,,,,,,,,,,,,,,,,,,,,,,,,,791.6537796000048,791.663483100012,791.663483100012,793.6820786000026,sauber,return,2.017491299993708,None,793.6823429000069,793.6916889000131,793.6916889000131,793.6851666000002,,None,,,,,3,2024-01-18_11h10.50.190,watkins1,2023.2.3,99.69751772891392,95,2024-01-18 11h10.58.882222 +0000,
,,,,,,,,,,,,,,,,,,,,,,,11,0,11,0,794.1937032000133,,,,,,,,,,796.6974506000115,797.1959379000036,,,,2.4952710999932606,,,,,,,,,,,,None,None,,,,,,,,,,Stift,,,cuedRecallAdj,3,,,,,,,,,,,,,,,,,,,,,,,,0,,,,,,,,,,,,,,,,,,,,,,,,,,,,794.1840030000021,794.1937032000133,794.1937032000133,796.6942643000075,elegant,return,2.4952710999932606,None,796.694530000008,796.7038189000014,796.7038189000014,796.6973484000046,,None,,,,,3,2024-01-18_11h10.50.190,watkins1,2023.2.3,99.69751772891392,95,2024-01-18 11h10.58.882222 +0000,
,,,,,,,,,,,,,,,,,,,,,,,12,0,12,0,797.2058889000036,,,,,,,,,,799.9294421000086,800.4188562000054,,,,2.715143099994748,,,,,,,,,,,,None,None,,,,,,,,,,Hut,,,cuedRecallAdj,3,,,,,,,,,,,,,,,,,,,,,,,,0,,,,,,,,,,,,,,,,,,,,,,,,,,,,797.196182300002,797.2058889000036,797.2058889000036,799.92730570001,,return,2.715143099994748,None,799.9275920000073,799.936846800003,799.936846800003,799.9293403000047,,None,,,,,3,2024-01-18_11h10.50.190,watkins1,2023.2.3,99.69751772891392,95,2024-01-18 11h10.58.882222 +0000,
,,,,,,,,,,,,,,,,,,,,,,,13,0,13,0,800.4288079000107,,,,,,,,,,804.6191542000015,805.1177793000097,,,,4.180146800004877,,,,,,,,,,,,None,None,,,,,,,,,,Würfel,,,cuedRecallAdj,3,,,,,,,,,,,,,,,,,,,,,,,,0,,,,,,,,,,,,,,,,,,,,,,,,,,,,800.4190951000055,800.4288079000107,800.4288079000107,804.616173900009,flach,return,4.180146800004877,None,804.6164351000043,804.625784200005,804.625784200005,804.6190498000069,,None,,,,,3,2024-01-18_11h10.50.190,watkins1,2023.2.3,99.69751772891392,95,2024-01-18 11h10.58.882222 +0000,
,,,,,,,,,,,,,,,,,,,,,,,14,0,14,0,805.127670300004,,,,,,,,,,807.7218332000048,808.2203820000141,,,,2.585365400009323,,,,,,,,,,,,None,None,,,,,,,,,,Kerze,,,cuedRecallAdj,3,,,,,,,,,,,,,,,,,,,,,,,,0,,,,,,,,,,,,,,,,,,,,,,,,,,,,805.1180225000135,805.127670300004,805.127670300004,807.7188393000106,biegsam,return,2.585365400009323,None,807.7191051000118,807.7283848000079,807.7283848000079,807.72173260001,,None,,,,,3,2024-01-18_11h10.50.190,watkins1,2023.2.3,99.69751772891392,95,2024-01-18 11h10.58.882222 +0000,
,,,,,,,,,,,,,,,,,,,,,,,15,0,15,0,808.2302802000049,,,,,,,,,,811.1254505000106,811.6242004000087,,,,2.890783399998327,,,,,,,,,,,,None,None,,,,,,,,,,Brille,,,cuedRecallAdj,3,,,,,,,,,,,,,,,,,,,,,,,,0,,,,,,,,,,,,,,,,,,,,,,,,,,,,808.2206292000046,808.2302802000049,808.2302802000049,811.1225184000068,matt,return,2.890783399998327,None,811.1227779000037,811.1320218000037,811.1320218000037,811.1253503000044,,None,,,,,3,2024-01-18_11h10.50.190,watkins1,2023.2.3,99.69751772891392,95,2024-01-18 11h10.58.882222 +0000,
,,,,,,,,,,,,,,,,,,,,,,,16,0,16,0,811.6342418000131,,,,,,,,,,814.2782371000067,814.7767348000052,,,,2.6307532000064384,,,,,,,,,,,,None,None,,,,,,,,,,Schere,,,cuedRecallAdj,3,,,,,,,,,,,,,,,,,,,,,,,,0,,,,,,,,,,,,,,,,,,,,,,,,,,,,811.6244460000016,811.6342418000131,811.6342418000131,814.2750486000004,kaputt,return,2.6307532000064384,None,814.2753098000103,814.2847981000086,814.2847981000086,814.2781353000028,,None,,,,,3,2024-01-18_11h10.50.190,watkins1,2023.2.3,99.69751772891392,95,2024-01-18 11h10.58.882222 +0000,
,,,,,,,,,,,,,,,,,,,,,,,17,0,17,0,814.7867385000136,,,,,,,,,,817.7021696000011,818.2010046000069,,,,2.910212300004787,,,,,,,,,,,,None,None,,,,,,,,,,Ring,,,cuedRecallAdj,3,,,,,,,,,,,,,,,,,,,,,,,,0,,,,,,,,,,,,,,,,,,,,,,,,,,,,814.7769799000089,814.7867385000136,814.7867385000136,817.699325700014,nass,return,2.910212300004787,None,817.6995846000063,817.7088995000086,817.7088995000086,817.7020711000077,,None,,,,,3,2024-01-18_11h10.50.190,watkins1,2023.2.3,99.69751772891392,95,2024-01-18 11h10.58.882222 +0000,
,,,,,,,,,,,,,,,,,,,,,,,18,0,18,0,818.210951400004,,,,,,,,,,820.3727741000039,820.8717835000134,,,,2.1580122000013944,,,,,,,,,,,,None,None,,,,,,,,,,Buch,,,cuedRecallAdj,3,,,,,,,,,,,,,,,,,,,,,,,,0,,,,,,,,,,,,,,,,,,,,,,,,,,,,818.2012545000034,818.210951400004,818.210951400004,820.3701520000031,bunt,return,2.1580122000013944,None,820.3704089000094,820.3797206000017,820.3797206000017,820.3726755000098,,None,,,,,3,2024-01-18_11h10.50.190,watkins1,2023.2.3,99.69751772891392,95,2024-01-18 11h10.58.882222 +0000,
,,,,,,,,,,,,,,,,,,,,,,,19,0,19,0,820.8817285000114,,,,,,,,,,822.8127468000021,823.3115595000127,,,,1.927336299995659,,,,,,,,,,,,None,None,,,,,,,,,,Kamera,,,cuedRecallAdj,3,,,,,,,,,,,,,,,,,,,,,,,,0,,,,,,,,,,,,,,,,,,,,,,,,,,,,820.8720271000057,820.8817285000114,820.8817285000114,822.8099628000055,gut,return,1.927336299995659,None,822.810218700004,822.8194743000058,822.8194743000058,822.8126471000141,,None,,,,,3,2024-01-18_11h10.50.190,watkins1,2023.2.3,99.69751772891392,95,2024-01-18 11h10.58.882222 +0000,
,,,,,,,,,,,,,,,,,,,,,,,20,0,20,0,823.3215080000082,,,,,,,,,,827.58198670001,828.0808431000041,,,,4.25553549999313,,,,,,,,,,,,None,None,,,,,,,,,,Hammer,,,cuedRecallAdj,3,,,,,,,,,,,,,,,,,,,,,,,,0,,,,,,,,,,,,,,,,,,,,,,,,,,,,823.3118021000118,823.3215080000082,823.3215080000082,827.5790103000036,teuer,return,4.25553549999313,None,827.5792749000102,827.5886496000021,827.5886496000021,827.5818851000076,,None,,,,,3,2024-01-18_11h10.50.190,watkins1,2023.2.3,99.69751772891392,95,2024-01-18 11h10.58.882222 +0000,
,,,,,,,,,,,,,,,,,,,,,,,21,0,21,0,828.0907841000007,,,,,,,,,,830.605178200014,831.1038970000081,,,,2.5022071999992477,,,,,,,,,,,,None,None,,,,,,,,,,Telefon,,,cuedRecallAdj,3,,,,,,,,,,,,,,,,,,,,,,,,0,,,,,,,,,,,,,,,,,,,,,,,,,,,,828.0810891000001,828.0907841000007,828.0907841000007,830.602080800003,kalt,return,2.5022071999992477,None,830.6023515000124,830.6117190000077,830.6117190000077,830.6050768000132,,None,,,,,3,2024-01-18_11h10.50.190,watkins1,2023.2.3,99.69751772891392,95,2024-01-18 11h10.58.882222 +0000,
,,,,,,,,,,,,,,,,,,,,,,,22,0,22,0,831.1138478000066,,,,,,,,,,838.0351628000062,838.5337414000096,,,,6.911162499993225,,,,,,,,,,,,None,None,,,,,,,,,,Kette,,,cuedRecallAdj,3,,,,,,,,,,,,,,,,,,,,,,,,0,,,,,,,,,,,,,,,,,,,,,,,,,,,,831.1041398000089,831.1138478000066,831.1138478000066,838.0321479000122,nachhaltig,return,6.911162499993225,None,838.0324046000023,838.0417404000036,838.0417404000036,838.0350506000104,,None,,,,,3,2024-01-18_11h10.50.190,watkins1,2023.2.3,99.69751772891392,95,2024-01-18 11h10.58.882222 +0000,
,,,,,,,,,,,,,,,,,,,,,,,23,0,23,0,838.5436447000102,,,,,,,,,,841.4801066000073,841.9788911000069,,,,2.9293822000036016,,,,,,,,,,,,None,None,,,,,,,,,,Fahrrad,,,cuedRecallAdj,3,,,,,,,,,,,,,,,,,,,,,,,,0,,,,,,,,,,,,,,,,,,,,,,,,,,,,838.5339915000077,838.5436447000102,838.5436447000102,841.4772193000099,neu,return,2.9293822000036016,None,841.477483900002,841.4867617000127,841.4867617000127,841.4800040000118,,None,,,,,3,2024-01-18_11h10.50.190,watkins1,2023.2.3,99.69751772891392,95,2024-01-18 11h10.58.882222 +0000,
,,,,,,,,,,,,,,,,,,,,,,,24,0,24,0,841.9888261000015,,,,,,,,,,845.9782305000117,846.4770032000088,,,,3.9801809000055073,,,,,,,,,,,,None,None,,,,,,,,,,Socke,,,cuedRecallAdj,3,,,,,,,,,,,,,,,,,,,,,,,,0,,,,,,,,,,,,,,,,,,,,,,,,,,,,841.9791343000106,841.9888261000015,841.9888261000015,845.97538850001,hohl,return,3.9801809000055073,None,845.9756537000067,845.9849993000098,845.9849993000098,845.9781279000017,,None,,,,,3,2024-01-18_11h10.50.190,watkins1,2023.2.3,99.69751772891392,95,2024-01-18 11h10.58.882222 +0000,
,,,,,,,,,,,,,,,,,,,,,,,25,0,25,0,846.4869619000092,,,,,,,,,,849.4132358000061,849.9110458000068,,,,2.922357799994643,,,,,,,,,,,,None,None,,,,,,,,,,Kiste,,,cuedRecallAdj,3,,,,,,,,,,,,,,,,,,,,,,,,0,,,,,,,,,,,,,,,,,,,,,,,,,,,,846.4772441000096,846.4869619000092,846.4869619000092,849.4100113000022,praktisch,return,2.922357799994643,None,849.4102770000027,849.4188659000065,849.4188659000065,849.4131333000114,,None,,,,,3,2024-01-18_11h10.50.190,watkins1,2023.2.3,99.69751772891392,95,2024-01-18 11h10.58.882222 +0000,
,,,,,,,,,,,,,,,,,,,,,,,26,0,26,0,849.9209911000071,,,,,,,,,,854.1407775000116,854.6398953000025,,,,4.216069600006449,,,,,,,,,,,,None,None,,,,,,,,,,Tasse,,,cuedRecallAdj,3,,,,,,,,,,,,,,,,,,,,,,,,0,,,,,,,,,,,,,,,,,,,,,,,,,,,,849.9112898000021,849.9209911000071,849.9209911000071,854.1385499000025,,return,4.216069600006449,None,854.1388178000052,854.1481267000054,854.1481267000054,854.1406744000124,,None,,,,,3,2024-01-18_11h10.50.190,watkins1,2023.2.3,99.69751772891392,95,2024-01-18 11h10.58.882222 +0000,
,,,,,,,,,,,,,,,,,,,,,,,27,0,27,0,854.6498793000064,,,,,,,,,,857.8769219000096,858.375449500003,,,,3.223218500002986,,,,,,,,,,,,None,None,,,,,,,,,,Jacke,,,cuedRecallAdj,3,,,,,,,,,,,,,,,,,,,,,,,,0,,,,,,,,,,,,,,,,,,,,,,,,,,,,854.6401455000014,854.6498793000064,854.6498793000064,857.8739046000119,flauschig,return,3.223218500002986,None,857.8741672000033,857.8833954000002,857.8833954000002,857.8768201000057,,None,,,,,3,2024-01-18_11h10.50.190,watkins1,2023.2.3,99.69751772891392,95,2024-01-18 11h10.58.882222 +0000,
,,,,,,,,,,,,,,,,,,,,,,,28,0,28,0,858.3853955000086,,,,,,,,,,864.6141016000038,865.1032854000077,,,,6.223604500002693,,,,,,,,,,,,None,None,,,,,,,,,,Vase,,,cuedRecallAdj,3,,,,,,,,,,,,,,,,,,,,,,,,0,,,,,,,,,,,,,,,,,,,,,,,,,,,,858.375698600008,858.3853955000086,858.3853955000086,864.6109511000104,glatt,return,6.223604500002693,None,864.6112370000046,864.6205224000005,864.6205224000005,864.6140009000083,,None,,,,,3,2024-01-18_11h10.50.190,watkins1,2023.2.3,99.69751772891392,95,2024-01-18 11h10.58.882222 +0000,
,,,,,,,,,,,,,,,,,,,,,,,29,0,29,0,865.1132237000129,,,,,,,,,,877.9189769000077,878.417074500001,,,,12.799878900012118,,,,,,,,,,,,None,None,,,,,,,,,,Blume,,,cuedRecallAdj,3,,,,,,,,,,,,,,,,,,,,,,,,0,,,,,,,,,,,,,,,,,,,,,,,,,,,,865.1035314000037,865.1132237000129,865.1132237000129,877.9154797000083,durchsichtig,return,12.799878900012118,None,877.9157422000135,877.9250982000085,877.9250982000085,877.9188653000019,,None,,,,,3,2024-01-18_11h10.50.190,watkins1,2023.2.3,99.69751772891392,95,2024-01-18 11h10.58.882222 +0000,
,,,,,,,,,,,,,,,,,,,,,,,,,,,,,,,,,,,,,,,,,,,,,,,,,,,,,,,,,,,,,,,,,,,,,3,,,,,,,,,,,,,,,,,,,,,,,,,,,,,,,,,,,,,,,,,,,,,,,,,,,,,,,,,,,,,,,,,,878.4337562000001,q,3079.5455609000055,None,3,2024-01-18_11h10.50.190,watkins1,2023.2.3,99.69751772891392,95,2024-01-18 11h10.58.882222 +0000,
