Equation,CorrectResponse,Correctbutton,trials_7.thisRepN,trials_7.thisTrialN,trials_7.thisN,trials_7.thisIndex,trials.thisRepN,trials.thisTrialN,trials.thisN,trials.thisIndex,trials_3.thisRepN,trials_3.thisTrialN,trials_3.thisN,trials_3.thisIndex,trials_2.thisRepN,trials_2.thisTrialN,trials_2.thisN,trials_2.thisIndex,trials_4.thisRepN,trials_4.thisTrialN,trials_4.thisN,trials_4.thisIndex,trials_5.thisRepN,trials_5.thisTrialN,trials_5.thisN,trials_5.thisIndex,thisRow.t,notes,list_sub_restudy,list_sub_testsub,code_marius.started,code_marius.stopped,welcome.started,welcome.stopped,instruction_study.started,instruction_study.stopped,fixationcross.started,fixationcross.stopped,blanc.started,blanc.stopped,study_control_probe.started,study_control_probe.stopped,responseKey,responseTime,scale_answer_2.keys,study_control_probe_2.started,study_control_probe_2.stopped,scale_answer_3.keys,scale_answer_3.rt,scale_answer_3.duration,blanc_2.started,blanc_2.stopped,test_attr_probe.started,test_attr_probe.stopped,recalled_attr,firstKeyTime,secondWordTime,blanc_3.started,blanc_3.stopped,test_sub_probe.started,test_sub_probe.stopped,recalled_sub,instruction_probe_end.started,instruction_probe_end.stopped,study.started,study.stopped,substantive,adjective,wordpair,task,condition,liste_sub_phase1,liste_adj_phase1,scale_answer.keys,scale_answer.rt,scale_answer.duration,code_defineWordsInit.started,code_defineWordsInit.stopped,liste_sub_phase2,study_control.started,study_control.stopped,scale_answer_4.keys,restudy_same.started,restudy_same.stopped,scale_answer_5.keys,scale_answer_5.rt,scale_answer_5.duration,restudy_different.started,restudy_different.stopped,scale_answer_6.keys,test_attr.started,test_attr.stopped,test_sub.started,test_sub.stopped,correct,distractortask.started,equation_text.started,distractortask.stopped,mouse_answer.x,mouse_answer.y,mouse_answer.leftButton,mouse_answer.midButton,mouse_answer.rightButton,mouse_answer.time,mouse_answer.clicked_name,feedback_distractortask.started,feedback_distractortask.stopped,free_recall.started,text_enter.started,key_resp.started,free_recall.stopped,key_resp.keys,key_resp.rt,key_resp.duration,free_recalled_sub,mouse_continue.x,mouse_continue.y,mouse_continue.leftButton,mouse_continue.midButton,mouse_continue.rightButton,mouse_continue.time,mouse_continue.clicked_name,cued_recall.started,text_enter_2.started,key_continue.started,cued_recall.stopped,recalled_attr1,key_continue.keys,key_continue.rt,key_continue.duration,cued_recall_2.started,text_enter_3.started,key_continue_2.started,cued_recall_2.stopped,recalled_attr2,key_continue_2.keys,key_resp_8.started,key_resp_8.keys,key_resp_8.rt,key_resp_8.duration,condition,date,expName,psychopyVersion,frameRate,participant,expStart,
,,,,,,,,,,,,,,,,,,,,,,,,,,,,,"['Geige', 'Kamera', 'Kiste', 'Hut', 'Schere', 'Fahrrad', 'Tasse', 'Ring', 'Lampe', 'Stift', 'Würfel', 'Blume', 'Trommel', 'Löffel', 'Eimer']","['Schlüssel', 'Tasche', 'Jacke', 'Flasche', 'Hammer', 'Vase', 'Uhr', 'Kette', 'Buch', 'Telefon', 'Brille', 'Kerze', 'Bürste', 'Socke', 'Rucksack']",0.12763030035421252,0.127700200304389,0.127708800137043,5.89626710023731,,,,,,,,,,,,,,,,,,,,,,,,,,,,,,,,,,,,,2,,,,,,,,,,,,,,,,,,,,,,,,,,,,,,,,,,,,,,,,,,,,,,,,,,,,,,,,,,,,,,,,,,,,,,2,2024-01-16_09h36.54.720,watkins1,2023.2.3,99.7343080095865,87,2024-01-16 09h37.02.647917 +0000,
,,,,,,,,,,,,,,,,,,,,,,,,,,,,,,,,,,,5.896314500365406,41.76584989996627,,,,,,,,,,,,,,,,,,,,,,,,,,,,,,,,,,,2,,,,,,,,,,,,,,,,,,,,,,,,,,,,,,,,,,,,,,,,,,,,,,,,,,,,,,,,,,,,,,,,,,,,,,2,2024-01-16_09h36.54.720,watkins1,2023.2.3,99.7343080095865,87,2024-01-16 09h37.02.647917 +0000,
,,,0,0,0,0,,,,,,,,,,,,,,,,,,,,,42.78284110035747,,,,,,,,,,41.76586699998006,42.76921910000965,49.26941390009597,49.77103650011122,43.259628700092435,49.26924920035526,2,2.602600899990648,None,49.77104480005801,55.77055940032005,2,2.602600899990648,None,55.770853500347584,55.7708772001788,55.77088430011645,55.770964700262994,,1.8920400999486446,None,55.77112360019237,56.26605030009523,56.266061200294644,62.27022840036079,hund,,,,,,,,,2,,,,,,,,,,,,,,,,,,,,,,,,,,,,,,,,,,,,,,,,,,,,,,,,,,,,,,,,,,,,,,,,,,,,,,2,2024-01-16_09h36.54.720,watkins1,2023.2.3,99.7343080095865,87,2024-01-16 09h37.02.647917 +0000,
,,,,,,,,,,,,,,,,,,,,,,,,,,,,,,,,,,,,,,,,,,,,,,,,,,,,,,,,,,,,,,,62.27038720017299,67.46532860025764,,,,,,,2,,,,,,,,,,,,,,,,,,,,,,,,,,,,,,,,,,,,,,,,,,,,,,,,,,,,,,,,,,,,,,,,,,,,,,2,2024-01-16_09h36.54.720,watkins1,2023.2.3,99.7343080095865,87,2024-01-16 09h37.02.647917 +0000,
,,,,,,,0,0,0,0,,,,,,,,,,,,,,,,,68.48377110017464,,,,,,,,,,67.46534560015425,68.47032580012456,68.47081100009382,68.96031770016998,,,2,1.7132660998031497,,,,,,,,,,,,,,,,,,,,,68.960328000132,74.96783320000395,Ring,gut,"['Ring', 'gut']",restudy,2,"['Ring', 'Kamera', 'Uhr', 'Eimer', 'Kette', 'Bürste', 'Tasche', 'Tasse', 'Vase', 'Stift', 'Brille', 'Lampe', 'Blume', 'Kiste', 'Hut', 'Telefon', 'Kerze', 'Würfel', 'Rucksack', 'Socke', 'Geige', 'Flasche', 'Schere', 'Jacke', 'Trommel', 'Schlüssel', 'Fahrrad', 'Löffel', 'Buch', 'Hammer']",['gut'],2,1.7132660998031497,None,,,,,,,,,,,,,,,,,,,,,,,,,,,,,,,,,,,,,,,,,,,,,,,,,,,,,,,,,,,,,,,,,2,2024-01-16_09h36.54.720,watkins1,2023.2.3,99.7343080095865,87,2024-01-16 09h37.02.647917 +0000,
,,,,,,,1,0,1,0,,,,,,,,,,,,,,,,,74.9814315000549,,,,,,,,,,,,74.96847880026326,75.45823940029368,,,1,2.1597456000745296,,,,,,,,,,,,,,,,,,,,,75.45824990002438,81.46624930016696,Kamera,schlicht,"['Kamera', 'schlicht']",restudy,2,"['Ring', 'Kamera', 'Uhr', 'Eimer', 'Kette', 'Bürste', 'Tasche', 'Tasse', 'Vase', 'Stift', 'Brille', 'Lampe', 'Blume', 'Kiste', 'Hut', 'Telefon', 'Kerze', 'Würfel', 'Rucksack', 'Socke', 'Geige', 'Flasche', 'Schere', 'Jacke', 'Trommel', 'Schlüssel', 'Fahrrad', 'Löffel', 'Buch', 'Hammer']","['gut', 'schlicht']",1,2.1597456000745296,None,,,,,,,,,,,,,,,,,,,,,,,,,,,,,,,,,,,,,,,,,,,,,,,,,,,,,,,,,,,,,,,,,2,2024-01-16_09h36.54.720,watkins1,2023.2.3,99.7343080095865,87,2024-01-16 09h37.02.647917 +0000,
,,,,,,,2,0,2,0,,,,,,,,,,,,,,,,,81.47967929998413,,,,,,,,,,,,81.4667837000452,81.95729310018942,,,1,2.6133938999846578,,,,,,,,,,,,,,,,,,,,,81.9573028003797,87.96129080001265,Uhr,sauber,"['Uhr', 'sauber']",test_sub,2,"['Ring', 'Kamera', 'Uhr', 'Eimer', 'Kette', 'Bürste', 'Tasche', 'Tasse', 'Vase', 'Stift', 'Brille', 'Lampe', 'Blume', 'Kiste', 'Hut', 'Telefon', 'Kerze', 'Würfel', 'Rucksack', 'Socke', 'Geige', 'Flasche', 'Schere', 'Jacke', 'Trommel', 'Schlüssel', 'Fahrrad', 'Löffel', 'Buch', 'Hammer']","['gut', 'schlicht', 'sauber']",1,2.6133938999846578,None,,,,,,,,,,,,,,,,,,,,,,,,,,,,,,,,,,,,,,,,,,,,,,,,,,,,,,,,,,,,,,,,,2,2024-01-16_09h36.54.720,watkins1,2023.2.3,99.7343080095865,87,2024-01-16 09h37.02.647917 +0000,
,,,,,,,3,0,3,0,,,,,,,,,,,,,,,,,87.974844600074,,,,,,,,,,,,87.96180990012363,88.45807739999145,,,2,2.304852900095284,,,,,,,,,,,,,,,,,,,,,88.45808840030804,94.46858090022579,Eimer,nass,"['Eimer', 'nass']",restudy,2,"['Ring', 'Kamera', 'Uhr', 'Eimer', 'Kette', 'Bürste', 'Tasche', 'Tasse', 'Vase', 'Stift', 'Brille', 'Lampe', 'Blume', 'Kiste', 'Hut', 'Telefon', 'Kerze', 'Würfel', 'Rucksack', 'Socke', 'Geige', 'Flasche', 'Schere', 'Jacke', 'Trommel', 'Schlüssel', 'Fahrrad', 'Löffel', 'Buch', 'Hammer']","['gut', 'schlicht', 'sauber', 'nass']",2,2.304852900095284,None,,,,,,,,,,,,,,,,,,,,,,,,,,,,,,,,,,,,,,,,,,,,,,,,,,,,,,,,,,,,,,,,,2,2024-01-16_09h36.54.720,watkins1,2023.2.3,99.7343080095865,87,2024-01-16 09h37.02.647917 +0000,
,,,,,,,4,0,4,0,,,,,,,,,,,,,,,,,94.48207790032029,,,,,,,,,,,,94.46911990037188,94.96271700039506,,,1,1.7999897003173828,,,,,,,,,,,,,,,,,,,,,94.96272730035707,100.97022300027311,Kette,sportlich,"['Kette', 'sportlich']",test_sub,2,"['Ring', 'Kamera', 'Uhr', 'Eimer', 'Kette', 'Bürste', 'Tasche', 'Tasse', 'Vase', 'Stift', 'Brille', 'Lampe', 'Blume', 'Kiste', 'Hut', 'Telefon', 'Kerze', 'Würfel', 'Rucksack', 'Socke', 'Geige', 'Flasche', 'Schere', 'Jacke', 'Trommel', 'Schlüssel', 'Fahrrad', 'Löffel', 'Buch', 'Hammer']","['gut', 'schlicht', 'sauber', 'nass', 'sportlich']",1,1.7999897003173828,None,,,,,,,,,,,,,,,,,,,,,,,,,,,,,,,,,,,,,,,,,,,,,,,,,,,,,,,,,,,,,,,,,2,2024-01-16_09h36.54.720,watkins1,2023.2.3,99.7343080095865,87,2024-01-16 09h37.02.647917 +0000,
,,,,,,,5,0,5,0,,,,,,,,,,,,,,,,,100.98443690035492,,,,,,,,,,,,100.97074910020456,101.4622882003896,,,2,2.324251600075513,,,,,,,,,,,,,,,,,,,,,101.46229900000617,107.47779940022156,Bürste,strahlend,"['Bürste', 'strahlend']",test_sub,2,"['Ring', 'Kamera', 'Uhr', 'Eimer', 'Kette', 'Bürste', 'Tasche', 'Tasse', 'Vase', 'Stift', 'Brille', 'Lampe', 'Blume', 'Kiste', 'Hut', 'Telefon', 'Kerze', 'Würfel', 'Rucksack', 'Socke', 'Geige', 'Flasche', 'Schere', 'Jacke', 'Trommel', 'Schlüssel', 'Fahrrad', 'Löffel', 'Buch', 'Hammer']","['gut', 'schlicht', 'sauber', 'nass', 'sportlich', 'strahlend']",2,2.324251600075513,None,,,,,,,,,,,,,,,,,,,,,,,,,,,,,,,,,,,,,,,,,,,,,,,,,,,,,,,,,,,,,,,,,2,2024-01-16_09h36.54.720,watkins1,2023.2.3,99.7343080095865,87,2024-01-16 09h37.02.647917 +0000,
,,,,,,,6,0,6,0,,,,,,,,,,,,,,,,,107.49130470026284,,,,,,,,,,,,107.47834679996595,107.97038900014013,,,2,2.616203899960965,,,,,,,,,,,,,,,,,,,,,107.9703989000991,113.98611670034006,Tasche,dick,"['Tasche', 'dick']",test_sub,2,"['Ring', 'Kamera', 'Uhr', 'Eimer', 'Kette', 'Bürste', 'Tasche', 'Tasse', 'Vase', 'Stift', 'Brille', 'Lampe', 'Blume', 'Kiste', 'Hut', 'Telefon', 'Kerze', 'Würfel', 'Rucksack', 'Socke', 'Geige', 'Flasche', 'Schere', 'Jacke', 'Trommel', 'Schlüssel', 'Fahrrad', 'Löffel', 'Buch', 'Hammer']","['gut', 'schlicht', 'sauber', 'nass', 'sportlich', 'strahlend', 'dick']",2,2.616203899960965,None,,,,,,,,,,,,,,,,,,,,,,,,,,,,,,,,,,,,,,,,,,,,,,,,,,,,,,,,,,,,,,,,,2,2024-01-16_09h36.54.720,watkins1,2023.2.3,99.7343080095865,87,2024-01-16 09h37.02.647917 +0000,
,,,,,,,7,0,7,0,,,,,,,,,,,,,,,,,114.00007140031084,,,,,,,,,,,,113.98663010029122,114.47721690032631,,,2,1.9666607999242842,,,,,,,,,,,,,,,,,,,,,114.47722740005702,120.49572690017521,Tasse,krumm,"['Tasse', 'krumm']",restudy,2,"['Ring', 'Kamera', 'Uhr', 'Eimer', 'Kette', 'Bürste', 'Tasche', 'Tasse', 'Vase', 'Stift', 'Brille', 'Lampe', 'Blume', 'Kiste', 'Hut', 'Telefon', 'Kerze', 'Würfel', 'Rucksack', 'Socke', 'Geige', 'Flasche', 'Schere', 'Jacke', 'Trommel', 'Schlüssel', 'Fahrrad', 'Löffel', 'Buch', 'Hammer']","['gut', 'schlicht', 'sauber', 'nass', 'sportlich', 'strahlend', 'dick', 'krumm']",2,1.9666607999242842,None,,,,,,,,,,,,,,,,,,,,,,,,,,,,,,,,,,,,,,,,,,,,,,,,,,,,,,,,,,,,,,,,,2,2024-01-16_09h36.54.720,watkins1,2023.2.3,99.7343080095865,87,2024-01-16 09h37.02.647917 +0000,
,,,,,,,8,0,8,0,,,,,,,,,,,,,,,,,120.50921400031075,,,,,,,,,,,,120.49624660005793,120.98594030039385,,,3,1.1851578000932932,,,,,,,,,,,,,,,,,,,,,120.98595020035282,126.99980490002781,Vase,elegant,"['Vase', 'elegant']",test_sub,2,"['Ring', 'Kamera', 'Uhr', 'Eimer', 'Kette', 'Bürste', 'Tasche', 'Tasse', 'Vase', 'Stift', 'Brille', 'Lampe', 'Blume', 'Kiste', 'Hut', 'Telefon', 'Kerze', 'Würfel', 'Rucksack', 'Socke', 'Geige', 'Flasche', 'Schere', 'Jacke', 'Trommel', 'Schlüssel', 'Fahrrad', 'Löffel', 'Buch', 'Hammer']","['gut', 'schlicht', 'sauber', 'nass', 'sportlich', 'strahlend', 'dick', 'krumm', 'elegant']",3,1.1851578000932932,None,,,,,,,,,,,,,,,,,,,,,,,,,,,,,,,,,,,,,,,,,,,,,,,,,,,,,,,,,,,,,,,,,2,2024-01-16_09h36.54.720,watkins1,2023.2.3,99.7343080095865,87,2024-01-16 09h37.02.647917 +0000,
,,,,,,,9,0,9,0,,,,,,,,,,,,,,,,,127.01326750032604,,,,,,,,,,,,127.00031390041113,127.49149650009349,,,1,1.1672877999953926,,,,,,,,,,,,,,,,,,,,,127.49150690017268,133.49406120041385,Stift,flauschig,"['Stift', 'flauschig']",restudy,2,"['Ring', 'Kamera', 'Uhr', 'Eimer', 'Kette', 'Bürste', 'Tasche', 'Tasse', 'Vase', 'Stift', 'Brille', 'Lampe', 'Blume', 'Kiste', 'Hut', 'Telefon', 'Kerze', 'Würfel', 'Rucksack', 'Socke', 'Geige', 'Flasche', 'Schere', 'Jacke', 'Trommel', 'Schlüssel', 'Fahrrad', 'Löffel', 'Buch', 'Hammer']","['gut', 'schlicht', 'sauber', 'nass', 'sportlich', 'strahlend', 'dick', 'krumm', 'elegant', 'flauschig']",1,1.1672877999953926,None,,,,,,,,,,,,,,,,,,,,,,,,,,,,,,,,,,,,,,,,,,,,,,,,,,,,,,,,,,,,,,,,,2,2024-01-16_09h36.54.720,watkins1,2023.2.3,99.7343080095865,87,2024-01-16 09h37.02.647917 +0000,
,,,,,,,10,0,10,0,,,,,,,,,,,,,,,,,133.50755840027705,,,,,,,,,,,,133.49458840023726,133.98406710010022,,,1,2.331722399685532,,,,,,,,,,,,,,,,,,,,,133.98407730041072,139.98543830029666,Brille,blass,"['Brille', 'blass']",test_sub,2,"['Ring', 'Kamera', 'Uhr', 'Eimer', 'Kette', 'Bürste', 'Tasche', 'Tasse', 'Vase', 'Stift', 'Brille', 'Lampe', 'Blume', 'Kiste', 'Hut', 'Telefon', 'Kerze', 'Würfel', 'Rucksack', 'Socke', 'Geige', 'Flasche', 'Schere', 'Jacke', 'Trommel', 'Schlüssel', 'Fahrrad', 'Löffel', 'Buch', 'Hammer']","['gut', 'schlicht', 'sauber', 'nass', 'sportlich', 'strahlend', 'dick', 'krumm', 'elegant', 'flauschig', 'blass']",1,2.331722399685532,None,,,,,,,,,,,,,,,,,,,,,,,,,,,,,,,,,,,,,,,,,,,,,,,,,,,,,,,,,,,,,,,,,2,2024-01-16_09h36.54.720,watkins1,2023.2.3,99.7343080095865,87,2024-01-16 09h37.02.647917 +0000,
,,,,,,,11,0,11,0,,,,,,,,,,,,,,,,,139.99890909995884,,,,,,,,,,,,139.98596200020984,140.4801977002062,,,1,1.6028363998048007,,,,,,,,,,,,,,,,,,,,,140.4802078003995,146.49902450013906,Lampe,niedlich,"['Lampe', 'niedlich']",restudy,2,"['Ring', 'Kamera', 'Uhr', 'Eimer', 'Kette', 'Bürste', 'Tasche', 'Tasse', 'Vase', 'Stift', 'Brille', 'Lampe', 'Blume', 'Kiste', 'Hut', 'Telefon', 'Kerze', 'Würfel', 'Rucksack', 'Socke', 'Geige', 'Flasche', 'Schere', 'Jacke', 'Trommel', 'Schlüssel', 'Fahrrad', 'Löffel', 'Buch', 'Hammer']","['gut', 'schlicht', 'sauber', 'nass', 'sportlich', 'strahlend', 'dick', 'krumm', 'elegant', 'flauschig', 'blass', 'niedlich']",1,1.6028363998048007,None,,,,,,,,,,,,,,,,,,,,,,,,,,,,,,,,,,,,,,,,,,,,,,,,,,,,,,,,,,,,,,,,,2,2024-01-16_09h36.54.720,watkins1,2023.2.3,99.7343080095865,87,2024-01-16 09h37.02.647917 +0000,
,,,,,,,12,0,12,0,,,,,,,,,,,,,,,,,146.51249540038407,,,,,,,,,,,,146.49954019999132,146.99418510030955,,,1,2.641452600248158,,,,,,,,,,,,,,,,,,,,,146.9941953001544,153.00008340040222,Blume,rustikal,"['Blume', 'rustikal']",restudy,2,"['Ring', 'Kamera', 'Uhr', 'Eimer', 'Kette', 'Bürste', 'Tasche', 'Tasse', 'Vase', 'Stift', 'Brille', 'Lampe', 'Blume', 'Kiste', 'Hut', 'Telefon', 'Kerze', 'Würfel', 'Rucksack', 'Socke', 'Geige', 'Flasche', 'Schere', 'Jacke', 'Trommel', 'Schlüssel', 'Fahrrad', 'Löffel', 'Buch', 'Hammer']","['gut', 'schlicht', 'sauber', 'nass', 'sportlich', 'strahlend', 'dick', 'krumm', 'elegant', 'flauschig', 'blass', 'niedlich', 'rustikal']",1,2.641452600248158,None,,,,,,,,,,,,,,,,,,,,,,,,,,,,,,,,,,,,,,,,,,,,,,,,,,,,,,,,,,,,,,,,,2,2024-01-16_09h36.54.720,watkins1,2023.2.3,99.7343080095865,87,2024-01-16 09h37.02.647917 +0000,
,,,,,,,13,0,13,0,,,,,,,,,,,,,,,,,153.0135384001769,,,,,,,,,,,,153.00059640035033,153.49684400018305,,,1,2.242691299878061,,,,,,,,,,,,,,,,,,,,,153.4968545003794,159.5136802000925,Kiste,gepunktet,"['Kiste', 'gepunktet']",restudy,2,"['Ring', 'Kamera', 'Uhr', 'Eimer', 'Kette', 'Bürste', 'Tasche', 'Tasse', 'Vase', 'Stift', 'Brille', 'Lampe', 'Blume', 'Kiste', 'Hut', 'Telefon', 'Kerze', 'Würfel', 'Rucksack', 'Socke', 'Geige', 'Flasche', 'Schere', 'Jacke', 'Trommel', 'Schlüssel', 'Fahrrad', 'Löffel', 'Buch', 'Hammer']","['gut', 'schlicht', 'sauber', 'nass', 'sportlich', 'strahlend', 'dick', 'krumm', 'elegant', 'flauschig', 'blass', 'niedlich', 'rustikal', 'gepunktet']",1,2.242691299878061,None,,,,,,,,,,,,,,,,,,,,,,,,,,,,,,,,,,,,,,,,,,,,,,,,,,,,,,,,,,,,,,,,,2,2024-01-16_09h36.54.720,watkins1,2023.2.3,99.7343080095865,87,2024-01-16 09h37.02.647917 +0000,
,,,,,,,14,0,14,0,,,,,,,,,,,,,,,,,159.52714430028573,,,,,,,,,,,,159.51419070037082,160.00541170034558,,,1,2.2770482003688812,,,,,,,,,,,,,,,,,,,,,160.00542220007628,166.01923610037193,Hut,winzig,"['Hut', 'winzig']",restudy,2,"['Ring', 'Kamera', 'Uhr', 'Eimer', 'Kette', 'Bürste', 'Tasche', 'Tasse', 'Vase', 'Stift', 'Brille', 'Lampe', 'Blume', 'Kiste', 'Hut', 'Telefon', 'Kerze', 'Würfel', 'Rucksack', 'Socke', 'Geige', 'Flasche', 'Schere', 'Jacke', 'Trommel', 'Schlüssel', 'Fahrrad', 'Löffel', 'Buch', 'Hammer']","['gut', 'schlicht', 'sauber', 'nass', 'sportlich', 'strahlend', 'dick', 'krumm', 'elegant', 'flauschig', 'blass', 'niedlich', 'rustikal', 'gepunktet', 'winzig']",1,2.2770482003688812,None,,,,,,,,,,,,,,,,,,,,,,,,,,,,,,,,,,,,,,,,,,,,,,,,,,,,,,,,,,,,,,,,,2,2024-01-16_09h36.54.720,watkins1,2023.2.3,99.7343080095865,87,2024-01-16 09h37.02.647917 +0000,
,,,,,,,15,0,15,0,,,,,,,,,,,,,,,,,166.03273010021076,,,,,,,,,,,,166.01976600009948,166.51380009995773,,,2,1.9381022001616657,,,,,,,,,,,,,,,,,,,,,166.5138104003854,172.51968620019034,Telefon,neu,"['Telefon', 'neu']",test_sub,2,"['Ring', 'Kamera', 'Uhr', 'Eimer', 'Kette', 'Bürste', 'Tasche', 'Tasse', 'Vase', 'Stift', 'Brille', 'Lampe', 'Blume', 'Kiste', 'Hut', 'Telefon', 'Kerze', 'Würfel', 'Rucksack', 'Socke', 'Geige', 'Flasche', 'Schere', 'Jacke', 'Trommel', 'Schlüssel', 'Fahrrad', 'Löffel', 'Buch', 'Hammer']","['gut', 'schlicht', 'sauber', 'nass', 'sportlich', 'strahlend', 'dick', 'krumm', 'elegant', 'flauschig', 'blass', 'niedlich', 'rustikal', 'gepunktet', 'winzig', 'neu']",2,1.9381022001616657,None,,,,,,,,,,,,,,,,,,,,,,,,,,,,,,,,,,,,,,,,,,,,,,,,,,,,,,,,,,,,,,,,,2,2024-01-16_09h36.54.720,watkins1,2023.2.3,99.7343080095865,87,2024-01-16 09h37.02.647917 +0000,
,,,,,,,16,0,16,0,,,,,,,,,,,,,,,,,172.53319490002468,,,,,,,,,,,,172.52021250035614,173.01124310027808,,,1,2.615671600215137,,,,,,,,,,,,,,,,,,,,,173.01125300023705,179.01655050041154,Kerze,verspielt,"['Kerze', 'verspielt']",test_sub,2,"['Ring', 'Kamera', 'Uhr', 'Eimer', 'Kette', 'Bürste', 'Tasche', 'Tasse', 'Vase', 'Stift', 'Brille', 'Lampe', 'Blume', 'Kiste', 'Hut', 'Telefon', 'Kerze', 'Würfel', 'Rucksack', 'Socke', 'Geige', 'Flasche', 'Schere', 'Jacke', 'Trommel', 'Schlüssel', 'Fahrrad', 'Löffel', 'Buch', 'Hammer']","['gut', 'schlicht', 'sauber', 'nass', 'sportlich', 'strahlend', 'dick', 'krumm', 'elegant', 'flauschig', 'blass', 'niedlich', 'rustikal', 'gepunktet', 'winzig', 'neu', 'verspielt']",1,2.615671600215137,None,,,,,,,,,,,,,,,,,,,,,,,,,,,,,,,,,,,,,,,,,,,,,,,,,,,,,,,,,,,,,,,,,2,2024-01-16_09h36.54.720,watkins1,2023.2.3,99.7343080095865,87,2024-01-16 09h37.02.647917 +0000,
,,,,,,,17,0,17,0,,,,,,,,,,,,,,,,,179.03007510025054,,,,,,,,,,,,179.0170996002853,179.5136037999764,,,1,1.3134304997511208,,,,,,,,,,,,,,,,,,,,,179.51361440028995,185.5253206002526,Würfel,kurz,"['Würfel', 'kurz']",restudy,2,"['Ring', 'Kamera', 'Uhr', 'Eimer', 'Kette', 'Bürste', 'Tasche', 'Tasse', 'Vase', 'Stift', 'Brille', 'Lampe', 'Blume', 'Kiste', 'Hut', 'Telefon', 'Kerze', 'Würfel', 'Rucksack', 'Socke', 'Geige', 'Flasche', 'Schere', 'Jacke', 'Trommel', 'Schlüssel', 'Fahrrad', 'Löffel', 'Buch', 'Hammer']","['gut', 'schlicht', 'sauber', 'nass', 'sportlich', 'strahlend', 'dick', 'krumm', 'elegant', 'flauschig', 'blass', 'niedlich', 'rustikal', 'gepunktet', 'winzig', 'neu', 'verspielt', 'kurz']",1,1.3134304997511208,None,,,,,,,,,,,,,,,,,,,,,,,,,,,,,,,,,,,,,,,,,,,,,,,,,,,,,,,,,,,,,,,,,2,2024-01-16_09h36.54.720,watkins1,2023.2.3,99.7343080095865,87,2024-01-16 09h37.02.647917 +0000,
,,,,,,,18,0,18,0,,,,,,,,,,,,,,,,,185.53880270011723,,,,,,,,,,,,185.52584510017186,186.0208958000876,,,2,2.6466329996474087,,,,,,,,,,,,,,,,,,,,,186.02090710029006,192.02879760041833,Rucksack,gestreift,"['Rucksack', 'gestreift']",test_sub,2,"['Ring', 'Kamera', 'Uhr', 'Eimer', 'Kette', 'Bürste', 'Tasche', 'Tasse', 'Vase', 'Stift', 'Brille', 'Lampe', 'Blume', 'Kiste', 'Hut', 'Telefon', 'Kerze', 'Würfel', 'Rucksack', 'Socke', 'Geige', 'Flasche', 'Schere', 'Jacke', 'Trommel', 'Schlüssel', 'Fahrrad', 'Löffel', 'Buch', 'Hammer']","['gut', 'schlicht', 'sauber', 'nass', 'sportlich', 'strahlend', 'dick', 'krumm', 'elegant', 'flauschig', 'blass', 'niedlich', 'rustikal', 'gepunktet', 'winzig', 'neu', 'verspielt', 'kurz', 'gestreift']",2,2.6466329996474087,None,,,,,,,,,,,,,,,,,,,,,,,,,,,,,,,,,,,,,,,,,,,,,,,,,,,,,,,,,,,,,,,,,2,2024-01-16_09h36.54.720,watkins1,2023.2.3,99.7343080095865,87,2024-01-16 09h37.02.647917 +0000,
,,,,,,,19,0,19,0,,,,,,,,,,,,,,,,,192.04270190000534,,,,,,,,,,,,192.02932610036805,192.5250707003288,,,2,2.5024645999073982,,,,,,,,,,,,,,,,,,,,,192.52508160006255,198.54005050007254,Socke,hübsch,"['Socke', 'hübsch']",test_sub,2,"['Ring', 'Kamera', 'Uhr', 'Eimer', 'Kette', 'Bürste', 'Tasche', 'Tasse', 'Vase', 'Stift', 'Brille', 'Lampe', 'Blume', 'Kiste', 'Hut', 'Telefon', 'Kerze', 'Würfel', 'Rucksack', 'Socke', 'Geige', 'Flasche', 'Schere', 'Jacke', 'Trommel', 'Schlüssel', 'Fahrrad', 'Löffel', 'Buch', 'Hammer']","['gut', 'schlicht', 'sauber', 'nass', 'sportlich', 'strahlend', 'dick', 'krumm', 'elegant', 'flauschig', 'blass', 'niedlich', 'rustikal', 'gepunktet', 'winzig', 'neu', 'verspielt', 'kurz', 'gestreift', 'hübsch']",2,2.5024645999073982,None,,,,,,,,,,,,,,,,,,,,,,,,,,,,,,,,,,,,,,,,,,,,,,,,,,,,,,,,,,,,,,,,,2,2024-01-16_09h36.54.720,watkins1,2023.2.3,99.7343080095865,87,2024-01-16 09h37.02.647917 +0000,
,,,,,,,20,0,20,0,,,,,,,,,,,,,,,,,198.55357620026916,,,,,,,,,,,,198.54058840032667,199.03110340004787,,,2,2.307574199978262,,,,,,,,,,,,,,,,,,,,,199.03111360035837,205.0505508002825,Geige,dunkel,"['Geige', 'dunkel']",restudy,2,"['Ring', 'Kamera', 'Uhr', 'Eimer', 'Kette', 'Bürste', 'Tasche', 'Tasse', 'Vase', 'Stift', 'Brille', 'Lampe', 'Blume', 'Kiste', 'Hut', 'Telefon', 'Kerze', 'Würfel', 'Rucksack', 'Socke', 'Geige', 'Flasche', 'Schere', 'Jacke', 'Trommel', 'Schlüssel', 'Fahrrad', 'Löffel', 'Buch', 'Hammer']","['gut', 'schlicht', 'sauber', 'nass', 'sportlich', 'strahlend', 'dick', 'krumm', 'elegant', 'flauschig', 'blass', 'niedlich', 'rustikal', 'gepunktet', 'winzig', 'neu', 'verspielt', 'kurz', 'gestreift', 'hübsch', 'dunkel']",2,2.307574199978262,None,,,,,,,,,,,,,,,,,,,,,,,,,,,,,,,,,,,,,,,,,,,,,,,,,,,,,,,,,,,,,,,,,2,2024-01-16_09h36.54.720,watkins1,2023.2.3,99.7343080095865,87,2024-01-16 09h37.02.647917 +0000,
,,,,,,,21,0,21,0,,,,,,,,,,,,,,,,,205.06401710025966,,,,,,,,,,,,205.0510736000724,205.54427470033988,,,1,2.619014900177717,,,,,,,,,,,,,,,,,,,,,205.5442858999595,211.54653790034354,Flasche,matt,"['Flasche', 'matt']",test_sub,2,"['Ring', 'Kamera', 'Uhr', 'Eimer', 'Kette', 'Bürste', 'Tasche', 'Tasse', 'Vase', 'Stift', 'Brille', 'Lampe', 'Blume', 'Kiste', 'Hut', 'Telefon', 'Kerze', 'Würfel', 'Rucksack', 'Socke', 'Geige', 'Flasche', 'Schere', 'Jacke', 'Trommel', 'Schlüssel', 'Fahrrad', 'Löffel', 'Buch', 'Hammer']","['gut', 'schlicht', 'sauber', 'nass', 'sportlich', 'strahlend', 'dick', 'krumm', 'elegant', 'flauschig', 'blass', 'niedlich', 'rustikal', 'gepunktet', 'winzig', 'neu', 'verspielt', 'kurz', 'gestreift', 'hübsch', 'dunkel', 'matt']",1,2.619014900177717,None,,,,,,,,,,,,,,,,,,,,,,,,,,,,,,,,,,,,,,,,,,,,,,,,,,,,,,,,,,,,,,,,,2,2024-01-16_09h36.54.720,watkins1,2023.2.3,99.7343080095865,87,2024-01-16 09h37.02.647917 +0000,
,,,,,,,22,0,22,0,,,,,,,,,,,,,,,,,211.56003140006214,,,,,,,,,,,,211.54705350007862,212.03859040001407,,,3,2.325140600092709,,,,,,,,,,,,,,,,,,,,,212.03860090021044,218.04477530019358,Schere,flach,"['Schere', 'flach']",restudy,2,"['Ring', 'Kamera', 'Uhr', 'Eimer', 'Kette', 'Bürste', 'Tasche', 'Tasse', 'Vase', 'Stift', 'Brille', 'Lampe', 'Blume', 'Kiste', 'Hut', 'Telefon', 'Kerze', 'Würfel', 'Rucksack', 'Socke', 'Geige', 'Flasche', 'Schere', 'Jacke', 'Trommel', 'Schlüssel', 'Fahrrad', 'Löffel', 'Buch', 'Hammer']","['gut', 'schlicht', 'sauber', 'nass', 'sportlich', 'strahlend', 'dick', 'krumm', 'elegant', 'flauschig', 'blass', 'niedlich', 'rustikal', 'gepunktet', 'winzig', 'neu', 'verspielt', 'kurz', 'gestreift', 'hübsch', 'dunkel', 'matt', 'flach']",3,2.325140600092709,None,,,,,,,,,,,,,,,,,,,,,,,,,,,,,,,,,,,,,,,,,,,,,,,,,,,,,,,,,,,,,,,,,2,2024-01-16_09h36.54.720,watkins1,2023.2.3,99.7343080095865,87,2024-01-16 09h37.02.647917 +0000,
,,,,,,,23,0,23,0,,,,,,,,,,,,,,,,,218.0582574000582,,,,,,,,,,,,218.04530160035938,218.5352916000411,,,2,2.0355318002402782,,,,,,,,,,,,,,,,,,,,,218.5353025002405,224.55287800030783,Jacke,lustig,"['Jacke', 'lustig']",test_sub,2,"['Ring', 'Kamera', 'Uhr', 'Eimer', 'Kette', 'Bürste', 'Tasche', 'Tasse', 'Vase', 'Stift', 'Brille', 'Lampe', 'Blume', 'Kiste', 'Hut', 'Telefon', 'Kerze', 'Würfel', 'Rucksack', 'Socke', 'Geige', 'Flasche', 'Schere', 'Jacke', 'Trommel', 'Schlüssel', 'Fahrrad', 'Löffel', 'Buch', 'Hammer']","['gut', 'schlicht', 'sauber', 'nass', 'sportlich', 'strahlend', 'dick', 'krumm', 'elegant', 'flauschig', 'blass', 'niedlich', 'rustikal', 'gepunktet', 'winzig', 'neu', 'verspielt', 'kurz', 'gestreift', 'hübsch', 'dunkel', 'matt', 'flach', 'lustig']",2,2.0355318002402782,None,,,,,,,,,,,,,,,,,,,,,,,,,,,,,,,,,,,,,,,,,,,,,,,,,,,,,,,,,,,,,,,,,2,2024-01-16_09h36.54.720,watkins1,2023.2.3,99.7343080095865,87,2024-01-16 09h37.02.647917 +0000,
,,,,,,,24,0,24,0,,,,,,,,,,,,,,,,,224.5663680001162,,,,,,,,,,,,224.55340590002015,225.04241870017722,,,2,2.609272399917245,,,,,,,,,,,,,,,,,,,,,225.04242880037054,231.0594333000481,Trommel,praktisch,"['Trommel', 'praktisch']",restudy,2,"['Ring', 'Kamera', 'Uhr', 'Eimer', 'Kette', 'Bürste', 'Tasche', 'Tasse', 'Vase', 'Stift', 'Brille', 'Lampe', 'Blume', 'Kiste', 'Hut', 'Telefon', 'Kerze', 'Würfel', 'Rucksack', 'Socke', 'Geige', 'Flasche', 'Schere', 'Jacke', 'Trommel', 'Schlüssel', 'Fahrrad', 'Löffel', 'Buch', 'Hammer']","['gut', 'schlicht', 'sauber', 'nass', 'sportlich', 'strahlend', 'dick', 'krumm', 'elegant', 'flauschig', 'blass', 'niedlich', 'rustikal', 'gepunktet', 'winzig', 'neu', 'verspielt', 'kurz', 'gestreift', 'hübsch', 'dunkel', 'matt', 'flach', 'lustig', 'praktisch']",2,2.609272399917245,None,,,,,,,,,,,,,,,,,,,,,,,,,,,,,,,,,,,,,,,,,,,,,,,,,,,,,,,,,,,,,,,,,2,2024-01-16_09h36.54.720,watkins1,2023.2.3,99.7343080095865,87,2024-01-16 09h37.02.647917 +0000,
,,,,,,,25,0,25,0,,,,,,,,,,,,,,,,,231.07289210008457,,,,,,,,,,,,231.059948600363,231.55455270037055,,,1,2.201022900175303,,,,,,,,,,,,,,,,,,,,,231.55456269998103,237.560946600046,Schlüssel,breit,"['Schlüssel', 'breit']",test_sub,2,"['Ring', 'Kamera', 'Uhr', 'Eimer', 'Kette', 'Bürste', 'Tasche', 'Tasse', 'Vase', 'Stift', 'Brille', 'Lampe', 'Blume', 'Kiste', 'Hut', 'Telefon', 'Kerze', 'Würfel', 'Rucksack', 'Socke', 'Geige', 'Flasche', 'Schere', 'Jacke', 'Trommel', 'Schlüssel', 'Fahrrad', 'Löffel', 'Buch', 'Hammer']","['gut', 'schlicht', 'sauber', 'nass', 'sportlich', 'strahlend', 'dick', 'krumm', 'elegant', 'flauschig', 'blass', 'niedlich', 'rustikal', 'gepunktet', 'winzig', 'neu', 'verspielt', 'kurz', 'gestreift', 'hübsch', 'dunkel', 'matt', 'flach', 'lustig', 'praktisch', 'breit']",1,2.201022900175303,None,,,,,,,,,,,,,,,,,,,,,,,,,,,,,,,,,,,,,,,,,,,,,,,,,,,,,,,,,,,,,,,,,2,2024-01-16_09h36.54.720,watkins1,2023.2.3,99.7343080095865,87,2024-01-16 09h37.02.647917 +0000,
,,,,,,,26,0,26,0,,,,,,,,,,,,,,,,,237.57441820017993,,,,,,,,,,,,237.56147109996527,238.05589350033551,,,1,1.5319039998576045,,,,,,,,,,,,,,,,,,,,,238.05590420030057,244.0642866003327,Fahrrad,hohl,"['Fahrrad', 'hohl']",restudy,2,"['Ring', 'Kamera', 'Uhr', 'Eimer', 'Kette', 'Bürste', 'Tasche', 'Tasse', 'Vase', 'Stift', 'Brille', 'Lampe', 'Blume', 'Kiste', 'Hut', 'Telefon', 'Kerze', 'Würfel', 'Rucksack', 'Socke', 'Geige', 'Flasche', 'Schere', 'Jacke', 'Trommel', 'Schlüssel', 'Fahrrad', 'Löffel', 'Buch', 'Hammer']","['gut', 'schlicht', 'sauber', 'nass', 'sportlich', 'strahlend', 'dick', 'krumm', 'elegant', 'flauschig', 'blass', 'niedlich', 'rustikal', 'gepunktet', 'winzig', 'neu', 'verspielt', 'kurz', 'gestreift', 'hübsch', 'dunkel', 'matt', 'flach', 'lustig', 'praktisch', 'breit', 'hohl']",1,1.5319039998576045,None,,,,,,,,,,,,,,,,,,,,,,,,,,,,,,,,,,,,,,,,,,,,,,,,,,,,,,,,,,,,,,,,,2,2024-01-16_09h36.54.720,watkins1,2023.2.3,99.7343080095865,87,2024-01-16 09h37.02.647917 +0000,
,,,,,,,27,0,27,0,,,,,,,,,,,,,,,,,244.07777910027653,,,,,,,,,,,,244.06481640040874,244.56657960033044,,,1,1.684183199889958,,,,,,,,,,,,,,,,,,,,,244.56658750027418,250.58326800027862,Löffel,teuer,"['Löffel', 'teuer']",restudy,2,"['Ring', 'Kamera', 'Uhr', 'Eimer', 'Kette', 'Bürste', 'Tasche', 'Tasse', 'Vase', 'Stift', 'Brille', 'Lampe', 'Blume', 'Kiste', 'Hut', 'Telefon', 'Kerze', 'Würfel', 'Rucksack', 'Socke', 'Geige', 'Flasche', 'Schere', 'Jacke', 'Trommel', 'Schlüssel', 'Fahrrad', 'Löffel', 'Buch', 'Hammer']","['gut', 'schlicht', 'sauber', 'nass', 'sportlich', 'strahlend', 'dick', 'krumm', 'elegant', 'flauschig', 'blass', 'niedlich', 'rustikal', 'gepunktet', 'winzig', 'neu', 'verspielt', 'kurz', 'gestreift', 'hübsch', 'dunkel', 'matt', 'flach', 'lustig', 'praktisch', 'breit', 'hohl', 'teuer']",1,1.684183199889958,None,,,,,,,,,,,,,,,,,,,,,,,,,,,,,,,,,,,,,,,,,,,,,,,,,,,,,,,,,,,,,,,,,2,2024-01-16_09h36.54.720,watkins1,2023.2.3,99.7343080095865,87,2024-01-16 09h37.02.647917 +0000,
,,,,,,,28,0,28,0,,,,,,,,,,,,,,,,,250.59676480013877,,,,,,,,,,,,250.5837999000214,251.07796980021521,,,2,2.2129148999229074,,,,,,,,,,,,,,,,,,,,,251.0779804000631,257.0906485002488,Buch,groß,"['Buch', 'groß']",test_sub,2,"['Ring', 'Kamera', 'Uhr', 'Eimer', 'Kette', 'Bürste', 'Tasche', 'Tasse', 'Vase', 'Stift', 'Brille', 'Lampe', 'Blume', 'Kiste', 'Hut', 'Telefon', 'Kerze', 'Würfel', 'Rucksack', 'Socke', 'Geige', 'Flasche', 'Schere', 'Jacke', 'Trommel', 'Schlüssel', 'Fahrrad', 'Löffel', 'Buch', 'Hammer']","['gut', 'schlicht', 'sauber', 'nass', 'sportlich', 'strahlend', 'dick', 'krumm', 'elegant', 'flauschig', 'blass', 'niedlich', 'rustikal', 'gepunktet', 'winzig', 'neu', 'verspielt', 'kurz', 'gestreift', 'hübsch', 'dunkel', 'matt', 'flach', 'lustig', 'praktisch', 'breit', 'hohl', 'teuer', 'groß']",2,2.2129148999229074,None,,,,,,,,,,,,,,,,,,,,,,,,,,,,,,,,,,,,,,,,,,,,,,,,,,,,,,,,,,,,,,,,,2,2024-01-16_09h36.54.720,watkins1,2023.2.3,99.7343080095865,87,2024-01-16 09h37.02.647917 +0000,
,,,,,,,29,0,29,0,,,,,,,,,,,,,,,,,257.1042353003286,,,,,,,,,,,,257.0911777000874,257.5815048003569,,,1,1.6056037000380456,,,,,,,,,,,,,,,,,,,,,257.58151580020785,263.5944023001939,Hammer,kratzig,"['Hammer', 'kratzig']",test_sub,2,"['Ring', 'Kamera', 'Uhr', 'Eimer', 'Kette', 'Bürste', 'Tasche', 'Tasse', 'Vase', 'Stift', 'Brille', 'Lampe', 'Blume', 'Kiste', 'Hut', 'Telefon', 'Kerze', 'Würfel', 'Rucksack', 'Socke', 'Geige', 'Flasche', 'Schere', 'Jacke', 'Trommel', 'Schlüssel', 'Fahrrad', 'Löffel', 'Buch', 'Hammer']","['gut', 'schlicht', 'sauber', 'nass', 'sportlich', 'strahlend', 'dick', 'krumm', 'elegant', 'flauschig', 'blass', 'niedlich', 'rustikal', 'gepunktet', 'winzig', 'neu', 'verspielt', 'kurz', 'gestreift', 'hübsch', 'dunkel', 'matt', 'flach', 'lustig', 'praktisch', 'breit', 'hohl', 'teuer', 'groß', 'kratzig']",1,1.6056037000380456,None,,,,,,,,,,,,,,,,,,,,,,,,,,,,,,,,,,,,,,,,,,,,,,,,,,,,,,,,,,,,,,,,,2,2024-01-16_09h36.54.720,watkins1,2023.2.3,99.7343080095865,87,2024-01-16 09h37.02.647917 +0000,
,,,,,,,,,,,0,0,0,0,,,,,,,,,,,,,263.60828230017796,,,,,,,,,,,,263.5952698001638,264.09463290032,,,[],[],,,,,,,,,,,,None,None,,,,,,,,,,Tasse,krumm,"['Tasse', 'krumm']",restudy,2,,,,,,263.59519390016794,263.595242400188,"['Tasse', 'Hammer', 'Trommel', 'Blume', 'Flasche', 'Buch', 'Tasche', 'Kamera', 'Eimer', 'Ring', 'Geige', 'Fahrrad', 'Kette', 'Telefon', 'Schlüssel', 'Vase', 'Würfel', 'Lampe', 'Jacke', 'Socke', 'Brille', 'Schere', 'Stift', 'Hut', 'Uhr', 'Bürste', 'Rucksack', 'Löffel', 'Kerze', 'Kiste']",264.09464360028505,264.0975362001918,None,264.0977205000818,270.1067227004096,1,2.3854920999147,None,270.1071330001578,270.10986310010776,None,270.1100209001452,270.111155200284,270.11116660013795,270.11230630008504,,,,,,,,,,,,,,,,,,,,,,,,,,,,,,,,,,,,,,,,,,,,,,,2,2024-01-16_09h36.54.720,watkins1,2023.2.3,99.7343080095865,87,2024-01-16 09h37.02.647917 +0000,
,,,,,,,,,,,1,0,1,0,,,,,,,,,,,,,270.1256292001344,,,,,,,,,,,,270.1125866002403,270.6084116003476,,,[],[],,,,,,,,,,,,2.470456900075078,None,,,,,hammer,,,,,Hammer,kratzig,"['Hammer', 'kratzig']",test_sub,2,,,,,,270.1125223999843,270.1125602000393,"['Tasse', 'Hammer', 'Trommel', 'Blume', 'Flasche', 'Buch', 'Tasche', 'Kamera', 'Eimer', 'Ring', 'Geige', 'Fahrrad', 'Kette', 'Telefon', 'Schlüssel', 'Vase', 'Würfel', 'Lampe', 'Jacke', 'Socke', 'Brille', 'Schere', 'Stift', 'Hut', 'Uhr', 'Bürste', 'Rucksack', 'Löffel', 'Kerze', 'Kiste']",270.60842260019854,270.61150770029053,None,270.611631100066,270.6130523001775,None,,,270.61316179996356,270.6145729003474,None,270.61467940034345,270.61583590041846,270.6158481002785,276.6300447001122,0,,,,,,,,,,,,,,,,,,,,,,,,,,,,,,,,,,,,,,,,,,,,,,2,2024-01-16_09h36.54.720,watkins1,2023.2.3,99.7343080095865,87,2024-01-16 09h37.02.647917 +0000,
,,,,,,,,,,,2,0,2,0,,,,,,,,,,,,,276.6432917001657,,,,,,,,,,,,276.6303301001899,277.1196978003718,,,[],[],,,,,,,,,,,,None,None,,,,,,,,,,Trommel,praktisch,"['Trommel', 'praktisch']",restudy,2,,,,,,276.63026320002973,276.63030089996755,"['Tasse', 'Hammer', 'Trommel', 'Blume', 'Flasche', 'Buch', 'Tasche', 'Kamera', 'Eimer', 'Ring', 'Geige', 'Fahrrad', 'Kette', 'Telefon', 'Schlüssel', 'Vase', 'Würfel', 'Lampe', 'Jacke', 'Socke', 'Brille', 'Schere', 'Stift', 'Hut', 'Uhr', 'Bürste', 'Rucksack', 'Löffel', 'Kerze', 'Kiste']",277.1197073003277,277.12245570030063,None,277.12257899995893,283.13920160010457,2,2.4972773999907076,None,283.139505200088,283.1423043999821,None,283.1424178001471,283.14364060014486,283.143652100116,283.1452077003196,,,,,,,,,,,,,,,,,,,,,,,,,,,,,,,,,,,,,,,,,,,,,,,2,2024-01-16_09h36.54.720,watkins1,2023.2.3,99.7343080095865,87,2024-01-16 09h37.02.647917 +0000,
,,,,,,,,,,,3,0,3,0,,,,,,,,,,,,,283.1585157001391,,,,,,,,,,,,283.14549700031057,283.64210440032184,,,[],[],,,,,,,,,,,,None,None,,,,,,,,,,Blume,rustikal,"['Blume', 'rustikal']",restudy,2,,,,,,283.1454296000302,283.14546980010346,"['Tasse', 'Hammer', 'Trommel', 'Blume', 'Flasche', 'Buch', 'Tasche', 'Kamera', 'Eimer', 'Ring', 'Geige', 'Fahrrad', 'Kette', 'Telefon', 'Schlüssel', 'Vase', 'Würfel', 'Lampe', 'Jacke', 'Socke', 'Brille', 'Schere', 'Stift', 'Hut', 'Uhr', 'Bürste', 'Rucksack', 'Löffel', 'Kerze', 'Kiste']",283.6421151002869,283.644876500126,None,283.645001700148,289.658439300023,1,2.0788825997151434,None,289.65874020010233,289.6615853002295,None,289.6616981001571,289.6628771000542,289.6628888002597,289.6641261000186,,,,,,,,,,,,,,,,,,,,,,,,,,,,,,,,,,,,,,,,,,,,,,,2,2024-01-16_09h36.54.720,watkins1,2023.2.3,99.7343080095865,87,2024-01-16 09h37.02.647917 +0000,
,,,,,,,,,,,4,0,4,0,,,,,,,,,,,,,289.67743899999186,,,,,,,,,,,,289.6644137003459,290.15407770033926,,,[],[],,,,,,,,,,,,1.973798899911344,None,,,,,flasche,,,,,Flasche,matt,"['Flasche', 'matt']",test_sub,2,,,,,,289.66434760019183,289.66438660025597,"['Tasse', 'Hammer', 'Trommel', 'Blume', 'Flasche', 'Buch', 'Tasche', 'Kamera', 'Eimer', 'Ring', 'Geige', 'Fahrrad', 'Kette', 'Telefon', 'Schlüssel', 'Vase', 'Würfel', 'Lampe', 'Jacke', 'Socke', 'Brille', 'Schere', 'Stift', 'Hut', 'Uhr', 'Bürste', 'Rucksack', 'Löffel', 'Kerze', 'Kiste']",290.1540876002982,290.15684790024534,None,290.1569722001441,290.1584444004111,None,,,290.1585556003265,290.16003750031814,None,290.1601459002122,290.1613605003804,290.16137300012633,296.1667234003544,0,,,,,,,,,,,,,,,,,,,,,,,,,,,,,,,,,,,,,,,,,,,,,,2,2024-01-16_09h36.54.720,watkins1,2023.2.3,99.7343080095865,87,2024-01-16 09h37.02.647917 +0000,
,,,,,,,,,,,5,0,5,0,,,,,,,,,,,,,296.17995450040326,,,,,,,,,,,,296.16699880035594,296.6600222000852,,,[],[],,,,,,,,,,,,2.0626926999539137,None,,,,,buch,,,,,Buch,groß,"['Buch', 'groß']",test_sub,2,,,,,,296.16693369997665,296.166970200371,"['Tasse', 'Hammer', 'Trommel', 'Blume', 'Flasche', 'Buch', 'Tasche', 'Kamera', 'Eimer', 'Ring', 'Geige', 'Fahrrad', 'Kette', 'Telefon', 'Schlüssel', 'Vase', 'Würfel', 'Lampe', 'Jacke', 'Socke', 'Brille', 'Schere', 'Stift', 'Hut', 'Uhr', 'Bürste', 'Rucksack', 'Löffel', 'Kerze', 'Kiste']",296.66003310028464,296.6624613003805,None,296.66258850041777,296.6648271000013,None,,,296.6649352000095,296.66717310016975,None,296.66728299995884,296.6683100000955,296.66832240018994,302.6817300003022,0,,,,,,,,,,,,,,,,,,,,,,,,,,,,,,,,,,,,,,,,,,,,,,2,2024-01-16_09h36.54.720,watkins1,2023.2.3,99.7343080095865,87,2024-01-16 09h37.02.647917 +0000,
,,,,,,,,,,,6,0,6,0,,,,,,,,,,,,,302.69495230028406,,,,,,,,,,,,302.6820086003281,303.1735861999914,,,[],[],,,,,,,,,,,,None,None,,,,,,,,,,Tasche,dick,"['Tasche', 'dick']",test_sub,2,,,,,,302.6819429001771,302.68198049999774,"['Tasse', 'Hammer', 'Trommel', 'Blume', 'Flasche', 'Buch', 'Tasche', 'Kamera', 'Eimer', 'Ring', 'Geige', 'Fahrrad', 'Kette', 'Telefon', 'Schlüssel', 'Vase', 'Würfel', 'Lampe', 'Jacke', 'Socke', 'Brille', 'Schere', 'Stift', 'Hut', 'Uhr', 'Bürste', 'Rucksack', 'Löffel', 'Kerze', 'Kiste']",303.1735971001908,303.17620090022683,None,303.17632690025494,303.1787673002109,None,,,303.178876100108,303.18129540001974,None,303.18140350002795,303.1825884003192,303.18260070029646,309.18984859995544,0,,,,,,,,,,,,,,,,,,,,,,,,,,,,,,,,,,,,,,,,,,,,,,2,2024-01-16_09h36.54.720,watkins1,2023.2.3,99.7343080095865,87,2024-01-16 09h37.02.647917 +0000,
,,,,,,,,,,,7,0,7,0,,,,,,,,,,,,,309.20305550005287,,,,,,,,,,,,309.19012550031766,309.6810604003258,,,[],[],,,,,,,,,,,,None,None,,,,,,,,,,Kamera,schlicht,"['Kamera', 'schlicht']",restudy,2,,,,,,309.19005900016055,309.19009699998423,"['Tasse', 'Hammer', 'Trommel', 'Blume', 'Flasche', 'Buch', 'Tasche', 'Kamera', 'Eimer', 'Ring', 'Geige', 'Fahrrad', 'Kette', 'Telefon', 'Schlüssel', 'Vase', 'Würfel', 'Lampe', 'Jacke', 'Socke', 'Brille', 'Schere', 'Stift', 'Hut', 'Uhr', 'Bürste', 'Rucksack', 'Löffel', 'Kerze', 'Kiste']",309.68107110029086,309.6836147001013,None,309.6837361003272,315.69704040000215,1,2.056261599995196,None,315.69733090000227,315.70005120011047,None,315.70016320003197,315.7013513003476,315.70136300008744,315.70257570035756,,,,,,,,,,,,,,,,,,,,,,,,,,,,,,,,,,,,,,,,,,,,,,,2,2024-01-16_09h36.54.720,watkins1,2023.2.3,99.7343080095865,87,2024-01-16 09h37.02.647917 +0000,
,,,,,,,,,,,8,0,8,0,,,,,,,,,,,,,315.71581960003823,,,,,,,,,,,,315.70285560004413,316.2032459001057,,,[],[],,,,,,,,,,,,None,None,,,,,,,,,,Eimer,nass,"['Eimer', 'nass']",restudy,2,,,,,,315.7027895003557,315.7028283001855,"['Tasse', 'Hammer', 'Trommel', 'Blume', 'Flasche', 'Buch', 'Tasche', 'Kamera', 'Eimer', 'Ring', 'Geige', 'Fahrrad', 'Kette', 'Telefon', 'Schlüssel', 'Vase', 'Würfel', 'Lampe', 'Jacke', 'Socke', 'Brille', 'Schere', 'Stift', 'Hut', 'Uhr', 'Bürste', 'Rucksack', 'Löffel', 'Kerze', 'Kiste']",316.2032537003979,316.2059492999688,None,316.2060715002008,322.2219929001294,2,1.7820889996364713,None,322.22228690003976,322.2248065001331,None,322.224917200394,322.2260849000886,322.22609700029716,322.2271437002346,,,,,,,,,,,,,,,,,,,,,,,,,,,,,,,,,,,,,,,,,,,,,,,2,2024-01-16_09h36.54.720,watkins1,2023.2.3,99.7343080095865,87,2024-01-16 09h37.02.647917 +0000,
,,,,,,,,,,,9,0,9,0,,,,,,,,,,,,,322.2404346000403,,,,,,,,,,,,322.22742500016466,322.72300960030407,,,[],[],,,,,,,,,,,,None,None,,,,,,,,,,Ring,gut,"['Ring', 'gut']",restudy,2,,,,,,322.22735960036516,322.227397700306,"['Tasse', 'Hammer', 'Trommel', 'Blume', 'Flasche', 'Buch', 'Tasche', 'Kamera', 'Eimer', 'Ring', 'Geige', 'Fahrrad', 'Kette', 'Telefon', 'Schlüssel', 'Vase', 'Würfel', 'Lampe', 'Jacke', 'Socke', 'Brille', 'Schere', 'Stift', 'Hut', 'Uhr', 'Bürste', 'Rucksack', 'Löffel', 'Kerze', 'Kiste']",322.7230207002722,322.72548170015216,None,322.7256065001711,328.73780210036784,2,1.4944035997614264,None,328.7381000001915,328.74051360040903,None,328.7406259002164,328.7416728003882,328.74168450012803,328.7428355002776,,,,,,,,,,,,,,,,,,,,,,,,,,,,,,,,,,,,,,,,,,,,,,,2,2024-01-16_09h36.54.720,watkins1,2023.2.3,99.7343080095865,87,2024-01-16 09h37.02.647917 +0000,
,,,,,,,,,,,10,0,10,0,,,,,,,,,,,,,328.75613480014727,,,,,,,,,,,,328.7431164002046,329.238599000033,,,[],[],,,,,,,,,,,,None,None,,,,,,,,,,Geige,dunkel,"['Geige', 'dunkel']",restudy,2,,,,,,328.7430509002879,328.7430890002288,"['Tasse', 'Hammer', 'Trommel', 'Blume', 'Flasche', 'Buch', 'Tasche', 'Kamera', 'Eimer', 'Ring', 'Geige', 'Fahrrad', 'Kette', 'Telefon', 'Schlüssel', 'Vase', 'Würfel', 'Lampe', 'Jacke', 'Socke', 'Brille', 'Schere', 'Stift', 'Hut', 'Uhr', 'Bürste', 'Rucksack', 'Löffel', 'Kerze', 'Kiste']",329.23860950022936,329.2410753001459,None,329.2411968000233,335.2450071000494,2,1.4109094003215432,None,335.2453006999567,335.248071399983,None,335.24818500038236,335.24934870004654,335.24936060002074,335.2505332999863,,,,,,,,,,,,,,,,,,,,,,,,,,,,,,,,,,,,,,,,,,,,,,,2,2024-01-16_09h36.54.720,watkins1,2023.2.3,99.7343080095865,87,2024-01-16 09h37.02.647917 +0000,
,,,,,,,,,,,11,0,11,0,,,,,,,,,,,,,335.26382190035656,,,,,,,,,,,,335.25081730028614,335.7400860004127,,,[],[],,,,,,,,,,,,None,None,,,,,,,,,,Fahrrad,hohl,"['Fahrrad', 'hohl']",restudy,2,,,,,,335.2507494003512,335.2507895999588,"['Tasse', 'Hammer', 'Trommel', 'Blume', 'Flasche', 'Buch', 'Tasche', 'Kamera', 'Eimer', 'Ring', 'Geige', 'Fahrrad', 'Kette', 'Telefon', 'Schlüssel', 'Vase', 'Würfel', 'Lampe', 'Jacke', 'Socke', 'Brille', 'Schere', 'Stift', 'Hut', 'Uhr', 'Bürste', 'Rucksack', 'Löffel', 'Kerze', 'Kiste']",335.7400972000323,335.74285429995507,None,335.7429806999862,341.75077800033614,1,1.6129009001888335,None,341.7510838001035,341.75372660020366,None,341.7538348999806,341.75500630028546,341.75501760002226,341.75603240029886,,,,,,,,,,,,,,,,,,,,,,,,,,,,,,,,,,,,,,,,,,,,,,,2,2024-01-16_09h36.54.720,watkins1,2023.2.3,99.7343080095865,87,2024-01-16 09h37.02.647917 +0000,
,,,,,,,,,,,12,0,12,0,,,,,,,,,,,,,341.76929610036314,,,,,,,,,,,,341.7563086003065,342.25225290004164,,,[],[],,,,,,,,,,,,None,None,,,,,,,,,,Kette,sportlich,"['Kette', 'sportlich']",test_sub,2,,,,,,341.756244700402,341.7562822001055,"['Tasse', 'Hammer', 'Trommel', 'Blume', 'Flasche', 'Buch', 'Tasche', 'Kamera', 'Eimer', 'Ring', 'Geige', 'Fahrrad', 'Kette', 'Telefon', 'Schlüssel', 'Vase', 'Würfel', 'Lampe', 'Jacke', 'Socke', 'Brille', 'Schere', 'Stift', 'Hut', 'Uhr', 'Bürste', 'Rucksack', 'Löffel', 'Kerze', 'Kiste']",342.2522761002183,342.2547361003235,None,342.2548557999544,342.256248800084,None,,,342.2563569000922,342.2577488999814,None,342.2578531000763,342.25900420034304,342.2590193003416,348.2675466001965,0,,,,,,,,,,,,,,,,,,,,,,,,,,,,,,,,,,,,,,,,,,,,,,2,2024-01-16_09h36.54.720,watkins1,2023.2.3,99.7343080095865,87,2024-01-16 09h37.02.647917 +0000,
,,,,,,,,,,,13,0,13,0,,,,,,,,,,,,,348.2807687004097,,,,,,,,,,,,348.2678194004111,348.7582521000877,,,[],[],,,,,,,,,,,,2.3818060997873545,None,,,,,telefon,,,,,Telefon,neu,"['Telefon', 'neu']",test_sub,2,,,,,,348.2677541002631,348.2677901000716,"['Tasse', 'Hammer', 'Trommel', 'Blume', 'Flasche', 'Buch', 'Tasche', 'Kamera', 'Eimer', 'Ring', 'Geige', 'Fahrrad', 'Kette', 'Telefon', 'Schlüssel', 'Vase', 'Würfel', 'Lampe', 'Jacke', 'Socke', 'Brille', 'Schere', 'Stift', 'Hut', 'Uhr', 'Bürste', 'Rucksack', 'Löffel', 'Kerze', 'Kiste']",348.7582632000558,348.7610607002862,None,348.7611845000647,348.76377250021324,None,,,348.7638802002184,348.76716160029173,None,348.7672670003958,348.76843900000677,348.7684511002153,354.7744962000288,0,,,,,,,,,,,,,,,,,,,,,,,,,,,,,,,,,,,,,,,,,,,,,,2,2024-01-16_09h36.54.720,watkins1,2023.2.3,99.7343080095865,87,2024-01-16 09h37.02.647917 +0000,
,,,,,,,,,,,14,0,14,0,,,,,,,,,,,,,354.78772000037134,,,,,,,,,,,,354.7747785001993,355.26643140008673,,,[],[],,,,,,,,,,,,None,None,,,,,,,,,,Schlüssel,breit,"['Schlüssel', 'breit']",test_sub,2,,,,,,354.7747113001533,354.77474920032546,"['Tasse', 'Hammer', 'Trommel', 'Blume', 'Flasche', 'Buch', 'Tasche', 'Kamera', 'Eimer', 'Ring', 'Geige', 'Fahrrad', 'Kette', 'Telefon', 'Schlüssel', 'Vase', 'Würfel', 'Lampe', 'Jacke', 'Socke', 'Brille', 'Schere', 'Stift', 'Hut', 'Uhr', 'Bürste', 'Rucksack', 'Löffel', 'Kerze', 'Kiste']",355.2664424004033,355.2690726001747,None,355.2691979999654,355.2716485001147,None,,,355.2717597000301,355.27432220010087,None,355.2744287000969,355.2756600002758,355.27567240037024,361.2846670001745,0,,,,,,,,,,,,,,,,,,,,,,,,,,,,,,,,,,,,,,,,,,,,,,2,2024-01-16_09h36.54.720,watkins1,2023.2.3,99.7343080095865,87,2024-01-16 09h37.02.647917 +0000,
,,,,,,,,,,,15,0,15,0,,,,,,,,,,,,,361.29790490027517,,,,,,,,,,,,361.28494160017,361.7764314003289,,,[],[],,,,,,,,,,,,1.5070343003608286,None,,,,,vase,,,,,Vase,elegant,"['Vase', 'elegant']",test_sub,2,,,,,,361.28487510001287,361.28491290006787,"['Tasse', 'Hammer', 'Trommel', 'Blume', 'Flasche', 'Buch', 'Tasche', 'Kamera', 'Eimer', 'Ring', 'Geige', 'Fahrrad', 'Kette', 'Telefon', 'Schlüssel', 'Vase', 'Würfel', 'Lampe', 'Jacke', 'Socke', 'Brille', 'Schere', 'Stift', 'Hut', 'Uhr', 'Bürste', 'Rucksack', 'Löffel', 'Kerze', 'Kiste']",361.7764423000626,361.7790855001658,None,361.77921129995957,361.78177100000903,None,,,361.7818858004175,361.78428430017084,None,361.7843927000649,361.7854471001774,361.785459600389,367.78706900030375,0,,,,,,,,,,,,,,,,,,,,,,,,,,,,,,,,,,,,,,,,,,,,,,2,2024-01-16_09h36.54.720,watkins1,2023.2.3,99.7343080095865,87,2024-01-16 09h37.02.647917 +0000,
,,,,,,,,,,,16,0,16,0,,,,,,,,,,,,,367.8002973003313,,,,,,,,,,,,367.787346099969,368.2771141002886,,,[],[],,,,,,,,,,,,None,None,,,,,,,,,,Würfel,kurz,"['Würfel', 'kurz']",restudy,2,,,,,,367.7872799001634,367.78731760010123,"['Tasse', 'Hammer', 'Trommel', 'Blume', 'Flasche', 'Buch', 'Tasche', 'Kamera', 'Eimer', 'Ring', 'Geige', 'Fahrrad', 'Kette', 'Telefon', 'Schlüssel', 'Vase', 'Würfel', 'Lampe', 'Jacke', 'Socke', 'Brille', 'Schere', 'Stift', 'Hut', 'Uhr', 'Bürste', 'Rucksack', 'Löffel', 'Kerze', 'Kiste']",368.27712500002235,368.27984350034967,None,368.2799686002545,374.28083880012855,1,2.572107399813831,None,374.28113600006327,374.28380900016055,None,374.2839214000851,374.28510810015723,374.28511970024556,374.28646400012076,,,,,,,,,,,,,,,,,,,,,,,,,,,,,,,,,,,,,,,,,,,,,,,2,2024-01-16_09h36.54.720,watkins1,2023.2.3,99.7343080095865,87,2024-01-16 09h37.02.647917 +0000,
,,,,,,,,,,,17,0,17,0,,,,,,,,,,,,,374.2997620999813,,,,,,,,,,,,374.28674630029127,374.78297020029277,,,[],[],,,,,,,,,,,,None,None,,,,,,,,,,Lampe,niedlich,"['Lampe', 'niedlich']",restudy,2,,,,,,374.28668120037764,374.2867195000872,"['Tasse', 'Hammer', 'Trommel', 'Blume', 'Flasche', 'Buch', 'Tasche', 'Kamera', 'Eimer', 'Ring', 'Geige', 'Fahrrad', 'Kette', 'Telefon', 'Schlüssel', 'Vase', 'Würfel', 'Lampe', 'Jacke', 'Socke', 'Brille', 'Schere', 'Stift', 'Hut', 'Uhr', 'Bürste', 'Rucksack', 'Löffel', 'Kerze', 'Kiste']",374.7829811000265,374.7855287003331,None,374.7856519999914,380.79400300001726,1,1.2343140002340078,None,380.79430680023506,380.7970624002628,None,380.79717930033803,380.79835130041465,380.79836330004036,380.79960749996826,,,,,,,,,,,,,,,,,,,,,,,,,,,,,,,,,,,,,,,,,,,,,,,2,2024-01-16_09h36.54.720,watkins1,2023.2.3,99.7343080095865,87,2024-01-16 09h37.02.647917 +0000,
,,,,,,,,,,,18,0,18,0,,,,,,,,,,,,,380.81291470024735,,,,,,,,,,,,380.79989430028945,381.2899720002897,,,[],[],,,,,,,,,,,,4.929241099860519,None,,,,,tasche,,,,,Jacke,lustig,"['Jacke', 'lustig']",test_sub,2,,,,,,380.79982830025256,380.79986710008234,"['Tasse', 'Hammer', 'Trommel', 'Blume', 'Flasche', 'Buch', 'Tasche', 'Kamera', 'Eimer', 'Ring', 'Geige', 'Fahrrad', 'Kette', 'Telefon', 'Schlüssel', 'Vase', 'Würfel', 'Lampe', 'Jacke', 'Socke', 'Brille', 'Schere', 'Stift', 'Hut', 'Uhr', 'Bürste', 'Rucksack', 'Löffel', 'Kerze', 'Kiste']",381.2899819002487,381.292699099984,None,381.292823900003,381.2942586001009,None,,,381.29436770034954,381.29581500031054,None,381.2959245000966,381.29710370022804,381.29711610032246,387.3022733000107,0,,,,,,,,,,,,,,,,,,,,,,,,,,,,,,,,,,,,,,,,,,,,,,2,2024-01-16_09h36.54.720,watkins1,2023.2.3,99.7343080095865,87,2024-01-16 09h37.02.647917 +0000,
,,,,,,,,,,,19,0,19,0,,,,,,,,,,,,,387.3155036000535,,,,,,,,,,,,387.30254750000313,387.79378720000386,,,[],[],,,,,,,,,,,,None,None,,,,,,,,,,Socke,hübsch,"['Socke', 'hübsch']",test_sub,2,,,,,,387.3024802999571,387.302517300006,"['Tasse', 'Hammer', 'Trommel', 'Blume', 'Flasche', 'Buch', 'Tasche', 'Kamera', 'Eimer', 'Ring', 'Geige', 'Fahrrad', 'Kette', 'Telefon', 'Schlüssel', 'Vase', 'Würfel', 'Lampe', 'Jacke', 'Socke', 'Brille', 'Schere', 'Stift', 'Hut', 'Uhr', 'Bürste', 'Rucksack', 'Löffel', 'Kerze', 'Kiste']",387.7937985002063,387.7964345002547,None,387.7965582003817,387.7990228002891,None,,,387.7991289002821,387.8017196999863,None,387.80182590009645,387.8029583003372,387.8029702003114,393.80461600003764,0,,,,,,,,,,,,,,,,,,,,,,,,,,,,,,,,,,,,,,,,,,,,,,2,2024-01-16_09h36.54.720,watkins1,2023.2.3,99.7343080095865,87,2024-01-16 09h37.02.647917 +0000,
,,,,,,,,,,,20,0,20,0,,,,,,,,,,,,,393.8177724000998,,,,,,,,,,,,393.80490350024775,394.30645930022,,,[],[],,,,,,,,,,,,1.9761199997738004,None,,,,,brille,,,,,Brille,blass,"['Brille', 'blass']",test_sub,2,,,,,,393.80483600031585,393.80487400013953,"['Tasse', 'Hammer', 'Trommel', 'Blume', 'Flasche', 'Buch', 'Tasche', 'Kamera', 'Eimer', 'Ring', 'Geige', 'Fahrrad', 'Kette', 'Telefon', 'Schlüssel', 'Vase', 'Würfel', 'Lampe', 'Jacke', 'Socke', 'Brille', 'Schere', 'Stift', 'Hut', 'Uhr', 'Bürste', 'Rucksack', 'Löffel', 'Kerze', 'Kiste']",394.3064675000496,394.3092122999951,None,394.3093390003778,394.3119039000012,None,,,394.3120170002803,394.31457540020347,None,394.3146842001006,394.3158769002184,394.31588920019567,400.3240188001655,0,,,,,,,,,,,,,,,,,,,,,,,,,,,,,,,,,,,,,,,,,,,,,,2,2024-01-16_09h36.54.720,watkins1,2023.2.3,99.7343080095865,87,2024-01-16 09h37.02.647917 +0000,
,,,,,,,,,,,21,0,21,0,,,,,,,,,,,,,400.3372733001597,,,,,,,,,,,,400.32430380024016,400.8138306001201,,,[],[],,,,,,,,,,,,None,None,,,,,,,,,,Schere,flach,"['Schere', 'flach']",restudy,2,,,,,,400.32423480041325,400.3242731001228,"['Tasse', 'Hammer', 'Trommel', 'Blume', 'Flasche', 'Buch', 'Tasche', 'Kamera', 'Eimer', 'Ring', 'Geige', 'Fahrrad', 'Kette', 'Telefon', 'Schlüssel', 'Vase', 'Würfel', 'Lampe', 'Jacke', 'Socke', 'Brille', 'Schere', 'Stift', 'Hut', 'Uhr', 'Bürste', 'Rucksack', 'Löffel', 'Kerze', 'Kiste']",400.81384170008823,400.8165354002267,None,400.81666470039636,406.8330503003672,3,1.971110800281167,None,406.833352799993,406.83609200036153,None,406.83620260003954,406.8373670000583,406.8373789000325,406.83882050029933,,,,,,,,,,,,,,,,,,,,,,,,,,,,,,,,,,,,,,,,,,,,,,,2,2024-01-16_09h36.54.720,watkins1,2023.2.3,99.7343080095865,87,2024-01-16 09h37.02.647917 +0000,
,,,,,,,,,,,22,0,22,0,,,,,,,,,,,,,406.8521118001081,,,,,,,,,,,,406.83909999998286,407.3286981000565,,,[],[],,,,,,,,,,,,None,None,,,,,,,,,,Stift,flauschig,"['Stift', 'flauschig']",restudy,2,,,,,,406.8390345000662,406.83907260000706,"['Tasse', 'Hammer', 'Trommel', 'Blume', 'Flasche', 'Buch', 'Tasche', 'Kamera', 'Eimer', 'Ring', 'Geige', 'Fahrrad', 'Kette', 'Telefon', 'Schlüssel', 'Vase', 'Würfel', 'Lampe', 'Jacke', 'Socke', 'Brille', 'Schere', 'Stift', 'Hut', 'Uhr', 'Bürste', 'Rucksack', 'Löffel', 'Kerze', 'Kiste']",407.3287093001418,407.3313279002905,None,407.331451700069,413.3336122999899,1,1.408532400149852,None,413.3338999999687,413.3366039004177,None,413.3367151003331,413.3378643002361,413.33787599997595,413.3390920003876,,,,,,,,,,,,,,,,,,,,,,,,,,,,,,,,,,,,,,,,,,,,,,,2,2024-01-16_09h36.54.720,watkins1,2023.2.3,99.7343080095865,87,2024-01-16 09h37.02.647917 +0000,
,,,,,,,,,,,23,0,23,0,,,,,,,,,,,,,413.35239760018885,,,,,,,,,,,,413.33937360020354,413.8409019000828,,,[],[],,,,,,,,,,,,None,None,,,,,,,,,,Hut,winzig,"['Hut', 'winzig']",restudy,2,,,,,,413.339309300296,413.339347100351,"['Tasse', 'Hammer', 'Trommel', 'Blume', 'Flasche', 'Buch', 'Tasche', 'Kamera', 'Eimer', 'Ring', 'Geige', 'Fahrrad', 'Kette', 'Telefon', 'Schlüssel', 'Vase', 'Würfel', 'Lampe', 'Jacke', 'Socke', 'Brille', 'Schere', 'Stift', 'Hut', 'Uhr', 'Bürste', 'Rucksack', 'Löffel', 'Kerze', 'Kiste']",413.8409103001468,413.8435066002421,None,413.84363170014694,419.86078990017995,1,1.208402100019157,None,419.86108280019835,419.86357820034027,None,419.8636898002587,419.8646929003298,419.8647046000697,419.8658543000929,,,,,,,,,,,,,,,,,,,,,,,,,,,,,,,,,,,,,,,,,,,,,,,2,2024-01-16_09h36.54.720,watkins1,2023.2.3,99.7343080095865,87,2024-01-16 09h37.02.647917 +0000,
,,,,,,,,,,,24,0,24,0,,,,,,,,,,,,,419.8795692999847,,,,,,,,,,,,419.8661333001219,420.3559406003915,,,[],[],,,,,,,,,,,,None,None,,,,,,,,,,Uhr,sauber,"['Uhr', 'sauber']",test_sub,2,,,,,,419.86606879998,419.86610650038347,"['Tasse', 'Hammer', 'Trommel', 'Blume', 'Flasche', 'Buch', 'Tasche', 'Kamera', 'Eimer', 'Ring', 'Geige', 'Fahrrad', 'Kette', 'Telefon', 'Schlüssel', 'Vase', 'Würfel', 'Lampe', 'Jacke', 'Socke', 'Brille', 'Schere', 'Stift', 'Hut', 'Uhr', 'Bürste', 'Rucksack', 'Löffel', 'Kerze', 'Kiste']",420.3559517003596,420.35897359997034,None,420.3590975999832,420.36036070017144,None,,,420.36046890029684,420.3617275999859,None,420.361834499985,420.3628440001048,420.3628565999679,426.36854170029983,0,,,,,,,,,,,,,,,,,,,,,,,,,,,,,,,,,,,,,,,,,,,,,,2,2024-01-16_09h36.54.720,watkins1,2023.2.3,99.7343080095865,87,2024-01-16 09h37.02.647917 +0000,
,,,,,,,,,,,25,0,25,0,,,,,,,,,,,,,426.38176210038364,,,,,,,,,,,,426.3688173000701,426.8592295004055,,,[],[],,,,,,,,,,,,None,None,,,,,,,,,,Bürste,strahlend,"['Bürste', 'strahlend']",test_sub,2,,,,,,426.36875290004537,426.36878930032253,"['Tasse', 'Hammer', 'Trommel', 'Blume', 'Flasche', 'Buch', 'Tasche', 'Kamera', 'Eimer', 'Ring', 'Geige', 'Fahrrad', 'Kette', 'Telefon', 'Schlüssel', 'Vase', 'Würfel', 'Lampe', 'Jacke', 'Socke', 'Brille', 'Schere', 'Stift', 'Hut', 'Uhr', 'Bürste', 'Rucksack', 'Löffel', 'Kerze', 'Kiste']",426.85924030002207,426.86199610028416,None,426.86212099995464,426.8647909001447,None,,,426.86490040039644,426.86745090037584,None,426.8675609002821,426.86874630022794,426.86875890009105,432.8779234001413,0,,,,,,,,,,,,,,,,,,,,,,,,,,,,,,,,,,,,,,,,,,,,,,2,2024-01-16_09h36.54.720,watkins1,2023.2.3,99.7343080095865,87,2024-01-16 09h37.02.647917 +0000,
,,,,,,,,,,,26,0,26,0,,,,,,,,,,,,,432.8911513001658,,,,,,,,,,,,432.8781946999952,433.3689254000783,,,[],[],,,,,,,,,,,,1.5777497999370098,4.785508499946445,,,,,ruck,,,,,Rucksack,gestreift,"['Rucksack', 'gestreift']",test_sub,2,,,,,,432.8781310003251,432.8781665000133,"['Tasse', 'Hammer', 'Trommel', 'Blume', 'Flasche', 'Buch', 'Tasche', 'Kamera', 'Eimer', 'Ring', 'Geige', 'Fahrrad', 'Kette', 'Telefon', 'Schlüssel', 'Vase', 'Würfel', 'Lampe', 'Jacke', 'Socke', 'Brille', 'Schere', 'Stift', 'Hut', 'Uhr', 'Bürste', 'Rucksack', 'Löffel', 'Kerze', 'Kiste']",433.36893520038575,433.3716931003146,None,433.3718126001768,433.37438500020653,None,,,433.37449590023607,433.3773183003068,None,433.377427500207,433.37862580036744,433.37863790011033,439.3926913002506,0,,,,,,,,,,,,,,,,,,,,,,,,,,,,,,,,,,,,,,,,,,,,,,2,2024-01-16_09h36.54.720,watkins1,2023.2.3,99.7343080095865,87,2024-01-16 09h37.02.647917 +0000,
,,,,,,,,,,,27,0,27,0,,,,,,,,,,,,,439.4059207001701,,,,,,,,,,,,439.39296970004216,439.88272140035406,,,[],[],,,,,,,,,,,,None,None,,,,,,,,,,Löffel,teuer,"['Löffel', 'teuer']",restudy,2,,,,,,439.39290280034766,439.39294140040874,"['Tasse', 'Hammer', 'Trommel', 'Blume', 'Flasche', 'Buch', 'Tasche', 'Kamera', 'Eimer', 'Ring', 'Geige', 'Fahrrad', 'Kette', 'Telefon', 'Schlüssel', 'Vase', 'Würfel', 'Lampe', 'Jacke', 'Socke', 'Brille', 'Schere', 'Stift', 'Hut', 'Uhr', 'Bürste', 'Rucksack', 'Löffel', 'Kerze', 'Kiste']",439.8827317999676,439.88551740022376,None,439.8856410002336,445.9012518003583,2,2.2621723995544016,None,445.90154810016975,445.9043362000957,None,445.9044460002333,445.9056191002019,445.9056308004074,445.907086300198,,,,,,,,,,,,,,,,,,,,,,,,,,,,,,,,,,,,,,,,,,,,,,,2,2024-01-16_09h36.54.720,watkins1,2023.2.3,99.7343080095865,87,2024-01-16 09h37.02.647917 +0000,
,,,,,,,,,,,28,0,28,0,,,,,,,,,,,,,445.92036940017715,,,,,,,,,,,,445.9073664001189,446.40301150036976,,,[],[],,,,,,,,,,,,2.2596246004104614,None,,,,,hund,,,,,Kerze,verspielt,"['Kerze', 'verspielt']",test_sub,2,,,,,,445.907301899977,445.9073403002694,"['Tasse', 'Hammer', 'Trommel', 'Blume', 'Flasche', 'Buch', 'Tasche', 'Kamera', 'Eimer', 'Ring', 'Geige', 'Fahrrad', 'Kette', 'Telefon', 'Schlüssel', 'Vase', 'Würfel', 'Lampe', 'Jacke', 'Socke', 'Brille', 'Schere', 'Stift', 'Hut', 'Uhr', 'Bürste', 'Rucksack', 'Löffel', 'Kerze', 'Kiste']",446.4030217002146,446.4056664002128,None,446.4057901003398,446.4072123002261,None,,,446.4073248002678,446.4088612999767,None,446.40896910009906,446.41011920012534,446.4101321999915,452.42008040007204,0,,,,,,,,,,,,,,,,,,,,,,,,,,,,,,,,,,,,,,,,,,,,,,2,2024-01-16_09h36.54.720,watkins1,2023.2.3,99.7343080095865,87,2024-01-16 09h37.02.647917 +0000,
,,,,,,,,,,,29,0,29,0,,,,,,,,,,,,,452.4333907002583,,,,,,,,,,,,452.4203668003902,452.9109447002411,,,[],[],,,,,,,,,,,,None,None,,,,,,,,,,Kiste,gepunktet,"['Kiste', 'gepunktet']",restudy,2,,,,,,452.4202988999896,452.420337700285,"['Tasse', 'Hammer', 'Trommel', 'Blume', 'Flasche', 'Buch', 'Tasche', 'Kamera', 'Eimer', 'Ring', 'Geige', 'Fahrrad', 'Kette', 'Telefon', 'Schlüssel', 'Vase', 'Würfel', 'Lampe', 'Jacke', 'Socke', 'Brille', 'Schere', 'Stift', 'Hut', 'Uhr', 'Bürste', 'Rucksack', 'Löffel', 'Kerze', 'Kiste']",452.91095460020006,452.91370610008016,None,452.9138287003152,458.9183072000742,2,2.7220189999789,None,458.9186042002402,458.9213706003502,None,458.9214827003889,458.92279290035367,458.92280500009656,458.9243550002575,,,,,,,,,,,,,,,,,,,,,,,,,,,,,,,,,,,,,,,,,,,,,,,2,2024-01-16_09h36.54.720,watkins1,2023.2.3,99.7343080095865,87,2024-01-16 09h37.02.647917 +0000,
,,,,,,,,,,,,,,,,,,,,,,,,,,,,,,,,,,,,,,,,,,,,,,,,,,,,,,,,,,,,,,,,,,,,,,,2,,,,,,,,,,,,,,,,,,,,,,,,,,,,,,,,,,,,,,,,,,,,,,,,,,,,,,,,,,,,,,,,,,,,,,2,2024-01-16_09h36.54.720,watkins1,2023.2.3,99.7343080095865,87,2024-01-16 09h37.02.647917 +0000,
(6 x 3) + 10 = 27 ,Incorrect,button_incorrect,,,,,,,,,,,,,0,0,0,8,,,,,,,,,483.0593229001388,,,,,,,,,,481.979591100011,482.98301970027387,,,,,['button_incorrect'],[5.98535169987008],,,,,,,,,,,,,,,,,,,,,,,,,,distractorTask,2,,,,,,,,,,,,,,,,,,,,,,,,,483.0409714002162,483.0593229001388,489.03580790013075,[-0.3138888888888889],[-0.40370370370370373],[1],[0],[0],[5.98535169987008],['button_incorrect'],489.03648360027,490.0394294001162,,,,,,,,,,,,,,,,,,,,,,,,,,,,,,,,,,2,2024-01-16_09h36.54.720,watkins1,2023.2.3,99.7343080095865,87,2024-01-16 09h37.02.647917 +0000,
(80 : 10) + 9 = 17 ,Correct,button_correct,,,,,,,,,,,,,0,1,1,3,,,,,,,,,490.0494638001546,,,,,,,,,,,,,,,,['button_correct'],[3.9940455998294055],,,,,,,,,,,,,,,,,,,,,,,,,,distractorTask,2,,,,,,,,,,,,,,,,,,,,,,,,,490.03962550032884,490.0494638001546,494.037119100336,[0.387037037037037],[-0.3888888888888889],[1],[0],[0],[3.9940455998294055],['button_correct'],494.0375039000064,495.04075110005215,,,,,,,,,,,,,,,,,,,,,,,,,,,,,,,,,,2,2024-01-16_09h36.54.720,watkins1,2023.2.3,99.7343080095865,87,2024-01-16 09h37.02.647917 +0000,
(28 : 7) - 3 = 1 ,Correct,button_correct,,,,,,,,,,,,,0,2,2,0,,,,,,,,,495.050788000226,,,,,,,,,,,,,,,,['button_incorrect'],[5.139197699725628],,,,,,,,,,,,,,,,,,,,,,,,,,distractorTask,2,,,,,,,,,,,,,,,,,,,,,,,,,495.04094730038196,495.050788000226,500.1825998001732,[-0.3212962962962963],[-0.3962962962962963],[1],[0],[0],[5.139197699725628],['button_incorrect'],500.182993600145,501.18622509995475,,,,,,,,,,,,,,,,,,,,,,,,,,,,,,,,,,2,2024-01-16_09h36.54.720,watkins1,2023.2.3,99.7343080095865,87,2024-01-16 09h37.02.647917 +0000,
(54 : 6) - 10 = 0 ,Incorrect,button_incorrect,,,,,,,,,,,,,0,3,3,5,,,,,,,,,501.1961923004128,,,,,,,,,,,,,,,,['button_incorrect'],[6.062857799697667],,,,,,,,,,,,,,,,,,,,,,,,,,distractorTask,2,,,,,,,,,,,,,,,,,,,,,,,,,501.18644020007923,501.1961923004128,507.25179990008473,[-0.3074074074074074],[-0.41759259259259257],[1],[0],[0],[6.062857799697667],['button_incorrect'],507.2521928003989,508.2557787001133,,,,,,,,,,,,,,,,,,,,,,,,,,,,,,,,,,2,2024-01-16_09h36.54.720,watkins1,2023.2.3,99.7343080095865,87,2024-01-16 09h37.02.647917 +0000,
(9 x 5) - 9 = 36 ,Correct,button_correct,,,,,,,,,,,,,0,4,4,4,,,,,,,,,508.26575070014223,,,,,,,,,,,,,,,,['button_incorrect'],[5.692133900243789],,,,,,,,,,,,,,,,,,,,,,,,,,distractorTask,2,,,,,,,,,,,,,,,,,,,,,,,,,508.25597409997135,508.26575070014223,513.9498104001395,[-0.31851851851851853],[-0.4148148148148148],[1],[0],[0],[5.692133900243789],['button_incorrect'],513.9501901003532,514.9535461002961,,,,,,,,,,,,,,,,,,,,,,,,,,,,,,,,,,2,2024-01-16_09h36.54.720,watkins1,2023.2.3,99.7343080095865,87,2024-01-16 09h37.02.647917 +0000,
(25 : 5) + 5 = 9 ,Incorrect,button_incorrect,,,,,,,,,,,,,0,5,5,6,,,,,,,,,514.963529100176,,,,,,,,,,,,,,,,['button_incorrect'],[4.246103300247341],,,,,,,,,,,,,,,,,,,,,,,,,,distractorTask,2,,,,,,,,,,,,,,,,,,,,,,,,,514.9537405003794,514.963529100176,519.2015533000231,[-0.30092592592592593],[-0.40555555555555556],[1],[0],[0],[4.246103300247341],['button_incorrect'],519.2019398002885,520.2051729001105,,,,,,,,,,,,,,,,,,,,,,,,,,,,,,,,,,2,2024-01-16_09h36.54.720,watkins1,2023.2.3,99.7343080095865,87,2024-01-16 09h37.02.647917 +0000,
(40 : 5) + 8 = 15 ,Incorrect,button_incorrect,,,,,,,,,,,,,0,6,6,7,,,,,,,,,520.2151242000982,,,,,,,,,,,,,,,,['button_incorrect'],[10.301390499807894],,,,,,,,,,,,,,,,,,,,,,,,,,distractorTask,2,,,,,,,,,,,,,,,,,,,,,,,,,520.2053636000492,520.2151242000982,530.5085237002932,[-0.3148148148148148],[-0.38981481481481484],[1],[0],[0],[10.301390499807894],['button_incorrect'],530.5089096999727,531.5120739000849,,,,,,,,,,,,,,,,,,,,,,,,,,,,,,,,,,2,2024-01-16_09h36.54.720,watkins1,2023.2.3,99.7343080095865,87,2024-01-16 09h37.02.647917 +0000,
(7 x 6) + 9 = 48 ,Incorrect,button_incorrect,,,,,,,,,,,,,0,7,7,9,,,,,,,,,531.5220590000972,,,,,,,,,,,,,,,,['button_incorrect'],[5.2603307999670506],,,,,,,,,,,,,,,,,,,,,,,,,,distractorTask,2,,,,,,,,,,,,,,,,,,,,,,,,,531.5122657003812,531.5220590000972,536.7743203002028,[-0.4074074074074074],[-0.39814814814814814],[1],[0],[0],[5.2603307999670506],['button_incorrect'],536.77471040003,537.7778583001345,,,,,,,,,,,,,,,,,,,,,,,,,,,,,,,,,,2,2024-01-16_09h36.54.720,watkins1,2023.2.3,99.7343080095865,87,2024-01-16 09h37.02.647917 +0000,
(4 : 2) + 4 = 6 ,Correct,button_correct,,,,,,,,,,,,,0,8,8,1,,,,,,,,,537.7879395000637,,,,,,,,,,,,,,,,['button_correct'],[4.116634100209922],,,,,,,,,,,,,,,,,,,,,,,,,,distractorTask,2,,,,,,,,,,,,,,,,,,,,,,,,,537.7780520003289,537.7879395000637,541.8964026002213,[0.30277777777777776],[-0.4101851851851852],[1],[0],[0],[4.116634100209922],['button_correct'],541.8967938004062,542.9000946003944,,,,,,,,,,,,,,,,,,,,,,,,,,,,,,,,,,2,2024-01-16_09h36.54.720,watkins1,2023.2.3,99.7343080095865,87,2024-01-16 09h37.02.647917 +0000,
(2 x 5) + 3 = 13 ,Correct,button_correct,,,,,,,,,,,,,0,9,9,2,,,,,,,,,542.9100813004188,,,,,,,,,,,,,,,,['button_correct'],[2.7896748003549874],,,,,,,,,,,,,,,,,,,,,,,,,,distractorTask,2,,,,,,,,,,,,,,,,,,,,,,,,,542.9002852002159,542.9100813004188,545.6919096000493,[0.375],[-0.41759259259259257],[1],[0],[0],[2.7896748003549874],['button_correct'],545.6922940001823,546.6956854001619,,,,,,,,,,,,,,,,,,,,,,,,,,,,,,,,,,2,2024-01-16_09h36.54.720,watkins1,2023.2.3,99.7343080095865,87,2024-01-16 09h37.02.647917 +0000,
,,,,,,,,,,,,,,,,,,,,,,,,,,,,,,,,,,,,,,,,,,,,,,,,,,,,,,,,,,,,,,,,,,,,,,,2,,,,,,,,,,,,,,,,,,,,,,,,,,,,,,,,,,,,,,,,,,,,,,,,,,,,,,,,,,,,,,,,,,,,,,2,2024-01-16_09h36.54.720,watkins1,2023.2.3,99.7343080095865,87,2024-01-16 09h37.02.647917 +0000,
,,,,,,,,,,,,,,,,,,,0,0,0,0,,,,,559.7076099002734,,,,,,,,,,,,,,,,hund,6.494788300246,,,,,,,,,,,,4.839515599887818,None,,,,,,,,,,,,,freeRecallSub,2,,,,,,,,,,,,,,,,,,,,,,,,,,,,,,,,,,,,,559.6991620999761,559.7076099002734,559.7076099002734,566.2047936003655,return,6.494788300246,None,hund,[0.06481481481481481],[0.05555555555555555],[1],[0],[0],[3.703739000018686],[],,,,,,,,,,,,,,,,,,,2,2024-01-16_09h36.54.720,watkins1,2023.2.3,99.7343080095865,87,2024-01-16 09h37.02.647917 +0000,
,,,,,,,,,,,,,,,,,,,1,0,1,0,,,,,566.2169429999776,,,,,,,,,,,,,,,,vase,1.8654459998942912,,,,,,,,,,,,1.0968188000842929,None,,,,,,,,,,,,,freeRecallSub,2,,,,,,,,,,,,,,,,,,,,,,,,,,,,,,,,,,,,,566.2065220000222,566.2169429999776,566.2169429999776,568.0866891001351,return,1.8654459998942912,None,vase,[],[],[],[],[],[],[],,,,,,,,,,,,,,,,,,,2,2024-01-16_09h36.54.720,watkins1,2023.2.3,99.7343080095865,87,2024-01-16 09h37.02.647917 +0000,
,,,,,,,,,,,,,,,,,,,2,0,2,0,,,,,568.0974201001227,,,,,,,,,,,,,,,,tasche,4.224988900125027,,,,,,,,,,,,3.2434719000011683,None,,,,,,,,,,,,,freeRecallSub,2,,,,,,,,,,,,,,,,,,,,,,,,,,,,,,,,,,,,,568.0879418002442,568.0974201001227,568.0974201001227,572.325521599967,return,4.224988900125027,None,tasche,[],[],[],[],[],[],[],,,,,,,,,,,,,,,,,,,2,2024-01-16_09h36.54.720,watkins1,2023.2.3,99.7343080095865,87,2024-01-16 09h37.02.647917 +0000,
,,,,,,,,,,,,,,,,,,,3,0,3,0,,,,,572.3362901001237,,,,,,,,,,,,,,,,rucksack,2.026094399858266,,,,,,,,,,,,0.4421215998008847,None,,,,,,,,,,,,,freeRecallSub,2,,,,,,,,,,,,,,,,,,,,,,,,,,,,,,,,,,,,,572.3267788002267,572.3362901001237,572.3362901001237,574.3655528002419,return,2.026094399858266,None,rucksack,[],[],[],[],[],[],[],,,,,,,,,,,,,,,,,,,2,2024-01-16_09h36.54.720,watkins1,2023.2.3,99.7343080095865,87,2024-01-16 09h37.02.647917 +0000,
,,,,,,,,,,,,,,,,,,,4,0,4,0,,,,,574.3767006001435,,,,,,,,,,,,,,,,brille,2.937694899737835,,,,,,,,,,,,1.6373022999614477,None,,,,,,,,,,,,,freeRecallSub,2,,,,,,,,,,,,,,,,,,,,,,,,,,,,,,,,,,,,,574.3667981000617,574.3767006001435,574.3767006001435,577.319575200323,return,2.937694899737835,None,brille,[],[],[],[],[],[],[],,,,,,,,,,,,,,,,,,,2,2024-01-16_09h36.54.720,watkins1,2023.2.3,99.7343080095865,87,2024-01-16 09h37.02.647917 +0000,
,,,,,,,,,,,,,,,,,,,5,0,5,0,,,,,577.3310003001243,,,,,,,,,,,,,,,,hammer,3.9113766998052597,,,,,,,,,,,,3.033637700136751,None,,,,,,,,,,,,,freeRecallSub,2,,,,,,,,,,,,,,,,,,,,,,,,,,,,,,,,,,,,,577.3208245001733,577.3310003001243,577.3310003001243,581.2482278002426,return,3.9113766998052597,None,hammer,[],[],[],[],[],[],[],,,,,,,,,,,,,,,,,,,2,2024-01-16_09h36.54.720,watkins1,2023.2.3,99.7343080095865,87,2024-01-16 09h37.02.647917 +0000,
,,,,,,,,,,,,,,,,,,,6,0,6,0,,,,,581.259642300196,,,,,,,,,,,,,,,,katze,10.486659100279212,,,,,,,,,,,,8.407715199980885,None,,,,,,,,,,,,,freeRecallSub,2,,,,,,,,,,,,,,,,,,,,,,,,,,,,,,,,,,,,,581.2494540000334,581.259642300196,581.259642300196,591.7557521001436,return,10.486659100279212,None,katze,[],[],[],[],[],[],[],,,,,,,,,,,,,,,,,,,2,2024-01-16_09h36.54.720,watkins1,2023.2.3,99.7343080095865,87,2024-01-16 09h37.02.647917 +0000,
,,,,,,,,,,,,,,,,,,,7,0,7,0,,,,,591.7676132000051,,,,,,,,,,,,,,,,kiste,12.482744100037962,,,,,,,,,,,,11.469861599616706,None,,,,,,,,,,,,,freeRecallSub,2,,,,,,,,,,,,,,,,,,,,,,,,,,,,,,,,,,,,,591.7570254001766,591.7676132000051,591.7676132000051,604.2512380001135,return,12.482744100037962,None,kiste,[],[],[],[],[],[],[],,,,,,,,,,,,,,,,,,,2,2024-01-16_09h36.54.720,watkins1,2023.2.3,99.7343080095865,87,2024-01-16 09h37.02.647917 +0000,
,,,,,,,,,,,,,,,,,,,8,0,8,0,,,,,604.2628244003281,,,,,,,,,,,,,,,,kamera,11.91550250025466,,,,,,,,,,,,10.735780700109899,None,,,,,,,,,,,,,freeRecallSub,2,,,,,,,,,,,,,,,,,,,,,,,,,,,,,,,,,,,,,604.2524784002453,604.2628244003281,604.2628244003281,616.1836209003814,return,11.91550250025466,None,kamera,[],[],[],[],[],[],[],,,,,,,,,,,,,,,,,,,2,2024-01-16_09h36.54.720,watkins1,2023.2.3,99.7343080095865,87,2024-01-16 09h37.02.647917 +0000,
,,,,,,,,,,,,,,,,,,,9,0,9,0,,,,,616.1953619001433,,,,,,,,,,,,,,,,telefon,2.0149859003722668,,,,,,,,,,,,0.47407619981095195,None,,,,,,,,,,,,,freeRecallSub,2,,,,,,,,,,,,,,,,,,,,,,,,,,,,,,,,,,,,,616.184871500358,616.1953619001433,616.1953619001433,618.2152336002328,return,2.0149859003722668,None,telefon,[],[],[],[],[],[],[],,,,,,,,,,,,,,,,,,,2,2024-01-16_09h36.54.720,watkins1,2023.2.3,99.7343080095865,87,2024-01-16 09h37.02.647917 +0000,
,,,,,,,,,,,,,,,,,,,10,0,10,0,,,,,618.2276425003074,,,,,,,,,,,,,,,,stift,18.814758999738842,,,,,,,,,,,,17.876706100068986,None,,,,,,,,,,,,,freeRecallSub,2,,,,,,,,,,,,,,,,,,,,,,,,,,,,,,,,,,,,,618.2164857001044,618.2276425003074,618.2276425003074,637.0472346004099,return,18.814758999738842,None,stift,[],[],[],[],[],[],[],,,,,,,,,,,,,,,,,,,2,2024-01-16_09h36.54.720,watkins1,2023.2.3,99.7343080095865,87,2024-01-16 09h37.02.647917 +0000,
,,,,,,,,,,,,,,,,,,,11,0,11,0,,,,,637.0596357001923,,,,,,,,,,,,,,,,ring,14.854755399748683,,,,,,,,,,,,13.950944900047034,None,,,,,,,,,,,,,freeRecallSub,2,,,,,,,,,,,,,,,,,,,,,,,,,,,,,,,,,,,,,637.0484915999696,637.0596357001923,637.0596357001923,651.9234202001244,return,14.854755399748683,None,ring,[],[],[],[],[],[],[],,,,,,,,,,,,,,,,,,,2,2024-01-16_09h36.54.720,watkins1,2023.2.3,99.7343080095865,87,2024-01-16 09h37.02.647917 +0000,
,,,,,,,,,,,,,,,,,,,12,0,12,0,,,,,651.9361821999773,,,,,,,,,,,,,,,,jacke,23.02617680002004,,,,,,,,,,,,21.28227740013972,None,,,,,,,,,,,,,freeRecallSub,2,,,,,,,,,,,,,,,,,,,,,,,,,,,,,,,,,,,,,651.9246539999731,651.9361821999773,651.9361821999773,674.9641227000393,return,23.02617680002004,None,jacke,[],[],[],[],[],[],[],,,,,,,,,,,,,,,,,,,2,2024-01-16_09h36.54.720,watkins1,2023.2.3,99.7343080095865,87,2024-01-16 09h37.02.647917 +0000,
,,,,,,,,,,,,,,,,,,,13,0,13,0,,,,,674.9771102000959,,,,,,,,,,,,,,,,hut,3.761360200121999,,,,,,,,,,,,3.1573160998523235,None,,,,,,,,,,,,,freeRecallSub,2,,,,,,,,,,,,,,,,,,,,,,,,,,,,,,,,,,,,,674.9653830002062,674.9771102000959,674.9771102000959,678.7452492001466,return,3.761360200121999,None,hut,[],[],[],[],[],[],[],,,,,,,,,,,,,,,,,,,2,2024-01-16_09h36.54.720,watkins1,2023.2.3,99.7343080095865,87,2024-01-16 09h37.02.647917 +0000,
,,,,,,,,,,,,,,,,,,,14,0,14,0,,,,,678.7585202003829,,,,,,,,,,,,,,,,eimer,17.851860499940813,,,,,,,,,,,,17.04636110039428,None,,,,,,,,,,,,,freeRecallSub,2,,,,,,,,,,,,,,,,,,,,,,,,,,,,,,,,,,,,,678.7465441999957,678.7585202003829,678.7585202003829,696.6163798002526,return,17.851860499940813,None,eimer,[],[],[],[],[],[],[],,,,,,,,,,,,,,,,,,,2,2024-01-16_09h36.54.720,watkins1,2023.2.3,99.7343080095865,87,2024-01-16 09h37.02.647917 +0000,
,,,,,,,,,,,,,,,,,,,15,0,15,0,,,,,696.6298677003942,,,,,,,,,,,,,,,,,[],,,,,,,,,,,,None,None,,,,,,,,,,,,,freeRecallSub,2,,,,,,,,,,,,,,,,,,,,,,,,,,,,,,,,,,,,,696.6176558001898,696.6298677003942,696.6298677003942,771.3622775999829,None,,,,[0.22962962962962963],[-0.39814814814814814],[1],[0],[0],[74.73885610001162],"['button_continue', 'continue_text']",,,,,,,,,,,,,,,,,,,2,2024-01-16_09h36.54.720,watkins1,2023.2.3,99.7343080095865,87,2024-01-16 09h37.02.647917 +0000,
,,,,,,,,,,,,,,,,,,,,,,,,,,,,,,,,,,,,,,,,,,,,,,,,,,,,,,,,,,,,,,,,,,,,,,,2,,,,,,,,,,,,,,,,,,,,,,,,,,,,,,,,,,,,,,,,,,,,,,,,,,,,,,,,,,,,,,,,,,,,,,2,2024-01-16_09h36.54.720,watkins1,2023.2.3,99.7343080095865,87,2024-01-16 09h37.02.647917 +0000,
,,,,,,,,,,,,,,,,,,,,,,,0,0,0,0,777.9199320999905,,,,,,,,,,,,781.4783914000727,781.9769459003583,,,,3.5544218001887202,,,,,,,,,,,,None,None,,,,,,,,,,Eimer,,,cuedRecallAdj,2,,,,,,,,,,,,,,,,,,,,,,,,0,,,,,,,,,,,,,,,,,,,,,,,,,,,,777.9109583999962,777.9199320999905,777.9199320999905,781.4752024002373,nass,return,3.5544218001887202,None,781.4755975003354,781.4846733002923,781.4846733002923,781.4782425002195,,None,,,,,2,2024-01-16_09h36.54.720,watkins1,2023.2.3,99.7343080095865,87,2024-01-16 09h37.02.647917 +0000,
,,,,,,,,,,,,,,,,,,,,,,,1,0,1,0,781.9868878000416,,,,,,,,,,,,784.5908789001405,785.089669900015,,,,2.5994596001692116,,,,,,,,,,,,None,None,,,,,,,,,,Telefon,,,cuedRecallAdj,2,,,,,,,,,,,,,,,,,,,,,,,,0,,,,,,,,,,,,,,,,,,,,,,,,,,,,781.9771871003322,781.9868878000416,781.9868878000416,784.5880042002536,neu,return,2.5994596001692116,None,784.5882645002566,784.5975518003106,784.5975518003106,784.5907807000913,,None,,,,,2,2024-01-16_09h36.54.720,watkins1,2023.2.3,99.7343080095865,87,2024-01-16 09h37.02.647917 +0000,
,,,,,,,,,,,,,,,,,,,,,,,2,0,2,0,785.0996123002842,,,,,,,,,,,,787.5628496003337,788.0617305999622,,,,2.454880999866873,,,,,,,,,,,,None,None,,,,,,,,,,Ring,,,cuedRecallAdj,2,,,,,,,,,,,,,,,,,,,,,,,,0,,,,,,,,,,,,,,,,,,,,,,,,,,,,785.0899108001031,785.0996123002842,785.0996123002842,787.5601459001191,gut,return,2.454880999866873,None,787.5604093000293,787.569693100173,787.569693100173,787.5627496000379,,None,,,,,2,2024-01-16_09h36.54.720,watkins1,2023.2.3,99.7343080095865,87,2024-01-16 09h37.02.647917 +0000,
,,,,,,,,,,,,,,,,,,,,,,,3,0,3,0,788.0716340001673,,,,,,,,,,,,792.9049503002316,793.4036151999608,,,,4.8268136996775866,,,,,,,,,,,,None,None,,,,,,,,,,Socke,,,cuedRecallAdj,2,,,,,,,,,,,,,,,,,,,,,,,,0,,,,,,,,,,,,,,,,,,,,,,,,,,,,788.0619753999636,788.0716340001673,788.0716340001673,792.9019565000199,schön,return,4.8268136996775866,None,792.9022291000001,792.9115167004056,792.9115167004056,792.904849300161,,None,,,,,2,2024-01-16_09h36.54.720,watkins1,2023.2.3,99.7343080095865,87,2024-01-16 09h37.02.647917 +0000,
,,,,,,,,,,,,,,,,,,,,,,,4,0,4,0,793.4135593003593,,,,,,,,,,,,812.6976511999965,813.1961262002587,,,,19.27678000042215,,,,,,,,,,,,None,None,,,,,,,,,,Kette,,,cuedRecallAdj,2,,,,,,,,,,,,,,,,,,,,,,,,0,,,,,,,,,,,,,,,,,,,,,,,,,,,,793.4038551002741,793.4135593003593,793.4135593003593,812.6944624003954,hübsch,return,19.27678000042215,None,812.6947246002965,812.7039539003745,812.7039539003745,812.6975524001755,,None,,,,,2,2024-01-16_09h36.54.720,watkins1,2023.2.3,99.7343080095865,87,2024-01-16 09h37.02.647917 +0000,
,,,,,,,,,,,,,,,,,,,,,,,5,0,5,0,813.2060373001732,,,,,,,,,,,,818.3514092001133,818.8501873002388,,,,5.132442200090736,,,,,,,,,,,,None,None,,,,,,,,,,Schlüssel,,,cuedRecallAdj,2,,,,,,,,,,,,,,,,,,,,,,,,0,,,,,,,,,,,,,,,,,,,,,,,,,,,,813.1963695003651,813.2060373001732,813.2060373001732,818.3483425001614,flach,return,5.132442200090736,None,818.3486061999574,818.3580614002421,818.3580614002421,818.3513077003881,,None,,,,,2,2024-01-16_09h36.54.720,watkins1,2023.2.3,99.7343080095865,87,2024-01-16 09h37.02.647917 +0000,
,,,,,,,,,,,,,,,,,,,,,,,6,0,6,0,818.8601308003999,,,,,,,,,,,,838.5952373002656,839.0852638003416,,,,19.726323500275612,,,,,,,,,,,,None,None,,,,,,,,,,Kerze,,,cuedRecallAdj,2,,,,,,,,,,,,,,,,,,,,,,,,0,,,,,,,,,,,,,,,,,,,,,,,,,,,,818.850431300234,818.8601308003999,818.8601308003999,838.5929606002755,,return,19.726323500275612,None,838.5932387001812,838.6024562004022,838.6024562004022,838.595135900192,,None,,,,,2,2024-01-16_09h36.54.720,watkins1,2023.2.3,99.7343080095865,87,2024-01-16 09h37.02.647917 +0000,
,,,,,,,,,,,,,,,,,,,,,,,7,0,7,0,839.09517710004,,,,,,,,,,,,843.8290695003234,844.3278726004064,,,,4.723124000243843,,,,,,,,,,,,None,None,,,,,,,,,,Blume,,,cuedRecallAdj,2,,,,,,,,,,,,,,,,,,,,,,,,0,,,,,,,,,,,,,,,,,,,,,,,,,,,,839.0855113002472,839.09517710004,839.09517710004,843.8260250003077,rustikal,return,4.723124000243843,None,843.8262912002392,843.8357251002453,843.8357251002453,843.8289668001235,,None,,,,,2,2024-01-16_09h36.54.720,watkins1,2023.2.3,99.7343080095865,87,2024-01-16 09h37.02.647917 +0000,
,,,,,,,,,,,,,,,,,,,,,,,8,0,8,0,844.3378211003728,,,,,,,,,,,,853.800635300111,854.2988950000145,,,,9.45661719981581,,,,,,,,,,,,None,None,,,,,,,,,,Kamera,,,cuedRecallAdj,2,,,,,,,,,,,,,,,,,,,,,,,,0,,,,,,,,,,,,,,,,,,,,,,,,,,,,844.3281098003499,844.3378211003728,844.3378211003728,853.7972822999582,einfach,return,9.45661719981581,None,853.7975616999902,853.8068208000623,853.8068208000623,853.8005335000344,,None,,,,,2,2024-01-16_09h36.54.720,watkins1,2023.2.3,99.7343080095865,87,2024-01-16 09h37.02.647917 +0000,
,,,,,,,,,,,,,,,,,,,,,,,9,0,9,0,854.3088424000889,,,,,,,,,,,,857.4850984001532,857.9839088004082,,,,3.165546600241214,,,,,,,,,,,,None,None,,,,,,,,,,Löffel,,,cuedRecallAdj,2,,,,,,,,,,,,,,,,,,,,,,,,0,,,,,,,,,,,,,,,,,,,,,,,,,,,,854.2991406000219,854.3088424000889,854.3088424000889,857.4820834002458,teuer,return,3.165546600241214,None,857.4823504001833,857.4917705003172,857.4917705003172,857.4849976999685,,None,,,,,2,2024-01-16_09h36.54.720,watkins1,2023.2.3,99.7343080095865,87,2024-01-16 09h37.02.647917 +0000,
,,,,,,,,,,,,,,,,,,,,,,,10,0,10,0,857.9938602000475,,,,,,,,,,,,863.2393835000694,863.7381013003178,,,,5.232475699856877,,,,,,,,,,,,None,None,,,,,,,,,,Rucksack,,,cuedRecallAdj,2,,,,,,,,,,,,,,,,,,,,,,,,0,,,,,,,,,,,,,,,,,,,,,,,,,,,,857.9841548004188,857.9938602000475,857.9938602000475,863.2362745003775,gestreift,return,5.232475699856877,None,863.2365380004048,863.2460384001024,863.2460384001024,863.2392832003534,,None,,,,,2,2024-01-16_09h36.54.720,watkins1,2023.2.3,99.7343080095865,87,2024-01-16 09h37.02.647917 +0000,
,,,,,,,,,,,,,,,,,,,,,,,11,0,11,0,863.7480473001488,,,,,,,,,,,,867.7182981004007,868.2164649004117,,,,3.9663975001312792,,,,,,,,,,,,None,None,,,,,,,,,,Kiste,,,cuedRecallAdj,2,,,,,,,,,,,,,,,,,,,,,,,,0,,,,,,,,,,,,,,,,,,,,,,,,,,,,863.7383477999829,863.7480473001488,863.7480473001488,867.7150492002256,gepunktet,return,3.9663975001312792,None,867.715331800282,867.7243209001608,867.7243209001608,867.7181884003803,,None,,,,,2,2024-01-16_09h36.54.720,watkins1,2023.2.3,99.7343080095865,87,2024-01-16 09h37.02.647917 +0000,
,,,,,,,,,,,,,,,,,,,,,,,12,0,12,0,868.2264153002761,,,,,,,,,,,,871.6744550000876,872.1730800000951,,,,3.4399477001279593,,,,,,,,,,,,None,None,,,,,,,,,,Stift,,,cuedRecallAdj,2,,,,,,,,,,,,,,,,,,,,,,,,0,,,,,,,,,,,,,,,,,,,,,,,,,,,,868.2167094000615,868.2264153002761,868.2264153002761,871.67137310002,flauschig,return,3.4399477001279593,None,871.6716389004141,871.6809602002613,871.6809602002613,871.6743541001342,,None,,,,,2,2024-01-16_09h36.54.720,watkins1,2023.2.3,99.7343080095865,87,2024-01-16 09h37.02.647917 +0000,
,,,,,,,,,,,,,,,,,,,,,,,13,0,13,0,872.1830001999624,,,,,,,,,,,,876.3137556002475,876.8122019004077,,,,4.123456799890846,,,,,,,,,,,,None,None,,,,,,,,,,Trommel,,,cuedRecallAdj,2,,,,,,,,,,,,,,,,,,,,,,,,0,,,,,,,,,,,,,,,,,,,,,,,,,,,,872.173322699964,872.1830001999624,872.1830001999624,876.3106416002847,praktisch,return,4.123456799890846,None,876.310907700099,876.3201596001163,876.3201596001163,876.3136558001861,,None,,,,,2,2024-01-16_09h36.54.720,watkins1,2023.2.3,99.7343080095865,87,2024-01-16 09h37.02.647917 +0000,
,,,,,,,,,,,,,,,,,,,,,,,14,0,14,0,876.822248400189,,,,,,,,,,,,879.8683831002563,880.3667620001361,,,,3.0360889001749456,,,,,,,,,,,,None,None,,,,,,,,,,Geige,,,cuedRecallAdj,2,,,,,,,,,,,,,,,,,,,,,,,,0,,,,,,,,,,,,,,,,,,,,,,,,,,,,876.812450400088,876.822248400189,876.822248400189,879.8650980000384,dunkel,return,3.0360889001749456,None,879.8653665003367,879.8746631001122,879.8746631001122,879.8682808000594,,None,,,,,2,2024-01-16_09h36.54.720,watkins1,2023.2.3,99.7343080095865,87,2024-01-16 09h37.02.647917 +0000,
,,,,,,,,,,,,,,,,,,,,,,,15,0,15,0,880.3767060004175,,,,,,,,,,,,887.0883149001747,887.5867743003182,,,,6.705647800117731,,,,,,,,,,,,None,None,,,,,,,,,,Fahrrad,,,cuedRecallAdj,2,,,,,,,,,,,,,,,,,,,,,,,,0,,,,,,,,,,,,,,,,,,,,,,,,,,,,880.3670014999807,880.3767060004175,880.3767060004175,887.0852441000752,schlicht,return,6.705647800117731,None,887.0855130003765,887.0947604002431,887.0947604002431,887.0882136002183,,None,,,,,2,2024-01-16_09h36.54.720,watkins1,2023.2.3,99.7343080095865,87,2024-01-16 09h37.02.647917 +0000,
,,,,,,,,,,,,,,,,,,,,,,,16,0,16,0,887.5968193002045,,,,,,,,,,,,891.9883667002432,892.4872110001743,,,,4.38172210007906,,,,,,,,,,,,None,None,,,,,,,,,,Tasche,,,cuedRecallAdj,2,,,,,,,,,,,,,,,,,,,,,,,,0,,,,,,,,,,,,,,,,,,,,,,,,,,,,887.5870222002268,887.5968193002045,887.5968193002045,891.9854870000854,dick,return,4.38172210007906,None,891.9857528000139,891.9949688999914,891.9949688999914,891.9882625001483,,None,,,,,2,2024-01-16_09h36.54.720,watkins1,2023.2.3,99.7343080095865,87,2024-01-16 09h37.02.647917 +0000,
,,,,,,,,,,,,,,,,,,,,,,,17,0,17,0,892.4971137000248,,,,,,,,,,,,898.5758959003724,899.074187700171,,,,6.0733313001692295,,,,,,,,,,,,None,None,,,,,,,,,,Brille,,,cuedRecallAdj,2,,,,,,,,,,,,,,,,,,,,,,,,0,,,,,,,,,,,,,,,,,,,,,,,,,,,,892.4874582001939,892.4971137000248,892.4971137000248,898.5727196000516,blass,return,6.0733313001692295,None,898.5730035002343,898.5823160000145,898.5823160000145,898.5757938004099,,None,,,,,2,2024-01-16_09h36.54.720,watkins1,2023.2.3,99.7343080095865,87,2024-01-16 09h37.02.647917 +0000,
,,,,,,,,,,,,,,,,,,,,,,,18,0,18,0,899.0841780002229,,,,,,,,,,,,908.6271803001873,909.1259364001453,,,,9.534154300112277,,,,,,,,,,,,None,None,,,,,,,,,,Uhr,,,cuedRecallAdj,2,,,,,,,,,,,,,,,,,,,,,,,,0,,,,,,,,,,,,,,,,,,,,,,,,,,,,899.0744610000402,899.0841780002229,899.0841780002229,908.6243327003904,sauber,return,9.534154300112277,None,908.6245969003066,908.6338675003499,908.6338675003499,908.6270771999843,,None,,,,,2,2024-01-16_09h36.54.720,watkins1,2023.2.3,99.7343080095865,87,2024-01-16 09h37.02.647917 +0000,
,,,,,,,,,,,,,,,,,,,,,,,19,0,19,0,909.1358814002015,,,,,,,,,,,,913.4070463003591,913.9056533002295,,,,4.2665875996463,,,,,,,,,,,,None,None,,,,,,,,,,Tasse,,,cuedRecallAdj,2,,,,,,,,,,,,,,,,,,,,,,,,0,,,,,,,,,,,,,,,,,,,,,,,,,,,,909.1261766003445,909.1358814002015,909.1358814002015,913.404017700348,gekrümmt,return,4.2665875996463,None,913.4042844003998,913.4135487000458,913.4135487000458,913.4069442003965,,None,,,,,2,2024-01-16_09h36.54.720,watkins1,2023.2.3,99.7343080095865,87,2024-01-16 09h37.02.647917 +0000,
,,,,,,,,,,,,,,,,,,,,,,,20,0,20,0,913.9156065001152,,,,,,,,,,,,918.1667520003393,918.6657927003689,,,,4.246724099852145,,,,,,,,,,,,None,None,,,,,,,,,,Buch,,,cuedRecallAdj,2,,,,,,,,,,,,,,,,,,,,,,,,0,,,,,,,,,,,,,,,,,,,,,,,,,,,,913.9058981002308,913.9156065001152,913.9156065001152,918.1640161001123,groß,return,4.246724099852145,None,918.1642817002721,918.1735546002164,918.1735546002164,918.1666513001546,,None,,,,,2,2024-01-16_09h36.54.720,watkins1,2023.2.3,99.7343080095865,87,2024-01-16 09h37.02.647917 +0000,
,,,,,,,,,,,,,,,,,,,,,,,21,0,21,0,918.6757233003154,,,,,,,,,,,,921.4906121999957,921.9893200001679,,,,2.8066496001556516,,,,,,,,,,,,None,None,,,,,,,,,,Hut,,,cuedRecallAdj,2,,,,,,,,,,,,,,,,,,,,,,,,0,,,,,,,,,,,,,,,,,,,,,,,,,,,,918.6660386002623,918.6757233003154,918.6757233003154,921.4877320001833,winzig,return,2.8066496001556516,None,921.4879991002381,921.4972453000955,921.4972453000955,921.4905104003847,,None,,,,,2,2024-01-16_09h36.54.720,watkins1,2023.2.3,99.7343080095865,87,2024-01-16 09h37.02.647917 +0000,
,,,,,,,,,,,,,,,,,,,,,,,22,0,22,0,921.9992688000202,,,,,,,,,,,,924.633829400409,925.1322524002753,,,,2.6272153998725116,,,,,,,,,,,,None,None,,,,,,,,,,Schere,,,cuedRecallAdj,2,,,,,,,,,,,,,,,,,,,,,,,,0,,,,,,,,,,,,,,,,,,,,,,,,,,,,921.9895684001967,921.9992688000202,921.9992688000202,924.6306374999695,flach,return,2.6272153998725116,None,924.6309227002785,924.6401672000065,924.6401672000065,924.6337252003141,,None,,,,,2,2024-01-16_09h36.54.720,watkins1,2023.2.3,99.7343080095865,87,2024-01-16 09h37.02.647917 +0000,
,,,,,,,,,,,,,,,,,,,,,,,23,0,23,0,925.1422034003772,,,,,,,,,,,,951.1844317000359,951.6737399003468,,,,26.03617210034281,,,,,,,,,,,,None,None,,,,,,,,,,Hammer,,,cuedRecallAdj,2,,,,,,,,,,,,,,,,,,,,,,,,0,,,,,,,,,,,,,,,,,,,,,,,,,,,,925.132493800018,925.1422034003772,925.1422034003772,951.1821777001023,,return,26.03617210034281,None,951.1824388001114,951.1917222002521,951.1917222002521,951.1843330999836,,None,,,,,2,2024-01-16_09h36.54.720,watkins1,2023.2.3,99.7343080095865,87,2024-01-16 09h37.02.647917 +0000,
,,,,,,,,,,,,,,,,,,,,,,,24,0,24,0,951.6837915000506,,,,,,,,,,,,955.7842458002269,956.2828482002951,,,,4.094551299698651,,,,,,,,,,,,None,None,,,,,,,,,,Würfel,,,cuedRecallAdj,2,,,,,,,,,,,,,,,,,,,,,,,,0,,,,,,,,,,,,,,,,,,,,,,,,,,,,951.6739897001535,951.6837915000506,951.6837915000506,955.7812844002619,klein,return,4.094551299698651,None,955.7815406001173,955.7908335002139,955.7908335002139,955.7841470004059,,None,,,,,2,2024-01-16_09h36.54.720,watkins1,2023.2.3,99.7343080095865,87,2024-01-16 09h37.02.647917 +0000,
,,,,,,,,,,,,,,,,,,,,,,,25,0,25,0,956.292771300301,,,,,,,,,,,,958.6461632000282,959.1449514999986,,,,2.3497266001068056,,,,,,,,,,,,None,None,,,,,,,,,,Flasche,,,cuedRecallAdj,2,,,,,,,,,,,,,,,,,,,,,,,,0,,,,,,,,,,,,,,,,,,,,,,,,,,,,956.2830960000865,956.292771300301,956.292771300301,958.6432507000864,matt,return,2.3497266001068056,None,958.6435199002735,958.6528684003279,958.6528684003279,958.6460617999546,,None,,,,,2,2024-01-16_09h36.54.720,watkins1,2023.2.3,99.7343080095865,87,2024-01-16 09h37.02.647917 +0000,
,,,,,,,,,,,,,,,,,,,,,,,26,0,26,0,959.15486840019,,,,,,,,,,,,963.6569471000694,964.155407700222,,,,4.495595300104469,,,,,,,,,,,,None,None,,,,,,,,,,Lampe,,,cuedRecallAdj,2,,,,,,,,,,,,,,,,,,,,,,,,0,,,,,,,,,,,,,,,,,,,,,,,,,,,,959.1452011000365,959.15486840019,959.15486840019,963.653881800361,niedlich,return,4.495595300104469,None,963.6541518000886,963.663391600363,963.663391600363,963.6568434000947,,None,,,,,2,2024-01-16_09h36.54.720,watkins1,2023.2.3,99.7343080095865,87,2024-01-16 09h37.02.647917 +0000,
,,,,,,,,,,,,,,,,,,,,,,,27,0,27,0,964.1654623001814,,,,,,,,,,,,968.929161300417,969.4276791000739,,,,4.756949999835342,,,,,,,,,,,,None,None,,,,,,,,,,Bürste,,,cuedRecallAdj,2,,,,,,,,,,,,,,,,,,,,,,,,0,,,,,,,,,,,,,,,,,,,,,,,,,,,,964.1556543000042,964.1654623001814,964.1654623001814,968.9260896001942,glänzend,return,4.756949999835342,None,968.9263528999873,968.93565580016,968.93565580016,968.9290613001212,,None,,,,,2,2024-01-16_09h36.54.720,watkins1,2023.2.3,99.7343080095865,87,2024-01-16 09h37.02.647917 +0000,
,,,,,,,,,,,,,,,,,,,,,,,28,0,28,0,969.4377290001139,,,,,,,,,,,,981.7330265999772,982.2315873000771,,,,12.284760000184178,,,,,,,,,,,,None,None,,,,,,,,,,Jacke,,,cuedRecallAdj,2,,,,,,,,,,,,,,,,,,,,,,,,0,,,,,,,,,,,,,,,,,,,,,,,,,,,,969.4279223000631,969.4377290001139,969.4377290001139,981.7299389000982,gestreift,return,12.284760000184178,None,981.7302057002671,981.739625800401,981.739625800401,981.7329243002459,,None,,,,,2,2024-01-16_09h36.54.720,watkins1,2023.2.3,99.7343080095865,87,2024-01-16 09h37.02.647917 +0000,
,,,,,,,,,,,,,,,,,,,,,,,29,0,29,0,982.2416314999573,,,,,,,,,,,,985.1068314001895,985.6053189001977,,,,2.8567646997980773,,,,,,,,,,,,None,None,,,,,,,,,,Vase,,,cuedRecallAdj,2,,,,,,,,,,,,,,,,,,,,,,,,0,,,,,,,,,,,,,,,,,,,,,,,,,,,,982.2318306001835,982.2416314999573,982.2416314999573,985.1037766002119,elegant,return,2.8567646997980773,None,985.1040637004189,985.1133072003722,985.1133072003722,985.1067286999896,,None,,,,,2,2024-01-16_09h36.54.720,watkins1,2023.2.3,99.7343080095865,87,2024-01-16 09h37.02.647917 +0000,
,,,,,,,,,,,,,,,,,,,,,,,,,,,,,,,,,,,,,,,,,,,,,,,,,,,,,,,,,,,,,,,,,,,,,,,2,,,,,,,,,,,,,,,,,,,,,,,,,,,,,,,,,,,,,,,,,,,,,,,,,,,,,,,,,,,,,,,,,,985.6221084999852,q,2513.5405498002656,None,2,2024-01-16_09h36.54.720,watkins1,2023.2.3,99.7343080095865,87,2024-01-16 09h37.02.647917 +0000,
