Equation,CorrectResponse,Correctbutton,trials_7.thisRepN,trials_7.thisTrialN,trials_7.thisN,trials_7.thisIndex,trials.thisRepN,trials.thisTrialN,trials.thisN,trials.thisIndex,trials_3.thisRepN,trials_3.thisTrialN,trials_3.thisN,trials_3.thisIndex,trials_2.thisRepN,trials_2.thisTrialN,trials_2.thisN,trials_2.thisIndex,trials_4.thisRepN,trials_4.thisTrialN,trials_4.thisN,trials_4.thisIndex,trials_5.thisRepN,trials_5.thisTrialN,trials_5.thisN,trials_5.thisIndex,thisRow.t,notes,code_marius.started,code_marius.stopped,welcome.started,welcome.stopped,instruction_study.started,instruction_study.stopped,fixationcross.started,fixationcross.stopped,blanc.started,blanc.stopped,study_control_probe.started,study_control_probe.stopped,responseKey,responseTime,scale_answer_2.keys,study_control_probe_2.started,study_control_probe_2.stopped,scale_answer_3.keys,scale_answer_3.rt,scale_answer_3.duration,blanc_2.started,blanc_2.stopped,test_attr_probe.started,test_attr_probe.stopped,recalled_attr,firstKeyTime,secondWordTime,blanc_3.started,blanc_3.stopped,test_sub_probe.started,test_sub_probe.stopped,recalled_sub,instruction_probe_end.started,instruction_probe_end.stopped,study.started,study.stopped,substantive,adjective,wordpair,task,condition,liste_sub_phase1,liste_adj_phase1,scale_answer.keys,scale_answer.rt,scale_answer.duration,code_defineWordsInit.started,code_defineWordsInit.stopped,liste_sub_phase2,study_control.started,study_control.stopped,scale_answer_4.keys,restudy_same.started,restudy_same.stopped,scale_answer_5.keys,restudy_different.started,restudy_different.stopped,scale_answer_6.keys,test_attr.started,correct,test_attr.stopped,test_sub.started,test_sub.stopped,scale_answer_5.rt,scale_answer_5.duration,distractortask.started,equation_text.started,distractortask.stopped,mouse_answer.x,mouse_answer.y,mouse_answer.leftButton,mouse_answer.midButton,mouse_answer.rightButton,mouse_answer.time,mouse_answer.clicked_name,feedback_distractortask.started,feedback_distractortask.stopped,free_recall.started,text_enter.started,key_resp.started,free_recall.stopped,key_resp.keys,key_resp.rt,key_resp.duration,free_recalled_sub,mouse_continue.x,mouse_continue.y,mouse_continue.leftButton,mouse_continue.midButton,mouse_continue.rightButton,mouse_continue.time,mouse_continue.clicked_name,cued_recall.started,text_enter_2.started,key_continue.started,cued_recall.stopped,recalled_attr1,key_continue.keys,key_continue.rt,key_continue.duration,cued_recall_2.started,text_enter_3.started,key_continue_2.started,cued_recall_2.stopped,recalled_attr2,key_continue_2.keys,key_resp_8.started,key_resp_8.keys,key_resp_8.rt,key_resp_8.duration,condition,date,expName,psychopyVersion,frameRate,participant,expStart,
,,,,,,,,,,,,,,,,,,,,,,,,,,,,,0.12481130007654428,0.12488080002367496,0.12488929997198284,10.30356950010173,,,,,,,,,,,,,,,,,,,,,,,,,,,,,,,,,,,,,3,,,,,,,,,,,,,,,,,,,,,,,,,,,,,,,,,,,,,,,,,,,,,,,,,,,,,,,,,,,,,,,,,,,,,,3,2023-12-05_10h02.04.226,watkins1,2023.2.3,99.72893668300219,42,2023-12-05 10h02.17.161804 +0000,
,,,,,,,,,,,,,,,,,,,,,,,,,,,,,,,,,10.303619100013748,50.61994050000794,,,,,,,,,,,,,,,,,,,,,,,,,,,,,,,,,,,3,,,,,,,,,,,,,,,,,,,,,,,,,,,,,,,,,,,,,,,,,,,,,,,,,,,,,,,,,,,,,,,,,,,,,,3,2023-12-05_10h02.04.226,watkins1,2023.2.3,99.72893668300219,42,2023-12-05 10h02.17.161804 +0000,
,,,0,0,0,0,,,,,,,,,,,,,,,,,,,,,51.63348429999314,,,,,,,,50.61995880003087,51.62349639995955,58.12499319994822,58.61621639993973,52.115552300121635,58.124818600015715,1,1.7887808000668883,None,58.616228100145236,64.6206859999802,1,1.7887808000668883,None,64.6209947001189,65.11230699997395,65.11231840006076,71.11760800005868,vergnügt,None,None,71.11782649997622,71.11785000003874,71.11785740009509,71.1179404000286,,,,,,,,,,3,,,,,,,,,,,,,,,,,,,,,,,,,,,,,,,,,,,,,,,,,,,,,,,,,,,,,,,,,,,,,,,,,,,,,,3,2023-12-05_10h02.04.226,watkins1,2023.2.3,99.72893668300219,42,2023-12-05 10h02.17.161804 +0000,
,,,,,,,,,,,,,,,,,,,,,,,,,,,,,,,,,,,,,,,,,,,,,,,,,,,,,,,,,,,,,71.11805799999274,81.88143680011854,,,,,,,3,,,,,,,,,,,,,,,,,,,,,,,,,,,,,,,,,,,,,,,,,,,,,,,,,,,,,,,,,,,,,,,,,,,,,,3,2023-12-05_10h02.04.226,watkins1,2023.2.3,99.72893668300219,42,2023-12-05 10h02.17.161804 +0000,
,,,,,,,0,0,0,0,,,,,,,,,,,,,,,,,82.89516740012914,,,,,,,,81.88145470013842,82.88522920012474,82.88569390005432,83.37735530012287,,,1,1.3198239000048488,,,,,,,,,,,,,,,,,,,,,83.37736589997075,89.38162939995527,Schlüssel,lustig,"['Schlüssel', 'lustig']",test_adj,3,"['Schlüssel', 'Kette', 'Geige', 'Eimer', 'Socke', 'Vase', 'Schere', 'Tasche', 'Jacke', 'Würfel', 'Bürste', 'Rucksack', 'Flasche', 'Blume', 'Buch', 'Ring', 'Hut', 'Brille', 'Telefon', 'Löffel', 'Kamera', 'Stift', 'Tasse', 'Hammer', 'Trommel', 'Lampe', 'Kiste', 'Fahrrad', 'Uhr', 'Kerze']",['lustig'],1,1.3198239000048488,None,,,,,,,,,,,,,,,,,,,,,,,,,,,,,,,,,,,,,,,,,,,,,,,,,,,,,,,,,,,,,,,,,3,2023-12-05_10h02.04.226,watkins1,2023.2.3,99.72893668300219,42,2023-12-05 10h02.17.161804 +0000,
,,,,,,,1,0,1,0,,,,,,,,,,,,,,,,,89.39110130001791,,,,,,,,,,89.38229060010053,89.87350260000676,,,1,1.8488116001244634,,,,,,,,,,,,,,,,,,,,,89.87351389997639,95.87708080001175,Kette,dunkel,"['Kette', 'dunkel']",test_adj,3,"['Schlüssel', 'Kette', 'Geige', 'Eimer', 'Socke', 'Vase', 'Schere', 'Tasche', 'Jacke', 'Würfel', 'Bürste', 'Rucksack', 'Flasche', 'Blume', 'Buch', 'Ring', 'Hut', 'Brille', 'Telefon', 'Löffel', 'Kamera', 'Stift', 'Tasse', 'Hammer', 'Trommel', 'Lampe', 'Kiste', 'Fahrrad', 'Uhr', 'Kerze']","['lustig', 'dunkel']",1,1.8488116001244634,None,,,,,,,,,,,,,,,,,,,,,,,,,,,,,,,,,,,,,,,,,,,,,,,,,,,,,,,,,,,,,,,,,3,2023-12-05_10h02.04.226,watkins1,2023.2.3,99.72893668300219,42,2023-12-05 10h02.17.161804 +0000,
,,,,,,,2,0,2,0,,,,,,,,,,,,,,,,,95.8866642001085,,,,,,,,,,95.8776046000421,96.36880660010502,,,1,2.9854957000352442,,,,,,,,,,,,,,,,,,,,,96.36881690006703,102.37051260005683,Geige,lang,"['Geige', 'lang']",restudy,3,"['Schlüssel', 'Kette', 'Geige', 'Eimer', 'Socke', 'Vase', 'Schere', 'Tasche', 'Jacke', 'Würfel', 'Bürste', 'Rucksack', 'Flasche', 'Blume', 'Buch', 'Ring', 'Hut', 'Brille', 'Telefon', 'Löffel', 'Kamera', 'Stift', 'Tasse', 'Hammer', 'Trommel', 'Lampe', 'Kiste', 'Fahrrad', 'Uhr', 'Kerze']","['lustig', 'dunkel', 'lang']",1,2.9854957000352442,None,,,,,,,,,,,,,,,,,,,,,,,,,,,,,,,,,,,,,,,,,,,,,,,,,,,,,,,,,,,,,,,,,3,2023-12-05_10h02.04.226,watkins1,2023.2.3,99.72893668300219,42,2023-12-05 10h02.17.161804 +0000,
,,,,,,,3,0,3,0,,,,,,,,,,,,,,,,,102.37992650014348,,,,,,,,,,102.37104979995638,102.86190879996866,,,3,4.148500599898398,,,,,,,,,,,,,,,,,,,,,102.86191940004937,108.86437959992327,Eimer,schlicht,"['Eimer', 'schlicht']",restudy,3,"['Schlüssel', 'Kette', 'Geige', 'Eimer', 'Socke', 'Vase', 'Schere', 'Tasche', 'Jacke', 'Würfel', 'Bürste', 'Rucksack', 'Flasche', 'Blume', 'Buch', 'Ring', 'Hut', 'Brille', 'Telefon', 'Löffel', 'Kamera', 'Stift', 'Tasse', 'Hammer', 'Trommel', 'Lampe', 'Kiste', 'Fahrrad', 'Uhr', 'Kerze']","['lustig', 'dunkel', 'lang', 'schlicht']",3,4.148500599898398,None,,,,,,,,,,,,,,,,,,,,,,,,,,,,,,,,,,,,,,,,,,,,,,,,,,,,,,,,,,,,,,,,,3,2023-12-05_10h02.04.226,watkins1,2023.2.3,99.72893668300219,42,2023-12-05 10h02.17.161804 +0000,
,,,,,,,4,0,4,0,,,,,,,,,,,,,,,,,108.87383499997668,,,,,,,,,,108.8649150999263,109.35594559996389,,,1,1.9659690998960286,,,,,,,,,,,,,,,,,,,,,109.35595640004613,115.36266510002315,Socke,glänzend,"['Socke', 'glänzend']",restudy,3,"['Schlüssel', 'Kette', 'Geige', 'Eimer', 'Socke', 'Vase', 'Schere', 'Tasche', 'Jacke', 'Würfel', 'Bürste', 'Rucksack', 'Flasche', 'Blume', 'Buch', 'Ring', 'Hut', 'Brille', 'Telefon', 'Löffel', 'Kamera', 'Stift', 'Tasse', 'Hammer', 'Trommel', 'Lampe', 'Kiste', 'Fahrrad', 'Uhr', 'Kerze']","['lustig', 'dunkel', 'lang', 'schlicht', 'glänzend']",1,1.9659690998960286,None,,,,,,,,,,,,,,,,,,,,,,,,,,,,,,,,,,,,,,,,,,,,,,,,,,,,,,,,,,,,,,,,,3,2023-12-05_10h02.04.226,watkins1,2023.2.3,99.72893668300219,42,2023-12-05 10h02.17.161804 +0000,
,,,,,,,5,0,5,0,,,,,,,,,,,,,,,,,115.37211779993959,,,,,,,,,,115.36319730011746,115.854116700124,,,1,2.6520359001588076,,,,,,,,,,,,,,,,,,,,,115.85412740008906,121.85675249993801,Vase,niedlich,"['Vase', 'niedlich']",restudy,3,"['Schlüssel', 'Kette', 'Geige', 'Eimer', 'Socke', 'Vase', 'Schere', 'Tasche', 'Jacke', 'Würfel', 'Bürste', 'Rucksack', 'Flasche', 'Blume', 'Buch', 'Ring', 'Hut', 'Brille', 'Telefon', 'Löffel', 'Kamera', 'Stift', 'Tasse', 'Hammer', 'Trommel', 'Lampe', 'Kiste', 'Fahrrad', 'Uhr', 'Kerze']","['lustig', 'dunkel', 'lang', 'schlicht', 'glänzend', 'niedlich']",1,2.6520359001588076,None,,,,,,,,,,,,,,,,,,,,,,,,,,,,,,,,,,,,,,,,,,,,,,,,,,,,,,,,,,,,,,,,,3,2023-12-05_10h02.04.226,watkins1,2023.2.3,99.72893668300219,42,2023-12-05 10h02.17.161804 +0000,
,,,,,,,6,0,6,0,,,,,,,,,,,,,,,,,121.86622930015437,,,,,,,,,,121.85727849998511,122.34833490010351,,,2,3.351109700044617,,,,,,,,,,,,,,,,,,,,,122.34834609995596,128.35763610014692,Schere,matt,"['Schere', 'matt']",restudy,3,"['Schlüssel', 'Kette', 'Geige', 'Eimer', 'Socke', 'Vase', 'Schere', 'Tasche', 'Jacke', 'Würfel', 'Bürste', 'Rucksack', 'Flasche', 'Blume', 'Buch', 'Ring', 'Hut', 'Brille', 'Telefon', 'Löffel', 'Kamera', 'Stift', 'Tasse', 'Hammer', 'Trommel', 'Lampe', 'Kiste', 'Fahrrad', 'Uhr', 'Kerze']","['lustig', 'dunkel', 'lang', 'schlicht', 'glänzend', 'niedlich', 'matt']",2,3.351109700044617,None,,,,,,,,,,,,,,,,,,,,,,,,,,,,,,,,,,,,,,,,,,,,,,,,,,,,,,,,,,,,,,,,,3,2023-12-05_10h02.04.226,watkins1,2023.2.3,99.72893668300219,42,2023-12-05 10h02.17.161804 +0000,
,,,,,,,7,0,7,0,,,,,,,,,,,,,,,,,128.36710819997825,,,,,,,,,,128.35816020006314,128.849152199924,,,3,3.929101799847558,,,,,,,,,,,,,,,,,,,,,128.84916250011884,134.85246170009486,Tasche,robust,"['Tasche', 'robust']",test_adj,3,"['Schlüssel', 'Kette', 'Geige', 'Eimer', 'Socke', 'Vase', 'Schere', 'Tasche', 'Jacke', 'Würfel', 'Bürste', 'Rucksack', 'Flasche', 'Blume', 'Buch', 'Ring', 'Hut', 'Brille', 'Telefon', 'Löffel', 'Kamera', 'Stift', 'Tasse', 'Hammer', 'Trommel', 'Lampe', 'Kiste', 'Fahrrad', 'Uhr', 'Kerze']","['lustig', 'dunkel', 'lang', 'schlicht', 'glänzend', 'niedlich', 'matt', 'robust']",3,3.929101799847558,None,,,,,,,,,,,,,,,,,,,,,,,,,,,,,,,,,,,,,,,,,,,,,,,,,,,,,,,,,,,,,,,,,3,2023-12-05_10h02.04.226,watkins1,2023.2.3,99.72893668300219,42,2023-12-05 10h02.17.161804 +0000,
,,,,,,,8,0,8,0,,,,,,,,,,,,,,,,,134.8619760000147,,,,,,,,,,134.85299080004916,135.3441203001421,,,3,1.4978473000228405,,,,,,,,,,,,,,,,,,,,,135.3441310999915,141.35366100003012,Jacke,schwer,"['Jacke', 'schwer']",restudy,3,"['Schlüssel', 'Kette', 'Geige', 'Eimer', 'Socke', 'Vase', 'Schere', 'Tasche', 'Jacke', 'Würfel', 'Bürste', 'Rucksack', 'Flasche', 'Blume', 'Buch', 'Ring', 'Hut', 'Brille', 'Telefon', 'Löffel', 'Kamera', 'Stift', 'Tasse', 'Hammer', 'Trommel', 'Lampe', 'Kiste', 'Fahrrad', 'Uhr', 'Kerze']","['lustig', 'dunkel', 'lang', 'schlicht', 'glänzend', 'niedlich', 'matt', 'robust', 'schwer']",3,1.4978473000228405,None,,,,,,,,,,,,,,,,,,,,,,,,,,,,,,,,,,,,,,,,,,,,,,,,,,,,,,,,,,,,,,,,,3,2023-12-05_10h02.04.226,watkins1,2023.2.3,99.72893668300219,42,2023-12-05 10h02.17.161804 +0000,
,,,,,,,9,0,9,0,,,,,,,,,,,,,,,,,141.36317460006103,,,,,,,,,,141.35418800008483,141.84526240010746,,,3,2.8762153000570834,,,,,,,,,,,,,,,,,,,,,141.8452739000786,147.85425879992545,Würfel,rustikal,"['Würfel', 'rustikal']",test_adj,3,"['Schlüssel', 'Kette', 'Geige', 'Eimer', 'Socke', 'Vase', 'Schere', 'Tasche', 'Jacke', 'Würfel', 'Bürste', 'Rucksack', 'Flasche', 'Blume', 'Buch', 'Ring', 'Hut', 'Brille', 'Telefon', 'Löffel', 'Kamera', 'Stift', 'Tasse', 'Hammer', 'Trommel', 'Lampe', 'Kiste', 'Fahrrad', 'Uhr', 'Kerze']","['lustig', 'dunkel', 'lang', 'schlicht', 'glänzend', 'niedlich', 'matt', 'robust', 'schwer', 'rustikal']",3,2.8762153000570834,None,,,,,,,,,,,,,,,,,,,,,,,,,,,,,,,,,,,,,,,,,,,,,,,,,,,,,,,,,,,,,,,,,3,2023-12-05_10h02.04.226,watkins1,2023.2.3,99.72893668300219,42,2023-12-05 10h02.17.161804 +0000,
,,,,,,,10,0,10,0,,,,,,,,,,,,,,,,,147.86383310006931,,,,,,,,,,147.85478150006384,148.34591379994527,,,2,2.9044814000371844,,,,,,,,,,,,,,,,,,,,,148.3459246000275,154.35498620010912,Bürste,breit,"['Bürste', 'breit']",restudy,3,"['Schlüssel', 'Kette', 'Geige', 'Eimer', 'Socke', 'Vase', 'Schere', 'Tasche', 'Jacke', 'Würfel', 'Bürste', 'Rucksack', 'Flasche', 'Blume', 'Buch', 'Ring', 'Hut', 'Brille', 'Telefon', 'Löffel', 'Kamera', 'Stift', 'Tasse', 'Hammer', 'Trommel', 'Lampe', 'Kiste', 'Fahrrad', 'Uhr', 'Kerze']","['lustig', 'dunkel', 'lang', 'schlicht', 'glänzend', 'niedlich', 'matt', 'robust', 'schwer', 'rustikal', 'breit']",2,2.9044814000371844,None,,,,,,,,,,,,,,,,,,,,,,,,,,,,,,,,,,,,,,,,,,,,,,,,,,,,,,,,,,,,,,,,,3,2023-12-05_10h02.04.226,watkins1,2023.2.3,99.72893668300219,42,2023-12-05 10h02.17.161804 +0000,
,,,,,,,11,0,11,0,,,,,,,,,,,,,,,,,154.36446249997243,,,,,,,,,,154.35551000013947,154.8464848001022,,,1,3.115960500203073,,,,,,,,,,,,,,,,,,,,,154.84649570006877,160.85178490006365,Rucksack,krumm,"['Rucksack', 'krumm']",restudy,3,"['Schlüssel', 'Kette', 'Geige', 'Eimer', 'Socke', 'Vase', 'Schere', 'Tasche', 'Jacke', 'Würfel', 'Bürste', 'Rucksack', 'Flasche', 'Blume', 'Buch', 'Ring', 'Hut', 'Brille', 'Telefon', 'Löffel', 'Kamera', 'Stift', 'Tasse', 'Hammer', 'Trommel', 'Lampe', 'Kiste', 'Fahrrad', 'Uhr', 'Kerze']","['lustig', 'dunkel', 'lang', 'schlicht', 'glänzend', 'niedlich', 'matt', 'robust', 'schwer', 'rustikal', 'breit', 'krumm']",1,3.115960500203073,None,,,,,,,,,,,,,,,,,,,,,,,,,,,,,,,,,,,,,,,,,,,,,,,,,,,,,,,,,,,,,,,,,3,2023-12-05_10h02.04.226,watkins1,2023.2.3,99.72893668300219,42,2023-12-05 10h02.17.161804 +0000,
,,,,,,,12,0,12,0,,,,,,,,,,,,,,,,,160.8613279000856,,,,,,,,,,160.85231729992665,161.3434944001492,,,3,1.6833651999477297,,,,,,,,,,,,,,,,,,,,,161.34350459999405,167.34907760005444,Flasche,glatt,"['Flasche', 'glatt']",test_adj,3,"['Schlüssel', 'Kette', 'Geige', 'Eimer', 'Socke', 'Vase', 'Schere', 'Tasche', 'Jacke', 'Würfel', 'Bürste', 'Rucksack', 'Flasche', 'Blume', 'Buch', 'Ring', 'Hut', 'Brille', 'Telefon', 'Löffel', 'Kamera', 'Stift', 'Tasse', 'Hammer', 'Trommel', 'Lampe', 'Kiste', 'Fahrrad', 'Uhr', 'Kerze']","['lustig', 'dunkel', 'lang', 'schlicht', 'glänzend', 'niedlich', 'matt', 'robust', 'schwer', 'rustikal', 'breit', 'krumm', 'glatt']",3,1.6833651999477297,None,,,,,,,,,,,,,,,,,,,,,,,,,,,,,,,,,,,,,,,,,,,,,,,,,,,,,,,,,,,,,,,,,3,2023-12-05_10h02.04.226,watkins1,2023.2.3,99.72893668300219,42,2023-12-05 10h02.17.161804 +0000,
,,,,,,,13,0,13,0,,,,,,,,,,,,,,,,,167.35855370014906,,,,,,,,,,167.34960590000264,167.84046229999512,,,3,4.114981299964711,,,,,,,,,,,,,,,,,,,,,167.84047339996323,173.8421229000669,Blume,kurz,"['Blume', 'kurz']",test_adj,3,"['Schlüssel', 'Kette', 'Geige', 'Eimer', 'Socke', 'Vase', 'Schere', 'Tasche', 'Jacke', 'Würfel', 'Bürste', 'Rucksack', 'Flasche', 'Blume', 'Buch', 'Ring', 'Hut', 'Brille', 'Telefon', 'Löffel', 'Kamera', 'Stift', 'Tasse', 'Hammer', 'Trommel', 'Lampe', 'Kiste', 'Fahrrad', 'Uhr', 'Kerze']","['lustig', 'dunkel', 'lang', 'schlicht', 'glänzend', 'niedlich', 'matt', 'robust', 'schwer', 'rustikal', 'breit', 'krumm', 'glatt', 'kurz']",3,4.114981299964711,None,,,,,,,,,,,,,,,,,,,,,,,,,,,,,,,,,,,,,,,,,,,,,,,,,,,,,,,,,,,,,,,,,3,2023-12-05_10h02.04.226,watkins1,2023.2.3,99.72893668300219,42,2023-12-05 10h02.17.161804 +0000,
,,,,,,,14,0,14,0,,,,,,,,,,,,,,,,,173.85160710010678,,,,,,,,,,173.84265030012466,174.3335975999944,,,2,2.045993600040674,,,,,,,,,,,,,,,,,,,,,174.33360769995488,180.34221399994567,Buch,zart,"['Buch', 'zart']",test_adj,3,"['Schlüssel', 'Kette', 'Geige', 'Eimer', 'Socke', 'Vase', 'Schere', 'Tasche', 'Jacke', 'Würfel', 'Bürste', 'Rucksack', 'Flasche', 'Blume', 'Buch', 'Ring', 'Hut', 'Brille', 'Telefon', 'Löffel', 'Kamera', 'Stift', 'Tasse', 'Hammer', 'Trommel', 'Lampe', 'Kiste', 'Fahrrad', 'Uhr', 'Kerze']","['lustig', 'dunkel', 'lang', 'schlicht', 'glänzend', 'niedlich', 'matt', 'robust', 'schwer', 'rustikal', 'breit', 'krumm', 'glatt', 'kurz', 'zart']",2,2.045993600040674,None,,,,,,,,,,,,,,,,,,,,,,,,,,,,,,,,,,,,,,,,,,,,,,,,,,,,,,,,,,,,,,,,,3,2023-12-05_10h02.04.226,watkins1,2023.2.3,99.72893668300219,42,2023-12-05 10h02.17.161804 +0000,
,,,,,,,15,0,15,0,,,,,,,,,,,,,,,,,180.3516691001132,,,,,,,,,,180.34274360002019,180.8336350999307,,,2,2.168510500108823,,,,,,,,,,,,,,,,,,,,,180.83364610001445,186.83510349993594,Ring,groß,"['Ring', 'groß']",restudy,3,"['Schlüssel', 'Kette', 'Geige', 'Eimer', 'Socke', 'Vase', 'Schere', 'Tasche', 'Jacke', 'Würfel', 'Bürste', 'Rucksack', 'Flasche', 'Blume', 'Buch', 'Ring', 'Hut', 'Brille', 'Telefon', 'Löffel', 'Kamera', 'Stift', 'Tasse', 'Hammer', 'Trommel', 'Lampe', 'Kiste', 'Fahrrad', 'Uhr', 'Kerze']","['lustig', 'dunkel', 'lang', 'schlicht', 'glänzend', 'niedlich', 'matt', 'robust', 'schwer', 'rustikal', 'breit', 'krumm', 'glatt', 'kurz', 'zart', 'groß']",2,2.168510500108823,None,,,,,,,,,,,,,,,,,,,,,,,,,,,,,,,,,,,,,,,,,,,,,,,,,,,,,,,,,,,,,,,,,3,2023-12-05_10h02.04.226,watkins1,2023.2.3,99.72893668300219,42,2023-12-05 10h02.17.161804 +0000,
,,,,,,,16,0,16,0,,,,,,,,,,,,,,,,,186.84459520014934,,,,,,,,,,186.83564179996029,187.32648990000598,,,1,2.5561550999991596,,,,,,,,,,,,,,,,,,,,,187.32650059997104,193.33694970002398,Hut,biegsam,"['Hut', 'biegsam']",test_adj,3,"['Schlüssel', 'Kette', 'Geige', 'Eimer', 'Socke', 'Vase', 'Schere', 'Tasche', 'Jacke', 'Würfel', 'Bürste', 'Rucksack', 'Flasche', 'Blume', 'Buch', 'Ring', 'Hut', 'Brille', 'Telefon', 'Löffel', 'Kamera', 'Stift', 'Tasse', 'Hammer', 'Trommel', 'Lampe', 'Kiste', 'Fahrrad', 'Uhr', 'Kerze']","['lustig', 'dunkel', 'lang', 'schlicht', 'glänzend', 'niedlich', 'matt', 'robust', 'schwer', 'rustikal', 'breit', 'krumm', 'glatt', 'kurz', 'zart', 'groß', 'biegsam']",1,2.5561550999991596,None,,,,,,,,,,,,,,,,,,,,,,,,,,,,,,,,,,,,,,,,,,,,,,,,,,,,,,,,,,,,,,,,,3,2023-12-05_10h02.04.226,watkins1,2023.2.3,99.72893668300219,42,2023-12-05 10h02.17.161804 +0000,
,,,,,,,17,0,17,0,,,,,,,,,,,,,,,,,193.3464343000669,,,,,,,,,,193.3374755999539,193.82841690001078,,,1,1.5587347000837326,,,,,,,,,,,,,,,,,,,,,193.82842779997736,199.83064329996705,Brille,nachhaltig,"['Brille', 'nachhaltig']",restudy,3,"['Schlüssel', 'Kette', 'Geige', 'Eimer', 'Socke', 'Vase', 'Schere', 'Tasche', 'Jacke', 'Würfel', 'Bürste', 'Rucksack', 'Flasche', 'Blume', 'Buch', 'Ring', 'Hut', 'Brille', 'Telefon', 'Löffel', 'Kamera', 'Stift', 'Tasse', 'Hammer', 'Trommel', 'Lampe', 'Kiste', 'Fahrrad', 'Uhr', 'Kerze']","['lustig', 'dunkel', 'lang', 'schlicht', 'glänzend', 'niedlich', 'matt', 'robust', 'schwer', 'rustikal', 'breit', 'krumm', 'glatt', 'kurz', 'zart', 'groß', 'biegsam', 'nachhaltig']",1,1.5587347000837326,None,,,,,,,,,,,,,,,,,,,,,,,,,,,,,,,,,,,,,,,,,,,,,,,,,,,,,,,,,,,,,,,,,3,2023-12-05_10h02.04.226,watkins1,2023.2.3,99.72893668300219,42,2023-12-05 10h02.17.161804 +0000,
,,,,,,,18,0,18,0,,,,,,,,,,,,,,,,,199.84011420002207,,,,,,,,,,199.831181100104,200.3221805000212,,,3,1.9292458000127226,,,,,,,,,,,,,,,,,,,,,200.32219119998626,206.33097330015153,Telefon,neu,"['Telefon', 'neu']",test_adj,3,"['Schlüssel', 'Kette', 'Geige', 'Eimer', 'Socke', 'Vase', 'Schere', 'Tasche', 'Jacke', 'Würfel', 'Bürste', 'Rucksack', 'Flasche', 'Blume', 'Buch', 'Ring', 'Hut', 'Brille', 'Telefon', 'Löffel', 'Kamera', 'Stift', 'Tasse', 'Hammer', 'Trommel', 'Lampe', 'Kiste', 'Fahrrad', 'Uhr', 'Kerze']","['lustig', 'dunkel', 'lang', 'schlicht', 'glänzend', 'niedlich', 'matt', 'robust', 'schwer', 'rustikal', 'breit', 'krumm', 'glatt', 'kurz', 'zart', 'groß', 'biegsam', 'nachhaltig', 'neu']",3,1.9292458000127226,None,,,,,,,,,,,,,,,,,,,,,,,,,,,,,,,,,,,,,,,,,,,,,,,,,,,,,,,,,,,,,,,,,3,2023-12-05_10h02.04.226,watkins1,2023.2.3,99.72893668300219,42,2023-12-05 10h02.17.161804 +0000,
,,,,,,,19,0,19,0,,,,,,,,,,,,,,,,,206.34040109999478,,,,,,,,,,206.3315147999674,206.8224740999285,,,1,1.8514532998669893,,,,,,,,,,,,,,,,,,,,,206.82248520012945,212.8286429999862,Löffel,hohl,"['Löffel', 'hohl']",test_adj,3,"['Schlüssel', 'Kette', 'Geige', 'Eimer', 'Socke', 'Vase', 'Schere', 'Tasche', 'Jacke', 'Würfel', 'Bürste', 'Rucksack', 'Flasche', 'Blume', 'Buch', 'Ring', 'Hut', 'Brille', 'Telefon', 'Löffel', 'Kamera', 'Stift', 'Tasse', 'Hammer', 'Trommel', 'Lampe', 'Kiste', 'Fahrrad', 'Uhr', 'Kerze']","['lustig', 'dunkel', 'lang', 'schlicht', 'glänzend', 'niedlich', 'matt', 'robust', 'schwer', 'rustikal', 'breit', 'krumm', 'glatt', 'kurz', 'zart', 'groß', 'biegsam', 'nachhaltig', 'neu', 'hohl']",1,1.8514532998669893,None,,,,,,,,,,,,,,,,,,,,,,,,,,,,,,,,,,,,,,,,,,,,,,,,,,,,,,,,,,,,,,,,,3,2023-12-05_10h02.04.226,watkins1,2023.2.3,99.72893668300219,42,2023-12-05 10h02.17.161804 +0000,
,,,,,,,20,0,20,0,,,,,,,,,,,,,,,,,212.83813389996067,,,,,,,,,,212.82917889999226,213.32028979994357,,,3,2.9868223001249135,,,,,,,,,,,,,,,,,,,,,213.3202998000197,219.32928780000657,Kamera,schmutzig,"['Kamera', 'schmutzig']",restudy,3,"['Schlüssel', 'Kette', 'Geige', 'Eimer', 'Socke', 'Vase', 'Schere', 'Tasche', 'Jacke', 'Würfel', 'Bürste', 'Rucksack', 'Flasche', 'Blume', 'Buch', 'Ring', 'Hut', 'Brille', 'Telefon', 'Löffel', 'Kamera', 'Stift', 'Tasse', 'Hammer', 'Trommel', 'Lampe', 'Kiste', 'Fahrrad', 'Uhr', 'Kerze']","['lustig', 'dunkel', 'lang', 'schlicht', 'glänzend', 'niedlich', 'matt', 'robust', 'schwer', 'rustikal', 'breit', 'krumm', 'glatt', 'kurz', 'zart', 'groß', 'biegsam', 'nachhaltig', 'neu', 'hohl', 'schmutzig']",3,2.9868223001249135,None,,,,,,,,,,,,,,,,,,,,,,,,,,,,,,,,,,,,,,,,,,,,,,,,,,,,,,,,,,,,,,,,,3,2023-12-05_10h02.04.226,watkins1,2023.2.3,99.72893668300219,42,2023-12-05 10h02.17.161804 +0000,
,,,,,,,21,0,21,0,,,,,,,,,,,,,,,,,219.33886560006067,,,,,,,,,,219.32981869997457,219.82111670006998,,,1,2.422201600158587,,,,,,,,,,,,,,,,,,,,,219.82112920004874,225.8298506999854,Stift,nass,"['Stift', 'nass']",restudy,3,"['Schlüssel', 'Kette', 'Geige', 'Eimer', 'Socke', 'Vase', 'Schere', 'Tasche', 'Jacke', 'Würfel', 'Bürste', 'Rucksack', 'Flasche', 'Blume', 'Buch', 'Ring', 'Hut', 'Brille', 'Telefon', 'Löffel', 'Kamera', 'Stift', 'Tasse', 'Hammer', 'Trommel', 'Lampe', 'Kiste', 'Fahrrad', 'Uhr', 'Kerze']","['lustig', 'dunkel', 'lang', 'schlicht', 'glänzend', 'niedlich', 'matt', 'robust', 'schwer', 'rustikal', 'breit', 'krumm', 'glatt', 'kurz', 'zart', 'groß', 'biegsam', 'nachhaltig', 'neu', 'hohl', 'schmutzig', 'nass']",1,2.422201600158587,None,,,,,,,,,,,,,,,,,,,,,,,,,,,,,,,,,,,,,,,,,,,,,,,,,,,,,,,,,,,,,,,,,3,2023-12-05_10h02.04.226,watkins1,2023.2.3,99.72893668300219,42,2023-12-05 10h02.17.161804 +0000,
,,,,,,,22,0,22,0,,,,,,,,,,,,,,,,,225.8392757999245,,,,,,,,,,225.83039660006762,226.3214523999486,,,1,2.0098075999412686,,,,,,,,,,,,,,,,,,,,,226.32146350014955,232.33102539996617,Tasse,gut,"['Tasse', 'gut']",test_adj,3,"['Schlüssel', 'Kette', 'Geige', 'Eimer', 'Socke', 'Vase', 'Schere', 'Tasche', 'Jacke', 'Würfel', 'Bürste', 'Rucksack', 'Flasche', 'Blume', 'Buch', 'Ring', 'Hut', 'Brille', 'Telefon', 'Löffel', 'Kamera', 'Stift', 'Tasse', 'Hammer', 'Trommel', 'Lampe', 'Kiste', 'Fahrrad', 'Uhr', 'Kerze']","['lustig', 'dunkel', 'lang', 'schlicht', 'glänzend', 'niedlich', 'matt', 'robust', 'schwer', 'rustikal', 'breit', 'krumm', 'glatt', 'kurz', 'zart', 'groß', 'biegsam', 'nachhaltig', 'neu', 'hohl', 'schmutzig', 'nass', 'gut']",1,2.0098075999412686,None,,,,,,,,,,,,,,,,,,,,,,,,,,,,,,,,,,,,,,,,,,,,,,,,,,,,,,,,,,,,,,,,,3,2023-12-05_10h02.04.226,watkins1,2023.2.3,99.72893668300219,42,2023-12-05 10h02.17.161804 +0000,
,,,,,,,23,0,23,0,,,,,,,,,,,,,,,,,232.3404427000787,,,,,,,,,,232.33155250013806,232.82240350008942,,,1,2.38845290010795,,,,,,,,,,,,,,,,,,,,,232.82241480005905,238.82722630002536,Hammer,kratzig,"['Hammer', 'kratzig']",restudy,3,"['Schlüssel', 'Kette', 'Geige', 'Eimer', 'Socke', 'Vase', 'Schere', 'Tasche', 'Jacke', 'Würfel', 'Bürste', 'Rucksack', 'Flasche', 'Blume', 'Buch', 'Ring', 'Hut', 'Brille', 'Telefon', 'Löffel', 'Kamera', 'Stift', 'Tasse', 'Hammer', 'Trommel', 'Lampe', 'Kiste', 'Fahrrad', 'Uhr', 'Kerze']","['lustig', 'dunkel', 'lang', 'schlicht', 'glänzend', 'niedlich', 'matt', 'robust', 'schwer', 'rustikal', 'breit', 'krumm', 'glatt', 'kurz', 'zart', 'groß', 'biegsam', 'nachhaltig', 'neu', 'hohl', 'schmutzig', 'nass', 'gut', 'kratzig']",1,2.38845290010795,None,,,,,,,,,,,,,,,,,,,,,,,,,,,,,,,,,,,,,,,,,,,,,,,,,,,,,,,,,,,,,,,,,3,2023-12-05_10h02.04.226,watkins1,2023.2.3,99.72893668300219,42,2023-12-05 10h02.17.161804 +0000,
,,,,,,,24,0,24,0,,,,,,,,,,,,,,,,,238.83670530002564,,,,,,,,,,238.82775310007855,239.31879970012233,,,2,3.395496299955994,,,,,,,,,,,,,,,,,,,,,239.3188104000874,245.3198224999942,Trommel,praktisch,"['Trommel', 'praktisch']",restudy,3,"['Schlüssel', 'Kette', 'Geige', 'Eimer', 'Socke', 'Vase', 'Schere', 'Tasche', 'Jacke', 'Würfel', 'Bürste', 'Rucksack', 'Flasche', 'Blume', 'Buch', 'Ring', 'Hut', 'Brille', 'Telefon', 'Löffel', 'Kamera', 'Stift', 'Tasse', 'Hammer', 'Trommel', 'Lampe', 'Kiste', 'Fahrrad', 'Uhr', 'Kerze']","['lustig', 'dunkel', 'lang', 'schlicht', 'glänzend', 'niedlich', 'matt', 'robust', 'schwer', 'rustikal', 'breit', 'krumm', 'glatt', 'kurz', 'zart', 'groß', 'biegsam', 'nachhaltig', 'neu', 'hohl', 'schmutzig', 'nass', 'gut', 'kratzig', 'praktisch']",2,3.395496299955994,None,,,,,,,,,,,,,,,,,,,,,,,,,,,,,,,,,,,,,,,,,,,,,,,,,,,,,,,,,,,,,,,,,3,2023-12-05_10h02.04.226,watkins1,2023.2.3,99.72893668300219,42,2023-12-05 10h02.17.161804 +0000,
,,,,,,,25,0,25,0,,,,,,,,,,,,,,,,,245.32929329993203,,,,,,,,,,245.32035179995,245.81127090007067,,,3,3.1358138998039067,,,,,,,,,,,,,,,,,,,,,245.81128160003573,251.82018149993382,Lampe,klobig,"['Lampe', 'klobig']",test_adj,3,"['Schlüssel', 'Kette', 'Geige', 'Eimer', 'Socke', 'Vase', 'Schere', 'Tasche', 'Jacke', 'Würfel', 'Bürste', 'Rucksack', 'Flasche', 'Blume', 'Buch', 'Ring', 'Hut', 'Brille', 'Telefon', 'Löffel', 'Kamera', 'Stift', 'Tasse', 'Hammer', 'Trommel', 'Lampe', 'Kiste', 'Fahrrad', 'Uhr', 'Kerze']","['lustig', 'dunkel', 'lang', 'schlicht', 'glänzend', 'niedlich', 'matt', 'robust', 'schwer', 'rustikal', 'breit', 'krumm', 'glatt', 'kurz', 'zart', 'groß', 'biegsam', 'nachhaltig', 'neu', 'hohl', 'schmutzig', 'nass', 'gut', 'kratzig', 'praktisch', 'klobig']",3,3.1358138998039067,None,,,,,,,,,,,,,,,,,,,,,,,,,,,,,,,,,,,,,,,,,,,,,,,,,,,,,,,,,,,,,,,,,3,2023-12-05_10h02.04.226,watkins1,2023.2.3,99.72893668300219,42,2023-12-05 10h02.17.161804 +0000,
,,,,,,,26,0,26,0,,,,,,,,,,,,,,,,,251.8296042000875,,,,,,,,,,251.820711000124,252.31162149994634,,,2,3.1234671999700367,,,,,,,,,,,,,,,,,,,,,252.31163190002553,258.3157542999834,Kiste,sportlich,"['Kiste', 'sportlich']",test_adj,3,"['Schlüssel', 'Kette', 'Geige', 'Eimer', 'Socke', 'Vase', 'Schere', 'Tasche', 'Jacke', 'Würfel', 'Bürste', 'Rucksack', 'Flasche', 'Blume', 'Buch', 'Ring', 'Hut', 'Brille', 'Telefon', 'Löffel', 'Kamera', 'Stift', 'Tasse', 'Hammer', 'Trommel', 'Lampe', 'Kiste', 'Fahrrad', 'Uhr', 'Kerze']","['lustig', 'dunkel', 'lang', 'schlicht', 'glänzend', 'niedlich', 'matt', 'robust', 'schwer', 'rustikal', 'breit', 'krumm', 'glatt', 'kurz', 'zart', 'groß', 'biegsam', 'nachhaltig', 'neu', 'hohl', 'schmutzig', 'nass', 'gut', 'kratzig', 'praktisch', 'klobig', 'sportlich']",2,3.1234671999700367,None,,,,,,,,,,,,,,,,,,,,,,,,,,,,,,,,,,,,,,,,,,,,,,,,,,,,,,,,,,,,,,,,,3,2023-12-05_10h02.04.226,watkins1,2023.2.3,99.72893668300219,42,2023-12-05 10h02.17.161804 +0000,
,,,,,,,27,0,27,0,,,,,,,,,,,,,,,,,258.32522230013274,,,,,,,,,,258.31628350005485,258.80727550014853,,,1,1.2038674000650644,,,,,,,,,,,,,,,,,,,,,258.80728660011664,264.8116520999465,Fahrrad,blass,"['Fahrrad', 'blass']",restudy,3,"['Schlüssel', 'Kette', 'Geige', 'Eimer', 'Socke', 'Vase', 'Schere', 'Tasche', 'Jacke', 'Würfel', 'Bürste', 'Rucksack', 'Flasche', 'Blume', 'Buch', 'Ring', 'Hut', 'Brille', 'Telefon', 'Löffel', 'Kamera', 'Stift', 'Tasse', 'Hammer', 'Trommel', 'Lampe', 'Kiste', 'Fahrrad', 'Uhr', 'Kerze']","['lustig', 'dunkel', 'lang', 'schlicht', 'glänzend', 'niedlich', 'matt', 'robust', 'schwer', 'rustikal', 'breit', 'krumm', 'glatt', 'kurz', 'zart', 'groß', 'biegsam', 'nachhaltig', 'neu', 'hohl', 'schmutzig', 'nass', 'gut', 'kratzig', 'praktisch', 'klobig', 'sportlich', 'blass']",1,1.2038674000650644,None,,,,,,,,,,,,,,,,,,,,,,,,,,,,,,,,,,,,,,,,,,,,,,,,,,,,,,,,,,,,,,,,,3,2023-12-05_10h02.04.226,watkins1,2023.2.3,99.72893668300219,42,2023-12-05 10h02.17.161804 +0000,
,,,,,,,28,0,28,0,,,,,,,,,,,,,,,,,264.8211509999819,,,,,,,,,,264.8121826001443,265.3032442999538,,,3,2.9390825999435037,,,,,,,,,,,,,,,,,,,,,265.30325480015017,271.3134653000161,Uhr,durchsichtig,"['Uhr', 'durchsichtig']",test_adj,3,"['Schlüssel', 'Kette', 'Geige', 'Eimer', 'Socke', 'Vase', 'Schere', 'Tasche', 'Jacke', 'Würfel', 'Bürste', 'Rucksack', 'Flasche', 'Blume', 'Buch', 'Ring', 'Hut', 'Brille', 'Telefon', 'Löffel', 'Kamera', 'Stift', 'Tasse', 'Hammer', 'Trommel', 'Lampe', 'Kiste', 'Fahrrad', 'Uhr', 'Kerze']","['lustig', 'dunkel', 'lang', 'schlicht', 'glänzend', 'niedlich', 'matt', 'robust', 'schwer', 'rustikal', 'breit', 'krumm', 'glatt', 'kurz', 'zart', 'groß', 'biegsam', 'nachhaltig', 'neu', 'hohl', 'schmutzig', 'nass', 'gut', 'kratzig', 'praktisch', 'klobig', 'sportlich', 'blass', 'durchsichtig']",3,2.9390825999435037,None,,,,,,,,,,,,,,,,,,,,,,,,,,,,,,,,,,,,,,,,,,,,,,,,,,,,,,,,,,,,,,,,,3,2023-12-05_10h02.04.226,watkins1,2023.2.3,99.72893668300219,42,2023-12-05 10h02.17.161804 +0000,
,,,,,,,29,0,29,0,,,,,,,,,,,,,,,,,271.3230393999256,,,,,,,,,,271.3140004000161,271.8050415001344,,,1,2.3340172998141497,,,,,,,,,,,,,,,,,,,,,271.8050526001025,277.81484270002693,Kerze,hässlich,"['Kerze', 'hässlich']",test_adj,3,"['Schlüssel', 'Kette', 'Geige', 'Eimer', 'Socke', 'Vase', 'Schere', 'Tasche', 'Jacke', 'Würfel', 'Bürste', 'Rucksack', 'Flasche', 'Blume', 'Buch', 'Ring', 'Hut', 'Brille', 'Telefon', 'Löffel', 'Kamera', 'Stift', 'Tasse', 'Hammer', 'Trommel', 'Lampe', 'Kiste', 'Fahrrad', 'Uhr', 'Kerze']","['lustig', 'dunkel', 'lang', 'schlicht', 'glänzend', 'niedlich', 'matt', 'robust', 'schwer', 'rustikal', 'breit', 'krumm', 'glatt', 'kurz', 'zart', 'groß', 'biegsam', 'nachhaltig', 'neu', 'hohl', 'schmutzig', 'nass', 'gut', 'kratzig', 'praktisch', 'klobig', 'sportlich', 'blass', 'durchsichtig', 'hässlich']",1,2.3340172998141497,None,,,,,,,,,,,,,,,,,,,,,,,,,,,,,,,,,,,,,,,,,,,,,,,,,,,,,,,,,,,,,,,,,3,2023-12-05_10h02.04.226,watkins1,2023.2.3,99.72893668300219,42,2023-12-05 10h02.17.161804 +0000,
,,,,,,,,,,,0,0,0,0,,,,,,,,,,,,,277.82426080014557,,,,,,,,,,277.8157017000485,278.3064437001012,,,[],[],,,,,,,,,,,,None,None,,,,,,,,,,Löffel,hohl,"['Löffel', 'hohl']",test_adj,3,,,,,,277.8156262000557,277.81567450007424,"['Löffel', 'Lampe', 'Kiste', 'Fahrrad', 'Kette', 'Bürste', 'Vase', 'Socke', 'Jacke', 'Trommel', 'Eimer', 'Kamera', 'Telefon', 'Blume', 'Rucksack', 'Schere', 'Hammer', 'Tasse', 'Tasche', 'Brille', 'Flasche', 'Schlüssel', 'Würfel', 'Ring', 'Hut', 'Geige', 'Stift', 'Uhr', 'Buch', 'Kerze']",278.3064542999491,278.3092070000712,None,278.30938740004785,278.3120399999898,None,278.31220489996485,278.3147980000358,None,278.3149570999667,0,284.32045860006474,284.32047230005264,284.32163859996945,,,,,,,,,,,,,,,,,,,,,,,,,,,,,,,,,,,,,,,,,,,,,,,,3,2023-12-05_10h02.04.226,watkins1,2023.2.3,99.72893668300219,42,2023-12-05 10h02.17.161804 +0000,
,,,,,,,,,,,1,0,1,0,,,,,,,,,,,,,284.3302534001414,,,,,,,,,,284.3219262000639,284.81238190014847,,,[],[],,,,,,,,,,,matt,None,None,,,,,,,,,,Lampe,klobig,"['Lampe', 'klobig']",test_adj,3,,,,,,284.32185960002244,284.32189740007743,"['Löffel', 'Lampe', 'Kiste', 'Fahrrad', 'Kette', 'Bürste', 'Vase', 'Socke', 'Jacke', 'Trommel', 'Eimer', 'Kamera', 'Telefon', 'Blume', 'Rucksack', 'Schere', 'Hammer', 'Tasse', 'Tasche', 'Brille', 'Flasche', 'Schlüssel', 'Würfel', 'Ring', 'Hut', 'Geige', 'Stift', 'Uhr', 'Buch', 'Kerze']",284.81239200010896,284.81495129992254,None,284.8150770999491,284.8174785000738,None,284.8175888999831,284.8199535999447,None,284.8200622999575,0,290.82439430011436,290.82440880010836,290.8260838999413,,,,,,,,,,,,,,,,,,,,,,,,,,,,,,,,,,,,,,,,,,,,,,,,3,2023-12-05_10h02.04.226,watkins1,2023.2.3,99.72893668300219,42,2023-12-05 10h02.17.161804 +0000,
,,,,,,,,,,,2,0,2,0,,,,,,,,,,,,,290.83420179993846,,,,,,,,,,290.8263719000388,291.31626769993454,,,[],[],,,,,,,,,,,praktis,None,None,,,,,,,,,,Kiste,sportlich,"['Kiste', 'sportlich']",test_adj,3,,,,,,290.8263036001008,290.8263433999382,"['Löffel', 'Lampe', 'Kiste', 'Fahrrad', 'Kette', 'Bürste', 'Vase', 'Socke', 'Jacke', 'Trommel', 'Eimer', 'Kamera', 'Telefon', 'Blume', 'Rucksack', 'Schere', 'Hammer', 'Tasse', 'Tasche', 'Brille', 'Flasche', 'Schlüssel', 'Würfel', 'Ring', 'Hut', 'Geige', 'Stift', 'Uhr', 'Buch', 'Kerze']",291.31627860013396,291.3189181999769,None,291.31904210010543,291.3215534000192,None,291.32166399993,291.324170100037,None,291.3242816000711,0,297.328810099978,297.3288243999705,297.33011239999905,,,,,,,,,,,,,,,,,,,,,,,,,,,,,,,,,,,,,,,,,,,,,,,,3,2023-12-05_10h02.04.226,watkins1,2023.2.3,99.72893668300219,42,2023-12-05 10h02.17.161804 +0000,
,,,,,,,,,,,3,0,3,0,,,,,,,,,,,,,297.3386977999471,,,,,,,,,,297.33039880008437,297.8207660999615,,,[],[],,,,,,,,,,,,None,None,,,,,,,,,,Fahrrad,blass,"['Fahrrad', 'blass']",restudy,3,,,,,,297.3303301001433,297.3303696999792,"['Löffel', 'Lampe', 'Kiste', 'Fahrrad', 'Kette', 'Bürste', 'Vase', 'Socke', 'Jacke', 'Trommel', 'Eimer', 'Kamera', 'Telefon', 'Blume', 'Rucksack', 'Schere', 'Hammer', 'Tasse', 'Tasche', 'Brille', 'Flasche', 'Schlüssel', 'Würfel', 'Ring', 'Hut', 'Geige', 'Stift', 'Uhr', 'Buch', 'Kerze']",297.8207777000498,297.8237383000087,None,297.823861700017,303.8272689001169,1,303.82765530003235,303.8303749000188,None,303.8304888999555,,303.83209599996917,303.83210769994184,303.8332468001172,4.242729700170457,None,,,,,,,,,,,,,,,,,,,,,,,,,,,,,,,,,,,,,,,,,,,,,,3,2023-12-05_10h02.04.226,watkins1,2023.2.3,99.72893668300219,42,2023-12-05 10h02.17.161804 +0000,
,,,,,,,,,,,4,0,4,0,,,,,,,,,,,,,303.83673610002734,,,,,,,,,,303.8335325999651,304.32894250005484,,,[],[],,,,,,,,,,,schmutzig,None,None,,,,,,,,,,Kette,dunkel,"['Kette', 'dunkel']",test_adj,3,,,,,,303.8334673999343,303.833505500108,"['Löffel', 'Lampe', 'Kiste', 'Fahrrad', 'Kette', 'Bürste', 'Vase', 'Socke', 'Jacke', 'Trommel', 'Eimer', 'Kamera', 'Telefon', 'Blume', 'Rucksack', 'Schere', 'Hammer', 'Tasse', 'Tasche', 'Brille', 'Flasche', 'Schlüssel', 'Würfel', 'Ring', 'Hut', 'Geige', 'Stift', 'Uhr', 'Buch', 'Kerze']",304.3289545001462,304.3315908999648,None,304.3317138000857,304.3331285000313,None,304.33323729992844,304.33465690002777,None,304.33476629992947,0,310.3372214999981,310.33723650011234,310.3385437000543,,,,,,,,,,,,,,,,,,,,,,,,,,,,,,,,,,,,,,,,,,,,,,,,3,2023-12-05_10h02.04.226,watkins1,2023.2.3,99.72893668300219,42,2023-12-05 10h02.17.161804 +0000,
,,,,,,,,,,,5,0,5,0,,,,,,,,,,,,,310.3469895001035,,,,,,,,,,310.33883100003004,310.8290345999412,,,[],[],,,,,,,,,,,,None,None,,,,,,,,,,Bürste,breit,"['Bürste', 'breit']",restudy,3,,,,,,310.33876239997335,310.3388018999249,"['Löffel', 'Lampe', 'Kiste', 'Fahrrad', 'Kette', 'Bürste', 'Vase', 'Socke', 'Jacke', 'Trommel', 'Eimer', 'Kamera', 'Telefon', 'Blume', 'Rucksack', 'Schere', 'Hammer', 'Tasse', 'Tasche', 'Brille', 'Flasche', 'Schlüssel', 'Würfel', 'Ring', 'Hut', 'Geige', 'Stift', 'Uhr', 'Buch', 'Kerze']",310.8290461001452,310.8317386000417,None,310.83186300005764,316.84036309993826,2,316.8406615999993,316.8433346999809,None,316.84344740002416,,316.8449683000799,316.84498009993695,316.846131300088,3.5950570998247713,None,,,,,,,,,,,,,,,,,,,,,,,,,,,,,,,,,,,,,,,,,,,,,,3,2023-12-05_10h02.04.226,watkins1,2023.2.3,99.72893668300219,42,2023-12-05 10h02.17.161804 +0000,
,,,,,,,,,,,6,0,6,0,,,,,,,,,,,,,316.84983830014244,,,,,,,,,,316.8464138000272,317.3418740001507,,,[],[],,,,,,,,,,,,None,None,,,,,,,,,,Vase,niedlich,"['Vase', 'niedlich']",restudy,3,,,,,,316.84634910011664,316.8463868999388,"['Löffel', 'Lampe', 'Kiste', 'Fahrrad', 'Kette', 'Bürste', 'Vase', 'Socke', 'Jacke', 'Trommel', 'Eimer', 'Kamera', 'Telefon', 'Blume', 'Rucksack', 'Schere', 'Hammer', 'Tasse', 'Tasche', 'Brille', 'Flasche', 'Schlüssel', 'Würfel', 'Ring', 'Hut', 'Geige', 'Stift', 'Uhr', 'Buch', 'Kerze']",317.34188550012186,317.344592400128,None,317.3447179000359,323.34808919997886,1,323.34838630002923,323.35099499998614,None,323.3511085000355,,323.3521583999973,323.35217040008865,323.3533847001381,1.922319500008598,None,,,,,,,,,,,,,,,,,,,,,,,,,,,,,,,,,,,,,,,,,,,,,,3,2023-12-05_10h02.04.226,watkins1,2023.2.3,99.72893668300219,42,2023-12-05 10h02.17.161804 +0000,
,,,,,,,,,,,7,0,7,0,,,,,,,,,,,,,323.3576072999276,,,,,,,,,,323.3536678000819,323.84968139999546,,,[],[],,,,,,,,,,,,None,None,,,,,,,,,,Socke,glänzend,"['Socke', 'glänzend']",restudy,3,,,,,,323.35360269993544,323.3536408999935,"['Löffel', 'Lampe', 'Kiste', 'Fahrrad', 'Kette', 'Bürste', 'Vase', 'Socke', 'Jacke', 'Trommel', 'Eimer', 'Kamera', 'Telefon', 'Blume', 'Rucksack', 'Schere', 'Hammer', 'Tasse', 'Tasche', 'Brille', 'Flasche', 'Schlüssel', 'Würfel', 'Ring', 'Hut', 'Geige', 'Stift', 'Uhr', 'Buch', 'Kerze']",323.8496926999651,323.85253780009225,None,323.8526657000184,329.85418150015175,1,329.854478900088,329.8572348000016,None,329.85734830005094,,329.858521200018,329.8585332001094,329.85975549998693,1.6308326998259872,None,,,,,,,,,,,,,,,,,,,,,,,,,,,,,,,,,,,,,,,,,,,,,,3,2023-12-05_10h02.04.226,watkins1,2023.2.3,99.72893668300219,42,2023-12-05 10h02.17.161804 +0000,
,,,,,,,,,,,8,0,8,0,,,,,,,,,,,,,329.863600499928,,,,,,,,,,329.86004059994593,330.35585910012014,,,[],[],,,,,,,,,,,,None,None,,,,,,,,,,Jacke,schwer,"['Jacke', 'schwer']",restudy,3,,,,,,329.85997460014187,329.8600131999701,"['Löffel', 'Lampe', 'Kiste', 'Fahrrad', 'Kette', 'Bürste', 'Vase', 'Socke', 'Jacke', 'Trommel', 'Eimer', 'Kamera', 'Telefon', 'Blume', 'Rucksack', 'Schere', 'Hammer', 'Tasse', 'Tasche', 'Brille', 'Flasche', 'Schlüssel', 'Würfel', 'Ring', 'Hut', 'Geige', 'Stift', 'Uhr', 'Buch', 'Kerze']",330.35587040008977,330.3587533000391,None,330.35887630004436,336.36406689998694,3,336.3643702000845,336.3670616999734,None,336.3671759001445,,336.36834240006283,336.3683542001527,336.3695213999599,1.5642274001147598,None,,,,,,,,,,,,,,,,,,,,,,,,,,,,,,,,,,,,,,,,,,,,,,3,2023-12-05_10h02.04.226,watkins1,2023.2.3,99.72893668300219,42,2023-12-05 10h02.17.161804 +0000,
,,,,,,,,,,,9,0,9,0,,,,,,,,,,,,,336.3734939999413,,,,,,,,,,336.369804300135,336.86564860004,,,[],[],,,,,,,,,,,,None,None,,,,,,,,,,Trommel,praktisch,"['Trommel', 'praktisch']",restudy,3,,,,,,336.36973870010115,336.3697774000466,"['Löffel', 'Lampe', 'Kiste', 'Fahrrad', 'Kette', 'Bürste', 'Vase', 'Socke', 'Jacke', 'Trommel', 'Eimer', 'Kamera', 'Telefon', 'Blume', 'Rucksack', 'Schere', 'Hammer', 'Tasse', 'Tasche', 'Brille', 'Flasche', 'Schlüssel', 'Würfel', 'Ring', 'Hut', 'Geige', 'Stift', 'Uhr', 'Buch', 'Kerze']",336.8656608001329,336.8685655000154,None,336.868691300042,342.87648470001295,1,342.8767786999233,342.87962130014785,None,342.8797327000648,,342.88091800012626,342.88092970009893,342.8821412001271,3.1342293000780046,None,,,,,,,,,,,,,,,,,,,,,,,,,,,,,,,,,,,,,,,,,,,,,,3,2023-12-05_10h02.04.226,watkins1,2023.2.3,99.72893668300219,42,2023-12-05 10h02.17.161804 +0000,
,,,,,,,,,,,10,0,10,0,,,,,,,,,,,,,342.88593270001,,,,,,,,,,342.8824211000465,343.3780557999853,,,[],[],,,,,,,,,,,,None,None,,,,,,,,,,Eimer,schlicht,"['Eimer', 'schlicht']",restudy,3,,,,,,342.8823574001435,342.88239479996264,"['Löffel', 'Lampe', 'Kiste', 'Fahrrad', 'Kette', 'Bürste', 'Vase', 'Socke', 'Jacke', 'Trommel', 'Eimer', 'Kamera', 'Telefon', 'Blume', 'Rucksack', 'Schere', 'Hammer', 'Tasse', 'Tasche', 'Brille', 'Flasche', 'Schlüssel', 'Würfel', 'Ring', 'Hut', 'Geige', 'Stift', 'Uhr', 'Buch', 'Kerze']",343.37806740007363,343.38096139999107,None,343.38108590012416,349.38774810009636,3,349.38804639992304,349.3907697999384,None,349.39088329998776,,349.3920440999791,349.39205590006895,349.39326849998906,2.94233509991318,None,,,,,,,,,,,,,,,,,,,,,,,,,,,,,,,,,,,,,,,,,,,,,,3,2023-12-05_10h02.04.226,watkins1,2023.2.3,99.72893668300219,42,2023-12-05 10h02.17.161804 +0000,
,,,,,,,,,,,11,0,11,0,,,,,,,,,,,,,349.3973590999376,,,,,,,,,,349.3935555999633,349.8893506999593,,,[],[],,,,,,,,,,,,None,None,,,,,,,,,,Kamera,schmutzig,"['Kamera', 'schmutzig']",restudy,3,,,,,,349.39348820014857,349.3935285001062,"['Löffel', 'Lampe', 'Kiste', 'Fahrrad', 'Kette', 'Bürste', 'Vase', 'Socke', 'Jacke', 'Trommel', 'Eimer', 'Kamera', 'Telefon', 'Blume', 'Rucksack', 'Schere', 'Hammer', 'Tasse', 'Tasche', 'Brille', 'Flasche', 'Schlüssel', 'Würfel', 'Ring', 'Hut', 'Geige', 'Stift', 'Uhr', 'Buch', 'Kerze']",349.889362399932,349.8922465001233,None,349.89237329992466,355.89394280011766,3,355.8942408999428,355.8969763000496,None,355.89708809996955,,355.8982679999899,355.89827980007976,355.89951010001823,3.0388599999714643,None,,,,,,,,,,,,,,,,,,,,,,,,,,,,,,,,,,,,,,,,,,,,,,3,2023-12-05_10h02.04.226,watkins1,2023.2.3,99.72893668300219,42,2023-12-05 10h02.17.161804 +0000,
,,,,,,,,,,,12,0,12,0,,,,,,,,,,,,,355.90341289993376,,,,,,,,,,355.8997955999803,356.3955062001478,,,[],[],,,,,,,,,,,,None,None,,,,,,,,,,Telefon,neu,"['Telefon', 'neu']",test_adj,3,,,,,,355.8997301000636,355.8997681001201,"['Löffel', 'Lampe', 'Kiste', 'Fahrrad', 'Kette', 'Bürste', 'Vase', 'Socke', 'Jacke', 'Trommel', 'Eimer', 'Kamera', 'Telefon', 'Blume', 'Rucksack', 'Schere', 'Hammer', 'Tasse', 'Tasche', 'Brille', 'Flasche', 'Schlüssel', 'Würfel', 'Ring', 'Hut', 'Geige', 'Stift', 'Uhr', 'Buch', 'Kerze']",356.39551770011894,356.39844819996506,None,356.3985741001088,356.400043200003,None,356.4001537000295,356.4016051001381,None,356.40171550004743,0,362.4043366999831,362.40435059997253,362.4059365000576,,,,,,,,,,,,,,,,,,,,,,,,,,,,,,,,,,,,,,,,,,,,,,,,3,2023-12-05_10h02.04.226,watkins1,2023.2.3,99.72893668300219,42,2023-12-05 10h02.17.161804 +0000,
,,,,,,,,,,,13,0,13,0,,,,,,,,,,,,,362.41414050012827,,,,,,,,,,362.4062286000699,362.89629409997724,,,[],[],,,,,,,,,,,kurz,None,None,,,,,,,,,,Blume,kurz,"['Blume', 'kurz']",test_adj,3,,,,,,362.40616040001623,362.40620000008494,"['Löffel', 'Lampe', 'Kiste', 'Fahrrad', 'Kette', 'Bürste', 'Vase', 'Socke', 'Jacke', 'Trommel', 'Eimer', 'Kamera', 'Telefon', 'Blume', 'Rucksack', 'Schere', 'Hammer', 'Tasse', 'Tasche', 'Brille', 'Flasche', 'Schlüssel', 'Würfel', 'Ring', 'Hut', 'Geige', 'Stift', 'Uhr', 'Buch', 'Kerze']",362.89630550006405,362.8988709000405,None,362.8989959999453,362.9013527999632,None,362.9014640999958,362.90380490012467,None,362.903914200142,0,368.90911090001464,368.9091252000071,368.9102926000487,,,,,,,,,,,,,,,,,,,,,,,,,,,,,,,,,,,,,,,,,,,,,,,,3,2023-12-05_10h02.04.226,watkins1,2023.2.3,99.72893668300219,42,2023-12-05 10h02.17.161804 +0000,
,,,,,,,,,,,14,0,14,0,,,,,,,,,,,,,368.918874300085,,,,,,,,,,368.91058070003055,369.400959599996,,,[],[],,,,,,,,,,,,None,None,,,,,,,,,,Rucksack,krumm,"['Rucksack', 'krumm']",restudy,3,,,,,,368.91051340010017,368.91055230004713,"['Löffel', 'Lampe', 'Kiste', 'Fahrrad', 'Kette', 'Bürste', 'Vase', 'Socke', 'Jacke', 'Trommel', 'Eimer', 'Kamera', 'Telefon', 'Blume', 'Rucksack', 'Schere', 'Hammer', 'Tasse', 'Tasche', 'Brille', 'Flasche', 'Schlüssel', 'Würfel', 'Ring', 'Hut', 'Geige', 'Stift', 'Uhr', 'Buch', 'Kerze']",369.4009706999641,369.40358779998496,None,369.40371700003743,375.4086959999986,2,375.40900070010684,375.41171859996393,None,375.41183320013806,,375.4133938001469,375.41340620000847,375.4146315001417,2.087456400040537,None,,,,,,,,,,,,,,,,,,,,,,,,,,,,,,,,,,,,,,,,,,,,,,3,2023-12-05_10h02.04.226,watkins1,2023.2.3,99.72893668300219,42,2023-12-05 10h02.17.161804 +0000,
,,,,,,,,,,,15,0,15,0,,,,,,,,,,,,,375.418160200119,,,,,,,,,,375.4149317999836,375.9103796000127,,,[],[],,,,,,,,,,,,None,None,,,,,,,,,,Schere,matt,"['Schere', 'matt']",restudy,3,,,,,,375.41486240015365,375.4149031001143,"['Löffel', 'Lampe', 'Kiste', 'Fahrrad', 'Kette', 'Bürste', 'Vase', 'Socke', 'Jacke', 'Trommel', 'Eimer', 'Kamera', 'Telefon', 'Blume', 'Rucksack', 'Schere', 'Hammer', 'Tasse', 'Tasche', 'Brille', 'Flasche', 'Schlüssel', 'Würfel', 'Ring', 'Hut', 'Geige', 'Stift', 'Uhr', 'Buch', 'Kerze']",375.9103914001025,375.91312759998254,None,375.913257899927,381.91555860009976,3,381.915856000036,381.9184083000291,None,381.91852180007845,,381.9197100000456,381.91972200013697,381.9207762000151,2.6020164999645203,None,,,,,,,,,,,,,,,,,,,,,,,,,,,,,,,,,,,,,,,,,,,,,,3,2023-12-05_10h02.04.226,watkins1,2023.2.3,99.72893668300219,42,2023-12-05 10h02.17.161804 +0000,
,,,,,,,,,,,16,0,16,0,,,,,,,,,,,,,381.92508519999683,,,,,,,,,,381.9210580000654,382.41720620007254,,,[],[],,,,,,,,,,,,None,None,,,,,,,,,,Hammer,kratzig,"['Hammer', 'kratzig']",restudy,3,,,,,,381.9209925001487,381.92103089997545,"['Löffel', 'Lampe', 'Kiste', 'Fahrrad', 'Kette', 'Bürste', 'Vase', 'Socke', 'Jacke', 'Trommel', 'Eimer', 'Kamera', 'Telefon', 'Blume', 'Rucksack', 'Schere', 'Hammer', 'Tasse', 'Tasche', 'Brille', 'Flasche', 'Schlüssel', 'Würfel', 'Ring', 'Hut', 'Geige', 'Stift', 'Uhr', 'Buch', 'Kerze']",382.41721730004065,382.41975410003215,None,382.41987879993394,388.4271251000464,1,388.42743030004203,388.43048350000754,None,388.4305972000584,,388.4317842000164,388.4317960999906,388.43300159997307,1.8473799000494182,None,,,,,,,,,,,,,,,,,,,,,,,,,,,,,,,,,,,,,,,,,,,,,,3,2023-12-05_10h02.04.226,watkins1,2023.2.3,99.72893668300219,42,2023-12-05 10h02.17.161804 +0000,
,,,,,,,,,,,17,0,17,0,,,,,,,,,,,,,388.4365974999964,,,,,,,,,,388.43328680004925,388.9287737000268,,,[],[],,,,,,,,,,,glatt,None,None,,,,,,,,,,Tasse,gut,"['Tasse', 'gut']",test_adj,3,,,,,,388.4332206000108,388.4332598000765,"['Löffel', 'Lampe', 'Kiste', 'Fahrrad', 'Kette', 'Bürste', 'Vase', 'Socke', 'Jacke', 'Trommel', 'Eimer', 'Kamera', 'Telefon', 'Blume', 'Rucksack', 'Schere', 'Hammer', 'Tasse', 'Tasche', 'Brille', 'Flasche', 'Schlüssel', 'Würfel', 'Ring', 'Hut', 'Geige', 'Stift', 'Uhr', 'Buch', 'Kerze']",388.9287849999964,388.9314846000634,None,388.9316088000778,388.933043200057,None,388.9331547000911,388.9345979001373,None,388.9347071000375,0,394.9369477001019,394.9369620999787,394.93821629998274,,,,,,,,,,,,,,,,,,,,,,,,,,,,,,,,,,,,,,,,,,,,,,,,3,2023-12-05_10h02.04.226,watkins1,2023.2.3,99.72893668300219,42,2023-12-05 10h02.17.161804 +0000,
,,,,,,,,,,,18,0,18,0,,,,,,,,,,,,,394.94670920004137,,,,,,,,,,394.938507999992,395.42875880002975,,,[],[],,,,,,,,,,,robust,None,None,,,,,,,,,,Tasche,robust,"['Tasche', 'robust']",test_adj,3,,,,,,394.93844010005705,394.9384793001227,"['Löffel', 'Lampe', 'Kiste', 'Fahrrad', 'Kette', 'Bürste', 'Vase', 'Socke', 'Jacke', 'Trommel', 'Eimer', 'Kamera', 'Telefon', 'Blume', 'Rucksack', 'Schere', 'Hammer', 'Tasse', 'Tasche', 'Brille', 'Flasche', 'Schlüssel', 'Würfel', 'Ring', 'Hut', 'Geige', 'Stift', 'Uhr', 'Buch', 'Kerze']",395.428769600112,395.431310800137,None,395.4314342001453,395.4338132000994,None,395.4339270000346,395.43639279995114,None,395.43650169996545,0,401.442861800082,401.44287639996037,401.4441829000134,,,,,,,,,,,,,,,,,,,,,,,,,,,,,,,,,,,,,,,,,,,,,,,,3,2023-12-05_10h02.04.226,watkins1,2023.2.3,99.72893668300219,42,2023-12-05 10h02.17.161804 +0000,
,,,,,,,,,,,19,0,19,0,,,,,,,,,,,,,401.4526585000567,,,,,,,,,,401.44447200000286,401.93461280013435,,,[],[],,,,,,,,,,,,None,None,,,,,,,,,,Brille,nachhaltig,"['Brille', 'nachhaltig']",restudy,3,,,,,,401.44440239993855,401.4444425001275,"['Löffel', 'Lampe', 'Kiste', 'Fahrrad', 'Kette', 'Bürste', 'Vase', 'Socke', 'Jacke', 'Trommel', 'Eimer', 'Kamera', 'Telefon', 'Blume', 'Rucksack', 'Schere', 'Hammer', 'Tasse', 'Tasche', 'Brille', 'Flasche', 'Schlüssel', 'Würfel', 'Ring', 'Hut', 'Geige', 'Stift', 'Uhr', 'Buch', 'Kerze']",401.934624500107,401.93735160003416,None,401.9374786999542,407.94162010005675,1,407.94192799995653,407.94470180012286,None,407.9448150000535,,407.94629430002533,407.9463063001167,407.9475577000994,1.457470400026068,None,,,,,,,,,,,,,,,,,,,,,,,,,,,,,,,,,,,,,,,,,,,,,,3,2023-12-05_10h02.04.226,watkins1,2023.2.3,99.72893668300219,42,2023-12-05 10h02.17.161804 +0000,
,,,,,,,,,,,20,0,20,0,,,,,,,,,,,,,407.9511933999602,,,,,,,,,,407.94784040004015,408.443162499927,,,[],[],,,,,,,,,,,glatt,None,None,,,,,,,,,,Flasche,glatt,"['Flasche', 'glatt']",test_adj,3,,,,,,407.94777520000935,407.94781320006587,"['Löffel', 'Lampe', 'Kiste', 'Fahrrad', 'Kette', 'Bürste', 'Vase', 'Socke', 'Jacke', 'Trommel', 'Eimer', 'Kamera', 'Telefon', 'Blume', 'Rucksack', 'Schere', 'Hammer', 'Tasse', 'Tasche', 'Brille', 'Flasche', 'Schlüssel', 'Würfel', 'Ring', 'Hut', 'Geige', 'Stift', 'Uhr', 'Buch', 'Kerze']",408.44317400013097,408.445958300028,None,408.44608439994045,408.4475539000705,None,408.447665899992,408.44912320002913,None,408.44923779997043,0,414.4518904001452,414.45190500002354,414.4531938000582,,,,,,,,,,,,,,,,,,,,,,,,,,,,,,,,,,,,,,,,,,,,,,,,3,2023-12-05_10h02.04.226,watkins1,2023.2.3,99.72893668300219,42,2023-12-05 10h02.17.161804 +0000,
,,,,,,,,,,,21,0,21,0,,,,,,,,,,,,,414.4616992000956,,,,,,,,,,414.4534803000279,414.9435519000981,,,[],[],,,,,,,,,,,,None,None,,,,,,,,,,Schlüssel,lustig,"['Schlüssel', 'lustig']",test_adj,3,,,,,,414.45341229997575,414.45345170004293,"['Löffel', 'Lampe', 'Kiste', 'Fahrrad', 'Kette', 'Bürste', 'Vase', 'Socke', 'Jacke', 'Trommel', 'Eimer', 'Kamera', 'Telefon', 'Blume', 'Rucksack', 'Schere', 'Hammer', 'Tasse', 'Tasche', 'Brille', 'Flasche', 'Schlüssel', 'Würfel', 'Ring', 'Hut', 'Geige', 'Stift', 'Uhr', 'Buch', 'Kerze']",414.94356389995664,414.94630279997364,None,414.9464300000109,414.94897749996744,None,414.94908619998023,414.95176369999535,None,414.95187320001423,0,420.95705029997043,420.9570645999629,420.9583552000113,,,,,,,,,,,,,,,,,,,,,,,,,,,,,,,,,,,,,,,,,,,,,,,,3,2023-12-05_10h02.04.226,watkins1,2023.2.3,99.72893668300219,42,2023-12-05 10h02.17.161804 +0000,
,,,,,,,,,,,22,0,22,0,,,,,,,,,,,,,420.9668558000121,,,,,,,,,,420.95864120009355,421.44883310003206,,,[],[],,,,,,,,,,,,None,None,,,,,,,,,,Würfel,rustikal,"['Würfel', 'rustikal']",test_adj,3,,,,,,420.9585734999273,420.9586120999884,"['Löffel', 'Lampe', 'Kiste', 'Fahrrad', 'Kette', 'Bürste', 'Vase', 'Socke', 'Jacke', 'Trommel', 'Eimer', 'Kamera', 'Telefon', 'Blume', 'Rucksack', 'Schere', 'Hammer', 'Tasse', 'Tasche', 'Brille', 'Flasche', 'Schlüssel', 'Würfel', 'Ring', 'Hut', 'Geige', 'Stift', 'Uhr', 'Buch', 'Kerze']",421.4488444000017,421.45154429995455,None,421.45167109998874,421.4542140001431,None,421.45432589994743,421.4568825000897,None,421.45699310000055,0,427.4608307001181,427.4608448999934,427.46217930014245,,,,,,,,,,,,,,,,,,,,,,,,,,,,,,,,,,,,,,,,,,,,,,,,3,2023-12-05_10h02.04.226,watkins1,2023.2.3,99.72893668300219,42,2023-12-05 10h02.17.161804 +0000,
,,,,,,,,,,,23,0,23,0,,,,,,,,,,,,,427.47061740001664,,,,,,,,,,427.46247060014866,427.9528373000212,,,[],[],,,,,,,,,,,,None,None,,,,,,,,,,Ring,groß,"['Ring', 'groß']",restudy,3,,,,,,427.4624026999809,427.4624415000435,"['Löffel', 'Lampe', 'Kiste', 'Fahrrad', 'Kette', 'Bürste', 'Vase', 'Socke', 'Jacke', 'Trommel', 'Eimer', 'Kamera', 'Telefon', 'Blume', 'Rucksack', 'Schere', 'Hammer', 'Tasse', 'Tasche', 'Brille', 'Flasche', 'Schlüssel', 'Würfel', 'Ring', 'Hut', 'Geige', 'Stift', 'Uhr', 'Buch', 'Kerze']",427.9528483999893,427.9554258000571,None,427.95555180008523,433.9588985000737,2,433.95919720013626,433.9616336999461,None,433.96174930012785,,433.96278780000284,433.96279989997856,433.96384129999205,2.735863999929279,None,,,,,,,,,,,,,,,,,,,,,,,,,,,,,,,,,,,,,,,,,,,,,,3,2023-12-05_10h02.04.226,watkins1,2023.2.3,99.72893668300219,42,2023-12-05 10h02.17.161804 +0000,
,,,,,,,,,,,24,0,24,0,,,,,,,,,,,,,433.9683827999979,,,,,,,,,,433.96413929993287,434.4605872000102,,,[],[],,,,,,,,,,,biegsam,None,None,,,,,,,,,,Hut,biegsam,"['Hut', 'biegsam']",test_adj,3,,,,,,433.96407370013185,433.9641126000788,"['Löffel', 'Lampe', 'Kiste', 'Fahrrad', 'Kette', 'Bürste', 'Vase', 'Socke', 'Jacke', 'Trommel', 'Eimer', 'Kamera', 'Telefon', 'Blume', 'Rucksack', 'Schere', 'Hammer', 'Tasse', 'Tasche', 'Brille', 'Flasche', 'Schlüssel', 'Würfel', 'Ring', 'Hut', 'Geige', 'Stift', 'Uhr', 'Buch', 'Kerze']",434.460598600097,434.46301780012436,None,434.4631443999242,434.464434399968,None,434.46454540011473,434.4658272000961,None,434.4659375001211,0,440.46791710006073,440.4679318999406,440.46927460003644,,,,,,,,,,,,,,,,,,,,,,,,,,,,,,,,,,,,,,,,,,,,,,,,3,2023-12-05_10h02.04.226,watkins1,2023.2.3,99.72893668300219,42,2023-12-05 10h02.17.161804 +0000,
,,,,,,,,,,,25,0,25,0,,,,,,,,,,,,,440.47776279994287,,,,,,,,,,440.4695650001522,440.95989729999565,,,[],[],,,,,,,,,,,,None,None,,,,,,,,,,Geige,lang,"['Geige', 'lang']",restudy,3,,,,,,440.46949649997987,440.4695357999299,"['Löffel', 'Lampe', 'Kiste', 'Fahrrad', 'Kette', 'Bürste', 'Vase', 'Socke', 'Jacke', 'Trommel', 'Eimer', 'Kamera', 'Telefon', 'Blume', 'Rucksack', 'Schere', 'Hammer', 'Tasse', 'Tasche', 'Brille', 'Flasche', 'Schlüssel', 'Würfel', 'Ring', 'Hut', 'Geige', 'Stift', 'Uhr', 'Buch', 'Kerze']",440.95990950008854,440.96269539999776,None,440.96282380004413,446.9707498000935,1,446.971049600048,446.9736023999285,None,446.9737144999672,,446.9751786000561,446.97519040014595,446.9762226000894,1.528495900100097,None,,,,,,,,,,,,,,,,,,,,,,,,,,,,,,,,,,,,,,,,,,,,,,3,2023-12-05_10h02.04.226,watkins1,2023.2.3,99.72893668300219,42,2023-12-05 10h02.17.161804 +0000,
,,,,,,,,,,,26,0,26,0,,,,,,,,,,,,,446.9802153001074,,,,,,,,,,446.97650799993426,447.47223650012165,,,[],[],,,,,,,,,,,,None,None,,,,,,,,,,Stift,nass,"['Stift', 'nass']",restudy,3,,,,,,446.97644260013476,446.9764809999615,"['Löffel', 'Lampe', 'Kiste', 'Fahrrad', 'Kette', 'Bürste', 'Vase', 'Socke', 'Jacke', 'Trommel', 'Eimer', 'Kamera', 'Telefon', 'Blume', 'Rucksack', 'Schere', 'Hammer', 'Tasse', 'Tasche', 'Brille', 'Flasche', 'Schlüssel', 'Würfel', 'Ring', 'Hut', 'Geige', 'Stift', 'Uhr', 'Buch', 'Kerze']",447.4722478999756,447.4753594000358,None,447.47548580006696,453.4792945999652,1,453.4795928001404,453.48213430005126,None,453.48224840010516,,453.4834809000604,453.4834933001548,453.4845376999583,1.8157371999695897,None,,,,,,,,,,,,,,,,,,,,,,,,,,,,,,,,,,,,,,,,,,,,,,3,2023-12-05_10h02.04.226,watkins1,2023.2.3,99.72893668300219,42,2023-12-05 10h02.17.161804 +0000,
,,,,,,,,,,,27,0,27,0,,,,,,,,,,,,,453.4887681999244,,,,,,,,,,453.48482399992645,453.9809008000884,,,[],[],,,,,,,,,,,durchsichtig,None,None,,,,,,,,,,Uhr,durchsichtig,"['Uhr', 'durchsichtig']",test_adj,3,,,,,,453.4847585000098,453.4847967000678,"['Löffel', 'Lampe', 'Kiste', 'Fahrrad', 'Kette', 'Bürste', 'Vase', 'Socke', 'Jacke', 'Trommel', 'Eimer', 'Kamera', 'Telefon', 'Blume', 'Rucksack', 'Schere', 'Hammer', 'Tasse', 'Tasche', 'Brille', 'Flasche', 'Schlüssel', 'Würfel', 'Ring', 'Hut', 'Geige', 'Stift', 'Uhr', 'Buch', 'Kerze']",453.9809125000611,453.98330059996806,None,453.9834247000981,453.9847200999502,None,453.98483210010454,453.9861280999612,None,453.98623799998313,0,459.9923374000937,459.9923523000907,459.99381679994985,,,,,,,,,,,,,,,,,,,,,,,,,,,,,,,,,,,,,,,,,,,,,,,,3,2023-12-05_10h02.04.226,watkins1,2023.2.3,99.72893668300219,42,2023-12-05 10h02.17.161804 +0000,
,,,,,,,,,,,28,0,28,0,,,,,,,,,,,,,460.0020924999844,,,,,,,,,,459.9941068000626,460.48420229996555,,,[],[],,,,,,,,,,,,None,None,,,,,,,,,,Buch,zart,"['Buch', 'zart']",test_adj,3,,,,,,459.99403730011545,459.99407740007155,"['Löffel', 'Lampe', 'Kiste', 'Fahrrad', 'Kette', 'Bürste', 'Vase', 'Socke', 'Jacke', 'Trommel', 'Eimer', 'Kamera', 'Telefon', 'Blume', 'Rucksack', 'Schere', 'Hammer', 'Tasse', 'Tasche', 'Brille', 'Flasche', 'Schlüssel', 'Würfel', 'Ring', 'Hut', 'Geige', 'Stift', 'Uhr', 'Buch', 'Kerze']",460.4842129999306,460.486857800046,None,460.48698000004515,460.48946380009875,None,460.4895737001207,460.4921580001246,None,460.4922656000126,0,466.4972689000424,466.4972827001475,466.49845710000955,,,,,,,,,,,,,,,,,,,,,,,,,,,,,,,,,,,,,,,,,,,,,,,,3,2023-12-05_10h02.04.226,watkins1,2023.2.3,99.72893668300219,42,2023-12-05 10h02.17.161804 +0000,
,,,,,,,,,,,29,0,29,0,,,,,,,,,,,,,466.50705919996835,,,,,,,,,,466.49874250008725,466.9890443000477,,,[],[],,,,,,,,,,,,None,None,,,,,,,,,,Kerze,hässlich,"['Kerze', 'hässlich']",test_adj,3,,,,,,466.49867390003055,466.4987139001023,"['Löffel', 'Lampe', 'Kiste', 'Fahrrad', 'Kette', 'Bürste', 'Vase', 'Socke', 'Jacke', 'Trommel', 'Eimer', 'Kamera', 'Telefon', 'Blume', 'Rucksack', 'Schere', 'Hammer', 'Tasse', 'Tasche', 'Brille', 'Flasche', 'Schlüssel', 'Würfel', 'Ring', 'Hut', 'Geige', 'Stift', 'Uhr', 'Buch', 'Kerze']",466.9890556000173,466.991602800088,None,466.9917278001085,466.9941195999272,None,466.99422969995067,466.9966124999337,None,466.9967217000667,0,473.00053340010345,473.0005473999772,473.00192290009,,,,,,,,,,,,,,,,,,,,,,,,,,,,,,,,,,,,,,,,,,,,,,,,3,2023-12-05_10h02.04.226,watkins1,2023.2.3,99.72893668300219,42,2023-12-05 10h02.17.161804 +0000,
,,,,,,,,,,,,,,,,,,,,,,,,,,,,,,,,,,,,,,,,,,,,,,,,,,,,,,,,,,,,,,,,,,,,,3,,,,,,,,,,,,,,,,,,,,,,,,,,,,,,,,,,,,,,,,,,,,,,,,,,,,,,,,,,,,,,,,,,,,,,3,2023-12-05_10h02.04.226,watkins1,2023.2.3,99.72893668300219,42,2023-12-05 10h02.17.161804 +0000,
(7 x 6) + 9 = 48 ,Incorrect,button_incorrect,,,,,,,,,,,,,0,0,0,9,,,,,,,,,495.82561810011975,,,,,,,,494.77391270012595,495.77757810009643,,,,,['button_incorrect'],[4.390964699909091],,,,,,,,,,,,,,,,,,,,,,,,,,distractorTask,3,,,,,,,,,,,,,,,,,,,,,,,,,495.81352680013515,495.82561810011975,500.2103023000527,[-0.34444444444444444],[-0.4064814814814815],[1],[0],[0],[4.390964699909091],['button_incorrect'],500.21129600005224,501.2139099999331,,,,,,,,,,,,,,,,,,,,,,,,,,,,,,,,,,3,2023-12-05_10h02.04.226,watkins1,2023.2.3,99.72893668300219,42,2023-12-05 10h02.17.161804 +0000,
(6 x 3) + 10 = 27 ,Incorrect,button_incorrect,,,,,,,,,,,,,0,1,1,8,,,,,,,,,501.22385660000145,,,,,,,,,,,,,,['button_incorrect'],[2.035650300094858],,,,,,,,,,,,,,,,,,,,,,,,,,distractorTask,3,,,,,,,,,,,,,,,,,,,,,,,,,501.2141040000133,501.22385660000145,503.2527779000811,[-0.3074074074074074],[-0.4101851851851852],[1],[0],[0],[2.035650300094858],['button_incorrect'],503.2531620000955,504.25646569998935,,,,,,,,,,,,,,,,,,,,,,,,,,,,,,,,,,3,2023-12-05_10h02.04.226,watkins1,2023.2.3,99.72893668300219,42,2023-12-05 10h02.17.161804 +0000,
(54 : 6) - 10 = 0 ,Incorrect,button_incorrect,,,,,,,,,,,,,0,2,2,5,,,,,,,,,504.2663922000211,,,,,,,,,,,,,,['button_incorrect'],[2.4073705000337213],,,,,,,,,,,,,,,,,,,,,,,,,,distractorTask,3,,,,,,,,,,,,,,,,,,,,,,,,,504.25665870006196,504.2663922000211,506.6669014999643,[-0.3074074074074074],[-0.4101851851851852],[1],[0],[0],[2.4073705000337213],['button_incorrect'],506.66728319996037,507.6704267000314,,,,,,,,,,,,,,,,,,,,,,,,,,,,,,,,,,3,2023-12-05_10h02.04.226,watkins1,2023.2.3,99.72893668300219,42,2023-12-05 10h02.17.161804 +0000,
(40 : 5) + 8 = 15 ,Incorrect,button_incorrect,,,,,,,,,,,,,0,3,3,7,,,,,,,,,507.68040640000254,,,,,,,,,,,,,,['button_incorrect'],[2.328454300062731],,,,,,,,,,,,,,,,,,,,,,,,,,distractorTask,3,,,,,,,,,,,,,,,,,,,,,,,,,507.6706286999397,507.68040640000254,510.00082810013555,[-0.3074074074074074],[-0.4101851851851852],[1],[0],[0],[2.328454300062731],['button_incorrect'],510.0012083000038,511.0045217999723,,,,,,,,,,,,,,,,,,,,,,,,,,,,,,,,,,3,2023-12-05_10h02.04.226,watkins1,2023.2.3,99.72893668300219,42,2023-12-05 10h02.17.161804 +0000,
(9 x 5) - 9 = 36 ,Correct,button_correct,,,,,,,,,,,,,0,4,4,4,,,,,,,,,511.014597899979,,,,,,,,,,,,,,['button_correct'],[2.8909372999332845],,,,,,,,,,,,,,,,,,,,,,,,,,distractorTask,3,,,,,,,,,,,,,,,,,,,,,,,,,511.00471030012704,511.014597899979,513.8973612999544,[0.30277777777777776],[-0.4046296296296296],[1],[0],[0],[2.8909372999332845],['button_correct'],513.8977439000737,514.9009606000036,,,,,,,,,,,,,,,,,,,,,,,,,,,,,,,,,,3,2023-12-05_10h02.04.226,watkins1,2023.2.3,99.72893668300219,42,2023-12-05 10h02.17.161804 +0000,
(80 : 10) + 9 = 17 ,Correct,button_correct,,,,,,,,,,,,,0,5,5,3,,,,,,,,,514.9110395000316,,,,,,,,,,,,,,['button_correct'],[2.378127499949187],,,,,,,,,,,,,,,,,,,,,,,,,,distractorTask,3,,,,,,,,,,,,,,,,,,,,,,,,,514.9011554999743,514.9110395000316,517.2812224000227,[0.29259259259259257],[-0.4074074074074074],[1],[0],[0],[2.378127499949187],['button_correct'],517.2816051000264,518.2850860999897,,,,,,,,,,,,,,,,,,,,,,,,,,,,,,,,,,3,2023-12-05_10h02.04.226,watkins1,2023.2.3,99.72893668300219,42,2023-12-05 10h02.17.161804 +0000,
(2 x 5) + 3 = 13 ,Correct,button_correct,,,,,,,,,,,,,0,6,6,2,,,,,,,,,518.295057100011,,,,,,,,,,,,,,['button_correct'],[1.2334386000875384],,,,,,,,,,,,,,,,,,,,,,,,,,distractorTask,3,,,,,,,,,,,,,,,,,,,,,,,,,518.285274400143,518.295057100011,519.5204161000438,[0.29259259259259257],[-0.4074074074074074],[1],[0],[0],[1.2334386000875384],['button_correct'],519.5208008000627,520.5242872999515,,,,,,,,,,,,,,,,,,,,,,,,,,,,,,,,,,3,2023-12-05_10h02.04.226,watkins1,2023.2.3,99.72893668300219,42,2023-12-05 10h02.17.161804 +0000,
(25 : 5) + 5 = 9 ,Incorrect,button_incorrect,,,,,,,,,,,,,0,7,7,6,,,,,,,,,520.5343706000131,,,,,,,,,,,,,,['button_incorrect'],[1.6260042998474091],,,,,,,,,,,,,,,,,,,,,,,,,,distractorTask,3,,,,,,,,,,,,,,,,,,,,,,,,,520.5244790001307,520.5343706000131,522.1521997000091,[-0.3453703703703704],[-0.3925925925925926],[1],[0],[0],[1.6260042998474091],['button_incorrect'],522.1525828000158,523.1554213000927,,,,,,,,,,,,,,,,,,,,,,,,,,,,,,,,,,3,2023-12-05_10h02.04.226,watkins1,2023.2.3,99.72893668300219,42,2023-12-05 10h02.17.161804 +0000,
(28 : 7) - 3 = 1 ,Correct,button_correct,,,,,,,,,,,,,0,8,8,0,,,,,,,,,523.1654114001431,,,,,,,,,,,,,,['button_incorrect'],"[2.699831300182268, 3.2118981999810785]",,,,,,,,,,,,,,,,,,,,,,,,,,distractorTask,3,,,,,,,,,,,,,,,,,,,,,,,,,523.1556108000223,523.1654114001431,526.3692356999964,"[-0.2722222222222222, -0.31666666666666665]","[-0.4027777777777778, -0.4027777777777778]","[1, 1]","[0, 0]","[0, 0]","[2.699831300182268, 3.2118981999810785]",['button_incorrect'],526.369635600131,527.3727927000728,,,,,,,,,,,,,,,,,,,,,,,,,,,,,,,,,,3,2023-12-05_10h02.04.226,watkins1,2023.2.3,99.72893668300219,42,2023-12-05 10h02.17.161804 +0000,
(4 : 2) + 4 = 6 ,Correct,button_correct,,,,,,,,,,,,,0,9,9,1,,,,,,,,,527.3828179999255,,,,,,,,,,,,,,['button_correct'],[2.007169699994847],,,,,,,,,,,,,,,,,,,,,,,,,,distractorTask,3,,,,,,,,,,,,,,,,,,,,,,,,,527.3729938000906,527.3828179999255,529.3818791001104,[0.41759259259259257],[-0.4166666666666667],[1],[0],[0],[2.007169699994847],['button_correct'],529.3822608999908,530.3854879999999,,,,,,,,,,,,,,,,,,,,,,,,,,,,,,,,,,3,2023-12-05_10h02.04.226,watkins1,2023.2.3,99.72893668300219,42,2023-12-05 10h02.17.161804 +0000,
,,,,,,,,,,,,,,,,,,,,,,,,,,,,,,,,,,,,,,,,,,,,,,,,,,,,,,,,,,,,,,,,,,,,,3,,,,,,,,,,,,,,,,,,,,,,,,,,,,,,,,,,,,,,,,,,,,,,,,,,,,,,,,,,,,,,,,,,,,,,3,2023-12-05_10h02.04.226,watkins1,2023.2.3,99.72893668300219,42,2023-12-05 10h02.17.161804 +0000,
,,,,,,,,,,,,,,,,,,,0,0,0,0,,,,,541.8315498000011,,,,,,,,,,,,,,Kerze,5.02379749994725,,,,,,,,,,,,2.7708791999612004,None,,,,,,,,,,,,,freeRecallSub,3,,,,,,,,,,,,,,,,,,,,,,,,,,,,,,,,,,,,,541.8229301001411,541.8315498000011,541.8315498000011,546.8626417000778,return,5.02379749994725,None,Kerze,[],[],[],[],[],[],[],,,,,,,,,,,,,,,,,,,3,2023-12-05_10h02.04.226,watkins1,2023.2.3,99.72893668300219,42,2023-12-05 10h02.17.161804 +0000,
,,,,,,,,,,,,,,,,,,,1,0,1,0,,,,,546.8746166001074,,,,,,,,,,,,,,Flasche,3.5567858000285923,,,,,,,,,,,,1.156199200078845,None,,,,,,,,,,,,,freeRecallSub,3,,,,,,,,,,,,,,,,,,,,,,,,,,,,,,,,,,,,,546.8644177999813,546.8746166001074,546.8746166001074,550.4411818000954,return,3.5567858000285923,None,Flasche,[],[],[],[],[],[],[],,,,,,,,,,,,,,,,,,,3,2023-12-05_10h02.04.226,watkins1,2023.2.3,99.72893668300219,42,2023-12-05 10h02.17.161804 +0000,
,,,,,,,,,,,,,,,,,,,2,0,2,0,,,,,550.4523724999744,,,,,,,,,,,,,,Geige,2.155015799915418,,,,,,,,,,,,0.5333032000344247,None,,,,,,,,,,,,,freeRecallSub,3,,,,,,,,,,,,,,,,,,,,,,,,,,,,,,,,,,,,,550.4424312999472,550.4523724999744,550.4523724999744,552.6125467000529,return,2.155015799915418,None,Geige,[],[],[],[],[],[],[],,,,,,,,,,,,,,,,,,,3,2023-12-05_10h02.04.226,watkins1,2023.2.3,99.72893668300219,42,2023-12-05 10h02.17.161804 +0000,
,,,,,,,,,,,,,,,,,,,3,0,3,0,,,,,552.6234733001329,,,,,,,,,,,,,,Eimer,2.7599493998568505,,,,,,,,,,,,0.5223375998903066,None,,,,,,,,,,,,,freeRecallSub,3,,,,,,,,,,,,,,,,,,,,,,,,,,,,,,,,,,,,,552.6138075999916,552.6234733001329,552.6234733001329,555.3855487999972,return,2.7599493998568505,None,Eimer,[],[],[],[],[],[],[],,,,,,,,,,,,,,,,,,,3,2023-12-05_10h02.04.226,watkins1,2023.2.3,99.72893668300219,42,2023-12-05 10h02.17.161804 +0000,
,,,,,,,,,,,,,,,,,,,4,0,4,0,,,,,555.3963383999653,,,,,,,,,,,,,,Rucksack,6.85100939986296,,,,,,,,,,,,2.048355699982494,None,,,,,,,,,,,,,freeRecallSub,3,,,,,,,,,,,,,,,,,,,,,,,,,,,,,,,,,,,,,555.386813600082,555.3963383999653,555.3963383999653,562.2553085000254,return,6.85100939986296,None,Rucksack,[],[],[],[],[],[],[],,,,,,,,,,,,,,,,,,,3,2023-12-05_10h02.04.226,watkins1,2023.2.3,99.72893668300219,42,2023-12-05 10h02.17.161804 +0000,
,,,,,,,,,,,,,,,,,,,5,0,5,0,,,,,562.2665667999536,,,,,,,,,,,,,,Kiste,3.17276390013285,,,,,,,,,,,,0.8542887999210507,None,,,,,,,,,,,,,freeRecallSub,3,,,,,,,,,,,,,,,,,,,,,,,,,,,,,,,,,,,,,562.2565936001483,562.2665667999536,562.2665667999536,565.4410397000611,return,3.17276390013285,None,Kiste,[],[],[],[],[],[],[],,,,,,,,,,,,,,,,,,,3,2023-12-05_10h02.04.226,watkins1,2023.2.3,99.72893668300219,42,2023-12-05 10h02.17.161804 +0000,
,,,,,,,,,,,,,,,,,,,6,0,6,0,,,,,565.4524056001101,,,,,,,,,,,,,,Hammer,53.3229123998899,,,,,,,,,,,,51.79159469995648,None,,,,,,,,,,,,,freeRecallSub,3,,,,,,,,,,,,,,,,,,,,,,,,,,,,,,,,,,,,,565.4423021001276,565.4524056001101,565.4524056001101,618.7803422000725,return,53.3229123998899,None,Hammer,[],[],[],[],[],[],[],,,,,,,,,,,,,,,,,,,3,2023-12-05_10h02.04.226,watkins1,2023.2.3,99.72893668300219,42,2023-12-05 10h02.17.161804 +0000,
,,,,,,,,,,,,,,,,,,,7,0,7,0,,,,,618.7920023000333,,,,,,,,,,,,,,Uhr,2.0712635999079794,,,,,,,,,,,,1.0459489999338984,None,,,,,,,,,,,,,freeRecallSub,3,,,,,,,,,,,,,,,,,,,,,,,,,,,,,,,,,,,,,618.7816393000539,618.7920023000333,618.7920023000333,620.8717126999982,return,2.0712635999079794,None,Uhr,[],[],[],[],[],[],[],,,,,,,,,,,,,,,,,,,3,2023-12-05_10h02.04.226,watkins1,2023.2.3,99.72893668300219,42,2023-12-05 10h02.17.161804 +0000,
,,,,,,,,,,,,,,,,,,,8,0,8,0,,,,,620.8836195000913,,,,,,,,,,,,,,Schere,67.02768500009552,,,,,,,,,,,,64.3508495001588,None,,,,,,,,,,,,,freeRecallSub,3,,,,,,,,,,,,,,,,,,,,,,,,,,,,,,,,,,,,,620.8729826000053,620.8836195000913,620.8836195000913,687.9151548000518,return,67.02768500009552,None,Schere,[],[],[],[],[],[],[],,,,,,,,,,,,,,,,,,,3,2023-12-05_10h02.04.226,watkins1,2023.2.3,99.72893668300219,42,2023-12-05 10h02.17.161804 +0000,
,,,,,,,,,,,,,,,,,,,9,0,9,0,,,,,687.9272815000731,,,,,,,,,,,,,,Bürste,21.13592560007237,,,,,,,,,,,,18.28920349990949,None,,,,,,,,,,,,,freeRecallSub,3,,,,,,,,,,,,,,,,,,,,,,,,,,,,,,,,,,,,,687.9164519000333,687.9272815000731,687.9272815000731,709.0683897000272,return,21.13592560007237,None,Bürste,[],[],[],[],[],[],[],,,,,,,,,,,,,,,,,,,3,2023-12-05_10h02.04.226,watkins1,2023.2.3,99.72893668300219,42,2023-12-05 10h02.17.161804 +0000,
,,,,,,,,,,,,,,,,,,,10,0,10,0,,,,,709.0815163999796,,,,,,,,,,,,,,,[],,,,,,,,,,,,None,None,,,,,,,,,,,,,freeRecallSub,3,,,,,,,,,,,,,,,,,,,,,,,,,,,,,,,,,,,,,709.0700819999911,709.0815163999796,709.0815163999796,863.2857179001439,None,,,,[0.22685185185185186],[-0.4148148148148148],[1],[0],[0],[154.2105872000102],['button_continue'],,,,,,,,,,,,,,,,,,,3,2023-12-05_10h02.04.226,watkins1,2023.2.3,99.72893668300219,42,2023-12-05 10h02.17.161804 +0000,
,,,,,,,,,,,,,,,,,,,,,,,,,,,,,,,,,,,,,,,,,,,,,,,,,,,,,,,,,,,,,,,,,,,,,3,,,,,,,,,,,,,,,,,,,,,,,,,,,,,,,,,,,,,,,,,,,,,,,,,,,,,,,,,,,,,,,,,,,,,,3,2023-12-05_10h02.04.226,watkins1,2023.2.3,99.72893668300219,42,2023-12-05 10h02.17.161804 +0000,
,,,,,,,,,,,,,,,,,,,,,,,0,0,0,0,874.0913996000309,,,,,,,,,,877.8405166000593,878.3393747999799,,,,3.739682799903676,,,,,,,,,,,,None,None,,,,,,,,,,Ring,,,cuedRecallAdj,3,,,,,,,,,,,,,,,,,,,0,,,,,,,,,,,,,,,,,,,,,,,,,,,,,,,,,874.082395200152,874.0913996000309,874.0913996000309,877.837495099986,groß,return,3.739682799903676,None,877.8378902000841,877.847081999993,877.847081999993,877.8403676999733,,None,,,,,3,2023-12-05_10h02.04.226,watkins1,2023.2.3,99.72893668300219,42,2023-12-05 10h02.17.161804 +0000,
,,,,,,,,,,,,,,,,,,,,,,,1,0,1,0,878.3493315000087,,,,,,,,,,885.2510885000229,885.7499867000151,,,,6.897704100003466,,,,,,,,,,,,None,None,,,,,,,,,,Vase,,,cuedRecallAdj,3,,,,,,,,,,,,,,,,,,,0,,,,,,,,,,,,,,,,,,,,,,,,,,,,,,,,,878.3396237001289,878.3493315000087,878.3493315000087,885.248201899929,schön,return,6.897704100003466,None,885.2484908001497,885.2577112000436,885.2577112000436,885.2509874999523,,None,,,,,3,2023-12-05_10h02.04.226,watkins1,2023.2.3,99.72893668300219,42,2023-12-05 10h02.17.161804 +0000,
,,,,,,,,,,,,,,,,,,,,,,,2,0,2,0,885.7599335999694,,,,,,,,,,889.8000366999768,890.2987711001188,,,,4.031115799909458,,,,,,,,,,,,None,None,,,,,,,,,,Lampe,,,cuedRecallAdj,3,,,,,,,,,,,,,,,,,,,0,,,,,,,,,,,,,,,,,,,,,,,,,,,,,,,,,885.7502391000744,885.7599335999694,885.7599335999694,889.797005499946,hell,return,4.031115799909458,None,889.7972697999794,889.806457699975,889.806457699975,889.7999356000219,,None,,,,,3,2023-12-05_10h02.04.226,watkins1,2023.2.3,99.72893668300219,42,2023-12-05 10h02.17.161804 +0000,
,,,,,,,,,,,,,,,,,,,,,,,3,0,3,0,890.3087733001448,,,,,,,,,,906.2998212000821,906.7985350999516,,,,15.978158399928361,,,,,,,,,,,,None,None,,,,,,,,,,Stift,,,cuedRecallAdj,3,,,,,,,,,,,,,,,,,,,0,,,,,,,,,,,,,,,,,,,,,,,,,,,,,,,,,890.2990153001156,890.3087733001448,890.3087733001448,906.2969188001007,kurz,return,15.978158399928361,None,906.297207100084,906.306626399979,906.306626399979,906.299720400013,,None,,,,,3,2023-12-05_10h02.04.226,watkins1,2023.2.3,99.72893668300219,42,2023-12-05 10h02.17.161804 +0000,
,,,,,,,,,,,,,,,,,,,,,,,4,0,4,0,906.8085280000232,,,,,,,,,,909.7031229001004,910.1931056999601,,,,2.8865285001229495,,,,,,,,,,,,None,None,,,,,,,,,,Blume,,,cuedRecallAdj,3,,,,,,,,,,,,,,,,,,,0,,,,,,,,,,,,,,,,,,,,,,,,,,,,,,,,,906.7987818000838,906.8085280000232,906.8085280000232,909.7012269999832,kurz,return,2.8865285001229495,None,909.7014947000425,909.710806600051,909.710806600051,909.7030207000207,,None,,,,,3,2023-12-05_10h02.04.226,watkins1,2023.2.3,99.72893668300219,42,2023-12-05 10h02.17.161804 +0000,
,,,,,,,,,,,,,,,,,,,,,,,5,0,5,0,910.2031636000611,,,,,,,,,,917.8680769000202,918.3667864999734,,,,7.659785600146279,,,,,,,,,,,,None,None,,,,,,,,,,Eimer,,,cuedRecallAdj,3,,,,,,,,,,,,,,,,,,,0,,,,,,,,,,,,,,,,,,,,,,,,,,,,,,,,,910.1933482000604,910.2031636000611,910.2031636000611,917.865206599934,matt,return,7.659785600146279,None,917.8654786001425,917.8747185000684,917.8747185000684,917.8679746999405,,None,,,,,3,2023-12-05_10h02.04.226,watkins1,2023.2.3,99.72893668300219,42,2023-12-05 10h02.17.161804 +0000,
,,,,,,,,,,,,,,,,,,,,,,,6,0,6,0,918.3768369001336,,,,,,,,,,921.8634502000641,922.3531615999527,,,,3.4781320998445153,,,,,,,,,,,,None,None,,,,,,,,,,Schere,,,cuedRecallAdj,3,,,,,,,,,,,,,,,,,,,0,,,,,,,,,,,,,,,,,,,,,,,,,,,,,,,,,918.3670350001194,918.3768369001336,918.3768369001336,921.8615280000959,matt,return,3.4781320998445153,None,921.8617946000304,921.8711524999235,921.8711524999235,921.8633467999753,,None,,,,,3,2023-12-05_10h02.04.226,watkins1,2023.2.3,99.72893668300219,42,2023-12-05 10h02.17.161804 +0000,
,,,,,,,,,,,,,,,,,,,,,,,7,0,7,0,922.3630703999661,,,,,,,,,,933.9648818999995,934.463337500114,,,,11.595984800020233,,,,,,,,,,,,None,None,,,,,,,,,,Löffel,,,cuedRecallAdj,3,,,,,,,,,,,,,,,,,,,0,,,,,,,,,,,,,,,,,,,,,,,,,,,,,,,,,922.3534009000286,922.3630703999661,922.3630703999661,933.9617490000091,löchig,return,11.595984800020233,None,933.9620199999772,933.9712265999988,933.9712265999988,933.9647781001404,,None,,,,,3,2023-12-05_10h02.04.226,watkins1,2023.2.3,99.72893668300219,42,2023-12-05 10h02.17.161804 +0000,
,,,,,,,,,,,,,,,,,,,,,,,8,0,8,0,934.4732786000241,,,,,,,,,,938.2625345000997,938.7610174000729,,,,3.781726500019431,,,,,,,,,,,,None,None,,,,,,,,,,Hut,,,cuedRecallAdj,3,,,,,,,,,,,,,,,,,,,0,,,,,,,,,,,,,,,,,,,,,,,,,,,,,,,,,934.46358290012,934.4732786000241,934.4732786000241,938.2595114000142,biegsam,return,3.781726500019431,None,938.2597759999335,938.2690564999357,938.2690564999357,938.262431900017,,None,,,,,3,2023-12-05_10h02.04.226,watkins1,2023.2.3,99.72893668300219,42,2023-12-05 10h02.17.161804 +0000,
,,,,,,,,,,,,,,,,,,,,,,,9,0,9,0,938.7709381999448,,,,,,,,,,941.5469362000003,942.0447861999273,,,,2.7722001001238823,,,,,,,,,,,,None,None,,,,,,,,,,Jacke,,,cuedRecallAdj,3,,,,,,,,,,,,,,,,,,,0,,,,,,,,,,,,,,,,,,,,,,,,,,,,,,,,,938.7612681000028,938.7709381999448,938.7709381999448,941.5435695999768,schwer,return,2.7722001001238823,None,941.5438574000727,941.5527876999695,941.5527876999695,941.5468319000211,,None,,,,,3,2023-12-05_10h02.04.226,watkins1,2023.2.3,99.72893668300219,42,2023-12-05 10h02.17.161804 +0000,
,,,,,,,,,,,,,,,,,,,,,,,10,0,10,0,942.0548372999765,,,,,,,,,,944.3788483000826,944.8774828999303,,,,2.320160200120881,,,,,,,,,,,,None,None,,,,,,,,,,Bürste,,,cuedRecallAdj,3,,,,,,,,,,,,,,,,,,,0,,,,,,,,,,,,,,,,,,,,,,,,,,,,,,,,,942.0450357999653,942.0548372999765,942.0548372999765,944.3758590000216,breit,return,2.320160200120881,None,944.3761267999653,944.3853806001134,944.3853806001134,944.3787468001246,,None,,,,,3,2023-12-05_10h02.04.226,watkins1,2023.2.3,99.72893668300219,42,2023-12-05 10h02.17.161804 +0000,
,,,,,,,,,,,,,,,,,,,,,,,11,0,11,0,944.8875341000967,,,,,,,,,,951.3179532000795,951.8163209999911,,,,6.423450500005856,,,,,,,,,,,,None,None,,,,,,,,,,Brille,,,cuedRecallAdj,3,,,,,,,,,,,,,,,,,,,0,,,,,,,,,,,,,,,,,,,,,,,,,,,,,,,,,944.8777292000595,944.8875341000967,944.8875341000967,951.3147102000657,schmutzig,return,6.423450500005856,None,951.3149755999912,951.3242655000649,951.3242655000649,951.3178527001292,,None,,,,,3,2023-12-05_10h02.04.226,watkins1,2023.2.3,99.72893668300219,42,2023-12-05 10h02.17.161804 +0000,
,,,,,,,,,,,,,,,,,,,,,,,12,0,12,0,951.8262217999436,,,,,,,,,,961.2184929000214,961.7172638999764,,,,9.380686499876902,,,,,,,,,,,,None,None,,,,,,,,,,Schlüssel,,,cuedRecallAdj,3,,,,,,,,,,,,,,,,,,,0,,,,,,,,,,,,,,,,,,,,,,,,,,,,,,,,,951.8165675001219,951.8262217999436,951.8262217999436,961.2153819000814,dreckig,return,9.380686499876902,None,961.2156481000129,961.2252126999665,961.2252126999665,961.2183904999401,,None,,,,,3,2023-12-05_10h02.04.226,watkins1,2023.2.3,99.72893668300219,42,2023-12-05 10h02.17.161804 +0000,
,,,,,,,,,,,,,,,,,,,,,,,13,0,13,0,961.727223200025,,,,,,,,,,964.3718862000387,964.8703471000772,,,,2.639780400088057,,,,,,,,,,,,None,None,,,,,,,,,,Rucksack,,,cuedRecallAdj,3,,,,,,,,,,,,,,,,,,,0,,,,,,,,,,,,,,,,,,,,,,,,,,,,,,,,,961.7175114001147,961.727223200025,961.727223200025,964.3687027001288,krumm,return,2.639780400088057,None,964.3689689999446,964.3782494000625,964.3782494000625,964.3717841999605,,None,,,,,3,2023-12-05_10h02.04.226,watkins1,2023.2.3,99.72893668300219,42,2023-12-05 10h02.17.161804 +0000,
,,,,,,,,,,,,,,,,,,,,,,,14,0,14,0,964.8802982000634,,,,,,,,,,973.6093646001536,974.1084636000451,,,,8.71869570016861,,,,,,,,,,,,None,None,,,,,,,,,,Buch,,,cuedRecallAdj,3,,,,,,,,,,,,,,,,,,,0,,,,,,,,,,,,,,,,,,,,,,,,,,,,,,,,,964.8705957999919,964.8802982000634,964.8802982000634,973.6063868999481,schnell,return,8.71869570016861,None,973.6066533999983,973.6160844999831,973.6160844999831,973.6092622999568,,None,,,,,3,2023-12-05_10h02.04.226,watkins1,2023.2.3,99.72893668300219,42,2023-12-05 10h02.17.161804 +0000,
,,,,,,,,,,,,,,,,,,,,,,,15,0,15,0,974.1184305001516,,,,,,,,,,996.3241415999364,996.8227594001219,,,,22.19253210001625,,,,,,,,,,,,None,None,,,,,,,,,,Würfel,,,cuedRecallAdj,3,,,,,,,,,,,,,,,,,,,0,,,,,,,,,,,,,,,,,,,,,,,,,,,,,,,,,974.1087088999338,974.1184305001516,974.1184305001516,996.3208832999226,deformiert,return,22.19253210001625,None,996.321151399985,996.3305999999866,996.3305999999866,996.3240394999739,,None,,,,,3,2023-12-05_10h02.04.226,watkins1,2023.2.3,99.72893668300219,42,2023-12-05 10h02.17.161804 +0000,
,,,,,,,,,,,,,,,,,,,,,,,16,0,16,0,996.8326817001216,,,,,,,,,,1000.5315012000501,1001.0302196999546,,,,3.6863074998836964,,,,,,,,,,,,None,None,,,,,,,,,,Hammer,,,cuedRecallAdj,3,,,,,,,,,,,,,,,,,,,0,,,,,,,,,,,,,,,,,,,,,,,,,,,,,,,,,996.82300939993,996.8326817001216,996.8326817001216,1000.5284927000757,kratzig,return,3.6863074998836964,None,1000.528756499989,1000.5381732000969,1000.5381732000969,1000.531399599975,,None,,,,,3,2023-12-05_10h02.04.226,watkins1,2023.2.3,99.72893668300219,42,2023-12-05 10h02.17.161804 +0000,
,,,,,,,,,,,,,,,,,,,,,,,17,0,17,0,1001.0402679000981,,,,,,,,,,1005.2711567999795,1005.7698491001502,,,,4.222672500181943,,,,,,,,,,,,None,None,,,,,,,,,,Socke,,,cuedRecallAdj,3,,,,,,,,,,,,,,,,,,,0,,,,,,,,,,,,,,,,,,,,,,,,,,,,,,,,,1001.0304686001036,1001.0402679000981,1001.0402679000981,1005.2682133000344,glänzend,return,4.222672500181943,None,1005.2684748000465,1005.2777041001245,1005.2777041001245,1005.2710561000276,,None,,,,,3,2023-12-05_10h02.04.226,watkins1,2023.2.3,99.72893668300219,42,2023-12-05 10h02.17.161804 +0000,
,,,,,,,,,,,,,,,,,,,,,,,18,0,18,0,1005.7801838000305,,,,,,,,,,1008.2636474000756,1008.7624005000107,,,,2.4747959999367595,,,,,,,,,,,,None,None,,,,,,,,,,Geige,,,cuedRecallAdj,3,,,,,,,,,,,,,,,,,,,0,,,,,,,,,,,,,,,,,,,,,,,,,,,,,,,,,1005.7700972000603,1005.7801838000305,1005.7801838000305,1008.2608205999713,lang,return,2.4747959999367595,None,1008.2610901000444,1008.2703863000497,1008.2703863000497,1008.2635457001161,,None,,,,,3,2023-12-05_10h02.04.226,watkins1,2023.2.3,99.72893668300219,42,2023-12-05 10h02.17.161804 +0000,
,,,,,,,,,,,,,,,,,,,,,,,19,0,19,0,1008.7723213001154,,,,,,,,,,1014.0077999001369,1014.5064998001326,,,,5.226504500024021,,,,,,,,,,,,None,None,,,,,,,,,,Uhr,,,cuedRecallAdj,3,,,,,,,,,,,,,,,,,,,0,,,,,,,,,,,,,,,,,,,,,,,,,,,,,,,,,1008.7626513000578,1008.7723213001154,1008.7723213001154,1014.004667900037,durchsichtig,return,5.226504500024021,None,1014.00493429997,1014.014157100115,1014.014157100115,1014.0076969000511,,None,,,,,3,2023-12-05_10h02.04.226,watkins1,2023.2.3,99.72893668300219,42,2023-12-05 10h02.17.161804 +0000,
,,,,,,,,,,,,,,,,,,,,,,,20,0,20,0,1014.5164515001234,,,,,,,,,,1019.179050500039,1019.6777163001243,,,,4.650417000055313,,,,,,,,,,,,None,None,,,,,,,,,,Trommel,,,cuedRecallAdj,3,,,,,,,,,,,,,,,,,,,0,,,,,,,,,,,,,,,,,,,,,,,,,,,,,,,,,1014.5067404999863,1014.5164515001234,1014.5164515001234,1019.1759717001114,praktisch,return,4.650417000055313,None,1019.1762383999303,1019.1856943999883,1019.1856943999883,1019.1789490999654,,None,,,,,3,2023-12-05_10h02.04.226,watkins1,2023.2.3,99.72893668300219,42,2023-12-05 10h02.17.161804 +0000,
,,,,,,,,,,,,,,,,,,,,,,,21,0,21,0,1019.6876249001361,,,,,,,,,,1029.7327435000334,1030.2314385999925,,,,10.039392800070345,,,,,,,,,,,,None,None,,,,,,,,,,Kerze,,,cuedRecallAdj,3,,,,,,,,,,,,,,,,,,,0,,,,,,,,,,,,,,,,,,,,,,,,,,,,,,,,,1019.67796430015,1019.6876249001361,1019.6876249001361,1029.7298630001023,hell,return,10.039392800070345,None,1029.730128500145,1029.739302400034,1029.739302400034,1029.7326420999598,,None,,,,,3,2023-12-05_10h02.04.226,watkins1,2023.2.3,99.72893668300219,42,2023-12-05 10h02.17.161804 +0000,
,,,,,,,,,,,,,,,,,,,,,,,22,0,22,0,1030.2413840000518,,,,,,,,,,1039.6537440000102,1040.1522353000473,,,,9.405551999807358,,,,,,,,,,,,None,None,,,,,,,,,,Fahrrad,,,cuedRecallAdj,3,,,,,,,,,,,,,,,,,,,0,,,,,,,,,,,,,,,,,,,,,,,,,,,,,,,,,1030.231683100108,1030.2413840000518,1030.2413840000518,1039.6506994001102,schnell,return,9.405551999807358,None,1039.6509704999626,1039.6602131000254,1039.6602131000254,1039.6536433000583,,None,,,,,3,2023-12-05_10h02.04.226,watkins1,2023.2.3,99.72893668300219,42,2023-12-05 10h02.17.161804 +0000,
,,,,,,,,,,,,,,,,,,,,,,,23,0,23,0,1040.1621223001275,,,,,,,,,,1051.1413561000954,1051.6398484001402,,,,10.972837999928743,,,,,,,,,,,,None,None,,,,,,,,,,Kette,,,cuedRecallAdj,3,,,,,,,,,,,,,,,,,,,0,,,,,,,,,,,,,,,,,,,,,,,,,,,,,,,,,1040.1524899001233,1040.1621223001275,1040.1621223001275,1051.138294900069,schmutzig,return,10.972837999928743,None,1051.1385623000097,1051.1477687000297,1051.1477687000297,1051.1412537000142,,None,,,,,3,2023-12-05_10h02.04.226,watkins1,2023.2.3,99.72893668300219,42,2023-12-05 10h02.17.161804 +0000,
,,,,,,,,,,,,,,,,,,,,,,,24,0,24,0,1051.649904299993,,,,,,,,,,1057.6372775000054,1058.1269902000204,,,,5.9808995998464525,,,,,,,,,,,,None,None,,,,,,,,,,Kamera,,,cuedRecallAdj,3,,,,,,,,,,,,,,,,,,,0,,,,,,,,,,,,,,,,,,,,,,,,,,,,,,,,,1051.6400914001279,1051.649904299993,1051.649904299993,1057.6353655001149,schmutzig,return,5.9808995998464525,None,1057.6356248001102,1057.6449361999985,1057.6449361999985,1057.6371758999303,,None,,,,,3,2023-12-05_10h02.04.226,watkins1,2023.2.3,99.72893668300219,42,2023-12-05 10h02.17.161804 +0000,
,,,,,,,,,,,,,,,,,,,,,,,25,0,25,0,1058.1369014999364,,,,,,,,,,1067.478968600044,1067.97751480015,,,,9.333988999947906,,,,,,,,,,,,None,None,,,,,,,,,,Kiste,,,cuedRecallAdj,3,,,,,,,,,,,,,,,,,,,0,,,,,,,,,,,,,,,,,,,,,,,,,,,,,,,,,1058.1272360000294,1058.1369014999364,1058.1369014999364,1067.4758991000708,sportlich,return,9.333988999947906,None,1067.4761651000008,1067.4854439999908,1067.4854439999908,1067.47886630008,,None,,,,,3,2023-12-05_10h02.04.226,watkins1,2023.2.3,99.72893668300219,42,2023-12-05 10h02.17.161804 +0000,
,,,,,,,,,,,,,,,,,,,,,,,26,0,26,0,1067.987471099943,,,,,,,,,,1070.8828175999224,1071.3815951999277,,,,2.8833160002250224,,,,,,,,,,,,None,None,,,,,,,,,,Flasche,,,cuedRecallAdj,3,,,,,,,,,,,,,,,,,,,0,,,,,,,,,,,,,,,,,,,,,,,,,,,,,,,,,1067.9777605000418,1067.987471099943,1067.987471099943,1070.8797883000225,glatt,return,2.8833160002250224,None,1070.8800540000666,1070.889510100009,1070.889510100009,1070.882714400068,,None,,,,,3,2023-12-05_10h02.04.226,watkins1,2023.2.3,99.72893668300219,42,2023-12-05 10h02.17.161804 +0000,
,,,,,,,,,,,,,,,,,,,,,,,27,0,27,0,1071.3914950999897,,,,,,,,,,1088.5670112001244,1089.0654859000351,,,,17.167390199843794,,,,,,,,,,,,None,None,,,,,,,,,,Tasse,,,cuedRecallAdj,3,,,,,,,,,,,,,,,,,,,0,,,,,,,,,,,,,,,,,,,,,,,,,,,,,,,,,1071.381839999929,1071.3914950999897,1071.3914950999897,1088.5639581000432,heiß,return,17.167390199843794,None,1088.564245000016,1088.5734969000332,1088.5734969000332,1088.566902999999,,None,,,,,3,2023-12-05_10h02.04.226,watkins1,2023.2.3,99.72893668300219,42,2023-12-05 10h02.17.161804 +0000,
,,,,,,,,,,,,,,,,,,,,,,,28,0,28,0,1089.0754853000399,,,,,,,,,,1094.9850173001178,1095.483502499992,,,,5.899412199854851,,,,,,,,,,,,None,None,,,,,,,,,,Tasche,,,cuedRecallAdj,3,,,,,,,,,,,,,,,,,,,0,,,,,,,,,,,,,,,,,,,,,,,,,,,,,,,,,1089.0657339000609,1089.0754853000399,1089.0754853000399,1094.981919700047,praktisch,return,5.899412199854851,None,1094.9821874001063,1094.9914323000703,1094.9914323000703,1094.9849151999224,,None,,,,,3,2023-12-05_10h02.04.226,watkins1,2023.2.3,99.72893668300219,42,2023-12-05 10h02.17.161804 +0000,
,,,,,,,,,,,,,,,,,,,,,,,29,0,29,0,1095.4935503001325,,,,,,,,,,1118.8235049999785,1119.3222716001328,,,,23.321220399811864,,,,,,,,,,,,None,None,,,,,,,,,,Telefon,,,cuedRecallAdj,3,,,,,,,,,,,,,,,,,,,0,,,,,,,,,,,,,,,,,,,,,,,,,,,,,,,,,1095.4837537000421,1095.4935503001325,1095.4935503001325,1118.8206080000382,lang,return,23.321220399811864,None,1118.8208745999727,1118.8301610001363,1118.8301610001363,1118.8234027000144,,None,,,,,3,2023-12-05_10h02.04.226,watkins1,2023.2.3,99.72893668300219,42,2023-12-05 10h02.17.161804 +0000,
,,,,,,,,,,,,,,,,,,,,,,,,,,,,,,,,,,,,,,,,,,,,,,,,,,,,,,,,,,,,,,,,,,,,,3,,,,,,,,,,,,,,,,,,,,,,,,,,,,,,,,,,,,,,,,,,,,,,,,,,,,,,,,,,,,,,,,,,1119.3388352999464,q,243.11569259990938,None,3,2023-12-05_10h02.04.226,watkins1,2023.2.3,99.72893668300219,42,2023-12-05 10h02.17.161804 +0000,
