Equation,CorrectResponse,Correctbutton,trials_7.thisRepN,trials_7.thisTrialN,trials_7.thisN,trials_7.thisIndex,trials.thisRepN,trials.thisTrialN,trials.thisN,trials.thisIndex,trials_3.thisRepN,trials_3.thisTrialN,trials_3.thisN,trials_3.thisIndex,trials_2.thisRepN,trials_2.thisTrialN,trials_2.thisN,trials_2.thisIndex,trials_4.thisRepN,trials_4.thisTrialN,trials_4.thisN,trials_4.thisIndex,trials_5.thisRepN,trials_5.thisTrialN,trials_5.thisN,trials_5.thisIndex,thisRow.t,notes,code_marius.started,code_marius.stopped,welcome.started,welcome.stopped,instruction_study.started,instruction_study.stopped,fixationcross.started,fixationcross.stopped,blanc.started,blanc.stopped,study_control_probe.started,study_control_probe.stopped,responseKey,responseTime,scale_answer_2.keys,study_control_probe_2.started,study_control_probe_2.stopped,scale_answer_3.keys,scale_answer_3.rt,scale_answer_3.duration,blanc_2.started,blanc_2.stopped,test_attr_probe.started,test_attr_probe.stopped,recalled_attr,firstKeyTime,secondWordTime,blanc_3.started,blanc_3.stopped,test_sub_probe.started,test_sub_probe.stopped,recalled_sub,instruction_probe_end.started,instruction_probe_end.stopped,study.started,study.stopped,substantive,adjective,wordpair,task,condition,liste_sub_phase1,liste_adj_phase1,scale_answer.keys,scale_answer.rt,scale_answer.duration,code_defineWordsInit.started,code_defineWordsInit.stopped,liste_sub_phase2,study_control.started,study_control.stopped,scale_answer_4.keys,restudy_same.started,restudy_same.stopped,scale_answer_5.keys,scale_answer_5.rt,scale_answer_5.duration,restudy_different.started,restudy_different.stopped,scale_answer_6.keys,test_attr.started,test_attr.stopped,test_sub.started,test_sub.stopped,correct,distractortask.started,equation_text.started,distractortask.stopped,mouse_answer.x,mouse_answer.y,mouse_answer.leftButton,mouse_answer.midButton,mouse_answer.rightButton,mouse_answer.time,mouse_answer.clicked_name,feedback_distractortask.started,feedback_distractortask.stopped,free_recall.started,text_enter.started,key_resp.started,free_recall.stopped,key_resp.keys,free_recalled_sub,mouse_continue.x,mouse_continue.y,mouse_continue.leftButton,mouse_continue.midButton,mouse_continue.rightButton,mouse_continue.time,mouse_continue.clicked_name,cued_recall.started,text_enter_2.started,key_continue.started,cued_recall.stopped,recalled_attr1,key_continue.keys,key_continue.rt,key_continue.duration,cued_recall_2.started,text_enter_3.started,key_continue_2.started,cued_recall_2.stopped,recalled_attr2,key_continue_2.keys,key_resp_8.started,key_resp_8.keys,key_resp_8.rt,key_resp_8.duration,condition,date,expName,psychopyVersion,frameRate,participant,expStart,
,,,,,,,,,,,,,,,,,,,,,,,,,,,,,0.10854269983246922,0.10860899975523353,0.10861739981919527,5.382477200124413,,,,,,,,,,,,,,,,,,,,,,,,,,,,,,,,,,,,,3,,,,,,,,,,,,,,,,,,,,,,,,,,,,,,,,,,,,,,,,,,,,,,,,,,,,,,,,,,,,,,,,,,,,3,2024-01-10_12h38.07.980,watkins1,2023.2.3,99.73351225530087,81,2024-01-10 12h38.16.861099 +0000,
,,,,,,,,,,,,,,,,,,,,,,,,,,,,,,,,,5.382527799811214,39.9824621998705,,,,,,,,,,,,,,,,,,,,,,,,,,,,,,,,,,,3,,,,,,,,,,,,,,,,,,,,,,,,,,,,,,,,,,,,,,,,,,,,,,,,,,,,,,,,,,,,,,,,,,,,3,2024-01-10_12h38.07.980,watkins1,2023.2.3,99.73351225530087,81,2024-01-10 12h38.16.861099 +0000,
,,,0,0,0,0,,,,,,,,,,,,,,,,,,,,,40.99621819984168,,,,,,,,39.98248039977625,40.98624080000445,47.4848235999234,47.97621739981696,41.47810579976067,47.48465480003506,2,3.4836364001967013,None,47.97622760012746,53.97960199974477,2,3.4836364001967013,None,53.97989489976317,54.47097959974781,54.47099079983309,60.47609189990908,vergnügt,None,None,60.47631599986926,60.47633909992874,60.47634640010074,60.476430899929255,,,,,,,,,,3,,,,,,,,,,,,,,,,,,,,,,,,,,,,,,,,,,,,,,,,,,,,,,,,,,,,,,,,,,,,,,,,,,,,3,2024-01-10_12h38.07.980,watkins1,2023.2.3,99.73351225530087,81,2024-01-10 12h38.16.861099 +0000,
,,,,,,,,,,,,,,,,,,,,,,,,,,,,,,,,,,,,,,,,,,,,,,,,,,,,,,,,,,,,,60.47654780000448,64.03094579977915,,,,,,,3,,,,,,,,,,,,,,,,,,,,,,,,,,,,,,,,,,,,,,,,,,,,,,,,,,,,,,,,,,,,,,,,,,,,3,2024-01-10_12h38.07.980,watkins1,2023.2.3,99.73351225530087,81,2024-01-10 12h38.16.861099 +0000,
,,,,,,,0,0,0,0,,,,,,,,,,,,,,,,,65.04461879981682,,,,,,,,64.03096390003338,65.03465140005574,65.0351173998788,65.52682180004194,,,2,2.2480045002885163,,,,,,,,,,,,,,,,,,,,,65.52683220012113,71.53087340015918,Blume,robust,"['Blume', 'robust']",restudy,3,"['Blume', 'Tasche', 'Ring', 'Kiste', 'Buch', 'Eimer', 'Stift', 'Hut', 'Schere', 'Fahrrad', 'Lampe', 'Uhr', 'Flasche', 'Würfel', 'Kerze', 'Geige', 'Jacke', 'Vase', 'Kamera', 'Socke', 'Trommel', 'Löffel', 'Schlüssel', 'Hammer', 'Brille', 'Kette', 'Rucksack', 'Telefon', 'Bürste', 'Tasse']",['robust'],2,2.2480045002885163,None,,,,,,,,,,,,,,,,,,,,,,,,,,,,,,,,,,,,,,,,,,,,,,,,,,,,,,,,,,,,,,,3,2024-01-10_12h38.07.980,watkins1,2023.2.3,99.73351225530087,81,2024-01-10 12h38.16.861099 +0000,
,,,,,,,1,0,1,0,,,,,,,,,,,,,,,,,71.54027949972078,,,,,,,,,,71.53150400007144,72.02235949970782,,,2,2.1538553000427783,,,,,,,,,,,,,,,,,,,,,72.02236989978701,78.02353970007971,Tasche,zart,"['Tasche', 'zart']",restudy,3,"['Blume', 'Tasche', 'Ring', 'Kiste', 'Buch', 'Eimer', 'Stift', 'Hut', 'Schere', 'Fahrrad', 'Lampe', 'Uhr', 'Flasche', 'Würfel', 'Kerze', 'Geige', 'Jacke', 'Vase', 'Kamera', 'Socke', 'Trommel', 'Löffel', 'Schlüssel', 'Hammer', 'Brille', 'Kette', 'Rucksack', 'Telefon', 'Bürste', 'Tasse']","['robust', 'zart']",2,2.1538553000427783,None,,,,,,,,,,,,,,,,,,,,,,,,,,,,,,,,,,,,,,,,,,,,,,,,,,,,,,,,,,,,,,,3,2024-01-10_12h38.07.980,watkins1,2023.2.3,99.73351225530087,81,2024-01-10 12h38.16.861099 +0000,
,,,,,,,2,0,2,0,,,,,,,,,,,,,,,,,78.03292299993336,,,,,,,,,,78.02406070008874,78.51468669995666,,,3,2.4859445998445153,,,,,,,,,,,,,,,,,,,,,78.51469640014693,84.5154589000158,Ring,bunt,"['Ring', 'bunt']",restudy,3,"['Blume', 'Tasche', 'Ring', 'Kiste', 'Buch', 'Eimer', 'Stift', 'Hut', 'Schere', 'Fahrrad', 'Lampe', 'Uhr', 'Flasche', 'Würfel', 'Kerze', 'Geige', 'Jacke', 'Vase', 'Kamera', 'Socke', 'Trommel', 'Löffel', 'Schlüssel', 'Hammer', 'Brille', 'Kette', 'Rucksack', 'Telefon', 'Bürste', 'Tasse']","['robust', 'zart', 'bunt']",3,2.4859445998445153,None,,,,,,,,,,,,,,,,,,,,,,,,,,,,,,,,,,,,,,,,,,,,,,,,,,,,,,,,,,,,,,,3,2024-01-10_12h38.07.980,watkins1,2023.2.3,99.73351225530087,81,2024-01-10 12h38.16.861099 +0000,
,,,,,,,3,0,3,0,,,,,,,,,,,,,,,,,84.52493269974366,,,,,,,,,,84.5159801999107,85.00699590006843,,,2,1.8337383000180125,,,,,,,,,,,,,,,,,,,,,85.00700609991327,91.00857269996777,Kiste,hübsch,"['Kiste', 'hübsch']",restudy,3,"['Blume', 'Tasche', 'Ring', 'Kiste', 'Buch', 'Eimer', 'Stift', 'Hut', 'Schere', 'Fahrrad', 'Lampe', 'Uhr', 'Flasche', 'Würfel', 'Kerze', 'Geige', 'Jacke', 'Vase', 'Kamera', 'Socke', 'Trommel', 'Löffel', 'Schlüssel', 'Hammer', 'Brille', 'Kette', 'Rucksack', 'Telefon', 'Bürste', 'Tasse']","['robust', 'zart', 'bunt', 'hübsch']",2,1.8337383000180125,None,,,,,,,,,,,,,,,,,,,,,,,,,,,,,,,,,,,,,,,,,,,,,,,,,,,,,,,,,,,,,,,3,2024-01-10_12h38.07.980,watkins1,2023.2.3,99.73351225530087,81,2024-01-10 12h38.16.861099 +0000,
,,,,,,,4,0,4,0,,,,,,,,,,,,,,,,,91.0180991999805,,,,,,,,,,91.00912360008806,91.50019960012287,,,3,1.5333569999784231,,,,,,,,,,,,,,,,,,,,,91.50020990008488,97.50113750016317,Buch,teuer,"['Buch', 'teuer']",restudy,3,"['Blume', 'Tasche', 'Ring', 'Kiste', 'Buch', 'Eimer', 'Stift', 'Hut', 'Schere', 'Fahrrad', 'Lampe', 'Uhr', 'Flasche', 'Würfel', 'Kerze', 'Geige', 'Jacke', 'Vase', 'Kamera', 'Socke', 'Trommel', 'Löffel', 'Schlüssel', 'Hammer', 'Brille', 'Kette', 'Rucksack', 'Telefon', 'Bürste', 'Tasse']","['robust', 'zart', 'bunt', 'hübsch', 'teuer']",3,1.5333569999784231,None,,,,,,,,,,,,,,,,,,,,,,,,,,,,,,,,,,,,,,,,,,,,,,,,,,,,,,,,,,,,,,,3,2024-01-10_12h38.07.980,watkins1,2023.2.3,99.73351225530087,81,2024-01-10 12h38.16.861099 +0000,
,,,,,,,5,0,5,0,,,,,,,,,,,,,,,,,97.51059990003705,,,,,,,,,,97.50166579987854,97.99276119982824,,,1,2.8076949999667704,,,,,,,,,,,,,,,,,,,,,97.99277149979025,103.99847669992596,Eimer,rustikal,"['Eimer', 'rustikal']",test_adj,3,"['Blume', 'Tasche', 'Ring', 'Kiste', 'Buch', 'Eimer', 'Stift', 'Hut', 'Schere', 'Fahrrad', 'Lampe', 'Uhr', 'Flasche', 'Würfel', 'Kerze', 'Geige', 'Jacke', 'Vase', 'Kamera', 'Socke', 'Trommel', 'Löffel', 'Schlüssel', 'Hammer', 'Brille', 'Kette', 'Rucksack', 'Telefon', 'Bürste', 'Tasse']","['robust', 'zart', 'bunt', 'hübsch', 'teuer', 'rustikal']",1,2.8076949999667704,None,,,,,,,,,,,,,,,,,,,,,,,,,,,,,,,,,,,,,,,,,,,,,,,,,,,,,,,,,,,,,,,3,2024-01-10_12h38.07.980,watkins1,2023.2.3,99.73351225530087,81,2024-01-10 12h38.16.861099 +0000,
,,,,,,,6,0,6,0,,,,,,,,,,,,,,,,,104.00788069982082,,,,,,,,,,103.99899359978735,104.49000169988722,,,3,2.814836499746889,,,,,,,,,,,,,,,,,,,,,104.49001199984923,110.50001550000161,Stift,kurz,"['Stift', 'kurz']",restudy,3,"['Blume', 'Tasche', 'Ring', 'Kiste', 'Buch', 'Eimer', 'Stift', 'Hut', 'Schere', 'Fahrrad', 'Lampe', 'Uhr', 'Flasche', 'Würfel', 'Kerze', 'Geige', 'Jacke', 'Vase', 'Kamera', 'Socke', 'Trommel', 'Löffel', 'Schlüssel', 'Hammer', 'Brille', 'Kette', 'Rucksack', 'Telefon', 'Bürste', 'Tasse']","['robust', 'zart', 'bunt', 'hübsch', 'teuer', 'rustikal', 'kurz']",3,2.814836499746889,None,,,,,,,,,,,,,,,,,,,,,,,,,,,,,,,,,,,,,,,,,,,,,,,,,,,,,,,,,,,,,,,3,2024-01-10_12h38.07.980,watkins1,2023.2.3,99.73351225530087,81,2024-01-10 12h38.16.861099 +0000,
,,,,,,,7,0,7,0,,,,,,,,,,,,,,,,,110.50946319987997,,,,,,,,,,110.5005302997306,110.9915750999935,,,2,1.8084821999073029,,,,,,,,,,,,,,,,,,,,,110.99158550007269,116.99350999994203,Hut,groß,"['Hut', 'groß']",test_adj,3,"['Blume', 'Tasche', 'Ring', 'Kiste', 'Buch', 'Eimer', 'Stift', 'Hut', 'Schere', 'Fahrrad', 'Lampe', 'Uhr', 'Flasche', 'Würfel', 'Kerze', 'Geige', 'Jacke', 'Vase', 'Kamera', 'Socke', 'Trommel', 'Löffel', 'Schlüssel', 'Hammer', 'Brille', 'Kette', 'Rucksack', 'Telefon', 'Bürste', 'Tasse']","['robust', 'zart', 'bunt', 'hübsch', 'teuer', 'rustikal', 'kurz', 'groß']",2,1.8084821999073029,None,,,,,,,,,,,,,,,,,,,,,,,,,,,,,,,,,,,,,,,,,,,,,,,,,,,,,,,,,,,,,,,3,2024-01-10_12h38.07.980,watkins1,2023.2.3,99.73351225530087,81,2024-01-10 12h38.16.861099 +0000,
,,,,,,,8,0,8,0,,,,,,,,,,,,,,,,,117.00297809997573,,,,,,,,,,116.99401560006663,117.48506570002064,,,1,2.5005383999086916,,,,,,,,,,,,,,,,,,,,,117.48507610009983,123.4888503998518,Schere,gut,"['Schere', 'gut']",test_adj,3,"['Blume', 'Tasche', 'Ring', 'Kiste', 'Buch', 'Eimer', 'Stift', 'Hut', 'Schere', 'Fahrrad', 'Lampe', 'Uhr', 'Flasche', 'Würfel', 'Kerze', 'Geige', 'Jacke', 'Vase', 'Kamera', 'Socke', 'Trommel', 'Löffel', 'Schlüssel', 'Hammer', 'Brille', 'Kette', 'Rucksack', 'Telefon', 'Bürste', 'Tasse']","['robust', 'zart', 'bunt', 'hübsch', 'teuer', 'rustikal', 'kurz', 'groß', 'gut']",1,2.5005383999086916,None,,,,,,,,,,,,,,,,,,,,,,,,,,,,,,,,,,,,,,,,,,,,,,,,,,,,,,,,,,,,,,,3,2024-01-10_12h38.07.980,watkins1,2023.2.3,99.73351225530087,81,2024-01-10 12h38.16.861099 +0000,
,,,,,,,9,0,9,0,,,,,,,,,,,,,,,,,123.49831129983068,,,,,,,,,,123.4893537000753,123.98117979988456,,,1,1.3794569000601768,,,,,,,,,,,,,,,,,,,,,123.98119030008093,129.98780519980937,Fahrrad,flauschig,"['Fahrrad', 'flauschig']",restudy,3,"['Blume', 'Tasche', 'Ring', 'Kiste', 'Buch', 'Eimer', 'Stift', 'Hut', 'Schere', 'Fahrrad', 'Lampe', 'Uhr', 'Flasche', 'Würfel', 'Kerze', 'Geige', 'Jacke', 'Vase', 'Kamera', 'Socke', 'Trommel', 'Löffel', 'Schlüssel', 'Hammer', 'Brille', 'Kette', 'Rucksack', 'Telefon', 'Bürste', 'Tasse']","['robust', 'zart', 'bunt', 'hübsch', 'teuer', 'rustikal', 'kurz', 'groß', 'gut', 'flauschig']",1,1.3794569000601768,None,,,,,,,,,,,,,,,,,,,,,,,,,,,,,,,,,,,,,,,,,,,,,,,,,,,,,,,,,,,,,,,3,2024-01-10_12h38.07.980,watkins1,2023.2.3,99.73351225530087,81,2024-01-10 12h38.16.861099 +0000,
,,,,,,,10,0,10,0,,,,,,,,,,,,,,,,,129.99725389992818,,,,,,,,,,129.98830770002678,130.47929089982063,,,3,2.552976700011641,,,,,,,,,,,,,,,,,,,,,130.47930180002004,136.48598650004715,Lampe,schwer,"['Lampe', 'schwer']",test_adj,3,"['Blume', 'Tasche', 'Ring', 'Kiste', 'Buch', 'Eimer', 'Stift', 'Hut', 'Schere', 'Fahrrad', 'Lampe', 'Uhr', 'Flasche', 'Würfel', 'Kerze', 'Geige', 'Jacke', 'Vase', 'Kamera', 'Socke', 'Trommel', 'Löffel', 'Schlüssel', 'Hammer', 'Brille', 'Kette', 'Rucksack', 'Telefon', 'Bürste', 'Tasse']","['robust', 'zart', 'bunt', 'hübsch', 'teuer', 'rustikal', 'kurz', 'groß', 'gut', 'flauschig', 'schwer']",3,2.552976700011641,None,,,,,,,,,,,,,,,,,,,,,,,,,,,,,,,,,,,,,,,,,,,,,,,,,,,,,,,,,,,,,,,3,2024-01-10_12h38.07.980,watkins1,2023.2.3,99.73351225530087,81,2024-01-10 12h38.16.861099 +0000,
,,,,,,,11,0,11,0,,,,,,,,,,,,,,,,,136.4954327000305,,,,,,,,,,136.48650059988722,136.97730359993875,,,2,4.183542400132865,,,,,,,,,,,,,,,,,,,,,136.97731419978663,142.98661379981786,Uhr,hohl,"['Uhr', 'hohl']",test_adj,3,"['Blume', 'Tasche', 'Ring', 'Kiste', 'Buch', 'Eimer', 'Stift', 'Hut', 'Schere', 'Fahrrad', 'Lampe', 'Uhr', 'Flasche', 'Würfel', 'Kerze', 'Geige', 'Jacke', 'Vase', 'Kamera', 'Socke', 'Trommel', 'Löffel', 'Schlüssel', 'Hammer', 'Brille', 'Kette', 'Rucksack', 'Telefon', 'Bürste', 'Tasse']","['robust', 'zart', 'bunt', 'hübsch', 'teuer', 'rustikal', 'kurz', 'groß', 'gut', 'flauschig', 'schwer', 'hohl']",2,4.183542400132865,None,,,,,,,,,,,,,,,,,,,,,,,,,,,,,,,,,,,,,,,,,,,,,,,,,,,,,,,,,,,,,,,3,2024-01-10_12h38.07.980,watkins1,2023.2.3,99.73351225530087,81,2024-01-10 12h38.16.861099 +0000,
,,,,,,,12,0,12,0,,,,,,,,,,,,,,,,,142.9960733000189,,,,,,,,,,142.9871271001175,143.4778852998279,,,1,1.6113841999322176,,,,,,,,,,,,,,,,,,,,,143.4778956999071,149.47878729971126,Flasche,niedlich,"['Flasche', 'niedlich']",restudy,3,"['Blume', 'Tasche', 'Ring', 'Kiste', 'Buch', 'Eimer', 'Stift', 'Hut', 'Schere', 'Fahrrad', 'Lampe', 'Uhr', 'Flasche', 'Würfel', 'Kerze', 'Geige', 'Jacke', 'Vase', 'Kamera', 'Socke', 'Trommel', 'Löffel', 'Schlüssel', 'Hammer', 'Brille', 'Kette', 'Rucksack', 'Telefon', 'Bürste', 'Tasse']","['robust', 'zart', 'bunt', 'hübsch', 'teuer', 'rustikal', 'kurz', 'groß', 'gut', 'flauschig', 'schwer', 'hohl', 'niedlich']",1,1.6113841999322176,None,,,,,,,,,,,,,,,,,,,,,,,,,,,,,,,,,,,,,,,,,,,,,,,,,,,,,,,,,,,,,,,3,2024-01-10_12h38.07.980,watkins1,2023.2.3,99.73351225530087,81,2024-01-10 12h38.16.861099 +0000,
,,,,,,,13,0,13,0,,,,,,,,,,,,,,,,,149.48830639990047,,,,,,,,,,149.47929659998044,149.9702928001061,,,1,1.1985738999210298,,,,,,,,,,,,,,,,,,,,,149.97030299995095,155.97254499979317,Würfel,schmutzig,"['Würfel', 'schmutzig']",test_adj,3,"['Blume', 'Tasche', 'Ring', 'Kiste', 'Buch', 'Eimer', 'Stift', 'Hut', 'Schere', 'Fahrrad', 'Lampe', 'Uhr', 'Flasche', 'Würfel', 'Kerze', 'Geige', 'Jacke', 'Vase', 'Kamera', 'Socke', 'Trommel', 'Löffel', 'Schlüssel', 'Hammer', 'Brille', 'Kette', 'Rucksack', 'Telefon', 'Bürste', 'Tasse']","['robust', 'zart', 'bunt', 'hübsch', 'teuer', 'rustikal', 'kurz', 'groß', 'gut', 'flauschig', 'schwer', 'hohl', 'niedlich', 'schmutzig']",1,1.1985738999210298,None,,,,,,,,,,,,,,,,,,,,,,,,,,,,,,,,,,,,,,,,,,,,,,,,,,,,,,,,,,,,,,,3,2024-01-10_12h38.07.980,watkins1,2023.2.3,99.73351225530087,81,2024-01-10 12h38.16.861099 +0000,
,,,,,,,14,0,14,0,,,,,,,,,,,,,,,,,155.98207410005853,,,,,,,,,,155.9730591000989,156.46449449984357,,,1,2.6807124000042677,,,,,,,,,,,,,,,,,,,,,156.46450420003384,162.47249240009114,Kerze,nachhaltig,"['Kerze', 'nachhaltig']",restudy,3,"['Blume', 'Tasche', 'Ring', 'Kiste', 'Buch', 'Eimer', 'Stift', 'Hut', 'Schere', 'Fahrrad', 'Lampe', 'Uhr', 'Flasche', 'Würfel', 'Kerze', 'Geige', 'Jacke', 'Vase', 'Kamera', 'Socke', 'Trommel', 'Löffel', 'Schlüssel', 'Hammer', 'Brille', 'Kette', 'Rucksack', 'Telefon', 'Bürste', 'Tasse']","['robust', 'zart', 'bunt', 'hübsch', 'teuer', 'rustikal', 'kurz', 'groß', 'gut', 'flauschig', 'schwer', 'hohl', 'niedlich', 'schmutzig', 'nachhaltig']",1,2.6807124000042677,None,,,,,,,,,,,,,,,,,,,,,,,,,,,,,,,,,,,,,,,,,,,,,,,,,,,,,,,,,,,,,,,3,2024-01-10_12h38.07.980,watkins1,2023.2.3,99.73351225530087,81,2024-01-10 12h38.16.861099 +0000,
,,,,,,,15,0,15,0,,,,,,,,,,,,,,,,,162.48198519973084,,,,,,,,,,162.47301610000432,162.96419179998338,,,1,2.4832938998006284,,,,,,,,,,,,,,,,,,,,,162.9642027998343,168.96810319973156,Geige,hässlich,"['Geige', 'hässlich']",test_adj,3,"['Blume', 'Tasche', 'Ring', 'Kiste', 'Buch', 'Eimer', 'Stift', 'Hut', 'Schere', 'Fahrrad', 'Lampe', 'Uhr', 'Flasche', 'Würfel', 'Kerze', 'Geige', 'Jacke', 'Vase', 'Kamera', 'Socke', 'Trommel', 'Löffel', 'Schlüssel', 'Hammer', 'Brille', 'Kette', 'Rucksack', 'Telefon', 'Bürste', 'Tasse']","['robust', 'zart', 'bunt', 'hübsch', 'teuer', 'rustikal', 'kurz', 'groß', 'gut', 'flauschig', 'schwer', 'hohl', 'niedlich', 'schmutzig', 'nachhaltig', 'hässlich']",1,2.4832938998006284,None,,,,,,,,,,,,,,,,,,,,,,,,,,,,,,,,,,,,,,,,,,,,,,,,,,,,,,,,,,,,,,,3,2024-01-10_12h38.07.980,watkins1,2023.2.3,99.73351225530087,81,2024-01-10 12h38.16.861099 +0000,
,,,,,,,16,0,16,0,,,,,,,,,,,,,,,,,168.97756489971653,,,,,,,,,,168.96861869981512,169.45957439998165,,,1,1.9729627002961934,,,,,,,,,,,,,,,,,,,,,169.4595844997093,175.46070799976587,Jacke,breit,"['Jacke', 'breit']",test_adj,3,"['Blume', 'Tasche', 'Ring', 'Kiste', 'Buch', 'Eimer', 'Stift', 'Hut', 'Schere', 'Fahrrad', 'Lampe', 'Uhr', 'Flasche', 'Würfel', 'Kerze', 'Geige', 'Jacke', 'Vase', 'Kamera', 'Socke', 'Trommel', 'Löffel', 'Schlüssel', 'Hammer', 'Brille', 'Kette', 'Rucksack', 'Telefon', 'Bürste', 'Tasse']","['robust', 'zart', 'bunt', 'hübsch', 'teuer', 'rustikal', 'kurz', 'groß', 'gut', 'flauschig', 'schwer', 'hohl', 'niedlich', 'schmutzig', 'nachhaltig', 'hässlich', 'breit']",1,1.9729627002961934,None,,,,,,,,,,,,,,,,,,,,,,,,,,,,,,,,,,,,,,,,,,,,,,,,,,,,,,,,,,,,,,,3,2024-01-10_12h38.07.980,watkins1,2023.2.3,99.73351225530087,81,2024-01-10 12h38.16.861099 +0000,
,,,,,,,17,0,17,0,,,,,,,,,,,,,,,,,175.4702210999094,,,,,,,,,,175.4612274998799,175.95225849980488,,,2,2.36084710014984,,,,,,,,,,,,,,,,,,,,,175.95226870011538,181.96001579985023,Vase,kratzig,"['Vase', 'kratzig']",restudy,3,"['Blume', 'Tasche', 'Ring', 'Kiste', 'Buch', 'Eimer', 'Stift', 'Hut', 'Schere', 'Fahrrad', 'Lampe', 'Uhr', 'Flasche', 'Würfel', 'Kerze', 'Geige', 'Jacke', 'Vase', 'Kamera', 'Socke', 'Trommel', 'Löffel', 'Schlüssel', 'Hammer', 'Brille', 'Kette', 'Rucksack', 'Telefon', 'Bürste', 'Tasse']","['robust', 'zart', 'bunt', 'hübsch', 'teuer', 'rustikal', 'kurz', 'groß', 'gut', 'flauschig', 'schwer', 'hohl', 'niedlich', 'schmutzig', 'nachhaltig', 'hässlich', 'breit', 'kratzig']",2,2.36084710014984,None,,,,,,,,,,,,,,,,,,,,,,,,,,,,,,,,,,,,,,,,,,,,,,,,,,,,,,,,,,,,,,,3,2024-01-10_12h38.07.980,watkins1,2023.2.3,99.73351225530087,81,2024-01-10 12h38.16.861099 +0000,
,,,,,,,18,0,18,0,,,,,,,,,,,,,,,,,181.9695203998126,,,,,,,,,,181.9605386997573,182.4515271000564,,,3,3.021971100009978,,,,,,,,,,,,,,,,,,,,,182.45153740001842,188.4535559997894,Kamera,glatt,"['Kamera', 'glatt']",test_adj,3,"['Blume', 'Tasche', 'Ring', 'Kiste', 'Buch', 'Eimer', 'Stift', 'Hut', 'Schere', 'Fahrrad', 'Lampe', 'Uhr', 'Flasche', 'Würfel', 'Kerze', 'Geige', 'Jacke', 'Vase', 'Kamera', 'Socke', 'Trommel', 'Löffel', 'Schlüssel', 'Hammer', 'Brille', 'Kette', 'Rucksack', 'Telefon', 'Bürste', 'Tasse']","['robust', 'zart', 'bunt', 'hübsch', 'teuer', 'rustikal', 'kurz', 'groß', 'gut', 'flauschig', 'schwer', 'hohl', 'niedlich', 'schmutzig', 'nachhaltig', 'hässlich', 'breit', 'kratzig', 'glatt']",3,3.021971100009978,None,,,,,,,,,,,,,,,,,,,,,,,,,,,,,,,,,,,,,,,,,,,,,,,,,,,,,,,,,,,,,,,3,2024-01-10_12h38.07.980,watkins1,2023.2.3,99.73351225530087,81,2024-01-10 12h38.16.861099 +0000,
,,,,,,,19,0,19,0,,,,,,,,,,,,,,,,,188.46301409974694,,,,,,,,,,188.45408369973302,188.945235399995,,,1,2.9520687996409833,,,,,,,,,,,,,,,,,,,,,188.94524599984288,194.9474789998494,Socke,blass,"['Socke', 'blass']",test_adj,3,"['Blume', 'Tasche', 'Ring', 'Kiste', 'Buch', 'Eimer', 'Stift', 'Hut', 'Schere', 'Fahrrad', 'Lampe', 'Uhr', 'Flasche', 'Würfel', 'Kerze', 'Geige', 'Jacke', 'Vase', 'Kamera', 'Socke', 'Trommel', 'Löffel', 'Schlüssel', 'Hammer', 'Brille', 'Kette', 'Rucksack', 'Telefon', 'Bürste', 'Tasse']","['robust', 'zart', 'bunt', 'hübsch', 'teuer', 'rustikal', 'kurz', 'groß', 'gut', 'flauschig', 'schwer', 'hohl', 'niedlich', 'schmutzig', 'nachhaltig', 'hässlich', 'breit', 'kratzig', 'glatt', 'blass']",1,2.9520687996409833,None,,,,,,,,,,,,,,,,,,,,,,,,,,,,,,,,,,,,,,,,,,,,,,,,,,,,,,,,,,,,,,,3,2024-01-10_12h38.07.980,watkins1,2023.2.3,99.73351225530087,81,2024-01-10 12h38.16.861099 +0000,
,,,,,,,20,0,20,0,,,,,,,,,,,,,,,,,194.9569538999349,,,,,,,,,,194.94801459973678,195.43898539990187,,,3,2.9303414998576045,,,,,,,,,,,,,,,,,,,,,195.43899590009823,201.44847159972414,Trommel,kaputt,"['Trommel', 'kaputt']",restudy,3,"['Blume', 'Tasche', 'Ring', 'Kiste', 'Buch', 'Eimer', 'Stift', 'Hut', 'Schere', 'Fahrrad', 'Lampe', 'Uhr', 'Flasche', 'Würfel', 'Kerze', 'Geige', 'Jacke', 'Vase', 'Kamera', 'Socke', 'Trommel', 'Löffel', 'Schlüssel', 'Hammer', 'Brille', 'Kette', 'Rucksack', 'Telefon', 'Bürste', 'Tasse']","['robust', 'zart', 'bunt', 'hübsch', 'teuer', 'rustikal', 'kurz', 'groß', 'gut', 'flauschig', 'schwer', 'hohl', 'niedlich', 'schmutzig', 'nachhaltig', 'hässlich', 'breit', 'kratzig', 'glatt', 'blass', 'kaputt']",3,2.9303414998576045,None,,,,,,,,,,,,,,,,,,,,,,,,,,,,,,,,,,,,,,,,,,,,,,,,,,,,,,,,,,,,,,,3,2024-01-10_12h38.07.980,watkins1,2023.2.3,99.73351225530087,81,2024-01-10 12h38.16.861099 +0000,
,,,,,,,21,0,21,0,,,,,,,,,,,,,,,,,201.4579837997444,,,,,,,,,,201.44898810004815,201.93982219975442,,,1,2.1406060000881553,,,,,,,,,,,,,,,,,,,,,201.93983240006492,207.94746399996802,Löffel,gestreift,"['Löffel', 'gestreift']",test_adj,3,"['Blume', 'Tasche', 'Ring', 'Kiste', 'Buch', 'Eimer', 'Stift', 'Hut', 'Schere', 'Fahrrad', 'Lampe', 'Uhr', 'Flasche', 'Würfel', 'Kerze', 'Geige', 'Jacke', 'Vase', 'Kamera', 'Socke', 'Trommel', 'Löffel', 'Schlüssel', 'Hammer', 'Brille', 'Kette', 'Rucksack', 'Telefon', 'Bürste', 'Tasse']","['robust', 'zart', 'bunt', 'hübsch', 'teuer', 'rustikal', 'kurz', 'groß', 'gut', 'flauschig', 'schwer', 'hohl', 'niedlich', 'schmutzig', 'nachhaltig', 'hässlich', 'breit', 'kratzig', 'glatt', 'blass', 'kaputt', 'gestreift']",1,2.1406060000881553,None,,,,,,,,,,,,,,,,,,,,,,,,,,,,,,,,,,,,,,,,,,,,,,,,,,,,,,,,,,,,,,,3,2024-01-10_12h38.07.980,watkins1,2023.2.3,99.73351225530087,81,2024-01-10 12h38.16.861099 +0000,
,,,,,,,22,0,22,0,,,,,,,,,,,,,,,,,207.95693319989368,,,,,,,,,,207.9479876998812,208.43891509994864,,,1,1.826462599914521,,,,,,,,,,,,,,,,,,,,,208.43892550002784,214.44258849974722,Schlüssel,lustig,"['Schlüssel', 'lustig']",test_adj,3,"['Blume', 'Tasche', 'Ring', 'Kiste', 'Buch', 'Eimer', 'Stift', 'Hut', 'Schere', 'Fahrrad', 'Lampe', 'Uhr', 'Flasche', 'Würfel', 'Kerze', 'Geige', 'Jacke', 'Vase', 'Kamera', 'Socke', 'Trommel', 'Löffel', 'Schlüssel', 'Hammer', 'Brille', 'Kette', 'Rucksack', 'Telefon', 'Bürste', 'Tasse']","['robust', 'zart', 'bunt', 'hübsch', 'teuer', 'rustikal', 'kurz', 'groß', 'gut', 'flauschig', 'schwer', 'hohl', 'niedlich', 'schmutzig', 'nachhaltig', 'hässlich', 'breit', 'kratzig', 'glatt', 'blass', 'kaputt', 'gestreift', 'lustig']",1,1.826462599914521,None,,,,,,,,,,,,,,,,,,,,,,,,,,,,,,,,,,,,,,,,,,,,,,,,,,,,,,,,,,,,,,,3,2024-01-10_12h38.07.980,watkins1,2023.2.3,99.73351225530087,81,2024-01-10 12h38.16.861099 +0000,
,,,,,,,23,0,23,0,,,,,,,,,,,,,,,,,214.4520677998662,,,,,,,,,,214.44310949975625,214.9341146000661,,,2,4.067314899992198,,,,,,,,,,,,,,,,,,,,,214.93412469979376,220.9357739998959,Hammer,dunkel,"['Hammer', 'dunkel']",test_adj,3,"['Blume', 'Tasche', 'Ring', 'Kiste', 'Buch', 'Eimer', 'Stift', 'Hut', 'Schere', 'Fahrrad', 'Lampe', 'Uhr', 'Flasche', 'Würfel', 'Kerze', 'Geige', 'Jacke', 'Vase', 'Kamera', 'Socke', 'Trommel', 'Löffel', 'Schlüssel', 'Hammer', 'Brille', 'Kette', 'Rucksack', 'Telefon', 'Bürste', 'Tasse']","['robust', 'zart', 'bunt', 'hübsch', 'teuer', 'rustikal', 'kurz', 'groß', 'gut', 'flauschig', 'schwer', 'hohl', 'niedlich', 'schmutzig', 'nachhaltig', 'hässlich', 'breit', 'kratzig', 'glatt', 'blass', 'kaputt', 'gestreift', 'lustig', 'dunkel']",2,4.067314899992198,None,,,,,,,,,,,,,,,,,,,,,,,,,,,,,,,,,,,,,,,,,,,,,,,,,,,,,,,,,,,,,,,3,2024-01-10_12h38.07.980,watkins1,2023.2.3,99.73351225530087,81,2024-01-10 12h38.16.861099 +0000,
,,,,,,,24,0,24,0,,,,,,,,,,,,,,,,,220.94514469988644,,,,,,,,,,220.93628379981965,221.4271458000876,,,3,3.094137199688703,,,,,,,,,,,,,,,,,,,,,221.42715570004657,227.43738210015,Brille,glänzend,"['Brille', 'glänzend']",test_adj,3,"['Blume', 'Tasche', 'Ring', 'Kiste', 'Buch', 'Eimer', 'Stift', 'Hut', 'Schere', 'Fahrrad', 'Lampe', 'Uhr', 'Flasche', 'Würfel', 'Kerze', 'Geige', 'Jacke', 'Vase', 'Kamera', 'Socke', 'Trommel', 'Löffel', 'Schlüssel', 'Hammer', 'Brille', 'Kette', 'Rucksack', 'Telefon', 'Bürste', 'Tasse']","['robust', 'zart', 'bunt', 'hübsch', 'teuer', 'rustikal', 'kurz', 'groß', 'gut', 'flauschig', 'schwer', 'hohl', 'niedlich', 'schmutzig', 'nachhaltig', 'hässlich', 'breit', 'kratzig', 'glatt', 'blass', 'kaputt', 'gestreift', 'lustig', 'dunkel', 'glänzend']",3,3.094137199688703,None,,,,,,,,,,,,,,,,,,,,,,,,,,,,,,,,,,,,,,,,,,,,,,,,,,,,,,,,,,,,,,,3,2024-01-10_12h38.07.980,watkins1,2023.2.3,99.73351225530087,81,2024-01-10 12h38.16.861099 +0000,
,,,,,,,25,0,25,0,,,,,,,,,,,,,,,,,227.44691450009122,,,,,,,,,,227.43789929989725,227.9289363999851,,,3,2.368298000190407,,,,,,,,,,,,,,,,,,,,,227.9289468000643,233.93908799998462,Kette,strahlend,"['Kette', 'strahlend']",test_adj,3,"['Blume', 'Tasche', 'Ring', 'Kiste', 'Buch', 'Eimer', 'Stift', 'Hut', 'Schere', 'Fahrrad', 'Lampe', 'Uhr', 'Flasche', 'Würfel', 'Kerze', 'Geige', 'Jacke', 'Vase', 'Kamera', 'Socke', 'Trommel', 'Löffel', 'Schlüssel', 'Hammer', 'Brille', 'Kette', 'Rucksack', 'Telefon', 'Bürste', 'Tasse']","['robust', 'zart', 'bunt', 'hübsch', 'teuer', 'rustikal', 'kurz', 'groß', 'gut', 'flauschig', 'schwer', 'hohl', 'niedlich', 'schmutzig', 'nachhaltig', 'hässlich', 'breit', 'kratzig', 'glatt', 'blass', 'kaputt', 'gestreift', 'lustig', 'dunkel', 'glänzend', 'strahlend']",3,2.368298000190407,None,,,,,,,,,,,,,,,,,,,,,,,,,,,,,,,,,,,,,,,,,,,,,,,,,,,,,,,,,,,,,,,3,2024-01-10_12h38.07.980,watkins1,2023.2.3,99.73351225530087,81,2024-01-10 12h38.16.861099 +0000,
,,,,,,,26,0,26,0,,,,,,,,,,,,,,,,,233.94854949973524,,,,,,,,,,233.93960910011083,234.43047229992226,,,2,4.362936099991202,,,,,,,,,,,,,,,,,,,,,234.43048270000145,240.44024290004745,Rucksack,matt,"['Rucksack', 'matt']",restudy,3,"['Blume', 'Tasche', 'Ring', 'Kiste', 'Buch', 'Eimer', 'Stift', 'Hut', 'Schere', 'Fahrrad', 'Lampe', 'Uhr', 'Flasche', 'Würfel', 'Kerze', 'Geige', 'Jacke', 'Vase', 'Kamera', 'Socke', 'Trommel', 'Löffel', 'Schlüssel', 'Hammer', 'Brille', 'Kette', 'Rucksack', 'Telefon', 'Bürste', 'Tasse']","['robust', 'zart', 'bunt', 'hübsch', 'teuer', 'rustikal', 'kurz', 'groß', 'gut', 'flauschig', 'schwer', 'hohl', 'niedlich', 'schmutzig', 'nachhaltig', 'hässlich', 'breit', 'kratzig', 'glatt', 'blass', 'kaputt', 'gestreift', 'lustig', 'dunkel', 'glänzend', 'strahlend', 'matt']",2,4.362936099991202,None,,,,,,,,,,,,,,,,,,,,,,,,,,,,,,,,,,,,,,,,,,,,,,,,,,,,,,,,,,,,,,,3,2024-01-10_12h38.07.980,watkins1,2023.2.3,99.73351225530087,81,2024-01-10 12h38.16.861099 +0000,
,,,,,,,27,0,27,0,,,,,,,,,,,,,,,,,240.44972659973428,,,,,,,,,,240.4407683997415,240.9317041998729,,,1,1.2616151999682188,,,,,,,,,,,,,,,,,,,,,240.9317139000632,246.9394597997889,Telefon,verspielt,"['Telefon', 'verspielt']",restudy,3,"['Blume', 'Tasche', 'Ring', 'Kiste', 'Buch', 'Eimer', 'Stift', 'Hut', 'Schere', 'Fahrrad', 'Lampe', 'Uhr', 'Flasche', 'Würfel', 'Kerze', 'Geige', 'Jacke', 'Vase', 'Kamera', 'Socke', 'Trommel', 'Löffel', 'Schlüssel', 'Hammer', 'Brille', 'Kette', 'Rucksack', 'Telefon', 'Bürste', 'Tasse']","['robust', 'zart', 'bunt', 'hübsch', 'teuer', 'rustikal', 'kurz', 'groß', 'gut', 'flauschig', 'schwer', 'hohl', 'niedlich', 'schmutzig', 'nachhaltig', 'hässlich', 'breit', 'kratzig', 'glatt', 'blass', 'kaputt', 'gestreift', 'lustig', 'dunkel', 'glänzend', 'strahlend', 'matt', 'verspielt']",1,1.2616151999682188,None,,,,,,,,,,,,,,,,,,,,,,,,,,,,,,,,,,,,,,,,,,,,,,,,,,,,,,,,,,,,,,,3,2024-01-10_12h38.07.980,watkins1,2023.2.3,99.73351225530087,81,2024-01-10 12h38.16.861099 +0000,
,,,,,,,28,0,28,0,,,,,,,,,,,,,,,,,246.94897150015458,,,,,,,,,,246.93997559975833,247.43097950005904,,,2,3.274608800187707,,,,,,,,,,,,,,,,,,,,,247.43098969990388,253.4333464000374,Bürste,nass,"['Bürste', 'nass']",restudy,3,"['Blume', 'Tasche', 'Ring', 'Kiste', 'Buch', 'Eimer', 'Stift', 'Hut', 'Schere', 'Fahrrad', 'Lampe', 'Uhr', 'Flasche', 'Würfel', 'Kerze', 'Geige', 'Jacke', 'Vase', 'Kamera', 'Socke', 'Trommel', 'Löffel', 'Schlüssel', 'Hammer', 'Brille', 'Kette', 'Rucksack', 'Telefon', 'Bürste', 'Tasse']","['robust', 'zart', 'bunt', 'hübsch', 'teuer', 'rustikal', 'kurz', 'groß', 'gut', 'flauschig', 'schwer', 'hohl', 'niedlich', 'schmutzig', 'nachhaltig', 'hässlich', 'breit', 'kratzig', 'glatt', 'blass', 'kaputt', 'gestreift', 'lustig', 'dunkel', 'glänzend', 'strahlend', 'matt', 'verspielt', 'nass']",2,3.274608800187707,None,,,,,,,,,,,,,,,,,,,,,,,,,,,,,,,,,,,,,,,,,,,,,,,,,,,,,,,,,,,,,,,3,2024-01-10_12h38.07.980,watkins1,2023.2.3,99.73351225530087,81,2024-01-10 12h38.16.861099 +0000,
,,,,,,,29,0,29,0,,,,,,,,,,,,,,,,,253.44284819997847,,,,,,,,,,253.43386380001903,253.92470679990947,,,3,3.1404637000523508,,,,,,,,,,,,,,,,,,,,,253.9247175999917,259.9334497000091,Tasse,flach,"['Tasse', 'flach']",restudy,3,"['Blume', 'Tasche', 'Ring', 'Kiste', 'Buch', 'Eimer', 'Stift', 'Hut', 'Schere', 'Fahrrad', 'Lampe', 'Uhr', 'Flasche', 'Würfel', 'Kerze', 'Geige', 'Jacke', 'Vase', 'Kamera', 'Socke', 'Trommel', 'Löffel', 'Schlüssel', 'Hammer', 'Brille', 'Kette', 'Rucksack', 'Telefon', 'Bürste', 'Tasse']","['robust', 'zart', 'bunt', 'hübsch', 'teuer', 'rustikal', 'kurz', 'groß', 'gut', 'flauschig', 'schwer', 'hohl', 'niedlich', 'schmutzig', 'nachhaltig', 'hässlich', 'breit', 'kratzig', 'glatt', 'blass', 'kaputt', 'gestreift', 'lustig', 'dunkel', 'glänzend', 'strahlend', 'matt', 'verspielt', 'nass', 'flach']",3,3.1404637000523508,None,,,,,,,,,,,,,,,,,,,,,,,,,,,,,,,,,,,,,,,,,,,,,,,,,,,,,,,,,,,,,,,3,2024-01-10_12h38.07.980,watkins1,2023.2.3,99.73351225530087,81,2024-01-10 12h38.16.861099 +0000,
,,,,,,,,,,,0,0,0,0,,,,,,,,,,,,,259.9429085999727,,,,,,,,,,259.9342717998661,260.42476610001177,,,[],[],,,,,,,,,,,,None,None,,,,,,,,,,Vase,kratzig,"['Vase', 'kratzig']",restudy,3,,,,,,259.93419589987025,259.93424319988117,"['Vase', 'Buch', 'Kiste', 'Hut', 'Stift', 'Kamera', 'Jacke', 'Tasse', 'Socke', 'Löffel', 'Flasche', 'Rucksack', 'Telefon', 'Hammer', 'Kerze', 'Schere', 'Brille', 'Eimer', 'Würfel', 'Bürste', 'Kette', 'Ring', 'Trommel', 'Geige', 'Fahrrad', 'Lampe', 'Schlüssel', 'Blume', 'Uhr', 'Tasche']",260.4247767999768,260.42735029989854,None,260.4275322998874,266.43165799975395,2,4.189213899895549,None,266.432077600155,266.43462819978595,None,266.43478660006076,266.4358393000439,266.43585130013525,266.43712879996747,,,,,,,,,,,,,,,,,,,,,,,,,,,,,,,,,,,,,,,,,,,,,3,2024-01-10_12h38.07.980,watkins1,2023.2.3,99.73351225530087,81,2024-01-10 12h38.16.861099 +0000,
,,,,,,,,,,,1,0,1,0,,,,,,,,,,,,,266.44114230014384,,,,,,,,,,266.43741350015625,266.93330979999155,,,[],[],,,,,,,,,,,,None,None,,,,,,,,,,Buch,teuer,"['Buch', 'teuer']",restudy,3,,,,,,266.43734830012545,266.43738680006936,"['Vase', 'Buch', 'Kiste', 'Hut', 'Stift', 'Kamera', 'Jacke', 'Tasse', 'Socke', 'Löffel', 'Flasche', 'Rucksack', 'Telefon', 'Hammer', 'Kerze', 'Schere', 'Brille', 'Eimer', 'Würfel', 'Bürste', 'Kette', 'Ring', 'Trommel', 'Geige', 'Fahrrad', 'Lampe', 'Schlüssel', 'Blume', 'Uhr', 'Tasche']",266.93332020007074,266.93593950010836,None,266.9360639997758,272.94495690008625,3,1.169816100038588,None,272.94524999987334,272.94790859986097,None,272.9480193001218,272.9490736001171,272.9490849999711,272.9502379000187,,,,,,,,,,,,,,,,,,,,,,,,,,,,,,,,,,,,,,,,,,,,,3,2024-01-10_12h38.07.980,watkins1,2023.2.3,99.73351225530087,81,2024-01-10 12h38.16.861099 +0000,
,,,,,,,,,,,2,0,2,0,,,,,,,,,,,,,272.95433470001444,,,,,,,,,,272.9505477999337,273.4465417000465,,,[],[],,,,,,,,,,,,None,None,,,,,,,,,,Kiste,hübsch,"['Kiste', 'hübsch']",restudy,3,,,,,,272.9504535999149,272.9505213997327,"['Vase', 'Buch', 'Kiste', 'Hut', 'Stift', 'Kamera', 'Jacke', 'Tasse', 'Socke', 'Löffel', 'Flasche', 'Rucksack', 'Telefon', 'Hammer', 'Kerze', 'Schere', 'Brille', 'Eimer', 'Würfel', 'Bürste', 'Kette', 'Ring', 'Trommel', 'Geige', 'Fahrrad', 'Lampe', 'Schlüssel', 'Blume', 'Uhr', 'Tasche']",273.44655269989744,273.44923260016367,None,273.44935879996046,279.45358199998736,2,1.9682787000201643,None,279.4538857997395,279.45665440009907,None,279.4567693998106,279.4579265997745,279.45793829998,279.45911329984665,,,,,,,,,,,,,,,,,,,,,,,,,,,,,,,,,,,,,,,,,,,,,3,2024-01-10_12h38.07.980,watkins1,2023.2.3,99.73351225530087,81,2024-01-10 12h38.16.861099 +0000,
,,,,,,,,,,,3,0,3,0,,,,,,,,,,,,,279.46309919981286,,,,,,,,,,279.4593997001648,279.9550779997371,,,[],[],,,,,,,,,,,groß,None,None,,,,,,,,,,Hut,groß,"['Hut', 'groß']",test_adj,3,,,,,,279.4593337997794,279.4593726997264,"['Vase', 'Buch', 'Kiste', 'Hut', 'Stift', 'Kamera', 'Jacke', 'Tasse', 'Socke', 'Löffel', 'Flasche', 'Rucksack', 'Telefon', 'Hammer', 'Kerze', 'Schere', 'Brille', 'Eimer', 'Würfel', 'Bürste', 'Kette', 'Ring', 'Trommel', 'Geige', 'Fahrrad', 'Lampe', 'Schlüssel', 'Blume', 'Uhr', 'Tasche']",279.9550888999365,279.9576121000573,None,279.95773659972474,279.95901469979435,None,,,279.9591239998117,279.96038329973817,None,279.96049079997465,285.96280260011554,285.9628163999878,285.96398749994114,0,,,,,,,,,,,,,,,,,,,,,,,,,,,,,,,,,,,,,,,,,,,,3,2024-01-10_12h38.07.980,watkins1,2023.2.3,99.73351225530087,81,2024-01-10 12h38.16.861099 +0000,
,,,,,,,,,,,4,0,4,0,,,,,,,,,,,,,285.9726549000479,,,,,,,,,,285.96427439991385,286.45452070003375,,,[],[],,,,,,,,,,,,None,None,,,,,,,,,,Stift,kurz,"['Stift', 'kurz']",restudy,3,,,,,,285.96420689998195,285.9642460998148,"['Vase', 'Buch', 'Kiste', 'Hut', 'Stift', 'Kamera', 'Jacke', 'Tasse', 'Socke', 'Löffel', 'Flasche', 'Rucksack', 'Telefon', 'Hammer', 'Kerze', 'Schere', 'Brille', 'Eimer', 'Würfel', 'Bürste', 'Kette', 'Ring', 'Trommel', 'Geige', 'Fahrrad', 'Lampe', 'Schlüssel', 'Blume', 'Uhr', 'Tasche']",286.4545315997675,286.45719139976427,None,286.4573156000115,292.46184019977227,3,2.752306600101292,None,292.4625872001052,292.4652444999665,None,292.4653579001315,292.4668395998888,292.4668513000943,292.4678937001154,,,,,,,,,,,,,,,,,,,,,,,,,,,,,,,,,,,,,,,,,,,,,3,2024-01-10_12h38.07.980,watkins1,2023.2.3,99.73351225530087,81,2024-01-10 12h38.16.861099 +0000,
,,,,,,,,,,,5,0,5,0,,,,,,,,,,,,,292.4712753999047,,,,,,,,,,292.4681807998568,292.9635644000955,,,[],[],,,,,,,,,,,glatt,None,None,,,,,,,,,,Kamera,glatt,"['Kamera', 'glatt']",test_adj,3,,,,,,292.4681138000451,292.46815299987793,"['Vase', 'Buch', 'Kiste', 'Hut', 'Stift', 'Kamera', 'Jacke', 'Tasse', 'Socke', 'Löffel', 'Flasche', 'Rucksack', 'Telefon', 'Hammer', 'Kerze', 'Schere', 'Brille', 'Eimer', 'Würfel', 'Bürste', 'Kette', 'Ring', 'Trommel', 'Geige', 'Fahrrad', 'Lampe', 'Schlüssel', 'Blume', 'Uhr', 'Tasche']",292.96357519971207,292.9662307999097,None,292.96635930007324,292.9678126000799,None,,,292.9680010001175,292.96954290010035,None,292.96965149976313,298.9720347998664,298.9720486998558,298.9734264998697,0,,,,,,,,,,,,,,,,,,,,,,,,,,,,,,,,,,,,,,,,,,,,3,2024-01-10_12h38.07.980,watkins1,2023.2.3,99.73351225530087,81,2024-01-10 12h38.16.861099 +0000,
,,,,,,,,,,,6,0,6,0,,,,,,,,,,,,,298.9818481998518,,,,,,,,,,298.97371069993824,299.46469249995425,,,[],[],,,,,,,,,,,breit,None,None,,,,,,,,,,Jacke,breit,"['Jacke', 'breit']",test_adj,3,,,,,,298.9736436000094,298.973682299722,"['Vase', 'Buch', 'Kiste', 'Hut', 'Stift', 'Kamera', 'Jacke', 'Tasse', 'Socke', 'Löffel', 'Flasche', 'Rucksack', 'Telefon', 'Hammer', 'Kerze', 'Schere', 'Brille', 'Eimer', 'Würfel', 'Bürste', 'Kette', 'Ring', 'Trommel', 'Geige', 'Fahrrad', 'Lampe', 'Schlüssel', 'Blume', 'Uhr', 'Tasche']",299.46470309980214,299.46736379992217,None,299.46748630004004,299.46998419985175,None,,,299.4700927999802,299.472591499798,None,299.47270229971036,305.4775124997832,305.47752660000697,305.4788083997555,0,,,,,,,,,,,,,,,,,,,,,,,,,,,,,,,,,,,,,,,,,,,,3,2024-01-10_12h38.07.980,watkins1,2023.2.3,99.73351225530087,81,2024-01-10 12h38.16.861099 +0000,
,,,,,,,,,,,7,0,7,0,,,,,,,,,,,,,305.48736259993166,,,,,,,,,,305.47909489972517,305.96940279984847,,,[],[],,,,,,,,,,,,None,None,,,,,,,,,,Tasse,flach,"['Tasse', 'flach']",restudy,3,,,,,,305.47902680002153,305.4790664999746,"['Vase', 'Buch', 'Kiste', 'Hut', 'Stift', 'Kamera', 'Jacke', 'Tasse', 'Socke', 'Löffel', 'Flasche', 'Rucksack', 'Telefon', 'Hammer', 'Kerze', 'Schere', 'Brille', 'Eimer', 'Würfel', 'Bürste', 'Kette', 'Ring', 'Trommel', 'Geige', 'Fahrrad', 'Lampe', 'Schlüssel', 'Blume', 'Uhr', 'Tasche']",305.96941319992766,305.97205709991977,None,305.97218109993264,311.97756600007415,3,1.9416001001372933,None,311.97786109987646,311.98055629990995,None,311.98066909983754,311.9821536997333,311.98216529982165,311.9833293999545,,,,,,,,,,,,,,,,,,,,,,,,,,,,,,,,,,,,,,,,,,,,,3,2024-01-10_12h38.07.980,watkins1,2023.2.3,99.73351225530087,81,2024-01-10 12h38.16.861099 +0000,
,,,,,,,,,,,8,0,8,0,,,,,,,,,,,,,311.9871215997264,,,,,,,,,,311.98361189989373,312.4793182001449,,,[],[],,,,,,,,,,,,None,None,,,,,,,,,,Socke,blass,"['Socke', 'blass']",test_adj,3,,,,,,311.98354559997097,311.98358439980075,"['Vase', 'Buch', 'Kiste', 'Hut', 'Stift', 'Kamera', 'Jacke', 'Tasse', 'Socke', 'Löffel', 'Flasche', 'Rucksack', 'Telefon', 'Hammer', 'Kerze', 'Schere', 'Brille', 'Eimer', 'Würfel', 'Bürste', 'Kette', 'Ring', 'Trommel', 'Geige', 'Fahrrad', 'Lampe', 'Schlüssel', 'Blume', 'Uhr', 'Tasche']",312.4793286998756,312.4819832998328,None,312.48210759973153,312.4835378001444,None,,,312.48364679981023,312.4850897998549,None,312.4851987999864,318.48768529994413,318.4876989000477,318.48898269981146,0,,,,,,,,,,,,,,,,,,,,,,,,,,,,,,,,,,,,,,,,,,,,3,2024-01-10_12h38.07.980,watkins1,2023.2.3,99.73351225530087,81,2024-01-10 12h38.16.861099 +0000,
,,,,,,,,,,,9,0,9,0,,,,,,,,,,,,,318.4975264999084,,,,,,,,,,318.48926499998197,318.9795772000216,,,[],[],,,,,,,,,,,gestreift,None,None,,,,,,,,,,Löffel,gestreift,"['Löffel', 'gestreift']",test_adj,3,,,,,,318.4891987997107,318.48923610011116,"['Vase', 'Buch', 'Kiste', 'Hut', 'Stift', 'Kamera', 'Jacke', 'Tasse', 'Socke', 'Löffel', 'Flasche', 'Rucksack', 'Telefon', 'Hammer', 'Kerze', 'Schere', 'Brille', 'Eimer', 'Würfel', 'Bürste', 'Kette', 'Ring', 'Trommel', 'Geige', 'Fahrrad', 'Lampe', 'Schlüssel', 'Blume', 'Uhr', 'Tasche']",318.9795877998695,318.98226760001853,None,318.98239130014554,318.98489509988576,None,,,318.985003199894,318.98752210009843,None,318.9876283998601,324.99148349976167,324.9914970998652,324.9928831998259,0,,,,,,,,,,,,,,,,,,,,,,,,,,,,,,,,,,,,,,,,,,,,3,2024-01-10_12h38.07.980,watkins1,2023.2.3,99.73351225530087,81,2024-01-10 12h38.16.861099 +0000,
,,,,,,,,,,,10,0,10,0,,,,,,,,,,,,,325.00133410003036,,,,,,,,,,324.9931729999371,325.4834348000586,,,[],[],,,,,,,,,,,,None,None,,,,,,,,,,Flasche,niedlich,"['Flasche', 'niedlich']",restudy,3,,,,,,324.99310499988496,324.99314459972084,"['Vase', 'Buch', 'Kiste', 'Hut', 'Stift', 'Kamera', 'Jacke', 'Tasse', 'Socke', 'Löffel', 'Flasche', 'Rucksack', 'Telefon', 'Hammer', 'Kerze', 'Schere', 'Brille', 'Eimer', 'Würfel', 'Bürste', 'Kette', 'Ring', 'Trommel', 'Geige', 'Fahrrad', 'Lampe', 'Schlüssel', 'Blume', 'Uhr', 'Tasche']",325.4834452001378,325.4864066001028,None,325.4865313000046,331.49318580003455,1,2.3551422003656626,None,331.49347350001335,331.49653959972784,None,331.4966496000998,331.49813929991797,331.4981507998891,331.49932639999315,,,,,,,,,,,,,,,,,,,,,,,,,,,,,,,,,,,,,,,,,,,,,3,2024-01-10_12h38.07.980,watkins1,2023.2.3,99.73351225530087,81,2024-01-10 12h38.16.861099 +0000,
,,,,,,,,,,,11,0,11,0,,,,,,,,,,,,,331.5026410999708,,,,,,,,,,331.49960369989276,331.99473679997027,,,[],[],,,,,,,,,,,,None,None,,,,,,,,,,Rucksack,matt,"['Rucksack', 'matt']",restudy,3,,,,,,331.4995387997478,331.4995774999261,"['Vase', 'Buch', 'Kiste', 'Hut', 'Stift', 'Kamera', 'Jacke', 'Tasse', 'Socke', 'Löffel', 'Flasche', 'Rucksack', 'Telefon', 'Hammer', 'Kerze', 'Schere', 'Brille', 'Eimer', 'Würfel', 'Bürste', 'Kette', 'Ring', 'Trommel', 'Geige', 'Fahrrad', 'Lampe', 'Schlüssel', 'Blume', 'Uhr', 'Tasche']",331.99474880006164,331.997562199831,None,331.99769160011783,338.0014337999746,2,1.9557953998446465,None,338.00172800011933,338.0044165998697,None,338.0045293001458,338.0057536000386,338.0057655000128,338.00680969981477,,,,,,,,,,,,,,,,,,,,,,,,,,,,,,,,,,,,,,,,,,,,,3,2024-01-10_12h38.07.980,watkins1,2023.2.3,99.73351225530087,81,2024-01-10 12h38.16.861099 +0000,
,,,,,,,,,,,12,0,12,0,,,,,,,,,,,,,338.0109463999979,,,,,,,,,,338.0070917000994,338.5029862001538,,,[],[],,,,,,,,,,,,None,None,,,,,,,,,,Telefon,verspielt,"['Telefon', 'verspielt']",restudy,3,,,,,,338.0070258998312,338.00706479977816,"['Vase', 'Buch', 'Kiste', 'Hut', 'Stift', 'Kamera', 'Jacke', 'Tasse', 'Socke', 'Löffel', 'Flasche', 'Rucksack', 'Telefon', 'Hammer', 'Kerze', 'Schere', 'Brille', 'Eimer', 'Würfel', 'Bürste', 'Kette', 'Ring', 'Trommel', 'Geige', 'Fahrrad', 'Lampe', 'Schlüssel', 'Blume', 'Uhr', 'Tasche']",338.50299659976736,338.50554479984567,None,338.5056666000746,344.50879089999944,1,1.56789689976722,None,344.50908599980175,344.51192690012977,None,344.5120363999158,344.5132256001234,344.5132375000976,344.51447020005435,,,,,,,,,,,,,,,,,,,,,,,,,,,,,,,,,,,,,,,,,,,,,3,2024-01-10_12h38.07.980,watkins1,2023.2.3,99.73351225530087,81,2024-01-10 12h38.16.861099 +0000,
,,,,,,,,,,,13,0,13,0,,,,,,,,,,,,,344.5182762998156,,,,,,,,,,344.51475209975615,345.0103334998712,,,[],[],,,,,,,,,,,dunkel,None,None,,,,,,,,,,Hammer,dunkel,"['Hammer', 'dunkel']",test_adj,3,,,,,,344.5146872000769,344.51472549978644,"['Vase', 'Buch', 'Kiste', 'Hut', 'Stift', 'Kamera', 'Jacke', 'Tasse', 'Socke', 'Löffel', 'Flasche', 'Rucksack', 'Telefon', 'Hammer', 'Kerze', 'Schere', 'Brille', 'Eimer', 'Würfel', 'Bürste', 'Kette', 'Ring', 'Trommel', 'Geige', 'Fahrrad', 'Lampe', 'Schlüssel', 'Blume', 'Uhr', 'Tasche']",345.01034419983625,345.0130990999751,None,345.0132240001112,345.0146420998499,None,,,345.0147506999783,345.0161856999621,None,345.01629279972985,351.01856220001355,351.0185759998858,351.02000609971583,0,,,,,,,,,,,,,,,,,,,,,,,,,,,,,,,,,,,,,,,,,,,,3,2024-01-10_12h38.07.980,watkins1,2023.2.3,99.73351225530087,81,2024-01-10 12h38.16.861099 +0000,
,,,,,,,,,,,14,0,14,0,,,,,,,,,,,,,351.0283621000126,,,,,,,,,,351.0202959999442,351.51032719993964,,,[],[],,,,,,,,,,,,None,None,,,,,,,,,,Kerze,nachhaltig,"['Kerze', 'nachhaltig']",restudy,3,,,,,,351.02022660011426,351.02026590006426,"['Vase', 'Buch', 'Kiste', 'Hut', 'Stift', 'Kamera', 'Jacke', 'Tasse', 'Socke', 'Löffel', 'Flasche', 'Rucksack', 'Telefon', 'Hammer', 'Kerze', 'Schere', 'Brille', 'Eimer', 'Würfel', 'Bürste', 'Kette', 'Ring', 'Trommel', 'Geige', 'Fahrrad', 'Lampe', 'Schlüssel', 'Blume', 'Uhr', 'Tasche']",351.5103385001421,351.5130246998742,None,351.51314909989014,357.5138376997784,1,1.9604805000126362,None,357.5141420001164,357.5169982998632,None,357.5171095998958,357.51857980014756,357.51859139977023,357.5198415997438,,,,,,,,,,,,,,,,,,,,,,,,,,,,,,,,,,,,,,,,,,,,,3,2024-01-10_12h38.07.980,watkins1,2023.2.3,99.73351225530087,81,2024-01-10 12h38.16.861099 +0000,
,,,,,,,,,,,15,0,15,0,,,,,,,,,,,,,357.523180199787,,,,,,,,,,357.52012309990823,358.0153350001201,,,[],[],,,,,,,,,,,schön,None,None,,,,,,,,,,Schere,gut,"['Schere', 'gut']",test_adj,3,,,,,,357.5200581001118,357.5200966000557,"['Vase', 'Buch', 'Kiste', 'Hut', 'Stift', 'Kamera', 'Jacke', 'Tasse', 'Socke', 'Löffel', 'Flasche', 'Rucksack', 'Telefon', 'Hammer', 'Kerze', 'Schere', 'Brille', 'Eimer', 'Würfel', 'Bürste', 'Kette', 'Ring', 'Trommel', 'Geige', 'Fahrrad', 'Lampe', 'Schlüssel', 'Blume', 'Uhr', 'Tasche']",358.015345599968,358.01814349973574,None,358.0182746001519,358.0197156998329,None,,,358.0198237998411,358.0212666997686,None,358.02145530004054,364.0250491001643,364.0250626001507,364.0261651999317,0,,,,,,,,,,,,,,,,,,,,,,,,,,,,,,,,,,,,,,,,,,,,3,2024-01-10_12h38.07.980,watkins1,2023.2.3,99.73351225530087,81,2024-01-10 12h38.16.861099 +0000,
,,,,,,,,,,,16,0,16,0,,,,,,,,,,,,,364.0348904998973,,,,,,,,,,364.02644519973546,364.5168721000664,,,[],[],,,,,,,,,,,glänzend,None,None,,,,,,,,,,Brille,glänzend,"['Brille', 'glänzend']",test_adj,3,,,,,,364.02637920016423,364.0264173001051,"['Vase', 'Buch', 'Kiste', 'Hut', 'Stift', 'Kamera', 'Jacke', 'Tasse', 'Socke', 'Löffel', 'Flasche', 'Rucksack', 'Telefon', 'Hammer', 'Kerze', 'Schere', 'Brille', 'Eimer', 'Würfel', 'Bürste', 'Kette', 'Ring', 'Trommel', 'Geige', 'Fahrrad', 'Lampe', 'Schlüssel', 'Blume', 'Uhr', 'Tasche']",364.5168830999173,364.5194354997948,None,364.5195613000542,364.52204670012,None,,,364.52215609978884,364.5245342999697,None,364.5246437001042,370.5291948998347,370.5292082997039,370.5305582000874,0,,,,,,,,,,,,,,,,,,,,,,,,,,,,,,,,,,,,,,,,,,,,3,2024-01-10_12h38.07.980,watkins1,2023.2.3,99.73351225530087,81,2024-01-10 12h38.16.861099 +0000,
,,,,,,,,,,,17,0,17,0,,,,,,,,,,,,,370.5390483001247,,,,,,,,,,370.53084240015596,371.0212221001275,,,[],[],,,,,,,,,,,,None,None,,,,,,,,,,Eimer,rustikal,"['Eimer', 'rustikal']",test_adj,3,,,,,,370.5307740997523,370.5308142998256,"['Vase', 'Buch', 'Kiste', 'Hut', 'Stift', 'Kamera', 'Jacke', 'Tasse', 'Socke', 'Löffel', 'Flasche', 'Rucksack', 'Telefon', 'Hammer', 'Kerze', 'Schere', 'Brille', 'Eimer', 'Würfel', 'Bürste', 'Kette', 'Ring', 'Trommel', 'Geige', 'Fahrrad', 'Lampe', 'Schlüssel', 'Blume', 'Uhr', 'Tasche']",371.0212332000956,371.0239535998553,None,371.02407719986513,371.02711150003597,None,,,371.027222099714,371.02975929994136,None,371.0298665999435,377.0359871000983,377.0360011998564,377.03732959972695,0,,,,,,,,,,,,,,,,,,,,,,,,,,,,,,,,,,,,,,,,,,,,3,2024-01-10_12h38.07.980,watkins1,2023.2.3,99.73351225530087,81,2024-01-10 12h38.16.861099 +0000,
,,,,,,,,,,,18,0,18,0,,,,,,,,,,,,,377.0457629999146,,,,,,,,,,377.03765589976683,377.5277843000367,,,[],[],,,,,,,,,,,schmutzig,None,None,,,,,,,,,,Würfel,schmutzig,"['Würfel', 'schmutzig']",test_adj,3,,,,,,377.03754290007055,377.0375827997923,"['Vase', 'Buch', 'Kiste', 'Hut', 'Stift', 'Kamera', 'Jacke', 'Tasse', 'Socke', 'Löffel', 'Flasche', 'Rucksack', 'Telefon', 'Hammer', 'Kerze', 'Schere', 'Brille', 'Eimer', 'Würfel', 'Bürste', 'Kette', 'Ring', 'Trommel', 'Geige', 'Fahrrad', 'Lampe', 'Schlüssel', 'Blume', 'Uhr', 'Tasche']",377.52779449988157,377.53068629978225,None,377.53080999990925,377.5333905001171,None,,,377.5334981000051,377.5360709000379,None,377.536179699935,383.54083069972694,383.5408443999477,383.5421980000101,0,,,,,,,,,,,,,,,,,,,,,,,,,,,,,,,,,,,,,,,,,,,,3,2024-01-10_12h38.07.980,watkins1,2023.2.3,99.73351225530087,81,2024-01-10 12h38.16.861099 +0000,
,,,,,,,,,,,19,0,19,0,,,,,,,,,,,,,383.5506313997321,,,,,,,,,,383.5424851998687,384.0326833999716,,,[],[],,,,,,,,,,,,None,None,,,,,,,,,,Bürste,nass,"['Bürste', 'nass']",restudy,3,,,,,,383.54241569992155,383.54245729977265,"['Vase', 'Buch', 'Kiste', 'Hut', 'Stift', 'Kamera', 'Jacke', 'Tasse', 'Socke', 'Löffel', 'Flasche', 'Rucksack', 'Telefon', 'Hammer', 'Kerze', 'Schere', 'Brille', 'Eimer', 'Würfel', 'Bürste', 'Kette', 'Ring', 'Trommel', 'Geige', 'Fahrrad', 'Lampe', 'Schlüssel', 'Blume', 'Uhr', 'Tasche']",384.0326942000538,384.0354545000009,None,384.03558180015534,390.04434489971027,2,1.6779462001286447,None,390.0446413997561,390.04719500010833,None,390.04730559978634,390.04889660002664,390.04890820011497,390.04993230011314,,,,,,,,,,,,,,,,,,,,,,,,,,,,,,,,,,,,,,,,,,,,,3,2024-01-10_12h38.07.980,watkins1,2023.2.3,99.73351225530087,81,2024-01-10 12h38.16.861099 +0000,
,,,,,,,,,,,20,0,20,0,,,,,,,,,,,,,390.0538697000593,,,,,,,,,,390.0502138999291,390.5458801998757,,,[],[],,,,,,,,,,,,None,None,,,,,,,,,,Kette,strahlend,"['Kette', 'strahlend']",test_adj,3,,,,,,390.0501478998922,390.050187099725,"['Vase', 'Buch', 'Kiste', 'Hut', 'Stift', 'Kamera', 'Jacke', 'Tasse', 'Socke', 'Löffel', 'Flasche', 'Rucksack', 'Telefon', 'Hammer', 'Kerze', 'Schere', 'Brille', 'Eimer', 'Würfel', 'Bürste', 'Kette', 'Ring', 'Trommel', 'Geige', 'Fahrrad', 'Lampe', 'Schlüssel', 'Blume', 'Uhr', 'Tasche']",390.5458912998438,390.548409699928,None,390.5485379998572,390.54994340008125,None,,,390.55005089985207,390.551439399831,None,390.55154770007357,396.5544992000796,396.5545133999549,396.5558552001603,0,,,,,,,,,,,,,,,,,,,,,,,,,,,,,,,,,,,,,,,,,,,,3,2024-01-10_12h38.07.980,watkins1,2023.2.3,99.73351225530087,81,2024-01-10 12h38.16.861099 +0000,
,,,,,,,,,,,21,0,21,0,,,,,,,,,,,,,396.5643096999265,,,,,,,,,,396.5561428000219,397.04636169970036,,,[],[],,,,,,,,,,,,None,None,,,,,,,,,,Ring,bunt,"['Ring', 'bunt']",restudy,3,,,,,,396.5560745000839,396.5561135997996,"['Vase', 'Buch', 'Kiste', 'Hut', 'Stift', 'Kamera', 'Jacke', 'Tasse', 'Socke', 'Löffel', 'Flasche', 'Rucksack', 'Telefon', 'Hammer', 'Kerze', 'Schere', 'Brille', 'Eimer', 'Würfel', 'Bürste', 'Kette', 'Ring', 'Trommel', 'Geige', 'Fahrrad', 'Lampe', 'Schlüssel', 'Blume', 'Uhr', 'Tasche']",397.0463721998967,397.04897810006514,None,397.0491067999974,403.0579869998619,2,2.921036200132221,None,403.0582841001451,403.06075959978625,None,403.0608719000593,403.06190189998597,403.0619133999571,403.06294280011207,,,,,,,,,,,,,,,,,,,,,,,,,,,,,,,,,,,,,,,,,,,,,3,2024-01-10_12h38.07.980,watkins1,2023.2.3,99.73351225530087,81,2024-01-10 12h38.16.861099 +0000,
,,,,,,,,,,,22,0,22,0,,,,,,,,,,,,,403.06742500001565,,,,,,,,,,403.0632273000665,403.55983719974756,,,[],[],,,,,,,,,,,,None,None,,,,,,,,,,Trommel,kaputt,"['Trommel', 'kaputt']",restudy,3,,,,,,403.0631622001529,403.06320039974526,"['Vase', 'Buch', 'Kiste', 'Hut', 'Stift', 'Kamera', 'Jacke', 'Tasse', 'Socke', 'Löffel', 'Flasche', 'Rucksack', 'Telefon', 'Hammer', 'Kerze', 'Schere', 'Brille', 'Eimer', 'Würfel', 'Bürste', 'Kette', 'Ring', 'Trommel', 'Geige', 'Fahrrad', 'Lampe', 'Schlüssel', 'Blume', 'Uhr', 'Tasche']",403.55984849995,403.5623952001333,None,403.562520199921,409.5666407998651,3,2.799290500115603,None,409.56693119974807,409.5697253998369,None,409.56983709987253,409.57101480010897,409.5710263000801,409.5721736000851,,,,,,,,,,,,,,,,,,,,,,,,,,,,,,,,,,,,,,,,,,,,,3,2024-01-10_12h38.07.980,watkins1,2023.2.3,99.73351225530087,81,2024-01-10 12h38.16.861099 +0000,
,,,,,,,,,,,23,0,23,0,,,,,,,,,,,,,409.57612349977717,,,,,,,,,,409.5724520999938,410.06822589971125,,,[],[],,,,,,,,,,,hässlich,None,None,,,,,,,,,,Geige,hässlich,"['Geige', 'hässlich']",test_adj,3,,,,,,409.5723863998428,409.5724256001413,"['Vase', 'Buch', 'Kiste', 'Hut', 'Stift', 'Kamera', 'Jacke', 'Tasse', 'Socke', 'Löffel', 'Flasche', 'Rucksack', 'Telefon', 'Hammer', 'Kerze', 'Schere', 'Brille', 'Eimer', 'Würfel', 'Bürste', 'Kette', 'Ring', 'Trommel', 'Geige', 'Fahrrad', 'Lampe', 'Schlüssel', 'Blume', 'Uhr', 'Tasche']",410.0682365000248,410.070958300028,None,410.07108259992674,410.07249719975516,None,,,410.07260539988056,410.0740077998489,None,410.0741143999621,416.0784105998464,416.07842419994995,416.07976750005037,0,,,,,,,,,,,,,,,,,,,,,,,,,,,,,,,,,,,,,,,,,,,,3,2024-01-10_12h38.07.980,watkins1,2023.2.3,99.73351225530087,81,2024-01-10 12h38.16.861099 +0000,
,,,,,,,,,,,24,0,24,0,,,,,,,,,,,,,416.08821259997785,,,,,,,,,,416.0800529997796,416.5701115997508,,,[],[],,,,,,,,,,,,None,None,,,,,,,,,,Fahrrad,flauschig,"['Fahrrad', 'flauschig']",restudy,3,,,,,,416.0799854998477,416.0800247997977,"['Vase', 'Buch', 'Kiste', 'Hut', 'Stift', 'Kamera', 'Jacke', 'Tasse', 'Socke', 'Löffel', 'Flasche', 'Rucksack', 'Telefon', 'Hammer', 'Kerze', 'Schere', 'Brille', 'Eimer', 'Würfel', 'Bürste', 'Kette', 'Ring', 'Trommel', 'Geige', 'Fahrrad', 'Lampe', 'Schlüssel', 'Blume', 'Uhr', 'Tasche']",416.57012159982696,416.5728754000738,None,416.57300199987367,422.5750874001533,1,1.4366921000182629,None,422.5753779998049,422.5780834001489,None,422.5781955998391,422.57965500000864,422.5796663998626,422.5808800999075,,,,,,,,,,,,,,,,,,,,,,,,,,,,,,,,,,,,,,,,,,,,,3,2024-01-10_12h38.07.980,watkins1,2023.2.3,99.73351225530087,81,2024-01-10 12h38.16.861099 +0000,
,,,,,,,,,,,25,0,25,0,,,,,,,,,,,,,422.5845582000911,,,,,,,,,,422.58115480002016,423.0765251000412,,,[],[],,,,,,,,,,,schwer,None,None,,,,,,,,,,Lampe,schwer,"['Lampe', 'schwer']",test_adj,3,,,,,,422.58108879998326,422.58112889993936,"['Vase', 'Buch', 'Kiste', 'Hut', 'Stift', 'Kamera', 'Jacke', 'Tasse', 'Socke', 'Löffel', 'Flasche', 'Rucksack', 'Telefon', 'Hammer', 'Kerze', 'Schere', 'Brille', 'Eimer', 'Würfel', 'Bürste', 'Kette', 'Ring', 'Trommel', 'Geige', 'Fahrrad', 'Lampe', 'Schlüssel', 'Blume', 'Uhr', 'Tasche']",423.0765360998921,423.0794290001504,None,423.0795538998209,423.0809657997452,None,,,423.081075000111,423.08248580014333,None,423.0825927001424,429.0852021998726,429.08521569985896,429.08661910006776,0,,,,,,,,,,,,,,,,,,,,,,,,,,,,,,,,,,,,,,,,,,,,3,2024-01-10_12h38.07.980,watkins1,2023.2.3,99.73351225530087,81,2024-01-10 12h38.16.861099 +0000,
,,,,,,,,,,,26,0,26,0,,,,,,,,,,,,,429.09501679986715,,,,,,,,,,429.0869112997316,429.57711709989235,,,[],[],,,,,,,,,,,lustig,None,None,,,,,,,,,,Schlüssel,lustig,"['Schlüssel', 'lustig']",test_adj,3,,,,,,429.0868429997936,429.08688249997795,"['Vase', 'Buch', 'Kiste', 'Hut', 'Stift', 'Kamera', 'Jacke', 'Tasse', 'Socke', 'Löffel', 'Flasche', 'Rucksack', 'Telefon', 'Hammer', 'Kerze', 'Schere', 'Brille', 'Eimer', 'Würfel', 'Bürste', 'Kette', 'Ring', 'Trommel', 'Geige', 'Fahrrad', 'Lampe', 'Schlüssel', 'Blume', 'Uhr', 'Tasche']",429.5771276000887,429.5798864001408,None,429.5800121999346,429.582580300048,None,,,429.5826884000562,429.5853170999326,None,429.585429799743,435.5906485999003,435.59066239977255,435.5919600999914,0,,,,,,,,,,,,,,,,,,,,,,,,,,,,,,,,,,,,,,,,,,,,3,2024-01-10_12h38.07.980,watkins1,2023.2.3,99.73351225530087,81,2024-01-10 12h38.16.861099 +0000,
,,,,,,,,,,,27,0,27,0,,,,,,,,,,,,,435.60045500006527,,,,,,,,,,435.59224679972976,436.0824971999973,,,[],[],,,,,,,,,,,,None,None,,,,,,,,,,Blume,robust,"['Blume', 'robust']",restudy,3,,,,,,435.5921780997887,435.59221850009635,"['Vase', 'Buch', 'Kiste', 'Hut', 'Stift', 'Kamera', 'Jacke', 'Tasse', 'Socke', 'Löffel', 'Flasche', 'Rucksack', 'Telefon', 'Hammer', 'Kerze', 'Schere', 'Brille', 'Eimer', 'Würfel', 'Bürste', 'Kette', 'Ring', 'Trommel', 'Geige', 'Fahrrad', 'Lampe', 'Schlüssel', 'Blume', 'Uhr', 'Tasche']",436.08250809973106,436.0851770997979,None,436.085303099826,442.08792209997773,1,2.5324256997555494,None,442.0882135001011,442.09080970007926,None,442.0909182000905,442.09234749991447,442.09235869999975,442.0934914997779,,,,,,,,,,,,,,,,,,,,,,,,,,,,,,,,,,,,,,,,,,,,,3,2024-01-10_12h38.07.980,watkins1,2023.2.3,99.73351225530087,81,2024-01-10 12h38.16.861099 +0000,
,,,,,,,,,,,28,0,28,0,,,,,,,,,,,,,442.09738199971616,,,,,,,,,,442.09376440010965,442.58940559998155,,,[],[],,,,,,,,,,,hohl,None,None,,,,,,,,,,Uhr,hohl,"['Uhr', 'hohl']",test_adj,3,,,,,,442.09370139986277,442.09373869979754,"['Vase', 'Buch', 'Kiste', 'Hut', 'Stift', 'Kamera', 'Jacke', 'Tasse', 'Socke', 'Löffel', 'Flasche', 'Rucksack', 'Telefon', 'Hammer', 'Kerze', 'Schere', 'Brille', 'Eimer', 'Würfel', 'Bürste', 'Kette', 'Ring', 'Trommel', 'Geige', 'Fahrrad', 'Lampe', 'Schlüssel', 'Blume', 'Uhr', 'Tasche']",442.58941600006074,442.5919240997173,None,442.5920477998443,442.59332629991695,None,,,442.5934339999221,442.5947124999948,None,442.5948200998828,448.59660500008613,448.596618599724,448.597771700006,0,,,,,,,,,,,,,,,,,,,,,,,,,,,,,,,,,,,,,,,,,,,,3,2024-01-10_12h38.07.980,watkins1,2023.2.3,99.73351225530087,81,2024-01-10 12h38.16.861099 +0000,
,,,,,,,,,,,29,0,29,0,,,,,,,,,,,,,448.6064357999712,,,,,,,,,,448.5980579997413,449.0884555000812,,,[],[],,,,,,,,,,,,None,None,,,,,,,,,,Tasche,zart,"['Tasche', 'zart']",restudy,3,,,,,,448.5979904998094,448.5980290998705,"['Vase', 'Buch', 'Kiste', 'Hut', 'Stift', 'Kamera', 'Jacke', 'Tasse', 'Socke', 'Löffel', 'Flasche', 'Rucksack', 'Telefon', 'Hammer', 'Kerze', 'Schere', 'Brille', 'Eimer', 'Würfel', 'Bürste', 'Kette', 'Ring', 'Trommel', 'Geige', 'Fahrrad', 'Lampe', 'Schlüssel', 'Blume', 'Uhr', 'Tasche']",449.08846620004624,449.09101019985974,None,449.0911344997585,455.10084290010855,2,1.9906184999272227,None,455.10113289998844,455.1038069999777,None,455.1039216998033,455.10538349999115,455.1053948998451,455.10639850003645,,,,,,,,,,,,,,,,,,,,,,,,,,,,,,,,,,,,,,,,,,,,,3,2024-01-10_12h38.07.980,watkins1,2023.2.3,99.73351225530087,81,2024-01-10 12h38.16.861099 +0000,
,,,,,,,,,,,,,,,,,,,,,,,,,,,,,,,,,,,,,,,,,,,,,,,,,,,,,,,,,,,,,,,,,,,,,3,,,,,,,,,,,,,,,,,,,,,,,,,,,,,,,,,,,,,,,,,,,,,,,,,,,,,,,,,,,,,,,,,,,,3,2024-01-10_12h38.07.980,watkins1,2023.2.3,99.73351225530087,81,2024-01-10 12h38.16.861099 +0000,
(6 x 3) + 10 = 27 ,Incorrect,button_incorrect,,,,,,,,,,,,,0,0,0,8,,,,,,,,,482.07001690007746,,,,,,,,481.02185129979625,482.02541449991986,,,,,['button_incorrect'],[6.584482099860907],,,,,,,,,,,,,,,,,,,,,,,,,,distractorTask,3,,,,,,,,,,,,,,,,,,,,,,,,,482.0583581998944,482.07001690007746,488.64817029982805,[-0.4083333333333333],[-0.40555555555555556],[1],[0],[0],[6.584482099860907],['button_incorrect'],488.64883749978617,489.6517874998972,,,,,,,,,,,,,,,,,,,,,,,,,,,,,,,,3,2024-01-10_12h38.07.980,watkins1,2023.2.3,99.73351225530087,81,2024-01-10 12h38.16.861099 +0000,
(25 : 5) + 5 = 9 ,Incorrect,button_incorrect,,,,,,,,,,,,,0,1,1,6,,,,,,,,,489.6617944999598,,,,,,,,,,,,,,['button_incorrect'],[4.265262300148606],,,,,,,,,,,,,,,,,,,,,,,,,,distractorTask,3,,,,,,,,,,,,,,,,,,,,,,,,,489.65198259986937,489.6617944999598,493.9206508998759,[-0.3287037037037037],[-0.3851851851851852],[1],[0],[0],[4.265262300148606],['button_incorrect'],493.92104429984465,494.9242504001595,,,,,,,,,,,,,,,,,,,,,,,,,,,,,,,,3,2024-01-10_12h38.07.980,watkins1,2023.2.3,99.73351225530087,81,2024-01-10 12h38.16.861099 +0000,
(7 x 6) + 9 = 48 ,Incorrect,button_incorrect,,,,,,,,,,,,,0,2,2,9,,,,,,,,,494.9342334000394,,,,,,,,,,,,,,['button_incorrect'],[5.168950599618256],,,,,,,,,,,,,,,,,,,,,,,,,,distractorTask,3,,,,,,,,,,,,,,,,,,,,,,,,,494.9244404998608,494.9342334000394,500.0963229998015,[-0.30925925925925923],[-0.39166666666666666],[1],[0],[0],[5.168950599618256],['button_incorrect'],500.09669680008665,501.0999877997674,,,,,,,,,,,,,,,,,,,,,,,,,,,,,,,,3,2024-01-10_12h38.07.980,watkins1,2023.2.3,99.73351225530087,81,2024-01-10 12h38.16.861099 +0000,
(80 : 10) + 9 = 17 ,Correct,button_correct,,,,,,,,,,,,,0,3,3,3,,,,,,,,,501.1099676997401,,,,,,,,,,,,,,['button_correct'],[4.818567700218409],,,,,,,,,,,,,,,,,,,,,,,,,,distractorTask,3,,,,,,,,,,,,,,,,,,,,,,,,,501.1001766999252,501.1099676997401,505.92086250009015,[0.3824074074074074],[-0.4111111111111111],[1],[0],[0],[4.818567700218409],['button_correct'],505.92123349988833,506.92443040013313,,,,,,,,,,,,,,,,,,,,,,,,,,,,,,,,3,2024-01-10_12h38.07.980,watkins1,2023.2.3,99.73351225530087,81,2024-01-10 12h38.16.861099 +0000,
(9 x 5) - 9 = 36 ,Correct,button_correct,,,,,,,,,,,,,0,4,4,4,,,,,,,,,506.9344228999689,,,,,,,,,,,,,,['button_incorrect'],[9.65770239988342],,,,,,,,,,,,,,,,,,,,,,,,,,distractorTask,3,,,,,,,,,,,,,,,,,,,,,,,,,506.9246152001433,506.9344228999689,516.5848302999511,[-0.29074074074074074],[-0.412962962962963],[1],[0],[0],[9.65770239988342],['button_incorrect'],516.5852077999152,517.5884273997508,,,,,,,,,,,,,,,,,,,,,,,,,,,,,,,,3,2024-01-10_12h38.07.980,watkins1,2023.2.3,99.73351225530087,81,2024-01-10 12h38.16.861099 +0000,
(40 : 5) + 8 = 15 ,Incorrect,button_incorrect,,,,,,,,,,,,,0,5,5,7,,,,,,,,,517.5984628000297,,,,,,,,,,,,,,['button_incorrect'],[8.573984399903566],,,,,,,,,,,,,,,,,,,,,,,,,,distractorTask,3,,,,,,,,,,,,,,,,,,,,,,,,,517.588621399831,517.5984628000297,526.1645812001079,[-0.2861111111111111],[-0.387037037037037],[1],[0],[0],[8.573984399903566],['button_incorrect'],526.1649533999152,527.1680637998506,,,,,,,,,,,,,,,,,,,,,,,,,,,,,,,,3,2024-01-10_12h38.07.980,watkins1,2023.2.3,99.73351225530087,81,2024-01-10 12h38.16.861099 +0000,
(2 x 5) + 3 = 13 ,Correct,button_correct,,,,,,,,,,,,,0,6,6,2,,,,,,,,,527.1781585998833,,,,,,,,,,,,,,['button_correct'],[2.338407300412655],,,,,,,,,,,,,,,,,,,,,,,,,,distractorTask,3,,,,,,,,,,,,,,,,,,,,,,,,,527.1682536001317,527.1781585998833,529.5083690001629,[0.31851851851851853],[-0.3787037037037037],[1],[0],[0],[2.338407300412655],['button_correct'],529.5087508000433,530.512105899863,,,,,,,,,,,,,,,,,,,,,,,,,,,,,,,,3,2024-01-10_12h38.07.980,watkins1,2023.2.3,99.73351225530087,81,2024-01-10 12h38.16.861099 +0000,
(28 : 7) - 3 = 1 ,Correct,button_correct,,,,,,,,,,,,,0,7,7,0,,,,,,,,,530.5221182000823,,,,,,,,,,,,,,['button_correct'],[5.903055999893695],,,,,,,,,,,,,,,,,,,,,,,,,,distractorTask,3,,,,,,,,,,,,,,,,,,,,,,,,,530.5123005998321,530.5221182000823,536.4170681000687,[0.3861111111111111],[-0.39444444444444443],[1],[0],[0],[5.903055999893695],['button_correct'],536.417439899873,537.4207965997048,,,,,,,,,,,,,,,,,,,,,,,,,,,,,,,,3,2024-01-10_12h38.07.980,watkins1,2023.2.3,99.73351225530087,81,2024-01-10 12h38.16.861099 +0000,
(54 : 6) - 10 = 0 ,Incorrect,button_incorrect,,,,,,,,,,,,,0,8,8,5,,,,,,,,,537.4308019997552,,,,,,,,,,,,,,['button_incorrect'],[7.640138000249863],,,,,,,,,,,,,,,,,,,,,,,,,,distractorTask,3,,,,,,,,,,,,,,,,,,,,,,,,,537.4209869001061,537.4308019997552,545.0630512000062,[-0.3731481481481482],[-0.40185185185185185],[1],[0],[0],[7.640138000249863],['button_incorrect'],545.0634244000539,546.0666998000816,,,,,,,,,,,,,,,,,,,,,,,,,,,,,,,,3,2024-01-10_12h38.07.980,watkins1,2023.2.3,99.73351225530087,81,2024-01-10 12h38.16.861099 +0000,
(4 : 2) + 4 = 6 ,Correct,button_correct,,,,,,,,,,,,,0,9,9,1,,,,,,,,,546.0766746997833,,,,,,,,,,,,,,['button_correct'],[5.170130299869925],,,,,,,,,,,,,,,,,,,,,,,,,,distractorTask,3,,,,,,,,,,,,,,,,,,,,,,,,,546.0668902997859,546.0766746997833,551.23871649988,[0.41759259259259257],[-0.39351851851851855],[1],[0],[0],[5.170130299869925],['button_correct'],551.239093599841,552.2425154997036,,,,,,,,,,,,,,,,,,,,,,,,,,,,,,,,3,2024-01-10_12h38.07.980,watkins1,2023.2.3,99.73351225530087,81,2024-01-10 12h38.16.861099 +0000,
,,,,,,,,,,,,,,,,,,,,,,,,,,,,,,,,,,,,,,,,,,,,,,,,,,,,,,,,,,,,,,,,,,,,,3,,,,,,,,,,,,,,,,,,,,,,,,,,,,,,,,,,,,,,,,,,,,,,,,,,,,,,,,,,,,,,,,,,,,3,2024-01-10_12h38.07.980,watkins1,2023.2.3,99.73351225530087,81,2024-01-10 12h38.16.861099 +0000,
,,,,,,,,,,,,,,,,,,,0,0,0,0,,,,,560.234575400129,,,,,,,,,,,,,,Katze Jacke Eimer Lampe Uhr Fahrrad Telefon Geige Würfel Tasche Stift Schlüssel Schere ,[],,,,,,,,,,,,10.904727200046182,None,,,,,,,,,,,,,freeRecallSub,3,,,,,,,,,,,,,,,,,,,,,,,,,,,,,,,,,,,,,560.2258895998821,560.234575400129,560.234575400129,649.1956024998799,None,Katze Jacke Eimer Lampe Uhr Fahrrad Telefon Geige Würfel Tasche Stift Schlüssel Schere ,"[-0.6666666666666666, -0.012962962962962963, -0.4777777777777778, -0.47962962962962963, 0.09351851851851851, 0.09351851851851851, -0.6675925925925926, 0.22870370370370371]","[0.06944444444444445, 0.06388888888888888, 0.35555555555555557, 0.3388888888888889, 0.041666666666666664, 0.041666666666666664, 0.07592592592592592, -0.4148148148148148]","[1, 1, 1, 1, 1, 1, 1, 1]","[0, 0, 0, 0, 0, 0, 0, 0]","[0, 0, 0, 0, 0, 0, 0, 0]","[2.2179339001886547, 3.0614235000684857, 4.547467899974436, 4.989302100148052, 7.881613300181925, 8.413690600078553, 9.056488499976695, 88.96921860007569]",['button_continue'],,,,,,,,,,,,,,,,,,,3,2024-01-10_12h38.07.980,watkins1,2023.2.3,99.73351225530087,81,2024-01-10 12h38.16.861099 +0000,
,,,,,,,,,,,,,,,,,,,,,,,,,,,,,,,,,,,,,,,,,,,,,,,,,,,,,,,,,,,,,,,,,,,,,3,,,,,,,,,,,,,,,,,,,,,,,,,,,,,,,,,,,,,,,,,,,,,,,,,,,,,,,,,,,,,,,,,,,,3,2024-01-10_12h38.07.980,watkins1,2023.2.3,99.73351225530087,81,2024-01-10 12h38.16.861099 +0000,
,,,,,,,,,,,,,,,,,,,,,,,0,0,0,0,656.2373705999926,,,,,,,,,,660.086450799834,660.5853025000542,,,,3.840621199924499,,,,,,,,,,,,None,None,,,,,,,,,,Uhr,,,cuedRecallAdj,3,,,,,,,,,,,,,,,,,,,,,,,,0,,,,,,,,,,,,,,,,,,,,,,,,,,656.2283346997574,656.2373705999926,656.2373705999926,660.0835802997462,hohl,return,3.840621199924499,None,660.083960799966,660.0932057998143,660.0932057998143,660.0863030999899,,None,,,,,3,2024-01-10_12h38.07.980,watkins1,2023.2.3,99.73351225530087,81,2024-01-10 12h38.16.861099 +0000,
,,,,,,,,,,,,,,,,,,,,,,,1,0,1,0,660.5952443997376,,,,,,,,,,669.8671459998004,670.3654134999961,,,,9.266797500196844,,,,,,,,,,,,None,None,,,,,,,,,,Hammer,,,cuedRecallAdj,3,,,,,,,,,,,,,,,,,,,,,,,,0,,,,,,,,,,,,,,,,,,,,,,,,,,660.5855481000617,660.5952443997376,660.5952443997376,669.8637262000702,dunkel schwarz,return,9.266797500196844,None,669.8639925997704,669.8733009998687,669.8733009998687,669.8670353000052,,None,,,,,3,2024-01-10_12h38.07.980,watkins1,2023.2.3,99.73351225530087,81,2024-01-10 12h38.16.861099 +0000,
,,,,,,,,,,,,,,,,,,,,,,,2,0,2,0,670.3754083998501,,,,,,,,,,672.4977162000723,672.9964168998413,,,,2.118651400320232,,,,,,,,,,,,None,None,,,,,,,,,,Jacke,,,cuedRecallAdj,3,,,,,,,,,,,,,,,,,,,,,,,,0,,,,,,,,,,,,,,,,,,,,,,,,,,670.3656600001268,670.3754083998501,670.3754083998501,672.494841599837,breit,return,2.118651400320232,None,672.4950977000408,672.504362499807,672.504362499807,672.4976169001311,,None,,,,,3,2024-01-10_12h38.07.980,watkins1,2023.2.3,99.73351225530087,81,2024-01-10 12h38.16.861099 +0000,
,,,,,,,,,,,,,,,,,,,,,,,3,0,3,0,673.0063407998532,,,,,,,,,,677.9908354999498,678.4893922000192,,,,4.975660300347954,,,,,,,,,,,,None,None,,,,,,,,,,Flasche,,,cuedRecallAdj,3,,,,,,,,,,,,,,,,,,,,,,,,0,,,,,,,,,,,,,,,,,,,,,,,,,,672.9966651997529,673.0063407998532,673.0063407998532,677.9877681997605,niedlich,return,4.975660300347954,None,677.9880335000344,677.9973427997902,677.9973427997902,677.990734799765,,None,,,,,3,2024-01-10_12h38.07.980,watkins1,2023.2.3,99.73351225530087,81,2024-01-10 12h38.16.861099 +0000,
,,,,,,,,,,,,,,,,,,,,,,,4,0,4,0,678.4993436001241,,,,,,,,,,687.6098829000257,688.099247300066,,,,9.098571700043976,,,,,,,,,,,,None,None,,,,,,,,,,Telefon,,,cuedRecallAdj,3,,,,,,,,,,,,,,,,,,,,,,,,0,,,,,,,,,,,,,,,,,,,,,,,,,,678.4896295000799,678.4993436001241,678.4993436001241,687.6076354999095,,return,9.098571700043976,None,687.6078983996995,687.6173787997104,687.6173787997104,687.6097820997238,,None,,,,,3,2024-01-10_12h38.07.980,watkins1,2023.2.3,99.73351225530087,81,2024-01-10 12h38.16.861099 +0000,
,,,,,,,,,,,,,,,,,,,,,,,5,0,5,0,688.1091724000871,,,,,,,,,,691.3868884998374,691.885416300036,,,,3.272821699734777,,,,,,,,,,,,None,None,,,,,,,,,,Tasse,,,cuedRecallAdj,3,,,,,,,,,,,,,,,,,,,,,,,,0,,,,,,,,,,,,,,,,,,,,,,,,,,688.0994981001131,688.1091724000871,688.1091724000871,691.3837621998973,flach,return,3.272821699734777,None,691.3840453000739,691.3932821000926,691.3932821000926,691.3867862997577,,None,,,,,3,2024-01-10_12h38.07.980,watkins1,2023.2.3,99.73351225530087,81,2024-01-10 12h38.16.861099 +0000,
,,,,,,,,,,,,,,,,,,,,,,,6,0,6,0,691.8953609997407,,,,,,,,,,695.6742369998246,696.1729381000623,,,,3.7666347003541887,,,,,,,,,,,,None,None,,,,,,,,,,Blume,,,cuedRecallAdj,3,,,,,,,,,,,,,,,,,,,,,,,,0,,,,,,,,,,,,,,,,,,,,,,,,,,691.8856663997285,691.8953609997407,691.8953609997407,695.6713286000304,robust,return,3.7666347003541887,None,695.671588299796,695.6810224000365,695.6810224000365,695.6741364998743,,None,,,,,3,2024-01-10_12h38.07.980,watkins1,2023.2.3,99.73351225530087,81,2024-01-10 12h38.16.861099 +0000,
,,,,,,,,,,,,,,,,,,,,,,,7,0,7,0,696.1828840998933,,,,,,,,,,698.6067878999747,699.1054295999929,,,,2.415080999955535,,,,,,,,,,,,None,None,,,,,,,,,,Lampe,,,cuedRecallAdj,3,,,,,,,,,,,,,,,,,,,,,,,,0,,,,,,,,,,,,,,,,,,,,,,,,,,696.1731837997213,696.1828840998933,696.1828840998933,698.6036946000531,schwer,return,2.415080999955535,None,698.6039509000257,698.6132633998059,698.6132633998059,698.6066890000366,,None,,,,,3,2024-01-10_12h38.07.980,watkins1,2023.2.3,99.73351225530087,81,2024-01-10 12h38.16.861099 +0000,
,,,,,,,,,,,,,,,,,,,,,,,8,0,8,0,699.1153731001541,,,,,,,,,,701.4588624997996,701.9573840000667,,,,2.3386264997534454,,,,,,,,,,,,None,None,,,,,,,,,,Trommel,,,cuedRecallAdj,3,,,,,,,,,,,,,,,,,,,,,,,,0,,,,,,,,,,,,,,,,,,,,,,,,,,699.1056733001024,699.1153731001541,699.1153731001541,701.4557427000254,kaputt,return,2.3386264997534454,None,701.4560245997272,701.4653473999351,701.4653473999351,701.4587624999695,,None,,,,,3,2024-01-10_12h38.07.980,watkins1,2023.2.3,99.73351225530087,81,2024-01-10 12h38.16.861099 +0000,
,,,,,,,,,,,,,,,,,,,,,,,9,0,9,0,701.9673498999327,,,,,,,,,,705.4250138001516,705.9241292998195,,,,3.4465737999416888,,,,,,,,,,,,None,None,,,,,,,,,,Vase,,,cuedRecallAdj,3,,,,,,,,,,,,,,,,,,,,,,,,0,,,,,,,,,,,,,,,,,,,,,,,,,,701.9576297998428,701.9673498999327,701.9673498999327,705.4221783997491,kratzig,return,3.4465737999416888,None,705.4224355998449,705.4319674000144,705.4319674000144,705.424914599862,,None,,,,,3,2024-01-10_12h38.07.980,watkins1,2023.2.3,99.73351225530087,81,2024-01-10 12h38.16.861099 +0000,
,,,,,,,,,,,,,,,,,,,,,,,10,0,10,0,705.9340510000475,,,,,,,,,,709.010357900057,709.5089370999485,,,,3.0719389002770185,,,,,,,,,,,,None,None,,,,,,,,,,Tasche,,,cuedRecallAdj,3,,,,,,,,,,,,,,,,,,,,,,,,0,,,,,,,,,,,,,,,,,,,,,,,,,,705.9243728998117,705.9340510000475,705.9340510000475,709.0073315999471,zart,return,3.0719389002770185,None,709.0076143997721,709.0168739999644,709.0168739999644,709.0102490000427,,None,,,,,3,2024-01-10_12h38.07.980,watkins1,2023.2.3,99.73351225530087,81,2024-01-10 12h38.16.861099 +0000,
,,,,,,,,,,,,,,,,,,,,,,,11,0,11,0,709.5189915997908,,,,,,,,,,712.2837538998574,712.7825234998018,,,,2.759021600242704,,,,,,,,,,,,None,None,,,,,,,,,,Geige,,,cuedRecallAdj,3,,,,,,,,,,,,,,,,,,,,,,,,0,,,,,,,,,,,,,,,,,,,,,,,,,,709.5091797998175,709.5189915997908,709.5189915997908,712.280741199851,hässlich,return,2.759021600242704,None,712.2810110999271,712.2902798997238,712.2902798997238,712.2836531000212,,None,,,,,3,2024-01-10_12h38.07.980,watkins1,2023.2.3,99.73351225530087,81,2024-01-10 12h38.16.861099 +0000,
,,,,,,,,,,,,,,,,,,,,,,,12,0,12,0,712.7924194000661,,,,,,,,,,715.0554105998017,715.554005399812,,,,2.253497799858451,,,,,,,,,,,,None,None,,,,,,,,,,Bürste,,,cuedRecallAdj,3,,,,,,,,,,,,,,,,,,,,,,,,0,,,,,,,,,,,,,,,,,,,,,,,,,,712.7827809997834,712.7924194000661,712.7924194000661,715.0522524998523,nass,return,2.253497799858451,None,715.0525163998827,715.0618298999034,715.0618298999034,715.0553080998361,,None,,,,,3,2024-01-10_12h38.07.980,watkins1,2023.2.3,99.73351225530087,81,2024-01-10 12h38.16.861099 +0000,
,,,,,,,,,,,,,,,,,,,,,,,13,0,13,0,715.5639522001147,,,,,,,,,,718.5297175999731,719.0282406997867,,,,2.954034799709916,,,,,,,,,,,,None,None,,,,,,,,,,Brille,,,cuedRecallAdj,3,,,,,,,,,,,,,,,,,,,,,,,,0,,,,,,,,,,,,,,,,,,,,,,,,,,715.5542480000295,715.5639522001147,715.5639522001147,718.5266702999361,glänzend,return,2.954034799709916,None,718.5269327000715,718.5363382999785,718.5363382999785,718.5296172001399,,None,,,,,3,2024-01-10_12h38.07.980,watkins1,2023.2.3,99.73351225530087,81,2024-01-10 12h38.16.861099 +0000,
,,,,,,,,,,,,,,,,,,,,,,,14,0,14,0,719.0382412998006,,,,,,,,,,731.23140290007,731.7210702998564,,,,12.1837631999515,,,,,,,,,,,,None,None,,,,,,,,,,Socke,,,cuedRecallAdj,3,,,,,,,,,,,,,,,,,,,,,,,,0,,,,,,,,,,,,,,,,,,,,,,,,,,719.0284819998778,719.0382412998006,719.0382412998006,731.2291728998534,,return,12.1837631999515,None,731.2294370997697,731.2387043000199,731.2387043000199,731.2313021998852,,None,,,,,3,2024-01-10_12h38.07.980,watkins1,2023.2.3,99.73351225530087,81,2024-01-10 12h38.16.861099 +0000,
,,,,,,,,,,,,,,,,,,,,,,,15,0,15,0,731.7310206997208,,,,,,,,,,734.5858864998445,735.0751094999723,,,,2.8429951001890004,,,,,,,,,,,,None,None,,,,,,,,,,Hut,,,cuedRecallAdj,3,,,,,,,,,,,,,,,,,,,,,,,,0,,,,,,,,,,,,,,,,,,,,,,,,,,731.7213201001287,731.7310206997208,731.7310206997208,734.5832237997092,groß,return,2.8429951001890004,None,734.5834850999527,734.5929979998618,734.5929979998618,734.5857855998911,,None,,,,,3,2024-01-10_12h38.07.980,watkins1,2023.2.3,99.73351225530087,81,2024-01-10 12h38.16.861099 +0000,
,,,,,,,,,,,,,,,,,,,,,,,16,0,16,0,735.085061899852,,,,,,,,,,739.6374738998711,740.1361712999642,,,,4.544959400314838,,,,,,,,,,,,None,None,,,,,,,,,,Buch,,,cuedRecallAdj,3,,,,,,,,,,,,,,,,,,,,,,,,0,,,,,,,,,,,,,,,,,,,,,,,,,,735.0753509998322,735.085061899852,735.085061899852,739.6344836000353,teuer,return,4.544959400314838,None,739.634745599702,739.6440600999631,739.6440600999631,739.6373733999208,,None,,,,,3,2024-01-10_12h38.07.980,watkins1,2023.2.3,99.73351225530087,81,2024-01-10 12h38.16.861099 +0000,
,,,,,,,,,,,,,,,,,,,,,,,17,0,17,0,740.1461101998575,,,,,,,,,,742.1678702998906,742.6666382998228,,,,2.0118065997958183,,,,,,,,,,,,None,None,,,,,,,,,,Kamera,,,cuedRecallAdj,3,,,,,,,,,,,,,,,,,,,,,,,,0,,,,,,,,,,,,,,,,,,,,,,,,,,740.1364107001573,740.1461101998575,740.1461101998575,742.1649005999789,glatt,return,2.0118065997958183,None,742.1651689000428,742.174509299919,742.174509299919,742.1677687996998,,None,,,,,3,2024-01-10_12h38.07.980,watkins1,2023.2.3,99.73351225530087,81,2024-01-10 12h38.16.861099 +0000,
,,,,,,,,,,,,,,,,,,,,,,,18,0,18,0,742.6765823001042,,,,,,,,,,755.0509135001339,755.5402269000188,,,,12.36936999997124,,,,,,,,,,,,None,None,,,,,,,,,,Fahrrad,,,cuedRecallAdj,3,,,,,,,,,,,,,,,,,,,,,,,,0,,,,,,,,,,,,,,,,,,,,,,,,,,742.6668885997497,742.6765823001042,742.6765823001042,755.048620400019,,return,12.36936999997124,None,755.0488860998303,755.0581690999679,755.0581690999679,755.0508118998259,,None,,,,,3,2024-01-10_12h38.07.980,watkins1,2023.2.3,99.73351225530087,81,2024-01-10 12h38.16.861099 +0000,
,,,,,,,,,,,,,,,,,,,,,,,19,0,19,0,755.5501842997037,,,,,,,,,,758.2245970000513,758.7230766001157,,,,2.6638504997827113,,,,,,,,,,,,None,None,,,,,,,,,,Rucksack,,,cuedRecallAdj,3,,,,,,,,,,,,,,,,,,,,,,,,0,,,,,,,,,,,,,,,,,,,,,,,,,,755.5404749000445,755.5501842997037,755.5501842997037,758.2213654997759,matt,return,2.6638504997827113,None,758.2216467997059,758.2310736998916,758.2310736998916,758.224489599932,,None,,,,,3,2024-01-10_12h38.07.980,watkins1,2023.2.3,99.73351225530087,81,2024-01-10 12h38.16.861099 +0000,
,,,,,,,,,,,,,,,,,,,,,,,20,0,20,0,758.7330776997842,,,,,,,,,,763.586595099885,764.0854266998358,,,,4.84095670003444,,,,,,,,,,,,None,None,,,,,,,,,,Schere,,,cuedRecallAdj,3,,,,,,,,,,,,,,,,,,,,,,,,0,,,,,,,,,,,,,,,,,,,,,,,,,,758.7233175998554,758.7330776997842,758.7330776997842,763.5836082999595,hübsch,return,4.84095670003444,None,763.5838692998514,763.5934135997668,763.5934135997668,763.5864923000336,,None,,,,,3,2024-01-10_12h38.07.980,watkins1,2023.2.3,99.73351225530087,81,2024-01-10 12h38.16.861099 +0000,
,,,,,,,,,,,,,,,,,,,,,,,21,0,21,0,764.0954740997404,,,,,,,,,,767.1216543000191,767.6201053997502,,,,3.022712199948728,,,,,,,,,,,,None,None,,,,,,,,,,Würfel,,,cuedRecallAdj,3,,,,,,,,,,,,,,,,,,,,,,,,0,,,,,,,,,,,,,,,,,,,,,,,,,,764.0856737997383,764.0954740997404,764.0954740997404,767.1185604999773,schmutzig,return,3.022712199948728,None,767.1188424997963,767.1279730000533,767.1279730000533,767.1215526000597,,None,,,,,3,2024-01-10_12h38.07.980,watkins1,2023.2.3,99.73351225530087,81,2024-01-10 12h38.16.861099 +0000,
,,,,,,,,,,,,,,,,,,,,,,,22,0,22,0,767.6300512999296,,,,,,,,,,772.8455310999416,773.3440090999939,,,,5.208118199836463,,,,,,,,,,,,None,None,,,,,,,,,,Eimer,,,cuedRecallAdj,3,,,,,,,,,,,,,,,,,,,,,,,,0,,,,,,,,,,,,,,,,,,,,,,,,,,767.6203445000574,767.6300512999296,767.6300512999296,772.8424945999868,rustikal,return,5.208118199836463,None,772.8427606998011,772.8520030998625,772.8520030998625,772.8454299997538,,None,,,,,3,2024-01-10_12h38.07.980,watkins1,2023.2.3,99.73351225530087,81,2024-01-10 12h38.16.861099 +0000,
,,,,,,,,,,,,,,,,,,,,,,,23,0,23,0,773.3540551997721,,,,,,,,,,776.5504006999545,777.0492543997243,,,,3.187993799801916,,,,,,,,,,,,None,None,,,,,,,,,,Stift,,,cuedRecallAdj,3,,,,,,,,,,,,,,,,,,,,,,,,0,,,,,,,,,,,,,,,,,,,,,,,,,,773.3442492997274,773.3540551997721,773.3540551997721,776.5476119997911,kurz,return,3.187993799801916,None,776.547868099995,776.5571814998984,776.5571814998984,776.5503023001365,,None,,,,,3,2024-01-10_12h38.07.980,watkins1,2023.2.3,99.73351225530087,81,2024-01-10 12h38.16.861099 +0000,
,,,,,,,,,,,,,,,,,,,,,,,24,0,24,0,777.0591986998916,,,,,,,,,,781.5617006998509,782.0600477000698,,,,4.498863399960101,,,,,,,,,,,,None,None,,,,,,,,,,Schlüssel,,,cuedRecallAdj,3,,,,,,,,,,,,,,,,,,,,,,,,0,,,,,,,,,,,,,,,,,,,,,,,,,,777.0494977999479,777.0591986998916,777.0591986998916,781.5584661997855,lustig,return,4.498863399960101,None,781.5587229998782,781.5678753997199,781.5678753997199,781.5616015000269,,None,,,,,3,2024-01-10_12h38.07.980,watkins1,2023.2.3,99.73351225530087,81,2024-01-10 12h38.16.861099 +0000,
,,,,,,,,,,,,,,,,,,,,,,,25,0,25,0,782.0700015998445,,,,,,,,,,784.0009361999109,784.4999792999588,,,,1.9200142999179661,,,,,,,,,,,,None,None,,,,,,,,,,Ring,,,cuedRecallAdj,3,,,,,,,,,,,,,,,,,,,,,,,,0,,,,,,,,,,,,,,,,,,,,,,,,,,782.060290100053,782.0700015998445,782.0700015998445,783.9982202998362,bunt,return,1.9200142999179661,None,783.9984828000888,784.0080010001548,784.0080010001548,784.0008358000778,,None,,,,,3,2024-01-10_12h38.07.980,watkins1,2023.2.3,99.73351225530087,81,2024-01-10 12h38.16.861099 +0000,
,,,,,,,,,,,,,,,,,,,,,,,26,0,26,0,784.5099748997018,,,,,,,,,,789.0824123998173,789.5808834997006,,,,4.560055600013584,,,,,,,,,,,,None,None,,,,,,,,,,Kerze,,,cuedRecallAdj,3,,,,,,,,,,,,,,,,,,,,,,,,0,,,,,,,,,,,,,,,,,,,,,,,,,,784.5002183001488,784.5099748997018,784.5099748997018,789.0791640998796,nachhaltig,return,4.560055600013584,None,789.0794278001413,789.0888833999634,789.0888833999634,789.0823113000952,,None,,,,,3,2024-01-10_12h38.07.980,watkins1,2023.2.3,99.73351225530087,81,2024-01-10 12h38.16.861099 +0000,
,,,,,,,,,,,,,,,,,,,,,,,27,0,27,0,789.5907920999452,,,,,,,,,,797.9284735997207,798.4177141999826,,,,8.327224399894476,,,,,,,,,,,,None,None,,,,,,,,,,Löffel,,,cuedRecallAdj,3,,,,,,,,,,,,,,,,,,,,,,,,0,,,,,,,,,,,,,,,,,,,,,,,,,,789.5811234000139,789.5907920999452,789.5907920999452,797.9260073998012,,return,8.327224399894476,None,797.9262807997875,797.9357825997286,797.9357825997286,797.928369499743,,None,,,,,3,2024-01-10_12h38.07.980,watkins1,2023.2.3,99.73351225530087,81,2024-01-10 12h38.16.861099 +0000,
,,,,,,,,,,,,,,,,,,,,,,,28,0,28,0,798.4277682998218,,,,,,,,,,803.0504314997233,803.5489598000422,,,,4.6182107999920845,,,,,,,,,,,,None,None,,,,,,,,,,Kette,,,cuedRecallAdj,3,,,,,,,,,,,,,,,,,,,,,,,,0,,,,,,,,,,,,,,,,,,,,,,,,,,798.41795359971,798.4277682998218,798.4277682998218,803.0474511999637,funkelnd,return,4.6182107999920845,None,803.0477177998982,803.0570780998096,803.0570780998096,803.0503299999982,,None,,,,,3,2024-01-10_12h38.07.980,watkins1,2023.2.3,99.73351225530087,81,2024-01-10 12h38.16.861099 +0000,
,,,,,,,,,,,,,,,,,,,,,,,29,0,29,0,803.5588985998183,,,,,,,,,,815.1705248998478,815.6691879997961,,,,11.599046899937093,,,,,,,,,,,,None,None,,,,,,,,,,Kiste,,,cuedRecallAdj,3,,,,,,,,,,,,,,,,,,,,,,,,0,,,,,,,,,,,,,,,,,,,,,,,,,,803.5492067998275,803.5588985998183,803.5588985998183,815.1674349997193,hübsch,return,11.599046899937093,None,815.1676921998151,815.1771208001301,815.1771208001301,815.1704257000238,,None,,,,,3,2024-01-10_12h38.07.980,watkins1,2023.2.3,99.73351225530087,81,2024-01-10 12h38.16.861099 +0000,
,,,,,,,,,,,,,,,,,,,,,,,,,,,,,,,,,,,,,,,,,,,,,,,,,,,,,,,,,,,,,,,,,,,,,3,,,,,,,,,,,,,,,,,,,,,,,,,,,,,,,,,,,,,,,,,,,,,,,,,,,,,,,,,,,,,,,,815.6865757000633,q,2845.824120500125,None,3,2024-01-10_12h38.07.980,watkins1,2023.2.3,99.73351225530087,81,2024-01-10 12h38.16.861099 +0000,
