Equation,CorrectResponse,Correctbutton,trials_7.thisRepN,trials_7.thisTrialN,trials_7.thisN,trials_7.thisIndex,trials.thisRepN,trials.thisTrialN,trials.thisN,trials.thisIndex,trials_3.thisRepN,trials_3.thisTrialN,trials_3.thisN,trials_3.thisIndex,trials_2.thisRepN,trials_2.thisTrialN,trials_2.thisN,trials_2.thisIndex,trials_4.thisRepN,trials_4.thisTrialN,trials_4.thisN,trials_4.thisIndex,trials_5.thisRepN,trials_5.thisTrialN,trials_5.thisN,trials_5.thisIndex,thisRow.t,notes,list_sub_restudy,list_sub_testsub,code_marius.started,code_marius.stopped,welcome.started,welcome.stopped,instruction_study.started,instruction_study.stopped,fixationcross.started,fixationcross.stopped,blanc.started,blanc.stopped,study_control_probe.started,study_control_probe.stopped,responseKey,responseTime,scale_answer_2.keys,study_control_probe_2.started,study_control_probe_2.stopped,scale_answer_3.keys,scale_answer_3.rt,scale_answer_3.duration,blanc_2.started,blanc_2.stopped,test_attr_probe.started,test_attr_probe.stopped,recalled_attr,firstKeyTime,secondWordTime,blanc_3.started,blanc_3.stopped,test_sub_probe.started,test_sub_probe.stopped,recalled_sub,instruction_probe_end.started,instruction_probe_end.stopped,study.started,study.stopped,substantive,adjective,wordpair,task,condition,liste_sub_phase1,liste_adj_phase1,scale_answer.keys,scale_answer.rt,scale_answer.duration,code_defineWordsInit.started,code_defineWordsInit.stopped,liste_sub_phase2,study_control.started,study_control.stopped,scale_answer_4.keys,restudy_same.started,restudy_same.stopped,scale_answer_5.keys,restudy_different.started,restudy_different.stopped,scale_answer_6.keys,test_attr.started,test_attr.stopped,test_sub.started,correct,test_sub.stopped,scale_answer_5.rt,scale_answer_5.duration,distractortask.started,equation_text.started,distractortask.stopped,mouse_answer.x,mouse_answer.y,mouse_answer.leftButton,mouse_answer.midButton,mouse_answer.rightButton,mouse_answer.time,mouse_answer.clicked_name,feedback_distractortask.started,feedback_distractortask.stopped,free_recall.started,text_enter.started,key_resp.started,free_recall.stopped,key_resp.keys,key_resp.rt,key_resp.duration,free_recalled_sub,mouse_continue.x,mouse_continue.y,mouse_continue.leftButton,mouse_continue.midButton,mouse_continue.rightButton,mouse_continue.time,mouse_continue.clicked_name,cued_recall.started,text_enter_2.started,key_continue.started,cued_recall.stopped,recalled_attr1,key_continue.keys,key_continue.rt,key_continue.duration,cued_recall_2.started,text_enter_3.started,key_continue_2.started,cued_recall_2.stopped,recalled_attr2,key_continue_2.keys,key_resp_8.started,key_resp_8.keys,key_resp_8.rt,key_resp_8.duration,condition,date,expName,psychopyVersion,frameRate,participant,expStart,
,,,,,,,,,,,,,,,,,,,,,,,,,,,,,"['Lampe', 'Schlüssel', 'Trommel', 'Würfel', 'Hut', 'Kerze', 'Vase', 'Socke', 'Ring', 'Fahrrad', 'Blume', 'Tasche', 'Jacke', 'Rucksack', 'Löffel']","['Uhr', 'Hammer', 'Stift', 'Flasche', 'Kette', 'Kiste', 'Eimer', 'Tasse', 'Geige', 'Bürste', 'Schere', 'Brille', 'Telefon', 'Kamera', 'Buch']",0.12409170001046732,0.1241685000131838,0.12417670001741499,179.76796060003107,,,,,,,,,,,,,,,,,,,,,,,,,,,,,,,,,,,,,2,,,,,,,,,,,,,,,,,,,,,,,,,,,,,,,,,,,,,,,,,,,,,,,,,,,,,,,,,,,,,,,,,,,,,,2,2023-12-18_09h28.02.639,watkins1,2023.2.3,99.65459716964253,67,2023-12-18 09h28.14.294568 +0000,
,,,,,,,,,,,,,,,,,,,,,,,,,,,,,,,,,,,179.7680136000272,217.19924300001003,,,,,,,,,,,,,,,,,,,,,,,,,,,,,,,,,,,2,,,,,,,,,,,,,,,,,,,,,,,,,,,,,,,,,,,,,,,,,,,,,,,,,,,,,,,,,,,,,,,,,,,,,,2,2023-12-18_09h28.02.639,watkins1,2023.2.3,99.65459716964253,67,2023-12-18 09h28.14.294568 +0000,
,,,0,0,0,0,,,,,,,,,,,,,,,,,,,,,218.2131263000192,,,,,,,,,,217.19925960002,218.20318390004104,224.69966500002192,225.19095720001496,218.69520140002714,224.69947810005397,3,4.9636084999656305,None,225.19096910004737,231.19457160000456,3,4.9636084999656305,None,231.19487130001653,231.19489580002846,231.19490290002432,231.1949834000552,,2.289161399996374,5.736702500027604,231.19515230000252,231.6860403000028,231.68605170003138,237.69383950001793,capslockhcapslo,,,,,,,,,2,,,,,,,,,,,,,,,,,,,,,,,,,,,,,,,,,,,,,,,,,,,,,,,,,,,,,,,,,,,,,,,,,,,,,,2,2023-12-18_09h28.02.639,watkins1,2023.2.3,99.65459716964253,67,2023-12-18 09h28.14.294568 +0000,
,,,,,,,,,,,,,,,,,,,,,,,,,,,,,,,,,,,,,,,,,,,,,,,,,,,,,,,,,,,,,,,237.6940072000143,242.8688348000287,,,,,,,2,,,,,,,,,,,,,,,,,,,,,,,,,,,,,,,,,,,,,,,,,,,,,,,,,,,,,,,,,,,,,,,,,,,,,,2,2023-12-18_09h28.02.639,watkins1,2023.2.3,99.65459716964253,67,2023-12-18 09h28.14.294568 +0000,
,,,,,,,0,0,0,0,,,,,,,,,,,,,,,,,243.88232600002084,,,,,,,,,,242.86885379999876,243.87233969999943,243.87282470002538,244.36429180001142,,,1,2.2263549999915995,,,,,,,,,,,,,,,,,,,,,244.36430240003392,250.36711330001708,Stift,kaputt,"['Stift', 'kaputt']",test_sub,2,"['Stift', 'Trommel', 'Lampe', 'Rucksack', 'Brille', 'Socke', 'Hammer', 'Fahrrad', 'Jacke', 'Tasse', 'Tasche', 'Eimer', 'Hut', 'Würfel', 'Kerze', 'Blume', 'Löffel', 'Flasche', 'Kette', 'Buch', 'Bürste', 'Ring', 'Schere', 'Kamera', 'Vase', 'Schlüssel', 'Kiste', 'Telefon', 'Uhr', 'Geige']",['kaputt'],1,2.2263549999915995,None,,,,,,,,,,,,,,,,,,,,,,,,,,,,,,,,,,,,,,,,,,,,,,,,,,,,,,,,,,,,,,,,,2,2023-12-18_09h28.02.639,watkins1,2023.2.3,99.65459716964253,67,2023-12-18 09h28.14.294568 +0000,
,,,,,,,1,0,1,0,,,,,,,,,,,,,,,,,250.3764719000319,,,,,,,,,,,,250.36779520002892,250.85880929999985,,,1,3.052635799976997,,,,,,,,,,,,,,,,,,,,,250.85882020002464,256.8675388000556,Trommel,kurz,"['Trommel', 'kurz']",restudy,2,"['Stift', 'Trommel', 'Lampe', 'Rucksack', 'Brille', 'Socke', 'Hammer', 'Fahrrad', 'Jacke', 'Tasse', 'Tasche', 'Eimer', 'Hut', 'Würfel', 'Kerze', 'Blume', 'Löffel', 'Flasche', 'Kette', 'Buch', 'Bürste', 'Ring', 'Schere', 'Kamera', 'Vase', 'Schlüssel', 'Kiste', 'Telefon', 'Uhr', 'Geige']","['kaputt', 'kurz']",1,3.052635799976997,None,,,,,,,,,,,,,,,,,,,,,,,,,,,,,,,,,,,,,,,,,,,,,,,,,,,,,,,,,,,,,,,,,2,2023-12-18_09h28.02.639,watkins1,2023.2.3,99.65459716964253,67,2023-12-18 09h28.14.294568 +0000,
,,,,,,,2,0,2,0,,,,,,,,,,,,,,,,,256.8768926000339,,,,,,,,,,,,256.86809270002414,257.35906780004734,,,2,2.7602196999941953,,,,,,,,,,,,,,,,,,,,,257.35907860001316,263.36683550005546,Lampe,breit,"['Lampe', 'breit']",restudy,2,"['Stift', 'Trommel', 'Lampe', 'Rucksack', 'Brille', 'Socke', 'Hammer', 'Fahrrad', 'Jacke', 'Tasse', 'Tasche', 'Eimer', 'Hut', 'Würfel', 'Kerze', 'Blume', 'Löffel', 'Flasche', 'Kette', 'Buch', 'Bürste', 'Ring', 'Schere', 'Kamera', 'Vase', 'Schlüssel', 'Kiste', 'Telefon', 'Uhr', 'Geige']","['kaputt', 'kurz', 'breit']",2,2.7602196999941953,None,,,,,,,,,,,,,,,,,,,,,,,,,,,,,,,,,,,,,,,,,,,,,,,,,,,,,,,,,,,,,,,,,2,2023-12-18_09h28.02.639,watkins1,2023.2.3,99.65459716964253,67,2023-12-18 09h28.14.294568 +0000,
,,,,,,,3,0,3,0,,,,,,,,,,,,,,,,,263.37626400002046,,,,,,,,,,,,263.3673803000129,263.85821420000866,,,3,3.141173299984075,,,,,,,,,,,,,,,,,,,,,263.85822480003117,269.86188560002483,Rucksack,neu,"['Rucksack', 'neu']",restudy,2,"['Stift', 'Trommel', 'Lampe', 'Rucksack', 'Brille', 'Socke', 'Hammer', 'Fahrrad', 'Jacke', 'Tasse', 'Tasche', 'Eimer', 'Hut', 'Würfel', 'Kerze', 'Blume', 'Löffel', 'Flasche', 'Kette', 'Buch', 'Bürste', 'Ring', 'Schere', 'Kamera', 'Vase', 'Schlüssel', 'Kiste', 'Telefon', 'Uhr', 'Geige']","['kaputt', 'kurz', 'breit', 'neu']",3,3.141173299984075,None,,,,,,,,,,,,,,,,,,,,,,,,,,,,,,,,,,,,,,,,,,,,,,,,,,,,,,,,,,,,,,,,,2,2023-12-18_09h28.02.639,watkins1,2023.2.3,99.65459716964253,67,2023-12-18 09h28.14.294568 +0000,
,,,,,,,4,0,4,0,,,,,,,,,,,,,,,,,269.8712951000198,,,,,,,,,,,,269.86243670003023,270.35336910001934,,,1,2.1823454999830574,,,,,,,,,,,,,,,,,,,,,270.35339130001375,276.3612097000005,Brille,kratzig,"['Brille', 'kratzig']",test_sub,2,"['Stift', 'Trommel', 'Lampe', 'Rucksack', 'Brille', 'Socke', 'Hammer', 'Fahrrad', 'Jacke', 'Tasse', 'Tasche', 'Eimer', 'Hut', 'Würfel', 'Kerze', 'Blume', 'Löffel', 'Flasche', 'Kette', 'Buch', 'Bürste', 'Ring', 'Schere', 'Kamera', 'Vase', 'Schlüssel', 'Kiste', 'Telefon', 'Uhr', 'Geige']","['kaputt', 'kurz', 'breit', 'neu', 'kratzig']",1,2.1823454999830574,None,,,,,,,,,,,,,,,,,,,,,,,,,,,,,,,,,,,,,,,,,,,,,,,,,,,,,,,,,,,,,,,,,2,2023-12-18_09h28.02.639,watkins1,2023.2.3,99.65459716964253,67,2023-12-18 09h28.14.294568 +0000,
,,,,,,,5,0,5,0,,,,,,,,,,,,,,,,,276.37059450004017,,,,,,,,,,,,276.36176340002567,276.8528517000377,,,2,1.7548449999885634,,,,,,,,,,,,,,,,,,,,,276.85286270000506,282.8567249000189,Socke,hässlich,"['Socke', 'hässlich']",restudy,2,"['Stift', 'Trommel', 'Lampe', 'Rucksack', 'Brille', 'Socke', 'Hammer', 'Fahrrad', 'Jacke', 'Tasse', 'Tasche', 'Eimer', 'Hut', 'Würfel', 'Kerze', 'Blume', 'Löffel', 'Flasche', 'Kette', 'Buch', 'Bürste', 'Ring', 'Schere', 'Kamera', 'Vase', 'Schlüssel', 'Kiste', 'Telefon', 'Uhr', 'Geige']","['kaputt', 'kurz', 'breit', 'neu', 'kratzig', 'hässlich']",2,1.7548449999885634,None,,,,,,,,,,,,,,,,,,,,,,,,,,,,,,,,,,,,,,,,,,,,,,,,,,,,,,,,,,,,,,,,,2,2023-12-18_09h28.02.639,watkins1,2023.2.3,99.65459716964253,67,2023-12-18 09h28.14.294568 +0000,
,,,,,,,6,0,6,0,,,,,,,,,,,,,,,,,282.8661159000476,,,,,,,,,,,,282.8572783000418,283.34813190001296,,,1,2.0356843999470584,,,,,,,,,,,,,,,,,,,,,283.3481430000393,289.35775060002925,Hammer,glänzend,"['Hammer', 'glänzend']",test_sub,2,"['Stift', 'Trommel', 'Lampe', 'Rucksack', 'Brille', 'Socke', 'Hammer', 'Fahrrad', 'Jacke', 'Tasse', 'Tasche', 'Eimer', 'Hut', 'Würfel', 'Kerze', 'Blume', 'Löffel', 'Flasche', 'Kette', 'Buch', 'Bürste', 'Ring', 'Schere', 'Kamera', 'Vase', 'Schlüssel', 'Kiste', 'Telefon', 'Uhr', 'Geige']","['kaputt', 'kurz', 'breit', 'neu', 'kratzig', 'hässlich', 'glänzend']",1,2.0356843999470584,None,,,,,,,,,,,,,,,,,,,,,,,,,,,,,,,,,,,,,,,,,,,,,,,,,,,,,,,,,,,,,,,,,2,2023-12-18_09h28.02.639,watkins1,2023.2.3,99.65459716964253,67,2023-12-18 09h28.14.294568 +0000,
,,,,,,,7,0,7,0,,,,,,,,,,,,,,,,,289.3671948000556,,,,,,,,,,,,289.3583021000377,289.8492164000054,,,2,2.0466139999916777,,,,,,,,,,,,,,,,,,,,,289.84922820003703,295.85382420005044,Fahrrad,nass,"['Fahrrad', 'nass']",restudy,2,"['Stift', 'Trommel', 'Lampe', 'Rucksack', 'Brille', 'Socke', 'Hammer', 'Fahrrad', 'Jacke', 'Tasse', 'Tasche', 'Eimer', 'Hut', 'Würfel', 'Kerze', 'Blume', 'Löffel', 'Flasche', 'Kette', 'Buch', 'Bürste', 'Ring', 'Schere', 'Kamera', 'Vase', 'Schlüssel', 'Kiste', 'Telefon', 'Uhr', 'Geige']","['kaputt', 'kurz', 'breit', 'neu', 'kratzig', 'hässlich', 'glänzend', 'nass']",2,2.0466139999916777,None,,,,,,,,,,,,,,,,,,,,,,,,,,,,,,,,,,,,,,,,,,,,,,,,,,,,,,,,,,,,,,,,,2,2023-12-18_09h28.02.639,watkins1,2023.2.3,99.65459716964253,67,2023-12-18 09h28.14.294568 +0000,
,,,,,,,8,0,8,0,,,,,,,,,,,,,,,,,295.86320430005435,,,,,,,,,,,,295.854386800027,296.34512970002834,,,1,1.6787670999765396,,,,,,,,,,,,,,,,,,,,,296.34514099999797,302.349513400055,Jacke,krumm,"['Jacke', 'krumm']",restudy,2,"['Stift', 'Trommel', 'Lampe', 'Rucksack', 'Brille', 'Socke', 'Hammer', 'Fahrrad', 'Jacke', 'Tasse', 'Tasche', 'Eimer', 'Hut', 'Würfel', 'Kerze', 'Blume', 'Löffel', 'Flasche', 'Kette', 'Buch', 'Bürste', 'Ring', 'Schere', 'Kamera', 'Vase', 'Schlüssel', 'Kiste', 'Telefon', 'Uhr', 'Geige']","['kaputt', 'kurz', 'breit', 'neu', 'kratzig', 'hässlich', 'glänzend', 'nass', 'krumm']",1,1.6787670999765396,None,,,,,,,,,,,,,,,,,,,,,,,,,,,,,,,,,,,,,,,,,,,,,,,,,,,,,,,,,,,,,,,,,2,2023-12-18_09h28.02.639,watkins1,2023.2.3,99.65459716964253,67,2023-12-18 09h28.14.294568 +0000,
,,,,,,,9,0,9,0,,,,,,,,,,,,,,,,,302.35894100001315,,,,,,,,,,,,302.3500683000311,302.84094840002945,,,2,2.9996932000503875,,,,,,,,,,,,,,,,,,,,,302.84095900005195,308.8474923000322,Tasse,nachhaltig,"['Tasse', 'nachhaltig']",test_sub,2,"['Stift', 'Trommel', 'Lampe', 'Rucksack', 'Brille', 'Socke', 'Hammer', 'Fahrrad', 'Jacke', 'Tasse', 'Tasche', 'Eimer', 'Hut', 'Würfel', 'Kerze', 'Blume', 'Löffel', 'Flasche', 'Kette', 'Buch', 'Bürste', 'Ring', 'Schere', 'Kamera', 'Vase', 'Schlüssel', 'Kiste', 'Telefon', 'Uhr', 'Geige']","['kaputt', 'kurz', 'breit', 'neu', 'kratzig', 'hässlich', 'glänzend', 'nass', 'krumm', 'nachhaltig']",2,2.9996932000503875,None,,,,,,,,,,,,,,,,,,,,,,,,,,,,,,,,,,,,,,,,,,,,,,,,,,,,,,,,,,,,,,,,,2,2023-12-18_09h28.02.639,watkins1,2023.2.3,99.65459716964253,67,2023-12-18 09h28.14.294568 +0000,
,,,,,,,10,0,10,0,,,,,,,,,,,,,,,,,308.85689580003964,,,,,,,,,,,,308.84803260001354,309.3387892000028,,,2,4.605882800009567,,,,,,,,,,,,,,,,,,,,,309.338799500023,315.3493858000147,Tasche,sauber,"['Tasche', 'sauber']",restudy,2,"['Stift', 'Trommel', 'Lampe', 'Rucksack', 'Brille', 'Socke', 'Hammer', 'Fahrrad', 'Jacke', 'Tasse', 'Tasche', 'Eimer', 'Hut', 'Würfel', 'Kerze', 'Blume', 'Löffel', 'Flasche', 'Kette', 'Buch', 'Bürste', 'Ring', 'Schere', 'Kamera', 'Vase', 'Schlüssel', 'Kiste', 'Telefon', 'Uhr', 'Geige']","['kaputt', 'kurz', 'breit', 'neu', 'kratzig', 'hässlich', 'glänzend', 'nass', 'krumm', 'nachhaltig', 'sauber']",2,4.605882800009567,None,,,,,,,,,,,,,,,,,,,,,,,,,,,,,,,,,,,,,,,,,,,,,,,,,,,,,,,,,,,,,,,,,2,2023-12-18_09h28.02.639,watkins1,2023.2.3,99.65459716964253,67,2023-12-18 09h28.14.294568 +0000,
,,,,,,,11,0,11,0,,,,,,,,,,,,,,,,,315.3587116000126,,,,,,,,,,,,315.3499328000471,315.84091290005017,,,1,1.9509585000341758,,,,,,,,,,,,,,,,,,,,,315.8409239000175,321.84378920000745,Eimer,blass,"['Eimer', 'blass']",test_sub,2,"['Stift', 'Trommel', 'Lampe', 'Rucksack', 'Brille', 'Socke', 'Hammer', 'Fahrrad', 'Jacke', 'Tasse', 'Tasche', 'Eimer', 'Hut', 'Würfel', 'Kerze', 'Blume', 'Löffel', 'Flasche', 'Kette', 'Buch', 'Bürste', 'Ring', 'Schere', 'Kamera', 'Vase', 'Schlüssel', 'Kiste', 'Telefon', 'Uhr', 'Geige']","['kaputt', 'kurz', 'breit', 'neu', 'kratzig', 'hässlich', 'glänzend', 'nass', 'krumm', 'nachhaltig', 'sauber', 'blass']",1,1.9509585000341758,None,,,,,,,,,,,,,,,,,,,,,,,,,,,,,,,,,,,,,,,,,,,,,,,,,,,,,,,,,,,,,,,,,2,2023-12-18_09h28.02.639,watkins1,2023.2.3,99.65459716964253,67,2023-12-18 09h28.14.294568 +0000,
,,,,,,,12,0,12,0,,,,,,,,,,,,,,,,,321.8532466000179,,,,,,,,,,,,321.844324900012,322.33500700001605,,,1,1.6177686000009999,,,,,,,,,,,,,,,,,,,,,322.33501730003627,328.3370301000541,Hut,zart,"['Hut', 'zart']",restudy,2,"['Stift', 'Trommel', 'Lampe', 'Rucksack', 'Brille', 'Socke', 'Hammer', 'Fahrrad', 'Jacke', 'Tasse', 'Tasche', 'Eimer', 'Hut', 'Würfel', 'Kerze', 'Blume', 'Löffel', 'Flasche', 'Kette', 'Buch', 'Bürste', 'Ring', 'Schere', 'Kamera', 'Vase', 'Schlüssel', 'Kiste', 'Telefon', 'Uhr', 'Geige']","['kaputt', 'kurz', 'breit', 'neu', 'kratzig', 'hässlich', 'glänzend', 'nass', 'krumm', 'nachhaltig', 'sauber', 'blass', 'zart']",1,1.6177686000009999,None,,,,,,,,,,,,,,,,,,,,,,,,,,,,,,,,,,,,,,,,,,,,,,,,,,,,,,,,,,,,,,,,,2,2023-12-18_09h28.02.639,watkins1,2023.2.3,99.65459716964253,67,2023-12-18 09h28.14.294568 +0000,
,,,,,,,13,0,13,0,,,,,,,,,,,,,,,,,328.34644530003425,,,,,,,,,,,,328.337578900042,328.8283992000506,,,2,3.0991817000322044,,,,,,,,,,,,,,,,,,,,,328.8284098000149,334.83564990002196,Würfel,lustig,"['Würfel', 'lustig']",restudy,2,"['Stift', 'Trommel', 'Lampe', 'Rucksack', 'Brille', 'Socke', 'Hammer', 'Fahrrad', 'Jacke', 'Tasse', 'Tasche', 'Eimer', 'Hut', 'Würfel', 'Kerze', 'Blume', 'Löffel', 'Flasche', 'Kette', 'Buch', 'Bürste', 'Ring', 'Schere', 'Kamera', 'Vase', 'Schlüssel', 'Kiste', 'Telefon', 'Uhr', 'Geige']","['kaputt', 'kurz', 'breit', 'neu', 'kratzig', 'hässlich', 'glänzend', 'nass', 'krumm', 'nachhaltig', 'sauber', 'blass', 'zart', 'lustig']",2,3.0991817000322044,None,,,,,,,,,,,,,,,,,,,,,,,,,,,,,,,,,,,,,,,,,,,,,,,,,,,,,,,,,,,,,,,,,2,2023-12-18_09h28.02.639,watkins1,2023.2.3,99.65459716964253,67,2023-12-18 09h28.14.294568 +0000,
,,,,,,,14,0,14,0,,,,,,,,,,,,,,,,,334.8450300000259,,,,,,,,,,,,334.8361823000014,335.3268301000353,,,3,2.3851528000086546,,,,,,,,,,,,,,,,,,,,,335.32684049999807,341.3287930000224,Kerze,dick,"['Kerze', 'dick']",restudy,2,"['Stift', 'Trommel', 'Lampe', 'Rucksack', 'Brille', 'Socke', 'Hammer', 'Fahrrad', 'Jacke', 'Tasse', 'Tasche', 'Eimer', 'Hut', 'Würfel', 'Kerze', 'Blume', 'Löffel', 'Flasche', 'Kette', 'Buch', 'Bürste', 'Ring', 'Schere', 'Kamera', 'Vase', 'Schlüssel', 'Kiste', 'Telefon', 'Uhr', 'Geige']","['kaputt', 'kurz', 'breit', 'neu', 'kratzig', 'hässlich', 'glänzend', 'nass', 'krumm', 'nachhaltig', 'sauber', 'blass', 'zart', 'lustig', 'dick']",3,2.3851528000086546,None,,,,,,,,,,,,,,,,,,,,,,,,,,,,,,,,,,,,,,,,,,,,,,,,,,,,,,,,,,,,,,,,,2,2023-12-18_09h28.02.639,watkins1,2023.2.3,99.65459716964253,67,2023-12-18 09h28.14.294568 +0000,
,,,,,,,15,0,15,0,,,,,,,,,,,,,,,,,341.3381789000123,,,,,,,,,,,,341.3293314000475,341.8201575000421,,,1,2.004714100039564,,,,,,,,,,,,,,,,,,,,,341.820168700011,347.8306419000146,Blume,matt,"['Blume', 'matt']",restudy,2,"['Stift', 'Trommel', 'Lampe', 'Rucksack', 'Brille', 'Socke', 'Hammer', 'Fahrrad', 'Jacke', 'Tasse', 'Tasche', 'Eimer', 'Hut', 'Würfel', 'Kerze', 'Blume', 'Löffel', 'Flasche', 'Kette', 'Buch', 'Bürste', 'Ring', 'Schere', 'Kamera', 'Vase', 'Schlüssel', 'Kiste', 'Telefon', 'Uhr', 'Geige']","['kaputt', 'kurz', 'breit', 'neu', 'kratzig', 'hässlich', 'glänzend', 'nass', 'krumm', 'nachhaltig', 'sauber', 'blass', 'zart', 'lustig', 'dick', 'matt']",1,2.004714100039564,None,,,,,,,,,,,,,,,,,,,,,,,,,,,,,,,,,,,,,,,,,,,,,,,,,,,,,,,,,,,,,,,,,2,2023-12-18_09h28.02.639,watkins1,2023.2.3,99.65459716964253,67,2023-12-18 09h28.14.294568 +0000,
,,,,,,,16,0,16,0,,,,,,,,,,,,,,,,,347.8400455000228,,,,,,,,,,,,347.8311912000063,348.3219966000179,,,2,1.317836800008081,,,,,,,,,,,,,,,,,,,,,348.3220075000427,354.33392630005255,Löffel,glatt,"['Löffel', 'glatt']",restudy,2,"['Stift', 'Trommel', 'Lampe', 'Rucksack', 'Brille', 'Socke', 'Hammer', 'Fahrrad', 'Jacke', 'Tasse', 'Tasche', 'Eimer', 'Hut', 'Würfel', 'Kerze', 'Blume', 'Löffel', 'Flasche', 'Kette', 'Buch', 'Bürste', 'Ring', 'Schere', 'Kamera', 'Vase', 'Schlüssel', 'Kiste', 'Telefon', 'Uhr', 'Geige']","['kaputt', 'kurz', 'breit', 'neu', 'kratzig', 'hässlich', 'glänzend', 'nass', 'krumm', 'nachhaltig', 'sauber', 'blass', 'zart', 'lustig', 'dick', 'matt', 'glatt']",2,1.317836800008081,None,,,,,,,,,,,,,,,,,,,,,,,,,,,,,,,,,,,,,,,,,,,,,,,,,,,,,,,,,,,,,,,,,2,2023-12-18_09h28.02.639,watkins1,2023.2.3,99.65459716964253,67,2023-12-18 09h28.14.294568 +0000,
,,,,,,,17,0,17,0,,,,,,,,,,,,,,,,,354.3428238000488,,,,,,,,,,,,354.33447580004577,354.82776760001434,,,2,2.4606437000329606,,,,,,,,,,,,,,,,,,,,,354.82777790003456,360.8311668000533,Flasche,dunkel,"['Flasche', 'dunkel']",test_sub,2,"['Stift', 'Trommel', 'Lampe', 'Rucksack', 'Brille', 'Socke', 'Hammer', 'Fahrrad', 'Jacke', 'Tasse', 'Tasche', 'Eimer', 'Hut', 'Würfel', 'Kerze', 'Blume', 'Löffel', 'Flasche', 'Kette', 'Buch', 'Bürste', 'Ring', 'Schere', 'Kamera', 'Vase', 'Schlüssel', 'Kiste', 'Telefon', 'Uhr', 'Geige']","['kaputt', 'kurz', 'breit', 'neu', 'kratzig', 'hässlich', 'glänzend', 'nass', 'krumm', 'nachhaltig', 'sauber', 'blass', 'zart', 'lustig', 'dick', 'matt', 'glatt', 'dunkel']",2,2.4606437000329606,None,,,,,,,,,,,,,,,,,,,,,,,,,,,,,,,,,,,,,,,,,,,,,,,,,,,,,,,,,,,,,,,,,2,2023-12-18_09h28.02.639,watkins1,2023.2.3,99.65459716964253,67,2023-12-18 09h28.14.294568 +0000,
,,,,,,,18,0,18,0,,,,,,,,,,,,,,,,,360.84054580004886,,,,,,,,,,,,360.8317210000241,361.3226343000424,,,2,1.7101200000033714,,,,,,,,,,,,,,,,,,,,,361.32264510000823,367.331372100045,Kette,biegsam,"['Kette', 'biegsam']",test_sub,2,"['Stift', 'Trommel', 'Lampe', 'Rucksack', 'Brille', 'Socke', 'Hammer', 'Fahrrad', 'Jacke', 'Tasse', 'Tasche', 'Eimer', 'Hut', 'Würfel', 'Kerze', 'Blume', 'Löffel', 'Flasche', 'Kette', 'Buch', 'Bürste', 'Ring', 'Schere', 'Kamera', 'Vase', 'Schlüssel', 'Kiste', 'Telefon', 'Uhr', 'Geige']","['kaputt', 'kurz', 'breit', 'neu', 'kratzig', 'hässlich', 'glänzend', 'nass', 'krumm', 'nachhaltig', 'sauber', 'blass', 'zart', 'lustig', 'dick', 'matt', 'glatt', 'dunkel', 'biegsam']",2,1.7101200000033714,None,,,,,,,,,,,,,,,,,,,,,,,,,,,,,,,,,,,,,,,,,,,,,,,,,,,,,,,,,,,,,,,,,2,2023-12-18_09h28.02.639,watkins1,2023.2.3,99.65459716964253,67,2023-12-18 09h28.14.294568 +0000,
,,,,,,,19,0,19,0,,,,,,,,,,,,,,,,,367.3407889000373,,,,,,,,,,,,367.3319192000199,367.8228079000255,,,1,1.6012710999930277,,,,,,,,,,,,,,,,,,,,,367.82281890005106,373.82477000000654,Buch,winzig,"['Buch', 'winzig']",test_sub,2,"['Stift', 'Trommel', 'Lampe', 'Rucksack', 'Brille', 'Socke', 'Hammer', 'Fahrrad', 'Jacke', 'Tasse', 'Tasche', 'Eimer', 'Hut', 'Würfel', 'Kerze', 'Blume', 'Löffel', 'Flasche', 'Kette', 'Buch', 'Bürste', 'Ring', 'Schere', 'Kamera', 'Vase', 'Schlüssel', 'Kiste', 'Telefon', 'Uhr', 'Geige']","['kaputt', 'kurz', 'breit', 'neu', 'kratzig', 'hässlich', 'glänzend', 'nass', 'krumm', 'nachhaltig', 'sauber', 'blass', 'zart', 'lustig', 'dick', 'matt', 'glatt', 'dunkel', 'biegsam', 'winzig']",1,1.6012710999930277,None,,,,,,,,,,,,,,,,,,,,,,,,,,,,,,,,,,,,,,,,,,,,,,,,,,,,,,,,,,,,,,,,,2,2023-12-18_09h28.02.639,watkins1,2023.2.3,99.65459716964253,67,2023-12-18 09h28.14.294568 +0000,
,,,,,,,20,0,20,0,,,,,,,,,,,,,,,,,373.8341344000073,,,,,,,,,,,,373.8253282000078,374.31617250002455,,,1,1.5404891000362113,,,,,,,,,,,,,,,,,,,,,374.31618290004553,380.32506160001503,Bürste,sportlich,"['Bürste', 'sportlich']",test_sub,2,"['Stift', 'Trommel', 'Lampe', 'Rucksack', 'Brille', 'Socke', 'Hammer', 'Fahrrad', 'Jacke', 'Tasse', 'Tasche', 'Eimer', 'Hut', 'Würfel', 'Kerze', 'Blume', 'Löffel', 'Flasche', 'Kette', 'Buch', 'Bürste', 'Ring', 'Schere', 'Kamera', 'Vase', 'Schlüssel', 'Kiste', 'Telefon', 'Uhr', 'Geige']","['kaputt', 'kurz', 'breit', 'neu', 'kratzig', 'hässlich', 'glänzend', 'nass', 'krumm', 'nachhaltig', 'sauber', 'blass', 'zart', 'lustig', 'dick', 'matt', 'glatt', 'dunkel', 'biegsam', 'winzig', 'sportlich']",1,1.5404891000362113,None,,,,,,,,,,,,,,,,,,,,,,,,,,,,,,,,,,,,,,,,,,,,,,,,,,,,,,,,,,,,,,,,,2,2023-12-18_09h28.02.639,watkins1,2023.2.3,99.65459716964253,67,2023-12-18 09h28.14.294568 +0000,
,,,,,,,21,0,21,0,,,,,,,,,,,,,,,,,380.33444040000904,,,,,,,,,,,,380.325623700046,380.81662009999854,,,2,2.1838512000394985,,,,,,,,,,,,,,,,,,,,,380.81663100002334,386.8203329000389,Ring,gepunktet,"['Ring', 'gepunktet']",restudy,2,"['Stift', 'Trommel', 'Lampe', 'Rucksack', 'Brille', 'Socke', 'Hammer', 'Fahrrad', 'Jacke', 'Tasse', 'Tasche', 'Eimer', 'Hut', 'Würfel', 'Kerze', 'Blume', 'Löffel', 'Flasche', 'Kette', 'Buch', 'Bürste', 'Ring', 'Schere', 'Kamera', 'Vase', 'Schlüssel', 'Kiste', 'Telefon', 'Uhr', 'Geige']","['kaputt', 'kurz', 'breit', 'neu', 'kratzig', 'hässlich', 'glänzend', 'nass', 'krumm', 'nachhaltig', 'sauber', 'blass', 'zart', 'lustig', 'dick', 'matt', 'glatt', 'dunkel', 'biegsam', 'winzig', 'sportlich', 'gepunktet']",2,2.1838512000394985,None,,,,,,,,,,,,,,,,,,,,,,,,,,,,,,,,,,,,,,,,,,,,,,,,,,,,,,,,,,,,,,,,,2,2023-12-18_09h28.02.639,watkins1,2023.2.3,99.65459716964253,67,2023-12-18 09h28.14.294568 +0000,
,,,,,,,22,0,22,0,,,,,,,,,,,,,,,,,386.8297778000124,,,,,,,,,,,,386.8208967000246,387.31194130005315,,,2,2.4090132999699563,,,,,,,,,,,,,,,,,,,,,387.3119512000121,393.3174706000136,Schere,gut,"['Schere', 'gut']",test_sub,2,"['Stift', 'Trommel', 'Lampe', 'Rucksack', 'Brille', 'Socke', 'Hammer', 'Fahrrad', 'Jacke', 'Tasse', 'Tasche', 'Eimer', 'Hut', 'Würfel', 'Kerze', 'Blume', 'Löffel', 'Flasche', 'Kette', 'Buch', 'Bürste', 'Ring', 'Schere', 'Kamera', 'Vase', 'Schlüssel', 'Kiste', 'Telefon', 'Uhr', 'Geige']","['kaputt', 'kurz', 'breit', 'neu', 'kratzig', 'hässlich', 'glänzend', 'nass', 'krumm', 'nachhaltig', 'sauber', 'blass', 'zart', 'lustig', 'dick', 'matt', 'glatt', 'dunkel', 'biegsam', 'winzig', 'sportlich', 'gepunktet', 'gut']",2,2.4090132999699563,None,,,,,,,,,,,,,,,,,,,,,,,,,,,,,,,,,,,,,,,,,,,,,,,,,,,,,,,,,,,,,,,,,2,2023-12-18_09h28.02.639,watkins1,2023.2.3,99.65459716964253,67,2023-12-18 09h28.14.294568 +0000,
,,,,,,,23,0,23,0,,,,,,,,,,,,,,,,,393.32693370000925,,,,,,,,,,,,393.31802550004795,393.808988600038,,,1,1.1917570999939926,,,,,,,,,,,,,,,,,,,,,393.80899850005517,399.8151915000053,Kamera,gestreift,"['Kamera', 'gestreift']",test_sub,2,"['Stift', 'Trommel', 'Lampe', 'Rucksack', 'Brille', 'Socke', 'Hammer', 'Fahrrad', 'Jacke', 'Tasse', 'Tasche', 'Eimer', 'Hut', 'Würfel', 'Kerze', 'Blume', 'Löffel', 'Flasche', 'Kette', 'Buch', 'Bürste', 'Ring', 'Schere', 'Kamera', 'Vase', 'Schlüssel', 'Kiste', 'Telefon', 'Uhr', 'Geige']","['kaputt', 'kurz', 'breit', 'neu', 'kratzig', 'hässlich', 'glänzend', 'nass', 'krumm', 'nachhaltig', 'sauber', 'blass', 'zart', 'lustig', 'dick', 'matt', 'glatt', 'dunkel', 'biegsam', 'winzig', 'sportlich', 'gepunktet', 'gut', 'gestreift']",1,1.1917570999939926,None,,,,,,,,,,,,,,,,,,,,,,,,,,,,,,,,,,,,,,,,,,,,,,,,,,,,,,,,,,,,,,,,,2,2023-12-18_09h28.02.639,watkins1,2023.2.3,99.65459716964253,67,2023-12-18 09h28.14.294568 +0000,
,,,,,,,24,0,24,0,,,,,,,,,,,,,,,,,399.8246043000254,,,,,,,,,,,,399.8157336000004,400.30645160004497,,,2,2.7338108000112697,,,,,,,,,,,,,,,,,,,,,400.306461900007,406.3105707000359,Vase,klobig,"['Vase', 'klobig']",restudy,2,"['Stift', 'Trommel', 'Lampe', 'Rucksack', 'Brille', 'Socke', 'Hammer', 'Fahrrad', 'Jacke', 'Tasse', 'Tasche', 'Eimer', 'Hut', 'Würfel', 'Kerze', 'Blume', 'Löffel', 'Flasche', 'Kette', 'Buch', 'Bürste', 'Ring', 'Schere', 'Kamera', 'Vase', 'Schlüssel', 'Kiste', 'Telefon', 'Uhr', 'Geige']","['kaputt', 'kurz', 'breit', 'neu', 'kratzig', 'hässlich', 'glänzend', 'nass', 'krumm', 'nachhaltig', 'sauber', 'blass', 'zart', 'lustig', 'dick', 'matt', 'glatt', 'dunkel', 'biegsam', 'winzig', 'sportlich', 'gepunktet', 'gut', 'gestreift', 'klobig']",2,2.7338108000112697,None,,,,,,,,,,,,,,,,,,,,,,,,,,,,,,,,,,,,,,,,,,,,,,,,,,,,,,,,,,,,,,,,,2,2023-12-18_09h28.02.639,watkins1,2023.2.3,99.65459716964253,67,2023-12-18 09h28.14.294568 +0000,
,,,,,,,25,0,25,0,,,,,,,,,,,,,,,,,406.3199089000118,,,,,,,,,,,,406.31112600001507,406.8020269999979,,,1,1.7343958000419661,,,,,,,,,,,,,,,,,,,,,406.80203720001737,412.81132550002076,Schlüssel,flauschig,"['Schlüssel', 'flauschig']",restudy,2,"['Stift', 'Trommel', 'Lampe', 'Rucksack', 'Brille', 'Socke', 'Hammer', 'Fahrrad', 'Jacke', 'Tasse', 'Tasche', 'Eimer', 'Hut', 'Würfel', 'Kerze', 'Blume', 'Löffel', 'Flasche', 'Kette', 'Buch', 'Bürste', 'Ring', 'Schere', 'Kamera', 'Vase', 'Schlüssel', 'Kiste', 'Telefon', 'Uhr', 'Geige']","['kaputt', 'kurz', 'breit', 'neu', 'kratzig', 'hässlich', 'glänzend', 'nass', 'krumm', 'nachhaltig', 'sauber', 'blass', 'zart', 'lustig', 'dick', 'matt', 'glatt', 'dunkel', 'biegsam', 'winzig', 'sportlich', 'gepunktet', 'gut', 'gestreift', 'klobig', 'flauschig']",1,1.7343958000419661,None,,,,,,,,,,,,,,,,,,,,,,,,,,,,,,,,,,,,,,,,,,,,,,,,,,,,,,,,,,,,,,,,,2,2023-12-18_09h28.02.639,watkins1,2023.2.3,99.65459716964253,67,2023-12-18 09h28.14.294568 +0000,
,,,,,,,26,0,26,0,,,,,,,,,,,,,,,,,412.8206949000014,,,,,,,,,,,,412.81186340004206,413.3025854000007,,,2,1.3299812999903224,,,,,,,,,,,,,,,,,,,,,413.3025957000209,419.3065654000384,Kiste,schmutzig,"['Kiste', 'schmutzig']",test_sub,2,"['Stift', 'Trommel', 'Lampe', 'Rucksack', 'Brille', 'Socke', 'Hammer', 'Fahrrad', 'Jacke', 'Tasse', 'Tasche', 'Eimer', 'Hut', 'Würfel', 'Kerze', 'Blume', 'Löffel', 'Flasche', 'Kette', 'Buch', 'Bürste', 'Ring', 'Schere', 'Kamera', 'Vase', 'Schlüssel', 'Kiste', 'Telefon', 'Uhr', 'Geige']","['kaputt', 'kurz', 'breit', 'neu', 'kratzig', 'hässlich', 'glänzend', 'nass', 'krumm', 'nachhaltig', 'sauber', 'blass', 'zart', 'lustig', 'dick', 'matt', 'glatt', 'dunkel', 'biegsam', 'winzig', 'sportlich', 'gepunktet', 'gut', 'gestreift', 'klobig', 'flauschig', 'schmutzig']",2,1.3299812999903224,None,,,,,,,,,,,,,,,,,,,,,,,,,,,,,,,,,,,,,,,,,,,,,,,,,,,,,,,,,,,,,,,,,2,2023-12-18_09h28.02.639,watkins1,2023.2.3,99.65459716964253,67,2023-12-18 09h28.14.294568 +0000,
,,,,,,,27,0,27,0,,,,,,,,,,,,,,,,,419.3159299000399,,,,,,,,,,,,419.30711470003007,419.79805310000665,,,1,1.2428380000055768,,,,,,,,,,,,,,,,,,,,,419.7980652000406,425.8031861000345,Telefon,hübsch,"['Telefon', 'hübsch']",test_sub,2,"['Stift', 'Trommel', 'Lampe', 'Rucksack', 'Brille', 'Socke', 'Hammer', 'Fahrrad', 'Jacke', 'Tasse', 'Tasche', 'Eimer', 'Hut', 'Würfel', 'Kerze', 'Blume', 'Löffel', 'Flasche', 'Kette', 'Buch', 'Bürste', 'Ring', 'Schere', 'Kamera', 'Vase', 'Schlüssel', 'Kiste', 'Telefon', 'Uhr', 'Geige']","['kaputt', 'kurz', 'breit', 'neu', 'kratzig', 'hässlich', 'glänzend', 'nass', 'krumm', 'nachhaltig', 'sauber', 'blass', 'zart', 'lustig', 'dick', 'matt', 'glatt', 'dunkel', 'biegsam', 'winzig', 'sportlich', 'gepunktet', 'gut', 'gestreift', 'klobig', 'flauschig', 'schmutzig', 'hübsch']",1,1.2428380000055768,None,,,,,,,,,,,,,,,,,,,,,,,,,,,,,,,,,,,,,,,,,,,,,,,,,,,,,,,,,,,,,,,,,2,2023-12-18_09h28.02.639,watkins1,2023.2.3,99.65459716964253,67,2023-12-18 09h28.14.294568 +0000,
,,,,,,,28,0,28,0,,,,,,,,,,,,,,,,,425.8125091000111,,,,,,,,,,,,425.8037450000411,426.2945335000404,,,2,1.1535928000230342,,,,,,,,,,,,,,,,,,,,,426.29454350000015,432.30166310002096,Uhr,bunt,"['Uhr', 'bunt']",test_sub,2,"['Stift', 'Trommel', 'Lampe', 'Rucksack', 'Brille', 'Socke', 'Hammer', 'Fahrrad', 'Jacke', 'Tasse', 'Tasche', 'Eimer', 'Hut', 'Würfel', 'Kerze', 'Blume', 'Löffel', 'Flasche', 'Kette', 'Buch', 'Bürste', 'Ring', 'Schere', 'Kamera', 'Vase', 'Schlüssel', 'Kiste', 'Telefon', 'Uhr', 'Geige']","['kaputt', 'kurz', 'breit', 'neu', 'kratzig', 'hässlich', 'glänzend', 'nass', 'krumm', 'nachhaltig', 'sauber', 'blass', 'zart', 'lustig', 'dick', 'matt', 'glatt', 'dunkel', 'biegsam', 'winzig', 'sportlich', 'gepunktet', 'gut', 'gestreift', 'klobig', 'flauschig', 'schmutzig', 'hübsch', 'bunt']",2,1.1535928000230342,None,,,,,,,,,,,,,,,,,,,,,,,,,,,,,,,,,,,,,,,,,,,,,,,,,,,,,,,,,,,,,,,,,2,2023-12-18_09h28.02.639,watkins1,2023.2.3,99.65459716964253,67,2023-12-18 09h28.14.294568 +0000,
,,,,,,,29,0,29,0,,,,,,,,,,,,,,,,,432.31124629999977,,,,,,,,,,,,432.3022017000476,432.7933830000111,,,3,1.9984474000521004,,,,,,,,,,,,,,,,,,,,,432.79339370003436,438.803140300035,Geige,robust,"['Geige', 'robust']",test_sub,2,"['Stift', 'Trommel', 'Lampe', 'Rucksack', 'Brille', 'Socke', 'Hammer', 'Fahrrad', 'Jacke', 'Tasse', 'Tasche', 'Eimer', 'Hut', 'Würfel', 'Kerze', 'Blume', 'Löffel', 'Flasche', 'Kette', 'Buch', 'Bürste', 'Ring', 'Schere', 'Kamera', 'Vase', 'Schlüssel', 'Kiste', 'Telefon', 'Uhr', 'Geige']","['kaputt', 'kurz', 'breit', 'neu', 'kratzig', 'hässlich', 'glänzend', 'nass', 'krumm', 'nachhaltig', 'sauber', 'blass', 'zart', 'lustig', 'dick', 'matt', 'glatt', 'dunkel', 'biegsam', 'winzig', 'sportlich', 'gepunktet', 'gut', 'gestreift', 'klobig', 'flauschig', 'schmutzig', 'hübsch', 'bunt', 'robust']",3,1.9984474000521004,None,,,,,,,,,,,,,,,,,,,,,,,,,,,,,,,,,,,,,,,,,,,,,,,,,,,,,,,,,,,,,,,,,2,2023-12-18_09h28.02.639,watkins1,2023.2.3,99.65459716964253,67,2023-12-18 09h28.14.294568 +0000,
,,,,,,,,,,,0,0,0,0,,,,,,,,,,,,,438.8125186000252,,,,,,,,,,,,438.8040084000095,439.2946147000184,,,[],[],,,,,,,,,,,,1.7089893000083975,None,,,,,geige,,,,,Geige,robust,"['Geige', 'robust']",test_sub,2,,,,,,438.80393340002047,438.80398160003824,"['Geige', 'Vase', 'Jacke', 'Uhr', 'Schlüssel', 'Kiste', 'Kette', 'Hammer', 'Fahrrad', 'Rucksack', 'Lampe', 'Socke', 'Löffel', 'Ring', 'Hut', 'Kamera', 'Trommel', 'Stift', 'Tasse', 'Telefon', 'Kerze', 'Blume', 'Flasche', 'Buch', 'Tasche', 'Schere', 'Würfel', 'Eimer', 'Brille', 'Bürste']",439.2946256000432,439.2973722000024,None,439.29756260005524,439.30015290004667,None,439.30031960003544,439.302938000008,None,439.3031002000207,439.3043196000508,439.30433270003414,0,445.3106312000309,,,,,,,,,,,,,,,,,,,,,,,,,,,,,,,,,,,,,,,,,,,,,,,,2,2023-12-18_09h28.02.639,watkins1,2023.2.3,99.65459716964253,67,2023-12-18 09h28.14.294568 +0000,
,,,,,,,,,,,1,0,1,0,,,,,,,,,,,,,445.32041970000137,,,,,,,,,,,,445.3109197000158,445.80233890004456,,,[],[],,,,,,,,,,,,None,None,,,,,,,,,,Vase,klobig,"['Vase', 'klobig']",restudy,2,,,,,,445.3108530000318,445.31089110003086,"['Geige', 'Vase', 'Jacke', 'Uhr', 'Schlüssel', 'Kiste', 'Kette', 'Hammer', 'Fahrrad', 'Rucksack', 'Lampe', 'Socke', 'Löffel', 'Ring', 'Hut', 'Kamera', 'Trommel', 'Stift', 'Tasse', 'Telefon', 'Kerze', 'Blume', 'Flasche', 'Buch', 'Tasche', 'Schere', 'Würfel', 'Eimer', 'Brille', 'Bürste']",445.8023497000104,445.8038469000021,None,445.80397560005076,451.8139929000172,2,451.81438160000835,451.81708790000994,None,451.8172023000079,451.81826250004815,451.81827410002006,,451.81978230003733,3.2924331999965943,None,,,,,,,,,,,,,,,,,,,,,,,,,,,,,,,,,,,,,,,,,,,,,,2,2023-12-18_09h28.02.639,watkins1,2023.2.3,99.65459716964253,67,2023-12-18 09h28.14.294568 +0000,
,,,,,,,,,,,2,0,2,0,,,,,,,,,,,,,451.82344110001577,,,,,,,,,,,,451.8200747000519,452.3154371000128,,,[],[],,,,,,,,,,,,None,None,,,,,,,,,,Jacke,krumm,"['Jacke', 'krumm']",restudy,2,,,,,,451.82000780000817,451.82004690001486,"['Geige', 'Vase', 'Jacke', 'Uhr', 'Schlüssel', 'Kiste', 'Kette', 'Hammer', 'Fahrrad', 'Rucksack', 'Lampe', 'Socke', 'Löffel', 'Ring', 'Hut', 'Kamera', 'Trommel', 'Stift', 'Tasse', 'Telefon', 'Kerze', 'Blume', 'Flasche', 'Buch', 'Tasche', 'Schere', 'Würfel', 'Eimer', 'Brille', 'Bürste']",452.3154477000353,452.31816470000194,None,452.3182944,458.32106790004764,1,458.32137910003075,458.3241714000469,None,458.3242879000027,458.32548640004825,458.3254982000217,,458.32667550002225,1.4586716999765486,None,,,,,,,,,,,,,,,,,,,,,,,,,,,,,,,,,,,,,,,,,,,,,,2,2023-12-18_09h28.02.639,watkins1,2023.2.3,99.65459716964253,67,2023-12-18 09h28.14.294568 +0000,
,,,,,,,,,,,3,0,3,0,,,,,,,,,,,,,458.3305148000363,,,,,,,,,,,,458.32697039999766,458.8223440000438,,,[],[],,,,,,,,,,,,2.498849599971436,4.5670716999447905,,,,,capslocku,,,,,Uhr,bunt,"['Uhr', 'bunt']",test_sub,2,,,,,,458.3269038000144,458.3269431000226,"['Geige', 'Vase', 'Jacke', 'Uhr', 'Schlüssel', 'Kiste', 'Kette', 'Hammer', 'Fahrrad', 'Rucksack', 'Lampe', 'Socke', 'Löffel', 'Ring', 'Hut', 'Kamera', 'Trommel', 'Stift', 'Tasse', 'Telefon', 'Kerze', 'Blume', 'Flasche', 'Buch', 'Tasche', 'Schere', 'Würfel', 'Eimer', 'Brille', 'Bürste']",458.8223560000188,458.8249683000031,None,458.825098900008,458.82643559999997,None,458.82654999999795,458.82788350002375,None,458.8279974000179,458.8290551000391,458.82906770001864,0,464.8322352000396,,,,,,,,,,,,,,,,,,,,,,,,,,,,,,,,,,,,,,,,,,,,,,,,2,2023-12-18_09h28.02.639,watkins1,2023.2.3,99.65459716964253,67,2023-12-18 09h28.14.294568 +0000,
,,,,,,,,,,,4,0,4,0,,,,,,,,,,,,,464.8420060000499,,,,,,,,,,,,464.8325153000187,465.3241139000165,,,[],[],,,,,,,,,,,,None,None,,,,,,,,,,Schlüssel,flauschig,"['Schlüssel', 'flauschig']",restudy,2,,,,,,464.8324506000499,464.8324876000406,"['Geige', 'Vase', 'Jacke', 'Uhr', 'Schlüssel', 'Kiste', 'Kette', 'Hammer', 'Fahrrad', 'Rucksack', 'Lampe', 'Socke', 'Löffel', 'Ring', 'Hut', 'Kamera', 'Trommel', 'Stift', 'Tasse', 'Telefon', 'Kerze', 'Blume', 'Flasche', 'Buch', 'Tasche', 'Schere', 'Würfel', 'Eimer', 'Brille', 'Bürste']",465.3241240000352,465.32686130004004,None,465.32698490004987,471.332982300024,1,471.33329340000637,471.33629669999937,None,471.33641210000496,471.3376919000293,471.33770390000427,,471.3393542999984,2.33766060002381,None,,,,,,,,,,,,,,,,,,,,,,,,,,,,,,,,,,,,,,,,,,,,,,2,2023-12-18_09h28.02.639,watkins1,2023.2.3,99.65459716964253,67,2023-12-18 09h28.14.294568 +0000,
,,,,,,,,,,,5,0,5,0,,,,,,,,,,,,,471.3432090000133,,,,,,,,,,,,471.3396468000137,471.8349929000251,,,[],[],,,,,,,,,,,,1.636202100024093,None,,,,,kiste,,,,,Kiste,schmutzig,"['Kiste', 'schmutzig']",test_sub,2,,,,,,471.33957970002666,471.3396192000364,"['Geige', 'Vase', 'Jacke', 'Uhr', 'Schlüssel', 'Kiste', 'Kette', 'Hammer', 'Fahrrad', 'Rucksack', 'Lampe', 'Socke', 'Löffel', 'Ring', 'Hut', 'Kamera', 'Trommel', 'Stift', 'Tasse', 'Telefon', 'Kerze', 'Blume', 'Flasche', 'Buch', 'Tasche', 'Schere', 'Würfel', 'Eimer', 'Brille', 'Bürste']",471.83500420005294,471.8378275000141,None,471.8379584000213,471.839434500027,None,471.83954820001964,471.8410129000549,None,471.8411262000445,471.84231290000025,471.8423257000395,0,477.8467624000041,,,,,,,,,,,,,,,,,,,,,,,,,,,,,,,,,,,,,,,,,,,,,,,,2,2023-12-18_09h28.02.639,watkins1,2023.2.3,99.65459716964253,67,2023-12-18 09h28.14.294568 +0000,
,,,,,,,,,,,6,0,6,0,,,,,,,,,,,,,477.85661090002395,,,,,,,,,,,,477.8470542000141,478.3384813000448,,,[],[],,,,,,,,,,,,None,None,,,,,,,,,,Kette,biegsam,"['Kette', 'biegsam']",test_sub,2,,,,,,477.8469869000255,477.84702440002,"['Geige', 'Vase', 'Jacke', 'Uhr', 'Schlüssel', 'Kiste', 'Kette', 'Hammer', 'Fahrrad', 'Rucksack', 'Lampe', 'Socke', 'Löffel', 'Ring', 'Hut', 'Kamera', 'Trommel', 'Stift', 'Tasse', 'Telefon', 'Kerze', 'Blume', 'Flasche', 'Buch', 'Tasche', 'Schere', 'Würfel', 'Eimer', 'Brille', 'Bürste']",478.33849180000834,478.34132850001333,None,478.34145580005134,478.3441158000496,None,478.3442312000552,478.3468870000215,None,478.3470007000142,478.3481934000156,478.34820590005256,0,484.3547590000089,,,,,,,,,,,,,,,,,,,,,,,,,,,,,,,,,,,,,,,,,,,,,,,,2,2023-12-18_09h28.02.639,watkins1,2023.2.3,99.65459716964253,67,2023-12-18 09h28.14.294568 +0000,
,,,,,,,,,,,7,0,7,0,,,,,,,,,,,,,484.36451270000543,,,,,,,,,,,,484.3550517000258,484.8468524000491,,,[],[],,,,,,,,,,,,2.5415642999578267,5.493491799978074,,,,,,,,,,Hammer,glänzend,"['Hammer', 'glänzend']",test_sub,2,,,,,,484.3549837000319,484.355022200034,"['Geige', 'Vase', 'Jacke', 'Uhr', 'Schlüssel', 'Kiste', 'Kette', 'Hammer', 'Fahrrad', 'Rucksack', 'Lampe', 'Socke', 'Löffel', 'Ring', 'Hut', 'Kamera', 'Trommel', 'Stift', 'Tasse', 'Telefon', 'Kerze', 'Blume', 'Flasche', 'Buch', 'Tasche', 'Schere', 'Würfel', 'Eimer', 'Brille', 'Bürste']",484.8468632000149,484.8497137000086,None,484.84984360000817,484.85245270002633,None,484.85256800003117,484.8551779000554,None,484.8552895000321,484.85650430002715,484.85651700000744,0,490.8622260999982,,,,,,,,,,,,,,,,,,,,,,,,,,,,,,,,,,,,,,,,,,,,,,,,2,2023-12-18_09h28.02.639,watkins1,2023.2.3,99.65459716964253,67,2023-12-18 09h28.14.294568 +0000,
,,,,,,,,,,,8,0,8,0,,,,,,,,,,,,,490.87205350003205,,,,,,,,,,,,490.86251450004056,491.3540528000449,,,[],[],,,,,,,,,,,,None,None,,,,,,,,,,Fahrrad,nass,"['Fahrrad', 'nass']",restudy,2,,,,,,490.8624463000451,490.8624857000541,"['Geige', 'Vase', 'Jacke', 'Uhr', 'Schlüssel', 'Kiste', 'Kette', 'Hammer', 'Fahrrad', 'Rucksack', 'Lampe', 'Socke', 'Löffel', 'Ring', 'Hut', 'Kamera', 'Trommel', 'Stift', 'Tasse', 'Telefon', 'Kerze', 'Blume', 'Flasche', 'Buch', 'Tasche', 'Schere', 'Würfel', 'Eimer', 'Brille', 'Bürste']",491.3540634000092,491.3569313000189,None,491.35705980000785,497.3675049000303,2,497.36782590002986,497.3705090000294,None,497.3706263000495,497.3718583000009,497.37187010003254,,497.37293190002674,2.0923112999880686,None,,,,,,,,,,,,,,,,,,,,,,,,,,,,,,,,,,,,,,,,,,,,,,2,2023-12-18_09h28.02.639,watkins1,2023.2.3,99.65459716964253,67,2023-12-18 09h28.14.294568 +0000,
,,,,,,,,,,,9,0,9,0,,,,,,,,,,,,,497.3769489999977,,,,,,,,,,,,497.37322290003067,497.86899040004937,,,[],[],,,,,,,,,,,,None,None,,,,,,,,,,Rucksack,neu,"['Rucksack', 'neu']",restudy,2,,,,,,497.3731568000512,497.3731956000556,"['Geige', 'Vase', 'Jacke', 'Uhr', 'Schlüssel', 'Kiste', 'Kette', 'Hammer', 'Fahrrad', 'Rucksack', 'Lampe', 'Socke', 'Löffel', 'Ring', 'Hut', 'Kamera', 'Trommel', 'Stift', 'Tasse', 'Telefon', 'Kerze', 'Blume', 'Flasche', 'Buch', 'Tasche', 'Schere', 'Würfel', 'Eimer', 'Brille', 'Bürste']",497.8690028000274,497.8716699000215,None,497.87180120003177,503.8729687000159,3,503.8732886000071,503.8759276000201,None,503.8760432000272,503.8772890000255,503.87730069999816,,503.87837190000573,1.4011340999859385,None,,,,,,,,,,,,,,,,,,,,,,,,,,,,,,,,,,,,,,,,,,,,,,2,2023-12-18_09h28.02.639,watkins1,2023.2.3,99.65459716964253,67,2023-12-18 09h28.14.294568 +0000,
,,,,,,,,,,,10,0,10,0,,,,,,,,,,,,,503.88234770001145,,,,,,,,,,,,503.8786641000188,504.3742952000466,,,[],[],,,,,,,,,,,,None,None,,,,,,,,,,Lampe,breit,"['Lampe', 'breit']",restudy,2,,,,,,503.8785968000302,503.87863630003994,"['Geige', 'Vase', 'Jacke', 'Uhr', 'Schlüssel', 'Kiste', 'Kette', 'Hammer', 'Fahrrad', 'Rucksack', 'Lampe', 'Socke', 'Löffel', 'Ring', 'Hut', 'Kamera', 'Trommel', 'Stift', 'Tasse', 'Telefon', 'Kerze', 'Blume', 'Flasche', 'Buch', 'Tasche', 'Schere', 'Würfel', 'Eimer', 'Brille', 'Bürste']",504.3743059000117,504.3768856000388,None,504.37701690004906,510.38726580003276,2,510.3875713000307,510.39025950001087,None,510.3903738000081,510.3915484000463,510.3915603000205,,510.39273380005034,1.0713986000046134,None,,,,,,,,,,,,,,,,,,,,,,,,,,,,,,,,,,,,,,,,,,,,,,2,2023-12-18_09h28.02.639,watkins1,2023.2.3,99.65459716964253,67,2023-12-18 09h28.14.294568 +0000,
,,,,,,,,,,,11,0,11,0,,,,,,,,,,,,,510.3966671000235,,,,,,,,,,,,510.39302640000824,510.8886287000496,,,[],[],,,,,,,,,,,,None,None,,,,,,,,,,Socke,hässlich,"['Socke', 'hässlich']",restudy,2,,,,,,510.392959800025,510.3929988000309,"['Geige', 'Vase', 'Jacke', 'Uhr', 'Schlüssel', 'Kiste', 'Kette', 'Hammer', 'Fahrrad', 'Rucksack', 'Lampe', 'Socke', 'Löffel', 'Ring', 'Hut', 'Kamera', 'Trommel', 'Stift', 'Tasse', 'Telefon', 'Kerze', 'Blume', 'Flasche', 'Buch', 'Tasche', 'Schere', 'Würfel', 'Eimer', 'Brille', 'Bürste']",510.88864020002075,510.89135270001134,None,510.8914801000501,516.8921832000487,3,516.8924922000151,516.8953437000164,None,516.8954597000265,516.8966469000443,516.8966588000185,,516.8979081000434,1.5093546000425704,None,,,,,,,,,,,,,,,,,,,,,,,,,,,,,,,,,,,,,,,,,,,,,,2,2023-12-18_09h28.02.639,watkins1,2023.2.3,99.65459716964253,67,2023-12-18 09h28.14.294568 +0000,
,,,,,,,,,,,12,0,12,0,,,,,,,,,,,,,516.9015292000258,,,,,,,,,,,,516.898200100055,517.3937711000326,,,[],[],,,,,,,,,,,,None,None,,,,,,,,,,Löffel,glatt,"['Löffel', 'glatt']",restudy,2,,,,,,516.8981328000082,516.8981725000194,"['Geige', 'Vase', 'Jacke', 'Uhr', 'Schlüssel', 'Kiste', 'Kette', 'Hammer', 'Fahrrad', 'Rucksack', 'Lampe', 'Socke', 'Löffel', 'Ring', 'Hut', 'Kamera', 'Trommel', 'Stift', 'Tasse', 'Telefon', 'Kerze', 'Blume', 'Flasche', 'Buch', 'Tasche', 'Schere', 'Würfel', 'Eimer', 'Brille', 'Bürste']",517.3937830000068,517.3967547000502,None,517.3968836000422,523.4063728000037,3,523.4066708000028,523.40945560002,None,523.4095686000073,523.4107435000478,523.410755000019,,523.4119119000388,1.5560232999850996,None,,,,,,,,,,,,,,,,,,,,,,,,,,,,,,,,,,,,,,,,,,,,,,2,2023-12-18_09h28.02.639,watkins1,2023.2.3,99.65459716964253,67,2023-12-18 09h28.14.294568 +0000,
,,,,,,,,,,,13,0,13,0,,,,,,,,,,,,,523.4157696000184,,,,,,,,,,,,523.412194100034,523.9078467000509,,,[],[],,,,,,,,,,,,None,None,,,,,,,,,,Ring,gepunktet,"['Ring', 'gepunktet']",restudy,2,,,,,,523.4121289000032,523.412167500006,"['Geige', 'Vase', 'Jacke', 'Uhr', 'Schlüssel', 'Kiste', 'Kette', 'Hammer', 'Fahrrad', 'Rucksack', 'Lampe', 'Socke', 'Löffel', 'Ring', 'Hut', 'Kamera', 'Trommel', 'Stift', 'Tasse', 'Telefon', 'Kerze', 'Blume', 'Flasche', 'Buch', 'Tasche', 'Schere', 'Würfel', 'Eimer', 'Brille', 'Bürste']",523.9078575000167,523.9103870000108,None,523.9105128000374,529.9168767000083,3,529.9171847000252,529.9199494000059,None,529.9200664000236,529.9211462000385,529.9211583000142,,529.9225591000286,1.6427975000115111,None,,,,,,,,,,,,,,,,,,,,,,,,,,,,,,,,,,,,,,,,,,,,,,2,2023-12-18_09h28.02.639,watkins1,2023.2.3,99.65459716964253,67,2023-12-18 09h28.14.294568 +0000,
,,,,,,,,,,,14,0,14,0,,,,,,,,,,,,,529.9262787000043,,,,,,,,,,,,529.9228529000538,530.4182403000304,,,[],[],,,,,,,,,,,,None,None,,,,,,,,,,Hut,zart,"['Hut', 'zart']",restudy,2,,,,,,529.9227843999979,529.9228254000191,"['Geige', 'Vase', 'Jacke', 'Uhr', 'Schlüssel', 'Kiste', 'Kette', 'Hammer', 'Fahrrad', 'Rucksack', 'Lampe', 'Socke', 'Löffel', 'Ring', 'Hut', 'Kamera', 'Trommel', 'Stift', 'Tasse', 'Telefon', 'Kerze', 'Blume', 'Flasche', 'Buch', 'Tasche', 'Schere', 'Würfel', 'Eimer', 'Brille', 'Bürste']",530.4182510000537,530.4209361000103,None,530.4210653000046,536.4257042000536,1,536.4260133000207,536.4284583000117,None,536.4285745000234,536.429673000006,536.4296847000369,,536.4308643999975,1.0760281999828294,None,,,,,,,,,,,,,,,,,,,,,,,,,,,,,,,,,,,,,,,,,,,,,,2,2023-12-18_09h28.02.639,watkins1,2023.2.3,99.65459716964253,67,2023-12-18 09h28.14.294568 +0000,
,,,,,,,,,,,15,0,15,0,,,,,,,,,,,,,536.4350928000058,,,,,,,,,,,,536.4311555000022,536.9274447000353,,,[],[],,,,,,,,,,,,3.1164149999967776,None,,,,,uhr,,,,,Kamera,gestreift,"['Kamera', 'gestreift']",test_sub,2,,,,,,536.4310884000151,536.4311281000264,"['Geige', 'Vase', 'Jacke', 'Uhr', 'Schlüssel', 'Kiste', 'Kette', 'Hammer', 'Fahrrad', 'Rucksack', 'Lampe', 'Socke', 'Löffel', 'Ring', 'Hut', 'Kamera', 'Trommel', 'Stift', 'Tasse', 'Telefon', 'Kerze', 'Blume', 'Flasche', 'Buch', 'Tasche', 'Schere', 'Würfel', 'Eimer', 'Brille', 'Bürste']",536.9274564000079,536.9300885000266,None,536.9302217000513,536.9317020000308,None,536.9318164000288,536.9332886000047,None,536.9334011000465,536.9345961000072,536.9346088000457,0,542.9374746000394,,,,,,,,,,,,,,,,,,,,,,,,,,,,,,,,,,,,,,,,,,,,,,,,2,2023-12-18_09h28.02.639,watkins1,2023.2.3,99.65459716964253,67,2023-12-18 09h28.14.294568 +0000,
,,,,,,,,,,,16,0,16,0,,,,,,,,,,,,,542.9472426000284,,,,,,,,,,,,542.9377671000548,543.4293152000173,,,[],[],,,,,,,,,,,,None,None,,,,,,,,,,Trommel,kurz,"['Trommel', 'kurz']",restudy,2,,,,,,542.9376991000026,542.9377376000048,"['Geige', 'Vase', 'Jacke', 'Uhr', 'Schlüssel', 'Kiste', 'Kette', 'Hammer', 'Fahrrad', 'Rucksack', 'Lampe', 'Socke', 'Löffel', 'Ring', 'Hut', 'Kamera', 'Trommel', 'Stift', 'Tasse', 'Telefon', 'Kerze', 'Blume', 'Flasche', 'Buch', 'Tasche', 'Schere', 'Würfel', 'Eimer', 'Brille', 'Bürste']",543.4293262000429,543.4321934000473,None,543.432320300024,549.4370162000414,1,549.4373238999979,549.4400479000178,None,549.4401623000158,549.4413774000132,549.4413895000471,,549.4427761000115,1.840841300028842,None,,,,,,,,,,,,,,,,,,,,,,,,,,,,,,,,,,,,,,,,,,,,,,2,2023-12-18_09h28.02.639,watkins1,2023.2.3,99.65459716964253,67,2023-12-18 09h28.14.294568 +0000,
,,,,,,,,,,,17,0,17,0,,,,,,,,,,,,,549.4464119000477,,,,,,,,,,,,549.4430671000155,549.9383197000134,,,[],[],,,,,,,,,,,,3.7142997999908403,None,,,,,,,,,,Stift,kaputt,"['Stift', 'kaputt']",test_sub,2,,,,,,549.4430003000307,549.4430394000374,"['Geige', 'Vase', 'Jacke', 'Uhr', 'Schlüssel', 'Kiste', 'Kette', 'Hammer', 'Fahrrad', 'Rucksack', 'Lampe', 'Socke', 'Löffel', 'Ring', 'Hut', 'Kamera', 'Trommel', 'Stift', 'Tasse', 'Telefon', 'Kerze', 'Blume', 'Flasche', 'Buch', 'Tasche', 'Schere', 'Würfel', 'Eimer', 'Brille', 'Bürste']",549.9383307000389,549.9409453000408,None,549.9410761000472,549.9425387000083,None,549.9426505000447,549.9441067000153,None,549.9442191999988,549.9454150000238,549.9454278000048,0,555.9490701000323,,,,,,,,,,,,,,,,,,,,,,,,,,,,,,,,,,,,,,,,,,,,,,,,2,2023-12-18_09h28.02.639,watkins1,2023.2.3,99.65459716964253,67,2023-12-18 09h28.14.294568 +0000,
,,,,,,,,,,,18,0,18,0,,,,,,,,,,,,,555.9589206000092,,,,,,,,,,,,555.9493608000339,556.4409745000303,,,[],[],,,,,,,,,,,,1.3365377999725752,None,,,,,tasse,,,,,Tasse,nachhaltig,"['Tasse', 'nachhaltig']",test_sub,2,,,,,,555.9492940000491,555.9493312000413,"['Geige', 'Vase', 'Jacke', 'Uhr', 'Schlüssel', 'Kiste', 'Kette', 'Hammer', 'Fahrrad', 'Rucksack', 'Lampe', 'Socke', 'Löffel', 'Ring', 'Hut', 'Kamera', 'Trommel', 'Stift', 'Tasse', 'Telefon', 'Kerze', 'Blume', 'Flasche', 'Buch', 'Tasche', 'Schere', 'Würfel', 'Eimer', 'Brille', 'Bürste']",556.4409853000543,556.443800500012,None,556.4439279000508,556.4464860000298,None,556.4465980000095,556.4491565000499,None,556.4492659000098,556.4504303000285,556.4504428000073,0,562.4560092000174,,,,,,,,,,,,,,,,,,,,,,,,,,,,,,,,,,,,,,,,,,,,,,,,2,2023-12-18_09h28.02.639,watkins1,2023.2.3,99.65459716964253,67,2023-12-18 09h28.14.294568 +0000,
,,,,,,,,,,,19,0,19,0,,,,,,,,,,,,,562.4657909000525,,,,,,,,,,,,562.4562930000247,562.9477854000288,,,[],[],,,,,,,,,,,,4.640813200036064,None,,,,,vase,,,,,Telefon,hübsch,"['Telefon', 'hübsch']",test_sub,2,,,,,,562.4562267000438,562.4562642000383,"['Geige', 'Vase', 'Jacke', 'Uhr', 'Schlüssel', 'Kiste', 'Kette', 'Hammer', 'Fahrrad', 'Rucksack', 'Lampe', 'Socke', 'Löffel', 'Ring', 'Hut', 'Kamera', 'Trommel', 'Stift', 'Tasse', 'Telefon', 'Kerze', 'Blume', 'Flasche', 'Buch', 'Tasche', 'Schere', 'Würfel', 'Eimer', 'Brille', 'Bürste']",562.9477970000007,562.9506632999983,None,562.9507918000454,562.9534705000115,None,562.9535852000117,562.956255200028,None,562.9563657000544,562.9575811000541,562.9575938000344,0,568.964066000015,,,,,,,,,,,,,,,,,,,,,,,,,,,,,,,,,,,,,,,,,,,,,,,,2,2023-12-18_09h28.02.639,watkins1,2023.2.3,99.65459716964253,67,2023-12-18 09h28.14.294568 +0000,
,,,,,,,,,,,20,0,20,0,,,,,,,,,,,,,568.973873400013,,,,,,,,,,,,568.9643558000098,569.4558642000193,,,[],[],,,,,,,,,,,,None,None,,,,,,,,,,Kerze,dick,"['Kerze', 'dick']",restudy,2,,,,,,568.9642871000106,568.9643262000172,"['Geige', 'Vase', 'Jacke', 'Uhr', 'Schlüssel', 'Kiste', 'Kette', 'Hammer', 'Fahrrad', 'Rucksack', 'Lampe', 'Socke', 'Löffel', 'Ring', 'Hut', 'Kamera', 'Trommel', 'Stift', 'Tasse', 'Telefon', 'Kerze', 'Blume', 'Flasche', 'Buch', 'Tasche', 'Schere', 'Würfel', 'Eimer', 'Brille', 'Bürste']",569.4558746000403,569.4587198000518,None,569.4588473000331,575.4608716000221,3,575.4611786000314,575.463743500004,None,575.4638575999998,575.4650798000512,575.4650917000254,,575.4664652000065,1.3822682000463828,None,,,,,,,,,,,,,,,,,,,,,,,,,,,,,,,,,,,,,,,,,,,,,,2,2023-12-18_09h28.02.639,watkins1,2023.2.3,99.65459716964253,67,2023-12-18 09h28.14.294568 +0000,
,,,,,,,,,,,21,0,21,0,,,,,,,,,,,,,575.4702964000171,,,,,,,,,,,,575.4667575000203,575.9623473000247,,,[],[],,,,,,,,,,,,None,None,,,,,,,,,,Blume,matt,"['Blume', 'matt']",restudy,2,,,,,,575.4666911000386,575.4667307000491,"['Geige', 'Vase', 'Jacke', 'Uhr', 'Schlüssel', 'Kiste', 'Kette', 'Hammer', 'Fahrrad', 'Rucksack', 'Lampe', 'Socke', 'Löffel', 'Ring', 'Hut', 'Kamera', 'Trommel', 'Stift', 'Tasse', 'Telefon', 'Kerze', 'Blume', 'Flasche', 'Buch', 'Tasche', 'Schere', 'Würfel', 'Eimer', 'Brille', 'Bürste']",575.9623585000518,575.9649366000085,None,575.965065700002,581.9754170000087,1,581.9757230000105,581.9782686000108,None,581.9783808000502,581.9795280000544,581.9795396000263,,581.9805854000151,1.5078952999901958,None,,,,,,,,,,,,,,,,,,,,,,,,,,,,,,,,,,,,,,,,,,,,,,2,2023-12-18_09h28.02.639,watkins1,2023.2.3,99.65459716964253,67,2023-12-18 09h28.14.294568 +0000,
,,,,,,,,,,,22,0,22,0,,,,,,,,,,,,,581.9847934000427,,,,,,,,,,,,581.9808713000384,582.4768122000387,,,[],[],,,,,,,,,,,,5.812894500035327,None,,,,,b,,,,,Flasche,dunkel,"['Flasche', 'dunkel']",test_sub,2,,,,,,581.9808064000099,581.9808446000097,"['Geige', 'Vase', 'Jacke', 'Uhr', 'Schlüssel', 'Kiste', 'Kette', 'Hammer', 'Fahrrad', 'Rucksack', 'Lampe', 'Socke', 'Löffel', 'Ring', 'Hut', 'Kamera', 'Trommel', 'Stift', 'Tasse', 'Telefon', 'Kerze', 'Blume', 'Flasche', 'Buch', 'Tasche', 'Schere', 'Würfel', 'Eimer', 'Brille', 'Bürste']",582.476823200006,582.4796116000507,None,582.4797404000419,582.4812336000032,None,582.4813490000088,582.4828332000179,None,582.4829458000022,582.4841538000037,582.484166600043,0,588.4880001000129,,,,,,,,,,,,,,,,,,,,,,,,,,,,,,,,,,,,,,,,,,,,,,,,2,2023-12-18_09h28.02.639,watkins1,2023.2.3,99.65459716964253,67,2023-12-18 09h28.14.294568 +0000,
,,,,,,,,,,,23,0,23,0,,,,,,,,,,,,,588.4978719000355,,,,,,,,,,,,588.4882843000232,588.9799084000406,,,[],[],,,,,,,,,,,,3.465307100035716,None,,,,,gav´,,,,,Buch,winzig,"['Buch', 'winzig']",test_sub,2,,,,,,588.488218100043,588.488255400036,"['Geige', 'Vase', 'Jacke', 'Uhr', 'Schlüssel', 'Kiste', 'Kette', 'Hammer', 'Fahrrad', 'Rucksack', 'Lampe', 'Socke', 'Löffel', 'Ring', 'Hut', 'Kamera', 'Trommel', 'Stift', 'Tasse', 'Telefon', 'Kerze', 'Blume', 'Flasche', 'Buch', 'Tasche', 'Schere', 'Würfel', 'Eimer', 'Brille', 'Bürste']",588.9799192000064,588.982536000025,None,588.9826651000185,588.9851203000289,None,588.9852357000345,588.9876852000016,None,588.987797000038,588.9888534000493,588.9888682000455,0,594.9979741999996,,,,,,,,,,,,,,,,,,,,,,,,,,,,,,,,,,,,,,,,,,,,,,,,2,2023-12-18_09h28.02.639,watkins1,2023.2.3,99.65459716964253,67,2023-12-18 09h28.14.294568 +0000,
,,,,,,,,,,,24,0,24,0,,,,,,,,,,,,,595.0077933000284,,,,,,,,,,,,594.9982603000244,595.4898561000009,,,[],[],,,,,,,,,,,,None,None,,,,,,,,,,Tasche,sauber,"['Tasche', 'sauber']",restudy,2,,,,,,594.9981912000221,594.9982283000136,"['Geige', 'Vase', 'Jacke', 'Uhr', 'Schlüssel', 'Kiste', 'Kette', 'Hammer', 'Fahrrad', 'Rucksack', 'Lampe', 'Socke', 'Löffel', 'Ring', 'Hut', 'Kamera', 'Trommel', 'Stift', 'Tasse', 'Telefon', 'Kerze', 'Blume', 'Flasche', 'Buch', 'Tasche', 'Schere', 'Würfel', 'Eimer', 'Brille', 'Bürste']",595.489867300028,595.4926698000054,None,595.4927992000012,601.4969541000319,2,601.4972744000261,601.5000289000454,None,601.5001460000058,601.5013547000126,601.5013667000458,,601.5028950000415,4.252689799992368,None,,,,,,,,,,,,,,,,,,,,,,,,,,,,,,,,,,,,,,,,,,,,,,2,2023-12-18_09h28.02.639,watkins1,2023.2.3,99.65459716964253,67,2023-12-18 09h28.14.294568 +0000,
,,,,,,,,,,,25,0,25,0,,,,,,,,,,,,,601.5063617000123,,,,,,,,,,,,601.503193200042,601.998505000025,,,[],[],,,,,,,,,,,,None,None,,,,,,,,,,Schere,gut,"['Schere', 'gut']",test_sub,2,,,,,,601.5031255000504,601.503165400005,"['Geige', 'Vase', 'Jacke', 'Uhr', 'Schlüssel', 'Kiste', 'Kette', 'Hammer', 'Fahrrad', 'Rucksack', 'Lampe', 'Socke', 'Löffel', 'Ring', 'Hut', 'Kamera', 'Trommel', 'Stift', 'Tasse', 'Telefon', 'Kerze', 'Blume', 'Flasche', 'Buch', 'Tasche', 'Schere', 'Würfel', 'Eimer', 'Brille', 'Bürste']",601.9985158000491,602.0012499000295,None,602.001379000023,602.0028584000538,None,602.0029720000457,602.0046214000322,None,602.0047352000256,602.0059240000555,602.005936600035,0,608.0094954000087,,,,,,,,,,,,,,,,,,,,,,,,,,,,,,,,,,,,,,,,,,,,,,,,2,2023-12-18_09h28.02.639,watkins1,2023.2.3,99.65459716964253,67,2023-12-18 09h28.14.294568 +0000,
,,,,,,,,,,,26,0,26,0,,,,,,,,,,,,,608.0193732000189,,,,,,,,,,,,608.0097783000092,608.5011729000253,,,[],[],,,,,,,,,,,,None,None,,,,,,,,,,Würfel,lustig,"['Würfel', 'lustig']",restudy,2,,,,,,608.0097137000412,608.0097502000281,"['Geige', 'Vase', 'Jacke', 'Uhr', 'Schlüssel', 'Kiste', 'Kette', 'Hammer', 'Fahrrad', 'Rucksack', 'Lampe', 'Socke', 'Löffel', 'Ring', 'Hut', 'Kamera', 'Trommel', 'Stift', 'Tasse', 'Telefon', 'Kerze', 'Blume', 'Flasche', 'Buch', 'Tasche', 'Schere', 'Würfel', 'Eimer', 'Brille', 'Bürste']",608.5011840000516,608.5037877000286,None,608.5039167000214,614.5081157000386,2,614.5084219000419,614.5111503000371,None,614.5112681000028,614.5124674000544,614.5124794000294,,614.5136573000345,1.9449994000024162,None,,,,,,,,,,,,,,,,,,,,,,,,,,,,,,,,,,,,,,,,,,,,,,2,2023-12-18_09h28.02.639,watkins1,2023.2.3,99.65459716964253,67,2023-12-18 09h28.14.294568 +0000,
,,,,,,,,,,,27,0,27,0,,,,,,,,,,,,,614.5175226000138,,,,,,,,,,,,614.5139483000385,615.0096803000197,,,[],[],,,,,,,,,,,,1.6052098000072874,None,,,,,blume,,,,,Eimer,blass,"['Eimer', 'blass']",test_sub,2,,,,,,614.5138816000544,614.5139205000014,"['Geige', 'Vase', 'Jacke', 'Uhr', 'Schlüssel', 'Kiste', 'Kette', 'Hammer', 'Fahrrad', 'Rucksack', 'Lampe', 'Socke', 'Löffel', 'Ring', 'Hut', 'Kamera', 'Trommel', 'Stift', 'Tasse', 'Telefon', 'Kerze', 'Blume', 'Flasche', 'Buch', 'Tasche', 'Schere', 'Würfel', 'Eimer', 'Brille', 'Bürste']",615.0096915000468,615.0123814000399,None,615.0125091000227,615.0139412000426,None,615.0140534000238,615.0154927000403,None,615.0156029000063,615.0167595000239,615.0167721000034,0,621.0197494000313,,,,,,,,,,,,,,,,,,,,,,,,,,,,,,,,,,,,,,,,,,,,,,,,2,2023-12-18_09h28.02.639,watkins1,2023.2.3,99.65459716964253,67,2023-12-18 09h28.14.294568 +0000,
,,,,,,,,,,,28,0,28,0,,,,,,,,,,,,,621.0295336000272,,,,,,,,,,,,621.020030500018,621.5115331000416,,,[],[],,,,,,,,,,,,2.7729386999853887,None,,,,,gabel,,,,,Brille,kratzig,"['Brille', 'kratzig']",test_sub,2,,,,,,621.0199656000477,621.0200023000361,"['Geige', 'Vase', 'Jacke', 'Uhr', 'Schlüssel', 'Kiste', 'Kette', 'Hammer', 'Fahrrad', 'Rucksack', 'Lampe', 'Socke', 'Löffel', 'Ring', 'Hut', 'Kamera', 'Trommel', 'Stift', 'Tasse', 'Telefon', 'Kerze', 'Blume', 'Flasche', 'Buch', 'Tasche', 'Schere', 'Würfel', 'Eimer', 'Brille', 'Bürste']",621.5115434000036,621.5142480000504,None,621.5143741000211,621.516936900036,None,621.5170506000286,621.5197080000071,None,621.5198223000043,621.5210093000205,621.5210220000008,0,627.5273124000523,,,,,,,,,,,,,,,,,,,,,,,,,,,,,,,,,,,,,,,,,,,,,,,,2,2023-12-18_09h28.02.639,watkins1,2023.2.3,99.65459716964253,67,2023-12-18 09h28.14.294568 +0000,
,,,,,,,,,,,29,0,29,0,,,,,,,,,,,,,627.5370679000043,,,,,,,,,,,,627.5276020000456,628.0191165000433,,,[],[],,,,,,,,,,,,4.430858600011561,None,,,,,,,,,,Bürste,sportlich,"['Bürste', 'sportlich']",test_sub,2,,,,,,627.5275335000479,627.5275727999979,"['Geige', 'Vase', 'Jacke', 'Uhr', 'Schlüssel', 'Kiste', 'Kette', 'Hammer', 'Fahrrad', 'Rucksack', 'Lampe', 'Socke', 'Löffel', 'Ring', 'Hut', 'Kamera', 'Trommel', 'Stift', 'Tasse', 'Telefon', 'Kerze', 'Blume', 'Flasche', 'Buch', 'Tasche', 'Schere', 'Würfel', 'Eimer', 'Brille', 'Bürste']",628.0191272000084,628.022121200047,None,628.0222496000351,628.0251084000338,None,628.0252355000121,628.0278801000095,None,628.0279923000489,628.0293103000149,628.0293233999982,0,634.0366514000343,,,,,,,,,,,,,,,,,,,,,,,,,,,,,,,,,,,,,,,,,,,,,,,,2,2023-12-18_09h28.02.639,watkins1,2023.2.3,99.65459716964253,67,2023-12-18 09h28.14.294568 +0000,
,,,,,,,,,,,,,,,,,,,,,,,,,,,,,,,,,,,,,,,,,,,,,,,,,,,,,,,,,,,,,,,,,,,,,,,2,,,,,,,,,,,,,,,,,,,,,,,,,,,,,,,,,,,,,,,,,,,,,,,,,,,,,,,,,,,,,,,,,,,,,,2,2023-12-18_09h28.02.639,watkins1,2023.2.3,99.65459716964253,67,2023-12-18 09h28.14.294568 +0000,
(28 : 7) - 3 = 1 ,Correct,button_correct,,,,,,,,,,,,,0,0,0,0,,,,,,,,,657.1070478000329,,,,,,,,,,656.0484836000251,657.0516777000157,,,,,['button_incorrect'],[6.998133899993263],,,,,,,,,,,,,,,,,,,,,,,,,,distractorTask,2,,,,,,,,,,,,,,,,,,,,,,,,,657.090359200025,657.1070478000329,664.0985895000049,[-0.28888888888888886],[-0.39537037037037037],[1],[0],[0],[6.998133899993263],['button_incorrect'],664.0993071999983,665.1020393000217,,,,,,,,,,,,,,,,,,,,,,,,,,,,,,,,,,2,2023-12-18_09h28.02.639,watkins1,2023.2.3,99.65459716964253,67,2023-12-18 09h28.14.294568 +0000,
(80 : 10) + 9 = 17 ,Correct,button_correct,,,,,,,,,,,,,0,1,1,3,,,,,,,,,665.1120260000462,,,,,,,,,,,,,,,,['button_correct'],[5.328509400016628],,,,,,,,,,,,,,,,,,,,,,,,,,distractorTask,2,,,,,,,,,,,,,,,,,,,,,,,,,665.1022378000198,665.1120260000462,670.4341721000383,[0.2814814814814815],[-0.41388888888888886],[1],[0],[0],[5.328509400016628],['button_correct'],670.434575500025,671.437585000007,,,,,,,,,,,,,,,,,,,,,,,,,,,,,,,,,,2,2023-12-18_09h28.02.639,watkins1,2023.2.3,99.65459716964253,67,2023-12-18 09h28.14.294568 +0000,
(7 x 6) + 9 = 48 ,Incorrect,button_incorrect,,,,,,,,,,,,,0,2,2,9,,,,,,,,,671.4475407000282,,,,,,,,,,,,,,,,['button_correct'],[3.9428360000019893],,,,,,,,,,,,,,,,,,,,,,,,,,distractorTask,2,,,,,,,,,,,,,,,,,,,,,,,,,671.4377806000412,671.4475407000282,675.383883500006,[0.2814814814814815],[-0.41388888888888886],[1],[0],[0],[3.9428360000019893],['button_correct'],675.3842781000421,676.3875570000382,,,,,,,,,,,,,,,,,,,,,,,,,,,,,,,,,,2,2023-12-18_09h28.02.639,watkins1,2023.2.3,99.65459716964253,67,2023-12-18 09h28.14.294568 +0000,
(54 : 6) - 10 = 0 ,Incorrect,button_incorrect,,,,,,,,,,,,,0,3,3,5,,,,,,,,,676.3975388000254,,,,,,,,,,,,,,,,['button_incorrect'],[6.936099099984858],,,,,,,,,,,,,,,,,,,,,,,,,,distractorTask,2,,,,,,,,,,,,,,,,,,,,,,,,,676.3877541000256,676.3975388000254,683.3262274000444,[-0.27870370370370373],[-0.39537037037037037],[1],[0],[0],[6.936099099984858],['button_incorrect'],683.3266333000502,684.3297931000125,,,,,,,,,,,,,,,,,,,,,,,,,,,,,,,,,,2,2023-12-18_09h28.02.639,watkins1,2023.2.3,99.65459716964253,67,2023-12-18 09h28.14.294568 +0000,
(40 : 5) + 8 = 15 ,Incorrect,button_incorrect,,,,,,,,,,,,,0,4,4,7,,,,,,,,,684.3397484000307,,,,,,,,,,,,,,,,['button_correct'],[3.7840223000384867],,,,,,,,,,,,,,,,,,,,,,,,,,distractorTask,2,,,,,,,,,,,,,,,,,,,,,,,,,684.3299928000197,684.3397484000307,688.1157933000359,[0.2833333333333333],[-0.40555555555555556],[1],[0],[0],[3.7840223000384867],['button_correct'],688.1161985000363,689.1191668000538,,,,,,,,,,,,,,,,,,,,,,,,,,,,,,,,,,2,2023-12-18_09h28.02.639,watkins1,2023.2.3,99.65459716964253,67,2023-12-18 09h28.14.294568 +0000,
(2 x 5) + 3 = 13 ,Correct,button_correct,,,,,,,,,,,,,0,5,5,2,,,,,,,,,689.1291188000469,,,,,,,,,,,,,,,,['button_incorrect'],[3.3323212999966927],,,,,,,,,,,,,,,,,,,,,,,,,,distractorTask,2,,,,,,,,,,,,,,,,,,,,,,,,,689.119368100015,689.1291188000469,692.453437600052,[-0.33611111111111114],[-0.4009259259259259],[1],[0],[0],[3.3323212999966927],['button_incorrect'],692.453988000052,693.4568462000461,,,,,,,,,,,,,,,,,,,,,,,,,,,,,,,,,,2,2023-12-18_09h28.02.639,watkins1,2023.2.3,99.65459716964253,67,2023-12-18 09h28.14.294568 +0000,
(25 : 5) + 5 = 9 ,Incorrect,button_incorrect,,,,,,,,,,,,,0,6,6,6,,,,,,,,,693.4668425000273,,,,,,,,,,,,,,,,['button_incorrect'],[5.420806900016032],,,,,,,,,,,,,,,,,,,,,,,,,,distractorTask,2,,,,,,,,,,,,,,,,,,,,,,,,,693.4570457000518,693.4668425000273,698.879590400029,[-0.4166666666666667],[-0.3888888888888889],[1],[0],[0],[5.420806900016032],['button_incorrect'],698.8800002000062,699.883219100011,,,,,,,,,,,,,,,,,,,,,,,,,,,,,,,,,,2,2023-12-18_09h28.02.639,watkins1,2023.2.3,99.65459716964253,67,2023-12-18 09h28.14.294568 +0000,
(4 : 2) + 4 = 6 ,Correct,button_correct,,,,,,,,,,,,,0,7,7,1,,,,,,,,,699.8931712000049,,,,,,,,,,,,,,,,['button_correct'],[3.6731796999811195],,,,,,,,,,,,,,,,,,,,,,,,,,distractorTask,2,,,,,,,,,,,,,,,,,,,,,,,,,699.8834223000449,699.8931712000049,703.5583173000487,[0.28888888888888886],[-0.4083333333333333],[1],[0],[0],[3.6731796999811195],['button_correct'],703.5587267000228,704.5619068000233,,,,,,,,,,,,,,,,,,,,,,,,,,,,,,,,,,2,2023-12-18_09h28.02.639,watkins1,2023.2.3,99.65459716964253,67,2023-12-18 09h28.14.294568 +0000,
(9 x 5) - 9 = 36 ,Correct,button_correct,,,,,,,,,,,,,0,8,8,4,,,,,,,,,704.5718740000157,,,,,,,,,,,,,,,,['button_correct'],[6.996892600029241],,,,,,,,,,,,,,,,,,,,,,,,,,distractorTask,2,,,,,,,,,,,,,,,,,,,,,,,,,704.5621116000111,704.5718740000157,711.5607564000529,[0.31296296296296294],[-0.40555555555555556],[1],[0],[0],[6.996892600029241],['button_correct'],711.5611660000286,712.5643469000352,,,,,,,,,,,,,,,,,,,,,,,,,,,,,,,,,,2,2023-12-18_09h28.02.639,watkins1,2023.2.3,99.65459716964253,67,2023-12-18 09h28.14.294568 +0000,
(6 x 3) + 10 = 27 ,Incorrect,button_incorrect,,,,,,,,,,,,,0,9,9,8,,,,,,,,,712.5744185000076,,,,,,,,,,,,,,,,['button_correct'],[5.962575100013055],,,,,,,,,,,,,,,,,,,,,,,,,,distractorTask,2,,,,,,,,,,,,,,,,,,,,,,,,,712.5645436000195,712.5744185000076,718.5288894000114,[0.3907407407407407],[-0.4203703703703704],[1],[0],[0],[5.962575100013055],['button_correct'],718.5293005999993,719.5324049000046,,,,,,,,,,,,,,,,,,,,,,,,,,,,,,,,,,2,2023-12-18_09h28.02.639,watkins1,2023.2.3,99.65459716964253,67,2023-12-18 09h28.14.294568 +0000,
,,,,,,,,,,,,,,,,,,,,,,,,,,,,,,,,,,,,,,,,,,,,,,,,,,,,,,,,,,,,,,,,,,,,,,,2,,,,,,,,,,,,,,,,,,,,,,,,,,,,,,,,,,,,,,,,,,,,,,,,,,,,,,,,,,,,,,,,,,,,,,2,2023-12-18_09h28.02.639,watkins1,2023.2.3,99.65459716964253,67,2023-12-18 09h28.14.294568 +0000,
,,,,,,,,,,,,,,,,,,,0,0,0,0,,,,,732.5643325000419,,,,,,,,,,,,,,,,blume matt,40.88983179995557,,,,,,,,,,,,29.147740599990357,None,,,,,,,,,,,,,freeRecallSub,2,,,,,,,,,,,,,,,,,,,,,,,,,,,,,,,,,,,,,732.5558507000096,732.5643325000419,732.5643325000419,773.4603442000225,return,40.88983179995557,None,blume matt,[-0.04722222222222222],[0.044444444444444446],[1],[0],[0],[18.163593999983277],[],,,,,,,,,,,,,,,,,,,2,2023-12-18_09h28.02.639,watkins1,2023.2.3,99.65459716964253,67,2023-12-18 09h28.14.294568 +0000,
,,,,,,,,,,,,,,,,,,,1,0,1,0,,,,,773.4739954000106,,,,,,,,,,,,,,,,löffel,133.98809820000315,,,,,,,,,,,,10.166488700022455,None,,,,,,,,,,,,,freeRecallSub,2,,,,,,,,,,,,,,,,,,,,,,,,,,,,,,,,,,,,,773.4621984999976,773.4739954000106,773.4739954000106,907.4700102000497,return,133.98809820000315,None,löffel,"[-0.5731481481481482, -0.5796296296296296, 0.053703703703703705]","[0.006481481481481481, 0.0, 0.05277777777777778]","[1, 1, 1]","[0, 0, 0]","[0, 0, 0]","[124.1730147000053, 124.74517030001152, 126.99425699998392]",[],,,,,,,,,,,,,,,,,,,2,2023-12-18_09h28.02.639,watkins1,2023.2.3,99.65459716964253,67,2023-12-18 09h28.14.294568 +0000,
,,,,,,,,,,,,,,,,,,,2,0,2,0,,,,,907.4811067000264,,,,,,,,,,,,,,,,vase,6.181183899985626,,,,,,,,,,,,4.4882483999826945,None,,,,,,,,,,,,,freeRecallSub,2,,,,,,,,,,,,,,,,,,,,,,,,,,,,,,,,,,,,,907.4714045000146,907.4811067000264,907.4811067000264,913.6666109000216,return,6.181183899985626,None,vase,[],[],[],[],[],[],[],,,,,,,,,,,,,,,,,,,2,2023-12-18_09h28.02.639,watkins1,2023.2.3,99.65459716964253,67,2023-12-18 09h28.14.294568 +0000,
,,,,,,,,,,,,,,,,,,,3,0,3,0,,,,,913.6779189000372,,,,,,,,,,,,,,,,rucksack,18.024289900029544,,,,,,,,,,,,13.324934500036761,None,,,,,,,,,,,,,freeRecallSub,2,,,,,,,,,,,,,,,,,,,,,,,,,,,,,,,,,,,,,913.6679109000252,913.6779189000372,913.6779189000372,931.712128800049,return,18.024289900029544,None,rucksack,[],[],[],[],[],[],[],,,,,,,,,,,,,,,,,,,2,2023-12-18_09h28.02.639,watkins1,2023.2.3,99.65459716964253,67,2023-12-18 09h28.14.294568 +0000,
,,,,,,,,,,,,,,,,,,,4,0,4,0,,,,,931.7235958000529,,,,,,,,,,,,,,,,kiste,11.32262669998454,,,,,,,,,,,,7.973826800007373,None,,,,,,,,,,,,,freeRecallSub,2,,,,,,,,,,,,,,,,,,,,,,,,,,,,,,,,,,,,,931.713432700024,931.7235958000529,931.7235958000529,943.0510652000085,return,11.32262669998454,None,kiste,[],[],[],[],[],[],[],,,,,,,,,,,,,,,,,,,2,2023-12-18_09h28.02.639,watkins1,2023.2.3,99.65459716964253,67,2023-12-18 09h28.14.294568 +0000,
,,,,,,,,,,,,,,,,,,,5,0,5,0,,,,,943.0626282000449,,,,,,,,,,,,,,,,jacke,22.551522299996577,,,,,,,,,,,,19.219594099966343,None,,,,,,,,,,,,,freeRecallSub,2,,,,,,,,,,,,,,,,,,,,,,,,,,,,,,,,,,,,,943.052377700049,943.0626282000449,943.0626282000449,965.6155858000275,return,22.551522299996577,None,jacke,[],[],[],[],[],[],[],,,,,,,,,,,,,,,,,,,2,2023-12-18_09h28.02.639,watkins1,2023.2.3,99.65459716964253,67,2023-12-18 09h28.14.294568 +0000,
,,,,,,,,,,,,,,,,,,,6,0,6,0,,,,,965.6275221000542,,,,,,,,,,,,,,,,uhr,5.9947011999902315,,,,,,,,,,,,2.060713599959854,None,,,,,,,,,,,,,freeRecallSub,2,,,,,,,,,,,,,,,,,,,,,,,,,,,,,,,,,,,,,965.6169257000438,965.6275221000542,965.6275221000542,971.6235852000536,return,5.9947011999902315,None,uhr,[],[],[],[],[],[],[],,,,,,,,,,,,,,,,,,,2,2023-12-18_09h28.02.639,watkins1,2023.2.3,99.65459716964253,67,2023-12-18 09h28.14.294568 +0000,
,,,,,,,,,,,,,,,,,,,7,0,7,0,,,,,971.6354318000376,,,,,,,,,,,,,,,,klobig,93.40265720000025,,,,,,,,,,,,90.14830739999888,None,,,,,,,,,,,,,freeRecallSub,2,,,,,,,,,,,,,,,,,,,,,,,,,,,,,,,,,,,,,971.6248546999996,971.6354318000376,971.6354318000376,1065.0470876000472,return,93.40265720000025,None,klobig,[],[],[],[],[],[],[],,,,,,,,,,,,,,,,,,,2,2023-12-18_09h28.02.639,watkins1,2023.2.3,99.65459716964253,67,2023-12-18 09h28.14.294568 +0000,
,,,,,,,,,,,,,,,,,,,8,0,8,0,,,,,1065.0595298000262,,,,,,,,,,,,,,,,stift,107.37862200004747,,,,,,,,,,,,19.8949953999836,77.33287169999676,,,,,,,,,,,,,freeRecallSub,2,,,,,,,,,,,,,,,,,,,,,,,,,,,,,,,,,,,,,1065.0483992000227,1065.0595298000262,1065.0595298000262,1172.4466336000478,return,107.37862200004747,None,stift,[0.022222222222222223],[0.03888888888888889],[1],[0],[0],[103.92008130002068],[],,,,,,,,,,,,,,,,,,,2,2023-12-18_09h28.02.639,watkins1,2023.2.3,99.65459716964253,67,2023-12-18 09h28.14.294568 +0000,
,,,,,,,,,,,,,,,,,,,9,0,9,0,,,,,1172.4589350000024,,,,,,,,,,,,,,,,,[],,,,,,,,,,,,None,None,,,,,,,,,,,,,freeRecallSub,2,,,,,,,,,,,,,,,,,,,,,,,,,,,,,,,,,,,,,1172.4480380000314,1172.4589350000024,1172.4589350000024,1178.7169919000007,None,,,,[0.2111111111111111],[-0.39166666666666666],[1],[0],[0],[6.264740299957339],"['button_continue', 'continue_text']",,,,,,,,,,,,,,,,,,,2,2023-12-18_09h28.02.639,watkins1,2023.2.3,99.65459716964253,67,2023-12-18 09h28.14.294568 +0000,
,,,,,,,,,,,,,,,,,,,,,,,,,,,,,,,,,,,,,,,,,,,,,,,,,,,,,,,,,,,,,,,,,,,,,,,2,,,,,,,,,,,,,,,,,,,,,,,,,,,,,,,,,,,,,,,,,,,,,,,,,,,,,,,,,,,,,,,,,,,,,,2,2023-12-18_09h28.02.639,watkins1,2023.2.3,99.65459716964253,67,2023-12-18 09h28.14.294568 +0000,
,,,,,,,,,,,,,,,,,,,,,,,0,0,0,0,1187.8343322,,,,,,,,,,,,1217.538578900043,1218.0370123000466,,,,29.69180020003114,,,,,,,,,,,,None,None,,,,,,,,,,Eimer,,,cuedRecallAdj,2,,,,,,,,,,,,,,,,,,,,,0,,,,,,,,,,,,,,,,,,,,,,,,,,,,,,,1187.8265416000504,1187.8343322,1187.8343322,1217.535255499999,glatt,return,29.69180020003114,None,1217.5356661000405,1217.5449362000218,1217.5449362000218,1217.5384237000253,,None,,,,,2,2023-12-18_09h28.02.639,watkins1,2023.2.3,99.65459716964253,67,2023-12-18 09h28.14.294568 +0000,
,,,,,,,,,,,,,,,,,,,,,,,1,0,1,0,1218.0470161000267,,,,,,,,,,,,1243.755030500004,1244.2526702000177,,,,25.70334529998945,,,,,,,,,,,,None,None,,,,,,,,,,Kamera,,,cuedRecallAdj,2,,,,,,,,,,,,,,,,,,,,,0,,,,,,,,,,,,,,,,,,,,,,,,,,,,,,,1218.0372622000286,1218.0470161000267,1218.0470161000267,1243.7517998000258,gestreift,return,25.70334529998945,None,1243.7520717000007,1243.760731300048,1243.760731300048,1243.7549279000377,,None,,,,,2,2023-12-18_09h28.02.639,watkins1,2023.2.3,99.65459716964253,67,2023-12-18 09h28.14.294568 +0000,
,,,,,,,,,,,,,,,,,,,,,,,2,0,2,0,1244.2626307000173,,,,,,,,,,,,1262.5210338000325,1263.019124900049,,,,18.24762969999574,,,,,,,,,,,,None,None,,,,,,,,,,Schlüssel,,,cuedRecallAdj,2,,,,,,,,,,,,,,,,,,,,,0,,,,,,,,,,,,,,,,,,,,,,,,,,,,,,,1244.2529327000375,1244.2626307000173,1244.2626307000173,1262.517459100054,winzig,return,18.24762969999574,None,1262.517733100045,1262.527199700009,1262.527199700009,1262.5209269000334,,None,,,,,2,2023-12-18_09h28.02.639,watkins1,2023.2.3,99.65459716964253,67,2023-12-18 09h28.14.294568 +0000,
,,,,,,,,,,,,,,,,,,,,,,,3,0,3,0,1263.0291457000421,,,,,,,,,,,,1265.8335913000046,1266.3323923000135,,,,2.7931037999805994,,,,,,,,,,,,None,None,,,,,,,,,,Blume,,,cuedRecallAdj,2,,,,,,,,,,,,,,,,,,,,,0,,,,,,,,,,,,,,,,,,,,,,,,,,,,,,,1263.0193842000444,1263.0291457000421,1263.0291457000421,1265.8306947000092,matt,return,2.7931037999805994,None,1265.8309707000153,1265.840446700051,1265.840446700051,1265.8334870000253,,None,,,,,2,2023-12-18_09h28.02.639,watkins1,2023.2.3,99.65459716964253,67,2023-12-18 09h28.14.294568 +0000,
,,,,,,,,,,,,,,,,,,,,,,,4,0,4,0,1266.3423849000246,,,,,,,,,,,,1307.3525497000082,1307.85130020004,,,,40.999775400036015,,,,,,,,,,,,None,None,,,,,,,,,,Kette,,,cuedRecallAdj,2,,,,,,,,,,,,,,,,,,,,,0,,,,,,,,,,,,,,,,,,,,,,,,,,,,,,,1266.3326479000389,1266.3423849000246,1266.3423849000246,1307.3494767000084,glatt,return,40.999775400036015,None,1307.3497573000495,1307.3591213000473,1307.3591213000473,1307.352443300013,,None,,,,,2,2023-12-18_09h28.02.639,watkins1,2023.2.3,99.65459716964253,67,2023-12-18 09h28.14.294568 +0000,
,,,,,,,,,,,,,,,,,,,,,,,5,0,5,0,1307.8612610000418,,,,,,,,,,,,1312.754528600024,1313.2531752000214,,,,4.880878900003154,,,,,,,,,,,,None,None,,,,,,,,,,Trommel,,,cuedRecallAdj,2,,,,,,,,,,,,,,,,,,,,,0,,,,,,,,,,,,,,,,,,,,,,,,,,,,,,,1307.8515545000555,1307.8612610000418,1307.8612610000418,1312.7514603000018,winzig,return,4.880878900003154,None,1312.7517387000262,1312.761228700052,1312.761228700052,1312.7544231000356,,None,,,,,2,2023-12-18_09h28.02.639,watkins1,2023.2.3,99.65459716964253,67,2023-12-18 09h28.14.294568 +0000,
,,,,,,,,,,,,,,,,,,,,,,,6,0,6,0,1313.2632226000424,,,,,,,,,,,,1322.0122944000177,1322.5107534000417,,,,8.742899600008968,,,,,,,,,,,,None,None,,,,,,,,,,Flasche,,,cuedRecallAdj,2,,,,,,,,,,,,,,,,,,,,,0,,,,,,,,,,,,,,,,,,,,,,,,,,,,,,,1313.2534288000315,1313.2632226000424,1313.2632226000424,1322.0091858000378,dunkel,return,8.742899600008968,None,1322.0094632000546,1322.0186297000037,1322.0186297000037,1322.0121891000308,,None,,,,,2,2023-12-18_09h28.02.639,watkins1,2023.2.3,99.65459716964253,67,2023-12-18 09h28.14.294568 +0000,
,,,,,,,,,,,,,,,,,,,,,,,7,0,7,0,1322.5207126000314,,,,,,,,,,,,1326.6908406000002,1327.1896383000421,,,,4.157499500026461,,,,,,,,,,,,None,None,,,,,,,,,,Stift,,,cuedRecallAdj,2,,,,,,,,,,,,,,,,,,,,,0,,,,,,,,,,,,,,,,,,,,,,,,,,,,,,,1322.5110043000313,1322.5207126000314,1322.5207126000314,1326.6878470000229,kaputt,return,4.157499500026461,None,1326.6881175000453,1326.6976342000416,1326.6976342000416,1326.6907345000072,,None,,,,,2,2023-12-18_09h28.02.639,watkins1,2023.2.3,99.65459716964253,67,2023-12-18 09h28.14.294568 +0000,
,,,,,,,,,,,,,,,,,,,,,,,8,0,8,0,1327.1996131000342,,,,,,,,,,,,1334.7329216000508,1335.2317967000417,,,,7.5265361000201665,,,,,,,,,,,,None,None,,,,,,,,,,Buch,,,cuedRecallAdj,2,,,,,,,,,,,,,,,,,,,,,0,,,,,,,,,,,,,,,,,,,,,,,,,,,,,,,1327.189955800015,1327.1996131000342,1327.1996131000342,1334.7299701000447,winzig,return,7.5265361000201665,None,1334.7302500000224,1334.7394746000064,1334.7394746000064,1334.7328159000026,,None,,,,,2,2023-12-18_09h28.02.639,watkins1,2023.2.3,99.65459716964253,67,2023-12-18 09h28.14.294568 +0000,
,,,,,,,,,,,,,,,,,,,,,,,9,0,9,0,1335.2417870000354,,,,,,,,,,,,1340.2349178000004,1340.7337315000477,,,,4.988433499995153,,,,,,,,,,,,None,None,,,,,,,,,,Hut,,,cuedRecallAdj,2,,,,,,,,,,,,,,,,,,,,,0,,,,,,,,,,,,,,,,,,,,,,,,,,,,,,,1335.2320495000458,1335.2417870000354,1335.2417870000354,1340.2321247000364,zart,return,4.988433499995153,None,1340.2323975000181,1340.2416616000119,1340.2416616000119,1340.2348136000219,,None,,,,,2,2023-12-18_09h28.02.639,watkins1,2023.2.3,99.65459716964253,67,2023-12-18 09h28.14.294568 +0000,
,,,,,,,,,,,,,,,,,,,,,,,10,0,10,0,1340.7437393,,,,,,,,,,,,1349.5723905000486,1350.0712441000505,,,,8.822469200007617,,,,,,,,,,,,None,None,,,,,,,,,,Tasse,,,cuedRecallAdj,2,,,,,,,,,,,,,,,,,,,,,0,,,,,,,,,,,,,,,,,,,,,,,,,,,,,,,1340.7339843000518,1340.7437393,1340.7437393,1349.5693220000248,klobig,return,8.822469200007617,None,1349.5696077000466,1349.5787877000403,1349.5787877000403,1349.5722846999997,,None,,,,,2,2023-12-18_09h28.02.639,watkins1,2023.2.3,99.65459716964253,67,2023-12-18 09h28.14.294568 +0000,
,,,,,,,,,,,,,,,,,,,,,,,11,0,11,0,1350.081229000003,,,,,,,,,,,,1353.277337300009,1353.7758559000213,,,,3.189001399965491,,,,,,,,,,,,None,None,,,,,,,,,,Löffel,,,cuedRecallAdj,2,,,,,,,,,,,,,,,,,,,,,0,,,,,,,,,,,,,,,,,,,,,,,,,,,,,,,1350.0714935000287,1350.081229000003,1350.081229000003,1353.2743384000496,glatt,return,3.189001399965491,None,1353.2746107000276,1353.2838407000527,1353.2838407000527,1353.277227100043,,None,,,,,2,2023-12-18_09h28.02.639,watkins1,2023.2.3,99.65459716964253,67,2023-12-18 09h28.14.294568 +0000,
,,,,,,,,,,,,,,,,,,,,,,,12,0,12,0,1353.7858051000512,,,,,,,,,,,,1378.8403962000157,1379.333576200006,,,,25.044476000010036,,,,,,,,,,,,None,None,,,,,,,,,,Geige,,,cuedRecallAdj,2,,,,,,,,,,,,,,,,,,,,,0,,,,,,,,,,,,,,,,,,,,,,,,,,,,,,,1353.776111800049,1353.7858051000512,1353.7858051000512,1378.8367712000036,robust,return,25.044476000010036,None,1378.8371252000215,1378.8459239000222,1378.8459239000222,1378.8402758000302,,None,,,,,2,2023-12-18_09h28.02.639,watkins1,2023.2.3,99.65459716964253,67,2023-12-18 09h28.14.294568 +0000,
,,,,,,,,,,,,,,,,,,,,,,,13,0,13,0,1379.343497599999,,,,,,,,,,,,1391.5357150000054,1392.0342860000092,,,,12.182762599957641,,,,,,,,,,,,None,None,,,,,,,,,,Ring,,,cuedRecallAdj,2,,,,,,,,,,,,,,,,,,,,,0,,,,,,,,,,,,,,,,,,,,,,,,,,,,,,,1379.333827800001,1379.343497599999,1379.343497599999,1391.5327856000513,gestreift,return,12.182762599957641,None,1391.5330538999988,1391.5423339000554,1391.5423339000554,1391.5356123000383,,None,,,,,2,2023-12-18_09h28.02.639,watkins1,2023.2.3,99.65459716964253,67,2023-12-18 09h28.14.294568 +0000,
,,,,,,,,,,,,,,,,,,,,,,,14,0,14,0,1392.044257600035,,,,,,,,,,,,1395.9637093000347,1396.4623123000492,,,,3.9139777999953367,,,,,,,,,,,,None,None,,,,,,,,,,Kerze,,,cuedRecallAdj,2,,,,,,,,,,,,,,,,,,,,,0,,,,,,,,,,,,,,,,,,,,,,,,,,,,,,,1392.0345403000247,1392.044257600035,1392.044257600035,1395.9608382000006,dick,return,3.9139777999953367,None,1395.961113199999,1395.970327100018,1395.970327100018,1395.9636062000063,,None,,,,,2,2023-12-18_09h28.02.639,watkins1,2023.2.3,99.65459716964253,67,2023-12-18 09h28.14.294568 +0000,
,,,,,,,,,,,,,,,,,,,,,,,15,0,15,0,1396.4722009000252,,,,,,,,,,,,1402.219110200007,1402.717594900052,,,,5.742057900002692,,,,,,,,,,,,None,None,,,,,,,,,,Würfel,,,cuedRecallAdj,2,,,,,,,,,,,,,,,,,,,,,0,,,,,,,,,,,,,,,,,,,,,,,,,,,,,,,1396.4625654000556,1396.4722009000252,1396.4722009000252,1402.2160579000483,witzig,return,5.742057900002692,None,1402.2163339000545,1402.2255795000237,1402.2255795000237,1402.2190069000353,,None,,,,,2,2023-12-18_09h28.02.639,watkins1,2023.2.3,99.65459716964253,67,2023-12-18 09h28.14.294568 +0000,
,,,,,,,,,,,,,,,,,,,,,,,16,0,16,0,1402.727537400031,,,,,,,,,,,,1458.6664424000192,1459.165048499999,,,,55.934617699997034,,,,,,,,,,,,None,None,,,,,,,,,,Brille,,,cuedRecallAdj,2,,,,,,,,,,,,,,,,,,,,,0,,,,,,,,,,,,,,,,,,,,,,,,,,,,,,,1402.717848100001,1402.727537400031,1402.727537400031,1458.6633453000104,breit,return,55.934617699997034,None,1458.6636287000147,1458.672823300003,1458.672823300003,1458.6663356000208,,None,,,,,2,2023-12-18_09h28.02.639,watkins1,2023.2.3,99.65459716964253,67,2023-12-18 09h28.14.294568 +0000,
,,,,,,,,,,,,,,,,,,,,,,,17,0,17,0,1459.1750233000494,,,,,,,,,,,,1463.104677300027,1463.6031716000289,,,,3.919136199983768,,,,,,,,,,,,None,None,,,,,,,,,,Vase,,,cuedRecallAdj,2,,,,,,,,,,,,,,,,,,,,,0,,,,,,,,,,,,,,,,,,,,,,,,,,,,,,,1459.1653025000123,1459.1750233000494,1459.1750233000494,1463.1015118000214,klobig,return,3.919136199983768,None,1463.1017922000028,1463.1111468000454,1463.1111468000454,1463.1045656000497,,None,,,,,2,2023-12-18_09h28.02.639,watkins1,2023.2.3,99.65459716964253,67,2023-12-18 09h28.14.294568 +0000,
,,,,,,,,,,,,,,,,,,,,,,,18,0,18,0,1463.6130488000344,,,,,,,,,,,,1467.8940011000377,1468.3923722000327,,,,4.2731217999826185,,,,,,,,,,,,None,None,,,,,,,,,,Rucksack,,,cuedRecallAdj,2,,,,,,,,,,,,,,,,,,,,,0,,,,,,,,,,,,,,,,,,,,,,,,,,,,,,,1463.603426100046,1463.6130488000344,1463.6130488000344,1467.8909531000536,sauber,return,4.2731217999826185,None,1467.8912233000156,1467.9005350000225,1467.9005350000225,1467.8938971000025,,None,,,,,2,2023-12-18_09h28.02.639,watkins1,2023.2.3,99.65459716964253,67,2023-12-18 09h28.14.294568 +0000,
,,,,,,,,,,,,,,,,,,,,,,,19,0,19,0,1468.4022748999996,,,,,,,,,,,,1485.6272575000185,1486.1259606000385,,,,17.21195709996391,,,,,,,,,,,,None,None,,,,,,,,,,Telefon,,,cuedRecallAdj,2,,,,,,,,,,,,,,,,,,,,,0,,,,,,,,,,,,,,,,,,,,,,,,,,,,,,,1468.3926269000513,1468.4022748999996,1468.4022748999996,1485.6241735000513,schön,return,17.21195709996391,None,1485.624452500022,1485.633933700039,1485.633933700039,1485.627151200024,,None,,,,,2,2023-12-18_09h28.02.639,watkins1,2023.2.3,99.65459716964253,67,2023-12-18 09h28.14.294568 +0000,
,,,,,,,,,,,,,,,,,,,,,,,20,0,20,0,1486.1359035000205,,,,,,,,,,,,1498.6904255000409,1499.1892262000474,,,,12.54240660002688,,,,,,,,,,,,None,None,,,,,,,,,,Hammer,,,cuedRecallAdj,2,,,,,,,,,,,,,,,,,,,,,0,,,,,,,,,,,,,,,,,,,,,,,,,,,,,,,1486.1262198000331,1486.1359035000205,1486.1359035000205,1498.6871798000066,glänzend,return,12.54240660002688,None,1498.6874536000541,1498.69684400002,1498.69684400002,1498.6903204000555,,None,,,,,2,2023-12-18_09h28.02.639,watkins1,2023.2.3,99.65459716964253,67,2023-12-18 09h28.14.294568 +0000,
,,,,,,,,,,,,,,,,,,,,,,,21,0,21,0,1499.199145200022,,,,,,,,,,,,1501.4417682000203,1501.9406804000027,,,,2.2311370000243187,,,,,,,,,,,,None,None,,,,,,,,,,Schere,,,cuedRecallAdj,2,,,,,,,,,,,,,,,,,,,,,0,,,,,,,,,,,,,,,,,,,,,,,,,,,,,,,1499.189475900028,1499.199145200022,1499.199145200022,1501.4388660000404,gut,return,2.2311370000243187,None,1501.4391492000432,1501.4486220000545,1501.4486220000545,1501.441663100035,,None,,,,,2,2023-12-18_09h28.02.639,watkins1,2023.2.3,99.65459716964253,67,2023-12-18 09h28.14.294568 +0000,
,,,,,,,,,,,,,,,,,,,,,,,22,0,22,0,1501.950641500007,,,,,,,,,,,,1505.599742899998,1506.0983500000439,,,,3.6396506000310183,,,,,,,,,,,,None,None,,,,,,,,,,Socke,,,cuedRecallAdj,2,,,,,,,,,,,,,,,,,,,,,0,,,,,,,,,,,,,,,,,,,,,,,,,,,,,,,1501.9409329000046,1501.950641500007,1501.950641500007,1505.5964949000045,hässlich,return,3.6396506000310183,None,1505.5967663000338,1505.606086200045,1505.606086200045,1505.599639800028,,None,,,,,2,2023-12-18_09h28.02.639,watkins1,2023.2.3,99.65459716964253,67,2023-12-18 09h28.14.294568 +0000,
,,,,,,,,,,,,,,,,,,,,,,,23,0,23,0,1506.1082200000528,,,,,,,,,,,,1517.0058356000227,1517.5041845000233,,,,10.889975800004322,,,,,,,,,,,,None,None,,,,,,,,,,Uhr,,,cuedRecallAdj,2,,,,,,,,,,,,,,,,,,,,,0,,,,,,,,,,,,,,,,,,,,,,,,,,,,,,,1506.0986006000312,1506.1082200000528,1506.1082200000528,1517.0027013000217,gestreift,return,10.889975800004322,None,1517.002975100011,1517.0122488000197,1517.0122488000197,1517.0057321000495,,None,,,,,2,2023-12-18_09h28.02.639,watkins1,2023.2.3,99.65459716964253,67,2023-12-18 09h28.14.294568 +0000,
,,,,,,,,,,,,,,,,,,,,,,,24,0,24,0,1517.514171100047,,,,,,,,,,,,1528.200442500005,1528.6991574999993,,,,10.676006299967412,,,,,,,,,,,,None,None,,,,,,,,,,Tasche,,,cuedRecallAdj,2,,,,,,,,,,,,,,,,,,,,,0,,,,,,,,,,,,,,,,,,,,,,,,,,,,,,,1517.5044388000388,1517.514171100047,1517.514171100047,1528.1973288000445,sauber,return,10.676006299967412,None,1528.1976086000213,1528.206990100036,1528.206990100036,1528.2003361000097,,None,,,,,2,2023-12-18_09h28.02.639,watkins1,2023.2.3,99.65459716964253,67,2023-12-18 09h28.14.294568 +0000,
,,,,,,,,,,,,,,,,,,,,,,,25,0,25,0,1528.709064100054,,,,,,,,,,,,1562.560184300004,1563.0589452999993,,,,33.84105389995966,,,,,,,,,,,,None,None,,,,,,,,,,Fahrrad,,,cuedRecallAdj,2,,,,,,,,,,,,,,,,,,,,,0,,,,,,,,,,,,,,,,,,,,,,,,,,,,,,,1528.6994131000247,1528.709064100054,1528.709064100054,1562.557074100012,schön,return,33.84105389995966,None,1562.5573575000162,1562.5667650000541,1562.5667650000541,1562.560077000002,,None,,,,,2,2023-12-18_09h28.02.639,watkins1,2023.2.3,99.65459716964253,67,2023-12-18 09h28.14.294568 +0000,
,,,,,,,,,,,,,,,,,,,,,,,26,0,26,0,1563.0688562000287,,,,,,,,,,,,1579.7501523000537,1580.2486676000408,,,,16.67340869997861,,,,,,,,,,,,None,None,,,,,,,,,,Bürste,,,cuedRecallAdj,2,,,,,,,,,,,,,,,,,,,,,0,,,,,,,,,,,,,,,,,,,,,,,,,,,,,,,1563.059202000033,1563.0688562000287,1563.0688562000287,1579.7469013000373,gut,return,16.67340869997861,None,1579.7471782000503,1579.7564851000207,1579.7564851000207,1579.7500466000056,,None,,,,,2,2023-12-18_09h28.02.639,watkins1,2023.2.3,99.65459716964253,67,2023-12-18 09h28.14.294568 +0000,
,,,,,,,,,,,,,,,,,,,,,,,27,0,27,0,1580.2587121000397,,,,,,,,,,,,1585.9549904000014,1586.4536764000077,,,,5.6835281000239775,,,,,,,,,,,,None,None,,,,,,,,,,Lampe,,,cuedRecallAdj,2,,,,,,,,,,,,,,,,,,,,,0,,,,,,,,,,,,,,,,,,,,,,,,,,,,,,,1580.248915700009,1580.2587121000397,1580.2587121000397,1585.9520149000455,breit,return,5.6835281000239775,None,1585.952285700012,1585.9616678000311,1585.9616678000311,1585.9548871000297,,None,,,,,2,2023-12-18_09h28.02.639,watkins1,2023.2.3,99.65459716964253,67,2023-12-18 09h28.14.294568 +0000,
,,,,,,,,,,,,,,,,,,,,,,,28,0,28,0,1586.4636949000414,,,,,,,,,,,,1604.3495820000535,1604.8478793000104,,,,17.87849209998967,,,,,,,,,,,,None,None,,,,,,,,,,Jacke,,,cuedRecallAdj,2,,,,,,,,,,,,,,,,,,,,,0,,,,,,,,,,,,,,,,,,,,,,,,,,,,,,,1586.4539195000543,1586.4636949000414,1586.4636949000414,1604.3463054000167,gestreift,return,17.87849209998967,None,1604.3465836000396,1604.3558253000374,1604.3558253000374,1604.3494643000304,,None,,,,,2,2023-12-18_09h28.02.639,watkins1,2023.2.3,99.65459716964253,67,2023-12-18 09h28.14.294568 +0000,
,,,,,,,,,,,,,,,,,,,,,,,29,0,29,0,1604.8577898000367,,,,,,,,,,,,1609.6715761000523,1610.1698149000295,,,,4.804465299996082,,,,,,,,,,,,None,None,,,,,,,,,,Kiste,,,cuedRecallAdj,2,,,,,,,,,,,,,,,,,,,,,0,,,,,,,,,,,,,,,,,,,,,,,,,,,,,,,1604.8481367000495,1604.8577898000367,1604.8577898000367,1609.6682687000139,kaputt,return,4.804465299996082,None,1609.6685668000137,1609.67783890001,1609.67783890001,1609.6714699000004,,None,,,,,2,2023-12-18_09h28.02.639,watkins1,2023.2.3,99.65459716964253,67,2023-12-18 09h28.14.294568 +0000,
,,,,,,,,,,,,,,,,,,,,,,,,,,,,,,,,,,,,,,,,,,,,,,,,,,,,,,,,,,,,,,,,,,,,,,,2,,,,,,,,,,,,,,,,,,,,,,,,,,,,,,,,,,,,,,,,,,,,,,,,,,,,,,,,,,,,,,,,,,1610.1867894000025,q,1637.691572199983,None,2,2023-12-18_09h28.02.639,watkins1,2023.2.3,99.65459716964253,67,2023-12-18 09h28.14.294568 +0000,
