Equation,CorrectResponse,Correctbutton,trials_7.thisRepN,trials_7.thisTrialN,trials_7.thisN,trials_7.thisIndex,trials.thisRepN,trials.thisTrialN,trials.thisN,trials.thisIndex,trials_3.thisRepN,trials_3.thisTrialN,trials_3.thisN,trials_3.thisIndex,trials_2.thisRepN,trials_2.thisTrialN,trials_2.thisN,trials_2.thisIndex,trials_4.thisRepN,trials_4.thisTrialN,trials_4.thisN,trials_4.thisIndex,trials_5.thisRepN,trials_5.thisTrialN,trials_5.thisN,trials_5.thisIndex,thisRow.t,notes,code_marius.started,code_marius.stopped,welcome.started,welcome.stopped,instruction_study.started,instruction_study.stopped,fixationcross.started,fixationcross.stopped,blanc.started,blanc.stopped,study_control_probe.started,study_control_probe.stopped,responseKey,responseTime,scale_answer_2.keys,study_control_probe_2.started,study_control_probe_2.stopped,scale_answer_3.keys,scale_answer_3.rt,scale_answer_3.duration,blanc_2.started,blanc_2.stopped,test_attr_probe.started,test_attr_probe.stopped,recalled_attr,firstKeyTime,secondWordTime,blanc_3.started,blanc_3.stopped,test_sub_probe.started,test_sub_probe.stopped,recalled_sub,instruction_probe_end.started,instruction_probe_end.stopped,study.started,study.stopped,substantive,adjective,wordpair,task,condition,liste_sub_phase1,liste_adj_phase1,scale_answer.keys,scale_answer.rt,scale_answer.duration,code_defineWordsInit.started,code_defineWordsInit.stopped,liste_sub_phase2,study_control.started,study_control.stopped,scale_answer_4.keys,restudy_same.started,restudy_same.stopped,scale_answer_5.keys,restudy_different.started,restudy_different.stopped,scale_answer_6.keys,scale_answer_6.rt,scale_answer_6.duration,test_attr.started,test_attr.stopped,test_sub.started,test_sub.stopped,scale_answer_4.rt,scale_answer_4.duration,distractortask.started,equation_text.started,distractortask.stopped,mouse_answer.x,mouse_answer.y,mouse_answer.leftButton,mouse_answer.midButton,mouse_answer.rightButton,mouse_answer.time,mouse_answer.clicked_name,feedback_distractortask.started,feedback_distractortask.stopped,free_recall.started,text_enter.started,key_resp.started,free_recall.stopped,key_resp.keys,key_resp.rt,key_resp.duration,free_recalled_sub,mouse_continue.x,mouse_continue.y,mouse_continue.leftButton,mouse_continue.midButton,mouse_continue.rightButton,mouse_continue.time,mouse_continue.clicked_name,cued_recall.started,text_enter_2.started,correct,key_continue.started,cued_recall.stopped,recalled_attr1,key_continue.keys,key_continue.rt,key_continue.duration,cued_recall_2.started,text_enter_3.started,key_continue_2.started,cued_recall_2.stopped,recalled_attr2,key_continue_2.keys,key_continue_2.rt,key_continue_2.duration,key_resp_8.started,key_resp_8.keys,key_resp_8.rt,key_resp_8.duration,condition,date,expName,psychopyVersion,frameRate,participant,expStart,
,,,,,,,,,,,,,,,,,,,,,,,,,,,,,0.11043979999999465,0.11052369999993061,0.11053199999992103,13.449804100000165,,,,,,,,,,,,,,,,,,,,,,,,,,,,,,,,,,,,,1,,,,,,,,,,,,,,,,,,,,,,,,,,,,,,,,,,,,,,,,,,,,,,,,,,,,,,,,,,,,,,,,,,,,,,,,,,1,2024-01-17_11h34.28.330,watkins1,2023.2.3,99.76644674808321,93,2024-01-17 11h34.37.507578 +0000,
,,,,,,,,,,,,,,,,,,,,,,,,,,,,,,,,,13.449853399999938,53.385349600000154,,,,,,,,,,,,,,,,,,,,,,,,,,,,,,,,,,,1,,,,,,,,,,,,,,,,,,,,,,,,,,,,,,,,,,,,,,,,,,,,,,,,,,,,,,,,,,,,,,,,,,,,,,,,,,1,2024-01-17_11h34.28.330,watkins1,2023.2.3,99.76644674808321,93,2024-01-17 11h34.37.507578 +0000,
,,,0,0,0,0,,,,,,,,,,,,,,,,,,,,,54.39866699999993,,,,,,,,53.38536500000009,54.388708699999825,60.888410099999874,61.37947440000016,54.88106830000015,60.88823000000002,1,2.1135951000001114,None,61.37948460000007,67.38890170000013,1,2.1135951000001114,None,67.38919699999997,67.3892222999998,67.38922950000006,67.38931379999985,,None,None,67.3894765,67.38949769999999,67.38950479999994,67.38957769999979,,,,,,,,,,1,,,,,,,,,,,,,,,,,,,,,,,,,,,,,,,,,,,,,,,,,,,,,,,,,,,,,,,,,,,,,,,,,,,,,,,,,,1,2024-01-17_11h34.28.330,watkins1,2023.2.3,99.76644674808321,93,2024-01-17 11h34.37.507578 +0000,
,,,,,,,,,,,,,,,,,,,,,,,,,,,,,,,,,,,,,,,,,,,,,,,,,,,,,,,,,,,,,67.38969180000004,70.40724390000014,,,,,,,1,,,,,,,,,,,,,,,,,,,,,,,,,,,,,,,,,,,,,,,,,,,,,,,,,,,,,,,,,,,,,,,,,,,,,,,,,,1,2024-01-17_11h34.28.330,watkins1,2023.2.3,99.76644674808321,93,2024-01-17 11h34.37.507578 +0000,
,,,,,,,0,0,0,0,,,,,,,,,,,,,,,,,71.42101980000007,,,,,,,,70.40725979999979,71.41107929999998,71.41152580000016,71.9031315000002,,,3,2.293202199999996,,,,,,,,,,,,,,,,,,,,,71.90314269999999,77.90512919999992,Lampe,praktisch,"['Lampe', 'praktisch']",control,1,"['Lampe', 'Kiste', 'Kamera', 'Flasche', 'Löffel', 'Tasse', 'Geige', 'Kerze', 'Rucksack', 'Telefon', 'Eimer', 'Kette', 'Brille', 'Buch', 'Stift', 'Fahrrad', 'Hammer', 'Trommel', 'Socke', 'Tasche', 'Blume', 'Schlüssel']",['praktisch'],3,2.293202199999996,None,,,,,,,,,,,,,,,,,,,,,,,,,,,,,,,,,,,,,,,,,,,,,,,,,,,,,,,,,,,,,,,,,,,,,1,2024-01-17_11h34.28.330,watkins1,2023.2.3,99.76644674808321,93,2024-01-17 11h34.37.507578 +0000,
,,,,,,,1,0,1,0,,,,,,,,,,,,,,,,,77.91461819999995,,,,,,,,,,77.90573750000021,78.3970647000001,,,1,1.5641517999997632,,,,,,,,,,,,,,,,,,,,,78.39707529999987,84.39953090000017,Kiste,niedlich,"['Kiste', 'niedlich']",control,1,"['Lampe', 'Kiste', 'Kamera', 'Flasche', 'Löffel', 'Tasse', 'Geige', 'Kerze', 'Rucksack', 'Telefon', 'Eimer', 'Kette', 'Brille', 'Buch', 'Stift', 'Fahrrad', 'Hammer', 'Trommel', 'Socke', 'Tasche', 'Blume', 'Schlüssel']","['praktisch', 'niedlich']",1,1.5641517999997632,None,,,,,,,,,,,,,,,,,,,,,,,,,,,,,,,,,,,,,,,,,,,,,,,,,,,,,,,,,,,,,,,,,,,,,1,2024-01-17_11h34.28.330,watkins1,2023.2.3,99.76644674808321,93,2024-01-17 11h34.37.507578 +0000,
,,,,,,,2,0,2,0,,,,,,,,,,,,,,,,,84.40901089999988,,,,,,,,,,84.40000740000005,84.89094380000006,,,1,1.4227127000003748,,,,,,,,,,,,,,,,,,,,,84.89095429999998,90.89275739999994,Kamera,biegsam,"['Kamera', 'biegsam']",control,1,"['Lampe', 'Kiste', 'Kamera', 'Flasche', 'Löffel', 'Tasse', 'Geige', 'Kerze', 'Rucksack', 'Telefon', 'Eimer', 'Kette', 'Brille', 'Buch', 'Stift', 'Fahrrad', 'Hammer', 'Trommel', 'Socke', 'Tasche', 'Blume', 'Schlüssel']","['praktisch', 'niedlich', 'biegsam']",1,1.4227127000003748,None,,,,,,,,,,,,,,,,,,,,,,,,,,,,,,,,,,,,,,,,,,,,,,,,,,,,,,,,,,,,,,,,,,,,,1,2024-01-17_11h34.28.330,watkins1,2023.2.3,99.76644674808321,93,2024-01-17 11h34.37.507578 +0000,
,,,,,,,3,0,3,0,,,,,,,,,,,,,,,,,90.90227180000011,,,,,,,,,,90.89324739999984,91.38433010000017,,,2,1.6822878000002675,,,,,,,,,,,,,,,,,,,,,91.38434210000014,97.38623009999992,Flasche,lang,"['Flasche', 'lang']",restudy_diff,1,"['Lampe', 'Kiste', 'Kamera', 'Flasche', 'Löffel', 'Tasse', 'Geige', 'Kerze', 'Rucksack', 'Telefon', 'Eimer', 'Kette', 'Brille', 'Buch', 'Stift', 'Fahrrad', 'Hammer', 'Trommel', 'Socke', 'Tasche', 'Blume', 'Schlüssel']","['praktisch', 'niedlich', 'biegsam', 'lang']",2,1.6822878000002675,None,,,,,,,,,,,,,,,,,,,,,,,,,,,,,,,,,,,,,,,,,,,,,,,,,,,,,,,,,,,,,,,,,,,,,1,2024-01-17_11h34.28.330,watkins1,2023.2.3,99.76644674808321,93,2024-01-17 11h34.37.507578 +0000,
,,,,,,,4,0,4,0,,,,,,,,,,,,,,,,,97.3957690000002,,,,,,,,,,97.38669960000016,97.87787579999986,,,1,3.707071199999973,,,,,,,,,,,,,,,,,,,,,97.87788670000009,103.8837039,Löffel,winzig,"['Löffel', 'winzig']",restudy_diff,1,"['Lampe', 'Kiste', 'Kamera', 'Flasche', 'Löffel', 'Tasse', 'Geige', 'Kerze', 'Rucksack', 'Telefon', 'Eimer', 'Kette', 'Brille', 'Buch', 'Stift', 'Fahrrad', 'Hammer', 'Trommel', 'Socke', 'Tasche', 'Blume', 'Schlüssel']","['praktisch', 'niedlich', 'biegsam', 'lang', 'winzig']",1,3.707071199999973,None,,,,,,,,,,,,,,,,,,,,,,,,,,,,,,,,,,,,,,,,,,,,,,,,,,,,,,,,,,,,,,,,,,,,,1,2024-01-17_11h34.28.330,watkins1,2023.2.3,99.76644674808321,93,2024-01-17 11h34.37.507578 +0000,
,,,,,,,5,0,5,0,,,,,,,,,,,,,,,,,103.8932479,,,,,,,,,,103.88417750000008,104.37532389999978,,,1,3.1306411999999,,,,,,,,,,,,,,,,,,,,,104.37533450000001,110.37643919999982,Tasse,lustig,"['Tasse', 'lustig']",restudy_diff,1,"['Lampe', 'Kiste', 'Kamera', 'Flasche', 'Löffel', 'Tasse', 'Geige', 'Kerze', 'Rucksack', 'Telefon', 'Eimer', 'Kette', 'Brille', 'Buch', 'Stift', 'Fahrrad', 'Hammer', 'Trommel', 'Socke', 'Tasche', 'Blume', 'Schlüssel']","['praktisch', 'niedlich', 'biegsam', 'lang', 'winzig', 'lustig']",1,3.1306411999999,None,,,,,,,,,,,,,,,,,,,,,,,,,,,,,,,,,,,,,,,,,,,,,,,,,,,,,,,,,,,,,,,,,,,,,1,2024-01-17_11h34.28.330,watkins1,2023.2.3,99.76644674808321,93,2024-01-17 11h34.37.507578 +0000,
,,,,,,,6,0,6,0,,,,,,,,,,,,,,,,,110.3859607999998,,,,,,,,,,110.37706029999981,110.86780880000015,,,3,4.446443199999976,,,,,,,,,,,,,,,,,,,,,110.86781969999993,116.86856859999989,Geige,dunkel,"['Geige', 'dunkel']",restudy_diff,1,"['Lampe', 'Kiste', 'Kamera', 'Flasche', 'Löffel', 'Tasse', 'Geige', 'Kerze', 'Rucksack', 'Telefon', 'Eimer', 'Kette', 'Brille', 'Buch', 'Stift', 'Fahrrad', 'Hammer', 'Trommel', 'Socke', 'Tasche', 'Blume', 'Schlüssel']","['praktisch', 'niedlich', 'biegsam', 'lang', 'winzig', 'lustig', 'dunkel']",3,4.446443199999976,None,,,,,,,,,,,,,,,,,,,,,,,,,,,,,,,,,,,,,,,,,,,,,,,,,,,,,,,,,,,,,,,,,,,,,1,2024-01-17_11h34.28.330,watkins1,2023.2.3,99.76644674808321,93,2024-01-17 11h34.37.507578 +0000,
,,,,,,,7,0,7,0,,,,,,,,,,,,,,,,,116.8780412000001,,,,,,,,,,116.86904080000022,117.36015959999986,,,1,1.4822933000000376,,,,,,,,,,,,,,,,,,,,,117.36017029999994,123.36145669999996,Kerze,hohl,"['Kerze', 'hohl']",control,1,"['Lampe', 'Kiste', 'Kamera', 'Flasche', 'Löffel', 'Tasse', 'Geige', 'Kerze', 'Rucksack', 'Telefon', 'Eimer', 'Kette', 'Brille', 'Buch', 'Stift', 'Fahrrad', 'Hammer', 'Trommel', 'Socke', 'Tasche', 'Blume', 'Schlüssel']","['praktisch', 'niedlich', 'biegsam', 'lang', 'winzig', 'lustig', 'dunkel', 'hohl']",1,1.4822933000000376,None,,,,,,,,,,,,,,,,,,,,,,,,,,,,,,,,,,,,,,,,,,,,,,,,,,,,,,,,,,,,,,,,,,,,,1,2024-01-17_11h34.28.330,watkins1,2023.2.3,99.76644674808321,93,2024-01-17 11h34.37.507578 +0000,
,,,,,,,8,0,8,0,,,,,,,,,,,,,,,,,123.37092940000002,,,,,,,,,,123.36193150000008,123.85280460000013,,,3,1.3091792999998688,,,,,,,,,,,,,,,,,,,,,123.8528153000002,129.85568479999984,Rucksack,schwer,"['Rucksack', 'schwer']",restudy_diff,1,"['Lampe', 'Kiste', 'Kamera', 'Flasche', 'Löffel', 'Tasse', 'Geige', 'Kerze', 'Rucksack', 'Telefon', 'Eimer', 'Kette', 'Brille', 'Buch', 'Stift', 'Fahrrad', 'Hammer', 'Trommel', 'Socke', 'Tasche', 'Blume', 'Schlüssel']","['praktisch', 'niedlich', 'biegsam', 'lang', 'winzig', 'lustig', 'dunkel', 'hohl', 'schwer']",3,1.3091792999998688,None,,,,,,,,,,,,,,,,,,,,,,,,,,,,,,,,,,,,,,,,,,,,,,,,,,,,,,,,,,,,,,,,,,,,,1,2024-01-17_11h34.28.330,watkins1,2023.2.3,99.76644674808321,93,2024-01-17 11h34.37.507578 +0000,
,,,,,,,9,0,9,0,,,,,,,,,,,,,,,,,129.86516930000016,,,,,,,,,,129.85615899999993,130.34752770000023,,,1,3.1516897000001336,,,,,,,,,,,,,,,,,,,,,130.34753869999986,136.35010469999997,Telefon,kalt,"['Telefon', 'kalt']",control,1,"['Lampe', 'Kiste', 'Kamera', 'Flasche', 'Löffel', 'Tasse', 'Geige', 'Kerze', 'Rucksack', 'Telefon', 'Eimer', 'Kette', 'Brille', 'Buch', 'Stift', 'Fahrrad', 'Hammer', 'Trommel', 'Socke', 'Tasche', 'Blume', 'Schlüssel']","['praktisch', 'niedlich', 'biegsam', 'lang', 'winzig', 'lustig', 'dunkel', 'hohl', 'schwer', 'kalt']",1,3.1516897000001336,None,,,,,,,,,,,,,,,,,,,,,,,,,,,,,,,,,,,,,,,,,,,,,,,,,,,,,,,,,,,,,,,,,,,,,1,2024-01-17_11h34.28.330,watkins1,2023.2.3,99.76644674808321,93,2024-01-17 11h34.37.507578 +0000,
,,,,,,,10,0,10,0,,,,,,,,,,,,,,,,,136.35954989999982,,,,,,,,,,136.35057169999982,136.84165570000005,,,3,1.9041800999998486,,,,,,,,,,,,,,,,,,,,,136.8416661000001,142.8446957000001,Eimer,groß,"['Eimer', 'groß']",restudy_diff,1,"['Lampe', 'Kiste', 'Kamera', 'Flasche', 'Löffel', 'Tasse', 'Geige', 'Kerze', 'Rucksack', 'Telefon', 'Eimer', 'Kette', 'Brille', 'Buch', 'Stift', 'Fahrrad', 'Hammer', 'Trommel', 'Socke', 'Tasche', 'Blume', 'Schlüssel']","['praktisch', 'niedlich', 'biegsam', 'lang', 'winzig', 'lustig', 'dunkel', 'hohl', 'schwer', 'kalt', 'groß']",3,1.9041800999998486,None,,,,,,,,,,,,,,,,,,,,,,,,,,,,,,,,,,,,,,,,,,,,,,,,,,,,,,,,,,,,,,,,,,,,,1,2024-01-17_11h34.28.330,watkins1,2023.2.3,99.76644674808321,93,2024-01-17 11h34.37.507578 +0000,
,,,,,,,11,0,11,0,,,,,,,,,,,,,,,,,142.85419730000012,,,,,,,,,,142.8451610000002,143.3362616999998,,,2,3.0668808000000354,,,,,,,,,,,,,,,,,,,,,143.33627230000002,149.33860800000002,Kette,glatt,"['Kette', 'glatt']",restudy_diff,1,"['Lampe', 'Kiste', 'Kamera', 'Flasche', 'Löffel', 'Tasse', 'Geige', 'Kerze', 'Rucksack', 'Telefon', 'Eimer', 'Kette', 'Brille', 'Buch', 'Stift', 'Fahrrad', 'Hammer', 'Trommel', 'Socke', 'Tasche', 'Blume', 'Schlüssel']","['praktisch', 'niedlich', 'biegsam', 'lang', 'winzig', 'lustig', 'dunkel', 'hohl', 'schwer', 'kalt', 'groß', 'glatt']",2,3.0668808000000354,None,,,,,,,,,,,,,,,,,,,,,,,,,,,,,,,,,,,,,,,,,,,,,,,,,,,,,,,,,,,,,,,,,,,,,1,2024-01-17_11h34.28.330,watkins1,2023.2.3,99.76644674808321,93,2024-01-17 11h34.37.507578 +0000,
,,,,,,,12,0,12,0,,,,,,,,,,,,,,,,,149.34809300000006,,,,,,,,,,149.33907379999982,149.8300420999999,,,1,3.036345600000004,,,,,,,,,,,,,,,,,,,,,149.83005270000012,155.84056490000012,Brille,nass,"['Brille', 'nass']",restudy_diff,1,"['Lampe', 'Kiste', 'Kamera', 'Flasche', 'Löffel', 'Tasse', 'Geige', 'Kerze', 'Rucksack', 'Telefon', 'Eimer', 'Kette', 'Brille', 'Buch', 'Stift', 'Fahrrad', 'Hammer', 'Trommel', 'Socke', 'Tasche', 'Blume', 'Schlüssel']","['praktisch', 'niedlich', 'biegsam', 'lang', 'winzig', 'lustig', 'dunkel', 'hohl', 'schwer', 'kalt', 'groß', 'glatt', 'nass']",1,3.036345600000004,None,,,,,,,,,,,,,,,,,,,,,,,,,,,,,,,,,,,,,,,,,,,,,,,,,,,,,,,,,,,,,,,,,,,,,1,2024-01-17_11h34.28.330,watkins1,2023.2.3,99.76644674808321,93,2024-01-17 11h34.37.507578 +0000,
,,,,,,,13,0,13,0,,,,,,,,,,,,,,,,,155.8500822000001,,,,,,,,,,155.8410342000002,156.33219770000005,,,1,1.8631000999998832,,,,,,,,,,,,,,,,,,,,,156.33220900000015,162.3372030999999,Buch,kratzig,"['Buch', 'kratzig']",restudy_diff,1,"['Lampe', 'Kiste', 'Kamera', 'Flasche', 'Löffel', 'Tasse', 'Geige', 'Kerze', 'Rucksack', 'Telefon', 'Eimer', 'Kette', 'Brille', 'Buch', 'Stift', 'Fahrrad', 'Hammer', 'Trommel', 'Socke', 'Tasche', 'Blume', 'Schlüssel']","['praktisch', 'niedlich', 'biegsam', 'lang', 'winzig', 'lustig', 'dunkel', 'hohl', 'schwer', 'kalt', 'groß', 'glatt', 'nass', 'kratzig']",1,1.8631000999998832,None,,,,,,,,,,,,,,,,,,,,,,,,,,,,,,,,,,,,,,,,,,,,,,,,,,,,,,,,,,,,,,,,,,,,,1,2024-01-17_11h34.28.330,watkins1,2023.2.3,99.76644674808321,93,2024-01-17 11h34.37.507578 +0000,
,,,,,,,14,0,14,0,,,,,,,,,,,,,,,,,162.3466781000002,,,,,,,,,,162.3376801999998,162.8287062999998,,,1,2.3976278000000093,,,,,,,,,,,,,,,,,,,,,162.82871720000003,168.8353360000001,Stift,durchsichtig,"['Stift', 'durchsichtig']",restudy_diff,1,"['Lampe', 'Kiste', 'Kamera', 'Flasche', 'Löffel', 'Tasse', 'Geige', 'Kerze', 'Rucksack', 'Telefon', 'Eimer', 'Kette', 'Brille', 'Buch', 'Stift', 'Fahrrad', 'Hammer', 'Trommel', 'Socke', 'Tasche', 'Blume', 'Schlüssel']","['praktisch', 'niedlich', 'biegsam', 'lang', 'winzig', 'lustig', 'dunkel', 'hohl', 'schwer', 'kalt', 'groß', 'glatt', 'nass', 'kratzig', 'durchsichtig']",1,2.3976278000000093,None,,,,,,,,,,,,,,,,,,,,,,,,,,,,,,,,,,,,,,,,,,,,,,,,,,,,,,,,,,,,,,,,,,,,,1,2024-01-17_11h34.28.330,watkins1,2023.2.3,99.76644674808321,93,2024-01-17 11h34.37.507578 +0000,
,,,,,,,15,0,15,0,,,,,,,,,,,,,,,,,168.8447643999998,,,,,,,,,,168.8358121000001,169.32701839999982,,,3,1.4839593000001514,,,,,,,,,,,,,,,,,,,,,169.32702930000005,175.33149259999982,Fahrrad,schmutzig,"['Fahrrad', 'schmutzig']",control,1,"['Lampe', 'Kiste', 'Kamera', 'Flasche', 'Löffel', 'Tasse', 'Geige', 'Kerze', 'Rucksack', 'Telefon', 'Eimer', 'Kette', 'Brille', 'Buch', 'Stift', 'Fahrrad', 'Hammer', 'Trommel', 'Socke', 'Tasche', 'Blume', 'Schlüssel']","['praktisch', 'niedlich', 'biegsam', 'lang', 'winzig', 'lustig', 'dunkel', 'hohl', 'schwer', 'kalt', 'groß', 'glatt', 'nass', 'kratzig', 'durchsichtig', 'schmutzig']",3,1.4839593000001514,None,,,,,,,,,,,,,,,,,,,,,,,,,,,,,,,,,,,,,,,,,,,,,,,,,,,,,,,,,,,,,,,,,,,,,1,2024-01-17_11h34.28.330,watkins1,2023.2.3,99.76644674808321,93,2024-01-17 11h34.37.507578 +0000,
,,,,,,,16,0,16,0,,,,,,,,,,,,,,,,,175.34099539999988,,,,,,,,,,175.33196279999993,175.82310129999996,,,3,1.235636599999907,,,,,,,,,,,,,,,,,,,,,175.82311160000017,181.82422240000005,Hammer,gut,"['Hammer', 'gut']",restudy_diff,1,"['Lampe', 'Kiste', 'Kamera', 'Flasche', 'Löffel', 'Tasse', 'Geige', 'Kerze', 'Rucksack', 'Telefon', 'Eimer', 'Kette', 'Brille', 'Buch', 'Stift', 'Fahrrad', 'Hammer', 'Trommel', 'Socke', 'Tasche', 'Blume', 'Schlüssel']","['praktisch', 'niedlich', 'biegsam', 'lang', 'winzig', 'lustig', 'dunkel', 'hohl', 'schwer', 'kalt', 'groß', 'glatt', 'nass', 'kratzig', 'durchsichtig', 'schmutzig', 'gut']",3,1.235636599999907,None,,,,,,,,,,,,,,,,,,,,,,,,,,,,,,,,,,,,,,,,,,,,,,,,,,,,,,,,,,,,,,,,,,,,,1,2024-01-17_11h34.28.330,watkins1,2023.2.3,99.76644674808321,93,2024-01-17 11h34.37.507578 +0000,
,,,,,,,17,0,17,0,,,,,,,,,,,,,,,,,181.8337007,,,,,,,,,,181.82469889999993,182.31574180000007,,,1,1.8796556000002056,,,,,,,,,,,,,,,,,,,,,182.31575269999985,188.32493030000023,Trommel,elegant,"['Trommel', 'elegant']",restudy_diff,1,"['Lampe', 'Kiste', 'Kamera', 'Flasche', 'Löffel', 'Tasse', 'Geige', 'Kerze', 'Rucksack', 'Telefon', 'Eimer', 'Kette', 'Brille', 'Buch', 'Stift', 'Fahrrad', 'Hammer', 'Trommel', 'Socke', 'Tasche', 'Blume', 'Schlüssel']","['praktisch', 'niedlich', 'biegsam', 'lang', 'winzig', 'lustig', 'dunkel', 'hohl', 'schwer', 'kalt', 'groß', 'glatt', 'nass', 'kratzig', 'durchsichtig', 'schmutzig', 'gut', 'elegant']",1,1.8796556000002056,None,,,,,,,,,,,,,,,,,,,,,,,,,,,,,,,,,,,,,,,,,,,,,,,,,,,,,,,,,,,,,,,,,,,,,1,2024-01-17_11h34.28.330,watkins1,2023.2.3,99.76644674808321,93,2024-01-17 11h34.37.507578 +0000,
,,,,,,,18,0,18,0,,,,,,,,,,,,,,,,,188.33439270000008,,,,,,,,,,188.32540280000012,188.8165551000002,,,2,2.6585473999998612,,,,,,,,,,,,,,,,,,,,,188.8165657999998,194.8265618999999,Socke,gepunktet,"['Socke', 'gepunktet']",control,1,"['Lampe', 'Kiste', 'Kamera', 'Flasche', 'Löffel', 'Tasse', 'Geige', 'Kerze', 'Rucksack', 'Telefon', 'Eimer', 'Kette', 'Brille', 'Buch', 'Stift', 'Fahrrad', 'Hammer', 'Trommel', 'Socke', 'Tasche', 'Blume', 'Schlüssel']","['praktisch', 'niedlich', 'biegsam', 'lang', 'winzig', 'lustig', 'dunkel', 'hohl', 'schwer', 'kalt', 'groß', 'glatt', 'nass', 'kratzig', 'durchsichtig', 'schmutzig', 'gut', 'elegant', 'gepunktet']",2,2.6585473999998612,None,,,,,,,,,,,,,,,,,,,,,,,,,,,,,,,,,,,,,,,,,,,,,,,,,,,,,,,,,,,,,,,,,,,,,1,2024-01-17_11h34.28.330,watkins1,2023.2.3,99.76644674808321,93,2024-01-17 11h34.37.507578 +0000,
,,,,,,,19,0,19,0,,,,,,,,,,,,,,,,,194.83607570000004,,,,,,,,,,194.82704909999984,195.3181711000002,,,2,4.636897699999736,,,,,,,,,,,,,,,,,,,,,195.3181813000001,201.3195378999999,Tasche,sauber,"['Tasche', 'sauber']",restudy_diff,1,"['Lampe', 'Kiste', 'Kamera', 'Flasche', 'Löffel', 'Tasse', 'Geige', 'Kerze', 'Rucksack', 'Telefon', 'Eimer', 'Kette', 'Brille', 'Buch', 'Stift', 'Fahrrad', 'Hammer', 'Trommel', 'Socke', 'Tasche', 'Blume', 'Schlüssel']","['praktisch', 'niedlich', 'biegsam', 'lang', 'winzig', 'lustig', 'dunkel', 'hohl', 'schwer', 'kalt', 'groß', 'glatt', 'nass', 'kratzig', 'durchsichtig', 'schmutzig', 'gut', 'elegant', 'gepunktet', 'sauber']",2,4.636897699999736,None,,,,,,,,,,,,,,,,,,,,,,,,,,,,,,,,,,,,,,,,,,,,,,,,,,,,,,,,,,,,,,,,,,,,,1,2024-01-17_11h34.28.330,watkins1,2023.2.3,99.76644674808321,93,2024-01-17 11h34.37.507578 +0000,
,,,,,,,20,0,20,0,,,,,,,,,,,,,,,,,201.3290353000002,,,,,,,,,,201.32000440000002,201.81106980000004,,,1,3.6559235999998236,,,,,,,,,,,,,,,,,,,,,201.81107939999993,207.81202059999987,Blume,flauschig,"['Blume', 'flauschig']",restudy_diff,1,"['Lampe', 'Kiste', 'Kamera', 'Flasche', 'Löffel', 'Tasse', 'Geige', 'Kerze', 'Rucksack', 'Telefon', 'Eimer', 'Kette', 'Brille', 'Buch', 'Stift', 'Fahrrad', 'Hammer', 'Trommel', 'Socke', 'Tasche', 'Blume', 'Schlüssel']","['praktisch', 'niedlich', 'biegsam', 'lang', 'winzig', 'lustig', 'dunkel', 'hohl', 'schwer', 'kalt', 'groß', 'glatt', 'nass', 'kratzig', 'durchsichtig', 'schmutzig', 'gut', 'elegant', 'gepunktet', 'sauber', 'flauschig']",1,3.6559235999998236,None,,,,,,,,,,,,,,,,,,,,,,,,,,,,,,,,,,,,,,,,,,,,,,,,,,,,,,,,,,,,,,,,,,,,,1,2024-01-17_11h34.28.330,watkins1,2023.2.3,99.76644674808321,93,2024-01-17 11h34.37.507578 +0000,
,,,,,,,21,0,21,0,,,,,,,,,,,,,,,,,207.8215153000001,,,,,,,,,,207.81250039999986,208.3036621000001,,,1,2.0427777999998398,,,,,,,,,,,,,,,,,,,,,208.3036729999999,214.30511380000007,Schlüssel,matt,"['Schlüssel', 'matt']",restudy_diff,1,"['Lampe', 'Kiste', 'Kamera', 'Flasche', 'Löffel', 'Tasse', 'Geige', 'Kerze', 'Rucksack', 'Telefon', 'Eimer', 'Kette', 'Brille', 'Buch', 'Stift', 'Fahrrad', 'Hammer', 'Trommel', 'Socke', 'Tasche', 'Blume', 'Schlüssel']","['praktisch', 'niedlich', 'biegsam', 'lang', 'winzig', 'lustig', 'dunkel', 'hohl', 'schwer', 'kalt', 'groß', 'glatt', 'nass', 'kratzig', 'durchsichtig', 'schmutzig', 'gut', 'elegant', 'gepunktet', 'sauber', 'flauschig', 'matt']",1,2.0427777999998398,None,,,,,,,,,,,,,,,,,,,,,,,,,,,,,,,,,,,,,,,,,,,,,,,,,,,,,,,,,,,,,,,,,,,,,1,2024-01-17_11h34.28.330,watkins1,2023.2.3,99.76644674808321,93,2024-01-17 11h34.37.507578 +0000,
,,,,,,,,,,,0,0,0,0,,,,,,,,,,,,,214.31458250000014,,,,,,,,,,214.30593670000007,214.7966363999999,,,1,4.383690699999988,,,,,,,,,,,,None,None,,,,,,,,,,Löffel,verspielt,"['Löffel', 'verspielt']",restudy_diff,1,,,,,,214.30586080000012,214.30591110000023,"['Löffel', 'Schlüssel', 'Hut', 'Jacke', 'Tasse', 'Uhr', 'Trommel', 'Stift', 'Blume', 'Hammer', 'Eimer', 'Geige', 'Ring', 'Rucksack', 'Brille', 'Tasche', 'Würfel', 'Flasche', 'Kette', 'Vase', 'Schere', 'Bürste', 'Buch']",214.79664679999996,214.79923670000017,None,214.79940960000022,214.80212710000023,None,214.80228260000013,220.8119225999999,1,4.383690699999988,None,220.81232309999996,220.8137531000002,220.8137654000002,220.8150258999999,,,,,,,,,,,,,,,,,,,,,,,,,,,,,,,,,,,,,,,,,,,,,,,,,,,1,2024-01-17_11h34.28.330,watkins1,2023.2.3,99.76644674808321,93,2024-01-17 11h34.37.507578 +0000,
,,,,,,,,,,,1,0,1,0,,,,,,,,,,,,,220.82142079999994,,,,,,,,,,220.81529790000013,221.31357939999998,,,2,1.308061799999905,,,,,,,,,,,,None,None,,,,,,,,,,Schlüssel,rustikal,"['Schlüssel', 'rustikal']",restudy_diff,1,,,,,,220.81523210000023,220.81527050000022,"['Löffel', 'Schlüssel', 'Hut', 'Jacke', 'Tasse', 'Uhr', 'Trommel', 'Stift', 'Blume', 'Hammer', 'Eimer', 'Geige', 'Ring', 'Rucksack', 'Brille', 'Tasche', 'Würfel', 'Flasche', 'Kette', 'Vase', 'Schere', 'Bürste', 'Buch']",221.31359049999992,221.31650760000002,None,221.31662480000023,221.31932490000008,None,221.3194279999998,227.32718849999992,2,1.308061799999905,None,227.32746610000004,227.3288689000001,227.3288806999999,227.33013170000004,,,,,,,,,,,,,,,,,,,,,,,,,,,,,,,,,,,,,,,,,,,,,,,,,,,1,2024-01-17_11h34.28.330,watkins1,2023.2.3,99.76644674808321,93,2024-01-17 11h34.37.507578 +0000,
,,,,,,,,,,,2,0,2,0,,,,,,,,,,,,,227.33661489999986,,,,,,,,,,227.33040070000015,227.82862239999986,,,[],[],,,,,,,,,,,,None,None,,,,,,,,,,Hut,neu,"['Hut', 'neu']",control,1,,,,,,227.3303363,227.33037419999982,"['Löffel', 'Schlüssel', 'Hut', 'Jacke', 'Tasse', 'Uhr', 'Trommel', 'Stift', 'Blume', 'Hammer', 'Eimer', 'Geige', 'Ring', 'Rucksack', 'Brille', 'Tasche', 'Würfel', 'Flasche', 'Kette', 'Vase', 'Schere', 'Bürste', 'Buch']",227.82863450000013,233.82937129999982,2,233.8297209000002,233.8320923000001,None,233.8321950999998,233.83442120000018,None,,,233.83452380000017,233.83556469999985,233.83557770000016,233.83671619999996,2.09391450000021,None,,,,,,,,,,,,,,,,,,,,,,,,,,,,,,,,,,,,,,,,,,,,,,,,,1,2024-01-17_11h34.28.330,watkins1,2023.2.3,99.76644674808321,93,2024-01-17 11h34.37.507578 +0000,
,,,,,,,,,,,3,0,3,0,,,,,,,,,,,,,233.84037230000013,,,,,,,,,,233.8369813999998,234.33282150000014,,,[],[],,,,,,,,,,,,None,None,,,,,,,,,,Jacke,gestreift,"['Jacke', 'gestreift']",control,1,,,,,,233.8369177999998,233.8369563000001,"['Löffel', 'Schlüssel', 'Hut', 'Jacke', 'Tasse', 'Uhr', 'Trommel', 'Stift', 'Blume', 'Hammer', 'Eimer', 'Geige', 'Ring', 'Rucksack', 'Brille', 'Tasche', 'Würfel', 'Flasche', 'Kette', 'Vase', 'Schere', 'Bürste', 'Buch']",234.33283260000007,240.33374709999998,2,240.33402119999982,240.33682929999986,None,240.33693600000015,240.3396262000001,None,,,240.33973030000016,240.34128640000017,240.34129810000013,240.34255269999994,3.364930100000038,None,,,,,,,,,,,,,,,,,,,,,,,,,,,,,,,,,,,,,,,,,,,,,,,,,1,2024-01-17_11h34.28.330,watkins1,2023.2.3,99.76644674808321,93,2024-01-17 11h34.37.507578 +0000,
,,,,,,,,,,,4,0,4,0,,,,,,,,,,,,,240.34619629999997,,,,,,,,,,240.3429056,240.84017929999982,,,3,2.823810500000036,,,,,,,,,,,,None,None,,,,,,,,,,Tasse,schlicht,"['Tasse', 'schlicht']",restudy_diff,1,,,,,,240.3427574000002,240.34288000000015,"['Löffel', 'Schlüssel', 'Hut', 'Jacke', 'Tasse', 'Uhr', 'Trommel', 'Stift', 'Blume', 'Hammer', 'Eimer', 'Geige', 'Ring', 'Rucksack', 'Brille', 'Tasche', 'Würfel', 'Flasche', 'Kette', 'Vase', 'Schere', 'Bürste', 'Buch']",240.8401901000002,240.8417813000001,None,240.84190100000023,240.84335479999982,None,240.8434588,246.8487911000002,3,2.823810500000036,None,246.84907239999984,246.85039450000022,246.85040639999988,246.85166299999992,,,,,,,,,,,,,,,,,,,,,,,,,,,,,,,,,,,,,,,,,,,,,,,,,,,1,2024-01-17_11h34.28.330,watkins1,2023.2.3,99.76644674808321,93,2024-01-17 11h34.37.507578 +0000,
,,,,,,,,,,,5,0,5,0,,,,,,,,,,,,,246.85824060000004,,,,,,,,,,246.85193519999984,247.35032610000007,,,[],[],,,,,,,,,,,,None,None,,,,,,,,,,Uhr,glänzend,"['Uhr', 'glänzend']",control,1,,,,,,246.8518696000001,246.85190809999995,"['Löffel', 'Schlüssel', 'Hut', 'Jacke', 'Tasse', 'Uhr', 'Trommel', 'Stift', 'Blume', 'Hammer', 'Eimer', 'Geige', 'Ring', 'Rucksack', 'Brille', 'Tasche', 'Würfel', 'Flasche', 'Kette', 'Vase', 'Schere', 'Bürste', 'Buch']",247.3503369,253.3551610999998,2,253.35543719999987,253.3580522000002,None,253.35815580000008,253.3605851000002,None,,,253.36068720000003,253.3617038000002,253.36171520000016,253.36293190000015,1.3315188999999918,None,,,,,,,,,,,,,,,,,,,,,,,,,,,,,,,,,,,,,,,,,,,,,,,,,1,2024-01-17_11h34.28.330,watkins1,2023.2.3,99.76644674808321,93,2024-01-17 11h34.37.507578 +0000,
,,,,,,,,,,,6,0,6,0,,,,,,,,,,,,,253.36660759999995,,,,,,,,,,253.36319570000023,253.8594505000001,,,3,3.4926746999999523,,,,,,,,,,,,None,None,,,,,,,,,,Trommel,klobig,"['Trommel', 'klobig']",restudy_diff,1,,,,,,253.36313259999997,253.36317180000015,"['Löffel', 'Schlüssel', 'Hut', 'Jacke', 'Tasse', 'Uhr', 'Trommel', 'Stift', 'Blume', 'Hammer', 'Eimer', 'Geige', 'Ring', 'Rucksack', 'Brille', 'Tasche', 'Würfel', 'Flasche', 'Kette', 'Vase', 'Schere', 'Bürste', 'Buch']",253.85946120000017,253.86106299999983,None,253.86118119999992,253.8626816000001,None,253.86278260000017,259.8664426999999,3,3.4926746999999523,None,259.8667114,259.8680810000001,259.8680927999999,259.86926619999986,,,,,,,,,,,,,,,,,,,,,,,,,,,,,,,,,,,,,,,,,,,,,,,,,,,1,2024-01-17_11h34.28.330,watkins1,2023.2.3,99.76644674808321,93,2024-01-17 11h34.37.507578 +0000,
,,,,,,,,,,,7,0,7,0,,,,,,,,,,,,,259.87585709999985,,,,,,,,,,259.8695286000002,260.3678427,,,1,2.6298299000000043,,,,,,,,,,,,None,None,,,,,,,,,,Stift,flach,"['Stift', 'flach']",restudy_diff,1,,,,,,259.869467,259.8695038999999,"['Löffel', 'Schlüssel', 'Hut', 'Jacke', 'Tasse', 'Uhr', 'Trommel', 'Stift', 'Blume', 'Hammer', 'Eimer', 'Geige', 'Ring', 'Rucksack', 'Brille', 'Tasche', 'Würfel', 'Flasche', 'Kette', 'Vase', 'Schere', 'Bürste', 'Buch']",260.3678533000002,260.37071259999993,None,260.37082969999983,260.3733886,None,260.3734948000001,266.37785699999995,1,2.6298299000000043,None,266.3781309000001,266.37940419999995,266.37941630000023,266.3805671,,,,,,,,,,,,,,,,,,,,,,,,,,,,,,,,,,,,,,,,,,,,,,,,,,,1,2024-01-17_11h34.28.330,watkins1,2023.2.3,99.76644674808321,93,2024-01-17 11h34.37.507578 +0000,
,,,,,,,,,,,8,0,8,0,,,,,,,,,,,,,266.38736389999985,,,,,,,,,,266.38083559999995,266.87925029999997,,,2,2.5025008999996317,,,,,,,,,,,,None,None,,,,,,,,,,Blume,breit,"['Blume', 'breit']",restudy_diff,1,,,,,,266.38077169999997,266.38081009999996,"['Löffel', 'Schlüssel', 'Hut', 'Jacke', 'Tasse', 'Uhr', 'Trommel', 'Stift', 'Blume', 'Hammer', 'Eimer', 'Geige', 'Ring', 'Rucksack', 'Brille', 'Tasche', 'Würfel', 'Flasche', 'Kette', 'Vase', 'Schere', 'Bürste', 'Buch']",266.8792607999999,266.8820962,None,266.88221269999985,266.88477839999996,None,266.88488289999987,272.8945349999999,2,2.5025008999996317,None,272.89480140000023,272.8960667000001,272.89607849999993,272.89721099999997,,,,,,,,,,,,,,,,,,,,,,,,,,,,,,,,,,,,,,,,,,,,,,,,,,,1,2024-01-17_11h34.28.330,watkins1,2023.2.3,99.76644674808321,93,2024-01-17 11h34.37.507578 +0000,
,,,,,,,,,,,9,0,9,0,,,,,,,,,,,,,272.9039782,,,,,,,,,,272.89747209999996,273.3961226000001,,,1,1.3617107999998552,,,,,,,,,,,,None,None,,,,,,,,,,Hammer,strahlend,"['Hammer', 'strahlend']",restudy_diff,1,,,,,,272.89740930000016,272.8974463999998,"['Löffel', 'Schlüssel', 'Hut', 'Jacke', 'Tasse', 'Uhr', 'Trommel', 'Stift', 'Blume', 'Hammer', 'Eimer', 'Geige', 'Ring', 'Rucksack', 'Brille', 'Tasche', 'Würfel', 'Flasche', 'Kette', 'Vase', 'Schere', 'Bürste', 'Buch']",273.39613340000005,273.3989425,None,273.3990570000001,273.4015847999999,None,273.40169019999985,279.4071595999999,1,1.3617107999998552,None,279.4074378,279.40879700000005,279.408809,279.4100764,,,,,,,,,,,,,,,,,,,,,,,,,,,,,,,,,,,,,,,,,,,,,,,,,,,1,2024-01-17_11h34.28.330,watkins1,2023.2.3,99.76644674808321,93,2024-01-17 11h34.37.507578 +0000,
,,,,,,,,,,,10,0,10,0,,,,,,,,,,,,,279.41662910000014,,,,,,,,,,279.4103442999999,279.90880019999986,,,3,3.5048815000000104,,,,,,,,,,,,None,None,,,,,,,,,,Eimer,nachhaltig,"['Eimer', 'nachhaltig']",restudy_diff,1,,,,,,279.4102806000001,279.4103187999999,"['Löffel', 'Schlüssel', 'Hut', 'Jacke', 'Tasse', 'Uhr', 'Trommel', 'Stift', 'Blume', 'Hammer', 'Eimer', 'Geige', 'Ring', 'Rucksack', 'Brille', 'Tasche', 'Würfel', 'Flasche', 'Kette', 'Vase', 'Schere', 'Bürste', 'Buch']",279.90881089999993,279.9116889000002,None,279.91180870000017,279.91451719999986,None,279.91462580000007,285.91886539999996,3,3.5048815000000104,None,285.91914510000015,285.92045670000016,285.92046849999997,285.92175270000007,,,,,,,,,,,,,,,,,,,,,,,,,,,,,,,,,,,,,,,,,,,,,,,,,,,1,2024-01-17_11h34.28.330,watkins1,2023.2.3,99.76644674808321,93,2024-01-17 11h34.37.507578 +0000,
,,,,,,,,,,,11,0,11,0,,,,,,,,,,,,,285.92833770000016,,,,,,,,,,285.92202,286.42050770000014,,,1,1.2652149000000463,,,,,,,,,,,,None,None,,,,,,,,,,Geige,blass,"['Geige', 'blass']",restudy_diff,1,,,,,,285.9219555999998,285.9219935000001,"['Löffel', 'Schlüssel', 'Hut', 'Jacke', 'Tasse', 'Uhr', 'Trommel', 'Stift', 'Blume', 'Hammer', 'Eimer', 'Geige', 'Ring', 'Rucksack', 'Brille', 'Tasche', 'Würfel', 'Flasche', 'Kette', 'Vase', 'Schere', 'Bürste', 'Buch']",286.4205189999998,286.4234416999998,None,286.42356400000017,286.4261891000001,None,286.4262942999999,292.4305281000002,1,1.2652149000000463,None,292.4308240999999,292.43216140000004,292.4321734,292.43335119999983,,,,,,,,,,,,,,,,,,,,,,,,,,,,,,,,,,,,,,,,,,,,,,,,,,,1,2024-01-17_11h34.28.330,watkins1,2023.2.3,99.76644674808321,93,2024-01-17 11h34.37.507578 +0000,
,,,,,,,,,,,12,0,12,0,,,,,,,,,,,,,292.4399457999998,,,,,,,,,,292.4336242999998,292.932323,,,[],[],,,,,,,,,,,,None,None,,,,,,,,,,Ring,zart,"['Ring', 'zart']",control,1,,,,,,292.43355729999985,292.4335962,"['Löffel', 'Schlüssel', 'Hut', 'Jacke', 'Tasse', 'Uhr', 'Trommel', 'Stift', 'Blume', 'Hammer', 'Eimer', 'Geige', 'Ring', 'Rucksack', 'Brille', 'Tasche', 'Würfel', 'Flasche', 'Kette', 'Vase', 'Schere', 'Bürste', 'Buch']",292.9323344999998,298.9366673999998,3,298.93694080000023,298.9393887000001,None,298.9394949000002,298.9417819,None,,,298.9418856000002,298.94292929999983,298.9429409999998,298.94397960000015,3.6870638999998846,None,,,,,,,,,,,,,,,,,,,,,,,,,,,,,,,,,,,,,,,,,,,,,,,,,1,2024-01-17_11h34.28.330,watkins1,2023.2.3,99.76644674808321,93,2024-01-17 11h34.37.507578 +0000,
,,,,,,,,,,,13,0,13,0,,,,,,,,,,,,,298.94764429999987,,,,,,,,,,298.94424819999995,299.4400188999998,,,1,1.199925599999915,,,,,,,,,,,,None,None,,,,,,,,,,Rucksack,kurz,"['Rucksack', 'kurz']",restudy_diff,1,,,,,,298.94418540000015,298.9442239,"['Löffel', 'Schlüssel', 'Hut', 'Jacke', 'Tasse', 'Uhr', 'Trommel', 'Stift', 'Blume', 'Hammer', 'Eimer', 'Geige', 'Ring', 'Rucksack', 'Brille', 'Tasche', 'Würfel', 'Flasche', 'Kette', 'Vase', 'Schere', 'Bürste', 'Buch']",299.4400291000002,299.44167100000004,None,299.44178790000024,299.4434547000001,None,299.4435582000001,305.4453099000002,1,1.199925599999915,None,305.4455839000002,305.44694519999985,305.4469574,305.4480131999999,,,,,,,,,,,,,,,,,,,,,,,,,,,,,,,,,,,,,,,,,,,,,,,,,,,1,2024-01-17_11h34.28.330,watkins1,2023.2.3,99.76644674808321,93,2024-01-17 11h34.37.507578 +0000,
,,,,,,,,,,,14,0,14,0,,,,,,,,,,,,,305.4547858000001,,,,,,,,,,305.4482834999999,305.94683570000007,,,2,2.259248899999875,,,,,,,,,,,,None,None,,,,,,,,,,Brille,bunt,"['Brille', 'bunt']",restudy_diff,1,,,,,,305.4482188000002,305.4482567,"['Löffel', 'Schlüssel', 'Hut', 'Jacke', 'Tasse', 'Uhr', 'Trommel', 'Stift', 'Blume', 'Hammer', 'Eimer', 'Geige', 'Ring', 'Rucksack', 'Brille', 'Tasche', 'Würfel', 'Flasche', 'Kette', 'Vase', 'Schere', 'Bürste', 'Buch']",305.94684700000016,305.9494675000001,None,305.9495879000001,305.9520292000002,None,305.95213349999995,311.96122909999985,2,2.259248899999875,None,311.9615021999998,311.9628295000002,311.9628413999999,311.96389640000007,,,,,,,,,,,,,,,,,,,,,,,,,,,,,,,,,,,,,,,,,,,,,,,,,,,1,2024-01-17_11h34.28.330,watkins1,2023.2.3,99.76644674808321,93,2024-01-17 11h34.37.507578 +0000,
,,,,,,,,,,,15,0,15,0,,,,,,,,,,,,,311.9707420999998,,,,,,,,,,311.96416210000007,312.46278299999994,,,3,3.7912658000000192,,,,,,,,,,,,None,None,,,,,,,,,,Tasche,robust,"['Tasche', 'robust']",restudy_diff,1,,,,,,311.9640986999998,311.9641365000002,"['Löffel', 'Schlüssel', 'Hut', 'Jacke', 'Tasse', 'Uhr', 'Trommel', 'Stift', 'Blume', 'Hammer', 'Eimer', 'Geige', 'Ring', 'Rucksack', 'Brille', 'Tasche', 'Würfel', 'Flasche', 'Kette', 'Vase', 'Schere', 'Bürste', 'Buch']",312.46279349999986,312.4653745999999,None,312.46549430000005,312.4679093,None,312.4680125,318.4717991000002,3,3.7912658000000192,None,318.4720775999999,318.4734059000002,318.4734180999999,318.4746205000001,,,,,,,,,,,,,,,,,,,,,,,,,,,,,,,,,,,,,,,,,,,,,,,,,,,1,2024-01-17_11h34.28.330,watkins1,2023.2.3,99.76644674808321,93,2024-01-17 11h34.37.507578 +0000,
,,,,,,,,,,,16,0,16,0,,,,,,,,,,,,,318.4812062000001,,,,,,,,,,318.47489129999985,318.9736474000001,,,[],[],,,,,,,,,,,,None,None,,,,,,,,,,Würfel,kaputt,"['Würfel', 'kaputt']",control,1,,,,,,318.474827,318.4748654,"['Löffel', 'Schlüssel', 'Hut', 'Jacke', 'Tasse', 'Uhr', 'Trommel', 'Stift', 'Blume', 'Hammer', 'Eimer', 'Geige', 'Ring', 'Rucksack', 'Brille', 'Tasche', 'Würfel', 'Flasche', 'Kette', 'Vase', 'Schere', 'Bürste', 'Buch']",318.9736587000002,324.9812966999998,1,324.9815693999999,324.9843753,None,324.98447970000007,324.9870357,None,,,324.98713769999995,324.9883218,324.9883332999998,324.9895124999998,1.532834399999956,None,,,,,,,,,,,,,,,,,,,,,,,,,,,,,,,,,,,,,,,,,,,,,,,,,1,2024-01-17_11h34.28.330,watkins1,2023.2.3,99.76644674808321,93,2024-01-17 11h34.37.507578 +0000,
,,,,,,,,,,,17,0,17,0,,,,,,,,,,,,,324.99308340000016,,,,,,,,,,324.9897764000002,325.48624580000023,,,2,1.9622889999996005,,,,,,,,,,,,None,None,,,,,,,,,,Flasche,dick,"['Flasche', 'dick']",restudy_diff,1,,,,,,324.98971329999995,324.9897522000001,"['Löffel', 'Schlüssel', 'Hut', 'Jacke', 'Tasse', 'Uhr', 'Trommel', 'Stift', 'Blume', 'Hammer', 'Eimer', 'Geige', 'Ring', 'Rucksack', 'Brille', 'Tasche', 'Würfel', 'Flasche', 'Kette', 'Vase', 'Schere', 'Bürste', 'Buch']",325.4862561,325.4878276999998,None,325.48794150000003,325.48940410000023,None,325.4895061000002,331.4906557999998,2,1.9622889999996005,None,331.49093570000014,331.4922967000002,331.4923081000002,331.4933728000001,,,,,,,,,,,,,,,,,,,,,,,,,,,,,,,,,,,,,,,,,,,,,,,,,,,1,2024-01-17_11h34.28.330,watkins1,2023.2.3,99.76644674808321,93,2024-01-17 11h34.37.507578 +0000,
,,,,,,,,,,,18,0,18,0,,,,,,,,,,,,,331.5000842999998,,,,,,,,,,331.4936415000002,331.9925354000002,,,1,1.1659951999999976,,,,,,,,,,,,None,None,,,,,,,,,,Kette,krumm,"['Kette', 'krumm']",restudy_diff,1,,,,,,331.4935768999999,331.4936155999999,"['Löffel', 'Schlüssel', 'Hut', 'Jacke', 'Tasse', 'Uhr', 'Trommel', 'Stift', 'Blume', 'Hammer', 'Eimer', 'Geige', 'Ring', 'Rucksack', 'Brille', 'Tasche', 'Würfel', 'Flasche', 'Kette', 'Vase', 'Schere', 'Bürste', 'Buch']",331.9925462000001,331.99507219999987,None,331.99518720000015,331.9975496000002,None,331.9976526999999,338.0005741,1,1.1659951999999976,None,338.00084890000016,338.0022512999999,338.00226310000016,338.0034399000001,,,,,,,,,,,,,,,,,,,,,,,,,,,,,,,,,,,,,,,,,,,,,,,,,,,1,2024-01-17_11h34.28.330,watkins1,2023.2.3,99.76644674808321,93,2024-01-17 11h34.37.507578 +0000,
,,,,,,,,,,,19,0,19,0,,,,,,,,,,,,,338.00991539999995,,,,,,,,,,338.00370920000023,338.50209730000006,,,[],[],,,,,,,,,,,,None,None,,,,,,,,,,Vase,hässlich,"['Vase', 'hässlich']",control,1,,,,,,338.0036451000001,338.0036831000002,"['Löffel', 'Schlüssel', 'Hut', 'Jacke', 'Tasse', 'Uhr', 'Trommel', 'Stift', 'Blume', 'Hammer', 'Eimer', 'Geige', 'Ring', 'Rucksack', 'Brille', 'Tasche', 'Würfel', 'Flasche', 'Kette', 'Vase', 'Schere', 'Bürste', 'Buch']",338.50210800000013,344.5027399999999,2,344.5030222999999,344.50568239999984,None,344.50578829999995,344.5085217999999,None,,,344.5086240999999,344.5102385,344.51025059999984,344.51163859999997,2.2923634000003403,None,,,,,,,,,,,,,,,,,,,,,,,,,,,,,,,,,,,,,,,,,,,,,,,,,1,2024-01-17_11h34.28.330,watkins1,2023.2.3,99.76644674808321,93,2024-01-17 11h34.37.507578 +0000,
,,,,,,,,,,,20,0,20,0,,,,,,,,,,,,,344.5152873000002,,,,,,,,,,344.51199899999983,345.00907800000004,,,[],[],,,,,,,,,,,,None,None,,,,,,,,,,Schere,teuer,"['Schere', 'teuer']",control,1,,,,,,344.51193349999994,344.5119748000002,"['Löffel', 'Schlüssel', 'Hut', 'Jacke', 'Tasse', 'Uhr', 'Trommel', 'Stift', 'Blume', 'Hammer', 'Eimer', 'Geige', 'Ring', 'Rucksack', 'Brille', 'Tasche', 'Würfel', 'Flasche', 'Kette', 'Vase', 'Schere', 'Bürste', 'Buch']",345.00908900000013,351.0118696999998,2,351.0121475000001,351.01482940000005,None,351.0149336999998,351.0174538000001,None,,,351.01755790000016,351.01873220000016,351.0187437999998,351.0199001000001,2.2740912999997818,None,,,,,,,,,,,,,,,,,,,,,,,,,,,,,,,,,,,,,,,,,,,,,,,,,1,2024-01-17_11h34.28.330,watkins1,2023.2.3,99.76644674808321,93,2024-01-17 11h34.37.507578 +0000,
,,,,,,,,,,,21,0,21,0,,,,,,,,,,,,,351.02354620000006,,,,,,,,,,351.0201637,351.5166663,,,[],[],,,,,,,,,,,,None,None,,,,,,,,,,Bürste,hübsch,"['Bürste', 'hübsch']",control,1,,,,,,351.02010169999994,351.0201397000001,"['Löffel', 'Schlüssel', 'Hut', 'Jacke', 'Tasse', 'Uhr', 'Trommel', 'Stift', 'Blume', 'Hammer', 'Eimer', 'Geige', 'Ring', 'Rucksack', 'Brille', 'Tasche', 'Würfel', 'Flasche', 'Kette', 'Vase', 'Schere', 'Bürste', 'Buch']",351.5166769000002,357.51902759999984,1,357.5193112000002,357.52202130000023,None,357.5221227000002,357.52465170000005,None,,,357.5247508000002,357.52590139999984,357.52591269999994,357.52706320000016,1.8589185999999245,None,,,,,,,,,,,,,,,,,,,,,,,,,,,,,,,,,,,,,,,,,,,,,,,,,1,2024-01-17_11h34.28.330,watkins1,2023.2.3,99.76644674808321,93,2024-01-17 11h34.37.507578 +0000,
,,,,,,,,,,,22,0,22,0,,,,,,,,,,,,,357.53068810000013,,,,,,,,,,357.52732530000003,358.0238608999998,,,1,2.6727866000001086,,,,,,,,,,,,None,None,,,,,,,,,,Buch,sportlich,"['Buch', 'sportlich']",restudy_diff,1,,,,,,357.5272635000001,357.5273014999998,"['Löffel', 'Schlüssel', 'Hut', 'Jacke', 'Tasse', 'Uhr', 'Trommel', 'Stift', 'Blume', 'Hammer', 'Eimer', 'Geige', 'Ring', 'Rucksack', 'Brille', 'Tasche', 'Würfel', 'Flasche', 'Kette', 'Vase', 'Schere', 'Bürste', 'Buch']",358.0238724000001,358.02536210000017,None,358.0254795000001,358.0267990000002,None,358.0269013000002,364.03034049999997,1,2.6727866000001086,None,364.0306098000001,364.0317538999998,364.03176540000004,364.0330273999998,,,,,,,,,,,,,,,,,,,,,,,,,,,,,,,,,,,,,,,,,,,,,,,,,,,1,2024-01-17_11h34.28.330,watkins1,2023.2.3,99.76644674808321,93,2024-01-17 11h34.37.507578 +0000,
,,,,,,,,,,,,,,,,,,,,,,,,,,,,,,,,,,,,,,,,,,,,,,,,,,,,,,,,,,,,,,,,,,,,,1,,,,,,,,,,,,,,,,,,,,,,,,,,,,,,,,,,,,,,,,,,,,,,,,,,,,,,,,,,,,,,,,,,,,,,,,,,1,2024-01-17_11h34.28.330,watkins1,2023.2.3,99.76644674808321,93,2024-01-17 11h34.37.507578 +0000,
(4 : 2) + 4 = 6 ,Correct,button_correct,,,,,,,,,,,,,0,0,0,1,,,,,,,,,385.7386470000001,,,,,,,,384.6740278000002,385.67778450000014,,,,,['button_correct'],[2.6925231000000167],,,,,,,,,,,,,,,,,,,,,,,,,,distractorTask,1,,,,,,,,,,,,,,,,,,,,,,,,,,385.72859430000017,385.7386470000001,388.424888,[0.34074074074074073],[-0.4166666666666667],[1],[0],[0],[2.6925231000000167],['button_correct'],388.42560679999997,389.42869199999996,,,,,,,,,,,,,,,,,,,,,,,,,,,,,,,,,,,,,1,2024-01-17_11h34.28.330,watkins1,2023.2.3,99.76644674808321,93,2024-01-17 11h34.37.507578 +0000,
(7 x 6) + 9 = 48 ,Incorrect,button_incorrect,,,,,,,,,,,,,0,1,1,9,,,,,,,,,389.4386751000002,,,,,,,,,,,,,,['button_incorrect'],[5.910122899999806],,,,,,,,,,,,,,,,,,,,,,,,,,distractorTask,1,,,,,,,,,,,,,,,,,,,,,,,,,,389.42888570000014,389.4386751000002,395.34345900000017,[-0.37592592592592594],[-0.3888888888888889],[1],[0],[0],[5.910122899999806],['button_incorrect'],395.3438621999999,396.34732970000005,,,,,,,,,,,,,,,,,,,,,,,,,,,,,,,,,,,,,1,2024-01-17_11h34.28.330,watkins1,2023.2.3,99.76644674808321,93,2024-01-17 11h34.37.507578 +0000,
(6 x 3) + 10 = 27 ,Incorrect,button_incorrect,,,,,,,,,,,,,0,2,2,8,,,,,,,,,396.3573626000002,,,,,,,,,,,,,,['button_incorrect'],[3.5417766000000483],,,,,,,,,,,,,,,,,,,,,,,,,,distractorTask,1,,,,,,,,,,,,,,,,,,,,,,,,,,396.3475247000001,396.3573626000002,399.89244450000024,[-0.32685185185185184],[-0.3768518518518518],[1],[0],[0],[3.5417766000000483],['button_incorrect'],399.89283079999996,400.8960185000001,,,,,,,,,,,,,,,,,,,,,,,,,,,,,,,,,,,,,1,2024-01-17_11h34.28.330,watkins1,2023.2.3,99.76644674808321,93,2024-01-17 11h34.37.507578 +0000,
(80 : 10) + 9 = 17 ,Correct,button_correct,,,,,,,,,,,,,0,3,3,3,,,,,,,,,400.9061099999999,,,,,,,,,,,,,,['button_correct'],[3.7140762999997605],,,,,,,,,,,,,,,,,,,,,,,,,,distractorTask,1,,,,,,,,,,,,,,,,,,,,,,,,,,400.8962062999999,400.9061099999999,404.61228570000003,[0.3148148148148148],[-0.41203703703703703],[1],[0],[0],[3.7140762999997605],['button_correct'],404.6126712,405.6157988,,,,,,,,,,,,,,,,,,,,,,,,,,,,,,,,,,,,,1,2024-01-17_11h34.28.330,watkins1,2023.2.3,99.76644674808321,93,2024-01-17 11h34.37.507578 +0000,
(2 x 5) + 3 = 13 ,Correct,button_correct,,,,,,,,,,,,,0,4,4,2,,,,,,,,,405.62578110000004,,,,,,,,,,,,,,['button_correct'],[2.117253400000209],,,,,,,,,,,,,,,,,,,,,,,,,,distractorTask,1,,,,,,,,,,,,,,,,,,,,,,,,,,405.6159908999998,405.62578110000004,407.7355044000001,[0.33240740740740743],[-0.38796296296296295],[1],[0],[0],[2.117253400000209],['button_correct'],407.73589390000006,408.7391229,,,,,,,,,,,,,,,,,,,,,,,,,,,,,,,,,,,,,1,2024-01-17_11h34.28.330,watkins1,2023.2.3,99.76644674808321,93,2024-01-17 11h34.37.507578 +0000,
(40 : 5) + 8 = 15 ,Incorrect,button_incorrect,,,,,,,,,,,,,0,5,5,7,,,,,,,,,408.7490732000001,,,,,,,,,,,,,,['button_incorrect'],[7.690278099999887],,,,,,,,,,,,,,,,,,,,,,,,,,distractorTask,1,,,,,,,,,,,,,,,,,,,,,,,,,,408.73931519999996,408.7490732000001,416.431509,[-0.3685185185185185],[-0.3972222222222222],[1],[0],[0],[7.690278099999887],['button_incorrect'],416.4318999000002,417.4350779000001,,,,,,,,,,,,,,,,,,,,,,,,,,,,,,,,,,,,,1,2024-01-17_11h34.28.330,watkins1,2023.2.3,99.76644674808321,93,2024-01-17 11h34.37.507578 +0000,
(25 : 5) + 5 = 9 ,Incorrect,button_incorrect,,,,,,,,,,,,,0,6,6,6,,,,,,,,,417.4450631999998,,,,,,,,,,,,,,['button_incorrect'],"[2.6194900000000416, 2.940906199999972]",,,,,,,,,,,,,,,,,,,,,,,,,,distractorTask,1,,,,,,,,,,,,,,,,,,,,,,,,,,417.4352660999998,417.4450631999998,420.3779119000001,"[-0.34629629629629627, -0.3472222222222222]","[-0.42685185185185187, -0.4148148148148148]","[1, 1]","[0, 0]","[0, 0]","[2.6194900000000416, 2.940906199999972]",['button_incorrect'],420.3783140999999,421.3816624000001,,,,,,,,,,,,,,,,,,,,,,,,,,,,,,,,,,,,,1,2024-01-17_11h34.28.330,watkins1,2023.2.3,99.76644674808321,93,2024-01-17 11h34.37.507578 +0000,
(9 x 5) - 9 = 36 ,Correct,button_correct,,,,,,,,,,,,,0,7,7,4,,,,,,,,,421.39174890000004,,,,,,,,,,,,,,['button_correct'],[6.305743700000221],,,,,,,,,,,,,,,,,,,,,,,,,,distractorTask,1,,,,,,,,,,,,,,,,,,,,,,,,,,421.38185209999983,421.39174890000004,427.68986559999985,[0.3194444444444444],[-0.4148148148148148],[1],[0],[0],[6.305743700000221],['button_correct'],427.6902745000002,428.6922205000001,,,,,,,,,,,,,,,,,,,,,,,,,,,,,,,,,,,,,1,2024-01-17_11h34.28.330,watkins1,2023.2.3,99.76644674808321,93,2024-01-17 11h34.37.507578 +0000,
(28 : 7) - 3 = 1 ,Correct,button_correct,,,,,,,,,,,,,0,8,8,0,,,,,,,,,428.7021595000001,,,,,,,,,,,,,,['button_correct'],[4.70804679999992],,,,,,,,,,,,,,,,,,,,,,,,,,distractorTask,1,,,,,,,,,,,,,,,,,,,,,,,,,,428.6924141999998,428.7021595000001,433.40242679999983,[0.38055555555555554],[-0.37592592592592594],[1],[0],[0],[4.70804679999992],['button_correct'],433.40281749999986,434.4059820000002,,,,,,,,,,,,,,,,,,,,,,,,,,,,,,,,,,,,,1,2024-01-17_11h34.28.330,watkins1,2023.2.3,99.76644674808321,93,2024-01-17 11h34.37.507578 +0000,
(54 : 6) - 10 = 0 ,Incorrect,button_incorrect,,,,,,,,,,,,,0,9,9,5,,,,,,,,,434.4159451999999,,,,,,,,,,,,,,['button_incorrect'],[5.039270199999919],,,,,,,,,,,,,,,,,,,,,,,,,,distractorTask,1,,,,,,,,,,,,,,,,,,,,,,,,,,434.4061784999999,434.4159451999999,439.4473681999998,[-0.3675925925925926],[-0.41388888888888886],[1],[0],[0],[5.039270199999919],['button_incorrect'],439.44775089999985,440.4507715999998,,,,,,,,,,,,,,,,,,,,,,,,,,,,,,,,,,,,,1,2024-01-17_11h34.28.330,watkins1,2023.2.3,99.76644674808321,93,2024-01-17 11h34.37.507578 +0000,
,,,,,,,,,,,,,,,,,,,,,,,,,,,,,,,,,,,,,,,,,,,,,,,,,,,,,,,,,,,,,,,,,,,,,1,,,,,,,,,,,,,,,,,,,,,,,,,,,,,,,,,,,,,,,,,,,,,,,,,,,,,,,,,,,,,,,,,,,,,,,,,,1,2024-01-17_11h34.28.330,watkins1,2023.2.3,99.76644674808321,93,2024-01-17 11h34.37.507578 +0000,
,,,,,,,,,,,,,,,,,,,0,0,0,0,,,,,457.10722970000006,,,,,,,,,,,,,,Buch,12.124693499999921,,,,,,,,,,,,5.2316845000000285,6.336767299999792,,,,,,,,,,,,,freeRecallSub,1,,,,,,,,,,,,,,,,,,,,,,,,,,,,,,,,,,,,,,457.09859000000006,457.10722970000006,457.10722970000006,469.23262269999987,return,12.124693499999921,None,Buch,"[-0.07777777777777778, -0.06018518518518518]","[0.06666666666666667, 0.05555555555555555]","[1, 1]","[0, 0]","[0, 0]","[1.8667734000000564, 2.5294841999998425]",[],,,,,,,,,,,,,,,,,,,,,,1,2024-01-17_11h34.28.330,watkins1,2023.2.3,99.76644674808321,93,2024-01-17 11h34.37.507578 +0000,
,,,,,,,,,,,,,,,,,,,1,0,1,0,,,,,469.24457699999994,,,,,,,,,,,,,,Rucksack,6.115371599999889,,,,,,,,,,,,3.0741439999997056,None,,,,,,,,,,,,,freeRecallSub,1,,,,,,,,,,,,,,,,,,,,,,,,,,,,,,,,,,,,,,469.23446779999995,469.24457699999994,469.24457699999994,475.3612862,return,6.115371599999889,None,Rucksack,[],[],[],[],[],[],[],,,,,,,,,,,,,,,,,,,,,,1,2024-01-17_11h34.28.330,watkins1,2023.2.3,99.76644674808321,93,2024-01-17 11h34.37.507578 +0000,
,,,,,,,,,,,,,,,,,,,2,0,2,0,,,,,475.3718007000002,,,,,,,,,,,,,,Kiste,2.2840267999999924,,,,,,,,,,,,0.4514555000000655,None,,,,,,,,,,,,,freeRecallSub,1,,,,,,,,,,,,,,,,,,,,,,,,,,,,,,,,,,,,,,475.36255489999985,475.3718007000002,475.3718007000002,477.6616576000001,return,2.2840267999999924,None,Kiste,[],[],[],[],[],[],[],,,,,,,,,,,,,,,,,,,,,,1,2024-01-17_11h34.28.330,watkins1,2023.2.3,99.76644674808321,93,2024-01-17 11h34.37.507578 +0000,
,,,,,,,,,,,,,,,,,,,3,0,3,0,,,,,477.67243899999994,,,,,,,,,,,,,,Bürste,3.4794573000003766,,,,,,,,,,,,1.4861907999998039,None,,,,,,,,,,,,,freeRecallSub,1,,,,,,,,,,,,,,,,,,,,,,,,,,,,,,,,,,,,,,477.66291409999985,477.67243899999994,477.67243899999994,481.1573626999998,return,3.4794573000003766,None,Bürste,[],[],[],[],[],[],[],,,,,,,,,,,,,,,,,,,,,,1,2024-01-17_11h34.28.330,watkins1,2023.2.3,99.76644674808321,93,2024-01-17 11h34.37.507578 +0000,
,,,,,,,,,,,,,,,,,,,4,0,4,0,,,,,481.1681744000002,,,,,,,,,,,,,,Blume,6.943653799999993,,,,,,,,,,,,5.021120699999756,None,,,,,,,,,,,,,freeRecallSub,1,,,,,,,,,,,,,,,,,,,,,,,,,,,,,,,,,,,,,,481.15862849999985,481.1681744000002,481.1681744000002,488.11806149999984,return,6.943653799999993,None,Blume,[],[],[],[],[],[],[],,,,,,,,,,,,,,,,,,,,,,1,2024-01-17_11h34.28.330,watkins1,2023.2.3,99.76644674808321,93,2024-01-17 11h34.37.507578 +0000,
,,,,,,,,,,,,,,,,,,,5,0,5,0,,,,,488.1289760999998,,,,,,,,,,,,,,Uhr,4.998721399999795,,,,,,,,,,,,3.5247881000000234,None,,,,,,,,,,,,,freeRecallSub,1,,,,,,,,,,,,,,,,,,,,,,,,,,,,,,,,,,,,,,488.11933690000023,488.1289760999998,488.1289760999998,493.1300824,return,4.998721399999795,None,Uhr,[],[],[],[],[],[],[],,,,,,,,,,,,,,,,,,,,,,1,2024-01-17_11h34.28.330,watkins1,2023.2.3,99.76644674808321,93,2024-01-17 11h34.37.507578 +0000,
,,,,,,,,,,,,,,,,,,,6,0,6,0,,,,,493.1414371999999,,,,,,,,,,,,,,Katze,2.818520499999977,,,,,,,,,,,,0.8447531000001618,None,,,,,,,,,,,,,freeRecallSub,1,,,,,,,,,,,,,,,,,,,,,,,,,,,,,,,,,,,,,,493.1314038999999,493.1414371999999,493.1414371999999,495.9645263000002,return,2.818520499999977,None,Katze,[],[],[],[],[],[],[],,,,,,,,,,,,,,,,,,,,,,1,2024-01-17_11h34.28.330,watkins1,2023.2.3,99.76644674808321,93,2024-01-17 11h34.37.507578 +0000,
,,,,,,,,,,,,,,,,,,,7,0,7,0,,,,,495.9762854999999,,,,,,,,,,,,,,Hund,1.9036274000000049,,,,,,,,,,,,0.40343750000010914,None,,,,,,,,,,,,,freeRecallSub,1,,,,,,,,,,,,,,,,,,,,,,,,,,,,,,,,,,,,,,495.9657857000002,495.9762854999999,495.9762854999999,497.8854707999999,return,1.9036274000000049,None,Hund,[],[],[],[],[],[],[],,,,,,,,,,,,,,,,,,,,,,1,2024-01-17_11h34.28.330,watkins1,2023.2.3,99.76644674808321,93,2024-01-17 11h34.37.507578 +0000,
,,,,,,,,,,,,,,,,,,,8,0,8,0,,,,,497.8975771999999,,,,,,,,,,,,,,Hammer,15.438270599999669,,,,,,,,,,,,12.665857999999844,None,,,,,,,,,,,,,freeRecallSub,1,,,,,,,,,,,,,,,,,,,,,,,,,,,,,,,,,,,,,,497.8867568999999,497.8975771999999,497.8975771999999,513.3439268000002,return,15.438270599999669,None,Hammer,[],[],[],[],[],[],[],,,,,,,,,,,,,,,,,,,,,,1,2024-01-17_11h34.28.330,watkins1,2023.2.3,99.76644674808321,93,2024-01-17 11h34.37.507578 +0000,
,,,,,,,,,,,,,,,,,,,9,0,9,0,,,,,513.3552730000001,,,,,,,,,,,,,,Ring,57.14868010000009,,,,,,,,,,,,54.03537880000022,None,,,,,,,,,,,,,freeRecallSub,1,,,,,,,,,,,,,,,,,,,,,,,,,,,,,,,,,,,,,,513.3452066,513.3552730000001,513.3552730000001,570.5132954999999,return,57.14868010000009,None,Ring,[],[],[],[],[],[],[],,,,,,,,,,,,,,,,,,,,,,1,2024-01-17_11h34.28.330,watkins1,2023.2.3,99.76644674808321,93,2024-01-17 11h34.37.507578 +0000,
,,,,,,,,,,,,,,,,,,,10,0,10,0,,,,,570.5257188,,,,,,,,,,,,,,Brille,33.20231999999987,,,,,,,,,,,,31.21389369999997,None,,,,,,,,,,,,,freeRecallSub,1,,,,,,,,,,,,,,,,,,,,,,,,,,,,,,,,,,,,,,570.5145905999998,570.5257188,570.5257188,603.7368872000002,return,33.20231999999987,None,Brille,[],[],[],[],[],[],[],,,,,,,,,,,,,,,,,,,,,,1,2024-01-17_11h34.28.330,watkins1,2023.2.3,99.76644674808321,93,2024-01-17 11h34.37.507578 +0000,
,,,,,,,,,,,,,,,,,,,11,0,11,0,,,,,603.7489104000001,,,,,,,,,,,,,,Kette,124.53115059999982,,,,,,,,,,,,122.93598750000001,None,,,,,,,,,,,,,freeRecallSub,1,,,,,,,,,,,,,,,,,,,,,,,,,,,,,,,,,,,,,,603.7381753999998,603.7489104000001,603.7489104000001,728.2810180000001,return,124.53115059999982,None,Kette,[],[],[],[],[],[],[],,,,,,,,,,,,,,,,,,,,,,1,2024-01-17_11h34.28.330,watkins1,2023.2.3,99.76644674808321,93,2024-01-17 11h34.37.507578 +0000,
,,,,,,,,,,,,,,,,,,,12,0,12,0,,,,,728.2929419000002,,,,,,,,,,,,,,Stift,15.251266900000246,,,,,,,,,,,,13.139422100000047,None,,,,,,,,,,,,,freeRecallSub,1,,,,,,,,,,,,,,,,,,,,,,,,,,,,,,,,,,,,,,728.2823269,728.2929419000002,728.2929419000002,743.5505208999998,return,15.251266900000246,None,Stift,[],[],[],[],[],[],[],,,,,,,,,,,,,,,,,,,,,,1,2024-01-17_11h34.28.330,watkins1,2023.2.3,99.76644674808321,93,2024-01-17 11h34.37.507578 +0000,
,,,,,,,,,,,,,,,,,,,13,0,13,0,,,,,743.5636109000002,,,,,,,,,,,,,,Tasche,22.14038980000032,,,,,,,,,,,,19.64652369999976,None,,,,,,,,,,,,,freeRecallSub,1,,,,,,,,,,,,,,,,,,,,,,,,,,,,,,,,,,,,,,743.5518013999999,743.5636109000002,743.5636109000002,765.7088554000002,return,22.14038980000032,None,Tasche,[],[],[],[],[],[],[],,,,,,,,,,,,,,,,,,,,,,1,2024-01-17_11h34.28.330,watkins1,2023.2.3,99.76644674808321,93,2024-01-17 11h34.37.507578 +0000,
,,,,,,,,,,,,,,,,,,,14,0,14,0,,,,,765.7219620999999,,,,,,,,,,,,,,Geige,29.98221820000026,,,,,,,,,,,,27.710768900000403,None,,,,,,,,,,,,,freeRecallSub,1,,,,,,,,,,,,,,,,,,,,,,,,,,,,,,,,,,,,,,765.7101253000001,765.7219620999999,765.7219620999999,795.7108145000002,return,29.98221820000026,None,Geige,[],[],[],[],[],[],[],,,,,,,,,,,,,,,,,,,,,,1,2024-01-17_11h34.28.330,watkins1,2023.2.3,99.76644674808321,93,2024-01-17 11h34.37.507578 +0000,
,,,,,,,,,,,,,,,,,,,15,0,15,0,,,,,795.7241918999998,,,,,,,,,,,,,,Fahrrad,71.5720068999999,,,,,,,,,,,,66.9221834,None,,,,,,,,,,,,,freeRecallSub,1,,,,,,,,,,,,,,,,,,,,,,,,,,,,,,,,,,,,,,795.7121164999999,795.7241918999998,795.7241918999998,867.3035166999998,return,71.5720068999999,None,Fahrrad,[],[],[],[],[],[],[],,,,,,,,,,,,,,,,,,,,,,1,2024-01-17_11h34.28.330,watkins1,2023.2.3,99.76644674808321,93,2024-01-17 11h34.37.507578 +0000,
,,,,,,,,,,,,,,,,,,,16,0,16,0,,,,,867.3171400000001,,,,,,,,,,,,,,,103.20307700000012,,,,,,,,,,,,103.22265040000002,None,,,,,,,,,,,,,freeRecallSub,1,,,,,,,,,,,,,,,,,,,,,,,,,,,,,,,,,,,,,,867.3047928000001,867.3171400000001,867.3171400000001,970.5274755,return,103.20307700000012,None,,[],[],[],[],[],[],[],,,,,,,,,,,,,,,,,,,,,,1,2024-01-17_11h34.28.330,watkins1,2023.2.3,99.76644674808321,93,2024-01-17 11h34.37.507578 +0000,
,,,,,,,,,,,,,,,,,,,17,0,17,0,,,,,970.5404849000001,,,,,,,,,,,,,,Kamera,4.011777500000335,,,,,,,,,,,,1.3095573999999033,None,,,,,,,,,,,,,freeRecallSub,1,,,,,,,,,,,,,,,,,,,,,,,,,,,,,,,,,,,,,,970.5287911999999,970.5404849000001,970.5404849000001,974.5595017999999,return,4.011777500000335,None,Kamera,[],[],[],[],[],[],[],,,,,,,,,,,,,,,,,,,,,,1,2024-01-17_11h34.28.330,watkins1,2023.2.3,99.76644674808321,93,2024-01-17 11h34.37.507578 +0000,
,,,,,,,,,,,,,,,,,,,18,0,18,0,,,,,974.5727683999999,,,,,,,,,,,,,,Trommel,60.91539929999999,,,,,,,,,,,,58.67929189999995,None,,,,,,,,,,,,,freeRecallSub,1,,,,,,,,,,,,,,,,,,,,,,,,,,,,,,,,,,,,,,974.5607786999999,974.5727683999999,974.5727683999999,1035.4896095,return,60.91539929999999,None,Trommel,[],[],[],[],[],[],[],,,,,,,,,,,,,,,,,,,,,,1,2024-01-17_11h34.28.330,watkins1,2023.2.3,99.76644674808321,93,2024-01-17 11h34.37.507578 +0000,
,,,,,,,,,,,,,,,,,,,19,0,19,0,,,,,1035.5038955999999,,,,,,,,,,,,,,,[],,,,,,,,,,,,None,None,,,,,,,,,,,,,freeRecallSub,1,,,,,,,,,,,,,,,,,,,,,,,,,,,,,,,,,,,,,,1035.4909088,1035.5038955999999,1035.5038955999999,1276.4259437,None,,,,[0.44351851851851853],[-0.4166666666666667],[1],[0],[0],[240.9282847999998],['button_continue'],,,,,,,,,,,,,,,,,,,,,,1,2024-01-17_11h34.28.330,watkins1,2023.2.3,99.76644674808321,93,2024-01-17 11h34.37.507578 +0000,
,,,,,,,,,,,,,,,,,,,,,,,,,,,,,,,,,,,,,,,,,,,,,,,,,,,,,,,,,,,,,,,,,,,,,1,,,,,,,,,,,,,,,,,,,,,,,,,,,,,,,,,,,,,,,,,,,,,,,,,,,,,,,,,,,,,,,,,,,,,,,,,,1,2024-01-17_11h34.28.330,watkins1,2023.2.3,99.76644674808321,93,2024-01-17 11h34.37.507578 +0000,
,,,,,,,,,,,,,,,,,,,,,,,0,0,0,0,1285.5982199999999,,,,,,,,,,1302.1876038999999,1302.6788680999998,,,,14.610293499999898,,,,,,,,,,,,1.9770865999998932,None,,,,,,,,,,Schlüssel,,,cuedRecallAdj,1,,,,,,,,,,,,,,,,,,,,,,,,,,,,,,,,,,,,,,,,,,,,,,,,,,,,,1285.5892480000002,1285.5982199999999,0,1285.5982199999999,1300.2092220999998,matt,return,14.610293499999898,None,1300.2096347000002,1300.2186527,1300.2186527,1302.187207,,return,1.9658465000002252,None,,,,,1,2024-01-17_11h34.28.330,watkins1,2023.2.3,99.76644674808321,93,2024-01-17 11h34.37.507578 +0000,
,,,,,,,,,,,,,,,,,,,,,,,1,0,1,0,1302.6888050000002,,,,,,,,,,1319.8409916,1320.3324689,,,rustikal,6.1755653999998685,,,,,,,,,,,,2.961568499999885,None,,,,,,,,,,Geige,,,cuedRecallAdj,1,,,,,,,,,,,,,,,,,,,,,,,,,,,,,,,,,,,,,,,,,,,,,,,,,,,,,1302.6791078,1302.6888050000002,0,1302.6888050000002,1308.8649421999999,dunkel,return,6.1755653999998685,None,1308.8652086000002,1308.8744351999999,1308.8744351999999,1319.8407198999998,rustikal,return,10.958063999999922,None,,,,,1,2024-01-17_11h34.28.330,watkins1,2023.2.3,99.76644674808321,93,2024-01-17 11h34.37.507578 +0000,
,,,,,,,,,,,,,,,,,,,,,,,2,0,2,0,1320.3424215,,,,,,,,,,1333.729413,1334.2209722000002,,,,12.873968200000036,,,,,,,,,,,,0.5114110999998047,None,,,,,,,,,,Brille,,,cuedRecallAdj,1,,,,,,,,,,,,,,,,,,,,,,,,,,,,,,,,,,,,,,,,,,,,,,,,,,,,,1320.3327129,1320.3424215,0,1320.3424215,1333.2171873000002,nass,return,12.873968200000036,None,1333.217455,1333.2265969,1333.2265969,1333.7291452999998,,return,0.4938148999999612,None,,,,,1,2024-01-17_11h34.28.330,watkins1,2023.2.3,99.76644674808321,93,2024-01-17 11h34.37.507578 +0000,
,,,,,,,,,,,,,,,,,,,,,,,3,0,3,0,1334.2309252,,,,,,,,,,1341.1528733999999,1341.6516342,,,,6.913539700000001,,,,,,,,,,,,None,None,,,,,,,,,,Telefon,,,cuedRecallAdj,1,,,,,,,,,,,,,,,,,,,,,,,,,,,,,,,,,,,,,,,,,,,,,,,,,,,,,1334.2212172,1334.2309252,0,1334.2309252,1341.1499168,kalt,return,6.913539700000001,None,1341.1502048000002,1341.1595161,1341.1595161,1341.1527700000001,,None,,,,,,,1,2024-01-17_11h34.28.330,watkins1,2023.2.3,99.76644674808321,93,2024-01-17 11h34.37.507578 +0000,
,,,,,,,,,,,,,,,,,,,,,,,4,0,4,0,1341.6615775999999,,,,,,,,,,1345.3575003,1345.8488582,,,,3.2748811999999816,,,,,,,,,,,,0.41124870000021474,None,,,,,,,,,,Stift,,,cuedRecallAdj,1,,,,,,,,,,,,,,,,,,,,,,,,,,,,,,,,,,,,,,,,,,,,,,,,,,,,,1341.65188,1341.6615775999999,0,1341.6615775999999,1344.9452709000002,flach,return,3.2748811999999816,None,1344.9455352999998,1344.9550559999998,1344.9550559999998,1345.3572318000001,,return,0.39738420000003316,None,,,,,1,2024-01-17_11h34.28.330,watkins1,2023.2.3,99.76644674808321,93,2024-01-17 11h34.37.507578 +0000,
,,,,,,,,,,,,,,,,,,,,,,,5,0,5,0,1345.8588149000002,,,,,,,,,,1348.8518156,1349.3434218000002,,,,2.597637500000019,,,,,,,,,,,,0.39095129999986966,None,,,,,,,,,,Hammer,,,cuedRecallAdj,1,,,,,,,,,,,,,,,,,,,,,,,,,,,,,,,,,,,,,,,,,,,,,,,,,,,,,1345.8490984,1345.8588149000002,0,1345.8588149000002,1348.4598673,gut,return,2.597637500000019,None,1348.4601336,1348.4693373,1348.4693373,1348.8515510000002,,return,0.3790796000002956,None,,,,,1,2024-01-17_11h34.28.330,watkins1,2023.2.3,99.76644674808321,93,2024-01-17 11h34.37.507578 +0000,
,,,,,,,,,,,,,,,,,,,,,,,6,0,6,0,1349.3533774000002,,,,,,,,,,1354.3574345000002,1354.8561968,,,,4.999204000000191,,,,,,,,,,,,None,None,,,,,,,,,,Uhr,,,cuedRecallAdj,1,,,,,,,,,,,,,,,,,,,,,,,,,,,,,,,,,,,,,,,,,,,,,,,,,,,,,1349.3436697000002,1349.3533774000002,0,1349.3533774000002,1354.3545382000002,glänzend,return,4.999204000000191,None,1354.3548052,1354.3641116,1354.3641116,1354.3573319000002,,None,,,,,,,1,2024-01-17_11h34.28.330,watkins1,2023.2.3,99.76644674808321,93,2024-01-17 11h34.37.507578 +0000,
,,,,,,,,,,,,,,,,,,,,,,,7,0,7,0,1354.8660961,,,,,,,,,,1378.2440926,1378.7354821,,,,14.69454369999994,,,,,,,,,,,,8.675414499999988,None,,,,,,,,,,Rucksack,,,cuedRecallAdj,1,,,,,,,,,,,,,,,,,,,,,,,,,,,,,,,,,,,,,,,,,,,,,,,,,,,,,1354.8564468999998,1354.8660961,0,1354.8660961,1369.5676933,rustikal,return,14.69454369999994,None,1369.5679638000001,1369.5773798,1369.5773798,1378.2438317,,return,8.663083899999947,None,,,,,1,2024-01-17_11h34.28.330,watkins1,2023.2.3,99.76644674808321,93,2024-01-17 11h34.37.507578 +0000,
,,,,,,,,,,,,,,,,,,,,,,,8,0,8,0,1378.7454040000002,,,,,,,,,,1385.0041557999998,1385.4936670000002,,,,6.2471472000001995,,,,,,,,,,,,None,None,,,,,,,,,,Jacke,,,cuedRecallAdj,1,,,,,,,,,,,,,,,,,,,,,,,,,,,,,,,,,,,,,,,,,,,,,,,,,,,,,1378.7357302,1378.7454040000002,0,1378.7454040000002,1385.0017572000002,,return,6.2471472000001995,None,1385.0020298,1385.0114661000002,1385.0114661000002,1385.0040524,,None,,,,,,,1,2024-01-17_11h34.28.330,watkins1,2023.2.3,99.76644674808321,93,2024-01-17 11h34.37.507578 +0000,
,,,,,,,,,,,,,,,,,,,,,,,9,0,9,0,1385.5036556,,,,,,,,,,1398.3311908,1398.8300473,,,,12.816874000000098,,,,,,,,,,,,None,None,,,,,,,,,,Schere,,,cuedRecallAdj,1,,,,,,,,,,,,,,,,,,,,,,,,,,,,,,,,,,,,,,,,,,,,,,,,,,,,,1385.4939058999998,1385.5036556,0,1385.5036556,1398.3282212,teuer,return,12.816874000000098,None,1398.3284895000002,1398.3379368,1398.3379368,1398.3310882,,None,,,,,,,1,2024-01-17_11h34.28.330,watkins1,2023.2.3,99.76644674808321,93,2024-01-17 11h34.37.507578 +0000,
,,,,,,,,,,,,,,,,,,,,,,,10,0,10,0,1398.8399952,,,,,,,,,,1403.4924517,1403.9913371000002,,,,4.640537000000222,,,,,,,,,,,,None,None,,,,,,,,,,Bürste,,,cuedRecallAdj,1,,,,,,,,,,,,,,,,,,,,,,,,,,,,,,,,,,,,,,,,,,,,,,,,,,,,,1398.8302847999998,1398.8399952,0,1398.8399952,1403.4894462000002,hübsch,return,4.640537000000222,None,1403.4897096,1403.4991596999998,1403.4991596999998,1403.4923474000002,,None,,,,,,,1,2024-01-17_11h34.28.330,watkins1,2023.2.3,99.76644674808321,93,2024-01-17 11h34.37.507578 +0000,
,,,,,,,,,,,,,,,,,,,,,,,11,0,11,0,1404.0012879,,,,,,,,,,1407.7812840000001,1408.2800661,,,,3.7672198000000208,,,,,,,,,,,,None,None,,,,,,,,,,Kamera,,,cuedRecallAdj,1,,,,,,,,,,,,,,,,,,,,,,,,,,,,,,,,,,,,,,,,,,,,,,,,,,,,,1403.9915829000001,1404.0012879,0,1404.0012879,1407.7782768000002,biegsam,return,3.7672198000000208,None,1407.7785402999998,1407.7880439,1407.7880439,1407.7811826000002,,None,,,,,,,1,2024-01-17_11h34.28.330,watkins1,2023.2.3,99.76644674808321,93,2024-01-17 11h34.37.507578 +0000,
,,,,,,,,,,,,,,,,,,,,,,,12,0,12,0,1408.2901173,,,,,,,,,,1415.7416383999998,1416.2330145,,,lustig,4.446364800000083,,,,,,,,,,,,1.756730300000072,None,,,,,,,,,,Tasse,,,cuedRecallAdj,1,,,,,,,,,,,,,,,,,,,,,,,,,,,,,,,,,,,,,,,,,,,,,,,,,,,,,1408.2803066000001,1408.2901173,0,1408.2901173,1412.7388770000002,schlicht,return,4.446364800000083,None,1412.7391417,1412.7483811000002,1412.7483811000002,1415.7413726,lustig,return,2.988177899999755,None,,,,,1,2024-01-17_11h34.28.330,watkins1,2023.2.3,99.76644674808321,93,2024-01-17 11h34.37.507578 +0000,
,,,,,,,,,,,,,,,,,,,,,,,13,0,13,0,1416.2429642000002,,,,,,,,,,1424.1564543,1424.6478115,,,groß,6.101477999999588,,,,,,,,,,,,0.34082919999991645,None,,,,,,,,,,Eimer,,,cuedRecallAdj,1,,,,,,,,,,,,,,,,,,,,,,,,,,,,,,,,,,,,,,,,,,,,,,,,,,,,,1416.2332551,1416.2429642000002,0,1416.2429642000002,1422.3485949,nachhaltig,return,6.101477999999588,None,1422.3488644,1422.3580888000001,1422.3580888000001,1424.1561818999999,groß,return,1.7943381000000045,None,,,,,1,2024-01-17_11h34.28.330,watkins1,2023.2.3,99.76644674808321,93,2024-01-17 11h34.37.507578 +0000,
,,,,,,,,,,,,,,,,,,,,,,,14,0,14,0,1424.6577335000002,,,,,,,,,,1427.2125385999998,1427.7104638,,,,2.5510927999998785,,,,,,,,,,,,None,None,,,,,,,,,,Kerze,,,cuedRecallAdj,1,,,,,,,,,,,,,,,,,,,,,,,,,,,,,,,,,,,,,,,,,,,,,,,,,,,,,1424.6480522000002,1424.6577335000002,0,1424.6577335000002,1427.2093802999998,hohl,return,2.5510927999998785,None,1427.2096467000001,1427.2184264000002,1427.2184264000002,1427.2124340999999,,None,,,,,,,1,2024-01-17_11h34.28.330,watkins1,2023.2.3,99.76644674808321,93,2024-01-17 11h34.37.507578 +0000,
,,,,,,,,,,,,,,,,,,,,,,,15,0,15,0,1427.7204118999998,,,,,,,,,,1452.4771733000002,1452.9683716999998,,,,18.560375600000043,,,,,,,,,,,,6.188308799999959,None,,,,,,,,,,Trommel,,,cuedRecallAdj,1,,,,,,,,,,,,,,,,,,,,,,,,,,,,,,,,,,,,,,,,,,,,,,,,,,,,,1427.7107036000002,1427.7204118999998,0,1427.7204118999998,1446.2878380000002,rustikal,return,18.560375600000043,None,1446.2881051999998,1446.2975462,1446.2975462,1452.4769055000002,,return,6.174957800000357,None,,,,,1,2024-01-17_11h34.28.330,watkins1,2023.2.3,99.76644674808321,93,2024-01-17 11h34.37.507578 +0000,
,,,,,,,,,,,,,,,,,,,,,,,16,0,16,0,1452.9783179,,,,,,,,,,1467.5698364,1468.0612941,,,glatt,8.110229400000208,,,,,,,,,,,,5.040607500000078,None,,,,,,,,,,Tasche,,,cuedRecallAdj,1,,,,,,,,,,,,,,,,,,,,,,,,,,,,,,,,,,,,,,,,,,,,,,,,,,,,,1452.968617,1452.9783179,0,1452.9783179,1461.0923993000001,dreckig,return,8.110229400000208,None,1461.0926706999999,1461.1019941,1461.1019941,1467.5695688,glatt,return,6.458675100000164,None,,,,,1,2024-01-17_11h34.28.330,watkins1,2023.2.3,99.76644674808321,93,2024-01-17 11h34.37.507578 +0000,
,,,,,,,,,,,,,,,,,,,,,,,17,0,17,0,1468.0713498999999,,,,,,,,,,1474.6899640000001,1475.1816319,,,,5.48916730000019,,,,,,,,,,,,1.1242855999998937,None,,,,,,,,,,Kette,,,cuedRecallAdj,1,,,,,,,,,,,,,,,,,,,,,,,,,,,,,,,,,,,,,,,,,,,,,,,,,,,,,1468.0615385,1468.0713498999999,0,1468.0713498999999,1473.5646659,glatt,return,5.48916730000019,None,1473.5649317000002,1473.5741600000001,1473.5741600000001,1474.6896938999998,,return,1.1143817000001945,None,,,,,1,2024-01-17_11h34.28.330,watkins1,2023.2.3,99.76644674808321,93,2024-01-17 11h34.37.507578 +0000,
,,,,,,,,,,,,,,,,,,,,,,,18,0,18,0,1475.1915803000002,,,,,,,,,,1478.1645302000002,1478.655934,,,,2.8089723000002778,,,,,,,,,,,,0.15984729999991032,None,,,,,,,,,,Blume,,,cuedRecallAdj,1,,,,,,,,,,,,,,,,,,,,,,,,,,,,,,,,,,,,,,,,,,,,,,,,,,,,,1475.1818776,1475.1915803000002,0,1475.1915803000002,1478.0037324999998,breit,return,2.8089723000002778,None,1478.0039926999998,1478.0132672,1478.0132672,1478.1642656,,return,0.14730110000027707,None,,,,,1,2024-01-17_11h34.28.330,watkins1,2023.2.3,99.76644674808321,93,2024-01-17 11h34.37.507578 +0000,
,,,,,,,,,,,,,,,,,,,,,,,19,0,19,0,1478.6658385,,,,,,,,,,1486.5291501000002,1487.0207239000001,,,verspielt,5.502867800000331,,,,,,,,,,,,0.34040479999976014,None,,,,,,,,,,Löffel,,,cuedRecallAdj,1,,,,,,,,,,,,,,,,,,,,,,,,,,,,,,,,,,,,,,,,,,,,,,,,,,,,,1478.6561720999998,1478.6658385,0,1478.6658385,1484.1694185000001,winzig,return,5.502867800000331,None,1484.1696873,1484.1786013,1484.1786013,1486.5288813000002,verspielt,return,2.342024699999911,None,,,,,1,2024-01-17_11h34.28.330,watkins1,2023.2.3,99.76644674808321,93,2024-01-17 11h34.37.507578 +0000,
,,,,,,,,,,,,,,,,,,,,,,,20,0,20,0,1487.0306415,,,,,,,,,,1490.1470297,1490.645591,,,,3.1062401999997746,,,,,,,,,,,,None,None,,,,,,,,,,Hut,,,cuedRecallAdj,1,,,,,,,,,,,,,,,,,,,,,,,,,,,,,,,,,,,,,,,,,,,,,,,,,,,,,1487.0209636,1487.0306415,0,1487.0306415,1490.1439394,neu,return,3.1062401999997746,None,1490.1442194,1490.153475,1490.153475,1490.1468593,,None,,,,,,,1,2024-01-17_11h34.28.330,watkins1,2023.2.3,99.76644674808321,93,2024-01-17 11h34.37.507578 +0000,
,,,,,,,,,,,,,,,,,,,,,,,21,0,21,0,1490.6555383999998,,,,,,,,,,1501.0097624999999,1501.5011565999998,,,,4.545028300000013,,,,,,,,,,,,5.804132499999923,None,,,,,,,,,,Buch,,,cuedRecallAdj,1,,,,,,,,,,,,,,,,,,,,,,,,,,,,,,,,,,,,,,,,,,,,,,,,,,,,,1490.6458346999998,1490.6555383999998,0,1490.6555383999998,1495.2046441000002,,return,4.545028300000013,None,1495.2049151,1495.2141809999998,1495.2141809999998,1501.0094929000002,,return,5.794570999999905,None,,,,,1,2024-01-17_11h34.28.330,watkins1,2023.2.3,99.76644674808321,93,2024-01-17 11h34.37.507578 +0000,
,,,,,,,,,,,,,,,,,,,,,,,22,0,22,0,1501.5111035,,,,,,,,,,1504.4962314999998,1504.9860007000002,,,,2.9775728999998137,,,,,,,,,,,,None,None,,,,,,,,,,Socke,,,cuedRecallAdj,1,,,,,,,,,,,,,,,,,,,,,,,,,,,,,,,,,,,,,,,,,,,,,,,,,,,,,1501.5013983,1501.5111035,0,1501.5111035,1504.4943696999999,,return,2.9775728999998137,None,1504.4946257000001,1504.5039271,1504.5039271,1504.4961333,,None,,,,,,,1,2024-01-17_11h34.28.330,watkins1,2023.2.3,99.76644674808321,93,2024-01-17 11h34.37.507578 +0000,
,,,,,,,,,,,,,,,,,,,,,,,23,0,23,0,1504.9959497999998,,,,,,,,,,1510.5121589,1511.0107708,,,,5.5086686999998165,,,,,,,,,,,,None,None,,,,,,,,,,Lampe,,,cuedRecallAdj,1,,,,,,,,,,,,,,,,,,,,,,,,,,,,,,,,,,,,,,,,,,,,,,,,,,,,,1504.9862423,1504.9959497999998,0,1504.9959497999998,1510.5090930000001,praktisch,return,5.5086686999998165,None,1510.5093597999999,1510.5186349,1510.5186349,1510.5120541000001,,None,,,,,,,1,2024-01-17_11h34.28.330,watkins1,2023.2.3,99.76644674808321,93,2024-01-17 11h34.37.507578 +0000,
,,,,,,,,,,,,,,,,,,,,,,,24,0,24,0,1511.020723,,,,,,,,,,1514.3881842,1514.8867896000002,,,,3.3558247000000847,,,,,,,,,,,,None,None,,,,,,,,,,Würfel,,,cuedRecallAdj,1,,,,,,,,,,,,,,,,,,,,,,,,,,,,,,,,,,,,,,,,,,,,,,,,,,,,,1511.0110146000002,1511.020723,0,1511.020723,1514.3851811999998,kaputt,return,3.3558247000000847,None,1514.3854488000002,1514.3949031000002,1514.3949031000002,1514.3880819,,None,,,,,,,1,2024-01-17_11h34.28.330,watkins1,2023.2.3,99.76644674808321,93,2024-01-17 11h34.37.507578 +0000,
,,,,,,,,,,,,,,,,,,,,,,,25,0,25,0,1514.8968332999998,,,,,,,,,,1520.1802391,1520.6714252000002,,,groß,3.2557726000000002,,,,,,,,,,,,0.6320528999999624,None,,,,,,,,,,Flasche,,,cuedRecallAdj,1,,,,,,,,,,,,,,,,,,,,,,,,,,,,,,,,,,,,,,,,,,,,,,,,,,,,,1514.8870367,1514.8968332999998,0,1514.8968332999998,1518.1615143,breit,return,3.2557726000000002,None,1518.1617830999999,1518.1712388,1518.1712388,1520.1799727000002,groß,return,2.0053972999999132,None,,,,,1,2024-01-17_11h34.28.330,watkins1,2023.2.3,99.76644674808321,93,2024-01-17 11h34.37.507578 +0000,
,,,,,,,,,,,,,,,,,,,,,,,26,0,26,0,1520.681353,,,,,,,,,,1530.3662373000002,1530.8641031000002,,,,9.679275899999993,,,,,,,,,,,,None,None,,,,,,,,,,Vase,,,cuedRecallAdj,1,,,,,,,,,,,,,,,,,,,,,,,,,,,,,,,,,,,,,,,,,,,,,,,,,,,,,1520.6716686,1520.681353,0,1520.681353,1530.3626301,praktisch,return,9.679275899999993,None,1530.3628942,1530.3722377,1530.3722377,1530.3661351,,None,,,,,,,1,2024-01-17_11h34.28.330,watkins1,2023.2.3,99.76644674808321,93,2024-01-17 11h34.37.507578 +0000,
,,,,,,,,,,,,,,,,,,,,,,,27,0,27,0,1530.8740160000002,,,,,,,,,,1536.4418105,1536.9406646000002,,,,5.558594699999958,,,,,,,,,,,,None,None,,,,,,,,,,Fahrrad,,,cuedRecallAdj,1,,,,,,,,,,,,,,,,,,,,,,,,,,,,,,,,,,,,,,,,,,,,,,,,,,,,,1530.8643487999998,1530.8740160000002,0,1530.8740160000002,1536.4387732999999,dreckig,return,5.558594699999958,None,1536.4390408,1536.448382,1536.448382,1536.4417082,,None,,,,,,,1,2024-01-17_11h34.28.330,watkins1,2023.2.3,99.76644674808321,93,2024-01-17 11h34.37.507578 +0000,
,,,,,,,,,,,,,,,,,,,,,,,28,0,28,0,1536.9506118,,,,,,,,,,1539.6047680000001,1540.1034132,,,,2.6420874999998887,,,,,,,,,,,,None,None,,,,,,,,,,Kiste,,,cuedRecallAdj,1,,,,,,,,,,,,,,,,,,,,,,,,,,,,,,,,,,,,,,,,,,,,,,,,,,,,,1536.9409052,1536.9506118,0,1536.9506118,1539.601717,niedlich,return,2.6420874999998887,None,1539.6019801000002,1539.6114914999998,1539.6114914999998,1539.6046669000002,,None,,,,,,,1,2024-01-17_11h34.28.330,watkins1,2023.2.3,99.76644674808321,93,2024-01-17 11h34.37.507578 +0000,
,,,,,,,,,,,,,,,,,,,,,,,29,0,29,0,1540.1133721,,,,,,,,,,1543.3400422999998,1543.8390733,,,,3.2231652000000395,,,,,,,,,,,,None,None,,,,,,,,,,Ring,,,cuedRecallAdj,1,,,,,,,,,,,,,,,,,,,,,,,,,,,,,,,,,,,,,,,,,,,,,,,,,,,,,1540.1036589999999,1540.1133721,0,1540.1133721,1543.3372960000002,zart,return,3.2231652000000395,None,1543.3375612,1543.3468149999999,1543.3468149999999,1543.3399389,,None,,,,,,,1,2024-01-17_11h34.28.330,watkins1,2023.2.3,99.76644674808321,93,2024-01-17 11h34.37.507578 +0000,
,,,,,,,,,,,,,,,,,,,,,,,,,,,,,,,,,,,,,,,,,,,,,,,,,,,,,,,,,,,,,,,,,,,,,1,,,,,,,,,,,,,,,,,,,,,,,,,,,,,,,,,,,,,,,,,,,,,,,,,,,,,,,,,,,,,,,,,,,,,,1543.8559452999998,q,5575.444966999999,None,1,2024-01-17_11h34.28.330,watkins1,2023.2.3,99.76644674808321,93,2024-01-17 11h34.37.507578 +0000,
