Equation,CorrectResponse,Correctbutton,trials_7.thisRepN,trials_7.thisTrialN,trials_7.thisN,trials_7.thisIndex,trials.thisRepN,trials.thisTrialN,trials.thisN,trials.thisIndex,trials_3.thisRepN,trials_3.thisTrialN,trials_3.thisN,trials_3.thisIndex,trials_2.thisRepN,trials_2.thisTrialN,trials_2.thisN,trials_2.thisIndex,trials_4.thisRepN,trials_4.thisTrialN,trials_4.thisN,trials_4.thisIndex,trials_5.thisRepN,trials_5.thisTrialN,trials_5.thisN,trials_5.thisIndex,thisRow.t,notes,code_marius.started,code_marius.stopped,welcome.started,welcome.stopped,instruction_study.started,instruction_study.stopped,fixationcross.started,fixationcross.stopped,blanc.started,blanc.stopped,study_control_probe.started,study_control_probe.stopped,responseKey,responseTime,scale_answer_2.keys,study_control_probe_2.started,study_control_probe_2.stopped,scale_answer_3.keys,scale_answer_3.rt,scale_answer_3.duration,blanc_2.started,blanc_2.stopped,test_attr_probe.started,test_attr_probe.stopped,recalled_attr,firstKeyTime,secondWordTime,blanc_3.started,blanc_3.stopped,test_sub_probe.started,test_sub_probe.stopped,recalled_sub,instruction_probe_end.started,instruction_probe_end.stopped,study.started,study.stopped,substantive,adjective,wordpair,task,condition,liste_sub_phase1,liste_adj_phase1,scale_answer.keys,scale_answer.rt,scale_answer.duration,code_defineWordsInit.started,code_defineWordsInit.stopped,liste_sub_phase2,study_control.started,study_control.stopped,scale_answer_4.keys,restudy_same.started,restudy_same.stopped,scale_answer_5.keys,restudy_different.started,restudy_different.stopped,scale_answer_6.keys,test_attr.started,correct,test_attr.stopped,test_sub.started,test_sub.stopped,scale_answer_5.rt,scale_answer_5.duration,distractortask.started,equation_text.started,distractortask.stopped,mouse_answer.x,mouse_answer.y,mouse_answer.leftButton,mouse_answer.midButton,mouse_answer.rightButton,mouse_answer.time,mouse_answer.clicked_name,feedback_distractortask.started,feedback_distractortask.stopped,free_recall.started,text_enter.started,key_resp.started,free_recall.stopped,key_resp.keys,key_resp.rt,key_resp.duration,free_recalled_sub,mouse_continue.x,mouse_continue.y,mouse_continue.leftButton,mouse_continue.midButton,mouse_continue.rightButton,mouse_continue.time,mouse_continue.clicked_name,cued_recall.started,text_enter_2.started,key_continue.started,cued_recall.stopped,recalled_attr1,key_continue.keys,key_continue.rt,key_continue.duration,cued_recall_2.started,text_enter_3.started,key_continue_2.started,cued_recall_2.stopped,recalled_attr2,key_continue_2.keys,key_resp_8.started,key_resp_8.keys,key_resp_8.rt,key_resp_8.duration,condition,date,expName,psychopyVersion,frameRate,participant,expStart,
,,,,,,,,,,,,,,,,,,,,,,,,,,,,,0.11858880007639527,0.11865620012395084,0.11866470007225871,9.96901290002279,,,,,,,,,,,,,,,,,,,,,,,,,,,,,,,,,,,,,3,,,,,,,,,,,,,,,,,,,,,,,,,,,,,,,,,,,,,,,,,,,,,,,,,,,,,,,,,,,,,,,,,,,,,,3,2024-01-30_11h18.34.457,watkins1,2023.2.3,99.73361160809621,102,2024-01-30 11h18.40.997836 +0000,
,,,,,,,,,,,,,,,,,,,,,,,,,,,,,,,,,9.96906190016307,43.091968200169504,,,,,,,,,,,,,,,,,,,,,,,,,,,,,,,,,,,3,,,,,,,,,,,,,,,,,,,,,,,,,,,,,,,,,,,,,,,,,,,,,,,,,,,,,,,,,,,,,,,,,,,,,,3,2024-01-30_11h18.34.457,watkins1,2023.2.3,99.73361160809621,102,2024-01-30 11h18.40.997836 +0000,
,,,0,0,0,0,,,,,,,,,,,,,,,,,,,,,44.10836430010386,,,,,,,,43.091985900187865,44.09841400012374,50.60069110011682,51.092403100105,44.59017590014264,50.60052470001392,2,3.243391300085932,None,51.092414300190285,57.096307900035754,2,3.243391300085932,None,57.096598900156096,57.58780900016427,57.58781950012781,63.59200650011189,vergnügt,None,None,63.59223070018925,63.5922538000159,63.5922608000692,63.59234350011684,,,,,,,,,,3,,,,,,,,,,,,,,,,,,,,,,,,,,,,,,,,,,,,,,,,,,,,,,,,,,,,,,,,,,,,,,,,,,,,,,3,2024-01-30_11h18.34.457,watkins1,2023.2.3,99.73361160809621,102,2024-01-30 11h18.40.997836 +0000,
,,,,,,,,,,,,,,,,,,,,,,,,,,,,,,,,,,,,,,,,,,,,,,,,,,,,,,,,,,,,,63.59246430010535,70.84483309998177,,,,,,,3,,,,,,,,,,,,,,,,,,,,,,,,,,,,,,,,,,,,,,,,,,,,,,,,,,,,,,,,,,,,,,,,,,,,,,3,2024-01-30_11h18.34.457,watkins1,2023.2.3,99.73361160809621,102,2024-01-30 11h18.40.997836 +0000,
,,,,,,,0,0,0,0,,,,,,,,,,,,,,,,,71.85773520008661,,,,,,,,70.84484970010817,71.84778160019778,71.84824780002236,72.34001960000023,,,1,3.6006429998669773,,,,,,,,,,,,,,,,,,,,,72.34003000007942,78.34772970015183,Schlüssel,matt,"['Schlüssel', 'matt']",restudy,3,"['Schlüssel', 'Kiste', 'Lampe', 'Hammer', 'Würfel', 'Fahrrad', 'Tasse', 'Socke', 'Vase', 'Jacke', 'Bürste', 'Rucksack', 'Flasche', 'Telefon', 'Brille', 'Stift', 'Blume', 'Löffel', 'Eimer', 'Tasche', 'Hut', 'Kerze', 'Trommel', 'Schere', 'Geige', 'Uhr', 'Kamera', 'Buch', 'Kette', 'Ring']",['matt'],1,3.6006429998669773,None,,,,,,,,,,,,,,,,,,,,,,,,,,,,,,,,,,,,,,,,,,,,,,,,,,,,,,,,,,,,,,,,,3,2024-01-30_11h18.34.457,watkins1,2023.2.3,99.73361160809621,102,2024-01-30 11h18.40.997836 +0000,
,,,,,,,1,0,1,0,,,,,,,,,,,,,,,,,78.35715609998442,,,,,,,,,,78.3483921000734,78.83908820012584,,,1,1.3983803000301123,,,,,,,,,,,,,,,,,,,,,78.83909870008938,84.84423690009862,Kiste,niedlich,"['Kiste', 'niedlich']",test_adj,3,"['Schlüssel', 'Kiste', 'Lampe', 'Hammer', 'Würfel', 'Fahrrad', 'Tasse', 'Socke', 'Vase', 'Jacke', 'Bürste', 'Rucksack', 'Flasche', 'Telefon', 'Brille', 'Stift', 'Blume', 'Löffel', 'Eimer', 'Tasche', 'Hut', 'Kerze', 'Trommel', 'Schere', 'Geige', 'Uhr', 'Kamera', 'Buch', 'Kette', 'Ring']","['matt', 'niedlich']",1,1.3983803000301123,None,,,,,,,,,,,,,,,,,,,,,,,,,,,,,,,,,,,,,,,,,,,,,,,,,,,,,,,,,,,,,,,,,3,2024-01-30_11h18.34.457,watkins1,2023.2.3,99.73361160809621,102,2024-01-30 11h18.40.997836 +0000,
,,,,,,,2,0,2,0,,,,,,,,,,,,,,,,,84.85366690019146,,,,,,,,,,84.84477040008642,85.3355256000068,,,1,1.4539778002072126,,,,,,,,,,,,,,,,,,,,,85.33553560008295,91.33953600004315,Lampe,zart,"['Lampe', 'zart']",restudy,3,"['Schlüssel', 'Kiste', 'Lampe', 'Hammer', 'Würfel', 'Fahrrad', 'Tasse', 'Socke', 'Vase', 'Jacke', 'Bürste', 'Rucksack', 'Flasche', 'Telefon', 'Brille', 'Stift', 'Blume', 'Löffel', 'Eimer', 'Tasche', 'Hut', 'Kerze', 'Trommel', 'Schere', 'Geige', 'Uhr', 'Kamera', 'Buch', 'Kette', 'Ring']","['matt', 'niedlich', 'zart']",1,1.4539778002072126,None,,,,,,,,,,,,,,,,,,,,,,,,,,,,,,,,,,,,,,,,,,,,,,,,,,,,,,,,,,,,,,,,,3,2024-01-30_11h18.34.457,watkins1,2023.2.3,99.73361160809621,102,2024-01-30 11h18.40.997836 +0000,
,,,,,,,3,0,3,0,,,,,,,,,,,,,,,,,91.34886380005628,,,,,,,,,,91.34009340009652,91.8311881001573,,,2,2.5819039000198245,,,,,,,,,,,,,,,,,,,,,91.83119950001128,97.84020720003173,Hammer,hässlich,"['Hammer', 'hässlich']",restudy,3,"['Schlüssel', 'Kiste', 'Lampe', 'Hammer', 'Würfel', 'Fahrrad', 'Tasse', 'Socke', 'Vase', 'Jacke', 'Bürste', 'Rucksack', 'Flasche', 'Telefon', 'Brille', 'Stift', 'Blume', 'Löffel', 'Eimer', 'Tasche', 'Hut', 'Kerze', 'Trommel', 'Schere', 'Geige', 'Uhr', 'Kamera', 'Buch', 'Kette', 'Ring']","['matt', 'niedlich', 'zart', 'hässlich']",2,2.5819039000198245,None,,,,,,,,,,,,,,,,,,,,,,,,,,,,,,,,,,,,,,,,,,,,,,,,,,,,,,,,,,,,,,,,,3,2024-01-30_11h18.34.457,watkins1,2023.2.3,99.73361160809621,102,2024-01-30 11h18.40.997836 +0000,
,,,,,,,4,0,4,0,,,,,,,,,,,,,,,,,97.84936740016565,,,,,,,,,,97.84081590012647,98.33284709998406,,,2,1.3828149000182748,,,,,,,,,,,,,,,,,,,,,98.33285890007392,104.33409120002761,Würfel,glänzend,"['Würfel', 'glänzend']",restudy,3,"['Schlüssel', 'Kiste', 'Lampe', 'Hammer', 'Würfel', 'Fahrrad', 'Tasse', 'Socke', 'Vase', 'Jacke', 'Bürste', 'Rucksack', 'Flasche', 'Telefon', 'Brille', 'Stift', 'Blume', 'Löffel', 'Eimer', 'Tasche', 'Hut', 'Kerze', 'Trommel', 'Schere', 'Geige', 'Uhr', 'Kamera', 'Buch', 'Kette', 'Ring']","['matt', 'niedlich', 'zart', 'hässlich', 'glänzend']",2,1.3828149000182748,None,,,,,,,,,,,,,,,,,,,,,,,,,,,,,,,,,,,,,,,,,,,,,,,,,,,,,,,,,,,,,,,,,3,2024-01-30_11h18.34.457,watkins1,2023.2.3,99.73361160809621,102,2024-01-30 11h18.40.997836 +0000,
,,,,,,,5,0,5,0,,,,,,,,,,,,,,,,,104.34350990015082,,,,,,,,,,104.33463260019198,104.82554700016044,,,2,2.139962999848649,,,,,,,,,,,,,,,,,,,,,104.82555750012398,110.8354136000853,Fahrrad,rustikal,"['Fahrrad', 'rustikal']",test_adj,3,"['Schlüssel', 'Kiste', 'Lampe', 'Hammer', 'Würfel', 'Fahrrad', 'Tasse', 'Socke', 'Vase', 'Jacke', 'Bürste', 'Rucksack', 'Flasche', 'Telefon', 'Brille', 'Stift', 'Blume', 'Löffel', 'Eimer', 'Tasche', 'Hut', 'Kerze', 'Trommel', 'Schere', 'Geige', 'Uhr', 'Kamera', 'Buch', 'Kette', 'Ring']","['matt', 'niedlich', 'zart', 'hässlich', 'glänzend', 'rustikal']",2,2.139962999848649,None,,,,,,,,,,,,,,,,,,,,,,,,,,,,,,,,,,,,,,,,,,,,,,,,,,,,,,,,,,,,,,,,,3,2024-01-30_11h18.34.457,watkins1,2023.2.3,99.73361160809621,102,2024-01-30 11h18.40.997836 +0000,
,,,,,,,6,0,6,0,,,,,,,,,,,,,,,,,110.84490650007501,,,,,,,,,,110.83593320008367,111.32695190003142,,,1,1.2948085002135485,,,,,,,,,,,,,,,,,,,,,111.32696190010756,117.33052360010333,Tasse,biegsam,"['Tasse', 'biegsam']",test_adj,3,"['Schlüssel', 'Kiste', 'Lampe', 'Hammer', 'Würfel', 'Fahrrad', 'Tasse', 'Socke', 'Vase', 'Jacke', 'Bürste', 'Rucksack', 'Flasche', 'Telefon', 'Brille', 'Stift', 'Blume', 'Löffel', 'Eimer', 'Tasche', 'Hut', 'Kerze', 'Trommel', 'Schere', 'Geige', 'Uhr', 'Kamera', 'Buch', 'Kette', 'Ring']","['matt', 'niedlich', 'zart', 'hässlich', 'glänzend', 'rustikal', 'biegsam']",1,1.2948085002135485,None,,,,,,,,,,,,,,,,,,,,,,,,,,,,,,,,,,,,,,,,,,,,,,,,,,,,,,,,,,,,,,,,,3,2024-01-30_11h18.34.457,watkins1,2023.2.3,99.73361160809621,102,2024-01-30 11h18.40.997836 +0000,
,,,,,,,7,0,7,0,,,,,,,,,,,,,,,,,117.34001080016606,,,,,,,,,,117.33106950018555,117.82231560000218,,,2,2.055930299917236,,,,,,,,,,,,,,,,,,,,,117.82232580007985,123.82303289999254,Socke,sportlich,"['Socke', 'sportlich']",restudy,3,"['Schlüssel', 'Kiste', 'Lampe', 'Hammer', 'Würfel', 'Fahrrad', 'Tasse', 'Socke', 'Vase', 'Jacke', 'Bürste', 'Rucksack', 'Flasche', 'Telefon', 'Brille', 'Stift', 'Blume', 'Löffel', 'Eimer', 'Tasche', 'Hut', 'Kerze', 'Trommel', 'Schere', 'Geige', 'Uhr', 'Kamera', 'Buch', 'Kette', 'Ring']","['matt', 'niedlich', 'zart', 'hässlich', 'glänzend', 'rustikal', 'biegsam', 'sportlich']",2,2.055930299917236,None,,,,,,,,,,,,,,,,,,,,,,,,,,,,,,,,,,,,,,,,,,,,,,,,,,,,,,,,,,,,,,,,,3,2024-01-30_11h18.34.457,watkins1,2023.2.3,99.73361160809621,102,2024-01-30 11h18.40.997836 +0000,
,,,,,,,8,0,8,0,,,,,,,,,,,,,,,,,123.8324790999759,,,,,,,,,,123.82354790018871,124.31438480014913,,,1,1.8356439000926912,,,,,,,,,,,,,,,,,,,,,124.31439670012332,130.31570919998921,Vase,robust,"['Vase', 'robust']",restudy,3,"['Schlüssel', 'Kiste', 'Lampe', 'Hammer', 'Würfel', 'Fahrrad', 'Tasse', 'Socke', 'Vase', 'Jacke', 'Bürste', 'Rucksack', 'Flasche', 'Telefon', 'Brille', 'Stift', 'Blume', 'Löffel', 'Eimer', 'Tasche', 'Hut', 'Kerze', 'Trommel', 'Schere', 'Geige', 'Uhr', 'Kamera', 'Buch', 'Kette', 'Ring']","['matt', 'niedlich', 'zart', 'hässlich', 'glänzend', 'rustikal', 'biegsam', 'sportlich', 'robust']",1,1.8356439000926912,None,,,,,,,,,,,,,,,,,,,,,,,,,,,,,,,,,,,,,,,,,,,,,,,,,,,,,,,,,,,,,,,,,3,2024-01-30_11h18.34.457,watkins1,2023.2.3,99.73361160809621,102,2024-01-30 11h18.40.997836 +0000,
,,,,,,,9,0,9,0,,,,,,,,,,,,,,,,,130.32516170013696,,,,,,,,,,130.316242699977,130.80742270010523,,,2,1.7977433998603374,,,,,,,,,,,,,,,,,,,,,130.80743320006877,136.8139639000874,Jacke,groß,"['Jacke', 'groß']",restudy,3,"['Schlüssel', 'Kiste', 'Lampe', 'Hammer', 'Würfel', 'Fahrrad', 'Tasse', 'Socke', 'Vase', 'Jacke', 'Bürste', 'Rucksack', 'Flasche', 'Telefon', 'Brille', 'Stift', 'Blume', 'Löffel', 'Eimer', 'Tasche', 'Hut', 'Kerze', 'Trommel', 'Schere', 'Geige', 'Uhr', 'Kamera', 'Buch', 'Kette', 'Ring']","['matt', 'niedlich', 'zart', 'hässlich', 'glänzend', 'rustikal', 'biegsam', 'sportlich', 'robust', 'groß']",2,1.7977433998603374,None,,,,,,,,,,,,,,,,,,,,,,,,,,,,,,,,,,,,,,,,,,,,,,,,,,,,,,,,,,,,,,,,,3,2024-01-30_11h18.34.457,watkins1,2023.2.3,99.73361160809621,102,2024-01-30 11h18.40.997836 +0000,
,,,,,,,10,0,10,0,,,,,,,,,,,,,,,,,136.82345260004513,,,,,,,,,,136.81448800000362,137.30545760015957,,,2,2.0444720000959933,,,,,,,,,,,,,,,,,,,,,137.30546830012463,143.3073548001703,Bürste,nass,"['Bürste', 'nass']",test_adj,3,"['Schlüssel', 'Kiste', 'Lampe', 'Hammer', 'Würfel', 'Fahrrad', 'Tasse', 'Socke', 'Vase', 'Jacke', 'Bürste', 'Rucksack', 'Flasche', 'Telefon', 'Brille', 'Stift', 'Blume', 'Löffel', 'Eimer', 'Tasche', 'Hut', 'Kerze', 'Trommel', 'Schere', 'Geige', 'Uhr', 'Kamera', 'Buch', 'Kette', 'Ring']","['matt', 'niedlich', 'zart', 'hässlich', 'glänzend', 'rustikal', 'biegsam', 'sportlich', 'robust', 'groß', 'nass']",2,2.0444720000959933,None,,,,,,,,,,,,,,,,,,,,,,,,,,,,,,,,,,,,,,,,,,,,,,,,,,,,,,,,,,,,,,,,,3,2024-01-30_11h18.34.457,watkins1,2023.2.3,99.73361160809621,102,2024-01-30 11h18.40.997836 +0000,
,,,,,,,11,0,11,0,,,,,,,,,,,,,,,,,143.3167551001534,,,,,,,,,,143.30788760003634,143.79882879997604,,,2,2.4871961001772434,,,,,,,,,,,,,,,,,,,,,143.79883960005827,149.80873180017807,Rucksack,neu,"['Rucksack', 'neu']",restudy,3,"['Schlüssel', 'Kiste', 'Lampe', 'Hammer', 'Würfel', 'Fahrrad', 'Tasse', 'Socke', 'Vase', 'Jacke', 'Bürste', 'Rucksack', 'Flasche', 'Telefon', 'Brille', 'Stift', 'Blume', 'Löffel', 'Eimer', 'Tasche', 'Hut', 'Kerze', 'Trommel', 'Schere', 'Geige', 'Uhr', 'Kamera', 'Buch', 'Kette', 'Ring']","['matt', 'niedlich', 'zart', 'hässlich', 'glänzend', 'rustikal', 'biegsam', 'sportlich', 'robust', 'groß', 'nass', 'neu']",2,2.4871961001772434,None,,,,,,,,,,,,,,,,,,,,,,,,,,,,,,,,,,,,,,,,,,,,,,,,,,,,,,,,,,,,,,,,,3,2024-01-30_11h18.34.457,watkins1,2023.2.3,99.73361160809621,102,2024-01-30 11h18.40.997836 +0000,
,,,,,,,12,0,12,0,,,,,,,,,,,,,,,,,149.81820029998198,,,,,,,,,,149.80926110013388,150.30025149998255,,,1,1.722204799996689,,,,,,,,,,,,,,,,,,,,,150.30026240018196,156.31079550017603,Flasche,blass,"['Flasche', 'blass']",test_adj,3,"['Schlüssel', 'Kiste', 'Lampe', 'Hammer', 'Würfel', 'Fahrrad', 'Tasse', 'Socke', 'Vase', 'Jacke', 'Bürste', 'Rucksack', 'Flasche', 'Telefon', 'Brille', 'Stift', 'Blume', 'Löffel', 'Eimer', 'Tasche', 'Hut', 'Kerze', 'Trommel', 'Schere', 'Geige', 'Uhr', 'Kamera', 'Buch', 'Kette', 'Ring']","['matt', 'niedlich', 'zart', 'hässlich', 'glänzend', 'rustikal', 'biegsam', 'sportlich', 'robust', 'groß', 'nass', 'neu', 'blass']",1,1.722204799996689,None,,,,,,,,,,,,,,,,,,,,,,,,,,,,,,,,,,,,,,,,,,,,,,,,,,,,,,,,,,,,,,,,,3,2024-01-30_11h18.34.457,watkins1,2023.2.3,99.73361160809621,102,2024-01-30 11h18.40.997836 +0000,
,,,,,,,13,0,13,0,,,,,,,,,,,,,,,,,156.32021700008772,,,,,,,,,,156.3113324001897,156.80232370016165,,,3,2.620352099882439,,,,,,,,,,,,,,,,,,,,,156.80233430000953,162.8044034000486,Telefon,glatt,"['Telefon', 'glatt']",test_adj,3,"['Schlüssel', 'Kiste', 'Lampe', 'Hammer', 'Würfel', 'Fahrrad', 'Tasse', 'Socke', 'Vase', 'Jacke', 'Bürste', 'Rucksack', 'Flasche', 'Telefon', 'Brille', 'Stift', 'Blume', 'Löffel', 'Eimer', 'Tasche', 'Hut', 'Kerze', 'Trommel', 'Schere', 'Geige', 'Uhr', 'Kamera', 'Buch', 'Kette', 'Ring']","['matt', 'niedlich', 'zart', 'hässlich', 'glänzend', 'rustikal', 'biegsam', 'sportlich', 'robust', 'groß', 'nass', 'neu', 'blass', 'glatt']",3,2.620352099882439,None,,,,,,,,,,,,,,,,,,,,,,,,,,,,,,,,,,,,,,,,,,,,,,,,,,,,,,,,,,,,,,,,,3,2024-01-30_11h18.34.457,watkins1,2023.2.3,99.73361160809621,102,2024-01-30 11h18.40.997836 +0000,
,,,,,,,14,0,14,0,,,,,,,,,,,,,,,,,162.81377510004677,,,,,,,,,,162.80492300004698,163.2958770999685,,,3,1.102292399853468,,,,,,,,,,,,,,,,,,,,,163.29588750004768,169.29854210000485,Brille,durchsichtig,"['Brille', 'durchsichtig']",restudy,3,"['Schlüssel', 'Kiste', 'Lampe', 'Hammer', 'Würfel', 'Fahrrad', 'Tasse', 'Socke', 'Vase', 'Jacke', 'Bürste', 'Rucksack', 'Flasche', 'Telefon', 'Brille', 'Stift', 'Blume', 'Löffel', 'Eimer', 'Tasche', 'Hut', 'Kerze', 'Trommel', 'Schere', 'Geige', 'Uhr', 'Kamera', 'Buch', 'Kette', 'Ring']","['matt', 'niedlich', 'zart', 'hässlich', 'glänzend', 'rustikal', 'biegsam', 'sportlich', 'robust', 'groß', 'nass', 'neu', 'blass', 'glatt', 'durchsichtig']",3,1.102292399853468,None,,,,,,,,,,,,,,,,,,,,,,,,,,,,,,,,,,,,,,,,,,,,,,,,,,,,,,,,,,,,,,,,,3,2024-01-30_11h18.34.457,watkins1,2023.2.3,99.73361160809621,102,2024-01-30 11h18.40.997836 +0000,
,,,,,,,15,0,15,0,,,,,,,,,,,,,,,,,169.3079972001724,,,,,,,,,,169.2990833001677,169.79012170014903,,,3,0.9606311998795718,,,,,,,,,,,,,,,,,,,,,169.7901324001141,175.79949330003,Stift,lang,"['Stift', 'lang']",test_adj,3,"['Schlüssel', 'Kiste', 'Lampe', 'Hammer', 'Würfel', 'Fahrrad', 'Tasse', 'Socke', 'Vase', 'Jacke', 'Bürste', 'Rucksack', 'Flasche', 'Telefon', 'Brille', 'Stift', 'Blume', 'Löffel', 'Eimer', 'Tasche', 'Hut', 'Kerze', 'Trommel', 'Schere', 'Geige', 'Uhr', 'Kamera', 'Buch', 'Kette', 'Ring']","['matt', 'niedlich', 'zart', 'hässlich', 'glänzend', 'rustikal', 'biegsam', 'sportlich', 'robust', 'groß', 'nass', 'neu', 'blass', 'glatt', 'durchsichtig', 'lang']",3,0.9606311998795718,None,,,,,,,,,,,,,,,,,,,,,,,,,,,,,,,,,,,,,,,,,,,,,,,,,,,,,,,,,,,,,,,,,3,2024-01-30_11h18.34.457,watkins1,2023.2.3,99.73361160809621,102,2024-01-30 11h18.40.997836 +0000,
,,,,,,,16,0,16,0,,,,,,,,,,,,,,,,,175.80893260007724,,,,,,,,,,175.80001920019276,176.29146330012009,,,1,1.38728759996593,,,,,,,,,,,,,,,,,,,,,176.29147330019623,182.2924001000356,Blume,hohl,"['Blume', 'hohl']",restudy,3,"['Schlüssel', 'Kiste', 'Lampe', 'Hammer', 'Würfel', 'Fahrrad', 'Tasse', 'Socke', 'Vase', 'Jacke', 'Bürste', 'Rucksack', 'Flasche', 'Telefon', 'Brille', 'Stift', 'Blume', 'Löffel', 'Eimer', 'Tasche', 'Hut', 'Kerze', 'Trommel', 'Schere', 'Geige', 'Uhr', 'Kamera', 'Buch', 'Kette', 'Ring']","['matt', 'niedlich', 'zart', 'hässlich', 'glänzend', 'rustikal', 'biegsam', 'sportlich', 'robust', 'groß', 'nass', 'neu', 'blass', 'glatt', 'durchsichtig', 'lang', 'hohl']",1,1.38728759996593,None,,,,,,,,,,,,,,,,,,,,,,,,,,,,,,,,,,,,,,,,,,,,,,,,,,,,,,,,,,,,,,,,,3,2024-01-30_11h18.34.457,watkins1,2023.2.3,99.73361160809621,102,2024-01-30 11h18.40.997836 +0000,
,,,,,,,17,0,17,0,,,,,,,,,,,,,,,,,182.30183340003714,,,,,,,,,,182.29292639996856,182.7838267001789,,,1,1.925573900109157,,,,,,,,,,,,,,,,,,,,,182.78383690002374,188.79195530014113,Löffel,lustig,"['Löffel', 'lustig']",restudy,3,"['Schlüssel', 'Kiste', 'Lampe', 'Hammer', 'Würfel', 'Fahrrad', 'Tasse', 'Socke', 'Vase', 'Jacke', 'Bürste', 'Rucksack', 'Flasche', 'Telefon', 'Brille', 'Stift', 'Blume', 'Löffel', 'Eimer', 'Tasche', 'Hut', 'Kerze', 'Trommel', 'Schere', 'Geige', 'Uhr', 'Kamera', 'Buch', 'Kette', 'Ring']","['matt', 'niedlich', 'zart', 'hässlich', 'glänzend', 'rustikal', 'biegsam', 'sportlich', 'robust', 'groß', 'nass', 'neu', 'blass', 'glatt', 'durchsichtig', 'lang', 'hohl', 'lustig']",1,1.925573900109157,None,,,,,,,,,,,,,,,,,,,,,,,,,,,,,,,,,,,,,,,,,,,,,,,,,,,,,,,,,,,,,,,,,3,2024-01-30_11h18.34.457,watkins1,2023.2.3,99.73361160809621,102,2024-01-30 11h18.40.997836 +0000,
,,,,,,,18,0,18,0,,,,,,,,,,,,,,,,,188.8012806000188,,,,,,,,,,188.79251130018383,189.2832999001257,,,1,1.4346360999625176,,,,,,,,,,,,,,,,,,,,,189.28330980008468,195.29292250005528,Eimer,flach,"['Eimer', 'flach']",restudy,3,"['Schlüssel', 'Kiste', 'Lampe', 'Hammer', 'Würfel', 'Fahrrad', 'Tasse', 'Socke', 'Vase', 'Jacke', 'Bürste', 'Rucksack', 'Flasche', 'Telefon', 'Brille', 'Stift', 'Blume', 'Löffel', 'Eimer', 'Tasche', 'Hut', 'Kerze', 'Trommel', 'Schere', 'Geige', 'Uhr', 'Kamera', 'Buch', 'Kette', 'Ring']","['matt', 'niedlich', 'zart', 'hässlich', 'glänzend', 'rustikal', 'biegsam', 'sportlich', 'robust', 'groß', 'nass', 'neu', 'blass', 'glatt', 'durchsichtig', 'lang', 'hohl', 'lustig', 'flach']",1,1.4346360999625176,None,,,,,,,,,,,,,,,,,,,,,,,,,,,,,,,,,,,,,,,,,,,,,,,,,,,,,,,,,,,,,,,,,3,2024-01-30_11h18.34.457,watkins1,2023.2.3,99.73361160809621,102,2024-01-30 11h18.40.997836 +0000,
,,,,,,,19,0,19,0,,,,,,,,,,,,,,,,,195.30239460011944,,,,,,,,,,195.29344520019367,195.78436440019868,,,2,1.7821279000490904,,,,,,,,,,,,,,,,,,,,,195.78437490016222,201.78548780013807,Tasche,elegant,"['Tasche', 'elegant']",test_adj,3,"['Schlüssel', 'Kiste', 'Lampe', 'Hammer', 'Würfel', 'Fahrrad', 'Tasse', 'Socke', 'Vase', 'Jacke', 'Bürste', 'Rucksack', 'Flasche', 'Telefon', 'Brille', 'Stift', 'Blume', 'Löffel', 'Eimer', 'Tasche', 'Hut', 'Kerze', 'Trommel', 'Schere', 'Geige', 'Uhr', 'Kamera', 'Buch', 'Kette', 'Ring']","['matt', 'niedlich', 'zart', 'hässlich', 'glänzend', 'rustikal', 'biegsam', 'sportlich', 'robust', 'groß', 'nass', 'neu', 'blass', 'glatt', 'durchsichtig', 'lang', 'hohl', 'lustig', 'flach', 'elegant']",2,1.7821279000490904,None,,,,,,,,,,,,,,,,,,,,,,,,,,,,,,,,,,,,,,,,,,,,,,,,,,,,,,,,,,,,,,,,,3,2024-01-30_11h18.34.457,watkins1,2023.2.3,99.73361160809621,102,2024-01-30 11h18.40.997836 +0000,
,,,,,,,20,0,20,0,,,,,,,,,,,,,,,,,201.79486260004342,,,,,,,,,,201.7860340999905,202.27704970003106,,,1,2.641894199885428,,,,,,,,,,,,,,,,,,,,,202.27705990010872,208.2856388001237,Hut,klobig,"['Hut', 'klobig']",restudy,3,"['Schlüssel', 'Kiste', 'Lampe', 'Hammer', 'Würfel', 'Fahrrad', 'Tasse', 'Socke', 'Vase', 'Jacke', 'Bürste', 'Rucksack', 'Flasche', 'Telefon', 'Brille', 'Stift', 'Blume', 'Löffel', 'Eimer', 'Tasche', 'Hut', 'Kerze', 'Trommel', 'Schere', 'Geige', 'Uhr', 'Kamera', 'Buch', 'Kette', 'Ring']","['matt', 'niedlich', 'zart', 'hässlich', 'glänzend', 'rustikal', 'biegsam', 'sportlich', 'robust', 'groß', 'nass', 'neu', 'blass', 'glatt', 'durchsichtig', 'lang', 'hohl', 'lustig', 'flach', 'elegant', 'klobig']",1,2.641894199885428,None,,,,,,,,,,,,,,,,,,,,,,,,,,,,,,,,,,,,,,,,,,,,,,,,,,,,,,,,,,,,,,,,,3,2024-01-30_11h18.34.457,watkins1,2023.2.3,99.73361160809621,102,2024-01-30 11h18.40.997836 +0000,
,,,,,,,21,0,21,0,,,,,,,,,,,,,,,,,208.29503460018896,,,,,,,,,,208.2861798000522,208.7772654001601,,,2,1.7330644999165088,,,,,,,,,,,,,,,,,,,,,208.77727790013887,214.7824601000175,Kerze,kurz,"['Kerze', 'kurz']",test_adj,3,"['Schlüssel', 'Kiste', 'Lampe', 'Hammer', 'Würfel', 'Fahrrad', 'Tasse', 'Socke', 'Vase', 'Jacke', 'Bürste', 'Rucksack', 'Flasche', 'Telefon', 'Brille', 'Stift', 'Blume', 'Löffel', 'Eimer', 'Tasche', 'Hut', 'Kerze', 'Trommel', 'Schere', 'Geige', 'Uhr', 'Kamera', 'Buch', 'Kette', 'Ring']","['matt', 'niedlich', 'zart', 'hässlich', 'glänzend', 'rustikal', 'biegsam', 'sportlich', 'robust', 'groß', 'nass', 'neu', 'blass', 'glatt', 'durchsichtig', 'lang', 'hohl', 'lustig', 'flach', 'elegant', 'klobig', 'kurz']",2,1.7330644999165088,None,,,,,,,,,,,,,,,,,,,,,,,,,,,,,,,,,,,,,,,,,,,,,,,,,,,,,,,,,,,,,,,,,3,2024-01-30_11h18.34.457,watkins1,2023.2.3,99.73361160809621,102,2024-01-30 11h18.40.997836 +0000,
,,,,,,,22,0,22,0,,,,,,,,,,,,,,,,,214.79197200015187,,,,,,,,,,214.78298570006154,215.27382860006765,,,1,2.8685701999347657,,,,,,,,,,,,,,,,,,,,,215.27383890002966,221.28424550010823,Trommel,kaputt,"['Trommel', 'kaputt']",test_adj,3,"['Schlüssel', 'Kiste', 'Lampe', 'Hammer', 'Würfel', 'Fahrrad', 'Tasse', 'Socke', 'Vase', 'Jacke', 'Bürste', 'Rucksack', 'Flasche', 'Telefon', 'Brille', 'Stift', 'Blume', 'Löffel', 'Eimer', 'Tasche', 'Hut', 'Kerze', 'Trommel', 'Schere', 'Geige', 'Uhr', 'Kamera', 'Buch', 'Kette', 'Ring']","['matt', 'niedlich', 'zart', 'hässlich', 'glänzend', 'rustikal', 'biegsam', 'sportlich', 'robust', 'groß', 'nass', 'neu', 'blass', 'glatt', 'durchsichtig', 'lang', 'hohl', 'lustig', 'flach', 'elegant', 'klobig', 'kurz', 'kaputt']",1,2.8685701999347657,None,,,,,,,,,,,,,,,,,,,,,,,,,,,,,,,,,,,,,,,,,,,,,,,,,,,,,,,,,,,,,,,,,3,2024-01-30_11h18.34.457,watkins1,2023.2.3,99.73361160809621,102,2024-01-30 11h18.40.997836 +0000,
,,,,,,,23,0,23,0,,,,,,,,,,,,,,,,,221.293725800002,,,,,,,,,,221.28477060003206,221.77575200004503,,,2,1.7109018999617547,,,,,,,,,,,,,,,,,,,,,221.77576210000552,227.77962480019778,Schere,schmutzig,"['Schere', 'schmutzig']",restudy,3,"['Schlüssel', 'Kiste', 'Lampe', 'Hammer', 'Würfel', 'Fahrrad', 'Tasse', 'Socke', 'Vase', 'Jacke', 'Bürste', 'Rucksack', 'Flasche', 'Telefon', 'Brille', 'Stift', 'Blume', 'Löffel', 'Eimer', 'Tasche', 'Hut', 'Kerze', 'Trommel', 'Schere', 'Geige', 'Uhr', 'Kamera', 'Buch', 'Kette', 'Ring']","['matt', 'niedlich', 'zart', 'hässlich', 'glänzend', 'rustikal', 'biegsam', 'sportlich', 'robust', 'groß', 'nass', 'neu', 'blass', 'glatt', 'durchsichtig', 'lang', 'hohl', 'lustig', 'flach', 'elegant', 'klobig', 'kurz', 'kaputt', 'schmutzig']",2,1.7109018999617547,None,,,,,,,,,,,,,,,,,,,,,,,,,,,,,,,,,,,,,,,,,,,,,,,,,,,,,,,,,,,,,,,,,3,2024-01-30_11h18.34.457,watkins1,2023.2.3,99.73361160809621,102,2024-01-30 11h18.40.997836 +0000,
,,,,,,,24,0,24,0,,,,,,,,,,,,,,,,,227.789139600005,,,,,,,,,,227.78015420003794,228.27091139997356,,,2,2.5266468999907374,,,,,,,,,,,,,,,,,,,,,228.27092190016992,234.27947150007822,Geige,schlicht,"['Geige', 'schlicht']",test_adj,3,"['Schlüssel', 'Kiste', 'Lampe', 'Hammer', 'Würfel', 'Fahrrad', 'Tasse', 'Socke', 'Vase', 'Jacke', 'Bürste', 'Rucksack', 'Flasche', 'Telefon', 'Brille', 'Stift', 'Blume', 'Löffel', 'Eimer', 'Tasche', 'Hut', 'Kerze', 'Trommel', 'Schere', 'Geige', 'Uhr', 'Kamera', 'Buch', 'Kette', 'Ring']","['matt', 'niedlich', 'zart', 'hässlich', 'glänzend', 'rustikal', 'biegsam', 'sportlich', 'robust', 'groß', 'nass', 'neu', 'blass', 'glatt', 'durchsichtig', 'lang', 'hohl', 'lustig', 'flach', 'elegant', 'klobig', 'kurz', 'kaputt', 'schmutzig', 'schlicht']",2,2.5266468999907374,None,,,,,,,,,,,,,,,,,,,,,,,,,,,,,,,,,,,,,,,,,,,,,,,,,,,,,,,,,,,,,,,,,3,2024-01-30_11h18.34.457,watkins1,2023.2.3,99.73361160809621,102,2024-01-30 11h18.40.997836 +0000,
,,,,,,,25,0,25,0,,,,,,,,,,,,,,,,,234.28890889999457,,,,,,,,,,234.2799951999914,234.77082059998065,,,1,2.7472514999099076,,,,,,,,,,,,,,,,,,,,,234.77083230018616,240.77171090012416,Uhr,hübsch,"['Uhr', 'hübsch']",restudy,3,"['Schlüssel', 'Kiste', 'Lampe', 'Hammer', 'Würfel', 'Fahrrad', 'Tasse', 'Socke', 'Vase', 'Jacke', 'Bürste', 'Rucksack', 'Flasche', 'Telefon', 'Brille', 'Stift', 'Blume', 'Löffel', 'Eimer', 'Tasche', 'Hut', 'Kerze', 'Trommel', 'Schere', 'Geige', 'Uhr', 'Kamera', 'Buch', 'Kette', 'Ring']","['matt', 'niedlich', 'zart', 'hässlich', 'glänzend', 'rustikal', 'biegsam', 'sportlich', 'robust', 'groß', 'nass', 'neu', 'blass', 'glatt', 'durchsichtig', 'lang', 'hohl', 'lustig', 'flach', 'elegant', 'klobig', 'kurz', 'kaputt', 'schmutzig', 'schlicht', 'hübsch']",1,2.7472514999099076,None,,,,,,,,,,,,,,,,,,,,,,,,,,,,,,,,,,,,,,,,,,,,,,,,,,,,,,,,,,,,,,,,,3,2024-01-30_11h18.34.457,watkins1,2023.2.3,99.73361160809621,102,2024-01-30 11h18.40.997836 +0000,
,,,,,,,26,0,26,0,,,,,,,,,,,,,,,,,240.78117710002698,,,,,,,,,,240.77225140016526,241.26324360002764,,,2,3.1431491000112146,,,,,,,,,,,,,,,,,,,,,241.26325409999117,247.26773250009865,Kamera,kalt,"['Kamera', 'kalt']",test_adj,3,"['Schlüssel', 'Kiste', 'Lampe', 'Hammer', 'Würfel', 'Fahrrad', 'Tasse', 'Socke', 'Vase', 'Jacke', 'Bürste', 'Rucksack', 'Flasche', 'Telefon', 'Brille', 'Stift', 'Blume', 'Löffel', 'Eimer', 'Tasche', 'Hut', 'Kerze', 'Trommel', 'Schere', 'Geige', 'Uhr', 'Kamera', 'Buch', 'Kette', 'Ring']","['matt', 'niedlich', 'zart', 'hässlich', 'glänzend', 'rustikal', 'biegsam', 'sportlich', 'robust', 'groß', 'nass', 'neu', 'blass', 'glatt', 'durchsichtig', 'lang', 'hohl', 'lustig', 'flach', 'elegant', 'klobig', 'kurz', 'kaputt', 'schmutzig', 'schlicht', 'hübsch', 'kalt']",2,3.1431491000112146,None,,,,,,,,,,,,,,,,,,,,,,,,,,,,,,,,,,,,,,,,,,,,,,,,,,,,,,,,,,,,,,,,,3,2024-01-30_11h18.34.457,watkins1,2023.2.3,99.73361160809621,102,2024-01-30 11h18.40.997836 +0000,
,,,,,,,27,0,27,0,,,,,,,,,,,,,,,,,247.27711450005881,,,,,,,,,,247.26825039996766,247.7591380001977,,,3,1.3119180002249777,,,,,,,,,,,,,,,,,,,,,247.75914830015972,253.7690263001714,Buch,gut,"['Buch', 'gut']",test_adj,3,"['Schlüssel', 'Kiste', 'Lampe', 'Hammer', 'Würfel', 'Fahrrad', 'Tasse', 'Socke', 'Vase', 'Jacke', 'Bürste', 'Rucksack', 'Flasche', 'Telefon', 'Brille', 'Stift', 'Blume', 'Löffel', 'Eimer', 'Tasche', 'Hut', 'Kerze', 'Trommel', 'Schere', 'Geige', 'Uhr', 'Kamera', 'Buch', 'Kette', 'Ring']","['matt', 'niedlich', 'zart', 'hässlich', 'glänzend', 'rustikal', 'biegsam', 'sportlich', 'robust', 'groß', 'nass', 'neu', 'blass', 'glatt', 'durchsichtig', 'lang', 'hohl', 'lustig', 'flach', 'elegant', 'klobig', 'kurz', 'kaputt', 'schmutzig', 'schlicht', 'hübsch', 'kalt', 'gut']",3,1.3119180002249777,None,,,,,,,,,,,,,,,,,,,,,,,,,,,,,,,,,,,,,,,,,,,,,,,,,,,,,,,,,,,,,,,,,3,2024-01-30_11h18.34.457,watkins1,2023.2.3,99.73361160809621,102,2024-01-30 11h18.40.997836 +0000,
,,,,,,,28,0,28,0,,,,,,,,,,,,,,,,,253.7785070000682,,,,,,,,,,253.76956270006485,254.26032790006138,,,1,2.2901920001022518,,,,,,,,,,,,,,,,,,,,,254.2603382000234,260.26641140016727,Kette,gestreift,"['Kette', 'gestreift']",test_adj,3,"['Schlüssel', 'Kiste', 'Lampe', 'Hammer', 'Würfel', 'Fahrrad', 'Tasse', 'Socke', 'Vase', 'Jacke', 'Bürste', 'Rucksack', 'Flasche', 'Telefon', 'Brille', 'Stift', 'Blume', 'Löffel', 'Eimer', 'Tasche', 'Hut', 'Kerze', 'Trommel', 'Schere', 'Geige', 'Uhr', 'Kamera', 'Buch', 'Kette', 'Ring']","['matt', 'niedlich', 'zart', 'hässlich', 'glänzend', 'rustikal', 'biegsam', 'sportlich', 'robust', 'groß', 'nass', 'neu', 'blass', 'glatt', 'durchsichtig', 'lang', 'hohl', 'lustig', 'flach', 'elegant', 'klobig', 'kurz', 'kaputt', 'schmutzig', 'schlicht', 'hübsch', 'kalt', 'gut', 'gestreift']",1,2.2901920001022518,None,,,,,,,,,,,,,,,,,,,,,,,,,,,,,,,,,,,,,,,,,,,,,,,,,,,,,,,,,,,,,,,,,3,2024-01-30_11h18.34.457,watkins1,2023.2.3,99.73361160809621,102,2024-01-30 11h18.40.997836 +0000,
,,,,,,,29,0,29,0,,,,,,,,,,,,,,,,,260.2758426000364,,,,,,,,,,260.26694830018096,260.7579585001804,,,1,3.0409203998278826,,,,,,,,,,,,,,,,,,,,,260.7579688001424,266.76727190008387,Ring,dick,"['Ring', 'dick']",test_adj,3,"['Schlüssel', 'Kiste', 'Lampe', 'Hammer', 'Würfel', 'Fahrrad', 'Tasse', 'Socke', 'Vase', 'Jacke', 'Bürste', 'Rucksack', 'Flasche', 'Telefon', 'Brille', 'Stift', 'Blume', 'Löffel', 'Eimer', 'Tasche', 'Hut', 'Kerze', 'Trommel', 'Schere', 'Geige', 'Uhr', 'Kamera', 'Buch', 'Kette', 'Ring']","['matt', 'niedlich', 'zart', 'hässlich', 'glänzend', 'rustikal', 'biegsam', 'sportlich', 'robust', 'groß', 'nass', 'neu', 'blass', 'glatt', 'durchsichtig', 'lang', 'hohl', 'lustig', 'flach', 'elegant', 'klobig', 'kurz', 'kaputt', 'schmutzig', 'schlicht', 'hübsch', 'kalt', 'gut', 'gestreift', 'dick']",1,3.0409203998278826,None,,,,,,,,,,,,,,,,,,,,,,,,,,,,,,,,,,,,,,,,,,,,,,,,,,,,,,,,,,,,,,,,,3,2024-01-30_11h18.34.457,watkins1,2023.2.3,99.73361160809621,102,2024-01-30 11h18.40.997836 +0000,
,,,,,,,,,,,0,0,0,0,,,,,,,,,,,,,266.77669710014015,,,,,,,,,,266.7681215000339,267.2585613001138,,,[],[],,,,,,,,,,,nass,None,None,,,,,,,,,,Bürste,nass,"['Bürste', 'nass']",test_adj,3,,,,,,266.7680482000578,266.76809500018135,"['Bürste', 'Brille', 'Trommel', 'Schere', 'Uhr', 'Blume', 'Fahrrad', 'Würfel', 'Geige', 'Hut', 'Kerze', 'Rucksack', 'Kiste', 'Kamera', 'Ring', 'Telefon', 'Vase', 'Jacke', 'Hammer', 'Buch', 'Flasche', 'Löffel', 'Stift', 'Tasche', 'Eimer', 'Socke', 'Lampe', 'Schlüssel', 'Tasse', 'Kette']",267.25857200007886,267.26128090010025,None,267.26146510010585,267.2639266999904,None,267.26409100019373,267.26652369997464,None,267.2666809000075,0,273.2714414000511,273.2714550001547,273.27263170015067,,,,,,,,,,,,,,,,,,,,,,,,,,,,,,,,,,,,,,,,,,,,,,,,3,2024-01-30_11h18.34.457,watkins1,2023.2.3,99.73361160809621,102,2024-01-30 11h18.40.997836 +0000,
,,,,,,,,,,,1,0,1,0,,,,,,,,,,,,,273.28124220017344,,,,,,,,,,273.2729227000382,273.76330830017105,,,[],[],,,,,,,,,,,,None,None,,,,,,,,,,Brille,durchsichtig,"['Brille', 'durchsichtig']",restudy,3,,,,,,273.2728552001063,273.2728942001704,"['Bürste', 'Brille', 'Trommel', 'Schere', 'Uhr', 'Blume', 'Fahrrad', 'Würfel', 'Geige', 'Hut', 'Kerze', 'Rucksack', 'Kiste', 'Kamera', 'Ring', 'Telefon', 'Vase', 'Jacke', 'Hammer', 'Buch', 'Flasche', 'Löffel', 'Stift', 'Tasche', 'Eimer', 'Socke', 'Lampe', 'Schlüssel', 'Tasse', 'Kette']",273.76331910002045,273.76592220016755,None,273.7660447000526,279.772099400172,3,279.7724750000052,279.77531130006537,None,279.77542360010557,,279.77691570017487,279.7769270001445,279.77822119998746,3.7360384999774396,None,,,,,,,,,,,,,,,,,,,,,,,,,,,,,,,,,,,,,,,,,,,,,,3,2024-01-30_11h18.34.457,watkins1,2023.2.3,99.73361160809621,102,2024-01-30 11h18.40.997836 +0000,
,,,,,,,,,,,2,0,2,0,,,,,,,,,,,,,279.78146150009707,,,,,,,,,,279.77850560005754,280.2735630001407,,,[],[],,,,,,,,,,,kaputt,None,None,,,,,,,,,,Trommel,kaputt,"['Trommel', 'kaputt']",test_adj,3,,,,,,279.77843910013326,279.77847820008174,"['Bürste', 'Brille', 'Trommel', 'Schere', 'Uhr', 'Blume', 'Fahrrad', 'Würfel', 'Geige', 'Hut', 'Kerze', 'Rucksack', 'Kiste', 'Kamera', 'Ring', 'Telefon', 'Vase', 'Jacke', 'Hammer', 'Buch', 'Flasche', 'Löffel', 'Stift', 'Tasche', 'Eimer', 'Socke', 'Lampe', 'Schlüssel', 'Tasse', 'Kette']",280.27357370010577,280.27654800005257,None,280.2766724000685,280.27812030003406,None,280.2782294000499,280.27967070019804,None,280.27977899997495,0,286.2816918999888,286.2817061000969,286.283038900001,,,,,,,,,,,,,,,,,,,,,,,,,,,,,,,,,,,,,,,,,,,,,,,,3,2024-01-30_11h18.34.457,watkins1,2023.2.3,99.73361160809621,102,2024-01-30 11h18.40.997836 +0000,
,,,,,,,,,,,3,0,3,0,,,,,,,,,,,,,286.29151430004276,,,,,,,,,,286.28332950011827,286.77362920017913,,,[],[],,,,,,,,,,,,None,None,,,,,,,,,,Schere,schmutzig,"['Schere', 'schmutzig']",restudy,3,,,,,,286.2832604001742,286.28330030012876,"['Bürste', 'Brille', 'Trommel', 'Schere', 'Uhr', 'Blume', 'Fahrrad', 'Würfel', 'Geige', 'Hut', 'Kerze', 'Rucksack', 'Kiste', 'Kamera', 'Ring', 'Telefon', 'Vase', 'Jacke', 'Hammer', 'Buch', 'Flasche', 'Löffel', 'Stift', 'Tasche', 'Eimer', 'Socke', 'Lampe', 'Schlüssel', 'Tasse', 'Kette']",286.77364030014724,286.7763785000425,None,286.7765034001786,292.77945250016637,2,292.7797493999824,292.78253450011835,None,292.7826453000307,,292.7842590000946,292.78427060018294,292.78550930018537,3.310037000104785,None,,,,,,,,,,,,,,,,,,,,,,,,,,,,,,,,,,,,,,,,,,,,,,3,2024-01-30_11h18.34.457,watkins1,2023.2.3,99.73361160809621,102,2024-01-30 11h18.40.997836 +0000,
,,,,,,,,,,,4,0,4,0,,,,,,,,,,,,,292.7889292000327,,,,,,,,,,292.78579130000435,293.28088640002534,,,[],[],,,,,,,,,,,,None,None,,,,,,,,,,Uhr,hübsch,"['Uhr', 'hübsch']",restudy,3,,,,,,292.78572609997354,292.7857646001503,"['Bürste', 'Brille', 'Trommel', 'Schere', 'Uhr', 'Blume', 'Fahrrad', 'Würfel', 'Geige', 'Hut', 'Kerze', 'Rucksack', 'Kiste', 'Kamera', 'Ring', 'Telefon', 'Vase', 'Jacke', 'Hammer', 'Buch', 'Flasche', 'Löffel', 'Stift', 'Tasche', 'Eimer', 'Socke', 'Lampe', 'Schlüssel', 'Tasse', 'Kette']",293.28089700010605,293.28352700010873,None,293.28365040011704,299.2912384001538,1,299.2915393000003,299.29407110018656,None,299.2941860000137,,299.29532360006124,299.2953353000339,299.2965081001166,1.3714943998493254,None,,,,,,,,,,,,,,,,,,,,,,,,,,,,,,,,,,,,,,,,,,,,,,3,2024-01-30_11h18.34.457,watkins1,2023.2.3,99.73361160809621,102,2024-01-30 11h18.40.997836 +0000,
,,,,,,,,,,,5,0,5,0,,,,,,,,,,,,,299.3007213000674,,,,,,,,,,299.2967917001806,299.79301050002687,,,[],[],,,,,,,,,,,,None,None,,,,,,,,,,Blume,hohl,"['Blume', 'hohl']",restudy,3,,,,,,299.29672510013916,299.2967650000937,"['Bürste', 'Brille', 'Trommel', 'Schere', 'Uhr', 'Blume', 'Fahrrad', 'Würfel', 'Geige', 'Hut', 'Kerze', 'Rucksack', 'Kiste', 'Kamera', 'Ring', 'Telefon', 'Vase', 'Jacke', 'Hammer', 'Buch', 'Flasche', 'Löffel', 'Stift', 'Tasche', 'Eimer', 'Socke', 'Lampe', 'Schlüssel', 'Tasse', 'Kette']",299.79302250011824,299.7957619000226,None,299.795888800174,305.79772450006567,1,305.79803499998525,305.8005886001047,None,305.80069890012965,,305.8018749000039,305.8018865000922,305.8030521001201,1.2833356999326497,None,,,,,,,,,,,,,,,,,,,,,,,,,,,,,,,,,,,,,,,,,,,,,,3,2024-01-30_11h18.34.457,watkins1,2023.2.3,99.73361160809621,102,2024-01-30 11h18.40.997836 +0000,
,,,,,,,,,,,6,0,6,0,,,,,,,,,,,,,305.8072003000416,,,,,,,,,,305.8033334000502,306.2992432001047,,,[],[],,,,,,,,,,,rustikal,None,None,,,,,,,,,,Fahrrad,rustikal,"['Fahrrad', 'rustikal']",test_adj,3,,,,,,305.8032676000148,305.80330680008046,"['Bürste', 'Brille', 'Trommel', 'Schere', 'Uhr', 'Blume', 'Fahrrad', 'Würfel', 'Geige', 'Hut', 'Kerze', 'Rucksack', 'Kiste', 'Kamera', 'Ring', 'Telefon', 'Vase', 'Jacke', 'Hammer', 'Buch', 'Flasche', 'Löffel', 'Stift', 'Tasche', 'Eimer', 'Socke', 'Lampe', 'Schlüssel', 'Tasse', 'Kette']",306.2992543000728,306.3018511000555,None,306.30198090011254,306.3034527001437,None,306.3035618001595,306.30501080001704,None,306.3051202001516,0,312.30751940002665,312.3075327000115,312.30892059998587,,,,,,,,,,,,,,,,,,,,,,,,,,,,,,,,,,,,,,,,,,,,,,,,3,2024-01-30_11h18.34.457,watkins1,2023.2.3,99.73361160809621,102,2024-01-30 11h18.40.997836 +0000,
,,,,,,,,,,,7,0,7,0,,,,,,,,,,,,,312.317282800097,,,,,,,,,,312.3092030000407,312.799237200059,,,[],[],,,,,,,,,,,,None,None,,,,,,,,,,Würfel,glänzend,"['Würfel', 'glänzend']",restudy,3,,,,,,312.30913590011187,312.309174900176,"['Bürste', 'Brille', 'Trommel', 'Schere', 'Uhr', 'Blume', 'Fahrrad', 'Würfel', 'Geige', 'Hut', 'Kerze', 'Rucksack', 'Kiste', 'Kamera', 'Ring', 'Telefon', 'Vase', 'Jacke', 'Hammer', 'Buch', 'Flasche', 'Löffel', 'Stift', 'Tasche', 'Eimer', 'Socke', 'Lampe', 'Schlüssel', 'Tasse', 'Kette']",312.7992485000286,312.8020423001144,None,312.8021672000177,318.80912009999156,2,318.8094196000602,318.81215190002695,None,318.81226610019803,,318.81375420000404,318.8137658999767,318.81498470017686,1.493048199918121,None,,,,,,,,,,,,,,,,,,,,,,,,,,,,,,,,,,,,,,,,,,,,,,3,2024-01-30_11h18.34.457,watkins1,2023.2.3,99.73361160809621,102,2024-01-30 11h18.40.997836 +0000,
,,,,,,,,,,,8,0,8,0,,,,,,,,,,,,,318.81859370018356,,,,,,,,,,318.8152662999928,319.31057680002414,,,[],[],,,,,,,,,,,elegant,None,None,,,,,,,,,,Geige,schlicht,"['Geige', 'schlicht']",test_adj,3,,,,,,318.8152014000807,318.81523980014026,"['Bürste', 'Brille', 'Trommel', 'Schere', 'Uhr', 'Blume', 'Fahrrad', 'Würfel', 'Geige', 'Hut', 'Kerze', 'Rucksack', 'Kiste', 'Kamera', 'Ring', 'Telefon', 'Vase', 'Jacke', 'Hammer', 'Buch', 'Flasche', 'Löffel', 'Stift', 'Tasche', 'Eimer', 'Socke', 'Lampe', 'Schlüssel', 'Tasse', 'Kette']",319.31058809999377,319.31333590019494,None,319.3134600999765,319.3149051000364,None,319.3150156000629,319.3164345000405,None,319.3165434000548,0,325.3183534001,325.3183675999753,325.31978310015984,,,,,,,,,,,,,,,,,,,,,,,,,,,,,,,,,,,,,,,,,,,,,,,,3,2024-01-30_11h18.34.457,watkins1,2023.2.3,99.73361160809621,102,2024-01-30 11h18.40.997836 +0000,
,,,,,,,,,,,9,0,9,0,,,,,,,,,,,,,325.32819729996845,,,,,,,,,,325.32007330004126,325.8102390000131,,,[],[],,,,,,,,,,,,None,None,,,,,,,,,,Hut,klobig,"['Hut', 'klobig']",restudy,3,,,,,,325.3200044000987,325.3200440001674,"['Bürste', 'Brille', 'Trommel', 'Schere', 'Uhr', 'Blume', 'Fahrrad', 'Würfel', 'Geige', 'Hut', 'Kerze', 'Rucksack', 'Kiste', 'Kamera', 'Ring', 'Telefon', 'Vase', 'Jacke', 'Hammer', 'Buch', 'Flasche', 'Löffel', 'Stift', 'Tasche', 'Eimer', 'Socke', 'Lampe', 'Schlüssel', 'Tasse', 'Kette']",325.8102504000999,325.8128701001406,None,325.8129935001489,331.8222578000277,1,331.822558300104,331.8251210001763,None,331.82523440010846,,331.8265877000522,331.82659970014356,331.8277885999996,1.8983167000114918,None,,,,,,,,,,,,,,,,,,,,,,,,,,,,,,,,,,,,,,,,,,,,,,3,2024-01-30_11h18.34.457,watkins1,2023.2.3,99.73361160809621,102,2024-01-30 11h18.40.997836 +0000,
,,,,,,,,,,,10,0,10,0,,,,,,,,,,,,,331.83171520009637,,,,,,,,,,331.82807080005296,332.32370140007697,,,[],[],,,,,,,,,,,kurz,None,None,,,,,,,,,,Kerze,kurz,"['Kerze', 'kurz']",test_adj,3,,,,,,331.8280050000176,331.8280428000726,"['Bürste', 'Brille', 'Trommel', 'Schere', 'Uhr', 'Blume', 'Fahrrad', 'Würfel', 'Geige', 'Hut', 'Kerze', 'Rucksack', 'Kiste', 'Kamera', 'Ring', 'Telefon', 'Vase', 'Jacke', 'Hammer', 'Buch', 'Flasche', 'Löffel', 'Stift', 'Tasche', 'Eimer', 'Socke', 'Lampe', 'Schlüssel', 'Tasse', 'Kette']",332.323711700039,332.32636810000986,None,332.3264894001186,332.32791740004905,None,332.3280275000725,332.32947030011564,None,332.3295791000128,0,338.3317464001011,338.3317597999703,338.3329141000286,,,,,,,,,,,,,,,,,,,,,,,,,,,,,,,,,,,,,,,,,,,,,,,,3,2024-01-30_11h18.34.457,watkins1,2023.2.3,99.73361160809621,102,2024-01-30 11h18.40.997836 +0000,
,,,,,,,,,,,11,0,11,0,,,,,,,,,,,,,338.3415188000072,,,,,,,,,,338.33319620019756,338.8235117001459,,,[],[],,,,,,,,,,,,None,None,,,,,,,,,,Rucksack,neu,"['Rucksack', 'neu']",restudy,3,,,,,,338.33313000015914,338.3331679000985,"['Bürste', 'Brille', 'Trommel', 'Schere', 'Uhr', 'Blume', 'Fahrrad', 'Würfel', 'Geige', 'Hut', 'Kerze', 'Rucksack', 'Kiste', 'Kamera', 'Ring', 'Telefon', 'Vase', 'Jacke', 'Hammer', 'Buch', 'Flasche', 'Löffel', 'Stift', 'Tasche', 'Eimer', 'Socke', 'Lampe', 'Schlüssel', 'Tasse', 'Kette']",338.8235234001186,338.8261393001303,None,338.82626280002296,344.8360888999887,2,344.8363857001532,344.83902400010265,None,344.8391369001474,,344.8406935001258,344.8407050999813,344.841732500121,1.5649864000733942,None,,,,,,,,,,,,,,,,,,,,,,,,,,,,,,,,,,,,,,,,,,,,,,3,2024-01-30_11h18.34.457,watkins1,2023.2.3,99.73361160809621,102,2024-01-30 11h18.40.997836 +0000,
,,,,,,,,,,,12,0,12,0,,,,,,,,,,,,,344.8459471000824,,,,,,,,,,344.84201800008304,345.3398702000268,,,[],[],,,,,,,,,,,,None,None,,,,,,,,,,Kiste,niedlich,"['Kiste', 'niedlich']",test_adj,3,,,,,,344.8419491001405,344.8419882999733,"['Bürste', 'Brille', 'Trommel', 'Schere', 'Uhr', 'Blume', 'Fahrrad', 'Würfel', 'Geige', 'Hut', 'Kerze', 'Rucksack', 'Kiste', 'Kamera', 'Ring', 'Telefon', 'Vase', 'Jacke', 'Hammer', 'Buch', 'Flasche', 'Löffel', 'Stift', 'Tasche', 'Eimer', 'Socke', 'Lampe', 'Schlüssel', 'Tasse', 'Kette']",345.339881000109,345.34244540007785,None,345.34257040009834,345.3440078999847,None,345.3441165999975,345.34555170009844,None,345.3456596999895,0,351.347478199983,351.3474918999709,351.3488653001841,,,,,,,,,,,,,,,,,,,,,,,,,,,,,,,,,,,,,,,,,,,,,,,,3,2024-01-30_11h18.34.457,watkins1,2023.2.3,99.73361160809621,102,2024-01-30 11h18.40.997836 +0000,
,,,,,,,,,,,13,0,13,0,,,,,,,,,,,,,351.3572825000156,,,,,,,,,,351.34915680019185,351.83935750019737,,,[],[],,,,,,,,,,,kalt,None,None,,,,,,,,,,Kamera,kalt,"['Kamera', 'kalt']",test_adj,3,,,,,,351.34908920014277,351.349127399968,"['Bürste', 'Brille', 'Trommel', 'Schere', 'Uhr', 'Blume', 'Fahrrad', 'Würfel', 'Geige', 'Hut', 'Kerze', 'Rucksack', 'Kiste', 'Kamera', 'Ring', 'Telefon', 'Vase', 'Jacke', 'Hammer', 'Buch', 'Flasche', 'Löffel', 'Stift', 'Tasche', 'Eimer', 'Socke', 'Lampe', 'Schlüssel', 'Tasse', 'Kette']",351.83936860016547,351.84214389999397,None,351.8422693000175,351.8448571001645,None,351.84496750007384,351.84757640003227,None,351.84768540016375,0,357.8516696000006,357.85168380010873,357.8528841000516,,,,,,,,,,,,,,,,,,,,,,,,,,,,,,,,,,,,,,,,,,,,,,,,3,2024-01-30_11h18.34.457,watkins1,2023.2.3,99.73361160809621,102,2024-01-30 11h18.40.997836 +0000,
,,,,,,,,,,,14,0,14,0,,,,,,,,,,,,,357.86148270010017,,,,,,,,,,357.8531738000456,358.34357240004465,,,[],[],,,,,,,,,,,dick,None,None,,,,,,,,,,Ring,dick,"['Ring', 'dick']",test_adj,3,,,,,,357.85310550010763,357.85314480005763,"['Bürste', 'Brille', 'Trommel', 'Schere', 'Uhr', 'Blume', 'Fahrrad', 'Würfel', 'Geige', 'Hut', 'Kerze', 'Rucksack', 'Kiste', 'Kamera', 'Ring', 'Telefon', 'Vase', 'Jacke', 'Hammer', 'Buch', 'Flasche', 'Löffel', 'Stift', 'Tasche', 'Eimer', 'Socke', 'Lampe', 'Schlüssel', 'Tasse', 'Kette']",358.3435829000082,358.3460437001195,None,358.34617080003954,358.3484706999734,None,358.34858160000294,358.3508764000144,None,358.35098670003936,0,364.3547744001262,364.35478790011257,364.3559599001892,,,,,,,,,,,,,,,,,,,,,,,,,,,,,,,,,,,,,,,,,,,,,,,,3,2024-01-30_11h18.34.457,watkins1,2023.2.3,99.73361160809621,102,2024-01-30 11h18.40.997836 +0000,
,,,,,,,,,,,15,0,15,0,,,,,,,,,,,,,364.36458769999444,,,,,,,,,,364.3562502001878,364.8466354000848,,,[],[],,,,,,,,,,,glatt,None,None,,,,,,,,,,Telefon,glatt,"['Telefon', 'glatt']",test_adj,3,,,,,,364.3561810001265,364.356220100075,"['Bürste', 'Brille', 'Trommel', 'Schere', 'Uhr', 'Blume', 'Fahrrad', 'Würfel', 'Geige', 'Hut', 'Kerze', 'Rucksack', 'Kiste', 'Kamera', 'Ring', 'Telefon', 'Vase', 'Jacke', 'Hammer', 'Buch', 'Flasche', 'Löffel', 'Stift', 'Tasche', 'Eimer', 'Socke', 'Lampe', 'Schlüssel', 'Tasse', 'Kette']",364.8466460001655,364.849259900162,None,364.8493848000653,364.851817100076,None,364.85192640009336,364.8543467000127,None,364.8544548000209,0,370.8586723001208,370.85868669999763,370.8600126001984,,,,,,,,,,,,,,,,,,,,,,,,,,,,,,,,,,,,,,,,,,,,,,,,3,2024-01-30_11h18.34.457,watkins1,2023.2.3,99.73361160809621,102,2024-01-30 11h18.40.997836 +0000,
,,,,,,,,,,,16,0,16,0,,,,,,,,,,,,,370.86851670010947,,,,,,,,,,370.8603050999809,371.3505506000947,,,[],[],,,,,,,,,,,,None,None,,,,,,,,,,Vase,robust,"['Vase', 'robust']",restudy,3,,,,,,370.86023490014486,370.86027629999444,"['Bürste', 'Brille', 'Trommel', 'Schere', 'Uhr', 'Blume', 'Fahrrad', 'Würfel', 'Geige', 'Hut', 'Kerze', 'Rucksack', 'Kiste', 'Kamera', 'Ring', 'Telefon', 'Vase', 'Jacke', 'Hammer', 'Buch', 'Flasche', 'Löffel', 'Stift', 'Tasche', 'Eimer', 'Socke', 'Lampe', 'Schlüssel', 'Tasse', 'Kette']",371.3505613000598,371.35314400005154,None,371.35326930019073,377.35711880004965,1,377.35741840000264,377.3600019000005,None,377.36011830018833,,377.3618591001723,377.361871200148,377.36304900003597,1.669395999982953,None,,,,,,,,,,,,,,,,,,,,,,,,,,,,,,,,,,,,,,,,,,,,,,3,2024-01-30_11h18.34.457,watkins1,2023.2.3,99.73361160809621,102,2024-01-30 11h18.40.997836 +0000,
,,,,,,,,,,,17,0,17,0,,,,,,,,,,,,,377.36660480010323,,,,,,,,,,377.36333680013195,377.8586715001147,,,[],[],,,,,,,,,,,,None,None,,,,,,,,,,Jacke,groß,"['Jacke', 'groß']",restudy,3,,,,,,377.3632676000707,377.36330680013634,"['Bürste', 'Brille', 'Trommel', 'Schere', 'Uhr', 'Blume', 'Fahrrad', 'Würfel', 'Geige', 'Hut', 'Kerze', 'Rucksack', 'Kiste', 'Kamera', 'Ring', 'Telefon', 'Vase', 'Jacke', 'Hammer', 'Buch', 'Flasche', 'Löffel', 'Stift', 'Tasche', 'Eimer', 'Socke', 'Lampe', 'Schlüssel', 'Tasse', 'Kette']",377.8586824000813,377.8614195000846,None,377.86154670012183,383.8659808000084,2,383.86628630012274,383.8689228000585,None,383.8690367001109,,383.87018810003065,383.870199700119,383.871231400175,1.9936353999655694,None,,,,,,,,,,,,,,,,,,,,,,,,,,,,,,,,,,,,,,,,,,,,,,3,2024-01-30_11h18.34.457,watkins1,2023.2.3,99.73361160809621,102,2024-01-30 11h18.40.997836 +0000,
,,,,,,,,,,,18,0,18,0,,,,,,,,,,,,,383.8754132001195,,,,,,,,,,383.8715095000807,384.36735680000857,,,[],[],,,,,,,,,,,,None,None,,,,,,,,,,Hammer,hässlich,"['Hammer', 'hässlich']",restudy,3,,,,,,383.8714443000499,383.8714825999923,"['Bürste', 'Brille', 'Trommel', 'Schere', 'Uhr', 'Blume', 'Fahrrad', 'Würfel', 'Geige', 'Hut', 'Kerze', 'Rucksack', 'Kiste', 'Kamera', 'Ring', 'Telefon', 'Vase', 'Jacke', 'Hammer', 'Buch', 'Flasche', 'Löffel', 'Stift', 'Tasche', 'Eimer', 'Socke', 'Lampe', 'Schlüssel', 'Tasse', 'Kette']",384.36736700008623,384.3699120001402,None,384.3700351000298,390.37131820013747,2,390.37162220012397,390.37447520019487,None,390.3745899000205,,390.37579800002277,390.3758096001111,390.377159900032,1.9736100998707116,None,,,,,,,,,,,,,,,,,,,,,,,,,,,,,,,,,,,,,,,,,,,,,,3,2024-01-30_11h18.34.457,watkins1,2023.2.3,99.73361160809621,102,2024-01-30 11h18.40.997836 +0000,
,,,,,,,,,,,19,0,19,0,,,,,,,,,,,,,390.3807165999897,,,,,,,,,,390.37744559999555,390.873079800047,,,[],[],,,,,,,,,,,gut,None,None,,,,,,,,,,Buch,gut,"['Buch', 'gut']",test_adj,3,,,,,,390.3773790001869,390.37741820001975,"['Bürste', 'Brille', 'Trommel', 'Schere', 'Uhr', 'Blume', 'Fahrrad', 'Würfel', 'Geige', 'Hut', 'Kerze', 'Rucksack', 'Kiste', 'Kamera', 'Ring', 'Telefon', 'Vase', 'Jacke', 'Hammer', 'Buch', 'Flasche', 'Löffel', 'Stift', 'Tasche', 'Eimer', 'Socke', 'Lampe', 'Schlüssel', 'Tasse', 'Kette']",390.87309180013835,390.87572360015474,None,390.8758489000611,390.8771627000533,None,390.8772735001985,390.87858430016786,None,390.87869140016846,0,396.88004479999654,396.88005880010314,396.8812229000032,,,,,,,,,,,,,,,,,,,,,,,,,,,,,,,,,,,,,,,,,,,,,,,,3,2024-01-30_11h18.34.457,watkins1,2023.2.3,99.73361160809621,102,2024-01-30 11h18.40.997836 +0000,
,,,,,,,,,,,20,0,20,0,,,,,,,,,,,,,396.8898603999987,,,,,,,,,,396.88151330011897,397.3718681000173,,,[],[],,,,,,,,,,,matt,None,None,,,,,,,,,,Flasche,blass,"['Flasche', 'blass']",test_adj,3,,,,,,396.88144460017793,396.88148360000923,"['Bürste', 'Brille', 'Trommel', 'Schere', 'Uhr', 'Blume', 'Fahrrad', 'Würfel', 'Geige', 'Hut', 'Kerze', 'Rucksack', 'Kiste', 'Kamera', 'Ring', 'Telefon', 'Vase', 'Jacke', 'Hammer', 'Buch', 'Flasche', 'Löffel', 'Stift', 'Tasche', 'Eimer', 'Socke', 'Lampe', 'Schlüssel', 'Tasse', 'Kette']",397.371878700098,397.3745512000751,None,397.3746746999677,397.37713180016726,None,397.37724870000966,397.3796688001603,None,397.3797790000681,0,403.38537820009515,403.38539270008914,403.38666900014505,,,,,,,,,,,,,,,,,,,,,,,,,,,,,,,,,,,,,,,,,,,,,,,,3,2024-01-30_11h18.34.457,watkins1,2023.2.3,99.73361160809621,102,2024-01-30 11h18.40.997836 +0000,
,,,,,,,,,,,21,0,21,0,,,,,,,,,,,,,403.39518260001205,,,,,,,,,,403.38695920002647,403.8772601999808,,,[],[],,,,,,,,,,,,None,None,,,,,,,,,,Löffel,lustig,"['Löffel', 'lustig']",restudy,3,,,,,,403.38689020019956,403.3869291001465,"['Bürste', 'Brille', 'Trommel', 'Schere', 'Uhr', 'Blume', 'Fahrrad', 'Würfel', 'Geige', 'Hut', 'Kerze', 'Rucksack', 'Kiste', 'Kamera', 'Ring', 'Telefon', 'Vase', 'Jacke', 'Hammer', 'Buch', 'Flasche', 'Löffel', 'Stift', 'Tasche', 'Eimer', 'Socke', 'Lampe', 'Schlüssel', 'Tasse', 'Kette']",403.8772711001802,403.8801275000442,None,403.8802591999993,409.8847362000961,1,409.8850363001693,409.8878097999841,None,409.8879226001445,,409.88941020006314,409.889422000153,409.8905877000652,2.462873299838975,None,,,,,,,,,,,,,,,,,,,,,,,,,,,,,,,,,,,,,,,,,,,,,,3,2024-01-30_11h18.34.457,watkins1,2023.2.3,99.73361160809621,102,2024-01-30 11h18.40.997836 +0000,
,,,,,,,,,,,22,0,22,0,,,,,,,,,,,,,409.89413839997724,,,,,,,,,,409.8908669000957,410.38616910018027,,,[],[],,,,,,,,,,,lang,None,None,,,,,,,,,,Stift,lang,"['Stift', 'lang']",test_adj,3,,,,,,409.89080220018514,409.8908402000088,"['Bürste', 'Brille', 'Trommel', 'Schere', 'Uhr', 'Blume', 'Fahrrad', 'Würfel', 'Geige', 'Hut', 'Kerze', 'Rucksack', 'Kiste', 'Kamera', 'Ring', 'Telefon', 'Vase', 'Jacke', 'Hammer', 'Buch', 'Flasche', 'Löffel', 'Stift', 'Tasche', 'Eimer', 'Socke', 'Lampe', 'Schlüssel', 'Tasse', 'Kette']",410.3861795000266,410.38889150018804,None,410.3890162000898,410.39043910009786,None,410.3905505000148,410.39198140008375,None,410.39208919997327,0,416.3942319001071,416.394245200092,416.3954778001644,,,,,,,,,,,,,,,,,,,,,,,,,,,,,,,,,,,,,,,,,,,,,,,,3,2024-01-30_11h18.34.457,watkins1,2023.2.3,99.73361160809621,102,2024-01-30 11h18.40.997836 +0000,
,,,,,,,,,,,23,0,23,0,,,,,,,,,,,,,416.40400960016996,,,,,,,,,,416.3957623001188,416.8861558001954,,,[],[],,,,,,,,,,,neu,None,None,,,,,,,,,,Tasche,elegant,"['Tasche', 'elegant']",test_adj,3,,,,,,416.3956969000865,416.3957346000243,"['Bürste', 'Brille', 'Trommel', 'Schere', 'Uhr', 'Blume', 'Fahrrad', 'Würfel', 'Geige', 'Hut', 'Kerze', 'Rucksack', 'Kiste', 'Kamera', 'Ring', 'Telefon', 'Vase', 'Jacke', 'Hammer', 'Buch', 'Flasche', 'Löffel', 'Stift', 'Tasche', 'Eimer', 'Socke', 'Lampe', 'Schlüssel', 'Tasse', 'Kette']",416.88616680004634,416.8887506001629,None,416.888876600191,416.89129210007377,None,416.8914020000957,416.8938276001718,None,416.89393610018305,0,422.8981398001779,422.8981535001658,422.89958590012975,,,,,,,,,,,,,,,,,,,,,,,,,,,,,,,,,,,,,,,,,,,,,,,,3,2024-01-30_11h18.34.457,watkins1,2023.2.3,99.73361160809621,102,2024-01-30 11h18.40.997836 +0000,
,,,,,,,,,,,24,0,24,0,,,,,,,,,,,,,422.907935900148,,,,,,,,,,422.89987360010855,423.38985990011133,,,[],[],,,,,,,,,,,,None,None,,,,,,,,,,Eimer,flach,"['Eimer', 'flach']",restudy,3,,,,,,422.899806200061,422.89984510000795,"['Bürste', 'Brille', 'Trommel', 'Schere', 'Uhr', 'Blume', 'Fahrrad', 'Würfel', 'Geige', 'Hut', 'Kerze', 'Rucksack', 'Kiste', 'Kamera', 'Ring', 'Telefon', 'Vase', 'Jacke', 'Hammer', 'Buch', 'Flasche', 'Löffel', 'Stift', 'Tasche', 'Eimer', 'Socke', 'Lampe', 'Schlüssel', 'Tasse', 'Kette']",423.3898711001966,423.39257910009474,None,423.3927039001137,429.39411670016125,1,429.39440720016137,429.39712530002,None,429.3972347001545,,429.3986670000013,429.3986780999694,429.3998044000473,2.246472400147468,None,,,,,,,,,,,,,,,,,,,,,,,,,,,,,,,,,,,,,,,,,,,,,,3,2024-01-30_11h18.34.457,watkins1,2023.2.3,99.73361160809621,102,2024-01-30 11h18.40.997836 +0000,
,,,,,,,,,,,25,0,25,0,,,,,,,,,,,,,429.4034772000741,,,,,,,,,,429.40009270003065,429.8955034001265,,,[],[],,,,,,,,,,,,None,None,,,,,,,,,,Socke,sportlich,"['Socke', 'sportlich']",restudy,3,,,,,,429.40002930001356,429.40006630006246,"['Bürste', 'Brille', 'Trommel', 'Schere', 'Uhr', 'Blume', 'Fahrrad', 'Würfel', 'Geige', 'Hut', 'Kerze', 'Rucksack', 'Kiste', 'Kamera', 'Ring', 'Telefon', 'Vase', 'Jacke', 'Hammer', 'Buch', 'Flasche', 'Löffel', 'Stift', 'Tasche', 'Eimer', 'Socke', 'Lampe', 'Schlüssel', 'Tasse', 'Kette']",429.89551430009305,429.89823940000497,None,429.89836440002546,435.90551530011,2,435.9058131000493,435.9086409001611,None,435.9087522001937,,435.9099087000359,435.90992040000856,435.9111669000704,1.716465599834919,None,,,,,,,,,,,,,,,,,,,,,,,,,,,,,,,,,,,,,,,,,,,,,,3,2024-01-30_11h18.34.457,watkins1,2023.2.3,99.73361160809621,102,2024-01-30 11h18.40.997836 +0000,
,,,,,,,,,,,26,0,26,0,,,,,,,,,,,,,435.91498120012693,,,,,,,,,,435.91145010013133,436.4068722000811,,,[],[],,,,,,,,,,,,None,None,,,,,,,,,,Lampe,zart,"['Lampe', 'zart']",restudy,3,,,,,,435.9113827000838,435.91142130014487,"['Bürste', 'Brille', 'Trommel', 'Schere', 'Uhr', 'Blume', 'Fahrrad', 'Würfel', 'Geige', 'Hut', 'Kerze', 'Rucksack', 'Kiste', 'Kamera', 'Ring', 'Telefon', 'Vase', 'Jacke', 'Hammer', 'Buch', 'Flasche', 'Löffel', 'Stift', 'Tasche', 'Eimer', 'Socke', 'Lampe', 'Schlüssel', 'Tasse', 'Kette']",436.40688330004923,436.40962840011343,None,436.40975230000913,442.41306730010547,1,442.41336080012843,442.41593710007146,None,442.4160511000082,,442.41719250008464,442.41720380005427,442.4182303000707,1.301627199864015,None,,,,,,,,,,,,,,,,,,,,,,,,,,,,,,,,,,,,,,,,,,,,,,3,2024-01-30_11h18.34.457,watkins1,2023.2.3,99.73361160809621,102,2024-01-30 11h18.40.997836 +0000,
,,,,,,,,,,,27,0,27,0,,,,,,,,,,,,,442.4225800000131,,,,,,,,,,442.4185067000799,442.9146498001646,,,[],[],,,,,,,,,,,,None,None,,,,,,,,,,Schlüssel,matt,"['Schlüssel', 'matt']",restudy,3,,,,,,442.4184427000582,442.4184801001102,"['Bürste', 'Brille', 'Trommel', 'Schere', 'Uhr', 'Blume', 'Fahrrad', 'Würfel', 'Geige', 'Hut', 'Kerze', 'Rucksack', 'Kiste', 'Kamera', 'Ring', 'Telefon', 'Vase', 'Jacke', 'Hammer', 'Buch', 'Flasche', 'Löffel', 'Stift', 'Tasche', 'Eimer', 'Socke', 'Lampe', 'Schlüssel', 'Tasse', 'Kette']",442.91466090013273,442.91732310014777,None,442.9174485001713,448.92564220004715,1,448.9259379999712,448.9285571000073,None,448.9286686000414,,448.9300404000096,448.93005200009793,448.9312071001623,2.241753399837762,None,,,,,,,,,,,,,,,,,,,,,,,,,,,,,,,,,,,,,,,,,,,,,,3,2024-01-30_11h18.34.457,watkins1,2023.2.3,99.73361160809621,102,2024-01-30 11h18.40.997836 +0000,
,,,,,,,,,,,28,0,28,0,,,,,,,,,,,,,448.93498460017145,,,,,,,,,,448.9314965000376,449.4269654999953,,,[],[],,,,,,,,,,,,None,None,,,,,,,,,,Tasse,biegsam,"['Tasse', 'biegsam']",test_adj,3,,,,,,448.9314311000053,448.9314691000618,"['Bürste', 'Brille', 'Trommel', 'Schere', 'Uhr', 'Blume', 'Fahrrad', 'Würfel', 'Geige', 'Hut', 'Kerze', 'Rucksack', 'Kiste', 'Kamera', 'Ring', 'Telefon', 'Vase', 'Jacke', 'Hammer', 'Buch', 'Flasche', 'Löffel', 'Stift', 'Tasche', 'Eimer', 'Socke', 'Lampe', 'Schlüssel', 'Tasse', 'Kette']",449.42697680019774,449.4295501001179,None,449.4296736000106,449.4311089999974,None,449.4312189000193,449.432646300178,None,449.43275490007363,0,455.43452370003797,455.4345369001385,455.4358560000546,,,,,,,,,,,,,,,,,,,,,,,,,,,,,,,,,,,,,,,,,,,,,,,,3,2024-01-30_11h18.34.457,watkins1,2023.2.3,99.73361160809621,102,2024-01-30 11h18.40.997836 +0000,
,,,,,,,,,,,29,0,29,0,,,,,,,,,,,,,455.4443108001724,,,,,,,,,,455.43613709998317,455.92632289999165,,,[],[],,,,,,,,,,,gestreift,None,None,,,,,,,,,,Kette,gestreift,"['Kette', 'gestreift']",test_adj,3,,,,,,455.4360717001837,455.4361084999982,"['Bürste', 'Brille', 'Trommel', 'Schere', 'Uhr', 'Blume', 'Fahrrad', 'Würfel', 'Geige', 'Hut', 'Kerze', 'Rucksack', 'Kiste', 'Kamera', 'Ring', 'Telefon', 'Vase', 'Jacke', 'Hammer', 'Buch', 'Flasche', 'Löffel', 'Stift', 'Tasche', 'Eimer', 'Socke', 'Lampe', 'Schlüssel', 'Tasse', 'Kette']",455.9263340001926,455.92905200016685,None,455.92917750007473,455.93170960014686,None,455.93181990017183,455.93448190018535,None,455.9346000000369,0,461.9387016000692,461.9387155000586,461.9401128999889,,,,,,,,,,,,,,,,,,,,,,,,,,,,,,,,,,,,,,,,,,,,,,,,3,2024-01-30_11h18.34.457,watkins1,2023.2.3,99.73361160809621,102,2024-01-30 11h18.40.997836 +0000,
,,,,,,,,,,,,,,,,,,,,,,,,,,,,,,,,,,,,,,,,,,,,,,,,,,,,,,,,,,,,,,,,,,,,,3,,,,,,,,,,,,,,,,,,,,,,,,,,,,,,,,,,,,,,,,,,,,,,,,,,,,,,,,,,,,,,,,,,,,,,3,2024-01-30_11h18.34.457,watkins1,2023.2.3,99.73361160809621,102,2024-01-30 11h18.40.997836 +0000,
(7 x 6) + 9 = 48 ,Incorrect,button_incorrect,,,,,,,,,,,,,0,0,0,9,,,,,,,,,482.9771511000581,,,,,,,,481.9340580001008,482.9376809000969,,,,,['button_incorrect'],[8.458205099916086],,,,,,,,,,,,,,,,,,,,,,,,,,distractorTask,3,,,,,,,,,,,,,,,,,,,,,,,,,482.9655146000441,482.9771511000581,491.4291069000028,[-0.33240740740740743],[-0.4009259259259259],[1],[0],[0],[8.458205099916086],['button_incorrect'],491.4297925999854,492.4325433000922,,,,,,,,,,,,,,,,,,,,,,,,,,,,,,,,,,3,2024-01-30_11h18.34.457,watkins1,2023.2.3,99.73361160809621,102,2024-01-30 11h18.40.997836 +0000,
(6 x 3) + 10 = 27 ,Incorrect,button_incorrect,,,,,,,,,,,,,0,1,1,8,,,,,,,,,492.4426285000518,,,,,,,,,,,,,,['button_incorrect'],[2.808618300128728],,,,,,,,,,,,,,,,,,,,,,,,,,distractorTask,3,,,,,,,,,,,,,,,,,,,,,,,,,492.43273700005375,492.4426285000518,495.2443345000502,[-0.32407407407407407],[-0.3768518518518518],[1],[0],[0],[2.808618300128728],['button_incorrect'],495.2447177001741,496.2480723001063,,,,,,,,,,,,,,,,,,,,,,,,,,,,,,,,,,3,2024-01-30_11h18.34.457,watkins1,2023.2.3,99.73361160809621,102,2024-01-30 11h18.40.997836 +0000,
(54 : 6) - 10 = 0 ,Incorrect,button_incorrect,,,,,,,,,,,,,0,2,2,5,,,,,,,,,496.25805660011247,,,,,,,,,,,,,,['button_incorrect'],[3.451494000153616],,,,,,,,,,,,,,,,,,,,,,,,,,distractorTask,3,,,,,,,,,,,,,,,,,,,,,,,,,496.24826800008304,496.25805660011247,499.7025607000105,[-0.3972222222222222],[-0.387037037037037],[1],[0],[0],[3.451494000153616],['button_incorrect'],499.70294490014203,500.705964300083,,,,,,,,,,,,,,,,,,,,,,,,,,,,,,,,,,3,2024-01-30_11h18.34.457,watkins1,2023.2.3,99.73361160809621,102,2024-01-30 11h18.40.997836 +0000,
(80 : 10) + 9 = 17 ,Correct,button_correct,,,,,,,,,,,,,0,3,3,3,,,,,,,,,500.7159462000709,,,,,,,,,,,,,,['button_correct'],[3.181465799920261],,,,,,,,,,,,,,,,,,,,,,,,,,distractorTask,3,,,,,,,,,,,,,,,,,,,,,,,,,500.7061632000841,500.7159462000709,503.889645999996,[0.4046296296296296],[-0.3768518518518518],[1],[0],[0],[3.181465799920261],['button_correct'],503.890035700053,504.8932304000482,,,,,,,,,,,,,,,,,,,,,,,,,,,,,,,,,,3,2024-01-30_11h18.34.457,watkins1,2023.2.3,99.73361160809621,102,2024-01-30 11h18.40.997836 +0000,
(2 x 5) + 3 = 13 ,Correct,button_correct,,,,,,,,,,,,,0,4,4,2,,,,,,,,,504.90321430005133,,,,,,,,,,,,,,['button_correct'],[1.57495929999277],,,,,,,,,,,,,,,,,,,,,,,,,,distractorTask,3,,,,,,,,,,,,,,,,,,,,,,,,,504.89342360012233,504.90321430005133,506.470093900105,[0.33240740740740743],[-0.38796296296296295],[1],[0],[0],[1.57495929999277],['button_correct'],506.47047220007516,507.47365200007334,,,,,,,,,,,,,,,,,,,,,,,,,,,,,,,,,,3,2024-01-30_11h18.34.457,watkins1,2023.2.3,99.73361160809621,102,2024-01-30 11h18.40.997836 +0000,
(9 x 5) - 9 = 36 ,Correct,button_correct,,,,,,,,,,,,,0,5,5,4,,,,,,,,,507.4836012001615,,,,,,,,,,,,,,['button_incorrect'],[2.6894679001998156],,,,,,,,,,,,,,,,,,,,,,,,,,distractorTask,3,,,,,,,,,,,,,,,,,,,,,,,,,507.47384210000746,507.4836012001615,510.16502900002524,[-0.37962962962962965],[-0.37962962962962965],[1],[0],[0],[2.6894679001998156],['button_incorrect'],510.16541959997267,511.16852960013784,,,,,,,,,,,,,,,,,,,,,,,,,,,,,,,,,,3,2024-01-30_11h18.34.457,watkins1,2023.2.3,99.73361160809621,102,2024-01-30 11h18.40.997836 +0000,
(25 : 5) + 5 = 9 ,Incorrect,button_incorrect,,,,,,,,,,,,,0,6,6,6,,,,,,,,,511.17854250012897,,,,,,,,,,,,,,['button_incorrect'],[2.6693837998900563],,,,,,,,,,,,,,,,,,,,,,,,,,distractorTask,3,,,,,,,,,,,,,,,,,,,,,,,,,511.1687235001009,511.17854250012897,513.8399073001929,[-0.29907407407407405],[-0.3787037037037037],[1],[0],[0],[2.6693837998900563],['button_incorrect'],513.8402905000839,514.8434820000548,,,,,,,,,,,,,,,,,,,,,,,,,,,,,,,,,,3,2024-01-30_11h18.34.457,watkins1,2023.2.3,99.73361160809621,102,2024-01-30 11h18.40.997836 +0000,
(28 : 7) - 3 = 1 ,Correct,button_correct,,,,,,,,,,,,,0,7,7,0,,,,,,,,,514.8534262999892,,,,,,,,,,,,,,['button_correct'],[2.0369735998101532],,,,,,,,,,,,,,,,,,,,,,,,,,distractorTask,3,,,,,,,,,,,,,,,,,,,,,,,,,514.8436761000194,514.8534262999892,516.8823895000387,[0.3037037037037037],[-0.3925925925925926],[1],[0],[0],[2.0369735998101532],['button_correct'],516.8827761001885,517.8859463999979,,,,,,,,,,,,,,,,,,,,,,,,,,,,,,,,,,3,2024-01-30_11h18.34.457,watkins1,2023.2.3,99.73361160809621,102,2024-01-30 11h18.40.997836 +0000,
(40 : 5) + 8 = 15 ,Incorrect,button_incorrect,,,,,,,,,,,,,0,8,8,7,,,,,,,,,517.8959343000315,,,,,,,,,,,,,,['button_incorrect'],[3.2916091000661254],,,,,,,,,,,,,,,,,,,,,,,,,,distractorTask,3,,,,,,,,,,,,,,,,,,,,,,,,,517.8861390000675,517.8959343000315,521.17950009997,[-0.2972222222222222],[-0.3888888888888889],[1],[0],[0],[3.2916091000661254],['button_incorrect'],521.1798813000787,522.1832457999699,,,,,,,,,,,,,,,,,,,,,,,,,,,,,,,,,,3,2024-01-30_11h18.34.457,watkins1,2023.2.3,99.73361160809621,102,2024-01-30 11h18.40.997836 +0000,
(4 : 2) + 4 = 6 ,Correct,button_correct,,,,,,,,,,,,,0,9,9,1,,,,,,,,,522.1932253001723,,,,,,,,,,,,,,['button_correct'],[2.2285094000399113],,,,,,,,,,,,,,,,,,,,,,,,,,distractorTask,3,,,,,,,,,,,,,,,,,,,,,,,,,522.1834370000288,522.1932253001723,524.4136395000387,[0.38333333333333336],[-0.38333333333333336],[1],[0],[0],[2.2285094000399113],['button_correct'],524.4140323000029,525.4171464999672,,,,,,,,,,,,,,,,,,,,,,,,,,,,,,,,,,3,2024-01-30_11h18.34.457,watkins1,2023.2.3,99.73361160809621,102,2024-01-30 11h18.40.997836 +0000,
,,,,,,,,,,,,,,,,,,,,,,,,,,,,,,,,,,,,,,,,,,,,,,,,,,,,,,,,,,,,,,,,,,,,,3,,,,,,,,,,,,,,,,,,,,,,,,,,,,,,,,,,,,,,,,,,,,,,,,,,,,,,,,,,,,,,,,,,,,,,3,2024-01-30_11h18.34.457,watkins1,2023.2.3,99.73361160809621,102,2024-01-30 11h18.40.997836 +0000,
,,,,,,,,,,,,,,,,,,,0,0,0,0,,,,,534.7839456000365,,,,,,,,,,,,,,Kette,7.539835999952629,,,,,,,,,,,,5.341217099921778,None,,,,,,,,,,,,,freeRecallSub,3,,,,,,,,,,,,,,,,,,,,,,,,,,,,,,,,,,,,,534.7753956001252,534.7839456000365,534.7839456000365,542.3250244001392,return,7.539835999952629,None,Kette,[],[],[],[],[],[],[],,,,,,,,,,,,,,,,,,,3,2024-01-30_11h18.34.457,watkins1,2023.2.3,99.73361160809621,102,2024-01-30 11h18.40.997836 +0000,
,,,,,,,,,,,,,,,,,,,1,0,1,0,,,,,542.3369593999814,,,,,,,,,,,,,,Buch,4.234889700077474,,,,,,,,,,,,2.0400126001331955,None,,,,,,,,,,,,,freeRecallSub,3,,,,,,,,,,,,,,,,,,,,,,,,,,,,,,,,,,,,,542.3267753000837,542.3369593999814,542.3369593999814,546.5757274001371,return,4.234889700077474,None,Buch,[],[],[],[],[],[],[],,,,,,,,,,,,,,,,,,,3,2024-01-30_11h18.34.457,watkins1,2023.2.3,99.73361160809621,102,2024-01-30 11h18.40.997836 +0000,
,,,,,,,,,,,,,,,,,,,2,0,2,0,,,,,546.5866006000433,,,,,,,,,,,,,,Hammer,2.641212600050494,,,,,,,,,,,,0.44196509988978505,None,,,,,,,,,,,,,freeRecallSub,3,,,,,,,,,,,,,,,,,,,,,,,,,,,,,,,,,,,,,546.5769955001306,546.5866006000433,546.5866006000433,549.2282501000445,return,2.641212600050494,None,Hammer,[],[],[],[],[],[],[],,,,,,,,,,,,,,,,,,,3,2024-01-30_11h18.34.457,watkins1,2023.2.3,99.73361160809621,102,2024-01-30 11h18.40.997836 +0000,
,,,,,,,,,,,,,,,,,,,3,0,3,0,,,,,549.2391105000861,,,,,,,,,,,,,,Flasche,2.628624399891123,,,,,,,,,,,,0.44207059987820685,None,,,,,,,,,,,,,freeRecallSub,3,,,,,,,,,,,,,,,,,,,,,,,,,,,,,,,,,,,,,549.2295107999817,549.2391105000861,549.2391105000861,551.8706228001975,return,2.628624399891123,None,Flasche,[],[],[],[],[],[],[],,,,,,,,,,,,,,,,,,,3,2024-01-30_11h18.34.457,watkins1,2023.2.3,99.73361160809621,102,2024-01-30 11h18.40.997836 +0000,
,,,,,,,,,,,,,,,,,,,4,0,4,0,,,,,551.8815443001222,,,,,,,,,,,,,,Tasche,1.794190099928528,,,,,,,,,,,,0.3018434999976307,None,,,,,,,,,,,,,freeRecallSub,3,,,,,,,,,,,,,,,,,,,,,,,,,,,,,,,,,,,,,551.8718816000037,551.8815443001222,551.8815443001222,553.6798468001653,return,1.794190099928528,None,Tasche,[],[],[],[],[],[],[],,,,,,,,,,,,,,,,,,,3,2024-01-30_11h18.34.457,watkins1,2023.2.3,99.73361160809621,102,2024-01-30 11h18.40.997836 +0000,
,,,,,,,,,,,,,,,,,,,5,0,5,0,,,,,553.6910610999912,,,,,,,,,,,,,,Schlüssel,3.7687096998561174,,,,,,,,,,,,0.4326516001019627,None,,,,,,,,,,,,,freeRecallSub,3,,,,,,,,,,,,,,,,,,,,,,,,,,,,,,,,,,,,,553.6811240999959,553.6910610999912,553.6910610999912,557.4602797999978,return,3.7687096998561174,None,Schlüssel,[],[],[],[],[],[],[],,,,,,,,,,,,,,,,,,,3,2024-01-30_11h18.34.457,watkins1,2023.2.3,99.73361160809621,102,2024-01-30 11h18.40.997836 +0000,
,,,,,,,,,,,,,,,,,,,6,0,6,0,,,,,557.4719762001187,,,,,,,,,,,,,,Rucksack,2.795826100045815,,,,,,,,,,,,0.3329753000289202,None,,,,,,,,,,,,,freeRecallSub,3,,,,,,,,,,,,,,,,,,,,,,,,,,,,,,,,,,,,,557.4615472001024,557.4719762001187,557.4719762001187,560.274787500035,return,2.795826100045815,None,Rucksack,[],[],[],[],[],[],[],,,,,,,,,,,,,,,,,,,3,2024-01-30_11h18.34.457,watkins1,2023.2.3,99.73361160809621,102,2024-01-30 11h18.40.997836 +0000,
,,,,,,,,,,,,,,,,,,,7,0,7,0,,,,,560.2866867000703,,,,,,,,,,,,,,Vase,2.581143799936399,,,,,,,,,,,,0.9256598001811653,None,,,,,,,,,,,,,freeRecallSub,3,,,,,,,,,,,,,,,,,,,,,,,,,,,,,,,,,,,,,560.2760381000116,560.2866867000703,560.2866867000703,562.8690967999864,return,2.581143799936399,None,Vase,[],[],[],[],[],[],[],,,,,,,,,,,,,,,,,,,3,2024-01-30_11h18.34.457,watkins1,2023.2.3,99.73361160809621,102,2024-01-30 11h18.40.997836 +0000,
,,,,,,,,,,,,,,,,,,,8,0,8,0,,,,,562.8811433000956,,,,,,,,,,,,,,Bürste,25.530714000109583,,,,,,,,,,,,23.225878299912438,None,,,,,,,,,,,,,freeRecallSub,3,,,,,,,,,,,,,,,,,,,,,,,,,,,,,,,,,,,,,562.8703621001914,562.8811433000956,562.8811433000956,588.4162813001312,return,25.530714000109583,None,Bürste,[],[],[],[],[],[],[],,,,,,,,,,,,,,,,,,,3,2024-01-30_11h18.34.457,watkins1,2023.2.3,99.73361160809621,102,2024-01-30 11h18.40.997836 +0000,
,,,,,,,,,,,,,,,,,,,9,0,9,0,,,,,588.4281933000311,,,,,,,,,,,,,,Fahrrad,4.159625600092113,,,,,,,,,,,,2.2117494998965412,None,,,,,,,,,,,,,freeRecallSub,3,,,,,,,,,,,,,,,,,,,,,,,,,,,,,,,,,,,,,588.4175466999877,588.4281933000311,588.4281933000311,592.5970918000676,return,4.159625600092113,None,Fahrrad,[],[],[],[],[],[],[],,,,,,,,,,,,,,,,,,,3,2024-01-30_11h18.34.457,watkins1,2023.2.3,99.73361160809621,102,2024-01-30 11h18.40.997836 +0000,
,,,,,,,,,,,,,,,,,,,10,0,10,0,,,,,592.6097186000552,,,,,,,,,,,,,,Tasse,36.906179500045255,,,,,,,,,,,,34.86594430007972,None,,,,,,,,,,,,,freeRecallSub,3,,,,,,,,,,,,,,,,,,,,,,,,,,,,,,,,,,,,,592.5983569000382,592.6097186000552,592.6097186000552,629.5225063001271,return,36.906179500045255,None,Tasse,[],[],[],[],[],[],[],,,,,,,,,,,,,,,,,,,3,2024-01-30_11h18.34.457,watkins1,2023.2.3,99.73361160809621,102,2024-01-30 11h18.40.997836 +0000,
,,,,,,,,,,,,,,,,,,,11,0,11,0,,,,,629.5351129001938,,,,,,,,,,,,,,Stift,12.756689399946481,,,,,,,,,,,,9.060287200147286,None,,,,,,,,,,,,,freeRecallSub,3,,,,,,,,,,,,,,,,,,,,,,,,,,,,,,,,,,,,,629.5237891001161,629.5351129001938,629.5351129001938,642.2989556000102,return,12.756689399946481,None,Stift,[],[],[],[],[],[],[],,,,,,,,,,,,,,,,,,,3,2024-01-30_11h18.34.457,watkins1,2023.2.3,99.73361160809621,102,2024-01-30 11h18.40.997836 +0000,
,,,,,,,,,,,,,,,,,,,12,0,12,0,,,,,642.3119259001687,,,,,,,,,,,,,,Kerze,2.1478744000196457,,,,,,,,,,,,0.6373913998249918,None,,,,,,,,,,,,,freeRecallSub,3,,,,,,,,,,,,,,,,,,,,,,,,,,,,,,,,,,,,,642.3002218001056,642.3119259001687,642.3119259001687,644.4638449000195,return,2.1478744000196457,None,Kerze,[],[],[],[],[],[],[],,,,,,,,,,,,,,,,,,,3,2024-01-30_11h18.34.457,watkins1,2023.2.3,99.73361160809621,102,2024-01-30 11h18.40.997836 +0000,
,,,,,,,,,,,,,,,,,,,13,0,13,0,,,,,644.4770188000984,,,,,,,,,,,,,,,[],,,,,,,,,,,,None,None,,,,,,,,,,,,,freeRecallSub,3,,,,,,,,,,,,,,,,,,,,,,,,,,,,,,,,,,,,,644.4650899001863,644.4770188000984,644.4770188000984,718.4193584001623,None,,,,[0.17222222222222222],[-0.4046296296296296],[1],[0],[0],[73.94881389988586],"['button_continue', 'continue_text']",,,,,,,,,,,,,,,,,,,3,2024-01-30_11h18.34.457,watkins1,2023.2.3,99.73361160809621,102,2024-01-30 11h18.40.997836 +0000,
,,,,,,,,,,,,,,,,,,,,,,,,,,,,,,,,,,,,,,,,,,,,,,,,,,,,,,,,,,,,,,,,,,,,,3,,,,,,,,,,,,,,,,,,,,,,,,,,,,,,,,,,,,,,,,,,,,,,,,,,,,,,,,,,,,,,,,,,,,,,3,2024-01-30_11h18.34.457,watkins1,2023.2.3,99.73361160809621,102,2024-01-30 11h18.40.997836 +0000,
,,,,,,,,,,,,,,,,,,,,,,,0,0,0,0,728.8415583001915,,,,,,,,,,739.4783918000758,739.9767559000757,,,,10.626546200131997,,,,,,,,,,,,None,None,,,,,,,,,,Schere,,,cuedRecallAdj,3,,,,,,,,,,,,,,,,,,,0,,,,,,,,,,,,,,,,,,,,,,,,,,,,,,,,,728.8325255999807,728.8415583001915,728.8415583001915,739.475101100048,schmutzig,return,10.626546200131997,None,739.4755252001341,739.4846278000623,739.4846278000623,739.4782430001069,,None,,,,,3,2024-01-30_11h18.34.457,watkins1,2023.2.3,99.73361160809621,102,2024-01-30 11h18.40.997836 +0000,
,,,,,,,,,,,,,,,,,,,,,,,1,0,1,0,739.9868093000259,,,,,,,,,,749.5690729001071,750.0677628000267,,,,9.569070999976248,,,,,,,,,,,,None,None,,,,,,,,,,Kiste,,,cuedRecallAdj,3,,,,,,,,,,,,,,,,,,,0,,,,,,,,,,,,,,,,,,,,,,,,,,,,,,,,,739.9770043001045,739.9868093000259,739.9868093000259,749.5657648001797,hübsch,return,9.569070999976248,None,749.5660316001158,749.5755221999716,749.5755221999716,749.5689708001446,,None,,,,,3,2024-01-30_11h18.34.457,watkins1,2023.2.3,99.73361160809621,102,2024-01-30 11h18.40.997836 +0000,
,,,,,,,,,,,,,,,,,,,,,,,2,0,2,0,750.0777066000737,,,,,,,,,,752.8629491999745,753.3616431001574,,,,2.7742126998491585,,,,,,,,,,,,None,None,,,,,,,,,,Telefon,,,cuedRecallAdj,3,,,,,,,,,,,,,,,,,,,0,,,,,,,,,,,,,,,,,,,,,,,,,,,,,,,,,750.0680049001239,750.0777066000737,750.0777066000737,752.8597634001635,glatt,return,2.7742126998491585,None,752.8600302000996,752.8694883000571,752.8694883000571,752.862847100012,,None,,,,,3,2024-01-30_11h18.34.457,watkins1,2023.2.3,99.73361160809621,102,2024-01-30 11h18.40.997836 +0000,
,,,,,,,,,,,,,,,,,,,,,,,3,0,3,0,753.3715898999944,,,,,,,,,,765.6144310000818,766.1132320000324,,,,12.232391299912706,,,,,,,,,,,,None,None,,,,,,,,,,Tasse,,,cuedRecallAdj,3,,,,,,,,,,,,,,,,,,,0,,,,,,,,,,,,,,,,,,,,,,,,,,,,,,,,,753.3618870000355,753.3715898999944,753.3715898999944,765.6114114001393,kaputt,return,12.232391299912706,None,765.6116775001865,765.6211314999964,765.6211314999964,765.6143298000097,,None,,,,,3,2024-01-30_11h18.34.457,watkins1,2023.2.3,99.73361160809621,102,2024-01-30 11h18.40.997836 +0000,
,,,,,,,,,,,,,,,,,,,,,,,4,0,4,0,766.1231768000871,,,,,,,,,,769.8314820001833,770.3301832000725,,,,3.6967264998238534,,,,,,,,,,,,None,None,,,,,,,,,,Würfel,,,cuedRecallAdj,3,,,,,,,,,,,,,,,,,,,0,,,,,,,,,,,,,,,,,,,,,,,,,,,,,,,,,766.113476500148,766.1231768000871,766.1231768000871,769.8284740000963,glänzend,return,3.6967264998238534,None,769.8287351001054,769.8381645001937,769.8381645001937,769.8313823000062,,None,,,,,3,2024-01-30_11h18.34.457,watkins1,2023.2.3,99.73361160809621,102,2024-01-30 11h18.40.997836 +0000,
,,,,,,,,,,,,,,,,,,,,,,,5,0,5,0,770.3402180999983,,,,,,,,,,773.2051097000949,773.7038358000573,,,,2.855790900066495,,,,,,,,,,,,None,None,,,,,,,,,,Löffel,,,cuedRecallAdj,3,,,,,,,,,,,,,,,,,,,0,,,,,,,,,,,,,,,,,,,,,,,,,,,,,,,,,770.3304290000815,770.3402180999983,770.3402180999983,773.2021453999914,lustig,return,2.855790900066495,None,773.2024068001192,773.2116909001488,773.2116909001488,773.205009700032,,None,,,,,3,2024-01-30_11h18.34.457,watkins1,2023.2.3,99.73361160809621,102,2024-01-30 11h18.40.997836 +0000,
,,,,,,,,,,,,,,,,,,,,,,,6,0,6,0,773.7137987001333,,,,,,,,,,776.7695126000326,777.2681272001937,,,,3.050157100195065,,,,,,,,,,,,None,None,,,,,,,,,,Vase,,,cuedRecallAdj,3,,,,,,,,,,,,,,,,,,,0,,,,,,,,,,,,,,,,,,,,,,,,,,,,,,,,,773.7040772000328,773.7137987001333,773.7137987001333,776.7666205000132,robust,return,3.050157100195065,None,776.7668874000665,776.77620079997,776.77620079997,776.769409700064,,None,,,,,3,2024-01-30_11h18.34.457,watkins1,2023.2.3,99.73361160809621,102,2024-01-30 11h18.40.997836 +0000,
,,,,,,,,,,,,,,,,,,,,,,,7,0,7,0,777.2781807000283,,,,,,,,,,782.1614863001741,782.6602254000027,,,,4.877776599954814,,,,,,,,,,,,None,None,,,,,,,,,,Brille,,,cuedRecallAdj,3,,,,,,,,,,,,,,,,,,,0,,,,,,,,,,,,,,,,,,,,,,,,,,,,,,,,,777.2683714001905,777.2781807000283,777.2781807000283,782.1583001001272,durchsichtig,return,4.877776599954814,None,782.1585646001622,782.1678287000395,782.1678287000395,782.1613853001036,,None,,,,,3,2024-01-30_11h18.34.457,watkins1,2023.2.3,99.73361160809621,102,2024-01-30 11h18.40.997836 +0000,
,,,,,,,,,,,,,,,,,,,,,,,8,0,8,0,782.6701712000649,,,,,,,,,,787.1515506000724,787.6503928001039,,,,4.469715300016105,,,,,,,,,,,,None,None,,,,,,,,,,Jacke,,,cuedRecallAdj,3,,,,,,,,,,,,,,,,,,,0,,,,,,,,,,,,,,,,,,,,,,,,,,,,,,,,,782.6604687999934,782.6701712000649,782.6701712000649,787.1486592001747,groß,return,4.469715300016105,None,787.148924899986,787.1584203001112,787.1584203001112,787.1514493001159,,None,,,,,3,2024-01-30_11h18.34.457,watkins1,2023.2.3,99.73361160809621,102,2024-01-30 11h18.40.997836 +0000,
,,,,,,,,,,,,,,,,,,,,,,,9,0,9,0,787.6604282001499,,,,,,,,,,791.680047800066,792.1787729000207,,,,4.015594300115481,,,,,,,,,,,,None,None,,,,,,,,,,Flasche,,,cuedRecallAdj,3,,,,,,,,,,,,,,,,,,,0,,,,,,,,,,,,,,,,,,,,,,,,,,,,,,,,,787.6506382001098,787.6604282001499,787.6604282001499,791.6770297000185,blass,return,4.015594300115481,None,791.6772992000915,791.6866162000224,791.6866162000224,791.6799447999801,,None,,,,,3,2024-01-30_11h18.34.457,watkins1,2023.2.3,99.73361160809621,102,2024-01-30 11h18.40.997836 +0000,
,,,,,,,,,,,,,,,,,,,,,,,10,0,10,0,792.188713400159,,,,,,,,,,795.8772093001753,796.3755314999726,,,,3.6791941998526454,,,,,,,,,,,,None,None,,,,,,,,,,Hammer,,,cuedRecallAdj,3,,,,,,,,,,,,,,,,,,,0,,,,,,,,,,,,,,,,,,,,,,,,,,,,,,,,,792.1790192001499,792.188713400159,792.188713400159,795.8739565000869,hässlich,return,3.6791941998526454,None,795.8742254001554,795.8835277999751,795.8835277999751,795.87710719998,,None,,,,,3,2024-01-30_11h18.34.457,watkins1,2023.2.3,99.73361160809621,102,2024-01-30 11h18.40.997836 +0000,
,,,,,,,,,,,,,,,,,,,,,,,11,0,11,0,796.3854783000425,,,,,,,,,,798.3971239000093,798.8958221999928,,,,2.0025505998637527,,,,,,,,,,,,None,None,,,,,,,,,,Kerze,,,cuedRecallAdj,3,,,,,,,,,,,,,,,,,,,0,,,,,,,,,,,,,,,,,,,,,,,,,,,,,,,,,796.3757738000713,796.3854783000425,796.3854783000425,798.3942549000494,kurz,return,2.0025505998637527,None,798.3945241000038,798.4038627999835,798.4038627999835,798.3970189001411,,None,,,,,3,2024-01-30_11h18.34.457,watkins1,2023.2.3,99.73361160809621,102,2024-01-30 11h18.40.997836 +0000,
,,,,,,,,,,,,,,,,,,,,,,,12,0,12,0,798.9057734000962,,,,,,,,,,801.8511245001573,802.349661400076,,,,2.9382549999281764,,,,,,,,,,,,None,None,,,,,,,,,,Trommel,,,cuedRecallAdj,3,,,,,,,,,,,,,,,,,,,0,,,,,,,,,,,,,,,,,,,,,,,,,,,,,,,,,798.8960740000475,798.9057734000962,798.9057734000962,801.8481230000034,kaputt,return,2.9382549999281764,None,801.8483825000003,801.8576817000285,801.8576817000285,801.8510241999757,,None,,,,,3,2024-01-30_11h18.34.457,watkins1,2023.2.3,99.73361160809621,102,2024-01-30 11h18.40.997836 +0000,
,,,,,,,,,,,,,,,,,,,,,,,13,0,13,0,802.3595687001944,,,,,,,,,,804.5921490001492,805.0911618000828,,,,2.2203499998431653,,,,,,,,,,,,None,None,,,,,,,,,,Stift,,,cuedRecallAdj,3,,,,,,,,,,,,,,,,,,,0,,,,,,,,,,,,,,,,,,,,,,,,,,,,,,,,,802.3499046000652,802.3595687001944,802.3595687001944,804.5892943001818,lang,return,2.2203499998431653,None,804.5895655001514,804.5990177001804,804.5990177001804,804.592046600068,,None,,,,,3,2024-01-30_11h18.34.457,watkins1,2023.2.3,99.73361160809621,102,2024-01-30 11h18.40.997836 +0000,
,,,,,,,,,,,,,,,,,,,,,,,14,0,14,0,805.1011065000203,,,,,,,,,,808.3575498000719,808.8561609000899,,,,3.2468679000157863,,,,,,,,,,,,None,None,,,,,,,,,,Ring,,,cuedRecallAdj,3,,,,,,,,,,,,,,,,,,,0,,,,,,,,,,,,,,,,,,,,,,,,,,,,,,,,,805.0914086000994,805.1011065000203,805.1011065000203,808.3546884001698,dick,return,3.2468679000157863,None,808.3549471001606,808.3642369001172,808.3642369001172,808.3574425000697,,None,,,,,3,2024-01-30_11h18.34.457,watkins1,2023.2.3,99.73361160809621,102,2024-01-30 11h18.40.997836 +0000,
,,,,,,,,,,,,,,,,,,,,,,,15,0,15,0,808.8660534999799,,,,,,,,,,811.3998573001008,811.8987666000612,,,,2.529850099934265,,,,,,,,,,,,None,None,,,,,,,,,,Buch,,,cuedRecallAdj,3,,,,,,,,,,,,,,,,,,,0,,,,,,,,,,,,,,,,,,,,,,,,,,,,,,,,,808.8564177001826,808.8660534999799,808.8660534999799,811.3971397001296,gut,return,2.529850099934265,None,811.3974071000703,811.4067242001183,811.4067242001183,811.3997552001383,,None,,,,,3,2024-01-30_11h18.34.457,watkins1,2023.2.3,99.73361160809621,102,2024-01-30 11h18.40.997836 +0000,
,,,,,,,,,,,,,,,,,,,,,,,16,0,16,0,811.9087135000154,,,,,,,,,,813.8798158001155,814.378676700173,,,,1.959329199977219,,,,,,,,,,,,None,None,,,,,,,,,,Bürste,,,cuedRecallAdj,3,,,,,,,,,,,,,,,,,,,0,,,,,,,,,,,,,,,,,,,,,,,,,,,,,,,,,811.8990128000733,811.9087135000154,811.9087135000154,813.8769493000582,nass,return,1.959329199977219,None,813.877213699976,813.8866420001723,813.8866420001723,813.879715600051,,None,,,,,3,2024-01-30_11h18.34.457,watkins1,2023.2.3,99.73361160809621,102,2024-01-30 11h18.40.997836 +0000,
,,,,,,,,,,,,,,,,,,,,,,,17,0,17,0,814.3887273001019,,,,,,,,,,820.2559640000109,820.7544301999733,,,,5.863270699977875,,,,,,,,,,,,None,None,,,,,,,,,,Fahrrad,,,cuedRecallAdj,3,,,,,,,,,,,,,,,,,,,0,,,,,,,,,,,,,,,,,,,,,,,,,,,,,,,,,814.3789140000008,814.3887273001019,814.3887273001019,820.2528807001654,rustikal,return,5.863270699977875,None,820.2531469000969,820.2623920000624,820.2623920000624,820.2558614001609,,None,,,,,3,2024-01-30_11h18.34.457,watkins1,2023.2.3,99.73361160809621,102,2024-01-30 11h18.40.997836 +0000,
,,,,,,,,,,,,,,,,,,,,,,,18,0,18,0,820.7643695001025,,,,,,,,,,823.237647900125,823.736564300023,,,,2.4636657000519335,,,,,,,,,,,,None,None,,,,,,,,,,Kamera,,,cuedRecallAdj,3,,,,,,,,,,,,,,,,,,,0,,,,,,,,,,,,,,,,,,,,,,,,,,,,,,,,,820.7546757999808,820.7643695001025,820.7643695001025,823.2347709001042,kalt,return,2.4636657000519335,None,823.2350366001483,823.2443872001022,823.2443872001022,823.2375469000544,,None,,,,,3,2024-01-30_11h18.34.457,watkins1,2023.2.3,99.73361160809621,102,2024-01-30 11h18.40.997836 +0000,
,,,,,,,,,,,,,,,,,,,,,,,19,0,19,0,823.7465037000366,,,,,,,,,,840.2777269000653,840.7763253999874,,,,16.521540499990806,,,,,,,,,,,,None,None,,,,,,,,,,Eimer,,,cuedRecallAdj,3,,,,,,,,,,,,,,,,,,,0,,,,,,,,,,,,,,,,,,,,,,,,,,,,,,,,,823.736809700029,823.7465037000366,823.7465037000366,840.2747832001187,platt,return,16.521540499990806,None,840.275043200003,840.284334700089,840.284334700089,840.2776267000008,,None,,,,,3,2024-01-30_11h18.34.457,watkins1,2023.2.3,99.73361160809621,102,2024-01-30 11h18.40.997836 +0000,
,,,,,,,,,,,,,,,,,,,,,,,20,0,20,0,840.7862784001045,,,,,,,,,,844.112947100075,844.6117295001168,,,,3.321671200217679,,,,,,,,,,,,None,None,,,,,,,,,,Lampe,,,cuedRecallAdj,3,,,,,,,,,,,,,,,,,,,0,,,,,,,,,,,,,,,,,,,,,,,,,,,,,,,,,840.7765707999934,840.7862784001045,840.7862784001045,844.1100690001622,zart,return,3.321671200217679,None,844.1103372999933,844.1196225001477,844.1196225001477,844.1128418999724,,None,,,,,3,2024-01-30_11h18.34.457,watkins1,2023.2.3,99.73361160809621,102,2024-01-30 11h18.40.997836 +0000,
,,,,,,,,,,,,,,,,,,,,,,,21,0,21,0,844.6216775001958,,,,,,,,,,850.4086250001565,850.9070741001051,,,,5.782365499995649,,,,,,,,,,,,None,None,,,,,,,,,,Tasche,,,cuedRecallAdj,3,,,,,,,,,,,,,,,,,,,0,,,,,,,,,,,,,,,,,,,,,,,,,,,,,,,,,844.6119711000938,844.6216775001958,844.6216775001958,850.4054023001809,elegant,return,5.782365499995649,None,850.4056673999876,850.4150140001439,850.4150140001439,850.408521000063,,None,,,,,3,2024-01-30_11h18.34.457,watkins1,2023.2.3,99.73361160809621,102,2024-01-30 11h18.40.997836 +0000,
,,,,,,,,,,,,,,,,,,,,,,,22,0,22,0,850.9170291000046,,,,,,,,,,852.8083178000525,853.3068008001428,,,,1.8869680999778211,,,,,,,,,,,,None,None,,,,,,,,,,Rucksack,,,cuedRecallAdj,3,,,,,,,,,,,,,,,,,,,0,,,,,,,,,,,,,,,,,,,,,,,,,,,,,,,,,850.9073193001095,850.9170291000046,850.9170291000046,852.8052168001886,neu,return,1.8869680999778211,None,852.8054842001293,852.8147758999839,852.8147758999839,852.8082149999682,,None,,,,,3,2024-01-30_11h18.34.457,watkins1,2023.2.3,99.73361160809621,102,2024-01-30 11h18.40.997836 +0000,
,,,,,,,,,,,,,,,,,,,,,,,23,0,23,0,853.3167506000027,,,,,,,,,,856.9449664000422,857.4435142001603,,,,3.6152715000789613,,,,,,,,,,,,None,None,,,,,,,,,,Socke,,,cuedRecallAdj,3,,,,,,,,,,,,,,,,,,,0,,,,,,,,,,,,,,,,,,,,,,,,,,,,,,,,,853.3070424001198,853.3167506000027,853.3167506000027,856.9417000000831,sportlich,return,3.6152715000789613,None,856.9419719001744,856.9514595000073,856.9514595000073,856.9448621000629,,None,,,,,3,2024-01-30_11h18.34.457,watkins1,2023.2.3,99.73361160809621,102,2024-01-30 11h18.40.997836 +0000,
,,,,,,,,,,,,,,,,,,,,,,,24,0,24,0,857.4534571999684,,,,,,,,,,862.3769030000549,862.8757050000131,,,,4.918555099982768,,,,,,,,,,,,None,None,,,,,,,,,,Hut,,,cuedRecallAdj,3,,,,,,,,,,,,,,,,,,,0,,,,,,,,,,,,,,,,,,,,,,,,,,,,,,,,,857.4437596001662,857.4534571999684,857.4534571999684,862.3741109000985,klobig,return,4.918555099982768,None,862.3743712999858,862.3836693000048,862.3836693000048,862.376803399995,,None,,,,,3,2024-01-30_11h18.34.457,watkins1,2023.2.3,99.73361160809621,102,2024-01-30 11h18.40.997836 +0000,
,,,,,,,,,,,,,,,,,,,,,,,25,0,25,0,862.8856563000008,,,,,,,,,,866.4236512000207,866.9219994000159,,,,3.5345000999514014,,,,,,,,,,,,None,None,,,,,,,,,,Kette,,,cuedRecallAdj,3,,,,,,,,,,,,,,,,,,,0,,,,,,,,,,,,,,,,,,,,,,,,,,,,,,,,,862.8759521001484,862.8856563000008,862.8856563000008,866.4205609001219,gestreift,return,3.5345000999514014,None,866.4208203000017,866.4298853001092,866.4298853001092,866.4235503000673,,None,,,,,3,2024-01-30_11h18.34.457,watkins1,2023.2.3,99.73361160809621,102,2024-01-30 11h18.40.997836 +0000,
,,,,,,,,,,,,,,,,,,,,,,,26,0,26,0,866.9319450000767,,,,,,,,,,869.8370259001385,870.3358377001714,,,,2.8961216998286545,,,,,,,,,,,,None,None,,,,,,,,,,Uhr,,,cuedRecallAdj,3,,,,,,,,,,,,,,,,,,,0,,,,,,,,,,,,,,,,,,,,,,,,,,,,,,,,,866.922240300104,866.9319450000767,866.9319450000767,869.8341932001058,hübsch,return,2.8961216998286545,None,869.8344553001225,869.8437502000015,869.8437502000015,869.8369264001958,,None,,,,,3,2024-01-30_11h18.34.457,watkins1,2023.2.3,99.73361160809621,102,2024-01-30 11h18.40.997836 +0000,
,,,,,,,,,,,,,,,,,,,,,,,27,0,27,0,870.3457776000723,,,,,,,,,,874.7971954001114,875.2959009001497,,,,4.442189799854532,,,,,,,,,,,,None,None,,,,,,,,,,Geige,,,cuedRecallAdj,3,,,,,,,,,,,,,,,,,,,0,,,,,,,,,,,,,,,,,,,,,,,,,,,,,,,,,870.3360759001225,870.3457776000723,870.3457776000723,874.7941731000319,elegant,return,4.442189799854532,None,874.7944408000913,874.8038092001807,874.8038092001807,874.7970934000332,,None,,,,,3,2024-01-30_11h18.34.457,watkins1,2023.2.3,99.73361160809621,102,2024-01-30 11h18.40.997836 +0000,
,,,,,,,,,,,,,,,,,,,,,,,28,0,28,0,875.3058452000841,,,,,,,,,,878.7228690001648,879.2215317001101,,,,3.410234299954027,,,,,,,,,,,,None,None,,,,,,,,,,Schlüssel,,,cuedRecallAdj,3,,,,,,,,,,,,,,,,,,,0,,,,,,,,,,,,,,,,,,,,,,,,,,,,,,,,,875.2961442000233,875.3058452000841,875.3058452000841,878.7199659000617,matt,return,3.410234299954027,None,878.7202277001925,878.7296145001892,878.7296145001892,878.7227696001064,,None,,,,,3,2024-01-30_11h18.34.457,watkins1,2023.2.3,99.73361160809621,102,2024-01-30 11h18.40.997836 +0000,
,,,,,,,,,,,,,,,,,,,,,,,29,0,29,0,879.2315828001592,,,,,,,,,,882.20740020019,882.7061129000504,,,,2.97244119993411,,,,,,,,,,,,None,None,,,,,,,,,,Blume,,,cuedRecallAdj,3,,,,,,,,,,,,,,,,,,,0,,,,,,,,,,,,,,,,,,,,,,,,,,,,,,,,,879.2217761001084,879.2315828001592,879.2315828001592,882.2045144999865,hohl,return,2.97244119993411,None,882.2047838000581,882.2140442000236,882.2140442000236,882.2072984001134,,None,,,,,3,2024-01-30_11h18.34.457,watkins1,2023.2.3,99.73361160809621,102,2024-01-30 11h18.40.997836 +0000,
,,,,,,,,,,,,,,,,,,,,,,,,,,,,,,,,,,,,,,,,,,,,,,,,,,,,,,,,,,,,,,,,,,,,,3,,,,,,,,,,,,,,,,,,,,,,,,,,,,,,,,,,,,,,,,,,,,,,,,,,,,,,,,,,,,,,,,,,882.7228031000122,q,215.08931549987756,None,3,2024-01-30_11h18.34.457,watkins1,2023.2.3,99.73361160809621,102,2024-01-30 11h18.40.997836 +0000,
