Equation,CorrectResponse,Correctbutton,trials_7.thisRepN,trials_7.thisTrialN,trials_7.thisN,trials_7.thisIndex,trials.thisRepN,trials.thisTrialN,trials.thisN,trials.thisIndex,trials_3.thisRepN,trials_3.thisTrialN,trials_3.thisN,trials_3.thisIndex,trials_2.thisRepN,trials_2.thisTrialN,trials_2.thisN,trials_2.thisIndex,trials_4.thisRepN,trials_4.thisTrialN,trials_4.thisN,trials_4.thisIndex,trials_5.thisRepN,trials_5.thisTrialN,trials_5.thisN,trials_5.thisIndex,thisRow.t,notes,code_marius.started,code_marius.stopped,welcome.started,welcome.stopped,instruction_study.started,instruction_study.stopped,fixationcross.started,fixationcross.stopped,blanc.started,blanc.stopped,study_control_probe.started,study_control_probe.stopped,responseKey,responseTime,scale_answer_2.keys,study_control_probe_2.started,study_control_probe_2.stopped,scale_answer_3.keys,scale_answer_3.rt,scale_answer_3.duration,blanc_2.started,blanc_2.stopped,test_attr_probe.started,test_attr_probe.stopped,recalled_attr,firstKeyTime,secondWordTime,blanc_3.started,blanc_3.stopped,test_sub_probe.started,test_sub_probe.stopped,recalled_sub,instruction_probe_end.started,instruction_probe_end.stopped,study.started,study.stopped,substantive,adjective,wordpair,task,condition,liste_sub_phase1,liste_adj_phase1,scale_answer.keys,scale_answer.rt,scale_answer.duration,code_defineWordsInit.started,code_defineWordsInit.stopped,liste_sub_phase2,study_control.started,study_control.stopped,scale_answer_4.keys,restudy_same.started,restudy_same.stopped,scale_answer_5.keys,scale_answer_5.rt,scale_answer_5.duration,restudy_different.started,restudy_different.stopped,scale_answer_6.keys,test_attr.started,test_attr.stopped,test_sub.started,test_sub.stopped,correct,distractortask.started,equation_text.started,distractortask.stopped,mouse_answer.x,mouse_answer.y,mouse_answer.leftButton,mouse_answer.midButton,mouse_answer.rightButton,mouse_answer.time,mouse_answer.clicked_name,feedback_distractortask.started,feedback_distractortask.stopped,free_recall.started,text_enter.started,key_resp.started,free_recall.stopped,key_resp.keys,key_resp.rt,key_resp.duration,free_recalled_sub,mouse_continue.x,mouse_continue.y,mouse_continue.leftButton,mouse_continue.midButton,mouse_continue.rightButton,mouse_continue.time,mouse_continue.clicked_name,cued_recall.started,text_enter_2.started,key_continue.started,cued_recall.stopped,recalled_attr1,key_continue.keys,key_continue.rt,key_continue.duration,cued_recall_2.started,text_enter_3.started,key_continue_2.started,cued_recall_2.stopped,recalled_attr2,key_continue_2.keys,key_resp_8.started,key_resp_8.keys,key_resp_8.rt,key_resp_8.duration,condition,date,expName,psychopyVersion,frameRate,participant,expStart,
,,,,,,,,,,,,,,,,,,,,,,,,,,,,,0.12012969999341294,0.12019450002117082,0.12020280002616346,5.3270885000238195,,,,,,,,,,,,,,,,,,,,,,,,,,,,,,,,,,,,,3,,,,,,,,,,,,,,,,,,,,,,,,,,,,,,,,,,,,,,,,,,,,,,,,,,,,,,,,,,,,,,,,,,,,,,3,2023-12-19_13h34.51.969,watkins1,2023.2.3,99.73768987536029,71,2023-12-19 13h35.00.146042 +0000,
,,,,,,,,,,,,,,,,,,,,,,,,,,,,,,,,,5.327136200037785,45.108090199995786,,,,,,,,,,,,,,,,,,,,,,,,,,,,,,,,,,,3,,,,,,,,,,,,,,,,,,,,,,,,,,,,,,,,,,,,,,,,,,,,,,,,,,,,,,,,,,,,,,,,,,,,,,3,2023-12-19_13h34.51.969,watkins1,2023.2.3,99.73768987536029,71,2023-12-19 13h35.00.146042 +0000,
,,,0,0,0,0,,,,,,,,,,,,,,,,,,,,,46.121710999985225,,,,,,,,45.10810680000577,46.11173170001712,52.61070630000904,53.10164770000847,46.60470460000215,52.61054249998415,1,3.784923700033687,None,53.1016585000325,59.1088560000062,1,3.784923700033687,None,59.10914570000023,59.600381700030994,59.60039269999834,65.60546059999615,vergnügt,None,None,65.60568290000083,65.60570650000591,65.60571360000176,65.60579649999272,,,,,,,,,,3,,,,,,,,,,,,,,,,,,,,,,,,,,,,,,,,,,,,,,,,,,,,,,,,,,,,,,,,,,,,,,,,,,,,,,3,2023-12-19_13h34.51.969,watkins1,2023.2.3,99.73768987536029,71,2023-12-19 13h35.00.146042 +0000,
,,,,,,,,,,,,,,,,,,,,,,,,,,,,,,,,,,,,,,,,,,,,,,,,,,,,,,,,,,,,,65.60591470001964,70.84708179999143,,,,,,,3,,,,,,,,,,,,,,,,,,,,,,,,,,,,,,,,,,,,,,,,,,,,,,,,,,,,,,,,,,,,,,,,,,,,,,3,2023-12-19_13h34.51.969,watkins1,2023.2.3,99.73768987536029,71,2023-12-19 13h35.00.146042 +0000,
,,,,,,,0,0,0,0,,,,,,,,,,,,,,,,,71.86083640001016,,,,,,,,70.84709759999532,71.85085660003824,71.8513131000218,72.34286869998323,,,3,2.187591699999757,,,,,,,,,,,,,,,,,,,,,72.3428794000065,78.34872459998587,Flasche,sauber,"['Flasche', 'sauber']",test_adj,3,"['Flasche', 'Uhr', 'Buch', 'Blume', 'Fahrrad', 'Löffel', 'Hut', 'Schlüssel', 'Tasche', 'Brille', 'Würfel', 'Bürste', 'Kerze', 'Rucksack', 'Socke', 'Geige', 'Kiste', 'Eimer', 'Tasse', 'Trommel', 'Vase', 'Hammer', 'Kamera', 'Schere', 'Lampe', 'Jacke', 'Telefon', 'Kette', 'Ring', 'Stift']",['sauber'],3,2.187591699999757,None,,,,,,,,,,,,,,,,,,,,,,,,,,,,,,,,,,,,,,,,,,,,,,,,,,,,,,,,,,,,,,,,,3,2023-12-19_13h34.51.969,watkins1,2023.2.3,99.73768987536029,71,2023-12-19 13h35.00.146042 +0000,
,,,,,,,1,0,1,0,,,,,,,,,,,,,,,,,78.35814120003488,,,,,,,,,,78.3493596999906,78.8401937999879,,,1,3.571753300027922,,,,,,,,,,,,,,,,,,,,,78.84020420000888,84.8462581000058,Uhr,blass,"['Uhr', 'blass']",restudy,3,"['Flasche', 'Uhr', 'Buch', 'Blume', 'Fahrrad', 'Löffel', 'Hut', 'Schlüssel', 'Tasche', 'Brille', 'Würfel', 'Bürste', 'Kerze', 'Rucksack', 'Socke', 'Geige', 'Kiste', 'Eimer', 'Tasse', 'Trommel', 'Vase', 'Hammer', 'Kamera', 'Schere', 'Lampe', 'Jacke', 'Telefon', 'Kette', 'Ring', 'Stift']","['sauber', 'blass']",1,3.571753300027922,None,,,,,,,,,,,,,,,,,,,,,,,,,,,,,,,,,,,,,,,,,,,,,,,,,,,,,,,,,,,,,,,,,3,2023-12-19_13h34.51.969,watkins1,2023.2.3,99.73768987536029,71,2023-12-19 13h35.00.146042 +0000,
,,,,,,,2,0,2,0,,,,,,,,,,,,,,,,,84.85565849998966,,,,,,,,,,84.84679450001568,85.33769880002365,,,3,2.202112799976021,,,,,,,,,,,,,,,,,,,,,85.33770889998414,91.33917450002627,Buch,schlicht,"['Buch', 'schlicht']",restudy,3,"['Flasche', 'Uhr', 'Buch', 'Blume', 'Fahrrad', 'Löffel', 'Hut', 'Schlüssel', 'Tasche', 'Brille', 'Würfel', 'Bürste', 'Kerze', 'Rucksack', 'Socke', 'Geige', 'Kiste', 'Eimer', 'Tasse', 'Trommel', 'Vase', 'Hammer', 'Kamera', 'Schere', 'Lampe', 'Jacke', 'Telefon', 'Kette', 'Ring', 'Stift']","['sauber', 'blass', 'schlicht']",3,2.202112799976021,None,,,,,,,,,,,,,,,,,,,,,,,,,,,,,,,,,,,,,,,,,,,,,,,,,,,,,,,,,,,,,,,,,3,2023-12-19_13h34.51.969,watkins1,2023.2.3,99.73768987536029,71,2023-12-19 13h35.00.146042 +0000,
,,,,,,,3,0,3,0,,,,,,,,,,,,,,,,,91.34855669998797,,,,,,,,,,91.33969190000789,91.83076109999092,,,2,2.460981099982746,,,,,,,,,,,,,,,,,,,,,91.8307710000081,97.83245689998148,Blume,gestreift,"['Blume', 'gestreift']",test_adj,3,"['Flasche', 'Uhr', 'Buch', 'Blume', 'Fahrrad', 'Löffel', 'Hut', 'Schlüssel', 'Tasche', 'Brille', 'Würfel', 'Bürste', 'Kerze', 'Rucksack', 'Socke', 'Geige', 'Kiste', 'Eimer', 'Tasse', 'Trommel', 'Vase', 'Hammer', 'Kamera', 'Schere', 'Lampe', 'Jacke', 'Telefon', 'Kette', 'Ring', 'Stift']","['sauber', 'blass', 'schlicht', 'gestreift']",2,2.460981099982746,None,,,,,,,,,,,,,,,,,,,,,,,,,,,,,,,,,,,,,,,,,,,,,,,,,,,,,,,,,,,,,,,,,3,2023-12-19_13h34.51.969,watkins1,2023.2.3,99.73768987536029,71,2023-12-19 13h35.00.146042 +0000,
,,,,,,,4,0,4,0,,,,,,,,,,,,,,,,,97.84191820002161,,,,,,,,,,97.8329914000351,98.32396579999477,,,1,2.2484026000020094,,,,,,,,,,,,,,,,,,,,,98.32397640001727,104.33026060002157,Fahrrad,lang,"['Fahrrad', 'lang']",restudy,3,"['Flasche', 'Uhr', 'Buch', 'Blume', 'Fahrrad', 'Löffel', 'Hut', 'Schlüssel', 'Tasche', 'Brille', 'Würfel', 'Bürste', 'Kerze', 'Rucksack', 'Socke', 'Geige', 'Kiste', 'Eimer', 'Tasse', 'Trommel', 'Vase', 'Hammer', 'Kamera', 'Schere', 'Lampe', 'Jacke', 'Telefon', 'Kette', 'Ring', 'Stift']","['sauber', 'blass', 'schlicht', 'gestreift', 'lang']",1,2.2484026000020094,None,,,,,,,,,,,,,,,,,,,,,,,,,,,,,,,,,,,,,,,,,,,,,,,,,,,,,,,,,,,,,,,,,3,2023-12-19_13h34.51.969,watkins1,2023.2.3,99.73768987536029,71,2023-12-19 13h35.00.146042 +0000,
,,,,,,,5,0,5,0,,,,,,,,,,,,,,,,,104.33971020003082,,,,,,,,,,104.33079690003069,104.8217491999967,,,1,4.325228700006846,,,,,,,,,,,,,,,,,,,,,104.82175900001312,110.82526369998232,Löffel,rustikal,"['Löffel', 'rustikal']",restudy,3,"['Flasche', 'Uhr', 'Buch', 'Blume', 'Fahrrad', 'Löffel', 'Hut', 'Schlüssel', 'Tasche', 'Brille', 'Würfel', 'Bürste', 'Kerze', 'Rucksack', 'Socke', 'Geige', 'Kiste', 'Eimer', 'Tasse', 'Trommel', 'Vase', 'Hammer', 'Kamera', 'Schere', 'Lampe', 'Jacke', 'Telefon', 'Kette', 'Ring', 'Stift']","['sauber', 'blass', 'schlicht', 'gestreift', 'lang', 'rustikal']",1,4.325228700006846,None,,,,,,,,,,,,,,,,,,,,,,,,,,,,,,,,,,,,,,,,,,,,,,,,,,,,,,,,,,,,,,,,,3,2023-12-19_13h34.51.969,watkins1,2023.2.3,99.73768987536029,71,2023-12-19 13h35.00.146042 +0000,
,,,,,,,6,0,6,0,,,,,,,,,,,,,,,,,110.83473499998217,,,,,,,,,,110.82577719999244,111.31676250003511,,,2,2.743573799962178,,,,,,,,,,,,,,,,,,,,,111.31677309999941,117.32035580003867,Hut,dick,"['Hut', 'dick']",restudy,3,"['Flasche', 'Uhr', 'Buch', 'Blume', 'Fahrrad', 'Löffel', 'Hut', 'Schlüssel', 'Tasche', 'Brille', 'Würfel', 'Bürste', 'Kerze', 'Rucksack', 'Socke', 'Geige', 'Kiste', 'Eimer', 'Tasse', 'Trommel', 'Vase', 'Hammer', 'Kamera', 'Schere', 'Lampe', 'Jacke', 'Telefon', 'Kette', 'Ring', 'Stift']","['sauber', 'blass', 'schlicht', 'gestreift', 'lang', 'rustikal', 'dick']",2,2.743573799962178,None,,,,,,,,,,,,,,,,,,,,,,,,,,,,,,,,,,,,,,,,,,,,,,,,,,,,,,,,,,,,,,,,,3,2023-12-19_13h34.51.969,watkins1,2023.2.3,99.73768987536029,71,2023-12-19 13h35.00.146042 +0000,
,,,,,,,7,0,7,0,,,,,,,,,,,,,,,,,117.32979550003074,,,,,,,,,,117.320879100007,117.81183279998368,,,1,1.6326236000168137,,,,,,,,,,,,,,,,,,,,,117.8118422999978,123.81450380000751,Schlüssel,bunt,"['Schlüssel', 'bunt']",test_adj,3,"['Flasche', 'Uhr', 'Buch', 'Blume', 'Fahrrad', 'Löffel', 'Hut', 'Schlüssel', 'Tasche', 'Brille', 'Würfel', 'Bürste', 'Kerze', 'Rucksack', 'Socke', 'Geige', 'Kiste', 'Eimer', 'Tasse', 'Trommel', 'Vase', 'Hammer', 'Kamera', 'Schere', 'Lampe', 'Jacke', 'Telefon', 'Kette', 'Ring', 'Stift']","['sauber', 'blass', 'schlicht', 'gestreift', 'lang', 'rustikal', 'dick', 'bunt']",1,1.6326236000168137,None,,,,,,,,,,,,,,,,,,,,,,,,,,,,,,,,,,,,,,,,,,,,,,,,,,,,,,,,,,,,,,,,,3,2023-12-19_13h34.51.969,watkins1,2023.2.3,99.73768987536029,71,2023-12-19 13h35.00.146042 +0000,
,,,,,,,8,0,8,0,,,,,,,,,,,,,,,,,123.82395980000729,,,,,,,,,,123.81502710003406,124.30607679998502,,,2,2.777711000002455,,,,,,,,,,,,,,,,,,,,,124.3060880000121,130.31266290001804,Tasche,kurz,"['Tasche', 'kurz']",test_adj,3,"['Flasche', 'Uhr', 'Buch', 'Blume', 'Fahrrad', 'Löffel', 'Hut', 'Schlüssel', 'Tasche', 'Brille', 'Würfel', 'Bürste', 'Kerze', 'Rucksack', 'Socke', 'Geige', 'Kiste', 'Eimer', 'Tasse', 'Trommel', 'Vase', 'Hammer', 'Kamera', 'Schere', 'Lampe', 'Jacke', 'Telefon', 'Kette', 'Ring', 'Stift']","['sauber', 'blass', 'schlicht', 'gestreift', 'lang', 'rustikal', 'dick', 'bunt', 'kurz']",2,2.777711000002455,None,,,,,,,,,,,,,,,,,,,,,,,,,,,,,,,,,,,,,,,,,,,,,,,,,,,,,,,,,,,,,,,,,3,2023-12-19_13h34.51.969,watkins1,2023.2.3,99.73768987536029,71,2023-12-19 13h35.00.146042 +0000,
,,,,,,,9,0,9,0,,,,,,,,,,,,,,,,,130.32207980001112,,,,,,,,,,130.31319820001954,130.80405279999832,,,3,1.2967903999960981,,,,,,,,,,,,,,,,,,,,,130.80406290001702,136.8095580000081,Brille,matt,"['Brille', 'matt']",test_adj,3,"['Flasche', 'Uhr', 'Buch', 'Blume', 'Fahrrad', 'Löffel', 'Hut', 'Schlüssel', 'Tasche', 'Brille', 'Würfel', 'Bürste', 'Kerze', 'Rucksack', 'Socke', 'Geige', 'Kiste', 'Eimer', 'Tasse', 'Trommel', 'Vase', 'Hammer', 'Kamera', 'Schere', 'Lampe', 'Jacke', 'Telefon', 'Kette', 'Ring', 'Stift']","['sauber', 'blass', 'schlicht', 'gestreift', 'lang', 'rustikal', 'dick', 'bunt', 'kurz', 'matt']",3,1.2967903999960981,None,,,,,,,,,,,,,,,,,,,,,,,,,,,,,,,,,,,,,,,,,,,,,,,,,,,,,,,,,,,,,,,,,3,2023-12-19_13h34.51.969,watkins1,2023.2.3,99.73768987536029,71,2023-12-19 13h35.00.146042 +0000,
,,,,,,,10,0,10,0,,,,,,,,,,,,,,,,,136.8190059000044,,,,,,,,,,136.81007820001105,137.3010829000268,,,1,1.5582465999759734,,,,,,,,,,,,,,,,,,,,,137.30109369999263,143.30859070003498,Würfel,schwer,"['Würfel', 'schwer']",restudy,3,"['Flasche', 'Uhr', 'Buch', 'Blume', 'Fahrrad', 'Löffel', 'Hut', 'Schlüssel', 'Tasche', 'Brille', 'Würfel', 'Bürste', 'Kerze', 'Rucksack', 'Socke', 'Geige', 'Kiste', 'Eimer', 'Tasse', 'Trommel', 'Vase', 'Hammer', 'Kamera', 'Schere', 'Lampe', 'Jacke', 'Telefon', 'Kette', 'Ring', 'Stift']","['sauber', 'blass', 'schlicht', 'gestreift', 'lang', 'rustikal', 'dick', 'bunt', 'kurz', 'matt', 'schwer']",1,1.5582465999759734,None,,,,,,,,,,,,,,,,,,,,,,,,,,,,,,,,,,,,,,,,,,,,,,,,,,,,,,,,,,,,,,,,,3,2023-12-19_13h34.51.969,watkins1,2023.2.3,99.73768987536029,71,2023-12-19 13h35.00.146042 +0000,
,,,,,,,11,0,11,0,,,,,,,,,,,,,,,,,143.3179296000162,,,,,,,,,,143.3091156000155,143.79994769999757,,,3,1.9799148999736644,,,,,,,,,,,,,,,,,,,,,143.7999577000155,149.80575080000563,Bürste,gepunktet,"['Bürste', 'gepunktet']",test_adj,3,"['Flasche', 'Uhr', 'Buch', 'Blume', 'Fahrrad', 'Löffel', 'Hut', 'Schlüssel', 'Tasche', 'Brille', 'Würfel', 'Bürste', 'Kerze', 'Rucksack', 'Socke', 'Geige', 'Kiste', 'Eimer', 'Tasse', 'Trommel', 'Vase', 'Hammer', 'Kamera', 'Schere', 'Lampe', 'Jacke', 'Telefon', 'Kette', 'Ring', 'Stift']","['sauber', 'blass', 'schlicht', 'gestreift', 'lang', 'rustikal', 'dick', 'bunt', 'kurz', 'matt', 'schwer', 'gepunktet']",3,1.9799148999736644,None,,,,,,,,,,,,,,,,,,,,,,,,,,,,,,,,,,,,,,,,,,,,,,,,,,,,,,,,,,,,,,,,,3,2023-12-19_13h34.51.969,watkins1,2023.2.3,99.73768987536029,71,2023-12-19 13h35.00.146042 +0000,
,,,,,,,12,0,12,0,,,,,,,,,,,,,,,,,149.81519470002968,,,,,,,,,,149.8062712000101,150.29712639999343,,,3,1.8825991000048816,,,,,,,,,,,,,,,,,,,,,150.29713690001518,156.29783420002786,Kerze,zart,"['Kerze', 'zart']",test_adj,3,"['Flasche', 'Uhr', 'Buch', 'Blume', 'Fahrrad', 'Löffel', 'Hut', 'Schlüssel', 'Tasche', 'Brille', 'Würfel', 'Bürste', 'Kerze', 'Rucksack', 'Socke', 'Geige', 'Kiste', 'Eimer', 'Tasse', 'Trommel', 'Vase', 'Hammer', 'Kamera', 'Schere', 'Lampe', 'Jacke', 'Telefon', 'Kette', 'Ring', 'Stift']","['sauber', 'blass', 'schlicht', 'gestreift', 'lang', 'rustikal', 'dick', 'bunt', 'kurz', 'matt', 'schwer', 'gepunktet', 'zart']",3,1.8825991000048816,None,,,,,,,,,,,,,,,,,,,,,,,,,,,,,,,,,,,,,,,,,,,,,,,,,,,,,,,,,,,,,,,,,3,2023-12-19_13h34.51.969,watkins1,2023.2.3,99.73768987536029,71,2023-12-19 13h35.00.146042 +0000,
,,,,,,,13,0,13,0,,,,,,,,,,,,,,,,,156.30723380000563,,,,,,,,,,156.29837209999096,156.78961259999778,,,2,3.230007599981036,,,,,,,,,,,,,,,,,,,,,156.7896232000203,162.7931963999872,Rucksack,strahlend,"['Rucksack', 'strahlend']",restudy,3,"['Flasche', 'Uhr', 'Buch', 'Blume', 'Fahrrad', 'Löffel', 'Hut', 'Schlüssel', 'Tasche', 'Brille', 'Würfel', 'Bürste', 'Kerze', 'Rucksack', 'Socke', 'Geige', 'Kiste', 'Eimer', 'Tasse', 'Trommel', 'Vase', 'Hammer', 'Kamera', 'Schere', 'Lampe', 'Jacke', 'Telefon', 'Kette', 'Ring', 'Stift']","['sauber', 'blass', 'schlicht', 'gestreift', 'lang', 'rustikal', 'dick', 'bunt', 'kurz', 'matt', 'schwer', 'gepunktet', 'zart', 'strahlend']",2,3.230007599981036,None,,,,,,,,,,,,,,,,,,,,,,,,,,,,,,,,,,,,,,,,,,,,,,,,,,,,,,,,,,,,,,,,,3,2023-12-19_13h34.51.969,watkins1,2023.2.3,99.73768987536029,71,2023-12-19 13h35.00.146042 +0000,
,,,,,,,14,0,14,0,,,,,,,,,,,,,,,,,162.80263470002683,,,,,,,,,,162.7937536999816,163.28477269998984,,,2,3.567324400006328,,,,,,,,,,,,,,,,,,,,,163.28478280000854,169.29247550002765,Socke,biegsam,"['Socke', 'biegsam']",test_adj,3,"['Flasche', 'Uhr', 'Buch', 'Blume', 'Fahrrad', 'Löffel', 'Hut', 'Schlüssel', 'Tasche', 'Brille', 'Würfel', 'Bürste', 'Kerze', 'Rucksack', 'Socke', 'Geige', 'Kiste', 'Eimer', 'Tasse', 'Trommel', 'Vase', 'Hammer', 'Kamera', 'Schere', 'Lampe', 'Jacke', 'Telefon', 'Kette', 'Ring', 'Stift']","['sauber', 'blass', 'schlicht', 'gestreift', 'lang', 'rustikal', 'dick', 'bunt', 'kurz', 'matt', 'schwer', 'gepunktet', 'zart', 'strahlend', 'biegsam']",2,3.567324400006328,None,,,,,,,,,,,,,,,,,,,,,,,,,,,,,,,,,,,,,,,,,,,,,,,,,,,,,,,,,,,,,,,,,3,2023-12-19_13h34.51.969,watkins1,2023.2.3,99.73768987536029,71,2023-12-19 13h35.00.146042 +0000,
,,,,,,,15,0,15,0,,,,,,,,,,,,,,,,,169.3019048999995,,,,,,,,,,169.2930032000295,169.78398750000633,,,3,1.499851899978239,,,,,,,,,,,,,,,,,,,,,169.78399680001894,175.79447000002256,Geige,teuer,"['Geige', 'teuer']",restudy,3,"['Flasche', 'Uhr', 'Buch', 'Blume', 'Fahrrad', 'Löffel', 'Hut', 'Schlüssel', 'Tasche', 'Brille', 'Würfel', 'Bürste', 'Kerze', 'Rucksack', 'Socke', 'Geige', 'Kiste', 'Eimer', 'Tasse', 'Trommel', 'Vase', 'Hammer', 'Kamera', 'Schere', 'Lampe', 'Jacke', 'Telefon', 'Kette', 'Ring', 'Stift']","['sauber', 'blass', 'schlicht', 'gestreift', 'lang', 'rustikal', 'dick', 'bunt', 'kurz', 'matt', 'schwer', 'gepunktet', 'zart', 'strahlend', 'biegsam', 'teuer']",3,1.499851899978239,None,,,,,,,,,,,,,,,,,,,,,,,,,,,,,,,,,,,,,,,,,,,,,,,,,,,,,,,,,,,,,,,,,3,2023-12-19_13h34.51.969,watkins1,2023.2.3,99.73768987536029,71,2023-12-19 13h35.00.146042 +0000,
,,,,,,,16,0,16,0,,,,,,,,,,,,,,,,,175.80381670000497,,,,,,,,,,175.79498489998514,176.28598019998753,,,3,3.0145348999649286,,,,,,,,,,,,,,,,,,,,,176.28599080001004,182.2959136000136,Kiste,nachhaltig,"['Kiste', 'nachhaltig']",restudy,3,"['Flasche', 'Uhr', 'Buch', 'Blume', 'Fahrrad', 'Löffel', 'Hut', 'Schlüssel', 'Tasche', 'Brille', 'Würfel', 'Bürste', 'Kerze', 'Rucksack', 'Socke', 'Geige', 'Kiste', 'Eimer', 'Tasse', 'Trommel', 'Vase', 'Hammer', 'Kamera', 'Schere', 'Lampe', 'Jacke', 'Telefon', 'Kette', 'Ring', 'Stift']","['sauber', 'blass', 'schlicht', 'gestreift', 'lang', 'rustikal', 'dick', 'bunt', 'kurz', 'matt', 'schwer', 'gepunktet', 'zart', 'strahlend', 'biegsam', 'teuer', 'nachhaltig']",3,3.0145348999649286,None,,,,,,,,,,,,,,,,,,,,,,,,,,,,,,,,,,,,,,,,,,,,,,,,,,,,,,,,,,,,,,,,,3,2023-12-19_13h34.51.969,watkins1,2023.2.3,99.73768987536029,71,2023-12-19 13h35.00.146042 +0000,
,,,,,,,17,0,17,0,,,,,,,,,,,,,,,,,182.3053513999912,,,,,,,,,,182.29644980002195,182.78767679998418,,,3,1.7602824000059627,,,,,,,,,,,,,,,,,,,,,182.78768649999984,188.7916137999855,Eimer,klobig,"['Eimer', 'klobig']",test_adj,3,"['Flasche', 'Uhr', 'Buch', 'Blume', 'Fahrrad', 'Löffel', 'Hut', 'Schlüssel', 'Tasche', 'Brille', 'Würfel', 'Bürste', 'Kerze', 'Rucksack', 'Socke', 'Geige', 'Kiste', 'Eimer', 'Tasse', 'Trommel', 'Vase', 'Hammer', 'Kamera', 'Schere', 'Lampe', 'Jacke', 'Telefon', 'Kette', 'Ring', 'Stift']","['sauber', 'blass', 'schlicht', 'gestreift', 'lang', 'rustikal', 'dick', 'bunt', 'kurz', 'matt', 'schwer', 'gepunktet', 'zart', 'strahlend', 'biegsam', 'teuer', 'nachhaltig', 'klobig']",3,1.7602824000059627,None,,,,,,,,,,,,,,,,,,,,,,,,,,,,,,,,,,,,,,,,,,,,,,,,,,,,,,,,,,,,,,,,,3,2023-12-19_13h34.51.969,watkins1,2023.2.3,99.73768987536029,71,2023-12-19 13h35.00.146042 +0000,
,,,,,,,18,0,18,0,,,,,,,,,,,,,,,,,188.8010739000165,,,,,,,,,,188.79213820002042,189.28313410002738,,,3,1.953489499981515,,,,,,,,,,,,,,,,,,,,,189.28314469999168,195.29320970003027,Tasse,niedlich,"['Tasse', 'niedlich']",test_adj,3,"['Flasche', 'Uhr', 'Buch', 'Blume', 'Fahrrad', 'Löffel', 'Hut', 'Schlüssel', 'Tasche', 'Brille', 'Würfel', 'Bürste', 'Kerze', 'Rucksack', 'Socke', 'Geige', 'Kiste', 'Eimer', 'Tasse', 'Trommel', 'Vase', 'Hammer', 'Kamera', 'Schere', 'Lampe', 'Jacke', 'Telefon', 'Kette', 'Ring', 'Stift']","['sauber', 'blass', 'schlicht', 'gestreift', 'lang', 'rustikal', 'dick', 'bunt', 'kurz', 'matt', 'schwer', 'gepunktet', 'zart', 'strahlend', 'biegsam', 'teuer', 'nachhaltig', 'klobig', 'niedlich']",3,1.953489499981515,None,,,,,,,,,,,,,,,,,,,,,,,,,,,,,,,,,,,,,,,,,,,,,,,,,,,,,,,,,,,,,,,,,3,2023-12-19_13h34.51.969,watkins1,2023.2.3,99.73768987536029,71,2023-12-19 13h35.00.146042 +0000,
,,,,,,,19,0,19,0,,,,,,,,,,,,,,,,,195.30260960001033,,,,,,,,,,195.29375439998694,195.78519810002763,,,1,2.067142799962312,,,,,,,,,,,,,,,,,,,,,195.7852087999927,201.79133380000712,Trommel,elegant,"['Trommel', 'elegant']",restudy,3,"['Flasche', 'Uhr', 'Buch', 'Blume', 'Fahrrad', 'Löffel', 'Hut', 'Schlüssel', 'Tasche', 'Brille', 'Würfel', 'Bürste', 'Kerze', 'Rucksack', 'Socke', 'Geige', 'Kiste', 'Eimer', 'Tasse', 'Trommel', 'Vase', 'Hammer', 'Kamera', 'Schere', 'Lampe', 'Jacke', 'Telefon', 'Kette', 'Ring', 'Stift']","['sauber', 'blass', 'schlicht', 'gestreift', 'lang', 'rustikal', 'dick', 'bunt', 'kurz', 'matt', 'schwer', 'gepunktet', 'zart', 'strahlend', 'biegsam', 'teuer', 'nachhaltig', 'klobig', 'niedlich', 'elegant']",1,2.067142799962312,None,,,,,,,,,,,,,,,,,,,,,,,,,,,,,,,,,,,,,,,,,,,,,,,,,,,,,,,,,,,,,,,,,3,2023-12-19_13h34.51.969,watkins1,2023.2.3,99.73768987536029,71,2023-12-19 13h35.00.146042 +0000,
,,,,,,,20,0,20,0,,,,,,,,,,,,,,,,,201.8007846000255,,,,,,,,,,201.7918582999846,202.28286590002244,,,1,2.0251547999796458,,,,,,,,,,,,,,,,,,,,,202.2828760999837,208.28343300003326,Vase,lustig,"['Vase', 'lustig']",restudy,3,"['Flasche', 'Uhr', 'Buch', 'Blume', 'Fahrrad', 'Löffel', 'Hut', 'Schlüssel', 'Tasche', 'Brille', 'Würfel', 'Bürste', 'Kerze', 'Rucksack', 'Socke', 'Geige', 'Kiste', 'Eimer', 'Tasse', 'Trommel', 'Vase', 'Hammer', 'Kamera', 'Schere', 'Lampe', 'Jacke', 'Telefon', 'Kette', 'Ring', 'Stift']","['sauber', 'blass', 'schlicht', 'gestreift', 'lang', 'rustikal', 'dick', 'bunt', 'kurz', 'matt', 'schwer', 'gepunktet', 'zart', 'strahlend', 'biegsam', 'teuer', 'nachhaltig', 'klobig', 'niedlich', 'elegant', 'lustig']",1,2.0251547999796458,None,,,,,,,,,,,,,,,,,,,,,,,,,,,,,,,,,,,,,,,,,,,,,,,,,,,,,,,,,,,,,,,,,3,2023-12-19_13h34.51.969,watkins1,2023.2.3,99.73768987536029,71,2023-12-19 13h35.00.146042 +0000,
,,,,,,,21,0,21,0,,,,,,,,,,,,,,,,,208.29285870003514,,,,,,,,,,208.2839604000328,208.77507299999706,,,2,2.093466999998782,,,,,,,,,,,,,,,,,,,,,208.77508310001576,214.7853088999982,Hammer,schmutzig,"['Hammer', 'schmutzig']",restudy,3,"['Flasche', 'Uhr', 'Buch', 'Blume', 'Fahrrad', 'Löffel', 'Hut', 'Schlüssel', 'Tasche', 'Brille', 'Würfel', 'Bürste', 'Kerze', 'Rucksack', 'Socke', 'Geige', 'Kiste', 'Eimer', 'Tasse', 'Trommel', 'Vase', 'Hammer', 'Kamera', 'Schere', 'Lampe', 'Jacke', 'Telefon', 'Kette', 'Ring', 'Stift']","['sauber', 'blass', 'schlicht', 'gestreift', 'lang', 'rustikal', 'dick', 'bunt', 'kurz', 'matt', 'schwer', 'gepunktet', 'zart', 'strahlend', 'biegsam', 'teuer', 'nachhaltig', 'klobig', 'niedlich', 'elegant', 'lustig', 'schmutzig']",2,2.093466999998782,None,,,,,,,,,,,,,,,,,,,,,,,,,,,,,,,,,,,,,,,,,,,,,,,,,,,,,,,,,,,,,,,,,3,2023-12-19_13h34.51.969,watkins1,2023.2.3,99.73768987536029,71,2023-12-19 13h35.00.146042 +0000,
,,,,,,,22,0,22,0,,,,,,,,,,,,,,,,,214.79478170000948,,,,,,,,,,214.78582910000114,215.2767800000147,,,3,2.294627399998717,,,,,,,,,,,,,,,,,,,,,215.27679070003796,221.2869003000087,Kamera,glänzend,"['Kamera', 'glänzend']",test_adj,3,"['Flasche', 'Uhr', 'Buch', 'Blume', 'Fahrrad', 'Löffel', 'Hut', 'Schlüssel', 'Tasche', 'Brille', 'Würfel', 'Bürste', 'Kerze', 'Rucksack', 'Socke', 'Geige', 'Kiste', 'Eimer', 'Tasse', 'Trommel', 'Vase', 'Hammer', 'Kamera', 'Schere', 'Lampe', 'Jacke', 'Telefon', 'Kette', 'Ring', 'Stift']","['sauber', 'blass', 'schlicht', 'gestreift', 'lang', 'rustikal', 'dick', 'bunt', 'kurz', 'matt', 'schwer', 'gepunktet', 'zart', 'strahlend', 'biegsam', 'teuer', 'nachhaltig', 'klobig', 'niedlich', 'elegant', 'lustig', 'schmutzig', 'glänzend']",3,2.294627399998717,None,,,,,,,,,,,,,,,,,,,,,,,,,,,,,,,,,,,,,,,,,,,,,,,,,,,,,,,,,,,,,,,,,3,2023-12-19_13h34.51.969,watkins1,2023.2.3,99.73768987536029,71,2023-12-19 13h35.00.146042 +0000,
,,,,,,,23,0,23,0,,,,,,,,,,,,,,,,,221.2962480999995,,,,,,,,,,221.28742639999837,221.77830350003205,,,2,3.914278700016439,,,,,,,,,,,,,,,,,,,,,221.77831359999254,227.78048409998883,Schere,gut,"['Schere', 'gut']",test_adj,3,"['Flasche', 'Uhr', 'Buch', 'Blume', 'Fahrrad', 'Löffel', 'Hut', 'Schlüssel', 'Tasche', 'Brille', 'Würfel', 'Bürste', 'Kerze', 'Rucksack', 'Socke', 'Geige', 'Kiste', 'Eimer', 'Tasse', 'Trommel', 'Vase', 'Hammer', 'Kamera', 'Schere', 'Lampe', 'Jacke', 'Telefon', 'Kette', 'Ring', 'Stift']","['sauber', 'blass', 'schlicht', 'gestreift', 'lang', 'rustikal', 'dick', 'bunt', 'kurz', 'matt', 'schwer', 'gepunktet', 'zart', 'strahlend', 'biegsam', 'teuer', 'nachhaltig', 'klobig', 'niedlich', 'elegant', 'lustig', 'schmutzig', 'glänzend', 'gut']",2,3.914278700016439,None,,,,,,,,,,,,,,,,,,,,,,,,,,,,,,,,,,,,,,,,,,,,,,,,,,,,,,,,,,,,,,,,,3,2023-12-19_13h34.51.969,watkins1,2023.2.3,99.73768987536029,71,2023-12-19 13h35.00.146042 +0000,
,,,,,,,24,0,24,0,,,,,,,,,,,,,,,,,227.7898987000226,,,,,,,,,,227.781012499996,228.2718585000257,,,3,2.0844702000031248,,,,,,,,,,,,,,,,,,,,,228.27186909999,234.27779319998808,Lampe,dunkel,"['Lampe', 'dunkel']",test_adj,3,"['Flasche', 'Uhr', 'Buch', 'Blume', 'Fahrrad', 'Löffel', 'Hut', 'Schlüssel', 'Tasche', 'Brille', 'Würfel', 'Bürste', 'Kerze', 'Rucksack', 'Socke', 'Geige', 'Kiste', 'Eimer', 'Tasse', 'Trommel', 'Vase', 'Hammer', 'Kamera', 'Schere', 'Lampe', 'Jacke', 'Telefon', 'Kette', 'Ring', 'Stift']","['sauber', 'blass', 'schlicht', 'gestreift', 'lang', 'rustikal', 'dick', 'bunt', 'kurz', 'matt', 'schwer', 'gepunktet', 'zart', 'strahlend', 'biegsam', 'teuer', 'nachhaltig', 'klobig', 'niedlich', 'elegant', 'lustig', 'schmutzig', 'glänzend', 'gut', 'dunkel']",3,2.0844702000031248,None,,,,,,,,,,,,,,,,,,,,,,,,,,,,,,,,,,,,,,,,,,,,,,,,,,,,,,,,,,,,,,,,,3,2023-12-19_13h34.51.969,watkins1,2023.2.3,99.73768987536029,71,2023-12-19 13h35.00.146042 +0000,
,,,,,,,25,0,25,0,,,,,,,,,,,,,,,,,234.28714149998268,,,,,,,,,,234.27831790002529,234.76982510002563,,,1,1.8818474999861792,,,,,,,,,,,,,,,,,,,,,234.7698349999846,240.775999400008,Jacke,hässlich,"['Jacke', 'hässlich']",restudy,3,"['Flasche', 'Uhr', 'Buch', 'Blume', 'Fahrrad', 'Löffel', 'Hut', 'Schlüssel', 'Tasche', 'Brille', 'Würfel', 'Bürste', 'Kerze', 'Rucksack', 'Socke', 'Geige', 'Kiste', 'Eimer', 'Tasse', 'Trommel', 'Vase', 'Hammer', 'Kamera', 'Schere', 'Lampe', 'Jacke', 'Telefon', 'Kette', 'Ring', 'Stift']","['sauber', 'blass', 'schlicht', 'gestreift', 'lang', 'rustikal', 'dick', 'bunt', 'kurz', 'matt', 'schwer', 'gepunktet', 'zart', 'strahlend', 'biegsam', 'teuer', 'nachhaltig', 'klobig', 'niedlich', 'elegant', 'lustig', 'schmutzig', 'glänzend', 'gut', 'dunkel', 'hässlich']",1,1.8818474999861792,None,,,,,,,,,,,,,,,,,,,,,,,,,,,,,,,,,,,,,,,,,,,,,,,,,,,,,,,,,,,,,,,,,3,2023-12-19_13h34.51.969,watkins1,2023.2.3,99.73768987536029,71,2023-12-19 13h35.00.146042 +0000,
,,,,,,,26,0,26,0,,,,,,,,,,,,,,,,,240.7854934000061,,,,,,,,,,240.77652559999842,241.26741129998118,,,1,1.752944000007119,,,,,,,,,,,,,,,,,,,,,241.26742200000444,247.2706219999818,Telefon,hübsch,"['Telefon', 'hübsch']",restudy,3,"['Flasche', 'Uhr', 'Buch', 'Blume', 'Fahrrad', 'Löffel', 'Hut', 'Schlüssel', 'Tasche', 'Brille', 'Würfel', 'Bürste', 'Kerze', 'Rucksack', 'Socke', 'Geige', 'Kiste', 'Eimer', 'Tasse', 'Trommel', 'Vase', 'Hammer', 'Kamera', 'Schere', 'Lampe', 'Jacke', 'Telefon', 'Kette', 'Ring', 'Stift']","['sauber', 'blass', 'schlicht', 'gestreift', 'lang', 'rustikal', 'dick', 'bunt', 'kurz', 'matt', 'schwer', 'gepunktet', 'zart', 'strahlend', 'biegsam', 'teuer', 'nachhaltig', 'klobig', 'niedlich', 'elegant', 'lustig', 'schmutzig', 'glänzend', 'gut', 'dunkel', 'hässlich', 'hübsch']",1,1.752944000007119,None,,,,,,,,,,,,,,,,,,,,,,,,,,,,,,,,,,,,,,,,,,,,,,,,,,,,,,,,,,,,,,,,,3,2023-12-19_13h34.51.969,watkins1,2023.2.3,99.73768987536029,71,2023-12-19 13h35.00.146042 +0000,
,,,,,,,27,0,27,0,,,,,,,,,,,,,,,,,247.2800781999831,,,,,,,,,,247.27114800002892,247.762057200016,,,1,3.9225255000055768,,,,,,,,,,,,,,,,,,,,,247.7620679999818,253.77208550000796,Kette,hohl,"['Kette', 'hohl']",restudy,3,"['Flasche', 'Uhr', 'Buch', 'Blume', 'Fahrrad', 'Löffel', 'Hut', 'Schlüssel', 'Tasche', 'Brille', 'Würfel', 'Bürste', 'Kerze', 'Rucksack', 'Socke', 'Geige', 'Kiste', 'Eimer', 'Tasse', 'Trommel', 'Vase', 'Hammer', 'Kamera', 'Schere', 'Lampe', 'Jacke', 'Telefon', 'Kette', 'Ring', 'Stift']","['sauber', 'blass', 'schlicht', 'gestreift', 'lang', 'rustikal', 'dick', 'bunt', 'kurz', 'matt', 'schwer', 'gepunktet', 'zart', 'strahlend', 'biegsam', 'teuer', 'nachhaltig', 'klobig', 'niedlich', 'elegant', 'lustig', 'schmutzig', 'glänzend', 'gut', 'dunkel', 'hässlich', 'hübsch', 'hohl']",1,3.9225255000055768,None,,,,,,,,,,,,,,,,,,,,,,,,,,,,,,,,,,,,,,,,,,,,,,,,,,,,,,,,,,,,,,,,,3,2023-12-19_13h34.51.969,watkins1,2023.2.3,99.73768987536029,71,2023-12-19 13h35.00.146042 +0000,
,,,,,,,28,0,28,0,,,,,,,,,,,,,,,,,253.7815413000062,,,,,,,,,,253.77259940002114,254.26357569999527,,,1,1.1963527000043541,,,,,,,,,,,,,,,,,,,,,254.26358560001245,260.2699733999907,Ring,kaputt,"['Ring', 'kaputt']",test_adj,3,"['Flasche', 'Uhr', 'Buch', 'Blume', 'Fahrrad', 'Löffel', 'Hut', 'Schlüssel', 'Tasche', 'Brille', 'Würfel', 'Bürste', 'Kerze', 'Rucksack', 'Socke', 'Geige', 'Kiste', 'Eimer', 'Tasse', 'Trommel', 'Vase', 'Hammer', 'Kamera', 'Schere', 'Lampe', 'Jacke', 'Telefon', 'Kette', 'Ring', 'Stift']","['sauber', 'blass', 'schlicht', 'gestreift', 'lang', 'rustikal', 'dick', 'bunt', 'kurz', 'matt', 'schwer', 'gepunktet', 'zart', 'strahlend', 'biegsam', 'teuer', 'nachhaltig', 'klobig', 'niedlich', 'elegant', 'lustig', 'schmutzig', 'glänzend', 'gut', 'dunkel', 'hässlich', 'hübsch', 'hohl', 'kaputt']",1,1.1963527000043541,None,,,,,,,,,,,,,,,,,,,,,,,,,,,,,,,,,,,,,,,,,,,,,,,,,,,,,,,,,,,,,,,,,3,2023-12-19_13h34.51.969,watkins1,2023.2.3,99.73768987536029,71,2023-12-19 13h35.00.146042 +0000,
,,,,,,,29,0,29,0,,,,,,,,,,,,,,,,,260.27942069998244,,,,,,,,,,260.2705207000254,260.7613875999814,,,1,1.8181741000153124,,,,,,,,,,,,,,,,,,,,,260.76139749999857,266.7623557000188,Stift,groß,"['Stift', 'groß']",test_adj,3,"['Flasche', 'Uhr', 'Buch', 'Blume', 'Fahrrad', 'Löffel', 'Hut', 'Schlüssel', 'Tasche', 'Brille', 'Würfel', 'Bürste', 'Kerze', 'Rucksack', 'Socke', 'Geige', 'Kiste', 'Eimer', 'Tasse', 'Trommel', 'Vase', 'Hammer', 'Kamera', 'Schere', 'Lampe', 'Jacke', 'Telefon', 'Kette', 'Ring', 'Stift']","['sauber', 'blass', 'schlicht', 'gestreift', 'lang', 'rustikal', 'dick', 'bunt', 'kurz', 'matt', 'schwer', 'gepunktet', 'zart', 'strahlend', 'biegsam', 'teuer', 'nachhaltig', 'klobig', 'niedlich', 'elegant', 'lustig', 'schmutzig', 'glänzend', 'gut', 'dunkel', 'hässlich', 'hübsch', 'hohl', 'kaputt', 'groß']",1,1.8181741000153124,None,,,,,,,,,,,,,,,,,,,,,,,,,,,,,,,,,,,,,,,,,,,,,,,,,,,,,,,,,,,,,,,,,3,2023-12-19_13h34.51.969,watkins1,2023.2.3,99.73768987536029,71,2023-12-19 13h35.00.146042 +0000,
,,,,,,,,,,,0,0,0,0,,,,,,,,,,,,,266.7717846999876,,,,,,,,,,266.7632108000107,267.25380890001543,,,[],[],,,,,,,,,,,,None,None,,,,,,,,,,Würfel,schwer,"['Würfel', 'schwer']",restudy,3,,,,,,266.7631353000179,266.76318330003414,"['Würfel', 'Brille', 'Hut', 'Ring', 'Schere', 'Socke', 'Trommel', 'Vase', 'Blume', 'Rucksack', 'Hammer', 'Kette', 'Lampe', 'Eimer', 'Tasse', 'Jacke', 'Kamera', 'Uhr', 'Fahrrad', 'Schlüssel', 'Tasche', 'Telefon', 'Kiste', 'Buch', 'Löffel', 'Flasche', 'Geige', 'Stift', 'Kerze', 'Bürste']",267.253819799982,267.25652190000983,None,267.2567073000246,273.2593484999961,1,1.7791405000025406,None,273.25975650001783,273.26279800001066,None,273.26297219999833,273.2641995000304,273.2642126000137,273.2654302000301,,,,,,,,,,,,,,,,,,,,,,,,,,,,,,,,,,,,,,,,,,,,,,,3,2023-12-19_13h34.51.969,watkins1,2023.2.3,99.73768987536029,71,2023-12-19 13h35.00.146042 +0000,
,,,,,,,,,,,1,0,1,0,,,,,,,,,,,,,273.26885250001214,,,,,,,,,,273.2657305999892,273.7609408000135,,,[],[],,,,,,,,,,,matt,None,None,,,,,,,,,,Brille,matt,"['Brille', 'matt']",test_adj,3,,,,,,273.26566259999527,273.26570270000957,"['Würfel', 'Brille', 'Hut', 'Ring', 'Schere', 'Socke', 'Trommel', 'Vase', 'Blume', 'Rucksack', 'Hammer', 'Kette', 'Lampe', 'Eimer', 'Tasse', 'Jacke', 'Kamera', 'Uhr', 'Fahrrad', 'Schlüssel', 'Tasche', 'Telefon', 'Kiste', 'Buch', 'Löffel', 'Flasche', 'Geige', 'Stift', 'Kerze', 'Bürste']",273.7609518999816,273.7637563000317,None,273.76388129999395,273.7653172999853,None,,,273.76542750000954,273.7668689999846,None,273.7669800000149,279.76988139998866,279.76989570003934,279.77105879999,0,,,,,,,,,,,,,,,,,,,,,,,,,,,,,,,,,,,,,,,,,,,,,,3,2023-12-19_13h34.51.969,watkins1,2023.2.3,99.73768987536029,71,2023-12-19 13h35.00.146042 +0000,
,,,,,,,,,,,2,0,2,0,,,,,,,,,,,,,279.7796853000182,,,,,,,,,,279.77135130000534,280.261796900013,,,[],[],,,,,,,,,,,,None,None,,,,,,,,,,Hut,dick,"['Hut', 'dick']",restudy,3,,,,,,279.77128480002284,279.7713235000265,"['Würfel', 'Brille', 'Hut', 'Ring', 'Schere', 'Socke', 'Trommel', 'Vase', 'Blume', 'Rucksack', 'Hammer', 'Kette', 'Lampe', 'Eimer', 'Tasse', 'Jacke', 'Kamera', 'Uhr', 'Fahrrad', 'Schlüssel', 'Tasche', 'Telefon', 'Kiste', 'Buch', 'Löffel', 'Flasche', 'Geige', 'Stift', 'Kerze', 'Bürste']",280.26180760003626,280.26420520001557,None,280.26433069998166,286.267528700002,2,5.052616799948737,None,286.2678301000269,286.2701787999831,None,286.27029080002103,286.27159890002804,286.271610900003,286.27263349998975,,,,,,,,,,,,,,,,,,,,,,,,,,,,,,,,,,,,,,,,,,,,,,,3,2023-12-19_13h34.51.969,watkins1,2023.2.3,99.73768987536029,71,2023-12-19 13h35.00.146042 +0000,
,,,,,,,,,,,3,0,3,0,,,,,,,,,,,,,286.2770155000035,,,,,,,,,,286.2729169999948,286.76914099999703,,,[],[],,,,,,,,,,,kaputt,None,None,,,,,,,,,,Ring,kaputt,"['Ring', 'kaputt']",test_adj,3,,,,,,286.2728536000359,286.2728905000258,"['Würfel', 'Brille', 'Hut', 'Ring', 'Schere', 'Socke', 'Trommel', 'Vase', 'Blume', 'Rucksack', 'Hammer', 'Kette', 'Lampe', 'Eimer', 'Tasse', 'Jacke', 'Kamera', 'Uhr', 'Fahrrad', 'Schlüssel', 'Tasche', 'Telefon', 'Kiste', 'Buch', 'Löffel', 'Flasche', 'Geige', 'Stift', 'Kerze', 'Bürste']",286.76915230002487,286.77155280002626,None,286.77167859999463,286.7729702999932,None,,,286.77308030001586,286.7743638000102,None,286.77447360003134,292.7760418999824,292.77605700003915,292.77736980002373,0,,,,,,,,,,,,,,,,,,,,,,,,,,,,,,,,,,,,,,,,,,,,,,3,2023-12-19_13h34.51.969,watkins1,2023.2.3,99.73768987536029,71,2023-12-19 13h35.00.146042 +0000,
,,,,,,,,,,,4,0,4,0,,,,,,,,,,,,,292.7858409000328,,,,,,,,,,292.77765539998654,293.26793060003547,,,[],[],,,,,,,,,,,gut,None,None,,,,,,,,,,Schere,gut,"['Schere', 'gut']",test_adj,3,,,,,,292.77758940000786,292.77762720000464,"['Würfel', 'Brille', 'Hut', 'Ring', 'Schere', 'Socke', 'Trommel', 'Vase', 'Blume', 'Rucksack', 'Hammer', 'Kette', 'Lampe', 'Eimer', 'Tasse', 'Jacke', 'Kamera', 'Uhr', 'Fahrrad', 'Schlüssel', 'Tasche', 'Telefon', 'Kiste', 'Buch', 'Löffel', 'Flasche', 'Geige', 'Stift', 'Kerze', 'Bürste']",293.2679417000036,293.2706247000024,None,293.2707493000198,293.27338150003925,None,,,293.27349270001287,293.2760135999997,None,293.2761233000201,299.2811141000129,299.281129400013,299.2822639000369,0,,,,,,,,,,,,,,,,,,,,,,,,,,,,,,,,,,,,,,,,,,,,,,3,2023-12-19_13h34.51.969,watkins1,2023.2.3,99.73768987536029,71,2023-12-19 13h35.00.146042 +0000,
,,,,,,,,,,,5,0,5,0,,,,,,,,,,,,,299.29094299999997,,,,,,,,,,299.2825545000378,299.7731305999914,,,[],[],,,,,,,,,,,biegsam,None,None,,,,,,,,,,Socke,biegsam,"['Socke', 'biegsam']",test_adj,3,,,,,,299.28248530003475,299.28252410003915,"['Würfel', 'Brille', 'Hut', 'Ring', 'Schere', 'Socke', 'Trommel', 'Vase', 'Blume', 'Rucksack', 'Hammer', 'Kette', 'Lampe', 'Eimer', 'Tasse', 'Jacke', 'Kamera', 'Uhr', 'Fahrrad', 'Schlüssel', 'Tasche', 'Telefon', 'Kiste', 'Buch', 'Löffel', 'Flasche', 'Geige', 'Stift', 'Kerze', 'Bürste']",299.77314110001316,299.7757891000365,None,299.775913999998,299.7782809000346,None,,,299.7783914000029,299.7807448999956,None,299.7808552000206,305.78561950003495,305.7856342000305,305.7869477000204,0,,,,,,,,,,,,,,,,,,,,,,,,,,,,,,,,,,,,,,,,,,,,,,3,2023-12-19_13h34.51.969,watkins1,2023.2.3,99.73768987536029,71,2023-12-19 13h35.00.146042 +0000,
,,,,,,,,,,,6,0,6,0,,,,,,,,,,,,,305.79537870001514,,,,,,,,,,305.7872379000182,306.27747580001596,,,[],[],,,,,,,,,,,,None,None,,,,,,,,,,Trommel,elegant,"['Trommel', 'elegant']",restudy,3,,,,,,305.7871702000266,305.7872095000348,"['Würfel', 'Brille', 'Hut', 'Ring', 'Schere', 'Socke', 'Trommel', 'Vase', 'Blume', 'Rucksack', 'Hammer', 'Kette', 'Lampe', 'Eimer', 'Tasse', 'Jacke', 'Kamera', 'Uhr', 'Fahrrad', 'Schlüssel', 'Tasche', 'Telefon', 'Kiste', 'Buch', 'Löffel', 'Flasche', 'Geige', 'Stift', 'Kerze', 'Bürste']",306.27748699998483,306.2802285000216,None,306.2803539999877,312.2879481000127,1,1.9803950000205077,None,312.288241900038,312.29096200002823,None,312.29107680002926,312.2926286000293,312.2926436000271,312.2938402,,,,,,,,,,,,,,,,,,,,,,,,,,,,,,,,,,,,,,,,,,,,,,,3,2023-12-19_13h34.51.969,watkins1,2023.2.3,99.73768987536029,71,2023-12-19 13h35.00.146042 +0000,
,,,,,,,,,,,7,0,7,0,,,,,,,,,,,,,312.29737889999524,,,,,,,,,,312.2941242000088,312.78946960001485,,,[],[],,,,,,,,,,,,None,None,,,,,,,,,,Vase,lustig,"['Vase', 'lustig']",restudy,3,,,,,,312.2940590000362,312.2940970000345,"['Würfel', 'Brille', 'Hut', 'Ring', 'Schere', 'Socke', 'Trommel', 'Vase', 'Blume', 'Rucksack', 'Hammer', 'Kette', 'Lampe', 'Eimer', 'Tasse', 'Jacke', 'Kamera', 'Uhr', 'Fahrrad', 'Schlüssel', 'Tasche', 'Telefon', 'Kiste', 'Buch', 'Löffel', 'Flasche', 'Geige', 'Stift', 'Kerze', 'Bürste']",312.7894796000328,312.7920935000293,None,312.7922198000015,318.7971028999891,1,1.652383100008592,None,318.79739830002654,318.7999307999853,None,318.8000431000255,318.801072000002,318.8010840000352,318.8022468999843,,,,,,,,,,,,,,,,,,,,,,,,,,,,,,,,,,,,,,,,,,,,,,,3,2023-12-19_13h34.51.969,watkins1,2023.2.3,99.73768987536029,71,2023-12-19 13h35.00.146042 +0000,
,,,,,,,,,,,8,0,8,0,,,,,,,,,,,,,318.80642780003836,,,,,,,,,,318.8025274000247,319.298557800008,,,[],[],,,,,,,,,,,gestreift,None,None,,,,,,,,,,Blume,gestreift,"['Blume', 'gestreift']",test_adj,3,,,,,,318.80246310000075,318.8025004999945,"['Würfel', 'Brille', 'Hut', 'Ring', 'Schere', 'Socke', 'Trommel', 'Vase', 'Blume', 'Rucksack', 'Hammer', 'Kette', 'Lampe', 'Eimer', 'Tasse', 'Jacke', 'Kamera', 'Uhr', 'Fahrrad', 'Schlüssel', 'Tasche', 'Telefon', 'Kiste', 'Buch', 'Löffel', 'Flasche', 'Geige', 'Stift', 'Kerze', 'Bürste']",319.2985684000305,319.30141730001196,None,319.3015422000317,319.3029486000305,None,,,319.3030569999828,319.3044448000146,None,319.3045535000274,325.3066594999982,325.30667389999144,325.30815950001124,0,,,,,,,,,,,,,,,,,,,,,,,,,,,,,,,,,,,,,,,,,,,,,,3,2023-12-19_13h34.51.969,watkins1,2023.2.3,99.73768987536029,71,2023-12-19 13h35.00.146042 +0000,
,,,,,,,,,,,9,0,9,0,,,,,,,,,,,,,325.31646370003,,,,,,,,,,325.3084486000007,325.7985906000249,,,[],[],,,,,,,,,,,,None,None,,,,,,,,,,Rucksack,strahlend,"['Rucksack', 'strahlend']",restudy,3,,,,,,325.3083811000106,325.3084196000127,"['Würfel', 'Brille', 'Hut', 'Ring', 'Schere', 'Socke', 'Trommel', 'Vase', 'Blume', 'Rucksack', 'Hammer', 'Kette', 'Lampe', 'Eimer', 'Tasse', 'Jacke', 'Kamera', 'Uhr', 'Fahrrad', 'Schlüssel', 'Tasche', 'Telefon', 'Kiste', 'Buch', 'Löffel', 'Flasche', 'Geige', 'Stift', 'Kerze', 'Bürste']",325.79860010003904,325.80136580002727,None,325.80148880003253,331.80209130002186,1,3.267079700017348,None,331.8023848999874,331.8052772000083,None,331.80539009999484,331.80690860003233,331.8069205000065,331.80815019999864,,,,,,,,,,,,,,,,,,,,,,,,,,,,,,,,,,,,,,,,,,,,,,,3,2023-12-19_13h34.51.969,watkins1,2023.2.3,99.73768987536029,71,2023-12-19 13h35.00.146042 +0000,
,,,,,,,,,,,10,0,10,0,,,,,,,,,,,,,331.8115098000271,,,,,,,,,,331.8084317999892,332.30357799999183,,,[],[],,,,,,,,,,,,None,None,,,,,,,,,,Hammer,schmutzig,"['Hammer', 'schmutzig']",restudy,3,,,,,,331.8083676000242,331.80840550002176,"['Würfel', 'Brille', 'Hut', 'Ring', 'Schere', 'Socke', 'Trommel', 'Vase', 'Blume', 'Rucksack', 'Hammer', 'Kette', 'Lampe', 'Eimer', 'Tasse', 'Jacke', 'Kamera', 'Uhr', 'Fahrrad', 'Schlüssel', 'Tasche', 'Telefon', 'Kiste', 'Buch', 'Löffel', 'Flasche', 'Geige', 'Stift', 'Kerze', 'Bürste']",332.3035889000166,332.306330899999,None,332.3064538000035,338.3137514999835,2,1.8902556999819353,None,338.3140485000331,338.3168965000077,None,338.31701180001255,338.3182034000056,338.31821569998283,338.31945499998983,,,,,,,,,,,,,,,,,,,,,,,,,,,,,,,,,,,,,,,,,,,,,,,3,2023-12-19_13h34.51.969,watkins1,2023.2.3,99.73768987536029,71,2023-12-19 13h35.00.146042 +0000,
,,,,,,,,,,,11,0,11,0,,,,,,,,,,,,,338.32313690002775,,,,,,,,,,338.31974220002303,338.8153585999971,,,[],[],,,,,,,,,,,,None,None,,,,,,,,,,Kette,hohl,"['Kette', 'hohl']",restudy,3,,,,,,338.31967769999756,338.31971549999435,"['Würfel', 'Brille', 'Hut', 'Ring', 'Schere', 'Socke', 'Trommel', 'Vase', 'Blume', 'Rucksack', 'Hammer', 'Kette', 'Lampe', 'Eimer', 'Tasse', 'Jacke', 'Kamera', 'Uhr', 'Fahrrad', 'Schlüssel', 'Tasche', 'Telefon', 'Kiste', 'Buch', 'Löffel', 'Flasche', 'Geige', 'Stift', 'Kerze', 'Bürste']",338.81536920001963,338.8180980000179,None,338.81822419998934,344.82586700003594,1,1.546540500014089,None,344.82615620002616,344.828731400019,None,344.8288429999957,344.82997190003516,344.82998360000784,344.83100790000753,,,,,,,,,,,,,,,,,,,,,,,,,,,,,,,,,,,,,,,,,,,,,,,3,2023-12-19_13h34.51.969,watkins1,2023.2.3,99.73768987536029,71,2023-12-19 13h35.00.146042 +0000,
,,,,,,,,,,,12,0,12,0,,,,,,,,,,,,,344.83529110002564,,,,,,,,,,344.8313036999898,345.3273428999819,,,[],[],,,,,,,,,,,teuer,None,None,,,,,,,,,,Lampe,dunkel,"['Lampe', 'dunkel']",test_adj,3,,,,,,344.83123760001035,344.8312765000155,"['Würfel', 'Brille', 'Hut', 'Ring', 'Schere', 'Socke', 'Trommel', 'Vase', 'Blume', 'Rucksack', 'Hammer', 'Kette', 'Lampe', 'Eimer', 'Tasse', 'Jacke', 'Kamera', 'Uhr', 'Fahrrad', 'Schlüssel', 'Tasche', 'Telefon', 'Kiste', 'Buch', 'Löffel', 'Flasche', 'Geige', 'Stift', 'Kerze', 'Bürste']",345.32735390000744,345.32986380002694,None,345.3299900999991,345.3313977000071,None,,,345.33150720002595,345.3329248999944,None,345.3330331000034,351.33514019998256,351.33515450003324,351.3365545999841,0,,,,,,,,,,,,,,,,,,,,,,,,,,,,,,,,,,,,,,,,,,,,,,3,2023-12-19_13h34.51.969,watkins1,2023.2.3,99.73768987536029,71,2023-12-19 13h35.00.146042 +0000,
,,,,,,,,,,,13,0,13,0,,,,,,,,,,,,,351.3449130000081,,,,,,,,,,351.33685170003446,351.8268629999948,,,[],[],,,,,,,,,,,rund,None,None,,,,,,,,,,Eimer,klobig,"['Eimer', 'klobig']",test_adj,3,,,,,,351.3367739000241,351.336822799989,"['Würfel', 'Brille', 'Hut', 'Ring', 'Schere', 'Socke', 'Trommel', 'Vase', 'Blume', 'Rucksack', 'Hammer', 'Kette', 'Lampe', 'Eimer', 'Tasse', 'Jacke', 'Kamera', 'Uhr', 'Fahrrad', 'Schlüssel', 'Tasche', 'Telefon', 'Kiste', 'Buch', 'Löffel', 'Flasche', 'Geige', 'Stift', 'Kerze', 'Bürste']",351.8268735000165,351.82953470002394,None,351.8296587000368,351.8321670999867,None,,,351.83227820001775,351.83477329998277,None,351.8348818999948,357.84008940000786,357.8401038000011,357.8414189000032,0,,,,,,,,,,,,,,,,,,,,,,,,,,,,,,,,,,,,,,,,,,,,,,3,2023-12-19_13h34.51.969,watkins1,2023.2.3,99.73768987536029,71,2023-12-19 13h35.00.146042 +0000,
,,,,,,,,,,,14,0,14,0,,,,,,,,,,,,,357.849887999997,,,,,,,,,,357.8417056000326,358.33182259998284,,,[],[],,,,,,,,,,,lustu,None,None,,,,,,,,,,Tasse,niedlich,"['Tasse', 'niedlich']",test_adj,3,,,,,,357.8416390999919,357.841677599994,"['Würfel', 'Brille', 'Hut', 'Ring', 'Schere', 'Socke', 'Trommel', 'Vase', 'Blume', 'Rucksack', 'Hammer', 'Kette', 'Lampe', 'Eimer', 'Tasse', 'Jacke', 'Kamera', 'Uhr', 'Fahrrad', 'Schlüssel', 'Tasche', 'Telefon', 'Kiste', 'Buch', 'Löffel', 'Flasche', 'Geige', 'Stift', 'Kerze', 'Bürste']",358.33183370000916,358.33462770003825,None,358.3347662999877,358.3372831000015,None,,,358.33739250001963,358.3398833000101,None,358.33999190002214,364.34485210001003,364.3448661000002,364.34652550000465,0,,,,,,,,,,,,,,,,,,,,,,,,,,,,,,,,,,,,,,,,,,,,,,3,2023-12-19_13h34.51.969,watkins1,2023.2.3,99.73768987536029,71,2023-12-19 13h35.00.146042 +0000,
,,,,,,,,,,,15,0,15,0,,,,,,,,,,,,,364.3546209000051,,,,,,,,,,364.34684740001103,364.83672540000407,,,[],[],,,,,,,,,,,,None,None,,,,,,,,,,Jacke,hässlich,"['Jacke', 'hässlich']",restudy,3,,,,,,364.3467460999964,364.34681890002685,"['Würfel', 'Brille', 'Hut', 'Ring', 'Schere', 'Socke', 'Trommel', 'Vase', 'Blume', 'Rucksack', 'Hammer', 'Kette', 'Lampe', 'Eimer', 'Tasse', 'Jacke', 'Kamera', 'Uhr', 'Fahrrad', 'Schlüssel', 'Tasche', 'Telefon', 'Kiste', 'Buch', 'Löffel', 'Flasche', 'Geige', 'Stift', 'Kerze', 'Bürste']",364.836735400022,364.8394585000351,None,364.8395821999875,370.84449580003275,1,1.8851071000099182,None,370.84479180001654,370.84758679999504,None,370.84769830002915,370.8491501000244,370.84916220000014,370.85036189999664,,,,,,,,,,,,,,,,,,,,,,,,,,,,,,,,,,,,,,,,,,,,,,,3,2023-12-19_13h34.51.969,watkins1,2023.2.3,99.73768987536029,71,2023-12-19 13h35.00.146042 +0000,
,,,,,,,,,,,16,0,16,0,,,,,,,,,,,,,370.85393879999174,,,,,,,,,,370.85064339998644,371.34587760001887,,,[],[],,,,,,,,,,,glänzend,None,None,,,,,,,,,,Kamera,glänzend,"['Kamera', 'glänzend']",test_adj,3,,,,,,370.8505781000131,370.8506168000167,"['Würfel', 'Brille', 'Hut', 'Ring', 'Schere', 'Socke', 'Trommel', 'Vase', 'Blume', 'Rucksack', 'Hammer', 'Kette', 'Lampe', 'Eimer', 'Tasse', 'Jacke', 'Kamera', 'Uhr', 'Fahrrad', 'Schlüssel', 'Tasche', 'Telefon', 'Kiste', 'Buch', 'Löffel', 'Flasche', 'Geige', 'Stift', 'Kerze', 'Bürste']",371.3458888999885,371.3486323999823,None,371.34875980002107,371.3501847999869,None,,,371.35029410000425,371.3517628000118,None,371.3518739999854,377.3540521999821,377.3540665000328,377.35542209999403,0,,,,,,,,,,,,,,,,,,,,,,,,,,,,,,,,,,,,,,,,,,,,,,3,2023-12-19_13h34.51.969,watkins1,2023.2.3,99.73768987536029,71,2023-12-19 13h35.00.146042 +0000,
,,,,,,,,,,,17,0,17,0,,,,,,,,,,,,,377.3638817000319,,,,,,,,,,377.35571360000176,377.8459654999897,,,[],[],,,,,,,,,,,,None,None,,,,,,,,,,Uhr,blass,"['Uhr', 'blass']",restudy,3,,,,,,377.3556460000109,377.3556848000153,"['Würfel', 'Brille', 'Hut', 'Ring', 'Schere', 'Socke', 'Trommel', 'Vase', 'Blume', 'Rucksack', 'Hammer', 'Kette', 'Lampe', 'Eimer', 'Tasse', 'Jacke', 'Kamera', 'Uhr', 'Fahrrad', 'Schlüssel', 'Tasche', 'Telefon', 'Kiste', 'Buch', 'Löffel', 'Flasche', 'Geige', 'Stift', 'Kerze', 'Bürste']",377.84597650001524,377.8485745000071,None,377.84869960002834,383.85424050001893,1,2.4035254000336863,None,383.85453070001677,383.85700339998584,None,383.857115300023,383.858412600006,383.8584244000376,383.85955160000594,,,,,,,,,,,,,,,,,,,,,,,,,,,,,,,,,,,,,,,,,,,,,,,3,2023-12-19_13h34.51.969,watkins1,2023.2.3,99.73768987536029,71,2023-12-19 13h35.00.146042 +0000,
,,,,,,,,,,,18,0,18,0,,,,,,,,,,,,,383.8636539999861,,,,,,,,,,383.85983020003187,384.3560244999826,,,[],[],,,,,,,,,,,,None,None,,,,,,,,,,Fahrrad,lang,"['Fahrrad', 'lang']",restudy,3,,,,,,383.85976760002086,383.8598045000108,"['Würfel', 'Brille', 'Hut', 'Ring', 'Schere', 'Socke', 'Trommel', 'Vase', 'Blume', 'Rucksack', 'Hammer', 'Kette', 'Lampe', 'Eimer', 'Tasse', 'Jacke', 'Kamera', 'Uhr', 'Fahrrad', 'Schlüssel', 'Tasche', 'Telefon', 'Kiste', 'Buch', 'Löffel', 'Flasche', 'Geige', 'Stift', 'Kerze', 'Bürste']",384.3560354000074,384.35869600001024,None,384.35882269998547,390.35952290002024,1,1.0779799000010826,None,390.3598203000147,390.36227490002057,None,390.3623854999896,390.36353810003493,390.3635501000099,390.36454680003226,,,,,,,,,,,,,,,,,,,,,,,,,,,,,,,,,,,,,,,,,,,,,,,3,2023-12-19_13h34.51.969,watkins1,2023.2.3,99.73768987536029,71,2023-12-19 13h35.00.146042 +0000,
,,,,,,,,,,,19,0,19,0,,,,,,,,,,,,,390.3689116000314,,,,,,,,,,390.3648223000346,390.86112910002703,,,[],[],,,,,,,,,,,gut,None,None,,,,,,,,,,Schlüssel,bunt,"['Schlüssel', 'bunt']",test_adj,3,,,,,,390.3647596000228,390.36479650001274,"['Würfel', 'Brille', 'Hut', 'Ring', 'Schere', 'Socke', 'Trommel', 'Vase', 'Blume', 'Rucksack', 'Hammer', 'Kette', 'Lampe', 'Eimer', 'Tasse', 'Jacke', 'Kamera', 'Uhr', 'Fahrrad', 'Schlüssel', 'Tasche', 'Telefon', 'Kiste', 'Buch', 'Löffel', 'Flasche', 'Geige', 'Stift', 'Kerze', 'Bürste']",390.8611392999883,390.86370749998605,None,390.86382959998446,390.8653190000332,None,,,390.86542859999463,390.86691989999963,None,390.86702960002003,396.86916200001724,396.8691768000135,396.8707025999902,0,,,,,,,,,,,,,,,,,,,,,,,,,,,,,,,,,,,,,,,,,,,,,,3,2023-12-19_13h34.51.969,watkins1,2023.2.3,99.73768987536029,71,2023-12-19 13h35.00.146042 +0000,
,,,,,,,,,,,20,0,20,0,,,,,,,,,,,,,396.8789769000141,,,,,,,,,,396.8709919999819,397.36099840002134,,,[],[],,,,,,,,,,,teuer,None,None,,,,,,,,,,Tasche,kurz,"['Tasche', 'kurz']",test_adj,3,,,,,,396.87092519999715,396.87096319999546,"['Würfel', 'Brille', 'Hut', 'Ring', 'Schere', 'Socke', 'Trommel', 'Vase', 'Blume', 'Rucksack', 'Hammer', 'Kette', 'Lampe', 'Eimer', 'Tasse', 'Jacke', 'Kamera', 'Uhr', 'Fahrrad', 'Schlüssel', 'Tasche', 'Telefon', 'Kiste', 'Buch', 'Löffel', 'Flasche', 'Geige', 'Stift', 'Kerze', 'Bürste']",397.3610090999864,397.3635158999823,None,397.3636398999952,397.3659844000358,None,,,397.36609369999496,397.3684319999884,None,397.3685419000103,403.37322090001544,403.37323670001933,403.3743875999935,0,,,,,,,,,,,,,,,,,,,,,,,,,,,,,,,,,,,,,,,,,,,,,,3,2023-12-19_13h34.51.969,watkins1,2023.2.3,99.73768987536029,71,2023-12-19 13h35.00.146042 +0000,
,,,,,,,,,,,21,0,21,0,,,,,,,,,,,,,403.38301809999393,,,,,,,,,,403.3746717000031,403.8651244000066,,,[],[],,,,,,,,,,,,None,None,,,,,,,,,,Telefon,hübsch,"['Telefon', 'hübsch']",restudy,3,,,,,,403.374606700032,403.3746437000227,"['Würfel', 'Brille', 'Hut', 'Ring', 'Schere', 'Socke', 'Trommel', 'Vase', 'Blume', 'Rucksack', 'Hammer', 'Kette', 'Lampe', 'Eimer', 'Tasse', 'Jacke', 'Kamera', 'Uhr', 'Fahrrad', 'Schlüssel', 'Tasche', 'Telefon', 'Kiste', 'Buch', 'Löffel', 'Flasche', 'Geige', 'Stift', 'Kerze', 'Bürste']",403.8651351000299,403.8676732000313,None,403.8677952000289,409.87593440001365,1,1.5128664000076242,None,409.87623220001115,409.8790160000208,None,409.8791316000279,409.88060440000845,409.8806163999834,409.8817753000185,,,,,,,,,,,,,,,,,,,,,,,,,,,,,,,,,,,,,,,,,,,,,,,3,2023-12-19_13h34.51.969,watkins1,2023.2.3,99.73768987536029,71,2023-12-19 13h35.00.146042 +0000,
,,,,,,,,,,,22,0,22,0,,,,,,,,,,,,,409.88543299998855,,,,,,,,,,409.8820578000159,410.3772665000288,,,[],[],,,,,,,,,,,,None,None,,,,,,,,,,Kiste,nachhaltig,"['Kiste', 'nachhaltig']",restudy,3,,,,,,409.8819906000281,409.8820283000241,"['Würfel', 'Brille', 'Hut', 'Ring', 'Schere', 'Socke', 'Trommel', 'Vase', 'Blume', 'Rucksack', 'Hammer', 'Kette', 'Lampe', 'Eimer', 'Tasse', 'Jacke', 'Kamera', 'Uhr', 'Fahrrad', 'Schlüssel', 'Tasche', 'Telefon', 'Kiste', 'Buch', 'Löffel', 'Flasche', 'Geige', 'Stift', 'Kerze', 'Bürste']",410.37727739999536,410.37996019999264,None,410.38008720002836,416.38547780003864,3,1.6003506999695674,None,416.3857741000247,416.38848940003663,None,416.3886044000392,416.38975319999736,416.3897652000305,416.39102069998626,,,,,,,,,,,,,,,,,,,,,,,,,,,,,,,,,,,,,,,,,,,,,,,3,2023-12-19_13h34.51.969,watkins1,2023.2.3,99.73768987536029,71,2023-12-19 13h35.00.146042 +0000,
,,,,,,,,,,,23,0,23,0,,,,,,,,,,,,,416.39484620001167,,,,,,,,,,416.39130740001565,416.8869131000247,,,[],[],,,,,,,,,,,,None,None,,,,,,,,,,Buch,schlicht,"['Buch', 'schlicht']",restudy,3,,,,,,416.3912389000179,416.39127710001776,"['Würfel', 'Brille', 'Hut', 'Ring', 'Schere', 'Socke', 'Trommel', 'Vase', 'Blume', 'Rucksack', 'Hammer', 'Kette', 'Lampe', 'Eimer', 'Tasse', 'Jacke', 'Kamera', 'Uhr', 'Fahrrad', 'Schlüssel', 'Tasche', 'Telefon', 'Kiste', 'Buch', 'Löffel', 'Flasche', 'Geige', 'Stift', 'Kerze', 'Bürste']",416.88692429999355,416.8895752999815,None,416.88970250001876,422.8920959000243,3,2.3390447000274435,None,422.8923884999822,422.8949951999821,None,422.8951067000162,422.8961357999942,422.8961483000312,422.8973447000026,,,,,,,,,,,,,,,,,,,,,,,,,,,,,,,,,,,,,,,,,,,,,,,3,2023-12-19_13h34.51.969,watkins1,2023.2.3,99.73768987536029,71,2023-12-19 13h35.00.146042 +0000,
,,,,,,,,,,,24,0,24,0,,,,,,,,,,,,,422.9015199000132,,,,,,,,,,422.8976261999924,423.39398049999727,,,[],[],,,,,,,,,,,,None,None,,,,,,,,,,Löffel,rustikal,"['Löffel', 'rustikal']",restudy,3,,,,,,422.89756240003044,422.8975998000242,"['Würfel', 'Brille', 'Hut', 'Ring', 'Schere', 'Socke', 'Trommel', 'Vase', 'Blume', 'Rucksack', 'Hammer', 'Kette', 'Lampe', 'Eimer', 'Tasse', 'Jacke', 'Kamera', 'Uhr', 'Fahrrad', 'Schlüssel', 'Tasche', 'Telefon', 'Kiste', 'Buch', 'Löffel', 'Flasche', 'Geige', 'Stift', 'Kerze', 'Bürste']",423.39399170002434,423.39668760000495,None,423.39682419999735,429.4016118000145,2,1.679862699995283,None,429.4019088000059,429.4046938000247,None,429.4048071000143,429.4059763000114,429.40598799998406,429.40719470003387,,,,,,,,,,,,,,,,,,,,,,,,,,,,,,,,,,,,,,,,,,,,,,,3,2023-12-19_13h34.51.969,watkins1,2023.2.3,99.73768987536029,71,2023-12-19 13h35.00.146042 +0000,
,,,,,,,,,,,25,0,25,0,,,,,,,,,,,,,429.4110512000043,,,,,,,,,,429.40747750003356,429.90316039999016,,,[],[],,,,,,,,,,,sauber,None,None,,,,,,,,,,Flasche,sauber,"['Flasche', 'sauber']",test_adj,3,,,,,,429.4074125000043,429.4074503000011,"['Würfel', 'Brille', 'Hut', 'Ring', 'Schere', 'Socke', 'Trommel', 'Vase', 'Blume', 'Rucksack', 'Hammer', 'Kette', 'Lampe', 'Eimer', 'Tasse', 'Jacke', 'Kamera', 'Uhr', 'Fahrrad', 'Schlüssel', 'Tasche', 'Telefon', 'Kiste', 'Buch', 'Löffel', 'Flasche', 'Geige', 'Stift', 'Kerze', 'Bürste']",429.90317080001114,429.9058850000147,None,429.9060081000207,429.9075587000116,None,,,429.907670399989,429.90912100003334,None,429.9092294999864,435.9115141000366,435.9115288000321,435.9128185000154,0,,,,,,,,,,,,,,,,,,,,,,,,,,,,,,,,,,,,,,,,,,,,,,3,2023-12-19_13h34.51.969,watkins1,2023.2.3,99.73768987536029,71,2023-12-19 13h35.00.146042 +0000,
,,,,,,,,,,,26,0,26,0,,,,,,,,,,,,,435.92128449998563,,,,,,,,,,435.9131096000201,436.40356710000196,,,[],[],,,,,,,,,,,,None,None,,,,,,,,,,Geige,teuer,"['Geige', 'teuer']",restudy,3,,,,,,435.91304270003457,435.91308130003745,"['Würfel', 'Brille', 'Hut', 'Ring', 'Schere', 'Socke', 'Trommel', 'Vase', 'Blume', 'Rucksack', 'Hammer', 'Kette', 'Lampe', 'Eimer', 'Tasse', 'Jacke', 'Kamera', 'Uhr', 'Fahrrad', 'Schlüssel', 'Tasche', 'Telefon', 'Kiste', 'Buch', 'Löffel', 'Flasche', 'Geige', 'Stift', 'Kerze', 'Bürste']",436.4035787000321,436.40626690001227,None,436.4063948999974,442.41671100002714,3,1.5178843999747187,None,442.4170071000117,442.41964259999804,None,442.41975490003824,442.4212194000138,442.42123119998723,442.42236700002104,,,,,,,,,,,,,,,,,,,,,,,,,,,,,,,,,,,,,,,,,,,,,,,3,2023-12-19_13h34.51.969,watkins1,2023.2.3,99.73768987536029,71,2023-12-19 13h35.00.146042 +0000,
,,,,,,,,,,,27,0,27,0,,,,,,,,,,,,,442.4261329000001,,,,,,,,,,442.4226496000192,442.9181888999883,,,[],[],,,,,,,,,,,schwer,None,None,,,,,,,,,,Stift,groß,"['Stift', 'groß']",test_adj,3,,,,,,442.42258559999755,442.42262289999053,"['Würfel', 'Brille', 'Hut', 'Ring', 'Schere', 'Socke', 'Trommel', 'Vase', 'Blume', 'Rucksack', 'Hammer', 'Kette', 'Lampe', 'Eimer', 'Tasse', 'Jacke', 'Kamera', 'Uhr', 'Fahrrad', 'Schlüssel', 'Tasche', 'Telefon', 'Kiste', 'Buch', 'Löffel', 'Flasche', 'Geige', 'Stift', 'Kerze', 'Bürste']",442.91819860000396,442.92076730000554,None,442.9208908000146,442.92228990001604,None,,,442.92240089998813,442.9237901000306,None,442.92389909998747,448.92600410000887,448.9260187000036,448.92719090002356,0,,,,,,,,,,,,,,,,,,,,,,,,,,,,,,,,,,,,,,,,,,,,,,3,2023-12-19_13h34.51.969,watkins1,2023.2.3,99.73768987536029,71,2023-12-19 13h35.00.146042 +0000,
,,,,,,,,,,,28,0,28,0,,,,,,,,,,,,,448.9357896000147,,,,,,,,,,448.92748230003053,449.41787860001205,,,[],[],,,,,,,,,,,gkatt,None,None,,,,,,,,,,Kerze,zart,"['Kerze', 'zart']",test_adj,3,,,,,,448.927414899983,448.92745280003874,"['Würfel', 'Brille', 'Hut', 'Ring', 'Schere', 'Socke', 'Trommel', 'Vase', 'Blume', 'Rucksack', 'Hammer', 'Kette', 'Lampe', 'Eimer', 'Tasse', 'Jacke', 'Kamera', 'Uhr', 'Fahrrad', 'Schlüssel', 'Tasche', 'Telefon', 'Kiste', 'Buch', 'Löffel', 'Flasche', 'Geige', 'Stift', 'Kerze', 'Bürste']",449.41788900003303,449.42040350002935,None,449.4205290999962,449.4228709000163,None,,,449.4229812999838,449.4254441999947,None,449.4255800000392,455.43056260002777,455.43057790002786,455.43176990002394,0,,,,,,,,,,,,,,,,,,,,,,,,,,,,,,,,,,,,,,,,,,,,,,3,2023-12-19_13h34.51.969,watkins1,2023.2.3,99.73768987536029,71,2023-12-19 13h35.00.146042 +0000,
,,,,,,,,,,,29,0,29,0,,,,,,,,,,,,,455.4403983000084,,,,,,,,,,455.4320590000134,455.9224095999962,,,[],[],,,,,,,,,,,gepunktet,None,None,,,,,,,,,,Bürste,gepunktet,"['Bürste', 'gepunktet']",test_adj,3,,,,,,455.4319899000111,455.43202890001703,"['Würfel', 'Brille', 'Hut', 'Ring', 'Schere', 'Socke', 'Trommel', 'Vase', 'Blume', 'Rucksack', 'Hammer', 'Kette', 'Lampe', 'Eimer', 'Tasse', 'Jacke', 'Kamera', 'Uhr', 'Fahrrad', 'Schlüssel', 'Tasche', 'Telefon', 'Kiste', 'Buch', 'Löffel', 'Flasche', 'Geige', 'Stift', 'Kerze', 'Bürste']",455.92241970001487,455.92494569998235,None,455.9250675000367,455.9276078999974,None,,,455.92772079998394,455.9300947000156,None,455.9302036000299,461.9349577000248,461.9349722000188,461.93633870000485,0,,,,,,,,,,,,,,,,,,,,,,,,,,,,,,,,,,,,,,,,,,,,,,3,2023-12-19_13h34.51.969,watkins1,2023.2.3,99.73768987536029,71,2023-12-19 13h35.00.146042 +0000,
,,,,,,,,,,,,,,,,,,,,,,,,,,,,,,,,,,,,,,,,,,,,,,,,,,,,,,,,,,,,,,,,,,,,,3,,,,,,,,,,,,,,,,,,,,,,,,,,,,,,,,,,,,,,,,,,,,,,,,,,,,,,,,,,,,,,,,,,,,,,3,2023-12-19_13h34.51.969,watkins1,2023.2.3,99.73768987536029,71,2023-12-19 13h35.00.146042 +0000,
(7 x 6) + 9 = 48 ,Incorrect,button_incorrect,,,,,,,,,,,,,0,0,0,9,,,,,,,,,486.9009541000123,,,,,,,,485.86715040000854,486.8705512000015,,,,,['button_incorrect'],[4.193478900007904],,,,,,,,,,,,,,,,,,,,,,,,,,distractorTask,3,,,,,,,,,,,,,,,,,,,,,,,,,486.88876280002296,486.9009541000123,491.0880479000043,[-0.3194444444444444],[-0.40555555555555556],[1],[0],[0],[4.193478900007904],['button_incorrect'],491.0887427999987,492.0915575000108,,,,,,,,,,,,,,,,,,,,,,,,,,,,,,,,,,3,2023-12-19_13h34.51.969,watkins1,2023.2.3,99.73768987536029,71,2023-12-19 13h35.00.146042 +0000,
(40 : 5) + 8 = 15 ,Incorrect,button_incorrect,,,,,,,,,,,,,0,1,1,7,,,,,,,,,492.10164880001685,,,,,,,,,,,,,,['button_incorrect'],[2.6381910999771208],,,,,,,,,,,,,,,,,,,,,,,,,,distractorTask,3,,,,,,,,,,,,,,,,,,,,,,,,,492.0917498000199,492.10164880001685,494.7330531000043,[-0.32037037037037036],[-0.37777777777777777],[1],[0],[0],[2.6381910999771208],['button_incorrect'],494.7334334999905,495.73668530001305,,,,,,,,,,,,,,,,,,,,,,,,,,,,,,,,,,3,2023-12-19_13h34.51.969,watkins1,2023.2.3,99.73768987536029,71,2023-12-19 13h35.00.146042 +0000,
(6 x 3) + 10 = 27 ,Incorrect,button_incorrect,,,,,,,,,,,,,0,2,2,8,,,,,,,,,495.7466585999937,,,,,,,,,,,,,,['button_incorrect'],[1.9656043000286445],,,,,,,,,,,,,,,,,,,,,,,,,,distractorTask,3,,,,,,,,,,,,,,,,,,,,,,,,,495.7368774000206,495.7466585999937,497.70505679998314,[-0.2916666666666667],[-0.387037037037037],[1],[0],[0],[1.9656043000286445],['button_incorrect'],497.7054386000382,498.70886369998334,,,,,,,,,,,,,,,,,,,,,,,,,,,,,,,,,,3,2023-12-19_13h34.51.969,watkins1,2023.2.3,99.73768987536029,71,2023-12-19 13h35.00.146042 +0000,
(25 : 5) + 5 = 9 ,Incorrect,button_incorrect,,,,,,,,,,,,,0,3,3,6,,,,,,,,,498.7188396999845,,,,,,,,,,,,,,['button_incorrect'],[2.2276304999832064],,,,,,,,,,,,,,,,,,,,,,,,,,distractorTask,3,,,,,,,,,,,,,,,,,,,,,,,,,498.70906010002363,498.7188396999845,500.9383967000176,[-0.30833333333333335],[-0.3962962962962963],[1],[0],[0],[2.2276304999832064],['button_incorrect'],500.93877770000836,501.9418970000115,,,,,,,,,,,,,,,,,,,,,,,,,,,,,,,,,,3,2023-12-19_13h34.51.969,watkins1,2023.2.3,99.73768987536029,71,2023-12-19 13h35.00.146042 +0000,
(9 x 5) - 9 = 36 ,Correct,button_correct,,,,,,,,,,,,,0,4,4,4,,,,,,,,,501.9519866000046,,,,,,,,,,,,,,['button_correct'],[2.7296956999925897],,,,,,,,,,,,,,,,,,,,,,,,,,distractorTask,3,,,,,,,,,,,,,,,,,,,,,,,,,501.94209279998904,501.9519866000046,504.6740234000026,[0.325],[-0.4046296296296296],[1],[0],[0],[2.7296956999925897],['button_correct'],504.6744103000383,505.6776439999812,,,,,,,,,,,,,,,,,,,,,,,,,,,,,,,,,,3,2023-12-19_13h34.51.969,watkins1,2023.2.3,99.73768987536029,71,2023-12-19 13h35.00.146042 +0000,
(28 : 7) - 3 = 1 ,Correct,button_correct,,,,,,,,,,,,,0,5,5,0,,,,,,,,,505.68768360000104,,,,,,,,,,,,,,['button_correct'],[2.0268084999988787],,,,,,,,,,,,,,,,,,,,,,,,,,distractorTask,3,,,,,,,,,,,,,,,,,,,,,,,,,505.6778389000101,505.68768360000104,507.70635280001443,[0.40555555555555556],[-0.40925925925925927],[1],[0],[0],[2.0268084999988787],['button_correct'],507.7067320999922,508.71008689998416,,,,,,,,,,,,,,,,,,,,,,,,,,,,,,,,,,3,2023-12-19_13h34.51.969,watkins1,2023.2.3,99.73768987536029,71,2023-12-19 13h35.00.146042 +0000,
(2 x 5) + 3 = 13 ,Correct,button_correct,,,,,,,,,,,,,0,6,6,2,,,,,,,,,508.7200770000345,,,,,,,,,,,,,,['button_correct'],[2.10720880003646],,,,,,,,,,,,,,,,,,,,,,,,,,distractorTask,3,,,,,,,,,,,,,,,,,,,,,,,,,508.71027530002175,508.7200770000345,510.81918380002026,[0.37777777777777777],[-0.4046296296296296],[1],[0],[0],[2.10720880003646],['button_correct'],510.81956440000795,511.8230604000273,,,,,,,,,,,,,,,,,,,,,,,,,,,,,,,,,,3,2023-12-19_13h34.51.969,watkins1,2023.2.3,99.73768987536029,71,2023-12-19 13h35.00.146042 +0000,
(4 : 2) + 4 = 6 ,Correct,button_correct,,,,,,,,,,,,,0,7,7,1,,,,,,,,,511.8330772999907,,,,,,,,,,,,,,['button_incorrect'],[1.9868185000377707],,,,,,,,,,,,,,,,,,,,,,,,,,distractorTask,3,,,,,,,,,,,,,,,,,,,,,,,,,511.82325100002345,511.8330772999907,513.8117555000354,[-0.32592592592592595],[-0.40370370370370373],[1],[0],[0],[1.9868185000377707],['button_incorrect'],513.8121315999888,514.8155144000193,,,,,,,,,,,,,,,,,,,,,,,,,,,,,,,,,,3,2023-12-19_13h34.51.969,watkins1,2023.2.3,99.73768987536029,71,2023-12-19 13h35.00.146042 +0000,
(80 : 10) + 9 = 17 ,Correct,button_correct,,,,,,,,,,,,,0,8,8,3,,,,,,,,,514.8254843000323,,,,,,,,,,,,,,['button_correct'],[2.3684968999587],,,,,,,,,,,,,,,,,,,,,,,,,,distractorTask,3,,,,,,,,,,,,,,,,,,,,,,,,,514.8157134000212,514.8254843000323,517.186065100017,[0.37777777777777777],[-0.4009259259259259],[1],[0],[0],[2.3684968999587],['button_correct'],517.1864672999945,518.1896716000047,,,,,,,,,,,,,,,,,,,,,,,,,,,,,,,,,,3,2023-12-19_13h34.51.969,watkins1,2023.2.3,99.73768987536029,71,2023-12-19 13h35.00.146042 +0000,
(54 : 6) - 10 = 0 ,Incorrect,button_incorrect,,,,,,,,,,,,,0,9,9,5,,,,,,,,,518.1996314999997,,,,,,,,,,,,,,['button_correct'],[2.749906099983491],,,,,,,,,,,,,,,,,,,,,,,,,,distractorTask,3,,,,,,,,,,,,,,,,,,,,,,,,,518.1898677999852,518.1996314999997,520.9415228000144,[0.325],[-0.40185185185185185],[1],[0],[0],[2.749906099983491],['button_correct'],520.9419014999876,521.9452947999816,,,,,,,,,,,,,,,,,,,,,,,,,,,,,,,,,,3,2023-12-19_13h34.51.969,watkins1,2023.2.3,99.73768987536029,71,2023-12-19 13h35.00.146042 +0000,
,,,,,,,,,,,,,,,,,,,,,,,,,,,,,,,,,,,,,,,,,,,,,,,,,,,,,,,,,,,,,,,,,,,,,3,,,,,,,,,,,,,,,,,,,,,,,,,,,,,,,,,,,,,,,,,,,,,,,,,,,,,,,,,,,,,,,,,,,,,,3,2023-12-19_13h34.51.969,watkins1,2023.2.3,99.73768987536029,71,2023-12-19 13h35.00.146042 +0000,
,,,,,,,,,,,,,,,,,,,0,0,0,0,,,,,537.1561445000116,,,,,,,,,,,,,,Kerze,8.501126300019678,,,,,,,,,,,,3.9055628000060096,6.0752414999878965,,,,,,,,,,,,,freeRecallSub,3,,,,,,,,,,,,,,,,,,,,,,,,,,,,,,,,,,,,,537.1476059000124,537.1561445000116,537.1561445000116,545.6623374000192,return,8.501126300019678,None,Kerze,[-0.03796296296296296],[0.05],[1],[0],[0],[2.067404300032649],[],,,,,,,,,,,,,,,,,,,3,2023-12-19_13h34.51.969,watkins1,2023.2.3,99.73768987536029,71,2023-12-19 13h35.00.146042 +0000,
,,,,,,,,,,,,,,,,,,,1,0,1,0,,,,,545.6746633999865,,,,,,,,,,,,,,Hut,1.6626477000536397,,,,,,,,,,,,0.6250136999879032,None,,,,,,,,,,,,,freeRecallSub,3,,,,,,,,,,,,,,,,,,,,,,,,,,,,,,,,,,,,,545.6641278000316,545.6746633999865,545.6746633999865,547.3437601000187,return,1.6626477000536397,None,Hut,[],[],[],[],[],[],[],,,,,,,,,,,,,,,,,,,3,2023-12-19_13h34.51.969,watkins1,2023.2.3,99.73768987536029,71,2023-12-19 13h35.00.146042 +0000,
,,,,,,,,,,,,,,,,,,,2,0,2,0,,,,,547.3547646999941,,,,,,,,,,,,,,Stift,1.606562800006941,,,,,,,,,,,,0.2616851999773644,None,,,,,,,,,,,,,freeRecallSub,3,,,,,,,,,,,,,,,,,,,,,,,,,,,,,,,,,,,,,547.3452497000108,547.3547646999941,547.3547646999941,548.9624619000242,return,1.606562800006941,None,Stift,[],[],[],[],[],[],[],,,,,,,,,,,,,,,,,,,3,2023-12-19_13h34.51.969,watkins1,2023.2.3,99.73768987536029,71,2023-12-19 13h35.00.146042 +0000,
,,,,,,,,,,,,,,,,,,,3,0,3,0,,,,,548.9732344000367,,,,,,,,,,,,,,Hund,2.004047799971886,,,,,,,,,,,,1.0743889000150375,None,,,,,,,,,,,,,freeRecallSub,3,,,,,,,,,,,,,,,,,,,,,,,,,,,,,,,,,,,,,548.963722000015,548.9732344000367,548.9732344000367,550.9825213000295,return,2.004047799971886,None,Hund,[],[],[],[],[],[],[],,,,,,,,,,,,,,,,,,,3,2023-12-19_13h34.51.969,watkins1,2023.2.3,99.73768987536029,71,2023-12-19 13h35.00.146042 +0000,
,,,,,,,,,,,,,,,,,,,4,0,4,0,,,,,550.9937971000327,,,,,,,,,,,,,,Katze,1.3273467000108212,,,,,,,,,,,,0.20185140002286062,None,,,,,,,,,,,,,freeRecallSub,3,,,,,,,,,,,,,,,,,,,,,,,,,,,,,,,,,,,,,550.9837796000065,550.9937971000327,550.9937971000327,552.3303315000376,return,1.3273467000108212,None,Katze,[],[],[],[],[],[],[],,,,,,,,,,,,,,,,,,,3,2023-12-19_13h34.51.969,watkins1,2023.2.3,99.73768987536029,71,2023-12-19 13h35.00.146042 +0000,
,,,,,,,,,,,,,,,,,,,5,0,5,0,,,,,552.3412653999985,,,,,,,,,,,,,,Flasche,5.147986700001638,,,,,,,,,,,,0.5224039999884553,None,,,,,,,,,,,,,freeRecallSub,3,,,,,,,,,,,,,,,,,,,,,,,,,,,,,,,,,,,,,552.3315533000277,552.3412653999985,552.3412653999985,557.4933089999831,return,5.147986700001638,None,Flasche,[],[],[],[],[],[],[],,,,,,,,,,,,,,,,,,,3,2023-12-19_13h34.51.969,watkins1,2023.2.3,99.73768987536029,71,2023-12-19 13h35.00.146042 +0000,
,,,,,,,,,,,,,,,,,,,6,0,6,0,,,,,557.5055460000294,,,,,,,,,,,,,,Rucksack ,2.607745999994222,,,,,,,,,,,,0.3844369999715127,None,,,,,,,,,,,,,freeRecallSub,3,,,,,,,,,,,,,,,,,,,,,,,,,,,,,,,,,,,,,557.4945865999907,557.5055460000294,557.5055460000294,560.1188133999822,return,2.607745999994222,None,Rucksack ,[],[],[],[],[],[],[],,,,,,,,,,,,,,,,,,,3,2023-12-19_13h34.51.969,watkins1,2023.2.3,99.73768987536029,71,2023-12-19 13h35.00.146042 +0000,
,,,,,,,,,,,,,,,,,,,7,0,7,0,,,,,560.130609099986,,,,,,,,,,,,,,Trommel ,9.702548099972773,,,,,,,,,,,,7.82470729999477,None,,,,,,,,,,,,,freeRecallSub,3,,,,,,,,,,,,,,,,,,,,,,,,,,,,,,,,,,,,,560.1200627000071,560.130609099986,560.130609099986,569.8426005000365,return,9.702548099972773,None,Trommel ,[],[],[],[],[],[],[],,,,,,,,,,,,,,,,,,,3,2023-12-19_13h34.51.969,watkins1,2023.2.3,99.73768987536029,71,2023-12-19 13h35.00.146042 +0000,
,,,,,,,,,,,,,,,,,,,8,0,8,0,,,,,569.8548415999976,,,,,,,,,,,,,,Geige,1.3704054999980144,,,,,,,,,,,,0.3640867000212893,None,,,,,,,,,,,,,freeRecallSub,3,,,,,,,,,,,,,,,,,,,,,,,,,,,,,,,,,,,,,569.8438685000292,569.8548415999976,569.8548415999976,571.2320857000304,return,1.3704054999980144,None,Geige,[],[],[],[],[],[],[],,,,,,,,,,,,,,,,,,,3,2023-12-19_13h34.51.969,watkins1,2023.2.3,99.73768987536029,71,2023-12-19 13h35.00.146042 +0000,
,,,,,,,,,,,,,,,,,,,9,0,9,0,,,,,571.2443948999862,,,,,,,,,,,,,,Bürste ,10.572820900008082,,,,,,,,,,,,6.12784540001303,None,,,,,,,,,,,,,freeRecallSub,3,,,,,,,,,,,,,,,,,,,,,,,,,,,,,,,,,,,,,571.2333369000116,571.2443948999862,571.2443948999862,581.8193785999902,return,10.572820900008082,None,Bürste ,[],[],[],[],[],[],[],,,,,,,,,,,,,,,,,,,3,2023-12-19_13h34.51.969,watkins1,2023.2.3,99.73768987536029,71,2023-12-19 13h35.00.146042 +0000,
,,,,,,,,,,,,,,,,,,,10,0,10,0,,,,,581.8320601999876,,,,,,,,,,,,,,Uhr,4.377147499995772,,,,,,,,,,,,3.6090179999591783,None,,,,,,,,,,,,,freeRecallSub,3,,,,,,,,,,,,,,,,,,,,,,,,,,,,,,,,,,,,,581.8206447000266,581.8320601999876,581.8320601999876,586.2128277000156,return,4.377147499995772,None,Uhr,[],[],[],[],[],[],[],,,,,,,,,,,,,,,,,,,3,2023-12-19_13h34.51.969,watkins1,2023.2.3,99.73768987536029,71,2023-12-19 13h35.00.146042 +0000,
,,,,,,,,,,,,,,,,,,,11,0,11,0,,,,,586.2255096000154,,,,,,,,,,,,,,Buch,4.039733699988574,,,,,,,,,,,,0.3250802999828011,2.6447987999999896,,,,,,,,,,,,,freeRecallSub,3,,,,,,,,,,,,,,,,,,,,,,,,,,,,,,,,,,,,,586.2140931999893,586.2255096000154,586.2255096000154,590.2748024000321,return,4.039733699988574,None,Buch,[],[],[],[],[],[],[],,,,,,,,,,,,,,,,,,,3,2023-12-19_13h34.51.969,watkins1,2023.2.3,99.73768987536029,71,2023-12-19 13h35.00.146042 +0000,
,,,,,,,,,,,,,,,,,,,12,0,12,0,,,,,590.287171700038,,,,,,,,,,,,,,Ring,6.2420414999942295,,,,,,,,,,,,4.390994500019588,None,,,,,,,,,,,,,freeRecallSub,3,,,,,,,,,,,,,,,,,,,,,,,,,,,,,,,,,,,,,590.2760556000285,590.287171700038,590.287171700038,596.5347502999939,return,6.2420414999942295,None,Ring,[],[],[],[],[],[],[],,,,,,,,,,,,,,,,,,,3,2023-12-19_13h34.51.969,watkins1,2023.2.3,99.73768987536029,71,2023-12-19 13h35.00.146042 +0000,
,,,,,,,,,,,,,,,,,,,13,0,13,0,,,,,596.5476277000271,,,,,,,,,,,,,,Kette,18.9976059999899,,,,,,,,,,,,17.465914500004146,None,,,,,,,,,,,,,freeRecallSub,3,,,,,,,,,,,,,,,,,,,,,,,,,,,,,,,,,,,,,596.5360254999832,596.5476277000271,596.5476277000271,615.5485857999884,return,18.9976059999899,None,Kette,[],[],[],[],[],[],[],,,,,,,,,,,,,,,,,,,3,2023-12-19_13h34.51.969,watkins1,2023.2.3,99.73768987536029,71,2023-12-19 13h35.00.146042 +0000,
,,,,,,,,,,,,,,,,,,,14,0,14,0,,,,,615.5614286999917,,,,,,,,,,,,,,Vase,64.75179819995537,,,,,,,,,,,,63.35728639998706,None,,,,,,,,,,,,,freeRecallSub,3,,,,,,,,,,,,,,,,,,,,,,,,,,,,,,,,,,,,,615.5498368000262,615.5614286999917,615.5614286999917,680.3229508000077,return,64.75179819995537,None,Vase,[],[],[],[],[],[],[],,,,,,,,,,,,,,,,,,,3,2023-12-19_13h34.51.969,watkins1,2023.2.3,99.73768987536029,71,2023-12-19 13h35.00.146042 +0000,
,,,,,,,,,,,,,,,,,,,15,0,15,0,,,,,680.3364876999985,,,,,,,,,,,,,,Jacke,8.46470730000874,,,,,,,,,,,,7.315281299990602,None,,,,,,,,,,,,,freeRecallSub,3,,,,,,,,,,,,,,,,,,,,,,,,,,,,,,,,,,,,,680.3242077000323,680.3364876999985,680.3364876999985,688.804583900026,return,8.46470730000874,None,Jacke,[],[],[],[],[],[],[],,,,,,,,,,,,,,,,,,,3,2023-12-19_13h34.51.969,watkins1,2023.2.3,99.73768987536029,71,2023-12-19 13h35.00.146042 +0000,
,,,,,,,,,,,,,,,,,,,16,0,16,0,,,,,688.8181834000279,,,,,,,,,,,,,,,[],,,,,,,,,,,,None,None,,,,,,,,,,,,,freeRecallSub,3,,,,,,,,,,,,,,,,,,,,,,,,,,,,,,,,,,,,,688.8058361000149,688.8181834000279,688.8181834000279,745.0661575000267,None,,,,"[-0.053703703703703705, 0.1648148148148148]","[0.062037037037037036, -0.4027777777777778]","[1, 1]","[0, 0]","[0, 0]","[14.670803399989381, 56.25435220001964]","['button_continue', 'continue_text']",,,,,,,,,,,,,,,,,,,3,2023-12-19_13h34.51.969,watkins1,2023.2.3,99.73768987536029,71,2023-12-19 13h35.00.146042 +0000,
,,,,,,,,,,,,,,,,,,,,,,,,,,,,,,,,,,,,,,,,,,,,,,,,,,,,,,,,,,,,,,,,,,,,,3,,,,,,,,,,,,,,,,,,,,,,,,,,,,,,,,,,,,,,,,,,,,,,,,,,,,,,,,,,,,,,,,,,,,,,3,2023-12-19_13h34.51.969,watkins1,2023.2.3,99.73768987536029,71,2023-12-19 13h35.00.146042 +0000,
,,,,,,,,,,,,,,,,,,,,,,,0,0,0,0,753.74372269999,,,,,,,,,,758.2267913999967,758.7252048000228,,,,4.47349010000471,,,,,,,,,,,,None,None,,,,,,,,,,Flasche,,,cuedRecallAdj,3,,,,,,,,,,,,,,,,,,,,,,,,0,,,,,,,,,,,,,,,,,,,,,,,,,,,,753.7346628000378,753.74372269999,753.74372269999,758.2235275999992,sauber,return,4.47349010000471,None,758.223973300017,758.2330719000311,758.2330719000311,758.2266401000088,,None,,,,,3,2023-12-19_13h34.51.969,watkins1,2023.2.3,99.73768987536029,71,2023-12-19 13h35.00.146042 +0000,
,,,,,,,,,,,,,,,,,,,,,,,1,0,1,0,758.735114399984,,,,,,,,,,761.780973099987,762.2797432999942,,,,3.041957200039178,,,,,,,,,,,,None,None,,,,,,,,,,Fahrrad,,,cuedRecallAdj,3,,,,,,,,,,,,,,,,,,,,,,,,0,,,,,,,,,,,,,,,,,,,,,,,,,,,,758.7254561000154,758.735114399984,758.735114399984,761.7780658000265,lang,return,3.041957200039178,None,761.7783359999885,761.7876170999953,761.7876170999953,761.7808711000253,,None,,,,,3,2023-12-19_13h34.51.969,watkins1,2023.2.3,99.73768987536029,71,2023-12-19 13h35.00.146042 +0000,
,,,,,,,,,,,,,,,,,,,,,,,2,0,2,0,762.2896428999957,,,,,,,,,,775.1179372000042,775.6166883999831,,,,12.815455300034955,,,,,,,,,,,,None,None,,,,,,,,,,Rucksack,,,cuedRecallAdj,3,,,,,,,,,,,,,,,,,,,,,,,,0,,,,,,,,,,,,,,,,,,,,,,,,,,,,762.2799902000115,762.2896428999957,762.2896428999957,775.114875600033,elegant,return,12.815455300034955,None,775.1151374999899,775.124650600017,775.124650600017,775.1178354999865,,None,,,,,3,2023-12-19_13h34.51.969,watkins1,2023.2.3,99.73768987536029,71,2023-12-19 13h35.00.146042 +0000,
,,,,,,,,,,,,,,,,,,,,,,,3,0,3,0,775.6266398000298,,,,,,,,,,781.2531052000122,781.7520279000164,,,,5.6223544999957085,,,,,,,,,,,,None,None,,,,,,,,,,Socke,,,cuedRecallAdj,3,,,,,,,,,,,,,,,,,,,,,,,,0,,,,,,,,,,,,,,,,,,,,,,,,,,,,775.6169343999936,775.6266398000298,775.6266398000298,781.2500853000092,biegsam,return,5.6223544999957085,None,781.2503517000005,781.2595938000013,781.2595938000013,781.2530038999976,,None,,,,,3,2023-12-19_13h34.51.969,watkins1,2023.2.3,99.73768987536029,71,2023-12-19 13h35.00.146042 +0000,
,,,,,,,,,,,,,,,,,,,,,,,4,0,4,0,781.7619736000197,,,,,,,,,,786.1130734999897,786.6119092000299,,,,4.343181499978527,,,,,,,,,,,,None,None,,,,,,,,,,Uhr,,,cuedRecallAdj,3,,,,,,,,,,,,,,,,,,,,,,,,0,,,,,,,,,,,,,,,,,,,,,,,,,,,,781.752266000025,781.7619736000197,781.7619736000197,786.1102490000194,blass,return,4.343181499978527,None,786.1105167000205,786.1197906000307,786.1197906000307,786.1129706000211,,None,,,,,3,2023-12-19_13h34.51.969,watkins1,2023.2.3,99.73768987536029,71,2023-12-19 13h35.00.146042 +0000,
,,,,,,,,,,,,,,,,,,,,,,,5,0,5,0,786.6218528000172,,,,,,,,,,789.9086529000197,790.4073436000035,,,,3.2751387000316754,,,,,,,,,,,,None,None,,,,,,,,,,Ring,,,cuedRecallAdj,3,,,,,,,,,,,,,,,,,,,,,,,,0,,,,,,,,,,,,,,,,,,,,,,,,,,,,786.6121530000237,786.6218528000172,786.6218528000172,789.9055738000316,kaputt,return,3.2751387000316754,None,789.9058434999897,789.9152566000121,789.9152566000121,789.9085478000343,,None,,,,,3,2023-12-19_13h34.51.969,watkins1,2023.2.3,99.73768987536029,71,2023-12-19 13h35.00.146042 +0000,
,,,,,,,,,,,,,,,,,,,,,,,6,0,6,0,790.4172610000242,,,,,,,,,,797.4010177000309,797.8994052000344,,,,6.975773299986031,,,,,,,,,,,,None,None,,,,,,,,,,Schlüssel,,,cuedRecallAdj,3,,,,,,,,,,,,,,,,,,,,,,,,0,,,,,,,,,,,,,,,,,,,,,,,,,,,,790.4075898000156,790.4172610000242,790.4172610000242,797.3978116000071,locker,return,6.975773299986031,None,797.3980793000082,797.407300300023,797.407300300023,797.4009158000117,,None,,,,,3,2023-12-19_13h34.51.969,watkins1,2023.2.3,99.73768987536029,71,2023-12-19 13h35.00.146042 +0000,
,,,,,,,,,,,,,,,,,,,,,,,7,0,7,0,797.9093091000104,,,,,,,,,,801.829337000032,802.3278569999966,,,,3.9157440999988467,,,,,,,,,,,,None,None,,,,,,,,,,Löffel,,,cuedRecallAdj,3,,,,,,,,,,,,,,,,,,,,,,,,0,,,,,,,,,,,,,,,,,,,,,,,,,,,,797.8996580000385,797.9093091000104,797.9093091000104,801.8262169000227,rustikal ,return,3.9157440999988467,None,801.826506500016,801.8357434000354,801.8357434000354,801.8292353000143,,None,,,,,3,2023-12-19_13h34.51.969,watkins1,2023.2.3,99.73768987536029,71,2023-12-19 13h35.00.146042 +0000,
,,,,,,,,,,,,,,,,,,,,,,,8,0,8,0,802.3378068000311,,,,,,,,,,804.3993246000027,804.8983449999942,,,,2.055310199968517,,,,,,,,,,,,None,None,,,,,,,,,,Hut,,,cuedRecallAdj,3,,,,,,,,,,,,,,,,,,,,,,,,0,,,,,,,,,,,,,,,,,,,,,,,,,,,,802.3281057000277,802.3378068000311,802.3378068000311,804.3966671000235,dick,return,2.055310199968517,None,804.3969402000075,804.406186999986,804.406186999986,804.3992247999995,,None,,,,,3,2023-12-19_13h34.51.969,watkins1,2023.2.3,99.73768987536029,71,2023-12-19 13h35.00.146042 +0000,
,,,,,,,,,,,,,,,,,,,,,,,9,0,9,0,804.9082962000393,,,,,,,,,,810.5449970000191,811.0435006000334,,,,5.628780199971516,,,,,,,,,,,,None,None,,,,,,,,,,Telefon,,,cuedRecallAdj,3,,,,,,,,,,,,,,,,,,,,,,,,0,,,,,,,,,,,,,,,,,,,,,,,,,,,,804.8985897999955,804.9082962000393,804.9082962000393,810.5418773000129,hübsch,return,5.628780199971516,None,810.5421397000318,810.5513752999832,810.5513752999832,810.5448974000174,,None,,,,,3,2023-12-19_13h34.51.969,watkins1,2023.2.3,99.73768987536029,71,2023-12-19 13h35.00.146042 +0000,
,,,,,,,,,,,,,,,,,,,,,,,10,0,10,0,811.0534017999889,,,,,,,,,,820.2851320999907,820.7838081000373,,,,9.227546599984635,,,,,,,,,,,,None,None,,,,,,,,,,Tasche,,,cuedRecallAdj,3,,,,,,,,,,,,,,,,,,,,,,,,0,,,,,,,,,,,,,,,,,,,,,,,,,,,,811.0437493000063,811.0534017999889,811.0534017999889,820.2821510999929,kaputt,return,9.227546599984635,None,820.2824223000207,820.2917039000313,820.2917039000313,820.2850292000221,,None,,,,,3,2023-12-19_13h34.51.969,watkins1,2023.2.3,99.73768987536029,71,2023-12-19 13h35.00.146042 +0000,
,,,,,,,,,,,,,,,,,,,,,,,11,0,11,0,820.7937497000094,,,,,,,,,,824.3215142000117,824.8203403000371,,,,3.519254799990449,,,,,,,,,,,,None,None,,,,,,,,,,Kerze,,,cuedRecallAdj,3,,,,,,,,,,,,,,,,,,,,,,,,0,,,,,,,,,,,,,,,,,,,,,,,,,,,,820.784057300014,820.7937497000094,820.7937497000094,824.3186841999996,zart,return,3.519254799990449,None,824.3189495999832,824.3282311999938,824.3282311999938,824.3214118999895,,None,,,,,3,2023-12-19_13h34.51.969,watkins1,2023.2.3,99.73768987536029,71,2023-12-19 13h35.00.146042 +0000,
,,,,,,,,,,,,,,,,,,,,,,,12,0,12,0,824.8302962000016,,,,,,,,,,829.6141196999815,830.1128937000176,,,,4.778761400026269,,,,,,,,,,,,None,None,,,,,,,,,,Buch,,,cuedRecallAdj,3,,,,,,,,,,,,,,,,,,,,,,,,0,,,,,,,,,,,,,,,,,,,,,,,,,,,,824.8205777999829,824.8302962000016,824.8302962000016,829.6113135000342,schlicht,return,4.778761400026269,None,829.6115710000158,829.6208600000245,829.6208600000245,829.6140202000388,,None,,,,,3,2023-12-19_13h34.51.969,watkins1,2023.2.3,99.73768987536029,71,2023-12-19 13h35.00.146042 +0000,
,,,,,,,,,,,,,,,,,,,,,,,13,0,13,0,830.1228869000333,,,,,,,,,,837.797814599995,838.2965426000301,,,,7.670193800004199,,,,,,,,,,,,None,None,,,,,,,,,,Brille,,,cuedRecallAdj,3,,,,,,,,,,,,,,,,,,,,,,,,0,,,,,,,,,,,,,,,,,,,,,,,,,,,,830.113145100011,830.1228869000333,830.1228869000333,837.7948725000024,blas,return,7.670193800004199,None,837.7951309999917,837.8044080000254,837.8044080000254,837.7977161000017,,None,,,,,3,2023-12-19_13h34.51.969,watkins1,2023.2.3,99.73768987536029,71,2023-12-19 13h35.00.146042 +0000,
,,,,,,,,,,,,,,,,,,,,,,,14,0,14,0,838.306447400013,,,,,,,,,,839.9263609999907,840.4253830999951,,,,1.6145918000256643,,,,,,,,,,,,None,None,,,,,,,,,,Schere,,,cuedRecallAdj,3,,,,,,,,,,,,,,,,,,,,,,,,0,,,,,,,,,,,,,,,,,,,,,,,,,,,,838.296789999993,838.306447400013,838.306447400013,839.9236080999835,gut,return,1.6145918000256643,None,839.9238678999827,839.9331738000037,839.9331738000037,839.9262610999867,,None,,,,,3,2023-12-19_13h34.51.969,watkins1,2023.2.3,99.73768987536029,71,2023-12-19 13h35.00.146042 +0000,
,,,,,,,,,,,,,,,,,,,,,,,15,0,15,0,840.4353273999877,,,,,,,,,,844.6560164000257,845.1548181999824,,,,4.21377069997834,,,,,,,,,,,,None,None,,,,,,,,,,Eimer,,,cuedRecallAdj,3,,,,,,,,,,,,,,,,,,,,,,,,0,,,,,,,,,,,,,,,,,,,,,,,,,,,,840.4256301000132,840.4353273999877,840.4353273999877,844.6531676999875,rund,return,4.21377069997834,None,844.6534345999826,844.6626893000212,844.6626893000212,844.6559138000011,,None,,,,,3,2023-12-19_13h34.51.969,watkins1,2023.2.3,99.73768987536029,71,2023-12-19 13h35.00.146042 +0000,
,,,,,,,,,,,,,,,,,,,,,,,16,0,16,0,845.1647589000058,,,,,,,,,,849.5060150999925,850.0047221999848,,,,4.3322109000291675,,,,,,,,,,,,None,None,,,,,,,,,,Blume,,,cuedRecallAdj,3,,,,,,,,,,,,,,,,,,,,,,,,0,,,,,,,,,,,,,,,,,,,,,,,,,,,,845.1550701000378,845.1647589000058,845.1647589000058,849.5030329999863,gestreift,return,4.3322109000291675,None,849.5032928999863,849.5125800000387,849.5125800000387,849.5059143999824,,None,,,,,3,2023-12-19_13h34.51.969,watkins1,2023.2.3,99.73768987536029,71,2023-12-19 13h35.00.146042 +0000,
,,,,,,,,,,,,,,,,,,,,,,,17,0,17,0,850.0146393000032,,,,,,,,,,854.5872638000292,855.0861412000377,,,,4.562458000029437,,,,,,,,,,,,None,None,,,,,,,,,,Würfel,,,cuedRecallAdj,3,,,,,,,,,,,,,,,,,,,,,,,,0,,,,,,,,,,,,,,,,,,,,,,,,,,,,850.0049645000254,850.0146393000032,850.0146393000032,854.5842637000023,schwer,return,4.562458000029437,None,854.584529499989,854.5940346000134,854.5940346000134,854.5871609000023,,None,,,,,3,2023-12-19_13h34.51.969,watkins1,2023.2.3,99.73768987536029,71,2023-12-19 13h35.00.146042 +0000,
,,,,,,,,,,,,,,,,,,,,,,,18,0,18,0,855.0962013999815,,,,,,,,,,859.2774151000194,859.7763276000042,,,,4.168852799979504,,,,,,,,,,,,None,None,,,,,,,,,,Lampe,,,cuedRecallAdj,3,,,,,,,,,,,,,,,,,,,,,,,,0,,,,,,,,,,,,,,,,,,,,,,,,,,,,855.0863843000261,855.0962013999815,855.0962013999815,859.2744156999979,dunkel,return,4.168852799979504,None,859.2746831999975,859.2841219999827,859.2841219999827,859.2773128999979,,None,,,,,3,2023-12-19_13h34.51.969,watkins1,2023.2.3,99.73768987536029,71,2023-12-19 13h35.00.146042 +0000,
,,,,,,,,,,,,,,,,,,,,,,,19,0,19,0,859.7862474999856,,,,,,,,,,862.3806942999945,862.8793065000209,,,,2.5907681999960914,,,,,,,,,,,,None,None,,,,,,,,,,Kette,,,cuedRecallAdj,3,,,,,,,,,,,,,,,,,,,,,,,,0,,,,,,,,,,,,,,,,,,,,,,,,,,,,859.7765815000166,859.7862474999856,859.7862474999856,862.3776739999885,hohl,return,2.5907681999960914,None,862.3779437000048,862.3872146999929,862.3872146999929,862.3805918000289,,None,,,,,3,2023-12-19_13h34.51.969,watkins1,2023.2.3,99.73768987536029,71,2023-12-19 13h35.00.146042 +0000,
,,,,,,,,,,,,,,,,,,,,,,,20,0,20,0,862.8892232000362,,,,,,,,,,867.0998233000282,867.5987794999965,,,,4.1998187999706715,,,,,,,,,,,,None,None,,,,,,,,,,Jacke,,,cuedRecallAdj,3,,,,,,,,,,,,,,,,,,,,,,,,0,,,,,,,,,,,,,,,,,,,,,,,,,,,,862.8795508000185,862.8892232000362,862.8892232000362,867.0968768000021,hässlich,return,4.1998187999706715,None,867.0971422999864,867.1066240000073,867.1066240000073,867.0997234000242,,None,,,,,3,2023-12-19_13h34.51.969,watkins1,2023.2.3,99.73768987536029,71,2023-12-19 13h35.00.146042 +0000,
,,,,,,,,,,,,,,,,,,,,,,,21,0,21,0,867.6087327999994,,,,,,,,,,871.6787124000257,872.1775106000132,,,,4.064219199994113,,,,,,,,,,,,None,None,,,,,,,,,,Kiste,,,cuedRecallAdj,3,,,,,,,,,,,,,,,,,,,,,,,,0,,,,,,,,,,,,,,,,,,,,,,,,,,,,867.5990212000324,867.6087327999994,867.6087327999994,871.6757317000302,nachhaltig,return,4.064219199994113,None,871.675994899997,871.6852835000027,871.6852835000027,871.6786134000286,,None,,,,,3,2023-12-19_13h34.51.969,watkins1,2023.2.3,99.73768987536029,71,2023-12-19 13h35.00.146042 +0000,
,,,,,,,,,,,,,,,,,,,,,,,22,0,22,0,872.1874537999975,,,,,,,,,,878.1957654000144,878.6945320999948,,,,5.9975923000019975,,,,,,,,,,,,None,None,,,,,,,,,,Kamera,,,cuedRecallAdj,3,,,,,,,,,,,,,,,,,,,,,,,,0,,,,,,,,,,,,,,,,,,,,,,,,,,,,872.1777577000321,872.1874537999975,872.1874537999975,878.192615100008,glänzend,return,5.9975923000019975,None,878.1928778000292,878.2023477000184,878.2023477000184,878.1956646000035,,None,,,,,3,2023-12-19_13h34.51.969,watkins1,2023.2.3,99.73768987536029,71,2023-12-19 13h35.00.146042 +0000,
,,,,,,,,,,,,,,,,,,,,,,,23,0,23,0,878.7044866000069,,,,,,,,,,880.545431800012,881.0441751999897,,,,1.832548200036399,,,,,,,,,,,,None,None,,,,,,,,,,Geige,,,cuedRecallAdj,3,,,,,,,,,,,,,,,,,,,,,,,,0,,,,,,,,,,,,,,,,,,,,,,,,,,,,878.6947768999962,878.7044866000069,878.7044866000069,880.542478599993,teuer,return,1.832548200036399,None,880.5427454999881,880.552008800034,880.552008800034,880.5453292999882,,None,,,,,3,2023-12-19_13h34.51.969,watkins1,2023.2.3,99.73768987536029,71,2023-12-19 13h35.00.146042 +0000,
,,,,,,,,,,,,,,,,,,,,,,,24,0,24,0,881.0541258000303,,,,,,,,,,886.7409699999844,887.2395446000155,,,,5.682947499968577,,,,,,,,,,,,None,None,,,,,,,,,,Trommel,,,cuedRecallAdj,3,,,,,,,,,,,,,,,,,,,,,,,,0,,,,,,,,,,,,,,,,,,,,,,,,,,,,881.0444223000086,881.0541258000303,881.0541258000303,886.7379458000069,elegant,return,5.682947499968577,None,886.7382126000011,886.747475799988,886.747475799988,886.7408680000226,,None,,,,,3,2023-12-19_13h34.51.969,watkins1,2023.2.3,99.73768987536029,71,2023-12-19 13h35.00.146042 +0000,
,,,,,,,,,,,,,,,,,,,,,,,25,0,25,0,887.2494928000378,,,,,,,,,,892.7755498000188,893.2744739000336,,,,5.519543399976101,,,,,,,,,,,,None,None,,,,,,,,,,Vase,,,cuedRecallAdj,3,,,,,,,,,,,,,,,,,,,,,,,,0,,,,,,,,,,,,,,,,,,,,,,,,,,,,887.2397907000268,887.2494928000378,887.2494928000378,892.7727656000061,lustig,return,5.519543399976101,None,892.7730271000182,892.782316900033,892.782316900033,892.7754454999813,,None,,,,,3,2023-12-19_13h34.51.969,watkins1,2023.2.3,99.73768987536029,71,2023-12-19 13h35.00.146042 +0000,
,,,,,,,,,,,,,,,,,,,,,,,26,0,26,0,893.2844148000004,,,,,,,,,,896.8425544000347,897.3410535000148,,,,3.5485972000169568,,,,,,,,,,,,None,None,,,,,,,,,,Stift,,,cuedRecallAdj,3,,,,,,,,,,,,,,,,,,,,,,,,0,,,,,,,,,,,,,,,,,,,,,,,,,,,,893.2747237000149,893.2844148000004,893.2844148000004,896.8394180000178,schwer,return,3.5485972000169568,None,896.8396880000364,896.8489340000087,896.8489340000087,896.842452300014,,None,,,,,3,2023-12-19_13h34.51.969,watkins1,2023.2.3,99.73768987536029,71,2023-12-19 13h35.00.146042 +0000,
,,,,,,,,,,,,,,,,,,,,,,,27,0,27,0,897.3509717999841,,,,,,,,,,900.5877165999846,901.0865262000007,,,,3.2260554999811575,,,,,,,,,,,,None,None,,,,,,,,,,Bürste,,,cuedRecallAdj,3,,,,,,,,,,,,,,,,,,,,,,,,0,,,,,,,,,,,,,,,,,,,,,,,,,,,,897.3413062000182,897.3509717999841,897.3509717999841,900.5847203999874,gepunktet,return,3.2260554999811575,None,900.5849786000326,900.5944330000202,900.5944330000202,900.5876182999928,,None,,,,,3,2023-12-19_13h34.51.969,watkins1,2023.2.3,99.73768987536029,71,2023-12-19 13h35.00.146042 +0000,
,,,,,,,,,,,,,,,,,,,,,,,28,0,28,0,901.0964742000215,,,,,,,,,,904.0922406000318,904.5907041000319,,,,2.9844805999891832,,,,,,,,,,,,None,None,,,,,,,,,,Hammer,,,cuedRecallAdj,3,,,,,,,,,,,,,,,,,,,,,,,,0,,,,,,,,,,,,,,,,,,,,,,,,,,,,901.0867819000268,901.0964742000215,901.0964742000215,904.0890292000258,dreckig,return,2.9844805999891832,None,904.0892918999889,904.0988066000282,904.0988066000282,904.0921392000164,,None,,,,,3,2023-12-19_13h34.51.969,watkins1,2023.2.3,99.73768987536029,71,2023-12-19 13h35.00.146042 +0000,
,,,,,,,,,,,,,,,,,,,,,,,29,0,29,0,904.6006561000249,,,,,,,,,,923.5617369000101,924.0607602000237,,,,18.95233369997004,,,,,,,,,,,,None,None,,,,,,,,,,Tasse,,,cuedRecallAdj,3,,,,,,,,,,,,,,,,,,,,,,,,0,,,,,,,,,,,,,,,,,,,,,,,,,,,,904.5909500999842,904.6006561000249,904.6006561000249,923.5588992999983,hohl,return,18.95233369997004,None,923.5591636000318,923.5684272000217,923.5684272000217,923.5616358999978,,None,,,,,3,2023-12-19_13h34.51.969,watkins1,2023.2.3,99.73768987536029,71,2023-12-19 13h35.00.146042 +0000,
,,,,,,,,,,,,,,,,,,,,,,,,,,,,,,,,,,,,,,,,,,,,,,,,,,,,,,,,,,,,,,,,,,,,,3,,,,,,,,,,,,,,,,,,,,,,,,,,,,,,,,,,,,,,,,,,,,,,,,,,,,,,,,,,,,,,,,,,924.0776250000345,q,2721.217334999994,None,3,2023-12-19_13h34.51.969,watkins1,2023.2.3,99.73768987536029,71,2023-12-19 13h35.00.146042 +0000,
