Equation,CorrectResponse,Correctbutton,trials_7.thisRepN,trials_7.thisTrialN,trials_7.thisN,trials_7.thisIndex,trials.thisRepN,trials.thisTrialN,trials.thisN,trials.thisIndex,trials_3.thisRepN,trials_3.thisTrialN,trials_3.thisN,trials_3.thisIndex,trials_2.thisRepN,trials_2.thisTrialN,trials_2.thisN,trials_2.thisIndex,trials_4.thisRepN,trials_4.thisTrialN,trials_4.thisN,trials_4.thisIndex,trials_5.thisRepN,trials_5.thisTrialN,trials_5.thisN,trials_5.thisIndex,thisRow.t,notes,code_marius.started,code_marius.stopped,welcome.started,welcome.stopped,instruction_study.started,instruction_study.stopped,fixationcross.started,fixationcross.stopped,blanc.started,blanc.stopped,study_control_probe.started,study_control_probe.stopped,responseKey,responseTime,scale_answer_2.keys,study_control_probe_2.started,study_control_probe_2.stopped,scale_answer_3.keys,scale_answer_3.rt,scale_answer_3.duration,blanc_2.started,blanc_2.stopped,test_attr_probe.started,test_attr_probe.stopped,recalled_attr,firstKeyTime,secondWordTime,blanc_3.started,blanc_3.stopped,test_sub_probe.started,test_sub_probe.stopped,recalled_sub,instruction_probe_end.started,instruction_probe_end.stopped,study.started,study.stopped,substantive,adjective,wordpair,task,condition,liste_sub_phase1,liste_adj_phase1,scale_answer.keys,scale_answer.rt,scale_answer.duration,code_defineWordsInit.started,code_defineWordsInit.stopped,liste_sub_phase2,study_control.started,study_control.stopped,scale_answer_4.keys,restudy_same.started,restudy_same.stopped,scale_answer_5.keys,scale_answer_5.rt,scale_answer_5.duration,restudy_different.started,restudy_different.stopped,scale_answer_6.keys,test_attr.started,test_attr.stopped,test_sub.started,test_sub.stopped,correct,distractortask.started,equation_text.started,distractortask.stopped,mouse_answer.x,mouse_answer.y,mouse_answer.leftButton,mouse_answer.midButton,mouse_answer.rightButton,mouse_answer.time,mouse_answer.clicked_name,feedback_distractortask.started,feedback_distractortask.stopped,free_recall.started,text_enter.started,key_resp.started,free_recall.stopped,key_resp.keys,key_resp.rt,key_resp.duration,free_recalled_sub,mouse_continue.x,mouse_continue.y,mouse_continue.leftButton,mouse_continue.midButton,mouse_continue.rightButton,mouse_continue.time,mouse_continue.clicked_name,cued_recall.started,text_enter_2.started,key_continue.started,cued_recall.stopped,recalled_attr1,key_continue.keys,key_continue.rt,key_continue.duration,cued_recall_2.started,text_enter_3.started,key_continue_2.started,cued_recall_2.stopped,recalled_attr2,key_continue_2.keys,key_resp_8.started,key_resp_8.keys,key_resp_8.rt,key_resp_8.duration,condition,date,expName,psychopyVersion,frameRate,participant,expStart,
,,,,,,,,,,,,,,,,,,,,,,,,,,,,,0.10737959999823943,0.10744730004807934,0.10745599999791011,2.7506432000081986,,,,,,,,,,,,,,,,,,,,,,,,,,,,,,,,,,,,,3,,,,,,,,,,,,,,,,,,,,,,,,,,,,,,,,,,,,,,,,,,,,,,,,,,,,,,,,,,,,,,,,,,,,,,3,2023-11-27_09h31.08.509,watkins1,2023.2.3,99.78098072905604,14,2023-11-27 09h31.17.389019 +0000,
,,,,,,,,,,,,,,,,,,,,,,,,,,,,,,,,,2.750690200016834,32.02415230002953,,,,,,,,,,,,,,,,,,,,,,,,,,,,,,,,,,,3,,,,,,,,,,,,,,,,,,,,,,,,,,,,,,,,,,,,,,,,,,,,,,,,,,,,,,,,,,,,,,,,,,,,,,3,2023-11-27_09h31.08.509,watkins1,2023.2.3,99.78098072905604,14,2023-11-27 09h31.17.389019 +0000,
,,,0,0,0,0,,,,,,,,,,,,,,,,,,,,,33.03772650001338,,,,,,,,32.024167600029614,33.027737400028855,39.52741810004227,40.01865690003615,33.51976920000743,39.527251599996816,3,2.3520409999764524,None,40.01866750000045,46.024950300052296,3,2.3520409999764524,None,46.02524510002695,46.516250400047284,46.51626100001158,52.52091670001391,vergnügt,None,None,52.52113560005091,52.52115790004609,52.521164800040424,52.521245300013106,,,,,,,,,,3,,,,,,,,,,,,,,,,,,,,,,,,,,,,,,,,,,,,,,,,,,,,,,,,,,,,,,,,,,,,,,,,,,,,,,3,2023-11-27_09h31.08.509,watkins1,2023.2.3,99.78098072905604,14,2023-11-27 09h31.17.389019 +0000,
,,,,,,,,,,,,,,,,,,,,,,,,,,,,,,,,,,,,,,,,,,,,,,,,,,,,,,,,,,,,,52.521362900035456,57.10365650005406,,,,,,,3,,,,,,,,,,,,,,,,,,,,,,,,,,,,,,,,,,,,,,,,,,,,,,,,,,,,,,,,,,,,,,,,,,,,,,3,2023-11-27_09h31.08.509,watkins1,2023.2.3,99.78098072905604,14,2023-11-27 09h31.17.389019 +0000,
,,,,,,,0,0,0,0,,,,,,,,,,,,,,,,,58.117360300035216,,,,,,,,57.10367160005262,58.10728160000872,58.10773899999913,58.599334400030784,,,2,2.8794603000278585,,,,,,,,,,,,,,,,,,,,,58.599344700051006,64.60153800004628,Kette,schlicht,"['Kette', 'schlicht']",restudy,3,"['Kette', 'Ring', 'Bürste', 'Vase', 'Kiste', 'Kerze', 'Trommel', 'Kamera', 'Uhr', 'Brille', 'Stift', 'Eimer', 'Würfel', 'Socke', 'Rucksack', 'Tasse', 'Jacke', 'Hut', 'Buch', 'Schere', 'Lampe', 'Flasche', 'Blume', 'Löffel', 'Fahrrad', 'Geige', 'Tasche', 'Schlüssel', 'Hammer', 'Telefon']",['schlicht'],2,2.8794603000278585,None,,,,,,,,,,,,,,,,,,,,,,,,,,,,,,,,,,,,,,,,,,,,,,,,,,,,,,,,,,,,,,,,,3,2023-11-27_09h31.08.509,watkins1,2023.2.3,99.78098072905604,14,2023-11-27 09h31.17.389019 +0000,
,,,,,,,1,0,1,0,,,,,,,,,,,,,,,,,64.61102190002566,,,,,,,,,,64.60219679999864,65.09294450003654,,,1,2.218792400031816,,,,,,,,,,,,,,,,,,,,,65.09295400005067,71.09398460004013,Ring,kurz,"['Ring', 'kurz']",test_adj,3,"['Kette', 'Ring', 'Bürste', 'Vase', 'Kiste', 'Kerze', 'Trommel', 'Kamera', 'Uhr', 'Brille', 'Stift', 'Eimer', 'Würfel', 'Socke', 'Rucksack', 'Tasse', 'Jacke', 'Hut', 'Buch', 'Schere', 'Lampe', 'Flasche', 'Blume', 'Löffel', 'Fahrrad', 'Geige', 'Tasche', 'Schlüssel', 'Hammer', 'Telefon']","['schlicht', 'kurz']",1,2.218792400031816,None,,,,,,,,,,,,,,,,,,,,,,,,,,,,,,,,,,,,,,,,,,,,,,,,,,,,,,,,,,,,,,,,,3,2023-11-27_09h31.08.509,watkins1,2023.2.3,99.78098072905604,14,2023-11-27 09h31.17.389019 +0000,
,,,,,,,2,0,2,0,,,,,,,,,,,,,,,,,71.10344980005175,,,,,,,,,,71.09451360005187,71.58529230003478,,,1,2.534732999978587,,,,,,,,,,,,,,,,,,,,,71.58530269999756,77.59570490004262,Bürste,strahlend,"['Bürste', 'strahlend']",restudy,3,"['Kette', 'Ring', 'Bürste', 'Vase', 'Kiste', 'Kerze', 'Trommel', 'Kamera', 'Uhr', 'Brille', 'Stift', 'Eimer', 'Würfel', 'Socke', 'Rucksack', 'Tasse', 'Jacke', 'Hut', 'Buch', 'Schere', 'Lampe', 'Flasche', 'Blume', 'Löffel', 'Fahrrad', 'Geige', 'Tasche', 'Schlüssel', 'Hammer', 'Telefon']","['schlicht', 'kurz', 'strahlend']",1,2.534732999978587,None,,,,,,,,,,,,,,,,,,,,,,,,,,,,,,,,,,,,,,,,,,,,,,,,,,,,,,,,,,,,,,,,,3,2023-11-27_09h31.08.509,watkins1,2023.2.3,99.78098072905604,14,2023-11-27 09h31.17.389019 +0000,
,,,,,,,3,0,3,0,,,,,,,,,,,,,,,,,77.60515330004273,,,,,,,,,,77.59623840003042,78.08712720003678,,,2,2.1451752999564633,,,,,,,,,,,,,,,,,,,,,78.08713790000184,84.09685120003996,Vase,klobig,"['Vase', 'klobig']",restudy,3,"['Kette', 'Ring', 'Bürste', 'Vase', 'Kiste', 'Kerze', 'Trommel', 'Kamera', 'Uhr', 'Brille', 'Stift', 'Eimer', 'Würfel', 'Socke', 'Rucksack', 'Tasse', 'Jacke', 'Hut', 'Buch', 'Schere', 'Lampe', 'Flasche', 'Blume', 'Löffel', 'Fahrrad', 'Geige', 'Tasche', 'Schlüssel', 'Hammer', 'Telefon']","['schlicht', 'kurz', 'strahlend', 'klobig']",2,2.1451752999564633,None,,,,,,,,,,,,,,,,,,,,,,,,,,,,,,,,,,,,,,,,,,,,,,,,,,,,,,,,,,,,,,,,,3,2023-11-27_09h31.08.509,watkins1,2023.2.3,99.78098072905604,14,2023-11-27 09h31.17.389019 +0000,
,,,,,,,4,0,4,0,,,,,,,,,,,,,,,,,84.10633460001554,,,,,,,,,,84.09738050005399,84.58832740003709,,,2,3.148880199994892,,,,,,,,,,,,,,,,,,,,,84.58833860000595,90.59754530002829,Kiste,nass,"['Kiste', 'nass']",restudy,3,"['Kette', 'Ring', 'Bürste', 'Vase', 'Kiste', 'Kerze', 'Trommel', 'Kamera', 'Uhr', 'Brille', 'Stift', 'Eimer', 'Würfel', 'Socke', 'Rucksack', 'Tasse', 'Jacke', 'Hut', 'Buch', 'Schere', 'Lampe', 'Flasche', 'Blume', 'Löffel', 'Fahrrad', 'Geige', 'Tasche', 'Schlüssel', 'Hammer', 'Telefon']","['schlicht', 'kurz', 'strahlend', 'klobig', 'nass']",2,3.148880199994892,None,,,,,,,,,,,,,,,,,,,,,,,,,,,,,,,,,,,,,,,,,,,,,,,,,,,,,,,,,,,,,,,,,3,2023-11-27_09h31.08.509,watkins1,2023.2.3,99.78098072905604,14,2023-11-27 09h31.17.389019 +0000,
,,,,,,,5,0,5,0,,,,,,,,,,,,,,,,,90.60701690003043,,,,,,,,,,90.59808330005035,91.08889390004333,,,1,2.8883886000257917,,,,,,,,,,,,,,,,,,,,,91.08890360000078,97.09760700003244,Kerze,durchsichtig,"['Kerze', 'durchsichtig']",restudy,3,"['Kette', 'Ring', 'Bürste', 'Vase', 'Kiste', 'Kerze', 'Trommel', 'Kamera', 'Uhr', 'Brille', 'Stift', 'Eimer', 'Würfel', 'Socke', 'Rucksack', 'Tasse', 'Jacke', 'Hut', 'Buch', 'Schere', 'Lampe', 'Flasche', 'Blume', 'Löffel', 'Fahrrad', 'Geige', 'Tasche', 'Schlüssel', 'Hammer', 'Telefon']","['schlicht', 'kurz', 'strahlend', 'klobig', 'nass', 'durchsichtig']",1,2.8883886000257917,None,,,,,,,,,,,,,,,,,,,,,,,,,,,,,,,,,,,,,,,,,,,,,,,,,,,,,,,,,,,,,,,,,3,2023-11-27_09h31.08.509,watkins1,2023.2.3,99.78098072905604,14,2023-11-27 09h31.17.389019 +0000,
,,,,,,,6,0,6,0,,,,,,,,,,,,,,,,,97.10704329999862,,,,,,,,,,97.09815289999824,97.58916250005132,,,2,1.763354499998968,,,,,,,,,,,,,,,,,,,,,97.58917240001028,103.59837800002424,Trommel,gut,"['Trommel', 'gut']",test_adj,3,"['Kette', 'Ring', 'Bürste', 'Vase', 'Kiste', 'Kerze', 'Trommel', 'Kamera', 'Uhr', 'Brille', 'Stift', 'Eimer', 'Würfel', 'Socke', 'Rucksack', 'Tasse', 'Jacke', 'Hut', 'Buch', 'Schere', 'Lampe', 'Flasche', 'Blume', 'Löffel', 'Fahrrad', 'Geige', 'Tasche', 'Schlüssel', 'Hammer', 'Telefon']","['schlicht', 'kurz', 'strahlend', 'klobig', 'nass', 'durchsichtig', 'gut']",2,1.763354499998968,None,,,,,,,,,,,,,,,,,,,,,,,,,,,,,,,,,,,,,,,,,,,,,,,,,,,,,,,,,,,,,,,,,3,2023-11-27_09h31.08.509,watkins1,2023.2.3,99.78098072905604,14,2023-11-27 09h31.17.389019 +0000,
,,,,,,,7,0,7,0,,,,,,,,,,,,,,,,,103.6078467000043,,,,,,,,,,103.59891650005011,104.089836500003,,,2,2.5273925000219606,,,,,,,,,,,,,,,,,,,,,104.08984650002094,110.1004068000475,Kamera,schmutzig,"['Kamera', 'schmutzig']",restudy,3,"['Kette', 'Ring', 'Bürste', 'Vase', 'Kiste', 'Kerze', 'Trommel', 'Kamera', 'Uhr', 'Brille', 'Stift', 'Eimer', 'Würfel', 'Socke', 'Rucksack', 'Tasse', 'Jacke', 'Hut', 'Buch', 'Schere', 'Lampe', 'Flasche', 'Blume', 'Löffel', 'Fahrrad', 'Geige', 'Tasche', 'Schlüssel', 'Hammer', 'Telefon']","['schlicht', 'kurz', 'strahlend', 'klobig', 'nass', 'durchsichtig', 'gut', 'schmutzig']",2,2.5273925000219606,None,,,,,,,,,,,,,,,,,,,,,,,,,,,,,,,,,,,,,,,,,,,,,,,,,,,,,,,,,,,,,,,,,3,2023-11-27_09h31.08.509,watkins1,2023.2.3,99.78098072905604,14,2023-11-27 09h31.17.389019 +0000,
,,,,,,,8,0,8,0,,,,,,,,,,,,,,,,,110.10987260000547,,,,,,,,,,110.10092950001126,110.59183590003522,,,2,2.232729300041683,,,,,,,,,,,,,,,,,,,,,110.59184590005316,116.59392890002346,Uhr,hübsch,"['Uhr', 'hübsch']",test_adj,3,"['Kette', 'Ring', 'Bürste', 'Vase', 'Kiste', 'Kerze', 'Trommel', 'Kamera', 'Uhr', 'Brille', 'Stift', 'Eimer', 'Würfel', 'Socke', 'Rucksack', 'Tasse', 'Jacke', 'Hut', 'Buch', 'Schere', 'Lampe', 'Flasche', 'Blume', 'Löffel', 'Fahrrad', 'Geige', 'Tasche', 'Schlüssel', 'Hammer', 'Telefon']","['schlicht', 'kurz', 'strahlend', 'klobig', 'nass', 'durchsichtig', 'gut', 'schmutzig', 'hübsch']",2,2.232729300041683,None,,,,,,,,,,,,,,,,,,,,,,,,,,,,,,,,,,,,,,,,,,,,,,,,,,,,,,,,,,,,,,,,,3,2023-11-27_09h31.08.509,watkins1,2023.2.3,99.78098072905604,14,2023-11-27 09h31.17.389019 +0000,
,,,,,,,9,0,9,0,,,,,,,,,,,,,,,,,116.6034168000333,,,,,,,,,,116.59444720001193,117.08546050003497,,,2,2.979654499969911,,,,,,,,,,,,,,,,,,,,,117.08547120000003,123.08696670003701,Brille,krumm,"['Brille', 'krumm']",test_adj,3,"['Kette', 'Ring', 'Bürste', 'Vase', 'Kiste', 'Kerze', 'Trommel', 'Kamera', 'Uhr', 'Brille', 'Stift', 'Eimer', 'Würfel', 'Socke', 'Rucksack', 'Tasse', 'Jacke', 'Hut', 'Buch', 'Schere', 'Lampe', 'Flasche', 'Blume', 'Löffel', 'Fahrrad', 'Geige', 'Tasche', 'Schlüssel', 'Hammer', 'Telefon']","['schlicht', 'kurz', 'strahlend', 'klobig', 'nass', 'durchsichtig', 'gut', 'schmutzig', 'hübsch', 'krumm']",2,2.979654499969911,None,,,,,,,,,,,,,,,,,,,,,,,,,,,,,,,,,,,,,,,,,,,,,,,,,,,,,,,,,,,,,,,,,3,2023-11-27_09h31.08.509,watkins1,2023.2.3,99.78098072905604,14,2023-11-27 09h31.17.389019 +0000,
,,,,,,,10,0,10,0,,,,,,,,,,,,,,,,,123.09645150002325,,,,,,,,,,123.08748970000306,123.57838370004902,,,3,1.3259944000164978,,,,,,,,,,,,,,,,,,,,,123.57839340000646,129.58048230002169,Stift,dick,"['Stift', 'dick']",restudy,3,"['Kette', 'Ring', 'Bürste', 'Vase', 'Kiste', 'Kerze', 'Trommel', 'Kamera', 'Uhr', 'Brille', 'Stift', 'Eimer', 'Würfel', 'Socke', 'Rucksack', 'Tasse', 'Jacke', 'Hut', 'Buch', 'Schere', 'Lampe', 'Flasche', 'Blume', 'Löffel', 'Fahrrad', 'Geige', 'Tasche', 'Schlüssel', 'Hammer', 'Telefon']","['schlicht', 'kurz', 'strahlend', 'klobig', 'nass', 'durchsichtig', 'gut', 'schmutzig', 'hübsch', 'krumm', 'dick']",3,1.3259944000164978,None,,,,,,,,,,,,,,,,,,,,,,,,,,,,,,,,,,,,,,,,,,,,,,,,,,,,,,,,,,,,,,,,,3,2023-11-27_09h31.08.509,watkins1,2023.2.3,99.78098072905604,14,2023-11-27 09h31.17.389019 +0000,
,,,,,,,11,0,11,0,,,,,,,,,,,,,,,,,129.5899439000059,,,,,,,,,,129.5810088000144,130.07187710003927,,,2,3.015269800031092,,,,,,,,,,,,,,,,,,,,,130.07188730000053,136.07904600002803,Eimer,groß,"['Eimer', 'groß']",test_adj,3,"['Kette', 'Ring', 'Bürste', 'Vase', 'Kiste', 'Kerze', 'Trommel', 'Kamera', 'Uhr', 'Brille', 'Stift', 'Eimer', 'Würfel', 'Socke', 'Rucksack', 'Tasse', 'Jacke', 'Hut', 'Buch', 'Schere', 'Lampe', 'Flasche', 'Blume', 'Löffel', 'Fahrrad', 'Geige', 'Tasche', 'Schlüssel', 'Hammer', 'Telefon']","['schlicht', 'kurz', 'strahlend', 'klobig', 'nass', 'durchsichtig', 'gut', 'schmutzig', 'hübsch', 'krumm', 'dick', 'groß']",2,3.015269800031092,None,,,,,,,,,,,,,,,,,,,,,,,,,,,,,,,,,,,,,,,,,,,,,,,,,,,,,,,,,,,,,,,,,3,2023-11-27_09h31.08.509,watkins1,2023.2.3,99.78098072905604,14,2023-11-27 09h31.17.389019 +0000,
,,,,,,,12,0,12,0,,,,,,,,,,,,,,,,,136.0885235000169,,,,,,,,,,136.0795661000302,136.57043260004139,,,1,2.389567700040061,,,,,,,,,,,,,,,,,,,,,136.570443900011,142.57842120004352,Würfel,kaputt,"['Würfel', 'kaputt']",restudy,3,"['Kette', 'Ring', 'Bürste', 'Vase', 'Kiste', 'Kerze', 'Trommel', 'Kamera', 'Uhr', 'Brille', 'Stift', 'Eimer', 'Würfel', 'Socke', 'Rucksack', 'Tasse', 'Jacke', 'Hut', 'Buch', 'Schere', 'Lampe', 'Flasche', 'Blume', 'Löffel', 'Fahrrad', 'Geige', 'Tasche', 'Schlüssel', 'Hammer', 'Telefon']","['schlicht', 'kurz', 'strahlend', 'klobig', 'nass', 'durchsichtig', 'gut', 'schmutzig', 'hübsch', 'krumm', 'dick', 'groß', 'kaputt']",1,2.389567700040061,None,,,,,,,,,,,,,,,,,,,,,,,,,,,,,,,,,,,,,,,,,,,,,,,,,,,,,,,,,,,,,,,,,3,2023-11-27_09h31.08.509,watkins1,2023.2.3,99.78098072905604,14,2023-11-27 09h31.17.389019 +0000,
,,,,,,,13,0,13,0,,,,,,,,,,,,,,,,,142.58788490004372,,,,,,,,,,142.57894510001643,143.06989730003988,,,3,1.3069061000132933,,,,,,,,,,,,,,,,,,,,,143.06990650005173,149.07808710000245,Socke,dunkel,"['Socke', 'dunkel']",test_adj,3,"['Kette', 'Ring', 'Bürste', 'Vase', 'Kiste', 'Kerze', 'Trommel', 'Kamera', 'Uhr', 'Brille', 'Stift', 'Eimer', 'Würfel', 'Socke', 'Rucksack', 'Tasse', 'Jacke', 'Hut', 'Buch', 'Schere', 'Lampe', 'Flasche', 'Blume', 'Löffel', 'Fahrrad', 'Geige', 'Tasche', 'Schlüssel', 'Hammer', 'Telefon']","['schlicht', 'kurz', 'strahlend', 'klobig', 'nass', 'durchsichtig', 'gut', 'schmutzig', 'hübsch', 'krumm', 'dick', 'groß', 'kaputt', 'dunkel']",3,1.3069061000132933,None,,,,,,,,,,,,,,,,,,,,,,,,,,,,,,,,,,,,,,,,,,,,,,,,,,,,,,,,,,,,,,,,,3,2023-11-27_09h31.08.509,watkins1,2023.2.3,99.78098072905604,14,2023-11-27 09h31.17.389019 +0000,
,,,,,,,14,0,14,0,,,,,,,,,,,,,,,,,149.0875626000343,,,,,,,,,,149.07860770000843,149.56955660000676,,,3,1.3675456999917515,,,,,,,,,,,,,,,,,,,,,149.5695671000285,155.57934730005218,Rucksack,praktisch,"['Rucksack', 'praktisch']",test_adj,3,"['Kette', 'Ring', 'Bürste', 'Vase', 'Kiste', 'Kerze', 'Trommel', 'Kamera', 'Uhr', 'Brille', 'Stift', 'Eimer', 'Würfel', 'Socke', 'Rucksack', 'Tasse', 'Jacke', 'Hut', 'Buch', 'Schere', 'Lampe', 'Flasche', 'Blume', 'Löffel', 'Fahrrad', 'Geige', 'Tasche', 'Schlüssel', 'Hammer', 'Telefon']","['schlicht', 'kurz', 'strahlend', 'klobig', 'nass', 'durchsichtig', 'gut', 'schmutzig', 'hübsch', 'krumm', 'dick', 'groß', 'kaputt', 'dunkel', 'praktisch']",3,1.3675456999917515,None,,,,,,,,,,,,,,,,,,,,,,,,,,,,,,,,,,,,,,,,,,,,,,,,,,,,,,,,,,,,,,,,,3,2023-11-27_09h31.08.509,watkins1,2023.2.3,99.78098072905604,14,2023-11-27 09h31.17.389019 +0000,
,,,,,,,15,0,15,0,,,,,,,,,,,,,,,,,155.5887840000214,,,,,,,,,,155.57986670004902,156.07080810004845,,,2,1.7381390999653377,,,,,,,,,,,,,,,,,,,,,156.07081790000666,162.07479230000172,Tasse,nachhaltig,"['Tasse', 'nachhaltig']",test_adj,3,"['Kette', 'Ring', 'Bürste', 'Vase', 'Kiste', 'Kerze', 'Trommel', 'Kamera', 'Uhr', 'Brille', 'Stift', 'Eimer', 'Würfel', 'Socke', 'Rucksack', 'Tasse', 'Jacke', 'Hut', 'Buch', 'Schere', 'Lampe', 'Flasche', 'Blume', 'Löffel', 'Fahrrad', 'Geige', 'Tasche', 'Schlüssel', 'Hammer', 'Telefon']","['schlicht', 'kurz', 'strahlend', 'klobig', 'nass', 'durchsichtig', 'gut', 'schmutzig', 'hübsch', 'krumm', 'dick', 'groß', 'kaputt', 'dunkel', 'praktisch', 'nachhaltig']",2,1.7381390999653377,None,,,,,,,,,,,,,,,,,,,,,,,,,,,,,,,,,,,,,,,,,,,,,,,,,,,,,,,,,,,,,,,,,3,2023-11-27_09h31.08.509,watkins1,2023.2.3,99.78098072905604,14,2023-11-27 09h31.17.389019 +0000,
,,,,,,,16,0,16,0,,,,,,,,,,,,,,,,,162.0842289000284,,,,,,,,,,162.07531560002826,162.5663276000414,,,1,2.1537467000307515,,,,,,,,,,,,,,,,,,,,,162.56633790000342,168.57628810004098,Jacke,flach,"['Jacke', 'flach']",restudy,3,"['Kette', 'Ring', 'Bürste', 'Vase', 'Kiste', 'Kerze', 'Trommel', 'Kamera', 'Uhr', 'Brille', 'Stift', 'Eimer', 'Würfel', 'Socke', 'Rucksack', 'Tasse', 'Jacke', 'Hut', 'Buch', 'Schere', 'Lampe', 'Flasche', 'Blume', 'Löffel', 'Fahrrad', 'Geige', 'Tasche', 'Schlüssel', 'Hammer', 'Telefon']","['schlicht', 'kurz', 'strahlend', 'klobig', 'nass', 'durchsichtig', 'gut', 'schmutzig', 'hübsch', 'krumm', 'dick', 'groß', 'kaputt', 'dunkel', 'praktisch', 'nachhaltig', 'flach']",1,2.1537467000307515,None,,,,,,,,,,,,,,,,,,,,,,,,,,,,,,,,,,,,,,,,,,,,,,,,,,,,,,,,,,,,,,,,,3,2023-11-27_09h31.08.509,watkins1,2023.2.3,99.78098072905604,14,2023-11-27 09h31.17.389019 +0000,
,,,,,,,17,0,17,0,,,,,,,,,,,,,,,,,168.585729500046,,,,,,,,,,168.57681290002074,169.06769930000883,,,1,1.4687178999884054,,,,,,,,,,,,,,,,,,,,,169.06770900002448,175.07708509999793,Hut,verspielt,"['Hut', 'verspielt']",test_adj,3,"['Kette', 'Ring', 'Bürste', 'Vase', 'Kiste', 'Kerze', 'Trommel', 'Kamera', 'Uhr', 'Brille', 'Stift', 'Eimer', 'Würfel', 'Socke', 'Rucksack', 'Tasse', 'Jacke', 'Hut', 'Buch', 'Schere', 'Lampe', 'Flasche', 'Blume', 'Löffel', 'Fahrrad', 'Geige', 'Tasche', 'Schlüssel', 'Hammer', 'Telefon']","['schlicht', 'kurz', 'strahlend', 'klobig', 'nass', 'durchsichtig', 'gut', 'schmutzig', 'hübsch', 'krumm', 'dick', 'groß', 'kaputt', 'dunkel', 'praktisch', 'nachhaltig', 'flach', 'verspielt']",1,1.4687178999884054,None,,,,,,,,,,,,,,,,,,,,,,,,,,,,,,,,,,,,,,,,,,,,,,,,,,,,,,,,,,,,,,,,,3,2023-11-27_09h31.08.509,watkins1,2023.2.3,99.78098072905604,14,2023-11-27 09h31.17.389019 +0000,
,,,,,,,18,0,18,0,,,,,,,,,,,,,,,,,175.08660070004407,,,,,,,,,,175.0776117000496,175.56865920004202,,,1,1.9835661000106484,,,,,,,,,,,,,,,,,,,,,175.56866920000175,181.57857200002763,Buch,glänzend,"['Buch', 'glänzend']",restudy,3,"['Kette', 'Ring', 'Bürste', 'Vase', 'Kiste', 'Kerze', 'Trommel', 'Kamera', 'Uhr', 'Brille', 'Stift', 'Eimer', 'Würfel', 'Socke', 'Rucksack', 'Tasse', 'Jacke', 'Hut', 'Buch', 'Schere', 'Lampe', 'Flasche', 'Blume', 'Löffel', 'Fahrrad', 'Geige', 'Tasche', 'Schlüssel', 'Hammer', 'Telefon']","['schlicht', 'kurz', 'strahlend', 'klobig', 'nass', 'durchsichtig', 'gut', 'schmutzig', 'hübsch', 'krumm', 'dick', 'groß', 'kaputt', 'dunkel', 'praktisch', 'nachhaltig', 'flach', 'verspielt', 'glänzend']",1,1.9835661000106484,None,,,,,,,,,,,,,,,,,,,,,,,,,,,,,,,,,,,,,,,,,,,,,,,,,,,,,,,,,,,,,,,,,3,2023-11-27_09h31.08.509,watkins1,2023.2.3,99.78098072905604,14,2023-11-27 09h31.17.389019 +0000,
,,,,,,,19,0,19,0,,,,,,,,,,,,,,,,,181.588151700038,,,,,,,,,,181.57911420002347,182.07009839999955,,,1,1.7069996000500396,,,,,,,,,,,,,,,,,,,,,182.070108600019,188.07638159999624,Schere,kratzig,"['Schere', 'kratzig']",test_adj,3,"['Kette', 'Ring', 'Bürste', 'Vase', 'Kiste', 'Kerze', 'Trommel', 'Kamera', 'Uhr', 'Brille', 'Stift', 'Eimer', 'Würfel', 'Socke', 'Rucksack', 'Tasse', 'Jacke', 'Hut', 'Buch', 'Schere', 'Lampe', 'Flasche', 'Blume', 'Löffel', 'Fahrrad', 'Geige', 'Tasche', 'Schlüssel', 'Hammer', 'Telefon']","['schlicht', 'kurz', 'strahlend', 'klobig', 'nass', 'durchsichtig', 'gut', 'schmutzig', 'hübsch', 'krumm', 'dick', 'groß', 'kaputt', 'dunkel', 'praktisch', 'nachhaltig', 'flach', 'verspielt', 'glänzend', 'kratzig']",1,1.7069996000500396,None,,,,,,,,,,,,,,,,,,,,,,,,,,,,,,,,,,,,,,,,,,,,,,,,,,,,,,,,,,,,,,,,,3,2023-11-27_09h31.08.509,watkins1,2023.2.3,99.78098072905604,14,2023-11-27 09h31.17.389019 +0000,
,,,,,,,20,0,20,0,,,,,,,,,,,,,,,,,188.08582610002486,,,,,,,,,,188.07690929999808,188.56791420001537,,,1,1.5524921999895014,,,,,,,,,,,,,,,,,,,,,188.56792410003254,194.56970829999773,Lampe,bunt,"['Lampe', 'bunt']",test_adj,3,"['Kette', 'Ring', 'Bürste', 'Vase', 'Kiste', 'Kerze', 'Trommel', 'Kamera', 'Uhr', 'Brille', 'Stift', 'Eimer', 'Würfel', 'Socke', 'Rucksack', 'Tasse', 'Jacke', 'Hut', 'Buch', 'Schere', 'Lampe', 'Flasche', 'Blume', 'Löffel', 'Fahrrad', 'Geige', 'Tasche', 'Schlüssel', 'Hammer', 'Telefon']","['schlicht', 'kurz', 'strahlend', 'klobig', 'nass', 'durchsichtig', 'gut', 'schmutzig', 'hübsch', 'krumm', 'dick', 'groß', 'kaputt', 'dunkel', 'praktisch', 'nachhaltig', 'flach', 'verspielt', 'glänzend', 'kratzig', 'bunt']",1,1.5524921999895014,None,,,,,,,,,,,,,,,,,,,,,,,,,,,,,,,,,,,,,,,,,,,,,,,,,,,,,,,,,,,,,,,,,3,2023-11-27_09h31.08.509,watkins1,2023.2.3,99.78098072905604,14,2023-11-27 09h31.17.389019 +0000,
,,,,,,,21,0,21,0,,,,,,,,,,,,,,,,,194.57928300002823,,,,,,,,,,194.57024620001903,195.0612007000018,,,1,4.059175800008234,,,,,,,,,,,,,,,,,,,,,195.06121140002506,201.06678340001963,Flasche,blass,"['Flasche', 'blass']",test_adj,3,"['Kette', 'Ring', 'Bürste', 'Vase', 'Kiste', 'Kerze', 'Trommel', 'Kamera', 'Uhr', 'Brille', 'Stift', 'Eimer', 'Würfel', 'Socke', 'Rucksack', 'Tasse', 'Jacke', 'Hut', 'Buch', 'Schere', 'Lampe', 'Flasche', 'Blume', 'Löffel', 'Fahrrad', 'Geige', 'Tasche', 'Schlüssel', 'Hammer', 'Telefon']","['schlicht', 'kurz', 'strahlend', 'klobig', 'nass', 'durchsichtig', 'gut', 'schmutzig', 'hübsch', 'krumm', 'dick', 'groß', 'kaputt', 'dunkel', 'praktisch', 'nachhaltig', 'flach', 'verspielt', 'glänzend', 'kratzig', 'bunt', 'blass']",1,4.059175800008234,None,,,,,,,,,,,,,,,,,,,,,,,,,,,,,,,,,,,,,,,,,,,,,,,,,,,,,,,,,,,,,,,,,3,2023-11-27_09h31.08.509,watkins1,2023.2.3,99.78098072905604,14,2023-11-27 09h31.17.389019 +0000,
,,,,,,,22,0,22,0,,,,,,,,,,,,,,,,,201.07625770004233,,,,,,,,,,201.06732790003298,201.55821899999864,,,1,1.922794999962207,,,,,,,,,,,,,,,,,,,,,201.55822940001963,207.5657302000327,Blume,kalt,"['Blume', 'kalt']",restudy,3,"['Kette', 'Ring', 'Bürste', 'Vase', 'Kiste', 'Kerze', 'Trommel', 'Kamera', 'Uhr', 'Brille', 'Stift', 'Eimer', 'Würfel', 'Socke', 'Rucksack', 'Tasse', 'Jacke', 'Hut', 'Buch', 'Schere', 'Lampe', 'Flasche', 'Blume', 'Löffel', 'Fahrrad', 'Geige', 'Tasche', 'Schlüssel', 'Hammer', 'Telefon']","['schlicht', 'kurz', 'strahlend', 'klobig', 'nass', 'durchsichtig', 'gut', 'schmutzig', 'hübsch', 'krumm', 'dick', 'groß', 'kaputt', 'dunkel', 'praktisch', 'nachhaltig', 'flach', 'verspielt', 'glänzend', 'kratzig', 'bunt', 'blass', 'kalt']",1,1.922794999962207,None,,,,,,,,,,,,,,,,,,,,,,,,,,,,,,,,,,,,,,,,,,,,,,,,,,,,,,,,,,,,,,,,,3,2023-11-27_09h31.08.509,watkins1,2023.2.3,99.78098072905604,14,2023-11-27 09h31.17.389019 +0000,
,,,,,,,23,0,23,0,,,,,,,,,,,,,,,,,207.57520479999948,,,,,,,,,,207.5662508000387,208.05721160001121,,,2,4.702988600009121,,,,,,,,,,,,,,,,,,,,,208.05722180003067,214.06667890003882,Löffel,neu,"['Löffel', 'neu']",restudy,3,"['Kette', 'Ring', 'Bürste', 'Vase', 'Kiste', 'Kerze', 'Trommel', 'Kamera', 'Uhr', 'Brille', 'Stift', 'Eimer', 'Würfel', 'Socke', 'Rucksack', 'Tasse', 'Jacke', 'Hut', 'Buch', 'Schere', 'Lampe', 'Flasche', 'Blume', 'Löffel', 'Fahrrad', 'Geige', 'Tasche', 'Schlüssel', 'Hammer', 'Telefon']","['schlicht', 'kurz', 'strahlend', 'klobig', 'nass', 'durchsichtig', 'gut', 'schmutzig', 'hübsch', 'krumm', 'dick', 'groß', 'kaputt', 'dunkel', 'praktisch', 'nachhaltig', 'flach', 'verspielt', 'glänzend', 'kratzig', 'bunt', 'blass', 'kalt', 'neu']",2,4.702988600009121,None,,,,,,,,,,,,,,,,,,,,,,,,,,,,,,,,,,,,,,,,,,,,,,,,,,,,,,,,,,,,,,,,,3,2023-11-27_09h31.08.509,watkins1,2023.2.3,99.78098072905604,14,2023-11-27 09h31.17.389019 +0000,
,,,,,,,24,0,24,0,,,,,,,,,,,,,,,,,214.07615229999647,,,,,,,,,,214.067207300046,214.5581524000154,,,1,1.6190058999927714,,,,,,,,,,,,,,,,,,,,,214.55816230003256,220.56870830000844,Fahrrad,hohl,"['Fahrrad', 'hohl']",test_adj,3,"['Kette', 'Ring', 'Bürste', 'Vase', 'Kiste', 'Kerze', 'Trommel', 'Kamera', 'Uhr', 'Brille', 'Stift', 'Eimer', 'Würfel', 'Socke', 'Rucksack', 'Tasse', 'Jacke', 'Hut', 'Buch', 'Schere', 'Lampe', 'Flasche', 'Blume', 'Löffel', 'Fahrrad', 'Geige', 'Tasche', 'Schlüssel', 'Hammer', 'Telefon']","['schlicht', 'kurz', 'strahlend', 'klobig', 'nass', 'durchsichtig', 'gut', 'schmutzig', 'hübsch', 'krumm', 'dick', 'groß', 'kaputt', 'dunkel', 'praktisch', 'nachhaltig', 'flach', 'verspielt', 'glänzend', 'kratzig', 'bunt', 'blass', 'kalt', 'neu', 'hohl']",1,1.6190058999927714,None,,,,,,,,,,,,,,,,,,,,,,,,,,,,,,,,,,,,,,,,,,,,,,,,,,,,,,,,,,,,,,,,,3,2023-11-27_09h31.08.509,watkins1,2023.2.3,99.78098072905604,14,2023-11-27 09h31.17.389019 +0000,
,,,,,,,25,0,25,0,,,,,,,,,,,,,,,,,220.5781760000391,,,,,,,,,,220.56923280004412,221.06019210000522,,,2,1.707968599977903,,,,,,,,,,,,,,,,,,,,,221.06020170002012,227.0623775999993,Geige,sauber,"['Geige', 'sauber']",restudy,3,"['Kette', 'Ring', 'Bürste', 'Vase', 'Kiste', 'Kerze', 'Trommel', 'Kamera', 'Uhr', 'Brille', 'Stift', 'Eimer', 'Würfel', 'Socke', 'Rucksack', 'Tasse', 'Jacke', 'Hut', 'Buch', 'Schere', 'Lampe', 'Flasche', 'Blume', 'Löffel', 'Fahrrad', 'Geige', 'Tasche', 'Schlüssel', 'Hammer', 'Telefon']","['schlicht', 'kurz', 'strahlend', 'klobig', 'nass', 'durchsichtig', 'gut', 'schmutzig', 'hübsch', 'krumm', 'dick', 'groß', 'kaputt', 'dunkel', 'praktisch', 'nachhaltig', 'flach', 'verspielt', 'glänzend', 'kratzig', 'bunt', 'blass', 'kalt', 'neu', 'hohl', 'sauber']",2,1.707968599977903,None,,,,,,,,,,,,,,,,,,,,,,,,,,,,,,,,,,,,,,,,,,,,,,,,,,,,,,,,,,,,,,,,,3,2023-11-27_09h31.08.509,watkins1,2023.2.3,99.78098072905604,14,2023-11-27 09h31.17.389019 +0000,
,,,,,,,26,0,26,0,,,,,,,,,,,,,,,,,227.07179480005288,,,,,,,,,,227.0629067000118,227.5539028000203,,,3,2.470985899970401,,,,,,,,,,,,,,,,,,,,,227.55391300003976,233.56174900004407,Tasche,gestreift,"['Tasche', 'gestreift']",restudy,3,"['Kette', 'Ring', 'Bürste', 'Vase', 'Kiste', 'Kerze', 'Trommel', 'Kamera', 'Uhr', 'Brille', 'Stift', 'Eimer', 'Würfel', 'Socke', 'Rucksack', 'Tasse', 'Jacke', 'Hut', 'Buch', 'Schere', 'Lampe', 'Flasche', 'Blume', 'Löffel', 'Fahrrad', 'Geige', 'Tasche', 'Schlüssel', 'Hammer', 'Telefon']","['schlicht', 'kurz', 'strahlend', 'klobig', 'nass', 'durchsichtig', 'gut', 'schmutzig', 'hübsch', 'krumm', 'dick', 'groß', 'kaputt', 'dunkel', 'praktisch', 'nachhaltig', 'flach', 'verspielt', 'glänzend', 'kratzig', 'bunt', 'blass', 'kalt', 'neu', 'hohl', 'sauber', 'gestreift']",3,2.470985899970401,None,,,,,,,,,,,,,,,,,,,,,,,,,,,,,,,,,,,,,,,,,,,,,,,,,,,,,,,,,,,,,,,,,3,2023-11-27_09h31.08.509,watkins1,2023.2.3,99.78098072905604,14,2023-11-27 09h31.17.389019 +0000,
,,,,,,,27,0,27,0,,,,,,,,,,,,,,,,,233.5713332000305,,,,,,,,,,233.56227220001165,234.0532498000539,,,1,1.563706999993883,,,,,,,,,,,,,,,,,,,,,234.05325940001057,240.05832589999773,Schlüssel,rustikal,"['Schlüssel', 'rustikal']",test_adj,3,"['Kette', 'Ring', 'Bürste', 'Vase', 'Kiste', 'Kerze', 'Trommel', 'Kamera', 'Uhr', 'Brille', 'Stift', 'Eimer', 'Würfel', 'Socke', 'Rucksack', 'Tasse', 'Jacke', 'Hut', 'Buch', 'Schere', 'Lampe', 'Flasche', 'Blume', 'Löffel', 'Fahrrad', 'Geige', 'Tasche', 'Schlüssel', 'Hammer', 'Telefon']","['schlicht', 'kurz', 'strahlend', 'klobig', 'nass', 'durchsichtig', 'gut', 'schmutzig', 'hübsch', 'krumm', 'dick', 'groß', 'kaputt', 'dunkel', 'praktisch', 'nachhaltig', 'flach', 'verspielt', 'glänzend', 'kratzig', 'bunt', 'blass', 'kalt', 'neu', 'hohl', 'sauber', 'gestreift', 'rustikal']",1,1.563706999993883,None,,,,,,,,,,,,,,,,,,,,,,,,,,,,,,,,,,,,,,,,,,,,,,,,,,,,,,,,,,,,,,,,,3,2023-11-27_09h31.08.509,watkins1,2023.2.3,99.78098072905604,14,2023-11-27 09h31.17.389019 +0000,
,,,,,,,28,0,28,0,,,,,,,,,,,,,,,,,240.06780220003566,,,,,,,,,,240.05885460000718,240.55568610003684,,,1,1.2932046999922022,,,,,,,,,,,,,,,,,,,,,240.55569660000037,246.5616198000498,Hammer,niedlich,"['Hammer', 'niedlich']",restudy,3,"['Kette', 'Ring', 'Bürste', 'Vase', 'Kiste', 'Kerze', 'Trommel', 'Kamera', 'Uhr', 'Brille', 'Stift', 'Eimer', 'Würfel', 'Socke', 'Rucksack', 'Tasse', 'Jacke', 'Hut', 'Buch', 'Schere', 'Lampe', 'Flasche', 'Blume', 'Löffel', 'Fahrrad', 'Geige', 'Tasche', 'Schlüssel', 'Hammer', 'Telefon']","['schlicht', 'kurz', 'strahlend', 'klobig', 'nass', 'durchsichtig', 'gut', 'schmutzig', 'hübsch', 'krumm', 'dick', 'groß', 'kaputt', 'dunkel', 'praktisch', 'nachhaltig', 'flach', 'verspielt', 'glänzend', 'kratzig', 'bunt', 'blass', 'kalt', 'neu', 'hohl', 'sauber', 'gestreift', 'rustikal', 'niedlich']",1,1.2932046999922022,None,,,,,,,,,,,,,,,,,,,,,,,,,,,,,,,,,,,,,,,,,,,,,,,,,,,,,,,,,,,,,,,,,3,2023-11-27_09h31.08.509,watkins1,2023.2.3,99.78098072905604,14,2023-11-27 09h31.17.389019 +0000,
,,,,,,,29,0,29,0,,,,,,,,,,,,,,,,,246.57111320004333,,,,,,,,,,246.56214650004404,247.05302150000352,,,1,2.332053200050723,,,,,,,,,,,,,,,,,,,,,247.0530314000207,253.0573723000125,Telefon,zart,"['Telefon', 'zart']",test_adj,3,"['Kette', 'Ring', 'Bürste', 'Vase', 'Kiste', 'Kerze', 'Trommel', 'Kamera', 'Uhr', 'Brille', 'Stift', 'Eimer', 'Würfel', 'Socke', 'Rucksack', 'Tasse', 'Jacke', 'Hut', 'Buch', 'Schere', 'Lampe', 'Flasche', 'Blume', 'Löffel', 'Fahrrad', 'Geige', 'Tasche', 'Schlüssel', 'Hammer', 'Telefon']","['schlicht', 'kurz', 'strahlend', 'klobig', 'nass', 'durchsichtig', 'gut', 'schmutzig', 'hübsch', 'krumm', 'dick', 'groß', 'kaputt', 'dunkel', 'praktisch', 'nachhaltig', 'flach', 'verspielt', 'glänzend', 'kratzig', 'bunt', 'blass', 'kalt', 'neu', 'hohl', 'sauber', 'gestreift', 'rustikal', 'niedlich', 'zart']",1,2.332053200050723,None,,,,,,,,,,,,,,,,,,,,,,,,,,,,,,,,,,,,,,,,,,,,,,,,,,,,,,,,,,,,,,,,,3,2023-11-27_09h31.08.509,watkins1,2023.2.3,99.78098072905604,14,2023-11-27 09h31.17.389019 +0000,
,,,,,,,,,,,0,0,0,0,,,,,,,,,,,,,253.06680180004332,,,,,,,,,,253.05821970000397,253.54875220003305,,,[],[],,,,,,,,,,,,None,None,,,,,,,,,,Vase,klobig,"['Vase', 'klobig']",restudy,3,,,,,,253.0581424999982,253.05819020001218,"['Vase', 'Rucksack', 'Schlüssel', 'Löffel', 'Hammer', 'Würfel', 'Buch', 'Kamera', 'Flasche', 'Fahrrad', 'Kette', 'Kiste', 'Blume', 'Tasche', 'Tasse', 'Ring', 'Jacke', 'Kerze', 'Schere', 'Uhr', 'Stift', 'Eimer', 'Socke', 'Trommel', 'Lampe', 'Telefon', 'Bürste', 'Hut', 'Geige', 'Brille']",253.54876279999735,253.55117730004713,None,253.55136169999605,259.5535528000328,1,2.9691310999915004,None,259.5539757000515,259.5565292999963,None,259.55668890004745,259.55782129999716,259.55783400003565,259.55899540003156,,,,,,,,,,,,,,,,,,,,,,,,,,,,,,,,,,,,,,,,,,,,,,,3,2023-11-27_09h31.08.509,watkins1,2023.2.3,99.78098072905604,14,2023-11-27 09h31.17.389019 +0000,
,,,,,,,,,,,1,0,1,0,,,,,,,,,,,,,259.56302690005396,,,,,,,,,,259.55928180000046,260.0551028000191,,,[],[],,,,,,,,,,,praktisch,None,None,,,,,,,,,,Rucksack,praktisch,"['Rucksack', 'praktisch']",test_adj,3,,,,,,259.5592176000355,259.55925510003,"['Vase', 'Rucksack', 'Schlüssel', 'Löffel', 'Hammer', 'Würfel', 'Buch', 'Kamera', 'Flasche', 'Fahrrad', 'Kette', 'Kiste', 'Blume', 'Tasche', 'Tasse', 'Ring', 'Jacke', 'Kerze', 'Schere', 'Uhr', 'Stift', 'Eimer', 'Socke', 'Trommel', 'Lampe', 'Telefon', 'Bürste', 'Hut', 'Geige', 'Brille']",260.055112800037,260.0578536000103,None,260.0579775000224,260.0594530000235,None,,,260.05957580002723,260.0613326000166,None,260.0614434000454,266.0638156000059,266.0638297999976,266.06519420002587,0,,,,,,,,,,,,,,,,,,,,,,,,,,,,,,,,,,,,,,,,,,,,,,3,2023-11-27_09h31.08.509,watkins1,2023.2.3,99.78098072905604,14,2023-11-27 09h31.17.389019 +0000,
,,,,,,,,,,,2,0,2,0,,,,,,,,,,,,,266.07362460001605,,,,,,,,,,266.0654854000313,266.55555380001897,,,[],[],,,,,,,,,,,,None,None,,,,,,,,,,Schlüssel,rustikal,"['Schlüssel', 'rustikal']",test_adj,3,,,,,,266.06541810004273,266.0654565000441,"['Vase', 'Rucksack', 'Schlüssel', 'Löffel', 'Hammer', 'Würfel', 'Buch', 'Kamera', 'Flasche', 'Fahrrad', 'Kette', 'Kiste', 'Blume', 'Tasche', 'Tasse', 'Ring', 'Jacke', 'Kerze', 'Schere', 'Uhr', 'Stift', 'Eimer', 'Socke', 'Trommel', 'Lampe', 'Telefon', 'Bürste', 'Hut', 'Geige', 'Brille']",266.55556450004224,266.55838460003724,None,266.55851030000485,266.5612882000278,None,,,266.5613994000014,266.564022800012,None,266.5641365000047,272.56867130001774,272.56868520000717,272.5700369999977,0,,,,,,,,,,,,,,,,,,,,,,,,,,,,,,,,,,,,,,,,,,,,,,3,2023-11-27_09h31.08.509,watkins1,2023.2.3,99.78098072905604,14,2023-11-27 09h31.17.389019 +0000,
,,,,,,,,,,,3,0,3,0,,,,,,,,,,,,,272.57840590004344,,,,,,,,,,272.57032330002403,273.0608128000167,,,[],[],,,,,,,,,,,,None,None,,,,,,,,,,Löffel,neu,"['Löffel', 'neu']",restudy,3,,,,,,272.57025550003164,272.57029480003985,"['Vase', 'Rucksack', 'Schlüssel', 'Löffel', 'Hammer', 'Würfel', 'Buch', 'Kamera', 'Flasche', 'Fahrrad', 'Kette', 'Kiste', 'Blume', 'Tasche', 'Tasse', 'Ring', 'Jacke', 'Kerze', 'Schere', 'Uhr', 'Stift', 'Eimer', 'Socke', 'Trommel', 'Lampe', 'Telefon', 'Bürste', 'Hut', 'Geige', 'Brille']",273.06082330003846,273.063539099996,None,273.0636624000035,279.06728630000725,2,4.8175567999714985,None,279.06757950002793,279.0700763000059,None,279.07019020000007,279.07135790004395,279.0713697000174,279.07237700000405,,,,,,,,,,,,,,,,,,,,,,,,,,,,,,,,,,,,,,,,,,,,,,,3,2023-11-27_09h31.08.509,watkins1,2023.2.3,99.78098072905604,14,2023-11-27 09h31.17.389019 +0000,
,,,,,,,,,,,4,0,4,0,,,,,,,,,,,,,279.07676270004595,,,,,,,,,,279.0726604000083,279.56876360002207,,,[],[],,,,,,,,,,,,None,None,,,,,,,,,,Hammer,niedlich,"['Hammer', 'niedlich']",restudy,3,,,,,,279.0725953000365,279.07263320003403,"['Vase', 'Rucksack', 'Schlüssel', 'Löffel', 'Hammer', 'Würfel', 'Buch', 'Kamera', 'Flasche', 'Fahrrad', 'Kette', 'Kiste', 'Blume', 'Tasche', 'Tasse', 'Ring', 'Jacke', 'Kerze', 'Schere', 'Uhr', 'Stift', 'Eimer', 'Socke', 'Trommel', 'Lampe', 'Telefon', 'Bürste', 'Hut', 'Geige', 'Brille']",279.5687747000484,279.57128110004123,None,279.5714062000043,285.57284450001316,1,1.8050426000263542,None,285.5731411000015,285.57591380004305,None,285.57602630002657,285.57720360002713,285.5772156000021,285.5784239000059,,,,,,,,,,,,,,,,,,,,,,,,,,,,,,,,,,,,,,,,,,,,,,,3,2023-11-27_09h31.08.509,watkins1,2023.2.3,99.78098072905604,14,2023-11-27 09h31.17.389019 +0000,
,,,,,,,,,,,5,0,5,0,,,,,,,,,,,,,285.5822921000072,,,,,,,,,,285.5787057999987,286.0743572000065,,,[],[],,,,,,,,,,,,None,None,,,,,,,,,,Würfel,kaputt,"['Würfel', 'kaputt']",restudy,3,,,,,,285.5786409000284,285.5786789000267,"['Vase', 'Rucksack', 'Schlüssel', 'Löffel', 'Hammer', 'Würfel', 'Buch', 'Kamera', 'Flasche', 'Fahrrad', 'Kette', 'Kiste', 'Blume', 'Tasche', 'Tasse', 'Ring', 'Jacke', 'Kerze', 'Schere', 'Uhr', 'Stift', 'Eimer', 'Socke', 'Trommel', 'Lampe', 'Telefon', 'Bürste', 'Hut', 'Geige', 'Brille']",286.0743672000244,286.07745450001676,None,286.0775767000159,292.08109790005255,1,1.947305400040932,None,292.0813992000185,292.0841438000207,None,292.0842594000278,292.08544240001356,292.0854545000475,292.0866304000374,,,,,,,,,,,,,,,,,,,,,,,,,,,,,,,,,,,,,,,,,,,,,,,3,2023-11-27_09h31.08.509,watkins1,2023.2.3,99.78098072905604,14,2023-11-27 09h31.17.389019 +0000,
,,,,,,,,,,,6,0,6,0,,,,,,,,,,,,,292.09049460000824,,,,,,,,,,292.0869153000531,292.58264660002897,,,[],[],,,,,,,,,,,,None,None,,,,,,,,,,Buch,glänzend,"['Buch', 'glänzend']",restudy,3,,,,,,292.0868487000116,292.08688640000764,"['Vase', 'Rucksack', 'Schlüssel', 'Löffel', 'Hammer', 'Würfel', 'Buch', 'Kamera', 'Flasche', 'Fahrrad', 'Kette', 'Kiste', 'Blume', 'Tasche', 'Tasse', 'Ring', 'Jacke', 'Kerze', 'Schere', 'Uhr', 'Stift', 'Eimer', 'Socke', 'Trommel', 'Lampe', 'Telefon', 'Bürste', 'Hut', 'Geige', 'Brille']",292.58265700004995,292.5853670000215,None,292.58549290004885,298.5889103000518,1,1.9673661999986507,None,298.58920919999946,298.5918354000314,None,298.59194990003016,298.59299390000524,298.59300550003536,298.594220900035,,,,,,,,,,,,,,,,,,,,,,,,,,,,,,,,,,,,,,,,,,,,,,,3,2023-11-27_09h31.08.509,watkins1,2023.2.3,99.78098072905604,14,2023-11-27 09h31.17.389019 +0000,
,,,,,,,,,,,7,0,7,0,,,,,,,,,,,,,298.59833320003236,,,,,,,,,,298.59450690000085,299.0904950000113,,,[],[],,,,,,,,,,,,None,None,,,,,,,,,,Kamera,schmutzig,"['Kamera', 'schmutzig']",restudy,3,,,,,,298.5944406000199,298.59447950002505,"['Vase', 'Rucksack', 'Schlüssel', 'Löffel', 'Hammer', 'Würfel', 'Buch', 'Kamera', 'Flasche', 'Fahrrad', 'Kette', 'Kiste', 'Blume', 'Tasche', 'Tasse', 'Ring', 'Jacke', 'Kerze', 'Schere', 'Uhr', 'Stift', 'Eimer', 'Socke', 'Trommel', 'Lampe', 'Telefon', 'Bürste', 'Hut', 'Geige', 'Brille']",299.0905056000338,299.09337240003515,None,299.0934957000427,305.09683360002236,2,1.795319400029257,None,305.09713870001724,305.0998810000019,None,305.0999939000467,305.101177500037,305.1011900000158,305.1024290000205,,,,,,,,,,,,,,,,,,,,,,,,,,,,,,,,,,,,,,,,,,,,,,,3,2023-11-27_09h31.08.509,watkins1,2023.2.3,99.78098072905604,14,2023-11-27 09h31.17.389019 +0000,
,,,,,,,,,,,8,0,8,0,,,,,,,,,,,,,305.1063027000055,,,,,,,,,,305.1027100000065,305.59825020004064,,,[],[],,,,,,,,,,,,None,None,,,,,,,,,,Flasche,blass,"['Flasche', 'blass']",test_adj,3,,,,,,305.1026445000316,305.10268270003144,"['Vase', 'Rucksack', 'Schlüssel', 'Löffel', 'Hammer', 'Würfel', 'Buch', 'Kamera', 'Flasche', 'Fahrrad', 'Kette', 'Kiste', 'Blume', 'Tasche', 'Tasse', 'Ring', 'Jacke', 'Kerze', 'Schere', 'Uhr', 'Stift', 'Eimer', 'Socke', 'Trommel', 'Lampe', 'Telefon', 'Bürste', 'Hut', 'Geige', 'Brille']",305.59826080000494,305.60120900004404,None,305.6013343000086,305.6027871000115,None,,,305.60289970005397,305.6043565000291,None,305.60446709999815,311.60735600005137,311.60737000004156,311.6087352000177,0,,,,,,,,,,,,,,,,,,,,,,,,,,,,,,,,,,,,,,,,,,,,,,3,2023-11-27_09h31.08.509,watkins1,2023.2.3,99.78098072905604,14,2023-11-27 09h31.17.389019 +0000,
,,,,,,,,,,,9,0,9,0,,,,,,,,,,,,,311.6171566999983,,,,,,,,,,311.6090162000037,312.0992383999983,,,[],[],,,,,,,,,,,hohl,None,None,,,,,,,,,,Fahrrad,hohl,"['Fahrrad', 'hohl']",test_adj,3,,,,,,311.60895130003337,311.6089880000218,"['Vase', 'Rucksack', 'Schlüssel', 'Löffel', 'Hammer', 'Würfel', 'Buch', 'Kamera', 'Flasche', 'Fahrrad', 'Kette', 'Kiste', 'Blume', 'Tasche', 'Tasse', 'Ring', 'Jacke', 'Kerze', 'Schere', 'Uhr', 'Stift', 'Eimer', 'Socke', 'Trommel', 'Lampe', 'Telefon', 'Bürste', 'Hut', 'Geige', 'Brille']",312.09924910002155,312.10192360001383,None,312.1020447000046,312.1046070000157,None,,,312.1047182000475,312.1072511000093,None,312.107361100032,318.1111111000064,318.1111252999981,318.11226800002623,0,,,,,,,,,,,,,,,,,,,,,,,,,,,,,,,,,,,,,,,,,,,,,,3,2023-11-27_09h31.08.509,watkins1,2023.2.3,99.78098072905604,14,2023-11-27 09h31.17.389019 +0000,
,,,,,,,,,,,10,0,10,0,,,,,,,,,,,,,318.1210156000452,,,,,,,,,,318.1125542000518,318.60300810000626,,,[],[],,,,,,,,,,,,None,None,,,,,,,,,,Kette,schlicht,"['Kette', 'schlicht']",restudy,3,,,,,,318.1124880000134,318.11252560000867,"['Vase', 'Rucksack', 'Schlüssel', 'Löffel', 'Hammer', 'Würfel', 'Buch', 'Kamera', 'Flasche', 'Fahrrad', 'Kette', 'Kiste', 'Blume', 'Tasche', 'Tasse', 'Ring', 'Jacke', 'Kerze', 'Schere', 'Uhr', 'Stift', 'Eimer', 'Socke', 'Trommel', 'Lampe', 'Telefon', 'Bürste', 'Hut', 'Geige', 'Brille']",318.6030191000318,318.60554390004836,None,318.6056693000137,324.6155651000445,1,3.683314200025052,None,324.6158623000374,324.6185694000451,None,324.6186832000385,324.62015680002514,324.6201690000016,324.6213734000339,,,,,,,,,,,,,,,,,,,,,,,,,,,,,,,,,,,,,,,,,,,,,,,3,2023-11-27_09h31.08.509,watkins1,2023.2.3,99.78098072905604,14,2023-11-27 09h31.17.389019 +0000,
,,,,,,,,,,,11,0,11,0,,,,,,,,,,,,,324.62502650002716,,,,,,,,,,324.6216541000176,325.1170838000253,,,[],[],,,,,,,,,,,,None,None,,,,,,,,,,Kiste,nass,"['Kiste', 'nass']",restudy,3,,,,,,324.621588900045,324.62162740004715,"['Vase', 'Rucksack', 'Schlüssel', 'Löffel', 'Hammer', 'Würfel', 'Buch', 'Kamera', 'Flasche', 'Fahrrad', 'Kette', 'Kiste', 'Blume', 'Tasche', 'Tasse', 'Ring', 'Jacke', 'Kerze', 'Schere', 'Uhr', 'Stift', 'Eimer', 'Socke', 'Trommel', 'Lampe', 'Telefon', 'Bürste', 'Hut', 'Geige', 'Brille']",325.1170938000432,325.11978340003407,None,325.11990740004694,331.12351430003764,2,4.225218200008385,None,331.12380400003167,331.1263017000165,None,331.1264144000015,331.1275632000179,331.12757500004955,331.12859940005,,,,,,,,,,,,,,,,,,,,,,,,,,,,,,,,,,,,,,,,,,,,,,,3,2023-11-27_09h31.08.509,watkins1,2023.2.3,99.78098072905604,14,2023-11-27 09h31.17.389019 +0000,
,,,,,,,,,,,12,0,12,0,,,,,,,,,,,,,331.13309750001645,,,,,,,,,,331.1288773000124,331.6251304000034,,,[],[],,,,,,,,,,,,None,None,,,,,,,,,,Blume,kalt,"['Blume', 'kalt']",restudy,3,,,,,,331.12881380005274,331.12885080004344,"['Vase', 'Rucksack', 'Schlüssel', 'Löffel', 'Hammer', 'Würfel', 'Buch', 'Kamera', 'Flasche', 'Fahrrad', 'Kette', 'Kiste', 'Blume', 'Tasche', 'Tasse', 'Ring', 'Jacke', 'Kerze', 'Schere', 'Uhr', 'Stift', 'Eimer', 'Socke', 'Trommel', 'Lampe', 'Telefon', 'Bürste', 'Hut', 'Geige', 'Brille']",331.62514090002514,331.62768260005396,None,331.627807700017,337.63111180003034,1,1.6691735000349581,None,337.63140960002784,337.6340326000354,None,337.63415260001784,337.63530780002475,337.6353197999997,337.63635740004247,,,,,,,,,,,,,,,,,,,,,,,,,,,,,,,,,,,,,,,,,,,,,,,3,2023-11-27_09h31.08.509,watkins1,2023.2.3,99.78098072905604,14,2023-11-27 09h31.17.389019 +0000,
,,,,,,,,,,,13,0,13,0,,,,,,,,,,,,,337.6405930000474,,,,,,,,,,337.63663900003303,338.1326725000399,,,[],[],,,,,,,,,,,,None,None,,,,,,,,,,Tasche,gestreift,"['Tasche', 'gestreift']",restudy,3,,,,,,337.63657420000527,337.6366122000036,"['Vase', 'Rucksack', 'Schlüssel', 'Löffel', 'Hammer', 'Würfel', 'Buch', 'Kamera', 'Flasche', 'Fahrrad', 'Kette', 'Kiste', 'Blume', 'Tasche', 'Tasse', 'Ring', 'Jacke', 'Kerze', 'Schere', 'Uhr', 'Stift', 'Eimer', 'Socke', 'Trommel', 'Lampe', 'Telefon', 'Bürste', 'Hut', 'Geige', 'Brille']",338.13268270000117,338.1352075000177,None,338.13532900001155,344.13851420005085,3,2.2413410000153817,None,344.13880860002246,344.14156980003463,None,344.1416830000235,344.14296580001246,344.1429776000441,344.1442148000351,,,,,,,,,,,,,,,,,,,,,,,,,,,,,,,,,,,,,,,,,,,,,,,3,2023-11-27_09h31.08.509,watkins1,2023.2.3,99.78098072905604,14,2023-11-27 09h31.17.389019 +0000,
,,,,,,,,,,,14,0,14,0,,,,,,,,,,,,,344.1479925000458,,,,,,,,,,344.14449520001654,344.6399262000341,,,[],[],,,,,,,,,,,nachhaltig,None,None,,,,,,,,,,Tasse,nachhaltig,"['Tasse', 'nachhaltig']",test_adj,3,,,,,,344.14443020004546,344.14446830004454,"['Vase', 'Rucksack', 'Schlüssel', 'Löffel', 'Hammer', 'Würfel', 'Buch', 'Kamera', 'Flasche', 'Fahrrad', 'Kette', 'Kiste', 'Blume', 'Tasche', 'Tasse', 'Ring', 'Jacke', 'Kerze', 'Schere', 'Uhr', 'Stift', 'Eimer', 'Socke', 'Trommel', 'Lampe', 'Telefon', 'Bürste', 'Hut', 'Geige', 'Brille']",344.63993740000296,344.6426588000031,None,344.642784900032,344.6441755000269,None,,,344.6442821000237,344.6456730000209,None,344.6457833000459,350.6481014000019,350.6481156000518,350.64949090004666,0,,,,,,,,,,,,,,,,,,,,,,,,,,,,,,,,,,,,,,,,,,,,,,3,2023-11-27_09h31.08.509,watkins1,2023.2.3,99.78098072905604,14,2023-11-27 09h31.17.389019 +0000,
,,,,,,,,,,,15,0,15,0,,,,,,,,,,,,,350.6569969000411,,,,,,,,,,350.64977920003,351.1489397000405,,,[],[],,,,,,,,,,,kurz,None,None,,,,,,,,,,Ring,kurz,"['Ring', 'kurz']",test_adj,3,,,,,,350.6497117000399,350.6497506000451,"['Vase', 'Rucksack', 'Schlüssel', 'Löffel', 'Hammer', 'Würfel', 'Buch', 'Kamera', 'Flasche', 'Fahrrad', 'Kette', 'Kiste', 'Blume', 'Tasche', 'Tasse', 'Ring', 'Jacke', 'Kerze', 'Schere', 'Uhr', 'Stift', 'Eimer', 'Socke', 'Trommel', 'Lampe', 'Telefon', 'Bürste', 'Hut', 'Geige', 'Brille']",351.1489501000033,351.15154370001983,None,351.1516646000091,351.15414590004366,None,,,351.1542576000211,351.1567131000338,None,351.1568218000466,357.1601620000438,357.1601759000332,357.1613722000038,0,,,,,,,,,,,,,,,,,,,,,,,,,,,,,,,,,,,,,,,,,,,,,,3,2023-11-27_09h31.08.509,watkins1,2023.2.3,99.78098072905604,14,2023-11-27 09h31.17.389019 +0000,
,,,,,,,,,,,16,0,16,0,,,,,,,,,,,,,357.1699620000436,,,,,,,,,,357.16166010004235,357.6519840999972,,,[],[],,,,,,,,,,,,None,None,,,,,,,,,,Jacke,flach,"['Jacke', 'flach']",restudy,3,,,,,,357.1615919000469,357.1616311999969,"['Vase', 'Rucksack', 'Schlüssel', 'Löffel', 'Hammer', 'Würfel', 'Buch', 'Kamera', 'Flasche', 'Fahrrad', 'Kette', 'Kiste', 'Blume', 'Tasche', 'Tasse', 'Ring', 'Jacke', 'Kerze', 'Schere', 'Uhr', 'Stift', 'Eimer', 'Socke', 'Trommel', 'Lampe', 'Telefon', 'Bürste', 'Hut', 'Geige', 'Brille']",357.65199410001514,357.65453090000665,None,357.65465300000506,363.6595322000212,1,2.1942000999697484,None,363.6598270999966,363.66245720000006,None,363.6625697000418,363.66402640001616,363.66403860005084,363.6651927000494,,,,,,,,,,,,,,,,,,,,,,,,,,,,,,,,,,,,,,,,,,,,,,,3,2023-11-27_09h31.08.509,watkins1,2023.2.3,99.78098072905604,14,2023-11-27 09h31.17.389019 +0000,
,,,,,,,,,,,17,0,17,0,,,,,,,,,,,,,363.66901050001616,,,,,,,,,,363.66547530004755,364.1608895000536,,,[],[],,,,,,,,,,,,None,None,,,,,,,,,,Kerze,durchsichtig,"['Kerze', 'durchsichtig']",restudy,3,,,,,,363.66541060002055,363.66544840001734,"['Vase', 'Rucksack', 'Schlüssel', 'Löffel', 'Hammer', 'Würfel', 'Buch', 'Kamera', 'Flasche', 'Fahrrad', 'Kette', 'Kiste', 'Blume', 'Tasche', 'Tasse', 'Ring', 'Jacke', 'Kerze', 'Schere', 'Uhr', 'Stift', 'Eimer', 'Socke', 'Trommel', 'Lampe', 'Telefon', 'Bürste', 'Hut', 'Geige', 'Brille']",364.1609003000194,364.16356300003827,None,364.1636904000188,370.16512810002314,1,2.036673199967481,None,370.165431100002,370.16832330002217,None,370.16844080004375,370.16959960001986,370.1696118999971,370.1709169000387,,,,,,,,,,,,,,,,,,,,,,,,,,,,,,,,,,,,,,,,,,,,,,,3,2023-11-27_09h31.08.509,watkins1,2023.2.3,99.78098072905604,14,2023-11-27 09h31.17.389019 +0000,
,,,,,,,,,,,18,0,18,0,,,,,,,,,,,,,370.1745855000336,,,,,,,,,,370.17120060004527,370.66675600002054,,,[],[],,,,,,,,,,,kratzig,None,None,,,,,,,,,,Schere,kratzig,"['Schere', 'kratzig']",test_adj,3,,,,,,370.171135600016,370.17117370001506,"['Vase', 'Rucksack', 'Schlüssel', 'Löffel', 'Hammer', 'Würfel', 'Buch', 'Kamera', 'Flasche', 'Fahrrad', 'Kette', 'Kiste', 'Blume', 'Tasche', 'Tasse', 'Ring', 'Jacke', 'Kerze', 'Schere', 'Uhr', 'Stift', 'Eimer', 'Socke', 'Trommel', 'Lampe', 'Telefon', 'Bürste', 'Hut', 'Geige', 'Brille']",370.66676620004,370.669752900023,None,370.66987780004274,370.67133440001635,None,,,370.67144570004893,370.6728910000529,None,370.67300010001054,376.675184599997,376.67519870004617,376.6765046000364,0,,,,,,,,,,,,,,,,,,,,,,,,,,,,,,,,,,,,,,,,,,,,,,3,2023-11-27_09h31.08.509,watkins1,2023.2.3,99.78098072905604,14,2023-11-27 09h31.17.389019 +0000,
,,,,,,,,,,,19,0,19,0,,,,,,,,,,,,,376.6849997000536,,,,,,,,,,376.6767897999962,377.1670197000494,,,[],[],,,,,,,,,,,,None,None,,,,,,,,,,Uhr,hübsch,"['Uhr', 'hübsch']",test_adj,3,,,,,,376.6767222000053,376.6767606000067,"['Vase', 'Rucksack', 'Schlüssel', 'Löffel', 'Hammer', 'Würfel', 'Buch', 'Kamera', 'Flasche', 'Fahrrad', 'Kette', 'Kiste', 'Blume', 'Tasche', 'Tasse', 'Ring', 'Jacke', 'Kerze', 'Schere', 'Uhr', 'Stift', 'Eimer', 'Socke', 'Trommel', 'Lampe', 'Telefon', 'Bürste', 'Hut', 'Geige', 'Brille']",377.1670301000122,377.1696699000313,None,377.1697933000396,377.1722431000089,None,,,377.17235380003694,377.17472629999975,None,377.1748340000049,383.17807470000116,383.17808870004956,383.1793813999975,0,,,,,,,,,,,,,,,,,,,,,,,,,,,,,,,,,,,,,,,,,,,,,,3,2023-11-27_09h31.08.509,watkins1,2023.2.3,99.78098072905604,14,2023-11-27 09h31.17.389019 +0000,
,,,,,,,,,,,20,0,20,0,,,,,,,,,,,,,383.18789390003076,,,,,,,,,,383.17967830004636,383.66980510001304,,,[],[],,,,,,,,,,,,None,None,,,,,,,,,,Stift,dick,"['Stift', 'dick']",restudy,3,,,,,,383.17961030005245,383.1796488999971,"['Vase', 'Rucksack', 'Schlüssel', 'Löffel', 'Hammer', 'Würfel', 'Buch', 'Kamera', 'Flasche', 'Fahrrad', 'Kette', 'Kiste', 'Blume', 'Tasche', 'Tasse', 'Ring', 'Jacke', 'Kerze', 'Schere', 'Uhr', 'Stift', 'Eimer', 'Socke', 'Trommel', 'Lampe', 'Telefon', 'Bürste', 'Hut', 'Geige', 'Brille']",383.6698156000348,383.6724991000374,None,383.6726215000381,389.67508539999835,3,1.656510500004515,None,389.675384400005,389.6778878000332,None,389.6780021000304,389.67914360004943,389.6791555000236,389.6801742000389,,,,,,,,,,,,,,,,,,,,,,,,,,,,,,,,,,,,,,,,,,,,,,,3,2023-11-27_09h31.08.509,watkins1,2023.2.3,99.78098072905604,14,2023-11-27 09h31.17.389019 +0000,
,,,,,,,,,,,21,0,21,0,,,,,,,,,,,,,389.68465080001624,,,,,,,,,,389.68045220000204,390.17666730005294,,,[],[],,,,,,,,,,,,None,None,,,,,,,,,,Eimer,groß,"['Eimer', 'groß']",test_adj,3,,,,,,389.68038720003096,389.6804251000285,"['Vase', 'Rucksack', 'Schlüssel', 'Löffel', 'Hammer', 'Würfel', 'Buch', 'Kamera', 'Flasche', 'Fahrrad', 'Kette', 'Kiste', 'Blume', 'Tasche', 'Tasse', 'Ring', 'Jacke', 'Kerze', 'Schere', 'Uhr', 'Stift', 'Eimer', 'Socke', 'Trommel', 'Lampe', 'Telefon', 'Bürste', 'Hut', 'Geige', 'Brille']",390.17667730001267,390.1792968000518,None,390.17941940005403,390.1808192000026,None,,,390.1809273000108,390.1823242000537,None,390.1824331000098,396.18404640001245,396.1840610000072,396.18521429999964,0,,,,,,,,,,,,,,,,,,,,,,,,,,,,,,,,,,,,,,,,,,,,,,3,2023-11-27_09h31.08.509,watkins1,2023.2.3,99.78098072905604,14,2023-11-27 09h31.17.389019 +0000,
,,,,,,,,,,,22,0,22,0,,,,,,,,,,,,,396.19380510004703,,,,,,,,,,396.18550360004883,396.6758059000131,,,[],[],,,,,,,,,,,dunkel,None,None,,,,,,,,,,Socke,dunkel,"['Socke', 'dunkel']",test_adj,3,,,,,,396.1854354000534,396.1854726000456,"['Vase', 'Rucksack', 'Schlüssel', 'Löffel', 'Hammer', 'Würfel', 'Buch', 'Kamera', 'Flasche', 'Fahrrad', 'Kette', 'Kiste', 'Blume', 'Tasche', 'Tasse', 'Ring', 'Jacke', 'Kerze', 'Schere', 'Uhr', 'Stift', 'Eimer', 'Socke', 'Trommel', 'Lampe', 'Telefon', 'Bürste', 'Hut', 'Geige', 'Brille']",396.6758164000348,396.6783162000356,None,396.67843930004165,396.6808006000356,None,,,396.6809104999993,396.6832515000133,None,396.6833607000299,402.6861446000403,402.6861585000297,402.6874383999966,0,,,,,,,,,,,,,,,,,,,,,,,,,,,,,,,,,,,,,,,,,,,,,,3,2023-11-27_09h31.08.509,watkins1,2023.2.3,99.78098072905604,14,2023-11-27 09h31.17.389019 +0000,
,,,,,,,,,,,23,0,23,0,,,,,,,,,,,,,402.69593929999974,,,,,,,,,,402.6877243000199,403.1778682000004,,,[],[],,,,,,,,,,,gut,None,None,,,,,,,,,,Trommel,gut,"['Trommel', 'gut']",test_adj,3,,,,,,402.68765640002675,402.6876953000319,"['Vase', 'Rucksack', 'Schlüssel', 'Löffel', 'Hammer', 'Würfel', 'Buch', 'Kamera', 'Flasche', 'Fahrrad', 'Kette', 'Kiste', 'Blume', 'Tasche', 'Tasse', 'Ring', 'Jacke', 'Kerze', 'Schere', 'Uhr', 'Stift', 'Eimer', 'Socke', 'Trommel', 'Lampe', 'Telefon', 'Bürste', 'Hut', 'Geige', 'Brille']",403.17787860002136,403.1807340000523,None,403.1808593000169,403.1833919000346,None,,,403.18350050004665,403.18601300002774,None,403.1861221000436,409.1902645000373,409.1902788000298,409.1914039000403,0,,,,,,,,,,,,,,,,,,,,,,,,,,,,,,,,,,,,,,,,,,,,,,3,2023-11-27_09h31.08.509,watkins1,2023.2.3,99.78098072905604,14,2023-11-27 09h31.17.389019 +0000,
,,,,,,,,,,,24,0,24,0,,,,,,,,,,,,,409.1999900000519,,,,,,,,,,409.19168859999627,409.68214300001273,,,[],[],,,,,,,,,,,bunt,None,None,,,,,,,,,,Lampe,bunt,"['Lampe', 'bunt']",test_adj,3,,,,,,409.19162090000464,409.19165940000676,"['Vase', 'Rucksack', 'Schlüssel', 'Löffel', 'Hammer', 'Würfel', 'Buch', 'Kamera', 'Flasche', 'Fahrrad', 'Kette', 'Kiste', 'Blume', 'Tasche', 'Tasse', 'Ring', 'Jacke', 'Kerze', 'Schere', 'Uhr', 'Stift', 'Eimer', 'Socke', 'Trommel', 'Lampe', 'Telefon', 'Bürste', 'Hut', 'Geige', 'Brille']",409.68215410003904,409.6846506000147,None,409.68477360002,409.68711200001417,None,,,409.68722170003457,409.6895659000147,None,409.6896772000473,415.69341930001974,415.69343330000993,415.6945658000186,0,,,,,,,,,,,,,,,,,,,,,,,,,,,,,,,,,,,,,,,,,,,,,,3,2023-11-27_09h31.08.509,watkins1,2023.2.3,99.78098072905604,14,2023-11-27 09h31.17.389019 +0000,
,,,,,,,,,,,25,0,25,0,,,,,,,,,,,,,415.70333340001525,,,,,,,,,,415.69485160004115,416.18542980001075,,,[],[],,,,,,,,,,,r,None,None,,,,,,,,,,Telefon,zart,"['Telefon', 'zart']",test_adj,3,,,,,,415.6947827000404,415.69482180004707,"['Vase', 'Rucksack', 'Schlüssel', 'Löffel', 'Hammer', 'Würfel', 'Buch', 'Kamera', 'Flasche', 'Fahrrad', 'Kette', 'Kiste', 'Blume', 'Tasche', 'Tasse', 'Ring', 'Jacke', 'Kerze', 'Schere', 'Uhr', 'Stift', 'Eimer', 'Socke', 'Trommel', 'Lampe', 'Telefon', 'Bürste', 'Hut', 'Geige', 'Brille']",416.1854403000325,416.1879967999994,None,416.188120900013,416.1905123000033,None,,,416.19062140001915,416.19302470004186,None,416.19313490000786,422.19782980001764,422.1978436000063,422.19898340001237,0,,,,,,,,,,,,,,,,,,,,,,,,,,,,,,,,,,,,,,,,,,,,,,3,2023-11-27_09h31.08.509,watkins1,2023.2.3,99.78098072905604,14,2023-11-27 09h31.17.389019 +0000,
,,,,,,,,,,,26,0,26,0,,,,,,,,,,,,,422.2076320000342,,,,,,,,,,422.19926910003414,422.6896436000243,,,[],[],,,,,,,,,,,,None,None,,,,,,,,,,Bürste,strahlend,"['Bürste', 'strahlend']",restudy,3,,,,,,422.19919950002804,422.19923860003473,"['Vase', 'Rucksack', 'Schlüssel', 'Löffel', 'Hammer', 'Würfel', 'Buch', 'Kamera', 'Flasche', 'Fahrrad', 'Kette', 'Kiste', 'Blume', 'Tasche', 'Tasse', 'Ring', 'Jacke', 'Kerze', 'Schere', 'Uhr', 'Stift', 'Eimer', 'Socke', 'Trommel', 'Lampe', 'Telefon', 'Bürste', 'Hut', 'Geige', 'Brille']",422.6896547000506,422.69219520001207,None,422.69232100003865,428.7027830000152,1,4.132123300048988,None,428.7030901000253,428.70591030002106,None,428.7060233000084,428.70747980003944,428.70749170001363,428.7087001000182,,,,,,,,,,,,,,,,,,,,,,,,,,,,,,,,,,,,,,,,,,,,,,,3,2023-11-27_09h31.08.509,watkins1,2023.2.3,99.78098072905604,14,2023-11-27 09h31.17.389019 +0000,
,,,,,,,,,,,27,0,27,0,,,,,,,,,,,,,428.71219839999685,,,,,,,,,,428.70898060000036,429.20431729999837,,,[],[],,,,,,,,,,,,None,None,,,,,,,,,,Hut,verspielt,"['Hut', 'verspielt']",test_adj,3,,,,,,428.70891570003005,428.7089538000291,"['Vase', 'Rucksack', 'Schlüssel', 'Löffel', 'Hammer', 'Würfel', 'Buch', 'Kamera', 'Flasche', 'Fahrrad', 'Kette', 'Kiste', 'Blume', 'Tasche', 'Tasse', 'Ring', 'Jacke', 'Kerze', 'Schere', 'Uhr', 'Stift', 'Eimer', 'Socke', 'Trommel', 'Lampe', 'Telefon', 'Bürste', 'Hut', 'Geige', 'Brille']",429.2043278000201,429.20691340003395,None,429.20703680004226,429.20830120000755,None,,,429.2084106000257,429.2096667000442,None,429.20977590000257,435.21030190004967,435.21031520003453,435.2117253000033,0,,,,,,,,,,,,,,,,,,,,,,,,,,,,,,,,,,,,,,,,,,,,,,3,2023-11-27_09h31.08.509,watkins1,2023.2.3,99.78098072905604,14,2023-11-27 09h31.17.389019 +0000,
,,,,,,,,,,,28,0,28,0,,,,,,,,,,,,,435.22010350000346,,,,,,,,,,435.2120162000065,435.70219530002214,,,[],[],,,,,,,,,,,,None,None,,,,,,,,,,Geige,sauber,"['Geige', 'sauber']",restudy,3,,,,,,435.21194930002093,435.2119872000185,"['Vase', 'Rucksack', 'Schlüssel', 'Löffel', 'Hammer', 'Würfel', 'Buch', 'Kamera', 'Flasche', 'Fahrrad', 'Kette', 'Kiste', 'Blume', 'Tasche', 'Tasse', 'Ring', 'Jacke', 'Kerze', 'Schere', 'Uhr', 'Stift', 'Eimer', 'Socke', 'Trommel', 'Lampe', 'Telefon', 'Bürste', 'Hut', 'Geige', 'Brille']",435.7022058000439,435.7050980000058,None,435.7052262000507,441.71295570000075,2,1.85527010000078,None,441.71326330001466,441.71592490002513,None,441.7160417000414,441.71729739999864,441.7173094000318,441.71847230003914,,,,,,,,,,,,,,,,,,,,,,,,,,,,,,,,,,,,,,,,,,,,,,,3,2023-11-27_09h31.08.509,watkins1,2023.2.3,99.78098072905604,14,2023-11-27 09h31.17.389019 +0000,
,,,,,,,,,,,29,0,29,0,,,,,,,,,,,,,441.7223608000204,,,,,,,,,,441.71875170001294,442.2144690999994,,,[],[],,,,,,,,,,,,None,None,,,,,,,,,,Brille,krumm,"['Brille', 'krumm']",test_adj,3,,,,,,441.71868700004416,441.7187249000417,"['Vase', 'Rucksack', 'Schlüssel', 'Löffel', 'Hammer', 'Würfel', 'Buch', 'Kamera', 'Flasche', 'Fahrrad', 'Kette', 'Kiste', 'Blume', 'Tasche', 'Tasse', 'Ring', 'Jacke', 'Kerze', 'Schere', 'Uhr', 'Stift', 'Eimer', 'Socke', 'Trommel', 'Lampe', 'Telefon', 'Bürste', 'Hut', 'Geige', 'Brille']",442.21447930001887,442.2171309000114,None,442.21725159999914,442.2187019000412,None,,,442.21881640003994,442.2202423000126,None,442.22035060002236,448.2218410000205,448.2218545000069,448.22313500003656,0,,,,,,,,,,,,,,,,,,,,,,,,,,,,,,,,,,,,,,,,,,,,,,3,2023-11-27_09h31.08.509,watkins1,2023.2.3,99.78098072905604,14,2023-11-27 09h31.17.389019 +0000,
,,,,,,,,,,,,,,,,,,,,,,,,,,,,,,,,,,,,,,,,,,,,,,,,,,,,,,,,,,,,,,,,,,,,,3,,,,,,,,,,,,,,,,,,,,,,,,,,,,,,,,,,,,,,,,,,,,,,,,,,,,,,,,,,,,,,,,,,,,,,3,2023-11-27_09h31.08.509,watkins1,2023.2.3,99.78098072905604,14,2023-11-27 09h31.17.389019 +0000,
(80 : 10) + 9 = 17 ,Correct,button_correct,,,,,,,,,,,,,0,0,0,3,,,,,,,,,465.66263340000296,,,,,,,,464.6130153000122,465.61551319999853,,,,,['button_correct'],[4.750477500027046],,,,,,,,,,,,,,,,,,,,,,,,,,distractorTask,3,,,,,,,,,,,,,,,,,,,,,,,,,465.65076460002456,465.66263340000296,470.4070300000021,[0.4],[-0.40925925925925927],[1],[0],[0],[4.750477500027046],['button_correct'],470.40770500001963,471.41073900001356,,,,,,,,,,,,,,,,,,,,,,,,,,,,,,,,,,3,2023-11-27_09h31.08.509,watkins1,2023.2.3,99.78098072905604,14,2023-11-27 09h31.17.389019 +0000,
(6 x 3) + 10 = 27 ,Incorrect,button_incorrect,,,,,,,,,,,,,0,1,1,8,,,,,,,,,471.42069400002947,,,,,,,,,,,,,,['button_incorrect'],[3.2500773000065237],,,,,,,,,,,,,,,,,,,,,,,,,,distractorTask,3,,,,,,,,,,,,,,,,,,,,,,,,,471.4109309000196,471.42069400002947,474.6642591000418,[-0.3111111111111111],[-0.41203703703703703],[1],[0],[0],[3.2500773000065237],['button_incorrect'],474.66463730001124,475.66775469999993,,,,,,,,,,,,,,,,,,,,,,,,,,,,,,,,,,3,2023-11-27_09h31.08.509,watkins1,2023.2.3,99.78098072905604,14,2023-11-27 09h31.17.389019 +0000,
(54 : 6) - 10 = 0 ,Incorrect,button_incorrect,,,,,,,,,,,,,0,2,2,5,,,,,,,,,475.67773860000307,,,,,,,,,,,,,,['button_incorrect'],[5.178574999968987],,,,,,,,,,,,,,,,,,,,,,,,,,distractorTask,3,,,,,,,,,,,,,,,,,,,,,,,,,475.66794200002914,475.67773860000307,480.84916090004845,[-0.3990740740740741],[-0.40370370370370373],[1],[0],[0],[5.178574999968987],['button_incorrect'],480.8495379000087,481.8526655000169,,,,,,,,,,,,,,,,,,,,,,,,,,,,,,,,,,3,2023-11-27_09h31.08.509,watkins1,2023.2.3,99.78098072905604,14,2023-11-27 09h31.17.389019 +0000,
(28 : 7) - 3 = 1 ,Correct,button_correct,,,,,,,,,,,,,0,3,3,0,,,,,,,,,481.8626365000382,,,,,,,,,,,,,,['button_correct'],[3.2816506999661215],,,,,,,,,,,,,,,,,,,,,,,,,,distractorTask,3,,,,,,,,,,,,,,,,,,,,,,,,,481.8528564000153,481.8626365000382,485.1362864000257,[0.40555555555555556],[-0.38333333333333336],[1],[0],[0],[3.2816506999661215],['button_correct'],485.13667100004386,486.1397787000169,,,,,,,,,,,,,,,,,,,,,,,,,,,,,,,,,,3,2023-11-27_09h31.08.509,watkins1,2023.2.3,99.78098072905604,14,2023-11-27 09h31.17.389019 +0000,
(40 : 5) + 8 = 15 ,Incorrect,button_incorrect,,,,,,,,,,,,,0,4,4,7,,,,,,,,,486.1496784000192,,,,,,,,,,,,,,['button_incorrect'],[3.794154900009744],,,,,,,,,,,,,,,,,,,,,,,,,,distractorTask,3,,,,,,,,,,,,,,,,,,,,,,,,,486.13996900001075,486.1496784000192,489.9358796000015,[-0.27870370370370373],[-0.3888888888888889],[1],[0],[0],[3.794154900009744],['button_incorrect'],489.9362540000002,490.9393444000161,,,,,,,,,,,,,,,,,,,,,,,,,,,,,,,,,,3,2023-11-27_09h31.08.509,watkins1,2023.2.3,99.78098072905604,14,2023-11-27 09h31.17.389019 +0000,
(25 : 5) + 5 = 9 ,Incorrect,button_incorrect,,,,,,,,,,,,,0,5,5,6,,,,,,,,,490.94937850005226,,,,,,,,,,,,,,['button_incorrect'],[2.890357199998107],,,,,,,,,,,,,,,,,,,,,,,,,,distractorTask,3,,,,,,,,,,,,,,,,,,,,,,,,,490.93952830001945,490.94937850005226,493.8315708000446,[-0.3490740740740741],[-0.4222222222222222],[1],[0],[0],[2.890357199998107],['button_incorrect'],493.83208650001325,494.83502769999905,,,,,,,,,,,,,,,,,,,,,,,,,,,,,,,,,,3,2023-11-27_09h31.08.509,watkins1,2023.2.3,99.78098072905604,14,2023-11-27 09h31.17.389019 +0000,
(2 x 5) + 3 = 13 ,Correct,button_correct,,,,,,,,,,,,,0,6,6,2,,,,,,,,,494.84501920000184,,,,,,,,,,,,,,['button_correct'],[3.040740700031165],,,,,,,,,,,,,,,,,,,,,,,,,,distractorTask,3,,,,,,,,,,,,,,,,,,,,,,,,,494.83521530003054,494.84501920000184,497.87766300002113,[0.362962962962963],[-0.4222222222222222],[1],[0],[0],[3.040740700031165],['button_correct'],497.8780445000157,498.88114080001833,,,,,,,,,,,,,,,,,,,,,,,,,,,,,,,,,,3,2023-11-27_09h31.08.509,watkins1,2023.2.3,99.78098072905604,14,2023-11-27 09h31.17.389019 +0000,
(9 x 5) - 9 = 36 ,Correct,button_correct,,,,,,,,,,,,,0,7,7,4,,,,,,,,,498.89107710000826,,,,,,,,,,,,,,['button_correct'],[4.778532299969811],,,,,,,,,,,,,,,,,,,,,,,,,,distractorTask,3,,,,,,,,,,,,,,,,,,,,,,,,,498.8813321000198,498.89107710000826,503.6615784000023,[0.4222222222222222],[-0.4064814814814815],[1],[0],[0],[4.778532299969811],['button_correct'],503.66198950004764,504.66477210004814,,,,,,,,,,,,,,,,,,,,,,,,,,,,,,,,,,3,2023-11-27_09h31.08.509,watkins1,2023.2.3,99.78098072905604,14,2023-11-27 09h31.17.389019 +0000,
(7 x 6) + 9 = 48 ,Incorrect,button_incorrect,,,,,,,,,,,,,0,8,8,9,,,,,,,,,504.6747086000396,,,,,,,,,,,,,,['button_incorrect'],"[3.291674700041767, 3.7337370000313967]",,,,,,,,,,,,,,,,,,,,,,,,,,distractorTask,3,,,,,,,,,,,,,,,,,,,,,,,,,504.6649579000077,504.6747086000396,508.40038740000455,"[-0.275, -0.30277777777777776]","[-0.4064814814814815, -0.4083333333333333]","[1, 1]","[0, 0]","[0, 0]","[3.291674700041767, 3.7337370000313967]",['button_incorrect'],508.4007865000167,509.4044296000502,,,,,,,,,,,,,,,,,,,,,,,,,,,,,,,,,,3,2023-11-27_09h31.08.509,watkins1,2023.2.3,99.78098072905604,14,2023-11-27 09h31.17.389019 +0000,
(4 : 2) + 4 = 6 ,Correct,button_correct,,,,,,,,,,,,,0,9,9,1,,,,,,,,,509.414408200013,,,,,,,,,,,,,,['button_correct'],[2.5789109999896027],,,,,,,,,,,,,,,,,,,,,,,,,,distractorTask,3,,,,,,,,,,,,,,,,,,,,,,,,,509.40461420000065,509.414408200013,511.9851965000271,[0.2861111111111111],[-0.39444444444444443],[1],[0],[0],[2.5789109999896027],['button_correct'],511.9855744000524,512.9886670000269,,,,,,,,,,,,,,,,,,,,,,,,,,,,,,,,,,3,2023-11-27_09h31.08.509,watkins1,2023.2.3,99.78098072905604,14,2023-11-27 09h31.17.389019 +0000,
,,,,,,,,,,,,,,,,,,,,,,,,,,,,,,,,,,,,,,,,,,,,,,,,,,,,,,,,,,,,,,,,,,,,,3,,,,,,,,,,,,,,,,,,,,,,,,,,,,,,,,,,,,,,,,,,,,,,,,,,,,,,,,,,,,,,,,,,,,,,3,2023-11-27_09h31.08.509,watkins1,2023.2.3,99.78098072905604,14,2023-11-27 09h31.17.389019 +0000,
,,,,,,,,,,,,,,,,,,,0,0,0,0,,,,,521.0387085000402,,,,,,,,,,,,,,Uhr,5.573948599980213,,,,,,,,,,,,4.09617930004606,None,,,,,,,,,,,,,freeRecallSub,3,,,,,,,,,,,,,,,,,,,,,,,,,,,,,,,,,,,,,521.0297614000156,521.0387085000402,521.0387085000402,526.6213368000463,return,5.573948599980213,None,Uhr,[],[],[],[],[],[],[],,,,,,,,,,,,,,,,,,,3,2023-11-27_09h31.08.509,watkins1,2023.2.3,99.78098072905604,14,2023-11-27 09h31.17.389019 +0000,
,,,,,,,,,,,,,,,,,,,1,0,1,0,,,,,526.6332268000115,,,,,,,,,,,,,,Hut,1.611374700034503,,,,,,,,,,,,0.7743292999803089,None,,,,,,,,,,,,,freeRecallSub,3,,,,,,,,,,,,,,,,,,,,,,,,,,,,,,,,,,,,,526.6230960999965,526.6332268000115,526.6332268000115,528.2509655000176,return,1.611374700034503,None,Hut,[],[],[],[],[],[],[],,,,,,,,,,,,,,,,,,,3,2023-11-27_09h31.08.509,watkins1,2023.2.3,99.78098072905604,14,2023-11-27 09h31.17.389019 +0000,
,,,,,,,,,,,,,,,,,,,2,0,2,0,,,,,528.2616130000097,,,,,,,,,,,,,,Lampe,2.519017500046175,,,,,,,,,,,,1.6561149999615736,None,,,,,,,,,,,,,freeRecallSub,3,,,,,,,,,,,,,,,,,,,,,,,,,,,,,,,,,,,,,528.2522029000102,528.2616130000097,528.2616130000097,530.7818845000002,return,2.519017500046175,None,Lampe,[],[],[],[],[],[],[],,,,,,,,,,,,,,,,,,,3,2023-11-27_09h31.08.509,watkins1,2023.2.3,99.78098072905604,14,2023-11-27 09h31.17.389019 +0000,
,,,,,,,,,,,,,,,,,,,3,0,3,0,,,,,530.792847100005,,,,,,,,,,,,,,Ring,12.27570850000484,,,,,,,,,,,,10.974524799967185,None,,,,,,,,,,,,,freeRecallSub,3,,,,,,,,,,,,,,,,,,,,,,,,,,,,,,,,,,,,,530.7831341000274,530.792847100005,530.792847100005,543.0731410000008,return,12.27570850000484,None,Ring,[],[],[],[],[],[],[],,,,,,,,,,,,,,,,,,,3,2023-11-27_09h31.08.509,watkins1,2023.2.3,99.78098072905604,14,2023-11-27 09h31.17.389019 +0000,
,,,,,,,,,,,,,,,,,,,4,0,4,0,,,,,543.0842896000249,,,,,,,,,,,,,,Tasche,17.352302599989343,,,,,,,,,,,,15.724178900010884,None,,,,,,,,,,,,,freeRecallSub,3,,,,,,,,,,,,,,,,,,,,,,,,,,,,,,,,,,,,,543.0743911000318,543.0842896000249,543.0842896000249,560.4451415000367,return,17.352302599989343,None,Tasche,[],[],[],[],[],[],[],,,,,,,,,,,,,,,,,,,3,2023-11-27_09h31.08.509,watkins1,2023.2.3,99.78098072905604,14,2023-11-27 09h31.17.389019 +0000,
,,,,,,,,,,,,,,,,,,,5,0,5,0,,,,,560.4563567000441,,,,,,,,,,,,,,Jacke,2.1802555000176653,,,,,,,,,,,,0.7332782000303268,None,,,,,,,,,,,,,freeRecallSub,3,,,,,,,,,,,,,,,,,,,,,,,,,,,,,,,,,,,,,560.4464104000363,560.4563567000441,560.4563567000441,562.6454383000382,return,2.1802555000176653,None,Jacke,[],[],[],[],[],[],[],,,,,,,,,,,,,,,,,,,3,2023-11-27_09h31.08.509,watkins1,2023.2.3,99.78098072905604,14,2023-11-27 09h31.17.389019 +0000,
,,,,,,,,,,,,,,,,,,,6,0,6,0,,,,,562.6568389000022,,,,,,,,,,,,,,Geige,2.6677656999672763,,,,,,,,,,,,1.7978433000389487,None,,,,,,,,,,,,,freeRecallSub,3,,,,,,,,,,,,,,,,,,,,,,,,,,,,,,,,,,,,,562.6466888000141,562.6568389000022,562.6568389000022,565.3280364000238,return,2.6677656999672763,None,Geige,[],[],[],[],[],[],[],,,,,,,,,,,,,,,,,,,3,2023-11-27_09h31.08.509,watkins1,2023.2.3,99.78098072905604,14,2023-11-27 09h31.17.389019 +0000,
,,,,,,,,,,,,,,,,,,,7,0,7,0,,,,,565.3395467000082,,,,,,,,,,,,,,Katze und Hund im Versuchstest,65.06496619997779,,,,,,,,,,,,25.975266099965665,50.14295529999072,,,,,,,,,,,,,freeRecallSub,3,,,,,,,,,,,,,,,,,,,,,,,,,,,,,,,,,,,,,565.3292830000282,565.3395467000082,565.3395467000082,630.4124318000395,return,65.06496619997779,None,Katze und Hund im Versuchstest,[],[],[],[],[],[],[],,,,,,,,,,,,,,,,,,,3,2023-11-27_09h31.08.509,watkins1,2023.2.3,99.78098072905604,14,2023-11-27 09h31.17.389019 +0000,
,,,,,,,,,,,,,,,,,,,8,0,8,0,,,,,630.425176400051,,,,,,,,,,,,,,Schere,15.507305399980396,,,,,,,,,,,,13.648224400007166,None,,,,,,,,,,,,,freeRecallSub,3,,,,,,,,,,,,,,,,,,,,,,,,,,,,,,,,,,,,,630.4137350000092,630.425176400051,630.425176400051,645.9392550000339,return,15.507305399980396,None,Schere,[],[],[],[],[],[],[],,,,,,,,,,,,,,,,,,,3,2023-11-27_09h31.08.509,watkins1,2023.2.3,99.78098072905604,14,2023-11-27 09h31.17.389019 +0000,
,,,,,,,,,,,,,,,,,,,9,0,9,0,,,,,645.9517109000008,,,,,,,,,,,,,,Fahrrad,11.972767499973997,,,,,,,,,,,,10.444445299974177,None,,,,,,,,,,,,,freeRecallSub,3,,,,,,,,,,,,,,,,,,,,,,,,,,,,,,,,,,,,,645.9405113000539,645.9517109000008,645.9517109000008,657.9312593000359,return,11.972767499973997,None,Fahrrad,[],[],[],[],[],[],[],,,,,,,,,,,,,,,,,,,3,2023-11-27_09h31.08.509,watkins1,2023.2.3,99.78098072905604,14,2023-11-27 09h31.17.389019 +0000,
,,,,,,,,,,,,,,,,,,,10,0,10,0,,,,,657.944113000005,,,,,,,,,,,,,,Würfrl,8.844198499980848,,,,,,,,,,,,6.810532499977853,None,,,,,,,,,,,,,freeRecallSub,3,,,,,,,,,,,,,,,,,,,,,,,,,,,,,,,,,,,,,657.9327185000293,657.944113000005,657.944113000005,666.7915397000033,return,8.844198499980848,None,Würfrl,[],[],[],[],[],[],[],,,,,,,,,,,,,,,,,,,3,2023-11-27_09h31.08.509,watkins1,2023.2.3,99.78098072905604,14,2023-11-27 09h31.17.389019 +0000,
,,,,,,,,,,,,,,,,,,,11,0,11,0,,,,,666.8050177000114,,,,,,,,,,,,,,Würfel,15.559348999988288,,,,,,,,,,,,2.484860399970785,7.002964499988593,,,,,,,,,,,,,freeRecallSub,3,,,,,,,,,,,,,,,,,,,,,,,,,,,,,,,,,,,,,666.7927996000508,666.8050177000114,666.8050177000114,682.3701570000267,return,15.559348999988288,None,Würfel,[],[],[],[],[],[],[],,,,,,,,,,,,,,,,,,,3,2023-11-27_09h31.08.509,watkins1,2023.2.3,99.78098072905604,14,2023-11-27 09h31.17.389019 +0000,
,,,,,,,,,,,,,,,,,,,12,0,12,0,,,,,682.3831719000009,,,,,,,,,,,,,,Socke,47.541099299967755,,,,,,,,,,,,45.52631190000102,None,,,,,,,,,,,,,freeRecallSub,3,,,,,,,,,,,,,,,,,,,,,,,,,,,,,,,,,,,,,682.3714060000493,682.3831719000009,682.3831719000009,729.9260093000485,return,47.541099299967755,None,Socke,[],[],[],[],[],[],[],,,,,,,,,,,,,,,,,,,3,2023-11-27_09h31.08.509,watkins1,2023.2.3,99.78098072905604,14,2023-11-27 09h31.17.389019 +0000,
,,,,,,,,,,,,,,,,,,,13,0,13,0,,,,,729.9395091000479,,,,,,,,,,,,,,Trommel,16.016754999989644,,,,,,,,,,,,12.275151300011203,None,,,,,,,,,,,,,freeRecallSub,3,,,,,,,,,,,,,,,,,,,,,,,,,,,,,,,,,,,,,729.9272827000241,729.9395091000479,729.9395091000479,745.957659000007,return,16.016754999989644,None,Trommel,[],[],[],[],[],[],[],,,,,,,,,,,,,,,,,,,3,2023-11-27_09h31.08.509,watkins1,2023.2.3,99.78098072905604,14,2023-11-27 09h31.17.389019 +0000,
,,,,,,,,,,,,,,,,,,,14,0,14,0,,,,,745.9710529000149,,,,,,,,,,,,,,,[],,,,,,,,,,,,None,None,,,,,,,,,,,,,freeRecallSub,3,,,,,,,,,,,,,,,,,,,,,,,,,,,,,,,,,,,,,745.9589155000285,745.9710529000149,745.9710529000149,828.3989185000537,None,,,,[0.2814814814814815],[-0.3888888888888889],[1],[0],[0],[82.43422739999369],"['button_continue', 'continue_text']",,,,,,,,,,,,,,,,,,,3,2023-11-27_09h31.08.509,watkins1,2023.2.3,99.78098072905604,14,2023-11-27 09h31.17.389019 +0000,
,,,,,,,,,,,,,,,,,,,,,,,,,,,,,,,,,,,,,,,,,,,,,,,,,,,,,,,,,,,,,,,,,,,,,3,,,,,,,,,,,,,,,,,,,,,,,,,,,,,,,,,,,,,,,,,,,,,,,,,,,,,,,,,,,,,,,,,,,,,,3,2023-11-27_09h31.08.509,watkins1,2023.2.3,99.78098072905604,14,2023-11-27 09h31.17.389019 +0000,
,,,,,,,,,,,,,,,,,,,,,,,0,0,0,0,837.01493200002,,,,,,,,,,843.6451554000378,844.1351699000224,,,,6.621127100021113,,,,,,,,,,,,None,None,,,,,,,,,,Kiste,,,cuedRecallAdj,3,,,,,,,,,,,,,,,,,,,,,,,,0,,,,,,,,,,,,,,,,,,,,,,,,,,,,837.0059705000021,837.01493200002,837.01493200002,843.6420097000082,nass,return,6.621127100021113,None,843.6424112000386,843.6515125000151,843.6515125000151,843.6450039000483,,None,,,,,3,2023-11-27_09h31.08.509,watkins1,2023.2.3,99.78098072905604,14,2023-11-27 09h31.17.389019 +0000,
,,,,,,,,,,,,,,,,,,,,,,,1,0,1,0,844.1451966000022,,,,,,,,,,847.7538790000253,848.2525435000425,,,,3.602857199963182,,,,,,,,,,,,None,None,,,,,,,,,,Trommel,,,cuedRecallAdj,3,,,,,,,,,,,,,,,,,,,,,,,,0,,,,,,,,,,,,,,,,,,,,,,,,,,,,844.1354249000433,844.1451966000022,844.1451966000022,847.7510214000358,gut,return,3.602857199963182,None,847.7512863000156,847.7605646000011,847.7605646000011,847.7537756000529,,None,,,,,3,2023-11-27_09h31.08.509,watkins1,2023.2.3,99.78098072905604,14,2023-11-27 09h31.17.389019 +0000,
,,,,,,,,,,,,,,,,,,,,,,,2,0,2,0,848.2624479000224,,,,,,,,,,854.7038459000178,855.2026432999992,,,,6.429654700041283,,,,,,,,,,,,None,None,,,,,,,,,,Hammer,,,cuedRecallAdj,3,,,,,,,,,,,,,,,,,,,,,,,,0,,,,,,,,,,,,,,,,,,,,,,,,,,,,848.2527844000142,848.2624479000224,848.2624479000224,854.700852900045,niedlich,return,6.429654700041283,None,854.7011159000103,854.7105178000056,854.7105178000056,854.7037448000046,,None,,,,,3,2023-11-27_09h31.08.509,watkins1,2023.2.3,99.78098072905604,14,2023-11-27 09h31.17.389019 +0000,
,,,,,,,,,,,,,,,,,,,,,,,3,0,3,0,855.2126108000521,,,,,,,,,,858.661367200024,859.1600982000236,,,,3.4394931999850087,,,,,,,,,,,,None,None,,,,,,,,,,Geige,,,cuedRecallAdj,3,,,,,,,,,,,,,,,,,,,,,,,,0,,,,,,,,,,,,,,,,,,,,,,,,,,,,855.2028909000219,855.2126108000521,855.2126108000521,858.6583938000258,sauber,return,3.4394931999850087,None,858.6586597000132,858.6679436000413,858.6679436000413,858.6612663000124,,None,,,,,3,2023-11-27_09h31.08.509,watkins1,2023.2.3,99.78098072905604,14,2023-11-27 09h31.17.389019 +0000,
,,,,,,,,,,,,,,,,,,,,,,,4,0,4,0,859.1700432000216,,,,,,,,,,861.8029519999982,862.2924313000403,,,,2.6260244000004604,,,,,,,,,,,,None,None,,,,,,,,,,Buch,,,cuedRecallAdj,3,,,,,,,,,,,,,,,,,,,,,,,,0,,,,,,,,,,,,,,,,,,,,,,,,,,,,859.1603421000182,859.1700432000216,859.1700432000216,861.8008686000248,,return,2.6260244000004604,None,861.8011325999978,861.8105243000318,861.8105243000318,861.8028498000349,,None,,,,,3,2023-11-27_09h31.08.509,watkins1,2023.2.3,99.78098072905604,14,2023-11-27 09h31.17.389019 +0000,
,,,,,,,,,,,,,,,,,,,,,,,5,0,5,0,862.3024381000432,,,,,,,,,,866.3518295999966,866.850648600026,,,,4.037605499965139,,,,,,,,,,,,None,None,,,,,,,,,,Jacke,,,cuedRecallAdj,3,,,,,,,,,,,,,,,,,,,,,,,,0,,,,,,,,,,,,,,,,,,,,,,,,,,,,862.2926675000344,862.3024381000432,862.3024381000432,866.3488986000302,flach,return,4.037605499965139,None,866.3491644000169,866.3586176999961,866.3586176999961,866.351727500034,,None,,,,,3,2023-11-27_09h31.08.509,watkins1,2023.2.3,99.78098072905604,14,2023-11-27 09h31.17.389019 +0000,
,,,,,,,,,,,,,,,,,,,,,,,6,0,6,0,866.8605950000347,,,,,,,,,,870.779675400001,871.2784777000197,,,,3.9114567000069655,,,,,,,,,,,,None,None,,,,,,,,,,Würfel,,,cuedRecallAdj,3,,,,,,,,,,,,,,,,,,,,,,,,0,,,,,,,,,,,,,,,,,,,,,,,,,,,,866.8508916000137,866.8605950000347,866.8605950000347,870.7767519000336,kaputt,return,3.9114567000069655,None,870.7770112000289,870.786399100034,870.786399100034,870.7795759,,None,,,,,3,2023-11-27_09h31.08.509,watkins1,2023.2.3,99.78098072905604,14,2023-11-27 09h31.17.389019 +0000,
,,,,,,,,,,,,,,,,,,,,,,,7,0,7,0,871.2884366000071,,,,,,,,,,872.0341901000356,872.523397800047,,,,0.7396440000156872,,,,,,,,,,,,None,None,,,,,,,,,,Fahrrad,,,cuedRecallAdj,3,,,,,,,,,,,,,,,,,,,,,,,,0,,,,,,,,,,,,,,,,,,,,,,,,,,,,871.2787228000234,871.2884366000071,871.2884366000071,872.0319317000103,,return,0.7396440000156872,None,872.0322035000427,872.0413978000288,872.0413978000288,872.0340873000096,,None,,,,,3,2023-11-27_09h31.08.509,watkins1,2023.2.3,99.78098072905604,14,2023-11-27 09h31.17.389019 +0000,
,,,,,,,,,,,,,,,,,,,,,,,8,0,8,0,872.5333422000404,,,,,,,,,,875.0153008000343,875.5052164000226,,,,2.4707647999748588,,,,,,,,,,,,None,None,,,,,,,,,,Hut,,,cuedRecallAdj,3,,,,,,,,,,,,,,,,,,,,,,,,0,,,,,,,,,,,,,,,,,,,,,,,,,,,,872.5236334000365,872.5333422000404,872.5333422000404,875.0135379999992,,return,2.4707647999748588,None,875.0138069000095,875.0232147000497,875.0232147000497,875.0151976000052,,None,,,,,3,2023-11-27_09h31.08.509,watkins1,2023.2.3,99.78098072905604,14,2023-11-27 09h31.17.389019 +0000,
,,,,,,,,,,,,,,,,,,,,,,,9,0,9,0,875.5151659999974,,,,,,,,,,883.1493136000354,883.6479452000349,,,,7.624844999983907,,,,,,,,,,,,None,None,,,,,,,,,,Bürste,,,cuedRecallAdj,3,,,,,,,,,,,,,,,,,,,,,,,,0,,,,,,,,,,,,,,,,,,,,,,,,,,,,875.5054534000228,875.5151659999974,875.5151659999974,883.1462260000408,strahlend,return,7.624844999983907,None,883.1464944000472,883.1558872000314,883.1558872000314,883.1492098000017,,None,,,,,3,2023-11-27_09h31.08.509,watkins1,2023.2.3,99.78098072905604,14,2023-11-27 09h31.17.389019 +0000,
,,,,,,,,,,,,,,,,,,,,,,,10,0,10,0,883.6578487000079,,,,,,,,,,888.8514584000222,889.3506721000304,,,,5.186114700045437,,,,,,,,,,,,None,None,,,,,,,,,,Flasche,,,cuedRecallAdj,3,,,,,,,,,,,,,,,,,,,,,,,,0,,,,,,,,,,,,,,,,,,,,,,,,,,,,883.6481919000507,883.6578487000079,883.6578487000079,888.8490647000144,,return,5.186114700045437,None,888.8493298999965,888.8586676000268,888.8586676000268,888.8513552000513,,None,,,,,3,2023-11-27_09h31.08.509,watkins1,2023.2.3,99.78098072905604,14,2023-11-27 09h31.17.389019 +0000,
,,,,,,,,,,,,,,,,,,,,,,,11,0,11,0,889.3607156000216,,,,,,,,,,890.5677583000506,891.0574396000011,,,,1.195324000029359,,,,,,,,,,,,None,None,,,,,,,,,,Eimer,,,cuedRecallAdj,3,,,,,,,,,,,,,,,,,,,,,,,,0,,,,,,,,,,,,,,,,,,,,,,,,,,,,889.350915100018,889.3607156000216,889.3607156000216,890.5658528000349,,return,1.195324000029359,None,890.5661185000208,890.5755593000213,890.5755593000213,890.5676547000185,,None,,,,,3,2023-11-27_09h31.08.509,watkins1,2023.2.3,99.78098072905604,14,2023-11-27 09h31.17.389019 +0000,
,,,,,,,,,,,,,,,,,,,,,,,12,0,12,0,891.0675037000328,,,,,,,,,,894.3338934000349,894.8326828000136,,,,3.2564674000022933,,,,,,,,,,,,None,None,,,,,,,,,,Schere,,,cuedRecallAdj,3,,,,,,,,,,,,,,,,,,,,,,,,0,,,,,,,,,,,,,,,,,,,,,,,,,,,,891.0576808000333,891.0675037000328,891.0675037000328,894.3309191000299,kratzig,return,3.2564674000022933,None,894.3311854000203,894.3405616000528,894.3405616000528,894.333790500008,,None,,,,,3,2023-11-27_09h31.08.509,watkins1,2023.2.3,99.78098072905604,14,2023-11-27 09h31.17.389019 +0000,
,,,,,,,,,,,,,,,,,,,,,,,13,0,13,0,894.8426274000085,,,,,,,,,,896.6424896000535,897.1318480000482,,,,1.7933673999505118,,,,,,,,,,,,None,None,,,,,,,,,,Telefon,,,cuedRecallAdj,3,,,,,,,,,,,,,,,,,,,,,,,,0,,,,,,,,,,,,,,,,,,,,,,,,,,,,894.8329250000534,894.8426274000085,894.8426274000085,896.6402466000291,,return,1.7933673999505118,None,896.6405121000134,896.6497839000076,896.6497839000076,896.6423873000313,,None,,,,,3,2023-11-27_09h31.08.509,watkins1,2023.2.3,99.78098072905604,14,2023-11-27 09h31.17.389019 +0000,
,,,,,,,,,,,,,,,,,,,,,,,14,0,14,0,897.1418076000409,,,,,,,,,,901.2220059000538,901.7205355000333,,,,4.070174499996938,,,,,,,,,,,,None,None,,,,,,,,,,Rucksack,,,cuedRecallAdj,3,,,,,,,,,,,,,,,,,,,,,,,,0,,,,,,,,,,,,,,,,,,,,,,,,,,,,897.1320931000519,897.1418076000409,897.1418076000409,901.2189120000112,praktisch,return,4.070174499996938,None,901.21919600002,901.2284255000413,901.2284255000413,901.2219014000148,,None,,,,,3,2023-11-27_09h31.08.509,watkins1,2023.2.3,99.78098072905604,14,2023-11-27 09h31.17.389019 +0000,
,,,,,,,,,,,,,,,,,,,,,,,15,0,15,0,901.7304850000073,,,,,,,,,,903.9823847000371,904.4814959000214,,,,2.2414395999512635,,,,,,,,,,,,None,None,,,,,,,,,,Ring,,,cuedRecallAdj,3,,,,,,,,,,,,,,,,,,,,,,,,0,,,,,,,,,,,,,,,,,,,,,,,,,,,,901.720789300045,901.7304850000073,901.7304850000073,903.9797022000421,kurz,return,2.2414395999512635,None,903.9799650000059,903.9894775000284,903.9894775000284,903.9822825000156,,None,,,,,3,2023-11-27_09h31.08.509,watkins1,2023.2.3,99.78098072905604,14,2023-11-27 09h31.17.389019 +0000,
,,,,,,,,,,,,,,,,,,,,,,,16,0,16,0,904.4914893000387,,,,,,,,,,907.3766063000076,907.8750754000503,,,,2.880481400003191,,,,,,,,,,,,None,None,,,,,,,,,,Stift,,,cuedRecallAdj,3,,,,,,,,,,,,,,,,,,,,,,,,0,,,,,,,,,,,,,,,,,,,,,,,,,,,,904.4817367000505,904.4914893000387,904.4914893000387,907.3734199000173,dick,return,2.880481400003191,None,907.3736876000185,907.3830181000521,907.3830181000521,907.3765015000245,,None,,,,,3,2023-11-27_09h31.08.509,watkins1,2023.2.3,99.78098072905604,14,2023-11-27 09h31.17.389019 +0000,
,,,,,,,,,,,,,,,,,,,,,,,17,0,17,0,907.8850689000101,,,,,,,,,,912.2359611000284,912.7345756000141,,,,4.342845900042448,,,,,,,,,,,,None,None,,,,,,,,,,Tasse,,,cuedRecallAdj,3,,,,,,,,,,,,,,,,,,,,,,,,0,,,,,,,,,,,,,,,,,,,,,,,,,,,,907.875318800041,907.8850689000101,907.8850689000101,912.2329390000086,nachhaltig,return,4.342845900042448,None,912.2332045000512,912.2425623000017,912.2425623000017,912.2358603000175,,None,,,,,3,2023-11-27_09h31.08.509,watkins1,2023.2.3,99.78098072905604,14,2023-11-27 09h31.17.389019 +0000,
,,,,,,,,,,,,,,,,,,,,,,,18,0,18,0,912.7445835000253,,,,,,,,,,917.10681940004,917.6053748000413,,,,4.3552654000232,,,,,,,,,,,,None,None,,,,,,,,,,Vase,,,cuedRecallAdj,3,,,,,,,,,,,,,,,,,,,,,,,,0,,,,,,,,,,,,,,,,,,,,,,,,,,,,912.7348143000272,912.7445835000253,912.7445835000253,917.1038267000113,klobig,return,4.3552654000232,None,917.104095000017,917.1134076000308,917.1134076000308,917.1067162000109,,None,,,,,3,2023-11-27_09h31.08.509,watkins1,2023.2.3,99.78098072905604,14,2023-11-27 09h31.17.389019 +0000,
,,,,,,,,,,,,,,,,,,,,,,,19,0,19,0,917.6154255000292,,,,,,,,,,918.6822042000131,919.1716720000259,,,,1.0605112999910489,,,,,,,,,,,,None,None,,,,,,,,,,Blume,,,cuedRecallAdj,3,,,,,,,,,,,,,,,,,,,,,,,,0,,,,,,,,,,,,,,,,,,,,,,,,,,,,917.6056143000023,917.6154255000292,917.6154255000292,918.6800136000384,,return,1.0605112999910489,None,918.6802799000288,918.6895827000262,918.6895827000262,918.682101500046,,None,,,,,3,2023-11-27_09h31.08.509,watkins1,2023.2.3,99.78098072905604,14,2023-11-27 09h31.17.389019 +0000,
,,,,,,,,,,,,,,,,,,,,,,,20,0,20,0,919.181626900041,,,,,,,,,,924.6169628000353,925.1154642000329,,,,5.430329499999061,,,,,,,,,,,,None,None,,,,,,,,,,Tasche,,,cuedRecallAdj,3,,,,,,,,,,,,,,,,,,,,,,,,0,,,,,,,,,,,,,,,,,,,,,,,,,,,,919.1719129999983,919.181626900041,919.181626900041,924.6139165000059,gestreift,return,5.430329499999061,None,924.6141848000116,924.6234639000031,924.6234639000031,924.6168610000168,,None,,,,,3,2023-11-27_09h31.08.509,watkins1,2023.2.3,99.78098072905604,14,2023-11-27 09h31.17.389019 +0000,
,,,,,,,,,,,,,,,,,,,,,,,21,0,21,0,925.1253624000237,,,,,,,,,,929.5168513000244,930.015119000047,,,,4.382554700016044,,,,,,,,,,,,None,None,,,,,,,,,,Kette,,,cuedRecallAdj,3,,,,,,,,,,,,,,,,,,,,,,,,0,,,,,,,,,,,,,,,,,,,,,,,,,,,,925.1157050000038,925.1253624000237,925.1253624000237,929.5135511000408,schlicht,return,4.382554700016044,None,929.5138149000122,929.523108399997,929.523108399997,929.5167484999984,,None,,,,,3,2023-11-27_09h31.08.509,watkins1,2023.2.3,99.78098072905604,14,2023-11-27 09h31.17.389019 +0000,
,,,,,,,,,,,,,,,,,,,,,,,22,0,22,0,930.0250173000386,,,,,,,,,,932.4474505000398,932.9367822000058,,,,2.4188015999970958,,,,,,,,,,,,None,None,,,,,,,,,,Brille,,,cuedRecallAdj,3,,,,,,,,,,,,,,,,,,,,,,,,0,,,,,,,,,,,,,,,,,,,,,,,,,,,,930.0153622000362,930.0250173000386,930.0250173000386,932.4452323000296,,return,2.4188015999970958,None,932.4454954000539,932.4547844000044,932.4547844000044,932.4473486000206,,None,,,,,3,2023-11-27_09h31.08.509,watkins1,2023.2.3,99.78098072905604,14,2023-11-27 09h31.17.389019 +0000,
,,,,,,,,,,,,,,,,,,,,,,,23,0,23,0,932.946730900032,,,,,,,,,,934.8063373000477,935.2961801000056,,,,1.8571988000185229,,,,,,,,,,,,None,None,,,,,,,,,,Uhr,,,cuedRecallAdj,3,,,,,,,,,,,,,,,,,,,,,,,,0,,,,,,,,,,,,,,,,,,,,,,,,,,,,932.9370249000494,932.946730900032,932.946730900032,934.804597600014,,return,1.8571988000185229,None,934.8048644000082,934.8142518000095,934.8142518000095,934.8062349000247,,None,,,,,3,2023-11-27_09h31.08.509,watkins1,2023.2.3,99.78098072905604,14,2023-11-27 09h31.17.389019 +0000,
,,,,,,,,,,,,,,,,,,,,,,,24,0,24,0,935.3061379000428,,,,,,,,,,945.4314420000301,945.9295152000268,,,,10.113757600018289,,,,,,,,,,,,None,None,,,,,,,,,,Schlüssel,,,cuedRecallAdj,3,,,,,,,,,,,,,,,,,,,,,,,,0,,,,,,,,,,,,,,,,,,,,,,,,,,,,935.2964211000362,935.3061379000428,935.3061379000428,945.4278044000384,rustikal,return,10.113757600018289,None,945.4286242000526,945.4375157000031,945.4375157000031,945.4313394000055,,None,,,,,3,2023-11-27_09h31.08.509,watkins1,2023.2.3,99.78098072905604,14,2023-11-27 09h31.17.389019 +0000,
,,,,,,,,,,,,,,,,,,,,,,,25,0,25,0,945.9395088000456,,,,,,,,,,950.6120543000288,951.1103651000303,,,,4.664342799980659,,,,,,,,,,,,None,None,,,,,,,,,,Kerze,,,cuedRecallAdj,3,,,,,,,,,,,,,,,,,,,,,,,,0,,,,,,,,,,,,,,,,,,,,,,,,,,,,945.9297595000244,945.9395088000456,945.9395088000456,950.6087377000367,durchsichtig,return,4.664342799980659,None,950.6090026000165,950.6182438000105,950.6182438000105,950.6119467000244,,None,,,,,3,2023-11-27_09h31.08.509,watkins1,2023.2.3,99.78098072905604,14,2023-11-27 09h31.17.389019 +0000,
,,,,,,,,,,,,,,,,,,,,,,,26,0,26,0,951.12030530005,,,,,,,,,,954.5273748000036,955.0260401000269,,,,3.403581899998244,,,,,,,,,,,,None,None,,,,,,,,,,Socke,,,cuedRecallAdj,3,,,,,,,,,,,,,,,,,,,,,,,,0,,,,,,,,,,,,,,,,,,,,,,,,,,,,951.110604000045,951.12030530005,951.12030530005,954.5244427000289,dunkel,return,3.403581899998244,None,954.5247053000494,954.5339551000507,954.5339551000507,954.5272731000441,,None,,,,,3,2023-11-27_09h31.08.509,watkins1,2023.2.3,99.78098072905604,14,2023-11-27 09h31.17.389019 +0000,
,,,,,,,,,,,,,,,,,,,,,,,27,0,27,0,955.035988800053,,,,,,,,,,958.7945114000468,959.2930495000328,,,,3.7518272000015713,,,,,,,,,,,,None,None,,,,,,,,,,Lampe,,,cuedRecallAdj,3,,,,,,,,,,,,,,,,,,,,,,,,0,,,,,,,,,,,,,,,,,,,,,,,,,,,,955.0262777000316,955.035988800053,955.035988800053,958.7914794000098,bunt,return,3.7518272000015713,None,958.7917445000494,958.8010375000304,958.8010375000304,958.7944077000138,,None,,,,,3,2023-11-27_09h31.08.509,watkins1,2023.2.3,99.78098072905604,14,2023-11-27 09h31.17.389019 +0000,
,,,,,,,,,,,,,,,,,,,,,,,28,0,28,0,959.3029990000068,,,,,,,,,,960.2696534999995,960.7588639000314,,,,0.9570051000337116,,,,,,,,,,,,None,None,,,,,,,,,,Löffel,,,cuedRecallAdj,3,,,,,,,,,,,,,,,,,,,,,,,,0,,,,,,,,,,,,,,,,,,,,,,,,,,,,959.2932880000444,959.3029990000068,959.3029990000068,960.2672452999977,,return,0.9570051000337116,None,960.2675083000213,960.2768400000059,960.2768400000059,960.2695508000324,,None,,,,,3,2023-11-27_09h31.08.509,watkins1,2023.2.3,99.78098072905604,14,2023-11-27 09h31.17.389019 +0000,
,,,,,,,,,,,,,,,,,,,,,,,29,0,29,0,960.7687802000437,,,,,,,,,,969.1759766000323,969.6747351000085,,,,8.395036800007802,,,,,,,,,,,,None,None,,,,,,,,,,Kamera,,,cuedRecallAdj,3,,,,,,,,,,,,,,,,,,,,,,,,0,,,,,,,,,,,,,,,,,,,,,,,,,,,,960.7591101000435,960.7687802000437,960.7687802000437,969.1729239000124,schmutzig,return,8.395036800007802,None,969.1731959000463,969.1827459000051,969.1827459000051,969.175872300053,,None,,,,,3,2023-11-27_09h31.08.509,watkins1,2023.2.3,99.78098072905604,14,2023-11-27 09h31.17.389019 +0000,
,,,,,,,,,,,,,,,,,,,,,,,,,,,,,,,,,,,,,,,,,,,,,,,,,,,,,,,,,,,,,,,,,,,,,3,,,,,,,,,,,,,,,,,,,,,,,,,,,,,,,,,,,,,,,,,,,,,,,,,,,,,,,,,,,,,,,,,,969.6916672000079,q,252.831630199973,None,3,2023-11-27_09h31.08.509,watkins1,2023.2.3,99.78098072905604,14,2023-11-27 09h31.17.389019 +0000,
