Equation,CorrectResponse,Correctbutton,trials_7.thisRepN,trials_7.thisTrialN,trials_7.thisN,trials_7.thisIndex,trials.thisRepN,trials.thisTrialN,trials.thisN,trials.thisIndex,trials_3.thisRepN,trials_3.thisTrialN,trials_3.thisN,trials_3.thisIndex,trials_2.thisRepN,trials_2.thisTrialN,trials_2.thisN,trials_2.thisIndex,trials_4.thisRepN,trials_4.thisTrialN,trials_4.thisN,trials_4.thisIndex,trials_5.thisRepN,trials_5.thisTrialN,trials_5.thisN,trials_5.thisIndex,thisRow.t,notes,list_sub_restudy,list_sub_testsub,code_marius.started,code_marius.stopped,welcome.started,welcome.stopped,instruction_study.started,instruction_study.stopped,fixationcross.started,fixationcross.stopped,blanc.started,blanc.stopped,study_control_probe.started,study_control_probe.stopped,responseKey,responseTime,scale_answer_2.keys,study_control_probe_2.started,study_control_probe_2.stopped,scale_answer_3.keys,scale_answer_3.rt,scale_answer_3.duration,blanc_2.started,blanc_2.stopped,test_attr_probe.started,test_attr_probe.stopped,recalled_attr,firstKeyTime,secondWordTime,blanc_3.started,blanc_3.stopped,test_sub_probe.started,test_sub_probe.stopped,recalled_sub,instruction_probe_end.started,instruction_probe_end.stopped,study.started,study.stopped,substantive,adjective,wordpair,task,condition,liste_sub_phase1,liste_adj_phase1,scale_answer.keys,scale_answer.rt,scale_answer.duration,code_defineWordsInit.started,code_defineWordsInit.stopped,liste_sub_phase2,study_control.started,study_control.stopped,scale_answer_4.keys,restudy_same.started,restudy_same.stopped,scale_answer_5.keys,restudy_different.started,restudy_different.stopped,scale_answer_6.keys,test_attr.started,test_attr.stopped,test_sub.started,correct,test_sub.stopped,scale_answer_5.rt,scale_answer_5.duration,distractortask.started,equation_text.started,distractortask.stopped,mouse_answer.x,mouse_answer.y,mouse_answer.leftButton,mouse_answer.midButton,mouse_answer.rightButton,mouse_answer.time,mouse_answer.clicked_name,feedback_distractortask.started,feedback_distractortask.stopped,free_recall.started,text_enter.started,key_resp.started,free_recall.stopped,key_resp.keys,key_resp.rt,key_resp.duration,free_recalled_sub,mouse_continue.x,mouse_continue.y,mouse_continue.leftButton,mouse_continue.midButton,mouse_continue.rightButton,mouse_continue.time,mouse_continue.clicked_name,cued_recall.started,text_enter_2.started,key_continue.started,cued_recall.stopped,recalled_attr1,key_continue.keys,key_continue.rt,key_continue.duration,cued_recall_2.started,text_enter_3.started,key_continue_2.started,cued_recall_2.stopped,recalled_attr2,key_continue_2.keys,key_resp_8.started,key_resp_8.keys,key_resp_8.rt,key_resp_8.duration,condition,date,expName,psychopyVersion,frameRate,participant,expStart,
,,,,,,,,,,,,,,,,,,,,,,,,,,,,,"['Schere', 'Vase', 'Hammer', 'Stift', 'Uhr', 'Hut', 'Tasche', 'Jacke', 'Telefon', 'Flasche', 'Blume', 'Brille', 'Eimer', 'Würfel', 'Geige']","['Buch', 'Kerze', 'Ring', 'Socke', 'Fahrrad', 'Bürste', 'Lampe', 'Rucksack', 'Kette', 'Kamera', 'Tasse', 'Kiste', 'Löffel', 'Schlüssel', 'Trommel']",0.10740549999900395,0.10747249999985797,0.10748099999909755,12.907853199998499,,,,,,,,,,,,,,,,,,,,,,,,,,,,,,,,,,,,,2,,,,,,,,,,,,,,,,,,,,,,,,,,,,,,,,,,,,,,,,,,,,,,,,,,,,,,,,,,,,,,,,,,,,,,2,2023-12-14_10h27.13.093,watkins1,2023.2.3,99.73072703437632,65,2023-12-14 10h27.20.409841 +0000,
,,,,,,,,,,,,,,,,,,,,,,,,,,,,,,,,,,,12.90790250000282,94.82139350000216,,,,,,,,,,,,,,,,,,,,,,,,,,,,,,,,,,,2,,,,,,,,,,,,,,,,,,,,,,,,,,,,,,,,,,,,,,,,,,,,,,,,,,,,,,,,,,,,,,,,,,,,,,2,2023-12-14_10h27.13.093,watkins1,2023.2.3,99.73072703437632,65,2023-12-14 10h27.20.409841 +0000,
,,,0,0,0,0,,,,,,,,,,,,,,,,,,,,,95.83520419999695,,,,,,,,,,94.82140880000225,95.82522620000236,102.32319299999654,102.81456250000338,96.31727020000108,102.32301110000117,1,3.255275799994706,None,102.81457300000329,108.82326340000145,1,3.255275799994706,None,108.82357300000149,108.823596299997,108.82360360000166,108.82368400000269,,3.3134282999963034,None,108.82384849999653,109.31473420000111,109.31474570000137,115.31933079999726,Hund,,,,,,,,,2,,,,,,,,,,,,,,,,,,,,,,,,,,,,,,,,,,,,,,,,,,,,,,,,,,,,,,,,,,,,,,,,,,,,,,2,2023-12-14_10h27.13.093,watkins1,2023.2.3,99.73072703437632,65,2023-12-14 10h27.20.409841 +0000,
,,,,,,,,,,,,,,,,,,,,,,,,,,,,,,,,,,,,,,,,,,,,,,,,,,,,,,,,,,,,,,,115.31949280000117,123.12132600000041,,,,,,,2,,,,,,,,,,,,,,,,,,,,,,,,,,,,,,,,,,,,,,,,,,,,,,,,,,,,,,,,,,,,,,,,,,,,,,2,2023-12-14_10h27.13.093,watkins1,2023.2.3,99.73072703437632,65,2023-12-14 10h27.20.409841 +0000,
,,,,,,,0,0,0,0,,,,,,,,,,,,,,,,,124.13529839999683,,,,,,,,,,123.12134289999813,124.12531250000029,124.12578100000246,124.61724010000034,,,1,3.4485228000048664,,,,,,,,,,,,,,,,,,,,,124.61725190000288,130.62096900000324,Kerze,robust,"['Kerze', 'robust']",test_sub,2,"['Kerze', 'Vase', 'Hut', 'Tasche', 'Bürste', 'Kamera', 'Telefon', 'Tasse', 'Trommel', 'Eimer', 'Rucksack', 'Kette', 'Fahrrad', 'Würfel', 'Flasche', 'Socke', 'Stift', 'Löffel', 'Uhr', 'Lampe', 'Blume', 'Hammer', 'Jacke', 'Geige', 'Schere', 'Brille', 'Buch', 'Kiste', 'Ring', 'Schlüssel']",['robust'],1,3.4485228000048664,None,,,,,,,,,,,,,,,,,,,,,,,,,,,,,,,,,,,,,,,,,,,,,,,,,,,,,,,,,,,,,,,,,2,2023-12-14_10h27.13.093,watkins1,2023.2.3,99.73072703437632,65,2023-12-14 10h27.20.409841 +0000,
,,,,,,,1,0,1,0,,,,,,,,,,,,,,,,,130.6304663999981,,,,,,,,,,,,130.62161499999638,131.11256480000156,,,3,2.9062120000016876,,,,,,,,,,,,,,,,,,,,,131.1125744000019,137.11512999999832,Vase,gepunktet,"['Vase', 'gepunktet']",restudy,2,"['Kerze', 'Vase', 'Hut', 'Tasche', 'Bürste', 'Kamera', 'Telefon', 'Tasse', 'Trommel', 'Eimer', 'Rucksack', 'Kette', 'Fahrrad', 'Würfel', 'Flasche', 'Socke', 'Stift', 'Löffel', 'Uhr', 'Lampe', 'Blume', 'Hammer', 'Jacke', 'Geige', 'Schere', 'Brille', 'Buch', 'Kiste', 'Ring', 'Schlüssel']","['robust', 'gepunktet']",3,2.9062120000016876,None,,,,,,,,,,,,,,,,,,,,,,,,,,,,,,,,,,,,,,,,,,,,,,,,,,,,,,,,,,,,,,,,,2,2023-12-14_10h27.13.093,watkins1,2023.2.3,99.73072703437632,65,2023-12-14 10h27.20.409841 +0000,
,,,,,,,2,0,2,0,,,,,,,,,,,,,,,,,137.12458830000105,,,,,,,,,,,,137.11566019999736,137.60660970000026,,,1,2.1097016999992775,,,,,,,,,,,,,,,,,,,,,137.6066206999967,143.61563600000227,Hut,dick,"['Hut', 'dick']",restudy,2,"['Kerze', 'Vase', 'Hut', 'Tasche', 'Bürste', 'Kamera', 'Telefon', 'Tasse', 'Trommel', 'Eimer', 'Rucksack', 'Kette', 'Fahrrad', 'Würfel', 'Flasche', 'Socke', 'Stift', 'Löffel', 'Uhr', 'Lampe', 'Blume', 'Hammer', 'Jacke', 'Geige', 'Schere', 'Brille', 'Buch', 'Kiste', 'Ring', 'Schlüssel']","['robust', 'gepunktet', 'dick']",1,2.1097016999992775,None,,,,,,,,,,,,,,,,,,,,,,,,,,,,,,,,,,,,,,,,,,,,,,,,,,,,,,,,,,,,,,,,,2,2023-12-14_10h27.13.093,watkins1,2023.2.3,99.73072703437632,65,2023-12-14 10h27.20.409841 +0000,
,,,,,,,3,0,3,0,,,,,,,,,,,,,,,,,143.62511780000204,,,,,,,,,,,,143.61616499999946,144.10720279999805,,,1,2.5523638000013307,,,,,,,,,,,,,,,,,,,,,144.10721270000067,150.1175540999975,Tasche,hohl,"['Tasche', 'hohl']",restudy,2,"['Kerze', 'Vase', 'Hut', 'Tasche', 'Bürste', 'Kamera', 'Telefon', 'Tasse', 'Trommel', 'Eimer', 'Rucksack', 'Kette', 'Fahrrad', 'Würfel', 'Flasche', 'Socke', 'Stift', 'Löffel', 'Uhr', 'Lampe', 'Blume', 'Hammer', 'Jacke', 'Geige', 'Schere', 'Brille', 'Buch', 'Kiste', 'Ring', 'Schlüssel']","['robust', 'gepunktet', 'dick', 'hohl']",1,2.5523638000013307,None,,,,,,,,,,,,,,,,,,,,,,,,,,,,,,,,,,,,,,,,,,,,,,,,,,,,,,,,,,,,,,,,,2,2023-12-14_10h27.13.093,watkins1,2023.2.3,99.73072703437632,65,2023-12-14 10h27.20.409841 +0000,
,,,,,,,4,0,4,0,,,,,,,,,,,,,,,,,150.12712550000288,,,,,,,,,,,,150.11807409999892,150.60904139999911,,,2,2.1943356999981916,,,,,,,,,,,,,,,,,,,,,150.60905249999632,156.61023320000095,Bürste,lang,"['Bürste', 'lang']",test_sub,2,"['Kerze', 'Vase', 'Hut', 'Tasche', 'Bürste', 'Kamera', 'Telefon', 'Tasse', 'Trommel', 'Eimer', 'Rucksack', 'Kette', 'Fahrrad', 'Würfel', 'Flasche', 'Socke', 'Stift', 'Löffel', 'Uhr', 'Lampe', 'Blume', 'Hammer', 'Jacke', 'Geige', 'Schere', 'Brille', 'Buch', 'Kiste', 'Ring', 'Schlüssel']","['robust', 'gepunktet', 'dick', 'hohl', 'lang']",2,2.1943356999981916,None,,,,,,,,,,,,,,,,,,,,,,,,,,,,,,,,,,,,,,,,,,,,,,,,,,,,,,,,,,,,,,,,,2,2023-12-14_10h27.13.093,watkins1,2023.2.3,99.73072703437632,65,2023-12-14 10h27.20.409841 +0000,
,,,,,,,5,0,5,0,,,,,,,,,,,,,,,,,156.61972830000013,,,,,,,,,,,,156.61076930000127,157.10202479999862,,,1,1.6220663999993121,,,,,,,,,,,,,,,,,,,,,157.10203519999777,163.10412109999743,Kamera,kurz,"['Kamera', 'kurz']",test_sub,2,"['Kerze', 'Vase', 'Hut', 'Tasche', 'Bürste', 'Kamera', 'Telefon', 'Tasse', 'Trommel', 'Eimer', 'Rucksack', 'Kette', 'Fahrrad', 'Würfel', 'Flasche', 'Socke', 'Stift', 'Löffel', 'Uhr', 'Lampe', 'Blume', 'Hammer', 'Jacke', 'Geige', 'Schere', 'Brille', 'Buch', 'Kiste', 'Ring', 'Schlüssel']","['robust', 'gepunktet', 'dick', 'hohl', 'lang', 'kurz']",1,1.6220663999993121,None,,,,,,,,,,,,,,,,,,,,,,,,,,,,,,,,,,,,,,,,,,,,,,,,,,,,,,,,,,,,,,,,,2,2023-12-14_10h27.13.093,watkins1,2023.2.3,99.73072703437632,65,2023-12-14 10h27.20.409841 +0000,
,,,,,,,6,0,6,0,,,,,,,,,,,,,,,,,163.11363659999915,,,,,,,,,,,,163.10465220000333,163.59564919999684,,,1,1.6482204000058118,,,,,,,,,,,,,,,,,,,,,163.59566020000057,169.6054232000024,Telefon,zart,"['Telefon', 'zart']",restudy,2,"['Kerze', 'Vase', 'Hut', 'Tasche', 'Bürste', 'Kamera', 'Telefon', 'Tasse', 'Trommel', 'Eimer', 'Rucksack', 'Kette', 'Fahrrad', 'Würfel', 'Flasche', 'Socke', 'Stift', 'Löffel', 'Uhr', 'Lampe', 'Blume', 'Hammer', 'Jacke', 'Geige', 'Schere', 'Brille', 'Buch', 'Kiste', 'Ring', 'Schlüssel']","['robust', 'gepunktet', 'dick', 'hohl', 'lang', 'kurz', 'zart']",1,1.6482204000058118,None,,,,,,,,,,,,,,,,,,,,,,,,,,,,,,,,,,,,,,,,,,,,,,,,,,,,,,,,,,,,,,,,,2,2023-12-14_10h27.13.093,watkins1,2023.2.3,99.73072703437632,65,2023-12-14 10h27.20.409841 +0000,
,,,,,,,7,0,7,0,,,,,,,,,,,,,,,,,169.6148841999966,,,,,,,,,,,,169.60594989999663,170.09684099999868,,,2,2.5314744000061182,,,,,,,,,,,,,,,,,,,,,170.09685129999707,176.09846429999743,Tasse,elegant,"['Tasse', 'elegant']",test_sub,2,"['Kerze', 'Vase', 'Hut', 'Tasche', 'Bürste', 'Kamera', 'Telefon', 'Tasse', 'Trommel', 'Eimer', 'Rucksack', 'Kette', 'Fahrrad', 'Würfel', 'Flasche', 'Socke', 'Stift', 'Löffel', 'Uhr', 'Lampe', 'Blume', 'Hammer', 'Jacke', 'Geige', 'Schere', 'Brille', 'Buch', 'Kiste', 'Ring', 'Schlüssel']","['robust', 'gepunktet', 'dick', 'hohl', 'lang', 'kurz', 'zart', 'elegant']",2,2.5314744000061182,None,,,,,,,,,,,,,,,,,,,,,,,,,,,,,,,,,,,,,,,,,,,,,,,,,,,,,,,,,,,,,,,,,2,2023-12-14_10h27.13.093,watkins1,2023.2.3,99.73072703437632,65,2023-12-14 10h27.20.409841 +0000,
,,,,,,,8,0,8,0,,,,,,,,,,,,,,,,,176.10793060000287,,,,,,,,,,,,176.09898879999673,176.58997259999887,,,2,3.31848689999606,,,,,,,,,,,,,,,,,,,,,176.58998299999803,182.59127750000334,Trommel,breit,"['Trommel', 'breit']",test_sub,2,"['Kerze', 'Vase', 'Hut', 'Tasche', 'Bürste', 'Kamera', 'Telefon', 'Tasse', 'Trommel', 'Eimer', 'Rucksack', 'Kette', 'Fahrrad', 'Würfel', 'Flasche', 'Socke', 'Stift', 'Löffel', 'Uhr', 'Lampe', 'Blume', 'Hammer', 'Jacke', 'Geige', 'Schere', 'Brille', 'Buch', 'Kiste', 'Ring', 'Schlüssel']","['robust', 'gepunktet', 'dick', 'hohl', 'lang', 'kurz', 'zart', 'elegant', 'breit']",2,3.31848689999606,None,,,,,,,,,,,,,,,,,,,,,,,,,,,,,,,,,,,,,,,,,,,,,,,,,,,,,,,,,,,,,,,,,2,2023-12-14_10h27.13.093,watkins1,2023.2.3,99.73072703437632,65,2023-12-14 10h27.20.409841 +0000,
,,,,,,,9,0,9,0,,,,,,,,,,,,,,,,,182.60072729999956,,,,,,,,,,,,182.59180370000104,183.08267769999657,,,3,3.440956099999312,,,,,,,,,,,,,,,,,,,,,183.0826887000003,189.08985630000097,Eimer,neu,"['Eimer', 'neu']",restudy,2,"['Kerze', 'Vase', 'Hut', 'Tasche', 'Bürste', 'Kamera', 'Telefon', 'Tasse', 'Trommel', 'Eimer', 'Rucksack', 'Kette', 'Fahrrad', 'Würfel', 'Flasche', 'Socke', 'Stift', 'Löffel', 'Uhr', 'Lampe', 'Blume', 'Hammer', 'Jacke', 'Geige', 'Schere', 'Brille', 'Buch', 'Kiste', 'Ring', 'Schlüssel']","['robust', 'gepunktet', 'dick', 'hohl', 'lang', 'kurz', 'zart', 'elegant', 'breit', 'neu']",3,3.440956099999312,None,,,,,,,,,,,,,,,,,,,,,,,,,,,,,,,,,,,,,,,,,,,,,,,,,,,,,,,,,,,,,,,,,2,2023-12-14_10h27.13.093,watkins1,2023.2.3,99.73072703437632,65,2023-12-14 10h27.20.409841 +0000,
,,,,,,,10,0,10,0,,,,,,,,,,,,,,,,,189.09931679999863,,,,,,,,,,,,189.0903701999996,189.58131400000275,,,3,3.9094928999984404,,,,,,,,,,,,,,,,,,,,,189.58132450000267,195.588588300001,Rucksack,groß,"['Rucksack', 'groß']",test_sub,2,"['Kerze', 'Vase', 'Hut', 'Tasche', 'Bürste', 'Kamera', 'Telefon', 'Tasse', 'Trommel', 'Eimer', 'Rucksack', 'Kette', 'Fahrrad', 'Würfel', 'Flasche', 'Socke', 'Stift', 'Löffel', 'Uhr', 'Lampe', 'Blume', 'Hammer', 'Jacke', 'Geige', 'Schere', 'Brille', 'Buch', 'Kiste', 'Ring', 'Schlüssel']","['robust', 'gepunktet', 'dick', 'hohl', 'lang', 'kurz', 'zart', 'elegant', 'breit', 'neu', 'groß']",3,3.9094928999984404,None,,,,,,,,,,,,,,,,,,,,,,,,,,,,,,,,,,,,,,,,,,,,,,,,,,,,,,,,,,,,,,,,,2,2023-12-14_10h27.13.093,watkins1,2023.2.3,99.73072703437632,65,2023-12-14 10h27.20.409841 +0000,
,,,,,,,11,0,11,0,,,,,,,,,,,,,,,,,195.59809949999908,,,,,,,,,,,,195.5891199999969,196.08010869999998,,,2,2.780266699999629,,,,,,,,,,,,,,,,,,,,,196.08011850000184,202.0889645999996,Kette,praktisch,"['Kette', 'praktisch']",test_sub,2,"['Kerze', 'Vase', 'Hut', 'Tasche', 'Bürste', 'Kamera', 'Telefon', 'Tasse', 'Trommel', 'Eimer', 'Rucksack', 'Kette', 'Fahrrad', 'Würfel', 'Flasche', 'Socke', 'Stift', 'Löffel', 'Uhr', 'Lampe', 'Blume', 'Hammer', 'Jacke', 'Geige', 'Schere', 'Brille', 'Buch', 'Kiste', 'Ring', 'Schlüssel']","['robust', 'gepunktet', 'dick', 'hohl', 'lang', 'kurz', 'zart', 'elegant', 'breit', 'neu', 'groß', 'praktisch']",2,2.780266699999629,None,,,,,,,,,,,,,,,,,,,,,,,,,,,,,,,,,,,,,,,,,,,,,,,,,,,,,,,,,,,,,,,,,2,2023-12-14_10h27.13.093,watkins1,2023.2.3,99.73072703437632,65,2023-12-14 10h27.20.409841 +0000,
,,,,,,,12,0,12,0,,,,,,,,,,,,,,,,,202.09822990000248,,,,,,,,,,,,202.0895101999995,202.58038549999765,,,3,2.3993676000027335,,,,,,,,,,,,,,,,,,,,,202.5803958999968,208.59084060000168,Fahrrad,schmutzig,"['Fahrrad', 'schmutzig']",test_sub,2,"['Kerze', 'Vase', 'Hut', 'Tasche', 'Bürste', 'Kamera', 'Telefon', 'Tasse', 'Trommel', 'Eimer', 'Rucksack', 'Kette', 'Fahrrad', 'Würfel', 'Flasche', 'Socke', 'Stift', 'Löffel', 'Uhr', 'Lampe', 'Blume', 'Hammer', 'Jacke', 'Geige', 'Schere', 'Brille', 'Buch', 'Kiste', 'Ring', 'Schlüssel']","['robust', 'gepunktet', 'dick', 'hohl', 'lang', 'kurz', 'zart', 'elegant', 'breit', 'neu', 'groß', 'praktisch', 'schmutzig']",3,2.3993676000027335,None,,,,,,,,,,,,,,,,,,,,,,,,,,,,,,,,,,,,,,,,,,,,,,,,,,,,,,,,,,,,,,,,,2,2023-12-14_10h27.13.093,watkins1,2023.2.3,99.73072703437632,65,2023-12-14 10h27.20.409841 +0000,
,,,,,,,13,0,13,0,,,,,,,,,,,,,,,,,208.6003869999986,,,,,,,,,,,,208.59137470000132,209.08245159999933,,,1,2.4971698000008473,,,,,,,,,,,,,,,,,,,,,209.08246189999772,215.08606699999655,Würfel,flauschig,"['Würfel', 'flauschig']",restudy,2,"['Kerze', 'Vase', 'Hut', 'Tasche', 'Bürste', 'Kamera', 'Telefon', 'Tasse', 'Trommel', 'Eimer', 'Rucksack', 'Kette', 'Fahrrad', 'Würfel', 'Flasche', 'Socke', 'Stift', 'Löffel', 'Uhr', 'Lampe', 'Blume', 'Hammer', 'Jacke', 'Geige', 'Schere', 'Brille', 'Buch', 'Kiste', 'Ring', 'Schlüssel']","['robust', 'gepunktet', 'dick', 'hohl', 'lang', 'kurz', 'zart', 'elegant', 'breit', 'neu', 'groß', 'praktisch', 'schmutzig', 'flauschig']",1,2.4971698000008473,None,,,,,,,,,,,,,,,,,,,,,,,,,,,,,,,,,,,,,,,,,,,,,,,,,,,,,,,,,,,,,,,,,2,2023-12-14_10h27.13.093,watkins1,2023.2.3,99.73072703437632,65,2023-12-14 10h27.20.409841 +0000,
,,,,,,,14,0,14,0,,,,,,,,,,,,,,,,,215.09552860000258,,,,,,,,,,,,215.0865868999972,215.5775328000018,,,1,3.6987375000026077,,,,,,,,,,,,,,,,,,,,,215.57754350000323,221.57836690000113,Flasche,dunkel,"['Flasche', 'dunkel']",restudy,2,"['Kerze', 'Vase', 'Hut', 'Tasche', 'Bürste', 'Kamera', 'Telefon', 'Tasse', 'Trommel', 'Eimer', 'Rucksack', 'Kette', 'Fahrrad', 'Würfel', 'Flasche', 'Socke', 'Stift', 'Löffel', 'Uhr', 'Lampe', 'Blume', 'Hammer', 'Jacke', 'Geige', 'Schere', 'Brille', 'Buch', 'Kiste', 'Ring', 'Schlüssel']","['robust', 'gepunktet', 'dick', 'hohl', 'lang', 'kurz', 'zart', 'elegant', 'breit', 'neu', 'groß', 'praktisch', 'schmutzig', 'flauschig', 'dunkel']",1,3.6987375000026077,None,,,,,,,,,,,,,,,,,,,,,,,,,,,,,,,,,,,,,,,,,,,,,,,,,,,,,,,,,,,,,,,,,2,2023-12-14_10h27.13.093,watkins1,2023.2.3,99.73072703437632,65,2023-12-14 10h27.20.409841 +0000,
,,,,,,,15,0,15,0,,,,,,,,,,,,,,,,,221.58783080000285,,,,,,,,,,,,221.5788962000006,222.0698302000019,,,1,1.3663595000034547,,,,,,,,,,,,,,,,,,,,,222.06984029999876,228.07810679999966,Socke,matt,"['Socke', 'matt']",test_sub,2,"['Kerze', 'Vase', 'Hut', 'Tasche', 'Bürste', 'Kamera', 'Telefon', 'Tasse', 'Trommel', 'Eimer', 'Rucksack', 'Kette', 'Fahrrad', 'Würfel', 'Flasche', 'Socke', 'Stift', 'Löffel', 'Uhr', 'Lampe', 'Blume', 'Hammer', 'Jacke', 'Geige', 'Schere', 'Brille', 'Buch', 'Kiste', 'Ring', 'Schlüssel']","['robust', 'gepunktet', 'dick', 'hohl', 'lang', 'kurz', 'zart', 'elegant', 'breit', 'neu', 'groß', 'praktisch', 'schmutzig', 'flauschig', 'dunkel', 'matt']",1,1.3663595000034547,None,,,,,,,,,,,,,,,,,,,,,,,,,,,,,,,,,,,,,,,,,,,,,,,,,,,,,,,,,,,,,,,,,2,2023-12-14_10h27.13.093,watkins1,2023.2.3,99.73072703437632,65,2023-12-14 10h27.20.409841 +0000,
,,,,,,,16,0,16,0,,,,,,,,,,,,,,,,,228.0875986999963,,,,,,,,,,,,228.07861740000226,228.56968760000018,,,3,3.666425400006119,,,,,,,,,,,,,,,,,,,,,228.5696977999978,234.5777764000013,Stift,schlicht,"['Stift', 'schlicht']",restudy,2,"['Kerze', 'Vase', 'Hut', 'Tasche', 'Bürste', 'Kamera', 'Telefon', 'Tasse', 'Trommel', 'Eimer', 'Rucksack', 'Kette', 'Fahrrad', 'Würfel', 'Flasche', 'Socke', 'Stift', 'Löffel', 'Uhr', 'Lampe', 'Blume', 'Hammer', 'Jacke', 'Geige', 'Schere', 'Brille', 'Buch', 'Kiste', 'Ring', 'Schlüssel']","['robust', 'gepunktet', 'dick', 'hohl', 'lang', 'kurz', 'zart', 'elegant', 'breit', 'neu', 'groß', 'praktisch', 'schmutzig', 'flauschig', 'dunkel', 'matt', 'schlicht']",3,3.666425400006119,None,,,,,,,,,,,,,,,,,,,,,,,,,,,,,,,,,,,,,,,,,,,,,,,,,,,,,,,,,,,,,,,,,2,2023-12-14_10h27.13.093,watkins1,2023.2.3,99.73072703437632,65,2023-12-14 10h27.20.409841 +0000,
,,,,,,,17,0,17,0,,,,,,,,,,,,,,,,,234.58721589999914,,,,,,,,,,,,234.5783145000023,235.0691822000008,,,3,2.81429229999776,,,,,,,,,,,,,,,,,,,,,235.06919229999767,241.0699695000003,Löffel,strahlend,"['Löffel', 'strahlend']",test_sub,2,"['Kerze', 'Vase', 'Hut', 'Tasche', 'Bürste', 'Kamera', 'Telefon', 'Tasse', 'Trommel', 'Eimer', 'Rucksack', 'Kette', 'Fahrrad', 'Würfel', 'Flasche', 'Socke', 'Stift', 'Löffel', 'Uhr', 'Lampe', 'Blume', 'Hammer', 'Jacke', 'Geige', 'Schere', 'Brille', 'Buch', 'Kiste', 'Ring', 'Schlüssel']","['robust', 'gepunktet', 'dick', 'hohl', 'lang', 'kurz', 'zart', 'elegant', 'breit', 'neu', 'groß', 'praktisch', 'schmutzig', 'flauschig', 'dunkel', 'matt', 'schlicht', 'strahlend']",3,2.81429229999776,None,,,,,,,,,,,,,,,,,,,,,,,,,,,,,,,,,,,,,,,,,,,,,,,,,,,,,,,,,,,,,,,,,2,2023-12-14_10h27.13.093,watkins1,2023.2.3,99.73072703437632,65,2023-12-14 10h27.20.409841 +0000,
,,,,,,,18,0,18,0,,,,,,,,,,,,,,,,,241.07944860000134,,,,,,,,,,,,241.070498699999,241.561386399997,,,3,1.0421151999980793,,,,,,,,,,,,,,,,,,,,,241.56140220000088,247.5718549000012,Uhr,hübsch,"['Uhr', 'hübsch']",restudy,2,"['Kerze', 'Vase', 'Hut', 'Tasche', 'Bürste', 'Kamera', 'Telefon', 'Tasse', 'Trommel', 'Eimer', 'Rucksack', 'Kette', 'Fahrrad', 'Würfel', 'Flasche', 'Socke', 'Stift', 'Löffel', 'Uhr', 'Lampe', 'Blume', 'Hammer', 'Jacke', 'Geige', 'Schere', 'Brille', 'Buch', 'Kiste', 'Ring', 'Schlüssel']","['robust', 'gepunktet', 'dick', 'hohl', 'lang', 'kurz', 'zart', 'elegant', 'breit', 'neu', 'groß', 'praktisch', 'schmutzig', 'flauschig', 'dunkel', 'matt', 'schlicht', 'strahlend', 'hübsch']",3,1.0421151999980793,None,,,,,,,,,,,,,,,,,,,,,,,,,,,,,,,,,,,,,,,,,,,,,,,,,,,,,,,,,,,,,,,,,2,2023-12-14_10h27.13.093,watkins1,2023.2.3,99.73072703437632,65,2023-12-14 10h27.20.409841 +0000,
,,,,,,,19,0,19,0,,,,,,,,,,,,,,,,,247.58135040000343,,,,,,,,,,,,247.57238920000236,248.0634554999997,,,1,2.364824600001157,,,,,,,,,,,,,,,,,,,,,248.06346550000308,254.06527690000075,Lampe,kratzig,"['Lampe', 'kratzig']",test_sub,2,"['Kerze', 'Vase', 'Hut', 'Tasche', 'Bürste', 'Kamera', 'Telefon', 'Tasse', 'Trommel', 'Eimer', 'Rucksack', 'Kette', 'Fahrrad', 'Würfel', 'Flasche', 'Socke', 'Stift', 'Löffel', 'Uhr', 'Lampe', 'Blume', 'Hammer', 'Jacke', 'Geige', 'Schere', 'Brille', 'Buch', 'Kiste', 'Ring', 'Schlüssel']","['robust', 'gepunktet', 'dick', 'hohl', 'lang', 'kurz', 'zart', 'elegant', 'breit', 'neu', 'groß', 'praktisch', 'schmutzig', 'flauschig', 'dunkel', 'matt', 'schlicht', 'strahlend', 'hübsch', 'kratzig']",1,2.364824600001157,None,,,,,,,,,,,,,,,,,,,,,,,,,,,,,,,,,,,,,,,,,,,,,,,,,,,,,,,,,,,,,,,,,2,2023-12-14_10h27.13.093,watkins1,2023.2.3,99.73072703437632,65,2023-12-14 10h27.20.409841 +0000,
,,,,,,,20,0,20,0,,,,,,,,,,,,,,,,,254.07471039999655,,,,,,,,,,,,254.06582689999777,254.55666770000244,,,1,1.599016499996651,,,,,,,,,,,,,,,,,,,,,254.55667730000278,260.55887559999974,Blume,schwer,"['Blume', 'schwer']",restudy,2,"['Kerze', 'Vase', 'Hut', 'Tasche', 'Bürste', 'Kamera', 'Telefon', 'Tasse', 'Trommel', 'Eimer', 'Rucksack', 'Kette', 'Fahrrad', 'Würfel', 'Flasche', 'Socke', 'Stift', 'Löffel', 'Uhr', 'Lampe', 'Blume', 'Hammer', 'Jacke', 'Geige', 'Schere', 'Brille', 'Buch', 'Kiste', 'Ring', 'Schlüssel']","['robust', 'gepunktet', 'dick', 'hohl', 'lang', 'kurz', 'zart', 'elegant', 'breit', 'neu', 'groß', 'praktisch', 'schmutzig', 'flauschig', 'dunkel', 'matt', 'schlicht', 'strahlend', 'hübsch', 'kratzig', 'schwer']",1,1.599016499996651,None,,,,,,,,,,,,,,,,,,,,,,,,,,,,,,,,,,,,,,,,,,,,,,,,,,,,,,,,,,,,,,,,,2,2023-12-14_10h27.13.093,watkins1,2023.2.3,99.73072703437632,65,2023-12-14 10h27.20.409841 +0000,
,,,,,,,21,0,21,0,,,,,,,,,,,,,,,,,260.568305300003,,,,,,,,,,,,260.55941310000344,261.050473299998,,,2,2.3377821000030963,,,,,,,,,,,,,,,,,,,,,261.0504829999991,267.0592489999981,Hammer,nachhaltig,"['Hammer', 'nachhaltig']",restudy,2,"['Kerze', 'Vase', 'Hut', 'Tasche', 'Bürste', 'Kamera', 'Telefon', 'Tasse', 'Trommel', 'Eimer', 'Rucksack', 'Kette', 'Fahrrad', 'Würfel', 'Flasche', 'Socke', 'Stift', 'Löffel', 'Uhr', 'Lampe', 'Blume', 'Hammer', 'Jacke', 'Geige', 'Schere', 'Brille', 'Buch', 'Kiste', 'Ring', 'Schlüssel']","['robust', 'gepunktet', 'dick', 'hohl', 'lang', 'kurz', 'zart', 'elegant', 'breit', 'neu', 'groß', 'praktisch', 'schmutzig', 'flauschig', 'dunkel', 'matt', 'schlicht', 'strahlend', 'hübsch', 'kratzig', 'schwer', 'nachhaltig']",2,2.3377821000030963,None,,,,,,,,,,,,,,,,,,,,,,,,,,,,,,,,,,,,,,,,,,,,,,,,,,,,,,,,,,,,,,,,,2,2023-12-14_10h27.13.093,watkins1,2023.2.3,99.73072703437632,65,2023-12-14 10h27.20.409841 +0000,
,,,,,,,22,0,22,0,,,,,,,,,,,,,,,,,267.0687545999972,,,,,,,,,,,,267.05977800000255,267.5506263999996,,,2,3.3965962000002037,,,,,,,,,,,,,,,,,,,,,267.5506386999987,273.5512896,Jacke,klobig,"['Jacke', 'klobig']",restudy,2,"['Kerze', 'Vase', 'Hut', 'Tasche', 'Bürste', 'Kamera', 'Telefon', 'Tasse', 'Trommel', 'Eimer', 'Rucksack', 'Kette', 'Fahrrad', 'Würfel', 'Flasche', 'Socke', 'Stift', 'Löffel', 'Uhr', 'Lampe', 'Blume', 'Hammer', 'Jacke', 'Geige', 'Schere', 'Brille', 'Buch', 'Kiste', 'Ring', 'Schlüssel']","['robust', 'gepunktet', 'dick', 'hohl', 'lang', 'kurz', 'zart', 'elegant', 'breit', 'neu', 'groß', 'praktisch', 'schmutzig', 'flauschig', 'dunkel', 'matt', 'schlicht', 'strahlend', 'hübsch', 'kratzig', 'schwer', 'nachhaltig', 'klobig']",2,3.3965962000002037,None,,,,,,,,,,,,,,,,,,,,,,,,,,,,,,,,,,,,,,,,,,,,,,,,,,,,,,,,,,,,,,,,,2,2023-12-14_10h27.13.093,watkins1,2023.2.3,99.73072703437632,65,2023-12-14 10h27.20.409841 +0000,
,,,,,,,23,0,23,0,,,,,,,,,,,,,,,,,273.56076369999937,,,,,,,,,,,,273.55181930000253,274.0428264000002,,,1,1.8567429999966407,,,,,,,,,,,,,,,,,,,,,274.0428363999963,280.05339139999705,Geige,flach,"['Geige', 'flach']",restudy,2,"['Kerze', 'Vase', 'Hut', 'Tasche', 'Bürste', 'Kamera', 'Telefon', 'Tasse', 'Trommel', 'Eimer', 'Rucksack', 'Kette', 'Fahrrad', 'Würfel', 'Flasche', 'Socke', 'Stift', 'Löffel', 'Uhr', 'Lampe', 'Blume', 'Hammer', 'Jacke', 'Geige', 'Schere', 'Brille', 'Buch', 'Kiste', 'Ring', 'Schlüssel']","['robust', 'gepunktet', 'dick', 'hohl', 'lang', 'kurz', 'zart', 'elegant', 'breit', 'neu', 'groß', 'praktisch', 'schmutzig', 'flauschig', 'dunkel', 'matt', 'schlicht', 'strahlend', 'hübsch', 'kratzig', 'schwer', 'nachhaltig', 'klobig', 'flach']",1,1.8567429999966407,None,,,,,,,,,,,,,,,,,,,,,,,,,,,,,,,,,,,,,,,,,,,,,,,,,,,,,,,,,,,,,,,,,2,2023-12-14_10h27.13.093,watkins1,2023.2.3,99.73072703437632,65,2023-12-14 10h27.20.409841 +0000,
,,,,,,,24,0,24,0,,,,,,,,,,,,,,,,,280.0628579999975,,,,,,,,,,,,280.0539162999994,280.54488290000154,,,3,2.090419000000111,,,,,,,,,,,,,,,,,,,,,280.54489340000146,286.5485028999974,Schere,glänzend,"['Schere', 'glänzend']",restudy,2,"['Kerze', 'Vase', 'Hut', 'Tasche', 'Bürste', 'Kamera', 'Telefon', 'Tasse', 'Trommel', 'Eimer', 'Rucksack', 'Kette', 'Fahrrad', 'Würfel', 'Flasche', 'Socke', 'Stift', 'Löffel', 'Uhr', 'Lampe', 'Blume', 'Hammer', 'Jacke', 'Geige', 'Schere', 'Brille', 'Buch', 'Kiste', 'Ring', 'Schlüssel']","['robust', 'gepunktet', 'dick', 'hohl', 'lang', 'kurz', 'zart', 'elegant', 'breit', 'neu', 'groß', 'praktisch', 'schmutzig', 'flauschig', 'dunkel', 'matt', 'schlicht', 'strahlend', 'hübsch', 'kratzig', 'schwer', 'nachhaltig', 'klobig', 'flach', 'glänzend']",3,2.090419000000111,None,,,,,,,,,,,,,,,,,,,,,,,,,,,,,,,,,,,,,,,,,,,,,,,,,,,,,,,,,,,,,,,,,2,2023-12-14_10h27.13.093,watkins1,2023.2.3,99.73072703437632,65,2023-12-14 10h27.20.409841 +0000,
,,,,,,,25,0,25,0,,,,,,,,,,,,,,,,,286.55790120000165,,,,,,,,,,,,286.54904440000246,287.0399995999978,,,3,2.7242213999998057,,,,,,,,,,,,,,,,,,,,,287.040009999997,293.04722729999776,Brille,kaputt,"['Brille', 'kaputt']",restudy,2,"['Kerze', 'Vase', 'Hut', 'Tasche', 'Bürste', 'Kamera', 'Telefon', 'Tasse', 'Trommel', 'Eimer', 'Rucksack', 'Kette', 'Fahrrad', 'Würfel', 'Flasche', 'Socke', 'Stift', 'Löffel', 'Uhr', 'Lampe', 'Blume', 'Hammer', 'Jacke', 'Geige', 'Schere', 'Brille', 'Buch', 'Kiste', 'Ring', 'Schlüssel']","['robust', 'gepunktet', 'dick', 'hohl', 'lang', 'kurz', 'zart', 'elegant', 'breit', 'neu', 'groß', 'praktisch', 'schmutzig', 'flauschig', 'dunkel', 'matt', 'schlicht', 'strahlend', 'hübsch', 'kratzig', 'schwer', 'nachhaltig', 'klobig', 'flach', 'glänzend', 'kaputt']",3,2.7242213999998057,None,,,,,,,,,,,,,,,,,,,,,,,,,,,,,,,,,,,,,,,,,,,,,,,,,,,,,,,,,,,,,,,,,2,2023-12-14_10h27.13.093,watkins1,2023.2.3,99.73072703437632,65,2023-12-14 10h27.20.409841 +0000,
,,,,,,,26,0,26,0,,,,,,,,,,,,,,,,,293.05676030000177,,,,,,,,,,,,293.0477506000025,293.53903020000143,,,3,3.401599899996654,,,,,,,,,,,,,,,,,,,,,293.5390400000033,299.5472344000009,Buch,teuer,"['Buch', 'teuer']",test_sub,2,"['Kerze', 'Vase', 'Hut', 'Tasche', 'Bürste', 'Kamera', 'Telefon', 'Tasse', 'Trommel', 'Eimer', 'Rucksack', 'Kette', 'Fahrrad', 'Würfel', 'Flasche', 'Socke', 'Stift', 'Löffel', 'Uhr', 'Lampe', 'Blume', 'Hammer', 'Jacke', 'Geige', 'Schere', 'Brille', 'Buch', 'Kiste', 'Ring', 'Schlüssel']","['robust', 'gepunktet', 'dick', 'hohl', 'lang', 'kurz', 'zart', 'elegant', 'breit', 'neu', 'groß', 'praktisch', 'schmutzig', 'flauschig', 'dunkel', 'matt', 'schlicht', 'strahlend', 'hübsch', 'kratzig', 'schwer', 'nachhaltig', 'klobig', 'flach', 'glänzend', 'kaputt', 'teuer']",3,3.401599899996654,None,,,,,,,,,,,,,,,,,,,,,,,,,,,,,,,,,,,,,,,,,,,,,,,,,,,,,,,,,,,,,,,,,2,2023-12-14_10h27.13.093,watkins1,2023.2.3,99.73072703437632,65,2023-12-14 10h27.20.409841 +0000,
,,,,,,,27,0,27,0,,,,,,,,,,,,,,,,,299.55668439999863,,,,,,,,,,,,299.5477724000011,300.03883700000006,,,2,3.589506199998141,,,,,,,,,,,,,,,,,,,,,300.0388477000015,306.04705770000146,Kiste,sportlich,"['Kiste', 'sportlich']",test_sub,2,"['Kerze', 'Vase', 'Hut', 'Tasche', 'Bürste', 'Kamera', 'Telefon', 'Tasse', 'Trommel', 'Eimer', 'Rucksack', 'Kette', 'Fahrrad', 'Würfel', 'Flasche', 'Socke', 'Stift', 'Löffel', 'Uhr', 'Lampe', 'Blume', 'Hammer', 'Jacke', 'Geige', 'Schere', 'Brille', 'Buch', 'Kiste', 'Ring', 'Schlüssel']","['robust', 'gepunktet', 'dick', 'hohl', 'lang', 'kurz', 'zart', 'elegant', 'breit', 'neu', 'groß', 'praktisch', 'schmutzig', 'flauschig', 'dunkel', 'matt', 'schlicht', 'strahlend', 'hübsch', 'kratzig', 'schwer', 'nachhaltig', 'klobig', 'flach', 'glänzend', 'kaputt', 'teuer', 'sportlich']",2,3.589506199998141,None,,,,,,,,,,,,,,,,,,,,,,,,,,,,,,,,,,,,,,,,,,,,,,,,,,,,,,,,,,,,,,,,,2,2023-12-14_10h27.13.093,watkins1,2023.2.3,99.73072703437632,65,2023-12-14 10h27.20.409841 +0000,
,,,,,,,28,0,28,0,,,,,,,,,,,,,,,,,306.0564282999985,,,,,,,,,,,,306.0476248999985,306.53820540000015,,,3,1.1620858999958728,,,,,,,,,,,,,,,,,,,,,306.5382169000004,312.5459350000019,Ring,niedlich,"['Ring', 'niedlich']",test_sub,2,"['Kerze', 'Vase', 'Hut', 'Tasche', 'Bürste', 'Kamera', 'Telefon', 'Tasse', 'Trommel', 'Eimer', 'Rucksack', 'Kette', 'Fahrrad', 'Würfel', 'Flasche', 'Socke', 'Stift', 'Löffel', 'Uhr', 'Lampe', 'Blume', 'Hammer', 'Jacke', 'Geige', 'Schere', 'Brille', 'Buch', 'Kiste', 'Ring', 'Schlüssel']","['robust', 'gepunktet', 'dick', 'hohl', 'lang', 'kurz', 'zart', 'elegant', 'breit', 'neu', 'groß', 'praktisch', 'schmutzig', 'flauschig', 'dunkel', 'matt', 'schlicht', 'strahlend', 'hübsch', 'kratzig', 'schwer', 'nachhaltig', 'klobig', 'flach', 'glänzend', 'kaputt', 'teuer', 'sportlich', 'niedlich']",3,1.1620858999958728,None,,,,,,,,,,,,,,,,,,,,,,,,,,,,,,,,,,,,,,,,,,,,,,,,,,,,,,,,,,,,,,,,,2,2023-12-14_10h27.13.093,watkins1,2023.2.3,99.73072703437632,65,2023-12-14 10h27.20.409841 +0000,
,,,,,,,29,0,29,0,,,,,,,,,,,,,,,,,312.5553841000001,,,,,,,,,,,,312.5464737000002,313.0375060000006,,,3,2.942957799998112,,,,,,,,,,,,,,,,,,,,,313.03751629999897,319.0462894000011,Schlüssel,kalt,"['Schlüssel', 'kalt']",test_sub,2,"['Kerze', 'Vase', 'Hut', 'Tasche', 'Bürste', 'Kamera', 'Telefon', 'Tasse', 'Trommel', 'Eimer', 'Rucksack', 'Kette', 'Fahrrad', 'Würfel', 'Flasche', 'Socke', 'Stift', 'Löffel', 'Uhr', 'Lampe', 'Blume', 'Hammer', 'Jacke', 'Geige', 'Schere', 'Brille', 'Buch', 'Kiste', 'Ring', 'Schlüssel']","['robust', 'gepunktet', 'dick', 'hohl', 'lang', 'kurz', 'zart', 'elegant', 'breit', 'neu', 'groß', 'praktisch', 'schmutzig', 'flauschig', 'dunkel', 'matt', 'schlicht', 'strahlend', 'hübsch', 'kratzig', 'schwer', 'nachhaltig', 'klobig', 'flach', 'glänzend', 'kaputt', 'teuer', 'sportlich', 'niedlich', 'kalt']",3,2.942957799998112,None,,,,,,,,,,,,,,,,,,,,,,,,,,,,,,,,,,,,,,,,,,,,,,,,,,,,,,,,,,,,,,,,,2,2023-12-14_10h27.13.093,watkins1,2023.2.3,99.73072703437632,65,2023-12-14 10h27.20.409841 +0000,
,,,,,,,,,,,0,0,0,0,,,,,,,,,,,,,319.0557195000001,,,,,,,,,,,,319.04716370000097,319.53811719999794,,,[],[],,,,,,,,,,,,None,None,,,,,,,,,,Rucksack,groß,"['Rucksack', 'groß']",test_sub,2,,,,,,319.0470858999979,319.0471366999991,"['Rucksack', 'Fahrrad', 'Kerze', 'Würfel', 'Brille', 'Eimer', 'Bürste', 'Jacke', 'Telefon', 'Lampe', 'Tasche', 'Blume', 'Stift', 'Buch', 'Uhr', 'Trommel', 'Löffel', 'Tasse', 'Kiste', 'Geige', 'Kette', 'Hut', 'Flasche', 'Vase', 'Hammer', 'Ring', 'Schlüssel', 'Schere', 'Socke', 'Kamera']",319.53812769999786,319.54083209999953,None,319.5410161999971,319.54357860000164,None,319.543743000002,319.54645000000164,None,319.5467534999989,319.54802259999997,319.5480358999994,0,325.55466400000296,,,,,,,,,,,,,,,,,,,,,,,,,,,,,,,,,,,,,,,,,,,,,,,,2,2023-12-14_10h27.13.093,watkins1,2023.2.3,99.73072703437632,65,2023-12-14 10h27.20.409841 +0000,
,,,,,,,,,,,1,0,1,0,,,,,,,,,,,,,325.5644317999977,,,,,,,,,,,,325.55495240000164,326.0466547000033,,,[],[],,,,,,,,,,,,None,None,,,,,,,,,,Fahrrad,schmutzig,"['Fahrrad', 'schmutzig']",test_sub,2,,,,,,325.5548859999981,325.55492349999986,"['Rucksack', 'Fahrrad', 'Kerze', 'Würfel', 'Brille', 'Eimer', 'Bürste', 'Jacke', 'Telefon', 'Lampe', 'Tasche', 'Blume', 'Stift', 'Buch', 'Uhr', 'Trommel', 'Löffel', 'Tasse', 'Kiste', 'Geige', 'Kette', 'Hut', 'Flasche', 'Vase', 'Hammer', 'Ring', 'Schlüssel', 'Schere', 'Socke', 'Kamera']",326.04666539999744,326.0493118000013,None,326.04944070000056,326.0518996999963,None,326.05201099999977,326.0545839999977,None,326.0546949999989,326.05589950000285,326.0559121999977,0,332.0633203999969,,,,,,,,,,,,,,,,,,,,,,,,,,,,,,,,,,,,,,,,,,,,,,,,2,2023-12-14_10h27.13.093,watkins1,2023.2.3,99.73072703437632,65,2023-12-14 10h27.20.409841 +0000,
,,,,,,,,,,,2,0,2,0,,,,,,,,,,,,,332.07306770000287,,,,,,,,,,,,332.06360609999683,332.5554462,,,[],[],,,,,,,,,,,,2.0389092000041273,None,,,,,Kerze,,,,,Kerze,robust,"['Kerze', 'robust']",test_sub,2,,,,,,332.06353970000055,332.0635772000023,"['Rucksack', 'Fahrrad', 'Kerze', 'Würfel', 'Brille', 'Eimer', 'Bürste', 'Jacke', 'Telefon', 'Lampe', 'Tasche', 'Blume', 'Stift', 'Buch', 'Uhr', 'Trommel', 'Löffel', 'Tasse', 'Kiste', 'Geige', 'Kette', 'Hut', 'Flasche', 'Vase', 'Hammer', 'Ring', 'Schlüssel', 'Schere', 'Socke', 'Kamera']",332.55545690000145,332.55823640000017,None,332.55836109999655,332.56093659999897,None,332.5610489999963,332.5636183000024,None,332.5637252000015,332.56487930000003,332.5648918000006,1,338.5705710999973,,,,,,,,,,,,,,,,,,,,,,,,,,,,,,,,,,,,,,,,,,,,,,,,2,2023-12-14_10h27.13.093,watkins1,2023.2.3,99.73072703437632,65,2023-12-14 10h27.20.409841 +0000,
,,,,,,,,,,,3,0,3,0,,,,,,,,,,,,,338.5804100000023,,,,,,,,,,,,338.5708555000019,339.06250819999696,,,[],[],,,,,,,,,,,,None,None,,,,,,,,,,Würfel,flauschig,"['Würfel', 'flauschig']",restudy,2,,,,,,338.57078829999955,338.5708267000009,"['Rucksack', 'Fahrrad', 'Kerze', 'Würfel', 'Brille', 'Eimer', 'Bürste', 'Jacke', 'Telefon', 'Lampe', 'Tasche', 'Blume', 'Stift', 'Buch', 'Uhr', 'Trommel', 'Löffel', 'Tasse', 'Kiste', 'Geige', 'Kette', 'Hut', 'Flasche', 'Vase', 'Hammer', 'Ring', 'Schlüssel', 'Schere', 'Socke', 'Kamera']",339.0625196999972,339.0654121999978,None,339.0655392999979,345.0712882000007,1,345.07168880000245,345.0745831000022,None,345.0746969999964,345.0758866000033,345.07589870000083,,345.0774622000026,5.202192600001581,None,,,,,,,,,,,,,,,,,,,,,,,,,,,,,,,,,,,,,,,,,,,,,,2,2023-12-14_10h27.13.093,watkins1,2023.2.3,99.73072703437632,65,2023-12-14 10h27.20.409841 +0000,
,,,,,,,,,,,4,0,4,0,,,,,,,,,,,,,345.08075629999803,,,,,,,,,,,,345.0777491999979,345.5728220000019,,,[],[],,,,,,,,,,,,None,None,,,,,,,,,,Brille,kaputt,"['Brille', 'kaputt']",restudy,2,,,,,,345.07768029999716,345.07771969999885,"['Rucksack', 'Fahrrad', 'Kerze', 'Würfel', 'Brille', 'Eimer', 'Bürste', 'Jacke', 'Telefon', 'Lampe', 'Tasche', 'Blume', 'Stift', 'Buch', 'Uhr', 'Trommel', 'Löffel', 'Tasse', 'Kiste', 'Geige', 'Kette', 'Hut', 'Flasche', 'Vase', 'Hammer', 'Ring', 'Schlüssel', 'Schere', 'Socke', 'Kamera']",345.57283279999683,345.5755980000031,None,345.57572159999836,351.5765640000027,3,351.57686139999714,351.57962430000043,None,351.5797359999997,351.58091029999923,351.5809223999968,,351.58208970000123,2.6049381000048015,None,,,,,,,,,,,,,,,,,,,,,,,,,,,,,,,,,,,,,,,,,,,,,,2,2023-12-14_10h27.13.093,watkins1,2023.2.3,99.73072703437632,65,2023-12-14 10h27.20.409841 +0000,
,,,,,,,,,,,5,0,5,0,,,,,,,,,,,,,351.5860795999979,,,,,,,,,,,,351.5823762,352.07817310000246,,,[],[],,,,,,,,,,,,None,None,,,,,,,,,,Eimer,neu,"['Eimer', 'neu']",restudy,2,,,,,,351.58230829999957,351.5823492999989,"['Rucksack', 'Fahrrad', 'Kerze', 'Würfel', 'Brille', 'Eimer', 'Bürste', 'Jacke', 'Telefon', 'Lampe', 'Tasche', 'Blume', 'Stift', 'Buch', 'Uhr', 'Trommel', 'Löffel', 'Tasse', 'Kiste', 'Geige', 'Kette', 'Hut', 'Flasche', 'Vase', 'Hammer', 'Ring', 'Schlüssel', 'Schere', 'Socke', 'Kamera']",352.07818370000314,352.0808126999982,None,352.08093389999704,358.0911952000024,3,358.09150650000083,358.09409790000063,None,358.09421029999794,358.0953720999969,358.0953840000002,,358.0964010000025,1.4360326000023633,None,,,,,,,,,,,,,,,,,,,,,,,,,,,,,,,,,,,,,,,,,,,,,,2,2023-12-14_10h27.13.093,watkins1,2023.2.3,99.73072703437632,65,2023-12-14 10h27.20.409841 +0000,
,,,,,,,,,,,6,0,6,0,,,,,,,,,,,,,358.10067739999795,,,,,,,,,,,,358.09668319999764,358.5927576000031,,,[],[],,,,,,,,,,,,None,None,,,,,,,,,,Bürste,lang,"['Bürste', 'lang']",test_sub,2,,,,,,358.0966163999983,358.0966558,"['Rucksack', 'Fahrrad', 'Kerze', 'Würfel', 'Brille', 'Eimer', 'Bürste', 'Jacke', 'Telefon', 'Lampe', 'Tasche', 'Blume', 'Stift', 'Buch', 'Uhr', 'Trommel', 'Löffel', 'Tasse', 'Kiste', 'Geige', 'Kette', 'Hut', 'Flasche', 'Vase', 'Hammer', 'Ring', 'Schlüssel', 'Schere', 'Socke', 'Kamera']",358.5927694999991,358.5953692999974,None,358.59549849999894,358.59696540000004,None,358.59708279999904,358.5985451000015,None,358.59865710000304,358.59984260000056,358.59985569999844,0,364.6028389999992,,,,,,,,,,,,,,,,,,,,,,,,,,,,,,,,,,,,,,,,,,,,,,,,2,2023-12-14_10h27.13.093,watkins1,2023.2.3,99.73072703437632,65,2023-12-14 10h27.20.409841 +0000,
,,,,,,,,,,,7,0,7,0,,,,,,,,,,,,,364.6126940999966,,,,,,,,,,,,364.6031206999978,365.0947298999963,,,[],[],,,,,,,,,,,,None,None,,,,,,,,,,Jacke,klobig,"['Jacke', 'klobig']",restudy,2,,,,,,364.60305430000153,364.60309119999874,"['Rucksack', 'Fahrrad', 'Kerze', 'Würfel', 'Brille', 'Eimer', 'Bürste', 'Jacke', 'Telefon', 'Lampe', 'Tasche', 'Blume', 'Stift', 'Buch', 'Uhr', 'Trommel', 'Löffel', 'Tasse', 'Kiste', 'Geige', 'Kette', 'Hut', 'Flasche', 'Vase', 'Hammer', 'Ring', 'Schlüssel', 'Schere', 'Socke', 'Kamera']",365.0947407999993,365.09734249999747,None,365.09746630000154,371.09912030000123,2,371.09942020000017,371.1021492,None,371.10226949999924,371.10347300000285,371.1034851000004,,371.10467249999783,3.867481499997666,None,,,,,,,,,,,,,,,,,,,,,,,,,,,,,,,,,,,,,,,,,,,,,,2,2023-12-14_10h27.13.093,watkins1,2023.2.3,99.73072703437632,65,2023-12-14 10h27.20.409841 +0000,
,,,,,,,,,,,8,0,8,0,,,,,,,,,,,,,371.1085587999987,,,,,,,,,,,,371.10496109999804,371.60071340000286,,,[],[],,,,,,,,,,,,None,None,,,,,,,,,,Telefon,zart,"['Telefon', 'zart']",restudy,2,,,,,,371.1048923999988,371.1049331000031,"['Rucksack', 'Fahrrad', 'Kerze', 'Würfel', 'Brille', 'Eimer', 'Bürste', 'Jacke', 'Telefon', 'Lampe', 'Tasche', 'Blume', 'Stift', 'Buch', 'Uhr', 'Trommel', 'Löffel', 'Tasse', 'Kiste', 'Geige', 'Kette', 'Hut', 'Flasche', 'Vase', 'Hammer', 'Ring', 'Schlüssel', 'Schere', 'Socke', 'Kamera']",371.6007241999978,371.6036113000009,None,371.60373550000077,377.60499659999914,1,377.6052903000018,377.60782749999635,None,377.60793929999636,377.60912700000335,377.60913849999633,,377.61015580000094,1.7611322000011569,None,,,,,,,,,,,,,,,,,,,,,,,,,,,,,,,,,,,,,,,,,,,,,,2,2023-12-14_10h27.13.093,watkins1,2023.2.3,99.73072703437632,65,2023-12-14 10h27.20.409841 +0000,
,,,,,,,,,,,9,0,9,0,,,,,,,,,,,,,377.61442720000196,,,,,,,,,,,,377.6104345999993,378.10656010000093,,,[],[],,,,,,,,,,,,None,None,,,,,,,,,,Lampe,kratzig,"['Lampe', 'kratzig']",test_sub,2,,,,,,377.6103701000029,377.610408200002,"['Rucksack', 'Fahrrad', 'Kerze', 'Würfel', 'Brille', 'Eimer', 'Bürste', 'Jacke', 'Telefon', 'Lampe', 'Tasche', 'Blume', 'Stift', 'Buch', 'Uhr', 'Trommel', 'Löffel', 'Tasse', 'Kiste', 'Geige', 'Kette', 'Hut', 'Flasche', 'Vase', 'Hammer', 'Ring', 'Schlüssel', 'Schere', 'Socke', 'Kamera']",378.10657090000313,378.10912429999735,None,378.10925110000244,378.11067219999677,None,378.1107809000023,378.11219880000135,None,378.1123082999984,378.1134536000027,378.1134663999983,0,384.11642810000194,,,,,,,,,,,,,,,,,,,,,,,,,,,,,,,,,,,,,,,,,,,,,,,,2,2023-12-14_10h27.13.093,watkins1,2023.2.3,99.73072703437632,65,2023-12-14 10h27.20.409841 +0000,
,,,,,,,,,,,10,0,10,0,,,,,,,,,,,,,384.12626759999694,,,,,,,,,,,,384.1167073000033,384.6082685000001,,,[],[],,,,,,,,,,,,None,None,,,,,,,,,,Tasche,hohl,"['Tasche', 'hohl']",restudy,2,,,,,,384.11664239999664,384.11667950000265,"['Rucksack', 'Fahrrad', 'Kerze', 'Würfel', 'Brille', 'Eimer', 'Bürste', 'Jacke', 'Telefon', 'Lampe', 'Tasche', 'Blume', 'Stift', 'Buch', 'Uhr', 'Trommel', 'Löffel', 'Tasse', 'Kiste', 'Geige', 'Kette', 'Hut', 'Flasche', 'Vase', 'Hammer', 'Ring', 'Schlüssel', 'Schere', 'Socke', 'Kamera']",384.6082798999996,384.6110339000006,None,384.61116259999835,390.61747840000317,None,390.6176207000026,390.62021000000095,None,390.62032629999885,390.6215232999966,390.6215353000007,,390.62257249999675,,,,,,,,,,,,,,,,,,,,,,,,,,,,,,,,,,,,,,,,,,,,,,,,2,2023-12-14_10h27.13.093,watkins1,2023.2.3,99.73072703437632,65,2023-12-14 10h27.20.409841 +0000,
,,,,,,,,,,,11,0,11,0,,,,,,,,,,,,,390.6269962000006,,,,,,,,,,,,390.62286139999924,391.1191198000015,,,[],[],,,,,,,,,,,,None,None,,,,,,,,,,Blume,schwer,"['Blume', 'schwer']",restudy,2,,,,,,390.6227953999987,390.6228345999989,"['Rucksack', 'Fahrrad', 'Kerze', 'Würfel', 'Brille', 'Eimer', 'Bürste', 'Jacke', 'Telefon', 'Lampe', 'Tasche', 'Blume', 'Stift', 'Buch', 'Uhr', 'Trommel', 'Löffel', 'Tasse', 'Kiste', 'Geige', 'Kette', 'Hut', 'Flasche', 'Vase', 'Hammer', 'Ring', 'Schlüssel', 'Schere', 'Socke', 'Kamera']",391.11913050000294,391.1216839999979,None,391.1218122999999,397.1234022999997,1,397.12370329999976,397.12643989999924,None,397.12655280000035,397.1277074000027,397.1277193999995,,397.12890170000173,1.403004100000544,None,,,,,,,,,,,,,,,,,,,,,,,,,,,,,,,,,,,,,,,,,,,,,,2,2023-12-14_10h27.13.093,watkins1,2023.2.3,99.73072703437632,65,2023-12-14 10h27.20.409841 +0000,
,,,,,,,,,,,12,0,12,0,,,,,,,,,,,,,397.1328788999963,,,,,,,,,,,,397.12918660000287,397.62503760000254,,,[],[],,,,,,,,,,,,None,None,,,,,,,,,,Stift,schlicht,"['Stift', 'schlicht']",restudy,2,,,,,,397.1291199999978,397.1291590999972,"['Rucksack', 'Fahrrad', 'Kerze', 'Würfel', 'Brille', 'Eimer', 'Bürste', 'Jacke', 'Telefon', 'Lampe', 'Tasche', 'Blume', 'Stift', 'Buch', 'Uhr', 'Trommel', 'Löffel', 'Tasse', 'Kiste', 'Geige', 'Kette', 'Hut', 'Flasche', 'Vase', 'Hammer', 'Ring', 'Schlüssel', 'Schere', 'Socke', 'Kamera']",397.6250500000024,397.62777220000135,None,397.6278967000035,403.6337038999991,3,403.63401780000277,403.6368590999991,None,403.63697330000286,403.6381390000024,403.6381509999992,,403.6393773000018,3.0246458999972674,None,,,,,,,,,,,,,,,,,,,,,,,,,,,,,,,,,,,,,,,,,,,,,,2,2023-12-14_10h27.13.093,watkins1,2023.2.3,99.73072703437632,65,2023-12-14 10h27.20.409841 +0000,
,,,,,,,,,,,13,0,13,0,,,,,,,,,,,,,403.64313519999996,,,,,,,,,,,,403.6396612000026,404.13522470000316,,,[],[],,,,,,,,,,,,None,None,,,,,,,,,,Buch,teuer,"['Buch', 'teuer']",test_sub,2,,,,,,403.6395953999963,403.63963409999997,"['Rucksack', 'Fahrrad', 'Kerze', 'Würfel', 'Brille', 'Eimer', 'Bürste', 'Jacke', 'Telefon', 'Lampe', 'Tasche', 'Blume', 'Stift', 'Buch', 'Uhr', 'Trommel', 'Löffel', 'Tasse', 'Kiste', 'Geige', 'Kette', 'Hut', 'Flasche', 'Vase', 'Hammer', 'Ring', 'Schlüssel', 'Schere', 'Socke', 'Kamera']",404.1352356999996,404.1378685000018,None,404.1379967999965,404.13932339999883,None,404.139433999997,404.14075700000103,None,404.14086629999656,404.141941599999,404.1419543000011,0,410.145814800002,,,,,,,,,,,,,,,,,,,,,,,,,,,,,,,,,,,,,,,,,,,,,,,,2,2023-12-14_10h27.13.093,watkins1,2023.2.3,99.73072703437632,65,2023-12-14 10h27.20.409841 +0000,
,,,,,,,,,,,14,0,14,0,,,,,,,,,,,,,410.15566150000086,,,,,,,,,,,,410.14609760000167,410.6377741999968,,,[],[],,,,,,,,,,,,None,None,,,,,,,,,,Uhr,hübsch,"['Uhr', 'hübsch']",restudy,2,,,,,,410.1460319999969,410.14606900000217,"['Rucksack', 'Fahrrad', 'Kerze', 'Würfel', 'Brille', 'Eimer', 'Bürste', 'Jacke', 'Telefon', 'Lampe', 'Tasche', 'Blume', 'Stift', 'Buch', 'Uhr', 'Trommel', 'Löffel', 'Tasse', 'Kiste', 'Geige', 'Kette', 'Hut', 'Flasche', 'Vase', 'Hammer', 'Ring', 'Schlüssel', 'Schere', 'Socke', 'Kamera']",410.63778509999975,410.64035090000107,None,410.6404771000016,416.64536249999946,3,416.64566139999806,416.6482259999975,None,416.6483401000005,416.6493724000029,416.6493842999989,,416.6505651999978,2.388180199995986,None,,,,,,,,,,,,,,,,,,,,,,,,,,,,,,,,,,,,,,,,,,,,,,2,2023-12-14_10h27.13.093,watkins1,2023.2.3,99.73072703437632,65,2023-12-14 10h27.20.409841 +0000,
,,,,,,,,,,,15,0,15,0,,,,,,,,,,,,,416.6548460999984,,,,,,,,,,,,416.6508520999996,417.14683050000167,,,[],[],,,,,,,,,,,,3.8952819000041927,None,,,,,Hu,,,,,Trommel,breit,"['Trommel', 'breit']",test_sub,2,,,,,,416.65078540000104,416.65082450000045,"['Rucksack', 'Fahrrad', 'Kerze', 'Würfel', 'Brille', 'Eimer', 'Bürste', 'Jacke', 'Telefon', 'Lampe', 'Tasche', 'Blume', 'Stift', 'Buch', 'Uhr', 'Trommel', 'Löffel', 'Tasse', 'Kiste', 'Geige', 'Kette', 'Hut', 'Flasche', 'Vase', 'Hammer', 'Ring', 'Schlüssel', 'Schere', 'Socke', 'Kamera']",417.1468414999981,417.14975969999796,None,417.1498868999988,417.15136560000246,None,417.15147969999816,417.1529545000012,None,417.15306289999717,417.15428619999875,417.1542988000001,0,423.15866860000096,,,,,,,,,,,,,,,,,,,,,,,,,,,,,,,,,,,,,,,,,,,,,,,,2,2023-12-14_10h27.13.093,watkins1,2023.2.3,99.73072703437632,65,2023-12-14 10h27.20.409841 +0000,
,,,,,,,,,,,16,0,16,0,,,,,,,,,,,,,423.168522699998,,,,,,,,,,,,423.15895140000066,423.65048099999694,,,[],[],,,,,,,,,,,,2.9738625999962096,None,,,,,Löffel,,,,,Löffel,strahlend,"['Löffel', 'strahlend']",test_sub,2,,,,,,423.15888399999676,423.1589227000004,"['Rucksack', 'Fahrrad', 'Kerze', 'Würfel', 'Brille', 'Eimer', 'Bürste', 'Jacke', 'Telefon', 'Lampe', 'Tasche', 'Blume', 'Stift', 'Buch', 'Uhr', 'Trommel', 'Löffel', 'Tasse', 'Kiste', 'Geige', 'Kette', 'Hut', 'Flasche', 'Vase', 'Hammer', 'Ring', 'Schlüssel', 'Schere', 'Socke', 'Kamera']",423.65049179999914,423.65321589999803,None,423.65334240000084,423.6560051999986,None,423.656115400001,423.6586739999984,None,423.6587851000004,423.65998209999816,423.6599946999995,1,429.6697505999982,,,,,,,,,,,,,,,,,,,,,,,,,,,,,,,,,,,,,,,,,,,,,,,,2,2023-12-14_10h27.13.093,watkins1,2023.2.3,99.73072703437632,65,2023-12-14 10h27.20.409841 +0000,
,,,,,,,,,,,17,0,17,0,,,,,,,,,,,,,429.67948920000345,,,,,,,,,,,,429.6700312999965,430.16194279999763,,,[],[],,,,,,,,,,,,None,None,,,,,,,,,,Tasse,elegant,"['Tasse', 'elegant']",test_sub,2,,,,,,429.66996420000214,429.670002400002,"['Rucksack', 'Fahrrad', 'Kerze', 'Würfel', 'Brille', 'Eimer', 'Bürste', 'Jacke', 'Telefon', 'Lampe', 'Tasche', 'Blume', 'Stift', 'Buch', 'Uhr', 'Trommel', 'Löffel', 'Tasse', 'Kiste', 'Geige', 'Kette', 'Hut', 'Flasche', 'Vase', 'Hammer', 'Ring', 'Schlüssel', 'Schere', 'Socke', 'Kamera']",430.1619546000002,430.16473620000033,None,430.16486160000204,430.167435000003,None,430.1675477000026,430.1701150000008,None,430.17022369999904,430.1713690999968,430.17138140000316,0,436.17742140000337,,,,,,,,,,,,,,,,,,,,,,,,,,,,,,,,,,,,,,,,,,,,,,,,2,2023-12-14_10h27.13.093,watkins1,2023.2.3,99.73072703437632,65,2023-12-14 10h27.20.409841 +0000,
,,,,,,,,,,,18,0,18,0,,,,,,,,,,,,,436.18725200000335,,,,,,,,,,,,436.1777021000016,436.6691817000028,,,[],[],,,,,,,,,,,,4.790429700005916,None,,,,,Kiste,,,,,Kiste,sportlich,"['Kiste', 'sportlich']",test_sub,2,,,,,,436.1776335999966,436.17767260000255,"['Rucksack', 'Fahrrad', 'Kerze', 'Würfel', 'Brille', 'Eimer', 'Bürste', 'Jacke', 'Telefon', 'Lampe', 'Tasche', 'Blume', 'Stift', 'Buch', 'Uhr', 'Trommel', 'Löffel', 'Tasse', 'Kiste', 'Geige', 'Kette', 'Hut', 'Flasche', 'Vase', 'Hammer', 'Ring', 'Schlüssel', 'Schere', 'Socke', 'Kamera']",436.6691922000027,436.6719164000024,None,436.67204160000256,436.6745735000004,None,436.6746839999978,436.67721919999894,None,436.6773276000022,436.6784813999984,436.6784939999998,1,442.6840826999978,,,,,,,,,,,,,,,,,,,,,,,,,,,,,,,,,,,,,,,,,,,,,,,,2,2023-12-14_10h27.13.093,watkins1,2023.2.3,99.73072703437632,65,2023-12-14 10h27.20.409841 +0000,
,,,,,,,,,,,19,0,19,0,,,,,,,,,,,,,442.6938519999967,,,,,,,,,,,,442.6843661000021,443.1759613999966,,,[],[],,,,,,,,,,,,None,None,,,,,,,,,,Geige,flach,"['Geige', 'flach']",restudy,2,,,,,,442.6842972000013,442.6843372000003,"['Rucksack', 'Fahrrad', 'Kerze', 'Würfel', 'Brille', 'Eimer', 'Bürste', 'Jacke', 'Telefon', 'Lampe', 'Tasche', 'Blume', 'Stift', 'Buch', 'Uhr', 'Trommel', 'Löffel', 'Tasse', 'Kiste', 'Geige', 'Kette', 'Hut', 'Flasche', 'Vase', 'Hammer', 'Ring', 'Schlüssel', 'Schere', 'Socke', 'Kamera']",443.17597170000226,443.17874380000285,None,443.17886949999956,449.1797284999993,1,449.180025200003,449.1826776000016,None,449.18279079999775,449.18394889999763,449.18396070000017,,449.1854381000012,4.073818999997457,None,,,,,,,,,,,,,,,,,,,,,,,,,,,,,,,,,,,,,,,,,,,,,,2,2023-12-14_10h27.13.093,watkins1,2023.2.3,99.73072703437632,65,2023-12-14 10h27.20.409841 +0000,
,,,,,,,,,,,20,0,20,0,,,,,,,,,,,,,449.189248900002,,,,,,,,,,,,449.1857208000001,449.68133079999825,,,[],[],,,,,,,,,,,,None,None,,,,,,,,,,Kette,praktisch,"['Kette', 'praktisch']",test_sub,2,,,,,,449.18565500000113,449.185693899999,"['Rucksack', 'Fahrrad', 'Kerze', 'Würfel', 'Brille', 'Eimer', 'Bürste', 'Jacke', 'Telefon', 'Lampe', 'Tasche', 'Blume', 'Stift', 'Buch', 'Uhr', 'Trommel', 'Löffel', 'Tasse', 'Kiste', 'Geige', 'Kette', 'Hut', 'Flasche', 'Vase', 'Hammer', 'Ring', 'Schlüssel', 'Schere', 'Socke', 'Kamera']",449.68134190000274,449.684156000003,None,449.684279699999,449.68568689999665,None,449.6857955000014,449.6872008999999,None,449.6873093000031,449.6884484999973,449.68846119999944,0,455.6898782999997,,,,,,,,,,,,,,,,,,,,,,,,,,,,,,,,,,,,,,,,,,,,,,,,2,2023-12-14_10h27.13.093,watkins1,2023.2.3,99.73072703437632,65,2023-12-14 10h27.20.409841 +0000,
,,,,,,,,,,,21,0,21,0,,,,,,,,,,,,,455.6996591999996,,,,,,,,,,,,455.69016450000345,456.1816603999978,,,[],[],,,,,,,,,,,,None,None,,,,,,,,,,Hut,dick,"['Hut', 'dick']",restudy,2,,,,,,455.69009769999684,455.6901355000009,"['Rucksack', 'Fahrrad', 'Kerze', 'Würfel', 'Brille', 'Eimer', 'Bürste', 'Jacke', 'Telefon', 'Lampe', 'Tasche', 'Blume', 'Stift', 'Buch', 'Uhr', 'Trommel', 'Löffel', 'Tasse', 'Kiste', 'Geige', 'Kette', 'Hut', 'Flasche', 'Vase', 'Hammer', 'Ring', 'Schlüssel', 'Schere', 'Socke', 'Kamera']",456.1816703000004,456.18431260000216,None,456.1844340000025,462.194920599999,1,462.19522080000024,462.1977442999996,None,462.1978560999996,462.1988760000022,462.19888779999746,,462.1999291000029,1.9084760999976425,None,,,,,,,,,,,,,,,,,,,,,,,,,,,,,,,,,,,,,,,,,,,,,,2,2023-12-14_10h27.13.093,watkins1,2023.2.3,99.73072703437632,65,2023-12-14 10h27.20.409841 +0000,
,,,,,,,,,,,22,0,22,0,,,,,,,,,,,,,462.20445689999906,,,,,,,,,,,,462.2002122999984,462.697059099999,,,[],[],,,,,,,,,,,,None,None,,,,,,,,,,Flasche,dunkel,"['Flasche', 'dunkel']",restudy,2,,,,,,462.20014580000134,462.20018520000303,"['Rucksack', 'Fahrrad', 'Kerze', 'Würfel', 'Brille', 'Eimer', 'Bürste', 'Jacke', 'Telefon', 'Lampe', 'Tasche', 'Blume', 'Stift', 'Buch', 'Uhr', 'Trommel', 'Löffel', 'Tasse', 'Kiste', 'Geige', 'Kette', 'Hut', 'Flasche', 'Vase', 'Hammer', 'Ring', 'Schlüssel', 'Schere', 'Socke', 'Kamera']",462.6970699000012,462.69969839999976,None,462.6998259000029,468.70625570000266,3,468.7065539999967,468.7092636000016,None,468.70937799999956,468.7105840000004,468.7105958000029,,468.7117731000035,2.328725100000156,None,,,,,,,,,,,,,,,,,,,,,,,,,,,,,,,,,,,,,,,,,,,,,,2,2023-12-14_10h27.13.093,watkins1,2023.2.3,99.73072703437632,65,2023-12-14 10h27.20.409841 +0000,
,,,,,,,,,,,23,0,23,0,,,,,,,,,,,,,468.7157597999976,,,,,,,,,,,,468.7120576000016,469.20790300000226,,,[],[],,,,,,,,,,,,None,None,,,,,,,,,,Vase,gepunktet,"['Vase', 'gepunktet']",restudy,2,,,,,,468.7119912999988,468.71203049999895,"['Rucksack', 'Fahrrad', 'Kerze', 'Würfel', 'Brille', 'Eimer', 'Bürste', 'Jacke', 'Telefon', 'Lampe', 'Tasche', 'Blume', 'Stift', 'Buch', 'Uhr', 'Trommel', 'Löffel', 'Tasse', 'Kiste', 'Geige', 'Kette', 'Hut', 'Flasche', 'Vase', 'Hammer', 'Ring', 'Schlüssel', 'Schere', 'Socke', 'Kamera']",469.20791360000294,469.2104818000007,None,469.21060829999624,475.2123881000007,3,475.21268899999995,475.21531620000314,None,475.2154300999973,475.21646670000337,475.21647849999863,,475.217708199998,1.7061608000003616,None,,,,,,,,,,,,,,,,,,,,,,,,,,,,,,,,,,,,,,,,,,,,,,2,2023-12-14_10h27.13.093,watkins1,2023.2.3,99.73072703437632,65,2023-12-14 10h27.20.409841 +0000,
,,,,,,,,,,,24,0,24,0,,,,,,,,,,,,,475.22186079999665,,,,,,,,,,,,475.2179916000023,475.7139912999992,,,[],[],,,,,,,,,,,,None,None,,,,,,,,,,Hammer,nachhaltig,"['Hammer', 'nachhaltig']",restudy,2,,,,,,475.21792589999677,475.2179649000027,"['Rucksack', 'Fahrrad', 'Kerze', 'Würfel', 'Brille', 'Eimer', 'Bürste', 'Jacke', 'Telefon', 'Lampe', 'Tasche', 'Blume', 'Stift', 'Buch', 'Uhr', 'Trommel', 'Löffel', 'Tasse', 'Kiste', 'Geige', 'Kette', 'Hut', 'Flasche', 'Vase', 'Hammer', 'Ring', 'Schlüssel', 'Schere', 'Socke', 'Kamera']",475.7140025999979,475.7169414000018,None,475.71707089999836,481.72532689999935,2,481.72562939999625,481.72836480000115,None,481.7284776000015,481.7296369999967,481.72964890000003,,481.7308843999999,1.9113807000030647,None,,,,,,,,,,,,,,,,,,,,,,,,,,,,,,,,,,,,,,,,,,,,,,2,2023-12-14_10h27.13.093,watkins1,2023.2.3,99.73072703437632,65,2023-12-14 10h27.20.409841 +0000,
,,,,,,,,,,,25,0,25,0,,,,,,,,,,,,,481.7348487999989,,,,,,,,,,,,481.73116689999733,482.22682910000003,,,[],[],,,,,,,,,,,,3.754008400006569,None,,,,,Uhr,,,,,Ring,niedlich,"['Ring', 'niedlich']",test_sub,2,,,,,,481.73110070000257,481.731140099997,"['Rucksack', 'Fahrrad', 'Kerze', 'Würfel', 'Brille', 'Eimer', 'Bürste', 'Jacke', 'Telefon', 'Lampe', 'Tasche', 'Blume', 'Stift', 'Buch', 'Uhr', 'Trommel', 'Löffel', 'Tasse', 'Kiste', 'Geige', 'Kette', 'Hut', 'Flasche', 'Vase', 'Hammer', 'Ring', 'Schlüssel', 'Schere', 'Socke', 'Kamera']",482.2268397000007,482.2301654999974,None,482.23028959999647,482.23159339999984,None,482.2317047999968,482.23301260000153,None,482.23312160000205,482.2341529999976,482.23416559999896,0,488.2375134000031,,,,,,,,,,,,,,,,,,,,,,,,,,,,,,,,,,,,,,,,,,,,,,,,2,2023-12-14_10h27.13.093,watkins1,2023.2.3,99.73072703437632,65,2023-12-14 10h27.20.409841 +0000,
,,,,,,,,,,,26,0,26,0,,,,,,,,,,,,,488.2472751000023,,,,,,,,,,,,488.2377972999966,488.72936830000253,,,[],[],,,,,,,,,,,,2.109894000001077,None,,,,,Schlüssel,,,,,Schlüssel,kalt,"['Schlüssel', 'kalt']",test_sub,2,,,,,,488.2377299,488.2377682000006,"['Rucksack', 'Fahrrad', 'Kerze', 'Würfel', 'Brille', 'Eimer', 'Bürste', 'Jacke', 'Telefon', 'Lampe', 'Tasche', 'Blume', 'Stift', 'Buch', 'Uhr', 'Trommel', 'Löffel', 'Tasse', 'Kiste', 'Geige', 'Kette', 'Hut', 'Flasche', 'Vase', 'Hammer', 'Ring', 'Schlüssel', 'Schere', 'Socke', 'Kamera']",488.7293787000017,488.7321927000012,None,488.73231769999984,488.73507090000203,None,488.7351916999978,488.73782460000075,None,488.7379338999963,488.73916559999634,488.7391779000027,1,494.7453039000029,,,,,,,,,,,,,,,,,,,,,,,,,,,,,,,,,,,,,,,,,,,,,,,,2,2023-12-14_10h27.13.093,watkins1,2023.2.3,99.73072703437632,65,2023-12-14 10h27.20.409841 +0000,
,,,,,,,,,,,27,0,27,0,,,,,,,,,,,,,494.7551944000006,,,,,,,,,,,,494.7455803999983,495.2371004000015,,,[],[],,,,,,,,,,,,None,None,,,,,,,,,,Schere,glänzend,"['Schere', 'glänzend']",restudy,2,,,,,,494.7455138000005,494.74555220000184,"['Rucksack', 'Fahrrad', 'Kerze', 'Würfel', 'Brille', 'Eimer', 'Bürste', 'Jacke', 'Telefon', 'Lampe', 'Tasche', 'Blume', 'Stift', 'Buch', 'Uhr', 'Trommel', 'Löffel', 'Tasse', 'Kiste', 'Geige', 'Kette', 'Hut', 'Flasche', 'Vase', 'Hammer', 'Ring', 'Schlüssel', 'Schere', 'Socke', 'Kamera']",495.23711170000024,495.2396974000003,None,495.2398250999977,501.2437549000024,3,501.244056800002,501.24690720000217,None,501.2470233999993,501.2482067000019,501.2482183999964,,501.24974790000124,3.6206023000049754,None,,,,,,,,,,,,,,,,,,,,,,,,,,,,,,,,,,,,,,,,,,,,,,2,2023-12-14_10h27.13.093,watkins1,2023.2.3,99.73072703437632,65,2023-12-14 10h27.20.409841 +0000,
,,,,,,,,,,,28,0,28,0,,,,,,,,,,,,,501.25327639999887,,,,,,,,,,,,501.2500325000001,501.7453631000026,,,[],[],,,,,,,,,,,,None,None,,,,,,,,,,Socke,matt,"['Socke', 'matt']",test_sub,2,,,,,,501.2499661999973,501.250005599999,"['Rucksack', 'Fahrrad', 'Kerze', 'Würfel', 'Brille', 'Eimer', 'Bürste', 'Jacke', 'Telefon', 'Lampe', 'Tasche', 'Blume', 'Stift', 'Buch', 'Uhr', 'Trommel', 'Löffel', 'Tasse', 'Kiste', 'Geige', 'Kette', 'Hut', 'Flasche', 'Vase', 'Hammer', 'Ring', 'Schlüssel', 'Schere', 'Socke', 'Kamera']",501.74537379999674,501.7481054000018,None,501.7482342000003,501.74967959999776,None,501.7497902999967,501.75121399999625,None,501.75132689999737,501.75247749999835,501.7524900999997,0,507.7555183000004,,,,,,,,,,,,,,,,,,,,,,,,,,,,,,,,,,,,,,,,,,,,,,,,2,2023-12-14_10h27.13.093,watkins1,2023.2.3,99.73072703437632,65,2023-12-14 10h27.20.409841 +0000,
,,,,,,,,,,,29,0,29,0,,,,,,,,,,,,,507.76538920000166,,,,,,,,,,,,507.75579760000255,508.24726360000204,,,[],[],,,,,,,,,,,,None,None,,,,,,,,,,Kamera,kurz,"['Kamera', 'kurz']",test_sub,2,,,,,,507.7557315000013,507.75576849999925,"['Rucksack', 'Fahrrad', 'Kerze', 'Würfel', 'Brille', 'Eimer', 'Bürste', 'Jacke', 'Telefon', 'Lampe', 'Tasche', 'Blume', 'Stift', 'Buch', 'Uhr', 'Trommel', 'Löffel', 'Tasse', 'Kiste', 'Geige', 'Kette', 'Hut', 'Flasche', 'Vase', 'Hammer', 'Ring', 'Schlüssel', 'Schere', 'Socke', 'Kamera']",508.2472736999989,508.24995800000033,None,508.2500846999974,508.2525112000003,None,508.252619699997,508.2550461999999,None,508.25515710000036,508.25634600000194,508.25635850000253,0,514.2616744999978,,,,,,,,,,,,,,,,,,,,,,,,,,,,,,,,,,,,,,,,,,,,,,,,2,2023-12-14_10h27.13.093,watkins1,2023.2.3,99.73072703437632,65,2023-12-14 10h27.20.409841 +0000,
,,,,,,,,,,,,,,,,,,,,,,,,,,,,,,,,,,,,,,,,,,,,,,,,,,,,,,,,,,,,,,,,,,,,,,,2,,,,,,,,,,,,,,,,,,,,,,,,,,,,,,,,,,,,,,,,,,,,,,,,,,,,,,,,,,,,,,,,,,,,,,2,2023-12-14_10h27.13.093,watkins1,2023.2.3,99.73072703437632,65,2023-12-14 10h27.20.409841 +0000,
(4 : 2) + 4 = 6 ,Correct,button_correct,,,,,,,,,,,,,0,0,0,1,,,,,,,,,548.3572480000003,,,,,,,,,,547.3280040000027,548.3315298000016,,,,,['button_correct'],[2.923007899997174],,,,,,,,,,,,,,,,,,,,,,,,,,distractorTask,2,,,,,,,,,,,,,,,,,,,,,,,,,548.3477622999999,548.3572480000003,551.2745642000009,[0.29814814814814816],[-0.3824074074074074],[1],[0],[0],[2.923007899997174],['button_correct'],551.2752360000013,552.2782417999988,,,,,,,,,,,,,,,,,,,,,,,,,,,,,,,,,,2,2023-12-14_10h27.13.093,watkins1,2023.2.3,99.73072703437632,65,2023-12-14 10h27.20.409841 +0000,
(40 : 5) + 8 = 15 ,Incorrect,button_incorrect,,,,,,,,,,,,,0,1,1,7,,,,,,,,,552.2883224999969,,,,,,,,,,,,,,,,['button_incorrect'],[2.9293996000051266],,,,,,,,,,,,,,,,,,,,,,,,,,distractorTask,2,,,,,,,,,,,,,,,,,,,,,,,,,552.2784433999987,552.2883224999969,555.211267300001,[-0.28888888888888886],[-0.37777777777777777],[1],[0],[0],[2.9293996000051266],['button_incorrect'],555.2116513000001,556.2148594999962,,,,,,,,,,,,,,,,,,,,,,,,,,,,,,,,,,2,2023-12-14_10h27.13.093,watkins1,2023.2.3,99.73072703437632,65,2023-12-14 10h27.20.409841 +0000,
(7 x 6) + 9 = 48 ,Incorrect,button_incorrect,,,,,,,,,,,,,0,2,2,9,,,,,,,,,556.2248796999993,,,,,,,,,,,,,,,,['button_incorrect'],[3.0897648000027402],,,,,,,,,,,,,,,,,,,,,,,,,,distractorTask,2,,,,,,,,,,,,,,,,,,,,,,,,,556.2150506000035,556.2248796999993,559.3081237000006,[-0.3527777777777778],[-0.375],[1],[0],[0],[3.0897648000027402],['button_incorrect'],559.3085071000023,560.311764099999,,,,,,,,,,,,,,,,,,,,,,,,,,,,,,,,,,2,2023-12-14_10h27.13.093,watkins1,2023.2.3,99.73072703437632,65,2023-12-14 10h27.20.409841 +0000,
(25 : 5) + 5 = 9 ,Incorrect,button_incorrect,,,,,,,,,,,,,0,3,3,6,,,,,,,,,560.3217779999977,,,,,,,,,,,,,,,,['button_incorrect'],[2.5289945999975316],,,,,,,,,,,,,,,,,,,,,,,,,,distractorTask,2,,,,,,,,,,,,,,,,,,,,,,,,,560.3119589999988,560.3217779999977,562.8427006999991,[-0.3851851851851852],[-0.3787037037037037],[1],[0],[0],[2.5289945999975316],['button_incorrect'],562.8430869000003,563.8463730000003,,,,,,,,,,,,,,,,,,,,,,,,,,,,,,,,,,2,2023-12-14_10h27.13.093,watkins1,2023.2.3,99.73072703437632,65,2023-12-14 10h27.20.409841 +0000,
(80 : 10) + 9 = 17 ,Correct,button_correct,,,,,,,,,,,,,0,4,4,3,,,,,,,,,563.8563522999975,,,,,,,,,,,,,,,,['button_correct'],[2.5296432999966783],,,,,,,,,,,,,,,,,,,,,,,,,,distractorTask,2,,,,,,,,,,,,,,,,,,,,,,,,,563.8465624000019,563.8563522999975,566.3780570000017,[0.35185185185185186],[-0.3861111111111111],[1],[0],[0],[2.5296432999966783],['button_correct'],566.3784748000035,567.3809143000035,,,,,,,,,,,,,,,,,,,,,,,,,,,,,,,,,,2,2023-12-14_10h27.13.093,watkins1,2023.2.3,99.73072703437632,65,2023-12-14 10h27.20.409841 +0000,
(28 : 7) - 3 = 1 ,Correct,button_correct,,,,,,,,,,,,,0,5,5,0,,,,,,,,,567.3908897000001,,,,,,,,,,,,,,,,['button_correct'],"[13.804452099997434, 14.12588020000112]",,,,,,,,,,,,,,,,,,,,,,,,,,distractorTask,2,,,,,,,,,,,,,,,,,,,,,,,,,567.381106300003,567.3908897000001,581.5106338999976,"[0.4027777777777778, 0.39814814814814814]","[-0.3685185185185185, -0.38333333333333336]","[1, 1]","[0, 0]","[0, 0]","[13.804452099997434, 14.12588020000112]",['button_correct'],581.5110366000008,582.5141574000008,,,,,,,,,,,,,,,,,,,,,,,,,,,,,,,,,,2,2023-12-14_10h27.13.093,watkins1,2023.2.3,99.73072703437632,65,2023-12-14 10h27.20.409841 +0000,
(54 : 6) - 10 = 0 ,Incorrect,button_incorrect,,,,,,,,,,,,,0,6,6,5,,,,,,,,,582.5241650000025,,,,,,,,,,,,,,,,['button_incorrect'],[7.941174500003399],,,,,,,,,,,,,,,,,,,,,,,,,,distractorTask,2,,,,,,,,,,,,,,,,,,,,,,,,,582.5143504000007,582.5241650000025,590.4572733000023,[-0.2851851851851852],[-0.3888888888888889],[1],[0],[0],[7.941174500003399],['button_incorrect'],590.4576614999969,591.4611788999973,,,,,,,,,,,,,,,,,,,,,,,,,,,,,,,,,,2,2023-12-14_10h27.13.093,watkins1,2023.2.3,99.73072703437632,65,2023-12-14 10h27.20.409841 +0000,
(6 x 3) + 10 = 27 ,Incorrect,button_incorrect,,,,,,,,,,,,,0,7,7,8,,,,,,,,,591.4711921999988,,,,,,,,,,,,,,,,['button_incorrect'],[2.7294674000004306],,,,,,,,,,,,,,,,,,,,,,,,,,distractorTask,2,,,,,,,,,,,,,,,,,,,,,,,,,591.4613747999974,591.4711921999988,594.1927361999988,[-0.2796296296296296],[-0.4212962962962963],[1],[0],[0],[2.7294674000004306],['button_incorrect'],594.1931209000031,595.1969387999998,,,,,,,,,,,,,,,,,,,,,,,,,,,,,,,,,,2,2023-12-14_10h27.13.093,watkins1,2023.2.3,99.73072703437632,65,2023-12-14 10h27.20.409841 +0000,
(9 x 5) - 9 = 36 ,Correct,button_correct,,,,,,,,,,,,,0,8,8,4,,,,,,,,,595.2069147000002,,,,,,,,,,,,,,,,['button_correct'],[2.5790964999978314],,,,,,,,,,,,,,,,,,,,,,,,,,distractorTask,2,,,,,,,,,,,,,,,,,,,,,,,,,595.1971325999984,595.2069147000002,597.7779181000005,[0.3888888888888889],[-0.4064814814814815],[1],[0],[0],[2.5790964999978314],['button_correct'],597.778306799999,598.7815962000022,,,,,,,,,,,,,,,,,,,,,,,,,,,,,,,,,,2,2023-12-14_10h27.13.093,watkins1,2023.2.3,99.73072703437632,65,2023-12-14 10h27.20.409841 +0000,
(2 x 5) + 3 = 13 ,Correct,button_correct,,,,,,,,,,,,,0,9,9,2,,,,,,,,,598.7916811999967,,,,,,,,,,,,,,,,['button_correct'],[1.4948930999962613],,,,,,,,,,,,,,,,,,,,,,,,,,distractorTask,2,,,,,,,,,,,,,,,,,,,,,,,,,598.781788799999,598.7916811999967,600.2784016000005,[0.2824074074074074],[-0.4166666666666667],[1],[0],[0],[1.4948930999962613],['button_correct'],600.2787819000005,601.2820170999985,,,,,,,,,,,,,,,,,,,,,,,,,,,,,,,,,,2,2023-12-14_10h27.13.093,watkins1,2023.2.3,99.73072703437632,65,2023-12-14 10h27.20.409841 +0000,
,,,,,,,,,,,,,,,,,,,,,,,,,,,,,,,,,,,,,,,,,,,,,,,,,,,,,,,,,,,,,,,,,,,,,,,2,,,,,,,,,,,,,,,,,,,,,,,,,,,,,,,,,,,,,,,,,,,,,,,,,,,,,,,,,,,,,,,,,,,,,,2,2023-12-14_10h27.13.093,watkins1,2023.2.3,99.73072703437632,65,2023-12-14 10h27.20.409841 +0000,
,,,,,,,,,,,,,,,,,,,0,0,0,0,,,,,639.0865886000029,,,,,,,,,,,,,,,,Katze,7.8264343999981065,,,,,,,,,,,,4.458103199998732,None,,,,,,,,,,,,,freeRecallSub,2,,,,,,,,,,,,,,,,,,,,,,,,,,,,,,,,,,,,,639.0779526999977,639.0865886000029,639.0865886000029,646.9194493999967,return,7.8264343999981065,None,Katze,[],[],[],[],[],[],[],,,,,,,,,,,,,,,,,,,2,2023-12-14_10h27.13.093,watkins1,2023.2.3,99.73072703437632,65,2023-12-14 10h27.20.409841 +0000,
,,,,,,,,,,,,,,,,,,,1,0,1,0,,,,,646.9317368999982,,,,,,,,,,,,,,,,Kiste,9.965169900002365,,,,,,,,,,,,8.617927299994335,None,,,,,,,,,,,,,freeRecallSub,2,,,,,,,,,,,,,,,,,,,,,,,,,,,,,,,,,,,,,646.9212283000015,646.9317368999982,646.9317368999982,656.9047849999988,return,9.965169900002365,None,Kiste,[],[],[],[],[],[],[],,,,,,,,,,,,,,,,,,,2,2023-12-14_10h27.13.093,watkins1,2023.2.3,99.73072703437632,65,2023-12-14 10h27.20.409841 +0000,
,,,,,,,,,,,,,,,,,,,2,0,2,0,,,,,656.9146967999986,,,,,,,,,,,,,,,,Schere,6.830172699999821,,,,,,,,,,,,4.91919069999858,None,,,,,,,,,,,,,freeRecallSub,2,,,,,,,,,,,,,,,,,,,,,,,,,,,,,,,,,,,,,656.9060318999982,656.9146967999986,656.9146967999986,663.7531382000016,return,6.830172699999821,None,Schere,[],[],[],[],[],[],[],,,,,,,,,,,,,,,,,,,2,2023-12-14_10h27.13.093,watkins1,2023.2.3,99.73072703437632,65,2023-12-14 10h27.20.409841 +0000,
,,,,,,,,,,,,,,,,,,,3,0,3,0,,,,,663.7642638000034,,,,,,,,,,,,,,,,Löffel,4.244526499998756,,,,,,,,,,,,2.7013838999992004,None,,,,,,,,,,,,,freeRecallSub,2,,,,,,,,,,,,,,,,,,,,,,,,,,,,,,,,,,,,,663.7544131999966,663.7642638000034,663.7642638000034,668.0122018999973,return,4.244526499998756,None,Löffel,[],[],[],[],[],[],[],,,,,,,,,,,,,,,,,,,2,2023-12-14_10h27.13.093,watkins1,2023.2.3,99.73072703437632,65,2023-12-14 10h27.20.409841 +0000,
,,,,,,,,,,,,,,,,,,,4,0,4,0,,,,,668.0233135000017,,,,,,,,,,,,,,,,Tasche,9.249470200003998,,,,,,,,,,,,7.481674000002386,None,,,,,,,,,,,,,freeRecallSub,2,,,,,,,,,,,,,,,,,,,,,,,,,,,,,,,,,,,,,668.0134735000029,668.0233135000017,668.0233135000017,677.282614900003,return,9.249470200003998,None,Tasche,[],[],[],[],[],[],[],,,,,,,,,,,,,,,,,,,2,2023-12-14_10h27.13.093,watkins1,2023.2.3,99.73072703437632,65,2023-12-14 10h27.20.409841 +0000,
,,,,,,,,,,,,,,,,,,,5,0,5,0,,,,,677.2936436000018,,,,,,,,,,,,,,,,Jacke,9.79522399999405,,,,,,,,,,,,8.203620000000228,None,,,,,,,,,,,,,freeRecallSub,2,,,,,,,,,,,,,,,,,,,,,,,,,,,,,,,,,,,,,677.2838924000025,677.2936436000018,677.2936436000018,687.0940696999969,return,9.79522399999405,None,Jacke,[],[],[],[],[],[],[],,,,,,,,,,,,,,,,,,,2,2023-12-14_10h27.13.093,watkins1,2023.2.3,99.73072703437632,65,2023-12-14 10h27.20.409841 +0000,
,,,,,,,,,,,,,,,,,,,6,0,6,0,,,,,687.1055481000003,,,,,,,,,,,,,,,,Hut,1.591201600000204,,,,,,,,,,,,0.7742558999962057,None,,,,,,,,,,,,,freeRecallSub,2,,,,,,,,,,,,,,,,,,,,,,,,,,,,,,,,,,,,,687.0953345000016,687.1055481000003,687.1055481000003,688.7030777999971,return,1.591201600000204,None,Hut,[],[],[],[],[],[],[],,,,,,,,,,,,,,,,,,,2,2023-12-14_10h27.13.093,watkins1,2023.2.3,99.73072703437632,65,2023-12-14 10h27.20.409841 +0000,
,,,,,,,,,,,,,,,,,,,7,0,7,0,,,,,688.7147381000032,,,,,,,,,,,,,,,,Uhr,15.190096600003017,,,,,,,,,,,,13.878599000003305,None,,,,,,,,,,,,,freeRecallSub,2,,,,,,,,,,,,,,,,,,,,,,,,,,,,,,,,,,,,,688.7043342999968,688.7147381000032,688.7147381000032,703.9086138999992,return,15.190096600003017,None,Uhr,[],[],[],[],[],[],[],,,,,,,,,,,,,,,,,,,2,2023-12-14_10h27.13.093,watkins1,2023.2.3,99.73072703437632,65,2023-12-14 10h27.20.409841 +0000,
,,,,,,,,,,,,,,,,,,,8,0,8,0,,,,,703.9204124000025,,,,,,,,,,,,,,,,Brille,30.784361500001978,,,,,,,,,,,,29.091880499996478,None,,,,,,,,,,,,,freeRecallSub,2,,,,,,,,,,,,,,,,,,,,,,,,,,,,,,,,,,,,,703.909868499999,703.9204124000025,703.9204124000025,734.708849900002,return,30.784361500001978,None,Brille,[],[],[],[],[],[],[],,,,,,,,,,,,,,,,,,,2,2023-12-14_10h27.13.093,watkins1,2023.2.3,99.73072703437632,65,2023-12-14 10h27.20.409841 +0000,
,,,,,,,,,,,,,,,,,,,9,0,9,0,,,,,734.7207577000008,,,,,,,,,,,,,,,,Kette,40.71203510000487,,,,,,,,,,,,39.09333350000088,None,,,,,,,,,,,,,freeRecallSub,2,,,,,,,,,,,,,,,,,,,,,,,,,,,,,,,,,,,,,734.7101146999994,734.7207577000008,734.7207577000008,775.4399864000006,return,40.71203510000487,None,Kette,[],[],[],[],[],[],[],,,,,,,,,,,,,,,,,,,2,2023-12-14_10h27.13.093,watkins1,2023.2.3,99.73072703437632,65,2023-12-14 10h27.20.409841 +0000,
,,,,,,,,,,,,,,,,,,,10,0,10,0,,,,,775.4515022999985,,,,,,,,,,,,,,,,Schlüssel,29.909388899999612,,,,,,,,,,,,27.283644999995886,None,,,,,,,,,,,,,freeRecallSub,2,,,,,,,,,,,,,,,,,,,,,,,,,,,,,,,,,,,,,775.4412212000025,775.4515022999985,775.4515022999985,805.3659640999977,return,29.909388899999612,None,Schlüssel,[],[],[],[],[],[],[],,,,,,,,,,,,,,,,,,,2,2023-12-14_10h27.13.093,watkins1,2023.2.3,99.73072703437632,65,2023-12-14 10h27.20.409841 +0000,
,,,,,,,,,,,,,,,,,,,11,0,11,0,,,,,805.3788052000018,,,,,,,,,,,,,,,,,[],,,,,,,,,,,,97.33803120000084,99.69776360000105,,,,,,,,,,,,,freeRecallSub,2,,,,,,,,,,,,,,,,,,,,,,,,,,,,,,,,,,,,,805.3672471000027,805.3788052000018,805.3788052000018,977.6554986999981,None,,,,[0.14444444444444443],[-0.41203703703703703],[1],[0],[0],[172.283128199997],"['button_continue', 'continue_text']",,,,,,,,,,,,,,,,,,,2,2023-12-14_10h27.13.093,watkins1,2023.2.3,99.73072703437632,65,2023-12-14 10h27.20.409841 +0000,
,,,,,,,,,,,,,,,,,,,,,,,,,,,,,,,,,,,,,,,,,,,,,,,,,,,,,,,,,,,,,,,,,,,,,,,2,,,,,,,,,,,,,,,,,,,,,,,,,,,,,,,,,,,,,,,,,,,,,,,,,,,,,,,,,,,,,,,,,,,,,,2,2023-12-14_10h27.13.093,watkins1,2023.2.3,99.73072703437632,65,2023-12-14 10h27.20.409841 +0000,
,,,,,,,,,,,,,,,,,,,,,,,0,0,0,0,996.2525670999967,,,,,,,,,,,,1012.8447069000031,1013.3431646000026,,,,16.588279800002056,,,,,,,,,,,,None,None,,,,,,,,,,Kamera,,,cuedRecallAdj,2,,,,,,,,,,,,,,,,,,,,,0,,,,,,,,,,,,,,,,,,,,,,,,,,,,,,,996.2436146999971,996.2525670999967,996.2525670999967,1012.8416176000028,kurz,return,16.588279800002056,None,1012.842023199999,1012.8510921999987,1012.8510921999987,1012.8445531000034,,None,,,,,2,2023-12-14_10h27.13.093,watkins1,2023.2.3,99.73072703437632,65,2023-12-14 10h27.20.409841 +0000,
,,,,,,,,,,,,,,,,,,,,,,,1,0,1,0,1013.3532102000026,,,,,,,,,,,,1022.464009299998,1022.9625966000021,,,,9.10366680000152,,,,,,,,,,,,None,None,,,,,,,,,,Flasche,,,cuedRecallAdj,2,,,,,,,,,,,,,,,,,,,,,0,,,,,,,,,,,,,,,,,,,,,,,,,,,,,,,1013.3434135999996,1013.3532102000026,1013.3532102000026,1022.4610287000032,dunkel,return,9.10366680000152,None,1022.4612897999978,1022.4705755000032,1022.4705755000032,1022.4639112000004,,None,,,,,2,2023-12-14_10h27.13.093,watkins1,2023.2.3,99.73072703437632,65,2023-12-14 10h27.20.409841 +0000,
,,,,,,,,,,,,,,,,,,,,,,,2,0,2,0,1022.9725573000032,,,,,,,,,,,,1057.6006303999966,1058.099677600003,,,,34.62033369999699,,,,,,,,,,,,None,None,,,,,,,,,,Tasse,,,cuedRecallAdj,2,,,,,,,,,,,,,,,,,,,,,0,,,,,,,,,,,,,,,,,,,,,,,,,,,,,,,1022.9628454999984,1022.9725573000032,1022.9725573000032,1057.598312000002,,return,34.62033369999699,None,1057.5985817999972,1057.6077936000002,1057.6077936000002,1057.6005270000023,,None,,,,,2,2023-12-14_10h27.13.093,watkins1,2023.2.3,99.73072703437632,65,2023-12-14 10h27.20.409841 +0000,
,,,,,,,,,,,,,,,,,,,,,,,3,0,3,0,1058.1096622999976,,,,,,,,,,,,1091.8535712000012,1092.3525769999978,,,,33.73120590000326,,,,,,,,,,,,None,None,,,,,,,,,,Kerze,,,cuedRecallAdj,2,,,,,,,,,,,,,,,,,,,,,0,,,,,,,,,,,,,,,,,,,,,,,,,,,,,,,1058.0999334000007,1058.1096622999976,1058.1096622999976,1091.8507775000035,lang,return,33.73120590000326,None,1091.8510393999968,1091.8604701000004,1091.8604701000004,1091.8534712999972,,None,,,,,2,2023-12-14_10h27.13.093,watkins1,2023.2.3,99.73072703437632,65,2023-12-14 10h27.20.409841 +0000,
,,,,,,,,,,,,,,,,,,,,,,,4,0,4,0,1092.3626353,,,,,,,,,,,,1096.603186100001,1097.102117800001,,,,4.230172700001276,,,,,,,,,,,,None,None,,,,,,,,,,Brille,,,cuedRecallAdj,2,,,,,,,,,,,,,,,,,,,,,0,,,,,,,,,,,,,,,,,,,,,,,,,,,,,,,1092.3528250000018,1092.3626353,1092.3626353,1096.6002750999978,kaputt,return,4.230172700001276,None,1096.6005372,1096.6099872999985,1096.6099872999985,1096.6030852999975,,None,,,,,2,2023-12-14_10h27.13.093,watkins1,2023.2.3,99.73072703437632,65,2023-12-14 10h27.20.409841 +0000,
,,,,,,,,,,,,,,,,,,,,,,,5,0,5,0,1097.1120360999994,,,,,,,,,,,,1104.3151323999991,1104.8137672000012,,,,7.192872000006901,,,,,,,,,,,,None,None,,,,,,,,,,Kette,,,cuedRecallAdj,2,,,,,,,,,,,,,,,,,,,,,0,,,,,,,,,,,,,,,,,,,,,,,,,,,,,,,1097.1023658999984,1097.1120360999994,1097.1120360999994,1104.3121033999996,nützlich,return,7.192872000006901,None,1104.3123711000007,1104.3216116999974,1104.3216116999974,1104.3150307000033,,None,,,,,2,2023-12-14_10h27.13.093,watkins1,2023.2.3,99.73072703437632,65,2023-12-14 10h27.20.409841 +0000,
,,,,,,,,,,,,,,,,,,,,,,,6,0,6,0,1104.8236724000017,,,,,,,,,,,,1116.7463416000028,1117.2452126999997,,,,11.913231799997448,,,,,,,,,,,,None,None,,,,,,,,,,Trommel,,,cuedRecallAdj,2,,,,,,,,,,,,,,,,,,,,,0,,,,,,,,,,,,,,,,,,,,,,,,,,,,,,,1104.8140102999969,1104.8236724000017,1104.8236724000017,1116.743464799998,weit,return,11.913231799997448,None,1116.743734900003,1116.7530412999986,1116.7530412999986,1116.7462393000023,,None,,,,,2,2023-12-14_10h27.13.093,watkins1,2023.2.3,99.73072703437632,65,2023-12-14 10h27.20.409841 +0000,
,,,,,,,,,,,,,,,,,,,,,,,7,0,7,0,1117.2551664999992,,,,,,,,,,,,1143.6370775000032,1144.126343099997,,,,26.377766799996607,,,,,,,,,,,,None,None,,,,,,,,,,Socke,,,cuedRecallAdj,2,,,,,,,,,,,,,,,,,,,,,0,,,,,,,,,,,,,,,,,,,,,,,,,,,,,,,1117.2454606999963,1117.2551664999992,1117.2551664999992,1143.634802200002,,return,26.377766799996607,None,1143.635067700001,1143.6442967999974,1143.6442967999974,1143.6369742000024,,None,,,,,2,2023-12-14_10h27.13.093,watkins1,2023.2.3,99.73072703437632,65,2023-12-14 10h27.20.409841 +0000,
,,,,,,,,,,,,,,,,,,,,,,,8,0,8,0,1144.1362936000005,,,,,,,,,,,,1157.2835150000028,1157.7822996999967,,,,13.136542200001713,,,,,,,,,,,,None,None,,,,,,,,,,Löffel,,,cuedRecallAdj,2,,,,,,,,,,,,,,,,,,,,,0,,,,,,,,,,,,,,,,,,,,,,,,,,,,,,,1144.1265856000027,1144.1362936000005,1144.1362936000005,1157.2804365999982,glänzend,return,13.136542200001713,None,1157.2806982999973,1157.2901220999993,1157.2901220999993,1157.283413899997,,None,,,,,2,2023-12-14_10h27.13.093,watkins1,2023.2.3,99.73072703437632,65,2023-12-14 10h27.20.409841 +0000,
,,,,,,,,,,,,,,,,,,,,,,,9,0,9,0,1157.792237900001,,,,,,,,,,,,1176.1310260000027,1176.6295953000008,,,,18.328647300004377,,,,,,,,,,,,None,None,,,,,,,,,,Lampe,,,cuedRecallAdj,2,,,,,,,,,,,,,,,,,,,,,0,,,,,,,,,,,,,,,,,,,,,,,,,,,,,,,1157.7825538000034,1157.792237900001,1157.792237900001,1176.127991100002,hell,return,18.328647300004377,None,1176.1282576000012,1176.1375479999988,1176.1375479999988,1176.1309241999988,,None,,,,,2,2023-12-14_10h27.13.093,watkins1,2023.2.3,99.73072703437632,65,2023-12-14 10h27.20.409841 +0000,
,,,,,,,,,,,,,,,,,,,,,,,10,0,10,0,1176.6395690999998,,,,,,,,,,,,1234.592085199998,1235.0907050000023,,,,57.94523830000253,,,,,,,,,,,,None,None,,,,,,,,,,Hammer,,,cuedRecallAdj,2,,,,,,,,,,,,,,,,,,,,,0,,,,,,,,,,,,,,,,,,,,,,,,,,,,,,,1176.629847199998,1176.6395690999998,1176.6395690999998,1234.5890400999997,natürlich,return,57.94523830000253,None,1234.589302100001,1234.598569200003,1234.598569200003,1234.591984300001,,None,,,,,2,2023-12-14_10h27.13.093,watkins1,2023.2.3,99.73072703437632,65,2023-12-14 10h27.20.409841 +0000,
,,,,,,,,,,,,,,,,,,,,,,,11,0,11,0,1235.1006522000025,,,,,,,,,,,,1237.885370099997,1238.3842788999973,,,,2.7721773000012035,,,,,,,,,,,,None,None,,,,,,,,,,Tasche,,,cuedRecallAdj,2,,,,,,,,,,,,,,,,,,,,,0,,,,,,,,,,,,,,,,,,,,,,,,,,,,,,,1235.0909556999977,1235.1006522000025,1235.1006522000025,1237.8824422000034,hohl,return,2.7721773000012035,None,1237.8827365999969,1237.8921052000005,1237.8921052000005,1237.8852689999985,,None,,,,,2,2023-12-14_10h27.13.093,watkins1,2023.2.3,99.73072703437632,65,2023-12-14 10h27.20.409841 +0000,
,,,,,,,,,,,,,,,,,,,,,,,12,0,12,0,1238.394166799997,,,,,,,,,,,,1262.0852478000015,1262.584019599999,,,,23.678757900001074,,,,,,,,,,,,None,None,,,,,,,,,,Rucksack,,,cuedRecallAdj,2,,,,,,,,,,,,,,,,,,,,,0,,,,,,,,,,,,,,,,,,,,,,,,,,,,,,,1238.3845250000013,1238.394166799997,1238.394166799997,1262.082179500001,kratzig,return,23.678757900001074,None,1262.082443899999,1262.0918954000008,1262.0918954000008,1262.0851451999988,,None,,,,,2,2023-12-14_10h27.13.093,watkins1,2023.2.3,99.73072703437632,65,2023-12-14 10h27.20.409841 +0000,
,,,,,,,,,,,,,,,,,,,,,,,13,0,13,0,1262.5939612000002,,,,,,,,,,,,1268.8127750999993,1269.311609700002,,,,6.2069344999981695,,,,,,,,,,,,None,None,,,,,,,,,,Schlüssel,,,cuedRecallAdj,2,,,,,,,,,,,,,,,,,,,,,0,,,,,,,,,,,,,,,,,,,,,,,,,,,,,,,1262.5842645000012,1262.5939612000002,1262.5939612000002,1268.809896400002,kalt,return,6.2069344999981695,None,1268.810155500003,1268.8195876000027,1268.8195876000027,1268.8126733000026,,None,,,,,2,2023-12-14_10h27.13.093,watkins1,2023.2.3,99.73072703437632,65,2023-12-14 10h27.20.409841 +0000,
,,,,,,,,,,,,,,,,,,,,,,,14,0,14,0,1269.3215761000029,,,,,,,,,,,,1301.6780532999983,1302.1772968000005,,,,32.35126190000301,,,,,,,,,,,,None,None,,,,,,,,,,Würfel,,,cuedRecallAdj,2,,,,,,,,,,,,,,,,,,,,,0,,,,,,,,,,,,,,,,,,,,,,,,,,,,,,,1269.3118574999971,1269.3215761000029,1269.3215761000029,1301.6757509000017,,return,32.35126190000301,None,1301.6760198999982,1301.6853132999968,1301.6853132999968,1301.6779510999986,,None,,,,,2,2023-12-14_10h27.13.093,watkins1,2023.2.3,99.73072703437632,65,2023-12-14 10h27.20.409841 +0000,
,,,,,,,,,,,,,,,,,,,,,,,15,0,15,0,1302.1871995999973,,,,,,,,,,,,1309.4611731999976,1309.9506427000015,,,,7.2697482999938074,,,,,,,,,,,,None,None,,,,,,,,,,Telefon,,,cuedRecallAdj,2,,,,,,,,,,,,,,,,,,,,,0,,,,,,,,,,,,,,,,,,,,,,,,,,,,,,,1302.1775437000033,1302.1871995999973,1302.1871995999973,1309.4591403000013,,return,7.2697482999938074,None,1309.4594098000016,1309.4686453999966,1309.4686453999966,1309.4610702999998,,None,,,,,2,2023-12-14_10h27.13.093,watkins1,2023.2.3,99.73072703437632,65,2023-12-14 10h27.20.409841 +0000,
,,,,,,,,,,,,,,,,,,,,,,,16,0,16,0,1309.9605895999994,,,,,,,,,,,,1315.9486455000006,1316.447388200002,,,,5.976397700003872,,,,,,,,,,,,None,None,,,,,,,,,,Jacke,,,cuedRecallAdj,2,,,,,,,,,,,,,,,,,,,,,0,,,,,,,,,,,,,,,,,,,,,,,,,,,,,,,1309.9508897999985,1309.9605895999994,1309.9605895999994,1315.9456420999995,kratzig,return,5.976397700003872,None,1315.9459111000033,1315.9553603000022,1315.9553603000022,1315.9485413000002,,None,,,,,2,2023-12-14_10h27.13.093,watkins1,2023.2.3,99.73072703437632,65,2023-12-14 10h27.20.409841 +0000,
,,,,,,,,,,,,,,,,,,,,,,,17,0,17,0,1316.457327199998,,,,,,,,,,,,1349.0162132999976,1349.5151713000014,,,,32.551601899998786,,,,,,,,,,,,None,None,,,,,,,,,,Hut,,,cuedRecallAdj,2,,,,,,,,,,,,,,,,,,,,,0,,,,,,,,,,,,,,,,,,,,,,,,,,,,,,,1316.4476330000034,1316.457327199998,1316.457327199998,1349.0134896000018,weit,return,32.551601899998786,None,1349.0137592999963,1349.0230146999966,1349.0230146999966,1349.0161111999987,,None,,,,,2,2023-12-14_10h27.13.093,watkins1,2023.2.3,99.73072703437632,65,2023-12-14 10h27.20.409841 +0000,
,,,,,,,,,,,,,,,,,,,,,,,18,0,18,0,1349.5250754000008,,,,,,,,,,,,1357.5618602000031,1358.0606222999995,,,,8.027824500000861,,,,,,,,,,,,None,None,,,,,,,,,,Stift,,,cuedRecallAdj,2,,,,,,,,,,,,,,,,,,,,,0,,,,,,,,,,,,,,,,,,,,,,,,,,,,,,,1349.5154219999968,1349.5250754000008,1349.5250754000008,1357.5589454,lang,return,8.027824500000861,None,1357.5592135999977,1357.568528900003,1357.568528900003,1357.5617574999997,,None,,,,,2,2023-12-14_10h27.13.093,watkins1,2023.2.3,99.73072703437632,65,2023-12-14 10h27.20.409841 +0000,
,,,,,,,,,,,,,,,,,,,,,,,19,0,19,0,1358.0705260999966,,,,,,,,,,,,1362.3015368999986,1362.8003121000002,,,,4.21838530000241,,,,,,,,,,,,None,None,,,,,,,,,,Schere,,,cuedRecallAdj,2,,,,,,,,,,,,,,,,,,,,,0,,,,,,,,,,,,,,,,,,,,,,,,,,,,,,,1358.0608729000014,1358.0705260999966,1358.0705260999966,1362.2984756000005,glänzend,return,4.21838530000241,None,1362.2987414000017,1362.3081887000008,1362.3081887000008,1362.3014345999982,,None,,,,,2,2023-12-14_10h27.13.093,watkins1,2023.2.3,99.73072703437632,65,2023-12-14 10h27.20.409841 +0000,
,,,,,,,,,,,,,,,,,,,,,,,20,0,20,0,1362.810249299997,,,,,,,,,,,,1372.7774649999992,1373.2666822000028,,,,9.958655400005227,,,,,,,,,,,,None,None,,,,,,,,,,Eimer,,,cuedRecallAdj,2,,,,,,,,,,,,,,,,,,,,,0,,,,,,,,,,,,,,,,,,,,,,,,,,,,,,,1362.8005618000025,1362.810249299997,1362.810249299997,1372.7752069999988,,return,9.958655400005227,None,1372.7754757000002,1372.7847299999994,1372.7847299999994,1372.777362300003,,None,,,,,2,2023-12-14_10h27.13.093,watkins1,2023.2.3,99.73072703437632,65,2023-12-14 10h27.20.409841 +0000,
,,,,,,,,,,,,,,,,,,,,,,,21,0,21,0,1373.2766040999995,,,,,,,,,,,,1407.4998166000005,1407.9896241000024,,,,34.220251999999164,,,,,,,,,,,,None,None,,,,,,,,,,Ring,,,cuedRecallAdj,2,,,,,,,,,,,,,,,,,,,,,0,,,,,,,,,,,,,,,,,,,,,,,,,,,,,,,1373.2669303000002,1373.2766040999995,1373.2766040999995,1407.4980423000015,,return,34.220251999999164,None,1407.4983085999993,1407.5075464999973,1407.5075464999973,1407.4997174000018,,None,,,,,2,2023-12-14_10h27.13.093,watkins1,2023.2.3,99.73072703437632,65,2023-12-14 10h27.20.409841 +0000,
,,,,,,,,,,,,,,,,,,,,,,,22,0,22,0,1407.9995258999988,,,,,,,,,,,,1412.1609545000028,1412.6597442999991,,,,4.153371300002618,,,,,,,,,,,,None,None,,,,,,,,,,Vase,,,cuedRecallAdj,2,,,,,,,,,,,,,,,,,,,,,0,,,,,,,,,,,,,,,,,,,,,,,,,,,,,,,1407.9898718999975,1407.9995258999988,1407.9995258999988,1412.1580170000016,gepunktet,return,4.153371300002618,None,1412.1582845000012,1412.1675686000017,1412.1675686000017,1412.160847500003,,None,,,,,2,2023-12-14_10h27.13.093,watkins1,2023.2.3,99.73072703437632,65,2023-12-14 10h27.20.409841 +0000,
,,,,,,,,,,,,,,,,,,,,,,,23,0,23,0,1412.669690499999,,,,,,,,,,,,1429.6621320999984,1430.1613795000012,,,,16.987179400006426,,,,,,,,,,,,None,None,,,,,,,,,,Fahrrad,,,cuedRecallAdj,2,,,,,,,,,,,,,,,,,,,,,0,,,,,,,,,,,,,,,,,,,,,,,,,,,,,,,1412.6599910000004,1412.669690499999,1412.669690499999,1429.6598174000028,,return,16.987179400006426,None,1429.6600888999965,1429.6693883999978,1429.6693883999978,1429.6620286000034,,None,,,,,2,2023-12-14_10h27.13.093,watkins1,2023.2.3,99.73072703437632,65,2023-12-14 10h27.20.409841 +0000,
,,,,,,,,,,,,,,,,,,,,,,,24,0,24,0,1430.171432199997,,,,,,,,,,,,1449.2049030999988,1449.7036971999987,,,,19.029414899996482,,,,,,,,,,,,None,None,,,,,,,,,,Buch,,,cuedRecallAdj,2,,,,,,,,,,,,,,,,,,,,,0,,,,,,,,,,,,,,,,,,,,,,,,,,,,,,,1430.161625300003,1430.171432199997,1430.171432199997,1449.2020600999967,teuer,return,19.029414899996482,None,1449.2023524999968,1449.2116688000024,1449.2116688000024,1449.2048018999994,,None,,,,,2,2023-12-14_10h27.13.093,watkins1,2023.2.3,99.73072703437632,65,2023-12-14 10h27.20.409841 +0000,
,,,,,,,,,,,,,,,,,,,,,,,25,0,25,0,1449.713639499998,,,,,,,,,,,,1504.7335882999978,1505.2320229999968,,,,55.015332499999204,,,,,,,,,,,,None,None,,,,,,,,,,Uhr,,,cuedRecallAdj,2,,,,,,,,,,,,,,,,,,,,,0,,,,,,,,,,,,,,,,,,,,,,,,,,,,,,,1449.7039497000005,1449.713639499998,1449.713639499998,1504.7306543000013,nützlich,return,55.015332499999204,None,1504.7309237000009,1504.7402532999986,1504.7402532999986,1504.7334829000029,,None,,,,,2,2023-12-14_10h27.13.093,watkins1,2023.2.3,99.73072703437632,65,2023-12-14 10h27.20.409841 +0000,
,,,,,,,,,,,,,,,,,,,,,,,26,0,26,0,1505.2419243999975,,,,,,,,,,,,1508.8206942999968,1509.3193927999964,,,,3.575015700000222,,,,,,,,,,,,None,None,,,,,,,,,,Geige,,,cuedRecallAdj,2,,,,,,,,,,,,,,,,,,,,,0,,,,,,,,,,,,,,,,,,,,,,,,,,,,,,,1505.2322759000017,1505.2419243999975,1505.2419243999975,1508.8177952999977,flach,return,3.575015700000222,None,1508.818057999997,1508.8274496000013,1508.8274496000013,1508.8205936000013,,None,,,,,2,2023-12-14_10h27.13.093,watkins1,2023.2.3,99.73072703437632,65,2023-12-14 10h27.20.409841 +0000,
,,,,,,,,,,,,,,,,,,,,,,,27,0,27,0,1509.329393,,,,,,,,,,,,1526.1510236999966,1526.6503067000012,,,,16.815460600002552,,,,,,,,,,,,None,None,,,,,,,,,,Blume,,,cuedRecallAdj,2,,,,,,,,,,,,,,,,,,,,,0,,,,,,,,,,,,,,,,,,,,,,,,,,,,,,,1509.3196467000016,1509.329393,1509.329393,1526.1486072999978,,return,16.815460600002552,None,1526.1488746000032,1526.1581396999973,1526.1581396999973,1526.1509220000007,,None,,,,,2,2023-12-14_10h27.13.093,watkins1,2023.2.3,99.73072703437632,65,2023-12-14 10h27.20.409841 +0000,
,,,,,,,,,,,,,,,,,,,,,,,28,0,28,0,1526.6602480000001,,,,,,,,,,,,1537.367694200002,1537.8663140999997,,,,10.700806999993802,,,,,,,,,,,,None,None,,,,,,,,,,Bürste,,,cuedRecallAdj,2,,,,,,,,,,,,,,,,,,,,,0,,,,,,,,,,,,,,,,,,,,,,,,,,,,,,,1526.6505555999975,1526.6602480000001,1526.6602480000001,1537.3646733999994,kratzig,return,10.700806999993802,None,1537.3649411000006,1537.374193399999,1537.374193399999,1537.367591299997,,None,,,,,2,2023-12-14_10h27.13.093,watkins1,2023.2.3,99.73072703437632,65,2023-12-14 10h27.20.409841 +0000,
,,,,,,,,,,,,,,,,,,,,,,,29,0,29,0,1537.8762132999982,,,,,,,,,,,,1544.466940600003,1544.9656808,,,,6.5807729000007384,,,,,,,,,,,,None,None,,,,,,,,,,Kiste,,,cuedRecallAdj,2,,,,,,,,,,,,,,,,,,,,,0,,,,,,,,,,,,,,,,,,,,,,,,,,,,,,,1537.8665626000002,1537.8762132999982,1537.8762132999982,1544.4639226,schnell,return,6.5807729000007384,None,1544.4641908999984,1544.4734556999974,1544.4734556999974,1544.4668367999984,,None,,,,,2,2023-12-14_10h27.13.093,watkins1,2023.2.3,99.73072703437632,65,2023-12-14 10h27.20.409841 +0000,
,,,,,,,,,,,,,,,,,,,,,,,,,,,,,,,,,,,,,,,,,,,,,,,,,,,,,,,,,,,,,,,,,,,,,,,2,,,,,,,,,,,,,,,,,,,,,,,,,,,,,,,,,,,,,,,,,,,,,,,,,,,,,,,,,,,,,,,,,,1544.9823668000026,q,954.6266294000015,None,2,2023-12-14_10h27.13.093,watkins1,2023.2.3,99.73072703437632,65,2023-12-14 10h27.20.409841 +0000,
