Equation,CorrectResponse,Correctbutton,trials_7.thisRepN,trials_7.thisTrialN,trials_7.thisN,trials_7.thisIndex,trials.thisRepN,trials.thisTrialN,trials.thisN,trials.thisIndex,trials_3.thisRepN,trials_3.thisTrialN,trials_3.thisN,trials_3.thisIndex,trials_2.thisRepN,trials_2.thisTrialN,trials_2.thisN,trials_2.thisIndex,trials_4.thisRepN,trials_4.thisTrialN,trials_4.thisN,trials_4.thisIndex,trials_5.thisRepN,trials_5.thisTrialN,trials_5.thisN,trials_5.thisIndex,thisRow.t,notes,list_sub_restudy,list_sub_testsub,code_marius.started,code_marius.stopped,welcome.started,welcome.stopped,instruction_study.started,instruction_study.stopped,fixationcross.started,fixationcross.stopped,blanc.started,blanc.stopped,study_control_probe.started,study_control_probe.stopped,responseKey,responseTime,scale_answer_2.keys,study_control_probe_2.started,study_control_probe_2.stopped,scale_answer_3.keys,scale_answer_3.rt,scale_answer_3.duration,blanc_2.started,blanc_2.stopped,test_attr_probe.started,test_attr_probe.stopped,recalled_attr,firstKeyTime,secondWordTime,blanc_3.started,blanc_3.stopped,test_sub_probe.started,test_sub_probe.stopped,recalled_sub,instruction_probe_end.started,instruction_probe_end.stopped,study.started,study.stopped,substantive,adjective,wordpair,task,condition,liste_sub_phase1,liste_adj_phase1,scale_answer.keys,scale_answer.rt,scale_answer.duration,code_defineWordsInit.started,code_defineWordsInit.stopped,liste_sub_phase2,study_control.started,study_control.stopped,scale_answer_4.keys,restudy_same.started,restudy_same.stopped,scale_answer_5.keys,restudy_different.started,restudy_different.stopped,scale_answer_6.keys,test_attr.started,test_attr.stopped,test_sub.started,correct,test_sub.stopped,scale_answer_5.rt,scale_answer_5.duration,distractortask.started,equation_text.started,distractortask.stopped,mouse_answer.x,mouse_answer.y,mouse_answer.leftButton,mouse_answer.midButton,mouse_answer.rightButton,mouse_answer.time,mouse_answer.clicked_name,feedback_distractortask.started,feedback_distractortask.stopped,free_recall.started,text_enter.started,key_resp.started,free_recall.stopped,key_resp.keys,key_resp.rt,key_resp.duration,free_recalled_sub,mouse_continue.x,mouse_continue.y,mouse_continue.leftButton,mouse_continue.midButton,mouse_continue.rightButton,mouse_continue.time,mouse_continue.clicked_name,cued_recall.started,text_enter_2.started,key_continue.started,cued_recall.stopped,recalled_attr1,key_continue.keys,key_continue.rt,key_continue.duration,cued_recall_2.started,text_enter_3.started,key_continue_2.started,cued_recall_2.stopped,recalled_attr2,key_continue_2.keys,key_resp_8.started,key_resp_8.keys,key_resp_8.rt,key_resp_8.duration,condition,date,expName,psychopyVersion,frameRate,participant,expStart,
,,,,,,,,,,,,,,,,,,,,,,,,,,,,,"['Jacke', 'Lampe', 'Löffel', 'Rucksack', 'Flasche', 'Würfel', 'Schere', 'Buch', 'Hammer', 'Schlüssel', 'Vase', 'Trommel', 'Brille', 'Kette', 'Stift']","['Bürste', 'Kerze', 'Telefon', 'Eimer', 'Geige', 'Socke', 'Kiste', 'Blume', 'Ring', 'Uhr', 'Tasse', 'Fahrrad', 'Tasche', 'Kamera', 'Hut']",0.15129279997199774,0.15136130014434457,0.15136989997699857,3.508794399909675,,,,,,,,,,,,,,,,,,,,,,,,,,,,,,,,,,,,,2,,,,,,,,,,,,,,,,,,,,,,,,,,,,,,,,,,,,,,,,,,,,,,,,,,,,,,,,,,,,,,,,,,,,,,2,2024-01-09_12h44.18.247,watkins1,2023.2.3,99.73311391974083,78,2024-01-09 12h44.29.372484 +0000,
,,,,,,,,,,,,,,,,,,,,,,,,,,,,,,,,,,,3.5088456999510527,59.4717549001798,,,,,,,,,,,,,,,,,,,,,,,,,,,,,,,,,,,2,,,,,,,,,,,,,,,,,,,,,,,,,,,,,,,,,,,,,,,,,,,,,,,,,,,,,,,,,,,,,,,,,,,,,,2,2024-01-09_12h44.18.247,watkins1,2023.2.3,99.73311391974083,78,2024-01-09 12h44.29.372484 +0000,
,,,0,0,0,0,,,,,,,,,,,,,,,,,,,,,60.4852780001238,,,,,,,,,,59.471773699857295,60.475240299943835,66.9741906998679,67.46543730003759,60.96705480013043,66.97402670001611,2,1.9430110002867877,None,67.46544880000874,73.46794239990413,2,1.9430110002867877,None,73.46824089996517,73.4682658999227,73.46827349998057,73.4683576002717,,1.6765371998772025,None,73.46852270001546,73.9597726999782,73.95978499995545,79.96439079986885,hund,,,,,,,,,2,,,,,,,,,,,,,,,,,,,,,,,,,,,,,,,,,,,,,,,,,,,,,,,,,,,,,,,,,,,,,,,,,,,,,,2,2024-01-09_12h44.18.247,watkins1,2023.2.3,99.73311391974083,78,2024-01-09 12h44.29.372484 +0000,
,,,,,,,,,,,,,,,,,,,,,,,,,,,,,,,,,,,,,,,,,,,,,,,,,,,,,,,,,,,,,,,79.96454499987885,85.79742870014161,,,,,,,2,,,,,,,,,,,,,,,,,,,,,,,,,,,,,,,,,,,,,,,,,,,,,,,,,,,,,,,,,,,,,,,,,,,,,,2,2024-01-09_12h44.18.247,watkins1,2023.2.3,99.73311391974083,78,2024-01-09 12h44.29.372484 +0000,
,,,,,,,0,0,0,0,,,,,,,,,,,,,,,,,86.81084090005606,,,,,,,,,,85.7974458001554,86.8009039000608,86.8014310002327,87.29287549993023,,,1,2.8948985999450088,,,,,,,,,,,,,,,,,,,,,87.29288659989834,93.30102030001581,Lampe,schmutzig,"['Lampe', 'schmutzig']",restudy,2,"['Lampe', 'Tasse', 'Schlüssel', 'Kerze', 'Hammer', 'Rucksack', 'Stift', 'Löffel', 'Telefon', 'Fahrrad', 'Trommel', 'Buch', 'Schere', 'Bürste', 'Socke', 'Vase', 'Kiste', 'Geige', 'Würfel', 'Tasche', 'Ring', 'Flasche', 'Uhr', 'Brille', 'Hut', 'Blume', 'Kamera', 'Eimer', 'Jacke', 'Kette']",['schmutzig'],1,2.8948985999450088,None,,,,,,,,,,,,,,,,,,,,,,,,,,,,,,,,,,,,,,,,,,,,,,,,,,,,,,,,,,,,,,,,,2,2024-01-09_12h44.18.247,watkins1,2023.2.3,99.73311391974083,78,2024-01-09 12h44.29.372484 +0000,
,,,,,,,1,0,1,0,,,,,,,,,,,,,,,,,93.31054159998894,,,,,,,,,,,,93.30167079996318,93.79251920012757,,,1,2.652875700034201,,,,,,,,,,,,,,,,,,,,,93.79253040021285,99.79409660026431,Tasse,flach,"['Tasse', 'flach']",test_sub,2,"['Lampe', 'Tasse', 'Schlüssel', 'Kerze', 'Hammer', 'Rucksack', 'Stift', 'Löffel', 'Telefon', 'Fahrrad', 'Trommel', 'Buch', 'Schere', 'Bürste', 'Socke', 'Vase', 'Kiste', 'Geige', 'Würfel', 'Tasche', 'Ring', 'Flasche', 'Uhr', 'Brille', 'Hut', 'Blume', 'Kamera', 'Eimer', 'Jacke', 'Kette']","['schmutzig', 'flach']",1,2.652875700034201,None,,,,,,,,,,,,,,,,,,,,,,,,,,,,,,,,,,,,,,,,,,,,,,,,,,,,,,,,,,,,,,,,,2,2024-01-09_12h44.18.247,watkins1,2023.2.3,99.73311391974083,78,2024-01-09 12h44.29.372484 +0000,
,,,,,,,2,0,2,0,,,,,,,,,,,,,,,,,99.80354390013963,,,,,,,,,,,,99.79463989986107,100.28566819988191,,,1,2.7846259996294975,,,,,,,,,,,,,,,,,,,,,100.2856792001985,106.28661159984767,Schlüssel,hohl,"['Schlüssel', 'hohl']",restudy,2,"['Lampe', 'Tasse', 'Schlüssel', 'Kerze', 'Hammer', 'Rucksack', 'Stift', 'Löffel', 'Telefon', 'Fahrrad', 'Trommel', 'Buch', 'Schere', 'Bürste', 'Socke', 'Vase', 'Kiste', 'Geige', 'Würfel', 'Tasche', 'Ring', 'Flasche', 'Uhr', 'Brille', 'Hut', 'Blume', 'Kamera', 'Eimer', 'Jacke', 'Kette']","['schmutzig', 'flach', 'hohl']",1,2.7846259996294975,None,,,,,,,,,,,,,,,,,,,,,,,,,,,,,,,,,,,,,,,,,,,,,,,,,,,,,,,,,,,,,,,,,2,2024-01-09_12h44.18.247,watkins1,2023.2.3,99.73311391974083,78,2024-01-09 12h44.29.372484 +0000,
,,,,,,,3,0,3,0,,,,,,,,,,,,,,,,,106.29597999993712,,,,,,,,,,,,106.28714250028133,106.77837119996548,,,3,2.5317597999237478,,,,,,,,,,,,,,,,,,,,,106.77838189993054,112.78510250011459,Kerze,teuer,"['Kerze', 'teuer']",test_sub,2,"['Lampe', 'Tasse', 'Schlüssel', 'Kerze', 'Hammer', 'Rucksack', 'Stift', 'Löffel', 'Telefon', 'Fahrrad', 'Trommel', 'Buch', 'Schere', 'Bürste', 'Socke', 'Vase', 'Kiste', 'Geige', 'Würfel', 'Tasche', 'Ring', 'Flasche', 'Uhr', 'Brille', 'Hut', 'Blume', 'Kamera', 'Eimer', 'Jacke', 'Kette']","['schmutzig', 'flach', 'hohl', 'teuer']",3,2.5317597999237478,None,,,,,,,,,,,,,,,,,,,,,,,,,,,,,,,,,,,,,,,,,,,,,,,,,,,,,,,,,,,,,,,,,2,2024-01-09_12h44.18.247,watkins1,2023.2.3,99.73311391974083,78,2024-01-09 12h44.29.372484 +0000,
,,,,,,,4,0,4,0,,,,,,,,,,,,,,,,,112.79456990025938,,,,,,,,,,,,112.78563020005822,113.27675900002941,,,2,1.9297218997962773,,,,,,,,,,,,,,,,,,,,,113.2767702001147,119.27919630007818,Hammer,schlicht,"['Hammer', 'schlicht']",restudy,2,"['Lampe', 'Tasse', 'Schlüssel', 'Kerze', 'Hammer', 'Rucksack', 'Stift', 'Löffel', 'Telefon', 'Fahrrad', 'Trommel', 'Buch', 'Schere', 'Bürste', 'Socke', 'Vase', 'Kiste', 'Geige', 'Würfel', 'Tasche', 'Ring', 'Flasche', 'Uhr', 'Brille', 'Hut', 'Blume', 'Kamera', 'Eimer', 'Jacke', 'Kette']","['schmutzig', 'flach', 'hohl', 'teuer', 'schlicht']",2,1.9297218997962773,None,,,,,,,,,,,,,,,,,,,,,,,,,,,,,,,,,,,,,,,,,,,,,,,,,,,,,,,,,,,,,,,,,2,2024-01-09_12h44.18.247,watkins1,2023.2.3,99.73311391974083,78,2024-01-09 12h44.29.372484 +0000,
,,,,,,,5,0,5,0,,,,,,,,,,,,,,,,,119.2887190002948,,,,,,,,,,,,119.27973149996251,119.7706837002188,,,1,2.963294600136578,,,,,,,,,,,,,,,,,,,,,119.77069489983842,125.77676000026986,Rucksack,glatt,"['Rucksack', 'glatt']",restudy,2,"['Lampe', 'Tasse', 'Schlüssel', 'Kerze', 'Hammer', 'Rucksack', 'Stift', 'Löffel', 'Telefon', 'Fahrrad', 'Trommel', 'Buch', 'Schere', 'Bürste', 'Socke', 'Vase', 'Kiste', 'Geige', 'Würfel', 'Tasche', 'Ring', 'Flasche', 'Uhr', 'Brille', 'Hut', 'Blume', 'Kamera', 'Eimer', 'Jacke', 'Kette']","['schmutzig', 'flach', 'hohl', 'teuer', 'schlicht', 'glatt']",1,2.963294600136578,None,,,,,,,,,,,,,,,,,,,,,,,,,,,,,,,,,,,,,,,,,,,,,,,,,,,,,,,,,,,,,,,,,2,2024-01-09_12h44.18.247,watkins1,2023.2.3,99.73311391974083,78,2024-01-09 12h44.29.372484 +0000,
,,,,,,,6,0,6,0,,,,,,,,,,,,,,,,,125.78625909984112,,,,,,,,,,,,125.77728280005977,126.26822429988533,,,2,1.835067800246179,,,,,,,,,,,,,,,,,,,,,126.26823549997061,132.27652220008895,Stift,rustikal,"['Stift', 'rustikal']",restudy,2,"['Lampe', 'Tasse', 'Schlüssel', 'Kerze', 'Hammer', 'Rucksack', 'Stift', 'Löffel', 'Telefon', 'Fahrrad', 'Trommel', 'Buch', 'Schere', 'Bürste', 'Socke', 'Vase', 'Kiste', 'Geige', 'Würfel', 'Tasche', 'Ring', 'Flasche', 'Uhr', 'Brille', 'Hut', 'Blume', 'Kamera', 'Eimer', 'Jacke', 'Kette']","['schmutzig', 'flach', 'hohl', 'teuer', 'schlicht', 'glatt', 'rustikal']",2,1.835067800246179,None,,,,,,,,,,,,,,,,,,,,,,,,,,,,,,,,,,,,,,,,,,,,,,,,,,,,,,,,,,,,,,,,,2,2024-01-09_12h44.18.247,watkins1,2023.2.3,99.73311391974083,78,2024-01-09 12h44.29.372484 +0000,
,,,,,,,7,0,7,0,,,,,,,,,,,,,,,,,132.2860174002126,,,,,,,,,,,,132.27704480011016,132.76793850027025,,,2,1.934386800043285,,,,,,,,,,,,,,,,,,,,,132.76794870011508,138.77754569984972,Löffel,nass,"['Löffel', 'nass']",restudy,2,"['Lampe', 'Tasse', 'Schlüssel', 'Kerze', 'Hammer', 'Rucksack', 'Stift', 'Löffel', 'Telefon', 'Fahrrad', 'Trommel', 'Buch', 'Schere', 'Bürste', 'Socke', 'Vase', 'Kiste', 'Geige', 'Würfel', 'Tasche', 'Ring', 'Flasche', 'Uhr', 'Brille', 'Hut', 'Blume', 'Kamera', 'Eimer', 'Jacke', 'Kette']","['schmutzig', 'flach', 'hohl', 'teuer', 'schlicht', 'glatt', 'rustikal', 'nass']",2,1.934386800043285,None,,,,,,,,,,,,,,,,,,,,,,,,,,,,,,,,,,,,,,,,,,,,,,,,,,,,,,,,,,,,,,,,,2,2024-01-09_12h44.18.247,watkins1,2023.2.3,99.73311391974083,78,2024-01-09 12h44.29.372484 +0000,
,,,,,,,8,0,8,0,,,,,,,,,,,,,,,,,138.7869878001511,,,,,,,,,,,,138.7780550001189,139.26886630011722,,,2,2.7220577001571655,,,,,,,,,,,,,,,,,,,,,139.26887719985098,145.27755929995328,Telefon,gestreift,"['Telefon', 'gestreift']",test_sub,2,"['Lampe', 'Tasse', 'Schlüssel', 'Kerze', 'Hammer', 'Rucksack', 'Stift', 'Löffel', 'Telefon', 'Fahrrad', 'Trommel', 'Buch', 'Schere', 'Bürste', 'Socke', 'Vase', 'Kiste', 'Geige', 'Würfel', 'Tasche', 'Ring', 'Flasche', 'Uhr', 'Brille', 'Hut', 'Blume', 'Kamera', 'Eimer', 'Jacke', 'Kette']","['schmutzig', 'flach', 'hohl', 'teuer', 'schlicht', 'glatt', 'rustikal', 'nass', 'gestreift']",2,2.7220577001571655,None,,,,,,,,,,,,,,,,,,,,,,,,,,,,,,,,,,,,,,,,,,,,,,,,,,,,,,,,,,,,,,,,,2,2024-01-09_12h44.18.247,watkins1,2023.2.3,99.73311391974083,78,2024-01-09 12h44.29.372484 +0000,
,,,,,,,9,0,9,0,,,,,,,,,,,,,,,,,145.2870562998578,,,,,,,,,,,,145.27809779997915,145.76903950003907,,,1,2.4537084996700287,,,,,,,,,,,,,,,,,,,,,145.76905009988695,151.77888510003686,Fahrrad,dunkel,"['Fahrrad', 'dunkel']",test_sub,2,"['Lampe', 'Tasse', 'Schlüssel', 'Kerze', 'Hammer', 'Rucksack', 'Stift', 'Löffel', 'Telefon', 'Fahrrad', 'Trommel', 'Buch', 'Schere', 'Bürste', 'Socke', 'Vase', 'Kiste', 'Geige', 'Würfel', 'Tasche', 'Ring', 'Flasche', 'Uhr', 'Brille', 'Hut', 'Blume', 'Kamera', 'Eimer', 'Jacke', 'Kette']","['schmutzig', 'flach', 'hohl', 'teuer', 'schlicht', 'glatt', 'rustikal', 'nass', 'gestreift', 'dunkel']",1,2.4537084996700287,None,,,,,,,,,,,,,,,,,,,,,,,,,,,,,,,,,,,,,,,,,,,,,,,,,,,,,,,,,,,,,,,,,2,2024-01-09_12h44.18.247,watkins1,2023.2.3,99.73311391974083,78,2024-01-09 12h44.29.372484 +0000,
,,,,,,,10,0,10,0,,,,,,,,,,,,,,,,,151.788307600189,,,,,,,,,,,,151.77940940018743,152.27030530013144,,,2,2.256975300144404,,,,,,,,,,,,,,,,,,,,,152.27031650021672,158.2792903999798,Trommel,kalt,"['Trommel', 'kalt']",restudy,2,"['Lampe', 'Tasse', 'Schlüssel', 'Kerze', 'Hammer', 'Rucksack', 'Stift', 'Löffel', 'Telefon', 'Fahrrad', 'Trommel', 'Buch', 'Schere', 'Bürste', 'Socke', 'Vase', 'Kiste', 'Geige', 'Würfel', 'Tasche', 'Ring', 'Flasche', 'Uhr', 'Brille', 'Hut', 'Blume', 'Kamera', 'Eimer', 'Jacke', 'Kette']","['schmutzig', 'flach', 'hohl', 'teuer', 'schlicht', 'glatt', 'rustikal', 'nass', 'gestreift', 'dunkel', 'kalt']",2,2.256975300144404,None,,,,,,,,,,,,,,,,,,,,,,,,,,,,,,,,,,,,,,,,,,,,,,,,,,,,,,,,,,,,,,,,,2,2024-01-09_12h44.18.247,watkins1,2023.2.3,99.73311391974083,78,2024-01-09 12h44.29.372484 +0000,
,,,,,,,11,0,11,0,,,,,,,,,,,,,,,,,158.28875020006672,,,,,,,,,,,,158.2798154000193,158.77068010019138,,,1,3.291768899653107,,,,,,,,,,,,,,,,,,,,,158.7706912001595,164.78036420000717,Buch,sportlich,"['Buch', 'sportlich']",restudy,2,"['Lampe', 'Tasse', 'Schlüssel', 'Kerze', 'Hammer', 'Rucksack', 'Stift', 'Löffel', 'Telefon', 'Fahrrad', 'Trommel', 'Buch', 'Schere', 'Bürste', 'Socke', 'Vase', 'Kiste', 'Geige', 'Würfel', 'Tasche', 'Ring', 'Flasche', 'Uhr', 'Brille', 'Hut', 'Blume', 'Kamera', 'Eimer', 'Jacke', 'Kette']","['schmutzig', 'flach', 'hohl', 'teuer', 'schlicht', 'glatt', 'rustikal', 'nass', 'gestreift', 'dunkel', 'kalt', 'sportlich']",1,3.291768899653107,None,,,,,,,,,,,,,,,,,,,,,,,,,,,,,,,,,,,,,,,,,,,,,,,,,,,,,,,,,,,,,,,,,2,2024-01-09_12h44.18.247,watkins1,2023.2.3,99.73311391974083,78,2024-01-09 12h44.29.372484 +0000,
,,,,,,,12,0,12,0,,,,,,,,,,,,,,,,,164.7897928999737,,,,,,,,,,,,164.7808902002871,165.27207519998774,,,3,2.3984714997932315,,,,,,,,,,,,,,,,,,,,,165.2720866999589,171.27489300025627,Schere,sauber,"['Schere', 'sauber']",restudy,2,"['Lampe', 'Tasse', 'Schlüssel', 'Kerze', 'Hammer', 'Rucksack', 'Stift', 'Löffel', 'Telefon', 'Fahrrad', 'Trommel', 'Buch', 'Schere', 'Bürste', 'Socke', 'Vase', 'Kiste', 'Geige', 'Würfel', 'Tasche', 'Ring', 'Flasche', 'Uhr', 'Brille', 'Hut', 'Blume', 'Kamera', 'Eimer', 'Jacke', 'Kette']","['schmutzig', 'flach', 'hohl', 'teuer', 'schlicht', 'glatt', 'rustikal', 'nass', 'gestreift', 'dunkel', 'kalt', 'sportlich', 'sauber']",3,2.3984714997932315,None,,,,,,,,,,,,,,,,,,,,,,,,,,,,,,,,,,,,,,,,,,,,,,,,,,,,,,,,,,,,,,,,,2,2024-01-09_12h44.18.247,watkins1,2023.2.3,99.73311391974083,78,2024-01-09 12h44.29.372484 +0000,
,,,,,,,13,0,13,0,,,,,,,,,,,,,,,,,171.28439920023084,,,,,,,,,,,,171.275501600001,171.766364000272,,,2,2.9529200000688434,,,,,,,,,,,,,,,,,,,,,171.7663738001138,177.77690170006827,Bürste,zart,"['Bürste', 'zart']",test_sub,2,"['Lampe', 'Tasse', 'Schlüssel', 'Kerze', 'Hammer', 'Rucksack', 'Stift', 'Löffel', 'Telefon', 'Fahrrad', 'Trommel', 'Buch', 'Schere', 'Bürste', 'Socke', 'Vase', 'Kiste', 'Geige', 'Würfel', 'Tasche', 'Ring', 'Flasche', 'Uhr', 'Brille', 'Hut', 'Blume', 'Kamera', 'Eimer', 'Jacke', 'Kette']","['schmutzig', 'flach', 'hohl', 'teuer', 'schlicht', 'glatt', 'rustikal', 'nass', 'gestreift', 'dunkel', 'kalt', 'sportlich', 'sauber', 'zart']",2,2.9529200000688434,None,,,,,,,,,,,,,,,,,,,,,,,,,,,,,,,,,,,,,,,,,,,,,,,,,,,,,,,,,,,,,,,,,2,2024-01-09_12h44.18.247,watkins1,2023.2.3,99.73311391974083,78,2024-01-09 12h44.29.372484 +0000,
,,,,,,,14,0,14,0,,,,,,,,,,,,,,,,,177.78639080002904,,,,,,,,,,,,177.77742699999362,178.26830499991775,,,3,3.9307972001843154,,,,,,,,,,,,,,,,,,,,,178.26831660000607,184.27215600013733,Socke,praktisch,"['Socke', 'praktisch']",test_sub,2,"['Lampe', 'Tasse', 'Schlüssel', 'Kerze', 'Hammer', 'Rucksack', 'Stift', 'Löffel', 'Telefon', 'Fahrrad', 'Trommel', 'Buch', 'Schere', 'Bürste', 'Socke', 'Vase', 'Kiste', 'Geige', 'Würfel', 'Tasche', 'Ring', 'Flasche', 'Uhr', 'Brille', 'Hut', 'Blume', 'Kamera', 'Eimer', 'Jacke', 'Kette']","['schmutzig', 'flach', 'hohl', 'teuer', 'schlicht', 'glatt', 'rustikal', 'nass', 'gestreift', 'dunkel', 'kalt', 'sportlich', 'sauber', 'zart', 'praktisch']",3,3.9307972001843154,None,,,,,,,,,,,,,,,,,,,,,,,,,,,,,,,,,,,,,,,,,,,,,,,,,,,,,,,,,,,,,,,,,2,2024-01-09_12h44.18.247,watkins1,2023.2.3,99.73311391974083,78,2024-01-09 12h44.29.372484 +0000,
,,,,,,,15,0,15,0,,,,,,,,,,,,,,,,,184.28156709996983,,,,,,,,,,,,184.27268749987707,184.763568200171,,,None,[],,,,,,,,,,,,,,,,,,,,,184.76357890013605,190.76493979990482,Vase,matt,"['Vase', 'matt']",restudy,2,"['Lampe', 'Tasse', 'Schlüssel', 'Kerze', 'Hammer', 'Rucksack', 'Stift', 'Löffel', 'Telefon', 'Fahrrad', 'Trommel', 'Buch', 'Schere', 'Bürste', 'Socke', 'Vase', 'Kiste', 'Geige', 'Würfel', 'Tasche', 'Ring', 'Flasche', 'Uhr', 'Brille', 'Hut', 'Blume', 'Kamera', 'Eimer', 'Jacke', 'Kette']","['schmutzig', 'flach', 'hohl', 'teuer', 'schlicht', 'glatt', 'rustikal', 'nass', 'gestreift', 'dunkel', 'kalt', 'sportlich', 'sauber', 'zart', 'praktisch', 'matt']",None,,,,,,,,,,,,,,,,,,,,,,,,,,,,,,,,,,,,,,,,,,,,,,,,,,,,,,,,,,,,,,,,,,,2,2024-01-09_12h44.18.247,watkins1,2023.2.3,99.73311391974083,78,2024-01-09 12h44.29.372484 +0000,
,,,,,,,16,0,16,0,,,,,,,,,,,,,,,,,190.77446220023558,,,,,,,,,,,,190.76531609985977,191.25649360008538,,,3,1.8706895001232624,,,,,,,,,,,,,,,,,,,,,191.25650640018284,197.2670263000764,Kiste,robust,"['Kiste', 'robust']",test_sub,2,"['Lampe', 'Tasse', 'Schlüssel', 'Kerze', 'Hammer', 'Rucksack', 'Stift', 'Löffel', 'Telefon', 'Fahrrad', 'Trommel', 'Buch', 'Schere', 'Bürste', 'Socke', 'Vase', 'Kiste', 'Geige', 'Würfel', 'Tasche', 'Ring', 'Flasche', 'Uhr', 'Brille', 'Hut', 'Blume', 'Kamera', 'Eimer', 'Jacke', 'Kette']","['schmutzig', 'flach', 'hohl', 'teuer', 'schlicht', 'glatt', 'rustikal', 'nass', 'gestreift', 'dunkel', 'kalt', 'sportlich', 'sauber', 'zart', 'praktisch', 'matt', 'robust']",3,1.8706895001232624,None,,,,,,,,,,,,,,,,,,,,,,,,,,,,,,,,,,,,,,,,,,,,,,,,,,,,,,,,,,,,,,,,,2,2024-01-09_12h44.18.247,watkins1,2023.2.3,99.73311391974083,78,2024-01-09 12h44.29.372484 +0000,
,,,,,,,17,0,17,0,,,,,,,,,,,,,,,,,197.27644579997286,,,,,,,,,,,,197.26754860021174,197.7584462002851,,,2,2.3996411999687552,,,,,,,,,,,,,,,,,,,,,197.75845690025017,203.76412709988654,Geige,kaputt,"['Geige', 'kaputt']",test_sub,2,"['Lampe', 'Tasse', 'Schlüssel', 'Kerze', 'Hammer', 'Rucksack', 'Stift', 'Löffel', 'Telefon', 'Fahrrad', 'Trommel', 'Buch', 'Schere', 'Bürste', 'Socke', 'Vase', 'Kiste', 'Geige', 'Würfel', 'Tasche', 'Ring', 'Flasche', 'Uhr', 'Brille', 'Hut', 'Blume', 'Kamera', 'Eimer', 'Jacke', 'Kette']","['schmutzig', 'flach', 'hohl', 'teuer', 'schlicht', 'glatt', 'rustikal', 'nass', 'gestreift', 'dunkel', 'kalt', 'sportlich', 'sauber', 'zart', 'praktisch', 'matt', 'robust', 'kaputt']",2,2.3996411999687552,None,,,,,,,,,,,,,,,,,,,,,,,,,,,,,,,,,,,,,,,,,,,,,,,,,,,,,,,,,,,,,,,,,2,2024-01-09_12h44.18.247,watkins1,2023.2.3,99.73311391974083,78,2024-01-09 12h44.29.372484 +0000,
,,,,,,,18,0,18,0,,,,,,,,,,,,,,,,,203.773659999948,,,,,,,,,,,,203.76467789988965,204.2557883998379,,,1,2.253792699892074,,,,,,,,,,,,,,,,,,,,,204.25579919992015,210.25662440015003,Würfel,glänzend,"['Würfel', 'glänzend']",restudy,2,"['Lampe', 'Tasse', 'Schlüssel', 'Kerze', 'Hammer', 'Rucksack', 'Stift', 'Löffel', 'Telefon', 'Fahrrad', 'Trommel', 'Buch', 'Schere', 'Bürste', 'Socke', 'Vase', 'Kiste', 'Geige', 'Würfel', 'Tasche', 'Ring', 'Flasche', 'Uhr', 'Brille', 'Hut', 'Blume', 'Kamera', 'Eimer', 'Jacke', 'Kette']","['schmutzig', 'flach', 'hohl', 'teuer', 'schlicht', 'glatt', 'rustikal', 'nass', 'gestreift', 'dunkel', 'kalt', 'sportlich', 'sauber', 'zart', 'praktisch', 'matt', 'robust', 'kaputt', 'glänzend']",1,2.253792699892074,None,,,,,,,,,,,,,,,,,,,,,,,,,,,,,,,,,,,,,,,,,,,,,,,,,,,,,,,,,,,,,,,,,2,2024-01-09_12h44.18.247,watkins1,2023.2.3,99.73311391974083,78,2024-01-09 12h44.29.372484 +0000,
,,,,,,,19,0,19,0,,,,,,,,,,,,,,,,,210.26605489989743,,,,,,,,,,,,210.257163700182,210.7483621002175,,,3,2.0666220001876354,,,,,,,,,,,,,,,,,,,,,210.74837219994515,216.75844220025465,Tasche,gepunktet,"['Tasche', 'gepunktet']",test_sub,2,"['Lampe', 'Tasse', 'Schlüssel', 'Kerze', 'Hammer', 'Rucksack', 'Stift', 'Löffel', 'Telefon', 'Fahrrad', 'Trommel', 'Buch', 'Schere', 'Bürste', 'Socke', 'Vase', 'Kiste', 'Geige', 'Würfel', 'Tasche', 'Ring', 'Flasche', 'Uhr', 'Brille', 'Hut', 'Blume', 'Kamera', 'Eimer', 'Jacke', 'Kette']","['schmutzig', 'flach', 'hohl', 'teuer', 'schlicht', 'glatt', 'rustikal', 'nass', 'gestreift', 'dunkel', 'kalt', 'sportlich', 'sauber', 'zart', 'praktisch', 'matt', 'robust', 'kaputt', 'glänzend', 'gepunktet']",3,2.0666220001876354,None,,,,,,,,,,,,,,,,,,,,,,,,,,,,,,,,,,,,,,,,,,,,,,,,,,,,,,,,,,,,,,,,,2,2024-01-09_12h44.18.247,watkins1,2023.2.3,99.73311391974083,78,2024-01-09 12h44.29.372484 +0000,
,,,,,,,20,0,20,0,,,,,,,,,,,,,,,,,216.76793770026416,,,,,,,,,,,,216.7589742001146,217.24980790028349,,,3,1.2770953997969627,,,,,,,,,,,,,,,,,,,,,217.2498190999031,223.25114870024845,Ring,strahlend,"['Ring', 'strahlend']",test_sub,2,"['Lampe', 'Tasse', 'Schlüssel', 'Kerze', 'Hammer', 'Rucksack', 'Stift', 'Löffel', 'Telefon', 'Fahrrad', 'Trommel', 'Buch', 'Schere', 'Bürste', 'Socke', 'Vase', 'Kiste', 'Geige', 'Würfel', 'Tasche', 'Ring', 'Flasche', 'Uhr', 'Brille', 'Hut', 'Blume', 'Kamera', 'Eimer', 'Jacke', 'Kette']","['schmutzig', 'flach', 'hohl', 'teuer', 'schlicht', 'glatt', 'rustikal', 'nass', 'gestreift', 'dunkel', 'kalt', 'sportlich', 'sauber', 'zart', 'praktisch', 'matt', 'robust', 'kaputt', 'glänzend', 'gepunktet', 'strahlend']",3,1.2770953997969627,None,,,,,,,,,,,,,,,,,,,,,,,,,,,,,,,,,,,,,,,,,,,,,,,,,,,,,,,,,,,,,,,,,2,2024-01-09_12h44.18.247,watkins1,2023.2.3,99.73311391974083,78,2024-01-09 12h44.29.372484 +0000,
,,,,,,,21,0,21,0,,,,,,,,,,,,,,,,,223.26069690007716,,,,,,,,,,,,223.25172480009496,223.7428970001638,,,3,3.0561617999337614,,,,,,,,,,,,,,,,,,,,,223.74290760001168,229.75114970002323,Flasche,dick,"['Flasche', 'dick']",restudy,2,"['Lampe', 'Tasse', 'Schlüssel', 'Kerze', 'Hammer', 'Rucksack', 'Stift', 'Löffel', 'Telefon', 'Fahrrad', 'Trommel', 'Buch', 'Schere', 'Bürste', 'Socke', 'Vase', 'Kiste', 'Geige', 'Würfel', 'Tasche', 'Ring', 'Flasche', 'Uhr', 'Brille', 'Hut', 'Blume', 'Kamera', 'Eimer', 'Jacke', 'Kette']","['schmutzig', 'flach', 'hohl', 'teuer', 'schlicht', 'glatt', 'rustikal', 'nass', 'gestreift', 'dunkel', 'kalt', 'sportlich', 'sauber', 'zart', 'praktisch', 'matt', 'robust', 'kaputt', 'glänzend', 'gepunktet', 'strahlend', 'dick']",3,3.0561617999337614,None,,,,,,,,,,,,,,,,,,,,,,,,,,,,,,,,,,,,,,,,,,,,,,,,,,,,,,,,,,,,,,,,,2,2024-01-09_12h44.18.247,watkins1,2023.2.3,99.73311391974083,78,2024-01-09 12h44.29.372484 +0000,
,,,,,,,22,0,22,0,,,,,,,,,,,,,,,,,229.7606011000462,,,,,,,,,,,,229.75167990010232,230.24250950012356,,,2,2.8597381999716163,,,,,,,,,,,,,,,,,,,,,230.2425195001997,236.24327320000157,Uhr,breit,"['Uhr', 'breit']",test_sub,2,"['Lampe', 'Tasse', 'Schlüssel', 'Kerze', 'Hammer', 'Rucksack', 'Stift', 'Löffel', 'Telefon', 'Fahrrad', 'Trommel', 'Buch', 'Schere', 'Bürste', 'Socke', 'Vase', 'Kiste', 'Geige', 'Würfel', 'Tasche', 'Ring', 'Flasche', 'Uhr', 'Brille', 'Hut', 'Blume', 'Kamera', 'Eimer', 'Jacke', 'Kette']","['schmutzig', 'flach', 'hohl', 'teuer', 'schlicht', 'glatt', 'rustikal', 'nass', 'gestreift', 'dunkel', 'kalt', 'sportlich', 'sauber', 'zart', 'praktisch', 'matt', 'robust', 'kaputt', 'glänzend', 'gepunktet', 'strahlend', 'dick', 'breit']",2,2.8597381999716163,None,,,,,,,,,,,,,,,,,,,,,,,,,,,,,,,,,,,,,,,,,,,,,,,,,,,,,,,,,,,,,,,,,2,2024-01-09_12h44.18.247,watkins1,2023.2.3,99.73311391974083,78,2024-01-09 12h44.29.372484 +0000,
,,,,,,,23,0,23,0,,,,,,,,,,,,,,,,,236.25275740027428,,,,,,,,,,,,236.2437932002358,236.73472539987415,,,3,1.3283874997869134,,,,,,,,,,,,,,,,,,,,,236.73473640019074,242.7428875998594,Brille,niedlich,"['Brille', 'niedlich']",restudy,2,"['Lampe', 'Tasse', 'Schlüssel', 'Kerze', 'Hammer', 'Rucksack', 'Stift', 'Löffel', 'Telefon', 'Fahrrad', 'Trommel', 'Buch', 'Schere', 'Bürste', 'Socke', 'Vase', 'Kiste', 'Geige', 'Würfel', 'Tasche', 'Ring', 'Flasche', 'Uhr', 'Brille', 'Hut', 'Blume', 'Kamera', 'Eimer', 'Jacke', 'Kette']","['schmutzig', 'flach', 'hohl', 'teuer', 'schlicht', 'glatt', 'rustikal', 'nass', 'gestreift', 'dunkel', 'kalt', 'sportlich', 'sauber', 'zart', 'praktisch', 'matt', 'robust', 'kaputt', 'glänzend', 'gepunktet', 'strahlend', 'dick', 'breit', 'niedlich']",3,1.3283874997869134,None,,,,,,,,,,,,,,,,,,,,,,,,,,,,,,,,,,,,,,,,,,,,,,,,,,,,,,,,,,,,,,,,,2,2024-01-09_12h44.18.247,watkins1,2023.2.3,99.73311391974083,78,2024-01-09 12h44.29.372484 +0000,
,,,,,,,24,0,24,0,,,,,,,,,,,,,,,,,242.75238760001957,,,,,,,,,,,,242.74342390010133,243.2344172000885,,,1,3.140213499777019,,,,,,,,,,,,,,,,,,,,,243.23442800017074,249.2401907001622,Hut,winzig,"['Hut', 'winzig']",test_sub,2,"['Lampe', 'Tasse', 'Schlüssel', 'Kerze', 'Hammer', 'Rucksack', 'Stift', 'Löffel', 'Telefon', 'Fahrrad', 'Trommel', 'Buch', 'Schere', 'Bürste', 'Socke', 'Vase', 'Kiste', 'Geige', 'Würfel', 'Tasche', 'Ring', 'Flasche', 'Uhr', 'Brille', 'Hut', 'Blume', 'Kamera', 'Eimer', 'Jacke', 'Kette']","['schmutzig', 'flach', 'hohl', 'teuer', 'schlicht', 'glatt', 'rustikal', 'nass', 'gestreift', 'dunkel', 'kalt', 'sportlich', 'sauber', 'zart', 'praktisch', 'matt', 'robust', 'kaputt', 'glänzend', 'gepunktet', 'strahlend', 'dick', 'breit', 'niedlich', 'winzig']",1,3.140213499777019,None,,,,,,,,,,,,,,,,,,,,,,,,,,,,,,,,,,,,,,,,,,,,,,,,,,,,,,,,,,,,,,,,,2,2024-01-09_12h44.18.247,watkins1,2023.2.3,99.73311391974083,78,2024-01-09 12h44.29.372484 +0000,
,,,,,,,25,0,25,0,,,,,,,,,,,,,,,,,249.2497137002647,,,,,,,,,,,,249.2407134999521,249.73167440015823,,,1,1.779574299696833,,,,,,,,,,,,,,,,,,,,,249.73168590012938,255.73397509986535,Blume,klobig,"['Blume', 'klobig']",test_sub,2,"['Lampe', 'Tasse', 'Schlüssel', 'Kerze', 'Hammer', 'Rucksack', 'Stift', 'Löffel', 'Telefon', 'Fahrrad', 'Trommel', 'Buch', 'Schere', 'Bürste', 'Socke', 'Vase', 'Kiste', 'Geige', 'Würfel', 'Tasche', 'Ring', 'Flasche', 'Uhr', 'Brille', 'Hut', 'Blume', 'Kamera', 'Eimer', 'Jacke', 'Kette']","['schmutzig', 'flach', 'hohl', 'teuer', 'schlicht', 'glatt', 'rustikal', 'nass', 'gestreift', 'dunkel', 'kalt', 'sportlich', 'sauber', 'zart', 'praktisch', 'matt', 'robust', 'kaputt', 'glänzend', 'gepunktet', 'strahlend', 'dick', 'breit', 'niedlich', 'winzig', 'klobig']",1,1.779574299696833,None,,,,,,,,,,,,,,,,,,,,,,,,,,,,,,,,,,,,,,,,,,,,,,,,,,,,,,,,,,,,,,,,,2,2024-01-09_12h44.18.247,watkins1,2023.2.3,99.73311391974083,78,2024-01-09 12h44.29.372484 +0000,
,,,,,,,26,0,26,0,,,,,,,,,,,,,,,,,255.74338070023805,,,,,,,,,,,,255.73450550017878,256.2254687999375,,,3,2.2516949996352196,,,,,,,,,,,,,,,,,,,,,256.2254814999178,262.2335799001157,Kamera,verspielt,"['Kamera', 'verspielt']",test_sub,2,"['Lampe', 'Tasse', 'Schlüssel', 'Kerze', 'Hammer', 'Rucksack', 'Stift', 'Löffel', 'Telefon', 'Fahrrad', 'Trommel', 'Buch', 'Schere', 'Bürste', 'Socke', 'Vase', 'Kiste', 'Geige', 'Würfel', 'Tasche', 'Ring', 'Flasche', 'Uhr', 'Brille', 'Hut', 'Blume', 'Kamera', 'Eimer', 'Jacke', 'Kette']","['schmutzig', 'flach', 'hohl', 'teuer', 'schlicht', 'glatt', 'rustikal', 'nass', 'gestreift', 'dunkel', 'kalt', 'sportlich', 'sauber', 'zart', 'praktisch', 'matt', 'robust', 'kaputt', 'glänzend', 'gepunktet', 'strahlend', 'dick', 'breit', 'niedlich', 'winzig', 'klobig', 'verspielt']",3,2.2516949996352196,None,,,,,,,,,,,,,,,,,,,,,,,,,,,,,,,,,,,,,,,,,,,,,,,,,,,,,,,,,,,,,,,,,2,2024-01-09_12h44.18.247,watkins1,2023.2.3,99.73311391974083,78,2024-01-09 12h44.29.372484 +0000,
,,,,,,,27,0,27,0,,,,,,,,,,,,,,,,,262.243061600253,,,,,,,,,,,,262.23410760005936,262.72491999994963,,,1,1.8461396000348032,,,,,,,,,,,,,,,,,,,,,262.7249314999208,268.7333022998646,Eimer,elegant,"['Eimer', 'elegant']",test_sub,2,"['Lampe', 'Tasse', 'Schlüssel', 'Kerze', 'Hammer', 'Rucksack', 'Stift', 'Löffel', 'Telefon', 'Fahrrad', 'Trommel', 'Buch', 'Schere', 'Bürste', 'Socke', 'Vase', 'Kiste', 'Geige', 'Würfel', 'Tasche', 'Ring', 'Flasche', 'Uhr', 'Brille', 'Hut', 'Blume', 'Kamera', 'Eimer', 'Jacke', 'Kette']","['schmutzig', 'flach', 'hohl', 'teuer', 'schlicht', 'glatt', 'rustikal', 'nass', 'gestreift', 'dunkel', 'kalt', 'sportlich', 'sauber', 'zart', 'praktisch', 'matt', 'robust', 'kaputt', 'glänzend', 'gepunktet', 'strahlend', 'dick', 'breit', 'niedlich', 'winzig', 'klobig', 'verspielt', 'elegant']",1,1.8461396000348032,None,,,,,,,,,,,,,,,,,,,,,,,,,,,,,,,,,,,,,,,,,,,,,,,,,,,,,,,,,,,,,,,,,2,2024-01-09_12h44.18.247,watkins1,2023.2.3,99.73311391974083,78,2024-01-09 12h44.29.372484 +0000,
,,,,,,,28,0,28,0,,,,,,,,,,,,,,,,,268.74279869999737,,,,,,,,,,,,268.7338284002617,269.22490260005,,,1,1.5411280002444983,,,,,,,,,,,,,,,,,,,,,269.22491390025243,275.23094760021195,Jacke,durchsichtig,"['Jacke', 'durchsichtig']",restudy,2,"['Lampe', 'Tasse', 'Schlüssel', 'Kerze', 'Hammer', 'Rucksack', 'Stift', 'Löffel', 'Telefon', 'Fahrrad', 'Trommel', 'Buch', 'Schere', 'Bürste', 'Socke', 'Vase', 'Kiste', 'Geige', 'Würfel', 'Tasche', 'Ring', 'Flasche', 'Uhr', 'Brille', 'Hut', 'Blume', 'Kamera', 'Eimer', 'Jacke', 'Kette']","['schmutzig', 'flach', 'hohl', 'teuer', 'schlicht', 'glatt', 'rustikal', 'nass', 'gestreift', 'dunkel', 'kalt', 'sportlich', 'sauber', 'zart', 'praktisch', 'matt', 'robust', 'kaputt', 'glänzend', 'gepunktet', 'strahlend', 'dick', 'breit', 'niedlich', 'winzig', 'klobig', 'verspielt', 'elegant', 'durchsichtig']",1,1.5411280002444983,None,,,,,,,,,,,,,,,,,,,,,,,,,,,,,,,,,,,,,,,,,,,,,,,,,,,,,,,,,,,,,,,,,2,2024-01-09_12h44.18.247,watkins1,2023.2.3,99.73311391974083,78,2024-01-09 12h44.29.372484 +0000,
,,,,,,,29,0,29,0,,,,,,,,,,,,,,,,,275.2403790000826,,,,,,,,,,,,275.2314742002636,275.7223927001469,,,1,3.0684712999500334,,,,,,,,,,,,,,,,,,,,,275.722403800115,281.731170500163,Kette,hässlich,"['Kette', 'hässlich']",restudy,2,"['Lampe', 'Tasse', 'Schlüssel', 'Kerze', 'Hammer', 'Rucksack', 'Stift', 'Löffel', 'Telefon', 'Fahrrad', 'Trommel', 'Buch', 'Schere', 'Bürste', 'Socke', 'Vase', 'Kiste', 'Geige', 'Würfel', 'Tasche', 'Ring', 'Flasche', 'Uhr', 'Brille', 'Hut', 'Blume', 'Kamera', 'Eimer', 'Jacke', 'Kette']","['schmutzig', 'flach', 'hohl', 'teuer', 'schlicht', 'glatt', 'rustikal', 'nass', 'gestreift', 'dunkel', 'kalt', 'sportlich', 'sauber', 'zart', 'praktisch', 'matt', 'robust', 'kaputt', 'glänzend', 'gepunktet', 'strahlend', 'dick', 'breit', 'niedlich', 'winzig', 'klobig', 'verspielt', 'elegant', 'durchsichtig', 'hässlich']",1,3.0684712999500334,None,,,,,,,,,,,,,,,,,,,,,,,,,,,,,,,,,,,,,,,,,,,,,,,,,,,,,,,,,,,,,,,,,2,2024-01-09_12h44.18.247,watkins1,2023.2.3,99.73311391974083,78,2024-01-09 12h44.29.372484 +0000,
,,,,,,,,,,,0,0,0,0,,,,,,,,,,,,,281.74064330011606,,,,,,,,,,,,281.7320203999989,282.22268299991265,,,[],[],,,,,,,,,,,,None,None,,,,,,,,,,Tasse,flach,"['Tasse', 'flach']",test_sub,2,,,,,,281.7319451002404,281.7319928002544,"['Tasse', 'Kamera', 'Vase', 'Würfel', 'Buch', 'Rucksack', 'Hut', 'Fahrrad', 'Bürste', 'Schlüssel', 'Blume', 'Trommel', 'Geige', 'Stift', 'Lampe', 'Socke', 'Brille', 'Löffel', 'Telefon', 'Eimer', 'Flasche', 'Ring', 'Kette', 'Schere', 'Uhr', 'Kiste', 'Hammer', 'Jacke', 'Tasche', 'Kerze']",282.22269400022924,282.2254142998718,None,282.2255962998606,282.2282382999547,None,282.2284005000256,282.2309437999502,None,282.23110260022804,282.2322515002452,282.2322642002255,0,288.2380837998353,,,,,,,,,,,,,,,,,,,,,,,,,,,,,,,,,,,,,,,,,,,,,,,,2,2024-01-09_12h44.18.247,watkins1,2023.2.3,99.73311391974083,78,2024-01-09 12h44.29.372484 +0000,
,,,,,,,,,,,1,0,1,0,,,,,,,,,,,,,288.24791820021346,,,,,,,,,,,,288.23836430022493,288.7298620999791,,,[],[],,,,,,,,,,,,1.1852277000434697,None,,,,,kamera,,,,,Kamera,verspielt,"['Kamera', 'verspielt']",test_sub,2,,,,,,288.2382988999598,288.23833520011976,"['Tasse', 'Kamera', 'Vase', 'Würfel', 'Buch', 'Rucksack', 'Hut', 'Fahrrad', 'Bürste', 'Schlüssel', 'Blume', 'Trommel', 'Geige', 'Stift', 'Lampe', 'Socke', 'Brille', 'Löffel', 'Telefon', 'Eimer', 'Flasche', 'Ring', 'Kette', 'Schere', 'Uhr', 'Kiste', 'Hammer', 'Jacke', 'Tasche', 'Kerze']",288.7298729000613,288.7325753001496,None,288.73269940027967,288.7352193999104,None,288.73532940028235,288.7378406999633,None,288.7379485000856,288.73912040004507,288.73913310002536,0,294.74425340024754,,,,,,,,,,,,,,,,,,,,,,,,,,,,,,,,,,,,,,,,,,,,,,,,2,2024-01-09_12h44.18.247,watkins1,2023.2.3,99.73311391974083,78,2024-01-09 12h44.29.372484 +0000,
,,,,,,,,,,,2,0,2,0,,,,,,,,,,,,,294.75410949997604,,,,,,,,,,,,294.7445371001959,295.2361061000265,,,[],[],,,,,,,,,,,,None,None,,,,,,,,,,Vase,matt,"['Vase', 'matt']",restudy,2,,,,,,294.74447070015594,294.74450850021094,"['Tasse', 'Kamera', 'Vase', 'Würfel', 'Buch', 'Rucksack', 'Hut', 'Fahrrad', 'Bürste', 'Schlüssel', 'Blume', 'Trommel', 'Geige', 'Stift', 'Lampe', 'Socke', 'Brille', 'Löffel', 'Telefon', 'Eimer', 'Flasche', 'Ring', 'Kette', 'Schere', 'Uhr', 'Kiste', 'Hammer', 'Jacke', 'Tasche', 'Kerze']",295.23611700022593,295.2387716998346,None,295.238895600196,301.239881800022,2,301.2402678001672,301.2426529000513,None,301.24276620009914,301.2438000999391,301.24381170002744,,301.2451467998326,3.016339899972081,None,,,,,,,,,,,,,,,,,,,,,,,,,,,,,,,,,,,,,,,,,,,,,,2,2024-01-09_12h44.18.247,watkins1,2023.2.3,99.73311391974083,78,2024-01-09 12h44.29.372484 +0000,
,,,,,,,,,,,3,0,3,0,,,,,,,,,,,,,301.2493499000557,,,,,,,,,,,,301.2454269998707,301.74124490004033,,,[],[],,,,,,,,,,,,None,None,,,,,,,,,,Würfel,glänzend,"['Würfel', 'glänzend']",restudy,2,,,,,,301.2453617998399,301.2453999002464,"['Tasse', 'Kamera', 'Vase', 'Würfel', 'Buch', 'Rucksack', 'Hut', 'Fahrrad', 'Bürste', 'Schlüssel', 'Blume', 'Trommel', 'Geige', 'Stift', 'Lampe', 'Socke', 'Brille', 'Löffel', 'Telefon', 'Eimer', 'Flasche', 'Ring', 'Kette', 'Schere', 'Uhr', 'Kiste', 'Hammer', 'Jacke', 'Tasche', 'Kerze']",301.7412570002489,301.74390770029277,None,301.74404070014134,307.75442000012845,1,307.75471720006317,307.75738439988345,None,307.7574951001443,307.7586790001951,307.7586909001693,,307.75995470024645,2.551354699768126,None,,,,,,,,,,,,,,,,,,,,,,,,,,,,,,,,,,,,,,,,,,,,,,2,2024-01-09_12h44.18.247,watkins1,2023.2.3,99.73311391974083,78,2024-01-09 12h44.29.372484 +0000,
,,,,,,,,,,,4,0,4,0,,,,,,,,,,,,,307.76386590022594,,,,,,,,,,,,307.7602325002663,308.255845699925,,,[],[],,,,,,,,,,,,None,None,,,,,,,,,,Buch,sportlich,"['Buch', 'sportlich']",restudy,2,,,,,,307.7601680001244,307.76020620018244,"['Tasse', 'Kamera', 'Vase', 'Würfel', 'Buch', 'Rucksack', 'Hut', 'Fahrrad', 'Bürste', 'Schlüssel', 'Blume', 'Trommel', 'Geige', 'Stift', 'Lampe', 'Socke', 'Brille', 'Löffel', 'Telefon', 'Eimer', 'Flasche', 'Ring', 'Kette', 'Schere', 'Uhr', 'Kiste', 'Hammer', 'Jacke', 'Tasche', 'Kerze']",308.2558573000133,308.2584775001742,None,308.25860380008817,314.26519910013303,1,314.2654952001758,314.2683371002786,None,314.26845150021836,314.269499800168,314.2695117001422,,314.2707632002421,2.540673099923879,None,,,,,,,,,,,,,,,,,,,,,,,,,,,,,,,,,,,,,,,,,,,,,,2,2024-01-09_12h44.18.247,watkins1,2023.2.3,99.73311391974083,78,2024-01-09 12h44.29.372484 +0000,
,,,,,,,,,,,5,0,5,0,,,,,,,,,,,,,314.2746296999976,,,,,,,,,,,,314.2710478999652,314.76682330016047,,,[],[],,,,,,,,,,,,None,None,,,,,,,,,,Rucksack,glatt,"['Rucksack', 'glatt']",restudy,2,,,,,,314.27098160004243,314.2710203002207,"['Tasse', 'Kamera', 'Vase', 'Würfel', 'Buch', 'Rucksack', 'Hut', 'Fahrrad', 'Bürste', 'Schlüssel', 'Blume', 'Trommel', 'Geige', 'Stift', 'Lampe', 'Socke', 'Brille', 'Löffel', 'Telefon', 'Eimer', 'Flasche', 'Ring', 'Kette', 'Schere', 'Uhr', 'Kiste', 'Hammer', 'Jacke', 'Tasche', 'Kerze']",314.7668343000114,314.7695774999447,None,314.7696990999393,320.77548489999026,1,320.7757826000452,320.77859000023454,None,320.77870139991865,320.77990709990263,320.77991869999096,,320.7810780000873,3.917607800103724,None,,,,,,,,,,,,,,,,,,,,,,,,,,,,,,,,,,,,,,,,,,,,,,2,2024-01-09_12h44.18.247,watkins1,2023.2.3,99.73311391974083,78,2024-01-09 12h44.29.372484 +0000,
,,,,,,,,,,,6,0,6,0,,,,,,,,,,,,,320.7849495001137,,,,,,,,,,,,320.7813577000052,321.27692109998316,,,[],[],,,,,,,,,,,,1.794586000032723,None,,,,,hut,,,,,Hut,winzig,"['Hut', 'winzig']",test_sub,2,,,,,,320.7812928999774,320.7813308001496,"['Tasse', 'Kamera', 'Vase', 'Würfel', 'Buch', 'Rucksack', 'Hut', 'Fahrrad', 'Bürste', 'Schlüssel', 'Blume', 'Trommel', 'Geige', 'Stift', 'Lampe', 'Socke', 'Brille', 'Löffel', 'Telefon', 'Eimer', 'Flasche', 'Ring', 'Kette', 'Schere', 'Uhr', 'Kiste', 'Hammer', 'Jacke', 'Tasche', 'Kerze']",321.2769327000715,321.27944369986653,None,321.279571400024,321.28083750000224,None,321.28094480000436,321.28220540005714,None,321.2823139000684,321.2833393998444,321.2833524001762,0,327.2850497001782,,,,,,,,,,,,,,,,,,,,,,,,,,,,,,,,,,,,,,,,,,,,,,,,2,2024-01-09_12h44.18.247,watkins1,2023.2.3,99.73311391974083,78,2024-01-09 12h44.29.372484 +0000,
,,,,,,,,,,,7,0,7,0,,,,,,,,,,,,,327.29479580000043,,,,,,,,,,,,327.2853343002498,327.77677439991385,,,[],[],,,,,,,,,,,,3.0440755002200603,None,,,,,fahrrad,,,,,Fahrrad,dunkel,"['Fahrrad', 'dunkel']",test_sub,2,,,,,,327.2852679998614,327.2853053002618,"['Tasse', 'Kamera', 'Vase', 'Würfel', 'Buch', 'Rucksack', 'Hut', 'Fahrrad', 'Bürste', 'Schlüssel', 'Blume', 'Trommel', 'Geige', 'Stift', 'Lampe', 'Socke', 'Brille', 'Löffel', 'Telefon', 'Eimer', 'Flasche', 'Ring', 'Kette', 'Schere', 'Uhr', 'Kiste', 'Hammer', 'Jacke', 'Tasche', 'Kerze']",327.77678559999913,327.77982999989763,None,327.77996319998056,327.78270270023495,None,327.782823599875,327.78543510008603,None,327.78554450022057,327.78684870013967,327.78686170000583,0,333.7930558999069,,,,,,,,,,,,,,,,,,,,,,,,,,,,,,,,,,,,,,,,,,,,,,,,2,2024-01-09_12h44.18.247,watkins1,2023.2.3,99.73311391974083,78,2024-01-09 12h44.29.372484 +0000,
,,,,,,,,,,,8,0,8,0,,,,,,,,,,,,,333.8028358002193,,,,,,,,,,,,333.79333719983697,334.2849143999629,,,[],[],,,,,,,,,,,,None,None,,,,,,,,,,Bürste,zart,"['Bürste', 'zart']",test_sub,2,,,,,,333.7932708999142,333.79330890020356,"['Tasse', 'Kamera', 'Vase', 'Würfel', 'Buch', 'Rucksack', 'Hut', 'Fahrrad', 'Bürste', 'Schlüssel', 'Blume', 'Trommel', 'Geige', 'Stift', 'Lampe', 'Socke', 'Brille', 'Löffel', 'Telefon', 'Eimer', 'Flasche', 'Ring', 'Kette', 'Schere', 'Uhr', 'Kiste', 'Hammer', 'Jacke', 'Tasche', 'Kerze']",334.2849253001623,334.2876484999433,None,334.2877768999897,334.290336899925,None,334.2904459000565,334.2929889000952,None,334.29309750022367,334.29428920010105,334.2943020001985,0,340.2998895002529,,,,,,,,,,,,,,,,,,,,,,,,,,,,,,,,,,,,,,,,,,,,,,,,2,2024-01-09_12h44.18.247,watkins1,2023.2.3,99.73311391974083,78,2024-01-09 12h44.29.372484 +0000,
,,,,,,,,,,,9,0,9,0,,,,,,,,,,,,,340.3097234000452,,,,,,,,,,,,340.3001736998558,340.7915945001878,,,[],[],,,,,,,,,,,,None,None,,,,,,,,,,Schlüssel,hohl,"['Schlüssel', 'hohl']",restudy,2,,,,,,340.30010659992695,340.30014490010217,"['Tasse', 'Kamera', 'Vase', 'Würfel', 'Buch', 'Rucksack', 'Hut', 'Fahrrad', 'Bürste', 'Schlüssel', 'Blume', 'Trommel', 'Geige', 'Stift', 'Lampe', 'Socke', 'Brille', 'Löffel', 'Telefon', 'Eimer', 'Flasche', 'Ring', 'Kette', 'Schere', 'Uhr', 'Kiste', 'Hammer', 'Jacke', 'Tasche', 'Kerze']",340.7916056001559,340.79426839994267,None,340.79439300019294,346.79532880010083,1,346.7956280000508,346.798318200279,None,346.79843309987336,346.7996932999231,346.7997051002458,,346.8007566998713,3.293156700208783,None,,,,,,,,,,,,,,,,,,,,,,,,,,,,,,,,,,,,,,,,,,,,,,2,2024-01-09_12h44.18.247,watkins1,2023.2.3,99.73311391974083,78,2024-01-09 12h44.29.372484 +0000,
,,,,,,,,,,,10,0,10,0,,,,,,,,,,,,,346.8048610002734,,,,,,,,,,,,346.8010416999459,347.2971820002422,,,[],[],,,,,,,,,,,,2.046774100046605,None,,,,,blume,,,,,Blume,klobig,"['Blume', 'klobig']",test_sub,2,,,,,,346.80097550014034,346.80101419985294,"['Tasse', 'Kamera', 'Vase', 'Würfel', 'Buch', 'Rucksack', 'Hut', 'Fahrrad', 'Bürste', 'Schlüssel', 'Blume', 'Trommel', 'Geige', 'Stift', 'Lampe', 'Socke', 'Brille', 'Löffel', 'Telefon', 'Eimer', 'Flasche', 'Ring', 'Kette', 'Schere', 'Uhr', 'Kiste', 'Hammer', 'Jacke', 'Tasche', 'Kerze']",347.29719359986484,347.299760799855,None,347.2998873000033,347.30130839999765,None,347.3014231999405,347.3028309000656,None,347.3029404999688,347.3041038000956,347.3041166998446,0,353.30693140020594,,,,,,,,,,,,,,,,,,,,,,,,,,,,,,,,,,,,,,,,,,,,,,,,2,2024-01-09_12h44.18.247,watkins1,2023.2.3,99.73311391974083,78,2024-01-09 12h44.29.372484 +0000,
,,,,,,,,,,,11,0,11,0,,,,,,,,,,,,,353.31672960007563,,,,,,,,,,,,353.30721260001883,353.7987012001686,,,[],[],,,,,,,,,,,,None,None,,,,,,,,,,Trommel,kalt,"['Trommel', 'kalt']",restudy,2,,,,,,353.3071468002163,353.30718360003084,"['Tasse', 'Kamera', 'Vase', 'Würfel', 'Buch', 'Rucksack', 'Hut', 'Fahrrad', 'Bürste', 'Schlüssel', 'Blume', 'Trommel', 'Geige', 'Stift', 'Lampe', 'Socke', 'Brille', 'Löffel', 'Telefon', 'Eimer', 'Flasche', 'Ring', 'Kette', 'Schere', 'Uhr', 'Kiste', 'Hammer', 'Jacke', 'Tasche', 'Kerze']",353.79871160024777,353.8014473998919,None,353.80156789999455,359.8042211001739,1,359.8045177999884,359.80716110020876,None,359.80727520026267,359.8084835000336,359.808495500125,,359.80985199986026,3.909928699955344,None,,,,,,,,,,,,,,,,,,,,,,,,,,,,,,,,,,,,,,,,,,,,,,2,2024-01-09_12h44.18.247,watkins1,2023.2.3,99.73311391974083,78,2024-01-09 12h44.29.372484 +0000,
,,,,,,,,,,,12,0,12,0,,,,,,,,,,,,,359.8137328000739,,,,,,,,,,,,359.81013979995623,360.3057519001886,,,[],[],,,,,,,,,,,,None,None,,,,,,,,,,Geige,kaputt,"['Geige', 'kaputt']",test_sub,2,,,,,,359.8100731000304,359.81011220021173,"['Tasse', 'Kamera', 'Vase', 'Würfel', 'Buch', 'Rucksack', 'Hut', 'Fahrrad', 'Bürste', 'Schlüssel', 'Blume', 'Trommel', 'Geige', 'Stift', 'Lampe', 'Socke', 'Brille', 'Löffel', 'Telefon', 'Eimer', 'Flasche', 'Ring', 'Kette', 'Schere', 'Uhr', 'Kiste', 'Hammer', 'Jacke', 'Tasche', 'Kerze']",360.30576359992847,360.3083700002171,None,360.3084948002361,360.31013080012053,None,360.3102406002581,360.3116612001322,None,360.31176980026066,360.3129187999293,360.3129330002703,0,366.3155986000784,,,,,,,,,,,,,,,,,,,,,,,,,,,,,,,,,,,,,,,,,,,,,,,,2,2024-01-09_12h44.18.247,watkins1,2023.2.3,99.73311391974083,78,2024-01-09 12h44.29.372484 +0000,
,,,,,,,,,,,13,0,13,0,,,,,,,,,,,,,366.32546420022845,,,,,,,,,,,,366.3158809999004,366.807461600285,,,[],[],,,,,,,,,,,,None,None,,,,,,,,,,Stift,rustikal,"['Stift', 'rustikal']",restudy,2,,,,,,366.3158148000948,366.3158519002609,"['Tasse', 'Kamera', 'Vase', 'Würfel', 'Buch', 'Rucksack', 'Hut', 'Fahrrad', 'Bürste', 'Schlüssel', 'Blume', 'Trommel', 'Geige', 'Stift', 'Lampe', 'Socke', 'Brille', 'Löffel', 'Telefon', 'Eimer', 'Flasche', 'Ring', 'Kette', 'Schere', 'Uhr', 'Kiste', 'Hammer', 'Jacke', 'Tasche', 'Kerze']",366.80747270025313,366.8101524999365,None,366.81027759984136,372.81374570028856,3,372.81404389999807,372.81678079999983,None,372.8168938001618,372.8180976002477,372.81811060011387,,372.8193930000998,1.6770532997325063,None,,,,,,,,,,,,,,,,,,,,,,,,,,,,,,,,,,,,,,,,,,,,,,2,2024-01-09_12h44.18.247,watkins1,2023.2.3,99.73311391974083,78,2024-01-09 12h44.29.372484 +0000,
,,,,,,,,,,,14,0,14,0,,,,,,,,,,,,,372.82324230019003,,,,,,,,,,,,372.8196947001852,373.31520379986614,,,[],[],,,,,,,,,,,,None,None,,,,,,,,,,Lampe,schmutzig,"['Lampe', 'schmutzig']",restudy,2,,,,,,372.8196237999946,372.8196658999659,"['Tasse', 'Kamera', 'Vase', 'Würfel', 'Buch', 'Rucksack', 'Hut', 'Fahrrad', 'Bürste', 'Schlüssel', 'Blume', 'Trommel', 'Geige', 'Stift', 'Lampe', 'Socke', 'Brille', 'Löffel', 'Telefon', 'Eimer', 'Flasche', 'Ring', 'Kette', 'Schere', 'Uhr', 'Kiste', 'Hammer', 'Jacke', 'Tasche', 'Kerze']",373.31521569984034,373.31797809991986,None,373.3181038000621,379.31900480017066,1,379.319300299976,379.32206240016967,None,379.32217539986596,379.3233503000811,379.32336230017245,,379.3246438000351,2.0570604000240564,None,,,,,,,,,,,,,,,,,,,,,,,,,,,,,,,,,,,,,,,,,,,,,,2,2024-01-09_12h44.18.247,watkins1,2023.2.3,99.73311391974083,78,2024-01-09 12h44.29.372484 +0000,
,,,,,,,,,,,15,0,15,0,,,,,,,,,,,,,379.3285059002228,,,,,,,,,,,,379.32493059989065,379.82065310003236,,,[],[],,,,,,,,,,,,None,None,,,,,,,,,,Socke,praktisch,"['Socke', 'praktisch']",test_sub,2,,,,,,379.32486240006983,379.3249027999118,"['Tasse', 'Kamera', 'Vase', 'Würfel', 'Buch', 'Rucksack', 'Hut', 'Fahrrad', 'Bürste', 'Schlüssel', 'Blume', 'Trommel', 'Geige', 'Stift', 'Lampe', 'Socke', 'Brille', 'Löffel', 'Telefon', 'Eimer', 'Flasche', 'Ring', 'Kette', 'Schere', 'Uhr', 'Kiste', 'Hammer', 'Jacke', 'Tasche', 'Kerze']",379.8206652998924,379.8234279002063,None,379.8235539002344,379.82513870019466,None,379.8252524002455,379.8266741000116,None,379.82678409991786,379.827938800212,379.827951699961,0,385.8311379002407,,,,,,,,,,,,,,,,,,,,,,,,,,,,,,,,,,,,,,,,,,,,,,,,2,2024-01-09_12h44.18.247,watkins1,2023.2.3,99.73311391974083,78,2024-01-09 12h44.29.372484 +0000,
,,,,,,,,,,,16,0,16,0,,,,,,,,,,,,,385.8409311999567,,,,,,,,,,,,385.831422700081,386.3228978998959,,,[],[],,,,,,,,,,,,None,None,,,,,,,,,,Brille,niedlich,"['Brille', 'niedlich']",restudy,2,,,,,,385.83135720016435,385.8313938998617,"['Tasse', 'Kamera', 'Vase', 'Würfel', 'Buch', 'Rucksack', 'Hut', 'Fahrrad', 'Bürste', 'Schlüssel', 'Blume', 'Trommel', 'Geige', 'Stift', 'Lampe', 'Socke', 'Brille', 'Löffel', 'Telefon', 'Eimer', 'Flasche', 'Ring', 'Kette', 'Schere', 'Uhr', 'Kiste', 'Hammer', 'Jacke', 'Tasche', 'Kerze']",386.3229097002186,386.3257011999376,None,386.32582850009203,392.32668850012124,3,392.3269867999479,392.32984489994124,None,392.3299587001093,392.33115020021796,392.331162000075,,392.33237829990685,1.4734212001785636,None,,,,,,,,,,,,,,,,,,,,,,,,,,,,,,,,,,,,,,,,,,,,,,2,2024-01-09_12h44.18.247,watkins1,2023.2.3,99.73311391974083,78,2024-01-09 12h44.29.372484 +0000,
,,,,,,,,,,,17,0,17,0,,,,,,,,,,,,,392.3360915998928,,,,,,,,,,,,392.33266599988565,392.8281462001614,,,[],[],,,,,,,,,,,,None,None,,,,,,,,,,Löffel,nass,"['Löffel', 'nass']",restudy,2,,,,,,392.3325979998335,392.3326379000209,"['Tasse', 'Kamera', 'Vase', 'Würfel', 'Buch', 'Rucksack', 'Hut', 'Fahrrad', 'Bürste', 'Schlüssel', 'Blume', 'Trommel', 'Geige', 'Stift', 'Lampe', 'Socke', 'Brille', 'Löffel', 'Telefon', 'Eimer', 'Flasche', 'Ring', 'Kette', 'Schere', 'Uhr', 'Kiste', 'Hammer', 'Jacke', 'Tasche', 'Kerze']",392.82815720001236,392.830912000034,None,392.831037200056,398.835524499882,2,398.83582379994914,398.8384807999246,None,398.8385942000896,398.8397809001617,398.8397928001359,,398.84083430003375,1.536343100015074,None,,,,,,,,,,,,,,,,,,,,,,,,,,,,,,,,,,,,,,,,,,,,,,2,2024-01-09_12h44.18.247,watkins1,2023.2.3,99.73311391974083,78,2024-01-09 12h44.29.372484 +0000,
,,,,,,,,,,,18,0,18,0,,,,,,,,,,,,,398.84498859988526,,,,,,,,,,,,398.8411173000932,399.336884399876,,,[],[],,,,,,,,,,,,1.6757582002319396,None,,,,,telefon,,,,,Telefon,gestreift,"['Telefon', 'gestreift']",test_sub,2,,,,,,398.84105079993606,398.841089699883,"['Tasse', 'Kamera', 'Vase', 'Würfel', 'Buch', 'Rucksack', 'Hut', 'Fahrrad', 'Bürste', 'Schlüssel', 'Blume', 'Trommel', 'Geige', 'Stift', 'Lampe', 'Socke', 'Brille', 'Löffel', 'Telefon', 'Eimer', 'Flasche', 'Ring', 'Kette', 'Schere', 'Uhr', 'Kiste', 'Hammer', 'Jacke', 'Tasche', 'Kerze']",399.3368962998502,399.33951249998063,None,399.33964030025527,399.3411193001084,None,399.3412319999188,399.3427015999332,None,399.34281169995666,399.3440155000426,399.34402830014005,0,405.34738090028986,,,,,,,,,,,,,,,,,,,,,,,,,,,,,,,,,,,,,,,,,,,,,,,,2,2024-01-09_12h44.18.247,watkins1,2023.2.3,99.73311391974083,78,2024-01-09 12h44.29.372484 +0000,
,,,,,,,,,,,19,0,19,0,,,,,,,,,,,,,405.3571617002599,,,,,,,,,,,,405.34766279999167,405.83925889991224,,,[],[],,,,,,,,,,,,None,None,,,,,,,,,,Eimer,elegant,"['Eimer', 'elegant']",test_sub,2,,,,,,405.34759629983455,405.3476335001178,"['Tasse', 'Kamera', 'Vase', 'Würfel', 'Buch', 'Rucksack', 'Hut', 'Fahrrad', 'Bürste', 'Schlüssel', 'Blume', 'Trommel', 'Geige', 'Stift', 'Lampe', 'Socke', 'Brille', 'Löffel', 'Telefon', 'Eimer', 'Flasche', 'Ring', 'Kette', 'Schere', 'Uhr', 'Kiste', 'Hammer', 'Jacke', 'Tasche', 'Kerze']",405.83926980011165,405.8420285000466,None,405.8421527999453,405.8447360000573,None,405.8448467999697,405.8474200000055,None,405.84752870025113,405.84867920028046,405.84869180014357,0,411.854454100132,,,,,,,,,,,,,,,,,,,,,,,,,,,,,,,,,,,,,,,,,,,,,,,,2,2024-01-09_12h44.18.247,watkins1,2023.2.3,99.73311391974083,78,2024-01-09 12h44.29.372484 +0000,
,,,,,,,,,,,20,0,20,0,,,,,,,,,,,,,411.864204000216,,,,,,,,,,,,411.854742300231,412.3464760999195,,,[],[],,,,,,,,,,,,None,None,,,,,,,,,,Flasche,dick,"['Flasche', 'dick']",restudy,2,,,,,,411.8546743001789,411.8547127000056,"['Tasse', 'Kamera', 'Vase', 'Würfel', 'Buch', 'Rucksack', 'Hut', 'Fahrrad', 'Bürste', 'Schlüssel', 'Blume', 'Trommel', 'Geige', 'Stift', 'Lampe', 'Socke', 'Brille', 'Löffel', 'Telefon', 'Eimer', 'Flasche', 'Ring', 'Kette', 'Schere', 'Uhr', 'Kiste', 'Hammer', 'Jacke', 'Tasche', 'Kerze']",412.34648750023916,412.34924679994583,None,412.34937490010634,418.3554536001757,3,418.35574970021844,418.35841450002044,None,418.3585283001885,418.35972080007195,418.359732999932,,418.3607584000565,1.7941288999281824,None,,,,,,,,,,,,,,,,,,,,,,,,,,,,,,,,,,,,,,,,,,,,,,2,2024-01-09_12h44.18.247,watkins1,2023.2.3,99.73311391974083,78,2024-01-09 12h44.29.372484 +0000,
,,,,,,,,,,,21,0,21,0,,,,,,,,,,,,,418.3649602001533,,,,,,,,,,,,418.36104270024225,418.85696700029075,,,[],[],,,,,,,,,,,,1.6846113996580243,None,,,,,ring,,,,,Ring,strahlend,"['Ring', 'strahlend']",test_sub,2,,,,,,418.3609756999649,418.36101459991187,"['Tasse', 'Kamera', 'Vase', 'Würfel', 'Buch', 'Rucksack', 'Hut', 'Fahrrad', 'Bürste', 'Schlüssel', 'Blume', 'Trommel', 'Geige', 'Stift', 'Lampe', 'Socke', 'Brille', 'Löffel', 'Telefon', 'Eimer', 'Flasche', 'Ring', 'Kette', 'Schere', 'Uhr', 'Kiste', 'Hammer', 'Jacke', 'Tasche', 'Kerze']",418.8569781999104,418.8594682998955,None,418.8595906998962,418.86089150002226,None,418.8610006002709,418.8622997999191,None,418.86240840004757,418.86345920013264,418.8634720998816,0,424.8656740002334,,,,,,,,,,,,,,,,,,,,,,,,,,,,,,,,,,,,,,,,,,,,,,,,2,2024-01-09_12h44.18.247,watkins1,2023.2.3,99.73311391974083,78,2024-01-09 12h44.29.372484 +0000,
,,,,,,,,,,,22,0,22,0,,,,,,,,,,,,,424.8755041998811,,,,,,,,,,,,424.86595100024715,425.35746920015663,,,[],[],,,,,,,,,,,,None,None,,,,,,,,,,Kette,hässlich,"['Kette', 'hässlich']",restudy,2,,,,,,424.8658854998648,424.86592220002785,"['Tasse', 'Kamera', 'Vase', 'Würfel', 'Buch', 'Rucksack', 'Hut', 'Fahrrad', 'Bürste', 'Schlüssel', 'Blume', 'Trommel', 'Geige', 'Stift', 'Lampe', 'Socke', 'Brille', 'Löffel', 'Telefon', 'Eimer', 'Flasche', 'Ring', 'Kette', 'Schere', 'Uhr', 'Kiste', 'Hammer', 'Jacke', 'Tasche', 'Kerze']",425.35748100001365,425.36025629984215,None,425.3603834998794,431.3684709998779,1,431.3687666002661,431.37149180006236,None,431.3716048998758,431.37277080025524,431.37278270022944,,431.374303100165,1.838885999750346,None,,,,,,,,,,,,,,,,,,,,,,,,,,,,,,,,,,,,,,,,,,,,,,2,2024-01-09_12h44.18.247,watkins1,2023.2.3,99.73311391974083,78,2024-01-09 12h44.29.372484 +0000,
,,,,,,,,,,,23,0,23,0,,,,,,,,,,,,,431.3779552001506,,,,,,,,,,,,431.374591300264,431.8706618999131,,,[],[],,,,,,,,,,,,None,None,,,,,,,,,,Schere,sauber,"['Schere', 'sauber']",restudy,2,,,,,,431.3745240001008,431.374563800171,"['Tasse', 'Kamera', 'Vase', 'Würfel', 'Buch', 'Rucksack', 'Hut', 'Fahrrad', 'Bürste', 'Schlüssel', 'Blume', 'Trommel', 'Geige', 'Stift', 'Lampe', 'Socke', 'Brille', 'Löffel', 'Telefon', 'Eimer', 'Flasche', 'Ring', 'Kette', 'Schere', 'Uhr', 'Kiste', 'Hammer', 'Jacke', 'Tasche', 'Kerze']",431.87067320011556,431.8733957000077,None,431.8735231999308,437.8764643999748,3,437.87676270026714,437.87943110009655,None,437.87954379990697,437.8807113999501,437.88072320027277,,437.881916299928,1.3817751999013126,None,,,,,,,,,,,,,,,,,,,,,,,,,,,,,,,,,,,,,,,,,,,,,,2,2024-01-09_12h44.18.247,watkins1,2023.2.3,99.73311391974083,78,2024-01-09 12h44.29.372484 +0000,
,,,,,,,,,,,24,0,24,0,,,,,,,,,,,,,437.8859219001606,,,,,,,,,,,,437.8822007998824,438.37790329987183,,,[],[],,,,,,,,,,,,4.114379599690437,None,,,,,armbanduh,,,,,Uhr,breit,"['Uhr', 'breit']",test_sub,2,,,,,,437.882134700194,437.8821735000238,"['Tasse', 'Kamera', 'Vase', 'Würfel', 'Buch', 'Rucksack', 'Hut', 'Fahrrad', 'Bürste', 'Schlüssel', 'Blume', 'Trommel', 'Geige', 'Stift', 'Lampe', 'Socke', 'Brille', 'Löffel', 'Telefon', 'Eimer', 'Flasche', 'Ring', 'Kette', 'Schere', 'Uhr', 'Kiste', 'Hammer', 'Jacke', 'Tasche', 'Kerze']",438.37791470019147,438.3804597002454,None,438.38058499991894,438.38186990004033,None,438.38198080006987,438.38326570019126,None,438.38337490009144,438.3843829999678,438.3843955998309,0,444.38732590014115,,,,,,,,,,,,,,,,,,,,,,,,,,,,,,,,,,,,,,,,,,,,,,,,2,2024-01-09_12h44.18.247,watkins1,2023.2.3,99.73311391974083,78,2024-01-09 12h44.29.372484 +0000,
,,,,,,,,,,,25,0,25,0,,,,,,,,,,,,,444.39711679983884,,,,,,,,,,,,444.3876118999906,444.879144300241,,,[],[],,,,,,,,,,,,1.1355687999166548,None,,,,,stift,,,,,Kiste,robust,"['Kiste', 'robust']",test_sub,2,,,,,,444.3875444000587,444.38758260011673,"['Tasse', 'Kamera', 'Vase', 'Würfel', 'Buch', 'Rucksack', 'Hut', 'Fahrrad', 'Bürste', 'Schlüssel', 'Blume', 'Trommel', 'Geige', 'Stift', 'Lampe', 'Socke', 'Brille', 'Löffel', 'Telefon', 'Eimer', 'Flasche', 'Ring', 'Kette', 'Schere', 'Uhr', 'Kiste', 'Hammer', 'Jacke', 'Tasche', 'Kerze']",444.8791555999778,444.8817819999531,None,444.8819070998579,444.8843526998535,None,444.88446260010824,444.887074300088,None,444.8871826999821,444.8883294002153,444.8883421001956,0,450.8938881000504,,,,,,,,,,,,,,,,,,,,,,,,,,,,,,,,,,,,,,,,,,,,,,,,2,2024-01-09_12h44.18.247,watkins1,2023.2.3,99.73311391974083,78,2024-01-09 12h44.29.372484 +0000,
,,,,,,,,,,,26,0,26,0,,,,,,,,,,,,,450.90372209995985,,,,,,,,,,,,450.8941726000048,451.3856890001334,,,[],[],,,,,,,,,,,,None,None,,,,,,,,,,Hammer,schlicht,"['Hammer', 'schlicht']",restudy,2,,,,,,450.8941051000729,450.89414349989966,"['Tasse', 'Kamera', 'Vase', 'Würfel', 'Buch', 'Rucksack', 'Hut', 'Fahrrad', 'Bürste', 'Schlüssel', 'Blume', 'Trommel', 'Geige', 'Stift', 'Lampe', 'Socke', 'Brille', 'Löffel', 'Telefon', 'Eimer', 'Flasche', 'Ring', 'Kette', 'Schere', 'Uhr', 'Kiste', 'Hammer', 'Jacke', 'Tasche', 'Kerze']",451.3857003999874,451.38844719994813,None,451.38857549987733,457.39342930028215,1,457.3937973002903,457.39687630021945,None,457.39699060004205,457.39816959993914,457.3981816000305,,457.39969740016386,4.282358100172132,None,,,,,,,,,,,,,,,,,,,,,,,,,,,,,,,,,,,,,,,,,,,,,,2,2024-01-09_12h44.18.247,watkins1,2023.2.3,99.73311391974083,78,2024-01-09 12h44.29.372484 +0000,
,,,,,,,,,,,27,0,27,0,,,,,,,,,,,,,457.40290790004656,,,,,,,,,,,,457.39998249989003,457.8949659001082,,,[],[],,,,,,,,,,,,None,None,,,,,,,,,,Jacke,durchsichtig,"['Jacke', 'durchsichtig']",restudy,2,,,,,,457.3999136998318,457.3999550999142,"['Tasse', 'Kamera', 'Vase', 'Würfel', 'Buch', 'Rucksack', 'Hut', 'Fahrrad', 'Bürste', 'Schlüssel', 'Blume', 'Trommel', 'Geige', 'Stift', 'Lampe', 'Socke', 'Brille', 'Löffel', 'Telefon', 'Eimer', 'Flasche', 'Ring', 'Kette', 'Schere', 'Uhr', 'Kiste', 'Hammer', 'Jacke', 'Tasche', 'Kerze']",457.89497759984806,457.89769570017233,None,457.89782170020044,463.9035756001249,1,463.90388570027426,463.9068044000305,None,463.90691770007834,463.9080822998658,463.90809410018846,,463.9093845002353,2.0293415999040008,None,,,,,,,,,,,,,,,,,,,,,,,,,,,,,,,,,,,,,,,,,,,,,,2,2024-01-09_12h44.18.247,watkins1,2023.2.3,99.73311391974083,78,2024-01-09 12h44.29.372484 +0000,
,,,,,,,,,,,28,0,28,0,,,,,,,,,,,,,463.91303599998355,,,,,,,,,,,,463.9096681000665,464.4050272000022,,,[],[],,,,,,,,,,,,2.749593200162053,None,,,,,tasche,,,,,Tasche,gepunktet,"['Tasche', 'gepunktet']",test_sub,2,,,,,,463.90960170002654,463.9096411000937,"['Tasse', 'Kamera', 'Vase', 'Würfel', 'Buch', 'Rucksack', 'Hut', 'Fahrrad', 'Bürste', 'Schlüssel', 'Blume', 'Trommel', 'Geige', 'Stift', 'Lampe', 'Socke', 'Brille', 'Löffel', 'Telefon', 'Eimer', 'Flasche', 'Ring', 'Kette', 'Schere', 'Uhr', 'Kiste', 'Hammer', 'Jacke', 'Tasche', 'Kerze']",464.40503899985924,464.40789410006255,None,464.40802109986544,464.40947639988735,None,464.40958849992603,464.4110305001959,None,464.41113930009305,464.4123058998957,464.41231829999015,0,470.415153299924,,,,,,,,,,,,,,,,,,,,,,,,,,,,,,,,,,,,,,,,,,,,,,,,2,2024-01-09_12h44.18.247,watkins1,2023.2.3,99.73311391974083,78,2024-01-09 12h44.29.372484 +0000,
,,,,,,,,,,,29,0,29,0,,,,,,,,,,,,,470.42499600024894,,,,,,,,,,,,470.4154377002269,470.90682059992105,,,[],[],,,,,,,,,,,,None,None,,,,,,,,,,Kerze,teuer,"['Kerze', 'teuer']",test_sub,2,,,,,,470.4153702999465,470.41540830023587,"['Tasse', 'Kamera', 'Vase', 'Würfel', 'Buch', 'Rucksack', 'Hut', 'Fahrrad', 'Bürste', 'Schlüssel', 'Blume', 'Trommel', 'Geige', 'Stift', 'Lampe', 'Socke', 'Brille', 'Löffel', 'Telefon', 'Eimer', 'Flasche', 'Ring', 'Kette', 'Schere', 'Uhr', 'Kiste', 'Hammer', 'Jacke', 'Tasche', 'Kerze']",470.90683150012046,470.9097716002725,None,470.90989670017734,470.9124942002818,None,470.9126071999781,470.91526760021225,None,470.9153799000196,470.91684530023485,470.916858300101,0,476.9227217999287,,,,,,,,,,,,,,,,,,,,,,,,,,,,,,,,,,,,,,,,,,,,,,,,2,2024-01-09_12h44.18.247,watkins1,2023.2.3,99.73311391974083,78,2024-01-09 12h44.29.372484 +0000,
,,,,,,,,,,,,,,,,,,,,,,,,,,,,,,,,,,,,,,,,,,,,,,,,,,,,,,,,,,,,,,,,,,,,,,,2,,,,,,,,,,,,,,,,,,,,,,,,,,,,,,,,,,,,,,,,,,,,,,,,,,,,,,,,,,,,,,,,,,,,,,2,2024-01-09_12h44.18.247,watkins1,2023.2.3,99.73311391974083,78,2024-01-09 12h44.29.372484 +0000,
(7 x 6) + 9 = 48 ,Incorrect,button_incorrect,,,,,,,,,,,,,0,0,0,9,,,,,,,,,495.03630559984595,,,,,,,,,,494.00504270009696,495.00780559983104,,,,,['button_incorrect'],[4.110293800011277],,,,,,,,,,,,,,,,,,,,,,,,,,distractorTask,2,,,,,,,,,,,,,,,,,,,,,,,,,495.0243673999794,495.03630559984595,499.14046599995345,[-0.287962962962963],[-0.4101851851851852],[1],[0],[0],[4.110293800011277],['button_incorrect'],499.1411446002312,500.14387799985707,,,,,,,,,,,,,,,,,,,,,,,,,,,,,,,,,,2,2024-01-09_12h44.18.247,watkins1,2023.2.3,99.73311391974083,78,2024-01-09 12h44.29.372484 +0000,
(80 : 10) + 9 = 17 ,Correct,button_correct,,,,,,,,,,,,,0,1,1,3,,,,,,,,,500.15385900018737,,,,,,,,,,,,,,,,['button_correct'],[4.706415500026196],,,,,,,,,,,,,,,,,,,,,,,,,,distractorTask,2,,,,,,,,,,,,,,,,,,,,,,,,,500.14406879991293,500.15385900018737,504.8535146000795,[0.3731481481481482],[-0.4009259259259259],[1],[0],[0],[4.706415500026196],['button_correct'],504.85404430003837,505.85718679986894,,,,,,,,,,,,,,,,,,,,,,,,,,,,,,,,,,2,2024-01-09_12h44.18.247,watkins1,2023.2.3,99.73311391974083,78,2024-01-09 12h44.29.372484 +0000,
(28 : 7) - 3 = 1 ,Correct,button_correct,,,,,,,,,,,,,0,2,2,0,,,,,,,,,505.86717300023884,,,,,,,,,,,,,,,,['button_incorrect'],[4.234556199982762],,,,,,,,,,,,,,,,,,,,,,,,,,distractorTask,2,,,,,,,,,,,,,,,,,,,,,,,,,505.85738319996744,505.86717300023884,510.0947811999358,[-0.42314814814814816],[-0.39814814814814814],[1],[0],[0],[4.234556199982762],['button_incorrect'],510.09516349993646,511.09824870014563,,,,,,,,,,,,,,,,,,,,,,,,,,,,,,,,,,2,2024-01-09_12h44.18.247,watkins1,2023.2.3,99.73311391974083,78,2024-01-09 12h44.29.372484 +0000,
(9 x 5) - 9 = 36 ,Correct,button_correct,,,,,,,,,,,,,0,3,3,4,,,,,,,,,511.10822919989005,,,,,,,,,,,,,,,,['button_incorrect'],[4.305431600194424],,,,,,,,,,,,,,,,,,,,,,,,,,distractorTask,2,,,,,,,,,,,,,,,,,,,,,,,,,511.09844270022586,511.10822919989005,515.4060086999089,[-0.32407407407407407],[-0.3851851851851852],[1],[0],[0],[4.305431600194424],['button_incorrect'],515.4063858999871,516.4094572002068,,,,,,,,,,,,,,,,,,,,,,,,,,,,,,,,,,2,2024-01-09_12h44.18.247,watkins1,2023.2.3,99.73311391974083,78,2024-01-09 12h44.29.372484 +0000,
(2 x 5) + 3 = 13 ,Correct,button_correct,,,,,,,,,,,,,0,4,4,2,,,,,,,,,516.4194408999756,,,,,,,,,,,,,,,,['button_correct'],[2.669499599840492],,,,,,,,,,,,,,,,,,,,,,,,,,distractorTask,2,,,,,,,,,,,,,,,,,,,,,,,,,516.409644600004,516.4194408999756,519.0808558999561,[0.3611111111111111],[-0.4064814814814815],[1],[0],[0],[2.669499599840492],['button_correct'],519.0812315000221,520.0841802000068,,,,,,,,,,,,,,,,,,,,,,,,,,,,,,,,,,2,2024-01-09_12h44.18.247,watkins1,2023.2.3,99.73311391974083,78,2024-01-09 12h44.29.372484 +0000,
(54 : 6) - 10 = 0 ,Incorrect,button_incorrect,,,,,,,,,,,,,0,5,5,5,,,,,,,,,520.094269500114,,,,,,,,,,,,,,,,['button_incorrect'],[3.522819399833679],,,,,,,,,,,,,,,,,,,,,,,,,,distractorTask,2,,,,,,,,,,,,,,,,,,,,,,,,,520.0843688002788,520.094269500114,523.6089190002531,[-0.2953703703703704],[-0.3990740740740741],[1],[0],[0],[3.522819399833679],['button_incorrect'],523.6092987000011,524.6125611001626,,,,,,,,,,,,,,,,,,,,,,,,,,,,,,,,,,2,2024-01-09_12h44.18.247,watkins1,2023.2.3,99.73311391974083,78,2024-01-09 12h44.29.372484 +0000,
(40 : 5) + 8 = 15 ,Incorrect,button_incorrect,,,,,,,,,,,,,0,6,6,7,,,,,,,,,524.6224954999052,,,,,,,,,,,,,,,,['button_correct'],[6.947034799959511],,,,,,,,,,,,,,,,,,,,,,,,,,distractorTask,2,,,,,,,,,,,,,,,,,,,,,,,,,524.6127507998608,524.6224954999052,531.5615197001025,[0.40370370370370373],[-0.41203703703703703],[1],[0],[0],[6.947034799959511],['button_correct'],531.5619002999738,532.56507290015,,,,,,,,,,,,,,,,,,,,,,,,,,,,,,,,,,2,2024-01-09_12h44.18.247,watkins1,2023.2.3,99.73311391974083,78,2024-01-09 12h44.29.372484 +0000,
(25 : 5) + 5 = 9 ,Incorrect,button_incorrect,,,,,,,,,,,,,0,7,7,6,,,,,,,,,532.5750376000069,,,,,,,,,,,,,,,,['button_incorrect'],[3.573869800195098],,,,,,,,,,,,,,,,,,,,,,,,,,distractorTask,2,,,,,,,,,,,,,,,,,,,,,,,,,532.5652622999623,532.5750376000069,536.1408255998977,[-0.29814814814814816],[-0.41944444444444445],[1],[0],[0],[3.573869800195098],['button_incorrect'],536.141239200253,537.1432696999982,,,,,,,,,,,,,,,,,,,,,,,,,,,,,,,,,,2,2024-01-09_12h44.18.247,watkins1,2023.2.3,99.73311391974083,78,2024-01-09 12h44.29.372484 +0000,
(4 : 2) + 4 = 6 ,Correct,button_correct,,,,,,,,,,,,,0,8,8,1,,,,,,,,,537.1532522002235,,,,,,,,,,,,,,,,['button_correct'],[3.4329690001904964],,,,,,,,,,,,,,,,,,,,,,,,,,distractorTask,2,,,,,,,,,,,,,,,,,,,,,,,,,537.1434639999643,537.1532522002235,540.5781322000548,[0.35462962962962963],[-0.4212962962962963],[1],[0],[0],[3.4329690001904964],['button_correct'],540.5785166001879,541.5815937998705,,,,,,,,,,,,,,,,,,,,,,,,,,,,,,,,,,2,2024-01-09_12h44.18.247,watkins1,2023.2.3,99.73311391974083,78,2024-01-09 12h44.29.372484 +0000,
(6 x 3) + 10 = 27 ,Incorrect,button_incorrect,,,,,,,,,,,,,0,9,9,8,,,,,,,,,541.5915835001506,,,,,,,,,,,,,,,,['button_incorrect'],[3.241578500252217],,,,,,,,,,,,,,,,,,,,,,,,,,distractorTask,2,,,,,,,,,,,,,,,,,,,,,,,,,541.5817837002687,541.5915835001506,544.8251122999936,[-0.2824074074074074],[-0.38796296296296295],[1],[0],[0],[3.241578500252217],['button_incorrect'],544.8254920002073,545.8286422998644,,,,,,,,,,,,,,,,,,,,,,,,,,,,,,,,,,2,2024-01-09_12h44.18.247,watkins1,2023.2.3,99.73311391974083,78,2024-01-09 12h44.29.372484 +0000,
,,,,,,,,,,,,,,,,,,,,,,,,,,,,,,,,,,,,,,,,,,,,,,,,,,,,,,,,,,,,,,,,,,,,,,,2,,,,,,,,,,,,,,,,,,,,,,,,,,,,,,,,,,,,,,,,,,,,,,,,,,,,,,,,,,,,,,,,,,,,,,2,2024-01-09_12h44.18.247,watkins1,2023.2.3,99.73311391974083,78,2024-01-09 12h44.29.372484 +0000,
,,,,,,,,,,,,,,,,,,,0,0,0,0,,,,,561.75106720021,,,,,,,,,,,,,,,,Tasche,10.708477299660444,,,,,,,,,,,,8.234780999831855,None,,,,,,,,,,,,,freeRecallSub,2,,,,,,,,,,,,,,,,,,,,,,,,,,,,,,,,,,,,,561.7422182001173,561.75106720021,561.75106720021,572.4661623998545,return,10.708477299660444,None,Tasche,[-0.025],[0.044444444444444446],[1],[0],[0],[4.457737099844962],[],,,,,,,,,,,,,,,,,,,2,2024-01-09_12h44.18.247,watkins1,2023.2.3,99.73311391974083,78,2024-01-09 12h44.29.372484 +0000,
,,,,,,,,,,,,,,,,,,,1,0,1,0,,,,,572.4779957998544,,,,,,,,,,,,,,,,Ring,3.5335550997406244,,,,,,,,,,,,2.17092559998855,None,,,,,,,,,,,,,freeRecallSub,2,,,,,,,,,,,,,,,,,,,,,,,,,,,,,,,,,,,,,572.4679872002453,572.4779957998544,572.4779957998544,576.014487999957,return,3.5335550997406244,None,Ring,[],[],[],[],[],[],[],,,,,,,,,,,,,,,,,,,2,2024-01-09_12h44.18.247,watkins1,2023.2.3,99.73311391974083,78,2024-01-09 12h44.29.372484 +0000,
,,,,,,,,,,,,,,,,,,,2,0,2,0,,,,,576.0254401001148,,,,,,,,,,,,,,,,Hut,4.554153100121766,,,,,,,,,,,,3.021942100021988,None,,,,,,,,,,,,,freeRecallSub,2,,,,,,,,,,,,,,,,,,,,,,,,,,,,,,,,,,,,,576.0159399001859,576.0254401001148,576.0254401001148,580.5841267001815,return,4.554153100121766,None,Hut,[],[],[],[],[],[],[],,,,,,,,,,,,,,,,,,,2,2024-01-09_12h44.18.247,watkins1,2023.2.3,99.73311391974083,78,2024-01-09 12h44.29.372484 +0000,
,,,,,,,,,,,,,,,,,,,3,0,3,0,,,,,580.5947000999004,,,,,,,,,,,,,,,,Löffel,2.256850800011307,,,,,,,,,,,,0.41108640003949404,None,,,,,,,,,,,,,freeRecallSub,2,,,,,,,,,,,,,,,,,,,,,,,,,,,,,,,,,,,,,580.5853754002601,580.5947000999004,580.5947000999004,582.8539367001504,return,2.256850800011307,None,Löffel,[],[],[],[],[],[],[],,,,,,,,,,,,,,,,,,,2,2024-01-09_12h44.18.247,watkins1,2023.2.3,99.73311391974083,78,2024-01-09 12h44.29.372484 +0000,
,,,,,,,,,,,,,,,,,,,4,0,4,0,,,,,582.8649714002386,,,,,,,,,,,,,,,,Lampe,3.426572000142187,,,,,,,,,,,,0.3617269000969827,None,,,,,,,,,,,,,freeRecallSub,2,,,,,,,,,,,,,,,,,,,,,,,,,,,,,,,,,,,,,582.8551962999627,582.8649714002386,582.8649714002386,586.299692099914,return,3.426572000142187,None,Lampe,[],[],[],[],[],[],[],,,,,,,,,,,,,,,,,,,2,2024-01-09_12h44.18.247,watkins1,2023.2.3,99.73311391974083,78,2024-01-09 12h44.29.372484 +0000,
,,,,,,,,,,,,,,,,,,,5,0,5,0,,,,,586.3109538001008,,,,,,,,,,,,,,,,Telefon,7.684705299790949,,,,,,,,,,,,4.478542999830097,None,,,,,,,,,,,,,freeRecallSub,2,,,,,,,,,,,,,,,,,,,,,,,,,,,,,,,,,,,,,586.3009677999653,586.3109538001008,586.3109538001008,594.0025042998604,return,7.684705299790949,None,Telefon,[],[],[],[],[],[],[],,,,,,,,,,,,,,,,,,,2,2024-01-09_12h44.18.247,watkins1,2023.2.3,99.73311391974083,78,2024-01-09 12h44.29.372484 +0000,
,,,,,,,,,,,,,,,,,,,6,0,6,0,,,,,594.0135874999687,,,,,,,,,,,,,,,,Brille,2.7979034003801644,,,,,,,,,,,,0.3917836002074182,None,,,,,,,,,,,,,freeRecallSub,2,,,,,,,,,,,,,,,,,,,,,,,,,,,,,,,,,,,,,594.0037322002463,594.0135874999687,594.0135874999687,596.8159213000908,return,2.7979034003801644,None,Brille,[],[],[],[],[],[],[],,,,,,,,,,,,,,,,,,,2,2024-01-09_12h44.18.247,watkins1,2023.2.3,99.73311391974083,78,2024-01-09 12h44.29.372484 +0000,
,,,,,,,,,,,,,,,,,,,7,0,7,0,,,,,596.8276956002228,,,,,,,,,,,,,,,,Stift,6.167887500021607,,,,,,,,,,,,4.620742499828339,None,,,,,,,,,,,,,freeRecallSub,2,,,,,,,,,,,,,,,,,,,,,,,,,,,,,,,,,,,,,596.817167900037,596.8276956002228,596.8276956002228,603.0042508998886,return,6.167887500021607,None,Stift,[],[],[],[],[],[],[],,,,,,,,,,,,,,,,,,,2,2024-01-09_12h44.18.247,watkins1,2023.2.3,99.73311391974083,78,2024-01-09 12h44.29.372484 +0000,
,,,,,,,,,,,,,,,,,,,8,0,8,0,,,,,603.0159999001771,,,,,,,,,,,,,,,,Schere,7.7475144998170435,,,,,,,,,,,,4.017424299847335,None,,,,,,,,,,,,,freeRecallSub,2,,,,,,,,,,,,,,,,,,,,,,,,,,,,,,,,,,,,,603.0055253999308,603.0159999001771,603.0159999001771,610.7681323001161,return,7.7475144998170435,None,Schere,[],[],[],[],[],[],[],,,,,,,,,,,,,,,,,,,2,2024-01-09_12h44.18.247,watkins1,2023.2.3,99.73311391974083,78,2024-01-09 12h44.29.372484 +0000,
,,,,,,,,,,,,,,,,,,,9,0,9,0,,,,,610.7795867999084,,,,,,,,,,,,,,,,Blume,2.295944499783218,,,,,,,,,,,,0.41265329997986555,None,,,,,,,,,,,,,freeRecallSub,2,,,,,,,,,,,,,,,,,,,,,,,,,,,,,,,,,,,,,610.7693624999374,610.7795867999084,610.7795867999084,613.0798929999582,return,2.295944499783218,None,Blume,[],[],[],[],[],[],[],,,,,,,,,,,,,,,,,,,2,2024-01-09_12h44.18.247,watkins1,2023.2.3,99.73311391974083,78,2024-01-09 12h44.29.372484 +0000,
,,,,,,,,,,,,,,,,,,,10,0,10,0,,,,,613.0916923000477,,,,,,,,,,,,,,,,Jacke,12.967813899740577,,,,,,,,,,,,11.548084100242704,None,,,,,,,,,,,,,freeRecallSub,2,,,,,,,,,,,,,,,,,,,,,,,,,,,,,,,,,,,,,613.0812516002916,613.0916923000477,613.0916923000477,626.0651147998869,return,12.967813899740577,None,Jacke,[],[],[],[],[],[],[],,,,,,,,,,,,,,,,,,,2,2024-01-09_12h44.18.247,watkins1,2023.2.3,99.73311391974083,78,2024-01-09 12h44.29.372484 +0000,
,,,,,,,,,,,,,,,,,,,11,0,11,0,,,,,626.07746890001,,,,,,,,,,,,,,,,Kette,10.38210629997775,,,,,,,,,,,,6.538999100215733,8.486731400247663,,,,,,,,,,,,,freeRecallSub,2,,,,,,,,,,,,,,,,,,,,,,,,,,,,,,,,,,,,,626.0663568000309,626.07746890001,626.07746890001,636.4609090001322,return,10.38210629997775,None,Kette,[],[],[],[],[],[],[],,,,,,,,,,,,,,,,,,,2,2024-01-09_12h44.18.247,watkins1,2023.2.3,99.73311391974083,78,2024-01-09 12h44.29.372484 +0000,
,,,,,,,,,,,,,,,,,,,12,0,12,0,,,,,636.4734228998423,,,,,,,,,,,,,,,,Armbanduhr,5.698135300073773,,,,,,,,,,,,1.8305270001292229,None,,,,,,,,,,,,,freeRecallSub,2,,,,,,,,,,,,,,,,,,,,,,,,,,,,,,,,,,,,,636.4621601002291,636.4734228998423,636.4734228998423,642.1781218000688,return,5.698135300073773,None,Armbanduhr,[],[],[],[],[],[],[],,,,,,,,,,,,,,,,,,,2,2024-01-09_12h44.18.247,watkins1,2023.2.3,99.73311391974083,78,2024-01-09 12h44.29.372484 +0000,
,,,,,,,,,,,,,,,,,,,13,0,13,0,,,,,642.1915452000685,,,,,,,,,,,,,,,,Rucksack,19.22794539993629,,,,,,,,,,,,16.928962000180036,None,,,,,,,,,,,,,freeRecallSub,2,,,,,,,,,,,,,,,,,,,,,,,,,,,,,,,,,,,,,642.1793935000896,642.1915452000685,642.1915452000685,661.4277894999832,return,19.22794539993629,None,Rucksack,[],[],[],[],[],[],[],,,,,,,,,,,,,,,,,,,2,2024-01-09_12h44.18.247,watkins1,2023.2.3,99.73311391974083,78,2024-01-09 12h44.29.372484 +0000,
,,,,,,,,,,,,,,,,,,,14,0,14,0,,,,,661.440727900248,,,,,,,,,,,,,,,,Tasse,28.267022300045937,,,,,,,,,,,,26.049463900271803,None,,,,,,,,,,,,,freeRecallSub,2,,,,,,,,,,,,,,,,,,,,,,,,,,,,,,,,,,,,,661.4290614998899,661.440727900248,661.440727900248,689.7176828999072,return,28.267022300045937,None,Tasse,[],[],[],[],[],[],[],,,,,,,,,,,,,,,,,,,2,2024-01-09_12h44.18.247,watkins1,2023.2.3,99.73311391974083,78,2024-01-09 12h44.29.372484 +0000,
,,,,,,,,,,,,,,,,,,,15,0,15,0,,,,,689.7307727001607,,,,,,,,,,,,,,,,Buch,44.432688399683684,,,,,,,,,,,,42.90972930006683,None,,,,,,,,,,,,,freeRecallSub,2,,,,,,,,,,,,,,,,,,,,,,,,,,,,,,,,,,,,,689.7189567000605,689.7307727001607,689.7307727001607,734.1649084002711,return,44.432688399683684,None,Buch,[],[],[],[],[],[],[],,,,,,,,,,,,,,,,,,,2,2024-01-09_12h44.18.247,watkins1,2023.2.3,99.73311391974083,78,2024-01-09 12h44.29.372484 +0000,
,,,,,,,,,,,,,,,,,,,16,0,16,0,,,,,734.1784196998924,,,,,,,,,,,,,,,,Fahrrad,27.93711750023067,,,,,,,,,,,,22.566736300010234,None,,,,,,,,,,,,,freeRecallSub,2,,,,,,,,,,,,,,,,,,,,,,,,,,,,,,,,,,,,,734.1661966000684,734.1784196998924,734.1784196998924,762.1250825999305,return,27.93711750023067,None,Fahrrad,[],[],[],[],[],[],[],,,,,,,,,,,,,,,,,,,2,2024-01-09_12h44.18.247,watkins1,2023.2.3,99.73311391974083,78,2024-01-09 12h44.29.372484 +0000,
,,,,,,,,,,,,,,,,,,,17,0,17,0,,,,,762.1390955001116,,,,,,,,,,,,,,,,,[],,,,,,,,,,,,None,None,,,,,,,,,,,,,freeRecallSub,2,,,,,,,,,,,,,,,,,,,,,,,,,,,,,,,,,,,,,762.1263437001035,762.1390955001116,762.1390955001116,831.7579028001055,None,,,,[0.5314814814814814],[-0.3972222222222222],[1],[0],[0],[69.62511939974502],"['button_continue', 'continue_text']",,,,,,,,,,,,,,,,,,,2,2024-01-09_12h44.18.247,watkins1,2023.2.3,99.73311391974083,78,2024-01-09 12h44.29.372484 +0000,
,,,,,,,,,,,,,,,,,,,,,,,,,,,,,,,,,,,,,,,,,,,,,,,,,,,,,,,,,,,,,,,,,,,,,,,2,,,,,,,,,,,,,,,,,,,,,,,,,,,,,,,,,,,,,,,,,,,,,,,,,,,,,,,,,,,,,,,,,,,,,,2,2024-01-09_12h44.18.247,watkins1,2023.2.3,99.73311391974083,78,2024-01-09 12h44.29.372484 +0000,
,,,,,,,,,,,,,,,,,,,,,,,0,0,0,0,836.5991630000062,,,,,,,,,,,,860.3501566001214,860.8485639002174,,,,23.740439500194043,,,,,,,,,,,,None,None,,,,,,,,,,Socke,,,cuedRecallAdj,2,,,,,,,,,,,,,,,,,,,,,0,,,,,,,,,,,,,,,,,,,,,,,,,,,,,,,836.589939000085,836.5991630000062,836.5991630000062,860.3468766999431,schmutzig,return,23.740439500194043,None,860.3472682000138,860.3565801000223,860.3565801000223,860.350007200148,,None,,,,,2,2024-01-09_12h44.18.247,watkins1,2023.2.3,99.73311391974083,78,2024-01-09 12h44.29.372484 +0000,
,,,,,,,,,,,,,,,,,,,,,,,1,0,1,0,860.858592600096,,,,,,,,,,,,866.4149005999789,866.9135405998677,,,,5.54502769978717,,,,,,,,,,,,None,None,,,,,,,,,,Bürste,,,cuedRecallAdj,2,,,,,,,,,,,,,,,,,,,,,0,,,,,,,,,,,,,,,,,,,,,,,,,,,,,,,860.8488052999601,860.858592600096,860.858592600096,866.4118865001947,sanft,return,5.54502769978717,None,866.4121524998918,866.4215953000821,866.4215953000821,866.4147978001274,,None,,,,,2,2024-01-09_12h44.18.247,watkins1,2023.2.3,99.73311391974083,78,2024-01-09 12h44.29.372484 +0000,
,,,,,,,,,,,,,,,,,,,,,,,2,0,2,0,866.9235378000885,,,,,,,,,,,,881.8068923000246,882.305571900215,,,,14.872070000041276,,,,,,,,,,,,None,None,,,,,,,,,,Brille,,,cuedRecallAdj,2,,,,,,,,,,,,,,,,,,,,,0,,,,,,,,,,,,,,,,,,,,,,,,,,,,,,,866.9137857998721,866.9235378000885,866.9235378000885,881.8038373999298,niedlich,return,14.872070000041276,None,881.804101599846,881.8135442999192,881.8135442999192,881.8067888002843,,None,,,,,2,2024-01-09_12h44.18.247,watkins1,2023.2.3,99.73311391974083,78,2024-01-09 12h44.29.372484 +0000,
,,,,,,,,,,,,,,,,,,,,,,,3,0,3,0,882.3155280002393,,,,,,,,,,,,885.3417739002034,885.8402507998981,,,,3.0160038000904024,,,,,,,,,,,,None,None,,,,,,,,,,Löffel,,,cuedRecallAdj,2,,,,,,,,,,,,,,,,,,,,,0,,,,,,,,,,,,,,,,,,,,,,,,,,,,,,,882.3058159002103,882.3155280002393,882.3155280002393,885.3386878999881,nass,return,3.0160038000904024,None,885.3389552002773,885.3481755000539,885.3481755000539,885.3416697001085,,None,,,,,2,2024-01-09_12h44.18.247,watkins1,2023.2.3,99.73311391974083,78,2024-01-09 12h44.29.372484 +0000,
,,,,,,,,,,,,,,,,,,,,,,,4,0,4,0,885.8501670998521,,,,,,,,,,,,890.1908375001512,890.6896179001778,,,,4.329452999867499,,,,,,,,,,,,None,None,,,,,,,,,,Tasse,,,cuedRecallAdj,2,,,,,,,,,,,,,,,,,,,,,0,,,,,,,,,,,,,,,,,,,,,,,,,,,,,,,885.8404914001003,885.8501670998521,885.8501670998521,890.1877727000974,flach,return,4.329452999867499,None,890.1880411002785,890.1975237000734,890.1975237000734,890.1907354001887,,None,,,,,2,2024-01-09_12h44.18.247,watkins1,2023.2.3,99.73311391974083,78,2024-01-09 12h44.29.372484 +0000,
,,,,,,,,,,,,,,,,,,,,,,,5,0,5,0,890.6995606999844,,,,,,,,,,,,901.2956126001664,901.7941764001735,,,,10.5920668002218,,,,,,,,,,,,None,None,,,,,,,,,,Kiste,,,cuedRecallAdj,2,,,,,,,,,,,,,,,,,,,,,0,,,,,,,,,,,,,,,,,,,,,,,,,,,,,,,890.6898623001762,890.6995606999844,890.6995606999844,901.2926185000688,robust,return,10.5920668002218,None,901.2928861998953,901.3021837999113,901.3021837999113,901.2955092000775,,None,,,,,2,2024-01-09_12h44.18.247,watkins1,2023.2.3,99.73311391974083,78,2024-01-09 12h44.29.372484 +0000,
,,,,,,,,,,,,,,,,,,,,,,,6,0,6,0,901.8041217001155,,,,,,,,,,,,907.882600300014,908.3808729001321,,,,6.07144770026207,,,,,,,,,,,,None,None,,,,,,,,,,Telefon,,,cuedRecallAdj,2,,,,,,,,,,,,,,,,,,,,,0,,,,,,,,,,,,,,,,,,,,,,,,,,,,,,,901.7944263000973,901.8041217001155,901.8041217001155,907.8793073999695,gestreift,return,6.07144770026207,None,907.8795961001888,907.8888380001299,907.8888380001299,907.8824880002066,,None,,,,,2,2024-01-09_12h44.18.247,watkins1,2023.2.3,99.73311391974083,78,2024-01-09 12h44.29.372484 +0000,
,,,,,,,,,,,,,,,,,,,,,,,7,0,7,0,908.3908147001639,,,,,,,,,,,,911.5872972002253,912.0856178002432,,,,3.188737800344825,,,,,,,,,,,,None,None,,,,,,,,,,Kamera,,,cuedRecallAdj,2,,,,,,,,,,,,,,,,,,,,,0,,,,,,,,,,,,,,,,,,,,,,,,,,,,,,,908.3811249998398,908.3908147001639,908.3908147001639,911.5840699002147,verspielt,return,3.188737800344825,None,911.5843560001813,911.593565300107,911.593565300107,911.5871931002475,,None,,,,,2,2024-01-09_12h44.18.247,watkins1,2023.2.3,99.73311391974083,78,2024-01-09 12h44.29.372484 +0000,
,,,,,,,,,,,,,,,,,,,,,,,8,0,8,0,912.0955365002155,,,,,,,,,,,,915.583127700258,916.0816895999014,,,,3.4760771999135613,,,,,,,,,,,,None,None,,,,,,,,,,Jacke,,,cuedRecallAdj,2,,,,,,,,,,,,,,,,,,,,,0,,,,,,,,,,,,,,,,,,,,,,,,,,,,,,,912.085861499887,912.0955365002155,912.0955365002155,915.5798416002654,durchsichtig,return,3.4760771999135613,None,915.5801047002897,915.5896140001714,915.5896140001714,915.5830259001814,,None,,,,,2,2024-01-09_12h44.18.247,watkins1,2023.2.3,99.73311391974083,78,2024-01-09 12h44.29.372484 +0000,
,,,,,,,,,,,,,,,,,,,,,,,9,0,9,0,916.0915891998447,,,,,,,,,,,,935.1522261002101,935.6508392998949,,,,19.047975999768823,,,,,,,,,,,,None,None,,,,,,,,,,Würfel,,,cuedRecallAdj,2,,,,,,,,,,,,,,,,,,,,,0,,,,,,,,,,,,,,,,,,,,,,,,,,,,,,,916.0819284999743,916.0915891998447,916.0915891998447,935.1491586999036,glänzend ,return,19.047975999768823,None,935.1494236001745,935.1588988001458,935.1588988001458,935.1521242000163,,None,,,,,2,2024-01-09_12h44.18.247,watkins1,2023.2.3,99.73311391974083,78,2024-01-09 12h44.29.372484 +0000,
,,,,,,,,,,,,,,,,,,,,,,,10,0,10,0,935.6607288001105,,,,,,,,,,,,938.8775837998837,939.3760052002035,,,,3.2067430997267365,,,,,,,,,,,,None,None,,,,,,,,,,Schere,,,cuedRecallAdj,2,,,,,,,,,,,,,,,,,,,,,0,,,,,,,,,,,,,,,,,,,,,,,,,,,,,,,935.6510880002752,935.6607288001105,935.6607288001105,938.8744208002463,sauber,return,3.2067430997267365,None,938.8746871999465,938.8839433998801,938.8839433998801,938.8774802000262,,None,,,,,2,2024-01-09_12h44.18.247,watkins1,2023.2.3,99.73311391974083,78,2024-01-09 12h44.29.372484 +0000,
,,,,,,,,,,,,,,,,,,,,,,,11,0,11,0,939.385940299835,,,,,,,,,,,,942.0905011002906,942.5890076002106,,,,2.6976303001865745,,,,,,,,,,,,None,None,,,,,,,,,,Hut,,,cuedRecallAdj,2,,,,,,,,,,,,,,,,,,,,,0,,,,,,,,,,,,,,,,,,,,,,,,,,,,,,,939.3762497999705,939.385940299835,939.385940299835,942.0873308000155,winzig,return,2.6976303001865745,None,942.0875901998952,942.0968816000968,942.0968816000968,942.0904009998776,,None,,,,,2,2024-01-09_12h44.18.247,watkins1,2023.2.3,99.73311391974083,78,2024-01-09 12h44.29.372484 +0000,
,,,,,,,,,,,,,,,,,,,,,,,12,0,12,0,942.5989588000812,,,,,,,,,,,,949.0872452999465,949.5767359999008,,,,6.476606400217861,,,,,,,,,,,,None,None,,,,,,,,,,Eimer,,,cuedRecallAdj,2,,,,,,,,,,,,,,,,,,,,,0,,,,,,,,,,,,,,,,,,,,,,,,,,,,,,,942.5892540002242,942.5989588000812,942.5989588000812,949.0850726999342,,return,6.476606400217861,None,949.0853325999342,949.0948188002221,949.0948188002221,949.0871438002214,,None,,,,,2,2024-01-09_12h44.18.247,watkins1,2023.2.3,99.73311391974083,78,2024-01-09 12h44.29.372484 +0000,
,,,,,,,,,,,,,,,,,,,,,,,13,0,13,0,949.5867897002026,,,,,,,,,,,,953.7468701000325,954.2454241998494,,,,4.152853600215167,,,,,,,,,,,,None,None,,,,,,,,,,Tasche,,,cuedRecallAdj,2,,,,,,,,,,,,,,,,,,,,,0,,,,,,,,,,,,,,,,,,,,,,,,,,,,,,,949.5769809000194,949.5867897002026,949.5867897002026,953.7438107999042,gepunktet,return,4.152853600215167,None,953.7440804000944,953.7533304002136,953.7533304002136,953.74676800007,,None,,,,,2,2024-01-09_12h44.18.247,watkins1,2023.2.3,99.73311391974083,78,2024-01-09 12h44.29.372484 +0000,
,,,,,,,,,,,,,,,,,,,,,,,14,0,14,0,954.2553651998751,,,,,,,,,,,,958.6075348001905,959.1061551002786,,,,4.340265200007707,,,,,,,,,,,,None,None,,,,,,,,,,Lampe,,,cuedRecallAdj,2,,,,,,,,,,,,,,,,,,,,,0,,,,,,,,,,,,,,,,,,,,,,,,,,,,,,,954.2456764001399,954.2553651998751,954.2553651998751,958.6044445000589,schmutzig,return,4.340265200007707,None,958.6047120001167,958.614150499925,958.614150499925,958.6074327998795,,None,,,,,2,2024-01-09_12h44.18.247,watkins1,2023.2.3,99.73311391974083,78,2024-01-09 12h44.29.372484 +0000,
,,,,,,,,,,,,,,,,,,,,,,,15,0,15,0,959.1162125999108,,,,,,,,,,,,961.4785937000997,961.9783585001715,,,,2.3514156001619995,,,,,,,,,,,,None,None,,,,,,,,,,Vase,,,cuedRecallAdj,2,,,,,,,,,,,,,,,,,,,,,0,,,,,,,,,,,,,,,,,,,,,,,,,,,,,,,959.1063991002738,959.1162125999108,959.1162125999108,961.4758590999991,matt,return,2.3514156001619995,None,961.4761238000356,961.485617400147,961.485617400147,961.4784873002209,,None,,,,,2,2024-01-09_12h44.18.247,watkins1,2023.2.3,99.73311391974083,78,2024-01-09 12h44.29.372484 +0000,
,,,,,,,,,,,,,,,,,,,,,,,16,0,16,0,961.9876275002025,,,,,,,,,,,,964.8324159998447,965.3311071000062,,,,2.8318833000957966,,,,,,,,,,,,None,None,,,,,,,,,,Fahrrad,,,cuedRecallAdj,2,,,,,,,,,,,,,,,,,,,,,0,,,,,,,,,,,,,,,,,,,,,,,,,,,,,,,961.9786037001759,961.9876275002025,961.9876275002025,964.8294039000757,dunkel,return,2.8318833000957966,None,964.8296713000163,964.839119900018,964.839119900018,964.8323130002245,,None,,,,,2,2024-01-09_12h44.18.247,watkins1,2023.2.3,99.73311391974083,78,2024-01-09 12h44.29.372484 +0000,
,,,,,,,,,,,,,,,,,,,,,,,17,0,17,0,965.3410604000092,,,,,,,,,,,,974.4010609001853,974.8993226001039,,,,9.054431000258774,,,,,,,,,,,,None,None,,,,,,,,,,Rucksack,,,cuedRecallAdj,2,,,,,,,,,,,,,,,,,,,,,0,,,,,,,,,,,,,,,,,,,,,,,,,,,,,,,965.3313549002632,965.3410604000092,965.3410604000092,974.3976799999364,platt,return,9.054431000258774,None,974.397947399877,974.4072028999217,974.4072028999217,974.4009595001116,,None,,,,,2,2024-01-09_12h44.18.247,watkins1,2023.2.3,99.73311391974083,78,2024-01-09 12h44.29.372484 +0000,
,,,,,,,,,,,,,,,,,,,,,,,18,0,18,0,974.9092685999349,,,,,,,,,,,,976.6796651002951,977.1783050000668,,,,1.7662881999276578,,,,,,,,,,,,None,None,,,,,,,,,,Flasche,,,cuedRecallAdj,2,,,,,,,,,,,,,,,,,,,,,0,,,,,,,,,,,,,,,,,,,,,,,,,,,,,,,974.8995711002499,974.9092685999349,974.9092685999349,976.6767715001479,dick,return,1.7662881999276578,None,976.677037099842,976.6863090000115,976.6863090000115,976.6795600000769,,None,,,,,2,2024-01-09_12h44.18.247,watkins1,2023.2.3,99.73311391974083,78,2024-01-09 12h44.29.372484 +0000,
,,,,,,,,,,,,,,,,,,,,,,,19,0,19,0,977.1882219999097,,,,,,,,,,,,980.2742804000154,980.7728613000363,,,,3.079317199997604,,,,,,,,,,,,None,None,,,,,,,,,,Kette,,,cuedRecallAdj,2,,,,,,,,,,,,,,,,,,,,,0,,,,,,,,,,,,,,,,,,,,,,,,,,,,,,,977.1785524999723,977.1882219999097,977.1882219999097,980.2712468998507,hässlich,return,3.079317199997604,None,980.2715135002509,980.2808292000555,980.2808292000555,980.274176500272,,None,,,,,2,2024-01-09_12h44.18.247,watkins1,2023.2.3,99.73311391974083,78,2024-01-09 12h44.29.372484 +0000,
,,,,,,,,,,,,,,,,,,,,,,,20,0,20,0,980.7828028998338,,,,,,,,,,,,990.9576856000349,991.4563438002951,,,,10.164840700104833,,,,,,,,,,,,None,None,,,,,,,,,,Ring,,,cuedRecallAdj,2,,,,,,,,,,,,,,,,,,,,,0,,,,,,,,,,,,,,,,,,,,,,,,,,,,,,,980.7731087002903,980.7828028998338,980.7828028998338,990.9547145999968,strahlend,return,10.164840700104833,None,990.9549849000759,990.9642861001194,990.9642861001194,990.9575811000541,,None,,,,,2,2024-01-09_12h44.18.247,watkins1,2023.2.3,99.73311391974083,78,2024-01-09 12h44.29.372484 +0000,
,,,,,,,,,,,,,,,,,,,,,,,21,0,21,0,991.4662895998918,,,,,,,,,,,,993.3671254999936,993.865833400283,,,,1.8892924999818206,,,,,,,,,,,,None,None,,,,,,,,,,Schlüssel,,,cuedRecallAdj,2,,,,,,,,,,,,,,,,,,,,,0,,,,,,,,,,,,,,,,,,,,,,,,,,,,,,,991.4565924000926,991.4662895998918,991.4662895998918,993.3641747999936,hohl,return,1.8892924999818206,None,993.3644441999495,993.3738291999325,993.3738291999325,993.3670235001482,,None,,,,,2,2024-01-09_12h44.18.247,watkins1,2023.2.3,99.73311391974083,78,2024-01-09 12h44.29.372484 +0000,
,,,,,,,,,,,,,,,,,,,,,,,22,0,22,0,993.8757465002127,,,,,,,,,,,,996.9616370000876,997.4603277998976,,,,3.0797617002390325,,,,,,,,,,,,None,None,,,,,,,,,,Geige,,,cuedRecallAdj,2,,,,,,,,,,,,,,,,,,,,,0,,,,,,,,,,,,,,,,,,,,,,,,,,,,,,,993.8660834999755,993.8757465002127,993.8757465002127,996.9586879000999,kaputt,return,3.0797617002390325,None,996.9589577000588,996.9682606998831,996.9682606998831,996.9615338002332,,None,,,,,2,2024-01-09_12h44.18.247,watkins1,2023.2.3,99.73311391974083,78,2024-01-09 12h44.29.372484 +0000,
,,,,,,,,,,,,,,,,,,,,,,,23,0,23,0,997.4702737000771,,,,,,,,,,,,1002.624459899962,1003.1232110001147,,,,5.141276899725199,,,,,,,,,,,,None,None,,,,,,,,,,Uhr,,,cuedRecallAdj,2,,,,,,,,,,,,,,,,,,,,,0,,,,,,,,,,,,,,,,,,,,,,,,,,,,,,,997.460580999963,997.4702737000771,997.4702737000771,1002.6214708001353,breit,return,5.141276899725199,None,1002.6217395002022,1002.631178600248,1002.631178600248,1002.6243576002307,,None,,,,,2,2024-01-09_12h44.18.247,watkins1,2023.2.3,99.73311391974083,78,2024-01-09 12h44.29.372484 +0000,
,,,,,,,,,,,,,,,,,,,,,,,24,0,24,0,1003.1331585999578,,,,,,,,,,,,1008.0963000999764,1008.5950063001364,,,,4.958491099998355,,,,,,,,,,,,None,None,,,,,,,,,,Trommel,,,cuedRecallAdj,2,,,,,,,,,,,,,,,,,,,,,0,,,,,,,,,,,,,,,,,,,,,,,,,,,,,,,1003.1234515001997,1003.1331585999578,1003.1331585999578,1008.0933767999522,kalt,return,4.958491099998355,None,1008.0936650000513,1008.1029786998406,1008.1029786998406,1008.0961974998936,,None,,,,,2,2024-01-09_12h44.18.247,watkins1,2023.2.3,99.73311391974083,78,2024-01-09 12h44.29.372484 +0000,
,,,,,,,,,,,,,,,,,,,,,,,25,0,25,0,1008.604929599911,,,,,,,,,,,,1011.87245120015,1012.3713151002303,,,,3.2546923998743296,,,,,,,,,,,,None,None,,,,,,,,,,Buch,,,cuedRecallAdj,2,,,,,,,,,,,,,,,,,,,,,0,,,,,,,,,,,,,,,,,,,,,,,,,,,,,,,1008.5952511001378,1008.604929599911,1008.604929599911,1011.8695286000147,sportlich,return,3.2546923998743296,None,1011.8697938001715,1011.8792646001093,1011.8792646001093,1011.8723476999439,,None,,,,,2,2024-01-09_12h44.18.247,watkins1,2023.2.3,99.73311391974083,78,2024-01-09 12h44.29.372484 +0000,
,,,,,,,,,,,,,,,,,,,,,,,26,0,26,0,1012.3812567000277,,,,,,,,,,,,1016.7118207998574,1017.2104254001752,,,,4.326386299915612,,,,,,,,,,,,None,None,,,,,,,,,,Hammer,,,cuedRecallAdj,2,,,,,,,,,,,,,,,,,,,,,0,,,,,,,,,,,,,,,,,,,,,,,,,,,,,,,1012.371563100256,1012.3812567000277,1012.3812567000277,1016.7088514999487,schlicht,return,4.326386299915612,None,1016.709111600183,1016.7184967002831,1016.7184967002831,1016.7117178998888,,None,,,,,2,2024-01-09_12h44.18.247,watkins1,2023.2.3,99.73311391974083,78,2024-01-09 12h44.29.372484 +0000,
,,,,,,,,,,,,,,,,,,,,,,,27,0,27,0,1017.2204207000323,,,,,,,,,,,,1021.6315927002579,1022.1302900998853,,,,4.4071420999243855,,,,,,,,,,,,None,None,,,,,,,,,,Blume,,,cuedRecallAdj,2,,,,,,,,,,,,,,,,,,,,,0,,,,,,,,,,,,,,,,,,,,,,,,,,,,,,,1017.2106726001948,1017.2204207000323,1017.2204207000323,1021.6286805998534,klobig,return,4.4071420999243855,None,1021.6289421999827,1021.6381855001673,1021.6381855001673,1021.6314916000701,,None,,,,,2,2024-01-09_12h44.18.247,watkins1,2023.2.3,99.73311391974083,78,2024-01-09 12h44.29.372484 +0000,
,,,,,,,,,,,,,,,,,,,,,,,28,0,28,0,1022.1401867000386,,,,,,,,,,,,1024.2623674999923,1024.7612021001987,,,,2.111274099908769,,,,,,,,,,,,None,None,,,,,,,,,,Kerze,,,cuedRecallAdj,2,,,,,,,,,,,,,,,,,,,,,0,,,,,,,,,,,,,,,,,,,,,,,,,,,,,,,1022.1305402000435,1022.1401867000386,1022.1401867000386,1024.2594563001767,teuer,return,2.111274099908769,None,1024.2597149000503,1024.2691287002526,1024.2691287002526,1024.262266700156,,None,,,,,2,2024-01-09_12h44.18.247,watkins1,2023.2.3,99.73311391974083,78,2024-01-09 12h44.29.372484 +0000,
,,,,,,,,,,,,,,,,,,,,,,,29,0,29,0,1024.7711088000797,,,,,,,,,,,,1029.6444363002665,1030.1431610998698,,,,4.864408700261265,,,,,,,,,,,,None,None,,,,,,,,,,Stift,,,cuedRecallAdj,2,,,,,,,,,,,,,,,,,,,,,0,,,,,,,,,,,,,,,,,,,,,,,,,,,,,,,1024.761468200013,1024.7711088000797,1024.7711088000797,1029.641476099845,rustikal,return,4.864408700261265,None,1029.6417362000793,1029.6509982999414,1029.6509982999414,1029.644335700199,,None,,,,,2,2024-01-09_12h44.18.247,watkins1,2023.2.3,99.73311391974083,78,2024-01-09 12h44.29.372484 +0000,
,,,,,,,,,,,,,,,,,,,,,,,,,,,,,,,,,,,,,,,,,,,,,,,,,,,,,,,,,,,,,,,,,,,,,,,2,,,,,,,,,,,,,,,,,,,,,,,,,,,,,,,,,,,,,,,,,,,,,,,,,,,,,,,,,,,,,,,,,,1030.1598092000932,q,2096.251980600413,None,2,2024-01-09_12h44.18.247,watkins1,2023.2.3,99.73311391974083,78,2024-01-09 12h44.29.372484 +0000,
