Equation,CorrectResponse,Correctbutton,trials_7.thisRepN,trials_7.thisTrialN,trials_7.thisN,trials_7.thisIndex,trials.thisRepN,trials.thisTrialN,trials.thisN,trials.thisIndex,trials_3.thisRepN,trials_3.thisTrialN,trials_3.thisN,trials_3.thisIndex,trials_2.thisRepN,trials_2.thisTrialN,trials_2.thisN,trials_2.thisIndex,trials_4.thisRepN,trials_4.thisTrialN,trials_4.thisN,trials_4.thisIndex,trials_5.thisRepN,trials_5.thisTrialN,trials_5.thisN,trials_5.thisIndex,thisRow.t,notes,code_marius.started,code_marius.stopped,welcome.started,welcome.stopped,instruction_study.started,instruction_study.stopped,fixationcross.started,fixationcross.stopped,blanc.started,blanc.stopped,study_control_probe.started,study_control_probe.stopped,responseKey,responseTime,scale_answer_2.keys,study_control_probe_2.started,study_control_probe_2.stopped,scale_answer_3.keys,scale_answer_3.rt,scale_answer_3.duration,blanc_2.started,blanc_2.stopped,test_attr_probe.started,test_attr_probe.stopped,recalled_attr,firstKeyTime,secondWordTime,blanc_3.started,blanc_3.stopped,test_sub_probe.started,test_sub_probe.stopped,recalled_sub,instruction_probe_end.started,instruction_probe_end.stopped,study.started,study.stopped,substantive,adjective,wordpair,task,condition,liste_sub_phase1,liste_adj_phase1,scale_answer.keys,scale_answer.rt,scale_answer.duration,code_defineWordsInit.started,code_defineWordsInit.stopped,liste_sub_phase2,study_control.started,study_control.stopped,scale_answer_4.keys,restudy_same.started,restudy_same.stopped,scale_answer_5.keys,restudy_different.started,restudy_different.stopped,scale_answer_6.keys,scale_answer_6.rt,scale_answer_6.duration,test_attr.started,test_attr.stopped,test_sub.started,test_sub.stopped,scale_answer_4.rt,scale_answer_4.duration,distractortask.started,equation_text.started,distractortask.stopped,mouse_answer.x,mouse_answer.y,mouse_answer.leftButton,mouse_answer.midButton,mouse_answer.rightButton,mouse_answer.time,mouse_answer.clicked_name,feedback_distractortask.started,feedback_distractortask.stopped,free_recall.started,text_enter.started,key_resp.started,free_recall.stopped,key_resp.keys,key_resp.rt,key_resp.duration,free_recalled_sub,mouse_continue.x,mouse_continue.y,mouse_continue.leftButton,mouse_continue.midButton,mouse_continue.rightButton,mouse_continue.time,mouse_continue.clicked_name,cued_recall.started,text_enter_2.started,correct,key_continue.started,cued_recall.stopped,recalled_attr1,key_continue.keys,key_continue.rt,key_continue.duration,cued_recall_2.started,text_enter_3.started,key_continue_2.started,cued_recall_2.stopped,recalled_attr2,key_continue_2.keys,key_continue_2.rt,key_continue_2.duration,key_resp_8.started,key_resp_8.keys,key_resp_8.rt,key_resp_8.duration,condition,date,expName,psychopyVersion,frameRate,participant,expStart,
,,,,,,,,,,,,,,,,,,,,,,,,,,,,,0.1094065997749567,0.1094760000705719,0.10948449978604913,6.149546300061047,,,,,,,,,,,,,,,,,,,,,,,,,,,,,,,,,,,,,1,,,,,,,,,,,,,,,,,,,,,,,,,,,,,,,,,,,,,,,,,,,,,,,,,,,,,,,,,,,,,,,,,,,,,,,,,,1,2024-01-10_13h40.27.726,watkins1,2023.2.3,99.72565451617996,84,2024-01-10 13h40.44.718837 +0000,
,,,,,,,,,,,,,,,,,,,,,,,,,,,,,,,,,6.149596999865025,41.03706689970568,,,,,,,,,,,,,,,,,,,,,,,,,,,,,,,,,,,1,,,,,,,,,,,,,,,,,,,,,,,,,,,,,,,,,,,,,,,,,,,,,,,,,,,,,,,,,,,,,,,,,,,,,,,,,,1,2024-01-10_13h40.27.726,watkins1,2023.2.3,99.72565451617996,84,2024-01-10 13h40.44.718837 +0000,
,,,0,0,0,0,,,,,,,,,,,,,,,,,,,,,42.05108009977266,,,,,,,,41.03708350006491,42.0411296999082,48.54116779984906,49.03249399969354,42.533075499814004,48.54099809983745,3,3.195846099872142,None,49.03250479977578,55.0334803997539,3,3.195846099872142,None,55.03377609979361,55.03380049997941,55.03380770003423,55.03389129973948,,None,None,55.03406189987436,55.03408239968121,55.03408950008452,55.03416469972581,,,,,,,,,,1,,,,,,,,,,,,,,,,,,,,,,,,,,,,,,,,,,,,,,,,,,,,,,,,,,,,,,,,,,,,,,,,,,,,,,,,,,1,2024-01-10_13h40.27.726,watkins1,2023.2.3,99.72565451617996,84,2024-01-10 13h40.44.718837 +0000,
,,,,,,,,,,,,,,,,,,,,,,,,,,,,,,,,,,,,,,,,,,,,,,,,,,,,,,,,,,,,,55.03428009990603,59.498157899826765,,,,,,,1,,,,,,,,,,,,,,,,,,,,,,,,,,,,,,,,,,,,,,,,,,,,,,,,,,,,,,,,,,,,,,,,,,,,,,,,,,1,2024-01-10_13h40.27.726,watkins1,2023.2.3,99.72565451617996,84,2024-01-10 13h40.44.718837 +0000,
,,,,,,,0,0,0,0,,,,,,,,,,,,,,,,,60.51197159988806,,,,,,,,59.49817409971729,60.5018841996789,60.502331600058824,60.99390419991687,,,3,1.7773513002321124,,,,,,,,,,,,,,,,,,,,,60.9939151997678,66.99556089984253,Tasche,praktisch,"['Tasche', 'praktisch']",restudy_diff,1,"['Tasche', 'Fahrrad', 'Bürste', 'Socke', 'Lampe', 'Flasche', 'Brille', 'Kiste', 'Vase', 'Uhr', 'Telefon', 'Schere', 'Blume', 'Löffel', 'Eimer', 'Kerze', 'Jacke', 'Hammer', 'Würfel', 'Schlüssel', 'Stift', 'Tasse']",['praktisch'],3,1.7773513002321124,None,,,,,,,,,,,,,,,,,,,,,,,,,,,,,,,,,,,,,,,,,,,,,,,,,,,,,,,,,,,,,,,,,,,,,1,2024-01-10_13h40.27.726,watkins1,2023.2.3,99.72565451617996,84,2024-01-10 13h40.44.718837 +0000,
,,,,,,,1,0,1,0,,,,,,,,,,,,,,,,,67.00500819971785,,,,,,,,,,66.99620799999684,67.4873556997627,,,2,3.887299899943173,,,,,,,,,,,,,,,,,,,,,67.48736599972472,73.4955966998823,Fahrrad,glänzend,"['Fahrrad', 'glänzend']",restudy_diff,1,"['Tasche', 'Fahrrad', 'Bürste', 'Socke', 'Lampe', 'Flasche', 'Brille', 'Kiste', 'Vase', 'Uhr', 'Telefon', 'Schere', 'Blume', 'Löffel', 'Eimer', 'Kerze', 'Jacke', 'Hammer', 'Würfel', 'Schlüssel', 'Stift', 'Tasse']","['praktisch', 'glänzend']",2,3.887299899943173,None,,,,,,,,,,,,,,,,,,,,,,,,,,,,,,,,,,,,,,,,,,,,,,,,,,,,,,,,,,,,,,,,,,,,,1,2024-01-10_13h40.27.726,watkins1,2023.2.3,99.72565451617996,84,2024-01-10 13h40.44.718837 +0000,
,,,,,,,2,0,2,0,,,,,,,,,,,,,,,,,73.5050447001122,,,,,,,,,,73.49606700008735,73.98715770011768,,,1,2.254179199691862,,,,,,,,,,,,,,,,,,,,,73.98716779984534,79.99082090007141,Bürste,zart,"['Bürste', 'zart']",control,1,"['Tasche', 'Fahrrad', 'Bürste', 'Socke', 'Lampe', 'Flasche', 'Brille', 'Kiste', 'Vase', 'Uhr', 'Telefon', 'Schere', 'Blume', 'Löffel', 'Eimer', 'Kerze', 'Jacke', 'Hammer', 'Würfel', 'Schlüssel', 'Stift', 'Tasse']","['praktisch', 'glänzend', 'zart']",1,2.254179199691862,None,,,,,,,,,,,,,,,,,,,,,,,,,,,,,,,,,,,,,,,,,,,,,,,,,,,,,,,,,,,,,,,,,,,,,1,2024-01-10_13h40.27.726,watkins1,2023.2.3,99.72565451617996,84,2024-01-10 13h40.44.718837 +0000,
,,,,,,,3,0,3,0,,,,,,,,,,,,,,,,,80.00025160005316,,,,,,,,,,79.99139670003206,80.48219819972292,,,2,2.6457615001127124,,,,,,,,,,,,,,,,,,,,,80.48220840003341,86.48513650009409,Socke,hübsch,"['Socke', 'hübsch']",control,1,"['Tasche', 'Fahrrad', 'Bürste', 'Socke', 'Lampe', 'Flasche', 'Brille', 'Kiste', 'Vase', 'Uhr', 'Telefon', 'Schere', 'Blume', 'Löffel', 'Eimer', 'Kerze', 'Jacke', 'Hammer', 'Würfel', 'Schlüssel', 'Stift', 'Tasse']","['praktisch', 'glänzend', 'zart', 'hübsch']",2,2.6457615001127124,None,,,,,,,,,,,,,,,,,,,,,,,,,,,,,,,,,,,,,,,,,,,,,,,,,,,,,,,,,,,,,,,,,,,,,1,2024-01-10_13h40.27.726,watkins1,2023.2.3,99.72565451617996,84,2024-01-10 13h40.44.718837 +0000,
,,,,,,,4,0,4,0,,,,,,,,,,,,,,,,,86.49455859977752,,,,,,,,,,86.4856183999218,86.97666579997167,,,1,1.5916248001158237,,,,,,,,,,,,,,,,,,,,,86.97667609993368,92.97868799977005,Lampe,breit,"['Lampe', 'breit']",restudy_diff,1,"['Tasche', 'Fahrrad', 'Bürste', 'Socke', 'Lampe', 'Flasche', 'Brille', 'Kiste', 'Vase', 'Uhr', 'Telefon', 'Schere', 'Blume', 'Löffel', 'Eimer', 'Kerze', 'Jacke', 'Hammer', 'Würfel', 'Schlüssel', 'Stift', 'Tasse']","['praktisch', 'glänzend', 'zart', 'hübsch', 'breit']",1,1.5916248001158237,None,,,,,,,,,,,,,,,,,,,,,,,,,,,,,,,,,,,,,,,,,,,,,,,,,,,,,,,,,,,,,,,,,,,,,1,2024-01-10_13h40.27.726,watkins1,2023.2.3,99.72565451617996,84,2024-01-10 13h40.44.718837 +0000,
,,,,,,,5,0,5,0,,,,,,,,,,,,,,,,,92.9882171000354,,,,,,,,,,92.97917030006647,93.47027709987015,,,1,2.1070524998940527,,,,,,,,,,,,,,,,,,,,,93.4702877998352,99.47152779996395,Flasche,gut,"['Flasche', 'gut']",restudy_diff,1,"['Tasche', 'Fahrrad', 'Bürste', 'Socke', 'Lampe', 'Flasche', 'Brille', 'Kiste', 'Vase', 'Uhr', 'Telefon', 'Schere', 'Blume', 'Löffel', 'Eimer', 'Kerze', 'Jacke', 'Hammer', 'Würfel', 'Schlüssel', 'Stift', 'Tasse']","['praktisch', 'glänzend', 'zart', 'hübsch', 'breit', 'gut']",1,2.1070524998940527,None,,,,,,,,,,,,,,,,,,,,,,,,,,,,,,,,,,,,,,,,,,,,,,,,,,,,,,,,,,,,,,,,,,,,,1,2024-01-10_13h40.27.726,watkins1,2023.2.3,99.72565451617996,84,2024-01-10 13h40.44.718837 +0000,
,,,,,,,6,0,6,0,,,,,,,,,,,,,,,,,99.48103930009529,,,,,,,,,,99.472022799775,99.96313520008698,,,1,1.2870949995703995,,,,,,,,,,,,,,,,,,,,,99.96314499992877,105.9653616999276,Brille,krumm,"['Brille', 'krumm']",restudy_diff,1,"['Tasche', 'Fahrrad', 'Bürste', 'Socke', 'Lampe', 'Flasche', 'Brille', 'Kiste', 'Vase', 'Uhr', 'Telefon', 'Schere', 'Blume', 'Löffel', 'Eimer', 'Kerze', 'Jacke', 'Hammer', 'Würfel', 'Schlüssel', 'Stift', 'Tasse']","['praktisch', 'glänzend', 'zart', 'hübsch', 'breit', 'gut', 'krumm']",1,1.2870949995703995,None,,,,,,,,,,,,,,,,,,,,,,,,,,,,,,,,,,,,,,,,,,,,,,,,,,,,,,,,,,,,,,,,,,,,,1,2024-01-10_13h40.27.726,watkins1,2023.2.3,99.72565451617996,84,2024-01-10 13h40.44.718837 +0000,
,,,,,,,7,0,7,0,,,,,,,,,,,,,,,,,105.97477980004624,,,,,,,,,,105.96585060004145,106.45728900004178,,,3,3.919606300070882,,,,,,,,,,,,,,,,,,,,,106.45730180013925,112.46089809993282,Kiste,gepunktet,"['Kiste', 'gepunktet']",restudy_diff,1,"['Tasche', 'Fahrrad', 'Bürste', 'Socke', 'Lampe', 'Flasche', 'Brille', 'Kiste', 'Vase', 'Uhr', 'Telefon', 'Schere', 'Blume', 'Löffel', 'Eimer', 'Kerze', 'Jacke', 'Hammer', 'Würfel', 'Schlüssel', 'Stift', 'Tasse']","['praktisch', 'glänzend', 'zart', 'hübsch', 'breit', 'gut', 'krumm', 'gepunktet']",3,3.919606300070882,None,,,,,,,,,,,,,,,,,,,,,,,,,,,,,,,,,,,,,,,,,,,,,,,,,,,,,,,,,,,,,,,,,,,,,1,2024-01-10_13h40.27.726,watkins1,2023.2.3,99.72565451617996,84,2024-01-10 13h40.44.718837 +0000,
,,,,,,,8,0,8,0,,,,,,,,,,,,,,,,,112.47037940006703,,,,,,,,,,112.46139909978956,112.95237720012665,,,1,2.816407900303602,,,,,,,,,,,,,,,,,,,,,112.95238729985431,118.96014830004424,Vase,strahlend,"['Vase', 'strahlend']",restudy_diff,1,"['Tasche', 'Fahrrad', 'Bürste', 'Socke', 'Lampe', 'Flasche', 'Brille', 'Kiste', 'Vase', 'Uhr', 'Telefon', 'Schere', 'Blume', 'Löffel', 'Eimer', 'Kerze', 'Jacke', 'Hammer', 'Würfel', 'Schlüssel', 'Stift', 'Tasse']","['praktisch', 'glänzend', 'zart', 'hübsch', 'breit', 'gut', 'krumm', 'gepunktet', 'strahlend']",1,2.816407900303602,None,,,,,,,,,,,,,,,,,,,,,,,,,,,,,,,,,,,,,,,,,,,,,,,,,,,,,,,,,,,,,,,,,,,,,1,2024-01-10_13h40.27.726,watkins1,2023.2.3,99.72565451617996,84,2024-01-10 13h40.44.718837 +0000,
,,,,,,,9,0,9,0,,,,,,,,,,,,,,,,,118.96961529972032,,,,,,,,,,118.96064059995115,119.45248039998114,,,2,2.9719150997698307,,,,,,,,,,,,,,,,,,,,,119.45249120006338,125.454141699709,Uhr,gestreift,"['Uhr', 'gestreift']",restudy_diff,1,"['Tasche', 'Fahrrad', 'Bürste', 'Socke', 'Lampe', 'Flasche', 'Brille', 'Kiste', 'Vase', 'Uhr', 'Telefon', 'Schere', 'Blume', 'Löffel', 'Eimer', 'Kerze', 'Jacke', 'Hammer', 'Würfel', 'Schlüssel', 'Stift', 'Tasse']","['praktisch', 'glänzend', 'zart', 'hübsch', 'breit', 'gut', 'krumm', 'gepunktet', 'strahlend', 'gestreift']",2,2.9719150997698307,None,,,,,,,,,,,,,,,,,,,,,,,,,,,,,,,,,,,,,,,,,,,,,,,,,,,,,,,,,,,,,,,,,,,,,1,2024-01-10_13h40.27.726,watkins1,2023.2.3,99.72565451617996,84,2024-01-10 13h40.44.718837 +0000,
,,,,,,,10,0,10,0,,,,,,,,,,,,,,,,,125.46367800002918,,,,,,,,,,125.45462749991566,125.94571939995512,,,1,1.5433498001657426,,,,,,,,,,,,,,,,,,,,,125.94572949968278,131.94934639986604,Telefon,durchsichtig,"['Telefon', 'durchsichtig']",restudy_diff,1,"['Tasche', 'Fahrrad', 'Bürste', 'Socke', 'Lampe', 'Flasche', 'Brille', 'Kiste', 'Vase', 'Uhr', 'Telefon', 'Schere', 'Blume', 'Löffel', 'Eimer', 'Kerze', 'Jacke', 'Hammer', 'Würfel', 'Schlüssel', 'Stift', 'Tasse']","['praktisch', 'glänzend', 'zart', 'hübsch', 'breit', 'gut', 'krumm', 'gepunktet', 'strahlend', 'gestreift', 'durchsichtig']",1,1.5433498001657426,None,,,,,,,,,,,,,,,,,,,,,,,,,,,,,,,,,,,,,,,,,,,,,,,,,,,,,,,,,,,,,,,,,,,,,1,2024-01-10_13h40.27.726,watkins1,2023.2.3,99.72565451617996,84,2024-01-10 13h40.44.718837 +0000,
,,,,,,,11,0,11,0,,,,,,,,,,,,,,,,,131.95879809977487,,,,,,,,,,131.94982329988852,132.44088899996132,,,2,3.6728248996660113,,,,,,,,,,,,,,,,,,,,,132.4408994000405,138.44162339996547,Schere,kratzig,"['Schere', 'kratzig']",control,1,"['Tasche', 'Fahrrad', 'Bürste', 'Socke', 'Lampe', 'Flasche', 'Brille', 'Kiste', 'Vase', 'Uhr', 'Telefon', 'Schere', 'Blume', 'Löffel', 'Eimer', 'Kerze', 'Jacke', 'Hammer', 'Würfel', 'Schlüssel', 'Stift', 'Tasse']","['praktisch', 'glänzend', 'zart', 'hübsch', 'breit', 'gut', 'krumm', 'gepunktet', 'strahlend', 'gestreift', 'durchsichtig', 'kratzig']",2,3.6728248996660113,None,,,,,,,,,,,,,,,,,,,,,,,,,,,,,,,,,,,,,,,,,,,,,,,,,,,,,,,,,,,,,,,,,,,,,1,2024-01-10_13h40.27.726,watkins1,2023.2.3,99.72565451617996,84,2024-01-10 13h40.44.718837 +0000,
,,,,,,,12,0,12,0,,,,,,,,,,,,,,,,,138.45103240013123,,,,,,,,,,138.44209739984944,138.9329089000821,,,1,1.4045954002067447,,,,,,,,,,,,,,,,,,,,,138.9329196996987,144.94280759990215,Blume,kaputt,"['Blume', 'kaputt']",control,1,"['Tasche', 'Fahrrad', 'Bürste', 'Socke', 'Lampe', 'Flasche', 'Brille', 'Kiste', 'Vase', 'Uhr', 'Telefon', 'Schere', 'Blume', 'Löffel', 'Eimer', 'Kerze', 'Jacke', 'Hammer', 'Würfel', 'Schlüssel', 'Stift', 'Tasse']","['praktisch', 'glänzend', 'zart', 'hübsch', 'breit', 'gut', 'krumm', 'gepunktet', 'strahlend', 'gestreift', 'durchsichtig', 'kratzig', 'kaputt']",1,1.4045954002067447,None,,,,,,,,,,,,,,,,,,,,,,,,,,,,,,,,,,,,,,,,,,,,,,,,,,,,,,,,,,,,,,,,,,,,,1,2024-01-10_13h40.27.726,watkins1,2023.2.3,99.72565451617996,84,2024-01-10 13h40.44.718837 +0000,
,,,,,,,13,0,13,0,,,,,,,,,,,,,,,,,144.95224629994482,,,,,,,,,,144.94328959984705,145.43438419979066,,,2,2.83040209999308,,,,,,,,,,,,,,,,,,,,,145.43439469998702,151.44490560004488,Löffel,schlicht,"['Löffel', 'schlicht']",restudy_diff,1,"['Tasche', 'Fahrrad', 'Bürste', 'Socke', 'Lampe', 'Flasche', 'Brille', 'Kiste', 'Vase', 'Uhr', 'Telefon', 'Schere', 'Blume', 'Löffel', 'Eimer', 'Kerze', 'Jacke', 'Hammer', 'Würfel', 'Schlüssel', 'Stift', 'Tasse']","['praktisch', 'glänzend', 'zart', 'hübsch', 'breit', 'gut', 'krumm', 'gepunktet', 'strahlend', 'gestreift', 'durchsichtig', 'kratzig', 'kaputt', 'schlicht']",2,2.83040209999308,None,,,,,,,,,,,,,,,,,,,,,,,,,,,,,,,,,,,,,,,,,,,,,,,,,,,,,,,,,,,,,,,,,,,,,1,2024-01-10_13h40.27.726,watkins1,2023.2.3,99.72565451617996,84,2024-01-10 13h40.44.718837 +0000,
,,,,,,,14,0,14,0,,,,,,,,,,,,,,,,,151.45440359972417,,,,,,,,,,151.44539369968697,151.93633859977126,,,3,1.8964677001349628,,,,,,,,,,,,,,,,,,,,,151.93634969973937,157.94679589988664,Eimer,neu,"['Eimer', 'neu']",control,1,"['Tasche', 'Fahrrad', 'Bürste', 'Socke', 'Lampe', 'Flasche', 'Brille', 'Kiste', 'Vase', 'Uhr', 'Telefon', 'Schere', 'Blume', 'Löffel', 'Eimer', 'Kerze', 'Jacke', 'Hammer', 'Würfel', 'Schlüssel', 'Stift', 'Tasse']","['praktisch', 'glänzend', 'zart', 'hübsch', 'breit', 'gut', 'krumm', 'gepunktet', 'strahlend', 'gestreift', 'durchsichtig', 'kratzig', 'kaputt', 'schlicht', 'neu']",3,1.8964677001349628,None,,,,,,,,,,,,,,,,,,,,,,,,,,,,,,,,,,,,,,,,,,,,,,,,,,,,,,,,,,,,,,,,,,,,,1,2024-01-10_13h40.27.726,watkins1,2023.2.3,99.72565451617996,84,2024-01-10 13h40.44.718837 +0000,
,,,,,,,15,0,15,0,,,,,,,,,,,,,,,,,157.95623270003125,,,,,,,,,,157.94727029977366,158.43814470013604,,,1,1.323424099944532,,,,,,,,,,,,,,,,,,,,,158.43815569998696,164.44596449984238,Kerze,lustig,"['Kerze', 'lustig']",restudy_diff,1,"['Tasche', 'Fahrrad', 'Bürste', 'Socke', 'Lampe', 'Flasche', 'Brille', 'Kiste', 'Vase', 'Uhr', 'Telefon', 'Schere', 'Blume', 'Löffel', 'Eimer', 'Kerze', 'Jacke', 'Hammer', 'Würfel', 'Schlüssel', 'Stift', 'Tasse']","['praktisch', 'glänzend', 'zart', 'hübsch', 'breit', 'gut', 'krumm', 'gepunktet', 'strahlend', 'gestreift', 'durchsichtig', 'kratzig', 'kaputt', 'schlicht', 'neu', 'lustig']",1,1.323424099944532,None,,,,,,,,,,,,,,,,,,,,,,,,,,,,,,,,,,,,,,,,,,,,,,,,,,,,,,,,,,,,,,,,,,,,,1,2024-01-10_13h40.27.726,watkins1,2023.2.3,99.72565451617996,84,2024-01-10 13h40.44.718837 +0000,
,,,,,,,16,0,16,0,,,,,,,,,,,,,,,,,164.45539369992912,,,,,,,,,,164.44646759983152,164.93748300010338,,,2,2.007006600033492,,,,,,,,,,,,,,,,,,,,,164.93749279994518,170.93916489975527,Jacke,robust,"['Jacke', 'robust']",control,1,"['Tasche', 'Fahrrad', 'Bürste', 'Socke', 'Lampe', 'Flasche', 'Brille', 'Kiste', 'Vase', 'Uhr', 'Telefon', 'Schere', 'Blume', 'Löffel', 'Eimer', 'Kerze', 'Jacke', 'Hammer', 'Würfel', 'Schlüssel', 'Stift', 'Tasse']","['praktisch', 'glänzend', 'zart', 'hübsch', 'breit', 'gut', 'krumm', 'gepunktet', 'strahlend', 'gestreift', 'durchsichtig', 'kratzig', 'kaputt', 'schlicht', 'neu', 'lustig', 'robust']",2,2.007006600033492,None,,,,,,,,,,,,,,,,,,,,,,,,,,,,,,,,,,,,,,,,,,,,,,,,,,,,,,,,,,,,,,,,,,,,,1,2024-01-10_13h40.27.726,watkins1,2023.2.3,99.72565451617996,84,2024-01-10 13h40.44.718837 +0000,
,,,,,,,17,0,17,0,,,,,,,,,,,,,,,,,170.94861909979954,,,,,,,,,,170.9396584997885,171.43072499986738,,,1,1.5943305999971926,,,,,,,,,,,,,,,,,,,,,171.43073579994962,177.4353187000379,Hammer,bunt,"['Hammer', 'bunt']",control,1,"['Tasche', 'Fahrrad', 'Bürste', 'Socke', 'Lampe', 'Flasche', 'Brille', 'Kiste', 'Vase', 'Uhr', 'Telefon', 'Schere', 'Blume', 'Löffel', 'Eimer', 'Kerze', 'Jacke', 'Hammer', 'Würfel', 'Schlüssel', 'Stift', 'Tasse']","['praktisch', 'glänzend', 'zart', 'hübsch', 'breit', 'gut', 'krumm', 'gepunktet', 'strahlend', 'gestreift', 'durchsichtig', 'kratzig', 'kaputt', 'schlicht', 'neu', 'lustig', 'robust', 'bunt']",1,1.5943305999971926,None,,,,,,,,,,,,,,,,,,,,,,,,,,,,,,,,,,,,,,,,,,,,,,,,,,,,,,,,,,,,,,,,,,,,,1,2024-01-10_13h40.27.726,watkins1,2023.2.3,99.72565451617996,84,2024-01-10 13h40.44.718837 +0000,
,,,,,,,18,0,18,0,,,,,,,,,,,,,,,,,177.4447972998023,,,,,,,,,,177.43580790003762,177.92681859992445,,,2,1.6011562002822757,,,,,,,,,,,,,,,,,,,,,177.92682919977233,183.93385499995202,Würfel,groß,"['Würfel', 'groß']",restudy_diff,1,"['Tasche', 'Fahrrad', 'Bürste', 'Socke', 'Lampe', 'Flasche', 'Brille', 'Kiste', 'Vase', 'Uhr', 'Telefon', 'Schere', 'Blume', 'Löffel', 'Eimer', 'Kerze', 'Jacke', 'Hammer', 'Würfel', 'Schlüssel', 'Stift', 'Tasse']","['praktisch', 'glänzend', 'zart', 'hübsch', 'breit', 'gut', 'krumm', 'gepunktet', 'strahlend', 'gestreift', 'durchsichtig', 'kratzig', 'kaputt', 'schlicht', 'neu', 'lustig', 'robust', 'bunt', 'groß']",2,1.6011562002822757,None,,,,,,,,,,,,,,,,,,,,,,,,,,,,,,,,,,,,,,,,,,,,,,,,,,,,,,,,,,,,,,,,,,,,,1,2024-01-10_13h40.27.726,watkins1,2023.2.3,99.72565451617996,84,2024-01-10 13h40.44.718837 +0000,
,,,,,,,19,0,19,0,,,,,,,,,,,,,,,,,183.94335529999807,,,,,,,,,,183.93434179993346,184.4254352999851,,,3,2.472109300084412,,,,,,,,,,,,,,,,,,,,,184.42544559994712,190.4334627999924,Schlüssel,rustikal,"['Schlüssel', 'rustikal']",restudy_diff,1,"['Tasche', 'Fahrrad', 'Bürste', 'Socke', 'Lampe', 'Flasche', 'Brille', 'Kiste', 'Vase', 'Uhr', 'Telefon', 'Schere', 'Blume', 'Löffel', 'Eimer', 'Kerze', 'Jacke', 'Hammer', 'Würfel', 'Schlüssel', 'Stift', 'Tasse']","['praktisch', 'glänzend', 'zart', 'hübsch', 'breit', 'gut', 'krumm', 'gepunktet', 'strahlend', 'gestreift', 'durchsichtig', 'kratzig', 'kaputt', 'schlicht', 'neu', 'lustig', 'robust', 'bunt', 'groß', 'rustikal']",3,2.472109300084412,None,,,,,,,,,,,,,,,,,,,,,,,,,,,,,,,,,,,,,,,,,,,,,,,,,,,,,,,,,,,,,,,,,,,,,1,2024-01-10_13h40.27.726,watkins1,2023.2.3,99.72565451617996,84,2024-01-10 13h40.44.718837 +0000,
,,,,,,,20,0,20,0,,,,,,,,,,,,,,,,,190.44286260008812,,,,,,,,,,190.43394060013816,190.9248779998161,,,1,1.7159123001620173,,,,,,,,,,,,,,,,,,,,,190.9248882997781,196.92628180002794,Stift,schwer,"['Stift', 'schwer']",restudy_diff,1,"['Tasche', 'Fahrrad', 'Bürste', 'Socke', 'Lampe', 'Flasche', 'Brille', 'Kiste', 'Vase', 'Uhr', 'Telefon', 'Schere', 'Blume', 'Löffel', 'Eimer', 'Kerze', 'Jacke', 'Hammer', 'Würfel', 'Schlüssel', 'Stift', 'Tasse']","['praktisch', 'glänzend', 'zart', 'hübsch', 'breit', 'gut', 'krumm', 'gepunktet', 'strahlend', 'gestreift', 'durchsichtig', 'kratzig', 'kaputt', 'schlicht', 'neu', 'lustig', 'robust', 'bunt', 'groß', 'rustikal', 'schwer']",1,1.7159123001620173,None,,,,,,,,,,,,,,,,,,,,,,,,,,,,,,,,,,,,,,,,,,,,,,,,,,,,,,,,,,,,,,,,,,,,,1,2024-01-10_13h40.27.726,watkins1,2023.2.3,99.72565451617996,84,2024-01-10 13h40.44.718837 +0000,
,,,,,,,21,0,21,0,,,,,,,,,,,,,,,,,196.93574670003727,,,,,,,,,,196.92678619967774,197.41782649978995,,,2,3.5598909999243915,,,,,,,,,,,,,,,,,,,,,197.41783699998632,203.4207206997089,Tasse,teuer,"['Tasse', 'teuer']",restudy_diff,1,"['Tasche', 'Fahrrad', 'Bürste', 'Socke', 'Lampe', 'Flasche', 'Brille', 'Kiste', 'Vase', 'Uhr', 'Telefon', 'Schere', 'Blume', 'Löffel', 'Eimer', 'Kerze', 'Jacke', 'Hammer', 'Würfel', 'Schlüssel', 'Stift', 'Tasse']","['praktisch', 'glänzend', 'zart', 'hübsch', 'breit', 'gut', 'krumm', 'gepunktet', 'strahlend', 'gestreift', 'durchsichtig', 'kratzig', 'kaputt', 'schlicht', 'neu', 'lustig', 'robust', 'bunt', 'groß', 'rustikal', 'schwer', 'teuer']",2,3.5598909999243915,None,,,,,,,,,,,,,,,,,,,,,,,,,,,,,,,,,,,,,,,,,,,,,,,,,,,,,,,,,,,,,,,,,,,,,1,2024-01-10_13h40.27.726,watkins1,2023.2.3,99.72565451617996,84,2024-01-10 13h40.44.718837 +0000,
,,,,,,,,,,,0,0,0,0,,,,,,,,,,,,,203.43028250010684,,,,,,,,,,203.421560799703,203.9123402000405,,,1,1.3392610000446439,,,,,,,,,,,,None,None,,,,,,,,,,Fahrrad,blass,"['Fahrrad', 'blass']",restudy_diff,1,,,,,,203.4214872997254,203.42153639998287,"['Fahrrad', 'Schlüssel', 'Geige', 'Tasse', 'Uhr', 'Würfel', 'Ring', 'Hut', 'Rucksack', 'Vase', 'Buch', 'Kamera', 'Kerze', 'Tasche', 'Telefon', 'Brille', 'Kette', 'Trommel', 'Stift', 'Flasche', 'Löffel', 'Kiste', 'Lampe']",203.9123505000025,203.91516100009903,None,203.91533580003306,203.91789510007948,None,203.91804799996316,209.92500389972702,1,1.3392610000446439,None,209.92540760012344,209.92675029998645,209.92676270008087,209.92793439980596,,,,,,,,,,,,,,,,,,,,,,,,,,,,,,,,,,,,,,,,,,,,,,,,,,,1,2024-01-10_13h40.27.726,watkins1,2023.2.3,99.72565451617996,84,2024-01-10 13h40.44.718837 +0000,
,,,,,,,,,,,1,0,1,0,,,,,,,,,,,,,209.93450749991462,,,,,,,,,,209.92821029992774,210.42649219976738,,,1,1.3772426997311413,,,,,,,,,,,,None,None,,,,,,,,,,Schlüssel,sportlich,"['Schlüssel', 'sportlich']",restudy_diff,1,,,,,,209.92814579978585,209.92818409996107,"['Fahrrad', 'Schlüssel', 'Geige', 'Tasse', 'Uhr', 'Würfel', 'Ring', 'Hut', 'Rucksack', 'Vase', 'Buch', 'Kamera', 'Kerze', 'Tasche', 'Telefon', 'Brille', 'Kette', 'Trommel', 'Stift', 'Flasche', 'Löffel', 'Kiste', 'Lampe']",210.42650299984962,210.42946569994092,None,210.42958729993552,210.43222810002044,None,210.4323336998932,216.44096049992368,1,1.3772426997311413,None,216.44124529976398,216.442644899711,216.44265710003674,216.44392189988866,,,,,,,,,,,,,,,,,,,,,,,,,,,,,,,,,,,,,,,,,,,,,,,,,,,1,2024-01-10_13h40.27.726,watkins1,2023.2.3,99.72565451617996,84,2024-01-10 13h40.44.718837 +0000,
,,,,,,,,,,,2,0,2,0,,,,,,,,,,,,,216.45045599993318,,,,,,,,,,216.44419569987804,216.9425210999325,,,[],[],,,,,,,,,,,,None,None,,,,,,,,,,Geige,klobig,"['Geige', 'klobig']",control,1,,,,,,216.4441305999644,216.44416929967701,"['Fahrrad', 'Schlüssel', 'Geige', 'Tasse', 'Uhr', 'Würfel', 'Ring', 'Hut', 'Rucksack', 'Vase', 'Buch', 'Kamera', 'Kerze', 'Tasche', 'Telefon', 'Brille', 'Kette', 'Trommel', 'Stift', 'Flasche', 'Löffel', 'Kiste', 'Lampe']",216.94253160012886,222.9462727000937,2,222.9466277998872,222.94929679995403,None,222.9494022000581,222.952269599773,None,,,222.9523748997599,222.95355479978025,222.95356639986858,222.95473949983716,1.7293365001678467,None,,,,,,,,,,,,,,,,,,,,,,,,,,,,,,,,,,,,,,,,,,,,,,,,,1,2024-01-10_13h40.27.726,watkins1,2023.2.3,99.72565451617996,84,2024-01-10 13h40.44.718837 +0000,
,,,,,,,,,,,3,0,3,0,,,,,,,,,,,,,222.95840679993853,,,,,,,,,,222.95501199970022,223.4523696997203,,,2,1.5620504999533296,,,,,,,,,,,,None,None,,,,,,,,,,Tasse,elegant,"['Tasse', 'elegant']",restudy_diff,1,,,,,,222.95494699990377,222.9549874998629,"['Fahrrad', 'Schlüssel', 'Geige', 'Tasse', 'Uhr', 'Würfel', 'Ring', 'Hut', 'Rucksack', 'Vase', 'Buch', 'Kamera', 'Kerze', 'Tasche', 'Telefon', 'Brille', 'Kette', 'Trommel', 'Stift', 'Flasche', 'Löffel', 'Kiste', 'Lampe']",223.4523805999197,223.45393730001524,None,223.45405580010265,223.45563580002636,None,223.45574369980022,229.45843190001324,2,1.5620504999533296,None,229.4587177997455,229.46003199974075,229.46004439983517,229.46127509977669,,,,,,,,,,,,,,,,,,,,,,,,,,,,,,,,,,,,,,,,,,,,,,,,,,,1,2024-01-10_13h40.27.726,watkins1,2023.2.3,99.72565451617996,84,2024-01-10 13h40.44.718837 +0000,
,,,,,,,,,,,4,0,4,0,,,,,,,,,,,,,229.46790869999677,,,,,,,,,,229.46155059989542,229.95990279968828,,,1,1.228027599863708,,,,,,,,,,,,None,None,,,,,,,,,,Uhr,verspielt,"['Uhr', 'verspielt']",restudy_diff,1,,,,,,229.4614854999818,229.4615241996944,"['Fahrrad', 'Schlüssel', 'Geige', 'Tasse', 'Uhr', 'Würfel', 'Ring', 'Hut', 'Rucksack', 'Vase', 'Buch', 'Kamera', 'Kerze', 'Tasche', 'Telefon', 'Brille', 'Kette', 'Trommel', 'Stift', 'Flasche', 'Löffel', 'Kiste', 'Lampe']",229.95991310011595,229.96258329972625,None,229.9627014999278,229.96511469967663,None,229.9652193998918,235.97559539973736,1,1.228027599863708,None,235.97587470011786,235.9770096996799,235.9770215000026,235.97828509984538,,,,,,,,,,,,,,,,,,,,,,,,,,,,,,,,,,,,,,,,,,,,,,,,,,,1,2024-01-10_13h40.27.726,watkins1,2023.2.3,99.72565451617996,84,2024-01-10 13h40.44.718837 +0000,
,,,,,,,,,,,5,0,5,0,,,,,,,,,,,,,235.98507039994,,,,,,,,,,235.9785524001345,236.477211299818,,,3,1.6385591002181172,,,,,,,,,,,,None,None,,,,,,,,,,Würfel,glatt,"['Würfel', 'glatt']",restudy_diff,1,,,,,,235.97848769975826,235.9785251999274,"['Fahrrad', 'Schlüssel', 'Geige', 'Tasse', 'Uhr', 'Würfel', 'Ring', 'Hut', 'Rucksack', 'Vase', 'Buch', 'Kamera', 'Kerze', 'Tasche', 'Telefon', 'Brille', 'Kette', 'Trommel', 'Stift', 'Flasche', 'Löffel', 'Kiste', 'Lampe']",236.47722180001438,236.48002839973196,None,236.48014919972047,236.48279329994693,None,236.4829061999917,242.49295669980347,3,1.6385591002181172,None,242.49323630006984,242.49453729996458,242.4945490998216,242.49571339972317,,,,,,,,,,,,,,,,,,,,,,,,,,,,,,,,,,,,,,,,,,,,,,,,,,,1,2024-01-10_13h40.27.726,watkins1,2023.2.3,99.72565451617996,84,2024-01-10 13h40.44.718837 +0000,
,,,,,,,,,,,6,0,6,0,,,,,,,,,,,,,242.50243359990418,,,,,,,,,,242.49598459992558,242.99459540005773,,,[],[],,,,,,,,,,,,None,None,,,,,,,,,,Ring,sauber,"['Ring', 'sauber']",control,1,,,,,,242.4959223996848,242.49595979973674,"['Fahrrad', 'Schlüssel', 'Geige', 'Tasse', 'Uhr', 'Würfel', 'Ring', 'Hut', 'Rucksack', 'Vase', 'Buch', 'Kamera', 'Kerze', 'Tasche', 'Telefon', 'Brille', 'Kette', 'Trommel', 'Stift', 'Flasche', 'Löffel', 'Kiste', 'Lampe']",242.9946061996743,248.9994942001067,2,248.99978199973702,249.0025905999355,None,249.00269729970023,249.00534169981256,None,,,249.00544459978119,249.00661640008911,249.0066291000694,249.00786439981312,1.7663393998518586,None,,,,,,,,,,,,,,,,,,,,,,,,,,,,,,,,,,,,,,,,,,,,,,,,,1,2024-01-10_13h40.27.726,watkins1,2023.2.3,99.72565451617996,84,2024-01-10 13h40.44.718837 +0000,
,,,,,,,,,,,7,0,7,0,,,,,,,,,,,,,249.01151559967548,,,,,,,,,,249.00813410012051,249.5051612998359,,,[],[],,,,,,,,,,,,None,None,,,,,,,,,,Hut,flauschig,"['Hut', 'flauschig']",control,1,,,,,,249.0080711999908,249.00811029970646,"['Fahrrad', 'Schlüssel', 'Geige', 'Tasse', 'Uhr', 'Würfel', 'Ring', 'Hut', 'Rucksack', 'Vase', 'Buch', 'Kamera', 'Kerze', 'Tasche', 'Telefon', 'Brille', 'Kette', 'Trommel', 'Stift', 'Flasche', 'Löffel', 'Kiste', 'Lampe']",249.50517199980095,255.51424589985982,2,255.51452900003642,255.51724680000916,None,255.5173526997678,255.51981319999322,None,,,255.51991749973968,255.52094419999048,255.5209558000788,255.52221520012245,3.128564899787307,None,,,,,,,,,,,,,,,,,,,,,,,,,,,,,,,,,,,,,,,,,,,,,,,,,1,2024-01-10_13h40.27.726,watkins1,2023.2.3,99.72565451617996,84,2024-01-10 13h40.44.718837 +0000,
,,,,,,,,,,,8,0,8,0,,,,,,,,,,,,,255.52593749994412,,,,,,,,,,255.5224886997603,256.01912359986454,,,[],[],,,,,,,,,,,,None,None,,,,,,,,,,Rucksack,lang,"['Rucksack', 'lang']",control,1,,,,,,255.52242500009015,255.52246459992602,"['Fahrrad', 'Schlüssel', 'Geige', 'Tasse', 'Uhr', 'Würfel', 'Ring', 'Hut', 'Rucksack', 'Vase', 'Buch', 'Kamera', 'Kerze', 'Tasche', 'Telefon', 'Brille', 'Kette', 'Trommel', 'Stift', 'Flasche', 'Löffel', 'Kiste', 'Lampe']",256.01913450006396,262.0269940998405,1,262.0272804000415,262.03008119994774,None,262.03018879983574,262.03268449986354,None,,,262.03279029997066,262.03404850000516,262.034060199745,262.03512059990317,1.8146649999544024,None,,,,,,,,,,,,,,,,,,,,,,,,,,,,,,,,,,,,,,,,,,,,,,,,,1,2024-01-10_13h40.27.726,watkins1,2023.2.3,99.72565451617996,84,2024-01-10 13h40.44.718837 +0000,
,,,,,,,,,,,9,0,9,0,,,,,,,,,,,,,262.03876579971984,,,,,,,,,,262.0353982998058,262.5320783997886,,,2,3.66656729998067,,,,,,,,,,,,None,None,,,,,,,,,,Vase,hohl,"['Vase', 'hohl']",restudy_diff,1,,,,,,262.03533439990133,262.03537369985133,"['Fahrrad', 'Schlüssel', 'Geige', 'Tasse', 'Uhr', 'Würfel', 'Ring', 'Hut', 'Rucksack', 'Vase', 'Buch', 'Kamera', 'Kerze', 'Tasche', 'Telefon', 'Brille', 'Kette', 'Trommel', 'Stift', 'Flasche', 'Löffel', 'Kiste', 'Lampe']",262.5320894001052,262.53354669967666,None,262.5336671997793,262.535033499822,None,262.53513849992305,268.538854399696,2,3.66656729998067,None,268.5391350998543,268.5404074997641,268.5404199999757,268.54145989986137,,,,,,,,,,,,,,,,,,,,,,,,,,,,,,,,,,,,,,,,,,,,,,,,,,,1,2024-01-10_13h40.27.726,watkins1,2023.2.3,99.72565451617996,84,2024-01-10 13h40.44.718837 +0000,
,,,,,,,,,,,10,0,10,0,,,,,,,,,,,,,268.5483216000721,,,,,,,,,,268.5417307000607,269.0404484998435,,,[],[],,,,,,,,,,,,None,None,,,,,,,,,,Buch,dick,"['Buch', 'dick']",control,1,,,,,,268.54166559968144,268.5417049000971,"['Fahrrad', 'Schlüssel', 'Geige', 'Tasse', 'Uhr', 'Würfel', 'Ring', 'Hut', 'Rucksack', 'Vase', 'Buch', 'Kamera', 'Kerze', 'Tasche', 'Telefon', 'Brille', 'Kette', 'Trommel', 'Stift', 'Flasche', 'Löffel', 'Kiste', 'Lampe']",269.0404594996944,275.0417205998674,3,275.0420029000379,275.0444299997762,None,275.04453539988026,275.04681670013815,None,,,275.0469232001342,275.047968799714,275.0479807998054,275.0490259998478,1.3858468001708388,None,,,,,,,,,,,,,,,,,,,,,,,,,,,,,,,,,,,,,,,,,,,,,,,,,1,2024-01-10_13h40.27.726,watkins1,2023.2.3,99.72565451617996,84,2024-01-10 13h40.44.718837 +0000,
,,,,,,,,,,,11,0,11,0,,,,,,,,,,,,,275.0527169997804,,,,,,,,,,275.0492974999361,275.54515070002526,,,[],[],,,,,,,,,,,,None,None,,,,,,,,,,Kamera,kurz,"['Kamera', 'kurz']",control,1,,,,,,275.04923459980637,275.0492734001018,"['Fahrrad', 'Schlüssel', 'Geige', 'Tasse', 'Uhr', 'Würfel', 'Ring', 'Hut', 'Rucksack', 'Vase', 'Buch', 'Kamera', 'Kerze', 'Tasche', 'Telefon', 'Brille', 'Kette', 'Trommel', 'Stift', 'Flasche', 'Löffel', 'Kiste', 'Lampe']",275.5451616998762,281.5542864999734,1,281.5545696998015,281.55714079970494,None,281.5572477998212,281.5597115997225,None,,,281.5598168000579,281.56101580010727,281.56102770008147,281.5620729001239,1.2085481001995504,None,,,,,,,,,,,,,,,,,,,,,,,,,,,,,,,,,,,,,,,,,,,,,,,,,1,2024-01-10_13h40.27.726,watkins1,2023.2.3,99.72565451617996,84,2024-01-10 13h40.44.718837 +0000,
,,,,,,,,,,,12,0,12,0,,,,,,,,,,,,,281.56577310012653,,,,,,,,,,281.5623465999961,282.0585431000218,,,1,2.3077674000523984,,,,,,,,,,,,None,None,,,,,,,,,,Kerze,niedlich,"['Kerze', 'niedlich']",restudy_diff,1,,,,,,281.5622835000977,281.56232259981334,"['Fahrrad', 'Schlüssel', 'Geige', 'Tasse', 'Uhr', 'Würfel', 'Ring', 'Hut', 'Rucksack', 'Vase', 'Buch', 'Kamera', 'Kerze', 'Tasche', 'Telefon', 'Brille', 'Kette', 'Trommel', 'Stift', 'Flasche', 'Löffel', 'Kiste', 'Lampe']",282.058553900104,282.06015900010243,None,282.0602794000879,282.0617341999896,None,282.06184049975127,288.06568480003625,1,2.3077674000523984,None,288.06597989983857,288.06728480011225,288.06729679973796,288.06854069978,,,,,,,,,,,,,,,,,,,,,,,,,,,,,,,,,,,,,,,,,,,,,,,,,,,1,2024-01-10_13h40.27.726,watkins1,2023.2.3,99.72565451617996,84,2024-01-10 13h40.44.718837 +0000,
,,,,,,,,,,,13,0,13,0,,,,,,,,,,,,,288.0751295997761,,,,,,,,,,288.0688180997968,288.5673921001144,,,3,1.7566824001260102,,,,,,,,,,,,None,None,,,,,,,,,,Tasche,schmutzig,"['Tasche', 'schmutzig']",restudy_diff,1,,,,,,288.06875289976597,288.0687917000614,"['Fahrrad', 'Schlüssel', 'Geige', 'Tasse', 'Uhr', 'Würfel', 'Ring', 'Hut', 'Rucksack', 'Vase', 'Buch', 'Kamera', 'Kerze', 'Tasche', 'Telefon', 'Brille', 'Kette', 'Trommel', 'Stift', 'Flasche', 'Löffel', 'Kiste', 'Lampe']",288.5674030999653,288.57030900008976,None,288.57042949972674,288.57304879976436,None,288.5731524997391,294.58225309988484,3,1.7566824001260102,None,294.5825371998362,294.5838587000035,294.5838709999807,294.58514849981293,,,,,,,,,,,,,,,,,,,,,,,,,,,,,,,,,,,,,,,,,,,,,,,,,,,1,2024-01-10_13h40.27.726,watkins1,2023.2.3,99.72565451617996,84,2024-01-10 13h40.44.718837 +0000,
,,,,,,,,,,,14,0,14,0,,,,,,,,,,,,,294.59172989986837,,,,,,,,,,294.5854229996912,295.08389359992,,,2,2.0239323996938765,,,,,,,,,,,,None,None,,,,,,,,,,Telefon,winzig,"['Telefon', 'winzig']",restudy_diff,1,,,,,,294.58535890001804,294.5853976998478,"['Fahrrad', 'Schlüssel', 'Geige', 'Tasse', 'Uhr', 'Würfel', 'Ring', 'Hut', 'Rucksack', 'Vase', 'Buch', 'Kamera', 'Kerze', 'Tasche', 'Telefon', 'Brille', 'Kette', 'Trommel', 'Stift', 'Flasche', 'Löffel', 'Kiste', 'Lampe']",295.0839045997709,295.086875599809,None,295.0869955997914,295.0896884999238,None,295.08979259990156,301.09495810000226,2,2.0239323996938765,None,301.0952624999918,301.09661519993097,301.0966277997941,301.09784170007333,,,,,,,,,,,,,,,,,,,,,,,,,,,,,,,,,,,,,,,,,,,,,,,,,,,1,2024-01-10_13h40.27.726,watkins1,2023.2.3,99.72565451617996,84,2024-01-10 13h40.44.718837 +0000,
,,,,,,,,,,,15,0,15,0,,,,,,,,,,,,,301.10440469998866,,,,,,,,,,301.0981199997477,301.596626999788,,,2,2.82328990008682,,,,,,,,,,,,None,None,,,,,,,,,,Brille,dunkel,"['Brille', 'dunkel']",restudy_diff,1,,,,,,301.0980541999452,301.0980926998891,"['Fahrrad', 'Schlüssel', 'Geige', 'Tasse', 'Uhr', 'Würfel', 'Ring', 'Hut', 'Rucksack', 'Vase', 'Buch', 'Kamera', 'Kerze', 'Tasche', 'Telefon', 'Brille', 'Kette', 'Trommel', 'Stift', 'Flasche', 'Löffel', 'Kiste', 'Lampe']",301.5966380997561,301.5995307001285,None,301.599651100114,301.6022781999782,None,301.6023856000975,307.6110705998726,2,2.82328990008682,None,307.61135050002486,307.61266299989074,307.6126749999821,307.6138510000892,,,,,,,,,,,,,,,,,,,,,,,,,,,,,,,,,,,,,,,,,,,,,,,,,,,1,2024-01-10_13h40.27.726,watkins1,2023.2.3,99.72565451617996,84,2024-01-10 13h40.44.718837 +0000,
,,,,,,,,,,,16,0,16,0,,,,,,,,,,,,,307.62051609996706,,,,,,,,,,307.6141181997955,308.11242870008573,,,[],[],,,,,,,,,,,,None,None,,,,,,,,,,Kette,biegsam,"['Kette', 'biegsam']",control,1,,,,,,307.6140558999032,307.614093599841,"['Fahrrad', 'Schlüssel', 'Geige', 'Tasse', 'Uhr', 'Würfel', 'Ring', 'Hut', 'Rucksack', 'Vase', 'Buch', 'Kamera', 'Kerze', 'Tasche', 'Telefon', 'Brille', 'Kette', 'Trommel', 'Stift', 'Flasche', 'Löffel', 'Kiste', 'Lampe']",308.11243980005383,314.12295399978757,1,314.12323209969327,314.12590639991686,None,314.1260103001259,314.12851639976725,None,,,314.12861939985305,314.12977149989456,314.12978320010006,314.1309503996745,3.408935199957341,None,,,,,,,,,,,,,,,,,,,,,,,,,,,,,,,,,,,,,,,,,,,,,,,,,1,2024-01-10_13h40.27.726,watkins1,2023.2.3,99.72565451617996,84,2024-01-10 13h40.44.718837 +0000,
,,,,,,,,,,,17,0,17,0,,,,,,,,,,,,,314.13454789994285,,,,,,,,,,314.13121729996055,314.627641600091,,,[],[],,,,,,,,,,,,None,None,,,,,,,,,,Trommel,kalt,"['Trommel', 'kalt']",control,1,,,,,,314.13115569995716,314.13119430001825,"['Fahrrad', 'Schlüssel', 'Geige', 'Tasse', 'Uhr', 'Würfel', 'Ring', 'Hut', 'Rucksack', 'Vase', 'Buch', 'Kamera', 'Kerze', 'Tasche', 'Telefon', 'Brille', 'Kette', 'Trommel', 'Stift', 'Flasche', 'Löffel', 'Kiste', 'Lampe']",314.6276527000591,320.63745069969445,1,320.6377332000993,320.6403685999103,None,320.6404750999063,320.64291659975424,None,,,320.6430222000927,320.64424159983173,320.64425339968875,320.6452985997312,1.7419118001125753,None,,,,,,,,,,,,,,,,,,,,,,,,,,,,,,,,,,,,,,,,,,,,,,,,,1,2024-01-10_13h40.27.726,watkins1,2023.2.3,99.72565451617996,84,2024-01-10 13h40.44.718837 +0000,
,,,,,,,,,,,18,0,18,0,,,,,,,,,,,,,320.6489891000092,,,,,,,,,,320.64557070005685,321.141946000047,,,1,3.056527799926698,,,,,,,,,,,,None,None,,,,,,,,,,Stift,hässlich,"['Stift', 'hässlich']",restudy_diff,1,,,,,,320.64550769980997,320.6455465997569,"['Fahrrad', 'Schlüssel', 'Geige', 'Tasse', 'Uhr', 'Würfel', 'Ring', 'Hut', 'Rucksack', 'Vase', 'Buch', 'Kamera', 'Kerze', 'Tasche', 'Telefon', 'Brille', 'Kette', 'Trommel', 'Stift', 'Flasche', 'Löffel', 'Kiste', 'Lampe']",321.1419565998949,321.14352379972115,None,321.1436413000338,321.1452365000732,None,321.14534169994295,327.15263069979846,1,3.056527799926698,None,327.15290659992024,327.15419679973274,327.1542083998211,327.1554240998812,,,,,,,,,,,,,,,,,,,,,,,,,,,,,,,,,,,,,,,,,,,,,,,,,,,1,2024-01-10_13h40.27.726,watkins1,2023.2.3,99.72565451617996,84,2024-01-10 13h40.44.718837 +0000,
,,,,,,,,,,,19,0,19,0,,,,,,,,,,,,,327.16204770002514,,,,,,,,,,327.1556910998188,327.6542096999474,,,3,1.3815916003659368,,,,,,,,,,,,None,None,,,,,,,,,,Flasche,nachhaltig,"['Flasche', 'nachhaltig']",restudy_diff,1,,,,,,327.15562859969214,327.1556659000926,"['Fahrrad', 'Schlüssel', 'Geige', 'Tasse', 'Uhr', 'Würfel', 'Ring', 'Hut', 'Rucksack', 'Vase', 'Buch', 'Kamera', 'Kerze', 'Tasche', 'Telefon', 'Brille', 'Kette', 'Trommel', 'Stift', 'Flasche', 'Löffel', 'Kiste', 'Lampe']",327.6542201000266,327.6569958999753,None,327.65711640007794,327.6599113000557,None,327.6600210997276,333.66512539982796,3,1.3815916003659368,None,333.6654028999619,333.6667184000835,333.6667309999466,333.66800120007247,,,,,,,,,,,,,,,,,,,,,,,,,,,,,,,,,,,,,,,,,,,,,,,,,,,1,2024-01-10_13h40.27.726,watkins1,2023.2.3,99.72565451617996,84,2024-01-10 13h40.44.718837 +0000,
,,,,,,,,,,,20,0,20,0,,,,,,,,,,,,,333.67458380013704,,,,,,,,,,333.6682687001303,334.166687999852,,,2,2.0852180998772383,,,,,,,,,,,,None,None,,,,,,,,,,Löffel,flach,"['Löffel', 'flach']",restudy_diff,1,,,,,,333.6682063997723,333.66824379982427,"['Fahrrad', 'Schlüssel', 'Geige', 'Tasse', 'Uhr', 'Würfel', 'Ring', 'Hut', 'Rucksack', 'Vase', 'Buch', 'Kamera', 'Kerze', 'Tasche', 'Telefon', 'Brille', 'Kette', 'Trommel', 'Stift', 'Flasche', 'Löffel', 'Kiste', 'Lampe']",334.1666991999373,334.1695217001252,None,334.1696446998976,334.17243220005184,None,334.17253739992157,340.1830231999047,2,2.0852180998772383,None,340.1833079000935,340.1847002999857,340.18471259996295,340.1858979999088,,,,,,,,,,,,,,,,,,,,,,,,,,,,,,,,,,,,,,,,,,,,,,,,,,,1,2024-01-10_13h40.27.726,watkins1,2023.2.3,99.72565451617996,84,2024-01-10 13h40.44.718837 +0000,
,,,,,,,,,,,21,0,21,0,,,,,,,,,,,,,340.19251859979704,,,,,,,,,,340.1861751000397,340.68472959985957,,,2,2.1761052003130317,,,,,,,,,,,,None,None,,,,,,,,,,Kiste,matt,"['Kiste', 'matt']",restudy_diff,1,,,,,,340.1861104001291,340.1861491999589,"['Fahrrad', 'Schlüssel', 'Geige', 'Tasse', 'Uhr', 'Würfel', 'Ring', 'Hut', 'Rucksack', 'Vase', 'Buch', 'Kamera', 'Kerze', 'Tasche', 'Telefon', 'Brille', 'Kette', 'Trommel', 'Stift', 'Flasche', 'Löffel', 'Kiste', 'Lampe']",340.684740900062,340.6874338998459,None,340.6875533000566,340.69008480012417,None,340.69019059976563,346.6940174000338,2,2.1761052003130317,None,346.69430099986494,346.69562279991806,346.6956350998953,346.6966931996867,,,,,,,,,,,,,,,,,,,,,,,,,,,,,,,,,,,,,,,,,,,,,,,,,,,1,2024-01-10_13h40.27.726,watkins1,2023.2.3,99.72565451617996,84,2024-01-10 13h40.44.718837 +0000,
,,,,,,,,,,,22,0,22,0,,,,,,,,,,,,,346.70354129979387,,,,,,,,,,346.69696839991957,347.195625399705,,,1,1.0568865998648107,,,,,,,,,,,,None,None,,,,,,,,,,Lampe,nass,"['Lampe', 'nass']",restudy_diff,1,,,,,,346.696903700009,346.6969428998418,"['Fahrrad', 'Schlüssel', 'Geige', 'Tasse', 'Uhr', 'Würfel', 'Ring', 'Hut', 'Rucksack', 'Vase', 'Buch', 'Kamera', 'Kerze', 'Tasche', 'Telefon', 'Brille', 'Kette', 'Trommel', 'Stift', 'Flasche', 'Löffel', 'Kiste', 'Lampe']",347.1956364000216,347.19821709999815,None,347.1983384997584,347.20075799990445,None,347.20086399978027,353.20757419988513,1,1.0568865998648107,None,353.2078613997437,353.2091743000783,353.2091863998212,353.21025130013004,,,,,,,,,,,,,,,,,,,,,,,,,,,,,,,,,,,,,,,,,,,,,,,,,,,1,2024-01-10_13h40.27.726,watkins1,2023.2.3,99.72565451617996,84,2024-01-10 13h40.44.718837 +0000,
,,,,,,,,,,,,,,,,,,,,,,,,,,,,,,,,,,,,,,,,,,,,,,,,,,,,,,,,,,,,,,,,,,,,,1,,,,,,,,,,,,,,,,,,,,,,,,,,,,,,,,,,,,,,,,,,,,,,,,,,,,,,,,,,,,,,,,,,,,,,,,,,1,2024-01-10_13h40.27.726,watkins1,2023.2.3,99.72565451617996,84,2024-01-10 13h40.44.718837 +0000,
(2 x 5) + 3 = 13 ,Correct,button_correct,,,,,,,,,,,,,0,0,0,2,,,,,,,,,367.8625535997562,,,,,,,,366.8309121998027,367.834637099877,,,,,['button_correct'],[4.119988500140607],,,,,,,,,,,,,,,,,,,,,,,,,,distractorTask,1,,,,,,,,,,,,,,,,,,,,,,,,,,367.85113899968565,367.8625535997562,371.9762021000497,[0.28703703703703703],[-0.4212962962962963],[1],[0],[0],[4.119988500140607],['button_correct'],371.97690329980105,372.9797426001169,,,,,,,,,,,,,,,,,,,,,,,,,,,,,,,,,,,,,1,2024-01-10_13h40.27.726,watkins1,2023.2.3,99.72565451617996,84,2024-01-10 13h40.44.718837 +0000,
(9 x 5) - 9 = 36 ,Correct,button_correct,,,,,,,,,,,,,0,1,1,4,,,,,,,,,372.98973440006375,,,,,,,,,,,,,,['button_correct'],"[5.048392799682915, 6.002586499787867]",,,,,,,,,,,,,,,,,,,,,,,,,,distractorTask,1,,,,,,,,,,,,,,,,,,,,,,,,,,372.9799405001104,372.98973440006375,378.98572689993307,"[0.275, 0.28055555555555556]","[-0.39351851851851855, -0.39166666666666666]","[1, 1]","[0, 0]","[0, 0]","[5.048392799682915, 6.002586499787867]",['button_correct'],378.9862752999179,379.9891587998718,,,,,,,,,,,,,,,,,,,,,,,,,,,,,,,,,,,,,1,2024-01-10_13h40.27.726,watkins1,2023.2.3,99.72565451617996,84,2024-01-10 13h40.44.718837 +0000,
(28 : 7) - 3 = 1 ,Correct,button_correct,,,,,,,,,,,,,0,2,2,0,,,,,,,,,379.99914109986275,,,,,,,,,,,,,,['button_correct'],[4.415769400075078],,,,,,,,,,,,,,,,,,,,,,,,,,distractorTask,1,,,,,,,,,,,,,,,,,,,,,,,,,,379.98935859976336,379.99914109986275,384.4083793000318,[0.27870370370370373],[-0.3888888888888889],[1],[0],[0],[4.415769400075078],['button_correct'],384.4087761999108,385.4122665999457,,,,,,,,,,,,,,,,,,,,,,,,,,,,,,,,,,,,,1,2024-01-10_13h40.27.726,watkins1,2023.2.3,99.72565451617996,84,2024-01-10 13h40.44.718837 +0000,
(54 : 6) - 10 = 0 ,Incorrect,button_incorrect,,,,,,,,,,,,,0,3,3,5,,,,,,,,,385.4222486997023,,,,,,,,,,,,,,['button_incorrect'],[4.3857714999467134],,,,,,,,,,,,,,,,,,,,,,,,,,distractorTask,1,,,,,,,,,,,,,,,,,,,,,,,,,,385.412462499924,385.4222486997023,389.8012422998436,[-0.3851851851851852],[-0.38425925925925924],[1],[0],[0],[4.3857714999467134],['button_incorrect'],389.8016417999752,390.80516549991444,,,,,,,,,,,,,,,,,,,,,,,,,,,,,,,,,,,,,1,2024-01-10_13h40.27.726,watkins1,2023.2.3,99.72565451617996,84,2024-01-10 13h40.44.718837 +0000,
(4 : 2) + 4 = 6 ,Correct,button_correct,,,,,,,,,,,,,0,4,4,1,,,,,,,,,390.81509559974074,,,,,,,,,,,,,,['button_correct'],"[3.4626816995441914, 4.195888299960643]",,,,,,,,,,,,,,,,,,,,,,,,,,distractorTask,1,,,,,,,,,,,,,,,,,,,,,,,,,,390.8053576000966,390.81509559974074,395.0029591997154,"[0.2722222222222222, 0.2861111111111111]","[-0.4212962962962963, -0.4111111111111111]","[1, 1]","[0, 0]","[0, 0]","[3.4626816995441914, 4.195888299960643]",['button_correct'],395.0033764997497,396.0065639000386,,,,,,,,,,,,,,,,,,,,,,,,,,,,,,,,,,,,,1,2024-01-10_13h40.27.726,watkins1,2023.2.3,99.72565451617996,84,2024-01-10 13h40.44.718837 +0000,
(25 : 5) + 5 = 9 ,Incorrect,button_incorrect,,,,,,,,,,,,,0,5,5,6,,,,,,,,,396.01650559995323,,,,,,,,,,,,,,['button_incorrect'],[4.447672999929637],,,,,,,,,,,,,,,,,,,,,,,,,,distractorTask,1,,,,,,,,,,,,,,,,,,,,,,,,,,396.0067627998069,396.01650559995323,400.45615920005366,[-0.34629629629629627],[-0.4203703703703704],[1],[0],[0],[4.447672999929637],['button_incorrect'],400.45656260009855,401.4598571998067,,,,,,,,,,,,,,,,,,,,,,,,,,,,,,,,,,,,,1,2024-01-10_13h40.27.726,watkins1,2023.2.3,99.72565451617996,84,2024-01-10 13h40.44.718837 +0000,
(40 : 5) + 8 = 15 ,Incorrect,button_incorrect,,,,,,,,,,,,,0,6,6,7,,,,,,,,,401.4697960000485,,,,,,,,,,,,,,['button_incorrect'],[3.9051906000822783],,,,,,,,,,,,,,,,,,,,,,,,,,distractorTask,1,,,,,,,,,,,,,,,,,,,,,,,,,,401.46006459975615,401.4697960000485,405.36700329976156,[-0.29259259259259257],[-0.3787037037037037],[1],[0],[0],[3.9051906000822783],['button_incorrect'],405.36755029996857,406.3702857000753,,,,,,,,,,,,,,,,,,,,,,,,,,,,,,,,,,,,,1,2024-01-10_13h40.27.726,watkins1,2023.2.3,99.72565451617996,84,2024-01-10 13h40.44.718837 +0000,
(80 : 10) + 9 = 17 ,Correct,button_correct,,,,,,,,,,,,,0,7,7,3,,,,,,,,,406.380268599838,,,,,,,,,,,,,,['button_correct'],[2.157293099910021],,,,,,,,,,,,,,,,,,,,,,,,,,distractorTask,1,,,,,,,,,,,,,,,,,,,,,,,,,,406.3704780000262,406.380268599838,408.5296175996773,[0.2777777777777778],[-0.4148148148148148],[1],[0],[0],[2.157293099910021],['button_correct'],408.5300051998347,409.53331089997664,,,,,,,,,,,,,,,,,,,,,,,,,,,,,,,,,,,,,1,2024-01-10_13h40.27.726,watkins1,2023.2.3,99.72565451617996,84,2024-01-10 13h40.44.718837 +0000,
(6 x 3) + 10 = 27 ,Incorrect,button_incorrect,,,,,,,,,,,,,0,8,8,8,,,,,,,,,409.5432819998823,,,,,,,,,,,,,,['button_incorrect'],[2.789982100017369],,,,,,,,,,,,,,,,,,,,,,,,,,distractorTask,1,,,,,,,,,,,,,,,,,,,,,,,,,,409.53350749984384,409.5432819998823,412.32537540001795,[-0.3574074074074074],[-0.37592592592592594],[1],[0],[0],[2.789982100017369],['button_incorrect'],412.32576909987256,413.32900919998065,,,,,,,,,,,,,,,,,,,,,,,,,,,,,,,,,,,,,1,2024-01-10_13h40.27.726,watkins1,2023.2.3,99.72565451617996,84,2024-01-10 13h40.44.718837 +0000,
(7 x 6) + 9 = 48 ,Incorrect,button_incorrect,,,,,,,,,,,,,0,9,9,9,,,,,,,,,413.3389884000644,,,,,,,,,,,,,,['button_correct'],"[7.388850300107151, 7.820645499974489]",,,,,,,,,,,,,,,,,,,,,,,,,,distractorTask,1,,,,,,,,,,,,,,,,,,,,,,,,,,413.3292032000609,413.3389884000644,421.1515680998564,"[0.337037037037037, 0.33796296296296297]","[-0.4351851851851852, -0.4083333333333333]","[1, 1]","[0, 0]","[0, 0]","[7.388850300107151, 7.820645499974489]",['button_correct'],421.1519792000763,422.1553492997773,,,,,,,,,,,,,,,,,,,,,,,,,,,,,,,,,,,,,1,2024-01-10_13h40.27.726,watkins1,2023.2.3,99.72565451617996,84,2024-01-10 13h40.44.718837 +0000,
,,,,,,,,,,,,,,,,,,,,,,,,,,,,,,,,,,,,,,,,,,,,,,,,,,,,,,,,,,,,,,,,,,,,,1,,,,,,,,,,,,,,,,,,,,,,,,,,,,,,,,,,,,,,,,,,,,,,,,,,,,,,,,,,,,,,,,,,,,,,,,,,1,2024-01-10_13h40.27.726,watkins1,2023.2.3,99.72565451617996,84,2024-01-10 13h40.44.718837 +0000,
,,,,,,,,,,,,,,,,,,,0,0,0,0,,,,,436.0723056998104,,,,,,,,,,,,,,Lampe,13.18969100015238,,,,,,,,,,,,6.455798199865967,7.941739899571985,,,,,,,,,,,,,freeRecallSub,1,,,,,,,,,,,,,,,,,,,,,,,,,,,,,,,,,,,,,,436.06441569980234,436.0723056998104,436.0723056998104,449.2678232998587,return,13.18969100015238,None,Lampe,"[0.07592592592592592, -0.6722222222222223, -0.6685185185185185]","[0.03425925925925926, 0.058333333333333334, 0.08148148148148149]","[1, 1, 1]","[0, 0, 0]","[0, 0, 0]","[2.7305678999982774, 3.2624387997202575, 3.984776799567044]",[],,,,,,,,,,,,,,,,,,,,,,1,2024-01-10_13h40.27.726,watkins1,2023.2.3,99.72565451617996,84,2024-01-10 13h40.44.718837 +0000,
,,,,,,,,,,,,,,,,,,,1,0,1,0,,,,,449.28042740002275,,,,,,,,,,,,,,Fahrrad,14.341688399668783,,,,,,,,,,,,12.313741700258106,None,,,,,,,,,,,,,freeRecallSub,1,,,,,,,,,,,,,,,,,,,,,,,,,,,,,,,,,,,,,,449.2698606001213,449.28042740002275,449.28042740002275,463.631946799811,return,14.341688399668783,None,Fahrrad,[],[],[],[],[],[],[],,,,,,,,,,,,,,,,,,,,,,1,2024-01-10_13h40.27.726,watkins1,2023.2.3,99.72565451617996,84,2024-01-10 13h40.44.718837 +0000,
,,,,,,,,,,,,,,,,,,,2,0,2,0,,,,,463.6427802997641,,,,,,,,,,,,,,Kerze,5.659289199858904,,,,,,,,,,,,4.067807199899107,None,,,,,,,,,,,,,freeRecallSub,1,,,,,,,,,,,,,,,,,,,,,,,,,,,,,,,,,,,,,,463.6332610999234,463.6427802997641,463.6427802997641,469.3080752999522,return,5.659289199858904,None,Kerze,[],[],[],[],[],[],[],,,,,,,,,,,,,,,,,,,,,,1,2024-01-10_13h40.27.726,watkins1,2023.2.3,99.72565451617996,84,2024-01-10 13h40.44.718837 +0000,
,,,,,,,,,,,,,,,,,,,3,0,3,0,,,,,469.3186889998615,,,,,,,,,,,,,,Schlüssel,6.151347499806434,,,,,,,,,,,,3.7653006999753416,None,,,,,,,,,,,,,freeRecallSub,1,,,,,,,,,,,,,,,,,,,,,,,,,,,,,,,,,,,,,,469.30936489999294,469.3186889998615,469.3186889998615,475.4747347999364,return,6.151347499806434,None,Schlüssel,[],[],[],[],[],[],[],,,,,,,,,,,,,,,,,,,,,,1,2024-01-10_13h40.27.726,watkins1,2023.2.3,99.72565451617996,84,2024-01-10 13h40.44.718837 +0000,
,,,,,,,,,,,,,,,,,,,4,0,4,0,,,,,475.48616909980774,,,,,,,,,,,,,,Vase,8.487873000092804,,,,,,,,,,,,6.782209800090641,None,,,,,,,,,,,,,freeRecallSub,1,,,,,,,,,,,,,,,,,,,,,,,,,,,,,,,,,,,,,,475.47603939985856,475.48616909980774,475.48616909980774,483.97540930006653,return,8.487873000092804,None,Vase,[],[],[],[],[],[],[],,,,,,,,,,,,,,,,,,,,,,1,2024-01-10_13h40.27.726,watkins1,2023.2.3,99.72565451617996,84,2024-01-10 13h40.44.718837 +0000,
,,,,,,,,,,,,,,,,,,,5,0,5,0,,,,,483.98674720013514,,,,,,,,,,,,,,nass,1.5952697000466287,,,,,,,,,,,,0.9351335000246763,None,,,,,,,,,,,,,freeRecallSub,1,,,,,,,,,,,,,,,,,,,,,,,,,,,,,,,,,,,,,,483.97674380009994,483.98674720013514,483.98674720013514,485.5845642997883,return,1.5952697000466287,None,nass,[],[],[],[],[],[],[],,,,,,,,,,,,,,,,,,,,,,1,2024-01-10_13h40.27.726,watkins1,2023.2.3,99.72565451617996,84,2024-01-10 13h40.44.718837 +0000,
,,,,,,,,,,,,,,,,,,,6,0,6,0,,,,,485.5959831997752,,,,,,,,,,,,,,matt,2.5621037003584206,,,,,,,,,,,,1.8892438998445868,None,,,,,,,,,,,,,freeRecallSub,1,,,,,,,,,,,,,,,,,,,,,,,,,,,,,,,,,,,,,,485.5858840998262,485.5959831997752,485.5959831997752,488.1679372000508,return,2.5621037003584206,None,matt,[],[],[],[],[],[],[],,,,,,,,,,,,,,,,,,,,,,1,2024-01-10_13h40.27.726,watkins1,2023.2.3,99.72565451617996,84,2024-01-10 13h40.44.718837 +0000,
,,,,,,,,,,,,,,,,,,,7,0,7,0,,,,,488.17941979970783,,,,,,,,,,,,,, glänzend,5.354666899889708,,,,,,,,,,,,0.3023855001665652,None,,,,,,,,,,,,,freeRecallSub,1,,,,,,,,,,,,,,,,,,,,,,,,,,,,,,,,,,,,,,488.16925449995324,488.17941979970783,488.17941979970783,493.54254620010033,return,5.354666899889708,None, glänzend,[],[],[],[],[],[],[],,,,,,,,,,,,,,,,,,,,,,1,2024-01-10_13h40.27.726,watkins1,2023.2.3,99.72565451617996,84,2024-01-10 13h40.44.718837 +0000,
,,,,,,,,,,,,,,,,,,,8,0,8,0,,,,,493.55461489968,,,,,,,,,,,,,,hohl,3.9234572001732886,,,,,,,,,,,,0.574811200145632,None,,,,,,,,,,,,,freeRecallSub,1,,,,,,,,,,,,,,,,,,,,,,,,,,,,,,,,,,,,,,493.5438486998901,493.55461489968,493.55461489968,497.4826970999129,return,3.9234572001732886,None,hohl,[],[],[],[],[],[],[],,,,,,,,,,,,,,,,,,,,,,1,2024-01-10_13h40.27.726,watkins1,2023.2.3,99.72565451617996,84,2024-01-10 13h40.44.718837 +0000,
,,,,,,,,,,,,,,,,,,,9,0,9,0,,,,,497.4946193997748,,,,,,,,,,,,,,rustikal,21.399487500078976,,,,,,,,,,,,18.017645000014454,None,,,,,,,,,,,,,freeRecallSub,1,,,,,,,,,,,,,,,,,,,,,,,,,,,,,,,,,,,,,,497.48398240003735,497.4946193997748,497.4946193997748,518.895756999962,return,21.399487500078976,None,rustikal,[],[],[],[],[],[],[],,,,,,,,,,,,,,,,,,,,,,1,2024-01-10_13h40.27.726,watkins1,2023.2.3,99.72565451617996,84,2024-01-10 13h40.44.718837 +0000,
,,,,,,,,,,,,,,,,,,,10,0,10,0,,,,,518.9089200999588,,,,,,,,,,,,,,Kiste,6.929093500133604,,,,,,,,,,,,5.679353000130504,None,,,,,,,,,,,,,freeRecallSub,1,,,,,,,,,,,,,,,,,,,,,,,,,,,,,,,,,,,,,,518.8970812996849,518.9089200999588,518.9089200999588,525.8418354997411,return,6.929093500133604,None,Kiste,[],[],[],[],[],[],[],,,,,,,,,,,,,,,,,,,,,,1,2024-01-10_13h40.27.726,watkins1,2023.2.3,99.72565451617996,84,2024-01-10 13h40.44.718837 +0000,
,,,,,,,,,,,,,,,,,,,11,0,11,0,,,,,525.8540985998698,,,,,,,,,,,,,,Uhr,2.21594429994002,,,,,,,,,,,,1.58953160000965,None,,,,,,,,,,,,,freeRecallSub,1,,,,,,,,,,,,,,,,,,,,,,,,,,,,,,,,,,,,,,525.8431660998613,525.8540985998698,525.8540985998698,528.0754896998405,return,2.21594429994002,None,Uhr,[],[],[],[],[],[],[],,,,,,,,,,,,,,,,,,,,,,1,2024-01-10_13h40.27.726,watkins1,2023.2.3,99.72565451617996,84,2024-01-10 13h40.44.718837 +0000,
,,,,,,,,,,,,,,,,,,,12,0,12,0,,,,,528.0883120000362,,,,,,,,,,,,,,gestreift,2.405638199765235,,,,,,,,,,,,0.5462338998913765,None,,,,,,,,,,,,,freeRecallSub,1,,,,,,,,,,,,,,,,,,,,,,,,,,,,,,,,,,,,,,528.0768093001097,528.0883120000362,528.0883120000362,530.5009889998473,return,2.405638199765235,None,gestreift,[],[],[],[],[],[],[],,,,,,,,,,,,,,,,,,,,,,1,2024-01-10_13h40.27.726,watkins1,2023.2.3,99.72565451617996,84,2024-01-10 13h40.44.718837 +0000,
,,,,,,,,,,,,,,,,,,,13,0,13,0,,,,,530.5140312998556,,,,,,,,,,,,,,gepunktet,3.404069900047034,,,,,,,,,,,,0.3758466001600027,None,,,,,,,,,,,,,freeRecallSub,1,,,,,,,,,,,,,,,,,,,,,,,,,,,,,,,,,,,,,,530.5022967997938,530.5140312998556,530.5140312998556,533.920876099728,return,3.404069900047034,None,gepunktet,[],[],[],[],[],[],[],,,,,,,,,,,,,,,,,,,,,,1,2024-01-10_13h40.27.726,watkins1,2023.2.3,99.72565451617996,84,2024-01-10 13h40.44.718837 +0000,
,,,,,,,,,,,,,,,,,,,14,0,14,0,,,,,533.9338799999095,,,,,,,,,,,,,,Tasche,40.00811639986932,,,,,,,,,,,,37.9731140001677,None,,,,,,,,,,,,,freeRecallSub,1,,,,,,,,,,,,,,,,,,,,,,,,,,,,,,,,,,,,,,533.9221815997735,533.9338799999095,533.9338799999095,573.944339599926,return,40.00811639986932,None,Tasche,[0.05277777777777778],[0.058333333333333334],[1],[0],[0],[37.2450465997681],[],,,,,,,,,,,,,,,,,,,,,,1,2024-01-10_13h40.27.726,watkins1,2023.2.3,99.72565451617996,84,2024-01-10 13h40.44.718837 +0000,
,,,,,,,,,,,,,,,,,,,15,0,15,0,,,,,573.958006999921,,,,,,,,,,,,,,lang,1.3439958998933434,,,,,,,,,,,,0.4575692997314036,None,,,,,,,,,,,,,freeRecallSub,1,,,,,,,,,,,,,,,,,,,,,,,,,,,,,,,,,,,,,,573.9456735998392,573.958006999921,573.958006999921,575.3070938000455,return,1.3439958998933434,None,lang,[],[],[],[],[],[],[],,,,,,,,,,,,,,,,,,,,,,1,2024-01-10_13h40.27.726,watkins1,2023.2.3,99.72565451617996,84,2024-01-10 13h40.44.718837 +0000,
,,,,,,,,,,,,,,,,,,,16,0,16,0,,,,,575.3202553000301,,,,,,,,,,,,,,schmutzig,13.997620000038296,,,,,,,,,,,,8.660699400119483,12.155140799935907,,,,,,,,,,,,,freeRecallSub,1,,,,,,,,,,,,,,,,,,,,,,,,,,,,,,,,,,,,,,575.3083731001243,575.3202553000301,575.3202553000301,589.321384599898,return,13.997620000038296,None,schmutzig,[],[],[],[],[],[],[],,,,,,,,,,,,,,,,,,,,,,1,2024-01-10_13h40.27.726,watkins1,2023.2.3,99.72565451617996,84,2024-01-10 13h40.44.718837 +0000,
,,,,,,,,,,,,,,,,,,,17,0,17,0,,,,,589.335069200024,,,,,,,,,,,,,,praktisch,6.054910499602556,,,,,,,,,,,,4.434929799754173,None,,,,,,,,,,,,,freeRecallSub,1,,,,,,,,,,,,,,,,,,,,,,,,,,,,,,,,,,,,,,589.3227013996802,589.335069200024,589.335069200024,595.3945462997071,return,6.054910499602556,None,praktisch,[],[],[],[],[],[],[],,,,,,,,,,,,,,,,,,,,,,1,2024-01-10_13h40.27.726,watkins1,2023.2.3,99.72565451617996,84,2024-01-10 13h40.44.718837 +0000,
,,,,,,,,,,,,,,,,,,,18,0,18,0,,,,,595.4087205999531,,,,,,,,,,,,,,,[],,,,,,,,,,,,None,None,,,,,,,,,,,,,freeRecallSub,1,,,,,,,,,,,,,,,,,,,,,,,,,,,,,,,,,,,,,,595.395855799783,595.4087205999531,595.4087205999531,603.9793716999702,None,,,,[0.3509259259259259],[-0.41574074074074074],[1],[0],[0],[8.576911899726838],['button_continue'],,,,,,,,,,,,,,,,,,,,,,1,2024-01-10_13h40.27.726,watkins1,2023.2.3,99.72565451617996,84,2024-01-10 13h40.44.718837 +0000,
,,,,,,,,,,,,,,,,,,,,,,,,,,,,,,,,,,,,,,,,,,,,,,,,,,,,,,,,,,,,,,,,,,,,,1,,,,,,,,,,,,,,,,,,,,,,,,,,,,,,,,,,,,,,,,,,,,,,,,,,,,,,,,,,,,,,,,,,,,,,,,,,1,2024-01-10_13h40.27.726,watkins1,2023.2.3,99.72565451617996,84,2024-01-10 13h40.44.718837 +0000,
,,,,,,,,,,,,,,,,,,,,,,,0,0,0,0,612.1277970997617,,,,,,,,,,621.7586157000624,622.2499281000346,,,matt,5.654114699922502,,,,,,,,,,,,3.2927013002336025,None,,,,,,,,,,Vase,,,cuedRecallAdj,1,,,,,,,,,,,,,,,,,,,,,,,,,,,,,,,,,,,,,,,,,,,,,,,,,,,,,612.1186234997585,612.1277970997617,0,612.1277970997617,617.7916902997531,hohl,return,5.654114699922502,None,617.7921044998802,617.8014420997351,617.8014420997351,621.7582159000449,matt,return,3.9484995999373496,None,,,,,1,2024-01-10_13h40.27.726,watkins1,2023.2.3,99.72565451617996,84,2024-01-10 13h40.44.718837 +0000,
,,,,,,,,,,,,,,,,,,,,,,,1,0,1,0,622.259985299781,,,,,,,,,,629.1390002998523,629.6303321998566,,,,6.457911399658769,,,,,,,,,,,,0.41121120005846024,None,,,,,,,,,,Tasse,,,cuedRecallAdj,1,,,,,,,,,,,,,,,,,,,,,,,,,,,,,,,,,,,,,,,,,,,,,,,,,,,,,622.2501789997332,622.259985299781,0,622.259985299781,628.7268082001247,,return,6.457911399658769,None,628.7270848997869,628.7365838997066,628.7365838997066,629.1387360999361,,return,0.39738119998946786,None,,,,,1,2024-01-10_13h40.27.726,watkins1,2023.2.3,99.72565451617996,84,2024-01-10 13h40.44.718837 +0000,
,,,,,,,,,,,,,,,,,,,,,,,2,0,2,0,629.6403843997978,,,,,,,,,,637.4460351997986,637.9446378001012,,,,7.797637400217354,,,,,,,,,,,,None,None,,,,,,,,,,Ring,,,cuedRecallAdj,1,,,,,,,,,,,,,,,,,,,,,,,,,,,,,,,,,,,,,,,,,,,,,,,,,,,,,629.6305792997591,629.6403843997978,0,629.6403843997978,637.4430745998397,glänzend,return,7.797637400217354,None,637.4433502997272,637.452669300139,637.452669300139,637.4459309997037,,None,,,,,,,1,2024-01-10_13h40.27.726,watkins1,2023.2.3,99.72565451617996,84,2024-01-10 13h40.44.718837 +0000,
,,,,,,,,,,,,,,,,,,,,,,,3,0,3,0,637.9545322000049,,,,,,,,,,645.7600771998987,646.2492498997599,,,,7.795454000122845,,,,,,,,,,,,None,None,,,,,,,,,,Trommel,,,cuedRecallAdj,1,,,,,,,,,,,,,,,,,,,,,,,,,,,,,,,,,,,,,,,,,,,,,,,,,,,,,637.9448854997754,637.9545322000049,0,637.9545322000049,645.7575389998965,,return,7.795454000122845,None,645.7578583997674,645.7672409000807,645.7672409000807,645.7599732000381,,None,,,,,,,1,2024-01-10_13h40.27.726,watkins1,2023.2.3,99.72565451617996,84,2024-01-10 13h40.44.718837 +0000,
,,,,,,,,,,,,,,,,,,,,,,,4,0,4,0,646.2592024998739,,,,,,,,,,653.4019136000425,653.9008293999359,,,,7.130675700027496,,,,,,,,,,,,None,None,,,,,,,,,,Geige,,,cuedRecallAdj,1,,,,,,,,,,,,,,,,,,,,,,,,,,,,,,,,,,,,,,,,,,,,,,,,,,,,,646.2495009996928,646.2592024998739,0,646.2592024998739,653.3989210999571, ,return,7.130675700027496,None,653.3991930000484,653.4086688999087,653.4086688999087,653.4018108998425,,None,,,,,,,1,2024-01-10_13h40.27.726,watkins1,2023.2.3,99.72565451617996,84,2024-01-10 13h40.44.718837 +0000,
,,,,,,,,,,,,,,,,,,,,,,,5,0,5,0,653.9107745997608,,,,,,,,,,656.1936311000027,656.6924604000524,,,,2.2712044999934733,,,,,,,,,,,,None,None,,,,,,,,,,Bürste,,,cuedRecallAdj,1,,,,,,,,,,,,,,,,,,,,,,,,,,,,,,,,,,,,,,,,,,,,,,,,,,,,,653.9010771997273,653.9107745997608,0,653.9107745997608,656.1905640000477,zart,return,2.2712044999934733,None,656.1908424999565,656.200340999756,656.200340999756,656.193526300136,,None,,,,,,,1,2024-01-10_13h40.27.726,watkins1,2023.2.3,99.72565451617996,84,2024-01-10 13h40.44.718837 +0000,
,,,,,,,,,,,,,,,,,,,,,,,6,0,6,0,656.702400600072,,,,,,,,,,661.1927207000554,661.6840654998086,,,,4.191557599697262,,,,,,,,,,,,0.29049749998375773,None,,,,,,,,,,Schlüssel,,,cuedRecallAdj,1,,,,,,,,,,,,,,,,,,,,,,,,,,,,,,,,,,,,,,,,,,,,,,,,,,,,,656.6927070999518,656.702400600072,0,656.702400600072,660.9012012998573,rustikal,return,4.191557599697262,None,660.901494000107,660.9106947998516,660.9106947998516,661.1924469997175,,return,0.2792329997755587,None,,,,,1,2024-01-10_13h40.27.726,watkins1,2023.2.3,99.72565451617996,84,2024-01-10 13h40.44.718837 +0000,
,,,,,,,,,,,,,,,,,,,,,,,7,0,7,0,661.6940256999806,,,,,,,,,,667.4589017997496,667.9501362000592,,,schmutzig,2.535943799652159,,,,,,,,,,,,1.395109800156206,None,,,,,,,,,,Tasche,,,cuedRecallAdj,1,,,,,,,,,,,,,,,,,,,,,,,,,,,,,,,,,,,,,,,,,,,,,,,,,,,,,661.684311799705,661.6940256999806,0,661.6940256999806,664.2351253000088,lang,return,2.535943799652159,None,664.2354045999236,664.2446105997078,664.2446105997078,667.4586223997176,schmutzig,return,3.209298999980092,None,,,,,1,2024-01-10_13h40.27.726,watkins1,2023.2.3,99.72565451617996,84,2024-01-10 13h40.44.718837 +0000,
,,,,,,,,,,,,,,,,,,,,,,,8,0,8,0,667.9600947001018,,,,,,,,,,678.0629993998446,678.5543029000983,,,gut,4.037848699837923,,,,,,,,,,,,5.472351799719036,None,,,,,,,,,,Kerze,,,cuedRecallAdj,1,,,,,,,,,,,,,,,,,,,,,,,,,,,,,,,,,,,,,,,,,,,,,,,,,,,,,667.9503898001276,667.9600947001018,0,667.9600947001018,672.0071135000326,niedlich,return,4.037848699837923,None,672.0073877996765,672.0169212999754,672.0169212999754,678.0627219998278,gut,return,6.045046200044453,None,,,,,1,2024-01-10_13h40.27.726,watkins1,2023.2.3,99.72565451617996,84,2024-01-10 13h40.44.718837 +0000,
,,,,,,,,,,,,,,,,,,,,,,,9,0,9,0,678.5642054998316,,,,,,,,,,683.8197697997093,684.3181328000501,,,,5.249771900009364,,,,,,,,,,,,None,None,,,,,,,,,,Schere,,,cuedRecallAdj,1,,,,,,,,,,,,,,,,,,,,,,,,,,,,,,,,,,,,,,,,,,,,,,,,,,,,,678.5545743000694,678.5642054998316,0,678.5642054998316,683.8164193998091,kratzig,return,5.249771900009364,None,683.8166942000389,683.8259757999331,683.8259757999331,683.8196668000892,,None,,,,,,,1,2024-01-10_13h40.27.726,watkins1,2023.2.3,99.72565451617996,84,2024-01-10 13h40.44.718837 +0000,
,,,,,,,,,,,,,,,,,,,,,,,10,0,10,0,684.3280647001229,,,,,,,,,,687.5749693000689,688.0735832001083,,,,3.2377628996036947,,,,,,,,,,,,None,None,,,,,,,,,,Hammer,,,cuedRecallAdj,1,,,,,,,,,,,,,,,,,,,,,,,,,,,,,,,,,,,,,,,,,,,,,,,,,,,,,684.3183829998598,684.3280647001229,0,684.3280647001229,687.5720691001043,bunt,return,3.2377628996036947,None,687.5723401997238,687.58166839974,687.58166839974,687.574865499977,,None,,,,,,,1,2024-01-10_13h40.27.726,watkins1,2023.2.3,99.72565451617996,84,2024-01-10 13h40.44.718837 +0000,
,,,,,,,,,,,,,,,,,,,,,,,11,0,11,0,688.0834901998751,,,,,,,,,,700.8106809998862,701.3002745998092,,,,12.722428299952298,,,,,,,,,,,,None,None,,,,,,,,,,Kette,,,cuedRecallAdj,1,,,,,,,,,,,,,,,,,,,,,,,,,,,,,,,,,,,,,,,,,,,,,,,,,,,,,688.0738335996866,688.0834901998751,0,688.0834901998751,700.8083160999231,,return,12.722428299952298,None,700.8085901997983,700.8179085999727,700.8179085999727,700.8105778996833,,None,,,,,,,1,2024-01-10_13h40.27.726,watkins1,2023.2.3,99.72565451617996,84,2024-01-10 13h40.44.718837 +0000,
,,,,,,,,,,,,,,,,,,,,,,,12,0,12,0,701.3102771998383,,,,,,,,,,706.0106651000679,706.5020479001105,,,glänzend,2.3035899000242352,,,,,,,,,,,,0.34058200009167194,None,,,,,,,,,,Fahrrad,,,cuedRecallAdj,1,,,,,,,,,,,,,,,,,,,,,,,,,,,,,,,,,,,,,,,,,,,,,,,,,,,,,701.3005260997452,701.3102771998383,0,701.3102771998383,703.6207065000199,matt,return,2.3035899000242352,None,703.6209821999073,703.6301668998785,703.6301668998785,706.0103953997605,glänzend,return,2.375763399992138,None,,,,,1,2024-01-10_13h40.27.726,watkins1,2023.2.3,99.72565451617996,84,2024-01-10 13h40.44.718837 +0000,
,,,,,,,,,,,,,,,,,,,,,,,13,0,13,0,706.5121045997366,,,,,,,,,,712.0191303999163,712.5177338998765,,,,5.493845700286329,,,,,,,,,,,,None,None,,,,,,,,,,Hut,,,cuedRecallAdj,1,,,,,,,,,,,,,,,,,,,,,,,,,,,,,,,,,,,,,,,,,,,,,,,,,,,,,706.502295800019,706.5121045997366,0,706.5121045997366,712.0158508000895,flauschig,return,5.493845700286329,None,712.016136799939,712.0255748997442,712.0255748997442,712.0190252996981,,None,,,,,,,1,2024-01-10_13h40.27.726,watkins1,2023.2.3,99.72565451617996,84,2024-01-10 13h40.44.718837 +0000,
,,,,,,,,,,,,,,,,,,,,,,,14,0,14,0,712.5276736998931,,,,,,,,,,716.0456334999762,716.5444915997796,,,,3.510243699885905,,,,,,,,,,,,None,None,,,,,,,,,,Eimer,,,cuedRecallAdj,1,,,,,,,,,,,,,,,,,,,,,,,,,,,,,,,,,,,,,,,,,,,,,,,,,,,,,712.5179818999022,712.5276736998931,0,712.5276736998931,716.0428126999177,neu,return,3.510243699885905,None,716.0430799000897,716.0524102998897,716.0524102998897,716.0455316998996,,None,,,,,,,1,2024-01-10_13h40.27.726,watkins1,2023.2.3,99.72565451617996,84,2024-01-10 13h40.44.718837 +0000,
,,,,,,,,,,,,,,,,,,,,,,,15,0,15,0,716.5544930999167,,,,,,,,,,724.0571762998588,724.5484019001015,,,glänzend,4.699427899904549,,,,,,,,,,,,0.8433588002808392,None,,,,,,,,,,Kiste,,,cuedRecallAdj,1,,,,,,,,,,,,,,,,,,,,,,,,,,,,,,,,,,,,,,,,,,,,,,,,,,,,,716.5447414000519,716.5544930999167,0,716.5544930999167,721.2547546997666,gepunktet,return,4.699427899904549,None,721.255032400135,721.2642320999876,721.2642320999876,724.0569035997614,glänzend,return,2.7896130001172423,None,,,,,1,2024-01-10_13h40.27.726,watkins1,2023.2.3,99.72565451617996,84,2024-01-10 13h40.44.718837 +0000,
,,,,,,,,,,,,,,,,,,,,,,,16,0,16,0,724.5583572001196,,,,,,,,,,729.9150364999659,730.4132759999484,,,,5.351461099926382,,,,,,,,,,,,None,None,,,,,,,,,,Socke,,,cuedRecallAdj,1,,,,,,,,,,,,,,,,,,,,,,,,,,,,,,,,,,,,,,,,,,,,,,,,,,,,,724.5486520999111,724.5583572001196,0,724.5583572001196,729.9115399001166,hübsch,return,5.351461099926382,None,729.9118149001151,729.9210624997504,729.9210624997504,729.9149313997477,,None,,,,,,,1,2024-01-10_13h40.27.726,watkins1,2023.2.3,99.72565451617996,84,2024-01-10 13h40.44.718837 +0000,
,,,,,,,,,,,,,,,,,,,,,,,17,0,17,0,730.4231916000135,,,,,,,,,,740.6873284997419,741.1787052000873,,,,5.7347363997250795,,,,,,,,,,,,4.519090000074357,None,,,,,,,,,,Löffel,,,cuedRecallAdj,1,,,,,,,,,,,,,,,,,,,,,,,,,,,,,,,,,,,,,,,,,,,,,,,,,,,,,730.4135281001218,730.4231916000135,0,730.4231916000135,736.1673880000599,flach,return,5.7347363997250795,None,736.1676674000919,736.1771410997026,736.1771410997026,740.6870506000705,,return,4.500703699886799,None,,,,,1,2024-01-10_13h40.27.726,watkins1,2023.2.3,99.72565451617996,84,2024-01-10 13h40.44.718837 +0000,
,,,,,,,,,,,,,,,,,,,,,,,18,0,18,0,741.1885903999209,,,,,,,,,,744.443146399688,744.9345144000836,,,,3.0173220997676253,,,,,,,,,,,,0.23013069992884994,None,,,,,,,,,,Flasche,,,cuedRecallAdj,1,,,,,,,,,,,,,,,,,,,,,,,,,,,,,,,,,,,,,,,,,,,,,,,,,,,,,741.1789603000507,741.1885903999209,0,741.1885903999209,744.212021399755,gut,return,3.0173220997676253,None,744.2123008999042,744.2215068996884,744.2215068996884,744.4428733000532,,return,0.21638110000640154,None,,,,,1,2024-01-10_13h40.27.726,watkins1,2023.2.3,99.72565451617996,84,2024-01-10 13h40.44.718837 +0000,
,,,,,,,,,,,,,,,,,,,,,,,19,0,19,0,744.9444595999084,,,,,,,,,,748.4826695998199,748.9814007999375,,,,3.5334450001828372,,,,,,,,,,,,None,None,,,,,,,,,,Jacke,,,cuedRecallAdj,1,,,,,,,,,,,,,,,,,,,,,,,,,,,,,,,,,,,,,,,,,,,,,,,,,,,,,744.9347616001032,744.9444595999084,0,744.9444595999084,748.479707099963,robust,return,3.5334450001828372,None,748.4799750996754,748.4892200999893,748.4892200999893,748.4825669997372,,None,,,,,,,1,2024-01-10_13h40.27.726,watkins1,2023.2.3,99.72565451617996,84,2024-01-10 13h40.44.718837 +0000,
,,,,,,,,,,,,,,,,,,,,,,,20,0,20,0,748.9913487001322,,,,,,,,,,751.5151696996763,752.0137880998664,,,,2.5185718000866473,,,,,,,,,,,,None,None,,,,,,,,,,Rucksack,,,cuedRecallAdj,1,,,,,,,,,,,,,,,,,,,,,,,,,,,,,,,,,,,,,,,,,,,,,,,,,,,,,748.9816481997259,748.9913487001322,0,748.9913487001322,751.512203599792,lang,return,2.5185718000866473,None,751.5124781997874,751.5217510997318,751.5217510997318,751.5150641999207,,None,,,,,,,1,2024-01-10_13h40.27.726,watkins1,2023.2.3,99.72565451617996,84,2024-01-10 13h40.44.718837 +0000,
,,,,,,,,,,,,,,,,,,,,,,,21,0,21,0,752.0238207001239,,,,,,,,,,760.8917910996825,761.3829684001394,,,matt,4.190120100043714,,,,,,,,,,,,3.6547546996735036,None,,,,,,,,,,Würfel,,,cuedRecallAdj,1,,,,,,,,,,,,,,,,,,,,,,,,,,,,,,,,,,,,,,,,,,,,,,,,,,,,,752.0140355997719,752.0238207001239,0,752.0238207001239,756.2217469997704,groß,return,4.190120100043714,None,756.2220223001204,756.2314307997003,756.2314307997003,760.8915107999928,matt,return,4.654358100146055,None,,,,,1,2024-01-10_13h40.27.726,watkins1,2023.2.3,99.72565451617996,84,2024-01-10 13h40.44.718837 +0000,
,,,,,,,,,,,,,,,,,,,,,,,22,0,22,0,761.3930389997549,,,,,,,,,,762.4407735001296,762.9400418000296,,,,1.036874399986118,,,,,,,,,,,,None,None,,,,,,,,,,Blume,,,cuedRecallAdj,1,,,,,,,,,,,,,,,,,,,,,,,,,,,,,,,,,,,,,,,,,,,,,,,,,,,,,761.3832148998044,761.3930389997549,0,761.3930389997549,762.4382207999006,,return,1.036874399986118,None,762.4384977999143,762.4479968999512,762.4479968999512,762.4406694998033,,None,,,,,,,1,2024-01-10_13h40.27.726,watkins1,2023.2.3,99.72565451617996,84,2024-01-10 13h40.44.718837 +0000,
,,,,,,,,,,,,,,,,,,,,,,,23,0,23,0,762.9499820000492,,,,,,,,,,766.8973420998082,767.3887545997277,,,,3.5438073999248445,,,,,,,,,,,,0.40096130035817623,None,,,,,,,,,,Uhr,,,cuedRecallAdj,1,,,,,,,,,,,,,,,,,,,,,,,,,,,,,,,,,,,,,,,,,,,,,,,,,,,,,762.9402950997464,762.9499820000492,0,762.9499820000492,766.4953856999055,gestreift,return,3.5438073999248445,None,766.4956582998857,766.504932699725,766.504932699725,766.8970647999085,,return,0.38890499994158745,None,,,,,1,2024-01-10_13h40.27.726,watkins1,2023.2.3,99.72565451617996,84,2024-01-10 13h40.44.718837 +0000,
,,,,,,,,,,,,,,,,,,,,,,,24,0,24,0,767.3987027998082,,,,,,,,,,774.2186634000391,774.7100399998017,,,dunkel,4.759077100083232,,,,,,,,,,,,0.6419171998277307,None,,,,,,,,,,Brille,,,cuedRecallAdj,1,,,,,,,,,,,,,,,,,,,,,,,,,,,,,,,,,,,,,,,,,,,,,,,,,,,,,767.3890120997094,767.3987027998082,0,767.3987027998082,772.1598796998151,krumm,return,4.759077100083232,None,772.1601555999368,772.1694128997624,772.1694128997624,774.2183868000284,dunkel,return,2.044423199724406,None,,,,,1,2024-01-10_13h40.27.726,watkins1,2023.2.3,99.72565451617996,84,2024-01-10 13h40.44.718837 +0000,
,,,,,,,,,,,,,,,,,,,,,,,25,0,25,0,774.7199936998077,,,,,,,,,,789.1006693998352,789.5919408998452,,,durchsichtig,8.125877299811691,,,,,,,,,,,,2.6507031000219285,None,,,,,,,,,,Telefon,,,cuedRecallAdj,1,,,,,,,,,,,,,,,,,,,,,,,,,,,,,,,,,,,,,,,,,,,,,,,,,,,,,774.7102888999507,774.7199936998077,0,774.7199936998077,782.854070500005,klein,return,8.125877299811691,None,782.8543465998955,782.8637655000202,782.8637655000202,789.1003948999569,durchsichtig,return,6.230086599942297,None,,,,,1,2024-01-10_13h40.27.726,watkins1,2023.2.3,99.72565451617996,84,2024-01-10 13h40.44.718837 +0000,
,,,,,,,,,,,,,,,,,,,,,,,26,0,26,0,789.6018861997873,,,,,,,,,,800.1671492997557,800.6576784998178,,,schwer,6.379922500345856,,,,,,,,,,,,2.7708629998378456,None,,,,,,,,,,Stift,,,cuedRecallAdj,1,,,,,,,,,,,,,,,,,,,,,,,,,,,,,,,,,,,,,,,,,,,,,,,,,,,,,789.5921887001023,789.6018861997873,0,789.6018861997873,795.9887178000063,hässlich,return,6.379922500345856,None,795.9889902998693,795.9982632999308,795.9982632999308,800.166870799847,schwer,return,4.167872999794781,None,,,,,1,2024-01-10_13h40.27.726,watkins1,2023.2.3,99.72565451617996,84,2024-01-10 13h40.44.718837 +0000,
,,,,,,,,,,,,,,,,,,,,,,,27,0,27,0,800.6676316997036,,,,,,,,,,807.5103680999018,808.0086399000138,,,,6.834236499853432,,,,,,,,,,,,None,None,,,,,,,,,,Kamera,,,cuedRecallAdj,1,,,,,,,,,,,,,,,,,,,,,,,,,,,,,,,,,,,,,,,,,,,,,,,,,,,,,800.6579243000597,800.6676316997036,0,800.6676316997036,807.5069935997017,kurz,return,6.834236499853432,None,807.5072705997154,807.5165729001164,807.5165729001164,807.5102638998069,,None,,,,,,,1,2024-01-10_13h40.27.726,watkins1,2023.2.3,99.72565451617996,84,2024-01-10 13h40.44.718837 +0000,
,,,,,,,,,,,,,,,,,,,,,,,28,0,28,0,808.0185885000974,,,,,,,,,,811.837349599693,812.3286083000712,,,,3.0671844999305904,,,,,,,,,,,,0.7425607996992767,None,,,,,,,,,,Lampe,,,cuedRecallAdj,1,,,,,,,,,,,,,,,,,,,,,,,,,,,,,,,,,,,,,,,,,,,,,,,,,,,,,808.0088923000731,808.0185885000974,0,808.0185885000974,811.0937713999301,nass,return,3.0671844999305904,None,811.0940458998084,811.1034389999695,811.1034389999695,811.8370749996975,,return,0.7263251002877951,None,,,,,1,2024-01-10_13h40.27.726,watkins1,2023.2.3,99.72565451617996,84,2024-01-10 13h40.44.718837 +0000,
,,,,,,,,,,,,,,,,,,,,,,,29,0,29,0,812.3385509001091,,,,,,,,,,813.2348191998899,813.7242517000996,,,,0.8913223999552429,,,,,,,,,,,,None,None,,,,,,,,,,Buch,,,cuedRecallAdj,1,,,,,,,,,,,,,,,,,,,,,,,,,,,,,,,,,,,,,,,,,,,,,,,,,,,,,812.3288604998961,812.3385509001091,0,812.3385509001091,813.2327053998597,,return,0.8913223999552429,None,813.2329800999723,813.2422527996823,813.2422527996823,813.2347156000324,,None,,,,,,,1,2024-01-10_13h40.27.726,watkins1,2023.2.3,99.72565451617996,84,2024-01-10 13h40.44.718837 +0000,
,,,,,,,,,,,,,,,,,,,,,,,,,,,,,,,,,,,,,,,,,,,,,,,,,,,,,,,,,,,,,,,,,,,,,1,,,,,,,,,,,,,,,,,,,,,,,,,,,,,,,,,,,,,,,,,,,,,,,,,,,,,,,,,,,,,,,,,,,,,,813.7409986997955,q,4476.061469199602,None,1,2024-01-10_13h40.27.726,watkins1,2023.2.3,99.72565451617996,84,2024-01-10 13h40.44.718837 +0000,
