Equation,CorrectResponse,Correctbutton,trials_7.thisRepN,trials_7.thisTrialN,trials_7.thisN,trials_7.thisIndex,trials.thisRepN,trials.thisTrialN,trials.thisN,trials.thisIndex,trials_3.thisRepN,trials_3.thisTrialN,trials_3.thisN,trials_3.thisIndex,trials_2.thisRepN,trials_2.thisTrialN,trials_2.thisN,trials_2.thisIndex,trials_4.thisRepN,trials_4.thisTrialN,trials_4.thisN,trials_4.thisIndex,trials_5.thisRepN,trials_5.thisTrialN,trials_5.thisN,trials_5.thisIndex,thisRow.t,notes,list_sub_restudy,list_sub_testsub,code_marius.started,code_marius.stopped,welcome.started,welcome.stopped,instruction_study.started,instruction_study.stopped,fixationcross.started,fixationcross.stopped,blanc.started,blanc.stopped,study_control_probe.started,study_control_probe.stopped,responseKey,responseTime,scale_answer_2.keys,study_control_probe_2.started,study_control_probe_2.stopped,scale_answer_3.keys,scale_answer_3.rt,scale_answer_3.duration,blanc_2.started,blanc_2.stopped,test_attr_probe.started,test_attr_probe.stopped,recalled_attr,firstKeyTime,secondWordTime,blanc_3.started,blanc_3.stopped,test_sub_probe.started,test_sub_probe.stopped,recalled_sub,instruction_probe_end.started,instruction_probe_end.stopped,study.started,study.stopped,substantive,adjective,wordpair,task,condition,liste_sub_phase1,liste_adj_phase1,scale_answer.keys,scale_answer.rt,scale_answer.duration,code_defineWordsInit.started,code_defineWordsInit.stopped,liste_sub_phase2,study_control.started,study_control.stopped,scale_answer_4.keys,restudy_same.started,restudy_same.stopped,scale_answer_5.keys,restudy_different.started,restudy_different.stopped,scale_answer_6.keys,test_attr.started,test_attr.stopped,test_sub.started,correct,test_sub.stopped,scale_answer_5.rt,scale_answer_5.duration,distractortask.started,equation_text.started,distractortask.stopped,mouse_answer.x,mouse_answer.y,mouse_answer.leftButton,mouse_answer.midButton,mouse_answer.rightButton,mouse_answer.time,mouse_answer.clicked_name,feedback_distractortask.started,feedback_distractortask.stopped,free_recall.started,text_enter.started,key_resp.started,free_recall.stopped,key_resp.keys,key_resp.rt,key_resp.duration,free_recalled_sub,mouse_continue.x,mouse_continue.y,mouse_continue.leftButton,mouse_continue.midButton,mouse_continue.rightButton,mouse_continue.time,mouse_continue.clicked_name,cued_recall.started,text_enter_2.started,key_continue.started,cued_recall.stopped,recalled_attr1,key_continue.keys,key_continue.rt,key_continue.duration,cued_recall_2.started,text_enter_3.started,key_continue_2.started,cued_recall_2.stopped,recalled_attr2,key_continue_2.keys,key_resp_8.started,key_resp_8.keys,key_resp_8.rt,key_resp_8.duration,condition,date,expName,psychopyVersion,frameRate,participant,expStart,
,,,,,,,,,,,,,,,,,,,,,,,,,,,,,"['Löffel', 'Schere', 'Kiste', 'Buch', 'Hammer', 'Kerze', 'Bürste', 'Brille', 'Telefon', 'Hut', 'Lampe', 'Kamera', 'Socke', 'Würfel', 'Rucksack']","['Kette', 'Fahrrad', 'Tasche', 'Tasse', 'Flasche', 'Blume', 'Eimer', 'Geige', 'Jacke', 'Schlüssel', 'Vase', 'Ring', 'Stift', 'Uhr', 'Trommel']",0.11802699998952448,0.11809899983927608,0.11810709978453815,8.66748489998281,,,,,,,,,,,,,,,,,,,,,,,,,,,,,,,,,,,,,2,,,,,,,,,,,,,,,,,,,,,,,,,,,,,,,,,,,,,,,,,,,,,,,,,,,,,,,,,,,,,,,,,,,,,,2,2023-11-30_11h19.16.477,watkins1,2023.2.3,99.71402000963822,35,2023-11-30 11h19.24.562951 +0000,
,,,,,,,,,,,,,,,,,,,,,,,,,,,,,,,,,,,8.667533799773082,51.4770229998976,,,,,,,,,,,,,,,,,,,,,,,,,,,,,,,,,,,2,,,,,,,,,,,,,,,,,,,,,,,,,,,,,,,,,,,,,,,,,,,,,,,,,,,,,,,,,,,,,,,,,,,,,,2,2023-11-30_11h19.16.477,watkins1,2023.2.3,99.71402000963822,35,2023-11-30 11h19.24.562951 +0000,
,,,0,0,0,0,,,,,,,,,,,,,,,,,,,,,52.49070009985007,,,,,,,,,,51.47704049991444,52.48072159988806,58.980820199940354,59.472422999795526,52.97282899986021,58.9806096998509,1,4.670673999935389,None,59.472434599883854,65.48130589979701,1,4.670673999935389,None,65.48160049994476,65.48162509989925,65.48163209995255,65.48171179997735,,2.6612387001514435,5.974957600003108,65.48187619983219,65.97294159978628,65.97295279987156,71.97807009983808,capslockhca,,,,,,,,,2,,,,,,,,,,,,,,,,,,,,,,,,,,,,,,,,,,,,,,,,,,,,,,,,,,,,,,,,,,,,,,,,,,,,,,2,2023-11-30_11h19.16.477,watkins1,2023.2.3,99.71402000963822,35,2023-11-30 11h19.24.562951 +0000,
,,,,,,,,,,,,,,,,,,,,,,,,,,,,,,,,,,,,,,,,,,,,,,,,,,,,,,,,,,,,,,,71.97823129990138,81.37690459983423,,,,,,,2,,,,,,,,,,,,,,,,,,,,,,,,,,,,,,,,,,,,,,,,,,,,,,,,,,,,,,,,,,,,,,,,,,,,,,2,2023-11-30_11h19.16.477,watkins1,2023.2.3,99.71402000963822,35,2023-11-30 11h19.24.562951 +0000,
,,,,,,,0,0,0,0,,,,,,,,,,,,,,,,,82.39059409988113,,,,,,,,,,81.3769222998526,82.38061099988408,82.38109969999641,82.87252389988862,,,1,3.018197200028226,,,,,,,,,,,,,,,,,,,,,82.87253459985368,88.87752749980427,Schlüssel,zart,"['Schlüssel', 'zart']",test_sub,2,"['Schlüssel', 'Buch', 'Stift', 'Würfel', 'Hut', 'Fahrrad', 'Trommel', 'Eimer', 'Kamera', 'Socke', 'Geige', 'Löffel', 'Uhr', 'Flasche', 'Kerze', 'Kiste', 'Tasche', 'Jacke', 'Vase', 'Bürste', 'Hammer', 'Tasse', 'Kette', 'Telefon', 'Ring', 'Blume', 'Schere', 'Rucksack', 'Lampe', 'Brille']",['zart'],1,3.018197200028226,None,,,,,,,,,,,,,,,,,,,,,,,,,,,,,,,,,,,,,,,,,,,,,,,,,,,,,,,,,,,,,,,,,2,2023-11-30_11h19.16.477,watkins1,2023.2.3,99.71402000963822,35,2023-11-30 11h19.24.562951 +0000,
,,,,,,,1,0,1,0,,,,,,,,,,,,,,,,,88.88698989991099,,,,,,,,,,,,88.8781863998156,89.36891509988345,,,3,2.5716550999786705,,,,,,,,,,,,,,,,,,,,,89.3689250999596,95.37932259985246,Buch,praktisch,"['Buch', 'praktisch']",restudy,2,"['Schlüssel', 'Buch', 'Stift', 'Würfel', 'Hut', 'Fahrrad', 'Trommel', 'Eimer', 'Kamera', 'Socke', 'Geige', 'Löffel', 'Uhr', 'Flasche', 'Kerze', 'Kiste', 'Tasche', 'Jacke', 'Vase', 'Bürste', 'Hammer', 'Tasse', 'Kette', 'Telefon', 'Ring', 'Blume', 'Schere', 'Rucksack', 'Lampe', 'Brille']","['zart', 'praktisch']",3,2.5716550999786705,None,,,,,,,,,,,,,,,,,,,,,,,,,,,,,,,,,,,,,,,,,,,,,,,,,,,,,,,,,,,,,,,,,2,2023-11-30_11h19.16.477,watkins1,2023.2.3,99.71402000963822,35,2023-11-30 11h19.24.562951 +0000,
,,,,,,,2,0,2,0,,,,,,,,,,,,,,,,,95.3887907997705,,,,,,,,,,,,95.37985489983112,95.87103469995782,,,3,2.373370199929923,,,,,,,,,,,,,,,,,,,,,95.8710455999244,101.87215849990025,Stift,lang,"['Stift', 'lang']",test_sub,2,"['Schlüssel', 'Buch', 'Stift', 'Würfel', 'Hut', 'Fahrrad', 'Trommel', 'Eimer', 'Kamera', 'Socke', 'Geige', 'Löffel', 'Uhr', 'Flasche', 'Kerze', 'Kiste', 'Tasche', 'Jacke', 'Vase', 'Bürste', 'Hammer', 'Tasse', 'Kette', 'Telefon', 'Ring', 'Blume', 'Schere', 'Rucksack', 'Lampe', 'Brille']","['zart', 'praktisch', 'lang']",3,2.373370199929923,None,,,,,,,,,,,,,,,,,,,,,,,,,,,,,,,,,,,,,,,,,,,,,,,,,,,,,,,,,,,,,,,,,2,2023-11-30_11h19.16.477,watkins1,2023.2.3,99.71402000963822,35,2023-11-30 11h19.24.562951 +0000,
,,,,,,,3,0,3,0,,,,,,,,,,,,,,,,,101.88161879987456,,,,,,,,,,,,101.8728009997867,102.36356159998104,,,3,4.360928200185299,,,,,,,,,,,,,,,,,,,,,102.36357209994458,108.37307189987041,Würfel,gut,"['Würfel', 'gut']",restudy,2,"['Schlüssel', 'Buch', 'Stift', 'Würfel', 'Hut', 'Fahrrad', 'Trommel', 'Eimer', 'Kamera', 'Socke', 'Geige', 'Löffel', 'Uhr', 'Flasche', 'Kerze', 'Kiste', 'Tasche', 'Jacke', 'Vase', 'Bürste', 'Hammer', 'Tasse', 'Kette', 'Telefon', 'Ring', 'Blume', 'Schere', 'Rucksack', 'Lampe', 'Brille']","['zart', 'praktisch', 'lang', 'gut']",3,4.360928200185299,None,,,,,,,,,,,,,,,,,,,,,,,,,,,,,,,,,,,,,,,,,,,,,,,,,,,,,,,,,,,,,,,,,2,2023-11-30_11h19.16.477,watkins1,2023.2.3,99.71402000963822,35,2023-11-30 11h19.24.562951 +0000,
,,,,,,,4,0,4,0,,,,,,,,,,,,,,,,,108.38253509998322,,,,,,,,,,,,108.3736087998841,108.86459759995341,,,1,4.820295999990776,,,,,,,,,,,,,,,,,,,,,108.86460849992,114.86746579990722,Hut,schlicht,"['Hut', 'schlicht']",restudy,2,"['Schlüssel', 'Buch', 'Stift', 'Würfel', 'Hut', 'Fahrrad', 'Trommel', 'Eimer', 'Kamera', 'Socke', 'Geige', 'Löffel', 'Uhr', 'Flasche', 'Kerze', 'Kiste', 'Tasche', 'Jacke', 'Vase', 'Bürste', 'Hammer', 'Tasse', 'Kette', 'Telefon', 'Ring', 'Blume', 'Schere', 'Rucksack', 'Lampe', 'Brille']","['zart', 'praktisch', 'lang', 'gut', 'schlicht']",1,4.820295999990776,None,,,,,,,,,,,,,,,,,,,,,,,,,,,,,,,,,,,,,,,,,,,,,,,,,,,,,,,,,,,,,,,,,2,2023-11-30_11h19.16.477,watkins1,2023.2.3,99.71402000963822,35,2023-11-30 11h19.24.562951 +0000,
,,,,,,,5,0,5,0,,,,,,,,,,,,,,,,,114.87694309977815,,,,,,,,,,,,114.86799469985999,115.35897009982727,,,3,2.6373933001887053,,,,,,,,,,,,,,,,,,,,,115.35898099979386,121.3614558998961,Fahrrad,schmutzig,"['Fahrrad', 'schmutzig']",test_sub,2,"['Schlüssel', 'Buch', 'Stift', 'Würfel', 'Hut', 'Fahrrad', 'Trommel', 'Eimer', 'Kamera', 'Socke', 'Geige', 'Löffel', 'Uhr', 'Flasche', 'Kerze', 'Kiste', 'Tasche', 'Jacke', 'Vase', 'Bürste', 'Hammer', 'Tasse', 'Kette', 'Telefon', 'Ring', 'Blume', 'Schere', 'Rucksack', 'Lampe', 'Brille']","['zart', 'praktisch', 'lang', 'gut', 'schlicht', 'schmutzig']",3,2.6373933001887053,None,,,,,,,,,,,,,,,,,,,,,,,,,,,,,,,,,,,,,,,,,,,,,,,,,,,,,,,,,,,,,,,,,2,2023-11-30_11h19.16.477,watkins1,2023.2.3,99.71402000963822,35,2023-11-30 11h19.24.562951 +0000,
,,,,,,,6,0,6,0,,,,,,,,,,,,,,,,,121.37103239982389,,,,,,,,,,,,121.36199829983525,121.85305549995974,,,3,4.847450800007209,,,,,,,,,,,,,,,,,,,,,121.85306599992327,127.85475529986434,Trommel,gepunktet,"['Trommel', 'gepunktet']",test_sub,2,"['Schlüssel', 'Buch', 'Stift', 'Würfel', 'Hut', 'Fahrrad', 'Trommel', 'Eimer', 'Kamera', 'Socke', 'Geige', 'Löffel', 'Uhr', 'Flasche', 'Kerze', 'Kiste', 'Tasche', 'Jacke', 'Vase', 'Bürste', 'Hammer', 'Tasse', 'Kette', 'Telefon', 'Ring', 'Blume', 'Schere', 'Rucksack', 'Lampe', 'Brille']","['zart', 'praktisch', 'lang', 'gut', 'schlicht', 'schmutzig', 'gepunktet']",3,4.847450800007209,None,,,,,,,,,,,,,,,,,,,,,,,,,,,,,,,,,,,,,,,,,,,,,,,,,,,,,,,,,,,,,,,,,2,2023-11-30_11h19.16.477,watkins1,2023.2.3,99.71402000963822,35,2023-11-30 11h19.24.562951 +0000,
,,,,,,,7,0,7,0,,,,,,,,,,,,,,,,,127.8643367998302,,,,,,,,,,,,127.85528359981254,128.3462913997937,,,3,3.586492900038138,,,,,,,,,,,,,,,,,,,,,128.34630159987137,134.35668009985238,Eimer,kalt,"['Eimer', 'kalt']",test_sub,2,"['Schlüssel', 'Buch', 'Stift', 'Würfel', 'Hut', 'Fahrrad', 'Trommel', 'Eimer', 'Kamera', 'Socke', 'Geige', 'Löffel', 'Uhr', 'Flasche', 'Kerze', 'Kiste', 'Tasche', 'Jacke', 'Vase', 'Bürste', 'Hammer', 'Tasse', 'Kette', 'Telefon', 'Ring', 'Blume', 'Schere', 'Rucksack', 'Lampe', 'Brille']","['zart', 'praktisch', 'lang', 'gut', 'schlicht', 'schmutzig', 'gepunktet', 'kalt']",3,3.586492900038138,None,,,,,,,,,,,,,,,,,,,,,,,,,,,,,,,,,,,,,,,,,,,,,,,,,,,,,,,,,,,,,,,,,2,2023-11-30_11h19.16.477,watkins1,2023.2.3,99.71402000963822,35,2023-11-30 11h19.24.562951 +0000,
,,,,,,,8,0,8,0,,,,,,,,,,,,,,,,,134.3661069998052,,,,,,,,,,,,134.35720569989644,134.84819369995967,,,2,2.81175270001404,,,,,,,,,,,,,,,,,,,,,134.84820449980907,140.85060409992002,Kamera,groß,"['Kamera', 'groß']",restudy,2,"['Schlüssel', 'Buch', 'Stift', 'Würfel', 'Hut', 'Fahrrad', 'Trommel', 'Eimer', 'Kamera', 'Socke', 'Geige', 'Löffel', 'Uhr', 'Flasche', 'Kerze', 'Kiste', 'Tasche', 'Jacke', 'Vase', 'Bürste', 'Hammer', 'Tasse', 'Kette', 'Telefon', 'Ring', 'Blume', 'Schere', 'Rucksack', 'Lampe', 'Brille']","['zart', 'praktisch', 'lang', 'gut', 'schlicht', 'schmutzig', 'gepunktet', 'kalt', 'groß']",2,2.81175270001404,None,,,,,,,,,,,,,,,,,,,,,,,,,,,,,,,,,,,,,,,,,,,,,,,,,,,,,,,,,,,,,,,,,2,2023-11-30_11h19.16.477,watkins1,2023.2.3,99.71402000963822,35,2023-11-30 11h19.24.562951 +0000,
,,,,,,,9,0,9,0,,,,,,,,,,,,,,,,,140.85995289986022,,,,,,,,,,,,140.8511259998195,141.34203679999337,,,3,3.374983499990776,,,,,,,,,,,,,,,,,,,,,141.34204849996604,147.3524073997978,Socke,flauschig,"['Socke', 'flauschig']",restudy,2,"['Schlüssel', 'Buch', 'Stift', 'Würfel', 'Hut', 'Fahrrad', 'Trommel', 'Eimer', 'Kamera', 'Socke', 'Geige', 'Löffel', 'Uhr', 'Flasche', 'Kerze', 'Kiste', 'Tasche', 'Jacke', 'Vase', 'Bürste', 'Hammer', 'Tasse', 'Kette', 'Telefon', 'Ring', 'Blume', 'Schere', 'Rucksack', 'Lampe', 'Brille']","['zart', 'praktisch', 'lang', 'gut', 'schlicht', 'schmutzig', 'gepunktet', 'kalt', 'groß', 'flauschig']",3,3.374983499990776,None,,,,,,,,,,,,,,,,,,,,,,,,,,,,,,,,,,,,,,,,,,,,,,,,,,,,,,,,,,,,,,,,,2,2023-11-30_11h19.16.477,watkins1,2023.2.3,99.71402000963822,35,2023-11-30 11h19.24.562951 +0000,
,,,,,,,10,0,10,0,,,,,,,,,,,,,,,,,147.36186219984666,,,,,,,,,,,,147.35292849992402,147.8440303998068,,,1,1.6002914998680353,,,,,,,,,,,,,,,,,,,,,147.8440417998936,153.85313929989934,Geige,nass,"['Geige', 'nass']",test_sub,2,"['Schlüssel', 'Buch', 'Stift', 'Würfel', 'Hut', 'Fahrrad', 'Trommel', 'Eimer', 'Kamera', 'Socke', 'Geige', 'Löffel', 'Uhr', 'Flasche', 'Kerze', 'Kiste', 'Tasche', 'Jacke', 'Vase', 'Bürste', 'Hammer', 'Tasse', 'Kette', 'Telefon', 'Ring', 'Blume', 'Schere', 'Rucksack', 'Lampe', 'Brille']","['zart', 'praktisch', 'lang', 'gut', 'schlicht', 'schmutzig', 'gepunktet', 'kalt', 'groß', 'flauschig', 'nass']",1,1.6002914998680353,None,,,,,,,,,,,,,,,,,,,,,,,,,,,,,,,,,,,,,,,,,,,,,,,,,,,,,,,,,,,,,,,,,2,2023-11-30_11h19.16.477,watkins1,2023.2.3,99.71402000963822,35,2023-11-30 11h19.24.562951 +0000,
,,,,,,,11,0,11,0,,,,,,,,,,,,,,,,,153.86253409995697,,,,,,,,,,,,153.8536697998643,154.34472049982287,,,1,1.9549100999720395,,,,,,,,,,,,,,,,,,,,,154.34473159979098,160.3527991999872,Löffel,biegsam,"['Löffel', 'biegsam']",restudy,2,"['Schlüssel', 'Buch', 'Stift', 'Würfel', 'Hut', 'Fahrrad', 'Trommel', 'Eimer', 'Kamera', 'Socke', 'Geige', 'Löffel', 'Uhr', 'Flasche', 'Kerze', 'Kiste', 'Tasche', 'Jacke', 'Vase', 'Bürste', 'Hammer', 'Tasse', 'Kette', 'Telefon', 'Ring', 'Blume', 'Schere', 'Rucksack', 'Lampe', 'Brille']","['zart', 'praktisch', 'lang', 'gut', 'schlicht', 'schmutzig', 'gepunktet', 'kalt', 'groß', 'flauschig', 'nass', 'biegsam']",1,1.9549100999720395,None,,,,,,,,,,,,,,,,,,,,,,,,,,,,,,,,,,,,,,,,,,,,,,,,,,,,,,,,,,,,,,,,,2,2023-11-30_11h19.16.477,watkins1,2023.2.3,99.71402000963822,35,2023-11-30 11h19.24.562951 +0000,
,,,,,,,12,0,12,0,,,,,,,,,,,,,,,,,160.36227469984442,,,,,,,,,,,,160.35331829986535,160.84415679983795,,,1,2.5525126999709755,,,,,,,,,,,,,,,,,,,,,160.844167499803,166.84646209981292,Uhr,kurz,"['Uhr', 'kurz']",test_sub,2,"['Schlüssel', 'Buch', 'Stift', 'Würfel', 'Hut', 'Fahrrad', 'Trommel', 'Eimer', 'Kamera', 'Socke', 'Geige', 'Löffel', 'Uhr', 'Flasche', 'Kerze', 'Kiste', 'Tasche', 'Jacke', 'Vase', 'Bürste', 'Hammer', 'Tasse', 'Kette', 'Telefon', 'Ring', 'Blume', 'Schere', 'Rucksack', 'Lampe', 'Brille']","['zart', 'praktisch', 'lang', 'gut', 'schlicht', 'schmutzig', 'gepunktet', 'kalt', 'groß', 'flauschig', 'nass', 'biegsam', 'kurz']",1,2.5525126999709755,None,,,,,,,,,,,,,,,,,,,,,,,,,,,,,,,,,,,,,,,,,,,,,,,,,,,,,,,,,,,,,,,,,2,2023-11-30_11h19.16.477,watkins1,2023.2.3,99.71402000963822,35,2023-11-30 11h19.24.562951 +0000,
,,,,,,,13,0,13,0,,,,,,,,,,,,,,,,,166.85590119985864,,,,,,,,,,,,166.846997999819,167.33809499978088,,,1,4.682946500135586,,,,,,,,,,,,,,,,,,,,,167.3381065998692,173.33941379981115,Flasche,matt,"['Flasche', 'matt']",test_sub,2,"['Schlüssel', 'Buch', 'Stift', 'Würfel', 'Hut', 'Fahrrad', 'Trommel', 'Eimer', 'Kamera', 'Socke', 'Geige', 'Löffel', 'Uhr', 'Flasche', 'Kerze', 'Kiste', 'Tasche', 'Jacke', 'Vase', 'Bürste', 'Hammer', 'Tasse', 'Kette', 'Telefon', 'Ring', 'Blume', 'Schere', 'Rucksack', 'Lampe', 'Brille']","['zart', 'praktisch', 'lang', 'gut', 'schlicht', 'schmutzig', 'gepunktet', 'kalt', 'groß', 'flauschig', 'nass', 'biegsam', 'kurz', 'matt']",1,4.682946500135586,None,,,,,,,,,,,,,,,,,,,,,,,,,,,,,,,,,,,,,,,,,,,,,,,,,,,,,,,,,,,,,,,,,2,2023-11-30_11h19.16.477,watkins1,2023.2.3,99.71402000963822,35,2023-11-30 11h19.24.562951 +0000,
,,,,,,,14,0,14,0,,,,,,,,,,,,,,,,,173.3489314999897,,,,,,,,,,,,173.3399417998735,173.8310376999434,,,2,3.478190500056371,,,,,,,,,,,,,,,,,,,,,173.83104839990847,179.84096209984273,Kerze,kaputt,"['Kerze', 'kaputt']",restudy,2,"['Schlüssel', 'Buch', 'Stift', 'Würfel', 'Hut', 'Fahrrad', 'Trommel', 'Eimer', 'Kamera', 'Socke', 'Geige', 'Löffel', 'Uhr', 'Flasche', 'Kerze', 'Kiste', 'Tasche', 'Jacke', 'Vase', 'Bürste', 'Hammer', 'Tasse', 'Kette', 'Telefon', 'Ring', 'Blume', 'Schere', 'Rucksack', 'Lampe', 'Brille']","['zart', 'praktisch', 'lang', 'gut', 'schlicht', 'schmutzig', 'gepunktet', 'kalt', 'groß', 'flauschig', 'nass', 'biegsam', 'kurz', 'matt', 'kaputt']",2,3.478190500056371,None,,,,,,,,,,,,,,,,,,,,,,,,,,,,,,,,,,,,,,,,,,,,,,,,,,,,,,,,,,,,,,,,,2,2023-11-30_11h19.16.477,watkins1,2023.2.3,99.71402000963822,35,2023-11-30 11h19.24.562951 +0000,
,,,,,,,15,0,15,0,,,,,,,,,,,,,,,,,179.85052739991806,,,,,,,,,,,,179.84148899978027,180.33278339984827,,,2,4.119151199935004,,,,,,,,,,,,,,,,,,,,,180.33279439993203,186.33869509981014,Kiste,glänzend,"['Kiste', 'glänzend']",restudy,2,"['Schlüssel', 'Buch', 'Stift', 'Würfel', 'Hut', 'Fahrrad', 'Trommel', 'Eimer', 'Kamera', 'Socke', 'Geige', 'Löffel', 'Uhr', 'Flasche', 'Kerze', 'Kiste', 'Tasche', 'Jacke', 'Vase', 'Bürste', 'Hammer', 'Tasse', 'Kette', 'Telefon', 'Ring', 'Blume', 'Schere', 'Rucksack', 'Lampe', 'Brille']","['zart', 'praktisch', 'lang', 'gut', 'schlicht', 'schmutzig', 'gepunktet', 'kalt', 'groß', 'flauschig', 'nass', 'biegsam', 'kurz', 'matt', 'kaputt', 'glänzend']",2,4.119151199935004,None,,,,,,,,,,,,,,,,,,,,,,,,,,,,,,,,,,,,,,,,,,,,,,,,,,,,,,,,,,,,,,,,,2,2023-11-30_11h19.16.477,watkins1,2023.2.3,99.71402000963822,35,2023-11-30 11h19.24.562951 +0000,
,,,,,,,16,0,16,0,,,,,,,,,,,,,,,,,186.34816529997624,,,,,,,,,,,,186.33921829983592,186.83024129993282,,,3,2.727000900078565,,,,,,,,,,,,,,,,,,,,,186.8302511998918,192.83979239990003,Tasche,dunkel,"['Tasche', 'dunkel']",test_sub,2,"['Schlüssel', 'Buch', 'Stift', 'Würfel', 'Hut', 'Fahrrad', 'Trommel', 'Eimer', 'Kamera', 'Socke', 'Geige', 'Löffel', 'Uhr', 'Flasche', 'Kerze', 'Kiste', 'Tasche', 'Jacke', 'Vase', 'Bürste', 'Hammer', 'Tasse', 'Kette', 'Telefon', 'Ring', 'Blume', 'Schere', 'Rucksack', 'Lampe', 'Brille']","['zart', 'praktisch', 'lang', 'gut', 'schlicht', 'schmutzig', 'gepunktet', 'kalt', 'groß', 'flauschig', 'nass', 'biegsam', 'kurz', 'matt', 'kaputt', 'glänzend', 'dunkel']",3,2.727000900078565,None,,,,,,,,,,,,,,,,,,,,,,,,,,,,,,,,,,,,,,,,,,,,,,,,,,,,,,,,,,,,,,,,,2,2023-11-30_11h19.16.477,watkins1,2023.2.3,99.71402000963822,35,2023-11-30 11h19.24.562951 +0000,
,,,,,,,17,0,17,0,,,,,,,,,,,,,,,,,192.84916759980842,,,,,,,,,,,,192.84034319990315,193.33130069985054,,,2,4.616955199977383,,,,,,,,,,,,,,,,,,,,,193.33131209993735,199.33254309999757,Jacke,glatt,"['Jacke', 'glatt']",test_sub,2,"['Schlüssel', 'Buch', 'Stift', 'Würfel', 'Hut', 'Fahrrad', 'Trommel', 'Eimer', 'Kamera', 'Socke', 'Geige', 'Löffel', 'Uhr', 'Flasche', 'Kerze', 'Kiste', 'Tasche', 'Jacke', 'Vase', 'Bürste', 'Hammer', 'Tasse', 'Kette', 'Telefon', 'Ring', 'Blume', 'Schere', 'Rucksack', 'Lampe', 'Brille']","['zart', 'praktisch', 'lang', 'gut', 'schlicht', 'schmutzig', 'gepunktet', 'kalt', 'groß', 'flauschig', 'nass', 'biegsam', 'kurz', 'matt', 'kaputt', 'glänzend', 'dunkel', 'glatt']",2,4.616955199977383,None,,,,,,,,,,,,,,,,,,,,,,,,,,,,,,,,,,,,,,,,,,,,,,,,,,,,,,,,,,,,,,,,,2,2023-11-30_11h19.16.477,watkins1,2023.2.3,99.71402000963822,35,2023-11-30 11h19.24.562951 +0000,
,,,,,,,18,0,18,0,,,,,,,,,,,,,,,,,199.34200159995817,,,,,,,,,,,,199.33307869988494,199.8239007999655,,,1,1.9168800998013467,,,,,,,,,,,,,,,,,,,,,199.82391169993207,205.82653669989668,Vase,lustig,"['Vase', 'lustig']",test_sub,2,"['Schlüssel', 'Buch', 'Stift', 'Würfel', 'Hut', 'Fahrrad', 'Trommel', 'Eimer', 'Kamera', 'Socke', 'Geige', 'Löffel', 'Uhr', 'Flasche', 'Kerze', 'Kiste', 'Tasche', 'Jacke', 'Vase', 'Bürste', 'Hammer', 'Tasse', 'Kette', 'Telefon', 'Ring', 'Blume', 'Schere', 'Rucksack', 'Lampe', 'Brille']","['zart', 'praktisch', 'lang', 'gut', 'schlicht', 'schmutzig', 'gepunktet', 'kalt', 'groß', 'flauschig', 'nass', 'biegsam', 'kurz', 'matt', 'kaputt', 'glänzend', 'dunkel', 'glatt', 'lustig']",1,1.9168800998013467,None,,,,,,,,,,,,,,,,,,,,,,,,,,,,,,,,,,,,,,,,,,,,,,,,,,,,,,,,,,,,,,,,,2,2023-11-30_11h19.16.477,watkins1,2023.2.3,99.71402000963822,35,2023-11-30 11h19.24.562951 +0000,
,,,,,,,19,0,19,0,,,,,,,,,,,,,,,,,205.8359516998753,,,,,,,,,,,,205.82709039980546,206.31809409987181,,,1,2.3184428000822663,,,,,,,,,,,,,,,,,,,,,206.31810479983687,212.32196589978412,Bürste,verspielt,"['Bürste', 'verspielt']",restudy,2,"['Schlüssel', 'Buch', 'Stift', 'Würfel', 'Hut', 'Fahrrad', 'Trommel', 'Eimer', 'Kamera', 'Socke', 'Geige', 'Löffel', 'Uhr', 'Flasche', 'Kerze', 'Kiste', 'Tasche', 'Jacke', 'Vase', 'Bürste', 'Hammer', 'Tasse', 'Kette', 'Telefon', 'Ring', 'Blume', 'Schere', 'Rucksack', 'Lampe', 'Brille']","['zart', 'praktisch', 'lang', 'gut', 'schlicht', 'schmutzig', 'gepunktet', 'kalt', 'groß', 'flauschig', 'nass', 'biegsam', 'kurz', 'matt', 'kaputt', 'glänzend', 'dunkel', 'glatt', 'lustig', 'verspielt']",1,2.3184428000822663,None,,,,,,,,,,,,,,,,,,,,,,,,,,,,,,,,,,,,,,,,,,,,,,,,,,,,,,,,,,,,,,,,,2,2023-11-30_11h19.16.477,watkins1,2023.2.3,99.71402000963822,35,2023-11-30 11h19.24.562951 +0000,
,,,,,,,20,0,20,0,,,,,,,,,,,,,,,,,212.3314270998817,,,,,,,,,,,,212.32249399996363,212.81353819998913,,,3,3.527726500062272,,,,,,,,,,,,,,,,,,,,,212.81354849995114,218.81955829984508,Hammer,klobig,"['Hammer', 'klobig']",restudy,2,"['Schlüssel', 'Buch', 'Stift', 'Würfel', 'Hut', 'Fahrrad', 'Trommel', 'Eimer', 'Kamera', 'Socke', 'Geige', 'Löffel', 'Uhr', 'Flasche', 'Kerze', 'Kiste', 'Tasche', 'Jacke', 'Vase', 'Bürste', 'Hammer', 'Tasse', 'Kette', 'Telefon', 'Ring', 'Blume', 'Schere', 'Rucksack', 'Lampe', 'Brille']","['zart', 'praktisch', 'lang', 'gut', 'schlicht', 'schmutzig', 'gepunktet', 'kalt', 'groß', 'flauschig', 'nass', 'biegsam', 'kurz', 'matt', 'kaputt', 'glänzend', 'dunkel', 'glatt', 'lustig', 'verspielt', 'klobig']",3,3.527726500062272,None,,,,,,,,,,,,,,,,,,,,,,,,,,,,,,,,,,,,,,,,,,,,,,,,,,,,,,,,,,,,,,,,,2,2023-11-30_11h19.16.477,watkins1,2023.2.3,99.71402000963822,35,2023-11-30 11h19.24.562951 +0000,
,,,,,,,21,0,21,0,,,,,,,,,,,,,,,,,218.82912739994936,,,,,,,,,,,,218.82009059982374,219.31129159987904,,,2,5.517794599989429,,,,,,,,,,,,,,,,,,,,,219.3113030998502,225.3210451998748,Tasse,durchsichtig,"['Tasse', 'durchsichtig']",test_sub,2,"['Schlüssel', 'Buch', 'Stift', 'Würfel', 'Hut', 'Fahrrad', 'Trommel', 'Eimer', 'Kamera', 'Socke', 'Geige', 'Löffel', 'Uhr', 'Flasche', 'Kerze', 'Kiste', 'Tasche', 'Jacke', 'Vase', 'Bürste', 'Hammer', 'Tasse', 'Kette', 'Telefon', 'Ring', 'Blume', 'Schere', 'Rucksack', 'Lampe', 'Brille']","['zart', 'praktisch', 'lang', 'gut', 'schlicht', 'schmutzig', 'gepunktet', 'kalt', 'groß', 'flauschig', 'nass', 'biegsam', 'kurz', 'matt', 'kaputt', 'glänzend', 'dunkel', 'glatt', 'lustig', 'verspielt', 'klobig', 'durchsichtig']",2,5.517794599989429,None,,,,,,,,,,,,,,,,,,,,,,,,,,,,,,,,,,,,,,,,,,,,,,,,,,,,,,,,,,,,,,,,,2,2023-11-30_11h19.16.477,watkins1,2023.2.3,99.71402000963822,35,2023-11-30 11h19.24.562951 +0000,
,,,,,,,22,0,22,0,,,,,,,,,,,,,,,,,225.3306161998771,,,,,,,,,,,,225.32157669984736,225.81257209996693,,,1,2.7120515001006424,,,,,,,,,,,,,,,,,,,,,225.8125824998133,231.81397689995356,Kette,schwer,"['Kette', 'schwer']",test_sub,2,"['Schlüssel', 'Buch', 'Stift', 'Würfel', 'Hut', 'Fahrrad', 'Trommel', 'Eimer', 'Kamera', 'Socke', 'Geige', 'Löffel', 'Uhr', 'Flasche', 'Kerze', 'Kiste', 'Tasche', 'Jacke', 'Vase', 'Bürste', 'Hammer', 'Tasse', 'Kette', 'Telefon', 'Ring', 'Blume', 'Schere', 'Rucksack', 'Lampe', 'Brille']","['zart', 'praktisch', 'lang', 'gut', 'schlicht', 'schmutzig', 'gepunktet', 'kalt', 'groß', 'flauschig', 'nass', 'biegsam', 'kurz', 'matt', 'kaputt', 'glänzend', 'dunkel', 'glatt', 'lustig', 'verspielt', 'klobig', 'durchsichtig', 'schwer']",1,2.7120515001006424,None,,,,,,,,,,,,,,,,,,,,,,,,,,,,,,,,,,,,,,,,,,,,,,,,,,,,,,,,,,,,,,,,,2,2023-11-30_11h19.16.477,watkins1,2023.2.3,99.71402000963822,35,2023-11-30 11h19.24.562951 +0000,
,,,,,,,23,0,23,0,,,,,,,,,,,,,,,,,231.82339089992456,,,,,,,,,,,,231.81450399989262,232.30543949990533,,,3,2.4995850999839604,,,,,,,,,,,,,,,,,,,,,232.3054501998704,238.30789999989793,Telefon,sauber,"['Telefon', 'sauber']",restudy,2,"['Schlüssel', 'Buch', 'Stift', 'Würfel', 'Hut', 'Fahrrad', 'Trommel', 'Eimer', 'Kamera', 'Socke', 'Geige', 'Löffel', 'Uhr', 'Flasche', 'Kerze', 'Kiste', 'Tasche', 'Jacke', 'Vase', 'Bürste', 'Hammer', 'Tasse', 'Kette', 'Telefon', 'Ring', 'Blume', 'Schere', 'Rucksack', 'Lampe', 'Brille']","['zart', 'praktisch', 'lang', 'gut', 'schlicht', 'schmutzig', 'gepunktet', 'kalt', 'groß', 'flauschig', 'nass', 'biegsam', 'kurz', 'matt', 'kaputt', 'glänzend', 'dunkel', 'glatt', 'lustig', 'verspielt', 'klobig', 'durchsichtig', 'schwer', 'sauber']",3,2.4995850999839604,None,,,,,,,,,,,,,,,,,,,,,,,,,,,,,,,,,,,,,,,,,,,,,,,,,,,,,,,,,,,,,,,,,2,2023-11-30_11h19.16.477,watkins1,2023.2.3,99.71402000963822,35,2023-11-30 11h19.24.562951 +0000,
,,,,,,,24,0,24,0,,,,,,,,,,,,,,,,,238.31735439994372,,,,,,,,,,,,238.30843359977007,238.79939389997162,,,1,2.141128499992192,,,,,,,,,,,,,,,,,,,,,238.7994036998134,244.80004009976983,Ring,blass,"['Ring', 'blass']",test_sub,2,"['Schlüssel', 'Buch', 'Stift', 'Würfel', 'Hut', 'Fahrrad', 'Trommel', 'Eimer', 'Kamera', 'Socke', 'Geige', 'Löffel', 'Uhr', 'Flasche', 'Kerze', 'Kiste', 'Tasche', 'Jacke', 'Vase', 'Bürste', 'Hammer', 'Tasse', 'Kette', 'Telefon', 'Ring', 'Blume', 'Schere', 'Rucksack', 'Lampe', 'Brille']","['zart', 'praktisch', 'lang', 'gut', 'schlicht', 'schmutzig', 'gepunktet', 'kalt', 'groß', 'flauschig', 'nass', 'biegsam', 'kurz', 'matt', 'kaputt', 'glänzend', 'dunkel', 'glatt', 'lustig', 'verspielt', 'klobig', 'durchsichtig', 'schwer', 'sauber', 'blass']",1,2.141128499992192,None,,,,,,,,,,,,,,,,,,,,,,,,,,,,,,,,,,,,,,,,,,,,,,,,,,,,,,,,,,,,,,,,,2,2023-11-30_11h19.16.477,watkins1,2023.2.3,99.71402000963822,35,2023-11-30 11h19.24.562951 +0000,
,,,,,,,25,0,25,0,,,,,,,,,,,,,,,,,244.80948199983686,,,,,,,,,,,,244.80056189978495,245.2919350999873,,,1,3.3851583001669496,,,,,,,,,,,,,,,,,,,,,245.29194559995085,251.29363989992999,Blume,niedlich,"['Blume', 'niedlich']",test_sub,2,"['Schlüssel', 'Buch', 'Stift', 'Würfel', 'Hut', 'Fahrrad', 'Trommel', 'Eimer', 'Kamera', 'Socke', 'Geige', 'Löffel', 'Uhr', 'Flasche', 'Kerze', 'Kiste', 'Tasche', 'Jacke', 'Vase', 'Bürste', 'Hammer', 'Tasse', 'Kette', 'Telefon', 'Ring', 'Blume', 'Schere', 'Rucksack', 'Lampe', 'Brille']","['zart', 'praktisch', 'lang', 'gut', 'schlicht', 'schmutzig', 'gepunktet', 'kalt', 'groß', 'flauschig', 'nass', 'biegsam', 'kurz', 'matt', 'kaputt', 'glänzend', 'dunkel', 'glatt', 'lustig', 'verspielt', 'klobig', 'durchsichtig', 'schwer', 'sauber', 'blass', 'niedlich']",1,3.3851583001669496,None,,,,,,,,,,,,,,,,,,,,,,,,,,,,,,,,,,,,,,,,,,,,,,,,,,,,,,,,,,,,,,,,,2,2023-11-30_11h19.16.477,watkins1,2023.2.3,99.71402000963822,35,2023-11-30 11h19.24.562951 +0000,
,,,,,,,26,0,26,0,,,,,,,,,,,,,,,,,251.30311559978873,,,,,,,,,,,,251.29418169986457,251.78513829992153,,,1,1.5562617001123726,,,,,,,,,,,,,,,,,,,,,251.78514929977246,257.7921436999459,Schere,hohl,"['Schere', 'hohl']",restudy,2,"['Schlüssel', 'Buch', 'Stift', 'Würfel', 'Hut', 'Fahrrad', 'Trommel', 'Eimer', 'Kamera', 'Socke', 'Geige', 'Löffel', 'Uhr', 'Flasche', 'Kerze', 'Kiste', 'Tasche', 'Jacke', 'Vase', 'Bürste', 'Hammer', 'Tasse', 'Kette', 'Telefon', 'Ring', 'Blume', 'Schere', 'Rucksack', 'Lampe', 'Brille']","['zart', 'praktisch', 'lang', 'gut', 'schlicht', 'schmutzig', 'gepunktet', 'kalt', 'groß', 'flauschig', 'nass', 'biegsam', 'kurz', 'matt', 'kaputt', 'glänzend', 'dunkel', 'glatt', 'lustig', 'verspielt', 'klobig', 'durchsichtig', 'schwer', 'sauber', 'blass', 'niedlich', 'hohl']",1,1.5562617001123726,None,,,,,,,,,,,,,,,,,,,,,,,,,,,,,,,,,,,,,,,,,,,,,,,,,,,,,,,,,,,,,,,,,2,2023-11-30_11h19.16.477,watkins1,2023.2.3,99.71402000963822,35,2023-11-30 11h19.24.562951 +0000,
,,,,,,,27,0,27,0,,,,,,,,,,,,,,,,,257.80160639993846,,,,,,,,,,,,257.79266299982555,258.2839838999789,,,1,1.720784500008449,,,,,,,,,,,,,,,,,,,,,258.2839952998329,264.2871677998919,Rucksack,winzig,"['Rucksack', 'winzig']",restudy,2,"['Schlüssel', 'Buch', 'Stift', 'Würfel', 'Hut', 'Fahrrad', 'Trommel', 'Eimer', 'Kamera', 'Socke', 'Geige', 'Löffel', 'Uhr', 'Flasche', 'Kerze', 'Kiste', 'Tasche', 'Jacke', 'Vase', 'Bürste', 'Hammer', 'Tasse', 'Kette', 'Telefon', 'Ring', 'Blume', 'Schere', 'Rucksack', 'Lampe', 'Brille']","['zart', 'praktisch', 'lang', 'gut', 'schlicht', 'schmutzig', 'gepunktet', 'kalt', 'groß', 'flauschig', 'nass', 'biegsam', 'kurz', 'matt', 'kaputt', 'glänzend', 'dunkel', 'glatt', 'lustig', 'verspielt', 'klobig', 'durchsichtig', 'schwer', 'sauber', 'blass', 'niedlich', 'hohl', 'winzig']",1,1.720784500008449,None,,,,,,,,,,,,,,,,,,,,,,,,,,,,,,,,,,,,,,,,,,,,,,,,,,,,,,,,,,,,,,,,,2,2023-11-30_11h19.16.477,watkins1,2023.2.3,99.71402000963822,35,2023-11-30 11h19.24.562951 +0000,
,,,,,,,28,0,28,0,,,,,,,,,,,,,,,,,264.2966723998543,,,,,,,,,,,,264.2876917999238,264.779034699779,,,2,3.1458808998577297,,,,,,,,,,,,,,,,,,,,,264.77904519997537,270.78401869977824,Lampe,rustikal,"['Lampe', 'rustikal']",restudy,2,"['Schlüssel', 'Buch', 'Stift', 'Würfel', 'Hut', 'Fahrrad', 'Trommel', 'Eimer', 'Kamera', 'Socke', 'Geige', 'Löffel', 'Uhr', 'Flasche', 'Kerze', 'Kiste', 'Tasche', 'Jacke', 'Vase', 'Bürste', 'Hammer', 'Tasse', 'Kette', 'Telefon', 'Ring', 'Blume', 'Schere', 'Rucksack', 'Lampe', 'Brille']","['zart', 'praktisch', 'lang', 'gut', 'schlicht', 'schmutzig', 'gepunktet', 'kalt', 'groß', 'flauschig', 'nass', 'biegsam', 'kurz', 'matt', 'kaputt', 'glänzend', 'dunkel', 'glatt', 'lustig', 'verspielt', 'klobig', 'durchsichtig', 'schwer', 'sauber', 'blass', 'niedlich', 'hohl', 'winzig', 'rustikal']",2,3.1458808998577297,None,,,,,,,,,,,,,,,,,,,,,,,,,,,,,,,,,,,,,,,,,,,,,,,,,,,,,,,,,,,,,,,,,2,2023-11-30_11h19.16.477,watkins1,2023.2.3,99.71402000963822,35,2023-11-30 11h19.24.562951 +0000,
,,,,,,,29,0,29,0,,,,,,,,,,,,,,,,,270.7935779998079,,,,,,,,,,,,270.7845522998832,271.2755700999405,,,3,4.1373192998580635,,,,,,,,,,,,,,,,,,,,,271.2755814997945,277.28607919998467,Brille,teuer,"['Brille', 'teuer']",restudy,2,"['Schlüssel', 'Buch', 'Stift', 'Würfel', 'Hut', 'Fahrrad', 'Trommel', 'Eimer', 'Kamera', 'Socke', 'Geige', 'Löffel', 'Uhr', 'Flasche', 'Kerze', 'Kiste', 'Tasche', 'Jacke', 'Vase', 'Bürste', 'Hammer', 'Tasse', 'Kette', 'Telefon', 'Ring', 'Blume', 'Schere', 'Rucksack', 'Lampe', 'Brille']","['zart', 'praktisch', 'lang', 'gut', 'schlicht', 'schmutzig', 'gepunktet', 'kalt', 'groß', 'flauschig', 'nass', 'biegsam', 'kurz', 'matt', 'kaputt', 'glänzend', 'dunkel', 'glatt', 'lustig', 'verspielt', 'klobig', 'durchsichtig', 'schwer', 'sauber', 'blass', 'niedlich', 'hohl', 'winzig', 'rustikal', 'teuer']",3,4.1373192998580635,None,,,,,,,,,,,,,,,,,,,,,,,,,,,,,,,,,,,,,,,,,,,,,,,,,,,,,,,,,,,,,,,,,2,2023-11-30_11h19.16.477,watkins1,2023.2.3,99.71402000963822,35,2023-11-30 11h19.24.562951 +0000,
,,,,,,,,,,,0,0,0,0,,,,,,,,,,,,,277.2955383998342,,,,,,,,,,,,277.2869347999804,277.77739709988236,,,[],[],,,,,,,,,,,,3.274953900137916,None,,,,,stift,,,,,Stift,lang,"['Stift', 'lang']",test_sub,2,,,,,,277.2868603998795,277.2869080998935,"['Stift', 'Kiste', 'Löffel', 'Kamera', 'Jacke', 'Hammer', 'Brille', 'Fahrrad', 'Kerze', 'Eimer', 'Schlüssel', 'Hut', 'Geige', 'Socke', 'Flasche', 'Bürste', 'Telefon', 'Vase', 'Tasse', 'Trommel', 'Tasche', 'Lampe', 'Schere', 'Blume', 'Ring', 'Rucksack', 'Uhr', 'Buch', 'Kette', 'Würfel']",277.7774080999661,277.78010649979115,None,277.78030359977856,277.78295879997313,None,277.7831241998356,277.7856451999396,None,277.78580369986594,277.7869776999578,277.7869903999381,0,283.7933531999588,,,,,,,,,,,,,,,,,,,,,,,,,,,,,,,,,,,,,,,,,,,,,,,,2,2023-11-30_11h19.16.477,watkins1,2023.2.3,99.71402000963822,35,2023-11-30 11h19.24.562951 +0000,
,,,,,,,,,,,1,0,1,0,,,,,,,,,,,,,283.80315869976766,,,,,,,,,,,,283.7936381998006,284.28517009993084,,,[],[],,,,,,,,,,,,None,None,,,,,,,,,,Kiste,glänzend,"['Kiste', 'glänzend']",restudy,2,,,,,,283.79357119998895,283.79360939981416,"['Stift', 'Kiste', 'Löffel', 'Kamera', 'Jacke', 'Hammer', 'Brille', 'Fahrrad', 'Kerze', 'Eimer', 'Schlüssel', 'Hut', 'Geige', 'Socke', 'Flasche', 'Bürste', 'Telefon', 'Vase', 'Tasse', 'Trommel', 'Tasche', 'Lampe', 'Schere', 'Blume', 'Ring', 'Rucksack', 'Uhr', 'Buch', 'Kette', 'Würfel']",284.28518119989894,284.2878686999902,None,284.287994899787,290.2927898999769,1,290.29317019996233,290.2960004999768,None,290.29611649992876,290.29729389981367,290.29730589990504,,290.2988404999487,4.324649199843407,None,,,,,,,,,,,,,,,,,,,,,,,,,,,,,,,,,,,,,,,,,,,,,,2,2023-11-30_11h19.16.477,watkins1,2023.2.3,99.71402000963822,35,2023-11-30 11h19.24.562951 +0000,
,,,,,,,,,,,2,0,2,0,,,,,,,,,,,,,290.3021591999568,,,,,,,,,,,,290.29912989982404,290.7942661999259,,,[],[],,,,,,,,,,,,None,None,,,,,,,,,,Löffel,biegsam,"['Löffel', 'biegsam']",restudy,2,,,,,,290.2990619998891,290.2991030998528,"['Stift', 'Kiste', 'Löffel', 'Kamera', 'Jacke', 'Hammer', 'Brille', 'Fahrrad', 'Kerze', 'Eimer', 'Schlüssel', 'Hut', 'Geige', 'Socke', 'Flasche', 'Bürste', 'Telefon', 'Vase', 'Tasse', 'Trommel', 'Tasche', 'Lampe', 'Schere', 'Blume', 'Ring', 'Rucksack', 'Uhr', 'Buch', 'Kette', 'Würfel']",290.794277299894,290.79719379986636,None,290.79731849976815,296.8004272999242,1,296.8007291997783,296.8034476998728,None,296.8035601999145,296.804753099801,296.80476519977674,,296.80597289977595,2.647954200161621,None,,,,,,,,,,,,,,,,,,,,,,,,,,,,,,,,,,,,,,,,,,,,,,2,2023-11-30_11h19.16.477,watkins1,2023.2.3,99.71402000963822,35,2023-11-30 11h19.24.562951 +0000,
,,,,,,,,,,,3,0,3,0,,,,,,,,,,,,,296.80989909986965,,,,,,,,,,,,296.80625579995103,297.3020440998953,,,[],[],,,,,,,,,,,,None,None,,,,,,,,,,Kamera,groß,"['Kamera', 'groß']",restudy,2,,,,,,296.80619079992175,296.8062289999798,"['Stift', 'Kiste', 'Löffel', 'Kamera', 'Jacke', 'Hammer', 'Brille', 'Fahrrad', 'Kerze', 'Eimer', 'Schlüssel', 'Hut', 'Geige', 'Socke', 'Flasche', 'Bürste', 'Telefon', 'Vase', 'Tasse', 'Trommel', 'Tasche', 'Lampe', 'Schere', 'Blume', 'Ring', 'Rucksack', 'Uhr', 'Buch', 'Kette', 'Würfel']",297.3020551998634,297.3048415998928,None,297.3049673999194,303.3121410999447,2,303.3124665999785,303.3150543998927,None,303.31516939983703,303.31634729984216,303.31635929993354,,303.31739259976894,1.4207231998443604,None,,,,,,,,,,,,,,,,,,,,,,,,,,,,,,,,,,,,,,,,,,,,,,2,2023-11-30_11h19.16.477,watkins1,2023.2.3,99.71402000963822,35,2023-11-30 11h19.24.562951 +0000,
,,,,,,,,,,,4,0,4,0,,,,,,,,,,,,,303.3211959998589,,,,,,,,,,,,303.31767879985273,303.8133209999651,,,[],[],,,,,,,,,,,,2.528688000049442,None,,,,,jacke,,,,,Jacke,glatt,"['Jacke', 'glatt']",test_sub,2,,,,,,303.3176133998204,303.31765189999714,"['Stift', 'Kiste', 'Löffel', 'Kamera', 'Jacke', 'Hammer', 'Brille', 'Fahrrad', 'Kerze', 'Eimer', 'Schlüssel', 'Hut', 'Geige', 'Socke', 'Flasche', 'Bürste', 'Telefon', 'Vase', 'Tasse', 'Trommel', 'Tasche', 'Lampe', 'Schere', 'Blume', 'Ring', 'Rucksack', 'Uhr', 'Buch', 'Kette', 'Würfel']",303.81333189993165,303.81599679985084,None,303.81612099986523,303.8175587998703,None,303.8176672998816,303.81908809999004,None,303.81919799977913,303.8203561999835,303.8203687998466,0,309.8234390998259,,,,,,,,,,,,,,,,,,,,,,,,,,,,,,,,,,,,,,,,,,,,,,,,2,2023-11-30_11h19.16.477,watkins1,2023.2.3,99.71402000963822,35,2023-11-30 11h19.24.562951 +0000,
,,,,,,,,,,,5,0,5,0,,,,,,,,,,,,,309.83318159985356,,,,,,,,,,,,309.8237201999873,310.315278199967,,,[],[],,,,,,,,,,,,None,None,,,,,,,,,,Hammer,klobig,"['Hammer', 'klobig']",restudy,2,,,,,,309.82365349982865,309.82369059999473,"['Stift', 'Kiste', 'Löffel', 'Kamera', 'Jacke', 'Hammer', 'Brille', 'Fahrrad', 'Kerze', 'Eimer', 'Schlüssel', 'Hut', 'Geige', 'Socke', 'Flasche', 'Bürste', 'Telefon', 'Vase', 'Tasse', 'Trommel', 'Tasche', 'Lampe', 'Schere', 'Blume', 'Ring', 'Rucksack', 'Uhr', 'Buch', 'Kette', 'Würfel']",310.3152891998179,310.3180213999003,None,310.3181443999056,316.3226846999023,3,316.3229907997884,316.32568239979446,None,316.3257948998362,316.3269803998992,316.32699219998904,,316.3284896998666,3.4790845999959856,None,,,,,,,,,,,,,,,,,,,,,,,,,,,,,,,,,,,,,,,,,,,,,,2,2023-11-30_11h19.16.477,watkins1,2023.2.3,99.71402000963822,35,2023-11-30 11h19.24.562951 +0000,
,,,,,,,,,,,6,0,6,0,,,,,,,,,,,,,316.33225379977375,,,,,,,,,,,,316.32877349993214,316.82419239985757,,,[],[],,,,,,,,,,,,None,None,,,,,,,,,,Brille,teuer,"['Brille', 'teuer']",restudy,2,,,,,,316.3287077997811,316.3287463998422,"['Stift', 'Kiste', 'Löffel', 'Kamera', 'Jacke', 'Hammer', 'Brille', 'Fahrrad', 'Kerze', 'Eimer', 'Schlüssel', 'Hut', 'Geige', 'Socke', 'Flasche', 'Bürste', 'Telefon', 'Vase', 'Tasse', 'Trommel', 'Tasche', 'Lampe', 'Schere', 'Blume', 'Ring', 'Rucksack', 'Uhr', 'Buch', 'Kette', 'Würfel']",316.8242028998211,316.8269238998182,None,316.82704849983566,322.8305003999267,3,322.8308032997884,322.8335247999057,None,322.8336417998653,322.834825999802,322.8348381998949,,322.8361138999462,1.2022735998034477,None,,,,,,,,,,,,,,,,,,,,,,,,,,,,,,,,,,,,,,,,,,,,,,2,2023-11-30_11h19.16.477,watkins1,2023.2.3,99.71402000963822,35,2023-11-30 11h19.24.562951 +0000,
,,,,,,,,,,,7,0,7,0,,,,,,,,,,,,,322.8399445998948,,,,,,,,,,,,322.8364012998063,323.3320744999219,,,[],[],,,,,,,,,,,,2.7103669000789523,None,,,,,telefon,,,,,Fahrrad,schmutzig,"['Fahrrad', 'schmutzig']",test_sub,2,,,,,,322.8363352997694,322.8363739999477,"['Stift', 'Kiste', 'Löffel', 'Kamera', 'Jacke', 'Hammer', 'Brille', 'Fahrrad', 'Kerze', 'Eimer', 'Schlüssel', 'Hut', 'Geige', 'Socke', 'Flasche', 'Bürste', 'Telefon', 'Vase', 'Tasse', 'Trommel', 'Tasche', 'Lampe', 'Schere', 'Blume', 'Ring', 'Rucksack', 'Uhr', 'Buch', 'Kette', 'Würfel']",323.3320856997743,323.33486289996654,None,323.3349901998881,323.3364792999346,None,323.3365916998591,323.3380732999649,None,323.3381860998925,323.3394090998918,323.33942189998925,0,329.34380879998207,,,,,,,,,,,,,,,,,,,,,,,,,,,,,,,,,,,,,,,,,,,,,,,,2,2023-11-30_11h19.16.477,watkins1,2023.2.3,99.71402000963822,35,2023-11-30 11h19.24.562951 +0000,
,,,,,,,,,,,8,0,8,0,,,,,,,,,,,,,329.35362329985946,,,,,,,,,,,,329.34408339997754,329.8359619998373,,,[],[],,,,,,,,,,,,None,None,,,,,,,,,,Kerze,kaputt,"['Kerze', 'kaputt']",restudy,2,,,,,,329.34401839994825,329.3440555999987,"['Stift', 'Kiste', 'Löffel', 'Kamera', 'Jacke', 'Hammer', 'Brille', 'Fahrrad', 'Kerze', 'Eimer', 'Schlüssel', 'Hut', 'Geige', 'Socke', 'Flasche', 'Bürste', 'Telefon', 'Vase', 'Tasse', 'Trommel', 'Tasche', 'Lampe', 'Schere', 'Blume', 'Ring', 'Rucksack', 'Uhr', 'Buch', 'Kette', 'Würfel']",329.8359728998039,329.8387396999169,None,329.8388661998324,335.8422371998895,2,335.8425328999292,335.8453584997915,None,335.8454709998332,335.84665199997835,335.8466644999571,,335.84817769983783,2.0944767999462783,None,,,,,,,,,,,,,,,,,,,,,,,,,,,,,,,,,,,,,,,,,,,,,,2,2023-11-30_11h19.16.477,watkins1,2023.2.3,99.71402000963822,35,2023-11-30 11h19.24.562951 +0000,
,,,,,,,,,,,9,0,9,0,,,,,,,,,,,,,335.85170069988817,,,,,,,,,,,,335.84846479981206,336.3438324998133,,,[],[],,,,,,,,,,,,None,None,,,,,,,,,,Eimer,kalt,"['Eimer', 'kalt']",test_sub,2,,,,,,335.8483989997767,335.8484383998439,"['Stift', 'Kiste', 'Löffel', 'Kamera', 'Jacke', 'Hammer', 'Brille', 'Fahrrad', 'Kerze', 'Eimer', 'Schlüssel', 'Hut', 'Geige', 'Socke', 'Flasche', 'Bürste', 'Telefon', 'Vase', 'Tasse', 'Trommel', 'Tasche', 'Lampe', 'Schere', 'Blume', 'Ring', 'Rucksack', 'Uhr', 'Buch', 'Kette', 'Würfel']",336.34384399978444,336.34657149994746,None,336.34670129977167,336.3481448998209,None,336.34825869998895,336.34970059990883,None,336.34981029992923,336.3509799998719,336.3509927999694,0,342.35450919996947,,,,,,,,,,,,,,,,,,,,,,,,,,,,,,,,,,,,,,,,,,,,,,,,2,2023-11-30_11h19.16.477,watkins1,2023.2.3,99.71402000963822,35,2023-11-30 11h19.24.562951 +0000,
,,,,,,,,,,,10,0,10,0,,,,,,,,,,,,,342.36437339987606,,,,,,,,,,,,342.3547934999224,342.8467505997978,,,[],[],,,,,,,,,,,,None,None,,,,,,,,,,Schlüssel,zart,"['Schlüssel', 'zart']",test_sub,2,,,,,,342.35472779977135,342.3547649998218,"['Stift', 'Kiste', 'Löffel', 'Kamera', 'Jacke', 'Hammer', 'Brille', 'Fahrrad', 'Kerze', 'Eimer', 'Schlüssel', 'Hut', 'Geige', 'Socke', 'Flasche', 'Bürste', 'Telefon', 'Vase', 'Tasse', 'Trommel', 'Tasche', 'Lampe', 'Schere', 'Blume', 'Ring', 'Rucksack', 'Uhr', 'Buch', 'Kette', 'Würfel']",342.8467610999942,342.8495247999672,None,342.8496499999892,342.8521588000003,None,342.8522695999127,342.8547812998295,None,342.85489529999904,342.8561372999102,342.8561496997718,0,348.8616314998362,,,,,,,,,,,,,,,,,,,,,,,,,,,,,,,,,,,,,,,,,,,,,,,,2,2023-11-30_11h19.16.477,watkins1,2023.2.3,99.71402000963822,35,2023-11-30 11h19.24.562951 +0000,
,,,,,,,,,,,11,0,11,0,,,,,,,,,,,,,348.8714302999433,,,,,,,,,,,,348.8619125999976,349.3534016998019,,,[],[],,,,,,,,,,,,None,None,,,,,,,,,,Hut,schlicht,"['Hut', 'schlicht']",restudy,2,,,,,,348.86184689984657,348.8618839997798,"['Stift', 'Kiste', 'Löffel', 'Kamera', 'Jacke', 'Hammer', 'Brille', 'Fahrrad', 'Kerze', 'Eimer', 'Schlüssel', 'Hut', 'Geige', 'Socke', 'Flasche', 'Bürste', 'Telefon', 'Vase', 'Tasse', 'Trommel', 'Tasche', 'Lampe', 'Schere', 'Blume', 'Ring', 'Rucksack', 'Uhr', 'Buch', 'Kette', 'Würfel']",349.3534123999998,349.35585169983096,None,349.3559746998362,355.3673475999385,1,355.36764419986866,355.370252299821,None,355.37036579987034,355.3713930998929,355.37140509998426,,355.3726077999454,2.6254294000100344,None,,,,,,,,,,,,,,,,,,,,,,,,,,,,,,,,,,,,,,,,,,,,,,2,2023-11-30_11h19.16.477,watkins1,2023.2.3,99.71402000963822,35,2023-11-30 11h19.24.562951 +0000,
,,,,,,,,,,,12,0,12,0,,,,,,,,,,,,,355.37682279990986,,,,,,,,,,,,355.3728954999242,355.8697403999977,,,[],[],,,,,,,,,,,,3.994858899852261,None,,,,,uhr,,,,,Geige,nass,"['Geige', 'nass']",test_sub,2,,,,,,355.372826699866,355.37286559981294,"['Stift', 'Kiste', 'Löffel', 'Kamera', 'Jacke', 'Hammer', 'Brille', 'Fahrrad', 'Kerze', 'Eimer', 'Schlüssel', 'Hut', 'Geige', 'Socke', 'Flasche', 'Bürste', 'Telefon', 'Vase', 'Tasse', 'Trommel', 'Tasche', 'Lampe', 'Schere', 'Blume', 'Ring', 'Rucksack', 'Uhr', 'Buch', 'Kette', 'Würfel']",355.86975129996426,355.8725278999191,None,355.8726539998315,355.87409579986706,None,355.8742058998905,355.8758004999254,None,355.87591029983014,355.8770691999234,355.87708179978654,0,361.88044649991207,,,,,,,,,,,,,,,,,,,,,,,,,,,,,,,,,,,,,,,,,,,,,,,,2,2023-11-30_11h19.16.477,watkins1,2023.2.3,99.71402000963822,35,2023-11-30 11h19.24.562951 +0000,
,,,,,,,,,,,13,0,13,0,,,,,,,,,,,,,361.8902163999155,,,,,,,,,,,,361.88072459981777,362.3723061999772,,,[],[],,,,,,,,,,,,None,None,,,,,,,,,,Socke,flauschig,"['Socke', 'flauschig']",restudy,2,,,,,,361.8806592999026,361.8806957998313,"['Stift', 'Kiste', 'Löffel', 'Kamera', 'Jacke', 'Hammer', 'Brille', 'Fahrrad', 'Kerze', 'Eimer', 'Schlüssel', 'Hut', 'Geige', 'Socke', 'Flasche', 'Bürste', 'Telefon', 'Vase', 'Tasse', 'Trommel', 'Tasche', 'Lampe', 'Schere', 'Blume', 'Ring', 'Rucksack', 'Uhr', 'Buch', 'Kette', 'Würfel']",362.37231689994223,362.37491369992495,None,362.3750391998328,368.38141339994036,3,368.38171659992076,368.38451169990003,None,368.3846299999859,368.3857975997962,368.38580939988606,,368.38735689991154,1.3740202002227306,None,,,,,,,,,,,,,,,,,,,,,,,,,,,,,,,,,,,,,,,,,,,,,,2,2023-11-30_11h19.16.477,watkins1,2023.2.3,99.71402000963822,35,2023-11-30 11h19.24.562951 +0000,
,,,,,,,,,,,14,0,14,0,,,,,,,,,,,,,368.3908461998217,,,,,,,,,,,,368.38764229998924,368.8830418998841,,,[],[],,,,,,,,,,,,3.6439922999124974,None,,,,,flasche,,,,,Flasche,matt,"['Flasche', 'matt']",test_sub,2,,,,,,368.38757679983974,368.38761559990235,"['Stift', 'Kiste', 'Löffel', 'Kamera', 'Jacke', 'Hammer', 'Brille', 'Fahrrad', 'Kerze', 'Eimer', 'Schlüssel', 'Hut', 'Geige', 'Socke', 'Flasche', 'Bürste', 'Telefon', 'Vase', 'Tasse', 'Trommel', 'Tasche', 'Lampe', 'Schere', 'Blume', 'Ring', 'Rucksack', 'Uhr', 'Buch', 'Kette', 'Würfel']",368.8830527998507,368.8858410997782,None,368.88596359989606,368.88743239990436,None,368.8875411998015,368.88901689997874,None,368.88912539999,368.89051149995066,368.8905242998153,0,374.89460399979725,,,,,,,,,,,,,,,,,,,,,,,,,,,,,,,,,,,,,,,,,,,,,,,,2,2023-11-30_11h19.16.477,watkins1,2023.2.3,99.71402000963822,35,2023-11-30 11h19.24.562951 +0000,
,,,,,,,,,,,15,0,15,0,,,,,,,,,,,,,374.90440539992414,,,,,,,,,,,,374.89488449995406,375.3864878998138,,,[],[],,,,,,,,,,,,None,None,,,,,,,,,,Bürste,verspielt,"['Bürste', 'verspielt']",restudy,2,,,,,,374.89481849991716,374.8948556999676,"['Stift', 'Kiste', 'Löffel', 'Kamera', 'Jacke', 'Hammer', 'Brille', 'Fahrrad', 'Kerze', 'Eimer', 'Schlüssel', 'Hut', 'Geige', 'Socke', 'Flasche', 'Bürste', 'Telefon', 'Vase', 'Tasse', 'Trommel', 'Tasche', 'Lampe', 'Schere', 'Blume', 'Ring', 'Rucksack', 'Uhr', 'Buch', 'Kette', 'Würfel']",375.38649859977886,375.3891788998153,None,375.38930069981143,381.3959141999949,1,381.396210399922,381.3989972998388,None,381.39910919987597,381.4003172998782,381.4003292999696,,381.40204709977843,1.4478170999791473,None,,,,,,,,,,,,,,,,,,,,,,,,,,,,,,,,,,,,,,,,,,,,,,2,2023-11-30_11h19.16.477,watkins1,2023.2.3,99.71402000963822,35,2023-11-30 11h19.24.562951 +0000,
,,,,,,,,,,,16,0,16,0,,,,,,,,,,,,,381.40539039997384,,,,,,,,,,,,381.40233219997026,381.8974167997949,,,[],[],,,,,,,,,,,,None,None,,,,,,,,,,Telefon,sauber,"['Telefon', 'sauber']",restudy,2,,,,,,381.4022660998162,381.4023051999975,"['Stift', 'Kiste', 'Löffel', 'Kamera', 'Jacke', 'Hammer', 'Brille', 'Fahrrad', 'Kerze', 'Eimer', 'Schlüssel', 'Hut', 'Geige', 'Socke', 'Flasche', 'Bürste', 'Telefon', 'Vase', 'Tasse', 'Trommel', 'Tasche', 'Lampe', 'Schere', 'Blume', 'Ring', 'Rucksack', 'Uhr', 'Buch', 'Kette', 'Würfel']",381.8974275998771,381.9002288999036,None,381.90035289991647,387.9026619999204,3,387.9029532999266,387.9057067998219,None,387.9058206998743,387.9073440998327,387.90735639980994,,387.90852639987133,4.200871899956837,None,,,,,,,,,,,,,,,,,,,,,,,,,,,,,,,,,,,,,,,,,,,,,,2,2023-11-30_11h19.16.477,watkins1,2023.2.3,99.71402000963822,35,2023-11-30 11h19.24.562951 +0000,
,,,,,,,,,,,17,0,17,0,,,,,,,,,,,,,387.9119900998194,,,,,,,,,,,,387.90880829980597,388.40462559997104,,,[],[],,,,,,,,,,,,1.8559999999124557,None,,,,,vase,,,,,Vase,lustig,"['Vase', 'lustig']",test_sub,2,,,,,,387.9087429998908,387.9087815999519,"['Stift', 'Kiste', 'Löffel', 'Kamera', 'Jacke', 'Hammer', 'Brille', 'Fahrrad', 'Kerze', 'Eimer', 'Schlüssel', 'Hut', 'Geige', 'Socke', 'Flasche', 'Bürste', 'Telefon', 'Vase', 'Tasse', 'Trommel', 'Tasche', 'Lampe', 'Schere', 'Blume', 'Ring', 'Rucksack', 'Uhr', 'Buch', 'Kette', 'Würfel']",388.40463689994067,388.4072164997924,None,388.4073396997992,388.4086364998948,None,388.40874499990605,388.4100397999864,None,388.4101491998881,388.41117289988324,388.41118559986353,0,394.4145699997898,,,,,,,,,,,,,,,,,,,,,,,,,,,,,,,,,,,,,,,,,,,,,,,,2,2023-11-30_11h19.16.477,watkins1,2023.2.3,99.71402000963822,35,2023-11-30 11h19.24.562951 +0000,
,,,,,,,,,,,18,0,18,0,,,,,,,,,,,,,394.42437779996544,,,,,,,,,,,,394.4148482999299,394.9061761999037,,,[],[],,,,,,,,,,,,1.5683877000119537,3.2151593000162393,,,,,tasse,,,,,Tasse,durchsichtig,"['Tasse', 'durchsichtig']",test_sub,2,,,,,,394.4147823997773,394.4148194999434,"['Stift', 'Kiste', 'Löffel', 'Kamera', 'Jacke', 'Hammer', 'Brille', 'Fahrrad', 'Kerze', 'Eimer', 'Schlüssel', 'Hut', 'Geige', 'Socke', 'Flasche', 'Bürste', 'Telefon', 'Vase', 'Tasse', 'Trommel', 'Tasche', 'Lampe', 'Schere', 'Blume', 'Ring', 'Rucksack', 'Uhr', 'Buch', 'Kette', 'Würfel']",394.90618719998747,394.9090076999273,None,394.9091350999661,394.91169529990293,None,394.91180749982595,394.91437169979326,None,394.91448329994455,394.9156673999969,394.9156804999802,0,400.92266129981726,,,,,,,,,,,,,,,,,,,,,,,,,,,,,,,,,,,,,,,,,,,,,,,,2,2023-11-30_11h19.16.477,watkins1,2023.2.3,99.71402000963822,35,2023-11-30 11h19.24.562951 +0000,
,,,,,,,,,,,19,0,19,0,,,,,,,,,,,,,400.9325636997819,,,,,,,,,,,,400.92294719978236,401.4145102999173,,,[],[],,,,,,,,,,,,2.080233999993652,None,,,,,trommel,,,,,Trommel,gepunktet,"['Trommel', 'gepunktet']",test_sub,2,,,,,,400.9228782998398,400.9229175997898,"['Stift', 'Kiste', 'Löffel', 'Kamera', 'Jacke', 'Hammer', 'Brille', 'Fahrrad', 'Kerze', 'Eimer', 'Schlüssel', 'Hut', 'Geige', 'Socke', 'Flasche', 'Bürste', 'Telefon', 'Vase', 'Tasse', 'Trommel', 'Tasche', 'Lampe', 'Schere', 'Blume', 'Ring', 'Rucksack', 'Uhr', 'Buch', 'Kette', 'Würfel']",401.4145213998854,401.4174229998607,None,401.41755199991167,401.42024789983407,None,401.4203595998697,401.42339899996296,None,401.4235080999788,401.4246986999642,401.42471149982885,0,407.43168239993975,,,,,,,,,,,,,,,,,,,,,,,,,,,,,,,,,,,,,,,,,,,,,,,,2,2023-11-30_11h19.16.477,watkins1,2023.2.3,99.71402000963822,35,2023-11-30 11h19.24.562951 +0000,
,,,,,,,,,,,20,0,20,0,,,,,,,,,,,,,407.4414868999738,,,,,,,,,,,,407.431965299882,407.9234952998813,,,[],[],,,,,,,,,,,,2.1313916000071913,3.6074135000817478,,,,,tasche,,,,,Tasche,dunkel,"['Tasche', 'dunkel']",test_sub,2,,,,,,407.43189709982835,407.4319367997814,"['Stift', 'Kiste', 'Löffel', 'Kamera', 'Jacke', 'Hammer', 'Brille', 'Fahrrad', 'Kerze', 'Eimer', 'Schlüssel', 'Hut', 'Geige', 'Socke', 'Flasche', 'Bürste', 'Telefon', 'Vase', 'Tasse', 'Trommel', 'Tasche', 'Lampe', 'Schere', 'Blume', 'Ring', 'Rucksack', 'Uhr', 'Buch', 'Kette', 'Würfel']",407.92350579984486,407.926285199821,None,407.92641109996475,407.9290294998791,None,407.9291412997991,407.93173879990354,None,407.9318469997961,407.93301589996554,407.93302849982865,0,413.9416910998989,,,,,,,,,,,,,,,,,,,,,,,,,,,,,,,,,,,,,,,,,,,,,,,,2,2023-11-30_11h19.16.477,watkins1,2023.2.3,99.71402000963822,35,2023-11-30 11h19.24.562951 +0000,
,,,,,,,,,,,21,0,21,0,,,,,,,,,,,,,413.95143789984286,,,,,,,,,,,,413.94197449996136,414.43354699993506,,,[],[],,,,,,,,,,,,None,None,,,,,,,,,,Lampe,rustikal,"['Lampe', 'rustikal']",restudy,2,,,,,,413.94190259999596,413.9419456999749,"['Stift', 'Kiste', 'Löffel', 'Kamera', 'Jacke', 'Hammer', 'Brille', 'Fahrrad', 'Kerze', 'Eimer', 'Schlüssel', 'Hut', 'Geige', 'Socke', 'Flasche', 'Bürste', 'Telefon', 'Vase', 'Tasse', 'Trommel', 'Tasche', 'Lampe', 'Schere', 'Blume', 'Ring', 'Rucksack', 'Uhr', 'Buch', 'Kette', 'Würfel']",414.43355779978447,414.4362528999336,None,414.43637719983235,420.44628439983353,2,420.44658989994787,420.4493254998233,None,420.4494426997844,420.4507257998921,420.4507378998678,,420.45226019993424,2.184813699917868,None,,,,,,,,,,,,,,,,,,,,,,,,,,,,,,,,,,,,,,,,,,,,,,2,2023-11-30_11h19.16.477,watkins1,2023.2.3,99.71402000963822,35,2023-11-30 11h19.24.562951 +0000,
,,,,,,,,,,,22,0,22,0,,,,,,,,,,,,,420.45574989984743,,,,,,,,,,,,420.45254889992066,420.9479423998855,,,[],[],,,,,,,,,,,,None,None,,,,,,,,,,Schere,hohl,"['Schere', 'hohl']",restudy,2,,,,,,420.4524827999994,420.45252219983377,"['Stift', 'Kiste', 'Löffel', 'Kamera', 'Jacke', 'Hammer', 'Brille', 'Fahrrad', 'Kerze', 'Eimer', 'Schlüssel', 'Hut', 'Geige', 'Socke', 'Flasche', 'Bürste', 'Telefon', 'Vase', 'Tasse', 'Trommel', 'Tasche', 'Lampe', 'Schere', 'Blume', 'Ring', 'Rucksack', 'Uhr', 'Buch', 'Kette', 'Würfel']",420.9479537999723,420.95071709994227,None,420.9508439998608,426.95446529984474,1,426.954765799921,426.9574146999512,None,426.95752879977226,426.95870729978196,426.95871949987486,,426.95976629992947,1.582577500026673,None,,,,,,,,,,,,,,,,,,,,,,,,,,,,,,,,,,,,,,,,,,,,,,2,2023-11-30_11h19.16.477,watkins1,2023.2.3,99.71402000963822,35,2023-11-30 11h19.24.562951 +0000,
,,,,,,,,,,,23,0,23,0,,,,,,,,,,,,,426.9639215997886,,,,,,,,,,,,426.9600538997911,427.4559140999336,,,[],[],,,,,,,,,,,,2.1983822998590767,None,,,,,blume,,,,,Blume,niedlich,"['Blume', 'niedlich']",test_sub,2,,,,,,426.9599866999779,426.96002659993246,"['Stift', 'Kiste', 'Löffel', 'Kamera', 'Jacke', 'Hammer', 'Brille', 'Fahrrad', 'Kerze', 'Eimer', 'Schlüssel', 'Hut', 'Geige', 'Socke', 'Flasche', 'Bürste', 'Telefon', 'Vase', 'Tasse', 'Trommel', 'Tasche', 'Lampe', 'Schere', 'Blume', 'Ring', 'Rucksack', 'Uhr', 'Buch', 'Kette', 'Würfel']",427.4559251999017,427.45846129977144,None,427.4585884998087,427.4600191998761,None,427.4601329998113,427.4615586998407,None,427.4616668999661,427.46281749987975,427.4628305998631,0,433.4671572998632,,,,,,,,,,,,,,,,,,,,,,,,,,,,,,,,,,,,,,,,,,,,,,,,2,2023-11-30_11h19.16.477,watkins1,2023.2.3,99.71402000963822,35,2023-11-30 11h19.24.562951 +0000,
,,,,,,,,,,,24,0,24,0,,,,,,,,,,,,,433.4768878999166,,,,,,,,,,,,433.46742979995906,433.9589819998946,,,[],[],,,,,,,,,,,,None,None,,,,,,,,,,Ring,blass,"['Ring', 'blass']",test_sub,2,,,,,,433.4673649999313,433.46740139997564,"['Stift', 'Kiste', 'Löffel', 'Kamera', 'Jacke', 'Hammer', 'Brille', 'Fahrrad', 'Kerze', 'Eimer', 'Schlüssel', 'Hut', 'Geige', 'Socke', 'Flasche', 'Bürste', 'Telefon', 'Vase', 'Tasse', 'Trommel', 'Tasche', 'Lampe', 'Schere', 'Blume', 'Ring', 'Rucksack', 'Uhr', 'Buch', 'Kette', 'Würfel']",433.95899269985966,433.9616395998746,None,433.9617666997947,433.96421869983897,None,433.9643287998624,433.96678399993107,None,433.96689339983277,433.9679378999863,433.9679504998494,0,439.9737604998518,,,,,,,,,,,,,,,,,,,,,,,,,,,,,,,,,,,,,,,,,,,,,,,,2,2023-11-30_11h19.16.477,watkins1,2023.2.3,99.71402000963822,35,2023-11-30 11h19.24.562951 +0000,
,,,,,,,,,,,25,0,25,0,,,,,,,,,,,,,439.9835475999862,,,,,,,,,,,,439.9740395999979,440.46553999977186,,,[],[],,,,,,,,,,,,None,None,,,,,,,,,,Rucksack,winzig,"['Rucksack', 'winzig']",restudy,2,,,,,,439.97397449985147,439.9740116999019,"['Stift', 'Kiste', 'Löffel', 'Kamera', 'Jacke', 'Hammer', 'Brille', 'Fahrrad', 'Kerze', 'Eimer', 'Schlüssel', 'Hut', 'Geige', 'Socke', 'Flasche', 'Bürste', 'Telefon', 'Vase', 'Tasse', 'Trommel', 'Tasche', 'Lampe', 'Schere', 'Blume', 'Ring', 'Rucksack', 'Uhr', 'Buch', 'Kette', 'Würfel']",440.4655508999713,440.4682820998132,None,440.4684086998459,446.47155239991844,1,446.4718492999673,446.4746780998539,None,446.4747924997937,446.4760167999193,446.47602879977785,,446.4772122998256,1.704757299972698,None,,,,,,,,,,,,,,,,,,,,,,,,,,,,,,,,,,,,,,,,,,,,,,2,2023-11-30_11h19.16.477,watkins1,2023.2.3,99.71402000963822,35,2023-11-30 11h19.24.562951 +0000,
,,,,,,,,,,,26,0,26,0,,,,,,,,,,,,,446.4810098998714,,,,,,,,,,,,446.4774982999079,446.97331069991924,,,[],[],,,,,,,,,,,,2.537975199986249,None,,,,,uhr,,,,,Uhr,kurz,"['Uhr', 'kurz']",test_sub,2,,,,,,446.4774320998695,446.4774713998195,"['Stift', 'Kiste', 'Löffel', 'Kamera', 'Jacke', 'Hammer', 'Brille', 'Fahrrad', 'Kerze', 'Eimer', 'Schlüssel', 'Hut', 'Geige', 'Socke', 'Flasche', 'Bürste', 'Telefon', 'Vase', 'Tasse', 'Trommel', 'Tasche', 'Lampe', 'Schere', 'Blume', 'Ring', 'Rucksack', 'Uhr', 'Buch', 'Kette', 'Würfel']",446.97332129999995,446.9758419999853,None,446.9759683997836,446.97725279978476,None,446.9773634998128,446.97864139988087,None,446.9787499997765,446.97976149991155,446.97977419989184,0,452.98211429989897,,,,,,,,,,,,,,,,,,,,,,,,,,,,,,,,,,,,,,,,,,,,,,,,2,2023-11-30_11h19.16.477,watkins1,2023.2.3,99.71402000963822,35,2023-11-30 11h19.24.562951 +0000,
,,,,,,,,,,,27,0,27,0,,,,,,,,,,,,,452.9919180998113,,,,,,,,,,,,452.98239789996296,453.4740385999903,,,[],[],,,,,,,,,,,,None,None,,,,,,,,,,Buch,praktisch,"['Buch', 'praktisch']",restudy,2,,,,,,452.98233159980737,452.98236939986236,"['Stift', 'Kiste', 'Löffel', 'Kamera', 'Jacke', 'Hammer', 'Brille', 'Fahrrad', 'Kerze', 'Eimer', 'Schlüssel', 'Hut', 'Geige', 'Socke', 'Flasche', 'Bürste', 'Telefon', 'Vase', 'Tasse', 'Trommel', 'Tasche', 'Lampe', 'Schere', 'Blume', 'Ring', 'Rucksack', 'Uhr', 'Buch', 'Kette', 'Würfel']",453.4740494999569,453.4765088998247,None,453.47663319995627,459.4781585999299,3,459.4784599998966,459.48119279998355,None,459.4813056997955,459.48234439990483,459.48235649988055,,459.4838970999699,1.3044606999028474,None,,,,,,,,,,,,,,,,,,,,,,,,,,,,,,,,,,,,,,,,,,,,,,2,2023-11-30_11h19.16.477,watkins1,2023.2.3,99.71402000963822,35,2023-11-30 11h19.24.562951 +0000,
,,,,,,,,,,,28,0,28,0,,,,,,,,,,,,,459.4876395999454,,,,,,,,,,,,459.48418779997155,459.97975029982626,,,[],[],,,,,,,,,,,,None,None,,,,,,,,,,Kette,schwer,"['Kette', 'schwer']",test_sub,2,,,,,,459.48411510000005,459.4841536998283,"['Stift', 'Kiste', 'Löffel', 'Kamera', 'Jacke', 'Hammer', 'Brille', 'Fahrrad', 'Kerze', 'Eimer', 'Schlüssel', 'Hut', 'Geige', 'Socke', 'Flasche', 'Bürste', 'Telefon', 'Vase', 'Tasse', 'Trommel', 'Tasche', 'Lampe', 'Schere', 'Blume', 'Ring', 'Rucksack', 'Uhr', 'Buch', 'Kette', 'Würfel']",459.97976129991,459.98252589977346,None,459.98265119991265,459.98407549993135,None,459.9841852998361,459.98566639982164,None,459.98577659996226,459.9869412998669,459.9869543998502,0,465.9909892999567,,,,,,,,,,,,,,,,,,,,,,,,,,,,,,,,,,,,,,,,,,,,,,,,2,2023-11-30_11h19.16.477,watkins1,2023.2.3,99.71402000963822,35,2023-11-30 11h19.24.562951 +0000,
,,,,,,,,,,,29,0,29,0,,,,,,,,,,,,,466.0007946998812,,,,,,,,,,,,465.9912697998807,466.48266719980165,,,[],[],,,,,,,,,,,,None,None,,,,,,,,,,Würfel,gut,"['Würfel', 'gut']",restudy,2,,,,,,465.99120419984683,465.99124109977856,"['Stift', 'Kiste', 'Löffel', 'Kamera', 'Jacke', 'Hammer', 'Brille', 'Fahrrad', 'Kerze', 'Eimer', 'Schlüssel', 'Hut', 'Geige', 'Socke', 'Flasche', 'Bürste', 'Telefon', 'Vase', 'Tasse', 'Trommel', 'Tasche', 'Lampe', 'Schere', 'Blume', 'Ring', 'Rucksack', 'Uhr', 'Buch', 'Kette', 'Würfel']",466.4826781998854,466.4855275999289,None,466.4856543999631,472.49342869990505,3,472.49372419994324,472.4962766999379,None,472.49639259977266,472.49759189994074,472.49760369979776,,472.4987368998118,1.3035226000938565,None,,,,,,,,,,,,,,,,,,,,,,,,,,,,,,,,,,,,,,,,,,,,,,2,2023-11-30_11h19.16.477,watkins1,2023.2.3,99.71402000963822,35,2023-11-30 11h19.24.562951 +0000,
,,,,,,,,,,,,,,,,,,,,,,,,,,,,,,,,,,,,,,,,,,,,,,,,,,,,,,,,,,,,,,,,,,,,,,,2,,,,,,,,,,,,,,,,,,,,,,,,,,,,,,,,,,,,,,,,,,,,,,,,,,,,,,,,,,,,,,,,,,,,,,2,2023-11-30_11h19.16.477,watkins1,2023.2.3,99.71402000963822,35,2023-11-30 11h19.24.562951 +0000,
(40 : 5) + 8 = 15 ,Incorrect,button_incorrect,,,,,,,,,,,,,0,0,0,7,,,,,,,,,492.69608519994654,,,,,,,,,,491.6644960998092,492.66811139998026,,,,,['button_correct'],[6.9219869000371546],,,,,,,,,,,,,,,,,,,,,,,,,,distractorTask,2,,,,,,,,,,,,,,,,,,,,,,,,,492.6846401998773,492.69608519994654,499.6118534998968,[0.3907407407407407],[-0.4074074074074074],[1],[0],[0],[6.9219869000371546],['button_correct'],499.61253929999657,500.6160234999843,,,,,,,,,,,,,,,,,,,,,,,,,,,,,,,,,,2,2023-11-30_11h19.16.477,watkins1,2023.2.3,99.71402000963822,35,2023-11-30 11h19.24.562951 +0000,
(2 x 5) + 3 = 13 ,Correct,button_correct,,,,,,,,,,,,,0,1,1,2,,,,,,,,,500.6259533998091,,,,,,,,,,,,,,,,['button_correct'],[2.9598453000653535],,,,,,,,,,,,,,,,,,,,,,,,,,distractorTask,2,,,,,,,,,,,,,,,,,,,,,,,,,500.6162193999626,500.6259533998091,503.5791557999328,[0.31203703703703706],[-0.38425925925925924],[1],[0],[0],[2.9598453000653535],['button_correct'],503.5795540998224,504.5827905999031,,,,,,,,,,,,,,,,,,,,,,,,,,,,,,,,,,2,2023-11-30_11h19.16.477,watkins1,2023.2.3,99.71402000963822,35,2023-11-30 11h19.24.562951 +0000,
(4 : 2) + 4 = 6 ,Correct,button_correct,,,,,,,,,,,,,0,2,2,1,,,,,,,,,504.59284739987925,,,,,,,,,,,,,,,,['button_correct'],[3.08151389984414],,,,,,,,,,,,,,,,,,,,,,,,,,distractorTask,2,,,,,,,,,,,,,,,,,,,,,,,,,504.5829845999833,504.59284739987925,507.6667329999618,[0.31203703703703706],[-0.37962962962962965],[1],[0],[0],[3.08151389984414],['button_correct'],507.6671538997907,508.66978329978883,,,,,,,,,,,,,,,,,,,,,,,,,,,,,,,,,,2,2023-11-30_11h19.16.477,watkins1,2023.2.3,99.71402000963822,35,2023-11-30 11h19.24.562951 +0000,
(25 : 5) + 5 = 9 ,Incorrect,button_incorrect,,,,,,,,,,,,,0,3,3,6,,,,,,,,,508.6797795998864,,,,,,,,,,,,,,,,['button_incorrect'],"[2.317290799925104, 2.5985190998762846]",,,,,,,,,,,,,,,,,,,,,,,,,,distractorTask,2,,,,,,,,,,,,,,,,,,,,,,,,,508.66997299995273,508.6797795998864,511.27111189998686,"[-0.2657407407407407, -0.32592592592592595]","[-0.4046296296296296, -0.4046296296296296]","[1, 1]","[0, 0]","[0, 0]","[2.317290799925104, 2.5985190998762846]",['button_incorrect'],511.2715197999496,512.2745669998694,,,,,,,,,,,,,,,,,,,,,,,,,,,,,,,,,,2,2023-11-30_11h19.16.477,watkins1,2023.2.3,99.71402000963822,35,2023-11-30 11h19.24.562951 +0000,
(7 x 6) + 9 = 48 ,Incorrect,button_incorrect,,,,,,,,,,,,,0,4,4,9,,,,,,,,,512.2845566999167,,,,,,,,,,,,,,,,['button_incorrect'],[2.5387464000377804],,,,,,,,,,,,,,,,,,,,,,,,,,distractorTask,2,,,,,,,,,,,,,,,,,,,,,,,,,512.2747573999222,512.2845566999167,514.8157707999926,[-0.28055555555555556],[-0.39814814814814814],[1],[0],[0],[2.5387464000377804],['button_incorrect'],514.8161500999704,515.819461699808,,,,,,,,,,,,,,,,,,,,,,,,,,,,,,,,,,2,2023-11-30_11h19.16.477,watkins1,2023.2.3,99.71402000963822,35,2023-11-30 11h19.24.562951 +0000,
(9 x 5) - 9 = 36 ,Correct,button_correct,,,,,,,,,,,,,0,5,5,4,,,,,,,,,515.8295488997828,,,,,,,,,,,,,,,,['button_correct'],[2.7191814000252634],,,,,,,,,,,,,,,,,,,,,,,,,,distractorTask,2,,,,,,,,,,,,,,,,,,,,,,,,,515.819651799975,515.8295488997828,518.5412270999514,[0.3962962962962963],[-0.40185185185185185],[1],[0],[0],[2.7191814000252634],['button_correct'],518.5416111999657,519.5446846999694,,,,,,,,,,,,,,,,,,,,,,,,,,,,,,,,,,2,2023-11-30_11h19.16.477,watkins1,2023.2.3,99.71402000963822,35,2023-11-30 11h19.24.562951 +0000,
(80 : 10) + 9 = 17 ,Correct,button_correct,,,,,,,,,,,,,0,6,6,3,,,,,,,,,519.5545869998168,,,,,,,,,,,,,,,,['button_correct'],[3.6339630000293255],,,,,,,,,,,,,,,,,,,,,,,,,,distractorTask,2,,,,,,,,,,,,,,,,,,,,,,,,,519.5448805999476,519.5545869998168,523.1807065999601,[0.31851851851851853],[-0.41759259259259257],[1],[0],[0],[3.6339630000293255],['button_correct'],523.181087799836,524.1841819998808,,,,,,,,,,,,,,,,,,,,,,,,,,,,,,,,,,2,2023-11-30_11h19.16.477,watkins1,2023.2.3,99.71402000963822,35,2023-11-30 11h19.24.562951 +0000,
(28 : 7) - 3 = 1 ,Correct,button_correct,,,,,,,,,,,,,0,7,7,0,,,,,,,,,524.1942243999802,,,,,,,,,,,,,,,,['button_incorrect'],[4.979323299834505],,,,,,,,,,,,,,,,,,,,,,,,,,distractorTask,2,,,,,,,,,,,,,,,,,,,,,,,,,524.1843696997967,524.1942243999802,529.1654189999681,[-0.3648148148148148],[-0.38981481481481484],[1],[0],[0],[4.979323299834505],['button_incorrect'],529.1658030999824,530.1690716999583,,,,,,,,,,,,,,,,,,,,,,,,,,,,,,,,,,2,2023-11-30_11h19.16.477,watkins1,2023.2.3,99.71402000963822,35,2023-11-30 11h19.24.562951 +0000,
(54 : 6) - 10 = 0 ,Incorrect,button_incorrect,,,,,,,,,,,,,0,8,8,5,,,,,,,,,530.1790602998808,,,,,,,,,,,,,,,,['button_incorrect'],[4.848958600079641],,,,,,,,,,,,,,,,,,,,,,,,,,distractorTask,2,,,,,,,,,,,,,,,,,,,,,,,,,530.1692602999974,530.1790602998808,535.0199407998007,[-0.3416666666666667],[-0.4064814814814815],[1],[0],[0],[4.848958600079641],['button_incorrect'],535.0203511998989,536.0235891998746,,,,,,,,,,,,,,,,,,,,,,,,,,,,,,,,,,2,2023-11-30_11h19.16.477,watkins1,2023.2.3,99.71402000963822,35,2023-11-30 11h19.24.562951 +0000,
(6 x 3) + 10 = 27 ,Incorrect,button_incorrect,,,,,,,,,,,,,0,9,9,8,,,,,,,,,536.033508699853,,,,,,,,,,,,,,,,['button_incorrect'],[3.0814209000673145],,,,,,,,,,,,,,,,,,,,,,,,,,distractorTask,2,,,,,,,,,,,,,,,,,,,,,,,,,536.023790499894,536.033508699853,539.1069008999038,[-0.3111111111111111],[-0.4074074074074074],[1],[0],[0],[3.0814209000673145],['button_incorrect'],539.1072828997858,540.1104667999316,,,,,,,,,,,,,,,,,,,,,,,,,,,,,,,,,,2,2023-11-30_11h19.16.477,watkins1,2023.2.3,99.71402000963822,35,2023-11-30 11h19.24.562951 +0000,
,,,,,,,,,,,,,,,,,,,,,,,,,,,,,,,,,,,,,,,,,,,,,,,,,,,,,,,,,,,,,,,,,,,,,,,2,,,,,,,,,,,,,,,,,,,,,,,,,,,,,,,,,,,,,,,,,,,,,,,,,,,,,,,,,,,,,,,,,,,,,,2,2023-11-30_11h19.16.477,watkins1,2023.2.3,99.71402000963822,35,2023-11-30 11h19.24.562951 +0000,
,,,,,,,,,,,,,,,,,,,0,0,0,0,,,,,554.7890669999178,,,,,,,,,,,,,,,,rustikal,19.948576600058004,,,,,,,,,,,,17.162522500148043,None,,,,,,,,,,,,,freeRecallSub,2,,,,,,,,,,,,,,,,,,,,,,,,,,,,,,,,,,,,,554.7802301999182,554.7890669999178,554.7890669999178,574.7441799999215,return,19.948576600058004,None,rustikal,"[-0.5018518518518519, 0.06481481481481481, 0.03333333333333333]","[0.2898148148148148, 0.06666666666666667, 0.05555555555555555]","[1, 1, 1]","[0, 0, 0]","[0, 0, 0]","[1.1543161999434233, 2.350334200076759, 2.670721699949354]",[],,,,,,,,,,,,,,,,,,,2,2023-11-30_11h19.16.477,watkins1,2023.2.3,99.71402000963822,35,2023-11-30 11h19.24.562951 +0000,
,,,,,,,,,,,,,,,,,,,1,0,1,0,,,,,574.7567098999862,,,,,,,,,,,,,,,,müde,2.300738099962473,,,,,,,,,,,,0.6053549000062048,None,,,,,,,,,,,,,freeRecallSub,2,,,,,,,,,,,,,,,,,,,,,,,,,,,,,,,,,,,,,574.7459863999393,574.7567098999862,574.7567098999862,577.0586061999202,return,2.300738099962473,None,müde,[],[],[],[],[],[],[],,,,,,,,,,,,,,,,,,,2,2023-11-30_11h19.16.477,watkins1,2023.2.3,99.71402000963822,35,2023-11-30 11h19.24.562951 +0000,
,,,,,,,,,,,,,,,,,,,2,0,2,0,,,,,577.0695813999046,,,,,,,,,,,,,,,,blass,2.915933599928394,,,,,,,,,,,,1.1952490999829024,None,,,,,,,,,,,,,freeRecallSub,2,,,,,,,,,,,,,,,,,,,,,,,,,,,,,,,,,,,,,577.0598894997966,577.0695813999046,577.0695813999046,579.992311099777,return,2.915933599928394,None,blass,[],[],[],[],[],[],[],,,,,,,,,,,,,,,,,,,2,2023-11-30_11h19.16.477,watkins1,2023.2.3,99.71402000963822,35,2023-11-30 11h19.24.562951 +0000,
,,,,,,,,,,,,,,,,,,,3,0,3,0,,,,,580.002980499994,,,,,,,,,,,,,,,,nass,1.278556999983266,,,,,,,,,,,,0.32088480005040765,None,,,,,,,,,,,,,freeRecallSub,2,,,,,,,,,,,,,,,,,,,,,,,,,,,,,,,,,,,,,579.9935816999059,580.002980499994,580.002980499994,581.2885606999043,return,1.278556999983266,None,nass,[],[],[],[],[],[],[],,,,,,,,,,,,,,,,,,,2,2023-11-30_11h19.16.477,watkins1,2023.2.3,99.71402000963822,35,2023-11-30 11h19.24.562951 +0000,
,,,,,,,,,,,,,,,,,,,4,0,4,0,,,,,581.299664999824,,,,,,,,,,,,,,,,vergnügt,4.013760099885985,,,,,,,,,,,,1.0244971001520753,None,,,,,,,,,,,,,freeRecallSub,2,,,,,,,,,,,,,,,,,,,,,,,,,,,,,,,,,,,,,581.289816999808,581.299664999824,581.299664999824,585.3170671998523,return,4.013760099885985,None,vergnügt,[],[],[],[],[],[],[],,,,,,,,,,,,,,,,,,,2,2023-11-30_11h19.16.477,watkins1,2023.2.3,99.71402000963822,35,2023-11-30 11h19.24.562951 +0000,
,,,,,,,,,,,,,,,,,,,5,0,5,0,,,,,585.3284666999243,,,,,,,,,,,,,,,,gut,3.833016899880022,,,,,,,,,,,,3.2647067999932915,None,,,,,,,,,,,,,freeRecallSub,2,,,,,,,,,,,,,,,,,,,,,,,,,,,,,,,,,,,,,585.3183275999036,585.3284666999243,585.3284666999243,589.1655059999321,return,3.833016899880022,None,gut,[],[],[],[],[],[],[],,,,,,,,,,,,,,,,,,,2,2023-11-30_11h19.16.477,watkins1,2023.2.3,99.71402000963822,35,2023-11-30 11h19.24.562951 +0000,
,,,,,,,,,,,,,,,,,,,6,0,6,0,,,,,589.176300099818,,,,,,,,,,,,,,,,kurz,7.921184299979359,,,,,,,,,,,,6.446671399986371,None,,,,,,,,,,,,,freeRecallSub,2,,,,,,,,,,,,,,,,,,,,,,,,,,,,,,,,,,,,,589.1667670998722,589.176300099818,589.176300099818,597.0997819998302,return,7.921184299979359,None,kurz,[],[],[],[],[],[],[],,,,,,,,,,,,,,,,,,,2,2023-11-30_11h19.16.477,watkins1,2023.2.3,99.71402000963822,35,2023-11-30 11h19.24.562951 +0000,
,,,,,,,,,,,,,,,,,,,7,0,7,0,,,,,597.1113982999232,,,,,,,,,,,,,,,,lang,1.1620182998012751,,,,,,,,,,,,0.3529937998391688,None,,,,,,,,,,,,,freeRecallSub,2,,,,,,,,,,,,,,,,,,,,,,,,,,,,,,,,,,,,,597.1010855999775,597.1113982999232,597.1113982999232,598.2779287998565,return,1.1620182998012751,None,lang,[],[],[],[],[],[],[],,,,,,,,,,,,,,,,,,,2,2023-11-30_11h19.16.477,watkins1,2023.2.3,99.71402000963822,35,2023-11-30 11h19.24.562951 +0000,
,,,,,,,,,,,,,,,,,,,8,0,8,0,,,,,598.2894290999975,,,,,,,,,,,,,,,,schwarz,13.991981799947098,,,,,,,,,,,,11.89047580002807,None,,,,,,,,,,,,,freeRecallSub,2,,,,,,,,,,,,,,,,,,,,,,,,,,,,,,,,,,,,,598.2791897999123,598.2894290999975,598.2894290999975,612.2884057997726,return,13.991981799947098,None,schwarz,[],[],[],[],[],[],[],,,,,,,,,,,,,,,,,,,2,2023-11-30_11h19.16.477,watkins1,2023.2.3,99.71402000963822,35,2023-11-30 11h19.24.562951 +0000,
,,,,,,,,,,,,,,,,,,,9,0,9,0,,,,,612.3006738999393,,,,,,,,,,,,,,,,sauber,5.828684699954465,,,,,,,,,,,,4.7523586000315845,None,,,,,,,,,,,,,freeRecallSub,2,,,,,,,,,,,,,,,,,,,,,,,,,,,,,,,,,,,,,612.2896932999138,612.3006738999393,612.3006738999393,618.136373099871,return,5.828684699954465,None,sauber,[],[],[],[],[],[],[],,,,,,,,,,,,,,,,,,,2,2023-11-30_11h19.16.477,watkins1,2023.2.3,99.71402000963822,35,2023-11-30 11h19.24.562951 +0000,
,,,,,,,,,,,,,,,,,,,10,0,10,0,,,,,618.1481743999757,,,,,,,,,,,,,,,,hohl,15.605314400047064,,,,,,,,,,,,14.914721800014377,None,,,,,,,,,,,,,freeRecallSub,2,,,,,,,,,,,,,,,,,,,,,,,,,,,,,,,,,,,,,618.137640699977,618.1481743999757,618.1481743999757,633.7554292997811,return,15.605314400047064,None,hohl,[],[],[],[],[],[],[],,,,,,,,,,,,,,,,,,,2,2023-11-30_11h19.16.477,watkins1,2023.2.3,99.71402000963822,35,2023-11-30 11h19.24.562951 +0000,
,,,,,,,,,,,,,,,,,,,11,0,11,0,,,,,633.7682262999006,,,,,,,,,,,,,,,,glatt,8.809447600040585,,,,,,,,,,,,5.637378700077534,None,,,,,,,,,,,,,freeRecallSub,2,,,,,,,,,,,,,,,,,,,,,,,,,,,,,,,,,,,,,633.7566781998612,633.7682262999006,633.7682262999006,642.5875961999409,return,8.809447600040585,None,glatt,[],[],[],[],[],[],[],,,,,,,,,,,,,,,,,,,2,2023-11-30_11h19.16.477,watkins1,2023.2.3,99.71402000963822,35,2023-11-30 11h19.24.562951 +0000,
,,,,,,,,,,,,,,,,,,,12,0,12,0,,,,,642.5997006997932,,,,,,,,,,,,,,,,flauschig,2.6496580000966787,,,,,,,,,,,,0.3738754999358207,None,,,,,,,,,,,,,freeRecallSub,2,,,,,,,,,,,,,,,,,,,,,,,,,,,,,,,,,,,,,642.5888585997745,642.5997006997932,642.5997006997932,645.2523068999872,return,2.6496580000966787,None,flauschig,[],[],[],[],[],[],[],,,,,,,,,,,,,,,,,,,2,2023-11-30_11h19.16.477,watkins1,2023.2.3,99.71402000963822,35,2023-11-30 11h19.24.562951 +0000,
,,,,,,,,,,,,,,,,,,,13,0,13,0,,,,,645.2652632999234,,,,,,,,,,,,,,,,schlicht,13.072104299906641,,,,,,,,,,,,11.492613499984145,None,,,,,,,,,,,,,freeRecallSub,2,,,,,,,,,,,,,,,,,,,,,,,,,,,,,,,,,,,,,645.2535747999791,645.2652632999234,645.2652632999234,658.3428600998595,return,13.072104299906641,None,schlicht,[],[],[],[],[],[],[],,,,,,,,,,,,,,,,,,,2,2023-11-30_11h19.16.477,watkins1,2023.2.3,99.71402000963822,35,2023-11-30 11h19.24.562951 +0000,
,,,,,,,,,,,,,,,,,,,14,0,14,0,,,,,658.3557244997937,,,,,,,,,,,,,,,,niedlich,6.213688199874014,,,,,,,,,,,,3.5888781999237835,None,,,,,,,,,,,,,freeRecallSub,2,,,,,,,,,,,,,,,,,,,,,,,,,,,,,,,,,,,,,658.3441106998362,658.3557244997937,658.3557244997937,664.57390139997,return,6.213688199874014,None,niedlich,[],[],[],[],[],[],[],,,,,,,,,,,,,,,,,,,2,2023-11-30_11h19.16.477,watkins1,2023.2.3,99.71402000963822,35,2023-11-30 11h19.24.562951 +0000,
,,,,,,,,,,,,,,,,,,,15,0,15,0,,,,,664.5869418999646,,,,,,,,,,,,,,,,winzig,11.270463000051677,,,,,,,,,,,,6.38076480012387,None,,,,,,,,,,,,,freeRecallSub,2,,,,,,,,,,,,,,,,,,,,,,,,,,,,,,,,,,,,,664.5751628999133,664.5869418999646,664.5869418999646,675.8664807998575,return,11.270463000051677,None,winzig,[],[],[],[],[],[],[],,,,,,,,,,,,,,,,,,,2,2023-11-30_11h19.16.477,watkins1,2023.2.3,99.71402000963822,35,2023-11-30 11h19.24.562951 +0000,
,,,,,,,,,,,,,,,,,,,16,0,16,0,,,,,675.8796888999641,,,,,,,,,,,,,,,,praktisch,14.089597699930891,,,,,,,,,,,,9.17303439998068,None,,,,,,,,,,,,,freeRecallSub,2,,,,,,,,,,,,,,,,,,,,,,,,,,,,,,,,,,,,,675.8677586999256,675.8796888999641,675.8796888999641,689.9718927999493,return,14.089597699930891,None,praktisch,[],[],[],[],[],[],[],,,,,,,,,,,,,,,,,,,2,2023-11-30_11h19.16.477,watkins1,2023.2.3,99.71402000963822,35,2023-11-30 11h19.24.562951 +0000,
,,,,,,,,,,,,,,,,,,,17,0,17,0,,,,,689.986210799776,,,,,,,,,,,,,,,,matt,9.087109999964014,,,,,,,,,,,,7.921192400157452,None,,,,,,,,,,,,,freeRecallSub,2,,,,,,,,,,,,,,,,,,,,,,,,,,,,,,,,,,,,,689.9731369998772,689.986210799776,689.986210799776,699.0793192998972,return,9.087109999964014,None,matt,[],[],[],[],[],[],[],,,,,,,,,,,,,,,,,,,2,2023-11-30_11h19.16.477,watkins1,2023.2.3,99.71402000963822,35,2023-11-30 11h19.24.562951 +0000,
,,,,,,,,,,,,,,,,,,,18,0,18,0,,,,,699.0932605999988,,,,,,,,,,,,,,,,,[],,,,,,,,,,,,None,None,,,,,,,,,,,,,freeRecallSub,2,,,,,,,,,,,,,,,,,,,,,,,,,,,,,,,,,,,,,699.0805924998131,699.0932605999988,699.0932605999988,803.2910567999352,None,,,,[0.5444444444444444],[-0.39537037037037037],[1],[0],[0],[104.2040585000068],"['button_continue', 'continue_text']",,,,,,,,,,,,,,,,,,,2,2023-11-30_11h19.16.477,watkins1,2023.2.3,99.71402000963822,35,2023-11-30 11h19.24.562951 +0000,
,,,,,,,,,,,,,,,,,,,,,,,,,,,,,,,,,,,,,,,,,,,,,,,,,,,,,,,,,,,,,,,,,,,,,,,2,,,,,,,,,,,,,,,,,,,,,,,,,,,,,,,,,,,,,,,,,,,,,,,,,,,,,,,,,,,,,,,,,,,,,,2,2023-11-30_11h19.16.477,watkins1,2023.2.3,99.71402000963822,35,2023-11-30 11h19.24.562951 +0000,
,,,,,,,,,,,,,,,,,,,,,,,0,0,0,0,819.4195642999839,,,,,,,,,,,,827.8680712999776,828.3665300998837,,,,8.437725400086492,,,,,,,,,,,,None,None,,,,,,,,,,Rucksack,,,cuedRecallAdj,2,,,,,,,,,,,,,,,,,,,,,0,,,,,,,,,,,,,,,,,,,,,,,,,,,,,,,819.410264399834,819.4195642999839,819.4195642999839,827.8646730999462,winzig,return,8.437725400086492,None,827.8650680999272,827.8744944999926,827.8744944999926,827.8679203998763,,None,,,,,2,2023-11-30_11h19.16.477,watkins1,2023.2.3,99.71402000963822,35,2023-11-30 11h19.24.562951 +0000,
,,,,,,,,,,,,,,,,,,,,,,,1,0,1,0,828.3765821999405,,,,,,,,,,,,830.5486677999143,831.0476468999404,,,,2.160631899954751,,,,,,,,,,,,None,None,,,,,,,,,,Stift,,,cuedRecallAdj,2,,,,,,,,,,,,,,,,,,,,,0,,,,,,,,,,,,,,,,,,,,,,,,,,,,,,,828.3667800999247,828.3765821999405,828.3765821999405,830.545791399898,lang,return,2.160631899954751,None,830.5460616999771,830.5555648999289,830.5555648999289,830.5485651998315,,None,,,,,2,2023-11-30_11h19.16.477,watkins1,2023.2.3,99.71402000963822,35,2023-11-30 11h19.24.562951 +0000,
,,,,,,,,,,,,,,,,,,,,,,,2,0,2,0,831.0576472999528,,,,,,,,,,,,833.7820167997852,834.2808490998577,,,,2.711486899992451,,,,,,,,,,,,None,None,,,,,,,,,,Brille,,,cuedRecallAdj,2,,,,,,,,,,,,,,,,,,,,,0,,,,,,,,,,,,,,,,,,,,,,,,,,,,,,,831.0478953998536,831.0576472999528,831.0576472999528,833.778980499832,teuer,return,2.711486899992451,None,833.7792445998639,833.7886653998867,833.7886653998867,833.7819169999566,,None,,,,,2,2023-11-30_11h19.16.477,watkins1,2023.2.3,99.71402000963822,35,2023-11-30 11h19.24.562951 +0000,
,,,,,,,,,,,,,,,,,,,,,,,3,0,3,0,834.2907743998803,,,,,,,,,,,,837.1571944998577,837.6553994999267,,,,2.8624787000007927,,,,,,,,,,,,None,None,,,,,,,,,,Eimer,,,cuedRecallAdj,2,,,,,,,,,,,,,,,,,,,,,0,,,,,,,,,,,,,,,,,,,,,,,,,,,,,,,834.2810956998728,834.2907743998803,834.2907743998803,837.1540456998628,kalt,return,2.8624787000007927,None,837.1544191997964,837.1633000997826,837.1633000997826,837.1570935999043,,None,,,,,2,2023-11-30_11h19.16.477,watkins1,2023.2.3,99.71402000963822,35,2023-11-30 11h19.24.562951 +0000,
,,,,,,,,,,,,,,,,,,,,,,,4,0,4,0,837.6653515999205,,,,,,,,,,,,843.5227382997982,844.0214987997897,,,,5.847906999988481,,,,,,,,,,,,None,None,,,,,,,,,,Hammer,,,cuedRecallAdj,2,,,,,,,,,,,,,,,,,,,,,0,,,,,,,,,,,,,,,,,,,,,,,,,,,,,,,837.6556478999555,837.6653515999205,837.6653515999205,843.5197218998801,klobig,return,5.847906999988481,None,843.5199885999318,843.5293174998369,843.5293174998369,843.5226358999498,,None,,,,,2,2023-11-30_11h19.16.477,watkins1,2023.2.3,99.71402000963822,35,2023-11-30 11h19.24.562951 +0000,
,,,,,,,,,,,,,,,,,,,,,,,5,0,5,0,844.031450699782,,,,,,,,,,,,849.4973847998772,849.9959817999043,,,,5.457790500018746,,,,,,,,,,,,None,None,,,,,,,,,,Kiste,,,cuedRecallAdj,2,,,,,,,,,,,,,,,,,,,,,0,,,,,,,,,,,,,,,,,,,,,,,,,,,,,,,844.0217433997896,844.031450699782,844.031450699782,849.4943100998644,glänzend,return,5.457790500018746,None,849.4945794998202,849.5038295998238,849.5038295998238,849.497282799799,,None,,,,,2,2023-11-30_11h19.16.477,watkins1,2023.2.3,99.71402000963822,35,2023-11-30 11h19.24.562951 +0000,
,,,,,,,,,,,,,,,,,,,,,,,6,0,6,0,850.0060291998088,,,,,,,,,,,,852.9916016999632,853.4903916998301,,,,2.979243200039491,,,,,,,,,,,,None,None,,,,,,,,,,Geige,,,cuedRecallAdj,2,,,,,,,,,,,,,,,,,,,,,0,,,,,,,,,,,,,,,,,,,,,,,,,,,,,,,849.9962294998113,850.0060291998088,850.0060291998088,852.9886898999102,nass,return,2.979243200039491,None,852.9889577999711,852.9981801998802,852.9981801998802,852.9914989999961,,None,,,,,2,2023-11-30_11h19.16.477,watkins1,2023.2.3,99.71402000963822,35,2023-11-30 11h19.24.562951 +0000,
,,,,,,,,,,,,,,,,,,,,,,,7,0,7,0,853.5004406999797,,,,,,,,,,,,855.4115279999096,855.9105654999148,,,,1.9009038000367582,,,,,,,,,,,,None,None,,,,,,,,,,Würfel,,,cuedRecallAdj,2,,,,,,,,,,,,,,,,,,,,,0,,,,,,,,,,,,,,,,,,,,,,,,,,,,,,,853.4906361999456,853.5004406999797,853.5004406999797,855.4086739998311,gut,return,1.9009038000367582,None,855.4089399999939,855.4184117999393,855.4184117999393,855.4114255998284,,None,,,,,2,2023-11-30_11h19.16.477,watkins1,2023.2.3,99.71402000963822,35,2023-11-30 11h19.24.562951 +0000,
,,,,,,,,,,,,,,,,,,,,,,,8,0,8,0,855.920506299939,,,,,,,,,,,,859.2981310999021,859.7966098999605,,,,3.3687138000968844,,,,,,,,,,,,None,None,,,,,,,,,,Vase,,,cuedRecallAdj,2,,,,,,,,,,,,,,,,,,,,,0,,,,,,,,,,,,,,,,,,,,,,,,,,,,,,,855.9108114999253,855.920506299939,855.920506299939,859.2950393999927,lustig,return,3.3687138000968844,None,859.2953055999242,859.3045966997743,859.3045966997743,859.2980289999396,,None,,,,,2,2023-11-30_11h19.16.477,watkins1,2023.2.3,99.71402000963822,35,2023-11-30 11h19.24.562951 +0000,
,,,,,,,,,,,,,,,,,,,,,,,9,0,9,0,859.8065426999237,,,,,,,,,,,,862.5123770998325,863.010982999811,,,,2.69859980000183,,,,,,,,,,,,None,None,,,,,,,,,,Socke,,,cuedRecallAdj,2,,,,,,,,,,,,,,,,,,,,,0,,,,,,,,,,,,,,,,,,,,,,,,,,,,,,,859.7968582999893,859.8065426999237,859.8065426999237,862.5092950998805,flauschig,return,2.69859980000183,None,862.5095633999445,862.5188501998782,862.5188501998782,862.5122745998669,,None,,,,,2,2023-11-30_11h19.16.477,watkins1,2023.2.3,99.71402000963822,35,2023-11-30 11h19.24.562951 +0000,
,,,,,,,,,,,,,,,,,,,,,,,10,0,10,0,863.0209317998961,,,,,,,,,,,,865.6049920998048,866.1036847999785,,,,2.572294100187719,,,,,,,,,,,,None,None,,,,,,,,,,Jacke,,,cuedRecallAdj,2,,,,,,,,,,,,,,,,,,,,,0,,,,,,,,,,,,,,,,,,,,,,,,,,,,,,,863.0112259997986,863.0209317998961,863.0209317998961,865.6018501999788,glatt,return,2.572294100187719,None,865.6021193999331,865.6116695997771,865.6116695997771,865.6048865998164,,None,,,,,2,2023-11-30_11h19.16.477,watkins1,2023.2.3,99.71402000963822,35,2023-11-30 11h19.24.562951 +0000,
,,,,,,,,,,,,,,,,,,,,,,,11,0,11,0,866.113600899931,,,,,,,,,,,,871.5410797998775,872.0395007999614,,,,5.423636700026691,,,,,,,,,,,,None,None,,,,,,,,,,Löffel,,,cuedRecallAdj,2,,,,,,,,,,,,,,,,,,,,,0,,,,,,,,,,,,,,,,,,,,,,,,,,,,,,,866.1039296998642,866.113600899931,866.113600899931,871.537939199945,biegsam,return,5.423636700026691,None,871.5382073998917,871.5473947999999,871.5473947999999,871.5409777997993,,None,,,,,2,2023-11-30_11h19.16.477,watkins1,2023.2.3,99.71402000963822,35,2023-11-30 11h19.24.562951 +0000,
,,,,,,,,,,,,,,,,,,,,,,,12,0,12,0,872.0495052998886,,,,,,,,,,,,874.1817281998228,874.6804088999052,,,,2.1277631998527795,,,,,,,,,,,,None,None,,,,,,,,,,Schere,,,cuedRecallAdj,2,,,,,,,,,,,,,,,,,,,,,0,,,,,,,,,,,,,,,,,,,,,,,,,,,,,,,872.0397438998334,872.0495052998886,872.0495052998886,874.178653099807,hohl,return,2.1277631998527795,None,874.1789200999774,874.1882394999266,874.1882394999266,874.1816245999653,,None,,,,,2,2023-11-30_11h19.16.477,watkins1,2023.2.3,99.71402000963822,35,2023-11-30 11h19.24.562951 +0000,
,,,,,,,,,,,,,,,,,,,,,,,13,0,13,0,874.6903247998562,,,,,,,,,,,,877.6063108998351,878.1051854998805,,,,2.902945299865678,,,,,,,,,,,,None,None,,,,,,,,,,Kette,,,cuedRecallAdj,2,,,,,,,,,,,,,,,,,,,,,0,,,,,,,,,,,,,,,,,,,,,,,,,,,,,,,874.680654599797,874.6903247998562,874.6903247998562,877.6034064998385,schwer,return,2.902945299865678,None,877.6036649998277,877.6130983999465,877.6130983999465,877.6062114997767,,None,,,,,2,2023-11-30_11h19.16.477,watkins1,2023.2.3,99.71402000963822,35,2023-11-30 11h19.24.562951 +0000,
,,,,,,,,,,,,,,,,,,,,,,,14,0,14,0,878.1151277997997,,,,,,,,,,,,881.0105137999635,881.5092099998146,,,,2.8859949000179768,,,,,,,,,,,,None,None,,,,,,,,,,Hut,,,cuedRecallAdj,2,,,,,,,,,,,,,,,,,,,,,0,,,,,,,,,,,,,,,,,,,,,,,,,,,,,,,878.1054280998651,878.1151277997997,878.1151277997997,881.0076286999974,schlicht,return,2.8859949000179768,None,881.0078976999503,881.0171742998064,881.0171742998064,881.0104113998823,,None,,,,,2,2023-11-30_11h19.16.477,watkins1,2023.2.3,99.71402000963822,35,2023-11-30 11h19.24.562951 +0000,
,,,,,,,,,,,,,,,,,,,,,,,15,0,15,0,881.5191531998571,,,,,,,,,,,,889.2551299999468,889.7533655997831,,,,7.7301351998467,,,,,,,,,,,,None,None,,,,,,,,,,Fahrrad,,,cuedRecallAdj,2,,,,,,,,,,,,,,,,,,,,,0,,,,,,,,,,,,,,,,,,,,,,,,,,,,,,,881.509459399851,881.5191531998571,881.5191531998571,889.2520219997969,schmutzig,return,7.7301351998467,None,889.2522904998623,889.2615503999405,889.2615503999405,889.2550283998717,,None,,,,,2,2023-11-30_11h19.16.477,watkins1,2023.2.3,99.71402000963822,35,2023-11-30 11h19.24.562951 +0000,
,,,,,,,,,,,,,,,,,,,,,,,16,0,16,0,889.7632840999868,,,,,,,,,,,,892.3775161998346,892.8765123998746,,,,2.605999300023541,,,,,,,,,,,,None,None,,,,,,,,,,Uhr,,,cuedRecallAdj,2,,,,,,,,,,,,,,,,,,,,,0,,,,,,,,,,,,,,,,,,,,,,,,,,,,,,,889.7536134999245,889.7632840999868,889.7632840999868,892.3748536999337,kurz,return,2.605999300023541,None,892.3751147999428,892.38450249983,892.38450249983,892.3774154998828,,None,,,,,2,2023-11-30_11h19.16.477,watkins1,2023.2.3,99.71402000963822,35,2023-11-30 11h19.24.562951 +0000,
,,,,,,,,,,,,,,,,,,,,,,,17,0,17,0,892.886562399799,,,,,,,,,,,,895.2503367997706,895.748584699817,,,,2.3546847999095917,,,,,,,,,,,,None,None,,,,,,,,,,Telefon,,,cuedRecallAdj,2,,,,,,,,,,,,,,,,,,,,,0,,,,,,,,,,,,,,,,,,,,,,,,,,,,,,,892.8767554999795,892.886562399799,892.886562399799,895.2470407998189,sauber,return,2.3546847999095917,None,895.2473051999696,895.256540699862,895.256540699862,895.2502340998035,,None,,,,,2,2023-11-30_11h19.16.477,watkins1,2023.2.3,99.71402000963822,35,2023-11-30 11h19.24.562951 +0000,
,,,,,,,,,,,,,,,,,,,,,,,18,0,18,0,895.758636899991,,,,,,,,,,,,902.3494137998205,902.8480234998278,,,,6.5865831999108195,,,,,,,,,,,,None,None,,,,,,,,,,Kamera,,,cuedRecallAdj,2,,,,,,,,,,,,,,,,,,,,,0,,,,,,,,,,,,,,,,,,,,,,,,,,,,,,,895.7488351999782,895.758636899991,895.758636899991,902.346383899916,schwer,return,6.5865831999108195,None,902.3466562998947,902.3559924999718,902.3559924999718,902.3493113999721,,None,,,,,2,2023-11-30_11h19.16.477,watkins1,2023.2.3,99.71402000963822,35,2023-11-30 11h19.24.562951 +0000,
,,,,,,,,,,,,,,,,,,,,,,,19,0,19,0,902.8579773998354,,,,,,,,,,,,906.6277446998283,907.1262390997726,,,,3.759152499958873,,,,,,,,,,,,None,None,,,,,,,,,,Kerze,,,cuedRecallAdj,2,,,,,,,,,,,,,,,,,,,,,0,,,,,,,,,,,,,,,,,,,,,,,,,,,,,,,902.8482650998048,902.8579773998354,902.8579773998354,906.6245255998801,kaputt,return,3.759152499958873,None,906.6247936999425,906.6342436999548,906.6342436999548,906.6276428999845,,None,,,,,2,2023-11-30_11h19.16.477,watkins1,2023.2.3,99.71402000963822,35,2023-11-30 11h19.24.562951 +0000,
,,,,,,,,,,,,,,,,,,,,,,,20,0,20,0,907.1362377998885,,,,,,,,,,,,912.0802207998931,912.5787919999566,,,,4.936964799882844,,,,,,,,,,,,None,None,,,,,,,,,,Blume,,,cuedRecallAdj,2,,,,,,,,,,,,,,,,,,,,,0,,,,,,,,,,,,,,,,,,,,,,,,,,,,,,,907.1264801998623,907.1362377998885,907.1362377998885,912.0770320999436,niedlich,return,4.936964799882844,None,912.0772982998751,912.0866551999934,912.0866551999934,912.0801181998104,,None,,,,,2,2023-11-30_11h19.16.477,watkins1,2023.2.3,99.71402000963822,35,2023-11-30 11h19.24.562951 +0000,
,,,,,,,,,,,,,,,,,,,,,,,21,0,21,0,912.58874619985,,,,,,,,,,,,926.7715155999176,927.2702449997887,,,,14.172529899980873,,,,,,,,,,,,None,None,,,,,,,,,,Tasse,,,cuedRecallAdj,2,,,,,,,,,,,,,,,,,,,,,0,,,,,,,,,,,,,,,,,,,,,,,,,,,,,,,912.5790369999595,912.58874619985,912.58874619985,926.7683503997978,durchsichtig,return,14.172529899980873,None,926.7686250999104,926.7780221998692,926.7780221998692,926.7714125998318,,None,,,,,2,2023-11-30_11h19.16.477,watkins1,2023.2.3,99.71402000963822,35,2023-11-30 11h19.24.562951 +0000,
,,,,,,,,,,,,,,,,,,,,,,,22,0,22,0,927.2801810998935,,,,,,,,,,,,962.6710403999314,963.1603472998831,,,,35.38486390002072,,,,,,,,,,,,None,None,,,,,,,,,,Bürste,,,cuedRecallAdj,2,,,,,,,,,,,,,,,,,,,,,0,,,,,,,,,,,,,,,,,,,,,,,,,,,,,,,927.2704881997779,927.2801810998935,927.2801810998935,962.6687617998105,,return,35.38486390002072,None,962.6690290998667,962.6783082999755,962.6783082999755,962.6709377998486,,None,,,,,2,2023-11-30_11h19.16.477,watkins1,2023.2.3,99.71402000963822,35,2023-11-30 11h19.24.562951 +0000,
,,,,,,,,,,,,,,,,,,,,,,,23,0,23,0,963.170410099905,,,,,,,,,,,,967.2306771997828,967.7292136999313,,,,4.054723100038245,,,,,,,,,,,,None,None,,,,,,,,,,Lampe,,,cuedRecallAdj,2,,,,,,,,,,,,,,,,,,,,,0,,,,,,,,,,,,,,,,,,,,,,,,,,,,,,,963.1605863999575,963.170410099905,963.170410099905,967.2276434998494,rustikal,return,4.054723100038245,None,967.2279122998007,967.2372342997696,967.2372342997696,967.2305744998157,,None,,,,,2,2023-11-30_11h19.16.477,watkins1,2023.2.3,99.71402000963822,35,2023-11-30 11h19.24.562951 +0000,
,,,,,,,,,,,,,,,,,,,,,,,24,0,24,0,967.7391249998473,,,,,,,,,,,,972.0006405999884,972.499052599771,,,,4.254028999945149,,,,,,,,,,,,None,None,,,,,,,,,,Flasche,,,cuedRecallAdj,2,,,,,,,,,,,,,,,,,,,,,0,,,,,,,,,,,,,,,,,,,,,,,,,,,,,,,967.7294621998444,967.7391249998473,967.7391249998473,971.9977147998288,matt,return,4.254028999945149,None,971.9979894999415,972.0072413999587,972.0072413999587,972.0005362997763,,None,,,,,2,2023-11-30_11h19.16.477,watkins1,2023.2.3,99.71402000963822,35,2023-11-30 11h19.24.562951 +0000,
,,,,,,,,,,,,,,,,,,,,,,,25,0,25,0,972.5089436999988,,,,,,,,,,,,980.8684501999523,981.3660126999021,,,,8.348098800051957,,,,,,,,,,,,None,None,,,,,,,,,,Ring,,,cuedRecallAdj,2,,,,,,,,,,,,,,,,,,,,,0,,,,,,,,,,,,,,,,,,,,,,,,,,,,,,,972.4993005997967,972.5089436999988,972.5089436999988,980.8643474997953,glänzend,return,8.348098800051957,None,980.864624499809,980.8739753998816,980.8739753998816,980.8683462999761,,None,,,,,2,2023-11-30_11h19.16.477,watkins1,2023.2.3,99.71402000963822,35,2023-11-30 11h19.24.562951 +0000,
,,,,,,,,,,,,,,,,,,,,,,,26,0,26,0,981.3760536999907,,,,,,,,,,,,985.9082011999562,986.4070841998328,,,,4.521054399898276,,,,,,,,,,,,None,None,,,,,,,,,,Tasche,,,cuedRecallAdj,2,,,,,,,,,,,,,,,,,,,,,0,,,,,,,,,,,,,,,,,,,,,,,,,,,,,,,981.3662604999263,981.3760536999907,981.3760536999907,985.9051596999634,schwarz,return,4.521054399898276,None,985.9054303998128,985.9148439997807,985.9148439997807,985.9080981998704,,None,,,,,2,2023-11-30_11h19.16.477,watkins1,2023.2.3,99.71402000963822,35,2023-11-30 11h19.24.562951 +0000,
,,,,,,,,,,,,,,,,,,,,,,,27,0,27,0,986.4169794998597,,,,,,,,,,,,990.6678937999532,991.1666460998822,,,,4.240129899932072,,,,,,,,,,,,None,None,,,,,,,,,,Schlüssel,,,cuedRecallAdj,2,,,,,,,,,,,,,,,,,,,,,0,,,,,,,,,,,,,,,,,,,,,,,,,,,,,,,986.4073303998448,986.4169794998597,986.4169794998597,990.6648248999845,schwer,return,4.240129899932072,None,990.6650961998384,990.6745545999147,990.6745545999147,990.6677927998826,,None,,,,,2,2023-11-30_11h19.16.477,watkins1,2023.2.3,99.71402000963822,35,2023-11-30 11h19.24.562951 +0000,
,,,,,,,,,,,,,,,,,,,,,,,28,0,28,0,991.1765886999201,,,,,,,,,,,,996.6940156999044,997.1925332997926,,,,5.512541499920189,,,,,,,,,,,,None,None,,,,,,,,,,Trommel,,,cuedRecallAdj,2,,,,,,,,,,,,,,,,,,,,,0,,,,,,,,,,,,,,,,,,,,,,,,,,,,,,,991.1668941997923,991.1765886999201,991.1765886999201,996.6909046999644,gepunktet,return,5.512541499920189,None,996.6911722999066,996.7003777998034,996.7003777998034,996.693911699811,,None,,,,,2,2023-11-30_11h19.16.477,watkins1,2023.2.3,99.71402000963822,35,2023-11-30 11h19.24.562951 +0000,
,,,,,,,,,,,,,,,,,,,,,,,29,0,29,0,997.2024748998228,,,,,,,,,,,,1003.7128190998919,1004.2116023998242,,,,6.50261460011825,,,,,,,,,,,,None,None,,,,,,,,,,Buch,,,cuedRecallAdj,2,,,,,,,,,,,,,,,,,,,,,0,,,,,,,,,,,,,,,,,,,,,,,,,,,,,,,997.1927779999096,997.2024748998228,997.2024748998228,1003.7098658999894,praktisch,return,6.50261460011825,None,1003.7101398999803,1003.7194067998789,1003.7194067998789,1003.7127176998183,,None,,,,,2,2023-11-30_11h19.16.477,watkins1,2023.2.3,99.71402000963822,35,2023-11-30 11h19.24.562951 +0000,
,,,,,,,,,,,,,,,,,,,,,,,,,,,,,,,,,,,,,,,,,,,,,,,,,,,,,,,,,,,,,,,,,,,,,,,2,,,,,,,,,,,,,,,,,,,,,,,,,,,,,,,,,,,,,,,,,,,,,,,,,,,,,,,,,,,,,,,,,,1004.2283358999994,q,3025.993575199973,None,2,2023-11-30_11h19.16.477,watkins1,2023.2.3,99.71402000963822,35,2023-11-30 11h19.24.562951 +0000,
