Equation,CorrectResponse,Correctbutton,trials_7.thisRepN,trials_7.thisTrialN,trials_7.thisN,trials_7.thisIndex,trials.thisRepN,trials.thisTrialN,trials.thisN,trials.thisIndex,trials_3.thisRepN,trials_3.thisTrialN,trials_3.thisN,trials_3.thisIndex,trials_2.thisRepN,trials_2.thisTrialN,trials_2.thisN,trials_2.thisIndex,trials_4.thisRepN,trials_4.thisTrialN,trials_4.thisN,trials_4.thisIndex,trials_5.thisRepN,trials_5.thisTrialN,trials_5.thisN,trials_5.thisIndex,thisRow.t,notes,code_marius.started,code_marius.stopped,welcome.started,welcome.stopped,instruction_study.started,instruction_study.stopped,fixationcross.started,fixationcross.stopped,blanc.started,blanc.stopped,study_control_probe.started,study_control_probe.stopped,responseKey,responseTime,scale_answer_2.keys,study_control_probe_2.started,study_control_probe_2.stopped,scale_answer_3.keys,scale_answer_3.rt,scale_answer_3.duration,blanc_2.started,blanc_2.stopped,test_attr_probe.started,test_attr_probe.stopped,recalled_attr,firstKeyTime,secondWordTime,blanc_3.started,blanc_3.stopped,test_sub_probe.started,test_sub_probe.stopped,recalled_sub,instruction_probe_end.started,instruction_probe_end.stopped,study.started,study.stopped,substantive,adjective,wordpair,task,condition,liste_sub_phase1,liste_adj_phase1,scale_answer.keys,scale_answer.rt,scale_answer.duration,code_defineWordsInit.started,code_defineWordsInit.stopped,liste_sub_phase2,study_control.started,study_control.stopped,scale_answer_4.keys,restudy_same.started,restudy_same.stopped,scale_answer_5.keys,restudy_different.started,restudy_different.stopped,scale_answer_6.keys,scale_answer_6.rt,scale_answer_6.duration,test_attr.started,test_attr.stopped,test_sub.started,test_sub.stopped,scale_answer_4.rt,scale_answer_4.duration,distractortask.started,equation_text.started,distractortask.stopped,mouse_answer.x,mouse_answer.y,mouse_answer.leftButton,mouse_answer.midButton,mouse_answer.rightButton,mouse_answer.time,mouse_answer.clicked_name,feedback_distractortask.started,feedback_distractortask.stopped,free_recall.started,text_enter.started,key_resp.started,free_recall.stopped,key_resp.keys,key_resp.rt,key_resp.duration,free_recalled_sub,mouse_continue.x,mouse_continue.y,mouse_continue.leftButton,mouse_continue.midButton,mouse_continue.rightButton,mouse_continue.time,mouse_continue.clicked_name,cued_recall.started,text_enter_2.started,correct,key_continue.started,cued_recall.stopped,recalled_attr1,key_continue.keys,key_continue.rt,key_continue.duration,cued_recall_2.started,text_enter_3.started,key_continue_2.started,cued_recall_2.stopped,recalled_attr2,key_continue_2.keys,key_continue_2.rt,key_continue_2.duration,key_resp_8.started,key_resp_8.keys,key_resp_8.rt,key_resp_8.duration,condition,date,expName,psychopyVersion,frameRate,participant,expStart,
,,,,,,,,,,,,,,,,,,,,,,,,,,,,,0.1284058999735862,0.1284729999024421,0.12848119996488094,6.420417099958286,,,,,,,,,,,,,,,,,,,,,,,,,,,,,,,,,,,,,1,,,,,,,,,,,,,,,,,,,,,,,,,,,,,,,,,,,,,,,,,,,,,,,,,,,,,,,,,,,,,,,,,,,,,,,,,,1,2023-11-27_12h20.26.771,watkins1,2023.2.3,99.75589734181096,19,2023-11-27 12h20.33.181279 +0000,
,,,,,,,,,,,,,,,,,,,,,,,,,,,,,,,,,6.420465699862689,45.75442219991237,,,,,,,,,,,,,,,,,,,,,,,,,,,,,,,,,,,1,,,,,,,,,,,,,,,,,,,,,,,,,,,,,,,,,,,,,,,,,,,,,,,,,,,,,,,,,,,,,,,,,,,,,,,,,,1,2023-11-27_12h20.26.771,watkins1,2023.2.3,99.75589734181096,19,2023-11-27 12h20.33.181279 +0000,
,,,0,0,0,0,,,,,,,,,,,,,,,,,,,,,46.768001599935815,,,,,,,,45.754437499912456,46.757945199962705,53.255437599960715,53.751618599984795,47.250127899926156,53.2552794998046,3,2.5980905999895185,None,53.75162919983268,59.76169039984234,3,2.5980905999895185,None,59.76198889990337,59.76201279996894,59.76201999979094,59.76210219995119,,None,None,59.762346399948,59.76237010001205,59.76237729983404,59.76245249994099,,,,,,,,,,1,,,,,,,,,,,,,,,,,,,,,,,,,,,,,,,,,,,,,,,,,,,,,,,,,,,,,,,,,,,,,,,,,,,,,,,,,,1,2023-11-27_12h20.26.771,watkins1,2023.2.3,99.75589734181096,19,2023-11-27 12h20.33.181279 +0000,
,,,,,,,,,,,,,,,,,,,,,,,,,,,,,,,,,,,,,,,,,,,,,,,,,,,,,,,,,,,,,59.76256679999642,67.00824949983507,,,,,,,1,,,,,,,,,,,,,,,,,,,,,,,,,,,,,,,,,,,,,,,,,,,,,,,,,,,,,,,,,,,,,,,,,,,,,,,,,,1,2023-11-27_12h20.26.771,watkins1,2023.2.3,99.75589734181096,19,2023-11-27 12h20.33.181279 +0000,
,,,,,,,0,0,0,0,,,,,,,,,,,,,,,,,68.02208209992386,,,,,,,,67.0082654999569,68.01209729979746,68.01254279981367,68.50420239986852,,,1,1.9737111998256296,,,,,,,,,,,,,,,,,,,,,68.50421249982901,74.5049798998516,Jacke,zart,"['Jacke', 'zart']",restudy_diff,1,"['Jacke', 'Löffel', 'Socke', 'Rucksack', 'Buch', 'Uhr', 'Geige', 'Blume', 'Kiste', 'Tasche', 'Schere', 'Eimer', 'Brille', 'Kette', 'Kamera', 'Würfel', 'Stift', 'Hammer', 'Bürste', 'Lampe', 'Telefon', 'Hut']",['zart'],1,1.9737111998256296,None,,,,,,,,,,,,,,,,,,,,,,,,,,,,,,,,,,,,,,,,,,,,,,,,,,,,,,,,,,,,,,,,,,,,,1,2023-11-27_12h20.26.771,watkins1,2023.2.3,99.75589734181096,19,2023-11-27 12h20.33.181279 +0000,
,,,,,,,1,0,1,0,,,,,,,,,,,,,,,,,74.51446059998125,,,,,,,,,,74.50557359983213,74.99650759994984,,,1,1.715464800130576,,,,,,,,,,,,,,,,,,,,,74.9965182999149,81.00262869987637,Löffel,gepunktet,"['Löffel', 'gepunktet']",restudy_diff,1,"['Jacke', 'Löffel', 'Socke', 'Rucksack', 'Buch', 'Uhr', 'Geige', 'Blume', 'Kiste', 'Tasche', 'Schere', 'Eimer', 'Brille', 'Kette', 'Kamera', 'Würfel', 'Stift', 'Hammer', 'Bürste', 'Lampe', 'Telefon', 'Hut']","['zart', 'gepunktet']",1,1.715464800130576,None,,,,,,,,,,,,,,,,,,,,,,,,,,,,,,,,,,,,,,,,,,,,,,,,,,,,,,,,,,,,,,,,,,,,,1,2023-11-27_12h20.26.771,watkins1,2023.2.3,99.75589734181096,19,2023-11-27 12h20.33.181279 +0000,
,,,,,,,2,0,2,0,,,,,,,,,,,,,,,,,81.01210789987817,,,,,,,,,,81.0031136998441,81.49416000000201,,,3,1.515693899942562,,,,,,,,,,,,,,,,,,,,,81.49417099985294,87.49565229984,Socke,dunkel,"['Socke', 'dunkel']",control,1,"['Jacke', 'Löffel', 'Socke', 'Rucksack', 'Buch', 'Uhr', 'Geige', 'Blume', 'Kiste', 'Tasche', 'Schere', 'Eimer', 'Brille', 'Kette', 'Kamera', 'Würfel', 'Stift', 'Hammer', 'Bürste', 'Lampe', 'Telefon', 'Hut']","['zart', 'gepunktet', 'dunkel']",3,1.515693899942562,None,,,,,,,,,,,,,,,,,,,,,,,,,,,,,,,,,,,,,,,,,,,,,,,,,,,,,,,,,,,,,,,,,,,,,1,2023-11-27_12h20.26.771,watkins1,2023.2.3,99.75589734181096,19,2023-11-27 12h20.33.181279 +0000,
,,,,,,,3,0,3,0,,,,,,,,,,,,,,,,,87.50514149991795,,,,,,,,,,87.49612699984573,87.98716049990617,,,3,2.830736800096929,,,,,,,,,,,,,,,,,,,,,87.98717149998993,93.99281649990007,Rucksack,kaputt,"['Rucksack', 'kaputt']",restudy_diff,1,"['Jacke', 'Löffel', 'Socke', 'Rucksack', 'Buch', 'Uhr', 'Geige', 'Blume', 'Kiste', 'Tasche', 'Schere', 'Eimer', 'Brille', 'Kette', 'Kamera', 'Würfel', 'Stift', 'Hammer', 'Bürste', 'Lampe', 'Telefon', 'Hut']","['zart', 'gepunktet', 'dunkel', 'kaputt']",3,2.830736800096929,None,,,,,,,,,,,,,,,,,,,,,,,,,,,,,,,,,,,,,,,,,,,,,,,,,,,,,,,,,,,,,,,,,,,,,1,2023-11-27_12h20.26.771,watkins1,2023.2.3,99.75589734181096,19,2023-11-27 12h20.33.181279 +0000,
,,,,,,,4,0,4,0,,,,,,,,,,,,,,,,,94.00237989984453,,,,,,,,,,93.99329419992864,94.48435629997402,,,1,1.853766400134191,,,,,,,,,,,,,,,,,,,,,94.48436749982648,100.49055379978381,Buch,strahlend,"['Buch', 'strahlend']",control,1,"['Jacke', 'Löffel', 'Socke', 'Rucksack', 'Buch', 'Uhr', 'Geige', 'Blume', 'Kiste', 'Tasche', 'Schere', 'Eimer', 'Brille', 'Kette', 'Kamera', 'Würfel', 'Stift', 'Hammer', 'Bürste', 'Lampe', 'Telefon', 'Hut']","['zart', 'gepunktet', 'dunkel', 'kaputt', 'strahlend']",1,1.853766400134191,None,,,,,,,,,,,,,,,,,,,,,,,,,,,,,,,,,,,,,,,,,,,,,,,,,,,,,,,,,,,,,,,,,,,,,1,2023-11-27_12h20.26.771,watkins1,2023.2.3,99.75589734181096,19,2023-11-27 12h20.33.181279 +0000,
,,,,,,,5,0,5,0,,,,,,,,,,,,,,,,,100.5000330999028,,,,,,,,,,100.49104309990071,100.98210599995218,,,2,2.1567858001217246,,,,,,,,,,,,,,,,,,,,,100.98211619979702,106.98806469980627,Uhr,glatt,"['Uhr', 'glatt']",restudy_diff,1,"['Jacke', 'Löffel', 'Socke', 'Rucksack', 'Buch', 'Uhr', 'Geige', 'Blume', 'Kiste', 'Tasche', 'Schere', 'Eimer', 'Brille', 'Kette', 'Kamera', 'Würfel', 'Stift', 'Hammer', 'Bürste', 'Lampe', 'Telefon', 'Hut']","['zart', 'gepunktet', 'dunkel', 'kaputt', 'strahlend', 'glatt']",2,2.1567858001217246,None,,,,,,,,,,,,,,,,,,,,,,,,,,,,,,,,,,,,,,,,,,,,,,,,,,,,,,,,,,,,,,,,,,,,,1,2023-11-27_12h20.26.771,watkins1,2023.2.3,99.75589734181096,19,2023-11-27 12h20.33.181279 +0000,
,,,,,,,6,0,6,0,,,,,,,,,,,,,,,,,106.99749360000715,,,,,,,,,,106.98855579993688,107.47961999988183,,,1,1.6111365999095142,,,,,,,,,,,,,,,,,,,,,107.47963039996102,113.48095989995636,Geige,dick,"['Geige', 'dick']",restudy_diff,1,"['Jacke', 'Löffel', 'Socke', 'Rucksack', 'Buch', 'Uhr', 'Geige', 'Blume', 'Kiste', 'Tasche', 'Schere', 'Eimer', 'Brille', 'Kette', 'Kamera', 'Würfel', 'Stift', 'Hammer', 'Bürste', 'Lampe', 'Telefon', 'Hut']","['zart', 'gepunktet', 'dunkel', 'kaputt', 'strahlend', 'glatt', 'dick']",1,1.6111365999095142,None,,,,,,,,,,,,,,,,,,,,,,,,,,,,,,,,,,,,,,,,,,,,,,,,,,,,,,,,,,,,,,,,,,,,,1,2023-11-27_12h20.26.771,watkins1,2023.2.3,99.75589734181096,19,2023-11-27 12h20.33.181279 +0000,
,,,,,,,7,0,7,0,,,,,,,,,,,,,,,,,113.49038359988481,,,,,,,,,,113.48144189990126,113.97241369984113,,,1,1.3660613000392914,,,,,,,,,,,,,,,,,,,,,113.97242459980771,119.9770107998047,Blume,kratzig,"['Blume', 'kratzig']",restudy_diff,1,"['Jacke', 'Löffel', 'Socke', 'Rucksack', 'Buch', 'Uhr', 'Geige', 'Blume', 'Kiste', 'Tasche', 'Schere', 'Eimer', 'Brille', 'Kette', 'Kamera', 'Würfel', 'Stift', 'Hammer', 'Bürste', 'Lampe', 'Telefon', 'Hut']","['zart', 'gepunktet', 'dunkel', 'kaputt', 'strahlend', 'glatt', 'dick', 'kratzig']",1,1.3660613000392914,None,,,,,,,,,,,,,,,,,,,,,,,,,,,,,,,,,,,,,,,,,,,,,,,,,,,,,,,,,,,,,,,,,,,,,1,2023-11-27_12h20.26.771,watkins1,2023.2.3,99.75589734181096,19,2023-11-27 12h20.33.181279 +0000,
,,,,,,,8,0,8,0,,,,,,,,,,,,,,,,,119.98648259998299,,,,,,,,,,119.97749009984545,120.46853519999422,,,1,1.5740610000211746,,,,,,,,,,,,,,,,,,,,,120.46854569995776,126.47496829996817,Kiste,lustig,"['Kiste', 'lustig']",restudy_diff,1,"['Jacke', 'Löffel', 'Socke', 'Rucksack', 'Buch', 'Uhr', 'Geige', 'Blume', 'Kiste', 'Tasche', 'Schere', 'Eimer', 'Brille', 'Kette', 'Kamera', 'Würfel', 'Stift', 'Hammer', 'Bürste', 'Lampe', 'Telefon', 'Hut']","['zart', 'gepunktet', 'dunkel', 'kaputt', 'strahlend', 'glatt', 'dick', 'kratzig', 'lustig']",1,1.5740610000211746,None,,,,,,,,,,,,,,,,,,,,,,,,,,,,,,,,,,,,,,,,,,,,,,,,,,,,,,,,,,,,,,,,,,,,,1,2023-11-27_12h20.26.771,watkins1,2023.2.3,99.75589734181096,19,2023-11-27 12h20.33.181279 +0000,
,,,,,,,9,0,9,0,,,,,,,,,,,,,,,,,126.48442959995009,,,,,,,,,,126.47544820001349,126.96657940000296,,,3,1.0518920000176877,,,,,,,,,,,,,,,,,,,,,126.96659009996802,132.9682500998024,Tasche,neu,"['Tasche', 'neu']",restudy_diff,1,"['Jacke', 'Löffel', 'Socke', 'Rucksack', 'Buch', 'Uhr', 'Geige', 'Blume', 'Kiste', 'Tasche', 'Schere', 'Eimer', 'Brille', 'Kette', 'Kamera', 'Würfel', 'Stift', 'Hammer', 'Bürste', 'Lampe', 'Telefon', 'Hut']","['zart', 'gepunktet', 'dunkel', 'kaputt', 'strahlend', 'glatt', 'dick', 'kratzig', 'lustig', 'neu']",3,1.0518920000176877,None,,,,,,,,,,,,,,,,,,,,,,,,,,,,,,,,,,,,,,,,,,,,,,,,,,,,,,,,,,,,,,,,,,,,,1,2023-11-27_12h20.26.771,watkins1,2023.2.3,99.75589734181096,19,2023-11-27 12h20.33.181279 +0000,
,,,,,,,10,0,10,0,,,,,,,,,,,,,,,,,132.97782439994626,,,,,,,,,,132.96872629993595,133.45991129986942,,,1,2.023106499807909,,,,,,,,,,,,,,,,,,,,,133.45992309995927,139.46294019999914,Schere,hohl,"['Schere', 'hohl']",control,1,"['Jacke', 'Löffel', 'Socke', 'Rucksack', 'Buch', 'Uhr', 'Geige', 'Blume', 'Kiste', 'Tasche', 'Schere', 'Eimer', 'Brille', 'Kette', 'Kamera', 'Würfel', 'Stift', 'Hammer', 'Bürste', 'Lampe', 'Telefon', 'Hut']","['zart', 'gepunktet', 'dunkel', 'kaputt', 'strahlend', 'glatt', 'dick', 'kratzig', 'lustig', 'neu', 'hohl']",1,2.023106499807909,None,,,,,,,,,,,,,,,,,,,,,,,,,,,,,,,,,,,,,,,,,,,,,,,,,,,,,,,,,,,,,,,,,,,,,1,2023-11-27_12h20.26.771,watkins1,2023.2.3,99.75589734181096,19,2023-11-27 12h20.33.181279 +0000,
,,,,,,,11,0,11,0,,,,,,,,,,,,,,,,,139.4724160998594,,,,,,,,,,139.46340809995309,139.95449459995143,,,3,2.5598301000427455,,,,,,,,,,,,,,,,,,,,,139.95450489991345,145.9626654998865,Eimer,bunt,"['Eimer', 'bunt']",restudy_diff,1,"['Jacke', 'Löffel', 'Socke', 'Rucksack', 'Buch', 'Uhr', 'Geige', 'Blume', 'Kiste', 'Tasche', 'Schere', 'Eimer', 'Brille', 'Kette', 'Kamera', 'Würfel', 'Stift', 'Hammer', 'Bürste', 'Lampe', 'Telefon', 'Hut']","['zart', 'gepunktet', 'dunkel', 'kaputt', 'strahlend', 'glatt', 'dick', 'kratzig', 'lustig', 'neu', 'hohl', 'bunt']",3,2.5598301000427455,None,,,,,,,,,,,,,,,,,,,,,,,,,,,,,,,,,,,,,,,,,,,,,,,,,,,,,,,,,,,,,,,,,,,,,1,2023-11-27_12h20.26.771,watkins1,2023.2.3,99.75589734181096,19,2023-11-27 12h20.33.181279 +0000,
,,,,,,,12,0,12,0,,,,,,,,,,,,,,,,,145.972130500013,,,,,,,,,,145.96314419992268,146.45418359991163,,,3,1.4121669000014663,,,,,,,,,,,,,,,,,,,,,146.45419389987364,152.46231729979627,Brille,glänzend,"['Brille', 'glänzend']",restudy_diff,1,"['Jacke', 'Löffel', 'Socke', 'Rucksack', 'Buch', 'Uhr', 'Geige', 'Blume', 'Kiste', 'Tasche', 'Schere', 'Eimer', 'Brille', 'Kette', 'Kamera', 'Würfel', 'Stift', 'Hammer', 'Bürste', 'Lampe', 'Telefon', 'Hut']","['zart', 'gepunktet', 'dunkel', 'kaputt', 'strahlend', 'glatt', 'dick', 'kratzig', 'lustig', 'neu', 'hohl', 'bunt', 'glänzend']",3,1.4121669000014663,None,,,,,,,,,,,,,,,,,,,,,,,,,,,,,,,,,,,,,,,,,,,,,,,,,,,,,,,,,,,,,,,,,,,,,1,2023-11-27_12h20.26.771,watkins1,2023.2.3,99.75589734181096,19,2023-11-27 12h20.33.181279 +0000,
,,,,,,,13,0,13,0,,,,,,,,,,,,,,,,,152.47178279981017,,,,,,,,,,152.46279279980808,152.9539206000045,,,2,2.137006599921733,,,,,,,,,,,,,,,,,,,,,152.9539316999726,158.95656979992054,Kette,robust,"['Kette', 'robust']",control,1,"['Jacke', 'Löffel', 'Socke', 'Rucksack', 'Buch', 'Uhr', 'Geige', 'Blume', 'Kiste', 'Tasche', 'Schere', 'Eimer', 'Brille', 'Kette', 'Kamera', 'Würfel', 'Stift', 'Hammer', 'Bürste', 'Lampe', 'Telefon', 'Hut']","['zart', 'gepunktet', 'dunkel', 'kaputt', 'strahlend', 'glatt', 'dick', 'kratzig', 'lustig', 'neu', 'hohl', 'bunt', 'glänzend', 'robust']",2,2.137006599921733,None,,,,,,,,,,,,,,,,,,,,,,,,,,,,,,,,,,,,,,,,,,,,,,,,,,,,,,,,,,,,,,,,,,,,,1,2023-11-27_12h20.26.771,watkins1,2023.2.3,99.75589734181096,19,2023-11-27 12h20.33.181279 +0000,
,,,,,,,14,0,14,0,,,,,,,,,,,,,,,,,158.96602049982175,,,,,,,,,,158.9570545000024,159.44810249982402,,,3,2.2348095001652837,,,,,,,,,,,,,,,,,,,,,159.44811349990778,165.45822659996338,Kamera,schmutzig,"['Kamera', 'schmutzig']",control,1,"['Jacke', 'Löffel', 'Socke', 'Rucksack', 'Buch', 'Uhr', 'Geige', 'Blume', 'Kiste', 'Tasche', 'Schere', 'Eimer', 'Brille', 'Kette', 'Kamera', 'Würfel', 'Stift', 'Hammer', 'Bürste', 'Lampe', 'Telefon', 'Hut']","['zart', 'gepunktet', 'dunkel', 'kaputt', 'strahlend', 'glatt', 'dick', 'kratzig', 'lustig', 'neu', 'hohl', 'bunt', 'glänzend', 'robust', 'schmutzig']",3,2.2348095001652837,None,,,,,,,,,,,,,,,,,,,,,,,,,,,,,,,,,,,,,,,,,,,,,,,,,,,,,,,,,,,,,,,,,,,,,1,2023-11-27_12h20.26.771,watkins1,2023.2.3,99.75589734181096,19,2023-11-27 12h20.33.181279 +0000,
,,,,,,,15,0,15,0,,,,,,,,,,,,,,,,,165.4676241998095,,,,,,,,,,165.4587057000026,165.9499847998377,,,2,1.6200666998047382,,,,,,,,,,,,,,,,,,,,,165.94999549980275,171.95372919994406,Würfel,hässlich,"['Würfel', 'hässlich']",restudy_diff,1,"['Jacke', 'Löffel', 'Socke', 'Rucksack', 'Buch', 'Uhr', 'Geige', 'Blume', 'Kiste', 'Tasche', 'Schere', 'Eimer', 'Brille', 'Kette', 'Kamera', 'Würfel', 'Stift', 'Hammer', 'Bürste', 'Lampe', 'Telefon', 'Hut']","['zart', 'gepunktet', 'dunkel', 'kaputt', 'strahlend', 'glatt', 'dick', 'kratzig', 'lustig', 'neu', 'hohl', 'bunt', 'glänzend', 'robust', 'schmutzig', 'hässlich']",2,1.6200666998047382,None,,,,,,,,,,,,,,,,,,,,,,,,,,,,,,,,,,,,,,,,,,,,,,,,,,,,,,,,,,,,,,,,,,,,,1,2023-11-27_12h20.26.771,watkins1,2023.2.3,99.75589734181096,19,2023-11-27 12h20.33.181279 +0000,
,,,,,,,16,0,16,0,,,,,,,,,,,,,,,,,171.96329310000874,,,,,,,,,,171.95420959987678,172.44528779992834,,,2,2.806055000051856,,,,,,,,,,,,,,,,,,,,,172.44529760000296,178.44949289993383,Stift,elegant,"['Stift', 'elegant']",control,1,"['Jacke', 'Löffel', 'Socke', 'Rucksack', 'Buch', 'Uhr', 'Geige', 'Blume', 'Kiste', 'Tasche', 'Schere', 'Eimer', 'Brille', 'Kette', 'Kamera', 'Würfel', 'Stift', 'Hammer', 'Bürste', 'Lampe', 'Telefon', 'Hut']","['zart', 'gepunktet', 'dunkel', 'kaputt', 'strahlend', 'glatt', 'dick', 'kratzig', 'lustig', 'neu', 'hohl', 'bunt', 'glänzend', 'robust', 'schmutzig', 'hässlich', 'elegant']",2,2.806055000051856,None,,,,,,,,,,,,,,,,,,,,,,,,,,,,,,,,,,,,,,,,,,,,,,,,,,,,,,,,,,,,,,,,,,,,,1,2023-11-27_12h20.26.771,watkins1,2023.2.3,99.75589734181096,19,2023-11-27 12h20.33.181279 +0000,
,,,,,,,17,0,17,0,,,,,,,,,,,,,,,,,178.4589252998121,,,,,,,,,,178.44997849990614,178.94098239997402,,,3,1.725198999978602,,,,,,,,,,,,,,,,,,,,,178.94099289993756,184.94981729984283,Hammer,kalt,"['Hammer', 'kalt']",control,1,"['Jacke', 'Löffel', 'Socke', 'Rucksack', 'Buch', 'Uhr', 'Geige', 'Blume', 'Kiste', 'Tasche', 'Schere', 'Eimer', 'Brille', 'Kette', 'Kamera', 'Würfel', 'Stift', 'Hammer', 'Bürste', 'Lampe', 'Telefon', 'Hut']","['zart', 'gepunktet', 'dunkel', 'kaputt', 'strahlend', 'glatt', 'dick', 'kratzig', 'lustig', 'neu', 'hohl', 'bunt', 'glänzend', 'robust', 'schmutzig', 'hässlich', 'elegant', 'kalt']",3,1.725198999978602,None,,,,,,,,,,,,,,,,,,,,,,,,,,,,,,,,,,,,,,,,,,,,,,,,,,,,,,,,,,,,,,,,,,,,,1,2023-11-27_12h20.26.771,watkins1,2023.2.3,99.75589734181096,19,2023-11-27 12h20.33.181279 +0000,
,,,,,,,18,0,18,0,,,,,,,,,,,,,,,,,184.95937830000184,,,,,,,,,,184.95030149980448,185.4413758998271,,,1,1.376979500055313,,,,,,,,,,,,,,,,,,,,,185.44138589990325,191.44520289986394,Bürste,verspielt,"['Bürste', 'verspielt']",restudy_diff,1,"['Jacke', 'Löffel', 'Socke', 'Rucksack', 'Buch', 'Uhr', 'Geige', 'Blume', 'Kiste', 'Tasche', 'Schere', 'Eimer', 'Brille', 'Kette', 'Kamera', 'Würfel', 'Stift', 'Hammer', 'Bürste', 'Lampe', 'Telefon', 'Hut']","['zart', 'gepunktet', 'dunkel', 'kaputt', 'strahlend', 'glatt', 'dick', 'kratzig', 'lustig', 'neu', 'hohl', 'bunt', 'glänzend', 'robust', 'schmutzig', 'hässlich', 'elegant', 'kalt', 'verspielt']",1,1.376979500055313,None,,,,,,,,,,,,,,,,,,,,,,,,,,,,,,,,,,,,,,,,,,,,,,,,,,,,,,,,,,,,,,,,,,,,,1,2023-11-27_12h20.26.771,watkins1,2023.2.3,99.75589734181096,19,2023-11-27 12h20.33.181279 +0000,
,,,,,,,19,0,19,0,,,,,,,,,,,,,,,,,191.45462219999172,,,,,,,,,,191.44568179990165,191.93672599992715,,,1,1.1303745000623167,,,,,,,,,,,,,,,,,,,,,191.93673649989069,197.94693479989655,Lampe,sportlich,"['Lampe', 'sportlich']",restudy_diff,1,"['Jacke', 'Löffel', 'Socke', 'Rucksack', 'Buch', 'Uhr', 'Geige', 'Blume', 'Kiste', 'Tasche', 'Schere', 'Eimer', 'Brille', 'Kette', 'Kamera', 'Würfel', 'Stift', 'Hammer', 'Bürste', 'Lampe', 'Telefon', 'Hut']","['zart', 'gepunktet', 'dunkel', 'kaputt', 'strahlend', 'glatt', 'dick', 'kratzig', 'lustig', 'neu', 'hohl', 'bunt', 'glänzend', 'robust', 'schmutzig', 'hässlich', 'elegant', 'kalt', 'verspielt', 'sportlich']",1,1.1303745000623167,None,,,,,,,,,,,,,,,,,,,,,,,,,,,,,,,,,,,,,,,,,,,,,,,,,,,,,,,,,,,,,,,,,,,,,1,2023-11-27_12h20.26.771,watkins1,2023.2.3,99.75589734181096,19,2023-11-27 12h20.33.181279 +0000,
,,,,,,,20,0,20,0,,,,,,,,,,,,,,,,,197.956410799874,,,,,,,,,,197.9474137998186,198.43843129999004,,,1,1.2368524000048637,,,,,,,,,,,,,,,,,,,,,198.4384416998364,204.44746679998934,Telefon,blass,"['Telefon', 'blass']",restudy_diff,1,"['Jacke', 'Löffel', 'Socke', 'Rucksack', 'Buch', 'Uhr', 'Geige', 'Blume', 'Kiste', 'Tasche', 'Schere', 'Eimer', 'Brille', 'Kette', 'Kamera', 'Würfel', 'Stift', 'Hammer', 'Bürste', 'Lampe', 'Telefon', 'Hut']","['zart', 'gepunktet', 'dunkel', 'kaputt', 'strahlend', 'glatt', 'dick', 'kratzig', 'lustig', 'neu', 'hohl', 'bunt', 'glänzend', 'robust', 'schmutzig', 'hässlich', 'elegant', 'kalt', 'verspielt', 'sportlich', 'blass']",1,1.2368524000048637,None,,,,,,,,,,,,,,,,,,,,,,,,,,,,,,,,,,,,,,,,,,,,,,,,,,,,,,,,,,,,,,,,,,,,,1,2023-11-27_12h20.26.771,watkins1,2023.2.3,99.75589734181096,19,2023-11-27 12h20.33.181279 +0000,
,,,,,,,21,0,21,0,,,,,,,,,,,,,,,,,204.45693129999563,,,,,,,,,,204.44796599983238,204.9389443998225,,,3,1.3603727999143302,,,,,,,,,,,,,,,,,,,,,204.93895499990322,210.9477907998953,Hut,gestreift,"['Hut', 'gestreift']",restudy_diff,1,"['Jacke', 'Löffel', 'Socke', 'Rucksack', 'Buch', 'Uhr', 'Geige', 'Blume', 'Kiste', 'Tasche', 'Schere', 'Eimer', 'Brille', 'Kette', 'Kamera', 'Würfel', 'Stift', 'Hammer', 'Bürste', 'Lampe', 'Telefon', 'Hut']","['zart', 'gepunktet', 'dunkel', 'kaputt', 'strahlend', 'glatt', 'dick', 'kratzig', 'lustig', 'neu', 'hohl', 'bunt', 'glänzend', 'robust', 'schmutzig', 'hässlich', 'elegant', 'kalt', 'verspielt', 'sportlich', 'blass', 'gestreift']",3,1.3603727999143302,None,,,,,,,,,,,,,,,,,,,,,,,,,,,,,,,,,,,,,,,,,,,,,,,,,,,,,,,,,,,,,,,,,,,,,1,2023-11-27_12h20.26.771,watkins1,2023.2.3,99.75589734181096,19,2023-11-27 12h20.33.181279 +0000,
,,,,,,,,,,,0,0,0,0,,,,,,,,,,,,,210.9573289998807,,,,,,,,,,210.9486168997828,211.43941939994693,,,3,2.973285000072792,,,,,,,,,,,,None,None,,,,,,,,,,Löffel,durchsichtig,"['Löffel', 'durchsichtig']",restudy_diff,1,,,,,,210.94854129990563,210.94859169982374,"['Löffel', 'Fahrrad', 'Flasche', 'Schlüssel', 'Würfel', 'Hut', 'Vase', 'Tasse', 'Jacke', 'Telefon', 'Ring', 'Lampe', 'Rucksack', 'Bürste', 'Tasche', 'Geige', 'Eimer', 'Kerze', 'Trommel', 'Blume', 'Brille', 'Uhr', 'Kiste']",211.439430099912,211.44221169990487,None,211.44238699995913,211.44508389988914,None,211.4452360998839,217.45293389982544,3,2.973285000072792,None,217.4533295999281,217.45471909991466,217.45473190001212,217.45604049996473,,,,,,,,,,,,,,,,,,,,,,,,,,,,,,,,,,,,,,,,,,,,,,,,,,,1,2023-11-27_12h20.26.771,watkins1,2023.2.3,99.75589734181096,19,2023-11-27 12h20.33.181279 +0000,
,,,,,,,,,,,1,0,1,0,,,,,,,,,,,,,217.46234499989077,,,,,,,,,,217.4563080999069,217.95448519987985,,,[],[],,,,,,,,,,,,None,None,,,,,,,,,,Fahrrad,flauschig,"['Fahrrad', 'flauschig']",control,1,,,,,,217.45624449988827,217.45628199982457,"['Löffel', 'Fahrrad', 'Flasche', 'Schlüssel', 'Würfel', 'Hut', 'Vase', 'Tasse', 'Jacke', 'Telefon', 'Ring', 'Lampe', 'Rucksack', 'Bürste', 'Tasche', 'Geige', 'Eimer', 'Kerze', 'Trommel', 'Blume', 'Brille', 'Uhr', 'Kiste']",217.9544959999621,223.95787349995226,1,223.95822659996338,223.9610204999335,None,223.96113289985806,223.96385259996168,None,,,223.96395639982074,223.96516279992647,223.96517469990067,223.96641899994574,1.455151499947533,None,,,,,,,,,,,,,,,,,,,,,,,,,,,,,,,,,,,,,,,,,,,,,,,,,1,2023-11-27_12h20.26.771,watkins1,2023.2.3,99.75589734181096,19,2023-11-27 12h20.33.181279 +0000,
,,,,,,,,,,,2,0,2,0,,,,,,,,,,,,,223.9700135998428,,,,,,,,,,223.96668759989552,224.46351109980606,,,[],[],,,,,,,,,,,,None,None,,,,,,,,,,Flasche,teuer,"['Flasche', 'teuer']",control,1,,,,,,223.966623299988,223.96666289982386,"['Löffel', 'Fahrrad', 'Flasche', 'Schlüssel', 'Würfel', 'Hut', 'Vase', 'Tasse', 'Jacke', 'Telefon', 'Ring', 'Lampe', 'Rucksack', 'Bürste', 'Tasche', 'Geige', 'Eimer', 'Kerze', 'Trommel', 'Blume', 'Brille', 'Uhr', 'Kiste']",224.4635214000009,230.47248709993437,3,230.47276269993745,230.47553329984657,None,230.47563939983957,230.47818139987066,None,,,230.4782829999458,230.4794697999023,230.47948179999366,230.4806259998586,3.307739600073546,None,,,,,,,,,,,,,,,,,,,,,,,,,,,,,,,,,,,,,,,,,,,,,,,,,1,2023-11-27_12h20.26.771,watkins1,2023.2.3,99.75589734181096,19,2023-11-27 12h20.33.181279 +0000,
,,,,,,,,,,,3,0,3,0,,,,,,,,,,,,,230.48419119999744,,,,,,,,,,230.4808924999088,230.97721539996564,,,[],[],,,,,,,,,,,,None,None,,,,,,,,,,Schlüssel,winzig,"['Schlüssel', 'winzig']",control,1,,,,,,230.48082969989628,230.48086809995584,"['Löffel', 'Fahrrad', 'Flasche', 'Schlüssel', 'Würfel', 'Hut', 'Vase', 'Tasse', 'Jacke', 'Telefon', 'Ring', 'Lampe', 'Rucksack', 'Bürste', 'Tasche', 'Geige', 'Eimer', 'Kerze', 'Trommel', 'Blume', 'Brille', 'Uhr', 'Kiste']",230.977225799812,236.98391279997304,3,236.98418669984676,236.98702829983085,None,236.98713279981166,236.9897186998278,None,,,236.98982209991664,236.99105199985206,236.9910637999419,236.99223909992725,3.8250031999778003,None,,,,,,,,,,,,,,,,,,,,,,,,,,,,,,,,,,,,,,,,,,,,,,,,,1,2023-11-27_12h20.26.771,watkins1,2023.2.3,99.75589734181096,19,2023-11-27 12h20.33.181279 +0000,
,,,,,,,,,,,4,0,4,0,,,,,,,,,,,,,236.9958168999292,,,,,,,,,,236.99250449985266,237.489195499802,,,3,1.862880100030452,,,,,,,,,,,,None,None,,,,,,,,,,Würfel,praktisch,"['Würfel', 'praktisch']",restudy_diff,1,,,,,,236.99244139995426,236.9924796000123,"['Löffel', 'Fahrrad', 'Flasche', 'Schlüssel', 'Würfel', 'Hut', 'Vase', 'Tasse', 'Jacke', 'Telefon', 'Ring', 'Lampe', 'Rucksack', 'Bürste', 'Tasche', 'Geige', 'Eimer', 'Kerze', 'Trommel', 'Blume', 'Brille', 'Uhr', 'Kiste']",237.48920579999685,237.49077019980177,None,237.4908888998907,237.49232469988056,None,237.49242659984156,243.50208919984289,3,1.862880100030452,None,243.50236409995705,243.503762899898,243.50377639988437,243.50504379998893,,,,,,,,,,,,,,,,,,,,,,,,,,,,,,,,,,,,,,,,,,,,,,,,,,,1,2023-11-27_12h20.26.771,watkins1,2023.2.3,99.75589734181096,19,2023-11-27 12h20.33.181279 +0000,
,,,,,,,,,,,5,0,5,0,,,,,,,,,,,,,243.51150169991888,,,,,,,,,,243.50531719997525,244.00370669993572,,,2,2.5146786000113934,,,,,,,,,,,,None,None,,,,,,,,,,Hut,gut,"['Hut', 'gut']",restudy_diff,1,,,,,,243.5052505999338,243.50528959999792,"['Löffel', 'Fahrrad', 'Flasche', 'Schlüssel', 'Würfel', 'Hut', 'Vase', 'Tasse', 'Jacke', 'Telefon', 'Ring', 'Lampe', 'Rucksack', 'Bürste', 'Tasche', 'Geige', 'Eimer', 'Kerze', 'Trommel', 'Blume', 'Brille', 'Uhr', 'Kiste']",244.00371739990078,244.0063115998637,None,244.00642959983088,244.00888789980672,None,244.00899389991537,250.01570579991676,2,2.5146786000113934,None,250.0159793999046,250.01721289986745,250.01722509996034,250.01822509989142,,,,,,,,,,,,,,,,,,,,,,,,,,,,,,,,,,,,,,,,,,,,,,,,,,,1,2023-11-27_12h20.26.771,watkins1,2023.2.3,99.75589734181096,19,2023-11-27 12h20.33.181279 +0000,
,,,,,,,,,,,6,0,6,0,,,,,,,,,,,,,250.02509109978564,,,,,,,,,,250.0184918998275,250.5174755998887,,,[],[],,,,,,,,,,,,None,None,,,,,,,,,,Vase,breit,"['Vase', 'breit']",control,1,,,,,,250.01842939993367,250.01846699998714,"['Löffel', 'Fahrrad', 'Flasche', 'Schlüssel', 'Würfel', 'Hut', 'Vase', 'Tasse', 'Jacke', 'Telefon', 'Ring', 'Lampe', 'Rucksack', 'Bürste', 'Tasche', 'Geige', 'Eimer', 'Kerze', 'Trommel', 'Blume', 'Brille', 'Uhr', 'Kiste']",250.51748609985225,256.52185619995,3,256.52213539998047,256.524771399796,None,256.5248769999016,256.52727289986797,None,,,256.52737559983507,256.52842869982123,256.52844059979543,256.52972829993814,1.620848200051114,None,,,,,,,,,,,,,,,,,,,,,,,,,,,,,,,,,,,,,,,,,,,,,,,,,1,2023-11-27_12h20.26.771,watkins1,2023.2.3,99.75589734181096,19,2023-11-27 12h20.33.181279 +0000,
,,,,,,,,,,,7,0,7,0,,,,,,,,,,,,,256.53336259978823,,,,,,,,,,256.5299968998879,257.0263514998369,,,[],[],,,,,,,,,,,,None,None,,,,,,,,,,Tasse,schwer,"['Tasse', 'schwer']",control,1,,,,,,256.52993389987387,256.5299730999395,"['Löffel', 'Fahrrad', 'Flasche', 'Schlüssel', 'Würfel', 'Hut', 'Vase', 'Tasse', 'Jacke', 'Telefon', 'Ring', 'Lampe', 'Rucksack', 'Bürste', 'Tasche', 'Geige', 'Eimer', 'Kerze', 'Trommel', 'Blume', 'Brille', 'Uhr', 'Kiste']",257.0263628999237,263.0269143998157,3,263.0271926999558,263.02987879980356,None,263.029984699795,263.0324925999157,None,,,263.0325950998813,263.0338457999751,263.03385829995386,263.03513199998997,1.23283759993501,None,,,,,,,,,,,,,,,,,,,,,,,,,,,,,,,,,,,,,,,,,,,,,,,,,1,2023-11-27_12h20.26.771,watkins1,2023.2.3,99.75589734181096,19,2023-11-27 12h20.33.181279 +0000,
,,,,,,,,,,,8,0,8,0,,,,,,,,,,,,,263.0387108998839,,,,,,,,,,263.03540239995345,263.53182859998196,,,3,1.1875471000093967,,,,,,,,,,,,None,None,,,,,,,,,,Jacke,sauber,"['Jacke', 'sauber']",restudy_diff,1,,,,,,263.03533979994245,263.0353788000066,"['Löffel', 'Fahrrad', 'Flasche', 'Schlüssel', 'Würfel', 'Hut', 'Vase', 'Tasse', 'Jacke', 'Telefon', 'Ring', 'Lampe', 'Rucksack', 'Bürste', 'Tasche', 'Geige', 'Eimer', 'Kerze', 'Trommel', 'Blume', 'Brille', 'Uhr', 'Kiste']",263.53183969995007,263.53390229982324,None,263.53402309981175,263.53550299978815,None,263.5356060999911,269.5427661999129,3,1.1875471000093967,None,269.54305109987035,269.54433679999784,269.5443494999781,269.54555299994536,,,,,,,,,,,,,,,,,,,,,,,,,,,,,,,,,,,,,,,,,,,,,,,,,,,1,2023-11-27_12h20.26.771,watkins1,2023.2.3,99.75589734181096,19,2023-11-27 12h20.33.181279 +0000,
,,,,,,,,,,,9,0,9,0,,,,,,,,,,,,,269.55220719985664,,,,,,,,,,269.5458234997932,270.04427159996703,,,1,2.848978899884969,,,,,,,,,,,,None,None,,,,,,,,,,Telefon,krumm,"['Telefon', 'krumm']",restudy_diff,1,,,,,,269.5457595998887,269.54579719994217,"['Löffel', 'Fahrrad', 'Flasche', 'Schlüssel', 'Würfel', 'Hut', 'Vase', 'Tasse', 'Jacke', 'Telefon', 'Ring', 'Lampe', 'Rucksack', 'Bürste', 'Tasche', 'Geige', 'Eimer', 'Kerze', 'Trommel', 'Blume', 'Brille', 'Uhr', 'Kiste']",270.04428289993666,270.04714779998176,None,270.0472689999733,270.05014339997433,None,270.05025119986385,276.05494920001365,1,2.848978899884969,None,276.05523069994524,276.0565590998158,276.05657159979455,276.05772709986195,,,,,,,,,,,,,,,,,,,,,,,,,,,,,,,,,,,,,,,,,,,,,,,,,,,1,2023-11-27_12h20.26.771,watkins1,2023.2.3,99.75589734181096,19,2023-11-27 12h20.33.181279 +0000,
,,,,,,,,,,,10,0,10,0,,,,,,,,,,,,,276.0643787998706,,,,,,,,,,276.05800419999287,276.55659489985555,,,[],[],,,,,,,,,,,,None,None,,,,,,,,,,Ring,niedlich,"['Ring', 'niedlich']",control,1,,,,,,276.05793899996206,276.0579775997903,"['Löffel', 'Fahrrad', 'Flasche', 'Schlüssel', 'Würfel', 'Hut', 'Vase', 'Tasse', 'Jacke', 'Telefon', 'Ring', 'Lampe', 'Rucksack', 'Bürste', 'Tasche', 'Geige', 'Eimer', 'Kerze', 'Trommel', 'Blume', 'Brille', 'Uhr', 'Kiste']",276.55660529993474,282.5584078999236,1,282.5586875998415,282.5612994998228,None,282.56140459980816,282.5638647999149,None,,,282.56396840000525,282.56500869989395,282.5650206999853,282.5662405998446,1.4066287998575717,None,,,,,,,,,,,,,,,,,,,,,,,,,,,,,,,,,,,,,,,,,,,,,,,,,1,2023-11-27_12h20.26.771,watkins1,2023.2.3,99.75589734181096,19,2023-11-27 12h20.33.181279 +0000,
,,,,,,,,,,,11,0,11,0,,,,,,,,,,,,,282.5699478997849,,,,,,,,,,282.56651109992526,283.06302579981275,,,2,3.377054600045085,,,,,,,,,,,,None,None,,,,,,,,,,Lampe,matt,"['Lampe', 'matt']",restudy_diff,1,,,,,,282.56644620001316,282.56648449995555,"['Löffel', 'Fahrrad', 'Flasche', 'Schlüssel', 'Würfel', 'Hut', 'Vase', 'Tasse', 'Jacke', 'Telefon', 'Ring', 'Lampe', 'Rucksack', 'Bürste', 'Tasche', 'Geige', 'Eimer', 'Kerze', 'Trommel', 'Blume', 'Brille', 'Uhr', 'Kiste']",283.0630367998965,283.0646067999769,None,283.06472489982843,283.0663236998953,None,283.06642699986696,289.0756460998673,2,3.377054600045085,None,289.07592420000583,289.0773127998691,289.07732529984787,289.07838709978387,,,,,,,,,,,,,,,,,,,,,,,,,,,,,,,,,,,,,,,,,,,,,,,,,,,1,2023-11-27_12h20.26.771,watkins1,2023.2.3,99.75589734181096,19,2023-11-27 12h20.33.181279 +0000,
,,,,,,,,,,,12,0,12,0,,,,,,,,,,,,,289.0851090999786,,,,,,,,,,289.0786575998645,289.5772607999388,,,3,1.7964664997998625,,,,,,,,,,,,None,None,,,,,,,,,,Rucksack,nachhaltig,"['Rucksack', 'nachhaltig']",restudy_diff,1,,,,,,289.07859359984286,289.07863189978525,"['Löffel', 'Fahrrad', 'Flasche', 'Schlüssel', 'Würfel', 'Hut', 'Vase', 'Tasse', 'Jacke', 'Telefon', 'Ring', 'Lampe', 'Rucksack', 'Bürste', 'Tasche', 'Geige', 'Eimer', 'Kerze', 'Trommel', 'Blume', 'Brille', 'Uhr', 'Kiste']",289.57727129990235,289.5798524999991,None,289.5799706999678,289.5824567999225,None,289.58256199979223,295.59271359979175,3,1.7964664997998625,None,295.5929920999333,295.5943858998362,295.59439839981496,295.59569929982536,,,,,,,,,,,,,,,,,,,,,,,,,,,,,,,,,,,,,,,,,,,,,,,,,,,1,2023-11-27_12h20.26.771,watkins1,2023.2.3,99.75589734181096,19,2023-11-27 12h20.33.181279 +0000,
,,,,,,,,,,,13,0,13,0,,,,,,,,,,,,,295.60213819984347,,,,,,,,,,295.5959736998193,296.09422609978355,,,2,1.5592636000365019,,,,,,,,,,,,None,None,,,,,,,,,,Bürste,klobig,"['Bürste', 'klobig']",restudy_diff,1,,,,,,295.59590919991024,295.5959480998572,"['Löffel', 'Fahrrad', 'Flasche', 'Schlüssel', 'Würfel', 'Hut', 'Vase', 'Tasse', 'Jacke', 'Telefon', 'Ring', 'Lampe', 'Rucksack', 'Bürste', 'Tasche', 'Geige', 'Eimer', 'Kerze', 'Trommel', 'Blume', 'Brille', 'Uhr', 'Kiste']",296.09423699998297,296.09701989986934,None,296.09713579993695,296.09979010000825,None,296.0998946998734,302.10406579985283,2,1.5592636000365019,None,302.1043543999549,302.10572259989567,302.1057348998729,302.10694409999996,,,,,,,,,,,,,,,,,,,,,,,,,,,,,,,,,,,,,,,,,,,,,,,,,,,1,2023-11-27_12h20.26.771,watkins1,2023.2.3,99.75589734181096,19,2023-11-27 12h20.33.181279 +0000,
,,,,,,,,,,,14,0,14,0,,,,,,,,,,,,,302.1135603999719,,,,,,,,,,302.10721319983713,302.60590039985254,,,1,1.015683500096202,,,,,,,,,,,,None,None,,,,,,,,,,Tasche,biegsam,"['Tasche', 'biegsam']",restudy_diff,1,,,,,,302.10714829992503,302.1071868999861,"['Löffel', 'Fahrrad', 'Flasche', 'Schlüssel', 'Würfel', 'Hut', 'Vase', 'Tasse', 'Jacke', 'Telefon', 'Ring', 'Lampe', 'Rucksack', 'Bürste', 'Tasche', 'Geige', 'Eimer', 'Kerze', 'Trommel', 'Blume', 'Brille', 'Uhr', 'Kiste']",302.6059119999409,302.6086739997845,None,302.60879549989477,302.61137689999305,None,302.61148189986125,308.6159910999704,1,1.015683500096202,None,308.616288599791,308.61764039983973,308.6176533999387,308.61887729982845,,,,,,,,,,,,,,,,,,,,,,,,,,,,,,,,,,,,,,,,,,,,,,,,,,,1,2023-11-27_12h20.26.771,watkins1,2023.2.3,99.75589734181096,19,2023-11-27 12h20.33.181279 +0000,
,,,,,,,,,,,15,0,15,0,,,,,,,,,,,,,308.62542909989133,,,,,,,,,,308.619146999903,309.117619499797,,,2,3.232140199979767,,,,,,,,,,,,None,None,,,,,,,,,,Geige,schlicht,"['Geige', 'schlicht']",restudy_diff,1,,,,,,308.6190831998829,308.61912049981765,"['Löffel', 'Fahrrad', 'Flasche', 'Schlüssel', 'Würfel', 'Hut', 'Vase', 'Tasse', 'Jacke', 'Telefon', 'Ring', 'Lampe', 'Rucksack', 'Bürste', 'Tasche', 'Geige', 'Eimer', 'Kerze', 'Trommel', 'Blume', 'Brille', 'Uhr', 'Kiste']",309.11763059999794,309.1203559997957,None,309.12047889991663,309.1230230999645,None,309.12312639993615,315.1279082999099,2,3.232140199979767,None,315.1281894999556,315.12949369987473,315.1295061998535,315.1307633998804,,,,,,,,,,,,,,,,,,,,,,,,,,,,,,,,,,,,,,,,,,,,,,,,,,,1,2023-11-27_12h20.26.771,watkins1,2023.2.3,99.75589734181096,19,2023-11-27 12h20.33.181279 +0000,
,,,,,,,,,,,16,0,16,0,,,,,,,,,,,,,315.13749629980884,,,,,,,,,,315.1310333998408,315.6295941998251,,,2,2.78441120008938,,,,,,,,,,,,None,None,,,,,,,,,,Eimer,nass,"['Eimer', 'nass']",restudy_diff,1,,,,,,315.13096859981306,315.13100649998523,"['Löffel', 'Fahrrad', 'Flasche', 'Schlüssel', 'Würfel', 'Hut', 'Vase', 'Tasse', 'Jacke', 'Telefon', 'Ring', 'Lampe', 'Rucksack', 'Bürste', 'Tasche', 'Geige', 'Eimer', 'Kerze', 'Trommel', 'Blume', 'Brille', 'Uhr', 'Kiste']",315.6296046997886,315.6323317999486,None,315.63244929979555,315.6350600000005,None,315.63516439986415,321.63917099987157,2,2.78441120008938,None,321.63945429981686,321.6410212998744,321.6410339998547,321.64209340000525,,,,,,,,,,,,,,,,,,,,,,,,,,,,,,,,,,,,,,,,,,,,,,,,,,,1,2023-11-27_12h20.26.771,watkins1,2023.2.3,99.75589734181096,19,2023-11-27 12h20.33.181279 +0000,
,,,,,,,,,,,17,0,17,0,,,,,,,,,,,,,321.6486565999221,,,,,,,,,,321.6423625999596,322.1408376998734,,,[],[],,,,,,,,,,,,None,None,,,,,,,,,,Kerze,kurz,"['Kerze', 'kurz']",control,1,,,,,,321.6422980998177,321.64233659999445,"['Löffel', 'Fahrrad', 'Flasche', 'Schlüssel', 'Würfel', 'Hut', 'Vase', 'Tasse', 'Jacke', 'Telefon', 'Ring', 'Lampe', 'Rucksack', 'Bürste', 'Tasche', 'Geige', 'Eimer', 'Kerze', 'Trommel', 'Blume', 'Brille', 'Uhr', 'Kiste']",322.14084809995256,328.14960139989853,3,328.1498846998438,328.1524034999311,None,328.15250989980996,328.15487799979746,None,,,328.1549801998772,328.15612509986386,328.1561368999537,328.15716489986517,2.294518700102344,None,,,,,,,,,,,,,,,,,,,,,,,,,,,,,,,,,,,,,,,,,,,,,,,,,1,2023-11-27_12h20.26.771,watkins1,2023.2.3,99.75589734181096,19,2023-11-27 12h20.33.181279 +0000,
,,,,,,,,,,,18,0,18,0,,,,,,,,,,,,,328.16082609980367,,,,,,,,,,328.157432399923,328.6536445999518,,,[],[],,,,,,,,,,,,None,None,,,,,,,,,,Trommel,flach,"['Trommel', 'flach']",control,1,,,,,,328.15737029979937,328.15740869985893,"['Löffel', 'Fahrrad', 'Flasche', 'Schlüssel', 'Würfel', 'Hut', 'Vase', 'Tasse', 'Jacke', 'Telefon', 'Ring', 'Lampe', 'Rucksack', 'Bürste', 'Tasche', 'Geige', 'Eimer', 'Kerze', 'Trommel', 'Blume', 'Brille', 'Uhr', 'Kiste']",328.6536556999199,334.6621110998094,3,334.6623892998323,334.66507839993574,None,334.665183799807,334.6677223998122,None,,,334.66782859992236,334.66904229996726,334.669054399943,334.67021559993736,1.733338400023058,None,,,,,,,,,,,,,,,,,,,,,,,,,,,,,,,,,,,,,,,,,,,,,,,,,1,2023-11-27_12h20.26.771,watkins1,2023.2.3,99.75589734181096,19,2023-11-27 12h20.33.181279 +0000,
,,,,,,,,,,,19,0,19,0,,,,,,,,,,,,,334.67379459994845,,,,,,,,,,334.6704822999891,335.1668559999671,,,3,2.31253660004586,,,,,,,,,,,,None,None,,,,,,,,,,Blume,groß,"['Blume', 'groß']",restudy_diff,1,,,,,,334.6704198999796,334.6704583999235,"['Löffel', 'Fahrrad', 'Flasche', 'Schlüssel', 'Würfel', 'Hut', 'Vase', 'Tasse', 'Jacke', 'Telefon', 'Ring', 'Lampe', 'Rucksack', 'Bürste', 'Tasche', 'Geige', 'Eimer', 'Kerze', 'Trommel', 'Blume', 'Brille', 'Uhr', 'Kiste']",335.1668670999352,335.16847619996406,None,335.16859599994496,335.17003319994546,None,335.1701372999232,341.17706869984977,3,2.31253660004586,None,341.1773480998818,341.17864109994844,341.17865349981,341.1796954998281,,,,,,,,,,,,,,,,,,,,,,,,,,,,,,,,,,,,,,,,,,,,,,,,,,,1,2023-11-27_12h20.26.771,watkins1,2023.2.3,99.75589734181096,19,2023-11-27 12h20.33.181279 +0000,
,,,,,,,,,,,20,0,20,0,,,,,,,,,,,,,341.1865475999657,,,,,,,,,,341.17996519990265,341.67861279984936,,,1,1.2553955998737365,,,,,,,,,,,,None,None,,,,,,,,,,Brille,lang,"['Brille', 'lang']",restudy_diff,1,,,,,,341.17990099987946,341.1799399999436,"['Löffel', 'Fahrrad', 'Flasche', 'Schlüssel', 'Würfel', 'Hut', 'Vase', 'Tasse', 'Jacke', 'Telefon', 'Ring', 'Lampe', 'Rucksack', 'Bürste', 'Tasche', 'Geige', 'Eimer', 'Kerze', 'Trommel', 'Blume', 'Brille', 'Uhr', 'Kiste']",341.678624099819,341.6813314999454,None,341.68145099980757,341.6838759998791,None,341.6839791999664,347.6909701998811,1,1.2553955998737365,None,347.69125159992836,347.6926400999073,347.69265259988606,347.6937011999544,,,,,,,,,,,,,,,,,,,,,,,,,,,,,,,,,,,,,,,,,,,,,,,,,,,1,2023-11-27_12h20.26.771,watkins1,2023.2.3,99.75589734181096,19,2023-11-27 12h20.33.181279 +0000,
,,,,,,,,,,,21,0,21,0,,,,,,,,,,,,,347.70038109994493,,,,,,,,,,347.6939716998022,348.19257939979434,,,2,2.005794500000775,,,,,,,,,,,,None,None,,,,,,,,,,Uhr,rustikal,"['Uhr', 'rustikal']",restudy_diff,1,,,,,,347.6939083999023,347.69394579995424,"['Löffel', 'Fahrrad', 'Flasche', 'Schlüssel', 'Würfel', 'Hut', 'Vase', 'Tasse', 'Jacke', 'Telefon', 'Ring', 'Lampe', 'Rucksack', 'Bürste', 'Tasche', 'Geige', 'Eimer', 'Kerze', 'Trommel', 'Blume', 'Brille', 'Uhr', 'Kiste']",348.1925904999953,348.195008300012,None,348.1951281998772,348.19738009991124,None,348.19748299987987,354.2009858000092,2,2.005794500000775,None,354.20126479980536,354.20241069979966,354.2024230998941,354.2036653999239,,,,,,,,,,,,,,,,,,,,,,,,,,,,,,,,,,,,,,,,,,,,,,,,,,,1,2023-11-27_12h20.26.771,watkins1,2023.2.3,99.75589734181096,19,2023-11-27 12h20.33.181279 +0000,
,,,,,,,,,,,22,0,22,0,,,,,,,,,,,,,354.2104028998874,,,,,,,,,,354.203937899787,354.7026881999336,,,2,2.8386409000959247,,,,,,,,,,,,None,None,,,,,,,,,,Kiste,hübsch,"['Kiste', 'hübsch']",restudy_diff,1,,,,,,354.20387459988706,354.2039124998264,"['Löffel', 'Fahrrad', 'Flasche', 'Schlüssel', 'Würfel', 'Hut', 'Vase', 'Tasse', 'Jacke', 'Telefon', 'Ring', 'Lampe', 'Rucksack', 'Bürste', 'Tasche', 'Geige', 'Eimer', 'Kerze', 'Trommel', 'Blume', 'Brille', 'Uhr', 'Kiste']",354.7026995997876,354.7055144999176,None,354.7056363997981,354.70821739989333,None,354.7083242998924,360.71310619986616,2,2.8386409000959247,None,360.7133841998875,360.7146754998248,360.7146878999192,360.7158746998757,,,,,,,,,,,,,,,,,,,,,,,,,,,,,,,,,,,,,,,,,,,,,,,,,,,1,2023-11-27_12h20.26.771,watkins1,2023.2.3,99.75589734181096,19,2023-11-27 12h20.33.181279 +0000,
,,,,,,,,,,,,,,,,,,,,,,,,,,,,,,,,,,,,,,,,,,,,,,,,,,,,,,,,,,,,,,,,,,,,,1,,,,,,,,,,,,,,,,,,,,,,,,,,,,,,,,,,,,,,,,,,,,,,,,,,,,,,,,,,,,,,,,,,,,,,,,,,1,2023-11-27_12h20.26.771,watkins1,2023.2.3,99.75589734181096,19,2023-11-27 12h20.33.181279 +0000,
(54 : 6) - 10 = 0 ,Incorrect,button_incorrect,,,,,,,,,,,,,0,0,0,5,,,,,,,,,376.82325559994206,,,,,,,,375.79212589981034,376.7959907997865,,,,,['button_incorrect'],[4.511462500086054],,,,,,,,,,,,,,,,,,,,,,,,,,distractorTask,1,,,,,,,,,,,,,,,,,,,,,,,,,,376.8121446999721,376.82325559994206,381.3285140998196,[-0.33796296296296297],[-0.4009259259259259],[1],[0],[0],[4.511462500086054],['button_incorrect'],381.32917939987965,382.3321002998855,,,,,,,,,,,,,,,,,,,,,,,,,,,,,,,,,,,,,1,2023-11-27_12h20.26.771,watkins1,2023.2.3,99.75589734181096,19,2023-11-27 12h20.33.181279 +0000,
(7 x 6) + 9 = 48 ,Incorrect,button_incorrect,,,,,,,,,,,,,0,1,1,9,,,,,,,,,382.34208129998296,,,,,,,,,,,,,,['button_incorrect'],[4.72651519998908],,,,,,,,,,,,,,,,,,,,,,,,,,distractorTask,1,,,,,,,,,,,,,,,,,,,,,,,,,,382.3322909998242,382.34208129998296,387.06255959998816,[-0.30092592592592593],[-0.3861111111111111],[1],[0],[0],[4.72651519998908],['button_incorrect'],387.0629493999295,388.0664077999536,,,,,,,,,,,,,,,,,,,,,,,,,,,,,,,,,,,,,1,2023-11-27_12h20.26.771,watkins1,2023.2.3,99.75589734181096,19,2023-11-27 12h20.33.181279 +0000,
(6 x 3) + 10 = 27 ,Incorrect,button_incorrect,,,,,,,,,,,,,0,2,2,8,,,,,,,,,388.0763801999856,,,,,,,,,,,,,,['button_incorrect'],[3.0804809001274407],,,,,,,,,,,,,,,,,,,,,,,,,,distractorTask,1,,,,,,,,,,,,,,,,,,,,,,,,,,388.0666030999273,388.0763801999856,391.14968549995683,[-0.30648148148148147],[-0.38055555555555554],[1],[0],[0],[3.0804809001274407],['button_incorrect'],391.1500689999666,392.15330759994686,,,,,,,,,,,,,,,,,,,,,,,,,,,,,,,,,,,,,1,2023-11-27_12h20.26.771,watkins1,2023.2.3,99.75589734181096,19,2023-11-27 12h20.33.181279 +0000,
(4 : 2) + 4 = 6 ,Correct,button_correct,,,,,,,,,,,,,0,3,3,1,,,,,,,,,392.1632471999619,,,,,,,,,,,,,,['button_correct'],"[3.3123069000430405, 3.7339496999047697]",,,,,,,,,,,,,,,,,,,,,,,,,,distractorTask,1,,,,,,,,,,,,,,,,,,,,,,,,,,392.1534962998703,392.1632471999619,395.88924889988266,"[0.43148148148148147, 0.4111111111111111]","[-0.38981481481481484, -0.38981481481481484]","[1, 1]","[0, 0]","[0, 0]","[3.3123069000430405, 3.7339496999047697]",['button_correct'],395.88965639984235,396.8929814998992,,,,,,,,,,,,,,,,,,,,,,,,,,,,,,,,,,,,,1,2023-11-27_12h20.26.771,watkins1,2023.2.3,99.75589734181096,19,2023-11-27 12h20.33.181279 +0000,
(40 : 5) + 8 = 15 ,Incorrect,button_incorrect,,,,,,,,,,,,,0,4,4,7,,,,,,,,,396.90296559990384,,,,,,,,,,,,,,['button_incorrect'],[2.3383440000470728],,,,,,,,,,,,,,,,,,,,,,,,,,distractorTask,1,,,,,,,,,,,,,,,,,,,,,,,,,,396.8931697998196,396.90296559990384,399.2332253998611,[-0.3138888888888889],[-0.38333333333333336],[1],[0],[0],[2.3383440000470728],['button_incorrect'],399.2336082998663,400.23699829983525,,,,,,,,,,,,,,,,,,,,,,,,,,,,,,,,,,,,,1,2023-11-27_12h20.26.771,watkins1,2023.2.3,99.75589734181096,19,2023-11-27 12h20.33.181279 +0000,
(80 : 10) + 9 = 17 ,Correct,button_correct,,,,,,,,,,,,,0,5,5,3,,,,,,,,,400.2469289000146,,,,,,,,,,,,,,['button_correct'],[3.2619370000902563],,,,,,,,,,,,,,,,,,,,,,,,,,distractorTask,1,,,,,,,,,,,,,,,,,,,,,,,,,,400.2371931998059,400.2469289000146,403.5009837998077,[0.4101851851851852],[-0.3888888888888889],[1],[0],[0],[3.2619370000902563],['button_correct'],403.50136979995295,404.5046264999546,,,,,,,,,,,,,,,,,,,,,,,,,,,,,,,,,,,,,1,2023-11-27_12h20.26.771,watkins1,2023.2.3,99.75589734181096,19,2023-11-27 12h20.33.181279 +0000,
(9 x 5) - 9 = 36 ,Correct,button_correct,,,,,,,,,,,,,0,6,6,4,,,,,,,,,404.5145962999668,,,,,,,,,,,,,,['button_correct'],[3.2721581999212503],,,,,,,,,,,,,,,,,,,,,,,,,,distractorTask,1,,,,,,,,,,,,,,,,,,,,,,,,,,404.50482899998315,404.5145962999668,407.77891559991986,[0.2972222222222222],[-0.37962962962962965],[1],[0],[0],[3.2721581999212503],['button_correct'],407.7793184998445,408.782400299795,,,,,,,,,,,,,,,,,,,,,,,,,,,,,,,,,,,,,1,2023-11-27_12h20.26.771,watkins1,2023.2.3,99.75589734181096,19,2023-11-27 12h20.33.181279 +0000,
(28 : 7) - 3 = 1 ,Correct,button_correct,,,,,,,,,,,,,0,7,7,0,,,,,,,,,408.7923668997828,,,,,,,,,,,,,,['button_correct'],"[2.8004475999623537, 3.3926905998960137]",,,,,,,,,,,,,,,,,,,,,,,,,,distractorTask,1,,,,,,,,,,,,,,,,,,,,,,,,,,408.7826046999544,408.7923668997828,412.1770246999804,"[0.275, 0.2833333333333333]","[-0.3861111111111111, -0.387037037037037]","[1, 1]","[0, 0]","[0, 0]","[2.8004475999623537, 3.3926905998960137]",['button_correct'],412.1774279999081,413.18082289979793,,,,,,,,,,,,,,,,,,,,,,,,,,,,,,,,,,,,,1,2023-11-27_12h20.26.771,watkins1,2023.2.3,99.75589734181096,19,2023-11-27 12h20.33.181279 +0000,
(2 x 5) + 3 = 13 ,Correct,button_correct,,,,,,,,,,,,,0,8,8,2,,,,,,,,,413.19076909986325,,,,,,,,,,,,,,['button_correct'],[2.1373731999192387],,,,,,,,,,,,,,,,,,,,,,,,,,distractorTask,1,,,,,,,,,,,,,,,,,,,,,,,,,,413.1810190998949,413.19076909986325,415.32009059982374,[0.412962962962963],[-0.3888888888888889],[1],[0],[0],[2.1373731999192387],['button_correct'],415.3204732998274,416.3237809999846,,,,,,,,,,,,,,,,,,,,,,,,,,,,,,,,,,,,,1,2023-11-27_12h20.26.771,watkins1,2023.2.3,99.75589734181096,19,2023-11-27 12h20.33.181279 +0000,
(25 : 5) + 5 = 9 ,Incorrect,button_incorrect,,,,,,,,,,,,,0,9,9,6,,,,,,,,,416.3337100998033,,,,,,,,,,,,,,['button_incorrect'],[2.14761280012317],,,,,,,,,,,,,,,,,,,,,,,,,,distractorTask,1,,,,,,,,,,,,,,,,,,,,,,,,,,416.3239752999507,416.3337100998033,418.4733074998949,[-0.39814814814814814],[-0.38981481481481484],[1],[0],[0],[2.14761280012317],['button_incorrect'],418.4736954998225,419.4770897999406,,,,,,,,,,,,,,,,,,,,,,,,,,,,,,,,,,,,,1,2023-11-27_12h20.26.771,watkins1,2023.2.3,99.75589734181096,19,2023-11-27 12h20.33.181279 +0000,
,,,,,,,,,,,,,,,,,,,,,,,,,,,,,,,,,,,,,,,,,,,,,,,,,,,,,,,,,,,,,,,,,,,,,1,,,,,,,,,,,,,,,,,,,,,,,,,,,,,,,,,,,,,,,,,,,,,,,,,,,,,,,,,,,,,,,,,,,,,,,,,,1,2023-11-27_12h20.26.771,watkins1,2023.2.3,99.75589734181096,19,2023-11-27 12h20.33.181279 +0000,
,,,,,,,,,,,,,,,,,,,0,0,0,0,,,,,430.1299791999627,,,,,,,,,,,,,,Eimer,13.357527500018477,,,,,,,,,,,,6.567198599921539,None,,,,,,,,,,,,,freeRecallSub,1,,,,,,,,,,,,,,,,,,,,,,,,,,,,,,,,,,,,,,430.1211412998382,430.1299791999627,430.1299791999627,443.4959092999343,return,13.357527500018477,None,Eimer,[-0.010185185185185186],[0.05555555555555555],[1],[0],[0],[1.8870582000818104],[],,,,,,,,,,,,,,,,,,,,,,1,2023-11-27_12h20.26.771,watkins1,2023.2.3,99.75589734181096,19,2023-11-27 12h20.33.181279 +0000,
,,,,,,,,,,,,,,,,,,,1,0,1,0,,,,,443.5079569998197,,,,,,,,,,,,,,Kerze,3.435806900030002,,,,,,,,,,,,1.116399599937722,None,,,,,,,,,,,,,freeRecallSub,1,,,,,,,,,,,,,,,,,,,,,,,,,,,,,,,,,,,,,,443.49771679984406,443.5079569998197,443.5079569998197,446.9538537999615,return,3.435806900030002,None,Kerze,[],[],[],[],[],[],[],,,,,,,,,,,,,,,,,,,,,,1,2023-11-27_12h20.26.771,watkins1,2023.2.3,99.75589734181096,19,2023-11-27 12h20.33.181279 +0000,
,,,,,,,,,,,,,,,,,,,2,0,2,0,,,,,446.9648443998303,,,,,,,,,,,,,,Katze,3.722711500013247,,,,,,,,,,,,0.853893999941647,None,,,,,,,,,,,,,freeRecallSub,1,,,,,,,,,,,,,,,,,,,,,,,,,,,,,,,,,,,,,,446.9551990998443,446.9648443998303,446.9648443998303,450.69130179984495,return,3.722711500013247,None,Katze,[],[],[],[],[],[],[],,,,,,,,,,,,,,,,,,,,,,1,2023-11-27_12h20.26.771,watkins1,2023.2.3,99.75589734181096,19,2023-11-27 12h20.33.181279 +0000,
,,,,,,,,,,,,,,,,,,,3,0,3,0,,,,,450.70196309988387,,,,,,,,,,,,,,Hund,2.8415494000073522,,,,,,,,,,,,0.47180739999748766,None,,,,,,,,,,,,,freeRecallSub,1,,,,,,,,,,,,,,,,,,,,,,,,,,,,,,,,,,,,,,450.69258249993436,450.70196309988387,450.70196309988387,453.54452879983,return,2.8415494000073522,None,Hund,[],[],[],[],[],[],[],,,,,,,,,,,,,,,,,,,,,,1,2023-11-27_12h20.26.771,watkins1,2023.2.3,99.75589734181096,19,2023-11-27 12h20.33.181279 +0000,
,,,,,,,,,,,,,,,,,,,4,0,4,0,,,,,453.5557200999465,,,,,,,,,,,,,,Jacke,3.675846300087869,,,,,,,,,,,,1.0452650000806898,None,,,,,,,,,,,,,freeRecallSub,1,,,,,,,,,,,,,,,,,,,,,,,,,,,,,,,,,,,,,,453.5458265999332,453.5557200999465,453.5557200999465,457.23209779988974,return,3.675846300087869,None,Jacke,[],[],[],[],[],[],[],,,,,,,,,,,,,,,,,,,,,,1,2023-11-27_12h20.26.771,watkins1,2023.2.3,99.75589734181096,19,2023-11-27 12h20.33.181279 +0000,
,,,,,,,,,,,,,,,,,,,5,0,5,0,,,,,457.24339249986224,,,,,,,,,,,,,,Telefon,4.404167799977586,,,,,,,,,,,,0.6139478001277894,None,,,,,,,,,,,,,freeRecallSub,1,,,,,,,,,,,,,,,,,,,,,,,,,,,,,,,,,,,,,,457.23338409978896,457.24339249986224,457.24339249986224,461.65320029994473,return,4.404167799977586,None,Telefon,[],[],[],[],[],[],[],,,,,,,,,,,,,,,,,,,,,,1,2023-11-27_12h20.26.771,watkins1,2023.2.3,99.75589734181096,19,2023-11-27 12h20.33.181279 +0000,
,,,,,,,,,,,,,,,,,,,6,0,6,0,,,,,461.66481139999814,,,,,,,,,,,,,,Brille,9.030710499966517,,,,,,,,,,,,5.795467199990526,None,,,,,,,,,,,,,freeRecallSub,1,,,,,,,,,,,,,,,,,,,,,,,,,,,,,,,,,,,,,,461.6545154999476,461.66481139999814,461.66481139999814,470.7033104998991,return,9.030710499966517,None,Brille,[],[],[],[],[],[],[],,,,,,,,,,,,,,,,,,,,,,1,2023-11-27_12h20.26.771,watkins1,2023.2.3,99.75589734181096,19,2023-11-27 12h20.33.181279 +0000,
,,,,,,,,,,,,,,,,,,,7,0,7,0,,,,,470.7147994998377,,,,,,,,,,,,,,Rucksack,10.26874030008912,,,,,,,,,,,,1.1861660000868142,5.895664300071076,,,,,,,,,,,,,freeRecallSub,1,,,,,,,,,,,,,,,,,,,,,,,,,,,,,,,,,,,,,,470.70458539994434,470.7147994998377,470.7147994998377,480.98845099983737,return,10.26874030008912,None,Rucksack,[],[],[],[],[],[],[],,,,,,,,,,,,,,,,,,,,,,1,2023-11-27_12h20.26.771,watkins1,2023.2.3,99.75589734181096,19,2023-11-27 12h20.33.181279 +0000,
,,,,,,,,,,,,,,,,,,,8,0,8,0,,,,,481.00046349992044,,,,,,,,,,,,,,Hut,2.0550683001056314,,,,,,,,,,,,0.6451117999386042,None,,,,,,,,,,,,,freeRecallSub,1,,,,,,,,,,,,,,,,,,,,,,,,,,,,,,,,,,,,,,480.98973799985833,481.00046349992044,481.00046349992044,483.0610030000098,return,2.0550683001056314,None,Hut,[],[],[],[],[],[],[],,,,,,,,,,,,,,,,,,,,,,1,2023-11-27_12h20.26.771,watkins1,2023.2.3,99.75589734181096,19,2023-11-27 12h20.33.181279 +0000,
,,,,,,,,,,,,,,,,,,,9,0,9,0,,,,,483.07260229997337,,,,,,,,,,,,,,Blume,103.47883240017109,,,,,,,,,,,,99.85162420012057,None,,,,,,,,,,,,,freeRecallSub,1,,,,,,,,,,,,,,,,,,,,,,,,,,,,,,,,,,,,,,483.06228379998356,483.07260229997337,483.07260229997337,586.559487399878,return,103.47883240017109,None,Blume,[],[],[],[],[],[],[],,,,,,,,,,,,,,,,,,,,,,1,2023-11-27_12h20.26.771,watkins1,2023.2.3,99.75589734181096,19,2023-11-27 12h20.33.181279 +0000,
,,,,,,,,,,,,,,,,,,,10,0,10,0,,,,,586.5713950998615,,,,,,,,,,,,,,Vase,21.268028000136837,,,,,,,,,,,,19.614623700035736,None,,,,,,,,,,,,,freeRecallSub,1,,,,,,,,,,,,,,,,,,,,,,,,,,,,,,,,,,,,,,586.560972499894,586.5713950998615,586.5713950998615,607.8427954998333,return,21.268028000136837,None,Vase,[],[],[],[],[],[],[],,,,,,,,,,,,,,,,,,,,,,1,2023-11-27_12h20.26.771,watkins1,2023.2.3,99.75589734181096,19,2023-11-27 12h20.33.181279 +0000,
,,,,,,,,,,,,,,,,,,,11,0,11,0,,,,,607.8551303998102,,,,,,,,,,,,,,Löffel,16.336240000091493,,,,,,,,,,,,13.7912556999363,None,,,,,,,,,,,,,freeRecallSub,1,,,,,,,,,,,,,,,,,,,,,,,,,,,,,,,,,,,,,,607.8440885997843,607.8551303998102,607.8551303998102,624.1961072999984,return,16.336240000091493,None,Löffel,[],[],[],[],[],[],[],,,,,,,,,,,,,,,,,,,,,,1,2023-11-27_12h20.26.771,watkins1,2023.2.3,99.75589734181096,19,2023-11-27 12h20.33.181279 +0000,
,,,,,,,,,,,,,,,,,,,12,0,12,0,,,,,624.2089731998276,,,,,,,,,,,,,,Socke,34.83824030007236,,,,,,,,,,,,32.44998660008423,None,,,,,,,,,,,,,freeRecallSub,1,,,,,,,,,,,,,,,,,,,,,,,,,,,,,,,,,,,,,,624.197396799922,624.2089731998276,624.2089731998276,659.0477304998785,return,34.83824030007236,None,Socke,[],[],[],[],[],[],[],,,,,,,,,,,,,,,,,,,,,,1,2023-11-27_12h20.26.771,watkins1,2023.2.3,99.75589734181096,19,2023-11-27 12h20.33.181279 +0000,
,,,,,,,,,,,,,,,,,,,13,0,13,0,,,,,659.0607305997983,,,,,,,,,,,,,,Tasche,5.42650799988769,,,,,,,,,,,,2.022719700122252,None,,,,,,,,,,,,,freeRecallSub,1,,,,,,,,,,,,,,,,,,,,,,,,,,,,,,,,,,,,,,659.0490448998753,659.0607305997983,659.0607305997983,664.4961154998746,return,5.42650799988769,None,Tasche,[],[],[],[],[],[],[],,,,,,,,,,,,,,,,,,,,,,1,2023-11-27_12h20.26.771,watkins1,2023.2.3,99.75589734181096,19,2023-11-27 12h20.33.181279 +0000,
,,,,,,,,,,,,,,,,,,,14,0,14,0,,,,,664.509211299941,,,,,,,,,,,,,,Buch,6.250135499984026,,,,,,,,,,,,3.9507825998589396,None,,,,,,,,,,,,,freeRecallSub,1,,,,,,,,,,,,,,,,,,,,,,,,,,,,,,,,,,,,,,664.497392399935,664.509211299941,664.509211299941,670.7676910997834,return,6.250135499984026,None,Buch,[],[],[],[],[],[],[],,,,,,,,,,,,,,,,,,,,,,1,2023-11-27_12h20.26.771,watkins1,2023.2.3,99.75589734181096,19,2023-11-27 12h20.33.181279 +0000,
,,,,,,,,,,,,,,,,,,,15,0,15,0,,,,,670.7806700998917,,,,,,,,,,,,,,Kette,9.28266609995626,,,,,,,,,,,,7.777332700090483,None,,,,,,,,,,,,,freeRecallSub,1,,,,,,,,,,,,,,,,,,,,,,,,,,,,,,,,,,,,,,670.7689684999641,670.7806700998917,670.7806700998917,680.0730997999199,return,9.28266609995626,None,Kette,[],[],[],[],[],[],[],,,,,,,,,,,,,,,,,,,,,,1,2023-11-27_12h20.26.771,watkins1,2023.2.3,99.75589734181096,19,2023-11-27 12h20.33.181279 +0000,
,,,,,,,,,,,,,,,,,,,16,0,16,0,,,,,680.0861014998518,,,,,,,,,,,,,,Uhr,9.113235499942675,,,,,,,,,,,,0.5865235000383109,6.9248500999528915,,,,,,,,,,,,,freeRecallSub,1,,,,,,,,,,,,,,,,,,,,,,,,,,,,,,,,,,,,,,680.0743870998267,680.0861014998518,680.0861014998518,689.2083754998166,return,9.113235499942675,None,Uhr,[],[],[],[],[],[],[],,,,,,,,,,,,,,,,,,,,,,1,2023-11-27_12h20.26.771,watkins1,2023.2.3,99.75589734181096,19,2023-11-27 12h20.33.181279 +0000,
,,,,,,,,,,,,,,,,,,,17,0,17,0,,,,,689.2221543998457,,,,,,,,,,,,,,Stift,14.953109900001436,,,,,,,,,,,,11.61471110000275,None,,,,,,,,,,,,,freeRecallSub,1,,,,,,,,,,,,,,,,,,,,,,,,,,,,,,,,,,,,,,689.2096498999745,689.2221543998457,689.2221543998457,704.1783282998949,return,14.953109900001436,None,Stift,[],[],[],[],[],[],[],,,,,,,,,,,,,,,,,,,,,,1,2023-11-27_12h20.26.771,watkins1,2023.2.3,99.75589734181096,19,2023-11-27 12h20.33.181279 +0000,
,,,,,,,,,,,,,,,,,,,18,0,18,0,,,,,704.1921431999654,,,,,,,,,,,,,,Bürste,46.82309259986505,,,,,,,,,,,,44.15859970008023,None,,,,,,,,,,,,,freeRecallSub,1,,,,,,,,,,,,,,,,,,,,,,,,,,,,,,,,,,,,,,704.1796477998141,704.1921431999654,704.1921431999654,751.0194866999518,return,46.82309259986505,None,Bürste,[],[],[],[],[],[],[],,,,,,,,,,,,,,,,,,,,,,1,2023-11-27_12h20.26.771,watkins1,2023.2.3,99.75589734181096,19,2023-11-27 12h20.33.181279 +0000,
,,,,,,,,,,,,,,,,,,,19,0,19,0,,,,,751.0338047998957,,,,,,,,,,,,,,Flasche,25.045449000084773,,,,,,,,,,,,22.470430900109932,None,,,,,,,,,,,,,freeRecallSub,1,,,,,,,,,,,,,,,,,,,,,,,,,,,,,,,,,,,,,,751.0207868998405,751.0338047998957,751.0338047998957,776.0819868999533,return,25.045449000084773,None,Flasche,[],[],[],[],[],[],[],,,,,,,,,,,,,,,,,,,,,,1,2023-11-27_12h20.26.771,watkins1,2023.2.3,99.75589734181096,19,2023-11-27 12h20.33.181279 +0000,
,,,,,,,,,,,,,,,,,,,20,0,20,0,,,,,776.0964017999358,,,,,,,,,,,,,,,[],,,,,,,,,,,,None,None,,,,,,,,,,,,,freeRecallSub,1,,,,,,,,,,,,,,,,,,,,,,,,,,,,,,,,,,,,,,776.0832775000017,776.0964017999358,776.0964017999358,926.1048604999669,None,,,,[0.42777777777777776],[-0.40370370370370373],[1],[0],[0],[150.014471600065],"['button_continue', 'continue_text']",,,,,,,,,,,,,,,,,,,,,,1,2023-11-27_12h20.26.771,watkins1,2023.2.3,99.75589734181096,19,2023-11-27 12h20.33.181279 +0000,
,,,,,,,,,,,,,,,,,,,,,,,,,,,,,,,,,,,,,,,,,,,,,,,,,,,,,,,,,,,,,,,,,,,,,1,,,,,,,,,,,,,,,,,,,,,,,,,,,,,,,,,,,,,,,,,,,,,,,,,,,,,,,,,,,,,,,,,,,,,,,,,,1,2023-11-27_12h20.26.771,watkins1,2023.2.3,99.75589734181096,19,2023-11-27 12h20.33.181279 +0000,
,,,,,,,,,,,,,,,,,,,,,,,0,0,0,0,939.2443804999348,,,,,,,,,,945.454332199879,945.9527162997983,,,,6.20257050008513,,,,,,,,,,,,None,None,,,,,,,,,,Vase,,,cuedRecallAdj,1,,,,,,,,,,,,,,,,,,,,,,,,,,,,,,,,,,,,,,,,,,,,,,,,,,,,,939.2354243998416,939.2443804999348,0,939.2443804999348,945.451082599815,breit,return,6.20257050008513,None,945.4514958998188,945.4606304999907,945.4606304999907,945.4541809998918,,None,,,,,,,1,2023-11-27_12h20.26.771,watkins1,2023.2.3,99.75589734181096,19,2023-11-27 12h20.33.181279 +0000,
,,,,,,,,,,,,,,,,,,,,,,,1,0,1,0,945.9627716999967,,,,,,,,,,970.07740249997,970.5760431999806,,,,24.108266399940476,,,,,,,,,,,,None,None,,,,,,,,,,Tasse,,,cuedRecallAdj,1,,,,,,,,,,,,,,,,,,,,,,,,,,,,,,,,,,,,,,,,,,,,,,,,,,,,,945.9529656998347,945.9627716999967,0,945.9627716999967,970.0742224999703,schwer,return,24.108266399940476,None,970.0744907998014,970.0838841998484,970.0838841998484,970.0773004998919,,None,,,,,,,1,2023-11-27_12h20.26.771,watkins1,2023.2.3,99.75589734181096,19,2023-11-27 12h20.33.181279 +0000,
,,,,,,,,,,,,,,,,,,,,,,,2,0,2,0,970.585995899979,,,,,,,,,,985.9602883998305,986.4514977999497,,,winzig,8.301034600008279,,,,,,,,,,,,4.789016599999741,None,,,,,,,,,,Würfel,,,cuedRecallAdj,1,,,,,,,,,,,,,,,,,,,,,,,,,,,,,,,,,,,,,,,,,,,,,,,,,,,,,970.5762843999546,970.585995899979,0,970.585995899979,978.8906485999469,praktisch,return,8.301034600008279,None,978.8909200998023,978.9001796999946,978.9001796999946,985.9599346998148,winzig,return,7.058873299974948,None,,,,,1,2023-11-27_12h20.26.771,watkins1,2023.2.3,99.75589734181096,19,2023-11-27 12h20.33.181279 +0000,
,,,,,,,,,,,,,,,,,,,,,,,3,0,3,0,986.4614177998155,,,,,,,,,,998.6323201998603,999.1238557999022,,,dreckig,8.833569100126624,,,,,,,,,,,,1.1339730999898165,None,,,,,,,,,,Rucksack,,,cuedRecallAdj,1,,,,,,,,,,,,,,,,,,,,,,,,,,,,,,,,,,,,,,,,,,,,,,,,,,,,,986.4517433999572,986.4614177998155,0,986.4614177998155,995.2984103998169,nachhaltig,return,8.833569100126624,None,995.298678399995,995.3079246999696,995.3079246999696,998.6320485998876,dreckig,return,3.3151032000314444,None,,,,,1,2023-11-27_12h20.26.771,watkins1,2023.2.3,99.75589734181096,19,2023-11-27 12h20.33.181279 +0000,
,,,,,,,,,,,,,,,,,,,,,,,4,0,4,0,999.1338008998428,,,,,,,,,,1003.6256294997875,1004.1244208000135,,,,4.481223899871111,,,,,,,,,,,,None,None,,,,,,,,,,Hammer,,,cuedRecallAdj,1,,,,,,,,,,,,,,,,,,,,,,,,,,,,,,,,,,,,,,,,,,,,,,,,,,,,,999.1241057999432,999.1338008998428,0,999.1338008998428,1003.6224945997819,kalt,return,4.481223899871111,None,1003.6227584998123,1003.6322997999378,1003.6322997999378,1003.6255273998249,,None,,,,,,,1,2023-11-27_12h20.26.771,watkins1,2023.2.3,99.75589734181096,19,2023-11-27 12h20.33.181279 +0000,
,,,,,,,,,,,,,,,,,,,,,,,5,0,5,0,1004.1344808998983,,,,,,,,,,1009.2491846999619,1009.7477180999704,,,,5.104460399830714,,,,,,,,,,,,None,None,,,,,,,,,,Schlüssel,,,cuedRecallAdj,1,,,,,,,,,,,,,,,,,,,,,,,,,,,,,,,,,,,,,,,,,,,,,,,,,,,,,1004.1246698999312,1004.1344808998983,0,1004.1344808998983,1009.2461123999674,winzig,return,5.104460399830714,None,1009.2463810998015,1009.2556369998492,1009.2556369998492,1009.2490822998807,,None,,,,,,,1,2023-11-27_12h20.26.771,watkins1,2023.2.3,99.75589734181096,19,2023-11-27 12h20.33.181279 +0000,
,,,,,,,,,,,,,,,,,,,,,,,6,0,6,0,1009.757665099809,,,,,,,,,,1021.1452524999622,1021.6367706998717,,,groß,4.609507900197059,,,,,,,,,,,,5.3910662000998855,None,,,,,,,,,,Kiste,,,cuedRecallAdj,1,,,,,,,,,,,,,,,,,,,,,,,,,,,,,,,,,,,,,,,,,,,,,,,,,,,,,1009.7479665998835,1009.757665099809,0,1009.757665099809,1014.3675849998835,schön,return,4.609507900197059,None,1014.3678714998532,1014.3768681997899,1014.3768681997899,1021.1449808999896,groß,return,6.75807059998624,None,,,,,1,2023-11-27_12h20.26.771,watkins1,2023.2.3,99.75589734181096,19,2023-11-27 12h20.33.181279 +0000,
,,,,,,,,,,,,,,,,,,,,,,,7,0,7,0,1021.6467223998625,,,,,,,,,,1055.6013268998358,1056.099693399854,,,,33.944144499953836,,,,,,,,,,,,None,None,,,,,,,,,,Fahrrad,,,cuedRecallAdj,1,,,,,,,,,,,,,,,,,,,,,,,,,,,,,,,,,,,,,,,,,,,,,,,,,,,,,1021.6370164998807,1021.6467223998625,0,1021.6467223998625,1055.5978723999579,neu,return,33.944144499953836,None,1055.5981453999411,1055.6075831998605,1055.6075831998605,1055.6012236999813,,None,,,,,,,1,2023-11-27_12h20.26.771,watkins1,2023.2.3,99.75589734181096,19,2023-11-27 12h20.33.181279 +0000,
,,,,,,,,,,,,,,,,,,,,,,,8,0,8,0,1056.1096339998767,,,,,,,,,,1080.5520434000064,1081.0432536997832,,,schön,7.545321600046009,,,,,,,,,,,,3.2025448998901993,13.465242499951273,,,,,,,,,,Uhr,,,cuedRecallAdj,1,,,,,,,,,,,,,,,,,,,,,,,,,,,,,,,,,,,,,,,,,,,,,,,,,,,,,1056.0999453999102,1056.1096339998767,0,1056.1096339998767,1063.6615224999841,glatt,return,7.545321600046009,None,1063.6618088998366,1063.671027699951,1063.671027699951,1080.5517551999073,schön,return,16.879941400140524,None,,,,,1,2023-11-27_12h20.26.771,watkins1,2023.2.3,99.75589734181096,19,2023-11-27 12h20.33.181279 +0000,
,,,,,,,,,,,,,,,,,,,,,,,9,0,9,0,1081.0532004998531,,,,,,,,,,1085.9071206999943,1086.4054099998903,,,,4.841691200155765,,,,,,,,,,,,None,None,,,,,,,,,,Buch,,,cuedRecallAdj,1,,,,,,,,,,,,,,,,,,,,,,,,,,,,,,,,,,,,,,,,,,,,,,,,,,,,,1081.043501299806,1081.0532004998531,0,1081.0532004998531,1085.9037299999036,glänzend,return,4.841691200155765,None,1085.903997699963,1085.9135562998708,1085.9135562998708,1085.9070172999054,,None,,,,,,,1,2023-11-27_12h20.26.771,watkins1,2023.2.3,99.75589734181096,19,2023-11-27 12h20.33.181279 +0000,
,,,,,,,,,,,,,,,,,,,,,,,10,0,10,0,1086.4153290998656,,,,,,,,,,1094.4124337998219,1094.9110328999814,,,,7.9915237000677735,,,,,,,,,,,,None,None,,,,,,,,,,Kette,,,cuedRecallAdj,1,,,,,,,,,,,,,,,,,,,,,,,,,,,,,,,,,,,,,,,,,,,,,,,,,,,,,1086.4056547998916,1086.4153290998656,0,1086.4153290998656,1094.409441899974,grob,return,7.9915237000677735,None,1094.409710199805,1094.4189980998635,1094.4189980998635,1094.4123320998624,,None,,,,,,,1,2023-11-27_12h20.26.771,watkins1,2023.2.3,99.75589734181096,19,2023-11-27 12h20.33.181279 +0000,
,,,,,,,,,,,,,,,,,,,,,,,11,0,11,0,1094.9210908999667,,,,,,,,,,1111.4627079998609,1111.9615491000004,,,,16.533712500007823,,,,,,,,,,,,None,None,,,,,,,,,,Schere,,,cuedRecallAdj,1,,,,,,,,,,,,,,,,,,,,,,,,,,,,,,,,,,,,,,,,,,,,,,,,,,,,,1094.9112772999797,1094.9210908999667,0,1094.9210908999667,1111.4599184999242,groß,return,16.533712500007823,None,1111.4601818998344,1111.4694639998488,1111.4694639998488,1111.4626074999105,,None,,,,,,,1,2023-11-27_12h20.26.771,watkins1,2023.2.3,99.75589734181096,19,2023-11-27 12h20.33.181279 +0000,
,,,,,,,,,,,,,,,,,,,,,,,12,0,12,0,1111.9714477998205,,,,,,,,,,1115.499764499953,1115.998587799957,,,,3.5154337000567466,,,,,,,,,,,,None,None,,,,,,,,,,Trommel,,,cuedRecallAdj,1,,,,,,,,,,,,,,,,,,,,,,,,,,,,,,,,,,,,,,,,,,,,,,,,,,,,,1111.9617972997949,1111.9714477998205,0,1111.9714477998205,1115.4967496998142,flach,return,3.5154337000567466,None,1115.4970169998705,1115.5065621999092,1115.5065621999092,1115.4996615999844,,None,,,,,,,1,2023-11-27_12h20.26.771,watkins1,2023.2.3,99.75589734181096,19,2023-11-27 12h20.33.181279 +0000,
,,,,,,,,,,,,,,,,,,,,,,,13,0,13,0,1116.0086399998982,,,,,,,,,,1122.215087399818,1122.7065620999783,,,sauber,4.206288299988955,,,,,,,,,,,,0.7825678000226617,None,,,,,,,,,,Jacke,,,cuedRecallAdj,1,,,,,,,,,,,,,,,,,,,,,,,,,,,,,,,,,,,,,,,,,,,,,,,,,,,,,1115.9988379999995,1116.0086399998982,0,1116.0086399998982,1120.2167928998824,zart,return,4.206288299988955,None,1120.2170585999265,1120.2264365998562,1120.2264365998562,1122.2148153998423,sauber,return,1.980421100044623,None,,,,,1,2023-11-27_12h20.26.771,watkins1,2023.2.3,99.75589734181096,19,2023-11-27 12h20.33.181279 +0000,
,,,,,,,,,,,,,,,,,,,,,,,14,0,14,0,1122.7165591998491,,,,,,,,,,1131.1223459998146,1131.6136685998645,,,glänzend,4.186327800154686,,,,,,,,,,,,1.2243505001533777,None,,,,,,,,,,Brille,,,cuedRecallAdj,1,,,,,,,,,,,,,,,,,,,,,,,,,,,,,,,,,,,,,,,,,,,,,,,,,,,,,1122.7068101998884,1122.7165591998491,0,1122.7165591998491,1126.904698499944,lang,return,4.186327800154686,None,1126.9049651999958,1126.9142539999448,1126.9142539999448,1131.1220576998312,glänzend,return,4.20464999997057,None,,,,,1,2023-11-27_12h20.26.771,watkins1,2023.2.3,99.75589734181096,19,2023-11-27 12h20.33.181279 +0000,
,,,,,,,,,,,,,,,,,,,,,,,15,0,15,0,1131.6237257998437,,,,,,,,,,1137.1402415998746,1137.6384949998464,,,,5.503052900079638,,,,,,,,,,,,None,None,,,,,,,,,,Kamera,,,cuedRecallAdj,1,,,,,,,,,,,,,,,,,,,,,,,,,,,,,,,,,,,,,,,,,,,,,,,,,,,,,1131.6139076999389,1131.6237257998437,0,1131.6237257998437,1137.1366988997906,schmutzig,return,5.503052900079638,None,1137.1369651998393,1137.1465359998401,1137.1465359998401,1137.140137200011,,None,,,,,,,1,2023-11-27_12h20.26.771,watkins1,2023.2.3,99.75589734181096,19,2023-11-27 12h20.33.181279 +0000,
,,,,,,,,,,,,,,,,,,,,,,,16,0,16,0,1137.648386299843,,,,,,,,,,1146.8173186997883,1147.30862409994,,,breit,4.3104222000110894,,,,,,,,,,,,3.7047327999025583,None,,,,,,,,,,Telefon,,,cuedRecallAdj,1,,,,,,,,,,,,,,,,,,,,,,,,,,,,,,,,,,,,,,,,,,,,,,,,,,,,,1137.6387412999757,1137.648386299843,0,1137.648386299843,1141.966838199878,krumm,return,4.3104222000110894,None,1141.9671039998066,1141.9765140998643,1141.9765140998643,1146.817029999802,breit,return,4.838283600052819,None,,,,,1,2023-11-27_12h20.26.771,watkins1,2023.2.3,99.75589734181096,19,2023-11-27 12h20.33.181279 +0000,
,,,,,,,,,,,,,,,,,,,,,,,17,0,17,0,1147.3185790998396,,,,,,,,,,1153.2335574999452,1153.72498729988,,,gut,4.376255099894479,,,,,,,,,,,,0.7624284999910742,None,,,,,,,,,,Hut,,,cuedRecallAdj,1,,,,,,,,,,,,,,,,,,,,,,,,,,,,,,,,,,,,,,,,,,,,,,,,,,,,,1147.3088704999536,1147.3185790998396,0,1147.3185790998396,1151.6970495998394,gestreift,return,4.376255099894479,None,1151.6973206999246,1151.706617299933,1151.706617299933,1153.2332694998477,gut,return,1.5242570000700653,None,,,,,1,2023-11-27_12h20.26.771,watkins1,2023.2.3,99.75589734181096,19,2023-11-27 12h20.33.181279 +0000,
,,,,,,,,,,,,,,,,,,,,,,,18,0,18,0,1153.7348984999117,,,,,,,,,,1160.466570599936,1160.9654600999784,,,,6.719946699915454,,,,,,,,,,,,None,None,,,,,,,,,,Ring,,,cuedRecallAdj,1,,,,,,,,,,,,,,,,,,,,,,,,,,,,,,,,,,,,,,,,,,,,,,,,,,,,,1153.7252314998768,1153.7348984999117,0,1153.7348984999117,1160.4635863997974,alt,return,6.719946699915454,None,1160.463851599954,1160.4733039999846,1160.4733039999846,1160.4664662999567,,None,,,,,,,1,2023-11-27_12h20.26.771,watkins1,2023.2.3,99.75589734181096,19,2023-11-27 12h20.33.181279 +0000,
,,,,,,,,,,,,,,,,,,,,,,,19,0,19,0,1160.9754042997956,,,,,,,,,,1171.1083789998665,1171.5997572999913,,,praktisch,7.01542289997451,,,,,,,,,,,,1.1542613001074642,None,,,,,,,,,,Tasche,,,cuedRecallAdj,1,,,,,,,,,,,,,,,,,,,,,,,,,,,,,,,,,,,,,,,,,,,,,,,,,,,,,1160.965707299998,1160.9754042997956,0,1160.9754042997956,1167.9949463999365,schön,return,7.01542289997451,None,1167.9952147998847,1168.0045096999966,1168.0045096999966,1171.1080918998923,praktisch,return,3.0982219001743942,None,,,,,1,2023-11-27_12h20.26.771,watkins1,2023.2.3,99.75589734181096,19,2023-11-27 12h20.33.181279 +0000,
,,,,,,,,,,,,,,,,,,,,,,,20,0,20,0,1171.6097099999897,,,,,,,,,,1178.8310052999295,1179.3226812998764,,,elegant,3.093100299825892,,,,,,,,,,,,2.5804469999857247,None,,,,,,,,,,Geige,,,cuedRecallAdj,1,,,,,,,,,,,,,,,,,,,,,,,,,,,,,,,,,,,,,,,,,,,,,,,,,,,,,1171.5999969998375,1171.6097099999897,0,1171.6097099999897,1174.7032767999917,schmal,return,3.093100299825892,None,1174.7035623998381,1174.7128221997991,1174.7128221997991,1178.830741299782,elegant,return,4.109977300046012,None,,,,,1,2023-11-27_12h20.26.771,watkins1,2023.2.3,99.75589734181096,19,2023-11-27 12h20.33.181279 +0000,
,,,,,,,,,,,,,,,,,,,,,,,21,0,21,0,1179.3326365998946,,,,,,,,,,1182.1984060998075,1182.696601699805,,,,2.8581601998303086,,,,,,,,,,,,None,None,,,,,,,,,,Flasche,,,cuedRecallAdj,1,,,,,,,,,,,,,,,,,,,,,,,,,,,,,,,,,,,,,,,,,,,,,,,,,,,,,1179.3229292999022,1179.3326365998946,0,1179.3326365998946,1182.1949264998548,teuer,return,2.8581601998303086,None,1182.1951955999248,1182.204476899933,1182.204476899933,1182.1983027998358,,None,,,,,,,1,2023-11-27_12h20.26.771,watkins1,2023.2.3,99.75589734181096,19,2023-11-27 12h20.33.181279 +0000,
,,,,,,,,,,,,,,,,,,,,,,,22,0,22,0,1182.70655049989,,,,,,,,,,1196.4253697998356,1196.9168203999288,,,blass,3.748181900009513,,,,,,,,,,,,6.23568780021742,None,,,,,,,,,,Bürste,,,cuedRecallAdj,1,,,,,,,,,,,,,,,,,,,,,,,,,,,,,,,,,,,,,,,,,,,,,,,,,,,,,1182.6968454997987,1182.70655049989,0,1182.70655049989,1186.4632319998927,klobig,return,3.748181900009513,None,1186.4634973998182,1186.4728995999321,1186.4728995999321,1196.425101300003,blass,return,9.949883399996907,None,,,,,1,2023-11-27_12h20.26.771,watkins1,2023.2.3,99.75589734181096,19,2023-11-27 12h20.33.181279 +0000,
,,,,,,,,,,,,,,,,,,,,,,,23,0,23,0,1196.9267139998265,,,,,,,,,,1201.7379983998835,1202.2294889998157,,,nass,3.192049500066787,,,,,,,,,,,,0.6822337000630796,None,,,,,,,,,,Eimer,,,cuedRecallAdj,1,,,,,,,,,,,,,,,,,,,,,,,,,,,,,,,,,,,,,,,,,,,,,,,,,,,,,1196.9170695999637,1196.9267139998265,0,1196.9267139998265,1200.1208741997834,bunt,return,3.192049500066787,None,1200.1211416998412,1200.1304010997992,1200.1304010997992,1201.7377260997891,nass,return,1.6043724999763072,None,,,,,1,2023-11-27_12h20.26.771,watkins1,2023.2.3,99.75589734181096,19,2023-11-27 12h20.33.181279 +0000,
,,,,,,,,,,,,,,,,,,,,,,,24,0,24,0,1202.2394371998962,,,,,,,,,,1216.4294304999057,1216.9208466999698,,,blass,9.175355799961835,,,,,,,,,,,,4.086664800066501,None,,,,,,,,,,Lampe,,,cuedRecallAdj,1,,,,,,,,,,,,,,,,,,,,,,,,,,,,,,,,,,,,,,,,,,,,,,,,,,,,,1202.2297499999404,1202.2394371998962,0,1202.2394371998962,1211.4178529998753,hell,return,9.175355799961835,None,1211.418143699877,1211.4274887999054,1211.4274887999054,1216.4291620999575,blass,return,4.995263499906287,None,,,,,1,2023-11-27_12h20.26.771,watkins1,2023.2.3,99.75589734181096,19,2023-11-27 12h20.33.181279 +0000,
,,,,,,,,,,,,,,,,,,,,,,,25,0,25,0,1216.9308038000017,,,,,,,,,,1221.1018618999515,1221.6001733997837,,,,4.163953399984166,,,,,,,,,,,,None,None,,,,,,,,,,Socke,,,cuedRecallAdj,1,,,,,,,,,,,,,,,,,,,,,,,,,,,,,,,,,,,,,,,,,,,,,,,,,,,,,1216.9210879998282,1216.9308038000017,0,1216.9308038000017,1221.0983539998997,dunkel,return,4.163953399984166,None,1221.0986397999804,1221.1080064999405,1221.1080064999405,1221.1017595999874,,None,,,,,,,1,2023-11-27_12h20.26.771,watkins1,2023.2.3,99.75589734181096,19,2023-11-27 12h20.33.181279 +0000,
,,,,,,,,,,,,,,,,,,,,,,,26,0,26,0,1221.6100862999447,,,,,,,,,,1230.6078289998695,1231.0993569998536,,,gepunktet,5.10862599988468,,,,,,,,,,,,1.0837773000821471,None,,,,,,,,,,Löffel,,,cuedRecallAdj,1,,,,,,,,,,,,,,,,,,,,,,,,,,,,,,,,,,,,,,,,,,,,,,,,,,,,,1221.6004235998262,1221.6100862999447,0,1221.6100862999447,1226.7217612999957,durchsichtig,return,5.10862599988468,None,1226.7220303998329,1226.731319699902,1226.731319699902,1230.6075609999243,gepunktet,return,3.8674492998979986,None,,,,,1,2023-11-27_12h20.26.771,watkins1,2023.2.3,99.75589734181096,19,2023-11-27 12h20.33.181279 +0000,
,,,,,,,,,,,,,,,,,,,,,,,27,0,27,0,1231.1093156000134,,,,,,,,,,1234.246450799983,1234.7446768998634,,,,3.1294659001287073,,,,,,,,,,,,None,None,,,,,,,,,,Stift,,,cuedRecallAdj,1,,,,,,,,,,,,,,,,,,,,,,,,,,,,,,,,,,,,,,,,,,,,,,,,,,,,,1231.0996026999783,1231.1093156000134,0,1231.1093156000134,1234.2429544997867,elegant,return,3.1294659001287073,None,1234.243220299948,1234.2525610998273,1234.2525610998273,1234.2463479000144,,None,,,,,,,1,2023-11-27_12h20.26.771,watkins1,2023.2.3,99.75589734181096,19,2023-11-27 12h20.33.181279 +0000,
,,,,,,,,,,,,,,,,,,,,,,,28,0,28,0,1234.7546163999941,,,,,,,,,,1249.2854820999783,1249.7768802999053,,,schön,8.364054299890995,,,,,,,,,,,,2.228647599928081,None,,,,,,,,,,Blume,,,cuedRecallAdj,1,,,,,,,,,,,,,,,,,,,,,,,,,,,,,,,,,,,,,,,,,,,,,,,,,,,,,1234.7449184998404,1234.7546163999941,0,1234.7546163999941,1243.1197063999716,groß,return,8.364054299890995,None,1243.1199789999519,1243.1292150998488,1243.1292150998488,1249.28519529989,schön,return,6.149555400013924,None,,,,,1,2023-11-27_12h20.26.771,watkins1,2023.2.3,99.75589734181096,19,2023-11-27 12h20.33.181279 +0000,
,,,,,,,,,,,,,,,,,,,,,,,29,0,29,0,1249.7868337999098,,,,,,,,,,1255.0120411999524,1255.5109714998398,,,,5.219920299947262,,,,,,,,,,,,None,None,,,,,,,,,,Kerze,,,cuedRecallAdj,1,,,,,,,,,,,,,,,,,,,,,,,,,,,,,,,,,,,,,,,,,,,,,,,,,,,,,1249.7771244999021,1249.7868337999098,0,1249.7868337999098,1255.0086942999624,kurz,return,5.219920299947262,None,1255.0089852998499,1255.0193034999538,1255.0193034999538,1255.0119313998148,,None,,,,,,,1,2023-11-27_12h20.26.771,watkins1,2023.2.3,99.75589734181096,19,2023-11-27 12h20.33.181279 +0000,
,,,,,,,,,,,,,,,,,,,,,,,,,,,,,,,,,,,,,,,,,,,,,,,,,,,,,,,,,,,,,,,,,,,,,1,,,,,,,,,,,,,,,,,,,,,,,,,,,,,,,,,,,,,,,,,,,,,,,,,,,,,,,,,,,,,,,,,,,,,,1255.5275910999626,q,3876.347149099922,None,1,2023-11-27_12h20.26.771,watkins1,2023.2.3,99.75589734181096,19,2023-11-27 12h20.33.181279 +0000,
