Equation,CorrectResponse,Correctbutton,trials_7.thisRepN,trials_7.thisTrialN,trials_7.thisN,trials_7.thisIndex,trials.thisRepN,trials.thisTrialN,trials.thisN,trials.thisIndex,trials_3.thisRepN,trials_3.thisTrialN,trials_3.thisN,trials_3.thisIndex,trials_2.thisRepN,trials_2.thisTrialN,trials_2.thisN,trials_2.thisIndex,trials_4.thisRepN,trials_4.thisTrialN,trials_4.thisN,trials_4.thisIndex,trials_5.thisRepN,trials_5.thisTrialN,trials_5.thisN,trials_5.thisIndex,thisRow.t,notes,code_marius.started,code_marius.stopped,welcome.started,welcome.stopped,instruction_study.started,instruction_study.stopped,fixationcross.started,fixationcross.stopped,blanc.started,blanc.stopped,study_control_probe.started,study_control_probe.stopped,responseKey,responseTime,scale_answer_2.keys,study_control_probe_2.started,study_control_probe_2.stopped,scale_answer_3.keys,scale_answer_3.rt,scale_answer_3.duration,blanc_2.started,blanc_2.stopped,test_attr_probe.started,test_attr_probe.stopped,recalled_attr,firstKeyTime,secondWordTime,blanc_3.started,blanc_3.stopped,test_sub_probe.started,test_sub_probe.stopped,recalled_sub,instruction_probe_end.started,instruction_probe_end.stopped,study.started,study.stopped,substantive,adjective,wordpair,task,condition,liste_sub_phase1,liste_adj_phase1,scale_answer.keys,scale_answer.rt,scale_answer.duration,code_defineWordsInit.started,code_defineWordsInit.stopped,liste_sub_phase2,study_control.started,study_control.stopped,scale_answer_4.keys,scale_answer_4.rt,scale_answer_4.duration,restudy_same.started,restudy_same.stopped,scale_answer_5.keys,restudy_different.started,restudy_different.stopped,scale_answer_6.keys,test_attr.started,test_attr.stopped,test_sub.started,test_sub.stopped,scale_answer_6.rt,scale_answer_6.duration,distractortask.started,equation_text.started,distractortask.stopped,mouse_answer.x,mouse_answer.y,mouse_answer.leftButton,mouse_answer.midButton,mouse_answer.rightButton,mouse_answer.time,mouse_answer.clicked_name,feedback_distractortask.started,feedback_distractortask.stopped,free_recall.started,text_enter.started,key_resp.started,free_recall.stopped,key_resp.keys,key_resp.rt,key_resp.duration,free_recalled_sub,mouse_continue.x,mouse_continue.y,mouse_continue.leftButton,mouse_continue.midButton,mouse_continue.rightButton,mouse_continue.time,mouse_continue.clicked_name,cued_recall.started,text_enter_2.started,correct,key_continue.started,cued_recall.stopped,recalled_attr1,key_continue.keys,key_continue.rt,key_continue.duration,cued_recall_2.started,text_enter_3.started,key_continue_2.started,cued_recall_2.stopped,recalled_attr2,key_continue_2.keys,key_continue_2.rt,key_continue_2.duration,key_resp_8.started,key_resp_8.keys,key_resp_8.rt,key_resp_8.duration,condition,date,expName,psychopyVersion,frameRate,participant,expStart,
,,,,,,,,,,,,,,,,,,,,,,,,,,,,,0.11581190023571253,0.11588700022548437,0.1158958999440074,6.971951600164175,,,,,,,,,,,,,,,,,,,,,,,,,,,,,,,,,,,,,1,,,,,,,,,,,,,,,,,,,,,,,,,,,,,,,,,,,,,,,,,,,,,,,,,,,,,,,,,,,,,,,,,,,,,,,,,,1,2024-01-11_09h05.56.149,watkins1,2023.2.3,99.76415796465335,86,2024-01-11 09h06.06.228241 +0000,
,,,,,,,,,,,,,,,,,,,,,,,,,,,,,,,,,6.972000299952924,38.73514560004696,,,,,,,,,,,,,,,,,,,,,,,,,,,,,,,,,,,1,,,,,,,,,,,,,,,,,,,,,,,,,,,,,,,,,,,,,,,,,,,,,,,,,,,,,,,,,,,,,,,,,,,,,,,,,,1,2024-01-11_09h05.56.149,watkins1,2023.2.3,99.76415796465335,86,2024-01-11 09h06.06.228241 +0000,
,,,0,0,0,0,,,,,,,,,,,,,,,,,,,,,39.7487802002579,,,,,,,,38.73516259994358,39.738797899801284,46.23558530025184,46.72663869988173,40.23091349983588,46.235403100028634,2,2.4246790995821357,None,46.72664939984679,52.73372810008004,2,2.4246790995821357,None,52.73401279980317,52.73403620021418,52.73404320003465,52.734123500064015,,None,None,52.73428349988535,52.73430320015177,52.73431000020355,52.73438380006701,,,,,,,,,,1,,,,,,,,,,,,,,,,,,,,,,,,,,,,,,,,,,,,,,,,,,,,,,,,,,,,,,,,,,,,,,,,,,,,,,,,,,1,2024-01-11_09h05.56.149,watkins1,2023.2.3,99.76415796465335,86,2024-01-11 09h06.06.228241 +0000,
,,,,,,,,,,,,,,,,,,,,,,,,,,,,,,,,,,,,,,,,,,,,,,,,,,,,,,,,,,,,,52.7344965999946,55.51166500011459,,,,,,,1,,,,,,,,,,,,,,,,,,,,,,,,,,,,,,,,,,,,,,,,,,,,,,,,,,,,,,,,,,,,,,,,,,,,,,,,,,1,2024-01-11_09h05.56.149,watkins1,2023.2.3,99.76415796465335,86,2024-01-11 09h06.06.228241 +0000,
,,,,,,,0,0,0,0,,,,,,,,,,,,,,,,,56.52533539989963,,,,,,,,55.511681200005114,56.515349300112575,56.515794599894434,57.00733229983598,,,3,2.096798200160265,,,,,,,,,,,,,,,,,,,,,57.00734269991517,63.01611540000886,Stift,matt,"['Stift', 'matt']",control,1,"['Stift', 'Bürste', 'Uhr', 'Hammer', 'Vase', 'Hut', 'Fahrrad', 'Blume', 'Tasche', 'Würfel', 'Rucksack', 'Kamera', 'Schlüssel', 'Flasche', 'Löffel', 'Geige', 'Kiste', 'Ring', 'Socke', 'Brille', 'Kerze', 'Telefon']",['matt'],3,2.096798200160265,None,,,,,,,,,,,,,,,,,,,,,,,,,,,,,,,,,,,,,,,,,,,,,,,,,,,,,,,,,,,,,,,,,,,,,1,2024-01-11_09h05.56.149,watkins1,2023.2.3,99.76415796465335,86,2024-01-11 09h06.06.228241 +0000,
,,,,,,,1,0,1,0,,,,,,,,,,,,,,,,,63.02556300023571,,,,,,,,,,63.01672110008076,63.50757860019803,,,3,1.4457692997530103,,,,,,,,,,,,,,,,,,,,,63.50758949993178,69.5144046000205,Bürste,glänzend,"['Bürste', 'glänzend']",restudy_diff,1,"['Stift', 'Bürste', 'Uhr', 'Hammer', 'Vase', 'Hut', 'Fahrrad', 'Blume', 'Tasche', 'Würfel', 'Rucksack', 'Kamera', 'Schlüssel', 'Flasche', 'Löffel', 'Geige', 'Kiste', 'Ring', 'Socke', 'Brille', 'Kerze', 'Telefon']","['matt', 'glänzend']",3,1.4457692997530103,None,,,,,,,,,,,,,,,,,,,,,,,,,,,,,,,,,,,,,,,,,,,,,,,,,,,,,,,,,,,,,,,,,,,,,1,2024-01-11_09h05.56.149,watkins1,2023.2.3,99.76415796465335,86,2024-01-11 09h06.06.228241 +0000,
,,,,,,,2,0,2,0,,,,,,,,,,,,,,,,,69.52387680020183,,,,,,,,,,69.51488649984822,70.0059299999848,,,1,1.5249965996481478,,,,,,,,,,,,,,,,,,,,,70.00594139983878,76.01055919984356,Uhr,durchsichtig,"['Uhr', 'durchsichtig']",control,1,"['Stift', 'Bürste', 'Uhr', 'Hammer', 'Vase', 'Hut', 'Fahrrad', 'Blume', 'Tasche', 'Würfel', 'Rucksack', 'Kamera', 'Schlüssel', 'Flasche', 'Löffel', 'Geige', 'Kiste', 'Ring', 'Socke', 'Brille', 'Kerze', 'Telefon']","['matt', 'glänzend', 'durchsichtig']",1,1.5249965996481478,None,,,,,,,,,,,,,,,,,,,,,,,,,,,,,,,,,,,,,,,,,,,,,,,,,,,,,,,,,,,,,,,,,,,,,1,2024-01-11_09h05.56.149,watkins1,2023.2.3,99.76415796465335,86,2024-01-11 09h06.06.228241 +0000,
,,,,,,,3,0,3,0,,,,,,,,,,,,,,,,,76.0200209999457,,,,,,,,,,76.0110369999893,76.50205799983814,,,1,1.462262500077486,,,,,,,,,,,,,,,,,,,,,76.50206879992038,82.50487590022385,Hammer,elegant,"['Hammer', 'elegant']",restudy_diff,1,"['Stift', 'Bürste', 'Uhr', 'Hammer', 'Vase', 'Hut', 'Fahrrad', 'Blume', 'Tasche', 'Würfel', 'Rucksack', 'Kamera', 'Schlüssel', 'Flasche', 'Löffel', 'Geige', 'Kiste', 'Ring', 'Socke', 'Brille', 'Kerze', 'Telefon']","['matt', 'glänzend', 'durchsichtig', 'elegant']",1,1.462262500077486,None,,,,,,,,,,,,,,,,,,,,,,,,,,,,,,,,,,,,,,,,,,,,,,,,,,,,,,,,,,,,,,,,,,,,,1,2024-01-11_09h05.56.149,watkins1,2023.2.3,99.76415796465335,86,2024-01-11 09h06.06.228241 +0000,
,,,,,,,4,0,4,0,,,,,,,,,,,,,,,,,82.51443210011348,,,,,,,,,,82.50534409983084,82.99639939982444,,,1,1.0559360999614,,,,,,,,,,,,,,,,,,,,,82.99641129979864,89.0020367000252,Vase,hässlich,"['Vase', 'hässlich']",restudy_diff,1,"['Stift', 'Bürste', 'Uhr', 'Hammer', 'Vase', 'Hut', 'Fahrrad', 'Blume', 'Tasche', 'Würfel', 'Rucksack', 'Kamera', 'Schlüssel', 'Flasche', 'Löffel', 'Geige', 'Kiste', 'Ring', 'Socke', 'Brille', 'Kerze', 'Telefon']","['matt', 'glänzend', 'durchsichtig', 'elegant', 'hässlich']",1,1.0559360999614,None,,,,,,,,,,,,,,,,,,,,,,,,,,,,,,,,,,,,,,,,,,,,,,,,,,,,,,,,,,,,,,,,,,,,,1,2024-01-11_09h05.56.149,watkins1,2023.2.3,99.76415796465335,86,2024-01-11 09h06.06.228241 +0000,
,,,,,,,5,0,5,0,,,,,,,,,,,,,,,,,89.01155439997092,,,,,,,,,,89.0025348002091,89.49350260011852,,,3,1.3030844000168145,,,,,,,,,,,,,,,,,,,,,89.49351420020685,95.50290670013055,Hut,hübsch,"['Hut', 'hübsch']",control,1,"['Stift', 'Bürste', 'Uhr', 'Hammer', 'Vase', 'Hut', 'Fahrrad', 'Blume', 'Tasche', 'Würfel', 'Rucksack', 'Kamera', 'Schlüssel', 'Flasche', 'Löffel', 'Geige', 'Kiste', 'Ring', 'Socke', 'Brille', 'Kerze', 'Telefon']","['matt', 'glänzend', 'durchsichtig', 'elegant', 'hässlich', 'hübsch']",3,1.3030844000168145,None,,,,,,,,,,,,,,,,,,,,,,,,,,,,,,,,,,,,,,,,,,,,,,,,,,,,,,,,,,,,,,,,,,,,,1,2024-01-11_09h05.56.149,watkins1,2023.2.3,99.76415796465335,86,2024-01-11 09h06.06.228241 +0000,
,,,,,,,6,0,6,0,,,,,,,,,,,,,,,,,95.51242339983582,,,,,,,,,,95.50340649997815,95.99436509981751,,,2,2.065764000173658,,,,,,,,,,,,,,,,,,,,,95.99437720002607,101.9950167001225,Fahrrad,niedlich,"['Fahrrad', 'niedlich']",restudy_diff,1,"['Stift', 'Bürste', 'Uhr', 'Hammer', 'Vase', 'Hut', 'Fahrrad', 'Blume', 'Tasche', 'Würfel', 'Rucksack', 'Kamera', 'Schlüssel', 'Flasche', 'Löffel', 'Geige', 'Kiste', 'Ring', 'Socke', 'Brille', 'Kerze', 'Telefon']","['matt', 'glänzend', 'durchsichtig', 'elegant', 'hässlich', 'hübsch', 'niedlich']",2,2.065764000173658,None,,,,,,,,,,,,,,,,,,,,,,,,,,,,,,,,,,,,,,,,,,,,,,,,,,,,,,,,,,,,,,,,,,,,,1,2024-01-11_09h05.56.149,watkins1,2023.2.3,99.76415796465335,86,2024-01-11 09h06.06.228241 +0000,
,,,,,,,7,0,7,0,,,,,,,,,,,,,,,,,102.00453069992363,,,,,,,,,,101.9954964001663,102.48652319982648,,,1,1.7662031003274024,,,,,,,,,,,,,,,,,,,,,102.48653439991176,108.49205730017275,Blume,schmutzig,"['Blume', 'schmutzig']",restudy_diff,1,"['Stift', 'Bürste', 'Uhr', 'Hammer', 'Vase', 'Hut', 'Fahrrad', 'Blume', 'Tasche', 'Würfel', 'Rucksack', 'Kamera', 'Schlüssel', 'Flasche', 'Löffel', 'Geige', 'Kiste', 'Ring', 'Socke', 'Brille', 'Kerze', 'Telefon']","['matt', 'glänzend', 'durchsichtig', 'elegant', 'hässlich', 'hübsch', 'niedlich', 'schmutzig']",1,1.7662031003274024,None,,,,,,,,,,,,,,,,,,,,,,,,,,,,,,,,,,,,,,,,,,,,,,,,,,,,,,,,,,,,,,,,,,,,,1,2024-01-11_09h05.56.149,watkins1,2023.2.3,99.76415796465335,86,2024-01-11 09h06.06.228241 +0000,
,,,,,,,8,0,8,0,,,,,,,,,,,,,,,,,108.50144399981946,,,,,,,,,,108.49254459980875,108.98360229982063,,,3,1.292645700275898,,,,,,,,,,,,,,,,,,,,,108.98361400002614,114.98438340006396,Tasche,gut,"['Tasche', 'gut']",control,1,"['Stift', 'Bürste', 'Uhr', 'Hammer', 'Vase', 'Hut', 'Fahrrad', 'Blume', 'Tasche', 'Würfel', 'Rucksack', 'Kamera', 'Schlüssel', 'Flasche', 'Löffel', 'Geige', 'Kiste', 'Ring', 'Socke', 'Brille', 'Kerze', 'Telefon']","['matt', 'glänzend', 'durchsichtig', 'elegant', 'hässlich', 'hübsch', 'niedlich', 'schmutzig', 'gut']",3,1.292645700275898,None,,,,,,,,,,,,,,,,,,,,,,,,,,,,,,,,,,,,,,,,,,,,,,,,,,,,,,,,,,,,,,,,,,,,,1,2024-01-11_09h05.56.149,watkins1,2023.2.3,99.76415796465335,86,2024-01-11 09h06.06.228241 +0000,
,,,,,,,9,0,9,0,,,,,,,,,,,,,,,,,114.99383109994233,,,,,,,,,,114.98486729990691,115.47617019992322,,,1,1.9266482000239193,,,,,,,,,,,,,,,,,,,,,115.47618110012263,121.47986359987408,Würfel,sportlich,"['Würfel', 'sportlich']",restudy_diff,1,"['Stift', 'Bürste', 'Uhr', 'Hammer', 'Vase', 'Hut', 'Fahrrad', 'Blume', 'Tasche', 'Würfel', 'Rucksack', 'Kamera', 'Schlüssel', 'Flasche', 'Löffel', 'Geige', 'Kiste', 'Ring', 'Socke', 'Brille', 'Kerze', 'Telefon']","['matt', 'glänzend', 'durchsichtig', 'elegant', 'hässlich', 'hübsch', 'niedlich', 'schmutzig', 'gut', 'sportlich']",1,1.9266482000239193,None,,,,,,,,,,,,,,,,,,,,,,,,,,,,,,,,,,,,,,,,,,,,,,,,,,,,,,,,,,,,,,,,,,,,,1,2024-01-11_09h05.56.149,watkins1,2023.2.3,99.76415796465335,86,2024-01-11 09h06.06.228241 +0000,
,,,,,,,10,0,10,0,,,,,,,,,,,,,,,,,121.48933129990473,,,,,,,,,,121.48034040024504,121.97129639983177,,,1,1.81687350012362,,,,,,,,,,,,,,,,,,,,,121.97130740014836,127.97293299995363,Rucksack,dunkel,"['Rucksack', 'dunkel']",restudy_diff,1,"['Stift', 'Bürste', 'Uhr', 'Hammer', 'Vase', 'Hut', 'Fahrrad', 'Blume', 'Tasche', 'Würfel', 'Rucksack', 'Kamera', 'Schlüssel', 'Flasche', 'Löffel', 'Geige', 'Kiste', 'Ring', 'Socke', 'Brille', 'Kerze', 'Telefon']","['matt', 'glänzend', 'durchsichtig', 'elegant', 'hässlich', 'hübsch', 'niedlich', 'schmutzig', 'gut', 'sportlich', 'dunkel']",1,1.81687350012362,None,,,,,,,,,,,,,,,,,,,,,,,,,,,,,,,,,,,,,,,,,,,,,,,,,,,,,,,,,,,,,,,,,,,,,1,2024-01-11_09h05.56.149,watkins1,2023.2.3,99.76415796465335,86,2024-01-11 09h06.06.228241 +0000,
,,,,,,,11,0,11,0,,,,,,,,,,,,,,,,,127.98239629995078,,,,,,,,,,127.97341310000047,128.46442259987816,,,3,2.356069500092417,,,,,,,,,,,,,,,,,,,,,128.46443310007453,134.47458929987624,Kamera,zart,"['Kamera', 'zart']",restudy_diff,1,"['Stift', 'Bürste', 'Uhr', 'Hammer', 'Vase', 'Hut', 'Fahrrad', 'Blume', 'Tasche', 'Würfel', 'Rucksack', 'Kamera', 'Schlüssel', 'Flasche', 'Löffel', 'Geige', 'Kiste', 'Ring', 'Socke', 'Brille', 'Kerze', 'Telefon']","['matt', 'glänzend', 'durchsichtig', 'elegant', 'hässlich', 'hübsch', 'niedlich', 'schmutzig', 'gut', 'sportlich', 'dunkel', 'zart']",3,2.356069500092417,None,,,,,,,,,,,,,,,,,,,,,,,,,,,,,,,,,,,,,,,,,,,,,,,,,,,,,,,,,,,,,,,,,,,,,1,2024-01-11_09h05.56.149,watkins1,2023.2.3,99.76415796465335,86,2024-01-11 09h06.06.228241 +0000,
,,,,,,,12,0,12,0,,,,,,,,,,,,,,,,,134.48411560012028,,,,,,,,,,134.47506010020152,134.96613219985738,,,2,2.325590900145471,,,,,,,,,,,,,,,,,,,,,134.96614320017397,140.9679856998846,Schlüssel,schwer,"['Schlüssel', 'schwer']",restudy_diff,1,"['Stift', 'Bürste', 'Uhr', 'Hammer', 'Vase', 'Hut', 'Fahrrad', 'Blume', 'Tasche', 'Würfel', 'Rucksack', 'Kamera', 'Schlüssel', 'Flasche', 'Löffel', 'Geige', 'Kiste', 'Ring', 'Socke', 'Brille', 'Kerze', 'Telefon']","['matt', 'glänzend', 'durchsichtig', 'elegant', 'hässlich', 'hübsch', 'niedlich', 'schmutzig', 'gut', 'sportlich', 'dunkel', 'zart', 'schwer']",2,2.325590900145471,None,,,,,,,,,,,,,,,,,,,,,,,,,,,,,,,,,,,,,,,,,,,,,,,,,,,,,,,,,,,,,,,,,,,,,1,2024-01-11_09h05.56.149,watkins1,2023.2.3,99.76415796465335,86,2024-01-11 09h06.06.228241 +0000,
,,,,,,,13,0,13,0,,,,,,,,,,,,,,,,,140.9775152998045,,,,,,,,,,140.96845800010487,141.4595822999254,,,1,1.3214592998847365,,,,,,,,,,,,,,,,,,,,,141.45959290023893,147.46912240004167,Flasche,flauschig,"['Flasche', 'flauschig']",control,1,"['Stift', 'Bürste', 'Uhr', 'Hammer', 'Vase', 'Hut', 'Fahrrad', 'Blume', 'Tasche', 'Würfel', 'Rucksack', 'Kamera', 'Schlüssel', 'Flasche', 'Löffel', 'Geige', 'Kiste', 'Ring', 'Socke', 'Brille', 'Kerze', 'Telefon']","['matt', 'glänzend', 'durchsichtig', 'elegant', 'hässlich', 'hübsch', 'niedlich', 'schmutzig', 'gut', 'sportlich', 'dunkel', 'zart', 'schwer', 'flauschig']",1,1.3214592998847365,None,,,,,,,,,,,,,,,,,,,,,,,,,,,,,,,,,,,,,,,,,,,,,,,,,,,,,,,,,,,,,,,,,,,,,1,2024-01-11_09h05.56.149,watkins1,2023.2.3,99.76415796465335,86,2024-01-11 09h06.06.228241 +0000,
,,,,,,,14,0,14,0,,,,,,,,,,,,,,,,,147.47857580007985,,,,,,,,,,147.469598100055,147.96060439990833,,,2,1.627055199816823,,,,,,,,,,,,,,,,,,,,,147.96061559999362,153.96812890004367,Löffel,robust,"['Löffel', 'robust']",restudy_diff,1,"['Stift', 'Bürste', 'Uhr', 'Hammer', 'Vase', 'Hut', 'Fahrrad', 'Blume', 'Tasche', 'Würfel', 'Rucksack', 'Kamera', 'Schlüssel', 'Flasche', 'Löffel', 'Geige', 'Kiste', 'Ring', 'Socke', 'Brille', 'Kerze', 'Telefon']","['matt', 'glänzend', 'durchsichtig', 'elegant', 'hässlich', 'hübsch', 'niedlich', 'schmutzig', 'gut', 'sportlich', 'dunkel', 'zart', 'schwer', 'flauschig', 'robust']",2,1.627055199816823,None,,,,,,,,,,,,,,,,,,,,,,,,,,,,,,,,,,,,,,,,,,,,,,,,,,,,,,,,,,,,,,,,,,,,,1,2024-01-11_09h05.56.149,watkins1,2023.2.3,99.76415796465335,86,2024-01-11 09h06.06.228241 +0000,
,,,,,,,15,0,15,0,,,,,,,,,,,,,,,,,153.97757710004225,,,,,,,,,,153.96861399989575,154.45957389986143,,,3,1.5928422003053129,,,,,,,,,,,,,,,,,,,,,154.45958490017802,160.46039360016584,Geige,hohl,"['Geige', 'hohl']",restudy_diff,1,"['Stift', 'Bürste', 'Uhr', 'Hammer', 'Vase', 'Hut', 'Fahrrad', 'Blume', 'Tasche', 'Würfel', 'Rucksack', 'Kamera', 'Schlüssel', 'Flasche', 'Löffel', 'Geige', 'Kiste', 'Ring', 'Socke', 'Brille', 'Kerze', 'Telefon']","['matt', 'glänzend', 'durchsichtig', 'elegant', 'hässlich', 'hübsch', 'niedlich', 'schmutzig', 'gut', 'sportlich', 'dunkel', 'zart', 'schwer', 'flauschig', 'robust', 'hohl']",3,1.5928422003053129,None,,,,,,,,,,,,,,,,,,,,,,,,,,,,,,,,,,,,,,,,,,,,,,,,,,,,,,,,,,,,,,,,,,,,,1,2024-01-11_09h05.56.149,watkins1,2023.2.3,99.76415796465335,86,2024-01-11 09h06.06.228241 +0000,
,,,,,,,16,0,16,0,,,,,,,,,,,,,,,,,160.46985800005496,,,,,,,,,,160.46087659988552,160.95194709999487,,,1,1.589184899814427,,,,,,,,,,,,,,,,,,,,,160.95195849984884,166.96118339989334,Kiste,schlicht,"['Kiste', 'schlicht']",restudy_diff,1,"['Stift', 'Bürste', 'Uhr', 'Hammer', 'Vase', 'Hut', 'Fahrrad', 'Blume', 'Tasche', 'Würfel', 'Rucksack', 'Kamera', 'Schlüssel', 'Flasche', 'Löffel', 'Geige', 'Kiste', 'Ring', 'Socke', 'Brille', 'Kerze', 'Telefon']","['matt', 'glänzend', 'durchsichtig', 'elegant', 'hässlich', 'hübsch', 'niedlich', 'schmutzig', 'gut', 'sportlich', 'dunkel', 'zart', 'schwer', 'flauschig', 'robust', 'hohl', 'schlicht']",1,1.589184899814427,None,,,,,,,,,,,,,,,,,,,,,,,,,,,,,,,,,,,,,,,,,,,,,,,,,,,,,,,,,,,,,,,,,,,,,1,2024-01-11_09h05.56.149,watkins1,2023.2.3,99.76415796465335,86,2024-01-11 09h06.06.228241 +0000,
,,,,,,,17,0,17,0,,,,,,,,,,,,,,,,,166.97064930014312,,,,,,,,,,166.96166680008173,167.4527810998261,,,1,1.7123373001813889,,,,,,,,,,,,,,,,,,,,,167.45279170013964,173.46178020024672,Ring,klobig,"['Ring', 'klobig']",restudy_diff,1,"['Stift', 'Bürste', 'Uhr', 'Hammer', 'Vase', 'Hut', 'Fahrrad', 'Blume', 'Tasche', 'Würfel', 'Rucksack', 'Kamera', 'Schlüssel', 'Flasche', 'Löffel', 'Geige', 'Kiste', 'Ring', 'Socke', 'Brille', 'Kerze', 'Telefon']","['matt', 'glänzend', 'durchsichtig', 'elegant', 'hässlich', 'hübsch', 'niedlich', 'schmutzig', 'gut', 'sportlich', 'dunkel', 'zart', 'schwer', 'flauschig', 'robust', 'hohl', 'schlicht', 'klobig']",1,1.7123373001813889,None,,,,,,,,,,,,,,,,,,,,,,,,,,,,,,,,,,,,,,,,,,,,,,,,,,,,,,,,,,,,,,,,,,,,,1,2024-01-11_09h05.56.149,watkins1,2023.2.3,99.76415796465335,86,2024-01-11 09h06.06.228241 +0000,
,,,,,,,18,0,18,0,,,,,,,,,,,,,,,,,173.47121859993786,,,,,,,,,,173.46225709980354,173.9532822999172,,,1,1.083880899939686,,,,,,,,,,,,,,,,,,,,,173.95329370023683,179.96182300010696,Socke,teuer,"['Socke', 'teuer']",restudy_diff,1,"['Stift', 'Bürste', 'Uhr', 'Hammer', 'Vase', 'Hut', 'Fahrrad', 'Blume', 'Tasche', 'Würfel', 'Rucksack', 'Kamera', 'Schlüssel', 'Flasche', 'Löffel', 'Geige', 'Kiste', 'Ring', 'Socke', 'Brille', 'Kerze', 'Telefon']","['matt', 'glänzend', 'durchsichtig', 'elegant', 'hässlich', 'hübsch', 'niedlich', 'schmutzig', 'gut', 'sportlich', 'dunkel', 'zart', 'schwer', 'flauschig', 'robust', 'hohl', 'schlicht', 'klobig', 'teuer']",1,1.083880899939686,None,,,,,,,,,,,,,,,,,,,,,,,,,,,,,,,,,,,,,,,,,,,,,,,,,,,,,,,,,,,,,,,,,,,,,1,2024-01-11_09h05.56.149,watkins1,2023.2.3,99.76415796465335,86,2024-01-11 09h06.06.228241 +0000,
,,,,,,,19,0,19,0,,,,,,,,,,,,,,,,,179.97131620021537,,,,,,,,,,179.9623158001341,180.4532785001211,,,1,1.7435155999846756,,,,,,,,,,,,,,,,,,,,,180.45330249983817,186.45621319999918,Brille,gestreift,"['Brille', 'gestreift']",control,1,"['Stift', 'Bürste', 'Uhr', 'Hammer', 'Vase', 'Hut', 'Fahrrad', 'Blume', 'Tasche', 'Würfel', 'Rucksack', 'Kamera', 'Schlüssel', 'Flasche', 'Löffel', 'Geige', 'Kiste', 'Ring', 'Socke', 'Brille', 'Kerze', 'Telefon']","['matt', 'glänzend', 'durchsichtig', 'elegant', 'hässlich', 'hübsch', 'niedlich', 'schmutzig', 'gut', 'sportlich', 'dunkel', 'zart', 'schwer', 'flauschig', 'robust', 'hohl', 'schlicht', 'klobig', 'teuer', 'gestreift']",1,1.7435155999846756,None,,,,,,,,,,,,,,,,,,,,,,,,,,,,,,,,,,,,,,,,,,,,,,,,,,,,,,,,,,,,,,,,,,,,,1,2024-01-11_09h05.56.149,watkins1,2023.2.3,99.76415796465335,86,2024-01-11 09h06.06.228241 +0000,
,,,,,,,20,0,20,0,,,,,,,,,,,,,,,,,186.4656373001635,,,,,,,,,,186.45670130010694,186.94806350022554,,,2,1.4088686001487076,,,,,,,,,,,,,,,,,,,,,186.94807460019365,192.95174700021744,Kerze,praktisch,"['Kerze', 'praktisch']",control,1,"['Stift', 'Bürste', 'Uhr', 'Hammer', 'Vase', 'Hut', 'Fahrrad', 'Blume', 'Tasche', 'Würfel', 'Rucksack', 'Kamera', 'Schlüssel', 'Flasche', 'Löffel', 'Geige', 'Kiste', 'Ring', 'Socke', 'Brille', 'Kerze', 'Telefon']","['matt', 'glänzend', 'durchsichtig', 'elegant', 'hässlich', 'hübsch', 'niedlich', 'schmutzig', 'gut', 'sportlich', 'dunkel', 'zart', 'schwer', 'flauschig', 'robust', 'hohl', 'schlicht', 'klobig', 'teuer', 'gestreift', 'praktisch']",2,1.4088686001487076,None,,,,,,,,,,,,,,,,,,,,,,,,,,,,,,,,,,,,,,,,,,,,,,,,,,,,,,,,,,,,,,,,,,,,,1,2024-01-11_09h05.56.149,watkins1,2023.2.3,99.76415796465335,86,2024-01-11 09h06.06.228241 +0000,
,,,,,,,21,0,21,0,,,,,,,,,,,,,,,,,192.96119809988886,,,,,,,,,,192.95223980024457,193.4432357000187,,,1,1.9456654000096023,,,,,,,,,,,,,,,,,,,,,193.44324650010094,199.45305499993265,Telefon,kurz,"['Telefon', 'kurz']",restudy_diff,1,"['Stift', 'Bürste', 'Uhr', 'Hammer', 'Vase', 'Hut', 'Fahrrad', 'Blume', 'Tasche', 'Würfel', 'Rucksack', 'Kamera', 'Schlüssel', 'Flasche', 'Löffel', 'Geige', 'Kiste', 'Ring', 'Socke', 'Brille', 'Kerze', 'Telefon']","['matt', 'glänzend', 'durchsichtig', 'elegant', 'hässlich', 'hübsch', 'niedlich', 'schmutzig', 'gut', 'sportlich', 'dunkel', 'zart', 'schwer', 'flauschig', 'robust', 'hohl', 'schlicht', 'klobig', 'teuer', 'gestreift', 'praktisch', 'kurz']",1,1.9456654000096023,None,,,,,,,,,,,,,,,,,,,,,,,,,,,,,,,,,,,,,,,,,,,,,,,,,,,,,,,,,,,,,,,,,,,,,1,2024-01-11_09h05.56.149,watkins1,2023.2.3,99.76415796465335,86,2024-01-11 09h06.06.228241 +0000,
,,,,,,,,,,,0,0,0,0,,,,,,,,,,,,,199.46251920005307,,,,,,,,,,199.45387279987335,199.94464340014383,,,[],[],,,,,,,,,,,,None,None,,,,,,,,,,Jacke,kratzig,"['Jacke', 'kratzig']",control,1,,,,,,199.4537996002473,199.45384760014713,"['Jacke', 'Lampe', 'Kette', 'Kamera', 'Vase', 'Bürste', 'Fahrrad', 'Schere', 'Ring', 'Socke', 'Eimer', 'Hammer', 'Telefon', 'Geige', 'Kiste', 'Würfel', 'Löffel', 'Blume', 'Buch', 'Tasse', 'Schlüssel', 'Trommel', 'Rucksack']",199.9446541001089,205.94988360023126,1,1.3546914998441935,None,205.95028509991243,205.95308759994805,None,205.95324310008436,205.95585000002757,None,205.95600340003148,205.95719119999558,205.95720339985564,205.95848589995876,,,,,,,,,,,,,,,,,,,,,,,,,,,,,,,,,,,,,,,,,,,,,,,,,,,1,2024-01-11_09h05.56.149,watkins1,2023.2.3,99.76415796465335,86,2024-01-11 09h06.06.228241 +0000,
,,,,,,,,,,,1,0,1,0,,,,,,,,,,,,,205.9620718001388,,,,,,,,,,205.95876049995422,206.45566779980436,,,[],[],,,,,,,,,,,,None,None,,,,,,,,,,Lampe,flach,"['Lampe', 'flach']",control,1,,,,,,205.95869660004973,205.95873509999365,"['Jacke', 'Lampe', 'Kette', 'Kamera', 'Vase', 'Bürste', 'Fahrrad', 'Schere', 'Ring', 'Socke', 'Eimer', 'Hammer', 'Telefon', 'Geige', 'Kiste', 'Würfel', 'Löffel', 'Blume', 'Buch', 'Tasse', 'Schlüssel', 'Trommel', 'Rucksack']",206.45567880012095,212.4579183999449,1,1.2855347995646298,None,212.45820260001346,212.4609878999181,None,212.46109490003437,212.46362450020388,None,212.46372879995033,212.4648989001289,212.46491059986874,212.4660823000595,,,,,,,,,,,,,,,,,,,,,,,,,,,,,,,,,,,,,,,,,,,,,,,,,,,1,2024-01-11_09h05.56.149,watkins1,2023.2.3,99.76415796465335,86,2024-01-11 09h06.06.228241 +0000,
,,,,,,,,,,,2,0,2,0,,,,,,,,,,,,,212.4696478000842,,,,,,,,,,212.46635300014168,212.96258469996974,,,[],[],,,,,,,,,,,,None,None,,,,,,,,,,Kette,rustikal,"['Kette', 'rustikal']",control,1,,,,,,212.46628959989175,212.46632800018415,"['Jacke', 'Lampe', 'Kette', 'Kamera', 'Vase', 'Bürste', 'Fahrrad', 'Schere', 'Ring', 'Socke', 'Eimer', 'Hammer', 'Telefon', 'Geige', 'Kiste', 'Würfel', 'Löffel', 'Blume', 'Buch', 'Tasse', 'Schlüssel', 'Trommel', 'Rucksack']",212.9625961999409,218.96989169996232,1,1.7062659999355674,None,218.97017299989238,218.97304810024798,None,218.97315309988335,218.97577610006556,None,218.97588150016963,218.97707200003788,218.9770837998949,218.97831729985774,,,,,,,,,,,,,,,,,,,,,,,,,,,,,,,,,,,,,,,,,,,,,,,,,,,1,2024-01-11_09h05.56.149,watkins1,2023.2.3,99.76415796465335,86,2024-01-11 09h06.06.228241 +0000,
,,,,,,,,,,,3,0,3,0,,,,,,,,,,,,,218.98191339988261,,,,,,,,,,218.97858100011945,219.47537560015917,,,1,1.1658071000128984,,,,,,,,,,,,None,None,,,,,,,,,,Kamera,kalt,"['Kamera', 'kalt']",restudy_diff,1,,,,,,218.9785183002241,218.97855649981648,"['Jacke', 'Lampe', 'Kette', 'Kamera', 'Vase', 'Bürste', 'Fahrrad', 'Schere', 'Ring', 'Socke', 'Eimer', 'Hammer', 'Telefon', 'Geige', 'Kiste', 'Würfel', 'Löffel', 'Blume', 'Buch', 'Tasse', 'Schlüssel', 'Trommel', 'Rucksack']",219.47538590012118,219.47698119981214,None,,,219.47709910012782,219.4786228002049,None,219.47872840007767,225.48399440012872,1,225.48436360014603,225.48578769993037,225.4857999002561,225.4868788002059,1.1658071000128984,None,,,,,,,,,,,,,,,,,,,,,,,,,,,,,,,,,,,,,,,,,,,,,,,,,1,2024-01-11_09h05.56.149,watkins1,2023.2.3,99.76415796465335,86,2024-01-11 09h06.06.228241 +0000,
,,,,,,,,,,,4,0,4,0,,,,,,,,,,,,,225.4935004999861,,,,,,,,,,225.48715079994872,225.985492200125,,,1,1.20696479966864,,,,,,,,,,,,None,None,,,,,,,,,,Vase,lustig,"['Vase', 'lustig']",restudy_diff,1,,,,,,225.48708610003814,225.48712449986488,"['Jacke', 'Lampe', 'Kette', 'Kamera', 'Vase', 'Bürste', 'Fahrrad', 'Schere', 'Ring', 'Socke', 'Eimer', 'Hammer', 'Telefon', 'Geige', 'Kiste', 'Würfel', 'Löffel', 'Blume', 'Buch', 'Tasse', 'Schlüssel', 'Trommel', 'Rucksack']",225.98550370009616,225.9879554999061,None,,,225.9880738002248,225.9903776999563,None,225.99048059992492,231.9912375002168,1,231.9915224001743,231.99272250011563,231.99273490021005,231.99397049983963,1.20696479966864,None,,,,,,,,,,,,,,,,,,,,,,,,,,,,,,,,,,,,,,,,,,,,,,,,,1,2024-01-11_09h05.56.149,watkins1,2023.2.3,99.76415796465335,86,2024-01-11 09h06.06.228241 +0000,
,,,,,,,,,,,5,0,5,0,,,,,,,,,,,,,232.0006658001803,,,,,,,,,,231.99424730008468,232.4928576000966,,,1,1.7384930001571774,,,,,,,,,,,,None,None,,,,,,,,,,Bürste,nachhaltig,"['Bürste', 'nachhaltig']",restudy_diff,1,,,,,,231.99418029980734,231.9942188002169,"['Jacke', 'Lampe', 'Kette', 'Kamera', 'Vase', 'Bürste', 'Fahrrad', 'Schere', 'Ring', 'Socke', 'Eimer', 'Hammer', 'Telefon', 'Geige', 'Kiste', 'Würfel', 'Löffel', 'Blume', 'Buch', 'Tasse', 'Schlüssel', 'Trommel', 'Rucksack']",232.4928680001758,232.49562369985506,None,,,232.49574120016769,232.498360699974,None,232.49846719997004,238.50691149989143,1,238.5071852002293,238.5084842001088,238.508496100083,238.50975990016013,1.7384930001571774,None,,,,,,,,,,,,,,,,,,,,,,,,,,,,,,,,,,,,,,,,,,,,,,,,,1,2024-01-11_09h05.56.149,watkins1,2023.2.3,99.76415796465335,86,2024-01-11 09h06.06.228241 +0000,
,,,,,,,,,,,6,0,6,0,,,,,,,,,,,,,238.51634459989145,,,,,,,,,,238.51002370007336,239.00848750025034,,,1,1.223084700293839,,,,,,,,,,,,None,None,,,,,,,,,,Fahrrad,sauber,"['Fahrrad', 'sauber']",restudy_diff,1,,,,,,238.50996109982952,238.50999779999256,"['Jacke', 'Lampe', 'Kette', 'Kamera', 'Vase', 'Bürste', 'Fahrrad', 'Schere', 'Ring', 'Socke', 'Eimer', 'Hammer', 'Telefon', 'Geige', 'Kiste', 'Würfel', 'Löffel', 'Blume', 'Buch', 'Tasse', 'Schlüssel', 'Trommel', 'Rucksack']",239.00849850010127,239.01144429994747,None,,,239.0115664000623,239.0142184002325,None,239.01432299986482,245.01887049991637,1,245.0191534999758,245.02058120025322,245.02059369999915,245.02181110018864,1.223084700293839,None,,,,,,,,,,,,,,,,,,,,,,,,,,,,,,,,,,,,,,,,,,,,,,,,,1,2024-01-11_09h05.56.149,watkins1,2023.2.3,99.76415796465335,86,2024-01-11 09h06.06.228241 +0000,
,,,,,,,,,,,7,0,7,0,,,,,,,,,,,,,245.02829409996048,,,,,,,,,,245.02208690019324,245.52055180026218,,,[],[],,,,,,,,,,,,None,None,,,,,,,,,,Schere,nass,"['Schere', 'nass']",control,1,,,,,,245.02202250016853,245.02206020010635,"['Jacke', 'Lampe', 'Kette', 'Kamera', 'Vase', 'Bürste', 'Fahrrad', 'Schere', 'Ring', 'Socke', 'Eimer', 'Hammer', 'Telefon', 'Geige', 'Kiste', 'Würfel', 'Löffel', 'Blume', 'Buch', 'Tasse', 'Schlüssel', 'Trommel', 'Rucksack']",245.52056309999898,251.52286450006068,1,0.9566087001003325,None,251.52313800016418,251.52567839995027,None,251.52578249992803,251.52815280016512,None,251.52825500024483,251.5294312001206,251.52944289986044,251.53046880010515,,,,,,,,,,,,,,,,,,,,,,,,,,,,,,,,,,,,,,,,,,,,,,,,,,,1,2024-01-11_09h05.56.149,watkins1,2023.2.3,99.76415796465335,86,2024-01-11 09h06.06.228241 +0000,
,,,,,,,,,,,8,0,8,0,,,,,,,,,,,,,251.53416329994798,,,,,,,,,,251.53073150012642,252.02706630015746,,,1,1.2792205000296235,,,,,,,,,,,,None,None,,,,,,,,,,Ring,bunt,"['Ring', 'bunt']",restudy_diff,1,,,,,,251.53066969988868,251.53070749994367,"['Jacke', 'Lampe', 'Kette', 'Kamera', 'Vase', 'Bürste', 'Fahrrad', 'Schere', 'Ring', 'Socke', 'Eimer', 'Hammer', 'Telefon', 'Geige', 'Kiste', 'Würfel', 'Löffel', 'Blume', 'Buch', 'Tasse', 'Schlüssel', 'Trommel', 'Rucksack']",252.02707759989426,252.02856570016593,None,,,252.02869010018185,252.03027540026233,None,252.0303795998916,258.04037080006674,1,258.0406559999101,258.0418487000279,258.0418606000021,258.04291399987414,1.2792205000296235,None,,,,,,,,,,,,,,,,,,,,,,,,,,,,,,,,,,,,,,,,,,,,,,,,,1,2024-01-11_09h05.56.149,watkins1,2023.2.3,99.76415796465335,86,2024-01-11 09h06.06.228241 +0000,
,,,,,,,,,,,9,0,9,0,,,,,,,,,,,,,258.0498429001309,,,,,,,,,,258.0431832000613,258.54194559995085,,,1,1.1937477001920342,,,,,,,,,,,,None,None,,,,,,,,,,Socke,glatt,"['Socke', 'glatt']",restudy_diff,1,,,,,,258.0431190999225,258.0431566000916,"['Jacke', 'Lampe', 'Kette', 'Kamera', 'Vase', 'Bürste', 'Fahrrad', 'Schere', 'Ring', 'Socke', 'Eimer', 'Hammer', 'Telefon', 'Geige', 'Kiste', 'Würfel', 'Löffel', 'Blume', 'Buch', 'Tasse', 'Schlüssel', 'Trommel', 'Rucksack']",258.54195669991896,258.54453549999744,None,,,258.54465530021116,258.54710600012913,None,258.54721410013735,264.5544412001036,1,264.55472650006413,264.5561052002013,264.5561178000644,264.55735700018704,1.1937477001920342,None,,,,,,,,,,,,,,,,,,,,,,,,,,,,,,,,,,,,,,,,,,,,,,,,,1,2024-01-11_09h05.56.149,watkins1,2023.2.3,99.76415796465335,86,2024-01-11 09h06.06.228241 +0000,
,,,,,,,,,,,10,0,10,0,,,,,,,,,,,,,264.56383030023426,,,,,,,,,,264.55763120017946,265.05616480018944,,,[],[],,,,,,,,,,,,None,None,,,,,,,,,,Eimer,strahlend,"['Eimer', 'strahlend']",control,1,,,,,,264.55756600014865,264.55760450009257,"['Jacke', 'Lampe', 'Kette', 'Kamera', 'Vase', 'Bürste', 'Fahrrad', 'Schere', 'Ring', 'Socke', 'Eimer', 'Hammer', 'Telefon', 'Geige', 'Kiste', 'Würfel', 'Löffel', 'Blume', 'Buch', 'Tasse', 'Schlüssel', 'Trommel', 'Rucksack']",265.0561756999232,271.062588499859,1,0.9561726995743811,None,271.06287840008736,271.06572470022365,None,271.06583000021055,271.0687176999636,None,271.06882179994136,271.0699952002615,271.0700071998872,271.0712719000876,,,,,,,,,,,,,,,,,,,,,,,,,,,,,,,,,,,,,,,,,,,,,,,,,,,1,2024-01-11_09h05.56.149,watkins1,2023.2.3,99.76415796465335,86,2024-01-11 09h06.06.228241 +0000,
,,,,,,,,,,,11,0,11,0,,,,,,,,,,,,,271.0748847001232,,,,,,,,,,271.0715438001789,271.5685649001971,,,1,1.1696574999950826,,,,,,,,,,,,None,None,,,,,,,,,,Hammer,neu,"['Hammer', 'neu']",restudy_diff,1,,,,,,271.071480399929,271.07151920022443,"['Jacke', 'Lampe', 'Kette', 'Kamera', 'Vase', 'Bürste', 'Fahrrad', 'Schere', 'Ring', 'Socke', 'Eimer', 'Hammer', 'Telefon', 'Geige', 'Kiste', 'Würfel', 'Löffel', 'Blume', 'Buch', 'Tasse', 'Schlüssel', 'Trommel', 'Rucksack']",271.56857579993084,271.57017550012097,None,,,271.57029579998925,271.5717508001253,None,271.5718530998565,277.5811999998987,1,277.58148329984397,277.58284169994295,277.5828539999202,277.58390020020306,1.1696574999950826,None,,,,,,,,,,,,,,,,,,,,,,,,,,,,,,,,,,,,,,,,,,,,,,,,,1,2024-01-11_09h05.56.149,watkins1,2023.2.3,99.76415796465335,86,2024-01-11 09h06.06.228241 +0000,
,,,,,,,,,,,12,0,12,0,,,,,,,,,,,,,277.59072750015184,,,,,,,,,,277.58417080016807,278.0828003999777,,,1,1.061287000309676,,,,,,,,,,,,None,None,,,,,,,,,,Telefon,dick,"['Telefon', 'dick']",restudy_diff,1,,,,,,277.58410650026053,277.5841447999701,"['Jacke', 'Lampe', 'Kette', 'Kamera', 'Vase', 'Bürste', 'Fahrrad', 'Schere', 'Ring', 'Socke', 'Eimer', 'Hammer', 'Telefon', 'Geige', 'Kiste', 'Würfel', 'Löffel', 'Blume', 'Buch', 'Tasse', 'Schlüssel', 'Trommel', 'Rucksack']",278.08281200006604,278.08542900020257,None,,,278.08555079996586,278.0879957000725,None,278.08809919981286,284.0944151999429,1,284.0946990000084,284.09614810021594,284.09616070007905,284.0972385001369,1.061287000309676,None,,,,,,,,,,,,,,,,,,,,,,,,,,,,,,,,,,,,,,,,,,,,,,,,,1,2024-01-11_09h05.56.149,watkins1,2023.2.3,99.76415796465335,86,2024-01-11 09h06.06.228241 +0000,
,,,,,,,,,,,13,0,13,0,,,,,,,,,,,,,284.10380499996245,,,,,,,,,,284.0975143001415,284.59611030016094,,,1,1.4838113002479076,,,,,,,,,,,,None,None,,,,,,,,,,Geige,krumm,"['Geige', 'krumm']",restudy_diff,1,,,,,,284.0974483001046,284.0974876000546,"['Jacke', 'Lampe', 'Kette', 'Kamera', 'Vase', 'Bürste', 'Fahrrad', 'Schere', 'Ring', 'Socke', 'Eimer', 'Hammer', 'Telefon', 'Geige', 'Kiste', 'Würfel', 'Löffel', 'Blume', 'Buch', 'Tasse', 'Schlüssel', 'Trommel', 'Rucksack']",284.5961218001321,284.59871299983934,None,,,284.5988317998126,284.60125879989937,None,284.6013636998832,290.6073389002122,1,290.6076254998334,290.6089463001117,290.60895860008895,290.610474599991,1.4838113002479076,None,,,,,,,,,,,,,,,,,,,,,,,,,,,,,,,,,,,,,,,,,,,,,,,,,1,2024-01-11_09h05.56.149,watkins1,2023.2.3,99.76415796465335,86,2024-01-11 09h06.06.228241 +0000,
,,,,,,,,,,,14,0,14,0,,,,,,,,,,,,,290.6168777998537,,,,,,,,,,290.6107494998723,291.10881910007447,,,1,1.1629214999265969,,,,,,,,,,,,None,None,,,,,,,,,,Kiste,kaputt,"['Kiste', 'kaputt']",restudy_diff,1,,,,,,290.6106843999587,290.61072329990566,"['Jacke', 'Lampe', 'Kette', 'Kamera', 'Vase', 'Bürste', 'Fahrrad', 'Schere', 'Ring', 'Socke', 'Eimer', 'Hammer', 'Telefon', 'Geige', 'Kiste', 'Würfel', 'Löffel', 'Blume', 'Buch', 'Tasse', 'Schlüssel', 'Trommel', 'Rucksack']",291.10883129993454,291.1115513998084,None,,,291.11167259979993,291.1142233000137,None,291.1143291001208,297.12207309994847,1,297.1223685001023,297.1236801999621,297.1236928999424,297.1249902998097,1.1629214999265969,None,,,,,,,,,,,,,,,,,,,,,,,,,,,,,,,,,,,,,,,,,,,,,,,,,1,2024-01-11_09h05.56.149,watkins1,2023.2.3,99.76415796465335,86,2024-01-11 09h06.06.228241 +0000,
,,,,,,,,,,,15,0,15,0,,,,,,,,,,,,,297.13160589989275,,,,,,,,,,297.1252611000091,297.6235882001929,,,2,1.3922680001705885,,,,,,,,,,,,None,None,,,,,,,,,,Würfel,winzig,"['Würfel', 'winzig']",restudy_diff,1,,,,,,297.12519600009546,297.1252334997989,"['Jacke', 'Lampe', 'Kette', 'Kamera', 'Vase', 'Bürste', 'Fahrrad', 'Schere', 'Ring', 'Socke', 'Eimer', 'Hammer', 'Telefon', 'Geige', 'Kiste', 'Würfel', 'Löffel', 'Blume', 'Buch', 'Tasse', 'Schlüssel', 'Trommel', 'Rucksack']",297.6235986999236,297.6262917998247,None,,,297.6264073001221,297.62905450025573,None,297.6291648000479,303.6344746998511,2,303.634767500218,303.63611530000344,303.63612789986655,303.6374360998161,1.3922680001705885,None,,,,,,,,,,,,,,,,,,,,,,,,,,,,,,,,,,,,,,,,,,,,,,,,,1,2024-01-11_09h05.56.149,watkins1,2023.2.3,99.76415796465335,86,2024-01-11 09h06.06.228241 +0000,
,,,,,,,,,,,16,0,16,0,,,,,,,,,,,,,303.6439748001285,,,,,,,,,,303.63771450007334,304.13596920017153,,,1,1.9514675997197628,,,,,,,,,,,,None,None,,,,,,,,,,Löffel,breit,"['Löffel', 'breit']",restudy_diff,1,,,,,,303.63764540012926,303.6376873999834,"['Jacke', 'Lampe', 'Kette', 'Kamera', 'Vase', 'Bürste', 'Fahrrad', 'Schere', 'Ring', 'Socke', 'Eimer', 'Hammer', 'Telefon', 'Geige', 'Kiste', 'Würfel', 'Löffel', 'Blume', 'Buch', 'Tasse', 'Schlüssel', 'Trommel', 'Rucksack']",304.1359804999083,304.13876669993624,None,,,304.13888730015606,304.1415102002211,None,304.141615500208,310.14873589994386,1,310.14900870015845,310.15036550024524,310.15037749987096,310.1516462001018,1.9514675997197628,None,,,,,,,,,,,,,,,,,,,,,,,,,,,,,,,,,,,,,,,,,,,,,,,,,1,2024-01-11_09h05.56.149,watkins1,2023.2.3,99.76415796465335,86,2024-01-11 09h06.06.228241 +0000,
,,,,,,,,,,,17,0,17,0,,,,,,,,,,,,,310.15815880009905,,,,,,,,,,310.15190900024027,310.6502474001609,,,2,1.7656135996803641,,,,,,,,,,,,None,None,,,,,,,,,,Blume,biegsam,"['Blume', 'biegsam']",restudy_diff,1,,,,,,310.1518467999995,310.151883599814,"['Jacke', 'Lampe', 'Kette', 'Kamera', 'Vase', 'Bürste', 'Fahrrad', 'Schere', 'Ring', 'Socke', 'Eimer', 'Hammer', 'Telefon', 'Geige', 'Kiste', 'Würfel', 'Löffel', 'Blume', 'Buch', 'Tasse', 'Schlüssel', 'Trommel', 'Rucksack']",310.65025860024616,310.6529371999204,None,,,310.65305690001696,310.65558000002056,None,310.6556826001033,316.66355480020866,2,316.66384339984506,316.6651790002361,316.66519130021334,316.66673870012164,1.7656135996803641,None,,,,,,,,,,,,,,,,,,,,,,,,,,,,,,,,,,,,,,,,,,,,,,,,,1,2024-01-11_09h05.56.149,watkins1,2023.2.3,99.76415796465335,86,2024-01-11 09h06.06.228241 +0000,
,,,,,,,,,,,18,0,18,0,,,,,,,,,,,,,316.67301720008254,,,,,,,,,,316.66701730014756,317.16489179991186,,,[],[],,,,,,,,,,,,None,None,,,,,,,,,,Buch,lang,"['Buch', 'lang']",control,1,,,,,,316.66695130011067,316.6669899998233,"['Jacke', 'Lampe', 'Kette', 'Kamera', 'Vase', 'Bürste', 'Fahrrad', 'Schere', 'Ring', 'Socke', 'Eimer', 'Hammer', 'Telefon', 'Geige', 'Kiste', 'Würfel', 'Löffel', 'Blume', 'Buch', 'Tasse', 'Schlüssel', 'Trommel', 'Rucksack']",317.1649040998891,323.16691350005567,1,1.1364974998869002,None,323.16719970013946,323.1696660001762,None,323.1697736000642,323.1720885001123,None,323.1721935002133,323.17326910002157,323.1732808998786,323.1743520000018,,,,,,,,,,,,,,,,,,,,,,,,,,,,,,,,,,,,,,,,,,,,,,,,,,,1,2024-01-11_09h05.56.149,watkins1,2023.2.3,99.76415796465335,86,2024-01-11 09h06.06.228241 +0000,
,,,,,,,,,,,19,0,19,0,,,,,,,,,,,,,323.1779939001426,,,,,,,,,,323.17462360020727,323.6707509001717,,,[],[],,,,,,,,,,,,None,None,,,,,,,,,,Tasse,verspielt,"['Tasse', 'verspielt']",control,1,,,,,,323.17456099996343,323.17459949990734,"['Jacke', 'Lampe', 'Kette', 'Kamera', 'Vase', 'Bürste', 'Fahrrad', 'Schere', 'Ring', 'Socke', 'Eimer', 'Hammer', 'Telefon', 'Geige', 'Kiste', 'Würfel', 'Löffel', 'Blume', 'Buch', 'Tasse', 'Schlüssel', 'Trommel', 'Rucksack']",323.6707635000348,329.6775787998922,3,2.0208574002608657,None,329.6778592998162,329.6806588000618,None,329.6807657000609,329.683373299893,None,329.6834769002162,329.6846580998972,329.6846700999886,329.68592330021784,,,,,,,,,,,,,,,,,,,,,,,,,,,,,,,,,,,,,,,,,,,,,,,,,,,1,2024-01-11_09h05.56.149,watkins1,2023.2.3,99.76415796465335,86,2024-01-11 09h06.06.228241 +0000,
,,,,,,,,,,,20,0,20,0,,,,,,,,,,,,,329.68950940016657,,,,,,,,,,329.6861936999485,330.1828815001063,,,1,1.610637300182134,,,,,,,,,,,,None,None,,,,,,,,,,Schlüssel,gepunktet,"['Schlüssel', 'gepunktet']",restudy_diff,1,,,,,,329.6861306000501,329.68616930022836,"['Jacke', 'Lampe', 'Kette', 'Kamera', 'Vase', 'Bürste', 'Fahrrad', 'Schere', 'Ring', 'Socke', 'Eimer', 'Hammer', 'Telefon', 'Geige', 'Kiste', 'Würfel', 'Löffel', 'Blume', 'Buch', 'Tasse', 'Schlüssel', 'Trommel', 'Rucksack']",330.18289369996637,330.1846129000187,None,,,330.184740500059,330.1862801001407,None,330.1863847002387,336.19248219998553,1,336.19276539981365,336.1941573000513,336.19416960002854,336.1954390001483,1.610637300182134,None,,,,,,,,,,,,,,,,,,,,,,,,,,,,,,,,,,,,,,,,,,,,,,,,,1,2024-01-11_09h05.56.149,watkins1,2023.2.3,99.76415796465335,86,2024-01-11 09h06.06.228241 +0000,
,,,,,,,,,,,21,0,21,0,,,,,,,,,,,,,336.20200440008193,,,,,,,,,,336.1957120001316,336.69405910000205,,,[],[],,,,,,,,,,,,None,None,,,,,,,,,,Trommel,groß,"['Trommel', 'groß']",control,1,,,,,,336.195647300221,336.1956855999306,"['Jacke', 'Lampe', 'Kette', 'Kamera', 'Vase', 'Bürste', 'Fahrrad', 'Schere', 'Ring', 'Socke', 'Eimer', 'Hammer', 'Telefon', 'Geige', 'Kiste', 'Würfel', 'Löffel', 'Blume', 'Buch', 'Tasse', 'Schlüssel', 'Trommel', 'Rucksack']",336.694070099853,342.70231850026175,3,1.3818336999975145,None,342.7025969000533,342.705228399951,None,342.70533550018445,342.707810100168,None,342.70791589980945,342.7091594999656,342.70917129982263,342.7102353000082,,,,,,,,,,,,,,,,,,,,,,,,,,,,,,,,,,,,,,,,,,,,,,,,,,,1,2024-01-11_09h05.56.149,watkins1,2023.2.3,99.76415796465335,86,2024-01-11 09h06.06.228241 +0000,
,,,,,,,,,,,22,0,22,0,,,,,,,,,,,,,342.7138498001732,,,,,,,,,,342.7105074999854,343.20705030020326,,,1,0.9707497996278107,,,,,,,,,,,,None,None,,,,,,,,,,Rucksack,blass,"['Rucksack', 'blass']",restudy_diff,1,,,,,,342.7104436000809,342.7104823999107,"['Jacke', 'Lampe', 'Kette', 'Kamera', 'Vase', 'Bürste', 'Fahrrad', 'Schere', 'Ring', 'Socke', 'Eimer', 'Hammer', 'Telefon', 'Geige', 'Kiste', 'Würfel', 'Löffel', 'Blume', 'Buch', 'Tasse', 'Schlüssel', 'Trommel', 'Rucksack']",343.20706159994006,343.2087175999768,None,,,343.2088383999653,343.21052270010114,None,343.21062560006976,349.2191230999306,1,349.2194054001011,349.22080390015617,349.2208165000193,349.22202070010826,0.9707497996278107,None,,,,,,,,,,,,,,,,,,,,,,,,,,,,,,,,,,,,,,,,,,,,,,,,,1,2024-01-11_09h05.56.149,watkins1,2023.2.3,99.76415796465335,86,2024-01-11 09h06.06.228241 +0000,
,,,,,,,,,,,,,,,,,,,,,,,,,,,,,,,,,,,,,,,,,,,,,,,,,,,,,,,,,,,,,,,,,,,,,1,,,,,,,,,,,,,,,,,,,,,,,,,,,,,,,,,,,,,,,,,,,,,,,,,,,,,,,,,,,,,,,,,,,,,,,,,,1,2024-01-11_09h05.56.149,watkins1,2023.2.3,99.76415796465335,86,2024-01-11 09h06.06.228241 +0000,
(54 : 6) - 10 = 0 ,Incorrect,button_incorrect,,,,,,,,,,,,,0,0,0,5,,,,,,,,,359.39120500022545,,,,,,,,358.30591120012105,359.30977320019156,,,,,['button_incorrect'],[4.789549299981445],,,,,,,,,,,,,,,,,,,,,,,,,,distractorTask,1,,,,,,,,,,,,,,,,,,,,,,,,,,359.36729450011626,359.39120500022545,364.174312800169,[-0.3194444444444444],[-0.412962962962963],[1],[0],[0],[4.789549299981445],['button_incorrect'],364.175008200109,365.1779569000937,,,,,,,,,,,,,,,,,,,,,,,,,,,,,,,,,,,,,1,2024-01-11_09h05.56.149,watkins1,2023.2.3,99.76415796465335,86,2024-01-11 09h06.06.228241 +0000,
(28 : 7) - 3 = 1 ,Correct,button_correct,,,,,,,,,,,,,0,1,1,0,,,,,,,,,365.18805340025574,,,,,,,,,,,,,,['button_correct'],[6.805325000081211],,,,,,,,,,,,,,,,,,,,,,,,,,distractorTask,1,,,,,,,,,,,,,,,,,,,,,,,,,,365.1781529998407,365.18805340025574,371.98690220015123,[0.3611111111111111],[-0.38425925925925924],[1],[0],[0],[6.805325000081211],['button_correct'],371.9873013999313,372.9906243002042,,,,,,,,,,,,,,,,,,,,,,,,,,,,,,,,,,,,,1,2024-01-11_09h05.56.149,watkins1,2023.2.3,99.76415796465335,86,2024-01-11 09h06.06.228241 +0000,
(2 x 5) + 3 = 13 ,Correct,button_correct,,,,,,,,,,,,,0,2,2,2,,,,,,,,,373.00063369981945,,,,,,,,,,,,,,['button_correct'],[3.0899998997338116],,,,,,,,,,,,,,,,,,,,,,,,,,distractorTask,1,,,,,,,,,,,,,,,,,,,,,,,,,,372.99081919994205,373.00063369981945,376.0838171001524,[0.31574074074074077],[-0.38333333333333336],[1],[0],[0],[3.0899998997338116],['button_correct'],376.0842157001607,377.0876556998119,,,,,,,,,,,,,,,,,,,,,,,,,,,,,,,,,,,,,1,2024-01-11_09h05.56.149,watkins1,2023.2.3,99.76415796465335,86,2024-01-11 09h06.06.228241 +0000,
(80 : 10) + 9 = 17 ,Correct,button_correct,,,,,,,,,,,,,0,3,3,3,,,,,,,,,377.0977797000669,,,,,,,,,,,,,,['button_correct'],[2.999400199856609],,,,,,,,,,,,,,,,,,,,,,,,,,distractorTask,1,,,,,,,,,,,,,,,,,,,,,,,,,,377.08785529993474,377.0977797000669,380.09050860023126,[0.3055555555555556],[-0.41574074074074074],[1],[0],[0],[2.999400199856609],['button_correct'],380.0908968998119,381.0942297000438,,,,,,,,,,,,,,,,,,,,,,,,,,,,,,,,,,,,,1,2024-01-11_09h05.56.149,watkins1,2023.2.3,99.76415796465335,86,2024-01-11 09h06.06.228241 +0000,
(40 : 5) + 8 = 15 ,Incorrect,button_incorrect,,,,,,,,,,,,,0,4,4,7,,,,,,,,,381.10420370008796,,,,,,,,,,,,,,['button_incorrect'],"[4.196077200118452, 4.607729899697006]",,,,,,,,,,,,,,,,,,,,,,,,,,distractorTask,1,,,,,,,,,,,,,,,,,,,,,,,,,,381.0944269001484,381.10420370008796,385.7039014999755,"[-0.3425925925925926, -0.3416666666666667]","[-0.42777777777777776, -0.41574074074074074]","[1, 1]","[0, 0]","[0, 0]","[4.196077200118452, 4.607729899697006]",['button_incorrect'],385.704313499853,386.70745979994535,,,,,,,,,,,,,,,,,,,,,,,,,,,,,,,,,,,,,1,2024-01-11_09h05.56.149,watkins1,2023.2.3,99.76415796465335,86,2024-01-11 09h06.06.228241 +0000,
(9 x 5) - 9 = 36 ,Correct,button_correct,,,,,,,,,,,,,0,5,5,4,,,,,,,,,386.7175460001454,,,,,,,,,,,,,,['button_correct'],[4.286514100152999],,,,,,,,,,,,,,,,,,,,,,,,,,distractorTask,1,,,,,,,,,,,,,,,,,,,,,,,,,,386.7076484002173,386.7175460001454,390.9958836999722,[0.3972222222222222],[-0.4148148148148148],[1],[0],[0],[4.286514100152999],['button_correct'],390.99627389991656,391.9995515998453,,,,,,,,,,,,,,,,,,,,,,,,,,,,,,,,,,,,,1,2024-01-11_09h05.56.149,watkins1,2023.2.3,99.76415796465335,86,2024-01-11 09h06.06.228241 +0000,
(6 x 3) + 10 = 27 ,Incorrect,button_incorrect,,,,,,,,,,,,,0,6,6,8,,,,,,,,,392.00952479988337,,,,,,,,,,,,,,['button_incorrect'],[2.5190126998350024],,,,,,,,,,,,,,,,,,,,,,,,,,distractorTask,1,,,,,,,,,,,,,,,,,,,,,,,,,,391.9997551999986,392.00952479988337,394.52067389991134,[-0.40185185185185185],[-0.38333333333333336],[1],[0],[0],[2.5190126998350024],['button_incorrect'],394.52106299996376,395.524353899993,,,,,,,,,,,,,,,,,,,,,,,,,,,,,,,,,,,,,1,2024-01-11_09h05.56.149,watkins1,2023.2.3,99.76415796465335,86,2024-01-11 09h06.06.228241 +0000,
(7 x 6) + 9 = 48 ,Incorrect,button_incorrect,,,,,,,,,,,,,0,7,7,9,,,,,,,,,395.53428940009326,,,,,,,,,,,,,,['button_incorrect'],[3.613787400070578],,,,,,,,,,,,,,,,,,,,,,,,,,distractorTask,1,,,,,,,,,,,,,,,,,,,,,,,,,,395.5245496002026,395.53428940009326,399.1400716002099,[-0.31574074074074077],[-0.38333333333333336],[1],[0],[0],[3.613787400070578],['button_incorrect'],399.14047330012545,400.1438739998266,,,,,,,,,,,,,,,,,,,,,,,,,,,,,,,,,,,,,1,2024-01-11_09h05.56.149,watkins1,2023.2.3,99.76415796465335,86,2024-01-11 09h06.06.228241 +0000,
(4 : 2) + 4 = 6 ,Correct,button_correct,,,,,,,,,,,,,0,8,8,1,,,,,,,,,400.15383620001376,,,,,,,,,,,,,,['button_correct'],[2.840119000058621],,,,,,,,,,,,,,,,,,,,,,,,,,distractorTask,1,,,,,,,,,,,,,,,,,,,,,,,,,,400.14407389983535,400.15383620001376,402.9859126000665,[0.37962962962962965],[-0.40555555555555556],[1],[0],[0],[2.840119000058621],['button_correct'],402.9862995999865,403.9897420001216,,,,,,,,,,,,,,,,,,,,,,,,,,,,,,,,,,,,,1,2024-01-11_09h05.56.149,watkins1,2023.2.3,99.76415796465335,86,2024-01-11 09h06.06.228241 +0000,
(25 : 5) + 5 = 9 ,Incorrect,button_incorrect,,,,,,,,,,,,,0,9,9,6,,,,,,,,,403.9997502998449,,,,,,,,,,,,,,['button_incorrect'],[2.2175234998576343],,,,,,,,,,,,,,,,,,,,,,,,,,distractorTask,1,,,,,,,,,,,,,,,,,,,,,,,,,,403.9899403001182,403.9997502998449,406.20919409999624,[-0.32592592592592595],[-0.3814814814814815],[1],[0],[0],[2.2175234998576343],['button_incorrect'],406.20958549994975,407.21325419982895,,,,,,,,,,,,,,,,,,,,,,,,,,,,,,,,,,,,,1,2024-01-11_09h05.56.149,watkins1,2023.2.3,99.76415796465335,86,2024-01-11 09h06.06.228241 +0000,
,,,,,,,,,,,,,,,,,,,,,,,,,,,,,,,,,,,,,,,,,,,,,,,,,,,,,,,,,,,,,,,,,,,,,1,,,,,,,,,,,,,,,,,,,,,,,,,,,,,,,,,,,,,,,,,,,,,,,,,,,,,,,,,,,,,,,,,,,,,,,,,,1,2024-01-11_09h05.56.149,watkins1,2023.2.3,99.76415796465335,86,2024-01-11 09h06.06.228241 +0000,
,,,,,,,,,,,,,,,,,,,0,0,0,0,,,,,419.43324080016464,,,,,,,,,,,,,,Vase,5.008506200276315,,,,,,,,,,,,3.544822699856013,None,,,,,,,,,,,,,freeRecallSub,1,,,,,,,,,,,,,,,,,,,,,,,,,,,,,,,,,,,,,,419.4245692002587,419.43324080016464,419.43324080016464,424.4450870999135,return,5.008506200276315,None,Vase,[-0.08888888888888889],[0.040740740740740744],[1],[0],[0],[1.4646997000090778],[],,,,,,,,,,,,,,,,,,,,,,1,2024-01-11_09h05.56.149,watkins1,2023.2.3,99.76415796465335,86,2024-01-11 09h06.06.228241 +0000,
,,,,,,,,,,,,,,,,,,,1,0,1,0,,,,,424.45893590012565,,,,,,,,,,,,,,Blume,3.0708262999542058,,,,,,,,,,,,0.8174130995757878,None,,,,,,,,,,,,,freeRecallSub,1,,,,,,,,,,,,,,,,,,,,,,,,,,,,,,,,,,,,,,424.4484426002018,424.45893590012565,424.45893590012565,427.53577829990536,return,3.0708262999542058,None,Blume,[],[],[],[],[],[],[],,,,,,,,,,,,,,,,,,,,,,1,2024-01-11_09h05.56.149,watkins1,2023.2.3,99.76415796465335,86,2024-01-11 09h06.06.228241 +0000,
,,,,,,,,,,,,,,,,,,,2,0,2,0,,,,,427.5468007000163,,,,,,,,,,,,,,Schlüssel,4.214883400127292,,,,,,,,,,,,1.0248011997900903,None,,,,,,,,,,,,,freeRecallSub,1,,,,,,,,,,,,,,,,,,,,,,,,,,,,,,,,,,,,,,427.53709510015324,427.5468007000163,427.5468007000163,431.76556329987943,return,4.214883400127292,None,Schlüssel,[],[],[],[],[],[],[],,,,,,,,,,,,,,,,,,,,,,1,2024-01-11_09h05.56.149,watkins1,2023.2.3,99.76415796465335,86,2024-01-11 09h06.06.228241 +0000,
,,,,,,,,,,,,,,,,,,,3,0,3,0,,,,,431.77668409980834,,,,,,,,,,,,,,Fahrrad,3.112939099781215,,,,,,,,,,,,0.8541890000924468,None,,,,,,,,,,,,,freeRecallSub,1,,,,,,,,,,,,,,,,,,,,,,,,,,,,,,,,,,,,,,431.7668548999354,431.77668409980834,431.77668409980834,434.89029539981857,return,3.112939099781215,None,Fahrrad,[],[],[],[],[],[],[],,,,,,,,,,,,,,,,,,,,,,1,2024-01-11_09h05.56.149,watkins1,2023.2.3,99.76415796465335,86,2024-01-11 09h06.06.228241 +0000,
,,,,,,,,,,,,,,,,,,,4,0,4,0,,,,,434.90147380018607,,,,,,,,,,,,,,Kette,2.7402594997547567,,,,,,,,,,,,0.5428482000716031,None,,,,,,,,,,,,,freeRecallSub,1,,,,,,,,,,,,,,,,,,,,,,,,,,,,,,,,,,,,,,434.8915850999765,434.90147380018607,434.90147380018607,437.64389060018584,return,2.7402594997547567,None,Kette,[],[],[],[],[],[],[],,,,,,,,,,,,,,,,,,,,,,1,2024-01-11_09h05.56.149,watkins1,2023.2.3,99.76415796465335,86,2024-01-11 09h06.06.228241 +0000,
,,,,,,,,,,,,,,,,,,,5,0,5,0,,,,,437.65515970019624,,,,,,,,,,,,,,Buch,13.290574400220066,,,,,,,,,,,,11.900936100166291,None,,,,,,,,,,,,,freeRecallSub,1,,,,,,,,,,,,,,,,,,,,,,,,,,,,,,,,,,,,,,437.64516590023413,437.65515970019624,437.65515970019624,450.95224229991436,return,13.290574400220066,None,Buch,[],[],[],[],[],[],[],,,,,,,,,,,,,,,,,,,,,,1,2024-01-11_09h05.56.149,watkins1,2023.2.3,99.76415796465335,86,2024-01-11 09h06.06.228241 +0000,
,,,,,,,,,,,,,,,,,,,6,0,6,0,,,,,450.9634043998085,,,,,,,,,,,,,,Bürste,43.446218699682504,,,,,,,,,,,,41.36796259973198,None,,,,,,,,,,,,,freeRecallSub,1,,,,,,,,,,,,,,,,,,,,,,,,,,,,,,,,,,,,,,450.95383499981835,450.9634043998085,450.9634043998085,494.4100823998451,return,43.446218699682504,None,Bürste,[],[],[],[],[],[],[],,,,,,,,,,,,,,,,,,,,,,1,2024-01-11_09h05.56.149,watkins1,2023.2.3,99.76415796465335,86,2024-01-11 09h06.06.228241 +0000,
,,,,,,,,,,,,,,,,,,,7,0,7,0,,,,,494.42126839980483,,,,,,,,,,,,,,Ring,55.42039370024577,,,,,,,,,,,,54.00612090015784,None,,,,,,,,,,,,,freeRecallSub,1,,,,,,,,,,,,,,,,,,,,,,,,,,,,,,,,,,,,,,494.41139570018277,494.42126839980483,494.42126839980483,549.8439223999158,return,55.42039370024577,None,Ring,[],[],[],[],[],[],[],,,,,,,,,,,,,,,,,,,,,,1,2024-01-11_09h05.56.149,watkins1,2023.2.3,99.76415796465335,86,2024-01-11 09h06.06.228241 +0000,
,,,,,,,,,,,,,,,,,,,8,0,8,0,,,,,549.8567193998024,,,,,,,,,,,,,,Würfel,11.465002899989486,,,,,,,,,,,,9.343247700016946,None,,,,,,,,,,,,,freeRecallSub,1,,,,,,,,,,,,,,,,,,,,,,,,,,,,,,,,,,,,,,549.8452427000739,549.8567193998024,549.8567193998024,561.3279116000049,return,11.465002899989486,None,Würfel,[],[],[],[],[],[],[],,,,,,,,,,,,,,,,,,,,,,1,2024-01-11_09h05.56.149,watkins1,2023.2.3,99.76415796465335,86,2024-01-11 09h06.06.228241 +0000,
,,,,,,,,,,,,,,,,,,,9,0,9,0,,,,,561.340026000049,,,,,,,,,,,,,,,[],,,,,,,,,,,,None,None,,,,,,,,,,,,,freeRecallSub,1,,,,,,,,,,,,,,,,,,,,,,,,,,,,,,,,,,,,,,561.3292171000503,561.340026000049,561.340026000049,641.163483900018,None,,,,[0.2675925925925926],[-0.39444444444444443],[1],[0],[0],[79.82949650008231],"['button_continue', 'continue_text']",,,,,,,,,,,,,,,,,,,,,,1,2024-01-11_09h05.56.149,watkins1,2023.2.3,99.76415796465335,86,2024-01-11 09h06.06.228241 +0000,
,,,,,,,,,,,,,,,,,,,,,,,,,,,,,,,,,,,,,,,,,,,,,,,,,,,,,,,,,,,,,,,,,,,,,1,,,,,,,,,,,,,,,,,,,,,,,,,,,,,,,,,,,,,,,,,,,,,,,,,,,,,,,,,,,,,,,,,,,,,,,,,,1,2024-01-11_09h05.56.149,watkins1,2023.2.3,99.76415796465335,86,2024-01-11 09h06.06.228241 +0000,
,,,,,,,,,,,,,,,,,,,,,,,0,0,0,0,650.5282290000468,,,,,,,,,,667.6028097001836,668.1011140998453,,,,17.065495199989527,,,,,,,,,,,,None,None,,,,,,,,,,Eimer,,,cuedRecallAdj,1,,,,,,,,,,,,,,,,,,,,,,,,,,,,,,,,,,,,,,,,,,,,,,,,,,,,,650.5192471002229,650.5282290000468,0,650.5282290000468,667.599383899942,glänzend,return,17.065495199989527,None,667.5997820999473,667.6089725000784,667.6089725000784,667.6026523998007,,None,,,,,,,1,2024-01-11_09h05.56.149,watkins1,2023.2.3,99.76415796465335,86,2024-01-11 09h06.06.228241 +0000,
,,,,,,,,,,,,,,,,,,,,,,,1,0,1,0,668.1110229999758,,,,,,,,,,671.6184268998913,672.1076930998825,,,,3.498775000218302,,,,,,,,,,,,None,None,,,,,,,,,,Jacke,,,cuedRecallAdj,1,,,,,,,,,,,,,,,,,,,,,,,,,,,,,,,,,,,,,,,,,,,,,,,,,,,,,668.1013632002287,668.1110229999758,0,668.1110229999758,671.6160348998383,,return,3.498775000218302,None,671.616320299916,671.6256391000934,671.6256391000934,671.6183174001053,,None,,,,,,,1,2024-01-11_09h05.56.149,watkins1,2023.2.3,99.76415796465335,86,2024-01-11 09h06.06.228241 +0000,
,,,,,,,,,,,,,,,,,,,,,,,2,0,2,0,672.1176231000572,,,,,,,,,,676.0761889000423,676.5659325001761,,,,3.948162999935448,,,,,,,,,,,,None,None,,,,,,,,,,Schere,,,cuedRecallAdj,1,,,,,,,,,,,,,,,,,,,,,,,,,,,,,,,,,,,,,,,,,,,,,,,,,,,,,672.1079539000057,672.1176231000572,0,672.1176231000572,676.0741910999641,,return,3.948162999935448,None,676.07446049992,676.0838786000386,676.0838786000386,676.0760873002,,None,,,,,,,1,2024-01-11_09h05.56.149,watkins1,2023.2.3,99.76415796465335,86,2024-01-11 09h06.06.228241 +0000,
,,,,,,,,,,,,,,,,,,,,,,,3,0,3,0,676.5759959998541,,,,,,,,,,690.8254122999497,691.3166372999549,,,,12.473760099615902,,,,,,,,,,,,1.7667014999315143,None,,,,,,,,,,Rucksack,,,cuedRecallAdj,1,,,,,,,,,,,,,,,,,,,,,,,,,,,,,,,,,,,,,,,,,,,,,,,,,,,,,676.5661792000756,676.5759959998541,0,676.5759959998541,689.0576172000729,sauber,return,12.473760099615902,None,689.0578828002326,689.0673667998053,689.0673667998053,690.825064800214,,return,1.7504274998791516,None,,,,,1,2024-01-11_09h05.56.149,watkins1,2023.2.3,99.76415796465335,86,2024-01-11 09h06.06.228241 +0000,
,,,,,,,,,,,,,,,,,,,,,,,4,0,4,0,691.3266930999234,,,,,,,,,,695.2760971002281,695.77498249989,,,,3.9390082000754774,,,,,,,,,,,,None,None,,,,,,,,,,Trommel,,,cuedRecallAdj,1,,,,,,,,,,,,,,,,,,,,,,,,,,,,,,,,,,,,,,,,,,,,,,,,,,,,,691.3168897000141,691.3266930999234,0,691.3266930999234,695.2731423000805,groß,return,3.9390082000754774,None,695.2734086001292,695.2829141002148,695.2829141002148,695.275992800016,,None,,,,,,,1,2024-01-11_09h05.56.149,watkins1,2023.2.3,99.76415796465335,86,2024-01-11 09h06.06.228241 +0000,
,,,,,,,,,,,,,,,,,,,,,,,5,0,5,0,695.7849186002277,,,,,,,,,,713.3744843997993,713.8725729002617,,,,17.584852100349963,,,,,,,,,,,,None,None,,,,,,,,,,Tasse,,,cuedRecallAdj,1,,,,,,,,,,,,,,,,,,,,,,,,,,,,,,,,,,,,,,,,,,,,,,,,,,,,,695.775233599823,695.7849186002277,0,695.7849186002277,713.371170300059,verschnörkelt,return,17.584852100349963,None,713.3714314000681,713.3807099000551,713.3807099000551,713.37438319996,,None,,,,,,,1,2024-01-11_09h05.56.149,watkins1,2023.2.3,99.76415796465335,86,2024-01-11 09h06.06.228241 +0000,
,,,,,,,,,,,,,,,,,,,,,,,6,0,6,0,713.8824424999766,,,,,,,,,,720.7118661999702,721.2031805999577,,,,6.047306099906564,,,,,,,,,,,,0.7726527000777423,None,,,,,,,,,,Bürste,,,cuedRecallAdj,1,,,,,,,,,,,,,,,,,,,,,,,,,,,,,,,,,,,,,,,,,,,,,,,,,,,,,713.8728296998888,713.8824424999766,0,713.8824424999766,719.93819240015,glänzend,return,6.047306099906564,None,719.93846450001,719.947848000098,719.947848000098,720.7115972000174,,return,0.7579202996566892,None,,,,,1,2024-01-11_09h05.56.149,watkins1,2023.2.3,99.76415796465335,86,2024-01-11 09h06.06.228241 +0000,
,,,,,,,,,,,,,,,,,,,,,,,7,0,7,0,721.2132100998424,,,,,,,,,,728.735144900158,729.2265149001032,,,neu,5.820477100089192,,,,,,,,,,,,0.7222144003026187,None,,,,,,,,,,Hammer,,,cuedRecallAdj,1,,,,,,,,,,,,,,,,,,,,,,,,,,,,,,,,,,,,,,,,,,,,,,,,,,,,,721.2034292998724,721.2132100998424,0,721.2132100998424,727.0378657002002,elegant,return,5.820477100089192,None,727.0381366000511,727.0474725002423,727.0474725002423,728.7348734000698,neu,return,1.6822337000630796,None,,,,,1,2024-01-11_09h05.56.149,watkins1,2023.2.3,99.76415796465335,86,2024-01-11 09h06.06.228241 +0000,
,,,,,,,,,,,,,,,,,,,,,,,8,0,8,0,729.2364364000969,,,,,,,,,,741.0767181999981,741.5681718001142,,,dick,3.941269800066948,,,,,,,,,,,,6.827907300088555,None,,,,,,,,,,Telefon,,,cuedRecallAdj,1,,,,,,,,,,,,,,,,,,,,,,,,,,,,,,,,,,,,,,,,,,,,,,,,,,,,,729.2267626002431,729.2364364000969,0,729.2364364000969,733.1834391998127,kurz,return,3.941269800066948,None,733.1837011999451,733.1929815998301,733.1929815998301,741.0764454999007,dick,return,7.880751600023359,None,,,,,1,2024-01-11_09h05.56.149,watkins1,2023.2.3,99.76415796465335,86,2024-01-11 09h06.06.228241 +0000,
,,,,,,,,,,,,,,,,,,,,,,,9,0,9,0,741.5781203000806,,,,,,,,,,761.7023748001084,762.1936964998022,,,,19.903539199847728,,,,,,,,,,,,0.2103181998245418,None,,,,,,,,,,Kamera,,,cuedRecallAdj,1,,,,,,,,,,,,,,,,,,,,,,,,,,,,,,,,,,,,,,,,,,,,,,,,,,,,,741.5684185000136,741.5781203000806,0,741.5781203000806,761.4910598001443,zerbrechlich,return,19.903539199847728,None,761.4913274999708,761.5008116001263,761.5008116001263,761.702110900078,,return,0.19694739999249578,None,,,,,1,2024-01-11_09h05.56.149,watkins1,2023.2.3,99.76415796465335,86,2024-01-11 09h06.06.228241 +0000,
,,,,,,,,,,,,,,,,,,,,,,,10,0,10,0,762.2037165001966,,,,,,,,,,768.1790825999342,768.6704517998733,,,,3.9581263000145555,,,,,,,,,,,,2.0077776997350156,None,,,,,,,,,,Kiste,,,cuedRecallAdj,1,,,,,,,,,,,,,,,,,,,,,,,,,,,,,,,,,,,,,,,,,,,,,,,,,,,,,762.1939485999756,762.2037165001966,0,762.2037165001966,766.1704875002615,kapputt,return,3.9581263000145555,None,766.1707518999465,766.1802027998492,766.1802027998492,768.1788123999722,,return,1.9895081999711692,None,,,,,1,2024-01-11_09h05.56.149,watkins1,2023.2.3,99.76415796465335,86,2024-01-11 09h06.06.228241 +0000,
,,,,,,,,,,,,,,,,,,,,,,,11,0,11,0,768.6804510001093,,,,,,,,,,774.3247218998149,774.8160009998828,,,,3.0813242997974157,,,,,,,,,,,,2.5598164997063577,None,,,,,,,,,,Löffel,,,cuedRecallAdj,1,,,,,,,,,,,,,,,,,,,,,,,,,,,,,,,,,,,,,,,,,,,,,,,,,,,,,768.670699799899,768.6804510001093,0,768.6804510001093,771.7638869998045,breit,return,3.0813242997974157,None,771.7641553999856,771.7733753002249,771.7733753002249,774.3244321001694,,return,2.5484116999432445,None,,,,,1,2024-01-11_09h05.56.149,watkins1,2023.2.3,99.76415796465335,86,2024-01-11 09h06.06.228241 +0000,
,,,,,,,,,,,,,,,,,,,,,,,12,0,12,0,774.8259549001232,,,,,,,,,,777.9217131999321,778.4110693000257,,,,3.0877669998444617,,,,,,,,,,,,None,None,,,,,,,,,,Lampe,,,cuedRecallAdj,1,,,,,,,,,,,,,,,,,,,,,,,,,,,,,,,,,,,,,,,,,,,,,,,,,,,,,774.8162448001094,774.8259549001232,0,774.8259549001232,777.9194581001066,,return,3.0877669998444617,None,777.9197256001644,777.928973400034,777.928973400034,777.9216125002131,,None,,,,,,,1,2024-01-11_09h05.56.149,watkins1,2023.2.3,99.76415796465335,86,2024-01-11 09h06.06.228241 +0000,
,,,,,,,,,,,,,,,,,,,,,,,13,0,13,0,778.4209933998063,,,,,,,,,,789.397234399803,789.8886007000692,,,dreckig,5.212688900064677,,,,,,,,,,,,3.6643690997734666,None,,,,,,,,,,Blume,,,cuedRecallAdj,1,,,,,,,,,,,,,,,,,,,,,,,,,,,,,,,,,,,,,,,,,,,,,,,,,,,,,778.4113182998262,778.4209933998063,0,778.4209933998063,783.6433287998661,biegsam,return,5.212688900064677,None,783.6435934999026,783.6530408998951,783.6530408998951,789.3969649998471,dreckig,return,5.740749699994922,None,,,,,1,2024-01-11_09h05.56.149,watkins1,2023.2.3,99.76415796465335,86,2024-01-11 09h06.06.228241 +0000,
,,,,,,,,,,,,,,,,,,,,,,,14,0,14,0,789.8985478002578,,,,,,,,,,801.7793399002403,802.2706801998429,,,sportlich,3.879306700080633,,,,,,,,,,,,5.753774200100452,None,,,,,,,,,,Würfel,,,cuedRecallAdj,1,,,,,,,,,,,,,,,,,,,,,,,,,,,,,,,,,,,,,,,,,,,,,,,,,,,,,789.8888401002623,789.8985478002578,0,789.8985478002578,793.7848783000372,winzig,return,3.879306700080633,None,793.7851379998028,793.7945026000962,793.7945026000962,801.779047400225,sportlich,return,7.983180499635637,None,,,,,1,2024-01-11_09h05.56.149,watkins1,2023.2.3,99.76415796465335,86,2024-01-11 09h06.06.228241 +0000,
,,,,,,,,,,,,,,,,,,,,,,,15,0,15,0,802.2805825998075,,,,,,,,,,808.9798969998956,809.4710105000995,,,krumm,4.361113500315696,,,,,,,,,,,,0.8230123999528587,None,,,,,,,,,,Geige,,,cuedRecallAdj,1,,,,,,,,,,,,,,,,,,,,,,,,,,,,,,,,,,,,,,,,,,,,,,,,,,,,,802.2709321002476,802.2805825998075,0,802.2805825998075,806.6491958000697,hohl,return,4.361113500315696,None,806.6494638002478,806.6589660001919,806.6589660001919,808.9796036002226,krumm,return,2.318730799946934,None,,,,,1,2024-01-11_09h05.56.149,watkins1,2023.2.3,99.76415796465335,86,2024-01-11 09h06.06.228241 +0000,
,,,,,,,,,,,,,,,,,,,,,,,16,0,16,0,809.4809359000064,,,,,,,,,,815.6974353999831,816.1889343000948,,,,4.85678349994123,,,,,,,,,,,,1.3547165002673864,None,,,,,,,,,,Schlüssel,,,cuedRecallAdj,1,,,,,,,,,,,,,,,,,,,,,,,,,,,,,,,,,,,,,,,,,,,,,,,,,,,,,809.4712626999244,809.4809359000064,0,809.4809359000064,814.341868000105,schwer,return,4.85678349994123,None,814.3421673001722,814.3513533999212,814.3513533999212,815.6971633001231,,return,1.3383361003361642,None,,,,,1,2024-01-11_09h05.56.149,watkins1,2023.2.3,99.76415796465335,86,2024-01-11 09h06.06.228241 +0000,
,,,,,,,,,,,,,,,,,,,,,,,17,0,17,0,816.1988559998572,,,,,,,,,,818.7419902998954,819.2314154999331,,,,2.530824199784547,,,,,,,,,,,,None,None,,,,,,,,,,Stift,,,cuedRecallAdj,1,,,,,,,,,,,,,,,,,,,,,,,,,,,,,,,,,,,,,,,,,,,,,,,,,,,,,816.1892018998042,816.1988559998572,0,816.1988559998572,818.7397623001598,,return,2.530824199784547,None,818.7400282998569,818.7495156000368,818.7495156000368,818.7418891000561,,None,,,,,,,1,2024-01-11_09h05.56.149,watkins1,2023.2.3,99.76415796465335,86,2024-01-11 09h06.06.228241 +0000,
,,,,,,,,,,,,,,,,,,,,,,,18,0,18,0,819.2414692002349,,,,,,,,,,830.0774110001512,830.5688416999765,,,,5.400366500020027,,,,,,,,,,,,5.432280800305307,None,,,,,,,,,,Vase,,,cuedRecallAdj,1,,,,,,,,,,,,,,,,,,,,,,,,,,,,,,,,,,,,,,,,,,,,,,,,,,,,,819.2316773999482,819.2414692002349,0,819.2414692002349,824.64415619988,hässlich,return,5.400366500020027,None,824.644424600061,824.6536968001164,824.6536968001164,830.0771436002105,,return,5.419986599590629,None,,,,,1,2024-01-11_09h05.56.149,watkins1,2023.2.3,99.76415796465335,86,2024-01-11 09h06.06.228241 +0000,
,,,,,,,,,,,,,,,,,,,,,,,19,0,19,0,830.5788901001215,,,,,,,,,,834.3375526000746,834.836262000259,,,,3.750775400083512,,,,,,,,,,,,None,None,,,,,,,,,,Hut,,,cuedRecallAdj,1,,,,,,,,,,,,,,,,,,,,,,,,,,,,,,,,,,,,,,,,,,,,,,,,,,,,,830.5690897000022,830.5788901001215,0,830.5788901001215,834.3346779998392,schön,return,3.750775400083512,None,834.3349465001374,834.3442786000669,834.3442786000669,834.3374517001212,,None,,,,,,,1,2024-01-11_09h05.56.149,watkins1,2023.2.3,99.76415796465335,86,2024-01-11 09h06.06.228241 +0000,
,,,,,,,,,,,,,,,,,,,,,,,20,0,20,0,834.8461723001674,,,,,,,,,,839.6293816999532,840.1186938998289,,,,4.771530000027269,,,,,,,,,,,,None,None,,,,,,,,,,Flasche,,,cuedRecallAdj,1,,,,,,,,,,,,,,,,,,,,,,,,,,,,,,,,,,,,,,,,,,,,,,,,,,,,,834.8365151998587,834.8461723001674,0,834.8461723001674,839.6262850002386,sauber,return,4.771530000027269,None,839.6265513999388,839.6360133001581,839.6360133001581,839.6292803999968,,None,,,,,,,1,2024-01-11_09h05.56.149,watkins1,2023.2.3,99.76415796465335,86,2024-01-11 09h06.06.228241 +0000,
,,,,,,,,,,,,,,,,,,,,,,,21,0,21,0,840.1286396998912,,,,,,,,,,851.6874432000332,852.1787682999857,,,,6.425069599878043,,,,,,,,,,,,2.47919650003314,4.8590191998519,,,,,,,,,,Fahrrad,,,cuedRecallAdj,1,,,,,,,,,,,,,,,,,,,,,,,,,,,,,,,,,,,,,,,,,,,,,,,,,,,,,840.1189406998456,840.1286396998912,0,840.1286396998912,846.5563695998862,elegant,return,6.425069599878043,None,846.5566459000111,846.5657569998875,846.5657569998875,851.6871696999297,,return,5.115961899980903,None,,,,,1,2024-01-11_09h05.56.149,watkins1,2023.2.3,99.76415796465335,86,2024-01-11 09h06.06.228241 +0000,
,,,,,,,,,,,,,,,,,,,,,,,22,0,22,0,852.1887484998442,,,,,,,,,,856.0682129999623,856.5669678999111,,,,3.8689051000401378,,,,,,,,,,,,None,None,,,,,,,,,,Kette,,,cuedRecallAdj,1,,,,,,,,,,,,,,,,,,,,,,,,,,,,,,,,,,,,,,,,,,,,,,,,,,,,,852.1790197999217,852.1887484998442,0,852.1887484998442,856.0652423999272,robust,return,3.8689051000401378,None,856.0655040000565,856.0749316001311,856.0749316001311,856.0681137000211,,None,,,,,,,1,2024-01-11_09h05.56.149,watkins1,2023.2.3,99.76415796465335,86,2024-01-11 09h06.06.228241 +0000,
,,,,,,,,,,,,,,,,,,,,,,,23,0,23,0,856.5769091998227,,,,,,,,,,866.1810155999847,866.6797747001983,,,,9.592895400244743,,,,,,,,,,,,None,None,,,,,,,,,,Kerze,,,cuedRecallAdj,1,,,,,,,,,,,,,,,,,,,,,,,,,,,,,,,,,,,,,,,,,,,,,,,,,,,,,856.5672114999034,856.5769091998227,0,856.5769091998227,866.1779078999534,nützlich,return,9.592895400244743,None,866.1781787998043,866.1875883000903,866.1875883000903,866.180910800118,,None,,,,,,,1,2024-01-11_09h05.56.149,watkins1,2023.2.3,99.76415796465335,86,2024-01-11 09h06.06.228241 +0000,
,,,,,,,,,,,,,,,,,,,,,,,24,0,24,0,866.6898130998015,,,,,,,,,,870.5090411999263,871.0076398998499,,,,3.8079794999212027,,,,,,,,,,,,None,None,,,,,,,,,,Buch,,,cuedRecallAdj,1,,,,,,,,,,,,,,,,,,,,,,,,,,,,,,,,,,,,,,,,,,,,,,,,,,,,,866.6800231002271,866.6898130998015,0,866.6898130998015,870.5059294002131,lang,return,3.8079794999212027,None,870.5061957999133,870.5156812001951,870.5156812001951,870.5089381998405,,None,,,,,,,1,2024-01-11_09h05.56.149,watkins1,2023.2.3,99.76415796465335,86,2024-01-11 09h06.06.228241 +0000,
,,,,,,,,,,,,,,,,,,,,,,,25,0,25,0,871.0175001998432,,,,,,,,,,876.0717982999049,876.5708091999404,,,,5.04829220008105,,,,,,,,,,,,None,None,,,,,,,,,,Brille,,,cuedRecallAdj,1,,,,,,,,,,,,,,,,,,,,,,,,,,,,,,,,,,,,,,,,,,,,,,,,,,,,,871.0078921001405,871.0175001998432,0,871.0175001998432,876.0693653002381,,return,5.04829220008105,None,876.0696355998516,876.0788660999388,876.0788660999388,876.0716895000078,,None,,,,,,,1,2024-01-11_09h05.56.149,watkins1,2023.2.3,99.76415796465335,86,2024-01-11 09h06.06.228241 +0000,
,,,,,,,,,,,,,,,,,,,,,,,26,0,26,0,876.5807381002232,,,,,,,,,,884.926299800165,885.4176905001514,,,bunt,6.253009400330484,,,,,,,,,,,,0.4612031998112798,None,,,,,,,,,,Ring,,,cuedRecallAdj,1,,,,,,,,,,,,,,,,,,,,,,,,,,,,,,,,,,,,,,,,,,,,,,,,,,,,,876.571064400021,876.5807381002232,0,876.5807381002232,882.8374433000572,klobig,return,6.253009400330484,None,882.8377105002292,882.8469425998628,882.8469425998628,884.926028800197,bunt,return,2.0747563000768423,None,,,,,1,2024-01-11_09h05.56.149,watkins1,2023.2.3,99.76415796465335,86,2024-01-11 09h06.06.228241 +0000,
,,,,,,,,,,,,,,,,,,,,,,,27,0,27,0,885.4276462998241,,,,,,,,,,888.1920684999786,888.6910916999914,,,,2.758091399911791,,,,,,,,,,,,None,None,,,,,,,,,,Tasche,,,cuedRecallAdj,1,,,,,,,,,,,,,,,,,,,,,,,,,,,,,,,,,,,,,,,,,,,,,,,,,,,,,885.4179412000813,885.4276462998241,0,885.4276462998241,888.1895018001087,,return,2.758091399911791,None,888.189769399818,888.198986500036,888.198986500036,888.1919678002596,,None,,,,,,,1,2024-01-11_09h05.56.149,watkins1,2023.2.3,99.76415796465335,86,2024-01-11 09h06.06.228241 +0000,
,,,,,,,,,,,,,,,,,,,,,,,28,0,28,0,888.7009868999012,,,,,,,,,,895.8013412998989,896.2930217999965,,,,6.604709800332785,,,,,,,,,,,,0.4910939000546932,None,,,,,,,,,,Socke,,,cuedRecallAdj,1,,,,,,,,,,,,,,,,,,,,,,,,,,,,,,,,,,,,,,,,,,,,,,,,,,,,,888.6913419999182,888.7009868999012,0,888.7009868999012,895.3092462001368,glatt,return,6.604709800332785,None,895.309508100152,895.3187818001024,895.3187818001024,895.8010728000663,,return,0.4748816997744143,None,,,,,1,2024-01-11_09h05.56.149,watkins1,2023.2.3,99.76415796465335,86,2024-01-11 09h06.06.228241 +0000,
,,,,,,,,,,,,,,,,,,,,,,,29,0,29,0,896.3029685998335,,,,,,,,,,905.47463349998,905.973216699902,,,,9.162849600426853,,,,,,,,,,,,None,None,,,,,,,,,,Uhr,,,cuedRecallAdj,1,,,,,,,,,,,,,,,,,,,,,,,,,,,,,,,,,,,,,,,,,,,,,,,,,,,,,896.293278799858,896.3029685998335,0,896.3029685998335,905.4716197000816,durchsichtig,return,9.162849600426853,None,905.4718908001669,905.4811374000274,905.4811374000274,905.4745308002457,,None,,,,,,,1,2024-01-11_09h05.56.149,watkins1,2023.2.3,99.76415796465335,86,2024-01-11 09h06.06.228241 +0000,
,,,,,,,,,,,,,,,,,,,,,,,,,,,,,,,,,,,,,,,,,,,,,,,,,,,,,,,,,,,,,,,,,,,,,1,,,,,,,,,,,,,,,,,,,,,,,,,,,,,,,,,,,,,,,,,,,,,,,,,,,,,,,,,,,,,,,,,,,,,,905.9903911999427,q,4856.163841099944,None,1,2024-01-11_09h05.56.149,watkins1,2023.2.3,99.76415796465335,86,2024-01-11 09h06.06.228241 +0000,
