Equation,CorrectResponse,Correctbutton,trials_7.thisRepN,trials_7.thisTrialN,trials_7.thisN,trials_7.thisIndex,trials.thisRepN,trials.thisTrialN,trials.thisN,trials.thisIndex,trials_3.thisRepN,trials_3.thisTrialN,trials_3.thisN,trials_3.thisIndex,trials_2.thisRepN,trials_2.thisTrialN,trials_2.thisN,trials_2.thisIndex,trials_4.thisRepN,trials_4.thisTrialN,trials_4.thisN,trials_4.thisIndex,trials_5.thisRepN,trials_5.thisTrialN,trials_5.thisN,trials_5.thisIndex,thisRow.t,notes,list_sub_restudy,list_sub_testsub,code_marius.started,code_marius.stopped,welcome.started,welcome.stopped,instruction_study.started,instruction_study.stopped,fixationcross.started,fixationcross.stopped,blanc.started,blanc.stopped,study_control_probe.started,study_control_probe.stopped,responseKey,responseTime,scale_answer_2.keys,study_control_probe_2.started,study_control_probe_2.stopped,scale_answer_3.keys,scale_answer_3.rt,scale_answer_3.duration,blanc_2.started,blanc_2.stopped,test_attr_probe.started,test_attr_probe.stopped,recalled_attr,firstKeyTime,secondWordTime,blanc_3.started,blanc_3.stopped,test_sub_probe.started,test_sub_probe.stopped,recalled_sub,instruction_probe_end.started,instruction_probe_end.stopped,study.started,study.stopped,substantive,adjective,wordpair,task,condition,liste_sub_phase1,liste_adj_phase1,scale_answer.keys,scale_answer.rt,scale_answer.duration,code_defineWordsInit.started,code_defineWordsInit.stopped,liste_sub_phase2,study_control.started,study_control.stopped,scale_answer_4.keys,restudy_same.started,restudy_same.stopped,scale_answer_5.keys,restudy_different.started,restudy_different.stopped,scale_answer_6.keys,test_attr.started,test_attr.stopped,test_sub.started,correct,test_sub.stopped,scale_answer_5.rt,scale_answer_5.duration,distractortask.started,equation_text.started,distractortask.stopped,mouse_answer.x,mouse_answer.y,mouse_answer.leftButton,mouse_answer.midButton,mouse_answer.rightButton,mouse_answer.time,mouse_answer.clicked_name,feedback_distractortask.started,feedback_distractortask.stopped,free_recall.started,text_enter.started,key_resp.started,free_recall.stopped,key_resp.keys,key_resp.rt,key_resp.duration,free_recalled_sub,mouse_continue.x,mouse_continue.y,mouse_continue.leftButton,mouse_continue.midButton,mouse_continue.rightButton,mouse_continue.time,mouse_continue.clicked_name,cued_recall.started,text_enter_2.started,key_continue.started,cued_recall.stopped,recalled_attr1,key_continue.keys,key_continue.rt,key_continue.duration,cued_recall_2.started,text_enter_3.started,key_continue_2.started,cued_recall_2.stopped,recalled_attr2,key_continue_2.keys,key_resp_8.started,key_resp_8.keys,key_resp_8.rt,key_resp_8.duration,condition,date,expName,psychopyVersion,frameRate,participant,expStart,
,,,,,,,,,,,,,,,,,,,,,,,,,,,,,"['Tasse', 'Geige', 'Kiste', 'Vase', 'Brille', 'Hut', 'Uhr', 'Kerze', 'Eimer', 'Löffel', 'Stift', 'Lampe', 'Telefon', 'Kamera', 'Hammer']","['Socke', 'Ring', 'Schlüssel', 'Jacke', 'Fahrrad', 'Tasche', 'Rucksack', 'Schere', 'Flasche', 'Trommel', 'Bürste', 'Kette', 'Blume', 'Buch', 'Würfel']",0.1104657999239862,0.11053659999743104,0.11054499982856214,5.365328799933195,,,,,,,,,,,,,,,,,,,,,,,,,,,,,,,,,,,,,2,,,,,,,,,,,,,,,,,,,,,,,,,,,,,,,,,,,,,,,,,,,,,,,,,,,,,,,,,,,,,,,,,,,,,,2,2023-11-28_08h58.56.844,watkins1,2023.2.3,99.77889006158307,23,2023-11-28 08h59.03.354063 +0000,
,,,,,,,,,,,,,,,,,,,,,,,,,,,,,,,,,,,5.3653767998330295,32.57276579993777,,,,,,,,,,,,,,,,,,,,,,,,,,,,,,,,,,,2,,,,,,,,,,,,,,,,,,,,,,,,,,,,,,,,,,,,,,,,,,,,,,,,,,,,,,,,,,,,,,,,,,,,,,2,2023-11-28_08h58.56.844,watkins1,2023.2.3,99.77889006158307,23,2023-11-28 08h59.03.354063 +0000,
,,,0,0,0,0,,,,,,,,,,,,,,,,,,,,,33.58634639997035,,,,,,,,,,32.57278189994395,33.57631879998371,40.07631070003845,40.56760279997252,34.068546099821106,40.076149499975145,3,2.273027499904856,None,40.5676133998204,46.57651269994676,3,2.273027499904856,None,46.57681060000323,46.576835399959236,46.57684320001863,46.57693440001458,,1.967994699953124,None,46.57709639985114,47.06801279983483,47.0680255999323,53.07270919997245,Hund,,,,,,,,,2,,,,,,,,,,,,,,,,,,,,,,,,,,,,,,,,,,,,,,,,,,,,,,,,,,,,,,,,,,,,,,,,,,,,,,2,2023-11-28_08h58.56.844,watkins1,2023.2.3,99.77889006158307,23,2023-11-28 08h59.03.354063 +0000,
,,,,,,,,,,,,,,,,,,,,,,,,,,,,,,,,,,,,,,,,,,,,,,,,,,,,,,,,,,,,,,,53.072871800046414,57.10934769990854,,,,,,,2,,,,,,,,,,,,,,,,,,,,,,,,,,,,,,,,,,,,,,,,,,,,,,,,,,,,,,,,,,,,,,,,,,,,,,2,2023-11-28_08h58.56.844,watkins1,2023.2.3,99.77889006158307,23,2023-11-28 08h59.03.354063 +0000,
,,,,,,,0,0,0,0,,,,,,,,,,,,,,,,,58.122839299961925,,,,,,,,,,57.109364999923855,58.112904499983415,58.11336990003474,58.60504899988882,,,3,2.7350047999061644,,,,,,,,,,,,,,,,,,,,,58.60506059997715,64.61284069996327,Stift,praktisch,"['Stift', 'praktisch']",restudy,2,"['Stift', 'Hut', 'Vase', 'Schere', 'Löffel', 'Telefon', 'Kamera', 'Geige', 'Würfel', 'Buch', 'Kette', 'Jacke', 'Eimer', 'Flasche', 'Tasche', 'Uhr', 'Hammer', 'Fahrrad', 'Kerze', 'Trommel', 'Brille', 'Rucksack', 'Ring', 'Kiste', 'Tasse', 'Lampe', 'Bürste', 'Blume', 'Schlüssel', 'Socke']",['praktisch'],3,2.7350047999061644,None,,,,,,,,,,,,,,,,,,,,,,,,,,,,,,,,,,,,,,,,,,,,,,,,,,,,,,,,,,,,,,,,,2,2023-11-28_08h58.56.844,watkins1,2023.2.3,99.77889006158307,23,2023-11-28 08h59.03.354063 +0000,
,,,,,,,1,0,1,0,,,,,,,,,,,,,,,,,64.62225959985517,,,,,,,,,,,,64.61348970001563,65.10413559991866,,,1,2.061991000082344,,,,,,,,,,,,,,,,,,,,,65.10414629988372,71.1146922998596,Hut,verspielt,"['Hut', 'verspielt']",restudy,2,"['Stift', 'Hut', 'Vase', 'Schere', 'Löffel', 'Telefon', 'Kamera', 'Geige', 'Würfel', 'Buch', 'Kette', 'Jacke', 'Eimer', 'Flasche', 'Tasche', 'Uhr', 'Hammer', 'Fahrrad', 'Kerze', 'Trommel', 'Brille', 'Rucksack', 'Ring', 'Kiste', 'Tasse', 'Lampe', 'Bürste', 'Blume', 'Schlüssel', 'Socke']","['praktisch', 'verspielt']",1,2.061991000082344,None,,,,,,,,,,,,,,,,,,,,,,,,,,,,,,,,,,,,,,,,,,,,,,,,,,,,,,,,,,,,,,,,,2,2023-11-28_08h58.56.844,watkins1,2023.2.3,99.77889006158307,23,2023-11-28 08h59.03.354063 +0000,
,,,,,,,2,0,2,0,,,,,,,,,,,,,,,,,71.12411600002088,,,,,,,,,,,,71.11521769990213,71.60623060003854,,,2,2.256417099852115,,,,,,,,,,,,,,,,,,,,,71.60624170000665,77.61147419991903,Vase,schlicht,"['Vase', 'schlicht']",restudy,2,"['Stift', 'Hut', 'Vase', 'Schere', 'Löffel', 'Telefon', 'Kamera', 'Geige', 'Würfel', 'Buch', 'Kette', 'Jacke', 'Eimer', 'Flasche', 'Tasche', 'Uhr', 'Hammer', 'Fahrrad', 'Kerze', 'Trommel', 'Brille', 'Rucksack', 'Ring', 'Kiste', 'Tasse', 'Lampe', 'Bürste', 'Blume', 'Schlüssel', 'Socke']","['praktisch', 'verspielt', 'schlicht']",2,2.256417099852115,None,,,,,,,,,,,,,,,,,,,,,,,,,,,,,,,,,,,,,,,,,,,,,,,,,,,,,,,,,,,,,,,,,2,2023-11-28_08h58.56.844,watkins1,2023.2.3,99.77889006158307,23,2023-11-28 08h59.03.354063 +0000,
,,,,,,,3,0,3,0,,,,,,,,,,,,,,,,,77.62084069987759,,,,,,,,,,,,77.6119893998839,78.10324790002778,,,3,3.9756029001437128,,,,,,,,,,,,,,,,,,,,,78.10325859999284,84.11326769995503,Schere,glatt,"['Schere', 'glatt']",test_sub,2,"['Stift', 'Hut', 'Vase', 'Schere', 'Löffel', 'Telefon', 'Kamera', 'Geige', 'Würfel', 'Buch', 'Kette', 'Jacke', 'Eimer', 'Flasche', 'Tasche', 'Uhr', 'Hammer', 'Fahrrad', 'Kerze', 'Trommel', 'Brille', 'Rucksack', 'Ring', 'Kiste', 'Tasse', 'Lampe', 'Bürste', 'Blume', 'Schlüssel', 'Socke']","['praktisch', 'verspielt', 'schlicht', 'glatt']",3,3.9756029001437128,None,,,,,,,,,,,,,,,,,,,,,,,,,,,,,,,,,,,,,,,,,,,,,,,,,,,,,,,,,,,,,,,,,2,2023-11-28_08h58.56.844,watkins1,2023.2.3,99.77889006158307,23,2023-11-28 08h59.03.354063 +0000,
,,,,,,,4,0,4,0,,,,,,,,,,,,,,,,,84.12258099997416,,,,,,,,,,,,84.11379810003564,84.60470129991882,,,3,2.0733576000202447,,,,,,,,,,,,,,,,,,,,,84.60471189999953,90.6053222999908,Löffel,breit,"['Löffel', 'breit']",restudy,2,"['Stift', 'Hut', 'Vase', 'Schere', 'Löffel', 'Telefon', 'Kamera', 'Geige', 'Würfel', 'Buch', 'Kette', 'Jacke', 'Eimer', 'Flasche', 'Tasche', 'Uhr', 'Hammer', 'Fahrrad', 'Kerze', 'Trommel', 'Brille', 'Rucksack', 'Ring', 'Kiste', 'Tasse', 'Lampe', 'Bürste', 'Blume', 'Schlüssel', 'Socke']","['praktisch', 'verspielt', 'schlicht', 'glatt', 'breit']",3,2.0733576000202447,None,,,,,,,,,,,,,,,,,,,,,,,,,,,,,,,,,,,,,,,,,,,,,,,,,,,,,,,,,,,,,,,,,2,2023-11-28_08h58.56.844,watkins1,2023.2.3,99.77889006158307,23,2023-11-28 08h59.03.354063 +0000,
,,,,,,,5,0,5,0,,,,,,,,,,,,,,,,,90.61484489985742,,,,,,,,,,,,90.60585789987817,91.09683729987592,,,2,4.637246400117874,,,,,,,,,,,,,,,,,,,,,91.09684869996272,97.1005497998558,Telefon,nachhaltig,"['Telefon', 'nachhaltig']",restudy,2,"['Stift', 'Hut', 'Vase', 'Schere', 'Löffel', 'Telefon', 'Kamera', 'Geige', 'Würfel', 'Buch', 'Kette', 'Jacke', 'Eimer', 'Flasche', 'Tasche', 'Uhr', 'Hammer', 'Fahrrad', 'Kerze', 'Trommel', 'Brille', 'Rucksack', 'Ring', 'Kiste', 'Tasse', 'Lampe', 'Bürste', 'Blume', 'Schlüssel', 'Socke']","['praktisch', 'verspielt', 'schlicht', 'glatt', 'breit', 'nachhaltig']",2,4.637246400117874,None,,,,,,,,,,,,,,,,,,,,,,,,,,,,,,,,,,,,,,,,,,,,,,,,,,,,,,,,,,,,,,,,,2,2023-11-28_08h58.56.844,watkins1,2023.2.3,99.77889006158307,23,2023-11-28 08h59.03.354063 +0000,
,,,,,,,6,0,6,0,,,,,,,,,,,,,,,,,97.10997690004297,,,,,,,,,,,,97.10107699991204,97.59212739998475,,,1,1.4061213999520987,,,,,,,,,,,,,,,,,,,,,97.59213839983568,103.59673610003665,Kamera,blass,"['Kamera', 'blass']",restudy,2,"['Stift', 'Hut', 'Vase', 'Schere', 'Löffel', 'Telefon', 'Kamera', 'Geige', 'Würfel', 'Buch', 'Kette', 'Jacke', 'Eimer', 'Flasche', 'Tasche', 'Uhr', 'Hammer', 'Fahrrad', 'Kerze', 'Trommel', 'Brille', 'Rucksack', 'Ring', 'Kiste', 'Tasse', 'Lampe', 'Bürste', 'Blume', 'Schlüssel', 'Socke']","['praktisch', 'verspielt', 'schlicht', 'glatt', 'breit', 'nachhaltig', 'blass']",1,1.4061213999520987,None,,,,,,,,,,,,,,,,,,,,,,,,,,,,,,,,,,,,,,,,,,,,,,,,,,,,,,,,,,,,,,,,,2,2023-11-28_08h58.56.844,watkins1,2023.2.3,99.77889006158307,23,2023-11-28 08h59.03.354063 +0000,
,,,,,,,7,0,7,0,,,,,,,,,,,,,,,,,103.60610800003633,,,,,,,,,,,,103.59726019995287,104.08850799989887,,,2,2.733910399954766,,,,,,,,,,,,,,,,,,,,,104.08851859997958,110.08999009989202,Geige,gut,"['Geige', 'gut']",restudy,2,"['Stift', 'Hut', 'Vase', 'Schere', 'Löffel', 'Telefon', 'Kamera', 'Geige', 'Würfel', 'Buch', 'Kette', 'Jacke', 'Eimer', 'Flasche', 'Tasche', 'Uhr', 'Hammer', 'Fahrrad', 'Kerze', 'Trommel', 'Brille', 'Rucksack', 'Ring', 'Kiste', 'Tasse', 'Lampe', 'Bürste', 'Blume', 'Schlüssel', 'Socke']","['praktisch', 'verspielt', 'schlicht', 'glatt', 'breit', 'nachhaltig', 'blass', 'gut']",2,2.733910399954766,None,,,,,,,,,,,,,,,,,,,,,,,,,,,,,,,,,,,,,,,,,,,,,,,,,,,,,,,,,,,,,,,,,2,2023-11-28_08h58.56.844,watkins1,2023.2.3,99.77889006158307,23,2023-11-28 08h59.03.354063 +0000,
,,,,,,,8,0,8,0,,,,,,,,,,,,,,,,,110.09936610003933,,,,,,,,,,,,110.09051809995435,110.58145439997315,,,1,1.4971588000189513,,,,,,,,,,,,,,,,,,,,,110.58146549994126,116.58289349987172,Würfel,zart,"['Würfel', 'zart']",test_sub,2,"['Stift', 'Hut', 'Vase', 'Schere', 'Löffel', 'Telefon', 'Kamera', 'Geige', 'Würfel', 'Buch', 'Kette', 'Jacke', 'Eimer', 'Flasche', 'Tasche', 'Uhr', 'Hammer', 'Fahrrad', 'Kerze', 'Trommel', 'Brille', 'Rucksack', 'Ring', 'Kiste', 'Tasse', 'Lampe', 'Bürste', 'Blume', 'Schlüssel', 'Socke']","['praktisch', 'verspielt', 'schlicht', 'glatt', 'breit', 'nachhaltig', 'blass', 'gut', 'zart']",1,1.4971588000189513,None,,,,,,,,,,,,,,,,,,,,,,,,,,,,,,,,,,,,,,,,,,,,,,,,,,,,,,,,,,,,,,,,,2,2023-11-28_08h58.56.844,watkins1,2023.2.3,99.77889006158307,23,2023-11-28 08h59.03.354063 +0000,
,,,,,,,9,0,9,0,,,,,,,,,,,,,,,,,116.5923009000253,,,,,,,,,,,,116.58342709997669,117.07443469995633,,,2,4.49223449989222,,,,,,,,,,,,,,,,,,,,,117.07444559992291,123.07589760003611,Buch,kurz,"['Buch', 'kurz']",test_sub,2,"['Stift', 'Hut', 'Vase', 'Schere', 'Löffel', 'Telefon', 'Kamera', 'Geige', 'Würfel', 'Buch', 'Kette', 'Jacke', 'Eimer', 'Flasche', 'Tasche', 'Uhr', 'Hammer', 'Fahrrad', 'Kerze', 'Trommel', 'Brille', 'Rucksack', 'Ring', 'Kiste', 'Tasse', 'Lampe', 'Bürste', 'Blume', 'Schlüssel', 'Socke']","['praktisch', 'verspielt', 'schlicht', 'glatt', 'breit', 'nachhaltig', 'blass', 'gut', 'zart', 'kurz']",2,4.49223449989222,None,,,,,,,,,,,,,,,,,,,,,,,,,,,,,,,,,,,,,,,,,,,,,,,,,,,,,,,,,,,,,,,,,2,2023-11-28_08h58.56.844,watkins1,2023.2.3,99.77889006158307,23,2023-11-28 08h59.03.354063 +0000,
,,,,,,,10,0,10,0,,,,,,,,,,,,,,,,,123.0852506000083,,,,,,,,,,,,123.0764222999569,123.56727129989304,,,1,1.5914483000524342,,,,,,,,,,,,,,,,,,,,,123.5672819998581,129.57745829992928,Kette,nass,"['Kette', 'nass']",test_sub,2,"['Stift', 'Hut', 'Vase', 'Schere', 'Löffel', 'Telefon', 'Kamera', 'Geige', 'Würfel', 'Buch', 'Kette', 'Jacke', 'Eimer', 'Flasche', 'Tasche', 'Uhr', 'Hammer', 'Fahrrad', 'Kerze', 'Trommel', 'Brille', 'Rucksack', 'Ring', 'Kiste', 'Tasse', 'Lampe', 'Bürste', 'Blume', 'Schlüssel', 'Socke']","['praktisch', 'verspielt', 'schlicht', 'glatt', 'breit', 'nachhaltig', 'blass', 'gut', 'zart', 'kurz', 'nass']",1,1.5914483000524342,None,,,,,,,,,,,,,,,,,,,,,,,,,,,,,,,,,,,,,,,,,,,,,,,,,,,,,,,,,,,,,,,,,2,2023-11-28_08h58.56.844,watkins1,2023.2.3,99.77889006158307,23,2023-11-28 08h59.03.354063 +0000,
,,,,,,,11,0,11,0,,,,,,,,,,,,,,,,,129.58689409983344,,,,,,,,,,,,129.57797909993678,130.0688634000253,,,1,4.288844599854201,,,,,,,,,,,,,,,,,,,,,130.06887469999492,136.07849149988033,Jacke,glänzend,"['Jacke', 'glänzend']",test_sub,2,"['Stift', 'Hut', 'Vase', 'Schere', 'Löffel', 'Telefon', 'Kamera', 'Geige', 'Würfel', 'Buch', 'Kette', 'Jacke', 'Eimer', 'Flasche', 'Tasche', 'Uhr', 'Hammer', 'Fahrrad', 'Kerze', 'Trommel', 'Brille', 'Rucksack', 'Ring', 'Kiste', 'Tasse', 'Lampe', 'Bürste', 'Blume', 'Schlüssel', 'Socke']","['praktisch', 'verspielt', 'schlicht', 'glatt', 'breit', 'nachhaltig', 'blass', 'gut', 'zart', 'kurz', 'nass', 'glänzend']",1,4.288844599854201,None,,,,,,,,,,,,,,,,,,,,,,,,,,,,,,,,,,,,,,,,,,,,,,,,,,,,,,,,,,,,,,,,,2,2023-11-28_08h58.56.844,watkins1,2023.2.3,99.77889006158307,23,2023-11-28 08h59.03.354063 +0000,
,,,,,,,12,0,12,0,,,,,,,,,,,,,,,,,136.08790939999744,,,,,,,,,,,,136.07901249988936,136.5699815999251,,,1,1.364721299847588,,,,,,,,,,,,,,,,,,,,,136.56999260000885,142.5804938999936,Eimer,lang,"['Eimer', 'lang']",restudy,2,"['Stift', 'Hut', 'Vase', 'Schere', 'Löffel', 'Telefon', 'Kamera', 'Geige', 'Würfel', 'Buch', 'Kette', 'Jacke', 'Eimer', 'Flasche', 'Tasche', 'Uhr', 'Hammer', 'Fahrrad', 'Kerze', 'Trommel', 'Brille', 'Rucksack', 'Ring', 'Kiste', 'Tasse', 'Lampe', 'Bürste', 'Blume', 'Schlüssel', 'Socke']","['praktisch', 'verspielt', 'schlicht', 'glatt', 'breit', 'nachhaltig', 'blass', 'gut', 'zart', 'kurz', 'nass', 'glänzend', 'lang']",1,1.364721299847588,None,,,,,,,,,,,,,,,,,,,,,,,,,,,,,,,,,,,,,,,,,,,,,,,,,,,,,,,,,,,,,,,,,2,2023-11-28_08h58.56.844,watkins1,2023.2.3,99.77889006158307,23,2023-11-28 08h59.03.354063 +0000,
,,,,,,,13,0,13,0,,,,,,,,,,,,,,,,,142.58986579999328,,,,,,,,,,,,142.58101279987022,143.07180849998258,,,1,1.806847200030461,,,,,,,,,,,,,,,,,,,,,143.07181989983656,149.07814729982056,Flasche,robust,"['Flasche', 'robust']",test_sub,2,"['Stift', 'Hut', 'Vase', 'Schere', 'Löffel', 'Telefon', 'Kamera', 'Geige', 'Würfel', 'Buch', 'Kette', 'Jacke', 'Eimer', 'Flasche', 'Tasche', 'Uhr', 'Hammer', 'Fahrrad', 'Kerze', 'Trommel', 'Brille', 'Rucksack', 'Ring', 'Kiste', 'Tasse', 'Lampe', 'Bürste', 'Blume', 'Schlüssel', 'Socke']","['praktisch', 'verspielt', 'schlicht', 'glatt', 'breit', 'nachhaltig', 'blass', 'gut', 'zart', 'kurz', 'nass', 'glänzend', 'lang', 'robust']",1,1.806847200030461,None,,,,,,,,,,,,,,,,,,,,,,,,,,,,,,,,,,,,,,,,,,,,,,,,,,,,,,,,,,,,,,,,,2,2023-11-28_08h58.56.844,watkins1,2023.2.3,99.77889006158307,23,2023-11-28 08h59.03.354063 +0000,
,,,,,,,14,0,14,0,,,,,,,,,,,,,,,,,149.08757229987532,,,,,,,,,,,,149.07868109992705,149.56967889983207,,,2,3.0375850000418723,,,,,,,,,,,,,,,,,,,,,149.56968949991278,155.57885709987022,Tasche,matt,"['Tasche', 'matt']",test_sub,2,"['Stift', 'Hut', 'Vase', 'Schere', 'Löffel', 'Telefon', 'Kamera', 'Geige', 'Würfel', 'Buch', 'Kette', 'Jacke', 'Eimer', 'Flasche', 'Tasche', 'Uhr', 'Hammer', 'Fahrrad', 'Kerze', 'Trommel', 'Brille', 'Rucksack', 'Ring', 'Kiste', 'Tasse', 'Lampe', 'Bürste', 'Blume', 'Schlüssel', 'Socke']","['praktisch', 'verspielt', 'schlicht', 'glatt', 'breit', 'nachhaltig', 'blass', 'gut', 'zart', 'kurz', 'nass', 'glänzend', 'lang', 'robust', 'matt']",2,3.0375850000418723,None,,,,,,,,,,,,,,,,,,,,,,,,,,,,,,,,,,,,,,,,,,,,,,,,,,,,,,,,,,,,,,,,,2,2023-11-28_08h58.56.844,watkins1,2023.2.3,99.77889006158307,23,2023-11-28 08h59.03.354063 +0000,
,,,,,,,15,0,15,0,,,,,,,,,,,,,,,,,155.58832129999064,,,,,,,,,,,,155.57938089990057,156.07032809988596,,,3,2.1441591000184417,,,,,,,,,,,,,,,,,,,,,156.07033909996971,162.07366669992916,Uhr,elegant,"['Uhr', 'elegant']",restudy,2,"['Stift', 'Hut', 'Vase', 'Schere', 'Löffel', 'Telefon', 'Kamera', 'Geige', 'Würfel', 'Buch', 'Kette', 'Jacke', 'Eimer', 'Flasche', 'Tasche', 'Uhr', 'Hammer', 'Fahrrad', 'Kerze', 'Trommel', 'Brille', 'Rucksack', 'Ring', 'Kiste', 'Tasse', 'Lampe', 'Bürste', 'Blume', 'Schlüssel', 'Socke']","['praktisch', 'verspielt', 'schlicht', 'glatt', 'breit', 'nachhaltig', 'blass', 'gut', 'zart', 'kurz', 'nass', 'glänzend', 'lang', 'robust', 'matt', 'elegant']",3,2.1441591000184417,None,,,,,,,,,,,,,,,,,,,,,,,,,,,,,,,,,,,,,,,,,,,,,,,,,,,,,,,,,,,,,,,,,2,2023-11-28_08h58.56.844,watkins1,2023.2.3,99.77889006158307,23,2023-11-28 08h59.03.354063 +0000,
,,,,,,,16,0,16,0,,,,,,,,,,,,,,,,,162.08304029982537,,,,,,,,,,,,162.07418180000968,162.5656037000008,,,1,1.4735572000499815,,,,,,,,,,,,,,,,,,,,,162.56561459996738,168.56658039987087,Hammer,niedlich,"['Hammer', 'niedlich']",restudy,2,"['Stift', 'Hut', 'Vase', 'Schere', 'Löffel', 'Telefon', 'Kamera', 'Geige', 'Würfel', 'Buch', 'Kette', 'Jacke', 'Eimer', 'Flasche', 'Tasche', 'Uhr', 'Hammer', 'Fahrrad', 'Kerze', 'Trommel', 'Brille', 'Rucksack', 'Ring', 'Kiste', 'Tasse', 'Lampe', 'Bürste', 'Blume', 'Schlüssel', 'Socke']","['praktisch', 'verspielt', 'schlicht', 'glatt', 'breit', 'nachhaltig', 'blass', 'gut', 'zart', 'kurz', 'nass', 'glänzend', 'lang', 'robust', 'matt', 'elegant', 'niedlich']",1,1.4735572000499815,None,,,,,,,,,,,,,,,,,,,,,,,,,,,,,,,,,,,,,,,,,,,,,,,,,,,,,,,,,,,,,,,,,2,2023-11-28_08h58.56.844,watkins1,2023.2.3,99.77889006158307,23,2023-11-28 08h59.03.354063 +0000,
,,,,,,,17,0,17,0,,,,,,,,,,,,,,,,,168.57601729989983,,,,,,,,,,,,168.56710630003363,169.0579551998526,,,1,1.212418899871409,,,,,,,,,,,,,,,,,,,,,169.05796599993482,175.05859639984556,Fahrrad,strahlend,"['Fahrrad', 'strahlend']",test_sub,2,"['Stift', 'Hut', 'Vase', 'Schere', 'Löffel', 'Telefon', 'Kamera', 'Geige', 'Würfel', 'Buch', 'Kette', 'Jacke', 'Eimer', 'Flasche', 'Tasche', 'Uhr', 'Hammer', 'Fahrrad', 'Kerze', 'Trommel', 'Brille', 'Rucksack', 'Ring', 'Kiste', 'Tasse', 'Lampe', 'Bürste', 'Blume', 'Schlüssel', 'Socke']","['praktisch', 'verspielt', 'schlicht', 'glatt', 'breit', 'nachhaltig', 'blass', 'gut', 'zart', 'kurz', 'nass', 'glänzend', 'lang', 'robust', 'matt', 'elegant', 'niedlich', 'strahlend']",1,1.212418899871409,None,,,,,,,,,,,,,,,,,,,,,,,,,,,,,,,,,,,,,,,,,,,,,,,,,,,,,,,,,,,,,,,,,2,2023-11-28_08h58.56.844,watkins1,2023.2.3,99.77889006158307,23,2023-11-28 08h59.03.354063 +0000,
,,,,,,,18,0,18,0,,,,,,,,,,,,,,,,,175.06809379998595,,,,,,,,,,,,175.05911569995806,175.55017339996994,,,1,2.8323794999159873,,,,,,,,,,,,,,,,,,,,,175.55018429993652,181.55247469991446,Kerze,schwer,"['Kerze', 'schwer']",restudy,2,"['Stift', 'Hut', 'Vase', 'Schere', 'Löffel', 'Telefon', 'Kamera', 'Geige', 'Würfel', 'Buch', 'Kette', 'Jacke', 'Eimer', 'Flasche', 'Tasche', 'Uhr', 'Hammer', 'Fahrrad', 'Kerze', 'Trommel', 'Brille', 'Rucksack', 'Ring', 'Kiste', 'Tasse', 'Lampe', 'Bürste', 'Blume', 'Schlüssel', 'Socke']","['praktisch', 'verspielt', 'schlicht', 'glatt', 'breit', 'nachhaltig', 'blass', 'gut', 'zart', 'kurz', 'nass', 'glänzend', 'lang', 'robust', 'matt', 'elegant', 'niedlich', 'strahlend', 'schwer']",1,2.8323794999159873,None,,,,,,,,,,,,,,,,,,,,,,,,,,,,,,,,,,,,,,,,,,,,,,,,,,,,,,,,,,,,,,,,,2,2023-11-28_08h58.56.844,watkins1,2023.2.3,99.77889006158307,23,2023-11-28 08h59.03.354063 +0000,
,,,,,,,19,0,19,0,,,,,,,,,,,,,,,,,181.56185109983198,,,,,,,,,,,,181.55299699981697,182.04400400002487,,,1,1.3631715001538396,,,,,,,,,,,,,,,,,,,,,182.04401429998688,188.0456294999458,Trommel,teuer,"['Trommel', 'teuer']",test_sub,2,"['Stift', 'Hut', 'Vase', 'Schere', 'Löffel', 'Telefon', 'Kamera', 'Geige', 'Würfel', 'Buch', 'Kette', 'Jacke', 'Eimer', 'Flasche', 'Tasche', 'Uhr', 'Hammer', 'Fahrrad', 'Kerze', 'Trommel', 'Brille', 'Rucksack', 'Ring', 'Kiste', 'Tasse', 'Lampe', 'Bürste', 'Blume', 'Schlüssel', 'Socke']","['praktisch', 'verspielt', 'schlicht', 'glatt', 'breit', 'nachhaltig', 'blass', 'gut', 'zart', 'kurz', 'nass', 'glänzend', 'lang', 'robust', 'matt', 'elegant', 'niedlich', 'strahlend', 'schwer', 'teuer']",1,1.3631715001538396,None,,,,,,,,,,,,,,,,,,,,,,,,,,,,,,,,,,,,,,,,,,,,,,,,,,,,,,,,,,,,,,,,,2,2023-11-28_08h58.56.844,watkins1,2023.2.3,99.77889006158307,23,2023-11-28 08h59.03.354063 +0000,
,,,,,,,20,0,20,0,,,,,,,,,,,,,,,,,188.05505099985749,,,,,,,,,,,,188.04615149996243,188.5370483000297,,,1,1.5098858999554068,,,,,,,,,,,,,,,,,,,,,188.53705859999172,194.54751419997774,Brille,gepunktet,"['Brille', 'gepunktet']",restudy,2,"['Stift', 'Hut', 'Vase', 'Schere', 'Löffel', 'Telefon', 'Kamera', 'Geige', 'Würfel', 'Buch', 'Kette', 'Jacke', 'Eimer', 'Flasche', 'Tasche', 'Uhr', 'Hammer', 'Fahrrad', 'Kerze', 'Trommel', 'Brille', 'Rucksack', 'Ring', 'Kiste', 'Tasse', 'Lampe', 'Bürste', 'Blume', 'Schlüssel', 'Socke']","['praktisch', 'verspielt', 'schlicht', 'glatt', 'breit', 'nachhaltig', 'blass', 'gut', 'zart', 'kurz', 'nass', 'glänzend', 'lang', 'robust', 'matt', 'elegant', 'niedlich', 'strahlend', 'schwer', 'teuer', 'gepunktet']",1,1.5098858999554068,None,,,,,,,,,,,,,,,,,,,,,,,,,,,,,,,,,,,,,,,,,,,,,,,,,,,,,,,,,,,,,,,,,2,2023-11-28_08h58.56.844,watkins1,2023.2.3,99.77889006158307,23,2023-11-28 08h59.03.354063 +0000,
,,,,,,,21,0,21,0,,,,,,,,,,,,,,,,,194.55691579985432,,,,,,,,,,,,194.5480335999746,195.0390194999054,,,1,2.151379100047052,,,,,,,,,,,,,,,,,,,,,195.039030399872,201.04316079989076,Rucksack,kalt,"['Rucksack', 'kalt']",test_sub,2,"['Stift', 'Hut', 'Vase', 'Schere', 'Löffel', 'Telefon', 'Kamera', 'Geige', 'Würfel', 'Buch', 'Kette', 'Jacke', 'Eimer', 'Flasche', 'Tasche', 'Uhr', 'Hammer', 'Fahrrad', 'Kerze', 'Trommel', 'Brille', 'Rucksack', 'Ring', 'Kiste', 'Tasse', 'Lampe', 'Bürste', 'Blume', 'Schlüssel', 'Socke']","['praktisch', 'verspielt', 'schlicht', 'glatt', 'breit', 'nachhaltig', 'blass', 'gut', 'zart', 'kurz', 'nass', 'glänzend', 'lang', 'robust', 'matt', 'elegant', 'niedlich', 'strahlend', 'schwer', 'teuer', 'gepunktet', 'kalt']",1,2.151379100047052,None,,,,,,,,,,,,,,,,,,,,,,,,,,,,,,,,,,,,,,,,,,,,,,,,,,,,,,,,,,,,,,,,,2,2023-11-28_08h58.56.844,watkins1,2023.2.3,99.77889006158307,23,2023-11-28 08h59.03.354063 +0000,
,,,,,,,22,0,22,0,,,,,,,,,,,,,,,,,201.05258899996988,,,,,,,,,,,,201.04369429987855,201.53458400000818,,,2,1.800780899822712,,,,,,,,,,,,,,,,,,,,,201.5345950999763,207.5385664999485,Ring,neu,"['Ring', 'neu']",test_sub,2,"['Stift', 'Hut', 'Vase', 'Schere', 'Löffel', 'Telefon', 'Kamera', 'Geige', 'Würfel', 'Buch', 'Kette', 'Jacke', 'Eimer', 'Flasche', 'Tasche', 'Uhr', 'Hammer', 'Fahrrad', 'Kerze', 'Trommel', 'Brille', 'Rucksack', 'Ring', 'Kiste', 'Tasse', 'Lampe', 'Bürste', 'Blume', 'Schlüssel', 'Socke']","['praktisch', 'verspielt', 'schlicht', 'glatt', 'breit', 'nachhaltig', 'blass', 'gut', 'zart', 'kurz', 'nass', 'glänzend', 'lang', 'robust', 'matt', 'elegant', 'niedlich', 'strahlend', 'schwer', 'teuer', 'gepunktet', 'kalt', 'neu']",2,1.800780899822712,None,,,,,,,,,,,,,,,,,,,,,,,,,,,,,,,,,,,,,,,,,,,,,,,,,,,,,,,,,,,,,,,,,2,2023-11-28_08h58.56.844,watkins1,2023.2.3,99.77889006158307,23,2023-11-28 08h59.03.354063 +0000,
,,,,,,,23,0,23,0,,,,,,,,,,,,,,,,,207.5479963000398,,,,,,,,,,,,207.53912159986794,208.02987880003639,,,1,2.537289100000635,,,,,,,,,,,,,,,,,,,,,208.0298895998858,214.0343210999854,Kiste,klobig,"['Kiste', 'klobig']",restudy,2,"['Stift', 'Hut', 'Vase', 'Schere', 'Löffel', 'Telefon', 'Kamera', 'Geige', 'Würfel', 'Buch', 'Kette', 'Jacke', 'Eimer', 'Flasche', 'Tasche', 'Uhr', 'Hammer', 'Fahrrad', 'Kerze', 'Trommel', 'Brille', 'Rucksack', 'Ring', 'Kiste', 'Tasse', 'Lampe', 'Bürste', 'Blume', 'Schlüssel', 'Socke']","['praktisch', 'verspielt', 'schlicht', 'glatt', 'breit', 'nachhaltig', 'blass', 'gut', 'zart', 'kurz', 'nass', 'glänzend', 'lang', 'robust', 'matt', 'elegant', 'niedlich', 'strahlend', 'schwer', 'teuer', 'gepunktet', 'kalt', 'neu', 'klobig']",1,2.537289100000635,None,,,,,,,,,,,,,,,,,,,,,,,,,,,,,,,,,,,,,,,,,,,,,,,,,,,,,,,,,,,,,,,,,2,2023-11-28_08h58.56.844,watkins1,2023.2.3,99.77889006158307,23,2023-11-28 08h59.03.354063 +0000,
,,,,,,,24,0,24,0,,,,,,,,,,,,,,,,,214.04369889991358,,,,,,,,,,,,214.03485469985753,214.52579230000265,,,1,1.5532188001088798,,,,,,,,,,,,,,,,,,,,,214.5258027999662,220.5352719000075,Tasse,lustig,"['Tasse', 'lustig']",restudy,2,"['Stift', 'Hut', 'Vase', 'Schere', 'Löffel', 'Telefon', 'Kamera', 'Geige', 'Würfel', 'Buch', 'Kette', 'Jacke', 'Eimer', 'Flasche', 'Tasche', 'Uhr', 'Hammer', 'Fahrrad', 'Kerze', 'Trommel', 'Brille', 'Rucksack', 'Ring', 'Kiste', 'Tasse', 'Lampe', 'Bürste', 'Blume', 'Schlüssel', 'Socke']","['praktisch', 'verspielt', 'schlicht', 'glatt', 'breit', 'nachhaltig', 'blass', 'gut', 'zart', 'kurz', 'nass', 'glänzend', 'lang', 'robust', 'matt', 'elegant', 'niedlich', 'strahlend', 'schwer', 'teuer', 'gepunktet', 'kalt', 'neu', 'klobig', 'lustig']",1,1.5532188001088798,None,,,,,,,,,,,,,,,,,,,,,,,,,,,,,,,,,,,,,,,,,,,,,,,,,,,,,,,,,,,,,,,,,2,2023-11-28_08h58.56.844,watkins1,2023.2.3,99.77889006158307,23,2023-11-28 08h59.03.354063 +0000,
,,,,,,,25,0,25,0,,,,,,,,,,,,,,,,,220.5446521998383,,,,,,,,,,,,220.53579719993286,221.02678449987434,,,2,2.0603006000164896,,,,,,,,,,,,,,,,,,,,,221.02679489995353,227.0332396000158,Lampe,rustikal,"['Lampe', 'rustikal']",restudy,2,"['Stift', 'Hut', 'Vase', 'Schere', 'Löffel', 'Telefon', 'Kamera', 'Geige', 'Würfel', 'Buch', 'Kette', 'Jacke', 'Eimer', 'Flasche', 'Tasche', 'Uhr', 'Hammer', 'Fahrrad', 'Kerze', 'Trommel', 'Brille', 'Rucksack', 'Ring', 'Kiste', 'Tasse', 'Lampe', 'Bürste', 'Blume', 'Schlüssel', 'Socke']","['praktisch', 'verspielt', 'schlicht', 'glatt', 'breit', 'nachhaltig', 'blass', 'gut', 'zart', 'kurz', 'nass', 'glänzend', 'lang', 'robust', 'matt', 'elegant', 'niedlich', 'strahlend', 'schwer', 'teuer', 'gepunktet', 'kalt', 'neu', 'klobig', 'lustig', 'rustikal']",2,2.0603006000164896,None,,,,,,,,,,,,,,,,,,,,,,,,,,,,,,,,,,,,,,,,,,,,,,,,,,,,,,,,,,,,,,,,,2,2023-11-28_08h58.56.844,watkins1,2023.2.3,99.77889006158307,23,2023-11-28 08h59.03.354063 +0000,
,,,,,,,26,0,26,0,,,,,,,,,,,,,,,,,227.04265709989704,,,,,,,,,,,,227.03375789988786,227.52476739999838,,,1,2.6103482998441905,,,,,,,,,,,,,,,,,,,,,227.52477789996192,233.53026609984227,Bürste,hohl,"['Bürste', 'hohl']",test_sub,2,"['Stift', 'Hut', 'Vase', 'Schere', 'Löffel', 'Telefon', 'Kamera', 'Geige', 'Würfel', 'Buch', 'Kette', 'Jacke', 'Eimer', 'Flasche', 'Tasche', 'Uhr', 'Hammer', 'Fahrrad', 'Kerze', 'Trommel', 'Brille', 'Rucksack', 'Ring', 'Kiste', 'Tasse', 'Lampe', 'Bürste', 'Blume', 'Schlüssel', 'Socke']","['praktisch', 'verspielt', 'schlicht', 'glatt', 'breit', 'nachhaltig', 'blass', 'gut', 'zart', 'kurz', 'nass', 'glänzend', 'lang', 'robust', 'matt', 'elegant', 'niedlich', 'strahlend', 'schwer', 'teuer', 'gepunktet', 'kalt', 'neu', 'klobig', 'lustig', 'rustikal', 'hohl']",1,2.6103482998441905,None,,,,,,,,,,,,,,,,,,,,,,,,,,,,,,,,,,,,,,,,,,,,,,,,,,,,,,,,,,,,,,,,,2,2023-11-28_08h58.56.844,watkins1,2023.2.3,99.77889006158307,23,2023-11-28 08h59.03.354063 +0000,
,,,,,,,27,0,27,0,,,,,,,,,,,,,,,,,233.53970169997774,,,,,,,,,,,,233.53078859997913,234.02169479988515,,,1,2.393487900029868,,,,,,,,,,,,,,,,,,,,,234.02170509984717,240.02580589987338,Blume,dunkel,"['Blume', 'dunkel']",test_sub,2,"['Stift', 'Hut', 'Vase', 'Schere', 'Löffel', 'Telefon', 'Kamera', 'Geige', 'Würfel', 'Buch', 'Kette', 'Jacke', 'Eimer', 'Flasche', 'Tasche', 'Uhr', 'Hammer', 'Fahrrad', 'Kerze', 'Trommel', 'Brille', 'Rucksack', 'Ring', 'Kiste', 'Tasse', 'Lampe', 'Bürste', 'Blume', 'Schlüssel', 'Socke']","['praktisch', 'verspielt', 'schlicht', 'glatt', 'breit', 'nachhaltig', 'blass', 'gut', 'zart', 'kurz', 'nass', 'glänzend', 'lang', 'robust', 'matt', 'elegant', 'niedlich', 'strahlend', 'schwer', 'teuer', 'gepunktet', 'kalt', 'neu', 'klobig', 'lustig', 'rustikal', 'hohl', 'dunkel']",1,2.393487900029868,None,,,,,,,,,,,,,,,,,,,,,,,,,,,,,,,,,,,,,,,,,,,,,,,,,,,,,,,,,,,,,,,,,2,2023-11-28_08h58.56.844,watkins1,2023.2.3,99.77889006158307,23,2023-11-28 08h59.03.354063 +0000,
,,,,,,,28,0,28,0,,,,,,,,,,,,,,,,,240.03518239990808,,,,,,,,,,,,240.02633329993114,240.51717719994485,,,1,3.841450000181794,,,,,,,,,,,,,,,,,,,,,240.5171876999084,246.5264922999777,Schlüssel,schmutzig,"['Schlüssel', 'schmutzig']",test_sub,2,"['Stift', 'Hut', 'Vase', 'Schere', 'Löffel', 'Telefon', 'Kamera', 'Geige', 'Würfel', 'Buch', 'Kette', 'Jacke', 'Eimer', 'Flasche', 'Tasche', 'Uhr', 'Hammer', 'Fahrrad', 'Kerze', 'Trommel', 'Brille', 'Rucksack', 'Ring', 'Kiste', 'Tasse', 'Lampe', 'Bürste', 'Blume', 'Schlüssel', 'Socke']","['praktisch', 'verspielt', 'schlicht', 'glatt', 'breit', 'nachhaltig', 'blass', 'gut', 'zart', 'kurz', 'nass', 'glänzend', 'lang', 'robust', 'matt', 'elegant', 'niedlich', 'strahlend', 'schwer', 'teuer', 'gepunktet', 'kalt', 'neu', 'klobig', 'lustig', 'rustikal', 'hohl', 'dunkel', 'schmutzig']",1,3.841450000181794,None,,,,,,,,,,,,,,,,,,,,,,,,,,,,,,,,,,,,,,,,,,,,,,,,,,,,,,,,,,,,,,,,,2,2023-11-28_08h58.56.844,watkins1,2023.2.3,99.77889006158307,23,2023-11-28 08h59.03.354063 +0000,
,,,,,,,29,0,29,0,,,,,,,,,,,,,,,,,246.5360293998383,,,,,,,,,,,,246.52702489984222,247.01796790002845,,,1,1.3315854000393301,,,,,,,,,,,,,,,,,,,,,247.0179785999935,253.0209233998321,Socke,groß,"['Socke', 'groß']",test_sub,2,"['Stift', 'Hut', 'Vase', 'Schere', 'Löffel', 'Telefon', 'Kamera', 'Geige', 'Würfel', 'Buch', 'Kette', 'Jacke', 'Eimer', 'Flasche', 'Tasche', 'Uhr', 'Hammer', 'Fahrrad', 'Kerze', 'Trommel', 'Brille', 'Rucksack', 'Ring', 'Kiste', 'Tasse', 'Lampe', 'Bürste', 'Blume', 'Schlüssel', 'Socke']","['praktisch', 'verspielt', 'schlicht', 'glatt', 'breit', 'nachhaltig', 'blass', 'gut', 'zart', 'kurz', 'nass', 'glänzend', 'lang', 'robust', 'matt', 'elegant', 'niedlich', 'strahlend', 'schwer', 'teuer', 'gepunktet', 'kalt', 'neu', 'klobig', 'lustig', 'rustikal', 'hohl', 'dunkel', 'schmutzig', 'groß']",1,1.3315854000393301,None,,,,,,,,,,,,,,,,,,,,,,,,,,,,,,,,,,,,,,,,,,,,,,,,,,,,,,,,,,,,,,,,,2,2023-11-28_08h58.56.844,watkins1,2023.2.3,99.77889006158307,23,2023-11-28 08h59.03.354063 +0000,
,,,,,,,,,,,0,0,0,0,,,,,,,,,,,,,253.03034979989752,,,,,,,,,,,,253.02176509983838,253.51234219991602,,,[],[],,,,,,,,,,,,2.922672600019723,None,,,,,Bürste,,,,,Bürste,hohl,"['Bürste', 'hohl']",test_sub,2,,,,,,253.0216902999673,253.02173749986105,"['Bürste', 'Blume', 'Flasche', 'Fahrrad', 'Geige', 'Lampe', 'Uhr', 'Telefon', 'Ring', 'Trommel', 'Schlüssel', 'Socke', 'Stift', 'Vase', 'Kiste', 'Tasche', 'Eimer', 'Tasse', 'Schere', 'Würfel', 'Jacke', 'Rucksack', 'Kerze', 'Buch', 'Kette', 'Brille', 'Hut', 'Kamera', 'Löffel', 'Hammer']",253.51235349988565,253.5150065999478,None,253.5151915999595,253.5176109999884,None,253.51776909991167,253.52022970002145,None,253.52038639993407,253.52161739999428,253.52163039986044,1,259.529273299966,,,,,,,,,,,,,,,,,,,,,,,,,,,,,,,,,,,,,,,,,,,,,,,,2,2023-11-28_08h58.56.844,watkins1,2023.2.3,99.77889006158307,23,2023-11-28 08h59.03.354063 +0000,
,,,,,,,,,,,1,0,1,0,,,,,,,,,,,,,259.53907239995897,,,,,,,,,,,,259.52955339988694,260.0210198999848,,,[],[],,,,,,,,,,,,1.6373900999315083,None,,,,,Blume,,,,,Blume,dunkel,"['Blume', 'dunkel']",test_sub,2,,,,,,259.52948789997026,259.5295251000207,"['Bürste', 'Blume', 'Flasche', 'Fahrrad', 'Geige', 'Lampe', 'Uhr', 'Telefon', 'Ring', 'Trommel', 'Schlüssel', 'Socke', 'Stift', 'Vase', 'Kiste', 'Tasche', 'Eimer', 'Tasse', 'Schere', 'Würfel', 'Jacke', 'Rucksack', 'Kerze', 'Buch', 'Kette', 'Brille', 'Hut', 'Kamera', 'Löffel', 'Hammer']",260.02103119995445,260.023584399838,None,260.0237108999863,260.0260890999343,None,260.026196599938,260.0285638999194,None,260.0286858000327,260.0298347999342,260.02984780003317,1,266.03538559982553,,,,,,,,,,,,,,,,,,,,,,,,,,,,,,,,,,,,,,,,,,,,,,,,2,2023-11-28_08h58.56.844,watkins1,2023.2.3,99.77889006158307,23,2023-11-28 08h59.03.354063 +0000,
,,,,,,,,,,,2,0,2,0,,,,,,,,,,,,,266.04525569989346,,,,,,,,,,,,266.0356737000402,266.5278075998649,,,[],[],,,,,,,,,,,,2.966124299913645,None,,,,,Flasche,,,,,Flasche,robust,"['Flasche', 'robust']",test_sub,2,,,,,,266.03560449997894,266.03564399993047,"['Bürste', 'Blume', 'Flasche', 'Fahrrad', 'Geige', 'Lampe', 'Uhr', 'Telefon', 'Ring', 'Trommel', 'Schlüssel', 'Socke', 'Stift', 'Vase', 'Kiste', 'Tasche', 'Eimer', 'Tasse', 'Schere', 'Würfel', 'Jacke', 'Rucksack', 'Kerze', 'Buch', 'Kette', 'Brille', 'Hut', 'Kamera', 'Löffel', 'Hammer']",266.5278202998452,266.5308515999932,None,266.5309925999027,266.5337559999898,None,266.5338844000362,266.53675609990023,None,266.5368921000045,266.53829109994695,266.5383071999531,1,272.54705149983056,,,,,,,,,,,,,,,,,,,,,,,,,,,,,,,,,,,,,,,,,,,,,,,,2,2023-11-28_08h58.56.844,watkins1,2023.2.3,99.77889006158307,23,2023-11-28 08h59.03.354063 +0000,
,,,,,,,,,,,3,0,3,0,,,,,,,,,,,,,272.5569366000127,,,,,,,,,,,,272.5473315999843,273.0391720000189,,,[],[],,,,,,,,,,,,1.71856170007959,None,,,,,Fahrrad,,,,,Fahrrad,strahlend,"['Fahrrad', 'strahlend']",test_sub,2,,,,,,272.54726389981806,272.5473034000024,"['Bürste', 'Blume', 'Flasche', 'Fahrrad', 'Geige', 'Lampe', 'Uhr', 'Telefon', 'Ring', 'Trommel', 'Schlüssel', 'Socke', 'Stift', 'Vase', 'Kiste', 'Tasche', 'Eimer', 'Tasse', 'Schere', 'Würfel', 'Jacke', 'Rucksack', 'Kerze', 'Buch', 'Kette', 'Brille', 'Hut', 'Kamera', 'Löffel', 'Hammer']",273.03918369999155,273.04189700004645,None,273.042018200038,273.04455019999295,None,273.04465990001336,273.04717989987694,None,273.04728810000233,273.04847100004554,273.0484837000258,1,279.0548159000464,,,,,,,,,,,,,,,,,,,,,,,,,,,,,,,,,,,,,,,,,,,,,,,,2,2023-11-28_08h58.56.844,watkins1,2023.2.3,99.77889006158307,23,2023-11-28 08h59.03.354063 +0000,
,,,,,,,,,,,4,0,4,0,,,,,,,,,,,,,279.064622099977,,,,,,,,,,,,279.0550956998486,279.5467444998212,,,[],[],,,,,,,,,,,,None,None,,,,,,,,,,Geige,gut,"['Geige', 'gut']",restudy,2,,,,,,279.055026399903,279.0550669999793,"['Bürste', 'Blume', 'Flasche', 'Fahrrad', 'Geige', 'Lampe', 'Uhr', 'Telefon', 'Ring', 'Trommel', 'Schlüssel', 'Socke', 'Stift', 'Vase', 'Kiste', 'Tasche', 'Eimer', 'Tasse', 'Schere', 'Würfel', 'Jacke', 'Rucksack', 'Kerze', 'Buch', 'Kette', 'Brille', 'Hut', 'Kamera', 'Löffel', 'Hammer']",279.54675609990954,279.549495899817,None,279.5496204998344,285.554553899914,2,285.5549212999176,285.5573776999954,None,285.55748929991387,285.55864980001934,285.5586617998779,,285.55996199999936,4.913201499963179,None,,,,,,,,,,,,,,,,,,,,,,,,,,,,,,,,,,,,,,,,,,,,,,2,2023-11-28_08h58.56.844,watkins1,2023.2.3,99.77889006158307,23,2023-11-28 08h59.03.354063 +0000,
,,,,,,,,,,,5,0,5,0,,,,,,,,,,,,,285.56407779990695,,,,,,,,,,,,285.5602448999416,286.0561561998911,,,[],[],,,,,,,,,,,,None,None,,,,,,,,,,Lampe,rustikal,"['Lampe', 'rustikal']",restudy,2,,,,,,285.5601808000356,285.56021789996885,"['Bürste', 'Blume', 'Flasche', 'Fahrrad', 'Geige', 'Lampe', 'Uhr', 'Telefon', 'Ring', 'Trommel', 'Schlüssel', 'Socke', 'Stift', 'Vase', 'Kiste', 'Tasche', 'Eimer', 'Tasse', 'Schere', 'Würfel', 'Jacke', 'Rucksack', 'Kerze', 'Buch', 'Kette', 'Brille', 'Hut', 'Kamera', 'Löffel', 'Hammer']",286.05616799998097,286.0586987999268,None,286.0588265999686,292.06209259992465,2,292.0623915998731,292.0650988998823,None,292.0652121999301,292.0663691998925,292.06638099998236,,292.06759239989333,5.41233399999328,None,,,,,,,,,,,,,,,,,,,,,,,,,,,,,,,,,,,,,,,,,,,,,,2,2023-11-28_08h58.56.844,watkins1,2023.2.3,99.77889006158307,23,2023-11-28 08h59.03.354063 +0000,
,,,,,,,,,,,6,0,6,0,,,,,,,,,,,,,292.07116139982827,,,,,,,,,,,,292.06787539995275,292.56322399992496,,,[],[],,,,,,,,,,,,None,None,,,,,,,,,,Uhr,elegant,"['Uhr', 'elegant']",restudy,2,,,,,,292.0678103000391,292.06784849986434,"['Bürste', 'Blume', 'Flasche', 'Fahrrad', 'Geige', 'Lampe', 'Uhr', 'Telefon', 'Ring', 'Trommel', 'Schlüssel', 'Socke', 'Stift', 'Vase', 'Kiste', 'Tasche', 'Eimer', 'Tasse', 'Schere', 'Würfel', 'Jacke', 'Rucksack', 'Kerze', 'Buch', 'Kette', 'Brille', 'Hut', 'Kamera', 'Löffel', 'Hammer']",292.5632356000133,292.5659608999267,None,292.5660850999411,298.56677549984306,3,298.56706869998015,298.56958899996243,None,298.56969839986414,298.5707739999052,298.5707859999966,,298.5720128000248,1.625627800123766,None,,,,,,,,,,,,,,,,,,,,,,,,,,,,,,,,,,,,,,,,,,,,,,2,2023-11-28_08h58.56.844,watkins1,2023.2.3,99.77889006158307,23,2023-11-28 08h59.03.354063 +0000,
,,,,,,,,,,,7,0,7,0,,,,,,,,,,,,,298.5762598000001,,,,,,,,,,,,298.5722913998179,299.0683316998184,,,[],[],,,,,,,,,,,,None,None,,,,,,,,,,Telefon,nachhaltig,"['Telefon', 'nachhaltig']",restudy,2,,,,,,298.57222609990276,298.5722639998421,"['Bürste', 'Blume', 'Flasche', 'Fahrrad', 'Geige', 'Lampe', 'Uhr', 'Telefon', 'Ring', 'Trommel', 'Schlüssel', 'Socke', 'Stift', 'Vase', 'Kiste', 'Tasche', 'Eimer', 'Tasse', 'Schere', 'Würfel', 'Jacke', 'Rucksack', 'Kerze', 'Buch', 'Kette', 'Brille', 'Hut', 'Kamera', 'Löffel', 'Hammer']",299.0683434000239,299.0712665000465,None,299.071390299825,305.07404630002566,2,305.0743517000228,305.0771498000249,None,305.0772628998384,305.07844539987855,305.07845729985274,,305.07969329995103,2.055762199917808,None,,,,,,,,,,,,,,,,,,,,,,,,,,,,,,,,,,,,,,,,,,,,,,2,2023-11-28_08h58.56.844,watkins1,2023.2.3,99.77889006158307,23,2023-11-28 08h59.03.354063 +0000,
,,,,,,,,,,,8,0,8,0,,,,,,,,,,,,,305.0834880999755,,,,,,,,,,,,305.0799763998948,305.57554739993066,,,[],[],,,,,,,,,,,,3.8940676997881383,None,,,,,,,,,,Ring,neu,"['Ring', 'neu']",test_sub,2,,,,,,305.0799090999644,305.0799493000377,"['Bürste', 'Blume', 'Flasche', 'Fahrrad', 'Geige', 'Lampe', 'Uhr', 'Telefon', 'Ring', 'Trommel', 'Schlüssel', 'Socke', 'Stift', 'Vase', 'Kiste', 'Tasche', 'Eimer', 'Tasse', 'Schere', 'Würfel', 'Jacke', 'Rucksack', 'Kerze', 'Buch', 'Kette', 'Brille', 'Hut', 'Kamera', 'Löffel', 'Hammer']",305.57555909990333,305.57818949990906,None,305.57831349992193,305.5799807999283,None,305.5800911998376,305.5813845999073,None,305.581492099911,305.58252389985137,305.5825370999519,0,311.5855090999976,,,,,,,,,,,,,,,,,,,,,,,,,,,,,,,,,,,,,,,,,,,,,,,,2,2023-11-28_08h58.56.844,watkins1,2023.2.3,99.77889006158307,23,2023-11-28 08h59.03.354063 +0000,
,,,,,,,,,,,9,0,9,0,,,,,,,,,,,,,311.59530219994485,,,,,,,,,,,,311.5857863998972,312.07745789992623,,,[],[],,,,,,,,,,,,3.0936618000268936,None,,,,,,,,,,Trommel,teuer,"['Trommel', 'teuer']",test_sub,2,,,,,,311.5857214999851,311.58575799991377,"['Bürste', 'Blume', 'Flasche', 'Fahrrad', 'Geige', 'Lampe', 'Uhr', 'Telefon', 'Ring', 'Trommel', 'Schlüssel', 'Socke', 'Stift', 'Vase', 'Kiste', 'Tasche', 'Eimer', 'Tasse', 'Schere', 'Würfel', 'Jacke', 'Rucksack', 'Kerze', 'Buch', 'Kette', 'Brille', 'Hut', 'Kamera', 'Löffel', 'Hammer']",312.0774699000176,312.0801943000406,None,312.0803222998511,312.08274829993024,None,312.0828591999598,312.0852794998791,None,312.0853895000182,312.08658619993366,312.08659920003265,0,318.0940268000122,,,,,,,,,,,,,,,,,,,,,,,,,,,,,,,,,,,,,,,,,,,,,,,,2,2023-11-28_08h58.56.844,watkins1,2023.2.3,99.77889006158307,23,2023-11-28 08h59.03.354063 +0000,
,,,,,,,,,,,10,0,10,0,,,,,,,,,,,,,318.1037564999424,,,,,,,,,,,,318.0943026000168,318.58603459992446,,,[],[],,,,,,,,,,,,2.633067599963397,None,,,,,Schlüs,,,,,Schlüssel,schmutzig,"['Schlüssel', 'schmutzig']",test_sub,2,,,,,,318.0942376998719,318.09427449991927,"['Bürste', 'Blume', 'Flasche', 'Fahrrad', 'Geige', 'Lampe', 'Uhr', 'Telefon', 'Ring', 'Trommel', 'Schlüssel', 'Socke', 'Stift', 'Vase', 'Kiste', 'Tasche', 'Eimer', 'Tasse', 'Schere', 'Würfel', 'Jacke', 'Rucksack', 'Kerze', 'Buch', 'Kette', 'Brille', 'Hut', 'Kamera', 'Löffel', 'Hammer']",318.58604549989104,318.5887541999109,None,318.588875599904,318.5915245998185,None,318.5916305000428,318.59416049998254,None,318.5942668998614,318.59548150002956,318.5954938000068,0,324.6034379999619,,,,,,,,,,,,,,,,,,,,,,,,,,,,,,,,,,,,,,,,,,,,,,,,2,2023-11-28_08h58.56.844,watkins1,2023.2.3,99.77889006158307,23,2023-11-28 08h59.03.354063 +0000,
,,,,,,,,,,,11,0,11,0,,,,,,,,,,,,,324.6132010000292,,,,,,,,,,,,324.60375200002454,325.0953827998601,,,[],[],,,,,,,,,,,,None,None,,,,,,,,,,Socke,groß,"['Socke', 'groß']",test_sub,2,,,,,,324.603652499849,324.6037222999148,"['Bürste', 'Blume', 'Flasche', 'Fahrrad', 'Geige', 'Lampe', 'Uhr', 'Telefon', 'Ring', 'Trommel', 'Schlüssel', 'Socke', 'Stift', 'Vase', 'Kiste', 'Tasche', 'Eimer', 'Tasse', 'Schere', 'Würfel', 'Jacke', 'Rucksack', 'Kerze', 'Buch', 'Kette', 'Brille', 'Hut', 'Kamera', 'Löffel', 'Hammer']",325.0953946998343,325.09815829992294,None,325.0982835998293,325.10086739994586,None,325.10097659984604,325.1035594998393,None,325.1036666999571,325.1048200998921,325.10483289998956,0,331.1116605999414,,,,,,,,,,,,,,,,,,,,,,,,,,,,,,,,,,,,,,,,,,,,,,,,2,2023-11-28_08h58.56.844,watkins1,2023.2.3,99.77889006158307,23,2023-11-28 08h59.03.354063 +0000,
,,,,,,,,,,,12,0,12,0,,,,,,,,,,,,,331.1214852000121,,,,,,,,,,,,331.11194380000234,331.6035052998923,,,[],[],,,,,,,,,,,,None,None,,,,,,,,,,Stift,praktisch,"['Stift', 'praktisch']",restudy,2,,,,,,331.1118749999441,331.1119142998941,"['Bürste', 'Blume', 'Flasche', 'Fahrrad', 'Geige', 'Lampe', 'Uhr', 'Telefon', 'Ring', 'Trommel', 'Schlüssel', 'Socke', 'Stift', 'Vase', 'Kiste', 'Tasche', 'Eimer', 'Tasse', 'Schere', 'Würfel', 'Jacke', 'Rucksack', 'Kerze', 'Buch', 'Kette', 'Brille', 'Hut', 'Kamera', 'Löffel', 'Hammer']",331.6035170999821,331.606081899954,None,331.6062062999699,337.6079067999963,None,337.6080435998738,337.61077949986793,None,337.610893700039,337.612038299907,337.6120503998827,,337.6132679998409,,,,,,,,,,,,,,,,,,,,,,,,,,,,,,,,,,,,,,,,,,,,,,,,2,2023-11-28_08h58.56.844,watkins1,2023.2.3,99.77889006158307,23,2023-11-28 08h59.03.354063 +0000,
,,,,,,,,,,,13,0,13,0,,,,,,,,,,,,,337.6172865999397,,,,,,,,,,,,337.6135535000358,338.1094455998391,,,[],[],,,,,,,,,,,,None,None,,,,,,,,,,Vase,schlicht,"['Vase', 'schlicht']",restudy,2,,,,,,337.61348939989693,337.6135264998302,"['Bürste', 'Blume', 'Flasche', 'Fahrrad', 'Geige', 'Lampe', 'Uhr', 'Telefon', 'Ring', 'Trommel', 'Schlüssel', 'Socke', 'Stift', 'Vase', 'Kiste', 'Tasche', 'Eimer', 'Tasse', 'Schere', 'Würfel', 'Jacke', 'Rucksack', 'Kerze', 'Buch', 'Kette', 'Brille', 'Hut', 'Kamera', 'Löffel', 'Hammer']",338.1094571999274,338.11225240002386,None,338.11237720004283,344.1144125999417,2,344.11471390002407,344.1172942998819,None,344.11740699992515,344.1184536998626,344.11846569995396,,344.11967289983295,2.6793012998532504,None,,,,,,,,,,,,,,,,,,,,,,,,,,,,,,,,,,,,,,,,,,,,,,2,2023-11-28_08h58.56.844,watkins1,2023.2.3,99.77889006158307,23,2023-11-28 08h59.03.354063 +0000,
,,,,,,,,,,,14,0,14,0,,,,,,,,,,,,,344.12377920001745,,,,,,,,,,,,344.11996000004,344.6157563000452,,,[],[],,,,,,,,,,,,None,None,,,,,,,,,,Kiste,klobig,"['Kiste', 'klobig']",restudy,2,,,,,,344.1198952998966,344.119932499947,"['Bürste', 'Blume', 'Flasche', 'Fahrrad', 'Geige', 'Lampe', 'Uhr', 'Telefon', 'Ring', 'Trommel', 'Schlüssel', 'Socke', 'Stift', 'Vase', 'Kiste', 'Tasche', 'Eimer', 'Tasse', 'Schere', 'Würfel', 'Jacke', 'Rucksack', 'Kerze', 'Buch', 'Kette', 'Brille', 'Hut', 'Kamera', 'Löffel', 'Hammer']",344.61576749989763,344.61849859985523,None,344.61862399987876,350.62150110001676,1,350.621793899918,350.624486599816,None,350.6245996998623,350.62575119989924,350.6257628998719,,350.62693279981613,1.4682364999316633,None,,,,,,,,,,,,,,,,,,,,,,,,,,,,,,,,,,,,,,,,,,,,,,2,2023-11-28_08h58.56.844,watkins1,2023.2.3,99.77889006158307,23,2023-11-28 08h59.03.354063 +0000,
,,,,,,,,,,,15,0,15,0,,,,,,,,,,,,,350.6309888998512,,,,,,,,,,,,350.6272128999699,351.12304229987785,,,[],[],,,,,,,,,,,,2.669391700066626,None,,,,,Jack,,,,,Tasche,matt,"['Tasche', 'matt']",test_sub,2,,,,,,350.6271484999452,350.6271863998845,"['Bürste', 'Blume', 'Flasche', 'Fahrrad', 'Geige', 'Lampe', 'Uhr', 'Telefon', 'Ring', 'Trommel', 'Schlüssel', 'Socke', 'Stift', 'Vase', 'Kiste', 'Tasche', 'Eimer', 'Tasse', 'Schere', 'Würfel', 'Jacke', 'Rucksack', 'Kerze', 'Buch', 'Kette', 'Brille', 'Hut', 'Kamera', 'Löffel', 'Hammer']",351.1230540999677,351.1258914999198,None,351.1260161998216,351.1274568999652,None,351.12756669986993,351.128992700018,None,351.12909929989837,351.1302880998701,351.13030139985494,0,357.13358489982784,,,,,,,,,,,,,,,,,,,,,,,,,,,,,,,,,,,,,,,,,,,,,,,,2,2023-11-28_08h58.56.844,watkins1,2023.2.3,99.77889006158307,23,2023-11-28 08h59.03.354063 +0000,
,,,,,,,,,,,16,0,16,0,,,,,,,,,,,,,357.14335129992105,,,,,,,,,,,,357.13386849989183,357.625397299882,,,[],[],,,,,,,,,,,,None,None,,,,,,,,,,Eimer,lang,"['Eimer', 'lang']",restudy,2,,,,,,357.1338007999584,357.13383769989014,"['Bürste', 'Blume', 'Flasche', 'Fahrrad', 'Geige', 'Lampe', 'Uhr', 'Telefon', 'Ring', 'Trommel', 'Schlüssel', 'Socke', 'Stift', 'Vase', 'Kiste', 'Tasche', 'Eimer', 'Tasse', 'Schere', 'Würfel', 'Jacke', 'Rucksack', 'Kerze', 'Buch', 'Kette', 'Brille', 'Hut', 'Kamera', 'Löffel', 'Hammer']",357.6254089998547,357.62794459983706,None,357.62806829996407,363.63122350000776,1,363.63151880004443,363.63410030002706,None,363.6342132999562,363.635384199908,363.6353960998822,,363.6367393999826,3.1231465998571366,None,,,,,,,,,,,,,,,,,,,,,,,,,,,,,,,,,,,,,,,,,,,,,,2,2023-11-28_08h58.56.844,watkins1,2023.2.3,99.77889006158307,23,2023-11-28 08h59.03.354063 +0000,
,,,,,,,,,,,17,0,17,0,,,,,,,,,,,,,363.6407583998516,,,,,,,,,,,,363.6370206999127,364.1328310999088,,,[],[],,,,,,,,,,,,None,None,,,,,,,,,,Tasse,lustig,"['Tasse', 'lustig']",restudy,2,,,,,,363.6369549999945,363.6369931998197,"['Bürste', 'Blume', 'Flasche', 'Fahrrad', 'Geige', 'Lampe', 'Uhr', 'Telefon', 'Ring', 'Trommel', 'Schlüssel', 'Socke', 'Stift', 'Vase', 'Kiste', 'Tasche', 'Eimer', 'Tasse', 'Schere', 'Würfel', 'Jacke', 'Rucksack', 'Kerze', 'Buch', 'Kette', 'Brille', 'Hut', 'Kamera', 'Löffel', 'Hammer']",364.13284259987995,364.1353698000312,None,364.13549819984473,370.13920530001633,1,370.13950379984453,370.14215309987776,None,370.1422639999073,370.14342089998536,370.14343279995956,,370.14459939999506,1.647653899854049,None,,,,,,,,,,,,,,,,,,,,,,,,,,,,,,,,,,,,,,,,,,,,,,2,2023-11-28_08h58.56.844,watkins1,2023.2.3,99.77889006158307,23,2023-11-28 08h59.03.354063 +0000,
,,,,,,,,,,,18,0,18,0,,,,,,,,,,,,,370.14863219996914,,,,,,,,,,,,370.144884099951,370.64078349992633,,,[],[],,,,,,,,,,,,None,None,,,,,,,,,,Schere,glatt,"['Schere', 'glatt']",test_sub,2,,,,,,370.14481880003586,370.14485709997825,"['Bürste', 'Blume', 'Flasche', 'Fahrrad', 'Geige', 'Lampe', 'Uhr', 'Telefon', 'Ring', 'Trommel', 'Schlüssel', 'Socke', 'Stift', 'Vase', 'Kiste', 'Tasche', 'Eimer', 'Tasse', 'Schere', 'Würfel', 'Jacke', 'Rucksack', 'Kerze', 'Buch', 'Kette', 'Brille', 'Hut', 'Kamera', 'Löffel', 'Hammer']",370.6407943998929,370.6434585999232,None,370.6435817000456,370.64517139992677,None,370.64528159983456,370.64670409983955,None,370.6468098999467,370.64799520000815,370.6480082999915,0,376.6513930999208,,,,,,,,,,,,,,,,,,,,,,,,,,,,,,,,,,,,,,,,,,,,,,,,2,2023-11-28_08h58.56.844,watkins1,2023.2.3,99.77889006158307,23,2023-11-28 08h59.03.354063 +0000,
,,,,,,,,,,,19,0,19,0,,,,,,,,,,,,,376.6612573999446,,,,,,,,,,,,376.6516704999376,377.14340409985743,,,[],[],,,,,,,,,,,,None,None,,,,,,,,,,Würfel,zart,"['Würfel', 'zart']",test_sub,2,,,,,,376.65160520002246,376.6516417998355,"['Bürste', 'Blume', 'Flasche', 'Fahrrad', 'Geige', 'Lampe', 'Uhr', 'Telefon', 'Ring', 'Trommel', 'Schlüssel', 'Socke', 'Stift', 'Vase', 'Kiste', 'Tasche', 'Eimer', 'Tasse', 'Schere', 'Würfel', 'Jacke', 'Rucksack', 'Kerze', 'Buch', 'Kette', 'Brille', 'Hut', 'Kamera', 'Löffel', 'Hammer']",377.14341549994424,377.14610979985446,None,377.14623409998603,377.14878119993955,None,377.14889870001934,377.1514735999517,None,377.15158679988235,377.15276249987073,377.1527752999682,0,383.15819909982383,,,,,,,,,,,,,,,,,,,,,,,,,,,,,,,,,,,,,,,,,,,,,,,,2,2023-11-28_08h58.56.844,watkins1,2023.2.3,99.77889006158307,23,2023-11-28 08h59.03.354063 +0000,
,,,,,,,,,,,20,0,20,0,,,,,,,,,,,,,383.1680833999999,,,,,,,,,,,,383.15847099991515,383.65002119983546,,,[],[],,,,,,,,,,,,1.7273654001764953,3.3338434000033885,,,,,Fahrrad,,,,,Jacke,glänzend,"['Jacke', 'glänzend']",test_sub,2,,,,,,383.1584073000122,383.1584429999348,"['Bürste', 'Blume', 'Flasche', 'Fahrrad', 'Geige', 'Lampe', 'Uhr', 'Telefon', 'Ring', 'Trommel', 'Schlüssel', 'Socke', 'Stift', 'Vase', 'Kiste', 'Tasche', 'Eimer', 'Tasse', 'Schere', 'Würfel', 'Jacke', 'Rucksack', 'Kerze', 'Buch', 'Kette', 'Brille', 'Hut', 'Kamera', 'Löffel', 'Hammer']",383.65003239992075,383.65257179993205,None,383.65269499993883,383.6552106998861,None,383.6553215999156,383.65768239996396,None,383.65778999985196,383.6589416998904,383.6589544999879,0,389.664011699846,,,,,,,,,,,,,,,,,,,,,,,,,,,,,,,,,,,,,,,,,,,,,,,,2,2023-11-28_08h58.56.844,watkins1,2023.2.3,99.77889006158307,23,2023-11-28 08h59.03.354063 +0000,
,,,,,,,,,,,21,0,21,0,,,,,,,,,,,,,389.67386469990015,,,,,,,,,,,,389.66429409990087,390.15593929984607,,,[],[],,,,,,,,,,,,3.3150687001179904,None,,,,,,,,,,Rucksack,kalt,"['Rucksack', 'kalt']",test_sub,2,,,,,,389.6642275999766,389.6642654000316,"['Bürste', 'Blume', 'Flasche', 'Fahrrad', 'Geige', 'Lampe', 'Uhr', 'Telefon', 'Ring', 'Trommel', 'Schlüssel', 'Socke', 'Stift', 'Vase', 'Kiste', 'Tasche', 'Eimer', 'Tasse', 'Schere', 'Würfel', 'Jacke', 'Rucksack', 'Kerze', 'Buch', 'Kette', 'Brille', 'Hut', 'Kamera', 'Löffel', 'Hammer']",390.1559505998157,390.15884589985944,None,390.1589690998662,390.1615748000331,None,390.16168569982983,390.16428689984605,None,390.1643993000034,390.1657725998666,390.1657853999641,0,396.1720529999584,,,,,,,,,,,,,,,,,,,,,,,,,,,,,,,,,,,,,,,,,,,,,,,,2,2023-11-28_08h58.56.844,watkins1,2023.2.3,99.77889006158307,23,2023-11-28 08h59.03.354063 +0000,
,,,,,,,,,,,22,0,22,0,,,,,,,,,,,,,396.1819593999535,,,,,,,,,,,,396.17233620001934,396.66392500000075,,,[],[],,,,,,,,,,,,None,None,,,,,,,,,,Kerze,schwer,"['Kerze', 'schwer']",restudy,2,,,,,,396.17226839996874,396.17230700002983,"['Bürste', 'Blume', 'Flasche', 'Fahrrad', 'Geige', 'Lampe', 'Uhr', 'Telefon', 'Ring', 'Trommel', 'Schlüssel', 'Socke', 'Stift', 'Vase', 'Kiste', 'Tasche', 'Eimer', 'Tasse', 'Schere', 'Würfel', 'Jacke', 'Rucksack', 'Kerze', 'Buch', 'Kette', 'Brille', 'Hut', 'Kamera', 'Löffel', 'Hammer']",396.6639354999643,396.6664590998553,None,396.6665782998316,402.6761627998203,1,402.67645979998633,402.6791050999891,None,402.67921769991517,402.6803572999779,402.6803689999506,,402.6815257000271,1.588541700039059,None,,,,,,,,,,,,,,,,,,,,,,,,,,,,,,,,,,,,,,,,,,,,,,2,2023-11-28_08h58.56.844,watkins1,2023.2.3,99.77889006158307,23,2023-11-28 08h59.03.354063 +0000,
,,,,,,,,,,,23,0,23,0,,,,,,,,,,,,,402.68557389988564,,,,,,,,,,,,402.68181460001506,403.1776361998636,,,[],[],,,,,,,,,,,,None,None,,,,,,,,,,Buch,kurz,"['Buch', 'kurz']",test_sub,2,,,,,,402.68175009987317,402.6817874999251,"['Bürste', 'Blume', 'Flasche', 'Fahrrad', 'Geige', 'Lampe', 'Uhr', 'Telefon', 'Ring', 'Trommel', 'Schlüssel', 'Socke', 'Stift', 'Vase', 'Kiste', 'Tasche', 'Eimer', 'Tasse', 'Schere', 'Würfel', 'Jacke', 'Rucksack', 'Kerze', 'Buch', 'Kette', 'Brille', 'Hut', 'Kamera', 'Löffel', 'Hammer']",403.17764829983935,403.1801737998612,None,403.1803013999015,403.18157959985547,None,403.18168829986826,403.18296769983135,None,403.1830752999522,403.1840995999519,403.18411229993217,0,409.18687319988385,,,,,,,,,,,,,,,,,,,,,,,,,,,,,,,,,,,,,,,,,,,,,,,,2,2023-11-28_08h58.56.844,watkins1,2023.2.3,99.77889006158307,23,2023-11-28 08h59.03.354063 +0000,
,,,,,,,,,,,24,0,24,0,,,,,,,,,,,,,409.1967941999901,,,,,,,,,,,,409.1871513999067,409.6787304999307,,,[],[],,,,,,,,,,,,2.3497901000082493,3.6450301001314074,,,,,,,,,,Kette,nass,"['Kette', 'nass']",test_sub,2,,,,,,409.18708669999614,409.1871225000359,"['Bürste', 'Blume', 'Flasche', 'Fahrrad', 'Geige', 'Lampe', 'Uhr', 'Telefon', 'Ring', 'Trommel', 'Schlüssel', 'Socke', 'Stift', 'Vase', 'Kiste', 'Tasche', 'Eimer', 'Tasse', 'Schere', 'Würfel', 'Jacke', 'Rucksack', 'Kerze', 'Buch', 'Kette', 'Brille', 'Hut', 'Kamera', 'Löffel', 'Hammer']",409.6787415998988,409.6812552998308,None,409.68137999996543,409.6837410000153,None,409.6838511999231,409.6862005998846,None,409.68630920001306,409.68784779985435,409.68786099995486,0,415.6927475000266,,,,,,,,,,,,,,,,,,,,,,,,,,,,,,,,,,,,,,,,,,,,,,,,2,2023-11-28_08h58.56.844,watkins1,2023.2.3,99.77889006158307,23,2023-11-28 08h59.03.354063 +0000,
,,,,,,,,,,,25,0,25,0,,,,,,,,,,,,,415.7025625000242,,,,,,,,,,,,415.69302599993534,416.18535889987834,,,[],[],,,,,,,,,,,,None,None,,,,,,,,,,Brille,gepunktet,"['Brille', 'gepunktet']",restudy,2,,,,,,415.69296019989997,415.69299749983475,"['Bürste', 'Blume', 'Flasche', 'Fahrrad', 'Geige', 'Lampe', 'Uhr', 'Telefon', 'Ring', 'Trommel', 'Schlüssel', 'Socke', 'Stift', 'Vase', 'Kiste', 'Tasche', 'Eimer', 'Tasse', 'Schere', 'Würfel', 'Jacke', 'Rucksack', 'Kerze', 'Buch', 'Kette', 'Brille', 'Hut', 'Kamera', 'Löffel', 'Hammer']",416.18537029996514,416.1879137000069,None,416.18803730001673,422.1911253000144,1,422.1914192000404,422.19414389994927,None,422.194257899886,422.19543029996566,422.1954420998227,,422.1966658998281,1.898973000003025,None,,,,,,,,,,,,,,,,,,,,,,,,,,,,,,,,,,,,,,,,,,,,,,2,2023-11-28_08h58.56.844,watkins1,2023.2.3,99.77889006158307,23,2023-11-28 08h59.03.354063 +0000,
,,,,,,,,,,,26,0,26,0,,,,,,,,,,,,,422.20055239996873,,,,,,,,,,,,422.19695060001686,422.69264849997126,,,[],[],,,,,,,,,,,,None,None,,,,,,,,,,Hut,verspielt,"['Hut', 'verspielt']",restudy,2,,,,,,422.196884999983,422.19692369992845,"['Bürste', 'Blume', 'Flasche', 'Fahrrad', 'Geige', 'Lampe', 'Uhr', 'Telefon', 'Ring', 'Trommel', 'Schlüssel', 'Socke', 'Stift', 'Vase', 'Kiste', 'Tasche', 'Eimer', 'Tasse', 'Schere', 'Würfel', 'Jacke', 'Rucksack', 'Kerze', 'Buch', 'Kette', 'Brille', 'Hut', 'Kamera', 'Löffel', 'Hammer']",422.6926596998237,422.6952435998246,None,422.695367799839,428.7059483998455,1,428.7062442000024,428.70882299984805,None,428.70893480000086,428.7099530999549,428.70996510004625,,428.7111873999238,1.3761098999530077,None,,,,,,,,,,,,,,,,,,,,,,,,,,,,,,,,,,,,,,,,,,,,,,2,2023-11-28_08h58.56.844,watkins1,2023.2.3,99.77889006158307,23,2023-11-28 08h59.03.354063 +0000,
,,,,,,,,,,,27,0,27,0,,,,,,,,,,,,,428.7154702998232,,,,,,,,,,,,428.7114701999817,429.2074966998771,,,[],[],,,,,,,,,,,,None,None,,,,,,,,,,Kamera,blass,"['Kamera', 'blass']",restudy,2,,,,,,428.71140439994633,428.71144309989177,"['Bürste', 'Blume', 'Flasche', 'Fahrrad', 'Geige', 'Lampe', 'Uhr', 'Telefon', 'Ring', 'Trommel', 'Schlüssel', 'Socke', 'Stift', 'Vase', 'Kiste', 'Tasche', 'Eimer', 'Tasse', 'Schere', 'Würfel', 'Jacke', 'Rucksack', 'Kerze', 'Buch', 'Kette', 'Brille', 'Hut', 'Kamera', 'Löffel', 'Hammer']",429.2075082999654,429.2105335998349,None,429.2106845998205,435.2167259999551,1,435.21702259988524,435.21969209983945,None,435.2198059000075,435.220978599973,435.2209902999457,,435.22213070001453,1.372319299960509,None,,,,,,,,,,,,,,,,,,,,,,,,,,,,,,,,,,,,,,,,,,,,,,2,2023-11-28_08h58.56.844,watkins1,2023.2.3,99.77889006158307,23,2023-11-28 08h59.03.354063 +0000,
,,,,,,,,,,,28,0,28,0,,,,,,,,,,,,,435.2260229999665,,,,,,,,,,,,435.22241109982133,435.7183154998347,,,[],[],,,,,,,,,,,,None,None,,,,,,,,,,Löffel,breit,"['Löffel', 'breit']",restudy,2,,,,,,435.2223463000264,435.22238439996727,"['Bürste', 'Blume', 'Flasche', 'Fahrrad', 'Geige', 'Lampe', 'Uhr', 'Telefon', 'Ring', 'Trommel', 'Schlüssel', 'Socke', 'Stift', 'Vase', 'Kiste', 'Tasche', 'Eimer', 'Tasse', 'Schere', 'Würfel', 'Jacke', 'Rucksack', 'Kerze', 'Buch', 'Kette', 'Brille', 'Hut', 'Kamera', 'Löffel', 'Hammer']",435.71832669992,435.7210988998413,None,435.72122169984505,441.7268262999132,3,441.72712429985404,441.7297749998979,None,441.7298850999214,441.7310464999173,441.73105850000866,,441.73220409988426,1.4858897000085562,None,,,,,,,,,,,,,,,,,,,,,,,,,,,,,,,,,,,,,,,,,,,,,,2,2023-11-28_08h58.56.844,watkins1,2023.2.3,99.77889006158307,23,2023-11-28 08h59.03.354063 +0000,
,,,,,,,,,,,29,0,29,0,,,,,,,,,,,,,441.73635849985294,,,,,,,,,,,,441.7324869998265,442.22847019997425,,,[],[],,,,,,,,,,,,None,None,,,,,,,,,,Hammer,niedlich,"['Hammer', 'niedlich']",restudy,2,,,,,,441.7324218999129,441.7324597998522,"['Bürste', 'Blume', 'Flasche', 'Fahrrad', 'Geige', 'Lampe', 'Uhr', 'Telefon', 'Ring', 'Trommel', 'Schlüssel', 'Socke', 'Stift', 'Vase', 'Kiste', 'Tasche', 'Eimer', 'Tasse', 'Schere', 'Würfel', 'Jacke', 'Rucksack', 'Kerze', 'Buch', 'Kette', 'Brille', 'Hut', 'Kamera', 'Löffel', 'Hammer']",442.22848229995,442.2312802998349,None,442.23140419996344,448.2409758998547,1,448.2412689998746,448.24401029990986,None,448.2441224998329,448.2452976999339,448.2453095000237,,448.24653819995,0.9036141999531537,None,,,,,,,,,,,,,,,,,,,,,,,,,,,,,,,,,,,,,,,,,,,,,,2,2023-11-28_08h58.56.844,watkins1,2023.2.3,99.77889006158307,23,2023-11-28 08h59.03.354063 +0000,
,,,,,,,,,,,,,,,,,,,,,,,,,,,,,,,,,,,,,,,,,,,,,,,,,,,,,,,,,,,,,,,,,,,,,,,2,,,,,,,,,,,,,,,,,,,,,,,,,,,,,,,,,,,,,,,,,,,,,,,,,,,,,,,,,,,,,,,,,,,,,,2,2023-11-28_08h58.56.844,watkins1,2023.2.3,99.77889006158307,23,2023-11-28 08h59.03.354063 +0000,
(9 x 5) - 9 = 36 ,Correct,button_correct,,,,,,,,,,,,,0,0,0,4,,,,,,,,,464.81070269993506,,,,,,,,,,463.77744839992374,464.7811638000421,,,,,['button_correct'],[4.412681099958718],,,,,,,,,,,,,,,,,,,,,,,,,,distractorTask,2,,,,,,,,,,,,,,,,,,,,,,,,,464.79961939994246,464.81070269993506,469.21705599990673,[0.4212962962962963],[-0.39166666666666666],[1],[0],[0],[4.412681099958718],['button_correct'],469.2177176999394,470.22076739999466,,,,,,,,,,,,,,,,,,,,,,,,,,,,,,,,,,2,2023-11-28_08h58.56.844,watkins1,2023.2.3,99.77889006158307,23,2023-11-28 08h59.03.354063 +0000,
(40 : 5) + 8 = 15 ,Incorrect,button_incorrect,,,,,,,,,,,,,0,1,1,7,,,,,,,,,470.2307527998928,,,,,,,,,,,,,,,,['button_incorrect'],[5.097789299907163],,,,,,,,,,,,,,,,,,,,,,,,,,distractorTask,2,,,,,,,,,,,,,,,,,,,,,,,,,470.2209562000353,470.2307527998928,475.322296399856,[-0.30648148148148147],[-0.4046296296296296],[1],[0],[0],[5.097789299907163],['button_incorrect'],475.3226753999479,476.3258693998214,,,,,,,,,,,,,,,,,,,,,,,,,,,,,,,,,,2,2023-11-28_08h58.56.844,watkins1,2023.2.3,99.77889006158307,23,2023-11-28 08h59.03.354063 +0000,
(4 : 2) + 4 = 6 ,Correct,button_correct,,,,,,,,,,,,,0,2,2,1,,,,,,,,,476.3359462998342,,,,,,,,,,,,,,,,['button_correct'],[2.5687800999730825],,,,,,,,,,,,,,,,,,,,,,,,,,distractorTask,2,,,,,,,,,,,,,,,,,,,,,,,,,476.32605919986963,476.3359462998342,478.897078699898,[0.32037037037037036],[-0.3972222222222222],[1],[0],[0],[2.5687800999730825],['button_correct'],478.89745339984074,479.9006246998906,,,,,,,,,,,,,,,,,,,,,,,,,,,,,,,,,,2,2023-11-28_08h58.56.844,watkins1,2023.2.3,99.77889006158307,23,2023-11-28 08h59.03.354063 +0000,
(7 x 6) + 9 = 48 ,Incorrect,button_incorrect,,,,,,,,,,,,,0,3,3,9,,,,,,,,,479.91070719994605,,,,,,,,,,,,,,,,['button_incorrect'],[4.406066699884832],,,,,,,,,,,,,,,,,,,,,,,,,,distractorTask,2,,,,,,,,,,,,,,,,,,,,,,,,,479.9008118000347,479.91070719994605,484.3090645999182,[-0.2861111111111111],[-0.4064814814814815],[1],[0],[0],[4.406066699884832],['button_incorrect'],484.30944249988534,485.3128931999672,,,,,,,,,,,,,,,,,,,,,,,,,,,,,,,,,,2,2023-11-28_08h58.56.844,watkins1,2023.2.3,99.77889006158307,23,2023-11-28 08h59.03.354063 +0000,
(25 : 5) + 5 = 9 ,Incorrect,button_incorrect,,,,,,,,,,,,,0,4,4,6,,,,,,,,,485.3228728999384,,,,,,,,,,,,,,,,['button_incorrect'],[2.4686601001303643],,,,,,,,,,,,,,,,,,,,,,,,,,distractorTask,2,,,,,,,,,,,,,,,,,,,,,,,,,485.31307759997435,485.3228728999384,487.7835665999446,[-0.34814814814814815],[-0.4027777777777778],[1],[0],[0],[2.4686601001303643],['button_incorrect'],487.78407229995355,488.7872813998256,,,,,,,,,,,,,,,,,,,,,,,,,,,,,,,,,,2,2023-11-28_08h58.56.844,watkins1,2023.2.3,99.77889006158307,23,2023-11-28 08h59.03.354063 +0000,
(2 x 5) + 3 = 13 ,Correct,button_correct,,,,,,,,,,,,,0,5,5,2,,,,,,,,,488.7972702998668,,,,,,,,,,,,,,,,['button_correct'],[2.087186399847269],,,,,,,,,,,,,,,,,,,,,,,,,,distractorTask,2,,,,,,,,,,,,,,,,,,,,,,,,,488.7874775000382,488.7972702998668,490.87635020003654,[0.4101851851851852],[-0.39814814814814814],[1],[0],[0],[2.087186399847269],['button_correct'],490.8767303999048,491.88053189986385,,,,,,,,,,,,,,,,,,,,,,,,,,,,,,,,,,2,2023-11-28_08h58.56.844,watkins1,2023.2.3,99.77889006158307,23,2023-11-28 08h59.03.354063 +0000,
(6 x 3) + 10 = 27 ,Incorrect,button_incorrect,,,,,,,,,,,,,0,6,6,8,,,,,,,,,491.8905082999263,,,,,,,,,,,,,,,,['button_incorrect'],[3.462914500152692],,,,,,,,,,,,,,,,,,,,,,,,,,distractorTask,2,,,,,,,,,,,,,,,,,,,,,,,,,491.8807216999121,491.8905082999263,495.34550249995664,[-0.3962962962962963],[-0.3888888888888889],[1],[0],[0],[3.462914500152692],['button_incorrect'],495.345882399939,496.3489449999761,,,,,,,,,,,,,,,,,,,,,,,,,,,,,,,,,,2,2023-11-28_08h58.56.844,watkins1,2023.2.3,99.77889006158307,23,2023-11-28 08h59.03.354063 +0000,
(80 : 10) + 9 = 17 ,Correct,button_correct,,,,,,,,,,,,,0,7,7,3,,,,,,,,,496.35897539998405,,,,,,,,,,,,,,,,['button_correct'],[3.8140042000450194],,,,,,,,,,,,,,,,,,,,,,,,,,distractorTask,2,,,,,,,,,,,,,,,,,,,,,,,,,496.3491298998706,496.35897539998405,500.1652210999746,[0.30462962962962964],[-0.39351851851851855],[1],[0],[0],[3.8140042000450194],['button_correct'],500.1655997999478,501.1687202998437,,,,,,,,,,,,,,,,,,,,,,,,,,,,,,,,,,2,2023-11-28_08h58.56.844,watkins1,2023.2.3,99.77889006158307,23,2023-11-28 08h59.03.354063 +0000,
(28 : 7) - 3 = 1 ,Correct,button_correct,,,,,,,,,,,,,0,8,8,0,,,,,,,,,501.1786731998436,,,,,,,,,,,,,,,,['button_correct'],[7.2589044000487775],,,,,,,,,,,,,,,,,,,,,,,,,,distractorTask,2,,,,,,,,,,,,,,,,,,,,,,,,,501.16891629993916,501.1786731998436,508.42953269998543,[0.3148148148148148],[-0.39351851851851855],[1],[0],[0],[7.2589044000487775],['button_correct'],508.43005710002035,509.43321539997123,,,,,,,,,,,,,,,,,,,,,,,,,,,,,,,,,,2,2023-11-28_08h58.56.844,watkins1,2023.2.3,99.77889006158307,23,2023-11-28 08h59.03.354063 +0000,
(54 : 6) - 10 = 0 ,Incorrect,button_incorrect,,,,,,,,,,,,,0,9,9,5,,,,,,,,,509.44319049990736,,,,,,,,,,,,,,,,['button_incorrect'],[5.912687000120059],,,,,,,,,,,,,,,,,,,,,,,,,,distractorTask,2,,,,,,,,,,,,,,,,,,,,,,,,,509.4334042998962,509.44319049990736,515.3479210999794,[-0.3314814814814815],[-0.4027777777777778],[1],[0],[0],[5.912687000120059],['button_incorrect'],515.3483001999557,516.3517144999932,,,,,,,,,,,,,,,,,,,,,,,,,,,,,,,,,,2,2023-11-28_08h58.56.844,watkins1,2023.2.3,99.77889006158307,23,2023-11-28 08h59.03.354063 +0000,
,,,,,,,,,,,,,,,,,,,,,,,,,,,,,,,,,,,,,,,,,,,,,,,,,,,,,,,,,,,,,,,,,,,,,,,2,,,,,,,,,,,,,,,,,,,,,,,,,,,,,,,,,,,,,,,,,,,,,,,,,,,,,,,,,,,,,,,,,,,,,,2,2023-11-28_08h58.56.844,watkins1,2023.2.3,99.77889006158307,23,2023-11-28 08h59.03.354063 +0000,
,,,,,,,,,,,,,,,,,,,0,0,0,0,,,,,524.5335460000206,,,,,,,,,,,,,,,,Schlüssel,8.18992259982042,,,,,,,,,,,,5.45102099981159,None,,,,,,,,,,,,,freeRecallSub,2,,,,,,,,,,,,,,,,,,,,,,,,,,,,,,,,,,,,,524.5259088999592,524.5335460000206,524.5335460000206,532.7276304999832,return,8.18992259982042,None,Schlüssel,[],[],[],[],[],[],[],,,,,,,,,,,,,,,,,,,2,2023-11-28_08h58.56.844,watkins1,2023.2.3,99.77889006158307,23,2023-11-28 08h59.03.354063 +0000,
,,,,,,,,,,,,,,,,,,,1,0,1,0,,,,,532.7404051998165,,,,,,,,,,,,,,,,Lampe,2.991094799945131,,,,,,,,,,,,1.7404713998548687,None,,,,,,,,,,,,,freeRecallSub,2,,,,,,,,,,,,,,,,,,,,,,,,,,,,,,,,,,,,,532.7293980999384,532.7404051998165,532.7404051998165,535.7352688999381,return,2.991094799945131,None,Lampe,[],[],[],[],[],[],[],,,,,,,,,,,,,,,,,,,2,2023-11-28_08h58.56.844,watkins1,2023.2.3,99.77889006158307,23,2023-11-28 08h59.03.354063 +0000,
,,,,,,,,,,,,,,,,,,,2,0,2,0,,,,,535.7462216999847,,,,,,,,,,,,,,,,Kette,2.6173081998713315,,,,,,,,,,,,1.6269783000461757,None,,,,,,,,,,,,,freeRecallSub,2,,,,,,,,,,,,,,,,,,,,,,,,,,,,,,,,,,,,,535.7365158998873,535.7462216999847,535.7462216999847,538.3677401000168,return,2.6173081998713315,None,Kette,[],[],[],[],[],[],[],,,,,,,,,,,,,,,,,,,2,2023-11-28_08h58.56.844,watkins1,2023.2.3,99.77889006158307,23,2023-11-28 08h59.03.354063 +0000,
,,,,,,,,,,,,,,,,,,,3,0,3,0,,,,,538.3783686000388,,,,,,,,,,,,,,,,Eimer,6.457239900017157,,,,,,,,,,,,1.0640212001744658,4.066386300139129,,,,,,,,,,,,,freeRecallSub,2,,,,,,,,,,,,,,,,,,,,,,,,,,,,,,,,,,,,,538.3690024998505,538.3783686000388,538.3783686000388,544.8452438998502,return,6.457239900017157,None,Eimer,[],[],[],[],[],[],[],,,,,,,,,,,,,,,,,,,2,2023-11-28_08h58.56.844,watkins1,2023.2.3,99.77889006158307,23,2023-11-28 08h59.03.354063 +0000,
,,,,,,,,,,,,,,,,,,,4,0,4,0,,,,,544.8562382999808,,,,,,,,,,,,,,,,Uhr,4.091181899886578,,,,,,,,,,,,3.0427383000496775,None,,,,,,,,,,,,,freeRecallSub,2,,,,,,,,,,,,,,,,,,,,,,,,,,,,,,,,,,,,,544.8464971999638,544.8562382999808,544.8562382999808,548.9536234999541,return,4.091181899886578,None,Uhr,[],[],[],[],[],[],[],,,,,,,,,,,,,,,,,,,2,2023-11-28_08h58.56.844,watkins1,2023.2.3,99.77889006158307,23,2023-11-28 08h59.03.354063 +0000,
,,,,,,,,,,,,,,,,,,,5,0,5,0,,,,,548.9647915998939,,,,,,,,,,,,,,,,Katze,4.478723299922422,,,,,,,,,,,,2.3202305000741035,None,,,,,,,,,,,,,freeRecallSub,2,,,,,,,,,,,,,,,,,,,,,,,,,,,,,,,,,,,,,548.9548762999475,548.9647915998939,548.9647915998939,553.4441531000193,return,4.478723299922422,None,Katze,[],[],[],[],[],[],[],,,,,,,,,,,,,,,,,,,2,2023-11-28_08h58.56.844,watkins1,2023.2.3,99.77889006158307,23,2023-11-28 08h59.03.354063 +0000,
,,,,,,,,,,,,,,,,,,,6,0,6,0,,,,,553.4553346999455,,,,,,,,,,,,,,,,Lampe,17.332210399908945,,,,,,,,,,,,15.655403800075874,None,,,,,,,,,,,,,freeRecallSub,2,,,,,,,,,,,,,,,,,,,,,,,,,,,,,,,,,,,,,553.4454099000432,553.4553346999455,553.4553346999455,570.788194200024,return,17.332210399908945,None,Lampe,[],[],[],[],[],[],[],,,,,,,,,,,,,,,,,,,2,2023-11-28_08h58.56.844,watkins1,2023.2.3,99.77889006158307,23,2023-11-28 08h59.03.354063 +0000,
,,,,,,,,,,,,,,,,,,,7,0,7,0,,,,,570.7996047998313,,,,,,,,,,,,,,,,Fahrrad,9.09978809999302,,,,,,,,,,,,7.240612500114366,None,,,,,,,,,,,,,freeRecallSub,2,,,,,,,,,,,,,,,,,,,,,,,,,,,,,,,,,,,,,570.7894573998637,570.7996047998313,570.7996047998313,579.9077216000296,return,9.09978809999302,None,Fahrrad,[],[],[],[],[],[],[],,,,,,,,,,,,,,,,,,,2,2023-11-28_08h58.56.844,watkins1,2023.2.3,99.77889006158307,23,2023-11-28 08h59.03.354063 +0000,
,,,,,,,,,,,,,,,,,,,8,0,8,0,,,,,579.9197294998448,,,,,,,,,,,,,,,,Löffel,7.7077383999712765,,,,,,,,,,,,5.856348099885508,None,,,,,,,,,,,,,freeRecallSub,2,,,,,,,,,,,,,,,,,,,,,,,,,,,,,,,,,,,,,579.9089645999484,579.9197294998448,579.9197294998448,587.633070099866,return,7.7077383999712765,None,Löffel,[],[],[],[],[],[],[],,,,,,,,,,,,,,,,,,,2,2023-11-28_08h58.56.844,watkins1,2023.2.3,99.77889006158307,23,2023-11-28 08h59.03.354063 +0000,
,,,,,,,,,,,,,,,,,,,9,0,9,0,,,,,587.6449690998998,,,,,,,,,,,,,,,,Jacke,18.07043020008132,,,,,,,,,,,,16.762555200140923,None,,,,,,,,,,,,,freeRecallSub,2,,,,,,,,,,,,,,,,,,,,,,,,,,,,,,,,,,,,,587.6342890998349,587.6449690998998,587.6449690998998,605.7223545999732,return,18.07043020008132,None,Jacke,[],[],[],[],[],[],[],,,,,,,,,,,,,,,,,,,2,2023-11-28_08h58.56.844,watkins1,2023.2.3,99.77889006158307,23,2023-11-28 08h59.03.354063 +0000,
,,,,,,,,,,,,,,,,,,,10,0,10,0,,,,,605.7347583000083,,,,,,,,,,,,,,,,Kiste,16.75667280005291,,,,,,,,,,,,15.396039000013843,None,,,,,,,,,,,,,freeRecallSub,2,,,,,,,,,,,,,,,,,,,,,,,,,,,,,,,,,,,,,605.7236138998996,605.7347583000083,605.7347583000083,622.4954422998708,return,16.75667280005291,None,Kiste,[],[],[],[],[],[],[],,,,,,,,,,,,,,,,,,,2,2023-11-28_08h58.56.844,watkins1,2023.2.3,99.77889006158307,23,2023-11-28 08h59.03.354063 +0000,
,,,,,,,,,,,,,,,,,,,11,0,11,0,,,,,622.5075499999803,,,,,,,,,,,,,,,,Telefon,6.8078602000605315,,,,,,,,,,,,5.4049943999852985,None,,,,,,,,,,,,,freeRecallSub,2,,,,,,,,,,,,,,,,,,,,,,,,,,,,,,,,,,,,,622.4966996000148,622.5075499999803,622.5075499999803,629.3175753999967,return,6.8078602000605315,None,Telefon,[],[],[],[],[],[],[],,,,,,,,,,,,,,,,,,,2,2023-11-28_08h58.56.844,watkins1,2023.2.3,99.77889006158307,23,2023-11-28 08h59.03.354063 +0000,
,,,,,,,,,,,,,,,,,,,12,0,12,0,,,,,629.330548199825,,,,,,,,,,,,,,,,,[],,,,,,,,,,,,None,None,,,,,,,,,,,,,freeRecallSub,2,,,,,,,,,,,,,,,,,,,,,,,,,,,,,,,,,,,,,629.3188179000281,629.330548199825,629.330548199825,659.7407330998685,None,,,,[0.3194444444444444],[-0.4101851851851852],[1],[0],[0],[30.416614199988544],"['button_continue', 'continue_text']",,,,,,,,,,,,,,,,,,,2,2023-11-28_08h58.56.844,watkins1,2023.2.3,99.77889006158307,23,2023-11-28 08h59.03.354063 +0000,
,,,,,,,,,,,,,,,,,,,,,,,,,,,,,,,,,,,,,,,,,,,,,,,,,,,,,,,,,,,,,,,,,,,,,,,2,,,,,,,,,,,,,,,,,,,,,,,,,,,,,,,,,,,,,,,,,,,,,,,,,,,,,,,,,,,,,,,,,,,,,,2,2023-11-28_08h58.56.844,watkins1,2023.2.3,99.77889006158307,23,2023-11-28 08h59.03.354063 +0000,
,,,,,,,,,,,,,,,,,,,,,,,0,0,0,0,669.5110534999985,,,,,,,,,,,,671.8040481999051,672.3027435999829,,,,2.284250699914992,,,,,,,,,,,,None,None,,,,,,,,,,Bürste,,,cuedRecallAdj,2,,,,,,,,,,,,,,,,,,,,,0,,,,,,,,,,,,,,,,,,,,,,,,,,,,,,,669.5020414998289,669.5110534999985,669.5110534999985,671.8009601999074,hohl,return,2.284250699914992,None,671.8013391999993,671.8105046998244,671.8105046998244,671.803903899854,,None,,,,,2,2023-11-28_08h58.56.844,watkins1,2023.2.3,99.77889006158307,23,2023-11-28 08h59.03.354063 +0000,
,,,,,,,,,,,,,,,,,,,,,,,1,0,1,0,672.3126965998672,,,,,,,,,,,,674.6556527998764,675.1543345998507,,,,2.3385634999722242,,,,,,,,,,,,None,None,,,,,,,,,,Kamera,,,cuedRecallAdj,2,,,,,,,,,,,,,,,,,,,,,0,,,,,,,,,,,,,,,,,,,,,,,,,,,,,,,672.3029841999523,672.3126965998672,672.3126965998672,674.6527311999816,blass,return,2.3385634999722242,None,674.6529961000197,674.6623076999094,674.6623076999094,674.6555506999139,,None,,,,,2,2023-11-28_08h58.56.844,watkins1,2023.2.3,99.77889006158307,23,2023-11-28 08h59.03.354063 +0000,
,,,,,,,,,,,,,,,,,,,,,,,2,0,2,0,675.1643792998511,,,,,,,,,,,,677.4571360999253,677.9559665999841,,,,2.286969400011003,,,,,,,,,,,,None,None,,,,,,,,,,Socke,,,cuedRecallAdj,2,,,,,,,,,,,,,,,,,,,,,0,,,,,,,,,,,,,,,,,,,,,,,,,,,,,,,675.1545823998749,675.1643792998511,675.1643792998511,677.4543212999124,groß,return,2.286969400011003,None,677.4545861999504,677.4638934999239,677.4638934999239,677.4570343999658,,None,,,,,2,2023-11-28_08h58.56.844,watkins1,2023.2.3,99.77889006158307,23,2023-11-28 08h59.03.354063 +0000,
,,,,,,,,,,,,,,,,,,,,,,,3,0,3,0,677.9658714998513,,,,,,,,,,,,680.5401924999896,681.0386979000177,,,,2.565472299931571,,,,,,,,,,,,None,None,,,,,,,,,,Tasse,,,cuedRecallAdj,2,,,,,,,,,,,,,,,,,,,,,0,,,,,,,,,,,,,,,,,,,,,,,,,,,,,,,677.9562127999961,677.9658714998513,677.9658714998513,680.5370322999079,lustig,return,2.565472299931571,None,680.5372973999474,680.5465873000212,680.5465873000212,680.5400876998901,,None,,,,,2,2023-11-28_08h58.56.844,watkins1,2023.2.3,99.77889006158307,23,2023-11-28 08h59.03.354063 +0000,
,,,,,,,,,,,,,,,,,,,,,,,4,0,4,0,681.0485937998164,,,,,,,,,,,,683.4522134000435,683.9506736998446,,,,2.394681900041178,,,,,,,,,,,,None,None,,,,,,,,,,Hammer,,,cuedRecallAdj,2,,,,,,,,,,,,,,,,,,,,,0,,,,,,,,,,,,,,,,,,,,,,,,,,,,,,,681.0389399998821,681.0485937998164,681.0485937998164,683.4490220998414,niedlich,return,2.394681900041178,None,683.449283799855,683.4585662998725,683.4585662998725,683.452112399973,,None,,,,,2,2023-11-28_08h58.56.844,watkins1,2023.2.3,99.77889006158307,23,2023-11-28 08h59.03.354063 +0000,
,,,,,,,,,,,,,,,,,,,,,,,5,0,5,0,683.9606081999373,,,,,,,,,,,,688.9546158998273,689.4532469999976,,,,4.986746399896219,,,,,,,,,,,,None,None,,,,,,,,,,Kiste,,,cuedRecallAdj,2,,,,,,,,,,,,,,,,,,,,,0,,,,,,,,,,,,,,,,,,,,,,,,,,,,,,,683.950916599948,683.9606081999373,683.9606081999373,688.9516236998606,koblig,return,4.986746399896219,None,688.9518861998804,688.9611783998553,688.9611783998553,688.954514299985,,None,,,,,2,2023-11-28_08h58.56.844,watkins1,2023.2.3,99.77889006158307,23,2023-11-28 08h59.03.354063 +0000,
,,,,,,,,,,,,,,,,,,,,,,,6,0,6,0,689.4632007000037,,,,,,,,,,,,693.6633772000205,694.1525675000157,,,,4.1880745000671595,,,,,,,,,,,,None,None,,,,,,,,,,Ring,,,cuedRecallAdj,2,,,,,,,,,,,,,,,,,,,,,0,,,,,,,,,,,,,,,,,,,,,,,,,,,,,,,689.4534887999762,689.4632007000037,689.4632007000037,693.660678899847,zart,return,4.1880745000671595,None,693.660943799885,693.6704555000179,693.6704555000179,693.6632744998205,,None,,,,,2,2023-11-28_08h58.56.844,watkins1,2023.2.3,99.77889006158307,23,2023-11-28 08h59.03.354063 +0000,
,,,,,,,,,,,,,,,,,,,,,,,7,0,7,0,694.1624747999012,,,,,,,,,,,,696.6561139000114,697.1548619999085,,,,2.488873800029978,,,,,,,,,,,,None,None,,,,,,,,,,Stift,,,cuedRecallAdj,2,,,,,,,,,,,,,,,,,,,,,0,,,,,,,,,,,,,,,,,,,,,,,,,,,,,,,694.1528085998725,694.1624747999012,694.1624747999012,696.6531046999153,praktisch,return,2.488873800029978,None,696.653368299827,696.6627326000016,696.6627326000016,696.6560125998221,,None,,,,,2,2023-11-28_08h58.56.844,watkins1,2023.2.3,99.77889006158307,23,2023-11-28 08h59.03.354063 +0000,
,,,,,,,,,,,,,,,,,,,,,,,8,0,8,0,697.1647740998305,,,,,,,,,,,,700.8836187999696,701.382446100004,,,,3.7104877999518067,,,,,,,,,,,,None,None,,,,,,,,,,Jacke,,,cuedRecallAdj,2,,,,,,,,,,,,,,,,,,,,,0,,,,,,,,,,,,,,,,,,,,,,,,,,,,,,,697.1551024999935,697.1647740998305,697.1647740998305,700.8807665999047,matt,return,3.7104877999518067,None,700.8810319998302,700.8903780998662,700.8903780998662,700.883516300004,,None,,,,,2,2023-11-28_08h58.56.844,watkins1,2023.2.3,99.77889006158307,23,2023-11-28 08h59.03.354063 +0000,
,,,,,,,,,,,,,,,,,,,,,,,9,0,9,0,701.3923889999278,,,,,,,,,,,,705.8040428999811,706.3027572999708,,,,4.402847599936649,,,,,,,,,,,,None,None,,,,,,,,,,Vase,,,cuedRecallAdj,2,,,,,,,,,,,,,,,,,,,,,0,,,,,,,,,,,,,,,,,,,,,,,,,,,,,,,701.3826878999826,701.3923889999278,701.3923889999278,705.8011441999115,schlicht,return,4.402847599936649,None,705.8014081998263,705.8106752999593,705.8106752999593,705.8039432000369,,None,,,,,2,2023-11-28_08h58.56.844,watkins1,2023.2.3,99.77889006158307,23,2023-11-28 08h59.03.354063 +0000,
,,,,,,,,,,,,,,,,,,,,,,,10,0,10,0,706.3126550999004,,,,,,,,,,,,708.253959099995,708.7528576999903,,,,1.9305963998194784,,,,,,,,,,,,None,None,,,,,,,,,,Trommel,,,cuedRecallAdj,2,,,,,,,,,,,,,,,,,,,,,0,,,,,,,,,,,,,,,,,,,,,,,,,,,,,,,706.302996299928,706.3126550999004,706.3126550999004,708.2510015999433,teuer,return,1.9305963998194784,None,708.2512642999645,708.2607650000136,708.2607650000136,708.2538566000294,,None,,,,,2,2023-11-28_08h58.56.844,watkins1,2023.2.3,99.77889006158307,23,2023-11-28 08h59.03.354063 +0000,
,,,,,,,,,,,,,,,,,,,,,,,11,0,11,0,708.7628083999734,,,,,,,,,,,,712.5918370999862,713.0905323999468,,,,3.8164975000545382,,,,,,,,,,,,None,None,,,,,,,,,,Lampe,,,cuedRecallAdj,2,,,,,,,,,,,,,,,,,,,,,0,,,,,,,,,,,,,,,,,,,,,,,,,,,,,,,708.7531012999825,708.7628083999734,708.7628083999734,712.5888276000042,rustikal,return,3.8164975000545382,None,712.5890917999204,712.5985488998704,712.5985488998704,712.5917358000297,,None,,,,,2,2023-11-28_08h58.56.844,watkins1,2023.2.3,99.77889006158307,23,2023-11-28 08h59.03.354063 +0000,
,,,,,,,,,,,,,,,,,,,,,,,12,0,12,0,713.1006842998322,,,,,,,,,,,,715.4736426000018,715.9724419999402,,,,2.366521100047976,,,,,,,,,,,,None,None,,,,,,,,,,Geige,,,cuedRecallAdj,2,,,,,,,,,,,,,,,,,,,,,0,,,,,,,,,,,,,,,,,,,,,,,,,,,,,,,713.0907768998295,713.1006842998322,713.1006842998322,715.470849199919,gut,return,2.366521100047976,None,715.4711153998505,715.4804214998148,715.4804214998148,715.4735417999327,,None,,,,,2,2023-11-28_08h58.56.844,watkins1,2023.2.3,99.77889006158307,23,2023-11-28 08h59.03.354063 +0000,
,,,,,,,,,,,,,,,,,,,,,,,13,0,13,0,715.9823633998167,,,,,,,,,,,,723.3059086999856,723.8047134999651,,,,7.3169381998013705,,,,,,,,,,,,None,None,,,,,,,,,,Würfel,,,cuedRecallAdj,2,,,,,,,,,,,,,,,,,,,,,0,,,,,,,,,,,,,,,,,,,,,,,,,,,,,,,715.9726889999583,715.9823633998167,715.9823633998167,723.3030604999512,zart,return,7.3169381998013705,None,723.3033263999969,723.3126217999961,723.3126217999961,723.3058054000139,,None,,,,,2,2023-11-28_08h58.56.844,watkins1,2023.2.3,99.77889006158307,23,2023-11-28 08h59.03.354063 +0000,
,,,,,,,,,,,,,,,,,,,,,,,14,0,14,0,723.8146547998767,,,,,,,,,,,,729.6421615998261,730.140649799956,,,,5.820665400009602,,,,,,,,,,,,None,None,,,,,,,,,,Telefon,,,cuedRecallAdj,2,,,,,,,,,,,,,,,,,,,,,0,,,,,,,,,,,,,,,,,,,,,,,,,,,,,,,723.8049616999924,723.8146547998767,723.8146547998767,729.6390557999257,nachhaltig,return,5.820665400009602,None,729.6393194999546,729.6485629999079,729.6485629999079,729.6420530998148,,None,,,,,2,2023-11-28_08h58.56.844,watkins1,2023.2.3,99.77889006158307,23,2023-11-28 08h59.03.354063 +0000,
,,,,,,,,,,,,,,,,,,,,,,,15,0,15,0,730.1507015998941,,,,,,,,,,,,731.8715122998692,732.3704860999715,,,,1.7085545000154525,,,,,,,,,,,,None,None,,,,,,,,,,Löffel,,,cuedRecallAdj,2,,,,,,,,,,,,,,,,,,,,,0,,,,,,,,,,,,,,,,,,,,,,,,,,,,,,,730.1408933999483,730.1507015998941,730.1507015998941,731.8685752998572,breit,return,1.7085545000154525,None,731.8688401998952,731.8784060999751,731.8784060999751,731.8714103000239,,None,,,,,2,2023-11-28_08h58.56.844,watkins1,2023.2.3,99.77889006158307,23,2023-11-28 08h59.03.354063 +0000,
,,,,,,,,,,,,,,,,,,,,,,,16,0,16,0,732.3804389999714,,,,,,,,,,,,736.4003087999299,736.8991022999398,,,,4.006726500112563,,,,,,,,,,,,None,None,,,,,,,,,,Brille,,,cuedRecallAdj,2,,,,,,,,,,,,,,,,,,,,,0,,,,,,,,,,,,,,,,,,,,,,,,,,,,,,,732.370727499947,732.3804389999714,732.3804389999714,736.3972942000255,gepunktet,return,4.006726500112563,None,736.3975567999296,736.4070160000119,736.4070160000119,736.400207299972,,None,,,,,2,2023-11-28_08h58.56.844,watkins1,2023.2.3,99.77889006158307,23,2023-11-28 08h59.03.354063 +0000,
,,,,,,,,,,,,,,,,,,,,,,,17,0,17,0,736.9090594998561,,,,,,,,,,,,740.015302099986,740.5144137998577,,,,3.102160100126639,,,,,,,,,,,,None,None,,,,,,,,,,Schlüssel,,,cuedRecallAdj,2,,,,,,,,,,,,,,,,,,,,,0,,,,,,,,,,,,,,,,,,,,,,,,,,,,,,,736.8993501998484,736.9090594998561,736.9090594998561,740.0122344000265,schmutzig,return,3.102160100126639,None,740.0124943000264,740.0218129998539,740.0218129998539,740.0152004999109,,None,,,,,2,2023-11-28_08h58.56.844,watkins1,2023.2.3,99.77889006158307,23,2023-11-28 08h59.03.354063 +0000,
,,,,,,,,,,,,,,,,,,,,,,,18,0,18,0,740.5243418000173,,,,,,,,,,,,744.6446097998414,745.1431644000113,,,,4.110825099982321,,,,,,,,,,,,None,None,,,,,,,,,,Fahrrad,,,cuedRecallAdj,2,,,,,,,,,,,,,,,,,,,,,0,,,,,,,,,,,,,,,,,,,,,,,,,,,,,,,740.5146540999413,740.5243418000173,740.5243418000173,744.6416030998807,glänzend,return,4.110825099982321,None,744.6418687000405,744.6511845998466,744.6511845998466,744.6445098998956,,None,,,,,2,2023-11-28_08h58.56.844,watkins1,2023.2.3,99.77889006158307,23,2023-11-28 08h59.03.354063 +0000,
,,,,,,,,,,,,,,,,,,,,,,,19,0,19,0,745.1532191999722,,,,,,,,,,,,748.63064759993,749.1296691000462,,,,3.4659710000269115,,,,,,,,,,,,None,None,,,,,,,,,,Tasche,,,cuedRecallAdj,2,,,,,,,,,,,,,,,,,,,,,0,,,,,,,,,,,,,,,,,,,,,,,,,,,,,,,745.1434086000081,745.1532191999722,745.1532191999722,748.6277864000294,matt,return,3.4659710000269115,None,748.6280523999594,748.6375064998865,748.6375064998865,748.6305458999705,,None,,,,,2,2023-11-28_08h58.56.844,watkins1,2023.2.3,99.77889006158307,23,2023-11-28 08h59.03.354063 +0000,
,,,,,,,,,,,,,,,,,,,,,,,20,0,20,0,749.1396349000279,,,,,,,,,,,,752.5573771998752,753.0559769000392,,,,3.4077099000569433,,,,,,,,,,,,None,None,,,,,,,,,,Flasche,,,cuedRecallAdj,2,,,,,,,,,,,,,,,,,,,,,0,,,,,,,,,,,,,,,,,,,,,,,,,,,,,,,749.1299137999304,749.1396349000279,749.1396349000279,752.554398200009,robust,return,3.4077099000569433,None,752.5546670998447,752.563990799943,752.563990799943,752.5572756999172,,None,,,,,2,2023-11-28_08h58.56.844,watkins1,2023.2.3,99.77889006158307,23,2023-11-28 08h59.03.354063 +0000,
,,,,,,,,,,,,,,,,,,,,,,,21,0,21,0,753.0660182000138,,,,,,,,,,,,756.8548139999621,757.3535527999047,,,,3.7852558000013232,,,,,,,,,,,,None,None,,,,,,,,,,Uhr,,,cuedRecallAdj,2,,,,,,,,,,,,,,,,,,,,,0,,,,,,,,,,,,,,,,,,,,,,,,,,,,,,,753.0562181998976,753.0660182000138,753.0660182000138,756.8519982998259,elegant,return,3.7852558000013232,None,756.8522638999857,756.8614833999891,756.8614833999891,756.85471279989,,None,,,,,2,2023-11-28_08h58.56.844,watkins1,2023.2.3,99.77889006158307,23,2023-11-28 08h59.03.354063 +0000,
,,,,,,,,,,,,,,,,,,,,,,,22,0,22,0,757.3636032999493,,,,,,,,,,,,759.4953850999009,759.9944376999047,,,,2.127668500179425,,,,,,,,,,,,None,None,,,,,,,,,,Eimer,,,cuedRecallAdj,2,,,,,,,,,,,,,,,,,,,,,0,,,,,,,,,,,,,,,,,,,,,,,,,,,,,,,757.3537912999745,757.3636032999493,757.3636032999493,759.4925861000083,lang,return,2.127668500179425,None,759.4928486999124,759.5022249999456,759.5022249999456,759.4952842998318,,None,,,,,2,2023-11-28_08h58.56.844,watkins1,2023.2.3,99.77889006158307,23,2023-11-28 08h59.03.354063 +0000,
,,,,,,,,,,,,,,,,,,,,,,,23,0,23,0,760.0043772999197,,,,,,,,,,,,762.0862428999972,762.5850201998837,,,,2.0707842998672277,,,,,,,,,,,,None,None,,,,,,,,,,Schere,,,cuedRecallAdj,2,,,,,,,,,,,,,,,,,,,,,0,,,,,,,,,,,,,,,,,,,,,,,,,,,,,,,759.99468779983,760.0043772999197,760.0043772999197,762.0832903999835,glatt,return,2.0707842998672277,None,762.0835563000292,762.0929933998268,762.0929933998268,762.0861418999266,,None,,,,,2,2023-11-28_08h58.56.844,watkins1,2023.2.3,99.77889006158307,23,2023-11-28 08h59.03.354063 +0000,
,,,,,,,,,,,,,,,,,,,,,,,24,0,24,0,762.5949786000419,,,,,,,,,,,,765.4903808999807,765.9889314000029,,,,2.888210800010711,,,,,,,,,,,,None,None,,,,,,,,,,Kerze,,,cuedRecallAdj,2,,,,,,,,,,,,,,,,,,,,,0,,,,,,,,,,,,,,,,,,,,,,,,,,,,,,,762.5852601998486,762.5949786000419,762.5949786000419,765.4874140999746,schwer,return,2.888210800010711,None,765.4876745999791,765.4969817998353,765.4969817998353,765.4902796999086,,None,,,,,2,2023-11-28_08h58.56.844,watkins1,2023.2.3,99.77889006158307,23,2023-11-28 08h59.03.354063 +0000,
,,,,,,,,,,,,,,,,,,,,,,,25,0,25,0,765.998973299982,,,,,,,,,,,,768.9348502999637,769.4331488998141,,,,2.9323629001155496,,,,,,,,,,,,None,None,,,,,,,,,,Blume,,,cuedRecallAdj,2,,,,,,,,,,,,,,,,,,,,,0,,,,,,,,,,,,,,,,,,,,,,,,,,,,,,,765.9891778999008,765.998973299982,765.998973299982,768.9317236000206,dunkel,return,2.9323629001155496,None,768.9320057998411,768.9411392998882,768.9411392998882,768.9347417999525,,None,,,,,2,2023-11-28_08h58.56.844,watkins1,2023.2.3,99.77889006158307,23,2023-11-28 08h59.03.354063 +0000,
,,,,,,,,,,,,,,,,,,,,,,,26,0,26,0,769.4430458999705,,,,,,,,,,,,772.489010399906,772.9878058999311,,,,3.040261800168082,,,,,,,,,,,,None,None,,,,,,,,,,Kette,,,cuedRecallAdj,2,,,,,,,,,,,,,,,,,,,,,0,,,,,,,,,,,,,,,,,,,,,,,,,,,,,,,769.4333885000087,769.4430458999705,769.4430458999705,772.4862047999632,nass,return,3.040261800168082,None,772.4864681998733,772.4956916999072,772.4956916999072,772.488908499945,,None,,,,,2,2023-11-28_08h58.56.844,watkins1,2023.2.3,99.77889006158307,23,2023-11-28 08h59.03.354063 +0000,
,,,,,,,,,,,,,,,,,,,,,,,27,0,27,0,772.9977500999812,,,,,,,,,,,,777.2486821999773,777.7379334999714,,,,4.245531099848449,,,,,,,,,,,,None,None,,,,,,,,,,Rucksack,,,cuedRecallAdj,2,,,,,,,,,,,,,,,,,,,,,0,,,,,,,,,,,,,,,,,,,,,,,,,,,,,,,772.9880524999462,772.9977500999812,772.9977500999812,777.2458311999217,kalt,return,4.245531099848449,None,777.2460953998379,777.2553622999694,777.2553622999694,777.2485825000331,,None,,,,,2,2023-11-28_08h58.56.844,watkins1,2023.2.3,99.77889006158307,23,2023-11-28 08h59.03.354063 +0000,
,,,,,,,,,,,,,,,,,,,,,,,28,0,28,0,777.7479824998882,,,,,,,,,,,,784.5189075998496,785.0179361000191,,,,6.767237700056285,,,,,,,,,,,,None,None,,,,,,,,,,Hut,,,cuedRecallAdj,2,,,,,,,,,,,,,,,,,,,,,0,,,,,,,,,,,,,,,,,,,,,,,,,,,,,,,777.7381776999682,777.7479824998882,777.7479824998882,784.5162885999307,?,return,6.767237700056285,None,784.5165547998622,784.5258470999543,784.5258470999543,784.5188048998825,,None,,,,,2,2023-11-28_08h58.56.844,watkins1,2023.2.3,99.77889006158307,23,2023-11-28 08h59.03.354063 +0000,
,,,,,,,,,,,,,,,,,,,,,,,29,0,29,0,785.0278824998531,,,,,,,,,,,,787.1596134998836,787.6587519999593,,,,2.119329399894923,,,,,,,,,,,,None,None,,,,,,,,,,Buch,,,cuedRecallAdj,2,,,,,,,,,,,,,,,,,,,,,0,,,,,,,,,,,,,,,,,,,,,,,,,,,,,,,785.0181898998562,785.0278824998531,785.0278824998531,787.156915999949,kurz,return,2.119329399894923,None,787.1571798999794,787.1666436998639,787.1666436998639,787.1595121000428,,None,,,,,2,2023-11-28_08h58.56.844,watkins1,2023.2.3,99.77889006158307,23,2023-11-28 08h59.03.354063 +0000,
,,,,,,,,,,,,,,,,,,,,,,,,,,,,,,,,,,,,,,,,,,,,,,,,,,,,,,,,,,,,,,,,,,,,,,,2,,,,,,,,,,,,,,,,,,,,,,,,,,,,,,,,,,,,,,,,,,,,,,,,,,,,,,,,,,,,,,,,,,787.6752793998457,q,724.7351370002143,None,2,2023-11-28_08h58.56.844,watkins1,2023.2.3,99.77889006158307,23,2023-11-28 08h59.03.354063 +0000,
