Equation,CorrectResponse,Correctbutton,trials_7.thisRepN,trials_7.thisTrialN,trials_7.thisN,trials_7.thisIndex,trials.thisRepN,trials.thisTrialN,trials.thisN,trials.thisIndex,trials_3.thisRepN,trials_3.thisTrialN,trials_3.thisN,trials_3.thisIndex,trials_2.thisRepN,trials_2.thisTrialN,trials_2.thisN,trials_2.thisIndex,trials_4.thisRepN,trials_4.thisTrialN,trials_4.thisN,trials_4.thisIndex,trials_5.thisRepN,trials_5.thisTrialN,trials_5.thisN,trials_5.thisIndex,thisRow.t,notes,code_marius.started,code_marius.stopped,welcome.started,welcome.stopped,instruction_study.started,instruction_study.stopped,fixationcross.started,fixationcross.stopped,blanc.started,blanc.stopped,study_control_probe.started,study_control_probe.stopped,responseKey,responseTime,scale_answer_2.keys,study_control_probe_2.started,study_control_probe_2.stopped,scale_answer_3.keys,scale_answer_3.rt,scale_answer_3.duration,blanc_2.started,blanc_2.stopped,test_attr_probe.started,test_attr_probe.stopped,recalled_attr,firstKeyTime,secondWordTime,blanc_3.started,blanc_3.stopped,test_sub_probe.started,test_sub_probe.stopped,recalled_sub,instruction_probe_end.started,instruction_probe_end.stopped,study.started,study.stopped,substantive,adjective,wordpair,task,condition,liste_sub_phase1,liste_adj_phase1,scale_answer.keys,scale_answer.rt,scale_answer.duration,code_defineWordsInit.started,code_defineWordsInit.stopped,liste_sub_phase2,study_control.started,study_control.stopped,scale_answer_4.keys,restudy_same.started,restudy_same.stopped,scale_answer_5.keys,restudy_different.started,restudy_different.stopped,scale_answer_6.keys,test_attr.started,correct,test_attr.stopped,test_sub.started,test_sub.stopped,scale_answer_5.rt,scale_answer_5.duration,distractortask.started,equation_text.started,distractortask.stopped,mouse_answer.x,mouse_answer.y,mouse_answer.leftButton,mouse_answer.midButton,mouse_answer.rightButton,mouse_answer.time,mouse_answer.clicked_name,feedback_distractortask.started,feedback_distractortask.stopped,free_recall.started,text_enter.started,key_resp.started,free_recall.stopped,key_resp.keys,key_resp.rt,key_resp.duration,free_recalled_sub,mouse_continue.x,mouse_continue.y,mouse_continue.leftButton,mouse_continue.midButton,mouse_continue.rightButton,mouse_continue.time,mouse_continue.clicked_name,cued_recall.started,text_enter_2.started,key_continue.started,cued_recall.stopped,recalled_attr1,key_continue.keys,key_continue.rt,key_continue.duration,cued_recall_2.started,text_enter_3.started,key_continue_2.started,cued_recall_2.stopped,recalled_attr2,key_continue_2.keys,key_resp_8.started,key_resp_8.keys,key_resp_8.rt,key_resp_8.duration,condition,date,expName,psychopyVersion,frameRate,participant,expStart,
,,,,,,,,,,,,,,,,,,,,,,,,,,,,,0.11826769995968789,0.11833389999810606,0.11834240006282926,3.244112499989569,,,,,,,,,,,,,,,,,,,,,,,,,,,,,,,,,,,,,3,,,,,,,,,,,,,,,,,,,,,,,,,,,,,,,,,,,,,,,,,,,,,,,,,,,,,,,,,,,,,,,,,,,,,,3,2023-12-04_09h19.59.808,watkins1,2023.2.3,99.76684487355958,39,2023-12-04 09h20.06.527777 +0000,
,,,,,,,,,,,,,,,,,,,,,,,,,,,,,,,,,3.2441602000035346,6.344580600038171,,,,,,,,,,,,,,,,,,,,,,,,,,,,,,,,,,,3,,,,,,,,,,,,,,,,,,,,,,,,,,,,,,,,,,,,,,,,,,,,,,,,,,,,,,,,,,,,,,,,,,,,,,3,2023-12-04_09h19.59.808,watkins1,2023.2.3,99.76684487355958,39,2023-12-04 09h20.06.527777 +0000,
,,,0,0,0,0,,,,,,,,,,,,,,,,,,,,,7.358147899969481,,,,,,,,6.344596700044349,7.348163299961016,13.84277160000056,14.334042500006035,7.840157200000249,13.84260820003692,2,2.797997000045143,None,14.334052599966526,20.344375199987553,2,2.797997000045143,None,20.34467040002346,20.835871399962343,20.835883100051433,26.8406471000053,vergnügt,None,None,26.8408726999769,26.840895800036378,26.84090319997631,26.840990100055933,,,,,,,,,,3,,,,,,,,,,,,,,,,,,,,,,,,,,,,,,,,,,,,,,,,,,,,,,,,,,,,,,,,,,,,,,,,,,,,,,3,2023-12-04_09h19.59.808,watkins1,2023.2.3,99.76684487355958,39,2023-12-04 09h20.06.527777 +0000,
,,,,,,,,,,,,,,,,,,,,,,,,,,,,,,,,,,,,,,,,,,,,,,,,,,,,,,,,,,,,,26.84111080004368,31.009022900019772,,,,,,,3,,,,,,,,,,,,,,,,,,,,,,,,,,,,,,,,,,,,,,,,,,,,,,,,,,,,,,,,,,,,,,,,,,,,,,3,2023-12-04_09h19.59.808,watkins1,2023.2.3,99.76684487355958,39,2023-12-04 09h20.06.527777 +0000,
,,,,,,,0,0,0,0,,,,,,,,,,,,,,,,,32.02139680006076,,,,,,,,31.009039800032042,32.01141050003935,32.01186880003661,32.503321600030176,,,3,2.07210800005123,,,,,,,,,,,,,,,,,,,,,32.50333249999676,38.50581380003132,Uhr,flach,"['Uhr', 'flach']",restudy,3,"['Uhr', 'Tasche', 'Kerze', 'Löffel', 'Kamera', 'Kette', 'Blume', 'Jacke', 'Ring', 'Bürste', 'Hammer', 'Flasche', 'Fahrrad', 'Eimer', 'Schlüssel', 'Telefon', 'Vase', 'Hut', 'Socke', 'Brille', 'Geige', 'Lampe', 'Kiste', 'Tasse', 'Stift', 'Buch', 'Würfel', 'Schere', 'Rucksack', 'Trommel']",['flach'],3,2.07210800005123,None,,,,,,,,,,,,,,,,,,,,,,,,,,,,,,,,,,,,,,,,,,,,,,,,,,,,,,,,,,,,,,,,,3,2023-12-04_09h19.59.808,watkins1,2023.2.3,99.76684487355958,39,2023-12-04 09h20.06.527777 +0000,
,,,,,,,1,0,1,0,,,,,,,,,,,,,,,,,38.51532520004548,,,,,,,,,,38.50647809996735,38.99733439995907,,,2,2.4188746999716386,,,,,,,,,,,,,,,,,,,,,38.99734590004664,45.00021259998903,Tasche,glänzend,"['Tasche', 'glänzend']",test_adj,3,"['Uhr', 'Tasche', 'Kerze', 'Löffel', 'Kamera', 'Kette', 'Blume', 'Jacke', 'Ring', 'Bürste', 'Hammer', 'Flasche', 'Fahrrad', 'Eimer', 'Schlüssel', 'Telefon', 'Vase', 'Hut', 'Socke', 'Brille', 'Geige', 'Lampe', 'Kiste', 'Tasse', 'Stift', 'Buch', 'Würfel', 'Schere', 'Rucksack', 'Trommel']","['flach', 'glänzend']",2,2.4188746999716386,None,,,,,,,,,,,,,,,,,,,,,,,,,,,,,,,,,,,,,,,,,,,,,,,,,,,,,,,,,,,,,,,,,3,2023-12-04_09h19.59.808,watkins1,2023.2.3,99.76684487355958,39,2023-12-04 09h20.06.527777 +0000,
,,,,,,,2,0,2,0,,,,,,,,,,,,,,,,,45.00960330001544,,,,,,,,,,45.00073650002014,45.49156660004519,,,1,2.373450899962336,,,,,,,,,,,,,,,,,,,,,45.49157730001025,51.49794140004087,Kerze,schwer,"['Kerze', 'schwer']",test_adj,3,"['Uhr', 'Tasche', 'Kerze', 'Löffel', 'Kamera', 'Kette', 'Blume', 'Jacke', 'Ring', 'Bürste', 'Hammer', 'Flasche', 'Fahrrad', 'Eimer', 'Schlüssel', 'Telefon', 'Vase', 'Hut', 'Socke', 'Brille', 'Geige', 'Lampe', 'Kiste', 'Tasse', 'Stift', 'Buch', 'Würfel', 'Schere', 'Rucksack', 'Trommel']","['flach', 'glänzend', 'schwer']",1,2.373450899962336,None,,,,,,,,,,,,,,,,,,,,,,,,,,,,,,,,,,,,,,,,,,,,,,,,,,,,,,,,,,,,,,,,,3,2023-12-04_09h19.59.808,watkins1,2023.2.3,99.76684487355958,39,2023-12-04 09h20.06.527777 +0000,
,,,,,,,3,0,3,0,,,,,,,,,,,,,,,,,51.5074706999585,,,,,,,,,,51.49846889998298,51.98939200001769,,,1,1.427152800024487,,,,,,,,,,,,,,,,,,,,,51.98940239998046,57.99227599997539,Löffel,flauschig,"['Löffel', 'flauschig']",test_adj,3,"['Uhr', 'Tasche', 'Kerze', 'Löffel', 'Kamera', 'Kette', 'Blume', 'Jacke', 'Ring', 'Bürste', 'Hammer', 'Flasche', 'Fahrrad', 'Eimer', 'Schlüssel', 'Telefon', 'Vase', 'Hut', 'Socke', 'Brille', 'Geige', 'Lampe', 'Kiste', 'Tasse', 'Stift', 'Buch', 'Würfel', 'Schere', 'Rucksack', 'Trommel']","['flach', 'glänzend', 'schwer', 'flauschig']",1,1.427152800024487,None,,,,,,,,,,,,,,,,,,,,,,,,,,,,,,,,,,,,,,,,,,,,,,,,,,,,,,,,,,,,,,,,,3,2023-12-04_09h19.59.808,watkins1,2023.2.3,99.76684487355958,39,2023-12-04 09h20.06.527777 +0000,
,,,,,,,4,0,4,0,,,,,,,,,,,,,,,,,58.00170560006518,,,,,,,,,,57.992806400056,58.48375410004519,,,1,2.8537031000014395,,,,,,,,,,,,,,,,,,,,,58.48376490001101,64.48730989999603,Kamera,breit,"['Kamera', 'breit']",restudy,3,"['Uhr', 'Tasche', 'Kerze', 'Löffel', 'Kamera', 'Kette', 'Blume', 'Jacke', 'Ring', 'Bürste', 'Hammer', 'Flasche', 'Fahrrad', 'Eimer', 'Schlüssel', 'Telefon', 'Vase', 'Hut', 'Socke', 'Brille', 'Geige', 'Lampe', 'Kiste', 'Tasse', 'Stift', 'Buch', 'Würfel', 'Schere', 'Rucksack', 'Trommel']","['flach', 'glänzend', 'schwer', 'flauschig', 'breit']",1,2.8537031000014395,None,,,,,,,,,,,,,,,,,,,,,,,,,,,,,,,,,,,,,,,,,,,,,,,,,,,,,,,,,,,,,,,,,3,2023-12-04_09h19.59.808,watkins1,2023.2.3,99.76684487355958,39,2023-12-04 09h20.06.527777 +0000,
,,,,,,,5,0,5,0,,,,,,,,,,,,,,,,,64.49671680002939,,,,,,,,,,64.48784990003332,64.97889310005121,,,2,2.199149199994281,,,,,,,,,,,,,,,,,,,,,64.97890360001475,70.98072950006463,Kette,hässlich,"['Kette', 'hässlich']",restudy,3,"['Uhr', 'Tasche', 'Kerze', 'Löffel', 'Kamera', 'Kette', 'Blume', 'Jacke', 'Ring', 'Bürste', 'Hammer', 'Flasche', 'Fahrrad', 'Eimer', 'Schlüssel', 'Telefon', 'Vase', 'Hut', 'Socke', 'Brille', 'Geige', 'Lampe', 'Kiste', 'Tasse', 'Stift', 'Buch', 'Würfel', 'Schere', 'Rucksack', 'Trommel']","['flach', 'glänzend', 'schwer', 'flauschig', 'breit', 'hässlich']",2,2.199149199994281,None,,,,,,,,,,,,,,,,,,,,,,,,,,,,,,,,,,,,,,,,,,,,,,,,,,,,,,,,,,,,,,,,,3,2023-12-04_09h19.59.808,watkins1,2023.2.3,99.76684487355958,39,2023-12-04 09h20.06.527777 +0000,
,,,,,,,6,0,6,0,,,,,,,,,,,,,,,,,70.99023690004833,,,,,,,,,,70.98126360005699,71.472173999995,,,2,3.3451853999868035,,,,,,,,,,,,,,,,,,,,,71.47218449995853,77.47879259998444,Blume,nachhaltig,"['Blume', 'nachhaltig']",restudy,3,"['Uhr', 'Tasche', 'Kerze', 'Löffel', 'Kamera', 'Kette', 'Blume', 'Jacke', 'Ring', 'Bürste', 'Hammer', 'Flasche', 'Fahrrad', 'Eimer', 'Schlüssel', 'Telefon', 'Vase', 'Hut', 'Socke', 'Brille', 'Geige', 'Lampe', 'Kiste', 'Tasse', 'Stift', 'Buch', 'Würfel', 'Schere', 'Rucksack', 'Trommel']","['flach', 'glänzend', 'schwer', 'flauschig', 'breit', 'hässlich', 'nachhaltig']",2,3.3451853999868035,None,,,,,,,,,,,,,,,,,,,,,,,,,,,,,,,,,,,,,,,,,,,,,,,,,,,,,,,,,,,,,,,,,3,2023-12-04_09h19.59.808,watkins1,2023.2.3,99.76684487355958,39,2023-12-04 09h20.06.527777 +0000,
,,,,,,,7,0,7,0,,,,,,,,,,,,,,,,,77.48817789996974,,,,,,,,,,77.47932799998671,77.97023310000077,,,1,3.518512799986638,,,,,,,,,,,,,,,,,,,,,77.9702443999704,83.97286320000421,Jacke,durchsichtig,"['Jacke', 'durchsichtig']",test_adj,3,"['Uhr', 'Tasche', 'Kerze', 'Löffel', 'Kamera', 'Kette', 'Blume', 'Jacke', 'Ring', 'Bürste', 'Hammer', 'Flasche', 'Fahrrad', 'Eimer', 'Schlüssel', 'Telefon', 'Vase', 'Hut', 'Socke', 'Brille', 'Geige', 'Lampe', 'Kiste', 'Tasse', 'Stift', 'Buch', 'Würfel', 'Schere', 'Rucksack', 'Trommel']","['flach', 'glänzend', 'schwer', 'flauschig', 'breit', 'hässlich', 'nachhaltig', 'durchsichtig']",1,3.518512799986638,None,,,,,,,,,,,,,,,,,,,,,,,,,,,,,,,,,,,,,,,,,,,,,,,,,,,,,,,,,,,,,,,,,3,2023-12-04_09h19.59.808,watkins1,2023.2.3,99.76684487355958,39,2023-12-04 09h20.06.527777 +0000,
,,,,,,,8,0,8,0,,,,,,,,,,,,,,,,,83.98239310004283,,,,,,,,,,83.97339120006654,84.46416360000148,,,2,3.8494784000795335,,,,,,,,,,,,,,,,,,,,,84.46417409996502,90.46815239998978,Ring,neu,"['Ring', 'neu']",test_adj,3,"['Uhr', 'Tasche', 'Kerze', 'Löffel', 'Kamera', 'Kette', 'Blume', 'Jacke', 'Ring', 'Bürste', 'Hammer', 'Flasche', 'Fahrrad', 'Eimer', 'Schlüssel', 'Telefon', 'Vase', 'Hut', 'Socke', 'Brille', 'Geige', 'Lampe', 'Kiste', 'Tasse', 'Stift', 'Buch', 'Würfel', 'Schere', 'Rucksack', 'Trommel']","['flach', 'glänzend', 'schwer', 'flauschig', 'breit', 'hässlich', 'nachhaltig', 'durchsichtig', 'neu']",2,3.8494784000795335,None,,,,,,,,,,,,,,,,,,,,,,,,,,,,,,,,,,,,,,,,,,,,,,,,,,,,,,,,,,,,,,,,,3,2023-12-04_09h19.59.808,watkins1,2023.2.3,99.76684487355958,39,2023-12-04 09h20.06.527777 +0000,
,,,,,,,9,0,9,0,,,,,,,,,,,,,,,,,90.47768290003296,,,,,,,,,,90.46867560001556,90.95967680006288,,,2,4.218554300023243,,,,,,,,,,,,,,,,,,,,,90.95968850003555,96.96929400006775,Bürste,kalt,"['Bürste', 'kalt']",restudy,3,"['Uhr', 'Tasche', 'Kerze', 'Löffel', 'Kamera', 'Kette', 'Blume', 'Jacke', 'Ring', 'Bürste', 'Hammer', 'Flasche', 'Fahrrad', 'Eimer', 'Schlüssel', 'Telefon', 'Vase', 'Hut', 'Socke', 'Brille', 'Geige', 'Lampe', 'Kiste', 'Tasse', 'Stift', 'Buch', 'Würfel', 'Schere', 'Rucksack', 'Trommel']","['flach', 'glänzend', 'schwer', 'flauschig', 'breit', 'hässlich', 'nachhaltig', 'durchsichtig', 'neu', 'kalt']",2,4.218554300023243,None,,,,,,,,,,,,,,,,,,,,,,,,,,,,,,,,,,,,,,,,,,,,,,,,,,,,,,,,,,,,,,,,,3,2023-12-04_09h19.59.808,watkins1,2023.2.3,99.76684487355958,39,2023-12-04 09h20.06.527777 +0000,
,,,,,,,10,0,10,0,,,,,,,,,,,,,,,,,96.97871349996421,,,,,,,,,,96.969822700019,97.46122329996433,,,1,1.788182899937965,,,,,,,,,,,,,,,,,,,,,97.461233500042,103.4650078000268,Hammer,hübsch,"['Hammer', 'hübsch']",test_adj,3,"['Uhr', 'Tasche', 'Kerze', 'Löffel', 'Kamera', 'Kette', 'Blume', 'Jacke', 'Ring', 'Bürste', 'Hammer', 'Flasche', 'Fahrrad', 'Eimer', 'Schlüssel', 'Telefon', 'Vase', 'Hut', 'Socke', 'Brille', 'Geige', 'Lampe', 'Kiste', 'Tasse', 'Stift', 'Buch', 'Würfel', 'Schere', 'Rucksack', 'Trommel']","['flach', 'glänzend', 'schwer', 'flauschig', 'breit', 'hässlich', 'nachhaltig', 'durchsichtig', 'neu', 'kalt', 'hübsch']",1,1.788182899937965,None,,,,,,,,,,,,,,,,,,,,,,,,,,,,,,,,,,,,,,,,,,,,,,,,,,,,,,,,,,,,,,,,,3,2023-12-04_09h19.59.808,watkins1,2023.2.3,99.76684487355958,39,2023-12-04 09h20.06.527777 +0000,
,,,,,,,11,0,11,0,,,,,,,,,,,,,,,,,103.47442300000694,,,,,,,,,,103.4655418000184,103.95638870005496,,,1,2.1330695999786258,,,,,,,,,,,,,,,,,,,,,103.95640010002535,109.96419710002374,Flasche,lustig,"['Flasche', 'lustig']",test_adj,3,"['Uhr', 'Tasche', 'Kerze', 'Löffel', 'Kamera', 'Kette', 'Blume', 'Jacke', 'Ring', 'Bürste', 'Hammer', 'Flasche', 'Fahrrad', 'Eimer', 'Schlüssel', 'Telefon', 'Vase', 'Hut', 'Socke', 'Brille', 'Geige', 'Lampe', 'Kiste', 'Tasse', 'Stift', 'Buch', 'Würfel', 'Schere', 'Rucksack', 'Trommel']","['flach', 'glänzend', 'schwer', 'flauschig', 'breit', 'hässlich', 'nachhaltig', 'durchsichtig', 'neu', 'kalt', 'hübsch', 'lustig']",1,2.1330695999786258,None,,,,,,,,,,,,,,,,,,,,,,,,,,,,,,,,,,,,,,,,,,,,,,,,,,,,,,,,,,,,,,,,,3,2023-12-04_09h19.59.808,watkins1,2023.2.3,99.76684487355958,39,2023-12-04 09h20.06.527777 +0000,
,,,,,,,12,0,12,0,,,,,,,,,,,,,,,,,109.97370239999145,,,,,,,,,,109.96472409996204,110.45587970002089,,,2,2.9143079000059515,,,,,,,,,,,,,,,,,,,,,110.4558894999791,116.46378019999247,Fahrrad,elegant,"['Fahrrad', 'elegant']",test_adj,3,"['Uhr', 'Tasche', 'Kerze', 'Löffel', 'Kamera', 'Kette', 'Blume', 'Jacke', 'Ring', 'Bürste', 'Hammer', 'Flasche', 'Fahrrad', 'Eimer', 'Schlüssel', 'Telefon', 'Vase', 'Hut', 'Socke', 'Brille', 'Geige', 'Lampe', 'Kiste', 'Tasse', 'Stift', 'Buch', 'Würfel', 'Schere', 'Rucksack', 'Trommel']","['flach', 'glänzend', 'schwer', 'flauschig', 'breit', 'hässlich', 'nachhaltig', 'durchsichtig', 'neu', 'kalt', 'hübsch', 'lustig', 'elegant']",2,2.9143079000059515,None,,,,,,,,,,,,,,,,,,,,,,,,,,,,,,,,,,,,,,,,,,,,,,,,,,,,,,,,,,,,,,,,,3,2023-12-04_09h19.59.808,watkins1,2023.2.3,99.76684487355958,39,2023-12-04 09h20.06.527777 +0000,
,,,,,,,13,0,13,0,,,,,,,,,,,,,,,,,116.47332360001747,,,,,,,,,,116.46430400002282,116.95520850003231,,,1,2.5821659999201074,,,,,,,,,,,,,,,,,,,,,116.95521949999966,122.95580470003188,Eimer,strahlend,"['Eimer', 'strahlend']",test_adj,3,"['Uhr', 'Tasche', 'Kerze', 'Löffel', 'Kamera', 'Kette', 'Blume', 'Jacke', 'Ring', 'Bürste', 'Hammer', 'Flasche', 'Fahrrad', 'Eimer', 'Schlüssel', 'Telefon', 'Vase', 'Hut', 'Socke', 'Brille', 'Geige', 'Lampe', 'Kiste', 'Tasse', 'Stift', 'Buch', 'Würfel', 'Schere', 'Rucksack', 'Trommel']","['flach', 'glänzend', 'schwer', 'flauschig', 'breit', 'hässlich', 'nachhaltig', 'durchsichtig', 'neu', 'kalt', 'hübsch', 'lustig', 'elegant', 'strahlend']",1,2.5821659999201074,None,,,,,,,,,,,,,,,,,,,,,,,,,,,,,,,,,,,,,,,,,,,,,,,,,,,,,,,,,,,,,,,,,3,2023-12-04_09h19.59.808,watkins1,2023.2.3,99.76684487355958,39,2023-12-04 09h20.06.527777 +0000,
,,,,,,,14,0,14,0,,,,,,,,,,,,,,,,,122.96517330000643,,,,,,,,,,122.95633329998236,123.44740599999204,,,2,3.529973499942571,,,,,,,,,,,,,,,,,,,,,123.44741689995863,129.45695320004597,Schlüssel,glatt,"['Schlüssel', 'glatt']",restudy,3,"['Uhr', 'Tasche', 'Kerze', 'Löffel', 'Kamera', 'Kette', 'Blume', 'Jacke', 'Ring', 'Bürste', 'Hammer', 'Flasche', 'Fahrrad', 'Eimer', 'Schlüssel', 'Telefon', 'Vase', 'Hut', 'Socke', 'Brille', 'Geige', 'Lampe', 'Kiste', 'Tasse', 'Stift', 'Buch', 'Würfel', 'Schere', 'Rucksack', 'Trommel']","['flach', 'glänzend', 'schwer', 'flauschig', 'breit', 'hässlich', 'nachhaltig', 'durchsichtig', 'neu', 'kalt', 'hübsch', 'lustig', 'elegant', 'strahlend', 'glatt']",2,3.529973499942571,None,,,,,,,,,,,,,,,,,,,,,,,,,,,,,,,,,,,,,,,,,,,,,,,,,,,,,,,,,,,,,,,,,3,2023-12-04_09h19.59.808,watkins1,2023.2.3,99.76684487355958,39,2023-12-04 09h20.06.527777 +0000,
,,,,,,,15,0,15,0,,,,,,,,,,,,,,,,,129.4663858000422,,,,,,,,,,129.45748290000483,129.94847599999048,,,2,3.821018800023012,,,,,,,,,,,,,,,,,,,,,129.94848689995706,135.9539837000193,Telefon,schlicht,"['Telefon', 'schlicht']",restudy,3,"['Uhr', 'Tasche', 'Kerze', 'Löffel', 'Kamera', 'Kette', 'Blume', 'Jacke', 'Ring', 'Bürste', 'Hammer', 'Flasche', 'Fahrrad', 'Eimer', 'Schlüssel', 'Telefon', 'Vase', 'Hut', 'Socke', 'Brille', 'Geige', 'Lampe', 'Kiste', 'Tasse', 'Stift', 'Buch', 'Würfel', 'Schere', 'Rucksack', 'Trommel']","['flach', 'glänzend', 'schwer', 'flauschig', 'breit', 'hässlich', 'nachhaltig', 'durchsichtig', 'neu', 'kalt', 'hübsch', 'lustig', 'elegant', 'strahlend', 'glatt', 'schlicht']",2,3.821018800023012,None,,,,,,,,,,,,,,,,,,,,,,,,,,,,,,,,,,,,,,,,,,,,,,,,,,,,,,,,,,,,,,,,,3,2023-12-04_09h19.59.808,watkins1,2023.2.3,99.76684487355958,39,2023-12-04 09h20.06.527777 +0000,
,,,,,,,16,0,16,0,,,,,,,,,,,,,,,,,135.96337450004648,,,,,,,,,,135.9545132999774,136.4453658000566,,,3,1.8926336000440642,,,,,,,,,,,,,,,,,,,,,136.44537550001405,142.45313829998486,Vase,nass,"['Vase', 'nass']",restudy,3,"['Uhr', 'Tasche', 'Kerze', 'Löffel', 'Kamera', 'Kette', 'Blume', 'Jacke', 'Ring', 'Bürste', 'Hammer', 'Flasche', 'Fahrrad', 'Eimer', 'Schlüssel', 'Telefon', 'Vase', 'Hut', 'Socke', 'Brille', 'Geige', 'Lampe', 'Kiste', 'Tasse', 'Stift', 'Buch', 'Würfel', 'Schere', 'Rucksack', 'Trommel']","['flach', 'glänzend', 'schwer', 'flauschig', 'breit', 'hässlich', 'nachhaltig', 'durchsichtig', 'neu', 'kalt', 'hübsch', 'lustig', 'elegant', 'strahlend', 'glatt', 'schlicht', 'nass']",3,1.8926336000440642,None,,,,,,,,,,,,,,,,,,,,,,,,,,,,,,,,,,,,,,,,,,,,,,,,,,,,,,,,,,,,,,,,,3,2023-12-04_09h19.59.808,watkins1,2023.2.3,99.76684487355958,39,2023-12-04 09h20.06.527777 +0000,
,,,,,,,17,0,17,0,,,,,,,,,,,,,,,,,142.4625089999754,,,,,,,,,,142.45368060003966,142.9444569000043,,,3,3.657523399917409,,,,,,,,,,,,,,,,,,,,,142.94446819997393,148.95088170003146,Hut,kratzig,"['Hut', 'kratzig']",test_adj,3,"['Uhr', 'Tasche', 'Kerze', 'Löffel', 'Kamera', 'Kette', 'Blume', 'Jacke', 'Ring', 'Bürste', 'Hammer', 'Flasche', 'Fahrrad', 'Eimer', 'Schlüssel', 'Telefon', 'Vase', 'Hut', 'Socke', 'Brille', 'Geige', 'Lampe', 'Kiste', 'Tasse', 'Stift', 'Buch', 'Würfel', 'Schere', 'Rucksack', 'Trommel']","['flach', 'glänzend', 'schwer', 'flauschig', 'breit', 'hässlich', 'nachhaltig', 'durchsichtig', 'neu', 'kalt', 'hübsch', 'lustig', 'elegant', 'strahlend', 'glatt', 'schlicht', 'nass', 'kratzig']",3,3.657523399917409,None,,,,,,,,,,,,,,,,,,,,,,,,,,,,,,,,,,,,,,,,,,,,,,,,,,,,,,,,,,,,,,,,,3,2023-12-04_09h19.59.808,watkins1,2023.2.3,99.76684487355958,39,2023-12-04 09h20.06.527777 +0000,
,,,,,,,18,0,18,0,,,,,,,,,,,,,,,,,148.96030609996524,,,,,,,,,,148.95141620002687,149.4422461000504,,,2,4.440125099965371,,,,,,,,,,,,,,,,,,,,,149.44225710001774,155.45180789998267,Socke,dick,"['Socke', 'dick']",test_adj,3,"['Uhr', 'Tasche', 'Kerze', 'Löffel', 'Kamera', 'Kette', 'Blume', 'Jacke', 'Ring', 'Bürste', 'Hammer', 'Flasche', 'Fahrrad', 'Eimer', 'Schlüssel', 'Telefon', 'Vase', 'Hut', 'Socke', 'Brille', 'Geige', 'Lampe', 'Kiste', 'Tasse', 'Stift', 'Buch', 'Würfel', 'Schere', 'Rucksack', 'Trommel']","['flach', 'glänzend', 'schwer', 'flauschig', 'breit', 'hässlich', 'nachhaltig', 'durchsichtig', 'neu', 'kalt', 'hübsch', 'lustig', 'elegant', 'strahlend', 'glatt', 'schlicht', 'nass', 'kratzig', 'dick']",2,4.440125099965371,None,,,,,,,,,,,,,,,,,,,,,,,,,,,,,,,,,,,,,,,,,,,,,,,,,,,,,,,,,,,,,,,,,3,2023-12-04_09h19.59.808,watkins1,2023.2.3,99.76684487355958,39,2023-12-04 09h20.06.527777 +0000,
,,,,,,,19,0,19,0,,,,,,,,,,,,,,,,,155.4611393000232,,,,,,,,,,155.4523315000115,155.94411709997803,,,2,2.129747800063342,,,,,,,,,,,,,,,,,,,,,155.9441283000633,161.94586610002443,Brille,schmutzig,"['Brille', 'schmutzig']",test_adj,3,"['Uhr', 'Tasche', 'Kerze', 'Löffel', 'Kamera', 'Kette', 'Blume', 'Jacke', 'Ring', 'Bürste', 'Hammer', 'Flasche', 'Fahrrad', 'Eimer', 'Schlüssel', 'Telefon', 'Vase', 'Hut', 'Socke', 'Brille', 'Geige', 'Lampe', 'Kiste', 'Tasse', 'Stift', 'Buch', 'Würfel', 'Schere', 'Rucksack', 'Trommel']","['flach', 'glänzend', 'schwer', 'flauschig', 'breit', 'hässlich', 'nachhaltig', 'durchsichtig', 'neu', 'kalt', 'hübsch', 'lustig', 'elegant', 'strahlend', 'glatt', 'schlicht', 'nass', 'kratzig', 'dick', 'schmutzig']",2,2.129747800063342,None,,,,,,,,,,,,,,,,,,,,,,,,,,,,,,,,,,,,,,,,,,,,,,,,,,,,,,,,,,,,,,,,,3,2023-12-04_09h19.59.808,watkins1,2023.2.3,99.76684487355958,39,2023-12-04 09h20.06.527777 +0000,
,,,,,,,20,0,20,0,,,,,,,,,,,,,,,,,161.9552999000298,,,,,,,,,,161.94641279999632,162.43898269999772,,,1,3.730239500058815,,,,,,,,,,,,,,,,,,,,,162.43899429996964,168.44679169997107,Geige,matt,"['Geige', 'matt']",restudy,3,"['Uhr', 'Tasche', 'Kerze', 'Löffel', 'Kamera', 'Kette', 'Blume', 'Jacke', 'Ring', 'Bürste', 'Hammer', 'Flasche', 'Fahrrad', 'Eimer', 'Schlüssel', 'Telefon', 'Vase', 'Hut', 'Socke', 'Brille', 'Geige', 'Lampe', 'Kiste', 'Tasse', 'Stift', 'Buch', 'Würfel', 'Schere', 'Rucksack', 'Trommel']","['flach', 'glänzend', 'schwer', 'flauschig', 'breit', 'hässlich', 'nachhaltig', 'durchsichtig', 'neu', 'kalt', 'hübsch', 'lustig', 'elegant', 'strahlend', 'glatt', 'schlicht', 'nass', 'kratzig', 'dick', 'schmutzig', 'matt']",1,3.730239500058815,None,,,,,,,,,,,,,,,,,,,,,,,,,,,,,,,,,,,,,,,,,,,,,,,,,,,,,,,,,,,,,,,,,3,2023-12-04_09h19.59.808,watkins1,2023.2.3,99.76684487355958,39,2023-12-04 09h20.06.527777 +0000,
,,,,,,,21,0,21,0,,,,,,,,,,,,,,,,,168.45617370004766,,,,,,,,,,168.44732330006082,168.93814199999906,,,2,3.871226600022055,,,,,,,,,,,,,,,,,,,,,168.93815309996717,174.94426240003668,Lampe,gut,"['Lampe', 'gut']",test_adj,3,"['Uhr', 'Tasche', 'Kerze', 'Löffel', 'Kamera', 'Kette', 'Blume', 'Jacke', 'Ring', 'Bürste', 'Hammer', 'Flasche', 'Fahrrad', 'Eimer', 'Schlüssel', 'Telefon', 'Vase', 'Hut', 'Socke', 'Brille', 'Geige', 'Lampe', 'Kiste', 'Tasse', 'Stift', 'Buch', 'Würfel', 'Schere', 'Rucksack', 'Trommel']","['flach', 'glänzend', 'schwer', 'flauschig', 'breit', 'hässlich', 'nachhaltig', 'durchsichtig', 'neu', 'kalt', 'hübsch', 'lustig', 'elegant', 'strahlend', 'glatt', 'schlicht', 'nass', 'kratzig', 'dick', 'schmutzig', 'matt', 'gut']",2,3.871226600022055,None,,,,,,,,,,,,,,,,,,,,,,,,,,,,,,,,,,,,,,,,,,,,,,,,,,,,,,,,,,,,,,,,,3,2023-12-04_09h19.59.808,watkins1,2023.2.3,99.76684487355958,39,2023-12-04 09h20.06.527777 +0000,
,,,,,,,22,0,22,0,,,,,,,,,,,,,,,,,174.95369280001614,,,,,,,,,,174.94479410001077,175.43574780004565,,,2,3.1740987999364734,,,,,,,,,,,,,,,,,,,,,175.4357585000107,181.4397178000072,Kiste,verspielt,"['Kiste', 'verspielt']",test_adj,3,"['Uhr', 'Tasche', 'Kerze', 'Löffel', 'Kamera', 'Kette', 'Blume', 'Jacke', 'Ring', 'Bürste', 'Hammer', 'Flasche', 'Fahrrad', 'Eimer', 'Schlüssel', 'Telefon', 'Vase', 'Hut', 'Socke', 'Brille', 'Geige', 'Lampe', 'Kiste', 'Tasse', 'Stift', 'Buch', 'Würfel', 'Schere', 'Rucksack', 'Trommel']","['flach', 'glänzend', 'schwer', 'flauschig', 'breit', 'hässlich', 'nachhaltig', 'durchsichtig', 'neu', 'kalt', 'hübsch', 'lustig', 'elegant', 'strahlend', 'glatt', 'schlicht', 'nass', 'kratzig', 'dick', 'schmutzig', 'matt', 'gut', 'verspielt']",2,3.1740987999364734,None,,,,,,,,,,,,,,,,,,,,,,,,,,,,,,,,,,,,,,,,,,,,,,,,,,,,,,,,,,,,,,,,,3,2023-12-04_09h19.59.808,watkins1,2023.2.3,99.76684487355958,39,2023-12-04 09h20.06.527777 +0000,
,,,,,,,23,0,23,0,,,,,,,,,,,,,,,,,181.44911489996593,,,,,,,,,,181.44025220000185,181.9311518999748,,,2,3.2869082000106573,,,,,,,,,,,,,,,,,,,,,181.93116210005246,187.93212610005867,Tasse,winzig,"['Tasse', 'winzig']",restudy,3,"['Uhr', 'Tasche', 'Kerze', 'Löffel', 'Kamera', 'Kette', 'Blume', 'Jacke', 'Ring', 'Bürste', 'Hammer', 'Flasche', 'Fahrrad', 'Eimer', 'Schlüssel', 'Telefon', 'Vase', 'Hut', 'Socke', 'Brille', 'Geige', 'Lampe', 'Kiste', 'Tasse', 'Stift', 'Buch', 'Würfel', 'Schere', 'Rucksack', 'Trommel']","['flach', 'glänzend', 'schwer', 'flauschig', 'breit', 'hässlich', 'nachhaltig', 'durchsichtig', 'neu', 'kalt', 'hübsch', 'lustig', 'elegant', 'strahlend', 'glatt', 'schlicht', 'nass', 'kratzig', 'dick', 'schmutzig', 'matt', 'gut', 'verspielt', 'winzig']",2,3.2869082000106573,None,,,,,,,,,,,,,,,,,,,,,,,,,,,,,,,,,,,,,,,,,,,,,,,,,,,,,,,,,,,,,,,,,3,2023-12-04_09h19.59.808,watkins1,2023.2.3,99.76684487355958,39,2023-12-04 09h20.06.527777 +0000,
,,,,,,,24,0,24,0,,,,,,,,,,,,,,,,,187.94163640006445,,,,,,,,,,187.93265450000763,188.4236719000619,,,1,1.3224102000240237,,,,,,,,,,,,,,,,,,,,,188.4236827000277,194.43020070006605,Stift,krumm,"['Stift', 'krumm']",test_adj,3,"['Uhr', 'Tasche', 'Kerze', 'Löffel', 'Kamera', 'Kette', 'Blume', 'Jacke', 'Ring', 'Bürste', 'Hammer', 'Flasche', 'Fahrrad', 'Eimer', 'Schlüssel', 'Telefon', 'Vase', 'Hut', 'Socke', 'Brille', 'Geige', 'Lampe', 'Kiste', 'Tasse', 'Stift', 'Buch', 'Würfel', 'Schere', 'Rucksack', 'Trommel']","['flach', 'glänzend', 'schwer', 'flauschig', 'breit', 'hässlich', 'nachhaltig', 'durchsichtig', 'neu', 'kalt', 'hübsch', 'lustig', 'elegant', 'strahlend', 'glatt', 'schlicht', 'nass', 'kratzig', 'dick', 'schmutzig', 'matt', 'gut', 'verspielt', 'winzig', 'krumm']",1,1.3224102000240237,None,,,,,,,,,,,,,,,,,,,,,,,,,,,,,,,,,,,,,,,,,,,,,,,,,,,,,,,,,,,,,,,,,3,2023-12-04_09h19.59.808,watkins1,2023.2.3,99.76684487355958,39,2023-12-04 09h20.06.527777 +0000,
,,,,,,,25,0,25,0,,,,,,,,,,,,,,,,,194.43958130001556,,,,,,,,,,194.43073260004167,194.92164509999566,,,1,2.864276499953121,,,,,,,,,,,,,,,,,,,,,194.92165599996224,200.9250470000552,Buch,rustikal,"['Buch', 'rustikal']",restudy,3,"['Uhr', 'Tasche', 'Kerze', 'Löffel', 'Kamera', 'Kette', 'Blume', 'Jacke', 'Ring', 'Bürste', 'Hammer', 'Flasche', 'Fahrrad', 'Eimer', 'Schlüssel', 'Telefon', 'Vase', 'Hut', 'Socke', 'Brille', 'Geige', 'Lampe', 'Kiste', 'Tasse', 'Stift', 'Buch', 'Würfel', 'Schere', 'Rucksack', 'Trommel']","['flach', 'glänzend', 'schwer', 'flauschig', 'breit', 'hässlich', 'nachhaltig', 'durchsichtig', 'neu', 'kalt', 'hübsch', 'lustig', 'elegant', 'strahlend', 'glatt', 'schlicht', 'nass', 'kratzig', 'dick', 'schmutzig', 'matt', 'gut', 'verspielt', 'winzig', 'krumm', 'rustikal']",1,2.864276499953121,None,,,,,,,,,,,,,,,,,,,,,,,,,,,,,,,,,,,,,,,,,,,,,,,,,,,,,,,,,,,,,,,,,3,2023-12-04_09h19.59.808,watkins1,2023.2.3,99.76684487355958,39,2023-12-04 09h20.06.527777 +0000,
,,,,,,,26,0,26,0,,,,,,,,,,,,,,,,,200.93447310000192,,,,,,,,,,200.9255924000172,201.41652410000097,,,1,3.1447958999779075,,,,,,,,,,,,,,,,,,,,,201.41653429996222,207.4210286999587,Würfel,kaputt,"['Würfel', 'kaputt']",restudy,3,"['Uhr', 'Tasche', 'Kerze', 'Löffel', 'Kamera', 'Kette', 'Blume', 'Jacke', 'Ring', 'Bürste', 'Hammer', 'Flasche', 'Fahrrad', 'Eimer', 'Schlüssel', 'Telefon', 'Vase', 'Hut', 'Socke', 'Brille', 'Geige', 'Lampe', 'Kiste', 'Tasse', 'Stift', 'Buch', 'Würfel', 'Schere', 'Rucksack', 'Trommel']","['flach', 'glänzend', 'schwer', 'flauschig', 'breit', 'hässlich', 'nachhaltig', 'durchsichtig', 'neu', 'kalt', 'hübsch', 'lustig', 'elegant', 'strahlend', 'glatt', 'schlicht', 'nass', 'kratzig', 'dick', 'schmutzig', 'matt', 'gut', 'verspielt', 'winzig', 'krumm', 'rustikal', 'kaputt']",1,3.1447958999779075,None,,,,,,,,,,,,,,,,,,,,,,,,,,,,,,,,,,,,,,,,,,,,,,,,,,,,,,,,,,,,,,,,,3,2023-12-04_09h19.59.808,watkins1,2023.2.3,99.76684487355958,39,2023-12-04 09h20.06.527777 +0000,
,,,,,,,27,0,27,0,,,,,,,,,,,,,,,,,207.43054600001778,,,,,,,,,,207.4215591000393,207.91247740003746,,,1,1.815813000081107,,,,,,,,,,,,,,,,,,,,,207.91248769999947,213.920307100052,Schere,teuer,"['Schere', 'teuer']",restudy,3,"['Uhr', 'Tasche', 'Kerze', 'Löffel', 'Kamera', 'Kette', 'Blume', 'Jacke', 'Ring', 'Bürste', 'Hammer', 'Flasche', 'Fahrrad', 'Eimer', 'Schlüssel', 'Telefon', 'Vase', 'Hut', 'Socke', 'Brille', 'Geige', 'Lampe', 'Kiste', 'Tasse', 'Stift', 'Buch', 'Würfel', 'Schere', 'Rucksack', 'Trommel']","['flach', 'glänzend', 'schwer', 'flauschig', 'breit', 'hässlich', 'nachhaltig', 'durchsichtig', 'neu', 'kalt', 'hübsch', 'lustig', 'elegant', 'strahlend', 'glatt', 'schlicht', 'nass', 'kratzig', 'dick', 'schmutzig', 'matt', 'gut', 'verspielt', 'winzig', 'krumm', 'rustikal', 'kaputt', 'teuer']",1,1.815813000081107,None,,,,,,,,,,,,,,,,,,,,,,,,,,,,,,,,,,,,,,,,,,,,,,,,,,,,,,,,,,,,,,,,,3,2023-12-04_09h19.59.808,watkins1,2023.2.3,99.76684487355958,39,2023-12-04 09h20.06.527777 +0000,
,,,,,,,28,0,28,0,,,,,,,,,,,,,,,,,213.92982339998707,,,,,,,,,,213.9208409000421,214.41183029999956,,,2,2.270251400070265,,,,,,,,,,,,,,,,,,,,,214.4118407999631,220.414491500007,Rucksack,lang,"['Rucksack', 'lang']",restudy,3,"['Uhr', 'Tasche', 'Kerze', 'Löffel', 'Kamera', 'Kette', 'Blume', 'Jacke', 'Ring', 'Bürste', 'Hammer', 'Flasche', 'Fahrrad', 'Eimer', 'Schlüssel', 'Telefon', 'Vase', 'Hut', 'Socke', 'Brille', 'Geige', 'Lampe', 'Kiste', 'Tasse', 'Stift', 'Buch', 'Würfel', 'Schere', 'Rucksack', 'Trommel']","['flach', 'glänzend', 'schwer', 'flauschig', 'breit', 'hässlich', 'nachhaltig', 'durchsichtig', 'neu', 'kalt', 'hübsch', 'lustig', 'elegant', 'strahlend', 'glatt', 'schlicht', 'nass', 'kratzig', 'dick', 'schmutzig', 'matt', 'gut', 'verspielt', 'winzig', 'krumm', 'rustikal', 'kaputt', 'teuer', 'lang']",2,2.270251400070265,None,,,,,,,,,,,,,,,,,,,,,,,,,,,,,,,,,,,,,,,,,,,,,,,,,,,,,,,,,,,,,,,,,3,2023-12-04_09h19.59.808,watkins1,2023.2.3,99.76684487355958,39,2023-12-04 09h20.06.527777 +0000,
,,,,,,,29,0,29,0,,,,,,,,,,,,,,,,,220.4238430999685,,,,,,,,,,220.41502219997346,220.90596270002425,,,1,2.7997380999149755,,,,,,,,,,,,,,,,,,,,,220.90597409999464,226.91581469995435,Trommel,zart,"['Trommel', 'zart']",restudy,3,"['Uhr', 'Tasche', 'Kerze', 'Löffel', 'Kamera', 'Kette', 'Blume', 'Jacke', 'Ring', 'Bürste', 'Hammer', 'Flasche', 'Fahrrad', 'Eimer', 'Schlüssel', 'Telefon', 'Vase', 'Hut', 'Socke', 'Brille', 'Geige', 'Lampe', 'Kiste', 'Tasse', 'Stift', 'Buch', 'Würfel', 'Schere', 'Rucksack', 'Trommel']","['flach', 'glänzend', 'schwer', 'flauschig', 'breit', 'hässlich', 'nachhaltig', 'durchsichtig', 'neu', 'kalt', 'hübsch', 'lustig', 'elegant', 'strahlend', 'glatt', 'schlicht', 'nass', 'kratzig', 'dick', 'schmutzig', 'matt', 'gut', 'verspielt', 'winzig', 'krumm', 'rustikal', 'kaputt', 'teuer', 'lang', 'zart']",1,2.7997380999149755,None,,,,,,,,,,,,,,,,,,,,,,,,,,,,,,,,,,,,,,,,,,,,,,,,,,,,,,,,,,,,,,,,,3,2023-12-04_09h19.59.808,watkins1,2023.2.3,99.76684487355958,39,2023-12-04 09h20.06.527777 +0000,
,,,,,,,,,,,0,0,0,0,,,,,,,,,,,,,226.9253313000081,,,,,,,,,,226.91666510002688,227.40724650002085,,,[],[],,,,,,,,,,,neu,None,None,,,,,,,,,,Ring,neu,"['Ring', 'neu']",test_adj,3,,,,,,226.916589200031,226.9166376000503,"['Ring', 'Kette', 'Tasche', 'Geige', 'Eimer', 'Uhr', 'Jacke', 'Tasse', 'Rucksack', 'Vase', 'Blume', 'Flasche', 'Kerze', 'Schere', 'Brille', 'Löffel', 'Hammer', 'Würfel', 'Stift', 'Lampe', 'Telefon', 'Trommel', 'Kiste', 'Fahrrad', 'Buch', 'Bürste', 'Kamera', 'Hut', 'Socke', 'Schlüssel']",227.4072576999897,227.40974759997334,None,227.40992770006415,227.41230189998168,None,227.41246080002747,227.41472470003646,None,227.41488170006778,0,233.41941930004396,233.41943300003186,233.42067689995747,,,,,,,,,,,,,,,,,,,,,,,,,,,,,,,,,,,,,,,,,,,,,,,,3,2023-12-04_09h19.59.808,watkins1,2023.2.3,99.76684487355958,39,2023-12-04 09h20.06.527777 +0000,
,,,,,,,,,,,1,0,1,0,,,,,,,,,,,,,233.4292151000118,,,,,,,,,,233.42096650006715,233.9110961999977,,,[],[],,,,,,,,,,,,None,None,,,,,,,,,,Kette,hässlich,"['Kette', 'hässlich']",restudy,3,,,,,,233.42089940002188,233.4209378999658,"['Ring', 'Kette', 'Tasche', 'Geige', 'Eimer', 'Uhr', 'Jacke', 'Tasse', 'Rucksack', 'Vase', 'Blume', 'Flasche', 'Kerze', 'Schere', 'Brille', 'Löffel', 'Hammer', 'Würfel', 'Stift', 'Lampe', 'Telefon', 'Trommel', 'Kiste', 'Fahrrad', 'Buch', 'Bürste', 'Kamera', 'Hut', 'Socke', 'Schlüssel']",233.91110819997266,233.91373350005597,None,233.91386089997832,239.91875740000978,None,239.9189095000038,239.92175980005413,None,239.92187329998706,,239.92335040005855,239.9233619000297,239.92458430002443,,,,,,,,,,,,,,,,,,,,,,,,,,,,,,,,,,,,,,,,,,,,,,,,3,2023-12-04_09h19.59.808,watkins1,2023.2.3,99.76684487355958,39,2023-12-04 09h20.06.527777 +0000,
,,,,,,,,,,,2,0,2,0,,,,,,,,,,,,,239.92818879999686,,,,,,,,,,239.92487460002303,240.42012080003042,,,[],[],,,,,,,,,,,,None,None,,,,,,,,,,Tasche,glänzend,"['Tasche', 'glänzend']",test_adj,3,,,,,,239.9248091999907,239.92484760005027,"['Ring', 'Kette', 'Tasche', 'Geige', 'Eimer', 'Uhr', 'Jacke', 'Tasse', 'Rucksack', 'Vase', 'Blume', 'Flasche', 'Kerze', 'Schere', 'Brille', 'Löffel', 'Hammer', 'Würfel', 'Stift', 'Lampe', 'Telefon', 'Trommel', 'Kiste', 'Fahrrad', 'Buch', 'Bürste', 'Kamera', 'Hut', 'Socke', 'Schlüssel']",240.42013210000005,240.42290170001797,None,240.4230274000438,240.42450019996613,None,240.42461109999567,240.42609099997208,None,240.42620129999705,0,246.42794530000538,246.42795899999328,246.42935960006434,,,,,,,,,,,,,,,,,,,,,,,,,,,,,,,,,,,,,,,,,,,,,,,,3,2023-12-04_09h19.59.808,watkins1,2023.2.3,99.76684487355958,39,2023-12-04 09h20.06.527777 +0000,
,,,,,,,,,,,3,0,3,0,,,,,,,,,,,,,246.4377378000645,,,,,,,,,,246.4296527999686,246.91984560003038,,,[],[],,,,,,,,,,,,None,None,,,,,,,,,,Geige,matt,"['Geige', 'matt']",restudy,3,,,,,,246.4295822000131,246.4296232999768,"['Ring', 'Kette', 'Tasche', 'Geige', 'Eimer', 'Uhr', 'Jacke', 'Tasse', 'Rucksack', 'Vase', 'Blume', 'Flasche', 'Kerze', 'Schere', 'Brille', 'Löffel', 'Hammer', 'Würfel', 'Stift', 'Lampe', 'Telefon', 'Trommel', 'Kiste', 'Fahrrad', 'Buch', 'Bürste', 'Kamera', 'Hut', 'Socke', 'Schlüssel']",246.91985740000382,246.92306940001436,None,246.92319770005997,252.93055279995315,1,252.93091690004803,252.93342100002337,None,252.93353080004454,,252.93467400001828,252.93468509998638,252.93583349999972,2.070946400053799,None,,,,,,,,,,,,,,,,,,,,,,,,,,,,,,,,,,,,,,,,,,,,,,3,2023-12-04_09h19.59.808,watkins1,2023.2.3,99.76684487355958,39,2023-12-04 09h20.06.527777 +0000,
,,,,,,,,,,,4,0,4,0,,,,,,,,,,,,,252.94005680002738,,,,,,,,,,252.93611310003325,253.43204610003158,,,[],[],,,,,,,,,,,glänzend,None,None,,,,,,,,,,Eimer,strahlend,"['Eimer', 'strahlend']",test_adj,3,,,,,,252.9360483000055,252.9360861000605,"['Ring', 'Kette', 'Tasche', 'Geige', 'Eimer', 'Uhr', 'Jacke', 'Tasse', 'Rucksack', 'Vase', 'Blume', 'Flasche', 'Kerze', 'Schere', 'Brille', 'Löffel', 'Hammer', 'Würfel', 'Stift', 'Lampe', 'Telefon', 'Trommel', 'Kiste', 'Fahrrad', 'Buch', 'Bürste', 'Kamera', 'Hut', 'Socke', 'Schlüssel']",253.43205730000045,253.4346407999983,None,253.43476430000737,253.43622519995552,None,253.43633509997744,253.43778120004572,None,253.43790410005022,0,259.44013140001334,259.4401448999997,259.44153369998094,,,,,,,,,,,,,,,,,,,,,,,,,,,,,,,,,,,,,,,,,,,,,,,,3,2023-12-04_09h19.59.808,watkins1,2023.2.3,99.76684487355958,39,2023-12-04 09h20.06.527777 +0000,
,,,,,,,,,,,5,0,5,0,,,,,,,,,,,,,259.44992779998574,,,,,,,,,,259.44182449998334,259.9319303999655,,,[],[],,,,,,,,,,,,None,None,,,,,,,,,,Uhr,flach,"['Uhr', 'flach']",restudy,3,,,,,,259.4417560000438,259.44179519999307,"['Ring', 'Kette', 'Tasche', 'Geige', 'Eimer', 'Uhr', 'Jacke', 'Tasse', 'Rucksack', 'Vase', 'Blume', 'Flasche', 'Kerze', 'Schere', 'Brille', 'Löffel', 'Hammer', 'Würfel', 'Stift', 'Lampe', 'Telefon', 'Trommel', 'Kiste', 'Fahrrad', 'Buch', 'Bürste', 'Kamera', 'Hut', 'Socke', 'Schlüssel']",259.93194190005306,259.934606899973,None,259.9347325999988,265.9406028999947,3,265.94089620001614,265.9434502000222,None,265.9435623000609,,265.94491960003506,265.9449314000085,265.9461078000022,2.859474499942735,None,,,,,,,,,,,,,,,,,,,,,,,,,,,,,,,,,,,,,,,,,,,,,,3,2023-12-04_09h19.59.808,watkins1,2023.2.3,99.76684487355958,39,2023-12-04 09h20.06.527777 +0000,
,,,,,,,,,,,6,0,6,0,,,,,,,,,,,,,265.9499781000195,,,,,,,,,,265.9463886000449,266.44218470004853,,,[],[],,,,,,,,,,,durchsichtig,None,None,,,,,,,,,,Jacke,durchsichtig,"['Jacke', 'durchsichtig']",test_adj,3,,,,,,265.94632400001865,265.94636179995723,"['Ring', 'Kette', 'Tasche', 'Geige', 'Eimer', 'Uhr', 'Jacke', 'Tasse', 'Rucksack', 'Vase', 'Blume', 'Flasche', 'Kerze', 'Schere', 'Brille', 'Löffel', 'Hammer', 'Würfel', 'Stift', 'Lampe', 'Telefon', 'Trommel', 'Kiste', 'Fahrrad', 'Buch', 'Bürste', 'Kamera', 'Hut', 'Socke', 'Schlüssel']",266.4421967000235,266.44493150000926,None,266.44505830004346,266.4465178999817,None,266.4466328000417,266.4480843000347,None,266.448195300065,0,272.4503750000149,272.45038860000204,272.4519420999568,,,,,,,,,,,,,,,,,,,,,,,,,,,,,,,,,,,,,,,,,,,,,,,,3,2023-12-04_09h19.59.808,watkins1,2023.2.3,99.76684487355958,39,2023-12-04 09h20.06.527777 +0000,
,,,,,,,,,,,7,0,7,0,,,,,,,,,,,,,272.4601787000429,,,,,,,,,,272.4522356999805,272.9421359000262,,,[],[],,,,,,,,,,,,None,None,,,,,,,,,,Tasse,winzig,"['Tasse', 'winzig']",restudy,3,,,,,,272.4521667000372,272.4522062999895,"['Ring', 'Kette', 'Tasche', 'Geige', 'Eimer', 'Uhr', 'Jacke', 'Tasse', 'Rucksack', 'Vase', 'Blume', 'Flasche', 'Kerze', 'Schere', 'Brille', 'Löffel', 'Hammer', 'Würfel', 'Stift', 'Lampe', 'Telefon', 'Trommel', 'Kiste', 'Fahrrad', 'Buch', 'Bürste', 'Kamera', 'Hut', 'Socke', 'Schlüssel']",272.94214709999505,272.9449867999647,None,272.9451124999905,278.95290859998204,2,278.953204200021,278.9560141999973,None,278.95612970006187,,278.95764120004606,278.9576530000195,278.9588370999554,2.4165752000408247,None,,,,,,,,,,,,,,,,,,,,,,,,,,,,,,,,,,,,,,,,,,,,,,3,2023-12-04_09h19.59.808,watkins1,2023.2.3,99.76684487355958,39,2023-12-04 09h20.06.527777 +0000,
,,,,,,,,,,,8,0,8,0,,,,,,,,,,,,,278.96234169998206,,,,,,,,,,278.959121300024,279.45446200005244,,,[],[],,,,,,,,,,,,None,None,,,,,,,,,,Rucksack,lang,"['Rucksack', 'lang']",restudy,3,,,,,,278.9590554999886,278.9590943000512,"['Ring', 'Kette', 'Tasche', 'Geige', 'Eimer', 'Uhr', 'Jacke', 'Tasse', 'Rucksack', 'Vase', 'Blume', 'Flasche', 'Kerze', 'Schere', 'Brille', 'Löffel', 'Hammer', 'Würfel', 'Stift', 'Lampe', 'Telefon', 'Trommel', 'Kiste', 'Fahrrad', 'Buch', 'Bürste', 'Kamera', 'Hut', 'Socke', 'Schlüssel']",279.45447360002436,279.45727070001885,None,279.4573948000325,285.4654649000149,2,285.4657662999816,285.4685110000428,None,285.4686262999894,,285.46987380005885,285.46988540003076,285.4709526000079,3.168968899990432,None,,,,,,,,,,,,,,,,,,,,,,,,,,,,,,,,,,,,,,,,,,,,,,3,2023-12-04_09h19.59.808,watkins1,2023.2.3,99.76684487355958,39,2023-12-04 09h20.06.527777 +0000,
,,,,,,,,,,,9,0,9,0,,,,,,,,,,,,,285.47493160003796,,,,,,,,,,285.47124610003084,285.96703140006866,,,[],[],,,,,,,,,,,,None,None,,,,,,,,,,Vase,nass,"['Vase', 'nass']",restudy,3,,,,,,285.4711786999833,285.47121860005427,"['Ring', 'Kette', 'Tasche', 'Geige', 'Eimer', 'Uhr', 'Jacke', 'Tasse', 'Rucksack', 'Vase', 'Blume', 'Flasche', 'Kerze', 'Schere', 'Brille', 'Löffel', 'Hammer', 'Würfel', 'Stift', 'Lampe', 'Telefon', 'Trommel', 'Kiste', 'Fahrrad', 'Buch', 'Bürste', 'Kamera', 'Hut', 'Socke', 'Schlüssel']",285.9670427000383,285.96953040000517,None,285.969656100031,291.9756526000565,3,291.9759535000194,291.9784042000538,None,291.978515899973,,291.9795748000033,291.979586499976,291.9807453000685,1.616426800028421,None,,,,,,,,,,,,,,,,,,,,,,,,,,,,,,,,,,,,,,,,,,,,,,3,2023-12-04_09h19.59.808,watkins1,2023.2.3,99.76684487355958,39,2023-12-04 09h20.06.527777 +0000,
,,,,,,,,,,,10,0,10,0,,,,,,,,,,,,,291.98518469999544,,,,,,,,,,291.98102830001153,292.47728990006726,,,[],[],,,,,,,,,,,,None,None,,,,,,,,,,Blume,nachhaltig,"['Blume', 'nachhaltig']",restudy,3,,,,,,291.9809626999777,291.98100080003496,"['Ring', 'Kette', 'Tasche', 'Geige', 'Eimer', 'Uhr', 'Jacke', 'Tasse', 'Rucksack', 'Vase', 'Blume', 'Flasche', 'Kerze', 'Schere', 'Brille', 'Löffel', 'Hammer', 'Würfel', 'Stift', 'Lampe', 'Telefon', 'Trommel', 'Kiste', 'Fahrrad', 'Buch', 'Bürste', 'Kamera', 'Hut', 'Socke', 'Schlüssel']",292.47730130003765,292.4798820000142,None,292.48000580002554,298.48548509995453,2,298.4857930999715,298.4886129000224,None,298.48872719996143,,298.4898917999817,298.4899033999536,298.4912832999835,2.690059300046414,None,,,,,,,,,,,,,,,,,,,,,,,,,,,,,,,,,,,,,,,,,,,,,,3,2023-12-04_09h19.59.808,watkins1,2023.2.3,99.76684487355958,39,2023-12-04 09h20.06.527777 +0000,
,,,,,,,,,,,11,0,11,0,,,,,,,,,,,,,298.49489209998865,,,,,,,,,,298.4915682000574,298.98684979998507,,,[],[],,,,,,,,,,,lustig,None,None,,,,,,,,,,Flasche,lustig,"['Flasche', 'lustig']",test_adj,3,,,,,,298.4915014000144,298.49154029996134,"['Ring', 'Kette', 'Tasche', 'Geige', 'Eimer', 'Uhr', 'Jacke', 'Tasse', 'Rucksack', 'Vase', 'Blume', 'Flasche', 'Kerze', 'Schere', 'Brille', 'Löffel', 'Hammer', 'Würfel', 'Stift', 'Lampe', 'Telefon', 'Trommel', 'Kiste', 'Fahrrad', 'Buch', 'Bürste', 'Kamera', 'Hut', 'Socke', 'Schlüssel']",298.9868610999547,298.9897293000249,None,298.98985550005455,298.9913429999724,None,298.99145179998595,298.99294849997386,None,298.9930580999935,0,304.9955253000371,304.9955393000273,304.99696270003915,,,,,,,,,,,,,,,,,,,,,,,,,,,,,,,,,,,,,,,,,,,,,,,,3,2023-12-04_09h19.59.808,watkins1,2023.2.3,99.76684487355958,39,2023-12-04 09h20.06.527777 +0000,
,,,,,,,,,,,12,0,12,0,,,,,,,,,,,,,305.00537310005166,,,,,,,,,,304.99725200003013,305.4873810999561,,,[],[],,,,,,,,,,,shwer,None,None,,,,,,,,,,Kerze,schwer,"['Kerze', 'schwer']",test_adj,3,,,,,,304.99718419997953,304.9972228000406,"['Ring', 'Kette', 'Tasche', 'Geige', 'Eimer', 'Uhr', 'Jacke', 'Tasse', 'Rucksack', 'Vase', 'Blume', 'Flasche', 'Kerze', 'Schere', 'Brille', 'Löffel', 'Hammer', 'Würfel', 'Stift', 'Lampe', 'Telefon', 'Trommel', 'Kiste', 'Fahrrad', 'Buch', 'Bürste', 'Kamera', 'Hut', 'Socke', 'Schlüssel']",305.4873928000452,305.49013769999146,None,305.49026220000815,305.4928344000364,None,305.4929456000682,305.4955462999642,None,305.49565589998383,0,311.500296000042,311.50030980003066,311.5016203999985,,,,,,,,,,,,,,,,,,,,,,,,,,,,,,,,,,,,,,,,,,,,,,,,3,2023-12-04_09h19.59.808,watkins1,2023.2.3,99.76684487355958,39,2023-12-04 09h20.06.527777 +0000,
,,,,,,,,,,,13,0,13,0,,,,,,,,,,,,,311.51019030006137,,,,,,,,,,311.50190899998415,311.9922727000667,,,[],[],,,,,,,,,,,,None,None,,,,,,,,,,Schere,teuer,"['Schere', 'teuer']",restudy,3,,,,,,311.50184070004616,311.5018801999977,"['Ring', 'Kette', 'Tasche', 'Geige', 'Eimer', 'Uhr', 'Jacke', 'Tasse', 'Rucksack', 'Vase', 'Blume', 'Flasche', 'Kerze', 'Schere', 'Brille', 'Löffel', 'Hammer', 'Würfel', 'Stift', 'Lampe', 'Telefon', 'Trommel', 'Kiste', 'Fahrrad', 'Buch', 'Bürste', 'Kamera', 'Hut', 'Socke', 'Schlüssel']",311.9922840000363,311.9950140999863,None,311.99513789999764,317.9991348000476,1,317.9994283999549,318.0021179000614,None,318.0022312999936,,318.00374700000975,318.0037582999794,318.0049238000065,2.030824900022708,None,,,,,,,,,,,,,,,,,,,,,,,,,,,,,,,,,,,,,,,,,,,,,,3,2023-12-04_09h19.59.808,watkins1,2023.2.3,99.76684487355958,39,2023-12-04 09h20.06.527777 +0000,
,,,,,,,,,,,14,0,14,0,,,,,,,,,,,,,318.0085136999842,,,,,,,,,,318.00520600005984,318.5006013000384,,,[],[],,,,,,,,,,,schmutzig,None,None,,,,,,,,,,Brille,schmutzig,"['Brille', 'schmutzig']",test_adj,3,,,,,,318.005140400026,318.00517909997143,"['Ring', 'Kette', 'Tasche', 'Geige', 'Eimer', 'Uhr', 'Jacke', 'Tasse', 'Rucksack', 'Vase', 'Blume', 'Flasche', 'Kerze', 'Schere', 'Brille', 'Löffel', 'Hammer', 'Würfel', 'Stift', 'Lampe', 'Telefon', 'Trommel', 'Kiste', 'Fahrrad', 'Buch', 'Bürste', 'Kamera', 'Hut', 'Socke', 'Schlüssel']",318.5006119000027,318.5032947000582,None,318.503416200052,318.5048890999751,None,318.50499919999857,318.5064703000244,None,318.50658270006534,0,324.5086959999753,324.5087105999701,324.51020020002034,,,,,,,,,,,,,,,,,,,,,,,,,,,,,,,,,,,,,,,,,,,,,,,,3,2023-12-04_09h19.59.808,watkins1,2023.2.3,99.76684487355958,39,2023-12-04 09h20.06.527777 +0000,
,,,,,,,,,,,15,0,15,0,,,,,,,,,,,,,324.5185007000109,,,,,,,,,,324.51048970001284,325.00027459999546,,,[],[],,,,,,,,,,,flauschig,None,None,,,,,,,,,,Löffel,flauschig,"['Löffel', 'flauschig']",test_adj,3,,,,,,324.51042159995995,324.5104611000279,"['Ring', 'Kette', 'Tasche', 'Geige', 'Eimer', 'Uhr', 'Jacke', 'Tasse', 'Rucksack', 'Vase', 'Blume', 'Flasche', 'Kerze', 'Schere', 'Brille', 'Löffel', 'Hammer', 'Würfel', 'Stift', 'Lampe', 'Telefon', 'Trommel', 'Kiste', 'Fahrrad', 'Buch', 'Bürste', 'Kamera', 'Hut', 'Socke', 'Schlüssel']",325.00028599996585,325.0031323999865,None,325.00325750000775,325.00592390005477,None,325.0060365999816,325.0087107999716,None,325.0088223000057,0,331.01519329997245,331.0152068999596,331.01656230003573,,,,,,,,,,,,,,,,,,,,,,,,,,,,,,,,,,,,,,,,,,,,,,,,3,2023-12-04_09h19.59.808,watkins1,2023.2.3,99.76684487355958,39,2023-12-04 09h20.06.527777 +0000,
,,,,,,,,,,,16,0,16,0,,,,,,,,,,,,,331.0249646999873,,,,,,,,,,331.01684970001224,331.50717510003597,,,[],[],,,,,,,,,,,schön,None,None,,,,,,,,,,Hammer,hübsch,"['Hammer', 'hübsch']",test_adj,3,,,,,,331.0167809999548,331.0168214000296,"['Ring', 'Kette', 'Tasche', 'Geige', 'Eimer', 'Uhr', 'Jacke', 'Tasse', 'Rucksack', 'Vase', 'Blume', 'Flasche', 'Kerze', 'Schere', 'Brille', 'Löffel', 'Hammer', 'Würfel', 'Stift', 'Lampe', 'Telefon', 'Trommel', 'Kiste', 'Fahrrad', 'Buch', 'Bürste', 'Kamera', 'Hut', 'Socke', 'Schlüssel']",331.5071866000071,331.5099850000115,None,331.5101118000457,331.5127534000203,None,331.5128641000483,331.5154999999795,None,331.51561090000905,0,337.5212701000273,337.5212841000175,337.52273409999907,,,,,,,,,,,,,,,,,,,,,,,,,,,,,,,,,,,,,,,,,,,,,,,,3,2023-12-04_09h19.59.808,watkins1,2023.2.3,99.76684487355958,39,2023-12-04 09h20.06.527777 +0000,
,,,,,,,,,,,17,0,17,0,,,,,,,,,,,,,337.5310389000224,,,,,,,,,,337.5230337000685,338.0131447999738,,,[],[],,,,,,,,,,,,None,None,,,,,,,,,,Würfel,kaputt,"['Würfel', 'kaputt']",restudy,3,,,,,,337.5229627999943,337.5230045999633,"['Ring', 'Kette', 'Tasche', 'Geige', 'Eimer', 'Uhr', 'Jacke', 'Tasse', 'Rucksack', 'Vase', 'Blume', 'Flasche', 'Kerze', 'Schere', 'Brille', 'Löffel', 'Hammer', 'Würfel', 'Stift', 'Lampe', 'Telefon', 'Trommel', 'Kiste', 'Fahrrad', 'Buch', 'Bürste', 'Kamera', 'Hut', 'Socke', 'Schlüssel']",338.0131563000614,338.0159469000064,None,338.01607450004667,344.01966390002053,1,344.01996189996134,344.0229295999743,None,344.02305239997804,,344.02462829998694,344.02464229997713,344.02587999997195,3.3535767999710515,None,,,,,,,,,,,,,,,,,,,,,,,,,,,,,,,,,,,,,,,,,,,,,,3,2023-12-04_09h19.59.808,watkins1,2023.2.3,99.76684487355958,39,2023-12-04 09h20.06.527777 +0000,
,,,,,,,,,,,18,0,18,0,,,,,,,,,,,,,344.0292087000562,,,,,,,,,,344.02619520004373,344.52139290003106,,,[],[],,,,,,,,,,,krum,None,None,,,,,,,,,,Stift,krumm,"['Stift', 'krumm']",test_adj,3,,,,,,344.0261208000593,344.0261663000565,"['Ring', 'Kette', 'Tasche', 'Geige', 'Eimer', 'Uhr', 'Jacke', 'Tasse', 'Rucksack', 'Vase', 'Blume', 'Flasche', 'Kerze', 'Schere', 'Brille', 'Löffel', 'Hammer', 'Würfel', 'Stift', 'Lampe', 'Telefon', 'Trommel', 'Kiste', 'Fahrrad', 'Buch', 'Bürste', 'Kamera', 'Hut', 'Socke', 'Schlüssel']",344.521404900006,344.5241090999916,None,344.52423350000754,344.5256726000225,None,344.52578040002845,344.52721710002515,None,344.5273264000425,0,350.5290416000644,350.5290552000515,350.53041730006225,,,,,,,,,,,,,,,,,,,,,,,,,,,,,,,,,,,,,,,,,,,,,,,,3,2023-12-04_09h19.59.808,watkins1,2023.2.3,99.76684487355958,39,2023-12-04 09h20.06.527777 +0000,
,,,,,,,,,,,19,0,19,0,,,,,,,,,,,,,350.5388361000223,,,,,,,,,,350.53070710005704,351.0207741999766,,,[],[],,,,,,,,,,,gut,None,None,,,,,,,,,,Lampe,gut,"['Lampe', 'gut']",test_adj,3,,,,,,350.5306392000057,350.5306783999549,"['Ring', 'Kette', 'Tasche', 'Geige', 'Eimer', 'Uhr', 'Jacke', 'Tasse', 'Rucksack', 'Vase', 'Blume', 'Flasche', 'Kerze', 'Schere', 'Brille', 'Löffel', 'Hammer', 'Würfel', 'Stift', 'Lampe', 'Telefon', 'Trommel', 'Kiste', 'Fahrrad', 'Buch', 'Bürste', 'Kamera', 'Hut', 'Socke', 'Schlüssel']",351.02078540006187,351.0234771000687,None,351.02360169996973,351.0261319000274,None,351.0262426000554,351.0287963000592,None,351.0289074999746,0,357.03389119997155,357.0339044999564,357.0350432000123,,,,,,,,,,,,,,,,,,,,,,,,,,,,,,,,,,,,,,,,,,,,,,,,3,2023-12-04_09h19.59.808,watkins1,2023.2.3,99.76684487355958,39,2023-12-04 09h20.06.527777 +0000,
,,,,,,,,,,,20,0,20,0,,,,,,,,,,,,,357.04368939995766,,,,,,,,,,357.03533179999795,357.5256900000386,,,[],[],,,,,,,,,,,,None,None,,,,,,,,,,Telefon,schlicht,"['Telefon', 'schlicht']",restudy,3,,,,,,357.03526450006757,357.0353035000153,"['Ring', 'Kette', 'Tasche', 'Geige', 'Eimer', 'Uhr', 'Jacke', 'Tasse', 'Rucksack', 'Vase', 'Blume', 'Flasche', 'Kerze', 'Schere', 'Brille', 'Löffel', 'Hammer', 'Würfel', 'Stift', 'Lampe', 'Telefon', 'Trommel', 'Kiste', 'Fahrrad', 'Buch', 'Bürste', 'Kamera', 'Hut', 'Socke', 'Schlüssel']",357.5257003000006,357.5282489999663,None,357.5283723999746,363.5389374999795,1,363.53923650004435,363.54201550001744,None,363.54213029996026,,363.54365989996586,363.54367160005495,363.54488860000856,3.8175140999956056,None,,,,,,,,,,,,,,,,,,,,,,,,,,,,,,,,,,,,,,,,,,,,,,3,2023-12-04_09h19.59.808,watkins1,2023.2.3,99.76684487355958,39,2023-12-04 09h20.06.527777 +0000,
,,,,,,,,,,,21,0,21,0,,,,,,,,,,,,,363.548349800054,,,,,,,,,,363.5451788000064,364.0405884999782,,,[],[],,,,,,,,,,,,None,None,,,,,,,,,,Trommel,zart,"['Trommel', 'zart']",restudy,3,,,,,,363.5451107999543,363.54515130002983,"['Ring', 'Kette', 'Tasche', 'Geige', 'Eimer', 'Uhr', 'Jacke', 'Tasse', 'Rucksack', 'Vase', 'Blume', 'Flasche', 'Kerze', 'Schere', 'Brille', 'Löffel', 'Hammer', 'Würfel', 'Stift', 'Lampe', 'Telefon', 'Trommel', 'Kiste', 'Fahrrad', 'Buch', 'Bürste', 'Kamera', 'Hut', 'Socke', 'Schlüssel']",364.04060049995314,364.0434613999678,None,364.0435889000073,370.0504728000378,1,370.05077259999234,370.05334220000077,None,370.0534539000364,,370.0546448000241,370.0546564999968,370.05569329997525,2.062413700041361,None,,,,,,,,,,,,,,,,,,,,,,,,,,,,,,,,,,,,,,,,,,,,,,3,2023-12-04_09h19.59.808,watkins1,2023.2.3,99.76684487355958,39,2023-12-04 09h20.06.527777 +0000,
,,,,,,,,,,,22,0,22,0,,,,,,,,,,,,,370.05987070000265,,,,,,,,,,370.0559781000484,370.5519091000315,,,[],[],,,,,,,,,,,verspielt,None,None,,,,,,,,,,Kiste,verspielt,"['Kiste', 'verspielt']",test_adj,3,,,,,,370.0559128000168,370.05595119995996,"['Ring', 'Kette', 'Tasche', 'Geige', 'Eimer', 'Uhr', 'Jacke', 'Tasse', 'Rucksack', 'Vase', 'Blume', 'Flasche', 'Kerze', 'Schere', 'Brille', 'Löffel', 'Hammer', 'Würfel', 'Stift', 'Lampe', 'Telefon', 'Trommel', 'Kiste', 'Fahrrad', 'Buch', 'Bürste', 'Kamera', 'Hut', 'Socke', 'Schlüssel']",370.55191979999654,370.5544948000461,None,370.55462029995397,370.5560794000048,None,370.556189200026,370.5576521999901,None,370.5577615000075,0,376.56112630001735,376.561140100006,376.56252060004044,,,,,,,,,,,,,,,,,,,,,,,,,,,,,,,,,,,,,,,,,,,,,,,,3,2023-12-04_09h19.59.808,watkins1,2023.2.3,99.76684487355958,39,2023-12-04 09h20.06.527777 +0000,
,,,,,,,,,,,23,0,23,0,,,,,,,,,,,,,376.5709219999844,,,,,,,,,,376.56281170004513,377.05296660005115,,,[],[],,,,,,,,,,,eleg,None,None,,,,,,,,,,Fahrrad,elegant,"['Fahrrad', 'elegant']",test_adj,3,,,,,,376.56274379999377,376.56278290005866,"['Ring', 'Kette', 'Tasche', 'Geige', 'Eimer', 'Uhr', 'Jacke', 'Tasse', 'Rucksack', 'Vase', 'Blume', 'Flasche', 'Kerze', 'Schere', 'Brille', 'Löffel', 'Hammer', 'Würfel', 'Stift', 'Lampe', 'Telefon', 'Trommel', 'Kiste', 'Fahrrad', 'Buch', 'Bürste', 'Kamera', 'Hut', 'Socke', 'Schlüssel']",377.05297750001773,377.0557946000481,None,377.05592069996055,377.0585775000509,None,377.05868879996706,377.06146550003905,None,377.061575400061,0,383.0667995000258,383.0668133000145,383.06814089999534,,,,,,,,,,,,,,,,,,,,,,,,,,,,,,,,,,,,,,,,,,,,,,,,3,2023-12-04_09h19.59.808,watkins1,2023.2.3,99.76684487355958,39,2023-12-04 09h20.06.527777 +0000,
,,,,,,,,,,,24,0,24,0,,,,,,,,,,,,,383.07655959995463,,,,,,,,,,383.06843039998785,383.5586459999904,,,[],[],,,,,,,,,,,,None,None,,,,,,,,,,Buch,rustikal,"['Buch', 'rustikal']",restudy,3,,,,,,383.0683604000369,383.0684007999953,"['Ring', 'Kette', 'Tasche', 'Geige', 'Eimer', 'Uhr', 'Jacke', 'Tasse', 'Rucksack', 'Vase', 'Blume', 'Flasche', 'Kerze', 'Schere', 'Brille', 'Löffel', 'Hammer', 'Würfel', 'Stift', 'Lampe', 'Telefon', 'Trommel', 'Kiste', 'Fahrrad', 'Buch', 'Bürste', 'Kamera', 'Hut', 'Socke', 'Schlüssel']",383.5586578999646,383.56145070004277,None,383.56157600006554,389.5640253999736,1,389.56432490004227,389.5669285999611,None,389.56704029999673,,389.5684065000387,389.56841800000984,389.5696318000555,2.2081931999418885,None,,,,,,,,,,,,,,,,,,,,,,,,,,,,,,,,,,,,,,,,,,,,,,3,2023-12-04_09h19.59.808,watkins1,2023.2.3,99.76684487355958,39,2023-12-04 09h20.06.527777 +0000,
,,,,,,,,,,,25,0,25,0,,,,,,,,,,,,,389.5734557999531,,,,,,,,,,389.5699137999909,390.0653797000414,,,[],[],,,,,,,,,,,,None,None,,,,,,,,,,Bürste,kalt,"['Bürste', 'kalt']",restudy,3,,,,,,389.56984789995477,389.5698864000151,"['Ring', 'Kette', 'Tasche', 'Geige', 'Eimer', 'Uhr', 'Jacke', 'Tasse', 'Rucksack', 'Vase', 'Blume', 'Flasche', 'Kerze', 'Schere', 'Brille', 'Löffel', 'Hammer', 'Würfel', 'Stift', 'Lampe', 'Telefon', 'Trommel', 'Kiste', 'Fahrrad', 'Buch', 'Bürste', 'Kamera', 'Hut', 'Socke', 'Schlüssel']",390.0653908000095,390.06817680003587,None,390.0683022000594,396.0693634999916,1,396.06966190005187,396.07235839997884,None,396.0724747000495,,396.0736575999763,396.0736692000646,396.0747105999617,2.6935900999233127,None,,,,,,,,,,,,,,,,,,,,,,,,,,,,,,,,,,,,,,,,,,,,,,3,2023-12-04_09h19.59.808,watkins1,2023.2.3,99.76684487355958,39,2023-12-04 09h20.06.527777 +0000,
,,,,,,,,,,,26,0,26,0,,,,,,,,,,,,,396.078795599984,,,,,,,,,,396.0749963000417,396.57064409996383,,,[],[],,,,,,,,,,,,None,None,,,,,,,,,,Kamera,breit,"['Kamera', 'breit']",restudy,3,,,,,,396.0749303000048,396.0749686000636,"['Ring', 'Kette', 'Tasche', 'Geige', 'Eimer', 'Uhr', 'Jacke', 'Tasse', 'Rucksack', 'Vase', 'Blume', 'Flasche', 'Kerze', 'Schere', 'Brille', 'Löffel', 'Hammer', 'Würfel', 'Stift', 'Lampe', 'Telefon', 'Trommel', 'Kiste', 'Fahrrad', 'Buch', 'Bürste', 'Kamera', 'Hut', 'Socke', 'Schlüssel']",396.57065490004607,396.57334780006204,None,396.5734725999646,402.5754425000632,1,402.5757542999927,402.5787387000164,None,402.578860300011,,402.58006690000184,402.5800788999768,402.58124870003667,3.8439754000864923,None,,,,,,,,,,,,,,,,,,,,,,,,,,,,,,,,,,,,,,,,,,,,,,3,2023-12-04_09h19.59.808,watkins1,2023.2.3,99.76684487355958,39,2023-12-04 09h20.06.527777 +0000,
,,,,,,,,,,,27,0,27,0,,,,,,,,,,,,,402.5848390000174,,,,,,,,,,402.5816598000238,403.07718600006774,,,[],[],,,,,,,,,,,krqtzig,None,None,,,,,,,,,,Hut,kratzig,"['Hut', 'kratzig']",test_adj,3,,,,,,402.5815521000186,402.5816325000487,"['Ring', 'Kette', 'Tasche', 'Geige', 'Eimer', 'Uhr', 'Jacke', 'Tasse', 'Rucksack', 'Vase', 'Blume', 'Flasche', 'Kerze', 'Schere', 'Brille', 'Löffel', 'Hammer', 'Würfel', 'Stift', 'Lampe', 'Telefon', 'Trommel', 'Kiste', 'Fahrrad', 'Buch', 'Bürste', 'Kamera', 'Hut', 'Socke', 'Schlüssel']",403.07719790004194,403.07980920001864,None,403.0799350000452,403.0812347000465,None,403.0813496999908,403.08263890002854,None,403.08274620003067,0,409.08442590001505,409.0844398000045,409.08575730002485,,,,,,,,,,,,,,,,,,,,,,,,,,,,,,,,,,,,,,,,,,,,,,,,3,2023-12-04_09h19.59.808,watkins1,2023.2.3,99.76684487355958,39,2023-12-04 09h20.06.527777 +0000,
,,,,,,,,,,,28,0,28,0,,,,,,,,,,,,,409.09422800003085,,,,,,,,,,409.0860456000082,409.57617919996846,,,[],[],,,,,,,,,,,dick,None,None,,,,,,,,,,Socke,dick,"['Socke', 'dick']",test_adj,3,,,,,,409.08597749995533,409.08601630001795,"['Ring', 'Kette', 'Tasche', 'Geige', 'Eimer', 'Uhr', 'Jacke', 'Tasse', 'Rucksack', 'Vase', 'Blume', 'Flasche', 'Kerze', 'Schere', 'Brille', 'Löffel', 'Hammer', 'Würfel', 'Stift', 'Lampe', 'Telefon', 'Trommel', 'Kiste', 'Fahrrad', 'Buch', 'Bürste', 'Kamera', 'Hut', 'Socke', 'Schlüssel']",409.57618910004385,409.5788779000286,None,409.5790013000369,409.58166969998274,None,409.5817832000321,409.5843920999905,None,409.5845015000086,0,415.589190699975,415.589205199969,415.5903868000023,,,,,,,,,,,,,,,,,,,,,,,,,,,,,,,,,,,,,,,,,,,,,,,,3,2023-12-04_09h19.59.808,watkins1,2023.2.3,99.76684487355958,39,2023-12-04 09h20.06.527777 +0000,
,,,,,,,,,,,29,0,29,0,,,,,,,,,,,,,415.5989520000294,,,,,,,,,,415.59067980002146,416.08086920005735,,,[],[],,,,,,,,,,,,None,None,,,,,,,,,,Schlüssel,glatt,"['Schlüssel', 'glatt']",restudy,3,,,,,,415.5906100999564,415.5906505000312,"['Ring', 'Kette', 'Tasche', 'Geige', 'Eimer', 'Uhr', 'Jacke', 'Tasse', 'Rucksack', 'Vase', 'Blume', 'Flasche', 'Kerze', 'Schere', 'Brille', 'Löffel', 'Hammer', 'Würfel', 'Stift', 'Lampe', 'Telefon', 'Trommel', 'Kiste', 'Fahrrad', 'Buch', 'Bürste', 'Kamera', 'Hut', 'Socke', 'Schlüssel']",416.08088030002546,416.0835198999848,None,416.08364770002663,422.08517930004746,2,422.08546960004605,422.08817200001795,None,422.0882818000391,,422.0898114000447,422.0898225000128,422.0909705000231,2.29422959999647,None,,,,,,,,,,,,,,,,,,,,,,,,,,,,,,,,,,,,,,,,,,,,,,3,2023-12-04_09h19.59.808,watkins1,2023.2.3,99.76684487355958,39,2023-12-04 09h20.06.527777 +0000,
,,,,,,,,,,,,,,,,,,,,,,,,,,,,,,,,,,,,,,,,,,,,,,,,,,,,,,,,,,,,,,,,,,,,,3,,,,,,,,,,,,,,,,,,,,,,,,,,,,,,,,,,,,,,,,,,,,,,,,,,,,,,,,,,,,,,,,,,,,,,3,2023-12-04_09h19.59.808,watkins1,2023.2.3,99.76684487355958,39,2023-12-04 09h20.06.527777 +0000,
(9 x 5) - 9 = 36 ,Correct,button_correct,,,,,,,,,,,,,0,0,0,4,,,,,,,,,477.90302590001374,,,,,,,,476.86168089997955,477.86520480003674,,,,,['button_correct'],[5.727194500039332],,,,,,,,,,,,,,,,,,,,,,,,,,distractorTask,3,,,,,,,,,,,,,,,,,,,,,,,,,477.89108700002544,477.90302590001374,483.62372489995323,[0.34814814814814815],[-0.4009259259259259],[1],[0],[0],[5.727194500039332],['button_correct'],483.624544100021,484.6265875999816,,,,,,,,,,,,,,,,,,,,,,,,,,,,,,,,,,3,2023-12-04_09h19.59.808,watkins1,2023.2.3,99.76684487355958,39,2023-12-04 09h20.06.527777 +0000,
(7 x 6) + 9 = 48 ,Incorrect,button_incorrect,,,,,,,,,,,,,0,1,1,9,,,,,,,,,484.63653340004385,,,,,,,,,,,,,,['button_incorrect'],[5.198201299994253],,,,,,,,,,,,,,,,,,,,,,,,,,distractorTask,3,,,,,,,,,,,,,,,,,,,,,,,,,484.62678529997356,484.63653340004385,489.8283220999874,[-0.2953703703703704],[-0.38055555555555554],[1],[0],[0],[5.198201299994253],['button_incorrect'],489.82870930002537,490.83181670005433,,,,,,,,,,,,,,,,,,,,,,,,,,,,,,,,,,3,2023-12-04_09h19.59.808,watkins1,2023.2.3,99.76684487355958,39,2023-12-04 09h20.06.527777 +0000,
(2 x 5) + 3 = 13 ,Correct,button_correct,,,,,,,,,,,,,0,2,2,2,,,,,,,,,490.8417646000162,,,,,,,,,,,,,,['button_correct'],[1.895963600021787],,,,,,,,,,,,,,,,,,,,,,,,,,distractorTask,3,,,,,,,,,,,,,,,,,,,,,,,,,490.83200829999987,490.8417646000162,492.7302222000435,[0.3990740740740741],[-0.375],[1],[0],[0],[1.895963600021787],['button_correct'],492.7306109999772,493.733556900057,,,,,,,,,,,,,,,,,,,,,,,,,,,,,,,,,,3,2023-12-04_09h19.59.808,watkins1,2023.2.3,99.76684487355958,39,2023-12-04 09h20.06.527777 +0000,
(40 : 5) + 8 = 15 ,Incorrect,button_incorrect,,,,,,,,,,,,,0,3,3,7,,,,,,,,,493.74354749999475,,,,,,,,,,,,,,['button_incorrect'],[4.325257999938913],,,,,,,,,,,,,,,,,,,,,,,,,,distractorTask,3,,,,,,,,,,,,,,,,,,,,,,,,,493.7337535000406,493.74354749999475,498.06190790003166,[-0.30277777777777776],[-0.37962962962962965],[1],[0],[0],[4.325257999938913],['button_incorrect'],498.06231179996394,499.0656747999601,,,,,,,,,,,,,,,,,,,,,,,,,,,,,,,,,,3,2023-12-04_09h19.59.808,watkins1,2023.2.3,99.76684487355958,39,2023-12-04 09h20.06.527777 +0000,
(80 : 10) + 9 = 17 ,Correct,button_correct,,,,,,,,,,,,,0,4,4,3,,,,,,,,,499.07575229997747,,,,,,,,,,,,,,['button_correct'],[2.669262300012633],,,,,,,,,,,,,,,,,,,,,,,,,,distractorTask,3,,,,,,,,,,,,,,,,,,,,,,,,,499.06586850003805,499.07575229997747,501.73723850003444,[0.3824074074074074],[-0.3907407407407407],[1],[0],[0],[2.669262300012633],['button_correct'],501.7376271999674,502.7407730000559,,,,,,,,,,,,,,,,,,,,,,,,,,,,,,,,,,3,2023-12-04_09h19.59.808,watkins1,2023.2.3,99.76684487355958,39,2023-12-04 09h20.06.527777 +0000,
(4 : 2) + 4 = 6 ,Correct,button_correct,,,,,,,,,,,,,0,5,5,1,,,,,,,,,502.75075610005297,,,,,,,,,,,,,,['button_correct'],"[3.673510399996303, 4.095082400017418]",,,,,,,,,,,,,,,,,,,,,,,,,,distractorTask,3,,,,,,,,,,,,,,,,,,,,,,,,,502.74096359999385,502.75075610005297,506.8377392999828,"[0.26666666666666666, 0.27870370370370373]","[-0.3787037037037037, -0.38055555555555554]","[1, 1]","[0, 0]","[0, 0]","[3.673510399996303, 4.095082400017418]",['button_correct'],506.83814640005585,507.8414260999998,,,,,,,,,,,,,,,,,,,,,,,,,,,,,,,,,,3,2023-12-04_09h19.59.808,watkins1,2023.2.3,99.76684487355958,39,2023-12-04 09h20.06.527777 +0000,
(28 : 7) - 3 = 1 ,Correct,button_correct,,,,,,,,,,,,,0,6,6,0,,,,,,,,,507.85136059997603,,,,,,,,,,,,,,['button_correct'],[5.149979499983601],,,,,,,,,,,,,,,,,,,,,,,,,,distractorTask,3,,,,,,,,,,,,,,,,,,,,,,,,,507.84161540004425,507.85136059997603,512.9933031999972,[0.2898148148148148],[-0.38981481481481484],[1],[0],[0],[5.149979499983601],['button_correct'],512.9936897000298,513.9969111999962,,,,,,,,,,,,,,,,,,,,,,,,,,,,,,,,,,3,2023-12-04_09h19.59.808,watkins1,2023.2.3,99.76684487355958,39,2023-12-04 09h20.06.527777 +0000,
(6 x 3) + 10 = 27 ,Incorrect,button_incorrect,,,,,,,,,,,,,0,7,7,8,,,,,,,,,514.0068853000412,,,,,,,,,,,,,,['button_incorrect'],[2.7593958999495953],,,,,,,,,,,,,,,,,,,,,,,,,,distractorTask,3,,,,,,,,,,,,,,,,,,,,,,,,,513.9971062999684,514.0068853000412,516.7583951000124,[-0.41203703703703703],[-0.41944444444444445],[1],[0],[0],[2.7593958999495953],['button_incorrect'],516.758780800039,517.7622237000614,,,,,,,,,,,,,,,,,,,,,,,,,,,,,,,,,,3,2023-12-04_09h19.59.808,watkins1,2023.2.3,99.76684487355958,39,2023-12-04 09h20.06.527777 +0000,
(54 : 6) - 10 = 0 ,Incorrect,button_incorrect,,,,,,,,,,,,,0,8,8,5,,,,,,,,,517.7722993000643,,,,,,,,,,,,,,['button_incorrect'],[4.52705649996642],,,,,,,,,,,,,,,,,,,,,,,,,,distractorTask,3,,,,,,,,,,,,,,,,,,,,,,,,,517.7624163000146,517.7722993000643,522.2912214000244,[-0.39537037037037037],[-0.4111111111111111],[1],[0],[0],[4.52705649996642],['button_incorrect'],522.2916060000425,523.2948683999712,,,,,,,,,,,,,,,,,,,,,,,,,,,,,,,,,,3,2023-12-04_09h19.59.808,watkins1,2023.2.3,99.76684487355958,39,2023-12-04 09h20.06.527777 +0000,
(25 : 5) + 5 = 9 ,Incorrect,button_incorrect,,,,,,,,,,,,,0,9,9,6,,,,,,,,,523.3048513999674,,,,,,,,,,,,,,['button_incorrect'],[2.7397528000874445],,,,,,,,,,,,,,,,,,,,,,,,,,distractorTask,3,,,,,,,,,,,,,,,,,,,,,,,,,523.2950582000194,523.3048513999674,526.0365241999971,[-0.35648148148148145],[-0.41203703703703703],[1],[0],[0],[2.7397528000874445],['button_incorrect'],526.0369037999772,527.0400033000624,,,,,,,,,,,,,,,,,,,,,,,,,,,,,,,,,,3,2023-12-04_09h19.59.808,watkins1,2023.2.3,99.76684487355958,39,2023-12-04 09h20.06.527777 +0000,
,,,,,,,,,,,,,,,,,,,,,,,,,,,,,,,,,,,,,,,,,,,,,,,,,,,,,,,,,,,,,,,,,,,,,3,,,,,,,,,,,,,,,,,,,,,,,,,,,,,,,,,,,,,,,,,,,,,,,,,,,,,,,,,,,,,,,,,,,,,,3,2023-12-04_09h19.59.808,watkins1,2023.2.3,99.76684487355958,39,2023-12-04 09h20.06.527777 +0000,
,,,,,,,,,,,,,,,,,,,0,0,0,0,,,,,538.936360700056,,,,,,,,,,,,,,socken,6.093951499904506,,,,,,,,,,,,2.7096733999205753,None,,,,,,,,,,,,,freeRecallSub,3,,,,,,,,,,,,,,,,,,,,,,,,,,,,,,,,,,,,,538.9287653999636,538.936360700056,538.936360700056,545.0314414000604,return,6.093951499904506,None,socken,[],[],[],[],[],[],[],,,,,,,,,,,,,,,,,,,3,2023-12-04_09h19.59.808,watkins1,2023.2.3,99.76684487355958,39,2023-12-04 09h20.06.527777 +0000,
,,,,,,,,,,,,,,,,,,,1,0,1,0,,,,,545.0444744999986,,,,,,,,,,,,,,Löffel,6.5778212998993695,,,,,,,,,,,,3.779374900041148,None,,,,,,,,,,,,,freeRecallSub,3,,,,,,,,,,,,,,,,,,,,,,,,,,,,,,,,,,,,,545.0332026999677,545.0444744999986,545.0444744999986,551.6240449000616,return,6.5778212998993695,None,Löffel,[],[],[],[],[],[],[],,,,,,,,,,,,,,,,,,,3,2023-12-04_09h19.59.808,watkins1,2023.2.3,99.76684487355958,39,2023-12-04 09h20.06.527777 +0000,
,,,,,,,,,,,,,,,,,,,2,0,2,0,,,,,551.6352047000546,,,,,,,,,,,,,,Tasch,2.675124399946071,,,,,,,,,,,,0.4826564999530092,None,,,,,,,,,,,,,freeRecallSub,3,,,,,,,,,,,,,,,,,,,,,,,,,,,,,,,,,,,,,551.6252731999848,551.6352047000546,551.6352047000546,554.3168166000396,return,2.675124399946071,None,Tasch,[],[],[],[],[],[],[],,,,,,,,,,,,,,,,,,,3,2023-12-04_09h19.59.808,watkins1,2023.2.3,99.76684487355958,39,2023-12-04 09h20.06.527777 +0000,
,,,,,,,,,,,,,,,,,,,3,0,3,0,,,,,554.3283907000441,,,,,,,,,,,,,,Fahrrad,11.99001089995727,,,,,,,,,,,,8.736491300049238,None,,,,,,,,,,,,,freeRecallSub,3,,,,,,,,,,,,,,,,,,,,,,,,,,,,,,,,,,,,,554.3180640999926,554.3283907000441,554.3283907000441,566.3277992999647,return,11.99001089995727,None,Fahrrad,[],[],[],[],[],[],[],,,,,,,,,,,,,,,,,,,3,2023-12-04_09h19.59.808,watkins1,2023.2.3,99.76684487355958,39,2023-12-04 09h20.06.527777 +0000,
,,,,,,,,,,,,,,,,,,,4,0,4,0,,,,,566.3391388000455,,,,,,,,,,,,,,Kette,10.483490800019354,,,,,,,,,,,,8.535325700067915,None,,,,,,,,,,,,,freeRecallSub,3,,,,,,,,,,,,,,,,,,,,,,,,,,,,,,,,,,,,,566.3290378999664,566.3391388000455,566.3391388000455,576.8323192000389,return,10.483490800019354,None,Kette,[],[],[],[],[],[],[],,,,,,,,,,,,,,,,,,,3,2023-12-04_09h19.59.808,watkins1,2023.2.3,99.76684487355958,39,2023-12-04 09h20.06.527777 +0000,
,,,,,,,,,,,,,,,,,,,5,0,5,0,,,,,576.843787400052,,,,,,,,,,,,,,Uhr,1.8026071999920532,,,,,,,,,,,,0.5230640000663698,None,,,,,,,,,,,,,freeRecallSub,3,,,,,,,,,,,,,,,,,,,,,,,,,,,,,,,,,,,,,576.83357779996,576.843787400052,576.843787400052,578.6518995000515,return,1.8026071999920532,None,Uhr,[],[],[],[],[],[],[],,,,,,,,,,,,,,,,,,,3,2023-12-04_09h19.59.808,watkins1,2023.2.3,99.76684487355958,39,2023-12-04 09h20.06.527777 +0000,
,,,,,,,,,,,,,,,,,,,6,0,6,0,,,,,578.663279499975,,,,,,,,,,,,,,Ring,3.0550176000688225,,,,,,,,,,,,0.6033139999490231,None,,,,,,,,,,,,,freeRecallSub,3,,,,,,,,,,,,,,,,,,,,,,,,,,,,,,,,,,,,,578.6531283999793,578.663279499975,578.663279499975,581.7262125000125,return,3.0550176000688225,None,Ring,[],[],[],[],[],[],[],,,,,,,,,,,,,,,,,,,3,2023-12-04_09h19.59.808,watkins1,2023.2.3,99.76684487355958,39,2023-12-04 09h20.06.527777 +0000,
,,,,,,,,,,,,,,,,,,,7,0,7,0,,,,,581.7382602000143,,,,,,,,,,,,,,Kiste,16.636039500008337,,,,,,,,,,,,14.853260500007309,None,,,,,,,,,,,,,freeRecallSub,3,,,,,,,,,,,,,,,,,,,,,,,,,,,,,,,,,,,,,581.7274816000136,581.7382602000143,581.7382602000143,598.3781069000252,return,16.636039500008337,None,Kiste,[],[],[],[],[],[],[],,,,,,,,,,,,,,,,,,,3,2023-12-04_09h19.59.808,watkins1,2023.2.3,99.76684487355958,39,2023-12-04 09h20.06.527777 +0000,
,,,,,,,,,,,,,,,,,,,8,0,8,0,,,,,598.3899999000132,,,,,,,,,,,,,,Hammer,2.704264000058174,,,,,,,,,,,,0.4033268999774009,None,,,,,,,,,,,,,freeRecallSub,3,,,,,,,,,,,,,,,,,,,,,,,,,,,,,,,,,,,,,598.3793756000232,598.3899999000132,598.3899999000132,601.1019068000605,return,2.704264000058174,None,Hammer,[],[],[],[],[],[],[],,,,,,,,,,,,,,,,,,,3,2023-12-04_09h19.59.808,watkins1,2023.2.3,99.76684487355958,39,2023-12-04 09h20.06.527777 +0000,
,,,,,,,,,,,,,,,,,,,9,0,9,0,,,,,601.1144407000393,,,,,,,,,,,,,,Blume,88.57170249999035,,,,,,,,,,,,86.30062949995045,None,,,,,,,,,,,,,freeRecallSub,3,,,,,,,,,,,,,,,,,,,,,,,,,,,,,,,,,,,,,601.1031770999543,601.1144407000393,601.1144407000393,689.6928110000445,return,88.57170249999035,None,Blume,[],[],[],[],[],[],[],,,,,,,,,,,,,,,,,,,3,2023-12-04_09h19.59.808,watkins1,2023.2.3,99.76684487355958,39,2023-12-04 09h20.06.527777 +0000,
,,,,,,,,,,,,,,,,,,,10,0,10,0,,,,,689.7058129999787,,,,,,,,,,,,,,Geige,7.34031999995932,,,,,,,,,,,,5.546586200012825,None,,,,,,,,,,,,,freeRecallSub,3,,,,,,,,,,,,,,,,,,,,,,,,,,,,,,,,,,,,,689.6940930000274,689.7058129999787,689.7058129999787,697.0479780000169,return,7.34031999995932,None,Geige,[],[],[],[],[],[],[],,,,,,,,,,,,,,,,,,,3,2023-12-04_09h19.59.808,watkins1,2023.2.3,99.76684487355958,39,2023-12-04 09h20.06.527777 +0000,
,,,,,,,,,,,,,,,,,,,11,0,11,0,,,,,697.0606353000039,,,,,,,,,,,,,,Trommel,53.88167060003616,,,,,,,,,,,,49.133534600026906,50.45889609993901,,,,,,,,,,,,,freeRecallSub,3,,,,,,,,,,,,,,,,,,,,,,,,,,,,,,,,,,,,,697.0492518000538,697.0606353000039,697.0606353000039,750.9519600999774,return,53.88167060003616,None,Trommel,[],[],[],[],[],[],[],,,,,,,,,,,,,,,,,,,3,2023-12-04_09h19.59.808,watkins1,2023.2.3,99.76684487355958,39,2023-12-04 09h20.06.527777 +0000,
,,,,,,,,,,,,,,,,,,,12,0,12,0,,,,,750.9645214000484,,,,,,,,,,,,,,Kerze,52.64930449996609,,,,,,,,,,,,49.775179099990055,None,,,,,,,,,,,,,freeRecallSub,3,,,,,,,,,,,,,,,,,,,,,,,,,,,,,,,,,,,,,750.9532559000654,750.9645214000484,750.9645214000484,803.6208732000086,return,52.64930449996609,None,Kerze,[],[],[],[],[],[],[],,,,,,,,,,,,,,,,,,,3,2023-12-04_09h19.59.808,watkins1,2023.2.3,99.76684487355958,39,2023-12-04 09h20.06.527777 +0000,
,,,,,,,,,,,,,,,,,,,13,0,13,0,,,,,803.6344329999993,,,,,,,,,,,,,,Lampe,27.267505900003016,,,,,,,,,,,,23.862748199957423,None,,,,,,,,,,,,,freeRecallSub,3,,,,,,,,,,,,,,,,,,,,,,,,,,,,,,,,,,,,,803.6221661999589,803.6344329999993,803.6344329999993,830.9089299000334,return,27.267505900003016,None,Lampe,[],[],[],[],[],[],[],,,,,,,,,,,,,,,,,,,3,2023-12-04_09h19.59.808,watkins1,2023.2.3,99.76684487355958,39,2023-12-04 09h20.06.527777 +0000,
,,,,,,,,,,,,,,,,,,,14,0,14,0,,,,,830.9225700000534,,,,,,,,,,,,,,,[],,,,,,,,,,,,None,None,,,,,,,,,,,,,freeRecallSub,3,,,,,,,,,,,,,,,,,,,,,,,,,,,,,,,,,,,,,830.9102015000535,830.9225700000534,830.9225700000534,843.0953807999613,None,,,,[0.40185185185185185],[-0.41203703703703703],[1],[0],[0],[12.179243299993686],"['button_continue', 'continue_text']",,,,,,,,,,,,,,,,,,,3,2023-12-04_09h19.59.808,watkins1,2023.2.3,99.76684487355958,39,2023-12-04 09h20.06.527777 +0000,
,,,,,,,,,,,,,,,,,,,,,,,,,,,,,,,,,,,,,,,,,,,,,,,,,,,,,,,,,,,,,,,,,,,,,3,,,,,,,,,,,,,,,,,,,,,,,,,,,,,,,,,,,,,,,,,,,,,,,,,,,,,,,,,,,,,,,,,,,,,,3,2023-12-04_09h19.59.808,watkins1,2023.2.3,99.76684487355958,39,2023-12-04 09h20.06.527777 +0000,
,,,,,,,,,,,,,,,,,,,,,,,0,0,0,0,852.1831856999779,,,,,,,,,,859.1652697999962,859.6638595999684,,,,6.974575000000186,,,,,,,,,,,,None,None,,,,,,,,,,Jacke,,,cuedRecallAdj,3,,,,,,,,,,,,,,,,,,,0,,,,,,,,,,,,,,,,,,,,,,,,,,,,,,,,,852.173914300045,852.1831856999779,852.1831856999779,859.1619593000505,durchsichtig,return,6.974575000000186,None,859.1623606999638,859.1714273999678,859.1714273999678,859.1651158999885,,None,,,,,3,2023-12-04_09h19.59.808,watkins1,2023.2.3,99.76684487355958,39,2023-12-04 09h20.06.527777 +0000,
,,,,,,,,,,,,,,,,,,,,,,,1,0,1,0,859.6737498999573,,,,,,,,,,865.4816907000495,865.9796540000243,,,,5.804290700005367,,,,,,,,,,,,None,None,,,,,,,,,,Hut,,,cuedRecallAdj,3,,,,,,,,,,,,,,,,,,,0,,,,,,,,,,,,,,,,,,,,,,,,,,,,,,,,,859.6641072999919,859.6737498999573,859.6737498999573,865.4786256999942,kratzig,return,5.804290700005367,None,865.4789089000551,865.4876258999575,865.4876258999575,865.4815826000413,,None,,,,,3,2023-12-04_09h19.59.808,watkins1,2023.2.3,99.76684487355958,39,2023-12-04 09h20.06.527777 +0000,
,,,,,,,,,,,,,,,,,,,,,,,2,0,2,0,865.9896135999588,,,,,,,,,,871.937425400014,872.4362031000201,,,,5.936366999987513,,,,,,,,,,,,None,None,,,,,,,,,,Tasse,,,cuedRecallAdj,3,,,,,,,,,,,,,,,,,,,0,,,,,,,,,,,,,,,,,,,,,,,,,,,,,,,,,865.9798980000196,865.9896135999588,865.9896135999588,871.934401000035,winzig,return,5.936366999987513,None,871.9346656999551,871.9440715999808,871.9440715999808,871.9373230000492,,None,,,,,3,2023-12-04_09h19.59.808,watkins1,2023.2.3,99.76684487355958,39,2023-12-04 09h20.06.527777 +0000,
,,,,,,,,,,,,,,,,,,,,,,,3,0,3,0,872.4461570000276,,,,,,,,,,875.3915638000472,875.8902370999567,,,,2.9356239000335336,,,,,,,,,,,,None,None,,,,,,,,,,Stift,,,cuedRecallAdj,3,,,,,,,,,,,,,,,,,,,0,,,,,,,,,,,,,,,,,,,,,,,,,,,,,,,,,872.4364451000001,872.4461570000276,872.4461570000276,875.3886881000362,krum,return,2.9356239000335336,None,875.3889578999951,875.3982265000232,875.3982265000232,875.3914609999629,,None,,,,,3,2023-12-04_09h19.59.808,watkins1,2023.2.3,99.76684487355958,39,2023-12-04 09h20.06.527777 +0000,
,,,,,,,,,,,,,,,,,,,,,,,4,0,4,0,875.9001743999543,,,,,,,,,,891.6279332999839,892.1263987000566,,,,15.72158089990262,,,,,,,,,,,,None,None,,,,,,,,,,Telefon,,,cuedRecallAdj,3,,,,,,,,,,,,,,,,,,,0,,,,,,,,,,,,,,,,,,,,,,,,,,,,,,,,,875.8904770000372,875.9001743999543,875.9001743999543,891.6247624000534,schlicht,return,15.72158089990262,None,891.6250292999903,891.6343684999738,891.6343684999738,891.62778910005,,None,,,,,3,2023-12-04_09h19.59.808,watkins1,2023.2.3,99.76684487355958,39,2023-12-04 09h20.06.527777 +0000,
,,,,,,,,,,,,,,,,,,,,,,,5,0,5,0,892.1363480000291,,,,,,,,,,895.162082600058,895.6606260000262,,,,3.0134481999557465,,,,,,,,,,,,None,None,,,,,,,,,,Bürste,,,cuedRecallAdj,3,,,,,,,,,,,,,,,,,,,0,,,,,,,,,,,,,,,,,,,,,,,,,,,,,,,,,892.1266402000329,892.1363480000291,892.1363480000291,895.1589614000404,kalt,return,3.0134481999557465,None,895.1592717999592,895.1687351999572,895.1687351999572,895.1619778999593,,None,,,,,3,2023-12-04_09h19.59.808,watkins1,2023.2.3,99.76684487355958,39,2023-12-04 09h20.06.527777 +0000,
,,,,,,,,,,,,,,,,,,,,,,,6,0,6,0,895.6706640999764,,,,,,,,,,900.735614300007,901.2337978000287,,,,5.054965500021353,,,,,,,,,,,,None,None,,,,,,,,,,Kiste,,,cuedRecallAdj,3,,,,,,,,,,,,,,,,,,,0,,,,,,,,,,,,,,,,,,,,,,,,,,,,,,,,,895.6608760000672,895.6706640999764,895.6706640999764,900.7323396999855,verspielt,return,5.054965500021353,None,900.7326053000288,900.7418890000554,900.7418890000554,900.7355127000483,,None,,,,,3,2023-12-04_09h19.59.808,watkins1,2023.2.3,99.76684487355958,39,2023-12-04 09h20.06.527777 +0000,
,,,,,,,,,,,,,,,,,,,,,,,7,0,7,0,901.2438568000216,,,,,,,,,,905.9060908000683,906.404779399978,,,,4.649868299951777,,,,,,,,,,,,None,None,,,,,,,,,,Löffel,,,cuedRecallAdj,3,,,,,,,,,,,,,,,,,,,0,,,,,,,,,,,,,,,,,,,,,,,,,,,,,,,,,901.2340382999973,901.2438568000216,901.2438568000216,905.9029940000037,flauschig,return,4.649868299951777,None,905.9032570000272,905.9126756000333,905.9126756000333,905.9059888999909,,None,,,,,3,2023-12-04_09h19.59.808,watkins1,2023.2.3,99.76684487355958,39,2023-12-04 09h20.06.527777 +0000,
,,,,,,,,,,,,,,,,,,,,,,,8,0,8,0,906.4147130000638,,,,,,,,,,909.6615807999624,910.1601729999529,,,,3.2389568999642506,,,,,,,,,,,,None,None,,,,,,,,,,Schlüssel,,,cuedRecallAdj,3,,,,,,,,,,,,,,,,,,,0,,,,,,,,,,,,,,,,,,,,,,,,,,,,,,,,,906.4050217999611,906.4147130000638,906.4147130000638,909.658316200017,glatt,return,3.2389568999642506,None,909.6585806000512,909.6678289000411,909.6678289000411,909.6614790000021,,None,,,,,3,2023-12-04_09h19.59.808,watkins1,2023.2.3,99.76684487355958,39,2023-12-04 09h20.06.527777 +0000,
,,,,,,,,,,,,,,,,,,,,,,,9,0,9,0,910.1701257000677,,,,,,,,,,915.5154437000165,916.0139679999556,,,,5.339638799894601,,,,,,,,,,,,None,None,,,,,,,,,,Eimer,,,cuedRecallAdj,3,,,,,,,,,,,,,,,,,,,0,,,,,,,,,,,,,,,,,,,,,,,,,,,,,,,,,910.1604190999642,910.1701257000677,910.1701257000677,915.5123880000319,glänzend,return,5.339638799894601,None,915.5126539999619,915.5219016000628,915.5219016000628,915.5153383000288,,None,,,,,3,2023-12-04_09h19.59.808,watkins1,2023.2.3,99.76684487355958,39,2023-12-04 09h20.06.527777 +0000,
,,,,,,,,,,,,,,,,,,,,,,,10,0,10,0,916.0240167999873,,,,,,,,,,918.7789706999902,919.2775912999641,,,,2.749742200016044,,,,,,,,,,,,None,None,,,,,,,,,,Geige,,,cuedRecallAdj,3,,,,,,,,,,,,,,,,,,,0,,,,,,,,,,,,,,,,,,,,,,,,,,,,,,,,,916.014219500008,916.0240167999873,916.0240167999873,918.7759811000433,matt,return,2.749742200016044,None,918.7762642999878,918.7856195999775,918.7856195999775,918.7788688000292,,None,,,,,3,2023-12-04_09h19.59.808,watkins1,2023.2.3,99.76684487355958,39,2023-12-04 09h20.06.527777 +0000,
,,,,,,,,,,,,,,,,,,,,,,,11,0,11,0,919.2874950000551,,,,,,,,,,930.165093800053,930.6635823999532,,,,10.870277700014412,,,,,,,,,,,,None,None,,,,,,,,,,Tasche,,,cuedRecallAdj,3,,,,,,,,,,,,,,,,,,,0,,,,,,,,,,,,,,,,,,,,,,,,,,,,,,,,,919.27783799998,919.2874950000551,919.2874950000551,930.1620177000295,glänzend,return,10.870277700014412,None,930.1622840999626,930.171526900027,930.171526900027,930.1649911999702,,None,,,,,3,2023-12-04_09h19.59.808,watkins1,2023.2.3,99.76684487355958,39,2023-12-04 09h20.06.527777 +0000,
,,,,,,,,,,,,,,,,,,,,,,,12,0,12,0,930.6735824999632,,,,,,,,,,936.6414520000108,937.1402485000435,,,,5.963965499890037,,,,,,,,,,,,None,None,,,,,,,,,,Buch,,,cuedRecallAdj,3,,,,,,,,,,,,,,,,,,,0,,,,,,,,,,,,,,,,,,,,,,,,,,,,,,,,,930.663830799982,930.6735824999632,930.6735824999632,936.6384205999784,rustikal,return,5.963965499890037,None,936.6386930999579,936.6479026000015,936.6479026000015,936.641350400052,,None,,,,,3,2023-12-04_09h19.59.808,watkins1,2023.2.3,99.76684487355958,39,2023-12-04 09h20.06.527777 +0000,
,,,,,,,,,,,,,,,,,,,,,,,13,0,13,0,937.1501881000586,,,,,,,,,,949.3425554999849,949.8414149000309,,,,12.183355999994092,,,,,,,,,,,,None,None,,,,,,,,,,Kette,,,cuedRecallAdj,3,,,,,,,,,,,,,,,,,,,0,,,,,,,,,,,,,,,,,,,,,,,,,,,,,,,,,937.1404911000282,937.1501881000586,937.1501881000586,949.3397711999714,alt,return,12.183355999994092,None,949.3400307999691,949.349273800035,949.349273800035,949.3424543000292,,None,,,,,3,2023-12-04_09h19.59.808,watkins1,2023.2.3,99.76684487355958,39,2023-12-04 09h20.06.527777 +0000,
,,,,,,,,,,,,,,,,,,,,,,,14,0,14,0,949.8514540999895,,,,,,,,,,954.3629042999819,954.8617468000157,,,,4.506198800052516,,,,,,,,,,,,None,None,,,,,,,,,,Ring,,,cuedRecallAdj,3,,,,,,,,,,,,,,,,,,,0,,,,,,,,,,,,,,,,,,,,,,,,,,,,,,,,,949.8416642000666,949.8514540999895,949.8514540999895,954.3601788000669,neu,return,4.506198800052516,None,954.3604472000152,954.3697237999877,954.3697237999877,954.3628014000133,,None,,,,,3,2023-12-04_09h19.59.808,watkins1,2023.2.3,99.76684487355958,39,2023-12-04 09h20.06.527777 +0000,
,,,,,,,,,,,,,,,,,,,,,,,15,0,15,0,954.8716714000329,,,,,,,,,,961.1506641999586,961.6493111000163,,,,6.269855700084008,,,,,,,,,,,,None,None,,,,,,,,,,Flasche,,,cuedRecallAdj,3,,,,,,,,,,,,,,,,,,,0,,,,,,,,,,,,,,,,,,,,,,,,,,,,,,,,,954.86199939996,954.8716714000329,954.8716714000329,961.147639199975,lustig,return,6.269855700084008,None,961.147906600032,961.1572415999835,961.1572415999835,961.1505628000014,,None,,,,,3,2023-12-04_09h19.59.808,watkins1,2023.2.3,99.76684487355958,39,2023-12-04 09h20.06.527777 +0000,
,,,,,,,,,,,,,,,,,,,,,,,16,0,16,0,961.6592507000314,,,,,,,,,,965.6688769999892,966.1673876000568,,,,4.002400400000624,,,,,,,,,,,,None,None,,,,,,,,,,Blume,,,cuedRecallAdj,3,,,,,,,,,,,,,,,,,,,0,,,,,,,,,,,,,,,,,,,,,,,,,,,,,,,,,961.6495575000299,961.6592507000314,961.6592507000314,965.6657641000347,nachhaltig,return,4.002400400000624,None,965.6660304999677,965.6753495000303,965.6753495000303,965.6687753000297,,None,,,,,3,2023-12-04_09h19.59.808,watkins1,2023.2.3,99.76684487355958,39,2023-12-04 09h20.06.527777 +0000,
,,,,,,,,,,,,,,,,,,,,,,,17,0,17,0,966.177334100008,,,,,,,,,,977.1858372000279,977.6842918000184,,,,10.996207499993034,,,,,,,,,,,,None,None,,,,,,,,,,Fahrrad,,,cuedRecallAdj,3,,,,,,,,,,,,,,,,,,,0,,,,,,,,,,,,,,,,,,,,,,,,,,,,,,,,,966.1676267000148,966.177334100008,966.177334100008,977.1824509999715,elegant,return,10.996207499993034,None,977.1827175000217,977.1922685999889,977.1922685999889,977.1857361999573,,None,,,,,3,2023-12-04_09h19.59.808,watkins1,2023.2.3,99.76684487355958,39,2023-12-04 09h20.06.527777 +0000,
,,,,,,,,,,,,,,,,,,,,,,,18,0,18,0,977.6942409999901,,,,,,,,,,981.5851245999802,982.0838110999903,,,,3.8793160000350326,,,,,,,,,,,,None,None,,,,,,,,,,Hammer,,,cuedRecallAdj,3,,,,,,,,,,,,,,,,,,,0,,,,,,,,,,,,,,,,,,,,,,,,,,,,,,,,,977.6845388000365,977.6942409999901,977.6942409999901,981.5821105999639,schön,return,3.8793160000350326,None,981.5823778000195,981.5917891999707,981.5917891999707,981.585023600026,,None,,,,,3,2023-12-04_09h19.59.808,watkins1,2023.2.3,99.76684487355958,39,2023-12-04 09h20.06.527777 +0000,
,,,,,,,,,,,,,,,,,,,,,,,19,0,19,0,982.0937249000417,,,,,,,,,,984.5371549000265,985.03590909997,,,,2.431823900085874,,,,,,,,,,,,None,None,,,,,,,,,,Rucksack,,,cuedRecallAdj,3,,,,,,,,,,,,,,,,,,,0,,,,,,,,,,,,,,,,,,,,,,,,,,,,,,,,,982.0840568999993,982.0937249000417,982.0937249000417,984.5342503000284,lang,return,2.431823900085874,None,984.5345181999728,984.5439489999553,984.5439489999553,984.537052800064,,None,,,,,3,2023-12-04_09h19.59.808,watkins1,2023.2.3,99.76684487355958,39,2023-12-04 09h20.06.527777 +0000,
,,,,,,,,,,,,,,,,,,,,,,,20,0,20,0,985.0459596000146,,,,,,,,,,988.1719999000197,988.6706407000311,,,,3.1195282000117004,,,,,,,,,,,,None,None,,,,,,,,,,Uhr,,,cuedRecallAdj,3,,,,,,,,,,,,,,,,,,,0,,,,,,,,,,,,,,,,,,,,,,,,,,,,,,,,,985.0361606000224,985.0459596000146,985.0459596000146,988.169140700018,flach,return,3.1195282000117004,None,988.1694094999693,988.1786635000026,988.1786635000026,988.1718985000625,,None,,,,,3,2023-12-04_09h19.59.808,watkins1,2023.2.3,99.76684487355958,39,2023-12-04 09h20.06.527777 +0000,
,,,,,,,,,,,,,,,,,,,,,,,21,0,21,0,988.680693799979,,,,,,,,,,1002.3292930000462,1002.8277010000311,,,,13.644821600057185,,,,,,,,,,,,None,None,,,,,,,,,,Brille,,,cuedRecallAdj,3,,,,,,,,,,,,,,,,,,,0,,,,,,,,,,,,,,,,,,,,,,,,,,,,,,,,,988.6708870000439,988.680693799979,988.680693799979,1002.3262107999763,dreckig,return,13.644821600057185,None,1002.3264766000211,1002.3357304000529,1002.3357304000529,1002.3291916999733,,None,,,,,3,2023-12-04_09h19.59.808,watkins1,2023.2.3,99.76684487355958,39,2023-12-04 09h20.06.527777 +0000,
,,,,,,,,,,,,,,,,,,,,,,,22,0,22,0,1002.8377484000521,,,,,,,,,,1009.5889004999772,1010.0874019999756,,,,6.743844499927945,,,,,,,,,,,,None,None,,,,,,,,,,Kerze,,,cuedRecallAdj,3,,,,,,,,,,,,,,,,,,,0,,,,,,,,,,,,,,,,,,,,,,,,,,,,,,,,,1002.8279478000477,1002.8377484000521,1002.8377484000521,1009.5857720000204,schwer,return,6.743844499927945,None,1009.5860577999847,1009.5953491999535,1009.5953491999535,1009.5887990000192,,None,,,,,3,2023-12-04_09h19.59.808,watkins1,2023.2.3,99.76684487355958,39,2023-12-04 09h20.06.527777 +0000,
,,,,,,,,,,,,,,,,,,,,,,,23,0,23,0,1010.0973493000492,,,,,,,,,,1013.1930997000309,1013.6919612999773,,,,3.0842148999217898,,,,,,,,,,,,None,None,,,,,,,,,,Schere,,,cuedRecallAdj,3,,,,,,,,,,,,,,,,,,,0,,,,,,,,,,,,,,,,,,,,,,,,,,,,,,,,,1010.0876424000598,1010.0973493000492,1010.0973493000492,1013.1901704999618,teuer,return,3.0842148999217898,None,1013.1904295999557,1013.1998185999691,1013.1998185999691,1013.1930007999763,,None,,,,,3,2023-12-04_09h19.59.808,watkins1,2023.2.3,99.76684487355958,39,2023-12-04 09h20.06.527777 +0000,
,,,,,,,,,,,,,,,,,,,,,,,24,0,24,0,1013.701902700006,,,,,,,,,,1017.1796326000476,1017.6778190999757,,,,3.471633700071834,,,,,,,,,,,,None,None,,,,,,,,,,Würfel,,,cuedRecallAdj,3,,,,,,,,,,,,,,,,,,,0,,,,,,,,,,,,,,,,,,,,,,,,,,,,,,,,,1013.6922085999977,1013.701902700006,1013.701902700006,1017.1764355000341,kaputt,return,3.471633700071834,None,1017.1767001999542,1017.1860051000258,1017.1860051000258,1017.1795312999748,,None,,,,,3,2023-12-04_09h19.59.808,watkins1,2023.2.3,99.76684487355958,39,2023-12-04 09h20.06.527777 +0000,
,,,,,,,,,,,,,,,,,,,,,,,25,0,25,0,1017.6877953000367,,,,,,,,,,1020.6940719999839,1021.1925429999828,,,,2.9976356000406668,,,,,,,,,,,,None,None,,,,,,,,,,Trommel,,,cuedRecallAdj,3,,,,,,,,,,,,,,,,,,,0,,,,,,,,,,,,,,,,,,,,,,,,,,,,,,,,,1017.6780669,1017.6877953000367,1017.6877953000367,1020.6909524999792,zart,return,2.9976356000406668,None,1020.69122040004,1020.7004926999798,1020.7004926999798,1020.6939704000251,,None,,,,,3,2023-12-04_09h19.59.808,watkins1,2023.2.3,99.76684487355958,39,2023-12-04 09h20.06.527777 +0000,
,,,,,,,,,,,,,,,,,,,,,,,26,0,26,0,1021.2024975999957,,,,,,,,,,1024.2381699000252,1024.7369049000554,,,,3.0270038000307977,,,,,,,,,,,,None,None,,,,,,,,,,Vase,,,cuedRecallAdj,3,,,,,,,,,,,,,,,,,,,0,,,,,,,,,,,,,,,,,,,,,,,,,,,,,,,,,1021.1927834000671,1021.2024975999957,1021.2024975999957,1024.2352572999662,nass,return,3.0270038000307977,None,1024.2355296000605,1024.2448185000103,1024.2448185000103,1024.2380672000581,,None,,,,,3,2023-12-04_09h19.59.808,watkins1,2023.2.3,99.76684487355958,39,2023-12-04 09h20.06.527777 +0000,
,,,,,,,,,,,,,,,,,,,,,,,27,0,27,0,1024.7468535000226,,,,,,,,,,1027.3606502000475,1027.859433399979,,,,2.602665100013837,,,,,,,,,,,,None,None,,,,,,,,,,Socke,,,cuedRecallAdj,3,,,,,,,,,,,,,,,,,,,0,,,,,,,,,,,,,,,,,,,,,,,,,,,,,,,,,1024.7371469000354,1024.7468535000226,1024.7468535000226,1027.3577656999696,dick,return,2.602665100013837,None,1027.3580311000114,1027.3674425999634,1027.3674425999634,1027.3605473999633,,None,,,,,3,2023-12-04_09h19.59.808,watkins1,2023.2.3,99.76684487355958,39,2023-12-04 09h20.06.527777 +0000,
,,,,,,,,,,,,,,,,,,,,,,,28,0,28,0,1027.8694420000538,,,,,,,,,,1030.7542668000096,1031.2531154999742,,,,2.872025499935262,,,,,,,,,,,,None,None,,,,,,,,,,Lampe,,,cuedRecallAdj,3,,,,,,,,,,,,,,,,,,,0,,,,,,,,,,,,,,,,,,,,,,,,,,,,,,,,,1027.8596779999789,1027.8694420000538,1027.8694420000538,1030.7514350999845,gut,return,2.872025499935262,None,1030.751699800021,1030.7611557999626,1030.7611557999626,1030.7541648000479,,None,,,,,3,2023-12-04_09h19.59.808,watkins1,2023.2.3,99.76684487355958,39,2023-12-04 09h20.06.527777 +0000,
,,,,,,,,,,,,,,,,,,,,,,,29,0,29,0,1031.2631448999746,,,,,,,,,,1036.1978491999907,1036.6962831000565,,,,4.926325800013728,,,,,,,,,,,,None,None,,,,,,,,,,Kamera,,,cuedRecallAdj,3,,,,,,,,,,,,,,,,,,,0,,,,,,,,,,,,,,,,,,,,,,,,,,,,,,,,,1031.2533591999672,1031.2631448999746,1031.2631448999746,1036.1945519000292,breit,return,4.926325800013728,None,1036.1948166000657,1036.2041518000187,1036.2041518000187,1036.197746800026,,None,,,,,3,2023-12-04_09h19.59.808,watkins1,2023.2.3,99.76684487355958,39,2023-12-04 09h20.06.527777 +0000,
,,,,,,,,,,,,,,,,,,,,,,,,,,,,,,,,,,,,,,,,,,,,,,,,,,,,,,,,,,,,,,,,,,,,,3,,,,,,,,,,,,,,,,,,,,,,,,,,,,,,,,,,,,,,,,,,,,,,,,,,,,,,,,,,,,,,,,,,1036.7130136999767,q,886.7466982000042,None,3,2023-12-04_09h19.59.808,watkins1,2023.2.3,99.76684487355958,39,2023-12-04 09h20.06.527777 +0000,
