Equation,CorrectResponse,Correctbutton,trials_7.thisRepN,trials_7.thisTrialN,trials_7.thisN,trials_7.thisIndex,trials.thisRepN,trials.thisTrialN,trials.thisN,trials.thisIndex,trials_3.thisRepN,trials_3.thisTrialN,trials_3.thisN,trials_3.thisIndex,trials_2.thisRepN,trials_2.thisTrialN,trials_2.thisN,trials_2.thisIndex,trials_4.thisRepN,trials_4.thisTrialN,trials_4.thisN,trials_4.thisIndex,trials_5.thisRepN,trials_5.thisTrialN,trials_5.thisN,trials_5.thisIndex,thisRow.t,notes,code_marius.started,code_marius.stopped,welcome.started,welcome.stopped,instruction_study.started,instruction_study.stopped,fixationcross.started,fixationcross.stopped,blanc.started,blanc.stopped,study_control_probe.started,study_control_probe.stopped,responseKey,responseTime,scale_answer_2.keys,study_control_probe_2.started,study_control_probe_2.stopped,scale_answer_3.keys,scale_answer_3.rt,scale_answer_3.duration,blanc_2.started,blanc_2.stopped,test_attr_probe.started,test_attr_probe.stopped,recalled_attr,firstKeyTime,secondWordTime,blanc_3.started,blanc_3.stopped,test_sub_probe.started,test_sub_probe.stopped,recalled_sub,instruction_probe_end.started,instruction_probe_end.stopped,study.started,study.stopped,substantive,adjective,wordpair,task,condition,liste_sub_phase1,liste_adj_phase1,scale_answer.keys,scale_answer.rt,scale_answer.duration,code_defineWordsInit.started,code_defineWordsInit.stopped,liste_sub_phase2,study_control.started,study_control.stopped,scale_answer_4.keys,restudy_same.started,restudy_same.stopped,scale_answer_5.keys,restudy_different.started,restudy_different.stopped,scale_answer_6.keys,test_attr.started,correct,test_attr.stopped,test_sub.started,test_sub.stopped,scale_answer_5.rt,scale_answer_5.duration,distractortask.started,equation_text.started,distractortask.stopped,mouse_answer.x,mouse_answer.y,mouse_answer.leftButton,mouse_answer.midButton,mouse_answer.rightButton,mouse_answer.time,mouse_answer.clicked_name,feedback_distractortask.started,feedback_distractortask.stopped,free_recall.started,text_enter.started,key_resp.started,free_recall.stopped,key_resp.keys,key_resp.rt,key_resp.duration,free_recalled_sub,mouse_continue.x,mouse_continue.y,mouse_continue.leftButton,mouse_continue.midButton,mouse_continue.rightButton,mouse_continue.time,mouse_continue.clicked_name,cued_recall.started,text_enter_2.started,key_continue.started,cued_recall.stopped,recalled_attr1,key_continue.keys,key_continue.rt,key_continue.duration,cued_recall_2.started,text_enter_3.started,key_continue_2.started,cued_recall_2.stopped,recalled_attr2,key_continue_2.keys,key_resp_8.started,key_resp_8.keys,key_resp_8.rt,key_resp_8.duration,condition,date,expName,psychopyVersion,frameRate,participant,expStart,
,,,,,,,,,,,,,,,,,,,,,,,,,,,,,0.10035229998175055,0.10041720001026988,0.10042570001678541,6.564447399985511,,,,,,,,,,,,,,,,,,,,,,,,,,,,,,,,,,,,,3,,,,,,,,,,,,,,,,,,,,,,,,,,,,,,,,,,,,,,,,,,,,,,,,,,,,,,,,,,,,,,,,,,,,,,3,2023-11-27_13h52.49.951,watkins1,2023.2.3,99.72754432921793,22,2023-11-27 13h52.58.848451 +0000,
,,,,,,,,,,,,,,,,,,,,,,,,,,,,,,,,,6.564494599995669,50.08219230000395,,,,,,,,,,,,,,,,,,,,,,,,,,,,,,,,,,,3,,,,,,,,,,,,,,,,,,,,,,,,,,,,,,,,,,,,,,,,,,,,,,,,,,,,,,,,,,,,,,,,,,,,,,3,2023-11-27_13h52.49.951,watkins1,2023.2.3,99.72754432921793,22,2023-11-27 13h52.58.848451 +0000,
,,,0,0,0,0,,,,,,,,,,,,,,,,,,,,,51.095927499991376,,,,,,,,50.08221050002612,51.08595149999019,57.582408000016585,58.073783300002106,51.57811210001819,57.58224479999626,1,1.3209265999612398,None,58.073794100026134,64.08051409997279,1,1.3209265999612398,None,64.08080519997748,64.57214210001985,64.57215299998643,70.57709289999912,vergnügt,None,None,70.57731979998061,70.57734349998645,70.57735049998155,70.5774346999824,,,,,,,,,,3,,,,,,,,,,,,,,,,,,,,,,,,,,,,,,,,,,,,,,,,,,,,,,,,,,,,,,,,,,,,,,,,,,,,,,3,2023-11-27_13h52.49.951,watkins1,2023.2.3,99.72754432921793,22,2023-11-27 13h52.58.848451 +0000,
,,,,,,,,,,,,,,,,,,,,,,,,,,,,,,,,,,,,,,,,,,,,,,,,,,,,,,,,,,,,,70.5775527000078,75.47798249998596,,,,,,,3,,,,,,,,,,,,,,,,,,,,,,,,,,,,,,,,,,,,,,,,,,,,,,,,,,,,,,,,,,,,,,,,,,,,,,3,2023-11-27_13h52.49.951,watkins1,2023.2.3,99.72754432921793,22,2023-11-27 13h52.58.848451 +0000,
,,,,,,,0,0,0,0,,,,,,,,,,,,,,,,,76.49155540001811,,,,,,,,75.47799799998756,76.48161529999925,76.48207849997561,76.97379899997031,,,3,1.7121350000379607,,,,,,,,,,,,,,,,,,,,,76.97380919998977,82.98433890001616,Rucksack,praktisch,"['Rucksack', 'praktisch']",test_adj,3,"['Rucksack', 'Schlüssel', 'Tasse', 'Eimer', 'Würfel', 'Tasche', 'Blume', 'Fahrrad', 'Trommel', 'Hut', 'Brille', 'Hammer', 'Flasche', 'Socke', 'Schere', 'Kette', 'Kamera', 'Kiste', 'Geige', 'Stift', 'Ring', 'Buch', 'Lampe', 'Uhr', 'Löffel', 'Bürste', 'Telefon', 'Jacke', 'Vase', 'Kerze']",['praktisch'],3,1.7121350000379607,None,,,,,,,,,,,,,,,,,,,,,,,,,,,,,,,,,,,,,,,,,,,,,,,,,,,,,,,,,,,,,,,,,3,2023-11-27_13h52.49.951,watkins1,2023.2.3,99.72754432921793,22,2023-11-27 13h52.58.848451 +0000,
,,,,,,,1,0,1,0,,,,,,,,,,,,,,,,,82.99380009999732,,,,,,,,,,82.98501409997698,83.4758598000044,,,1,1.180736300011631,,,,,,,,,,,,,,,,,,,,,83.4758699000231,89.48285969998688,Schlüssel,elegant,"['Schlüssel', 'elegant']",test_adj,3,"['Rucksack', 'Schlüssel', 'Tasse', 'Eimer', 'Würfel', 'Tasche', 'Blume', 'Fahrrad', 'Trommel', 'Hut', 'Brille', 'Hammer', 'Flasche', 'Socke', 'Schere', 'Kette', 'Kamera', 'Kiste', 'Geige', 'Stift', 'Ring', 'Buch', 'Lampe', 'Uhr', 'Löffel', 'Bürste', 'Telefon', 'Jacke', 'Vase', 'Kerze']","['praktisch', 'elegant']",1,1.180736300011631,None,,,,,,,,,,,,,,,,,,,,,,,,,,,,,,,,,,,,,,,,,,,,,,,,,,,,,,,,,,,,,,,,,3,2023-11-27_13h52.49.951,watkins1,2023.2.3,99.72754432921793,22,2023-11-27 13h52.58.848451 +0000,
,,,,,,,2,0,2,0,,,,,,,,,,,,,,,,,89.49233280000044,,,,,,,,,,89.48339289997239,89.974371600023,,,1,2.121631800022442,,,,,,,,,,,,,,,,,,,,,89.97438319999492,95.97534639999503,Tasse,hässlich,"['Tasse', 'hässlich']",test_adj,3,"['Rucksack', 'Schlüssel', 'Tasse', 'Eimer', 'Würfel', 'Tasche', 'Blume', 'Fahrrad', 'Trommel', 'Hut', 'Brille', 'Hammer', 'Flasche', 'Socke', 'Schere', 'Kette', 'Kamera', 'Kiste', 'Geige', 'Stift', 'Ring', 'Buch', 'Lampe', 'Uhr', 'Löffel', 'Bürste', 'Telefon', 'Jacke', 'Vase', 'Kerze']","['praktisch', 'elegant', 'hässlich']",1,2.121631800022442,None,,,,,,,,,,,,,,,,,,,,,,,,,,,,,,,,,,,,,,,,,,,,,,,,,,,,,,,,,,,,,,,,,3,2023-11-27_13h52.49.951,watkins1,2023.2.3,99.72754432921793,22,2023-11-27 13h52.58.848451 +0000,
,,,,,,,3,0,3,0,,,,,,,,,,,,,,,,,95.98481890000403,,,,,,,,,,95.97587959998054,96.46695939998608,,,1,1.1735856999875978,,,,,,,,,,,,,,,,,,,,,96.46696990000783,102.47162139997818,Eimer,teuer,"['Eimer', 'teuer']",test_adj,3,"['Rucksack', 'Schlüssel', 'Tasse', 'Eimer', 'Würfel', 'Tasche', 'Blume', 'Fahrrad', 'Trommel', 'Hut', 'Brille', 'Hammer', 'Flasche', 'Socke', 'Schere', 'Kette', 'Kamera', 'Kiste', 'Geige', 'Stift', 'Ring', 'Buch', 'Lampe', 'Uhr', 'Löffel', 'Bürste', 'Telefon', 'Jacke', 'Vase', 'Kerze']","['praktisch', 'elegant', 'hässlich', 'teuer']",1,1.1735856999875978,None,,,,,,,,,,,,,,,,,,,,,,,,,,,,,,,,,,,,,,,,,,,,,,,,,,,,,,,,,,,,,,,,,3,2023-11-27_13h52.49.951,watkins1,2023.2.3,99.72754432921793,22,2023-11-27 13h52.58.848451 +0000,
,,,,,,,4,0,4,0,,,,,,,,,,,,,,,,,102.48108649998903,,,,,,,,,,102.47217079997063,102.96315429999959,,,3,1.3248024000204168,,,,,,,,,,,,,,,,,,,,,102.96316510002362,108.96833900001366,Würfel,klobig,"['Würfel', 'klobig']",restudy,3,"['Rucksack', 'Schlüssel', 'Tasse', 'Eimer', 'Würfel', 'Tasche', 'Blume', 'Fahrrad', 'Trommel', 'Hut', 'Brille', 'Hammer', 'Flasche', 'Socke', 'Schere', 'Kette', 'Kamera', 'Kiste', 'Geige', 'Stift', 'Ring', 'Buch', 'Lampe', 'Uhr', 'Löffel', 'Bürste', 'Telefon', 'Jacke', 'Vase', 'Kerze']","['praktisch', 'elegant', 'hässlich', 'teuer', 'klobig']",3,1.3248024000204168,None,,,,,,,,,,,,,,,,,,,,,,,,,,,,,,,,,,,,,,,,,,,,,,,,,,,,,,,,,,,,,,,,,3,2023-11-27_13h52.49.951,watkins1,2023.2.3,99.72754432921793,22,2023-11-27 13h52.58.848451 +0000,
,,,,,,,5,0,5,0,,,,,,,,,,,,,,,,,108.97789119998924,,,,,,,,,,108.96886929997709,109.45984939998016,,,1,1.4294273999985307,,,,,,,,,,,,,,,,,,,,,109.45986010000343,115.46701349999057,Tasche,rustikal,"['Tasche', 'rustikal']",test_adj,3,"['Rucksack', 'Schlüssel', 'Tasse', 'Eimer', 'Würfel', 'Tasche', 'Blume', 'Fahrrad', 'Trommel', 'Hut', 'Brille', 'Hammer', 'Flasche', 'Socke', 'Schere', 'Kette', 'Kamera', 'Kiste', 'Geige', 'Stift', 'Ring', 'Buch', 'Lampe', 'Uhr', 'Löffel', 'Bürste', 'Telefon', 'Jacke', 'Vase', 'Kerze']","['praktisch', 'elegant', 'hässlich', 'teuer', 'klobig', 'rustikal']",1,1.4294273999985307,None,,,,,,,,,,,,,,,,,,,,,,,,,,,,,,,,,,,,,,,,,,,,,,,,,,,,,,,,,,,,,,,,,3,2023-11-27_13h52.49.951,watkins1,2023.2.3,99.72754432921793,22,2023-11-27 13h52.58.848451 +0000,
,,,,,,,6,0,6,0,,,,,,,,,,,,,,,,,115.47648730000947,,,,,,,,,,115.46754789998522,115.9586677000043,,,1,1.3141476000309922,,,,,,,,,,,,,,,,,,,,,115.95867859997088,121.9692553000059,Blume,hohl,"['Blume', 'hohl']",test_adj,3,"['Rucksack', 'Schlüssel', 'Tasse', 'Eimer', 'Würfel', 'Tasche', 'Blume', 'Fahrrad', 'Trommel', 'Hut', 'Brille', 'Hammer', 'Flasche', 'Socke', 'Schere', 'Kette', 'Kamera', 'Kiste', 'Geige', 'Stift', 'Ring', 'Buch', 'Lampe', 'Uhr', 'Löffel', 'Bürste', 'Telefon', 'Jacke', 'Vase', 'Kerze']","['praktisch', 'elegant', 'hässlich', 'teuer', 'klobig', 'rustikal', 'hohl']",1,1.3141476000309922,None,,,,,,,,,,,,,,,,,,,,,,,,,,,,,,,,,,,,,,,,,,,,,,,,,,,,,,,,,,,,,,,,,3,2023-11-27_13h52.49.951,watkins1,2023.2.3,99.72754432921793,22,2023-11-27 13h52.58.848451 +0000,
,,,,,,,7,0,7,0,,,,,,,,,,,,,,,,,121.97872690000804,,,,,,,,,,121.9697742999997,122.46082540001953,,,1,0.963943200011272,,,,,,,,,,,,,,,,,,,,,122.46083589998307,128.4701293000253,Fahrrad,niedlich,"['Fahrrad', 'niedlich']",test_adj,3,"['Rucksack', 'Schlüssel', 'Tasse', 'Eimer', 'Würfel', 'Tasche', 'Blume', 'Fahrrad', 'Trommel', 'Hut', 'Brille', 'Hammer', 'Flasche', 'Socke', 'Schere', 'Kette', 'Kamera', 'Kiste', 'Geige', 'Stift', 'Ring', 'Buch', 'Lampe', 'Uhr', 'Löffel', 'Bürste', 'Telefon', 'Jacke', 'Vase', 'Kerze']","['praktisch', 'elegant', 'hässlich', 'teuer', 'klobig', 'rustikal', 'hohl', 'niedlich']",1,0.963943200011272,None,,,,,,,,,,,,,,,,,,,,,,,,,,,,,,,,,,,,,,,,,,,,,,,,,,,,,,,,,,,,,,,,,3,2023-11-27_13h52.49.951,watkins1,2023.2.3,99.72754432921793,22,2023-11-27 13h52.58.848451 +0000,
,,,,,,,8,0,8,0,,,,,,,,,,,,,,,,,128.47971520002466,,,,,,,,,,128.470653700002,128.96180819999427,,,2,2.207090900046751,,,,,,,,,,,,,,,,,,,,,128.961818700016,134.96713740000268,Trommel,schmutzig,"['Trommel', 'schmutzig']",restudy,3,"['Rucksack', 'Schlüssel', 'Tasse', 'Eimer', 'Würfel', 'Tasche', 'Blume', 'Fahrrad', 'Trommel', 'Hut', 'Brille', 'Hammer', 'Flasche', 'Socke', 'Schere', 'Kette', 'Kamera', 'Kiste', 'Geige', 'Stift', 'Ring', 'Buch', 'Lampe', 'Uhr', 'Löffel', 'Bürste', 'Telefon', 'Jacke', 'Vase', 'Kerze']","['praktisch', 'elegant', 'hässlich', 'teuer', 'klobig', 'rustikal', 'hohl', 'niedlich', 'schmutzig']",2,2.207090900046751,None,,,,,,,,,,,,,,,,,,,,,,,,,,,,,,,,,,,,,,,,,,,,,,,,,,,,,,,,,,,,,,,,,3,2023-11-27_13h52.49.951,watkins1,2023.2.3,99.72754432921793,22,2023-11-27 13h52.58.848451 +0000,
,,,,,,,9,0,9,0,,,,,,,,,,,,,,,,,134.97672330000205,,,,,,,,,,134.96765549998963,135.45872789999703,,,1,1.582084300054703,,,,,,,,,,,,,,,,,,,,,135.45873840001877,141.46918090002146,Hut,dunkel,"['Hut', 'dunkel']",restudy,3,"['Rucksack', 'Schlüssel', 'Tasse', 'Eimer', 'Würfel', 'Tasche', 'Blume', 'Fahrrad', 'Trommel', 'Hut', 'Brille', 'Hammer', 'Flasche', 'Socke', 'Schere', 'Kette', 'Kamera', 'Kiste', 'Geige', 'Stift', 'Ring', 'Buch', 'Lampe', 'Uhr', 'Löffel', 'Bürste', 'Telefon', 'Jacke', 'Vase', 'Kerze']","['praktisch', 'elegant', 'hässlich', 'teuer', 'klobig', 'rustikal', 'hohl', 'niedlich', 'schmutzig', 'dunkel']",1,1.582084300054703,None,,,,,,,,,,,,,,,,,,,,,,,,,,,,,,,,,,,,,,,,,,,,,,,,,,,,,,,,,,,,,,,,,3,2023-11-27_13h52.49.951,watkins1,2023.2.3,99.72754432921793,22,2023-11-27 13h52.58.848451 +0000,
,,,,,,,10,0,10,0,,,,,,,,,,,,,,,,,141.47866790002445,,,,,,,,,,141.4697011000244,141.96068090002518,,,1,1.3925859000300989,,,,,,,,,,,,,,,,,,,,,141.960691699991,147.96233690000372,Brille,robust,"['Brille', 'robust']",restudy,3,"['Rucksack', 'Schlüssel', 'Tasse', 'Eimer', 'Würfel', 'Tasche', 'Blume', 'Fahrrad', 'Trommel', 'Hut', 'Brille', 'Hammer', 'Flasche', 'Socke', 'Schere', 'Kette', 'Kamera', 'Kiste', 'Geige', 'Stift', 'Ring', 'Buch', 'Lampe', 'Uhr', 'Löffel', 'Bürste', 'Telefon', 'Jacke', 'Vase', 'Kerze']","['praktisch', 'elegant', 'hässlich', 'teuer', 'klobig', 'rustikal', 'hohl', 'niedlich', 'schmutzig', 'dunkel', 'robust']",1,1.3925859000300989,None,,,,,,,,,,,,,,,,,,,,,,,,,,,,,,,,,,,,,,,,,,,,,,,,,,,,,,,,,,,,,,,,,3,2023-11-27_13h52.49.951,watkins1,2023.2.3,99.72754432921793,22,2023-11-27 13h52.58.848451 +0000,
,,,,,,,11,0,11,0,,,,,,,,,,,,,,,,,147.97181780001847,,,,,,,,,,147.96286349999718,148.45577429997502,,,1,1.930019999970682,,,,,,,,,,,,,,,,,,,,,148.45578509999905,154.4612216000096,Hammer,blass,"['Hammer', 'blass']",restudy,3,"['Rucksack', 'Schlüssel', 'Tasse', 'Eimer', 'Würfel', 'Tasche', 'Blume', 'Fahrrad', 'Trommel', 'Hut', 'Brille', 'Hammer', 'Flasche', 'Socke', 'Schere', 'Kette', 'Kamera', 'Kiste', 'Geige', 'Stift', 'Ring', 'Buch', 'Lampe', 'Uhr', 'Löffel', 'Bürste', 'Telefon', 'Jacke', 'Vase', 'Kerze']","['praktisch', 'elegant', 'hässlich', 'teuer', 'klobig', 'rustikal', 'hohl', 'niedlich', 'schmutzig', 'dunkel', 'robust', 'blass']",1,1.930019999970682,None,,,,,,,,,,,,,,,,,,,,,,,,,,,,,,,,,,,,,,,,,,,,,,,,,,,,,,,,,,,,,,,,,3,2023-11-27_13h52.49.951,watkins1,2023.2.3,99.72754432921793,22,2023-11-27 13h52.58.848451 +0000,
,,,,,,,12,0,12,0,,,,,,,,,,,,,,,,,154.4706065999926,,,,,,,,,,154.46174619998783,154.95295289997011,,,3,1.6952677000081167,,,,,,,,,,,,,,,,,,,,,154.95296349999262,160.95388400001684,Flasche,groß,"['Flasche', 'groß']",restudy,3,"['Rucksack', 'Schlüssel', 'Tasse', 'Eimer', 'Würfel', 'Tasche', 'Blume', 'Fahrrad', 'Trommel', 'Hut', 'Brille', 'Hammer', 'Flasche', 'Socke', 'Schere', 'Kette', 'Kamera', 'Kiste', 'Geige', 'Stift', 'Ring', 'Buch', 'Lampe', 'Uhr', 'Löffel', 'Bürste', 'Telefon', 'Jacke', 'Vase', 'Kerze']","['praktisch', 'elegant', 'hässlich', 'teuer', 'klobig', 'rustikal', 'hohl', 'niedlich', 'schmutzig', 'dunkel', 'robust', 'blass', 'groß']",3,1.6952677000081167,None,,,,,,,,,,,,,,,,,,,,,,,,,,,,,,,,,,,,,,,,,,,,,,,,,,,,,,,,,,,,,,,,,3,2023-11-27_13h52.49.951,watkins1,2023.2.3,99.72754432921793,22,2023-11-27 13h52.58.848451 +0000,
,,,,,,,13,0,13,0,,,,,,,,,,,,,,,,,160.96337140002288,,,,,,,,,,160.95440629997756,161.44548260001466,,,3,1.4758975000004284,,,,,,,,,,,,,,,,,,,,,161.44549289997667,167.45386850001523,Socke,nass,"['Socke', 'nass']",test_adj,3,"['Rucksack', 'Schlüssel', 'Tasse', 'Eimer', 'Würfel', 'Tasche', 'Blume', 'Fahrrad', 'Trommel', 'Hut', 'Brille', 'Hammer', 'Flasche', 'Socke', 'Schere', 'Kette', 'Kamera', 'Kiste', 'Geige', 'Stift', 'Ring', 'Buch', 'Lampe', 'Uhr', 'Löffel', 'Bürste', 'Telefon', 'Jacke', 'Vase', 'Kerze']","['praktisch', 'elegant', 'hässlich', 'teuer', 'klobig', 'rustikal', 'hohl', 'niedlich', 'schmutzig', 'dunkel', 'robust', 'blass', 'groß', 'nass']",3,1.4758975000004284,None,,,,,,,,,,,,,,,,,,,,,,,,,,,,,,,,,,,,,,,,,,,,,,,,,,,,,,,,,,,,,,,,,3,2023-11-27_13h52.49.951,watkins1,2023.2.3,99.72754432921793,22,2023-11-27 13h52.58.848451 +0000,
,,,,,,,14,0,14,0,,,,,,,,,,,,,,,,,167.4633465000079,,,,,,,,,,167.4543961000163,167.9453596000094,,,2,1.4795735999941826,,,,,,,,,,,,,,,,,,,,,167.94536999997217,173.9475016000215,Schere,glänzend,"['Schere', 'glänzend']",test_adj,3,"['Rucksack', 'Schlüssel', 'Tasse', 'Eimer', 'Würfel', 'Tasche', 'Blume', 'Fahrrad', 'Trommel', 'Hut', 'Brille', 'Hammer', 'Flasche', 'Socke', 'Schere', 'Kette', 'Kamera', 'Kiste', 'Geige', 'Stift', 'Ring', 'Buch', 'Lampe', 'Uhr', 'Löffel', 'Bürste', 'Telefon', 'Jacke', 'Vase', 'Kerze']","['praktisch', 'elegant', 'hässlich', 'teuer', 'klobig', 'rustikal', 'hohl', 'niedlich', 'schmutzig', 'dunkel', 'robust', 'blass', 'groß', 'nass', 'glänzend']",2,1.4795735999941826,None,,,,,,,,,,,,,,,,,,,,,,,,,,,,,,,,,,,,,,,,,,,,,,,,,,,,,,,,,,,,,,,,,3,2023-11-27_13h52.49.951,watkins1,2023.2.3,99.72754432921793,22,2023-11-27 13h52.58.848451 +0000,
,,,,,,,15,0,15,0,,,,,,,,,,,,,,,,,173.95693540002685,,,,,,,,,,173.94802299997536,174.4390437999973,,,3,1.5133690999937244,,,,,,,,,,,,,,,,,,,,,174.439053900016,180.44289140001638,Kette,schlicht,"['Kette', 'schlicht']",restudy,3,"['Rucksack', 'Schlüssel', 'Tasse', 'Eimer', 'Würfel', 'Tasche', 'Blume', 'Fahrrad', 'Trommel', 'Hut', 'Brille', 'Hammer', 'Flasche', 'Socke', 'Schere', 'Kette', 'Kamera', 'Kiste', 'Geige', 'Stift', 'Ring', 'Buch', 'Lampe', 'Uhr', 'Löffel', 'Bürste', 'Telefon', 'Jacke', 'Vase', 'Kerze']","['praktisch', 'elegant', 'hässlich', 'teuer', 'klobig', 'rustikal', 'hohl', 'niedlich', 'schmutzig', 'dunkel', 'robust', 'blass', 'groß', 'nass', 'glänzend', 'schlicht']",3,1.5133690999937244,None,,,,,,,,,,,,,,,,,,,,,,,,,,,,,,,,,,,,,,,,,,,,,,,,,,,,,,,,,,,,,,,,,3,2023-11-27_13h52.49.951,watkins1,2023.2.3,99.72754432921793,22,2023-11-27 13h52.58.848451 +0000,
,,,,,,,16,0,16,0,,,,,,,,,,,,,,,,,180.45238229999086,,,,,,,,,,180.44340970000485,180.9344429000048,,,2,1.3788919000071473,,,,,,,,,,,,,,,,,,,,,180.9344535000273,186.94306139997207,Kamera,dick,"['Kamera', 'dick']",test_adj,3,"['Rucksack', 'Schlüssel', 'Tasse', 'Eimer', 'Würfel', 'Tasche', 'Blume', 'Fahrrad', 'Trommel', 'Hut', 'Brille', 'Hammer', 'Flasche', 'Socke', 'Schere', 'Kette', 'Kamera', 'Kiste', 'Geige', 'Stift', 'Ring', 'Buch', 'Lampe', 'Uhr', 'Löffel', 'Bürste', 'Telefon', 'Jacke', 'Vase', 'Kerze']","['praktisch', 'elegant', 'hässlich', 'teuer', 'klobig', 'rustikal', 'hohl', 'niedlich', 'schmutzig', 'dunkel', 'robust', 'blass', 'groß', 'nass', 'glänzend', 'schlicht', 'dick']",2,1.3788919000071473,None,,,,,,,,,,,,,,,,,,,,,,,,,,,,,,,,,,,,,,,,,,,,,,,,,,,,,,,,,,,,,,,,,3,2023-11-27_13h52.49.951,watkins1,2023.2.3,99.72754432921793,22,2023-11-27 13h52.58.848451 +0000,
,,,,,,,17,0,17,0,,,,,,,,,,,,,,,,,186.95250810001744,,,,,,,,,,186.94358850002754,187.43454440002097,,,1,1.1026579000172205,,,,,,,,,,,,,,,,,,,,,187.4345540999784,193.43638379999902,Kiste,strahlend,"['Kiste', 'strahlend']",restudy,3,"['Rucksack', 'Schlüssel', 'Tasse', 'Eimer', 'Würfel', 'Tasche', 'Blume', 'Fahrrad', 'Trommel', 'Hut', 'Brille', 'Hammer', 'Flasche', 'Socke', 'Schere', 'Kette', 'Kamera', 'Kiste', 'Geige', 'Stift', 'Ring', 'Buch', 'Lampe', 'Uhr', 'Löffel', 'Bürste', 'Telefon', 'Jacke', 'Vase', 'Kerze']","['praktisch', 'elegant', 'hässlich', 'teuer', 'klobig', 'rustikal', 'hohl', 'niedlich', 'schmutzig', 'dunkel', 'robust', 'blass', 'groß', 'nass', 'glänzend', 'schlicht', 'dick', 'strahlend']",1,1.1026579000172205,None,,,,,,,,,,,,,,,,,,,,,,,,,,,,,,,,,,,,,,,,,,,,,,,,,,,,,,,,,,,,,,,,,3,2023-11-27_13h52.49.951,watkins1,2023.2.3,99.72754432921793,22,2023-11-27 13h52.58.848451 +0000,
,,,,,,,18,0,18,0,,,,,,,,,,,,,,,,,193.44580859999405,,,,,,,,,,193.4369025999913,193.92831270000897,,,1,1.1837529000476934,,,,,,,,,,,,,,,,,,,,,193.92832339997403,199.9357548999833,Geige,sportlich,"['Geige', 'sportlich']",restudy,3,"['Rucksack', 'Schlüssel', 'Tasse', 'Eimer', 'Würfel', 'Tasche', 'Blume', 'Fahrrad', 'Trommel', 'Hut', 'Brille', 'Hammer', 'Flasche', 'Socke', 'Schere', 'Kette', 'Kamera', 'Kiste', 'Geige', 'Stift', 'Ring', 'Buch', 'Lampe', 'Uhr', 'Löffel', 'Bürste', 'Telefon', 'Jacke', 'Vase', 'Kerze']","['praktisch', 'elegant', 'hässlich', 'teuer', 'klobig', 'rustikal', 'hohl', 'niedlich', 'schmutzig', 'dunkel', 'robust', 'blass', 'groß', 'nass', 'glänzend', 'schlicht', 'dick', 'strahlend', 'sportlich']",1,1.1837529000476934,None,,,,,,,,,,,,,,,,,,,,,,,,,,,,,,,,,,,,,,,,,,,,,,,,,,,,,,,,,,,,,,,,,3,2023-11-27_13h52.49.951,watkins1,2023.2.3,99.72754432921793,22,2023-11-27 13h52.58.848451 +0000,
,,,,,,,19,0,19,0,,,,,,,,,,,,,,,,,199.9452010000241,,,,,,,,,,199.93630020000273,200.42719610000495,,,1,1.2539235000149347,,,,,,,,,,,,,,,,,,,,,200.42720620002365,206.4291786000249,Stift,flauschig,"['Stift', 'flauschig']",restudy,3,"['Rucksack', 'Schlüssel', 'Tasse', 'Eimer', 'Würfel', 'Tasche', 'Blume', 'Fahrrad', 'Trommel', 'Hut', 'Brille', 'Hammer', 'Flasche', 'Socke', 'Schere', 'Kette', 'Kamera', 'Kiste', 'Geige', 'Stift', 'Ring', 'Buch', 'Lampe', 'Uhr', 'Löffel', 'Bürste', 'Telefon', 'Jacke', 'Vase', 'Kerze']","['praktisch', 'elegant', 'hässlich', 'teuer', 'klobig', 'rustikal', 'hohl', 'niedlich', 'schmutzig', 'dunkel', 'robust', 'blass', 'groß', 'nass', 'glänzend', 'schlicht', 'dick', 'strahlend', 'sportlich', 'flauschig']",1,1.2539235000149347,None,,,,,,,,,,,,,,,,,,,,,,,,,,,,,,,,,,,,,,,,,,,,,,,,,,,,,,,,,,,,,,,,,3,2023-11-27_13h52.49.951,watkins1,2023.2.3,99.72754432921793,22,2023-11-27 13h52.58.848451 +0000,
,,,,,,,20,0,20,0,,,,,,,,,,,,,,,,,206.4387693000026,,,,,,,,,,206.4297131000203,206.92071869998472,,,1,1.1444266000180505,,,,,,,,,,,,,,,,,,,,,206.9207296000095,212.9294574999949,Ring,lustig,"['Ring', 'lustig']",test_adj,3,"['Rucksack', 'Schlüssel', 'Tasse', 'Eimer', 'Würfel', 'Tasche', 'Blume', 'Fahrrad', 'Trommel', 'Hut', 'Brille', 'Hammer', 'Flasche', 'Socke', 'Schere', 'Kette', 'Kamera', 'Kiste', 'Geige', 'Stift', 'Ring', 'Buch', 'Lampe', 'Uhr', 'Löffel', 'Bürste', 'Telefon', 'Jacke', 'Vase', 'Kerze']","['praktisch', 'elegant', 'hässlich', 'teuer', 'klobig', 'rustikal', 'hohl', 'niedlich', 'schmutzig', 'dunkel', 'robust', 'blass', 'groß', 'nass', 'glänzend', 'schlicht', 'dick', 'strahlend', 'sportlich', 'flauschig', 'lustig']",1,1.1444266000180505,None,,,,,,,,,,,,,,,,,,,,,,,,,,,,,,,,,,,,,,,,,,,,,,,,,,,,,,,,,,,,,,,,,3,2023-11-27_13h52.49.951,watkins1,2023.2.3,99.72754432921793,22,2023-11-27 13h52.58.848451 +0000,
,,,,,,,21,0,21,0,,,,,,,,,,,,,,,,,212.93901219998952,,,,,,,,,,212.92997800000012,213.42120059998706,,,1,2.1321445999783464,,,,,,,,,,,,,,,,,,,,,213.42121130001033,219.42955539998366,Buch,bunt,"['Buch', 'bunt']",test_adj,3,"['Rucksack', 'Schlüssel', 'Tasse', 'Eimer', 'Würfel', 'Tasche', 'Blume', 'Fahrrad', 'Trommel', 'Hut', 'Brille', 'Hammer', 'Flasche', 'Socke', 'Schere', 'Kette', 'Kamera', 'Kiste', 'Geige', 'Stift', 'Ring', 'Buch', 'Lampe', 'Uhr', 'Löffel', 'Bürste', 'Telefon', 'Jacke', 'Vase', 'Kerze']","['praktisch', 'elegant', 'hässlich', 'teuer', 'klobig', 'rustikal', 'hohl', 'niedlich', 'schmutzig', 'dunkel', 'robust', 'blass', 'groß', 'nass', 'glänzend', 'schlicht', 'dick', 'strahlend', 'sportlich', 'flauschig', 'lustig', 'bunt']",1,2.1321445999783464,None,,,,,,,,,,,,,,,,,,,,,,,,,,,,,,,,,,,,,,,,,,,,,,,,,,,,,,,,,,,,,,,,,3,2023-11-27_13h52.49.951,watkins1,2023.2.3,99.72754432921793,22,2023-11-27 13h52.58.848451 +0000,
,,,,,,,22,0,22,0,,,,,,,,,,,,,,,,,219.43903309997404,,,,,,,,,,219.4300822999794,219.92091470002197,,,1,2.2796890999889,,,,,,,,,,,,,,,,,,,,,219.92092579999007,225.92165049997857,Lampe,kurz,"['Lampe', 'kurz']",test_adj,3,"['Rucksack', 'Schlüssel', 'Tasse', 'Eimer', 'Würfel', 'Tasche', 'Blume', 'Fahrrad', 'Trommel', 'Hut', 'Brille', 'Hammer', 'Flasche', 'Socke', 'Schere', 'Kette', 'Kamera', 'Kiste', 'Geige', 'Stift', 'Ring', 'Buch', 'Lampe', 'Uhr', 'Löffel', 'Bürste', 'Telefon', 'Jacke', 'Vase', 'Kerze']","['praktisch', 'elegant', 'hässlich', 'teuer', 'klobig', 'rustikal', 'hohl', 'niedlich', 'schmutzig', 'dunkel', 'robust', 'blass', 'groß', 'nass', 'glänzend', 'schlicht', 'dick', 'strahlend', 'sportlich', 'flauschig', 'lustig', 'bunt', 'kurz']",1,2.2796890999889,None,,,,,,,,,,,,,,,,,,,,,,,,,,,,,,,,,,,,,,,,,,,,,,,,,,,,,,,,,,,,,,,,,3,2023-11-27_13h52.49.951,watkins1,2023.2.3,99.72754432921793,22,2023-11-27 13h52.58.848451 +0000,
,,,,,,,23,0,23,0,,,,,,,,,,,,,,,,,225.93112459999975,,,,,,,,,,225.92217560001882,226.41316170000937,,,2,4.523181200027466,,,,,,,,,,,,,,,,,,,,,226.4131721999729,232.41632199997548,Uhr,biegsam,"['Uhr', 'biegsam']",restudy,3,"['Rucksack', 'Schlüssel', 'Tasse', 'Eimer', 'Würfel', 'Tasche', 'Blume', 'Fahrrad', 'Trommel', 'Hut', 'Brille', 'Hammer', 'Flasche', 'Socke', 'Schere', 'Kette', 'Kamera', 'Kiste', 'Geige', 'Stift', 'Ring', 'Buch', 'Lampe', 'Uhr', 'Löffel', 'Bürste', 'Telefon', 'Jacke', 'Vase', 'Kerze']","['praktisch', 'elegant', 'hässlich', 'teuer', 'klobig', 'rustikal', 'hohl', 'niedlich', 'schmutzig', 'dunkel', 'robust', 'blass', 'groß', 'nass', 'glänzend', 'schlicht', 'dick', 'strahlend', 'sportlich', 'flauschig', 'lustig', 'bunt', 'kurz', 'biegsam']",2,4.523181200027466,None,,,,,,,,,,,,,,,,,,,,,,,,,,,,,,,,,,,,,,,,,,,,,,,,,,,,,,,,,,,,,,,,,3,2023-11-27_13h52.49.951,watkins1,2023.2.3,99.72754432921793,22,2023-11-27 13h52.58.848451 +0000,
,,,,,,,24,0,24,0,,,,,,,,,,,,,,,,,232.42578990000766,,,,,,,,,,232.4168562000268,232.90799049998168,,,3,1.3399789999821223,,,,,,,,,,,,,,,,,,,,,232.90800150000723,238.91360369999893,Löffel,breit,"['Löffel', 'breit']",restudy,3,"['Rucksack', 'Schlüssel', 'Tasse', 'Eimer', 'Würfel', 'Tasche', 'Blume', 'Fahrrad', 'Trommel', 'Hut', 'Brille', 'Hammer', 'Flasche', 'Socke', 'Schere', 'Kette', 'Kamera', 'Kiste', 'Geige', 'Stift', 'Ring', 'Buch', 'Lampe', 'Uhr', 'Löffel', 'Bürste', 'Telefon', 'Jacke', 'Vase', 'Kerze']","['praktisch', 'elegant', 'hässlich', 'teuer', 'klobig', 'rustikal', 'hohl', 'niedlich', 'schmutzig', 'dunkel', 'robust', 'blass', 'groß', 'nass', 'glänzend', 'schlicht', 'dick', 'strahlend', 'sportlich', 'flauschig', 'lustig', 'bunt', 'kurz', 'biegsam', 'breit']",3,1.3399789999821223,None,,,,,,,,,,,,,,,,,,,,,,,,,,,,,,,,,,,,,,,,,,,,,,,,,,,,,,,,,,,,,,,,,3,2023-11-27_13h52.49.951,watkins1,2023.2.3,99.72754432921793,22,2023-11-27 13h52.58.848451 +0000,
,,,,,,,25,0,25,0,,,,,,,,,,,,,,,,,238.92308729997603,,,,,,,,,,238.91413679998368,239.40513759996975,,,1,1.5959580999915488,,,,,,,,,,,,,,,,,,,,,239.40514739998616,245.41539249999914,Bürste,hübsch,"['Bürste', 'hübsch']",test_adj,3,"['Rucksack', 'Schlüssel', 'Tasse', 'Eimer', 'Würfel', 'Tasche', 'Blume', 'Fahrrad', 'Trommel', 'Hut', 'Brille', 'Hammer', 'Flasche', 'Socke', 'Schere', 'Kette', 'Kamera', 'Kiste', 'Geige', 'Stift', 'Ring', 'Buch', 'Lampe', 'Uhr', 'Löffel', 'Bürste', 'Telefon', 'Jacke', 'Vase', 'Kerze']","['praktisch', 'elegant', 'hässlich', 'teuer', 'klobig', 'rustikal', 'hohl', 'niedlich', 'schmutzig', 'dunkel', 'robust', 'blass', 'groß', 'nass', 'glänzend', 'schlicht', 'dick', 'strahlend', 'sportlich', 'flauschig', 'lustig', 'bunt', 'kurz', 'biegsam', 'breit', 'hübsch']",1,1.5959580999915488,None,,,,,,,,,,,,,,,,,,,,,,,,,,,,,,,,,,,,,,,,,,,,,,,,,,,,,,,,,,,,,,,,,3,2023-11-27_13h52.49.951,watkins1,2023.2.3,99.72754432921793,22,2023-11-27 13h52.58.848451 +0000,
,,,,,,,26,0,26,0,,,,,,,,,,,,,,,,,245.42488299997058,,,,,,,,,,245.41593399998965,245.90692649997072,,,3,1.206402399984654,,,,,,,,,,,,,,,,,,,,,245.9069373999955,251.909182399977,Telefon,neu,"['Telefon', 'neu']",restudy,3,"['Rucksack', 'Schlüssel', 'Tasse', 'Eimer', 'Würfel', 'Tasche', 'Blume', 'Fahrrad', 'Trommel', 'Hut', 'Brille', 'Hammer', 'Flasche', 'Socke', 'Schere', 'Kette', 'Kamera', 'Kiste', 'Geige', 'Stift', 'Ring', 'Buch', 'Lampe', 'Uhr', 'Löffel', 'Bürste', 'Telefon', 'Jacke', 'Vase', 'Kerze']","['praktisch', 'elegant', 'hässlich', 'teuer', 'klobig', 'rustikal', 'hohl', 'niedlich', 'schmutzig', 'dunkel', 'robust', 'blass', 'groß', 'nass', 'glänzend', 'schlicht', 'dick', 'strahlend', 'sportlich', 'flauschig', 'lustig', 'bunt', 'kurz', 'biegsam', 'breit', 'hübsch', 'neu']",3,1.206402399984654,None,,,,,,,,,,,,,,,,,,,,,,,,,,,,,,,,,,,,,,,,,,,,,,,,,,,,,,,,,,,,,,,,,3,2023-11-27_13h52.49.951,watkins1,2023.2.3,99.72754432921793,22,2023-11-27 13h52.58.848451 +0000,
,,,,,,,27,0,27,0,,,,,,,,,,,,,,,,,251.91865469998447,,,,,,,,,,251.90970870002639,252.4007227999973,,,3,1.3180146999657154,,,,,,,,,,,,,,,,,,,,,252.400732900016,258.4040597999701,Jacke,sauber,"['Jacke', 'sauber']",test_adj,3,"['Rucksack', 'Schlüssel', 'Tasse', 'Eimer', 'Würfel', 'Tasche', 'Blume', 'Fahrrad', 'Trommel', 'Hut', 'Brille', 'Hammer', 'Flasche', 'Socke', 'Schere', 'Kette', 'Kamera', 'Kiste', 'Geige', 'Stift', 'Ring', 'Buch', 'Lampe', 'Uhr', 'Löffel', 'Bürste', 'Telefon', 'Jacke', 'Vase', 'Kerze']","['praktisch', 'elegant', 'hässlich', 'teuer', 'klobig', 'rustikal', 'hohl', 'niedlich', 'schmutzig', 'dunkel', 'robust', 'blass', 'groß', 'nass', 'glänzend', 'schlicht', 'dick', 'strahlend', 'sportlich', 'flauschig', 'lustig', 'bunt', 'kurz', 'biegsam', 'breit', 'hübsch', 'neu', 'sauber']",3,1.3180146999657154,None,,,,,,,,,,,,,,,,,,,,,,,,,,,,,,,,,,,,,,,,,,,,,,,,,,,,,,,,,,,,,,,,,3,2023-11-27_13h52.49.951,watkins1,2023.2.3,99.72754432921793,22,2023-11-27 13h52.58.848451 +0000,
,,,,,,,28,0,28,0,,,,,,,,,,,,,,,,,258.41349700000137,,,,,,,,,,258.40458809997654,258.895596700022,,,2,1.5207899000379257,,,,,,,,,,,,,,,,,,,,,258.8956070999848,264.90604550001444,Vase,gestreift,"['Vase', 'gestreift']",restudy,3,"['Rucksack', 'Schlüssel', 'Tasse', 'Eimer', 'Würfel', 'Tasche', 'Blume', 'Fahrrad', 'Trommel', 'Hut', 'Brille', 'Hammer', 'Flasche', 'Socke', 'Schere', 'Kette', 'Kamera', 'Kiste', 'Geige', 'Stift', 'Ring', 'Buch', 'Lampe', 'Uhr', 'Löffel', 'Bürste', 'Telefon', 'Jacke', 'Vase', 'Kerze']","['praktisch', 'elegant', 'hässlich', 'teuer', 'klobig', 'rustikal', 'hohl', 'niedlich', 'schmutzig', 'dunkel', 'robust', 'blass', 'groß', 'nass', 'glänzend', 'schlicht', 'dick', 'strahlend', 'sportlich', 'flauschig', 'lustig', 'bunt', 'kurz', 'biegsam', 'breit', 'hübsch', 'neu', 'sauber', 'gestreift']",2,1.5207899000379257,None,,,,,,,,,,,,,,,,,,,,,,,,,,,,,,,,,,,,,,,,,,,,,,,,,,,,,,,,,,,,,,,,,3,2023-11-27_13h52.49.951,watkins1,2023.2.3,99.72754432921793,22,2023-11-27 13h52.58.848451 +0000,
,,,,,,,29,0,29,0,,,,,,,,,,,,,,,,,264.91551850002725,,,,,,,,,,264.90658000000985,265.3975288000074,,,1,2.1314406000310555,,,,,,,,,,,,,,,,,,,,,265.3975391999702,271.4034975999966,Kerze,krumm,"['Kerze', 'krumm']",restudy,3,"['Rucksack', 'Schlüssel', 'Tasse', 'Eimer', 'Würfel', 'Tasche', 'Blume', 'Fahrrad', 'Trommel', 'Hut', 'Brille', 'Hammer', 'Flasche', 'Socke', 'Schere', 'Kette', 'Kamera', 'Kiste', 'Geige', 'Stift', 'Ring', 'Buch', 'Lampe', 'Uhr', 'Löffel', 'Bürste', 'Telefon', 'Jacke', 'Vase', 'Kerze']","['praktisch', 'elegant', 'hässlich', 'teuer', 'klobig', 'rustikal', 'hohl', 'niedlich', 'schmutzig', 'dunkel', 'robust', 'blass', 'groß', 'nass', 'glänzend', 'schlicht', 'dick', 'strahlend', 'sportlich', 'flauschig', 'lustig', 'bunt', 'kurz', 'biegsam', 'breit', 'hübsch', 'neu', 'sauber', 'gestreift', 'krumm']",1,2.1314406000310555,None,,,,,,,,,,,,,,,,,,,,,,,,,,,,,,,,,,,,,,,,,,,,,,,,,,,,,,,,,,,,,,,,,3,2023-11-27_13h52.49.951,watkins1,2023.2.3,99.72754432921793,22,2023-11-27 13h52.58.848451 +0000,
,,,,,,,,,,,0,0,0,0,,,,,,,,,,,,,271.41293900000164,,,,,,,,,,271.40435289999004,271.8950499999919,,,[],[],,,,,,,,,,,praktisch,None,None,,,,,,,,,,Tasche,rustikal,"['Tasche', 'rustikal']",test_adj,3,,,,,,271.40427810000256,271.40432620001957,"['Tasche', 'Jacke', 'Rucksack', 'Bürste', 'Schlüssel', 'Flasche', 'Ring', 'Lampe', 'Kiste', 'Stift', 'Vase', 'Brille', 'Buch', 'Löffel', 'Schere', 'Geige', 'Kerze', 'Uhr', 'Telefon', 'Würfel', 'Blume', 'Fahrrad', 'Tasse', 'Kette', 'Eimer', 'Trommel', 'Socke', 'Hammer', 'Hut', 'Kamera']",271.8950603000121,271.89784930000314,None,271.8980307999882,271.9005590999732,None,271.9007171000121,271.9035077000153,None,271.9036663000006,0,277.90929280000273,277.9093065999914,277.91070230002515,,,,,,,,,,,,,,,,,,,,,,,,,,,,,,,,,,,,,,,,,,,,,,,,3,2023-11-27_13h52.49.951,watkins1,2023.2.3,99.72754432921793,22,2023-11-27 13h52.58.848451 +0000,
,,,,,,,,,,,1,0,1,0,,,,,,,,,,,,,277.91909300000407,,,,,,,,,,277.9109957999899,278.4012843000237,,,[],[],,,,,,,,,,,sauber,None,None,,,,,,,,,,Jacke,sauber,"['Jacke', 'sauber']",test_adj,3,,,,,,277.9109263999853,277.91096539999126,"['Tasche', 'Jacke', 'Rucksack', 'Bürste', 'Schlüssel', 'Flasche', 'Ring', 'Lampe', 'Kiste', 'Stift', 'Vase', 'Brille', 'Buch', 'Löffel', 'Schere', 'Geige', 'Kerze', 'Uhr', 'Telefon', 'Würfel', 'Blume', 'Fahrrad', 'Tasse', 'Kette', 'Eimer', 'Trommel', 'Socke', 'Hammer', 'Hut', 'Kamera']",278.40129419998266,278.40403600002173,None,278.40415989997564,278.40682630002266,None,278.4069378999993,278.4095134999952,None,278.4096228000126,0,284.41512700001476,284.41514100000495,284.4164372999803,,,,,,,,,,,,,,,,,,,,,,,,,,,,,,,,,,,,,,,,,,,,,,,,3,2023-11-27_13h52.49.951,watkins1,2023.2.3,99.72754432921793,22,2023-11-27 13h52.58.848451 +0000,
,,,,,,,,,,,2,0,2,0,,,,,,,,,,,,,284.42492989997845,,,,,,,,,,284.4167273999774,284.9069911999977,,,[],[],,,,,,,,,,,praktisch,None,None,,,,,,,,,,Rucksack,praktisch,"['Rucksack', 'praktisch']",test_adj,3,,,,,,284.4166592999827,284.41669909999473,"['Tasche', 'Jacke', 'Rucksack', 'Bürste', 'Schlüssel', 'Flasche', 'Ring', 'Lampe', 'Kiste', 'Stift', 'Vase', 'Brille', 'Buch', 'Löffel', 'Schere', 'Geige', 'Kerze', 'Uhr', 'Telefon', 'Würfel', 'Blume', 'Fahrrad', 'Tasse', 'Kette', 'Eimer', 'Trommel', 'Socke', 'Hammer', 'Hut', 'Kamera']",284.90700230002403,284.9097251999774,None,284.9098491999903,284.9127262000111,None,284.9128354000277,284.91538159997435,None,284.91548869997496,0,290.92059729999164,290.92061149998335,290.9219725999865,,,,,,,,,,,,,,,,,,,,,,,,,,,,,,,,,,,,,,,,,,,,,,,,3,2023-11-27_13h52.49.951,watkins1,2023.2.3,99.72754432921793,22,2023-11-27 13h52.58.848451 +0000,
,,,,,,,,,,,3,0,3,0,,,,,,,,,,,,,290.93038069998147,,,,,,,,,,290.9222675000201,291.412427800009,,,[],[],,,,,,,,,,,schön,None,None,,,,,,,,,,Bürste,hübsch,"['Bürste', 'hübsch']",test_adj,3,,,,,,290.922197900014,290.92223919997923,"['Tasche', 'Jacke', 'Rucksack', 'Bürste', 'Schlüssel', 'Flasche', 'Ring', 'Lampe', 'Kiste', 'Stift', 'Vase', 'Brille', 'Buch', 'Löffel', 'Schere', 'Geige', 'Kerze', 'Uhr', 'Telefon', 'Würfel', 'Blume', 'Fahrrad', 'Tasse', 'Kette', 'Eimer', 'Trommel', 'Socke', 'Hammer', 'Hut', 'Kamera']",291.4124377000262,291.4151890000212,None,291.4153114000219,291.41790830000537,None,291.41801929997746,291.42060989997117,None,291.42071779997787,0,297.42617310001515,297.42618730000686,297.4275915999897,,,,,,,,,,,,,,,,,,,,,,,,,,,,,,,,,,,,,,,,,,,,,,,,3,2023-11-27_13h52.49.951,watkins1,2023.2.3,99.72754432921793,22,2023-11-27 13h52.58.848451 +0000,
,,,,,,,,,,,4,0,4,0,,,,,,,,,,,,,297.4359706999967,,,,,,,,,,297.427885800018,297.9181222000043,,,[],[],,,,,,,,,,,glänzend,None,None,,,,,,,,,,Schlüssel,elegant,"['Schlüssel', 'elegant']",test_adj,3,,,,,,297.427815300005,297.4278574999771,"['Tasche', 'Jacke', 'Rucksack', 'Bürste', 'Schlüssel', 'Flasche', 'Ring', 'Lampe', 'Kiste', 'Stift', 'Vase', 'Brille', 'Buch', 'Löffel', 'Schere', 'Geige', 'Kerze', 'Uhr', 'Telefon', 'Würfel', 'Blume', 'Fahrrad', 'Tasse', 'Kette', 'Eimer', 'Trommel', 'Socke', 'Hammer', 'Hut', 'Kamera']",297.918132300023,297.920887699991,None,297.92101180000464,297.92360629996983,None,297.92371569998795,297.92632470000535,None,297.9264333000174,0,303.9316939000273,303.9317074000137,303.9330215000082,,,,,,,,,,,,,,,,,,,,,,,,,,,,,,,,,,,,,,,,,,,,,,,,3,2023-11-27_13h52.49.951,watkins1,2023.2.3,99.72754432921793,22,2023-11-27 13h52.58.848451 +0000,
,,,,,,,,,,,5,0,5,0,,,,,,,,,,,,,303.9414847000153,,,,,,,,,,303.9333145999699,304.4235854999861,,,[],[],,,,,,,,,,,,None,None,,,,,,,,,,Flasche,groß,"['Flasche', 'groß']",restudy,3,,,,,,303.9332408999908,303.9332839999697,"['Tasche', 'Jacke', 'Rucksack', 'Bürste', 'Schlüssel', 'Flasche', 'Ring', 'Lampe', 'Kiste', 'Stift', 'Vase', 'Brille', 'Buch', 'Löffel', 'Schere', 'Geige', 'Kerze', 'Uhr', 'Telefon', 'Würfel', 'Blume', 'Fahrrad', 'Tasse', 'Kette', 'Eimer', 'Trommel', 'Socke', 'Hammer', 'Hut', 'Kamera']",304.42359570000554,304.4263286999776,None,304.42645279999124,310.4362719000201,3,310.43665490002604,310.4392224000185,None,310.43933530000504,,310.4408325999975,310.4408442999702,310.44187290000264,3.3581554000265896,None,,,,,,,,,,,,,,,,,,,,,,,,,,,,,,,,,,,,,,,,,,,,,,3,2023-11-27_13h52.49.951,watkins1,2023.2.3,99.72754432921793,22,2023-11-27 13h52.58.848451 +0000,
,,,,,,,,,,,6,0,6,0,,,,,,,,,,,,,310.4457615999854,,,,,,,,,,310.44215429999167,310.93787710001925,,,[],[],,,,,,,,,,,te,None,None,,,,,,,,,,Ring,lustig,"['Ring', 'lustig']",test_adj,3,,,,,,310.4420896000229,310.44212770002196,"['Tasche', 'Jacke', 'Rucksack', 'Bürste', 'Schlüssel', 'Flasche', 'Ring', 'Lampe', 'Kiste', 'Stift', 'Vase', 'Brille', 'Buch', 'Löffel', 'Schere', 'Geige', 'Kerze', 'Uhr', 'Telefon', 'Würfel', 'Blume', 'Fahrrad', 'Tasse', 'Kette', 'Eimer', 'Trommel', 'Socke', 'Hammer', 'Hut', 'Kamera']",310.9378880999866,310.94033519999357,None,310.94045819999883,310.9417705999804,None,310.94188320002286,310.9431779999868,None,310.9432858999935,0,316.945447599981,316.94546139996964,316.9467074999702,,,,,,,,,,,,,,,,,,,,,,,,,,,,,,,,,,,,,,,,,,,,,,,,3,2023-11-27_13h52.49.951,watkins1,2023.2.3,99.72754432921793,22,2023-11-27 13h52.58.848451 +0000,
,,,,,,,,,,,7,0,7,0,,,,,,,,,,,,,316.9552087999764,,,,,,,,,,316.9469976000255,317.43728850001935,,,[],[],,,,,,,,,,,kurz,None,None,,,,,,,,,,Lampe,kurz,"['Lampe', 'kurz']",test_adj,3,,,,,,316.94693099998403,316.94696929998463,"['Tasche', 'Jacke', 'Rucksack', 'Bürste', 'Schlüssel', 'Flasche', 'Ring', 'Lampe', 'Kiste', 'Stift', 'Vase', 'Brille', 'Buch', 'Löffel', 'Schere', 'Geige', 'Kerze', 'Uhr', 'Telefon', 'Würfel', 'Blume', 'Fahrrad', 'Tasse', 'Kette', 'Eimer', 'Trommel', 'Socke', 'Hammer', 'Hut', 'Kamera']",317.4372989999829,317.43997040000977,None,317.44009410002036,317.44260319997557,None,317.44271269999444,317.44523239997216,None,317.445341499988,0,323.4504358000122,323.45044909999706,323.45160799997393,,,,,,,,,,,,,,,,,,,,,,,,,,,,,,,,,,,,,,,,,,,,,,,,3,2023-11-27_13h52.49.951,watkins1,2023.2.3,99.72754432921793,22,2023-11-27 13h52.58.848451 +0000,
,,,,,,,,,,,8,0,8,0,,,,,,,,,,,,,323.46020149998367,,,,,,,,,,323.4518969000201,323.94239209999796,,,[],[],,,,,,,,,,,,None,None,,,,,,,,,,Kiste,strahlend,"['Kiste', 'strahlend']",restudy,3,,,,,,323.45182919997023,323.4518683999777,"['Tasche', 'Jacke', 'Rucksack', 'Bürste', 'Schlüssel', 'Flasche', 'Ring', 'Lampe', 'Kiste', 'Stift', 'Vase', 'Brille', 'Buch', 'Löffel', 'Schere', 'Geige', 'Kerze', 'Uhr', 'Telefon', 'Würfel', 'Blume', 'Fahrrad', 'Tasse', 'Kette', 'Eimer', 'Trommel', 'Socke', 'Hammer', 'Hut', 'Kamera']",323.94240220001666,323.9449550000136,None,323.94507850002265,329.94942329998594,1,329.9497226999956,329.9524879999808,None,329.9526005000225,,329.9540732000023,329.9540845999727,329.95531889999984,3.8157777999877,None,,,,,,,,,,,,,,,,,,,,,,,,,,,,,,,,,,,,,,,,,,,,,,3,2023-11-27_13h52.49.951,watkins1,2023.2.3,99.72754432921793,22,2023-11-27 13h52.58.848451 +0000,
,,,,,,,,,,,9,0,9,0,,,,,,,,,,,,,329.95889339997666,,,,,,,,,,329.9555998999858,330.4509513999801,,,[],[],,,,,,,,,,,,None,None,,,,,,,,,,Stift,flauschig,"['Stift', 'flauschig']",restudy,3,,,,,,329.95553540001856,329.95557350001764,"['Tasche', 'Jacke', 'Rucksack', 'Bürste', 'Schlüssel', 'Flasche', 'Ring', 'Lampe', 'Kiste', 'Stift', 'Vase', 'Brille', 'Buch', 'Löffel', 'Schere', 'Geige', 'Kerze', 'Uhr', 'Telefon', 'Würfel', 'Blume', 'Fahrrad', 'Tasse', 'Kette', 'Eimer', 'Trommel', 'Socke', 'Hammer', 'Hut', 'Kamera']",330.450960999995,330.4538403999759,None,330.4539626999758,336.4608487000223,1,336.4611421999871,336.463865800004,None,336.46397919999436,,336.4651343000005,336.46514579997165,336.4664282000158,0.9310270000132732,None,,,,,,,,,,,,,,,,,,,,,,,,,,,,,,,,,,,,,,,,,,,,,,3,2023-11-27_13h52.49.951,watkins1,2023.2.3,99.72754432921793,22,2023-11-27 13h52.58.848451 +0000,
,,,,,,,,,,,10,0,10,0,,,,,,,,,,,,,336.4704210999771,,,,,,,,,,336.46671339997556,336.9625550999772,,,[],[],,,,,,,,,,,,None,None,,,,,,,,,,Vase,gestreift,"['Vase', 'gestreift']",restudy,3,,,,,,336.46664820000296,336.466685899999,"['Tasche', 'Jacke', 'Rucksack', 'Bürste', 'Schlüssel', 'Flasche', 'Ring', 'Lampe', 'Kiste', 'Stift', 'Vase', 'Brille', 'Buch', 'Löffel', 'Schere', 'Geige', 'Kerze', 'Uhr', 'Telefon', 'Würfel', 'Blume', 'Fahrrad', 'Tasse', 'Kette', 'Eimer', 'Trommel', 'Socke', 'Hammer', 'Hut', 'Kamera']",336.9625655999989,336.9652327999938,None,336.96535690000746,342.96890019997954,2,342.96919670002535,342.9717932000058,None,342.97190449998016,,342.97292730002664,342.9729389999993,342.974165600026,1.5157357000280172,None,,,,,,,,,,,,,,,,,,,,,,,,,,,,,,,,,,,,,,,,,,,,,,3,2023-11-27_13h52.49.951,watkins1,2023.2.3,99.72754432921793,22,2023-11-27 13h52.58.848451 +0000,
,,,,,,,,,,,11,0,11,0,,,,,,,,,,,,,342.97838480002247,,,,,,,,,,342.97444929997437,343.4705133999814,,,[],[],,,,,,,,,,,,None,None,,,,,,,,,,Brille,robust,"['Brille', 'robust']",restudy,3,,,,,,342.97438470000634,342.9744226000039,"['Tasche', 'Jacke', 'Rucksack', 'Bürste', 'Schlüssel', 'Flasche', 'Ring', 'Lampe', 'Kiste', 'Stift', 'Vase', 'Brille', 'Buch', 'Löffel', 'Schere', 'Geige', 'Kerze', 'Uhr', 'Telefon', 'Würfel', 'Blume', 'Fahrrad', 'Tasse', 'Kette', 'Eimer', 'Trommel', 'Socke', 'Hammer', 'Hut', 'Kamera']",343.47052370000165,343.4734033999848,None,343.47353040002054,349.48004769999534,1,349.4803489000187,349.4830055999919,None,349.48311670002295,,349.48427600000286,349.4842875999748,349.48544730001595,1.295562900020741,None,,,,,,,,,,,,,,,,,,,,,,,,,,,,,,,,,,,,,,,,,,,,,,3,2023-11-27_13h52.49.951,watkins1,2023.2.3,99.72754432921793,22,2023-11-27 13h52.58.848451 +0000,
,,,,,,,,,,,12,0,12,0,,,,,,,,,,,,,349.4895294000162,,,,,,,,,,349.4857423999929,349.9816753999912,,,[],[],,,,,,,,,,,bunt,None,None,,,,,,,,,,Buch,bunt,"['Buch', 'bunt']",test_adj,3,,,,,,349.48566569999093,349.48570379999,"['Tasche', 'Jacke', 'Rucksack', 'Bürste', 'Schlüssel', 'Flasche', 'Ring', 'Lampe', 'Kiste', 'Stift', 'Vase', 'Brille', 'Buch', 'Löffel', 'Schere', 'Geige', 'Kerze', 'Uhr', 'Telefon', 'Würfel', 'Blume', 'Fahrrad', 'Tasse', 'Kette', 'Eimer', 'Trommel', 'Socke', 'Hammer', 'Hut', 'Kamera']",349.9816856000107,349.9843602000037,None,349.98448560002726,349.98577279999154,None,349.9858804999967,349.9871942999889,None,349.9873003999819,0,355.98895069997525,355.9889645000221,355.9901300999918,,,,,,,,,,,,,,,,,,,,,,,,,,,,,,,,,,,,,,,,,,,,,,,,3,2023-11-27_13h52.49.951,watkins1,2023.2.3,99.72754432921793,22,2023-11-27 13h52.58.848451 +0000,
,,,,,,,,,,,13,0,13,0,,,,,,,,,,,,,355.9988680999959,,,,,,,,,,355.99041769996984,356.4808983000112,,,[],[],,,,,,,,,,,,None,None,,,,,,,,,,Löffel,breit,"['Löffel', 'breit']",restudy,3,,,,,,355.99035039998125,355.99038819997804,"['Tasche', 'Jacke', 'Rucksack', 'Bürste', 'Schlüssel', 'Flasche', 'Ring', 'Lampe', 'Kiste', 'Stift', 'Vase', 'Brille', 'Buch', 'Löffel', 'Schere', 'Geige', 'Kerze', 'Uhr', 'Telefon', 'Würfel', 'Blume', 'Fahrrad', 'Tasse', 'Kette', 'Eimer', 'Trommel', 'Socke', 'Hammer', 'Hut', 'Kamera']",356.4809081000276,356.4834224000224,None,356.4835410999949,362.48824849998346,3,362.48855690000346,362.49125720001757,None,362.4913685999927,,362.49283369997283,362.49284500000067,362.49398420000216,2.77354079997167,None,,,,,,,,,,,,,,,,,,,,,,,,,,,,,,,,,,,,,,,,,,,,,,3,2023-11-27_13h52.49.951,watkins1,2023.2.3,99.72754432921793,22,2023-11-27 13h52.58.848451 +0000,
,,,,,,,,,,,14,0,14,0,,,,,,,,,,,,,362.497692200006,,,,,,,,,,362.4942657999927,362.9895457000239,,,[],[],,,,,,,,,,,glänzend,None,None,,,,,,,,,,Schere,glänzend,"['Schere', 'glänzend']",test_adj,3,,,,,,362.4942006000201,362.4942390000215,"['Tasche', 'Jacke', 'Rucksack', 'Bürste', 'Schlüssel', 'Flasche', 'Ring', 'Lampe', 'Kiste', 'Stift', 'Vase', 'Brille', 'Buch', 'Löffel', 'Schere', 'Geige', 'Kerze', 'Uhr', 'Telefon', 'Würfel', 'Blume', 'Fahrrad', 'Tasse', 'Kette', 'Eimer', 'Trommel', 'Socke', 'Hammer', 'Hut', 'Kamera']",362.9895564999897,362.9921993999742,None,362.9923240999924,362.99374750000425,None,362.9938571000239,362.9952820999897,None,362.995390600001,0,368.9977741999901,368.99778749997495,368.9991775000235,,,,,,,,,,,,,,,,,,,,,,,,,,,,,,,,,,,,,,,,,,,,,,,,3,2023-11-27_13h52.49.951,watkins1,2023.2.3,99.72754432921793,22,2023-11-27 13h52.58.848451 +0000,
,,,,,,,,,,,15,0,15,0,,,,,,,,,,,,,369.00757670000894,,,,,,,,,,368.9994636999909,369.48963119997643,,,[],[],,,,,,,,,,,,None,None,,,,,,,,,,Geige,sportlich,"['Geige', 'sportlich']",restudy,3,,,,,,368.9993953999947,368.99943429999985,"['Tasche', 'Jacke', 'Rucksack', 'Bürste', 'Schlüssel', 'Flasche', 'Ring', 'Lampe', 'Kiste', 'Stift', 'Vase', 'Brille', 'Buch', 'Löffel', 'Schere', 'Geige', 'Kerze', 'Uhr', 'Telefon', 'Würfel', 'Blume', 'Fahrrad', 'Tasse', 'Kette', 'Eimer', 'Trommel', 'Socke', 'Hammer', 'Hut', 'Kamera']",369.4896410999936,369.4923492000089,None,369.492474699975,375.4934193000081,1,375.4937169000041,375.4966011000215,None,375.4967117999913,,375.49817380000604,375.4981855999795,375.49942599999486,1.420450100034941,None,,,,,,,,,,,,,,,,,,,,,,,,,,,,,,,,,,,,,,,,,,,,,,3,2023-11-27_13h52.49.951,watkins1,2023.2.3,99.72754432921793,22,2023-11-27 13h52.58.848451 +0000,
,,,,,,,,,,,16,0,16,0,,,,,,,,,,,,,375.5029347999953,,,,,,,,,,375.4997121000197,375.99514900002396,,,[],[],,,,,,,,,,,,None,None,,,,,,,,,,Kerze,krumm,"['Kerze', 'krumm']",restudy,3,,,,,,375.4996454999782,375.4996848999872,"['Tasche', 'Jacke', 'Rucksack', 'Bürste', 'Schlüssel', 'Flasche', 'Ring', 'Lampe', 'Kiste', 'Stift', 'Vase', 'Brille', 'Buch', 'Löffel', 'Schere', 'Geige', 'Kerze', 'Uhr', 'Telefon', 'Würfel', 'Blume', 'Fahrrad', 'Tasse', 'Kette', 'Eimer', 'Trommel', 'Socke', 'Hammer', 'Hut', 'Kamera']",375.99515959998826,375.99790860002395,None,375.99803999997675,382.0039276999887,1,382.00422070000786,382.00690480001504,None,382.0070153999841,,382.00816550001036,382.0081769999815,382.00931890000356,0.818866599991452,None,,,,,,,,,,,,,,,,,,,,,,,,,,,,,,,,,,,,,,,,,,,,,,3,2023-11-27_13h52.49.951,watkins1,2023.2.3,99.72754432921793,22,2023-11-27 13h52.58.848451 +0000,
,,,,,,,,,,,17,0,17,0,,,,,,,,,,,,,382.01340320002055,,,,,,,,,,382.0095997999888,382.5054960999987,,,[],[],,,,,,,,,,,,None,None,,,,,,,,,,Uhr,biegsam,"['Uhr', 'biegsam']",restudy,3,,,,,,382.00953510002,382.0095732000191,"['Tasche', 'Jacke', 'Rucksack', 'Bürste', 'Schlüssel', 'Flasche', 'Ring', 'Lampe', 'Kiste', 'Stift', 'Vase', 'Brille', 'Buch', 'Löffel', 'Schere', 'Geige', 'Kerze', 'Uhr', 'Telefon', 'Würfel', 'Blume', 'Fahrrad', 'Tasse', 'Kette', 'Eimer', 'Trommel', 'Socke', 'Hammer', 'Hut', 'Kamera']",382.5055062000174,382.50796219997574,None,382.5080824000179,388.51239669998176,1,388.5126918000169,388.5152996000252,None,388.5154110000003,,388.5164174999809,388.51642900001025,388.5175981000066,2.677149399998598,None,,,,,,,,,,,,,,,,,,,,,,,,,,,,,,,,,,,,,,,,,,,,,,3,2023-11-27_13h52.49.951,watkins1,2023.2.3,99.72754432921793,22,2023-11-27 13h52.58.848451 +0000,
,,,,,,,,,,,18,0,18,0,,,,,,,,,,,,,388.521948300011,,,,,,,,,,388.51787939999485,389.0141096999869,,,[],[],,,,,,,,,,,,None,None,,,,,,,,,,Telefon,neu,"['Telefon', 'neu']",restudy,3,,,,,,388.5178146000253,388.5178526000236,"['Tasche', 'Jacke', 'Rucksack', 'Bürste', 'Schlüssel', 'Flasche', 'Ring', 'Lampe', 'Kiste', 'Stift', 'Vase', 'Brille', 'Buch', 'Löffel', 'Schere', 'Geige', 'Kerze', 'Uhr', 'Telefon', 'Würfel', 'Blume', 'Fahrrad', 'Tasse', 'Kette', 'Eimer', 'Trommel', 'Socke', 'Hammer', 'Hut', 'Kamera']",389.01412040001014,389.0167990999762,None,389.0169229999883,395.0202949999948,3,395.02058650000254,395.02306709997356,None,395.02318050002214,,395.02447379997466,395.02448520000326,395.0254935999983,1.632333000015933,None,,,,,,,,,,,,,,,,,,,,,,,,,,,,,,,,,,,,,,,,,,,,,,3,2023-11-27_13h52.49.951,watkins1,2023.2.3,99.72754432921793,22,2023-11-27 13h52.58.848451 +0000,
,,,,,,,,,,,19,0,19,0,,,,,,,,,,,,,395.02972729998874,,,,,,,,,,395.02577389997896,395.52179319999414,,,[],[],,,,,,,,,,,,None,None,,,,,,,,,,Würfel,klobig,"['Würfel', 'klobig']",restudy,3,,,,,,395.02570930001093,395.0257469000062,"['Tasche', 'Jacke', 'Rucksack', 'Bürste', 'Schlüssel', 'Flasche', 'Ring', 'Lampe', 'Kiste', 'Stift', 'Vase', 'Brille', 'Buch', 'Löffel', 'Schere', 'Geige', 'Kerze', 'Uhr', 'Telefon', 'Würfel', 'Blume', 'Fahrrad', 'Tasse', 'Kette', 'Eimer', 'Trommel', 'Socke', 'Hammer', 'Hut', 'Kamera']",395.5218039000174,395.5242907999782,None,395.5244126999751,401.5275308000273,2,401.5278366000275,401.53050009999424,None,401.53061339998385,,401.5320817999891,401.53209350002,401.5332621000125,3.1086439000209793,None,,,,,,,,,,,,,,,,,,,,,,,,,,,,,,,,,,,,,,,,,,,,,,3,2023-11-27_13h52.49.951,watkins1,2023.2.3,99.72754432921793,22,2023-11-27 13h52.58.848451 +0000,
,,,,,,,,,,,20,0,20,0,,,,,,,,,,,,,401.5370101999724,,,,,,,,,,401.53354839998065,402.02909979998367,,,[],[],,,,,,,,,,,hohl,None,None,,,,,,,,,,Blume,hohl,"['Blume', 'hohl']",test_adj,3,,,,,,401.5334819999989,401.5335214000079,"['Tasche', 'Jacke', 'Rucksack', 'Bürste', 'Schlüssel', 'Flasche', 'Ring', 'Lampe', 'Kiste', 'Stift', 'Vase', 'Brille', 'Buch', 'Löffel', 'Schere', 'Geige', 'Kerze', 'Uhr', 'Telefon', 'Würfel', 'Blume', 'Fahrrad', 'Tasse', 'Kette', 'Eimer', 'Trommel', 'Socke', 'Hammer', 'Hut', 'Kamera']",402.0291106000077,402.0318665999803,None,402.0319960999768,402.03340660000686,None,402.03351450001355,402.03492459998233,None,402.03503269999055,0,408.0374611999723,408.03747510001995,408.0388108000043,,,,,,,,,,,,,,,,,,,,,,,,,,,,,,,,,,,,,,,,,,,,,,,,3,2023-11-27_13h52.49.951,watkins1,2023.2.3,99.72754432921793,22,2023-11-27 13h52.58.848451 +0000,
,,,,,,,,,,,21,0,21,0,,,,,,,,,,,,,408.0472182999947,,,,,,,,,,408.03910220001126,408.5294418000267,,,[],[],,,,,,,,,,,neu,None,None,,,,,,,,,,Fahrrad,niedlich,"['Fahrrad', 'niedlich']",test_adj,3,,,,,,408.039033500012,408.039072900021,"['Tasche', 'Jacke', 'Rucksack', 'Bürste', 'Schlüssel', 'Flasche', 'Ring', 'Lampe', 'Kiste', 'Stift', 'Vase', 'Brille', 'Buch', 'Löffel', 'Schere', 'Geige', 'Kerze', 'Uhr', 'Telefon', 'Würfel', 'Blume', 'Fahrrad', 'Tasse', 'Kette', 'Eimer', 'Trommel', 'Socke', 'Hammer', 'Hut', 'Kamera']",408.52945169998566,408.5319901999901,None,408.53211059997557,408.53451680002036,None,408.53462549997494,408.53700599999866,None,408.53711309999926,0,414.54160260001663,414.54161630000453,414.5429431999801,,,,,,,,,,,,,,,,,,,,,,,,,,,,,,,,,,,,,,,,,,,,,,,,3,2023-11-27_13h52.49.951,watkins1,2023.2.3,99.72754432921793,22,2023-11-27 13h52.58.848451 +0000,
,,,,,,,,,,,22,0,22,0,,,,,,,,,,,,,414.55140769999707,,,,,,,,,,414.5432288000011,415.0334168000263,,,[],[],,,,,,,,,,,,None,None,,,,,,,,,,Tasse,hässlich,"['Tasse', 'hässlich']",test_adj,3,,,,,,414.5431618000148,414.5432003000169,"['Tasche', 'Jacke', 'Rucksack', 'Bürste', 'Schlüssel', 'Flasche', 'Ring', 'Lampe', 'Kiste', 'Stift', 'Vase', 'Brille', 'Buch', 'Löffel', 'Schere', 'Geige', 'Kerze', 'Uhr', 'Telefon', 'Würfel', 'Blume', 'Fahrrad', 'Tasse', 'Kette', 'Eimer', 'Trommel', 'Socke', 'Hammer', 'Hut', 'Kamera']",415.03342699998757,415.0361278000055,None,415.0362509000115,415.03880490001757,None,415.03891359997215,415.0414536999888,None,415.0415631000069,0,421.0462320999941,421.04624559998047,421.04758020001464,,,,,,,,,,,,,,,,,,,,,,,,,,,,,,,,,,,,,,,,,,,,,,,,3,2023-11-27_13h52.49.951,watkins1,2023.2.3,99.72754432921793,22,2023-11-27 13h52.58.848451 +0000,
,,,,,,,,,,,23,0,23,0,,,,,,,,,,,,,421.0561383999884,,,,,,,,,,421.04786450002575,421.5382052999921,,,[],[],,,,,,,,,,,,None,None,,,,,,,,,,Kette,schlicht,"['Kette', 'schlicht']",restudy,3,,,,,,421.0477967999759,421.04783599998336,"['Tasche', 'Jacke', 'Rucksack', 'Bürste', 'Schlüssel', 'Flasche', 'Ring', 'Lampe', 'Kiste', 'Stift', 'Vase', 'Brille', 'Buch', 'Löffel', 'Schere', 'Geige', 'Kerze', 'Uhr', 'Telefon', 'Würfel', 'Blume', 'Fahrrad', 'Tasse', 'Kette', 'Eimer', 'Trommel', 'Socke', 'Hammer', 'Hut', 'Kamera']",421.5382167000207,421.54092699999455,None,421.54105429997435,427.5462204000214,1,427.5465119999717,427.5492380000069,None,427.54935549997026,,427.55051019997336,427.55052210000576,427.55172909999965,2.26786100002937,None,,,,,,,,,,,,,,,,,,,,,,,,,,,,,,,,,,,,,,,,,,,,,,3,2023-11-27_13h52.49.951,watkins1,2023.2.3,99.72754432921793,22,2023-11-27 13h52.58.848451 +0000,
,,,,,,,,,,,24,0,24,0,,,,,,,,,,,,,427.55569559999276,,,,,,,,,,427.5520283000078,428.0478128999821,,,[],[],,,,,,,,,,,teuer,None,None,,,,,,,,,,Eimer,teuer,"['Eimer', 'teuer']",test_adj,3,,,,,,427.55195390002336,427.55200099997455,"['Tasche', 'Jacke', 'Rucksack', 'Bürste', 'Schlüssel', 'Flasche', 'Ring', 'Lampe', 'Kiste', 'Stift', 'Vase', 'Brille', 'Buch', 'Löffel', 'Schere', 'Geige', 'Kerze', 'Uhr', 'Telefon', 'Würfel', 'Blume', 'Fahrrad', 'Tasse', 'Kette', 'Eimer', 'Trommel', 'Socke', 'Hammer', 'Hut', 'Kamera']",428.04782340000384,428.0504775000154,None,428.0506007000222,428.05199820001144,None,428.05210610001814,428.05349540000316,None,428.05360360001214,0,434.05581440002425,434.05582760000834,434.05711400002474,,,,,,,,,,,,,,,,,,,,,,,,,,,,,,,,,,,,,,,,,,,,,,,,3,2023-11-27_13h52.49.951,watkins1,2023.2.3,99.72754432921793,22,2023-11-27 13h52.58.848451 +0000,
,,,,,,,,,,,25,0,25,0,,,,,,,,,,,,,434.0657206000178,,,,,,,,,,434.05740109999897,434.5477622000035,,,[],[],,,,,,,,,,,,None,None,,,,,,,,,,Trommel,schmutzig,"['Trommel', 'schmutzig']",restudy,3,,,,,,434.0573338000104,434.0573728000163,"['Tasche', 'Jacke', 'Rucksack', 'Bürste', 'Schlüssel', 'Flasche', 'Ring', 'Lampe', 'Kiste', 'Stift', 'Vase', 'Brille', 'Buch', 'Löffel', 'Schere', 'Geige', 'Kerze', 'Uhr', 'Telefon', 'Würfel', 'Blume', 'Fahrrad', 'Tasse', 'Kette', 'Eimer', 'Trommel', 'Socke', 'Hammer', 'Hut', 'Kamera']",434.54777210002067,434.5504140999983,None,434.5505354999914,440.55612149997614,2,440.55641830002423,440.5591828000033,None,440.55929499998456,,440.56078320002416,440.5607944999938,440.5620153999771,2.170041500008665,None,,,,,,,,,,,,,,,,,,,,,,,,,,,,,,,,,,,,,,,,,,,,,,3,2023-11-27_13h52.49.951,watkins1,2023.2.3,99.72754432921793,22,2023-11-27 13h52.58.848451 +0000,
,,,,,,,,,,,26,0,26,0,,,,,,,,,,,,,440.5657061000238,,,,,,,,,,440.56230119999964,441.0578152000089,,,[],[],,,,,,,,,,,nass,None,None,,,,,,,,,,Socke,nass,"['Socke', 'nass']",test_adj,3,,,,,,440.5622360999696,440.5622746999725,"['Tasche', 'Jacke', 'Rucksack', 'Bürste', 'Schlüssel', 'Flasche', 'Ring', 'Lampe', 'Kiste', 'Stift', 'Vase', 'Brille', 'Buch', 'Löffel', 'Schere', 'Geige', 'Kerze', 'Uhr', 'Telefon', 'Würfel', 'Blume', 'Fahrrad', 'Tasse', 'Kette', 'Eimer', 'Trommel', 'Socke', 'Hammer', 'Hut', 'Kamera']",441.0578253000276,441.0605959999957,None,441.06071980000706,441.06213460001163,None,441.0622466999921,441.0636651000241,None,441.06377329997486,0,447.0669120000093,447.0669261000003,447.06807330000447,,,,,,,,,,,,,,,,,,,,,,,,,,,,,,,,,,,,,,,,,,,,,,,,3,2023-11-27_13h52.49.951,watkins1,2023.2.3,99.72754432921793,22,2023-11-27 13h52.58.848451 +0000,
,,,,,,,,,,,27,0,27,0,,,,,,,,,,,,,447.07671709998976,,,,,,,,,,447.06836209999165,447.55879929999355,,,[],[],,,,,,,,,,,,None,None,,,,,,,,,,Hammer,blass,"['Hammer', 'blass']",restudy,3,,,,,,447.06829480000306,447.0683335000067,"['Tasche', 'Jacke', 'Rucksack', 'Bürste', 'Schlüssel', 'Flasche', 'Ring', 'Lampe', 'Kiste', 'Stift', 'Vase', 'Brille', 'Buch', 'Löffel', 'Schere', 'Geige', 'Kerze', 'Uhr', 'Telefon', 'Würfel', 'Blume', 'Fahrrad', 'Tasse', 'Kette', 'Eimer', 'Trommel', 'Socke', 'Hammer', 'Hut', 'Kamera']",447.558809500013,447.561421099992,None,447.56154359999346,453.56213219999336,1,453.5624274999718,453.5651332999696,None,453.5652459000121,,453.56672330002766,453.5667353000026,453.56800839997595,1.599366899987217,None,,,,,,,,,,,,,,,,,,,,,,,,,,,,,,,,,,,,,,,,,,,,,,3,2023-11-27_13h52.49.951,watkins1,2023.2.3,99.72754432921793,22,2023-11-27 13h52.58.848451 +0000,
,,,,,,,,,,,28,0,28,0,,,,,,,,,,,,,453.57160109997494,,,,,,,,,,453.56829269998707,454.0636831999873,,,[],[],,,,,,,,,,,,None,None,,,,,,,,,,Hut,dunkel,"['Hut', 'dunkel']",restudy,3,,,,,,453.5682264000061,453.5682652000105,"['Tasche', 'Jacke', 'Rucksack', 'Bürste', 'Schlüssel', 'Flasche', 'Ring', 'Lampe', 'Kiste', 'Stift', 'Vase', 'Brille', 'Buch', 'Löffel', 'Schere', 'Geige', 'Kerze', 'Uhr', 'Telefon', 'Würfel', 'Blume', 'Fahrrad', 'Tasse', 'Kette', 'Eimer', 'Trommel', 'Socke', 'Hammer', 'Hut', 'Kamera']",454.06369390001055,454.06620739999926,None,454.0663315000129,460.0683396999957,3,460.0686372999917,460.0711815999821,None,460.07129320001695,,460.0723187000258,460.07233019999694,460.0736140999943,2.8306788000045344,None,,,,,,,,,,,,,,,,,,,,,,,,,,,,,,,,,,,,,,,,,,,,,,3,2023-11-27_13h52.49.951,watkins1,2023.2.3,99.72754432921793,22,2023-11-27 13h52.58.848451 +0000,
,,,,,,,,,,,29,0,29,0,,,,,,,,,,,,,460.07779730000766,,,,,,,,,,460.0738987000077,460.5699822999886,,,[],[],,,,,,,,,,,klobig,None,None,,,,,,,,,,Kamera,dick,"['Kamera', 'dick']",test_adj,3,,,,,,460.07383289997233,460.0738711999729,"['Tasche', 'Jacke', 'Rucksack', 'Bürste', 'Schlüssel', 'Flasche', 'Ring', 'Lampe', 'Kiste', 'Stift', 'Vase', 'Brille', 'Buch', 'Löffel', 'Schere', 'Geige', 'Kerze', 'Uhr', 'Telefon', 'Würfel', 'Blume', 'Fahrrad', 'Tasse', 'Kette', 'Eimer', 'Trommel', 'Socke', 'Hammer', 'Hut', 'Kamera']",460.56999260000885,460.5726557999733,None,460.57277959998464,460.5742208000156,None,460.5743294999702,460.57574900001055,None,460.5758567000157,0,466.57814739999594,466.5781604999793,466.5793914999813,,,,,,,,,,,,,,,,,,,,,,,,,,,,,,,,,,,,,,,,,,,,,,,,3,2023-11-27_13h52.49.951,watkins1,2023.2.3,99.72754432921793,22,2023-11-27 13h52.58.848451 +0000,
,,,,,,,,,,,,,,,,,,,,,,,,,,,,,,,,,,,,,,,,,,,,,,,,,,,,,,,,,,,,,,,,,,,,,3,,,,,,,,,,,,,,,,,,,,,,,,,,,,,,,,,,,,,,,,,,,,,,,,,,,,,,,,,,,,,,,,,,,,,,3,2023-11-27_13h52.49.951,watkins1,2023.2.3,99.72754432921793,22,2023-11-27 13h52.58.848451 +0000,
(6 x 3) + 10 = 27 ,Incorrect,button_incorrect,,,,,,,,,,,,,0,0,0,8,,,,,,,,,484.7326236999943,,,,,,,,483.7018285000231,484.70544330001576,,,,,['button_incorrect'],[8.647761800035369],,,,,,,,,,,,,,,,,,,,,,,,,,distractorTask,3,,,,,,,,,,,,,,,,,,,,,,,,,484.72168120002607,484.7326236999943,493.37429740000516,[-0.3175925925925926],[-0.38796296296296295],[1],[0],[0],[8.647761800035369],['button_incorrect'],493.3749780000071,494.37812170002144,,,,,,,,,,,,,,,,,,,,,,,,,,,,,,,,,,3,2023-11-27_13h52.49.951,watkins1,2023.2.3,99.72754432921793,22,2023-11-27 13h52.58.848451 +0000,
(7 x 6) + 9 = 48 ,Incorrect,button_incorrect,,,,,,,,,,,,,0,1,1,9,,,,,,,,,494.38805800001137,,,,,,,,,,,,,,['button_incorrect'],[14.256847399985418],,,,,,,,,,,,,,,,,,,,,,,,,,distractorTask,3,,,,,,,,,,,,,,,,,,,,,,,,,494.37831569998525,494.38805800001137,508.63859049999155,[-0.28888888888888886],[-0.3907407407407407],[1],[0],[0],[14.256847399985418],['button_incorrect'],508.6389884999953,509.6423944000271,,,,,,,,,,,,,,,,,,,,,,,,,,,,,,,,,,3,2023-11-27_13h52.49.951,watkins1,2023.2.3,99.72754432921793,22,2023-11-27 13h52.58.848451 +0000,
(9 x 5) - 9 = 36 ,Correct,button_correct,,,,,,,,,,,,,0,2,2,4,,,,,,,,,509.65238919999683,,,,,,,,,,,,,,['button_correct'],[4.175405900052283],,,,,,,,,,,,,,,,,,,,,,,,,,distractorTask,3,,,,,,,,,,,,,,,,,,,,,,,,,509.64259349997155,509.65238919999683,513.8204335999908,[0.27685185185185185],[-0.40185185185185185],[1],[0],[0],[4.175405900052283],['button_correct'],513.8208149999846,514.8242232999764,,,,,,,,,,,,,,,,,,,,,,,,,,,,,,,,,,3,2023-11-27_13h52.49.951,watkins1,2023.2.3,99.72754432921793,22,2023-11-27 13h52.58.848451 +0000,
(25 : 5) + 5 = 9 ,Incorrect,button_incorrect,,,,,,,,,,,,,0,3,3,6,,,,,,,,,514.834202099999,,,,,,,,,,,,,,['button_incorrect'],[2.900063799985219],,,,,,,,,,,,,,,,,,,,,,,,,,distractorTask,3,,,,,,,,,,,,,,,,,,,,,,,,,514.8244150999817,514.834202099999,517.7267106000218,[-0.3194444444444444],[-0.3888888888888889],[1],[0],[0],[2.900063799985219],['button_incorrect'],517.7270905000041,518.7303220999893,,,,,,,,,,,,,,,,,,,,,,,,,,,,,,,,,,3,2023-11-27_13h52.49.951,watkins1,2023.2.3,99.72754432921793,22,2023-11-27 13h52.58.848451 +0000,
(4 : 2) + 4 = 6 ,Correct,button_correct,,,,,,,,,,,,,0,4,4,1,,,,,,,,,518.7404120999854,,,,,,,,,,,,,,['button_correct'],[4.2472054999670945],,,,,,,,,,,,,,,,,,,,,,,,,,distractorTask,3,,,,,,,,,,,,,,,,,,,,,,,,,518.730517500022,518.7404120999854,522.9794262999785,[0.3111111111111111],[-0.39444444444444443],[1],[0],[0],[4.2472054999670945],['button_correct'],522.9798096999875,523.9830388000119,,,,,,,,,,,,,,,,,,,,,,,,,,,,,,,,,,3,2023-11-27_13h52.49.951,watkins1,2023.2.3,99.72754432921793,22,2023-11-27 13h52.58.848451 +0000,
(28 : 7) - 3 = 1 ,Correct,button_correct,,,,,,,,,,,,,0,5,5,0,,,,,,,,,523.9930717999814,,,,,,,,,,,,,,['button_correct'],[5.691997099958826],,,,,,,,,,,,,,,,,,,,,,,,,,distractorTask,3,,,,,,,,,,,,,,,,,,,,,,,,,523.9832305000164,523.9930717999814,529.676933699986,[0.3074074074074074],[-0.3962962962962963],[1],[0],[0],[5.691997099958826],['button_correct'],529.6773173999973,530.6808193000033,,,,,,,,,,,,,,,,,,,,,,,,,,,,,,,,,,3,2023-11-27_13h52.49.951,watkins1,2023.2.3,99.72754432921793,22,2023-11-27 13h52.58.848451 +0000,
(54 : 6) - 10 = 0 ,Incorrect,button_incorrect,,,,,,,,,,,,,0,6,6,5,,,,,,,,,530.6907559999963,,,,,,,,,,,,,,['button_incorrect'],"[5.19017439999152, 5.531471499998588]",,,,,,,,,,,,,,,,,,,,,,,,,,distractorTask,3,,,,,,,,,,,,,,,,,,,,,,,,,530.6810119000147,530.6907559999963,536.2142088999972,"[-0.2712962962962963, -0.3055555555555556]","[-0.38425925925925924, -0.38425925925925924]","[1, 1]","[0, 0]","[0, 0]","[5.19017439999152, 5.531471499998588]",['button_incorrect'],536.2146139999968,537.2180788000114,,,,,,,,,,,,,,,,,,,,,,,,,,,,,,,,,,3,2023-11-27_13h52.49.951,watkins1,2023.2.3,99.72754432921793,22,2023-11-27 13h52.58.848451 +0000,
(80 : 10) + 9 = 17 ,Correct,button_correct,,,,,,,,,,,,,0,7,7,3,,,,,,,,,537.2280652999762,,,,,,,,,,,,,,['button_correct'],[4.075975899992045],,,,,,,,,,,,,,,,,,,,,,,,,,distractorTask,3,,,,,,,,,,,,,,,,,,,,,,,,,537.218268800003,537.2280652999762,541.2962307999842,[0.29074074074074074],[-0.387037037037037],[1],[0],[0],[4.075975899992045],['button_correct'],541.2966147999978,542.2999002999859,,,,,,,,,,,,,,,,,,,,,,,,,,,,,,,,,,3,2023-11-27_13h52.49.951,watkins1,2023.2.3,99.72754432921793,22,2023-11-27 13h52.58.848451 +0000,
(40 : 5) + 8 = 15 ,Incorrect,button_incorrect,,,,,,,,,,,,,0,8,8,7,,,,,,,,,542.3099953000201,,,,,,,,,,,,,,['button_correct'],[6.224428000045009],,,,,,,,,,,,,,,,,,,,,,,,,,distractorTask,3,,,,,,,,,,,,,,,,,,,,,,,,,542.3000975999748,542.3099953000201,548.5262664000038,[0.31203703703703706],[-0.3851851851851852],[1],[0],[0],[6.224428000045009],['button_correct'],548.5266509000212,549.5299470999744,,,,,,,,,,,,,,,,,,,,,,,,,,,,,,,,,,3,2023-11-27_13h52.49.951,watkins1,2023.2.3,99.72754432921793,22,2023-11-27 13h52.58.848451 +0000,
(2 x 5) + 3 = 13 ,Correct,button_correct,,,,,,,,,,,,,0,9,9,2,,,,,,,,,549.5399287000182,,,,,,,,,,,,,,['button_correct'],[2.880537400022149],,,,,,,,,,,,,,,,,,,,,,,,,,distractorTask,3,,,,,,,,,,,,,,,,,,,,,,,,,549.5301405999926,549.5399287000182,552.412383500021,[0.2861111111111111],[-0.3814814814814815],[1],[0],[0],[2.880537400022149],['button_correct'],552.4127645000117,553.4160855999799,,,,,,,,,,,,,,,,,,,,,,,,,,,,,,,,,,3,2023-11-27_13h52.49.951,watkins1,2023.2.3,99.72754432921793,22,2023-11-27 13h52.58.848451 +0000,
,,,,,,,,,,,,,,,,,,,,,,,,,,,,,,,,,,,,,,,,,,,,,,,,,,,,,,,,,,,,,,,,,,,,,3,,,,,,,,,,,,,,,,,,,,,,,,,,,,,,,,,,,,,,,,,,,,,,,,,,,,,,,,,,,,,,,,,,,,,,3,2023-11-27_13h52.49.951,watkins1,2023.2.3,99.72754432921793,22,2023-11-27 13h52.58.848451 +0000,
,,,,,,,,,,,,,,,,,,,0,0,0,0,,,,,565.3764487999724,,,,,,,,,,,,,,nass,8.66832820000127,,,,,,,,,,,,6.607071099977475,None,,,,,,,,,,,,,freeRecallSub,3,,,,,,,,,,,,,,,,,,,,,,,,,,,,,,,,,,,,,565.3676872000215,565.3764487999724,565.3764487999724,574.0528835000005,return,8.66832820000127,None,nass,[-0.03148148148148148],[0.04259259259259259],[1],[0],[0],[5.080245200020727],[],,,,,,,,,,,,,,,,,,,3,2023-11-27_13h52.49.951,watkins1,2023.2.3,99.72754432921793,22,2023-11-27 13h52.58.848451 +0000,
,,,,,,,,,,,,,,,,,,,1,0,1,0,,,,,574.0646876000101,,,,,,,,,,,,,,glänzend,5.620048400014639,,,,,,,,,,,,3.535958499996923,None,,,,,,,,,,,,,freeRecallSub,3,,,,,,,,,,,,,,,,,,,,,,,,,,,,,,,,,,,,,574.054716499988,574.0646876000101,574.0646876000101,579.6894697999815,return,5.620048400014639,None,glänzend,[],[],[],[],[],[],[],,,,,,,,,,,,,,,,,,,3,2023-11-27_13h52.49.951,watkins1,2023.2.3,99.72754432921793,22,2023-11-27 13h52.58.848451 +0000,
,,,,,,,,,,,,,,,,,,,2,0,2,0,,,,,579.7002615000238,,,,,,,,,,,,,,praktisch,2.7764385999762453,,,,,,,,,,,,1.2753773999866098,None,,,,,,,,,,,,,freeRecallSub,3,,,,,,,,,,,,,,,,,,,,,,,,,,,,,,,,,,,,,579.6907193000079,579.7002615000238,579.7002615000238,582.4825372999767,return,2.7764385999762453,None,praktisch,[],[],[],[],[],[],[],,,,,,,,,,,,,,,,,,,3,2023-11-27_13h52.49.951,watkins1,2023.2.3,99.72754432921793,22,2023-11-27 13h52.58.848451 +0000,
,,,,,,,,,,,,,,,,,,,3,0,3,0,,,,,582.4936356000253,,,,,,,,,,,,,,teuer,3.215064199990593,,,,,,,,,,,,1.777906100032851,None,,,,,,,,,,,,,freeRecallSub,3,,,,,,,,,,,,,,,,,,,,,,,,,,,,,,,,,,,,,582.4837927999906,582.4936356000253,582.4936356000253,585.7177808000124,return,3.215064199990593,None,teuer,[],[],[],[],[],[],[],,,,,,,,,,,,,,,,,,,3,2023-11-27_13h52.49.951,watkins1,2023.2.3,99.72754432921793,22,2023-11-27 13h52.58.848451 +0000,
,,,,,,,,,,,,,,,,,,,4,0,4,0,,,,,585.7284085999709,,,,,,,,,,,,,,klobig,1.8363335999893025,,,,,,,,,,,,0.802974299993366,None,,,,,,,,,,,,,freeRecallSub,3,,,,,,,,,,,,,,,,,,,,,,,,,,,,,,,,,,,,,585.7190438000252,585.7284085999709,585.7284085999709,587.5664643999771,return,1.8363335999893025,None,klobig,[],[],[],[],[],[],[],,,,,,,,,,,,,,,,,,,3,2023-11-27_13h52.49.951,watkins1,2023.2.3,99.72754432921793,22,2023-11-27 13h52.58.848451 +0000,
,,,,,,,,,,,,,,,,,,,5,0,5,0,,,,,587.5776533000171,,,,,,,,,,,,,,rund,4.61108790000435,,,,,,,,,,,,0.49283269996521994,None,,,,,,,,,,,,,freeRecallSub,3,,,,,,,,,,,,,,,,,,,,,,,,,,,,,,,,,,,,,587.5677326999721,587.5776533000171,587.5776533000171,592.1976707999711,return,4.61108790000435,None,rund,[],[],[],[],[],[],[],,,,,,,,,,,,,,,,,,,3,2023-11-27_13h52.49.951,watkins1,2023.2.3,99.72754432921793,22,2023-11-27 13h52.58.848451 +0000,
,,,,,,,,,,,,,,,,,,,6,0,6,0,,,,,592.2083407000173,,,,,,,,,,,,,,neu,7.092358900001273,,,,,,,,,,,,5.733426599996164,None,,,,,,,,,,,,,freeRecallSub,3,,,,,,,,,,,,,,,,,,,,,,,,,,,,,,,,,,,,,592.1989162000245,592.2083407000173,592.2083407000173,599.3079139000038,return,7.092358900001273,None,neu,[],[],[],[],[],[],[],,,,,,,,,,,,,,,,,,,3,2023-11-27_13h52.49.951,watkins1,2023.2.3,99.72754432921793,22,2023-11-27 13h52.58.848451 +0000,
,,,,,,,,,,,,,,,,,,,7,0,7,0,,,,,599.3188727999805,,,,,,,,,,,,,,biegsam,6.477865699969698,,,,,,,,,,,,5.112232599989511,None,,,,,,,,,,,,,freeRecallSub,3,,,,,,,,,,,,,,,,,,,,,,,,,,,,,,,,,,,,,599.3091771000181,599.3188727999805,599.3188727999805,605.7972920999746,return,6.477865699969698,None,biegsam,[],[],[],[],[],[],[],,,,,,,,,,,,,,,,,,,3,2023-11-27_13h52.49.951,watkins1,2023.2.3,99.72754432921793,22,2023-11-27 13h52.58.848451 +0000,
,,,,,,,,,,,,,,,,,,,8,0,8,0,,,,,605.8089203999843,,,,,,,,,,,,,,breit,51.26766380004119,,,,,,,,,,,,50.26123150001513,None,,,,,,,,,,,,,freeRecallSub,3,,,,,,,,,,,,,,,,,,,,,,,,,,,,,,,,,,,,,605.7985548999859,605.8089203999843,605.8089203999843,657.0839510000078,return,51.26766380004119,None,breit,[],[],[],[],[],[],[],,,,,,,,,,,,,,,,,,,3,2023-11-27_13h52.49.951,watkins1,2023.2.3,99.72754432921793,22,2023-11-27 13h52.58.848451 +0000,
,,,,,,,,,,,,,,,,,,,9,0,9,0,,,,,657.0957587999874,,,,,,,,,,,,,,lang,2.7648830000543967,,,,,,,,,,,,0.9355514000053518,None,,,,,,,,,,,,,freeRecallSub,3,,,,,,,,,,,,,,,,,,,,,,,,,,,,,,,,,,,,,657.0855125000235,657.0957587999874,657.0957587999874,659.8687440999784,return,2.7648830000543967,None,lang,[],[],[],[],[],[],[],,,,,,,,,,,,,,,,,,,3,2023-11-27_13h52.49.951,watkins1,2023.2.3,99.72754432921793,22,2023-11-27 13h52.58.848451 +0000,
,,,,,,,,,,,,,,,,,,,10,0,10,0,,,,,659.8805054000113,,,,,,,,,,,,,,gestreift,5.428018599981442,,,,,,,,,,,,3.466125800041482,None,,,,,,,,,,,,,freeRecallSub,3,,,,,,,,,,,,,,,,,,,,,,,,,,,,,,,,,,,,,659.8699964000261,659.8805054000113,659.8805054000113,665.3145833999733,return,5.428018599981442,None,gestreift,[],[],[],[],[],[],[],,,,,,,,,,,,,,,,,,,3,2023-11-27_13h52.49.951,watkins1,2023.2.3,99.72754432921793,22,2023-11-27 13h52.58.848451 +0000,
,,,,,,,,,,,,,,,,,,,11,0,11,0,,,,,665.3269968000241,,,,,,,,,,,,,,hässlich,55.18138429999817,,,,,,,,,,,,48.03420009999536,None,,,,,,,,,,,,,freeRecallSub,3,,,,,,,,,,,,,,,,,,,,,,,,,,,,,,,,,,,,,665.3158519999706,665.3269968000241,665.3269968000241,720.5108945000102,return,55.18138429999817,None,hässlich,[-0.05740740740740741],[0.04814814814814815],[1],[0],[0],[15.061298799992073],[],,,,,,,,,,,,,,,,,,,3,2023-11-27_13h52.49.951,watkins1,2023.2.3,99.72754432921793,22,2023-11-27 13h52.58.848451 +0000,
,,,,,,,,,,,,,,,,,,,12,0,12,0,,,,,720.5232469000039,,,,,,,,,,,,,,,[],,,,,,,,,,,,None,None,,,,,,,,,,,,,freeRecallSub,3,,,,,,,,,,,,,,,,,,,,,,,,,,,,,,,,,,,,,720.5121917999932,720.5232469000039,720.5232469000039,751.5831150999875,None,,,,[0.18333333333333332],[-0.41388888888888886],[1],[0],[0],[31.066068199987058],"['button_continue', 'continue_text']",,,,,,,,,,,,,,,,,,,3,2023-11-27_13h52.49.951,watkins1,2023.2.3,99.72754432921793,22,2023-11-27 13h52.58.848451 +0000,
,,,,,,,,,,,,,,,,,,,,,,,,,,,,,,,,,,,,,,,,,,,,,,,,,,,,,,,,,,,,,,,,,,,,,3,,,,,,,,,,,,,,,,,,,,,,,,,,,,,,,,,,,,,,,,,,,,,,,,,,,,,,,,,,,,,,,,,,,,,,3,2023-11-27_13h52.49.951,watkins1,2023.2.3,99.72754432921793,22,2023-11-27 13h52.58.848451 +0000,
,,,,,,,,,,,,,,,,,,,,,,,0,0,0,0,762.2779667999712,,,,,,,,,,770.2852922999882,770.7837702999823,,,,7.998408599989489,,,,,,,,,,,,None,None,,,,,,,,,,Vase,,,cuedRecallAdj,3,,,,,,,,,,,,,,,,,,,0,,,,,,,,,,,,,,,,,,,,,,,,,,,,,,,,,762.2689086999744,762.2779667999712,762.2779667999712,770.2821568999789,gestreift,return,7.998408599989489,None,770.2825537999743,770.291813799995,770.291813799995,770.285140699998,,None,,,,,3,2023-11-27_13h52.49.951,watkins1,2023.2.3,99.72754432921793,22,2023-11-27 13h52.58.848451 +0000,
,,,,,,,,,,,,,,,,,,,,,,,1,0,1,0,770.7938269000151,,,,,,,,,,776.1992274000077,776.6983618999948,,,,5.394588299968746,,,,,,,,,,,,None,None,,,,,,,,,,Blume,,,cuedRecallAdj,3,,,,,,,,,,,,,,,,,,,0,,,,,,,,,,,,,,,,,,,,,,,,,,,,,,,,,770.7840115000145,770.7938269000151,770.7938269000151,776.1964115999872,hohl,return,5.394588299968746,None,776.1966775999754,776.2061002000119,776.2061002000119,776.19912569999,,None,,,,,3,2023-11-27_13h52.49.951,watkins1,2023.2.3,99.72754432921793,22,2023-11-27 13h52.58.848451 +0000,
,,,,,,,,,,,,,,,,,,,,,,,2,0,2,0,776.7083025000175,,,,,,,,,,778.6997546000057,779.1985642000218,,,,1.9840806999709457,,,,,,,,,,,,None,None,,,,,,,,,,Fahrrad,,,cuedRecallAdj,3,,,,,,,,,,,,,,,,,,,0,,,,,,,,,,,,,,,,,,,,,,,,,,,,,,,,,776.698605499987,776.7083025000175,776.7083025000175,778.6969825000269,neu,return,1.9840806999709457,None,778.6972476000083,778.7065227000276,778.7065227000276,778.6996559000108,,None,,,,,3,2023-11-27_13h52.49.951,watkins1,2023.2.3,99.72754432921793,22,2023-11-27 13h52.58.848451 +0000,
,,,,,,,,,,,,,,,,,,,,,,,3,0,3,0,779.2084723999724,,,,,,,,,,783.9120035999804,784.4103337000124,,,,4.700006200000644,,,,,,,,,,,,None,None,,,,,,,,,,Kerze,,,cuedRecallAdj,3,,,,,,,,,,,,,,,,,,,0,,,,,,,,,,,,,,,,,,,,,,,,,,,,,,,,,779.1988092000247,779.2084723999724,779.2084723999724,783.9089012999902,krumm,return,4.700006200000644,None,783.9091914999881,783.9182759000105,783.9182759000105,783.9119018000201,,None,,,,,3,2023-11-27_13h52.49.951,watkins1,2023.2.3,99.72754432921793,22,2023-11-27 13h52.58.848451 +0000,
,,,,,,,,,,,,,,,,,,,,,,,4,0,4,0,784.4202811999712,,,,,,,,,,786.4312511999742,786.9207559999777,,,,2.0080769999767654,,,,,,,,,,,,None,None,,,,,,,,,,Stift,,,cuedRecallAdj,3,,,,,,,,,,,,,,,,,,,0,,,,,,,,,,,,,,,,,,,,,,,,,,,,,,,,,784.4105787000153,784.4202811999712,784.4202811999712,786.4290471000131,,return,2.0080769999767654,None,786.4293124999967,786.4387128999806,786.4387128999806,786.4311496000155,,None,,,,,3,2023-11-27_13h52.49.951,watkins1,2023.2.3,99.72754432921793,22,2023-11-27 13h52.58.848451 +0000,
,,,,,,,,,,,,,,,,,,,,,,,5,0,5,0,786.9307073000236,,,,,,,,,,789.3940925999777,789.8930171999964,,,,2.457660499960184,,,,,,,,,,,,None,None,,,,,,,,,,Telefon,,,cuedRecallAdj,3,,,,,,,,,,,,,,,,,,,0,,,,,,,,,,,,,,,,,,,,,,,,,,,,,,,,,786.9209978000144,786.9307073000236,786.9307073000236,789.3912543000188,neu,return,2.457660499960184,None,789.3915212000138,789.400911499979,789.400911499979,789.3939898000099,,None,,,,,3,2023-11-27_13h52.49.951,watkins1,2023.2.3,99.72754432921793,22,2023-11-27 13h52.58.848451 +0000,
,,,,,,,,,,,,,,,,,,,,,,,6,0,6,0,789.9029606999829,,,,,,,,,,791.6632963999873,792.1622696000268,,,,1.7493318000342697,,,,,,,,,,,,None,None,,,,,,,,,,Socke,,,cuedRecallAdj,3,,,,,,,,,,,,,,,,,,,0,,,,,,,,,,,,,,,,,,,,,,,,,,,,,,,,,789.8932638000115,789.9029606999829,789.9029606999829,791.6604876000201,nass,return,1.7493318000342697,None,791.6607501999824,791.6701614999911,791.6701614999911,791.663193800021,,None,,,,,3,2023-11-27_13h52.49.951,watkins1,2023.2.3,99.72754432921793,22,2023-11-27 13h52.58.848451 +0000,
,,,,,,,,,,,,,,,,,,,,,,,7,0,7,0,792.1723235999816,,,,,,,,,,794.5854066999746,795.0844181000139,,,,2.407990499981679,,,,,,,,,,,,None,None,,,,,,,,,,Buch,,,cuedRecallAdj,3,,,,,,,,,,,,,,,,,,,0,,,,,,,,,,,,,,,,,,,,,,,,,,,,,,,,,792.1625103999977,792.1723235999816,792.1723235999816,794.5825538000208,bunt,return,2.407990499981679,None,794.5828195000067,794.5922143000062,794.5922143000062,794.5853060000227,,None,,,,,3,2023-11-27_13h52.49.951,watkins1,2023.2.3,99.72754432921793,22,2023-11-27 13h52.58.848451 +0000,
,,,,,,,,,,,,,,,,,,,,,,,8,0,8,0,795.0943645000225,,,,,,,,,,797.7285607000231,798.2273229000275,,,,2.629905299982056,,,,,,,,,,,,None,None,,,,,,,,,,Eimer,,,cuedRecallAdj,3,,,,,,,,,,,,,,,,,,,0,,,,,,,,,,,,,,,,,,,,,,,,,,,,,,,,,795.084662600013,795.0943645000225,795.0943645000225,797.7256498999777,teuer,return,2.629905299982056,None,797.7259177999804,797.7353198999772,797.7353198999772,797.7284586000023,,None,,,,,3,2023-11-27_13h52.49.951,watkins1,2023.2.3,99.72754432921793,22,2023-11-27 13h52.58.848451 +0000,
,,,,,,,,,,,,,,,,,,,,,,,9,0,9,0,798.2372297000256,,,,,,,,,,800.8815903000068,801.3804233000265,,,,2.6390821000095457,,,,,,,,,,,,None,None,,,,,,,,,,Hut,,,cuedRecallAdj,3,,,,,,,,,,,,,,,,,,,0,,,,,,,,,,,,,,,,,,,,,,,,,,,,,,,,,798.2275681999745,798.2372297000256,798.2372297000256,800.8787604999961,dunkel,return,2.6390821000095457,None,800.8790299000102,800.8883057999774,800.8883057999774,800.8814883999876,,None,,,,,3,2023-11-27_13h52.49.951,watkins1,2023.2.3,99.72754432921793,22,2023-11-27 13h52.58.848451 +0000,
,,,,,,,,,,,,,,,,,,,,,,,10,0,10,0,801.3904777999851,,,,,,,,,,805.059009300021,805.5577639000257,,,,3.6618708000169136,,,,,,,,,,,,None,None,,,,,,,,,,Brille,,,cuedRecallAdj,3,,,,,,,,,,,,,,,,,,,0,,,,,,,,,,,,,,,,,,,,,,,,,,,,,,,,,801.3806658000103,801.3904777999851,801.3904777999851,805.0559887000127,stabil,return,3.6618708000169136,None,805.0562543999986,805.0655884000007,805.0655884000007,805.0589064999949,,None,,,,,3,2023-11-27_13h52.49.951,watkins1,2023.2.3,99.72754432921793,22,2023-11-27 13h52.58.848451 +0000,
,,,,,,,,,,,,,,,,,,,,,,,11,0,11,0,805.5677074000123,,,,,,,,,,809.9895496999961,810.488163299975,,,,4.412696900020819,,,,,,,,,,,,None,None,,,,,,,,,,Rucksack,,,cuedRecallAdj,3,,,,,,,,,,,,,,,,,,,0,,,,,,,,,,,,,,,,,,,,,,,,,,,,,,,,,805.5580053000012,805.5677074000123,805.5677074000123,809.9864355999744,parktisch,return,4.412696900020819,None,809.98670519999,809.9960915999836,809.9960915999836,809.9894458000199,,None,,,,,3,2023-11-27_13h52.49.951,watkins1,2023.2.3,99.72754432921793,22,2023-11-27 13h52.58.848451 +0000,
,,,,,,,,,,,,,,,,,,,,,,,12,0,12,0,810.4980695000268,,,,,,,,,,812.5300319999806,813.0286564999842,,,,2.0261905000079423,,,,,,,,,,,,None,None,,,,,,,,,,Löffel,,,cuedRecallAdj,3,,,,,,,,,,,,,,,,,,,0,,,,,,,,,,,,,,,,,,,,,,,,,,,,,,,,,810.4884080999764,810.4980695000268,810.4980695000268,812.5269968999783,breit,return,2.0261905000079423,None,812.5272627000231,812.5366709000082,812.5366709000082,812.5299296000157,,None,,,,,3,2023-11-27_13h52.49.951,watkins1,2023.2.3,99.72754432921793,22,2023-11-27 13h52.58.848451 +0000,
,,,,,,,,,,,,,,,,,,,,,,,13,0,13,0,813.0387156999786,,,,,,,,,,817.1992700999836,817.6982121000183,,,,4.149530200054869,,,,,,,,,,,,None,None,,,,,,,,,,Flasche,,,cuedRecallAdj,3,,,,,,,,,,,,,,,,,,,0,,,,,,,,,,,,,,,,,,,,,,,,,,,,,,,,,813.0289030999993,813.0387156999786,813.0387156999786,817.1963849000167,lang,return,4.149530200054869,None,817.1966529000201,817.2061125999899,817.2061125999899,817.1991648999974,,None,,,,,3,2023-11-27_13h52.49.951,watkins1,2023.2.3,99.72754432921793,22,2023-11-27 13h52.58.848451 +0000,
,,,,,,,,,,,,,,,,,,,,,,,14,0,14,0,817.7081501000212,,,,,,,,,,826.6386250000214,827.1375600000028,,,,8.920138099987525,,,,,,,,,,,,None,None,,,,,,,,,,Ring,,,cuedRecallAdj,3,,,,,,,,,,,,,,,,,,,0,,,,,,,,,,,,,,,,,,,,,,,,,,,,,,,,,817.6984605999896,817.7081501000212,817.7081501000212,826.6357515999698,schlicht,return,8.920138099987525,None,826.6360183000215,826.6454565000022,826.6454565000022,826.638523600006,,None,,,,,3,2023-11-27_13h52.49.951,watkins1,2023.2.3,99.72754432921793,22,2023-11-27 13h52.58.848451 +0000,
,,,,,,,,,,,,,,,,,,,,,,,15,0,15,0,827.1475093999761,,,,,,,,,,830.1237397000077,830.622028200014,,,,2.96866830001818,,,,,,,,,,,,None,None,,,,,,,,,,Geige,,,cuedRecallAdj,3,,,,,,,,,,,,,,,,,,,0,,,,,,,,,,,,,,,,,,,,,,,,,,,,,,,,,827.1378013999783,827.1475093999761,827.1475093999761,830.1203541000141,sportlich,return,2.96866830001818,None,830.1206402999815,830.1298945000162,830.1298945000162,830.1236280999728,,None,,,,,3,2023-11-27_13h52.49.951,watkins1,2023.2.3,99.72754432921793,22,2023-11-27 13h52.58.848451 +0000,
,,,,,,,,,,,,,,,,,,,,,,,16,0,16,0,830.631977299985,,,,,,,,,,844.552938400011,845.051642699982,,,,13.916298000025563,,,,,,,,,,,,None,None,,,,,,,,,,Bürste,,,cuedRecallAdj,3,,,,,,,,,,,,,,,,,,,0,,,,,,,,,,,,,,,,,,,,,,,,,,,,,,,,,830.6222707999987,830.631977299985,830.631977299985,844.549966200022,schön,return,13.916298000025563,None,844.550230599998,844.5594754000194,844.5594754000194,844.5528357999865,,None,,,,,3,2023-11-27_13h52.49.951,watkins1,2023.2.3,99.72754432921793,22,2023-11-27 13h52.58.848451 +0000,
,,,,,,,,,,,,,,,,,,,,,,,17,0,17,0,845.0615551000228,,,,,,,,,,847.5751087000244,848.0742391999811,,,,2.5026840000064112,,,,,,,,,,,,None,None,,,,,,,,,,Lampe,,,cuedRecallAdj,3,,,,,,,,,,,,,,,,,,,0,,,,,,,,,,,,,,,,,,,,,,,,,,,,,,,,,845.051890200004,845.0615551000228,845.0615551000228,847.5722966999747,kurz,return,2.5026840000064112,None,847.5725632000249,847.5819729000214,847.5819729000214,847.5750065000029,,None,,,,,3,2023-11-27_13h52.49.951,watkins1,2023.2.3,99.72754432921793,22,2023-11-27 13h52.58.848451 +0000,
,,,,,,,,,,,,,,,,,,,,,,,18,0,18,0,848.0841852999874,,,,,,,,,,854.4642418000149,854.9629646000103,,,,6.376053100044373,,,,,,,,,,,,None,None,,,,,,,,,,Kiste,,,cuedRecallAdj,3,,,,,,,,,,,,,,,,,,,0,,,,,,,,,,,,,,,,,,,,,,,,,,,,,,,,,848.0744816000224,848.0841852999874,848.0841852999874,854.4612621000269,elegant,return,6.376053100044373,None,854.4615285000182,854.4707677999977,854.4707677999977,854.464138499985,,None,,,,,3,2023-11-27_13h52.49.951,watkins1,2023.2.3,99.72754432921793,22,2023-11-27 13h52.58.848451 +0000,
,,,,,,,,,,,,,,,,,,,,,,,19,0,19,0,854.9728656000225,,,,,,,,,,857.697584700014,858.1963920000126,,,,2.7193551000091247,,,,,,,,,,,,None,None,,,,,,,,,,Hammer,,,cuedRecallAdj,3,,,,,,,,,,,,,,,,,,,0,,,,,,,,,,,,,,,,,,,,,,,,,,,,,,,,,854.9632088000071,854.9728656000225,854.9728656000225,857.6946382999886,blass,return,2.7193551000091247,None,857.6949020000175,857.7042138000252,857.7042138000252,857.6974835000001,,None,,,,,3,2023-11-27_13h52.49.951,watkins1,2023.2.3,99.72754432921793,22,2023-11-27 13h52.58.848451 +0000,
,,,,,,,,,,,,,,,,,,,,,,,20,0,20,0,858.2063394999714,,,,,,,,,,861.6342339999974,862.1327149000135,,,,3.4218428999884054,,,,,,,,,,,,None,None,,,,,,,,,,Jacke,,,cuedRecallAdj,3,,,,,,,,,,,,,,,,,,,0,,,,,,,,,,,,,,,,,,,,,,,,,,,,,,,,,858.1966364000109,858.2063394999714,858.2063394999714,861.6310975999804,teuer,return,3.4218428999884054,None,861.6313805999816,861.640599699982,861.640599699982,861.6341234999709,,None,,,,,3,2023-11-27_13h52.49.951,watkins1,2023.2.3,99.72754432921793,22,2023-11-27 13h52.58.848451 +0000,
,,,,,,,,,,,,,,,,,,,,,,,21,0,21,0,862.1427178999875,,,,,,,,,,868.0001510999864,868.4989896999905,,,,5.845522700052243,,,,,,,,,,,,None,None,,,,,,,,,,Uhr,,,cuedRecallAdj,3,,,,,,,,,,,,,,,,,,,0,,,,,,,,,,,,,,,,,,,,,,,,,,,,,,,,,862.1329585000058,862.1427178999875,862.1427178999875,867.9972724000108,biegsam,return,5.845522700052243,None,867.9975403000135,868.0069415000034,868.0069415000034,868.0000476000132,,None,,,,,3,2023-11-27_13h52.49.951,watkins1,2023.2.3,99.72754432921793,22,2023-11-27 13h52.58.848451 +0000,
,,,,,,,,,,,,,,,,,,,,,,,22,0,22,0,868.5089966999949,,,,,,,,,,876.0735968999797,876.5725291999988,,,,7.5591269000433385,,,,,,,,,,,,None,None,,,,,,,,,,Tasse,,,cuedRecallAdj,3,,,,,,,,,,,,,,,,,,,0,,,,,,,,,,,,,,,,,,,,,,,,,,,,,,,,,868.4992318999721,868.5089966999949,868.5089966999949,876.0707903999719,neu,return,7.5591269000433385,None,876.071055700013,876.08030099998,876.08030099998,876.0734943000134,,None,,,,,3,2023-11-27_13h52.49.951,watkins1,2023.2.3,99.72754432921793,22,2023-11-27 13h52.58.848451 +0000,
,,,,,,,,,,,,,,,,,,,,,,,23,0,23,0,876.582474099996,,,,,,,,,,878.5842286000261,879.0828844999778,,,,1.9976095000165515,,,,,,,,,,,,None,None,,,,,,,,,,Würfel,,,cuedRecallAdj,3,,,,,,,,,,,,,,,,,,,0,,,,,,,,,,,,,,,,,,,,,,,,,,,,,,,,,876.5727689000196,876.582474099996,876.582474099996,878.5812311000191,klobig,return,1.9976095000165515,None,878.5814988000202,878.5907926000073,878.5907926000073,878.5841271000099,,None,,,,,3,2023-11-27_13h52.49.951,watkins1,2023.2.3,99.72754432921793,22,2023-11-27 13h52.58.848451 +0000,
,,,,,,,,,,,,,,,,,,,,,,,24,0,24,0,879.0928246999974,,,,,,,,,,882.2895870999782,882.7882401000243,,,,3.1912126000388525,,,,,,,,,,,,None,None,,,,,,,,,,Schere,,,cuedRecallAdj,3,,,,,,,,,,,,,,,,,,,0,,,,,,,,,,,,,,,,,,,,,,,,,,,,,,,,,879.0831260000123,879.0928246999974,879.0928246999974,882.2865671999753,glänzend,return,3.1912126000388525,None,882.2868314000079,882.2961346000084,882.2961346000084,882.2894840000081,,None,,,,,3,2023-11-27_13h52.49.951,watkins1,2023.2.3,99.72754432921793,22,2023-11-27 13h52.58.848451 +0000,
,,,,,,,,,,,,,,,,,,,,,,,25,0,25,0,882.7981501999893,,,,,,,,,,896.6178459000075,897.1074752999702,,,,13.81400960002793,,,,,,,,,,,,None,None,,,,,,,,,,Schlüssel,,,cuedRecallAdj,3,,,,,,,,,,,,,,,,,,,0,,,,,,,,,,,,,,,,,,,,,,,,,,,,,,,,,882.7884847000241,882.7981501999893,882.7981501999893,896.6158640999929,glänzend,return,13.81400960002793,None,896.6161319999956,896.6254045999958,896.6254045999958,896.6177414000267,,None,,,,,3,2023-11-27_13h52.49.951,watkins1,2023.2.3,99.72754432921793,22,2023-11-27 13h52.58.848451 +0000,
,,,,,,,,,,,,,,,,,,,,,,,26,0,26,0,897.1173799000098,,,,,,,,,,900.5255158999935,901.0240427000099,,,,3.398749099986162,,,,,,,,,,,,None,None,,,,,,,,,,Tasche,,,cuedRecallAdj,3,,,,,,,,,,,,,,,,,,,0,,,,,,,,,,,,,,,,,,,,,,,,,,,,,,,,,897.1077188000199,897.1173799000098,897.1173799000098,900.5225142000127,teuer,return,3.398749099986162,None,900.5227806000039,900.5320630000206,900.5320630000206,900.5254130000249,,None,,,,,3,2023-11-27_13h52.49.951,watkins1,2023.2.3,99.72754432921793,22,2023-11-27 13h52.58.848451 +0000,
,,,,,,,,,,,,,,,,,,,,,,,27,0,27,0,901.0340906999772,,,,,,,,,,903.3872228999971,903.8860062999884,,,,2.3459466999629512,,,,,,,,,,,,None,None,,,,,,,,,,Kette,,,cuedRecallAdj,3,,,,,,,,,,,,,,,,,,,0,,,,,,,,,,,,,,,,,,,,,,,,,,,,,,,,,901.0242844999884,901.0340906999772,901.0340906999772,903.3842120000045,schlicht,return,2.3459466999629512,None,903.3844780999934,903.3938212000066,903.3938212000066,903.387119800027,,None,,,,,3,2023-11-27_13h52.49.951,watkins1,2023.2.3,99.72754432921793,22,2023-11-27 13h52.58.848451 +0000,
,,,,,,,,,,,,,,,,,,,,,,,28,0,28,0,903.8959556000191,,,,,,,,,,908.3180548999808,908.8163176000235,,,,4.4121851999661885,,,,,,,,,,,,None,None,,,,,,,,,,Trommel,,,cuedRecallAdj,3,,,,,,,,,,,,,,,,,,,0,,,,,,,,,,,,,,,,,,,,,,,,,,,,,,,,,903.8862494999776,903.8959556000191,903.8959556000191,908.3146791000036,schmutzig,return,4.4121851999661885,None,908.3150237000082,908.3241917000269,908.3241917000269,908.3179540999699,,None,,,,,3,2023-11-27_13h52.49.951,watkins1,2023.2.3,99.72754432921793,22,2023-11-27 13h52.58.848451 +0000,
,,,,,,,,,,,,,,,,,,,,,,,29,0,29,0,908.8262636999716,,,,,,,,,,914.2924197000102,914.7819239000091,,,,5.457799599971622,,,,,,,,,,,,None,None,,,,,,,,,,Kamera,,,cuedRecallAdj,3,,,,,,,,,,,,,,,,,,,0,,,,,,,,,,,,,,,,,,,,,,,,,,,,,,,,,908.8165579999913,908.8262636999716,908.8262636999716,914.2893980999943,kantig,return,5.457799599971622,None,914.2896655999939,914.2990669999854,914.2990669999854,914.2923143000226,,None,,,,,3,2023-11-27_13h52.49.951,watkins1,2023.2.3,99.72754432921793,22,2023-11-27 13h52.58.848451 +0000,
,,,,,,,,,,,,,,,,,,,,,,,,,,,,,,,,,,,,,,,,,,,,,,,,,,,,,,,,,,,,,,,,,,,,,3,,,,,,,,,,,,,,,,,,,,,,,,,,,,,,,,,,,,,,,,,,,,,,,,,,,,,,,,,,,,,,,,,,914.7988236999954,q,1173.8189262999804,None,3,2023-11-27_13h52.49.951,watkins1,2023.2.3,99.72754432921793,22,2023-11-27 13h52.58.848451 +0000,
