Equation,CorrectResponse,Correctbutton,trials_7.thisRepN,trials_7.thisTrialN,trials_7.thisN,trials_7.thisIndex,trials.thisRepN,trials.thisTrialN,trials.thisN,trials.thisIndex,trials_3.thisRepN,trials_3.thisTrialN,trials_3.thisN,trials_3.thisIndex,trials_2.thisRepN,trials_2.thisTrialN,trials_2.thisN,trials_2.thisIndex,trials_4.thisRepN,trials_4.thisTrialN,trials_4.thisN,trials_4.thisIndex,trials_5.thisRepN,trials_5.thisTrialN,trials_5.thisN,trials_5.thisIndex,thisRow.t,notes,code_marius.started,code_marius.stopped,welcome.started,welcome.stopped,instruction_study.started,instruction_study.stopped,fixationcross.started,fixationcross.stopped,blanc.started,blanc.stopped,study_control_probe.started,study_control_probe.stopped,responseKey,responseTime,scale_answer_2.keys,study_control_probe_2.started,study_control_probe_2.stopped,scale_answer_3.keys,scale_answer_3.rt,scale_answer_3.duration,blanc_2.started,blanc_2.stopped,test_attr_probe.started,test_attr_probe.stopped,recalled_attr,firstKeyTime,secondWordTime,blanc_3.started,blanc_3.stopped,test_sub_probe.started,test_sub_probe.stopped,recalled_sub,instruction_probe_end.started,instruction_probe_end.stopped,study.started,study.stopped,substantive,adjective,wordpair,task,condition,liste_sub_phase1,liste_adj_phase1,scale_answer.keys,scale_answer.rt,scale_answer.duration,code_defineWordsInit.started,code_defineWordsInit.stopped,liste_sub_phase2,study_control.started,study_control.stopped,scale_answer_4.keys,restudy_same.started,restudy_same.stopped,scale_answer_5.keys,restudy_different.started,restudy_different.stopped,scale_answer_6.keys,scale_answer_6.rt,scale_answer_6.duration,test_attr.started,test_attr.stopped,test_sub.started,test_sub.stopped,scale_answer_4.rt,scale_answer_4.duration,distractortask.started,equation_text.started,distractortask.stopped,mouse_answer.x,mouse_answer.y,mouse_answer.leftButton,mouse_answer.midButton,mouse_answer.rightButton,mouse_answer.time,mouse_answer.clicked_name,feedback_distractortask.started,feedback_distractortask.stopped,free_recall.started,text_enter.started,key_resp.started,free_recall.stopped,key_resp.keys,key_resp.rt,key_resp.duration,free_recalled_sub,mouse_continue.x,mouse_continue.y,mouse_continue.leftButton,mouse_continue.midButton,mouse_continue.rightButton,mouse_continue.time,mouse_continue.clicked_name,cued_recall.started,text_enter_2.started,correct,key_continue.started,cued_recall.stopped,recalled_attr1,key_continue.keys,key_continue.rt,key_continue.duration,cued_recall_2.started,text_enter_3.started,key_continue_2.started,cued_recall_2.stopped,recalled_attr2,key_continue_2.keys,key_continue_2.rt,key_continue_2.duration,key_resp_8.started,key_resp_8.keys,key_resp_8.rt,key_resp_8.duration,condition,date,expName,psychopyVersion,frameRate,participant,expStart,
,,,,,,,,,,,,,,,,,,,,,,,,,,,,,0.10467209992930293,0.1047394999768585,0.10474779992364347,3.5418823999352753,,,,,,,,,,,,,,,,,,,,,,,,,,,,,,,,,,,,,1,,,,,,,,,,,,,,,,,,,,,,,,,,,,,,,,,,,,,,,,,,,,,,,,,,,,,,,,,,,,,,,,,,,,,,,,,,1,2023-11-28_10h20.04.082,watkins1,2023.2.3,99.67555593890259,26,2023-11-28 10h20.12.559523 +0000,
,,,,,,,,,,,,,,,,,,,,,,,,,,,,,,,,,3.541931599844247,26.99655109993182,,,,,,,,,,,,,,,,,,,,,,,,,,,,,,,,,,,1,,,,,,,,,,,,,,,,,,,,,,,,,,,,,,,,,,,,,,,,,,,,,,,,,,,,,,,,,,,,,,,,,,,,,,,,,,1,2023-11-28_10h20.04.082,watkins1,2023.2.3,99.67555593890259,26,2023-11-28 10h20.12.559523 +0000,
,,,0,0,0,0,,,,,,,,,,,,,,,,,,,,,28.010172399925068,,,,,,,,26.996565999928862,28.000240599969402,34.49840469984338,34.98960829991847,28.492229799972847,34.498225199989974,1,1.906544999917969,None,34.98961899988353,40.99500159989111,1,1.906544999917969,None,40.995285499840975,40.99530959990807,40.99531659996137,40.99539559986442,,None,None,40.99556010006927,40.99558059987612,40.9955873999279,40.995658699888736,,,,,,,,,,1,,,,,,,,,,,,,,,,,,,,,,,,,,,,,,,,,,,,,,,,,,,,,,,,,,,,,,,,,,,,,,,,,,,,,,,,,,1,2023-11-28_10h20.04.082,watkins1,2023.2.3,99.67555593890259,26,2023-11-28 10h20.12.559523 +0000,
,,,,,,,,,,,,,,,,,,,,,,,,,,,,,,,,,,,,,,,,,,,,,,,,,,,,,,,,,,,,,40.99576899991371,45.127467799931765,,,,,,,1,,,,,,,,,,,,,,,,,,,,,,,,,,,,,,,,,,,,,,,,,,,,,,,,,,,,,,,,,,,,,,,,,,,,,,,,,,1,2023-11-28_10h20.04.082,watkins1,2023.2.3,99.67555593890259,26,2023-11-28 10h20.12.559523 +0000,
,,,,,,,0,0,0,0,,,,,,,,,,,,,,,,,46.14095799997449,,,,,,,,45.127483600052074,46.13102409988642,46.13145189988427,46.622990699950606,,,2,2.322075500153005,,,,,,,,,,,,,,,,,,,,,46.623001100029796,52.63193739997223,Uhr,groß,"['Uhr', 'groß']",restudy_diff,1,"['Uhr', 'Ring', 'Schere', 'Kette', 'Kamera', 'Blume', 'Geige', 'Vase', 'Schlüssel', 'Hut', 'Eimer', 'Bürste', 'Lampe', 'Rucksack', 'Kiste', 'Flasche', 'Hammer', 'Stift', 'Socke', 'Brille', 'Würfel', 'Kerze']",['groß'],2,2.322075500153005,None,,,,,,,,,,,,,,,,,,,,,,,,,,,,,,,,,,,,,,,,,,,,,,,,,,,,,,,,,,,,,,,,,,,,,1,2023-11-28_10h20.04.082,watkins1,2023.2.3,99.67555593890259,26,2023-11-28 10h20.12.559523 +0000,
,,,,,,,1,0,1,0,,,,,,,,,,,,,,,,,52.64141359995119,,,,,,,,,,52.63254490005784,53.123385600047186,,,3,2.9613376001361758,,,,,,,,,,,,,,,,,,,,,53.12339579989202,59.131812599953264,Ring,gut,"['Ring', 'gut']",control,1,"['Uhr', 'Ring', 'Schere', 'Kette', 'Kamera', 'Blume', 'Geige', 'Vase', 'Schlüssel', 'Hut', 'Eimer', 'Bürste', 'Lampe', 'Rucksack', 'Kiste', 'Flasche', 'Hammer', 'Stift', 'Socke', 'Brille', 'Würfel', 'Kerze']","['groß', 'gut']",3,2.9613376001361758,None,,,,,,,,,,,,,,,,,,,,,,,,,,,,,,,,,,,,,,,,,,,,,,,,,,,,,,,,,,,,,,,,,,,,,1,2023-11-28_10h20.04.082,watkins1,2023.2.3,99.67555593890259,26,2023-11-28 10h20.12.559523 +0000,
,,,,,,,2,0,2,0,,,,,,,,,,,,,,,,,59.14120209985413,,,,,,,,,,59.13229450001381,59.62325760000385,,,2,2.3409141001757234,,,,,,,,,,,,,,,,,,,,,59.62326899985783,65.63166829990223,Schere,dunkel,"['Schere', 'dunkel']",restudy_diff,1,"['Uhr', 'Ring', 'Schere', 'Kette', 'Kamera', 'Blume', 'Geige', 'Vase', 'Schlüssel', 'Hut', 'Eimer', 'Bürste', 'Lampe', 'Rucksack', 'Kiste', 'Flasche', 'Hammer', 'Stift', 'Socke', 'Brille', 'Würfel', 'Kerze']","['groß', 'gut', 'dunkel']",2,2.3409141001757234,None,,,,,,,,,,,,,,,,,,,,,,,,,,,,,,,,,,,,,,,,,,,,,,,,,,,,,,,,,,,,,,,,,,,,,1,2023-11-28_10h20.04.082,watkins1,2023.2.3,99.67555593890259,26,2023-11-28 10h20.12.559523 +0000,
,,,,,,,3,0,3,0,,,,,,,,,,,,,,,,,65.64105009986088,,,,,,,,,,65.63213360006921,66.12323629995808,,,3,3.0257683000527322,,,,,,,,,,,,,,,,,,,,,66.123245799914,72.13024179986678,Kette,winzig,"['Kette', 'winzig']",restudy_diff,1,"['Uhr', 'Ring', 'Schere', 'Kette', 'Kamera', 'Blume', 'Geige', 'Vase', 'Schlüssel', 'Hut', 'Eimer', 'Bürste', 'Lampe', 'Rucksack', 'Kiste', 'Flasche', 'Hammer', 'Stift', 'Socke', 'Brille', 'Würfel', 'Kerze']","['groß', 'gut', 'dunkel', 'winzig']",3,3.0257683000527322,None,,,,,,,,,,,,,,,,,,,,,,,,,,,,,,,,,,,,,,,,,,,,,,,,,,,,,,,,,,,,,,,,,,,,,1,2023-11-28_10h20.04.082,watkins1,2023.2.3,99.67555593890259,26,2023-11-28 10h20.12.559523 +0000,
,,,,,,,4,0,4,0,,,,,,,,,,,,,,,,,72.13968549994752,,,,,,,,,,72.13071659998968,72.62165139988065,,,3,1.166852300055325,,,,,,,,,,,,,,,,,,,,,72.6216754000634,78.6310067998711,Kamera,hübsch,"['Kamera', 'hübsch']",restudy_diff,1,"['Uhr', 'Ring', 'Schere', 'Kette', 'Kamera', 'Blume', 'Geige', 'Vase', 'Schlüssel', 'Hut', 'Eimer', 'Bürste', 'Lampe', 'Rucksack', 'Kiste', 'Flasche', 'Hammer', 'Stift', 'Socke', 'Brille', 'Würfel', 'Kerze']","['groß', 'gut', 'dunkel', 'winzig', 'hübsch']",3,1.166852300055325,None,,,,,,,,,,,,,,,,,,,,,,,,,,,,,,,,,,,,,,,,,,,,,,,,,,,,,,,,,,,,,,,,,,,,,1,2023-11-28_10h20.04.082,watkins1,2023.2.3,99.67555593890259,26,2023-11-28 10h20.12.559523 +0000,
,,,,,,,5,0,5,0,,,,,,,,,,,,,,,,,78.64044160000049,,,,,,,,,,78.63156590005383,79.12245909986086,,,1,1.6754588999319822,,,,,,,,,,,,,,,,,,,,,79.12246880005114,85.12575210002251,Blume,robust,"['Blume', 'robust']",control,1,"['Uhr', 'Ring', 'Schere', 'Kette', 'Kamera', 'Blume', 'Geige', 'Vase', 'Schlüssel', 'Hut', 'Eimer', 'Bürste', 'Lampe', 'Rucksack', 'Kiste', 'Flasche', 'Hammer', 'Stift', 'Socke', 'Brille', 'Würfel', 'Kerze']","['groß', 'gut', 'dunkel', 'winzig', 'hübsch', 'robust']",1,1.6754588999319822,None,,,,,,,,,,,,,,,,,,,,,,,,,,,,,,,,,,,,,,,,,,,,,,,,,,,,,,,,,,,,,,,,,,,,,1,2023-11-28_10h20.04.082,watkins1,2023.2.3,99.67555593890259,26,2023-11-28 10h20.12.559523 +0000,
,,,,,,,6,0,6,0,,,,,,,,,,,,,,,,,85.13500580005348,,,,,,,,,,85.12622720003128,85.61715279985219,,,3,4.0925967998337,,,,,,,,,,,,,,,,,,,,,85.61716350005008,91.62176959984936,Geige,kratzig,"['Geige', 'kratzig']",restudy_diff,1,"['Uhr', 'Ring', 'Schere', 'Kette', 'Kamera', 'Blume', 'Geige', 'Vase', 'Schlüssel', 'Hut', 'Eimer', 'Bürste', 'Lampe', 'Rucksack', 'Kiste', 'Flasche', 'Hammer', 'Stift', 'Socke', 'Brille', 'Würfel', 'Kerze']","['groß', 'gut', 'dunkel', 'winzig', 'hübsch', 'robust', 'kratzig']",3,4.0925967998337,None,,,,,,,,,,,,,,,,,,,,,,,,,,,,,,,,,,,,,,,,,,,,,,,,,,,,,,,,,,,,,,,,,,,,,1,2023-11-28_10h20.04.082,watkins1,2023.2.3,99.67555593890259,26,2023-11-28 10h20.12.559523 +0000,
,,,,,,,7,0,7,0,,,,,,,,,,,,,,,,,91.63123929989524,,,,,,,,,,91.62224599998444,92.11320729996078,,,1,1.3640602000523359,,,,,,,,,,,,,,,,,,,,,92.11321739992127,98.11561089986935,Vase,sportlich,"['Vase', 'sportlich']",restudy_diff,1,"['Uhr', 'Ring', 'Schere', 'Kette', 'Kamera', 'Blume', 'Geige', 'Vase', 'Schlüssel', 'Hut', 'Eimer', 'Bürste', 'Lampe', 'Rucksack', 'Kiste', 'Flasche', 'Hammer', 'Stift', 'Socke', 'Brille', 'Würfel', 'Kerze']","['groß', 'gut', 'dunkel', 'winzig', 'hübsch', 'robust', 'kratzig', 'sportlich']",1,1.3640602000523359,None,,,,,,,,,,,,,,,,,,,,,,,,,,,,,,,,,,,,,,,,,,,,,,,,,,,,,,,,,,,,,,,,,,,,,1,2023-11-28_10h20.04.082,watkins1,2023.2.3,99.67555593890259,26,2023-11-28 10h20.12.559523 +0000,
,,,,,,,8,0,8,0,,,,,,,,,,,,,,,,,98.12506800005212,,,,,,,,,,98.11610949994065,98.60707459994592,,,1,1.9914478999562562,,,,,,,,,,,,,,,,,,,,,98.6070858000312,104.61221639998257,Schlüssel,gepunktet,"['Schlüssel', 'gepunktet']",restudy_diff,1,"['Uhr', 'Ring', 'Schere', 'Kette', 'Kamera', 'Blume', 'Geige', 'Vase', 'Schlüssel', 'Hut', 'Eimer', 'Bürste', 'Lampe', 'Rucksack', 'Kiste', 'Flasche', 'Hammer', 'Stift', 'Socke', 'Brille', 'Würfel', 'Kerze']","['groß', 'gut', 'dunkel', 'winzig', 'hübsch', 'robust', 'kratzig', 'sportlich', 'gepunktet']",1,1.9914478999562562,None,,,,,,,,,,,,,,,,,,,,,,,,,,,,,,,,,,,,,,,,,,,,,,,,,,,,,,,,,,,,,,,,,,,,,1,2023-11-28_10h20.04.082,watkins1,2023.2.3,99.67555593890259,26,2023-11-28 10h20.12.559523 +0000,
,,,,,,,9,0,9,0,,,,,,,,,,,,,,,,,104.62169439997524,,,,,,,,,,104.61269069998525,105.10373570001684,,,3,1.726364400004968,,,,,,,,,,,,,,,,,,,,,105.10374489985406,111.1056567998603,Hut,glatt,"['Hut', 'glatt']",restudy_diff,1,"['Uhr', 'Ring', 'Schere', 'Kette', 'Kamera', 'Blume', 'Geige', 'Vase', 'Schlüssel', 'Hut', 'Eimer', 'Bürste', 'Lampe', 'Rucksack', 'Kiste', 'Flasche', 'Hammer', 'Stift', 'Socke', 'Brille', 'Würfel', 'Kerze']","['groß', 'gut', 'dunkel', 'winzig', 'hübsch', 'robust', 'kratzig', 'sportlich', 'gepunktet', 'glatt']",3,1.726364400004968,None,,,,,,,,,,,,,,,,,,,,,,,,,,,,,,,,,,,,,,,,,,,,,,,,,,,,,,,,,,,,,,,,,,,,,1,2023-11-28_10h20.04.082,watkins1,2023.2.3,99.67555593890259,26,2023-11-28 10h20.12.559523 +0000,
,,,,,,,10,0,10,0,,,,,,,,,,,,,,,,,111.11512089986354,,,,,,,,,,111.10612370003946,111.59718089993112,,,3,1.5288370999041945,,,,,,,,,,,,,,,,,,,,,111.59719110000879,117.59888720000163,Eimer,kalt,"['Eimer', 'kalt']",control,1,"['Uhr', 'Ring', 'Schere', 'Kette', 'Kamera', 'Blume', 'Geige', 'Vase', 'Schlüssel', 'Hut', 'Eimer', 'Bürste', 'Lampe', 'Rucksack', 'Kiste', 'Flasche', 'Hammer', 'Stift', 'Socke', 'Brille', 'Würfel', 'Kerze']","['groß', 'gut', 'dunkel', 'winzig', 'hübsch', 'robust', 'kratzig', 'sportlich', 'gepunktet', 'glatt', 'kalt']",3,1.5288370999041945,None,,,,,,,,,,,,,,,,,,,,,,,,,,,,,,,,,,,,,,,,,,,,,,,,,,,,,,,,,,,,,,,,,,,,,1,2023-11-28_10h20.04.082,watkins1,2023.2.3,99.67555593890259,26,2023-11-28 10h20.12.559523 +0000,
,,,,,,,11,0,11,0,,,,,,,,,,,,,,,,,117.60831759986468,,,,,,,,,,117.59934669989161,118.09030420007184,,,3,1.5400942000560462,,,,,,,,,,,,,,,,,,,,,118.09031470003538,124.09561640000902,Bürste,praktisch,"['Bürste', 'praktisch']",control,1,"['Uhr', 'Ring', 'Schere', 'Kette', 'Kamera', 'Blume', 'Geige', 'Vase', 'Schlüssel', 'Hut', 'Eimer', 'Bürste', 'Lampe', 'Rucksack', 'Kiste', 'Flasche', 'Hammer', 'Stift', 'Socke', 'Brille', 'Würfel', 'Kerze']","['groß', 'gut', 'dunkel', 'winzig', 'hübsch', 'robust', 'kratzig', 'sportlich', 'gepunktet', 'glatt', 'kalt', 'praktisch']",3,1.5400942000560462,None,,,,,,,,,,,,,,,,,,,,,,,,,,,,,,,,,,,,,,,,,,,,,,,,,,,,,,,,,,,,,,,,,,,,,1,2023-11-28_10h20.04.082,watkins1,2023.2.3,99.67555593890259,26,2023-11-28 10h20.12.559523 +0000,
,,,,,,,12,0,12,0,,,,,,,,,,,,,,,,,124.1051336999517,,,,,,,,,,124.0960796000436,124.58711139997467,,,2,2.1544208999257535,,,,,,,,,,,,,,,,,,,,,124.58712209993973,130.59065939998254,Lampe,rustikal,"['Lampe', 'rustikal']",restudy_diff,1,"['Uhr', 'Ring', 'Schere', 'Kette', 'Kamera', 'Blume', 'Geige', 'Vase', 'Schlüssel', 'Hut', 'Eimer', 'Bürste', 'Lampe', 'Rucksack', 'Kiste', 'Flasche', 'Hammer', 'Stift', 'Socke', 'Brille', 'Würfel', 'Kerze']","['groß', 'gut', 'dunkel', 'winzig', 'hübsch', 'robust', 'kratzig', 'sportlich', 'gepunktet', 'glatt', 'kalt', 'praktisch', 'rustikal']",2,2.1544208999257535,None,,,,,,,,,,,,,,,,,,,,,,,,,,,,,,,,,,,,,,,,,,,,,,,,,,,,,,,,,,,,,,,,,,,,,1,2023-11-28_10h20.04.082,watkins1,2023.2.3,99.67555593890259,26,2023-11-28 10h20.12.559523 +0000,
,,,,,,,13,0,13,0,,,,,,,,,,,,,,,,,130.59997739992104,,,,,,,,,,130.5911153999623,131.0820297000464,,,3,1.1886837999336421,,,,,,,,,,,,,,,,,,,,,131.08203960000537,137.0856623998843,Rucksack,dick,"['Rucksack', 'dick']",restudy_diff,1,"['Uhr', 'Ring', 'Schere', 'Kette', 'Kamera', 'Blume', 'Geige', 'Vase', 'Schlüssel', 'Hut', 'Eimer', 'Bürste', 'Lampe', 'Rucksack', 'Kiste', 'Flasche', 'Hammer', 'Stift', 'Socke', 'Brille', 'Würfel', 'Kerze']","['groß', 'gut', 'dunkel', 'winzig', 'hübsch', 'robust', 'kratzig', 'sportlich', 'gepunktet', 'glatt', 'kalt', 'praktisch', 'rustikal', 'dick']",3,1.1886837999336421,None,,,,,,,,,,,,,,,,,,,,,,,,,,,,,,,,,,,,,,,,,,,,,,,,,,,,,,,,,,,,,,,,,,,,,1,2023-11-28_10h20.04.082,watkins1,2023.2.3,99.67555593890259,26,2023-11-28 10h20.12.559523 +0000,
,,,,,,,14,0,14,0,,,,,,,,,,,,,,,,,137.09511510003358,,,,,,,,,,137.08613689988852,137.57709719985723,,,1,1.49248669994995,,,,,,,,,,,,,,,,,,,,,137.5771077000536,143.58765139989555,Kiste,flach,"['Kiste', 'flach']",restudy_diff,1,"['Uhr', 'Ring', 'Schere', 'Kette', 'Kamera', 'Blume', 'Geige', 'Vase', 'Schlüssel', 'Hut', 'Eimer', 'Bürste', 'Lampe', 'Rucksack', 'Kiste', 'Flasche', 'Hammer', 'Stift', 'Socke', 'Brille', 'Würfel', 'Kerze']","['groß', 'gut', 'dunkel', 'winzig', 'hübsch', 'robust', 'kratzig', 'sportlich', 'gepunktet', 'glatt', 'kalt', 'praktisch', 'rustikal', 'dick', 'flach']",1,1.49248669994995,None,,,,,,,,,,,,,,,,,,,,,,,,,,,,,,,,,,,,,,,,,,,,,,,,,,,,,,,,,,,,,,,,,,,,,1,2023-11-28_10h20.04.082,watkins1,2023.2.3,99.67555593890259,26,2023-11-28 10h20.12.559523 +0000,
,,,,,,,15,0,15,0,,,,,,,,,,,,,,,,,143.59712829999626,,,,,,,,,,143.58812620001845,144.07918670005165,,,3,1.6301847998984158,,,,,,,,,,,,,,,,,,,,,144.07919749990106,150.08652390004136,Flasche,schmutzig,"['Flasche', 'schmutzig']",control,1,"['Uhr', 'Ring', 'Schere', 'Kette', 'Kamera', 'Blume', 'Geige', 'Vase', 'Schlüssel', 'Hut', 'Eimer', 'Bürste', 'Lampe', 'Rucksack', 'Kiste', 'Flasche', 'Hammer', 'Stift', 'Socke', 'Brille', 'Würfel', 'Kerze']","['groß', 'gut', 'dunkel', 'winzig', 'hübsch', 'robust', 'kratzig', 'sportlich', 'gepunktet', 'glatt', 'kalt', 'praktisch', 'rustikal', 'dick', 'flach', 'schmutzig']",3,1.6301847998984158,None,,,,,,,,,,,,,,,,,,,,,,,,,,,,,,,,,,,,,,,,,,,,,,,,,,,,,,,,,,,,,,,,,,,,,1,2023-11-28_10h20.04.082,watkins1,2023.2.3,99.67555593890259,26,2023-11-28 10h20.12.559523 +0000,
,,,,,,,16,0,16,0,,,,,,,,,,,,,,,,,150.09593079984188,,,,,,,,,,150.08699909993447,150.5779715999961,,,2,1.484574900008738,,,,,,,,,,,,,,,,,,,,,150.57798199984245,156.5830176998861,Hammer,kurz,"['Hammer', 'kurz']",restudy_diff,1,"['Uhr', 'Ring', 'Schere', 'Kette', 'Kamera', 'Blume', 'Geige', 'Vase', 'Schlüssel', 'Hut', 'Eimer', 'Bürste', 'Lampe', 'Rucksack', 'Kiste', 'Flasche', 'Hammer', 'Stift', 'Socke', 'Brille', 'Würfel', 'Kerze']","['groß', 'gut', 'dunkel', 'winzig', 'hübsch', 'robust', 'kratzig', 'sportlich', 'gepunktet', 'glatt', 'kalt', 'praktisch', 'rustikal', 'dick', 'flach', 'schmutzig', 'kurz']",2,1.484574900008738,None,,,,,,,,,,,,,,,,,,,,,,,,,,,,,,,,,,,,,,,,,,,,,,,,,,,,,,,,,,,,,,,,,,,,,1,2023-11-28_10h20.04.082,watkins1,2023.2.3,99.67555593890259,26,2023-11-28 10h20.12.559523 +0000,
,,,,,,,17,0,17,0,,,,,,,,,,,,,,,,,156.59241929999553,,,,,,,,,,156.583496700041,157.07456330000423,,,1,1.707886500051245,,,,,,,,,,,,,,,,,,,,,157.0745731999632,163.0837607998401,Stift,breit,"['Stift', 'breit']",restudy_diff,1,"['Uhr', 'Ring', 'Schere', 'Kette', 'Kamera', 'Blume', 'Geige', 'Vase', 'Schlüssel', 'Hut', 'Eimer', 'Bürste', 'Lampe', 'Rucksack', 'Kiste', 'Flasche', 'Hammer', 'Stift', 'Socke', 'Brille', 'Würfel', 'Kerze']","['groß', 'gut', 'dunkel', 'winzig', 'hübsch', 'robust', 'kratzig', 'sportlich', 'gepunktet', 'glatt', 'kalt', 'praktisch', 'rustikal', 'dick', 'flach', 'schmutzig', 'kurz', 'breit']",1,1.707886500051245,None,,,,,,,,,,,,,,,,,,,,,,,,,,,,,,,,,,,,,,,,,,,,,,,,,,,,,,,,,,,,,,,,,,,,,1,2023-11-28_10h20.04.082,watkins1,2023.2.3,99.67555593890259,26,2023-11-28 10h20.12.559523 +0000,
,,,,,,,18,0,18,0,,,,,,,,,,,,,,,,,163.09315109997988,,,,,,,,,,163.08422489999793,163.5752000999637,,,1,1.5913024998735636,,,,,,,,,,,,,,,,,,,,,163.5752111999318,169.58496989984997,Socke,hohl,"['Socke', 'hohl']",restudy_diff,1,"['Uhr', 'Ring', 'Schere', 'Kette', 'Kamera', 'Blume', 'Geige', 'Vase', 'Schlüssel', 'Hut', 'Eimer', 'Bürste', 'Lampe', 'Rucksack', 'Kiste', 'Flasche', 'Hammer', 'Stift', 'Socke', 'Brille', 'Würfel', 'Kerze']","['groß', 'gut', 'dunkel', 'winzig', 'hübsch', 'robust', 'kratzig', 'sportlich', 'gepunktet', 'glatt', 'kalt', 'praktisch', 'rustikal', 'dick', 'flach', 'schmutzig', 'kurz', 'breit', 'hohl']",1,1.5913024998735636,None,,,,,,,,,,,,,,,,,,,,,,,,,,,,,,,,,,,,,,,,,,,,,,,,,,,,,,,,,,,,,,,,,,,,,1,2023-11-28_10h20.04.082,watkins1,2023.2.3,99.67555593890259,26,2023-11-28 10h20.12.559523 +0000,
,,,,,,,19,0,19,0,,,,,,,,,,,,,,,,,169.5944139000494,,,,,,,,,,169.58545459993184,170.07641079998575,,,2,1.4809898000676185,,,,,,,,,,,,,,,,,,,,,170.07642100006342,176.07746529998258,Brille,glänzend,"['Brille', 'glänzend']",restudy_diff,1,"['Uhr', 'Ring', 'Schere', 'Kette', 'Kamera', 'Blume', 'Geige', 'Vase', 'Schlüssel', 'Hut', 'Eimer', 'Bürste', 'Lampe', 'Rucksack', 'Kiste', 'Flasche', 'Hammer', 'Stift', 'Socke', 'Brille', 'Würfel', 'Kerze']","['groß', 'gut', 'dunkel', 'winzig', 'hübsch', 'robust', 'kratzig', 'sportlich', 'gepunktet', 'glatt', 'kalt', 'praktisch', 'rustikal', 'dick', 'flach', 'schmutzig', 'kurz', 'breit', 'hohl', 'glänzend']",2,1.4809898000676185,None,,,,,,,,,,,,,,,,,,,,,,,,,,,,,,,,,,,,,,,,,,,,,,,,,,,,,,,,,,,,,,,,,,,,,1,2023-11-28_10h20.04.082,watkins1,2023.2.3,99.67555593890259,26,2023-11-28 10h20.12.559523 +0000,
,,,,,,,20,0,20,0,,,,,,,,,,,,,,,,,176.08679159986787,,,,,,,,,,176.0779414998833,176.56894359993748,,,1,1.5644952000584453,,,,,,,,,,,,,,,,,,,,,176.5689542000182,182.57229469995946,Würfel,teuer,"['Würfel', 'teuer']",control,1,"['Uhr', 'Ring', 'Schere', 'Kette', 'Kamera', 'Blume', 'Geige', 'Vase', 'Schlüssel', 'Hut', 'Eimer', 'Bürste', 'Lampe', 'Rucksack', 'Kiste', 'Flasche', 'Hammer', 'Stift', 'Socke', 'Brille', 'Würfel', 'Kerze']","['groß', 'gut', 'dunkel', 'winzig', 'hübsch', 'robust', 'kratzig', 'sportlich', 'gepunktet', 'glatt', 'kalt', 'praktisch', 'rustikal', 'dick', 'flach', 'schmutzig', 'kurz', 'breit', 'hohl', 'glänzend', 'teuer']",1,1.5644952000584453,None,,,,,,,,,,,,,,,,,,,,,,,,,,,,,,,,,,,,,,,,,,,,,,,,,,,,,,,,,,,,,,,,,,,,,1,2023-11-28_10h20.04.082,watkins1,2023.2.3,99.67555593890259,26,2023-11-28 10h20.12.559523 +0000,
,,,,,,,21,0,21,0,,,,,,,,,,,,,,,,,182.5816913000308,,,,,,,,,,182.57277049985714,183.06376169994473,,,3,0.9347439000848681,,,,,,,,,,,,,,,,,,,,,183.06377170002088,189.06880309991539,Kerze,elegant,"['Kerze', 'elegant']",control,1,"['Uhr', 'Ring', 'Schere', 'Kette', 'Kamera', 'Blume', 'Geige', 'Vase', 'Schlüssel', 'Hut', 'Eimer', 'Bürste', 'Lampe', 'Rucksack', 'Kiste', 'Flasche', 'Hammer', 'Stift', 'Socke', 'Brille', 'Würfel', 'Kerze']","['groß', 'gut', 'dunkel', 'winzig', 'hübsch', 'robust', 'kratzig', 'sportlich', 'gepunktet', 'glatt', 'kalt', 'praktisch', 'rustikal', 'dick', 'flach', 'schmutzig', 'kurz', 'breit', 'hohl', 'glänzend', 'teuer', 'elegant']",3,0.9347439000848681,None,,,,,,,,,,,,,,,,,,,,,,,,,,,,,,,,,,,,,,,,,,,,,,,,,,,,,,,,,,,,,,,,,,,,,1,2023-11-28_10h20.04.082,watkins1,2023.2.3,99.67555593890259,26,2023-11-28 10h20.12.559523 +0000,
,,,,,,,,,,,0,0,0,0,,,,,,,,,,,,,189.0781620000489,,,,,,,,,,189.06958719994873,189.56013059988618,,,1,3.0645595998503268,,,,,,,,,,,,None,None,,,,,,,,,,Hut,blass,"['Hut', 'blass']",restudy_diff,1,,,,,,189.0695150999818,189.06956249987707,"['Hut', 'Tasche', 'Jacke', 'Geige', 'Telefon', 'Kiste', 'Tasse', 'Löffel', 'Schlüssel', 'Uhr', 'Hammer', 'Buch', 'Trommel', 'Brille', 'Rucksack', 'Fahrrad', 'Vase', 'Kamera', 'Socke', 'Kette', 'Lampe', 'Schere', 'Stift']",189.5601411999669,189.5628146000672,None,189.5629898000043,189.56539929984137,None,189.5655479999259,195.57513939985074,1,3.0645595998503268,None,195.57555059995502,195.57672909996472,195.57674199994653,195.57791980006732,,,,,,,,,,,,,,,,,,,,,,,,,,,,,,,,,,,,,,,,,,,,,,,,,,,1,2023-11-28_10h20.04.082,watkins1,2023.2.3,99.67555593890259,26,2023-11-28 10h20.12.559523 +0000,
,,,,,,,,,,,1,0,1,0,,,,,,,,,,,,,195.584529499989,,,,,,,,,,195.57818969991058,196.07665189984255,,,[],[],,,,,,,,,,,,None,None,,,,,,,,,,Tasche,durchsichtig,"['Tasche', 'durchsichtig']",control,1,,,,,,195.5781241999939,195.57816189993173,"['Hut', 'Tasche', 'Jacke', 'Geige', 'Telefon', 'Kiste', 'Tasse', 'Löffel', 'Schlüssel', 'Uhr', 'Hammer', 'Buch', 'Trommel', 'Brille', 'Rucksack', 'Fahrrad', 'Vase', 'Kamera', 'Socke', 'Kette', 'Lampe', 'Schere', 'Stift']",196.0766618999187,202.07910259999335,2,202.0794651999604,202.08229439985007,None,202.08239930006675,202.08506149984896,None,,,202.08516729995608,202.0863467999734,202.0863586999476,202.08765319990925,1.4241302001755685,None,,,,,,,,,,,,,,,,,,,,,,,,,,,,,,,,,,,,,,,,,,,,,,,,,1,2023-11-28_10h20.04.082,watkins1,2023.2.3,99.67555593890259,26,2023-11-28 10h20.12.559523 +0000,
,,,,,,,,,,,2,0,2,0,,,,,,,,,,,,,202.09131859987974,,,,,,,,,,202.08791959984228,202.58472370007075,,,[],[],,,,,,,,,,,,None,None,,,,,,,,,,Jacke,gestreift,"['Jacke', 'gestreift']",control,1,,,,,,202.0878558999393,202.08789470000193,"['Hut', 'Tasche', 'Jacke', 'Geige', 'Telefon', 'Kiste', 'Tasse', 'Löffel', 'Schlüssel', 'Uhr', 'Hammer', 'Buch', 'Trommel', 'Brille', 'Rucksack', 'Fahrrad', 'Vase', 'Kamera', 'Socke', 'Kette', 'Lampe', 'Schere', 'Stift']",202.5847340999171,208.58540729992092,2,208.58567569986917,208.5884143000003,None,208.58851719996892,208.59113650000654,None,,,208.59123739995994,208.59238479984924,208.59239650005475,208.59361690003425,1.4604228001553565,None,,,,,,,,,,,,,,,,,,,,,,,,,,,,,,,,,,,,,,,,,,,,,,,,,1,2023-11-28_10h20.04.082,watkins1,2023.2.3,99.67555593890259,26,2023-11-28 10h20.12.559523 +0000,
,,,,,,,,,,,3,0,3,0,,,,,,,,,,,,,208.59731299988925,,,,,,,,,,208.59388379985467,209.09050190006383,,,1,2.0808183001354337,,,,,,,,,,,,None,None,,,,,,,,,,Geige,neu,"['Geige', 'neu']",restudy_diff,1,,,,,,208.59381980006583,208.5938587000128,"['Hut', 'Tasche', 'Jacke', 'Geige', 'Telefon', 'Kiste', 'Tasse', 'Löffel', 'Schlüssel', 'Uhr', 'Hammer', 'Buch', 'Trommel', 'Brille', 'Rucksack', 'Fahrrad', 'Vase', 'Kamera', 'Socke', 'Kette', 'Lampe', 'Schere', 'Stift']",209.09051200002432,209.09208750003017,None,209.09220399986953,209.09380679996684,None,209.0939108999446,215.09706109995022,1,2.0808183001354337,None,215.09733320004307,215.09860979998484,215.09862139984034,215.09964689984918,,,,,,,,,,,,,,,,,,,,,,,,,,,,,,,,,,,,,,,,,,,,,,,,,,,1,2023-11-28_10h20.04.082,watkins1,2023.2.3,99.67555593890259,26,2023-11-28 10h20.12.559523 +0000,
,,,,,,,,,,,4,0,4,0,,,,,,,,,,,,,215.1064808999654,,,,,,,,,,215.09990939986892,215.59847910003737,,,[],[],,,,,,,,,,,,None,None,,,,,,,,,,Telefon,nass,"['Telefon', 'nass']",control,1,,,,,,215.09984509996139,215.09988339990377,"['Hut', 'Tasche', 'Jacke', 'Geige', 'Telefon', 'Kiste', 'Tasse', 'Löffel', 'Schlüssel', 'Uhr', 'Hammer', 'Buch', 'Trommel', 'Brille', 'Rucksack', 'Fahrrad', 'Vase', 'Kamera', 'Socke', 'Kette', 'Lampe', 'Schere', 'Stift']",215.598490400007,221.60576869989745,1,221.60604400001466,221.60874160006642,None,221.6088459000457,221.61125549999997,None,,,221.6113609999884,221.61255820002407,221.61256969999522,221.61361430003308,1.2160322000272572,None,,,,,,,,,,,,,,,,,,,,,,,,,,,,,,,,,,,,,,,,,,,,,,,,,1,2023-11-28_10h20.04.082,watkins1,2023.2.3,99.67555593890259,26,2023-11-28 10h20.12.559523 +0000,
,,,,,,,,,,,5,0,5,0,,,,,,,,,,,,,221.61729489988647,,,,,,,,,,221.61387979984283,222.11049830005504,,,3,3.14872909989208,,,,,,,,,,,,None,None,,,,,,,,,,Kiste,kaputt,"['Kiste', 'kaputt']",restudy_diff,1,,,,,,221.61381480004638,221.61385349999182,"['Hut', 'Tasche', 'Jacke', 'Geige', 'Telefon', 'Kiste', 'Tasse', 'Löffel', 'Schlüssel', 'Uhr', 'Hammer', 'Buch', 'Trommel', 'Brille', 'Rucksack', 'Fahrrad', 'Vase', 'Kamera', 'Socke', 'Kette', 'Lampe', 'Schere', 'Stift']",222.11050860001706,222.11206459999084,None,222.1121771999169,222.113599000033,None,222.11370069999248,228.12384729995392,3,3.14872909989208,None,228.12412359984592,228.12541699991561,228.125429000007,228.1266125999391,,,,,,,,,,,,,,,,,,,,,,,,,,,,,,,,,,,,,,,,,,,,,,,,,,,1,2023-11-28_10h20.04.082,watkins1,2023.2.3,99.67555593890259,26,2023-11-28 10h20.12.559523 +0000,
,,,,,,,,,,,6,0,6,0,,,,,,,,,,,,,228.13333169999532,,,,,,,,,,228.12687579984777,228.62577129993588,,,[],[],,,,,,,,,,,,None,None,,,,,,,,,,Tasse,flauschig,"['Tasse', 'flauschig']",control,1,,,,,,228.12681220006198,228.12684999988414,"['Hut', 'Tasche', 'Jacke', 'Geige', 'Telefon', 'Kiste', 'Tasse', 'Löffel', 'Schlüssel', 'Uhr', 'Hammer', 'Buch', 'Trommel', 'Brille', 'Rucksack', 'Fahrrad', 'Vase', 'Kamera', 'Socke', 'Kette', 'Lampe', 'Schere', 'Stift']",228.62578230001964,234.63574679987505,1,234.63601749995723,234.63871490000747,None,234.63881839998066,234.64147510007024,None,,,234.64157569990493,234.64273249986582,234.64274439984,234.6439702999778,1.2043528999201953,None,,,,,,,,,,,,,,,,,,,,,,,,,,,,,,,,,,,,,,,,,,,,,,,,,1,2023-11-28_10h20.04.082,watkins1,2023.2.3,99.67555593890259,26,2023-11-28 10h20.12.559523 +0000,
,,,,,,,,,,,7,0,7,0,,,,,,,,,,,,,234.64767510001548,,,,,,,,,,234.64423880004324,235.14107639994472,,,[],[],,,,,,,,,,,,None,None,,,,,,,,,,Löffel,hässlich,"['Löffel', 'hässlich']",control,1,,,,,,234.6441760000307,234.6442147998605,"['Hut', 'Tasche', 'Jacke', 'Geige', 'Telefon', 'Kiste', 'Tasse', 'Löffel', 'Schlüssel', 'Uhr', 'Hammer', 'Buch', 'Trommel', 'Brille', 'Rucksack', 'Fahrrad', 'Vase', 'Kamera', 'Socke', 'Kette', 'Lampe', 'Schere', 'Stift']",235.14108720002696,241.14252549991943,2,241.14280329993926,241.14564540004358,None,241.14575439994223,241.14834279986098,None,,,241.1484472998418,241.14963139989413,241.1496433999855,241.15086960000917,3.880416999803856,None,,,,,,,,,,,,,,,,,,,,,,,,,,,,,,,,,,,,,,,,,,,,,,,,,1,2023-11-28_10h20.04.082,watkins1,2023.2.3,99.67555593890259,26,2023-11-28 10h20.12.559523 +0000,
,,,,,,,,,,,8,0,8,0,,,,,,,,,,,,,241.1544965999201,,,,,,,,,,241.1511359999422,241.64791810000315,,,1,2.835056000156328,,,,,,,,,,,,None,None,,,,,,,,,,Schlüssel,bunt,"['Schlüssel', 'bunt']",restudy_diff,1,,,,,,241.15107250004075,241.15111129987054,"['Hut', 'Tasche', 'Jacke', 'Geige', 'Telefon', 'Kiste', 'Tasse', 'Löffel', 'Schlüssel', 'Uhr', 'Hammer', 'Buch', 'Trommel', 'Brille', 'Rucksack', 'Fahrrad', 'Vase', 'Kamera', 'Socke', 'Kette', 'Lampe', 'Schere', 'Stift']",241.647928299848,241.64958109986037,None,241.64969579991885,241.65120549988933,None,241.65131109999493,247.6579563000705,1,2.835056000156328,None,247.65827909996733,247.65978579991497,247.6597988998983,247.6608458000701,,,,,,,,,,,,,,,,,,,,,,,,,,,,,,,,,,,,,,,,,,,,,,,,,,,1,2023-11-28_10h20.04.082,watkins1,2023.2.3,99.67555593890259,26,2023-11-28 10h20.12.559523 +0000,
,,,,,,,,,,,9,0,9,0,,,,,,,,,,,,,247.66725190007128,,,,,,,,,,247.66112109995447,248.15962209994905,,,1,1.7697972999885678,,,,,,,,,,,,None,None,,,,,,,,,,Uhr,lang,"['Uhr', 'lang']",restudy_diff,1,,,,,,247.6610538000241,247.66109449998476,"['Hut', 'Tasche', 'Jacke', 'Geige', 'Telefon', 'Kiste', 'Tasse', 'Löffel', 'Schlüssel', 'Uhr', 'Hammer', 'Buch', 'Trommel', 'Brille', 'Rucksack', 'Fahrrad', 'Vase', 'Kamera', 'Socke', 'Kette', 'Lampe', 'Schere', 'Stift']",248.15963270002976,248.16245169984177,None,248.16256610001437,248.16484940005466,None,248.16495550004765,254.16828159987926,1,1.7697972999885678,None,254.16855669999495,254.16971809999086,254.1697300998494,254.17078609997407,,,,,,,,,,,,,,,,,,,,,,,,,,,,,,,,,,,,,,,,,,,,,,,,,,,1,2023-11-28_10h20.04.082,watkins1,2023.2.3,99.67555593890259,26,2023-11-28 10h20.12.559523 +0000,
,,,,,,,,,,,10,0,10,0,,,,,,,,,,,,,254.17774609988555,,,,,,,,,,254.17105760006234,254.66983369993977,,,1,1.4193753998260945,,,,,,,,,,,,None,None,,,,,,,,,,Hammer,niedlich,"['Hammer', 'niedlich']",restudy_diff,1,,,,,,254.17099249991588,254.17103079985827,"['Hut', 'Tasche', 'Jacke', 'Geige', 'Telefon', 'Kiste', 'Tasse', 'Löffel', 'Schlüssel', 'Uhr', 'Hammer', 'Buch', 'Trommel', 'Brille', 'Rucksack', 'Fahrrad', 'Vase', 'Kamera', 'Socke', 'Kette', 'Lampe', 'Schere', 'Stift']",254.66984519991092,254.67244579992257,None,254.67256379988976,254.67499660002068,None,254.67509889998473,260.68405029992573,1,1.4193753998260945,None,260.68432500003837,260.68563289986923,260.68564499984495,260.6868696999736,,,,,,,,,,,,,,,,,,,,,,,,,,,,,,,,,,,,,,,,,,,,,,,,,,,1,2023-11-28_10h20.04.082,watkins1,2023.2.3,99.67555593890259,26,2023-11-28 10h20.12.559523 +0000,
,,,,,,,,,,,11,0,11,0,,,,,,,,,,,,,260.69344459986314,,,,,,,,,,260.68713900004514,261.1856076999102,,,[],[],,,,,,,,,,,,None,None,,,,,,,,,,Buch,schlicht,"['Buch', 'schlicht']",control,1,,,,,,260.6870746000204,260.68711249995977,"['Hut', 'Tasche', 'Jacke', 'Geige', 'Telefon', 'Kiste', 'Tasse', 'Löffel', 'Schlüssel', 'Uhr', 'Hammer', 'Buch', 'Trommel', 'Brille', 'Rucksack', 'Fahrrad', 'Vase', 'Kamera', 'Socke', 'Kette', 'Lampe', 'Schere', 'Stift']",261.1856174999848,267.1886193000246,3,267.1889016998466,267.1914635999128,None,267.191567099886,267.19395460002124,None,,,267.1940591998864,267.1951025999151,267.19511440000497,267.19630900002085,1.6047875001095235,None,,,,,,,,,,,,,,,,,,,,,,,,,,,,,,,,,,,,,,,,,,,,,,,,,1,2023-11-28_10h20.04.082,watkins1,2023.2.3,99.67555593890259,26,2023-11-28 10h20.12.559523 +0000,
,,,,,,,,,,,12,0,12,0,,,,,,,,,,,,,267.2000160999596,,,,,,,,,,267.19657159992494,267.69305470003746,,,[],[],,,,,,,,,,,,None,None,,,,,,,,,,Trommel,nachhaltig,"['Trommel', 'nachhaltig']",control,1,,,,,,267.19650930003263,267.1965472998563,"['Hut', 'Tasche', 'Jacke', 'Geige', 'Telefon', 'Kiste', 'Tasse', 'Löffel', 'Schlüssel', 'Uhr', 'Hammer', 'Buch', 'Trommel', 'Brille', 'Rucksack', 'Fahrrad', 'Vase', 'Kamera', 'Socke', 'Kette', 'Lampe', 'Schere', 'Stift']",267.693065200001,273.7019239999354,2,273.70219239988364,273.70493149990216,None,273.7050343998708,273.70763499988243,None,,,273.7077363000717,273.70891649997793,273.70892810006626,273.7101614999119,1.7289714000653476,None,,,,,,,,,,,,,,,,,,,,,,,,,,,,,,,,,,,,,,,,,,,,,,,,,1,2023-11-28_10h20.04.082,watkins1,2023.2.3,99.67555593890259,26,2023-11-28 10h20.12.559523 +0000,
,,,,,,,,,,,13,0,13,0,,,,,,,,,,,,,273.7138416999951,,,,,,,,,,273.71042399993166,274.20719079999253,,,3,1.5878113999497145,,,,,,,,,,,,None,None,,,,,,,,,,Brille,lustig,"['Brille', 'lustig']",restudy_diff,1,,,,,,273.7103619000409,273.7103993999772,"['Hut', 'Tasche', 'Jacke', 'Geige', 'Telefon', 'Kiste', 'Tasse', 'Löffel', 'Schlüssel', 'Uhr', 'Hammer', 'Buch', 'Trommel', 'Brille', 'Rucksack', 'Fahrrad', 'Vase', 'Kamera', 'Socke', 'Kette', 'Lampe', 'Schere', 'Stift']",274.207200899953,274.2087600999512,None,274.20887400000356,274.21049680002034,None,274.21060199989006,280.2169627000112,3,1.5878113999497145,None,280.2172437000554,280.2185573000461,280.2185694000218,280.21976689994335,,,,,,,,,,,,,,,,,,,,,,,,,,,,,,,,,,,,,,,,,,,,,,,,,,,1,2023-11-28_10h20.04.082,watkins1,2023.2.3,99.67555593890259,26,2023-11-28 10h20.12.559523 +0000,
,,,,,,,,,,,14,0,14,0,,,,,,,,,,,,,280.22643679985777,,,,,,,,,,280.2200356000103,280.71844009985216,,,1,1.1783443000167608,,,,,,,,,,,,None,None,,,,,,,,,,Rucksack,matt,"['Rucksack', 'matt']",restudy_diff,1,,,,,,280.2199713999871,280.22000940004364,"['Hut', 'Tasche', 'Jacke', 'Geige', 'Telefon', 'Kiste', 'Tasse', 'Löffel', 'Schlüssel', 'Uhr', 'Hammer', 'Buch', 'Trommel', 'Brille', 'Rucksack', 'Fahrrad', 'Vase', 'Kamera', 'Socke', 'Kette', 'Lampe', 'Schere', 'Stift']",280.71845129993744,280.72120340005495,None,280.7213198998943,280.7240641999524,None,280.72416909993626,286.72630940005183,1,1.1783443000167608,None,286.72658869996667,286.72793459985405,286.7279469000641,286.72900729998946,,,,,,,,,,,,,,,,,,,,,,,,,,,,,,,,,,,,,,,,,,,,,,,,,,,1,2023-11-28_10h20.04.082,watkins1,2023.2.3,99.67555593890259,26,2023-11-28 10h20.12.559523 +0000,
,,,,,,,,,,,15,0,15,0,,,,,,,,,,,,,286.7357030999847,,,,,,,,,,286.72927669994533,287.22771840007044,,,[],[],,,,,,,,,,,,None,None,,,,,,,,,,Fahrrad,schwer,"['Fahrrad', 'schwer']",control,1,,,,,,286.7292114000302,286.72924999985844,"['Hut', 'Tasche', 'Jacke', 'Geige', 'Telefon', 'Kiste', 'Tasse', 'Löffel', 'Schlüssel', 'Uhr', 'Hammer', 'Buch', 'Trommel', 'Brille', 'Rucksack', 'Fahrrad', 'Vase', 'Kamera', 'Socke', 'Kette', 'Lampe', 'Schere', 'Stift']",287.2277289999183,293.22959410003386,1,293.22987230005674,293.23265539994463,None,293.2327608000487,293.2352972999215,None,,,293.23540050000884,293.23660429986194,293.23661620006897,293.23780200001784,1.282561399973929,None,,,,,,,,,,,,,,,,,,,,,,,,,,,,,,,,,,,,,,,,,,,,,,,,,1,2023-11-28_10h20.04.082,watkins1,2023.2.3,99.67555593890259,26,2023-11-28 10h20.12.559523 +0000,
,,,,,,,,,,,16,0,16,0,,,,,,,,,,,,,293.2414595000446,,,,,,,,,,293.2380719999783,293.7347464999184,,,1,1.4288941998966038,,,,,,,,,,,,None,None,,,,,,,,,,Vase,biegsam,"['Vase', 'biegsam']",restudy_diff,1,,,,,,293.2380085999612,293.23804769990966,"['Hut', 'Tasche', 'Jacke', 'Geige', 'Telefon', 'Kiste', 'Tasse', 'Löffel', 'Schlüssel', 'Uhr', 'Hammer', 'Buch', 'Trommel', 'Brille', 'Rucksack', 'Fahrrad', 'Vase', 'Kamera', 'Socke', 'Kette', 'Lampe', 'Schere', 'Stift']",293.7347577000037,293.7361937998794,None,293.7363090000581,293.7376147999894,None,293.7377184999641,299.7397630000487,1,1.4288941998966038,None,299.74005450005643,299.74121850007214,299.7412306999322,299.7424403000623,,,,,,,,,,,,,,,,,,,,,,,,,,,,,,,,,,,,,,,,,,,,,,,,,,,1,2023-11-28_10h20.04.082,watkins1,2023.2.3,99.67555593890259,26,2023-11-28 10h20.12.559523 +0000,
,,,,,,,,,,,17,0,17,0,,,,,,,,,,,,,299.74923019995913,,,,,,,,,,299.7427107999101,300.24125960003585,,,2,1.5034207999706268,,,,,,,,,,,,None,None,,,,,,,,,,Kamera,sauber,"['Kamera', 'sauber']",restudy_diff,1,,,,,,299.74264690000564,299.74268470006064,"['Hut', 'Tasche', 'Jacke', 'Geige', 'Telefon', 'Kiste', 'Tasse', 'Löffel', 'Schlüssel', 'Uhr', 'Hammer', 'Buch', 'Trommel', 'Brille', 'Rucksack', 'Fahrrad', 'Vase', 'Kamera', 'Socke', 'Kette', 'Lampe', 'Schere', 'Stift']",300.24126989999786,300.2440227000043,None,300.24414129997604,300.2467354000546,None,300.24684050004,306.25686650001444,2,1.5034207999706268,None,306.25714739994146,306.25854690000415,306.25855899997987,306.25977790006436,,,,,,,,,,,,,,,,,,,,,,,,,,,,,,,,,,,,,,,,,,,,,,,,,,,1,2023-11-28_10h20.04.082,watkins1,2023.2.3,99.67555593890259,26,2023-11-28 10h20.12.559523 +0000,
,,,,,,,,,,,18,0,18,0,,,,,,,,,,,,,306.26628109999,,,,,,,,,,306.2600489000324,306.75889439997263,,,1,1.2980190999805927,,,,,,,,,,,,None,None,,,,,,,,,,Socke,klobig,"['Socke', 'klobig']",restudy_diff,1,,,,,,306.2599835000001,306.260021999944,"['Hut', 'Tasche', 'Jacke', 'Geige', 'Telefon', 'Kiste', 'Tasse', 'Löffel', 'Schlüssel', 'Uhr', 'Hammer', 'Buch', 'Trommel', 'Brille', 'Rucksack', 'Fahrrad', 'Vase', 'Kamera', 'Socke', 'Kette', 'Lampe', 'Schere', 'Stift']",306.7589054000564,306.761627699947,None,306.7617464000359,306.76429499988444,None,306.7643988998607,312.7681827999186,1,1.2980190999805927,None,312.7684605999384,312.77004890004173,312.770061600022,312.7712635998614,,,,,,,,,,,,,,,,,,,,,,,,,,,,,,,,,,,,,,,,,,,,,,,,,,,1,2023-11-28_10h20.04.082,watkins1,2023.2.3,99.67555593890259,26,2023-11-28 10h20.12.559523 +0000,
,,,,,,,,,,,19,0,19,0,,,,,,,,,,,,,312.77748359995894,,,,,,,,,,312.77153809997253,313.2696352999192,,,3,1.6981627000495791,,,,,,,,,,,,None,None,,,,,,,,,,Kette,verspielt,"['Kette', 'verspielt']",restudy_diff,1,,,,,,312.7714724999387,312.7715115000028,"['Hut', 'Tasche', 'Jacke', 'Geige', 'Telefon', 'Kiste', 'Tasse', 'Löffel', 'Schlüssel', 'Uhr', 'Hammer', 'Buch', 'Trommel', 'Brille', 'Rucksack', 'Fahrrad', 'Vase', 'Kamera', 'Socke', 'Kette', 'Lampe', 'Schere', 'Stift']",313.26964549999684,313.2723308999557,None,313.2724480999168,313.27501089987345,None,313.2751158999745,319.2819494998548,3,1.6981627000495791,None,319.28222239995375,319.2836199000012,319.2836317999754,319.28493910003453,,,,,,,,,,,,,,,,,,,,,,,,,,,,,,,,,,,,,,,,,,,,,,,,,,,1,2023-11-28_10h20.04.082,watkins1,2023.2.3,99.67555593890259,26,2023-11-28 10h20.12.559523 +0000,
,,,,,,,,,,,20,0,20,0,,,,,,,,,,,,,319.291383799864,,,,,,,,,,319.2852099998854,319.7835208000615,,,3,2.4173774998635054,,,,,,,,,,,,None,None,,,,,,,,,,Lampe,zart,"['Lampe', 'zart']",restudy_diff,1,,,,,,319.2851447998546,319.2851835000329,"['Hut', 'Tasche', 'Jacke', 'Geige', 'Telefon', 'Kiste', 'Tasse', 'Löffel', 'Schlüssel', 'Uhr', 'Hammer', 'Buch', 'Trommel', 'Brille', 'Rucksack', 'Fahrrad', 'Vase', 'Kamera', 'Socke', 'Kette', 'Lampe', 'Schere', 'Stift']",319.78353159991093,319.78629319998436,None,319.7864101000596,319.78900490002707,None,319.78911249991506,325.7966133998707,3,2.4173774998635054,None,325.79689450003207,325.7982811999973,325.7982935998589,325.7993627998512,,,,,,,,,,,,,,,,,,,,,,,,,,,,,,,,,,,,,,,,,,,,,,,,,,,1,2023-11-28_10h20.04.082,watkins1,2023.2.3,99.67555593890259,26,2023-11-28 10h20.12.559523 +0000,
,,,,,,,,,,,21,0,21,0,,,,,,,,,,,,,325.8060355000198,,,,,,,,,,325.79963420005515,326.2979271998629,,,3,2.8872444999869913,,,,,,,,,,,,None,None,,,,,,,,,,Schere,strahlend,"['Schere', 'strahlend']",restudy_diff,1,,,,,,325.79957000003196,325.79960779985413,"['Hut', 'Tasche', 'Jacke', 'Geige', 'Telefon', 'Kiste', 'Tasse', 'Löffel', 'Schlüssel', 'Uhr', 'Hammer', 'Buch', 'Trommel', 'Brille', 'Rucksack', 'Fahrrad', 'Vase', 'Kamera', 'Socke', 'Kette', 'Lampe', 'Schere', 'Stift']",326.29793739994057,326.300511599984,None,326.3006285999436,326.3030194998719,None,326.30312160006724,332.30426949984394,3,2.8872444999869913,None,332.3045506000053,332.3058632998727,332.3058752999641,332.3071298999712,,,,,,,,,,,,,,,,,,,,,,,,,,,,,,,,,,,,,,,,,,,,,,,,,,,1,2023-11-28_10h20.04.082,watkins1,2023.2.3,99.67555593890259,26,2023-11-28 10h20.12.559523 +0000,
,,,,,,,,,,,22,0,22,0,,,,,,,,,,,,,332.31373269995674,,,,,,,,,,332.3073976999149,332.80582419992425,,,1,1.306976400082931,,,,,,,,,,,,None,None,,,,,,,,,,Stift,krumm,"['Stift', 'krumm']",restudy_diff,1,,,,,,332.30733360000886,332.3073714999482,"['Hut', 'Tasche', 'Jacke', 'Geige', 'Telefon', 'Kiste', 'Tasse', 'Löffel', 'Schlüssel', 'Uhr', 'Hammer', 'Buch', 'Trommel', 'Brille', 'Rucksack', 'Fahrrad', 'Vase', 'Kamera', 'Socke', 'Kette', 'Lampe', 'Schere', 'Stift']",332.80583560001105,332.8087013999466,None,332.8088195999153,332.81142969988286,None,332.8115363998804,338.81917029991746,1,1.306976400082931,None,338.8194532999769,338.8207667998504,338.82077890005894,338.821937300032,,,,,,,,,,,,,,,,,,,,,,,,,,,,,,,,,,,,,,,,,,,,,,,,,,,1,2023-11-28_10h20.04.082,watkins1,2023.2.3,99.67555593890259,26,2023-11-28 10h20.12.559523 +0000,
,,,,,,,,,,,,,,,,,,,,,,,,,,,,,,,,,,,,,,,,,,,,,,,,,,,,,,,,,,,,,,,,,,,,,1,,,,,,,,,,,,,,,,,,,,,,,,,,,,,,,,,,,,,,,,,,,,,,,,,,,,,,,,,,,,,,,,,,,,,,,,,,1,2023-11-28_10h20.04.082,watkins1,2023.2.3,99.67555593890259,26,2023-11-28 10h20.12.559523 +0000,
(40 : 5) + 8 = 15 ,Incorrect,button_incorrect,,,,,,,,,,,,,0,0,0,7,,,,,,,,,354.43794739991426,,,,,,,,353.3780075998511,354.3824670999311,,,,,['button_incorrect'],[7.108193699968979],,,,,,,,,,,,,,,,,,,,,,,,,,distractorTask,1,,,,,,,,,,,,,,,,,,,,,,,,,,354.42600079998374,354.43794739991426,361.539805599954,[-0.2935185185185185],[-0.39814814814814814],[1],[0],[0],[7.108193699968979],['button_incorrect'],361.5404960999731,362.54359059990384,,,,,,,,,,,,,,,,,,,,,,,,,,,,,,,,,,,,,1,2023-11-28_10h20.04.082,watkins1,2023.2.3,99.67555593890259,26,2023-11-28 10h20.12.559523 +0000,
(2 x 5) + 3 = 13 ,Correct,button_correct,,,,,,,,,,,,,0,1,1,2,,,,,,,,,362.5535627999343,,,,,,,,,,,,,,['button_correct'],[2.6976425000466406],,,,,,,,,,,,,,,,,,,,,,,,,,distractorTask,1,,,,,,,,,,,,,,,,,,,,,,,,,,362.54379469994456,362.5535627999343,365.24474849994294,[0.3425925925925926],[-0.4212962962962963],[1],[0],[0],[2.6976425000466406],['button_correct'],365.2451319999527,366.2484279999044,,,,,,,,,,,,,,,,,,,,,,,,,,,,,,,,,,,,,1,2023-11-28_10h20.04.082,watkins1,2023.2.3,99.67555593890259,26,2023-11-28 10h20.12.559523 +0000,
(25 : 5) + 5 = 9 ,Incorrect,button_incorrect,,,,,,,,,,,,,0,2,2,6,,,,,,,,,366.25840689986944,,,,,,,,,,,,,,['button_incorrect'],[2.7287616000976413],,,,,,,,,,,,,,,,,,,,,,,,,,distractorTask,1,,,,,,,,,,,,,,,,,,,,,,,,,,366.2486290000379,366.25840689986944,368.9800851000473,[-0.3768518518518518],[-0.40925925925925927],[1],[0],[0],[2.7287616000976413],['button_incorrect'],368.9804720999673,369.98336709989235,,,,,,,,,,,,,,,,,,,,,,,,,,,,,,,,,,,,,1,2023-11-28_10h20.04.082,watkins1,2023.2.3,99.67555593890259,26,2023-11-28 10h20.12.559523 +0000,
(80 : 10) + 9 = 17 ,Correct,button_correct,,,,,,,,,,,,,0,3,3,3,,,,,,,,,369.99344759993255,,,,,,,,,,,,,,['button_correct'],[3.4320403998717666],,,,,,,,,,,,,,,,,,,,,,,,,,distractorTask,1,,,,,,,,,,,,,,,,,,,,,,,,,,369.9835586999543,369.99344759993255,373.41797609999776,[0.37222222222222223],[-0.41388888888888886],[1],[0],[0],[3.4320403998717666],['button_correct'],373.41835849988274,374.4214862000663,,,,,,,,,,,,,,,,,,,,,,,,,,,,,,,,,,,,,1,2023-11-28_10h20.04.082,watkins1,2023.2.3,99.67555593890259,26,2023-11-28 10h20.12.559523 +0000,
(6 x 3) + 10 = 27 ,Incorrect,button_incorrect,,,,,,,,,,,,,0,4,4,8,,,,,,,,,374.43147199996747,,,,,,,,,,,,,,['button_incorrect'],[2.728851899970323],,,,,,,,,,,,,,,,,,,,,,,,,,distractorTask,1,,,,,,,,,,,,,,,,,,,,,,,,,,374.42167559987865,374.43147199996747,377.1527702999301,[-0.287962962962963],[-0.39537037037037037],[1],[0],[0],[2.728851899970323],['button_incorrect'],377.1531553999521,378.1563381999731,,,,,,,,,,,,,,,,,,,,,,,,,,,,,,,,,,,,,1,2023-11-28_10h20.04.082,watkins1,2023.2.3,99.67555593890259,26,2023-11-28 10h20.12.559523 +0000,
(54 : 6) - 10 = 0 ,Incorrect,button_incorrect,,,,,,,,,,,,,0,5,5,5,,,,,,,,,378.16634280001745,,,,,,,,,,,,,,['button_incorrect'],[8.362444399856031],,,,,,,,,,,,,,,,,,,,,,,,,,distractorTask,1,,,,,,,,,,,,,,,,,,,,,,,,,,378.1565274000168,378.16634280001745,386.52123690000735,[-0.3537037037037037],[-0.387037037037037],[1],[0],[0],[8.362444399856031],['button_incorrect'],386.52163299988024,387.5246057000477,,,,,,,,,,,,,,,,,,,,,,,,,,,,,,,,,,,,,1,2023-11-28_10h20.04.082,watkins1,2023.2.3,99.67555593890259,26,2023-11-28 10h20.12.559523 +0000,
(4 : 2) + 4 = 6 ,Correct,button_correct,,,,,,,,,,,,,0,6,6,1,,,,,,,,,387.5345860000234,,,,,,,,,,,,,,['button_correct'],[2.6812867000699043],,,,,,,,,,,,,,,,,,,,,,,,,,distractorTask,1,,,,,,,,,,,,,,,,,,,,,,,,,,387.5248097998556,387.5345860000234,390.2078716000542,[0.39537037037037037],[-0.4166666666666667],[1],[0],[0],[2.6812867000699043],['button_correct'],390.20825719996355,391.2114067999646,,,,,,,,,,,,,,,,,,,,,,,,,,,,,,,,,,,,,1,2023-11-28_10h20.04.082,watkins1,2023.2.3,99.67555593890259,26,2023-11-28 10h20.12.559523 +0000,
(7 x 6) + 9 = 48 ,Incorrect,button_incorrect,,,,,,,,,,,,,0,7,7,9,,,,,,,,,391.22144420002587,,,,,,,,,,,,,,['button_incorrect'],[3.553017199970782],,,,,,,,,,,,,,,,,,,,,,,,,,distractorTask,1,,,,,,,,,,,,,,,,,,,,,,,,,,391.2116012000479,391.22144420002587,394.7663809999358,[-0.2972222222222222],[-0.39444444444444443],[1],[0],[0],[3.553017199970782],['button_incorrect'],394.7667737000156,395.76979729998857,,,,,,,,,,,,,,,,,,,,,,,,,,,,,,,,,,,,,1,2023-11-28_10h20.04.082,watkins1,2023.2.3,99.67555593890259,26,2023-11-28 10h20.12.559523 +0000,
(28 : 7) - 3 = 1 ,Correct,button_correct,,,,,,,,,,,,,0,8,8,0,,,,,,,,,395.77977639995515,,,,,,,,,,,,,,['button_correct'],[9.948844299884513],,,,,,,,,,,,,,,,,,,,,,,,,,distractorTask,1,,,,,,,,,,,,,,,,,,,,,,,,,,395.7699893999379,395.77977639995515,405.7205892999191,[0.3592592592592593],[-0.3972222222222222],[1],[0],[0],[9.948844299884513],['button_correct'],405.7210041000508,406.7242234000005,,,,,,,,,,,,,,,,,,,,,,,,,,,,,,,,,,,,,1,2023-11-28_10h20.04.082,watkins1,2023.2.3,99.67555593890259,26,2023-11-28 10h20.12.559523 +0000,
(9 x 5) - 9 = 36 ,Correct,button_correct,,,,,,,,,,,,,0,9,9,4,,,,,,,,,406.73433759994805,,,,,,,,,,,,,,['button_incorrect'],[6.685463899979368],,,,,,,,,,,,,,,,,,,,,,,,,,distractorTask,1,,,,,,,,,,,,,,,,,,,,,,,,,,406.72441719984636,406.73433759994805,413.4116154999938,[-0.2962962962962963],[-0.39814814814814814],[1],[0],[0],[6.685463899979368],['button_incorrect'],413.4120010000188,414.4152456999291,,,,,,,,,,,,,,,,,,,,,,,,,,,,,,,,,,,,,1,2023-11-28_10h20.04.082,watkins1,2023.2.3,99.67555593890259,26,2023-11-28 10h20.12.559523 +0000,
,,,,,,,,,,,,,,,,,,,,,,,,,,,,,,,,,,,,,,,,,,,,,,,,,,,,,,,,,,,,,,,,,,,,,1,,,,,,,,,,,,,,,,,,,,,,,,,,,,,,,,,,,,,,,,,,,,,,,,,,,,,,,,,,,,,,,,,,,,,,,,,,1,2023-11-28_10h20.04.082,watkins1,2023.2.3,99.67555593890259,26,2023-11-28 10h20.12.559523 +0000,
,,,,,,,,,,,,,,,,,,,0,0,0,0,,,,,422.90952169988304,,,,,,,,,,,,,,Schlüssel,8.093396400101483,,,,,,,,,,,,3.9359110000077635,None,,,,,,,,,,,,,freeRecallSub,1,,,,,,,,,,,,,,,,,,,,,,,,,,,,,,,,,,,,,,422.9009561999701,422.90952169988304,422.90952169988304,431.00365219987,return,8.093396400101483,None,Schlüssel,[-0.06851851851851852],[0.04351851851851852],[1],[0],[0],[1.8762518998701125],[],,,,,,,,,,,,,,,,,,,,,,1,2023-11-28_10h20.04.082,watkins1,2023.2.3,99.67555593890259,26,2023-11-28 10h20.12.559523 +0000,
,,,,,,,,,,,,,,,,,,,1,0,1,0,,,,,431.0163372999523,,,,,,,,,,,,,,Vase,2.4025033998768777,,,,,,,,,,,,1.117747399955988,None,,,,,,,,,,,,,freeRecallSub,1,,,,,,,,,,,,,,,,,,,,,,,,,,,,,,,,,,,,,,431.0054458999075,431.0163372999523,431.0163372999523,433.4284434998408,return,2.4025033998768777,None,Vase,[],[],[],[],[],[],[],,,,,,,,,,,,,,,,,,,,,,1,2023-11-28_10h20.04.082,watkins1,2023.2.3,99.67555593890259,26,2023-11-28 10h20.12.559523 +0000,
,,,,,,,,,,,,,,,,,,,2,0,2,0,,,,,433.438936999999,,,,,,,,,,,,,,Geige,1.915907699847594,,,,,,,,,,,,0.26076800003647804,None,,,,,,,,,,,,,freeRecallSub,1,,,,,,,,,,,,,,,,,,,,,,,,,,,,,,,,,,,,,,433.4297298998572,433.438936999999,433.438936999999,435.35732229985297,return,1.915907699847594,None,Geige,[],[],[],[],[],[],[],,,,,,,,,,,,,,,,,,,,,,1,2023-11-28_10h20.04.082,watkins1,2023.2.3,99.67555593890259,26,2023-11-28 10h20.12.559523 +0000,
,,,,,,,,,,,,,,,,,,,3,0,3,0,,,,,435.368254999863,,,,,,,,,,,,,,Trommel,2.6825992001686245,,,,,,,,,,,,0.29131189989857376,None,,,,,,,,,,,,,freeRecallSub,1,,,,,,,,,,,,,,,,,,,,,,,,,,,,,,,,,,,,,,435.35861060000025,435.368254999863,435.368254999863,438.0594947999343,return,2.6825992001686245,None,Trommel,[],[],[],[],[],[],[],,,,,,,,,,,,,,,,,,,,,,1,2023-11-28_10h20.04.082,watkins1,2023.2.3,99.67555593890259,26,2023-11-28 10h20.12.559523 +0000,
,,,,,,,,,,,,,,,,,,,4,0,4,0,,,,,438.0707659998443,,,,,,,,,,,,,,Kette,6.6521683998871595,,,,,,,,,,,,4.639934499980882,None,,,,,,,,,,,,,freeRecallSub,1,,,,,,,,,,,,,,,,,,,,,,,,,,,,,,,,,,,,,,438.06077229999937,438.0707659998443,438.0707659998443,444.72894699987955,return,6.6521683998871595,None,Kette,[],[],[],[],[],[],[],,,,,,,,,,,,,,,,,,,,,,1,2023-11-28_10h20.04.082,watkins1,2023.2.3,99.67555593890259,26,2023-11-28 10h20.12.559523 +0000,
,,,,,,,,,,,,,,,,,,,5,0,5,0,,,,,444.74024099996313,,,,,,,,,,,,,,Ring,4.782656699884683,,,,,,,,,,,,1.517192600062117,None,,,,,,,,,,,,,freeRecallSub,1,,,,,,,,,,,,,,,,,,,,,,,,,,,,,,,,,,,,,,444.73022520006634,444.74024099996313,444.74024099996313,449.53049619984813,return,4.782656699884683,None,Ring,[],[],[],[],[],[],[],,,,,,,,,,,,,,,,,,,,,,1,2023-11-28_10h20.04.082,watkins1,2023.2.3,99.67555593890259,26,2023-11-28 10h20.12.559523 +0000,
,,,,,,,,,,,,,,,,,,,6,0,6,0,,,,,449.54227519989945,,,,,,,,,,,,,,Blume,3.1245895999018103,,,,,,,,,,,,0.7347955999430269,None,,,,,,,,,,,,,freeRecallSub,1,,,,,,,,,,,,,,,,,,,,,,,,,,,,,,,,,,,,,,449.5317732999101,449.54227519989945,449.54227519989945,452.67628249991685,return,3.1245895999018103,None,Blume,[],[],[],[],[],[],[],,,,,,,,,,,,,,,,,,,,,,1,2023-11-28_10h20.04.082,watkins1,2023.2.3,99.67555593890259,26,2023-11-28 10h20.12.559523 +0000,
,,,,,,,,,,,,,,,,,,,7,0,7,0,,,,,452.68822070001625,,,,,,,,,,,,,,Brille,2.218659699894488,,,,,,,,,,,,0.4238346000202,None,,,,,,,,,,,,,freeRecallSub,1,,,,,,,,,,,,,,,,,,,,,,,,,,,,,,,,,,,,,,452.6775630998891,452.68822070001625,452.68822070001625,454.9087169000413,return,2.218659699894488,None,Brille,[],[],[],[],[],[],[],,,,,,,,,,,,,,,,,,,,,,1,2023-11-28_10h20.04.082,watkins1,2023.2.3,99.67555593890259,26,2023-11-28 10h20.12.559523 +0000,
,,,,,,,,,,,,,,,,,,,8,0,8,0,,,,,454.92047280003317,,,,,,,,,,,,,,Kamera,6.930330999894068,,,,,,,,,,,,4.650575399864465,None,,,,,,,,,,,,,freeRecallSub,1,,,,,,,,,,,,,,,,,,,,,,,,,,,,,,,,,,,,,,454.9099918999709,454.92047280003317,454.92047280003317,461.85968720004894,return,6.930330999894068,None,Kamera,[],[],[],[],[],[],[],,,,,,,,,,,,,,,,,,,,,,1,2023-11-28_10h20.04.082,watkins1,2023.2.3,99.67555593890259,26,2023-11-28 10h20.12.559523 +0000,
,,,,,,,,,,,,,,,,,,,9,0,9,0,,,,,461.87134759989567,,,,,,,,,,,,,,Hut,5.411466599907726,,,,,,,,,,,,4.389103900175542,None,,,,,,,,,,,,,freeRecallSub,1,,,,,,,,,,,,,,,,,,,,,,,,,,,,,,,,,,,,,,461.8609690000303,461.87134759989567,461.87134759989567,467.2843207998667,return,5.411466599907726,None,Hut,[],[],[],[],[],[],[],,,,,,,,,,,,,,,,,,,,,,1,2023-11-28_10h20.04.082,watkins1,2023.2.3,99.67555593890259,26,2023-11-28 10h20.12.559523 +0000,
,,,,,,,,,,,,,,,,,,,10,0,10,0,,,,,467.29633819987066,,,,,,,,,,,,,,Kiste,7.890500999987125,,,,,,,,,,,,6.217926800018176,None,,,,,,,,,,,,,freeRecallSub,1,,,,,,,,,,,,,,,,,,,,,,,,,,,,,,,,,,,,,,467.28557189996354,467.29633819987066,467.29633819987066,475.19024030002765,return,7.890500999987125,None,Kiste,[],[],[],[],[],[],[],,,,,,,,,,,,,,,,,,,,,,1,2023-11-28_10h20.04.082,watkins1,2023.2.3,99.67555593890259,26,2023-11-28 10h20.12.559523 +0000,
,,,,,,,,,,,,,,,,,,,11,0,11,0,,,,,475.20221360004507,,,,,,,,,,,,,,Hund,28.08851859997958,,,,,,,,,,,,25.966745299985632,None,,,,,,,,,,,,,freeRecallSub,1,,,,,,,,,,,,,,,,,,,,,,,,,,,,,,,,,,,,,,475.19153179996647,475.20221360004507,475.20221360004507,503.2970131000038,return,28.08851859997958,None,Hund,[],[],[],[],[],[],[],,,,,,,,,,,,,,,,,,,,,,1,2023-11-28_10h20.04.082,watkins1,2023.2.3,99.67555593890259,26,2023-11-28 10h20.12.559523 +0000,
,,,,,,,,,,,,,,,,,,,12,0,12,0,,,,,503.3097669999115,,,,,,,,,,,,,,Katze,1.8690746000502259,,,,,,,,,,,,0.42566780000925064,None,,,,,,,,,,,,,freeRecallSub,1,,,,,,,,,,,,,,,,,,,,,,,,,,,,,,,,,,,,,,503.29832189995795,503.3097669999115,503.3097669999115,505.1798369998578,return,1.8690746000502259,None,Katze,[],[],[],[],[],[],[],,,,,,,,,,,,,,,,,,,,,,1,2023-11-28_10h20.04.082,watkins1,2023.2.3,99.67555593890259,26,2023-11-28 10h20.12.559523 +0000,
,,,,,,,,,,,,,,,,,,,13,0,13,0,,,,,505.1927644999232,,,,,,,,,,,,,,Stift,4.849985299864784,,,,,,,,,,,,3.1970351999625564,None,,,,,,,,,,,,,freeRecallSub,1,,,,,,,,,,,,,,,,,,,,,,,,,,,,,,,,,,,,,,505.1811021999456,505.1927644999232,505.1927644999232,510.04492759983987,return,4.849985299864784,None,Stift,[],[],[],[],[],[],[],,,,,,,,,,,,,,,,,,,,,,1,2023-11-28_10h20.04.082,watkins1,2023.2.3,99.67555593890259,26,2023-11-28 10h20.12.559523 +0000,
,,,,,,,,,,,,,,,,,,,14,0,14,0,,,,,510.0583838999737,,,,,,,,,,,,,,Kerze,18.86437810002826,,,,,,,,,,,,17.013158899964765,None,,,,,,,,,,,,,freeRecallSub,1,,,,,,,,,,,,,,,,,,,,,,,,,,,,,,,,,,,,,,510.04620289988816,510.0583838999737,510.0583838999737,528.9273105999455,return,18.86437810002826,None,Kerze,[],[],[],[],[],[],[],,,,,,,,,,,,,,,,,,,,,,1,2023-11-28_10h20.04.082,watkins1,2023.2.3,99.67555593890259,26,2023-11-28 10h20.12.559523 +0000,
,,,,,,,,,,,,,,,,,,,15,0,15,0,,,,,528.9402620999608,,,,,,,,,,,,,,Buch,3.5107470999937505,,,,,,,,,,,,2.423877199878916,None,,,,,,,,,,,,,freeRecallSub,1,,,,,,,,,,,,,,,,,,,,,,,,,,,,,,,,,,,,,,528.9285843998659,528.9402620999608,528.9402620999608,532.4570553998929,return,3.5107470999937505,None,Buch,[],[],[],[],[],[],[],,,,,,,,,,,,,,,,,,,,,,1,2023-11-28_10h20.04.082,watkins1,2023.2.3,99.67555593890259,26,2023-11-28 10h20.12.559523 +0000,
,,,,,,,,,,,,,,,,,,,16,0,16,0,,,,,532.4703146000393,,,,,,,,,,,,,,,[],,,,,,,,,,,,None,None,,,,,,,,,,,,,freeRecallSub,1,,,,,,,,,,,,,,,,,,,,,,,,,,,,,,,,,,,,,,532.4583294000477,532.4703146000393,532.4703146000393,570.2158492999151,None,,,,[0.20462962962962963],[-0.412962962962963],[1],[0],[0],[37.75195359997451],"['button_continue', 'continue_text']",,,,,,,,,,,,,,,,,,,,,,1,2023-11-28_10h20.04.082,watkins1,2023.2.3,99.67555593890259,26,2023-11-28 10h20.12.559523 +0000,
,,,,,,,,,,,,,,,,,,,,,,,,,,,,,,,,,,,,,,,,,,,,,,,,,,,,,,,,,,,,,,,,,,,,,1,,,,,,,,,,,,,,,,,,,,,,,,,,,,,,,,,,,,,,,,,,,,,,,,,,,,,,,,,,,,,,,,,,,,,,,,,,1,2023-11-28_10h20.04.082,watkins1,2023.2.3,99.67555593890259,26,2023-11-28 10h20.12.559523 +0000,
,,,,,,,,,,,,,,,,,,,,,,,0,0,0,0,578.0508731000591,,,,,,,,,,583.1450068999548,583.6434279000387,,,,5.087709599873051,,,,,,,,,,,,None,None,,,,,,,,,,Kerze,,,cuedRecallAdj,1,,,,,,,,,,,,,,,,,,,,,,,,,,,,,,,,,,,,,,,,,,,,,,,,,,,,,578.0418390999548,578.0508731000591,0,578.0508731000591,583.1418124998454,elegant,return,5.087709599873051,None,583.1422045999207,583.1513405998703,583.1513405998703,583.144853600068,,None,,,,,,,1,2023-11-28_10h20.04.082,watkins1,2023.2.3,99.67555593890259,26,2023-11-28 10h20.12.559523 +0000,
,,,,,,,,,,,,,,,,,,,,,,,1,0,1,0,583.6533484000247,,,,,,,,,,592.9744891999289,593.4730298998766,,,,9.317306899931282,,,,,,,,,,,,None,None,,,,,,,,,,Trommel,,,cuedRecallAdj,1,,,,,,,,,,,,,,,,,,,,,,,,,,,,,,,,,,,,,,,,,,,,,,,,,,,,,583.64367270004,583.6533484000247,0,583.6533484000247,592.9713465999812,nachhaltig,return,9.317306899931282,None,592.9716139999218,592.9810409999918,592.9810409999918,592.9743869998492,,None,,,,,,,1,2023-11-28_10h20.04.082,watkins1,2023.2.3,99.67555593890259,26,2023-11-28 10h20.12.559523 +0000,
,,,,,,,,,,,,,,,,,,,,,,,2,0,2,0,593.4829716999084,,,,,,,,,,617.6409700000659,618.1322132998612,,,schrill,14.919644400011748,,,,,,,,,,,,1.0333974999375641,6.214108399813995,,,,,,,,,,Geige,,,cuedRecallAdj,1,,,,,,,,,,,,,,,,,,,,,,,,,,,,,,,,,,,,,,,,,,,,,,,,,,,,,593.4732736998703,593.4829716999084,0,593.4829716999084,608.4036250999197,alt,return,14.919644400011748,None,608.4038940998726,608.4131531999446,608.4131531999446,617.6406206998508,schrill,return,9.22142819990404,None,,,,,1,2023-11-28_10h20.04.082,watkins1,2023.2.3,99.67555593890259,26,2023-11-28 10h20.12.559523 +0000,
,,,,,,,,,,,,,,,,,,,,,,,3,0,3,0,618.1421681998763,,,,,,,,,,623.7991553000174,624.2969094999135,,,,5.652422799961641,,,,,,,,,,,,None,None,,,,,,,,,,Flasche,,,cuedRecallAdj,1,,,,,,,,,,,,,,,,,,,,,,,,,,,,,,,,,,,,,,,,,,,,,,,,,,,,,618.1324558998458,618.1421681998763,0,618.1421681998763,623.7953937998973,schmutzig,return,5.652422799961641,None,623.7956775999628,623.8049099000636,623.8049099000636,623.7990526000503,,None,,,,,,,1,2023-11-28_10h20.04.082,watkins1,2023.2.3,99.67555593890259,26,2023-11-28 10h20.12.559523 +0000,
,,,,,,,,,,,,,,,,,,,,,,,4,0,4,0,624.3069370000158,,,,,,,,,,632.4430879999418,632.9416058000643,,,,8.12763369991444,,,,,,,,,,,,None,None,,,,,,,,,,Löffel,,,cuedRecallAdj,1,,,,,,,,,,,,,,,,,,,,,,,,,,,,,,,,,,,,,,,,,,,,,,,,,,,,,624.2971518000122,624.3069370000158,0,624.3069370000158,632.4400146999396,gruselig,return,8.12763369991444,None,632.4402797999792,632.4495973000303,632.4495973000303,632.4429847998545,,None,,,,,,,1,2023-11-28_10h20.04.082,watkins1,2023.2.3,99.67555593890259,26,2023-11-28 10h20.12.559523 +0000,
,,,,,,,,,,,,,,,,,,,,,,,5,0,5,0,632.9516503000632,,,,,,,,,,648.545129199978,649.036397999851,,,krumm,4.962848800001666,,,,,,,,,,,,9.025725099956617,None,,,,,,,,,,Schere,,,cuedRecallAdj,1,,,,,,,,,,,,,,,,,,,,,,,,,,,,,,,,,,,,,,,,,,,,,,,,,,,,,632.9418490999378,632.9516503000632,0,632.9516503000632,637.9219527998939,glänzend,return,4.962848800001666,None,637.9222192999441,637.931717599975,637.931717599975,648.5448612000328,krumm,return,10.606784600066021,None,,,,,1,2023-11-28_10h20.04.082,watkins1,2023.2.3,99.67555593890259,26,2023-11-28 10h20.12.559523 +0000,
,,,,,,,,,,,,,,,,,,,,,,,6,0,6,0,649.0464019000065,,,,,,,,,,658.3461032998748,658.8376190999988,,,bunt,7.1241180000361055,,,,,,,,,,,,0.7423161000479013,None,,,,,,,,,,Schlüssel,,,cuedRecallAdj,1,,,,,,,,,,,,,,,,,,,,,,,,,,,,,,,,,,,,,,,,,,,,,,,,,,,,,649.0366430999711,649.0464019000065,0,649.0464019000065,656.1773016999941,gepunktet,return,7.1241180000361055,None,656.1775682999287,656.1868459000252,656.1868459000252,658.3458344000392,bunt,return,2.151783399982378,None,,,,,1,2023-11-28_10h20.04.082,watkins1,2023.2.3,99.67555593890259,26,2023-11-28 10h20.12.559523 +0000,
,,,,,,,,,,,,,,,,,,,,,,,7,0,7,0,658.8475706998724,,,,,,,,,,670.9466690998524,671.4381534999702,,,?,4.306921700015664,,,,,,,,,,,,3.7142725000157952,5.441191700054333,,,,,,,,,,Hammer,,,cuedRecallAdj,1,,,,,,,,,,,,,,,,,,,,,,,,,,,,,,,,,,,,,,,,,,,,,,,,,,,,,658.8378608999774,658.8475706998724,0,658.8475706998724,663.1552836999763,niedlich,return,4.306921700015664,None,663.1555498999078,663.1648384998553,663.1648384998553,670.9464026999194,?,return,7.773593599908054,None,,,,,1,2023-11-28_10h20.04.082,watkins1,2023.2.3,99.67555593890259,26,2023-11-28 10h20.12.559523 +0000,
,,,,,,,,,,,,,,,,,,,,,,,8,0,8,0,671.4481068998575,,,,,,,,,,676.2180035000201,676.7094358999748,,,matt,3.402387399924919,,,,,,,,,,,,0.47116119996644557,None,,,,,,,,,,Rucksack,,,cuedRecallAdj,1,,,,,,,,,,,,,,,,,,,,,,,,,,,,,,,,,,,,,,,,,,,,,,,,,,,,,671.4383958999533,671.4481068998575,0,671.4481068998575,674.8522703999188,dick,return,3.402387399924919,None,674.8525340000633,674.8617857999634,674.8617857999634,676.2177182000596,matt,return,1.3487556998152286,None,,,,,1,2023-11-28_10h20.04.082,watkins1,2023.2.3,99.67555593890259,26,2023-11-28 10h20.12.559523 +0000,
,,,,,,,,,,,,,,,,,,,,,,,9,0,9,0,676.7193847000599,,,,,,,,,,684.0896580999251,684.5810089998413,,,schwer,3.0351161998696625,,,,,,,,,,,,3.1120084999129176,None,,,,,,,,,,Kiste,,,cuedRecallAdj,1,,,,,,,,,,,,,,,,,,,,,,,,,,,,,,,,,,,,,,,,,,,,,,,,,,,,,676.7096789998468,676.7193847000599,0,676.7193847000599,679.7618747998495,flach,return,3.0351161998696625,None,679.7621442000382,679.7716315998696,679.7716315998696,684.0893941998947,schwer,return,4.310821000020951,None,,,,,1,2023-11-28_10h20.04.082,watkins1,2023.2.3,99.67555593890259,26,2023-11-28 10h20.12.559523 +0000,
,,,,,,,,,,,,,,,,,,,,,,,10,0,10,0,684.5909396000206,,,,,,,,,,687.5664337999187,688.0650326998439,,,,2.9634491000324488,,,,,,,,,,,,None,None,,,,,,,,,,Telefon,,,cuedRecallAdj,1,,,,,,,,,,,,,,,,,,,,,,,,,,,,,,,,,,,,,,,,,,,,,,,,,,,,,684.5812588999979,684.5909396000206,0,684.5909396000206,687.5632215000223,nass,return,2.9634491000324488,None,687.5634925998747,687.5730011998676,687.5730011998676,687.5663319998421,,None,,,,,,,1,2023-11-28_10h20.04.082,watkins1,2023.2.3,99.67555593890259,26,2023-11-28 10h20.12.559523 +0000,
,,,,,,,,,,,,,,,,,,,,,,,11,0,11,0,688.0749752998818,,,,,,,,,,706.4326579999179,706.923814999871,,,gefährlich,3.559472299879417,,,,,,,,,,,,2.5497612999752164,None,,,,,,,,,,Kamera,,,cuedRecallAdj,1,,,,,,,,,,,,,,,,,,,,,,,,,,,,,,,,,,,,,,,,,,,,,,,,,,,,,688.065276300069,688.0749752998818,0,688.0749752998818,691.6427794999909,schön,return,3.559472299879417,None,691.6430460000411,691.652498499956,691.652498499956,706.432388599962,gefährlich,return,14.773949899943545,None,,,,,1,2023-11-28_10h20.04.082,watkins1,2023.2.3,99.67555593890259,26,2023-11-28 10h20.12.559523 +0000,
,,,,,,,,,,,,,,,,,,,,,,,12,0,12,0,706.9337454999331,,,,,,,,,,713.6513896998949,714.1428361998405,,,lustig,4.6446299001108855,,,,,,,,,,,,0.461117000086233,None,,,,,,,,,,Brille,,,cuedRecallAdj,1,,,,,,,,,,,,,,,,,,,,,,,,,,,,,,,,,,,,,,,,,,,,,,,,,,,,,706.924055099953,706.9337454999331,0,706.9337454999331,711.5830327998847,glänzend,return,4.6446299001108855,None,711.5833000000566,711.5925898998976,711.5925898998976,713.6511229998432,lustig,return,2.049818200059235,None,,,,,1,2023-11-28_10h20.04.082,watkins1,2023.2.3,99.67555593890259,26,2023-11-28 10h20.12.559523 +0000,
,,,,,,,,,,,,,,,,,,,,,,,13,0,13,0,714.1527845999226,,,,,,,,,,720.840524799889,721.3318588000257,,,?,4.15367679996416,,,,,,,,,,,,1.675917400047183,None,,,,,,,,,,Hut,,,cuedRecallAdj,1,,,,,,,,,,,,,,,,,,,,,,,,,,,,,,,,,,,,,,,,,,,,,,,,,,,,,714.1430692998692,714.1527845999226,0,714.1527845999226,718.310244299937,glatt,return,4.15367679996416,None,718.3105138998944,718.319782000035,718.319782000035,720.8402571000624,?,return,2.5145596000365913,None,,,,,1,2023-11-28_10h20.04.082,watkins1,2023.2.3,99.67555593890259,26,2023-11-28 10h20.12.559523 +0000,
,,,,,,,,,,,,,,,,,,,,,,,14,0,14,0,721.341810700018,,,,,,,,,,725.2511070999317,725.7495819998439,,,,3.9005593999754637,,,,,,,,,,,,None,None,,,,,,,,,,Fahrrad,,,cuedRecallAdj,1,,,,,,,,,,,,,,,,,,,,,,,,,,,,,,,,,,,,,,,,,,,,,,,,,,,,,721.3320931999478,721.341810700018,0,721.341810700018,725.2478650999255,schwer,return,3.9005593999754637,None,725.248129399959,725.2574769998901,725.2574769998901,725.2510046998505,,None,,,,,,,1,2023-11-28_10h20.04.082,watkins1,2023.2.3,99.67555593890259,26,2023-11-28 10h20.12.559523 +0000,
,,,,,,,,,,,,,,,,,,,,,,,15,0,15,0,725.7595587999094,,,,,,,,,,740.7906301000621,741.2819691998884,,,?,10.482761200051755,,,,,,,,,,,,3.7546072001568973,None,,,,,,,,,,Kette,,,cuedRecallAdj,1,,,,,,,,,,,,,,,,,,,,,,,,,,,,,,,,,,,,,,,,,,,,,,,,,,,,,725.7498258999549,725.7595587999094,0,725.7595587999094,736.2518606998492,fein,return,10.482761200051755,None,736.2521246999968,736.2615779999178,736.2615779999178,740.7903611999936,?,return,4.524707899894565,None,,,,,1,2023-11-28_10h20.04.082,watkins1,2023.2.3,99.67555593890259,26,2023-11-28 10h20.12.559523 +0000,
,,,,,,,,,,,,,,,,,,,,,,,16,0,16,0,741.291923499899,,,,,,,,,,748.3609782999847,748.8522197999991,,,?,4.222433400107548,,,,,,,,,,,,2.2382515999488533,None,,,,,,,,,,Vase,,,cuedRecallAdj,1,,,,,,,,,,,,,,,,,,,,,,,,,,,,,,,,,,,,,,,,,,,,,,,,,,,,,741.2822133998852,741.291923499899,0,741.291923499899,745.5193769999314,sportlich,return,4.222433400107548,None,745.5196390000638,745.5289127000142,745.5289127000142,748.3607184998691,?,return,2.8254551000427455,None,,,,,1,2023-11-28_10h20.04.082,watkins1,2023.2.3,99.67555593890259,26,2023-11-28 10h20.12.559523 +0000,
,,,,,,,,,,,,,,,,,,,,,,,17,0,17,0,748.8622711999342,,,,,,,,,,756.3156129000708,756.81424159999,,,,7.444095499813557,,,,,,,,,,,,None,None,,,,,,,,,,Ring,,,cuedRecallAdj,1,,,,,,,,,,,,,,,,,,,,,,,,,,,,,,,,,,,,,,,,,,,,,,,,,,,,,748.852464800002,748.8622711999342,0,748.8622711999342,756.3125970000401,gut,return,7.444095499813557,None,756.3128626998514,756.3221797000151,756.3221797000151,756.3155117998831,,None,,,,,,,1,2023-11-28_10h20.04.082,watkins1,2023.2.3,99.67555593890259,26,2023-11-28 10h20.12.559523 +0000,
,,,,,,,,,,,,,,,,,,,,,,,18,0,18,0,756.8241896000691,,,,,,,,,,761.6439344000537,762.1354241999798,,,lang,2.9860730001237243,,,,,,,,,,,,0.6619585999287665,None,,,,,,,,,,Uhr,,,cuedRecallAdj,1,,,,,,,,,,,,,,,,,,,,,,,,,,,,,,,,,,,,,,,,,,,,,,,,,,,,,756.8144841999747,756.8241896000691,0,756.8241896000691,759.816585799912,groß,return,2.9860730001237243,None,759.81685069995,759.8261092000175,759.8261092000175,761.6436644999776,lang,return,1.808218500111252,None,,,,,1,2023-11-28_10h20.04.082,watkins1,2023.2.3,99.67555593890259,26,2023-11-28 10h20.12.559523 +0000,
,,,,,,,,,,,,,,,,,,,,,,,19,0,19,0,762.1453769998625,,,,,,,,,,767.4101644000039,767.9086303999647,,,,5.256933900061995,,,,,,,,,,,,None,None,,,,,,,,,,Jacke,,,cuedRecallAdj,1,,,,,,,,,,,,,,,,,,,,,,,,,,,,,,,,,,,,,,,,,,,,,,,,,,,,,762.1356577000115,762.1453769998625,0,762.1453769998625,767.406978999963,bunt,return,5.256933900061995,None,767.4072447000071,767.4165835999884,767.4165835999884,767.4100623000413,,None,,,,,,,1,2023-11-28_10h20.04.082,watkins1,2023.2.3,99.67555593890259,26,2023-11-28 10h20.12.559523 +0000,
,,,,,,,,,,,,,,,,,,,,,,,20,0,20,0,767.9185385999735,,,,,,,,,,776.4337673999835,776.9249545000494,,,?,2.7717979999724776,,,,,,,,,,,,1.154122400097549,4.407232200028375,,,,,,,,,,Stift,,,cuedRecallAdj,1,,,,,,,,,,,,,,,,,,,,,,,,,,,,,,,,,,,,,,,,,,,,,,,,,,,,,767.9088727999479,767.9185385999735,0,767.9185385999735,770.7000992000103,krumm,return,2.7717979999724776,None,770.7003665000666,770.7098634999711,770.7098634999711,776.4334954998922,?,return,5.716462400043383,None,,,,,1,2023-11-28_10h20.04.082,watkins1,2023.2.3,99.67555593890259,26,2023-11-28 10h20.12.559523 +0000,
,,,,,,,,,,,,,,,,,,,,,,,21,0,21,0,776.9348718998954,,,,,,,,,,781.9887782000005,782.4873454999179,,,,5.043452400015667,,,,,,,,,,,,None,None,,,,,,,,,,Buch,,,cuedRecallAdj,1,,,,,,,,,,,,,,,,,,,,,,,,,,,,,,,,,,,,,,,,,,,,,,,,,,,,,776.9251939000096,776.9348718998954,0,776.9348718998954,781.9855885999277,schlicht,return,5.043452400015667,None,781.9858564999886,781.9953095000237,781.9953095000237,781.9886753000319,,None,,,,,,,1,2023-11-28_10h20.04.082,watkins1,2023.2.3,99.67555593890259,26,2023-11-28 10h20.12.559523 +0000,
,,,,,,,,,,,,,,,,,,,,,,,22,0,22,0,782.4972931998782,,,,,,,,,,784.6994658999611,785.1982082999311,,,,2.193045200081542,,,,,,,,,,,,None,None,,,,,,,,,,Eimer,,,cuedRecallAdj,1,,,,,,,,,,,,,,,,,,,,,,,,,,,,,,,,,,,,,,,,,,,,,,,,,,,,,782.4875916000456,782.4972931998782,0,782.4972931998782,784.6966168000363,kalt,return,2.193045200081542,None,784.6968816998415,784.7061513999943,784.7061513999943,784.6993640000001,,None,,,,,,,1,2023-11-28_10h20.04.082,watkins1,2023.2.3,99.67555593890259,26,2023-11-28 10h20.12.559523 +0000,
,,,,,,,,,,,,,,,,,,,,,,,23,0,23,0,785.2081102998927,,,,,,,,,,792.4479034000542,792.9392107999884,,,kleon,4.146117800148204,,,,,,,,,,,,2.0775707999709994,None,,,,,,,,,,Lampe,,,cuedRecallAdj,1,,,,,,,,,,,,,,,,,,,,,,,,,,,,,,,,,,,,,,,,,,,,,,,,,,,,,785.1984522000421,785.2081102998927,0,785.2081102998927,789.3552206000313,altmodisch,return,4.146117800148204,None,789.3554920998868,789.3648097999394,789.3648097999394,792.4476129000541,kleon,return,3.077481900108978,None,,,,,1,2023-11-28_10h20.04.082,watkins1,2023.2.3,99.67555593890259,26,2023-11-28 10h20.12.559523 +0000,
,,,,,,,,,,,,,,,,,,,,,,,24,0,24,0,792.9491752998438,,,,,,,,,,797.3406539999414,797.8389588000719,,,,4.381128499982879,,,,,,,,,,,,None,None,,,,,,,,,,Bürste,,,cuedRecallAdj,1,,,,,,,,,,,,,,,,,,,,,,,,,,,,,,,,,,,,,,,,,,,,,,,,,,,,,792.9394530998543,792.9491752998438,0,792.9491752998438,797.3371492000297,nützlich,return,4.381128499982879,None,797.3374145999551,797.346663699951,797.346663699951,797.3405510999728,,None,,,,,,,1,2023-11-28_10h20.04.082,watkins1,2023.2.3,99.67555593890259,26,2023-11-28 10h20.12.559523 +0000,
,,,,,,,,,,,,,,,,,,,,,,,25,0,25,0,797.8489630999975,,,,,,,,,,802.9528707000427,803.4515050000045,,,,5.097273800056428,,,,,,,,,,,,None,None,,,,,,,,,,Tasse,,,cuedRecallAdj,1,,,,,,,,,,,,,,,,,,,,,,,,,,,,,,,,,,,,,,,,,,,,,,,,,,,,,797.8392032000702,797.8489630999975,0,797.8489630999975,802.9498332999647,flauschig,return,5.097273800056428,None,802.9500982000027,802.9594193999656,802.9594193999656,802.9527682999615,,None,,,,,,,1,2023-11-28_10h20.04.082,watkins1,2023.2.3,99.67555593890259,26,2023-11-28 10h20.12.559523 +0000,
,,,,,,,,,,,,,,,,,,,,,,,26,0,26,0,803.4614504000638,,,,,,,,,,814.1581118998583,814.6565839999821,,,,10.692866900004447,,,,,,,,,,,,None,None,,,,,,,,,,Blume,,,cuedRecallAdj,1,,,,,,,,,,,,,,,,,,,,,,,,,,,,,,,,,,,,,,,,,,,,,,,,,,,,,803.4517487999983,803.4614504000638,0,803.4614504000638,814.1549722999334,stark,return,10.692866900004447,None,814.1552569998894,814.164457899984,814.164457899984,814.1580030999612,,None,,,,,,,1,2023-11-28_10h20.04.082,watkins1,2023.2.3,99.67555593890259,26,2023-11-28 10h20.12.559523 +0000,
,,,,,,,,,,,,,,,,,,,,,,,27,0,27,0,814.6665403998923,,,,,,,,,,817.3112236000597,817.8098359999713,,,,2.6316899999510497,,,,,,,,,,,,None,None,,,,,,,,,,Würfel,,,cuedRecallAdj,1,,,,,,,,,,,,,,,,,,,,,,,,,,,,,,,,,,,,,,,,,,,,,,,,,,,,,814.6568282998633,814.6665403998923,0,814.6665403998923,817.3080517998897,teuer,return,2.6316899999510497,None,817.308321399847,817.3177400999703,817.3177400999703,817.3111186998431,,None,,,,,,,1,2023-11-28_10h20.04.082,watkins1,2023.2.3,99.67555593890259,26,2023-11-28 10h20.12.559523 +0000,
,,,,,,,,,,,,,,,,,,,,,,,28,0,28,0,817.8197104998399,,,,,,,,,,824.1475165998563,824.6389075999614,,,?,4.342516999924555,,,,,,,,,,,,0.7723316000774503,None,,,,,,,,,,Socke,,,cuedRecallAdj,1,,,,,,,,,,,,,,,,,,,,,,,,,,,,,,,,,,,,,,,,,,,,,,,,,,,,,817.8100787999574,817.8197104998399,0,817.8197104998399,822.1693233998958,hohl,return,4.342516999924555,None,822.1695894000586,822.1788542000577,822.1788542000577,824.1472505999263,?,return,1.9673673000652343,None,,,,,1,2023-11-28_10h20.04.082,watkins1,2023.2.3,99.67555593890259,26,2023-11-28 10h20.12.559523 +0000,
,,,,,,,,,,,,,,,,,,,,,,,29,0,29,0,824.6488385000266,,,,,,,,,,829.7233563000336,830.2212857999839,,,,5.065315299900249,,,,,,,,,,,,None,None,,,,,,,,,,Tasche,,,cuedRecallAdj,1,,,,,,,,,,,,,,,,,,,,,,,,,,,,,,,,,,,,,,,,,,,,,,,,,,,,,824.6391481000464,824.6488385000266,0,824.6488385000266,829.7197558998596,transparent,return,5.065315299900249,None,829.7200235000346,829.7293399998453,829.7293399998453,829.7232536000665,,None,,,,,,,1,2023-11-28_10h20.04.082,watkins1,2023.2.3,99.67555593890259,26,2023-11-28 10h20.12.559523 +0000,
,,,,,,,,,,,,,,,,,,,,,,,,,,,,,,,,,,,,,,,,,,,,,,,,,,,,,,,,,,,,,,,,,,,,,1,,,,,,,,,,,,,,,,,,,,,,,,,,,,,,,,,,,,,,,,,,,,,,,,,,,,,,,,,,,,,,,,,,,,,,830.2384107999969,q,211.43536360003054,None,1,2023-11-28_10h20.04.082,watkins1,2023.2.3,99.67555593890259,26,2023-11-28 10h20.12.559523 +0000,
