Equation,CorrectResponse,Correctbutton,trials_7.thisRepN,trials_7.thisTrialN,trials_7.thisN,trials_7.thisIndex,trials.thisRepN,trials.thisTrialN,trials.thisN,trials.thisIndex,trials_3.thisRepN,trials_3.thisTrialN,trials_3.thisN,trials_3.thisIndex,trials_2.thisRepN,trials_2.thisTrialN,trials_2.thisN,trials_2.thisIndex,trials_4.thisRepN,trials_4.thisTrialN,trials_4.thisN,trials_4.thisIndex,trials_5.thisRepN,trials_5.thisTrialN,trials_5.thisN,trials_5.thisIndex,thisRow.t,notes,list_sub_restudy,list_sub_testsub,code_marius.started,code_marius.stopped,welcome.started,welcome.stopped,instruction_study.started,instruction_study.stopped,fixationcross.started,fixationcross.stopped,blanc.started,blanc.stopped,study_control_probe.started,study_control_probe.stopped,responseKey,responseTime,scale_answer_2.keys,study_control_probe_2.started,study_control_probe_2.stopped,scale_answer_3.keys,scale_answer_3.rt,scale_answer_3.duration,blanc_2.started,blanc_2.stopped,test_attr_probe.started,test_attr_probe.stopped,recalled_attr,firstKeyTime,secondWordTime,blanc_3.started,blanc_3.stopped,test_sub_probe.started,test_sub_probe.stopped,recalled_sub,instruction_probe_end.started,instruction_probe_end.stopped,study.started,study.stopped,substantive,adjective,wordpair,task,condition,liste_sub_phase1,liste_adj_phase1,scale_answer.keys,scale_answer.rt,scale_answer.duration,code_defineWordsInit.started,code_defineWordsInit.stopped,liste_sub_phase2,study_control.started,study_control.stopped,scale_answer_4.keys,restudy_same.started,restudy_same.stopped,scale_answer_5.keys,scale_answer_5.rt,scale_answer_5.duration,restudy_different.started,restudy_different.stopped,scale_answer_6.keys,test_attr.started,test_attr.stopped,test_sub.started,test_sub.stopped,correct,distractortask.started,equation_text.started,distractortask.stopped,mouse_answer.x,mouse_answer.y,mouse_answer.leftButton,mouse_answer.midButton,mouse_answer.rightButton,mouse_answer.time,mouse_answer.clicked_name,feedback_distractortask.started,feedback_distractortask.stopped,free_recall.started,text_enter.started,key_resp.started,free_recall.stopped,key_resp.keys,key_resp.rt,key_resp.duration,free_recalled_sub,mouse_continue.x,mouse_continue.y,mouse_continue.leftButton,mouse_continue.midButton,mouse_continue.rightButton,mouse_continue.time,mouse_continue.clicked_name,cued_recall.started,text_enter_2.started,key_continue.started,cued_recall.stopped,recalled_attr1,key_continue.keys,key_continue.rt,key_continue.duration,cued_recall_2.started,text_enter_3.started,key_continue_2.started,cued_recall_2.stopped,recalled_attr2,key_continue_2.keys,key_resp_8.started,key_resp_8.keys,key_resp_8.rt,key_resp_8.duration,condition,date,expName,psychopyVersion,frameRate,participant,expStart,
,,,,,,,,,,,,,,,,,,,,,,,,,,,,,"['Hut', 'Jacke', 'Blume', 'Flasche', 'Geige', 'Kamera', 'Stift', 'Tasche', 'Löffel', 'Ring', 'Telefon', 'Bürste', 'Buch', 'Hammer', 'Lampe']","['Fahrrad', 'Schlüssel', 'Kiste', 'Kerze', 'Kette', 'Rucksack', 'Trommel', 'Eimer', 'Schere', 'Uhr', 'Tasse', 'Würfel', 'Socke', 'Brille', 'Vase']",0.11625680001452565,0.11632539983838797,0.11633350001648068,15.430761799681932,,,,,,,,,,,,,,,,,,,,,,,,,,,,,,,,,,,,,2,,,,,,,,,,,,,,,,,,,,,,,,,,,,,,,,,,,,,,,,,,,,,,,,,,,,,,,,,,,,,,,,,,,,,,2,2023-12-11_10h38.43.188,watkins1,2023.2.3,99.77301654065228,55,2023-12-11 10h39.15.148904 +0000,
,,,,,,,,,,,,,,,,,,,,,,,,,,,,,,,,,,,15.43080999981612,39.87700330000371,,,,,,,,,,,,,,,,,,,,,,,,,,,,,,,,,,,2,,,,,,,,,,,,,,,,,,,,,,,,,,,,,,,,,,,,,,,,,,,,,,,,,,,,,,,,,,,,,,,,,,,,,,2,2023-12-11_10h38.43.188,watkins1,2023.2.3,99.77301654065228,55,2023-12-11 10h39.15.148904 +0000,
,,,0,0,0,0,,,,,,,,,,,,,,,,,,,,,40.89053119998425,,,,,,,,,,39.877020000014454,40.88054469972849,47.38101859996095,47.87227559974417,41.37255309987813,47.380856399890035,1,0.8992531998082995,None,47.87228519981727,53.87558749970049,1,0.8992531998082995,None,53.875877100043,53.875899999868125,53.87590690003708,53.87598769972101,,1.747175000142306,None,53.87615259969607,54.36722020013258,54.36723189987242,60.37642539991066,Hund,,,,,,,,,2,,,,,,,,,,,,,,,,,,,,,,,,,,,,,,,,,,,,,,,,,,,,,,,,,,,,,,,,,,,,,,,,,,,,,,2,2023-12-11_10h38.43.188,watkins1,2023.2.3,99.77301654065228,55,2023-12-11 10h39.15.148904 +0000,
,,,,,,,,,,,,,,,,,,,,,,,,,,,,,,,,,,,,,,,,,,,,,,,,,,,,,,,,,,,,,,,60.3765881001018,65.63791120005772,,,,,,,2,,,,,,,,,,,,,,,,,,,,,,,,,,,,,,,,,,,,,,,,,,,,,,,,,,,,,,,,,,,,,,,,,,,,,,2,2023-12-11_10h38.43.188,watkins1,2023.2.3,99.77301654065228,55,2023-12-11 10h39.15.148904 +0000,
,,,,,,,0,0,0,0,,,,,,,,,,,,,,,,,66.65163119975477,,,,,,,,,,65.6379284998402,66.64169010007754,66.6421471000649,67.13375600008294,,,1,1.5533775999210775,,,,,,,,,,,,,,,,,,,,,67.13376649981365,73.13706729980186,Kerze,neu,"['Kerze', 'neu']",test_sub,2,"['Kerze', 'Uhr', 'Kette', 'Flasche', 'Stift', 'Tasche', 'Lampe', 'Hut', 'Tasse', 'Bürste', 'Schere', 'Socke', 'Löffel', 'Rucksack', 'Fahrrad', 'Brille', 'Vase', 'Blume', 'Eimer', 'Jacke', 'Ring', 'Würfel', 'Geige', 'Hammer', 'Kamera', 'Telefon', 'Buch', 'Kiste', 'Schlüssel', 'Trommel']",['neu'],1,1.5533775999210775,None,,,,,,,,,,,,,,,,,,,,,,,,,,,,,,,,,,,,,,,,,,,,,,,,,,,,,,,,,,,,,,,,,2,2023-12-11_10h38.43.188,watkins1,2023.2.3,99.77301654065228,55,2023-12-11 10h39.15.148904 +0000,
,,,,,,,1,0,1,0,,,,,,,,,,,,,,,,,73.14652709988877,,,,,,,,,,,,73.13772189989686,73.62861989997327,,,1,1.0916003002785146,,,,,,,,,,,,,,,,,,,,,73.62863019993529,79.63208629982546,Uhr,zart,"['Uhr', 'zart']",test_sub,2,"['Kerze', 'Uhr', 'Kette', 'Flasche', 'Stift', 'Tasche', 'Lampe', 'Hut', 'Tasse', 'Bürste', 'Schere', 'Socke', 'Löffel', 'Rucksack', 'Fahrrad', 'Brille', 'Vase', 'Blume', 'Eimer', 'Jacke', 'Ring', 'Würfel', 'Geige', 'Hammer', 'Kamera', 'Telefon', 'Buch', 'Kiste', 'Schlüssel', 'Trommel']","['neu', 'zart']",1,1.0916003002785146,None,,,,,,,,,,,,,,,,,,,,,,,,,,,,,,,,,,,,,,,,,,,,,,,,,,,,,,,,,,,,,,,,,2,2023-12-11_10h38.43.188,watkins1,2023.2.3,99.77301654065228,55,2023-12-11 10h39.15.148904 +0000,
,,,,,,,2,0,2,0,,,,,,,,,,,,,,,,,79.64153390005231,,,,,,,,,,,,79.63260870007798,80.12359570013359,,,2,1.4286024002358317,,,,,,,,,,,,,,,,,,,,,80.12360629998147,86.12438859976828,Kette,kratzig,"['Kette', 'kratzig']",test_sub,2,"['Kerze', 'Uhr', 'Kette', 'Flasche', 'Stift', 'Tasche', 'Lampe', 'Hut', 'Tasse', 'Bürste', 'Schere', 'Socke', 'Löffel', 'Rucksack', 'Fahrrad', 'Brille', 'Vase', 'Blume', 'Eimer', 'Jacke', 'Ring', 'Würfel', 'Geige', 'Hammer', 'Kamera', 'Telefon', 'Buch', 'Kiste', 'Schlüssel', 'Trommel']","['neu', 'zart', 'kratzig']",2,1.4286024002358317,None,,,,,,,,,,,,,,,,,,,,,,,,,,,,,,,,,,,,,,,,,,,,,,,,,,,,,,,,,,,,,,,,,2,2023-12-11_10h38.43.188,watkins1,2023.2.3,99.77301654065228,55,2023-12-11 10h39.15.148904 +0000,
,,,,,,,3,0,3,0,,,,,,,,,,,,,,,,,86.13394149998203,,,,,,,,,,,,86.12490649987012,86.61583789996803,,,3,1.2240287000313401,,,,,,,,,,,,,,,,,,,,,86.61584799969569,92.6210155999288,Flasche,schmutzig,"['Flasche', 'schmutzig']",restudy,2,"['Kerze', 'Uhr', 'Kette', 'Flasche', 'Stift', 'Tasche', 'Lampe', 'Hut', 'Tasse', 'Bürste', 'Schere', 'Socke', 'Löffel', 'Rucksack', 'Fahrrad', 'Brille', 'Vase', 'Blume', 'Eimer', 'Jacke', 'Ring', 'Würfel', 'Geige', 'Hammer', 'Kamera', 'Telefon', 'Buch', 'Kiste', 'Schlüssel', 'Trommel']","['neu', 'zart', 'kratzig', 'schmutzig']",3,1.2240287000313401,None,,,,,,,,,,,,,,,,,,,,,,,,,,,,,,,,,,,,,,,,,,,,,,,,,,,,,,,,,,,,,,,,,2,2023-12-11_10h38.43.188,watkins1,2023.2.3,99.77301654065228,55,2023-12-11 10h39.15.148904 +0000,
,,,,,,,4,0,4,0,,,,,,,,,,,,,,,,,92.63047299999744,,,,,,,,,,,,92.62155409995466,93.11258439999074,,,1,1.9830920002423227,,,,,,,,,,,,,,,,,,,,,93.11259520007297,99.12029090011492,Stift,kaputt,"['Stift', 'kaputt']",restudy,2,"['Kerze', 'Uhr', 'Kette', 'Flasche', 'Stift', 'Tasche', 'Lampe', 'Hut', 'Tasse', 'Bürste', 'Schere', 'Socke', 'Löffel', 'Rucksack', 'Fahrrad', 'Brille', 'Vase', 'Blume', 'Eimer', 'Jacke', 'Ring', 'Würfel', 'Geige', 'Hammer', 'Kamera', 'Telefon', 'Buch', 'Kiste', 'Schlüssel', 'Trommel']","['neu', 'zart', 'kratzig', 'schmutzig', 'kaputt']",1,1.9830920002423227,None,,,,,,,,,,,,,,,,,,,,,,,,,,,,,,,,,,,,,,,,,,,,,,,,,,,,,,,,,,,,,,,,,2,2023-12-11_10h38.43.188,watkins1,2023.2.3,99.77301654065228,55,2023-12-11 10h39.15.148904 +0000,
,,,,,,,5,0,5,0,,,,,,,,,,,,,,,,,99.12986780004576,,,,,,,,,,,,99.12083789985627,99.61180120008066,,,3,1.3293965002521873,,,,,,,,,,,,,,,,,,,,,99.61181270005181,105.62092179991305,Tasche,groß,"['Tasche', 'groß']",restudy,2,"['Kerze', 'Uhr', 'Kette', 'Flasche', 'Stift', 'Tasche', 'Lampe', 'Hut', 'Tasse', 'Bürste', 'Schere', 'Socke', 'Löffel', 'Rucksack', 'Fahrrad', 'Brille', 'Vase', 'Blume', 'Eimer', 'Jacke', 'Ring', 'Würfel', 'Geige', 'Hammer', 'Kamera', 'Telefon', 'Buch', 'Kiste', 'Schlüssel', 'Trommel']","['neu', 'zart', 'kratzig', 'schmutzig', 'kaputt', 'groß']",3,1.3293965002521873,None,,,,,,,,,,,,,,,,,,,,,,,,,,,,,,,,,,,,,,,,,,,,,,,,,,,,,,,,,,,,,,,,,2,2023-12-11_10h38.43.188,watkins1,2023.2.3,99.77301654065228,55,2023-12-11 10h39.15.148904 +0000,
,,,,,,,6,0,6,0,,,,,,,,,,,,,,,,,105.63039169972762,,,,,,,,,,,,105.62144719995558,106.11231719981879,,,1,1.0725786001421511,,,,,,,,,,,,,,,,,,,,,106.1123281000182,112.12249379977584,Lampe,lang,"['Lampe', 'lang']",restudy,2,"['Kerze', 'Uhr', 'Kette', 'Flasche', 'Stift', 'Tasche', 'Lampe', 'Hut', 'Tasse', 'Bürste', 'Schere', 'Socke', 'Löffel', 'Rucksack', 'Fahrrad', 'Brille', 'Vase', 'Blume', 'Eimer', 'Jacke', 'Ring', 'Würfel', 'Geige', 'Hammer', 'Kamera', 'Telefon', 'Buch', 'Kiste', 'Schlüssel', 'Trommel']","['neu', 'zart', 'kratzig', 'schmutzig', 'kaputt', 'groß', 'lang']",1,1.0725786001421511,None,,,,,,,,,,,,,,,,,,,,,,,,,,,,,,,,,,,,,,,,,,,,,,,,,,,,,,,,,,,,,,,,,2,2023-12-11_10h38.43.188,watkins1,2023.2.3,99.77301654065228,55,2023-12-11 10h39.15.148904 +0000,
,,,,,,,7,0,7,0,,,,,,,,,,,,,,,,,112.13195829978213,,,,,,,,,,,,112.12302469974384,112.61380779976025,,,3,1.0190202998928726,,,,,,,,,,,,,,,,,,,,,112.6138192997314,118.6237937998958,Hut,schlicht,"['Hut', 'schlicht']",restudy,2,"['Kerze', 'Uhr', 'Kette', 'Flasche', 'Stift', 'Tasche', 'Lampe', 'Hut', 'Tasse', 'Bürste', 'Schere', 'Socke', 'Löffel', 'Rucksack', 'Fahrrad', 'Brille', 'Vase', 'Blume', 'Eimer', 'Jacke', 'Ring', 'Würfel', 'Geige', 'Hammer', 'Kamera', 'Telefon', 'Buch', 'Kiste', 'Schlüssel', 'Trommel']","['neu', 'zart', 'kratzig', 'schmutzig', 'kaputt', 'groß', 'lang', 'schlicht']",3,1.0190202998928726,None,,,,,,,,,,,,,,,,,,,,,,,,,,,,,,,,,,,,,,,,,,,,,,,,,,,,,,,,,,,,,,,,,2,2023-12-11_10h38.43.188,watkins1,2023.2.3,99.77301654065228,55,2023-12-11 10h39.15.148904 +0000,
,,,,,,,8,0,8,0,,,,,,,,,,,,,,,,,118.6332781999372,,,,,,,,,,,,118.62431140011176,119.11536169983447,,,1,1.6383313001133502,,,,,,,,,,,,,,,,,,,,,119.11537260003388,125.11917409999296,Tasse,flach,"['Tasse', 'flach']",test_sub,2,"['Kerze', 'Uhr', 'Kette', 'Flasche', 'Stift', 'Tasche', 'Lampe', 'Hut', 'Tasse', 'Bürste', 'Schere', 'Socke', 'Löffel', 'Rucksack', 'Fahrrad', 'Brille', 'Vase', 'Blume', 'Eimer', 'Jacke', 'Ring', 'Würfel', 'Geige', 'Hammer', 'Kamera', 'Telefon', 'Buch', 'Kiste', 'Schlüssel', 'Trommel']","['neu', 'zart', 'kratzig', 'schmutzig', 'kaputt', 'groß', 'lang', 'schlicht', 'flach']",1,1.6383313001133502,None,,,,,,,,,,,,,,,,,,,,,,,,,,,,,,,,,,,,,,,,,,,,,,,,,,,,,,,,,,,,,,,,,2,2023-12-11_10h38.43.188,watkins1,2023.2.3,99.77301654065228,55,2023-12-11 10h39.15.148904 +0000,
,,,,,,,9,0,9,0,,,,,,,,,,,,,,,,,125.12863579997793,,,,,,,,,,,,125.11970350006595,125.61065369984135,,,2,1.509824899956584,,,,,,,,,,,,,,,,,,,,,125.61066349968314,131.61284029996023,Bürste,teuer,"['Bürste', 'teuer']",restudy,2,"['Kerze', 'Uhr', 'Kette', 'Flasche', 'Stift', 'Tasche', 'Lampe', 'Hut', 'Tasse', 'Bürste', 'Schere', 'Socke', 'Löffel', 'Rucksack', 'Fahrrad', 'Brille', 'Vase', 'Blume', 'Eimer', 'Jacke', 'Ring', 'Würfel', 'Geige', 'Hammer', 'Kamera', 'Telefon', 'Buch', 'Kiste', 'Schlüssel', 'Trommel']","['neu', 'zart', 'kratzig', 'schmutzig', 'kaputt', 'groß', 'lang', 'schlicht', 'flach', 'teuer']",2,1.509824899956584,None,,,,,,,,,,,,,,,,,,,,,,,,,,,,,,,,,,,,,,,,,,,,,,,,,,,,,,,,,,,,,,,,,2,2023-12-11_10h38.43.188,watkins1,2023.2.3,99.77301654065228,55,2023-12-11 10h39.15.148904 +0000,
,,,,,,,10,0,10,0,,,,,,,,,,,,,,,,,131.62223719991744,,,,,,,,,,,,131.61337930010632,132.1042716000229,,,1,1.152401499915868,,,,,,,,,,,,,,,,,,,,,132.104281200096,138.1102180001326,Schere,durchsichtig,"['Schere', 'durchsichtig']",test_sub,2,"['Kerze', 'Uhr', 'Kette', 'Flasche', 'Stift', 'Tasche', 'Lampe', 'Hut', 'Tasse', 'Bürste', 'Schere', 'Socke', 'Löffel', 'Rucksack', 'Fahrrad', 'Brille', 'Vase', 'Blume', 'Eimer', 'Jacke', 'Ring', 'Würfel', 'Geige', 'Hammer', 'Kamera', 'Telefon', 'Buch', 'Kiste', 'Schlüssel', 'Trommel']","['neu', 'zart', 'kratzig', 'schmutzig', 'kaputt', 'groß', 'lang', 'schlicht', 'flach', 'teuer', 'durchsichtig']",1,1.152401499915868,None,,,,,,,,,,,,,,,,,,,,,,,,,,,,,,,,,,,,,,,,,,,,,,,,,,,,,,,,,,,,,,,,,2,2023-12-11_10h38.43.188,watkins1,2023.2.3,99.77301654065228,55,2023-12-11 10h39.15.148904 +0000,
,,,,,,,11,0,11,0,,,,,,,,,,,,,,,,,138.119617999997,,,,,,,,,,,,138.11074690008536,138.60169210005552,,,1,1.3030973002314568,,,,,,,,,,,,,,,,,,,,,138.60170290013775,144.60964069981128,Socke,winzig,"['Socke', 'winzig']",test_sub,2,"['Kerze', 'Uhr', 'Kette', 'Flasche', 'Stift', 'Tasche', 'Lampe', 'Hut', 'Tasse', 'Bürste', 'Schere', 'Socke', 'Löffel', 'Rucksack', 'Fahrrad', 'Brille', 'Vase', 'Blume', 'Eimer', 'Jacke', 'Ring', 'Würfel', 'Geige', 'Hammer', 'Kamera', 'Telefon', 'Buch', 'Kiste', 'Schlüssel', 'Trommel']","['neu', 'zart', 'kratzig', 'schmutzig', 'kaputt', 'groß', 'lang', 'schlicht', 'flach', 'teuer', 'durchsichtig', 'winzig']",1,1.3030973002314568,None,,,,,,,,,,,,,,,,,,,,,,,,,,,,,,,,,,,,,,,,,,,,,,,,,,,,,,,,,,,,,,,,,2,2023-12-11_10h38.43.188,watkins1,2023.2.3,99.77301654065228,55,2023-12-11 10h39.15.148904 +0000,
,,,,,,,12,0,12,0,,,,,,,,,,,,,,,,,144.61911260010675,,,,,,,,,,,,144.61017110012472,145.10116240009665,,,1,1.3228350998833776,,,,,,,,,,,,,,,,,,,,,145.10117230005562,151.10297779971734,Löffel,hübsch,"['Löffel', 'hübsch']",restudy,2,"['Kerze', 'Uhr', 'Kette', 'Flasche', 'Stift', 'Tasche', 'Lampe', 'Hut', 'Tasse', 'Bürste', 'Schere', 'Socke', 'Löffel', 'Rucksack', 'Fahrrad', 'Brille', 'Vase', 'Blume', 'Eimer', 'Jacke', 'Ring', 'Würfel', 'Geige', 'Hammer', 'Kamera', 'Telefon', 'Buch', 'Kiste', 'Schlüssel', 'Trommel']","['neu', 'zart', 'kratzig', 'schmutzig', 'kaputt', 'groß', 'lang', 'schlicht', 'flach', 'teuer', 'durchsichtig', 'winzig', 'hübsch']",1,1.3228350998833776,None,,,,,,,,,,,,,,,,,,,,,,,,,,,,,,,,,,,,,,,,,,,,,,,,,,,,,,,,,,,,,,,,,2,2023-12-11_10h38.43.188,watkins1,2023.2.3,99.77301654065228,55,2023-12-11 10h39.15.148904 +0000,
,,,,,,,13,0,13,0,,,,,,,,,,,,,,,,,151.11245690006763,,,,,,,,,,,,151.1034963997081,151.59450710006058,,,1,1.09355239989236,,,,,,,,,,,,,,,,,,,,,151.59451769990847,157.59899749979377,Rucksack,gestreift,"['Rucksack', 'gestreift']",test_sub,2,"['Kerze', 'Uhr', 'Kette', 'Flasche', 'Stift', 'Tasche', 'Lampe', 'Hut', 'Tasse', 'Bürste', 'Schere', 'Socke', 'Löffel', 'Rucksack', 'Fahrrad', 'Brille', 'Vase', 'Blume', 'Eimer', 'Jacke', 'Ring', 'Würfel', 'Geige', 'Hammer', 'Kamera', 'Telefon', 'Buch', 'Kiste', 'Schlüssel', 'Trommel']","['neu', 'zart', 'kratzig', 'schmutzig', 'kaputt', 'groß', 'lang', 'schlicht', 'flach', 'teuer', 'durchsichtig', 'winzig', 'hübsch', 'gestreift']",1,1.09355239989236,None,,,,,,,,,,,,,,,,,,,,,,,,,,,,,,,,,,,,,,,,,,,,,,,,,,,,,,,,,,,,,,,,,2,2023-12-11_10h38.43.188,watkins1,2023.2.3,99.77301654065228,55,2023-12-11 10h39.15.148904 +0000,
,,,,,,,14,0,14,0,,,,,,,,,,,,,,,,,157.60851900000125,,,,,,,,,,,,157.59953319979832,158.09061639988795,,,3,0.7103492999449372,,,,,,,,,,,,,,,,,,,,,158.09062650008127,164.10104719968513,Fahrrad,sportlich,"['Fahrrad', 'sportlich']",test_sub,2,"['Kerze', 'Uhr', 'Kette', 'Flasche', 'Stift', 'Tasche', 'Lampe', 'Hut', 'Tasse', 'Bürste', 'Schere', 'Socke', 'Löffel', 'Rucksack', 'Fahrrad', 'Brille', 'Vase', 'Blume', 'Eimer', 'Jacke', 'Ring', 'Würfel', 'Geige', 'Hammer', 'Kamera', 'Telefon', 'Buch', 'Kiste', 'Schlüssel', 'Trommel']","['neu', 'zart', 'kratzig', 'schmutzig', 'kaputt', 'groß', 'lang', 'schlicht', 'flach', 'teuer', 'durchsichtig', 'winzig', 'hübsch', 'gestreift', 'sportlich']",3,0.7103492999449372,None,,,,,,,,,,,,,,,,,,,,,,,,,,,,,,,,,,,,,,,,,,,,,,,,,,,,,,,,,,,,,,,,,2,2023-12-11_10h38.43.188,watkins1,2023.2.3,99.77301654065228,55,2023-12-11 10h39.15.148904 +0000,
,,,,,,,15,0,15,0,,,,,,,,,,,,,,,,,164.1105122999288,,,,,,,,,,,,164.10157719999552,164.5925851999782,,,1,0.7924905996769667,,,,,,,,,,,,,,,,,,,,,164.5925956997089,170.60235199984163,Brille,nass,"['Brille', 'nass']",test_sub,2,"['Kerze', 'Uhr', 'Kette', 'Flasche', 'Stift', 'Tasche', 'Lampe', 'Hut', 'Tasse', 'Bürste', 'Schere', 'Socke', 'Löffel', 'Rucksack', 'Fahrrad', 'Brille', 'Vase', 'Blume', 'Eimer', 'Jacke', 'Ring', 'Würfel', 'Geige', 'Hammer', 'Kamera', 'Telefon', 'Buch', 'Kiste', 'Schlüssel', 'Trommel']","['neu', 'zart', 'kratzig', 'schmutzig', 'kaputt', 'groß', 'lang', 'schlicht', 'flach', 'teuer', 'durchsichtig', 'winzig', 'hübsch', 'gestreift', 'sportlich', 'nass']",1,0.7924905996769667,None,,,,,,,,,,,,,,,,,,,,,,,,,,,,,,,,,,,,,,,,,,,,,,,,,,,,,,,,,,,,,,,,,2,2023-12-11_10h38.43.188,watkins1,2023.2.3,99.77301654065228,55,2023-12-11 10h39.15.148904 +0000,
,,,,,,,16,0,16,0,,,,,,,,,,,,,,,,,170.61182900005952,,,,,,,,,,,,170.60287870001048,171.09378809994087,,,1,1.4107491001486778,,,,,,,,,,,,,,,,,,,,,171.0937982997857,177.10386590007693,Vase,flauschig,"['Vase', 'flauschig']",test_sub,2,"['Kerze', 'Uhr', 'Kette', 'Flasche', 'Stift', 'Tasche', 'Lampe', 'Hut', 'Tasse', 'Bürste', 'Schere', 'Socke', 'Löffel', 'Rucksack', 'Fahrrad', 'Brille', 'Vase', 'Blume', 'Eimer', 'Jacke', 'Ring', 'Würfel', 'Geige', 'Hammer', 'Kamera', 'Telefon', 'Buch', 'Kiste', 'Schlüssel', 'Trommel']","['neu', 'zart', 'kratzig', 'schmutzig', 'kaputt', 'groß', 'lang', 'schlicht', 'flach', 'teuer', 'durchsichtig', 'winzig', 'hübsch', 'gestreift', 'sportlich', 'nass', 'flauschig']",1,1.4107491001486778,None,,,,,,,,,,,,,,,,,,,,,,,,,,,,,,,,,,,,,,,,,,,,,,,,,,,,,,,,,,,,,,,,,2,2023-12-11_10h38.43.188,watkins1,2023.2.3,99.77301654065228,55,2023-12-11 10h39.15.148904 +0000,
,,,,,,,17,0,17,0,,,,,,,,,,,,,,,,,177.11344819981605,,,,,,,,,,,,177.10438999999315,177.5954931997694,,,1,1.2373494999483228,,,,,,,,,,,,,,,,,,,,,177.59550349973142,183.59818359976634,Blume,robust,"['Blume', 'robust']",restudy,2,"['Kerze', 'Uhr', 'Kette', 'Flasche', 'Stift', 'Tasche', 'Lampe', 'Hut', 'Tasse', 'Bürste', 'Schere', 'Socke', 'Löffel', 'Rucksack', 'Fahrrad', 'Brille', 'Vase', 'Blume', 'Eimer', 'Jacke', 'Ring', 'Würfel', 'Geige', 'Hammer', 'Kamera', 'Telefon', 'Buch', 'Kiste', 'Schlüssel', 'Trommel']","['neu', 'zart', 'kratzig', 'schmutzig', 'kaputt', 'groß', 'lang', 'schlicht', 'flach', 'teuer', 'durchsichtig', 'winzig', 'hübsch', 'gestreift', 'sportlich', 'nass', 'flauschig', 'robust']",1,1.2373494999483228,None,,,,,,,,,,,,,,,,,,,,,,,,,,,,,,,,,,,,,,,,,,,,,,,,,,,,,,,,,,,,,,,,,2,2023-12-11_10h38.43.188,watkins1,2023.2.3,99.77301654065228,55,2023-12-11 10h39.15.148904 +0000,
,,,,,,,18,0,18,0,,,,,,,,,,,,,,,,,183.6076098997146,,,,,,,,,,,,183.5987168001011,184.0896410997957,,,2,2.415101499762386,,,,,,,,,,,,,,,,,,,,,184.08965090010315,190.0984915001318,Eimer,kalt,"['Eimer', 'kalt']",test_sub,2,"['Kerze', 'Uhr', 'Kette', 'Flasche', 'Stift', 'Tasche', 'Lampe', 'Hut', 'Tasse', 'Bürste', 'Schere', 'Socke', 'Löffel', 'Rucksack', 'Fahrrad', 'Brille', 'Vase', 'Blume', 'Eimer', 'Jacke', 'Ring', 'Würfel', 'Geige', 'Hammer', 'Kamera', 'Telefon', 'Buch', 'Kiste', 'Schlüssel', 'Trommel']","['neu', 'zart', 'kratzig', 'schmutzig', 'kaputt', 'groß', 'lang', 'schlicht', 'flach', 'teuer', 'durchsichtig', 'winzig', 'hübsch', 'gestreift', 'sportlich', 'nass', 'flauschig', 'robust', 'kalt']",2,2.415101499762386,None,,,,,,,,,,,,,,,,,,,,,,,,,,,,,,,,,,,,,,,,,,,,,,,,,,,,,,,,,,,,,,,,,2,2023-12-11_10h38.43.188,watkins1,2023.2.3,99.77301654065228,55,2023-12-11 10h39.15.148904 +0000,
,,,,,,,19,0,19,0,,,,,,,,,,,,,,,,,190.10817079991102,,,,,,,,,,,,190.09901969972998,190.59011430013925,,,3,1.0019514001905918,,,,,,,,,,,,,,,,,,,,,190.59012529999018,196.5913076000288,Jacke,schwer,"['Jacke', 'schwer']",restudy,2,"['Kerze', 'Uhr', 'Kette', 'Flasche', 'Stift', 'Tasche', 'Lampe', 'Hut', 'Tasse', 'Bürste', 'Schere', 'Socke', 'Löffel', 'Rucksack', 'Fahrrad', 'Brille', 'Vase', 'Blume', 'Eimer', 'Jacke', 'Ring', 'Würfel', 'Geige', 'Hammer', 'Kamera', 'Telefon', 'Buch', 'Kiste', 'Schlüssel', 'Trommel']","['neu', 'zart', 'kratzig', 'schmutzig', 'kaputt', 'groß', 'lang', 'schlicht', 'flach', 'teuer', 'durchsichtig', 'winzig', 'hübsch', 'gestreift', 'sportlich', 'nass', 'flauschig', 'robust', 'kalt', 'schwer']",3,1.0019514001905918,None,,,,,,,,,,,,,,,,,,,,,,,,,,,,,,,,,,,,,,,,,,,,,,,,,,,,,,,,,,,,,,,,,2,2023-12-11_10h38.43.188,watkins1,2023.2.3,99.77301654065228,55,2023-12-11 10h39.15.148904 +0000,
,,,,,,,20,0,20,0,,,,,,,,,,,,,,,,,196.60086899995804,,,,,,,,,,,,196.5918601998128,197.0827982998453,,,3,0.9264178001321852,,,,,,,,,,,,,,,,,,,,,197.0828080996871,203.08633629977703,Ring,elegant,"['Ring', 'elegant']",restudy,2,"['Kerze', 'Uhr', 'Kette', 'Flasche', 'Stift', 'Tasche', 'Lampe', 'Hut', 'Tasse', 'Bürste', 'Schere', 'Socke', 'Löffel', 'Rucksack', 'Fahrrad', 'Brille', 'Vase', 'Blume', 'Eimer', 'Jacke', 'Ring', 'Würfel', 'Geige', 'Hammer', 'Kamera', 'Telefon', 'Buch', 'Kiste', 'Schlüssel', 'Trommel']","['neu', 'zart', 'kratzig', 'schmutzig', 'kaputt', 'groß', 'lang', 'schlicht', 'flach', 'teuer', 'durchsichtig', 'winzig', 'hübsch', 'gestreift', 'sportlich', 'nass', 'flauschig', 'robust', 'kalt', 'schwer', 'elegant']",3,0.9264178001321852,None,,,,,,,,,,,,,,,,,,,,,,,,,,,,,,,,,,,,,,,,,,,,,,,,,,,,,,,,,,,,,,,,,2,2023-12-11_10h38.43.188,watkins1,2023.2.3,99.77301654065228,55,2023-12-11 10h39.15.148904 +0000,
,,,,,,,21,0,21,0,,,,,,,,,,,,,,,,,203.09585919976234,,,,,,,,,,,,203.08687740005553,203.57788629969582,,,3,1.8945432999171317,,,,,,,,,,,,,,,,,,,,,203.5778967998922,209.58123009977862,Würfel,bunt,"['Würfel', 'bunt']",test_sub,2,"['Kerze', 'Uhr', 'Kette', 'Flasche', 'Stift', 'Tasche', 'Lampe', 'Hut', 'Tasse', 'Bürste', 'Schere', 'Socke', 'Löffel', 'Rucksack', 'Fahrrad', 'Brille', 'Vase', 'Blume', 'Eimer', 'Jacke', 'Ring', 'Würfel', 'Geige', 'Hammer', 'Kamera', 'Telefon', 'Buch', 'Kiste', 'Schlüssel', 'Trommel']","['neu', 'zart', 'kratzig', 'schmutzig', 'kaputt', 'groß', 'lang', 'schlicht', 'flach', 'teuer', 'durchsichtig', 'winzig', 'hübsch', 'gestreift', 'sportlich', 'nass', 'flauschig', 'robust', 'kalt', 'schwer', 'elegant', 'bunt']",3,1.8945432999171317,None,,,,,,,,,,,,,,,,,,,,,,,,,,,,,,,,,,,,,,,,,,,,,,,,,,,,,,,,,,,,,,,,,2,2023-12-11_10h38.43.188,watkins1,2023.2.3,99.77301654065228,55,2023-12-11 10h39.15.148904 +0000,
,,,,,,,22,0,22,0,,,,,,,,,,,,,,,,,209.59069499978796,,,,,,,,,,,,209.5817640000023,210.07265299977735,,,3,1.431438600178808,,,,,,,,,,,,,,,,,,,,,210.07266289973632,216.07543759979308,Geige,niedlich,"['Geige', 'niedlich']",restudy,2,"['Kerze', 'Uhr', 'Kette', 'Flasche', 'Stift', 'Tasche', 'Lampe', 'Hut', 'Tasse', 'Bürste', 'Schere', 'Socke', 'Löffel', 'Rucksack', 'Fahrrad', 'Brille', 'Vase', 'Blume', 'Eimer', 'Jacke', 'Ring', 'Würfel', 'Geige', 'Hammer', 'Kamera', 'Telefon', 'Buch', 'Kiste', 'Schlüssel', 'Trommel']","['neu', 'zart', 'kratzig', 'schmutzig', 'kaputt', 'groß', 'lang', 'schlicht', 'flach', 'teuer', 'durchsichtig', 'winzig', 'hübsch', 'gestreift', 'sportlich', 'nass', 'flauschig', 'robust', 'kalt', 'schwer', 'elegant', 'bunt', 'niedlich']",3,1.431438600178808,None,,,,,,,,,,,,,,,,,,,,,,,,,,,,,,,,,,,,,,,,,,,,,,,,,,,,,,,,,,,,,,,,,2,2023-12-11_10h38.43.188,watkins1,2023.2.3,99.77301654065228,55,2023-12-11 10h39.15.148904 +0000,
,,,,,,,23,0,23,0,,,,,,,,,,,,,,,,,216.08512299973518,,,,,,,,,,,,216.07596449973062,216.56701140012592,,,3,0.8180510997772217,,,,,,,,,,,,,,,,,,,,,216.56702290009707,222.5734214000404,Hammer,dick,"['Hammer', 'dick']",restudy,2,"['Kerze', 'Uhr', 'Kette', 'Flasche', 'Stift', 'Tasche', 'Lampe', 'Hut', 'Tasse', 'Bürste', 'Schere', 'Socke', 'Löffel', 'Rucksack', 'Fahrrad', 'Brille', 'Vase', 'Blume', 'Eimer', 'Jacke', 'Ring', 'Würfel', 'Geige', 'Hammer', 'Kamera', 'Telefon', 'Buch', 'Kiste', 'Schlüssel', 'Trommel']","['neu', 'zart', 'kratzig', 'schmutzig', 'kaputt', 'groß', 'lang', 'schlicht', 'flach', 'teuer', 'durchsichtig', 'winzig', 'hübsch', 'gestreift', 'sportlich', 'nass', 'flauschig', 'robust', 'kalt', 'schwer', 'elegant', 'bunt', 'niedlich', 'dick']",3,0.8180510997772217,None,,,,,,,,,,,,,,,,,,,,,,,,,,,,,,,,,,,,,,,,,,,,,,,,,,,,,,,,,,,,,,,,,2,2023-12-11_10h38.43.188,watkins1,2023.2.3,99.77301654065228,55,2023-12-11 10h39.15.148904 +0000,
,,,,,,,24,0,24,0,,,,,,,,,,,,,,,,,222.58289350010455,,,,,,,,,,,,222.5739484000951,223.0648843999952,,,1,1.9202837999910116,,,,,,,,,,,,,,,,,,,,,223.06489459984004,229.07501879986376,Kamera,dunkel,"['Kamera', 'dunkel']",restudy,2,"['Kerze', 'Uhr', 'Kette', 'Flasche', 'Stift', 'Tasche', 'Lampe', 'Hut', 'Tasse', 'Bürste', 'Schere', 'Socke', 'Löffel', 'Rucksack', 'Fahrrad', 'Brille', 'Vase', 'Blume', 'Eimer', 'Jacke', 'Ring', 'Würfel', 'Geige', 'Hammer', 'Kamera', 'Telefon', 'Buch', 'Kiste', 'Schlüssel', 'Trommel']","['neu', 'zart', 'kratzig', 'schmutzig', 'kaputt', 'groß', 'lang', 'schlicht', 'flach', 'teuer', 'durchsichtig', 'winzig', 'hübsch', 'gestreift', 'sportlich', 'nass', 'flauschig', 'robust', 'kalt', 'schwer', 'elegant', 'bunt', 'niedlich', 'dick', 'dunkel']",1,1.9202837999910116,None,,,,,,,,,,,,,,,,,,,,,,,,,,,,,,,,,,,,,,,,,,,,,,,,,,,,,,,,,,,,,,,,,2,2023-12-11_10h38.43.188,watkins1,2023.2.3,99.77301654065228,55,2023-12-11 10h39.15.148904 +0000,
,,,,,,,25,0,25,0,,,,,,,,,,,,,,,,,229.08460279973224,,,,,,,,,,,,229.07555019995198,229.56659419974312,,,1,3.6021663998253644,,,,,,,,,,,,,,,,,,,,,229.56660480005667,235.57647580001503,Telefon,biegsam,"['Telefon', 'biegsam']",restudy,2,"['Kerze', 'Uhr', 'Kette', 'Flasche', 'Stift', 'Tasche', 'Lampe', 'Hut', 'Tasse', 'Bürste', 'Schere', 'Socke', 'Löffel', 'Rucksack', 'Fahrrad', 'Brille', 'Vase', 'Blume', 'Eimer', 'Jacke', 'Ring', 'Würfel', 'Geige', 'Hammer', 'Kamera', 'Telefon', 'Buch', 'Kiste', 'Schlüssel', 'Trommel']","['neu', 'zart', 'kratzig', 'schmutzig', 'kaputt', 'groß', 'lang', 'schlicht', 'flach', 'teuer', 'durchsichtig', 'winzig', 'hübsch', 'gestreift', 'sportlich', 'nass', 'flauschig', 'robust', 'kalt', 'schwer', 'elegant', 'bunt', 'niedlich', 'dick', 'dunkel', 'biegsam']",1,3.6021663998253644,None,,,,,,,,,,,,,,,,,,,,,,,,,,,,,,,,,,,,,,,,,,,,,,,,,,,,,,,,,,,,,,,,,2,2023-12-11_10h38.43.188,watkins1,2023.2.3,99.77301654065228,55,2023-12-11 10h39.15.148904 +0000,
,,,,,,,26,0,26,0,,,,,,,,,,,,,,,,,235.58590519987047,,,,,,,,,,,,235.57700640009716,236.06826379988343,,,3,2.812919800169766,,,,,,,,,,,,,,,,,,,,,236.06827399972826,242.07741819974035,Buch,nachhaltig,"['Buch', 'nachhaltig']",restudy,2,"['Kerze', 'Uhr', 'Kette', 'Flasche', 'Stift', 'Tasche', 'Lampe', 'Hut', 'Tasse', 'Bürste', 'Schere', 'Socke', 'Löffel', 'Rucksack', 'Fahrrad', 'Brille', 'Vase', 'Blume', 'Eimer', 'Jacke', 'Ring', 'Würfel', 'Geige', 'Hammer', 'Kamera', 'Telefon', 'Buch', 'Kiste', 'Schlüssel', 'Trommel']","['neu', 'zart', 'kratzig', 'schmutzig', 'kaputt', 'groß', 'lang', 'schlicht', 'flach', 'teuer', 'durchsichtig', 'winzig', 'hübsch', 'gestreift', 'sportlich', 'nass', 'flauschig', 'robust', 'kalt', 'schwer', 'elegant', 'bunt', 'niedlich', 'dick', 'dunkel', 'biegsam', 'nachhaltig']",3,2.812919800169766,None,,,,,,,,,,,,,,,,,,,,,,,,,,,,,,,,,,,,,,,,,,,,,,,,,,,,,,,,,,,,,,,,,2,2023-12-11_10h38.43.188,watkins1,2023.2.3,99.77301654065228,55,2023-12-11 10h39.15.148904 +0000,
,,,,,,,27,0,27,0,,,,,,,,,,,,,,,,,242.08687589969486,,,,,,,,,,,,242.07794449990615,242.56911989999935,,,3,2.244448299985379,,,,,,,,,,,,,,,,,,,,,242.5691307000816,248.5774725000374,Kiste,praktisch,"['Kiste', 'praktisch']",test_sub,2,"['Kerze', 'Uhr', 'Kette', 'Flasche', 'Stift', 'Tasche', 'Lampe', 'Hut', 'Tasse', 'Bürste', 'Schere', 'Socke', 'Löffel', 'Rucksack', 'Fahrrad', 'Brille', 'Vase', 'Blume', 'Eimer', 'Jacke', 'Ring', 'Würfel', 'Geige', 'Hammer', 'Kamera', 'Telefon', 'Buch', 'Kiste', 'Schlüssel', 'Trommel']","['neu', 'zart', 'kratzig', 'schmutzig', 'kaputt', 'groß', 'lang', 'schlicht', 'flach', 'teuer', 'durchsichtig', 'winzig', 'hübsch', 'gestreift', 'sportlich', 'nass', 'flauschig', 'robust', 'kalt', 'schwer', 'elegant', 'bunt', 'niedlich', 'dick', 'dunkel', 'biegsam', 'nachhaltig', 'praktisch']",3,2.244448299985379,None,,,,,,,,,,,,,,,,,,,,,,,,,,,,,,,,,,,,,,,,,,,,,,,,,,,,,,,,,,,,,,,,,2,2023-12-11_10h38.43.188,watkins1,2023.2.3,99.77301654065228,55,2023-12-11 10h39.15.148904 +0000,
,,,,,,,28,0,28,0,,,,,,,,,,,,,,,,,248.58695719996467,,,,,,,,,,,,248.57800329988822,249.06900939997286,,,1,1.7558698998764157,,,,,,,,,,,,,,,,,,,,,249.06901989970356,255.0733257997781,Schlüssel,gepunktet,"['Schlüssel', 'gepunktet']",test_sub,2,"['Kerze', 'Uhr', 'Kette', 'Flasche', 'Stift', 'Tasche', 'Lampe', 'Hut', 'Tasse', 'Bürste', 'Schere', 'Socke', 'Löffel', 'Rucksack', 'Fahrrad', 'Brille', 'Vase', 'Blume', 'Eimer', 'Jacke', 'Ring', 'Würfel', 'Geige', 'Hammer', 'Kamera', 'Telefon', 'Buch', 'Kiste', 'Schlüssel', 'Trommel']","['neu', 'zart', 'kratzig', 'schmutzig', 'kaputt', 'groß', 'lang', 'schlicht', 'flach', 'teuer', 'durchsichtig', 'winzig', 'hübsch', 'gestreift', 'sportlich', 'nass', 'flauschig', 'robust', 'kalt', 'schwer', 'elegant', 'bunt', 'niedlich', 'dick', 'dunkel', 'biegsam', 'nachhaltig', 'praktisch', 'gepunktet']",1,1.7558698998764157,None,,,,,,,,,,,,,,,,,,,,,,,,,,,,,,,,,,,,,,,,,,,,,,,,,,,,,,,,,,,,,,,,,2,2023-12-11_10h38.43.188,watkins1,2023.2.3,99.77301654065228,55,2023-12-11 10h39.15.148904 +0000,
,,,,,,,29,0,29,0,,,,,,,,,,,,,,,,,255.08289510011673,,,,,,,,,,,,255.07386450003833,255.56487610004842,,,3,1.0199611000716686,,,,,,,,,,,,,,,,,,,,,255.56488640001044,261.56752899987623,Trommel,lustig,"['Trommel', 'lustig']",test_sub,2,"['Kerze', 'Uhr', 'Kette', 'Flasche', 'Stift', 'Tasche', 'Lampe', 'Hut', 'Tasse', 'Bürste', 'Schere', 'Socke', 'Löffel', 'Rucksack', 'Fahrrad', 'Brille', 'Vase', 'Blume', 'Eimer', 'Jacke', 'Ring', 'Würfel', 'Geige', 'Hammer', 'Kamera', 'Telefon', 'Buch', 'Kiste', 'Schlüssel', 'Trommel']","['neu', 'zart', 'kratzig', 'schmutzig', 'kaputt', 'groß', 'lang', 'schlicht', 'flach', 'teuer', 'durchsichtig', 'winzig', 'hübsch', 'gestreift', 'sportlich', 'nass', 'flauschig', 'robust', 'kalt', 'schwer', 'elegant', 'bunt', 'niedlich', 'dick', 'dunkel', 'biegsam', 'nachhaltig', 'praktisch', 'gepunktet', 'lustig']",3,1.0199611000716686,None,,,,,,,,,,,,,,,,,,,,,,,,,,,,,,,,,,,,,,,,,,,,,,,,,,,,,,,,,,,,,,,,,2,2023-12-11_10h38.43.188,watkins1,2023.2.3,99.77301654065228,55,2023-12-11 10h39.15.148904 +0000,
,,,,,,,,,,,0,0,0,0,,,,,,,,,,,,,261.57696510013193,,,,,,,,,,,,261.5683868001215,262.0592844998464,,,[],[],,,,,,,,,,,,None,None,,,,,,,,,,Blume,robust,"['Blume', 'robust']",restudy,2,,,,,,261.56831170013174,261.5683589000255,"['Blume', 'Vase', 'Tasche', 'Eimer', 'Flasche', 'Jacke', 'Schlüssel', 'Rucksack', 'Buch', 'Fahrrad', 'Tasse', 'Kerze', 'Würfel', 'Stift', 'Socke', 'Uhr', 'Hut', 'Ring', 'Kamera', 'Kiste', 'Kette', 'Geige', 'Lampe', 'Hammer', 'Brille', 'Telefon', 'Schere', 'Trommel', 'Bürste', 'Löffel']",262.0592955998145,262.06199529999867,None,262.06217999989167,268.071879199706,3,1.1463879998773336,None,268.0723001998849,268.07497869990766,None,268.0751414000988,268.07630679989234,268.0763190998696,268.07757609989494,,,,,,,,,,,,,,,,,,,,,,,,,,,,,,,,,,,,,,,,,,,,,,,2,2023-12-11_10h38.43.188,watkins1,2023.2.3,99.77301654065228,55,2023-12-11 10h39.15.148904 +0000,
,,,,,,,,,,,1,0,1,0,,,,,,,,,,,,,268.08145800000057,,,,,,,,,,,,268.0778640001081,268.5735733998008,,,[],[],,,,,,,,,,,,1.856532999780029,None,,,,,Vase,,,,,Vase,flauschig,"['Vase', 'flauschig']",test_sub,2,,,,,,268.0777996000834,268.07783690001816,"['Blume', 'Vase', 'Tasche', 'Eimer', 'Flasche', 'Jacke', 'Schlüssel', 'Rucksack', 'Buch', 'Fahrrad', 'Tasse', 'Kerze', 'Würfel', 'Stift', 'Socke', 'Uhr', 'Hut', 'Ring', 'Kamera', 'Kiste', 'Kette', 'Geige', 'Lampe', 'Hammer', 'Brille', 'Telefon', 'Schere', 'Trommel', 'Bürste', 'Löffel']",268.57358400011435,268.5761800999753,None,268.57630810001865,268.5776201998815,None,,,268.57773010013625,268.5790339000523,None,268.57914320006967,268.58018800010905,268.58020070008934,274.5839438000694,1,,,,,,,,,,,,,,,,,,,,,,,,,,,,,,,,,,,,,,,,,,,,,,2,2023-12-11_10h38.43.188,watkins1,2023.2.3,99.77301654065228,55,2023-12-11 10h39.15.148904 +0000,
,,,,,,,,,,,2,0,2,0,,,,,,,,,,,,,274.5937358997762,,,,,,,,,,,,274.5842299996875,275.0758130000904,,,[],[],,,,,,,,,,,,None,None,,,,,,,,,,Tasche,groß,"['Tasche', 'groß']",restudy,2,,,,,,274.58416430000216,274.5842017997056,"['Blume', 'Vase', 'Tasche', 'Eimer', 'Flasche', 'Jacke', 'Schlüssel', 'Rucksack', 'Buch', 'Fahrrad', 'Tasse', 'Kerze', 'Würfel', 'Stift', 'Socke', 'Uhr', 'Hut', 'Ring', 'Kamera', 'Kiste', 'Kette', 'Geige', 'Lampe', 'Hammer', 'Brille', 'Telefon', 'Schere', 'Trommel', 'Bürste', 'Löffel']",275.07582399994135,275.0786902997643,None,275.07881770003587,281.08721000002697,3,1.6265703001990914,None,281.0875106998719,281.09013979975134,None,281.09025370003656,281.0915553998202,281.0915672001429,281.0929101998918,,,,,,,,,,,,,,,,,,,,,,,,,,,,,,,,,,,,,,,,,,,,,,,2,2023-12-11_10h38.43.188,watkins1,2023.2.3,99.77301654065228,55,2023-12-11 10h39.15.148904 +0000,
,,,,,,,,,,,3,0,3,0,,,,,,,,,,,,,281.0967848999426,,,,,,,,,,,,281.09319459972903,281.588891599793,,,[],[],,,,,,,,,,,,1.905551899690181,None,,,,,Eimer,,,,,Eimer,kalt,"['Eimer', 'kalt']",test_sub,2,,,,,,281.0931307999417,281.0931680998765,"['Blume', 'Vase', 'Tasche', 'Eimer', 'Flasche', 'Jacke', 'Schlüssel', 'Rucksack', 'Buch', 'Fahrrad', 'Tasse', 'Kerze', 'Würfel', 'Stift', 'Socke', 'Uhr', 'Hut', 'Ring', 'Kamera', 'Kiste', 'Kette', 'Geige', 'Lampe', 'Hammer', 'Brille', 'Telefon', 'Schere', 'Trommel', 'Bürste', 'Löffel']",281.5889026001096,281.5914557999931,None,281.5915826000273,281.59300829982385,None,,,281.5931199998595,281.59456169977784,None,281.5946701997891,281.59583760006353,281.59585039969534,287.5986546999775,1,,,,,,,,,,,,,,,,,,,,,,,,,,,,,,,,,,,,,,,,,,,,,,2,2023-12-11_10h38.43.188,watkins1,2023.2.3,99.77301654065228,55,2023-12-11 10h39.15.148904 +0000,
,,,,,,,,,,,4,0,4,0,,,,,,,,,,,,,287.6085601998493,,,,,,,,,,,,287.5989358997904,288.09058509999886,,,[],[],,,,,,,,,,,,None,None,,,,,,,,,,Flasche,schmutzig,"['Flasche', 'schmutzig']",restudy,2,,,,,,287.5988698997535,287.59890699991956,"['Blume', 'Vase', 'Tasche', 'Eimer', 'Flasche', 'Jacke', 'Schlüssel', 'Rucksack', 'Buch', 'Fahrrad', 'Tasse', 'Kerze', 'Würfel', 'Stift', 'Socke', 'Uhr', 'Hut', 'Ring', 'Kamera', 'Kiste', 'Kette', 'Geige', 'Lampe', 'Hammer', 'Brille', 'Telefon', 'Schere', 'Trommel', 'Bürste', 'Löffel']",288.09059569984674,288.0932192998007,None,288.09334699995816,294.1018487000838,2,4.163882500026375,None,294.1021481999196,294.10491190012544,None,294.1050251000561,294.1062497999519,294.1062618000433,294.1077948999591,,,,,,,,,,,,,,,,,,,,,,,,,,,,,,,,,,,,,,,,,,,,,,,2,2023-12-11_10h38.43.188,watkins1,2023.2.3,99.77301654065228,55,2023-12-11 10h39.15.148904 +0000,
,,,,,,,,,,,5,0,5,0,,,,,,,,,,,,,294.11128890002146,,,,,,,,,,,,294.10807640012354,294.6037689000368,,,[],[],,,,,,,,,,,,None,None,,,,,,,,,,Jacke,schwer,"['Jacke', 'schwer']",restudy,2,,,,,,294.10801189998165,294.10804959991947,"['Blume', 'Vase', 'Tasche', 'Eimer', 'Flasche', 'Jacke', 'Schlüssel', 'Rucksack', 'Buch', 'Fahrrad', 'Tasse', 'Kerze', 'Würfel', 'Stift', 'Socke', 'Uhr', 'Hut', 'Ring', 'Kamera', 'Kiste', 'Kette', 'Geige', 'Lampe', 'Hammer', 'Brille', 'Telefon', 'Schere', 'Trommel', 'Bürste', 'Löffel']",294.6037809997797,294.607082599774,None,294.6072216001339,300.6097947997041,3,1.697709399741143,None,300.6101075997576,300.61278080008924,None,300.61289349989966,300.6140585998073,300.6140703000128,300.6152717000805,,,,,,,,,,,,,,,,,,,,,,,,,,,,,,,,,,,,,,,,,,,,,,,2,2023-12-11_10h38.43.188,watkins1,2023.2.3,99.77301654065228,55,2023-12-11 10h39.15.148904 +0000,
,,,,,,,,,,,6,0,6,0,,,,,,,,,,,,,300.61937979981303,,,,,,,,,,,,300.6155543997884,301.1113303997554,,,[],[],,,,,,,,,,,,1.1233931998722255,None,,,,,Schlüssel,,,,,Schlüssel,gepunktet,"['Schlüssel', 'gepunktet']",test_sub,2,,,,,,300.615489799995,300.6155272000469,"['Blume', 'Vase', 'Tasche', 'Eimer', 'Flasche', 'Jacke', 'Schlüssel', 'Rucksack', 'Buch', 'Fahrrad', 'Tasse', 'Kerze', 'Würfel', 'Stift', 'Socke', 'Uhr', 'Hut', 'Ring', 'Kamera', 'Kiste', 'Kette', 'Geige', 'Lampe', 'Hammer', 'Brille', 'Telefon', 'Schere', 'Trommel', 'Bürste', 'Löffel']",301.11134039983153,301.1140862000175,None,301.11420950014144,301.11571099981666,None,,,301.11582079995424,301.11742219980806,None,301.1175335999578,301.11876729968935,301.11877979990095,307.12378149991855,1,,,,,,,,,,,,,,,,,,,,,,,,,,,,,,,,,,,,,,,,,,,,,,2,2023-12-11_10h38.43.188,watkins1,2023.2.3,99.77301654065228,55,2023-12-11 10h39.15.148904 +0000,
,,,,,,,,,,,7,0,7,0,,,,,,,,,,,,,307.13357120007277,,,,,,,,,,,,307.1240666001104,307.6156393000856,,,[],[],,,,,,,,,,,,1.6687084999866784,None,,,,,Rucksack,,,,,Rucksack,gestreift,"['Rucksack', 'gestreift']",test_sub,2,,,,,,307.12399949971586,307.12403800012544,"['Blume', 'Vase', 'Tasche', 'Eimer', 'Flasche', 'Jacke', 'Schlüssel', 'Rucksack', 'Buch', 'Fahrrad', 'Tasse', 'Kerze', 'Würfel', 'Stift', 'Socke', 'Uhr', 'Hut', 'Ring', 'Kamera', 'Kiste', 'Kette', 'Geige', 'Lampe', 'Hammer', 'Brille', 'Telefon', 'Schere', 'Trommel', 'Bürste', 'Löffel']",307.61564969969913,307.6184740001336,None,307.6186015000567,307.6212578001432,None,,,307.62136679980904,307.62400329997763,None,307.6241131001152,307.6256842999719,307.6256971997209,313.63293229974806,1,,,,,,,,,,,,,,,,,,,,,,,,,,,,,,,,,,,,,,,,,,,,,,2,2023-12-11_10h38.43.188,watkins1,2023.2.3,99.77301654065228,55,2023-12-11 10h39.15.148904 +0000,
,,,,,,,,,,,8,0,8,0,,,,,,,,,,,,,313.64272979972884,,,,,,,,,,,,313.63321569981053,314.1246213000268,,,[],[],,,,,,,,,,,,None,None,,,,,,,,,,Buch,nachhaltig,"['Buch', 'nachhaltig']",restudy,2,,,,,,313.6331453998573,313.6331861997023,"['Blume', 'Vase', 'Tasche', 'Eimer', 'Flasche', 'Jacke', 'Schlüssel', 'Rucksack', 'Buch', 'Fahrrad', 'Tasse', 'Kerze', 'Würfel', 'Stift', 'Socke', 'Uhr', 'Hut', 'Ring', 'Kamera', 'Kiste', 'Kette', 'Geige', 'Lampe', 'Hammer', 'Brille', 'Telefon', 'Schere', 'Trommel', 'Bürste', 'Löffel']",314.1246315999888,314.1272903997451,None,314.127414399758,320.1285501997918,3,0.8258358002640307,None,320.1288495999761,320.13157489988953,None,320.1316877999343,320.1327370000072,320.1327487998642,320.1343066999689,,,,,,,,,,,,,,,,,,,,,,,,,,,,,,,,,,,,,,,,,,,,,,,2,2023-12-11_10h38.43.188,watkins1,2023.2.3,99.77301654065228,55,2023-12-11 10h39.15.148904 +0000,
,,,,,,,,,,,9,0,9,0,,,,,,,,,,,,,320.13806660007685,,,,,,,,,,,,320.1345874001272,320.6302026999183,,,[],[],,,,,,,,,,,,1.1134428000077605,1.6657265000976622,,,,,Fahrrad,,,,,Fahrrad,sportlich,"['Fahrrad', 'sportlich']",test_sub,2,,,,,,320.13452279986814,320.1345603996888,"['Blume', 'Vase', 'Tasche', 'Eimer', 'Flasche', 'Jacke', 'Schlüssel', 'Rucksack', 'Buch', 'Fahrrad', 'Tasse', 'Kerze', 'Würfel', 'Stift', 'Socke', 'Uhr', 'Hut', 'Ring', 'Kamera', 'Kiste', 'Kette', 'Geige', 'Lampe', 'Hammer', 'Brille', 'Telefon', 'Schere', 'Trommel', 'Bürste', 'Löffel']",320.63021369976923,320.63306650007144,None,320.63319339975715,320.6346705998294,None,,,320.6347794998437,320.6362534998916,None,320.63636210002005,320.63755430001765,320.6375664998777,326.6412888998166,1,,,,,,,,,,,,,,,,,,,,,,,,,,,,,,,,,,,,,,,,,,,,,,2,2023-12-11_10h38.43.188,watkins1,2023.2.3,99.77301654065228,55,2023-12-11 10h39.15.148904 +0000,
,,,,,,,,,,,10,0,10,0,,,,,,,,,,,,,326.651090499945,,,,,,,,,,,,326.6415690998547,327.13342749979347,,,[],[],,,,,,,,,,,,1.3777821999974549,None,,,,,,,,,,Tasse,flach,"['Tasse', 'flach']",test_sub,2,,,,,,326.64150250004604,326.64154019998387,"['Blume', 'Vase', 'Tasche', 'Eimer', 'Flasche', 'Jacke', 'Schlüssel', 'Rucksack', 'Buch', 'Fahrrad', 'Tasse', 'Kerze', 'Würfel', 'Stift', 'Socke', 'Uhr', 'Hut', 'Ring', 'Kamera', 'Kiste', 'Kette', 'Geige', 'Lampe', 'Hammer', 'Brille', 'Telefon', 'Schere', 'Trommel', 'Bürste', 'Löffel']",327.13344160001725,327.1364090000279,None,327.1365374997258,327.139131099917,None,,,327.13924199994653,327.1418344001286,None,327.14194370014593,327.14350909972563,327.1435217997059,333.1507159001194,0,,,,,,,,,,,,,,,,,,,,,,,,,,,,,,,,,,,,,,,,,,,,,,2,2023-12-11_10h38.43.188,watkins1,2023.2.3,99.77301654065228,55,2023-12-11 10h39.15.148904 +0000,
,,,,,,,,,,,11,0,11,0,,,,,,,,,,,,,333.1606259997934,,,,,,,,,,,,333.15099869994447,333.6427374999039,,,[],[],,,,,,,,,,,,3.85587860038504,None,,,,,Kerze,,,,,Kerze,neu,"['Kerze', 'neu']",test_sub,2,,,,,,333.15092989988625,333.15096759982407,"['Blume', 'Vase', 'Tasche', 'Eimer', 'Flasche', 'Jacke', 'Schlüssel', 'Rucksack', 'Buch', 'Fahrrad', 'Tasse', 'Kerze', 'Würfel', 'Stift', 'Socke', 'Uhr', 'Hut', 'Ring', 'Kamera', 'Kiste', 'Kette', 'Geige', 'Lampe', 'Hammer', 'Brille', 'Telefon', 'Schere', 'Trommel', 'Bürste', 'Löffel']",333.642748599872,333.6454237997532,None,333.64555080002174,333.64806480007246,None,,,333.6481755999848,333.6506531997584,None,333.65076360013336,333.65191329969093,333.65192569978535,339.65678620012477,1,,,,,,,,,,,,,,,,,,,,,,,,,,,,,,,,,,,,,,,,,,,,,,2,2023-12-11_10h38.43.188,watkins1,2023.2.3,99.77301654065228,55,2023-12-11 10h39.15.148904 +0000,
,,,,,,,,,,,12,0,12,0,,,,,,,,,,,,,339.66660169977695,,,,,,,,,,,,339.65706839971244,340.14865959994495,,,[],[],,,,,,,,,,,,None,None,,,,,,,,,,Würfel,bunt,"['Würfel', 'bunt']",test_sub,2,,,,,,339.6570003000088,339.65703930007294,"['Blume', 'Vase', 'Tasche', 'Eimer', 'Flasche', 'Jacke', 'Schlüssel', 'Rucksack', 'Buch', 'Fahrrad', 'Tasse', 'Kerze', 'Würfel', 'Stift', 'Socke', 'Uhr', 'Hut', 'Ring', 'Kamera', 'Kiste', 'Kette', 'Geige', 'Lampe', 'Hammer', 'Brille', 'Telefon', 'Schere', 'Trommel', 'Bürste', 'Löffel']",340.1486705997959,340.15136059978977,None,340.15148669993505,340.1538653001189,None,,,340.15397490002215,340.156359099783,None,340.15646639978513,340.1576417000033,340.1576542998664,346.1630016998388,0,,,,,,,,,,,,,,,,,,,,,,,,,,,,,,,,,,,,,,,,,,,,,,2,2023-12-11_10h38.43.188,watkins1,2023.2.3,99.77301654065228,55,2023-12-11 10h39.15.148904 +0000,
,,,,,,,,,,,13,0,13,0,,,,,,,,,,,,,346.1727641001344,,,,,,,,,,,,346.16328360000625,346.6548949996941,,,[],[],,,,,,,,,,,,None,None,,,,,,,,,,Stift,kaputt,"['Stift', 'kaputt']",restudy,2,,,,,,346.1632153997198,346.16325470013544,"['Blume', 'Vase', 'Tasche', 'Eimer', 'Flasche', 'Jacke', 'Schlüssel', 'Rucksack', 'Buch', 'Fahrrad', 'Tasse', 'Kerze', 'Würfel', 'Stift', 'Socke', 'Uhr', 'Hut', 'Ring', 'Kamera', 'Kiste', 'Kette', 'Geige', 'Lampe', 'Hammer', 'Brille', 'Telefon', 'Schere', 'Trommel', 'Bürste', 'Löffel']",346.6549056000076,346.6575913000852,None,346.657718999777,352.6680549001321,1,1.8234418001957238,None,352.6683473000303,352.67106739990413,None,352.6711804000661,352.6723186997697,352.6723305997439,352.67347169993445,,,,,,,,,,,,,,,,,,,,,,,,,,,,,,,,,,,,,,,,,,,,,,,2,2023-12-11_10h38.43.188,watkins1,2023.2.3,99.77301654065228,55,2023-12-11 10h39.15.148904 +0000,
,,,,,,,,,,,14,0,14,0,,,,,,,,,,,,,352.677451999858,,,,,,,,,,,,352.6737486999482,353.1696868999861,,,[],[],,,,,,,,,,,,None,None,,,,,,,,,,Socke,winzig,"['Socke', 'winzig']",test_sub,2,,,,,,352.67368539981544,352.6737224999815,"['Blume', 'Vase', 'Tasche', 'Eimer', 'Flasche', 'Jacke', 'Schlüssel', 'Rucksack', 'Buch', 'Fahrrad', 'Tasse', 'Kerze', 'Würfel', 'Stift', 'Socke', 'Uhr', 'Hut', 'Ring', 'Kamera', 'Kiste', 'Kette', 'Geige', 'Lampe', 'Hammer', 'Brille', 'Telefon', 'Schere', 'Trommel', 'Bürste', 'Löffel']",353.1696979999542,353.17240939987823,None,353.1725348001346,353.17396119982004,None,,,353.17407070007175,353.17550530005246,None,353.1756132999435,353.1767730996944,353.17678580014035,359.1801752001047,0,,,,,,,,,,,,,,,,,,,,,,,,,,,,,,,,,,,,,,,,,,,,,,2,2023-12-11_10h38.43.188,watkins1,2023.2.3,99.77301654065228,55,2023-12-11 10h39.15.148904 +0000,
,,,,,,,,,,,15,0,15,0,,,,,,,,,,,,,359.1899741999805,,,,,,,,,,,,359.1804533000104,359.6720219999552,,,[],[],,,,,,,,,,,,None,None,,,,,,,,,,Uhr,zart,"['Uhr', 'zart']",test_sub,2,,,,,,359.1803887998685,359.1804244997911,"['Blume', 'Vase', 'Tasche', 'Eimer', 'Flasche', 'Jacke', 'Schlüssel', 'Rucksack', 'Buch', 'Fahrrad', 'Tasse', 'Kerze', 'Würfel', 'Stift', 'Socke', 'Uhr', 'Hut', 'Ring', 'Kamera', 'Kiste', 'Kette', 'Geige', 'Lampe', 'Hammer', 'Brille', 'Telefon', 'Schere', 'Trommel', 'Bürste', 'Löffel']",359.6720328000374,359.6746264998801,None,359.6747527997941,359.677153499797,None,,,359.6772659998387,359.67967090010643,None,359.6797803998925,359.68080750014633,359.6808198001236,365.68547610007226,0,,,,,,,,,,,,,,,,,,,,,,,,,,,,,,,,,,,,,,,,,,,,,,2,2023-12-11_10h38.43.188,watkins1,2023.2.3,99.77301654065228,55,2023-12-11 10h39.15.148904 +0000,
,,,,,,,,,,,16,0,16,0,,,,,,,,,,,,,365.69522619992495,,,,,,,,,,,,365.6857516998425,366.17727669980377,,,[],[],,,,,,,,,,,,None,None,,,,,,,,,,Hut,schlicht,"['Hut', 'schlicht']",restudy,2,,,,,,365.68568699993193,365.6857229997404,"['Blume', 'Vase', 'Tasche', 'Eimer', 'Flasche', 'Jacke', 'Schlüssel', 'Rucksack', 'Buch', 'Fahrrad', 'Tasse', 'Kerze', 'Würfel', 'Stift', 'Socke', 'Uhr', 'Hut', 'Ring', 'Kamera', 'Kiste', 'Kette', 'Geige', 'Lampe', 'Hammer', 'Brille', 'Telefon', 'Schere', 'Trommel', 'Bürste', 'Löffel']",366.1772877997719,366.17974729975685,None,366.17987249977887,372.1813631998375,3,1.9732321999035776,None,372.1816596998833,372.18436269974336,None,372.1844860999845,372.18555870000273,372.18557110009715,372.1868238998577,,,,,,,,,,,,,,,,,,,,,,,,,,,,,,,,,,,,,,,,,,,,,,,2,2023-12-11_10h38.43.188,watkins1,2023.2.3,99.77301654065228,55,2023-12-11 10h39.15.148904 +0000,
,,,,,,,,,,,17,0,17,0,,,,,,,,,,,,,372.19083179999143,,,,,,,,,,,,372.1871087998152,372.6828207997605,,,[],[],,,,,,,,,,,,None,None,,,,,,,,,,Ring,elegant,"['Ring', 'elegant']",restudy,2,,,,,,372.1870439001359,372.1870817998424,"['Blume', 'Vase', 'Tasche', 'Eimer', 'Flasche', 'Jacke', 'Schlüssel', 'Rucksack', 'Buch', 'Fahrrad', 'Tasse', 'Kerze', 'Würfel', 'Stift', 'Socke', 'Uhr', 'Hut', 'Ring', 'Kamera', 'Kiste', 'Kette', 'Geige', 'Lampe', 'Hammer', 'Brille', 'Telefon', 'Schere', 'Trommel', 'Bürste', 'Löffel']",372.682832099963,372.6856387001462,None,372.6857672999613,378.6901527000591,3,0.9153004996478558,None,378.69045120012015,378.6930992999114,None,378.6932128998451,378.6942730997689,378.6942849000916,378.69549909979105,,,,,,,,,,,,,,,,,,,,,,,,,,,,,,,,,,,,,,,,,,,,,,,2,2023-12-11_10h38.43.188,watkins1,2023.2.3,99.77301654065228,55,2023-12-11 10h39.15.148904 +0000,
,,,,,,,,,,,18,0,18,0,,,,,,,,,,,,,378.6997158997692,,,,,,,,,,,,378.69578449986875,379.1916779996827,,,[],[],,,,,,,,,,,,None,None,,,,,,,,,,Kamera,dunkel,"['Kamera', 'dunkel']",restudy,2,,,,,,378.69572009984404,378.69575760001317,"['Blume', 'Vase', 'Tasche', 'Eimer', 'Flasche', 'Jacke', 'Schlüssel', 'Rucksack', 'Buch', 'Fahrrad', 'Tasse', 'Kerze', 'Würfel', 'Stift', 'Socke', 'Uhr', 'Hut', 'Ring', 'Kamera', 'Kiste', 'Kette', 'Geige', 'Lampe', 'Hammer', 'Brille', 'Telefon', 'Schere', 'Trommel', 'Bürste', 'Löffel']",379.19168870011345,379.19448469998315,None,379.1946164998226,385.19650369975716,1,0.9183667004108429,None,385.19680409971625,385.19956959970295,None,385.1996832001023,385.20093809999526,385.2009497000836,385.20212769974023,,,,,,,,,,,,,,,,,,,,,,,,,,,,,,,,,,,,,,,,,,,,,,,2,2023-12-11_10h38.43.188,watkins1,2023.2.3,99.77301654065228,55,2023-12-11 10h39.15.148904 +0000,
,,,,,,,,,,,19,0,19,0,,,,,,,,,,,,,385.20596949988976,,,,,,,,,,,,385.20241309981793,385.6980662997812,,,[],[],,,,,,,,,,,,4.588143399916589,None,,,,,Kiste,,,,,Kiste,praktisch,"['Kiste', 'praktisch']",test_sub,2,,,,,,385.20234679989517,385.20238550007343,"['Blume', 'Vase', 'Tasche', 'Eimer', 'Flasche', 'Jacke', 'Schlüssel', 'Rucksack', 'Buch', 'Fahrrad', 'Tasse', 'Kerze', 'Würfel', 'Stift', 'Socke', 'Uhr', 'Hut', 'Ring', 'Kamera', 'Kiste', 'Kette', 'Geige', 'Lampe', 'Hammer', 'Brille', 'Telefon', 'Schere', 'Trommel', 'Bürste', 'Löffel']",385.6980765997432,385.7009197999723,None,385.7010431000963,385.7024853997864,None,,,385.7025934997946,385.7039998001419,None,385.70410849992186,385.7052551996894,385.7052678000182,391.7091966997832,1,,,,,,,,,,,,,,,,,,,,,,,,,,,,,,,,,,,,,,,,,,,,,,2,2023-12-11_10h38.43.188,watkins1,2023.2.3,99.77301654065228,55,2023-12-11 10h39.15.148904 +0000,
,,,,,,,,,,,20,0,20,0,,,,,,,,,,,,,391.7190156998113,,,,,,,,,,,,391.7094823997468,392.2010846999474,,,[],[],,,,,,,,,,,,3.2855877997353673,4.048922499641776,,,,,Kette,,,,,Kette,kratzig,"['Kette', 'kratzig']",test_sub,2,,,,,,391.70941519970074,391.70945359999314,"['Blume', 'Vase', 'Tasche', 'Eimer', 'Flasche', 'Jacke', 'Schlüssel', 'Rucksack', 'Buch', 'Fahrrad', 'Tasse', 'Kerze', 'Würfel', 'Stift', 'Socke', 'Uhr', 'Hut', 'Ring', 'Kamera', 'Kiste', 'Kette', 'Geige', 'Lampe', 'Hammer', 'Brille', 'Telefon', 'Schere', 'Trommel', 'Bürste', 'Löffel']",392.20109520014375,392.2039071000181,None,392.2040327996947,392.20670739980415,None,,,392.20681959996,392.20980719989166,None,392.20991689991206,392.21117449970916,392.21118710003793,398.218305000104,1,,,,,,,,,,,,,,,,,,,,,,,,,,,,,,,,,,,,,,,,,,,,,,2,2023-12-11_10h38.43.188,watkins1,2023.2.3,99.77301654065228,55,2023-12-11 10h39.15.148904 +0000,
,,,,,,,,,,,21,0,21,0,,,,,,,,,,,,,398.22808229969814,,,,,,,,,,,,398.21859459998086,398.71005479991436,,,[],[],,,,,,,,,,,,None,None,,,,,,,,,,Geige,niedlich,"['Geige', 'niedlich']",restudy,2,,,,,,398.2185236001387,398.2185630998574,"['Blume', 'Vase', 'Tasche', 'Eimer', 'Flasche', 'Jacke', 'Schlüssel', 'Rucksack', 'Buch', 'Fahrrad', 'Tasse', 'Kerze', 'Würfel', 'Stift', 'Socke', 'Uhr', 'Hut', 'Ring', 'Kamera', 'Kiste', 'Kette', 'Geige', 'Lampe', 'Hammer', 'Brille', 'Telefon', 'Schere', 'Trommel', 'Bürste', 'Löffel']",398.7100646998733,398.7129134000279,None,398.7130388999358,404.7154803997837,2,1.496098999865353,None,404.71578319976106,404.718568299897,None,404.71868279995397,404.71982700005174,404.71983879990876,404.7213355000131,,,,,,,,,,,,,,,,,,,,,,,,,,,,,,,,,,,,,,,,,,,,,,,2,2023-12-11_10h38.43.188,watkins1,2023.2.3,99.77301654065228,55,2023-12-11 10h39.15.148904 +0000,
,,,,,,,,,,,22,0,22,0,,,,,,,,,,,,,404.724969800096,,,,,,,,,,,,404.7216147999279,405.21696719992906,,,[],[],,,,,,,,,,,,None,None,,,,,,,,,,Lampe,lang,"['Lampe', 'lang']",restudy,2,,,,,,404.7215505000204,404.721587699838,"['Blume', 'Vase', 'Tasche', 'Eimer', 'Flasche', 'Jacke', 'Schlüssel', 'Rucksack', 'Buch', 'Fahrrad', 'Tasse', 'Kerze', 'Würfel', 'Stift', 'Socke', 'Uhr', 'Hut', 'Ring', 'Kamera', 'Kiste', 'Kette', 'Geige', 'Lampe', 'Hammer', 'Brille', 'Telefon', 'Schere', 'Trommel', 'Bürste', 'Löffel']",405.2169785001315,405.2198272999376,None,405.219954200089,411.22259020013735,1,1.1170739000663161,None,411.2228878000751,411.2255283999257,None,411.2256424999796,411.2268032999709,411.2268151999451,411.2278594998643,,,,,,,,,,,,,,,,,,,,,,,,,,,,,,,,,,,,,,,,,,,,,,,2,2023-12-11_10h38.43.188,watkins1,2023.2.3,99.77301654065228,55,2023-12-11 10h39.15.148904 +0000,
,,,,,,,,,,,23,0,23,0,,,,,,,,,,,,,411.23205839982256,,,,,,,,,,,,411.22813999978825,411.72437429986894,,,[],[],,,,,,,,,,,,None,None,,,,,,,,,,Hammer,dick,"['Hammer', 'dick']",restudy,2,,,,,,411.22807559976354,411.22811329970136,"['Blume', 'Vase', 'Tasche', 'Eimer', 'Flasche', 'Jacke', 'Schlüssel', 'Rucksack', 'Buch', 'Fahrrad', 'Tasse', 'Kerze', 'Würfel', 'Stift', 'Socke', 'Uhr', 'Hut', 'Ring', 'Kamera', 'Kiste', 'Kette', 'Geige', 'Lampe', 'Hammer', 'Brille', 'Telefon', 'Schere', 'Trommel', 'Bürste', 'Löffel']",411.72438520006835,411.7269162000157,None,411.72704249992967,417.7275859997608,3,0.7143589002080262,None,417.7278859000653,417.73043689969927,None,417.73054979974404,417.73183599999174,417.73184789996594,417.73289189999923,,,,,,,,,,,,,,,,,,,,,,,,,,,,,,,,,,,,,,,,,,,,,,,2,2023-12-11_10h38.43.188,watkins1,2023.2.3,99.77301654065228,55,2023-12-11 10h39.15.148904 +0000,
,,,,,,,,,,,24,0,24,0,,,,,,,,,,,,,417.73705139989033,,,,,,,,,,,,417.7331789000891,418.229061299935,,,[],[],,,,,,,,,,,,1.092915799934417,None,,,,,,,,,,Brille,nass,"['Brille', 'nass']",test_sub,2,,,,,,417.7331137000583,417.7331515997648,"['Blume', 'Vase', 'Tasche', 'Eimer', 'Flasche', 'Jacke', 'Schlüssel', 'Rucksack', 'Buch', 'Fahrrad', 'Tasse', 'Kerze', 'Würfel', 'Stift', 'Socke', 'Uhr', 'Hut', 'Ring', 'Kamera', 'Kiste', 'Kette', 'Geige', 'Lampe', 'Hammer', 'Brille', 'Telefon', 'Schere', 'Trommel', 'Bürste', 'Löffel']",418.2290730001405,418.2316664000973,None,418.23179440014064,418.2332385000773,None,,,418.2333511998877,418.23479739995673,None,418.2349088001065,418.23609269969165,418.2361057000235,424.23966339975595,0,,,,,,,,,,,,,,,,,,,,,,,,,,,,,,,,,,,,,,,,,,,,,,2,2023-12-11_10h38.43.188,watkins1,2023.2.3,99.77301654065228,55,2023-12-11 10h39.15.148904 +0000,
,,,,,,,,,,,25,0,25,0,,,,,,,,,,,,,424.24945829994977,,,,,,,,,,,,424.2399447998032,424.7315250998363,,,[],[],,,,,,,,,,,,None,None,,,,,,,,,,Telefon,biegsam,"['Telefon', 'biegsam']",restudy,2,,,,,,424.2398780998774,424.23991520004347,"['Blume', 'Vase', 'Tasche', 'Eimer', 'Flasche', 'Jacke', 'Schlüssel', 'Rucksack', 'Buch', 'Fahrrad', 'Tasse', 'Kerze', 'Würfel', 'Stift', 'Socke', 'Uhr', 'Hut', 'Ring', 'Kamera', 'Kiste', 'Kette', 'Geige', 'Lampe', 'Hammer', 'Brille', 'Telefon', 'Schere', 'Trommel', 'Bürste', 'Löffel']",424.73153579980135,424.73421159991995,None,424.7343366998248,430.7427177997306,1,1.426594799850136,None,430.7430122997612,430.74572680005804,None,430.7458391999826,430.7470215000212,430.74703310010955,430.74821290001273,,,,,,,,,,,,,,,,,,,,,,,,,,,,,,,,,,,,,,,,,,,,,,,2,2023-12-11_10h38.43.188,watkins1,2023.2.3,99.77301654065228,55,2023-12-11 10h39.15.148904 +0000,
,,,,,,,,,,,26,0,26,0,,,,,,,,,,,,,430.75218999991193,,,,,,,,,,,,430.74849150003865,431.24426160007715,,,[],[],,,,,,,,,,,,1.796298600267619,None,,,,,Schere,,,,,Schere,durchsichtig,"['Schere', 'durchsichtig']",test_sub,2,,,,,,430.7484267000109,430.7484643999487,"['Blume', 'Vase', 'Tasche', 'Eimer', 'Flasche', 'Jacke', 'Schlüssel', 'Rucksack', 'Buch', 'Fahrrad', 'Tasse', 'Kerze', 'Würfel', 'Stift', 'Socke', 'Uhr', 'Hut', 'Ring', 'Kamera', 'Kiste', 'Kette', 'Geige', 'Lampe', 'Hammer', 'Brille', 'Telefon', 'Schere', 'Trommel', 'Bürste', 'Löffel']",431.24427289981395,431.2469653999433,None,431.24709119973704,431.2490793997422,None,,,431.2491882997565,431.2507643997669,None,431.2508720001206,431.2520276000723,431.2520419000648,437.25613120011985,1,,,,,,,,,,,,,,,,,,,,,,,,,,,,,,,,,,,,,,,,,,,,,,2,2023-12-11_10h38.43.188,watkins1,2023.2.3,99.77301654065228,55,2023-12-11 10h39.15.148904 +0000,
,,,,,,,,,,,27,0,27,0,,,,,,,,,,,,,437.2658861000091,,,,,,,,,,,,437.25640940014273,437.74803869985044,,,[],[],,,,,,,,,,,,None,None,,,,,,,,,,Trommel,lustig,"['Trommel', 'lustig']",test_sub,2,,,,,,437.2563435998745,437.2563807000406,"['Blume', 'Vase', 'Tasche', 'Eimer', 'Flasche', 'Jacke', 'Schlüssel', 'Rucksack', 'Buch', 'Fahrrad', 'Tasse', 'Kerze', 'Würfel', 'Stift', 'Socke', 'Uhr', 'Hut', 'Ring', 'Kamera', 'Kiste', 'Kette', 'Geige', 'Lampe', 'Hammer', 'Brille', 'Telefon', 'Schere', 'Trommel', 'Bürste', 'Löffel']",437.7480488996953,437.75096129998565,None,437.7510854001157,437.7537627001293,None,,,437.75387319969013,437.7565407999791,None,437.7566498001106,437.7578354999423,437.75784779991955,443.764527999796,0,,,,,,,,,,,,,,,,,,,,,,,,,,,,,,,,,,,,,,,,,,,,,,2,2023-12-11_10h38.43.188,watkins1,2023.2.3,99.77301654065228,55,2023-12-11 10h39.15.148904 +0000,
,,,,,,,,,,,28,0,28,0,,,,,,,,,,,,,443.7743199998513,,,,,,,,,,,,443.76480779983103,444.2563570998609,,,[],[],,,,,,,,,,,,None,None,,,,,,,,,,Bürste,teuer,"['Bürste', 'teuer']",restudy,2,,,,,,443.76474019978195,443.76477869972587,"['Blume', 'Vase', 'Tasche', 'Eimer', 'Flasche', 'Jacke', 'Schlüssel', 'Rucksack', 'Buch', 'Fahrrad', 'Tasse', 'Kerze', 'Würfel', 'Stift', 'Socke', 'Uhr', 'Hut', 'Ring', 'Kamera', 'Kiste', 'Kette', 'Geige', 'Lampe', 'Hammer', 'Brille', 'Telefon', 'Schere', 'Trommel', 'Bürste', 'Löffel']",444.2563682999462,444.2591737001203,None,444.25929869990796,450.26077579986304,2,1.333700300194323,None,450.26107099978253,450.26383059984073,None,450.263959699776,450.26513740001246,450.2651490997523,450.26628919970244,,,,,,,,,,,,,,,,,,,,,,,,,,,,,,,,,,,,,,,,,,,,,,,2,2023-12-11_10h38.43.188,watkins1,2023.2.3,99.77301654065228,55,2023-12-11 10h39.15.148904 +0000,
,,,,,,,,,,,29,0,29,0,,,,,,,,,,,,,450.270285199862,,,,,,,,,,,,450.26657130010426,450.7623080997728,,,[],[],,,,,,,,,,,,None,None,,,,,,,,,,Löffel,hübsch,"['Löffel', 'hübsch']",restudy,2,,,,,,450.266506199725,450.2665442000143,"['Blume', 'Vase', 'Tasche', 'Eimer', 'Flasche', 'Jacke', 'Schlüssel', 'Rucksack', 'Buch', 'Fahrrad', 'Tasse', 'Kerze', 'Würfel', 'Stift', 'Socke', 'Uhr', 'Hut', 'Ring', 'Kamera', 'Kiste', 'Kette', 'Geige', 'Lampe', 'Hammer', 'Brille', 'Telefon', 'Schere', 'Trommel', 'Bürste', 'Löffel']",450.76231910008937,450.7649622997269,None,450.7650868999772,456.76614130008966,2,1.588005299679935,None,456.76644469983876,456.76913749985397,None,456.76925239991397,456.7704317998141,456.7704437999055,456.7716322997585,,,,,,,,,,,,,,,,,,,,,,,,,,,,,,,,,,,,,,,,,,,,,,,2,2023-12-11_10h38.43.188,watkins1,2023.2.3,99.77301654065228,55,2023-12-11 10h39.15.148904 +0000,
,,,,,,,,,,,,,,,,,,,,,,,,,,,,,,,,,,,,,,,,,,,,,,,,,,,,,,,,,,,,,,,,,,,,,,,2,,,,,,,,,,,,,,,,,,,,,,,,,,,,,,,,,,,,,,,,,,,,,,,,,,,,,,,,,,,,,,,,,,,,,,2,2023-12-11_10h38.43.188,watkins1,2023.2.3,99.77301654065228,55,2023-12-11 10h39.15.148904 +0000,
(2 x 5) + 3 = 13 ,Correct,button_correct,,,,,,,,,,,,,0,0,0,2,,,,,,,,,471.88756099995226,,,,,,,,,,470.8174974001013,471.82095649978146,,,,,['button_correct'],[4.418424099683762],,,,,,,,,,,,,,,,,,,,,,,,,,distractorTask,2,,,,,,,,,,,,,,,,,,,,,,,,,471.8761690999381,471.88756099995226,476.2997304997407,[0.4148148148148148],[-0.3888888888888889],[1],[0],[0],[4.418424099683762],['button_correct'],476.3004020000808,477.3032972998917,,,,,,,,,,,,,,,,,,,,,,,,,,,,,,,,,,2,2023-12-11_10h38.43.188,watkins1,2023.2.3,99.77301654065228,55,2023-12-11 10h39.15.148904 +0000,
(6 x 3) + 10 = 27 ,Incorrect,button_incorrect,,,,,,,,,,,,,0,1,1,8,,,,,,,,,477.3132577999495,,,,,,,,,,,,,,,,['button_incorrect'],[5.318505600094795],,,,,,,,,,,,,,,,,,,,,,,,,,distractorTask,2,,,,,,,,,,,,,,,,,,,,,,,,,477.30349650001153,477.3132577999495,482.6261685998179,[-0.3592592592592593],[-0.4009259259259259],[1],[0],[0],[5.318505600094795],['button_incorrect'],482.62655159970745,483.62986929994076,,,,,,,,,,,,,,,,,,,,,,,,,,,,,,,,,,2,2023-12-11_10h38.43.188,watkins1,2023.2.3,99.77301654065228,55,2023-12-11 10h39.15.148904 +0000,
(9 x 5) - 9 = 36 ,Correct,button_correct,,,,,,,,,,,,,0,2,2,4,,,,,,,,,483.639844099991,,,,,,,,,,,,,,,,['button_correct'],[4.003807900007814],,,,,,,,,,,,,,,,,,,,,,,,,,distractorTask,2,,,,,,,,,,,,,,,,,,,,,,,,,483.6300653000362,483.639844099991,487.63683350011706,[0.32407407407407407],[-0.39814814814814814],[1],[0],[0],[4.003807900007814],['button_correct'],487.637221199926,488.6403995999135,,,,,,,,,,,,,,,,,,,,,,,,,,,,,,,,,,2,2023-12-11_10h38.43.188,watkins1,2023.2.3,99.77301654065228,55,2023-12-11 10h39.15.148904 +0000,
(28 : 7) - 3 = 1 ,Correct,button_correct,,,,,,,,,,,,,0,3,3,0,,,,,,,,,488.6504588997923,,,,,,,,,,,,,,,,['button_correct'],[2.881204899866134],,,,,,,,,,,,,,,,,,,,,,,,,,distractorTask,2,,,,,,,,,,,,,,,,,,,,,,,,,488.6405925997533,488.6504588997923,491.52481939969584,[0.32314814814814813],[-0.375],[1],[0],[0],[2.881204899866134],['button_correct'],491.5252036997117,492.5284971999936,,,,,,,,,,,,,,,,,,,,,,,,,,,,,,,,,,2,2023-12-11_10h38.43.188,watkins1,2023.2.3,99.77301654065228,55,2023-12-11 10h39.15.148904 +0000,
(4 : 2) + 4 = 6 ,Correct,button_correct,,,,,,,,,,,,,0,4,4,1,,,,,,,,,492.5384172000922,,,,,,,,,,,,,,,,['button_correct'],[4.315525899641216],,,,,,,,,,,,,,,,,,,,,,,,,,distractorTask,2,,,,,,,,,,,,,,,,,,,,,,,,,492.5287069999613,492.5384172000922,496.8465765998699,[0.30925925925925923],[-0.3851851851851852],[1],[0],[0],[4.315525899641216],['button_correct'],496.8469650000334,497.85002599982545,,,,,,,,,,,,,,,,,,,,,,,,,,,,,,,,,,2,2023-12-11_10h38.43.188,watkins1,2023.2.3,99.77301654065228,55,2023-12-11 10h39.15.148904 +0000,
(25 : 5) + 5 = 9 ,Incorrect,button_incorrect,,,,,,,,,,,,,0,5,5,6,,,,,,,,,497.86005399981514,,,,,,,,,,,,,,,,['button_incorrect'],[3.412588400300592],,,,,,,,,,,,,,,,,,,,,,,,,,distractorTask,2,,,,,,,,,,,,,,,,,,,,,,,,,497.85023429989815,497.86005399981514,501.2645620997064,[-0.3037037037037037],[-0.3990740740740741],[1],[0],[0],[3.412588400300592],['button_incorrect'],501.2649607998319,502.267953899689,,,,,,,,,,,,,,,,,,,,,,,,,,,,,,,,,,2,2023-12-11_10h38.43.188,watkins1,2023.2.3,99.77301654065228,55,2023-12-11 10h39.15.148904 +0000,
(7 x 6) + 9 = 48 ,Incorrect,button_incorrect,,,,,,,,,,,,,0,6,6,9,,,,,,,,,502.278041199781,,,,,,,,,,,,,,,,['button_incorrect'],[5.189499699976295],,,,,,,,,,,,,,,,,,,,,,,,,,distractorTask,2,,,,,,,,,,,,,,,,,,,,,,,,,502.268154699821,502.278041199781,507.45937439985573,[-0.35648148148148145],[-0.39444444444444443],[1],[0],[0],[5.189499699976295],['button_incorrect'],507.45975459972396,508.46300579980016,,,,,,,,,,,,,,,,,,,,,,,,,,,,,,,,,,2,2023-12-11_10h38.43.188,watkins1,2023.2.3,99.77301654065228,55,2023-12-11 10h39.15.148904 +0000,
(54 : 6) - 10 = 0 ,Incorrect,button_incorrect,,,,,,,,,,,,,0,7,7,5,,,,,,,,,508.4729764997028,,,,,,,,,,,,,,,,['button_incorrect'],"[2.4182643997482955, 4.741779999807477]",,,,,,,,,,,,,,,,,,,,,,,,,,distractorTask,2,,,,,,,,,,,,,,,,,,,,,,,,,508.4631980000995,508.4729764997028,513.2067114999518,"[-0.3592592592592593, -0.35]","[-0.3712962962962963, -0.37962962962962965]","[1, 1]","[0, 0]","[0, 0]","[2.4182643997482955, 4.741779999807477]",['button_incorrect'],513.2071504998021,514.2095880000852,,,,,,,,,,,,,,,,,,,,,,,,,,,,,,,,,,2,2023-12-11_10h38.43.188,watkins1,2023.2.3,99.77301654065228,55,2023-12-11 10h39.15.148904 +0000,
(80 : 10) + 9 = 17 ,Correct,button_correct,,,,,,,,,,,,,0,8,8,3,,,,,,,,,514.2195262997411,,,,,,,,,,,,,,,,['button_incorrect'],[2.849911800120026],,,,,,,,,,,,,,,,,,,,,,,,,,distractorTask,2,,,,,,,,,,,,,,,,,,,,,,,,,514.2097803000361,514.2195262997411,517.0615594997071,[-0.3101851851851852],[-0.3907407407407407],[1],[0],[0],[2.849911800120026],['button_incorrect'],517.0619410998188,518.0652524000034,,,,,,,,,,,,,,,,,,,,,,,,,,,,,,,,,,2,2023-12-11_10h38.43.188,watkins1,2023.2.3,99.77301654065228,55,2023-12-11 10h39.15.148904 +0000,
(40 : 5) + 8 = 15 ,Incorrect,button_incorrect,,,,,,,,,,,,,0,9,9,7,,,,,,,,,518.0752476998605,,,,,,,,,,,,,,,,['button_incorrect'],"[7.820995300076902, 8.281932800076902]",,,,,,,,,,,,,,,,,,,,,,,,,,distractorTask,2,,,,,,,,,,,,,,,,,,,,,,,,,518.0654466999695,518.0752476998605,526.3491024998948,"[-0.35555555555555557, -0.35]","[-0.42685185185185187, -0.41759259259259257]","[1, 1]","[0, 0]","[0, 0]","[7.820995300076902, 8.281932800076902]",['button_incorrect'],526.3495048996992,527.3528819996864,,,,,,,,,,,,,,,,,,,,,,,,,,,,,,,,,,2,2023-12-11_10h38.43.188,watkins1,2023.2.3,99.77301654065228,55,2023-12-11 10h39.15.148904 +0000,
,,,,,,,,,,,,,,,,,,,,,,,,,,,,,,,,,,,,,,,,,,,,,,,,,,,,,,,,,,,,,,,,,,,,,,,2,,,,,,,,,,,,,,,,,,,,,,,,,,,,,,,,,,,,,,,,,,,,,,,,,,,,,,,,,,,,,,,,,,,,,,2,2023-12-11_10h38.43.188,watkins1,2023.2.3,99.77301654065228,55,2023-12-11 10h39.15.148904 +0000,
,,,,,,,,,,,,,,,,,,,0,0,0,0,,,,,537.6635321998037,,,,,,,,,,,,,,,,Fahrrad,6.109811200294644,,,,,,,,,,,,3.855132100172341,None,,,,,,,,,,,,,freeRecallSub,2,,,,,,,,,,,,,,,,,,,,,,,,,,,,,,,,,,,,,537.6549317999743,537.6635321998037,537.6635321998037,543.7788380999118,return,6.109811200294644,None,Fahrrad,"[0.07314814814814814, 0.07222222222222222, 0.06944444444444445, 0.06018518518518518]","[0.017592592592592594, 0.03148148148148148, 0.06018518518518518, 0.049074074074074076]","[1, 1, 1, 1]","[0, 0, 0, 0]","[0, 0, 0, 0]","[1.203855600208044, 1.5853293002583086, 1.9669022001326084, 2.4589018002152443]",[],,,,,,,,,,,,,,,,,,,2,2023-12-11_10h38.43.188,watkins1,2023.2.3,99.77301654065228,55,2023-12-11 10h39.15.148904 +0000,
,,,,,,,,,,,,,,,,,,,1,0,1,0,,,,,543.7912630997598,,,,,,,,,,,,,,,,Bürste,2.4460987001657486,,,,,,,,,,,,0.39399929996579885,None,,,,,,,,,,,,,freeRecallSub,2,,,,,,,,,,,,,,,,,,,,,,,,,,,,,,,,,,,,,543.7806746000424,543.7912630997598,543.7912630997598,546.2432339997031,return,2.4460987001657486,None,Bürste,[],[],[],[],[],[],[],,,,,,,,,,,,,,,,,,,2,2023-12-11_10h38.43.188,watkins1,2023.2.3,99.77301654065228,55,2023-12-11 10h39.15.148904 +0000,
,,,,,,,,,,,,,,,,,,,2,0,2,0,,,,,546.2555895000696,,,,,,,,,,,,,,,,Eimer,1.0537405000068247,,,,,,,,,,,,0.2237487998791039,None,,,,,,,,,,,,,freeRecallSub,2,,,,,,,,,,,,,,,,,,,,,,,,,,,,,,,,,,,,,546.2444966998883,546.2555895000696,546.2555895000696,547.3118127998896,return,1.0537405000068247,None,Eimer,[],[],[],[],[],[],[],,,,,,,,,,,,,,,,,,,2,2023-12-11_10h38.43.188,watkins1,2023.2.3,99.77301654065228,55,2023-12-11 10h39.15.148904 +0000,
,,,,,,,,,,,,,,,,,,,3,0,3,0,,,,,547.3226286997087,,,,,,,,,,,,,,,,Kerze,1.7305499999783933,,,,,,,,,,,,0.3613209999166429,None,,,,,,,,,,,,,freeRecallSub,2,,,,,,,,,,,,,,,,,,,,,,,,,,,,,,,,,,,,,547.3130692997947,547.3226286997087,547.3226286997087,549.0598562997766,return,1.7305499999783933,None,Kerze,[],[],[],[],[],[],[],,,,,,,,,,,,,,,,,,,2,2023-12-11_10h38.43.188,watkins1,2023.2.3,99.77301654065228,55,2023-12-11 10h39.15.148904 +0000,
,,,,,,,,,,,,,,,,,,,4,0,4,0,,,,,549.0708286999725,,,,,,,,,,,,,,,,Rucksack,1.7423741999082267,,,,,,,,,,,,0.5319776996038854,None,,,,,,,,,,,,,freeRecallSub,2,,,,,,,,,,,,,,,,,,,,,,,,,,,,,,,,,,,,,549.0611284999177,549.0708286999725,549.0708286999725,550.8183462996967,return,1.7423741999082267,None,Rucksack,[],[],[],[],[],[],[],,,,,,,,,,,,,,,,,,,2,2023-12-11_10h38.43.188,watkins1,2023.2.3,99.77301654065228,55,2023-12-11 10h39.15.148904 +0000,
,,,,,,,,,,,,,,,,,,,5,0,5,0,,,,,550.8300430998206,,,,,,,,,,,,,,,,Schlüssel,2.1193484999239445,,,,,,,,,,,,0.6440451997332275,None,,,,,,,,,,,,,freeRecallSub,2,,,,,,,,,,,,,,,,,,,,,,,,,,,,,,,,,,,,,550.8196136998013,550.8300430998206,550.8300430998206,552.9595550000668,return,2.1193484999239445,None,Schlüssel,[],[],[],[],[],[],[],,,,,,,,,,,,,,,,,,,2,2023-12-11_10h38.43.188,watkins1,2023.2.3,99.77301654065228,55,2023-12-11 10h39.15.148904 +0000,
,,,,,,,,,,,,,,,,,,,6,0,6,0,,,,,552.9712291997857,,,,,,,,,,,,,,,,Kiste,0.8419758002273738,,,,,,,,,,,,0.16188309993594885,None,,,,,,,,,,,,,freeRecallSub,2,,,,,,,,,,,,,,,,,,,,,,,,,,,,,,,,,,,,,552.9608161998913,552.9712291997857,552.9712291997857,553.8156280997209,return,0.8419758002273738,None,Kiste,[],[],[],[],[],[],[],,,,,,,,,,,,,,,,,,,2,2023-12-11_10h38.43.188,watkins1,2023.2.3,99.77301654065228,55,2023-12-11 10h39.15.148904 +0000,
,,,,,,,,,,,,,,,,,,,7,0,7,0,,,,,553.8271479001269,,,,,,,,,,,,,,,,Kette,5.906144300010055,,,,,,,,,,,,3.123770800419152,None,,,,,,,,,,,,,freeRecallSub,2,,,,,,,,,,,,,,,,,,,,,,,,,,,,,,,,,,,,,553.8168824999593,553.8271479001269,553.8271479001269,559.7418073001318,return,5.906144300010055,None,Kette,[],[],[],[],[],[],[],,,,,,,,,,,,,,,,,,,2,2023-12-11_10h38.43.188,watkins1,2023.2.3,99.77301654065228,55,2023-12-11 10h39.15.148904 +0000,
,,,,,,,,,,,,,,,,,,,8,0,8,0,,,,,559.7534099998884,,,,,,,,,,,,,,,,Flasche,6.811995999887586,,,,,,,,,,,,4.941123399883509,None,,,,,,,,,,,,,freeRecallSub,2,,,,,,,,,,,,,,,,,,,,,,,,,,,,,,,,,,,,,559.7430775999092,559.7534099998884,559.7534099998884,566.5717791998759,return,6.811995999887586,None,Flasche,[],[],[],[],[],[],[],,,,,,,,,,,,,,,,,,,2,2023-12-11_10h38.43.188,watkins1,2023.2.3,99.77301654065228,55,2023-12-11 10h39.15.148904 +0000,
,,,,,,,,,,,,,,,,,,,9,0,9,0,,,,,566.5835692998953,,,,,,,,,,,,,,,,Hut,0.9977037999778986,,,,,,,,,,,,0.5137005001306534,None,,,,,,,,,,,,,freeRecallSub,2,,,,,,,,,,,,,,,,,,,,,,,,,,,,,,,,,,,,,566.573041100055,566.5835692998953,566.5835692998953,567.5887401998043,return,0.9977037999778986,None,Hut,[],[],[],[],[],[],[],,,,,,,,,,,,,,,,,,,2,2023-12-11_10h38.43.188,watkins1,2023.2.3,99.77301654065228,55,2023-12-11 10h39.15.148904 +0000,
,,,,,,,,,,,,,,,,,,,10,0,10,0,,,,,567.6008088998497,,,,,,,,,,,,,,,,Schere,21.812400199938565,,,,,,,,,,,,21.008298099972308,None,,,,,,,,,,,,,freeRecallSub,2,,,,,,,,,,,,,,,,,,,,,,,,,,,,,,,,,,,,,567.5899839997292,567.6008088998497,567.6008088998497,589.4215394998901,return,21.812400199938565,None,Schere,[],[],[],[],[],[],[],,,,,,,,,,,,,,,,,,,2,2023-12-11_10h38.43.188,watkins1,2023.2.3,99.77301654065228,55,2023-12-11 10h39.15.148904 +0000,
,,,,,,,,,,,,,,,,,,,11,0,11,0,,,,,589.4338871999644,,,,,,,,,,,,,,,,Vase,25.259300000034273,,,,,,,,,,,,24.472428200300783,None,,,,,,,,,,,,,freeRecallSub,2,,,,,,,,,,,,,,,,,,,,,,,,,,,,,,,,,,,,,589.422808600124,589.4338871999644,589.4338871999644,614.6986364000477,return,25.259300000034273,None,Vase,[],[],[],[],[],[],[],,,,,,,,,,,,,,,,,,,2,2023-12-11_10h38.43.188,watkins1,2023.2.3,99.77301654065228,55,2023-12-11 10h39.15.148904 +0000,
,,,,,,,,,,,,,,,,,,,12,0,12,0,,,,,614.7116978997365,,,,,,,,,,,,,,,,Ring,7.101484700106084,,,,,,,,,,,,6.48033760022372,None,,,,,,,,,,,,,freeRecallSub,2,,,,,,,,,,,,,,,,,,,,,,,,,,,,,,,,,,,,,614.6999289998785,614.7116978997365,614.7116978997365,621.8229372999631,return,7.101484700106084,None,Ring,[],[],[],[],[],[],[],,,,,,,,,,,,,,,,,,,2,2023-12-11_10h38.43.188,watkins1,2023.2.3,99.77301654065228,55,2023-12-11 10h39.15.148904 +0000,
,,,,,,,,,,,,,,,,,,,13,0,13,0,,,,,621.8361132000573,,,,,,,,,,,,,,,,,[],,,,,,,,,,,,None,None,,,,,,,,,,,,,freeRecallSub,2,,,,,,,,,,,,,,,,,,,,,,,,,,,,,,,,,,,,,621.8242158000357,621.8361132000573,621.8361132000573,669.3715800000355,None,,,,[0.46296296296296297],[-0.39537037037037037],[1],[0],[0],[47.54177529970184],"['button_continue', 'continue_text']",,,,,,,,,,,,,,,,,,,2,2023-12-11_10h38.43.188,watkins1,2023.2.3,99.77301654065228,55,2023-12-11 10h39.15.148904 +0000,
,,,,,,,,,,,,,,,,,,,,,,,,,,,,,,,,,,,,,,,,,,,,,,,,,,,,,,,,,,,,,,,,,,,,,,,2,,,,,,,,,,,,,,,,,,,,,,,,,,,,,,,,,,,,,,,,,,,,,,,,,,,,,,,,,,,,,,,,,,,,,,2,2023-12-11_10h38.43.188,watkins1,2023.2.3,99.77301654065228,55,2023-12-11 10h39.15.148904 +0000,
,,,,,,,,,,,,,,,,,,,,,,,0,0,0,0,677.6953328996897,,,,,,,,,,,,680.4604444997385,680.9587090997957,,,,2.757759400177747,,,,,,,,,,,,None,None,,,,,,,,,,Blume,,,cuedRecallAdj,2,,,,,,,,,,,,,,,,,,,,,,,,0,,,,,,,,,,,,,,,,,,,,,,,,,,,,677.6863345997408,677.6953328996897,677.6953328996897,680.4573335000314,robust,return,2.757759400177747,None,680.4577262001112,680.4669009000063,680.4669009000063,680.4602971998975,,None,,,,,2,2023-12-11_10h38.43.188,watkins1,2023.2.3,99.77301654065228,55,2023-12-11 10h39.15.148904 +0000,
,,,,,,,,,,,,,,,,,,,,,,,1,0,1,0,680.9687431999482,,,,,,,,,,,,683.0808886997402,683.5796137000434,,,,2.1083641997538507,,,,,,,,,,,,None,None,,,,,,,,,,Würfel,,,cuedRecallAdj,2,,,,,,,,,,,,,,,,,,,,,,,,0,,,,,,,,,,,,,,,,,,,,,,,,,,,,680.9589614998549,680.9687431999482,680.9687431999482,683.0780448000878,bunt,return,2.1083641997538507,None,683.0783167998306,683.0876238998026,683.0876238998026,683.0807874999009,,None,,,,,2,2023-12-11_10h38.43.188,watkins1,2023.2.3,99.77301654065228,55,2023-12-11 10h39.15.148904 +0000,
,,,,,,,,,,,,,,,,,,,,,,,2,0,2,0,683.5896519999951,,,,,,,,,,,,685.7822094000876,686.280544300098,,,,2.18356079980731,,,,,,,,,,,,None,None,,,,,,,,,,Rucksack,,,cuedRecallAdj,2,,,,,,,,,,,,,,,,,,,,,,,,0,,,,,,,,,,,,,,,,,,,,,,,,,,,,683.5798621000722,683.5896519999951,683.5896519999951,685.7789519000798,gestreift,return,2.18356079980731,None,685.7792169000022,685.7885182998143,685.7885182998143,685.7821074998938,,None,,,,,2,2023-12-11_10h38.43.188,watkins1,2023.2.3,99.77301654065228,55,2023-12-11 10h39.15.148904 +0000,
,,,,,,,,,,,,,,,,,,,,,,,3,0,3,0,686.2904888996854,,,,,,,,,,,,689.6974786999635,690.1960920998827,,,,3.4026035997085273,,,,,,,,,,,,None,None,,,,,,,,,,Hut,,,cuedRecallAdj,2,,,,,,,,,,,,,,,,,,,,,,,,0,,,,,,,,,,,,,,,,,,,,,,,,,,,,686.2807943997905,686.2904888996854,686.2904888996854,689.6945909000933,schlicht,return,3.4026035997085273,None,689.6948583996855,689.7041671997868,689.7041671997868,689.697376199998,,None,,,,,2,2023-12-11_10h38.43.188,watkins1,2023.2.3,99.77301654065228,55,2023-12-11 10h39.15.148904 +0000,
,,,,,,,,,,,,,,,,,,,,,,,4,0,4,0,690.2061091000214,,,,,,,,,,,,694.7380145001225,695.2366969999857,,,,4.527073400095105,,,,,,,,,,,,None,None,,,,,,,,,,Kamera,,,cuedRecallAdj,2,,,,,,,,,,,,,,,,,,,,,,,,0,,,,,,,,,,,,,,,,,,,,,,,,,,,,690.1963355997577,690.2061091000214,690.2061091000214,694.7349978997372,dunkel,return,4.527073400095105,None,694.7352653001435,694.7445374997333,694.7445374997333,694.7379124998115,,None,,,,,2,2023-12-11_10h38.43.188,watkins1,2023.2.3,99.77301654065228,55,2023-12-11 10h39.15.148904 +0000,
,,,,,,,,,,,,,,,,,,,,,,,5,0,5,0,695.2466317000799,,,,,,,,,,,,696.8765392997302,697.3751646000892,,,,1.6225041998550296,,,,,,,,,,,,None,None,,,,,,,,,,Jacke,,,cuedRecallAdj,2,,,,,,,,,,,,,,,,,,,,,,,,0,,,,,,,,,,,,,,,,,,,,,,,,,,,,695.2369507998228,695.2466317000799,695.2466317000799,696.8735404997133,Schwer,return,1.6225041998550296,None,696.8738090000115,696.8832149999216,696.8832149999216,696.8764383997768,,None,,,,,2,2023-12-11_10h38.43.188,watkins1,2023.2.3,99.77301654065228,55,2023-12-11 10h39.15.148904 +0000,
,,,,,,,,,,,,,,,,,,,,,,,6,0,6,0,697.3852138998918,,,,,,,,,,,,700.4425094998442,700.9409479000606,,,,3.05195950018242,,,,,,,,,,,,None,None,,,,,,,,,,Kiste,,,cuedRecallAdj,2,,,,,,,,,,,,,,,,,,,,,,,,0,,,,,,,,,,,,,,,,,,,,,,,,,,,,697.3754181996919,697.3852138998918,697.3852138998918,700.4394148001447,praktisch,return,3.05195950018242,None,700.4396796999499,700.4489648998715,700.4489648998715,700.4424074999988,,None,,,,,2,2023-12-11_10h38.43.188,watkins1,2023.2.3,99.77301654065228,55,2023-12-11 10h39.15.148904 +0000,
,,,,,,,,,,,,,,,,,,,,,,,7,0,7,0,700.9508430999704,,,,,,,,,,,,702.9121479000896,703.4109618999064,,,,1.950301299802959,,,,,,,,,,,,None,None,,,,,,,,,,Kette,,,cuedRecallAdj,2,,,,,,,,,,,,,,,,,,,,,,,,0,,,,,,,,,,,,,,,,,,,,,,,,,,,,700.9411987001076,700.9508430999704,700.9508430999704,702.9091300996952,kratzig,return,1.950301299802959,None,702.9093984998763,702.9189609996974,702.9189609996974,702.912046100013,,None,,,,,2,2023-12-11_10h38.43.188,watkins1,2023.2.3,99.77301654065228,55,2023-12-11 10h39.15.148904 +0000,
,,,,,,,,,,,,,,,,,,,,,,,8,0,8,0,703.4209074000828,,,,,,,,,,,,707.6623414997011,708.1607304001227,,,,4.232241800054908,,,,,,,,,,,,None,None,,,,,,,,,,Schere,,,cuedRecallAdj,2,,,,,,,,,,,,,,,,,,,,,,,,0,,,,,,,,,,,,,,,,,,,,,,,,,,,,703.411205700133,703.4209074000828,703.4209074000828,707.6592076998204,durchsichtig,return,4.232241800054908,None,707.6594789000228,707.6687904000282,707.6687904000282,707.6622401000932,,None,,,,,2,2023-12-11_10h38.43.188,watkins1,2023.2.3,99.77301654065228,55,2023-12-11 10h39.15.148904 +0000,
,,,,,,,,,,,,,,,,,,,,,,,9,0,9,0,708.1706412998028,,,,,,,,,,,,709.7606718000025,710.2592007000931,,,,1.5865103001706302,,,,,,,,,,,,None,None,,,,,,,,,,Bürste,,,cuedRecallAdj,2,,,,,,,,,,,,,,,,,,,,,,,,0,,,,,,,,,,,,,,,,,,,,,,,,,,,,708.1609792998061,708.1706412998028,708.1706412998028,709.7576605998911,teur,return,1.5865103001706302,None,709.7579291998409,709.7671997998841,709.7671997998841,709.7605693000369,,None,,,,,2,2023-12-11_10h38.43.188,watkins1,2023.2.3,99.77301654065228,55,2023-12-11 10h39.15.148904 +0000,
,,,,,,,,,,,,,,,,,,,,,,,10,0,10,0,710.2691482999362,,,,,,,,,,,,711.8789413999766,712.377662200015,,,,1.59994800016284,,,,,,,,,,,,None,None,,,,,,,,,,Hammer,,,cuedRecallAdj,2,,,,,,,,,,,,,,,,,,,,,,,,0,,,,,,,,,,,,,,,,,,,,,,,,,,,,710.2594484998845,710.2691482999362,710.2691482999362,711.8760689999908,dick,return,1.59994800016284,None,711.8763351999223,711.8855790998787,711.8855790998787,711.8788393000141,,None,,,,,2,2023-12-11_10h38.43.188,watkins1,2023.2.3,99.77301654065228,55,2023-12-11 10h39.15.148904 +0000,
,,,,,,,,,,,,,,,,,,,,,,,11,0,11,0,712.3876018999144,,,,,,,,,,,,714.9517664997838,715.4504599999636,,,,2.553492699749768,,,,,,,,,,,,None,None,,,,,,,,,,Socke,,,cuedRecallAdj,2,,,,,,,,,,,,,,,,,,,,,,,,0,,,,,,,,,,,,,,,,,,,,,,,,,,,,712.3779091998003,712.3876018999144,712.3876018999144,714.9487538998947,winzig,return,2.553492699749768,None,714.9490196998231,714.9583918000571,714.9583918000571,714.9516646000557,,None,,,,,2,2023-12-11_10h38.43.188,watkins1,2023.2.3,99.77301654065228,55,2023-12-11 10h39.15.148904 +0000,
,,,,,,,,,,,,,,,,,,,,,,,12,0,12,0,715.460504299961,,,,,,,,,,,,719.008216700051,719.5068789999932,,,,3.5366417998448014,,,,,,,,,,,,None,None,,,,,,,,,,Schlüssel,,,cuedRecallAdj,2,,,,,,,,,,,,,,,,,,,,,,,,0,,,,,,,,,,,,,,,,,,,,,,,,,,,,715.4507075999863,715.460504299961,715.460504299961,719.0050797001459,gepunktet,return,3.5366417998448014,None,719.0053451000713,719.0147484997287,719.0147484997287,719.0081154000945,,None,,,,,2,2023-12-11_10h38.43.188,watkins1,2023.2.3,99.77301654065228,55,2023-12-11 10h39.15.148904 +0000,
,,,,,,,,,,,,,,,,,,,,,,,13,0,13,0,719.5168300997466,,,,,,,,,,,,725.0923255998641,725.591244999785,,,,5.5681960000656545,,,,,,,,,,,,None,None,,,,,,,,,,Uhr,,,cuedRecallAdj,2,,,,,,,,,,,,,,,,,,,,,,,,0,,,,,,,,,,,,,,,,,,,,,,,,,,,,719.5071225999855,719.5168300997466,719.5168300997466,725.0895953001454,zart,return,5.5681960000656545,None,725.0898635000922,725.0991413998418,725.0991413998418,725.0922229001299,,None,,,,,2,2023-12-11_10h38.43.188,watkins1,2023.2.3,99.77301654065228,55,2023-12-11 10h39.15.148904 +0000,
,,,,,,,,,,,,,,,,,,,,,,,14,0,14,0,725.6011423999444,,,,,,,,,,,,727.1410362999886,727.6397347999737,,,,1.5318422000855207,,,,,,,,,,,,None,None,,,,,,,,,,Ring,,,cuedRecallAdj,2,,,,,,,,,,,,,,,,,,,,,,,,0,,,,,,,,,,,,,,,,,,,,,,,,,,,,725.591490900144,725.6011423999444,725.6011423999444,727.1381524000317,elegant,return,1.5318422000855207,None,727.1384229999967,727.1477140998468,727.1477140998468,727.1409332999028,,None,,,,,2,2023-12-11_10h38.43.188,watkins1,2023.2.3,99.77301654065228,55,2023-12-11 10h39.15.148904 +0000,
,,,,,,,,,,,,,,,,,,,,,,,15,0,15,0,727.6496883998625,,,,,,,,,,,,729.4401708999649,729.9390841997229,,,,1.7793434001505375,,,,,,,,,,,,None,None,,,,,,,,,,Trommel,,,cuedRecallAdj,2,,,,,,,,,,,,,,,,,,,,,,,,0,,,,,,,,,,,,,,,,,,,,,,,,,,,,727.6399830998853,727.6496883998625,727.6496883998625,729.4371571997181,lustig,return,1.7793434001505375,None,729.4374270001426,729.4469316997565,729.4469316997565,729.4400696000084,,None,,,,,2,2023-12-11_10h38.43.188,watkins1,2023.2.3,99.77301654065228,55,2023-12-11 10h39.15.148904 +0000,
,,,,,,,,,,,,,,,,,,,,,,,16,0,16,0,729.9490268998779,,,,,,,,,,,,732.4726545996964,732.9711821000092,,,,2.5200725998729467,,,,,,,,,,,,None,None,,,,,,,,,,Tasse,,,cuedRecallAdj,2,,,,,,,,,,,,,,,,,,,,,,,,0,,,,,,,,,,,,,,,,,,,,,,,,,,,,729.9393305000849,729.9490268998779,729.9490268998779,732.4696941999719,flach,return,2.5200725998729467,None,732.4699618001468,732.4792050998658,732.4792050998658,732.4725526999682,,None,,,,,2,2023-12-11_10h38.43.188,watkins1,2023.2.3,99.77301654065228,55,2023-12-11 10h39.15.148904 +0000,
,,,,,,,,,,,,,,,,,,,,,,,17,0,17,0,732.9811403998174,,,,,,,,,,,,735.3339696996845,735.8326636999846,,,,2.3439258001744747,,,,,,,,,,,,None,None,,,,,,,,,,Buch,,,cuedRecallAdj,2,,,,,,,,,,,,,,,,,,,,,,,,0,,,,,,,,,,,,,,,,,,,,,,,,,,,,732.9714278997853,732.9811403998174,732.9811403998174,735.3310237000696,nachhaltig,return,2.3439258001744747,None,735.331288699992,735.3405959997326,735.3405959997326,735.333867999725,,None,,,,,2,2023-12-11_10h38.43.188,watkins1,2023.2.3,99.77301654065228,55,2023-12-11 10h39.15.148904 +0000,
,,,,,,,,,,,,,,,,,,,,,,,18,0,18,0,735.8426057999022,,,,,,,,,,,,738.8584715998732,739.3569601997733,,,,3.0104021998122334,,,,,,,,,,,,None,None,,,,,,,,,,Stift,,,cuedRecallAdj,2,,,,,,,,,,,,,,,,,,,,,,,,0,,,,,,,,,,,,,,,,,,,,,,,,,,,,735.8329014000483,735.8426057999022,735.8426057999022,738.8553046998568,kaputt,return,3.0104021998122334,None,738.8555692997761,738.8648963999003,738.8648963999003,738.8583693997934,,None,,,,,2,2023-12-11_10h38.43.188,watkins1,2023.2.3,99.77301654065228,55,2023-12-11 10h39.15.148904 +0000,
,,,,,,,,,,,,,,,,,,,,,,,19,0,19,0,739.3669094997458,,,,,,,,,,,,740.6353198997676,741.1341496999376,,,,1.2621474000625312,,,,,,,,,,,,None,None,,,,,,,,,,Lampe,,,cuedRecallAdj,2,,,,,,,,,,,,,,,,,,,,,,,,0,,,,,,,,,,,,,,,,,,,,,,,,,,,,739.3572070999071,739.3669094997458,739.3669094997458,740.6324919997714,lang,return,1.2621474000625312,None,740.6327553000301,740.6420551999472,740.6420551999472,740.6352189998142,,None,,,,,2,2023-12-11_10h38.43.188,watkins1,2023.2.3,99.77301654065228,55,2023-12-11 10h39.15.148904 +0000,
,,,,,,,,,,,,,,,,,,,,,,,20,0,20,0,741.1440838999115,,,,,,,,,,,,742.723682299722,743.2224489999935,,,,1.573028199840337,,,,,,,,,,,,None,None,,,,,,,,,,Eimer,,,cuedRecallAdj,2,,,,,,,,,,,,,,,,,,,,,,,,0,,,,,,,,,,,,,,,,,,,,,,,,,,,,741.134394899942,741.1440838999115,741.1440838999115,742.7208920000121,klt,return,1.573028199840337,None,742.7211577999406,742.7304337001406,742.7304337001406,742.7235793001018,,None,,,,,2,2023-12-11_10h38.43.188,watkins1,2023.2.3,99.77301654065228,55,2023-12-11 10h39.15.148904 +0000,
,,,,,,,,,,,,,,,,,,,,,,,21,0,21,0,743.2325079999864,,,,,,,,,,,,750.294472400099,750.7929533999413,,,,7.052589499857277,,,,,,,,,,,,None,None,,,,,,,,,,Tasche,,,cuedRecallAdj,2,,,,,,,,,,,,,,,,,,,,,,,,0,,,,,,,,,,,,,,,,,,,,,,,,,,,,743.2226932998747,743.2325079999864,743.2325079999864,750.2914183000103,groß,return,7.052589499857277,None,750.2916856999509,750.300908899866,750.300908899866,750.2943715001456,,None,,,,,2,2023-12-11_10h38.43.188,watkins1,2023.2.3,99.77301654065228,55,2023-12-11 10h39.15.148904 +0000,
,,,,,,,,,,,,,,,,,,,,,,,22,0,22,0,750.8028913000599,,,,,,,,,,,,753.6180274998769,754.1166197997518,,,,2.8101429999805987,,,,,,,,,,,,None,None,,,,,,,,,,Telefon,,,cuedRecallAdj,2,,,,,,,,,,,,,,,,,,,,,,,,0,,,,,,,,,,,,,,,,,,,,,,,,,,,,750.793195199687,750.8028913000599,750.8028913000599,753.6149352998473,biegsam,return,2.8101429999805987,None,753.6152011998929,753.6244620000944,753.6244620000944,753.6179269999266,,None,,,,,2,2023-12-11_10h38.43.188,watkins1,2023.2.3,99.77301654065228,55,2023-12-11 10h39.15.148904 +0000,
,,,,,,,,,,,,,,,,,,,,,,,23,0,23,0,754.1265596998855,,,,,,,,,,,,756.6401156000793,757.1388511997648,,,,2.502520800102502,,,,,,,,,,,,None,None,,,,,,,,,,Flasche,,,cuedRecallAdj,2,,,,,,,,,,,,,,,,,,,,,,,,0,,,,,,,,,,,,,,,,,,,,,,,,,,,,754.1168697997928,754.1265596998855,754.1265596998855,756.6370214000344,schmutzig,return,2.502520800102502,None,756.6372869997285,756.6468388000503,756.6468388000503,756.6400135997683,,None,,,,,2,2023-12-11_10h38.43.188,watkins1,2023.2.3,99.77301654065228,55,2023-12-11 10h39.15.148904 +0000,
,,,,,,,,,,,,,,,,,,,,,,,24,0,24,0,757.1487925997935,,,,,,,,,,,,759.8821467999369,760.3806722001173,,,,2.7203114996664226,,,,,,,,,,,,None,None,,,,,,,,,,Löffel,,,cuedRecallAdj,2,,,,,,,,,,,,,,,,,,,,,,,,0,,,,,,,,,,,,,,,,,,,,,,,,,,,,757.139098700136,757.1487925997935,757.1487925997935,759.8789197998121,schön,return,2.7203114996664226,None,759.8791833999567,759.8886553999037,759.8886553999037,759.8820454999804,,None,,,,,2,2023-12-11_10h38.43.188,watkins1,2023.2.3,99.77301654065228,55,2023-12-11 10h39.15.148904 +0000,
,,,,,,,,,,,,,,,,,,,,,,,25,0,25,0,760.3906258000061,,,,,,,,,,,,762.4122294997796,762.9108363999985,,,,2.0144773996435106,,,,,,,,,,,,None,None,,,,,,,,,,Geige,,,cuedRecallAdj,2,,,,,,,,,,,,,,,,,,,,,,,,0,,,,,,,,,,,,,,,,,,,,,,,,,,,,760.3809223999269,760.3906258000061,760.3906258000061,762.4091815999709,niedlich,return,2.0144773996435106,None,762.4094497999176,762.4186911997385,762.4186911997385,762.4121278999373,,None,,,,,2,2023-12-11_10h38.43.188,watkins1,2023.2.3,99.77301654065228,55,2023-12-11 10h39.15.148904 +0000,
,,,,,,,,,,,,,,,,,,,,,,,26,0,26,0,762.920697200112,,,,,,,,,,,,764.9415982998908,765.4408514997922,,,,2.0123693998903036,,,,,,,,,,,,None,None,,,,,,,,,,Brille,,,cuedRecallAdj,2,,,,,,,,,,,,,,,,,,,,,,,,0,,,,,,,,,,,,,,,,,,,,,,,,,,,,762.9111188999377,762.920697200112,762.920697200112,764.939351900015,,return,2.0123693998903036,None,764.9396166000515,764.9488404998556,764.9488404998556,764.9414968998171,,None,,,,,2,2023-12-11_10h38.43.188,watkins1,2023.2.3,99.77301654065228,55,2023-12-11 10h39.15.148904 +0000,
,,,,,,,,,,,,,,,,,,,,,,,27,0,27,0,765.4507621000521,,,,,,,,,,,,767.2313235998154,767.7304337001406,,,,1.7702684998512268,,,,,,,,,,,,None,None,,,,,,,,,,Kerze,,,cuedRecallAdj,2,,,,,,,,,,,,,,,,,,,,,,,,0,,,,,,,,,,,,,,,,,,,,,,,,,,,,765.4411037000827,765.4507621000521,765.4507621000521,767.2284741001204,neu,return,1.7702684998512268,None,767.228744499851,767.2382319997996,767.2382319997996,767.2312195999548,,None,,,,,2,2023-12-11_10h38.43.188,watkins1,2023.2.3,99.77301654065228,55,2023-12-11 10h39.15.148904 +0000,
,,,,,,,,,,,,,,,,,,,,,,,28,0,28,0,767.7403381997719,,,,,,,,,,,,769.471356399823,769.9693319001235,,,,1.7207017000764608,,,,,,,,,,,,None,None,,,,,,,,,,Fahrrad,,,cuedRecallAdj,2,,,,,,,,,,,,,,,,,,,,,,,,0,,,,,,,,,,,,,,,,,,,,,,,,,,,,767.7306777001359,767.7403381997719,767.7403381997719,769.4678299999796,sportlich,return,1.7207017000764608,None,769.4681136999279,769.4773729001172,769.4773729001172,769.4712466998026,,None,,,,,2,2023-12-11_10h38.43.188,watkins1,2023.2.3,99.77301654065228,55,2023-12-11 10h39.15.148904 +0000,
,,,,,,,,,,,,,,,,,,,,,,,29,0,29,0,769.9792339997366,,,,,,,,,,,,773.4371694996953,773.9351801997982,,,,3.4498533001169562,,,,,,,,,,,,None,None,,,,,,,,,,Vase,,,cuedRecallAdj,2,,,,,,,,,,,,,,,,,,,,,,,,0,,,,,,,,,,,,,,,,,,,,,,,,,,,,769.9695717999712,769.9792339997366,769.9792339997366,773.4336143000983,flauschig,return,3.4498533001169562,None,773.4338786997832,773.4431251999922,773.4431251999922,773.43706749985,,None,,,,,2,2023-12-11_10h38.43.188,watkins1,2023.2.3,99.77301654065228,55,2023-12-11 10h39.15.148904 +0000,
,,,,,,,,,,,,,,,,,,,,,,,,,,,,,,,,,,,,,,,,,,,,,,,,,,,,,,,,,,,,,,,,,,,,,,,2,,,,,,,,,,,,,,,,,,,,,,,,,,,,,,,,,,,,,,,,,,,,,,,,,,,,,,,,,,,,,,,,,,773.9519298998639,q,2648.2903575999662,None,2,2023-12-11_10h38.43.188,watkins1,2023.2.3,99.77301654065228,55,2023-12-11 10h39.15.148904 +0000,
