Equation,CorrectResponse,Correctbutton,trials_7.thisRepN,trials_7.thisTrialN,trials_7.thisN,trials_7.thisIndex,trials.thisRepN,trials.thisTrialN,trials.thisN,trials.thisIndex,trials_3.thisRepN,trials_3.thisTrialN,trials_3.thisN,trials_3.thisIndex,trials_2.thisRepN,trials_2.thisTrialN,trials_2.thisN,trials_2.thisIndex,trials_4.thisRepN,trials_4.thisTrialN,trials_4.thisN,trials_4.thisIndex,trials_5.thisRepN,trials_5.thisTrialN,trials_5.thisN,trials_5.thisIndex,thisRow.t,notes,code_marius.started,code_marius.stopped,welcome.started,welcome.stopped,instruction_study.started,instruction_study.stopped,fixationcross.started,fixationcross.stopped,blanc.started,blanc.stopped,study_control_probe.started,study_control_probe.stopped,responseKey,responseTime,scale_answer_2.keys,study_control_probe_2.started,study_control_probe_2.stopped,scale_answer_3.keys,scale_answer_3.rt,scale_answer_3.duration,blanc_2.started,blanc_2.stopped,test_attr_probe.started,test_attr_probe.stopped,recalled_attr,firstKeyTime,secondWordTime,blanc_3.started,blanc_3.stopped,test_sub_probe.started,test_sub_probe.stopped,recalled_sub,instruction_probe_end.started,instruction_probe_end.stopped,study.started,study.stopped,substantive,adjective,wordpair,task,condition,liste_sub_phase1,liste_adj_phase1,scale_answer.keys,scale_answer.rt,scale_answer.duration,code_defineWordsInit.started,code_defineWordsInit.stopped,liste_sub_phase2,study_control.started,study_control.stopped,scale_answer_4.keys,restudy_same.started,restudy_same.stopped,scale_answer_5.keys,scale_answer_5.rt,scale_answer_5.duration,restudy_different.started,restudy_different.stopped,scale_answer_6.keys,test_attr.started,test_attr.stopped,test_sub.started,test_sub.stopped,correct,distractortask.started,equation_text.started,distractortask.stopped,mouse_answer.x,mouse_answer.y,mouse_answer.leftButton,mouse_answer.midButton,mouse_answer.rightButton,mouse_answer.time,mouse_answer.clicked_name,feedback_distractortask.started,feedback_distractortask.stopped,free_recall.started,text_enter.started,key_resp.started,free_recall.stopped,key_resp.keys,key_resp.rt,key_resp.duration,free_recalled_sub,mouse_continue.x,mouse_continue.y,mouse_continue.leftButton,mouse_continue.midButton,mouse_continue.rightButton,mouse_continue.time,mouse_continue.clicked_name,cued_recall.started,text_enter_2.started,key_continue.started,cued_recall.stopped,recalled_attr1,key_continue.keys,key_continue.rt,key_continue.duration,cued_recall_2.started,text_enter_3.started,key_continue_2.started,cued_recall_2.stopped,recalled_attr2,key_continue_2.keys,key_resp_8.started,key_resp_8.keys,key_resp_8.rt,key_resp_8.duration,condition,date,expName,psychopyVersion,frameRate,participant,expStart,
,,,,,,,,,,,,,,,,,,,,,,,,,,,,,0.11593229998834431,0.11599870002828538,0.1160070999758318,2.5840290000196546,,,,,,,,,,,,,,,,,,,,,,,,,,,,,,,,,,,,,3,,,,,,,,,,,,,,,,,,,,,,,,,,,,,,,,,,,,,,,,,,,,,,,,,,,,,,,,,,,,,,,,,,,,,,3,2023-12-21_14h02.09.867,watkins1,2023.2.3,99.69582805691951,75,2023-12-21 14h02.28.432228 +0000,
,,,,,,,,,,,,,,,,,,,,,,,,,,,,,,,,,2.5840788000496104,39.90397380001377,,,,,,,,,,,,,,,,,,,,,,,,,,,,,,,,,,,3,,,,,,,,,,,,,,,,,,,,,,,,,,,,,,,,,,,,,,,,,,,,,,,,,,,,,,,,,,,,,,,,,,,,,,3,2023-12-21_14h02.09.867,watkins1,2023.2.3,99.69582805691951,75,2023-12-21 14h02.28.432228 +0000,
,,,0,0,0,0,,,,,,,,,,,,,,,,,,,,,40.917840000009164,,,,,,,,39.90398980001919,40.9078448000364,47.40743140003178,47.89869299996644,41.39994809997734,47.40726860007271,2,3.1527921999804676,None,47.89870520005934,53.9032092000125,2,3.1527921999804676,None,53.90359060000628,54.39466740004718,54.39467790001072,60.39933020004537,vergnügz,None,None,60.39955289999489,60.399575200048275,60.39958219998516,60.399667100049555,,,,,,,,,,3,,,,,,,,,,,,,,,,,,,,,,,,,,,,,,,,,,,,,,,,,,,,,,,,,,,,,,,,,,,,,,,,,,,,,,3,2023-12-21_14h02.09.867,watkins1,2023.2.3,99.69582805691951,75,2023-12-21 14h02.28.432228 +0000,
,,,,,,,,,,,,,,,,,,,,,,,,,,,,,,,,,,,,,,,,,,,,,,,,,,,,,,,,,,,,,60.39978720003273,63.39265150006395,,,,,,,3,,,,,,,,,,,,,,,,,,,,,,,,,,,,,,,,,,,,,,,,,,,,,,,,,,,,,,,,,,,,,,,,,,,,,,3,2023-12-21_14h02.09.867,watkins1,2023.2.3,99.69582805691951,75,2023-12-21 14h02.28.432228 +0000,
,,,,,,,0,0,0,0,,,,,,,,,,,,,,,,,64.40655479999259,,,,,,,,63.392666900064796,64.39659250003751,64.39705590007361,64.8887182000326,,,3,2.126864599995315,,,,,,,,,,,,,,,,,,,,,64.88872809999157,70.89282720000483,Tasche,hohl,"['Tasche', 'hohl']",test_adj,3,"['Tasche', 'Blume', 'Vase', 'Schlüssel', 'Eimer', 'Uhr', 'Jacke', 'Lampe', 'Trommel', 'Kette', 'Fahrrad', 'Kerze', 'Tasse', 'Schere', 'Ring', 'Kamera', 'Socke', 'Buch', 'Bürste', 'Kiste', 'Hut', 'Geige', 'Brille', 'Rucksack', 'Telefon', 'Hammer', 'Würfel', 'Löffel', 'Stift', 'Flasche']",['hohl'],3,2.126864599995315,None,,,,,,,,,,,,,,,,,,,,,,,,,,,,,,,,,,,,,,,,,,,,,,,,,,,,,,,,,,,,,,,,,3,2023-12-21_14h02.09.867,watkins1,2023.2.3,99.69582805691951,75,2023-12-21 14h02.28.432228 +0000,
,,,,,,,1,0,1,0,,,,,,,,,,,,,,,,,70.90229490003549,,,,,,,,,,70.89348610001616,71.38426830002572,,,1,1.760113500058651,,,,,,,,,,,,,,,,,,,,,71.38427889999002,77.38654900004622,Blume,kurz,"['Blume', 'kurz']",test_adj,3,"['Tasche', 'Blume', 'Vase', 'Schlüssel', 'Eimer', 'Uhr', 'Jacke', 'Lampe', 'Trommel', 'Kette', 'Fahrrad', 'Kerze', 'Tasse', 'Schere', 'Ring', 'Kamera', 'Socke', 'Buch', 'Bürste', 'Kiste', 'Hut', 'Geige', 'Brille', 'Rucksack', 'Telefon', 'Hammer', 'Würfel', 'Löffel', 'Stift', 'Flasche']","['hohl', 'kurz']",1,1.760113500058651,None,,,,,,,,,,,,,,,,,,,,,,,,,,,,,,,,,,,,,,,,,,,,,,,,,,,,,,,,,,,,,,,,,3,2023-12-21_14h02.09.867,watkins1,2023.2.3,99.69582805691951,75,2023-12-21 14h02.28.432228 +0000,
,,,,,,,2,0,2,0,,,,,,,,,,,,,,,,,77.3959770000074,,,,,,,,,,77.3871247000061,77.87800809997134,,,2,1.7150963000021875,,,,,,,,,,,,,,,,,,,,,77.87801810004748,83.88462560006883,Vase,schlicht,"['Vase', 'schlicht']",restudy,3,"['Tasche', 'Blume', 'Vase', 'Schlüssel', 'Eimer', 'Uhr', 'Jacke', 'Lampe', 'Trommel', 'Kette', 'Fahrrad', 'Kerze', 'Tasse', 'Schere', 'Ring', 'Kamera', 'Socke', 'Buch', 'Bürste', 'Kiste', 'Hut', 'Geige', 'Brille', 'Rucksack', 'Telefon', 'Hammer', 'Würfel', 'Löffel', 'Stift', 'Flasche']","['hohl', 'kurz', 'schlicht']",2,1.7150963000021875,None,,,,,,,,,,,,,,,,,,,,,,,,,,,,,,,,,,,,,,,,,,,,,,,,,,,,,,,,,,,,,,,,,3,2023-12-21_14h02.09.867,watkins1,2023.2.3,99.69582805691951,75,2023-12-21 14h02.28.432228 +0000,
,,,,,,,3,0,3,0,,,,,,,,,,,,,,,,,83.8940666000126,,,,,,,,,,83.885149299982,84.37626679998357,,,1,1.1934231000486761,,,,,,,,,,,,,,,,,,,,,84.37627670005895,90.37722330004908,Schlüssel,lang,"['Schlüssel', 'lang']",restudy,3,"['Tasche', 'Blume', 'Vase', 'Schlüssel', 'Eimer', 'Uhr', 'Jacke', 'Lampe', 'Trommel', 'Kette', 'Fahrrad', 'Kerze', 'Tasse', 'Schere', 'Ring', 'Kamera', 'Socke', 'Buch', 'Bürste', 'Kiste', 'Hut', 'Geige', 'Brille', 'Rucksack', 'Telefon', 'Hammer', 'Würfel', 'Löffel', 'Stift', 'Flasche']","['hohl', 'kurz', 'schlicht', 'lang']",1,1.1934231000486761,None,,,,,,,,,,,,,,,,,,,,,,,,,,,,,,,,,,,,,,,,,,,,,,,,,,,,,,,,,,,,,,,,,3,2023-12-21_14h02.09.867,watkins1,2023.2.3,99.69582805691951,75,2023-12-21 14h02.28.432228 +0000,
,,,,,,,4,0,4,0,,,,,,,,,,,,,,,,,90.38654560002033,,,,,,,,,,90.37774100003298,90.86851820000447,,,3,1.396349799935706,,,,,,,,,,,,,,,,,,,,,90.86852889996953,96.87884130002931,Eimer,schwer,"['Eimer', 'schwer']",restudy,3,"['Tasche', 'Blume', 'Vase', 'Schlüssel', 'Eimer', 'Uhr', 'Jacke', 'Lampe', 'Trommel', 'Kette', 'Fahrrad', 'Kerze', 'Tasse', 'Schere', 'Ring', 'Kamera', 'Socke', 'Buch', 'Bürste', 'Kiste', 'Hut', 'Geige', 'Brille', 'Rucksack', 'Telefon', 'Hammer', 'Würfel', 'Löffel', 'Stift', 'Flasche']","['hohl', 'kurz', 'schlicht', 'lang', 'schwer']",3,1.396349799935706,None,,,,,,,,,,,,,,,,,,,,,,,,,,,,,,,,,,,,,,,,,,,,,,,,,,,,,,,,,,,,,,,,,3,2023-12-21_14h02.09.867,watkins1,2023.2.3,99.69582805691951,75,2023-12-21 14h02.28.432228 +0000,
,,,,,,,5,0,5,0,,,,,,,,,,,,,,,,,96.88830049999524,,,,,,,,,,96.87938200007193,97.37020200002007,,,1,1.1590940000023693,,,,,,,,,,,,,,,,,,,,,97.37021259998437,103.37312410003506,Uhr,kratzig,"['Uhr', 'kratzig']",test_adj,3,"['Tasche', 'Blume', 'Vase', 'Schlüssel', 'Eimer', 'Uhr', 'Jacke', 'Lampe', 'Trommel', 'Kette', 'Fahrrad', 'Kerze', 'Tasse', 'Schere', 'Ring', 'Kamera', 'Socke', 'Buch', 'Bürste', 'Kiste', 'Hut', 'Geige', 'Brille', 'Rucksack', 'Telefon', 'Hammer', 'Würfel', 'Löffel', 'Stift', 'Flasche']","['hohl', 'kurz', 'schlicht', 'lang', 'schwer', 'kratzig']",1,1.1590940000023693,None,,,,,,,,,,,,,,,,,,,,,,,,,,,,,,,,,,,,,,,,,,,,,,,,,,,,,,,,,,,,,,,,,3,2023-12-21_14h02.09.867,watkins1,2023.2.3,99.69582805691951,75,2023-12-21 14h02.28.432228 +0000,
,,,,,,,6,0,6,0,,,,,,,,,,,,,,,,,103.3824732999783,,,,,,,,,,103.37366350006778,103.86489450000226,,,3,1.2723036999814212,,,,,,,,,,,,,,,,,,,,,103.86490469996352,109.87127110001165,Jacke,gut,"['Jacke', 'gut']",restudy,3,"['Tasche', 'Blume', 'Vase', 'Schlüssel', 'Eimer', 'Uhr', 'Jacke', 'Lampe', 'Trommel', 'Kette', 'Fahrrad', 'Kerze', 'Tasse', 'Schere', 'Ring', 'Kamera', 'Socke', 'Buch', 'Bürste', 'Kiste', 'Hut', 'Geige', 'Brille', 'Rucksack', 'Telefon', 'Hammer', 'Würfel', 'Löffel', 'Stift', 'Flasche']","['hohl', 'kurz', 'schlicht', 'lang', 'schwer', 'kratzig', 'gut']",3,1.2723036999814212,None,,,,,,,,,,,,,,,,,,,,,,,,,,,,,,,,,,,,,,,,,,,,,,,,,,,,,,,,,,,,,,,,,3,2023-12-21_14h02.09.867,watkins1,2023.2.3,99.69582805691951,75,2023-12-21 14h02.28.432228 +0000,
,,,,,,,7,0,7,0,,,,,,,,,,,,,,,,,109.88063889998011,,,,,,,,,,109.87178519996814,110.3631157000782,,,3,1.5018050000071526,,,,,,,,,,,,,,,,,,,,,110.36312580003869,116.3642921000719,Lampe,bunt,"['Lampe', 'bunt']",restudy,3,"['Tasche', 'Blume', 'Vase', 'Schlüssel', 'Eimer', 'Uhr', 'Jacke', 'Lampe', 'Trommel', 'Kette', 'Fahrrad', 'Kerze', 'Tasse', 'Schere', 'Ring', 'Kamera', 'Socke', 'Buch', 'Bürste', 'Kiste', 'Hut', 'Geige', 'Brille', 'Rucksack', 'Telefon', 'Hammer', 'Würfel', 'Löffel', 'Stift', 'Flasche']","['hohl', 'kurz', 'schlicht', 'lang', 'schwer', 'kratzig', 'gut', 'bunt']",3,1.5018050000071526,None,,,,,,,,,,,,,,,,,,,,,,,,,,,,,,,,,,,,,,,,,,,,,,,,,,,,,,,,,,,,,,,,,3,2023-12-21_14h02.09.867,watkins1,2023.2.3,99.69582805691951,75,2023-12-21 14h02.28.432228 +0000,
,,,,,,,8,0,8,0,,,,,,,,,,,,,,,,,116.37374940002337,,,,,,,,,,116.36480980005581,116.85590480000246,,,1,2.4093511999817565,,,,,,,,,,,,,,,,,,,,,116.85591539996676,122.86646869999822,Trommel,flauschig,"['Trommel', 'flauschig']",restudy,3,"['Tasche', 'Blume', 'Vase', 'Schlüssel', 'Eimer', 'Uhr', 'Jacke', 'Lampe', 'Trommel', 'Kette', 'Fahrrad', 'Kerze', 'Tasse', 'Schere', 'Ring', 'Kamera', 'Socke', 'Buch', 'Bürste', 'Kiste', 'Hut', 'Geige', 'Brille', 'Rucksack', 'Telefon', 'Hammer', 'Würfel', 'Löffel', 'Stift', 'Flasche']","['hohl', 'kurz', 'schlicht', 'lang', 'schwer', 'kratzig', 'gut', 'bunt', 'flauschig']",1,2.4093511999817565,None,,,,,,,,,,,,,,,,,,,,,,,,,,,,,,,,,,,,,,,,,,,,,,,,,,,,,,,,,,,,,,,,,3,2023-12-21_14h02.09.867,watkins1,2023.2.3,99.69582805691951,75,2023-12-21 14h02.28.432228 +0000,
,,,,,,,9,0,9,0,,,,,,,,,,,,,,,,,122.87593900004867,,,,,,,,,,122.8669914000202,123.35796920000575,,,2,2.1073685999726877,,,,,,,,,,,,,,,,,,,,,123.35797949996777,129.36087179998867,Kette,klobig,"['Kette', 'klobig']",test_adj,3,"['Tasche', 'Blume', 'Vase', 'Schlüssel', 'Eimer', 'Uhr', 'Jacke', 'Lampe', 'Trommel', 'Kette', 'Fahrrad', 'Kerze', 'Tasse', 'Schere', 'Ring', 'Kamera', 'Socke', 'Buch', 'Bürste', 'Kiste', 'Hut', 'Geige', 'Brille', 'Rucksack', 'Telefon', 'Hammer', 'Würfel', 'Löffel', 'Stift', 'Flasche']","['hohl', 'kurz', 'schlicht', 'lang', 'schwer', 'kratzig', 'gut', 'bunt', 'flauschig', 'klobig']",2,2.1073685999726877,None,,,,,,,,,,,,,,,,,,,,,,,,,,,,,,,,,,,,,,,,,,,,,,,,,,,,,,,,,,,,,,,,,3,2023-12-21_14h02.09.867,watkins1,2023.2.3,99.69582805691951,75,2023-12-21 14h02.28.432228 +0000,
,,,,,,,10,0,10,0,,,,,,,,,,,,,,,,,129.37030820001382,,,,,,,,,,129.36139550001826,129.8523441000143,,,1,1.1652368999784812,,,,,,,,,,,,,,,,,,,,,129.85235409997404,135.85880230006296,Fahrrad,winzig,"['Fahrrad', 'winzig']",test_adj,3,"['Tasche', 'Blume', 'Vase', 'Schlüssel', 'Eimer', 'Uhr', 'Jacke', 'Lampe', 'Trommel', 'Kette', 'Fahrrad', 'Kerze', 'Tasse', 'Schere', 'Ring', 'Kamera', 'Socke', 'Buch', 'Bürste', 'Kiste', 'Hut', 'Geige', 'Brille', 'Rucksack', 'Telefon', 'Hammer', 'Würfel', 'Löffel', 'Stift', 'Flasche']","['hohl', 'kurz', 'schlicht', 'lang', 'schwer', 'kratzig', 'gut', 'bunt', 'flauschig', 'klobig', 'winzig']",1,1.1652368999784812,None,,,,,,,,,,,,,,,,,,,,,,,,,,,,,,,,,,,,,,,,,,,,,,,,,,,,,,,,,,,,,,,,,3,2023-12-21_14h02.09.867,watkins1,2023.2.3,99.69582805691951,75,2023-12-21 14h02.28.432228 +0000,
,,,,,,,11,0,11,0,,,,,,,,,,,,,,,,,135.8682286000112,,,,,,,,,,135.8593310000142,136.35052119998727,,,1,1.29163430002518,,,,,,,,,,,,,,,,,,,,,136.35053160006646,142.35264329996426,Kerze,matt,"['Kerze', 'matt']",restudy,3,"['Tasche', 'Blume', 'Vase', 'Schlüssel', 'Eimer', 'Uhr', 'Jacke', 'Lampe', 'Trommel', 'Kette', 'Fahrrad', 'Kerze', 'Tasse', 'Schere', 'Ring', 'Kamera', 'Socke', 'Buch', 'Bürste', 'Kiste', 'Hut', 'Geige', 'Brille', 'Rucksack', 'Telefon', 'Hammer', 'Würfel', 'Löffel', 'Stift', 'Flasche']","['hohl', 'kurz', 'schlicht', 'lang', 'schwer', 'kratzig', 'gut', 'bunt', 'flauschig', 'klobig', 'winzig', 'matt']",1,1.29163430002518,None,,,,,,,,,,,,,,,,,,,,,,,,,,,,,,,,,,,,,,,,,,,,,,,,,,,,,,,,,,,,,,,,,3,2023-12-21_14h02.09.867,watkins1,2023.2.3,99.69582805691951,75,2023-12-21 14h02.28.432228 +0000,
,,,,,,,12,0,12,0,,,,,,,,,,,,,,,,,142.3621091999812,,,,,,,,,,142.35315199999604,142.84422910003923,,,1,1.3580342999193817,,,,,,,,,,,,,,,,,,,,,142.84424200002104,148.85354110004846,Tasse,praktisch,"['Tasse', 'praktisch']",test_adj,3,"['Tasche', 'Blume', 'Vase', 'Schlüssel', 'Eimer', 'Uhr', 'Jacke', 'Lampe', 'Trommel', 'Kette', 'Fahrrad', 'Kerze', 'Tasse', 'Schere', 'Ring', 'Kamera', 'Socke', 'Buch', 'Bürste', 'Kiste', 'Hut', 'Geige', 'Brille', 'Rucksack', 'Telefon', 'Hammer', 'Würfel', 'Löffel', 'Stift', 'Flasche']","['hohl', 'kurz', 'schlicht', 'lang', 'schwer', 'kratzig', 'gut', 'bunt', 'flauschig', 'klobig', 'winzig', 'matt', 'praktisch']",1,1.3580342999193817,None,,,,,,,,,,,,,,,,,,,,,,,,,,,,,,,,,,,,,,,,,,,,,,,,,,,,,,,,,,,,,,,,,3,2023-12-21_14h02.09.867,watkins1,2023.2.3,99.69582805691951,75,2023-12-21 14h02.28.432228 +0000,
,,,,,,,13,0,13,0,,,,,,,,,,,,,,,,,148.86300100001972,,,,,,,,,,148.8540579000255,149.34505560004618,,,3,2.4489566000411287,,,,,,,,,,,,,,,,,,,,,149.34506550000515,155.34713020001072,Schere,rustikal,"['Schere', 'rustikal']",test_adj,3,"['Tasche', 'Blume', 'Vase', 'Schlüssel', 'Eimer', 'Uhr', 'Jacke', 'Lampe', 'Trommel', 'Kette', 'Fahrrad', 'Kerze', 'Tasse', 'Schere', 'Ring', 'Kamera', 'Socke', 'Buch', 'Bürste', 'Kiste', 'Hut', 'Geige', 'Brille', 'Rucksack', 'Telefon', 'Hammer', 'Würfel', 'Löffel', 'Stift', 'Flasche']","['hohl', 'kurz', 'schlicht', 'lang', 'schwer', 'kratzig', 'gut', 'bunt', 'flauschig', 'klobig', 'winzig', 'matt', 'praktisch', 'rustikal']",3,2.4489566000411287,None,,,,,,,,,,,,,,,,,,,,,,,,,,,,,,,,,,,,,,,,,,,,,,,,,,,,,,,,,,,,,,,,,3,2023-12-21_14h02.09.867,watkins1,2023.2.3,99.69582805691951,75,2023-12-21 14h02.28.432228 +0000,
,,,,,,,14,0,14,0,,,,,,,,,,,,,,,,,155.35649989999365,,,,,,,,,,155.34763670002576,155.83874530007597,,,1,1.1946628000587225,,,,,,,,,,,,,,,,,,,,,155.83875570003875,161.84265000000596,Ring,blass,"['Ring', 'blass']",restudy,3,"['Tasche', 'Blume', 'Vase', 'Schlüssel', 'Eimer', 'Uhr', 'Jacke', 'Lampe', 'Trommel', 'Kette', 'Fahrrad', 'Kerze', 'Tasse', 'Schere', 'Ring', 'Kamera', 'Socke', 'Buch', 'Bürste', 'Kiste', 'Hut', 'Geige', 'Brille', 'Rucksack', 'Telefon', 'Hammer', 'Würfel', 'Löffel', 'Stift', 'Flasche']","['hohl', 'kurz', 'schlicht', 'lang', 'schwer', 'kratzig', 'gut', 'bunt', 'flauschig', 'klobig', 'winzig', 'matt', 'praktisch', 'rustikal', 'blass']",1,1.1946628000587225,None,,,,,,,,,,,,,,,,,,,,,,,,,,,,,,,,,,,,,,,,,,,,,,,,,,,,,,,,,,,,,,,,,3,2023-12-21_14h02.09.867,watkins1,2023.2.3,99.69582805691951,75,2023-12-21 14h02.28.432228 +0000,
,,,,,,,15,0,15,0,,,,,,,,,,,,,,,,,161.85203800001182,,,,,,,,,,161.84316649998073,162.3341223000316,,,1,1.4677653999533504,,,,,,,,,,,,,,,,,,,,,162.33413229999132,168.34463239996694,Kamera,robust,"['Kamera', 'robust']",restudy,3,"['Tasche', 'Blume', 'Vase', 'Schlüssel', 'Eimer', 'Uhr', 'Jacke', 'Lampe', 'Trommel', 'Kette', 'Fahrrad', 'Kerze', 'Tasse', 'Schere', 'Ring', 'Kamera', 'Socke', 'Buch', 'Bürste', 'Kiste', 'Hut', 'Geige', 'Brille', 'Rucksack', 'Telefon', 'Hammer', 'Würfel', 'Löffel', 'Stift', 'Flasche']","['hohl', 'kurz', 'schlicht', 'lang', 'schwer', 'kratzig', 'gut', 'bunt', 'flauschig', 'klobig', 'winzig', 'matt', 'praktisch', 'rustikal', 'blass', 'robust']",1,1.4677653999533504,None,,,,,,,,,,,,,,,,,,,,,,,,,,,,,,,,,,,,,,,,,,,,,,,,,,,,,,,,,,,,,,,,,3,2023-12-21_14h02.09.867,watkins1,2023.2.3,99.69582805691951,75,2023-12-21 14h02.28.432228 +0000,
,,,,,,,16,0,16,0,,,,,,,,,,,,,,,,,168.35405049996916,,,,,,,,,,168.34516200004146,168.83608330006246,,,1,1.196758999954909,,,,,,,,,,,,,,,,,,,,,168.83609370002523,174.8372339999769,Socke,groß,"['Socke', 'groß']",test_adj,3,"['Tasche', 'Blume', 'Vase', 'Schlüssel', 'Eimer', 'Uhr', 'Jacke', 'Lampe', 'Trommel', 'Kette', 'Fahrrad', 'Kerze', 'Tasse', 'Schere', 'Ring', 'Kamera', 'Socke', 'Buch', 'Bürste', 'Kiste', 'Hut', 'Geige', 'Brille', 'Rucksack', 'Telefon', 'Hammer', 'Würfel', 'Löffel', 'Stift', 'Flasche']","['hohl', 'kurz', 'schlicht', 'lang', 'schwer', 'kratzig', 'gut', 'bunt', 'flauschig', 'klobig', 'winzig', 'matt', 'praktisch', 'rustikal', 'blass', 'robust', 'groß']",1,1.196758999954909,None,,,,,,,,,,,,,,,,,,,,,,,,,,,,,,,,,,,,,,,,,,,,,,,,,,,,,,,,,,,,,,,,,3,2023-12-21_14h02.09.867,watkins1,2023.2.3,99.69582805691951,75,2023-12-21 14h02.28.432228 +0000,
,,,,,,,17,0,17,0,,,,,,,,,,,,,,,,,174.84664140001405,,,,,,,,,,174.83776630007196,175.32871500006877,,,1,4.513435700093396,,,,,,,,,,,,,,,,,,,,,175.32872480002698,181.33704400004353,Buch,breit,"['Buch', 'breit']",restudy,3,"['Tasche', 'Blume', 'Vase', 'Schlüssel', 'Eimer', 'Uhr', 'Jacke', 'Lampe', 'Trommel', 'Kette', 'Fahrrad', 'Kerze', 'Tasse', 'Schere', 'Ring', 'Kamera', 'Socke', 'Buch', 'Bürste', 'Kiste', 'Hut', 'Geige', 'Brille', 'Rucksack', 'Telefon', 'Hammer', 'Würfel', 'Löffel', 'Stift', 'Flasche']","['hohl', 'kurz', 'schlicht', 'lang', 'schwer', 'kratzig', 'gut', 'bunt', 'flauschig', 'klobig', 'winzig', 'matt', 'praktisch', 'rustikal', 'blass', 'robust', 'groß', 'breit']",1,4.513435700093396,None,,,,,,,,,,,,,,,,,,,,,,,,,,,,,,,,,,,,,,,,,,,,,,,,,,,,,,,,,,,,,,,,,3,2023-12-21_14h02.09.867,watkins1,2023.2.3,99.69582805691951,75,2023-12-21 14h02.28.432228 +0000,
,,,,,,,18,0,18,0,,,,,,,,,,,,,,,,,181.34652270004153,,,,,,,,,,181.3375573999947,181.82844620000105,,,1,1.861313399975188,,,,,,,,,,,,,,,,,,,,,181.82845699996687,187.83886889996938,Bürste,durchsichtig,"['Bürste', 'durchsichtig']",restudy,3,"['Tasche', 'Blume', 'Vase', 'Schlüssel', 'Eimer', 'Uhr', 'Jacke', 'Lampe', 'Trommel', 'Kette', 'Fahrrad', 'Kerze', 'Tasse', 'Schere', 'Ring', 'Kamera', 'Socke', 'Buch', 'Bürste', 'Kiste', 'Hut', 'Geige', 'Brille', 'Rucksack', 'Telefon', 'Hammer', 'Würfel', 'Löffel', 'Stift', 'Flasche']","['hohl', 'kurz', 'schlicht', 'lang', 'schwer', 'kratzig', 'gut', 'bunt', 'flauschig', 'klobig', 'winzig', 'matt', 'praktisch', 'rustikal', 'blass', 'robust', 'groß', 'breit', 'durchsichtig']",1,1.861313399975188,None,,,,,,,,,,,,,,,,,,,,,,,,,,,,,,,,,,,,,,,,,,,,,,,,,,,,,,,,,,,,,,,,,3,2023-12-21_14h02.09.867,watkins1,2023.2.3,99.69582805691951,75,2023-12-21 14h02.28.432228 +0000,
,,,,,,,19,0,19,0,,,,,,,,,,,,,,,,,187.8482226000633,,,,,,,,,,187.8393822000362,188.3303731000051,,,1,2.1273167999461293,,,,,,,,,,,,,,,,,,,,,188.3303828999633,194.33557320002,Kiste,niedlich,"['Kiste', 'niedlich']",test_adj,3,"['Tasche', 'Blume', 'Vase', 'Schlüssel', 'Eimer', 'Uhr', 'Jacke', 'Lampe', 'Trommel', 'Kette', 'Fahrrad', 'Kerze', 'Tasse', 'Schere', 'Ring', 'Kamera', 'Socke', 'Buch', 'Bürste', 'Kiste', 'Hut', 'Geige', 'Brille', 'Rucksack', 'Telefon', 'Hammer', 'Würfel', 'Löffel', 'Stift', 'Flasche']","['hohl', 'kurz', 'schlicht', 'lang', 'schwer', 'kratzig', 'gut', 'bunt', 'flauschig', 'klobig', 'winzig', 'matt', 'praktisch', 'rustikal', 'blass', 'robust', 'groß', 'breit', 'durchsichtig', 'niedlich']",1,2.1273167999461293,None,,,,,,,,,,,,,,,,,,,,,,,,,,,,,,,,,,,,,,,,,,,,,,,,,,,,,,,,,,,,,,,,,3,2023-12-21_14h02.09.867,watkins1,2023.2.3,99.69582805691951,75,2023-12-21 14h02.28.432228 +0000,
,,,,,,,20,0,20,0,,,,,,,,,,,,,,,,,194.3449955000542,,,,,,,,,,194.33608540007845,194.82696890004445,,,3,1.2700847000814974,,,,,,,,,,,,,,,,,,,,,194.82698020001408,200.82925169996452,Hut,elegant,"['Hut', 'elegant']",test_adj,3,"['Tasche', 'Blume', 'Vase', 'Schlüssel', 'Eimer', 'Uhr', 'Jacke', 'Lampe', 'Trommel', 'Kette', 'Fahrrad', 'Kerze', 'Tasse', 'Schere', 'Ring', 'Kamera', 'Socke', 'Buch', 'Bürste', 'Kiste', 'Hut', 'Geige', 'Brille', 'Rucksack', 'Telefon', 'Hammer', 'Würfel', 'Löffel', 'Stift', 'Flasche']","['hohl', 'kurz', 'schlicht', 'lang', 'schwer', 'kratzig', 'gut', 'bunt', 'flauschig', 'klobig', 'winzig', 'matt', 'praktisch', 'rustikal', 'blass', 'robust', 'groß', 'breit', 'durchsichtig', 'niedlich', 'elegant']",3,1.2700847000814974,None,,,,,,,,,,,,,,,,,,,,,,,,,,,,,,,,,,,,,,,,,,,,,,,,,,,,,,,,,,,,,,,,,3,2023-12-21_14h02.09.867,watkins1,2023.2.3,99.69582805691951,75,2023-12-21 14h02.28.432228 +0000,
,,,,,,,21,0,21,0,,,,,,,,,,,,,,,,,200.8387187999906,,,,,,,,,,200.82978829997592,201.32076590007637,,,2,1.7601382000138983,,,,,,,,,,,,,,,,,,,,,201.32077630003914,207.32443799998146,Geige,dunkel,"['Geige', 'dunkel']",test_adj,3,"['Tasche', 'Blume', 'Vase', 'Schlüssel', 'Eimer', 'Uhr', 'Jacke', 'Lampe', 'Trommel', 'Kette', 'Fahrrad', 'Kerze', 'Tasse', 'Schere', 'Ring', 'Kamera', 'Socke', 'Buch', 'Bürste', 'Kiste', 'Hut', 'Geige', 'Brille', 'Rucksack', 'Telefon', 'Hammer', 'Würfel', 'Löffel', 'Stift', 'Flasche']","['hohl', 'kurz', 'schlicht', 'lang', 'schwer', 'kratzig', 'gut', 'bunt', 'flauschig', 'klobig', 'winzig', 'matt', 'praktisch', 'rustikal', 'blass', 'robust', 'groß', 'breit', 'durchsichtig', 'niedlich', 'elegant', 'dunkel']",2,1.7601382000138983,None,,,,,,,,,,,,,,,,,,,,,,,,,,,,,,,,,,,,,,,,,,,,,,,,,,,,,,,,,,,,,,,,,3,2023-12-21_14h02.09.867,watkins1,2023.2.3,99.69582805691951,75,2023-12-21 14h02.28.432228 +0000,
,,,,,,,22,0,22,0,,,,,,,,,,,,,,,,,207.33386220003013,,,,,,,,,,207.32497409998905,207.8158500000136,,,1,1.6816202000482008,,,,,,,,,,,,,,,,,,,,,207.8158602999756,213.82616200007033,Brille,schmutzig,"['Brille', 'schmutzig']",test_adj,3,"['Tasche', 'Blume', 'Vase', 'Schlüssel', 'Eimer', 'Uhr', 'Jacke', 'Lampe', 'Trommel', 'Kette', 'Fahrrad', 'Kerze', 'Tasse', 'Schere', 'Ring', 'Kamera', 'Socke', 'Buch', 'Bürste', 'Kiste', 'Hut', 'Geige', 'Brille', 'Rucksack', 'Telefon', 'Hammer', 'Würfel', 'Löffel', 'Stift', 'Flasche']","['hohl', 'kurz', 'schlicht', 'lang', 'schwer', 'kratzig', 'gut', 'bunt', 'flauschig', 'klobig', 'winzig', 'matt', 'praktisch', 'rustikal', 'blass', 'robust', 'groß', 'breit', 'durchsichtig', 'niedlich', 'elegant', 'dunkel', 'schmutzig']",1,1.6816202000482008,None,,,,,,,,,,,,,,,,,,,,,,,,,,,,,,,,,,,,,,,,,,,,,,,,,,,,,,,,,,,,,,,,,3,2023-12-21_14h02.09.867,watkins1,2023.2.3,99.69582805691951,75,2023-12-21 14h02.28.432228 +0000,
,,,,,,,23,0,23,0,,,,,,,,,,,,,,,,,213.8356303999899,,,,,,,,,,213.8266824000748,214.31770290003624,,,1,1.1641833999892697,,,,,,,,,,,,,,,,,,,,,214.31771299999673,220.3193613999756,Rucksack,lustig,"['Rucksack', 'lustig']",restudy,3,"['Tasche', 'Blume', 'Vase', 'Schlüssel', 'Eimer', 'Uhr', 'Jacke', 'Lampe', 'Trommel', 'Kette', 'Fahrrad', 'Kerze', 'Tasse', 'Schere', 'Ring', 'Kamera', 'Socke', 'Buch', 'Bürste', 'Kiste', 'Hut', 'Geige', 'Brille', 'Rucksack', 'Telefon', 'Hammer', 'Würfel', 'Löffel', 'Stift', 'Flasche']","['hohl', 'kurz', 'schlicht', 'lang', 'schwer', 'kratzig', 'gut', 'bunt', 'flauschig', 'klobig', 'winzig', 'matt', 'praktisch', 'rustikal', 'blass', 'robust', 'groß', 'breit', 'durchsichtig', 'niedlich', 'elegant', 'dunkel', 'schmutzig', 'lustig']",1,1.1641833999892697,None,,,,,,,,,,,,,,,,,,,,,,,,,,,,,,,,,,,,,,,,,,,,,,,,,,,,,,,,,,,,,,,,,3,2023-12-21_14h02.09.867,watkins1,2023.2.3,99.69582805691951,75,2023-12-21 14h02.28.432228 +0000,
,,,,,,,24,0,24,0,,,,,,,,,,,,,,,,,220.3288445000071,,,,,,,,,,220.31989579997025,220.8107513000723,,,1,1.246733000036329,,,,,,,,,,,,,,,,,,,,,220.81076250004116,226.81747720006388,Telefon,verspielt,"['Telefon', 'verspielt']",test_adj,3,"['Tasche', 'Blume', 'Vase', 'Schlüssel', 'Eimer', 'Uhr', 'Jacke', 'Lampe', 'Trommel', 'Kette', 'Fahrrad', 'Kerze', 'Tasse', 'Schere', 'Ring', 'Kamera', 'Socke', 'Buch', 'Bürste', 'Kiste', 'Hut', 'Geige', 'Brille', 'Rucksack', 'Telefon', 'Hammer', 'Würfel', 'Löffel', 'Stift', 'Flasche']","['hohl', 'kurz', 'schlicht', 'lang', 'schwer', 'kratzig', 'gut', 'bunt', 'flauschig', 'klobig', 'winzig', 'matt', 'praktisch', 'rustikal', 'blass', 'robust', 'groß', 'breit', 'durchsichtig', 'niedlich', 'elegant', 'dunkel', 'schmutzig', 'lustig', 'verspielt']",1,1.246733000036329,None,,,,,,,,,,,,,,,,,,,,,,,,,,,,,,,,,,,,,,,,,,,,,,,,,,,,,,,,,,,,,,,,,3,2023-12-21_14h02.09.867,watkins1,2023.2.3,99.69582805691951,75,2023-12-21 14h02.28.432228 +0000,
,,,,,,,25,0,25,0,,,,,,,,,,,,,,,,,226.8269433999667,,,,,,,,,,226.81801000004634,227.30898229999002,,,3,2.2446788999950513,,,,,,,,,,,,,,,,,,,,,227.30899340007454,233.31259890005458,Hammer,nachhaltig,"['Hammer', 'nachhaltig']",test_adj,3,"['Tasche', 'Blume', 'Vase', 'Schlüssel', 'Eimer', 'Uhr', 'Jacke', 'Lampe', 'Trommel', 'Kette', 'Fahrrad', 'Kerze', 'Tasse', 'Schere', 'Ring', 'Kamera', 'Socke', 'Buch', 'Bürste', 'Kiste', 'Hut', 'Geige', 'Brille', 'Rucksack', 'Telefon', 'Hammer', 'Würfel', 'Löffel', 'Stift', 'Flasche']","['hohl', 'kurz', 'schlicht', 'lang', 'schwer', 'kratzig', 'gut', 'bunt', 'flauschig', 'klobig', 'winzig', 'matt', 'praktisch', 'rustikal', 'blass', 'robust', 'groß', 'breit', 'durchsichtig', 'niedlich', 'elegant', 'dunkel', 'schmutzig', 'lustig', 'verspielt', 'nachhaltig']",3,2.2446788999950513,None,,,,,,,,,,,,,,,,,,,,,,,,,,,,,,,,,,,,,,,,,,,,,,,,,,,,,,,,,,,,,,,,,3,2023-12-21_14h02.09.867,watkins1,2023.2.3,99.69582805691951,75,2023-12-21 14h02.28.432228 +0000,
,,,,,,,26,0,26,0,,,,,,,,,,,,,,,,,233.32208379998337,,,,,,,,,,233.31312289997004,233.80408410006203,,,2,1.660899500013329,,,,,,,,,,,,,,,,,,,,,233.80409510002937,239.81314560002647,Würfel,hübsch,"['Würfel', 'hübsch']",restudy,3,"['Tasche', 'Blume', 'Vase', 'Schlüssel', 'Eimer', 'Uhr', 'Jacke', 'Lampe', 'Trommel', 'Kette', 'Fahrrad', 'Kerze', 'Tasse', 'Schere', 'Ring', 'Kamera', 'Socke', 'Buch', 'Bürste', 'Kiste', 'Hut', 'Geige', 'Brille', 'Rucksack', 'Telefon', 'Hammer', 'Würfel', 'Löffel', 'Stift', 'Flasche']","['hohl', 'kurz', 'schlicht', 'lang', 'schwer', 'kratzig', 'gut', 'bunt', 'flauschig', 'klobig', 'winzig', 'matt', 'praktisch', 'rustikal', 'blass', 'robust', 'groß', 'breit', 'durchsichtig', 'niedlich', 'elegant', 'dunkel', 'schmutzig', 'lustig', 'verspielt', 'nachhaltig', 'hübsch']",2,1.660899500013329,None,,,,,,,,,,,,,,,,,,,,,,,,,,,,,,,,,,,,,,,,,,,,,,,,,,,,,,,,,,,,,,,,,3,2023-12-21_14h02.09.867,watkins1,2023.2.3,99.69582805691951,75,2023-12-21 14h02.28.432228 +0000,
,,,,,,,27,0,27,0,,,,,,,,,,,,,,,,,239.8225281999912,,,,,,,,,,239.8136735999724,240.3046774000395,,,1,1.072221500100568,,,,,,,,,,,,,,,,,,,,,240.30468760000076,246.31300439999904,Löffel,kaputt,"['Löffel', 'kaputt']",restudy,3,"['Tasche', 'Blume', 'Vase', 'Schlüssel', 'Eimer', 'Uhr', 'Jacke', 'Lampe', 'Trommel', 'Kette', 'Fahrrad', 'Kerze', 'Tasse', 'Schere', 'Ring', 'Kamera', 'Socke', 'Buch', 'Bürste', 'Kiste', 'Hut', 'Geige', 'Brille', 'Rucksack', 'Telefon', 'Hammer', 'Würfel', 'Löffel', 'Stift', 'Flasche']","['hohl', 'kurz', 'schlicht', 'lang', 'schwer', 'kratzig', 'gut', 'bunt', 'flauschig', 'klobig', 'winzig', 'matt', 'praktisch', 'rustikal', 'blass', 'robust', 'groß', 'breit', 'durchsichtig', 'niedlich', 'elegant', 'dunkel', 'schmutzig', 'lustig', 'verspielt', 'nachhaltig', 'hübsch', 'kaputt']",1,1.072221500100568,None,,,,,,,,,,,,,,,,,,,,,,,,,,,,,,,,,,,,,,,,,,,,,,,,,,,,,,,,,,,,,,,,,3,2023-12-21_14h02.09.867,watkins1,2023.2.3,99.69582805691951,75,2023-12-21 14h02.28.432228 +0000,
,,,,,,,28,0,28,0,,,,,,,,,,,,,,,,,246.32243579998612,,,,,,,,,,246.3135256000096,246.8044531000778,,,1,1.0534608999732882,,,,,,,,,,,,,,,,,,,,,246.80446290003601,252.80880940007046,Stift,krumm,"['Stift', 'krumm']",test_adj,3,"['Tasche', 'Blume', 'Vase', 'Schlüssel', 'Eimer', 'Uhr', 'Jacke', 'Lampe', 'Trommel', 'Kette', 'Fahrrad', 'Kerze', 'Tasse', 'Schere', 'Ring', 'Kamera', 'Socke', 'Buch', 'Bürste', 'Kiste', 'Hut', 'Geige', 'Brille', 'Rucksack', 'Telefon', 'Hammer', 'Würfel', 'Löffel', 'Stift', 'Flasche']","['hohl', 'kurz', 'schlicht', 'lang', 'schwer', 'kratzig', 'gut', 'bunt', 'flauschig', 'klobig', 'winzig', 'matt', 'praktisch', 'rustikal', 'blass', 'robust', 'groß', 'breit', 'durchsichtig', 'niedlich', 'elegant', 'dunkel', 'schmutzig', 'lustig', 'verspielt', 'nachhaltig', 'hübsch', 'kaputt', 'krumm']",1,1.0534608999732882,None,,,,,,,,,,,,,,,,,,,,,,,,,,,,,,,,,,,,,,,,,,,,,,,,,,,,,,,,,,,,,,,,,3,2023-12-21_14h02.09.867,watkins1,2023.2.3,99.69582805691951,75,2023-12-21 14h02.28.432228 +0000,
,,,,,,,29,0,29,0,,,,,,,,,,,,,,,,,252.81819750007708,,,,,,,,,,252.8093428000575,253.30021919996943,,,1,1.5896647999761626,,,,,,,,,,,,,,,,,,,,,253.30022960004862,259.31017750001047,Flasche,glatt,"['Flasche', 'glatt']",restudy,3,"['Tasche', 'Blume', 'Vase', 'Schlüssel', 'Eimer', 'Uhr', 'Jacke', 'Lampe', 'Trommel', 'Kette', 'Fahrrad', 'Kerze', 'Tasse', 'Schere', 'Ring', 'Kamera', 'Socke', 'Buch', 'Bürste', 'Kiste', 'Hut', 'Geige', 'Brille', 'Rucksack', 'Telefon', 'Hammer', 'Würfel', 'Löffel', 'Stift', 'Flasche']","['hohl', 'kurz', 'schlicht', 'lang', 'schwer', 'kratzig', 'gut', 'bunt', 'flauschig', 'klobig', 'winzig', 'matt', 'praktisch', 'rustikal', 'blass', 'robust', 'groß', 'breit', 'durchsichtig', 'niedlich', 'elegant', 'dunkel', 'schmutzig', 'lustig', 'verspielt', 'nachhaltig', 'hübsch', 'kaputt', 'krumm', 'glatt']",1,1.5896647999761626,None,,,,,,,,,,,,,,,,,,,,,,,,,,,,,,,,,,,,,,,,,,,,,,,,,,,,,,,,,,,,,,,,,3,2023-12-21_14h02.09.867,watkins1,2023.2.3,99.69582805691951,75,2023-12-21 14h02.28.432228 +0000,
,,,,,,,,,,,0,0,0,0,,,,,,,,,,,,,259.31957499997225,,,,,,,,,,259.3110045000212,259.8016627000179,,,[],[],,,,,,,,,,,,None,None,,,,,,,,,,Lampe,bunt,"['Lampe', 'bunt']",restudy,3,,,,,,259.31092890002765,259.31097650004085,"['Lampe', 'Brille', 'Schere', 'Flasche', 'Buch', 'Trommel', 'Telefon', 'Bürste', 'Fahrrad', 'Löffel', 'Tasche', 'Schlüssel', 'Ring', 'Blume', 'Geige', 'Hammer', 'Tasse', 'Eimer', 'Socke', 'Hut', 'Kette', 'Rucksack', 'Kerze', 'Uhr', 'Stift', 'Vase', 'Kiste', 'Jacke', 'Würfel', 'Kamera']",259.8016738999868,259.804496100056,None,259.8046805000631,265.81163210002705,3,0.9248247001087293,None,265.81205800001044,265.81470210000407,None,265.814860100043,265.81605170003604,265.816063700011,265.81710730004124,,,,,,,,,,,,,,,,,,,,,,,,,,,,,,,,,,,,,,,,,,,,,,,3,2023-12-21_14h02.09.867,watkins1,2023.2.3,99.69582805691951,75,2023-12-21 14h02.28.432228 +0000,
,,,,,,,,,,,1,0,1,0,,,,,,,,,,,,,265.82109430001583,,,,,,,,,,265.81739470001776,266.31310759996995,,,[],[],,,,,,,,,,,schmutzig,None,None,,,,,,,,,,Brille,schmutzig,"['Brille', 'schmutzig']",test_adj,3,,,,,,265.8173280999763,265.81736650003586,"['Lampe', 'Brille', 'Schere', 'Flasche', 'Buch', 'Trommel', 'Telefon', 'Bürste', 'Fahrrad', 'Löffel', 'Tasche', 'Schlüssel', 'Ring', 'Blume', 'Geige', 'Hammer', 'Tasse', 'Eimer', 'Socke', 'Hut', 'Kette', 'Rucksack', 'Kerze', 'Uhr', 'Stift', 'Vase', 'Kiste', 'Jacke', 'Würfel', 'Kamera']",266.3131181000499,266.3157978999661,None,266.3159236999927,266.3173748999834,None,,,266.3174837999977,266.31893599999603,None,266.31904410000425,272.32216950005386,272.3221833000425,272.32355139998253,0,,,,,,,,,,,,,,,,,,,,,,,,,,,,,,,,,,,,,,,,,,,,,,3,2023-12-21_14h02.09.867,watkins1,2023.2.3,99.69582805691951,75,2023-12-21 14h02.28.432228 +0000,
,,,,,,,,,,,2,0,2,0,,,,,,,,,,,,,272.33199900004547,,,,,,,,,,272.3238407999743,272.81398029997945,,,[],[],,,,,,,,,,,,None,None,,,,,,,,,,Schere,rustikal,"['Schere', 'rustikal']",test_adj,3,,,,,,272.3237707000226,272.3238120999886,"['Lampe', 'Brille', 'Schere', 'Flasche', 'Buch', 'Trommel', 'Telefon', 'Bürste', 'Fahrrad', 'Löffel', 'Tasche', 'Schlüssel', 'Ring', 'Blume', 'Geige', 'Hammer', 'Tasse', 'Eimer', 'Socke', 'Hut', 'Kette', 'Rucksack', 'Kerze', 'Uhr', 'Stift', 'Vase', 'Kiste', 'Jacke', 'Würfel', 'Kamera']",272.8139908000594,272.8168858999852,None,272.8170114000095,272.8196708000032,None,,,272.81978300004266,272.822422199999,None,272.82253300002776,278.82805840007495,278.82807260006666,278.82942500000354,0,,,,,,,,,,,,,,,,,,,,,,,,,,,,,,,,,,,,,,,,,,,,,,3,2023-12-21_14h02.09.867,watkins1,2023.2.3,99.69582805691951,75,2023-12-21 14h02.28.432228 +0000,
,,,,,,,,,,,3,0,3,0,,,,,,,,,,,,,278.8378673000261,,,,,,,,,,278.82970830006525,279.31994970003143,,,[],[],,,,,,,,,,,,None,None,,,,,,,,,,Flasche,glatt,"['Flasche', 'glatt']",restudy,3,,,,,,278.82964000001084,278.829679400078,"['Lampe', 'Brille', 'Schere', 'Flasche', 'Buch', 'Trommel', 'Telefon', 'Bürste', 'Fahrrad', 'Löffel', 'Tasche', 'Schlüssel', 'Ring', 'Blume', 'Geige', 'Hammer', 'Tasse', 'Eimer', 'Socke', 'Hut', 'Kette', 'Rucksack', 'Kerze', 'Uhr', 'Stift', 'Vase', 'Kiste', 'Jacke', 'Würfel', 'Kamera']",279.31995949998964,279.32268720003776,None,279.32280650001485,285.3256421000697,3,2.7273438000120223,None,285.3259282000363,285.3286684000632,None,285.3287774999626,285.3299882999854,285.33000010007527,285.3311481999699,,,,,,,,,,,,,,,,,,,,,,,,,,,,,,,,,,,,,,,,,,,,,,,3,2023-12-21_14h02.09.867,watkins1,2023.2.3,99.69582805691951,75,2023-12-21 14h02.28.432228 +0000,
,,,,,,,,,,,4,0,4,0,,,,,,,,,,,,,285.33504510007333,,,,,,,,,,285.331424199976,285.8271524000447,,,[],[],,,,,,,,,,,,None,None,,,,,,,,,,Buch,breit,"['Buch', 'breit']",restudy,3,,,,,,285.33135980006773,285.33139780000784,"['Lampe', 'Brille', 'Schere', 'Flasche', 'Buch', 'Trommel', 'Telefon', 'Bürste', 'Fahrrad', 'Löffel', 'Tasche', 'Schlüssel', 'Ring', 'Blume', 'Geige', 'Hammer', 'Tasse', 'Eimer', 'Socke', 'Hut', 'Kette', 'Rucksack', 'Kerze', 'Uhr', 'Stift', 'Vase', 'Kiste', 'Jacke', 'Würfel', 'Kamera']",285.82716340001207,285.8299144000048,None,285.8300404000329,291.8330904999748,1,1.8442666999762878,None,291.8333794999635,291.83593629999086,None,291.83604680001736,291.83710190001875,291.8371136999922,291.8382793000201,,,,,,,,,,,,,,,,,,,,,,,,,,,,,,,,,,,,,,,,,,,,,,,3,2023-12-21_14h02.09.867,watkins1,2023.2.3,99.69582805691951,75,2023-12-21 14h02.28.432228 +0000,
,,,,,,,,,,,5,0,5,0,,,,,,,,,,,,,291.84250879997853,,,,,,,,,,291.8385594000574,292.335583499982,,,[],[],,,,,,,,,,,,None,None,,,,,,,,,,Trommel,flauschig,"['Trommel', 'flauschig']",restudy,3,,,,,,291.8384929000167,291.83853189996444,"['Lampe', 'Brille', 'Schere', 'Flasche', 'Buch', 'Trommel', 'Telefon', 'Bürste', 'Fahrrad', 'Löffel', 'Tasche', 'Schlüssel', 'Ring', 'Blume', 'Geige', 'Hammer', 'Tasse', 'Eimer', 'Socke', 'Hut', 'Kette', 'Rucksack', 'Kerze', 'Uhr', 'Stift', 'Vase', 'Kiste', 'Jacke', 'Würfel', 'Kamera']",292.3355945000658,292.33848090004176,None,292.3386050000554,298.34030779998284,1,1.2553803999908268,None,298.34060870006215,298.3434215000598,None,298.3435338999843,298.3447414999828,298.3447531000711,298.3459986000089,,,,,,,,,,,,,,,,,,,,,,,,,,,,,,,,,,,,,,,,,,,,,,,3,2023-12-21_14h02.09.867,watkins1,2023.2.3,99.69582805691951,75,2023-12-21 14h02.28.432228 +0000,
,,,,,,,,,,,6,0,6,0,,,,,,,,,,,,,298.34972850000486,,,,,,,,,,298.34628359996714,298.8424827000126,,,[],[],,,,,,,,,,,,None,None,,,,,,,,,,Telefon,verspielt,"['Telefon', 'verspielt']",test_adj,3,,,,,,298.34621810005046,298.3462567999959,"['Lampe', 'Brille', 'Schere', 'Flasche', 'Buch', 'Trommel', 'Telefon', 'Bürste', 'Fahrrad', 'Löffel', 'Tasche', 'Schlüssel', 'Ring', 'Blume', 'Geige', 'Hammer', 'Tasse', 'Eimer', 'Socke', 'Hut', 'Kette', 'Rucksack', 'Kerze', 'Uhr', 'Stift', 'Vase', 'Kiste', 'Jacke', 'Würfel', 'Kamera']",298.84249369997997,298.8454740999732,None,298.8455996999983,298.8470927000744,None,,,298.8472023999784,298.8486793000484,None,298.8487874000566,304.85197660000995,304.85199130000547,304.8534947000444,0,,,,,,,,,,,,,,,,,,,,,,,,,,,,,,,,,,,,,,,,,,,,,,3,2023-12-21_14h02.09.867,watkins1,2023.2.3,99.69582805691951,75,2023-12-21 14h02.28.432228 +0000,
,,,,,,,,,,,7,0,7,0,,,,,,,,,,,,,304.8617207000498,,,,,,,,,,304.8537758999737,305.34377110004425,,,[],[],,,,,,,,,,,,None,None,,,,,,,,,,Bürste,durchsichtig,"['Bürste', 'durchsichtig']",restudy,3,,,,,,304.85370930004865,304.85374759999104,"['Lampe', 'Brille', 'Schere', 'Flasche', 'Buch', 'Trommel', 'Telefon', 'Bürste', 'Fahrrad', 'Löffel', 'Tasche', 'Schlüssel', 'Ring', 'Blume', 'Geige', 'Hammer', 'Tasse', 'Eimer', 'Socke', 'Hut', 'Kette', 'Rucksack', 'Kerze', 'Uhr', 'Stift', 'Vase', 'Kiste', 'Jacke', 'Würfel', 'Kamera']",305.3437819000101,305.3465864000609,None,305.34671000007074,311.35033749998547,1,1.8391185000073165,None,311.3506205000449,311.35350960004143,None,311.35361950006336,311.3547912000213,311.3548025999917,311.3560978000751,,,,,,,,,,,,,,,,,,,,,,,,,,,,,,,,,,,,,,,,,,,,,,,3,2023-12-21_14h02.09.867,watkins1,2023.2.3,99.69582805691951,75,2023-12-21 14h02.28.432228 +0000,
,,,,,,,,,,,8,0,8,0,,,,,,,,,,,,,311.359832999995,,,,,,,,,,311.35637290007435,311.85199910006486,,,[],[],,,,,,,,,,,,None,None,,,,,,,,,,Fahrrad,winzig,"['Fahrrad', 'winzig']",test_adj,3,,,,,,311.35630900005344,311.3563465999905,"['Lampe', 'Brille', 'Schere', 'Flasche', 'Buch', 'Trommel', 'Telefon', 'Bürste', 'Fahrrad', 'Löffel', 'Tasche', 'Schlüssel', 'Ring', 'Blume', 'Geige', 'Hammer', 'Tasse', 'Eimer', 'Socke', 'Hut', 'Kette', 'Rucksack', 'Kerze', 'Uhr', 'Stift', 'Vase', 'Kiste', 'Jacke', 'Würfel', 'Kamera']",311.85201020003296,311.85530100006144,None,311.8554283999838,311.8569116999861,None,,,311.8570202999981,311.8584994999692,None,311.858608599985,317.8620906000724,317.86210390005726,317.8634319000412,0,,,,,,,,,,,,,,,,,,,,,,,,,,,,,,,,,,,,,,,,,,,,,,3,2023-12-21_14h02.09.867,watkins1,2023.2.3,99.69582805691951,75,2023-12-21 14h02.28.432228 +0000,
,,,,,,,,,,,9,0,9,0,,,,,,,,,,,,,317.87190270004794,,,,,,,,,,317.8637168999994,318.3539803000167,,,[],[],,,,,,,,,,,,None,None,,,,,,,,,,Löffel,kaputt,"['Löffel', 'kaputt']",restudy,3,,,,,,317.86365030007437,317.86368810001295,"['Lampe', 'Brille', 'Schere', 'Flasche', 'Buch', 'Trommel', 'Telefon', 'Bürste', 'Fahrrad', 'Löffel', 'Tasche', 'Schlüssel', 'Ring', 'Blume', 'Geige', 'Hammer', 'Tasse', 'Eimer', 'Socke', 'Hut', 'Kette', 'Rucksack', 'Kerze', 'Uhr', 'Stift', 'Vase', 'Kiste', 'Jacke', 'Würfel', 'Kamera']",318.35399049997795,318.3569032000378,None,318.3570274000522,324.3620670000091,1,1.021050399984233,None,324.36235820001457,324.3651893000351,None,324.36530150007457,324.3664936000714,324.3665055000456,324.36768949998077,,,,,,,,,,,,,,,,,,,,,,,,,,,,,,,,,,,,,,,,,,,,,,,3,2023-12-21_14h02.09.867,watkins1,2023.2.3,99.69582805691951,75,2023-12-21 14h02.28.432228 +0000,
,,,,,,,,,,,10,0,10,0,,,,,,,,,,,,,324.3715039000381,,,,,,,,,,324.3679723000387,324.86366949998774,,,[],[],,,,,,,,,,,hohl,None,None,,,,,,,,,,Tasche,hohl,"['Tasche', 'hohl']",test_adj,3,,,,,,324.36790690000635,324.36794600007124,"['Lampe', 'Brille', 'Schere', 'Flasche', 'Buch', 'Trommel', 'Telefon', 'Bürste', 'Fahrrad', 'Löffel', 'Tasche', 'Schlüssel', 'Ring', 'Blume', 'Geige', 'Hammer', 'Tasse', 'Eimer', 'Socke', 'Hut', 'Kette', 'Rucksack', 'Kerze', 'Uhr', 'Stift', 'Vase', 'Kiste', 'Jacke', 'Würfel', 'Kamera']",324.8636802000692,324.866408700007,None,324.866533500026,324.86798920005094,None,,,324.86809760006145,324.8695513000712,None,324.8696578000672,330.872263199999,330.8722768999869,330.8734313000459,0,,,,,,,,,,,,,,,,,,,,,,,,,,,,,,,,,,,,,,,,,,,,,,3,2023-12-21_14h02.09.867,watkins1,2023.2.3,99.69582805691951,75,2023-12-21 14h02.28.432228 +0000,
,,,,,,,,,,,11,0,11,0,,,,,,,,,,,,,330.8820926999906,,,,,,,,,,330.87371920002624,331.3642364999978,,,[],[],,,,,,,,,,,,None,None,,,,,,,,,,Schlüssel,lang,"['Schlüssel', 'lang']",restudy,3,,,,,,330.8736514999764,330.873690300039,"['Lampe', 'Brille', 'Schere', 'Flasche', 'Buch', 'Trommel', 'Telefon', 'Bürste', 'Fahrrad', 'Löffel', 'Tasche', 'Schlüssel', 'Ring', 'Blume', 'Geige', 'Hammer', 'Tasse', 'Eimer', 'Socke', 'Hut', 'Kette', 'Rucksack', 'Kerze', 'Uhr', 'Stift', 'Vase', 'Kiste', 'Jacke', 'Würfel', 'Kamera']",331.36426020006184,331.3669256999856,None,331.36704709997866,337.37415509996936,1,1.6030099000781775,None,337.37444649997633,337.37709089997225,None,337.3772146999836,337.3787665000418,337.3787782000145,337.37981159996707,,,,,,,,,,,,,,,,,,,,,,,,,,,,,,,,,,,,,,,,,,,,,,,3,2023-12-21_14h02.09.867,watkins1,2023.2.3,99.69582805691951,75,2023-12-21 14h02.28.432228 +0000,
,,,,,,,,,,,12,0,12,0,,,,,,,,,,,,,337.3834074999904,,,,,,,,,,337.38010429998394,337.8755044999998,,,[],[],,,,,,,,,,,,None,None,,,,,,,,,,Ring,blass,"['Ring', 'blass']",restudy,3,,,,,,337.3800256999675,337.38007760001346,"['Lampe', 'Brille', 'Schere', 'Flasche', 'Buch', 'Trommel', 'Telefon', 'Bürste', 'Fahrrad', 'Löffel', 'Tasche', 'Schlüssel', 'Ring', 'Blume', 'Geige', 'Hammer', 'Tasse', 'Eimer', 'Socke', 'Hut', 'Kette', 'Rucksack', 'Kerze', 'Uhr', 'Stift', 'Vase', 'Kiste', 'Jacke', 'Würfel', 'Kamera']",337.87551629997324,337.87797290005255,None,337.87809740006924,343.8825297000585,1,1.523808200028725,None,343.8828254999826,343.88546969997697,None,343.8855812000111,343.88665060000494,343.8866625999799,343.8878382999683,,,,,,,,,,,,,,,,,,,,,,,,,,,,,,,,,,,,,,,,,,,,,,,3,2023-12-21_14h02.09.867,watkins1,2023.2.3,99.69582805691951,75,2023-12-21 14h02.28.432228 +0000,
,,,,,,,,,,,13,0,13,0,,,,,,,,,,,,,343.8919645000715,,,,,,,,,,343.8881224000361,344.3840188999893,,,[],[],,,,,,,,,,,bunt,None,None,,,,,,,,,,Blume,kurz,"['Blume', 'kurz']",test_adj,3,,,,,,343.88805619999766,343.888094700058,"['Lampe', 'Brille', 'Schere', 'Flasche', 'Buch', 'Trommel', 'Telefon', 'Bürste', 'Fahrrad', 'Löffel', 'Tasche', 'Schlüssel', 'Ring', 'Blume', 'Geige', 'Hammer', 'Tasse', 'Eimer', 'Socke', 'Hut', 'Kette', 'Rucksack', 'Kerze', 'Uhr', 'Stift', 'Vase', 'Kiste', 'Jacke', 'Würfel', 'Kamera']",344.3840296000708,344.38670000003185,None,344.3868238000432,344.38825670001097,None,,,344.38836830004584,344.3898007000098,None,344.3899070000043,350.3918971000239,350.3919112000149,350.39318110002205,0,,,,,,,,,,,,,,,,,,,,,,,,,,,,,,,,,,,,,,,,,,,,,,3,2023-12-21_14h02.09.867,watkins1,2023.2.3,99.69582805691951,75,2023-12-21 14h02.28.432228 +0000,
,,,,,,,,,,,14,0,14,0,,,,,,,,,,,,,350.401809800067,,,,,,,,,,350.3934734000359,350.88371069997083,,,[],[],,,,,,,,,,,dunkel,None,None,,,,,,,,,,Geige,dunkel,"['Geige', 'dunkel']",test_adj,3,,,,,,350.3934044999769,350.3934436000418,"['Lampe', 'Brille', 'Schere', 'Flasche', 'Buch', 'Trommel', 'Telefon', 'Bürste', 'Fahrrad', 'Löffel', 'Tasche', 'Schlüssel', 'Ring', 'Blume', 'Geige', 'Hammer', 'Tasse', 'Eimer', 'Socke', 'Hut', 'Kette', 'Rucksack', 'Kerze', 'Uhr', 'Stift', 'Vase', 'Kiste', 'Jacke', 'Würfel', 'Kamera']",350.88372150005307,350.88635200005956,None,350.88647719996516,350.8889133000048,None,,,350.889025600045,350.8914566000458,None,350.8915650000563,356.8966668000212,356.89668040000834,356.8979853000492,0,,,,,,,,,,,,,,,,,,,,,,,,,,,,,,,,,,,,,,,,,,,,,,3,2023-12-21_14h02.09.867,watkins1,2023.2.3,99.69582805691951,75,2023-12-21 14h02.28.432228 +0000,
,,,,,,,,,,,15,0,15,0,,,,,,,,,,,,,356.90640330000315,,,,,,,,,,356.89827070001047,357.3883895999752,,,[],[],,,,,,,,,,,nachhaltig,None,None,,,,,,,,,,Hammer,nachhaltig,"['Hammer', 'nachhaltig']",test_adj,3,,,,,,356.89820170006715,356.89824150002096,"['Lampe', 'Brille', 'Schere', 'Flasche', 'Buch', 'Trommel', 'Telefon', 'Bürste', 'Fahrrad', 'Löffel', 'Tasche', 'Schlüssel', 'Ring', 'Blume', 'Geige', 'Hammer', 'Tasse', 'Eimer', 'Socke', 'Hut', 'Kette', 'Rucksack', 'Kerze', 'Uhr', 'Stift', 'Vase', 'Kiste', 'Jacke', 'Würfel', 'Kamera']",357.3883997000521,357.3911640000297,None,357.3912876000395,357.39389389997814,None,,,357.394005500013,357.3966187000042,None,357.3967294000322,363.40280390006956,363.4028185000643,363.40429750003386,0,,,,,,,,,,,,,,,,,,,,,,,,,,,,,,,,,,,,,,,,,,,,,,3,2023-12-21_14h02.09.867,watkins1,2023.2.3,99.69582805691951,75,2023-12-21 14h02.28.432228 +0000,
,,,,,,,,,,,16,0,16,0,,,,,,,,,,,,,363.4126679999754,,,,,,,,,,363.4045918000629,363.89465560007375,,,[],[],,,,,,,,,,,,None,None,,,,,,,,,,Tasse,praktisch,"['Tasse', 'praktisch']",test_adj,3,,,,,,363.40451799996663,363.4045613000635,"['Lampe', 'Brille', 'Schere', 'Flasche', 'Buch', 'Trommel', 'Telefon', 'Bürste', 'Fahrrad', 'Löffel', 'Tasche', 'Schlüssel', 'Ring', 'Blume', 'Geige', 'Hammer', 'Tasse', 'Eimer', 'Socke', 'Hut', 'Kette', 'Rucksack', 'Kerze', 'Uhr', 'Stift', 'Vase', 'Kiste', 'Jacke', 'Würfel', 'Kamera']",363.8946661000373,363.89762140007224,None,363.8977471999824,363.9004047999624,None,,,363.90051309997216,363.90316870005336,None,363.9032773000654,369.9096204000525,369.90963400003966,369.9114357000217,0,,,,,,,,,,,,,,,,,,,,,,,,,,,,,,,,,,,,,,,,,,,,,,3,2023-12-21_14h02.09.867,watkins1,2023.2.3,99.69582805691951,75,2023-12-21 14h02.28.432228 +0000,
,,,,,,,,,,,17,0,17,0,,,,,,,,,,,,,369.91942519997247,,,,,,,,,,369.91172790003475,370.4014761999715,,,[],[],,,,,,,,,,,,None,None,,,,,,,,,,Eimer,schwer,"['Eimer', 'schwer']",restudy,3,,,,,,369.9116571000777,369.91169970005285,"['Lampe', 'Brille', 'Schere', 'Flasche', 'Buch', 'Trommel', 'Telefon', 'Bürste', 'Fahrrad', 'Löffel', 'Tasche', 'Schlüssel', 'Ring', 'Blume', 'Geige', 'Hammer', 'Tasse', 'Eimer', 'Socke', 'Hut', 'Kette', 'Rucksack', 'Kerze', 'Uhr', 'Stift', 'Vase', 'Kiste', 'Jacke', 'Würfel', 'Kamera']",370.4014864000492,370.4042946000118,None,370.4044164000079,376.41075120004825,3,1.94933050009422,None,376.4110520000104,376.41395040007774,None,376.41406029998325,376.4152046999661,376.41521630005445,376.41657330002636,,,,,,,,,,,,,,,,,,,,,,,,,,,,,,,,,,,,,,,,,,,,,,,3,2023-12-21_14h02.09.867,watkins1,2023.2.3,99.69582805691951,75,2023-12-21 14h02.28.432228 +0000,
,,,,,,,,,,,18,0,18,0,,,,,,,,,,,,,376.42020940000657,,,,,,,,,,376.41685090004466,376.9121486999793,,,[],[],,,,,,,,,,,,None,None,,,,,,,,,,Socke,groß,"['Socke', 'groß']",test_adj,3,,,,,,376.41678630001843,376.41682460007723,"['Lampe', 'Brille', 'Schere', 'Flasche', 'Buch', 'Trommel', 'Telefon', 'Bürste', 'Fahrrad', 'Löffel', 'Tasche', 'Schlüssel', 'Ring', 'Blume', 'Geige', 'Hammer', 'Tasse', 'Eimer', 'Socke', 'Hut', 'Kette', 'Rucksack', 'Kerze', 'Uhr', 'Stift', 'Vase', 'Kiste', 'Jacke', 'Würfel', 'Kamera']",376.9121596000623,376.9148772000335,None,376.91499900002964,376.9164408000652,None,,,376.9165492000757,376.9179856000701,None,376.918094499968,382.9210998000344,382.92111350002233,382.9223400000483,0,,,,,,,,,,,,,,,,,,,,,,,,,,,,,,,,,,,,,,,,,,,,,,3,2023-12-21_14h02.09.867,watkins1,2023.2.3,99.69582805691951,75,2023-12-21 14h02.28.432228 +0000,
,,,,,,,,,,,19,0,19,0,,,,,,,,,,,,,382.9308767999755,,,,,,,,,,382.9226243000012,383.41290200001094,,,[],[],,,,,,,,,,,,None,None,,,,,,,,,,Hut,elegant,"['Hut', 'elegant']",test_adj,3,,,,,,382.92255720007233,382.9225951000117,"['Lampe', 'Brille', 'Schere', 'Flasche', 'Buch', 'Trommel', 'Telefon', 'Bürste', 'Fahrrad', 'Löffel', 'Tasche', 'Schlüssel', 'Ring', 'Blume', 'Geige', 'Hammer', 'Tasse', 'Eimer', 'Socke', 'Hut', 'Kette', 'Rucksack', 'Kerze', 'Uhr', 'Stift', 'Vase', 'Kiste', 'Jacke', 'Würfel', 'Kamera']",383.41291279997677,383.4154767000582,None,383.41560179996304,383.4178491999628,None,,,383.4179585999809,383.4202182000736,None,383.42032609996386,389.42382979998365,389.42384379997384,389.4251747999806,0,,,,,,,,,,,,,,,,,,,,,,,,,,,,,,,,,,,,,,,,,,,,,,3,2023-12-21_14h02.09.867,watkins1,2023.2.3,99.69582805691951,75,2023-12-21 14h02.28.432228 +0000,
,,,,,,,,,,,20,0,20,0,,,,,,,,,,,,,389.43364770000335,,,,,,,,,,389.42545980005525,389.9157562999753,,,[],[],,,,,,,,,,,,None,None,,,,,,,,,,Kette,klobig,"['Kette', 'klobig']",test_adj,3,,,,,,389.4253922000062,389.42543060006574,"['Lampe', 'Brille', 'Schere', 'Flasche', 'Buch', 'Trommel', 'Telefon', 'Bürste', 'Fahrrad', 'Löffel', 'Tasche', 'Schlüssel', 'Ring', 'Blume', 'Geige', 'Hammer', 'Tasse', 'Eimer', 'Socke', 'Hut', 'Kette', 'Rucksack', 'Kerze', 'Uhr', 'Stift', 'Vase', 'Kiste', 'Jacke', 'Würfel', 'Kamera']",389.9157670000568,389.9184239000315,None,389.9185442000162,389.921073500067,None,,,389.921181700076,389.92370300006587,None,389.92380970006343,395.928571299999,395.92858599999454,395.9299167999998,0,,,,,,,,,,,,,,,,,,,,,,,,,,,,,,,,,,,,,,,,,,,,,,3,2023-12-21_14h02.09.867,watkins1,2023.2.3,99.69582805691951,75,2023-12-21 14h02.28.432228 +0000,
,,,,,,,,,,,21,0,21,0,,,,,,,,,,,,,395.9383839999791,,,,,,,,,,395.9302080000052,396.4203012000071,,,[],[],,,,,,,,,,,,None,None,,,,,,,,,,Rucksack,lustig,"['Rucksack', 'lustig']",restudy,3,,,,,,395.9301395000657,395.930179100018,"['Lampe', 'Brille', 'Schere', 'Flasche', 'Buch', 'Trommel', 'Telefon', 'Bürste', 'Fahrrad', 'Löffel', 'Tasche', 'Schlüssel', 'Ring', 'Blume', 'Geige', 'Hammer', 'Tasse', 'Eimer', 'Socke', 'Hut', 'Kette', 'Rucksack', 'Kerze', 'Uhr', 'Stift', 'Vase', 'Kiste', 'Jacke', 'Würfel', 'Kamera']",396.4203122999752,396.4230964999879,None,396.42322280001827,402.4240167000098,3,1.3064258999656886,None,402.42432089999784,402.4272017000476,None,402.42731689999346,402.4286850000499,402.42869700002484,402.42988549999427,,,,,,,,,,,,,,,,,,,,,,,,,,,,,,,,,,,,,,,,,,,,,,,3,2023-12-21_14h02.09.867,watkins1,2023.2.3,99.69582805691951,75,2023-12-21 14h02.28.432228 +0000,
,,,,,,,,,,,22,0,22,0,,,,,,,,,,,,,402.4333627000451,,,,,,,,,,402.43017299997155,402.92562120000366,,,[],[],,,,,,,,,,,,None,None,,,,,,,,,,Kerze,matt,"['Kerze', 'matt']",restudy,3,,,,,,402.4301071000518,402.4301459999988,"['Lampe', 'Brille', 'Schere', 'Flasche', 'Buch', 'Trommel', 'Telefon', 'Bürste', 'Fahrrad', 'Löffel', 'Tasche', 'Schlüssel', 'Ring', 'Blume', 'Geige', 'Hammer', 'Tasse', 'Eimer', 'Socke', 'Hut', 'Kette', 'Rucksack', 'Kerze', 'Uhr', 'Stift', 'Vase', 'Kiste', 'Jacke', 'Würfel', 'Kamera']",402.925632199971,402.92835419997573,None,402.9284789999947,408.93013190000784,1,1.417500999988988,None,408.9304269000422,408.93292220006697,None,408.9330324999755,408.9342820000602,408.9342936000321,408.9353111999808,,,,,,,,,,,,,,,,,,,,,,,,,,,,,,,,,,,,,,,,,,,,,,,3,2023-12-21_14h02.09.867,watkins1,2023.2.3,99.69582805691951,75,2023-12-21 14h02.28.432228 +0000,
,,,,,,,,,,,23,0,23,0,,,,,,,,,,,,,408.9396035000682,,,,,,,,,,408.9361482000677,409.4316561999731,,,[],[],,,,,,,,,,,,None,None,,,,,,,,,,Uhr,kratzig,"['Uhr', 'kratzig']",test_adj,3,,,,,,408.93607639998663,408.9361151000485,"['Lampe', 'Brille', 'Schere', 'Flasche', 'Buch', 'Trommel', 'Telefon', 'Bürste', 'Fahrrad', 'Löffel', 'Tasche', 'Schlüssel', 'Ring', 'Blume', 'Geige', 'Hammer', 'Tasse', 'Eimer', 'Socke', 'Hut', 'Kette', 'Rucksack', 'Kerze', 'Uhr', 'Stift', 'Vase', 'Kiste', 'Jacke', 'Würfel', 'Kamera']",409.4316673000576,409.4340686000651,None,409.4341952999821,409.43548750004265,None,,,409.4355958000524,409.4368891000049,None,409.436996000004,415.44025059998967,415.4402644999791,415.4416044000536,0,,,,,,,,,,,,,,,,,,,,,,,,,,,,,,,,,,,,,,,,,,,,,,3,2023-12-21_14h02.09.867,watkins1,2023.2.3,99.69582805691951,75,2023-12-21 14h02.28.432228 +0000,
,,,,,,,,,,,24,0,24,0,,,,,,,,,,,,,415.4501528000692,,,,,,,,,,415.4418901000172,415.93215160002,,,[],[],,,,,,,,,,,krumm,None,None,,,,,,,,,,Stift,krumm,"['Stift', 'krumm']",test_adj,3,,,,,,415.4418224999681,415.44186100002844,"['Lampe', 'Brille', 'Schere', 'Flasche', 'Buch', 'Trommel', 'Telefon', 'Bürste', 'Fahrrad', 'Löffel', 'Tasche', 'Schlüssel', 'Ring', 'Blume', 'Geige', 'Hammer', 'Tasse', 'Eimer', 'Socke', 'Hut', 'Kette', 'Rucksack', 'Kerze', 'Uhr', 'Stift', 'Vase', 'Kiste', 'Jacke', 'Würfel', 'Kamera']",415.9321627999889,415.93488159996923,None,415.9350048999768,415.9376167000737,None,,,415.9377252999693,415.9402878000401,None,415.94039840006735,421.94892080000136,421.94893459999,421.95034360000864,0,,,,,,,,,,,,,,,,,,,,,,,,,,,,,,,,,,,,,,,,,,,,,,3,2023-12-21_14h02.09.867,watkins1,2023.2.3,99.69582805691951,75,2023-12-21 14h02.28.432228 +0000,
,,,,,,,,,,,25,0,25,0,,,,,,,,,,,,,421.9587040999904,,,,,,,,,,421.9506289999699,422.440786399995,,,[],[],,,,,,,,,,,,None,None,,,,,,,,,,Vase,schlicht,"['Vase', 'schlicht']",restudy,3,,,,,,421.9505587000167,421.95060049998574,"['Lampe', 'Brille', 'Schere', 'Flasche', 'Buch', 'Trommel', 'Telefon', 'Bürste', 'Fahrrad', 'Löffel', 'Tasche', 'Schlüssel', 'Ring', 'Blume', 'Geige', 'Hammer', 'Tasse', 'Eimer', 'Socke', 'Hut', 'Kette', 'Rucksack', 'Kerze', 'Uhr', 'Stift', 'Vase', 'Kiste', 'Jacke', 'Würfel', 'Kamera']",422.4407972000772,422.44336260005366,None,422.4434861000627,428.4455456000287,3,1.6145371000748128,None,428.44583450001664,428.44855730002746,None,428.4486679000547,428.45000670000445,428.4500181999756,428.45126390003134,,,,,,,,,,,,,,,,,,,,,,,,,,,,,,,,,,,,,,,,,,,,,,,3,2023-12-21_14h02.09.867,watkins1,2023.2.3,99.69582805691951,75,2023-12-21 14h02.28.432228 +0000,
,,,,,,,,,,,26,0,26,0,,,,,,,,,,,,,428.4550201999955,,,,,,,,,,428.45154250005726,428.94713540002704,,,[],[],,,,,,,,,,,,None,None,,,,,,,,,,Kiste,niedlich,"['Kiste', 'niedlich']",test_adj,3,,,,,,428.451477900031,428.4515159999719,"['Lampe', 'Brille', 'Schere', 'Flasche', 'Buch', 'Trommel', 'Telefon', 'Bürste', 'Fahrrad', 'Löffel', 'Tasche', 'Schlüssel', 'Ring', 'Blume', 'Geige', 'Hammer', 'Tasse', 'Eimer', 'Socke', 'Hut', 'Kette', 'Rucksack', 'Kerze', 'Uhr', 'Stift', 'Vase', 'Kiste', 'Jacke', 'Würfel', 'Kamera']",428.9471457999898,428.949873900041,None,428.94999560003635,428.95143390004523,None,,,428.9515419000527,428.95298699999694,None,428.9530947000021,434.95559929998126,434.9556133999722,434.95698480005376,0,,,,,,,,,,,,,,,,,,,,,,,,,,,,,,,,,,,,,,,,,,,,,,3,2023-12-21_14h02.09.867,watkins1,2023.2.3,99.69582805691951,75,2023-12-21 14h02.28.432228 +0000,
,,,,,,,,,,,27,0,27,0,,,,,,,,,,,,,434.9653726000106,,,,,,,,,,434.95726910000667,435.44751279999036,,,[],[],,,,,,,,,,,,None,None,,,,,,,,,,Jacke,gut,"['Jacke', 'gut']",restudy,3,,,,,,434.957201500074,434.9572398000164,"['Lampe', 'Brille', 'Schere', 'Flasche', 'Buch', 'Trommel', 'Telefon', 'Bürste', 'Fahrrad', 'Löffel', 'Tasche', 'Schlüssel', 'Ring', 'Blume', 'Geige', 'Hammer', 'Tasse', 'Eimer', 'Socke', 'Hut', 'Kette', 'Rucksack', 'Kerze', 'Uhr', 'Stift', 'Vase', 'Kiste', 'Jacke', 'Würfel', 'Kamera']",435.4475234000711,435.45038190006744,None,435.4505054000765,441.4559382000007,3,1.2950551999965683,None,441.456226099981,441.458817500039,None,441.4589287000708,441.4601065000752,441.46011830004863,441.46153680002317,,,,,,,,,,,,,,,,,,,,,,,,,,,,,,,,,,,,,,,,,,,,,,,3,2023-12-21_14h02.09.867,watkins1,2023.2.3,99.69582805691951,75,2023-12-21 14h02.28.432228 +0000,
,,,,,,,,,,,28,0,28,0,,,,,,,,,,,,,441.4653057999676,,,,,,,,,,441.4618156000506,441.95735659997445,,,[],[],,,,,,,,,,,,None,None,,,,,,,,,,Würfel,hübsch,"['Würfel', 'hübsch']",restudy,3,,,,,,441.4617504000198,441.46178860007785,"['Lampe', 'Brille', 'Schere', 'Flasche', 'Buch', 'Trommel', 'Telefon', 'Bürste', 'Fahrrad', 'Löffel', 'Tasche', 'Schlüssel', 'Ring', 'Blume', 'Geige', 'Hammer', 'Tasse', 'Eimer', 'Socke', 'Hut', 'Kette', 'Rucksack', 'Kerze', 'Uhr', 'Stift', 'Vase', 'Kiste', 'Jacke', 'Würfel', 'Kamera']",441.9573674000567,441.9599408999784,None,441.96006620000117,447.9681114000268,2,1.3695728000020608,None,447.9684107999783,447.9711450000759,None,447.97125850000884,447.9725748000201,447.9725868999958,447.9737757999683,,,,,,,,,,,,,,,,,,,,,,,,,,,,,,,,,,,,,,,,,,,,,,,3,2023-12-21_14h02.09.867,watkins1,2023.2.3,99.69582805691951,75,2023-12-21 14h02.28.432228 +0000,
,,,,,,,,,,,29,0,29,0,,,,,,,,,,,,,447.97754480002914,,,,,,,,,,447.9740606000414,448.4702937999973,,,[],[],,,,,,,,,,,,None,None,,,,,,,,,,Kamera,robust,"['Kamera', 'robust']",restudy,3,,,,,,447.9739917999832,447.97403310006484,"['Lampe', 'Brille', 'Schere', 'Flasche', 'Buch', 'Trommel', 'Telefon', 'Bürste', 'Fahrrad', 'Löffel', 'Tasche', 'Schlüssel', 'Ring', 'Blume', 'Geige', 'Hammer', 'Tasse', 'Eimer', 'Socke', 'Hut', 'Kette', 'Rucksack', 'Kerze', 'Uhr', 'Stift', 'Vase', 'Kiste', 'Jacke', 'Würfel', 'Kamera']",448.47030559997074,448.4730544000631,None,448.473179899971,454.47690910007805,3,1.5926831999095157,None,454.4772052000044,454.48003760003485,None,454.4801515999716,454.48145329998806,454.481465299963,454.48265070002526,,,,,,,,,,,,,,,,,,,,,,,,,,,,,,,,,,,,,,,,,,,,,,,3,2023-12-21_14h02.09.867,watkins1,2023.2.3,99.69582805691951,75,2023-12-21 14h02.28.432228 +0000,
,,,,,,,,,,,,,,,,,,,,,,,,,,,,,,,,,,,,,,,,,,,,,,,,,,,,,,,,,,,,,,,,,,,,,3,,,,,,,,,,,,,,,,,,,,,,,,,,,,,,,,,,,,,,,,,,,,,,,,,,,,,,,,,,,,,,,,,,,,,,3,2023-12-21_14h02.09.867,watkins1,2023.2.3,99.69582805691951,75,2023-12-21 14h02.28.432228 +0000,
(6 x 3) + 10 = 27 ,Incorrect,button_incorrect,,,,,,,,,,,,,0,0,0,8,,,,,,,,,466.59954640001524,,,,,,,,465.565468100016,466.56895870005246,,,,,['button_incorrect'],[1.9737238000379875],,,,,,,,,,,,,,,,,,,,,,,,,,distractorTask,3,,,,,,,,,,,,,,,,,,,,,,,,,466.58771790005267,466.59954640001524,468.5668811000651,[-0.3074074074074074],[-0.4101851851851852],[1],[0],[0],[1.9737238000379875],['button_incorrect'],468.567563300021,469.5705585000105,,,,,,,,,,,,,,,,,,,,,,,,,,,,,,,,,,3,2023-12-21_14h02.09.867,watkins1,2023.2.3,99.69582805691951,75,2023-12-21 14h02.28.432228 +0000,
(80 : 10) + 9 = 17 ,Correct,button_correct,,,,,,,,,,,,,0,1,1,3,,,,,,,,,469.58059620007407,,,,,,,,,,,,,,['button_incorrect'],[1.7339652000227943],,,,,,,,,,,,,,,,,,,,,,,,,,distractorTask,3,,,,,,,,,,,,,,,,,,,,,,,,,469.5707498000702,469.58059620007407,471.30825940007344,[-0.3194444444444444],[-0.39444444444444443],[1],[0],[0],[1.7339652000227943],['button_incorrect'],471.30864150007255,472.3119083000347,,,,,,,,,,,,,,,,,,,,,,,,,,,,,,,,,,3,2023-12-21_14h02.09.867,watkins1,2023.2.3,99.69582805691951,75,2023-12-21 14h02.28.432228 +0000,
(4 : 2) + 4 = 6 ,Correct,button_correct,,,,,,,,,,,,,0,2,2,1,,,,,,,,,472.3220005000476,,,,,,,,,,,,,,['button_correct'],[1.3940632999874651],,,,,,,,,,,,,,,,,,,,,,,,,,distractorTask,3,,,,,,,,,,,,,,,,,,,,,,,,,472.31209779996425,472.3220005000476,473.70828879997134,[0.37037037037037035],[-0.40185185185185185],[1],[0],[0],[1.3940632999874651],['button_correct'],473.70866890007164,474.7118459000485,,,,,,,,,,,,,,,,,,,,,,,,,,,,,,,,,,3,2023-12-21_14h02.09.867,watkins1,2023.2.3,99.69582805691951,75,2023-12-21 14h02.28.432228 +0000,
(25 : 5) + 5 = 9 ,Incorrect,button_incorrect,,,,,,,,,,,,,0,3,3,6,,,,,,,,,474.72183850000147,,,,,,,,,,,,,,['button_incorrect'],"[1.4740781000582501, 1.8354398000519723]",,,,,,,,,,,,,,,,,,,,,,,,,,distractorTask,3,,,,,,,,,,,,,,,,,,,,,,,,,474.71203180006705,474.72183850000147,476.5498048000736,"[-0.42962962962962964, -0.41388888888888886]","[-0.4027777777777778, -0.40370370370370373]","[1, 1]","[0, 0]","[0, 0]","[1.4740781000582501, 1.8354398000519723]",['button_incorrect'],476.55022560001817,477.55355110007804,,,,,,,,,,,,,,,,,,,,,,,,,,,,,,,,,,3,2023-12-21_14h02.09.867,watkins1,2023.2.3,99.69582805691951,75,2023-12-21 14h02.28.432228 +0000,
(54 : 6) - 10 = 0 ,Incorrect,button_incorrect,,,,,,,,,,,,,0,4,4,5,,,,,,,,,477.5635358999716,,,,,,,,,,,,,,['button_incorrect'],[2.3778702999698],,,,,,,,,,,,,,,,,,,,,,,,,,distractorTask,3,,,,,,,,,,,,,,,,,,,,,,,,,477.5537387999939,477.5635358999716,479.9338351000333,[-0.33055555555555555],[-0.40370370370370373],[1],[0],[0],[2.3778702999698],['button_incorrect'],479.93421770003624,480.93747760006227,,,,,,,,,,,,,,,,,,,,,,,,,,,,,,,,,,3,2023-12-21_14h02.09.867,watkins1,2023.2.3,99.69582805691951,75,2023-12-21 14h02.28.432228 +0000,
(40 : 5) + 8 = 15 ,Incorrect,button_incorrect,,,,,,,,,,,,,0,5,5,7,,,,,,,,,480.9474584000418,,,,,,,,,,,,,,['button_incorrect'],[2.2677145999623463],,,,,,,,,,,,,,,,,,,,,,,,,,distractorTask,3,,,,,,,,,,,,,,,,,,,,,,,,,480.9376705000177,480.9474584000418,483.2071763999993,[-0.287962962962963],[-0.40555555555555556],[1],[0],[0],[2.2677145999623463],['button_incorrect'],483.2075609000167,484.2109735000413,,,,,,,,,,,,,,,,,,,,,,,,,,,,,,,,,,3,2023-12-21_14h02.09.867,watkins1,2023.2.3,99.69582805691951,75,2023-12-21 14h02.28.432228 +0000,
(9 x 5) - 9 = 36 ,Correct,button_correct,,,,,,,,,,,,,0,6,6,4,,,,,,,,,484.220932599972,,,,,,,,,,,,,,['button_correct'],"[1.424339500023052, 1.745473699993454, 2.0769132000859827]",,,,,,,,,,,,,,,,,,,,,,,,,,distractorTask,3,,,,,,,,,,,,,,,,,,,,,,,,,484.21116820001043,484.220932599972,486.28993059997447,"[0.3888888888888889, 0.38055555555555554, 0.37592592592592594]","[-0.3685185185185185, -0.37407407407407406, -0.38333333333333336]","[1, 1, 1]","[0, 0, 0]","[0, 0, 0]","[1.424339500023052, 1.745473699993454, 2.0769132000859827]",['button_correct'],486.29035680007655,487.2934951999923,,,,,,,,,,,,,,,,,,,,,,,,,,,,,,,,,,3,2023-12-21_14h02.09.867,watkins1,2023.2.3,99.69582805691951,75,2023-12-21 14h02.28.432228 +0000,
(7 x 6) + 9 = 48 ,Incorrect,button_incorrect,,,,,,,,,,,,,0,7,7,9,,,,,,,,,487.3034894000739,,,,,,,,,,,,,,['button_incorrect'],"[1.6460016999626532, 1.8466553000034764]",,,,,,,,,,,,,,,,,,,,,,,,,,distractorTask,3,,,,,,,,,,,,,,,,,,,,,,,,,487.293684400036,487.3034894000739,489.14219579997007,"[-0.45925925925925926, -0.3685185185185185]","[-0.39351851851851855, -0.39444444444444443]","[1, 1]","[0, 0]","[0, 0]","[1.6460016999626532, 1.8466553000034764]",['button_incorrect'],489.14260470005684,490.145996700041,,,,,,,,,,,,,,,,,,,,,,,,,,,,,,,,,,3,2023-12-21_14h02.09.867,watkins1,2023.2.3,99.69582805691951,75,2023-12-21 14h02.28.432228 +0000,
(28 : 7) - 3 = 1 ,Correct,button_correct,,,,,,,,,,,,,0,8,8,0,,,,,,,,,490.1560280000558,,,,,,,,,,,,,,['button_correct'],"[1.6856547999195755, 1.9464363999431953]",,,,,,,,,,,,,,,,,,,,,,,,,,distractorTask,3,,,,,,,,,,,,,,,,,,,,,,,,,490.1461830000626,490.1560280000558,492.09433300001547,"[0.7, 0.4148148148148148]","[-0.4111111111111111, -0.41388888888888886]","[1, 1]","[0, 0]","[0, 0]","[1.6856547999195755, 1.9464363999431953]",['button_correct'],492.09474520001095,493.09798760002013,,,,,,,,,,,,,,,,,,,,,,,,,,,,,,,,,,3,2023-12-21_14h02.09.867,watkins1,2023.2.3,99.69582805691951,75,2023-12-21 14h02.28.432228 +0000,
(2 x 5) + 3 = 13 ,Correct,button_correct,,,,,,,,,,,,,0,9,9,2,,,,,,,,,493.10790449997876,,,,,,,,,,,,,,['button_correct'],[1.0940495000686496],,,,,,,,,,,,,,,,,,,,,,,,,,distractorTask,3,,,,,,,,,,,,,,,,,,,,,,,,,493.09818420000374,493.10790449997876,494.193975900067,[0.40185185185185185],[-0.41574074074074074],[1],[0],[0],[1.0940495000686496],['button_correct'],494.1943610999733,495.19749679998495,,,,,,,,,,,,,,,,,,,,,,,,,,,,,,,,,,3,2023-12-21_14h02.09.867,watkins1,2023.2.3,99.69582805691951,75,2023-12-21 14h02.28.432228 +0000,
,,,,,,,,,,,,,,,,,,,,,,,,,,,,,,,,,,,,,,,,,,,,,,,,,,,,,,,,,,,,,,,,,,,,,3,,,,,,,,,,,,,,,,,,,,,,,,,,,,,,,,,,,,,,,,,,,,,,,,,,,,,,,,,,,,,,,,,,,,,,3,2023-12-21_14h02.09.867,watkins1,2023.2.3,99.69582805691951,75,2023-12-21 14h02.28.432228 +0000,
,,,,,,,,,,,,,,,,,,,0,0,0,0,,,,,503.04846550000366,,,,,,,,,,,,,,Fahrrad,5.65426830004435,,,,,,,,,,,,2.6508038999745622,None,,,,,,,,,,,,,freeRecallSub,3,,,,,,,,,,,,,,,,,,,,,,,,,,,,,,,,,,,,,503.0397236000281,503.04846550000366,503.04846550000366,508.7120775000658,return,5.65426830004435,None,Fahrrad,"[0.009259259259259259, 0.002777777777777778]","[0.07777777777777778, 0.06111111111111111]","[1, 1]","[0, 0]","[0, 0]","[1.2245495999231935, 1.5454373999964446]",[],,,,,,,,,,,,,,,,,,,3,2023-12-21_14h02.09.867,watkins1,2023.2.3,99.69582805691951,75,2023-12-21 14h02.28.432228 +0000,
,,,,,,,,,,,,,,,,,,,1,0,1,0,,,,,508.72458619996905,,,,,,,,,,,,,,Hut,1.9461414000252262,,,,,,,,,,,,1.2277852999977767,None,,,,,,,,,,,,,freeRecallSub,3,,,,,,,,,,,,,,,,,,,,,,,,,,,,,,,,,,,,,508.71384109999053,508.72458619996905,508.72458619996905,510.67478320002556,return,1.9461414000252262,None,Hut,[],[],[],[],[],[],[],,,,,,,,,,,,,,,,,,,3,2023-12-21_14h02.09.867,watkins1,2023.2.3,99.69582805691951,75,2023-12-21 14h02.28.432228 +0000,
,,,,,,,,,,,,,,,,,,,2,0,2,0,,,,,510.685642400058,,,,,,,,,,,,,,Stift,1.3850418999791145,,,,,,,,,,,,0.32147020008414984,None,,,,,,,,,,,,,freeRecallSub,3,,,,,,,,,,,,,,,,,,,,,,,,,,,,,,,,,,,,,510.6760351000121,510.685642400058,510.685642400058,512.0721189000178,return,1.3850418999791145,None,Stift,[],[],[],[],[],[],[],,,,,,,,,,,,,,,,,,,3,2023-12-21_14h02.09.867,watkins1,2023.2.3,99.69582805691951,75,2023-12-21 14h02.28.432228 +0000,
,,,,,,,,,,,,,,,,,,,3,0,3,0,,,,,512.083201100002,,,,,,,,,,,,,,Rucksack,2.9555249999975786,,,,,,,,,,,,1.1353286999510601,None,,,,,,,,,,,,,freeRecallSub,3,,,,,,,,,,,,,,,,,,,,,,,,,,,,,,,,,,,,,512.0733639000682,512.083201100002,512.083201100002,515.0462060000282,return,2.9555249999975786,None,Rucksack,[],[],[],[],[],[],[],,,,,,,,,,,,,,,,,,,3,2023-12-21_14h02.09.867,watkins1,2023.2.3,99.69582805691951,75,2023-12-21 14h02.28.432228 +0000,
,,,,,,,,,,,,,,,,,,,4,0,4,0,,,,,515.0575977000408,,,,,,,,,,,,,,Kette,1.4611770999617875,,,,,,,,,,,,0.2721446000505239,None,,,,,,,,,,,,,freeRecallSub,3,,,,,,,,,,,,,,,,,,,,,,,,,,,,,,,,,,,,,515.047441600007,515.0575977000408,515.0575977000408,516.5246513000457,return,1.4611770999617875,None,Kette,[],[],[],[],[],[],[],,,,,,,,,,,,,,,,,,,3,2023-12-21_14h02.09.867,watkins1,2023.2.3,99.69582805691951,75,2023-12-21 14h02.28.432228 +0000,
,,,,,,,,,,,,,,,,,,,5,0,5,0,,,,,516.5362212000182,,,,,,,,,,,,,,Tasse,1.398496999987401,,,,,,,,,,,,0.20247110002674162,None,,,,,,,,,,,,,freeRecallSub,3,,,,,,,,,,,,,,,,,,,,,,,,,,,,,,,,,,,,,516.5258981999941,516.5362212000182,516.5362212000182,517.943339999998,return,1.398496999987401,None,Tasse,[],[],[],[],[],[],[],,,,,,,,,,,,,,,,,,,3,2023-12-21_14h02.09.867,watkins1,2023.2.3,99.69582805691951,75,2023-12-21 14h02.28.432228 +0000,
,,,,,,,,,,,,,,,,,,,6,0,6,0,,,,,517.9550109000411,,,,,,,,,,,,,,Vase,12.979563900036737,,,,,,,,,,,,11.821055199950933,None,,,,,,,,,,,,,freeRecallSub,3,,,,,,,,,,,,,,,,,,,,,,,,,,,,,,,,,,,,,517.9445807000156,517.9550109000411,517.9550109000411,530.940601499984,return,12.979563900036737,None,Vase,[],[],[],[],[],[],[],,,,,,,,,,,,,,,,,,,3,2023-12-21_14h02.09.867,watkins1,2023.2.3,99.69582805691951,75,2023-12-21 14h02.28.432228 +0000,
,,,,,,,,,,,,,,,,,,,7,0,7,0,,,,,530.9526387000224,,,,,,,,,,,,,,Blume,1.8699257000116631,,,,,,,,,,,,0.35394539998378605,None,,,,,,,,,,,,,freeRecallSub,3,,,,,,,,,,,,,,,,,,,,,,,,,,,,,,,,,,,,,530.9418704999844,530.9526387000224,530.9526387000224,532.8322453000583,return,1.8699257000116631,None,Blume,[],[],[],[],[],[],[],,,,,,,,,,,,,,,,,,,3,2023-12-21_14h02.09.867,watkins1,2023.2.3,99.69582805691951,75,2023-12-21 14h02.28.432228 +0000,
,,,,,,,,,,,,,,,,,,,8,0,8,0,,,,,532.844429400051,,,,,,,,,,,,,,Würfel,6.858336700010113,,,,,,,,,,,,5.113733200007118,None,,,,,,,,,,,,,freeRecallSub,3,,,,,,,,,,,,,,,,,,,,,,,,,,,,,,,,,,,,,532.8334954000311,532.844429400051,532.844429400051,539.7046418000245,return,6.858336700010113,None,Würfel,[],[],[],[],[],[],[],,,,,,,,,,,,,,,,,,,3,2023-12-21_14h02.09.867,watkins1,2023.2.3,99.69582805691951,75,2023-12-21 14h02.28.432228 +0000,
,,,,,,,,,,,,,,,,,,,9,0,9,0,,,,,539.7169629000127,,,,,,,,,,,,,,Jacke,15.593787200050429,,,,,,,,,,,,12.78620289999526,None,,,,,,,,,,,,,freeRecallSub,3,,,,,,,,,,,,,,,,,,,,,,,,,,,,,,,,,,,,,539.705889099976,539.7169629000127,539.7169629000127,555.3138886999805,return,15.593787200050429,None,Jacke,[],[],[],[],[],[],[],,,,,,,,,,,,,,,,,,,3,2023-12-21_14h02.09.867,watkins1,2023.2.3,99.69582805691951,75,2023-12-21 14h02.28.432228 +0000,
,,,,,,,,,,,,,,,,,,,10,0,10,0,,,,,555.3262083000736,,,,,,,,,,,,,,Brille,15.272435399936512,,,,,,,,,,,,12.99656280002091,None,,,,,,,,,,,,,freeRecallSub,3,,,,,,,,,,,,,,,,,,,,,,,,,,,,,,,,,,,,,555.3151354000438,555.3262083000736,555.3262083000736,570.6012473000446,return,15.272435399936512,None,Brille,[],[],[],[],[],[],[],,,,,,,,,,,,,,,,,,,3,2023-12-21_14h02.09.867,watkins1,2023.2.3,99.69582805691951,75,2023-12-21 14h02.28.432228 +0000,
,,,,,,,,,,,,,,,,,,,11,0,11,0,,,,,570.6132764000213,,,,,,,,,,,,,,Schlüssel,45.825362500036135,,,,,,,,,,,,43.08773580007255,None,,,,,,,,,,,,,freeRecallSub,3,,,,,,,,,,,,,,,,,,,,,,,,,,,,,,,,,,,,,570.6024608999724,570.6132764000213,570.6132764000213,616.4424824999878,return,45.825362500036135,None,Schlüssel,[],[],[],[],[],[],[],,,,,,,,,,,,,,,,,,,3,2023-12-21_14h02.09.867,watkins1,2023.2.3,99.69582805691951,75,2023-12-21 14h02.28.432228 +0000,
,,,,,,,,,,,,,,,,,,,12,0,12,0,,,,,616.455459699966,,,,,,,,,,,,,,Telefon,36.791139899985865,,,,,,,,,,,,34.407852299977094,None,,,,,,,,,,,,,freeRecallSub,3,,,,,,,,,,,,,,,,,,,,,,,,,,,,,,,,,,,,,616.4438225000631,616.455459699966,616.455459699966,653.2517295000143,return,36.791139899985865,None,Telefon,[],[],[],[],[],[],[],,,,,,,,,,,,,,,,,,,3,2023-12-21_14h02.09.867,watkins1,2023.2.3,99.69582805691951,75,2023-12-21 14h02.28.432228 +0000,
,,,,,,,,,,,,,,,,,,,13,0,13,0,,,,,653.2653662000084,,,,,,,,,,,,,,,[],,,,,,,,,,,,None,None,,,,,,,,,,,,,freeRecallSub,3,,,,,,,,,,,,,,,,,,,,,,,,,,,,,,,,,,,,,653.2529768999666,653.2653662000084,653.2653662000084,654.8556352000451,None,,,,[0.4759259259259259],[-0.41574074074074074],[1],[0],[0],[1.5968471000669524],['button_continue'],,,,,,,,,,,,,,,,,,,3,2023-12-21_14h02.09.867,watkins1,2023.2.3,99.69582805691951,75,2023-12-21 14h02.28.432228 +0000,
,,,,,,,,,,,,,,,,,,,,,,,,,,,,,,,,,,,,,,,,,,,,,,,,,,,,,,,,,,,,,,,,,,,,,3,,,,,,,,,,,,,,,,,,,,,,,,,,,,,,,,,,,,,,,,,,,,,,,,,,,,,,,,,,,,,,,,,,,,,,3,2023-12-21_14h02.09.867,watkins1,2023.2.3,99.69582805691951,75,2023-12-21 14h02.28.432228 +0000,
,,,,,,,,,,,,,,,,,,,,,,,0,0,0,0,660.5195939000696,,,,,,,,,,662.6206811000593,663.1102144999895,,,,2.095018200110644,,,,,,,,,,,,None,None,,,,,,,,,,Kette,,,cuedRecallAdj,3,,,,,,,,,,,,,,,,,,,,,,,,0,,,,,,,,,,,,,,,,,,,,,,,,,,,,660.5105370000238,660.5195939000696,660.5195939000696,662.618630800047,,return,2.095018200110644,None,662.619014600059,662.6281498000026,662.6281498000026,662.6205346999923,,None,,,,,3,2023-12-21_14h02.09.867,watkins1,2023.2.3,99.69582805691951,75,2023-12-21 14h02.28.432228 +0000,
,,,,,,,,,,,,,,,,,,,,,,,1,0,1,0,663.1202698000707,,,,,,,,,,665.0614814000437,665.5603370000608,,,,1.9343213000101969,,,,,,,,,,,,None,None,,,,,,,,,,Ring,,,cuedRecallAdj,3,,,,,,,,,,,,,,,,,,,,,,,,0,,,,,,,,,,,,,,,,,,,,,,,,,,,,663.1104539000662,663.1202698000707,663.1202698000707,665.0586416000733,blass,return,1.9343213000101969,None,665.0589046999812,665.0682376000332,665.0682376000332,665.0613794999663,,None,,,,,3,2023-12-21_14h02.09.867,watkins1,2023.2.3,99.69582805691951,75,2023-12-21 14h02.28.432228 +0000,
,,,,,,,,,,,,,,,,,,,,,,,2,0,2,0,665.5702826000052,,,,,,,,,,668.7861082999734,669.2756388999987,,,,3.204270899994299,,,,,,,,,,,,None,None,,,,,,,,,,Hut,,,cuedRecallAdj,3,,,,,,,,,,,,,,,,,,,,,,,,0,,,,,,,,,,,,,,,,,,,,,,,,,,,,665.5605816000607,665.5702826000052,665.5702826000052,668.7840194000164,,return,3.204270899994299,None,668.7842835000483,668.7937187000643,668.7937187000643,668.7860063000116,,None,,,,,3,2023-12-21_14h02.09.867,watkins1,2023.2.3,99.69582805691951,75,2023-12-21 14h02.28.432228 +0000,
,,,,,,,,,,,,,,,,,,,,,,,3,0,3,0,669.285560999997,,,,,,,,,,672.6516736000776,673.1415037000552,,,,3.360952200018801,,,,,,,,,,,,None,None,,,,,,,,,,Uhr,,,cuedRecallAdj,3,,,,,,,,,,,,,,,,,,,,,,,,0,,,,,,,,,,,,,,,,,,,,,,,,,,,,669.2758778000716,669.285560999997,669.285560999997,672.6499079000205,,return,3.360952200018801,None,672.6501735000638,672.65944269998,672.65944269998,672.6515721000032,,None,,,,,3,2023-12-21_14h02.09.867,watkins1,2023.2.3,99.69582805691951,75,2023-12-21 14h02.28.432228 +0000,
,,,,,,,,,,,,,,,,,,,,,,,4,0,4,0,673.1514353000093,,,,,,,,,,675.7355176999699,676.2341021000175,,,,2.5751821000594646,,,,,,,,,,,,None,None,,,,,,,,,,Fahrrad,,,cuedRecallAdj,3,,,,,,,,,,,,,,,,,,,,,,,,0,,,,,,,,,,,,,,,,,,,,,,,,,,,,673.1417474000482,673.1514353000093,673.1514353000093,675.7324979000259,breit,return,2.5751821000594646,None,675.7327652999666,675.7419874999905,675.7419874999905,675.7354174000211,,None,,,,,3,2023-12-21_14h02.09.867,watkins1,2023.2.3,99.69582805691951,75,2023-12-21 14h02.28.432228 +0000,
,,,,,,,,,,,,,,,,,,,,,,,5,0,5,0,676.2440055999905,,,,,,,,,,678.9184315999737,679.4170278999954,,,,2.6665318000596017,,,,,,,,,,,,None,None,,,,,,,,,,Kerze,,,cuedRecallAdj,3,,,,,,,,,,,,,,,,,,,,,,,,0,,,,,,,,,,,,,,,,,,,,,,,,,,,,676.2343407999724,676.2440055999905,676.2440055999905,678.9153876999626,matt,return,2.6665318000596017,None,678.9156560000265,678.9250177000649,678.9250177000649,678.9183271999937,,None,,,,,3,2023-12-21_14h02.09.867,watkins1,2023.2.3,99.69582805691951,75,2023-12-21 14h02.28.432228 +0000,
,,,,,,,,,,,,,,,,,,,,,,,6,0,6,0,679.4270767000271,,,,,,,,,,680.4340292999987,680.92344709998,,,,0.9955324999755248,,,,,,,,,,,,None,None,,,,,,,,,,Kiste,,,cuedRecallAdj,3,,,,,,,,,,,,,,,,,,,,,,,,0,,,,,,,,,,,,,,,,,,,,,,,,,,,,679.4172691999702,679.4270767000271,679.4270767000271,680.4316000000108,,return,0.9955324999755248,None,680.4318654000526,680.4412914999994,680.4412914999994,680.4339268000331,,None,,,,,3,2023-12-21_14h02.09.867,watkins1,2023.2.3,99.69582805691951,75,2023-12-21 14h02.28.432228 +0000,
,,,,,,,,,,,,,,,,,,,,,,,7,0,7,0,680.9334053000202,,,,,,,,,,682.9753578000236,683.474175899988,,,,2.0331686000572518,,,,,,,,,,,,None,None,,,,,,,,,,Tasche,,,cuedRecallAdj,3,,,,,,,,,,,,,,,,,,,,,,,,0,,,,,,,,,,,,,,,,,,,,,,,,,,,,680.9236914999783,680.9334053000202,680.9334053000202,682.9724878000561,hohl,return,2.0331686000572518,None,682.9727471000515,682.9820482999785,682.9820482999785,682.9752537000459,,None,,,,,3,2023-12-21_14h02.09.867,watkins1,2023.2.3,99.69582805691951,75,2023-12-21 14h02.28.432228 +0000,
,,,,,,,,,,,,,,,,,,,,,,,8,0,8,0,683.4840839999961,,,,,,,,,,685.536009500036,686.0347038999898,,,,2.0424329000525177,,,,,,,,,,,,None,None,,,,,,,,,,Buch,,,cuedRecallAdj,3,,,,,,,,,,,,,,,,,,,,,,,,0,,,,,,,,,,,,,,,,,,,,,,,,,,,,683.4744589000475,683.4840839999961,683.4840839999961,685.5331175000174,breit,return,2.0424329000525177,None,685.5333849000745,685.542724100058,685.542724100058,685.5359069000697,,None,,,,,3,2023-12-21_14h02.09.867,watkins1,2023.2.3,99.69582805691951,75,2023-12-21 14h02.28.432228 +0000,
,,,,,,,,,,,,,,,,,,,,,,,9,0,9,0,686.0447451999644,,,,,,,,,,688.4176511999685,688.916420100024,,,,2.3617293999996036,,,,,,,,,,,,None,None,,,,,,,,,,Schere,,,cuedRecallAdj,3,,,,,,,,,,,,,,,,,,,,,,,,0,,,,,,,,,,,,,,,,,,,,,,,,,,,,686.0349459999707,686.0447451999644,686.0447451999644,688.4147002999671,robust,return,2.3617293999996036,None,688.4149628999876,688.4243993000127,688.4243993000127,688.4175517000258,,None,,,,,3,2023-12-21_14h02.09.867,watkins1,2023.2.3,99.69582805691951,75,2023-12-21 14h02.28.432228 +0000,
,,,,,,,,,,,,,,,,,,,,,,,10,0,10,0,688.926347300061,,,,,,,,,,690.5159909999929,691.0053768999642,,,,1.5841670000227168,,,,,,,,,,,,None,None,,,,,,,,,,Telefon,,,cuedRecallAdj,3,,,,,,,,,,,,,,,,,,,,,,,,0,,,,,,,,,,,,,,,,,,,,,,,,,,,,688.9166666000383,688.926347300061,688.926347300061,690.5136731000384,,return,1.5841670000227168,None,690.5139586000005,690.5232153000543,690.5232153000543,690.515889500035,,None,,,,,3,2023-12-21_14h02.09.867,watkins1,2023.2.3,99.69582805691951,75,2023-12-21 14h02.28.432228 +0000,
,,,,,,,,,,,,,,,,,,,,,,,11,0,11,0,691.0153269000584,,,,,,,,,,693.378269399982,693.8771114000119,,,,2.351265399949625,,,,,,,,,,,,None,None,,,,,,,,,,Kamera,,,cuedRecallAdj,3,,,,,,,,,,,,,,,,,,,,,,,,0,,,,,,,,,,,,,,,,,,,,,,,,,,,,691.0056185000576,691.0153269000584,691.0153269000584,693.37534160004,robust,return,2.351265399949625,None,693.3756007000338,693.3850979000563,693.3850979000563,693.3781695000362,,None,,,,,3,2023-12-21_14h02.09.867,watkins1,2023.2.3,99.69582805691951,75,2023-12-21 14h02.28.432228 +0000,
,,,,,,,,,,,,,,,,,,,,,,,12,0,12,0,693.8871423000237,,,,,,,,,,698.5197092000162,699.0180009000469,,,,4.623448400059715,,,,,,,,,,,,None,None,,,,,,,,,,Flasche,,,cuedRecallAdj,3,,,,,,,,,,,,,,,,,,,,,,,,0,,,,,,,,,,,,,,,,,,,,,,,,,,,,693.877355900011,693.8871423000237,693.8871423000237,698.516493299976,glatt,return,4.623448400059715,None,698.5167590000201,698.5260205999948,698.5260205999948,698.5196084000636,,None,,,,,3,2023-12-21_14h02.09.867,watkins1,2023.2.3,99.69582805691951,75,2023-12-21 14h02.28.432228 +0000,
,,,,,,,,,,,,,,,,,,,,,,,13,0,13,0,699.0280554000055,,,,,,,,,,701.320227200049,701.8097167999949,,,,2.282568300026469,,,,,,,,,,,,None,None,,,,,,,,,,Socke,,,cuedRecallAdj,3,,,,,,,,,,,,,,,,,,,,,,,,0,,,,,,,,,,,,,,,,,,,,,,,,,,,,699.0182394000003,699.0280554000055,699.0280554000055,701.3178716000402,,return,2.282568300026469,None,701.3181351000676,701.3276572000468,701.3276572000468,701.3201249999693,,None,,,,,3,2023-12-21_14h02.09.867,watkins1,2023.2.3,99.69582805691951,75,2023-12-21 14h02.28.432228 +0000,
,,,,,,,,,,,,,,,,,,,,,,,14,0,14,0,701.8196660999674,,,,,,,,,,705.0452860000078,705.5349323999835,,,,3.2189269999507815,,,,,,,,,,,,None,None,,,,,,,,,,Tasse,,,cuedRecallAdj,3,,,,,,,,,,,,,,,,,,,,,,,,0,,,,,,,,,,,,,,,,,,,,,,,,,,,,701.8099624000024,701.8196660999674,701.8196660999674,705.0433722999878,,return,3.2189269999507815,None,705.0436399000464,705.0528873000294,705.0528873000294,705.0451845000498,,None,,,,,3,2023-12-21_14h02.09.867,watkins1,2023.2.3,99.69582805691951,75,2023-12-21 14h02.28.432228 +0000,
,,,,,,,,,,,,,,,,,,,,,,,15,0,15,0,705.5448510000715,,,,,,,,,,708.9425273999805,709.4410061000381,,,,3.389734399970621,,,,,,,,,,,,None,None,,,,,,,,,,Trommel,,,cuedRecallAdj,3,,,,,,,,,,,,,,,,,,,,,,,,0,,,,,,,,,,,,,,,,,,,,,,,,,,,,705.5351807000116,705.5448510000715,705.5448510000715,708.9393700000364,flauschig,return,3.389734399970621,None,708.9396542999893,708.9489241000265,708.9489241000265,708.942423600005,,None,,,,,3,2023-12-21_14h02.09.867,watkins1,2023.2.3,99.69582805691951,75,2023-12-21 14h02.28.432228 +0000,
,,,,,,,,,,,,,,,,,,,,,,,16,0,16,0,709.4509411000181,,,,,,,,,,711.6634565000422,712.1621831000084,,,,2.203608400071971,,,,,,,,,,,,None,None,,,,,,,,,,Lampe,,,cuedRecallAdj,3,,,,,,,,,,,,,,,,,,,,,,,,0,,,,,,,,,,,,,,,,,,,,,,,,,,,,709.4412428999785,709.4509411000181,709.4509411000181,711.6604682999896,bunt,return,2.203608400071971,None,711.660727599985,711.6700511999661,711.6700511999661,711.6633567999816,,None,,,,,3,2023-12-21_14h02.09.867,watkins1,2023.2.3,99.69582805691951,75,2023-12-21 14h02.28.432228 +0000,
,,,,,,,,,,,,,,,,,,,,,,,17,0,17,0,712.1722355000675,,,,,,,,,,720.7613151000114,721.2603491999907,,,,8.578365399967879,,,,,,,,,,,,None,None,,,,,,,,,,Jacke,,,cuedRecallAdj,3,,,,,,,,,,,,,,,,,,,,,,,,0,,,,,,,,,,,,,,,,,,,,,,,,,,,,712.162427400006,712.1722355000675,712.1722355000675,720.7584616000531,gut,return,8.578365399967879,None,720.758728899993,720.7682169000618,720.7682169000618,720.7612119000405,,None,,,,,3,2023-12-21_14h02.09.867,watkins1,2023.2.3,99.69582805691951,75,2023-12-21 14h02.28.432228 +0000,
,,,,,,,,,,,,,,,,,,,,,,,18,0,18,0,721.270273400005,,,,,,,,,,724.155287600006,724.654235700029,,,,2.8722876000683755,,,,,,,,,,,,None,None,,,,,,,,,,Stift,,,cuedRecallAdj,3,,,,,,,,,,,,,,,,,,,,,,,,0,,,,,,,,,,,,,,,,,,,,,,,,,,,,721.2605922999792,721.270273400005,721.270273400005,724.1522631000262,krumm,return,2.8722876000683755,None,724.1525251000421,724.1620591999963,724.1620591999963,724.1551803000038,,None,,,,,3,2023-12-21_14h02.09.867,watkins1,2023.2.3,99.69582805691951,75,2023-12-21 14h02.28.432228 +0000,
,,,,,,,,,,,,,,,,,,,,,,,19,0,19,0,724.6641836999916,,,,,,,,,,729.3273664000444,729.8257131000282,,,,4.654396300087683,,,,,,,,,,,,None,None,,,,,,,,,,Rucksack,,,cuedRecallAdj,3,,,,,,,,,,,,,,,,,,,,,,,,0,,,,,,,,,,,,,,,,,,,,,,,,,,,,724.6544828000478,724.6641836999916,724.6641836999916,729.3241148999659,lustig,return,4.654396300087683,None,729.3243762999773,729.3336791000329,729.3336791000329,729.3272640999639,,None,,,,,3,2023-12-21_14h02.09.867,watkins1,2023.2.3,99.69582805691951,75,2023-12-21 14h02.28.432228 +0000,
,,,,,,,,,,,,,,,,,,,,,,,20,0,20,0,729.8357553000096,,,,,,,,,,733.9059459000127,734.4047206999967,,,,4.058805000036955,,,,,,,,,,,,None,None,,,,,,,,,,Löffel,,,cuedRecallAdj,3,,,,,,,,,,,,,,,,,,,,,,,,0,,,,,,,,,,,,,,,,,,,,,,,,,,,,729.825954400003,729.8357553000096,729.8357553000096,733.9029883000767,kaputt,return,4.058805000036955,None,733.9032455000561,733.912690600031,733.912690600031,733.9058469000738,,None,,,,,3,2023-12-21_14h02.09.867,watkins1,2023.2.3,99.69582805691951,75,2023-12-21 14h02.28.432228 +0000,
,,,,,,,,,,,,,,,,,,,,,,,21,0,21,0,734.4147136000684,,,,,,,,,,740.272346700076,740.7709518000484,,,,5.847781299962662,,,,,,,,,,,,None,None,,,,,,,,,,Hammer,,,cuedRecallAdj,3,,,,,,,,,,,,,,,,,,,,,,,,0,,,,,,,,,,,,,,,,,,,,,,,,,,,,734.4049604000757,734.4147136000684,734.4147136000684,740.2692303999793,praktisch,return,5.847781299962662,None,740.2694945000112,740.2788206000114,740.2788206000114,740.2722448999994,,None,,,,,3,2023-12-21_14h02.09.867,watkins1,2023.2.3,99.69582805691951,75,2023-12-21 14h02.28.432228 +0000,
,,,,,,,,,,,,,,,,,,,,,,,22,0,22,0,740.7808895000489,,,,,,,,,,744.449445300037,744.9482748999726,,,,3.657629800029099,,,,,,,,,,,,None,None,,,,,,,,,,Brille,,,cuedRecallAdj,3,,,,,,,,,,,,,,,,,,,,,,,,0,,,,,,,,,,,,,,,,,,,,,,,,,,,,740.771202999982,740.7808895000489,740.7808895000489,744.4463860000251,schmutzig,return,3.657629800029099,None,744.4466458000243,744.4560967000434,744.4560967000434,744.4493316999869,,None,,,,,3,2023-12-21_14h02.09.867,watkins1,2023.2.3,99.69582805691951,75,2023-12-21 14h02.28.432228 +0000,
,,,,,,,,,,,,,,,,,,,,,,,23,0,23,0,744.9582190000219,,,,,,,,,,746.5982098999666,747.0969765000045,,,,1.6323345999699086,,,,,,,,,,,,None,None,,,,,,,,,,Schlüssel,,,cuedRecallAdj,3,,,,,,,,,,,,,,,,,,,,,,,,0,,,,,,,,,,,,,,,,,,,,,,,,,,,,744.9485171000706,744.9582190000219,744.9582190000219,746.5953096000012,lang,return,1.6323345999699086,None,746.5955689999973,746.6048666000133,746.6048666000133,746.5981098000193,,None,,,,,3,2023-12-21_14h02.09.867,watkins1,2023.2.3,99.69582805691951,75,2023-12-21 14h02.28.432228 +0000,
,,,,,,,,,,,,,,,,,,,,,,,24,0,24,0,747.1069279999938,,,,,,,,,,750.7752471000422,751.2742611999856,,,,3.659646900021471,,,,,,,,,,,,None,None,,,,,,,,,,Vase,,,cuedRecallAdj,3,,,,,,,,,,,,,,,,,,,,,,,,0,,,,,,,,,,,,,,,,,,,,,,,,,,,,747.09721789998,747.1069279999938,747.1069279999938,750.7725555000361,bunt,return,3.659646900021471,None,750.7728133000201,750.7821000000695,750.7821000000695,750.7751453999663,,None,,,,,3,2023-12-21_14h02.09.867,watkins1,2023.2.3,99.69582805691951,75,2023-12-21 14h02.28.432228 +0000,
,,,,,,,,,,,,,,,,,,,,,,,25,0,25,0,751.2842073000502,,,,,,,,,,754.5915357000194,755.0900330999866,,,,3.2983391999732703,,,,,,,,,,,,None,None,,,,,,,,,,Würfel,,,cuedRecallAdj,3,,,,,,,,,,,,,,,,,,,,,,,,0,,,,,,,,,,,,,,,,,,,,,,,,,,,,751.2745026000775,751.2842073000502,751.2842073000502,754.58830329997,hübsch,return,3.2983391999732703,None,754.5885937999701,754.5978367000353,754.5978367000353,754.591425599996,,None,,,,,3,2023-12-21_14h02.09.867,watkins1,2023.2.3,99.69582805691951,75,2023-12-21 14h02.28.432228 +0000,
,,,,,,,,,,,,,,,,,,,,,,,26,0,26,0,755.0999821000732,,,,,,,,,,756.9810531999683,757.4797473000363,,,,1.8745572000043467,,,,,,,,,,,,None,None,,,,,,,,,,Eimer,,,cuedRecallAdj,3,,,,,,,,,,,,,,,,,,,,,,,,0,,,,,,,,,,,,,,,,,,,,,,,,,,,,755.0902752999682,755.0999821000732,755.0999821000732,756.9780486000236,schwer,return,1.8745572000043467,None,756.9783162999665,756.9876724999631,756.9876724999631,756.980951000005,,None,,,,,3,2023-12-21_14h02.09.867,watkins1,2023.2.3,99.69582805691951,75,2023-12-21 14h02.28.432228 +0000,
,,,,,,,,,,,,,,,,,,,,,,,27,0,27,0,757.4896971000126,,,,,,,,,,760.5061191000277,761.0050961000379,,,,3.004823900060728,,,,,,,,,,,,None,None,,,,,,,,,,Blume,,,cuedRecallAdj,3,,,,,,,,,,,,,,,,,,,,,,,,0,,,,,,,,,,,,,,,,,,,,,,,,,,,,757.4799946000567,757.4896971000126,757.4896971000126,760.5032312000403,bunt,return,3.004823900060728,None,760.5035012000008,760.5129067000234,760.5129067000234,760.5060167000629,,None,,,,,3,2023-12-21_14h02.09.867,watkins1,2023.2.3,99.69582805691951,75,2023-12-21 14h02.28.432228 +0000,
,,,,,,,,,,,,,,,,,,,,,,,28,0,28,0,761.0149948999751,,,,,,,,,,764.1010272999993,764.5997741000028,,,,3.0794380999868736,,,,,,,,,,,,None,None,,,,,,,,,,Geige,,,cuedRecallAdj,3,,,,,,,,,,,,,,,,,,,,,,,,0,,,,,,,,,,,,,,,,,,,,,,,,,,,,761.0053353999974,761.0149948999751,761.0149948999751,764.0980090000667,dunkel,return,3.0794380999868736,None,764.0982767000096,764.1076047000242,764.1076047000242,764.1009253000375,,None,,,,,3,2023-12-21_14h02.09.867,watkins1,2023.2.3,99.69582805691951,75,2023-12-21 14h02.28.432228 +0000,
,,,,,,,,,,,,,,,,,,,,,,,29,0,29,0,764.6097182000522,,,,,,,,,,768.9704552000621,769.4597468000138,,,,4.348696499946527,,,,,,,,,,,,None,None,,,,,,,,,,Bürste,,,cuedRecallAdj,3,,,,,,,,,,,,,,,,,,,,,,,,0,,,,,,,,,,,,,,,,,,,,,,,,,,,,764.6000198000111,764.6097182000522,764.6097182000522,768.9680415000767,,return,4.348696499946527,None,768.9683105000295,768.9777145000407,768.9777145000407,768.9703515999718,,None,,,,,3,2023-12-21_14h02.09.867,watkins1,2023.2.3,99.69582805691951,75,2023-12-21 14h02.28.432228 +0000,
,,,,,,,,,,,,,,,,,,,,,,,,,,,,,,,,,,,,,,,,,,,,,,,,,,,,,,,,,,,,,,,,,,,,,3,,,,,,,,,,,,,,,,,,,,,,,,,,,,,,,,,,,,,,,,,,,,,,,,,,,,,,,,,,,,,,,,,,769.4766402000096,q,2433.815972799901,None,3,2023-12-21_14h02.09.867,watkins1,2023.2.3,99.69582805691951,75,2023-12-21 14h02.28.432228 +0000,
