Equation,CorrectResponse,Correctbutton,trials_7.thisRepN,trials_7.thisTrialN,trials_7.thisN,trials_7.thisIndex,trials.thisRepN,trials.thisTrialN,trials.thisN,trials.thisIndex,trials_3.thisRepN,trials_3.thisTrialN,trials_3.thisN,trials_3.thisIndex,trials_2.thisRepN,trials_2.thisTrialN,trials_2.thisN,trials_2.thisIndex,trials_4.thisRepN,trials_4.thisTrialN,trials_4.thisN,trials_4.thisIndex,trials_5.thisRepN,trials_5.thisTrialN,trials_5.thisN,trials_5.thisIndex,thisRow.t,notes,list_sub_restudy,list_sub_testsub,code_marius.started,code_marius.stopped,welcome.started,welcome.stopped,instruction_study.started,instruction_study.stopped,fixationcross.started,fixationcross.stopped,blanc.started,blanc.stopped,study_control_probe.started,study_control_probe.stopped,responseKey,responseTime,scale_answer_2.keys,study_control_probe_2.started,study_control_probe_2.stopped,scale_answer_3.keys,scale_answer_3.rt,scale_answer_3.duration,blanc_2.started,blanc_2.stopped,test_attr_probe.started,test_attr_probe.stopped,recalled_attr,firstKeyTime,secondWordTime,blanc_3.started,blanc_3.stopped,test_sub_probe.started,test_sub_probe.stopped,recalled_sub,instruction_probe_end.started,instruction_probe_end.stopped,study.started,study.stopped,substantive,adjective,wordpair,task,condition,liste_sub_phase1,liste_adj_phase1,scale_answer.keys,scale_answer.rt,scale_answer.duration,code_defineWordsInit.started,code_defineWordsInit.stopped,liste_sub_phase2,study_control.started,study_control.stopped,scale_answer_4.keys,restudy_same.started,restudy_same.stopped,scale_answer_5.keys,restudy_different.started,restudy_different.stopped,scale_answer_6.keys,test_attr.started,test_attr.stopped,test_sub.started,correct,test_sub.stopped,scale_answer_5.rt,scale_answer_5.duration,distractortask.started,equation_text.started,distractortask.stopped,mouse_answer.x,mouse_answer.y,mouse_answer.leftButton,mouse_answer.midButton,mouse_answer.rightButton,mouse_answer.time,mouse_answer.clicked_name,feedback_distractortask.started,feedback_distractortask.stopped,free_recall.started,text_enter.started,key_resp.started,free_recall.stopped,key_resp.keys,key_resp.rt,key_resp.duration,free_recalled_sub,mouse_continue.x,mouse_continue.y,mouse_continue.leftButton,mouse_continue.midButton,mouse_continue.rightButton,mouse_continue.time,mouse_continue.clicked_name,cued_recall.started,text_enter_2.started,key_continue.started,cued_recall.stopped,recalled_attr1,key_continue.keys,key_continue.rt,key_continue.duration,cued_recall_2.started,text_enter_3.started,key_continue_2.started,cued_recall_2.stopped,recalled_attr2,key_continue_2.keys,key_resp_8.started,key_resp_8.keys,key_resp_8.rt,key_resp_8.duration,condition,date,expName,psychopyVersion,frameRate,participant,expStart,
,,,,,,,,,,,,,,,,,,,,,,,,,,,,,"['Bürste', 'Trommel', 'Kerze', 'Geige', 'Socke', 'Stift', 'Brille', 'Löffel', 'Uhr', 'Jacke', 'Kette', 'Buch', 'Eimer', 'Tasse', 'Tasche']","['Fahrrad', 'Kiste', 'Kamera', 'Hammer', 'Lampe', 'Blume', 'Telefon', 'Vase', 'Schlüssel', 'Würfel', 'Schere', 'Hut', 'Rucksack', 'Ring', 'Flasche']",0.1019867000868544,0.10205370001494884,0.10206230008043349,7.435571700101718,,,,,,,,,,,,,,,,,,,,,,,,,,,,,,,,,,,,,2,,,,,,,,,,,,,,,,,,,,,,,,,,,,,,,,,,,,,,,,,,,,,,,,,,,,,,,,,,,,,,,,,,,,,,2,2023-11-23_10h46.57.551,watkins1,2023.2.3,99.77968642425476,11,2023-11-23 10h47.05.365681 +0000,
,,,,,,,,,,,,,,,,,,,,,,,,,,,,,,,,,,,7.435620700009167,41.0159910999937,,,,,,,,,,,,,,,,,,,,,,,,,,,,,,,,,,,2,,,,,,,,,,,,,,,,,,,,,,,,,,,,,,,,,,,,,,,,,,,,,,,,,,,,,,,,,,,,,,,,,,,,,,2,2023-11-23_10h46.57.551,watkins1,2023.2.3,99.77968642425476,11,2023-11-23 10h47.05.365681 +0000,
,,,0,0,0,0,,,,,,,,,,,,,,,,,,,,,42.02965750009753,,,,,,,,,,41.01600880001206,42.01956790010445,48.517901300103404,49.009179100045,42.51166950003244,48.517727600061335,2,2.789482499938458,None,49.00918940000702,55.01349410007242,2,2.789482499938458,None,55.01378969999496,55.01381350005977,55.01382079999894,55.013901800033636,,2.801764399977401,4.90041680005379,55.01406640000641,55.50508750008885,55.50509850005619,61.5102117001079,capslockhcapsl,,,,,,,,,2,,,,,,,,,,,,,,,,,,,,,,,,,,,,,,,,,,,,,,,,,,,,,,,,,,,,,,,,,,,,,,,,,,,,,,2,2023-11-23_10h46.57.551,watkins1,2023.2.3,99.77968642425476,11,2023-11-23 10h47.05.365681 +0000,
,,,,,,,,,,,,,,,,,,,,,,,,,,,,,,,,,,,,,,,,,,,,,,,,,,,,,,,,,,,,,,,61.510367000009865,67.68553720007185,,,,,,,2,,,,,,,,,,,,,,,,,,,,,,,,,,,,,,,,,,,,,,,,,,,,,,,,,,,,,,,,,,,,,,,,,,,,,,2,2023-11-23_10h46.57.551,watkins1,2023.2.3,99.77968642425476,11,2023-11-23 10h47.05.365681 +0000,
,,,,,,,0,0,0,0,,,,,,,,,,,,,,,,,68.69930740003474,,,,,,,,,,67.68555560009554,68.68934210005682,68.6898190000793,69.18138530000579,,,1,2.2856891999254003,,,,,,,,,,,,,,,,,,,,,69.18139570008498,75.18653639999684,Socke,durchsichtig,"['Socke', 'durchsichtig']",restudy,2,"['Socke', 'Tasse', 'Hut', 'Telefon', 'Hammer', 'Löffel', 'Buch', 'Kerze', 'Uhr', 'Fahrrad', 'Ring', 'Geige', 'Jacke', 'Kette', 'Schlüssel', 'Stift', 'Vase', 'Würfel', 'Kamera', 'Rucksack', 'Flasche', 'Kiste', 'Blume', 'Trommel', 'Eimer', 'Brille', 'Lampe', 'Schere', 'Tasche', 'Bürste']",['durchsichtig'],1,2.2856891999254003,None,,,,,,,,,,,,,,,,,,,,,,,,,,,,,,,,,,,,,,,,,,,,,,,,,,,,,,,,,,,,,,,,,2,2023-11-23_10h46.57.551,watkins1,2023.2.3,99.77968642425476,11,2023-11-23 10h47.05.365681 +0000,
,,,,,,,1,0,1,0,,,,,,,,,,,,,,,,,75.19598060008138,,,,,,,,,,,,75.18720220006071,75.67809160007164,,,2,3.014419800019823,,,,,,,,,,,,,,,,,,,,,75.67810260003898,81.6803170000203,Tasse,gut,"['Tasse', 'gut']",restudy,2,"['Socke', 'Tasse', 'Hut', 'Telefon', 'Hammer', 'Löffel', 'Buch', 'Kerze', 'Uhr', 'Fahrrad', 'Ring', 'Geige', 'Jacke', 'Kette', 'Schlüssel', 'Stift', 'Vase', 'Würfel', 'Kamera', 'Rucksack', 'Flasche', 'Kiste', 'Blume', 'Trommel', 'Eimer', 'Brille', 'Lampe', 'Schere', 'Tasche', 'Bürste']","['durchsichtig', 'gut']",2,3.014419800019823,None,,,,,,,,,,,,,,,,,,,,,,,,,,,,,,,,,,,,,,,,,,,,,,,,,,,,,,,,,,,,,,,,,2,2023-11-23_10h46.57.551,watkins1,2023.2.3,99.77968642425476,11,2023-11-23 10h47.05.365681 +0000,
,,,,,,,2,0,2,0,,,,,,,,,,,,,,,,,81.68976630002726,,,,,,,,,,,,81.6808474001009,82.17181670002174,,,1,3.680291200056672,,,,,,,,,,,,,,,,,,,,,82.17182740010321,88.17701220000163,Hut,schmutzig,"['Hut', 'schmutzig']",test_sub,2,"['Socke', 'Tasse', 'Hut', 'Telefon', 'Hammer', 'Löffel', 'Buch', 'Kerze', 'Uhr', 'Fahrrad', 'Ring', 'Geige', 'Jacke', 'Kette', 'Schlüssel', 'Stift', 'Vase', 'Würfel', 'Kamera', 'Rucksack', 'Flasche', 'Kiste', 'Blume', 'Trommel', 'Eimer', 'Brille', 'Lampe', 'Schere', 'Tasche', 'Bürste']","['durchsichtig', 'gut', 'schmutzig']",1,3.680291200056672,None,,,,,,,,,,,,,,,,,,,,,,,,,,,,,,,,,,,,,,,,,,,,,,,,,,,,,,,,,,,,,,,,,2,2023-11-23_10h46.57.551,watkins1,2023.2.3,99.77968642425476,11,2023-11-23 10h47.05.365681 +0000,
,,,,,,,3,0,3,0,,,,,,,,,,,,,,,,,88.18631620006636,,,,,,,,,,,,88.1775494000176,88.66834720002953,,,2,2.3680171000305563,,,,,,,,,,,,,,,,,,,,,88.66835769999307,94.67342180002015,Telefon,kurz,"['Telefon', 'kurz']",test_sub,2,"['Socke', 'Tasse', 'Hut', 'Telefon', 'Hammer', 'Löffel', 'Buch', 'Kerze', 'Uhr', 'Fahrrad', 'Ring', 'Geige', 'Jacke', 'Kette', 'Schlüssel', 'Stift', 'Vase', 'Würfel', 'Kamera', 'Rucksack', 'Flasche', 'Kiste', 'Blume', 'Trommel', 'Eimer', 'Brille', 'Lampe', 'Schere', 'Tasche', 'Bürste']","['durchsichtig', 'gut', 'schmutzig', 'kurz']",2,2.3680171000305563,None,,,,,,,,,,,,,,,,,,,,,,,,,,,,,,,,,,,,,,,,,,,,,,,,,,,,,,,,,,,,,,,,,2,2023-11-23_10h46.57.551,watkins1,2023.2.3,99.77968642425476,11,2023-11-23 10h47.05.365681 +0000,
,,,,,,,4,0,4,0,,,,,,,,,,,,,,,,,94.68288030009717,,,,,,,,,,,,94.67394850007258,95.16487740003504,,,1,2.0406362999929115,,,,,,,,,,,,,,,,,,,,,95.16488779999781,101.16658350010403,Hammer,hohl,"['Hammer', 'hohl']",test_sub,2,"['Socke', 'Tasse', 'Hut', 'Telefon', 'Hammer', 'Löffel', 'Buch', 'Kerze', 'Uhr', 'Fahrrad', 'Ring', 'Geige', 'Jacke', 'Kette', 'Schlüssel', 'Stift', 'Vase', 'Würfel', 'Kamera', 'Rucksack', 'Flasche', 'Kiste', 'Blume', 'Trommel', 'Eimer', 'Brille', 'Lampe', 'Schere', 'Tasche', 'Bürste']","['durchsichtig', 'gut', 'schmutzig', 'kurz', 'hohl']",1,2.0406362999929115,None,,,,,,,,,,,,,,,,,,,,,,,,,,,,,,,,,,,,,,,,,,,,,,,,,,,,,,,,,,,,,,,,,2,2023-11-23_10h46.57.551,watkins1,2023.2.3,99.77968642425476,11,2023-11-23 10h47.05.365681 +0000,
,,,,,,,5,0,5,0,,,,,,,,,,,,,,,,,101.17605580005329,,,,,,,,,,,,101.16711220005527,101.65809860010631,,,1,3.0022629000013694,,,,,,,,,,,,,,,,,,,,,101.65810930007137,107.66192139999475,Löffel,lang,"['Löffel', 'lang']",restudy,2,"['Socke', 'Tasse', 'Hut', 'Telefon', 'Hammer', 'Löffel', 'Buch', 'Kerze', 'Uhr', 'Fahrrad', 'Ring', 'Geige', 'Jacke', 'Kette', 'Schlüssel', 'Stift', 'Vase', 'Würfel', 'Kamera', 'Rucksack', 'Flasche', 'Kiste', 'Blume', 'Trommel', 'Eimer', 'Brille', 'Lampe', 'Schere', 'Tasche', 'Bürste']","['durchsichtig', 'gut', 'schmutzig', 'kurz', 'hohl', 'lang']",1,3.0022629000013694,None,,,,,,,,,,,,,,,,,,,,,,,,,,,,,,,,,,,,,,,,,,,,,,,,,,,,,,,,,,,,,,,,,2,2023-11-23_10h46.57.551,watkins1,2023.2.3,99.77968642425476,11,2023-11-23 10h47.05.365681 +0000,
,,,,,,,6,0,6,0,,,,,,,,,,,,,,,,,107.67135459999554,,,,,,,,,,,,107.66244770004414,108.15349320007954,,,2,2.4022953000385314,,,,,,,,,,,,,,,,,,,,,108.15350340004079,114.15558530006092,Buch,groß,"['Buch', 'groß']",restudy,2,"['Socke', 'Tasse', 'Hut', 'Telefon', 'Hammer', 'Löffel', 'Buch', 'Kerze', 'Uhr', 'Fahrrad', 'Ring', 'Geige', 'Jacke', 'Kette', 'Schlüssel', 'Stift', 'Vase', 'Würfel', 'Kamera', 'Rucksack', 'Flasche', 'Kiste', 'Blume', 'Trommel', 'Eimer', 'Brille', 'Lampe', 'Schere', 'Tasche', 'Bürste']","['durchsichtig', 'gut', 'schmutzig', 'kurz', 'hohl', 'lang', 'groß']",2,2.4022953000385314,None,,,,,,,,,,,,,,,,,,,,,,,,,,,,,,,,,,,,,,,,,,,,,,,,,,,,,,,,,,,,,,,,,2,2023-11-23_10h46.57.551,watkins1,2023.2.3,99.77968642425476,11,2023-11-23 10h47.05.365681 +0000,
,,,,,,,7,0,7,0,,,,,,,,,,,,,,,,,114.16500880010426,,,,,,,,,,,,114.15611660003196,114.64715650002472,,,1,4.437112599960528,,,,,,,,,,,,,,,,,,,,,114.64716759999283,120.65371080010664,Kerze,sauber,"['Kerze', 'sauber']",restudy,2,"['Socke', 'Tasse', 'Hut', 'Telefon', 'Hammer', 'Löffel', 'Buch', 'Kerze', 'Uhr', 'Fahrrad', 'Ring', 'Geige', 'Jacke', 'Kette', 'Schlüssel', 'Stift', 'Vase', 'Würfel', 'Kamera', 'Rucksack', 'Flasche', 'Kiste', 'Blume', 'Trommel', 'Eimer', 'Brille', 'Lampe', 'Schere', 'Tasche', 'Bürste']","['durchsichtig', 'gut', 'schmutzig', 'kurz', 'hohl', 'lang', 'groß', 'sauber']",1,4.437112599960528,None,,,,,,,,,,,,,,,,,,,,,,,,,,,,,,,,,,,,,,,,,,,,,,,,,,,,,,,,,,,,,,,,,2,2023-11-23_10h46.57.551,watkins1,2023.2.3,99.77968642425476,11,2023-11-23 10h47.05.365681 +0000,
,,,,,,,8,0,8,0,,,,,,,,,,,,,,,,,120.66328750003595,,,,,,,,,,,,120.65425090002827,121.14529130002484,,,3,3.738573999959044,,,,,,,,,,,,,,,,,,,,,121.14530239999294,127.15062760002911,Uhr,teuer,"['Uhr', 'teuer']",restudy,2,"['Socke', 'Tasse', 'Hut', 'Telefon', 'Hammer', 'Löffel', 'Buch', 'Kerze', 'Uhr', 'Fahrrad', 'Ring', 'Geige', 'Jacke', 'Kette', 'Schlüssel', 'Stift', 'Vase', 'Würfel', 'Kamera', 'Rucksack', 'Flasche', 'Kiste', 'Blume', 'Trommel', 'Eimer', 'Brille', 'Lampe', 'Schere', 'Tasche', 'Bürste']","['durchsichtig', 'gut', 'schmutzig', 'kurz', 'hohl', 'lang', 'groß', 'sauber', 'teuer']",3,3.738573999959044,None,,,,,,,,,,,,,,,,,,,,,,,,,,,,,,,,,,,,,,,,,,,,,,,,,,,,,,,,,,,,,,,,,2,2023-11-23_10h46.57.551,watkins1,2023.2.3,99.77968642425476,11,2023-11-23 10h47.05.365681 +0000,
,,,,,,,9,0,9,0,,,,,,,,,,,,,,,,,127.1600520000793,,,,,,,,,,,,127.1511624000268,127.64215319999494,,,2,1.2507418000604957,,,,,,,,,,,,,,,,,,,,,127.64216350007337,133.65192740003113,Fahrrad,kaputt,"['Fahrrad', 'kaputt']",test_sub,2,"['Socke', 'Tasse', 'Hut', 'Telefon', 'Hammer', 'Löffel', 'Buch', 'Kerze', 'Uhr', 'Fahrrad', 'Ring', 'Geige', 'Jacke', 'Kette', 'Schlüssel', 'Stift', 'Vase', 'Würfel', 'Kamera', 'Rucksack', 'Flasche', 'Kiste', 'Blume', 'Trommel', 'Eimer', 'Brille', 'Lampe', 'Schere', 'Tasche', 'Bürste']","['durchsichtig', 'gut', 'schmutzig', 'kurz', 'hohl', 'lang', 'groß', 'sauber', 'teuer', 'kaputt']",2,1.2507418000604957,None,,,,,,,,,,,,,,,,,,,,,,,,,,,,,,,,,,,,,,,,,,,,,,,,,,,,,,,,,,,,,,,,,2,2023-11-23_10h46.57.551,watkins1,2023.2.3,99.77968642425476,11,2023-11-23 10h47.05.365681 +0000,
,,,,,,,10,0,10,0,,,,,,,,,,,,,,,,,133.6613604000304,,,,,,,,,,,,133.65245170006528,134.143609700026,,,2,1.75643020006828,,,,,,,,,,,,,,,,,,,,,134.14361990010366,140.14474250003695,Ring,verspielt,"['Ring', 'verspielt']",test_sub,2,"['Socke', 'Tasse', 'Hut', 'Telefon', 'Hammer', 'Löffel', 'Buch', 'Kerze', 'Uhr', 'Fahrrad', 'Ring', 'Geige', 'Jacke', 'Kette', 'Schlüssel', 'Stift', 'Vase', 'Würfel', 'Kamera', 'Rucksack', 'Flasche', 'Kiste', 'Blume', 'Trommel', 'Eimer', 'Brille', 'Lampe', 'Schere', 'Tasche', 'Bürste']","['durchsichtig', 'gut', 'schmutzig', 'kurz', 'hohl', 'lang', 'groß', 'sauber', 'teuer', 'kaputt', 'verspielt']",2,1.75643020006828,None,,,,,,,,,,,,,,,,,,,,,,,,,,,,,,,,,,,,,,,,,,,,,,,,,,,,,,,,,,,,,,,,,2,2023-11-23_10h46.57.551,watkins1,2023.2.3,99.77968642425476,11,2023-11-23 10h47.05.365681 +0000,
,,,,,,,11,0,11,0,,,,,,,,,,,,,,,,,140.15415550000034,,,,,,,,,,,,140.14526250003837,140.63629610009957,,,1,1.8880521999672055,,,,,,,,,,,,,,,,,,,,,140.63630730006844,146.64666570001282,Geige,praktisch,"['Geige', 'praktisch']",restudy,2,"['Socke', 'Tasse', 'Hut', 'Telefon', 'Hammer', 'Löffel', 'Buch', 'Kerze', 'Uhr', 'Fahrrad', 'Ring', 'Geige', 'Jacke', 'Kette', 'Schlüssel', 'Stift', 'Vase', 'Würfel', 'Kamera', 'Rucksack', 'Flasche', 'Kiste', 'Blume', 'Trommel', 'Eimer', 'Brille', 'Lampe', 'Schere', 'Tasche', 'Bürste']","['durchsichtig', 'gut', 'schmutzig', 'kurz', 'hohl', 'lang', 'groß', 'sauber', 'teuer', 'kaputt', 'verspielt', 'praktisch']",1,1.8880521999672055,None,,,,,,,,,,,,,,,,,,,,,,,,,,,,,,,,,,,,,,,,,,,,,,,,,,,,,,,,,,,,,,,,,2,2023-11-23_10h46.57.551,watkins1,2023.2.3,99.77968642425476,11,2023-11-23 10h47.05.365681 +0000,
,,,,,,,12,0,12,0,,,,,,,,,,,,,,,,,146.6561786000384,,,,,,,,,,,,146.64719440008048,147.13832790008746,,,1,1.6181130000622943,,,,,,,,,,,,,,,,,,,,,147.13833880005404,153.14272880007047,Jacke,strahlend,"['Jacke', 'strahlend']",restudy,2,"['Socke', 'Tasse', 'Hut', 'Telefon', 'Hammer', 'Löffel', 'Buch', 'Kerze', 'Uhr', 'Fahrrad', 'Ring', 'Geige', 'Jacke', 'Kette', 'Schlüssel', 'Stift', 'Vase', 'Würfel', 'Kamera', 'Rucksack', 'Flasche', 'Kiste', 'Blume', 'Trommel', 'Eimer', 'Brille', 'Lampe', 'Schere', 'Tasche', 'Bürste']","['durchsichtig', 'gut', 'schmutzig', 'kurz', 'hohl', 'lang', 'groß', 'sauber', 'teuer', 'kaputt', 'verspielt', 'praktisch', 'strahlend']",1,1.6181130000622943,None,,,,,,,,,,,,,,,,,,,,,,,,,,,,,,,,,,,,,,,,,,,,,,,,,,,,,,,,,,,,,,,,,2,2023-11-23_10h46.57.551,watkins1,2023.2.3,99.77968642425476,11,2023-11-23 10h47.05.365681 +0000,
,,,,,,,13,0,13,0,,,,,,,,,,,,,,,,,153.15217550005764,,,,,,,,,,,,153.143257800024,153.6343879000051,,,3,1.250177999958396,,,,,,,,,,,,,,,,,,,,,153.6343985000858,159.64448510005604,Kette,hübsch,"['Kette', 'hübsch']",restudy,2,"['Socke', 'Tasse', 'Hut', 'Telefon', 'Hammer', 'Löffel', 'Buch', 'Kerze', 'Uhr', 'Fahrrad', 'Ring', 'Geige', 'Jacke', 'Kette', 'Schlüssel', 'Stift', 'Vase', 'Würfel', 'Kamera', 'Rucksack', 'Flasche', 'Kiste', 'Blume', 'Trommel', 'Eimer', 'Brille', 'Lampe', 'Schere', 'Tasche', 'Bürste']","['durchsichtig', 'gut', 'schmutzig', 'kurz', 'hohl', 'lang', 'groß', 'sauber', 'teuer', 'kaputt', 'verspielt', 'praktisch', 'strahlend', 'hübsch']",3,1.250177999958396,None,,,,,,,,,,,,,,,,,,,,,,,,,,,,,,,,,,,,,,,,,,,,,,,,,,,,,,,,,,,,,,,,,2,2023-11-23_10h46.57.551,watkins1,2023.2.3,99.77968642425476,11,2023-11-23 10h47.05.365681 +0000,
,,,,,,,14,0,14,0,,,,,,,,,,,,,,,,,159.6539750000229,,,,,,,,,,,,159.64501520001795,160.1357840000419,,,1,1.405217600055039,,,,,,,,,,,,,,,,,,,,,160.13579570001457,166.14456730009988,Schlüssel,gestreift,"['Schlüssel', 'gestreift']",test_sub,2,"['Socke', 'Tasse', 'Hut', 'Telefon', 'Hammer', 'Löffel', 'Buch', 'Kerze', 'Uhr', 'Fahrrad', 'Ring', 'Geige', 'Jacke', 'Kette', 'Schlüssel', 'Stift', 'Vase', 'Würfel', 'Kamera', 'Rucksack', 'Flasche', 'Kiste', 'Blume', 'Trommel', 'Eimer', 'Brille', 'Lampe', 'Schere', 'Tasche', 'Bürste']","['durchsichtig', 'gut', 'schmutzig', 'kurz', 'hohl', 'lang', 'groß', 'sauber', 'teuer', 'kaputt', 'verspielt', 'praktisch', 'strahlend', 'hübsch', 'gestreift']",1,1.405217600055039,None,,,,,,,,,,,,,,,,,,,,,,,,,,,,,,,,,,,,,,,,,,,,,,,,,,,,,,,,,,,,,,,,,2,2023-11-23_10h46.57.551,watkins1,2023.2.3,99.77968642425476,11,2023-11-23 10h47.05.365681 +0000,
,,,,,,,15,0,15,0,,,,,,,,,,,,,,,,,166.15400780003984,,,,,,,,,,,,166.14509780006483,166.63612170005217,,,1,1.7291170000098646,,,,,,,,,,,,,,,,,,,,,166.63613230001647,172.64211830007844,Stift,niedlich,"['Stift', 'niedlich']",restudy,2,"['Socke', 'Tasse', 'Hut', 'Telefon', 'Hammer', 'Löffel', 'Buch', 'Kerze', 'Uhr', 'Fahrrad', 'Ring', 'Geige', 'Jacke', 'Kette', 'Schlüssel', 'Stift', 'Vase', 'Würfel', 'Kamera', 'Rucksack', 'Flasche', 'Kiste', 'Blume', 'Trommel', 'Eimer', 'Brille', 'Lampe', 'Schere', 'Tasche', 'Bürste']","['durchsichtig', 'gut', 'schmutzig', 'kurz', 'hohl', 'lang', 'groß', 'sauber', 'teuer', 'kaputt', 'verspielt', 'praktisch', 'strahlend', 'hübsch', 'gestreift', 'niedlich']",1,1.7291170000098646,None,,,,,,,,,,,,,,,,,,,,,,,,,,,,,,,,,,,,,,,,,,,,,,,,,,,,,,,,,,,,,,,,,2,2023-11-23_10h46.57.551,watkins1,2023.2.3,99.77968642425476,11,2023-11-23 10h47.05.365681 +0000,
,,,,,,,16,0,16,0,,,,,,,,,,,,,,,,,172.65163160010707,,,,,,,,,,,,172.64265660010278,173.1337457000045,,,1,3.110159199917689,,,,,,,,,,,,,,,,,,,,,173.13375620008446,179.1351470000809,Vase,hässlich,"['Vase', 'hässlich']",test_sub,2,"['Socke', 'Tasse', 'Hut', 'Telefon', 'Hammer', 'Löffel', 'Buch', 'Kerze', 'Uhr', 'Fahrrad', 'Ring', 'Geige', 'Jacke', 'Kette', 'Schlüssel', 'Stift', 'Vase', 'Würfel', 'Kamera', 'Rucksack', 'Flasche', 'Kiste', 'Blume', 'Trommel', 'Eimer', 'Brille', 'Lampe', 'Schere', 'Tasche', 'Bürste']","['durchsichtig', 'gut', 'schmutzig', 'kurz', 'hohl', 'lang', 'groß', 'sauber', 'teuer', 'kaputt', 'verspielt', 'praktisch', 'strahlend', 'hübsch', 'gestreift', 'niedlich', 'hässlich']",1,3.110159199917689,None,,,,,,,,,,,,,,,,,,,,,,,,,,,,,,,,,,,,,,,,,,,,,,,,,,,,,,,,,,,,,,,,,2,2023-11-23_10h46.57.551,watkins1,2023.2.3,99.77968642425476,11,2023-11-23 10h47.05.365681 +0000,
,,,,,,,17,0,17,0,,,,,,,,,,,,,,,,,179.144617700018,,,,,,,,,,,,179.13567180000246,179.62673880008515,,,1,1.9616368999704719,,,,,,,,,,,,,,,,,,,,,179.62674990005326,185.6275270000333,Würfel,breit,"['Würfel', 'breit']",test_sub,2,"['Socke', 'Tasse', 'Hut', 'Telefon', 'Hammer', 'Löffel', 'Buch', 'Kerze', 'Uhr', 'Fahrrad', 'Ring', 'Geige', 'Jacke', 'Kette', 'Schlüssel', 'Stift', 'Vase', 'Würfel', 'Kamera', 'Rucksack', 'Flasche', 'Kiste', 'Blume', 'Trommel', 'Eimer', 'Brille', 'Lampe', 'Schere', 'Tasche', 'Bürste']","['durchsichtig', 'gut', 'schmutzig', 'kurz', 'hohl', 'lang', 'groß', 'sauber', 'teuer', 'kaputt', 'verspielt', 'praktisch', 'strahlend', 'hübsch', 'gestreift', 'niedlich', 'hässlich', 'breit']",1,1.9616368999704719,None,,,,,,,,,,,,,,,,,,,,,,,,,,,,,,,,,,,,,,,,,,,,,,,,,,,,,,,,,,,,,,,,,2,2023-11-23_10h46.57.551,watkins1,2023.2.3,99.77968642425476,11,2023-11-23 10h47.05.365681 +0000,
,,,,,,,18,0,18,0,,,,,,,,,,,,,,,,,185.6370999000501,,,,,,,,,,,,185.62805910001043,186.11905110010412,,,1,2.254150499938987,,,,,,,,,,,,,,,,,,,,,186.11906080006156,192.12771790008992,Kamera,dick,"['Kamera', 'dick']",test_sub,2,"['Socke', 'Tasse', 'Hut', 'Telefon', 'Hammer', 'Löffel', 'Buch', 'Kerze', 'Uhr', 'Fahrrad', 'Ring', 'Geige', 'Jacke', 'Kette', 'Schlüssel', 'Stift', 'Vase', 'Würfel', 'Kamera', 'Rucksack', 'Flasche', 'Kiste', 'Blume', 'Trommel', 'Eimer', 'Brille', 'Lampe', 'Schere', 'Tasche', 'Bürste']","['durchsichtig', 'gut', 'schmutzig', 'kurz', 'hohl', 'lang', 'groß', 'sauber', 'teuer', 'kaputt', 'verspielt', 'praktisch', 'strahlend', 'hübsch', 'gestreift', 'niedlich', 'hässlich', 'breit', 'dick']",1,2.254150499938987,None,,,,,,,,,,,,,,,,,,,,,,,,,,,,,,,,,,,,,,,,,,,,,,,,,,,,,,,,,,,,,,,,,2,2023-11-23_10h46.57.551,watkins1,2023.2.3,99.77968642425476,11,2023-11-23 10h47.05.365681 +0000,
,,,,,,,19,0,19,0,,,,,,,,,,,,,,,,,192.13717500003986,,,,,,,,,,,,192.12825180008076,192.61919480003417,,,1,1.8339568000519648,,,,,,,,,,,,,,,,,,,,,192.61920549999923,198.62809950008523,Rucksack,flauschig,"['Rucksack', 'flauschig']",test_sub,2,"['Socke', 'Tasse', 'Hut', 'Telefon', 'Hammer', 'Löffel', 'Buch', 'Kerze', 'Uhr', 'Fahrrad', 'Ring', 'Geige', 'Jacke', 'Kette', 'Schlüssel', 'Stift', 'Vase', 'Würfel', 'Kamera', 'Rucksack', 'Flasche', 'Kiste', 'Blume', 'Trommel', 'Eimer', 'Brille', 'Lampe', 'Schere', 'Tasche', 'Bürste']","['durchsichtig', 'gut', 'schmutzig', 'kurz', 'hohl', 'lang', 'groß', 'sauber', 'teuer', 'kaputt', 'verspielt', 'praktisch', 'strahlend', 'hübsch', 'gestreift', 'niedlich', 'hässlich', 'breit', 'dick', 'flauschig']",1,1.8339568000519648,None,,,,,,,,,,,,,,,,,,,,,,,,,,,,,,,,,,,,,,,,,,,,,,,,,,,,,,,,,,,,,,,,,2,2023-11-23_10h46.57.551,watkins1,2023.2.3,99.77968642425476,11,2023-11-23 10h47.05.365681 +0000,
,,,,,,,20,0,20,0,,,,,,,,,,,,,,,,,198.6376623000251,,,,,,,,,,,,198.62862200010568,199.11975270009134,,,2,2.645829299930483,,,,,,,,,,,,,,,,,,,,,199.11976300005335,205.1276646000333,Flasche,sportlich,"['Flasche', 'sportlich']",test_sub,2,"['Socke', 'Tasse', 'Hut', 'Telefon', 'Hammer', 'Löffel', 'Buch', 'Kerze', 'Uhr', 'Fahrrad', 'Ring', 'Geige', 'Jacke', 'Kette', 'Schlüssel', 'Stift', 'Vase', 'Würfel', 'Kamera', 'Rucksack', 'Flasche', 'Kiste', 'Blume', 'Trommel', 'Eimer', 'Brille', 'Lampe', 'Schere', 'Tasche', 'Bürste']","['durchsichtig', 'gut', 'schmutzig', 'kurz', 'hohl', 'lang', 'groß', 'sauber', 'teuer', 'kaputt', 'verspielt', 'praktisch', 'strahlend', 'hübsch', 'gestreift', 'niedlich', 'hässlich', 'breit', 'dick', 'flauschig', 'sportlich']",2,2.645829299930483,None,,,,,,,,,,,,,,,,,,,,,,,,,,,,,,,,,,,,,,,,,,,,,,,,,,,,,,,,,,,,,,,,,2,2023-11-23_10h46.57.551,watkins1,2023.2.3,99.77968642425476,11,2023-11-23 10h47.05.365681 +0000,
,,,,,,,21,0,21,0,,,,,,,,,,,,,,,,,205.13724150008056,,,,,,,,,,,,205.12818890006747,205.61924220004585,,,2,1.9219676000066102,,,,,,,,,,,,,,,,,,,,,205.61925360001624,211.62012980005238,Kiste,robust,"['Kiste', 'robust']",test_sub,2,"['Socke', 'Tasse', 'Hut', 'Telefon', 'Hammer', 'Löffel', 'Buch', 'Kerze', 'Uhr', 'Fahrrad', 'Ring', 'Geige', 'Jacke', 'Kette', 'Schlüssel', 'Stift', 'Vase', 'Würfel', 'Kamera', 'Rucksack', 'Flasche', 'Kiste', 'Blume', 'Trommel', 'Eimer', 'Brille', 'Lampe', 'Schere', 'Tasche', 'Bürste']","['durchsichtig', 'gut', 'schmutzig', 'kurz', 'hohl', 'lang', 'groß', 'sauber', 'teuer', 'kaputt', 'verspielt', 'praktisch', 'strahlend', 'hübsch', 'gestreift', 'niedlich', 'hässlich', 'breit', 'dick', 'flauschig', 'sportlich', 'robust']",2,1.9219676000066102,None,,,,,,,,,,,,,,,,,,,,,,,,,,,,,,,,,,,,,,,,,,,,,,,,,,,,,,,,,,,,,,,,,2,2023-11-23_10h46.57.551,watkins1,2023.2.3,99.77968642425476,11,2023-11-23 10h47.05.365681 +0000,
,,,,,,,22,0,22,0,,,,,,,,,,,,,,,,,211.62965130002704,,,,,,,,,,,,211.62065940001048,212.11165350000374,,,1,1.2775458000833169,,,,,,,,,,,,,,,,,,,,,212.11166380008217,218.11557660007384,Blume,klobig,"['Blume', 'klobig']",test_sub,2,"['Socke', 'Tasse', 'Hut', 'Telefon', 'Hammer', 'Löffel', 'Buch', 'Kerze', 'Uhr', 'Fahrrad', 'Ring', 'Geige', 'Jacke', 'Kette', 'Schlüssel', 'Stift', 'Vase', 'Würfel', 'Kamera', 'Rucksack', 'Flasche', 'Kiste', 'Blume', 'Trommel', 'Eimer', 'Brille', 'Lampe', 'Schere', 'Tasche', 'Bürste']","['durchsichtig', 'gut', 'schmutzig', 'kurz', 'hohl', 'lang', 'groß', 'sauber', 'teuer', 'kaputt', 'verspielt', 'praktisch', 'strahlend', 'hübsch', 'gestreift', 'niedlich', 'hässlich', 'breit', 'dick', 'flauschig', 'sportlich', 'robust', 'klobig']",1,1.2775458000833169,None,,,,,,,,,,,,,,,,,,,,,,,,,,,,,,,,,,,,,,,,,,,,,,,,,,,,,,,,,,,,,,,,,2,2023-11-23_10h46.57.551,watkins1,2023.2.3,99.77968642425476,11,2023-11-23 10h47.05.365681 +0000,
,,,,,,,23,0,23,0,,,,,,,,,,,,,,,,,218.12514650006779,,,,,,,,,,,,218.11611230007838,218.6071135000093,,,2,1.7733308000024408,,,,,,,,,,,,,,,,,,,,,218.6071244000923,224.61724140006118,Trommel,dunkel,"['Trommel', 'dunkel']",restudy,2,"['Socke', 'Tasse', 'Hut', 'Telefon', 'Hammer', 'Löffel', 'Buch', 'Kerze', 'Uhr', 'Fahrrad', 'Ring', 'Geige', 'Jacke', 'Kette', 'Schlüssel', 'Stift', 'Vase', 'Würfel', 'Kamera', 'Rucksack', 'Flasche', 'Kiste', 'Blume', 'Trommel', 'Eimer', 'Brille', 'Lampe', 'Schere', 'Tasche', 'Bürste']","['durchsichtig', 'gut', 'schmutzig', 'kurz', 'hohl', 'lang', 'groß', 'sauber', 'teuer', 'kaputt', 'verspielt', 'praktisch', 'strahlend', 'hübsch', 'gestreift', 'niedlich', 'hässlich', 'breit', 'dick', 'flauschig', 'sportlich', 'robust', 'klobig', 'dunkel']",2,1.7733308000024408,None,,,,,,,,,,,,,,,,,,,,,,,,,,,,,,,,,,,,,,,,,,,,,,,,,,,,,,,,,,,,,,,,,2,2023-11-23_10h46.57.551,watkins1,2023.2.3,99.77968642425476,11,2023-11-23 10h47.05.365681 +0000,
,,,,,,,24,0,24,0,,,,,,,,,,,,,,,,,224.62682160001714,,,,,,,,,,,,224.61777660006192,225.10883580008522,,,2,1.3435959999915212,,,,,,,,,,,,,,,,,,,,,225.10884640004952,231.11872690008022,Eimer,kalt,"['Eimer', 'kalt']",restudy,2,"['Socke', 'Tasse', 'Hut', 'Telefon', 'Hammer', 'Löffel', 'Buch', 'Kerze', 'Uhr', 'Fahrrad', 'Ring', 'Geige', 'Jacke', 'Kette', 'Schlüssel', 'Stift', 'Vase', 'Würfel', 'Kamera', 'Rucksack', 'Flasche', 'Kiste', 'Blume', 'Trommel', 'Eimer', 'Brille', 'Lampe', 'Schere', 'Tasche', 'Bürste']","['durchsichtig', 'gut', 'schmutzig', 'kurz', 'hohl', 'lang', 'groß', 'sauber', 'teuer', 'kaputt', 'verspielt', 'praktisch', 'strahlend', 'hübsch', 'gestreift', 'niedlich', 'hässlich', 'breit', 'dick', 'flauschig', 'sportlich', 'robust', 'klobig', 'dunkel', 'kalt']",2,1.3435959999915212,None,,,,,,,,,,,,,,,,,,,,,,,,,,,,,,,,,,,,,,,,,,,,,,,,,,,,,,,,,,,,,,,,,2,2023-11-23_10h46.57.551,watkins1,2023.2.3,99.77968642425476,11,2023-11-23 10h47.05.365681 +0000,
,,,,,,,25,0,25,0,,,,,,,,,,,,,,,,,231.1281627001008,,,,,,,,,,,,231.11926570010837,231.61025880009402,,,2,1.3708554999902844,,,,,,,,,,,,,,,,,,,,,231.61026980006136,237.61099020007532,Brille,schlicht,"['Brille', 'schlicht']",restudy,2,"['Socke', 'Tasse', 'Hut', 'Telefon', 'Hammer', 'Löffel', 'Buch', 'Kerze', 'Uhr', 'Fahrrad', 'Ring', 'Geige', 'Jacke', 'Kette', 'Schlüssel', 'Stift', 'Vase', 'Würfel', 'Kamera', 'Rucksack', 'Flasche', 'Kiste', 'Blume', 'Trommel', 'Eimer', 'Brille', 'Lampe', 'Schere', 'Tasche', 'Bürste']","['durchsichtig', 'gut', 'schmutzig', 'kurz', 'hohl', 'lang', 'groß', 'sauber', 'teuer', 'kaputt', 'verspielt', 'praktisch', 'strahlend', 'hübsch', 'gestreift', 'niedlich', 'hässlich', 'breit', 'dick', 'flauschig', 'sportlich', 'robust', 'klobig', 'dunkel', 'kalt', 'schlicht']",2,1.3708554999902844,None,,,,,,,,,,,,,,,,,,,,,,,,,,,,,,,,,,,,,,,,,,,,,,,,,,,,,,,,,,,,,,,,,2,2023-11-23_10h46.57.551,watkins1,2023.2.3,99.77968642425476,11,2023-11-23 10h47.05.365681 +0000,
,,,,,,,26,0,26,0,,,,,,,,,,,,,,,,,237.62041570001747,,,,,,,,,,,,237.6115148999961,238.1025123000145,,,1,2.6548604998970404,,,,,,,,,,,,,,,,,,,,,238.10252300009597,244.11126820009667,Lampe,kratzig,"['Lampe', 'kratzig']",test_sub,2,"['Socke', 'Tasse', 'Hut', 'Telefon', 'Hammer', 'Löffel', 'Buch', 'Kerze', 'Uhr', 'Fahrrad', 'Ring', 'Geige', 'Jacke', 'Kette', 'Schlüssel', 'Stift', 'Vase', 'Würfel', 'Kamera', 'Rucksack', 'Flasche', 'Kiste', 'Blume', 'Trommel', 'Eimer', 'Brille', 'Lampe', 'Schere', 'Tasche', 'Bürste']","['durchsichtig', 'gut', 'schmutzig', 'kurz', 'hohl', 'lang', 'groß', 'sauber', 'teuer', 'kaputt', 'verspielt', 'praktisch', 'strahlend', 'hübsch', 'gestreift', 'niedlich', 'hässlich', 'breit', 'dick', 'flauschig', 'sportlich', 'robust', 'klobig', 'dunkel', 'kalt', 'schlicht', 'kratzig']",1,2.6548604998970404,None,,,,,,,,,,,,,,,,,,,,,,,,,,,,,,,,,,,,,,,,,,,,,,,,,,,,,,,,,,,,,,,,,2,2023-11-23_10h46.57.551,watkins1,2023.2.3,99.77968642425476,11,2023-11-23 10h47.05.365681 +0000,
,,,,,,,27,0,27,0,,,,,,,,,,,,,,,,,244.1207005000906,,,,,,,,,,,,244.1118003000738,244.60280940006487,,,1,2.3378455000929534,,,,,,,,,,,,,,,,,,,,,244.60282010002993,250.61013370007277,Schere,schwer,"['Schere', 'schwer']",test_sub,2,"['Socke', 'Tasse', 'Hut', 'Telefon', 'Hammer', 'Löffel', 'Buch', 'Kerze', 'Uhr', 'Fahrrad', 'Ring', 'Geige', 'Jacke', 'Kette', 'Schlüssel', 'Stift', 'Vase', 'Würfel', 'Kamera', 'Rucksack', 'Flasche', 'Kiste', 'Blume', 'Trommel', 'Eimer', 'Brille', 'Lampe', 'Schere', 'Tasche', 'Bürste']","['durchsichtig', 'gut', 'schmutzig', 'kurz', 'hohl', 'lang', 'groß', 'sauber', 'teuer', 'kaputt', 'verspielt', 'praktisch', 'strahlend', 'hübsch', 'gestreift', 'niedlich', 'hässlich', 'breit', 'dick', 'flauschig', 'sportlich', 'robust', 'klobig', 'dunkel', 'kalt', 'schlicht', 'kratzig', 'schwer']",1,2.3378455000929534,None,,,,,,,,,,,,,,,,,,,,,,,,,,,,,,,,,,,,,,,,,,,,,,,,,,,,,,,,,,,,,,,,,2,2023-11-23_10h46.57.551,watkins1,2023.2.3,99.77968642425476,11,2023-11-23 10h47.05.365681 +0000,
,,,,,,,28,0,28,0,,,,,,,,,,,,,,,,,250.61959660006687,,,,,,,,,,,,250.61066280002706,251.10180310008582,,,1,1.6233814000152051,,,,,,,,,,,,,,,,,,,,,251.10181410005316,257.1104316000128,Tasche,zart,"['Tasche', 'zart']",restudy,2,"['Socke', 'Tasse', 'Hut', 'Telefon', 'Hammer', 'Löffel', 'Buch', 'Kerze', 'Uhr', 'Fahrrad', 'Ring', 'Geige', 'Jacke', 'Kette', 'Schlüssel', 'Stift', 'Vase', 'Würfel', 'Kamera', 'Rucksack', 'Flasche', 'Kiste', 'Blume', 'Trommel', 'Eimer', 'Brille', 'Lampe', 'Schere', 'Tasche', 'Bürste']","['durchsichtig', 'gut', 'schmutzig', 'kurz', 'hohl', 'lang', 'groß', 'sauber', 'teuer', 'kaputt', 'verspielt', 'praktisch', 'strahlend', 'hübsch', 'gestreift', 'niedlich', 'hässlich', 'breit', 'dick', 'flauschig', 'sportlich', 'robust', 'klobig', 'dunkel', 'kalt', 'schlicht', 'kratzig', 'schwer', 'zart']",1,1.6233814000152051,None,,,,,,,,,,,,,,,,,,,,,,,,,,,,,,,,,,,,,,,,,,,,,,,,,,,,,,,,,,,,,,,,,2,2023-11-23_10h46.57.551,watkins1,2023.2.3,99.77968642425476,11,2023-11-23 10h47.05.365681 +0000,
,,,,,,,29,0,29,0,,,,,,,,,,,,,,,,,257.1200045000296,,,,,,,,,,,,257.11096060008276,257.60203020006884,,,1,3.8434542999602854,,,,,,,,,,,,,,,,,,,,,257.60204080003314,263.60472530010156,Bürste,rustikal,"['Bürste', 'rustikal']",restudy,2,"['Socke', 'Tasse', 'Hut', 'Telefon', 'Hammer', 'Löffel', 'Buch', 'Kerze', 'Uhr', 'Fahrrad', 'Ring', 'Geige', 'Jacke', 'Kette', 'Schlüssel', 'Stift', 'Vase', 'Würfel', 'Kamera', 'Rucksack', 'Flasche', 'Kiste', 'Blume', 'Trommel', 'Eimer', 'Brille', 'Lampe', 'Schere', 'Tasche', 'Bürste']","['durchsichtig', 'gut', 'schmutzig', 'kurz', 'hohl', 'lang', 'groß', 'sauber', 'teuer', 'kaputt', 'verspielt', 'praktisch', 'strahlend', 'hübsch', 'gestreift', 'niedlich', 'hässlich', 'breit', 'dick', 'flauschig', 'sportlich', 'robust', 'klobig', 'dunkel', 'kalt', 'schlicht', 'kratzig', 'schwer', 'zart', 'rustikal']",1,3.8434542999602854,None,,,,,,,,,,,,,,,,,,,,,,,,,,,,,,,,,,,,,,,,,,,,,,,,,,,,,,,,,,,,,,,,,2,2023-11-23_10h46.57.551,watkins1,2023.2.3,99.77968642425476,11,2023-11-23 10h47.05.365681 +0000,
,,,,,,,,,,,0,0,0,0,,,,,,,,,,,,,263.61419490003027,,,,,,,,,,,,263.60557320003863,264.0962446000194,,,[],[],,,,,,,,,,,,2.100455000065267,None,,,,,flasche,,,,,Flasche,sportlich,"['Flasche', 'sportlich']",test_sub,2,,,,,,263.6054982000496,263.60554630006664,"['Flasche', 'Bürste', 'Jacke', 'Kamera', 'Vase', 'Schere', 'Eimer', 'Stift', 'Löffel', 'Hut', 'Uhr', 'Blume', 'Brille', 'Schlüssel', 'Kerze', 'Würfel', 'Kiste', 'Fahrrad', 'Rucksack', 'Tasche', 'Tasse', 'Telefon', 'Socke', 'Lampe', 'Geige', 'Hammer', 'Kette', 'Ring', 'Trommel', 'Buch']",264.0962553001009,264.09911120007746,None,264.09929050004575,264.1018883000361,None,264.1020450000651,264.104751600069,None,264.1049100999953,264.10612890007906,264.1061417000601,0,270.11310620000586,,,,,,,,,,,,,,,,,,,,,,,,,,,,,,,,,,,,,,,,,,,,,,,,2,2023-11-23_10h46.57.551,watkins1,2023.2.3,99.77968642425476,11,2023-11-23 10h47.05.365681 +0000,
,,,,,,,,,,,1,0,1,0,,,,,,,,,,,,,270.12285919999704,,,,,,,,,,,,270.1133865000447,270.6051508000819,,,[],[],,,,,,,,,,,,None,None,,,,,,,,,,Bürste,rustikal,"['Bürste', 'rustikal']",restudy,2,,,,,,270.1133187999949,270.11335570004303,"['Flasche', 'Bürste', 'Jacke', 'Kamera', 'Vase', 'Schere', 'Eimer', 'Stift', 'Löffel', 'Hut', 'Uhr', 'Blume', 'Brille', 'Schlüssel', 'Kerze', 'Würfel', 'Kiste', 'Fahrrad', 'Rucksack', 'Tasche', 'Tasse', 'Telefon', 'Socke', 'Lampe', 'Geige', 'Hammer', 'Kette', 'Ring', 'Trommel', 'Buch']",270.60516210005153,270.6079398000147,None,270.6080679000588,276.61365910002496,1,276.614038300002,276.6157542000292,None,276.6158670000732,276.61707670008764,276.6170884000603,,276.6186292000348,2.997714899946004,None,,,,,,,,,,,,,,,,,,,,,,,,,,,,,,,,,,,,,,,,,,,,,,2,2023-11-23_10h46.57.551,watkins1,2023.2.3,99.77968642425476,11,2023-11-23 10h47.05.365681 +0000,
,,,,,,,,,,,2,0,2,0,,,,,,,,,,,,,276.62309540004935,,,,,,,,,,,,276.61892030003946,277.11526039999444,,,[],[],,,,,,,,,,,,None,None,,,,,,,,,,Jacke,strahlend,"['Jacke', 'strahlend']",restudy,2,,,,,,276.618853699998,276.6188922000583,"['Flasche', 'Bürste', 'Jacke', 'Kamera', 'Vase', 'Schere', 'Eimer', 'Stift', 'Löffel', 'Hut', 'Uhr', 'Blume', 'Brille', 'Schlüssel', 'Kerze', 'Würfel', 'Kiste', 'Fahrrad', 'Rucksack', 'Tasche', 'Tasse', 'Telefon', 'Socke', 'Lampe', 'Geige', 'Hammer', 'Kette', 'Ring', 'Trommel', 'Buch']",277.1152712000767,277.1179715000326,None,277.11809340002947,283.1211251000641,1,283.12143000005744,283.1243199000601,None,283.1244347000029,283.1256033000536,283.1256150000263,,283.12686170008965,3.383173800073564,None,,,,,,,,,,,,,,,,,,,,,,,,,,,,,,,,,,,,,,,,,,,,,,2,2023-11-23_10h46.57.551,watkins1,2023.2.3,99.77968642425476,11,2023-11-23 10h47.05.365681 +0000,
,,,,,,,,,,,3,0,3,0,,,,,,,,,,,,,283.1305946999928,,,,,,,,,,,,283.12714840006083,283.62260560004506,,,[],[],,,,,,,,,,,,2.4183234000811353,None,,,,,kamera,,,,,Kamera,dick,"['Kamera', 'dick']",test_sub,2,,,,,,283.1270830000285,283.12712150008883,"['Flasche', 'Bürste', 'Jacke', 'Kamera', 'Vase', 'Schere', 'Eimer', 'Stift', 'Löffel', 'Hut', 'Uhr', 'Blume', 'Brille', 'Schlüssel', 'Kerze', 'Würfel', 'Kiste', 'Fahrrad', 'Rucksack', 'Tasche', 'Tasse', 'Telefon', 'Socke', 'Lampe', 'Geige', 'Hammer', 'Kette', 'Ring', 'Trommel', 'Buch']",283.62261650001165,283.62539390008897,None,283.62552020000294,283.6269637000514,None,283.62707410007715,283.62855870008934,None,283.628669800004,283.629899200052,283.6299120000331,0,289.6332246999955,,,,,,,,,,,,,,,,,,,,,,,,,,,,,,,,,,,,,,,,,,,,,,,,2,2023-11-23_10h46.57.551,watkins1,2023.2.3,99.77968642425476,11,2023-11-23 10h47.05.365681 +0000,
,,,,,,,,,,,4,0,4,0,,,,,,,,,,,,,289.64302790001966,,,,,,,,,,,,289.6335088000633,290.1251676999964,,,[],[],,,,,,,,,,,,2.992690999992192,None,,,,,vase,,,,,Vase,hässlich,"['Vase', 'hässlich']",test_sub,2,,,,,,289.6334382001078,289.6334757000441,"['Flasche', 'Bürste', 'Jacke', 'Kamera', 'Vase', 'Schere', 'Eimer', 'Stift', 'Löffel', 'Hut', 'Uhr', 'Blume', 'Brille', 'Schlüssel', 'Kerze', 'Würfel', 'Kiste', 'Fahrrad', 'Rucksack', 'Tasche', 'Tasse', 'Telefon', 'Socke', 'Lampe', 'Geige', 'Hammer', 'Kette', 'Ring', 'Trommel', 'Buch']",290.1251816001022,290.12761180009693,None,290.1277350001037,290.1299867000198,None,290.1300964000402,290.1323631000705,None,290.1324723000871,290.1335096000694,290.13352230004966,0,296.13894220010843,,,,,,,,,,,,,,,,,,,,,,,,,,,,,,,,,,,,,,,,,,,,,,,,2,2023-11-23_10h46.57.551,watkins1,2023.2.3,99.77968642425476,11,2023-11-23 10h47.05.365681 +0000,
,,,,,,,,,,,5,0,5,0,,,,,,,,,,,,,296.14874710002914,,,,,,,,,,,,296.1392289000796,296.63075090001803,,,[],[],,,,,,,,,,,,None,None,,,,,,,,,,Schere,schwer,"['Schere', 'schwer']",test_sub,2,,,,,,296.1391614000313,296.1391997000901,"['Flasche', 'Bürste', 'Jacke', 'Kamera', 'Vase', 'Schere', 'Eimer', 'Stift', 'Löffel', 'Hut', 'Uhr', 'Blume', 'Brille', 'Schlüssel', 'Kerze', 'Würfel', 'Kiste', 'Fahrrad', 'Rucksack', 'Tasche', 'Tasse', 'Telefon', 'Socke', 'Lampe', 'Geige', 'Hammer', 'Kette', 'Ring', 'Trommel', 'Buch']",296.6307622001041,296.63352230004966,None,296.63364650006406,296.63621620007325,None,296.63632670009974,296.63890020002145,None,296.6390087000327,296.6401947000995,296.6402072000783,0,302.6463695000857,,,,,,,,,,,,,,,,,,,,,,,,,,,,,,,,,,,,,,,,,,,,,,,,2,2023-11-23_10h46.57.551,watkins1,2023.2.3,99.77968642425476,11,2023-11-23 10h47.05.365681 +0000,
,,,,,,,,,,,6,0,6,0,,,,,,,,,,,,,302.65616760007106,,,,,,,,,,,,302.646650700015,303.1382336000679,,,[],[],,,,,,,,,,,,None,None,,,,,,,,,,Eimer,kalt,"['Eimer', 'kalt']",restudy,2,,,,,,302.64658310008235,302.64662160002626,"['Flasche', 'Bürste', 'Jacke', 'Kamera', 'Vase', 'Schere', 'Eimer', 'Stift', 'Löffel', 'Hut', 'Uhr', 'Blume', 'Brille', 'Schlüssel', 'Kerze', 'Würfel', 'Kiste', 'Fahrrad', 'Rucksack', 'Tasche', 'Tasse', 'Telefon', 'Socke', 'Lampe', 'Geige', 'Hammer', 'Kette', 'Ring', 'Trommel', 'Buch']",303.13824460003525,303.1409347000299,None,303.1410594000481,309.150454100105,2,309.1507555000717,309.15331800002605,None,309.15343260008376,309.15460910007823,309.1546211000532,,309.15566780010704,2.6724197000730783,None,,,,,,,,,,,,,,,,,,,,,,,,,,,,,,,,,,,,,,,,,,,,,,2,2023-11-23_10h46.57.551,watkins1,2023.2.3,99.77968642425476,11,2023-11-23 10h47.05.365681 +0000,
,,,,,,,,,,,7,0,7,0,,,,,,,,,,,,,309.1599317000946,,,,,,,,,,,,309.1559519000584,309.6520090000704,,,[],[],,,,,,,,,,,,None,None,,,,,,,,,,Stift,niedlich,"['Stift', 'niedlich']",restudy,2,,,,,,309.15588580002077,309.15592440008186,"['Flasche', 'Bürste', 'Jacke', 'Kamera', 'Vase', 'Schere', 'Eimer', 'Stift', 'Löffel', 'Hut', 'Uhr', 'Blume', 'Brille', 'Schlüssel', 'Kerze', 'Würfel', 'Kiste', 'Fahrrad', 'Rucksack', 'Tasche', 'Tasse', 'Telefon', 'Socke', 'Lampe', 'Geige', 'Hammer', 'Kette', 'Ring', 'Trommel', 'Buch']",309.65202050004154,309.65457000001334,None,309.6547020000871,315.65790130000096,1,315.6582008000696,315.66093720006756,None,315.6610481000971,315.662190400064,315.66220240003895,,315.663408500026,1.2464843000052497,None,,,,,,,,,,,,,,,,,,,,,,,,,,,,,,,,,,,,,,,,,,,,,,2,2023-11-23_10h46.57.551,watkins1,2023.2.3,99.77968642425476,11,2023-11-23 10h47.05.365681 +0000,
,,,,,,,,,,,8,0,8,0,,,,,,,,,,,,,315.6673693000339,,,,,,,,,,,,315.66369270009454,316.1594663000433,,,[],[],,,,,,,,,,,,None,None,,,,,,,,,,Löffel,lang,"['Löffel', 'lang']",restudy,2,,,,,,315.66362690005917,315.66366570000537,"['Flasche', 'Bürste', 'Jacke', 'Kamera', 'Vase', 'Schere', 'Eimer', 'Stift', 'Löffel', 'Hut', 'Uhr', 'Blume', 'Brille', 'Schlüssel', 'Kerze', 'Würfel', 'Kiste', 'Fahrrad', 'Rucksack', 'Tasche', 'Tasse', 'Telefon', 'Socke', 'Lampe', 'Geige', 'Hammer', 'Kette', 'Ring', 'Trommel', 'Buch']",316.1594773000106,316.1623299000785,None,316.16245130007155,322.17165580007713,1,322.17196240008343,322.1745399000356,None,322.174654200091,322.17584790010005,322.17585950007197,,322.176907200017,1.8910606999415904,None,,,,,,,,,,,,,,,,,,,,,,,,,,,,,,,,,,,,,,,,,,,,,,2,2023-11-23_10h46.57.551,watkins1,2023.2.3,99.77968642425476,11,2023-11-23 10h47.05.365681 +0000,
,,,,,,,,,,,9,0,9,0,,,,,,,,,,,,,322.1811217000941,,,,,,,,,,,,322.17719070008025,322.6732095000334,,,[],[],,,,,,,,,,,,2.180323100066744,None,,,,,hut,,,,,Hut,schmutzig,"['Hut', 'schmutzig']",test_sub,2,,,,,,322.1771254000487,322.17716380010825,"['Flasche', 'Bürste', 'Jacke', 'Kamera', 'Vase', 'Schere', 'Eimer', 'Stift', 'Löffel', 'Hut', 'Uhr', 'Blume', 'Brille', 'Schlüssel', 'Kerze', 'Würfel', 'Kiste', 'Fahrrad', 'Rucksack', 'Tasche', 'Tasse', 'Telefon', 'Socke', 'Lampe', 'Geige', 'Hammer', 'Kette', 'Ring', 'Trommel', 'Buch']",322.6732217000099,322.67563500010874,None,322.6757603000151,322.67704400001094,None,322.6771540000336,322.67858669999987,None,322.67869490000885,322.679710800061,322.6797235000413,0,328.68602460005786,,,,,,,,,,,,,,,,,,,,,,,,,,,,,,,,,,,,,,,,,,,,,,,,2,2023-11-23_10h46.57.551,watkins1,2023.2.3,99.77968642425476,11,2023-11-23 10h47.05.365681 +0000,
,,,,,,,,,,,10,0,10,0,,,,,,,,,,,,,328.69578609999735,,,,,,,,,,,,328.68630560010206,329.17785269999877,,,[],[],,,,,,,,,,,,None,None,,,,,,,,,,Uhr,teuer,"['Uhr', 'teuer']",restudy,2,,,,,,328.686240500072,328.68627710000146,"['Flasche', 'Bürste', 'Jacke', 'Kamera', 'Vase', 'Schere', 'Eimer', 'Stift', 'Löffel', 'Hut', 'Uhr', 'Blume', 'Brille', 'Schlüssel', 'Kerze', 'Würfel', 'Kiste', 'Fahrrad', 'Rucksack', 'Tasche', 'Tasse', 'Telefon', 'Socke', 'Lampe', 'Geige', 'Hammer', 'Kette', 'Ring', 'Trommel', 'Buch']",329.1778633000795,329.1805069000693,None,329.18062990007456,335.1850228999974,2,335.1853218000615,335.1881461000303,None,335.18825870007277,335.1892911000177,335.18930300010834,,335.1907647000626,1.8087961999699473,None,,,,,,,,,,,,,,,,,,,,,,,,,,,,,,,,,,,,,,,,,,,,,,2,2023-11-23_10h46.57.551,watkins1,2023.2.3,99.77968642425476,11,2023-11-23 10h47.05.365681 +0000,
,,,,,,,,,,,11,0,11,0,,,,,,,,,,,,,335.1944546001032,,,,,,,,,,,,335.19104810000863,335.6865459000692,,,[],[],,,,,,,,,,,,None,None,,,,,,,,,,Blume,klobig,"['Blume', 'klobig']",test_sub,2,,,,,,335.1909820000874,335.1910208000336,"['Flasche', 'Bürste', 'Jacke', 'Kamera', 'Vase', 'Schere', 'Eimer', 'Stift', 'Löffel', 'Hut', 'Uhr', 'Blume', 'Brille', 'Schlüssel', 'Kerze', 'Würfel', 'Kiste', 'Fahrrad', 'Rucksack', 'Tasche', 'Tasse', 'Telefon', 'Socke', 'Lampe', 'Geige', 'Hammer', 'Kette', 'Ring', 'Trommel', 'Buch']",335.68655680003576,335.6892198000569,None,335.6893440000713,335.69075960002374,None,335.69087010005023,335.6922813000856,None,335.69238880008925,335.6935418000212,335.6935545000015,0,341.69663110002875,,,,,,,,,,,,,,,,,,,,,,,,,,,,,,,,,,,,,,,,,,,,,,,,2,2023-11-23_10h46.57.551,watkins1,2023.2.3,99.77968642425476,11,2023-11-23 10h47.05.365681 +0000,
,,,,,,,,,,,12,0,12,0,,,,,,,,,,,,,341.70642240007874,,,,,,,,,,,,341.696920700022,342.1883952000644,,,[],[],,,,,,,,,,,,None,None,,,,,,,,,,Brille,schlicht,"['Brille', 'schlicht']",restudy,2,,,,,,341.6968550001038,341.6968915000325,"['Flasche', 'Bürste', 'Jacke', 'Kamera', 'Vase', 'Schere', 'Eimer', 'Stift', 'Löffel', 'Hut', 'Uhr', 'Blume', 'Brille', 'Schlüssel', 'Kerze', 'Würfel', 'Kiste', 'Fahrrad', 'Rucksack', 'Tasche', 'Tasse', 'Telefon', 'Socke', 'Lampe', 'Geige', 'Hammer', 'Kette', 'Ring', 'Trommel', 'Buch']",342.18840620003175,342.1912153000012,None,342.1913529000012,348.1935185000766,2,348.19381359999534,348.1967035999987,None,348.19682569999713,348.19807690009475,348.198089200072,,348.19948589999694,1.6299361999845132,None,,,,,,,,,,,,,,,,,,,,,,,,,,,,,,,,,,,,,,,,,,,,,,2,2023-11-23_10h46.57.551,watkins1,2023.2.3,99.77968642425476,11,2023-11-23 10h47.05.365681 +0000,
,,,,,,,,,,,13,0,13,0,,,,,,,,,,,,,348.2029870999977,,,,,,,,,,,,348.19977160007693,348.69504440005403,,,[],[],,,,,,,,,,,,None,None,,,,,,,,,,Schlüssel,gestreift,"['Schlüssel', 'gestreift']",test_sub,2,,,,,,348.1997059000423,348.1997440000996,"['Flasche', 'Bürste', 'Jacke', 'Kamera', 'Vase', 'Schere', 'Eimer', 'Stift', 'Löffel', 'Hut', 'Uhr', 'Blume', 'Brille', 'Schlüssel', 'Kerze', 'Würfel', 'Kiste', 'Fahrrad', 'Rucksack', 'Tasche', 'Tasse', 'Telefon', 'Socke', 'Lampe', 'Geige', 'Hammer', 'Kette', 'Ring', 'Trommel', 'Buch']",348.6950561000267,348.6978837000206,None,348.69801170006394,348.6995020000031,None,348.69961160002276,348.7011331000831,None,348.70124210009817,348.70249000005424,348.7025031000376,0,354.7064589000074,,,,,,,,,,,,,,,,,,,,,,,,,,,,,,,,,,,,,,,,,,,,,,,,2,2023-11-23_10h46.57.551,watkins1,2023.2.3,99.77968642425476,11,2023-11-23 10h47.05.365681 +0000,
,,,,,,,,,,,14,0,14,0,,,,,,,,,,,,,354.71626270003617,,,,,,,,,,,,354.7067381000379,355.198364400072,,,[],[],,,,,,,,,,,,None,None,,,,,,,,,,Kerze,sauber,"['Kerze', 'sauber']",restudy,2,,,,,,354.7066732000094,354.70670950005297,"['Flasche', 'Bürste', 'Jacke', 'Kamera', 'Vase', 'Schere', 'Eimer', 'Stift', 'Löffel', 'Hut', 'Uhr', 'Blume', 'Brille', 'Schlüssel', 'Kerze', 'Würfel', 'Kiste', 'Fahrrad', 'Rucksack', 'Tasche', 'Tasse', 'Telefon', 'Socke', 'Lampe', 'Geige', 'Hammer', 'Kette', 'Ring', 'Trommel', 'Buch']",355.19837620004546,355.20157380006276,None,355.2016999000916,361.20718270004727,1,361.207481999998,361.21021430008113,None,361.2103303000331,361.2115135000786,361.2115258000558,,361.2128470001044,2.3235310999443755,None,,,,,,,,,,,,,,,,,,,,,,,,,,,,,,,,,,,,,,,,,,,,,,2,2023-11-23_10h46.57.551,watkins1,2023.2.3,99.77968642425476,11,2023-11-23 10h47.05.365681 +0000,
,,,,,,,,,,,15,0,15,0,,,,,,,,,,,,,361.21661690005567,,,,,,,,,,,,361.2131401000079,361.70871230005287,,,[],[],,,,,,,,,,,,None,None,,,,,,,,,,Würfel,breit,"['Würfel', 'breit']",test_sub,2,,,,,,361.2130725000752,361.2131126000313,"['Flasche', 'Bürste', 'Jacke', 'Kamera', 'Vase', 'Schere', 'Eimer', 'Stift', 'Löffel', 'Hut', 'Uhr', 'Blume', 'Brille', 'Schlüssel', 'Kerze', 'Würfel', 'Kiste', 'Fahrrad', 'Rucksack', 'Tasche', 'Tasse', 'Telefon', 'Socke', 'Lampe', 'Geige', 'Hammer', 'Kette', 'Ring', 'Trommel', 'Buch']",361.708723800024,361.7114435000112,None,361.7115673000226,361.71300310001243,None,361.7131152000511,361.7145473000128,None,361.7146569000324,361.71583580004517,361.71584880002774,0,367.71914140006993,,,,,,,,,,,,,,,,,,,,,,,,,,,,,,,,,,,,,,,,,,,,,,,,2,2023-11-23_10h46.57.551,watkins1,2023.2.3,99.77968642425476,11,2023-11-23 10h47.05.365681 +0000,
,,,,,,,,,,,16,0,16,0,,,,,,,,,,,,,367.7289433000842,,,,,,,,,,,,367.7194211001042,368.2107616000576,,,[],[],,,,,,,,,,,,None,None,,,,,,,,,,Kiste,robust,"['Kiste', 'robust']",test_sub,2,,,,,,367.71935530006886,367.71939119999297,"['Flasche', 'Bürste', 'Jacke', 'Kamera', 'Vase', 'Schere', 'Eimer', 'Stift', 'Löffel', 'Hut', 'Uhr', 'Blume', 'Brille', 'Schlüssel', 'Kerze', 'Würfel', 'Kiste', 'Fahrrad', 'Rucksack', 'Tasche', 'Tasse', 'Telefon', 'Socke', 'Lampe', 'Geige', 'Hammer', 'Kette', 'Ring', 'Trommel', 'Buch']",368.21077390003484,368.2136011000257,None,368.2137230000226,368.216240900103,None,368.2163553000428,368.21888600010425,None,368.2189953000052,368.22017109999433,368.22018380009104,0,374.2260948000476,,,,,,,,,,,,,,,,,,,,,,,,,,,,,,,,,,,,,,,,,,,,,,,,2,2023-11-23_10h46.57.551,watkins1,2023.2.3,99.77968642425476,11,2023-11-23 10h47.05.365681 +0000,
,,,,,,,,,,,17,0,17,0,,,,,,,,,,,,,374.23590840003453,,,,,,,,,,,,374.22637720010243,374.71805000002496,,,[],[],,,,,,,,,,,,None,None,,,,,,,,,,Fahrrad,kaputt,"['Fahrrad', 'kaputt']",test_sub,2,,,,,,374.22631040005945,374.22634740010835,"['Flasche', 'Bürste', 'Jacke', 'Kamera', 'Vase', 'Schere', 'Eimer', 'Stift', 'Löffel', 'Hut', 'Uhr', 'Blume', 'Brille', 'Schlüssel', 'Kerze', 'Würfel', 'Kiste', 'Fahrrad', 'Rucksack', 'Tasche', 'Tasse', 'Telefon', 'Socke', 'Lampe', 'Geige', 'Hammer', 'Kette', 'Ring', 'Trommel', 'Buch']",374.7180621000007,374.72085949999746,None,374.7209851000225,374.7235708000371,None,374.723682400072,374.726610600017,None,374.726720900042,374.72803090000525,374.7280438001035,0,380.7343136999989,,,,,,,,,,,,,,,,,,,,,,,,,,,,,,,,,,,,,,,,,,,,,,,,2,2023-11-23_10h46.57.551,watkins1,2023.2.3,99.77968642425476,11,2023-11-23 10h47.05.365681 +0000,
,,,,,,,,,,,18,0,18,0,,,,,,,,,,,,,380.7441252000863,,,,,,,,,,,,380.7345955000492,381.2261165000964,,,[],[],,,,,,,,,,,,1.5975993999745697,None,,,,,jacke,,,,,Rucksack,flauschig,"['Rucksack', 'flauschig']",test_sub,2,,,,,,380.73452910000924,380.7345659000566,"['Flasche', 'Bürste', 'Jacke', 'Kamera', 'Vase', 'Schere', 'Eimer', 'Stift', 'Löffel', 'Hut', 'Uhr', 'Blume', 'Brille', 'Schlüssel', 'Kerze', 'Würfel', 'Kiste', 'Fahrrad', 'Rucksack', 'Tasche', 'Tasse', 'Telefon', 'Socke', 'Lampe', 'Geige', 'Hammer', 'Kette', 'Ring', 'Trommel', 'Buch']",381.22612690005917,381.22902830003295,None,381.229151400039,381.2316902000457,None,381.23179880005773,381.2343538000714,None,381.23446130007505,381.2356587999966,381.23567140009254,0,387.242887700093,,,,,,,,,,,,,,,,,,,,,,,,,,,,,,,,,,,,,,,,,,,,,,,,2,2023-11-23_10h46.57.551,watkins1,2023.2.3,99.77968642425476,11,2023-11-23 10h47.05.365681 +0000,
,,,,,,,,,,,19,0,19,0,,,,,,,,,,,,,387.2526810000418,,,,,,,,,,,,387.24316740001086,387.73492060007993,,,[],[],,,,,,,,,,,,None,None,,,,,,,,,,Tasche,zart,"['Tasche', 'zart']",restudy,2,,,,,,387.2431013000896,387.2431386000244,"['Flasche', 'Bürste', 'Jacke', 'Kamera', 'Vase', 'Schere', 'Eimer', 'Stift', 'Löffel', 'Hut', 'Uhr', 'Blume', 'Brille', 'Schlüssel', 'Kerze', 'Würfel', 'Kiste', 'Fahrrad', 'Rucksack', 'Tasche', 'Tasse', 'Telefon', 'Socke', 'Lampe', 'Geige', 'Hammer', 'Kette', 'Ring', 'Trommel', 'Buch']",387.73493190004956,387.7377108000219,None,387.73783430003095,393.73890850006137,1,393.73920480010565,393.74178390007,None,393.7418969999999,393.7430814000545,393.74309320002794,,393.74444300006144,4.267587900045328,None,,,,,,,,,,,,,,,,,,,,,,,,,,,,,,,,,,,,,,,,,,,,,,2,2023-11-23_10h46.57.551,watkins1,2023.2.3,99.77968642425476,11,2023-11-23 10h47.05.365681 +0000,
,,,,,,,,,,,20,0,20,0,,,,,,,,,,,,,393.7483824000228,,,,,,,,,,,,393.7447331000585,394.24047130008694,,,[],[],,,,,,,,,,,,None,None,,,,,,,,,,Tasse,gut,"['Tasse', 'gut']",restudy,2,,,,,,393.74466780002695,393.744706000085,"['Flasche', 'Bürste', 'Jacke', 'Kamera', 'Vase', 'Schere', 'Eimer', 'Stift', 'Löffel', 'Hut', 'Uhr', 'Blume', 'Brille', 'Schlüssel', 'Kerze', 'Würfel', 'Kiste', 'Fahrrad', 'Rucksack', 'Tasche', 'Tasse', 'Telefon', 'Socke', 'Lampe', 'Geige', 'Hammer', 'Kette', 'Ring', 'Trommel', 'Buch']",394.2404827000573,394.2430574001046,None,394.24318190000486,400.2508955000667,2,400.2511912001064,400.25372370006517,None,400.2538364001084,400.2550045000389,400.25501630001236,,400.25604630005546,1.594236999982968,None,,,,,,,,,,,,,,,,,,,,,,,,,,,,,,,,,,,,,,,,,,,,,,2,2023-11-23_10h46.57.551,watkins1,2023.2.3,99.77968642425476,11,2023-11-23 10h47.05.365681 +0000,
,,,,,,,,,,,21,0,21,0,,,,,,,,,,,,,400.2604860001011,,,,,,,,,,,,400.25633350003045,400.75330149999354,,,[],[],,,,,,,,,,,,None,None,,,,,,,,,,Telefon,kurz,"['Telefon', 'kurz']",test_sub,2,,,,,,400.25626779999584,400.2563062000554,"['Flasche', 'Bürste', 'Jacke', 'Kamera', 'Vase', 'Schere', 'Eimer', 'Stift', 'Löffel', 'Hut', 'Uhr', 'Blume', 'Brille', 'Schlüssel', 'Kerze', 'Würfel', 'Kiste', 'Fahrrad', 'Rucksack', 'Tasche', 'Tasse', 'Telefon', 'Socke', 'Lampe', 'Geige', 'Hammer', 'Kette', 'Ring', 'Trommel', 'Buch']",400.75331340008415,400.7558933000546,None,400.7560193000827,400.7574629000155,None,400.75757070002146,400.7590123000555,None,400.75912030006293,400.760693200049,400.7607063000323,0,406.76528829999734,,,,,,,,,,,,,,,,,,,,,,,,,,,,,,,,,,,,,,,,,,,,,,,,2,2023-11-23_10h46.57.551,watkins1,2023.2.3,99.77968642425476,11,2023-11-23 10h47.05.365681 +0000,
,,,,,,,,,,,22,0,22,0,,,,,,,,,,,,,406.77499639999587,,,,,,,,,,,,406.7655631999951,407.2573289000429,,,[],[],,,,,,,,,,,,None,None,,,,,,,,,,Socke,durchsichtig,"['Socke', 'durchsichtig']",restudy,2,,,,,,406.7654988000868,406.7655344000086,"['Flasche', 'Bürste', 'Jacke', 'Kamera', 'Vase', 'Schere', 'Eimer', 'Stift', 'Löffel', 'Hut', 'Uhr', 'Blume', 'Brille', 'Schlüssel', 'Kerze', 'Würfel', 'Kiste', 'Fahrrad', 'Rucksack', 'Tasche', 'Tasse', 'Telefon', 'Socke', 'Lampe', 'Geige', 'Hammer', 'Kette', 'Ring', 'Trommel', 'Buch']",407.2573391000042,407.2599638000829,None,407.26008320006076,413.2640147000784,1,413.2643058000831,413.2670390000567,None,413.2671505000908,413.2682826000964,413.26829440006986,,413.2696844000602,1.7849394000368193,None,,,,,,,,,,,,,,,,,,,,,,,,,,,,,,,,,,,,,,,,,,,,,,2,2023-11-23_10h46.57.551,watkins1,2023.2.3,99.77968642425476,11,2023-11-23 10h47.05.365681 +0000,
,,,,,,,,,,,23,0,23,0,,,,,,,,,,,,,413.273412700044,,,,,,,,,,,,413.2699657001067,413.7657112000743,,,[],[],,,,,,,,,,,,None,None,,,,,,,,,,Lampe,kratzig,"['Lampe', 'kratzig']",test_sub,2,,,,,,413.26990190008655,413.26993910002057,"['Flasche', 'Bürste', 'Jacke', 'Kamera', 'Vase', 'Schere', 'Eimer', 'Stift', 'Löffel', 'Hut', 'Uhr', 'Blume', 'Brille', 'Schlüssel', 'Kerze', 'Würfel', 'Kiste', 'Fahrrad', 'Rucksack', 'Tasche', 'Tasse', 'Telefon', 'Socke', 'Lampe', 'Geige', 'Hammer', 'Kette', 'Ring', 'Trommel', 'Buch']",413.7657225000439,413.7684672001051,None,413.76858970010653,413.76997720007785,None,413.77008610009216,413.7714771000901,None,413.7715835000854,413.7727323001018,413.77274480008055,0,419.77852650010027,,,,,,,,,,,,,,,,,,,,,,,,,,,,,,,,,,,,,,,,,,,,,,,,2,2023-11-23_10h46.57.551,watkins1,2023.2.3,99.77968642425476,11,2023-11-23 10h47.05.365681 +0000,
,,,,,,,,,,,24,0,24,0,,,,,,,,,,,,,419.7882545000175,,,,,,,,,,,,419.7788051000098,420.27070550003555,,,[],[],,,,,,,,,,,,None,None,,,,,,,,,,Geige,praktisch,"['Geige', 'praktisch']",restudy,2,,,,,,419.77873840008397,419.77877440000884,"['Flasche', 'Bürste', 'Jacke', 'Kamera', 'Vase', 'Schere', 'Eimer', 'Stift', 'Löffel', 'Hut', 'Uhr', 'Blume', 'Brille', 'Schlüssel', 'Kerze', 'Würfel', 'Kiste', 'Fahrrad', 'Rucksack', 'Tasche', 'Tasse', 'Telefon', 'Socke', 'Lampe', 'Geige', 'Hammer', 'Kette', 'Ring', 'Trommel', 'Buch']",420.27071660000365,420.2738440000685,None,420.27396730007604,426.2786558000371,1,426.278944300022,426.28161080006976,None,426.28172130009625,426.2828518000897,426.2828634000616,,426.28415429999586,2.163146200007759,None,,,,,,,,,,,,,,,,,,,,,,,,,,,,,,,,,,,,,,,,,,,,,,2,2023-11-23_10h46.57.551,watkins1,2023.2.3,99.77968642425476,11,2023-11-23 10h47.05.365681 +0000,
,,,,,,,,,,,25,0,25,0,,,,,,,,,,,,,426.28763470007107,,,,,,,,,,,,426.284439100069,426.7797152000712,,,[],[],,,,,,,,,,,,None,None,,,,,,,,,,Hammer,hohl,"['Hammer', 'hohl']",test_sub,2,,,,,,426.28437530004885,426.28441260010004,"['Flasche', 'Bürste', 'Jacke', 'Kamera', 'Vase', 'Schere', 'Eimer', 'Stift', 'Löffel', 'Hut', 'Uhr', 'Blume', 'Brille', 'Schlüssel', 'Kerze', 'Würfel', 'Kiste', 'Fahrrad', 'Rucksack', 'Tasche', 'Tasse', 'Telefon', 'Socke', 'Lampe', 'Geige', 'Hammer', 'Kette', 'Ring', 'Trommel', 'Buch']",426.77972630003933,426.78248250007164,None,426.78260540007614,426.78403400001116,None,426.78414400003385,426.7855798000237,None,426.78568910004105,426.7868571000872,426.78686990006827,0,432.7903698000591,,,,,,,,,,,,,,,,,,,,,,,,,,,,,,,,,,,,,,,,,,,,,,,,2,2023-11-23_10h46.57.551,watkins1,2023.2.3,99.77968642425476,11,2023-11-23 10h47.05.365681 +0000,
,,,,,,,,,,,26,0,26,0,,,,,,,,,,,,,432.8001743000932,,,,,,,,,,,,432.7906485000858,433.2822691000765,,,[],[],,,,,,,,,,,,None,None,,,,,,,,,,Kette,hübsch,"['Kette', 'hübsch']",restudy,2,,,,,,432.79058320005424,432.79061970009934,"['Flasche', 'Bürste', 'Jacke', 'Kamera', 'Vase', 'Schere', 'Eimer', 'Stift', 'Löffel', 'Hut', 'Uhr', 'Blume', 'Brille', 'Schlüssel', 'Kerze', 'Würfel', 'Kiste', 'Fahrrad', 'Rucksack', 'Tasche', 'Tasse', 'Telefon', 'Socke', 'Lampe', 'Geige', 'Hammer', 'Kette', 'Ring', 'Trommel', 'Buch']",433.28227990004234,433.2847933000885,None,433.28491680009756,439.2860108000459,3,439.2863095999928,439.28897600003984,None,439.28908830008004,439.29024740005843,439.2902591000311,,439.29142020002473,1.5122534000547603,None,,,,,,,,,,,,,,,,,,,,,,,,,,,,,,,,,,,,,,,,,,,,,,2,2023-11-23_10h46.57.551,watkins1,2023.2.3,99.77968642425476,11,2023-11-23 10h47.05.365681 +0000,
,,,,,,,,,,,27,0,27,0,,,,,,,,,,,,,439.2955843000673,,,,,,,,,,,,439.2917038000887,439.78775090002455,,,[],[],,,,,,,,,,,,2.809553200029768,None,,,,,katze,,,,,Ring,verspielt,"['Ring', 'verspielt']",test_sub,2,,,,,,439.2916384000564,439.2916769000003,"['Flasche', 'Bürste', 'Jacke', 'Kamera', 'Vase', 'Schere', 'Eimer', 'Stift', 'Löffel', 'Hut', 'Uhr', 'Blume', 'Brille', 'Schlüssel', 'Kerze', 'Würfel', 'Kiste', 'Fahrrad', 'Rucksack', 'Tasche', 'Tasse', 'Telefon', 'Socke', 'Lampe', 'Geige', 'Hammer', 'Kette', 'Ring', 'Trommel', 'Buch']",439.78776199999265,439.7903051000321,None,439.79043000005186,439.79174690006766,None,439.79185610008426,439.7931435999926,None,439.7932516000001,439.79428710008506,439.7942999000661,0,445.7972528000828,,,,,,,,,,,,,,,,,,,,,,,,,,,,,,,,,,,,,,,,,,,,,,,,2,2023-11-23_10h46.57.551,watkins1,2023.2.3,99.77968642425476,11,2023-11-23 10h47.05.365681 +0000,
,,,,,,,,,,,28,0,28,0,,,,,,,,,,,,,445.8070681000827,,,,,,,,,,,,445.797537400038,446.2895469000796,,,[],[],,,,,,,,,,,,None,None,,,,,,,,,,Trommel,dunkel,"['Trommel', 'dunkel']",restudy,2,,,,,,445.79747119999956,445.7975081000477,"['Flasche', 'Bürste', 'Jacke', 'Kamera', 'Vase', 'Schere', 'Eimer', 'Stift', 'Löffel', 'Hut', 'Uhr', 'Blume', 'Brille', 'Schlüssel', 'Kerze', 'Würfel', 'Kiste', 'Fahrrad', 'Rucksack', 'Tasche', 'Tasse', 'Telefon', 'Socke', 'Lampe', 'Geige', 'Hammer', 'Kette', 'Ring', 'Trommel', 'Buch']",446.2895575000439,446.29235650005285,None,446.2924793000566,452.29873750009574,2,452.29904740001075,452.301841000095,None,452.3019531000173,452.3031517000636,452.30316320003476,,452.3046381000895,1.3686342000728473,None,,,,,,,,,,,,,,,,,,,,,,,,,,,,,,,,,,,,,,,,,,,,,,2,2023-11-23_10h46.57.551,watkins1,2023.2.3,99.77968642425476,11,2023-11-23 10h47.05.365681 +0000,
,,,,,,,,,,,29,0,29,0,,,,,,,,,,,,,452.30832010007,,,,,,,,,,,,452.3049235000508,452.8003728000913,,,[],[],,,,,,,,,,,,None,None,,,,,,,,,,Buch,groß,"['Buch', 'groß']",restudy,2,,,,,,452.30485810001846,452.304896100075,"['Flasche', 'Bürste', 'Jacke', 'Kamera', 'Vase', 'Schere', 'Eimer', 'Stift', 'Löffel', 'Hut', 'Uhr', 'Blume', 'Brille', 'Schlüssel', 'Kerze', 'Würfel', 'Kiste', 'Fahrrad', 'Rucksack', 'Tasche', 'Tasse', 'Telefon', 'Socke', 'Lampe', 'Geige', 'Hammer', 'Kette', 'Ring', 'Trommel', 'Buch']",452.80038400006015,452.8029338000342,None,452.80305530002806,458.8064461000031,2,458.8067467000801,458.80919340008404,None,458.8093025000999,458.8103282999946,458.81033980008215,,458.81135170010384,1.9544388999929652,None,,,,,,,,,,,,,,,,,,,,,,,,,,,,,,,,,,,,,,,,,,,,,,2,2023-11-23_10h46.57.551,watkins1,2023.2.3,99.77968642425476,11,2023-11-23 10h47.05.365681 +0000,
,,,,,,,,,,,,,,,,,,,,,,,,,,,,,,,,,,,,,,,,,,,,,,,,,,,,,,,,,,,,,,,,,,,,,,,2,,,,,,,,,,,,,,,,,,,,,,,,,,,,,,,,,,,,,,,,,,,,,,,,,,,,,,,,,,,,,,,,,,,,,,2,2023-11-23_10h46.57.551,watkins1,2023.2.3,99.77968642425476,11,2023-11-23 10h47.05.365681 +0000,
(80 : 10) + 9 = 17 ,Correct,button_correct,,,,,,,,,,,,,0,0,0,3,,,,,,,,,475.75279620010406,,,,,,,,,,474.6727997000562,475.67649520002306,,,,,['button_correct'],[4.857674499973655],,,,,,,,,,,,,,,,,,,,,,,,,,distractorTask,2,,,,,,,,,,,,,,,,,,,,,,,,,475.7408641000511,475.75279620010406,480.60426300007384,[0.362962962962963],[-0.38055555555555554],[1],[0],[0],[4.857674499973655],['button_correct'],480.60492970002815,481.6079363001045,,,,,,,,,,,,,,,,,,,,,,,,,,,,,,,,,,2,2023-11-23_10h46.57.551,watkins1,2023.2.3,99.77968642425476,11,2023-11-23 10h47.05.365681 +0000,
(28 : 7) - 3 = 1 ,Correct,button_correct,,,,,,,,,,,,,0,1,1,0,,,,,,,,,481.61791810009163,,,,,,,,,,,,,,,,['button_incorrect'],[4.868023799965158],,,,,,,,,,,,,,,,,,,,,,,,,,distractorTask,2,,,,,,,,,,,,,,,,,,,,,,,,,481.6081313000759,481.61791810009163,486.4788986000931,[-0.3638888888888889],[-0.41388888888888886],[1],[0],[0],[4.868023799965158],['button_incorrect'],486.47927900007926,487.4825816000812,,,,,,,,,,,,,,,,,,,,,,,,,,,,,,,,,,2,2023-11-23_10h46.57.551,watkins1,2023.2.3,99.77968642425476,11,2023-11-23 10h47.05.365681 +0000,
(6 x 3) + 10 = 27 ,Incorrect,button_incorrect,,,,,,,,,,,,,0,2,2,8,,,,,,,,,487.4925743000349,,,,,,,,,,,,,,,,['button_incorrect'],[7.669033100013621],,,,,,,,,,,,,,,,,,,,,,,,,,distractorTask,2,,,,,,,,,,,,,,,,,,,,,,,,,487.48277520004194,487.4925743000349,495.15465150005184,[-0.33240740740740743],[-0.38333333333333336],[1],[0],[0],[7.669033100013621],['button_incorrect'],495.1550316000357,496.15854890004266,,,,,,,,,,,,,,,,,,,,,,,,,,,,,,,,,,2,2023-11-23_10h46.57.551,watkins1,2023.2.3,99.77968642425476,11,2023-11-23 10h47.05.365681 +0000,
(9 x 5) - 9 = 36 ,Correct,button_correct,,,,,,,,,,,,,0,3,3,4,,,,,,,,,496.16852490010206,,,,,,,,,,,,,,,,['button_correct'],[5.601270500104874],,,,,,,,,,,,,,,,,,,,,,,,,,distractorTask,2,,,,,,,,,,,,,,,,,,,,,,,,,496.1587444000179,496.16852490010206,501.7622960000299,[0.35],[-0.41574074074074074],[1],[0],[0],[5.601270500104874],['button_correct'],501.76268939999864,502.76612040004693,,,,,,,,,,,,,,,,,,,,,,,,,,,,,,,,,,2,2023-11-23_10h46.57.551,watkins1,2023.2.3,99.77968642425476,11,2023-11-23 10h47.05.365681 +0000,
(2 x 5) + 3 = 13 ,Correct,button_correct,,,,,,,,,,,,,0,4,4,2,,,,,,,,,502.77612739999313,,,,,,,,,,,,,,,,['button_correct'],[2.559550999896601],,,,,,,,,,,,,,,,,,,,,,,,,,distractorTask,2,,,,,,,,,,,,,,,,,,,,,,,,,502.76631229999475,502.77612739999313,505.3275789000327,[0.3537037037037037],[-0.4101851851851852],[1],[0],[0],[2.559550999896601],['button_correct'],505.32795720000286,506.33174500009045,,,,,,,,,,,,,,,,,,,,,,,,,,,,,,,,,,2,2023-11-23_10h46.57.551,watkins1,2023.2.3,99.77968642425476,11,2023-11-23 10h47.05.365681 +0000,
(40 : 5) + 8 = 15 ,Incorrect,button_incorrect,,,,,,,,,,,,,0,5,5,7,,,,,,,,,506.3417141000973,,,,,,,,,,,,,,,,['button_incorrect'],[3.4420914999209344],,,,,,,,,,,,,,,,,,,,,,,,,,distractorTask,2,,,,,,,,,,,,,,,,,,,,,,,,,506.33193770004436,506.3417141000973,509.7764439000748,[-0.32314814814814813],[-0.3768518518518518],[1],[0],[0],[3.4420914999209344],['button_incorrect'],509.7768238000572,510.7802837000927,,,,,,,,,,,,,,,,,,,,,,,,,,,,,,,,,,2,2023-11-23_10h46.57.551,watkins1,2023.2.3,99.77968642425476,11,2023-11-23 10h47.05.365681 +0000,
(7 x 6) + 9 = 48 ,Incorrect,button_incorrect,,,,,,,,,,,,,0,6,6,9,,,,,,,,,510.790260400041,,,,,,,,,,,,,,,,['button_incorrect'],[5.250143500044942],,,,,,,,,,,,,,,,,,,,,,,,,,distractorTask,2,,,,,,,,,,,,,,,,,,,,,,,,,510.7804848999949,510.790260400041,516.0325221000239,[-0.3074074074074074],[-0.3907407407407407],[1],[0],[0],[5.250143500044942],['button_incorrect'],516.032900200109,517.0362342000008,,,,,,,,,,,,,,,,,,,,,,,,,,,,,,,,,,2,2023-11-23_10h46.57.551,watkins1,2023.2.3,99.77968642425476,11,2023-11-23 10h47.05.365681 +0000,
(4 : 2) + 4 = 6 ,Correct,button_correct,,,,,,,,,,,,,0,7,7,1,,,,,,,,,517.0462053000228,,,,,,,,,,,,,,,,['button_correct'],[2.659523000009358],,,,,,,,,,,,,,,,,,,,,,,,,,distractorTask,2,,,,,,,,,,,,,,,,,,,,,,,,,517.0364311001031,517.0462053000228,519.6976739000529,[0.30833333333333335],[-0.38055555555555554],[1],[0],[0],[2.659523000009358],['button_correct'],519.6980558000505,520.701572000049,,,,,,,,,,,,,,,,,,,,,,,,,,,,,,,,,,2,2023-11-23_10h46.57.551,watkins1,2023.2.3,99.77968642425476,11,2023-11-23 10h47.05.365681 +0000,
(25 : 5) + 5 = 9 ,Incorrect,button_incorrect,,,,,,,,,,,,,0,8,8,6,,,,,,,,,520.7116634000558,,,,,,,,,,,,,,,,['button_incorrect'],[2.3987542999675497],,,,,,,,,,,,,,,,,,,,,,,,,,distractorTask,2,,,,,,,,,,,,,,,,,,,,,,,,,520.7017704000464,520.7116634000558,523.1022814000025,[-0.2935185185185185],[-0.3768518518518518],[1],[0],[0],[2.3987542999675497],['button_incorrect'],523.1026617001044,524.1058530000737,,,,,,,,,,,,,,,,,,,,,,,,,,,,,,,,,,2,2023-11-23_10h46.57.551,watkins1,2023.2.3,99.77968642425476,11,2023-11-23 10h47.05.365681 +0000,
(54 : 6) - 10 = 0 ,Incorrect,button_incorrect,,,,,,,,,,,,,0,9,9,5,,,,,,,,,524.1158804000588,,,,,,,,,,,,,,,,['button_incorrect'],[4.356980700045824],,,,,,,,,,,,,,,,,,,,,,,,,,distractorTask,2,,,,,,,,,,,,,,,,,,,,,,,,,524.1060480000451,524.1158804000588,528.4647592999972,[-0.3490740740740741],[-0.37592592592592594],[1],[0],[0],[4.356980700045824],['button_incorrect'],528.4651441000169,529.4683087000158,,,,,,,,,,,,,,,,,,,,,,,,,,,,,,,,,,2,2023-11-23_10h46.57.551,watkins1,2023.2.3,99.77968642425476,11,2023-11-23 10h47.05.365681 +0000,
,,,,,,,,,,,,,,,,,,,,,,,,,,,,,,,,,,,,,,,,,,,,,,,,,,,,,,,,,,,,,,,,,,,,,,,2,,,,,,,,,,,,,,,,,,,,,,,,,,,,,,,,,,,,,,,,,,,,,,,,,,,,,,,,,,,,,,,,,,,,,,2,2023-11-23_10h46.57.551,watkins1,2023.2.3,99.77968642425476,11,2023-11-23 10h47.05.365681 +0000,
,,,,,,,,,,,,,,,,,,,0,0,0,0,,,,,538.5860970000504,,,,,,,,,,,,,,,,katze,10.167102099978365,,,,,,,,,,,,3.4034871000330895,7.651471500052139,,,,,,,,,,,,,freeRecallSub,2,,,,,,,,,,,,,,,,,,,,,,,,,,,,,,,,,,,,,538.5774393000174,538.5860970000504,538.5860970000504,548.7589683000697,return,10.167102099978365,None,katze,[-0.06111111111111111],[0.04259259259259259],[1],[0],[0],[1.3545097999740392],[],,,,,,,,,,,,,,,,,,,2,2023-11-23_10h46.57.551,watkins1,2023.2.3,99.77968642425476,11,2023-11-23 10h47.05.365681 +0000,
,,,,,,,,,,,,,,,,,,,1,0,1,0,,,,,548.7711656000465,,,,,,,,,,,,,,,,hund,2.2620068000396714,,,,,,,,,,,,1.508369299932383,None,,,,,,,,,,,,,freeRecallSub,2,,,,,,,,,,,,,,,,,,,,,,,,,,,,,,,,,,,,,548.760755400057,548.7711656000465,548.7711656000465,551.0422403000994,return,2.2620068000396714,None,hund,[],[],[],[],[],[],[],,,,,,,,,,,,,,,,,,,2,2023-11-23_10h46.57.551,watkins1,2023.2.3,99.77968642425476,11,2023-11-23 10h47.05.365681 +0000,
,,,,,,,,,,,,,,,,,,,2,0,2,0,,,,,551.0528910000576,,,,,,,,,,,,,,,,rucksack,2.5802839000243694,,,,,,,,,,,,0.7125611000228673,None,,,,,,,,,,,,,freeRecallSub,2,,,,,,,,,,,,,,,,,,,,,,,,,,,,,,,,,,,,,551.0434896000661,551.0528910000576,551.0528910000576,553.6339531000704,return,2.5802839000243694,None,rucksack,[],[],[],[],[],[],[],,,,,,,,,,,,,,,,,,,2,2023-11-23_10h46.57.551,watkins1,2023.2.3,99.77968642425476,11,2023-11-23 10h47.05.365681 +0000,
,,,,,,,,,,,,,,,,,,,3,0,3,0,,,,,553.6446729000891,,,,,,,,,,,,,,,,jacke,1.2525254999054596,,,,,,,,,,,,0.4818889000453055,None,,,,,,,,,,,,,freeRecallSub,2,,,,,,,,,,,,,,,,,,,,,,,,,,,,,,,,,,,,,553.6352290000068,553.6446729000891,553.6446729000891,554.900389400078,return,1.2525254999054596,None,jacke,[],[],[],[],[],[],[],,,,,,,,,,,,,,,,,,,2,2023-11-23_10h46.57.551,watkins1,2023.2.3,99.77968642425476,11,2023-11-23 10h47.05.365681 +0000,
,,,,,,,,,,,,,,,,,,,4,0,4,0,,,,,554.9110694000265,,,,,,,,,,,,,,,,kerze,2.162070400081575,,,,,,,,,,,,0.713020300026983,None,,,,,,,,,,,,,freeRecallSub,2,,,,,,,,,,,,,,,,,,,,,,,,,,,,,,,,,,,,,554.9016443000874,554.9110694000265,554.9110694000265,557.0807435000315,return,2.162070400081575,None,kerze,[],[],[],[],[],[],[],,,,,,,,,,,,,,,,,,,2,2023-11-23_10h46.57.551,watkins1,2023.2.3,99.77968642425476,11,2023-11-23 10h47.05.365681 +0000,
,,,,,,,,,,,,,,,,,,,5,0,5,0,,,,,557.091299300082,,,,,,,,,,,,,,,,buch,1.4698639999842271,,,,,,,,,,,,0.44107269996311516,None,,,,,,,,,,,,,freeRecallSub,2,,,,,,,,,,,,,,,,,,,,,,,,,,,,,,,,,,,,,557.082017900073,557.091299300082,557.091299300082,558.5675102000823,return,1.4698639999842271,None,buch,[],[],[],[],[],[],[],,,,,,,,,,,,,,,,,,,2,2023-11-23_10h46.57.551,watkins1,2023.2.3,99.77968642425476,11,2023-11-23 10h47.05.365681 +0000,
,,,,,,,,,,,,,,,,,,,6,0,6,0,,,,,558.5785738000413,,,,,,,,,,,,,,,,bürste,4.222541600000113,,,,,,,,,,,,1.77771739999298,None,,,,,,,,,,,,,freeRecallSub,2,,,,,,,,,,,,,,,,,,,,,,,,,,,,,,,,,,,,,558.5687739000423,558.5785738000413,558.5785738000413,562.807327000075,return,4.222541600000113,None,bürste,[],[],[],[],[],[],[],,,,,,,,,,,,,,,,,,,2,2023-11-23_10h46.57.551,watkins1,2023.2.3,99.77968642425476,11,2023-11-23 10h47.05.365681 +0000,
,,,,,,,,,,,,,,,,,,,7,0,7,0,,,,,562.8189258000348,,,,,,,,,,,,,,,,geige,2.886261200066656,,,,,,,,,,,,0.6445506999734789,None,,,,,,,,,,,,,freeRecallSub,2,,,,,,,,,,,,,,,,,,,,,,,,,,,,,,,,,,,,,562.8086615999928,562.8189258000348,562.8189258000348,565.7130310999928,return,2.886261200066656,None,geige,[],[],[],[],[],[],[],,,,,,,,,,,,,,,,,,,2,2023-11-23_10h46.57.551,watkins1,2023.2.3,99.77968642425476,11,2023-11-23 10h47.05.365681 +0000,
,,,,,,,,,,,,,,,,,,,8,0,8,0,,,,,565.7247114001075,,,,,,,,,,,,,,,,kamera,2.1083807999966666,,,,,,,,,,,,0.4939620998920873,None,,,,,,,,,,,,,freeRecallSub,2,,,,,,,,,,,,,,,,,,,,,,,,,,,,,,,,,,,,,565.7142866000067,565.7247114001075,565.7247114001075,567.8350497999927,return,2.1083807999966666,None,kamera,[],[],[],[],[],[],[],,,,,,,,,,,,,,,,,,,2,2023-11-23_10h46.57.551,watkins1,2023.2.3,99.77968642425476,11,2023-11-23 10h47.05.365681 +0000,
,,,,,,,,,,,,,,,,,,,9,0,9,0,,,,,567.8468685999978,,,,,,,,,,,,,,,,eimer,2.8183141999179497,,,,,,,,,,,,1.7992662000469863,None,,,,,,,,,,,,,freeRecallSub,2,,,,,,,,,,,,,,,,,,,,,,,,,,,,,,,,,,,,,567.8363134000683,567.8468685999978,567.8468685999978,570.6700467000483,return,2.8183141999179497,None,eimer,[],[],[],[],[],[],[],,,,,,,,,,,,,,,,,,,2,2023-11-23_10h46.57.551,watkins1,2023.2.3,99.77968642425476,11,2023-11-23 10h47.05.365681 +0000,
,,,,,,,,,,,,,,,,,,,10,0,10,0,,,,,570.6817761000711,,,,,,,,,,,,,,,,flasche,4.215365599957295,,,,,,,,,,,,1.5785595999332145,None,,,,,,,,,,,,,freeRecallSub,2,,,,,,,,,,,,,,,,,,,,,,,,,,,,,,,,,,,,,570.6713043000782,570.6817761000711,570.6817761000711,574.9012997000245,return,4.215365599957295,None,flasche,[],[],[],[],[],[],[],,,,,,,,,,,,,,,,,,,2,2023-11-23_10h46.57.551,watkins1,2023.2.3,99.77968642425476,11,2023-11-23 10h47.05.365681 +0000,
,,,,,,,,,,,,,,,,,,,11,0,11,0,,,,,574.913921300089,,,,,,,,,,,,,,,,,[],,,,,,,,,,,,None,None,,,,,,,,,,,,,freeRecallSub,2,,,,,,,,,,,,,,,,,,,,,,,,,,,,,,,,,,,,,574.9025397000369,574.913921300089,574.913921300089,608.7366825001081,None,,,,[0.3074074074074074],[-0.40555555555555556],[1],[0],[0],[33.82896499999333],"['button_continue', 'continue_text']",,,,,,,,,,,,,,,,,,,2,2023-11-23_10h46.57.551,watkins1,2023.2.3,99.77968642425476,11,2023-11-23 10h47.05.365681 +0000,
,,,,,,,,,,,,,,,,,,,,,,,,,,,,,,,,,,,,,,,,,,,,,,,,,,,,,,,,,,,,,,,,,,,,,,,2,,,,,,,,,,,,,,,,,,,,,,,,,,,,,,,,,,,,,,,,,,,,,,,,,,,,,,,,,,,,,,,,,,,,,,2,2023-11-23_10h46.57.551,watkins1,2023.2.3,99.77968642425476,11,2023-11-23 10h47.05.365681 +0000,
,,,,,,,,,,,,,,,,,,,,,,,0,0,0,0,615.8666244000196,,,,,,,,,,,,625.4309259000001,625.9297824000241,,,,9.558482700027525,,,,,,,,,,,,None,None,,,,,,,,,,Vase,,,cuedRecallAdj,2,,,,,,,,,,,,,,,,,,,,,0,,,,,,,,,,,,,,,,,,,,,,,,,,,,,,,615.857638400048,615.8666244000196,615.8666244000196,625.4277374000521,hübsch,return,9.558482700027525,None,625.4281395000871,625.4372637000633,625.4372637000633,625.430771500105,,None,,,,,2,2023-11-23_10h46.57.551,watkins1,2023.2.3,99.77968642425476,11,2023-11-23 10h47.05.365681 +0000,
,,,,,,,,,,,,,,,,,,,,,,,1,0,1,0,625.9397259000689,,,,,,,,,,,,636.0051022000844,636.5040745000588,,,,10.053372399997897,,,,,,,,,,,,None,None,,,,,,,,,,Blume,,,cuedRecallAdj,2,,,,,,,,,,,,,,,,,,,,,0,,,,,,,,,,,,,,,,,,,,,,,,,,,,,,,625.9300271000247,625.9397259000689,625.9397259000689,636.0022535000462,gro?,return,10.053372399997897,None,636.0025188000873,636.0119165000506,636.0119165000506,636.0050013000146,,None,,,,,2,2023-11-23_10h46.57.551,watkins1,2023.2.3,99.77968642425476,11,2023-11-23 10h47.05.365681 +0000,
,,,,,,,,,,,,,,,,,,,,,,,2,0,2,0,636.5141202000668,,,,,,,,,,,,642.1404936000472,642.639388200012,,,,5.614980999962427,,,,,,,,,,,,None,None,,,,,,,,,,Kerze,,,cuedRecallAdj,2,,,,,,,,,,,,,,,,,,,,,0,,,,,,,,,,,,,,,,,,,,,,,,,,,,,,,636.5043146000244,636.5141202000668,636.5141202000668,642.1375168000814,sauber,return,5.614980999962427,None,642.1377814000007,642.1472283001058,642.1472283001058,642.1403864000458,,None,,,,,2,2023-11-23_10h46.57.551,watkins1,2023.2.3,99.77968642425476,11,2023-11-23 10h47.05.365681 +0000,
,,,,,,,,,,,,,,,,,,,,,,,3,0,3,0,642.6493364000926,,,,,,,,,,,,648.3472020000918,648.8456555000739,,,,5.687733499915339,,,,,,,,,,,,None,None,,,,,,,,,,Socke,,,cuedRecallAdj,2,,,,,,,,,,,,,,,,,,,,,0,,,,,,,,,,,,,,,,,,,,,,,,,,,,,,,642.6396348000271,642.6493364000926,642.6493364000926,648.3440851001069,durchsichtig,return,5.687733499915339,None,648.3443529000506,648.353600100032,648.353600100032,648.3471016000258,,None,,,,,2,2023-11-23_10h46.57.551,watkins1,2023.2.3,99.77968642425476,11,2023-11-23 10h47.05.365681 +0000,
,,,,,,,,,,,,,,,,,,,,,,,4,0,4,0,648.8555979999946,,,,,,,,,,,,652.3627143000485,652.8521273999941,,,,3.4975934999529272,,,,,,,,,,,,None,None,,,,,,,,,,Telefon,,,cuedRecallAdj,2,,,,,,,,,,,,,,,,,,,,,0,,,,,,,,,,,,,,,,,,,,,,,,,,,,,,,648.8459001000738,648.8555979999946,648.8555979999946,652.3603663000977,,return,3.4975934999529272,None,652.3606304000132,652.3700595000992,652.3700595000992,652.3626124000875,,None,,,,,2,2023-11-23_10h46.57.551,watkins1,2023.2.3,99.77968642425476,11,2023-11-23 10h47.05.365681 +0000,
,,,,,,,,,,,,,,,,,,,,,,,5,0,5,0,652.8620862000389,,,,,,,,,,,,655.2547476000618,655.7444553000387,,,,2.3870137999765575,,,,,,,,,,,,None,None,,,,,,,,,,Stift,,,cuedRecallAdj,2,,,,,,,,,,,,,,,,,,,,,0,,,,,,,,,,,,,,,,,,,,,,,,,,,,,,,652.8523732000031,652.8620862000389,652.8620862000389,655.252839700086,,return,2.3870137999765575,None,655.253105700016,655.2624948000303,655.2624948000303,655.254645200097,,None,,,,,2,2023-11-23_10h46.57.551,watkins1,2023.2.3,99.77968642425476,11,2023-11-23 10h47.05.365681 +0000,
,,,,,,,,,,,,,,,,,,,,,,,6,0,6,0,655.7544775001006,,,,,,,,,,,,661.9635425000452,662.4621383000631,,,,6.198570000007749,,,,,,,,,,,,None,None,,,,,,,,,,Bürste,,,cuedRecallAdj,2,,,,,,,,,,,,,,,,,,,,,0,,,,,,,,,,,,,,,,,,,,,,,,,,,,,,,655.7447054000804,655.7544775001006,655.7544775001006,661.9605216000928,klobig,return,6.198570000007749,None,661.960785400006,661.9700574000599,661.9700574000599,661.9634397000773,,None,,,,,2,2023-11-23_10h46.57.551,watkins1,2023.2.3,99.77968642425476,11,2023-11-23 10h47.05.365681 +0000,
,,,,,,,,,,,,,,,,,,,,,,,7,0,7,0,662.4720457000658,,,,,,,,,,,,666.664011200075,667.162525300053,,,,4.184987400076352,,,,,,,,,,,,None,None,,,,,,,,,,Hut,,,cuedRecallAdj,2,,,,,,,,,,,,,,,,,,,,,0,,,,,,,,,,,,,,,,,,,,,,,,,,,,,,,662.4623839000706,662.4720457000658,662.4720457000658,666.6609224000713,schmutzig,return,4.184987400076352,None,666.661184900091,666.6704308000626,666.6704308000626,666.6639091999969,,None,,,,,2,2023-11-23_10h46.57.551,watkins1,2023.2.3,99.77968642425476,11,2023-11-23 10h47.05.365681 +0000,
,,,,,,,,,,,,,,,,,,,,,,,8,0,8,0,667.1724244001089,,,,,,,,,,,,672.5694894000189,673.0586956000188,,,,5.388824899913743,,,,,,,,,,,,None,None,,,,,,,,,,Jacke,,,cuedRecallAdj,2,,,,,,,,,,,,,,,,,,,,,0,,,,,,,,,,,,,,,,,,,,,,,,,,,,,,,667.1627639000071,667.1724244001089,667.1724244001089,672.5671494000126,,return,5.388824899913743,None,672.5674224999966,672.5766557001043,672.5766557001043,672.5693881000625,,None,,,,,2,2023-11-23_10h46.57.551,watkins1,2023.2.3,99.77968642425476,11,2023-11-23 10h47.05.365681 +0000,
,,,,,,,,,,,,,,,,,,,,,,,9,0,9,0,673.0687541000079,,,,,,,,,,,,678.1635410001036,678.6624810000649,,,,5.084258300019428,,,,,,,,,,,,None,None,,,,,,,,,,Kette,,,cuedRecallAdj,2,,,,,,,,,,,,,,,,,,,,,0,,,,,,,,,,,,,,,,,,,,,,,,,,,,,,,673.0589435000438,673.0687541000079,673.0687541000079,678.160559500102,hübsch,return,5.084258300019428,None,678.1608239000197,678.1703351000324,678.1703351000324,678.1634382000193,,None,,,,,2,2023-11-23_10h46.57.551,watkins1,2023.2.3,99.77968642425476,11,2023-11-23 10h47.05.365681 +0000,
,,,,,,,,,,,,,,,,,,,,,,,10,0,10,0,678.6724332000595,,,,,,,,,,,,686.388475600048,686.88720560004,,,,7.704620899981819,,,,,,,,,,,,None,None,,,,,,,,,,Brille,,,cuedRecallAdj,2,,,,,,,,,,,,,,,,,,,,,0,,,,,,,,,,,,,,,,,,,,,,,,,,,,,,,678.6627277000807,678.6724332000595,678.6724332000595,686.3853673000121,breit,return,7.704620899981819,None,686.3856298000319,686.3951001000823,686.3951001000823,686.3883738000877,,None,,,,,2,2023-11-23_10h46.57.551,watkins1,2023.2.3,99.77968642425476,11,2023-11-23 10h47.05.365681 +0000,
,,,,,,,,,,,,,,,,,,,,,,,11,0,11,0,686.8971595000476,,,,,,,,,,,,690.5250735000009,691.0243350000819,,,,3.6238304000580683,,,,,,,,,,,,None,None,,,,,,,,,,Hammer,,,cuedRecallAdj,2,,,,,,,,,,,,,,,,,,,,,0,,,,,,,,,,,,,,,,,,,,,,,,,,,,,,,686.8874530000612,686.8971595000476,686.8971595000476,690.5228273000102,,return,3.6238304000580683,None,690.5230930000544,690.5323327000951,690.5323327000951,690.5249716000399,,None,,,,,2,2023-11-23_10h46.57.551,watkins1,2023.2.3,99.77968642425476,11,2023-11-23 10h47.05.365681 +0000,
,,,,,,,,,,,,,,,,,,,,,,,12,0,12,0,691.0342091000639,,,,,,,,,,,,692.3323315000162,692.8220535001019,,,,1.2867852000053972,,,,,,,,,,,,None,None,,,,,,,,,,Schlüssel,,,cuedRecallAdj,2,,,,,,,,,,,,,,,,,,,,,0,,,,,,,,,,,,,,,,,,,,,,,,,,,,,,,691.0245832999935,691.0342091000639,691.0342091000639,692.3302786001004,,return,1.2867852000053972,None,692.3305493000662,692.3399488000432,692.3399488000432,692.3322287000483,,None,,,,,2,2023-11-23_10h46.57.551,watkins1,2023.2.3,99.77968642425476,11,2023-11-23 10h47.05.365681 +0000,
,,,,,,,,,,,,,,,,,,,,,,,13,0,13,0,692.8319590000901,,,,,,,,,,,,695.5968005000614,696.0955669000978,,,,2.7610808999743313,,,,,,,,,,,,None,None,,,,,,,,,,Löffel,,,cuedRecallAdj,2,,,,,,,,,,,,,,,,,,,,,0,,,,,,,,,,,,,,,,,,,,,,,,,,,,,,,692.822299499996,692.8319590000901,692.8319590000901,695.5939596000826,lang,return,2.7610808999743313,None,695.5942224001046,695.6035156000871,695.6035156000871,695.5966976000927,,None,,,,,2,2023-11-23_10h46.57.551,watkins1,2023.2.3,99.77968642425476,11,2023-11-23 10h47.05.365681 +0000,
,,,,,,,,,,,,,,,,,,,,,,,14,0,14,0,696.1056181000313,,,,,,,,,,,,700.0355503000319,700.5343195000896,,,,3.919354400015436,,,,,,,,,,,,None,None,,,,,,,,,,Fahrrad,,,cuedRecallAdj,2,,,,,,,,,,,,,,,,,,,,,0,,,,,,,,,,,,,,,,,,,,,,,,,,,,,,,696.0958092000801,696.1056181000313,696.1056181000313,700.0321802000981,kaputt,return,3.919354400015436,None,700.0324457000243,700.0416891000932,700.0416891000932,700.0354447000427,,None,,,,,2,2023-11-23_10h46.57.551,watkins1,2023.2.3,99.77968642425476,11,2023-11-23 10h47.05.365681 +0000,
,,,,,,,,,,,,,,,,,,,,,,,15,0,15,0,700.5442274000961,,,,,,,,,,,,703.4698790000984,703.9686176000396,,,,2.920774500002153,,,,,,,,,,,,None,None,,,,,,,,,,Trommel,,,cuedRecallAdj,2,,,,,,,,,,,,,,,,,,,,,0,,,,,,,,,,,,,,,,,,,,,,,,,,,,,,,700.5345624000765,700.5442274000961,700.5442274000961,703.4668073001085,dunkel,return,2.920774500002153,None,703.4670918000629,703.4763414000627,703.4763414000627,703.4697778000263,,None,,,,,2,2023-11-23_10h46.57.551,watkins1,2023.2.3,99.77968642425476,11,2023-11-23 10h47.05.365681 +0000,
,,,,,,,,,,,,,,,,,,,,,,,16,0,16,0,703.9785128000658,,,,,,,,,,,,712.6380948000588,713.1365773000289,,,,8.654514399939217,,,,,,,,,,,,None,None,,,,,,,,,,Tasse,,,cuedRecallAdj,2,,,,,,,,,,,,,,,,,,,,,0,,,,,,,,,,,,,,,,,,,,,,,,,,,,,,,703.9688601000234,703.9785128000658,703.9785128000658,712.6350600000005,warm,return,8.654514399939217,None,712.6353493001079,712.6445938000688,712.6445938000688,712.6379868000513,,None,,,,,2,2023-11-23_10h46.57.551,watkins1,2023.2.3,99.77968642425476,11,2023-11-23 10h47.05.365681 +0000,
,,,,,,,,,,,,,,,,,,,,,,,17,0,17,0,713.1464550000383,,,,,,,,,,,,716.68497390009,717.1836563000688,,,,3.5345653999829665,,,,,,,,,,,,None,None,,,,,,,,,,Kiste,,,cuedRecallAdj,2,,,,,,,,,,,,,,,,,,,,,0,,,,,,,,,,,,,,,,,,,,,,,,,,,,,,,713.1368279000744,713.1464550000383,713.1464550000383,716.6819632000988,stabil,return,3.5345653999829665,None,716.6822295000311,716.6914527000627,716.6914527000627,716.6848717000103,,None,,,,,2,2023-11-23_10h46.57.551,watkins1,2023.2.3,99.77968642425476,11,2023-11-23 10h47.05.365681 +0000,
,,,,,,,,,,,,,,,,,,,,,,,18,0,18,0,717.1936056000413,,,,,,,,,,,,730.7723072000081,731.2615658000577,,,,13.575335400062613,,,,,,,,,,,,None,None,,,,,,,,,,Tasche,,,cuedRecallAdj,2,,,,,,,,,,,,,,,,,,,,,0,,,,,,,,,,,,,,,,,,,,,,,,,,,,,,,717.1839000000618,717.1936056000413,717.1936056000413,730.7700259000994,,return,13.575335400062613,None,730.7702955000568,730.779556500027,730.779556500027,730.7722047000425,,None,,,,,2,2023-11-23_10h46.57.551,watkins1,2023.2.3,99.77968642425476,11,2023-11-23 10h47.05.365681 +0000,
,,,,,,,,,,,,,,,,,,,,,,,19,0,19,0,731.2716169001069,,,,,,,,,,,,734.538515000022,735.0371109000407,,,,3.2573823999846354,,,,,,,,,,,,None,None,,,,,,,,,,Flasche,,,cuedRecallAdj,2,,,,,,,,,,,,,,,,,,,,,0,,,,,,,,,,,,,,,,,,,,,,,,,,,,,,,731.2618100000545,731.2716169001069,731.2716169001069,734.5354154000524,sportlich,return,3.2573823999846354,None,734.5356849000091,734.5450632000575,734.5450632000575,734.5384109000443,,None,,,,,2,2023-11-23_10h46.57.551,watkins1,2023.2.3,99.77968642425476,11,2023-11-23 10h47.05.365681 +0000,
,,,,,,,,,,,,,,,,,,,,,,,20,0,20,0,735.0470612000208,,,,,,,,,,,,736.515571600059,737.005234100041,,,,1.465905399993062,,,,,,,,,,,,None,None,,,,,,,,,,Uhr,,,cuedRecallAdj,2,,,,,,,,,,,,,,,,,,,,,0,,,,,,,,,,,,,,,,,,,,,,,,,,,,,,,735.0373604000779,735.0470612000208,735.0470612000208,736.5135020000162,,return,1.465905399993062,None,736.5137670000549,736.523108500056,736.523108500056,736.5154704001034,,None,,,,,2,2023-11-23_10h46.57.551,watkins1,2023.2.3,99.77968642425476,11,2023-11-23 10h47.05.365681 +0000,
,,,,,,,,,,,,,,,,,,,,,,,21,0,21,0,737.0151930000866,,,,,,,,,,,,738.051858699997,738.5415282000322,,,,1.033742900006473,,,,,,,,,,,,None,None,,,,,,,,,,Würfel,,,cuedRecallAdj,2,,,,,,,,,,,,,,,,,,,,,0,,,,,,,,,,,,,,,,,,,,,,,,,,,,,,,737.0054800000507,737.0151930000866,737.0151930000866,738.0499731000746,,return,1.033742900006473,None,738.0502362000989,738.0595132000744,738.0595132000744,738.0517595000565,,None,,,,,2,2023-11-23_10h46.57.551,watkins1,2023.2.3,99.77968642425476,11,2023-11-23 10h47.05.365681 +0000,
,,,,,,,,,,,,,,,,,,,,,,,22,0,22,0,738.5514775000047,,,,,,,,,,,,744.700124700088,745.1992202000692,,,,6.137471600086428,,,,,,,,,,,,None,None,,,,,,,,,,Buch,,,cuedRecallAdj,2,,,,,,,,,,,,,,,,,,,,,0,,,,,,,,,,,,,,,,,,,,,,,,,,,,,,,738.5417670001043,738.5514775000047,738.5514775000047,744.6974068999989,gro?,return,6.137471600086428,None,744.697672600043,744.7070782000665,744.7070782000665,744.7000220000045,,None,,,,,2,2023-11-23_10h46.57.551,watkins1,2023.2.3,99.77968642425476,11,2023-11-23 10h47.05.365681 +0000,
,,,,,,,,,,,,,,,,,,,,,,,23,0,23,0,745.209119600011,,,,,,,,,,,,749.1583938000258,749.6576476000482,,,,3.9438170000212267,,,,,,,,,,,,None,None,,,,,,,,,,Schere,,,cuedRecallAdj,2,,,,,,,,,,,,,,,,,,,,,0,,,,,,,,,,,,,,,,,,,,,,,,,,,,,,,745.1994629000546,745.209119600011,745.209119600011,749.156106700073,,return,3.9438170000212267,None,749.1563716999954,749.1656303000636,749.1656303000636,749.1582895000465,,None,,,,,2,2023-11-23_10h46.57.551,watkins1,2023.2.3,99.77968642425476,11,2023-11-23 10h47.05.365681 +0000,
,,,,,,,,,,,,,,,,,,,,,,,24,0,24,0,749.6676875000121,,,,,,,,,,,,753.6582305000629,754.1567983001005,,,,3.9813005999894813,,,,,,,,,,,,None,None,,,,,,,,,,Eimer,,,cuedRecallAdj,2,,,,,,,,,,,,,,,,,,,,,0,,,,,,,,,,,,,,,,,,,,,,,,,,,,,,,749.6578929000534,749.6676875000121,749.6676875000121,753.6551885000663,kalt,return,3.9813005999894813,None,753.6554559000069,753.6646977000637,753.6646977000637,753.6581281000981,,None,,,,,2,2023-11-23_10h46.57.551,watkins1,2023.2.3,99.77968642425476,11,2023-11-23 10h47.05.365681 +0000,
,,,,,,,,,,,,,,,,,,,,,,,25,0,25,0,754.1668475000188,,,,,,,,,,,,760.2463637000183,760.7447421000106,,,,6.074076700024307,,,,,,,,,,,,None,None,,,,,,,,,,Geige,,,cuedRecallAdj,2,,,,,,,,,,,,,,,,,,,,,0,,,,,,,,,,,,,,,,,,,,,,,,,,,,,,,754.1570437001064,754.1668475000188,754.1668475000188,760.243102000095,praktisch,return,6.074076700024307,None,760.2433847000357,760.2525813000975,760.2525813000975,760.2462624000618,,None,,,,,2,2023-11-23_10h46.57.551,watkins1,2023.2.3,99.77968642425476,11,2023-11-23 10h47.05.365681 +0000,
,,,,,,,,,,,,,,,,,,,,,,,26,0,26,0,760.7547756000422,,,,,,,,,,,,761.8618398000253,762.3513313001022,,,,1.1022154999664053,,,,,,,,,,,,None,None,,,,,,,,,,Ring,,,cuedRecallAdj,2,,,,,,,,,,,,,,,,,,,,,0,,,,,,,,,,,,,,,,,,,,,,,,,,,,,,,760.744993600063,760.7547756000422,760.7547756000422,761.859763000044,,return,1.1022154999664053,None,761.860027500079,761.869275300065,761.869275300065,761.861739700078,,None,,,,,2,2023-11-23_10h46.57.551,watkins1,2023.2.3,99.77968642425476,11,2023-11-23 10h47.05.365681 +0000,
,,,,,,,,,,,,,,,,,,,,,,,27,0,27,0,762.3612362000858,,,,,,,,,,,,765.8292424000101,766.3281608000398,,,,3.4637247999198735,,,,,,,,,,,,None,None,,,,,,,,,,Rucksack,,,cuedRecallAdj,2,,,,,,,,,,,,,,,,,,,,,0,,,,,,,,,,,,,,,,,,,,,,,,,,,,,,,762.3515716000693,762.3612362000858,762.3612362000858,765.8261750000529,flauschig,return,3.4637247999198735,None,765.8264353000559,765.8356594000943,765.8356594000943,765.8290969000664,,None,,,,,2,2023-11-23_10h46.57.551,watkins1,2023.2.3,99.77968642425476,11,2023-11-23 10h47.05.365681 +0000,
,,,,,,,,,,,,,,,,,,,,,,,28,0,28,0,766.3381158000557,,,,,,,,,,,,767.5062520001084,768.0050687000621,,,,1.158681400003843,,,,,,,,,,,,None,None,,,,,,,,,,Kamera,,,cuedRecallAdj,2,,,,,,,,,,,,,,,,,,,,,0,,,,,,,,,,,,,,,,,,,,,,,,,,,,,,,766.3284454999957,766.3381158000557,766.3381158000557,767.5034441000316,,return,1.158681400003843,None,767.5037230000598,767.5129087000387,767.5129087000387,767.5061388000613,,None,,,,,2,2023-11-23_10h46.57.551,watkins1,2023.2.3,99.77968642425476,11,2023-11-23 10h47.05.365681 +0000,
,,,,,,,,,,,,,,,,,,,,,,,29,0,29,0,768.0150160000194,,,,,,,,,,,,769.5036006000591,769.9936698999954,,,,1.481915400014259,,,,,,,,,,,,None,None,,,,,,,,,,Lampe,,,cuedRecallAdj,2,,,,,,,,,,,,,,,,,,,,,0,,,,,,,,,,,,,,,,,,,,,,,,,,,,,,,768.0053719000425,768.0150160000194,768.0150160000194,769.5016904000659,,return,1.481915400014259,None,769.5019593000179,769.5112771000713,769.5112771000713,769.5034978000913,,None,,,,,2,2023-11-23_10h46.57.551,watkins1,2023.2.3,99.77968642425476,11,2023-11-23 10h47.05.365681 +0000,
,,,,,,,,,,,,,,,,,,,,,,,,,,,,,,,,,,,,,,,,,,,,,,,,,,,,,,,,,,,,,,,,,,,,,,,2,,,,,,,,,,,,,,,,,,,,,,,,,,,,,,,,,,,,,,,,,,,,,,,,,,,,,,,,,,,,,,,,,,770.0102506000549,q,4128.410475100041,None,2,2023-11-23_10h46.57.551,watkins1,2023.2.3,99.77968642425476,11,2023-11-23 10h47.05.365681 +0000,
