Equation,CorrectResponse,Correctbutton,trials_7.thisRepN,trials_7.thisTrialN,trials_7.thisN,trials_7.thisIndex,trials.thisRepN,trials.thisTrialN,trials.thisN,trials.thisIndex,trials_3.thisRepN,trials_3.thisTrialN,trials_3.thisN,trials_3.thisIndex,trials_2.thisRepN,trials_2.thisTrialN,trials_2.thisN,trials_2.thisIndex,trials_4.thisRepN,trials_4.thisTrialN,trials_4.thisN,trials_4.thisIndex,trials_5.thisRepN,trials_5.thisTrialN,trials_5.thisN,trials_5.thisIndex,thisRow.t,notes,code_marius.started,code_marius.stopped,welcome.started,welcome.stopped,instruction_study.started,instruction_study.stopped,fixationcross.started,fixationcross.stopped,blanc.started,blanc.stopped,study_control_probe.started,study_control_probe.stopped,responseKey,responseTime,scale_answer_2.keys,study_control_probe_2.started,study_control_probe_2.stopped,scale_answer_3.keys,scale_answer_3.rt,scale_answer_3.duration,blanc_2.started,blanc_2.stopped,test_attr_probe.started,test_attr_probe.stopped,recalled_attr,firstKeyTime,secondWordTime,blanc_3.started,blanc_3.stopped,test_sub_probe.started,test_sub_probe.stopped,recalled_sub,instruction_probe_end.started,instruction_probe_end.stopped,study.started,study.stopped,substantive,adjective,wordpair,task,condition,liste_sub_phase1,liste_adj_phase1,scale_answer.keys,scale_answer.rt,scale_answer.duration,code_defineWordsInit.started,code_defineWordsInit.stopped,liste_sub_phase2,study_control.started,study_control.stopped,scale_answer_4.keys,restudy_same.started,restudy_same.stopped,scale_answer_5.keys,restudy_different.started,restudy_different.stopped,scale_answer_6.keys,scale_answer_6.rt,scale_answer_6.duration,test_attr.started,test_attr.stopped,test_sub.started,test_sub.stopped,scale_answer_4.rt,scale_answer_4.duration,distractortask.started,equation_text.started,distractortask.stopped,mouse_answer.x,mouse_answer.y,mouse_answer.leftButton,mouse_answer.midButton,mouse_answer.rightButton,mouse_answer.time,mouse_answer.clicked_name,feedback_distractortask.started,feedback_distractortask.stopped,free_recall.started,text_enter.started,key_resp.started,free_recall.stopped,key_resp.keys,key_resp.rt,key_resp.duration,free_recalled_sub,mouse_continue.x,mouse_continue.y,mouse_continue.leftButton,mouse_continue.midButton,mouse_continue.rightButton,mouse_continue.time,mouse_continue.clicked_name,cued_recall.started,text_enter_2.started,correct,key_continue.started,cued_recall.stopped,recalled_attr1,key_continue.keys,key_continue.rt,key_continue.duration,cued_recall_2.started,text_enter_3.started,key_continue_2.started,cued_recall_2.stopped,recalled_attr2,key_continue_2.keys,key_continue_2.rt,key_continue_2.duration,key_resp_8.started,key_resp_8.keys,key_resp_8.rt,key_resp_8.duration,condition,date,expName,psychopyVersion,frameRate,participant,expStart,
,,,,,,,,,,,,,,,,,,,,,,,,,,,,,0.11452659987844527,0.1145939000416547,0.11460219998843968,9.7750415999908,,,,,,,,,,,,,,,,,,,,,,,,,,,,,,,,,,,,,1,,,,,,,,,,,,,,,,,,,,,,,,,,,,,,,,,,,,,,,,,,,,,,,,,,,,,,,,,,,,,,,,,,,,,,,,,,1,2023-12-06_11h38.51.026,watkins1,2023.2.3,99.73022978730448,46,2023-12-06 11h38.57.865174 +0000,
,,,,,,,,,,,,,,,,,,,,,,,,,,,,,,,,,9.775091900024563,53.00658799987286,,,,,,,,,,,,,,,,,,,,,,,,,,,,,,,,,,,1,,,,,,,,,,,,,,,,,,,,,,,,,,,,,,,,,,,,,,,,,,,,,,,,,,,,,,,,,,,,,,,,,,,,,,,,,,1,2023-12-06_11h38.51.026,watkins1,2023.2.3,99.73022978730448,46,2023-12-06 11h38.57.865174 +0000,
,,,0,0,0,0,,,,,,,,,,,,,,,,,,,,,54.02041599992663,,,,,,,,53.00660629989579,54.01043809996918,60.51193719985895,61.00324280001223,54.50247659999877,60.511772099882364,3,1.735944699961692,None,61.00325369997881,67.0072434998583,3,1.735944699961692,None,67.00755099998787,67.00757510005496,67.00758209987544,67.00766539992765,,None,None,67.00782949989662,67.00785089982674,67.00785779999569,67.00793459988199,,,,,,,,,,1,,,,,,,,,,,,,,,,,,,,,,,,,,,,,,,,,,,,,,,,,,,,,,,,,,,,,,,,,,,,,,,,,,,,,,,,,,1,2023-12-06_11h38.51.026,watkins1,2023.2.3,99.73022978730448,46,2023-12-06 11h38.57.865174 +0000,
,,,,,,,,,,,,,,,,,,,,,,,,,,,,,,,,,,,,,,,,,,,,,,,,,,,,,,,,,,,,,67.00806370005012,74.76639699982479,,,,,,,1,,,,,,,,,,,,,,,,,,,,,,,,,,,,,,,,,,,,,,,,,,,,,,,,,,,,,,,,,,,,,,,,,,,,,,,,,,1,2023-12-06_11h38.51.026,watkins1,2023.2.3,99.73022978730448,46,2023-12-06 11h38.57.865174 +0000,
,,,,,,,0,0,0,0,,,,,,,,,,,,,,,,,75.780195399886,,,,,,,,74.76641469984315,75.77021769993007,75.77066019992344,76.26226729992777,,,3,1.4366281998809427,,,,,,,,,,,,,,,,,,,,,76.26227850001305,82.26552749983966,Kiste,praktisch,"['Kiste', 'praktisch']",restudy_diff,1,"['Kiste', 'Hut', 'Stift', 'Trommel', 'Jacke', 'Würfel', 'Uhr', 'Vase', 'Hammer', 'Blume', 'Kamera', 'Tasche', 'Ring', 'Buch', 'Brille', 'Geige', 'Löffel', 'Flasche', 'Rucksack', 'Eimer', 'Schere', 'Bürste']",['praktisch'],3,1.4366281998809427,None,,,,,,,,,,,,,,,,,,,,,,,,,,,,,,,,,,,,,,,,,,,,,,,,,,,,,,,,,,,,,,,,,,,,,1,2023-12-06_11h38.51.026,watkins1,2023.2.3,99.73022978730448,46,2023-12-06 11h38.57.865174 +0000,
,,,,,,,1,0,1,0,,,,,,,,,,,,,,,,,82.27500619995408,,,,,,,,,,82.26613499992527,82.7570132999681,,,1,3.691047800006345,,,,,,,,,,,,,,,,,,,,,82.75702459993772,88.76042989990674,Hut,rustikal,"['Hut', 'rustikal']",restudy_diff,1,"['Kiste', 'Hut', 'Stift', 'Trommel', 'Jacke', 'Würfel', 'Uhr', 'Vase', 'Hammer', 'Blume', 'Kamera', 'Tasche', 'Ring', 'Buch', 'Brille', 'Geige', 'Löffel', 'Flasche', 'Rucksack', 'Eimer', 'Schere', 'Bürste']","['praktisch', 'rustikal']",1,3.691047800006345,None,,,,,,,,,,,,,,,,,,,,,,,,,,,,,,,,,,,,,,,,,,,,,,,,,,,,,,,,,,,,,,,,,,,,,1,2023-12-06_11h38.51.026,watkins1,2023.2.3,99.73022978730448,46,2023-12-06 11h38.57.865174 +0000,
,,,,,,,2,0,2,0,,,,,,,,,,,,,,,,,88.76999909989536,,,,,,,,,,88.76091149984859,89.25197029998526,,,2,4.4120936000254005,,,,,,,,,,,,,,,,,,,,,89.25198069983162,95.25744429999031,Stift,blass,"['Stift', 'blass']",restudy_diff,1,"['Kiste', 'Hut', 'Stift', 'Trommel', 'Jacke', 'Würfel', 'Uhr', 'Vase', 'Hammer', 'Blume', 'Kamera', 'Tasche', 'Ring', 'Buch', 'Brille', 'Geige', 'Löffel', 'Flasche', 'Rucksack', 'Eimer', 'Schere', 'Bürste']","['praktisch', 'rustikal', 'blass']",2,4.4120936000254005,None,,,,,,,,,,,,,,,,,,,,,,,,,,,,,,,,,,,,,,,,,,,,,,,,,,,,,,,,,,,,,,,,,,,,,1,2023-12-06_11h38.51.026,watkins1,2023.2.3,99.73022978730448,46,2023-12-06 11h38.57.865174 +0000,
,,,,,,,3,0,3,0,,,,,,,,,,,,,,,,,95.26701650000177,,,,,,,,,,95.25791619997472,95.74908320000395,,,None,[],,,,,,,,,,,,,,,,,,,,,95.74909479985945,101.7531426998321,Trommel,hübsch,"['Trommel', 'hübsch']",restudy_diff,1,"['Kiste', 'Hut', 'Stift', 'Trommel', 'Jacke', 'Würfel', 'Uhr', 'Vase', 'Hammer', 'Blume', 'Kamera', 'Tasche', 'Ring', 'Buch', 'Brille', 'Geige', 'Löffel', 'Flasche', 'Rucksack', 'Eimer', 'Schere', 'Bürste']","['praktisch', 'rustikal', 'blass', 'hübsch']",None,,,,,,,,,,,,,,,,,,,,,,,,,,,,,,,,,,,,,,,,,,,,,,,,,,,,,,,,,,,,,,,,,,,,,,,1,2023-12-06_11h38.51.026,watkins1,2023.2.3,99.73022978730448,46,2023-12-06 11h38.57.865174 +0000,
,,,,,,,4,0,4,0,,,,,,,,,,,,,,,,,101.76260249991901,,,,,,,,,,101.75354820000939,102.24471660004929,,,1,1.5958228998351842,,,,,,,,,,,,,,,,,,,,,102.24472719989717,108.24529389990494,Jacke,krumm,"['Jacke', 'krumm']",restudy_diff,1,"['Kiste', 'Hut', 'Stift', 'Trommel', 'Jacke', 'Würfel', 'Uhr', 'Vase', 'Hammer', 'Blume', 'Kamera', 'Tasche', 'Ring', 'Buch', 'Brille', 'Geige', 'Löffel', 'Flasche', 'Rucksack', 'Eimer', 'Schere', 'Bürste']","['praktisch', 'rustikal', 'blass', 'hübsch', 'krumm']",1,1.5958228998351842,None,,,,,,,,,,,,,,,,,,,,,,,,,,,,,,,,,,,,,,,,,,,,,,,,,,,,,,,,,,,,,,,,,,,,,1,2023-12-06_11h38.51.026,watkins1,2023.2.3,99.73022978730448,46,2023-12-06 11h38.57.865174 +0000,
,,,,,,,5,0,5,0,,,,,,,,,,,,,,,,,108.25473579997197,,,,,,,,,,108.2457930999808,108.73687949986197,,,1,2.63980309991166,,,,,,,,,,,,,,,,,,,,,108.73688940005377,114.74492989992723,Würfel,teuer,"['Würfel', 'teuer']",control,1,"['Kiste', 'Hut', 'Stift', 'Trommel', 'Jacke', 'Würfel', 'Uhr', 'Vase', 'Hammer', 'Blume', 'Kamera', 'Tasche', 'Ring', 'Buch', 'Brille', 'Geige', 'Löffel', 'Flasche', 'Rucksack', 'Eimer', 'Schere', 'Bürste']","['praktisch', 'rustikal', 'blass', 'hübsch', 'krumm', 'teuer']",1,2.63980309991166,None,,,,,,,,,,,,,,,,,,,,,,,,,,,,,,,,,,,,,,,,,,,,,,,,,,,,,,,,,,,,,,,,,,,,,1,2023-12-06_11h38.51.026,watkins1,2023.2.3,99.73022978730448,46,2023-12-06 11h38.57.865174 +0000,
,,,,,,,6,0,6,0,,,,,,,,,,,,,,,,,114.75438919989392,,,,,,,,,,114.74550439999439,115.23639209987596,,,2,4.043551200069487,,,,,,,,,,,,,,,,,,,,,115.23640219983645,121.23898969986476,Uhr,strahlend,"['Uhr', 'strahlend']",restudy_diff,1,"['Kiste', 'Hut', 'Stift', 'Trommel', 'Jacke', 'Würfel', 'Uhr', 'Vase', 'Hammer', 'Blume', 'Kamera', 'Tasche', 'Ring', 'Buch', 'Brille', 'Geige', 'Löffel', 'Flasche', 'Rucksack', 'Eimer', 'Schere', 'Bürste']","['praktisch', 'rustikal', 'blass', 'hübsch', 'krumm', 'teuer', 'strahlend']",2,4.043551200069487,None,,,,,,,,,,,,,,,,,,,,,,,,,,,,,,,,,,,,,,,,,,,,,,,,,,,,,,,,,,,,,,,,,,,,,1,2023-12-06_11h38.51.026,watkins1,2023.2.3,99.73022978730448,46,2023-12-06 11h38.57.865174 +0000,
,,,,,,,7,0,7,0,,,,,,,,,,,,,,,,,121.24844089988619,,,,,,,,,,121.23946730000898,121.73051410005428,,,1,3.1501255999319255,,,,,,,,,,,,,,,,,,,,,121.73052460001782,127.73136950004846,Vase,flach,"['Vase', 'flach']",restudy_diff,1,"['Kiste', 'Hut', 'Stift', 'Trommel', 'Jacke', 'Würfel', 'Uhr', 'Vase', 'Hammer', 'Blume', 'Kamera', 'Tasche', 'Ring', 'Buch', 'Brille', 'Geige', 'Löffel', 'Flasche', 'Rucksack', 'Eimer', 'Schere', 'Bürste']","['praktisch', 'rustikal', 'blass', 'hübsch', 'krumm', 'teuer', 'strahlend', 'flach']",1,3.1501255999319255,None,,,,,,,,,,,,,,,,,,,,,,,,,,,,,,,,,,,,,,,,,,,,,,,,,,,,,,,,,,,,,,,,,,,,,1,2023-12-06_11h38.51.026,watkins1,2023.2.3,99.73022978730448,46,2023-12-06 11h38.57.865174 +0000,
,,,,,,,8,0,8,0,,,,,,,,,,,,,,,,,127.74084339989349,,,,,,,,,,127.7318474999629,128.2228194999043,,,1,1.370573899941519,,,,,,,,,,,,,,,,,,,,,128.22282969998196,134.23324940004386,Hammer,niedlich,"['Hammer', 'niedlich']",restudy_diff,1,"['Kiste', 'Hut', 'Stift', 'Trommel', 'Jacke', 'Würfel', 'Uhr', 'Vase', 'Hammer', 'Blume', 'Kamera', 'Tasche', 'Ring', 'Buch', 'Brille', 'Geige', 'Löffel', 'Flasche', 'Rucksack', 'Eimer', 'Schere', 'Bürste']","['praktisch', 'rustikal', 'blass', 'hübsch', 'krumm', 'teuer', 'strahlend', 'flach', 'niedlich']",1,1.370573899941519,None,,,,,,,,,,,,,,,,,,,,,,,,,,,,,,,,,,,,,,,,,,,,,,,,,,,,,,,,,,,,,,,,,,,,,1,2023-12-06_11h38.51.026,watkins1,2023.2.3,99.73022978730448,46,2023-12-06 11h38.57.865174 +0000,
,,,,,,,9,0,9,0,,,,,,,,,,,,,,,,,134.24269680003636,,,,,,,,,,134.23372939997353,134.72479519993067,,,1,2.2517059000674635,,,,,,,,,,,,,,,,,,,,,134.72480629989877,140.72556920000352,Blume,sauber,"['Blume', 'sauber']",control,1,"['Kiste', 'Hut', 'Stift', 'Trommel', 'Jacke', 'Würfel', 'Uhr', 'Vase', 'Hammer', 'Blume', 'Kamera', 'Tasche', 'Ring', 'Buch', 'Brille', 'Geige', 'Löffel', 'Flasche', 'Rucksack', 'Eimer', 'Schere', 'Bürste']","['praktisch', 'rustikal', 'blass', 'hübsch', 'krumm', 'teuer', 'strahlend', 'flach', 'niedlich', 'sauber']",1,2.2517059000674635,None,,,,,,,,,,,,,,,,,,,,,,,,,,,,,,,,,,,,,,,,,,,,,,,,,,,,,,,,,,,,,,,,,,,,,1,2023-12-06_11h38.51.026,watkins1,2023.2.3,99.73022978730448,46,2023-12-06 11h38.57.865174 +0000,
,,,,,,,10,0,10,0,,,,,,,,,,,,,,,,,140.73502289992757,,,,,,,,,,140.72604199987836,141.21715499996208,,,2,2.271138400072232,,,,,,,,,,,,,,,,,,,,,141.21716609993018,147.22722360002808,Kamera,nachhaltig,"['Kamera', 'nachhaltig']",restudy_diff,1,"['Kiste', 'Hut', 'Stift', 'Trommel', 'Jacke', 'Würfel', 'Uhr', 'Vase', 'Hammer', 'Blume', 'Kamera', 'Tasche', 'Ring', 'Buch', 'Brille', 'Geige', 'Löffel', 'Flasche', 'Rucksack', 'Eimer', 'Schere', 'Bürste']","['praktisch', 'rustikal', 'blass', 'hübsch', 'krumm', 'teuer', 'strahlend', 'flach', 'niedlich', 'sauber', 'nachhaltig']",2,2.271138400072232,None,,,,,,,,,,,,,,,,,,,,,,,,,,,,,,,,,,,,,,,,,,,,,,,,,,,,,,,,,,,,,,,,,,,,,1,2023-12-06_11h38.51.026,watkins1,2023.2.3,99.73022978730448,46,2023-12-06 11h38.57.865174 +0000,
,,,,,,,11,0,11,0,,,,,,,,,,,,,,,,,147.23670449992642,,,,,,,,,,147.22769599989988,147.7187144998461,,,2,2.2896052999421954,,,,,,,,,,,,,,,,,,,,,147.71872500004247,153.72374639986083,Tasche,winzig,"['Tasche', 'winzig']",control,1,"['Kiste', 'Hut', 'Stift', 'Trommel', 'Jacke', 'Würfel', 'Uhr', 'Vase', 'Hammer', 'Blume', 'Kamera', 'Tasche', 'Ring', 'Buch', 'Brille', 'Geige', 'Löffel', 'Flasche', 'Rucksack', 'Eimer', 'Schere', 'Bürste']","['praktisch', 'rustikal', 'blass', 'hübsch', 'krumm', 'teuer', 'strahlend', 'flach', 'niedlich', 'sauber', 'nachhaltig', 'winzig']",2,2.2896052999421954,None,,,,,,,,,,,,,,,,,,,,,,,,,,,,,,,,,,,,,,,,,,,,,,,,,,,,,,,,,,,,,,,,,,,,,1,2023-12-06_11h38.51.026,watkins1,2023.2.3,99.73022978730448,46,2023-12-06 11h38.57.865174 +0000,
,,,,,,,12,0,12,0,,,,,,,,,,,,,,,,,153.73332530003972,,,,,,,,,,153.72421359992586,154.2152612998616,,,2,3.0097467999439687,,,,,,,,,,,,,,,,,,,,,154.21527209994383,160.2254669999238,Ring,gut,"['Ring', 'gut']",control,1,"['Kiste', 'Hut', 'Stift', 'Trommel', 'Jacke', 'Würfel', 'Uhr', 'Vase', 'Hammer', 'Blume', 'Kamera', 'Tasche', 'Ring', 'Buch', 'Brille', 'Geige', 'Löffel', 'Flasche', 'Rucksack', 'Eimer', 'Schere', 'Bürste']","['praktisch', 'rustikal', 'blass', 'hübsch', 'krumm', 'teuer', 'strahlend', 'flach', 'niedlich', 'sauber', 'nachhaltig', 'winzig', 'gut']",2,3.0097467999439687,None,,,,,,,,,,,,,,,,,,,,,,,,,,,,,,,,,,,,,,,,,,,,,,,,,,,,,,,,,,,,,,,,,,,,,1,2023-12-06_11h38.51.026,watkins1,2023.2.3,99.73022978730448,46,2023-12-06 11h38.57.865174 +0000,
,,,,,,,13,0,13,0,,,,,,,,,,,,,,,,,160.2350010999944,,,,,,,,,,160.22593860002235,160.71705959993415,,,2,3.5965223000384867,,,,,,,,,,,,,,,,,,,,,160.7170696000103,166.7206039999146,Buch,klobig,"['Buch', 'klobig']",restudy_diff,1,"['Kiste', 'Hut', 'Stift', 'Trommel', 'Jacke', 'Würfel', 'Uhr', 'Vase', 'Hammer', 'Blume', 'Kamera', 'Tasche', 'Ring', 'Buch', 'Brille', 'Geige', 'Löffel', 'Flasche', 'Rucksack', 'Eimer', 'Schere', 'Bürste']","['praktisch', 'rustikal', 'blass', 'hübsch', 'krumm', 'teuer', 'strahlend', 'flach', 'niedlich', 'sauber', 'nachhaltig', 'winzig', 'gut', 'klobig']",2,3.5965223000384867,None,,,,,,,,,,,,,,,,,,,,,,,,,,,,,,,,,,,,,,,,,,,,,,,,,,,,,,,,,,,,,,,,,,,,,1,2023-12-06_11h38.51.026,watkins1,2023.2.3,99.73022978730448,46,2023-12-06 11h38.57.865174 +0000,
,,,,,,,14,0,14,0,,,,,,,,,,,,,,,,,166.73000129987486,,,,,,,,,,166.72108199982904,167.2121107999701,,,2,4.197318299906328,,,,,,,,,,,,,,,,,,,,,167.2121212000493,173.21681390004233,Brille,dick,"['Brille', 'dick']",restudy_diff,1,"['Kiste', 'Hut', 'Stift', 'Trommel', 'Jacke', 'Würfel', 'Uhr', 'Vase', 'Hammer', 'Blume', 'Kamera', 'Tasche', 'Ring', 'Buch', 'Brille', 'Geige', 'Löffel', 'Flasche', 'Rucksack', 'Eimer', 'Schere', 'Bürste']","['praktisch', 'rustikal', 'blass', 'hübsch', 'krumm', 'teuer', 'strahlend', 'flach', 'niedlich', 'sauber', 'nachhaltig', 'winzig', 'gut', 'klobig', 'dick']",2,4.197318299906328,None,,,,,,,,,,,,,,,,,,,,,,,,,,,,,,,,,,,,,,,,,,,,,,,,,,,,,,,,,,,,,,,,,,,,,1,2023-12-06_11h38.51.026,watkins1,2023.2.3,99.73022978730448,46,2023-12-06 11h38.57.865174 +0000,
,,,,,,,15,0,15,0,,,,,,,,,,,,,,,,,173.22627900005318,,,,,,,,,,173.21728500002064,173.70823669992387,,,2,4.71612500003539,,,,,,,,,,,,,,,,,,,,,173.7082469998859,179.70944919995964,Geige,gestreift,"['Geige', 'gestreift']",restudy_diff,1,"['Kiste', 'Hut', 'Stift', 'Trommel', 'Jacke', 'Würfel', 'Uhr', 'Vase', 'Hammer', 'Blume', 'Kamera', 'Tasche', 'Ring', 'Buch', 'Brille', 'Geige', 'Löffel', 'Flasche', 'Rucksack', 'Eimer', 'Schere', 'Bürste']","['praktisch', 'rustikal', 'blass', 'hübsch', 'krumm', 'teuer', 'strahlend', 'flach', 'niedlich', 'sauber', 'nachhaltig', 'winzig', 'gut', 'klobig', 'dick', 'gestreift']",2,4.71612500003539,None,,,,,,,,,,,,,,,,,,,,,,,,,,,,,,,,,,,,,,,,,,,,,,,,,,,,,,,,,,,,,,,,,,,,,1,2023-12-06_11h38.51.026,watkins1,2023.2.3,99.73022978730448,46,2023-12-06 11h38.57.865174 +0000,
,,,,,,,16,0,16,0,,,,,,,,,,,,,,,,,179.71889470005408,,,,,,,,,,179.70992239983752,180.2009262999054,,,1,1.8869849999900907,,,,,,,,,,,,,,,,,,,,,180.20093649998307,186.20457689999603,Löffel,durchsichtig,"['Löffel', 'durchsichtig']",restudy_diff,1,"['Kiste', 'Hut', 'Stift', 'Trommel', 'Jacke', 'Würfel', 'Uhr', 'Vase', 'Hammer', 'Blume', 'Kamera', 'Tasche', 'Ring', 'Buch', 'Brille', 'Geige', 'Löffel', 'Flasche', 'Rucksack', 'Eimer', 'Schere', 'Bürste']","['praktisch', 'rustikal', 'blass', 'hübsch', 'krumm', 'teuer', 'strahlend', 'flach', 'niedlich', 'sauber', 'nachhaltig', 'winzig', 'gut', 'klobig', 'dick', 'gestreift', 'durchsichtig']",1,1.8869849999900907,None,,,,,,,,,,,,,,,,,,,,,,,,,,,,,,,,,,,,,,,,,,,,,,,,,,,,,,,,,,,,,,,,,,,,,1,2023-12-06_11h38.51.026,watkins1,2023.2.3,99.73022978730448,46,2023-12-06 11h38.57.865174 +0000,
,,,,,,,17,0,17,0,,,,,,,,,,,,,,,,,186.21405069995672,,,,,,,,,,186.20504969987087,186.69604019983672,,,3,1.4006912999320775,,,,,,,,,,,,,,,,,,,,,186.696049900027,192.69833599985577,Flasche,kalt,"['Flasche', 'kalt']",control,1,"['Kiste', 'Hut', 'Stift', 'Trommel', 'Jacke', 'Würfel', 'Uhr', 'Vase', 'Hammer', 'Blume', 'Kamera', 'Tasche', 'Ring', 'Buch', 'Brille', 'Geige', 'Löffel', 'Flasche', 'Rucksack', 'Eimer', 'Schere', 'Bürste']","['praktisch', 'rustikal', 'blass', 'hübsch', 'krumm', 'teuer', 'strahlend', 'flach', 'niedlich', 'sauber', 'nachhaltig', 'winzig', 'gut', 'klobig', 'dick', 'gestreift', 'durchsichtig', 'kalt']",3,1.4006912999320775,None,,,,,,,,,,,,,,,,,,,,,,,,,,,,,,,,,,,,,,,,,,,,,,,,,,,,,,,,,,,,,,,,,,,,,1,2023-12-06_11h38.51.026,watkins1,2023.2.3,99.73022978730448,46,2023-12-06 11h38.57.865174 +0000,
,,,,,,,18,0,18,0,,,,,,,,,,,,,,,,,192.70776709984057,,,,,,,,,,192.6988132998813,193.19002209999599,,,2,4.315430200193077,,,,,,,,,,,,,,,,,,,,,193.19003359996714,199.1987809999846,Rucksack,kaputt,"['Rucksack', 'kaputt']",restudy_diff,1,"['Kiste', 'Hut', 'Stift', 'Trommel', 'Jacke', 'Würfel', 'Uhr', 'Vase', 'Hammer', 'Blume', 'Kamera', 'Tasche', 'Ring', 'Buch', 'Brille', 'Geige', 'Löffel', 'Flasche', 'Rucksack', 'Eimer', 'Schere', 'Bürste']","['praktisch', 'rustikal', 'blass', 'hübsch', 'krumm', 'teuer', 'strahlend', 'flach', 'niedlich', 'sauber', 'nachhaltig', 'winzig', 'gut', 'klobig', 'dick', 'gestreift', 'durchsichtig', 'kalt', 'kaputt']",2,4.315430200193077,None,,,,,,,,,,,,,,,,,,,,,,,,,,,,,,,,,,,,,,,,,,,,,,,,,,,,,,,,,,,,,,,,,,,,,1,2023-12-06_11h38.51.026,watkins1,2023.2.3,99.73022978730448,46,2023-12-06 11h38.57.865174 +0000,
,,,,,,,19,0,19,0,,,,,,,,,,,,,,,,,199.2082161998842,,,,,,,,,,199.1992577998899,199.69047709996812,,,1,1.3091621999628842,,,,,,,,,,,,,,,,,,,,,199.6904892998282,205.69916550000198,Eimer,elegant,"['Eimer', 'elegant']",restudy_diff,1,"['Kiste', 'Hut', 'Stift', 'Trommel', 'Jacke', 'Würfel', 'Uhr', 'Vase', 'Hammer', 'Blume', 'Kamera', 'Tasche', 'Ring', 'Buch', 'Brille', 'Geige', 'Löffel', 'Flasche', 'Rucksack', 'Eimer', 'Schere', 'Bürste']","['praktisch', 'rustikal', 'blass', 'hübsch', 'krumm', 'teuer', 'strahlend', 'flach', 'niedlich', 'sauber', 'nachhaltig', 'winzig', 'gut', 'klobig', 'dick', 'gestreift', 'durchsichtig', 'kalt', 'kaputt', 'elegant']",1,1.3091621999628842,None,,,,,,,,,,,,,,,,,,,,,,,,,,,,,,,,,,,,,,,,,,,,,,,,,,,,,,,,,,,,,,,,,,,,,1,2023-12-06_11h38.51.026,watkins1,2023.2.3,99.73022978730448,46,2023-12-06 11h38.57.865174 +0000,
,,,,,,,20,0,20,0,,,,,,,,,,,,,,,,,205.70863969996572,,,,,,,,,,205.6996573000215,206.1905906999018,,,3,3.5619596000760794,,,,,,,,,,,,,,,,,,,,,206.19060049997643,212.1935315998271,Schere,verspielt,"['Schere', 'verspielt']",control,1,"['Kiste', 'Hut', 'Stift', 'Trommel', 'Jacke', 'Würfel', 'Uhr', 'Vase', 'Hammer', 'Blume', 'Kamera', 'Tasche', 'Ring', 'Buch', 'Brille', 'Geige', 'Löffel', 'Flasche', 'Rucksack', 'Eimer', 'Schere', 'Bürste']","['praktisch', 'rustikal', 'blass', 'hübsch', 'krumm', 'teuer', 'strahlend', 'flach', 'niedlich', 'sauber', 'nachhaltig', 'winzig', 'gut', 'klobig', 'dick', 'gestreift', 'durchsichtig', 'kalt', 'kaputt', 'elegant', 'verspielt']",3,3.5619596000760794,None,,,,,,,,,,,,,,,,,,,,,,,,,,,,,,,,,,,,,,,,,,,,,,,,,,,,,,,,,,,,,,,,,,,,,1,2023-12-06_11h38.51.026,watkins1,2023.2.3,99.73022978730448,46,2023-12-06 11h38.57.865174 +0000,
,,,,,,,21,0,21,0,,,,,,,,,,,,,,,,,212.20300119998865,,,,,,,,,,212.19401219999418,212.68510350002907,,,3,3.56423609983176,,,,,,,,,,,,,,,,,,,,,212.68511389987543,218.68720990000293,Bürste,glatt,"['Bürste', 'glatt']",control,1,"['Kiste', 'Hut', 'Stift', 'Trommel', 'Jacke', 'Würfel', 'Uhr', 'Vase', 'Hammer', 'Blume', 'Kamera', 'Tasche', 'Ring', 'Buch', 'Brille', 'Geige', 'Löffel', 'Flasche', 'Rucksack', 'Eimer', 'Schere', 'Bürste']","['praktisch', 'rustikal', 'blass', 'hübsch', 'krumm', 'teuer', 'strahlend', 'flach', 'niedlich', 'sauber', 'nachhaltig', 'winzig', 'gut', 'klobig', 'dick', 'gestreift', 'durchsichtig', 'kalt', 'kaputt', 'elegant', 'verspielt', 'glatt']",3,3.56423609983176,None,,,,,,,,,,,,,,,,,,,,,,,,,,,,,,,,,,,,,,,,,,,,,,,,,,,,,,,,,,,,,,,,,,,,,1,2023-12-06_11h38.51.026,watkins1,2023.2.3,99.73022978730448,46,2023-12-06 11h38.57.865174 +0000,
,,,,,,,,,,,0,0,0,0,,,,,,,,,,,,,218.69667299999855,,,,,,,,,,218.6880049998872,219.1787763000466,,,2,3.4320197000633925,,,,,,,,,,,,None,None,,,,,,,,,,Trommel,lustig,"['Trommel', 'lustig']",restudy_diff,1,,,,,,218.6879316000268,218.68798079993576,"['Trommel', 'Vase', 'Buch', 'Hammer', 'Schlüssel', 'Hut', 'Telefon', 'Rucksack', 'Eimer', 'Kette', 'Jacke', 'Uhr', 'Kerze', 'Lampe', 'Geige', 'Löffel', 'Socke', 'Fahrrad', 'Brille', 'Stift', 'Kamera', 'Kiste', 'Tasse']",219.17878729989752,219.18151889997534,None,219.1816908000037,219.18446589983068,None,219.18461350002326,225.1880975998938,2,3.4320197000633925,None,225.18848789995536,225.18990799994208,225.1899200999178,225.19111369992606,,,,,,,,,,,,,,,,,,,,,,,,,,,,,,,,,,,,,,,,,,,,,,,,,,,1,2023-12-06_11h38.51.026,watkins1,2023.2.3,99.73022978730448,46,2023-12-06 11h38.57.865174 +0000,
,,,,,,,,,,,1,0,1,0,,,,,,,,,,,,,225.19757679989561,,,,,,,,,,225.1913840000052,225.68973660003394,,,3,1.466876900056377,,,,,,,,,,,,None,None,,,,,,,,,,Vase,nass,"['Vase', 'nass']",restudy_diff,1,,,,,,225.1913195999805,225.19135749991983,"['Trommel', 'Vase', 'Buch', 'Hammer', 'Schlüssel', 'Hut', 'Telefon', 'Rucksack', 'Eimer', 'Kette', 'Jacke', 'Uhr', 'Kerze', 'Lampe', 'Geige', 'Löffel', 'Socke', 'Fahrrad', 'Brille', 'Stift', 'Kamera', 'Kiste', 'Tasse']",225.6897469998803,225.69236540002748,None,225.6924816998653,225.69492639997043,None,225.69502959982492,231.70024539995939,3,1.466876900056377,None,231.70051969983615,231.70178909995593,231.70180119993165,231.7028618999757,,,,,,,,,,,,,,,,,,,,,,,,,,,,,,,,,,,,,,,,,,,,,,,,,,,1,2023-12-06_11h38.51.026,watkins1,2023.2.3,99.73022978730448,46,2023-12-06 11h38.57.865174 +0000,
,,,,,,,,,,,2,0,2,0,,,,,,,,,,,,,231.709722999949,,,,,,,,,,231.7031290999148,232.2018170999363,,,2,2.043123399838805,,,,,,,,,,,,None,None,,,,,,,,,,Buch,robust,"['Buch', 'robust']",restudy_diff,1,,,,,,231.7030650000088,231.7031024999451,"['Trommel', 'Vase', 'Buch', 'Hammer', 'Schlüssel', 'Hut', 'Telefon', 'Rucksack', 'Eimer', 'Kette', 'Jacke', 'Uhr', 'Kerze', 'Lampe', 'Geige', 'Löffel', 'Socke', 'Fahrrad', 'Brille', 'Stift', 'Kamera', 'Kiste', 'Tasse']",232.2018281999044,232.20432609994896,None,232.2044450000394,232.20687719993293,None,232.20698579982854,238.21508189989254,2,2.043123399838805,None,238.21535960002802,238.21655409992673,238.2165657998994,238.21777149988338,,,,,,,,,,,,,,,,,,,,,,,,,,,,,,,,,,,,,,,,,,,,,,,,,,,1,2023-12-06_11h38.51.026,watkins1,2023.2.3,99.73022978730448,46,2023-12-06 11h38.57.865174 +0000,
,,,,,,,,,,,3,0,3,0,,,,,,,,,,,,,238.22451510000974,,,,,,,,,,238.21803799993359,238.7164449999109,,,1,1.8868786999955773,,,,,,,,,,,,None,None,,,,,,,,,,Hammer,gepunktet,"['Hammer', 'gepunktet']",restudy_diff,1,,,,,,238.2179737999104,238.21801189985126,"['Trommel', 'Vase', 'Buch', 'Hammer', 'Schlüssel', 'Hut', 'Telefon', 'Rucksack', 'Eimer', 'Kette', 'Jacke', 'Uhr', 'Kerze', 'Lampe', 'Geige', 'Löffel', 'Socke', 'Fahrrad', 'Brille', 'Stift', 'Kamera', 'Kiste', 'Tasse']",238.7164563999977,238.719304200029,None,238.7194244998973,238.7220763999503,None,238.72218109993264,244.72811120003462,1,1.8868786999955773,None,244.72839159984142,244.72974639991298,244.72975820000283,244.73102790000848,,,,,,,,,,,,,,,,,,,,,,,,,,,,,,,,,,,,,,,,,,,,,,,,,,,1,2023-12-06_11h38.51.026,watkins1,2023.2.3,99.73022978730448,46,2023-12-06 11h38.57.865174 +0000,
,,,,,,,,,,,4,0,4,0,,,,,,,,,,,,,244.7375713000074,,,,,,,,,,244.7313007998746,245.2296384999063,,,[],[],,,,,,,,,,,,None,None,,,,,,,,,,Schlüssel,matt,"['Schlüssel', 'matt']",control,1,,,,,,244.731236099964,244.73127410002053,"['Trommel', 'Vase', 'Buch', 'Hammer', 'Schlüssel', 'Hut', 'Telefon', 'Rucksack', 'Eimer', 'Kette', 'Jacke', 'Uhr', 'Kerze', 'Lampe', 'Geige', 'Löffel', 'Socke', 'Fahrrad', 'Brille', 'Stift', 'Kamera', 'Kiste', 'Tasse']",245.22964999987744,251.23299010004848,1,251.23334100004286,251.23604179988615,None,251.23615520005114,251.23866140004247,None,,,251.23876450001262,251.24002339993604,251.2400348999072,251.24108859989792,3.096499799983576,None,,,,,,,,,,,,,,,,,,,,,,,,,,,,,,,,,,,,,,,,,,,,,,,,,1,2023-12-06_11h38.51.026,watkins1,2023.2.3,99.73022978730448,46,2023-12-06 11h38.57.865174 +0000,
,,,,,,,,,,,5,0,5,0,,,,,,,,,,,,,251.24468620005064,,,,,,,,,,251.2413623998873,251.73765609995462,,,3,3.299880600068718,,,,,,,,,,,,None,None,,,,,,,,,,Hut,hässlich,"['Hut', 'hässlich']",restudy_diff,1,,,,,,251.24129729997367,251.24133659992367,"['Trommel', 'Vase', 'Buch', 'Hammer', 'Schlüssel', 'Hut', 'Telefon', 'Rucksack', 'Eimer', 'Kette', 'Jacke', 'Uhr', 'Kerze', 'Lampe', 'Geige', 'Löffel', 'Socke', 'Fahrrad', 'Brille', 'Stift', 'Kamera', 'Kiste', 'Tasse']",251.73766670003533,251.7391190000344,None,251.7392351999879,251.7405566999223,None,251.74065879988484,257.74921409995295,3,3.299880600068718,None,257.74948959983885,257.75065019982867,257.7506619000342,257.75190849998035,,,,,,,,,,,,,,,,,,,,,,,,,,,,,,,,,,,,,,,,,,,,,,,,,,,1,2023-12-06_11h38.51.026,watkins1,2023.2.3,99.73022978730448,46,2023-12-06 11h38.57.865174 +0000,
,,,,,,,,,,,6,0,6,0,,,,,,,,,,,,,257.75862289988436,,,,,,,,,,257.75217749993317,258.25090969982557,,,[],[],,,,,,,,,,,,None,None,,,,,,,,,,Telefon,dunkel,"['Telefon', 'dunkel']",control,1,,,,,,257.752113699913,257.7521519998554,"['Trommel', 'Vase', 'Buch', 'Hammer', 'Schlüssel', 'Hut', 'Telefon', 'Rucksack', 'Eimer', 'Kette', 'Jacke', 'Uhr', 'Kerze', 'Lampe', 'Geige', 'Löffel', 'Socke', 'Fahrrad', 'Brille', 'Stift', 'Kamera', 'Kiste', 'Tasse']",258.250920600025,264.2514485998545,2,264.2517254999839,264.2546160998754,None,264.25472079985775,264.2572977999225,None,,,264.25740020000376,264.25868609989993,264.25869829999283,264.259917399846,2.2702781001571566,None,,,,,,,,,,,,,,,,,,,,,,,,,,,,,,,,,,,,,,,,,,,,,,,,,1,2023-12-06_11h38.51.026,watkins1,2023.2.3,99.73022978730448,46,2023-12-06 11h38.57.865174 +0000,
,,,,,,,,,,,7,0,7,0,,,,,,,,,,,,,264.26351589988917,,,,,,,,,,264.2601862999145,264.75696629984304,,,3,1.4009003001265228,,,,,,,,,,,,None,None,,,,,,,,,,Rucksack,bunt,"['Rucksack', 'bunt']",restudy_diff,1,,,,,,264.2601230000146,264.2601619998459,"['Trommel', 'Vase', 'Buch', 'Hammer', 'Schlüssel', 'Hut', 'Telefon', 'Rucksack', 'Eimer', 'Kette', 'Jacke', 'Uhr', 'Kerze', 'Lampe', 'Geige', 'Löffel', 'Socke', 'Fahrrad', 'Brille', 'Stift', 'Kamera', 'Kiste', 'Tasse']",264.756977800047,264.7586935998406,None,264.75881260004826,264.76033860002644,None,264.7604455000255,270.7630855999887,3,1.4009003001265228,None,270.76336229988374,270.76472579990514,270.76473769987933,270.7657947000116,,,,,,,,,,,,,,,,,,,,,,,,,,,,,,,,,,,,,,,,,,,,,,,,,,,1,2023-12-06_11h38.51.026,watkins1,2023.2.3,99.73022978730448,46,2023-12-06 11h38.57.865174 +0000,
,,,,,,,,,,,8,0,8,0,,,,,,,,,,,,,270.7726707998663,,,,,,,,,,270.7660631998442,271.264713200042,,,1,2.715759400045499,,,,,,,,,,,,None,None,,,,,,,,,,Eimer,neu,"['Eimer', 'neu']",restudy_diff,1,,,,,,270.7659997998271,270.7660375998821,"['Trommel', 'Vase', 'Buch', 'Hammer', 'Schlüssel', 'Hut', 'Telefon', 'Rucksack', 'Eimer', 'Kette', 'Jacke', 'Uhr', 'Kerze', 'Lampe', 'Geige', 'Löffel', 'Socke', 'Fahrrad', 'Brille', 'Stift', 'Kamera', 'Kiste', 'Tasse']",271.2647235998884,271.26729390001856,None,271.2674137998838,271.2698087999597,None,271.26991020003334,277.27343519986607,1,2.715759400045499,None,277.2737111998722,277.27518299990334,277.2751949999947,277.2762433998287,,,,,,,,,,,,,,,,,,,,,,,,,,,,,,,,,,,,,,,,,,,,,,,,,,,1,2023-12-06_11h38.51.026,watkins1,2023.2.3,99.73022978730448,46,2023-12-06 11h38.57.865174 +0000,
,,,,,,,,,,,9,0,9,0,,,,,,,,,,,,,277.2828328998294,,,,,,,,,,277.2765156000387,277.7752849999815,,,[],[],,,,,,,,,,,,None,None,,,,,,,,,,Kette,schmutzig,"['Kette', 'schmutzig']",control,1,,,,,,277.27645049989223,277.2764888999518,"['Trommel', 'Vase', 'Buch', 'Hammer', 'Schlüssel', 'Hut', 'Telefon', 'Rucksack', 'Eimer', 'Kette', 'Jacke', 'Uhr', 'Kerze', 'Lampe', 'Geige', 'Löffel', 'Socke', 'Fahrrad', 'Brille', 'Stift', 'Kamera', 'Kiste', 'Tasse']",277.77529579983093,283.7797172998544,1,283.7799881999381,283.7828684998676,None,283.78297419985756,283.78557159984484,None,,,283.7856741999276,283.7868407999631,283.7868526999373,283.78812059992924,1.9942061000037938,None,,,,,,,,,,,,,,,,,,,,,,,,,,,,,,,,,,,,,,,,,,,,,,,,,1,2023-12-06_11h38.51.026,watkins1,2023.2.3,99.73022978730448,46,2023-12-06 11h38.57.865174 +0000,
,,,,,,,,,,,10,0,10,0,,,,,,,,,,,,,283.7917591999285,,,,,,,,,,283.78839479992166,284.2852237999905,,,2,4.016949200071394,,,,,,,,,,,,None,None,,,,,,,,,,Jacke,breit,"['Jacke', 'breit']",restudy_diff,1,,,,,,283.78832879988477,283.7883702998515,"['Trommel', 'Vase', 'Buch', 'Hammer', 'Schlüssel', 'Hut', 'Telefon', 'Rucksack', 'Eimer', 'Kette', 'Jacke', 'Uhr', 'Kerze', 'Lampe', 'Geige', 'Löffel', 'Socke', 'Fahrrad', 'Brille', 'Stift', 'Kamera', 'Kiste', 'Tasse']",284.2852345998399,284.2868222000543,None,284.28693800000474,284.2883782000281,None,284.28848039987497,290.2974239999894,2,4.016949200071394,None,290.2977048000321,290.29901269986294,290.2990244999528,290.30020069982857,,,,,,,,,,,,,,,,,,,,,,,,,,,,,,,,,,,,,,,,,,,,,,,,,,,1,2023-12-06_11h38.51.026,watkins1,2023.2.3,99.73022978730448,46,2023-12-06 11h38.57.865174 +0000,
,,,,,,,,,,,11,0,11,0,,,,,,,,,,,,,290.30693329987116,,,,,,,,,,290.30047330004163,290.79928030003794,,,2,2.2686731999274343,,,,,,,,,,,,None,None,,,,,,,,,,Uhr,kratzig,"['Uhr', 'kratzig']",restudy_diff,1,,,,,,290.3004077998921,290.3004463999532,"['Trommel', 'Vase', 'Buch', 'Hammer', 'Schlüssel', 'Hut', 'Telefon', 'Rucksack', 'Eimer', 'Kette', 'Jacke', 'Uhr', 'Kerze', 'Lampe', 'Geige', 'Löffel', 'Socke', 'Fahrrad', 'Brille', 'Stift', 'Kamera', 'Kiste', 'Tasse']",290.799291000003,290.8019648999907,None,290.8020835998468,290.804524499923,None,290.8046289999038,296.8052731999196,2,2.2686731999274343,None,296.8055485000368,296.8067145999521,296.80672640004195,296.80794309987687,,,,,,,,,,,,,,,,,,,,,,,,,,,,,,,,,,,,,,,,,,,,,,,,,,,1,2023-12-06_11h38.51.026,watkins1,2023.2.3,99.73022978730448,46,2023-12-06 11h38.57.865174 +0000,
,,,,,,,,,,,12,0,12,0,,,,,,,,,,,,,296.8148457999341,,,,,,,,,,296.8082117999438,297.3068782000337,,,[],[],,,,,,,,,,,,None,None,,,,,,,,,,Kerze,groß,"['Kerze', 'groß']",control,1,,,,,,296.80814810004085,296.8081861999817,"['Trommel', 'Vase', 'Buch', 'Hammer', 'Schlüssel', 'Hut', 'Telefon', 'Rucksack', 'Eimer', 'Kette', 'Jacke', 'Uhr', 'Kerze', 'Lampe', 'Geige', 'Löffel', 'Socke', 'Fahrrad', 'Brille', 'Stift', 'Kamera', 'Kiste', 'Tasse']",297.30688829999417,303.31304239993915,1,303.3133294999134,303.3159086999949,None,303.3160144998692,303.3184183000121,None,,,303.3185214998666,303.31968620000407,303.3196979998611,303.32074550003745,2.1576695998664945,None,,,,,,,,,,,,,,,,,,,,,,,,,,,,,,,,,,,,,,,,,,,,,,,,,1,2023-12-06_11h38.51.026,watkins1,2023.2.3,99.73022978730448,46,2023-12-06 11h38.57.865174 +0000,
,,,,,,,,,,,13,0,13,0,,,,,,,,,,,,,303.3244339998346,,,,,,,,,,303.32101950002834,303.81720639998093,,,[],[],,,,,,,,,,,,None,None,,,,,,,,,,Lampe,hohl,"['Lampe', 'hohl']",control,1,,,,,,303.32095679990016,303.3209951999597,"['Trommel', 'Vase', 'Buch', 'Hammer', 'Schlüssel', 'Hut', 'Telefon', 'Rucksack', 'Eimer', 'Kette', 'Jacke', 'Uhr', 'Kerze', 'Lampe', 'Geige', 'Löffel', 'Socke', 'Fahrrad', 'Brille', 'Stift', 'Kamera', 'Kiste', 'Tasse']",303.81721849995665,309.82092810003087,3,309.82121560000814,309.8237546000164,None,309.8238577998709,309.82624799991027,None,,,309.82634899998084,309.82750929985195,309.82752080005594,309.8285618999507,1.5839285000693053,None,,,,,,,,,,,,,,,,,,,,,,,,,,,,,,,,,,,,,,,,,,,,,,,,,1,2023-12-06_11h38.51.026,watkins1,2023.2.3,99.73022978730448,46,2023-12-06 11h38.57.865174 +0000,
,,,,,,,,,,,14,0,14,0,,,,,,,,,,,,,309.83223970001563,,,,,,,,,,309.8288265999872,310.3248721999116,,,1,1.368877099826932,,,,,,,,,,,,None,None,,,,,,,,,,Geige,sportlich,"['Geige', 'sportlich']",restudy_diff,1,,,,,,309.82876339997165,309.82880249992013,"['Trommel', 'Vase', 'Buch', 'Hammer', 'Schlüssel', 'Hut', 'Telefon', 'Rucksack', 'Eimer', 'Kette', 'Jacke', 'Uhr', 'Kerze', 'Lampe', 'Geige', 'Löffel', 'Socke', 'Fahrrad', 'Brille', 'Stift', 'Kamera', 'Kiste', 'Tasse']",310.32488299999386,310.3264796999283,None,310.32659729989246,310.328213499859,None,310.32831549993716,316.3298275000416,1,1.368877099826932,None,316.3301074998453,316.3314958999399,316.33150899992324,316.33285959996283,,,,,,,,,,,,,,,,,,,,,,,,,,,,,,,,,,,,,,,,,,,,,,,,,,,1,2023-12-06_11h38.51.026,watkins1,2023.2.3,99.73022978730448,46,2023-12-06 11h38.57.865174 +0000,
,,,,,,,,,,,15,0,15,0,,,,,,,,,,,,,316.3394051999785,,,,,,,,,,316.33315059985034,316.83133869990706,,,3,1.4519212997984141,,,,,,,,,,,,None,None,,,,,,,,,,Löffel,glänzend,"['Löffel', 'glänzend']",restudy_diff,1,,,,,,316.33308249991387,316.3331232999917,"['Trommel', 'Vase', 'Buch', 'Hammer', 'Schlüssel', 'Hut', 'Telefon', 'Rucksack', 'Eimer', 'Kette', 'Jacke', 'Uhr', 'Kerze', 'Lampe', 'Geige', 'Löffel', 'Socke', 'Fahrrad', 'Brille', 'Stift', 'Kamera', 'Kiste', 'Tasse']",316.8313501998782,316.83418300002813,None,316.83430369989946,316.83696109987795,None,316.8370643998496,322.84502570005134,3,1.4519212997984141,None,322.8453040998429,322.84663899987936,322.84665279998444,322.8479198999703,,,,,,,,,,,,,,,,,,,,,,,,,,,,,,,,,,,,,,,,,,,,,,,,,,,1,2023-12-06_11h38.51.026,watkins1,2023.2.3,99.73022978730448,46,2023-12-06 11h38.57.865174 +0000,
,,,,,,,,,,,16,0,16,0,,,,,,,,,,,,,322.85447709984146,,,,,,,,,,322.84819009993225,323.34670430002734,,,[],[],,,,,,,,,,,,None,None,,,,,,,,,,Socke,flauschig,"['Socke', 'flauschig']",control,1,,,,,,322.8481252999045,322.8481638999656,"['Trommel', 'Vase', 'Buch', 'Hammer', 'Schlüssel', 'Hut', 'Telefon', 'Rucksack', 'Eimer', 'Kette', 'Jacke', 'Uhr', 'Kerze', 'Lampe', 'Geige', 'Löffel', 'Socke', 'Fahrrad', 'Brille', 'Stift', 'Kamera', 'Kiste', 'Tasse']",323.34671539999545,329.34815329988487,3,329.34842629986815,329.3512985999696,None,329.35140269994736,329.35406339983456,None,,,329.3541659999173,329.35535249998793,329.3553641999606,329.35663879988715,1.742413999978453,None,,,,,,,,,,,,,,,,,,,,,,,,,,,,,,,,,,,,,,,,,,,,,,,,,1,2023-12-06_11h38.51.026,watkins1,2023.2.3,99.73022978730448,46,2023-12-06 11h38.57.865174 +0000,
,,,,,,,,,,,17,0,17,0,,,,,,,,,,,,,329.36024730000645,,,,,,,,,,329.3569071998354,329.853773499839,,,[],[],,,,,,,,,,,,None,None,,,,,,,,,,Fahrrad,biegsam,"['Fahrrad', 'biegsam']",control,1,,,,,,329.35684380005114,329.35688299988396,"['Trommel', 'Vase', 'Buch', 'Hammer', 'Schlüssel', 'Hut', 'Telefon', 'Rucksack', 'Eimer', 'Kette', 'Jacke', 'Uhr', 'Kerze', 'Lampe', 'Geige', 'Löffel', 'Socke', 'Fahrrad', 'Brille', 'Stift', 'Kamera', 'Kiste', 'Tasse']",329.853785000043,335.85498859989457,1,335.8552828999236,335.8581508998759,None,335.8582561998628,335.8608980998397,None,,,335.8610004999209,335.86222580005415,335.86223739990965,335.8634521998465,3.195205899886787,None,,,,,,,,,,,,,,,,,,,,,,,,,,,,,,,,,,,,,,,,,,,,,,,,,1,2023-12-06_11h38.51.026,watkins1,2023.2.3,99.73022978730448,46,2023-12-06 11h38.57.865174 +0000,
,,,,,,,,,,,18,0,18,0,,,,,,,,,,,,,335.8668251999188,,,,,,,,,,335.863724200055,336.36052439990453,,,2,3.8135797998402268,,,,,,,,,,,,None,None,,,,,,,,,,Brille,kurz,"['Brille', 'kurz']",restudy_diff,1,,,,,,335.8636594999116,335.86369999987073,"['Trommel', 'Vase', 'Buch', 'Hammer', 'Schlüssel', 'Hut', 'Telefon', 'Rucksack', 'Eimer', 'Kette', 'Jacke', 'Uhr', 'Kerze', 'Lampe', 'Geige', 'Löffel', 'Socke', 'Fahrrad', 'Brille', 'Stift', 'Kamera', 'Kiste', 'Tasse']",336.36053579999134,336.3621696999762,None,336.36228680005297,336.36375280003995,None,336.3638547998853,342.36912059993483,2,3.8135797998402268,None,342.36939590005204,342.3707981999032,342.37080999999307,342.37185640004463,,,,,,,,,,,,,,,,,,,,,,,,,,,,,,,,,,,,,,,,,,,,,,,,,,,1,2023-12-06_11h38.51.026,watkins1,2023.2.3,99.73022978730448,46,2023-12-06 11h38.57.865174 +0000,
,,,,,,,,,,,19,0,19,0,,,,,,,,,,,,,342.378575499868,,,,,,,,,,342.37212689989246,342.87089310004376,,,3,1.6293383000884205,,,,,,,,,,,,None,None,,,,,,,,,,Stift,lang,"['Stift', 'lang']",restudy_diff,1,,,,,,342.3720628998708,342.372101200046,"['Trommel', 'Vase', 'Buch', 'Hammer', 'Schlüssel', 'Hut', 'Telefon', 'Rucksack', 'Eimer', 'Kette', 'Jacke', 'Uhr', 'Kerze', 'Lampe', 'Geige', 'Löffel', 'Socke', 'Fahrrad', 'Brille', 'Stift', 'Kamera', 'Kiste', 'Tasse']",342.8709042998962,342.8735114999581,None,342.8736304999329,342.87606549984775,None,342.87616949994117,348.8787755998783,3,1.6293383000884205,None,348.87905049999245,348.88038189988583,348.88039379986003,348.8815613000188,,,,,,,,,,,,,,,,,,,,,,,,,,,,,,,,,,,,,,,,,,,,,,,,,,,1,2023-12-06_11h38.51.026,watkins1,2023.2.3,99.73022978730448,46,2023-12-06 11h38.57.865174 +0000,
,,,,,,,,,,,20,0,20,0,,,,,,,,,,,,,348.8881979000289,,,,,,,,,,348.8818316999823,349.3803397999145,,,3,1.5996906999498606,,,,,,,,,,,,None,None,,,,,,,,,,Kamera,schwer,"['Kamera', 'schwer']",restudy_diff,1,,,,,,348.88176679983735,348.88180510001257,"['Trommel', 'Vase', 'Buch', 'Hammer', 'Schlüssel', 'Hut', 'Telefon', 'Rucksack', 'Eimer', 'Kette', 'Jacke', 'Uhr', 'Kerze', 'Lampe', 'Geige', 'Löffel', 'Socke', 'Fahrrad', 'Brille', 'Stift', 'Kamera', 'Kiste', 'Tasse']",349.38035029987805,349.3829347998835,None,349.38305169995874,349.3854962999467,None,349.38559879991226,355.38726039999165,3,1.5996906999498606,None,355.3875339999795,355.38883179984987,355.3888435000554,355.3900244999677,,,,,,,,,,,,,,,,,,,,,,,,,,,,,,,,,,,,,,,,,,,,,,,,,,,1,2023-12-06_11h38.51.026,watkins1,2023.2.3,99.73022978730448,46,2023-12-06 11h38.57.865174 +0000,
,,,,,,,,,,,21,0,21,0,,,,,,,,,,,,,355.3967327999417,,,,,,,,,,355.3902914999053,355.88873540004715,,,3,2.4107310997787863,,,,,,,,,,,,None,None,,,,,,,,,,Kiste,schlicht,"['Kiste', 'schlicht']",restudy_diff,1,,,,,,355.3902282998897,355.39026599982753,"['Trommel', 'Vase', 'Buch', 'Hammer', 'Schlüssel', 'Hut', 'Telefon', 'Rucksack', 'Eimer', 'Kette', 'Jacke', 'Uhr', 'Kerze', 'Lampe', 'Geige', 'Löffel', 'Socke', 'Fahrrad', 'Brille', 'Stift', 'Kamera', 'Kiste', 'Tasse']",355.8887461000122,355.8918248000555,None,355.8919416000135,355.89447309984826,None,355.8946234998293,361.8953184999991,3,2.4107310997787863,None,361.8956056998577,361.8968925999943,361.8969047998544,361.89812380005606,,,,,,,,,,,,,,,,,,,,,,,,,,,,,,,,,,,,,,,,,,,,,,,,,,,1,2023-12-06_11h38.51.026,watkins1,2023.2.3,99.73022978730448,46,2023-12-06 11h38.57.865174 +0000,
,,,,,,,,,,,22,0,22,0,,,,,,,,,,,,,361.9048039999325,,,,,,,,,,361.8983924998902,362.39677380002104,,,[],[],,,,,,,,,,,,None,None,,,,,,,,,,Tasse,zart,"['Tasse', 'zart']",control,1,,,,,,361.89832869987004,361.89836669992656,"['Trommel', 'Vase', 'Buch', 'Hammer', 'Schlüssel', 'Hut', 'Telefon', 'Rucksack', 'Eimer', 'Kette', 'Jacke', 'Uhr', 'Kerze', 'Lampe', 'Geige', 'Löffel', 'Socke', 'Fahrrad', 'Brille', 'Stift', 'Kamera', 'Kiste', 'Tasse']",362.39678509999067,368.4009876998607,1,368.401265299879,368.4038539000321,None,368.4039578998927,368.40638019982725,None,,,368.4064829000272,368.40765309985727,368.4076646999456,368.408705299953,1.5641345002222806,None,,,,,,,,,,,,,,,,,,,,,,,,,,,,,,,,,,,,,,,,,,,,,,,,,1,2023-12-06_11h38.51.026,watkins1,2023.2.3,99.73022978730448,46,2023-12-06 11h38.57.865174 +0000,
,,,,,,,,,,,,,,,,,,,,,,,,,,,,,,,,,,,,,,,,,,,,,,,,,,,,,,,,,,,,,,,,,,,,,1,,,,,,,,,,,,,,,,,,,,,,,,,,,,,,,,,,,,,,,,,,,,,,,,,,,,,,,,,,,,,,,,,,,,,,,,,,1,2023-12-06_11h38.51.026,watkins1,2023.2.3,99.73022978730448,46,2023-12-06 11h38.57.865174 +0000,
(80 : 10) + 9 = 17 ,Correct,button_correct,,,,,,,,,,,,,0,0,0,3,,,,,,,,,395.72230789996684,,,,,,,,394.6878928998485,395.69171399995685,,,,,['button_correct'],[2.847917300183326],,,,,,,,,,,,,,,,,,,,,,,,,,distractorTask,1,,,,,,,,,,,,,,,,,,,,,,,,,,395.71007759985514,395.72230789996684,398.5637320999522,[0.34814814814814815],[-0.4111111111111111],[1],[0],[0],[2.847917300183326],['button_correct'],398.56440589996055,399.5673322000075,,,,,,,,,,,,,,,,,,,,,,,,,,,,,,,,,,,,,1,2023-12-06_11h38.51.026,watkins1,2023.2.3,99.73022978730448,46,2023-12-06 11h38.57.865174 +0000,
(2 x 5) + 3 = 13 ,Correct,button_correct,,,,,,,,,,,,,0,1,1,2,,,,,,,,,399.5773163998965,,,,,,,,,,,,,,['button_correct'],[2.2661812999285758],,,,,,,,,,,,,,,,,,,,,,,,,,distractorTask,1,,,,,,,,,,,,,,,,,,,,,,,,,,399.5675427999813,399.5773163998965,401.83729049982503,[0.34814814814814815],[-0.41203703703703703],[1],[0],[0],[2.2661812999285758],['button_correct'],401.83767599985003,402.84061569999903,,,,,,,,,,,,,,,,,,,,,,,,,,,,,,,,,,,,,1,2023-12-06_11h38.51.026,watkins1,2023.2.3,99.73022978730448,46,2023-12-06 11h38.57.865174 +0000,
(6 x 3) + 10 = 27 ,Incorrect,button_incorrect,,,,,,,,,,,,,0,2,2,8,,,,,,,,,402.85065659997053,,,,,,,,,,,,,,['button_incorrect'],[2.0675959000363946],,,,,,,,,,,,,,,,,,,,,,,,,,distractorTask,1,,,,,,,,,,,,,,,,,,,,,,,,,,402.84081229986623,402.85065659997053,404.9107091999613,[-0.2814814814814815],[-0.4101851851851852],[1],[0],[0],[2.0675959000363946],['button_incorrect'],404.9110997999087,405.9140564999543,,,,,,,,,,,,,,,,,,,,,,,,,,,,,,,,,,,,,1,2023-12-06_11h38.51.026,watkins1,2023.2.3,99.73022978730448,46,2023-12-06 11h38.57.865174 +0000,
(28 : 7) - 3 = 1 ,Correct,button_correct,,,,,,,,,,,,,0,3,3,0,,,,,,,,,405.9240132998675,,,,,,,,,,,,,,['button_correct'],[2.3876906998921186],,,,,,,,,,,,,,,,,,,,,,,,,,distractorTask,1,,,,,,,,,,,,,,,,,,,,,,,,,,405.9142722999677,405.9240132998675,408.3042126998771,[0.4222222222222222],[-0.39537037037037037],[1],[0],[0],[2.3876906998921186],['button_correct'],408.30459859990515,409.3080200999975,,,,,,,,,,,,,,,,,,,,,,,,,,,,,,,,,,,,,1,2023-12-06_11h38.51.026,watkins1,2023.2.3,99.73022978730448,46,2023-12-06 11h38.57.865174 +0000,
(9 x 5) - 9 = 36 ,Correct,button_correct,,,,,,,,,,,,,0,4,4,4,,,,,,,,,409.31799699994735,,,,,,,,,,,,,,['button_correct'],[3.0410939999856055],,,,,,,,,,,,,,,,,,,,,,,,,,distractorTask,1,,,,,,,,,,,,,,,,,,,,,,,,,,409.3082347000018,409.31799699994735,412.351053299848,[0.3111111111111111],[-0.39166666666666666],[1],[0],[0],[3.0410939999856055],['button_correct'],412.3514471000526,413.3550422999542,,,,,,,,,,,,,,,,,,,,,,,,,,,,,,,,,,,,,1,2023-12-06_11h38.51.026,watkins1,2023.2.3,99.73022978730448,46,2023-12-06 11h38.57.865174 +0000,
(25 : 5) + 5 = 9 ,Incorrect,button_incorrect,,,,,,,,,,,,,0,5,5,6,,,,,,,,,413.3650118999649,,,,,,,,,,,,,,['button_incorrect'],[2.2178978000301868],,,,,,,,,,,,,,,,,,,,,,,,,,distractorTask,1,,,,,,,,,,,,,,,,,,,,,,,,,,413.3552363999188,413.3650118999649,415.57486359984614,[-0.32592592592592595],[-0.375],[1],[0],[0],[2.2178978000301868],['button_incorrect'],415.5752504998818,416.5785262999125,,,,,,,,,,,,,,,,,,,,,,,,,,,,,,,,,,,,,1,2023-12-06_11h38.51.026,watkins1,2023.2.3,99.73022978730448,46,2023-12-06 11h38.57.865174 +0000,
(54 : 6) - 10 = 0 ,Incorrect,button_incorrect,,,,,,,,,,,,,0,6,6,5,,,,,,,,,416.58862679987215,,,,,,,,,,,,,,['button_incorrect'],[2.6691574999131262],,,,,,,,,,,,,,,,,,,,,,,,,,distractorTask,1,,,,,,,,,,,,,,,,,,,,,,,,,,416.5787168999668,416.58862679987215,419.25016439985484,[-0.32685185185185184],[-0.40370370370370373],[1],[0],[0],[2.6691574999131262],['button_incorrect'],419.2505479999818,420.2538014999591,,,,,,,,,,,,,,,,,,,,,,,,,,,,,,,,,,,,,1,2023-12-06_11h38.51.026,watkins1,2023.2.3,99.73022978730448,46,2023-12-06 11h38.57.865174 +0000,
(4 : 2) + 4 = 6 ,Correct,button_correct,,,,,,,,,,,,,0,7,7,1,,,,,,,,,420.26376749994233,,,,,,,,,,,,,,['button_correct'],[2.4588841998483986],,,,,,,,,,,,,,,,,,,,,,,,,,distractorTask,1,,,,,,,,,,,,,,,,,,,,,,,,,,420.2539953000378,420.26376749994233,422.7147164000198,[0.32407407407407407],[-0.39537037037037037],[1],[0],[0],[2.4588841998483986],['button_correct'],422.7152354000136,423.7184084998444,,,,,,,,,,,,,,,,,,,,,,,,,,,,,,,,,,,,,1,2023-12-06_11h38.51.026,watkins1,2023.2.3,99.73022978730448,46,2023-12-06 11h38.57.865174 +0000,
(7 x 6) + 9 = 48 ,Incorrect,button_incorrect,,,,,,,,,,,,,0,8,8,9,,,,,,,,,423.728395299986,,,,,,,,,,,,,,['button_incorrect'],[3.372618000023067],,,,,,,,,,,,,,,,,,,,,,,,,,distractorTask,1,,,,,,,,,,,,,,,,,,,,,,,,,,423.7185984000098,423.728395299986,427.0929360999726,[-0.39444444444444443],[-0.4046296296296296],[1],[0],[0],[3.372618000023067],['button_incorrect'],427.09332369989716,428.0963528000284,,,,,,,,,,,,,,,,,,,,,,,,,,,,,,,,,,,,,1,2023-12-06_11h38.51.026,watkins1,2023.2.3,99.73022978730448,46,2023-12-06 11h38.57.865174 +0000,
(40 : 5) + 8 = 15 ,Incorrect,button_incorrect,,,,,,,,,,,,,0,9,9,7,,,,,,,,,428.1063403999433,,,,,,,,,,,,,,['button_incorrect'],[2.719996699830517],,,,,,,,,,,,,,,,,,,,,,,,,,distractorTask,1,,,,,,,,,,,,,,,,,,,,,,,,,,428.0965485998895,428.1063403999433,430.8184451998677,[-0.34814814814814815],[-0.3888888888888889],[1],[0],[0],[2.719996699830517],['button_incorrect'],430.8188334000297,431.82217489997856,,,,,,,,,,,,,,,,,,,,,,,,,,,,,,,,,,,,,1,2023-12-06_11h38.51.026,watkins1,2023.2.3,99.73022978730448,46,2023-12-06 11h38.57.865174 +0000,
,,,,,,,,,,,,,,,,,,,,,,,,,,,,,,,,,,,,,,,,,,,,,,,,,,,,,,,,,,,,,,,,,,,,,1,,,,,,,,,,,,,,,,,,,,,,,,,,,,,,,,,,,,,,,,,,,,,,,,,,,,,,,,,,,,,,,,,,,,,,,,,,1,2023-12-06_11h38.51.026,watkins1,2023.2.3,99.73022978730448,46,2023-12-06 11h38.57.865174 +0000,
,,,,,,,,,,,,,,,,,,,0,0,0,0,,,,,446.79323429986835,,,,,,,,,,,,,,,9.292491800151765,,,,,,,,,,,,9.3084150000941,None,,,,,,,,,,,,,freeRecallSub,1,,,,,,,,,,,,,,,,,,,,,,,,,,,,,,,,,,,,,,446.78424820001237,446.79323429986835,446.79323429986835,456.09225260000676,return,9.292491800151765,None,,[],[],[],[],[],[],[],,,,,,,,,,,,,,,,,,,,,,1,2023-12-06_11h38.51.026,watkins1,2023.2.3,99.73022978730448,46,2023-12-06 11h38.57.865174 +0000,
,,,,,,,,,,,,,,,,,,,1,0,1,0,,,,,456.1018369998783,,,,,,,,,,,,,, Hund,14.86388919991441,,,,,,,,,,,,2.7399985999800265,None,,,,,,,,,,,,,freeRecallSub,1,,,,,,,,,,,,,,,,,,,,,,,,,,,,,,,,,,,,,,456.0939897999633,456.1018369998783,456.1018369998783,470.974035799969,return,14.86388919991441,None, Hund,"[0.05648148148148148, 0.4222222222222222, 0.7166666666666667, -0.6222222222222222, -0.021296296296296296, -0.021296296296296296]","[0.044444444444444446, 0.046296296296296294, 0.04722222222222222, 0.35185185185185186, 0.04814814814814815, 0.04814814814814815]","[1, 1, 1, 1, 1, 1]","[0, 0, 0, 0, 0, 0]","[0, 0, 0, 0, 0, 0]","[6.626027900027111, 8.062119400128722, 8.333114300156012, 9.658696600003168, 11.616866300115362, 12.098836600081995]",[],,,,,,,,,,,,,,,,,,,,,,1,2023-12-06_11h38.51.026,watkins1,2023.2.3,99.73022978730448,46,2023-12-06 11h38.57.865174 +0000,
,,,,,,,,,,,,,,,,,,,2,0,2,0,,,,,470.9863601999823,,,,,,,,,,,,,,Löffel,3.9471899999771267,,,,,,,,,,,,2.122268400155008,None,,,,,,,,,,,,,freeRecallSub,1,,,,,,,,,,,,,,,,,,,,,,,,,,,,,,,,,,,,,,470.9754379000515,470.9863601999823,470.9863601999823,474.935523299966,return,3.9471899999771267,None,Löffel,[],[],[],[],[],[],[],,,,,,,,,,,,,,,,,,,,,,1,2023-12-06_11h38.51.026,watkins1,2023.2.3,99.73022978730448,46,2023-12-06 11h38.57.865174 +0000,
,,,,,,,,,,,,,,,,,,,3,0,3,0,,,,,474.9461558999028,,,,,,,,,,,,,,Hut,1.515465899836272,,,,,,,,,,,,0.5820335999596864,None,,,,,,,,,,,,,freeRecallSub,1,,,,,,,,,,,,,,,,,,,,,,,,,,,,,,,,,,,,,,474.9367865000386,474.9461558999028,474.9461558999028,476.46271219989285,return,1.515465899836272,None,Hut,[],[],[],[],[],[],[],,,,,,,,,,,,,,,,,,,,,,1,2023-12-06_11h38.51.026,watkins1,2023.2.3,99.73022978730448,46,2023-12-06 11h38.57.865174 +0000,
,,,,,,,,,,,,,,,,,,,4,0,4,0,,,,,476.4736128000077,,,,,,,,,,,,,,Vase,12.59609580016695,,,,,,,,,,,,11.34821780002676,None,,,,,,,,,,,,,freeRecallSub,1,,,,,,,,,,,,,,,,,,,,,,,,,,,,,,,,,,,,,,476.4642741999123,476.4736128000077,476.4736128000077,489.0775578999892,return,12.59609580016695,None,Vase,[],[],[],[],[],[],[],,,,,,,,,,,,,,,,,,,,,,1,2023-12-06_11h38.51.026,watkins1,2023.2.3,99.73022978730448,46,2023-12-06 11h38.57.865174 +0000,
,,,,,,,,,,,,,,,,,,,5,0,5,0,,,,,489.08855600003153,,,,,,,,,,,,,,Kette,9.94909009989351,,,,,,,,,,,,8.455120399827138,None,,,,,,,,,,,,,freeRecallSub,1,,,,,,,,,,,,,,,,,,,,,,,,,,,,,,,,,,,,,,489.07882259995677,489.08855600003153,489.08855600003153,499.04048820002936,return,9.94909009989351,None,Kette,[],[],[],[],[],[],[],,,,,,,,,,,,,,,,,,,,,,1,2023-12-06_11h38.51.026,watkins1,2023.2.3,99.73022978730448,46,2023-12-06 11h38.57.865174 +0000,
,,,,,,,,,,,,,,,,,,,6,0,6,0,,,,,499.0514875999652,,,,,,,,,,,,,,Ring,3.1940119001083076,,,,,,,,,,,,1.8883859999477863,None,,,,,,,,,,,,,freeRecallSub,1,,,,,,,,,,,,,,,,,,,,,,,,,,,,,,,,,,,,,,499.0417569000274,499.0514875999652,499.0514875999652,502.24598390003666,return,3.1940119001083076,None,Ring,[],[],[],[],[],[],[],,,,,,,,,,,,,,,,,,,,,,1,2023-12-06_11h38.51.026,watkins1,2023.2.3,99.73022978730448,46,2023-12-06 11h38.57.865174 +0000,
,,,,,,,,,,,,,,,,,,,7,0,7,0,,,,,502.2570950000081,,,,,,,,,,,,,,Schlüssel,41.48456759983674,,,,,,,,,,,,38.57277840003371,None,,,,,,,,,,,,,freeRecallSub,1,,,,,,,,,,,,,,,,,,,,,,,,,,,,,,,,,,,,,,502.2472502000164,502.2570950000081,502.2570950000081,543.7422803998925,return,41.48456759983674,None,Schlüssel,[],[],[],[],[],[],[],,,,,,,,,,,,,,,,,,,,,,1,2023-12-06_11h38.51.026,watkins1,2023.2.3,99.73022978730448,46,2023-12-06 11h38.57.865174 +0000,
,,,,,,,,,,,,,,,,,,,8,0,8,0,,,,,543.7544436999597,,,,,,,,,,,,,,Socken,6.395143200177699,,,,,,,,,,,,4.42093629995361,None,,,,,,,,,,,,,freeRecallSub,1,,,,,,,,,,,,,,,,,,,,,,,,,,,,,,,,,,,,,,543.7437670999207,543.7544436999597,543.7544436999597,550.1531690000556,return,6.395143200177699,None,Socken,[],[],[],[],[],[],[],,,,,,,,,,,,,,,,,,,,,,1,2023-12-06_11h38.51.026,watkins1,2023.2.3,99.73022978730448,46,2023-12-06 11h38.57.865174 +0000,
,,,,,,,,,,,,,,,,,,,9,0,9,0,,,,,550.1649027999956,,,,,,,,,,,,,,Stift,8.47271450003609,,,,,,,,,,,,6.990676499903202,None,,,,,,,,,,,,,freeRecallSub,1,,,,,,,,,,,,,,,,,,,,,,,,,,,,,,,,,,,,,,550.1544273998588,550.1649027999956,550.1649027999956,558.6415073999669,return,8.47271450003609,None,Stift,[],[],[],[],[],[],[],,,,,,,,,,,,,,,,,,,,,,1,2023-12-06_11h38.51.026,watkins1,2023.2.3,99.73022978730448,46,2023-12-06 11h38.57.865174 +0000,
,,,,,,,,,,,,,,,,,,,10,0,10,0,,,,,558.6529363999143,,,,,,,,,,,,,,Brille,3.896671599941328,,,,,,,,,,,,1.7586457000579685,None,,,,,,,,,,,,,freeRecallSub,1,,,,,,,,,,,,,,,,,,,,,,,,,,,,,,,,,,,,,,558.6427249000408,558.6529363999143,558.6529363999143,562.5504487999715,return,3.896671599941328,None,Brille,[],[],[],[],[],[],[],,,,,,,,,,,,,,,,,,,,,,1,2023-12-06_11h38.51.026,watkins1,2023.2.3,99.73022978730448,46,2023-12-06 11h38.57.865174 +0000,
,,,,,,,,,,,,,,,,,,,11,0,11,0,,,,,562.5625944999047,,,,,,,,,,,,,,Geige,24.050901300041005,,,,,,,,,,,,22.749496299773455,None,,,,,,,,,,,,,freeRecallSub,1,,,,,,,,,,,,,,,,,,,,,,,,,,,,,,,,,,,,,,562.5516979999375,562.5625944999047,562.5625944999047,586.616545900004,return,24.050901300041005,None,Geige,[],[],[],[],[],[],[],,,,,,,,,,,,,,,,,,,,,,1,2023-12-06_11h38.51.026,watkins1,2023.2.3,99.73022978730448,46,2023-12-06 11h38.57.865174 +0000,
,,,,,,,,,,,,,,,,,,,12,0,12,0,,,,,586.6290700000245,,,,,,,,,,,,,,Buch,14.672491600038484,,,,,,,,,,,,12.756569500081241,None,,,,,,,,,,,,,freeRecallSub,1,,,,,,,,,,,,,,,,,,,,,,,,,,,,,,,,,,,,,,586.6178120998666,586.6290700000245,586.6290700000245,601.3027897998691,return,14.672491600038484,None,Buch,[],[],[],[],[],[],[],,,,,,,,,,,,,,,,,,,,,,1,2023-12-06_11h38.51.026,watkins1,2023.2.3,99.73022978730448,46,2023-12-06 11h38.57.865174 +0000,
,,,,,,,,,,,,,,,,,,,13,0,13,0,,,,,601.3148560998961,,,,,,,,,,,,,,Fahrrad,5.378577899886295,,,,,,,,,,,,3.4369147999677807,None,,,,,,,,,,,,,freeRecallSub,1,,,,,,,,,,,,,,,,,,,,,,,,,,,,,,,,,,,,,,601.3040579999797,601.3148560998961,601.3148560998961,606.6991387000307,return,5.378577899886295,None,Fahrrad,[],[],[],[],[],[],[],,,,,,,,,,,,,,,,,,,,,,1,2023-12-06_11h38.51.026,watkins1,2023.2.3,99.73022978730448,46,2023-12-06 11h38.57.865174 +0000,
,,,,,,,,,,,,,,,,,,,14,0,14,0,,,,,606.7120015998371,,,,,,,,,,,,,,,[],,,,,,,,,,,,None,None,,,,,,,,,,,,,freeRecallSub,1,,,,,,,,,,,,,,,,,,,,,,,,,,,,,,,,,,,,,,606.700368099846,606.7120015998371,606.7120015998371,646.0392209999263,None,,,,[0.2712962962962963],[-0.3851851851851852],[1],[0],[0],[39.33342490019277],"['button_continue', 'continue_text']",,,,,,,,,,,,,,,,,,,,,,1,2023-12-06_11h38.51.026,watkins1,2023.2.3,99.73022978730448,46,2023-12-06 11h38.57.865174 +0000,
,,,,,,,,,,,,,,,,,,,,,,,,,,,,,,,,,,,,,,,,,,,,,,,,,,,,,,,,,,,,,,,,,,,,,1,,,,,,,,,,,,,,,,,,,,,,,,,,,,,,,,,,,,,,,,,,,,,,,,,,,,,,,,,,,,,,,,,,,,,,,,,,1,2023-12-06_11h38.51.026,watkins1,2023.2.3,99.73022978730448,46,2023-12-06 11h38.57.865174 +0000,
,,,,,,,,,,,,,,,,,,,,,,,0,0,0,0,657.6329870999325,,,,,,,,,,667.3867348998319,667.8855794998817,,,,9.74056649999693,,,,,,,,,,,,None,None,,,,,,,,,,Kette,,,cuedRecallAdj,1,,,,,,,,,,,,,,,,,,,,,,,,,,,,,,,,,,,,,,,,,,,,,,,,,,,,,657.623838200001,657.6329870999325,0,657.6329870999325,667.3834438999183,schmutzig,return,9.74056649999693,None,667.3838342998642,667.3931980999187,667.3931980999187,667.3865836998448,,None,,,,,,,1,2023-12-06_11h38.51.026,watkins1,2023.2.3,99.73022978730448,46,2023-12-06 11h38.57.865174 +0000,
,,,,,,,,,,,,,,,,,,,,,,,1,0,1,0,667.8956339999568,,,,,,,,,,681.6144377000164,682.1059012999758,,,bunt,9.469782500062138,,,,,,,,,,,,0.6318608000874519,None,,,,,,,,,,Rucksack,,,cuedRecallAdj,1,,,,,,,,,,,,,,,,,,,,,,,,,,,,,,,,,,,,,,,,,,,,,,,,,,,,,667.8858272000216,667.8956339999568,0,667.8956339999568,677.3664754000492,kaputt,return,9.469782500062138,None,677.366739799967,677.3760368998628,677.3760368998628,681.6141001000069,bunt,return,4.229445399949327,None,,,,,1,2023-12-06_11h38.51.026,watkins1,2023.2.3,99.73022978730448,46,2023-12-06 11h38.57.865174 +0000,
,,,,,,,,,,,,,,,,,,,,,,,2,0,2,0,682.1158547999803,,,,,,,,,,695.2907465999015,695.7822479000315,,,,12.705613400088623,,,,,,,,,,,,0.46106930007226765,None,,,,,,,,,,Jacke,,,cuedRecallAdj,1,,,,,,,,,,,,,,,,,,,,,,,,,,,,,,,,,,,,,,,,,,,,,,,,,,,,,682.1061422999483,682.1158547999803,0,682.1158547999803,694.8287058998831,,return,12.705613400088623,None,694.8289683000185,694.8382403999567,694.8382403999567,695.2904813999776,,return,0.44722170010209084,None,,,,,1,2023-12-06_11h38.51.026,watkins1,2023.2.3,99.73022978730448,46,2023-12-06 11h38.57.865174 +0000,
,,,,,,,,,,,,,,,,,,,,,,,3,0,3,0,695.7921209000051,,,,,,,,,,699.441633899929,699.9401912998874,,,,3.6453084000386298,,,,,,,,,,,,None,None,,,,,,,,,,Schere,,,cuedRecallAdj,1,,,,,,,,,,,,,,,,,,,,,,,,,,,,,,,,,,,,,,,,,,,,,,,,,,,,,695.7824943999294,695.7921209000051,0,695.7921209000051,699.4385536999907,verspielt,return,3.6453084000386298,None,699.4388156998903,699.448062799871,699.448062799871,699.441532399971,,None,,,,,,,1,2023-12-06_11h38.51.026,watkins1,2023.2.3,99.73022978730448,46,2023-12-06 11h38.57.865174 +0000,
,,,,,,,,,,,,,,,,,,,,,,,4,0,4,0,699.950083799893,,,,,,,,,,702.9861351000145,703.4848052999005,,,,3.0312634999863803,,,,,,,,,,,,None,None,,,,,,,,,,Bürste,,,cuedRecallAdj,1,,,,,,,,,,,,,,,,,,,,,,,,,,,,,,,,,,,,,,,,,,,,,,,,,,,,,699.9404362998903,699.950083799893,0,699.950083799893,702.9830944000278,glatt,return,3.0312634999863803,None,702.9833589999471,702.9926362999249,702.9926362999249,702.9860326999333,,None,,,,,,,1,2023-12-06_11h38.51.026,watkins1,2023.2.3,99.73022978730448,46,2023-12-06 11h38.57.865174 +0000,
,,,,,,,,,,,,,,,,,,,,,,,5,0,5,0,703.4947509998456,,,,,,,,,,706.6407596999779,707.1396951000206,,,,3.1346273000817746,,,,,,,,,,,,None,None,,,,,,,,,,Blume,,,cuedRecallAdj,1,,,,,,,,,,,,,,,,,,,,,,,,,,,,,,,,,,,,,,,,,,,,,,,,,,,,,703.4850458998699,703.4947509998456,0,703.4947509998456,706.6377264000475,sauber,return,3.1346273000817746,None,706.6379913999699,706.6474669999443,706.6474669999443,706.6406574998982,,None,,,,,,,1,2023-12-06_11h38.51.026,watkins1,2023.2.3,99.73022978730448,46,2023-12-06 11h38.57.865174 +0000,
,,,,,,,,,,,,,,,,,,,,,,,6,0,6,0,707.1495697998907,,,,,,,,,,718.1486657999922,718.6474182999227,,,,10.991839999798685,,,,,,,,,,,,None,None,,,,,,,,,,Würfel,,,cuedRecallAdj,1,,,,,,,,,,,,,,,,,,,,,,,,,,,,,,,,,,,,,,,,,,,,,,,,,,,,,707.1399473999627,707.1495697998907,0,707.1495697998907,718.1456595999189,teuer,return,10.991839999798685,None,718.1459246999584,718.1553183000069,718.1553183000069,718.1485639999155,,None,,,,,,,1,2023-12-06_11h38.51.026,watkins1,2023.2.3,99.73022978730448,46,2023-12-06 11h38.57.865174 +0000,
,,,,,,,,,,,,,,,,,,,,,,,7,0,7,0,718.6573020999786,,,,,,,,,,739.5368615000043,740.0287031999324,,,elegant,15.611993400147185,,,,,,,,,,,,3.855136299971491,None,,,,,,,,,,Trommel,,,cuedRecallAdj,1,,,,,,,,,,,,,,,,,,,,,,,,,,,,,,,,,,,,,,,,,,,,,,,,,,,,,718.6476825999562,718.6573020999786,0,718.6573020999786,734.274770299904,gepunktet,return,15.611993400147185,None,734.2750374998432,734.2842961000279,734.2842961000279,739.5365970998537,elegant,return,5.249084600014612,None,,,,,1,2023-12-06_11h38.51.026,watkins1,2023.2.3,99.73022978730448,46,2023-12-06 11h38.57.865174 +0000,
,,,,,,,,,,,,,,,,,,,,,,,8,0,8,0,740.0387531998567,,,,,,,,,,742.9945000000298,743.4930705998559,,,,2.9426668998785317,,,,,,,,,,,,None,None,,,,,,,,,,Flasche,,,cuedRecallAdj,1,,,,,,,,,,,,,,,,,,,,,,,,,,,,,,,,,,,,,,,,,,,,,,,,,,,,,740.0289501999505,740.0387531998567,0,740.0387531998567,742.9912527999841,kalt,return,2.9426668998785317,None,742.9915167998988,743.0009750998579,743.0009750998579,742.9943976998329,,None,,,,,,,1,2023-12-06_11h38.51.026,watkins1,2023.2.3,99.73022978730448,46,2023-12-06 11h38.57.865174 +0000,
,,,,,,,,,,,,,,,,,,,,,,,9,0,9,0,743.5030125998892,,,,,,,,,,746.6399194998667,747.1387493999209,,,,3.1263399000745267,,,,,,,,,,,,None,None,,,,,,,,,,Kerze,,,cuedRecallAdj,1,,,,,,,,,,,,,,,,,,,,,,,,,,,,,,,,,,,,,,,,,,,,,,,,,,,,,743.4933185998816,743.5030125998892,0,743.5030125998892,746.6369690999854,lang,return,3.1263399000745267,None,746.6372380999383,746.6465814998373,746.6465814998373,746.6398169000167,,None,,,,,,,1,2023-12-06_11h38.51.026,watkins1,2023.2.3,99.73022978730448,46,2023-12-06 11h38.57.865174 +0000,
,,,,,,,,,,,,,,,,,,,,,,,10,0,10,0,747.1487032000441,,,,,,,,,,760.2037543999031,760.6950676999986,,,glänzend,3.7207206999883056,,,,,,,,,,,,2.2587393999565393,2.9114367000292987,,,,,,,,,,Löffel,,,cuedRecallAdj,1,,,,,,,,,,,,,,,,,,,,,,,,,,,,,,,,,,,,,,,,,,,,,,,,,,,,,747.1389895998873,747.1487032000441,0,747.1487032000441,750.8745679999702,klar,return,3.7207206999883056,None,750.8748317998834,750.8840818000026,750.8840818000026,760.2034966999199,glänzend,return,9.313210899941623,None,,,,,1,2023-12-06_11h38.51.026,watkins1,2023.2.3,99.73022978730448,46,2023-12-06 11h38.57.865174 +0000,
,,,,,,,,,,,,,,,,,,,,,,,11,0,11,0,760.7049769998994,,,,,,,,,,766.6731978999451,767.1718377999496,,,,5.95632250001654,,,,,,,,,,,,None,None,,,,,,,,,,Ring,,,cuedRecallAdj,1,,,,,,,,,,,,,,,,,,,,,,,,,,,,,,,,,,,,,,,,,,,,,,,,,,,,,760.6953098999802,760.7049769998994,0,760.7049769998994,766.6701654999051,gut,return,5.95632250001654,None,766.6704283999279,766.6798914000392,766.6798914000392,766.6730974998791,,None,,,,,,,1,2023-12-06_11h38.51.026,watkins1,2023.2.3,99.73022978730448,46,2023-12-06 11h38.57.865174 +0000,
,,,,,,,,,,,,,,,,,,,,,,,12,0,12,0,767.1818574999925,,,,,,,,,,770.8710689998697,771.3693528999574,,,,3.679422500077635,,,,,,,,,,,,None,None,,,,,,,,,,Socke,,,cuedRecallAdj,1,,,,,,,,,,,,,,,,,,,,,,,,,,,,,,,,,,,,,,,,,,,,,,,,,,,,,767.1720860998612,767.1818574999925,0,767.1818574999925,770.8677405999042,flauschig,return,3.679422500077635,None,770.8680934999138,770.877248799894,770.877248799894,770.8709682999179,,None,,,,,,,1,2023-12-06_11h38.51.026,watkins1,2023.2.3,99.73022978730448,46,2023-12-06 11h38.57.865174 +0000,
,,,,,,,,,,,,,,,,,,,,,,,13,0,13,0,771.3792977998964,,,,,,,,,,782.8579503998626,783.3492763999384,,,glänzend,8.682062600040808,,,,,,,,,,,,0.9932141001336277,None,,,,,,,,,,Uhr,,,cuedRecallAdj,1,,,,,,,,,,,,,,,,,,,,,,,,,,,,,,,,,,,,,,,,,,,,,,,,,,,,,771.3695892000105,771.3792977998964,0,771.3792977998964,780.0660818000324,verkratzt,return,8.682062600040808,None,780.066346099833,780.0756532000378,780.0756532000378,782.8576876998413,glänzend,return,2.777650599833578,None,,,,,1,2023-12-06_11h38.51.026,watkins1,2023.2.3,99.73022978730448,46,2023-12-06 11h38.57.865174 +0000,
,,,,,,,,,,,,,,,,,,,,,,,14,0,14,0,783.3593288999982,,,,,,,,,,792.1061462999787,792.5975114998873,,,dick,4.08607740001753,,,,,,,,,,,,3.8150247000157833,None,,,,,,,,,,Brille,,,cuedRecallAdj,1,,,,,,,,,,,,,,,,,,,,,,,,,,,,,,,,,,,,,,,,,,,,,,,,,,,,,783.3495177999139,783.3593288999982,0,783.3593288999982,787.4466848999728,kurz,return,4.08607740001753,None,787.4469488998875,787.4562991999555,787.4562991999555,792.1058824998327,dick,return,4.645090099889785,None,,,,,1,2023-12-06_11h38.51.026,watkins1,2023.2.3,99.73022978730448,46,2023-12-06 11h38.57.865174 +0000,
,,,,,,,,,,,,,,,,,,,,,,,15,0,15,0,792.6074121999554,,,,,,,,,,803.8655218998902,804.3565161000006,,,,8.901881900150329,,,,,,,,,,,,2.3495894998777658,None,,,,,,,,,,Hammer,,,cuedRecallAdj,1,,,,,,,,,,,,,,,,,,,,,,,,,,,,,,,,,,,,,,,,,,,,,,,,,,,,,792.5977739999071,792.6074121999554,0,792.6074121999554,801.5149199999869,schön,return,8.901881900150329,None,801.5151778999716,801.5245129999239,801.5245129999239,803.8652566999663,,return,2.3367313998751342,None,,,,,1,2023-12-06_11h38.51.026,watkins1,2023.2.3,99.73022978730448,46,2023-12-06 11h38.57.865174 +0000,
,,,,,,,,,,,,,,,,,,,,,,,16,0,16,0,804.3665134999901,,,,,,,,,,813.1733339000493,813.6648311999161,,,,7.814777999883518,,,,,,,,,,,,0.983431400032714,None,,,,,,,,,,Eimer,,,cuedRecallAdj,1,,,,,,,,,,,,,,,,,,,,,,,,,,,,,,,,,,,,,,,,,,,,,,,,,,,,,804.3567633999046,804.3665134999901,0,804.3665134999901,812.1890924999025,teuer,return,7.814777999883518,None,812.1893551999237,812.1988031000365,812.1988031000365,813.1730686000083,,return,0.9664480998180807,None,,,,,1,2023-12-06_11h38.51.026,watkins1,2023.2.3,99.73022978730448,46,2023-12-06 11h38.57.865174 +0000,
,,,,,,,,,,,,,,,,,,,,,,,17,0,17,0,813.6747792998794,,,,,,,,,,819.2985173000488,819.7901838999242,,,praktisch,3.29847149993293,,,,,,,,,,,,0.31052509997971356,None,,,,,,,,,,Kiste,,,cuedRecallAdj,1,,,,,,,,,,,,,,,,,,,,,,,,,,,,,,,,,,,,,,,,,,,,,,,,,,,,,813.665065899957,813.6747792998794,0,813.6747792998794,816.9787081999239,schlicht,return,3.29847149993293,None,816.9789729998447,816.9882610000204,816.9882610000204,819.2982524998952,praktisch,return,2.3051285999827087,None,,,,,1,2023-12-06_11h38.51.026,watkins1,2023.2.3,99.73022978730448,46,2023-12-06 11h38.57.865174 +0000,
,,,,,,,,,,,,,,,,,,,,,,,18,0,18,0,819.8001239998266,,,,,,,,,,830.6579060999211,831.156342000002,,,,10.853098399937153,,,,,,,,,,,,None,None,,,,,,,,,,Tasse,,,cuedRecallAdj,1,,,,,,,,,,,,,,,,,,,,,,,,,,,,,,,,,,,,,,,,,,,,,,,,,,,,,819.7904246998951,819.8001239998266,0,819.8001239998266,830.6546077998355,schwer,return,10.853098399937153,None,830.6548746000044,830.6641630998347,830.6641630998347,830.6578055999707,,None,,,,,,,1,2023-12-06_11h38.51.026,watkins1,2023.2.3,99.73022978730448,46,2023-12-06 11h38.57.865174 +0000,
,,,,,,,,,,,,,,,,,,,,,,,19,0,19,0,831.1662490000017,,,,,,,,,,834.1712912998628,834.660513699986,,,,2.999050199985504,,,,,,,,,,,,None,None,,,,,,,,,,Telefon,,,cuedRecallAdj,1,,,,,,,,,,,,,,,,,,,,,,,,,,,,,,,,,,,,,,,,,,,,,,,,,,,,,831.156589299906,831.1662490000017,0,831.1662490000017,834.1690060000401,,return,2.999050199985504,None,834.169272699859,834.1786311999895,834.1786311999895,834.1711893999018,,None,,,,,,,1,2023-12-06_11h38.51.026,watkins1,2023.2.3,99.73022978730448,46,2023-12-06 11h38.57.865174 +0000,
,,,,,,,,,,,,,,,,,,,,,,,20,0,20,0,834.6705652000383,,,,,,,,,,837.4150359998457,837.913806800032,,,,2.734652000013739,,,,,,,,,,,,None,None,,,,,,,,,,Lampe,,,cuedRecallAdj,1,,,,,,,,,,,,,,,,,,,,,,,,,,,,,,,,,,,,,,,,,,,,,,,,,,,,,834.6607533998322,834.6705652000383,0,834.6705652000383,837.4120257999748,hohl,return,2.734652000013739,None,837.4122886999976,837.4216901999898,837.4216901999898,837.4149352000095,,None,,,,,,,1,2023-12-06_11h38.51.026,watkins1,2023.2.3,99.73022978730448,46,2023-12-06 11h38.57.865174 +0000,
,,,,,,,,,,,,,,,,,,,,,,,21,0,21,0,837.9237003000453,,,,,,,,,,845.9874554998241,846.4787045000121,,,nass,5.609668999910355,,,,,,,,,,,,0.822471700143069,None,,,,,,,,,,Vase,,,cuedRecallAdj,1,,,,,,,,,,,,,,,,,,,,,,,,,,,,,,,,,,,,,,,,,,,,,,,,,,,,,837.9140496000182,837.9237003000453,0,837.9237003000453,843.5371244000271,flach,return,5.609668999910355,None,843.5373885999434,843.5465887000319,843.5465887000319,845.9871871999931,nass,return,2.4346743999049067,None,,,,,1,2023-12-06_11h38.51.026,watkins1,2023.2.3,99.73022978730448,46,2023-12-06 11h38.57.865174 +0000,
,,,,,,,,,,,,,,,,,,,,,,,22,0,22,0,846.488706599921,,,,,,,,,,855.4662037000526,855.9577877998818,,,robust,4.132479300023988,,,,,,,,,,,,3.4332618000917137,None,,,,,,,,,,Stift,,,cuedRecallAdj,1,,,,,,,,,,,,,,,,,,,,,,,,,,,,,,,,,,,,,,,,,,,,,,,,,,,,,846.4789445998613,846.488706599921,0,846.488706599921,850.626132800011,lang,return,4.132479300023988,None,850.6263961000368,850.6357996000443,850.6357996000443,855.4659361999948,robust,return,4.825358600122854,None,,,,,1,2023-12-06_11h38.51.026,watkins1,2023.2.3,99.73022978730448,46,2023-12-06 11h38.57.865174 +0000,
,,,,,,,,,,,,,,,,,,,,,,,23,0,23,0,855.9677343999501,,,,,,,,,,869.16217279993,869.6535471999086,,,robust,4.621442999923602,,,,,,,,,,,,6.887142200022936,None,,,,,,,,,,Hut,,,cuedRecallAdj,1,,,,,,,,,,,,,,,,,,,,,,,,,,,,,,,,,,,,,,,,,,,,,,,,,,,,,855.9580339998938,855.9677343999501,0,855.9677343999501,860.5971669999417,hässlich,return,4.621442999923602,None,860.5974200000055,860.6068312998395,860.6068312998395,869.1619088000152,robust,return,8.550465199863538,None,,,,,1,2023-12-06_11h38.51.026,watkins1,2023.2.3,99.73022978730448,46,2023-12-06 11h38.57.865174 +0000,
,,,,,,,,,,,,,,,,,,,,,,,24,0,24,0,869.6634960998781,,,,,,,,,,874.6744892999995,875.165741099976,,,nachhaltig,2.653761599911377,,,,,,,,,,,,0.6018989998847246,None,,,,,,,,,,Kamera,,,cuedRecallAdj,1,,,,,,,,,,,,,,,,,,,,,,,,,,,,,,,,,,,,,,,,,,,,,,,,,,,,,869.6537864999846,869.6634960998781,0,869.6634960998781,872.3244741999079,schwer,return,2.653761599911377,None,872.3247372999322,872.3342011000495,872.3342011000495,874.6742219999433,nachhaltig,return,2.3350684999022633,None,,,,,1,2023-12-06_11h38.51.026,watkins1,2023.2.3,99.73022978730448,46,2023-12-06 11h38.57.865174 +0000,
,,,,,,,,,,,,,,,,,,,,,,,25,0,25,0,875.1757231999654,,,,,,,,,,883.8247312000021,884.3229802998248,,,,8.63749559991993,,,,,,,,,,,,None,None,,,,,,,,,,Tasche,,,cuedRecallAdj,1,,,,,,,,,,,,,,,,,,,,,,,,,,,,,,,,,,,,,,,,,,,,,,,,,,,,,875.1659921999089,875.1757231999654,0,875.1757231999654,883.8212661999278,klein,return,8.63749559991993,None,883.8215301998425,883.8309575999156,883.8309575999156,883.8246291000396,,None,,,,,,,1,2023-12-06_11h38.51.026,watkins1,2023.2.3,99.73022978730448,46,2023-12-06 11h38.57.865174 +0000,
,,,,,,,,,,,,,,,,,,,,,,,26,0,26,0,884.3329223999754,,,,,,,,,,900.9540339000523,901.4527717998717,,,,16.60824429988861,,,,,,,,,,,,None,None,,,,,,,,,,Schlüssel,,,cuedRecallAdj,1,,,,,,,,,,,,,,,,,,,,,,,,,,,,,,,,,,,,,,,,,,,,,,,,,,,,,884.3232191000134,884.3329223999754,0,884.3329223999754,900.9508797999006,glänzend,return,16.60824429988861,None,900.9511448000558,900.960693199886,900.960693199886,900.953931799857,,None,,,,,,,1,2023-12-06_11h38.51.026,watkins1,2023.2.3,99.73022978730448,46,2023-12-06 11h38.57.865174 +0000,
,,,,,,,,,,,,,,,,,,,,,,,27,0,27,0,901.4627344999462,,,,,,,,,,930.3917594999075,930.8831431998406,,,,4.0624107997864485,,,,,,,,,,,,24.861105099786073,None,,,,,,,,,,Geige,,,cuedRecallAdj,1,,,,,,,,,,,,,,,,,,,,,,,,,,,,,,,,,,,,,,,,,,,,,,,,,,,,,901.453010499943,901.4627344999462,0,901.4627344999462,905.5295593000483,gestreift,return,4.0624107997864485,None,905.5298240999691,905.5390885998495,905.5390885998495,930.3914930999745,,return,24.85006959992461,None,,,,,1,2023-12-06_11h38.51.026,watkins1,2023.2.3,99.73022978730448,46,2023-12-06 11h38.57.865174 +0000,
,,,,,,,,,,,,,,,,,,,,,,,28,0,28,0,930.8931346999016,,,,,,,,,,942.1905561999884,942.6817029998638,,,,3.232086000032723,,,,,,,,,,,,8.06204289989546,None,,,,,,,,,,Buch,,,cuedRecallAdj,1,,,,,,,,,,,,,,,,,,,,,,,,,,,,,,,,,,,,,,,,,,,,,,,,,,,,,930.8834189998452,930.8931346999016,0,930.8931346999016,934.127499899827,robust,return,3.232086000032723,None,934.1277619998436,934.1370451999828,934.1370451999828,942.190272900043,,return,8.052087800111622,None,,,,,1,2023-12-06_11h38.51.026,watkins1,2023.2.3,99.73022978730448,46,2023-12-06 11h38.57.865174 +0000,
,,,,,,,,,,,,,,,,,,,,,,,29,0,29,0,942.6917470998596,,,,,,,,,,945.9485792999621,946.4469923998695,,,,3.2493943001609296,,,,,,,,,,,,None,None,,,,,,,,,,Fahrrad,,,cuedRecallAdj,1,,,,,,,,,,,,,,,,,,,,,,,,,,,,,,,,,,,,,,,,,,,,,,,,,,,,,942.681949699996,942.6917470998596,0,942.6917470998596,945.9455188999418,biegsam,return,3.2493943001609296,None,945.9457825999707,945.955069599906,945.955069599906,945.9484778000042,,None,,,,,,,1,2023-12-06_11h38.51.026,watkins1,2023.2.3,99.73022978730448,46,2023-12-06 11h38.57.865174 +0000,
,,,,,,,,,,,,,,,,,,,,,,,,,,,,,,,,,,,,,,,,,,,,,,,,,,,,,,,,,,,,,,,,,,,,,1,,,,,,,,,,,,,,,,,,,,,,,,,,,,,,,,,,,,,,,,,,,,,,,,,,,,,,,,,,,,,,,,,,,,,,946.4640903999098,q,3784.9131736001,None,1,2023-12-06_11h38.51.026,watkins1,2023.2.3,99.73022978730448,46,2023-12-06 11h38.57.865174 +0000,
