Equation,CorrectResponse,Correctbutton,trials_7.thisRepN,trials_7.thisTrialN,trials_7.thisN,trials_7.thisIndex,trials.thisRepN,trials.thisTrialN,trials.thisN,trials.thisIndex,trials_3.thisRepN,trials_3.thisTrialN,trials_3.thisN,trials_3.thisIndex,trials_2.thisRepN,trials_2.thisTrialN,trials_2.thisN,trials_2.thisIndex,trials_4.thisRepN,trials_4.thisTrialN,trials_4.thisN,trials_4.thisIndex,trials_5.thisRepN,trials_5.thisTrialN,trials_5.thisN,trials_5.thisIndex,thisRow.t,notes,code_marius.started,code_marius.stopped,welcome.started,welcome.stopped,instruction_study.started,instruction_study.stopped,fixationcross.started,fixationcross.stopped,blanc.started,blanc.stopped,study_control_probe.started,study_control_probe.stopped,responseKey,responseTime,scale_answer_2.keys,study_control_probe_2.started,study_control_probe_2.stopped,scale_answer_3.keys,scale_answer_3.rt,scale_answer_3.duration,blanc_2.started,blanc_2.stopped,test_attr_probe.started,test_attr_probe.stopped,recalled_attr,firstKeyTime,secondWordTime,blanc_3.started,blanc_3.stopped,test_sub_probe.started,test_sub_probe.stopped,recalled_sub,instruction_probe_end.started,instruction_probe_end.stopped,study.started,study.stopped,substantive,adjective,wordpair,task,condition,liste_sub_phase1,liste_adj_phase1,scale_answer.keys,scale_answer.rt,scale_answer.duration,code_defineWordsInit.started,code_defineWordsInit.stopped,liste_sub_phase2,study_control.started,study_control.stopped,scale_answer_4.keys,restudy_same.started,restudy_same.stopped,scale_answer_5.keys,scale_answer_5.rt,scale_answer_5.duration,restudy_different.started,restudy_different.stopped,scale_answer_6.keys,test_attr.started,test_attr.stopped,test_sub.started,test_sub.stopped,correct,distractortask.started,equation_text.started,distractortask.stopped,mouse_answer.x,mouse_answer.y,mouse_answer.leftButton,mouse_answer.midButton,mouse_answer.rightButton,mouse_answer.time,mouse_answer.clicked_name,feedback_distractortask.started,feedback_distractortask.stopped,free_recall.started,text_enter.started,key_resp.started,free_recall.stopped,key_resp.keys,key_resp.rt,key_resp.duration,free_recalled_sub,mouse_continue.x,mouse_continue.y,mouse_continue.leftButton,mouse_continue.midButton,mouse_continue.rightButton,mouse_continue.time,mouse_continue.clicked_name,cued_recall.started,text_enter_2.started,key_continue.started,cued_recall.stopped,recalled_attr1,key_continue.keys,key_continue.rt,key_continue.duration,cued_recall_2.started,text_enter_3.started,key_continue_2.started,cued_recall_2.stopped,recalled_attr2,key_continue_2.keys,key_resp_8.started,key_resp_8.keys,key_resp_8.rt,key_resp_8.duration,condition,date,expName,psychopyVersion,frameRate,participant,expStart,
,,,,,,,,,,,,,,,,,,,,,,,,,,,,,0.12447199993766844,0.12454909994266927,0.12455730000510812,7.500173900043592,,,,,,,,,,,,,,,,,,,,,,,,,,,,,,,,,,,,,3,,,,,,,,,,,,,,,,,,,,,,,,,,,,,,,,,,,,,,,,,,,,,,,,,,,,,,,,,,,,,,,,,,,,,,3,2023-11-30_09h03.53.426,watkins1,2023.2.3,99.75370810059486,33,2023-11-30 09h04.00.727406 +0000,
,,,,,,,,,,,,,,,,,,,,,,,,,,,,,,,,,7.500221400056034,64.66529719997197,,,,,,,,,,,,,,,,,,,,,,,,,,,,,,,,,,,3,,,,,,,,,,,,,,,,,,,,,,,,,,,,,,,,,,,,,,,,,,,,,,,,,,,,,,,,,,,,,,,,,,,,,,3,2023-11-30_09h03.53.426,watkins1,2023.2.3,99.75370810059486,33,2023-11-30 09h04.00.727406 +0000,
,,,0,0,0,0,,,,,,,,,,,,,,,,,,,,,65.67866460001096,,,,,,,,64.66531500010751,65.66868000011891,72.16213740012608,72.6534700000193,66.1607749001123,72.16195870004594,2,2.4247811001259834,None,72.65348029998131,78.65938240010291,2,2.4247811001259834,None,78.65967720001936,79.15112109994516,79.15113150002435,85.16091730003245,vergnü,None,None,85.16114680003375,85.1611697000917,85.161176700145,85.16126050008461,,,,,,,,,,3,,,,,,,,,,,,,,,,,,,,,,,,,,,,,,,,,,,,,,,,,,,,,,,,,,,,,,,,,,,,,,,,,,,,,,3,2023-11-30_09h03.53.426,watkins1,2023.2.3,99.75370810059486,33,2023-11-30 09h04.00.727406 +0000,
,,,,,,,,,,,,,,,,,,,,,,,,,,,,,,,,,,,,,,,,,,,,,,,,,,,,,,,,,,,,,85.16137779993005,92.58244629995897,,,,,,,3,,,,,,,,,,,,,,,,,,,,,,,,,,,,,,,,,,,,,,,,,,,,,,,,,,,,,,,,,,,,,,,,,,,,,,3,2023-11-30_09h03.53.426,watkins1,2023.2.3,99.75370810059486,33,2023-11-30 09h04.00.727406 +0000,
,,,,,,,0,0,0,0,,,,,,,,,,,,,,,,,93.59613740001805,,,,,,,,92.58246390009299,93.58616519998759,93.58666469994932,94.07807549997233,,,1,2.8513009001035243,,,,,,,,,,,,,,,,,,,,,94.07808590005152,100.08363880007528,Kette,hässlich,"['Kette', 'hässlich']",test_adj,3,"['Kette', 'Hut', 'Fahrrad', 'Buch', 'Kiste', 'Telefon', 'Kerze', 'Trommel', 'Tasse', 'Löffel', 'Uhr', 'Blume', 'Vase', 'Hammer', 'Bürste', 'Brille', 'Flasche', 'Schlüssel', 'Eimer', 'Rucksack', 'Geige', 'Stift', 'Kamera', 'Schere', 'Tasche', 'Lampe', 'Ring', 'Socke', 'Jacke', 'Würfel']",['hässlich'],1,2.8513009001035243,None,,,,,,,,,,,,,,,,,,,,,,,,,,,,,,,,,,,,,,,,,,,,,,,,,,,,,,,,,,,,,,,,,3,2023-11-30_09h03.53.426,watkins1,2023.2.3,99.75370810059486,33,2023-11-30 09h04.00.727406 +0000,
,,,,,,,1,0,1,0,,,,,,,,,,,,,,,,,100.09310870012268,,,,,,,,,,100.08430210012011,100.5751384999603,,,1,2.420450600096956,,,,,,,,,,,,,,,,,,,,,100.5751489000395,106.58010590006597,Hut,niedlich,"['Hut', 'niedlich']",restudy,3,"['Kette', 'Hut', 'Fahrrad', 'Buch', 'Kiste', 'Telefon', 'Kerze', 'Trommel', 'Tasse', 'Löffel', 'Uhr', 'Blume', 'Vase', 'Hammer', 'Bürste', 'Brille', 'Flasche', 'Schlüssel', 'Eimer', 'Rucksack', 'Geige', 'Stift', 'Kamera', 'Schere', 'Tasche', 'Lampe', 'Ring', 'Socke', 'Jacke', 'Würfel']","['hässlich', 'niedlich']",1,2.420450600096956,None,,,,,,,,,,,,,,,,,,,,,,,,,,,,,,,,,,,,,,,,,,,,,,,,,,,,,,,,,,,,,,,,,3,2023-11-30_09h03.53.426,watkins1,2023.2.3,99.75370810059486,33,2023-11-30 09h04.00.727406 +0000,
,,,,,,,2,0,2,0,,,,,,,,,,,,,,,,,106.58967859996483,,,,,,,,,,106.58063380001113,107.07160990010016,,,1,2.4678376000374556,,,,,,,,,,,,,,,,,,,,,107.07162000006065,113.07618550001644,Fahrrad,kratzig,"['Fahrrad', 'kratzig']",test_adj,3,"['Kette', 'Hut', 'Fahrrad', 'Buch', 'Kiste', 'Telefon', 'Kerze', 'Trommel', 'Tasse', 'Löffel', 'Uhr', 'Blume', 'Vase', 'Hammer', 'Bürste', 'Brille', 'Flasche', 'Schlüssel', 'Eimer', 'Rucksack', 'Geige', 'Stift', 'Kamera', 'Schere', 'Tasche', 'Lampe', 'Ring', 'Socke', 'Jacke', 'Würfel']","['hässlich', 'niedlich', 'kratzig']",1,2.4678376000374556,None,,,,,,,,,,,,,,,,,,,,,,,,,,,,,,,,,,,,,,,,,,,,,,,,,,,,,,,,,,,,,,,,,3,2023-11-30_09h03.53.426,watkins1,2023.2.3,99.75370810059486,33,2023-11-30 09h04.00.727406 +0000,
,,,,,,,3,0,3,0,,,,,,,,,,,,,,,,,113.08566260011867,,,,,,,,,,113.07671310007572,113.56815219996497,,,1,1.9722619999665767,,,,,,,,,,,,,,,,,,,,,113.56816280004568,119.57816449995153,Buch,zart,"['Buch', 'zart']",restudy,3,"['Kette', 'Hut', 'Fahrrad', 'Buch', 'Kiste', 'Telefon', 'Kerze', 'Trommel', 'Tasse', 'Löffel', 'Uhr', 'Blume', 'Vase', 'Hammer', 'Bürste', 'Brille', 'Flasche', 'Schlüssel', 'Eimer', 'Rucksack', 'Geige', 'Stift', 'Kamera', 'Schere', 'Tasche', 'Lampe', 'Ring', 'Socke', 'Jacke', 'Würfel']","['hässlich', 'niedlich', 'kratzig', 'zart']",1,1.9722619999665767,None,,,,,,,,,,,,,,,,,,,,,,,,,,,,,,,,,,,,,,,,,,,,,,,,,,,,,,,,,,,,,,,,,3,2023-11-30_09h03.53.426,watkins1,2023.2.3,99.75370810059486,33,2023-11-30 09h04.00.727406 +0000,
,,,,,,,4,0,4,0,,,,,,,,,,,,,,,,,119.58769279997796,,,,,,,,,,119.57868000003509,120.07008250011131,,,2,2.7586669998709112,,,,,,,,,,,,,,,,,,,,,120.07009289995767,126.07943719998002,Kiste,lang,"['Kiste', 'lang']",test_adj,3,"['Kette', 'Hut', 'Fahrrad', 'Buch', 'Kiste', 'Telefon', 'Kerze', 'Trommel', 'Tasse', 'Löffel', 'Uhr', 'Blume', 'Vase', 'Hammer', 'Bürste', 'Brille', 'Flasche', 'Schlüssel', 'Eimer', 'Rucksack', 'Geige', 'Stift', 'Kamera', 'Schere', 'Tasche', 'Lampe', 'Ring', 'Socke', 'Jacke', 'Würfel']","['hässlich', 'niedlich', 'kratzig', 'zart', 'lang']",2,2.7586669998709112,None,,,,,,,,,,,,,,,,,,,,,,,,,,,,,,,,,,,,,,,,,,,,,,,,,,,,,,,,,,,,,,,,,3,2023-11-30_09h03.53.426,watkins1,2023.2.3,99.75370810059486,33,2023-11-30 09h04.00.727406 +0000,
,,,,,,,5,0,5,0,,,,,,,,,,,,,,,,,126.08891279995441,,,,,,,,,,126.07996569992974,126.5708244999405,,,3,2.111771299969405,,,,,,,,,,,,,,,,,,,,,126.57083530002274,132.57435579993762,Telefon,praktisch,"['Telefon', 'praktisch']",restudy,3,"['Kette', 'Hut', 'Fahrrad', 'Buch', 'Kiste', 'Telefon', 'Kerze', 'Trommel', 'Tasse', 'Löffel', 'Uhr', 'Blume', 'Vase', 'Hammer', 'Bürste', 'Brille', 'Flasche', 'Schlüssel', 'Eimer', 'Rucksack', 'Geige', 'Stift', 'Kamera', 'Schere', 'Tasche', 'Lampe', 'Ring', 'Socke', 'Jacke', 'Würfel']","['hässlich', 'niedlich', 'kratzig', 'zart', 'lang', 'praktisch']",3,2.111771299969405,None,,,,,,,,,,,,,,,,,,,,,,,,,,,,,,,,,,,,,,,,,,,,,,,,,,,,,,,,,,,,,,,,,3,2023-11-30_09h03.53.426,watkins1,2023.2.3,99.75370810059486,33,2023-11-30 09h04.00.727406 +0000,
,,,,,,,6,0,6,0,,,,,,,,,,,,,,,,,132.58382229995914,,,,,,,,,,132.57489649998024,133.06594380014576,,,2,2.1782356998883188,,,,,,,,,,,,,,,,,,,,,133.06595410010777,139.07598370010965,Kerze,robust,"['Kerze', 'robust']",test_adj,3,"['Kette', 'Hut', 'Fahrrad', 'Buch', 'Kiste', 'Telefon', 'Kerze', 'Trommel', 'Tasse', 'Löffel', 'Uhr', 'Blume', 'Vase', 'Hammer', 'Bürste', 'Brille', 'Flasche', 'Schlüssel', 'Eimer', 'Rucksack', 'Geige', 'Stift', 'Kamera', 'Schere', 'Tasche', 'Lampe', 'Ring', 'Socke', 'Jacke', 'Würfel']","['hässlich', 'niedlich', 'kratzig', 'zart', 'lang', 'praktisch', 'robust']",2,2.1782356998883188,None,,,,,,,,,,,,,,,,,,,,,,,,,,,,,,,,,,,,,,,,,,,,,,,,,,,,,,,,,,,,,,,,,3,2023-11-30_09h03.53.426,watkins1,2023.2.3,99.75370810059486,33,2023-11-30 09h04.00.727406 +0000,
,,,,,,,7,0,7,0,,,,,,,,,,,,,,,,,139.08550689998083,,,,,,,,,,139.0765019999817,139.5675687000621,,,2,2.364976700162515,,,,,,,,,,,,,,,,,,,,,139.56757930014282,145.5683458999265,Trommel,kalt,"['Trommel', 'kalt']",test_adj,3,"['Kette', 'Hut', 'Fahrrad', 'Buch', 'Kiste', 'Telefon', 'Kerze', 'Trommel', 'Tasse', 'Löffel', 'Uhr', 'Blume', 'Vase', 'Hammer', 'Bürste', 'Brille', 'Flasche', 'Schlüssel', 'Eimer', 'Rucksack', 'Geige', 'Stift', 'Kamera', 'Schere', 'Tasche', 'Lampe', 'Ring', 'Socke', 'Jacke', 'Würfel']","['hässlich', 'niedlich', 'kratzig', 'zart', 'lang', 'praktisch', 'robust', 'kalt']",2,2.364976700162515,None,,,,,,,,,,,,,,,,,,,,,,,,,,,,,,,,,,,,,,,,,,,,,,,,,,,,,,,,,,,,,,,,,3,2023-11-30_09h03.53.426,watkins1,2023.2.3,99.75370810059486,33,2023-11-30 09h04.00.727406 +0000,
,,,,,,,8,0,8,0,,,,,,,,,,,,,,,,,145.57791450014338,,,,,,,,,,145.56888139992952,146.05983179993927,,,2,3.5287640001624823,,,,,,,,,,,,,,,,,,,,,146.05984180001542,152.0606048000045,Tasse,verspielt,"['Tasse', 'verspielt']",test_adj,3,"['Kette', 'Hut', 'Fahrrad', 'Buch', 'Kiste', 'Telefon', 'Kerze', 'Trommel', 'Tasse', 'Löffel', 'Uhr', 'Blume', 'Vase', 'Hammer', 'Bürste', 'Brille', 'Flasche', 'Schlüssel', 'Eimer', 'Rucksack', 'Geige', 'Stift', 'Kamera', 'Schere', 'Tasche', 'Lampe', 'Ring', 'Socke', 'Jacke', 'Würfel']","['hässlich', 'niedlich', 'kratzig', 'zart', 'lang', 'praktisch', 'robust', 'kalt', 'verspielt']",2,3.5287640001624823,None,,,,,,,,,,,,,,,,,,,,,,,,,,,,,,,,,,,,,,,,,,,,,,,,,,,,,,,,,,,,,,,,,3,2023-11-30_09h03.53.426,watkins1,2023.2.3,99.75370810059486,33,2023-11-30 09h04.00.727406 +0000,
,,,,,,,9,0,9,0,,,,,,,,,,,,,,,,,152.070081199985,,,,,,,,,,152.0611280000303,152.55200310004875,,,2,2.715636300155893,,,,,,,,,,,,,,,,,,,,,152.55201400001533,158.55270430003293,Löffel,nass,"['Löffel', 'nass']",restudy,3,"['Kette', 'Hut', 'Fahrrad', 'Buch', 'Kiste', 'Telefon', 'Kerze', 'Trommel', 'Tasse', 'Löffel', 'Uhr', 'Blume', 'Vase', 'Hammer', 'Bürste', 'Brille', 'Flasche', 'Schlüssel', 'Eimer', 'Rucksack', 'Geige', 'Stift', 'Kamera', 'Schere', 'Tasche', 'Lampe', 'Ring', 'Socke', 'Jacke', 'Würfel']","['hässlich', 'niedlich', 'kratzig', 'zart', 'lang', 'praktisch', 'robust', 'kalt', 'verspielt', 'nass']",2,2.715636300155893,None,,,,,,,,,,,,,,,,,,,,,,,,,,,,,,,,,,,,,,,,,,,,,,,,,,,,,,,,,,,,,,,,,3,2023-11-30_09h03.53.426,watkins1,2023.2.3,99.75370810059486,33,2023-11-30 09h04.00.727406 +0000,
,,,,,,,10,0,10,0,,,,,,,,,,,,,,,,,158.56226189993322,,,,,,,,,,158.55322790006176,159.04426300013438,,,3,3.1115079999435693,,,,,,,,,,,,,,,,,,,,,159.04427359998226,165.04528010007925,Uhr,glänzend,"['Uhr', 'glänzend']",restudy,3,"['Kette', 'Hut', 'Fahrrad', 'Buch', 'Kiste', 'Telefon', 'Kerze', 'Trommel', 'Tasse', 'Löffel', 'Uhr', 'Blume', 'Vase', 'Hammer', 'Bürste', 'Brille', 'Flasche', 'Schlüssel', 'Eimer', 'Rucksack', 'Geige', 'Stift', 'Kamera', 'Schere', 'Tasche', 'Lampe', 'Ring', 'Socke', 'Jacke', 'Würfel']","['hässlich', 'niedlich', 'kratzig', 'zart', 'lang', 'praktisch', 'robust', 'kalt', 'verspielt', 'nass', 'glänzend']",3,3.1115079999435693,None,,,,,,,,,,,,,,,,,,,,,,,,,,,,,,,,,,,,,,,,,,,,,,,,,,,,,,,,,,,,,,,,,3,2023-11-30_09h03.53.426,watkins1,2023.2.3,99.75370810059486,33,2023-11-30 09h04.00.727406 +0000,
,,,,,,,11,0,11,0,,,,,,,,,,,,,,,,,165.05470510013402,,,,,,,,,,165.04580490011722,165.53683939995244,,,2,2.731830600183457,,,,,,,,,,,,,,,,,,,,,165.53684980003163,171.54695679992437,Blume,blass,"['Blume', 'blass']",restudy,3,"['Kette', 'Hut', 'Fahrrad', 'Buch', 'Kiste', 'Telefon', 'Kerze', 'Trommel', 'Tasse', 'Löffel', 'Uhr', 'Blume', 'Vase', 'Hammer', 'Bürste', 'Brille', 'Flasche', 'Schlüssel', 'Eimer', 'Rucksack', 'Geige', 'Stift', 'Kamera', 'Schere', 'Tasche', 'Lampe', 'Ring', 'Socke', 'Jacke', 'Würfel']","['hässlich', 'niedlich', 'kratzig', 'zart', 'lang', 'praktisch', 'robust', 'kalt', 'verspielt', 'nass', 'glänzend', 'blass']",2,2.731830600183457,None,,,,,,,,,,,,,,,,,,,,,,,,,,,,,,,,,,,,,,,,,,,,,,,,,,,,,,,,,,,,,,,,,3,2023-11-30_09h03.53.426,watkins1,2023.2.3,99.75370810059486,33,2023-11-30 09h04.00.727406 +0000,
,,,,,,,12,0,12,0,,,,,,,,,,,,,,,,,171.55656359996647,,,,,,,,,,171.54747979994863,172.03877199999988,,,3,3.140955700073391,,,,,,,,,,,,,,,,,,,,,172.03878249996342,178.04273759992793,Vase,winzig,"['Vase', 'winzig']",test_adj,3,"['Kette', 'Hut', 'Fahrrad', 'Buch', 'Kiste', 'Telefon', 'Kerze', 'Trommel', 'Tasse', 'Löffel', 'Uhr', 'Blume', 'Vase', 'Hammer', 'Bürste', 'Brille', 'Flasche', 'Schlüssel', 'Eimer', 'Rucksack', 'Geige', 'Stift', 'Kamera', 'Schere', 'Tasche', 'Lampe', 'Ring', 'Socke', 'Jacke', 'Würfel']","['hässlich', 'niedlich', 'kratzig', 'zart', 'lang', 'praktisch', 'robust', 'kalt', 'verspielt', 'nass', 'glänzend', 'blass', 'winzig']",3,3.140955700073391,None,,,,,,,,,,,,,,,,,,,,,,,,,,,,,,,,,,,,,,,,,,,,,,,,,,,,,,,,,,,,,,,,,3,2023-11-30_09h03.53.426,watkins1,2023.2.3,99.75370810059486,33,2023-11-30 09h04.00.727406 +0000,
,,,,,,,13,0,13,0,,,,,,,,,,,,,,,,,178.0522199999541,,,,,,,,,,178.04325810004957,178.53418150008656,,,2,4.126312100095674,,,,,,,,,,,,,,,,,,,,,178.53419149992988,184.53688600007445,Hammer,flach,"['Hammer', 'flach']",test_adj,3,"['Kette', 'Hut', 'Fahrrad', 'Buch', 'Kiste', 'Telefon', 'Kerze', 'Trommel', 'Tasse', 'Löffel', 'Uhr', 'Blume', 'Vase', 'Hammer', 'Bürste', 'Brille', 'Flasche', 'Schlüssel', 'Eimer', 'Rucksack', 'Geige', 'Stift', 'Kamera', 'Schere', 'Tasche', 'Lampe', 'Ring', 'Socke', 'Jacke', 'Würfel']","['hässlich', 'niedlich', 'kratzig', 'zart', 'lang', 'praktisch', 'robust', 'kalt', 'verspielt', 'nass', 'glänzend', 'blass', 'winzig', 'flach']",2,4.126312100095674,None,,,,,,,,,,,,,,,,,,,,,,,,,,,,,,,,,,,,,,,,,,,,,,,,,,,,,,,,,,,,,,,,,3,2023-11-30_09h03.53.426,watkins1,2023.2.3,99.75370810059486,33,2023-11-30 09h04.00.727406 +0000,
,,,,,,,14,0,14,0,,,,,,,,,,,,,,,,,184.5463942999486,,,,,,,,,,184.53741250000894,185.02873270004056,,,3,4.312101200222969,,,,,,,,,,,,,,,,,,,,,185.0287432000041,191.03876330005005,Bürste,gut,"['Bürste', 'gut']",test_adj,3,"['Kette', 'Hut', 'Fahrrad', 'Buch', 'Kiste', 'Telefon', 'Kerze', 'Trommel', 'Tasse', 'Löffel', 'Uhr', 'Blume', 'Vase', 'Hammer', 'Bürste', 'Brille', 'Flasche', 'Schlüssel', 'Eimer', 'Rucksack', 'Geige', 'Stift', 'Kamera', 'Schere', 'Tasche', 'Lampe', 'Ring', 'Socke', 'Jacke', 'Würfel']","['hässlich', 'niedlich', 'kratzig', 'zart', 'lang', 'praktisch', 'robust', 'kalt', 'verspielt', 'nass', 'glänzend', 'blass', 'winzig', 'flach', 'gut']",3,4.312101200222969,None,,,,,,,,,,,,,,,,,,,,,,,,,,,,,,,,,,,,,,,,,,,,,,,,,,,,,,,,,,,,,,,,,3,2023-11-30_09h03.53.426,watkins1,2023.2.3,99.75370810059486,33,2023-11-30 09h04.00.727406 +0000,
,,,,,,,15,0,15,0,,,,,,,,,,,,,,,,,191.04823580011725,,,,,,,,,,191.03930440009572,191.5302902001422,,,1,3.3383612998295575,,,,,,,,,,,,,,,,,,,,,191.5303005001042,197.53355040005408,Brille,breit,"['Brille', 'breit']",test_adj,3,"['Kette', 'Hut', 'Fahrrad', 'Buch', 'Kiste', 'Telefon', 'Kerze', 'Trommel', 'Tasse', 'Löffel', 'Uhr', 'Blume', 'Vase', 'Hammer', 'Bürste', 'Brille', 'Flasche', 'Schlüssel', 'Eimer', 'Rucksack', 'Geige', 'Stift', 'Kamera', 'Schere', 'Tasche', 'Lampe', 'Ring', 'Socke', 'Jacke', 'Würfel']","['hässlich', 'niedlich', 'kratzig', 'zart', 'lang', 'praktisch', 'robust', 'kalt', 'verspielt', 'nass', 'glänzend', 'blass', 'winzig', 'flach', 'gut', 'breit']",1,3.3383612998295575,None,,,,,,,,,,,,,,,,,,,,,,,,,,,,,,,,,,,,,,,,,,,,,,,,,,,,,,,,,,,,,,,,,3,2023-11-30_09h03.53.426,watkins1,2023.2.3,99.75370810059486,33,2023-11-30 09h04.00.727406 +0000,
,,,,,,,16,0,16,0,,,,,,,,,,,,,,,,,197.5430366001092,,,,,,,,,,197.534090799978,198.0250934001524,,,2,3.1076063001528382,,,,,,,,,,,,,,,,,,,,,198.0251031999942,204.0336633999832,Flasche,kurz,"['Flasche', 'kurz']",test_adj,3,"['Kette', 'Hut', 'Fahrrad', 'Buch', 'Kiste', 'Telefon', 'Kerze', 'Trommel', 'Tasse', 'Löffel', 'Uhr', 'Blume', 'Vase', 'Hammer', 'Bürste', 'Brille', 'Flasche', 'Schlüssel', 'Eimer', 'Rucksack', 'Geige', 'Stift', 'Kamera', 'Schere', 'Tasche', 'Lampe', 'Ring', 'Socke', 'Jacke', 'Würfel']","['hässlich', 'niedlich', 'kratzig', 'zart', 'lang', 'praktisch', 'robust', 'kalt', 'verspielt', 'nass', 'glänzend', 'blass', 'winzig', 'flach', 'gut', 'breit', 'kurz']",2,3.1076063001528382,None,,,,,,,,,,,,,,,,,,,,,,,,,,,,,,,,,,,,,,,,,,,,,,,,,,,,,,,,,,,,,,,,,3,2023-11-30_09h03.53.426,watkins1,2023.2.3,99.75370810059486,33,2023-11-30 09h04.00.727406 +0000,
,,,,,,,17,0,17,0,,,,,,,,,,,,,,,,,204.04323670011945,,,,,,,,,,204.034196899971,204.52549339993857,,,3,3.2304706000722945,,,,,,,,,,,,,,,,,,,,,204.52550380001776,210.53598010004498,Schlüssel,matt,"['Schlüssel', 'matt']",test_adj,3,"['Kette', 'Hut', 'Fahrrad', 'Buch', 'Kiste', 'Telefon', 'Kerze', 'Trommel', 'Tasse', 'Löffel', 'Uhr', 'Blume', 'Vase', 'Hammer', 'Bürste', 'Brille', 'Flasche', 'Schlüssel', 'Eimer', 'Rucksack', 'Geige', 'Stift', 'Kamera', 'Schere', 'Tasche', 'Lampe', 'Ring', 'Socke', 'Jacke', 'Würfel']","['hässlich', 'niedlich', 'kratzig', 'zart', 'lang', 'praktisch', 'robust', 'kalt', 'verspielt', 'nass', 'glänzend', 'blass', 'winzig', 'flach', 'gut', 'breit', 'kurz', 'matt']",3,3.2304706000722945,None,,,,,,,,,,,,,,,,,,,,,,,,,,,,,,,,,,,,,,,,,,,,,,,,,,,,,,,,,,,,,,,,,3,2023-11-30_09h03.53.426,watkins1,2023.2.3,99.75370810059486,33,2023-11-30 09h04.00.727406 +0000,
,,,,,,,18,0,18,0,,,,,,,,,,,,,,,,,210.54555590008385,,,,,,,,,,210.53651569993235,211.02748519997112,,,1,3.728475800016895,,,,,,,,,,,,,,,,,,,,,211.02749449992552,217.03217809996568,Eimer,klobig,"['Eimer', 'klobig']",restudy,3,"['Kette', 'Hut', 'Fahrrad', 'Buch', 'Kiste', 'Telefon', 'Kerze', 'Trommel', 'Tasse', 'Löffel', 'Uhr', 'Blume', 'Vase', 'Hammer', 'Bürste', 'Brille', 'Flasche', 'Schlüssel', 'Eimer', 'Rucksack', 'Geige', 'Stift', 'Kamera', 'Schere', 'Tasche', 'Lampe', 'Ring', 'Socke', 'Jacke', 'Würfel']","['hässlich', 'niedlich', 'kratzig', 'zart', 'lang', 'praktisch', 'robust', 'kalt', 'verspielt', 'nass', 'glänzend', 'blass', 'winzig', 'flach', 'gut', 'breit', 'kurz', 'matt', 'klobig']",1,3.728475800016895,None,,,,,,,,,,,,,,,,,,,,,,,,,,,,,,,,,,,,,,,,,,,,,,,,,,,,,,,,,,,,,,,,,3,2023-11-30_09h03.53.426,watkins1,2023.2.3,99.75370810059486,33,2023-11-30 09h04.00.727406 +0000,
,,,,,,,19,0,19,0,,,,,,,,,,,,,,,,,217.04165449994616,,,,,,,,,,217.0327051000204,217.52357139997184,,,2,2.127891199896112,,,,,,,,,,,,,,,,,,,,,217.523581400048,223.52545700012706,Rucksack,strahlend,"['Rucksack', 'strahlend']",test_adj,3,"['Kette', 'Hut', 'Fahrrad', 'Buch', 'Kiste', 'Telefon', 'Kerze', 'Trommel', 'Tasse', 'Löffel', 'Uhr', 'Blume', 'Vase', 'Hammer', 'Bürste', 'Brille', 'Flasche', 'Schlüssel', 'Eimer', 'Rucksack', 'Geige', 'Stift', 'Kamera', 'Schere', 'Tasche', 'Lampe', 'Ring', 'Socke', 'Jacke', 'Würfel']","['hässlich', 'niedlich', 'kratzig', 'zart', 'lang', 'praktisch', 'robust', 'kalt', 'verspielt', 'nass', 'glänzend', 'blass', 'winzig', 'flach', 'gut', 'breit', 'kurz', 'matt', 'klobig', 'strahlend']",2,2.127891199896112,None,,,,,,,,,,,,,,,,,,,,,,,,,,,,,,,,,,,,,,,,,,,,,,,,,,,,,,,,,,,,,,,,,3,2023-11-30_09h03.53.426,watkins1,2023.2.3,99.75370810059486,33,2023-11-30 09h04.00.727406 +0000,
,,,,,,,20,0,20,0,,,,,,,,,,,,,,,,,223.53493570000865,,,,,,,,,,223.52598510007374,224.01700440002605,,,2,2.5226892998907715,,,,,,,,,,,,,,,,,,,,,224.01701460010372,230.02354010008276,Geige,rustikal,"['Geige', 'rustikal']",restudy,3,"['Kette', 'Hut', 'Fahrrad', 'Buch', 'Kiste', 'Telefon', 'Kerze', 'Trommel', 'Tasse', 'Löffel', 'Uhr', 'Blume', 'Vase', 'Hammer', 'Bürste', 'Brille', 'Flasche', 'Schlüssel', 'Eimer', 'Rucksack', 'Geige', 'Stift', 'Kamera', 'Schere', 'Tasche', 'Lampe', 'Ring', 'Socke', 'Jacke', 'Würfel']","['hässlich', 'niedlich', 'kratzig', 'zart', 'lang', 'praktisch', 'robust', 'kalt', 'verspielt', 'nass', 'glänzend', 'blass', 'winzig', 'flach', 'gut', 'breit', 'kurz', 'matt', 'klobig', 'strahlend', 'rustikal']",2,2.5226892998907715,None,,,,,,,,,,,,,,,,,,,,,,,,,,,,,,,,,,,,,,,,,,,,,,,,,,,,,,,,,,,,,,,,,3,2023-11-30_09h03.53.426,watkins1,2023.2.3,99.75370810059486,33,2023-11-30 09h04.00.727406 +0000,
,,,,,,,21,0,21,0,,,,,,,,,,,,,,,,,230.03296520002186,,,,,,,,,,230.02408899995498,230.51522780000232,,,1,4.105192300165072,,,,,,,,,,,,,,,,,,,,,230.51523809996434,236.524170699995,Stift,gestreift,"['Stift', 'gestreift']",restudy,3,"['Kette', 'Hut', 'Fahrrad', 'Buch', 'Kiste', 'Telefon', 'Kerze', 'Trommel', 'Tasse', 'Löffel', 'Uhr', 'Blume', 'Vase', 'Hammer', 'Bürste', 'Brille', 'Flasche', 'Schlüssel', 'Eimer', 'Rucksack', 'Geige', 'Stift', 'Kamera', 'Schere', 'Tasche', 'Lampe', 'Ring', 'Socke', 'Jacke', 'Würfel']","['hässlich', 'niedlich', 'kratzig', 'zart', 'lang', 'praktisch', 'robust', 'kalt', 'verspielt', 'nass', 'glänzend', 'blass', 'winzig', 'flach', 'gut', 'breit', 'kurz', 'matt', 'klobig', 'strahlend', 'rustikal', 'gestreift']",1,4.105192300165072,None,,,,,,,,,,,,,,,,,,,,,,,,,,,,,,,,,,,,,,,,,,,,,,,,,,,,,,,,,,,,,,,,,3,2023-11-30_09h03.53.426,watkins1,2023.2.3,99.75370810059486,33,2023-11-30 09h04.00.727406 +0000,
,,,,,,,22,0,22,0,,,,,,,,,,,,,,,,,236.5336456000805,,,,,,,,,,236.5246975000482,237.01567480014637,,,3,2.4290745998732746,,,,,,,,,,,,,,,,,,,,,237.01568490010686,243.0244344000239,Kamera,sauber,"['Kamera', 'sauber']",test_adj,3,"['Kette', 'Hut', 'Fahrrad', 'Buch', 'Kiste', 'Telefon', 'Kerze', 'Trommel', 'Tasse', 'Löffel', 'Uhr', 'Blume', 'Vase', 'Hammer', 'Bürste', 'Brille', 'Flasche', 'Schlüssel', 'Eimer', 'Rucksack', 'Geige', 'Stift', 'Kamera', 'Schere', 'Tasche', 'Lampe', 'Ring', 'Socke', 'Jacke', 'Würfel']","['hässlich', 'niedlich', 'kratzig', 'zart', 'lang', 'praktisch', 'robust', 'kalt', 'verspielt', 'nass', 'glänzend', 'blass', 'winzig', 'flach', 'gut', 'breit', 'kurz', 'matt', 'klobig', 'strahlend', 'rustikal', 'gestreift', 'sauber']",3,2.4290745998732746,None,,,,,,,,,,,,,,,,,,,,,,,,,,,,,,,,,,,,,,,,,,,,,,,,,,,,,,,,,,,,,,,,,3,2023-11-30_09h03.53.426,watkins1,2023.2.3,99.75370810059486,33,2023-11-30 09h04.00.727406 +0000,
,,,,,,,23,0,23,0,,,,,,,,,,,,,,,,,243.03387590008788,,,,,,,,,,243.0249610999599,243.51600840012543,,,1,3.8329590000212193,,,,,,,,,,,,,,,,,,,,,243.51601919997483,249.52654980006628,Schere,hohl,"['Schere', 'hohl']",restudy,3,"['Kette', 'Hut', 'Fahrrad', 'Buch', 'Kiste', 'Telefon', 'Kerze', 'Trommel', 'Tasse', 'Löffel', 'Uhr', 'Blume', 'Vase', 'Hammer', 'Bürste', 'Brille', 'Flasche', 'Schlüssel', 'Eimer', 'Rucksack', 'Geige', 'Stift', 'Kamera', 'Schere', 'Tasche', 'Lampe', 'Ring', 'Socke', 'Jacke', 'Würfel']","['hässlich', 'niedlich', 'kratzig', 'zart', 'lang', 'praktisch', 'robust', 'kalt', 'verspielt', 'nass', 'glänzend', 'blass', 'winzig', 'flach', 'gut', 'breit', 'kurz', 'matt', 'klobig', 'strahlend', 'rustikal', 'gestreift', 'sauber', 'hohl']",1,3.8329590000212193,None,,,,,,,,,,,,,,,,,,,,,,,,,,,,,,,,,,,,,,,,,,,,,,,,,,,,,,,,,,,,,,,,,3,2023-11-30_09h03.53.426,watkins1,2023.2.3,99.75370810059486,33,2023-11-30 09h04.00.727406 +0000,
,,,,,,,24,0,24,0,,,,,,,,,,,,,,,,,249.5360207001213,,,,,,,,,,249.5270778001286,250.01806819997728,,,2,3.7543949000537395,,,,,,,,,,,,,,,,,,,,,250.018078800058,256.0272520999424,Tasche,nachhaltig,"['Tasche', 'nachhaltig']",restudy,3,"['Kette', 'Hut', 'Fahrrad', 'Buch', 'Kiste', 'Telefon', 'Kerze', 'Trommel', 'Tasse', 'Löffel', 'Uhr', 'Blume', 'Vase', 'Hammer', 'Bürste', 'Brille', 'Flasche', 'Schlüssel', 'Eimer', 'Rucksack', 'Geige', 'Stift', 'Kamera', 'Schere', 'Tasche', 'Lampe', 'Ring', 'Socke', 'Jacke', 'Würfel']","['hässlich', 'niedlich', 'kratzig', 'zart', 'lang', 'praktisch', 'robust', 'kalt', 'verspielt', 'nass', 'glänzend', 'blass', 'winzig', 'flach', 'gut', 'breit', 'kurz', 'matt', 'klobig', 'strahlend', 'rustikal', 'gestreift', 'sauber', 'hohl', 'nachhaltig']",2,3.7543949000537395,None,,,,,,,,,,,,,,,,,,,,,,,,,,,,,,,,,,,,,,,,,,,,,,,,,,,,,,,,,,,,,,,,,3,2023-11-30_09h03.53.426,watkins1,2023.2.3,99.75370810059486,33,2023-11-30 09h04.00.727406 +0000,
,,,,,,,25,0,25,0,,,,,,,,,,,,,,,,,256.03673880011775,,,,,,,,,,256.02777780010365,256.51877179997973,,,2,3.2136315000243485,,,,,,,,,,,,,,,,,,,,,256.5187818999402,262.527878300054,Lampe,hübsch,"['Lampe', 'hübsch']",restudy,3,"['Kette', 'Hut', 'Fahrrad', 'Buch', 'Kiste', 'Telefon', 'Kerze', 'Trommel', 'Tasse', 'Löffel', 'Uhr', 'Blume', 'Vase', 'Hammer', 'Bürste', 'Brille', 'Flasche', 'Schlüssel', 'Eimer', 'Rucksack', 'Geige', 'Stift', 'Kamera', 'Schere', 'Tasche', 'Lampe', 'Ring', 'Socke', 'Jacke', 'Würfel']","['hässlich', 'niedlich', 'kratzig', 'zart', 'lang', 'praktisch', 'robust', 'kalt', 'verspielt', 'nass', 'glänzend', 'blass', 'winzig', 'flach', 'gut', 'breit', 'kurz', 'matt', 'klobig', 'strahlend', 'rustikal', 'gestreift', 'sauber', 'hohl', 'nachhaltig', 'hübsch']",2,3.2136315000243485,None,,,,,,,,,,,,,,,,,,,,,,,,,,,,,,,,,,,,,,,,,,,,,,,,,,,,,,,,,,,,,,,,,3,2023-11-30_09h03.53.426,watkins1,2023.2.3,99.75370810059486,33,2023-11-30 09h04.00.727406 +0000,
,,,,,,,26,0,26,0,,,,,,,,,,,,,,,,,262.537324400153,,,,,,,,,,262.52841560007073,263.0194844000507,,,1,2.2250596000812948,,,,,,,,,,,,,,,,,,,,,263.0194948001299,269.02607170003466,Ring,flauschig,"['Ring', 'flauschig']",restudy,3,"['Kette', 'Hut', 'Fahrrad', 'Buch', 'Kiste', 'Telefon', 'Kerze', 'Trommel', 'Tasse', 'Löffel', 'Uhr', 'Blume', 'Vase', 'Hammer', 'Bürste', 'Brille', 'Flasche', 'Schlüssel', 'Eimer', 'Rucksack', 'Geige', 'Stift', 'Kamera', 'Schere', 'Tasche', 'Lampe', 'Ring', 'Socke', 'Jacke', 'Würfel']","['hässlich', 'niedlich', 'kratzig', 'zart', 'lang', 'praktisch', 'robust', 'kalt', 'verspielt', 'nass', 'glänzend', 'blass', 'winzig', 'flach', 'gut', 'breit', 'kurz', 'matt', 'klobig', 'strahlend', 'rustikal', 'gestreift', 'sauber', 'hohl', 'nachhaltig', 'hübsch', 'flauschig']",1,2.2250596000812948,None,,,,,,,,,,,,,,,,,,,,,,,,,,,,,,,,,,,,,,,,,,,,,,,,,,,,,,,,,,,,,,,,,3,2023-11-30_09h03.53.426,watkins1,2023.2.3,99.75370810059486,33,2023-11-30 09h04.00.727406 +0000,
,,,,,,,27,0,27,0,,,,,,,,,,,,,,,,,269.03553360002115,,,,,,,,,,269.02659390005283,269.51760180015117,,,1,2.895235300064087,,,,,,,,,,,,,,,,,,,,,269.51761239999905,275.5196297999937,Socke,bunt,"['Socke', 'bunt']",restudy,3,"['Kette', 'Hut', 'Fahrrad', 'Buch', 'Kiste', 'Telefon', 'Kerze', 'Trommel', 'Tasse', 'Löffel', 'Uhr', 'Blume', 'Vase', 'Hammer', 'Bürste', 'Brille', 'Flasche', 'Schlüssel', 'Eimer', 'Rucksack', 'Geige', 'Stift', 'Kamera', 'Schere', 'Tasche', 'Lampe', 'Ring', 'Socke', 'Jacke', 'Würfel']","['hässlich', 'niedlich', 'kratzig', 'zart', 'lang', 'praktisch', 'robust', 'kalt', 'verspielt', 'nass', 'glänzend', 'blass', 'winzig', 'flach', 'gut', 'breit', 'kurz', 'matt', 'klobig', 'strahlend', 'rustikal', 'gestreift', 'sauber', 'hohl', 'nachhaltig', 'hübsch', 'flauschig', 'bunt']",1,2.895235300064087,None,,,,,,,,,,,,,,,,,,,,,,,,,,,,,,,,,,,,,,,,,,,,,,,,,,,,,,,,,,,,,,,,,3,2023-11-30_09h03.53.426,watkins1,2023.2.3,99.75370810059486,33,2023-11-30 09h04.00.727406 +0000,
,,,,,,,28,0,28,0,,,,,,,,,,,,,,,,,275.5292390000541,,,,,,,,,,275.5201580999419,276.01134350011125,,,2,2.496286900015548,,,,,,,,,,,,,,,,,,,,,276.0113540000748,282.0162545000203,Jacke,schwer,"['Jacke', 'schwer']",test_adj,3,"['Kette', 'Hut', 'Fahrrad', 'Buch', 'Kiste', 'Telefon', 'Kerze', 'Trommel', 'Tasse', 'Löffel', 'Uhr', 'Blume', 'Vase', 'Hammer', 'Bürste', 'Brille', 'Flasche', 'Schlüssel', 'Eimer', 'Rucksack', 'Geige', 'Stift', 'Kamera', 'Schere', 'Tasche', 'Lampe', 'Ring', 'Socke', 'Jacke', 'Würfel']","['hässlich', 'niedlich', 'kratzig', 'zart', 'lang', 'praktisch', 'robust', 'kalt', 'verspielt', 'nass', 'glänzend', 'blass', 'winzig', 'flach', 'gut', 'breit', 'kurz', 'matt', 'klobig', 'strahlend', 'rustikal', 'gestreift', 'sauber', 'hohl', 'nachhaltig', 'hübsch', 'flauschig', 'bunt', 'schwer']",2,2.496286900015548,None,,,,,,,,,,,,,,,,,,,,,,,,,,,,,,,,,,,,,,,,,,,,,,,,,,,,,,,,,,,,,,,,,3,2023-11-30_09h03.53.426,watkins1,2023.2.3,99.75370810059486,33,2023-11-30 09h04.00.727406 +0000,
,,,,,,,29,0,29,0,,,,,,,,,,,,,,,,,282.0258001999464,,,,,,,,,,282.0167847999837,282.50777700007893,,,1,3.303787700133398,,,,,,,,,,,,,,,,,,,,,282.5077875999268,288.50967469997704,Würfel,elegant,"['Würfel', 'elegant']",restudy,3,"['Kette', 'Hut', 'Fahrrad', 'Buch', 'Kiste', 'Telefon', 'Kerze', 'Trommel', 'Tasse', 'Löffel', 'Uhr', 'Blume', 'Vase', 'Hammer', 'Bürste', 'Brille', 'Flasche', 'Schlüssel', 'Eimer', 'Rucksack', 'Geige', 'Stift', 'Kamera', 'Schere', 'Tasche', 'Lampe', 'Ring', 'Socke', 'Jacke', 'Würfel']","['hässlich', 'niedlich', 'kratzig', 'zart', 'lang', 'praktisch', 'robust', 'kalt', 'verspielt', 'nass', 'glänzend', 'blass', 'winzig', 'flach', 'gut', 'breit', 'kurz', 'matt', 'klobig', 'strahlend', 'rustikal', 'gestreift', 'sauber', 'hohl', 'nachhaltig', 'hübsch', 'flauschig', 'bunt', 'schwer', 'elegant']",1,3.303787700133398,None,,,,,,,,,,,,,,,,,,,,,,,,,,,,,,,,,,,,,,,,,,,,,,,,,,,,,,,,,,,,,,,,,3,2023-11-30_09h03.53.426,watkins1,2023.2.3,99.75370810059486,33,2023-11-30 09h04.00.727406 +0000,
,,,,,,,,,,,0,0,0,0,,,,,,,,,,,,,288.51925090001896,,,,,,,,,,288.51052200002596,289.0013083999511,,,[],[],,,,,,,,,,,,None,None,,,,,,,,,,Telefon,praktisch,"['Telefon', 'praktisch']",restudy,3,,,,,,288.5104446001351,288.51049429993145,"['Telefon', 'Brille', 'Jacke', 'Kamera', 'Buch', 'Socke', 'Rucksack', 'Schlüssel', 'Stift', 'Kette', 'Fahrrad', 'Hammer', 'Würfel', 'Trommel', 'Schere', 'Flasche', 'Eimer', 'Löffel', 'Kerze', 'Hut', 'Blume', 'Kiste', 'Bürste', 'Uhr', 'Ring', 'Geige', 'Vase', 'Tasche', 'Tasse', 'Lampe']",289.00131940003484,289.0040864001494,None,289.00427319994196,295.01159190014005,3,1.62369339982979,None,295.0120246000588,295.01480829995126,None,295.01496900012717,295.0161965000443,295.0162085001357,295.0175358001143,,,,,,,,,,,,,,,,,,,,,,,,,,,,,,,,,,,,,,,,,,,,,,,3,2023-11-30_09h03.53.426,watkins1,2023.2.3,99.75370810059486,33,2023-11-30 09h04.00.727406 +0000,
,,,,,,,,,,,1,0,1,0,,,,,,,,,,,,,295.0210106000304,,,,,,,,,,295.01782410009764,295.51327869994566,,,[],[],,,,,,,,,,,hohl,None,None,,,,,,,,,,Brille,breit,"['Brille', 'breit']",test_adj,3,,,,,,295.01775799994357,295.0177960000001,"['Telefon', 'Brille', 'Jacke', 'Kamera', 'Buch', 'Socke', 'Rucksack', 'Schlüssel', 'Stift', 'Kette', 'Fahrrad', 'Hammer', 'Würfel', 'Trommel', 'Schere', 'Flasche', 'Eimer', 'Löffel', 'Kerze', 'Hut', 'Blume', 'Kiste', 'Bürste', 'Uhr', 'Ring', 'Geige', 'Vase', 'Tasche', 'Tasse', 'Lampe']",295.5132911000401,295.51605900004506,None,295.5161826000549,295.51766370004043,None,,,295.51777309994213,295.51920560002327,None,295.5193132001441,301.5236527000088,301.52366760000587,301.5253471999895,0,,,,,,,,,,,,,,,,,,,,,,,,,,,,,,,,,,,,,,,,,,,,,,3,2023-11-30_09h03.53.426,watkins1,2023.2.3,99.75370810059486,33,2023-11-30 09h04.00.727406 +0000,
,,,,,,,,,,,2,0,2,0,,,,,,,,,,,,,301.5334743000567,,,,,,,,,,301.5256395000033,302.01809779996984,,,[],[],,,,,,,,,,,schwer,None,None,,,,,,,,,,Jacke,schwer,"['Jacke', 'schwer']",test_adj,3,,,,,,301.52557029994205,301.5256093000062,"['Telefon', 'Brille', 'Jacke', 'Kamera', 'Buch', 'Socke', 'Rucksack', 'Schlüssel', 'Stift', 'Kette', 'Fahrrad', 'Hammer', 'Würfel', 'Trommel', 'Schere', 'Flasche', 'Eimer', 'Löffel', 'Kerze', 'Hut', 'Blume', 'Kiste', 'Bürste', 'Uhr', 'Ring', 'Geige', 'Vase', 'Tasche', 'Tasse', 'Lampe']",302.0181088000536,302.02090290002525,None,302.02102759992704,302.02354419999756,None,,,302.02365390001796,302.0261582999956,None,302.026266900124,308.03106850013137,308.0310829000082,308.03239660011604,0,,,,,,,,,,,,,,,,,,,,,,,,,,,,,,,,,,,,,,,,,,,,,,3,2023-11-30_09h03.53.426,watkins1,2023.2.3,99.75370810059486,33,2023-11-30 09h04.00.727406 +0000,
,,,,,,,,,,,3,0,3,0,,,,,,,,,,,,,308.04086489998735,,,,,,,,,,308.0326821000781,308.52286399994045,,,[],[],,,,,,,,,,,sauber,None,None,,,,,,,,,,Kamera,sauber,"['Kamera', 'sauber']",test_adj,3,,,,,,308.03261420014314,308.03265339997597,"['Telefon', 'Brille', 'Jacke', 'Kamera', 'Buch', 'Socke', 'Rucksack', 'Schlüssel', 'Stift', 'Kette', 'Fahrrad', 'Hammer', 'Würfel', 'Trommel', 'Schere', 'Flasche', 'Eimer', 'Löffel', 'Kerze', 'Hut', 'Blume', 'Kiste', 'Bürste', 'Uhr', 'Ring', 'Geige', 'Vase', 'Tasche', 'Tasse', 'Lampe']",308.52287470013835,308.52560649998486,None,308.52573260013014,308.52828830014914,None,,,308.52839870005846,308.53094330010936,None,308.5310518001206,314.5360886999406,314.5361037000548,314.53742700000294,0,,,,,,,,,,,,,,,,,,,,,,,,,,,,,,,,,,,,,,,,,,,,,,3,2023-11-30_09h03.53.426,watkins1,2023.2.3,99.75370810059486,33,2023-11-30 09h04.00.727406 +0000,
,,,,,,,,,,,4,0,4,0,,,,,,,,,,,,,314.5458907999564,,,,,,,,,,314.53772010002285,315.0278382000979,,,[],[],,,,,,,,,,,,None,None,,,,,,,,,,Buch,zart,"['Buch', 'zart']",restudy,3,,,,,,314.5376506000757,314.53769110003486,"['Telefon', 'Brille', 'Jacke', 'Kamera', 'Buch', 'Socke', 'Rucksack', 'Schlüssel', 'Stift', 'Kette', 'Fahrrad', 'Hammer', 'Würfel', 'Trommel', 'Schere', 'Flasche', 'Eimer', 'Löffel', 'Kerze', 'Hut', 'Blume', 'Kiste', 'Bürste', 'Uhr', 'Ring', 'Geige', 'Vase', 'Tasche', 'Tasse', 'Lampe']",315.0278487999458,315.0304501999635,None,315.03057820000686,321.0322155000176,1,3.3584250998683274,None,321.03251449996606,321.0350321000442,None,321.03514400008135,321.0364989999216,321.03651110013016,321.0375655000098,,,,,,,,,,,,,,,,,,,,,,,,,,,,,,,,,,,,,,,,,,,,,,,3,2023-11-30_09h03.53.426,watkins1,2023.2.3,99.75370810059486,33,2023-11-30 09h04.00.727406 +0000,
,,,,,,,,,,,5,0,5,0,,,,,,,,,,,,,321.0416816000361,,,,,,,,,,321.0378495999612,321.5337982000783,,,[],[],,,,,,,,,,,,None,None,,,,,,,,,,Socke,bunt,"['Socke', 'bunt']",restudy,3,,,,,,321.0377847000491,321.03782279998995,"['Telefon', 'Brille', 'Jacke', 'Kamera', 'Buch', 'Socke', 'Rucksack', 'Schlüssel', 'Stift', 'Kette', 'Fahrrad', 'Hammer', 'Würfel', 'Trommel', 'Schere', 'Flasche', 'Eimer', 'Löffel', 'Kerze', 'Hut', 'Blume', 'Kiste', 'Bürste', 'Uhr', 'Ring', 'Geige', 'Vase', 'Tasche', 'Tasse', 'Lampe']",321.5338093000464,321.53635950013995,None,321.53648649994284,327.54015320003964,1,1.4449352000374347,None,327.54046209994704,327.5430932000745,None,327.54320800001733,327.5443752000574,327.5443871000316,327.545436500106,,,,,,,,,,,,,,,,,,,,,,,,,,,,,,,,,,,,,,,,,,,,,,,3,2023-11-30_09h03.53.426,watkins1,2023.2.3,99.75370810059486,33,2023-11-30 09h04.00.727406 +0000,
,,,,,,,,,,,6,0,6,0,,,,,,,,,,,,,327.54963960009627,,,,,,,,,,327.5457182000391,328.04160330002196,,,[],[],,,,,,,,,,,nass,None,None,,,,,,,,,,Rucksack,strahlend,"['Rucksack', 'strahlend']",test_adj,3,,,,,,327.54565090010874,327.5456888000481,"['Telefon', 'Brille', 'Jacke', 'Kamera', 'Buch', 'Socke', 'Rucksack', 'Schlüssel', 'Stift', 'Kette', 'Fahrrad', 'Hammer', 'Würfel', 'Trommel', 'Schere', 'Flasche', 'Eimer', 'Löffel', 'Kerze', 'Hut', 'Blume', 'Kiste', 'Bürste', 'Uhr', 'Ring', 'Geige', 'Vase', 'Tasche', 'Tasse', 'Lampe']",328.0416141001042,328.0442252000794,None,328.04434920009226,328.0458554001525,None,,,328.0459644999355,328.0474529999774,None,328.0475604000967,334.0501019000076,334.05011640000157,334.05150870000944,0,,,,,,,,,,,,,,,,,,,,,,,,,,,,,,,,,,,,,,,,,,,,,,3,2023-11-30_09h03.53.426,watkins1,2023.2.3,99.75370810059486,33,2023-11-30 09h04.00.727406 +0000,
,,,,,,,,,,,7,0,7,0,,,,,,,,,,,,,334.05990039999597,,,,,,,,,,334.0517994000111,334.5419165000785,,,[],[],,,,,,,,,,,matt,None,None,,,,,,,,,,Schlüssel,matt,"['Schlüssel', 'matt']",test_adj,3,,,,,,334.0517323000822,334.0517707001418,"['Telefon', 'Brille', 'Jacke', 'Kamera', 'Buch', 'Socke', 'Rucksack', 'Schlüssel', 'Stift', 'Kette', 'Fahrrad', 'Hammer', 'Würfel', 'Trommel', 'Schere', 'Flasche', 'Eimer', 'Löffel', 'Kerze', 'Hut', 'Blume', 'Kiste', 'Bürste', 'Uhr', 'Ring', 'Geige', 'Vase', 'Tasche', 'Tasse', 'Lampe']",334.54192669992335,334.54475160012953,None,334.54487570002675,334.5475521001499,None,,,334.5476621000562,334.5503275000956,None,334.55043750000186,340.55577820003964,340.5557925000321,340.5569456999656,0,,,,,,,,,,,,,,,,,,,,,,,,,,,,,,,,,,,,,,,,,,,,,,3,2023-11-30_09h03.53.426,watkins1,2023.2.3,99.75370810059486,33,2023-11-30 09h04.00.727406 +0000,
,,,,,,,,,,,8,0,8,0,,,,,,,,,,,,,340.56564190005884,,,,,,,,,,340.55722890002653,341.0478183000814,,,[],[],,,,,,,,,,,,None,None,,,,,,,,,,Stift,gestreift,"['Stift', 'gestreift']",restudy,3,,,,,,340.55716160009615,340.55720039992593,"['Telefon', 'Brille', 'Jacke', 'Kamera', 'Buch', 'Socke', 'Rucksack', 'Schlüssel', 'Stift', 'Kette', 'Fahrrad', 'Hammer', 'Würfel', 'Trommel', 'Schere', 'Flasche', 'Eimer', 'Löffel', 'Kerze', 'Hut', 'Blume', 'Kiste', 'Bürste', 'Uhr', 'Ring', 'Geige', 'Vase', 'Tasche', 'Tasse', 'Lampe']",341.0478290999308,341.0504044999834,None,341.05052940011956,347.05275340005755,2,3.050049299839884,None,347.0530702001415,347.0560000000987,None,347.0561148999259,347.05765500012785,347.0576671001036,347.0589519001078,,,,,,,,,,,,,,,,,,,,,,,,,,,,,,,,,,,,,,,,,,,,,,,3,2023-11-30_09h03.53.426,watkins1,2023.2.3,99.75370810059486,33,2023-11-30 09h04.00.727406 +0000,
,,,,,,,,,,,9,0,9,0,,,,,,,,,,,,,347.06215439992957,,,,,,,,,,347.0592396000866,347.5543303999584,,,[],[],,,,,,,,,,,elgent,None,None,,,,,,,,,,Kette,hässlich,"['Kette', 'hässlich']",test_adj,3,,,,,,347.05917240004055,347.0592120999936,"['Telefon', 'Brille', 'Jacke', 'Kamera', 'Buch', 'Socke', 'Rucksack', 'Schlüssel', 'Stift', 'Kette', 'Fahrrad', 'Hammer', 'Würfel', 'Trommel', 'Schere', 'Flasche', 'Eimer', 'Löffel', 'Kerze', 'Hut', 'Blume', 'Kiste', 'Bürste', 'Uhr', 'Ring', 'Geige', 'Vase', 'Tasche', 'Tasse', 'Lampe']",347.5543416000437,347.5571374001447,None,347.5572631000541,347.5586981999222,None,,,347.5588108000811,347.5602401001379,None,347.560348900035,353.5628829000052,353.5628971999977,353.5642421001103,0,,,,,,,,,,,,,,,,,,,,,,,,,,,,,,,,,,,,,,,,,,,,,,3,2023-11-30_09h03.53.426,watkins1,2023.2.3,99.75370810059486,33,2023-11-30 09h04.00.727406 +0000,
,,,,,,,,,,,10,0,10,0,,,,,,,,,,,,,353.5727371000685,,,,,,,,,,353.5645260999445,354.054741299944,,,[],[],,,,,,,,,,,rustikal,None,None,,,,,,,,,,Fahrrad,kratzig,"['Fahrrad', 'kratzig']",test_adj,3,,,,,,353.56445930013433,353.56449769996107,"['Telefon', 'Brille', 'Jacke', 'Kamera', 'Buch', 'Socke', 'Rucksack', 'Schlüssel', 'Stift', 'Kette', 'Fahrrad', 'Hammer', 'Würfel', 'Trommel', 'Schere', 'Flasche', 'Eimer', 'Löffel', 'Kerze', 'Hut', 'Blume', 'Kiste', 'Bürste', 'Uhr', 'Ring', 'Geige', 'Vase', 'Tasche', 'Tasse', 'Lampe']",354.0547520001419,354.05751710012555,None,354.057641700143,354.06023679999635,None,,,354.06034520012327,354.06306160008535,None,354.0631689999718,360.0691540001426,360.06916810013354,360.070523200091,0,,,,,,,,,,,,,,,,,,,,,,,,,,,,,,,,,,,,,,,,,,,,,,3,2023-11-30_09h03.53.426,watkins1,2023.2.3,99.75370810059486,33,2023-11-30 09h04.00.727406 +0000,
,,,,,,,,,,,11,0,11,0,,,,,,,,,,,,,360.07906090002507,,,,,,,,,,360.07080879993737,360.56107200006954,,,[],[],,,,,,,,,,,flach,None,None,,,,,,,,,,Hammer,flach,"['Hammer', 'flach']",test_adj,3,,,,,,360.07074029999785,360.0707805000711,"['Telefon', 'Brille', 'Jacke', 'Kamera', 'Buch', 'Socke', 'Rucksack', 'Schlüssel', 'Stift', 'Kette', 'Fahrrad', 'Hammer', 'Würfel', 'Trommel', 'Schere', 'Flasche', 'Eimer', 'Löffel', 'Kerze', 'Hut', 'Blume', 'Kiste', 'Bürste', 'Uhr', 'Ring', 'Geige', 'Vase', 'Tasche', 'Tasse', 'Lampe']",360.5610833999235,360.5638810999226,None,360.56400669994764,360.5665967001114,None,,,360.566708000144,360.56930979993194,None,360.56941800005734,366.5745981000364,366.5746123001445,366.5759012999479,0,,,,,,,,,,,,,,,,,,,,,,,,,,,,,,,,,,,,,,,,,,,,,,3,2023-11-30_09h03.53.426,watkins1,2023.2.3,99.75370810059486,33,2023-11-30 09h04.00.727406 +0000,
,,,,,,,,,,,12,0,12,0,,,,,,,,,,,,,366.58442720002495,,,,,,,,,,366.5761945999693,367.06648740009405,,,[],[],,,,,,,,,,,,None,None,,,,,,,,,,Würfel,elegant,"['Würfel', 'elegant']",restudy,3,,,,,,366.5761248001363,366.5761657000985,"['Telefon', 'Brille', 'Jacke', 'Kamera', 'Buch', 'Socke', 'Rucksack', 'Schlüssel', 'Stift', 'Kette', 'Fahrrad', 'Hammer', 'Würfel', 'Trommel', 'Schere', 'Flasche', 'Eimer', 'Löffel', 'Kerze', 'Hut', 'Blume', 'Kiste', 'Bürste', 'Uhr', 'Ring', 'Geige', 'Vase', 'Tasche', 'Tasse', 'Lampe']",367.06649830006063,367.0691806001123,None,367.0693061000202,373.0765056000091,1,1.8874645999167114,None,373.0768075999804,373.07954220008105,None,373.07965780002996,373.08116260007955,373.0811743999366,373.08243550010957,,,,,,,,,,,,,,,,,,,,,,,,,,,,,,,,,,,,,,,,,,,,,,,3,2023-11-30_09h03.53.426,watkins1,2023.2.3,99.75370810059486,33,2023-11-30 09h04.00.727406 +0000,
,,,,,,,,,,,13,0,13,0,,,,,,,,,,,,,373.0860447001178,,,,,,,,,,373.08272009994835,373.57829020009376,,,[],[],,,,,,,,,,,weich,None,None,,,,,,,,,,Trommel,kalt,"['Trommel', 'kalt']",test_adj,3,,,,,,373.0826546000317,373.0826930999756,"['Telefon', 'Brille', 'Jacke', 'Kamera', 'Buch', 'Socke', 'Rucksack', 'Schlüssel', 'Stift', 'Kette', 'Fahrrad', 'Hammer', 'Würfel', 'Trommel', 'Schere', 'Flasche', 'Eimer', 'Löffel', 'Kerze', 'Hut', 'Blume', 'Kiste', 'Bürste', 'Uhr', 'Ring', 'Geige', 'Vase', 'Tasche', 'Tasse', 'Lampe']",373.5783013999462,373.5812900001183,None,373.58141770004295,373.5828893999569,None,,,373.58299869997427,373.58448030008003,None,373.5845878000837,379.5875776000321,379.58759200014174,379.58876190008596,0,,,,,,,,,,,,,,,,,,,,,,,,,,,,,,,,,,,,,,,,,,,,,,3,2023-11-30_09h03.53.426,watkins1,2023.2.3,99.75370810059486,33,2023-11-30 09h04.00.727406 +0000,
,,,,,,,,,,,14,0,14,0,,,,,,,,,,,,,379.59733280004,,,,,,,,,,379.58904800005257,380.07942710001953,,,[],[],,,,,,,,,,,,None,None,,,,,,,,,,Schere,hohl,"['Schere', 'hohl']",restudy,3,,,,,,379.58898020000197,379.5890192000661,"['Telefon', 'Brille', 'Jacke', 'Kamera', 'Buch', 'Socke', 'Rucksack', 'Schlüssel', 'Stift', 'Kette', 'Fahrrad', 'Hammer', 'Würfel', 'Trommel', 'Schere', 'Flasche', 'Eimer', 'Löffel', 'Kerze', 'Hut', 'Blume', 'Kiste', 'Bürste', 'Uhr', 'Ring', 'Geige', 'Vase', 'Tasche', 'Tasse', 'Lampe']",380.07943819998764,380.0821392000653,None,380.0822632999625,386.0837115000468,1,3.2504899001214653,None,386.08401400013827,386.0865998000372,None,386.0867117999587,386.0882038001437,386.0882158000022,386.0892513000872,,,,,,,,,,,,,,,,,,,,,,,,,,,,,,,,,,,,,,,,,,,,,,,3,2023-11-30_09h03.53.426,watkins1,2023.2.3,99.75370810059486,33,2023-11-30 09h04.00.727406 +0000,
,,,,,,,,,,,15,0,15,0,,,,,,,,,,,,,386.0930580000859,,,,,,,,,,386.08953010011464,386.5851171000395,,,[],[],,,,,,,,,,,kurz,None,None,,,,,,,,,,Flasche,kurz,"['Flasche', 'kurz']",test_adj,3,,,,,,386.0894647000823,386.0895033001434,"['Telefon', 'Brille', 'Jacke', 'Kamera', 'Buch', 'Socke', 'Rucksack', 'Schlüssel', 'Stift', 'Kette', 'Fahrrad', 'Hammer', 'Würfel', 'Trommel', 'Schere', 'Flasche', 'Eimer', 'Löffel', 'Kerze', 'Hut', 'Blume', 'Kiste', 'Bürste', 'Uhr', 'Ring', 'Geige', 'Vase', 'Tasche', 'Tasse', 'Lampe']",386.5851283001248,386.58772960002534,None,386.58785349992104,386.589328299975,None,,,386.5894389001187,386.590909200022,None,386.59101690002717,392.59311240003444,392.59312720014714,392.59431029995903,0,,,,,,,,,,,,,,,,,,,,,,,,,,,,,,,,,,,,,,,,,,,,,,3,2023-11-30_09h03.53.426,watkins1,2023.2.3,99.75370810059486,33,2023-11-30 09h04.00.727406 +0000,
,,,,,,,,,,,16,0,16,0,,,,,,,,,,,,,392.60286640003324,,,,,,,,,,392.59459570003673,393.08495469996706,,,[],[],,,,,,,,,,,,None,None,,,,,,,,,,Eimer,klobig,"['Eimer', 'klobig']",restudy,3,,,,,,392.5945282999892,392.5945665000472,"['Telefon', 'Brille', 'Jacke', 'Kamera', 'Buch', 'Socke', 'Rucksack', 'Schlüssel', 'Stift', 'Kette', 'Fahrrad', 'Hammer', 'Würfel', 'Trommel', 'Schere', 'Flasche', 'Eimer', 'Löffel', 'Kerze', 'Hut', 'Blume', 'Kiste', 'Bürste', 'Uhr', 'Ring', 'Geige', 'Vase', 'Tasche', 'Tasse', 'Lampe']",393.08496530004777,393.0876573000569,None,393.0877831999678,399.0897890999913,2,2.8925898999441415,None,399.0900916000828,399.092765300069,None,399.09287880011834,399.0943424999714,399.09435399994254,399.0956608999986,,,,,,,,,,,,,,,,,,,,,,,,,,,,,,,,,,,,,,,,,,,,,,,3,2023-11-30_09h03.53.426,watkins1,2023.2.3,99.75370810059486,33,2023-11-30 09h04.00.727406 +0000,
,,,,,,,,,,,17,0,17,0,,,,,,,,,,,,,399.09932649997063,,,,,,,,,,399.0959394001402,399.59150470001623,,,[],[],,,,,,,,,,,,None,None,,,,,,,,,,Löffel,nass,"['Löffel', 'nass']",restudy,3,,,,,,399.09587480011396,399.0959125999361,"['Telefon', 'Brille', 'Jacke', 'Kamera', 'Buch', 'Socke', 'Rucksack', 'Schlüssel', 'Stift', 'Kette', 'Fahrrad', 'Hammer', 'Würfel', 'Trommel', 'Schere', 'Flasche', 'Eimer', 'Löffel', 'Kerze', 'Hut', 'Blume', 'Kiste', 'Bürste', 'Uhr', 'Ring', 'Geige', 'Vase', 'Tasche', 'Tasse', 'Lampe']",399.5915165999904,399.5948161999695,None,399.5949435001239,405.6030021000188,2,3.0181130999699235,None,405.6034218000714,405.60602249996737,None,405.60613460000604,405.60742880008183,405.60744090005755,405.60848570009694,,,,,,,,,,,,,,,,,,,,,,,,,,,,,,,,,,,,,,,,,,,,,,,3,2023-11-30_09h03.53.426,watkins1,2023.2.3,99.75370810059486,33,2023-11-30 09h04.00.727406 +0000,
,,,,,,,,,,,18,0,18,0,,,,,,,,,,,,,405.6124806001317,,,,,,,,,,405.60876889992505,406.1045858999714,,,[],[],,,,,,,,,,,fest,None,None,,,,,,,,,,Kerze,robust,"['Kerze', 'robust']",test_adj,3,,,,,,405.6087039001286,405.6087424000725,"['Telefon', 'Brille', 'Jacke', 'Kamera', 'Buch', 'Socke', 'Rucksack', 'Schlüssel', 'Stift', 'Kette', 'Fahrrad', 'Hammer', 'Würfel', 'Trommel', 'Schere', 'Flasche', 'Eimer', 'Löffel', 'Kerze', 'Hut', 'Blume', 'Kiste', 'Bürste', 'Uhr', 'Ring', 'Geige', 'Vase', 'Tasche', 'Tasse', 'Lampe']",406.1045961000491,406.1071518000681,None,406.10727380006574,406.10874720010906,None,,,406.1088599001523,406.11029460001737,None,406.11040719994344,412.11281520011835,412.1128295001108,412.11412740009837,0,,,,,,,,,,,,,,,,,,,,,,,,,,,,,,,,,,,,,,,,,,,,,,3,2023-11-30_09h03.53.426,watkins1,2023.2.3,99.75370810059486,33,2023-11-30 09h04.00.727406 +0000,
,,,,,,,,,,,19,0,19,0,,,,,,,,,,,,,412.12257120013237,,,,,,,,,,412.11441410006955,412.6046685001347,,,[],[],,,,,,,,,,,,None,None,,,,,,,,,,Hut,niedlich,"['Hut', 'niedlich']",restudy,3,,,,,,412.11434560013004,412.1143847000785,"['Telefon', 'Brille', 'Jacke', 'Kamera', 'Buch', 'Socke', 'Rucksack', 'Schlüssel', 'Stift', 'Kette', 'Fahrrad', 'Hammer', 'Würfel', 'Trommel', 'Schere', 'Flasche', 'Eimer', 'Löffel', 'Kerze', 'Hut', 'Blume', 'Kiste', 'Bürste', 'Uhr', 'Ring', 'Geige', 'Vase', 'Tasche', 'Tasse', 'Lampe']",412.6046786000952,412.60726730013266,None,412.6073932000436,418.6124281999655,1,2.989403899991885,None,418.61272280011326,418.6152652001474,None,418.61537649994716,418.61667100014165,418.6166825001128,418.617871100083,,,,,,,,,,,,,,,,,,,,,,,,,,,,,,,,,,,,,,,,,,,,,,,3,2023-11-30_09h03.53.426,watkins1,2023.2.3,99.75370810059486,33,2023-11-30 09h04.00.727406 +0000,
,,,,,,,,,,,20,0,20,0,,,,,,,,,,,,,418.6218773999717,,,,,,,,,,418.6181451000739,419.11422460014,,,[],[],,,,,,,,,,,,None,None,,,,,,,,,,Blume,blass,"['Blume', 'blass']",restudy,3,,,,,,418.6180825000629,418.61811899999157,"['Telefon', 'Brille', 'Jacke', 'Kamera', 'Buch', 'Socke', 'Rucksack', 'Schlüssel', 'Stift', 'Kette', 'Fahrrad', 'Hammer', 'Würfel', 'Trommel', 'Schere', 'Flasche', 'Eimer', 'Löffel', 'Kerze', 'Hut', 'Blume', 'Kiste', 'Bürste', 'Uhr', 'Ring', 'Geige', 'Vase', 'Tasche', 'Tasse', 'Lampe']",419.11423610011116,419.1169565001037,None,419.1170827001333,425.12141390005127,2,2.5595333001110703,None,425.12171100010164,425.1243336999323,None,425.1244465999771,425.1256033000536,425.1256148000248,425.12675870000385,,,,,,,,,,,,,,,,,,,,,,,,,,,,,,,,,,,,,,,,,,,,,,,3,2023-11-30_09h03.53.426,watkins1,2023.2.3,99.75370810059486,33,2023-11-30 09h04.00.727406 +0000,
,,,,,,,,,,,21,0,21,0,,,,,,,,,,,,,425.13089779997244,,,,,,,,,,425.12703560013324,425.623041999992,,,[],[],,,,,,,,,,,lang,None,None,,,,,,,,,,Kiste,lang,"['Kiste', 'lang']",test_adj,3,,,,,,425.1269712999929,425.1270087000448,"['Telefon', 'Brille', 'Jacke', 'Kamera', 'Buch', 'Socke', 'Rucksack', 'Schlüssel', 'Stift', 'Kette', 'Fahrrad', 'Hammer', 'Würfel', 'Trommel', 'Schere', 'Flasche', 'Eimer', 'Löffel', 'Kerze', 'Hut', 'Blume', 'Kiste', 'Bürste', 'Uhr', 'Ring', 'Geige', 'Vase', 'Tasche', 'Tasse', 'Lampe']",425.6230530999601,425.6256898001302,None,425.62581510003656,425.62722140015103,None,,,425.62733169994317,425.6287295999937,None,425.6288388001267,431.6309742999729,431.63098890008405,431.6320889000781,0,,,,,,,,,,,,,,,,,,,,,,,,,,,,,,,,,,,,,,,,,,,,,,3,2023-11-30_09h03.53.426,watkins1,2023.2.3,99.75370810059486,33,2023-11-30 09h04.00.727406 +0000,
,,,,,,,,,,,22,0,22,0,,,,,,,,,,,,,431.6407747999765,,,,,,,,,,431.632373200031,432.12277280003764,,,[],[],,,,,,,,,,,gut,None,None,,,,,,,,,,Bürste,gut,"['Bürste', 'gut']",test_adj,3,,,,,,431.6323053999804,431.63234460004605,"['Telefon', 'Brille', 'Jacke', 'Kamera', 'Buch', 'Socke', 'Rucksack', 'Schlüssel', 'Stift', 'Kette', 'Fahrrad', 'Hammer', 'Würfel', 'Trommel', 'Schere', 'Flasche', 'Eimer', 'Löffel', 'Kerze', 'Hut', 'Blume', 'Kiste', 'Bürste', 'Uhr', 'Ring', 'Geige', 'Vase', 'Tasche', 'Tasse', 'Lampe']",432.1227832001168,432.12535230000503,None,432.12547650001943,432.1279224001337,None,,,432.1280310000293,432.1304391999729,None,432.13054700009525,438.13533390010707,438.1353482999839,438.13648959994316,0,,,,,,,,,,,,,,,,,,,,,,,,,,,,,,,,,,,,,,,,,,,,,,3,2023-11-30_09h03.53.426,watkins1,2023.2.3,99.75370810059486,33,2023-11-30 09h04.00.727406 +0000,
,,,,,,,,,,,23,0,23,0,,,,,,,,,,,,,438.14514059992507,,,,,,,,,,438.1367765001487,438.6270302000921,,,[],[],,,,,,,,,,,,None,None,,,,,,,,,,Uhr,glänzend,"['Uhr', 'glänzend']",restudy,3,,,,,,438.13670879998244,438.1367482000496,"['Telefon', 'Brille', 'Jacke', 'Kamera', 'Buch', 'Socke', 'Rucksack', 'Schlüssel', 'Stift', 'Kette', 'Fahrrad', 'Hammer', 'Würfel', 'Trommel', 'Schere', 'Flasche', 'Eimer', 'Löffel', 'Kerze', 'Hut', 'Blume', 'Kiste', 'Bürste', 'Uhr', 'Ring', 'Geige', 'Vase', 'Tasche', 'Tasse', 'Lampe']",438.62704199994914,438.6294532001484,None,438.6295793999452,444.63287400011905,3,3.0789020000956953,None,444.63317280006595,444.6358710001223,None,444.63598349993117,444.637312799925,444.6373245001305,444.6385482000187,,,,,,,,,,,,,,,,,,,,,,,,,,,,,,,,,,,,,,,,,,,,,,,3,2023-11-30_09h03.53.426,watkins1,2023.2.3,99.75370810059486,33,2023-11-30 09h04.00.727406 +0000,
,,,,,,,,,,,24,0,24,0,,,,,,,,,,,,,444.64240569993854,,,,,,,,,,444.63883040007204,445.1344540999271,,,[],[],,,,,,,,,,,,None,None,,,,,,,,,,Ring,flauschig,"['Ring', 'flauschig']",restudy,3,,,,,,444.63876520004123,444.6388034000993,"['Telefon', 'Brille', 'Jacke', 'Kamera', 'Buch', 'Socke', 'Rucksack', 'Schlüssel', 'Stift', 'Kette', 'Fahrrad', 'Hammer', 'Würfel', 'Trommel', 'Schere', 'Flasche', 'Eimer', 'Löffel', 'Kerze', 'Hut', 'Blume', 'Kiste', 'Bürste', 'Uhr', 'Ring', 'Geige', 'Vase', 'Tasche', 'Tasse', 'Lampe']",445.1344650001265,445.13709530001506,None,445.1372205999214,451.1382675000932,1,3.3393361000344157,None,451.1385638001375,451.1412925000768,None,451.1414054001216,451.14245310006663,451.14246489992365,451.14370550005697,,,,,,,,,,,,,,,,,,,,,,,,,,,,,,,,,,,,,,,,,,,,,,,3,2023-11-30_09h03.53.426,watkins1,2023.2.3,99.75370810059486,33,2023-11-30 09h04.00.727406 +0000,
,,,,,,,,,,,25,0,25,0,,,,,,,,,,,,,451.1477457000874,,,,,,,,,,451.14399349992163,451.6398376999423,,,[],[],,,,,,,,,,,,None,None,,,,,,,,,,Geige,rustikal,"['Geige', 'rustikal']",restudy,3,,,,,,451.14392830012366,451.143966200063,"['Telefon', 'Brille', 'Jacke', 'Kamera', 'Buch', 'Socke', 'Rucksack', 'Schlüssel', 'Stift', 'Kette', 'Fahrrad', 'Hammer', 'Würfel', 'Trommel', 'Schere', 'Flasche', 'Eimer', 'Löffel', 'Kerze', 'Hut', 'Blume', 'Kiste', 'Bürste', 'Uhr', 'Ring', 'Geige', 'Vase', 'Tasche', 'Tasse', 'Lampe']",451.63984870002605,451.64260390005074,None,451.64272779994644,457.6442440999672,1,2.0658923001028597,None,457.6445458000526,457.6475965999998,None,457.6477109999396,457.6488849001471,457.64889690000564,457.65011829999276,,,,,,,,,,,,,,,,,,,,,,,,,,,,,,,,,,,,,,,,,,,,,,,3,2023-11-30_09h03.53.426,watkins1,2023.2.3,99.75370810059486,33,2023-11-30 09h04.00.727406 +0000,
,,,,,,,,,,,26,0,26,0,,,,,,,,,,,,,457.6538416999392,,,,,,,,,,457.65040610008873,458.145784500055,,,[],[],,,,,,,,,,,kurz,None,None,,,,,,,,,,Vase,winzig,"['Vase', 'winzig']",test_adj,3,,,,,,457.6503399000503,457.65037960000336,"['Telefon', 'Brille', 'Jacke', 'Kamera', 'Buch', 'Socke', 'Rucksack', 'Schlüssel', 'Stift', 'Kette', 'Fahrrad', 'Hammer', 'Würfel', 'Trommel', 'Schere', 'Flasche', 'Eimer', 'Löffel', 'Kerze', 'Hut', 'Blume', 'Kiste', 'Bürste', 'Uhr', 'Ring', 'Geige', 'Vase', 'Tasche', 'Tasse', 'Lampe']",458.1457956000231,458.14840200007893,None,458.1485266000964,458.1498344000429,None,,,458.1499441000633,458.1512480999809,None,458.1513557001017,464.15301529993303,464.15302999992855,464.1544600999914,0,,,,,,,,,,,,,,,,,,,,,,,,,,,,,,,,,,,,,,,,,,,,,,3,2023-11-30_09h03.53.426,watkins1,2023.2.3,99.75370810059486,33,2023-11-30 09h04.00.727406 +0000,
,,,,,,,,,,,27,0,27,0,,,,,,,,,,,,,464.16281419992447,,,,,,,,,,464.1547471000813,464.644680300029,,,[],[],,,,,,,,,,,,None,None,,,,,,,,,,Tasche,nachhaltig,"['Tasche', 'nachhaltig']",restudy,3,,,,,,464.1546790001448,464.1547179999761,"['Telefon', 'Brille', 'Jacke', 'Kamera', 'Buch', 'Socke', 'Rucksack', 'Schlüssel', 'Stift', 'Kette', 'Fahrrad', 'Hammer', 'Würfel', 'Trommel', 'Schere', 'Flasche', 'Eimer', 'Löffel', 'Kerze', 'Hut', 'Blume', 'Kiste', 'Bürste', 'Uhr', 'Ring', 'Geige', 'Vase', 'Tasche', 'Tasse', 'Lampe']",464.6446913999971,464.6474158000201,None,464.6475418000482,470.6509257000871,2,2.1008240999653935,None,470.6512235000264,470.65409470000304,None,470.6542080999352,470.65567920007743,470.6556907999329,470.6569388001226,,,,,,,,,,,,,,,,,,,,,,,,,,,,,,,,,,,,,,,,,,,,,,,3,2023-11-30_09h03.53.426,watkins1,2023.2.3,99.75370810059486,33,2023-11-30 09h04.00.727406 +0000,
,,,,,,,,,,,28,0,28,0,,,,,,,,,,,,,470.6603991999291,,,,,,,,,,470.6572174001485,471.1525103999302,,,[],[],,,,,,,,,,,verspielt,None,None,,,,,,,,,,Tasse,verspielt,"['Tasse', 'verspielt']",test_adj,3,,,,,,470.65715330000967,470.65719079994597,"['Telefon', 'Brille', 'Jacke', 'Kamera', 'Buch', 'Socke', 'Rucksack', 'Schlüssel', 'Stift', 'Kette', 'Fahrrad', 'Hammer', 'Würfel', 'Trommel', 'Schere', 'Flasche', 'Eimer', 'Löffel', 'Kerze', 'Hut', 'Blume', 'Kiste', 'Bürste', 'Uhr', 'Ring', 'Geige', 'Vase', 'Tasche', 'Tasse', 'Lampe']",471.15252090012655,471.1553175000008,None,471.1554418001324,471.1568625001237,None,,,471.156972900033,471.15839989995584,None,471.1585073999595,477.160666000098,477.1606807000935,477.16208810009994,0,,,,,,,,,,,,,,,,,,,,,,,,,,,,,,,,,,,,,,,,,,,,,,3,2023-11-30_09h03.53.426,watkins1,2023.2.3,99.75370810059486,33,2023-11-30 09h04.00.727406 +0000,
,,,,,,,,,,,29,0,29,0,,,,,,,,,,,,,477.17049039993435,,,,,,,,,,477.1623800001107,477.6527042000089,,,[],[],,,,,,,,,,,,None,None,,,,,,,,,,Lampe,hübsch,"['Lampe', 'hübsch']",restudy,3,,,,,,477.1623108999338,477.16235090000555,"['Telefon', 'Brille', 'Jacke', 'Kamera', 'Buch', 'Socke', 'Rucksack', 'Schlüssel', 'Stift', 'Kette', 'Fahrrad', 'Hammer', 'Würfel', 'Trommel', 'Schere', 'Flasche', 'Eimer', 'Löffel', 'Kerze', 'Hut', 'Blume', 'Kiste', 'Bürste', 'Uhr', 'Ring', 'Geige', 'Vase', 'Tasche', 'Tasse', 'Lampe']",477.6527150000911,477.65560150006786,None,477.65572930010967,483.65923679992557,2,2.3408276000991464,None,483.6595324999653,483.66224640002474,None,483.66235870006494,483.66382819996215,483.66384009993635,483.6651486000046,,,,,,,,,,,,,,,,,,,,,,,,,,,,,,,,,,,,,,,,,,,,,,,3,2023-11-30_09h03.53.426,watkins1,2023.2.3,99.75370810059486,33,2023-11-30 09h04.00.727406 +0000,
,,,,,,,,,,,,,,,,,,,,,,,,,,,,,,,,,,,,,,,,,,,,,,,,,,,,,,,,,,,,,,,,,,,,,3,,,,,,,,,,,,,,,,,,,,,,,,,,,,,,,,,,,,,,,,,,,,,,,,,,,,,,,,,,,,,,,,,,,,,,3,2023-11-30_09h03.53.426,watkins1,2023.2.3,99.75370810059486,33,2023-11-30 09h04.00.727406 +0000,
(4 : 2) + 4 = 6 ,Correct,button_correct,,,,,,,,,,,,,0,0,0,1,,,,,,,,,510.9859931000974,,,,,,,,509.9308090999257,510.9346519000828,,,,,['button_correct'],[4.13781170011498],,,,,,,,,,,,,,,,,,,,,,,,,,distractorTask,3,,,,,,,,,,,,,,,,,,,,,,,,,510.9756321001332,510.9859931000974,515.1176676000468,[0.387037037037037],[-0.4],[1],[0],[0],[4.13781170011498],['button_correct'],515.1183511000127,516.1214417000301,,,,,,,,,,,,,,,,,,,,,,,,,,,,,,,,,,3,2023-11-30_09h03.53.426,watkins1,2023.2.3,99.75370810059486,33,2023-11-30 09h04.00.727406 +0000,
(9 x 5) - 9 = 36 ,Correct,button_correct,,,,,,,,,,,,,0,1,1,4,,,,,,,,,516.1422650001477,,,,,,,,,,,,,,['button_correct'],[4.152687000110745],,,,,,,,,,,,,,,,,,,,,,,,,,distractorTask,3,,,,,,,,,,,,,,,,,,,,,,,,,516.1216368000023,516.1422650001477,520.2891709001269,[0.34074074074074073],[-0.39814814814814814],[1],[0],[0],[4.152687000110745],['button_correct'],520.2895531000104,521.2928985001054,,,,,,,,,,,,,,,,,,,,,,,,,,,,,,,,,,3,2023-11-30_09h03.53.426,watkins1,2023.2.3,99.75370810059486,33,2023-11-30 09h04.00.727406 +0000,
(2 x 5) + 3 = 13 ,Correct,button_correct,,,,,,,,,,,,,0,2,2,2,,,,,,,,,521.3028192999773,,,,,,,,,,,,,,['button_correct'],[1.8156906000804156],,,,,,,,,,,,,,,,,,,,,,,,,,distractorTask,3,,,,,,,,,,,,,,,,,,,,,,,,,521.2930867001414,521.3028192999773,523.1109273999464,[0.34074074074074073],[-0.39814814814814814],[1],[0],[0],[1.8156906000804156],['button_correct'],523.1113051001448,524.1146669001319,,,,,,,,,,,,,,,,,,,,,,,,,,,,,,,,,,3,2023-11-30_09h03.53.426,watkins1,2023.2.3,99.75370810059486,33,2023-11-30 09h04.00.727406 +0000,
(54 : 6) - 10 = 0 ,Incorrect,button_incorrect,,,,,,,,,,,,,0,3,3,5,,,,,,,,,524.1246541000437,,,,,,,,,,,,,,['button_incorrect'],[4.707135599805042],,,,,,,,,,,,,,,,,,,,,,,,,,distractorTask,3,,,,,,,,,,,,,,,,,,,,,,,,,524.1148570999503,524.1246541000437,528.8245757000986,[-0.3648148148148148],[-0.40185185185185185],[1],[0],[0],[4.707135599805042],['button_incorrect'],528.8249584001023,529.828281900147,,,,,,,,,,,,,,,,,,,,,,,,,,,,,,,,,,3,2023-11-30_09h03.53.426,watkins1,2023.2.3,99.75370810059486,33,2023-11-30 09h04.00.727406 +0000,
(6 x 3) + 10 = 27 ,Incorrect,button_incorrect,,,,,,,,,,,,,0,4,4,8,,,,,,,,,529.8382157001179,,,,,,,,,,,,,,['button_incorrect'],[3.8041777000762522],,,,,,,,,,,,,,,,,,,,,,,,,,distractorTask,3,,,,,,,,,,,,,,,,,,,,,,,,,529.8284748001024,529.8382157001179,533.6349758000579,[-0.28703703703703703],[-0.3888888888888889],[1],[0],[0],[3.8041777000762522],['button_incorrect'],533.6353546001483,534.6386309999507,,,,,,,,,,,,,,,,,,,,,,,,,,,,,,,,,,3,2023-11-30_09h03.53.426,watkins1,2023.2.3,99.75370810059486,33,2023-11-30 09h04.00.727406 +0000,
(28 : 7) - 3 = 1 ,Correct,button_correct,,,,,,,,,,,,,0,5,5,0,,,,,,,,,534.6487152001355,,,,,,,,,,,,,,['button_correct'],[2.849517700029537],,,,,,,,,,,,,,,,,,,,,,,,,,distractorTask,3,,,,,,,,,,,,,,,,,,,,,,,,,534.6388245001435,534.6487152001355,537.4910959000699,[0.2916666666666667],[-0.4009259259259259],[1],[0],[0],[2.849517700029537],['button_correct'],537.4914768000599,538.4948194001336,,,,,,,,,,,,,,,,,,,,,,,,,,,,,,,,,,3,2023-11-30_09h03.53.426,watkins1,2023.2.3,99.75370810059486,33,2023-11-30 09h04.00.727406 +0000,
(40 : 5) + 8 = 15 ,Incorrect,button_incorrect,,,,,,,,,,,,,0,6,6,7,,,,,,,,,538.5048094000667,,,,,,,,,,,,,,['button_incorrect'],[3.141642600065097],,,,,,,,,,,,,,,,,,,,,,,,,,distractorTask,3,,,,,,,,,,,,,,,,,,,,,,,,,538.4950099999551,538.5048094000667,541.6383837000467,[-0.32037037037037036],[-0.37962962962962965],[1],[0],[0],[3.141642600065097],['button_incorrect'],541.6387573000975,542.6419991999865,,,,,,,,,,,,,,,,,,,,,,,,,,,,,,,,,,3,2023-11-30_09h03.53.426,watkins1,2023.2.3,99.75370810059486,33,2023-11-30 09h04.00.727406 +0000,
(7 x 6) + 9 = 48 ,Incorrect,button_incorrect,,,,,,,,,,,,,0,7,7,9,,,,,,,,,542.6519716000184,,,,,,,,,,,,,,['button_incorrect'],[3.3019287001807243],,,,,,,,,,,,,,,,,,,,,,,,,,distractorTask,3,,,,,,,,,,,,,,,,,,,,,,,,,542.6421882000286,542.6519716000184,545.945857499959,[-0.29074074074074074],[-0.3925925925925926],[1],[0],[0],[3.3019287001807243],['button_incorrect'],545.9462337000296,546.9497618000023,,,,,,,,,,,,,,,,,,,,,,,,,,,,,,,,,,3,2023-11-30_09h03.53.426,watkins1,2023.2.3,99.75370810059486,33,2023-11-30 09h04.00.727406 +0000,
(80 : 10) + 9 = 17 ,Correct,button_correct,,,,,,,,,,,,,0,8,8,3,,,,,,,,,546.9597020000219,,,,,,,,,,,,,,['button_correct'],[2.9706906999927014],,,,,,,,,,,,,,,,,,,,,,,,,,distractorTask,3,,,,,,,,,,,,,,,,,,,,,,,,,546.9499522000551,546.9597020000219,549.9224902000278,[0.29074074074074074],[-0.41574074074074074],[1],[0],[0],[2.9706906999927014],['button_correct'],549.9228668999858,550.9262060001493,,,,,,,,,,,,,,,,,,,,,,,,,,,,,,,,,,3,2023-11-30_09h03.53.426,watkins1,2023.2.3,99.75370810059486,33,2023-11-30 09h04.00.727406 +0000,
(25 : 5) + 5 = 9 ,Incorrect,button_incorrect,,,,,,,,,,,,,0,9,9,6,,,,,,,,,550.9361845001113,,,,,,,,,,,,,,['button_incorrect'],[2.519073399947956],,,,,,,,,,,,,,,,,,,,,,,,,,distractorTask,3,,,,,,,,,,,,,,,,,,,,,,,,,550.9263949999586,550.9361845001113,553.4471839000471,[-0.3972222222222222],[-0.4101851851851852],[1],[0],[0],[2.519073399947956],['button_incorrect'],553.447562500136,554.4506244000513,,,,,,,,,,,,,,,,,,,,,,,,,,,,,,,,,,3,2023-11-30_09h03.53.426,watkins1,2023.2.3,99.75370810059486,33,2023-11-30 09h04.00.727406 +0000,
,,,,,,,,,,,,,,,,,,,,,,,,,,,,,,,,,,,,,,,,,,,,,,,,,,,,,,,,,,,,,,,,,,,,,3,,,,,,,,,,,,,,,,,,,,,,,,,,,,,,,,,,,,,,,,,,,,,,,,,,,,,,,,,,,,,,,,,,,,,,3,2023-11-30_09h03.53.426,watkins1,2023.2.3,99.75370810059486,33,2023-11-30 09h04.00.727406 +0000,
,,,,,,,,,,,,,,,,,,,0,0,0,0,,,,,568.2162617000286,,,,,,,,,,,,,,gut,6.016343499999493,,,,,,,,,,,,4.980361399939284,None,,,,,,,,,,,,,freeRecallSub,3,,,,,,,,,,,,,,,,,,,,,,,,,,,,,,,,,,,,,568.2076250999235,568.2162617000286,568.2162617000286,574.2419382000808,return,6.016343499999493,None,gut,"[-0.004629629629629629, -0.525]","[0.04814814814814815, 0.1361111111111111]","[1, 1]","[0, 0]","[0, 0]","[1.6555135000962764, 2.710102900164202]",[],,,,,,,,,,,,,,,,,,,3,2023-11-30_09h03.53.426,watkins1,2023.2.3,99.75370810059486,33,2023-11-30 09h04.00.727406 +0000,
,,,,,,,,,,,,,,,,,,,1,0,1,0,,,,,574.2540971001144,,,,,,,,,,,,,,kurz,2.370652699843049,,,,,,,,,,,,1.0461269998922944,None,,,,,,,,,,,,,freeRecallSub,3,,,,,,,,,,,,,,,,,,,,,,,,,,,,,,,,,,,,,574.2437380999327,574.2540971001144,574.2540971001144,576.6256546999793,return,2.370652699843049,None,kurz,[],[],[],[],[],[],[],,,,,,,,,,,,,,,,,,,3,2023-11-30_09h03.53.426,watkins1,2023.2.3,99.75370810059486,33,2023-11-30 09h04.00.727406 +0000,
,,,,,,,,,,,,,,,,,,,2,0,2,0,,,,,576.6363139001187,,,,,,,,,,,,,,lang,1.9402889998164028,,,,,,,,,,,,0.6619719001464546,None,,,,,,,,,,,,,freeRecallSub,3,,,,,,,,,,,,,,,,,,,,,,,,,,,,,,,,,,,,,576.6269052000716,576.6363139001187,576.6363139001187,578.5846937999595,return,1.9402889998164028,None,lang,[],[],[],[],[],[],[],,,,,,,,,,,,,,,,,,,3,2023-11-30_09h03.53.426,watkins1,2023.2.3,99.75370810059486,33,2023-11-30 09h04.00.727406 +0000,
,,,,,,,,,,,,,,,,,,,3,0,3,0,,,,,578.5954048000276,,,,,,,,,,,,,,blass,2.1973257998470217,,,,,,,,,,,,0.5015336000360548,None,,,,,,,,,,,,,freeRecallSub,3,,,,,,,,,,,,,,,,,,,,,,,,,,,,,,,,,,,,,578.5859549001325,578.5954048000276,578.5954048000276,580.7946091000922,return,2.1973257998470217,None,blass,[],[],[],[],[],[],[],,,,,,,,,,,,,,,,,,,3,2023-11-30_09h03.53.426,watkins1,2023.2.3,99.75370810059486,33,2023-11-30 09h04.00.727406 +0000,
,,,,,,,,,,,,,,,,,,,4,0,4,0,,,,,580.8054240001366,,,,,,,,,,,,,,hübsch ,19.11524620000273,,,,,,,,,,,,1.1548720998689532,None,,,,,,,,,,,,,freeRecallSub,3,,,,,,,,,,,,,,,,,,,,,,,,,,,,,,,,,,,,,580.7958776000887,580.8054240001366,580.8054240001366,599.9249080999289,return,19.11524620000273,None,hübsch ,[],[],[],[],[],[],[],,,,,,,,,,,,,,,,,,,3,2023-11-30_09h03.53.426,watkins1,2023.2.3,99.75370810059486,33,2023-11-30 09h04.00.727406 +0000,
,,,,,,,,,,,,,,,,,,,5,0,5,0,,,,,599.936529800063,,,,,,,,,,,,,,flauschig,4.384149600053206,,,,,,,,,,,,1.2866485000122339,None,,,,,,,,,,,,,freeRecallSub,3,,,,,,,,,,,,,,,,,,,,,,,,,,,,,,,,,,,,,599.92618030007,599.936529800063,599.936529800063,604.3262761000078,return,4.384149600053206,None,flauschig,[],[],[],[],[],[],[],,,,,,,,,,,,,,,,,,,3,2023-11-30_09h03.53.426,watkins1,2023.2.3,99.75370810059486,33,2023-11-30 09h04.00.727406 +0000,
,,,,,,,,,,,,,,,,,,,6,0,6,0,,,,,604.3377888000105,,,,,,,,,,,,,,rustikal,3.350809199968353,,,,,,,,,,,,0.8844664001371711,None,,,,,,,,,,,,,freeRecallSub,3,,,,,,,,,,,,,,,,,,,,,,,,,,,,,,,,,,,,,604.3275439999998,604.3377888000105,604.3377888000105,607.6935368000995,return,3.350809199968353,None,rustikal,[],[],[],[],[],[],[],,,,,,,,,,,,,,,,,,,3,2023-11-30_09h03.53.426,watkins1,2023.2.3,99.75370810059486,33,2023-11-30 09h04.00.727406 +0000,
,,,,,,,,,,,,,,,,,,,7,0,7,0,,,,,607.7047566999681,,,,,,,,,,,,,,nass,2.895893600070849,,,,,,,,,,,,0.974688199814409,None,,,,,,,,,,,,,freeRecallSub,3,,,,,,,,,,,,,,,,,,,,,,,,,,,,,,,,,,,,,607.6947739000898,607.7047566999681,607.7047566999681,610.6075154999271,return,2.895893600070849,None,nass,[],[],[],[],[],[],[],,,,,,,,,,,,,,,,,,,3,2023-11-30_09h03.53.426,watkins1,2023.2.3,99.75370810059486,33,2023-11-30 09h04.00.727406 +0000,
,,,,,,,,,,,,,,,,,,,8,0,8,0,,,,,610.6191811000463,,,,,,,,,,,,,,breit,3.7894196999259293,,,,,,,,,,,,2.1505068000406027,None,,,,,,,,,,,,,freeRecallSub,3,,,,,,,,,,,,,,,,,,,,,,,,,,,,,,,,,,,,,610.6087698999327,610.6191811000463,610.6191811000463,614.4161193999462,return,3.7894196999259293,None,breit,[],[],[],[],[],[],[],,,,,,,,,,,,,,,,,,,3,2023-11-30_09h03.53.426,watkins1,2023.2.3,99.75370810059486,33,2023-11-30 09h04.00.727406 +0000,
,,,,,,,,,,,,,,,,,,,9,0,9,0,,,,,614.4279628000222,,,,,,,,,,,,,,hohl,2.6126099000684917,,,,,,,,,,,,0.4939154000021517,None,,,,,,,,,,,,,freeRecallSub,3,,,,,,,,,,,,,,,,,,,,,,,,,,,,,,,,,,,,,614.4173697000369,614.4279628000222,614.4279628000222,617.040995300049,return,2.6126099000684917,None,hohl,[],[],[],[],[],[],[],,,,,,,,,,,,,,,,,,,3,2023-11-30_09h03.53.426,watkins1,2023.2.3,99.75370810059486,33,2023-11-30 09h04.00.727406 +0000,
,,,,,,,,,,,,,,,,,,,10,0,10,0,,,,,617.0533521000762,,,,,,,,,,,,,,elegant ,4.035197299905121,,,,,,,,,,,,0.9666845998726785,None,,,,,,,,,,,,,freeRecallSub,3,,,,,,,,,,,,,,,,,,,,,,,,,,,,,,,,,,,,,617.0422515999526,617.0533521000762,617.0533521000762,621.0917571000755,return,4.035197299905121,None,elegant ,[],[],[],[],[],[],[],,,,,,,,,,,,,,,,,,,3,2023-11-30_09h03.53.426,watkins1,2023.2.3,99.75370810059486,33,2023-11-30 09h04.00.727406 +0000,
,,,,,,,,,,,,,,,,,,,11,0,11,0,,,,,621.1038454000372,,,,,,,,,,,,,,schlecht,36.44879260007292,,,,,,,,,,,,34.113953300053254,None,,,,,,,,,,,,,freeRecallSub,3,,,,,,,,,,,,,,,,,,,,,,,,,,,,,,,,,,,,,621.093022499932,621.1038454000372,621.1038454000372,657.5569531000219,return,36.44879260007292,None,schlecht,[],[],[],[],[],[],[],,,,,,,,,,,,,,,,,,,3,2023-11-30_09h03.53.426,watkins1,2023.2.3,99.75370810059486,33,2023-11-30 09h04.00.727406 +0000,
,,,,,,,,,,,,,,,,,,,12,0,12,0,,,,,657.5696738001425,,,,,,,,,,,,,,,[],,,,,,,,,,,,None,None,,,,,,,,,,,,,freeRecallSub,3,,,,,,,,,,,,,,,,,,,,,,,,,,,,,,,,,,,,,657.5584148000926,657.5696738001425,657.5696738001425,668.0959807999898,None,,,,"[-0.6157407407407407, 0.36018518518518516]","[-0.09259259259259259, -0.4064814814814815]","[1, 1]","[0, 0]","[0, 0]","[8.212827699957415, 10.532709900056943]","['button_continue', 'continue_text']",,,,,,,,,,,,,,,,,,,3,2023-11-30_09h03.53.426,watkins1,2023.2.3,99.75370810059486,33,2023-11-30 09h04.00.727406 +0000,
,,,,,,,,,,,,,,,,,,,,,,,,,,,,,,,,,,,,,,,,,,,,,,,,,,,,,,,,,,,,,,,,,,,,,3,,,,,,,,,,,,,,,,,,,,,,,,,,,,,,,,,,,,,,,,,,,,,,,,,,,,,,,,,,,,,,,,,,,,,,3,2023-11-30_09h03.53.426,watkins1,2023.2.3,99.75370810059486,33,2023-11-30 09h04.00.727406 +0000,
,,,,,,,,,,,,,,,,,,,,,,,0,0,0,0,691.7237645999994,,,,,,,,,,698.5357471001334,699.0343571000267,,,,6.80472410004586,,,,,,,,,,,,None,None,,,,,,,,,,Ring,,,cuedRecallAdj,3,,,,,,,,,,,,,,,,,,,,,,,,0,,,,,,,,,,,,,,,,,,,,,,,,,,,,691.7145169000141,691.7237645999994,691.7237645999994,698.5326223999728,flauschig,return,6.80472410004586,None,698.5330179999582,698.5422712999862,698.5422712999862,698.5355984000489,,None,,,,,3,2023-11-30_09h03.53.426,watkins1,2023.2.3,99.75370810059486,33,2023-11-30 09h04.00.727406 +0000,
,,,,,,,,,,,,,,,,,,,,,,,1,0,1,0,699.0443144000601,,,,,,,,,,703.9484810000286,704.4468930999283,,,,4.900318500120193,,,,,,,,,,,,None,None,,,,,,,,,,Kette,,,cuedRecallAdj,3,,,,,,,,,,,,,,,,,,,,,,,,0,,,,,,,,,,,,,,,,,,,,,,,,,,,,699.0345998001285,699.0443144000601,699.0443144000601,703.9454684001394,hübsch,return,4.900318500120193,None,703.9457374000922,703.9545148001052,703.9545148001052,703.9483791000675,,None,,,,,3,2023-11-30_09h03.53.426,watkins1,2023.2.3,99.75370810059486,33,2023-11-30 09h04.00.727406 +0000,
,,,,,,,,,,,,,,,,,,,,,,,2,0,2,0,704.4568364999723,,,,,,,,,,707.3320735001471,707.8306805000175,,,,2.871604099869728,,,,,,,,,,,,None,None,,,,,,,,,,Brille,,,cuedRecallAdj,3,,,,,,,,,,,,,,,,,,,,,,,,0,,,,,,,,,,,,,,,,,,,,,,,,,,,,704.4471367001534,704.4568364999723,704.4568364999723,707.3290393000934,breit,return,2.871604099869728,None,707.3293012001086,707.3385938999709,707.3385938999709,707.331969199935,,None,,,,,3,2023-11-30_09h03.53.426,watkins1,2023.2.3,99.75370810059486,33,2023-11-30 09h04.00.727406 +0000,
,,,,,,,,,,,,,,,,,,,,,,,3,0,3,0,707.8407207001001,,,,,,,,,,711.4389927000739,711.9376960000955,,,,3.5918508998584002,,,,,,,,,,,,None,None,,,,,,,,,,Bürste,,,cuedRecallAdj,3,,,,,,,,,,,,,,,,,,,,,,,,0,,,,,,,,,,,,,,,,,,,,,,,,,,,,707.8309238001239,707.8407207001001,707.8407207001001,711.4361173999496,gut,return,3.5918508998584002,None,711.4363861000165,711.4457207999658,711.4457207999658,711.4388915000018,,None,,,,,3,2023-11-30_09h03.53.426,watkins1,2023.2.3,99.75370810059486,33,2023-11-30 09h04.00.727406 +0000,
,,,,,,,,,,,,,,,,,,,,,,,4,0,4,0,711.9476183999795,,,,,,,,,,715.1248248000629,715.6236030000728,,,,3.1649646998848766,,,,,,,,,,,,None,None,,,,,,,,,,Kiste,,,cuedRecallAdj,3,,,,,,,,,,,,,,,,,,,,,,,,0,,,,,,,,,,,,,,,,,,,,,,,,,,,,711.9379422999918,711.9476183999795,711.9476183999795,715.1218137999531,lang,return,3.1649646998848766,None,715.1220774000976,715.1314936999697,715.1314936999697,715.1247235999908,,None,,,,,3,2023-11-30_09h03.53.426,watkins1,2023.2.3,99.75370810059486,33,2023-11-30 09h04.00.727406 +0000,
,,,,,,,,,,,,,,,,,,,,,,,5,0,5,0,715.633551399922,,,,,,,,,,731.6341226000804,732.1328807000536,,,,15.990916799986735,,,,,,,,,,,,None,None,,,,,,,,,,Trommel,,,cuedRecallAdj,3,,,,,,,,,,,,,,,,,,,,,,,,0,,,,,,,,,,,,,,,,,,,,,,,,,,,,715.6238446000498,715.633551399922,715.633551399922,731.6312084000092,kalt,return,15.990916799986735,None,731.6314763999544,731.6407179001253,731.6407179001253,731.6340204000007,,None,,,,,3,2023-11-30_09h03.53.426,watkins1,2023.2.3,99.75370810059486,33,2023-11-30 09h04.00.727406 +0000,
,,,,,,,,,,,,,,,,,,,,,,,6,0,6,0,732.1428425000049,,,,,,,,,,735.1287283001002,735.6273696001153,,,,2.97764699999243,,,,,,,,,,,,None,None,,,,,,,,,,Socke,,,cuedRecallAdj,3,,,,,,,,,,,,,,,,,,,,,,,,0,,,,,,,,,,,,,,,,,,,,,,,,,,,,732.1331257999409,732.1428425000049,732.1428425000049,735.1256824000739,bunt,return,2.97764699999243,None,735.1259707000572,735.1353301000781,735.1353301000781,735.1286204999778,,None,,,,,3,2023-11-30_09h03.53.426,watkins1,2023.2.3,99.75370810059486,33,2023-11-30 09h04.00.727406 +0000,
,,,,,,,,,,,,,,,,,,,,,,,7,0,7,0,735.6374119999819,,,,,,,,,,742.0976931999903,742.5963445000816,,,,6.451156900031492,,,,,,,,,,,,None,None,,,,,,,,,,Eimer,,,cuedRecallAdj,3,,,,,,,,,,,,,,,,,,,,,,,,0,,,,,,,,,,,,,,,,,,,,,,,,,,,,735.6276147000026,735.6374119999819,735.6374119999819,742.0946728999261,kobrig,return,6.451156900031492,None,742.0949371000752,742.1042311999481,742.1042311999481,742.0975887000095,,None,,,,,3,2023-11-30_09h03.53.426,watkins1,2023.2.3,99.75370810059486,33,2023-11-30 09h04.00.727406 +0000,
,,,,,,,,,,,,,,,,,,,,,,,8,0,8,0,742.6062904000282,,,,,,,,,,747.5802845000289,748.0790757001378,,,,4.97024490009062,,,,,,,,,,,,None,None,,,,,,,,,,Lampe,,,cuedRecallAdj,3,,,,,,,,,,,,,,,,,,,,,,,,0,,,,,,,,,,,,,,,,,,,,,,,,,,,,742.5965873999521,742.6062904000282,742.6062904000282,747.5772641000804,hübsch,return,4.97024490009062,None,747.5775276999921,747.5866988999769,747.5866988999769,747.5801822999492,,None,,,,,3,2023-11-30_09h03.53.426,watkins1,2023.2.3,99.75370810059486,33,2023-11-30 09h04.00.727406 +0000,
,,,,,,,,,,,,,,,,,,,,,,,9,0,9,0,748.08902449999,,,,,,,,,,750.9342253999785,751.4235952000599,,,,2.83942830003798,,,,,,,,,,,,None,None,,,,,,,,,,Flasche,,,cuedRecallAdj,3,,,,,,,,,,,,,,,,,,,,,,,,0,,,,,,,,,,,,,,,,,,,,,,,,,,,,748.0793179001193,748.08902449999,748.08902449999,750.9312575000804,kurz,return,2.83942830003798,None,750.9315240001306,750.940794599941,750.940794599941,750.9341243000235,,None,,,,,3,2023-11-30_09h03.53.426,watkins1,2023.2.3,99.75370810059486,33,2023-11-30 09h04.00.727406 +0000,
,,,,,,,,,,,,,,,,,,,,,,,10,0,10,0,751.4335557001177,,,,,,,,,,754.3284225000534,754.82742350013,,,,2.8868603999726474,,,,,,,,,,,,None,None,,,,,,,,,,Blume,,,cuedRecallAdj,3,,,,,,,,,,,,,,,,,,,,,,,,0,,,,,,,,,,,,,,,,,,,,,,,,,,,,751.4238424000796,751.4335557001177,751.4335557001177,754.3254432999529,blass,return,2.8868603999726474,None,754.3257081999909,754.3349285000004,754.3349285000004,754.3283222001046,,None,,,,,3,2023-11-30_09h03.53.426,watkins1,2023.2.3,99.75370810059486,33,2023-11-30 09h04.00.727406 +0000,
,,,,,,,,,,,,,,,,,,,,,,,11,0,11,0,754.837373400107,,,,,,,,,,760.3036225000396,760.8022404999938,,,,5.459083799971268,,,,,,,,,,,,None,None,,,,,,,,,,Stift,,,cuedRecallAdj,3,,,,,,,,,,,,,,,,,,,,,,,,0,,,,,,,,,,,,,,,,,,,,,,,,,,,,754.8276639000978,754.837373400107,754.837373400107,760.3005588999949,gestreift,return,5.459083799971268,None,760.3008230000269,760.3101153001189,760.3101153001189,760.3035218000878,,None,,,,,3,2023-11-30_09h03.53.426,watkins1,2023.2.3,99.75370810059486,33,2023-11-30 09h04.00.727406 +0000,
,,,,,,,,,,,,,,,,,,,,,,,12,0,12,0,760.8121484001167,,,,,,,,,,763.4365477000829,763.9352313999552,,,,2.6123378998599946,,,,,,,,,,,,None,None,,,,,,,,,,Löffel,,,cuedRecallAdj,3,,,,,,,,,,,,,,,,,,,,,,,,0,,,,,,,,,,,,,,,,,,,,,,,,,,,,760.8024806000758,760.8121484001167,760.8121484001167,763.4334784999955,nass,return,2.6123378998599946,None,763.4337454999331,763.4431946999393,763.4431946999393,763.4364476001356,,None,,,,,3,2023-11-30_09h03.53.426,watkins1,2023.2.3,99.75370810059486,33,2023-11-30 09h04.00.727406 +0000,
,,,,,,,,,,,,,,,,,,,,,,,13,0,13,0,763.9452285999432,,,,,,,,,,770.8472983001266,771.34567900002,,,,6.895288599887863,,,,,,,,,,,,None,None,,,,,,,,,,Tasse,,,cuedRecallAdj,3,,,,,,,,,,,,,,,,,,,,,,,,0,,,,,,,,,,,,,,,,,,,,,,,,,,,,763.9354761000723,763.9452285999432,763.9452285999432,770.8441928001121,verspielt,return,6.895288599887863,None,770.8444581001531,770.853746799985,770.853746799985,770.8471967999358,,None,,,,,3,2023-11-30_09h03.53.426,watkins1,2023.2.3,99.75370810059486,33,2023-11-30 09h04.00.727406 +0000,
,,,,,,,,,,,,,,,,,,,,,,,14,0,14,0,771.3556870000903,,,,,,,,,,778.6611065000761,779.1600838000886,,,,7.292778400005773,,,,,,,,,,,,None,None,,,,,,,,,,Hut,,,cuedRecallAdj,3,,,,,,,,,,,,,,,,,,,,,,,,0,,,,,,,,,,,,,,,,,,,,,,,,,,,,771.3459216000047,771.3556870000903,771.3556870000903,778.6581930001266,niedlich,return,7.292778400005773,None,778.6584644999821,778.6679617001209,778.6679617001209,778.661004900001,,None,,,,,3,2023-11-30_09h03.53.426,watkins1,2023.2.3,99.75370810059486,33,2023-11-30 09h04.00.727406 +0000,
,,,,,,,,,,,,,,,,,,,,,,,15,0,15,0,779.1700345999561,,,,,,,,,,785.6907031999435,786.1891520000063,,,,6.510500699980184,,,,,,,,,,,,None,None,,,,,,,,,,Tasche,,,cuedRecallAdj,3,,,,,,,,,,,,,,,,,,,,,,,,0,,,,,,,,,,,,,,,,,,,,,,,,,,,,779.1603226000443,779.1700345999561,779.1700345999561,785.687644300051,nachhaltig,return,6.510500699980184,None,785.687904600054,785.6971764999907,785.6971764999907,785.6906039000023,,None,,,,,3,2023-11-30_09h03.53.426,watkins1,2023.2.3,99.75370810059486,33,2023-11-30 09h04.00.727406 +0000,
,,,,,,,,,,,,,,,,,,,,,,,16,0,16,0,786.199136500014,,,,,,,,,,790.9826877000742,791.481066999957,,,,4.7772644001524895,,,,,,,,,,,,None,None,,,,,,,,,,Würfel,,,cuedRecallAdj,3,,,,,,,,,,,,,,,,,,,,,,,,0,,,,,,,,,,,,,,,,,,,,,,,,,,,,786.189398500137,786.199136500014,786.199136500014,790.9796343999915,elegant,return,4.7772644001524895,None,790.9799013999291,790.9891755999997,790.9891755999997,790.9825858001132,,None,,,,,3,2023-11-30_09h03.53.426,watkins1,2023.2.3,99.75370810059486,33,2023-11-30 09h04.00.727406 +0000,
,,,,,,,,,,,,,,,,,,,,,,,17,0,17,0,791.4909703999292,,,,,,,,,,800.3415809001308,800.8402193000074,,,,8.845516399946064,,,,,,,,,,,,None,None,,,,,,,,,,Telefon,,,cuedRecallAdj,3,,,,,,,,,,,,,,,,,,,,,,,,0,,,,,,,,,,,,,,,,,,,,,,,,,,,,791.4813151000999,791.4909703999292,791.4909703999292,800.3384591999929,praktisch,return,8.845516399946064,None,800.3387261000462,800.3481159999501,800.3481159999501,800.3414785999339,,None,,,,,3,2023-11-30_09h03.53.426,watkins1,2023.2.3,99.75370810059486,33,2023-11-30 09h04.00.727406 +0000,
,,,,,,,,,,,,,,,,,,,,,,,18,0,18,0,800.8501132000238,,,,,,,,,,804.9403379000723,805.4390157000162,,,,4.086349399993196,,,,,,,,,,,,None,None,,,,,,,,,,Schlüssel,,,cuedRecallAdj,3,,,,,,,,,,,,,,,,,,,,,,,,0,,,,,,,,,,,,,,,,,,,,,,,,,,,,800.8404715999495,800.8501132000238,800.8501132000238,804.9374250001274,matt,return,4.086349399993196,None,804.9376848000102,804.9469562999438,804.9469562999438,804.94023930002,,None,,,,,3,2023-11-30_09h03.53.426,watkins1,2023.2.3,99.75370810059486,33,2023-11-30 09h04.00.727406 +0000,
,,,,,,,,,,,,,,,,,,,,,,,19,0,19,0,805.4490714999847,,,,,,,,,,808.7662607999519,809.2648124999832,,,,3.3113206000998616,,,,,,,,,,,,None,None,,,,,,,,,,Kamera,,,cuedRecallAdj,3,,,,,,,,,,,,,,,,,,,,,,,,0,,,,,,,,,,,,,,,,,,,,,,,,,,,,805.439259900013,805.4490714999847,805.4490714999847,808.763142199954,sauber,return,3.3113206000998616,None,808.7634229001123,808.7726851000916,808.7726851000916,808.7661592001095,,None,,,,,3,2023-11-30_09h03.53.426,watkins1,2023.2.3,99.75370810059486,33,2023-11-30 09h04.00.727406 +0000,
,,,,,,,,,,,,,,,,,,,,,,,20,0,20,0,809.2747498000972,,,,,,,,,,819.3609116999432,819.8592469000723,,,,10.077714300015941,,,,,,,,,,,,None,None,,,,,,,,,,Vase,,,cuedRecallAdj,3,,,,,,,,,,,,,,,,,,,,,,,,0,,,,,,,,,,,,,,,,,,,,,,,,,,,,809.2650518000592,809.2747498000972,809.2747498000972,819.3575933999382,klein,return,10.077714300015941,None,819.3578586999793,819.3672448999714,819.3672448999714,819.3608101001009,,None,,,,,3,2023-11-30_09h03.53.426,watkins1,2023.2.3,99.75370810059486,33,2023-11-30 09h04.00.727406 +0000,
,,,,,,,,,,,,,,,,,,,,,,,21,0,21,0,819.8692938999739,,,,,,,,,,824.1000163999852,824.5987585000694,,,,4.219088200014085,,,,,,,,,,,,None,None,,,,,,,,,,Geige,,,cuedRecallAdj,3,,,,,,,,,,,,,,,,,,,,,,,,0,,,,,,,,,,,,,,,,,,,,,,,,,,,,819.859494500095,819.8692938999739,819.8692938999739,824.0969758001156,rustikal,return,4.219088200014085,None,824.0972428000532,824.1066433000378,824.1066433000378,824.0999154001474,,None,,,,,3,2023-11-30_09h03.53.426,watkins1,2023.2.3,99.75370810059486,33,2023-11-30 09h04.00.727406 +0000,
,,,,,,,,,,,,,,,,,,,,,,,22,0,22,0,824.608709000051,,,,,,,,,,829.8439180001151,830.3423490000423,,,,5.231918099801987,,,,,,,,,,,,None,None,,,,,,,,,,Uhr,,,cuedRecallAdj,3,,,,,,,,,,,,,,,,,,,,,,,,0,,,,,,,,,,,,,,,,,,,,,,,,,,,,824.5990007999353,824.608709000051,824.608709000051,829.8410086999647,glänzend,return,5.231918099801987,None,829.8412736000028,829.8501852999907,829.8501852999907,829.8438174000476,,None,,,,,3,2023-11-30_09h03.53.426,watkins1,2023.2.3,99.75370810059486,33,2023-11-30 09h04.00.727406 +0000,
,,,,,,,,,,,,,,,,,,,,,,,23,0,23,0,830.3522954001091,,,,,,,,,,833.6293009000365,834.1279714000411,,,,3.272116200067103,,,,,,,,,,,,None,None,,,,,,,,,,Jacke,,,cuedRecallAdj,3,,,,,,,,,,,,,,,,,,,,,,,,0,,,,,,,,,,,,,,,,,,,,,,,,,,,,830.342587399995,830.3522954001091,830.3522954001091,833.6262081000023,schwer,return,3.272116200067103,None,833.6264738999307,833.6358205999713,833.6358205999713,833.6291988999583,,None,,,,,3,2023-11-30_09h03.53.426,watkins1,2023.2.3,99.75370810059486,33,2023-11-30 09h04.00.727406 +0000,
,,,,,,,,,,,,,,,,,,,,,,,24,0,24,0,834.1379215000197,,,,,,,,,,853.9750833001453,854.4737382000312,,,,19.83047049981542,,,,,,,,,,,,None,None,,,,,,,,,,Rucksack,,,cuedRecallAdj,3,,,,,,,,,,,,,,,,,,,,,,,,0,,,,,,,,,,,,,,,,,,,,,,,,,,,,834.128207599977,834.1379215000197,834.1379215000197,853.9721159001347,alt,return,19.83047049981542,None,853.9723807000555,853.9816727000289,853.9816727000289,853.9749809999485,,None,,,,,3,2023-11-30_09h03.53.426,watkins1,2023.2.3,99.75370810059486,33,2023-11-30 09h04.00.727406 +0000,
,,,,,,,,,,,,,,,,,,,,,,,25,0,25,0,854.4836416000035,,,,,,,,,,862.068219400011,862.5669655001257,,,,7.580765000078827,,,,,,,,,,,,None,None,,,,,,,,,,Kerze,,,cuedRecallAdj,3,,,,,,,,,,,,,,,,,,,,,,,,0,,,,,,,,,,,,,,,,,,,,,,,,,,,,854.4739870000631,854.4836416000035,854.4836416000035,862.0653371999506,kurz,return,7.580765000078827,None,862.0656028999947,862.0748811999802,862.0748811999802,862.0681151000317,,None,,,,,3,2023-11-30_09h03.53.426,watkins1,2023.2.3,99.75370810059486,33,2023-11-30 09h04.00.727406 +0000,
,,,,,,,,,,,,,,,,,,,,,,,26,0,26,0,862.576956700068,,,,,,,,,,875.3538762999233,875.8522677000146,,,,12.767384700011462,,,,,,,,,,,,None,None,,,,,,,,,,Fahrrad,,,cuedRecallAdj,3,,,,,,,,,,,,,,,,,,,,,,,,0,,,,,,,,,,,,,,,,,,,,,,,,,,,,862.5672031999566,862.576956700068,862.576956700068,875.3507519999985,rustikal,return,12.767384700011462,None,875.3510185000487,875.3602996000554,875.3602996000554,875.3537751999684,,None,,,,,3,2023-11-30_09h03.53.426,watkins1,2023.2.3,99.75370810059486,33,2023-11-30 09h04.00.727406 +0000,
,,,,,,,,,,,,,,,,,,,,,,,27,0,27,0,875.8622209001333,,,,,,,,,,888.4278289999347,888.9267611000687,,,,12.562091500032693,,,,,,,,,,,,None,None,,,,,,,,,,Buch,,,cuedRecallAdj,3,,,,,,,,,,,,,,,,,,,,,,,,0,,,,,,,,,,,,,,,,,,,,,,,,,,,,875.8525122001301,875.8622209001333,875.8622209001333,888.425092899939,zart,return,12.562091500032693,None,888.4253583000973,888.4345667001326,888.4345667001326,888.4277280999813,,None,,,,,3,2023-11-30_09h03.53.426,watkins1,2023.2.3,99.75370810059486,33,2023-11-30 09h04.00.727406 +0000,
,,,,,,,,,,,,,,,,,,,,,,,28,0,28,0,888.9367005999666,,,,,,,,,,892.113028800115,892.6121958000585,,,,3.1677059000357985,,,,,,,,,,,,None,None,,,,,,,,,,Schere,,,cuedRecallAdj,3,,,,,,,,,,,,,,,,,,,,,,,,0,,,,,,,,,,,,,,,,,,,,,,,,,,,,888.927006599959,888.9367005999666,888.9367005999666,892.1102062999271,hohl,return,3.1677059000357985,None,892.1104695999529,892.1198086000513,892.1198086000513,892.1129302000627,,None,,,,,3,2023-11-30_09h03.53.426,watkins1,2023.2.3,99.75370810059486,33,2023-11-30 09h04.00.727406 +0000,
,,,,,,,,,,,,,,,,,,,,,,,29,0,29,0,892.6220937001053,,,,,,,,,,896.2221379000694,896.7209600000642,,,,3.5941485001239926,,,,,,,,,,,,None,None,,,,,,,,,,Hammer,,,cuedRecallAdj,3,,,,,,,,,,,,,,,,,,,,,,,,0,,,,,,,,,,,,,,,,,,,,,,,,,,,,892.6124313001055,892.6220937001053,892.6220937001053,896.2191361000296,flach,return,3.5941485001239926,None,896.2194469999522,896.2286282000132,896.2286282000132,896.2220379000064,,None,,,,,3,2023-11-30_09h03.53.426,watkins1,2023.2.3,99.75370810059486,33,2023-11-30 09h04.00.727406 +0000,
,,,,,,,,,,,,,,,,,,,,,,,,,,,,,,,,,,,,,,,,,,,,,,,,,,,,,,,,,,,,,,,,,,,,,3,,,,,,,,,,,,,,,,,,,,,,,,,,,,,,,,,,,,,,,,,,,,,,,,,,,,,,,,,,,,,,,,,,896.7378396000713,q,1415.1249569999054,None,3,2023-11-30_09h03.53.426,watkins1,2023.2.3,99.75370810059486,33,2023-11-30 09h04.00.727406 +0000,
