Equation,CorrectResponse,Correctbutton,trials_7.thisRepN,trials_7.thisTrialN,trials_7.thisN,trials_7.thisIndex,trials.thisRepN,trials.thisTrialN,trials.thisN,trials.thisIndex,trials_3.thisRepN,trials_3.thisTrialN,trials_3.thisN,trials_3.thisIndex,trials_2.thisRepN,trials_2.thisTrialN,trials_2.thisN,trials_2.thisIndex,trials_4.thisRepN,trials_4.thisTrialN,trials_4.thisN,trials_4.thisIndex,trials_5.thisRepN,trials_5.thisTrialN,trials_5.thisN,trials_5.thisIndex,thisRow.t,notes,code_marius.started,code_marius.stopped,welcome.started,welcome.stopped,instruction_study.started,instruction_study.stopped,fixationcross.started,fixationcross.stopped,blanc.started,blanc.stopped,study_control_probe.started,study_control_probe.stopped,responseKey,responseTime,scale_answer_2.keys,study_control_probe_2.started,study_control_probe_2.stopped,scale_answer_3.keys,scale_answer_3.rt,scale_answer_3.duration,blanc_2.started,blanc_2.stopped,test_attr_probe.started,test_attr_probe.stopped,recalled_attr,firstKeyTime,secondWordTime,blanc_3.started,blanc_3.stopped,test_sub_probe.started,test_sub_probe.stopped,recalled_sub,instruction_probe_end.started,instruction_probe_end.stopped,study.started,study.stopped,substantive,adjective,wordpair,task,condition,liste_sub_phase1,liste_adj_phase1,scale_answer.keys,scale_answer.rt,scale_answer.duration,code_defineWordsInit.started,code_defineWordsInit.stopped,liste_sub_phase2,study_control.started,study_control.stopped,scale_answer_4.keys,restudy_same.started,restudy_same.stopped,scale_answer_5.keys,restudy_different.started,restudy_different.stopped,scale_answer_6.keys,scale_answer_6.rt,scale_answer_6.duration,test_attr.started,test_attr.stopped,test_sub.started,test_sub.stopped,scale_answer_4.rt,scale_answer_4.duration,distractortask.started,equation_text.started,distractortask.stopped,mouse_answer.x,mouse_answer.y,mouse_answer.leftButton,mouse_answer.midButton,mouse_answer.rightButton,mouse_answer.time,mouse_answer.clicked_name,feedback_distractortask.started,feedback_distractortask.stopped,free_recall.started,text_enter.started,key_resp.started,free_recall.stopped,key_resp.keys,key_resp.rt,key_resp.duration,free_recalled_sub,mouse_continue.x,mouse_continue.y,mouse_continue.leftButton,mouse_continue.midButton,mouse_continue.rightButton,mouse_continue.time,mouse_continue.clicked_name,cued_recall.started,text_enter_2.started,correct,key_continue.started,cued_recall.stopped,recalled_attr1,key_continue.keys,key_continue.rt,key_continue.duration,cued_recall_2.started,text_enter_3.started,key_continue_2.started,cued_recall_2.stopped,recalled_attr2,key_continue_2.keys,key_continue_2.rt,key_continue_2.duration,key_resp_8.started,key_resp_8.keys,key_resp_8.rt,key_resp_8.duration,condition,date,expName,psychopyVersion,frameRate,participant,expStart,
,,,,,,,,,,,,,,,,,,,,,,,,,,,,,0.10080069996183738,0.10086629999568686,0.10087480000220239,2.23759269999573,,,,,,,,,,,,,,,,,,,,,,,,,,,,,,,,,,,,,1,,,,,,,,,,,,,,,,,,,,,,,,,,,,,,,,,,,,,,,,,,,,,,,,,,,,,,,,,,,,,,,,,,,,,,,,,,1,2023-11-27_12h22.21.294,watkins1,2023.2.3,99.74853397032125,20,2023-11-27 12h22.28.392525 +0000,
,,,,,,,,,,,,,,,,,,,,,,,,,,,,,,,,,2.2376406000112183,31.50606380001409,,,,,,,,,,,,,,,,,,,,,,,,,,,,,,,,,,,1,,,,,,,,,,,,,,,,,,,,,,,,,,,,,,,,,,,,,,,,,,,,,,,,,,,,,,,,,,,,,,,,,,,,,,,,,,1,2023-11-27_12h22.21.294,watkins1,2023.2.3,99.74853397032125,20,2023-11-27 12h22.28.392525 +0000,
,,,0,0,0,0,,,,,,,,,,,,,,,,,,,,,32.51971109997248,,,,,,,,31.50607870001113,32.50964209996164,39.00987329997588,39.50120629998855,33.00176199997077,39.009705399977975,3,1.9968357000034302,None,39.501215900003444,45.50365279999096,3,1.9968357000034302,None,45.503943699994124,45.50396719999844,45.50397439999506,45.50405469996622,,None,None,45.504217299981974,45.5042373999604,45.50424430001294,45.504315399972256,,,,,,,,,,1,,,,,,,,,,,,,,,,,,,,,,,,,,,,,,,,,,,,,,,,,,,,,,,,,,,,,,,,,,,,,,,,,,,,,,,,,,1,2023-11-27_12h22.21.294,watkins1,2023.2.3,99.74853397032125,20,2023-11-27 12h22.28.392525 +0000,
,,,,,,,,,,,,,,,,,,,,,,,,,,,,,,,,,,,,,,,,,,,,,,,,,,,,,,,,,,,,,45.50442869996186,51.61437309999019,,,,,,,1,,,,,,,,,,,,,,,,,,,,,,,,,,,,,,,,,,,,,,,,,,,,,,,,,,,,,,,,,,,,,,,,,,,,,,,,,,1,2023-11-27_12h22.21.294,watkins1,2023.2.3,99.74853397032125,20,2023-11-27 12h22.28.392525 +0000,
,,,,,,,0,0,0,0,,,,,,,,,,,,,,,,,52.627918599988334,,,,,,,,51.614389099995606,52.617937200004235,52.61837599996943,53.10983019997366,,,3,1.1320573999546468,,,,,,,,,,,,,,,,,,,,,53.10984109999845,59.1186065999791,Tasche,groß,"['Tasche', 'groß']",restudy_diff,1,"['Tasche', 'Kette', 'Schere', 'Würfel', 'Kerze', 'Tasse', 'Uhr', 'Geige', 'Löffel', 'Blume', 'Stift', 'Bürste', 'Eimer', 'Ring', 'Hammer', 'Brille', 'Kamera', 'Jacke', 'Telefon', 'Vase', 'Fahrrad', 'Schlüssel']",['groß'],3,1.1320573999546468,None,,,,,,,,,,,,,,,,,,,,,,,,,,,,,,,,,,,,,,,,,,,,,,,,,,,,,,,,,,,,,,,,,,,,,1,2023-11-27_12h22.21.294,watkins1,2023.2.3,99.74853397032125,20,2023-11-27 12h22.28.392525 +0000,
,,,,,,,1,0,1,0,,,,,,,,,,,,,,,,,59.12817509996239,,,,,,,,,,59.11920899996767,59.610224800009746,,,2,2.9797269999980927,,,,,,,,,,,,,,,,,,,,,59.61023559997557,65.61356620001607,Kette,gestreift,"['Kette', 'gestreift']",restudy_diff,1,"['Tasche', 'Kette', 'Schere', 'Würfel', 'Kerze', 'Tasse', 'Uhr', 'Geige', 'Löffel', 'Blume', 'Stift', 'Bürste', 'Eimer', 'Ring', 'Hammer', 'Brille', 'Kamera', 'Jacke', 'Telefon', 'Vase', 'Fahrrad', 'Schlüssel']","['groß', 'gestreift']",2,2.9797269999980927,None,,,,,,,,,,,,,,,,,,,,,,,,,,,,,,,,,,,,,,,,,,,,,,,,,,,,,,,,,,,,,,,,,,,,,1,2023-11-27_12h22.21.294,watkins1,2023.2.3,99.74853397032125,20,2023-11-27 12h22.28.392525 +0000,
,,,,,,,2,0,2,0,,,,,,,,,,,,,,,,,65.62302960001398,,,,,,,,,,65.614042399975,66.10513069998706,,,1,2.0050319000147283,,,,,,,,,,,,,,,,,,,,,66.10514080000576,72.11128159996588,Schere,robust,"['Schere', 'robust']",restudy_diff,1,"['Tasche', 'Kette', 'Schere', 'Würfel', 'Kerze', 'Tasse', 'Uhr', 'Geige', 'Löffel', 'Blume', 'Stift', 'Bürste', 'Eimer', 'Ring', 'Hammer', 'Brille', 'Kamera', 'Jacke', 'Telefon', 'Vase', 'Fahrrad', 'Schlüssel']","['groß', 'gestreift', 'robust']",1,2.0050319000147283,None,,,,,,,,,,,,,,,,,,,,,,,,,,,,,,,,,,,,,,,,,,,,,,,,,,,,,,,,,,,,,,,,,,,,,1,2023-11-27_12h22.21.294,watkins1,2023.2.3,99.74853397032125,20,2023-11-27 12h22.28.392525 +0000,
,,,,,,,3,0,3,0,,,,,,,,,,,,,,,,,72.12084789999062,,,,,,,,,,72.11176279996289,72.60281599999871,,,1,1.4433229999849573,,,,,,,,,,,,,,,,,,,,,72.60282679996453,78.6051763999858,Würfel,nass,"['Würfel', 'nass']",restudy_diff,1,"['Tasche', 'Kette', 'Schere', 'Würfel', 'Kerze', 'Tasse', 'Uhr', 'Geige', 'Löffel', 'Blume', 'Stift', 'Bürste', 'Eimer', 'Ring', 'Hammer', 'Brille', 'Kamera', 'Jacke', 'Telefon', 'Vase', 'Fahrrad', 'Schlüssel']","['groß', 'gestreift', 'robust', 'nass']",1,1.4433229999849573,None,,,,,,,,,,,,,,,,,,,,,,,,,,,,,,,,,,,,,,,,,,,,,,,,,,,,,,,,,,,,,,,,,,,,,1,2023-11-27_12h22.21.294,watkins1,2023.2.3,99.74853397032125,20,2023-11-27 12h22.28.392525 +0000,
,,,,,,,4,0,4,0,,,,,,,,,,,,,,,,,78.61460249999072,,,,,,,,,,78.60564929997781,79.09659679996548,,,3,1.5582348000025377,,,,,,,,,,,,,,,,,,,,,79.09660729998723,85.10299759998452,Kerze,strahlend,"['Kerze', 'strahlend']",restudy_diff,1,"['Tasche', 'Kette', 'Schere', 'Würfel', 'Kerze', 'Tasse', 'Uhr', 'Geige', 'Löffel', 'Blume', 'Stift', 'Bürste', 'Eimer', 'Ring', 'Hammer', 'Brille', 'Kamera', 'Jacke', 'Telefon', 'Vase', 'Fahrrad', 'Schlüssel']","['groß', 'gestreift', 'robust', 'nass', 'strahlend']",3,1.5582348000025377,None,,,,,,,,,,,,,,,,,,,,,,,,,,,,,,,,,,,,,,,,,,,,,,,,,,,,,,,,,,,,,,,,,,,,,1,2023-11-27_12h22.21.294,watkins1,2023.2.3,99.74853397032125,20,2023-11-27 12h22.28.392525 +0000,
,,,,,,,5,0,5,0,,,,,,,,,,,,,,,,,85.11246869998286,,,,,,,,,,85.10347420000471,85.59450020000804,,,3,1.4292678999481723,,,,,,,,,,,,,,,,,,,,,85.5945103999693,91.6024427000084,Tasse,hohl,"['Tasse', 'hohl']",restudy_diff,1,"['Tasche', 'Kette', 'Schere', 'Würfel', 'Kerze', 'Tasse', 'Uhr', 'Geige', 'Löffel', 'Blume', 'Stift', 'Bürste', 'Eimer', 'Ring', 'Hammer', 'Brille', 'Kamera', 'Jacke', 'Telefon', 'Vase', 'Fahrrad', 'Schlüssel']","['groß', 'gestreift', 'robust', 'nass', 'strahlend', 'hohl']",3,1.4292678999481723,None,,,,,,,,,,,,,,,,,,,,,,,,,,,,,,,,,,,,,,,,,,,,,,,,,,,,,,,,,,,,,,,,,,,,,1,2023-11-27_12h22.21.294,watkins1,2023.2.3,99.74853397032125,20,2023-11-27 12h22.28.392525 +0000,
,,,,,,,6,0,6,0,,,,,,,,,,,,,,,,,91.61146220000228,,,,,,,,,,91.60291889996734,92.09339100000216,,,3,2.3700252000126056,,,,,,,,,,,,,,,,,,,,,92.09340099996189,98.09730259998469,Uhr,lang,"['Uhr', 'lang']",control,1,"['Tasche', 'Kette', 'Schere', 'Würfel', 'Kerze', 'Tasse', 'Uhr', 'Geige', 'Löffel', 'Blume', 'Stift', 'Bürste', 'Eimer', 'Ring', 'Hammer', 'Brille', 'Kamera', 'Jacke', 'Telefon', 'Vase', 'Fahrrad', 'Schlüssel']","['groß', 'gestreift', 'robust', 'nass', 'strahlend', 'hohl', 'lang']",3,2.3700252000126056,None,,,,,,,,,,,,,,,,,,,,,,,,,,,,,,,,,,,,,,,,,,,,,,,,,,,,,,,,,,,,,,,,,,,,,1,2023-11-27_12h22.21.294,watkins1,2023.2.3,99.74853397032125,20,2023-11-27 12h22.28.392525 +0000,
,,,,,,,7,0,7,0,,,,,,,,,,,,,,,,,98.10673860000679,,,,,,,,,,98.09779289999278,98.58877989999019,,,1,1.769913500000257,,,,,,,,,,,,,,,,,,,,,98.58879090001574,104.59449340001447,Geige,matt,"['Geige', 'matt']",control,1,"['Tasche', 'Kette', 'Schere', 'Würfel', 'Kerze', 'Tasse', 'Uhr', 'Geige', 'Löffel', 'Blume', 'Stift', 'Bürste', 'Eimer', 'Ring', 'Hammer', 'Brille', 'Kamera', 'Jacke', 'Telefon', 'Vase', 'Fahrrad', 'Schlüssel']","['groß', 'gestreift', 'robust', 'nass', 'strahlend', 'hohl', 'lang', 'matt']",1,1.769913500000257,None,,,,,,,,,,,,,,,,,,,,,,,,,,,,,,,,,,,,,,,,,,,,,,,,,,,,,,,,,,,,,,,,,,,,,1,2023-11-27_12h22.21.294,watkins1,2023.2.3,99.74853397032125,20,2023-11-27 12h22.28.392525 +0000,
,,,,,,,8,0,8,0,,,,,,,,,,,,,,,,,104.60389399999985,,,,,,,,,,104.59497819998069,105.08587879996048,,,1,2.552506399981212,,,,,,,,,,,,,,,,,,,,,105.0858885999769,111.08760530001018,Löffel,krumm,"['Löffel', 'krumm']",restudy_diff,1,"['Tasche', 'Kette', 'Schere', 'Würfel', 'Kerze', 'Tasse', 'Uhr', 'Geige', 'Löffel', 'Blume', 'Stift', 'Bürste', 'Eimer', 'Ring', 'Hammer', 'Brille', 'Kamera', 'Jacke', 'Telefon', 'Vase', 'Fahrrad', 'Schlüssel']","['groß', 'gestreift', 'robust', 'nass', 'strahlend', 'hohl', 'lang', 'matt', 'krumm']",1,2.552506399981212,None,,,,,,,,,,,,,,,,,,,,,,,,,,,,,,,,,,,,,,,,,,,,,,,,,,,,,,,,,,,,,,,,,,,,,1,2023-11-27_12h22.21.294,watkins1,2023.2.3,99.74853397032125,20,2023-11-27 12h22.28.392525 +0000,
,,,,,,,9,0,9,0,,,,,,,,,,,,,,,,,111.09707329998491,,,,,,,,,,111.08807479997631,111.57904450001661,,,3,1.0604168999707326,,,,,,,,,,,,,,,,,,,,,111.57905489997938,117.58636499999557,Blume,gut,"['Blume', 'gut']",restudy_diff,1,"['Tasche', 'Kette', 'Schere', 'Würfel', 'Kerze', 'Tasse', 'Uhr', 'Geige', 'Löffel', 'Blume', 'Stift', 'Bürste', 'Eimer', 'Ring', 'Hammer', 'Brille', 'Kamera', 'Jacke', 'Telefon', 'Vase', 'Fahrrad', 'Schlüssel']","['groß', 'gestreift', 'robust', 'nass', 'strahlend', 'hohl', 'lang', 'matt', 'krumm', 'gut']",3,1.0604168999707326,None,,,,,,,,,,,,,,,,,,,,,,,,,,,,,,,,,,,,,,,,,,,,,,,,,,,,,,,,,,,,,,,,,,,,,1,2023-11-27_12h22.21.294,watkins1,2023.2.3,99.74853397032125,20,2023-11-27 12h22.28.392525 +0000,
,,,,,,,10,0,10,0,,,,,,,,,,,,,,,,,117.59594159998232,,,,,,,,,,117.58683290000772,118.07784109999193,,,3,1.4984655999578536,,,,,,,,,,,,,,,,,,,,,118.07785090000834,124.08586880000075,Stift,kalt,"['Stift', 'kalt']",restudy_diff,1,"['Tasche', 'Kette', 'Schere', 'Würfel', 'Kerze', 'Tasse', 'Uhr', 'Geige', 'Löffel', 'Blume', 'Stift', 'Bürste', 'Eimer', 'Ring', 'Hammer', 'Brille', 'Kamera', 'Jacke', 'Telefon', 'Vase', 'Fahrrad', 'Schlüssel']","['groß', 'gestreift', 'robust', 'nass', 'strahlend', 'hohl', 'lang', 'matt', 'krumm', 'gut', 'kalt']",3,1.4984655999578536,None,,,,,,,,,,,,,,,,,,,,,,,,,,,,,,,,,,,,,,,,,,,,,,,,,,,,,,,,,,,,,,,,,,,,,1,2023-11-27_12h22.21.294,watkins1,2023.2.3,99.74853397032125,20,2023-11-27 12h22.28.392525 +0000,
,,,,,,,11,0,11,0,,,,,,,,,,,,,,,,,124.09539490001043,,,,,,,,,,124.08634579996578,124.57731419999618,,,1,2.3265295999590307,,,,,,,,,,,,,,,,,,,,,124.57732440001564,130.57872579997638,Bürste,blass,"['Bürste', 'blass']",restudy_diff,1,"['Tasche', 'Kette', 'Schere', 'Würfel', 'Kerze', 'Tasse', 'Uhr', 'Geige', 'Löffel', 'Blume', 'Stift', 'Bürste', 'Eimer', 'Ring', 'Hammer', 'Brille', 'Kamera', 'Jacke', 'Telefon', 'Vase', 'Fahrrad', 'Schlüssel']","['groß', 'gestreift', 'robust', 'nass', 'strahlend', 'hohl', 'lang', 'matt', 'krumm', 'gut', 'kalt', 'blass']",1,2.3265295999590307,None,,,,,,,,,,,,,,,,,,,,,,,,,,,,,,,,,,,,,,,,,,,,,,,,,,,,,,,,,,,,,,,,,,,,,1,2023-11-27_12h22.21.294,watkins1,2023.2.3,99.74853397032125,20,2023-11-27 12h22.28.392525 +0000,
,,,,,,,12,0,12,0,,,,,,,,,,,,,,,,,130.58829429995967,,,,,,,,,,130.57920029998058,131.07032110000728,,,2,2.137161799997557,,,,,,,,,,,,,,,,,,,,,131.07033099996625,137.0805458999821,Eimer,biegsam,"['Eimer', 'biegsam']",control,1,"['Tasche', 'Kette', 'Schere', 'Würfel', 'Kerze', 'Tasse', 'Uhr', 'Geige', 'Löffel', 'Blume', 'Stift', 'Bürste', 'Eimer', 'Ring', 'Hammer', 'Brille', 'Kamera', 'Jacke', 'Telefon', 'Vase', 'Fahrrad', 'Schlüssel']","['groß', 'gestreift', 'robust', 'nass', 'strahlend', 'hohl', 'lang', 'matt', 'krumm', 'gut', 'kalt', 'blass', 'biegsam']",2,2.137161799997557,None,,,,,,,,,,,,,,,,,,,,,,,,,,,,,,,,,,,,,,,,,,,,,,,,,,,,,,,,,,,,,,,,,,,,,1,2023-11-27_12h22.21.294,watkins1,2023.2.3,99.74853397032125,20,2023-11-27 12h22.28.392525 +0000,
,,,,,,,13,0,13,0,,,,,,,,,,,,,,,,,137.09007859998383,,,,,,,,,,137.08101460000034,137.5720001999871,,,3,1.3154559999820776,,,,,,,,,,,,,,,,,,,,,137.5720103000058,143.57455399999162,Ring,sauber,"['Ring', 'sauber']",control,1,"['Tasche', 'Kette', 'Schere', 'Würfel', 'Kerze', 'Tasse', 'Uhr', 'Geige', 'Löffel', 'Blume', 'Stift', 'Bürste', 'Eimer', 'Ring', 'Hammer', 'Brille', 'Kamera', 'Jacke', 'Telefon', 'Vase', 'Fahrrad', 'Schlüssel']","['groß', 'gestreift', 'robust', 'nass', 'strahlend', 'hohl', 'lang', 'matt', 'krumm', 'gut', 'kalt', 'blass', 'biegsam', 'sauber']",3,1.3154559999820776,None,,,,,,,,,,,,,,,,,,,,,,,,,,,,,,,,,,,,,,,,,,,,,,,,,,,,,,,,,,,,,,,,,,,,,1,2023-11-27_12h22.21.294,watkins1,2023.2.3,99.74853397032125,20,2023-11-27 12h22.28.392525 +0000,
,,,,,,,14,0,14,0,,,,,,,,,,,,,,,,,143.58407270000316,,,,,,,,,,143.57503030000953,144.0661104999599,,,2,2.204894200025592,,,,,,,,,,,,,,,,,,,,,144.06612069997936,150.07368179998593,Hammer,kratzig,"['Hammer', 'kratzig']",control,1,"['Tasche', 'Kette', 'Schere', 'Würfel', 'Kerze', 'Tasse', 'Uhr', 'Geige', 'Löffel', 'Blume', 'Stift', 'Bürste', 'Eimer', 'Ring', 'Hammer', 'Brille', 'Kamera', 'Jacke', 'Telefon', 'Vase', 'Fahrrad', 'Schlüssel']","['groß', 'gestreift', 'robust', 'nass', 'strahlend', 'hohl', 'lang', 'matt', 'krumm', 'gut', 'kalt', 'blass', 'biegsam', 'sauber', 'kratzig']",2,2.204894200025592,None,,,,,,,,,,,,,,,,,,,,,,,,,,,,,,,,,,,,,,,,,,,,,,,,,,,,,,,,,,,,,,,,,,,,,1,2023-11-27_12h22.21.294,watkins1,2023.2.3,99.74853397032125,20,2023-11-27 12h22.28.392525 +0000,
,,,,,,,15,0,15,0,,,,,,,,,,,,,,,,,150.0831592999748,,,,,,,,,,150.0741532999673,150.56511059997138,,,2,3.4028116000117734,,,,,,,,,,,,,,,,,,,,,150.5651213999954,156.57052770000882,Brille,hübsch,"['Brille', 'hübsch']",restudy_diff,1,"['Tasche', 'Kette', 'Schere', 'Würfel', 'Kerze', 'Tasse', 'Uhr', 'Geige', 'Löffel', 'Blume', 'Stift', 'Bürste', 'Eimer', 'Ring', 'Hammer', 'Brille', 'Kamera', 'Jacke', 'Telefon', 'Vase', 'Fahrrad', 'Schlüssel']","['groß', 'gestreift', 'robust', 'nass', 'strahlend', 'hohl', 'lang', 'matt', 'krumm', 'gut', 'kalt', 'blass', 'biegsam', 'sauber', 'kratzig', 'hübsch']",2,3.4028116000117734,None,,,,,,,,,,,,,,,,,,,,,,,,,,,,,,,,,,,,,,,,,,,,,,,,,,,,,,,,,,,,,,,,,,,,,1,2023-11-27_12h22.21.294,watkins1,2023.2.3,99.74853397032125,20,2023-11-27 12h22.28.392525 +0000,
,,,,,,,16,0,16,0,,,,,,,,,,,,,,,,,156.57996339997044,,,,,,,,,,156.57099909998942,157.06213819998084,,,3,1.5297789999749511,,,,,,,,,,,,,,,,,,,,,157.062148099998,163.07056749996264,Kamera,schmutzig,"['Kamera', 'schmutzig']",control,1,"['Tasche', 'Kette', 'Schere', 'Würfel', 'Kerze', 'Tasse', 'Uhr', 'Geige', 'Löffel', 'Blume', 'Stift', 'Bürste', 'Eimer', 'Ring', 'Hammer', 'Brille', 'Kamera', 'Jacke', 'Telefon', 'Vase', 'Fahrrad', 'Schlüssel']","['groß', 'gestreift', 'robust', 'nass', 'strahlend', 'hohl', 'lang', 'matt', 'krumm', 'gut', 'kalt', 'blass', 'biegsam', 'sauber', 'kratzig', 'hübsch', 'schmutzig']",3,1.5297789999749511,None,,,,,,,,,,,,,,,,,,,,,,,,,,,,,,,,,,,,,,,,,,,,,,,,,,,,,,,,,,,,,,,,,,,,,1,2023-11-27_12h22.21.294,watkins1,2023.2.3,99.74853397032125,20,2023-11-27 12h22.28.392525 +0000,
,,,,,,,17,0,17,0,,,,,,,,,,,,,,,,,163.08003379998263,,,,,,,,,,163.071039500006,163.5620947999996,,,3,2.4767833999940194,,,,,,,,,,,,,,,,,,,,,163.5621051999624,169.56289289996494,Jacke,nachhaltig,"['Jacke', 'nachhaltig']",restudy_diff,1,"['Tasche', 'Kette', 'Schere', 'Würfel', 'Kerze', 'Tasse', 'Uhr', 'Geige', 'Löffel', 'Blume', 'Stift', 'Bürste', 'Eimer', 'Ring', 'Hammer', 'Brille', 'Kamera', 'Jacke', 'Telefon', 'Vase', 'Fahrrad', 'Schlüssel']","['groß', 'gestreift', 'robust', 'nass', 'strahlend', 'hohl', 'lang', 'matt', 'krumm', 'gut', 'kalt', 'blass', 'biegsam', 'sauber', 'kratzig', 'hübsch', 'schmutzig', 'nachhaltig']",3,2.4767833999940194,None,,,,,,,,,,,,,,,,,,,,,,,,,,,,,,,,,,,,,,,,,,,,,,,,,,,,,,,,,,,,,,,,,,,,,1,2023-11-27_12h22.21.294,watkins1,2023.2.3,99.74853397032125,20,2023-11-27 12h22.28.392525 +0000,
,,,,,,,18,0,18,0,,,,,,,,,,,,,,,,,169.57232709997334,,,,,,,,,,169.5633710999973,170.05424460000359,,,3,2.1938512999913655,,,,,,,,,,,,,,,,,,,,,170.05425499996636,176.06301779998466,Telefon,kurz,"['Telefon', 'kurz']",restudy_diff,1,"['Tasche', 'Kette', 'Schere', 'Würfel', 'Kerze', 'Tasse', 'Uhr', 'Geige', 'Löffel', 'Blume', 'Stift', 'Bürste', 'Eimer', 'Ring', 'Hammer', 'Brille', 'Kamera', 'Jacke', 'Telefon', 'Vase', 'Fahrrad', 'Schlüssel']","['groß', 'gestreift', 'robust', 'nass', 'strahlend', 'hohl', 'lang', 'matt', 'krumm', 'gut', 'kalt', 'blass', 'biegsam', 'sauber', 'kratzig', 'hübsch', 'schmutzig', 'nachhaltig', 'kurz']",3,2.1938512999913655,None,,,,,,,,,,,,,,,,,,,,,,,,,,,,,,,,,,,,,,,,,,,,,,,,,,,,,,,,,,,,,,,,,,,,,1,2023-11-27_12h22.21.294,watkins1,2023.2.3,99.74853397032125,20,2023-11-27 12h22.28.392525 +0000,
,,,,,,,19,0,19,0,,,,,,,,,,,,,,,,,176.07250119996024,,,,,,,,,,176.0634965999634,176.55447829997865,,,3,2.060491500014905,,,,,,,,,,,,,,,,,,,,,176.55448859999888,182.55511889996706,Vase,schlicht,"['Vase', 'schlicht']",control,1,"['Tasche', 'Kette', 'Schere', 'Würfel', 'Kerze', 'Tasse', 'Uhr', 'Geige', 'Löffel', 'Blume', 'Stift', 'Bürste', 'Eimer', 'Ring', 'Hammer', 'Brille', 'Kamera', 'Jacke', 'Telefon', 'Vase', 'Fahrrad', 'Schlüssel']","['groß', 'gestreift', 'robust', 'nass', 'strahlend', 'hohl', 'lang', 'matt', 'krumm', 'gut', 'kalt', 'blass', 'biegsam', 'sauber', 'kratzig', 'hübsch', 'schmutzig', 'nachhaltig', 'kurz', 'schlicht']",3,2.060491500014905,None,,,,,,,,,,,,,,,,,,,,,,,,,,,,,,,,,,,,,,,,,,,,,,,,,,,,,,,,,,,,,,,,,,,,,1,2023-11-27_12h22.21.294,watkins1,2023.2.3,99.74853397032125,20,2023-11-27 12h22.28.392525 +0000,
,,,,,,,20,0,20,0,,,,,,,,,,,,,,,,,182.56457489996683,,,,,,,,,,182.55559969996102,183.04654879996087,,,3,3.3040984000544995,,,,,,,,,,,,,,,,,,,,,183.0465585999773,189.0524190000142,Fahrrad,praktisch,"['Fahrrad', 'praktisch']",restudy_diff,1,"['Tasche', 'Kette', 'Schere', 'Würfel', 'Kerze', 'Tasse', 'Uhr', 'Geige', 'Löffel', 'Blume', 'Stift', 'Bürste', 'Eimer', 'Ring', 'Hammer', 'Brille', 'Kamera', 'Jacke', 'Telefon', 'Vase', 'Fahrrad', 'Schlüssel']","['groß', 'gestreift', 'robust', 'nass', 'strahlend', 'hohl', 'lang', 'matt', 'krumm', 'gut', 'kalt', 'blass', 'biegsam', 'sauber', 'kratzig', 'hübsch', 'schmutzig', 'nachhaltig', 'kurz', 'schlicht', 'praktisch']",3,3.3040984000544995,None,,,,,,,,,,,,,,,,,,,,,,,,,,,,,,,,,,,,,,,,,,,,,,,,,,,,,,,,,,,,,,,,,,,,,1,2023-11-27_12h22.21.294,watkins1,2023.2.3,99.74853397032125,20,2023-11-27 12h22.28.392525 +0000,
,,,,,,,21,0,21,0,,,,,,,,,,,,,,,,,189.06184639997082,,,,,,,,,,189.05290030001197,189.54387150000548,,,1,2.038953900046181,,,,,,,,,,,,,,,,,,,,,189.54388189996826,195.55104809999466,Schlüssel,hässlich,"['Schlüssel', 'hässlich']",restudy_diff,1,"['Tasche', 'Kette', 'Schere', 'Würfel', 'Kerze', 'Tasse', 'Uhr', 'Geige', 'Löffel', 'Blume', 'Stift', 'Bürste', 'Eimer', 'Ring', 'Hammer', 'Brille', 'Kamera', 'Jacke', 'Telefon', 'Vase', 'Fahrrad', 'Schlüssel']","['groß', 'gestreift', 'robust', 'nass', 'strahlend', 'hohl', 'lang', 'matt', 'krumm', 'gut', 'kalt', 'blass', 'biegsam', 'sauber', 'kratzig', 'hübsch', 'schmutzig', 'nachhaltig', 'kurz', 'schlicht', 'praktisch', 'hässlich']",1,2.038953900046181,None,,,,,,,,,,,,,,,,,,,,,,,,,,,,,,,,,,,,,,,,,,,,,,,,,,,,,,,,,,,,,,,,,,,,,1,2023-11-27_12h22.21.294,watkins1,2023.2.3,99.74853397032125,20,2023-11-27 12h22.28.392525 +0000,
,,,,,,,,,,,0,0,0,0,,,,,,,,,,,,,195.56047949998174,,,,,,,,,,195.55185360001633,196.04260149999755,,,1,2.014435400022194,,,,,,,,,,,,None,None,,,,,,,,,,Schlüssel,durchsichtig,"['Schlüssel', 'durchsichtig']",restudy_diff,1,,,,,,195.5517796999775,195.5518277999945,"['Schlüssel', 'Kiste', 'Löffel', 'Blume', 'Kerze', 'Jacke', 'Tasse', 'Hut', 'Würfel', 'Schere', 'Telefon', 'Kette', 'Bürste', 'Brille', 'Stift', 'Flasche', 'Buch', 'Tasche', 'Lampe', 'Rucksack', 'Socke', 'Fahrrad', 'Trommel']",196.0426121999626,196.04544000001624,None,196.04561390000163,196.04834189999383,None,196.04849499999546,202.05144239997026,1,2.014435400022194,None,202.05187580001075,202.0533309999737,202.05334350001067,202.0546800000011,,,,,,,,,,,,,,,,,,,,,,,,,,,,,,,,,,,,,,,,,,,,,,,,,,,1,2023-11-27_12h22.21.294,watkins1,2023.2.3,99.74853397032125,20,2023-11-27 12h22.28.392525 +0000,
,,,,,,,,,,,1,0,1,0,,,,,,,,,,,,,202.0610301999841,,,,,,,,,,202.054960199981,202.5533892000094,,,[],[],,,,,,,,,,,,None,None,,,,,,,,,,Kiste,niedlich,"['Kiste', 'niedlich']",control,1,,,,,,202.05489199998556,202.05493129999377,"['Schlüssel', 'Kiste', 'Löffel', 'Blume', 'Kerze', 'Jacke', 'Tasse', 'Hut', 'Würfel', 'Schere', 'Telefon', 'Kette', 'Bürste', 'Brille', 'Stift', 'Flasche', 'Buch', 'Tasche', 'Lampe', 'Rucksack', 'Socke', 'Fahrrad', 'Trommel']",202.55339999997523,208.55552150000585,1,208.55587469995953,208.55860429996392,None,208.55870669998694,208.56136509997305,None,,,208.56147289997898,208.56263190001482,208.56264349998673,208.56385679997038,2.3496925000217743,None,,,,,,,,,,,,,,,,,,,,,,,,,,,,,,,,,,,,,,,,,,,,,,,,,1,2023-11-27_12h22.21.294,watkins1,2023.2.3,99.74853397032125,20,2023-11-27 12h22.28.392525 +0000,
,,,,,,,,,,,2,0,2,0,,,,,,,,,,,,,208.56747060001362,,,,,,,,,,208.5641257999814,209.0606389999739,,,1,1.7761632000328973,,,,,,,,,,,,None,None,,,,,,,,,,Löffel,lustig,"['Löffel', 'lustig']",restudy_diff,1,,,,,,208.56406110001262,208.5641004999634,"['Schlüssel', 'Kiste', 'Löffel', 'Blume', 'Kerze', 'Jacke', 'Tasse', 'Hut', 'Würfel', 'Schere', 'Telefon', 'Kette', 'Bürste', 'Brille', 'Stift', 'Flasche', 'Buch', 'Tasche', 'Lampe', 'Rucksack', 'Socke', 'Fahrrad', 'Trommel']",209.0606495999964,209.06224549998296,None,209.06235969997942,209.06382899999153,None,209.06393349997234,215.068500399997,1,1.7761632000328973,None,215.06878099997994,215.07021380000515,215.07022589998087,215.07143569999607,,,,,,,,,,,,,,,,,,,,,,,,,,,,,,,,,,,,,,,,,,,,,,,,,,,1,2023-11-27_12h22.21.294,watkins1,2023.2.3,99.74853397032125,20,2023-11-27 12h22.28.392525 +0000,
,,,,,,,,,,,3,0,3,0,,,,,,,,,,,,,215.07795100001385,,,,,,,,,,215.07171200000448,215.57004570000572,,,2,2.1282466999837197,,,,,,,,,,,,None,None,,,,,,,,,,Blume,klobig,"['Blume', 'klobig']",restudy_diff,1,,,,,,215.07164509996073,215.07168459997047,"['Schlüssel', 'Kiste', 'Löffel', 'Blume', 'Kerze', 'Jacke', 'Tasse', 'Hut', 'Würfel', 'Schere', 'Telefon', 'Kette', 'Bürste', 'Brille', 'Stift', 'Flasche', 'Buch', 'Tasche', 'Lampe', 'Rucksack', 'Socke', 'Fahrrad', 'Trommel']",215.5700565999723,215.572805600008,None,215.572921999963,215.57552010001382,None,215.575625700003,221.57704959996045,2,2.1282466999837197,None,221.57732559996657,221.57874779996928,221.57875980000244,221.57996449997881,,,,,,,,,,,,,,,,,,,,,,,,,,,,,,,,,,,,,,,,,,,,,,,,,,,1,2023-11-27_12h22.21.294,watkins1,2023.2.3,99.74853397032125,20,2023-11-27 12h22.28.392525 +0000,
,,,,,,,,,,,4,0,4,0,,,,,,,,,,,,,221.5866295999731,,,,,,,,,,221.58023959997809,222.07862839999143,,,3,1.5397846000269055,,,,,,,,,,,,None,None,,,,,,,,,,Kerze,elegant,"['Kerze', 'elegant']",restudy_diff,1,,,,,,221.58017319999635,221.5802127000061,"['Schlüssel', 'Kiste', 'Löffel', 'Blume', 'Kerze', 'Jacke', 'Tasse', 'Hut', 'Würfel', 'Schere', 'Telefon', 'Kette', 'Bürste', 'Brille', 'Stift', 'Flasche', 'Buch', 'Tasche', 'Lampe', 'Rucksack', 'Socke', 'Fahrrad', 'Trommel']",222.07863900001394,222.0813349999953,None,222.081451200007,222.08401609997964,None,222.08411990001332,228.0923218000098,3,1.5397846000269055,None,228.0926009999821,228.09391799999867,228.09392999997362,228.0952404999989,,,,,,,,,,,,,,,,,,,,,,,,,,,,,,,,,,,,,,,,,,,,,,,,,,,1,2023-11-27_12h22.21.294,watkins1,2023.2.3,99.74853397032125,20,2023-11-27 12h22.28.392525 +0000,
,,,,,,,,,,,5,0,5,0,,,,,,,,,,,,,228.1017510999809,,,,,,,,,,228.0955144999898,228.5938196000061,,,1,1.799995300010778,,,,,,,,,,,,None,None,,,,,,,,,,Jacke,zart,"['Jacke', 'zart']",restudy_diff,1,,,,,,228.0954478000058,228.09548670001095,"['Schlüssel', 'Kiste', 'Löffel', 'Blume', 'Kerze', 'Jacke', 'Tasse', 'Hut', 'Würfel', 'Schere', 'Telefon', 'Kette', 'Bürste', 'Brille', 'Stift', 'Flasche', 'Buch', 'Tasche', 'Lampe', 'Rucksack', 'Socke', 'Fahrrad', 'Trommel']",228.5938298999681,228.59656189999077,None,228.59667860000627,228.59983620001003,None,228.59993939998094,234.60063920001267,1,1.799995300010778,None,234.6009117999929,234.60220089997165,234.60221280000405,234.60325589997228,,,,,,,,,,,,,,,,,,,,,,,,,,,,,,,,,,,,,,,,,,,,,,,,,,,1,2023-11-27_12h22.21.294,watkins1,2023.2.3,99.74853397032125,20,2023-11-27 12h22.28.392525 +0000,
,,,,,,,,,,,6,0,6,0,,,,,,,,,,,,,234.61011189996498,,,,,,,,,,234.60352920001606,235.10233620001236,,,3,1.18090499995742,,,,,,,,,,,,None,None,,,,,,,,,,Tasse,neu,"['Tasse', 'neu']",restudy_diff,1,,,,,,234.60346449998906,234.6035031999927,"['Schlüssel', 'Kiste', 'Löffel', 'Blume', 'Kerze', 'Jacke', 'Tasse', 'Hut', 'Würfel', 'Schere', 'Telefon', 'Kette', 'Bürste', 'Brille', 'Stift', 'Flasche', 'Buch', 'Tasche', 'Lampe', 'Rucksack', 'Socke', 'Fahrrad', 'Trommel']",235.10234729998047,235.10489399998914,None,235.1050130999647,235.10739399999147,None,235.10749680001754,241.11025819997303,3,1.18090499995742,None,241.1105353999883,241.111886699975,241.11189830000512,241.11293150001438,,,,,,,,,,,,,,,,,,,,,,,,,,,,,,,,,,,,,,,,,,,,,,,,,,,1,2023-11-27_12h22.21.294,watkins1,2023.2.3,99.74853397032125,20,2023-11-27 12h22.28.392525 +0000,
,,,,,,,,,,,7,0,7,0,,,,,,,,,,,,,241.11971880000783,,,,,,,,,,241.1132035999908,241.61172049999004,,,[],[],,,,,,,,,,,,None,None,,,,,,,,,,Hut,dick,"['Hut', 'dick']",control,1,,,,,,241.11313720000908,241.1131782999728,"['Schlüssel', 'Kiste', 'Löffel', 'Blume', 'Kerze', 'Jacke', 'Tasse', 'Hut', 'Würfel', 'Schere', 'Telefon', 'Kette', 'Bürste', 'Brille', 'Stift', 'Flasche', 'Buch', 'Tasche', 'Lampe', 'Rucksack', 'Socke', 'Fahrrad', 'Trommel']",241.61173269996652,247.61323859996628,3,247.61351289995946,247.61607609997736,None,247.61618670000462,247.61847009998746,None,,,247.6185730000143,247.61960859998362,247.6196203000145,247.6206816000049,2.684055400022771,None,,,,,,,,,,,,,,,,,,,,,,,,,,,,,,,,,,,,,,,,,,,,,,,,,1,2023-11-27_12h22.21.294,watkins1,2023.2.3,99.74853397032125,20,2023-11-27 12h22.28.392525 +0000,
,,,,,,,,,,,8,0,8,0,,,,,,,,,,,,,247.6243894000072,,,,,,,,,,247.62095579999732,248.11702389997663,,,3,1.4395264000049792,,,,,,,,,,,,None,None,,,,,,,,,,Würfel,bunt,"['Würfel', 'bunt']",restudy_diff,1,,,,,,247.62089149997337,247.62093169998843,"['Schlüssel', 'Kiste', 'Löffel', 'Blume', 'Kerze', 'Jacke', 'Tasse', 'Hut', 'Würfel', 'Schere', 'Telefon', 'Kette', 'Bürste', 'Brille', 'Stift', 'Flasche', 'Buch', 'Tasche', 'Lampe', 'Rucksack', 'Socke', 'Fahrrad', 'Trommel']",248.11703500000294,248.11864459997742,None,248.11876039998606,248.1203775999602,None,248.12048260000302,254.1286226999946,3,1.4395264000049792,None,254.12889569997787,254.13020519999554,254.1302171999705,254.13127600000007,,,,,,,,,,,,,,,,,,,,,,,,,,,,,,,,,,,,,,,,,,,,,,,,,,,1,2023-11-27_12h22.21.294,watkins1,2023.2.3,99.74853397032125,20,2023-11-27 12h22.28.392525 +0000,
,,,,,,,,,,,9,0,9,0,,,,,,,,,,,,,254.13809169997694,,,,,,,,,,254.13155089999782,254.6301289999974,,,2,2.5875781000358984,,,,,,,,,,,,None,None,,,,,,,,,,Schere,verspielt,"['Schere', 'verspielt']",restudy_diff,1,,,,,,254.1314851999632,254.13152449997142,"['Schlüssel', 'Kiste', 'Löffel', 'Blume', 'Kerze', 'Jacke', 'Tasse', 'Hut', 'Würfel', 'Schere', 'Telefon', 'Kette', 'Bürste', 'Brille', 'Stift', 'Flasche', 'Buch', 'Tasche', 'Lampe', 'Rucksack', 'Socke', 'Fahrrad', 'Trommel']",254.63013949996093,254.6327134000021,None,254.63283039996168,254.6352548999712,None,254.63536000001477,260.64377299998887,2,2.5875781000358984,None,260.6440525999642,260.64539630000945,260.64540819998365,260.6466675999691,,,,,,,,,,,,,,,,,,,,,,,,,,,,,,,,,,,,,,,,,,,,,,,,,,,1,2023-11-27_12h22.21.294,watkins1,2023.2.3,99.74853397032125,20,2023-11-27 12h22.28.392525 +0000,
,,,,,,,,,,,10,0,10,0,,,,,,,,,,,,,260.65318939997815,,,,,,,,,,260.64694169996073,261.14523329999065,,,1,1.4167992000002414,,,,,,,,,,,,None,None,,,,,,,,,,Telefon,breit,"['Telefon', 'breit']",restudy_diff,1,,,,,,260.6468739999691,260.6469151999918,"['Schlüssel', 'Kiste', 'Löffel', 'Blume', 'Kerze', 'Jacke', 'Tasse', 'Hut', 'Würfel', 'Schere', 'Telefon', 'Kette', 'Bürste', 'Brille', 'Stift', 'Flasche', 'Buch', 'Tasche', 'Lampe', 'Rucksack', 'Socke', 'Fahrrad', 'Trommel']",261.1452432000078,261.1480183000094,None,261.1481322000036,261.1511041999911,None,261.15120859997114,267.15869539999403,1,1.4167992000002414,None,267.15897250000853,267.16032789996825,267.1603399000014,267.1615375999827,,,,,,,,,,,,,,,,,,,,,,,,,,,,,,,,,,,,,,,,,,,,,,,,,,,1,2023-11-27_12h22.21.294,watkins1,2023.2.3,99.74853397032125,20,2023-11-27 12h22.28.392525 +0000,
,,,,,,,,,,,11,0,11,0,,,,,,,,,,,,,267.16814379999414,,,,,,,,,,267.16180940001504,267.66024070000276,,,1,3.0612069999915548,,,,,,,,,,,,None,None,,,,,,,,,,Kette,flauschig,"['Kette', 'flauschig']",restudy_diff,1,,,,,,267.16174419998424,267.16178349999245,"['Schlüssel', 'Kiste', 'Löffel', 'Blume', 'Kerze', 'Jacke', 'Tasse', 'Hut', 'Würfel', 'Schere', 'Telefon', 'Kette', 'Bürste', 'Brille', 'Stift', 'Flasche', 'Buch', 'Tasche', 'Lampe', 'Rucksack', 'Socke', 'Fahrrad', 'Trommel']",267.6602524999762,267.6629784000106,None,267.6631057999912,267.6657713999739,None,267.6658738999977,273.6701138999779,1,3.0612069999915548,None,273.67039469996234,273.6716795999673,273.67169190000277,273.67296699999133,,,,,,,,,,,,,,,,,,,,,,,,,,,,,,,,,,,,,,,,,,,,,,,,,,,1,2023-11-27_12h22.21.294,watkins1,2023.2.3,99.74853397032125,20,2023-11-27 12h22.28.392525 +0000,
,,,,,,,,,,,12,0,12,0,,,,,,,,,,,,,273.6796396999853,,,,,,,,,,273.6732418999891,274.1717595999944,,,3,1.789235699980054,,,,,,,,,,,,None,None,,,,,,,,,,Bürste,schwer,"['Bürste', 'schwer']",restudy_diff,1,,,,,,273.6731761000119,273.67321579996496,"['Schlüssel', 'Kiste', 'Löffel', 'Blume', 'Kerze', 'Jacke', 'Tasse', 'Hut', 'Würfel', 'Schere', 'Telefon', 'Kette', 'Bürste', 'Brille', 'Stift', 'Flasche', 'Buch', 'Tasche', 'Lampe', 'Rucksack', 'Socke', 'Fahrrad', 'Trommel']",274.1717697000131,274.1745295000146,None,274.17464430001564,274.1774137999746,None,274.1775190999615,280.1785091999918,3,1.789235699980054,None,280.17878409998957,280.1801772000035,280.18018939998,280.1813933000085,,,,,,,,,,,,,,,,,,,,,,,,,,,,,,,,,,,,,,,,,,,,,,,,,,,1,2023-11-27_12h22.21.294,watkins1,2023.2.3,99.74853397032125,20,2023-11-27 12h22.28.392525 +0000,
,,,,,,,,,,,13,0,13,0,,,,,,,,,,,,,280.1879651999916,,,,,,,,,,280.1816643999773,280.6800690999953,,,3,1.361806600005366,,,,,,,,,,,,None,None,,,,,,,,,,Brille,glänzend,"['Brille', 'glänzend']",restudy_diff,1,,,,,,280.1816005000146,280.1816388000152,"['Schlüssel', 'Kiste', 'Löffel', 'Blume', 'Kerze', 'Jacke', 'Tasse', 'Hut', 'Würfel', 'Schere', 'Telefon', 'Kette', 'Bürste', 'Brille', 'Stift', 'Flasche', 'Buch', 'Tasche', 'Lampe', 'Rucksack', 'Socke', 'Fahrrad', 'Trommel']",280.6800799999619,280.6828335999744,None,280.6829484999762,280.68567789997905,None,280.685785699985,286.69443659996614,3,1.361806600005366,None,286.69471569999587,286.69604609999806,286.696058099973,286.69730399997206,,,,,,,,,,,,,,,,,,,,,,,,,,,,,,,,,,,,,,,,,,,,,,,,,,,1,2023-11-27_12h22.21.294,watkins1,2023.2.3,99.74853397032125,20,2023-11-27 12h22.28.392525 +0000,
,,,,,,,,,,,14,0,14,0,,,,,,,,,,,,,286.70386790001066,,,,,,,,,,286.6975724999793,287.1959335000138,,,2,4.0137537000118755,,,,,,,,,,,,None,None,,,,,,,,,,Stift,gepunktet,"['Stift', 'gepunktet']",restudy_diff,1,,,,,,286.69750770000974,286.69754650001414,"['Schlüssel', 'Kiste', 'Löffel', 'Blume', 'Kerze', 'Jacke', 'Tasse', 'Hut', 'Würfel', 'Schere', 'Telefon', 'Kette', 'Bürste', 'Brille', 'Stift', 'Flasche', 'Buch', 'Tasche', 'Lampe', 'Rucksack', 'Socke', 'Fahrrad', 'Trommel']",287.19594439998036,287.1987073000055,None,287.1988243999658,287.20177119999425,None,287.2018758999766,293.2083595999866,2,4.0137537000118755,None,293.2086342999828,293.2099242999684,293.20993640000233,293.21119269996416,,,,,,,,,,,,,,,,,,,,,,,,,,,,,,,,,,,,,,,,,,,,,,,,,,,1,2023-11-27_12h22.21.294,watkins1,2023.2.3,99.74853397032125,20,2023-11-27 12h22.28.392525 +0000,
,,,,,,,,,,,15,0,15,0,,,,,,,,,,,,,293.2179295999813,,,,,,,,,,293.2114634999889,293.70983880001586,,,[],[],,,,,,,,,,,,None,None,,,,,,,,,,Flasche,winzig,"['Flasche', 'winzig']",control,1,,,,,,293.21139919996494,293.21143799996935,"['Schlüssel', 'Kiste', 'Löffel', 'Blume', 'Kerze', 'Jacke', 'Tasse', 'Hut', 'Würfel', 'Schere', 'Telefon', 'Kette', 'Bürste', 'Brille', 'Stift', 'Flasche', 'Buch', 'Tasche', 'Lampe', 'Rucksack', 'Socke', 'Fahrrad', 'Trommel']",293.7098497999832,299.71281160000945,3,299.71309819997987,299.7159762000083,None,299.7160838000127,299.7187052000081,None,,,299.71881009999197,299.7200378999696,299.720049800002,299.72125589998905,1.1937933000153862,None,,,,,,,,,,,,,,,,,,,,,,,,,,,,,,,,,,,,,,,,,,,,,,,,,1,2023-11-27_12h22.21.294,watkins1,2023.2.3,99.74853397032125,20,2023-11-27 12h22.28.392525 +0000,
,,,,,,,,,,,16,0,16,0,,,,,,,,,,,,,299.7248242999776,,,,,,,,,,299.72152879997157,300.21820010000374,,,[],[],,,,,,,,,,,,None,None,,,,,,,,,,Buch,sportlich,"['Buch', 'sportlich']",control,1,,,,,,299.721464000002,299.7215045999619,"['Schlüssel', 'Kiste', 'Löffel', 'Blume', 'Kerze', 'Jacke', 'Tasse', 'Hut', 'Würfel', 'Schere', 'Telefon', 'Kette', 'Bürste', 'Brille', 'Stift', 'Flasche', 'Buch', 'Tasche', 'Lampe', 'Rucksack', 'Socke', 'Fahrrad', 'Trommel']",300.21821069996804,306.21978759998456,1,306.2200744000147,306.22281599999405,None,306.2229211999802,306.22540120000485,None,,,306.2255065999925,306.22654840000905,306.22655979997944,306.22781720000785,2.1173006999888457,None,,,,,,,,,,,,,,,,,,,,,,,,,,,,,,,,,,,,,,,,,,,,,,,,,1,2023-11-27_12h22.21.294,watkins1,2023.2.3,99.74853397032125,20,2023-11-27 12h22.28.392525 +0000,
,,,,,,,,,,,17,0,17,0,,,,,,,,,,,,,306.23148799996125,,,,,,,,,,306.2280899999896,306.7248931999784,,,3,1.831604300008621,,,,,,,,,,,,None,None,,,,,,,,,,Tasche,flach,"['Tasche', 'flach']",restudy_diff,1,,,,,,306.22802370000863,306.22806579997996,"['Schlüssel', 'Kiste', 'Löffel', 'Blume', 'Kerze', 'Jacke', 'Tasse', 'Hut', 'Würfel', 'Schere', 'Telefon', 'Kette', 'Bürste', 'Brille', 'Stift', 'Flasche', 'Buch', 'Tasche', 'Lampe', 'Rucksack', 'Socke', 'Fahrrad', 'Trommel']",306.7249043000047,306.72652949998155,None,306.7266476000077,306.7281377000036,None,306.7282415999798,312.7359169999836,3,1.831604300008621,None,312.7361949000042,312.73759909998626,312.7376113999635,312.73878929996863,,,,,,,,,,,,,,,,,,,,,,,,,,,,,,,,,,,,,,,,,,,,,,,,,,,1,2023-11-27_12h22.21.294,watkins1,2023.2.3,99.74853397032125,20,2023-11-27 12h22.28.392525 +0000,
,,,,,,,,,,,18,0,18,0,,,,,,,,,,,,,312.7453560999711,,,,,,,,,,312.73906349996105,313.2375396999996,,,[],[],,,,,,,,,,,,None,None,,,,,,,,,,Lampe,rustikal,"['Lampe', 'rustikal']",control,1,,,,,,312.73899849999,312.7390376999974,"['Schlüssel', 'Kiste', 'Löffel', 'Blume', 'Kerze', 'Jacke', 'Tasse', 'Hut', 'Würfel', 'Schere', 'Telefon', 'Kette', 'Bürste', 'Brille', 'Stift', 'Flasche', 'Buch', 'Tasche', 'Lampe', 'Rucksack', 'Socke', 'Fahrrad', 'Trommel']",313.2375502999639,319.2460563000059,3,319.24632979999296,319.2491762000136,None,319.24928139999975,319.2518780999817,None,,,319.2519796999986,319.2532766999793,319.2532884000102,319.2545181000023,1.3541018000105396,None,,,,,,,,,,,,,,,,,,,,,,,,,,,,,,,,,,,,,,,,,,,,,,,,,1,2023-11-27_12h22.21.294,watkins1,2023.2.3,99.74853397032125,20,2023-11-27 12h22.28.392525 +0000,
,,,,,,,,,,,19,0,19,0,,,,,,,,,,,,,319.25813189998735,,,,,,,,,,319.25478989997646,319.7518299999647,,,[],[],,,,,,,,,,,,None,None,,,,,,,,,,Rucksack,dunkel,"['Rucksack', 'dunkel']",control,1,,,,,,319.25472630001605,319.2547657999676,"['Schlüssel', 'Kiste', 'Löffel', 'Blume', 'Kerze', 'Jacke', 'Tasse', 'Hut', 'Würfel', 'Schere', 'Telefon', 'Kette', 'Bürste', 'Brille', 'Stift', 'Flasche', 'Buch', 'Tasche', 'Lampe', 'Rucksack', 'Socke', 'Fahrrad', 'Trommel']",319.75184149999404,325.76172690000385,3,325.76200139999855,325.7648037999752,None,325.7649087999598,325.76756890001707,None,,,325.76767269999254,325.76903409999795,325.76904569996987,325.7702577000018,1.0637217999901623,None,,,,,,,,,,,,,,,,,,,,,,,,,,,,,,,,,,,,,,,,,,,,,,,,,1,2023-11-27_12h22.21.294,watkins1,2023.2.3,99.74853397032125,20,2023-11-27 12h22.28.392525 +0000,
,,,,,,,,,,,20,0,20,0,,,,,,,,,,,,,325.773924899986,,,,,,,,,,325.77052929997444,326.2675257999799,,,[],[],,,,,,,,,,,,None,None,,,,,,,,,,Socke,kaputt,"['Socke', 'kaputt']",control,1,,,,,,325.77046560001327,325.77050499996403,"['Schlüssel', 'Kiste', 'Löffel', 'Blume', 'Kerze', 'Jacke', 'Tasse', 'Hut', 'Würfel', 'Schere', 'Telefon', 'Kette', 'Bürste', 'Brille', 'Stift', 'Flasche', 'Buch', 'Tasche', 'Lampe', 'Rucksack', 'Socke', 'Fahrrad', 'Trommel']",326.26753610000014,332.27025629999116,3,332.27052720001666,332.2732107999618,None,332.2733129999833,332.275807500002,None,,,332.27591049997136,332.2770620000083,332.27707349997945,332.27836009999737,1.451875199971255,None,,,,,,,,,,,,,,,,,,,,,,,,,,,,,,,,,,,,,,,,,,,,,,,,,1,2023-11-27_12h22.21.294,watkins1,2023.2.3,99.74853397032125,20,2023-11-27 12h22.28.392525 +0000,
,,,,,,,,,,,21,0,21,0,,,,,,,,,,,,,332.281995599973,,,,,,,,,,332.27862479997566,332.7753581000143,,,3,1.9651001999736764,,,,,,,,,,,,None,None,,,,,,,,,,Fahrrad,teuer,"['Fahrrad', 'teuer']",restudy_diff,1,,,,,,332.27856249996694,332.27860079996753,"['Schlüssel', 'Kiste', 'Löffel', 'Blume', 'Kerze', 'Jacke', 'Tasse', 'Hut', 'Würfel', 'Schere', 'Telefon', 'Kette', 'Bürste', 'Brille', 'Stift', 'Flasche', 'Buch', 'Tasche', 'Lampe', 'Rucksack', 'Socke', 'Fahrrad', 'Trommel']",332.77536869997857,332.77697979996447,None,332.7770942999632,332.77856939996127,None,332.77867009997135,338.7827060999698,3,1.9651001999736764,None,338.7829790000105,338.7842942000134,338.7843060999876,338.78556569997454,,,,,,,,,,,,,,,,,,,,,,,,,,,,,,,,,,,,,,,,,,,,,,,,,,,1,2023-11-27_12h22.21.294,watkins1,2023.2.3,99.74853397032125,20,2023-11-27 12h22.28.392525 +0000,
,,,,,,,,,,,22,0,22,0,,,,,,,,,,,,,338.7920976000023,,,,,,,,,,338.78583239996806,339.28435609996086,,,[],[],,,,,,,,,,,,None,None,,,,,,,,,,Trommel,glatt,"['Trommel', 'glatt']",control,1,,,,,,338.7857694000122,338.785807200009,"['Schlüssel', 'Kiste', 'Löffel', 'Blume', 'Kerze', 'Jacke', 'Tasse', 'Hut', 'Würfel', 'Schere', 'Telefon', 'Kette', 'Bürste', 'Brille', 'Stift', 'Flasche', 'Buch', 'Tasche', 'Lampe', 'Rucksack', 'Socke', 'Fahrrad', 'Trommel']",339.2843667999841,345.28636440000264,1,345.2866441999795,345.28937209997093,None,345.28947710001376,345.29201859998284,None,,,345.2921212000074,345.2933287000051,345.2933404999785,345.29463590000523,1.4431481000501662,None,,,,,,,,,,,,,,,,,,,,,,,,,,,,,,,,,,,,,,,,,,,,,,,,,1,2023-11-27_12h22.21.294,watkins1,2023.2.3,99.74853397032125,20,2023-11-27 12h22.28.392525 +0000,
,,,,,,,,,,,,,,,,,,,,,,,,,,,,,,,,,,,,,,,,,,,,,,,,,,,,,,,,,,,,,,,,,,,,,1,,,,,,,,,,,,,,,,,,,,,,,,,,,,,,,,,,,,,,,,,,,,,,,,,,,,,,,,,,,,,,,,,,,,,,,,,,1,2023-11-27_12h22.21.294,watkins1,2023.2.3,99.74853397032125,20,2023-11-27 12h22.28.392525 +0000,
(6 x 3) + 10 = 27 ,Incorrect,button_incorrect,,,,,,,,,,,,,0,0,0,8,,,,,,,,,356.3251838000142,,,,,,,,355.29389440000523,356.29760469996836,,,,,['button_incorrect'],[2.583054000046104],,,,,,,,,,,,,,,,,,,,,,,,,,distractorTask,1,,,,,,,,,,,,,,,,,,,,,,,,,,356.3136545000016,356.3251838000142,358.9019789000158,[-0.3648148148148148],[-0.40555555555555556],[1],[0],[0],[2.583054000046104],['button_incorrect'],358.90265309996903,359.90543639997486,,,,,,,,,,,,,,,,,,,,,,,,,,,,,,,,,,,,,1,2023-11-27_12h22.21.294,watkins1,2023.2.3,99.74853397032125,20,2023-11-27 12h22.28.392525 +0000,
(2 x 5) + 3 = 13 ,Correct,button_correct,,,,,,,,,,,,,0,1,1,2,,,,,,,,,359.9153803999652,,,,,,,,,,,,,,['button_correct'],[2.106181100010872],,,,,,,,,,,,,,,,,,,,,,,,,,distractorTask,1,,,,,,,,,,,,,,,,,,,,,,,,,,359.90563250001287,359.9153803999652,362.01422830001684,[0.2861111111111111],[-0.39814814814814814],[1],[0],[0],[2.106181100010872],['button_correct'],362.0146551000071,363.0179759999737,,,,,,,,,,,,,,,,,,,,,,,,,,,,,,,,,,,,,1,2023-11-27_12h22.21.294,watkins1,2023.2.3,99.74853397032125,20,2023-11-27 12h22.28.392525 +0000,
(54 : 6) - 10 = 0 ,Incorrect,button_incorrect,,,,,,,,,,,,,0,2,2,5,,,,,,,,,363.0279605999822,,,,,,,,,,,,,,['button_incorrect'],"[3.6725736999651417, 4.064021900005173]",,,,,,,,,,,,,,,,,,,,,,,,,,distractorTask,1,,,,,,,,,,,,,,,,,,,,,,,,,,363.0181714000064,363.0279605999822,367.08481889998075,"[-0.275, -0.41203703703703703]","[-0.3925925925925926, -0.4101851851851852]","[1, 1]","[0, 0]","[0, 0]","[3.6725736999651417, 4.064021900005173]",['button_incorrect'],367.085231199977,368.08833140000934,,,,,,,,,,,,,,,,,,,,,,,,,,,,,,,,,,,,,1,2023-11-27_12h22.21.294,watkins1,2023.2.3,99.74853397032125,20,2023-11-27 12h22.28.392525 +0000,
(28 : 7) - 3 = 1 ,Correct,button_correct,,,,,,,,,,,,,0,3,3,0,,,,,,,,,368.0983159999596,,,,,,,,,,,,,,['button_correct'],[2.969603100034874],,,,,,,,,,,,,,,,,,,,,,,,,,distractorTask,1,,,,,,,,,,,,,,,,,,,,,,,,,,368.08855829999084,368.0983159999596,371.061217200011,[0.2861111111111111],[-0.38055555555555554],[1],[0],[0],[2.969603100034874],['button_correct'],371.0616055999999,372.06475829996634,,,,,,,,,,,,,,,,,,,,,,,,,,,,,,,,,,,,,1,2023-11-27_12h22.21.294,watkins1,2023.2.3,99.74853397032125,20,2023-11-27 12h22.28.392525 +0000,
(7 x 6) + 9 = 48 ,Incorrect,button_incorrect,,,,,,,,,,,,,0,4,4,9,,,,,,,,,372.0746940000099,,,,,,,,,,,,,,['button_incorrect'],[3.3108055000193417],,,,,,,,,,,,,,,,,,,,,,,,,,distractorTask,1,,,,,,,,,,,,,,,,,,,,,,,,,,372.0649546000059,372.0746940000099,375.37856330000795,[-0.37407407407407406],[-0.3990740740740741],[1],[0],[0],[3.3108055000193417],['button_incorrect'],375.3789555999683,376.38192049995996,,,,,,,,,,,,,,,,,,,,,,,,,,,,,,,,,,,,,1,2023-11-27_12h22.21.294,watkins1,2023.2.3,99.74853397032125,20,2023-11-27 12h22.28.392525 +0000,
(9 x 5) - 9 = 36 ,Correct,button_correct,,,,,,,,,,,,,0,5,5,4,,,,,,,,,376.392011799966,,,,,,,,,,,,,,['button_correct'],[3.0206558000063524],,,,,,,,,,,,,,,,,,,,,,,,,,distractorTask,1,,,,,,,,,,,,,,,,,,,,,,,,,,376.38211249996675,376.392011799966,379.40447369997855,[0.28888888888888886],[-0.39166666666666666],[1],[0],[0],[3.0206558000063524],['button_correct'],379.40486179996515,380.4081507999799,,,,,,,,,,,,,,,,,,,,,,,,,,,,,,,,,,,,,1,2023-11-27_12h22.21.294,watkins1,2023.2.3,99.74853397032125,20,2023-11-27 12h22.28.392525 +0000,
(4 : 2) + 4 = 6 ,Correct,button_correct,,,,,,,,,,,,,0,6,6,1,,,,,,,,,380.4180967999855,,,,,,,,,,,,,,['button_correct'],[1.8357283000368625],,,,,,,,,,,,,,,,,,,,,,,,,,distractorTask,1,,,,,,,,,,,,,,,,,,,,,,,,,,380.4083447000012,380.4180967999855,382.2457917999709,[0.2861111111111111],[-0.3888888888888889],[1],[0],[0],[1.8357283000368625],['button_correct'],382.2461805999628,383.2496129999636,,,,,,,,,,,,,,,,,,,,,,,,,,,,,,,,,,,,,1,2023-11-27_12h22.21.294,watkins1,2023.2.3,99.74853397032125,20,2023-11-27 12h22.28.392525 +0000,
(80 : 10) + 9 = 17 ,Correct,button_correct,,,,,,,,,,,,,0,7,7,3,,,,,,,,,383.25954449997516,,,,,,,,,,,,,,['button_correct'],[1.8155199000029825],,,,,,,,,,,,,,,,,,,,,,,,,,distractorTask,1,,,,,,,,,,,,,,,,,,,,,,,,,,383.24980499997037,383.25954449997516,385.067304599972,[0.29814814814814816],[-0.4],[1],[0],[0],[1.8155199000029825],['button_correct'],385.06768529996043,386.07087280001724,,,,,,,,,,,,,,,,,,,,,,,,,,,,,,,,,,,,,1,2023-11-27_12h22.21.294,watkins1,2023.2.3,99.74853397032125,20,2023-11-27 12h22.28.392525 +0000,
(40 : 5) + 8 = 15 ,Incorrect,button_incorrect,,,,,,,,,,,,,0,8,8,7,,,,,,,,,386.08085779997054,,,,,,,,,,,,,,['button_incorrect'],[1.8360170000232756],,,,,,,,,,,,,,,,,,,,,,,,,,distractorTask,1,,,,,,,,,,,,,,,,,,,,,,,,,,386.07106190000195,386.08085779997054,387.9088007999817,[-0.3509259259259259],[-0.4074074074074074],[1],[0],[0],[1.8360170000232756],['button_incorrect'],387.90921000001254,388.91231569997035,,,,,,,,,,,,,,,,,,,,,,,,,,,,,,,,,,,,,1,2023-11-27_12h22.21.294,watkins1,2023.2.3,99.74853397032125,20,2023-11-27 12h22.28.392525 +0000,
(25 : 5) + 5 = 9 ,Incorrect,button_incorrect,,,,,,,,,,,,,0,9,9,6,,,,,,,,,388.9222397999838,,,,,,,,,,,,,,['button_incorrect'],[1.514627400028985],,,,,,,,,,,,,,,,,,,,,,,,,,distractorTask,1,,,,,,,,,,,,,,,,,,,,,,,,,,388.9125090999878,388.9222397999838,390.42885839997325,[-0.3509259259259259],[-0.4046296296296296],[1],[0],[0],[1.514627400028985],['button_incorrect'],390.4292424999876,391.4323246999993,,,,,,,,,,,,,,,,,,,,,,,,,,,,,,,,,,,,,1,2023-11-27_12h22.21.294,watkins1,2023.2.3,99.74853397032125,20,2023-11-27 12h22.28.392525 +0000,
,,,,,,,,,,,,,,,,,,,,,,,,,,,,,,,,,,,,,,,,,,,,,,,,,,,,,,,,,,,,,,,,,,,,,1,,,,,,,,,,,,,,,,,,,,,,,,,,,,,,,,,,,,,,,,,,,,,,,,,,,,,,,,,,,,,,,,,,,,,,,,,,1,2023-11-27_12h22.21.294,watkins1,2023.2.3,99.74853397032125,20,2023-11-27 12h22.28.392525 +0000,
,,,,,,,,,,,,,,,,,,,0,0,0,0,,,,,398.8003501999774,,,,,,,,,,,,,,hut,5.1076459000469185,,,,,,,,,,,,4.45742180000525,None,,,,,,,,,,,,,freeRecallSub,1,,,,,,,,,,,,,,,,,,,,,,,,,,,,,,,,,,,,,,398.79163409996545,398.8003501999774,398.8003501999774,403.9112589000142,return,5.1076459000469185,None,hut,[0.03518518518518519],[0.041666666666666664],[1],[0],[0],[2.469285399944056],[],,,,,,,,,,,,,,,,,,,,,,1,2023-11-27_12h22.21.294,watkins1,2023.2.3,99.74853397032125,20,2023-11-27 12h22.28.392525 +0000,
,,,,,,,,,,,,,,,,,,,1,0,1,0,,,,,403.92313179996563,,,,,,,,,,,,,,dick,4.520946000004187,,,,,,,,,,,,0.7545388999860734,None,,,,,,,,,,,,,freeRecallSub,1,,,,,,,,,,,,,,,,,,,,,,,,,,,,,,,,,,,,,,403.9130599999917,403.92313179996563,403.92313179996563,408.4528071999666,return,4.520946000004187,None,dick,[],[],[],[],[],[],[],,,,,,,,,,,,,,,,,,,,,,1,2023-11-27_12h22.21.294,watkins1,2023.2.3,99.74853397032125,20,2023-11-27 12h22.28.392525 +0000,
,,,,,,,,,,,,,,,,,,,2,0,2,0,,,,,408.46383409999544,,,,,,,,,,,,,,fahrrad,4.932159500021953,,,,,,,,,,,,2.8610511000151746,None,,,,,,,,,,,,,freeRecallSub,1,,,,,,,,,,,,,,,,,,,,,,,,,,,,,,,,,,,,,,408.45407779997913,408.46383409999544,408.46383409999544,413.4035150000127,return,4.932159500021953,None,fahrrad,[],[],[],[],[],[],[],,,,,,,,,,,,,,,,,,,,,,1,2023-11-27_12h22.21.294,watkins1,2023.2.3,99.74853397032125,20,2023-11-27 12h22.28.392525 +0000,
,,,,,,,,,,,,,,,,,,,3,0,3,0,,,,,413.4141005999991,,,,,,,,,,,,,,teuer,2.269981999997981,,,,,,,,,,,,0.8830540000344627,None,,,,,,,,,,,,,freeRecallSub,1,,,,,,,,,,,,,,,,,,,,,,,,,,,,,,,,,,,,,,413.40476499998476,413.4141005999991,413.4141005999991,415.6934659999679,return,2.269981999997981,None,teuer,[],[],[],[],[],[],[],,,,,,,,,,,,,,,,,,,,,,1,2023-11-27_12h22.21.294,watkins1,2023.2.3,99.74853397032125,20,2023-11-27 12h22.28.392525 +0000,
,,,,,,,,,,,,,,,,,,,4,0,4,0,,,,,415.704739400011,,,,,,,,,,,,,,katze,2.579202599998098,,,,,,,,,,,,1.7974051999626681,None,,,,,,,,,,,,,freeRecallSub,1,,,,,,,,,,,,,,,,,,,,,,,,,,,,,,,,,,,,,,415.695276799961,415.704739400011,415.704739400011,418.2859354999964,return,2.579202599998098,None,katze,[],[],[],[],[],[],[],,,,,,,,,,,,,,,,,,,,,,1,2023-11-27_12h22.21.294,watkins1,2023.2.3,99.74853397032125,20,2023-11-27 12h22.28.392525 +0000,
,,,,,,,,,,,,,,,,,,,5,0,5,0,,,,,418.29688290000195,,,,,,,,,,,,,,müde,1.4830410000286065,,,,,,,,,,,,0.44217930000741035,None,,,,,,,,,,,,,freeRecallSub,1,,,,,,,,,,,,,,,,,,,,,,,,,,,,,,,,,,,,,,418.2872032999876,418.29688290000195,418.29688290000195,419.78389169997536,return,1.4830410000286065,None,müde,[],[],[],[],[],[],[],,,,,,,,,,,,,,,,,,,,,,1,2023-11-27_12h22.21.294,watkins1,2023.2.3,99.74853397032125,20,2023-11-27 12h22.28.392525 +0000,
,,,,,,,,,,,,,,,,,,,6,0,6,0,,,,,419.7954097999609,,,,,,,,,,,,,,brille,1.928551399963908,,,,,,,,,,,,0.7646264999639243,None,,,,,,,,,,,,,freeRecallSub,1,,,,,,,,,,,,,,,,,,,,,,,,,,,,,,,,,,,,,,419.7851544999867,419.7954097999609,419.7954097999609,421.7247683000169,return,1.928551399963908,None,brille,[],[],[],[],[],[],[],,,,,,,,,,,,,,,,,,,,,,1,2023-11-27_12h22.21.294,watkins1,2023.2.3,99.74853397032125,20,2023-11-27 12h22.28.392525 +0000,
,,,,,,,,,,,,,,,,,,,7,0,7,0,,,,,421.73657790001016,,,,,,,,,,,,,,hübsch,3.9476203999947757,,,,,,,,,,,,0.4940673999954015,1.2973596999654546,,,,,,,,,,,,,freeRecallSub,1,,,,,,,,,,,,,,,,,,,,,,,,,,,,,,,,,,,,,,421.7260243999772,421.73657790001016,421.73657790001016,425.6941090999753,return,3.9476203999947757,None,hübsch,[],[],[],[],[],[],[],,,,,,,,,,,,,,,,,,,,,,1,2023-11-27_12h22.21.294,watkins1,2023.2.3,99.74853397032125,20,2023-11-27 12h22.28.392525 +0000,
,,,,,,,,,,,,,,,,,,,8,0,8,0,,,,,425.70604999997886,,,,,,,,,,,,,,Trommel,10.402014600054827,,,,,,,,,,,,8.75711099995533,None,,,,,,,,,,,,,freeRecallSub,1,,,,,,,,,,,,,,,,,,,,,,,,,,,,,,,,,,,,,,425.6953686999623,425.70604999997886,425.70604999997886,436.10957229998894,return,10.402014600054827,None,Trommel,[],[],[],[],[],[],[],,,,,,,,,,,,,,,,,,,,,,1,2023-11-27_12h22.21.294,watkins1,2023.2.3,99.74853397032125,20,2023-11-27 12h22.28.392525 +0000,
,,,,,,,,,,,,,,,,,,,9,0,9,0,,,,,436.1214708999614,,,,,,,,,,,,,,glatt,2.5785149000003003,,,,,,,,,,,,1.2976634000078775,None,,,,,,,,,,,,,freeRecallSub,1,,,,,,,,,,,,,,,,,,,,,,,,,,,,,,,,,,,,,,436.11079730000347,436.1214708999614,436.1214708999614,438.7037120999885,return,2.5785149000003003,None,glatt,[],[],[],[],[],[],[],,,,,,,,,,,,,,,,,,,,,,1,2023-11-27_12h22.21.294,watkins1,2023.2.3,99.74853397032125,20,2023-11-27 12h22.28.392525 +0000,
,,,,,,,,,,,,,,,,,,,10,0,10,0,,,,,438.7158447999973,,,,,,,,,,,,,,jacke,42.72008780000033,,,,,,,,,,,,41.21287320001284,None,,,,,,,,,,,,,freeRecallSub,1,,,,,,,,,,,,,,,,,,,,,,,,,,,,,,,,,,,,,,438.7049695000169,438.7158447999973,438.7158447999973,481.44403169996804,return,42.72008780000033,None,jacke,[],[],[],[],[],[],[],,,,,,,,,,,,,,,,,,,,,,1,2023-11-27_12h22.21.294,watkins1,2023.2.3,99.74853397032125,20,2023-11-27 12h22.28.392525 +0000,
,,,,,,,,,,,,,,,,,,,11,0,11,0,,,,,481.45654210000066,,,,,,,,,,,,,,nachhaltig,2.939421700022649,,,,,,,,,,,,0.776353300025221,None,,,,,,,,,,,,,freeRecallSub,1,,,,,,,,,,,,,,,,,,,,,,,,,,,,,,,,,,,,,,481.4453070000163,481.45654210000066,481.45654210000066,484.4006842999952,return,2.939421700022649,None,nachhaltig,[],[],[],[],[],[],[],,,,,,,,,,,,,,,,,,,,,,1,2023-11-27_12h22.21.294,watkins1,2023.2.3,99.74853397032125,20,2023-11-27 12h22.28.392525 +0000,
,,,,,,,,,,,,,,,,,,,12,0,12,0,,,,,484.4133266999852,,,,,,,,,,,,,,tasche,39.52654370001983,,,,,,,,,,,,38.07888659997843,None,,,,,,,,,,,,,freeRecallSub,1,,,,,,,,,,,,,,,,,,,,,,,,,,,,,,,,,,,,,,484.40193509997334,484.4133266999852,484.4133266999852,523.946818700002,return,39.52654370001983,None,tasche,[],[],[],[],[],[],[],,,,,,,,,,,,,,,,,,,,,,1,2023-11-27_12h22.21.294,watkins1,2023.2.3,99.74853397032125,20,2023-11-27 12h22.28.392525 +0000,
,,,,,,,,,,,,,,,,,,,13,0,13,0,,,,,523.9594884999678,,,,,,,,,,,,,,flach,1.8043054000008851,,,,,,,,,,,,0.6566024000057951,None,,,,,,,,,,,,,freeRecallSub,1,,,,,,,,,,,,,,,,,,,,,,,,,,,,,,,,,,,,,,523.9480789999943,523.9594884999678,523.9594884999678,525.7700046999962,return,1.8043054000008851,None,flach,[],[],[],[],[],[],[],,,,,,,,,,,,,,,,,,,,,,1,2023-11-27_12h22.21.294,watkins1,2023.2.3,99.74853397032125,20,2023-11-27 12h22.28.392525 +0000,
,,,,,,,,,,,,,,,,,,,14,0,14,0,,,,,525.7829667999758,,,,,,,,,,,,,,tasche,6.0689241999643855,,,,,,,,,,,,4.472362600034103,None,,,,,,,,,,,,,freeRecallSub,1,,,,,,,,,,,,,,,,,,,,,,,,,,,,,,,,,,,,,,525.7712573999888,525.7829667999758,525.7829667999758,531.8599951000069,return,6.0689241999643855,None,tasche,[],[],[],[],[],[],[],,,,,,,,,,,,,,,,,,,,,,1,2023-11-27_12h22.21.294,watkins1,2023.2.3,99.74853397032125,20,2023-11-27 12h22.28.392525 +0000,
,,,,,,,,,,,,,,,,,,,15,0,15,0,,,,,531.8729662999976,,,,,,,,,,,,,,groß,1.2508901000255719,,,,,,,,,,,,0.3256184000056237,None,,,,,,,,,,,,,freeRecallSub,1,,,,,,,,,,,,,,,,,,,,,,,,,,,,,,,,,,,,,,531.8612574000144,531.8729662999976,531.8729662999976,533.1305769999744,return,1.2508901000255719,None,groß,[],[],[],[],[],[],[],,,,,,,,,,,,,,,,,,,,,,1,2023-11-27_12h22.21.294,watkins1,2023.2.3,99.74853397032125,20,2023-11-27 12h22.28.392525 +0000,
,,,,,,,,,,,,,,,,,,,16,0,16,0,,,,,533.1441893000156,,,,,,,,,,,,,,winzig,36.51601550000487,,,,,,,,,,,,34.93788929999573,None,,,,,,,,,,,,,freeRecallSub,1,,,,,,,,,,,,,,,,,,,,,,,,,,,,,,,,,,,,,,533.1318285000161,533.1441893000156,533.1441893000156,569.6665744999773,return,36.51601550000487,None,winzig,[-0.008333333333333333],[0.05740740740740741],[1],[0],[0],[12.491159600031096],[],,,,,,,,,,,,,,,,,,,,,,1,2023-11-27_12h22.21.294,watkins1,2023.2.3,99.74853397032125,20,2023-11-27 12h22.28.392525 +0000,
,,,,,,,,,,,,,,,,,,,17,0,17,0,,,,,569.6806568999891,,,,,,,,,,,,,,Kette,6.93910960003268,,,,,,,,,,,,5.719863799982704,None,,,,,,,,,,,,,freeRecallSub,1,,,,,,,,,,,,,,,,,,,,,,,,,,,,,,,,,,,,,,569.6678759999922,569.6806568999891,569.6806568999891,576.6228311000159,return,6.93910960003268,None,Kette,[],[],[],[],[],[],[],,,,,,,,,,,,,,,,,,,,,,1,2023-11-27_12h22.21.294,watkins1,2023.2.3,99.74853397032125,20,2023-11-27 12h22.28.392525 +0000,
,,,,,,,,,,,,,,,,,,,18,0,18,0,,,,,576.6368771999842,,,,,,,,,,,,,,flauschig,5.758942900050897,,,,,,,,,,,,1.2816293999785557,None,,,,,,,,,,,,,freeRecallSub,1,,,,,,,,,,,,,,,,,,,,,,,,,,,,,,,,,,,,,,576.6240925000166,576.6368771999842,576.6368771999842,582.4037743000081,return,5.758942900050897,None,flauschig,[],[],[],[],[],[],[],,,,,,,,,,,,,,,,,,,,,,1,2023-11-27_12h22.21.294,watkins1,2023.2.3,99.74853397032125,20,2023-11-27 12h22.28.392525 +0000,
,,,,,,,,,,,,,,,,,,,19,0,19,0,,,,,582.4175213999697,,,,,,,,,,,,,,gestreift,8.914121799985878,,,,,,,,,,,,2.144639100006316,6.798016400018241,,,,,,,,,,,,,freeRecallSub,1,,,,,,,,,,,,,,,,,,,,,,,,,,,,,,,,,,,,,,582.4050319999806,582.4175213999697,582.4175213999697,591.3415330999997,return,8.914121799985878,None,gestreift,[],[],[],[],[],[],[],,,,,,,,,,,,,,,,,,,,,,1,2023-11-27_12h22.21.294,watkins1,2023.2.3,99.74853397032125,20,2023-11-27 12h22.28.392525 +0000,
,,,,,,,,,,,,,,,,,,,20,0,20,0,,,,,591.3557153000147,,,,,,,,,,,,,,,[],,,,,,,,,,,,None,None,,,,,,,,,,,,,freeRecallSub,1,,,,,,,,,,,,,,,,,,,,,,,,,,,,,,,,,,,,,,591.342797899968,591.3557153000147,591.3557153000147,607.8263964999933,None,,,,"[0.2388888888888889, 0.23703703703703705]","[-0.42592592592592593, -0.4101851851851852]","[1, 1]","[0, 0]","[0, 0]","[16.005007500003558, 16.476947400020435]","['button_continue', 'continue_text']",,,,,,,,,,,,,,,,,,,,,,1,2023-11-27_12h22.21.294,watkins1,2023.2.3,99.74853397032125,20,2023-11-27 12h22.28.392525 +0000,
,,,,,,,,,,,,,,,,,,,,,,,,,,,,,,,,,,,,,,,,,,,,,,,,,,,,,,,,,,,,,,,,,,,,,1,,,,,,,,,,,,,,,,,,,,,,,,,,,,,,,,,,,,,,,,,,,,,,,,,,,,,,,,,,,,,,,,,,,,,,,,,,1,2023-11-27_12h22.21.294,watkins1,2023.2.3,99.74853397032125,20,2023-11-27 12h22.28.392525 +0000,
,,,,,,,,,,,,,,,,,,,,,,,0,0,0,0,618.1425896000001,,,,,,,,,,627.3428181000054,627.8416067999788,,,,9.189033999980893,,,,,,,,,,,,None,None,,,,,,,,,,Hut,,,cuedRecallAdj,1,,,,,,,,,,,,,,,,,,,,,,,,,,,,,,,,,,,,,,,,,,,,,,,,,,,,,618.1333740999689,618.1425896000001,0,618.1425896000001,627.3397715999745,dick,return,9.189033999980893,None,627.3401707999874,627.3495948999771,627.3495948999771,627.3426684999722,,None,,,,,,,1,2023-11-27_12h22.21.294,watkins1,2023.2.3,99.74853397032125,20,2023-11-27 12h22.28.392525 +0000,
,,,,,,,,,,,,,,,,,,,,,,,1,0,1,0,627.8515718000126,,,,,,,,,,637.601951699995,638.0931443999871,,,kurz,4.032026399974711,,,,,,,,,,,,4.889120700012427,None,,,,,,,,,,Telefon,,,cuedRecallAdj,1,,,,,,,,,,,,,,,,,,,,,,,,,,,,,,,,,,,,,,,,,,,,,,,,,,,,,627.8418471000041,627.8515718000126,0,627.8515718000126,631.8884496999672,Anruf,return,4.032026399974711,None,631.8887106999755,631.8979797000065,631.8979797000065,637.6016081999987,kurz,return,5.697676700016018,None,,,,,1,2023-11-27_12h22.21.294,watkins1,2023.2.3,99.74853397032125,20,2023-11-27 12h22.28.392525 +0000,
,,,,,,,,,,,,,,,,,,,,,,,2,0,2,0,638.1030860000174,,,,,,,,,,642.2532191000064,642.7518823000137,,,,4.140563799999654,,,,,,,,,,,,None,None,,,,,,,,,,Uhr,,,cuedRecallAdj,1,,,,,,,,,,,,,,,,,,,,,,,,,,,,,,,,,,,,,,,,,,,,,,,,,,,,,638.0933858999633,638.1030860000174,0,638.1030860000174,642.250212599989,lang,return,4.140563799999654,None,642.250479099981,642.2598706000135,642.2598706000135,642.2531179999933,,None,,,,,,,1,2023-11-27_12h22.21.294,watkins1,2023.2.3,99.74853397032125,20,2023-11-27 12h22.28.392525 +0000,
,,,,,,,,,,,,,,,,,,,,,,,3,0,3,0,642.7618219999713,,,,,,,,,,648.9202473000041,649.4193086000159,,,,6.145755999954417,,,,,,,,,,,,None,None,,,,,,,,,,Hammer,,,cuedRecallAdj,1,,,,,,,,,,,,,,,,,,,,,,,,,,,,,,,,,,,,,,,,,,,,,,,,,,,,,642.7521289999713,642.7618219999713,0,642.7618219999713,648.9173559999908,warm,return,6.145755999954417,None,648.917623699992,648.9271712999907,648.9271712999907,648.9201463999925,,None,,,,,,,1,2023-11-27_12h22.21.294,watkins1,2023.2.3,99.74853397032125,20,2023-11-27 12h22.28.392525 +0000,
,,,,,,,,,,,,,,,,,,,,,,,4,0,4,0,649.4292194999871,,,,,,,,,,652.4448009000043,652.9434370999807,,,,3.0063671999960206,,,,,,,,,,,,None,None,,,,,,,,,,Socke,,,cuedRecallAdj,1,,,,,,,,,,,,,,,,,,,,,,,,,,,,,,,,,,,,,,,,,,,,,,,,,,,,,649.4195466999663,649.4292194999871,0,649.4292194999871,652.4418710999889,lang,return,3.0063671999960206,None,652.4421390999923,652.451429400011,652.451429400011,652.4446987999836,,None,,,,,,,1,2023-11-27_12h22.21.294,watkins1,2023.2.3,99.74853397032125,20,2023-11-27 12h22.28.392525 +0000,
,,,,,,,,,,,,,,,,,,,,,,,5,0,5,0,652.9533861000091,,,,,,,,,,656.8426032999996,657.3411463999655,,,,3.882165300019551,,,,,,,,,,,,None,None,,,,,,,,,,Lampe,,,cuedRecallAdj,1,,,,,,,,,,,,,,,,,,,,,,,,,,,,,,,,,,,,,,,,,,,,,,,,,,,,,652.9437247999595,652.9533861000091,0,652.9533861000091,656.8395119999768,rustikal,return,3.882165300019551,None,656.8397999000154,656.8490087999962,656.8490087999962,656.8425001999713,,None,,,,,,,1,2023-11-27_12h22.21.294,watkins1,2023.2.3,99.74853397032125,20,2023-11-27 12h22.28.392525 +0000,
,,,,,,,,,,,,,,,,,,,,,,,6,0,6,0,657.3510866999859,,,,,,,,,,661.551250599965,662.050138199993,,,,4.188515599991661,,,,,,,,,,,,None,None,,,,,,,,,,Ring,,,cuedRecallAdj,1,,,,,,,,,,,,,,,,,,,,,,,,,,,,,,,,,,,,,,,,,,,,,,,,,,,,,657.3413912999677,657.3510866999859,0,657.3510866999859,661.548408099974,sauber,return,4.188515599991661,None,661.5486720000044,661.5580723999883,661.5580723999883,661.5511486000032,,None,,,,,,,1,2023-11-27_12h22.21.294,watkins1,2023.2.3,99.74853397032125,20,2023-11-27 12h22.28.392525 +0000,
,,,,,,,,,,,,,,,,,,,,,,,7,0,7,0,662.0600877999677,,,,,,,,,,667.4356697999756,667.9344297999633,,,,5.367442499962635,,,,,,,,,,,,None,None,,,,,,,,,,Flasche,,,cuedRecallAdj,1,,,,,,,,,,,,,,,,,,,,,,,,,,,,,,,,,,,,,,,,,,,,,,,,,,,,,662.0503860999597,662.0600877999677,0,662.0600877999677,667.4327969999867,hohl,return,5.367442499962635,None,667.433061699965,667.4423138999846,667.4423138999846,667.4355689999647,,None,,,,,,,1,2023-11-27_12h22.21.294,watkins1,2023.2.3,99.74853397032125,20,2023-11-27 12h22.28.392525 +0000,
,,,,,,,,,,,,,,,,,,,,,,,8,0,8,0,667.9443753999658,,,,,,,,,,679.4714053999633,679.9626898000133,,,alt,5.667176499962807,,,,,,,,,,,,5.320764800009783,None,,,,,,,,,,Schlüssel,,,cuedRecallAdj,1,,,,,,,,,,,,,,,,,,,,,,,,,,,,,,,,,,,,,,,,,,,,,,,,,,,,,667.9346744999639,667.9443753999658,0,667.9443753999658,673.61764089996,dreckig,return,5.667176499962807,None,673.6179055999964,673.6272995999898,673.6272995999898,679.4711362000089,alt,return,5.840240899997298,None,,,,,1,2023-11-27_12h22.21.294,watkins1,2023.2.3,99.74853397032125,20,2023-11-27 12h22.28.392525 +0000,
,,,,,,,,,,,,,,,,,,,,,,,9,0,9,0,679.9727480000001,,,,,,,,,,683.119366400002,683.6173893999658,,,,3.1428137000184506,,,,,,,,,,,,None,None,,,,,,,,,,Buch,,,cuedRecallAdj,1,,,,,,,,,,,,,,,,,,,,,,,,,,,,,,,,,,,,,,,,,,,,,,,,,,,,,679.9629378999816,679.9727480000001,0,679.9727480000001,683.1160149999778,neu,return,3.1428137000184506,None,683.1162996999919,683.1254691999638,683.1254691999638,683.1192586999969,,None,,,,,,,1,2023-11-27_12h22.21.294,watkins1,2023.2.3,99.74853397032125,20,2023-11-27 12h22.28.392525 +0000,
,,,,,,,,,,,,,,,,,,,,,,,10,0,10,0,683.6274398000096,,,,,,,,,,688.9831208999967,689.482088299992,,,,5.344035100017209,,,,,,,,,,,,None,None,,,,,,,,,,Eimer,,,cuedRecallAdj,1,,,,,,,,,,,,,,,,,,,,,,,,,,,,,,,,,,,,,,,,,,,,,,,,,,,,,683.6176339999656,683.6274398000096,0,683.6274398000096,688.9802925999975,hohl,return,5.344035100017209,None,688.9805546000134,688.990019299963,688.990019299963,688.9830195999821,,None,,,,,,,1,2023-11-27_12h22.21.294,watkins1,2023.2.3,99.74853397032125,20,2023-11-27 12h22.28.392525 +0000,
,,,,,,,,,,,,,,,,,,,,,,,11,0,11,0,689.4920397999813,,,,,,,,,,693.2003438000102,693.6990073999623,,,,3.7035029000253417,,,,,,,,,,,,None,None,,,,,,,,,,Kamera,,,cuedRecallAdj,1,,,,,,,,,,,,,,,,,,,,,,,,,,,,,,,,,,,,,,,,,,,,,,,,,,,,,689.4823292999645,689.4920397999813,0,689.4920397999813,693.1973460000008,dreckig,return,3.7035029000253417,None,693.1976095999707,693.2068731999607,693.2068731999607,693.2002393999719,,None,,,,,,,1,2023-11-27_12h22.21.294,watkins1,2023.2.3,99.74853397032125,20,2023-11-27 12h22.28.392525 +0000,
,,,,,,,,,,,,,,,,,,,,,,,12,0,12,0,693.7089520000154,,,,,,,,,,698.0900496999966,698.588967699965,,,,4.374573600012809,,,,,,,,,,,,None,None,,,,,,,,,,Geige,,,cuedRecallAdj,1,,,,,,,,,,,,,,,,,,,,,,,,,,,,,,,,,,,,,,,,,,,,,,,,,,,,,693.6992516999599,693.7089520000154,0,693.7089520000154,698.0869146999903,schön,return,4.374573600012809,None,698.0871776000131,698.0965344000142,698.0965344000142,698.0899460999644,,None,,,,,,,1,2023-11-27_12h22.21.294,watkins1,2023.2.3,99.74853397032125,20,2023-11-27 12h22.28.392525 +0000,
,,,,,,,,,,,,,,,,,,,,,,,13,0,13,0,698.5988803000073,,,,,,,,,,704.2624188999762,704.753688799974,,,hübsch,2.492583499988541,,,,,,,,,,,,1.8669437000062317,None,,,,,,,,,,Brille,,,cuedRecallAdj,1,,,,,,,,,,,,,,,,,,,,,,,,,,,,,,,,,,,,,,,,,,,,,,,,,,,,,698.5892189000151,698.5988803000073,0,698.5988803000073,701.0993855000124,kaputt,return,2.492583499988541,None,701.0996478999732,701.1091073999996,701.1091073999996,704.2621548000025,hübsch,return,3.15036049997434,None,,,,,1,2023-11-27_12h22.21.294,watkins1,2023.2.3,99.74853397032125,20,2023-11-27 12h22.28.392525 +0000,
,,,,,,,,,,,,,,,,,,,,,,,14,0,14,0,704.7635976999882,,,,,,,,,,710.2666300999699,710.7579485999886,,,teuer,3.559892499994021,,,,,,,,,,,,1.143954399973154,None,,,,,,,,,,Kerze,,,cuedRecallAdj,1,,,,,,,,,,,,,,,,,,,,,,,,,,,,,,,,,,,,,,,,,,,,,,,,,,,,,704.7539329999709,704.7635976999882,0,704.7635976999882,708.3286129999906,elegant,return,3.559892499994021,None,708.3288799999864,708.3381582999718,708.3381582999718,710.266364399984,teuer,return,1.9213313999935053,None,,,,,1,2023-11-27_12h22.21.294,watkins1,2023.2.3,99.74853397032125,20,2023-11-27 12h22.28.392525 +0000,
,,,,,,,,,,,,,,,,,,,,,,,15,0,15,0,710.7678967000102,,,,,,,,,,718.0910584999947,718.5894586999784,,,,7.315561799972784,,,,,,,,,,,,None,None,,,,,,,,,,Vase,,,cuedRecallAdj,1,,,,,,,,,,,,,,,,,,,,,,,,,,,,,,,,,,,,,,,,,,,,,,,,,,,,,710.7581970000174,710.7678967000102,0,710.7678967000102,718.087841600005,simpel,return,7.315561799972784,None,718.0881037999643,718.0974024999887,718.0974024999887,718.0909565999755,,None,,,,,,,1,2023-11-27_12h22.21.294,watkins1,2023.2.3,99.74853397032125,20,2023-11-27 12h22.28.392525 +0000,
,,,,,,,,,,,,,,,,,,,,,,,16,0,16,0,718.5994053999893,,,,,,,,,,725.7989774000016,726.2903502999688,,,alt,6.140046900021844,,,,,,,,,,,,0.2603582000010647,None,,,,,,,,,,Stift,,,cuedRecallAdj,1,,,,,,,,,,,,,,,,,,,,,,,,,,,,,,,,,,,,,,,,,,,,,,,,,,,,,718.5897071000072,718.5994053999893,0,718.5994053999893,724.7445650000009,schwarz,return,6.140046900021844,None,724.7448519999743,724.7541470999713,724.7541470999713,725.7987118000165,alt,return,1.0413092999951914,None,,,,,1,2023-11-27_12h22.21.294,watkins1,2023.2.3,99.74853397032125,20,2023-11-27 12h22.28.392525 +0000,
,,,,,,,,,,,,,,,,,,,,,,,17,0,17,0,726.3002867999603,,,,,,,,,,730.2366566999699,730.7281641999725,,,nass,2.599115499993786,,,,,,,,,,,,0.7221884000464343,None,,,,,,,,,,Würfel,,,cuedRecallAdj,1,,,,,,,,,,,,,,,,,,,,,,,,,,,,,,,,,,,,,,,,,,,,,,,,,,,,,726.290591500001,726.3002867999603,0,726.3002867999603,728.9013001999701,bunt,return,2.599115499993786,None,728.9015645000036,728.9108086999622,728.9108086999622,730.2363920999924,nass,return,1.3166095999768004,None,,,,,1,2023-11-27_12h22.21.294,watkins1,2023.2.3,99.74853397032125,20,2023-11-27 12h22.28.392525 +0000,
,,,,,,,,,,,,,,,,,,,,,,,18,0,18,0,730.7380814999924,,,,,,,,,,739.8254726000014,740.3167263999931,,,alt,3.3452527000335976,,,,,,,,,,,,5.12003640003968,None,,,,,,,,,,Löffel,,,cuedRecallAdj,1,,,,,,,,,,,,,,,,,,,,,,,,,,,,,,,,,,,,,,,,,,,,,,,,,,,,,730.7284113999922,730.7380814999924,0,730.7380814999924,734.0920429999824,gebeugt,return,3.3452527000335976,None,734.092306800012,734.1017608999973,734.1017608999973,739.8252042999957,alt,return,5.717738999985158,None,,,,,1,2023-11-27_12h22.21.294,watkins1,2023.2.3,99.74853397032125,20,2023-11-27 12h22.28.392525 +0000,
,,,,,,,,,,,,,,,,,,,,,,,19,0,19,0,740.326688000001,,,,,,,,,,747.0041503999964,747.4956747000106,,,krumm,3.8687828999827616,,,,,,,,,,,,1.9572188000311144,None,,,,,,,,,,Bürste,,,cuedRecallAdj,1,,,,,,,,,,,,,,,,,,,,,,,,,,,,,,,,,,,,,,,,,,,,,,,,,,,,,740.3169701999868,740.326688000001,0,740.326688000001,744.2027436000062,nass,return,3.8687828999827616,None,744.2030051999609,744.2124088999699,744.2124088999699,747.0038810999831,krumm,return,2.7829606999875978,None,,,,,1,2023-11-27_12h22.21.294,watkins1,2023.2.3,99.74853397032125,20,2023-11-27 12h22.28.392525 +0000,
,,,,,,,,,,,,,,,,,,,,,,,20,0,20,0,747.5056039000046,,,,,,,,,,755.066715199966,755.5579695999622,,,flauschig,4.321755999990273,,,,,,,,,,,,0.8526728000142612,None,,,,,,,,,,Kette,,,cuedRecallAdj,1,,,,,,,,,,,,,,,,,,,,,,,,,,,,,,,,,,,,,,,,,,,,,,,,,,,,,747.4959190000081,747.5056039000046,0,747.5056039000046,751.8335478999652,gestreift,return,4.321755999990273,None,751.833808699972,751.8430993999937,751.8430993999937,755.0664537000121,flauschig,return,3.216316500038374,None,,,,,1,2023-11-27_12h22.21.294,watkins1,2023.2.3,99.74853397032125,20,2023-11-27 12h22.28.392525 +0000,
,,,,,,,,,,,,,,,,,,,,,,,21,0,21,0,755.5678823000053,,,,,,,,,,767.2456324999803,767.7369783999748,,,neu,4.131471299973782,,,,,,,,,,,,7.007549399975687,None,,,,,,,,,,Fahrrad,,,cuedRecallAdj,1,,,,,,,,,,,,,,,,,,,,,,,,,,,,,,,,,,,,,,,,,,,,,,,,,,,,,755.558213500015,755.5678823000053,0,755.5678823000053,759.7049687000108,teuer,return,4.131471299973782,None,759.7052309999708,759.7146290999954,759.7146290999954,767.2453688000096,neu,return,7.52865470002871,None,,,,,1,2023-11-27_12h22.21.294,watkins1,2023.2.3,99.74853397032125,20,2023-11-27 12h22.28.392525 +0000,
,,,,,,,,,,,,,,,,,,,,,,,22,0,22,0,767.7470386999776,,,,,,,,,,776.6833512000157,777.1748267000075,,,flach,3.520283800025936,,,,,,,,,,,,2.1379182999953628,None,,,,,,,,,,Tasche,,,cuedRecallAdj,1,,,,,,,,,,,,,,,,,,,,,,,,,,,,,,,,,,,,,,,,,,,,,,,,,,,,,767.7372279000119,767.7470386999776,0,767.7470386999776,771.2715155999758,groß,return,3.520283800025936,None,771.2717810999602,771.2810742000001,771.2810742000001,776.6830828000093,flach,return,5.3942439000238664,None,,,,,1,2023-11-27_12h22.21.294,watkins1,2023.2.3,99.74853397032125,20,2023-11-27 12h22.28.392525 +0000,
,,,,,,,,,,,,,,,,,,,,,,,23,0,23,0,777.1848865000065,,,,,,,,,,780.3912632999709,780.8897127999808,,,,3.1944454999757,,,,,,,,,,,,None,None,,,,,,,,,,Trommel,,,cuedRecallAdj,1,,,,,,,,,,,,,,,,,,,,,,,,,,,,,,,,,,,,,,,,,,,,,,,,,,,,,777.1750692999922,777.1848865000065,0,777.1848865000065,780.387967299961,glatt,return,3.1944454999757,None,780.3882333000074,780.3977940999903,780.3977940999903,780.3911593999946,,None,,,,,,,1,2023-11-27_12h22.21.294,watkins1,2023.2.3,99.74853397032125,20,2023-11-27 12h22.28.392525 +0000,
,,,,,,,,,,,,,,,,,,,,,,,24,0,24,0,780.8996596999932,,,,,,,,,,797.9097110999865,798.4009695000132,,,gestreift,9.383561299997382,,,,,,,,,,,,6.043377399968449,None,,,,,,,,,,Schere,,,cuedRecallAdj,1,,,,,,,,,,,,,,,,,,,,,,,,,,,,,,,,,,,,,,,,,,,,,,,,,,,,,780.8899609000073,780.8996596999932,0,780.8996596999932,790.288931499992,krumm,return,9.383561299997382,None,790.2891960999696,790.2984733000048,790.2984733000048,797.9094261999708,gestreift,return,7.6087799000088125,None,,,,,1,2023-11-27_12h22.21.294,watkins1,2023.2.3,99.74853397032125,20,2023-11-27 12h22.28.392525 +0000,
,,,,,,,,,,,,,,,,,,,,,,,25,0,25,0,798.4108685000101,,,,,,,,,,807.6320732000167,808.1300749999937,,,,9.216428200015798,,,,,,,,,,,,None,None,,,,,,,,,,Rucksack,,,cuedRecallAdj,1,,,,,,,,,,,,,,,,,,,,,,,,,,,,,,,,,,,,,,,,,,,,,,,,,,,,,798.4012107999879,798.4108685000101,0,798.4108685000101,807.6283917999826,dunkel,return,9.216428200015798,None,807.6286945000174,807.6378974000108,807.6378974000108,807.6319624999887,,None,,,,,,,1,2023-11-27_12h22.21.294,watkins1,2023.2.3,99.74853397032125,20,2023-11-27 12h22.28.392525 +0000,
,,,,,,,,,,,,,,,,,,,,,,,26,0,26,0,808.1400388999609,,,,,,,,,,812.628788299975,813.120053199993,,,warm,2.98315869999351,,,,,,,,,,,,0.30075630004284903,None,,,,,,,,,,Jacke,,,cuedRecallAdj,1,,,,,,,,,,,,,,,,,,,,,,,,,,,,,,,,,,,,,,,,,,,,,,,,,,,,,808.1303166999714,808.1400388999609,0,808.1400388999609,811.1323258999619,nachhaltig,return,2.98315869999351,None,811.1325915000052,811.1421515999828,811.1421515999828,812.6284142999793,warm,return,1.4771929000271484,None,,,,,1,2023-11-27_12h22.21.294,watkins1,2023.2.3,99.74853397032125,20,2023-11-27 12h22.28.392525 +0000,
,,,,,,,,,,,,,,,,,,,,,,,27,0,27,0,813.1301040999824,,,,,,,,,,816.9301331999595,817.4280716999783,,,,3.793186600029003,,,,,,,,,,,,None,None,,,,,,,,,,Kiste,,,cuedRecallAdj,1,,,,,,,,,,,,,,,,,,,,,,,,,,,,,,,,,,,,,,,,,,,,,,,,,,,,,813.1202964999829,813.1301040999824,0,813.1301040999824,816.9264220999903,niedlich,return,3.793186600029003,None,816.9267096999683,816.9359628999955,816.9359628999955,816.9300248000072,,None,,,,,,,1,2023-11-27_12h22.21.294,watkins1,2023.2.3,99.74853397032125,20,2023-11-27 12h22.28.392525 +0000,
,,,,,,,,,,,,,,,,,,,,,,,28,0,28,0,817.4380221000174,,,,,,,,,,822.147707999975,822.6391310999752,,,schön,2.3252680999576114,,,,,,,,,,,,1.2040223000221886,None,,,,,,,,,,Blume,,,cuedRecallAdj,1,,,,,,,,,,,,,,,,,,,,,,,,,,,,,,,,,,,,,,,,,,,,,,,,,,,,,817.4283137000166,817.4380221000174,0,817.4380221000174,819.7681077999878,gut,return,2.3252680999576114,None,819.7683719999623,819.7776085999794,819.7776085999794,822.1474423999898,schön,return,2.3615872000227682,None,,,,,1,2023-11-27_12h22.21.294,watkins1,2023.2.3,99.74853397032125,20,2023-11-27 12h22.28.392525 +0000,
,,,,,,,,,,,,,,,,,,,,,,,29,0,29,0,822.6490853999858,,,,,,,,,,827.4591546999873,827.950740500004,,,groß,2.3461969000054523,,,,,,,,,,,,1.2544176999945194,None,,,,,,,,,,Tasse,,,cuedRecallAdj,1,,,,,,,,,,,,,,,,,,,,,,,,,,,,,,,,,,,,,,,,,,,,,,,,,,,,,822.639377799991,822.6490853999858,0,822.6490853999858,824.9991188999848,hohl,return,2.3461969000054523,None,824.9993827000144,825.0086820999859,825.0086820999859,827.458881700004,groß,return,2.442661600012798,None,,,,,1,2023-11-27_12h22.21.294,watkins1,2023.2.3,99.74853397032125,20,2023-11-27 12h22.28.392525 +0000,
,,,,,,,,,,,,,,,,,,,,,,,,,,,,,,,,,,,,,,,,,,,,,,,,,,,,,,,,,,,,,,,,,,,,,1,,,,,,,,,,,,,,,,,,,,,,,,,,,,,,,,,,,,,,,,,,,,,,,,,,,,,,,,,,,,,,,,,,,,,,827.967344100005,q,4198.739744200022,None,1,2023-11-27_12h22.21.294,watkins1,2023.2.3,99.74853397032125,20,2023-11-27 12h22.28.392525 +0000,
