Equation,CorrectResponse,Correctbutton,trials_7.thisRepN,trials_7.thisTrialN,trials_7.thisN,trials_7.thisIndex,trials.thisRepN,trials.thisTrialN,trials.thisN,trials.thisIndex,trials_3.thisRepN,trials_3.thisTrialN,trials_3.thisN,trials_3.thisIndex,trials_2.thisRepN,trials_2.thisTrialN,trials_2.thisN,trials_2.thisIndex,trials_4.thisRepN,trials_4.thisTrialN,trials_4.thisN,trials_4.thisIndex,trials_5.thisRepN,trials_5.thisTrialN,trials_5.thisN,trials_5.thisIndex,thisRow.t,notes,code_marius.started,code_marius.stopped,welcome.started,welcome.stopped,instruction_study.started,instruction_study.stopped,fixationcross.started,fixationcross.stopped,blanc.started,blanc.stopped,study_control_probe.started,study_control_probe.stopped,responseKey,responseTime,scale_answer_2.keys,study_control_probe_2.started,study_control_probe_2.stopped,scale_answer_3.keys,scale_answer_3.rt,scale_answer_3.duration,blanc_2.started,blanc_2.stopped,test_attr_probe.started,test_attr_probe.stopped,recalled_attr,firstKeyTime,secondWordTime,blanc_3.started,blanc_3.stopped,test_sub_probe.started,test_sub_probe.stopped,recalled_sub,instruction_probe_end.started,instruction_probe_end.stopped,study.started,study.stopped,substantive,adjective,wordpair,task,condition,liste_sub_phase1,liste_adj_phase1,scale_answer.keys,scale_answer.rt,scale_answer.duration,code_defineWordsInit.started,code_defineWordsInit.stopped,liste_sub_phase2,study_control.started,study_control.stopped,scale_answer_4.keys,scale_answer_4.rt,scale_answer_4.duration,restudy_same.started,restudy_same.stopped,scale_answer_5.keys,restudy_different.started,restudy_different.stopped,scale_answer_6.keys,test_attr.started,test_attr.stopped,test_sub.started,test_sub.stopped,scale_answer_6.rt,scale_answer_6.duration,distractortask.started,equation_text.started,distractortask.stopped,mouse_answer.x,mouse_answer.y,mouse_answer.leftButton,mouse_answer.midButton,mouse_answer.rightButton,mouse_answer.time,mouse_answer.clicked_name,feedback_distractortask.started,feedback_distractortask.stopped,free_recall.started,text_enter.started,key_resp.started,free_recall.stopped,key_resp.keys,key_resp.rt,key_resp.duration,free_recalled_sub,mouse_continue.x,mouse_continue.y,mouse_continue.leftButton,mouse_continue.midButton,mouse_continue.rightButton,mouse_continue.time,mouse_continue.clicked_name,cued_recall.started,text_enter_2.started,correct,key_continue.started,cued_recall.stopped,recalled_attr1,key_continue.keys,key_continue.rt,key_continue.duration,cued_recall_2.started,text_enter_3.started,key_continue_2.started,cued_recall_2.stopped,recalled_attr2,key_continue_2.keys,key_continue_2.rt,key_continue_2.duration,key_resp_8.started,key_resp_8.keys,key_resp_8.rt,key_resp_8.duration,condition,date,expName,psychopyVersion,frameRate,participant,expStart,
,,,,,,,,,,,,,,,,,,,,,,,,,,,,,0.10857869999927061,0.10864869999932125,0.10865779999949154,22.794524799999635,,,,,,,,,,,,,,,,,,,,,,,,,,,,,,,,,,,,,1,,,,,,,,,,,,,,,,,,,,,,,,,,,,,,,,,,,,,,,,,,,,,,,,,,,,,,,,,,,,,,,,,,,,,,,,,,1,2024-01-17_13h34.13.131,watkins1,2023.2.3,99.72993134627866,94,2024-01-17 13h34.22.865169 +0000,
,,,,,,,,,,,,,,,,,,,,,,,,,,,,,,,,,22.79457360000015,50.84092719999899,,,,,,,,,,,,,,,,,,,,,,,,,,,,,,,,,,,1,,,,,,,,,,,,,,,,,,,,,,,,,,,,,,,,,,,,,,,,,,,,,,,,,,,,,,,,,,,,,,,,,,,,,,,,,,1,2024-01-17_13h34.13.131,watkins1,2023.2.3,99.72993134627866,94,2024-01-17 13h34.22.865169 +0000,
,,,0,0,0,0,,,,,,,,,,,,,,,,,,,,,51.85469550000016,,,,,,,,50.84094329999971,51.8447613999997,58.344968899999,58.8364117000001,52.33674350000001,58.344807699999365,2,4.072505100000853,None,58.83642189999955,64.84526769999866,2,4.072505100000853,None,64.84555659999933,64.8455801,64.84558709999874,64.84566959999938,,None,None,64.84583009999915,64.84585039999911,64.8458570999992,64.84593200000018,,,,,,,,,,1,,,,,,,,,,,,,,,,,,,,,,,,,,,,,,,,,,,,,,,,,,,,,,,,,,,,,,,,,,,,,,,,,,,,,,,,,,1,2024-01-17_13h34.13.131,watkins1,2023.2.3,99.72993134627866,94,2024-01-17 13h34.22.865169 +0000,
,,,,,,,,,,,,,,,,,,,,,,,,,,,,,,,,,,,,,,,,,,,,,,,,,,,,,,,,,,,,,64.84604359999867,69.2798772999995,,,,,,,1,,,,,,,,,,,,,,,,,,,,,,,,,,,,,,,,,,,,,,,,,,,,,,,,,,,,,,,,,,,,,,,,,,,,,,,,,,1,2024-01-17_13h34.13.131,watkins1,2023.2.3,99.72993134627866,94,2024-01-17 13h34.22.865169 +0000,
,,,,,,,0,0,0,0,,,,,,,,,,,,,,,,,70.29357689999961,,,,,,,,69.27989499999967,70.28358909999952,70.28402669999923,70.7755836999986,,,2,2.982508600000074,,,,,,,,,,,,,,,,,,,,,70.77559429999928,76.77724979999948,Bürste,breit,"['Bürste', 'breit']",control,1,"['Bürste', 'Kamera', 'Vase', 'Fahrrad', 'Uhr', 'Flasche', 'Trommel', 'Blume', 'Löffel', 'Stift', 'Jacke', 'Rucksack', 'Brille', 'Lampe', 'Hut', 'Buch', 'Tasse', 'Würfel', 'Kiste', 'Kette', 'Hammer', 'Schlüssel']",['breit'],2,2.982508600000074,None,,,,,,,,,,,,,,,,,,,,,,,,,,,,,,,,,,,,,,,,,,,,,,,,,,,,,,,,,,,,,,,,,,,,,1,2024-01-17_13h34.13.131,watkins1,2023.2.3,99.72993134627866,94,2024-01-17 13h34.22.865169 +0000,
,,,,,,,1,0,1,0,,,,,,,,,,,,,,,,,76.78676059999998,,,,,,,,,,76.7778459000001,77.2686681999985,,,1,1.859811099999206,,,,,,,,,,,,,,,,,,,,,77.26867889999994,83.27866109999923,Kamera,winzig,"['Kamera', 'winzig']",restudy_diff,1,"['Bürste', 'Kamera', 'Vase', 'Fahrrad', 'Uhr', 'Flasche', 'Trommel', 'Blume', 'Löffel', 'Stift', 'Jacke', 'Rucksack', 'Brille', 'Lampe', 'Hut', 'Buch', 'Tasse', 'Würfel', 'Kiste', 'Kette', 'Hammer', 'Schlüssel']","['breit', 'winzig']",1,1.859811099999206,None,,,,,,,,,,,,,,,,,,,,,,,,,,,,,,,,,,,,,,,,,,,,,,,,,,,,,,,,,,,,,,,,,,,,,1,2024-01-17_13h34.13.131,watkins1,2023.2.3,99.72993134627866,94,2024-01-17 13h34.22.865169 +0000,
,,,,,,,2,0,2,0,,,,,,,,,,,,,,,,,83.28813359999913,,,,,,,,,,83.2791318999989,83.7701477999999,,,1,1.6867934000001696,,,,,,,,,,,,,,,,,,,,,83.77015869999923,89.77575939999952,Vase,sportlich,"['Vase', 'sportlich']",restudy_diff,1,"['Bürste', 'Kamera', 'Vase', 'Fahrrad', 'Uhr', 'Flasche', 'Trommel', 'Blume', 'Löffel', 'Stift', 'Jacke', 'Rucksack', 'Brille', 'Lampe', 'Hut', 'Buch', 'Tasse', 'Würfel', 'Kiste', 'Kette', 'Hammer', 'Schlüssel']","['breit', 'winzig', 'sportlich']",1,1.6867934000001696,None,,,,,,,,,,,,,,,,,,,,,,,,,,,,,,,,,,,,,,,,,,,,,,,,,,,,,,,,,,,,,,,,,,,,,1,2024-01-17_13h34.13.131,watkins1,2023.2.3,99.72993134627866,94,2024-01-17 13h34.22.865169 +0000,
,,,,,,,3,0,3,0,,,,,,,,,,,,,,,,,89.78531089999888,,,,,,,,,,89.77621499999987,90.26736919999894,,,2,2.5663667999997415,,,,,,,,,,,,,,,,,,,,,90.26738259999911,96.27167199999894,Fahrrad,groß,"['Fahrrad', 'groß']",restudy_diff,1,"['Bürste', 'Kamera', 'Vase', 'Fahrrad', 'Uhr', 'Flasche', 'Trommel', 'Blume', 'Löffel', 'Stift', 'Jacke', 'Rucksack', 'Brille', 'Lampe', 'Hut', 'Buch', 'Tasse', 'Würfel', 'Kiste', 'Kette', 'Hammer', 'Schlüssel']","['breit', 'winzig', 'sportlich', 'groß']",2,2.5663667999997415,None,,,,,,,,,,,,,,,,,,,,,,,,,,,,,,,,,,,,,,,,,,,,,,,,,,,,,,,,,,,,,,,,,,,,,1,2024-01-17_13h34.13.131,watkins1,2023.2.3,99.72993134627866,94,2024-01-17 13h34.22.865169 +0000,
,,,,,,,4,0,4,0,,,,,,,,,,,,,,,,,96.28112539999893,,,,,,,,,,96.27215759999854,96.76317759999984,,,1,1.6069561999993311,,,,,,,,,,,,,,,,,,,,,96.7631881999987,102.7650307999993,Uhr,kratzig,"['Uhr', 'kratzig']",control,1,"['Bürste', 'Kamera', 'Vase', 'Fahrrad', 'Uhr', 'Flasche', 'Trommel', 'Blume', 'Löffel', 'Stift', 'Jacke', 'Rucksack', 'Brille', 'Lampe', 'Hut', 'Buch', 'Tasse', 'Würfel', 'Kiste', 'Kette', 'Hammer', 'Schlüssel']","['breit', 'winzig', 'sportlich', 'groß', 'kratzig']",1,1.6069561999993311,None,,,,,,,,,,,,,,,,,,,,,,,,,,,,,,,,,,,,,,,,,,,,,,,,,,,,,,,,,,,,,,,,,,,,,1,2024-01-17_13h34.13.131,watkins1,2023.2.3,99.72993134627866,94,2024-01-17 13h34.22.865169 +0000,
,,,,,,,5,0,5,0,,,,,,,,,,,,,,,,,102.77456469999925,,,,,,,,,,102.76551039999867,103.25668779999978,,,2,2.010836299999937,,,,,,,,,,,,,,,,,,,,,103.25669860000016,109.25844649999999,Flasche,hohl,"['Flasche', 'hohl']",control,1,"['Bürste', 'Kamera', 'Vase', 'Fahrrad', 'Uhr', 'Flasche', 'Trommel', 'Blume', 'Löffel', 'Stift', 'Jacke', 'Rucksack', 'Brille', 'Lampe', 'Hut', 'Buch', 'Tasse', 'Würfel', 'Kiste', 'Kette', 'Hammer', 'Schlüssel']","['breit', 'winzig', 'sportlich', 'groß', 'kratzig', 'hohl']",2,2.010836299999937,None,,,,,,,,,,,,,,,,,,,,,,,,,,,,,,,,,,,,,,,,,,,,,,,,,,,,,,,,,,,,,,,,,,,,,1,2024-01-17_13h34.13.131,watkins1,2023.2.3,99.72993134627866,94,2024-01-17 13h34.22.865169 +0000,
,,,,,,,6,0,6,0,,,,,,,,,,,,,,,,,109.2679393999988,,,,,,,,,,109.25892649999878,109.75024359999952,,,2,1.6204207000009774,,,,,,,,,,,,,,,,,,,,,109.75025449999885,115.75121179999951,Trommel,praktisch,"['Trommel', 'praktisch']",restudy_diff,1,"['Bürste', 'Kamera', 'Vase', 'Fahrrad', 'Uhr', 'Flasche', 'Trommel', 'Blume', 'Löffel', 'Stift', 'Jacke', 'Rucksack', 'Brille', 'Lampe', 'Hut', 'Buch', 'Tasse', 'Würfel', 'Kiste', 'Kette', 'Hammer', 'Schlüssel']","['breit', 'winzig', 'sportlich', 'groß', 'kratzig', 'hohl', 'praktisch']",2,1.6204207000009774,None,,,,,,,,,,,,,,,,,,,,,,,,,,,,,,,,,,,,,,,,,,,,,,,,,,,,,,,,,,,,,,,,,,,,,1,2024-01-17_13h34.13.131,watkins1,2023.2.3,99.72993134627866,94,2024-01-17 13h34.22.865169 +0000,
,,,,,,,7,0,7,0,,,,,,,,,,,,,,,,,115.76074639999933,,,,,,,,,,115.75167739999961,116.24271099999896,,,2,3.1117772000015975,,,,,,,,,,,,,,,,,,,,,116.24272169999858,122.25189229999887,Blume,blass,"['Blume', 'blass']",restudy_diff,1,"['Bürste', 'Kamera', 'Vase', 'Fahrrad', 'Uhr', 'Flasche', 'Trommel', 'Blume', 'Löffel', 'Stift', 'Jacke', 'Rucksack', 'Brille', 'Lampe', 'Hut', 'Buch', 'Tasse', 'Würfel', 'Kiste', 'Kette', 'Hammer', 'Schlüssel']","['breit', 'winzig', 'sportlich', 'groß', 'kratzig', 'hohl', 'praktisch', 'blass']",2,3.1117772000015975,None,,,,,,,,,,,,,,,,,,,,,,,,,,,,,,,,,,,,,,,,,,,,,,,,,,,,,,,,,,,,,,,,,,,,,1,2024-01-17_13h34.13.131,watkins1,2023.2.3,99.72993134627866,94,2024-01-17 13h34.22.865169 +0000,
,,,,,,,8,0,8,0,,,,,,,,,,,,,,,,,122.26135929999873,,,,,,,,,,122.25236880000011,122.74350849999973,,,2,2.0507517000005464,,,,,,,,,,,,,,,,,,,,,122.74351919999935,128.74856589999945,Löffel,kalt,"['Löffel', 'kalt']",restudy_diff,1,"['Bürste', 'Kamera', 'Vase', 'Fahrrad', 'Uhr', 'Flasche', 'Trommel', 'Blume', 'Löffel', 'Stift', 'Jacke', 'Rucksack', 'Brille', 'Lampe', 'Hut', 'Buch', 'Tasse', 'Würfel', 'Kiste', 'Kette', 'Hammer', 'Schlüssel']","['breit', 'winzig', 'sportlich', 'groß', 'kratzig', 'hohl', 'praktisch', 'blass', 'kalt']",2,2.0507517000005464,None,,,,,,,,,,,,,,,,,,,,,,,,,,,,,,,,,,,,,,,,,,,,,,,,,,,,,,,,,,,,,,,,,,,,,1,2024-01-17_13h34.13.131,watkins1,2023.2.3,99.72993134627866,94,2024-01-17 13h34.22.865169 +0000,
,,,,,,,9,0,9,0,,,,,,,,,,,,,,,,,128.75803279999855,,,,,,,,,,128.7490414999993,129.24019269999917,,,1,1.209892700000637,,,,,,,,,,,,,,,,,,,,,129.2402031999991,135.24949409999863,Stift,hässlich,"['Stift', 'hässlich']",restudy_diff,1,"['Bürste', 'Kamera', 'Vase', 'Fahrrad', 'Uhr', 'Flasche', 'Trommel', 'Blume', 'Löffel', 'Stift', 'Jacke', 'Rucksack', 'Brille', 'Lampe', 'Hut', 'Buch', 'Tasse', 'Würfel', 'Kiste', 'Kette', 'Hammer', 'Schlüssel']","['breit', 'winzig', 'sportlich', 'groß', 'kratzig', 'hohl', 'praktisch', 'blass', 'kalt', 'hässlich']",1,1.209892700000637,None,,,,,,,,,,,,,,,,,,,,,,,,,,,,,,,,,,,,,,,,,,,,,,,,,,,,,,,,,,,,,,,,,,,,,1,2024-01-17_13h34.13.131,watkins1,2023.2.3,99.72993134627866,94,2024-01-17 13h34.22.865169 +0000,
,,,,,,,10,0,10,0,,,,,,,,,,,,,,,,,135.25905359999888,,,,,,,,,,135.25005539999984,135.74102959999982,,,3,1.589370499999859,,,,,,,,,,,,,,,,,,,,,135.74104019999868,141.7423190999998,Jacke,hübsch,"['Jacke', 'hübsch']",control,1,"['Bürste', 'Kamera', 'Vase', 'Fahrrad', 'Uhr', 'Flasche', 'Trommel', 'Blume', 'Löffel', 'Stift', 'Jacke', 'Rucksack', 'Brille', 'Lampe', 'Hut', 'Buch', 'Tasse', 'Würfel', 'Kiste', 'Kette', 'Hammer', 'Schlüssel']","['breit', 'winzig', 'sportlich', 'groß', 'kratzig', 'hohl', 'praktisch', 'blass', 'kalt', 'hässlich', 'hübsch']",3,1.589370499999859,None,,,,,,,,,,,,,,,,,,,,,,,,,,,,,,,,,,,,,,,,,,,,,,,,,,,,,,,,,,,,,,,,,,,,,1,2024-01-17_13h34.13.131,watkins1,2023.2.3,99.72993134627866,94,2024-01-17 13h34.22.865169 +0000,
,,,,,,,11,0,11,0,,,,,,,,,,,,,,,,,141.75176139999894,,,,,,,,,,141.74277819999952,142.2338200999984,,,1,2.6246637999993254,,,,,,,,,,,,,,,,,,,,,142.23383079999985,148.24301039999955,Rucksack,durchsichtig,"['Rucksack', 'durchsichtig']",restudy_diff,1,"['Bürste', 'Kamera', 'Vase', 'Fahrrad', 'Uhr', 'Flasche', 'Trommel', 'Blume', 'Löffel', 'Stift', 'Jacke', 'Rucksack', 'Brille', 'Lampe', 'Hut', 'Buch', 'Tasse', 'Würfel', 'Kiste', 'Kette', 'Hammer', 'Schlüssel']","['breit', 'winzig', 'sportlich', 'groß', 'kratzig', 'hohl', 'praktisch', 'blass', 'kalt', 'hässlich', 'hübsch', 'durchsichtig']",1,2.6246637999993254,None,,,,,,,,,,,,,,,,,,,,,,,,,,,,,,,,,,,,,,,,,,,,,,,,,,,,,,,,,,,,,,,,,,,,,1,2024-01-17_13h34.13.131,watkins1,2023.2.3,99.72993134627866,94,2024-01-17 13h34.22.865169 +0000,
,,,,,,,12,0,12,0,,,,,,,,,,,,,,,,,148.25244779999957,,,,,,,,,,148.24346929999956,148.7343654999986,,,1,2.2450085999989824,,,,,,,,,,,,,,,,,,,,,148.73437659999945,154.73748389999855,Brille,rustikal,"['Brille', 'rustikal']",restudy_diff,1,"['Bürste', 'Kamera', 'Vase', 'Fahrrad', 'Uhr', 'Flasche', 'Trommel', 'Blume', 'Löffel', 'Stift', 'Jacke', 'Rucksack', 'Brille', 'Lampe', 'Hut', 'Buch', 'Tasse', 'Würfel', 'Kiste', 'Kette', 'Hammer', 'Schlüssel']","['breit', 'winzig', 'sportlich', 'groß', 'kratzig', 'hohl', 'praktisch', 'blass', 'kalt', 'hässlich', 'hübsch', 'durchsichtig', 'rustikal']",1,2.2450085999989824,None,,,,,,,,,,,,,,,,,,,,,,,,,,,,,,,,,,,,,,,,,,,,,,,,,,,,,,,,,,,,,,,,,,,,,1,2024-01-17_13h34.13.131,watkins1,2023.2.3,99.72993134627866,94,2024-01-17 13h34.22.865169 +0000,
,,,,,,,13,0,13,0,,,,,,,,,,,,,,,,,154.74699929999952,,,,,,,,,,154.7379551999984,155.22907849999865,,,1,1.06264149999879,,,,,,,,,,,,,,,,,,,,,155.22908879999886,161.23844610000015,Lampe,nass,"['Lampe', 'nass']",restudy_diff,1,"['Bürste', 'Kamera', 'Vase', 'Fahrrad', 'Uhr', 'Flasche', 'Trommel', 'Blume', 'Löffel', 'Stift', 'Jacke', 'Rucksack', 'Brille', 'Lampe', 'Hut', 'Buch', 'Tasse', 'Würfel', 'Kiste', 'Kette', 'Hammer', 'Schlüssel']","['breit', 'winzig', 'sportlich', 'groß', 'kratzig', 'hohl', 'praktisch', 'blass', 'kalt', 'hässlich', 'hübsch', 'durchsichtig', 'rustikal', 'nass']",1,1.06264149999879,None,,,,,,,,,,,,,,,,,,,,,,,,,,,,,,,,,,,,,,,,,,,,,,,,,,,,,,,,,,,,,,,,,,,,,1,2024-01-17_13h34.13.131,watkins1,2023.2.3,99.72993134627866,94,2024-01-17 13h34.22.865169 +0000,
,,,,,,,14,0,14,0,,,,,,,,,,,,,,,,,161.24794479999946,,,,,,,,,,161.23891299999923,161.72995079999964,,,2,1.417271599999367,,,,,,,,,,,,,,,,,,,,,161.7299613999985,167.73338349999904,Hut,dick,"['Hut', 'dick']",restudy_diff,1,"['Bürste', 'Kamera', 'Vase', 'Fahrrad', 'Uhr', 'Flasche', 'Trommel', 'Blume', 'Löffel', 'Stift', 'Jacke', 'Rucksack', 'Brille', 'Lampe', 'Hut', 'Buch', 'Tasse', 'Würfel', 'Kiste', 'Kette', 'Hammer', 'Schlüssel']","['breit', 'winzig', 'sportlich', 'groß', 'kratzig', 'hohl', 'praktisch', 'blass', 'kalt', 'hässlich', 'hübsch', 'durchsichtig', 'rustikal', 'nass', 'dick']",2,1.417271599999367,None,,,,,,,,,,,,,,,,,,,,,,,,,,,,,,,,,,,,,,,,,,,,,,,,,,,,,,,,,,,,,,,,,,,,,1,2024-01-17_13h34.13.131,watkins1,2023.2.3,99.72993134627866,94,2024-01-17 13h34.22.865169 +0000,
,,,,,,,15,0,15,0,,,,,,,,,,,,,,,,,167.74291449999873,,,,,,,,,,167.7338581999993,168.22498709999854,,,2,1.2587989999992715,,,,,,,,,,,,,,,,,,,,,168.2249972999998,174.22639189999973,Buch,klobig,"['Buch', 'klobig']",control,1,"['Bürste', 'Kamera', 'Vase', 'Fahrrad', 'Uhr', 'Flasche', 'Trommel', 'Blume', 'Löffel', 'Stift', 'Jacke', 'Rucksack', 'Brille', 'Lampe', 'Hut', 'Buch', 'Tasse', 'Würfel', 'Kiste', 'Kette', 'Hammer', 'Schlüssel']","['breit', 'winzig', 'sportlich', 'groß', 'kratzig', 'hohl', 'praktisch', 'blass', 'kalt', 'hässlich', 'hübsch', 'durchsichtig', 'rustikal', 'nass', 'dick', 'klobig']",2,1.2587989999992715,None,,,,,,,,,,,,,,,,,,,,,,,,,,,,,,,,,,,,,,,,,,,,,,,,,,,,,,,,,,,,,,,,,,,,,1,2024-01-17_13h34.13.131,watkins1,2023.2.3,99.72993134627866,94,2024-01-17 13h34.22.865169 +0000,
,,,,,,,16,0,16,0,,,,,,,,,,,,,,,,,174.23588399999971,,,,,,,,,,174.22686429999885,174.71780519999993,,,2,1.8936284000010346,,,,,,,,,,,,,,,,,,,,,174.71781589999955,180.72818279999956,Tasse,schmutzig,"['Tasse', 'schmutzig']",restudy_diff,1,"['Bürste', 'Kamera', 'Vase', 'Fahrrad', 'Uhr', 'Flasche', 'Trommel', 'Blume', 'Löffel', 'Stift', 'Jacke', 'Rucksack', 'Brille', 'Lampe', 'Hut', 'Buch', 'Tasse', 'Würfel', 'Kiste', 'Kette', 'Hammer', 'Schlüssel']","['breit', 'winzig', 'sportlich', 'groß', 'kratzig', 'hohl', 'praktisch', 'blass', 'kalt', 'hässlich', 'hübsch', 'durchsichtig', 'rustikal', 'nass', 'dick', 'klobig', 'schmutzig']",2,1.8936284000010346,None,,,,,,,,,,,,,,,,,,,,,,,,,,,,,,,,,,,,,,,,,,,,,,,,,,,,,,,,,,,,,,,,,,,,,1,2024-01-17_13h34.13.131,watkins1,2023.2.3,99.72993134627866,94,2024-01-17 13h34.22.865169 +0000,
,,,,,,,17,0,17,0,,,,,,,,,,,,,,,,,180.73772699999972,,,,,,,,,,180.72864889999983,181.21974649999902,,,1,1.3111031999997067,,,,,,,,,,,,,,,,,,,,,181.21975679999923,187.22165099999984,Würfel,sauber,"['Würfel', 'sauber']",restudy_diff,1,"['Bürste', 'Kamera', 'Vase', 'Fahrrad', 'Uhr', 'Flasche', 'Trommel', 'Blume', 'Löffel', 'Stift', 'Jacke', 'Rucksack', 'Brille', 'Lampe', 'Hut', 'Buch', 'Tasse', 'Würfel', 'Kiste', 'Kette', 'Hammer', 'Schlüssel']","['breit', 'winzig', 'sportlich', 'groß', 'kratzig', 'hohl', 'praktisch', 'blass', 'kalt', 'hässlich', 'hübsch', 'durchsichtig', 'rustikal', 'nass', 'dick', 'klobig', 'schmutzig', 'sauber']",1,1.3111031999997067,None,,,,,,,,,,,,,,,,,,,,,,,,,,,,,,,,,,,,,,,,,,,,,,,,,,,,,,,,,,,,,,,,,,,,,1,2024-01-17_13h34.13.131,watkins1,2023.2.3,99.72993134627866,94,2024-01-17 13h34.22.865169 +0000,
,,,,,,,18,0,18,0,,,,,,,,,,,,,,,,,187.23116819999996,,,,,,,,,,187.22211699999934,187.71318109999993,,,3,2.25036209999962,,,,,,,,,,,,,,,,,,,,,187.71319199999925,193.7182488999988,Kiste,kurz,"['Kiste', 'kurz']",control,1,"['Bürste', 'Kamera', 'Vase', 'Fahrrad', 'Uhr', 'Flasche', 'Trommel', 'Blume', 'Löffel', 'Stift', 'Jacke', 'Rucksack', 'Brille', 'Lampe', 'Hut', 'Buch', 'Tasse', 'Würfel', 'Kiste', 'Kette', 'Hammer', 'Schlüssel']","['breit', 'winzig', 'sportlich', 'groß', 'kratzig', 'hohl', 'praktisch', 'blass', 'kalt', 'hässlich', 'hübsch', 'durchsichtig', 'rustikal', 'nass', 'dick', 'klobig', 'schmutzig', 'sauber', 'kurz']",3,2.25036209999962,None,,,,,,,,,,,,,,,,,,,,,,,,,,,,,,,,,,,,,,,,,,,,,,,,,,,,,,,,,,,,,,,,,,,,,1,2024-01-17_13h34.13.131,watkins1,2023.2.3,99.72993134627866,94,2024-01-17 13h34.22.865169 +0000,
,,,,,,,19,0,19,0,,,,,,,,,,,,,,,,,193.72771979999925,,,,,,,,,,193.71872559999974,194.20982299999923,,,3,1.2656356999996206,,,,,,,,,,,,,,,,,,,,,194.20983349999915,200.21322079999845,Kette,gepunktet,"['Kette', 'gepunktet']",restudy_diff,1,"['Bürste', 'Kamera', 'Vase', 'Fahrrad', 'Uhr', 'Flasche', 'Trommel', 'Blume', 'Löffel', 'Stift', 'Jacke', 'Rucksack', 'Brille', 'Lampe', 'Hut', 'Buch', 'Tasse', 'Würfel', 'Kiste', 'Kette', 'Hammer', 'Schlüssel']","['breit', 'winzig', 'sportlich', 'groß', 'kratzig', 'hohl', 'praktisch', 'blass', 'kalt', 'hässlich', 'hübsch', 'durchsichtig', 'rustikal', 'nass', 'dick', 'klobig', 'schmutzig', 'sauber', 'kurz', 'gepunktet']",3,1.2656356999996206,None,,,,,,,,,,,,,,,,,,,,,,,,,,,,,,,,,,,,,,,,,,,,,,,,,,,,,,,,,,,,,,,,,,,,,1,2024-01-17_13h34.13.131,watkins1,2023.2.3,99.72993134627866,94,2024-01-17 13h34.22.865169 +0000,
,,,,,,,20,0,20,0,,,,,,,,,,,,,,,,,200.22272479999992,,,,,,,,,,200.21368789999906,200.70473129999846,,,3,0.9628479000002699,,,,,,,,,,,,,,,,,,,,,200.70474189999914,206.7136692999993,Hammer,gut,"['Hammer', 'gut']",restudy_diff,1,"['Bürste', 'Kamera', 'Vase', 'Fahrrad', 'Uhr', 'Flasche', 'Trommel', 'Blume', 'Löffel', 'Stift', 'Jacke', 'Rucksack', 'Brille', 'Lampe', 'Hut', 'Buch', 'Tasse', 'Würfel', 'Kiste', 'Kette', 'Hammer', 'Schlüssel']","['breit', 'winzig', 'sportlich', 'groß', 'kratzig', 'hohl', 'praktisch', 'blass', 'kalt', 'hässlich', 'hübsch', 'durchsichtig', 'rustikal', 'nass', 'dick', 'klobig', 'schmutzig', 'sauber', 'kurz', 'gepunktet', 'gut']",3,0.9628479000002699,None,,,,,,,,,,,,,,,,,,,,,,,,,,,,,,,,,,,,,,,,,,,,,,,,,,,,,,,,,,,,,,,,,,,,,1,2024-01-17_13h34.13.131,watkins1,2023.2.3,99.72993134627866,94,2024-01-17 13h34.22.865169 +0000,
,,,,,,,21,0,21,0,,,,,,,,,,,,,,,,,206.72317459999977,,,,,,,,,,206.71416409999983,207.2054780999988,,,1,1.3578333999994356,,,,,,,,,,,,,,,,,,,,,207.20548889999918,213.20820469999853,Schlüssel,biegsam,"['Schlüssel', 'biegsam']",control,1,"['Bürste', 'Kamera', 'Vase', 'Fahrrad', 'Uhr', 'Flasche', 'Trommel', 'Blume', 'Löffel', 'Stift', 'Jacke', 'Rucksack', 'Brille', 'Lampe', 'Hut', 'Buch', 'Tasse', 'Würfel', 'Kiste', 'Kette', 'Hammer', 'Schlüssel']","['breit', 'winzig', 'sportlich', 'groß', 'kratzig', 'hohl', 'praktisch', 'blass', 'kalt', 'hässlich', 'hübsch', 'durchsichtig', 'rustikal', 'nass', 'dick', 'klobig', 'schmutzig', 'sauber', 'kurz', 'gepunktet', 'gut', 'biegsam']",1,1.3578333999994356,None,,,,,,,,,,,,,,,,,,,,,,,,,,,,,,,,,,,,,,,,,,,,,,,,,,,,,,,,,,,,,,,,,,,,,1,2024-01-17_13h34.13.131,watkins1,2023.2.3,99.72993134627866,94,2024-01-17 13h34.22.865169 +0000,
,,,,,,,,,,,0,0,0,0,,,,,,,,,,,,,213.2176982000001,,,,,,,,,,213.20902659999956,213.69980810000015,,,[],[],,,,,,,,,,,,None,None,,,,,,,,,,Telefon,robust,"['Telefon', 'robust']",control,1,,,,,,213.20895159999964,213.20900119999897,"['Telefon', 'Tasse', 'Kamera', 'Schere', 'Löffel', 'Geige', 'Hut', 'Tasche', 'Brille', 'Kette', 'Ring', 'Kerze', 'Trommel', 'Hammer', 'Blume', 'Fahrrad', 'Rucksack', 'Vase', 'Socke', 'Lampe', 'Eimer', 'Stift', 'Würfel']",213.69981899999948,219.70896240000002,2,1.7590268000003562,None,219.7093516999994,219.7120242000001,None,219.71217149999939,219.71479309999995,None,219.71493909999845,219.7161662999988,219.7161784,219.71734849999848,,,,,,,,,,,,,,,,,,,,,,,,,,,,,,,,,,,,,,,,,,,,,,,,,,,1,2024-01-17_13h34.13.131,watkins1,2023.2.3,99.72993134627866,94,2024-01-17 13h34.22.865169 +0000,
,,,,,,,,,,,1,0,1,0,,,,,,,,,,,,,219.72091050000017,,,,,,,,,,219.71761519999927,220.21410839999953,,,2,2.3694777000000613,,,,,,,,,,,,None,None,,,,,,,,,,Tasse,niedlich,"['Tasse', 'niedlich']",restudy_diff,1,,,,,,219.71755139999914,219.71758999999838,"['Telefon', 'Tasse', 'Kamera', 'Schere', 'Löffel', 'Geige', 'Hut', 'Tasche', 'Brille', 'Kette', 'Ring', 'Kerze', 'Trommel', 'Hammer', 'Blume', 'Fahrrad', 'Rucksack', 'Vase', 'Socke', 'Lampe', 'Eimer', 'Stift', 'Würfel']",220.21411939999962,220.2157858999999,None,,,220.21596080000018,220.21744260000014,None,220.2175458999991,226.22529810000015,2,226.225647199999,226.22693089999848,226.22694319999937,226.2281865999994,2.3694777000000613,None,,,,,,,,,,,,,,,,,,,,,,,,,,,,,,,,,,,,,,,,,,,,,,,,,1,2024-01-17_13h34.13.131,watkins1,2023.2.3,99.72993134627866,94,2024-01-17 13h34.22.865169 +0000,
,,,,,,,,,,,2,0,2,0,,,,,,,,,,,,,226.23477139999886,,,,,,,,,,226.22845809999853,226.72685699999965,,,2,2.591280699998606,,,,,,,,,,,,None,None,,,,,,,,,,Kamera,lustig,"['Kamera', 'lustig']",restudy_diff,1,,,,,,226.22839359999853,226.2284313,"['Telefon', 'Tasse', 'Kamera', 'Schere', 'Löffel', 'Geige', 'Hut', 'Tasche', 'Brille', 'Kette', 'Ring', 'Kerze', 'Trommel', 'Hammer', 'Blume', 'Fahrrad', 'Rucksack', 'Vase', 'Socke', 'Lampe', 'Eimer', 'Stift', 'Würfel']",226.72686799999974,226.7296400999985,None,,,226.72975699999915,226.7324762999997,None,226.73258050000004,232.73871679999866,2,232.73899689999962,232.7403209999993,232.74033289999898,232.7415151999994,2.591280699998606,None,,,,,,,,,,,,,,,,,,,,,,,,,,,,,,,,,,,,,,,,,,,,,,,,,1,2024-01-17_13h34.13.131,watkins1,2023.2.3,99.72993134627866,94,2024-01-17 13h34.22.865169 +0000,
,,,,,,,,,,,3,0,3,0,,,,,,,,,,,,,232.7481904999986,,,,,,,,,,232.74178439999923,233.24036999999953,,,[],[],,,,,,,,,,,,None,None,,,,,,,,,,Schere,bunt,"['Schere', 'bunt']",control,1,,,,,,232.74171969999952,232.7417573999992,"['Telefon', 'Tasse', 'Kamera', 'Schere', 'Löffel', 'Geige', 'Hut', 'Tasche', 'Brille', 'Kette', 'Ring', 'Kerze', 'Trommel', 'Hammer', 'Blume', 'Fahrrad', 'Rucksack', 'Vase', 'Socke', 'Lampe', 'Eimer', 'Stift', 'Würfel']",233.24038109999856,239.2488734999988,3,3.355364199998803,None,239.2491431999988,239.2517871,None,239.25189150000006,239.25431859999844,None,239.25442099999964,239.25562929999978,239.25564089999898,239.25669099999868,,,,,,,,,,,,,,,,,,,,,,,,,,,,,,,,,,,,,,,,,,,,,,,,,,,1,2024-01-17_13h34.13.131,watkins1,2023.2.3,99.72993134627866,94,2024-01-17 13h34.22.865169 +0000,
,,,,,,,,,,,4,0,4,0,,,,,,,,,,,,,239.26036679999925,,,,,,,,,,239.25695779999842,239.7534085999996,,,3,3.5992633999994723,,,,,,,,,,,,None,None,,,,,,,,,,Löffel,lang,"['Löffel', 'lang']",restudy_diff,1,,,,,,239.2568943999995,239.25693299999875,"['Telefon', 'Tasse', 'Kamera', 'Schere', 'Löffel', 'Geige', 'Hut', 'Tasche', 'Brille', 'Kette', 'Ring', 'Kerze', 'Trommel', 'Hammer', 'Blume', 'Fahrrad', 'Rucksack', 'Vase', 'Socke', 'Lampe', 'Eimer', 'Stift', 'Würfel']",239.75341909999952,239.75498829999924,None,,,239.75510289999875,239.75656199999867,None,239.75666490000003,245.76667519999864,3,245.7669578999994,245.76838419999876,245.76839649999965,245.76946589999898,3.5992633999994723,None,,,,,,,,,,,,,,,,,,,,,,,,,,,,,,,,,,,,,,,,,,,,,,,,,1,2024-01-17_13h34.13.131,watkins1,2023.2.3,99.72993134627866,94,2024-01-17 13h34.22.865169 +0000,
,,,,,,,,,,,5,0,5,0,,,,,,,,,,,,,245.7761277999998,,,,,,,,,,245.7697387999997,246.26828979999846,,,[],[],,,,,,,,,,,,None,None,,,,,,,,,,Geige,neu,"['Geige', 'neu']",control,1,,,,,,245.76967299999887,245.76971109999977,"['Telefon', 'Tasse', 'Kamera', 'Schere', 'Löffel', 'Geige', 'Hut', 'Tasche', 'Brille', 'Kette', 'Ring', 'Kerze', 'Trommel', 'Hammer', 'Blume', 'Fahrrad', 'Rucksack', 'Vase', 'Socke', 'Lampe', 'Eimer', 'Stift', 'Würfel']",246.26830079999854,252.27298549999978,3,1.3426350999998249,None,252.27325909999854,252.27583249999952,None,252.27594119999958,252.27848769999946,None,252.278590599999,252.2797617999986,252.27977309999915,252.28077929999927,,,,,,,,,,,,,,,,,,,,,,,,,,,,,,,,,,,,,,,,,,,,,,,,,,,1,2024-01-17_13h34.13.131,watkins1,2023.2.3,99.72993134627866,94,2024-01-17 13h34.22.865169 +0000,
,,,,,,,,,,,6,0,6,0,,,,,,,,,,,,,252.2843886999999,,,,,,,,,,252.28104699999858,252.7774462999987,,,3,1.1594941999992443,,,,,,,,,,,,None,None,,,,,,,,,,Hut,teuer,"['Hut', 'teuer']",restudy_diff,1,,,,,,252.28098279999904,252.28102319999925,"['Telefon', 'Tasse', 'Kamera', 'Schere', 'Löffel', 'Geige', 'Hut', 'Tasche', 'Brille', 'Kette', 'Ring', 'Kerze', 'Trommel', 'Hammer', 'Blume', 'Fahrrad', 'Rucksack', 'Vase', 'Socke', 'Lampe', 'Eimer', 'Stift', 'Würfel']",252.77745789999972,252.7788987999993,None,,,252.7790157999989,252.78031240000018,None,252.78041549999944,258.79094929999883,3,258.7912220999988,258.7924845999987,258.79249679999884,258.79367379999894,1.1594941999992443,None,,,,,,,,,,,,,,,,,,,,,,,,,,,,,,,,,,,,,,,,,,,,,,,,,1,2024-01-17_13h34.13.131,watkins1,2023.2.3,99.72993134627866,94,2024-01-17 13h34.22.865169 +0000,
,,,,,,,,,,,7,0,7,0,,,,,,,,,,,,,258.80039810000017,,,,,,,,,,258.7939521999997,259.2925809999997,,,[],[],,,,,,,,,,,,None,None,,,,,,,,,,Tasche,flauschig,"['Tasche', 'flauschig']",control,1,,,,,,258.7938880999991,258.79392649999863,"['Telefon', 'Tasse', 'Kamera', 'Schere', 'Löffel', 'Geige', 'Hut', 'Tasche', 'Brille', 'Kette', 'Ring', 'Kerze', 'Trommel', 'Hammer', 'Blume', 'Fahrrad', 'Rucksack', 'Vase', 'Socke', 'Lampe', 'Eimer', 'Stift', 'Würfel']",259.29259229999843,265.29323320000003,3,2.1743569999998726,None,265.2935030999997,265.29622989999916,None,265.2963313,265.2994275000001,None,265.2995273999986,265.30078799999865,265.3007994999989,265.3020203999986,,,,,,,,,,,,,,,,,,,,,,,,,,,,,,,,,,,,,,,,,,,,,,,,,,,1,2024-01-17_13h34.13.131,watkins1,2023.2.3,99.72993134627866,94,2024-01-17 13h34.22.865169 +0000,
,,,,,,,,,,,8,0,8,0,,,,,,,,,,,,,265.30565079999906,,,,,,,,,,265.30228219999844,265.7995783999995,,,2,1.729108700001234,,,,,,,,,,,,None,None,,,,,,,,,,Brille,matt,"['Brille', 'matt']",restudy_diff,1,,,,,,265.3022201999993,265.3022583000002,"['Telefon', 'Tasse', 'Kamera', 'Schere', 'Löffel', 'Geige', 'Hut', 'Tasche', 'Brille', 'Kette', 'Ring', 'Kerze', 'Trommel', 'Hammer', 'Blume', 'Fahrrad', 'Rucksack', 'Vase', 'Socke', 'Lampe', 'Eimer', 'Stift', 'Würfel']",265.79958970000007,265.8012209999997,None,,,265.8013362999991,265.80283249999957,None,265.8029370999993,271.8129281999991,2,271.81320659999983,271.8145655999997,271.8145777999998,271.81574289999844,1.729108700001234,None,,,,,,,,,,,,,,,,,,,,,,,,,,,,,,,,,,,,,,,,,,,,,,,,,1,2024-01-17_13h34.13.131,watkins1,2023.2.3,99.72993134627866,94,2024-01-17 13h34.22.865169 +0000,
,,,,,,,,,,,9,0,9,0,,,,,,,,,,,,,271.8223320999987,,,,,,,,,,271.81602219999877,272.31468759999916,,,3,1.6960685000012745,,,,,,,,,,,,None,None,,,,,,,,,,Kette,verspielt,"['Kette', 'verspielt']",restudy_diff,1,,,,,,271.8159513999999,271.8159904999993,"['Telefon', 'Tasse', 'Kamera', 'Schere', 'Löffel', 'Geige', 'Hut', 'Tasche', 'Brille', 'Kette', 'Ring', 'Kerze', 'Trommel', 'Hammer', 'Blume', 'Fahrrad', 'Rucksack', 'Vase', 'Socke', 'Lampe', 'Eimer', 'Stift', 'Würfel']",272.3146987,272.31724009999925,None,,,272.31735630000003,272.31975779999993,None,272.31986419999885,278.3236949000002,3,278.32397049999963,278.32533669999975,278.3253488999999,278.32662589999927,1.6960685000012745,None,,,,,,,,,,,,,,,,,,,,,,,,,,,,,,,,,,,,,,,,,,,,,,,,,1,2024-01-17_13h34.13.131,watkins1,2023.2.3,99.72993134627866,94,2024-01-17 13h34.22.865169 +0000,
,,,,,,,,,,,10,0,10,0,,,,,,,,,,,,,278.3331696999994,,,,,,,,,,278.3268945999989,278.82531559999916,,,[],[],,,,,,,,,,,,None,None,,,,,,,,,,Ring,flach,"['Ring', 'flach']",control,1,,,,,,278.32683050000014,278.3268687999989,"['Telefon', 'Tasse', 'Kamera', 'Schere', 'Löffel', 'Geige', 'Hut', 'Tasche', 'Brille', 'Kette', 'Ring', 'Kerze', 'Trommel', 'Hammer', 'Blume', 'Fahrrad', 'Rucksack', 'Vase', 'Socke', 'Lampe', 'Eimer', 'Stift', 'Würfel']",278.82532679999895,284.83434529999977,2,2.2824803999992582,None,284.83460919999925,284.8370774999985,None,284.83718319999934,284.83956059999946,None,284.83966079999846,284.8406802999998,284.84069159999854,284.84181849999914,,,,,,,,,,,,,,,,,,,,,,,,,,,,,,,,,,,,,,,,,,,,,,,,,,,1,2024-01-17_13h34.13.131,watkins1,2023.2.3,99.72993134627866,94,2024-01-17 13h34.22.865169 +0000,
,,,,,,,,,,,11,0,11,0,,,,,,,,,,,,,284.84550239999953,,,,,,,,,,284.84208129999934,285.3380813999993,,,[],[],,,,,,,,,,,,None,None,,,,,,,,,,Kerze,glatt,"['Kerze', 'glatt']",control,1,,,,,,284.8420188,284.8420576999997,"['Telefon', 'Tasse', 'Kamera', 'Schere', 'Löffel', 'Geige', 'Hut', 'Tasche', 'Brille', 'Kette', 'Ring', 'Kerze', 'Trommel', 'Hammer', 'Blume', 'Fahrrad', 'Rucksack', 'Vase', 'Socke', 'Lampe', 'Eimer', 'Stift', 'Würfel']",285.3380925999991,291.3392525999989,3,1.553555899999992,None,291.3395327999988,291.34220409999944,None,291.3423090999986,291.34483649999856,None,291.3449400999998,291.34610599999905,291.3461177999998,291.3472920999993,,,,,,,,,,,,,,,,,,,,,,,,,,,,,,,,,,,,,,,,,,,,,,,,,,,1,2024-01-17_13h34.13.131,watkins1,2023.2.3,99.72993134627866,94,2024-01-17 13h34.22.865169 +0000,
,,,,,,,,,,,12,0,12,0,,,,,,,,,,,,,291.3508879000001,,,,,,,,,,291.34756149999885,291.84403479999855,,,3,2.900597399999242,,,,,,,,,,,,None,None,,,,,,,,,,Trommel,kaputt,"['Trommel', 'kaputt']",restudy_diff,1,,,,,,291.3474986000001,291.3475370999986,"['Telefon', 'Tasse', 'Kamera', 'Schere', 'Löffel', 'Geige', 'Hut', 'Tasche', 'Brille', 'Kette', 'Ring', 'Kerze', 'Trommel', 'Hammer', 'Blume', 'Fahrrad', 'Rucksack', 'Vase', 'Socke', 'Lampe', 'Eimer', 'Stift', 'Würfel']",291.84404539999923,291.8456565999986,None,,,291.8457712999989,291.8472527999984,None,291.8473576999986,297.8565654999984,3,297.8568378,297.8581493999991,297.8581610000001,297.8593252999999,2.900597399999242,None,,,,,,,,,,,,,,,,,,,,,,,,,,,,,,,,,,,,,,,,,,,,,,,,,1,2024-01-17_13h34.13.131,watkins1,2023.2.3,99.72993134627866,94,2024-01-17 13h34.22.865169 +0000,
,,,,,,,,,,,13,0,13,0,,,,,,,,,,,,,297.86603189999914,,,,,,,,,,297.8595932999997,298.357936299999,,,1,1.336102100000062,,,,,,,,,,,,None,None,,,,,,,,,,Hammer,zart,"['Hammer', 'zart']",restudy_diff,1,,,,,,297.85953059999883,297.85956780000015,"['Telefon', 'Tasse', 'Kamera', 'Schere', 'Löffel', 'Geige', 'Hut', 'Tasche', 'Brille', 'Kette', 'Ring', 'Kerze', 'Trommel', 'Hammer', 'Blume', 'Fahrrad', 'Rucksack', 'Vase', 'Socke', 'Lampe', 'Eimer', 'Stift', 'Würfel']",298.3579472000001,298.3608239999994,None,,,298.3609407999993,298.36352850000003,None,298.36363509999865,304.3681861999994,1,304.3684655999987,304.36976199999845,304.36977399999887,304.3707969999996,1.336102100000062,None,,,,,,,,,,,,,,,,,,,,,,,,,,,,,,,,,,,,,,,,,,,,,,,,,1,2024-01-17_13h34.13.131,watkins1,2023.2.3,99.72993134627866,94,2024-01-17 13h34.22.865169 +0000,
,,,,,,,,,,,14,0,14,0,,,,,,,,,,,,,304.3776667000002,,,,,,,,,,304.371067099999,304.869773299999,,,3,1.4726905999996234,,,,,,,,,,,,None,None,,,,,,,,,,Blume,dunkel,"['Blume', 'dunkel']",restudy_diff,1,,,,,,304.37100250000003,304.37103939999906,"['Telefon', 'Tasse', 'Kamera', 'Schere', 'Löffel', 'Geige', 'Hut', 'Tasche', 'Brille', 'Kette', 'Ring', 'Kerze', 'Trommel', 'Hammer', 'Blume', 'Fahrrad', 'Rucksack', 'Vase', 'Socke', 'Lampe', 'Eimer', 'Stift', 'Würfel']",304.86978420000014,304.87244069999906,None,,,304.87255769999865,304.8749859999989,None,304.87509259999933,310.88091729999906,3,310.8812010999991,310.8824878999985,310.88249969999924,310.8836797999993,1.4726905999996234,None,,,,,,,,,,,,,,,,,,,,,,,,,,,,,,,,,,,,,,,,,,,,,,,,,1,2024-01-17_13h34.13.131,watkins1,2023.2.3,99.72993134627866,94,2024-01-17 13h34.22.865169 +0000,
,,,,,,,,,,,15,0,15,0,,,,,,,,,,,,,310.89043349999884,,,,,,,,,,310.8839474999986,311.38222009999845,,,3,1.463627600000109,,,,,,,,,,,,None,None,,,,,,,,,,Fahrrad,strahlend,"['Fahrrad', 'strahlend']",restudy_diff,1,,,,,,310.8838836999985,310.88392139999996,"['Telefon', 'Tasse', 'Kamera', 'Schere', 'Löffel', 'Geige', 'Hut', 'Tasche', 'Brille', 'Kette', 'Ring', 'Kerze', 'Trommel', 'Hammer', 'Blume', 'Fahrrad', 'Rucksack', 'Vase', 'Socke', 'Lampe', 'Eimer', 'Stift', 'Würfel']",311.3822309999996,311.38511969999854,None,,,311.3852440999999,311.3878660999999,None,311.3879715999992,317.39273839999987,3,317.39301369999885,317.39435429999867,317.3943657999989,317.3956417999998,1.463627600000109,None,,,,,,,,,,,,,,,,,,,,,,,,,,,,,,,,,,,,,,,,,,,,,,,,,1,2024-01-17_13h34.13.131,watkins1,2023.2.3,99.72993134627866,94,2024-01-17 13h34.22.865169 +0000,
,,,,,,,,,,,16,0,16,0,,,,,,,,,,,,,317.40223779999906,,,,,,,,,,317.39591010000004,317.8943485,,,1,2.9435250999995333,,,,,,,,,,,,None,None,,,,,,,,,,Rucksack,krumm,"['Rucksack', 'krumm']",restudy_diff,1,,,,,,317.39584549999927,317.3958834999994,"['Telefon', 'Tasse', 'Kamera', 'Schere', 'Löffel', 'Geige', 'Hut', 'Tasche', 'Brille', 'Kette', 'Ring', 'Kerze', 'Trommel', 'Hammer', 'Blume', 'Fahrrad', 'Rucksack', 'Vase', 'Socke', 'Lampe', 'Eimer', 'Stift', 'Würfel']",317.8943591999996,317.8973281999988,None,,,317.89744379999865,317.900132499999,None,317.9002352999996,323.90109799999846,1,323.9013817999985,323.90274599999975,323.9027578999994,323.90393760000006,2.9435250999995333,None,,,,,,,,,,,,,,,,,,,,,,,,,,,,,,,,,,,,,,,,,,,,,,,,,1,2024-01-17_13h34.13.131,watkins1,2023.2.3,99.72993134627866,94,2024-01-17 13h34.22.865169 +0000,
,,,,,,,,,,,17,0,17,0,,,,,,,,,,,,,323.9106340999988,,,,,,,,,,323.90420730000005,324.4028597999986,,,3,1.1397916999994777,,,,,,,,,,,,None,None,,,,,,,,,,Vase,elegant,"['Vase', 'elegant']",restudy_diff,1,,,,,,323.90414339999916,323.904181599999,"['Telefon', 'Tasse', 'Kamera', 'Schere', 'Löffel', 'Geige', 'Hut', 'Tasche', 'Brille', 'Kette', 'Ring', 'Kerze', 'Trommel', 'Hammer', 'Blume', 'Fahrrad', 'Rucksack', 'Vase', 'Socke', 'Lampe', 'Eimer', 'Stift', 'Würfel']",324.4028710999992,324.405544199999,None,,,324.40566129999934,324.40804389999903,None,324.4081495999999,330.409024999999,3,330.4092948999987,330.4104862999993,330.410498199999,330.41170109999985,1.1397916999994777,None,,,,,,,,,,,,,,,,,,,,,,,,,,,,,,,,,,,,,,,,,,,,,,,,,1,2024-01-17_13h34.13.131,watkins1,2023.2.3,99.72993134627866,94,2024-01-17 13h34.22.865169 +0000,
,,,,,,,,,,,18,0,18,0,,,,,,,,,,,,,330.41841359999853,,,,,,,,,,330.41196489999857,330.91075739999906,,,[],[],,,,,,,,,,,,None,None,,,,,,,,,,Socke,glänzend,"['Socke', 'glänzend']",control,1,,,,,,330.41190279999864,330.41193979999844,"['Telefon', 'Tasse', 'Kamera', 'Schere', 'Löffel', 'Geige', 'Hut', 'Tasche', 'Brille', 'Kette', 'Ring', 'Kerze', 'Trommel', 'Hammer', 'Blume', 'Fahrrad', 'Rucksack', 'Vase', 'Socke', 'Lampe', 'Eimer', 'Stift', 'Würfel']",330.91076780000003,336.9115548999998,1,3.1331317000003764,None,336.9118466,336.9146499999988,None,336.91475529999843,336.9173342999984,None,336.91743639999913,336.91859619999923,336.9186076999995,336.9198430999986,,,,,,,,,,,,,,,,,,,,,,,,,,,,,,,,,,,,,,,,,,,,,,,,,,,1,2024-01-17_13h34.13.131,watkins1,2023.2.3,99.72993134627866,94,2024-01-17 13h34.22.865169 +0000,
,,,,,,,,,,,19,0,19,0,,,,,,,,,,,,,336.9234175999991,,,,,,,,,,336.9201108999987,337.4167753999991,,,3,1.2155909000011889,,,,,,,,,,,,None,None,,,,,,,,,,Lampe,schwer,"['Lampe', 'schwer']",restudy_diff,1,,,,,,336.92004779999843,336.92008689999966,"['Telefon', 'Tasse', 'Kamera', 'Schere', 'Löffel', 'Geige', 'Hut', 'Tasche', 'Brille', 'Kette', 'Ring', 'Kerze', 'Trommel', 'Hammer', 'Blume', 'Fahrrad', 'Rucksack', 'Vase', 'Socke', 'Lampe', 'Eimer', 'Stift', 'Würfel']",337.4167865999989,337.4184126,None,,,337.41852990000007,337.4199732999987,None,337.4200790999985,343.42504609999924,3,343.4253185999987,343.4266140999989,343.4266315999994,343.42781379999906,1.2155909000011889,None,,,,,,,,,,,,,,,,,,,,,,,,,,,,,,,,,,,,,,,,,,,,,,,,,1,2024-01-17_13h34.13.131,watkins1,2023.2.3,99.72993134627866,94,2024-01-17 13h34.22.865169 +0000,
,,,,,,,,,,,20,0,20,0,,,,,,,,,,,,,343.43447000000015,,,,,,,,,,343.4280792999998,343.9269336999987,,,[],[],,,,,,,,,,,,None,None,,,,,,,,,,Eimer,schlicht,"['Eimer', 'schlicht']",control,1,,,,,,343.4280162999985,343.4280538999992,"['Telefon', 'Tasse', 'Kamera', 'Schere', 'Löffel', 'Geige', 'Hut', 'Tasche', 'Brille', 'Kette', 'Ring', 'Kerze', 'Trommel', 'Hammer', 'Blume', 'Fahrrad', 'Rucksack', 'Vase', 'Socke', 'Lampe', 'Eimer', 'Stift', 'Würfel']",343.92694389999997,349.927636299999,2,1.667771200000061,None,349.92790349999996,349.93091619999905,None,349.9310274999989,349.9335381000001,None,349.93363809999937,349.93476569999984,349.9347772000001,349.935979599999,,,,,,,,,,,,,,,,,,,,,,,,,,,,,,,,,,,,,,,,,,,,,,,,,,,1,2024-01-17_13h34.13.131,watkins1,2023.2.3,99.72993134627866,94,2024-01-17 13h34.22.865169 +0000,
,,,,,,,,,,,21,0,21,0,,,,,,,,,,,,,349.93957379999847,,,,,,,,,,349.93624139999883,350.43305449999934,,,2,5.087242300000071,,,,,,,,,,,,None,None,,,,,,,,,,Stift,nachhaltig,"['Stift', 'nachhaltig']",restudy_diff,1,,,,,,349.9361786999998,349.9362179,"['Telefon', 'Tasse', 'Kamera', 'Schere', 'Löffel', 'Geige', 'Hut', 'Tasche', 'Brille', 'Kette', 'Ring', 'Kerze', 'Trommel', 'Hammer', 'Blume', 'Fahrrad', 'Rucksack', 'Vase', 'Socke', 'Lampe', 'Eimer', 'Stift', 'Würfel']",350.4330661999993,350.4346846999997,None,,,350.43480610000006,350.4362470999986,None,350.43635209999957,356.4464814999992,2,356.44675969999844,356.44815349999953,356.4481653999992,356.4494501999998,5.087242300000071,None,,,,,,,,,,,,,,,,,,,,,,,,,,,,,,,,,,,,,,,,,,,,,,,,,1,2024-01-17_13h34.13.131,watkins1,2023.2.3,99.72993134627866,94,2024-01-17 13h34.22.865169 +0000,
,,,,,,,,,,,22,0,22,0,,,,,,,,,,,,,356.4559475999995,,,,,,,,,,356.44972419999976,356.9481048999987,,,1,1.4258504999997967,,,,,,,,,,,,None,None,,,,,,,,,,Würfel,gestreift,"['Würfel', 'gestreift']",restudy_diff,1,,,,,,356.44966009999916,356.4496980999993,"['Telefon', 'Tasse', 'Kamera', 'Schere', 'Löffel', 'Geige', 'Hut', 'Tasche', 'Brille', 'Kette', 'Ring', 'Kerze', 'Trommel', 'Hammer', 'Blume', 'Fahrrad', 'Rucksack', 'Vase', 'Socke', 'Lampe', 'Eimer', 'Stift', 'Würfel']",356.94811579999987,356.95088029999897,None,,,356.9509954999994,356.9536361999999,None,356.95374249999986,362.9583004999986,1,362.9585688999996,362.9599442999988,362.95995589999984,362.96119969999927,1.4258504999997967,None,,,,,,,,,,,,,,,,,,,,,,,,,,,,,,,,,,,,,,,,,,,,,,,,,1,2024-01-17_13h34.13.131,watkins1,2023.2.3,99.72993134627866,94,2024-01-17 13h34.22.865169 +0000,
,,,,,,,,,,,,,,,,,,,,,,,,,,,,,,,,,,,,,,,,,,,,,,,,,,,,,,,,,,,,,,,,,,,,,1,,,,,,,,,,,,,,,,,,,,,,,,,,,,,,,,,,,,,,,,,,,,,,,,,,,,,,,,,,,,,,,,,,,,,,,,,,1,2024-01-17_13h34.13.131,watkins1,2023.2.3,99.72993134627866,94,2024-01-17 13h34.22.865169 +0000,
(9 x 5) - 9 = 36 ,Correct,button_correct,,,,,,,,,,,,,0,0,0,4,,,,,,,,,379.71240509999916,,,,,,,,378.6819867999984,379.6848739999987,,,,,['button_correct'],[5.169402800000171],,,,,,,,,,,,,,,,,,,,,,,,,,distractorTask,1,,,,,,,,,,,,,,,,,,,,,,,,,,379.7010253999997,379.71240509999916,384.87570499999856,[0.3398148148148148],[-0.4148148148148148],[1],[0],[0],[5.169402800000171],['button_correct'],384.8763838999985,385.8793893999991,,,,,,,,,,,,,,,,,,,,,,,,,,,,,,,,,,,,,1,2024-01-17_13h34.13.131,watkins1,2023.2.3,99.72993134627866,94,2024-01-17 13h34.22.865169 +0000,
(25 : 5) + 5 = 9 ,Incorrect,button_incorrect,,,,,,,,,,,,,0,1,1,6,,,,,,,,,385.88933149999866,,,,,,,,,,,,,,['button_incorrect'],[2.447451000000001],,,,,,,,,,,,,,,,,,,,,,,,,,distractorTask,1,,,,,,,,,,,,,,,,,,,,,,,,,,385.8795848999998,385.88933149999866,388.3298384999998,[-0.3398148148148148],[-0.38796296296296295],[1],[0],[0],[2.447451000000001],['button_incorrect'],388.3302223999999,389.33377010000004,,,,,,,,,,,,,,,,,,,,,,,,,,,,,,,,,,,,,1,2024-01-17_13h34.13.131,watkins1,2023.2.3,99.72993134627866,94,2024-01-17 13h34.22.865169 +0000,
(6 x 3) + 10 = 27 ,Incorrect,button_incorrect,,,,,,,,,,,,,0,2,2,8,,,,,,,,,389.3437765999988,,,,,,,,,,,,,,['button_incorrect'],[2.5483021999989433],,,,,,,,,,,,,,,,,,,,,,,,,,distractorTask,1,,,,,,,,,,,,,,,,,,,,,,,,,,389.3339643999989,389.3437765999988,391.8852827999999,[-0.34444444444444444],[-0.4],[1],[0],[0],[2.5483021999989433],['button_incorrect'],391.88570789999903,392.888762999999,,,,,,,,,,,,,,,,,,,,,,,,,,,,,,,,,,,,,1,2024-01-17_13h34.13.131,watkins1,2023.2.3,99.72993134627866,94,2024-01-17 13h34.22.865169 +0000,
(80 : 10) + 9 = 17 ,Correct,button_correct,,,,,,,,,,,,,0,3,3,3,,,,,,,,,392.89884659999916,,,,,,,,,,,,,,['button_correct'],[4.466315300000133],,,,,,,,,,,,,,,,,,,,,,,,,,distractorTask,1,,,,,,,,,,,,,,,,,,,,,,,,,,392.8889571999989,392.89884659999916,397.35805139999866,[0.4185185185185185],[-0.38981481481481484],[1],[0],[0],[4.466315300000133],['button_correct'],397.3584314,398.36195939999925,,,,,,,,,,,,,,,,,,,,,,,,,,,,,,,,,,,,,1,2024-01-17_13h34.13.131,watkins1,2023.2.3,99.72993134627866,94,2024-01-17 13h34.22.865169 +0000,
(2 x 5) + 3 = 13 ,Correct,button_correct,,,,,,,,,,,,,0,4,4,2,,,,,,,,,398.37194549999913,,,,,,,,,,,,,,['button_correct'],[2.3181607000005897],,,,,,,,,,,,,,,,,,,,,,,,,,distractorTask,1,,,,,,,,,,,,,,,,,,,,,,,,,,398.3621518,398.37194549999913,400.6820310999992,[0.31851851851851853],[-0.4101851851851852],[1],[0],[0],[2.3181607000005897],['button_correct'],400.6824199999992,401.6858573999998,,,,,,,,,,,,,,,,,,,,,,,,,,,,,,,,,,,,,1,2024-01-17_13h34.13.131,watkins1,2023.2.3,99.72993134627866,94,2024-01-17 13h34.22.865169 +0000,
(54 : 6) - 10 = 0 ,Incorrect,button_incorrect,,,,,,,,,,,,,0,5,5,5,,,,,,,,,401.6958378999989,,,,,,,,,,,,,,['button_incorrect'],[3.081390999999712],,,,,,,,,,,,,,,,,,,,,,,,,,distractorTask,1,,,,,,,,,,,,,,,,,,,,,,,,,,401.6860586999992,401.6958378999989,404.76977029999944,[-0.3527777777777778],[-0.4148148148148148],[1],[0],[0],[3.081390999999712],['button_incorrect'],404.77015869999923,405.77348279999933,,,,,,,,,,,,,,,,,,,,,,,,,,,,,,,,,,,,,1,2024-01-17_13h34.13.131,watkins1,2023.2.3,99.72993134627866,94,2024-01-17 13h34.22.865169 +0000,
(40 : 5) + 8 = 15 ,Incorrect,button_incorrect,,,,,,,,,,,,,0,6,6,7,,,,,,,,,405.78350489999866,,,,,,,,,,,,,,['button_incorrect'],[2.8504520999995293],,,,,,,,,,,,,,,,,,,,,,,,,,distractorTask,1,,,,,,,,,,,,,,,,,,,,,,,,,,405.77368119999846,405.78350489999866,408.62588439999854,[-0.40370370370370373],[-0.387037037037037],[1],[0],[0],[2.8504520999995293],['button_incorrect'],408.6262711999989,409.62951299999986,,,,,,,,,,,,,,,,,,,,,,,,,,,,,,,,,,,,,1,2024-01-17_13h34.13.131,watkins1,2023.2.3,99.72993134627866,94,2024-01-17 13h34.22.865169 +0000,
(7 x 6) + 9 = 48 ,Incorrect,button_incorrect,,,,,,,,,,,,,0,7,7,9,,,,,,,,,409.63943259999905,,,,,,,,,,,,,,['button_incorrect'],[4.8185515999994095],,,,,,,,,,,,,,,,,,,,,,,,,,distractorTask,1,,,,,,,,,,,,,,,,,,,,,,,,,,409.62971969999853,409.63943259999905,414.45000569999866,[-0.41944444444444445],[-0.3851851851851852],[1],[0],[0],[4.8185515999994095],['button_incorrect'],414.4503869,415.45378619999974,,,,,,,,,,,,,,,,,,,,,,,,,,,,,,,,,,,,,1,2024-01-17_13h34.13.131,watkins1,2023.2.3,99.72993134627866,94,2024-01-17 13h34.22.865169 +0000,
(4 : 2) + 4 = 6 ,Correct,button_correct,,,,,,,,,,,,,0,8,8,1,,,,,,,,,415.4638619999987,,,,,,,,,,,,,,['button_correct'],[2.1676186000004236],,,,,,,,,,,,,,,,,,,,,,,,,,distractorTask,1,,,,,,,,,,,,,,,,,,,,,,,,,,415.4539797999987,415.4638619999987,417.62331149999955,[0.3861111111111111],[-0.41574074074074074],[1],[0],[0],[2.1676186000004236],['button_correct'],417.6236966999986,418.6270820999998,,,,,,,,,,,,,,,,,,,,,,,,,,,,,,,,,,,,,1,2024-01-17_13h34.13.131,watkins1,2023.2.3,99.72993134627866,94,2024-01-17 13h34.22.865169 +0000,
(28 : 7) - 3 = 1 ,Correct,button_correct,,,,,,,,,,,,,0,9,9,0,,,,,,,,,418.63706659999843,,,,,,,,,,,,,,['button_incorrect'],[6.435443700000178],,,,,,,,,,,,,,,,,,,,,,,,,,distractorTask,1,,,,,,,,,,,,,,,,,,,,,,,,,,418.6272780999989,418.63706659999843,425.06446009999854,[-0.3],[-0.39814814814814814],[1],[0],[0],[6.435443700000178],['button_incorrect'],425.0648497000002,426.06832049999866,,,,,,,,,,,,,,,,,,,,,,,,,,,,,,,,,,,,,1,2024-01-17_13h34.13.131,watkins1,2023.2.3,99.72993134627866,94,2024-01-17 13h34.22.865169 +0000,
,,,,,,,,,,,,,,,,,,,,,,,,,,,,,,,,,,,,,,,,,,,,,,,,,,,,,,,,,,,,,,,,,,,,,1,,,,,,,,,,,,,,,,,,,,,,,,,,,,,,,,,,,,,,,,,,,,,,,,,,,,,,,,,,,,,,,,,,,,,,,,,,1,2024-01-17_13h34.13.131,watkins1,2023.2.3,99.72993134627866,94,2024-01-17 13h34.22.865169 +0000,
,,,,,,,,,,,,,,,,,,,0,0,0,0,,,,,445.4197351999992,,,,,,,,,,,,,,Jacke,7.244399600000179,,,,,,,,,,,,5.442104699999618,None,,,,,,,,,,,,,freeRecallSub,1,,,,,,,,,,,,,,,,,,,,,,,,,,,,,,,,,,,,,,445.41089490000013,445.4197351999992,445.4197351999992,452.67027830000006,return,7.244399600000179,None,Jacke,"[0.08425925925925926, -0.6916666666666667, -0.02962962962962963]","[0.046296296296296294, 0.23425925925925925, 0.05092592592592592]","[1, 1, 1]","[0, 0, 0]","[0, 0, 0]","[1.685767400000259, 3.1120226999992155, 4.286818000000494]",[],,,,,,,,,,,,,,,,,,,,,,1,2024-01-17_13h34.13.131,watkins1,2023.2.3,99.72993134627866,94,2024-01-17 13h34.22.865169 +0000,
,,,,,,,,,,,,,,,,,,,1,0,1,0,,,,,452.6823151999997,,,,,,,,,,,,,,Hund,4.549779900000431,,,,,,,,,,,,3.536501300000964,None,,,,,,,,,,,,,freeRecallSub,1,,,,,,,,,,,,,,,,,,,,,,,,,,,,,,,,,,,,,,452.6720876999989,452.6823151999997,452.6823151999997,457.2329065999984,return,4.549779900000431,None,Hund,[],[],[],[],[],[],[],,,,,,,,,,,,,,,,,,,,,,1,2024-01-17_13h34.13.131,watkins1,2023.2.3,99.72993134627866,94,2024-01-17 13h34.22.865169 +0000,
,,,,,,,,,,,,,,,,,,,2,0,2,0,,,,,457.24345600000015,,,,,,,,,,,,,,Flasche,6.012677999999141,,,,,,,,,,,,4.478191100000913,None,,,,,,,,,,,,,freeRecallSub,1,,,,,,,,,,,,,,,,,,,,,,,,,,,,,,,,,,,,,,457.23415719999866,457.24345600000015,457.24345600000015,463.2590905999987,return,6.012677999999141,None,Flasche,[],[],[],[],[],[],[],,,,,,,,,,,,,,,,,,,,,,1,2024-01-17_13h34.13.131,watkins1,2023.2.3,99.72993134627866,94,2024-01-17 13h34.22.865169 +0000,
,,,,,,,,,,,,,,,,,,,3,0,3,0,,,,,463.27005889999964,,,,,,,,,,,,,,Vase,3.6901399999987916,,,,,,,,,,,,1.9484589000003325,None,,,,,,,,,,,,,freeRecallSub,1,,,,,,,,,,,,,,,,,,,,,,,,,,,,,,,,,,,,,,463.2603533999991,463.27005889999964,463.27005889999964,466.9661510999995,return,3.6901399999987916,None,Vase,[],[],[],[],[],[],[],,,,,,,,,,,,,,,,,,,,,,1,2024-01-17_13h34.13.131,watkins1,2023.2.3,99.72993134627866,94,2024-01-17 13h34.22.865169 +0000,
,,,,,,,,,,,,,,,,,,,4,0,4,0,,,,,466.9768835999985,,,,,,,,,,,,,,Schere,1.6312281000009534,,,,,,,,,,,,0.17074800000045798,None,,,,,,,,,,,,,freeRecallSub,1,,,,,,,,,,,,,,,,,,,,,,,,,,,,,,,,,,,,,,466.9673965999991,466.9768835999985,466.9768835999985,468.61430309999923,return,1.6312281000009534,None,Schere,[],[],[],[],[],[],[],,,,,,,,,,,,,,,,,,,,,,1,2024-01-17_13h34.13.131,watkins1,2023.2.3,99.72993134627866,94,2024-01-17 13h34.22.865169 +0000,
,,,,,,,,,,,,,,,,,,,5,0,5,0,,,,,468.62537220000013,,,,,,,,,,,,,,Eimer,12.382759500000247,,,,,,,,,,,,11.438018399998327,None,,,,,,,,,,,,,freeRecallSub,1,,,,,,,,,,,,,,,,,,,,,,,,,,,,,,,,,,,,,,468.61556519999976,468.62537220000013,468.62537220000013,481.01764229999935,return,12.382759500000247,None,Eimer,[],[],[],[],[],[],[],,,,,,,,,,,,,,,,,,,,,,1,2024-01-17_13h34.13.131,watkins1,2023.2.3,99.72993134627866,94,2024-01-17 13h34.22.865169 +0000,
,,,,,,,,,,,,,,,,,,,6,0,6,0,,,,,481.0289481,,,,,,,,,,,,,,Trommel,3.2912577999995847,,,,,,,,,,,,1.8086664999991626,None,,,,,,,,,,,,,freeRecallSub,1,,,,,,,,,,,,,,,,,,,,,,,,,,,,,,,,,,,,,,481.0188957999999,481.0289481,481.0289481,484.3239673999997,return,3.2912577999995847,None,Trommel,[],[],[],[],[],[],[],,,,,,,,,,,,,,,,,,,,,,1,2024-01-17_13h34.13.131,watkins1,2023.2.3,99.72993134627866,94,2024-01-17 13h34.22.865169 +0000,
,,,,,,,,,,,,,,,,,,,7,0,7,0,,,,,484.33568039999955,,,,,,,,,,,,,,Würfel,31.43245879999995,,,,,,,,,,,,29.925728600001094,None,,,,,,,,,,,,,freeRecallSub,1,,,,,,,,,,,,,,,,,,,,,,,,,,,,,,,,,,,,,,484.3252501999996,484.33568039999955,484.33568039999955,515.7773646999995,return,31.43245879999995,None,Würfel,[],[],[],[],[],[],[],,,,,,,,,,,,,,,,,,,,,,1,2024-01-17_13h34.13.131,watkins1,2023.2.3,99.72993134627866,94,2024-01-17 13h34.22.865169 +0000,
,,,,,,,,,,,,,,,,,,,8,0,8,0,,,,,515.7898654,,,,,,,,,,,,,,Stift,3.9223662999993394,,,,,,,,,,,,2.65444910000042,None,,,,,,,,,,,,,freeRecallSub,1,,,,,,,,,,,,,,,,,,,,,,,,,,,,,,,,,,,,,,515.7786115999988,515.7898654,515.7898654,519.7181695999989,return,3.9223662999993394,None,Stift,[],[],[],[],[],[],[],,,,,,,,,,,,,,,,,,,,,,1,2024-01-17_13h34.13.131,watkins1,2023.2.3,99.72993134627866,94,2024-01-17 13h34.22.865169 +0000,
,,,,,,,,,,,,,,,,,,,9,0,9,0,,,,,519.7302335999993,,,,,,,,,,,,,,Kiste,41.71798260000105,,,,,,,,,,,,40.683539999999994,None,,,,,,,,,,,,,freeRecallSub,1,,,,,,,,,,,,,,,,,,,,,,,,,,,,,,,,,,,,,,519.7194268999992,519.7302335999993,519.7302335999993,561.4572209999988,return,41.71798260000105,None,Kiste,[],[],[],[],[],[],[],,,,,,,,,,,,,,,,,,,,,,1,2024-01-17_13h34.13.131,watkins1,2023.2.3,99.72993134627866,94,2024-01-17 13h34.22.865169 +0000,
,,,,,,,,,,,,,,,,,,,10,0,10,0,,,,,561.4695530999998,,,,,,,,,,,,,,Löffel,6.698657599999933,,,,,,,,,,,,3.7587161000010383,None,,,,,,,,,,,,,freeRecallSub,1,,,,,,,,,,,,,,,,,,,,,,,,,,,,,,,,,,,,,,561.4584977999984,561.4695530999998,561.4695530999998,568.1701438,return,6.698657599999933,None,Löffel,[],[],[],[],[],[],[],,,,,,,,,,,,,,,,,,,,,,1,2024-01-17_13h34.13.131,watkins1,2023.2.3,99.72993134627866,94,2024-01-17 13h34.22.865169 +0000,
,,,,,,,,,,,,,,,,,,,11,0,11,0,,,,,568.1826548999998,,,,,,,,,,,,,,Fahrrad,31.145564899999954,,,,,,,,,,,,28.94492889999856,None,,,,,,,,,,,,,freeRecallSub,1,,,,,,,,,,,,,,,,,,,,,,,,,,,,,,,,,,,,,,568.1713739999996,568.1826548999998,568.1826548999998,599.3354261999993,return,31.145564899999954,None,Fahrrad,[],[],[],[],[],[],[],,,,,,,,,,,,,,,,,,,,,,1,2024-01-17_13h34.13.131,watkins1,2023.2.3,99.72993134627866,94,2024-01-17 13h34.22.865169 +0000,
,,,,,,,,,,,,,,,,,,,12,0,12,0,,,,,599.3475663999998,,,,,,,,,,,,,,,[],,,,,,,,,,,,None,None,,,,,,,,,,,,,freeRecallSub,1,,,,,,,,,,,,,,,,,,,,,,,,,,,,,,,,,,,,,,599.3366651999986,599.3475663999998,599.3475663999998,683.781979899999,None,,,,[0.2759259259259259],[-0.412962962962963],[1],[0],[0],[84.44051679999939],"['button_continue', 'continue_text']",,,,,,,,,,,,,,,,,,,,,,1,2024-01-17_13h34.13.131,watkins1,2023.2.3,99.72993134627866,94,2024-01-17 13h34.22.865169 +0000,
,,,,,,,,,,,,,,,,,,,,,,,,,,,,,,,,,,,,,,,,,,,,,,,,,,,,,,,,,,,,,,,,,,,,,1,,,,,,,,,,,,,,,,,,,,,,,,,,,,,,,,,,,,,,,,,,,,,,,,,,,,,,,,,,,,,,,,,,,,,,,,,,1,2024-01-17_13h34.13.131,watkins1,2023.2.3,99.72993134627866,94,2024-01-17 13h34.22.865169 +0000,
,,,,,,,,,,,,,,,,,,,,,,,0,0,0,0,693.7374273999994,,,,,,,,,,700.3885525999995,700.887171299999,,,,6.638911899999584,,,,,,,,,,,,None,None,,,,,,,,,,Ring,,,cuedRecallAdj,1,,,,,,,,,,,,,,,,,,,,,,,,,,,,,,,,,,,,,,,,,,,,,,,,,,,,,693.7284868999996,693.7374273999994,0,693.7374273999994,700.3854491999991,flach,return,6.638911899999584,None,700.3858279999986,700.3950888999989,700.3950888999989,700.3884079,,None,,,,,,,1,2024-01-17_13h34.13.131,watkins1,2023.2.3,99.72993134627866,94,2024-01-17 13h34.22.865169 +0000,
,,,,,,,,,,,,,,,,,,,,,,,1,0,1,0,700.8972156999989,,,,,,,,,,711.5215349999999,712.0127825,,,,9.11108189999868,,,,,,,,,,,,1.5053081000005477,None,,,,,,,,,,Lampe,,,cuedRecallAdj,1,,,,,,,,,,,,,,,,,,,,,,,,,,,,,,,,,,,,,,,,,,,,,,,,,,,,,700.8874114999999,700.8972156999989,0,700.8972156999989,710.0151293999988,schwer,return,9.11108189999868,None,710.0154089999996,710.0246502999998,710.0246502999998,711.5211863999994,,return,1.495694299999741,None,,,,,1,2024-01-17_13h34.13.131,watkins1,2023.2.3,99.72993134627866,94,2024-01-17 13h34.22.865169 +0000,
,,,,,,,,,,,,,,,,,,,,,,,2,0,2,0,712.0226759999987,,,,,,,,,,715.189495999999,715.6882977999994,,,,3.1616821000006894,,,,,,,,,,,,None,None,,,,,,,,,,Kiste,,,cuedRecallAdj,1,,,,,,,,,,,,,,,,,,,,,,,,,,,,,,,,,,,,,,,,,,,,,,,,,,,,,712.0130276,712.0226759999987,0,712.0226759999987,715.1867105999991,kurz,return,3.1616821000006894,None,715.1869689999985,715.1962017999995,715.1962017999995,715.1893949999994,,None,,,,,,,1,2024-01-17_13h34.13.131,watkins1,2023.2.3,99.72993134627866,94,2024-01-17 13h34.22.865169 +0000,
,,,,,,,,,,,,,,,,,,,,,,,3,0,3,0,715.6982472999989,,,,,,,,,,727.9498434999987,728.4412223999989,,,schwer,3.198039199998675,,,,,,,,,,,,6.837904699999854,None,,,,,,,,,,Trommel,,,cuedRecallAdj,1,,,,,,,,,,,,,,,,,,,,,,,,,,,,,,,,,,,,,,,,,,,,,,,,,,,,,715.6885382,715.6982472999989,0,715.6982472999989,718.9018535999985,praktisch,return,3.198039199998675,None,718.9021648999988,718.9114980999984,718.9114980999984,727.9495817999996,schwer,return,9.032860200000869,None,,,,,1,2024-01-17_13h34.13.131,watkins1,2023.2.3,99.72993134627866,94,2024-01-17 13h34.22.865169 +0000,
,,,,,,,,,,,,,,,,,,,,,,,4,0,4,0,728.4511776999989,,,,,,,,,,736.0356194999986,736.5347832999996,,,,7.581125799999427,,,,,,,,,,,,None,None,,,,,,,,,,Socke,,,cuedRecallAdj,1,,,,,,,,,,,,,,,,,,,,,,,,,,,,,,,,,,,,,,,,,,,,,,,,,,,,,728.4414638999988,728.4511776999989,0,728.4511776999989,736.0331012999995,,return,7.581125799999427,None,736.0333613999992,736.0427715999995,736.0427715999995,736.035519699999,,None,,,,,,,1,2024-01-17_13h34.13.131,watkins1,2023.2.3,99.72993134627866,94,2024-01-17 13h34.22.865169 +0000,
,,,,,,,,,,,,,,,,,,,,,,,5,0,5,0,736.5446887999988,,,,,,,,,,750.6848004999993,751.1762323999992,,,,12.58360680000078,,,,,,,,,,,,1.5457963000008021,None,,,,,,,,,,Hut,,,cuedRecallAdj,1,,,,,,,,,,,,,,,,,,,,,,,,,,,,,,,,,,,,,,,,,,,,,,,,,,,,,736.5350210999986,736.5446887999988,0,736.5446887999988,749.1380264,dick,return,12.58360680000078,None,749.1382913999987,749.1477673999998,749.1477673999998,750.6845390999988,,return,1.532545599999139,None,,,,,1,2024-01-17_13h34.13.131,watkins1,2023.2.3,99.72993134627866,94,2024-01-17 13h34.22.865169 +0000,
,,,,,,,,,,,,,,,,,,,,,,,6,0,6,0,751.1862046999995,,,,,,,,,,753.8979442999989,754.3894911999996,,,,2.254238699999405,,,,,,,,,,,,0.45113019999917015,None,,,,,,,,,,Stift,,,cuedRecallAdj,1,,,,,,,,,,,,,,,,,,,,,,,,,,,,,,,,,,,,,,,,,,,,,,,,,,,,,751.1764750999992,751.1862046999995,0,751.1862046999995,753.4460041999992,nachhaltig,return,2.254238699999405,None,753.4462595999994,753.4555645,753.4555645,753.897685599999,,return,0.43283289999999397,None,,,,,1,2024-01-17_13h34.13.131,watkins1,2023.2.3,99.72993134627866,94,2024-01-17 13h34.22.865169 +0000,
,,,,,,,,,,,,,,,,,,,,,,,7,0,7,0,754.3994540999993,,,,,,,,,,769.4424081999987,769.9339320999989,,,,11.936952500000189,,,,,,,,,,,,3.102017400000477,None,,,,,,,,,,Hammer,,,cuedRecallAdj,1,,,,,,,,,,,,,,,,,,,,,,,,,,,,,,,,,,,,,,,,,,,,,,,,,,,,,754.3897311000001,754.3994540999993,0,754.3994540999993,766.3394934999997,gut,return,11.936952500000189,None,766.3397580000001,766.3490086999991,766.3490086999991,769.4420500999986,,return,3.083412399999361,None,,,,,1,2024-01-17_13h34.13.131,watkins1,2023.2.3,99.72993134627866,94,2024-01-17 13h34.22.865169 +0000,
,,,,,,,,,,,,,,,,,,,,,,,8,0,8,0,769.9438324999992,,,,,,,,,,777.5178005999987,778.0074220999995,,,,7.568548000001101,,,,,,,,,,,,None,None,,,,,,,,,,Buch,,,cuedRecallAdj,1,,,,,,,,,,,,,,,,,,,,,,,,,,,,,,,,,,,,,,,,,,,,,,,,,,,,,769.9341673999988,769.9438324999992,0,769.9438324999992,777.5156996999995,,return,7.568548000001101,None,777.5159660999998,777.5252120999994,777.5252120999994,777.5176999999985,,None,,,,,,,1,2024-01-17_13h34.13.131,watkins1,2023.2.3,99.72993134627866,94,2024-01-17 13h34.22.865169 +0000,
,,,,,,,,,,,,,,,,,,,,,,,9,0,9,0,778.0173305999997,,,,,,,,,,786.5254291000001,787.015018,,,,8.503016399999979,,,,,,,,,,,,None,None,,,,,,,,,,Schlüssel,,,cuedRecallAdj,1,,,,,,,,,,,,,,,,,,,,,,,,,,,,,,,,,,,,,,,,,,,,,,,,,,,,,778.0076654999993,778.0173305999997,0,778.0173305999997,786.5233766000001,,return,8.503016399999979,None,786.523646399999,786.5329060999993,786.5329060999993,786.5253286999996,,None,,,,,,,1,2024-01-17_13h34.13.131,watkins1,2023.2.3,99.72993134627866,94,2024-01-17 13h34.22.865169 +0000,
,,,,,,,,,,,,,,,,,,,,,,,10,0,10,0,787.0249647,,,,,,,,,,789.3671553999993,789.8568347,,,,2.335445799999434,,,,,,,,,,,,None,None,,,,,,,,,,Telefon,,,cuedRecallAdj,1,,,,,,,,,,,,,,,,,,,,,,,,,,,,,,,,,,,,,,,,,,,,,,,,,,,,,787.0152633999987,787.0249647,0,787.0249647,789.3651682999989,,return,2.335445799999434,None,789.3654320999995,789.3748017999987,789.3748017999987,789.3670548999999,,None,,,,,,,1,2024-01-17_13h34.13.131,watkins1,2023.2.3,99.72993134627866,94,2024-01-17 13h34.22.865169 +0000,
,,,,,,,,,,,,,,,,,,,,,,,11,0,11,0,789.8667392999996,,,,,,,,,,794.1275721999991,794.6262312999988,,,,4.253690400000778,,,,,,,,,,,,None,None,,,,,,,,,,Geige,,,cuedRecallAdj,1,,,,,,,,,,,,,,,,,,,,,,,,,,,,,,,,,,,,,,,,,,,,,,,,,,,,,789.8570734999994,789.8667392999996,0,789.8667392999996,794.1247539999986,neu,return,4.253690400000778,None,794.125016,794.1343743999987,794.1343743999987,794.1274715999989,,None,,,,,,,1,2024-01-17_13h34.13.131,watkins1,2023.2.3,99.72993134627866,94,2024-01-17 13h34.22.865169 +0000,
,,,,,,,,,,,,,,,,,,,,,,,12,0,12,0,794.6361497999987,,,,,,,,,,797.2816046999997,797.7794169999997,,,,2.6363110000002052,,,,,,,,,,,,None,None,,,,,,,,,,Kerze,,,cuedRecallAdj,1,,,,,,,,,,,,,,,,,,,,,,,,,,,,,,,,,,,,,,,,,,,,,,,,,,,,,794.6264776999997,794.6361497999987,0,794.6361497999987,797.2778658999996,glatt,return,2.6363110000002052,None,797.2781280999989,797.287431499999,797.287431499999,797.2814964999998,,None,,,,,,,1,2024-01-17_13h34.13.131,watkins1,2023.2.3,99.72993134627866,94,2024-01-17 13h34.22.865169 +0000,
,,,,,,,,,,,,,,,,,,,,,,,13,0,13,0,797.7894234999985,,,,,,,,,,801.8570064999985,802.3484908999999,,,,3.322954799999934,,,,,,,,,,,,0.7425433000007615,None,,,,,,,,,,Kette,,,cuedRecallAdj,1,,,,,,,,,,,,,,,,,,,,,,,,,,,,,,,,,,,,,,,,,,,,,,,,,,,,,797.7796603999996,797.7894234999985,0,797.7894234999985,801.1136351999994,verspielt,return,3.322954799999934,None,801.113899,801.1232038999988,801.1232038999988,801.8567494999988,,return,0.7252219999991212,None,,,,,1,2024-01-17_13h34.13.131,watkins1,2023.2.3,99.72993134627866,94,2024-01-17 13h34.22.865169 +0000,
,,,,,,,,,,,,,,,,,,,,,,,14,0,14,0,802.3584409999985,,,,,,,,,,805.9240037999989,806.4154294,,,lang,1.8738850000008824,,,,,,,,,,,,0.4209802999994281,None,,,,,,,,,,Löffel,,,cuedRecallAdj,1,,,,,,,,,,,,,,,,,,,,,,,,,,,,,,,,,,,,,,,,,,,,,,,,,,,,,802.3487359999999,802.3584409999985,0,802.3584409999985,804.2366812,kalt,return,1.8738850000008824,None,804.2369424999997,804.2462323,804.2462323,805.9237364,lang,return,1.6742069000010815,None,,,,,1,2024-01-17_13h34.13.131,watkins1,2023.2.3,99.72993134627866,94,2024-01-17 13h34.22.865169 +0000,
,,,,,,,,,,,,,,,,,,,,,,,15,0,15,0,806.4253734999984,,,,,,,,,,815.4833239,815.9746876999998,,,,8.758988999999929,,,,,,,,,,,,0.29058009999971546,None,,,,,,,,,,Tasse,,,cuedRecallAdj,1,,,,,,,,,,,,,,,,,,,,,,,,,,,,,,,,,,,,,,,,,,,,,,,,,,,,,806.4156750999991,806.4253734999984,0,806.4253734999984,815.1917482999997,,return,8.758988999999929,None,815.1920167999997,815.2014698999992,815.2014698999992,815.4830567999998,,return,0.2788849000007758,None,,,,,1,2024-01-17_13h34.13.131,watkins1,2023.2.3,99.72993134627866,94,2024-01-17 13h34.22.865169 +0000,
,,,,,,,,,,,,,,,,,,,,,,,16,0,16,0,815.9846346999984,,,,,,,,,,819.5699369999984,820.0614666999991,,,,3.09584840000025,,,,,,,,,,,,0.48143809999965015,None,,,,,,,,,,Brille,,,cuedRecallAdj,1,,,,,,,,,,,,,,,,,,,,,,,,,,,,,,,,,,,,,,,,,,,,,,,,,,,,,815.974940099999,815.9846346999984,0,815.9846346999984,819.0877050999989,matt,return,3.09584840000025,None,819.0879604999991,819.097375899999,819.097375899999,819.5696727999984,,return,0.4630546000007598,None,,,,,1,2024-01-17_13h34.13.131,watkins1,2023.2.3,99.72993134627866,94,2024-01-17 13h34.22.865169 +0000,
,,,,,,,,,,,,,,,,,,,,,,,17,0,17,0,820.0713942999992,,,,,,,,,,822.4144706999996,822.9131582999998,,,,2.3370185000003403,,,,,,,,,,,,None,None,,,,,,,,,,Flasche,,,cuedRecallAdj,1,,,,,,,,,,,,,,,,,,,,,,,,,,,,,,,,,,,,,,,,,,,,,,,,,,,,,820.0617015999997,820.0713942999992,0,820.0713942999992,822.4116004999996,hohl,return,2.3370185000003403,None,822.411866299999,822.4212020999985,822.4212020999985,822.4143706999985,,None,,,,,,,1,2024-01-17_13h34.13.131,watkins1,2023.2.3,99.72993134627866,94,2024-01-17 13h34.22.865169 +0000,
,,,,,,,,,,,,,,,,,,,,,,,18,0,18,0,822.9232017999984,,,,,,,,,,826.1505806999994,826.6491279999991,,,,3.2211545999998634,,,,,,,,,,,,None,None,,,,,,,,,,Jacke,,,cuedRecallAdj,1,,,,,,,,,,,,,,,,,,,,,,,,,,,,,,,,,,,,,,,,,,,,,,,,,,,,,822.9134033999999,822.9232017999984,0,822.9232017999984,826.1474811999997,hübsch,return,3.2211545999998634,None,826.1477613999996,826.1570235999989,826.1570235999989,826.1504802,,None,,,,,,,1,2024-01-17_13h34.13.131,watkins1,2023.2.3,99.72993134627866,94,2024-01-17 13h34.22.865169 +0000,
,,,,,,,,,,,,,,,,,,,,,,,19,0,19,0,826.6590778999998,,,,,,,,,,831.0608171999993,831.5593144999984,,,,4.397355900000548,,,,,,,,,,,,None,None,,,,,,,,,,Eimer,,,cuedRecallAdj,1,,,,,,,,,,,,,,,,,,,,,,,,,,,,,,,,,,,,,,,,,,,,,,,,,,,,,826.6493671999997,826.6590778999998,0,826.6590778999998,831.0577872999984,schlicht,return,4.397355900000548,None,831.0580524999987,831.0673319999987,831.0673319999987,831.0607179999988,,None,,,,,,,1,2024-01-17_13h34.13.131,watkins1,2023.2.3,99.72993134627866,94,2024-01-17 13h34.22.865169 +0000,
,,,,,,,,,,,,,,,,,,,,,,,20,0,20,0,831.5692727999995,,,,,,,,,,836.6613944000001,837.152771699999,,,,2.7031741999999213,,,,,,,,,,,,2.379328999999416,None,,,,,,,,,,Blume,,,cuedRecallAdj,1,,,,,,,,,,,,,,,,,,,,,,,,,,,,,,,,,,,,,,,,,,,,,,,,,,,,,831.5595580999998,831.5692727999995,0,831.5692727999995,834.2810485999998,dunkel,return,2.7031741999999213,None,834.2813098999995,834.2907949,834.2907949,836.6611293999995,,return,2.3655785999999352,None,,,,,1,2024-01-17_13h34.13.131,watkins1,2023.2.3,99.72993134627866,94,2024-01-17 13h34.22.865169 +0000,
,,,,,,,,,,,,,,,,,,,,,,,21,0,21,0,837.1626789999991,,,,,,,,,,848.3829105999994,848.8813292999985,,,,11.213713799999823,,,,,,,,,,,,None,None,,,,,,,,,,Schere,,,cuedRecallAdj,1,,,,,,,,,,,,,,,,,,,,,,,,,,,,,,,,,,,,,,,,,,,,,,,,,,,,,837.1530270999992,837.1626789999991,0,837.1626789999991,848.3798732999985,bunt,return,11.213713799999823,None,848.3801554999991,848.389461499999,848.389461499999,848.3828030999994,,None,,,,,,,1,2024-01-17_13h34.13.131,watkins1,2023.2.3,99.72993134627866,94,2024-01-17 13h34.22.865169 +0000,
,,,,,,,,,,,,,,,,,,,,,,,22,0,22,0,848.8912986999985,,,,,,,,,,850.900606199999,851.3921149999987,,,,1.6531285000000935,,,,,,,,,,,,0.35068460000002233,None,,,,,,,,,,Rucksack,,,cuedRecallAdj,1,,,,,,,,,,,,,,,,,,,,,,,,,,,,,,,,,,,,,,,,,,,,,,,,,,,,,848.8815717999987,848.8912986999985,0,848.8912986999985,850.5489326999996,,return,1.6531285000000935,None,850.5491935999999,850.5584645999988,850.5584645999988,850.9003416999985,,return,0.33798920000117505,None,,,,,1,2024-01-17_13h34.13.131,watkins1,2023.2.3,99.72993134627866,94,2024-01-17 13h34.22.865169 +0000,
,,,,,,,,,,,,,,,,,,,,,,,23,0,23,0,851.402064599999,,,,,,,,,,855.0378318999992,855.5290909999985,,,,3.1103305999986333,,,,,,,,,,,,0.5214396999999735,None,,,,,,,,,,Würfel,,,cuedRecallAdj,1,,,,,,,,,,,,,,,,,,,,,,,,,,,,,,,,,,,,,,,,,,,,,,,,,,,,,851.3923562999989,851.402064599999,0,851.402064599999,854.5153923999987,gestreift,return,3.1103305999986333,None,854.5156582999989,854.5249686999996,854.5249686999996,855.0375667999997,,return,0.5075120000001334,None,,,,,1,2024-01-17_13h34.13.131,watkins1,2023.2.3,99.72993134627866,94,2024-01-17 13h34.22.865169 +0000,
,,,,,,,,,,,,,,,,,,,,,,,24,0,24,0,855.5391458999984,,,,,,,,,,864.5973101,865.0886818999988,,,elegant,5.397322099999656,,,,,,,,,,,,1.7264040000009118,None,,,,,,,,,,Vase,,,cuedRecallAdj,1,,,,,,,,,,,,,,,,,,,,,,,,,,,,,,,,,,,,,,,,,,,,,,,,,,,,,855.5293322999987,855.5391458999984,0,855.5391458999984,860.9418467999985,sportlich,return,5.397322099999656,None,860.9421173999999,860.9514655999992,860.9514655999992,864.5970429999998,elegant,return,3.6410232999987784,None,,,,,1,2024-01-17_13h34.13.131,watkins1,2023.2.3,99.72993134627866,94,2024-01-17 13h34.22.865169 +0000,
,,,,,,,,,,,,,,,,,,,,,,,25,0,25,0,865.0986306999985,,,,,,,,,,867.3718621999997,867.8702455999992,,,,2.2618309000008594,,,,,,,,,,,,None,None,,,,,,,,,,Tasche,,,cuedRecallAdj,1,,,,,,,,,,,,,,,,,,,,,,,,,,,,,,,,,,,,,,,,,,,,,,,,,,,,,865.0889233999987,865.0986306999985,0,865.0986306999985,867.3683728999986,flauschig,return,2.2618309000008594,None,867.3686337999989,867.3781589999999,867.3781589999999,867.3717605999991,,None,,,,,,,1,2024-01-17_13h34.13.131,watkins1,2023.2.3,99.72993134627866,94,2024-01-17 13h34.22.865169 +0000,
,,,,,,,,,,,,,,,,,,,,,,,26,0,26,0,867.8801874000001,,,,,,,,,,871.1664237999994,871.6559368999988,,,,3.2802068999990297,,,,,,,,,,,,None,None,,,,,,,,,,Uhr,,,cuedRecallAdj,1,,,,,,,,,,,,,,,,,,,,,,,,,,,,,,,,,,,,,,,,,,,,,,,,,,,,,867.8704954999994,867.8801874000001,0,867.8801874000001,871.1643596999984,,return,3.2802068999990297,None,871.1646230999995,871.1739727999993,871.1739727999993,871.1663250000001,,None,,,,,,,1,2024-01-17_13h34.13.131,watkins1,2023.2.3,99.72993134627866,94,2024-01-17 13h34.22.865169 +0000,
,,,,,,,,,,,,,,,,,,,,,,,27,0,27,0,871.6659273999994,,,,,,,,,,900.4974762999991,900.9887948999985,,,,28.478540399999474,,,,,,,,,,,,0.3506952000007004,None,,,,,,,,,,Fahrrad,,,cuedRecallAdj,1,,,,,,,,,,,,,,,,,,,,,,,,,,,,,,,,,,,,,,,,,,,,,,,,,,,,,871.6561820999996,871.6659273999994,0,871.6659273999994,900.145495499999,,return,28.478540399999474,None,900.145762099999,900.1549563999997,900.1549563999997,900.4971922999994,,return,0.3416871999997966,None,,,,,1,2024-01-17_13h34.13.131,watkins1,2023.2.3,99.72993134627866,94,2024-01-17 13h34.22.865169 +0000,
,,,,,,,,,,,,,,,,,,,,,,,28,0,28,0,900.9988558999994,,,,,,,,,,906.6931210999992,907.1844411000002,,,lustig,4.4415776999994705,,,,,,,,,,,,0.28041250000023865,None,,,,,,,,,,Kamera,,,cuedRecallAdj,1,,,,,,,,,,,,,,,,,,,,,,,,,,,,,,,,,,,,,,,,,,,,,,,,,,,,,900.9890335,900.9988558999994,0,900.9988558999994,905.4477544000001,klein,return,4.4415776999994705,None,905.4480194999996,905.4572908999999,905.4572908999999,906.6928594000001,lustig,return,1.2312123000010615,None,,,,,1,2024-01-17_13h34.13.131,watkins1,2023.2.3,99.72993134627866,94,2024-01-17 13h34.22.865169 +0000,
,,,,,,,,,,,,,,,,,,,,,,,29,0,29,0,907.1943824999998,,,,,,,,,,910.3310301000001,910.8295222999986,,,,3.126011300000755,,,,,,,,,,,,None,None,,,,,,,,,,Bürste,,,cuedRecallAdj,1,,,,,,,,,,,,,,,,,,,,,,,,,,,,,,,,,,,,,,,,,,,,,,,,,,,,,907.1846879999994,907.1943824999998,0,907.1943824999998,910.3277555999994,breit,return,3.126011300000755,None,910.3280182999988,910.3374765999997,910.3374765999997,910.3309270999998,,None,,,,,,,1,2024-01-17_13h34.13.131,watkins1,2023.2.3,99.72993134627866,94,2024-01-17 13h34.22.865169 +0000,
,,,,,,,,,,,,,,,,,,,,,,,,,,,,,,,,,,,,,,,,,,,,,,,,,,,,,,,,,,,,,,,,,,,,,1,,,,,,,,,,,,,,,,,,,,,,,,,,,,,,,,,,,,,,,,,,,,,,,,,,,,,,,,,,,,,,,,,,,,,,910.8461840999989,q,3104.6444524000017,None,1,2024-01-17_13h34.13.131,watkins1,2023.2.3,99.72993134627866,94,2024-01-17 13h34.22.865169 +0000,
