Equation,CorrectResponse,Correctbutton,trials_7.thisRepN,trials_7.thisTrialN,trials_7.thisN,trials_7.thisIndex,trials.thisRepN,trials.thisTrialN,trials.thisN,trials.thisIndex,trials_3.thisRepN,trials_3.thisTrialN,trials_3.thisN,trials_3.thisIndex,trials_2.thisRepN,trials_2.thisTrialN,trials_2.thisN,trials_2.thisIndex,trials_4.thisRepN,trials_4.thisTrialN,trials_4.thisN,trials_4.thisIndex,trials_5.thisRepN,trials_5.thisTrialN,trials_5.thisN,trials_5.thisIndex,thisRow.t,notes,list_sub_restudy,list_sub_testsub,code_marius.started,code_marius.stopped,welcome.started,welcome.stopped,instruction_study.started,instruction_study.stopped,fixationcross.started,fixationcross.stopped,blanc.started,blanc.stopped,study_control_probe.started,study_control_probe.stopped,responseKey,responseTime,scale_answer_2.keys,study_control_probe_2.started,study_control_probe_2.stopped,scale_answer_3.keys,scale_answer_3.rt,scale_answer_3.duration,blanc_2.started,blanc_2.stopped,test_attr_probe.started,test_attr_probe.stopped,recalled_attr,firstKeyTime,secondWordTime,blanc_3.started,blanc_3.stopped,test_sub_probe.started,test_sub_probe.stopped,recalled_sub,instruction_probe_end.started,instruction_probe_end.stopped,study.started,study.stopped,substantive,adjective,wordpair,task,condition,liste_sub_phase1,liste_adj_phase1,scale_answer.keys,scale_answer.rt,scale_answer.duration,code_defineWordsInit.started,code_defineWordsInit.stopped,liste_sub_phase2,study_control.started,study_control.stopped,scale_answer_4.keys,restudy_same.started,restudy_same.stopped,scale_answer_5.keys,scale_answer_5.rt,scale_answer_5.duration,restudy_different.started,restudy_different.stopped,scale_answer_6.keys,test_attr.started,test_attr.stopped,test_sub.started,test_sub.stopped,correct,distractortask.started,equation_text.started,distractortask.stopped,mouse_answer.x,mouse_answer.y,mouse_answer.leftButton,mouse_answer.midButton,mouse_answer.rightButton,mouse_answer.time,mouse_answer.clicked_name,feedback_distractortask.started,feedback_distractortask.stopped,free_recall.started,text_enter.started,key_resp.started,free_recall.stopped,key_resp.keys,key_resp.rt,key_resp.duration,free_recalled_sub,mouse_continue.x,mouse_continue.y,mouse_continue.leftButton,mouse_continue.midButton,mouse_continue.rightButton,mouse_continue.time,mouse_continue.clicked_name,cued_recall.started,text_enter_2.started,key_continue.started,cued_recall.stopped,recalled_attr1,key_continue.keys,key_continue.rt,key_continue.duration,cued_recall_2.started,text_enter_3.started,key_continue_2.started,cued_recall_2.stopped,recalled_attr2,key_continue_2.keys,key_resp_8.started,key_resp_8.keys,key_resp_8.rt,key_resp_8.duration,condition,date,expName,psychopyVersion,frameRate,participant,expStart,
,,,,,,,,,,,,,,,,,,,,,,,,,,,,,"['Trommel', 'Würfel', 'Rucksack', 'Ring', 'Schere', 'Tasche', 'Buch', 'Schlüssel', 'Telefon', 'Brille', 'Vase', 'Lampe', 'Flasche', 'Tasse', 'Kamera']","['Stift', 'Fahrrad', 'Jacke', 'Kiste', 'Blume', 'Geige', 'Uhr', 'Hut', 'Kette', 'Löffel', 'Eimer', 'Kerze', 'Socke', 'Hammer', 'Bürste']",0.10961390007287264,0.10967799974605441,0.10968590015545487,5.159923499915749,,,,,,,,,,,,,,,,,,,,,,,,,,,,,,,,,,,,,2,,,,,,,,,,,,,,,,,,,,,,,,,,,,,,,,,,,,,,,,,,,,,,,,,,,,,,,,,,,,,,,,,,,,,,2,2024-01-16_10h39.49.705,watkins1,2023.2.3,99.74146990636673,89,2024-01-16 10h39.56.788832 +0000,
,,,,,,,,,,,,,,,,,,,,,,,,,,,,,,,,,,,5.159971300046891,40.72533959988505,,,,,,,,,,,,,,,,,,,,,,,,,,,,,,,,,,,2,,,,,,,,,,,,,,,,,,,,,,,,,,,,,,,,,,,,,,,,,,,,,,,,,,,,,,,,,,,,,,,,,,,,,,2,2024-01-16_10h39.49.705,watkins1,2023.2.3,99.74146990636673,89,2024-01-16 10h39.56.788832 +0000,
,,,0,0,0,0,,,,,,,,,,,,,,,,,,,,,41.739413199946284,,,,,,,,,,40.7253561001271,41.729454500135034,48.228236800059676,48.719849599990994,42.22149180015549,48.22806049976498,2,2.1367607000283897,None,48.71986129973084,54.720546499826014,2,2.1367607000283897,None,54.720838099718094,54.72086129989475,54.720868200063705,54.720945300068706,,2.0383267998695374,None,54.72111569996923,55.21206649998203,55.21207859972492,61.216772799845785,Hund,,,,,,,,,2,,,,,,,,,,,,,,,,,,,,,,,,,,,,,,,,,,,,,,,,,,,,,,,,,,,,,,,,,,,,,,,,,,,,,,2,2024-01-16_10h39.49.705,watkins1,2023.2.3,99.74146990636673,89,2024-01-16 10h39.56.788832 +0000,
,,,,,,,,,,,,,,,,,,,,,,,,,,,,,,,,,,,,,,,,,,,,,,,,,,,,,,,,,,,,,,,61.21693329978734,64.10919369990006,,,,,,,2,,,,,,,,,,,,,,,,,,,,,,,,,,,,,,,,,,,,,,,,,,,,,,,,,,,,,,,,,,,,,,,,,,,,,,2,2024-01-16_10h39.49.705,watkins1,2023.2.3,99.74146990636673,89,2024-01-16 10h39.56.788832 +0000,
,,,,,,,0,0,0,0,,,,,,,,,,,,,,,,,65.12305990001187,,,,,,,,,,64.1092111999169,65.11303070001304,65.11349779972807,65.60515710012987,,,1,2.7587250997312367,,,,,,,,,,,,,,,,,,,,,65.60516740009189,71.61330650001764,Telefon,hübsch,"['Telefon', 'hübsch']",restudy,2,"['Telefon', 'Flasche', 'Uhr', 'Hammer', 'Kerze', 'Hut', 'Bürste', 'Würfel', 'Kamera', 'Fahrrad', 'Tasche', 'Schlüssel', 'Socke', 'Buch', 'Ring', 'Stift', 'Kette', 'Eimer', 'Jacke', 'Kiste', 'Geige', 'Trommel', 'Schere', 'Tasse', 'Löffel', 'Rucksack', 'Blume', 'Vase', 'Brille', 'Lampe']",['hübsch'],1,2.7587250997312367,None,,,,,,,,,,,,,,,,,,,,,,,,,,,,,,,,,,,,,,,,,,,,,,,,,,,,,,,,,,,,,,,,,2,2024-01-16_10h39.49.705,watkins1,2023.2.3,99.74146990636673,89,2024-01-16 10h39.56.788832 +0000,
,,,,,,,1,0,1,0,,,,,,,,,,,,,,,,,71.62271620007232,,,,,,,,,,,,71.6140764998272,72.1048753997311,,,1,1.5733739999122918,,,,,,,,,,,,,,,,,,,,,72.10488609969616,78.10737949982285,Flasche,flauschig,"['Flasche', 'flauschig']",restudy,2,"['Telefon', 'Flasche', 'Uhr', 'Hammer', 'Kerze', 'Hut', 'Bürste', 'Würfel', 'Kamera', 'Fahrrad', 'Tasche', 'Schlüssel', 'Socke', 'Buch', 'Ring', 'Stift', 'Kette', 'Eimer', 'Jacke', 'Kiste', 'Geige', 'Trommel', 'Schere', 'Tasse', 'Löffel', 'Rucksack', 'Blume', 'Vase', 'Brille', 'Lampe']","['hübsch', 'flauschig']",1,1.5733739999122918,None,,,,,,,,,,,,,,,,,,,,,,,,,,,,,,,,,,,,,,,,,,,,,,,,,,,,,,,,,,,,,,,,,2,2024-01-16_10h39.49.705,watkins1,2023.2.3,99.74146990636673,89,2024-01-16 10h39.56.788832 +0000,
,,,,,,,2,0,2,0,,,,,,,,,,,,,,,,,78.1168301999569,,,,,,,,,,,,78.10788979986683,78.59898599982262,,,1,1.246396199800074,,,,,,,,,,,,,,,,,,,,,78.59899740014225,84.60133269988,Uhr,kratzig,"['Uhr', 'kratzig']",test_sub,2,"['Telefon', 'Flasche', 'Uhr', 'Hammer', 'Kerze', 'Hut', 'Bürste', 'Würfel', 'Kamera', 'Fahrrad', 'Tasche', 'Schlüssel', 'Socke', 'Buch', 'Ring', 'Stift', 'Kette', 'Eimer', 'Jacke', 'Kiste', 'Geige', 'Trommel', 'Schere', 'Tasse', 'Löffel', 'Rucksack', 'Blume', 'Vase', 'Brille', 'Lampe']","['hübsch', 'flauschig', 'kratzig']",1,1.246396199800074,None,,,,,,,,,,,,,,,,,,,,,,,,,,,,,,,,,,,,,,,,,,,,,,,,,,,,,,,,,,,,,,,,,2,2024-01-16_10h39.49.705,watkins1,2023.2.3,99.74146990636673,89,2024-01-16 10h39.56.788832 +0000,
,,,,,,,3,0,3,0,,,,,,,,,,,,,,,,,84.61074450006709,,,,,,,,,,,,84.6018568999134,85.09277069987729,,,1,1.7060401998460293,,,,,,,,,,,,,,,,,,,,,85.0927817998454,91.09453850006685,Hammer,dick,"['Hammer', 'dick']",test_sub,2,"['Telefon', 'Flasche', 'Uhr', 'Hammer', 'Kerze', 'Hut', 'Bürste', 'Würfel', 'Kamera', 'Fahrrad', 'Tasche', 'Schlüssel', 'Socke', 'Buch', 'Ring', 'Stift', 'Kette', 'Eimer', 'Jacke', 'Kiste', 'Geige', 'Trommel', 'Schere', 'Tasse', 'Löffel', 'Rucksack', 'Blume', 'Vase', 'Brille', 'Lampe']","['hübsch', 'flauschig', 'kratzig', 'dick']",1,1.7060401998460293,None,,,,,,,,,,,,,,,,,,,,,,,,,,,,,,,,,,,,,,,,,,,,,,,,,,,,,,,,,,,,,,,,,2,2024-01-16_10h39.49.705,watkins1,2023.2.3,99.74146990636673,89,2024-01-16 10h39.56.788832 +0000,
,,,,,,,4,0,4,0,,,,,,,,,,,,,,,,,91.1039804997854,,,,,,,,,,,,91.09507409995422,91.58600360015407,,,1,1.8763105999678373,,,,,,,,,,,,,,,,,,,,,91.58601519977674,97.58714079996571,Kerze,zart,"['Kerze', 'zart']",test_sub,2,"['Telefon', 'Flasche', 'Uhr', 'Hammer', 'Kerze', 'Hut', 'Bürste', 'Würfel', 'Kamera', 'Fahrrad', 'Tasche', 'Schlüssel', 'Socke', 'Buch', 'Ring', 'Stift', 'Kette', 'Eimer', 'Jacke', 'Kiste', 'Geige', 'Trommel', 'Schere', 'Tasse', 'Löffel', 'Rucksack', 'Blume', 'Vase', 'Brille', 'Lampe']","['hübsch', 'flauschig', 'kratzig', 'dick', 'zart']",1,1.8763105999678373,None,,,,,,,,,,,,,,,,,,,,,,,,,,,,,,,,,,,,,,,,,,,,,,,,,,,,,,,,,,,,,,,,,2,2024-01-16_10h39.49.705,watkins1,2023.2.3,99.74146990636673,89,2024-01-16 10h39.56.788832 +0000,
,,,,,,,5,0,5,0,,,,,,,,,,,,,,,,,97.59658160014078,,,,,,,,,,,,97.5876835999079,98.07868340006098,,,2,1.904773199930787,,,,,,,,,,,,,,,,,,,,,98.07869410002604,104.0819946997799,Hut,neu,"['Hut', 'neu']",test_sub,2,"['Telefon', 'Flasche', 'Uhr', 'Hammer', 'Kerze', 'Hut', 'Bürste', 'Würfel', 'Kamera', 'Fahrrad', 'Tasche', 'Schlüssel', 'Socke', 'Buch', 'Ring', 'Stift', 'Kette', 'Eimer', 'Jacke', 'Kiste', 'Geige', 'Trommel', 'Schere', 'Tasse', 'Löffel', 'Rucksack', 'Blume', 'Vase', 'Brille', 'Lampe']","['hübsch', 'flauschig', 'kratzig', 'dick', 'zart', 'neu']",2,1.904773199930787,None,,,,,,,,,,,,,,,,,,,,,,,,,,,,,,,,,,,,,,,,,,,,,,,,,,,,,,,,,,,,,,,,,2,2024-01-16_10h39.49.705,watkins1,2023.2.3,99.74146990636673,89,2024-01-16 10h39.56.788832 +0000,
,,,,,,,6,0,6,0,,,,,,,,,,,,,,,,,104.09146849997342,,,,,,,,,,,,104.08253829972818,104.573628900107,,,1,1.864796499721706,,,,,,,,,,,,,,,,,,,,,104.57363979984075,110.58419980015606,Bürste,dunkel,"['Bürste', 'dunkel']",test_sub,2,"['Telefon', 'Flasche', 'Uhr', 'Hammer', 'Kerze', 'Hut', 'Bürste', 'Würfel', 'Kamera', 'Fahrrad', 'Tasche', 'Schlüssel', 'Socke', 'Buch', 'Ring', 'Stift', 'Kette', 'Eimer', 'Jacke', 'Kiste', 'Geige', 'Trommel', 'Schere', 'Tasse', 'Löffel', 'Rucksack', 'Blume', 'Vase', 'Brille', 'Lampe']","['hübsch', 'flauschig', 'kratzig', 'dick', 'zart', 'neu', 'dunkel']",1,1.864796499721706,None,,,,,,,,,,,,,,,,,,,,,,,,,,,,,,,,,,,,,,,,,,,,,,,,,,,,,,,,,,,,,,,,,2,2024-01-16_10h39.49.705,watkins1,2023.2.3,99.74146990636673,89,2024-01-16 10h39.56.788832 +0000,
,,,,,,,7,0,7,0,,,,,,,,,,,,,,,,,110.59353590011597,,,,,,,,,,,,110.58485769992694,111.07548459991813,,,1,3.8511085002683103,,,,,,,,,,,,,,,,,,,,,111.07549540000036,117.08348449971527,Würfel,blass,"['Würfel', 'blass']",restudy,2,"['Telefon', 'Flasche', 'Uhr', 'Hammer', 'Kerze', 'Hut', 'Bürste', 'Würfel', 'Kamera', 'Fahrrad', 'Tasche', 'Schlüssel', 'Socke', 'Buch', 'Ring', 'Stift', 'Kette', 'Eimer', 'Jacke', 'Kiste', 'Geige', 'Trommel', 'Schere', 'Tasse', 'Löffel', 'Rucksack', 'Blume', 'Vase', 'Brille', 'Lampe']","['hübsch', 'flauschig', 'kratzig', 'dick', 'zart', 'neu', 'dunkel', 'blass']",1,3.8511085002683103,None,,,,,,,,,,,,,,,,,,,,,,,,,,,,,,,,,,,,,,,,,,,,,,,,,,,,,,,,,,,,,,,,,2,2024-01-16_10h39.49.705,watkins1,2023.2.3,99.74146990636673,89,2024-01-16 10h39.56.788832 +0000,
,,,,,,,8,0,8,0,,,,,,,,,,,,,,,,,117.09294979972765,,,,,,,,,,,,117.08399430010468,117.57502180011943,,,1,1.6641831998713315,,,,,,,,,,,,,,,,,,,,,117.57503349985927,123.58354200003669,Kamera,kurz,"['Kamera', 'kurz']",restudy,2,"['Telefon', 'Flasche', 'Uhr', 'Hammer', 'Kerze', 'Hut', 'Bürste', 'Würfel', 'Kamera', 'Fahrrad', 'Tasche', 'Schlüssel', 'Socke', 'Buch', 'Ring', 'Stift', 'Kette', 'Eimer', 'Jacke', 'Kiste', 'Geige', 'Trommel', 'Schere', 'Tasse', 'Löffel', 'Rucksack', 'Blume', 'Vase', 'Brille', 'Lampe']","['hübsch', 'flauschig', 'kratzig', 'dick', 'zart', 'neu', 'dunkel', 'blass', 'kurz']",1,1.6641831998713315,None,,,,,,,,,,,,,,,,,,,,,,,,,,,,,,,,,,,,,,,,,,,,,,,,,,,,,,,,,,,,,,,,,2,2024-01-16_10h39.49.705,watkins1,2023.2.3,99.74146990636673,89,2024-01-16 10h39.56.788832 +0000,
,,,,,,,9,0,9,0,,,,,,,,,,,,,,,,,123.59294669982046,,,,,,,,,,,,123.58408170007169,124.07532049994916,,,1,1.1560321003198624,,,,,,,,,,,,,,,,,,,,,124.07533140014857,130.08267919998616,Fahrrad,kalt,"['Fahrrad', 'kalt']",test_sub,2,"['Telefon', 'Flasche', 'Uhr', 'Hammer', 'Kerze', 'Hut', 'Bürste', 'Würfel', 'Kamera', 'Fahrrad', 'Tasche', 'Schlüssel', 'Socke', 'Buch', 'Ring', 'Stift', 'Kette', 'Eimer', 'Jacke', 'Kiste', 'Geige', 'Trommel', 'Schere', 'Tasse', 'Löffel', 'Rucksack', 'Blume', 'Vase', 'Brille', 'Lampe']","['hübsch', 'flauschig', 'kratzig', 'dick', 'zart', 'neu', 'dunkel', 'blass', 'kurz', 'kalt']",1,1.1560321003198624,None,,,,,,,,,,,,,,,,,,,,,,,,,,,,,,,,,,,,,,,,,,,,,,,,,,,,,,,,,,,,,,,,,2,2024-01-16_10h39.49.705,watkins1,2023.2.3,99.74146990636673,89,2024-01-16 10h39.56.788832 +0000,
,,,,,,,10,0,10,0,,,,,,,,,,,,,,,,,130.0921605997719,,,,,,,,,,,,130.08319999976084,130.5743422997184,,,1,1.5122432997450233,,,,,,,,,,,,,,,,,,,,,130.57435300014913,136.5830103000626,Tasche,flach,"['Tasche', 'flach']",restudy,2,"['Telefon', 'Flasche', 'Uhr', 'Hammer', 'Kerze', 'Hut', 'Bürste', 'Würfel', 'Kamera', 'Fahrrad', 'Tasche', 'Schlüssel', 'Socke', 'Buch', 'Ring', 'Stift', 'Kette', 'Eimer', 'Jacke', 'Kiste', 'Geige', 'Trommel', 'Schere', 'Tasse', 'Löffel', 'Rucksack', 'Blume', 'Vase', 'Brille', 'Lampe']","['hübsch', 'flauschig', 'kratzig', 'dick', 'zart', 'neu', 'dunkel', 'blass', 'kurz', 'kalt', 'flach']",1,1.5122432997450233,None,,,,,,,,,,,,,,,,,,,,,,,,,,,,,,,,,,,,,,,,,,,,,,,,,,,,,,,,,,,,,,,,,2,2024-01-16_10h39.49.705,watkins1,2023.2.3,99.74146990636673,89,2024-01-16 10h39.56.788832 +0000,
,,,,,,,11,0,11,0,,,,,,,,,,,,,,,,,136.59254059987143,,,,,,,,,,,,136.58352899970487,137.07459169998765,,,1,1.7555820001289248,,,,,,,,,,,,,,,,,,,,,137.07460309984162,143.0818611998111,Schlüssel,kaputt,"['Schlüssel', 'kaputt']",restudy,2,"['Telefon', 'Flasche', 'Uhr', 'Hammer', 'Kerze', 'Hut', 'Bürste', 'Würfel', 'Kamera', 'Fahrrad', 'Tasche', 'Schlüssel', 'Socke', 'Buch', 'Ring', 'Stift', 'Kette', 'Eimer', 'Jacke', 'Kiste', 'Geige', 'Trommel', 'Schere', 'Tasse', 'Löffel', 'Rucksack', 'Blume', 'Vase', 'Brille', 'Lampe']","['hübsch', 'flauschig', 'kratzig', 'dick', 'zart', 'neu', 'dunkel', 'blass', 'kurz', 'kalt', 'flach', 'kaputt']",1,1.7555820001289248,None,,,,,,,,,,,,,,,,,,,,,,,,,,,,,,,,,,,,,,,,,,,,,,,,,,,,,,,,,,,,,,,,,2,2024-01-16_10h39.49.705,watkins1,2023.2.3,99.74146990636673,89,2024-01-16 10h39.56.788832 +0000,
,,,,,,,12,0,12,0,,,,,,,,,,,,,,,,,143.09127460001037,,,,,,,,,,,,143.0823830999434,143.5732952998951,,,2,2.353966200258583,,,,,,,,,,,,,,,,,,,,,143.5733064999804,149.57944240001962,Socke,niedlich,"['Socke', 'niedlich']",test_sub,2,"['Telefon', 'Flasche', 'Uhr', 'Hammer', 'Kerze', 'Hut', 'Bürste', 'Würfel', 'Kamera', 'Fahrrad', 'Tasche', 'Schlüssel', 'Socke', 'Buch', 'Ring', 'Stift', 'Kette', 'Eimer', 'Jacke', 'Kiste', 'Geige', 'Trommel', 'Schere', 'Tasse', 'Löffel', 'Rucksack', 'Blume', 'Vase', 'Brille', 'Lampe']","['hübsch', 'flauschig', 'kratzig', 'dick', 'zart', 'neu', 'dunkel', 'blass', 'kurz', 'kalt', 'flach', 'kaputt', 'niedlich']",2,2.353966200258583,None,,,,,,,,,,,,,,,,,,,,,,,,,,,,,,,,,,,,,,,,,,,,,,,,,,,,,,,,,,,,,,,,,2,2024-01-16_10h39.49.705,watkins1,2023.2.3,99.74146990636673,89,2024-01-16 10h39.56.788832 +0000,
,,,,,,,13,0,13,0,,,,,,,,,,,,,,,,,149.58891250006855,,,,,,,,,,,,149.579970699735,150.07086300011724,,,3,1.616516400128603,,,,,,,,,,,,,,,,,,,,,150.07087410008535,156.07270029978827,Buch,glatt,"['Buch', 'glatt']",restudy,2,"['Telefon', 'Flasche', 'Uhr', 'Hammer', 'Kerze', 'Hut', 'Bürste', 'Würfel', 'Kamera', 'Fahrrad', 'Tasche', 'Schlüssel', 'Socke', 'Buch', 'Ring', 'Stift', 'Kette', 'Eimer', 'Jacke', 'Kiste', 'Geige', 'Trommel', 'Schere', 'Tasse', 'Löffel', 'Rucksack', 'Blume', 'Vase', 'Brille', 'Lampe']","['hübsch', 'flauschig', 'kratzig', 'dick', 'zart', 'neu', 'dunkel', 'blass', 'kurz', 'kalt', 'flach', 'kaputt', 'niedlich', 'glatt']",3,1.616516400128603,None,,,,,,,,,,,,,,,,,,,,,,,,,,,,,,,,,,,,,,,,,,,,,,,,,,,,,,,,,,,,,,,,,2,2024-01-16_10h39.49.705,watkins1,2023.2.3,99.74146990636673,89,2024-01-16 10h39.56.788832 +0000,
,,,,,,,14,0,14,0,,,,,,,,,,,,,,,,,156.08241820009425,,,,,,,,,,,,156.0732241999358,156.5646954998374,,,2,2.9929947000928223,,,,,,,,,,,,,,,,,,,,,156.56470680003986,162.56770849972963,Ring,groß,"['Ring', 'groß']",restudy,2,"['Telefon', 'Flasche', 'Uhr', 'Hammer', 'Kerze', 'Hut', 'Bürste', 'Würfel', 'Kamera', 'Fahrrad', 'Tasche', 'Schlüssel', 'Socke', 'Buch', 'Ring', 'Stift', 'Kette', 'Eimer', 'Jacke', 'Kiste', 'Geige', 'Trommel', 'Schere', 'Tasse', 'Löffel', 'Rucksack', 'Blume', 'Vase', 'Brille', 'Lampe']","['hübsch', 'flauschig', 'kratzig', 'dick', 'zart', 'neu', 'dunkel', 'blass', 'kurz', 'kalt', 'flach', 'kaputt', 'niedlich', 'glatt', 'groß']",2,2.9929947000928223,None,,,,,,,,,,,,,,,,,,,,,,,,,,,,,,,,,,,,,,,,,,,,,,,,,,,,,,,,,,,,,,,,,2,2024-01-16_10h39.49.705,watkins1,2023.2.3,99.74146990636673,89,2024-01-16 10h39.56.788832 +0000,
,,,,,,,15,0,15,0,,,,,,,,,,,,,,,,,162.57718459982425,,,,,,,,,,,,162.56824579974636,163.05944699980319,,,1,1.220032500103116,,,,,,,,,,,,,,,,,,,,,163.0594579000026,169.0680720997043,Stift,nass,"['Stift', 'nass']",test_sub,2,"['Telefon', 'Flasche', 'Uhr', 'Hammer', 'Kerze', 'Hut', 'Bürste', 'Würfel', 'Kamera', 'Fahrrad', 'Tasche', 'Schlüssel', 'Socke', 'Buch', 'Ring', 'Stift', 'Kette', 'Eimer', 'Jacke', 'Kiste', 'Geige', 'Trommel', 'Schere', 'Tasse', 'Löffel', 'Rucksack', 'Blume', 'Vase', 'Brille', 'Lampe']","['hübsch', 'flauschig', 'kratzig', 'dick', 'zart', 'neu', 'dunkel', 'blass', 'kurz', 'kalt', 'flach', 'kaputt', 'niedlich', 'glatt', 'groß', 'nass']",1,1.220032500103116,None,,,,,,,,,,,,,,,,,,,,,,,,,,,,,,,,,,,,,,,,,,,,,,,,,,,,,,,,,,,,,,,,,2,2024-01-16_10h39.49.705,watkins1,2023.2.3,99.74146990636673,89,2024-01-16 10h39.56.788832 +0000,
,,,,,,,16,0,16,0,,,,,,,,,,,,,,,,,169.07758769998327,,,,,,,,,,,,169.0685923998244,169.55956349987537,,,1,2.383528199978173,,,,,,,,,,,,,,,,,,,,,169.55957469996065,175.56122819986194,Kette,breit,"['Kette', 'breit']",test_sub,2,"['Telefon', 'Flasche', 'Uhr', 'Hammer', 'Kerze', 'Hut', 'Bürste', 'Würfel', 'Kamera', 'Fahrrad', 'Tasche', 'Schlüssel', 'Socke', 'Buch', 'Ring', 'Stift', 'Kette', 'Eimer', 'Jacke', 'Kiste', 'Geige', 'Trommel', 'Schere', 'Tasse', 'Löffel', 'Rucksack', 'Blume', 'Vase', 'Brille', 'Lampe']","['hübsch', 'flauschig', 'kratzig', 'dick', 'zart', 'neu', 'dunkel', 'blass', 'kurz', 'kalt', 'flach', 'kaputt', 'niedlich', 'glatt', 'groß', 'nass', 'breit']",1,2.383528199978173,None,,,,,,,,,,,,,,,,,,,,,,,,,,,,,,,,,,,,,,,,,,,,,,,,,,,,,,,,,,,,,,,,,2,2024-01-16_10h39.49.705,watkins1,2023.2.3,99.74146990636673,89,2024-01-16 10h39.56.788832 +0000,
,,,,,,,17,0,17,0,,,,,,,,,,,,,,,,,175.5706899999641,,,,,,,,,,,,175.56174429971725,176.05270450003445,,,3,1.8977505997754633,,,,,,,,,,,,,,,,,,,,,176.05271419975907,182.05553149990737,Eimer,praktisch,"['Eimer', 'praktisch']",test_sub,2,"['Telefon', 'Flasche', 'Uhr', 'Hammer', 'Kerze', 'Hut', 'Bürste', 'Würfel', 'Kamera', 'Fahrrad', 'Tasche', 'Schlüssel', 'Socke', 'Buch', 'Ring', 'Stift', 'Kette', 'Eimer', 'Jacke', 'Kiste', 'Geige', 'Trommel', 'Schere', 'Tasse', 'Löffel', 'Rucksack', 'Blume', 'Vase', 'Brille', 'Lampe']","['hübsch', 'flauschig', 'kratzig', 'dick', 'zart', 'neu', 'dunkel', 'blass', 'kurz', 'kalt', 'flach', 'kaputt', 'niedlich', 'glatt', 'groß', 'nass', 'breit', 'praktisch']",3,1.8977505997754633,None,,,,,,,,,,,,,,,,,,,,,,,,,,,,,,,,,,,,,,,,,,,,,,,,,,,,,,,,,,,,,,,,,2,2024-01-16_10h39.49.705,watkins1,2023.2.3,99.74146990636673,89,2024-01-16 10h39.56.788832 +0000,
,,,,,,,18,0,18,0,,,,,,,,,,,,,,,,,182.06501449970528,,,,,,,,,,,,182.05603649979457,182.5470344997011,,,2,2.8274228000082076,,,,,,,,,,,,,,,,,,,,,182.5470464997925,188.5545303998515,Jacke,bunt,"['Jacke', 'bunt']",test_sub,2,"['Telefon', 'Flasche', 'Uhr', 'Hammer', 'Kerze', 'Hut', 'Bürste', 'Würfel', 'Kamera', 'Fahrrad', 'Tasche', 'Schlüssel', 'Socke', 'Buch', 'Ring', 'Stift', 'Kette', 'Eimer', 'Jacke', 'Kiste', 'Geige', 'Trommel', 'Schere', 'Tasse', 'Löffel', 'Rucksack', 'Blume', 'Vase', 'Brille', 'Lampe']","['hübsch', 'flauschig', 'kratzig', 'dick', 'zart', 'neu', 'dunkel', 'blass', 'kurz', 'kalt', 'flach', 'kaputt', 'niedlich', 'glatt', 'groß', 'nass', 'breit', 'praktisch', 'bunt']",2,2.8274228000082076,None,,,,,,,,,,,,,,,,,,,,,,,,,,,,,,,,,,,,,,,,,,,,,,,,,,,,,,,,,,,,,,,,,2,2024-01-16_10h39.49.705,watkins1,2023.2.3,99.74146990636673,89,2024-01-16 10h39.56.788832 +0000,
,,,,,,,19,0,19,0,,,,,,,,,,,,,,,,,188.56401140009984,,,,,,,,,,,,188.55507249990478,189.04611120000482,,,1,2.992875600233674,,,,,,,,,,,,,,,,,,,,,189.04612229997292,195.0499296998605,Kiste,durchsichtig,"['Kiste', 'durchsichtig']",test_sub,2,"['Telefon', 'Flasche', 'Uhr', 'Hammer', 'Kerze', 'Hut', 'Bürste', 'Würfel', 'Kamera', 'Fahrrad', 'Tasche', 'Schlüssel', 'Socke', 'Buch', 'Ring', 'Stift', 'Kette', 'Eimer', 'Jacke', 'Kiste', 'Geige', 'Trommel', 'Schere', 'Tasse', 'Löffel', 'Rucksack', 'Blume', 'Vase', 'Brille', 'Lampe']","['hübsch', 'flauschig', 'kratzig', 'dick', 'zart', 'neu', 'dunkel', 'blass', 'kurz', 'kalt', 'flach', 'kaputt', 'niedlich', 'glatt', 'groß', 'nass', 'breit', 'praktisch', 'bunt', 'durchsichtig']",1,2.992875600233674,None,,,,,,,,,,,,,,,,,,,,,,,,,,,,,,,,,,,,,,,,,,,,,,,,,,,,,,,,,,,,,,,,,2,2024-01-16_10h39.49.705,watkins1,2023.2.3,99.74146990636673,89,2024-01-16 10h39.56.788832 +0000,
,,,,,,,20,0,20,0,,,,,,,,,,,,,,,,,195.05943549983203,,,,,,,,,,,,195.05046309996396,195.54166449978948,,,1,2.4882133002392948,,,,,,,,,,,,,,,,,,,,,195.5416759001091,201.54294670000672,Geige,winzig,"['Geige', 'winzig']",test_sub,2,"['Telefon', 'Flasche', 'Uhr', 'Hammer', 'Kerze', 'Hut', 'Bürste', 'Würfel', 'Kamera', 'Fahrrad', 'Tasche', 'Schlüssel', 'Socke', 'Buch', 'Ring', 'Stift', 'Kette', 'Eimer', 'Jacke', 'Kiste', 'Geige', 'Trommel', 'Schere', 'Tasse', 'Löffel', 'Rucksack', 'Blume', 'Vase', 'Brille', 'Lampe']","['hübsch', 'flauschig', 'kratzig', 'dick', 'zart', 'neu', 'dunkel', 'blass', 'kurz', 'kalt', 'flach', 'kaputt', 'niedlich', 'glatt', 'groß', 'nass', 'breit', 'praktisch', 'bunt', 'durchsichtig', 'winzig']",1,2.4882133002392948,None,,,,,,,,,,,,,,,,,,,,,,,,,,,,,,,,,,,,,,,,,,,,,,,,,,,,,,,,,,,,,,,,,2,2024-01-16_10h39.49.705,watkins1,2023.2.3,99.74146990636673,89,2024-01-16 10h39.56.788832 +0000,
,,,,,,,21,0,21,0,,,,,,,,,,,,,,,,,201.5523622999899,,,,,,,,,,,,201.54349280009046,202.03453589975834,,,1,2.3405229998752475,,,,,,,,,,,,,,,,,,,,,202.03454629983753,208.04499650001526,Trommel,nachhaltig,"['Trommel', 'nachhaltig']",restudy,2,"['Telefon', 'Flasche', 'Uhr', 'Hammer', 'Kerze', 'Hut', 'Bürste', 'Würfel', 'Kamera', 'Fahrrad', 'Tasche', 'Schlüssel', 'Socke', 'Buch', 'Ring', 'Stift', 'Kette', 'Eimer', 'Jacke', 'Kiste', 'Geige', 'Trommel', 'Schere', 'Tasse', 'Löffel', 'Rucksack', 'Blume', 'Vase', 'Brille', 'Lampe']","['hübsch', 'flauschig', 'kratzig', 'dick', 'zart', 'neu', 'dunkel', 'blass', 'kurz', 'kalt', 'flach', 'kaputt', 'niedlich', 'glatt', 'groß', 'nass', 'breit', 'praktisch', 'bunt', 'durchsichtig', 'winzig', 'nachhaltig']",1,2.3405229998752475,None,,,,,,,,,,,,,,,,,,,,,,,,,,,,,,,,,,,,,,,,,,,,,,,,,,,,,,,,,,,,,,,,,2,2024-01-16_10h39.49.705,watkins1,2023.2.3,99.74146990636673,89,2024-01-16 10h39.56.788832 +0000,
,,,,,,,22,0,22,0,,,,,,,,,,,,,,,,,208.05448189983144,,,,,,,,,,,,208.04552579997107,208.5364831998013,,,1,2.245505899656564,,,,,,,,,,,,,,,,,,,,,208.5364950997755,214.5390908997506,Schere,hässlich,"['Schere', 'hässlich']",restudy,2,"['Telefon', 'Flasche', 'Uhr', 'Hammer', 'Kerze', 'Hut', 'Bürste', 'Würfel', 'Kamera', 'Fahrrad', 'Tasche', 'Schlüssel', 'Socke', 'Buch', 'Ring', 'Stift', 'Kette', 'Eimer', 'Jacke', 'Kiste', 'Geige', 'Trommel', 'Schere', 'Tasse', 'Löffel', 'Rucksack', 'Blume', 'Vase', 'Brille', 'Lampe']","['hübsch', 'flauschig', 'kratzig', 'dick', 'zart', 'neu', 'dunkel', 'blass', 'kurz', 'kalt', 'flach', 'kaputt', 'niedlich', 'glatt', 'groß', 'nass', 'breit', 'praktisch', 'bunt', 'durchsichtig', 'winzig', 'nachhaltig', 'hässlich']",1,2.245505899656564,None,,,,,,,,,,,,,,,,,,,,,,,,,,,,,,,,,,,,,,,,,,,,,,,,,,,,,,,,,,,,,,,,,2,2024-01-16_10h39.49.705,watkins1,2023.2.3,99.74146990636673,89,2024-01-16 10h39.56.788832 +0000,
,,,,,,,23,0,23,0,,,,,,,,,,,,,,,,,214.5485417000018,,,,,,,,,,,,214.53960639983416,215.03059959970415,,,1,2.0799331995658576,,,,,,,,,,,,,,,,,,,,,215.0306102000177,221.0408219997771,Tasse,verspielt,"['Tasse', 'verspielt']",restudy,2,"['Telefon', 'Flasche', 'Uhr', 'Hammer', 'Kerze', 'Hut', 'Bürste', 'Würfel', 'Kamera', 'Fahrrad', 'Tasche', 'Schlüssel', 'Socke', 'Buch', 'Ring', 'Stift', 'Kette', 'Eimer', 'Jacke', 'Kiste', 'Geige', 'Trommel', 'Schere', 'Tasse', 'Löffel', 'Rucksack', 'Blume', 'Vase', 'Brille', 'Lampe']","['hübsch', 'flauschig', 'kratzig', 'dick', 'zart', 'neu', 'dunkel', 'blass', 'kurz', 'kalt', 'flach', 'kaputt', 'niedlich', 'glatt', 'groß', 'nass', 'breit', 'praktisch', 'bunt', 'durchsichtig', 'winzig', 'nachhaltig', 'hässlich', 'verspielt']",1,2.0799331995658576,None,,,,,,,,,,,,,,,,,,,,,,,,,,,,,,,,,,,,,,,,,,,,,,,,,,,,,,,,,,,,,,,,,2,2024-01-16_10h39.49.705,watkins1,2023.2.3,99.74146990636673,89,2024-01-16 10h39.56.788832 +0000,
,,,,,,,24,0,24,0,,,,,,,,,,,,,,,,,221.05033589992672,,,,,,,,,,,,221.04136129980907,221.5323620000854,,,2,3.081558800302446,,,,,,,,,,,,,,,,,,,,,221.5323732998222,227.5335194999352,Löffel,schlicht,"['Löffel', 'schlicht']",test_sub,2,"['Telefon', 'Flasche', 'Uhr', 'Hammer', 'Kerze', 'Hut', 'Bürste', 'Würfel', 'Kamera', 'Fahrrad', 'Tasche', 'Schlüssel', 'Socke', 'Buch', 'Ring', 'Stift', 'Kette', 'Eimer', 'Jacke', 'Kiste', 'Geige', 'Trommel', 'Schere', 'Tasse', 'Löffel', 'Rucksack', 'Blume', 'Vase', 'Brille', 'Lampe']","['hübsch', 'flauschig', 'kratzig', 'dick', 'zart', 'neu', 'dunkel', 'blass', 'kurz', 'kalt', 'flach', 'kaputt', 'niedlich', 'glatt', 'groß', 'nass', 'breit', 'praktisch', 'bunt', 'durchsichtig', 'winzig', 'nachhaltig', 'hässlich', 'verspielt', 'schlicht']",2,3.081558800302446,None,,,,,,,,,,,,,,,,,,,,,,,,,,,,,,,,,,,,,,,,,,,,,,,,,,,,,,,,,,,,,,,,,2,2024-01-16_10h39.49.705,watkins1,2023.2.3,99.74146990636673,89,2024-01-16 10h39.56.788832 +0000,
,,,,,,,25,0,25,0,,,,,,,,,,,,,,,,,227.54300080006942,,,,,,,,,,,,227.5340459998697,228.0250071999617,,,1,3.5742155998013914,,,,,,,,,,,,,,,,,,,,,228.02501819981262,234.027772099711,Rucksack,matt,"['Rucksack', 'matt']",restudy,2,"['Telefon', 'Flasche', 'Uhr', 'Hammer', 'Kerze', 'Hut', 'Bürste', 'Würfel', 'Kamera', 'Fahrrad', 'Tasche', 'Schlüssel', 'Socke', 'Buch', 'Ring', 'Stift', 'Kette', 'Eimer', 'Jacke', 'Kiste', 'Geige', 'Trommel', 'Schere', 'Tasse', 'Löffel', 'Rucksack', 'Blume', 'Vase', 'Brille', 'Lampe']","['hübsch', 'flauschig', 'kratzig', 'dick', 'zart', 'neu', 'dunkel', 'blass', 'kurz', 'kalt', 'flach', 'kaputt', 'niedlich', 'glatt', 'groß', 'nass', 'breit', 'praktisch', 'bunt', 'durchsichtig', 'winzig', 'nachhaltig', 'hässlich', 'verspielt', 'schlicht', 'matt']",1,3.5742155998013914,None,,,,,,,,,,,,,,,,,,,,,,,,,,,,,,,,,,,,,,,,,,,,,,,,,,,,,,,,,,,,,,,,,2,2024-01-16_10h39.49.705,watkins1,2023.2.3,99.74146990636673,89,2024-01-16 10h39.56.788832 +0000,
,,,,,,,26,0,26,0,,,,,,,,,,,,,,,,,234.03732719970867,,,,,,,,,,,,234.0282954997383,234.51942239981145,,,1,1.4636916001327336,,,,,,,,,,,,,,,,,,,,,234.5194338997826,240.5296871997416,Blume,glänzend,"['Blume', 'glänzend']",test_sub,2,"['Telefon', 'Flasche', 'Uhr', 'Hammer', 'Kerze', 'Hut', 'Bürste', 'Würfel', 'Kamera', 'Fahrrad', 'Tasche', 'Schlüssel', 'Socke', 'Buch', 'Ring', 'Stift', 'Kette', 'Eimer', 'Jacke', 'Kiste', 'Geige', 'Trommel', 'Schere', 'Tasse', 'Löffel', 'Rucksack', 'Blume', 'Vase', 'Brille', 'Lampe']","['hübsch', 'flauschig', 'kratzig', 'dick', 'zart', 'neu', 'dunkel', 'blass', 'kurz', 'kalt', 'flach', 'kaputt', 'niedlich', 'glatt', 'groß', 'nass', 'breit', 'praktisch', 'bunt', 'durchsichtig', 'winzig', 'nachhaltig', 'hässlich', 'verspielt', 'schlicht', 'matt', 'glänzend']",1,1.4636916001327336,None,,,,,,,,,,,,,,,,,,,,,,,,,,,,,,,,,,,,,,,,,,,,,,,,,,,,,,,,,,,,,,,,,2,2024-01-16_10h39.49.705,watkins1,2023.2.3,99.74146990636673,89,2024-01-16 10h39.56.788832 +0000,
,,,,,,,27,0,27,0,,,,,,,,,,,,,,,,,240.53922230005264,,,,,,,,,,,,240.53021589992568,241.02120900014415,,,1,3.129540199879557,,,,,,,,,,,,,,,,,,,,,241.02121939975768,247.02965029980987,Vase,robust,"['Vase', 'robust']",restudy,2,"['Telefon', 'Flasche', 'Uhr', 'Hammer', 'Kerze', 'Hut', 'Bürste', 'Würfel', 'Kamera', 'Fahrrad', 'Tasche', 'Schlüssel', 'Socke', 'Buch', 'Ring', 'Stift', 'Kette', 'Eimer', 'Jacke', 'Kiste', 'Geige', 'Trommel', 'Schere', 'Tasse', 'Löffel', 'Rucksack', 'Blume', 'Vase', 'Brille', 'Lampe']","['hübsch', 'flauschig', 'kratzig', 'dick', 'zart', 'neu', 'dunkel', 'blass', 'kurz', 'kalt', 'flach', 'kaputt', 'niedlich', 'glatt', 'groß', 'nass', 'breit', 'praktisch', 'bunt', 'durchsichtig', 'winzig', 'nachhaltig', 'hässlich', 'verspielt', 'schlicht', 'matt', 'glänzend', 'robust']",1,3.129540199879557,None,,,,,,,,,,,,,,,,,,,,,,,,,,,,,,,,,,,,,,,,,,,,,,,,,,,,,,,,,,,,,,,,,2,2024-01-16_10h39.49.705,watkins1,2023.2.3,99.74146990636673,89,2024-01-16 10h39.56.788832 +0000,
,,,,,,,28,0,28,0,,,,,,,,,,,,,,,,,247.03912149975076,,,,,,,,,,,,247.03017409984022,247.52115370007232,,,1,2.6386210997588933,,,,,,,,,,,,,,,,,,,,,247.5211650999263,253.52378789987415,Brille,hohl,"['Brille', 'hohl']",restudy,2,"['Telefon', 'Flasche', 'Uhr', 'Hammer', 'Kerze', 'Hut', 'Bürste', 'Würfel', 'Kamera', 'Fahrrad', 'Tasche', 'Schlüssel', 'Socke', 'Buch', 'Ring', 'Stift', 'Kette', 'Eimer', 'Jacke', 'Kiste', 'Geige', 'Trommel', 'Schere', 'Tasse', 'Löffel', 'Rucksack', 'Blume', 'Vase', 'Brille', 'Lampe']","['hübsch', 'flauschig', 'kratzig', 'dick', 'zart', 'neu', 'dunkel', 'blass', 'kurz', 'kalt', 'flach', 'kaputt', 'niedlich', 'glatt', 'groß', 'nass', 'breit', 'praktisch', 'bunt', 'durchsichtig', 'winzig', 'nachhaltig', 'hässlich', 'verspielt', 'schlicht', 'matt', 'glänzend', 'robust', 'hohl']",1,2.6386210997588933,None,,,,,,,,,,,,,,,,,,,,,,,,,,,,,,,,,,,,,,,,,,,,,,,,,,,,,,,,,,,,,,,,,2,2024-01-16_10h39.49.705,watkins1,2023.2.3,99.74146990636673,89,2024-01-16 10h39.56.788832 +0000,
,,,,,,,29,0,29,0,,,,,,,,,,,,,,,,,253.53317820001394,,,,,,,,,,,,253.52444540010765,254.01526389969513,,,1,2.903599000070244,,,,,,,,,,,,,,,,,,,,,254.0152758997865,260.0252421000041,Lampe,biegsam,"['Lampe', 'biegsam']",restudy,2,"['Telefon', 'Flasche', 'Uhr', 'Hammer', 'Kerze', 'Hut', 'Bürste', 'Würfel', 'Kamera', 'Fahrrad', 'Tasche', 'Schlüssel', 'Socke', 'Buch', 'Ring', 'Stift', 'Kette', 'Eimer', 'Jacke', 'Kiste', 'Geige', 'Trommel', 'Schere', 'Tasse', 'Löffel', 'Rucksack', 'Blume', 'Vase', 'Brille', 'Lampe']","['hübsch', 'flauschig', 'kratzig', 'dick', 'zart', 'neu', 'dunkel', 'blass', 'kurz', 'kalt', 'flach', 'kaputt', 'niedlich', 'glatt', 'groß', 'nass', 'breit', 'praktisch', 'bunt', 'durchsichtig', 'winzig', 'nachhaltig', 'hässlich', 'verspielt', 'schlicht', 'matt', 'glänzend', 'robust', 'hohl', 'biegsam']",1,2.903599000070244,None,,,,,,,,,,,,,,,,,,,,,,,,,,,,,,,,,,,,,,,,,,,,,,,,,,,,,,,,,,,,,,,,,2,2024-01-16_10h39.49.705,watkins1,2023.2.3,99.74146990636673,89,2024-01-16 10h39.56.788832 +0000,
,,,,,,,,,,,0,0,0,0,,,,,,,,,,,,,260.0347770997323,,,,,,,,,,,,260.0260932999663,260.51684449985623,,,[],[],,,,,,,,,,,,None,None,,,,,,,,,,Brille,hohl,"['Brille', 'hohl']",restudy,2,,,,,,260.02601819997653,260.02606619987637,"['Brille', 'Fahrrad', 'Jacke', 'Tasse', 'Telefon', 'Lampe', 'Löffel', 'Kerze', 'Bürste', 'Vase', 'Hammer', 'Trommel', 'Uhr', 'Hut', 'Kiste', 'Tasche', 'Rucksack', 'Schere', 'Blume', 'Socke', 'Kamera', 'Würfel', 'Kette', 'Buch', 'Stift', 'Geige', 'Schlüssel', 'Flasche', 'Ring', 'Eimer']",260.51685639983043,260.51970320008695,None,260.5198854999617,266.5228527998552,1,2.6314882999286056,None,266.52329250006005,266.5259398999624,None,266.5262730997056,266.52749749971554,266.5275094998069,266.5285720000975,,,,,,,,,,,,,,,,,,,,,,,,,,,,,,,,,,,,,,,,,,,,,,,2,2024-01-16_10h39.49.705,watkins1,2023.2.3,99.74146990636673,89,2024-01-16 10h39.56.788832 +0000,
,,,,,,,,,,,1,0,1,0,,,,,,,,,,,,,266.5322650996968,,,,,,,,,,,,266.5288545000367,267.02451530005783,,,[],[],,,,,,,,,,,,3.1014403998851776,None,,,,,Fahrrad,,,,,Fahrrad,kalt,"['Fahrrad', 'kalt']",test_sub,2,,,,,,266.52878940012306,266.5288271000609,"['Brille', 'Fahrrad', 'Jacke', 'Tasse', 'Telefon', 'Lampe', 'Löffel', 'Kerze', 'Bürste', 'Vase', 'Hammer', 'Trommel', 'Uhr', 'Hut', 'Kiste', 'Tasche', 'Rucksack', 'Schere', 'Blume', 'Socke', 'Kamera', 'Würfel', 'Kette', 'Buch', 'Stift', 'Geige', 'Schlüssel', 'Flasche', 'Ring', 'Eimer']",267.0245266999118,267.0272188000381,None,267.02734520006925,267.02881259983405,None,,,267.0289226998575,267.03039090009406,None,267.0304998997599,267.0317059000954,267.0317186997272,273.0352813000791,1,,,,,,,,,,,,,,,,,,,,,,,,,,,,,,,,,,,,,,,,,,,,,,2,2024-01-16_10h39.49.705,watkins1,2023.2.3,99.74146990636673,89,2024-01-16 10h39.56.788832 +0000,
,,,,,,,,,,,2,0,2,0,,,,,,,,,,,,,273.04505810001865,,,,,,,,,,,,273.03555679973215,273.52711839973927,,,[],[],,,,,,,,,,,,1.235914499964565,None,,,,,Jacke,,,,,Jacke,bunt,"['Jacke', 'bunt']",test_sub,2,,,,,,273.03549159970134,273.0355282998644,"['Brille', 'Fahrrad', 'Jacke', 'Tasse', 'Telefon', 'Lampe', 'Löffel', 'Kerze', 'Bürste', 'Vase', 'Hammer', 'Trommel', 'Uhr', 'Hut', 'Kiste', 'Tasche', 'Rucksack', 'Schere', 'Blume', 'Socke', 'Kamera', 'Würfel', 'Kette', 'Buch', 'Stift', 'Geige', 'Schlüssel', 'Flasche', 'Ring', 'Eimer']",273.5271298997104,273.52971499972045,None,273.5298421001062,273.53226239979267,None,,,273.5323753999546,273.5347747998312,None,273.5348843000829,273.5360596999526,273.53607199992985,279.54205169994384,1,,,,,,,,,,,,,,,,,,,,,,,,,,,,,,,,,,,,,,,,,,,,,,2,2024-01-16_10h39.49.705,watkins1,2023.2.3,99.74146990636673,89,2024-01-16 10h39.56.788832 +0000,
,,,,,,,,,,,3,0,3,0,,,,,,,,,,,,,279.5519264000468,,,,,,,,,,,,279.5423301998526,280.03398329997435,,,[],[],,,,,,,,,,,,None,None,,,,,,,,,,Tasse,verspielt,"['Tasse', 'verspielt']",restudy,2,,,,,,279.54226449970156,279.54230220010504,"['Brille', 'Fahrrad', 'Jacke', 'Tasse', 'Telefon', 'Lampe', 'Löffel', 'Kerze', 'Bürste', 'Vase', 'Hammer', 'Trommel', 'Uhr', 'Hut', 'Kiste', 'Tasche', 'Rucksack', 'Schere', 'Blume', 'Socke', 'Kamera', 'Würfel', 'Kette', 'Buch', 'Stift', 'Geige', 'Schlüssel', 'Flasche', 'Ring', 'Eimer']",280.03399389982224,280.0365385999903,None,280.0366601999849,286.03765180008486,1,3.186905900016427,None,286.0379482000135,286.04064289992675,None,286.0407632999122,286.04190649976954,286.0419176998548,286.0434332997538,,,,,,,,,,,,,,,,,,,,,,,,,,,,,,,,,,,,,,,,,,,,,,,2,2024-01-16_10h39.49.705,watkins1,2023.2.3,99.74146990636673,89,2024-01-16 10h39.56.788832 +0000,
,,,,,,,,,,,4,0,4,0,,,,,,,,,,,,,286.04709480004385,,,,,,,,,,,,286.04371029976755,286.53917340002954,,,[],[],,,,,,,,,,,,None,None,,,,,,,,,,Telefon,hübsch,"['Telefon', 'hübsch']",restudy,2,,,,,,286.043647099752,286.04368400014937,"['Brille', 'Fahrrad', 'Jacke', 'Tasse', 'Telefon', 'Lampe', 'Löffel', 'Kerze', 'Bürste', 'Vase', 'Hammer', 'Trommel', 'Uhr', 'Hut', 'Kiste', 'Tasche', 'Rucksack', 'Schere', 'Blume', 'Socke', 'Kamera', 'Würfel', 'Kette', 'Buch', 'Stift', 'Geige', 'Schlüssel', 'Flasche', 'Ring', 'Eimer']",286.53918549977243,286.542023899965,None,286.5421492001042,292.5430328999646,1,1.6494090999476612,None,292.543327299878,292.54602289991453,None,292.5461331997067,292.5473274998367,292.54733930015936,292.54851619992405,,,,,,,,,,,,,,,,,,,,,,,,,,,,,,,,,,,,,,,,,,,,,,,2,2024-01-16_10h39.49.705,watkins1,2023.2.3,99.74146990636673,89,2024-01-16 10h39.56.788832 +0000,
,,,,,,,,,,,5,0,5,0,,,,,,,,,,,,,292.5525166001171,,,,,,,,,,,,292.54879789985716,293.04469250002876,,,[],[],,,,,,,,,,,,None,None,,,,,,,,,,Lampe,biegsam,"['Lampe', 'biegsam']",restudy,2,,,,,,292.54873250005767,292.54877110011876,"['Brille', 'Fahrrad', 'Jacke', 'Tasse', 'Telefon', 'Lampe', 'Löffel', 'Kerze', 'Bürste', 'Vase', 'Hammer', 'Trommel', 'Uhr', 'Hut', 'Kiste', 'Tasche', 'Rucksack', 'Schere', 'Blume', 'Socke', 'Kamera', 'Würfel', 'Kette', 'Buch', 'Stift', 'Geige', 'Schlüssel', 'Flasche', 'Ring', 'Eimer']",293.04470459977165,293.04738709982485,None,293.0475131999701,299.0483169001527,1,1.0960921002551913,None,299.04862299980596,299.0514118000865,None,299.051525299903,299.0526974000968,299.0527091999538,299.0539187998511,,,,,,,,,,,,,,,,,,,,,,,,,,,,,,,,,,,,,,,,,,,,,,,2,2024-01-16_10h39.49.705,watkins1,2023.2.3,99.74146990636673,89,2024-01-16 10h39.56.788832 +0000,
,,,,,,,,,,,6,0,6,0,,,,,,,,,,,,,299.0578104997985,,,,,,,,,,,,299.0542071997188,299.54983060015365,,,[],[],,,,,,,,,,,,5.752075599972159,None,,,,,ke,,,,,Löffel,schlicht,"['Löffel', 'schlicht']",test_sub,2,,,,,,299.05414230003953,299.0541801000945,"['Brille', 'Fahrrad', 'Jacke', 'Tasse', 'Telefon', 'Lampe', 'Löffel', 'Kerze', 'Bürste', 'Vase', 'Hammer', 'Trommel', 'Uhr', 'Hut', 'Kiste', 'Tasche', 'Rucksack', 'Schere', 'Blume', 'Socke', 'Kamera', 'Würfel', 'Kette', 'Buch', 'Stift', 'Geige', 'Schlüssel', 'Flasche', 'Ring', 'Eimer']",299.5498421997763,299.5525342999026,None,299.55266169970855,299.5540793999098,None,,,299.55418880004436,299.55561699997634,None,299.55572589999065,299.5568991000764,299.5569118000567,305.5604435997084,0,,,,,,,,,,,,,,,,,,,,,,,,,,,,,,,,,,,,,,,,,,,,,,2,2024-01-16_10h39.49.705,watkins1,2023.2.3,99.74146990636673,89,2024-01-16 10h39.56.788832 +0000,
,,,,,,,,,,,7,0,7,0,,,,,,,,,,,,,305.5703008999117,,,,,,,,,,,,305.56072619976476,306.0523461997509,,,[],[],,,,,,,,,,,,2.1799731999635696,None,,,,,Kerze,,,,,Kerze,zart,"['Kerze', 'zart']",test_sub,2,,,,,,305.56066109985113,305.5606974000111,"['Brille', 'Fahrrad', 'Jacke', 'Tasse', 'Telefon', 'Lampe', 'Löffel', 'Kerze', 'Bürste', 'Vase', 'Hammer', 'Trommel', 'Uhr', 'Hut', 'Kiste', 'Tasche', 'Rucksack', 'Schere', 'Blume', 'Socke', 'Kamera', 'Würfel', 'Kette', 'Buch', 'Stift', 'Geige', 'Schlüssel', 'Flasche', 'Ring', 'Eimer']",306.05235769972205,306.055199299939,None,306.0553303998895,306.05787910008803,None,,,306.057986699976,306.0605216999538,None,306.06062969984487,306.0617801998742,306.06179249985144,312.0675218999386,1,,,,,,,,,,,,,,,,,,,,,,,,,,,,,,,,,,,,,,,,,,,,,,2,2024-01-16_10h39.49.705,watkins1,2023.2.3,99.74146990636673,89,2024-01-16 10h39.56.788832 +0000,
,,,,,,,,,,,8,0,8,0,,,,,,,,,,,,,312.0772961000912,,,,,,,,,,,,312.06780479988083,312.55942489998415,,,[],[],,,,,,,,,,,,1.1660465002059937,None,,,,,Bürste,,,,,Bürste,dunkel,"['Bürste', 'dunkel']",test_sub,2,,,,,,312.0677375998348,312.067775500007,"['Brille', 'Fahrrad', 'Jacke', 'Tasse', 'Telefon', 'Lampe', 'Löffel', 'Kerze', 'Bürste', 'Vase', 'Hammer', 'Trommel', 'Uhr', 'Hut', 'Kiste', 'Tasche', 'Rucksack', 'Schere', 'Blume', 'Socke', 'Kamera', 'Würfel', 'Kette', 'Buch', 'Stift', 'Geige', 'Schlüssel', 'Flasche', 'Ring', 'Eimer']",312.55943599995226,312.5620566997677,None,312.5621821000241,312.56462009996176,None,,,312.5647295000963,312.567167500034,None,312.56727739982307,312.56847769999877,312.5684902998619,318.57491490012035,1,,,,,,,,,,,,,,,,,,,,,,,,,,,,,,,,,,,,,,,,,,,,,,2,2024-01-16_10h39.49.705,watkins1,2023.2.3,99.74146990636673,89,2024-01-16 10h39.56.788832 +0000,
,,,,,,,,,,,9,0,9,0,,,,,,,,,,,,,318.584772199858,,,,,,,,,,,,318.57519519980997,319.06675839982927,,,[],[],,,,,,,,,,,,None,None,,,,,,,,,,Vase,robust,"['Vase', 'robust']",restudy,2,,,,,,318.575128399767,318.5751666999422,"['Brille', 'Fahrrad', 'Jacke', 'Tasse', 'Telefon', 'Lampe', 'Löffel', 'Kerze', 'Bürste', 'Vase', 'Hammer', 'Trommel', 'Uhr', 'Hut', 'Kiste', 'Tasche', 'Rucksack', 'Schere', 'Blume', 'Socke', 'Kamera', 'Würfel', 'Kette', 'Buch', 'Stift', 'Geige', 'Schlüssel', 'Flasche', 'Ring', 'Eimer']",319.0667690997943,319.06935330014676,None,319.06947720004246,325.07065839972347,1,1.9779791003093123,None,325.0709538999945,325.0735324998386,None,325.0736452001147,325.0747263999656,325.0747380000539,325.0762275001034,,,,,,,,,,,,,,,,,,,,,,,,,,,,,,,,,,,,,,,,,,,,,,,2,2024-01-16_10h39.49.705,watkins1,2023.2.3,99.74146990636673,89,2024-01-16 10h39.56.788832 +0000,
,,,,,,,,,,,10,0,10,0,,,,,,,,,,,,,325.0801395997405,,,,,,,,,,,,325.07651120005175,325.57224299991503,,,[],[],,,,,,,,,,,,4.33595160022378,None,,,,,,,,,,Hammer,dick,"['Hammer', 'dick']",test_sub,2,,,,,,325.07644530013204,325.07648369995877,"['Brille', 'Fahrrad', 'Jacke', 'Tasse', 'Telefon', 'Lampe', 'Löffel', 'Kerze', 'Bürste', 'Vase', 'Hammer', 'Trommel', 'Uhr', 'Hut', 'Kiste', 'Tasche', 'Rucksack', 'Schere', 'Blume', 'Socke', 'Kamera', 'Würfel', 'Kette', 'Buch', 'Stift', 'Geige', 'Schlüssel', 'Flasche', 'Ring', 'Eimer']",325.5722543001175,325.57495669974014,None,325.5750829000026,325.57650389987975,None,,,325.5766118997708,325.5782146998681,None,325.5783220999874,325.5794885000214,325.5795009001158,331.5824891999364,0,,,,,,,,,,,,,,,,,,,,,,,,,,,,,,,,,,,,,,,,,,,,,,2,2024-01-16_10h39.49.705,watkins1,2023.2.3,99.74146990636673,89,2024-01-16 10h39.56.788832 +0000,
,,,,,,,,,,,11,0,11,0,,,,,,,,,,,,,331.5923450998962,,,,,,,,,,,,331.5827657999471,332.0743205999024,,,[],[],,,,,,,,,,,,None,None,,,,,,,,,,Trommel,nachhaltig,"['Trommel', 'nachhaltig']",restudy,2,,,,,,331.5827012001537,331.58273739973083,"['Brille', 'Fahrrad', 'Jacke', 'Tasse', 'Telefon', 'Lampe', 'Löffel', 'Kerze', 'Bürste', 'Vase', 'Hammer', 'Trommel', 'Uhr', 'Hut', 'Kiste', 'Tasche', 'Rucksack', 'Schere', 'Blume', 'Socke', 'Kamera', 'Würfel', 'Kette', 'Buch', 'Stift', 'Geige', 'Schlüssel', 'Flasche', 'Ring', 'Eimer']",332.0743317999877,332.0769151998684,None,332.0770395998843,338.0789203001186,1,2.098485399968922,None,338.0792200998403,338.0820418000221,None,338.0821517999284,338.0833586999215,338.08337030000985,338.0846311999485,,,,,,,,,,,,,,,,,,,,,,,,,,,,,,,,,,,,,,,,,,,,,,,2,2024-01-16_10h39.49.705,watkins1,2023.2.3,99.74146990636673,89,2024-01-16 10h39.56.788832 +0000,
,,,,,,,,,,,12,0,12,0,,,,,,,,,,,,,338.0883992998861,,,,,,,,,,,,338.0849171001464,338.5804955000058,,,[],[],,,,,,,,,,,,None,None,,,,,,,,,,Uhr,kratzig,"['Uhr', 'kratzig']",test_sub,2,,,,,,338.08485099999234,338.08488949993625,"['Brille', 'Fahrrad', 'Jacke', 'Tasse', 'Telefon', 'Lampe', 'Löffel', 'Kerze', 'Bürste', 'Vase', 'Hammer', 'Trommel', 'Uhr', 'Hut', 'Kiste', 'Tasche', 'Rucksack', 'Schere', 'Blume', 'Socke', 'Kamera', 'Würfel', 'Kette', 'Buch', 'Stift', 'Geige', 'Schlüssel', 'Flasche', 'Ring', 'Eimer']",338.58050739998,338.5831586997956,None,338.5832869000733,338.5845725000836,None,,,338.58467989973724,338.58595199976116,None,338.58605869999155,338.58707539970055,338.5870881001465,344.58997969981283,0,,,,,,,,,,,,,,,,,,,,,,,,,,,,,,,,,,,,,,,,,,,,,,2,2024-01-16_10h39.49.705,watkins1,2023.2.3,99.74146990636673,89,2024-01-16 10h39.56.788832 +0000,
,,,,,,,,,,,13,0,13,0,,,,,,,,,,,,,344.59981099981815,,,,,,,,,,,,344.5902629997581,345.0816299999133,,,[],[],,,,,,,,,,,,5.623512499965727,None,,,,,Hu,,,,,Hut,neu,"['Hut', 'neu']",test_sub,2,,,,,,344.59019699972123,344.59023319976404,"['Brille', 'Fahrrad', 'Jacke', 'Tasse', 'Telefon', 'Lampe', 'Löffel', 'Kerze', 'Bürste', 'Vase', 'Hammer', 'Trommel', 'Uhr', 'Hut', 'Kiste', 'Tasche', 'Rucksack', 'Schere', 'Blume', 'Socke', 'Kamera', 'Würfel', 'Kette', 'Buch', 'Stift', 'Geige', 'Schlüssel', 'Flasche', 'Ring', 'Eimer']",345.0816417001188,345.08428960014135,None,345.0844161999412,345.08686230005696,None,,,345.08697429997846,345.08939060010016,None,345.0894993999973,345.090599199757,345.0906116999686,351.09579299995676,0,,,,,,,,,,,,,,,,,,,,,,,,,,,,,,,,,,,,,,,,,,,,,,2,2024-01-16_10h39.49.705,watkins1,2023.2.3,99.74146990636673,89,2024-01-16 10h39.56.788832 +0000,
,,,,,,,,,,,14,0,14,0,,,,,,,,,,,,,351.1056375997141,,,,,,,,,,,,351.0960727999918,351.58776989998296,,,[],[],,,,,,,,,,,,1.6074469997547567,None,,,,,Kiste,,,,,Kiste,durchsichtig,"['Kiste', 'durchsichtig']",test_sub,2,,,,,,351.09600539971143,351.09604270011187,"['Brille', 'Fahrrad', 'Jacke', 'Tasse', 'Telefon', 'Lampe', 'Löffel', 'Kerze', 'Bürste', 'Vase', 'Hammer', 'Trommel', 'Uhr', 'Hut', 'Kiste', 'Tasche', 'Rucksack', 'Schere', 'Blume', 'Socke', 'Kamera', 'Würfel', 'Kette', 'Buch', 'Stift', 'Geige', 'Schlüssel', 'Flasche', 'Ring', 'Eimer']",351.58778119971976,351.59032279998064,None,351.59045160003006,351.5928241997026,None,,,351.5929330997169,351.59530150005594,None,351.59540960006416,351.59657440008596,351.5965867000632,357.6021126001142,1,,,,,,,,,,,,,,,,,,,,,,,,,,,,,,,,,,,,,,,,,,,,,,2,2024-01-16_10h39.49.705,watkins1,2023.2.3,99.74146990636673,89,2024-01-16 10h39.56.788832 +0000,
,,,,,,,,,,,15,0,15,0,,,,,,,,,,,,,357.6119631999172,,,,,,,,,,,,357.60240059997886,358.09424560004845,,,[],[],,,,,,,,,,,,None,None,,,,,,,,,,Tasche,flach,"['Tasche', 'flach']",restudy,2,,,,,,357.60233329981565,357.602371300105,"['Brille', 'Fahrrad', 'Jacke', 'Tasse', 'Telefon', 'Lampe', 'Löffel', 'Kerze', 'Bürste', 'Vase', 'Hammer', 'Trommel', 'Uhr', 'Hut', 'Kiste', 'Tasche', 'Rucksack', 'Schere', 'Blume', 'Socke', 'Kamera', 'Würfel', 'Kette', 'Buch', 'Stift', 'Geige', 'Schlüssel', 'Flasche', 'Ring', 'Eimer']",358.09425600012764,358.0971419000998,None,358.097264399752,364.0998315997422,1,1.342291499953717,None,364.10012969980016,364.1027719997801,None,364.1028832998127,364.104045599699,364.1040566000156,364.1054989998229,,,,,,,,,,,,,,,,,,,,,,,,,,,,,,,,,,,,,,,,,,,,,,,2,2024-01-16_10h39.49.705,watkins1,2023.2.3,99.74146990636673,89,2024-01-16 10h39.56.788832 +0000,
,,,,,,,,,,,16,0,16,0,,,,,,,,,,,,,364.1093115997501,,,,,,,,,,,,364.1057760999538,364.60114679997787,,,[],[],,,,,,,,,,,,None,None,,,,,,,,,,Rucksack,matt,"['Rucksack', 'matt']",restudy,2,,,,,,364.1057122000493,364.1057493998669,"['Brille', 'Fahrrad', 'Jacke', 'Tasse', 'Telefon', 'Lampe', 'Löffel', 'Kerze', 'Bürste', 'Vase', 'Hammer', 'Trommel', 'Uhr', 'Hut', 'Kiste', 'Tasche', 'Rucksack', 'Schere', 'Blume', 'Socke', 'Kamera', 'Würfel', 'Kette', 'Buch', 'Stift', 'Geige', 'Schlüssel', 'Flasche', 'Ring', 'Eimer']",364.6011585998349,364.60392009979114,None,364.6040507997386,370.6052194000222,1,2.123464799951762,None,370.6055227997713,370.60818079998717,None,370.60829279990867,370.60953409969807,370.60954590002075,370.61061810003594,,,,,,,,,,,,,,,,,,,,,,,,,,,,,,,,,,,,,,,,,,,,,,,2,2024-01-16_10h39.49.705,watkins1,2023.2.3,99.74146990636673,89,2024-01-16 10h39.56.788832 +0000,
,,,,,,,,,,,17,0,17,0,,,,,,,,,,,,,370.61471370002255,,,,,,,,,,,,370.610902399756,371.10719579970464,,,[],[],,,,,,,,,,,,None,None,,,,,,,,,,Schere,hässlich,"['Schere', 'hässlich']",restudy,2,,,,,,370.6108359997161,370.6108750998974,"['Brille', 'Fahrrad', 'Jacke', 'Tasse', 'Telefon', 'Lampe', 'Löffel', 'Kerze', 'Bürste', 'Vase', 'Hammer', 'Trommel', 'Uhr', 'Hut', 'Kiste', 'Tasche', 'Rucksack', 'Schere', 'Blume', 'Socke', 'Kamera', 'Würfel', 'Kette', 'Buch', 'Stift', 'Geige', 'Schlüssel', 'Flasche', 'Ring', 'Eimer']",371.1072072000243,371.1097522000782,None,371.10987660009414,377.11203789990395,1,1.7937384997494519,None,377.11233309982345,377.1150893997401,None,377.1152041000314,377.11639750003815,377.1164095001295,377.11763860005885,,,,,,,,,,,,,,,,,,,,,,,,,,,,,,,,,,,,,,,,,,,,,,,2,2024-01-16_10h39.49.705,watkins1,2023.2.3,99.74146990636673,89,2024-01-16 10h39.56.788832 +0000,
,,,,,,,,,,,18,0,18,0,,,,,,,,,,,,,377.12155429972336,,,,,,,,,,,,377.11792579991743,377.61375130014494,,,[],[],,,,,,,,,,,,3.1316577000543475,None,,,,,?,,,,,Blume,glänzend,"['Blume', 'glänzend']",test_sub,2,,,,,,377.11786030000076,377.11789890006185,"['Brille', 'Fahrrad', 'Jacke', 'Tasse', 'Telefon', 'Lampe', 'Löffel', 'Kerze', 'Bürste', 'Vase', 'Hammer', 'Trommel', 'Uhr', 'Hut', 'Kiste', 'Tasche', 'Rucksack', 'Schere', 'Blume', 'Socke', 'Kamera', 'Würfel', 'Kette', 'Buch', 'Stift', 'Geige', 'Schlüssel', 'Flasche', 'Ring', 'Eimer']",377.6137626999989,377.616514199879,None,377.6166420998052,377.6180763999,None,,,377.6181860999204,377.61962889973074,None,377.6197366998531,377.6209056000225,377.6209177998826,383.6245315000415,0,,,,,,,,,,,,,,,,,,,,,,,,,,,,,,,,,,,,,,,,,,,,,,2,2024-01-16_10h39.49.705,watkins1,2023.2.3,99.74146990636673,89,2024-01-16 10h39.56.788832 +0000,
,,,,,,,,,,,19,0,19,0,,,,,,,,,,,,,383.6343183000572,,,,,,,,,,,,383.6248115999624,384.1164098000154,,,[],[],,,,,,,,,,,,2.792721400037408,None,,,,,Socke,,,,,Socke,niedlich,"['Socke', 'niedlich']",test_sub,2,,,,,,383.62474619969726,383.6247828998603,"['Brille', 'Fahrrad', 'Jacke', 'Tasse', 'Telefon', 'Lampe', 'Löffel', 'Kerze', 'Bürste', 'Vase', 'Hammer', 'Trommel', 'Uhr', 'Hut', 'Kiste', 'Tasche', 'Rucksack', 'Schere', 'Blume', 'Socke', 'Kamera', 'Würfel', 'Kette', 'Buch', 'Stift', 'Geige', 'Schlüssel', 'Flasche', 'Ring', 'Eimer']",384.1164206000976,384.1192390997894,None,384.11936410004273,384.12189670000225,None,,,384.12200650013983,384.12454740004614,None,384.12465409981087,384.12586170015857,384.12587390001863,390.1317588998936,1,,,,,,,,,,,,,,,,,,,,,,,,,,,,,,,,,,,,,,,,,,,,,,2,2024-01-16_10h39.49.705,watkins1,2023.2.3,99.74146990636673,89,2024-01-16 10h39.56.788832 +0000,
,,,,,,,,,,,20,0,20,0,,,,,,,,,,,,,390.1416615997441,,,,,,,,,,,,390.1320460997522,390.6238824999891,,,[],[],,,,,,,,,,,,None,None,,,,,,,,,,Kamera,kurz,"['Kamera', 'kurz']",restudy,2,,,,,,390.13197899982333,390.13201679987833,"['Brille', 'Fahrrad', 'Jacke', 'Tasse', 'Telefon', 'Lampe', 'Löffel', 'Kerze', 'Bürste', 'Vase', 'Hammer', 'Trommel', 'Uhr', 'Hut', 'Kiste', 'Tasche', 'Rucksack', 'Schere', 'Blume', 'Socke', 'Kamera', 'Würfel', 'Kette', 'Buch', 'Stift', 'Geige', 'Schlüssel', 'Flasche', 'Ring', 'Eimer']",390.6238961997442,390.62666339986026,None,390.62679080013186,396.63730830000713,1,1.621037000324577,None,396.637614000123,396.6401793998666,None,396.6402908000164,396.64147449983284,396.64148620003834,396.6428354997188,,,,,,,,,,,,,,,,,,,,,,,,,,,,,,,,,,,,,,,,,,,,,,,2,2024-01-16_10h39.49.705,watkins1,2023.2.3,99.74146990636673,89,2024-01-16 10h39.56.788832 +0000,
,,,,,,,,,,,21,0,21,0,,,,,,,,,,,,,396.6467403997667,,,,,,,,,,,,396.6431197999045,397.1388928000815,,,[],[],,,,,,,,,,,,None,None,,,,,,,,,,Würfel,blass,"['Würfel', 'blass']",restudy,2,,,,,,396.6430546999909,396.64309290004894,"['Brille', 'Fahrrad', 'Jacke', 'Tasse', 'Telefon', 'Lampe', 'Löffel', 'Kerze', 'Bürste', 'Vase', 'Hammer', 'Trommel', 'Uhr', 'Hut', 'Kiste', 'Tasche', 'Rucksack', 'Schere', 'Blume', 'Socke', 'Kamera', 'Würfel', 'Kette', 'Buch', 'Stift', 'Geige', 'Schlüssel', 'Flasche', 'Ring', 'Eimer']",397.13890379993245,397.14145589992404,None,397.14158209972084,403.142795199994,1,0.9378603999502957,None,403.1431058999151,403.22308119991794,None,403.2232367997058,403.224738500081,403.2247532000765,403.2261879998259,,,,,,,,,,,,,,,,,,,,,,,,,,,,,,,,,,,,,,,,,,,,,,,2,2024-01-16_10h39.49.705,watkins1,2023.2.3,99.74146990636673,89,2024-01-16 10h39.56.788832 +0000,
,,,,,,,,,,,22,0,22,0,,,,,,,,,,,,,403.23013819986954,,,,,,,,,,,,403.2265558000654,403.72560410015285,,,[],[],,,,,,,,,,,,1.7855532998219132,None,,,,,Kette,,,,,Kette,breit,"['Kette', 'breit']",test_sub,2,,,,,,403.2264653998427,403.2265232997015,"['Brille', 'Fahrrad', 'Jacke', 'Tasse', 'Telefon', 'Lampe', 'Löffel', 'Kerze', 'Bürste', 'Vase', 'Hammer', 'Trommel', 'Uhr', 'Hut', 'Kiste', 'Tasche', 'Rucksack', 'Schere', 'Blume', 'Socke', 'Kamera', 'Würfel', 'Kette', 'Buch', 'Stift', 'Geige', 'Schlüssel', 'Flasche', 'Ring', 'Eimer']",403.725615600124,403.72824449976906,None,403.7283696997911,403.7297811997123,None,,,403.7298878999427,403.7314495998435,None,403.73155710007995,403.7327068001032,403.7327193999663,409.73567389976233,1,,,,,,,,,,,,,,,,,,,,,,,,,,,,,,,,,,,,,,,,,,,,,,2,2024-01-16_10h39.49.705,watkins1,2023.2.3,99.74146990636673,89,2024-01-16 10h39.56.788832 +0000,
,,,,,,,,,,,23,0,23,0,,,,,,,,,,,,,409.74552519991994,,,,,,,,,,,,409.7359549999237,410.2276479997672,,,[],[],,,,,,,,,,,,None,None,,,,,,,,,,Buch,glatt,"['Buch', 'glatt']",restudy,2,,,,,,409.735889100004,409.7359261997044,"['Brille', 'Fahrrad', 'Jacke', 'Tasse', 'Telefon', 'Lampe', 'Löffel', 'Kerze', 'Bürste', 'Vase', 'Hammer', 'Trommel', 'Uhr', 'Hut', 'Kiste', 'Tasche', 'Rucksack', 'Schere', 'Blume', 'Socke', 'Kamera', 'Würfel', 'Kette', 'Buch', 'Stift', 'Geige', 'Schlüssel', 'Flasche', 'Ring', 'Eimer']",410.22765940008685,410.2302385000512,None,410.23036570008844,416.2385958000086,3,2.0331692998297513,None,416.2388880001381,416.24141070013866,None,416.241521500051,416.2425536001101,416.2425648998469,416.2440093997866,,,,,,,,,,,,,,,,,,,,,,,,,,,,,,,,,,,,,,,,,,,,,,,2,2024-01-16_10h39.49.705,watkins1,2023.2.3,99.74146990636673,89,2024-01-16 10h39.56.788832 +0000,
,,,,,,,,,,,24,0,24,0,,,,,,,,,,,,,416.2480695997365,,,,,,,,,,,,416.2442918997258,416.74007460009307,,,[],[],,,,,,,,,,,,3.75348149985075,None,,,,,Stift,,,,,Stift,nass,"['Stift', 'nass']",test_sub,2,,,,,,416.24422510014847,416.2442649998702,"['Brille', 'Fahrrad', 'Jacke', 'Tasse', 'Telefon', 'Lampe', 'Löffel', 'Kerze', 'Bürste', 'Vase', 'Hammer', 'Trommel', 'Uhr', 'Hut', 'Kiste', 'Tasche', 'Rucksack', 'Schere', 'Blume', 'Socke', 'Kamera', 'Würfel', 'Kette', 'Buch', 'Stift', 'Geige', 'Schlüssel', 'Flasche', 'Ring', 'Eimer']",416.74008599994704,416.7426939997822,None,416.7428163997829,416.7442169999704,None,,,416.74432489974424,416.7457217001356,None,416.74582970002666,416.7471329998225,416.7471455000341,422.74989529978484,1,,,,,,,,,,,,,,,,,,,,,,,,,,,,,,,,,,,,,,,,,,,,,,2,2024-01-16_10h39.49.705,watkins1,2023.2.3,99.74146990636673,89,2024-01-16 10h39.56.788832 +0000,
,,,,,,,,,,,25,0,25,0,,,,,,,,,,,,,422.7597604999319,,,,,,,,,,,,422.75018039997667,423.2417084998451,,,[],[],,,,,,,,,,,,3.304115599952638,None,,,,,?,,,,,Geige,winzig,"['Geige', 'winzig']",test_sub,2,,,,,,422.75010869977996,422.7501461999491,"['Brille', 'Fahrrad', 'Jacke', 'Tasse', 'Telefon', 'Lampe', 'Löffel', 'Kerze', 'Bürste', 'Vase', 'Hammer', 'Trommel', 'Uhr', 'Hut', 'Kiste', 'Tasche', 'Rucksack', 'Schere', 'Blume', 'Socke', 'Kamera', 'Würfel', 'Kette', 'Buch', 'Stift', 'Geige', 'Schlüssel', 'Flasche', 'Ring', 'Eimer']",423.2417191998102,423.24427209980786,None,423.2443971997127,423.2468690997921,None,,,423.24698149971664,423.24936509970576,None,423.24947399972007,423.25062249973416,423.25063510006294,429.2561889998615,0,,,,,,,,,,,,,,,,,,,,,,,,,,,,,,,,,,,,,,,,,,,,,,2,2024-01-16_10h39.49.705,watkins1,2023.2.3,99.74146990636673,89,2024-01-16 10h39.56.788832 +0000,
,,,,,,,,,,,26,0,26,0,,,,,,,,,,,,,429.26598870009184,,,,,,,,,,,,429.2564721000381,429.747964899987,,,[],[],,,,,,,,,,,,None,None,,,,,,,,,,Schlüssel,kaputt,"['Schlüssel', 'kaputt']",restudy,2,,,,,,429.25640489999205,429.25644279969856,"['Brille', 'Fahrrad', 'Jacke', 'Tasse', 'Telefon', 'Lampe', 'Löffel', 'Kerze', 'Bürste', 'Vase', 'Hammer', 'Trommel', 'Uhr', 'Hut', 'Kiste', 'Tasche', 'Rucksack', 'Schere', 'Blume', 'Socke', 'Kamera', 'Würfel', 'Kette', 'Buch', 'Stift', 'Geige', 'Schlüssel', 'Flasche', 'Ring', 'Eimer']",429.747976699844,429.75078999996185,None,429.7509181997739,435.75499029969797,1,1.3364149001426995,None,435.7552820998244,435.7580156000331,None,435.7581267999485,435.75936389993876,435.75937579991296,435.7608464998193,,,,,,,,,,,,,,,,,,,,,,,,,,,,,,,,,,,,,,,,,,,,,,,2,2024-01-16_10h39.49.705,watkins1,2023.2.3,99.74146990636673,89,2024-01-16 10h39.56.788832 +0000,
,,,,,,,,,,,27,0,27,0,,,,,,,,,,,,,435.7644623001106,,,,,,,,,,,,435.7611275999807,436.25659909984097,,,[],[],,,,,,,,,,,,None,None,,,,,,,,,,Flasche,flauschig,"['Flasche', 'flauschig']",restudy,2,,,,,,435.7610627999529,435.7611007001251,"['Brille', 'Fahrrad', 'Jacke', 'Tasse', 'Telefon', 'Lampe', 'Löffel', 'Kerze', 'Bürste', 'Vase', 'Hammer', 'Trommel', 'Uhr', 'Hut', 'Kiste', 'Tasche', 'Rucksack', 'Schere', 'Blume', 'Socke', 'Kamera', 'Würfel', 'Kette', 'Buch', 'Stift', 'Geige', 'Schlüssel', 'Flasche', 'Ring', 'Eimer']",436.25661049969494,436.25951549969614,None,436.25964649999514,442.26360599976033,1,1.3559324000962079,None,442.2639180999249,442.2667165999301,None,442.2668289998546,442.26803050003946,442.2680421001278,442.2693692999892,,,,,,,,,,,,,,,,,,,,,,,,,,,,,,,,,,,,,,,,,,,,,,,2,2024-01-16_10h39.49.705,watkins1,2023.2.3,99.74146990636673,89,2024-01-16 10h39.56.788832 +0000,
,,,,,,,,,,,28,0,28,0,,,,,,,,,,,,,442.2731336997822,,,,,,,,,,,,442.26965759973973,442.7651542997919,,,[],[],,,,,,,,,,,,None,None,,,,,,,,,,Ring,groß,"['Ring', 'groß']",restudy,2,,,,,,442.269590199925,442.2696301001124,"['Brille', 'Fahrrad', 'Jacke', 'Tasse', 'Telefon', 'Lampe', 'Löffel', 'Kerze', 'Bürste', 'Vase', 'Hammer', 'Trommel', 'Uhr', 'Hut', 'Kiste', 'Tasche', 'Rucksack', 'Schere', 'Blume', 'Socke', 'Kamera', 'Würfel', 'Kette', 'Buch', 'Stift', 'Geige', 'Schlüssel', 'Flasche', 'Ring', 'Eimer']",442.76516559999436,442.76780609972775,None,442.76793139986694,448.77223919983953,1,1.1757730999961495,None,448.7725360998884,448.7749135000631,None,448.77502529975027,448.7760600997135,448.7760720998049,448.77710009971634,,,,,,,,,,,,,,,,,,,,,,,,,,,,,,,,,,,,,,,,,,,,,,,2,2024-01-16_10h39.49.705,watkins1,2023.2.3,99.74146990636673,89,2024-01-16 10h39.56.788832 +0000,
,,,,,,,,,,,29,0,29,0,,,,,,,,,,,,,448.7817452000454,,,,,,,,,,,,448.77738469978794,449.27384949987754,,,[],[],,,,,,,,,,,,3.1409993995912373,None,,,,,Eimer,,,,,Eimer,praktisch,"['Eimer', 'praktisch']",test_sub,2,,,,,,448.77731999987736,448.7773576998152,"['Brille', 'Fahrrad', 'Jacke', 'Tasse', 'Telefon', 'Lampe', 'Löffel', 'Kerze', 'Bürste', 'Vase', 'Hammer', 'Trommel', 'Uhr', 'Hut', 'Kiste', 'Tasche', 'Rucksack', 'Schere', 'Blume', 'Socke', 'Kamera', 'Würfel', 'Kette', 'Buch', 'Stift', 'Geige', 'Schlüssel', 'Flasche', 'Ring', 'Eimer']",449.27385989995673,449.2765047000721,None,449.27662670006976,449.27802899992093,None,,,449.278136999812,449.27953109983355,None,449.2796374000609,449.2807843000628,449.28079679980874,455.2838110998273,1,,,,,,,,,,,,,,,,,,,,,,,,,,,,,,,,,,,,,,,,,,,,,,2,2024-01-16_10h39.49.705,watkins1,2023.2.3,99.74146990636673,89,2024-01-16 10h39.56.788832 +0000,
,,,,,,,,,,,,,,,,,,,,,,,,,,,,,,,,,,,,,,,,,,,,,,,,,,,,,,,,,,,,,,,,,,,,,,,2,,,,,,,,,,,,,,,,,,,,,,,,,,,,,,,,,,,,,,,,,,,,,,,,,,,,,,,,,,,,,,,,,,,,,,2,2024-01-16_10h39.49.705,watkins1,2023.2.3,99.74146990636673,89,2024-01-16 10h39.56.788832 +0000,
(25 : 5) + 5 = 9 ,Incorrect,button_incorrect,,,,,,,,,,,,,0,0,0,6,,,,,,,,,469.7511114999652,,,,,,,,,,468.72027269983664,469.7237474001013,,,,,['button_incorrect'],"[3.6678222003392875, 4.952747700270265]",,,,,,,,,,,,,,,,,,,,,,,,,,distractorTask,2,,,,,,,,,,,,,,,,,,,,,,,,,469.74046789994463,469.7511114999652,474.6978036998771,"[-0.3592592592592593, -0.3824074074074074]","[-0.43425925925925923, -0.40370370370370373]","[1, 1]","[0, 0]","[0, 0]","[3.6678222003392875, 4.952747700270265]",['button_incorrect'],474.6984954997897,475.70186269981787,,,,,,,,,,,,,,,,,,,,,,,,,,,,,,,,,,2,2024-01-16_10h39.49.705,watkins1,2023.2.3,99.74146990636673,89,2024-01-16 10h39.56.788832 +0000,
(6 x 3) + 10 = 27 ,Incorrect,button_incorrect,,,,,,,,,,,,,0,1,1,8,,,,,,,,,475.7119561000727,,,,,,,,,,,,,,,,['button_incorrect'],"[3.40059299999848, 3.9026426998898387]",,,,,,,,,,,,,,,,,,,,,,,,,,distractorTask,2,,,,,,,,,,,,,,,,,,,,,,,,,475.702052900102,475.7119561000727,479.60859839990735,"[-0.2962962962962963, -0.2962962962962963]","[-0.36944444444444446, -0.3787037037037037]","[1, 1]","[0, 0]","[0, 0]","[3.40059299999848, 3.9026426998898387]",['button_incorrect'],479.6089933998883,480.61221659975126,,,,,,,,,,,,,,,,,,,,,,,,,,,,,,,,,,2,2024-01-16_10h39.49.705,watkins1,2023.2.3,99.74146990636673,89,2024-01-16 10h39.56.788832 +0000,
(7 x 6) + 9 = 48 ,Incorrect,button_incorrect,,,,,,,,,,,,,0,2,2,9,,,,,,,,,480.6221961998381,,,,,,,,,,,,,,,,['button_incorrect'],"[3.321030099876225, 5.148421799764037]",,,,,,,,,,,,,,,,,,,,,,,,,,distractorTask,2,,,,,,,,,,,,,,,,,,,,,,,,,480.6124052000232,480.6221961998381,485.7638145000674,"[-0.2657407407407407, -0.3685185185185185]","[-0.3972222222222222, -0.41759259259259257]","[1, 1]","[0, 0]","[0, 0]","[3.321030099876225, 5.148421799764037]",['button_incorrect'],485.76422190014273,486.76770759979263,,,,,,,,,,,,,,,,,,,,,,,,,,,,,,,,,,2,2024-01-16_10h39.49.705,watkins1,2023.2.3,99.74146990636673,89,2024-01-16 10h39.56.788832 +0000,
(9 x 5) - 9 = 36 ,Correct,button_correct,,,,,,,,,,,,,0,3,3,4,,,,,,,,,486.7776703997515,,,,,,,,,,,,,,,,['button_correct'],[3.0406011999584734],,,,,,,,,,,,,,,,,,,,,,,,,,distractorTask,2,,,,,,,,,,,,,,,,,,,,,,,,,486.76789860008284,486.7776703997515,489.8107590000145,[0.2962962962962963],[-0.3851851851851852],[1],[0],[0],[3.0406011999584734],['button_correct'],489.81113759987056,490.81421290012076,,,,,,,,,,,,,,,,,,,,,,,,,,,,,,,,,,2,2024-01-16_10h39.49.705,watkins1,2023.2.3,99.74146990636673,89,2024-01-16 10h39.56.788832 +0000,
(28 : 7) - 3 = 1 ,Correct,button_correct,,,,,,,,,,,,,0,4,4,0,,,,,,,,,490.8242359999567,,,,,,,,,,,,,,,,['button_correct'],[3.7744003999978304],,,,,,,,,,,,,,,,,,,,,,,,,,distractorTask,2,,,,,,,,,,,,,,,,,,,,,,,,,490.8144076000899,490.8242359999567,494.5906857997179,[0.41203703703703703],[-0.39444444444444443],[1],[0],[0],[3.7744003999978304],['button_correct'],494.59106120001525,495.5948867998086,,,,,,,,,,,,,,,,,,,,,,,,,,,,,,,,,,2,2024-01-16_10h39.49.705,watkins1,2023.2.3,99.74146990636673,89,2024-01-16 10h39.56.788832 +0000,
(40 : 5) + 8 = 15 ,Incorrect,button_incorrect,,,,,,,,,,,,,0,5,5,7,,,,,,,,,495.60488680005074,,,,,,,,,,,,,,,,['button_incorrect'],[3.523285400122404],,,,,,,,,,,,,,,,,,,,,,,,,,distractorTask,2,,,,,,,,,,,,,,,,,,,,,,,,,495.59508149977773,495.60488680005074,499.1201271000318,[-0.41203703703703703],[-0.3787037037037037],[1],[0],[0],[3.523285400122404],['button_incorrect'],499.12079659989104,500.12374449986964,,,,,,,,,,,,,,,,,,,,,,,,,,,,,,,,,,2,2024-01-16_10h39.49.705,watkins1,2023.2.3,99.74146990636673,89,2024-01-16 10h39.56.788832 +0000,
(2 x 5) + 3 = 13 ,Correct,button_correct,,,,,,,,,,,,,0,6,6,2,,,,,,,,,500.13371580000967,,,,,,,,,,,,,,,,['button_correct'],[2.5991662996821105],,,,,,,,,,,,,,,,,,,,,,,,,,distractorTask,2,,,,,,,,,,,,,,,,,,,,,,,,,500.1239451998845,500.13371580000967,502.7248482001014,[0.39814814814814814],[-0.40555555555555556],[1],[0],[0],[2.5991662996821105],['button_correct'],502.72523939982057,503.7286853999831,,,,,,,,,,,,,,,,,,,,,,,,,,,,,,,,,,2,2024-01-16_10h39.49.705,watkins1,2023.2.3,99.74146990636673,89,2024-01-16 10h39.56.788832 +0000,
(54 : 6) - 10 = 0 ,Incorrect,button_incorrect,,,,,,,,,,,,,0,7,7,5,,,,,,,,,503.73862749990076,,,,,,,,,,,,,,,,['button_incorrect'],[4.7784408996813],,,,,,,,,,,,,,,,,,,,,,,,,,distractorTask,2,,,,,,,,,,,,,,,,,,,,,,,,,503.7288772999309,503.73862749990076,508.5090596997179,[-0.2814814814814815],[-0.38425925925925924],[1],[0],[0],[4.7784408996813],['button_incorrect'],508.50943819992244,509.5134653998539,,,,,,,,,,,,,,,,,,,,,,,,,,,,,,,,,,2,2024-01-16_10h39.49.705,watkins1,2023.2.3,99.74146990636673,89,2024-01-16 10h39.56.788832 +0000,
(80 : 10) + 9 = 17 ,Correct,button_correct,,,,,,,,,,,,,0,8,8,3,,,,,,,,,509.5234487000853,,,,,,,,,,,,,,,,['button_correct'],[2.509093400090933],,,,,,,,,,,,,,,,,,,,,,,,,,distractorTask,2,,,,,,,,,,,,,,,,,,,,,,,,,509.5136580001563,509.5234487000853,512.0245850998908,[0.30925925925925923],[-0.39351851851851855],[1],[0],[0],[2.509093400090933],['button_correct'],512.0249650999904,513.0282441996969,,,,,,,,,,,,,,,,,,,,,,,,,,,,,,,,,,2,2024-01-16_10h39.49.705,watkins1,2023.2.3,99.74146990636673,89,2024-01-16 10h39.56.788832 +0000,
(4 : 2) + 4 = 6 ,Correct,button_correct,,,,,,,,,,,,,0,9,9,1,,,,,,,,,513.0381865999661,,,,,,,,,,,,,,,,['button_correct'],[1.6956088999286294],,,,,,,,,,,,,,,,,,,,,,,,,,distractorTask,2,,,,,,,,,,,,,,,,,,,,,,,,,513.0284385001287,513.0381865999661,514.7257444998249,[0.3194444444444444],[-0.4074074074074074],[1],[0],[0],[1.6956088999286294],['button_correct'],514.7261259998195,515.7295005000196,,,,,,,,,,,,,,,,,,,,,,,,,,,,,,,,,,2,2024-01-16_10h39.49.705,watkins1,2023.2.3,99.74146990636673,89,2024-01-16 10h39.56.788832 +0000,
,,,,,,,,,,,,,,,,,,,,,,,,,,,,,,,,,,,,,,,,,,,,,,,,,,,,,,,,,,,,,,,,,,,,,,,2,,,,,,,,,,,,,,,,,,,,,,,,,,,,,,,,,,,,,,,,,,,,,,,,,,,,,,,,,,,,,,,,,,,,,,2,2024-01-16_10h39.49.705,watkins1,2023.2.3,99.74146990636673,89,2024-01-16 10h39.56.788832 +0000,
,,,,,,,,,,,,,,,,,,,0,0,0,0,,,,,528.8525258000009,,,,,,,,,,,,,,,,Eimer  ,61.367046100087464,,,,,,,,,,,,4.296957299578935,None,,,,,,,,,,,,,freeRecallSub,2,,,,,,,,,,,,,,,,,,,,,,,,,,,,,,,,,,,,,528.8438944998197,528.8525258000009,528.8525258000009,590.2280473997816,return,61.367046100087464,None,Eimer  ,"[-0.004629629629629629, 0.1398148148148148, 0.5407407407407407]","[0.06481481481481481, -0.11481481481481481, 0.05925925925925926]","[1, 1, 1]","[0, 0, 0]","[0, 0, 0]","[1.3944963999092579, 8.77465600008145, 9.52828470012173]",[],,,,,,,,,,,,,,,,,,,2,2024-01-16_10h39.49.705,watkins1,2023.2.3,99.74146990636673,89,2024-01-16 10h39.56.788832 +0000,
,,,,,,,,,,,,,,,,,,,1,0,1,0,,,,,590.2405630997382,,,,,,,,,,,,,,,,Katze,5.131107599940151,,,,,,,,,,,,2.2720714998431504,None,,,,,,,,,,,,,freeRecallSub,2,,,,,,,,,,,,,,,,,,,,,,,,,,,,,,,,,,,,,590.2299000001512,590.2405630997382,590.2405630997382,595.3740173997357,return,5.131107599940151,None,Katze,[],[],[],[],[],[],[],,,,,,,,,,,,,,,,,,,2,2024-01-16_10h39.49.705,watkins1,2023.2.3,99.74146990636673,89,2024-01-16 10h39.56.788832 +0000,
,,,,,,,,,,,,,,,,,,,2,0,2,0,,,,,595.3847765000537,,,,,,,,,,,,,,,,Hund,2.3148385998792946,,,,,,,,,,,,0.3011865997686982,None,,,,,,,,,,,,,freeRecallSub,2,,,,,,,,,,,,,,,,,,,,,,,,,,,,,,,,,,,,,595.375279000029,595.3847765000537,595.3847765000537,597.7049513999373,return,2.3148385998792946,None,Hund,[],[],[],[],[],[],[],,,,,,,,,,,,,,,,,,,2,2024-01-16_10h39.49.705,watkins1,2023.2.3,99.74146990636673,89,2024-01-16 10h39.56.788832 +0000,
,,,,,,,,,,,,,,,,,,,3,0,3,0,,,,,597.7157441996969,,,,,,,,,,,,,,,,Kette,1.200078200083226,,,,,,,,,,,,0.16060050018131733,None,,,,,,,,,,,,,freeRecallSub,2,,,,,,,,,,,,,,,,,,,,,,,,,,,,,,,,,,,,,597.7062161001377,597.7157441996969,597.7157441996969,598.9221995999105,return,1.200078200083226,None,Kette,[],[],[],[],[],[],[],,,,,,,,,,,,,,,,,,,2,2024-01-16_10h39.49.705,watkins1,2023.2.3,99.74146990636673,89,2024-01-16 10h39.56.788832 +0000,
,,,,,,,,,,,,,,,,,,,4,0,4,0,,,,,598.9319623997435,,,,,,,,,,,,,,,,Fahrrad,2.0398021996952593,,,,,,,,,,,,0.5008645998314023,None,,,,,,,,,,,,,freeRecallSub,2,,,,,,,,,,,,,,,,,,,,,,,,,,,,,,,,,,,,,598.9234600998461,598.9319623997435,598.9319623997435,600.9806574000977,return,2.0398021996952593,None,Fahrrad,[],[],[],[],[],[],[],,,,,,,,,,,,,,,,,,,2,2024-01-16_10h39.49.705,watkins1,2023.2.3,99.74146990636673,89,2024-01-16 10h39.56.788832 +0000,
,,,,,,,,,,,,,,,,,,,5,0,5,0,,,,,600.9918943000957,,,,,,,,,,,,,,,,Buch,1.7876732000149786,,,,,,,,,,,,0.8340639001689851,None,,,,,,,,,,,,,freeRecallSub,2,,,,,,,,,,,,,,,,,,,,,,,,,,,,,,,,,,,,,600.9819359998219,600.9918943000957,600.9918943000957,602.7801012001,return,1.7876732000149786,None,Buch,[],[],[],[],[],[],[],,,,,,,,,,,,,,,,,,,2,2024-01-16_10h39.49.705,watkins1,2023.2.3,99.74146990636673,89,2024-01-16 10h39.56.788832 +0000,
,,,,,,,,,,,,,,,,,,,6,0,6,0,,,,,602.7915762998164,,,,,,,,,,,,,,,,Lampe,2.524136300198734,,,,,,,,,,,,1.5675630001351237,None,,,,,,,,,,,,,freeRecallSub,2,,,,,,,,,,,,,,,,,,,,,,,,,,,,,,,,,,,,,602.7813518997282,602.7915762998164,602.7915762998164,605.3228893997148,return,2.524136300198734,None,Lampe,[],[],[],[],[],[],[],,,,,,,,,,,,,,,,,,,2,2024-01-16_10h39.49.705,watkins1,2023.2.3,99.74146990636673,89,2024-01-16 10h39.56.788832 +0000,
,,,,,,,,,,,,,,,,,,,7,0,7,0,,,,,605.3345627998933,,,,,,,,,,,,,,,,Hut,2.4370734998956323,,,,,,,,,,,,1.8289862000383437,None,,,,,,,,,,,,,freeRecallSub,2,,,,,,,,,,,,,,,,,,,,,,,,,,,,,,,,,,,,,605.3241555998102,605.3345627998933,605.3345627998933,607.7758029000834,return,2.4370734998956323,None,Hut,[],[],[],[],[],[],[],,,,,,,,,,,,,,,,,,,2,2024-01-16_10h39.49.705,watkins1,2023.2.3,99.74146990636673,89,2024-01-16 10h39.56.788832 +0000,
,,,,,,,,,,,,,,,,,,,8,0,8,0,,,,,607.78725139983,,,,,,,,,,,,,,,,Socke,13.808440799824893,,,,,,,,,,,,12.816064500249922,None,,,,,,,,,,,,,freeRecallSub,2,,,,,,,,,,,,,,,,,,,,,,,,,,,,,,,,,,,,,607.7770552998409,607.78725139983,607.78725139983,621.5973546998575,return,13.808440799824893,None,Socke,[],[],[],[],[],[],[],,,,,,,,,,,,,,,,,,,2,2024-01-16_10h39.49.705,watkins1,2023.2.3,99.74146990636673,89,2024-01-16 10h39.56.788832 +0000,
,,,,,,,,,,,,,,,,,,,9,0,9,0,,,,,621.609652900137,,,,,,,,,,,,,,,,Jacke,11.92190880002454,,,,,,,,,,,,10.375629000365734,None,,,,,,,,,,,,,freeRecallSub,2,,,,,,,,,,,,,,,,,,,,,,,,,,,,,,,,,,,,,621.5986222997308,621.609652900137,621.609652900137,633.5406973999925,return,11.92190880002454,None,Jacke,[],[],[],[],[],[],[],,,,,,,,,,,,,,,,,,,2,2024-01-16_10h39.49.705,watkins1,2023.2.3,99.74146990636673,89,2024-01-16 10h39.56.788832 +0000,
,,,,,,,,,,,,,,,,,,,10,0,10,0,,,,,633.552940600086,,,,,,,,,,,,,,,,Bürste,8.25085449963808,,,,,,,,,,,,5.967114700004458,None,,,,,,,,,,,,,freeRecallSub,2,,,,,,,,,,,,,,,,,,,,,,,,,,,,,,,,,,,,,633.5419620997272,633.552940600086,633.552940600086,641.8089669998735,return,8.25085449963808,None,Bürste,[],[],[],[],[],[],[],,,,,,,,,,,,,,,,,,,2,2024-01-16_10h39.49.705,watkins1,2023.2.3,99.74146990636673,89,2024-01-16 10h39.56.788832 +0000,
,,,,,,,,,,,,,,,,,,,11,0,11,0,,,,,641.8215727997012,,,,,,,,,,,,,,,,Telefon,60.16609789989889,,,,,,,,,,,,56.054439400322735,None,,,,,,,,,,,,,freeRecallSub,2,,,,,,,,,,,,,,,,,,,,,,,,,,,,,,,,,,,,,641.8103479999118,641.8215727997012,641.8215727997012,701.9916797000915,return,60.16609789989889,None,Telefon,[],[],[],[],[],[],[],,,,,,,,,,,,,,,,,,,2,2024-01-16_10h39.49.705,watkins1,2023.2.3,99.74146990636673,89,2024-01-16 10h39.56.788832 +0000,
,,,,,,,,,,,,,,,,,,,12,0,12,0,,,,,702.0047732000239,,,,,,,,,,,,,,,,Schere,5.310916299931705,,,,,,,,,,,,2.2737283003516495,None,,,,,,,,,,,,,freeRecallSub,2,,,,,,,,,,,,,,,,,,,,,,,,,,,,,,,,,,,,,701.992982099764,702.0047732000239,702.0047732000239,707.3195464001037,return,5.310916299931705,None,Schere,[],[],[],[],[],[],[],,,,,,,,,,,,,,,,,,,2,2024-01-16_10h39.49.705,watkins1,2023.2.3,99.74146990636673,89,2024-01-16 10h39.56.788832 +0000,
,,,,,,,,,,,,,,,,,,,13,0,13,0,,,,,707.3321274998598,,,,,,,,,,,,,,,,Kiste,1.463664200156927,,,,,,,,,,,,0.4352885000407696,None,,,,,,,,,,,,,freeRecallSub,2,,,,,,,,,,,,,,,,,,,,,,,,,,,,,,,,,,,,,707.32081739977,707.3321274998598,707.3321274998598,708.8005217998289,return,1.463664200156927,None,Kiste,[],[],[],[],[],[],[],,,,,,,,,,,,,,,,,,,2,2024-01-16_10h39.49.705,watkins1,2023.2.3,99.74146990636673,89,2024-01-16 10h39.56.788832 +0000,
,,,,,,,,,,,,,,,,,,,14,0,14,0,,,,,708.8133912999183,,,,,,,,,,,,,,,,Ring,42.26225049979985,,,,,,,,,,,,40.755677999928594,None,,,,,,,,,,,,,freeRecallSub,2,,,,,,,,,,,,,,,,,,,,,,,,,,,,,,,,,,,,,708.8017925997265,708.8133912999183,708.8133912999183,751.0835923999548,return,42.26225049979985,None,Ring,[],[],[],[],[],[],[],,,,,,,,,,,,,,,,,,,2,2024-01-16_10h39.49.705,watkins1,2023.2.3,99.74146990636673,89,2024-01-16 10h39.56.788832 +0000,
,,,,,,,,,,,,,,,,,,,15,0,15,0,,,,,751.0973320999183,,,,,,,,,,,,,,,, Rucksack,40.818356699775904,,,,,,,,,,,,2.3252739002928138,None,,,,,,,,,,,,,freeRecallSub,2,,,,,,,,,,,,,,,,,,,,,,,,,,,,,,,,,,,,,751.0848697000183,751.0973320999183,751.0973320999183,791.9193867999129,return,40.818356699775904,None, Rucksack,[],[],[],[],[],[],[],,,,,,,,,,,,,,,,,,,2,2024-01-16_10h39.49.705,watkins1,2023.2.3,99.74146990636673,89,2024-01-16 10h39.56.788832 +0000,
,,,,,,,,,,,,,,,,,,,16,0,16,0,,,,,791.9329061000608,,,,,,,,,,,,,,,,Flasche,6.966746599879116,,,,,,,,,,,,4.905773400329053,None,,,,,,,,,,,,,freeRecallSub,2,,,,,,,,,,,,,,,,,,,,,,,,,,,,,,,,,,,,,791.9206638997421,791.9329061000608,791.9329061000608,798.9052331997082,return,6.966746599879116,None,Flasche,[],[],[],[],[],[],[],,,,,,,,,,,,,,,,,,,2,2024-01-16_10h39.49.705,watkins1,2023.2.3,99.74146990636673,89,2024-01-16 10h39.56.788832 +0000,
,,,,,,,,,,,,,,,,,,,17,0,17,0,,,,,798.9188028001226,,,,,,,,,,,,,,,,,[],,,,,,,,,,,,None,None,,,,,,,,,,,,,freeRecallSub,2,,,,,,,,,,,,,,,,,,,,,,,,,,,,,,,,,,,,,798.9065097998828,798.9188028001226,798.9188028001226,852.8250478999689,None,,,,[0.37777777777777777],[-0.4083333333333333],[1],[0],[0],[53.912577600218356],"['button_continue', 'continue_text']",,,,,,,,,,,,,,,,,,,2,2024-01-16_10h39.49.705,watkins1,2023.2.3,99.74146990636673,89,2024-01-16 10h39.56.788832 +0000,
,,,,,,,,,,,,,,,,,,,,,,,,,,,,,,,,,,,,,,,,,,,,,,,,,,,,,,,,,,,,,,,,,,,,,,,2,,,,,,,,,,,,,,,,,,,,,,,,,,,,,,,,,,,,,,,,,,,,,,,,,,,,,,,,,,,,,,,,,,,,,,2,2024-01-16_10h39.49.705,watkins1,2023.2.3,99.74146990636673,89,2024-01-16 10h39.56.788832 +0000,
,,,,,,,,,,,,,,,,,,,,,,,0,0,0,0,859.6332177999429,,,,,,,,,,,,876.8485874999315,877.3470600000583,,,,17.202524399850518,,,,,,,,,,,,None,None,,,,,,,,,,Tasse,,,cuedRecallAdj,2,,,,,,,,,,,,,,,,,,,,,,,,0,,,,,,,,,,,,,,,,,,,,,,,,,,,,859.6242252001539,859.6332177999429,859.6332177999429,876.8453453998081,niedlich,return,17.202524399850518,None,876.8457313999534,876.8550935001113,876.8550935001113,876.84843620006,,None,,,,,2,2024-01-16_10h39.49.705,watkins1,2023.2.3,99.74146990636673,89,2024-01-16 10h39.56.788832 +0000,
,,,,,,,,,,,,,,,,,,,,,,,1,0,1,0,877.3571083997376,,,,,,,,,,,,879.9710594001226,880.4699258999899,,,,2.60657689999789,,,,,,,,,,,,None,None,,,,,,,,,,Ring,,,cuedRecallAdj,2,,,,,,,,,,,,,,,,,,,,,,,,0,,,,,,,,,,,,,,,,,,,,,,,,,,,,877.3473088997416,877.3571083997376,877.3571083997376,879.9682406000793,gross,return,2.60657689999789,None,879.9684982998297,879.9777969000861,879.9777969000861,879.9709610999562,,None,,,,,2,2024-01-16_10h39.49.705,watkins1,2023.2.3,99.74146990636673,89,2024-01-16 10h39.56.788832 +0000,
,,,,,,,,,,,,,,,,,,,,,,,2,0,2,0,880.479874999728,,,,,,,,,,,,882.4312410000712,882.9300621999428,,,,1.9478846997953951,,,,,,,,,,,,None,None,,,,,,,,,,Stift,,,cuedRecallAdj,2,,,,,,,,,,,,,,,,,,,,,,,,0,,,,,,,,,,,,,,,,,,,,,,,,,,,,880.4701727000065,880.479874999728,880.479874999728,882.428388199769,nass,return,1.9478846997953951,None,882.4286535000429,882.4380618999712,882.4380618999712,882.4311369000934,,None,,,,,2,2024-01-16_10h39.49.705,watkins1,2023.2.3,99.74146990636673,89,2024-01-16 10h39.56.788832 +0000,
,,,,,,,,,,,,,,,,,,,,,,,3,0,3,0,882.9399962997995,,,,,,,,,,,,885.3834445998073,885.8821163997054,,,,2.4396448000334203,,,,,,,,,,,,None,None,,,,,,,,,,Tasche,,,cuedRecallAdj,2,,,,,,,,,,,,,,,,,,,,,,,,0,,,,,,,,,,,,,,,,,,,,,,,,,,,,882.9303099997342,882.9399962997995,882.9399962997995,885.3804178996943,matt,return,2.4396448000334203,None,885.3806853001006,885.3899803999811,885.3899803999811,885.3833419997245,,None,,,,,2,2024-01-16_10h39.49.705,watkins1,2023.2.3,99.74146990636673,89,2024-01-16 10h39.56.788832 +0000,
,,,,,,,,,,,,,,,,,,,,,,,4,0,4,0,885.892074899748,,,,,,,,,,,,892.9948003999889,893.4934338000603,,,,7.095680700149387,,,,,,,,,,,,None,None,,,,,,,,,,Brille,,,cuedRecallAdj,2,,,,,,,,,,,,,,,,,,,,,,,,0,,,,,,,,,,,,,,,,,,,,,,,,,,,,885.8823611997068,885.892074899748,885.892074899748,892.9917397997342,hohl,return,7.095680700149387,None,892.9920069999062,893.0013548000716,893.0013548000716,892.9946980001405,,None,,,,,2,2024-01-16_10h39.49.705,watkins1,2023.2.3,99.74146990636673,89,2024-01-16 10h39.56.788832 +0000,
,,,,,,,,,,,,,,,,,,,,,,,5,0,5,0,893.503346499987,,,,,,,,,,,,896.3581873001531,896.8571421997622,,,,2.844340399838984,,,,,,,,,,,,None,None,,,,,,,,,,Hut,,,cuedRecallAdj,2,,,,,,,,,,,,,,,,,,,,,,,,0,,,,,,,,,,,,,,,,,,,,,,,,,,,,893.4936873000115,893.503346499987,893.503346499987,896.3553204997443,neu,return,2.844340399838984,None,896.3555903998204,896.3649825998582,896.3649825998582,896.3580855000764,,None,,,,,2,2024-01-16_10h39.49.705,watkins1,2023.2.3,99.74146990636673,89,2024-01-16 10h39.56.788832 +0000,
,,,,,,,,,,,,,,,,,,,,,,,6,0,6,0,896.8670604997315,,,,,,,,,,,,899.742651599925,900.2415657998063,,,,2.8646517996676266,,,,,,,,,,,,None,None,,,,,,,,,,Blume,,,cuedRecallAdj,2,,,,,,,,,,,,,,,,,,,,,,,,0,,,,,,,,,,,,,,,,,,,,,,,,,,,,896.8573988997377,896.8670604997315,896.8670604997315,899.7396917999722,glänzend,return,2.8646517996676266,None,899.7399498997256,899.7493353998289,899.7493353998289,899.7425525998697,,None,,,,,2,2024-01-16_10h39.49.705,watkins1,2023.2.3,99.74146990636673,89,2024-01-16 10h39.56.788832 +0000,
,,,,,,,,,,,,,,,,,,,,,,,7,0,7,0,900.25150869973,,,,,,,,,,,,902.9260761998594,903.4245202997699,,,,2.6642208001576364,,,,,,,,,,,,None,None,,,,,,,,,,Flasche,,,cuedRecallAdj,2,,,,,,,,,,,,,,,,,,,,,,,,0,,,,,,,,,,,,,,,,,,,,,,,,,,,,900.2418105998076,900.25150869973,900.25150869973,902.9229578999802,flauschig,return,2.6642208001576364,None,902.9232243001461,902.9324761000462,902.9324761000462,902.9259754000232,,None,,,,,2,2024-01-16_10h39.49.705,watkins1,2023.2.3,99.74146990636673,89,2024-01-16 10h39.56.788832 +0000,
,,,,,,,,,,,,,,,,,,,,,,,8,0,8,0,903.4345773998648,,,,,,,,,,,,908.6997317997739,909.1983862998895,,,,5.257127299904823,,,,,,,,,,,,None,None,,,,,,,,,,Kiste,,,cuedRecallAdj,2,,,,,,,,,,,,,,,,,,,,,,,,0,,,,,,,,,,,,,,,,,,,,,,,,,,,,903.4247726998292,903.4345773998648,903.4345773998648,908.6966740000062,durchsichtig,return,5.257127299904823,None,908.6969365999103,908.70616649976,908.70616649976,908.6996324998327,,None,,,,,2,2024-01-16_10h39.49.705,watkins1,2023.2.3,99.74146990636673,89,2024-01-16 10h39.56.788832 +0000,
,,,,,,,,,,,,,,,,,,,,,,,9,0,9,0,909.208284500055,,,,,,,,,,,,911.1997921001166,911.6985474000685,,,,1.987397300079465,,,,,,,,,,,,None,None,,,,,,,,,,Hammer,,,cuedRecallAdj,2,,,,,,,,,,,,,,,,,,,,,,,,0,,,,,,,,,,,,,,,,,,,,,,,,,,,,909.1986285997555,909.208284500055,909.208284500055,911.1969252000563,dick,return,1.987397300079465,None,911.1971893999726,911.2065355000086,911.2065355000086,911.199691100046,,None,,,,,2,2024-01-16_10h39.49.705,watkins1,2023.2.3,99.74146990636673,89,2024-01-16 10h39.56.788832 +0000,
,,,,,,,,,,,,,,,,,,,,,,,10,0,10,0,911.708468100056,,,,,,,,,,,,916.3714263997972,916.8701717001386,,,,4.655214699916542,,,,,,,,,,,,None,None,,,,,,,,,,Socke,,,cuedRecallAdj,2,,,,,,,,,,,,,,,,,,,,,,,,0,,,,,,,,,,,,,,,,,,,,,,,,,,,,911.6987967998721,911.708468100056,911.708468100056,916.3683405998163,niedlich,return,4.655214699916542,None,916.36860839976,916.3778606001288,916.3778606001288,916.3713253997266,,None,,,,,2,2024-01-16_10h39.49.705,watkins1,2023.2.3,99.74146990636673,89,2024-01-16 10h39.56.788832 +0000,
,,,,,,,,,,,,,,,,,,,,,,,11,0,11,0,916.8801233000122,,,,,,,,,,,,921.1310895001516,921.629757499788,,,,4.243498099967837,,,,,,,,,,,,None,None,,,,,,,,,,Lampe,,,cuedRecallAdj,2,,,,,,,,,,,,,,,,,,,,,,,,0,,,,,,,,,,,,,,,,,,,,,,,,,,,,916.8704173997976,916.8801233000122,916.8801233000122,921.1281123999506,biegsam,return,4.243498099967837,None,921.1283708997071,921.1376585001126,921.1376585001126,921.1309907999821,,None,,,,,2,2024-01-16_10h39.49.705,watkins1,2023.2.3,99.74146990636673,89,2024-01-16 10h39.56.788832 +0000,
,,,,,,,,,,,,,,,,,,,,,,,12,0,12,0,921.6396500999108,,,,,,,,,,,,924.826226499863,925.324875399936,,,,3.179983400274068,,,,,,,,,,,,None,None,,,,,,,,,,Geige,,,cuedRecallAdj,2,,,,,,,,,,,,,,,,,,,,,,,,0,,,,,,,,,,,,,,,,,,,,,,,,,,,,921.6300065000542,921.6396500999108,921.6396500999108,924.8232438997366,winzig,return,3.179983400274068,None,924.8235080000013,924.8327604997903,924.8327604997903,924.8261243999004,,None,,,,,2,2024-01-16_10h39.49.705,watkins1,2023.2.3,99.74146990636673,89,2024-01-16 10h39.56.788832 +0000,
,,,,,,,,,,,,,,,,,,,,,,,13,0,13,0,925.3349214997143,,,,,,,,,,,,927.0252855997533,927.524256600067,,,,1.6847419999539852,,,,,,,,,,,,None,None,,,,,,,,,,Rucksack,,,cuedRecallAdj,2,,,,,,,,,,,,,,,,,,,,,,,,0,,,,,,,,,,,,,,,,,,,,,,,,,,,,925.3251243997365,925.3349214997143,925.3349214997143,927.0223520998843,matt,return,1.6847419999539852,None,927.0226151999086,927.0319223999977,927.0319223999977,927.025184399914,,None,,,,,2,2024-01-16_10h39.49.705,watkins1,2023.2.3,99.74146990636673,89,2024-01-16 10h39.56.788832 +0000,
,,,,,,,,,,,,,,,,,,,,,,,14,0,14,0,927.5343062998727,,,,,,,,,,,,929.8271474000067,930.3258752999827,,,,2.2854132000356913,,,,,,,,,,,,None,None,,,,,,,,,,Telefon,,,cuedRecallAdj,2,,,,,,,,,,,,,,,,,,,,,,,,0,,,,,,,,,,,,,,,,,,,,,,,,,,,,927.5245035998523,927.5343062998727,927.5343062998727,929.8241384997964,hübsch,return,2.2854132000356913,None,929.8244031998329,929.8336772001348,929.8336772001348,929.8270457996987,,None,,,,,2,2024-01-16_10h39.49.705,watkins1,2023.2.3,99.74146990636673,89,2024-01-16 10h39.56.788832 +0000,
,,,,,,,,,,,,,,,,,,,,,,,15,0,15,0,930.3358160997741,,,,,,,,,,,,972.1735128997825,972.6720265001059,,,,41.827886200044304,,,,,,,,,,,,None,None,,,,,,,,,,Löffel,,,cuedRecallAdj,2,,,,,,,,,,,,,,,,,,,,,,,,0,,,,,,,,,,,,,,,,,,,,,,,,,,,,930.3261230997741,930.3358160997741,930.3358160997741,972.1701324000023,iwas wie neutral,return,41.827886200044304,None,972.1704015000723,972.1796452999115,972.1796452999115,972.1734110000543,,None,,,,,2,2024-01-16_10h39.49.705,watkins1,2023.2.3,99.74146990636673,89,2024-01-16 10h39.56.788832 +0000,
,,,,,,,,,,,,,,,,,,,,,,,16,0,16,0,972.6819716999307,,,,,,,,,,,,981.2507846001536,981.7497256998904,,,,8.561622799839824,,,,,,,,,,,,None,None,,,,,,,,,,Kerze,,,cuedRecallAdj,2,,,,,,,,,,,,,,,,,,,,,,,,0,,,,,,,,,,,,,,,,,,,,,,,,,,,,972.6728372001089,972.6819716999307,972.6819716999307,981.2479149000719,zart,return,8.561622799839824,None,981.2481843000278,981.2574427998625,981.2574427998625,981.2506820000708,,None,,,,,2,2024-01-16_10h39.49.705,watkins1,2023.2.3,99.74146990636673,89,2024-01-16 10h39.56.788832 +0000,
,,,,,,,,,,,,,,,,,,,,,,,17,0,17,0,981.7596799000166,,,,,,,,,,,,984.6351648997515,985.1338430996984,,,,2.8679645000956953,,,,,,,,,,,,None,None,,,,,,,,,,Würfel,,,cuedRecallAdj,2,,,,,,,,,,,,,,,,,,,,,,,,0,,,,,,,,,,,,,,,,,,,,,,,,,,,,981.7499767998233,981.7596799000166,981.7596799000166,984.6322204000317,blass,return,2.8679645000956953,None,984.6324809999205,984.6417356999591,984.6417356999591,984.6350662000477,,None,,,,,2,2024-01-16_10h39.49.705,watkins1,2023.2.3,99.74146990636673,89,2024-01-16 10h39.56.788832 +0000,
,,,,,,,,,,,,,,,,,,,,,,,18,0,18,0,985.1437547998503,,,,,,,,,,,,987.325868499931,987.8248270000331,,,,2.171901599969715,,,,,,,,,,,,None,None,,,,,,,,,,Fahrrad,,,cuedRecallAdj,2,,,,,,,,,,,,,,,,,,,,,,,,0,,,,,,,,,,,,,,,,,,,,,,,,,,,,985.1340855997987,985.1437547998503,985.1437547998503,987.3230622997507,kalt,return,2.171901599969715,None,987.3233203999698,987.3327174000442,987.3327174000442,987.325770100113,,None,,,,,2,2024-01-16_10h39.49.705,watkins1,2023.2.3,99.74146990636673,89,2024-01-16 10h39.56.788832 +0000,
,,,,,,,,,,,,,,,,,,,,,,,19,0,19,0,987.8348841997795,,,,,,,,,,,,993.160255599767,993.6589389997534,,,,5.31279919994995,,,,,,,,,,,,None,None,,,,,,,,,,Eimer,,,cuedRecallAdj,2,,,,,,,,,,,,,,,,,,,,,,,,0,,,,,,,,,,,,,,,,,,,,,,,,,,,,987.8250708999112,987.8348841997795,987.8348841997795,993.1570909000002,praktisch,return,5.31279919994995,None,993.1573509001173,993.1668297997676,993.1668297997676,993.1601561997086,,None,,,,,2,2024-01-16_10h39.49.705,watkins1,2023.2.3,99.74146990636673,89,2024-01-16 10h39.56.788832 +0000,
,,,,,,,,,,,,,,,,,,,,,,,20,0,20,0,993.6688850997016,,,,,,,,,,,,997.9099328997545,998.4085121997632,,,,4.230859300121665,,,,,,,,,,,,None,None,,,,,,,,,,Trommel,,,cuedRecallAdj,2,,,,,,,,,,,,,,,,,,,,,,,,0,,,,,,,,,,,,,,,,,,,,,,,,,,,,993.6591877997853,993.6688850997016,993.6688850997016,997.90678820014,nachhaltig,return,4.230859300121665,None,997.9070554999635,997.9163107997738,997.9163107997738,997.9098319001496,,None,,,,,2,2024-01-16_10h39.49.705,watkins1,2023.2.3,99.74146990636673,89,2024-01-16 10h39.56.788832 +0000,
,,,,,,,,,,,,,,,,,,,,,,,21,0,21,0,998.418412799947,,,,,,,,,,,,1001.8860808997415,1002.3848268999718,,,,3.4574710996821523,,,,,,,,,,,,None,None,,,,,,,,,,Schere,,,cuedRecallAdj,2,,,,,,,,,,,,,,,,,,,,,,,,0,,,,,,,,,,,,,,,,,,,,,,,,,,,,998.4087660997175,998.418412799947,998.418412799947,1001.883004900068,hässlich,return,3.4574710996821523,None,1001.8832815997303,1001.8926915000193,1001.8926915000193,1001.8859759001061,,None,,,,,2,2024-01-16_10h39.49.705,watkins1,2023.2.3,99.74146990636673,89,2024-01-16 10h39.56.788832 +0000,
,,,,,,,,,,,,,,,,,,,,,,,22,0,22,0,1002.3947350000963,,,,,,,,,,,,1006.4245955999941,1006.9234106997028,,,,4.024964000098407,,,,,,,,,,,,None,None,,,,,,,,,,Vase,,,cuedRecallAdj,2,,,,,,,,,,,,,,,,,,,,,,,,0,,,,,,,,,,,,,,,,,,,,,,,,,,,,1002.3850708999671,1002.3947350000963,1002.3947350000963,1006.421758200042,robust,return,4.024964000098407,None,1006.42201999994,1006.4322843998671,1006.4322843998671,1006.4244969999418,,None,,,,,2,2024-01-16_10h39.49.705,watkins1,2023.2.3,99.74146990636673,89,2024-01-16 10h39.56.788832 +0000,
,,,,,,,,,,,,,,,,,,,,,,,23,0,23,0,1006.933450399898,,,,,,,,,,,,1009.2964379996993,1009.7952614999376,,,,2.3582362001761794,,,,,,,,,,,,None,None,,,,,,,,,,Kamera,,,cuedRecallAdj,2,,,,,,,,,,,,,,,,,,,,,,,,0,,,,,,,,,,,,,,,,,,,,,,,,,,,,1006.923662299756,1006.933450399898,1006.933450399898,1009.2935558999889,kurz,return,2.3582362001761794,None,1009.2938211001456,1009.3031675000675,1009.3031675000675,1009.2963350997306,,None,,,,,2,2024-01-16_10h39.49.705,watkins1,2023.2.3,99.74146990636673,89,2024-01-16 10h39.56.788832 +0000,
,,,,,,,,,,,,,,,,,,,,,,,24,0,24,0,1009.8051542998292,,,,,,,,,,,,1013.6255024001002,1014.1239366997033,,,,3.814515700098127,,,,,,,,,,,,None,None,,,,,,,,,,Kette,,,cuedRecallAdj,2,,,,,,,,,,,,,,,,,,,,,,,,0,,,,,,,,,,,,,,,,,,,,,,,,,,,,1009.7955054999329,1009.8051542998292,1009.8051542998292,1013.6223387997597,breit,return,3.814515700098127,None,1013.6226043999195,1013.6318878000602,1013.6318878000602,1013.6254004999064,,None,,,,,2,2024-01-16_10h39.49.705,watkins1,2023.2.3,99.74146990636673,89,2024-01-16 10h39.56.788832 +0000,
,,,,,,,,,,,,,,,,,,,,,,,25,0,25,0,1014.1338814999908,,,,,,,,,,,,1019.2380770999007,1019.7369718998671,,,,5.0938478000462055,,,,,,,,,,,,None,None,,,,,,,,,,Buch,,,cuedRecallAdj,2,,,,,,,,,,,,,,,,,,,,,,,,0,,,,,,,,,,,,,,,,,,,,,,,,,,,,1014.1241791998036,1014.1338814999908,1014.1338814999908,1019.2352173998952,glatt,return,5.0938478000462055,None,1019.2354835998267,1019.2449468998238,1019.2449468998238,1019.2379747997038,,None,,,,,2,2024-01-16_10h39.49.705,watkins1,2023.2.3,99.74146990636673,89,2024-01-16 10h39.56.788832 +0000,
,,,,,,,,,,,,,,,,,,,,,,,26,0,26,0,1019.7470273999497,,,,,,,,,,,,1030.7169336997904,1031.215328999795,,,,10.960653699934483,,,,,,,,,,,,None,None,,,,,,,,,,Schlüssel,,,cuedRecallAdj,2,,,,,,,,,,,,,,,,,,,,,,,,0,,,,,,,,,,,,,,,,,,,,,,,,,,,,1019.7372165000997,1019.7470273999497,1019.7470273999497,1030.7138529000804,kaputt,return,10.960653699934483,None,1030.7141197999008,1030.7234443998896,1030.7234443998896,1030.7168310997076,,None,,,,,2,2024-01-16_10h39.49.705,watkins1,2023.2.3,99.74146990636673,89,2024-01-16 10h39.56.788832 +0000,
,,,,,,,,,,,,,,,,,,,,,,,27,0,27,0,1031.2252520998009,,,,,,,,,,,,1033.849673899822,1034.3484537997283,,,,2.6183659001253545,,,,,,,,,,,,None,None,,,,,,,,,,Jacke,,,cuedRecallAdj,2,,,,,,,,,,,,,,,,,,,,,,,,0,,,,,,,,,,,,,,,,,,,,,,,,,,,,1031.215578599833,1031.2252520998009,1031.2252520998009,1033.8468673001043,bunt,return,2.6183659001253545,None,1033.8471340998076,1033.8564951000735,1033.8564951000735,1033.8495720997453,,None,,,,,2,2024-01-16_10h39.49.705,watkins1,2023.2.3,99.74146990636673,89,2024-01-16 10h39.56.788832 +0000,
,,,,,,,,,,,,,,,,,,,,,,,28,0,28,0,1034.358481399715,,,,,,,,,,,,1047.687902300153,1048.1855637999251,,,,13.325466000009328,,,,,,,,,,,,None,None,,,,,,,,,,Bürste,,,cuedRecallAdj,2,,,,,,,,,,,,,,,,,,,,,,,,0,,,,,,,,,,,,,,,,,,,,,,,,,,,,1034.3487025997601,1034.358481399715,1034.358481399715,1047.6843618000858,dunkel,return,13.325466000009328,None,1047.6846497999504,1047.6935716001317,1047.6935716001317,1047.6877890997566,,None,,,,,2,2024-01-16_10h39.49.705,watkins1,2023.2.3,99.74146990636673,89,2024-01-16 10h39.56.788832 +0000,
,,,,,,,,,,,,,,,,,,,,,,,29,0,29,0,1048.1955957999453,,,,,,,,,,,,1058.3982429997995,1058.8971842997707,,,,10.19212430017069,,,,,,,,,,,,None,None,,,,,,,,,,Uhr,,,cuedRecallAdj,2,,,,,,,,,,,,,,,,,,,,,,,,0,,,,,,,,,,,,,,,,,,,,,,,,,,,,1048.1858087996952,1048.1955957999453,1048.1955957999453,1058.3953479998745,kratzig,return,10.19212430017069,None,1058.3956140000373,1058.4050598000176,1058.4050598000176,1058.3981407997198,,None,,,,,2,2024-01-16_10h39.49.705,watkins1,2023.2.3,99.74146990636673,89,2024-01-16 10h39.56.788832 +0000,
,,,,,,,,,,,,,,,,,,,,,,,,,,,,,,,,,,,,,,,,,,,,,,,,,,,,,,,,,,,,,,,,,,,,,,,2,,,,,,,,,,,,,,,,,,,,,,,,,,,,,,,,,,,,,,,,,,,,,,,,,,,,,,,,,,,,,,,,,,1058.9137228997424,q,1534.0340554998256,None,2,2024-01-16_10h39.49.705,watkins1,2023.2.3,99.74146990636673,89,2024-01-16 10h39.56.788832 +0000,
